observation,sender,sender_type,sender_id,response,response_action,ended_on,duration,time_run,time_render,time_show,time_end,time_commit,timestamp,time_switch,distractors,german,swahili,enc,distractor1,distractor2,distractor3,response_2,x,correct,x_2,url_vp,url_sess,meta_labjs_version,meta_location,meta_user_agent,meta_platform,meta_language,meta_locale,meta_time_zone,meta_timezone_offset,meta_screen_width,meta_screen_height,meta_scroll_width,meta_scroll_height,meta_window_inner_width,meta_window_inner_height,meta_device_pixel_ratio,meta_labjs_build_flavor,meta_labjs_build_commit
3c4e1,Introduction general,canvas.Screen,0,weiter,keypress(q),response,53824.224,1690.6999998093,2365806.885,2365856.776,2419681,2419687.5,2023-06-08T15:58:20Z,2419695.827,NULL,NA,NA,NA,NA,NA,NA,NA,NA,NA,NA,214,3,20.2.4,https://neurocog.fernuni.ch/studies/vweber/sfink/encoding_immediate/index.html?vp=214&sess=3,"Mozilla/5.0 (Windows NT 10.0; Win64; x64) AppleWebKit/537.36 (KHTML, like Gecko) Chrome/114.0.0.0 Safari/537.36",Win32,de-CH,de,Europe/Zurich,-120,1536,864,1536,706,1536,754,1.25,production,f5b4a49f956347addd546a832a3327688c2c0fef
3c4e1,Introduction practice,canvas.Screen,1_0,NA,keypress(Space),response,6733.173,2419687.8999999,2419676.876,2419695.827,2426429,2426429.5999999,2023-06-08T15:58:26Z,2426440.472,NULL,NA,NA,NA,NA,NA,NA,NA,NA,NA,NA,NA,NA,NA,NA,NA,NA,NA,NA,NA,NA,NA,NA,NA,NA,NA,NA,NA,NA,NA
3c4e1,Deep Question,html.Page,1_1_0_0_0,NA,NA,form submission,7978.0279999999,2426429.8,2426423.224,2426440.472,2434418.5,2434418.8,2023-06-08T15:58:34Z,2434433.668,"c(""distractor1"", ""distractor2"", ""distractor3"")",Qualität,mtindo,d,NA,NA,NA,asdfk,NA,NA,NA,NA,NA,NA,NA,NA,NA,NA,NA,NA,NA,NA,NA,NA,NA,NA,NA,NA,NA,NA
3c4e1,"""Richtig""-Screen",canvas.Screen,1_1_0_0_1,NA,NA,skipped,NA,2434421.3,NA,NA,2434418.5,2434421.5,2023-06-08T15:58:34Z,2434433.668,"c(""distractor1"", ""distractor2"", ""distractor3"")",Qualität,mtindo,d,NA,NA,NA,NA,NA,NA,NA,NA,NA,NA,NA,NA,NA,NA,NA,NA,NA,NA,NA,NA,NA,NA,NA,NA,NA,NA
3c4e1,"""Falsch""-Screen",canvas.Screen,1_1_0_0_2,NA,NA,timeout,4995.9359999998,2434429.1999998,2434417.165,2434433.668,2439413.343,2439418.1999998,2023-06-08T15:58:39Z,2439429.604,"c(""distractor1"", ""distractor2"", ""distractor3"")",Qualität,mtindo,d,NA,NA,NA,NA,NA,0,NA,NA,NA,NA,NA,NA,NA,NA,NA,NA,NA,NA,NA,NA,NA,NA,NA,NA,NA,NA
3c4e1,deep,flow.Sequence,1_1_0_0,NA,NA,completion,12972.871,2426429.8,2426423.224,2426440.472,2439413.343,2439418.8999999,2023-06-08T15:58:39Z,2439429.604,"c(""distractor1"", ""distractor2"", ""distractor3"")",Qualität,mtindo,d,NA,NA,NA,NA,NA,NA,NA,NA,NA,NA,NA,NA,NA,NA,NA,NA,NA,NA,NA,NA,NA,NA,NA,NA,NA,NA
3c4e1,shallow,flow.Sequence,1_1_0_1,NA,NA,skipped,NA,2439419.0999999,NA,NA,2439413.343,2439419.3999999,2023-06-08T15:58:39Z,2439429.604,"c(""distractor1"", ""distractor2"", ""distractor3"")",Qualität,mtindo,d,NA,NA,NA,NA,NA,NA,NA,NA,NA,NA,NA,NA,NA,NA,NA,NA,NA,NA,NA,NA,NA,NA,NA,NA,NA,NA
3c4e1,task,flow.Sequence,1_1_0,NA,NA,completion,12972.871,2426429.6999998,2426423.224,2426440.472,2439413.343,2439419.8,2023-06-08T15:58:39Z,2439429.604,"c(""distractor1"", ""distractor2"", ""distractor3"")",Qualität,mtindo,d,NA,NA,NA,NA,NA,NA,NA,NA,NA,NA,NA,NA,NA,NA,NA,NA,NA,NA,NA,NA,NA,NA,NA,NA,NA,NA
3c4e1,Deep Question,html.Page,1_1_1_0_0,NA,NA,form submission,3992.5959998094,2439420.1999998,2439413.343,2439429.604,2443422.1999998,2443422.5,2023-06-08T15:58:43Z,2443426.281,"c(""distractor1"", ""distractor2"", ""distractor3"")",Schatten,kivuli,d,NA,NA,NA,asdf,NA,NA,NA,NA,NA,NA,NA,NA,NA,NA,NA,NA,NA,NA,NA,NA,NA,NA,NA,NA,NA,NA
3c4e1,"""Richtig""-Screen",canvas.Screen,1_1_1_0_1,NA,NA,skipped,NA,2443425.3,NA,NA,2443422.1999998,2443425.3999999,2023-06-08T15:58:43Z,2443426.281,"c(""distractor1"", ""distractor2"", ""distractor3"")",Schatten,kivuli,d,NA,NA,NA,NA,NA,NA,NA,NA,NA,NA,NA,NA,NA,NA,NA,NA,NA,NA,NA,NA,NA,NA,NA,NA,NA,NA
3c4e1,"""Falsch""-Screen",canvas.Screen,1_1_1_0_2,NA,NA,timeout,4996.1170000001,2443426.6999998,2443409.955,2443426.281,2448405.738,2448407.3999999,2023-06-08T15:58:48Z,2448422.398,"c(""distractor1"", ""distractor2"", ""distractor3"")",Schatten,kivuli,d,NA,NA,NA,NA,NA,0,NA,NA,NA,NA,NA,NA,NA,NA,NA,NA,NA,NA,NA,NA,NA,NA,NA,NA,NA,NA
3c4e1,deep,flow.Sequence,1_1_1_0,NA,NA,completion,8976.1340000001,2439420,2439413.343,2439429.604,2448405.738,2448408.0999999,2023-06-08T15:58:48Z,2448422.398,"c(""distractor1"", ""distractor2"", ""distractor3"")",Schatten,kivuli,d,NA,NA,NA,NA,NA,NA,NA,NA,NA,NA,NA,NA,NA,NA,NA,NA,NA,NA,NA,NA,NA,NA,NA,NA,NA,NA
3c4e1,shallow,flow.Sequence,1_1_1_1,NA,NA,skipped,NA,2448408.3,NA,NA,2448405.738,2448408.5999999,2023-06-08T15:58:48Z,2448422.398,"c(""distractor1"", ""distractor2"", ""distractor3"")",Schatten,kivuli,d,NA,NA,NA,NA,NA,NA,NA,NA,NA,NA,NA,NA,NA,NA,NA,NA,NA,NA,NA,NA,NA,NA,NA,NA,NA,NA
3c4e1,task,flow.Sequence,1_1_1,NA,NA,completion,8976.1340000001,2439419.8999999,2439413.343,2439429.604,2448405.738,2448409,2023-06-08T15:58:48Z,2448422.398,"c(""distractor1"", ""distractor2"", ""distractor3"")",Schatten,kivuli,d,NA,NA,NA,NA,NA,NA,NA,NA,NA,NA,NA,NA,NA,NA,NA,NA,NA,NA,NA,NA,NA,NA,NA,NA,NA,NA
3c4e1,Deep Question,html.Page,1_1_2_0_0,NA,NA,form submission,3348.5019998569,2448409.3,2448405.738,2448422.398,2451770.8999999,2451771.1999998,2023-06-08T15:58:52Z,2451786.302,"c(""distractor1"", ""distractor2"", ""distractor3"")",Gesundheit,salama,d,NA,NA,NA,kj,NA,NA,NA,NA,NA,NA,NA,NA,NA,NA,NA,NA,NA,NA,NA,NA,NA,NA,NA,NA,NA,NA
3c4e1,"""Richtig""-Screen",canvas.Screen,1_1_2_0_1,NA,NA,skipped,NA,2451773.8999999,NA,NA,2451770.8999999,2451774,2023-06-08T15:58:52Z,2451786.302,"c(""distractor1"", ""distractor2"", ""distractor3"")",Gesundheit,salama,d,NA,NA,NA,NA,NA,NA,NA,NA,NA,NA,NA,NA,NA,NA,NA,NA,NA,NA,NA,NA,NA,NA,NA,NA,NA,NA
3c4e1,"""Falsch""-Screen",canvas.Screen,1_1_2_0_2,NA,NA,timeout,4996.0409999997,2451774.8999999,2451769.788,2451786.302,2456765.713,2456766.5,2023-06-08T15:58:57Z,2456782.343,"c(""distractor1"", ""distractor2"", ""distractor3"")",Gesundheit,salama,d,NA,NA,NA,NA,NA,0,NA,NA,NA,NA,NA,NA,NA,NA,NA,NA,NA,NA,NA,NA,NA,NA,NA,NA,NA,NA
3c4e1,deep,flow.Sequence,1_1_2_0,NA,NA,completion,8343.3149999999,2448409.3,2448405.738,2448422.398,2456765.713,2456767,2023-06-08T15:58:57Z,2456782.343,"c(""distractor1"", ""distractor2"", ""distractor3"")",Gesundheit,salama,d,NA,NA,NA,NA,NA,NA,NA,NA,NA,NA,NA,NA,NA,NA,NA,NA,NA,NA,NA,NA,NA,NA,NA,NA,NA,NA
3c4e1,shallow,flow.Sequence,1_1_2_1,NA,NA,skipped,NA,2456767.1999998,NA,NA,2456765.713,2456767.3999999,2023-06-08T15:58:57Z,2456782.343,"c(""distractor1"", ""distractor2"", ""distractor3"")",Gesundheit,salama,d,NA,NA,NA,NA,NA,NA,NA,NA,NA,NA,NA,NA,NA,NA,NA,NA,NA,NA,NA,NA,NA,NA,NA,NA,NA,NA
3c4e1,task,flow.Sequence,1_1_2,NA,NA,completion,8343.3149999999,2448409.1999998,2448405.738,2448422.398,2456765.713,2456767.6999998,2023-06-08T15:58:57Z,2456782.343,"c(""distractor1"", ""distractor2"", ""distractor3"")",Gesundheit,salama,d,NA,NA,NA,NA,NA,NA,NA,NA,NA,NA,NA,NA,NA,NA,NA,NA,NA,NA,NA,NA,NA,NA,NA,NA,NA,NA
3c4e1,deep,flow.Sequence,1_1_3_0,NA,NA,skipped,NA,2456767.8999999,NA,NA,2456765.713,2456768.0999999,2023-06-08T15:58:57Z,2456782.343,"c(""distractor1"", ""distractor2"", ""distractor3"")",Gegenwart,hadhara,s,katiba,jokofu,mikopo,NA,NA,NA,NA,NA,NA,NA,NA,NA,NA,NA,NA,NA,NA,NA,NA,NA,NA,NA,NA,NA,NA,NA
3c4e1,Shallow Question,html.Page,1_1_3_1_0,NA,NA,form submission,4551.3569998094,2456768.1999998,2456765.713,2456782.343,2461333.6999998,2461333.8999999,2023-06-08T15:59:01Z,2461345.163,"c(""distractor1"", ""distractor2"", ""distractor3"")",Gegenwart,hadhara,s,katiba,jokofu,mikopo,jokofu,NA,NA,NA,NA,NA,NA,NA,NA,NA,NA,NA,NA,NA,NA,NA,NA,NA,NA,NA,NA,NA,NA
3c4e1,"""Richtig""-Screen",canvas.Screen,1_1_3_1_1,NA,NA,skipped,NA,2461335.8,NA,NA,2461333.6999998,2461335.8999999,2023-06-08T15:59:01Z,2461345.163,"c(""distractor1"", ""distractor2"", ""distractor3"")",Gegenwart,hadhara,s,katiba,jokofu,mikopo,NA,NA,NA,NA,NA,NA,NA,NA,NA,NA,NA,NA,NA,NA,NA,NA,NA,NA,NA,NA,NA,NA,NA
3c4e1,"""Falsch""-Screen",canvas.Screen,1_1_3_1_2,NA,NA,timeout,4996.1029999997,2461336.5999999,2461328.467,2461345.163,2466324.052,2466326,2023-06-08T15:59:06Z,2466341.266,"c(""distractor1"", ""distractor2"", ""distractor3"")",Gegenwart,hadhara,s,katiba,jokofu,mikopo,NA,NA,0,NA,NA,NA,NA,NA,NA,NA,NA,NA,NA,NA,NA,NA,NA,NA,NA,NA,NA,NA,NA
3c4e1,shallow,flow.Sequence,1_1_3_1,NA,NA,completion,9541.7090000003,2456768.1999998,2456765.713,2456782.343,2466324.052,2466326.1999998,2023-06-08T15:59:06Z,2466341.266,"c(""distractor1"", ""distractor2"", ""distractor3"")",Gegenwart,hadhara,s,katiba,jokofu,mikopo,NA,NA,NA,NA,NA,NA,NA,NA,NA,NA,NA,NA,NA,NA,NA,NA,NA,NA,NA,NA,NA,NA,NA
3c4e1,task,flow.Sequence,1_1_3,NA,NA,completion,9541.7090000003,2456767.8999999,2456765.713,2456782.343,2466324.052,2466326.3,2023-06-08T15:59:06Z,2466341.266,"c(""distractor1"", ""distractor2"", ""distractor3"")",Gegenwart,hadhara,s,katiba,jokofu,mikopo,NA,NA,NA,NA,NA,NA,NA,NA,NA,NA,NA,NA,NA,NA,NA,NA,NA,NA,NA,NA,NA,NA,NA
3c4e1,deep,flow.Sequence,1_1_4_0,NA,NA,skipped,NA,2466326.3999999,NA,NA,2466324.052,2466326.3999999,2023-06-08T15:59:06Z,2466341.266,"c(""distractor1"", ""distractor2"", ""distractor3"")",Rückhalt,msaada,s,muhula,auwali,kiwimbe,NA,NA,NA,NA,NA,NA,NA,NA,NA,NA,NA,NA,NA,NA,NA,NA,NA,NA,NA,NA,NA,NA,NA
3c4e1,Shallow Question,html.Page,1_1_4_1_0,NA,NA,form submission,3754.0339999525,2466326.3999999,2466324.052,2466341.266,2470095.3,2470095.5,2023-06-08T15:59:10Z,2470104.315,"c(""distractor1"", ""distractor2"", ""distractor3"")",Rückhalt,msaada,s,muhula,auwali,kiwimbe,auwali,NA,NA,NA,NA,NA,NA,NA,NA,NA,NA,NA,NA,NA,NA,NA,NA,NA,NA,NA,NA,NA,NA
3c4e1,"""Richtig""-Screen",canvas.Screen,1_1_4_1_1,NA,NA,skipped,NA,2470103.5999999,NA,NA,2470095.3,2470103.8,2023-06-08T15:59:10Z,2470104.315,"c(""distractor1"", ""distractor2"", ""distractor3"")",Rückhalt,msaada,s,muhula,auwali,kiwimbe,NA,NA,NA,NA,NA,NA,NA,NA,NA,NA,NA,NA,NA,NA,NA,NA,NA,NA,NA,NA,NA,NA,NA
3c4e1,"""Falsch""-Screen",canvas.Screen,1_1_4_1_2,NA,NA,timeout,4996.5300000003,2470104.6999998,2470087.766,2470104.315,2475084.022,2475085.6999998,2023-06-08T15:59:15Z,2475100.845,"c(""distractor1"", ""distractor2"", ""distractor3"")",Rückhalt,msaada,s,muhula,auwali,kiwimbe,NA,NA,0,NA,NA,NA,NA,NA,NA,NA,NA,NA,NA,NA,NA,NA,NA,NA,NA,NA,NA,NA,NA
3c4e1,shallow,flow.Sequence,1_1_4_1,NA,NA,completion,8742.7560000001,2466326.3999999,2466324.052,2466341.266,2475084.022,2475085.8,2023-06-08T15:59:15Z,2475100.845,"c(""distractor1"", ""distractor2"", ""distractor3"")",Rückhalt,msaada,s,muhula,auwali,kiwimbe,NA,NA,NA,NA,NA,NA,NA,NA,NA,NA,NA,NA,NA,NA,NA,NA,NA,NA,NA,NA,NA,NA,NA
3c4e1,task,flow.Sequence,1_1_4,NA,NA,completion,8742.7560000001,2466326.3,2466324.052,2466341.266,2475084.022,2475086,2023-06-08T15:59:15Z,2475100.845,"c(""distractor1"", ""distractor2"", ""distractor3"")",Rückhalt,msaada,s,muhula,auwali,kiwimbe,NA,NA,NA,NA,NA,NA,NA,NA,NA,NA,NA,NA,NA,NA,NA,NA,NA,NA,NA,NA,NA,NA,NA
3c4e1,deep,flow.Sequence,1_1_5_0,NA,NA,skipped,NA,2475086.0999999,NA,NA,2475084.022,2475086.3,2023-06-08T15:59:15Z,2475100.845,"c(""distractor1"", ""distractor2"", ""distractor3"")",Kritik,lawama,s,dereva,nafasi,mawazo,NA,NA,NA,NA,NA,NA,NA,NA,NA,NA,NA,NA,NA,NA,NA,NA,NA,NA,NA,NA,NA,NA,NA
3c4e1,Shallow Question,html.Page,1_1_5_1_0,NA,NA,form submission,4193.8549998091,2475086.3,2475084.022,2475100.845,2479294.6999998,2479294.8,2023-06-08T15:59:19Z,2479296.758,"c(""distractor1"", ""distractor2"", ""distractor3"")",Kritik,lawama,s,dereva,nafasi,mawazo,lawama,NA,NA,NA,NA,NA,NA,NA,NA,NA,NA,NA,NA,NA,NA,NA,NA,NA,NA,NA,NA,NA,NA
3c4e1,"""Richtig""-Screen",canvas.Screen,1_1_5_1_1,NA,NA,timeout,4996.1740000001,2479296.8999999,2479280.213,2479296.758,2484276.787,2484277.3,2023-06-08T15:59:24Z,2484292.932,"c(""distractor1"", ""distractor2"", ""distractor3"")",Kritik,lawama,s,dereva,nafasi,mawazo,NA,NA,1,NA,NA,NA,NA,NA,NA,NA,NA,NA,NA,NA,NA,NA,NA,NA,NA,NA,NA,NA,NA
3c4e1,"""Falsch""-Screen",canvas.Screen,1_1_5_1_2,NA,NA,skipped,NA,2484279.0999999,NA,NA,2484276.787,2484279.1999998,2023-06-08T15:59:24Z,2484292.932,"c(""distractor1"", ""distractor2"", ""distractor3"")",Kritik,lawama,s,dereva,nafasi,mawazo,NA,NA,NA,NA,NA,NA,NA,NA,NA,NA,NA,NA,NA,NA,NA,NA,NA,NA,NA,NA,NA,NA,NA
3c4e1,shallow,flow.Sequence,1_1_5_1,NA,NA,completion,9175.9419999998,2475086.3,2475084.022,2475100.845,2484276.787,2484279.3999999,2023-06-08T15:59:24Z,2484292.932,"c(""distractor1"", ""distractor2"", ""distractor3"")",Kritik,lawama,s,dereva,nafasi,mawazo,NA,NA,NA,NA,NA,NA,NA,NA,NA,NA,NA,NA,NA,NA,NA,NA,NA,NA,NA,NA,NA,NA,NA
3c4e1,task,flow.Sequence,1_1_5,NA,NA,completion,9175.9419999998,2475086.0999999,2475084.022,2475100.845,2484276.787,2484279.5,2023-06-08T15:59:24Z,2484292.932,"c(""distractor1"", ""distractor2"", ""distractor3"")",Kritik,lawama,s,dereva,nafasi,mawazo,NA,NA,NA,NA,NA,NA,NA,NA,NA,NA,NA,NA,NA,NA,NA,NA,NA,NA,NA,NA,NA,NA,NA
3c4e1,block,flow.Loop,1_1,NA,NA,completion,57836.315,2426429.6999998,2426423.224,2426440.472,2484276.787,2484279.5999999,2023-06-08T15:59:24Z,2484292.932,"c(""distractor1"", ""distractor2"", ""distractor3"")",NA,NA,NA,NA,NA,NA,NA,NA,NA,NA,NA,NA,NA,NA,NA,NA,NA,NA,NA,NA,NA,NA,NA,NA,NA,NA,NA,NA,NA
3c4e1,Practice,flow.Sequence,1,NA,NA,completion,64580.96,2419687.8999999,2419676.876,2419695.827,2484276.787,2484279.6999998,2023-06-08T15:59:24Z,2484292.932,NULL,NA,NA,NA,NA,NA,NA,NA,NA,NA,NA,NA,NA,NA,NA,NA,NA,NA,NA,NA,NA,NA,NA,NA,NA,NA,NA,NA,NA,NA
3c4e1,Experiment start,canvas.Screen,2,weiter,keypress(q),response,9210.9679998569,2484279.8,2484276.787,2484292.932,2493503.8999999,2493505.1999998,2023-06-08T15:59:33Z,2493601.798,NULL,NA,NA,NA,NA,NA,NA,NA,NA,NA,NA,NA,NA,NA,NA,NA,NA,NA,NA,NA,NA,NA,NA,NA,NA,NA,NA,NA,NA,NA
3c4e1,deep,flow.Sequence,3_0_0_0_0_0,NA,NA,skipped,NA,2493593.5,NA,NA,2493503.8999999,2493593.5999999,2023-06-08T15:59:33Z,2493601.798,NULL,Schlange,foleni,s,uvumilivu,uteuzi,muuzaji,NA,sdf,NA,0,NA,NA,NA,NA,NA,NA,NA,NA,NA,NA,NA,NA,NA,NA,NA,NA,NA,NA,NA
3c4e1,Shallow Question,html.Page,3_0_0_0_0_1_0,NA,NA,form submission,9202.101999857,2493593.6999998,2493585.079,2493601.798,2502803.8999999,2502804.0999999,2023-06-08T15:59:43Z,2502810.712,NULL,Schlange,foleni,s,uvumilivu,uteuzi,muuzaji,uvumilivu,NA,NA,0,NA,NA,NA,NA,NA,NA,NA,NA,NA,NA,NA,NA,NA,NA,NA,NA,NA,NA,NA
3c4e1,"""Richtig""-Screen",canvas.Screen,3_0_0_0_0_1_1,NA,NA,skipped,NA,2502806,NA,NA,2502803.8999999,2502806.1999998,2023-06-08T15:59:43Z,2502810.712,NULL,Schlange,foleni,s,uvumilivu,uteuzi,muuzaji,NA,sdf,NA,0,NA,NA,NA,NA,NA,NA,NA,NA,NA,NA,NA,NA,NA,NA,NA,NA,NA,NA,NA
3c4e1,"""Falsch""-Screen",canvas.Screen,3_0_0_0_0_1_2,NA,NA,timeout,4995.9399999999,2502806.8,2502794.633,2502810.712,2507790.495,2507791.3999999,2023-06-08T15:59:48Z,2507806.652,NULL,Schlange,foleni,s,uvumilivu,uteuzi,muuzaji,NA,sdf,0,0,NA,NA,NA,NA,NA,NA,NA,NA,NA,NA,NA,NA,NA,NA,NA,NA,NA,NA,NA
3c4e1,shallow,flow.Sequence,3_0_0_0_0_1,NA,NA,completion,14188.697,2493593.5999999,2493585.079,2493601.798,2507790.495,2507791.8999999,2023-06-08T15:59:48Z,2507806.652,NULL,Schlange,foleni,s,uvumilivu,uteuzi,muuzaji,NA,sdf,NA,0,NA,NA,NA,NA,NA,NA,NA,NA,NA,NA,NA,NA,NA,NA,NA,NA,NA,NA,NA
3c4e1,task,flow.Sequence,3_0_0_0_0,NA,NA,completion,14188.697,2493593.3999999,2493585.079,2493601.798,2507790.495,2507792.3,2023-06-08T15:59:48Z,2507806.652,NULL,Schlange,foleni,s,uvumilivu,uteuzi,muuzaji,NA,sdf,NA,0,NA,NA,NA,NA,NA,NA,NA,NA,NA,NA,NA,NA,NA,NA,NA,NA,NA,NA,NA
3c4e1,Deep Question,html.Page,3_0_0_0_1_0_0,NA,NA,form submission,2741.7479998572,2507792.5,2507790.495,2507806.652,2510548.3999999,2510548.5999999,2023-06-08T15:59:50Z,2510554.324,NULL,Fleisch,mshakiki,d,NA,NA,NA,kj,NA,NA,0,NA,NA,NA,NA,NA,NA,NA,NA,NA,NA,NA,NA,NA,NA,NA,NA,NA,NA,NA
3c4e1,"""Richtig""-Screen",canvas.Screen,3_0_0_0_1_0_1,NA,NA,skipped,NA,2510550.5,NA,NA,2510548.3999999,2510550.6999998,2023-06-08T15:59:50Z,2510554.324,NULL,Fleisch,mshakiki,d,NA,NA,NA,NA,sdf,NA,0,NA,NA,NA,NA,NA,NA,NA,NA,NA,NA,NA,NA,NA,NA,NA,NA,NA,NA,NA
3c4e1,"""Falsch""-Screen",canvas.Screen,3_0_0_0_1_0_2,NA,NA,timeout,4996.4249999998,2510551.3,2510538.26,2510554.324,2515533.844,2515534.6999998,2023-06-08T15:59:55Z,2515550.749,NULL,Fleisch,mshakiki,d,NA,NA,NA,NA,sdf,0,0,NA,NA,NA,NA,NA,NA,NA,NA,NA,NA,NA,NA,NA,NA,NA,NA,NA,NA,NA
3c4e1,deep,flow.Sequence,3_0_0_0_1_0,NA,NA,completion,7727.1920000003,2507792.5,2507790.495,2507806.652,2515533.844,2515535.0999999,2023-06-08T15:59:55Z,2515550.749,NULL,Fleisch,mshakiki,d,NA,NA,NA,NA,sdf,NA,0,NA,NA,NA,NA,NA,NA,NA,NA,NA,NA,NA,NA,NA,NA,NA,NA,NA,NA,NA
3c4e1,shallow,flow.Sequence,3_0_0_0_1_1,NA,NA,skipped,NA,2515535.3,NA,NA,2515533.844,2515535.5,2023-06-08T15:59:55Z,2515550.749,NULL,Fleisch,mshakiki,d,NA,NA,NA,NA,sdf,NA,0,NA,NA,NA,NA,NA,NA,NA,NA,NA,NA,NA,NA,NA,NA,NA,NA,NA,NA,NA
3c4e1,task,flow.Sequence,3_0_0_0_1,NA,NA,completion,7727.1920000003,2507792.5,2507790.495,2507806.652,2515533.844,2515535.5999999,2023-06-08T15:59:55Z,2515550.749,NULL,Fleisch,mshakiki,d,NA,NA,NA,NA,sdf,NA,0,NA,NA,NA,NA,NA,NA,NA,NA,NA,NA,NA,NA,NA,NA,NA,NA,NA,NA,NA
3c4e1,deep,flow.Sequence,3_0_0_0_2_0,NA,NA,skipped,NA,2515535.8,NA,NA,2515533.844,2515535.8999999,2023-06-08T15:59:55Z,2515550.749,NULL,Toleranz,kuvumiliana,s,maombolezo,ujasusi,mchekeshaji,NA,sdf,NA,0,NA,NA,NA,NA,NA,NA,NA,NA,NA,NA,NA,NA,NA,NA,NA,NA,NA,NA,NA
3c4e1,Shallow Question,html.Page,3_0_0_0_2_1_0,NA,NA,form submission,5351.1509998571,2515536.0999999,2515533.844,2515550.749,2520901.8999999,2520902.0999999,2023-06-08T16:00:01Z,2520912.531,NULL,Toleranz,kuvumiliana,s,maombolezo,ujasusi,mchekeshaji,ujasusi,NA,NA,0,NA,NA,NA,NA,NA,NA,NA,NA,NA,NA,NA,NA,NA,NA,NA,NA,NA,NA,NA
3c4e1,"""Richtig""-Screen",canvas.Screen,3_0_0_0_2_1_1,NA,NA,skipped,NA,2520904,NA,NA,2520901.8999999,2520904.0999999,2023-06-08T16:00:01Z,2520912.531,NULL,Toleranz,kuvumiliana,s,maombolezo,ujasusi,mchekeshaji,NA,sdf,NA,0,NA,NA,NA,NA,NA,NA,NA,NA,NA,NA,NA,NA,NA,NA,NA,NA,NA,NA,NA
3c4e1,"""Falsch""-Screen",canvas.Screen,3_0_0_0_2_1_2,NA,NA,timeout,4996.2850000001,2520904.6999998,2520895.81,2520912.531,2525891.777,2525893.5999999,2023-06-08T16:00:06Z,2525908.816,NULL,Toleranz,kuvumiliana,s,maombolezo,ujasusi,mchekeshaji,NA,sdf,0,0,NA,NA,NA,NA,NA,NA,NA,NA,NA,NA,NA,NA,NA,NA,NA,NA,NA,NA,NA
3c4e1,shallow,flow.Sequence,3_0_0_0_2_1,NA,NA,completion,10341.028,2515536,2515533.844,2515550.749,2525891.777,2525893.8,2023-06-08T16:00:06Z,2525908.816,NULL,Toleranz,kuvumiliana,s,maombolezo,ujasusi,mchekeshaji,NA,sdf,NA,0,NA,NA,NA,NA,NA,NA,NA,NA,NA,NA,NA,NA,NA,NA,NA,NA,NA,NA,NA
3c4e1,task,flow.Sequence,3_0_0_0_2,NA,NA,completion,10341.028,2515535.6999998,2515533.844,2515550.749,2525891.777,2525893.8999999,2023-06-08T16:00:06Z,2525908.816,NULL,Toleranz,kuvumiliana,s,maombolezo,ujasusi,mchekeshaji,NA,sdf,NA,0,NA,NA,NA,NA,NA,NA,NA,NA,NA,NA,NA,NA,NA,NA,NA,NA,NA,NA,NA
3c4e1,Deep Question,html.Page,3_0_0_0_3_0_0,NA,NA,form submission,4392.7839999045,2525894.0999999,2525891.777,2525908.816,2530301.5999999,2530301.8,2023-06-08T16:00:10Z,2530304.728,NULL,Inhalt,yaliyomo,d,NA,NA,NA,gol,NA,NA,0,NA,NA,NA,NA,NA,NA,NA,NA,NA,NA,NA,NA,NA,NA,NA,NA,NA,NA,NA
3c4e1,"""Richtig""-Screen",canvas.Screen,3_0_0_0_3_0_1,NA,NA,skipped,NA,2530303.8,NA,NA,2530301.5999999,2530303.8999999,2023-06-08T16:00:10Z,2530304.728,NULL,Inhalt,yaliyomo,d,NA,NA,NA,NA,sdf,NA,0,NA,NA,NA,NA,NA,NA,NA,NA,NA,NA,NA,NA,NA,NA,NA,NA,NA,NA,NA
3c4e1,"""Falsch""-Screen",canvas.Screen,3_0_0_0_3_0_2,NA,NA,timeout,4995.9040000001,2530304.5,2530288.671,2530304.728,2535284.425,2535286,2023-06-08T16:00:15Z,2535300.632,NULL,Inhalt,yaliyomo,d,NA,NA,NA,NA,sdf,0,0,NA,NA,NA,NA,NA,NA,NA,NA,NA,NA,NA,NA,NA,NA,NA,NA,NA,NA,NA
3c4e1,deep,flow.Sequence,3_0_0_0_3_0,NA,NA,completion,9375.6089999997,2525894,2525891.777,2525908.816,2535284.425,2535286.3,2023-06-08T16:00:15Z,2535300.632,NULL,Inhalt,yaliyomo,d,NA,NA,NA,NA,sdf,NA,0,NA,NA,NA,NA,NA,NA,NA,NA,NA,NA,NA,NA,NA,NA,NA,NA,NA,NA,NA
3c4e1,shallow,flow.Sequence,3_0_0_0_3_1,NA,NA,skipped,NA,2535286.3999999,NA,NA,2535284.425,2535286.3999999,2023-06-08T16:00:15Z,2535300.632,NULL,Inhalt,yaliyomo,d,NA,NA,NA,NA,sdf,NA,0,NA,NA,NA,NA,NA,NA,NA,NA,NA,NA,NA,NA,NA,NA,NA,NA,NA,NA,NA
3c4e1,task,flow.Sequence,3_0_0_0_3,NA,NA,completion,9375.6089999997,2525894,2525891.777,2525908.816,2535284.425,2535286.5,2023-06-08T16:00:15Z,2535300.632,NULL,Inhalt,yaliyomo,d,NA,NA,NA,NA,sdf,NA,0,NA,NA,NA,NA,NA,NA,NA,NA,NA,NA,NA,NA,NA,NA,NA,NA,NA,NA,NA
3c4e1,deep,flow.Sequence,3_0_0_0_4_0,NA,NA,skipped,NA,2535286.5999999,NA,NA,2535284.425,2535286.6999998,2023-06-08T16:00:15Z,2535300.632,NULL,Begegnung,kukutana,s,mmasihiya,mpiganaji,husiano,NA,sdf,NA,0,NA,NA,NA,NA,NA,NA,NA,NA,NA,NA,NA,NA,NA,NA,NA,NA,NA,NA,NA
3c4e1,Shallow Question,html.Page,3_0_0_0_4_1_0,NA,NA,form submission,6128.7679998567,2535286.8,2535284.425,2535300.632,2541429.3999999,2541429.6999998,2023-06-08T16:00:21Z,2541446.232,NULL,Begegnung,kukutana,s,mmasihiya,mpiganaji,husiano,kukutana,NA,NA,0,NA,NA,NA,NA,NA,NA,NA,NA,NA,NA,NA,NA,NA,NA,NA,NA,NA,NA,NA
3c4e1,"""Richtig""-Screen",canvas.Screen,3_0_0_0_4_1_1,NA,NA,timeout,4995.2600000002,2541431.5,2541412.617,2541446.232,2546425.423,2546426.3999999,2023-06-08T16:00:26Z,2546441.492,NULL,Begegnung,kukutana,s,mmasihiya,mpiganaji,husiano,NA,sdf,1,0,NA,NA,NA,NA,NA,NA,NA,NA,NA,NA,NA,NA,NA,NA,NA,NA,NA,NA,NA
3c4e1,"""Falsch""-Screen",canvas.Screen,3_0_0_0_4_1_2,NA,NA,skipped,NA,2546431.5,NA,NA,2546425.423,2546431.8999999,2023-06-08T16:00:26Z,2546441.492,NULL,Begegnung,kukutana,s,mmasihiya,mpiganaji,husiano,NA,sdf,NA,0,NA,NA,NA,NA,NA,NA,NA,NA,NA,NA,NA,NA,NA,NA,NA,NA,NA,NA,NA
3c4e1,shallow,flow.Sequence,3_0_0_0_4_1,NA,NA,completion,11124.791,2535286.8,2535284.425,2535300.632,2546425.423,2546432.3,2023-06-08T16:00:26Z,2546441.492,NULL,Begegnung,kukutana,s,mmasihiya,mpiganaji,husiano,NA,sdf,NA,0,NA,NA,NA,NA,NA,NA,NA,NA,NA,NA,NA,NA,NA,NA,NA,NA,NA,NA,NA
3c4e1,task,flow.Sequence,3_0_0_0_4,NA,NA,completion,11124.791,2535286.5999999,2535284.425,2535300.632,2546425.423,2546432.5999999,2023-06-08T16:00:26Z,2546441.492,NULL,Begegnung,kukutana,s,mmasihiya,mpiganaji,husiano,NA,sdf,NA,0,NA,NA,NA,NA,NA,NA,NA,NA,NA,NA,NA,NA,NA,NA,NA,NA,NA,NA,NA
3c4e1,deep,flow.Sequence,3_0_0_0_5_0,NA,NA,skipped,NA,2546432.8999999,NA,NA,2546425.423,2546433,2023-06-08T16:00:26Z,2546441.492,NULL,Genehmigung,idhini,s,mwanamke,itikadi,fedheha,NA,sdf,NA,0,NA,NA,NA,NA,NA,NA,NA,NA,NA,NA,NA,NA,NA,NA,NA,NA,NA,NA,NA
3c4e1,Shallow Question,html.Page,3_0_0_0_5_1_0,NA,NA,form submission,4378.9079998569,2546433.3,2546425.423,2546441.492,2550820.3999999,2550820.5999999,2023-06-08T16:00:31Z,2550821.2,NULL,Genehmigung,idhini,s,mwanamke,itikadi,fedheha,fedheha,NA,NA,0,NA,NA,NA,NA,NA,NA,NA,NA,NA,NA,NA,NA,NA,NA,NA,NA,NA,NA,NA
3c4e1,"""Richtig""-Screen",canvas.Screen,3_0_0_0_5_1_1,NA,NA,skipped,NA,2550822.3,NA,NA,2550820.3999999,2550822.5,2023-06-08T16:00:31Z,2550821.2,NULL,Genehmigung,idhini,s,mwanamke,itikadi,fedheha,NA,sdf,NA,0,NA,NA,NA,NA,NA,NA,NA,NA,NA,NA,NA,NA,NA,NA,NA,NA,NA,NA,NA
3c4e1,"""Falsch""-Screen",canvas.Screen,3_0_0_0_5_1_2,NA,NA,timeout,4996.5929999999,2550823.0999999,2550805.066,2550821.2,2555801.007,2555802,2023-06-08T16:00:36Z,2555817.793,NULL,Genehmigung,idhini,s,mwanamke,itikadi,fedheha,NA,sdf,0,0,NA,NA,NA,NA,NA,NA,NA,NA,NA,NA,NA,NA,NA,NA,NA,NA,NA,NA,NA
3c4e1,shallow,flow.Sequence,3_0_0_0_5_1,NA,NA,completion,9359.5150000001,2546433.1999998,2546425.423,2546441.492,2555801.007,2555802.3999999,2023-06-08T16:00:36Z,2555817.793,NULL,Genehmigung,idhini,s,mwanamke,itikadi,fedheha,NA,sdf,NA,0,NA,NA,NA,NA,NA,NA,NA,NA,NA,NA,NA,NA,NA,NA,NA,NA,NA,NA,NA
3c4e1,task,flow.Sequence,3_0_0_0_5,NA,NA,completion,9359.5150000001,2546432.8,2546425.423,2546441.492,2555801.007,2555803,2023-06-08T16:00:36Z,2555817.793,NULL,Genehmigung,idhini,s,mwanamke,itikadi,fedheha,NA,sdf,NA,0,NA,NA,NA,NA,NA,NA,NA,NA,NA,NA,NA,NA,NA,NA,NA,NA,NA,NA,NA
3c4e1,Deep Question,html.Page,3_0_0_0_6_0_0,NA,NA,form submission,2990.1069998569,2555803.3,2555801.007,2555817.793,2558807.8999999,2558808.1999998,2023-06-08T16:00:39Z,2558814.628,NULL,Vermutung,udhanifu,d,NA,NA,NA,ölkj,NA,NA,0,NA,NA,NA,NA,NA,NA,NA,NA,NA,NA,NA,NA,NA,NA,NA,NA,NA,NA,NA
3c4e1,"""Richtig""-Screen",canvas.Screen,3_0_0_0_6_0_1,NA,NA,skipped,NA,2558810.8999999,NA,NA,2558807.8999999,2558811.0999999,2023-06-08T16:00:39Z,2558814.628,NULL,Vermutung,udhanifu,d,NA,NA,NA,NA,sdf,NA,0,NA,NA,NA,NA,NA,NA,NA,NA,NA,NA,NA,NA,NA,NA,NA,NA,NA,NA,NA
3c4e1,"""Falsch""-Screen",canvas.Screen,3_0_0_0_6_0_2,NA,NA,timeout,4996.5,2558812,2558798.568,2558814.628,2563794.222,2563795.1999998,2023-06-08T16:00:44Z,2563811.128,NULL,Vermutung,udhanifu,d,NA,NA,NA,NA,sdf,0,0,NA,NA,NA,NA,NA,NA,NA,NA,NA,NA,NA,NA,NA,NA,NA,NA,NA,NA,NA
3c4e1,deep,flow.Sequence,3_0_0_0_6_0,NA,NA,completion,7976.429,2555803.3,2555801.007,2555817.793,2563794.222,2563795.5999999,2023-06-08T16:00:44Z,2563811.128,NULL,Vermutung,udhanifu,d,NA,NA,NA,NA,sdf,NA,0,NA,NA,NA,NA,NA,NA,NA,NA,NA,NA,NA,NA,NA,NA,NA,NA,NA,NA,NA
3c4e1,shallow,flow.Sequence,3_0_0_0_6_1,NA,NA,skipped,NA,2563795.8,NA,NA,2563794.222,2563796,2023-06-08T16:00:44Z,2563811.128,NULL,Vermutung,udhanifu,d,NA,NA,NA,NA,sdf,NA,0,NA,NA,NA,NA,NA,NA,NA,NA,NA,NA,NA,NA,NA,NA,NA,NA,NA,NA,NA
3c4e1,task,flow.Sequence,3_0_0_0_6,NA,NA,completion,7976.429,2555803.1999998,2555801.007,2555817.793,2563794.222,2563796.3,2023-06-08T16:00:44Z,2563811.128,NULL,Vermutung,udhanifu,d,NA,NA,NA,NA,sdf,NA,0,NA,NA,NA,NA,NA,NA,NA,NA,NA,NA,NA,NA,NA,NA,NA,NA,NA,NA,NA
3c4e1,Deep Question,html.Page,3_0_0_0_7_0_0,NA,NA,form submission,4749.6719999523,2563796.5,2563794.222,2563811.128,2568560.8,2568561.0999999,2023-06-08T16:00:48Z,2568573.461,NULL,Integrität,uadilifu,d,NA,NA,NA,kfhö,NA,NA,0,NA,NA,NA,NA,NA,NA,NA,NA,NA,NA,NA,NA,NA,NA,NA,NA,NA,NA,NA
3c4e1,"""Richtig""-Screen",canvas.Screen,3_0_0_0_7_0_1,NA,NA,skipped,NA,2568562.8999999,NA,NA,2568560.8,2568563,2023-06-08T16:00:48Z,2568573.461,NULL,Integrität,uadilifu,d,NA,NA,NA,NA,sdf,NA,0,NA,NA,NA,NA,NA,NA,NA,NA,NA,NA,NA,NA,NA,NA,NA,NA,NA,NA,NA
3c4e1,"""Falsch""-Screen",canvas.Screen,3_0_0_0_7_0_2,NA,NA,timeout,4995.9180000001,2568563.5999999,2568556.705,2568573.461,2573552.776,2573553.5999999,2023-06-08T16:00:53Z,2573569.379,NULL,Integrität,uadilifu,d,NA,NA,NA,NA,sdf,0,0,NA,NA,NA,NA,NA,NA,NA,NA,NA,NA,NA,NA,NA,NA,NA,NA,NA,NA,NA
3c4e1,deep,flow.Sequence,3_0_0_0_7_0,NA,NA,completion,9741.648,2563796.5,2563794.222,2563811.128,2573552.776,2573554,2023-06-08T16:00:53Z,2573569.379,NULL,Integrität,uadilifu,d,NA,NA,NA,NA,sdf,NA,0,NA,NA,NA,NA,NA,NA,NA,NA,NA,NA,NA,NA,NA,NA,NA,NA,NA,NA,NA
3c4e1,shallow,flow.Sequence,3_0_0_0_7_1,NA,NA,skipped,NA,2573554.1999998,NA,NA,2573552.776,2573554.3,2023-06-08T16:00:53Z,2573569.379,NULL,Integrität,uadilifu,d,NA,NA,NA,NA,sdf,NA,0,NA,NA,NA,NA,NA,NA,NA,NA,NA,NA,NA,NA,NA,NA,NA,NA,NA,NA,NA
3c4e1,task,flow.Sequence,3_0_0_0_7,NA,NA,completion,9741.648,2563796.5,2563794.222,2563811.128,2573552.776,2573554.5999999,2023-06-08T16:00:53Z,2573569.379,NULL,Integrität,uadilifu,d,NA,NA,NA,NA,sdf,NA,0,NA,NA,NA,NA,NA,NA,NA,NA,NA,NA,NA,NA,NA,NA,NA,NA,NA,NA,NA
3c4e1,block,flow.Loop,3_0_0_0,NA,NA,completion,79950.978,2493593.3999999,2493585.079,2493601.798,2573552.776,2573554.8999999,2023-06-08T16:00:53Z,2573569.379,NULL,NA,NA,NA,NA,NA,NA,NA,sdf,NA,0,NA,NA,NA,NA,NA,NA,NA,NA,NA,NA,NA,NA,NA,NA,NA,NA,NA,NA,NA
3c4e1,weiter,canvas.Screen,3_0_0_1,sdf,keypress(Space),response,1780.3209998091,2573555.0999999,2573552.776,2573569.379,2575349.6999998,2575351,2023-06-08T16:00:55Z,2575401.047,NULL,NA,NA,NA,NA,NA,NA,NA,sdf,NA,0,NA,NA,NA,NA,NA,NA,NA,NA,NA,NA,NA,NA,NA,NA,NA,NA,NA,NA,NA
3c4e1,check continue,flow.Sequence,3_0_0,NA,NA,completion,81747.901999809,2493593.3,2493585.079,2493601.798,2575349.6999998,2575351.3,2023-06-08T16:00:55Z,2575401.047,NULL,NA,NA,NA,NA,NA,NA,NA,sdf,NA,0,NA,NA,NA,NA,NA,NA,NA,NA,NA,NA,NA,NA,NA,NA,NA,NA,NA,NA,NA
3c4e1,deep,flow.Sequence,3_0_1_0_0_0,NA,NA,skipped,NA,2575386.6999998,NA,NA,2575349.6999998,2575386.8,2023-06-08T16:00:55Z,2575401.047,NULL,Genehmigung,idhini,s,mwanamke,itikadi,fedheha,NA,sdfdsf,NA,1,NA,NA,NA,NA,NA,NA,NA,NA,NA,NA,NA,NA,NA,NA,NA,NA,NA,NA,NA
3c4e1,Shallow Question,html.Page,3_0_1_0_0_1_0,NA,NA,form submission,5842.2529999525,2575386.8999999,2575384.301,2575401.047,2581243.3,2581243.6999998,2023-06-08T16:01:01Z,2581246.125,NULL,Genehmigung,idhini,s,mwanamke,itikadi,fedheha,idhini,NA,NA,1,NA,NA,NA,NA,NA,NA,NA,NA,NA,NA,NA,NA,NA,NA,NA,NA,NA,NA,NA
3c4e1,"""Richtig""-Screen",canvas.Screen,3_0_1_0_0_1_1,NA,NA,timeout,4995.9589999998,2581245.5,2581230.028,2581246.125,2586225.941,2586226.8999999,2023-06-08T16:01:06Z,2586242.084,NULL,Genehmigung,idhini,s,mwanamke,itikadi,fedheha,NA,sdfdsf,1,1,NA,NA,NA,NA,NA,NA,NA,NA,NA,NA,NA,NA,NA,NA,NA,NA,NA,NA,NA
3c4e1,"""Falsch""-Screen",canvas.Screen,3_0_1_0_0_1_2,NA,NA,skipped,NA,2586232.3,NA,NA,2586225.941,2586232.5,2023-06-08T16:01:06Z,2586242.084,NULL,Genehmigung,idhini,s,mwanamke,itikadi,fedheha,NA,sdfdsf,NA,1,NA,NA,NA,NA,NA,NA,NA,NA,NA,NA,NA,NA,NA,NA,NA,NA,NA,NA,NA
3c4e1,shallow,flow.Sequence,3_0_1_0_0_1,NA,NA,completion,10824.894,2575386.8999999,2575384.301,2575401.047,2586225.941,2586233.0999999,2023-06-08T16:01:06Z,2586242.084,NULL,Genehmigung,idhini,s,mwanamke,itikadi,fedheha,NA,sdfdsf,NA,1,NA,NA,NA,NA,NA,NA,NA,NA,NA,NA,NA,NA,NA,NA,NA,NA,NA,NA,NA
3c4e1,task,flow.Sequence,3_0_1_0_0,NA,NA,completion,10824.894,2575386.6999998,2575384.301,2575401.047,2586225.941,2586233.3,2023-06-08T16:01:06Z,2586242.084,NULL,Genehmigung,idhini,s,mwanamke,itikadi,fedheha,NA,sdfdsf,NA,1,NA,NA,NA,NA,NA,NA,NA,NA,NA,NA,NA,NA,NA,NA,NA,NA,NA,NA,NA
3c4e1,deep,flow.Sequence,3_0_1_0_1_0,NA,NA,skipped,NA,2586233.5999999,NA,NA,2586225.941,2586233.8,2023-06-08T16:01:06Z,2586242.084,NULL,Schlange,foleni,s,uvumilivu,uteuzi,muuzaji,NA,sdfdsf,NA,1,NA,NA,NA,NA,NA,NA,NA,NA,NA,NA,NA,NA,NA,NA,NA,NA,NA,NA,NA
3c4e1,Shallow Question,html.Page,3_0_1_0_1_1_0,NA,NA,form submission,2323.6159998095,2586234,2586225.941,2586242.084,2588565.6999998,2588565.8999999,2023-06-08T16:01:08Z,2588573.486,NULL,Schlange,foleni,s,uvumilivu,uteuzi,muuzaji,foleni,NA,NA,1,NA,NA,NA,NA,NA,NA,NA,NA,NA,NA,NA,NA,NA,NA,NA,NA,NA,NA,NA
3c4e1,"""Richtig""-Screen",canvas.Screen,3_0_1_0_1_1_1,NA,NA,timeout,4995.8569999998,2588566.3999999,2588557.26,2588573.486,2593553.166,2593554,2023-06-08T16:01:13Z,2593569.343,NULL,Schlange,foleni,s,uvumilivu,uteuzi,muuzaji,NA,sdfdsf,1,1,NA,NA,NA,NA,NA,NA,NA,NA,NA,NA,NA,NA,NA,NA,NA,NA,NA,NA,NA
3c4e1,"""Falsch""-Screen",canvas.Screen,3_0_1_0_1_1_2,NA,NA,skipped,NA,2593559.3,NA,NA,2593553.166,2593559.6999998,2023-06-08T16:01:13Z,2593569.343,NULL,Schlange,foleni,s,uvumilivu,uteuzi,muuzaji,NA,sdfdsf,NA,1,NA,NA,NA,NA,NA,NA,NA,NA,NA,NA,NA,NA,NA,NA,NA,NA,NA,NA,NA
3c4e1,shallow,flow.Sequence,3_0_1_0_1_1,NA,NA,completion,7311.0820000004,2586234,2586225.941,2586242.084,2593553.166,2593560.1999998,2023-06-08T16:01:13Z,2593569.343,NULL,Schlange,foleni,s,uvumilivu,uteuzi,muuzaji,NA,sdfdsf,NA,1,NA,NA,NA,NA,NA,NA,NA,NA,NA,NA,NA,NA,NA,NA,NA,NA,NA,NA,NA
3c4e1,task,flow.Sequence,3_0_1_0_1,NA,NA,completion,7311.0820000004,2586233.5,2586225.941,2586242.084,2593553.166,2593560.3999999,2023-06-08T16:01:13Z,2593569.343,NULL,Schlange,foleni,s,uvumilivu,uteuzi,muuzaji,NA,sdfdsf,NA,1,NA,NA,NA,NA,NA,NA,NA,NA,NA,NA,NA,NA,NA,NA,NA,NA,NA,NA,NA
3c4e1,deep,flow.Sequence,3_0_1_0_2_0,NA,NA,skipped,NA,2593560.6999998,NA,NA,2593553.166,2593560.8999999,2023-06-08T16:01:13Z,2593569.343,NULL,Toleranz,kuvumiliana,s,maombolezo,ujasusi,mchekeshaji,NA,sdfdsf,NA,1,NA,NA,NA,NA,NA,NA,NA,NA,NA,NA,NA,NA,NA,NA,NA,NA,NA,NA,NA
3c4e1,Shallow Question,html.Page,3_0_1_0_2_1_0,NA,NA,form submission,5267.6570000001,2593561.0999999,2593553.166,2593569.343,2598837,2598837.3,2023-06-08T16:01:19Z,2598848.293,NULL,Toleranz,kuvumiliana,s,maombolezo,ujasusi,mchekeshaji,kuvumiliana,NA,NA,1,NA,NA,NA,NA,NA,NA,NA,NA,NA,NA,NA,NA,NA,NA,NA,NA,NA,NA,NA
3c4e1,"""Richtig""-Screen",canvas.Screen,3_0_1_0_2_1_1,NA,NA,timeout,4995.9359999998,2598839.0999999,2598831.754,2598848.293,2603828.109,2603829,2023-06-08T16:01:24Z,2603844.229,NULL,Toleranz,kuvumiliana,s,maombolezo,ujasusi,mchekeshaji,NA,sdfdsf,1,1,NA,NA,NA,NA,NA,NA,NA,NA,NA,NA,NA,NA,NA,NA,NA,NA,NA,NA,NA
3c4e1,"""Falsch""-Screen",canvas.Screen,3_0_1_0_2_1_2,NA,NA,skipped,NA,2603834.3,NA,NA,2603828.109,2603834.6999998,2023-06-08T16:01:24Z,2603844.229,NULL,Toleranz,kuvumiliana,s,maombolezo,ujasusi,mchekeshaji,NA,sdfdsf,NA,1,NA,NA,NA,NA,NA,NA,NA,NA,NA,NA,NA,NA,NA,NA,NA,NA,NA,NA,NA
3c4e1,shallow,flow.Sequence,3_0_1_0_2_1,NA,NA,completion,10258.766,2593561,2593553.166,2593569.343,2603828.109,2603835.0999999,2023-06-08T16:01:24Z,2603844.229,NULL,Toleranz,kuvumiliana,s,maombolezo,ujasusi,mchekeshaji,NA,sdfdsf,NA,1,NA,NA,NA,NA,NA,NA,NA,NA,NA,NA,NA,NA,NA,NA,NA,NA,NA,NA,NA
3c4e1,task,flow.Sequence,3_0_1_0_2,NA,NA,completion,10258.766,2593560.5999999,2593553.166,2593569.343,2603828.109,2603835.3999999,2023-06-08T16:01:24Z,2603844.229,NULL,Toleranz,kuvumiliana,s,maombolezo,ujasusi,mchekeshaji,NA,sdfdsf,NA,1,NA,NA,NA,NA,NA,NA,NA,NA,NA,NA,NA,NA,NA,NA,NA,NA,NA,NA,NA
3c4e1,deep,flow.Sequence,3_0_1_0_3_0,NA,NA,skipped,NA,2603835.5999999,NA,NA,2603828.109,2603835.8,2023-06-08T16:01:24Z,2603844.229,NULL,Begegnung,kukutana,s,mmasihiya,mpiganaji,husiano,NA,sdfdsf,NA,1,NA,NA,NA,NA,NA,NA,NA,NA,NA,NA,NA,NA,NA,NA,NA,NA,NA,NA,NA
3c4e1,Shallow Question,html.Page,3_0_1_0_3_1_0,NA,NA,form submission,11579.570999952,2603836,2603828.109,2603844.229,2615423.8,2615424,2023-06-08T16:01:35Z,2615434.861,NULL,Begegnung,kukutana,s,mmasihiya,mpiganaji,husiano,husiano,NA,NA,1,NA,NA,NA,NA,NA,NA,NA,NA,NA,NA,NA,NA,NA,NA,NA,NA,NA,NA,NA
3c4e1,"""Richtig""-Screen",canvas.Screen,3_0_1_0_3_1_1,NA,NA,skipped,NA,2615425.8999999,NA,NA,2615423.8,2615426.0999999,2023-06-08T16:01:35Z,2615434.861,NULL,Begegnung,kukutana,s,mmasihiya,mpiganaji,husiano,NA,sdfdsf,NA,1,NA,NA,NA,NA,NA,NA,NA,NA,NA,NA,NA,NA,NA,NA,NA,NA,NA,NA,NA
3c4e1,"""Falsch""-Screen",canvas.Screen,3_0_1_0_3_1_2,NA,NA,timeout,4995.7149999999,2615426.5999999,2615418.088,2615434.861,2620414.346,2620415.3,2023-06-08T16:01:40Z,2620430.576,NULL,Begegnung,kukutana,s,mmasihiya,mpiganaji,husiano,NA,sdfdsf,0,1,NA,NA,NA,NA,NA,NA,NA,NA,NA,NA,NA,NA,NA,NA,NA,NA,NA,NA,NA
3c4e1,shallow,flow.Sequence,3_0_1_0_3_1,NA,NA,completion,16570.117,2603835.8999999,2603828.109,2603844.229,2620414.346,2620415.6999998,2023-06-08T16:01:40Z,2620430.576,NULL,Begegnung,kukutana,s,mmasihiya,mpiganaji,husiano,NA,sdfdsf,NA,1,NA,NA,NA,NA,NA,NA,NA,NA,NA,NA,NA,NA,NA,NA,NA,NA,NA,NA,NA
3c4e1,task,flow.Sequence,3_0_1_0_3,NA,NA,completion,16570.117,2603835.5,2603828.109,2603844.229,2620414.346,2620416,2023-06-08T16:01:40Z,2620430.576,NULL,Begegnung,kukutana,s,mmasihiya,mpiganaji,husiano,NA,sdfdsf,NA,1,NA,NA,NA,NA,NA,NA,NA,NA,NA,NA,NA,NA,NA,NA,NA,NA,NA,NA,NA
3c4e1,Deep Question,html.Page,3_0_1_0_4_0_0,NA,NA,form submission,4263.3239998571,2620416.3,2620414.346,2620430.576,2624693.8999999,2624694.0999999,2023-06-08T16:01:45Z,2624710.993,NULL,Inhalt,yaliyomo,d,NA,NA,NA,lert,NA,NA,1,NA,NA,NA,NA,NA,NA,NA,NA,NA,NA,NA,NA,NA,NA,NA,NA,NA,NA,NA
3c4e1,"""Richtig""-Screen",canvas.Screen,3_0_1_0_4_0_1,NA,NA,skipped,NA,2624696.0999999,NA,NA,2624693.8999999,2624696.3,2023-06-08T16:01:45Z,2624710.993,NULL,Inhalt,yaliyomo,d,NA,NA,NA,NA,sdfdsf,NA,1,NA,NA,NA,NA,NA,NA,NA,NA,NA,NA,NA,NA,NA,NA,NA,NA,NA,NA,NA
3c4e1,"""Falsch""-Screen",canvas.Screen,3_0_1_0_4_0_2,NA,NA,timeout,4995.5220000003,2624696.8,2624677.186,2624710.993,2629689.951,2629690.5999999,2023-06-08T16:01:50Z,2629706.515,NULL,Inhalt,yaliyomo,d,NA,NA,NA,NA,sdfdsf,0,1,NA,NA,NA,NA,NA,NA,NA,NA,NA,NA,NA,NA,NA,NA,NA,NA,NA,NA,NA
3c4e1,deep,flow.Sequence,3_0_1_0_4_0,NA,NA,completion,9259.375,2620416.1999998,2620414.346,2620430.576,2629689.951,2629690.6999998,2023-06-08T16:01:50Z,2629706.515,NULL,Inhalt,yaliyomo,d,NA,NA,NA,NA,sdfdsf,NA,1,NA,NA,NA,NA,NA,NA,NA,NA,NA,NA,NA,NA,NA,NA,NA,NA,NA,NA,NA
3c4e1,shallow,flow.Sequence,3_0_1_0_4_1,NA,NA,skipped,NA,2629690.8,NA,NA,2629689.951,2629690.8999999,2023-06-08T16:01:50Z,2629706.515,NULL,Inhalt,yaliyomo,d,NA,NA,NA,NA,sdfdsf,NA,1,NA,NA,NA,NA,NA,NA,NA,NA,NA,NA,NA,NA,NA,NA,NA,NA,NA,NA,NA
3c4e1,task,flow.Sequence,3_0_1_0_4,NA,NA,completion,9259.375,2620416.0999999,2620414.346,2620430.576,2629689.951,2629691,2023-06-08T16:01:50Z,2629706.515,NULL,Inhalt,yaliyomo,d,NA,NA,NA,NA,sdfdsf,NA,1,NA,NA,NA,NA,NA,NA,NA,NA,NA,NA,NA,NA,NA,NA,NA,NA,NA,NA,NA
3c4e1,Deep Question,html.Page,3_0_1_0_5_0_0,NA,NA,form submission,5227.0849999045,2629691,2629689.951,2629706.515,2634933.5999999,2634933.8,2023-06-08T16:01:55Z,2634935.258,NULL,Fleisch,mshakiki,d,NA,NA,NA,mshakiki,NA,NA,1,NA,NA,NA,NA,NA,NA,NA,NA,NA,NA,NA,NA,NA,NA,NA,NA,NA,NA,NA
3c4e1,"""Richtig""-Screen",canvas.Screen,3_0_1_0_5_0_1,NA,NA,timeout,4995.9580000001,2634936.1999998,2634919.067,2634935.258,2639915,2639915.8999999,2023-06-08T16:02:00Z,2639931.216,NULL,Fleisch,mshakiki,d,NA,NA,NA,NA,sdfdsf,1,1,NA,NA,NA,NA,NA,NA,NA,NA,NA,NA,NA,NA,NA,NA,NA,NA,NA,NA,NA
3c4e1,"""Falsch""-Screen",canvas.Screen,3_0_1_0_5_0_2,NA,NA,skipped,NA,2639921.1999998,NA,NA,2639915,2639921.5,2023-06-08T16:02:00Z,2639931.216,NULL,Fleisch,mshakiki,d,NA,NA,NA,NA,sdfdsf,NA,1,NA,NA,NA,NA,NA,NA,NA,NA,NA,NA,NA,NA,NA,NA,NA,NA,NA,NA,NA
3c4e1,deep,flow.Sequence,3_0_1_0_5_0,NA,NA,completion,10208.485,2629691,2629689.951,2629706.515,2639915,2639922,2023-06-08T16:02:00Z,2639931.216,NULL,Fleisch,mshakiki,d,NA,NA,NA,NA,sdfdsf,NA,1,NA,NA,NA,NA,NA,NA,NA,NA,NA,NA,NA,NA,NA,NA,NA,NA,NA,NA,NA
3c4e1,shallow,flow.Sequence,3_0_1_0_5_1,NA,NA,skipped,NA,2639922.1999998,NA,NA,2639915,2639922.3999999,2023-06-08T16:02:00Z,2639931.216,NULL,Fleisch,mshakiki,d,NA,NA,NA,NA,sdfdsf,NA,1,NA,NA,NA,NA,NA,NA,NA,NA,NA,NA,NA,NA,NA,NA,NA,NA,NA,NA,NA
3c4e1,task,flow.Sequence,3_0_1_0_5,NA,NA,completion,10208.485,2629691,2629689.951,2629706.515,2639915,2639922.5999999,2023-06-08T16:02:00Z,2639931.216,NULL,Fleisch,mshakiki,d,NA,NA,NA,NA,sdfdsf,NA,1,NA,NA,NA,NA,NA,NA,NA,NA,NA,NA,NA,NA,NA,NA,NA,NA,NA,NA,NA
3c4e1,Deep Question,html.Page,3_0_1_0_6_0_0,NA,NA,form submission,3053.1839998569,2639923.0999999,2639915,2639931.216,2642984.3999999,2642984.6999998,2023-06-08T16:02:03Z,2642995.48,NULL,Integrität,uadilifu,d,NA,NA,NA,sfkj,NA,NA,1,NA,NA,NA,NA,NA,NA,NA,NA,NA,NA,NA,NA,NA,NA,NA,NA,NA,NA,NA
3c4e1,"""Richtig""-Screen",canvas.Screen,3_0_1_0_6_0_1,NA,NA,skipped,NA,2642986.8999999,NA,NA,2642984.3999999,2642987.0999999,2023-06-08T16:02:03Z,2642995.48,NULL,Integrität,uadilifu,d,NA,NA,NA,NA,sdfdsf,NA,1,NA,NA,NA,NA,NA,NA,NA,NA,NA,NA,NA,NA,NA,NA,NA,NA,NA,NA,NA
3c4e1,"""Falsch""-Screen",canvas.Screen,3_0_1_0_6_0_2,NA,NA,timeout,4996.1340000001,2642987.8,2642978.732,2642995.48,2647975.158,2647976.0999999,2023-06-08T16:02:08Z,2647991.614,NULL,Integrität,uadilifu,d,NA,NA,NA,NA,sdfdsf,0,1,NA,NA,NA,NA,NA,NA,NA,NA,NA,NA,NA,NA,NA,NA,NA,NA,NA,NA,NA
3c4e1,deep,flow.Sequence,3_0_1_0_6_0,NA,NA,completion,8043.9419999998,2639923.0999999,2639915,2639931.216,2647975.158,2647976.5999999,2023-06-08T16:02:08Z,2647991.614,NULL,Integrität,uadilifu,d,NA,NA,NA,NA,sdfdsf,NA,1,NA,NA,NA,NA,NA,NA,NA,NA,NA,NA,NA,NA,NA,NA,NA,NA,NA,NA,NA
3c4e1,shallow,flow.Sequence,3_0_1_0_6_1,NA,NA,skipped,NA,2647976.8,NA,NA,2647975.158,2647977,2023-06-08T16:02:08Z,2647991.614,NULL,Integrität,uadilifu,d,NA,NA,NA,NA,sdfdsf,NA,1,NA,NA,NA,NA,NA,NA,NA,NA,NA,NA,NA,NA,NA,NA,NA,NA,NA,NA,NA
3c4e1,task,flow.Sequence,3_0_1_0_6,NA,NA,completion,8043.9419999998,2639923,2639915,2639931.216,2647975.158,2647977.1999998,2023-06-08T16:02:08Z,2647991.614,NULL,Integrität,uadilifu,d,NA,NA,NA,NA,sdfdsf,NA,1,NA,NA,NA,NA,NA,NA,NA,NA,NA,NA,NA,NA,NA,NA,NA,NA,NA,NA,NA
3c4e1,Deep Question,html.Page,3_0_1_0_7_0_0,NA,NA,form submission,3243.0859998092,2647977.5,2647975.158,2647991.614,2651234.6999998,2651234.8999999,2023-06-08T16:02:11Z,2651238.512,NULL,Vermutung,udhanifu,d,NA,NA,NA,lkj,NA,NA,1,NA,NA,NA,NA,NA,NA,NA,NA,NA,NA,NA,NA,NA,NA,NA,NA,NA,NA,NA
3c4e1,"""Richtig""-Screen",canvas.Screen,3_0_1_0_7_0_1,NA,NA,skipped,NA,2651236.6999998,NA,NA,2651234.6999998,2651236.8,2023-06-08T16:02:11Z,2651238.512,NULL,Vermutung,udhanifu,d,NA,NA,NA,NA,sdfdsf,NA,1,NA,NA,NA,NA,NA,NA,NA,NA,NA,NA,NA,NA,NA,NA,NA,NA,NA,NA,NA
3c4e1,"""Falsch""-Screen",canvas.Screen,3_0_1_0_7_0_2,NA,NA,timeout,4995.9380000001,2651237.3999999,2651221.931,2651238.512,2656218.344,2656219.1999998,2023-06-08T16:02:16Z,2656234.45,NULL,Vermutung,udhanifu,d,NA,NA,NA,NA,sdfdsf,0,1,NA,NA,NA,NA,NA,NA,NA,NA,NA,NA,NA,NA,NA,NA,NA,NA,NA,NA,NA
3c4e1,deep,flow.Sequence,3_0_1_0_7_0,NA,NA,completion,8226.73,2647977.5,2647975.158,2647991.614,2656218.344,2656219.6999998,2023-06-08T16:02:16Z,2656234.45,NULL,Vermutung,udhanifu,d,NA,NA,NA,NA,sdfdsf,NA,1,NA,NA,NA,NA,NA,NA,NA,NA,NA,NA,NA,NA,NA,NA,NA,NA,NA,NA,NA
3c4e1,shallow,flow.Sequence,3_0_1_0_7_1,NA,NA,skipped,NA,2656219.8,NA,NA,2656218.344,2656220,2023-06-08T16:02:16Z,2656234.45,NULL,Vermutung,udhanifu,d,NA,NA,NA,NA,sdfdsf,NA,1,NA,NA,NA,NA,NA,NA,NA,NA,NA,NA,NA,NA,NA,NA,NA,NA,NA,NA,NA
3c4e1,task,flow.Sequence,3_0_1_0_7,NA,NA,completion,8226.73,2647977.3999999,2647975.158,2647991.614,2656218.344,2656220.3,2023-06-08T16:02:16Z,2656234.45,NULL,Vermutung,udhanifu,d,NA,NA,NA,NA,sdfdsf,NA,1,NA,NA,NA,NA,NA,NA,NA,NA,NA,NA,NA,NA,NA,NA,NA,NA,NA,NA,NA
3c4e1,block,flow.Loop,3_0_1_0,NA,NA,completion,80817.297,2575386.5999999,2575384.301,2575401.047,2656218.344,2656220.5999999,2023-06-08T16:02:16Z,2656234.45,NULL,NA,NA,NA,NA,NA,NA,NA,sdfdsf,NA,1,NA,NA,NA,NA,NA,NA,NA,NA,NA,NA,NA,NA,NA,NA,NA,NA,NA,NA,NA
3c4e1,weiter,canvas.Screen,3_0_1_1,sdf,keypress(Space),response,1046.8499999521,2656220.6999998,2656218.344,2656234.45,2657281.3,2657282.5999999,2023-06-08T16:02:17Z,2657333.524,NULL,NA,NA,NA,NA,NA,NA,NA,sdfdsf,NA,1,NA,NA,NA,NA,NA,NA,NA,NA,NA,NA,NA,NA,NA,NA,NA,NA,NA,NA,NA
3c4e1,check continue,flow.Sequence,3_0_1,NA,NA,completion,81880.252999953,2575386.5999999,2575384.301,2575401.047,2657281.3,2657283,2023-06-08T16:02:17Z,2657333.524,NULL,NA,NA,NA,NA,NA,NA,NA,sdfdsf,NA,1,NA,NA,NA,NA,NA,NA,NA,NA,NA,NA,NA,NA,NA,NA,NA,NA,NA,NA,NA
3c4e1,Deep Question,html.Page,3_0_2_0_0_0_0,NA,NA,form submission,9529.0759999044,2657322.0999999,2657317.368,2657333.524,2666862.5999999,2666862.8999999,2023-06-08T16:02:27Z,2666876.31,NULL,Integrität,uadilifu,d,NA,NA,NA,udhanifu,NA,NA,2,NA,NA,NA,NA,NA,NA,NA,NA,NA,NA,NA,NA,NA,NA,NA,NA,NA,NA,NA
3c4e1,"""Richtig""-Screen",canvas.Screen,3_0_2_0_0_0_1,NA,NA,skipped,NA,2666864.8,NA,NA,2666862.5999999,2666864.8999999,2023-06-08T16:02:27Z,2666876.31,NULL,Integrität,uadilifu,d,NA,NA,NA,NA,sdf,NA,2,NA,NA,NA,NA,NA,NA,NA,NA,NA,NA,NA,NA,NA,NA,NA,NA,NA,NA,NA
3c4e1,"""Falsch""-Screen",canvas.Screen,3_0_2_0_0_0_2,NA,NA,timeout,4995.6910000001,2666865.3999999,2666859.272,2666876.31,2671855.006,2671856,2023-06-08T16:02:32Z,2671872.001,NULL,Integrität,uadilifu,d,NA,NA,NA,NA,sdf,0,2,NA,NA,NA,NA,NA,NA,NA,NA,NA,NA,NA,NA,NA,NA,NA,NA,NA,NA,NA
3c4e1,deep,flow.Sequence,3_0_2_0_0_0,NA,NA,completion,14521.482,2657322,2657317.368,2657333.524,2671855.006,2671856.3999999,2023-06-08T16:02:32Z,2671872.001,NULL,Integrität,uadilifu,d,NA,NA,NA,NA,sdf,NA,2,NA,NA,NA,NA,NA,NA,NA,NA,NA,NA,NA,NA,NA,NA,NA,NA,NA,NA,NA
3c4e1,shallow,flow.Sequence,3_0_2_0_0_1,NA,NA,skipped,NA,2671856.5,NA,NA,2671855.006,2671856.6999998,2023-06-08T16:02:32Z,2671872.001,NULL,Integrität,uadilifu,d,NA,NA,NA,NA,sdf,NA,2,NA,NA,NA,NA,NA,NA,NA,NA,NA,NA,NA,NA,NA,NA,NA,NA,NA,NA,NA
3c4e1,task,flow.Sequence,3_0_2_0_0,NA,NA,completion,14521.482,2657322,2657317.368,2657333.524,2671855.006,2671856.8999999,2023-06-08T16:02:32Z,2671872.001,NULL,Integrität,uadilifu,d,NA,NA,NA,NA,sdf,NA,2,NA,NA,NA,NA,NA,NA,NA,NA,NA,NA,NA,NA,NA,NA,NA,NA,NA,NA,NA
3c4e1,deep,flow.Sequence,3_0_2_0_1_0,NA,NA,skipped,NA,2671857.0999999,NA,NA,2671855.006,2671857.3,2023-06-08T16:02:32Z,2671872.001,NULL,Genehmigung,idhini,s,mwanamke,itikadi,fedheha,NA,sdf,NA,2,NA,NA,NA,NA,NA,NA,NA,NA,NA,NA,NA,NA,NA,NA,NA,NA,NA,NA,NA
3c4e1,Shallow Question,html.Page,3_0_2_0_1_1_0,NA,NA,form submission,2938.0989999045,2671857.5999999,2671855.006,2671872.001,2674810.0999999,2674810.3,2023-06-08T16:02:35Z,2674819.429,NULL,Genehmigung,idhini,s,mwanamke,itikadi,fedheha,idhini,NA,NA,2,NA,NA,NA,NA,NA,NA,NA,NA,NA,NA,NA,NA,NA,NA,NA,NA,NA,NA,NA
3c4e1,"""Richtig""-Screen",canvas.Screen,3_0_2_0_1_1_1,NA,NA,timeout,4995.9330000002,2674812.0999999,2674802.731,2674819.429,2679798.804,2679799.8,2023-06-08T16:02:40Z,2679815.362,NULL,Genehmigung,idhini,s,mwanamke,itikadi,fedheha,NA,sdf,1,2,NA,NA,NA,NA,NA,NA,NA,NA,NA,NA,NA,NA,NA,NA,NA,NA,NA,NA,NA
3c4e1,"""Falsch""-Screen",canvas.Screen,3_0_2_0_1_1_2,NA,NA,skipped,NA,2679805,NA,NA,2679798.804,2679805.0999999,2023-06-08T16:02:40Z,2679815.362,NULL,Genehmigung,idhini,s,mwanamke,itikadi,fedheha,NA,sdf,NA,2,NA,NA,NA,NA,NA,NA,NA,NA,NA,NA,NA,NA,NA,NA,NA,NA,NA,NA,NA
3c4e1,shallow,flow.Sequence,3_0_2_0_1_1,NA,NA,completion,7926.8029999998,2671857.5999999,2671855.006,2671872.001,2679798.804,2679805.3,2023-06-08T16:02:40Z,2679815.362,NULL,Genehmigung,idhini,s,mwanamke,itikadi,fedheha,NA,sdf,NA,2,NA,NA,NA,NA,NA,NA,NA,NA,NA,NA,NA,NA,NA,NA,NA,NA,NA,NA,NA
3c4e1,task,flow.Sequence,3_0_2_0_1,NA,NA,completion,7926.8029999998,2671857.0999999,2671855.006,2671872.001,2679798.804,2679805.3,2023-06-08T16:02:40Z,2679815.362,NULL,Genehmigung,idhini,s,mwanamke,itikadi,fedheha,NA,sdf,NA,2,NA,NA,NA,NA,NA,NA,NA,NA,NA,NA,NA,NA,NA,NA,NA,NA,NA,NA,NA
3c4e1,deep,flow.Sequence,3_0_2_0_2_0,NA,NA,skipped,NA,2679805.3999999,NA,NA,2679798.804,2679805.3999999,2023-06-08T16:02:40Z,2679815.362,NULL,Schlange,foleni,s,uvumilivu,uteuzi,muuzaji,NA,sdf,NA,2,NA,NA,NA,NA,NA,NA,NA,NA,NA,NA,NA,NA,NA,NA,NA,NA,NA,NA,NA
3c4e1,Shallow Question,html.Page,3_0_2_0_2_1_0,NA,NA,form submission,2023.0379998568,2679805.3999999,2679798.804,2679815.362,2681838.3999999,2681838.5999999,2023-06-08T16:02:42Z,2681846.837,NULL,Schlange,foleni,s,uvumilivu,uteuzi,muuzaji,foleni,NA,NA,2,NA,NA,NA,NA,NA,NA,NA,NA,NA,NA,NA,NA,NA,NA,NA,NA,NA,NA,NA
3c4e1,"""Richtig""-Screen",canvas.Screen,3_0_2_0_2_1_1,NA,NA,timeout,4995.855,2681839.1999998,2681830.586,2681846.837,2686826.452,2686827.3999999,2023-06-08T16:02:47Z,2686842.692,NULL,Schlange,foleni,s,uvumilivu,uteuzi,muuzaji,NA,sdf,1,2,NA,NA,NA,NA,NA,NA,NA,NA,NA,NA,NA,NA,NA,NA,NA,NA,NA,NA,NA
3c4e1,"""Falsch""-Screen",canvas.Screen,3_0_2_0_2_1_2,NA,NA,skipped,NA,2686832.8999999,NA,NA,2686826.452,2686833.1999998,2023-06-08T16:02:47Z,2686842.692,NULL,Schlange,foleni,s,uvumilivu,uteuzi,muuzaji,NA,sdf,NA,2,NA,NA,NA,NA,NA,NA,NA,NA,NA,NA,NA,NA,NA,NA,NA,NA,NA,NA,NA
3c4e1,shallow,flow.Sequence,3_0_2_0_2_1,NA,NA,completion,7011.0899999999,2679805.3999999,2679798.804,2679815.362,2686826.452,2686833.5999999,2023-06-08T16:02:47Z,2686842.692,NULL,Schlange,foleni,s,uvumilivu,uteuzi,muuzaji,NA,sdf,NA,2,NA,NA,NA,NA,NA,NA,NA,NA,NA,NA,NA,NA,NA,NA,NA,NA,NA,NA,NA
3c4e1,task,flow.Sequence,3_0_2_0_2,NA,NA,completion,7011.0899999999,2679805.3,2679798.804,2679815.362,2686826.452,2686833.8999999,2023-06-08T16:02:47Z,2686842.692,NULL,Schlange,foleni,s,uvumilivu,uteuzi,muuzaji,NA,sdf,NA,2,NA,NA,NA,NA,NA,NA,NA,NA,NA,NA,NA,NA,NA,NA,NA,NA,NA,NA,NA
3c4e1,Deep Question,html.Page,3_0_2_0_3_0_0,NA,NA,form submission,14545.308,2686834.1999998,2686826.452,2686842.692,2701388,2701388.1999998,2023-06-08T16:03:01Z,2701397.23,NULL,Inhalt,yaliyomo,d,NA,NA,NA,l,NA,NA,2,NA,NA,NA,NA,NA,NA,NA,NA,NA,NA,NA,NA,NA,NA,NA,NA,NA,NA,NA
3c4e1,"""Richtig""-Screen",canvas.Screen,3_0_2_0_3_0_1,NA,NA,skipped,NA,2701390.1999998,NA,NA,2701388,2701390.3,2023-06-08T16:03:01Z,2701397.23,NULL,Inhalt,yaliyomo,d,NA,NA,NA,NA,sdf,NA,2,NA,NA,NA,NA,NA,NA,NA,NA,NA,NA,NA,NA,NA,NA,NA,NA,NA,NA,NA
3c4e1,"""Falsch""-Screen",canvas.Screen,3_0_2_0_3_0_2,NA,NA,timeout,4996.2080000001,2701391,2701381.211,2701397.23,2706376.916,2706377.8,2023-06-08T16:03:06Z,2706393.438,NULL,Inhalt,yaliyomo,d,NA,NA,NA,NA,sdf,0,2,NA,NA,NA,NA,NA,NA,NA,NA,NA,NA,NA,NA,NA,NA,NA,NA,NA,NA,NA
3c4e1,deep,flow.Sequence,3_0_2_0_3_0,NA,NA,completion,19534.224,2686834.0999999,2686826.452,2686842.692,2706376.916,2706378.1999998,2023-06-08T16:03:06Z,2706393.438,NULL,Inhalt,yaliyomo,d,NA,NA,NA,NA,sdf,NA,2,NA,NA,NA,NA,NA,NA,NA,NA,NA,NA,NA,NA,NA,NA,NA,NA,NA,NA,NA
3c4e1,shallow,flow.Sequence,3_0_2_0_3_1,NA,NA,skipped,NA,2706378.3999999,NA,NA,2706376.916,2706378.5999999,2023-06-08T16:03:06Z,2706393.438,NULL,Inhalt,yaliyomo,d,NA,NA,NA,NA,sdf,NA,2,NA,NA,NA,NA,NA,NA,NA,NA,NA,NA,NA,NA,NA,NA,NA,NA,NA,NA,NA
3c4e1,task,flow.Sequence,3_0_2_0_3,NA,NA,completion,19534.224,2686834,2686826.452,2686842.692,2706376.916,2706378.8999999,2023-06-08T16:03:06Z,2706393.438,NULL,Inhalt,yaliyomo,d,NA,NA,NA,NA,sdf,NA,2,NA,NA,NA,NA,NA,NA,NA,NA,NA,NA,NA,NA,NA,NA,NA,NA,NA,NA,NA
3c4e1,deep,flow.Sequence,3_0_2_0_4_0,NA,NA,skipped,NA,2706379,NA,NA,2706376.916,2706379.1999998,2023-06-08T16:03:06Z,2706393.438,NULL,Toleranz,kuvumiliana,s,maombolezo,ujasusi,mchekeshaji,NA,sdf,NA,2,NA,NA,NA,NA,NA,NA,NA,NA,NA,NA,NA,NA,NA,NA,NA,NA,NA,NA,NA
3c4e1,Shallow Question,html.Page,3_0_2_0_4_1_0,NA,NA,form submission,9585.0619999999,2706379.3999999,2706376.916,2706393.438,2715978.5,2715978.6999998,2023-06-08T16:03:16Z,2715985.237,NULL,Toleranz,kuvumiliana,s,maombolezo,ujasusi,mchekeshaji,kuvumiliana,NA,NA,2,NA,NA,NA,NA,NA,NA,NA,NA,NA,NA,NA,NA,NA,NA,NA,NA,NA,NA,NA
3c4e1,"""Richtig""-Screen",canvas.Screen,3_0_2_0_4_1_1,NA,NA,timeout,4995.9929999998,2715980.5,2715969.122,2715985.237,2720964.536,2720965.5999999,2023-06-08T16:03:21Z,2720981.23,NULL,Toleranz,kuvumiliana,s,maombolezo,ujasusi,mchekeshaji,NA,sdf,1,2,NA,NA,NA,NA,NA,NA,NA,NA,NA,NA,NA,NA,NA,NA,NA,NA,NA,NA,NA
3c4e1,"""Falsch""-Screen",canvas.Screen,3_0_2_0_4_1_2,NA,NA,skipped,NA,2720970.8999999,NA,NA,2720964.536,2720971.3,2023-06-08T16:03:21Z,2720981.23,NULL,Toleranz,kuvumiliana,s,maombolezo,ujasusi,mchekeshaji,NA,sdf,NA,2,NA,NA,NA,NA,NA,NA,NA,NA,NA,NA,NA,NA,NA,NA,NA,NA,NA,NA,NA
3c4e1,shallow,flow.Sequence,3_0_2_0_4_1,NA,NA,completion,14571.098,2706379.1999998,2706376.916,2706393.438,2720964.536,2720971.5999999,2023-06-08T16:03:21Z,2720981.23,NULL,Toleranz,kuvumiliana,s,maombolezo,ujasusi,mchekeshaji,NA,sdf,NA,2,NA,NA,NA,NA,NA,NA,NA,NA,NA,NA,NA,NA,NA,NA,NA,NA,NA,NA,NA
3c4e1,task,flow.Sequence,3_0_2_0_4,NA,NA,completion,14571.098,2706378.8999999,2706376.916,2706393.438,2720964.536,2720971.8999999,2023-06-08T16:03:21Z,2720981.23,NULL,Toleranz,kuvumiliana,s,maombolezo,ujasusi,mchekeshaji,NA,sdf,NA,2,NA,NA,NA,NA,NA,NA,NA,NA,NA,NA,NA,NA,NA,NA,NA,NA,NA,NA,NA
3c4e1,Deep Question,html.Page,3_0_2_0_5_0_0,NA,NA,form submission,5603.169999857,2720972.1999998,2720964.536,2720981.23,2726584.3999999,2726584.6999998,2023-06-08T16:03:26Z,2726593.167,NULL,Fleisch,mshakiki,d,NA,NA,NA,mshakiki,NA,NA,2,NA,NA,NA,NA,NA,NA,NA,NA,NA,NA,NA,NA,NA,NA,NA,NA,NA,NA,NA
3c4e1,"""Richtig""-Screen",canvas.Screen,3_0_2_0_5_0_1,NA,NA,timeout,4995.861,2726586.5999999,2726577.095,2726593.167,2731572.471,2731574.0999999,2023-06-08T16:03:31Z,2731589.028,NULL,Fleisch,mshakiki,d,NA,NA,NA,NA,sdf,1,2,NA,NA,NA,NA,NA,NA,NA,NA,NA,NA,NA,NA,NA,NA,NA,NA,NA,NA,NA
3c4e1,"""Falsch""-Screen",canvas.Screen,3_0_2_0_5_0_2,NA,NA,skipped,NA,2731578.8999999,NA,NA,2731572.471,2731579,2023-06-08T16:03:31Z,2731589.028,NULL,Fleisch,mshakiki,d,NA,NA,NA,NA,sdf,NA,2,NA,NA,NA,NA,NA,NA,NA,NA,NA,NA,NA,NA,NA,NA,NA,NA,NA,NA,NA
3c4e1,deep,flow.Sequence,3_0_2_0_5_0,NA,NA,completion,10591.241,2720972.0999999,2720964.536,2720981.23,2731572.471,2731579,2023-06-08T16:03:31Z,2731589.028,NULL,Fleisch,mshakiki,d,NA,NA,NA,NA,sdf,NA,2,NA,NA,NA,NA,NA,NA,NA,NA,NA,NA,NA,NA,NA,NA,NA,NA,NA,NA,NA
3c4e1,shallow,flow.Sequence,3_0_2_0_5_1,NA,NA,skipped,NA,2731579.0999999,NA,NA,2731572.471,2731579.1999998,2023-06-08T16:03:31Z,2731589.028,NULL,Fleisch,mshakiki,d,NA,NA,NA,NA,sdf,NA,2,NA,NA,NA,NA,NA,NA,NA,NA,NA,NA,NA,NA,NA,NA,NA,NA,NA,NA,NA
3c4e1,task,flow.Sequence,3_0_2_0_5,NA,NA,completion,10591.241,2720972.0999999,2720964.536,2720981.23,2731572.471,2731579.3,2023-06-08T16:03:31Z,2731589.028,NULL,Fleisch,mshakiki,d,NA,NA,NA,NA,sdf,NA,2,NA,NA,NA,NA,NA,NA,NA,NA,NA,NA,NA,NA,NA,NA,NA,NA,NA,NA,NA
3c4e1,deep,flow.Sequence,3_0_2_0_6_0,NA,NA,skipped,NA,2731579.3,NA,NA,2731572.471,2731579.3,2023-06-08T16:03:31Z,2731589.028,NULL,Begegnung,kukutana,s,mmasihiya,mpiganaji,husiano,NA,sdf,NA,2,NA,NA,NA,NA,NA,NA,NA,NA,NA,NA,NA,NA,NA,NA,NA,NA,NA,NA,NA
3c4e1,Shallow Question,html.Page,3_0_2_0_6_1_0,NA,NA,form submission,3912.1719998093,2731579.3999999,2731572.471,2731589.028,2735501.1999998,2735501.5999999,2023-06-08T16:03:35Z,2735502.481,NULL,Begegnung,kukutana,s,mmasihiya,mpiganaji,husiano,kukutana,NA,NA,2,NA,NA,NA,NA,NA,NA,NA,NA,NA,NA,NA,NA,NA,NA,NA,NA,NA,NA,NA
3c4e1,"""Richtig""-Screen",canvas.Screen,3_0_2_0_6_1_1,NA,NA,timeout,4995.8929999997,2735503.5999999,2735486.41,2735502.481,2740482.215,2740483.1999998,2023-06-08T16:03:40Z,2740498.374,NULL,Begegnung,kukutana,s,mmasihiya,mpiganaji,husiano,NA,sdf,1,2,NA,NA,NA,NA,NA,NA,NA,NA,NA,NA,NA,NA,NA,NA,NA,NA,NA,NA,NA
3c4e1,"""Falsch""-Screen",canvas.Screen,3_0_2_0_6_1_2,NA,NA,skipped,NA,2740488.3,NA,NA,2740482.215,2740488.5,2023-06-08T16:03:40Z,2740498.374,NULL,Begegnung,kukutana,s,mmasihiya,mpiganaji,husiano,NA,sdf,NA,2,NA,NA,NA,NA,NA,NA,NA,NA,NA,NA,NA,NA,NA,NA,NA,NA,NA,NA,NA
3c4e1,shallow,flow.Sequence,3_0_2_0_6_1,NA,NA,completion,8893.1869999999,2731579.3999999,2731572.471,2731589.028,2740482.215,2740488.5999999,2023-06-08T16:03:40Z,2740498.374,NULL,Begegnung,kukutana,s,mmasihiya,mpiganaji,husiano,NA,sdf,NA,2,NA,NA,NA,NA,NA,NA,NA,NA,NA,NA,NA,NA,NA,NA,NA,NA,NA,NA,NA
3c4e1,task,flow.Sequence,3_0_2_0_6,NA,NA,completion,8893.1869999999,2731579.3,2731572.471,2731589.028,2740482.215,2740488.6999998,2023-06-08T16:03:40Z,2740498.374,NULL,Begegnung,kukutana,s,mmasihiya,mpiganaji,husiano,NA,sdf,NA,2,NA,NA,NA,NA,NA,NA,NA,NA,NA,NA,NA,NA,NA,NA,NA,NA,NA,NA,NA
3c4e1,Deep Question,html.Page,3_0_2_0_7_0_0,NA,NA,form submission,8801.1260000002,2740488.6999998,2740482.215,2740498.374,2749299.5,2749299.8,2023-06-08T16:03:49Z,2749307.774,NULL,Vermutung,udhanifu,d,NA,NA,NA,asdf,NA,NA,2,NA,NA,NA,NA,NA,NA,NA,NA,NA,NA,NA,NA,NA,NA,NA,NA,NA,NA,NA
3c4e1,"""Richtig""-Screen",canvas.Screen,3_0_2_0_7_0_1,NA,NA,skipped,NA,2749301.8,NA,NA,2749299.5,2749301.8999999,2023-06-08T16:03:49Z,2749307.774,NULL,Vermutung,udhanifu,d,NA,NA,NA,NA,sdf,NA,2,NA,NA,NA,NA,NA,NA,NA,NA,NA,NA,NA,NA,NA,NA,NA,NA,NA,NA,NA
3c4e1,"""Falsch""-Screen",canvas.Screen,3_0_2_0_7_0_2,NA,NA,timeout,4996.2759999996,2749302.8999999,2749291.643,2749307.774,2754287.604,2754288.5,2023-06-08T16:03:54Z,2754304.05,NULL,Vermutung,udhanifu,d,NA,NA,NA,NA,sdf,0,2,NA,NA,NA,NA,NA,NA,NA,NA,NA,NA,NA,NA,NA,NA,NA,NA,NA,NA,NA
3c4e1,deep,flow.Sequence,3_0_2_0_7_0,NA,NA,completion,13789.23,2740488.6999998,2740482.215,2740498.374,2754287.604,2754288.8,2023-06-08T16:03:54Z,2754304.05,NULL,Vermutung,udhanifu,d,NA,NA,NA,NA,sdf,NA,2,NA,NA,NA,NA,NA,NA,NA,NA,NA,NA,NA,NA,NA,NA,NA,NA,NA,NA,NA
3c4e1,shallow,flow.Sequence,3_0_2_0_7_1,NA,NA,skipped,NA,2754289,NA,NA,2754287.604,2754289.0999999,2023-06-08T16:03:54Z,2754304.05,NULL,Vermutung,udhanifu,d,NA,NA,NA,NA,sdf,NA,2,NA,NA,NA,NA,NA,NA,NA,NA,NA,NA,NA,NA,NA,NA,NA,NA,NA,NA,NA
3c4e1,task,flow.Sequence,3_0_2_0_7,NA,NA,completion,13789.23,2740488.6999998,2740482.215,2740498.374,2754287.604,2754289.3,2023-06-08T16:03:54Z,2754304.05,NULL,Vermutung,udhanifu,d,NA,NA,NA,NA,sdf,NA,2,NA,NA,NA,NA,NA,NA,NA,NA,NA,NA,NA,NA,NA,NA,NA,NA,NA,NA,NA
3c4e1,block,flow.Loop,3_0_2_0,NA,NA,completion,96954.08,2657322,2657317.368,2657333.524,2754287.604,2754289.5,2023-06-08T16:03:54Z,2754304.05,NULL,NA,NA,NA,NA,NA,NA,NA,sdf,NA,2,NA,NA,NA,NA,NA,NA,NA,NA,NA,NA,NA,NA,NA,NA,NA,NA,NA,NA,NA
3c4e1,weiter,canvas.Screen,3_0_2_1,sdf,keypress(Space),response,1149.3499998571,2754289.6999998,2754287.604,2754304.05,2755453.3999999,2755454.5,2023-06-08T16:03:55Z,2755502.694,NULL,NA,NA,NA,NA,NA,NA,NA,sdf,NA,2,NA,NA,NA,NA,NA,NA,NA,NA,NA,NA,NA,NA,NA,NA,NA,NA,NA,NA,NA
3c4e1,check continue,flow.Sequence,3_0_2,NA,NA,completion,98119.875999857,2657322,2657317.368,2657333.524,2755453.3999999,2755454.8999999,2023-06-08T16:03:55Z,2755502.694,NULL,NA,NA,NA,NA,NA,NA,NA,sdf,NA,2,NA,NA,NA,NA,NA,NA,NA,NA,NA,NA,NA,NA,NA,NA,NA,NA,NA,NA,NA
3c4e1,deep,flow.Sequence,3_0_3_0_0_0,NA,NA,skipped,NA,2755490.5,NA,NA,2755453.3999999,2755490.5999999,2023-06-08T16:03:55Z,2755502.694,NULL,Begegnung,kukutana,s,mmasihiya,mpiganaji,husiano,NA,qt,NA,3,NA,NA,NA,NA,NA,NA,NA,NA,NA,NA,NA,NA,NA,NA,NA,NA,NA,NA,NA
3c4e1,Shallow Question,html.Page,3_0_3_0_0_1_0,NA,NA,form submission,2952.6059999522,2755490.6999998,2755486.545,2755502.694,2758455.3,2758455.5,2023-06-08T16:03:58Z,2758467.283,NULL,Begegnung,kukutana,s,mmasihiya,mpiganaji,husiano,kukutana,NA,NA,3,NA,NA,NA,NA,NA,NA,NA,NA,NA,NA,NA,NA,NA,NA,NA,NA,NA,NA,NA
3c4e1,"""Richtig""-Screen",canvas.Screen,3_0_3_0_0_1_1,NA,NA,timeout,4995.9920000001,2758456.3,2758450.41,2758467.283,2763446.285,2763447.8999999,2023-06-08T16:04:03Z,2763463.275,NULL,Begegnung,kukutana,s,mmasihiya,mpiganaji,husiano,NA,qt,1,3,NA,NA,NA,NA,NA,NA,NA,NA,NA,NA,NA,NA,NA,NA,NA,NA,NA,NA,NA
3c4e1,"""Falsch""-Screen",canvas.Screen,3_0_3_0_0_1_2,NA,NA,skipped,NA,2763452.8,NA,NA,2763446.285,2763453,2023-06-08T16:04:03Z,2763463.275,NULL,Begegnung,kukutana,s,mmasihiya,mpiganaji,husiano,NA,qt,NA,3,NA,NA,NA,NA,NA,NA,NA,NA,NA,NA,NA,NA,NA,NA,NA,NA,NA,NA,NA
3c4e1,shallow,flow.Sequence,3_0_3_0_0_1,NA,NA,completion,7943.591,2755490.6999998,2755486.545,2755502.694,2763446.285,2763453,2023-06-08T16:04:03Z,2763463.275,NULL,Begegnung,kukutana,s,mmasihiya,mpiganaji,husiano,NA,qt,NA,3,NA,NA,NA,NA,NA,NA,NA,NA,NA,NA,NA,NA,NA,NA,NA,NA,NA,NA,NA
3c4e1,task,flow.Sequence,3_0_3_0_0,NA,NA,completion,7943.591,2755490.5,2755486.545,2755502.694,2763446.285,2763453.1999998,2023-06-08T16:04:03Z,2763463.275,NULL,Begegnung,kukutana,s,mmasihiya,mpiganaji,husiano,NA,qt,NA,3,NA,NA,NA,NA,NA,NA,NA,NA,NA,NA,NA,NA,NA,NA,NA,NA,NA,NA,NA
3c4e1,Deep Question,html.Page,3_0_3_0_1_0_0,NA,NA,form submission,3722.9249998094,2763453.1999998,2763446.285,2763463.275,2767186.1999998,2767186.5,2023-06-08T16:04:07Z,2767193.09,NULL,Vermutung,udhanifu,d,NA,NA,NA,udhanifu,NA,NA,3,NA,NA,NA,NA,NA,NA,NA,NA,NA,NA,NA,NA,NA,NA,NA,NA,NA,NA,NA
3c4e1,"""Richtig""-Screen",canvas.Screen,3_0_3_0_1_0_1,NA,NA,timeout,4995.878,2767187.1999998,2767177.014,2767193.09,2772172.402,2772173.1999998,2023-06-08T16:04:12Z,2772188.968,NULL,Vermutung,udhanifu,d,NA,NA,NA,NA,qt,1,3,NA,NA,NA,NA,NA,NA,NA,NA,NA,NA,NA,NA,NA,NA,NA,NA,NA,NA,NA
3c4e1,"""Falsch""-Screen",canvas.Screen,3_0_3_0_1_0_2,NA,NA,skipped,NA,2772177.8999999,NA,NA,2772172.402,2772178.3,2023-06-08T16:04:12Z,2772188.968,NULL,Vermutung,udhanifu,d,NA,NA,NA,NA,qt,NA,3,NA,NA,NA,NA,NA,NA,NA,NA,NA,NA,NA,NA,NA,NA,NA,NA,NA,NA,NA
3c4e1,deep,flow.Sequence,3_0_3_0_1_0,NA,NA,completion,8709.1269999999,2763453.1999998,2763446.285,2763463.275,2772172.402,2772178.6999998,2023-06-08T16:04:12Z,2772188.968,NULL,Vermutung,udhanifu,d,NA,NA,NA,NA,qt,NA,3,NA,NA,NA,NA,NA,NA,NA,NA,NA,NA,NA,NA,NA,NA,NA,NA,NA,NA,NA
3c4e1,shallow,flow.Sequence,3_0_3_0_1_1,NA,NA,skipped,NA,2772178.8,NA,NA,2772172.402,2772179,2023-06-08T16:04:12Z,2772188.968,NULL,Vermutung,udhanifu,d,NA,NA,NA,NA,qt,NA,3,NA,NA,NA,NA,NA,NA,NA,NA,NA,NA,NA,NA,NA,NA,NA,NA,NA,NA,NA
3c4e1,task,flow.Sequence,3_0_3_0_1,NA,NA,completion,8709.1269999999,2763453.1999998,2763446.285,2763463.275,2772172.402,2772179.0999999,2023-06-08T16:04:12Z,2772188.968,NULL,Vermutung,udhanifu,d,NA,NA,NA,NA,qt,NA,3,NA,NA,NA,NA,NA,NA,NA,NA,NA,NA,NA,NA,NA,NA,NA,NA,NA,NA,NA
3c4e1,deep,flow.Sequence,3_0_3_0_2_0,NA,NA,skipped,NA,2772179.3999999,NA,NA,2772172.402,2772179.5,2023-06-08T16:04:12Z,2772188.968,NULL,Toleranz,kuvumiliana,s,maombolezo,ujasusi,mchekeshaji,NA,qt,NA,3,NA,NA,NA,NA,NA,NA,NA,NA,NA,NA,NA,NA,NA,NA,NA,NA,NA,NA,NA
3c4e1,Shallow Question,html.Page,3_0_3_0_2_1_0,NA,NA,form submission,2999.1319999048,2772179.5999999,2772172.402,2772188.968,2775188.0999999,2775188.3,2023-06-08T16:04:15Z,2775203.25,NULL,Toleranz,kuvumiliana,s,maombolezo,ujasusi,mchekeshaji,kuvumiliana,NA,NA,3,NA,NA,NA,NA,NA,NA,NA,NA,NA,NA,NA,NA,NA,NA,NA,NA,NA,NA,NA
3c4e1,"""Richtig""-Screen",canvas.Screen,3_0_3_0_2_1_1,NA,NA,timeout,4996.4589999998,2775188.8999999,2775187.05,2775203.25,2780182.75,2780183.3,2023-06-08T16:04:20Z,2780199.709,NULL,Toleranz,kuvumiliana,s,maombolezo,ujasusi,mchekeshaji,NA,qt,1,3,NA,NA,NA,NA,NA,NA,NA,NA,NA,NA,NA,NA,NA,NA,NA,NA,NA,NA,NA
3c4e1,"""Falsch""-Screen",canvas.Screen,3_0_3_0_2_1_2,NA,NA,skipped,NA,2780185,NA,NA,2780182.75,2780185.0999999,2023-06-08T16:04:20Z,2780199.709,NULL,Toleranz,kuvumiliana,s,maombolezo,ujasusi,mchekeshaji,NA,qt,NA,3,NA,NA,NA,NA,NA,NA,NA,NA,NA,NA,NA,NA,NA,NA,NA,NA,NA,NA,NA
3c4e1,shallow,flow.Sequence,3_0_3_0_2_1,NA,NA,completion,7993.7820000001,2772179.5999999,2772172.402,2772188.968,2780182.75,2780185.3,2023-06-08T16:04:20Z,2780199.709,NULL,Toleranz,kuvumiliana,s,maombolezo,ujasusi,mchekeshaji,NA,qt,NA,3,NA,NA,NA,NA,NA,NA,NA,NA,NA,NA,NA,NA,NA,NA,NA,NA,NA,NA,NA
3c4e1,task,flow.Sequence,3_0_3_0_2,NA,NA,completion,7993.7820000001,2772179.3,2772172.402,2772188.968,2780182.75,2780185.5,2023-06-08T16:04:20Z,2780199.709,NULL,Toleranz,kuvumiliana,s,maombolezo,ujasusi,mchekeshaji,NA,qt,NA,3,NA,NA,NA,NA,NA,NA,NA,NA,NA,NA,NA,NA,NA,NA,NA,NA,NA,NA,NA
3c4e1,Deep Question,html.Page,3_0_3_0_3_0_0,NA,NA,form submission,6847.0909999525,2780185.5,2780182.75,2780199.709,2787046.8,2787047.0999999,2023-06-08T16:04:27Z,2787060.82,NULL,Inhalt,yaliyomo,d,NA,NA,NA,yaliyomo,NA,NA,3,NA,NA,NA,NA,NA,NA,NA,NA,NA,NA,NA,NA,NA,NA,NA,NA,NA,NA,NA
3c4e1,"""Richtig""-Screen",canvas.Screen,3_0_3_0_3_0_1,NA,NA,timeout,4995.2609999999,2787049,2787043.503,2787060.82,2792039.383,2792040.3,2023-06-08T16:04:32Z,2792056.081,NULL,Inhalt,yaliyomo,d,NA,NA,NA,NA,qt,1,3,NA,NA,NA,NA,NA,NA,NA,NA,NA,NA,NA,NA,NA,NA,NA,NA,NA,NA,NA
3c4e1,"""Falsch""-Screen",canvas.Screen,3_0_3_0_3_0_2,NA,NA,skipped,NA,2792046,NA,NA,2792039.383,2792046.3,2023-06-08T16:04:32Z,2792056.081,NULL,Inhalt,yaliyomo,d,NA,NA,NA,NA,qt,NA,3,NA,NA,NA,NA,NA,NA,NA,NA,NA,NA,NA,NA,NA,NA,NA,NA,NA,NA,NA
3c4e1,deep,flow.Sequence,3_0_3_0_3_0,NA,NA,completion,11839.674,2780185.5,2780182.75,2780199.709,2792039.383,2792046.8,2023-06-08T16:04:32Z,2792056.081,NULL,Inhalt,yaliyomo,d,NA,NA,NA,NA,qt,NA,3,NA,NA,NA,NA,NA,NA,NA,NA,NA,NA,NA,NA,NA,NA,NA,NA,NA,NA,NA
3c4e1,shallow,flow.Sequence,3_0_3_0_3_1,NA,NA,skipped,NA,2792046.8999999,NA,NA,2792039.383,2792047.0999999,2023-06-08T16:04:32Z,2792056.081,NULL,Inhalt,yaliyomo,d,NA,NA,NA,NA,qt,NA,3,NA,NA,NA,NA,NA,NA,NA,NA,NA,NA,NA,NA,NA,NA,NA,NA,NA,NA,NA
3c4e1,task,flow.Sequence,3_0_3_0_3,NA,NA,completion,11839.674,2780185.5,2780182.75,2780199.709,2792039.383,2792047.3,2023-06-08T16:04:32Z,2792056.081,NULL,Inhalt,yaliyomo,d,NA,NA,NA,NA,qt,NA,3,NA,NA,NA,NA,NA,NA,NA,NA,NA,NA,NA,NA,NA,NA,NA,NA,NA,NA,NA
3c4e1,Deep Question,html.Page,3_0_3_0_4_0_0,NA,NA,form submission,4390.9190000002,2792047.5999999,2792039.383,2792056.081,2796447,2796447.3,2023-06-08T16:04:36Z,2796452.304,NULL,Fleisch,mshakiki,d,NA,NA,NA,mshakiki,NA,NA,3,NA,NA,NA,NA,NA,NA,NA,NA,NA,NA,NA,NA,NA,NA,NA,NA,NA,NA,NA
3c4e1,"""Richtig""-Screen",canvas.Screen,3_0_3_0_4_0_1,NA,NA,timeout,4996.003,2796449.5,2796436.084,2796452.304,2801432.041,2801432.8999999,2023-06-08T16:04:41Z,2801448.307,NULL,Fleisch,mshakiki,d,NA,NA,NA,NA,qt,1,3,NA,NA,NA,NA,NA,NA,NA,NA,NA,NA,NA,NA,NA,NA,NA,NA,NA,NA,NA
3c4e1,"""Falsch""-Screen",canvas.Screen,3_0_3_0_4_0_2,NA,NA,skipped,NA,2801438.0999999,NA,NA,2801432.041,2801438.5,2023-06-08T16:04:41Z,2801448.307,NULL,Fleisch,mshakiki,d,NA,NA,NA,NA,qt,NA,3,NA,NA,NA,NA,NA,NA,NA,NA,NA,NA,NA,NA,NA,NA,NA,NA,NA,NA,NA
3c4e1,deep,flow.Sequence,3_0_3_0_4_0,NA,NA,completion,9375.9600000004,2792047.5,2792039.383,2792056.081,2801432.041,2801438.8999999,2023-06-08T16:04:41Z,2801448.307,NULL,Fleisch,mshakiki,d,NA,NA,NA,NA,qt,NA,3,NA,NA,NA,NA,NA,NA,NA,NA,NA,NA,NA,NA,NA,NA,NA,NA,NA,NA,NA
3c4e1,shallow,flow.Sequence,3_0_3_0_4_1,NA,NA,skipped,NA,2801439,NA,NA,2801432.041,2801439.1999998,2023-06-08T16:04:41Z,2801448.307,NULL,Fleisch,mshakiki,d,NA,NA,NA,NA,qt,NA,3,NA,NA,NA,NA,NA,NA,NA,NA,NA,NA,NA,NA,NA,NA,NA,NA,NA,NA,NA
3c4e1,task,flow.Sequence,3_0_3_0_4,NA,NA,completion,9375.9600000004,2792047.5,2792039.383,2792056.081,2801432.041,2801439.3999999,2023-06-08T16:04:41Z,2801448.307,NULL,Fleisch,mshakiki,d,NA,NA,NA,NA,qt,NA,3,NA,NA,NA,NA,NA,NA,NA,NA,NA,NA,NA,NA,NA,NA,NA,NA,NA,NA,NA
3c4e1,deep,flow.Sequence,3_0_3_0_5_0,NA,NA,skipped,NA,2801439.5999999,NA,NA,2801432.041,2801439.6999998,2023-06-08T16:04:41Z,2801448.307,NULL,Genehmigung,idhini,s,mwanamke,itikadi,fedheha,NA,qt,NA,3,NA,NA,NA,NA,NA,NA,NA,NA,NA,NA,NA,NA,NA,NA,NA,NA,NA,NA,NA
3c4e1,Shallow Question,html.Page,3_0_3_0_5_1_0,NA,NA,form submission,5272.9929999523,2801439.8999999,2801432.041,2801448.307,2806721.3,2806721.5,2023-06-08T16:04:47Z,2806727.195,NULL,Genehmigung,idhini,s,mwanamke,itikadi,fedheha,idhini,NA,NA,3,NA,NA,NA,NA,NA,NA,NA,NA,NA,NA,NA,NA,NA,NA,NA,NA,NA,NA,NA
3c4e1,"""Richtig""-Screen",canvas.Screen,3_0_3_0_5_1_1,NA,NA,timeout,4995.9100000001,2806723.1999998,2806711.186,2806727.195,2811706.956,2811707.5,2023-06-08T16:04:52Z,2811723.105,NULL,Genehmigung,idhini,s,mwanamke,itikadi,fedheha,NA,qt,1,3,NA,NA,NA,NA,NA,NA,NA,NA,NA,NA,NA,NA,NA,NA,NA,NA,NA,NA,NA
3c4e1,"""Falsch""-Screen",canvas.Screen,3_0_3_0_5_1_2,NA,NA,skipped,NA,2811709.0999999,NA,NA,2811706.956,2811709.3,2023-06-08T16:04:52Z,2811723.105,NULL,Genehmigung,idhini,s,mwanamke,itikadi,fedheha,NA,qt,NA,3,NA,NA,NA,NA,NA,NA,NA,NA,NA,NA,NA,NA,NA,NA,NA,NA,NA,NA,NA
3c4e1,shallow,flow.Sequence,3_0_3_0_5_1,NA,NA,completion,10258.649,2801439.8999999,2801432.041,2801448.307,2811706.956,2811709.3999999,2023-06-08T16:04:52Z,2811723.105,NULL,Genehmigung,idhini,s,mwanamke,itikadi,fedheha,NA,qt,NA,3,NA,NA,NA,NA,NA,NA,NA,NA,NA,NA,NA,NA,NA,NA,NA,NA,NA,NA,NA
3c4e1,task,flow.Sequence,3_0_3_0_5,NA,NA,completion,10258.649,2801439.5,2801432.041,2801448.307,2811706.956,2811709.5,2023-06-08T16:04:52Z,2811723.105,NULL,Genehmigung,idhini,s,mwanamke,itikadi,fedheha,NA,qt,NA,3,NA,NA,NA,NA,NA,NA,NA,NA,NA,NA,NA,NA,NA,NA,NA,NA,NA,NA,NA
3c4e1,deep,flow.Sequence,3_0_3_0_6_0,NA,NA,skipped,NA,2811710,NA,NA,2811706.956,2811710.0999999,2023-06-08T16:04:52Z,2811723.105,NULL,Schlange,foleni,s,uvumilivu,uteuzi,muuzaji,NA,qt,NA,3,NA,NA,NA,NA,NA,NA,NA,NA,NA,NA,NA,NA,NA,NA,NA,NA,NA,NA,NA
3c4e1,Shallow Question,html.Page,3_0_3_0_6_1_0,NA,NA,form submission,2688.5949998093,2811710.1999998,2811706.956,2811723.105,2814411.6999998,2814411.8999999,2023-06-08T16:04:54Z,2814421.257,NULL,Schlange,foleni,s,uvumilivu,uteuzi,muuzaji,foleni,NA,NA,3,NA,NA,NA,NA,NA,NA,NA,NA,NA,NA,NA,NA,NA,NA,NA,NA,NA,NA,NA
3c4e1,"""Richtig""-Screen",canvas.Screen,3_0_3_0_6_1_1,NA,NA,timeout,4996.105,2814412.6999998,2814404.779,2814421.257,2819400.634,2819401.5999999,2023-06-08T16:04:59Z,2819417.362,NULL,Schlange,foleni,s,uvumilivu,uteuzi,muuzaji,NA,qt,1,3,NA,NA,NA,NA,NA,NA,NA,NA,NA,NA,NA,NA,NA,NA,NA,NA,NA,NA,NA
3c4e1,"""Falsch""-Screen",canvas.Screen,3_0_3_0_6_1_2,NA,NA,skipped,NA,2819406.5,NA,NA,2819400.634,2819406.6999998,2023-06-08T16:04:59Z,2819417.362,NULL,Schlange,foleni,s,uvumilivu,uteuzi,muuzaji,NA,qt,NA,3,NA,NA,NA,NA,NA,NA,NA,NA,NA,NA,NA,NA,NA,NA,NA,NA,NA,NA,NA
3c4e1,shallow,flow.Sequence,3_0_3_0_6_1,NA,NA,completion,7677.5290000001,2811710.1999998,2811706.956,2811723.105,2819400.634,2819406.8,2023-06-08T16:04:59Z,2819417.362,NULL,Schlange,foleni,s,uvumilivu,uteuzi,muuzaji,NA,qt,NA,3,NA,NA,NA,NA,NA,NA,NA,NA,NA,NA,NA,NA,NA,NA,NA,NA,NA,NA,NA
3c4e1,task,flow.Sequence,3_0_3_0_6,NA,NA,completion,7677.5290000001,2811709.8999999,2811706.956,2811723.105,2819400.634,2819406.8,2023-06-08T16:04:59Z,2819417.362,NULL,Schlange,foleni,s,uvumilivu,uteuzi,muuzaji,NA,qt,NA,3,NA,NA,NA,NA,NA,NA,NA,NA,NA,NA,NA,NA,NA,NA,NA,NA,NA,NA,NA
3c4e1,Deep Question,html.Page,3_0_3_0_7_0_0,NA,NA,form submission,12603.037999857,2819406.8999999,2819400.634,2819417.362,2832020.3999999,2832020.5999999,2023-06-08T16:05:12Z,2832023.024,NULL,Integrität,uadilifu,d,NA,NA,NA,uadilifu,NA,NA,3,NA,NA,NA,NA,NA,NA,NA,NA,NA,NA,NA,NA,NA,NA,NA,NA,NA,NA,NA
3c4e1,"""Richtig""-Screen",canvas.Screen,3_0_3_0_7_0_1,NA,NA,timeout,4996.0409999997,2832022.8999999,2832006.728,2832023.024,2837002.383,2837003.3,2023-06-08T16:05:17Z,2837019.065,NULL,Integrität,uadilifu,d,NA,NA,NA,NA,qt,1,3,NA,NA,NA,NA,NA,NA,NA,NA,NA,NA,NA,NA,NA,NA,NA,NA,NA,NA,NA
3c4e1,"""Falsch""-Screen",canvas.Screen,3_0_3_0_7_0_2,NA,NA,skipped,NA,2837008.5,NA,NA,2837002.383,2837008.8999999,2023-06-08T16:05:17Z,2837019.065,NULL,Integrität,uadilifu,d,NA,NA,NA,NA,qt,NA,3,NA,NA,NA,NA,NA,NA,NA,NA,NA,NA,NA,NA,NA,NA,NA,NA,NA,NA,NA
3c4e1,deep,flow.Sequence,3_0_3_0_7_0,NA,NA,completion,17585.021,2819406.8999999,2819400.634,2819417.362,2837002.383,2837009.1999998,2023-06-08T16:05:17Z,2837019.065,NULL,Integrität,uadilifu,d,NA,NA,NA,NA,qt,NA,3,NA,NA,NA,NA,NA,NA,NA,NA,NA,NA,NA,NA,NA,NA,NA,NA,NA,NA,NA
3c4e1,shallow,flow.Sequence,3_0_3_0_7_1,NA,NA,skipped,NA,2837009.3999999,NA,NA,2837002.383,2837009.5999999,2023-06-08T16:05:17Z,2837019.065,NULL,Integrität,uadilifu,d,NA,NA,NA,NA,qt,NA,3,NA,NA,NA,NA,NA,NA,NA,NA,NA,NA,NA,NA,NA,NA,NA,NA,NA,NA,NA
3c4e1,task,flow.Sequence,3_0_3_0_7,NA,NA,completion,17585.021,2819406.8999999,2819400.634,2819417.362,2837002.383,2837009.8,2023-06-08T16:05:17Z,2837019.065,NULL,Integrität,uadilifu,d,NA,NA,NA,NA,qt,NA,3,NA,NA,NA,NA,NA,NA,NA,NA,NA,NA,NA,NA,NA,NA,NA,NA,NA,NA,NA
3c4e1,block,flow.Loop,3_0_3_0,NA,NA,completion,81499.689,2755490.5,2755486.545,2755502.694,2837002.383,2837010.0999999,2023-06-08T16:05:17Z,2837019.065,NULL,NA,NA,NA,NA,NA,NA,NA,qt,NA,3,NA,NA,NA,NA,NA,NA,NA,NA,NA,NA,NA,NA,NA,NA,NA,NA,NA,NA,NA
3c4e1,weiter,canvas.Screen,3_0_3_1,sdf,keypress(Space),response,1583.0349999047,2837010.1999998,2837002.383,2837019.065,2838602.0999999,2838603.3,2023-06-08T16:05:18Z,2839117.173,NULL,NA,NA,NA,NA,NA,NA,NA,qt,NA,3,NA,NA,NA,NA,NA,NA,NA,NA,NA,NA,NA,NA,NA,NA,NA,NA,NA,NA,NA
3c4e1,check continue,flow.Sequence,3_0_3,NA,NA,completion,83099.405999904,2755490.5,2755486.545,2755502.694,2838602.0999999,2838603.5999999,2023-06-08T16:05:18Z,2839117.173,NULL,NA,NA,NA,NA,NA,NA,NA,qt,NA,3,NA,NA,NA,NA,NA,NA,NA,NA,NA,NA,NA,NA,NA,NA,NA,NA,NA,NA,NA
3c4e1,check continue,flow.Sequence,3_0_4,NA,NA,skipped,NA,2838644.5,NA,NA,2838602.0999999,2838644.5999999,2023-06-08T16:05:18Z,2839117.173,NULL,NA,NA,NA,NA,NA,NA,NA,sd,NA,4,NA,NA,NA,NA,NA,NA,NA,NA,NA,NA,NA,NA,NA,NA,NA,NA,NA,NA,NA
3c4e1,check continue,flow.Sequence,3_0_5,NA,NA,skipped,NA,2838679.5,NA,NA,2838602.0999999,2838679.5999999,2023-06-08T16:05:18Z,2839117.173,NULL,NA,NA,NA,NA,NA,NA,NA,sdf,NA,5,NA,NA,NA,NA,NA,NA,NA,NA,NA,NA,NA,NA,NA,NA,NA,NA,NA,NA,NA
3c4e1,check continue,flow.Sequence,3_0_6,NA,NA,skipped,NA,2838703.3,NA,NA,2838602.0999999,2838703.3999999,2023-06-08T16:05:19Z,2839117.173,NULL,NA,NA,NA,NA,NA,NA,NA,dfs,NA,6,NA,NA,NA,NA,NA,NA,NA,NA,NA,NA,NA,NA,NA,NA,NA,NA,NA,NA,NA
3c4e1,check continue,flow.Sequence,3_0_7,NA,NA,skipped,NA,2838720.6999998,NA,NA,2838602.0999999,2838720.8999999,2023-06-08T16:05:19Z,2839117.173,NULL,NA,NA,NA,NA,NA,NA,NA,df,NA,7,NA,NA,NA,NA,NA,NA,NA,NA,NA,NA,NA,NA,NA,NA,NA,NA,NA,NA,NA
3c4e1,check continue,flow.Sequence,3_0_8,NA,NA,skipped,NA,2838739.0999999,NA,NA,2838602.0999999,2838739.1999998,2023-06-08T16:05:19Z,2839117.173,NULL,NA,NA,NA,NA,NA,NA,NA,dfs,NA,8,NA,NA,NA,NA,NA,NA,NA,NA,NA,NA,NA,NA,NA,NA,NA,NA,NA,NA,NA
3c4e1,check continue,flow.Sequence,3_0_9,NA,NA,skipped,NA,2838755,NA,NA,2838602.0999999,2838755.1999998,2023-06-08T16:05:19Z,2839117.173,NULL,NA,NA,NA,NA,NA,NA,NA,dsf,NA,9,NA,NA,NA,NA,NA,NA,NA,NA,NA,NA,NA,NA,NA,NA,NA,NA,NA,NA,NA
3c4e1,check continue,flow.Sequence,3_0_10,NA,NA,skipped,NA,2838770.8999999,NA,NA,2838602.0999999,2838771.0999999,2023-06-08T16:05:19Z,2839117.173,NULL,NA,NA,NA,NA,NA,NA,NA,df,NA,10,NA,NA,NA,NA,NA,NA,NA,NA,NA,NA,NA,NA,NA,NA,NA,NA,NA,NA,NA
3c4e1,check continue,flow.Sequence,3_0_11,NA,NA,skipped,NA,2838788,NA,NA,2838602.0999999,2838788.1999998,2023-06-08T16:05:19Z,2839117.173,NULL,NA,NA,NA,NA,NA,NA,NA,dfs,NA,11,NA,NA,NA,NA,NA,NA,NA,NA,NA,NA,NA,NA,NA,NA,NA,NA,NA,NA,NA
3c4e1,check continue,flow.Sequence,3_0_12,NA,NA,skipped,NA,2838805.1999998,NA,NA,2838602.0999999,2838805.3,2023-06-08T16:05:19Z,2839117.173,NULL,NA,NA,NA,NA,NA,NA,NA,dsf,NA,12,NA,NA,NA,NA,NA,NA,NA,NA,NA,NA,NA,NA,NA,NA,NA,NA,NA,NA,NA
3c4e1,check continue,flow.Sequence,3_0_13,NA,NA,skipped,NA,2838822.0999999,NA,NA,2838602.0999999,2838822.1999998,2023-06-08T16:05:19Z,2839117.173,NULL,NA,NA,NA,NA,NA,NA,NA,dsf,NA,13,NA,NA,NA,NA,NA,NA,NA,NA,NA,NA,NA,NA,NA,NA,NA,NA,NA,NA,NA
3c4e1,check continue,flow.Sequence,3_0_14,NA,NA,skipped,NA,2838838.0999999,NA,NA,2838602.0999999,2838838.3,2023-06-08T16:05:19Z,2839117.173,NULL,NA,NA,NA,NA,NA,NA,NA,NA,NA,14,NA,NA,NA,NA,NA,NA,NA,NA,NA,NA,NA,NA,NA,NA,NA,NA,NA,NA,NA
3c4e1,check continue,flow.Sequence,3_0_15,NA,NA,skipped,NA,2838854.0999999,NA,NA,2838602.0999999,2838854.1999998,2023-06-08T16:05:19Z,2839117.173,NULL,NA,NA,NA,NA,NA,NA,NA,NA,NA,15,NA,NA,NA,NA,NA,NA,NA,NA,NA,NA,NA,NA,NA,NA,NA,NA,NA,NA,NA
3c4e1,check continue,flow.Sequence,3_0_16,NA,NA,skipped,NA,2838869.5,NA,NA,2838602.0999999,2838869.5999999,2023-06-08T16:05:19Z,2839117.173,NULL,NA,NA,NA,NA,NA,NA,NA,NA,NA,16,NA,NA,NA,NA,NA,NA,NA,NA,NA,NA,NA,NA,NA,NA,NA,NA,NA,NA,NA
3c4e1,check continue,flow.Sequence,3_0_17,NA,NA,skipped,NA,2838885.0999999,NA,NA,2838602.0999999,2838885.1999998,2023-06-08T16:05:19Z,2839117.173,NULL,NA,NA,NA,NA,NA,NA,NA,NA,NA,17,NA,NA,NA,NA,NA,NA,NA,NA,NA,NA,NA,NA,NA,NA,NA,NA,NA,NA,NA
3c4e1,check continue,flow.Sequence,3_0_18,NA,NA,skipped,NA,2838901.6999998,NA,NA,2838602.0999999,2838901.8,2023-06-08T16:05:19Z,2839117.173,NULL,NA,NA,NA,NA,NA,NA,NA,NA,NA,18,NA,NA,NA,NA,NA,NA,NA,NA,NA,NA,NA,NA,NA,NA,NA,NA,NA,NA,NA
3c4e1,check continue,flow.Sequence,3_0_19,NA,NA,skipped,NA,2838917.8,NA,NA,2838602.0999999,2838917.8999999,2023-06-08T16:05:19Z,2839117.173,NULL,NA,NA,NA,NA,NA,NA,NA,NA,NA,19,NA,NA,NA,NA,NA,NA,NA,NA,NA,NA,NA,NA,NA,NA,NA,NA,NA,NA,NA
3c4e1,check continue,flow.Sequence,3_0_20,NA,NA,skipped,NA,2838935.8,NA,NA,2838602.0999999,2838935.8999999,2023-06-08T16:05:19Z,2839117.173,NULL,NA,NA,NA,NA,NA,NA,NA,NA,NA,20,NA,NA,NA,NA,NA,NA,NA,NA,NA,NA,NA,NA,NA,NA,NA,NA,NA,NA,NA
3c4e1,check continue,flow.Sequence,3_0_21,NA,NA,skipped,NA,2838951.5999999,NA,NA,2838602.0999999,2838951.6999998,2023-06-08T16:05:19Z,2839117.173,NULL,NA,NA,NA,NA,NA,NA,NA,NA,NA,21,NA,NA,NA,NA,NA,NA,NA,NA,NA,NA,NA,NA,NA,NA,NA,NA,NA,NA,NA
3c4e1,check continue,flow.Sequence,3_0_22,NA,NA,skipped,NA,2838970.1999998,NA,NA,2838602.0999999,2838970.3999999,2023-06-08T16:05:19Z,2839117.173,NULL,NA,NA,NA,NA,NA,NA,NA,NA,NA,22,NA,NA,NA,NA,NA,NA,NA,NA,NA,NA,NA,NA,NA,NA,NA,NA,NA,NA,NA
3c4e1,check continue,flow.Sequence,3_0_23,NA,NA,skipped,NA,2838984.6999998,NA,NA,2838602.0999999,2838984.8,2023-06-08T16:05:19Z,2839117.173,NULL,NA,NA,NA,NA,NA,NA,NA,NA,NA,23,NA,NA,NA,NA,NA,NA,NA,NA,NA,NA,NA,NA,NA,NA,NA,NA,NA,NA,NA
3c4e1,check continue,flow.Sequence,3_0_24,NA,NA,skipped,NA,2839009.1999998,NA,NA,2838602.0999999,2839009.3999999,2023-06-08T16:05:19Z,2839117.173,NULL,NA,NA,NA,NA,NA,NA,NA,NA,NA,24,NA,NA,NA,NA,NA,NA,NA,NA,NA,NA,NA,NA,NA,NA,NA,NA,NA,NA,NA
3c4e1,check continue,flow.Sequence,3_0_25,NA,NA,skipped,NA,2839031.3,NA,NA,2838602.0999999,2839031.3999999,2023-06-08T16:05:19Z,2839117.173,NULL,NA,NA,NA,NA,NA,NA,NA,NA,NA,25,NA,NA,NA,NA,NA,NA,NA,NA,NA,NA,NA,NA,NA,NA,NA,NA,NA,NA,NA
3c4e1,check continue,flow.Sequence,3_0_26,NA,NA,skipped,NA,2839046.8,NA,NA,2838602.0999999,2839047,2023-06-08T16:05:19Z,2839117.173,NULL,NA,NA,NA,NA,NA,NA,NA,NA,NA,26,NA,NA,NA,NA,NA,NA,NA,NA,NA,NA,NA,NA,NA,NA,NA,NA,NA,NA,NA
3c4e1,check continue,flow.Sequence,3_0_27,NA,NA,skipped,NA,2839062.3999999,NA,NA,2838602.0999999,2839062.5999999,2023-06-08T16:05:19Z,2839117.173,NULL,NA,NA,NA,NA,NA,NA,NA,NA,NA,27,NA,NA,NA,NA,NA,NA,NA,NA,NA,NA,NA,NA,NA,NA,NA,NA,NA,NA,NA
3c4e1,check continue,flow.Sequence,3_0_28,NA,NA,skipped,NA,2839076.6999998,NA,NA,2838602.0999999,2839076.8999999,2023-06-08T16:05:19Z,2839117.173,NULL,NA,NA,NA,NA,NA,NA,NA,NA,NA,28,NA,NA,NA,NA,NA,NA,NA,NA,NA,NA,NA,NA,NA,NA,NA,NA,NA,NA,NA
3c4e1,check continue,flow.Sequence,3_0_29,NA,NA,skipped,NA,2839108.5999999,NA,NA,2838602.0999999,2839108.5999999,2023-06-08T16:05:19Z,2839117.173,NULL,NA,NA,NA,NA,NA,NA,NA,NA,NA,29,NA,NA,NA,NA,NA,NA,NA,NA,NA,NA,NA,NA,NA,NA,NA,NA,NA,NA,NA
3c4e1,until continue,flow.Loop,3_0,NA,NA,completion,345000.3019999,2493570.6999998,2493585.079,2493601.798,2838602.0999999,2839108.8,2023-06-08T16:05:19Z,2839117.173,NULL,NA,NA,NA,NA,NA,NA,NA,NA,NA,NA,NA,NA,NA,NA,NA,NA,NA,NA,NA,NA,NA,NA,NA,NA,NA,NA,NA,NA,NA
3c4e1,block 1,flow.Sequence,3,NA,NA,completion,345000.3019999,2493570.5999999,2493585.079,2493601.798,2838602.0999999,2839108.8,2023-06-08T16:05:19Z,2839117.173,NULL,NA,NA,NA,NA,NA,NA,NA,NA,NA,NA,NA,NA,NA,NA,NA,NA,NA,NA,NA,NA,NA,NA,NA,NA,NA,NA,NA,NA,NA
3c4e1,1.Part Over,canvas.Screen,4,NA,keypress(Space),response,2545.1269999524,2839108.8999999,2839101.051,2839117.173,2841662.3,2841663.5,2023-06-08T16:05:21Z,2841732.095,NULL,NA,NA,NA,NA,NA,NA,NA,NA,NA,NA,NA,NA,NA,NA,NA,NA,NA,NA,NA,NA,NA,NA,NA,NA,NA,NA,NA,NA,NA
3c4e1,Deep Question,html.Page,5_0_0_0_0_0_0,NA,NA,form submission,2652.2049999521,2841722.8,2841715.107,2841732.095,2844384.3,2844384.3999999,2023-06-08T16:05:24Z,2844396.277,NULL,Wechsel,ugeuzaji,d,NA,NA,NA,slfj,NA,NA,0,NA,NA,NA,NA,NA,NA,NA,NA,NA,NA,NA,NA,NA,NA,NA,NA,NA,NA,NA
3c4e1,"""Richtig""-Screen",canvas.Screen,5_0_0_0_0_0_1,NA,NA,skipped,NA,2844386.5,NA,NA,2844384.3,2844386.5999999,2023-06-08T16:05:24Z,2844396.277,NULL,Wechsel,ugeuzaji,d,NA,NA,NA,NA,sdf,NA,0,NA,NA,NA,NA,NA,NA,NA,NA,NA,NA,NA,NA,NA,NA,NA,NA,NA,NA,NA
3c4e1,"""Falsch""-Screen",canvas.Screen,5_0_0_0_0_0_2,NA,NA,timeout,4995.9420000003,2844387.1999998,2844380.134,2844396.277,2849375.976,2849376.8,2023-06-08T16:05:29Z,2849392.219,NULL,Wechsel,ugeuzaji,d,NA,NA,NA,NA,sdf,0,0,NA,NA,NA,NA,NA,NA,NA,NA,NA,NA,NA,NA,NA,NA,NA,NA,NA,NA,NA
3c4e1,deep,flow.Sequence,5_0_0_0_0_0,NA,NA,completion,7643.8809999996,2841722.6999998,2841715.107,2841732.095,2849375.976,2849377.1999998,2023-06-08T16:05:29Z,2849392.219,NULL,Wechsel,ugeuzaji,d,NA,NA,NA,NA,sdf,NA,0,NA,NA,NA,NA,NA,NA,NA,NA,NA,NA,NA,NA,NA,NA,NA,NA,NA,NA,NA
3c4e1,shallow,flow.Sequence,5_0_0_0_0_1,NA,NA,skipped,NA,2849377.3,NA,NA,2849375.976,2849377.5,2023-06-08T16:05:29Z,2849392.219,NULL,Wechsel,ugeuzaji,d,NA,NA,NA,NA,sdf,NA,0,NA,NA,NA,NA,NA,NA,NA,NA,NA,NA,NA,NA,NA,NA,NA,NA,NA,NA,NA
3c4e1,task,flow.Sequence,5_0_0_0_0,NA,NA,completion,7643.8809999996,2841722.6999998,2841715.107,2841732.095,2849375.976,2849377.6999998,2023-06-08T16:05:29Z,2849392.219,NULL,Wechsel,ugeuzaji,d,NA,NA,NA,NA,sdf,NA,0,NA,NA,NA,NA,NA,NA,NA,NA,NA,NA,NA,NA,NA,NA,NA,NA,NA,NA,NA
3c4e1,Deep Question,html.Page,5_0_0_0_1_0_0,NA,NA,form submission,2200.0809999523,2849377.8999999,2849375.976,2849392.219,2851592.3,2851592.5,2023-06-08T16:05:31Z,2851607.564,NULL,Erneuerung,ukarabati,d,NA,NA,NA,sflk,NA,NA,0,NA,NA,NA,NA,NA,NA,NA,NA,NA,NA,NA,NA,NA,NA,NA,NA,NA,NA,NA
3c4e1,"""Richtig""-Screen",canvas.Screen,5_0_0_0_1_0_1,NA,NA,skipped,NA,2851594.3999999,NA,NA,2851592.3,2851594.5999999,2023-06-08T16:05:31Z,2851607.564,NULL,Erneuerung,ukarabati,d,NA,NA,NA,NA,sdf,NA,0,NA,NA,NA,NA,NA,NA,NA,NA,NA,NA,NA,NA,NA,NA,NA,NA,NA,NA,NA
3c4e1,"""Falsch""-Screen",canvas.Screen,5_0_0_0_1_0_2,NA,NA,timeout,4995.7010000004,2851595.0999999,2851590.887,2851607.564,2856586.589,2856587.5,2023-06-08T16:05:36Z,2856603.265,NULL,Erneuerung,ukarabati,d,NA,NA,NA,NA,sdf,0,0,NA,NA,NA,NA,NA,NA,NA,NA,NA,NA,NA,NA,NA,NA,NA,NA,NA,NA,NA
3c4e1,deep,flow.Sequence,5_0_0_0_1_0,NA,NA,completion,7194.3700000001,2849377.8999999,2849375.976,2849392.219,2856586.589,2856588.0999999,2023-06-08T16:05:36Z,2856603.265,NULL,Erneuerung,ukarabati,d,NA,NA,NA,NA,sdf,NA,0,NA,NA,NA,NA,NA,NA,NA,NA,NA,NA,NA,NA,NA,NA,NA,NA,NA,NA,NA
3c4e1,shallow,flow.Sequence,5_0_0_0_1_1,NA,NA,skipped,NA,2856588.3,NA,NA,2856586.589,2856588.5,2023-06-08T16:05:36Z,2856603.265,NULL,Erneuerung,ukarabati,d,NA,NA,NA,NA,sdf,NA,0,NA,NA,NA,NA,NA,NA,NA,NA,NA,NA,NA,NA,NA,NA,NA,NA,NA,NA,NA
3c4e1,task,flow.Sequence,5_0_0_0_1,NA,NA,completion,7194.3700000001,2849377.8,2849375.976,2849392.219,2856586.589,2856588.8999999,2023-06-08T16:05:36Z,2856603.265,NULL,Erneuerung,ukarabati,d,NA,NA,NA,NA,sdf,NA,0,NA,NA,NA,NA,NA,NA,NA,NA,NA,NA,NA,NA,NA,NA,NA,NA,NA,NA,NA
3c4e1,Deep Question,html.Page,5_0_0_0_2_0_0,NA,NA,form submission,2764.7349999999,2856589.0999999,2856586.589,2856603.265,2859368,2859368.1999998,2023-06-08T16:05:39Z,2859383.938,NULL,Hoffnung,matarajio,d,NA,NA,NA,lgk,NA,NA,0,NA,NA,NA,NA,NA,NA,NA,NA,NA,NA,NA,NA,NA,NA,NA,NA,NA,NA,NA
3c4e1,"""Richtig""-Screen",canvas.Screen,5_0_0_0_2_0_1,NA,NA,skipped,NA,2859370.3,NA,NA,2859368,2859370.3999999,2023-06-08T16:05:39Z,2859383.938,NULL,Hoffnung,matarajio,d,NA,NA,NA,NA,sdf,NA,0,NA,NA,NA,NA,NA,NA,NA,NA,NA,NA,NA,NA,NA,NA,NA,NA,NA,NA,NA
3c4e1,"""Falsch""-Screen",canvas.Screen,5_0_0_0_2_0_2,NA,NA,timeout,4996.514,2859371.3,2859367.306,2859383.938,2864363.161,2864364.5999999,2023-06-08T16:05:44Z,2864380.452,NULL,Hoffnung,matarajio,d,NA,NA,NA,NA,sdf,0,0,NA,NA,NA,NA,NA,NA,NA,NA,NA,NA,NA,NA,NA,NA,NA,NA,NA,NA,NA
3c4e1,deep,flow.Sequence,5_0_0_0_2_0,NA,NA,completion,7759.8959999997,2856589.0999999,2856586.589,2856603.265,2864363.161,2864365,2023-06-08T16:05:44Z,2864380.452,NULL,Hoffnung,matarajio,d,NA,NA,NA,NA,sdf,NA,0,NA,NA,NA,NA,NA,NA,NA,NA,NA,NA,NA,NA,NA,NA,NA,NA,NA,NA,NA
3c4e1,shallow,flow.Sequence,5_0_0_0_2_1,NA,NA,skipped,NA,2864365.0999999,NA,NA,2864363.161,2864365.3999999,2023-06-08T16:05:44Z,2864380.452,NULL,Hoffnung,matarajio,d,NA,NA,NA,NA,sdf,NA,0,NA,NA,NA,NA,NA,NA,NA,NA,NA,NA,NA,NA,NA,NA,NA,NA,NA,NA,NA
3c4e1,task,flow.Sequence,5_0_0_0_2,NA,NA,completion,7759.8959999997,2856589.0999999,2856586.589,2856603.265,2864363.161,2864365.5999999,2023-06-08T16:05:44Z,2864380.452,NULL,Hoffnung,matarajio,d,NA,NA,NA,NA,sdf,NA,0,NA,NA,NA,NA,NA,NA,NA,NA,NA,NA,NA,NA,NA,NA,NA,NA,NA,NA,NA
3c4e1,deep,flow.Sequence,5_0_0_0_3_0,NA,NA,skipped,NA,2864365.8,NA,NA,2864363.161,2864365.8999999,2023-06-08T16:05:44Z,2864380.452,NULL,Schock,mshtuko,s,biashara,kukataza,vichekesho,NA,sdf,NA,0,NA,NA,NA,NA,NA,NA,NA,NA,NA,NA,NA,NA,NA,NA,NA,NA,NA,NA,NA
3c4e1,Shallow Question,html.Page,5_0_0_0_3_1_0,NA,NA,form submission,6443.2479998092,2864366.0999999,2864363.161,2864380.452,2870823.6999998,2870823.8999999,2023-06-08T16:05:51Z,2870824.446,NULL,Schock,mshtuko,s,biashara,kukataza,vichekesho,biashara,NA,NA,0,NA,NA,NA,NA,NA,NA,NA,NA,NA,NA,NA,NA,NA,NA,NA,NA,NA,NA,NA
3c4e1,"""Richtig""-Screen",canvas.Screen,5_0_0_0_3_1_1,NA,NA,skipped,NA,2870826.0999999,NA,NA,2870823.6999998,2870826.3,2023-06-08T16:05:51Z,2870824.446,NULL,Schock,mshtuko,s,biashara,kukataza,vichekesho,NA,sdf,NA,0,NA,NA,NA,NA,NA,NA,NA,NA,NA,NA,NA,NA,NA,NA,NA,NA,NA,NA,NA
3c4e1,"""Falsch""-Screen",canvas.Screen,5_0_0_0_3_1_2,NA,NA,timeout,4996.426,2870826.8999999,2870808.312,2870824.446,2875803.741,2875804.6999998,2023-06-08T16:05:56Z,2875820.872,NULL,Schock,mshtuko,s,biashara,kukataza,vichekesho,NA,sdf,0,0,NA,NA,NA,NA,NA,NA,NA,NA,NA,NA,NA,NA,NA,NA,NA,NA,NA,NA,NA
3c4e1,shallow,flow.Sequence,5_0_0_0_3_1,NA,NA,completion,11423.289,2864366.0999999,2864363.161,2864380.452,2875803.741,2875805.3,2023-06-08T16:05:56Z,2875820.872,NULL,Schock,mshtuko,s,biashara,kukataza,vichekesho,NA,sdf,NA,0,NA,NA,NA,NA,NA,NA,NA,NA,NA,NA,NA,NA,NA,NA,NA,NA,NA,NA,NA
3c4e1,task,flow.Sequence,5_0_0_0_3,NA,NA,completion,11423.289,2864365.6999998,2864363.161,2864380.452,2875803.741,2875805.8,2023-06-08T16:05:56Z,2875820.872,NULL,Schock,mshtuko,s,biashara,kukataza,vichekesho,NA,sdf,NA,0,NA,NA,NA,NA,NA,NA,NA,NA,NA,NA,NA,NA,NA,NA,NA,NA,NA,NA,NA
3c4e1,Deep Question,html.Page,5_0_0_0_4_0_0,NA,NA,form submission,1971.628,2875806.3,2875803.741,2875820.872,2877792.5,2877792.8,2023-06-08T16:05:58Z,2877802.12,NULL,Verpackung,ufungaji,d,NA,NA,NA,ög,NA,NA,0,NA,NA,NA,NA,NA,NA,NA,NA,NA,NA,NA,NA,NA,NA,NA,NA,NA,NA,NA
3c4e1,"""Richtig""-Screen",canvas.Screen,5_0_0_0_4_0_1,NA,NA,skipped,NA,2877794.6999998,NA,NA,2877792.5,2877794.8,2023-06-08T16:05:58Z,2877802.12,NULL,Verpackung,ufungaji,d,NA,NA,NA,NA,sdf,NA,0,NA,NA,NA,NA,NA,NA,NA,NA,NA,NA,NA,NA,NA,NA,NA,NA,NA,NA,NA
3c4e1,"""Falsch""-Screen",canvas.Screen,5_0_0_0_4_0_2,NA,NA,timeout,4995.7719999999,2877795.3999999,2877786.017,2877802.12,2882781.48,2882782.3999999,2023-06-08T16:06:03Z,2882797.892,NULL,Verpackung,ufungaji,d,NA,NA,NA,NA,sdf,0,0,NA,NA,NA,NA,NA,NA,NA,NA,NA,NA,NA,NA,NA,NA,NA,NA,NA,NA,NA
3c4e1,deep,flow.Sequence,5_0_0_0_4_0,NA,NA,completion,6960.608,2875806.1999998,2875803.741,2875820.872,2882781.48,2882782.8,2023-06-08T16:06:03Z,2882797.892,NULL,Verpackung,ufungaji,d,NA,NA,NA,NA,sdf,NA,0,NA,NA,NA,NA,NA,NA,NA,NA,NA,NA,NA,NA,NA,NA,NA,NA,NA,NA,NA
3c4e1,shallow,flow.Sequence,5_0_0_0_4_1,NA,NA,skipped,NA,2882782.8999999,NA,NA,2882781.48,2882783.0999999,2023-06-08T16:06:03Z,2882797.892,NULL,Verpackung,ufungaji,d,NA,NA,NA,NA,sdf,NA,0,NA,NA,NA,NA,NA,NA,NA,NA,NA,NA,NA,NA,NA,NA,NA,NA,NA,NA,NA
3c4e1,task,flow.Sequence,5_0_0_0_4,NA,NA,completion,6960.608,2875806,2875803.741,2875820.872,2882781.48,2882783.3,2023-06-08T16:06:03Z,2882797.892,NULL,Verpackung,ufungaji,d,NA,NA,NA,NA,sdf,NA,0,NA,NA,NA,NA,NA,NA,NA,NA,NA,NA,NA,NA,NA,NA,NA,NA,NA,NA,NA
3c4e1,deep,flow.Sequence,5_0_0_0_5_0,NA,NA,skipped,NA,2882783.5,NA,NA,2882781.48,2882783.6999998,2023-06-08T16:06:03Z,2882797.892,NULL,Flexibilität,kubadilika,s,enjini,usikilivu,hesabu,NA,sdf,NA,0,NA,NA,NA,NA,NA,NA,NA,NA,NA,NA,NA,NA,NA,NA,NA,NA,NA,NA,NA
3c4e1,Shallow Question,html.Page,5_0_0_0_5_1_0,NA,NA,form submission,5507.007999857,2882783.6999998,2882781.48,2882797.892,2888304.8999999,2888305,2023-06-08T16:06:08Z,2888310.08,NULL,Flexibilität,kubadilika,s,enjini,usikilivu,hesabu,kubadilika,NA,NA,0,NA,NA,NA,NA,NA,NA,NA,NA,NA,NA,NA,NA,NA,NA,NA,NA,NA,NA,NA
3c4e1,"""Richtig""-Screen",canvas.Screen,5_0_0_0_5_1_1,NA,NA,timeout,4995.9180000001,2888307.1999998,2888293.852,2888310.08,2893289.705,2893290.5999999,2023-06-08T16:06:13Z,2893305.998,NULL,Flexibilität,kubadilika,s,enjini,usikilivu,hesabu,NA,sdf,1,0,NA,NA,NA,NA,NA,NA,NA,NA,NA,NA,NA,NA,NA,NA,NA,NA,NA,NA,NA
3c4e1,"""Falsch""-Screen",canvas.Screen,5_0_0_0_5_1_2,NA,NA,skipped,NA,2893296.0999999,NA,NA,2893289.705,2893296.3999999,2023-06-08T16:06:13Z,2893305.998,NULL,Flexibilität,kubadilika,s,enjini,usikilivu,hesabu,NA,sdf,NA,0,NA,NA,NA,NA,NA,NA,NA,NA,NA,NA,NA,NA,NA,NA,NA,NA,NA,NA,NA
3c4e1,shallow,flow.Sequence,5_0_0_0_5_1,NA,NA,completion,10491.813,2882783.6999998,2882781.48,2882797.892,2893289.705,2893296.8,2023-06-08T16:06:13Z,2893305.998,NULL,Flexibilität,kubadilika,s,enjini,usikilivu,hesabu,NA,sdf,NA,0,NA,NA,NA,NA,NA,NA,NA,NA,NA,NA,NA,NA,NA,NA,NA,NA,NA,NA,NA
3c4e1,task,flow.Sequence,5_0_0_0_5,NA,NA,completion,10491.813,2882783.5,2882781.48,2882797.892,2893289.705,2893297.0999999,2023-06-08T16:06:13Z,2893305.998,NULL,Flexibilität,kubadilika,s,enjini,usikilivu,hesabu,NA,sdf,NA,0,NA,NA,NA,NA,NA,NA,NA,NA,NA,NA,NA,NA,NA,NA,NA,NA,NA,NA,NA
3c4e1,deep,flow.Sequence,5_0_0_0_6_0,NA,NA,skipped,NA,2893297.3,NA,NA,2893289.705,2893297.5,2023-06-08T16:06:13Z,2893305.998,NULL,Theorie,nadharia,s,ushungi,mkutano,uwakilishi,NA,sdf,NA,0,NA,NA,NA,NA,NA,NA,NA,NA,NA,NA,NA,NA,NA,NA,NA,NA,NA,NA,NA
3c4e1,Shallow Question,html.Page,5_0_0_0_6_1_0,NA,NA,form submission,8566.8019999522,2893297.5999999,2893289.705,2893305.998,2901872.8,2901873,2023-06-08T16:06:22Z,2901882.197,NULL,Theorie,nadharia,s,ushungi,mkutano,uwakilishi,nadharia,NA,NA,0,NA,NA,NA,NA,NA,NA,NA,NA,NA,NA,NA,NA,NA,NA,NA,NA,NA,NA,NA
3c4e1,"""Richtig""-Screen",canvas.Screen,5_0_0_0_6_1_1,NA,NA,timeout,4996.6310000001,2901874.8999999,2901866.05,2901882.197,2906861.718,2906862.8,2023-06-08T16:06:27Z,2906878.828,NULL,Theorie,nadharia,s,ushungi,mkutano,uwakilishi,NA,sdf,1,0,NA,NA,NA,NA,NA,NA,NA,NA,NA,NA,NA,NA,NA,NA,NA,NA,NA,NA,NA
3c4e1,"""Falsch""-Screen",canvas.Screen,5_0_0_0_6_1_2,NA,NA,skipped,NA,2906867.3999999,NA,NA,2906861.718,2906867.5,2023-06-08T16:06:27Z,2906878.828,NULL,Theorie,nadharia,s,ushungi,mkutano,uwakilishi,NA,sdf,NA,0,NA,NA,NA,NA,NA,NA,NA,NA,NA,NA,NA,NA,NA,NA,NA,NA,NA,NA,NA
3c4e1,shallow,flow.Sequence,5_0_0_0_6_1,NA,NA,completion,13555.72,2893297.5999999,2893289.705,2893305.998,2906861.718,2906867.6999998,2023-06-08T16:06:27Z,2906878.828,NULL,Theorie,nadharia,s,ushungi,mkutano,uwakilishi,NA,sdf,NA,0,NA,NA,NA,NA,NA,NA,NA,NA,NA,NA,NA,NA,NA,NA,NA,NA,NA,NA,NA
3c4e1,task,flow.Sequence,5_0_0_0_6,NA,NA,completion,13555.72,2893297.1999998,2893289.705,2893305.998,2906861.718,2906867.6999998,2023-06-08T16:06:27Z,2906878.828,NULL,Theorie,nadharia,s,ushungi,mkutano,uwakilishi,NA,sdf,NA,0,NA,NA,NA,NA,NA,NA,NA,NA,NA,NA,NA,NA,NA,NA,NA,NA,NA,NA,NA
3c4e1,deep,flow.Sequence,5_0_0_0_7_0,NA,NA,skipped,NA,2906867.8,NA,NA,2906861.718,2906867.8999999,2023-06-08T16:06:27Z,2906878.828,NULL,Atmosphäre,angahewa,s,kuteseka,usahihi,kutoamini,NA,sdf,NA,0,NA,NA,NA,NA,NA,NA,NA,NA,NA,NA,NA,NA,NA,NA,NA,NA,NA,NA,NA
3c4e1,Shallow Question,html.Page,5_0_0_0_7_1_0,NA,NA,form submission,4263.1719999998,2906867.8999999,2906861.718,2906878.828,2911142,2911142.1999998,2023-06-08T16:06:31Z,2911158.55,NULL,Atmosphäre,angahewa,s,kuteseka,usahihi,kutoamini,kutoamini,NA,NA,0,NA,NA,NA,NA,NA,NA,NA,NA,NA,NA,NA,NA,NA,NA,NA,NA,NA,NA,NA
3c4e1,"""Richtig""-Screen",canvas.Screen,5_0_0_0_7_1_1,NA,NA,skipped,NA,2911144.0999999,NA,NA,2911142,2911144.1999998,2023-06-08T16:06:31Z,2911158.55,NULL,Atmosphäre,angahewa,s,kuteseka,usahihi,kutoamini,NA,sdf,NA,0,NA,NA,NA,NA,NA,NA,NA,NA,NA,NA,NA,NA,NA,NA,NA,NA,NA,NA,NA
3c4e1,"""Falsch""-Screen",canvas.Screen,5_0_0_0_7_1_2,NA,NA,timeout,4995.6680000001,2911144.8999999,2911124.951,2911158.55,2916137.174,2916139.5999999,2023-06-08T16:06:36Z,2916154.218,NULL,Atmosphäre,angahewa,s,kuteseka,usahihi,kutoamini,NA,sdf,0,0,NA,NA,NA,NA,NA,NA,NA,NA,NA,NA,NA,NA,NA,NA,NA,NA,NA,NA,NA
3c4e1,shallow,flow.Sequence,5_0_0_0_7_1,NA,NA,completion,9258.3459999999,2906867.8999999,2906861.718,2906878.828,2916137.174,2916140,2023-06-08T16:06:36Z,2916154.218,NULL,Atmosphäre,angahewa,s,kuteseka,usahihi,kutoamini,NA,sdf,NA,0,NA,NA,NA,NA,NA,NA,NA,NA,NA,NA,NA,NA,NA,NA,NA,NA,NA,NA,NA
3c4e1,task,flow.Sequence,5_0_0_0_7,NA,NA,completion,9258.3459999999,2906867.8,2906861.718,2906878.828,2916137.174,2916140.5,2023-06-08T16:06:36Z,2916154.218,NULL,Atmosphäre,angahewa,s,kuteseka,usahihi,kutoamini,NA,sdf,NA,0,NA,NA,NA,NA,NA,NA,NA,NA,NA,NA,NA,NA,NA,NA,NA,NA,NA,NA,NA
3c4e1,block,flow.Loop,5_0_0_0,NA,NA,completion,74405.079,2841722.6999998,2841715.107,2841732.095,2916137.174,2916140.6999998,2023-06-08T16:06:36Z,2916154.218,NULL,NA,NA,NA,NA,NA,NA,NA,sdf,NA,0,NA,NA,NA,NA,NA,NA,NA,NA,NA,NA,NA,NA,NA,NA,NA,NA,NA,NA,NA
3c4e1,weiter,canvas.Screen,5_0_0_1,sdf,keypress(Space),response,1027.9819998094,2916141,2916137.174,2916154.218,2917182.1999998,2917185,2023-06-08T16:06:37Z,2917253.204,NULL,NA,NA,NA,NA,NA,NA,NA,sdf,NA,0,NA,NA,NA,NA,NA,NA,NA,NA,NA,NA,NA,NA,NA,NA,NA,NA,NA,NA,NA
3c4e1,check continue,flow.Sequence,5_0_0,NA,NA,completion,75450.104999809,2841722.5999999,2841715.107,2841732.095,2917182.1999998,2917185.0999999,2023-06-08T16:06:37Z,2917253.204,NULL,NA,NA,NA,NA,NA,NA,NA,sdf,NA,0,NA,NA,NA,NA,NA,NA,NA,NA,NA,NA,NA,NA,NA,NA,NA,NA,NA,NA,NA
3c4e1,deep,flow.Sequence,5_0_1_0_0_0,NA,NA,skipped,NA,2917240.5,NA,NA,2917182.1999998,2917240.6999998,2023-06-08T16:06:37Z,2917253.204,NULL,Schock,mshtuko,s,biashara,kukataza,vichekesho,NA,sdfdsf,NA,1,NA,NA,NA,NA,NA,NA,NA,NA,NA,NA,NA,NA,NA,NA,NA,NA,NA,NA,NA
3c4e1,Shallow Question,html.Page,5_0_1_0_0_1_0,NA,NA,form submission,3195.7960000001,2917240.6999998,2917236.717,2917253.204,2920449,2920449.0999999,2023-06-08T16:06:40Z,2920450.262,NULL,Schock,mshtuko,s,biashara,kukataza,vichekesho,mshtuko,NA,NA,1,NA,NA,NA,NA,NA,NA,NA,NA,NA,NA,NA,NA,NA,NA,NA,NA,NA,NA,NA
3c4e1,"""Richtig""-Screen",canvas.Screen,5_0_1_0_0_1_1,NA,NA,timeout,4995.9070000001,2920450.8999999,2920433.587,2920450.262,2925429.94,2925430.8999999,2023-06-08T16:06:45Z,2925446.169,NULL,Schock,mshtuko,s,biashara,kukataza,vichekesho,NA,sdfdsf,1,1,NA,NA,NA,NA,NA,NA,NA,NA,NA,NA,NA,NA,NA,NA,NA,NA,NA,NA,NA
3c4e1,"""Falsch""-Screen",canvas.Screen,5_0_1_0_0_1_2,NA,NA,skipped,NA,2925436.0999999,NA,NA,2925429.94,2925436.5,2023-06-08T16:06:45Z,2925446.169,NULL,Schock,mshtuko,s,biashara,kukataza,vichekesho,NA,sdfdsf,NA,1,NA,NA,NA,NA,NA,NA,NA,NA,NA,NA,NA,NA,NA,NA,NA,NA,NA,NA,NA
3c4e1,shallow,flow.Sequence,5_0_1_0_0_1,NA,NA,completion,8176.736,2917240.6999998,2917236.717,2917253.204,2925429.94,2925436.6999998,2023-06-08T16:06:45Z,2925446.169,NULL,Schock,mshtuko,s,biashara,kukataza,vichekesho,NA,sdfdsf,NA,1,NA,NA,NA,NA,NA,NA,NA,NA,NA,NA,NA,NA,NA,NA,NA,NA,NA,NA,NA
3c4e1,task,flow.Sequence,5_0_1_0_0,NA,NA,completion,8176.736,2917240.5,2917236.717,2917253.204,2925429.94,2925437,2023-06-08T16:06:45Z,2925446.169,NULL,Schock,mshtuko,s,biashara,kukataza,vichekesho,NA,sdfdsf,NA,1,NA,NA,NA,NA,NA,NA,NA,NA,NA,NA,NA,NA,NA,NA,NA,NA,NA,NA,NA
3c4e1,Deep Question,html.Page,5_0_1_0_1_0_0,NA,NA,form submission,4521.8309999998,2925437.1999998,2925429.94,2925446.169,2929968,2929968.1999998,2023-06-08T16:06:50Z,2929975.728,NULL,Verpackung,ufungaji,d,NA,NA,NA,ufungaji,NA,NA,1,NA,NA,NA,NA,NA,NA,NA,NA,NA,NA,NA,NA,NA,NA,NA,NA,NA,NA,NA
3c4e1,"""Richtig""-Screen",canvas.Screen,5_0_1_0_1_0_1,NA,NA,timeout,4995.8709999998,2929969.8999999,2929959.263,2929975.728,2934955.202,2934957.5,2023-06-08T16:06:55Z,2934971.599,NULL,Verpackung,ufungaji,d,NA,NA,NA,NA,sdfdsf,1,1,NA,NA,NA,NA,NA,NA,NA,NA,NA,NA,NA,NA,NA,NA,NA,NA,NA,NA,NA
3c4e1,"""Falsch""-Screen",canvas.Screen,5_0_1_0_1_0_2,NA,NA,skipped,NA,2934963.1999998,NA,NA,2934955.202,2934963.5999999,2023-06-08T16:06:55Z,2934971.599,NULL,Verpackung,ufungaji,d,NA,NA,NA,NA,sdfdsf,NA,1,NA,NA,NA,NA,NA,NA,NA,NA,NA,NA,NA,NA,NA,NA,NA,NA,NA,NA,NA
3c4e1,deep,flow.Sequence,5_0_1_0_1_0,NA,NA,completion,9509.0329999998,2925437.0999999,2925429.94,2925446.169,2934955.202,2934964,2023-06-08T16:06:55Z,2934971.599,NULL,Verpackung,ufungaji,d,NA,NA,NA,NA,sdfdsf,NA,1,NA,NA,NA,NA,NA,NA,NA,NA,NA,NA,NA,NA,NA,NA,NA,NA,NA,NA,NA
3c4e1,shallow,flow.Sequence,5_0_1_0_1_1,NA,NA,skipped,NA,2934964.0999999,NA,NA,2934955.202,2934964.1999998,2023-06-08T16:06:55Z,2934971.599,NULL,Verpackung,ufungaji,d,NA,NA,NA,NA,sdfdsf,NA,1,NA,NA,NA,NA,NA,NA,NA,NA,NA,NA,NA,NA,NA,NA,NA,NA,NA,NA,NA
3c4e1,task,flow.Sequence,5_0_1_0_1,NA,NA,completion,9509.0329999998,2925437.0999999,2925429.94,2925446.169,2934955.202,2934964.5,2023-06-08T16:06:55Z,2934971.599,NULL,Verpackung,ufungaji,d,NA,NA,NA,NA,sdfdsf,NA,1,NA,NA,NA,NA,NA,NA,NA,NA,NA,NA,NA,NA,NA,NA,NA,NA,NA,NA,NA
3c4e1,deep,flow.Sequence,5_0_1_0_2_0,NA,NA,skipped,NA,2934964.6999998,NA,NA,2934955.202,2934964.8,2023-06-08T16:06:55Z,2934971.599,NULL,Atmosphäre,angahewa,s,kuteseka,usahihi,kutoamini,NA,sdfdsf,NA,1,NA,NA,NA,NA,NA,NA,NA,NA,NA,NA,NA,NA,NA,NA,NA,NA,NA,NA,NA
3c4e1,Shallow Question,html.Page,5_0_1_0_2_1_0,NA,NA,form submission,4215.5009999047,2934964.8999999,2934955.202,2934971.599,2939187.0999999,2939187.3999999,2023-06-08T16:06:59Z,2939202.158,NULL,Atmosphäre,angahewa,s,kuteseka,usahihi,kutoamini,angahewa,NA,NA,1,NA,NA,NA,NA,NA,NA,NA,NA,NA,NA,NA,NA,NA,NA,NA,NA,NA,NA,NA
3c4e1,"""Richtig""-Screen",canvas.Screen,5_0_1_0_2_1_1,NA,NA,timeout,4995.6360000004,2939189.3999999,2939185.143,2939202.158,2944181.099,2944182.3,2023-06-08T16:07:04Z,2944197.794,NULL,Atmosphäre,angahewa,s,kuteseka,usahihi,kutoamini,NA,sdfdsf,1,1,NA,NA,NA,NA,NA,NA,NA,NA,NA,NA,NA,NA,NA,NA,NA,NA,NA,NA,NA
3c4e1,"""Falsch""-Screen",canvas.Screen,5_0_1_0_2_1_2,NA,NA,skipped,NA,2944186.8,NA,NA,2944181.099,2944186.8999999,2023-06-08T16:07:04Z,2944197.794,NULL,Atmosphäre,angahewa,s,kuteseka,usahihi,kutoamini,NA,sdfdsf,NA,1,NA,NA,NA,NA,NA,NA,NA,NA,NA,NA,NA,NA,NA,NA,NA,NA,NA,NA,NA
3c4e1,shallow,flow.Sequence,5_0_1_0_2_1,NA,NA,completion,9209.5,2934964.8999999,2934955.202,2934971.599,2944181.099,2944187,2023-06-08T16:07:04Z,2944197.794,NULL,Atmosphäre,angahewa,s,kuteseka,usahihi,kutoamini,NA,sdfdsf,NA,1,NA,NA,NA,NA,NA,NA,NA,NA,NA,NA,NA,NA,NA,NA,NA,NA,NA,NA,NA
3c4e1,task,flow.Sequence,5_0_1_0_2,NA,NA,completion,9209.5,2934964.5999999,2934955.202,2934971.599,2944181.099,2944187,2023-06-08T16:07:04Z,2944197.794,NULL,Atmosphäre,angahewa,s,kuteseka,usahihi,kutoamini,NA,sdfdsf,NA,1,NA,NA,NA,NA,NA,NA,NA,NA,NA,NA,NA,NA,NA,NA,NA,NA,NA,NA,NA
3c4e1,Deep Question,html.Page,5_0_1_0_3_0_0,NA,NA,form submission,5022.7059999998,2944187.0999999,2944181.099,2944197.794,2949220.5,2949220.8,2023-06-08T16:07:09Z,2949226.576,NULL,Hoffnung,matarajio,d,NA,NA,NA,lkh,NA,NA,1,NA,NA,NA,NA,NA,NA,NA,NA,NA,NA,NA,NA,NA,NA,NA,NA,NA,NA,NA
3c4e1,"""Richtig""-Screen",canvas.Screen,5_0_1_0_3_0_1,NA,NA,skipped,NA,2949222.5999999,NA,NA,2949220.5,2949222.6999998,2023-06-08T16:07:09Z,2949226.576,NULL,Hoffnung,matarajio,d,NA,NA,NA,NA,sdfdsf,NA,1,NA,NA,NA,NA,NA,NA,NA,NA,NA,NA,NA,NA,NA,NA,NA,NA,NA,NA,NA
3c4e1,"""Falsch""-Screen",canvas.Screen,5_0_1_0_3_0_2,NA,NA,timeout,4995.9270000001,2949223.5,2949210.503,2949226.576,2954206.377,2954207.3999999,2023-06-08T16:07:14Z,2954222.503,NULL,Hoffnung,matarajio,d,NA,NA,NA,NA,sdfdsf,0,1,NA,NA,NA,NA,NA,NA,NA,NA,NA,NA,NA,NA,NA,NA,NA,NA,NA,NA,NA
3c4e1,deep,flow.Sequence,5_0_1_0_3_0,NA,NA,completion,10008.583,2944187.0999999,2944181.099,2944197.794,2954206.377,2954207.8999999,2023-06-08T16:07:14Z,2954222.503,NULL,Hoffnung,matarajio,d,NA,NA,NA,NA,sdfdsf,NA,1,NA,NA,NA,NA,NA,NA,NA,NA,NA,NA,NA,NA,NA,NA,NA,NA,NA,NA,NA
3c4e1,shallow,flow.Sequence,5_0_1_0_3_1,NA,NA,skipped,NA,2954208,NA,NA,2954206.377,2954208.3,2023-06-08T16:07:14Z,2954222.503,NULL,Hoffnung,matarajio,d,NA,NA,NA,NA,sdfdsf,NA,1,NA,NA,NA,NA,NA,NA,NA,NA,NA,NA,NA,NA,NA,NA,NA,NA,NA,NA,NA
3c4e1,task,flow.Sequence,5_0_1_0_3,NA,NA,completion,10008.583,2944187.0999999,2944181.099,2944197.794,2954206.377,2954208.5,2023-06-08T16:07:14Z,2954222.503,NULL,Hoffnung,matarajio,d,NA,NA,NA,NA,sdfdsf,NA,1,NA,NA,NA,NA,NA,NA,NA,NA,NA,NA,NA,NA,NA,NA,NA,NA,NA,NA,NA
3c4e1,deep,flow.Sequence,5_0_1_0_4_0,NA,NA,skipped,NA,2954208.6999998,NA,NA,2954206.377,2954208.8,2023-06-08T16:07:14Z,2954222.503,NULL,Theorie,nadharia,s,ushungi,mkutano,uwakilishi,NA,sdfdsf,NA,1,NA,NA,NA,NA,NA,NA,NA,NA,NA,NA,NA,NA,NA,NA,NA,NA,NA,NA,NA
3c4e1,Shallow Question,html.Page,5_0_1_0_4_1_0,NA,NA,form submission,5099.6969998092,2954209,2954206.377,2954222.503,2959322.1999998,2959322.5,2023-06-08T16:07:19Z,2959334.918,NULL,Theorie,nadharia,s,ushungi,mkutano,uwakilishi,nadharia,NA,NA,1,NA,NA,NA,NA,NA,NA,NA,NA,NA,NA,NA,NA,NA,NA,NA,NA,NA,NA,NA
3c4e1,"""Richtig""-Screen",canvas.Screen,5_0_1_0_4_1_1,NA,NA,timeout,4995.9739999999,2959325.0999999,2959318.839,2959334.918,2964314.6,2964315.6999998,2023-06-08T16:07:24Z,2964330.892,NULL,Theorie,nadharia,s,ushungi,mkutano,uwakilishi,NA,sdfdsf,1,1,NA,NA,NA,NA,NA,NA,NA,NA,NA,NA,NA,NA,NA,NA,NA,NA,NA,NA,NA
3c4e1,"""Falsch""-Screen",canvas.Screen,5_0_1_0_4_1_2,NA,NA,skipped,NA,2964321.5,NA,NA,2964314.6,2964321.8999999,2023-06-08T16:07:24Z,2964330.892,NULL,Theorie,nadharia,s,ushungi,mkutano,uwakilishi,NA,sdfdsf,NA,1,NA,NA,NA,NA,NA,NA,NA,NA,NA,NA,NA,NA,NA,NA,NA,NA,NA,NA,NA
3c4e1,shallow,flow.Sequence,5_0_1_0_4_1,NA,NA,completion,10092.097,2954208.8999999,2954206.377,2954222.503,2964314.6,2964322.1999998,2023-06-08T16:07:24Z,2964330.892,NULL,Theorie,nadharia,s,ushungi,mkutano,uwakilishi,NA,sdfdsf,NA,1,NA,NA,NA,NA,NA,NA,NA,NA,NA,NA,NA,NA,NA,NA,NA,NA,NA,NA,NA
3c4e1,task,flow.Sequence,5_0_1_0_4,NA,NA,completion,10092.097,2954208.5999999,2954206.377,2954222.503,2964314.6,2964322.5,2023-06-08T16:07:24Z,2964330.892,NULL,Theorie,nadharia,s,ushungi,mkutano,uwakilishi,NA,sdfdsf,NA,1,NA,NA,NA,NA,NA,NA,NA,NA,NA,NA,NA,NA,NA,NA,NA,NA,NA,NA,NA
3c4e1,Deep Question,html.Page,5_0_1_0_5_0_0,NA,NA,form submission,6532.9079999523,2964322.6999998,2964314.6,2964330.892,2970863.8,2970864,2023-06-08T16:07:31Z,2970875.395,NULL,Wechsel,ugeuzaji,d,NA,NA,NA,ölj,NA,NA,1,NA,NA,NA,NA,NA,NA,NA,NA,NA,NA,NA,NA,NA,NA,NA,NA,NA,NA,NA
3c4e1,"""Richtig""-Screen",canvas.Screen,5_0_1_0_5_0_1,NA,NA,skipped,NA,2970865.8,NA,NA,2970863.8,2970865.8999999,2023-06-08T16:07:31Z,2970875.395,NULL,Wechsel,ugeuzaji,d,NA,NA,NA,NA,sdfdsf,NA,1,NA,NA,NA,NA,NA,NA,NA,NA,NA,NA,NA,NA,NA,NA,NA,NA,NA,NA,NA
3c4e1,"""Falsch""-Screen",canvas.Screen,5_0_1_0_5_0_2,NA,NA,timeout,4996.5359999998,2970866.3999999,2970859.006,2970875.395,2975855.151,2975856.0999999,2023-06-08T16:07:36Z,2975871.931,NULL,Wechsel,ugeuzaji,d,NA,NA,NA,NA,sdfdsf,0,1,NA,NA,NA,NA,NA,NA,NA,NA,NA,NA,NA,NA,NA,NA,NA,NA,NA,NA,NA
3c4e1,deep,flow.Sequence,5_0_1_0_5_0,NA,NA,completion,11524.259,2964322.6999998,2964314.6,2964330.892,2975855.151,2975856.5,2023-06-08T16:07:36Z,2975871.931,NULL,Wechsel,ugeuzaji,d,NA,NA,NA,NA,sdfdsf,NA,1,NA,NA,NA,NA,NA,NA,NA,NA,NA,NA,NA,NA,NA,NA,NA,NA,NA,NA,NA
3c4e1,shallow,flow.Sequence,5_0_1_0_5_1,NA,NA,skipped,NA,2975856.6999998,NA,NA,2975855.151,2975856.8999999,2023-06-08T16:07:36Z,2975871.931,NULL,Wechsel,ugeuzaji,d,NA,NA,NA,NA,sdfdsf,NA,1,NA,NA,NA,NA,NA,NA,NA,NA,NA,NA,NA,NA,NA,NA,NA,NA,NA,NA,NA
3c4e1,task,flow.Sequence,5_0_1_0_5,NA,NA,completion,11524.259,2964322.6999998,2964314.6,2964330.892,2975855.151,2975857.1999998,2023-06-08T16:07:36Z,2975871.931,NULL,Wechsel,ugeuzaji,d,NA,NA,NA,NA,sdfdsf,NA,1,NA,NA,NA,NA,NA,NA,NA,NA,NA,NA,NA,NA,NA,NA,NA,NA,NA,NA,NA
