observation,sender,sender_type,sender_id,response,response_action,ended_on,duration,time_run,time_render,time_show,time_end,time_commit,timestamp,time_switch,distractors,german,swahili,enc,distractor1,distractor2,distractor3,response_2,x,correct,x_2,url_vp,url_sess,meta_labjs_version,meta_location,meta_user_agent,meta_platform,meta_language,meta_locale,meta_time_zone,meta_timezone_offset,meta_screen_width,meta_screen_height,meta_scroll_width,meta_scroll_height,meta_window_inner_width,meta_window_inner_height,meta_device_pixel_ratio,meta_labjs_build_flavor,meta_labjs_build_commit
2f5ff,Introduction general,canvas.Screen,0,weiter,keypress(q),response,1968429.4869998,5976.8999998569,887.324,1292654.713,3261084.1999998,3261088.8999999,2023-05-09T16:28:23Z,3261089.586,NULL,NA,NA,NA,NA,NA,NA,NA,NA,NA,NA,214,1,20.2.4,https://neurocog.fernuni.ch/studies/vweber/sfink/encoding_immediate/index.html?vp=214&sess=1,"Mozilla/5.0 (Windows NT 10.0; Win64; x64) AppleWebKit/537.36 (KHTML, like Gecko) Chrome/112.0.0.0 Safari/537.36",Win32,de-CH,de,Europe/Zurich,-120,1536,864,1536,706,1536,754,1.25,production,f5b4a49f956347addd546a832a3327688c2c0fef
2f5ff,Introduction practice,canvas.Screen,1_0,NA,keypress(Space),response,9620.3139998568,3261089.3,3261076.561,3261089.586,3270709.8999999,3270711.0999999,2023-05-09T16:28:33Z,3270715.407,NULL,NA,NA,NA,NA,NA,NA,NA,NA,NA,NA,NA,NA,NA,NA,NA,NA,NA,NA,NA,NA,NA,NA,NA,NA,NA,NA,NA,NA,NA
2f5ff,Deep Question,html.Page,1_1_0_0_0,NA,NA,form submission,16108.593,3270711.3999999,3270697.828,3270715.407,3286824,3286824.1999998,2023-05-09T16:28:49Z,3286835.463,"c(""distractor1"", ""distractor2"", ""distractor3"")",Qualität,mtindo,d,NA,NA,NA,hukik,NA,NA,NA,NA,NA,NA,NA,NA,NA,NA,NA,NA,NA,NA,NA,NA,NA,NA,NA,NA,NA,NA
2f5ff,"""Richtig""-Screen",canvas.Screen,1_1_0_0_1,NA,NA,skipped,NA,3286825.5999999,NA,NA,3286824,3286825.8,2023-05-09T16:28:49Z,3286835.463,"c(""distractor1"", ""distractor2"", ""distractor3"")",Qualität,mtindo,d,NA,NA,NA,NA,NA,NA,NA,NA,NA,NA,NA,NA,NA,NA,NA,NA,NA,NA,NA,NA,NA,NA,NA,NA,NA,NA
2f5ff,"""Falsch""-Screen",canvas.Screen,1_1_0_0_2,NA,NA,timeout,4996.068,3286826.8,3286819.04,3286835.463,3291814.64,3291818.1999998,2023-05-09T16:28:54Z,3291831.531,"c(""distractor1"", ""distractor2"", ""distractor3"")",Qualität,mtindo,d,NA,NA,NA,NA,NA,0,NA,NA,NA,NA,NA,NA,NA,NA,NA,NA,NA,NA,NA,NA,NA,NA,NA,NA,NA,NA
2f5ff,deep,flow.Sequence,1_1_0_0,NA,NA,completion,21099.233,3270711.3999999,3270697.828,3270715.407,3291814.64,3291818.6999998,2023-05-09T16:28:54Z,3291831.531,"c(""distractor1"", ""distractor2"", ""distractor3"")",Qualität,mtindo,d,NA,NA,NA,NA,NA,NA,NA,NA,NA,NA,NA,NA,NA,NA,NA,NA,NA,NA,NA,NA,NA,NA,NA,NA,NA,NA
2f5ff,shallow,flow.Sequence,1_1_0_1,NA,NA,skipped,NA,3291818.8999999,NA,NA,3291814.64,3291819.0999999,2023-05-09T16:28:54Z,3291831.531,"c(""distractor1"", ""distractor2"", ""distractor3"")",Qualität,mtindo,d,NA,NA,NA,NA,NA,NA,NA,NA,NA,NA,NA,NA,NA,NA,NA,NA,NA,NA,NA,NA,NA,NA,NA,NA,NA,NA
2f5ff,task,flow.Sequence,1_1_0,NA,NA,completion,21099.233,3270711.3999999,3270697.828,3270715.407,3291814.64,3291819.3,2023-05-09T16:28:54Z,3291831.531,"c(""distractor1"", ""distractor2"", ""distractor3"")",Qualität,mtindo,d,NA,NA,NA,NA,NA,NA,NA,NA,NA,NA,NA,NA,NA,NA,NA,NA,NA,NA,NA,NA,NA,NA,NA,NA,NA,NA
2f5ff,Deep Question,html.Page,1_1_1_0_0,NA,NA,form submission,6382.5689999047,3291819.5999999,3291814.64,3291831.531,3298214.0999999,3298214.5,2023-05-09T16:29:00Z,3298225.734,"c(""distractor1"", ""distractor2"", ""distractor3"")",Gesundheit,salama,d,NA,NA,NA,etoak,NA,NA,NA,NA,NA,NA,NA,NA,NA,NA,NA,NA,NA,NA,NA,NA,NA,NA,NA,NA,NA,NA
2f5ff,"""Richtig""-Screen",canvas.Screen,1_1_1_0_1,NA,NA,skipped,NA,3298216.6999998,NA,NA,3298214.0999999,3298216.8999999,2023-05-09T16:29:00Z,3298225.734,"c(""distractor1"", ""distractor2"", ""distractor3"")",Gesundheit,salama,d,NA,NA,NA,NA,NA,NA,NA,NA,NA,NA,NA,NA,NA,NA,NA,NA,NA,NA,NA,NA,NA,NA,NA,NA,NA,NA
2f5ff,"""Falsch""-Screen",canvas.Screen,1_1_1_0_2,NA,NA,timeout,4996.1059999997,3298217.6999998,3298209.532,3298225.734,3303205.267,3303206.1999998,2023-05-09T16:29:05Z,3303221.84,"c(""distractor1"", ""distractor2"", ""distractor3"")",Gesundheit,salama,d,NA,NA,NA,NA,NA,0,NA,NA,NA,NA,NA,NA,NA,NA,NA,NA,NA,NA,NA,NA,NA,NA,NA,NA,NA,NA
2f5ff,deep,flow.Sequence,1_1_1_0,NA,NA,completion,11373.736,3291819.5,3291814.64,3291831.531,3303205.267,3303206.6999998,2023-05-09T16:29:05Z,3303221.84,"c(""distractor1"", ""distractor2"", ""distractor3"")",Gesundheit,salama,d,NA,NA,NA,NA,NA,NA,NA,NA,NA,NA,NA,NA,NA,NA,NA,NA,NA,NA,NA,NA,NA,NA,NA,NA,NA,NA
2f5ff,shallow,flow.Sequence,1_1_1_1,NA,NA,skipped,NA,3303206.8999999,NA,NA,3303205.267,3303207.1999998,2023-05-09T16:29:05Z,3303221.84,"c(""distractor1"", ""distractor2"", ""distractor3"")",Gesundheit,salama,d,NA,NA,NA,NA,NA,NA,NA,NA,NA,NA,NA,NA,NA,NA,NA,NA,NA,NA,NA,NA,NA,NA,NA,NA,NA,NA
2f5ff,task,flow.Sequence,1_1_1,NA,NA,completion,11373.736,3291819.3999999,3291814.64,3291831.531,3303205.267,3303207.3999999,2023-05-09T16:29:05Z,3303221.84,"c(""distractor1"", ""distractor2"", ""distractor3"")",Gesundheit,salama,d,NA,NA,NA,NA,NA,NA,NA,NA,NA,NA,NA,NA,NA,NA,NA,NA,NA,NA,NA,NA,NA,NA,NA,NA,NA,NA
2f5ff,deep,flow.Sequence,1_1_2_0,NA,NA,skipped,NA,3303207.5999999,NA,NA,3303205.267,3303207.8,2023-05-09T16:29:05Z,3303221.84,"c(""distractor1"", ""distractor2"", ""distractor3"")",Kritik,lawama,s,dereva,nafasi,mawazo,NA,NA,NA,NA,NA,NA,NA,NA,NA,NA,NA,NA,NA,NA,NA,NA,NA,NA,NA,NA,NA,NA,NA
2f5ff,Shallow Question,html.Page,1_1_2_1_0,NA,NA,form submission,6603.3599998094,3303208,3303205.267,3303221.84,3309825.1999998,3309825.3999999,2023-05-09T16:29:12Z,3309832.833,"c(""distractor1"", ""distractor2"", ""distractor3"")",Kritik,lawama,s,dereva,nafasi,mawazo,dereva,NA,NA,NA,NA,NA,NA,NA,NA,NA,NA,NA,NA,NA,NA,NA,NA,NA,NA,NA,NA,NA,NA
2f5ff,"""Richtig""-Screen",canvas.Screen,1_1_2_1_1,NA,NA,skipped,NA,3309827.3,NA,NA,3309825.1999998,3309827.5,2023-05-09T16:29:12Z,3309832.833,"c(""distractor1"", ""distractor2"", ""distractor3"")",Kritik,lawama,s,dereva,nafasi,mawazo,NA,NA,NA,NA,NA,NA,NA,NA,NA,NA,NA,NA,NA,NA,NA,NA,NA,NA,NA,NA,NA,NA,NA
2f5ff,"""Falsch""-Screen",canvas.Screen,1_1_2_1_2,NA,NA,timeout,4996.4869999997,3309828.1999998,3309816.97,3309832.833,3314812.188,3314814.0999999,2023-05-09T16:29:17Z,3314829.32,"c(""distractor1"", ""distractor2"", ""distractor3"")",Kritik,lawama,s,dereva,nafasi,mawazo,NA,NA,0,NA,NA,NA,NA,NA,NA,NA,NA,NA,NA,NA,NA,NA,NA,NA,NA,NA,NA,NA,NA
2f5ff,shallow,flow.Sequence,1_1_2_1,NA,NA,completion,11590.348,3303208,3303205.267,3303221.84,3314812.188,3314814.5,2023-05-09T16:29:17Z,3314829.32,"c(""distractor1"", ""distractor2"", ""distractor3"")",Kritik,lawama,s,dereva,nafasi,mawazo,NA,NA,NA,NA,NA,NA,NA,NA,NA,NA,NA,NA,NA,NA,NA,NA,NA,NA,NA,NA,NA,NA,NA
2f5ff,task,flow.Sequence,1_1_2,NA,NA,completion,11590.348,3303207.5999999,3303205.267,3303221.84,3314812.188,3314814.8,2023-05-09T16:29:17Z,3314829.32,"c(""distractor1"", ""distractor2"", ""distractor3"")",Kritik,lawama,s,dereva,nafasi,mawazo,NA,NA,NA,NA,NA,NA,NA,NA,NA,NA,NA,NA,NA,NA,NA,NA,NA,NA,NA,NA,NA,NA,NA
2f5ff,deep,flow.Sequence,1_1_3_0,NA,NA,skipped,NA,3314815.0999999,NA,NA,3314812.188,3314815.3,2023-05-09T16:29:17Z,3314829.32,"c(""distractor1"", ""distractor2"", ""distractor3"")",Rückhalt,msaada,s,muhula,auwali,kiwimbe,NA,NA,NA,NA,NA,NA,NA,NA,NA,NA,NA,NA,NA,NA,NA,NA,NA,NA,NA,NA,NA,NA,NA
2f5ff,Shallow Question,html.Page,1_1_3_1_0,NA,NA,form submission,5804.6800000002,3314815.5,3314812.188,3314829.32,3320634,3320634.1999998,2023-05-09T16:29:22Z,3320640.626,"c(""distractor1"", ""distractor2"", ""distractor3"")",Rückhalt,msaada,s,muhula,auwali,kiwimbe,auwali,NA,NA,NA,NA,NA,NA,NA,NA,NA,NA,NA,NA,NA,NA,NA,NA,NA,NA,NA,NA,NA,NA
2f5ff,"""Richtig""-Screen",canvas.Screen,1_1_3_1_1,NA,NA,skipped,NA,3320636,NA,NA,3320634,3320636.1999998,2023-05-09T16:29:22Z,3320640.626,"c(""distractor1"", ""distractor2"", ""distractor3"")",Rückhalt,msaada,s,muhula,auwali,kiwimbe,NA,NA,NA,NA,NA,NA,NA,NA,NA,NA,NA,NA,NA,NA,NA,NA,NA,NA,NA,NA,NA,NA,NA
2f5ff,"""Falsch""-Screen",canvas.Screen,1_1_3_1_2,NA,NA,timeout,4996.4909999999,3320636.6999998,3320624.332,3320640.626,3325620.534,3325621.5999999,2023-05-09T16:29:27Z,3325637.117,"c(""distractor1"", ""distractor2"", ""distractor3"")",Rückhalt,msaada,s,muhula,auwali,kiwimbe,NA,NA,0,NA,NA,NA,NA,NA,NA,NA,NA,NA,NA,NA,NA,NA,NA,NA,NA,NA,NA,NA,NA
2f5ff,shallow,flow.Sequence,1_1_3_1,NA,NA,completion,10791.214,3314815.5,3314812.188,3314829.32,3325620.534,3325622,2023-05-09T16:29:27Z,3325637.117,"c(""distractor1"", ""distractor2"", ""distractor3"")",Rückhalt,msaada,s,muhula,auwali,kiwimbe,NA,NA,NA,NA,NA,NA,NA,NA,NA,NA,NA,NA,NA,NA,NA,NA,NA,NA,NA,NA,NA,NA,NA
2f5ff,task,flow.Sequence,1_1_3,NA,NA,completion,10791.214,3314815,3314812.188,3314829.32,3325620.534,3325622.3,2023-05-09T16:29:27Z,3325637.117,"c(""distractor1"", ""distractor2"", ""distractor3"")",Rückhalt,msaada,s,muhula,auwali,kiwimbe,NA,NA,NA,NA,NA,NA,NA,NA,NA,NA,NA,NA,NA,NA,NA,NA,NA,NA,NA,NA,NA,NA,NA
2f5ff,Deep Question,html.Page,1_1_4_0_0,NA,NA,form submission,8027.4829999045,3325622.5999999,3325620.534,3325637.117,3333664.5999999,3333664.8,2023-05-09T16:29:36Z,3333680.436,"c(""distractor1"", ""distractor2"", ""distractor3"")",Schatten,kivuli,d,NA,NA,NA,utinde,NA,NA,NA,NA,NA,NA,NA,NA,NA,NA,NA,NA,NA,NA,NA,NA,NA,NA,NA,NA,NA,NA
2f5ff,"""Richtig""-Screen",canvas.Screen,1_1_4_0_1,NA,NA,skipped,NA,3333666.8999999,NA,NA,3333664.5999999,3333667.0999999,2023-05-09T16:29:36Z,3333680.436,"c(""distractor1"", ""distractor2"", ""distractor3"")",Schatten,kivuli,d,NA,NA,NA,NA,NA,NA,NA,NA,NA,NA,NA,NA,NA,NA,NA,NA,NA,NA,NA,NA,NA,NA,NA,NA,NA,NA
2f5ff,"""Falsch""-Screen",canvas.Screen,1_1_4_0_2,NA,NA,timeout,4996.1439999999,3333667.8,3333663.852,3333680.436,3338659.196,3338659.6999998,2023-05-09T16:29:41Z,3338676.58,"c(""distractor1"", ""distractor2"", ""distractor3"")",Schatten,kivuli,d,NA,NA,NA,NA,NA,0,NA,NA,NA,NA,NA,NA,NA,NA,NA,NA,NA,NA,NA,NA,NA,NA,NA,NA,NA,NA
2f5ff,deep,flow.Sequence,1_1_4_0,NA,NA,completion,13022.079,3325622.5,3325620.534,3325637.117,3338659.196,3338659.8999999,2023-05-09T16:29:41Z,3338676.58,"c(""distractor1"", ""distractor2"", ""distractor3"")",Schatten,kivuli,d,NA,NA,NA,NA,NA,NA,NA,NA,NA,NA,NA,NA,NA,NA,NA,NA,NA,NA,NA,NA,NA,NA,NA,NA,NA,NA
2f5ff,shallow,flow.Sequence,1_1_4_1,NA,NA,skipped,NA,3338660,NA,NA,3338659.196,3338660.0999999,2023-05-09T16:29:41Z,3338676.58,"c(""distractor1"", ""distractor2"", ""distractor3"")",Schatten,kivuli,d,NA,NA,NA,NA,NA,NA,NA,NA,NA,NA,NA,NA,NA,NA,NA,NA,NA,NA,NA,NA,NA,NA,NA,NA,NA,NA
2f5ff,task,flow.Sequence,1_1_4,NA,NA,completion,13022.079,3325622.3999999,3325620.534,3325637.117,3338659.196,3338660.1999998,2023-05-09T16:29:41Z,3338676.58,"c(""distractor1"", ""distractor2"", ""distractor3"")",Schatten,kivuli,d,NA,NA,NA,NA,NA,NA,NA,NA,NA,NA,NA,NA,NA,NA,NA,NA,NA,NA,NA,NA,NA,NA,NA,NA,NA,NA
2f5ff,deep,flow.Sequence,1_1_5_0,NA,NA,skipped,NA,3338660.3,NA,NA,3338659.196,3338660.3999999,2023-05-09T16:29:41Z,3338676.58,"c(""distractor1"", ""distractor2"", ""distractor3"")",Gegenwart,hadhara,s,katiba,jokofu,mikopo,NA,NA,NA,NA,NA,NA,NA,NA,NA,NA,NA,NA,NA,NA,NA,NA,NA,NA,NA,NA,NA,NA,NA
2f5ff,Shallow Question,html.Page,1_1_5_1_0,NA,NA,form submission,6168.8199998569,3338660.5,3338659.196,3338676.58,3344845.3999999,3344845.5,2023-05-09T16:29:47Z,3344854.05,"c(""distractor1"", ""distractor2"", ""distractor3"")",Gegenwart,hadhara,s,katiba,jokofu,mikopo,hadhara,NA,NA,NA,NA,NA,NA,NA,NA,NA,NA,NA,NA,NA,NA,NA,NA,NA,NA,NA,NA,NA,NA
2f5ff,"""Richtig""-Screen",canvas.Screen,1_1_5_1_1,NA,NA,timeout,4996.375,3344847.5,3344837.443,3344854.05,3349833.859,3349834.8,2023-05-09T16:29:52Z,3349850.425,"c(""distractor1"", ""distractor2"", ""distractor3"")",Gegenwart,hadhara,s,katiba,jokofu,mikopo,NA,NA,1,NA,NA,NA,NA,NA,NA,NA,NA,NA,NA,NA,NA,NA,NA,NA,NA,NA,NA,NA,NA
2f5ff,"""Falsch""-Screen",canvas.Screen,1_1_5_1_2,NA,NA,skipped,NA,3349839.3,NA,NA,3349833.859,3349839.5999999,2023-05-09T16:29:52Z,3349850.425,"c(""distractor1"", ""distractor2"", ""distractor3"")",Gegenwart,hadhara,s,katiba,jokofu,mikopo,NA,NA,NA,NA,NA,NA,NA,NA,NA,NA,NA,NA,NA,NA,NA,NA,NA,NA,NA,NA,NA,NA,NA
2f5ff,shallow,flow.Sequence,1_1_5_1,NA,NA,completion,11157.279,3338660.5,3338659.196,3338676.58,3349833.859,3349839.8999999,2023-05-09T16:29:52Z,3349850.425,"c(""distractor1"", ""distractor2"", ""distractor3"")",Gegenwart,hadhara,s,katiba,jokofu,mikopo,NA,NA,NA,NA,NA,NA,NA,NA,NA,NA,NA,NA,NA,NA,NA,NA,NA,NA,NA,NA,NA,NA,NA
2f5ff,task,flow.Sequence,1_1_5,NA,NA,completion,11157.279,3338660.3,3338659.196,3338676.58,3349833.859,3349840.0999999,2023-05-09T16:29:52Z,3349850.425,"c(""distractor1"", ""distractor2"", ""distractor3"")",Gegenwart,hadhara,s,katiba,jokofu,mikopo,NA,NA,NA,NA,NA,NA,NA,NA,NA,NA,NA,NA,NA,NA,NA,NA,NA,NA,NA,NA,NA,NA,NA
2f5ff,block,flow.Loop,1_1,NA,NA,completion,79118.452,3270711.3,3270697.828,3270715.407,3349833.859,3349840.3,2023-05-09T16:29:52Z,3349850.425,"c(""distractor1"", ""distractor2"", ""distractor3"")",NA,NA,NA,NA,NA,NA,NA,NA,NA,NA,NA,NA,NA,NA,NA,NA,NA,NA,NA,NA,NA,NA,NA,NA,NA,NA,NA,NA,NA
2f5ff,Practice,flow.Sequence,1,NA,NA,completion,88744.273,3261089.3,3261076.561,3261089.586,3349833.859,3349840.3999999,2023-05-09T16:29:52Z,3349850.425,NULL,NA,NA,NA,NA,NA,NA,NA,NA,NA,NA,NA,NA,NA,NA,NA,NA,NA,NA,NA,NA,NA,NA,NA,NA,NA,NA,NA,NA,NA
2f5ff,Experiment start,canvas.Screen,2,weiter,keypress(q),response,7537.3749999525,3349840.5,3349833.859,3349850.425,3357387.8,3357388.3,2023-05-09T16:29:59Z,3357477.12,NULL,NA,NA,NA,NA,NA,NA,NA,NA,NA,NA,NA,NA,NA,NA,NA,NA,NA,NA,NA,NA,NA,NA,NA,NA,NA,NA,NA,NA,NA
2f5ff,Deep Question,html.Page,3_0_0_0_0_0_0,NA,NA,form submission,6263.5799998092,3357468.8,3357460.639,3357477.12,3363740.6999998,3363741,2023-05-09T16:30:06Z,3363755.639,NULL,Polizist,msongora,d,NA,NA,NA,thual,NA,NA,0,NA,NA,NA,NA,NA,NA,NA,NA,NA,NA,NA,NA,NA,NA,NA,NA,NA,NA,NA
2f5ff,"""Richtig""-Screen",canvas.Screen,3_0_0_0_0_0_1,NA,NA,skipped,NA,3363742.6999998,NA,NA,3363740.6999998,3363742.8,2023-05-09T16:30:06Z,3363755.639,NULL,Polizist,msongora,d,NA,NA,NA,NA,sdf,NA,0,NA,NA,NA,NA,NA,NA,NA,NA,NA,NA,NA,NA,NA,NA,NA,NA,NA,NA,NA
2f5ff,"""Falsch""-Screen",canvas.Screen,3_0_0_0_0_0_2,NA,NA,timeout,4995.9109999998,3363743.3,3363739.151,3363755.639,3368734.549,3368735.5,2023-05-09T16:30:11Z,3368751.55,NULL,Polizist,msongora,d,NA,NA,NA,NA,sdf,0,0,NA,NA,NA,NA,NA,NA,NA,NA,NA,NA,NA,NA,NA,NA,NA,NA,NA,NA,NA
2f5ff,deep,flow.Sequence,3_0_0_0_0_0,NA,NA,completion,11257.429,3357468.8,3357460.639,3357477.12,3368734.549,3368735.6999998,2023-05-09T16:30:11Z,3368751.55,NULL,Polizist,msongora,d,NA,NA,NA,NA,sdf,NA,0,NA,NA,NA,NA,NA,NA,NA,NA,NA,NA,NA,NA,NA,NA,NA,NA,NA,NA,NA
2f5ff,shallow,flow.Sequence,3_0_0_0_0_1,NA,NA,skipped,NA,3368735.6999998,NA,NA,3368734.549,3368735.8,2023-05-09T16:30:11Z,3368751.55,NULL,Polizist,msongora,d,NA,NA,NA,NA,sdf,NA,0,NA,NA,NA,NA,NA,NA,NA,NA,NA,NA,NA,NA,NA,NA,NA,NA,NA,NA,NA
2f5ff,task,flow.Sequence,3_0_0_0_0,NA,NA,completion,11257.429,3357468.6999998,3357460.639,3357477.12,3368734.549,3368735.8999999,2023-05-09T16:30:11Z,3368751.55,NULL,Polizist,msongora,d,NA,NA,NA,NA,sdf,NA,0,NA,NA,NA,NA,NA,NA,NA,NA,NA,NA,NA,NA,NA,NA,NA,NA,NA,NA,NA
2f5ff,Deep Question,html.Page,3_0_0_0_1_0_0,NA,NA,form submission,4581.6499998095,3368736,3368734.549,3368751.55,3373333.1999998,3373333.3999999,2023-05-09T16:30:15Z,3373347.773,NULL,Prüfung,mtihani,d,NA,NA,NA,sdlj,NA,NA,0,NA,NA,NA,NA,NA,NA,NA,NA,NA,NA,NA,NA,NA,NA,NA,NA,NA,NA,NA
2f5ff,"""Richtig""-Screen",canvas.Screen,3_0_0_0_1_0_1,NA,NA,skipped,NA,3373335.1999998,NA,NA,3373333.1999998,3373335.3,2023-05-09T16:30:15Z,3373347.773,NULL,Prüfung,mtihani,d,NA,NA,NA,NA,sdf,NA,0,NA,NA,NA,NA,NA,NA,NA,NA,NA,NA,NA,NA,NA,NA,NA,NA,NA,NA,NA
2f5ff,"""Falsch""-Screen",canvas.Screen,3_0_0_0_1_0_2,NA,NA,timeout,4996.0819999999,3373335.8999999,3373330.919,3373347.773,3378326.957,3378328,2023-05-09T16:30:20Z,3378343.855,NULL,Prüfung,mtihani,d,NA,NA,NA,NA,sdf,0,0,NA,NA,NA,NA,NA,NA,NA,NA,NA,NA,NA,NA,NA,NA,NA,NA,NA,NA,NA
2f5ff,deep,flow.Sequence,3_0_0_0_1_0,NA,NA,completion,9575.4070000001,3368736,3368734.549,3368751.55,3378326.957,3378328.3999999,2023-05-09T16:30:20Z,3378343.855,NULL,Prüfung,mtihani,d,NA,NA,NA,NA,sdf,NA,0,NA,NA,NA,NA,NA,NA,NA,NA,NA,NA,NA,NA,NA,NA,NA,NA,NA,NA,NA
2f5ff,shallow,flow.Sequence,3_0_0_0_1_1,NA,NA,skipped,NA,3378328.5,NA,NA,3378326.957,3378328.5999999,2023-05-09T16:30:20Z,3378343.855,NULL,Prüfung,mtihani,d,NA,NA,NA,NA,sdf,NA,0,NA,NA,NA,NA,NA,NA,NA,NA,NA,NA,NA,NA,NA,NA,NA,NA,NA,NA,NA
2f5ff,task,flow.Sequence,3_0_0_0_1,NA,NA,completion,9575.4070000001,3368736,3368734.549,3368751.55,3378326.957,3378328.8,2023-05-09T16:30:20Z,3378343.855,NULL,Prüfung,mtihani,d,NA,NA,NA,NA,sdf,NA,0,NA,NA,NA,NA,NA,NA,NA,NA,NA,NA,NA,NA,NA,NA,NA,NA,NA,NA,NA
2f5ff,deep,flow.Sequence,3_0_0_0_2_0,NA,NA,skipped,NA,3378329,NA,NA,3378326.957,3378329.1999998,2023-05-09T16:30:20Z,3378343.855,NULL,Verzögerung,kuchelewa,s,mwakilishi,mwanauchumi,jaribio,NA,sdf,NA,0,NA,NA,NA,NA,NA,NA,NA,NA,NA,NA,NA,NA,NA,NA,NA,NA,NA,NA,NA
2f5ff,Shallow Question,html.Page,3_0_0_0_2_1_0,NA,NA,form submission,7567.7449999047,3378329.3,3378326.957,3378343.855,3385911.5999999,3385911.8,2023-05-09T16:30:28Z,3385920.526,NULL,Verzögerung,kuchelewa,s,mwakilishi,mwanauchumi,jaribio,kuchelewa,NA,NA,0,NA,NA,NA,NA,NA,NA,NA,NA,NA,NA,NA,NA,NA,NA,NA,NA,NA,NA,NA
2f5ff,"""Richtig""-Screen",canvas.Screen,3_0_0_0_2_1_1,NA,NA,timeout,4995.7349999999,3385913.6999998,3385904.192,3385920.526,3390899.653,3390900.6999998,2023-05-09T16:30:33Z,3390916.261,NULL,Verzögerung,kuchelewa,s,mwakilishi,mwanauchumi,jaribio,NA,sdf,1,0,NA,NA,NA,NA,NA,NA,NA,NA,NA,NA,NA,NA,NA,NA,NA,NA,NA,NA,NA
2f5ff,"""Falsch""-Screen",canvas.Screen,3_0_0_0_2_1_2,NA,NA,skipped,NA,3390905.8999999,NA,NA,3390899.653,3390906.1999998,2023-05-09T16:30:33Z,3390916.261,NULL,Verzögerung,kuchelewa,s,mwakilishi,mwanauchumi,jaribio,NA,sdf,NA,0,NA,NA,NA,NA,NA,NA,NA,NA,NA,NA,NA,NA,NA,NA,NA,NA,NA,NA,NA
2f5ff,shallow,flow.Sequence,3_0_0_0_2_1,NA,NA,completion,12555.798,3378329.1999998,3378326.957,3378343.855,3390899.653,3390906.6999998,2023-05-09T16:30:33Z,3390916.261,NULL,Verzögerung,kuchelewa,s,mwakilishi,mwanauchumi,jaribio,NA,sdf,NA,0,NA,NA,NA,NA,NA,NA,NA,NA,NA,NA,NA,NA,NA,NA,NA,NA,NA,NA,NA
2f5ff,task,flow.Sequence,3_0_0_0_2,NA,NA,completion,12555.798,3378329,3378326.957,3378343.855,3390899.653,3390906.8999999,2023-05-09T16:30:33Z,3390916.261,NULL,Verzögerung,kuchelewa,s,mwakilishi,mwanauchumi,jaribio,NA,sdf,NA,0,NA,NA,NA,NA,NA,NA,NA,NA,NA,NA,NA,NA,NA,NA,NA,NA,NA,NA,NA
2f5ff,deep,flow.Sequence,3_0_0_0_3_0,NA,NA,skipped,NA,3390907.1999998,NA,NA,3390899.653,3390907.1999998,2023-05-09T16:30:33Z,3390916.261,NULL,Sympathie,mapendano,s,dhamiria,fungamano,maazimio,NA,sdf,NA,0,NA,NA,NA,NA,NA,NA,NA,NA,NA,NA,NA,NA,NA,NA,NA,NA,NA,NA,NA
2f5ff,Shallow Question,html.Page,3_0_0_0_3_1_0,NA,NA,form submission,7171.5389999524,3390907.3999999,3390899.653,3390916.261,3398087.8,3398088,2023-05-09T16:30:40Z,3398093.634,NULL,Sympathie,mapendano,s,dhamiria,fungamano,maazimio,dhamiria,NA,NA,0,NA,NA,NA,NA,NA,NA,NA,NA,NA,NA,NA,NA,NA,NA,NA,NA,NA,NA,NA
2f5ff,"""Richtig""-Screen",canvas.Screen,3_0_0_0_3_1_1,NA,NA,skipped,NA,3398090,NA,NA,3398087.8,3398090.1999998,2023-05-09T16:30:40Z,3398093.634,NULL,Sympathie,mapendano,s,dhamiria,fungamano,maazimio,NA,sdf,NA,0,NA,NA,NA,NA,NA,NA,NA,NA,NA,NA,NA,NA,NA,NA,NA,NA,NA,NA,NA
2f5ff,"""Falsch""-Screen",canvas.Screen,3_0_0_0_3_1_2,NA,NA,timeout,4995.9389999998,3398090.6999998,3398077.56,3398093.634,3403073.538,3403074.5999999,2023-05-09T16:30:45Z,3403089.573,NULL,Sympathie,mapendano,s,dhamiria,fungamano,maazimio,NA,sdf,0,0,NA,NA,NA,NA,NA,NA,NA,NA,NA,NA,NA,NA,NA,NA,NA,NA,NA,NA,NA
2f5ff,shallow,flow.Sequence,3_0_0_0_3_1,NA,NA,completion,12157.277,3390907.3,3390899.653,3390916.261,3403073.538,3403075.0999999,2023-05-09T16:30:45Z,3403089.573,NULL,Sympathie,mapendano,s,dhamiria,fungamano,maazimio,NA,sdf,NA,0,NA,NA,NA,NA,NA,NA,NA,NA,NA,NA,NA,NA,NA,NA,NA,NA,NA,NA,NA
2f5ff,task,flow.Sequence,3_0_0_0_3,NA,NA,completion,12157.277,3390907.0999999,3390899.653,3390916.261,3403073.538,3403075.3,2023-05-09T16:30:45Z,3403089.573,NULL,Sympathie,mapendano,s,dhamiria,fungamano,maazimio,NA,sdf,NA,0,NA,NA,NA,NA,NA,NA,NA,NA,NA,NA,NA,NA,NA,NA,NA,NA,NA,NA,NA
2f5ff,deep,flow.Sequence,3_0_0_0_4_0,NA,NA,skipped,NA,3403075.5,NA,NA,3403073.538,3403075.6999998,2023-05-09T16:30:45Z,3403089.573,NULL,Annäherung,maegesho,s,madahili,kujiamini,mapendekezo,NA,sdf,NA,0,NA,NA,NA,NA,NA,NA,NA,NA,NA,NA,NA,NA,NA,NA,NA,NA,NA,NA,NA
2f5ff,Shallow Question,html.Page,3_0_0_0_4_1_0,NA,NA,form submission,5609.8269998571,3403075.8999999,3403073.538,3403089.573,3408699.3999999,3408699.5,2023-05-09T16:30:51Z,3408701.583,NULL,Annäherung,maegesho,s,madahili,kujiamini,mapendekezo,mapendekezo,NA,NA,0,NA,NA,NA,NA,NA,NA,NA,NA,NA,NA,NA,NA,NA,NA,NA,NA,NA,NA,NA
2f5ff,"""Richtig""-Screen",canvas.Screen,3_0_0_0_4_1_1,NA,NA,skipped,NA,3408701.3999999,NA,NA,3408699.3999999,3408701.5999999,2023-05-09T16:30:51Z,3408701.583,NULL,Annäherung,maegesho,s,madahili,kujiamini,mapendekezo,NA,sdf,NA,0,NA,NA,NA,NA,NA,NA,NA,NA,NA,NA,NA,NA,NA,NA,NA,NA,NA,NA,NA
2f5ff,"""Falsch""-Screen",canvas.Screen,3_0_0_0_4_1_2,NA,NA,timeout,4996.0379999997,3408702.3,3408685.327,3408701.583,3413681.427,3413682.5,2023-05-09T16:30:56Z,3413697.621,NULL,Annäherung,maegesho,s,madahili,kujiamini,mapendekezo,NA,sdf,0,0,NA,NA,NA,NA,NA,NA,NA,NA,NA,NA,NA,NA,NA,NA,NA,NA,NA,NA,NA
2f5ff,shallow,flow.Sequence,3_0_0_0_4_1,NA,NA,completion,10591.854,3403075.8999999,3403073.538,3403089.573,3413681.427,3413683,2023-05-09T16:30:56Z,3413697.621,NULL,Annäherung,maegesho,s,madahili,kujiamini,mapendekezo,NA,sdf,NA,0,NA,NA,NA,NA,NA,NA,NA,NA,NA,NA,NA,NA,NA,NA,NA,NA,NA,NA,NA
2f5ff,task,flow.Sequence,3_0_0_0_4,NA,NA,completion,10591.854,3403075.5,3403073.538,3403089.573,3413681.427,3413683.1999998,2023-05-09T16:30:56Z,3413697.621,NULL,Annäherung,maegesho,s,madahili,kujiamini,mapendekezo,NA,sdf,NA,0,NA,NA,NA,NA,NA,NA,NA,NA,NA,NA,NA,NA,NA,NA,NA,NA,NA,NA,NA
2f5ff,Deep Question,html.Page,3_0_0_0_5_0_0,NA,NA,form submission,4261.1789999525,3413683.5,3413681.427,3413697.621,3417958.8,3417959.0999999,2023-05-09T16:31:00Z,3417960.637,NULL,Aufstand,ugomaji,d,NA,NA,NA,aslfkj,NA,NA,0,NA,NA,NA,NA,NA,NA,NA,NA,NA,NA,NA,NA,NA,NA,NA,NA,NA,NA,NA
2f5ff,"""Richtig""-Screen",canvas.Screen,3_0_0_0_5_0_1,NA,NA,skipped,NA,3417961.0999999,NA,NA,3417958.8,3417961.3,2023-05-09T16:31:00Z,3417960.637,NULL,Aufstand,ugomaji,d,NA,NA,NA,NA,sdf,NA,0,NA,NA,NA,NA,NA,NA,NA,NA,NA,NA,NA,NA,NA,NA,NA,NA,NA,NA,NA
2f5ff,"""Falsch""-Screen",canvas.Screen,3_0_0_0_5_0_2,NA,NA,timeout,4996.5329999998,3417961.8999999,3417944.615,3417960.637,3422940.489,3422941.0999999,2023-05-09T16:31:05Z,3422957.17,NULL,Aufstand,ugomaji,d,NA,NA,NA,NA,sdf,0,0,NA,NA,NA,NA,NA,NA,NA,NA,NA,NA,NA,NA,NA,NA,NA,NA,NA,NA,NA
2f5ff,deep,flow.Sequence,3_0_0_0_5_0,NA,NA,completion,9242.8680000002,3413683.3999999,3413681.427,3413697.621,3422940.489,3422941.3,2023-05-09T16:31:05Z,3422957.17,NULL,Aufstand,ugomaji,d,NA,NA,NA,NA,sdf,NA,0,NA,NA,NA,NA,NA,NA,NA,NA,NA,NA,NA,NA,NA,NA,NA,NA,NA,NA,NA
2f5ff,shallow,flow.Sequence,3_0_0_0_5_1,NA,NA,skipped,NA,3422941.3999999,NA,NA,3422940.489,3422941.5,2023-05-09T16:31:05Z,3422957.17,NULL,Aufstand,ugomaji,d,NA,NA,NA,NA,sdf,NA,0,NA,NA,NA,NA,NA,NA,NA,NA,NA,NA,NA,NA,NA,NA,NA,NA,NA,NA,NA
2f5ff,task,flow.Sequence,3_0_0_0_5,NA,NA,completion,9242.8680000002,3413683.3999999,3413681.427,3413697.621,3422940.489,3422941.5999999,2023-05-09T16:31:05Z,3422957.17,NULL,Aufstand,ugomaji,d,NA,NA,NA,NA,sdf,NA,0,NA,NA,NA,NA,NA,NA,NA,NA,NA,NA,NA,NA,NA,NA,NA,NA,NA,NA,NA
2f5ff,Deep Question,html.Page,3_0_0_0_6_0_0,NA,NA,form submission,4832.3300000001,3422941.5999999,3422940.489,3422957.17,3427789.5,3427789.6999998,2023-05-09T16:31:10Z,3427803.197,NULL,Beweis,ushahidi,d,NA,NA,NA,asdfm,NA,NA,0,NA,NA,NA,NA,NA,NA,NA,NA,NA,NA,NA,NA,NA,NA,NA,NA,NA,NA,NA
2f5ff,"""Richtig""-Screen",canvas.Screen,3_0_0_0_6_0_1,NA,NA,skipped,NA,3427791.6999998,NA,NA,3427789.5,3427791.8,2023-05-09T16:31:10Z,3427803.197,NULL,Beweis,ushahidi,d,NA,NA,NA,NA,sdf,NA,0,NA,NA,NA,NA,NA,NA,NA,NA,NA,NA,NA,NA,NA,NA,NA,NA,NA,NA,NA
2f5ff,"""Falsch""-Screen",canvas.Screen,3_0_0_0_6_0_2,NA,NA,timeout,4995.6749999998,3427792.3999999,3427786.503,3427803.197,3432782.306,3432782.8999999,2023-05-09T16:31:15Z,3432798.872,NULL,Beweis,ushahidi,d,NA,NA,NA,NA,sdf,0,0,NA,NA,NA,NA,NA,NA,NA,NA,NA,NA,NA,NA,NA,NA,NA,NA,NA,NA,NA
2f5ff,deep,flow.Sequence,3_0_0_0_6_0,NA,NA,completion,9825.1359999999,3422941.5999999,3422940.489,3422957.17,3432782.306,3432783.1999998,2023-05-09T16:31:15Z,3432798.872,NULL,Beweis,ushahidi,d,NA,NA,NA,NA,sdf,NA,0,NA,NA,NA,NA,NA,NA,NA,NA,NA,NA,NA,NA,NA,NA,NA,NA,NA,NA,NA
2f5ff,shallow,flow.Sequence,3_0_0_0_6_1,NA,NA,skipped,NA,3432783.3,NA,NA,3432782.306,3432783.3999999,2023-05-09T16:31:15Z,3432798.872,NULL,Beweis,ushahidi,d,NA,NA,NA,NA,sdf,NA,0,NA,NA,NA,NA,NA,NA,NA,NA,NA,NA,NA,NA,NA,NA,NA,NA,NA,NA,NA
2f5ff,task,flow.Sequence,3_0_0_0_6,NA,NA,completion,9825.1359999999,3422941.5999999,3422940.489,3422957.17,3432782.306,3432783.3999999,2023-05-09T16:31:15Z,3432798.872,NULL,Beweis,ushahidi,d,NA,NA,NA,NA,sdf,NA,0,NA,NA,NA,NA,NA,NA,NA,NA,NA,NA,NA,NA,NA,NA,NA,NA,NA,NA,NA
2f5ff,deep,flow.Sequence,3_0_0_0_7_0,NA,NA,skipped,NA,3432783.5,NA,NA,3432782.306,3432783.6999998,2023-05-09T16:31:15Z,3432798.872,NULL,Kultur,utamaduni,s,shetani,gerezani,mazingira,NA,sdf,NA,0,NA,NA,NA,NA,NA,NA,NA,NA,NA,NA,NA,NA,NA,NA,NA,NA,NA,NA,NA
2f5ff,Shallow Question,html.Page,3_0_0_0_7_1_0,NA,NA,form submission,6316.628,3432783.6999998,3432782.306,3432798.872,3439115.5,3439115.5999999,2023-05-09T16:31:21Z,3439126.969,NULL,Kultur,utamaduni,s,shetani,gerezani,mazingira,utamaduni,NA,NA,0,NA,NA,NA,NA,NA,NA,NA,NA,NA,NA,NA,NA,NA,NA,NA,NA,NA,NA,NA
2f5ff,"""Richtig""-Screen",canvas.Screen,3_0_0_0_7_1_1,NA,NA,timeout,4995.5750000002,3439117.3999999,3439110.544,3439126.969,3444106.451,3444107.3999999,2023-05-09T16:31:26Z,3444122.544,NULL,Kultur,utamaduni,s,shetani,gerezani,mazingira,NA,sdf,1,0,NA,NA,NA,NA,NA,NA,NA,NA,NA,NA,NA,NA,NA,NA,NA,NA,NA,NA,NA
2f5ff,"""Falsch""-Screen",canvas.Screen,3_0_0_0_7_1_2,NA,NA,skipped,NA,3444112.8999999,NA,NA,3444106.451,3444113.3,2023-05-09T16:31:26Z,3444122.544,NULL,Kultur,utamaduni,s,shetani,gerezani,mazingira,NA,sdf,NA,0,NA,NA,NA,NA,NA,NA,NA,NA,NA,NA,NA,NA,NA,NA,NA,NA,NA,NA,NA
2f5ff,shallow,flow.Sequence,3_0_0_0_7_1,NA,NA,completion,11307.579,3432783.6999998,3432782.306,3432798.872,3444106.451,3444113.5999999,2023-05-09T16:31:26Z,3444122.544,NULL,Kultur,utamaduni,s,shetani,gerezani,mazingira,NA,sdf,NA,0,NA,NA,NA,NA,NA,NA,NA,NA,NA,NA,NA,NA,NA,NA,NA,NA,NA,NA,NA
2f5ff,task,flow.Sequence,3_0_0_0_7,NA,NA,completion,11307.579,3432783.5,3432782.306,3432798.872,3444106.451,3444113.8999999,2023-05-09T16:31:26Z,3444122.544,NULL,Kultur,utamaduni,s,shetani,gerezani,mazingira,NA,sdf,NA,0,NA,NA,NA,NA,NA,NA,NA,NA,NA,NA,NA,NA,NA,NA,NA,NA,NA,NA,NA
2f5ff,block,flow.Loop,3_0_0_0,NA,NA,completion,86629.331,3357468.6999998,3357460.639,3357477.12,3444106.451,3444114.3,2023-05-09T16:31:26Z,3444122.544,NULL,NA,NA,NA,NA,NA,NA,NA,sdf,NA,0,NA,NA,NA,NA,NA,NA,NA,NA,NA,NA,NA,NA,NA,NA,NA,NA,NA,NA,NA
2f5ff,weiter,canvas.Screen,3_0_0_1,sdf,keypress(Space),response,3073.3559998567,3444114.3999999,3444106.451,3444122.544,3447195.8999999,3447196.5,2023-05-09T16:31:29Z,3447237.354,NULL,NA,NA,NA,NA,NA,NA,NA,sdf,NA,0,NA,NA,NA,NA,NA,NA,NA,NA,NA,NA,NA,NA,NA,NA,NA,NA,NA,NA,NA
2f5ff,check continue,flow.Sequence,3_0_0,NA,NA,completion,89718.779999857,3357468.6999998,3357460.639,3357477.12,3447195.8999999,3447196.6999998,2023-05-09T16:31:29Z,3447237.354,NULL,NA,NA,NA,NA,NA,NA,NA,sdf,NA,0,NA,NA,NA,NA,NA,NA,NA,NA,NA,NA,NA,NA,NA,NA,NA,NA,NA,NA,NA
2f5ff,Deep Question,html.Page,3_0_1_0_0_0_0,NA,NA,form submission,11409.745999905,3447223.8999999,3447219.885,3447237.354,3458647.0999999,3458647.3,2023-05-09T16:31:40Z,3458661.243,NULL,Aufstand,ugomaji,d,NA,NA,NA,ungahoi,NA,NA,1,NA,NA,NA,NA,NA,NA,NA,NA,NA,NA,NA,NA,NA,NA,NA,NA,NA,NA,NA
2f5ff,"""Richtig""-Screen",canvas.Screen,3_0_1_0_0_0_1,NA,NA,skipped,NA,3458649.0999999,NA,NA,3458647.0999999,3458649.3,2023-05-09T16:31:40Z,3458661.243,NULL,Aufstand,ugomaji,d,NA,NA,NA,NA,sdfdsf,NA,1,NA,NA,NA,NA,NA,NA,NA,NA,NA,NA,NA,NA,NA,NA,NA,NA,NA,NA,NA
2f5ff,"""Falsch""-Screen",canvas.Screen,3_0_1_0_0_0_2,NA,NA,timeout,4995.1810000003,3458649.8,3458643.915,3458661.243,3463639.761,3463640.3,2023-05-09T16:31:45Z,3463656.424,NULL,Aufstand,ugomaji,d,NA,NA,NA,NA,sdfdsf,0,1,NA,NA,NA,NA,NA,NA,NA,NA,NA,NA,NA,NA,NA,NA,NA,NA,NA,NA,NA
2f5ff,deep,flow.Sequence,3_0_1_0_0_0,NA,NA,completion,16402.407,3447223.8999999,3447219.885,3447237.354,3463639.761,3463640.5,2023-05-09T16:31:45Z,3463656.424,NULL,Aufstand,ugomaji,d,NA,NA,NA,NA,sdfdsf,NA,1,NA,NA,NA,NA,NA,NA,NA,NA,NA,NA,NA,NA,NA,NA,NA,NA,NA,NA,NA
2f5ff,shallow,flow.Sequence,3_0_1_0_0_1,NA,NA,skipped,NA,3463640.5999999,NA,NA,3463639.761,3463640.6999998,2023-05-09T16:31:45Z,3463656.424,NULL,Aufstand,ugomaji,d,NA,NA,NA,NA,sdfdsf,NA,1,NA,NA,NA,NA,NA,NA,NA,NA,NA,NA,NA,NA,NA,NA,NA,NA,NA,NA,NA
2f5ff,task,flow.Sequence,3_0_1_0_0,NA,NA,completion,16402.407,3447223.8999999,3447219.885,3447237.354,3463639.761,3463640.8999999,2023-05-09T16:31:45Z,3463656.424,NULL,Aufstand,ugomaji,d,NA,NA,NA,NA,sdfdsf,NA,1,NA,NA,NA,NA,NA,NA,NA,NA,NA,NA,NA,NA,NA,NA,NA,NA,NA,NA,NA
2f5ff,deep,flow.Sequence,3_0_1_0_1_0,NA,NA,skipped,NA,3463640.8999999,NA,NA,3463639.761,3463641.0999999,2023-05-09T16:31:45Z,3463656.424,NULL,Kultur,utamaduni,s,shetani,gerezani,mazingira,NA,sdfdsf,NA,1,NA,NA,NA,NA,NA,NA,NA,NA,NA,NA,NA,NA,NA,NA,NA,NA,NA,NA,NA
2f5ff,Shallow Question,html.Page,3_0_1_0_1_1_0,NA,NA,form submission,6794.3759999522,3463641.1999998,3463639.761,3463656.424,3470450.8,3470451,2023-05-09T16:31:52Z,3470481.567,NULL,Kultur,utamaduni,s,shetani,gerezani,mazingira,utamaduni,NA,NA,1,NA,NA,NA,NA,NA,NA,NA,NA,NA,NA,NA,NA,NA,NA,NA,NA,NA,NA,NA
2f5ff,"""Richtig""-Screen",canvas.Screen,3_0_1_0_1_1_1,NA,NA,timeout,4998.4610000001,3470452.8999999,3470434.156,3470481.567,3475463.377,3475463.8,2023-05-09T16:31:57Z,3475480.028,NULL,Kultur,utamaduni,s,shetani,gerezani,mazingira,NA,sdfdsf,1,1,NA,NA,NA,NA,NA,NA,NA,NA,NA,NA,NA,NA,NA,NA,NA,NA,NA,NA,NA
2f5ff,"""Falsch""-Screen",canvas.Screen,3_0_1_0_1_1_2,NA,NA,skipped,NA,3475466.3,NA,NA,3475463.377,3475466.5,2023-05-09T16:31:57Z,3475480.028,NULL,Kultur,utamaduni,s,shetani,gerezani,mazingira,NA,sdfdsf,NA,1,NA,NA,NA,NA,NA,NA,NA,NA,NA,NA,NA,NA,NA,NA,NA,NA,NA,NA,NA
2f5ff,shallow,flow.Sequence,3_0_1_0_1_1,NA,NA,completion,11806.953,3463641.1999998,3463639.761,3463656.424,3475463.377,3475466.5999999,2023-05-09T16:31:57Z,3475480.028,NULL,Kultur,utamaduni,s,shetani,gerezani,mazingira,NA,sdfdsf,NA,1,NA,NA,NA,NA,NA,NA,NA,NA,NA,NA,NA,NA,NA,NA,NA,NA,NA,NA,NA
2f5ff,task,flow.Sequence,3_0_1_0_1,NA,NA,completion,11806.953,3463640.8999999,3463639.761,3463656.424,3475463.377,3475466.6999998,2023-05-09T16:31:57Z,3475480.028,NULL,Kultur,utamaduni,s,shetani,gerezani,mazingira,NA,sdfdsf,NA,1,NA,NA,NA,NA,NA,NA,NA,NA,NA,NA,NA,NA,NA,NA,NA,NA,NA,NA,NA
2f5ff,Deep Question,html.Page,3_0_1_0_2_0_0,NA,NA,form submission,5389.2719999524,3475467,3475463.377,3475480.028,3480869.3,3480869.3999999,2023-05-09T16:32:03Z,3480875.591,NULL,Beweis,ushahidi,d,NA,NA,NA,asdf,NA,NA,1,NA,NA,NA,NA,NA,NA,NA,NA,NA,NA,NA,NA,NA,NA,NA,NA,NA,NA,NA
2f5ff,"""Richtig""-Screen",canvas.Screen,3_0_1_0_2_0_1,NA,NA,skipped,NA,3480871.1999998,NA,NA,3480869.3,3480871.3,2023-05-09T16:32:03Z,3480875.591,NULL,Beweis,ushahidi,d,NA,NA,NA,NA,sdfdsf,NA,1,NA,NA,NA,NA,NA,NA,NA,NA,NA,NA,NA,NA,NA,NA,NA,NA,NA,NA,NA
2f5ff,"""Falsch""-Screen",canvas.Screen,3_0_1_0_2_0_2,NA,NA,timeout,4996.3160000001,3480871.8999999,3480859.569,3480875.591,3485855.206,3485856.3,2023-05-09T16:32:08Z,3485871.907,NULL,Beweis,ushahidi,d,NA,NA,NA,NA,sdfdsf,0,1,NA,NA,NA,NA,NA,NA,NA,NA,NA,NA,NA,NA,NA,NA,NA,NA,NA,NA,NA
2f5ff,deep,flow.Sequence,3_0_1_0_2_0,NA,NA,completion,10375.178,3475466.8999999,3475463.377,3475480.028,3485855.206,3485856.8,2023-05-09T16:32:08Z,3485871.907,NULL,Beweis,ushahidi,d,NA,NA,NA,NA,sdfdsf,NA,1,NA,NA,NA,NA,NA,NA,NA,NA,NA,NA,NA,NA,NA,NA,NA,NA,NA,NA,NA
2f5ff,shallow,flow.Sequence,3_0_1_0_2_1,NA,NA,skipped,NA,3485857,NA,NA,3485855.206,3485857.0999999,2023-05-09T16:32:08Z,3485871.907,NULL,Beweis,ushahidi,d,NA,NA,NA,NA,sdfdsf,NA,1,NA,NA,NA,NA,NA,NA,NA,NA,NA,NA,NA,NA,NA,NA,NA,NA,NA,NA,NA
2f5ff,task,flow.Sequence,3_0_1_0_2,NA,NA,completion,10375.178,3475466.8,3475463.377,3475480.028,3485855.206,3485857.3,2023-05-09T16:32:08Z,3485871.907,NULL,Beweis,ushahidi,d,NA,NA,NA,NA,sdfdsf,NA,1,NA,NA,NA,NA,NA,NA,NA,NA,NA,NA,NA,NA,NA,NA,NA,NA,NA,NA,NA
2f5ff,deep,flow.Sequence,3_0_1_0_3_0,NA,NA,skipped,NA,3485857.5999999,NA,NA,3485855.206,3485857.6999998,2023-05-09T16:32:08Z,3485871.907,NULL,Verzögerung,kuchelewa,s,mwakilishi,mwanauchumi,jaribio,NA,sdfdsf,NA,1,NA,NA,NA,NA,NA,NA,NA,NA,NA,NA,NA,NA,NA,NA,NA,NA,NA,NA,NA
2f5ff,Shallow Question,html.Page,3_0_1_0_3_1_0,NA,NA,form submission,3836.2929998091,3485857.8999999,3485855.206,3485871.907,3489708.1999998,3489708.3999999,2023-05-09T16:32:12Z,3489718.713,NULL,Verzögerung,kuchelewa,s,mwakilishi,mwanauchumi,jaribio,kuchelewa,NA,NA,1,NA,NA,NA,NA,NA,NA,NA,NA,NA,NA,NA,NA,NA,NA,NA,NA,NA,NA,NA
2f5ff,"""Richtig""-Screen",canvas.Screen,3_0_1_0_3_1_1,NA,NA,timeout,4995.6439999999,3489710.3,3489702.132,3489718.713,3494697.791,3494699.5999999,2023-05-09T16:32:17Z,3494714.357,NULL,Verzögerung,kuchelewa,s,mwakilishi,mwanauchumi,jaribio,NA,sdfdsf,1,1,NA,NA,NA,NA,NA,NA,NA,NA,NA,NA,NA,NA,NA,NA,NA,NA,NA,NA,NA
2f5ff,"""Falsch""-Screen",canvas.Screen,3_0_1_0_3_1_2,NA,NA,skipped,NA,3494704.3999999,NA,NA,3494697.791,3494704.5999999,2023-05-09T16:32:17Z,3494714.357,NULL,Verzögerung,kuchelewa,s,mwakilishi,mwanauchumi,jaribio,NA,sdfdsf,NA,1,NA,NA,NA,NA,NA,NA,NA,NA,NA,NA,NA,NA,NA,NA,NA,NA,NA,NA,NA
2f5ff,shallow,flow.Sequence,3_0_1_0_3_1,NA,NA,completion,8825.8840000001,3485857.8999999,3485855.206,3485871.907,3494697.791,3494704.6999998,2023-05-09T16:32:17Z,3494714.357,NULL,Verzögerung,kuchelewa,s,mwakilishi,mwanauchumi,jaribio,NA,sdfdsf,NA,1,NA,NA,NA,NA,NA,NA,NA,NA,NA,NA,NA,NA,NA,NA,NA,NA,NA,NA,NA
2f5ff,task,flow.Sequence,3_0_1_0_3,NA,NA,completion,8825.8840000001,3485857.5,3485855.206,3485871.907,3494697.791,3494704.8999999,2023-05-09T16:32:17Z,3494714.357,NULL,Verzögerung,kuchelewa,s,mwakilishi,mwanauchumi,jaribio,NA,sdfdsf,NA,1,NA,NA,NA,NA,NA,NA,NA,NA,NA,NA,NA,NA,NA,NA,NA,NA,NA,NA,NA
2f5ff,deep,flow.Sequence,3_0_1_0_4_0,NA,NA,skipped,NA,3494705,NA,NA,3494697.791,3494705.0999999,2023-05-09T16:32:17Z,3494714.357,NULL,Annäherung,maegesho,s,madahili,kujiamini,mapendekezo,NA,sdfdsf,NA,1,NA,NA,NA,NA,NA,NA,NA,NA,NA,NA,NA,NA,NA,NA,NA,NA,NA,NA,NA
2f5ff,Shallow Question,html.Page,3_0_1_0_4_1_0,NA,NA,form submission,6683.7429999048,3494705.1999998,3494697.791,3494714.357,3501398.0999999,3501398.3,2023-05-09T16:32:23Z,3501409.177,NULL,Annäherung,maegesho,s,madahili,kujiamini,mapendekezo,maegesho,NA,NA,1,NA,NA,NA,NA,NA,NA,NA,NA,NA,NA,NA,NA,NA,NA,NA,NA,NA,NA,NA
2f5ff,"""Richtig""-Screen",canvas.Screen,3_0_1_0_4_1_1,NA,NA,timeout,4995.5469999998,3501400.0999999,3501392.644,3501409.177,3506388.099,3506389.0999999,2023-05-09T16:32:28Z,3506404.724,NULL,Annäherung,maegesho,s,madahili,kujiamini,mapendekezo,NA,sdfdsf,1,1,NA,NA,NA,NA,NA,NA,NA,NA,NA,NA,NA,NA,NA,NA,NA,NA,NA,NA,NA
2f5ff,"""Falsch""-Screen",canvas.Screen,3_0_1_0_4_1_2,NA,NA,skipped,NA,3506394.5,NA,NA,3506388.099,3506394.8,2023-05-09T16:32:28Z,3506404.724,NULL,Annäherung,maegesho,s,madahili,kujiamini,mapendekezo,NA,sdfdsf,NA,1,NA,NA,NA,NA,NA,NA,NA,NA,NA,NA,NA,NA,NA,NA,NA,NA,NA,NA,NA
2f5ff,shallow,flow.Sequence,3_0_1_0_4_1,NA,NA,completion,11673.742,3494705.1999998,3494697.791,3494714.357,3506388.099,3506395.3,2023-05-09T16:32:28Z,3506404.724,NULL,Annäherung,maegesho,s,madahili,kujiamini,mapendekezo,NA,sdfdsf,NA,1,NA,NA,NA,NA,NA,NA,NA,NA,NA,NA,NA,NA,NA,NA,NA,NA,NA,NA,NA
2f5ff,task,flow.Sequence,3_0_1_0_4,NA,NA,completion,11673.742,3494705,3494697.791,3494714.357,3506388.099,3506395.5999999,2023-05-09T16:32:28Z,3506404.724,NULL,Annäherung,maegesho,s,madahili,kujiamini,mapendekezo,NA,sdfdsf,NA,1,NA,NA,NA,NA,NA,NA,NA,NA,NA,NA,NA,NA,NA,NA,NA,NA,NA,NA,NA
2f5ff,deep,flow.Sequence,3_0_1_0_5_0,NA,NA,skipped,NA,3506395.8,NA,NA,3506388.099,3506395.8999999,2023-05-09T16:32:28Z,3506404.724,NULL,Sympathie,mapendano,s,dhamiria,fungamano,maazimio,NA,sdfdsf,NA,1,NA,NA,NA,NA,NA,NA,NA,NA,NA,NA,NA,NA,NA,NA,NA,NA,NA,NA,NA
2f5ff,Shallow Question,html.Page,3_0_1_0_5_1_0,NA,NA,form submission,8002.5759999524,3506396.0999999,3506388.099,3506404.724,3514407.3,3514407.3999999,2023-05-09T16:32:36Z,3514414.911,NULL,Sympathie,mapendano,s,dhamiria,fungamano,maazimio,mapendano,NA,NA,1,NA,NA,NA,NA,NA,NA,NA,NA,NA,NA,NA,NA,NA,NA,NA,NA,NA,NA,NA
2f5ff,"""Richtig""-Screen",canvas.Screen,3_0_1_0_5_1_1,NA,NA,timeout,4996.0980000002,3514409.3,3514398.33,3514414.911,3519394.028,3519395.0999999,2023-05-09T16:32:41Z,3519411.009,NULL,Sympathie,mapendano,s,dhamiria,fungamano,maazimio,NA,sdfdsf,1,1,NA,NA,NA,NA,NA,NA,NA,NA,NA,NA,NA,NA,NA,NA,NA,NA,NA,NA,NA
2f5ff,"""Falsch""-Screen",canvas.Screen,3_0_1_0_5_1_2,NA,NA,skipped,NA,3519399.5999999,NA,NA,3519394.028,3519399.6999998,2023-05-09T16:32:41Z,3519411.009,NULL,Sympathie,mapendano,s,dhamiria,fungamano,maazimio,NA,sdfdsf,NA,1,NA,NA,NA,NA,NA,NA,NA,NA,NA,NA,NA,NA,NA,NA,NA,NA,NA,NA,NA
2f5ff,shallow,flow.Sequence,3_0_1_0_5_1,NA,NA,completion,12989.304,3506396.0999999,3506388.099,3506404.724,3519394.028,3519399.8,2023-05-09T16:32:41Z,3519411.009,NULL,Sympathie,mapendano,s,dhamiria,fungamano,maazimio,NA,sdfdsf,NA,1,NA,NA,NA,NA,NA,NA,NA,NA,NA,NA,NA,NA,NA,NA,NA,NA,NA,NA,NA
2f5ff,task,flow.Sequence,3_0_1_0_5,NA,NA,completion,12989.304,3506395.6999998,3506388.099,3506404.724,3519394.028,3519400,2023-05-09T16:32:41Z,3519411.009,NULL,Sympathie,mapendano,s,dhamiria,fungamano,maazimio,NA,sdfdsf,NA,1,NA,NA,NA,NA,NA,NA,NA,NA,NA,NA,NA,NA,NA,NA,NA,NA,NA,NA,NA
2f5ff,Deep Question,html.Page,3_0_1_0_6_0_0,NA,NA,form submission,8234.5909999046,3519400,3519394.028,3519411.009,3527645.5999999,3527645.8,2023-05-09T16:32:49Z,3527653.815,NULL,Prüfung,mtihani,d,NA,NA,NA,knasd,NA,NA,1,NA,NA,NA,NA,NA,NA,NA,NA,NA,NA,NA,NA,NA,NA,NA,NA,NA,NA,NA
2f5ff,"""Richtig""-Screen",canvas.Screen,3_0_1_0_6_0_1,NA,NA,skipped,NA,3527648.5999999,NA,NA,3527645.5999999,3527648.6999998,2023-05-09T16:32:49Z,3527653.815,NULL,Prüfung,mtihani,d,NA,NA,NA,NA,sdfdsf,NA,1,NA,NA,NA,NA,NA,NA,NA,NA,NA,NA,NA,NA,NA,NA,NA,NA,NA,NA,NA
2f5ff,"""Falsch""-Screen",canvas.Screen,3_0_1_0_6_0_2,NA,NA,timeout,4996.4900000002,3527649.6999998,3527637.938,3527653.815,3532633.156,3532633.8,2023-05-09T16:32:54Z,3532650.305,NULL,Prüfung,mtihani,d,NA,NA,NA,NA,sdfdsf,0,1,NA,NA,NA,NA,NA,NA,NA,NA,NA,NA,NA,NA,NA,NA,NA,NA,NA,NA,NA
2f5ff,deep,flow.Sequence,3_0_1_0_6_0,NA,NA,completion,13222.147,3519400,3519394.028,3519411.009,3532633.156,3532634.1999998,2023-05-09T16:32:54Z,3532650.305,NULL,Prüfung,mtihani,d,NA,NA,NA,NA,sdfdsf,NA,1,NA,NA,NA,NA,NA,NA,NA,NA,NA,NA,NA,NA,NA,NA,NA,NA,NA,NA,NA
2f5ff,shallow,flow.Sequence,3_0_1_0_6_1,NA,NA,skipped,NA,3532634.3,NA,NA,3532633.156,3532634.3999999,2023-05-09T16:32:54Z,3532650.305,NULL,Prüfung,mtihani,d,NA,NA,NA,NA,sdfdsf,NA,1,NA,NA,NA,NA,NA,NA,NA,NA,NA,NA,NA,NA,NA,NA,NA,NA,NA,NA,NA
2f5ff,task,flow.Sequence,3_0_1_0_6,NA,NA,completion,13222.147,3519400,3519394.028,3519411.009,3532633.156,3532634.6999998,2023-05-09T16:32:54Z,3532650.305,NULL,Prüfung,mtihani,d,NA,NA,NA,NA,sdfdsf,NA,1,NA,NA,NA,NA,NA,NA,NA,NA,NA,NA,NA,NA,NA,NA,NA,NA,NA,NA,NA
2f5ff,Deep Question,html.Page,3_0_1_0_7_0_0,NA,NA,form submission,5232.8949998091,3532635,3532633.156,3532650.305,3537883.1999998,3537883.3999999,2023-05-09T16:33:00Z,3537895.808,NULL,Polizist,msongora,d,NA,NA,NA,msongora,NA,NA,1,NA,NA,NA,NA,NA,NA,NA,NA,NA,NA,NA,NA,NA,NA,NA,NA,NA,NA,NA
2f5ff,"""Richtig""-Screen",canvas.Screen,3_0_1_0_7_0_1,NA,NA,timeout,4995.9049999998,3537885.5,3537879.335,3537895.808,3542875.22,3542876.0999999,2023-05-09T16:33:05Z,3542891.713,NULL,Polizist,msongora,d,NA,NA,NA,NA,sdfdsf,1,1,NA,NA,NA,NA,NA,NA,NA,NA,NA,NA,NA,NA,NA,NA,NA,NA,NA,NA,NA
2f5ff,"""Falsch""-Screen",canvas.Screen,3_0_1_0_7_0_2,NA,NA,skipped,NA,3542881.5,NA,NA,3542875.22,3542881.5999999,2023-05-09T16:33:05Z,3542891.713,NULL,Polizist,msongora,d,NA,NA,NA,NA,sdfdsf,NA,1,NA,NA,NA,NA,NA,NA,NA,NA,NA,NA,NA,NA,NA,NA,NA,NA,NA,NA,NA
2f5ff,deep,flow.Sequence,3_0_1_0_7_0,NA,NA,completion,10224.915,3532634.8,3532633.156,3532650.305,3542875.22,3542881.6999998,2023-05-09T16:33:05Z,3542891.713,NULL,Polizist,msongora,d,NA,NA,NA,NA,sdfdsf,NA,1,NA,NA,NA,NA,NA,NA,NA,NA,NA,NA,NA,NA,NA,NA,NA,NA,NA,NA,NA
2f5ff,shallow,flow.Sequence,3_0_1_0_7_1,NA,NA,skipped,NA,3542881.8,NA,NA,3542875.22,3542881.8999999,2023-05-09T16:33:05Z,3542891.713,NULL,Polizist,msongora,d,NA,NA,NA,NA,sdfdsf,NA,1,NA,NA,NA,NA,NA,NA,NA,NA,NA,NA,NA,NA,NA,NA,NA,NA,NA,NA,NA
2f5ff,task,flow.Sequence,3_0_1_0_7,NA,NA,completion,10224.915,3532634.8,3532633.156,3532650.305,3542875.22,3542881.8999999,2023-05-09T16:33:05Z,3542891.713,NULL,Polizist,msongora,d,NA,NA,NA,NA,sdfdsf,NA,1,NA,NA,NA,NA,NA,NA,NA,NA,NA,NA,NA,NA,NA,NA,NA,NA,NA,NA,NA
2f5ff,block,flow.Loop,3_0_1_0,NA,NA,completion,95637.866,3447223.8999999,3447219.885,3447237.354,3542875.22,3542882,2023-05-09T16:33:05Z,3542891.713,NULL,NA,NA,NA,NA,NA,NA,NA,sdfdsf,NA,1,NA,NA,NA,NA,NA,NA,NA,NA,NA,NA,NA,NA,NA,NA,NA,NA,NA,NA,NA
2f5ff,weiter,canvas.Screen,3_0_1_1,sdf,keypress(Space),response,2345.686999857,3542882,3542875.22,3542891.713,3545237.3999999,3545238.5,2023-05-09T16:33:07Z,3545289.66,NULL,NA,NA,NA,NA,NA,NA,NA,sdfdsf,NA,1,NA,NA,NA,NA,NA,NA,NA,NA,NA,NA,NA,NA,NA,NA,NA,NA,NA,NA,NA
2f5ff,check continue,flow.Sequence,3_0_1,NA,NA,completion,98000.045999857,3447223.8999999,3447219.885,3447237.354,3545237.3999999,3545238.8,2023-05-09T16:33:07Z,3545289.66,NULL,NA,NA,NA,NA,NA,NA,NA,sdfdsf,NA,1,NA,NA,NA,NA,NA,NA,NA,NA,NA,NA,NA,NA,NA,NA,NA,NA,NA,NA,NA
2f5ff,deep,flow.Sequence,3_0_2_0_0_0,NA,NA,skipped,NA,3545272.0999999,NA,NA,3545237.3999999,3545272.1999998,2023-05-09T16:33:07Z,3545289.66,NULL,Sympathie,mapendano,s,dhamiria,fungamano,maazimio,NA,sdf,NA,2,NA,NA,NA,NA,NA,NA,NA,NA,NA,NA,NA,NA,NA,NA,NA,NA,NA,NA,NA
2f5ff,Shallow Question,html.Page,3_0_2_0_0_1_0,NA,NA,form submission,3895.5399998091,3545272.8,3545272.52,3545289.66,3549185.1999998,3549185.3999999,2023-05-09T16:33:11Z,3549186.142,NULL,Sympathie,mapendano,s,dhamiria,fungamano,maazimio,mapendano,NA,NA,2,NA,NA,NA,NA,NA,NA,NA,NA,NA,NA,NA,NA,NA,NA,NA,NA,NA,NA,NA
2f5ff,"""Richtig""-Screen",canvas.Screen,3_0_2_0_0_1_1,NA,NA,timeout,4995.929,3549187.3,3549170.038,3549186.142,3554165.787,3554166.3999999,2023-05-09T16:33:16Z,3554182.071,NULL,Sympathie,mapendano,s,dhamiria,fungamano,maazimio,NA,sdf,1,2,NA,NA,NA,NA,NA,NA,NA,NA,NA,NA,NA,NA,NA,NA,NA,NA,NA,NA,NA
2f5ff,"""Falsch""-Screen",canvas.Screen,3_0_2_0_0_1_2,NA,NA,skipped,NA,3554169.3999999,NA,NA,3554165.787,3554169.5,2023-05-09T16:33:16Z,3554182.071,NULL,Sympathie,mapendano,s,dhamiria,fungamano,maazimio,NA,sdf,NA,2,NA,NA,NA,NA,NA,NA,NA,NA,NA,NA,NA,NA,NA,NA,NA,NA,NA,NA,NA
2f5ff,shallow,flow.Sequence,3_0_2_0_0_1,NA,NA,completion,8876.1269999999,3545272.6999998,3545272.52,3545289.66,3554165.787,3554169.6999998,2023-05-09T16:33:16Z,3554182.071,NULL,Sympathie,mapendano,s,dhamiria,fungamano,maazimio,NA,sdf,NA,2,NA,NA,NA,NA,NA,NA,NA,NA,NA,NA,NA,NA,NA,NA,NA,NA,NA,NA,NA
2f5ff,task,flow.Sequence,3_0_2_0_0,NA,NA,completion,8876.1269999999,3545272.0999999,3545272.52,3545289.66,3554165.787,3554169.8999999,2023-05-09T16:33:16Z,3554182.071,NULL,Sympathie,mapendano,s,dhamiria,fungamano,maazimio,NA,sdf,NA,2,NA,NA,NA,NA,NA,NA,NA,NA,NA,NA,NA,NA,NA,NA,NA,NA,NA,NA,NA
2f5ff,Deep Question,html.Page,3_0_2_0_1_0_0,NA,NA,form submission,3702.929,3554169.8999999,3554165.787,3554182.071,3557885,3557885.1999998,2023-05-09T16:33:20Z,3557895.722,NULL,Polizist,msongora,d,NA,NA,NA,msongora,NA,NA,2,NA,NA,NA,NA,NA,NA,NA,NA,NA,NA,NA,NA,NA,NA,NA,NA,NA,NA,NA
2f5ff,"""Richtig""-Screen",canvas.Screen,3_0_2_0_1_0_1,NA,NA,timeout,4996.574,3557885.6999998,3557879.579,3557895.722,3562875.282,3562876.1999998,2023-05-09T16:33:25Z,3562892.296,NULL,Polizist,msongora,d,NA,NA,NA,NA,sdf,1,2,NA,NA,NA,NA,NA,NA,NA,NA,NA,NA,NA,NA,NA,NA,NA,NA,NA,NA,NA
2f5ff,"""Falsch""-Screen",canvas.Screen,3_0_2_0_1_0_2,NA,NA,skipped,NA,3562881.1999998,NA,NA,3562875.282,3562881.3,2023-05-09T16:33:25Z,3562892.296,NULL,Polizist,msongora,d,NA,NA,NA,NA,sdf,NA,2,NA,NA,NA,NA,NA,NA,NA,NA,NA,NA,NA,NA,NA,NA,NA,NA,NA,NA,NA
2f5ff,deep,flow.Sequence,3_0_2_0_1_0,NA,NA,completion,8693.2110000001,3554169.8999999,3554165.787,3554182.071,3562875.282,3562881.5,2023-05-09T16:33:25Z,3562892.296,NULL,Polizist,msongora,d,NA,NA,NA,NA,sdf,NA,2,NA,NA,NA,NA,NA,NA,NA,NA,NA,NA,NA,NA,NA,NA,NA,NA,NA,NA,NA
2f5ff,shallow,flow.Sequence,3_0_2_0_1_1,NA,NA,skipped,NA,3562881.5,NA,NA,3562875.282,3562881.5,2023-05-09T16:33:25Z,3562892.296,NULL,Polizist,msongora,d,NA,NA,NA,NA,sdf,NA,2,NA,NA,NA,NA,NA,NA,NA,NA,NA,NA,NA,NA,NA,NA,NA,NA,NA,NA,NA
2f5ff,task,flow.Sequence,3_0_2_0_1,NA,NA,completion,8693.2110000001,3554169.8999999,3554165.787,3554182.071,3562875.282,3562881.5999999,2023-05-09T16:33:25Z,3562892.296,NULL,Polizist,msongora,d,NA,NA,NA,NA,sdf,NA,2,NA,NA,NA,NA,NA,NA,NA,NA,NA,NA,NA,NA,NA,NA,NA,NA,NA,NA,NA
2f5ff,deep,flow.Sequence,3_0_2_0_2_0,NA,NA,skipped,NA,3562881.5999999,NA,NA,3562875.282,3562881.5999999,2023-05-09T16:33:25Z,3562892.296,NULL,Annäherung,maegesho,s,madahili,kujiamini,mapendekezo,NA,sdf,NA,2,NA,NA,NA,NA,NA,NA,NA,NA,NA,NA,NA,NA,NA,NA,NA,NA,NA,NA,NA
2f5ff,Shallow Question,html.Page,3_0_2_0_2_1_0,NA,NA,form submission,5483.5039999522,3562881.6999998,3562875.282,3562892.296,3568375.8,3568375.8999999,2023-05-09T16:33:30Z,3568387.182,NULL,Annäherung,maegesho,s,madahili,kujiamini,mapendekezo,maegesho,NA,NA,2,NA,NA,NA,NA,NA,NA,NA,NA,NA,NA,NA,NA,NA,NA,NA,NA,NA,NA,NA
2f5ff,"""Richtig""-Screen",canvas.Screen,3_0_2_0_2_1_1,NA,NA,timeout,4996.3390000002,3568377.5999999,3568370.923,3568387.182,3573366.843,3573367.3999999,2023-05-09T16:33:35Z,3573383.521,NULL,Annäherung,maegesho,s,madahili,kujiamini,mapendekezo,NA,sdf,1,2,NA,NA,NA,NA,NA,NA,NA,NA,NA,NA,NA,NA,NA,NA,NA,NA,NA,NA,NA
2f5ff,"""Falsch""-Screen",canvas.Screen,3_0_2_0_2_1_2,NA,NA,skipped,NA,3573370.0999999,NA,NA,3573366.843,3573370.3,2023-05-09T16:33:35Z,3573383.521,NULL,Annäherung,maegesho,s,madahili,kujiamini,mapendekezo,NA,sdf,NA,2,NA,NA,NA,NA,NA,NA,NA,NA,NA,NA,NA,NA,NA,NA,NA,NA,NA,NA,NA
2f5ff,shallow,flow.Sequence,3_0_2_0_2_1,NA,NA,completion,10474.547,3562881.5999999,3562875.282,3562892.296,3573366.843,3573370.3999999,2023-05-09T16:33:35Z,3573383.521,NULL,Annäherung,maegesho,s,madahili,kujiamini,mapendekezo,NA,sdf,NA,2,NA,NA,NA,NA,NA,NA,NA,NA,NA,NA,NA,NA,NA,NA,NA,NA,NA,NA,NA
2f5ff,task,flow.Sequence,3_0_2_0_2,NA,NA,completion,10474.547,3562881.5999999,3562875.282,3562892.296,3573366.843,3573370.5999999,2023-05-09T16:33:35Z,3573383.521,NULL,Annäherung,maegesho,s,madahili,kujiamini,mapendekezo,NA,sdf,NA,2,NA,NA,NA,NA,NA,NA,NA,NA,NA,NA,NA,NA,NA,NA,NA,NA,NA,NA,NA
2f5ff,Deep Question,html.Page,3_0_2_0_3_0_0,NA,NA,form submission,16154.278999952,3573370.6999998,3573366.843,3573383.521,3589537.8,3589538.0999999,2023-05-09T16:33:51Z,3589553.123,NULL,Aufstand,ugomaji,d,NA,NA,NA,ugatoshi,NA,NA,2,NA,NA,NA,NA,NA,NA,NA,NA,NA,NA,NA,NA,NA,NA,NA,NA,NA,NA,NA
2f5ff,"""Richtig""-Screen",canvas.Screen,3_0_2_0_3_0_1,NA,NA,skipped,NA,3589540.6999998,NA,NA,3589537.8,3589540.8999999,2023-05-09T16:33:51Z,3589553.123,NULL,Aufstand,ugomaji,d,NA,NA,NA,NA,sdf,NA,2,NA,NA,NA,NA,NA,NA,NA,NA,NA,NA,NA,NA,NA,NA,NA,NA,NA,NA,NA
2f5ff,"""Falsch""-Screen",canvas.Screen,3_0_2_0_3_0_2,NA,NA,timeout,4996.4389999998,3589541.6999998,3589536.882,3589553.123,3594532.551,3594533.5999999,2023-05-09T16:33:56Z,3594549.562,NULL,Aufstand,ugomaji,d,NA,NA,NA,NA,sdf,0,2,NA,NA,NA,NA,NA,NA,NA,NA,NA,NA,NA,NA,NA,NA,NA,NA,NA,NA,NA
2f5ff,deep,flow.Sequence,3_0_2_0_3_0,NA,NA,completion,21149.03,3573370.5999999,3573366.843,3573383.521,3594532.551,3594534,2023-05-09T16:33:56Z,3594549.562,NULL,Aufstand,ugomaji,d,NA,NA,NA,NA,sdf,NA,2,NA,NA,NA,NA,NA,NA,NA,NA,NA,NA,NA,NA,NA,NA,NA,NA,NA,NA,NA
2f5ff,shallow,flow.Sequence,3_0_2_0_3_1,NA,NA,skipped,NA,3594534.0999999,NA,NA,3594532.551,3594534.3,2023-05-09T16:33:56Z,3594549.562,NULL,Aufstand,ugomaji,d,NA,NA,NA,NA,sdf,NA,2,NA,NA,NA,NA,NA,NA,NA,NA,NA,NA,NA,NA,NA,NA,NA,NA,NA,NA,NA
2f5ff,task,flow.Sequence,3_0_2_0_3,NA,NA,completion,21149.03,3573370.5999999,3573366.843,3573383.521,3594532.551,3594534.5,2023-05-09T16:33:56Z,3594549.562,NULL,Aufstand,ugomaji,d,NA,NA,NA,NA,sdf,NA,2,NA,NA,NA,NA,NA,NA,NA,NA,NA,NA,NA,NA,NA,NA,NA,NA,NA,NA,NA
2f5ff,deep,flow.Sequence,3_0_2_0_4_0,NA,NA,skipped,NA,3594534.6999998,NA,NA,3594532.551,3594534.8,2023-05-09T16:33:56Z,3594549.562,NULL,Kultur,utamaduni,s,shetani,gerezani,mazingira,NA,sdf,NA,2,NA,NA,NA,NA,NA,NA,NA,NA,NA,NA,NA,NA,NA,NA,NA,NA,NA,NA,NA
2f5ff,Shallow Question,html.Page,3_0_2_0_4_1_0,NA,NA,form submission,5167.6379998093,3594535,3594532.551,3594549.562,3599717.1999998,3599717.3,2023-05-09T16:34:02Z,3599727.968,NULL,Kultur,utamaduni,s,shetani,gerezani,mazingira,utamaduni,NA,NA,2,NA,NA,NA,NA,NA,NA,NA,NA,NA,NA,NA,NA,NA,NA,NA,NA,NA,NA,NA
2f5ff,"""Richtig""-Screen",canvas.Screen,3_0_2_0_4_1_1,NA,NA,timeout,4996.531,3599719.1999998,3599711.841,3599727.968,3604707.758,3604708.6999998,2023-05-09T16:34:07Z,3604724.499,NULL,Kultur,utamaduni,s,shetani,gerezani,mazingira,NA,sdf,1,2,NA,NA,NA,NA,NA,NA,NA,NA,NA,NA,NA,NA,NA,NA,NA,NA,NA,NA,NA
2f5ff,"""Falsch""-Screen",canvas.Screen,3_0_2_0_4_1_2,NA,NA,skipped,NA,3604713.3999999,NA,NA,3604707.758,3604713.5,2023-05-09T16:34:07Z,3604724.499,NULL,Kultur,utamaduni,s,shetani,gerezani,mazingira,NA,sdf,NA,2,NA,NA,NA,NA,NA,NA,NA,NA,NA,NA,NA,NA,NA,NA,NA,NA,NA,NA,NA
2f5ff,shallow,flow.Sequence,3_0_2_0_4_1,NA,NA,completion,10158.196,3594534.8999999,3594532.551,3594549.562,3604707.758,3604713.5999999,2023-05-09T16:34:07Z,3604724.499,NULL,Kultur,utamaduni,s,shetani,gerezani,mazingira,NA,sdf,NA,2,NA,NA,NA,NA,NA,NA,NA,NA,NA,NA,NA,NA,NA,NA,NA,NA,NA,NA,NA
2f5ff,task,flow.Sequence,3_0_2_0_4,NA,NA,completion,10158.196,3594534.6999998,3594532.551,3594549.562,3604707.758,3604713.6999998,2023-05-09T16:34:07Z,3604724.499,NULL,Kultur,utamaduni,s,shetani,gerezani,mazingira,NA,sdf,NA,2,NA,NA,NA,NA,NA,NA,NA,NA,NA,NA,NA,NA,NA,NA,NA,NA,NA,NA,NA
2f5ff,Deep Question,html.Page,3_0_2_0_5_0_0,NA,NA,form submission,7392.8009999525,3604713.8,3604707.758,3604724.499,3612117.3,3612117.5,2023-05-09T16:34:14Z,3612117.748,NULL,Beweis,ushahidi,d,NA,NA,NA,asdj,NA,NA,2,NA,NA,NA,NA,NA,NA,NA,NA,NA,NA,NA,NA,NA,NA,NA,NA,NA,NA,NA
2f5ff,"""Richtig""-Screen",canvas.Screen,3_0_2_0_5_0_1,NA,NA,skipped,NA,3612120.3999999,NA,NA,3612117.3,3612120.5999999,2023-05-09T16:34:14Z,3612117.748,NULL,Beweis,ushahidi,d,NA,NA,NA,NA,sdf,NA,2,NA,NA,NA,NA,NA,NA,NA,NA,NA,NA,NA,NA,NA,NA,NA,NA,NA,NA,NA
2f5ff,"""Falsch""-Screen",canvas.Screen,3_0_2_0_5_0_2,NA,NA,timeout,4996.6179999998,3612121.5,3612101.088,3612117.748,3617097.592,3617098.6999998,2023-05-09T16:34:19Z,3617114.366,NULL,Beweis,ushahidi,d,NA,NA,NA,NA,sdf,0,2,NA,NA,NA,NA,NA,NA,NA,NA,NA,NA,NA,NA,NA,NA,NA,NA,NA,NA,NA
2f5ff,deep,flow.Sequence,3_0_2_0_5_0,NA,NA,completion,12373.093,3604713.8,3604707.758,3604724.499,3617097.592,3617099.1999998,2023-05-09T16:34:19Z,3617114.366,NULL,Beweis,ushahidi,d,NA,NA,NA,NA,sdf,NA,2,NA,NA,NA,NA,NA,NA,NA,NA,NA,NA,NA,NA,NA,NA,NA,NA,NA,NA,NA
2f5ff,shallow,flow.Sequence,3_0_2_0_5_1,NA,NA,skipped,NA,3617099.3,NA,NA,3617097.592,3617099.3999999,2023-05-09T16:34:19Z,3617114.366,NULL,Beweis,ushahidi,d,NA,NA,NA,NA,sdf,NA,2,NA,NA,NA,NA,NA,NA,NA,NA,NA,NA,NA,NA,NA,NA,NA,NA,NA,NA,NA
2f5ff,task,flow.Sequence,3_0_2_0_5,NA,NA,completion,12373.093,3604713.6999998,3604707.758,3604724.499,3617097.592,3617099.6999998,2023-05-09T16:34:19Z,3617114.366,NULL,Beweis,ushahidi,d,NA,NA,NA,NA,sdf,NA,2,NA,NA,NA,NA,NA,NA,NA,NA,NA,NA,NA,NA,NA,NA,NA,NA,NA,NA,NA
2f5ff,Deep Question,html.Page,3_0_2_0_6_0_0,NA,NA,form submission,7773.8339998093,3617099.8999999,3617097.592,3617114.366,3624888.1999998,3624888.5,2023-05-09T16:34:27Z,3624890.555,NULL,Prüfung,mtihani,d,NA,NA,NA,osf,NA,NA,2,NA,NA,NA,NA,NA,NA,NA,NA,NA,NA,NA,NA,NA,NA,NA,NA,NA,NA,NA
2f5ff,"""Richtig""-Screen",canvas.Screen,3_0_2_0_6_0_1,NA,NA,skipped,NA,3624890.3999999,NA,NA,3624888.1999998,3624890.5,2023-05-09T16:34:27Z,3624890.555,NULL,Prüfung,mtihani,d,NA,NA,NA,NA,sdf,NA,2,NA,NA,NA,NA,NA,NA,NA,NA,NA,NA,NA,NA,NA,NA,NA,NA,NA,NA,NA
2f5ff,"""Falsch""-Screen",canvas.Screen,3_0_2_0_6_0_2,NA,NA,timeout,4996.5239999997,3624891.3,3624874.522,3624890.555,3629870.136,3629871.1999998,2023-05-09T16:34:32Z,3629887.079,NULL,Prüfung,mtihani,d,NA,NA,NA,NA,sdf,0,2,NA,NA,NA,NA,NA,NA,NA,NA,NA,NA,NA,NA,NA,NA,NA,NA,NA,NA,NA
2f5ff,deep,flow.Sequence,3_0_2_0_6_0,NA,NA,completion,12755.77,3617099.8999999,3617097.592,3617114.366,3629870.136,3629871.5999999,2023-05-09T16:34:32Z,3629887.079,NULL,Prüfung,mtihani,d,NA,NA,NA,NA,sdf,NA,2,NA,NA,NA,NA,NA,NA,NA,NA,NA,NA,NA,NA,NA,NA,NA,NA,NA,NA,NA
2f5ff,shallow,flow.Sequence,3_0_2_0_6_1,NA,NA,skipped,NA,3629871.8,NA,NA,3629870.136,3629871.8999999,2023-05-09T16:34:32Z,3629887.079,NULL,Prüfung,mtihani,d,NA,NA,NA,NA,sdf,NA,2,NA,NA,NA,NA,NA,NA,NA,NA,NA,NA,NA,NA,NA,NA,NA,NA,NA,NA,NA
2f5ff,task,flow.Sequence,3_0_2_0_6,NA,NA,completion,12755.77,3617099.8,3617097.592,3617114.366,3629870.136,3629872.1999998,2023-05-09T16:34:32Z,3629887.079,NULL,Prüfung,mtihani,d,NA,NA,NA,NA,sdf,NA,2,NA,NA,NA,NA,NA,NA,NA,NA,NA,NA,NA,NA,NA,NA,NA,NA,NA,NA,NA
2f5ff,deep,flow.Sequence,3_0_2_0_7_0,NA,NA,skipped,NA,3629872.3999999,NA,NA,3629870.136,3629872.5999999,2023-05-09T16:34:32Z,3629887.079,NULL,Verzögerung,kuchelewa,s,mwakilishi,mwanauchumi,jaribio,NA,sdf,NA,2,NA,NA,NA,NA,NA,NA,NA,NA,NA,NA,NA,NA,NA,NA,NA,NA,NA,NA,NA
2f5ff,Shallow Question,html.Page,3_0_2_0_7_1_0,NA,NA,form submission,3848.4210000001,3629872.6999998,3629870.136,3629887.079,3633735.5,3633735.6999998,2023-05-09T16:34:36Z,3633750.327,NULL,Verzögerung,kuchelewa,s,mwakilishi,mwanauchumi,jaribio,kuchelewa,NA,NA,2,NA,NA,NA,NA,NA,NA,NA,NA,NA,NA,NA,NA,NA,NA,NA,NA,NA,NA,NA
2f5ff,"""Richtig""-Screen",canvas.Screen,3_0_2_0_7_1_1,NA,NA,timeout,4995.5830000001,3633737.5,3633733.357,3633750.327,3638729.786,3638730.8999999,2023-05-09T16:34:41Z,3638745.91,NULL,Verzögerung,kuchelewa,s,mwakilishi,mwanauchumi,jaribio,NA,sdf,1,2,NA,NA,NA,NA,NA,NA,NA,NA,NA,NA,NA,NA,NA,NA,NA,NA,NA,NA,NA
2f5ff,"""Falsch""-Screen",canvas.Screen,3_0_2_0_7_1_2,NA,NA,skipped,NA,3638736.6999998,NA,NA,3638729.786,3638737,2023-05-09T16:34:41Z,3638745.91,NULL,Verzögerung,kuchelewa,s,mwakilishi,mwanauchumi,jaribio,NA,sdf,NA,2,NA,NA,NA,NA,NA,NA,NA,NA,NA,NA,NA,NA,NA,NA,NA,NA,NA,NA,NA
2f5ff,shallow,flow.Sequence,3_0_2_0_7_1,NA,NA,completion,8842.7069999999,3629872.5999999,3629870.136,3629887.079,3638729.786,3638737.5,2023-05-09T16:34:41Z,3638745.91,NULL,Verzögerung,kuchelewa,s,mwakilishi,mwanauchumi,jaribio,NA,sdf,NA,2,NA,NA,NA,NA,NA,NA,NA,NA,NA,NA,NA,NA,NA,NA,NA,NA,NA,NA,NA
2f5ff,task,flow.Sequence,3_0_2_0_7,NA,NA,completion,8842.7069999999,3629872.3,3629870.136,3629887.079,3638729.786,3638737.6999998,2023-05-09T16:34:41Z,3638745.91,NULL,Verzögerung,kuchelewa,s,mwakilishi,mwanauchumi,jaribio,NA,sdf,NA,2,NA,NA,NA,NA,NA,NA,NA,NA,NA,NA,NA,NA,NA,NA,NA,NA,NA,NA,NA
2f5ff,block,flow.Loop,3_0_2_0,NA,NA,completion,93440.126,3545272.0999999,3545272.52,3545289.66,3638729.786,3638738,2023-05-09T16:34:41Z,3638745.91,NULL,NA,NA,NA,NA,NA,NA,NA,sdf,NA,2,NA,NA,NA,NA,NA,NA,NA,NA,NA,NA,NA,NA,NA,NA,NA,NA,NA,NA,NA
2f5ff,weiter,canvas.Screen,3_0_2_1,sdf,keypress(Space),response,1493.3899999522,3638738.1999998,3638729.786,3638745.91,3640239.3,3640240.3999999,2023-05-09T16:34:42Z,3640294.582,NULL,NA,NA,NA,NA,NA,NA,NA,sdf,NA,2,NA,NA,NA,NA,NA,NA,NA,NA,NA,NA,NA,NA,NA,NA,NA,NA,NA,NA,NA
2f5ff,check continue,flow.Sequence,3_0_2,NA,NA,completion,94949.639999952,3545272.0999999,3545272.52,3545289.66,3640239.3,3640240.6999998,2023-05-09T16:34:42Z,3640294.582,NULL,NA,NA,NA,NA,NA,NA,NA,sdf,NA,2,NA,NA,NA,NA,NA,NA,NA,NA,NA,NA,NA,NA,NA,NA,NA,NA,NA,NA,NA
2f5ff,deep,flow.Sequence,3_0_3_0_0_0,NA,NA,skipped,NA,3640283.3999999,NA,NA,3640239.3,3640283.5,2023-05-09T16:34:42Z,3640294.582,NULL,Verzögerung,kuchelewa,s,mwakilishi,mwanauchumi,jaribio,NA,qt,NA,3,NA,NA,NA,NA,NA,NA,NA,NA,NA,NA,NA,NA,NA,NA,NA,NA,NA,NA,NA
2f5ff,Shallow Question,html.Page,3_0_3_0_0_1_0,NA,NA,form submission,3137.0179999047,3640283.5,3640278.367,3640294.582,3643431.5999999,3643431.8,2023-05-09T16:34:45Z,3643442.004,NULL,Verzögerung,kuchelewa,s,mwakilishi,mwanauchumi,jaribio,kuchelewa,NA,NA,3,NA,NA,NA,NA,NA,NA,NA,NA,NA,NA,NA,NA,NA,NA,NA,NA,NA,NA,NA
2f5ff,"""Richtig""-Screen",canvas.Screen,3_0_3_0_0_1_1,NA,NA,timeout,4996.0089999996,3643432.5,3643425.946,3643442.004,3648421.683,3648422.8,2023-05-09T16:34:50Z,3648438.013,NULL,Verzögerung,kuchelewa,s,mwakilishi,mwanauchumi,jaribio,NA,qt,1,3,NA,NA,NA,NA,NA,NA,NA,NA,NA,NA,NA,NA,NA,NA,NA,NA,NA,NA,NA
2f5ff,"""Falsch""-Screen",canvas.Screen,3_0_3_0_0_1_2,NA,NA,skipped,NA,3648428.1999998,NA,NA,3648421.683,3648428.1999998,2023-05-09T16:34:50Z,3648438.013,NULL,Verzögerung,kuchelewa,s,mwakilishi,mwanauchumi,jaribio,NA,qt,NA,3,NA,NA,NA,NA,NA,NA,NA,NA,NA,NA,NA,NA,NA,NA,NA,NA,NA,NA,NA
2f5ff,shallow,flow.Sequence,3_0_3_0_0_1,NA,NA,completion,8127.1010000003,3640283.5,3640278.367,3640294.582,3648421.683,3648428.3999999,2023-05-09T16:34:50Z,3648438.013,NULL,Verzögerung,kuchelewa,s,mwakilishi,mwanauchumi,jaribio,NA,qt,NA,3,NA,NA,NA,NA,NA,NA,NA,NA,NA,NA,NA,NA,NA,NA,NA,NA,NA,NA,NA
2f5ff,task,flow.Sequence,3_0_3_0_0,NA,NA,completion,8127.1010000003,3640283.3999999,3640278.367,3640294.582,3648421.683,3648428.3999999,2023-05-09T16:34:50Z,3648438.013,NULL,Verzögerung,kuchelewa,s,mwakilishi,mwanauchumi,jaribio,NA,qt,NA,3,NA,NA,NA,NA,NA,NA,NA,NA,NA,NA,NA,NA,NA,NA,NA,NA,NA,NA,NA
2f5ff,Deep Question,html.Page,3_0_3_0_1_0_0,NA,NA,form submission,6950.1869998095,3648428.5,3648421.683,3648438.013,3655388.1999998,3655388.3,2023-05-09T16:34:57Z,3655398.883,NULL,Prüfung,mtihani,d,NA,NA,NA,mtihani,NA,NA,3,NA,NA,NA,NA,NA,NA,NA,NA,NA,NA,NA,NA,NA,NA,NA,NA,NA,NA,NA
2f5ff,"""Richtig""-Screen",canvas.Screen,3_0_3_0_1_0_1,NA,NA,timeout,4995.8740000003,3655390.0999999,3655382.648,3655398.883,3660378.18,3660379.1999998,2023-05-09T16:35:02Z,3660394.757,NULL,Prüfung,mtihani,d,NA,NA,NA,NA,qt,1,3,NA,NA,NA,NA,NA,NA,NA,NA,NA,NA,NA,NA,NA,NA,NA,NA,NA,NA,NA
2f5ff,"""Falsch""-Screen",canvas.Screen,3_0_3_0_1_0_2,NA,NA,skipped,NA,3660384.3999999,NA,NA,3660378.18,3660384.8,2023-05-09T16:35:02Z,3660394.757,NULL,Prüfung,mtihani,d,NA,NA,NA,NA,qt,NA,3,NA,NA,NA,NA,NA,NA,NA,NA,NA,NA,NA,NA,NA,NA,NA,NA,NA,NA,NA
2f5ff,deep,flow.Sequence,3_0_3_0_1_0,NA,NA,completion,11940.167,3648428.5,3648421.683,3648438.013,3660378.18,3660385.0999999,2023-05-09T16:35:02Z,3660394.757,NULL,Prüfung,mtihani,d,NA,NA,NA,NA,qt,NA,3,NA,NA,NA,NA,NA,NA,NA,NA,NA,NA,NA,NA,NA,NA,NA,NA,NA,NA,NA
2f5ff,shallow,flow.Sequence,3_0_3_0_1_1,NA,NA,skipped,NA,3660385.3,NA,NA,3660378.18,3660385.5,2023-05-09T16:35:02Z,3660394.757,NULL,Prüfung,mtihani,d,NA,NA,NA,NA,qt,NA,3,NA,NA,NA,NA,NA,NA,NA,NA,NA,NA,NA,NA,NA,NA,NA,NA,NA,NA,NA
2f5ff,task,flow.Sequence,3_0_3_0_1,NA,NA,completion,11940.167,3648428.3999999,3648421.683,3648438.013,3660378.18,3660385.6999998,2023-05-09T16:35:02Z,3660394.757,NULL,Prüfung,mtihani,d,NA,NA,NA,NA,qt,NA,3,NA,NA,NA,NA,NA,NA,NA,NA,NA,NA,NA,NA,NA,NA,NA,NA,NA,NA,NA
2f5ff,deep,flow.Sequence,3_0_3_0_2_0,NA,NA,skipped,NA,3660385.8,NA,NA,3660378.18,3660385.8999999,2023-05-09T16:35:02Z,3660394.757,NULL,Annäherung,maegesho,s,madahili,kujiamini,mapendekezo,NA,qt,NA,3,NA,NA,NA,NA,NA,NA,NA,NA,NA,NA,NA,NA,NA,NA,NA,NA,NA,NA,NA
2f5ff,Shallow Question,html.Page,3_0_3_0_2_1_0,NA,NA,form submission,3400.7429999998,3660386.0999999,3660378.18,3660394.757,3663795.5,3663795.6999998,2023-05-09T16:35:06Z,3663809.014,NULL,Annäherung,maegesho,s,madahili,kujiamini,mapendekezo,maegesho,NA,NA,3,NA,NA,NA,NA,NA,NA,NA,NA,NA,NA,NA,NA,NA,NA,NA,NA,NA,NA,NA
2f5ff,"""Richtig""-Screen",canvas.Screen,3_0_3_0_2_1_1,NA,NA,timeout,4996.1869999999,3663797.5999999,3663792.384,3663809.014,3668788.087,3668788.5999999,2023-05-09T16:35:11Z,3668805.201,NULL,Annäherung,maegesho,s,madahili,kujiamini,mapendekezo,NA,qt,1,3,NA,NA,NA,NA,NA,NA,NA,NA,NA,NA,NA,NA,NA,NA,NA,NA,NA,NA,NA
2f5ff,"""Falsch""-Screen",canvas.Screen,3_0_3_0_2_1_2,NA,NA,skipped,NA,3668790.3999999,NA,NA,3668788.087,3668790.5,2023-05-09T16:35:11Z,3668805.201,NULL,Annäherung,maegesho,s,madahili,kujiamini,mapendekezo,NA,qt,NA,3,NA,NA,NA,NA,NA,NA,NA,NA,NA,NA,NA,NA,NA,NA,NA,NA,NA,NA,NA
2f5ff,shallow,flow.Sequence,3_0_3_0_2_1,NA,NA,completion,8393.3299999996,3660386.0999999,3660378.18,3660394.757,3668788.087,3668790.5999999,2023-05-09T16:35:11Z,3668805.201,NULL,Annäherung,maegesho,s,madahili,kujiamini,mapendekezo,NA,qt,NA,3,NA,NA,NA,NA,NA,NA,NA,NA,NA,NA,NA,NA,NA,NA,NA,NA,NA,NA,NA
2f5ff,task,flow.Sequence,3_0_3_0_2,NA,NA,completion,8393.3299999996,3660385.8,3660378.18,3660394.757,3668788.087,3668790.6999998,2023-05-09T16:35:11Z,3668805.201,NULL,Annäherung,maegesho,s,madahili,kujiamini,mapendekezo,NA,qt,NA,3,NA,NA,NA,NA,NA,NA,NA,NA,NA,NA,NA,NA,NA,NA,NA,NA,NA,NA,NA
2f5ff,Deep Question,html.Page,3_0_3_0_3_0_0,NA,NA,form submission,21414.098999952,3668790.8,3668788.087,3668805.201,3690219.3,3690219.5,2023-05-09T16:35:32Z,3690237.399,NULL,Beweis,ushahidi,d,NA,NA,NA,mblj,NA,NA,3,NA,NA,NA,NA,NA,NA,NA,NA,NA,NA,NA,NA,NA,NA,NA,NA,NA,NA,NA
2f5ff,"""Richtig""-Screen",canvas.Screen,3_0_3_0_3_0_1,NA,NA,skipped,NA,3690222,NA,NA,3690219.3,3690222.3,2023-05-09T16:35:32Z,3690237.399,NULL,Beweis,ushahidi,d,NA,NA,NA,NA,qt,NA,3,NA,NA,NA,NA,NA,NA,NA,NA,NA,NA,NA,NA,NA,NA,NA,NA,NA,NA,NA
2f5ff,"""Falsch""-Screen",canvas.Screen,3_0_3_0_3_0_2,NA,NA,timeout,4995.9299999997,3690223.1999998,3690220.198,3690237.399,3695216.665,3695217.6999998,2023-05-09T16:35:37Z,3695233.329,NULL,Beweis,ushahidi,d,NA,NA,NA,NA,qt,0,3,NA,NA,NA,NA,NA,NA,NA,NA,NA,NA,NA,NA,NA,NA,NA,NA,NA,NA,NA
2f5ff,deep,flow.Sequence,3_0_3_0_3_0,NA,NA,completion,26411.464,3668790.8,3668788.087,3668805.201,3695216.665,3695218.1999998,2023-05-09T16:35:37Z,3695233.329,NULL,Beweis,ushahidi,d,NA,NA,NA,NA,qt,NA,3,NA,NA,NA,NA,NA,NA,NA,NA,NA,NA,NA,NA,NA,NA,NA,NA,NA,NA,NA
2f5ff,shallow,flow.Sequence,3_0_3_0_3_1,NA,NA,skipped,NA,3695218.3999999,NA,NA,3695216.665,3695218.8,2023-05-09T16:35:37Z,3695233.329,NULL,Beweis,ushahidi,d,NA,NA,NA,NA,qt,NA,3,NA,NA,NA,NA,NA,NA,NA,NA,NA,NA,NA,NA,NA,NA,NA,NA,NA,NA,NA
2f5ff,task,flow.Sequence,3_0_3_0_3,NA,NA,completion,26411.464,3668790.6999998,3668788.087,3668805.201,3695216.665,3695219,2023-05-09T16:35:37Z,3695233.329,NULL,Beweis,ushahidi,d,NA,NA,NA,NA,qt,NA,3,NA,NA,NA,NA,NA,NA,NA,NA,NA,NA,NA,NA,NA,NA,NA,NA,NA,NA,NA
2f5ff,deep,flow.Sequence,3_0_3_0_4_0,NA,NA,skipped,NA,3695219.1999998,NA,NA,3695216.665,3695219.3999999,2023-05-09T16:35:37Z,3695233.329,NULL,Sympathie,mapendano,s,dhamiria,fungamano,maazimio,NA,qt,NA,3,NA,NA,NA,NA,NA,NA,NA,NA,NA,NA,NA,NA,NA,NA,NA,NA,NA,NA,NA
2f5ff,Shallow Question,html.Page,3_0_3_0_4_1_0,NA,NA,form submission,5015.2709999047,3695219.5999999,3695216.665,3695233.329,3700248.5999999,3700248.8,2023-05-09T16:35:42Z,3700262.683,NULL,Sympathie,mapendano,s,dhamiria,fungamano,maazimio,mapendano,NA,NA,3,NA,NA,NA,NA,NA,NA,NA,NA,NA,NA,NA,NA,NA,NA,NA,NA,NA,NA,NA
2f5ff,"""Richtig""-Screen",canvas.Screen,3_0_3_0_4_1_1,NA,NA,timeout,4995.2029999997,3700250.6999998,3700245.882,3700262.683,3705241.557,3705242.5999999,2023-05-09T16:35:47Z,3705257.886,NULL,Sympathie,mapendano,s,dhamiria,fungamano,maazimio,NA,qt,1,3,NA,NA,NA,NA,NA,NA,NA,NA,NA,NA,NA,NA,NA,NA,NA,NA,NA,NA,NA
2f5ff,"""Falsch""-Screen",canvas.Screen,3_0_3_0_4_1_2,NA,NA,skipped,NA,3705248,NA,NA,3705241.557,3705248.1999998,2023-05-09T16:35:47Z,3705257.886,NULL,Sympathie,mapendano,s,dhamiria,fungamano,maazimio,NA,qt,NA,3,NA,NA,NA,NA,NA,NA,NA,NA,NA,NA,NA,NA,NA,NA,NA,NA,NA,NA,NA
2f5ff,shallow,flow.Sequence,3_0_3_0_4_1,NA,NA,completion,10008.228,3695219.3999999,3695216.665,3695233.329,3705241.557,3705248.6999998,2023-05-09T16:35:47Z,3705257.886,NULL,Sympathie,mapendano,s,dhamiria,fungamano,maazimio,NA,qt,NA,3,NA,NA,NA,NA,NA,NA,NA,NA,NA,NA,NA,NA,NA,NA,NA,NA,NA,NA,NA
2f5ff,task,flow.Sequence,3_0_3_0_4,NA,NA,completion,10008.228,3695219.0999999,3695216.665,3695233.329,3705241.557,3705249,2023-05-09T16:35:47Z,3705257.886,NULL,Sympathie,mapendano,s,dhamiria,fungamano,maazimio,NA,qt,NA,3,NA,NA,NA,NA,NA,NA,NA,NA,NA,NA,NA,NA,NA,NA,NA,NA,NA,NA,NA
2f5ff,Deep Question,html.Page,3_0_3_0_5_0_0,NA,NA,form submission,3512.013999857,3705249.1999998,3705241.557,3705257.886,3708769.8999999,3708770.0999999,2023-05-09T16:35:51Z,3708788.309,NULL,Polizist,msongora,d,NA,NA,NA,msongora,NA,NA,3,NA,NA,NA,NA,NA,NA,NA,NA,NA,NA,NA,NA,NA,NA,NA,NA,NA,NA,NA
2f5ff,"""Richtig""-Screen",canvas.Screen,3_0_3_0_5_0_1,NA,NA,timeout,4995.906,3708772.5,3708771.655,3708788.309,3713767.648,3713770.1999998,2023-05-09T16:35:56Z,3713784.215,NULL,Polizist,msongora,d,NA,NA,NA,NA,qt,1,3,NA,NA,NA,NA,NA,NA,NA,NA,NA,NA,NA,NA,NA,NA,NA,NA,NA,NA,NA
2f5ff,"""Falsch""-Screen",canvas.Screen,3_0_3_0_5_0_2,NA,NA,skipped,NA,3713775.8999999,NA,NA,3713767.648,3713776.3999999,2023-05-09T16:35:56Z,3713784.215,NULL,Polizist,msongora,d,NA,NA,NA,NA,qt,NA,3,NA,NA,NA,NA,NA,NA,NA,NA,NA,NA,NA,NA,NA,NA,NA,NA,NA,NA,NA
2f5ff,deep,flow.Sequence,3_0_3_0_5_0,NA,NA,completion,8509.7620000001,3705249.1999998,3705241.557,3705257.886,3713767.648,3713776.8,2023-05-09T16:35:56Z,3713784.215,NULL,Polizist,msongora,d,NA,NA,NA,NA,qt,NA,3,NA,NA,NA,NA,NA,NA,NA,NA,NA,NA,NA,NA,NA,NA,NA,NA,NA,NA,NA
2f5ff,shallow,flow.Sequence,3_0_3_0_5_1,NA,NA,skipped,NA,3713777,NA,NA,3713767.648,3713777.0999999,2023-05-09T16:35:56Z,3713784.215,NULL,Polizist,msongora,d,NA,NA,NA,NA,qt,NA,3,NA,NA,NA,NA,NA,NA,NA,NA,NA,NA,NA,NA,NA,NA,NA,NA,NA,NA,NA
2f5ff,task,flow.Sequence,3_0_3_0_5,NA,NA,completion,8509.7620000001,3705249.0999999,3705241.557,3705257.886,3713767.648,3713777.3999999,2023-05-09T16:35:56Z,3713784.215,NULL,Polizist,msongora,d,NA,NA,NA,NA,qt,NA,3,NA,NA,NA,NA,NA,NA,NA,NA,NA,NA,NA,NA,NA,NA,NA,NA,NA,NA,NA
2f5ff,deep,flow.Sequence,3_0_3_0_6_0,NA,NA,skipped,NA,3713777.5999999,NA,NA,3713767.648,3713777.6999998,2023-05-09T16:35:56Z,3713784.215,NULL,Kultur,utamaduni,s,shetani,gerezani,mazingira,NA,qt,NA,3,NA,NA,NA,NA,NA,NA,NA,NA,NA,NA,NA,NA,NA,NA,NA,NA,NA,NA,NA
2f5ff,Shallow Question,html.Page,3_0_3_0_6_1_0,NA,NA,form submission,4833.6849998571,3713777.8999999,3713767.648,3713784.215,3718617.8999999,3718618.1999998,2023-05-09T16:36:00Z,3718630.856,NULL,Kultur,utamaduni,s,shetani,gerezani,mazingira,utamaduni,NA,NA,3,NA,NA,NA,NA,NA,NA,NA,NA,NA,NA,NA,NA,NA,NA,NA,NA,NA,NA,NA
2f5ff,"""Richtig""-Screen",canvas.Screen,3_0_3_0_6_1_1,NA,NA,timeout,4996,3718620,3718614.219,3718630.856,3723609.509,3723609.8999999,2023-05-09T16:36:05Z,3723626.856,NULL,Kultur,utamaduni,s,shetani,gerezani,mazingira,NA,qt,1,3,NA,NA,NA,NA,NA,NA,NA,NA,NA,NA,NA,NA,NA,NA,NA,NA,NA,NA,NA
2f5ff,"""Falsch""-Screen",canvas.Screen,3_0_3_0_6_1_2,NA,NA,skipped,NA,3723611.8999999,NA,NA,3723609.509,3723612.0999999,2023-05-09T16:36:05Z,3723626.856,NULL,Kultur,utamaduni,s,shetani,gerezani,mazingira,NA,qt,NA,3,NA,NA,NA,NA,NA,NA,NA,NA,NA,NA,NA,NA,NA,NA,NA,NA,NA,NA,NA
2f5ff,shallow,flow.Sequence,3_0_3_0_6_1,NA,NA,completion,9825.2940000002,3713777.8,3713767.648,3713784.215,3723609.509,3723612.1999998,2023-05-09T16:36:05Z,3723626.856,NULL,Kultur,utamaduni,s,shetani,gerezani,mazingira,NA,qt,NA,3,NA,NA,NA,NA,NA,NA,NA,NA,NA,NA,NA,NA,NA,NA,NA,NA,NA,NA,NA
2f5ff,task,flow.Sequence,3_0_3_0_6,NA,NA,completion,9825.2940000002,3713777.3999999,3713767.648,3713784.215,3723609.509,3723612.3999999,2023-05-09T16:36:05Z,3723626.856,NULL,Kultur,utamaduni,s,shetani,gerezani,mazingira,NA,qt,NA,3,NA,NA,NA,NA,NA,NA,NA,NA,NA,NA,NA,NA,NA,NA,NA,NA,NA,NA,NA
2f5ff,Deep Question,html.Page,3_0_3_0_7_0_0,NA,NA,form submission,7708.2439999045,3723612.5999999,3723609.509,3723626.856,3731335.0999999,3731335.3,2023-05-09T16:36:13Z,3731336.404,NULL,Aufstand,ugomaji,d,NA,NA,NA,ugomaji,NA,NA,3,NA,NA,NA,NA,NA,NA,NA,NA,NA,NA,NA,NA,NA,NA,NA,NA,NA,NA,NA
2f5ff,"""Richtig""-Screen",canvas.Screen,3_0_3_0_7_0_1,NA,NA,timeout,4996.2119999998,3731337.8,3731320.046,3731336.404,3736316.215,3736317.1999998,2023-05-09T16:36:18Z,3736332.616,NULL,Aufstand,ugomaji,d,NA,NA,NA,NA,qt,1,3,NA,NA,NA,NA,NA,NA,NA,NA,NA,NA,NA,NA,NA,NA,NA,NA,NA,NA,NA
2f5ff,"""Falsch""-Screen",canvas.Screen,3_0_3_0_7_0_2,NA,NA,skipped,NA,3736322,NA,NA,3736316.215,3736322,2023-05-09T16:36:18Z,3736332.616,NULL,Aufstand,ugomaji,d,NA,NA,NA,NA,qt,NA,3,NA,NA,NA,NA,NA,NA,NA,NA,NA,NA,NA,NA,NA,NA,NA,NA,NA,NA,NA
2f5ff,deep,flow.Sequence,3_0_3_0_7_0,NA,NA,completion,12689.359,3723612.5,3723609.509,3723626.856,3736316.215,3736322.0999999,2023-05-09T16:36:18Z,3736332.616,NULL,Aufstand,ugomaji,d,NA,NA,NA,NA,qt,NA,3,NA,NA,NA,NA,NA,NA,NA,NA,NA,NA,NA,NA,NA,NA,NA,NA,NA,NA,NA
2f5ff,shallow,flow.Sequence,3_0_3_0_7_1,NA,NA,skipped,NA,3736322.1999998,NA,NA,3736316.215,3736322.1999998,2023-05-09T16:36:18Z,3736332.616,NULL,Aufstand,ugomaji,d,NA,NA,NA,NA,qt,NA,3,NA,NA,NA,NA,NA,NA,NA,NA,NA,NA,NA,NA,NA,NA,NA,NA,NA,NA,NA
2f5ff,task,flow.Sequence,3_0_3_0_7,NA,NA,completion,12689.359,3723612.5,3723609.509,3723626.856,3736316.215,3736322.3,2023-05-09T16:36:18Z,3736332.616,NULL,Aufstand,ugomaji,d,NA,NA,NA,NA,qt,NA,3,NA,NA,NA,NA,NA,NA,NA,NA,NA,NA,NA,NA,NA,NA,NA,NA,NA,NA,NA
2f5ff,block,flow.Loop,3_0_3_0,NA,NA,completion,96021.633,3640283.3999999,3640278.367,3640294.582,3736316.215,3736322.3999999,2023-05-09T16:36:18Z,3736332.616,NULL,NA,NA,NA,NA,NA,NA,NA,qt,NA,3,NA,NA,NA,NA,NA,NA,NA,NA,NA,NA,NA,NA,NA,NA,NA,NA,NA,NA,NA
2f5ff,weiter,canvas.Screen,3_0_3_1,sdf,keypress(Space),response,1057.3840000001,3736322.3999999,3736316.215,3736332.616,3737390,3737390.5999999,2023-05-09T16:36:19Z,3737864.376,NULL,NA,NA,NA,NA,NA,NA,NA,qt,NA,3,NA,NA,NA,NA,NA,NA,NA,NA,NA,NA,NA,NA,NA,NA,NA,NA,NA,NA,NA
2f5ff,check continue,flow.Sequence,3_0_3,NA,NA,completion,97095.418,3640283.3999999,3640278.367,3640294.582,3737390,3737390.6999998,2023-05-09T16:36:19Z,3737864.376,NULL,NA,NA,NA,NA,NA,NA,NA,qt,NA,3,NA,NA,NA,NA,NA,NA,NA,NA,NA,NA,NA,NA,NA,NA,NA,NA,NA,NA,NA
2f5ff,check continue,flow.Sequence,3_0_4,NA,NA,skipped,NA,3737417.0999999,NA,NA,3737390,3737417.1999998,2023-05-09T16:36:19Z,3737864.376,NULL,NA,NA,NA,NA,NA,NA,NA,sd,NA,4,NA,NA,NA,NA,NA,NA,NA,NA,NA,NA,NA,NA,NA,NA,NA,NA,NA,NA,NA
2f5ff,check continue,flow.Sequence,3_0_5,NA,NA,skipped,NA,3737436.5999999,NA,NA,3737390,3737436.6999998,2023-05-09T16:36:19Z,3737864.376,NULL,NA,NA,NA,NA,NA,NA,NA,sdf,NA,5,NA,NA,NA,NA,NA,NA,NA,NA,NA,NA,NA,NA,NA,NA,NA,NA,NA,NA,NA
2f5ff,check continue,flow.Sequence,3_0_6,NA,NA,skipped,NA,3737455.8,NA,NA,3737390,3737455.8,2023-05-09T16:36:19Z,3737864.376,NULL,NA,NA,NA,NA,NA,NA,NA,dfs,NA,6,NA,NA,NA,NA,NA,NA,NA,NA,NA,NA,NA,NA,NA,NA,NA,NA,NA,NA,NA
2f5ff,check continue,flow.Sequence,3_0_7,NA,NA,skipped,NA,3737472.3,NA,NA,3737390,3737472.3999999,2023-05-09T16:36:19Z,3737864.376,NULL,NA,NA,NA,NA,NA,NA,NA,df,NA,7,NA,NA,NA,NA,NA,NA,NA,NA,NA,NA,NA,NA,NA,NA,NA,NA,NA,NA,NA
2f5ff,check continue,flow.Sequence,3_0_8,NA,NA,skipped,NA,3737489.1999998,NA,NA,3737390,3737489.3999999,2023-05-09T16:36:19Z,3737864.376,NULL,NA,NA,NA,NA,NA,NA,NA,dfs,NA,8,NA,NA,NA,NA,NA,NA,NA,NA,NA,NA,NA,NA,NA,NA,NA,NA,NA,NA,NA
2f5ff,check continue,flow.Sequence,3_0_9,NA,NA,skipped,NA,3737505.3999999,NA,NA,3737390,3737505.5,2023-05-09T16:36:19Z,3737864.376,NULL,NA,NA,NA,NA,NA,NA,NA,dsf,NA,9,NA,NA,NA,NA,NA,NA,NA,NA,NA,NA,NA,NA,NA,NA,NA,NA,NA,NA,NA
2f5ff,check continue,flow.Sequence,3_0_10,NA,NA,skipped,NA,3737526.1999998,NA,NA,3737390,3737526.3999999,2023-05-09T16:36:19Z,3737864.376,NULL,NA,NA,NA,NA,NA,NA,NA,df,NA,10,NA,NA,NA,NA,NA,NA,NA,NA,NA,NA,NA,NA,NA,NA,NA,NA,NA,NA,NA
2f5ff,check continue,flow.Sequence,3_0_11,NA,NA,skipped,NA,3737542.8,NA,NA,3737390,3737542.8999999,2023-05-09T16:36:19Z,3737864.376,NULL,NA,NA,NA,NA,NA,NA,NA,dfs,NA,11,NA,NA,NA,NA,NA,NA,NA,NA,NA,NA,NA,NA,NA,NA,NA,NA,NA,NA,NA
2f5ff,check continue,flow.Sequence,3_0_12,NA,NA,skipped,NA,3737562.1999998,NA,NA,3737390,3737562.1999998,2023-05-09T16:36:19Z,3737864.376,NULL,NA,NA,NA,NA,NA,NA,NA,dsf,NA,12,NA,NA,NA,NA,NA,NA,NA,NA,NA,NA,NA,NA,NA,NA,NA,NA,NA,NA,NA
2f5ff,check continue,flow.Sequence,3_0_13,NA,NA,skipped,NA,3737580.3999999,NA,NA,3737390,3737580.5,2023-05-09T16:36:19Z,3737864.376,NULL,NA,NA,NA,NA,NA,NA,NA,dsf,NA,13,NA,NA,NA,NA,NA,NA,NA,NA,NA,NA,NA,NA,NA,NA,NA,NA,NA,NA,NA
2f5ff,check continue,flow.Sequence,3_0_14,NA,NA,skipped,NA,3737596.5,NA,NA,3737390,3737596.6999998,2023-05-09T16:36:19Z,3737864.376,NULL,NA,NA,NA,NA,NA,NA,NA,NA,NA,14,NA,NA,NA,NA,NA,NA,NA,NA,NA,NA,NA,NA,NA,NA,NA,NA,NA,NA,NA
2f5ff,check continue,flow.Sequence,3_0_15,NA,NA,skipped,NA,3737613.3999999,NA,NA,3737390,3737613.5,2023-05-09T16:36:19Z,3737864.376,NULL,NA,NA,NA,NA,NA,NA,NA,NA,NA,15,NA,NA,NA,NA,NA,NA,NA,NA,NA,NA,NA,NA,NA,NA,NA,NA,NA,NA,NA
2f5ff,check continue,flow.Sequence,3_0_16,NA,NA,skipped,NA,3737629.3,NA,NA,3737390,3737629.3999999,2023-05-09T16:36:19Z,3737864.376,NULL,NA,NA,NA,NA,NA,NA,NA,NA,NA,16,NA,NA,NA,NA,NA,NA,NA,NA,NA,NA,NA,NA,NA,NA,NA,NA,NA,NA,NA
2f5ff,check continue,flow.Sequence,3_0_17,NA,NA,skipped,NA,3737645,NA,NA,3737390,3737645.0999999,2023-05-09T16:36:19Z,3737864.376,NULL,NA,NA,NA,NA,NA,NA,NA,NA,NA,17,NA,NA,NA,NA,NA,NA,NA,NA,NA,NA,NA,NA,NA,NA,NA,NA,NA,NA,NA
2f5ff,check continue,flow.Sequence,3_0_18,NA,NA,skipped,NA,3737660.3999999,NA,NA,3737390,3737660.5,2023-05-09T16:36:20Z,3737864.376,NULL,NA,NA,NA,NA,NA,NA,NA,NA,NA,18,NA,NA,NA,NA,NA,NA,NA,NA,NA,NA,NA,NA,NA,NA,NA,NA,NA,NA,NA
2f5ff,check continue,flow.Sequence,3_0_19,NA,NA,skipped,NA,3737677.8999999,NA,NA,3737390,3737678,2023-05-09T16:36:20Z,3737864.376,NULL,NA,NA,NA,NA,NA,NA,NA,NA,NA,19,NA,NA,NA,NA,NA,NA,NA,NA,NA,NA,NA,NA,NA,NA,NA,NA,NA,NA,NA
2f5ff,check continue,flow.Sequence,3_0_20,NA,NA,skipped,NA,3737693.8999999,NA,NA,3737390,3737694,2023-05-09T16:36:20Z,3737864.376,NULL,NA,NA,NA,NA,NA,NA,NA,NA,NA,20,NA,NA,NA,NA,NA,NA,NA,NA,NA,NA,NA,NA,NA,NA,NA,NA,NA,NA,NA
2f5ff,check continue,flow.Sequence,3_0_21,NA,NA,skipped,NA,3737711.1999998,NA,NA,3737390,3737711.3,2023-05-09T16:36:20Z,3737864.376,NULL,NA,NA,NA,NA,NA,NA,NA,NA,NA,21,NA,NA,NA,NA,NA,NA,NA,NA,NA,NA,NA,NA,NA,NA,NA,NA,NA,NA,NA
2f5ff,check continue,flow.Sequence,3_0_22,NA,NA,skipped,NA,3737727.3,NA,NA,3737390,3737727.3999999,2023-05-09T16:36:20Z,3737864.376,NULL,NA,NA,NA,NA,NA,NA,NA,NA,NA,22,NA,NA,NA,NA,NA,NA,NA,NA,NA,NA,NA,NA,NA,NA,NA,NA,NA,NA,NA
2f5ff,check continue,flow.Sequence,3_0_23,NA,NA,skipped,NA,3737741.5999999,NA,NA,3737390,3737741.6999998,2023-05-09T16:36:20Z,3737864.376,NULL,NA,NA,NA,NA,NA,NA,NA,NA,NA,23,NA,NA,NA,NA,NA,NA,NA,NA,NA,NA,NA,NA,NA,NA,NA,NA,NA,NA,NA
2f5ff,check continue,flow.Sequence,3_0_24,NA,NA,skipped,NA,3737757.8,NA,NA,3737390,3737757.8999999,2023-05-09T16:36:20Z,3737864.376,NULL,NA,NA,NA,NA,NA,NA,NA,NA,NA,24,NA,NA,NA,NA,NA,NA,NA,NA,NA,NA,NA,NA,NA,NA,NA,NA,NA,NA,NA
2f5ff,check continue,flow.Sequence,3_0_25,NA,NA,skipped,NA,3737772.3,NA,NA,3737390,3737772.5,2023-05-09T16:36:20Z,3737864.376,NULL,NA,NA,NA,NA,NA,NA,NA,NA,NA,25,NA,NA,NA,NA,NA,NA,NA,NA,NA,NA,NA,NA,NA,NA,NA,NA,NA,NA,NA
2f5ff,check continue,flow.Sequence,3_0_26,NA,NA,skipped,NA,3737803.6999998,NA,NA,3737390,3737803.8999999,2023-05-09T16:36:20Z,3737864.376,NULL,NA,NA,NA,NA,NA,NA,NA,NA,NA,26,NA,NA,NA,NA,NA,NA,NA,NA,NA,NA,NA,NA,NA,NA,NA,NA,NA,NA,NA
2f5ff,check continue,flow.Sequence,3_0_27,NA,NA,skipped,NA,3737820.6999998,NA,NA,3737390,3737820.8999999,2023-05-09T16:36:20Z,3737864.376,NULL,NA,NA,NA,NA,NA,NA,NA,NA,NA,27,NA,NA,NA,NA,NA,NA,NA,NA,NA,NA,NA,NA,NA,NA,NA,NA,NA,NA,NA
2f5ff,check continue,flow.Sequence,3_0_28,NA,NA,skipped,NA,3737836.8,NA,NA,3737390,3737837,2023-05-09T16:36:20Z,3737864.376,NULL,NA,NA,NA,NA,NA,NA,NA,NA,NA,28,NA,NA,NA,NA,NA,NA,NA,NA,NA,NA,NA,NA,NA,NA,NA,NA,NA,NA,NA
2f5ff,check continue,flow.Sequence,3_0_29,NA,NA,skipped,NA,3737851.8,NA,NA,3737390,3737852,2023-05-09T16:36:20Z,3737864.376,NULL,NA,NA,NA,NA,NA,NA,NA,NA,NA,29,NA,NA,NA,NA,NA,NA,NA,NA,NA,NA,NA,NA,NA,NA,NA,NA,NA,NA,NA
2f5ff,until continue,flow.Loop,3_0,NA,NA,completion,379912.88,3357446.3999999,3357460.639,3357477.12,3737390,3737852.0999999,2023-05-09T16:36:20Z,3737864.376,NULL,NA,NA,NA,NA,NA,NA,NA,NA,NA,NA,NA,NA,NA,NA,NA,NA,NA,NA,NA,NA,NA,NA,NA,NA,NA,NA,NA,NA,NA
2f5ff,block 1,flow.Sequence,3,NA,NA,completion,379912.88,3357446.3999999,3357460.639,3357477.12,3737390,3737852.1999998,2023-05-09T16:36:20Z,3737864.376,NULL,NA,NA,NA,NA,NA,NA,NA,NA,NA,NA,NA,NA,NA,NA,NA,NA,NA,NA,NA,NA,NA,NA,NA,NA,NA,NA,NA,NA,NA
2f5ff,1.Part Over,canvas.Screen,4,NA,keypress(Space),response,5077.4239999522,3737852.3,3737848.446,3737864.376,3742941.8,3742942.3999999,2023-05-09T16:36:25Z,3743010.483,NULL,NA,NA,NA,NA,NA,NA,NA,NA,NA,NA,NA,NA,NA,NA,NA,NA,NA,NA,NA,NA,NA,NA,NA,NA,NA,NA,NA,NA,NA
2f5ff,Deep Question,html.Page,5_0_0_0_0_0_0,NA,NA,form submission,3868.8169999523,3742998.3999999,3742993.585,3743010.483,3746879.3,3746879.5,2023-05-09T16:36:29Z,3746890.418,NULL,Angreifer,mshambulizi,d,NA,NA,NA,sldfj,NA,NA,0,NA,NA,NA,NA,NA,NA,NA,NA,NA,NA,NA,NA,NA,NA,NA,NA,NA,NA,NA
2f5ff,"""Richtig""-Screen",canvas.Screen,5_0_0_0_0_0_1,NA,NA,skipped,NA,3746881.1999998,NA,NA,3746879.3,3746881.3,2023-05-09T16:36:29Z,3746890.418,NULL,Angreifer,mshambulizi,d,NA,NA,NA,NA,sdf,NA,0,NA,NA,NA,NA,NA,NA,NA,NA,NA,NA,NA,NA,NA,NA,NA,NA,NA,NA,NA
2f5ff,"""Falsch""-Screen",canvas.Screen,5_0_0_0_0_0_2,NA,NA,timeout,4996.0049999999,3746881.8999999,3746874.25,3746890.418,3751869.655,3751870.5999999,2023-05-09T16:36:34Z,3751886.423,NULL,Angreifer,mshambulizi,d,NA,NA,NA,NA,sdf,0,0,NA,NA,NA,NA,NA,NA,NA,NA,NA,NA,NA,NA,NA,NA,NA,NA,NA,NA,NA
2f5ff,deep,flow.Sequence,5_0_0_0_0_0,NA,NA,completion,8859.1719999998,3742998.3999999,3742993.585,3743010.483,3751869.655,3751871.0999999,2023-05-09T16:36:34Z,3751886.423,NULL,Angreifer,mshambulizi,d,NA,NA,NA,NA,sdf,NA,0,NA,NA,NA,NA,NA,NA,NA,NA,NA,NA,NA,NA,NA,NA,NA,NA,NA,NA,NA
2f5ff,shallow,flow.Sequence,5_0_0_0_0_1,NA,NA,skipped,NA,3751871.1999998,NA,NA,3751869.655,3751871.3999999,2023-05-09T16:36:34Z,3751886.423,NULL,Angreifer,mshambulizi,d,NA,NA,NA,NA,sdf,NA,0,NA,NA,NA,NA,NA,NA,NA,NA,NA,NA,NA,NA,NA,NA,NA,NA,NA,NA,NA
2f5ff,task,flow.Sequence,5_0_0_0_0,NA,NA,completion,8859.1719999998,3742998.3999999,3742993.585,3743010.483,3751869.655,3751871.6999998,2023-05-09T16:36:34Z,3751886.423,NULL,Angreifer,mshambulizi,d,NA,NA,NA,NA,sdf,NA,0,NA,NA,NA,NA,NA,NA,NA,NA,NA,NA,NA,NA,NA,NA,NA,NA,NA,NA,NA
2f5ff,deep,flow.Sequence,5_0_0_0_1_0,NA,NA,skipped,NA,3751871.8,NA,NA,3751869.655,3751871.8999999,2023-05-09T16:36:34Z,3751886.423,NULL,Kanzler,diwani,s,rasilmali,mahitaji,maabudu,NA,sdf,NA,0,NA,NA,NA,NA,NA,NA,NA,NA,NA,NA,NA,NA,NA,NA,NA,NA,NA,NA,NA
2f5ff,Shallow Question,html.Page,5_0_0_0_1_1_0,NA,NA,form submission,7105.6769999047,3751872,3751869.655,3751886.423,3758992.0999999,3758992.3999999,2023-05-09T16:36:41Z,3758997.034,NULL,Kanzler,diwani,s,rasilmali,mahitaji,maabudu,rasilmali,NA,NA,0,NA,NA,NA,NA,NA,NA,NA,NA,NA,NA,NA,NA,NA,NA,NA,NA,NA,NA,NA
2f5ff,"""Richtig""-Screen",canvas.Screen,5_0_0_0_1_1_1,NA,NA,skipped,NA,3758994.3999999,NA,NA,3758992.0999999,3758994.5,2023-05-09T16:36:41Z,3758997.034,NULL,Kanzler,diwani,s,rasilmali,mahitaji,maabudu,NA,sdf,NA,0,NA,NA,NA,NA,NA,NA,NA,NA,NA,NA,NA,NA,NA,NA,NA,NA,NA,NA,NA
2f5ff,"""Falsch""-Screen",canvas.Screen,5_0_0_0_1_1_2,NA,NA,timeout,4996.3059999999,3758995.1999998,3758980.913,3758997.034,3763976.762,3763977.5,2023-05-09T16:36:46Z,3763993.34,NULL,Kanzler,diwani,s,rasilmali,mahitaji,maabudu,NA,sdf,0,0,NA,NA,NA,NA,NA,NA,NA,NA,NA,NA,NA,NA,NA,NA,NA,NA,NA,NA,NA
2f5ff,shallow,flow.Sequence,5_0_0_0_1_1,NA,NA,completion,12090.339,3751872,3751869.655,3751886.423,3763976.762,3763977.8,2023-05-09T16:36:46Z,3763993.34,NULL,Kanzler,diwani,s,rasilmali,mahitaji,maabudu,NA,sdf,NA,0,NA,NA,NA,NA,NA,NA,NA,NA,NA,NA,NA,NA,NA,NA,NA,NA,NA,NA,NA
2f5ff,task,flow.Sequence,5_0_0_0_1,NA,NA,completion,12090.339,3751871.8,3751869.655,3751886.423,3763976.762,3763978.0999999,2023-05-09T16:36:46Z,3763993.34,NULL,Kanzler,diwani,s,rasilmali,mahitaji,maabudu,NA,sdf,NA,0,NA,NA,NA,NA,NA,NA,NA,NA,NA,NA,NA,NA,NA,NA,NA,NA,NA,NA,NA
2f5ff,deep,flow.Sequence,5_0_0_0_2_0,NA,NA,skipped,NA,3763978.1999998,NA,NA,3763976.762,3763978.3,2023-05-09T16:36:46Z,3763993.34,NULL,Abrechnung,uhasibu,s,kusahihisha,mpambano,mashambulizi,NA,sdf,NA,0,NA,NA,NA,NA,NA,NA,NA,NA,NA,NA,NA,NA,NA,NA,NA,NA,NA,NA,NA
2f5ff,Shallow Question,html.Page,5_0_0_0_2_1_0,NA,NA,form submission,8721.2599999048,3763978.3999999,3763976.762,3763993.34,3772714.5999999,3772714.8999999,2023-05-09T16:36:55Z,3772719.095,NULL,Abrechnung,uhasibu,s,kusahihisha,mpambano,mashambulizi,kusahihisha,NA,NA,0,NA,NA,NA,NA,NA,NA,NA,NA,NA,NA,NA,NA,NA,NA,NA,NA,NA,NA,NA
2f5ff,"""Richtig""-Screen",canvas.Screen,5_0_0_0_2_1_1,NA,NA,skipped,NA,3772716.8999999,NA,NA,3772714.5999999,3772717,2023-05-09T16:36:55Z,3772719.095,NULL,Abrechnung,uhasibu,s,kusahihisha,mpambano,mashambulizi,NA,sdf,NA,0,NA,NA,NA,NA,NA,NA,NA,NA,NA,NA,NA,NA,NA,NA,NA,NA,NA,NA,NA
2f5ff,"""Falsch""-Screen",canvas.Screen,5_0_0_0_2_1_2,NA,NA,timeout,4995.889,3772717.6999998,3772702.972,3772719.095,3777698.896,3777699.5999999,2023-05-09T16:37:00Z,3777714.984,NULL,Abrechnung,uhasibu,s,kusahihisha,mpambano,mashambulizi,NA,sdf,0,0,NA,NA,NA,NA,NA,NA,NA,NA,NA,NA,NA,NA,NA,NA,NA,NA,NA,NA,NA
2f5ff,shallow,flow.Sequence,5_0_0_0_2_1,NA,NA,completion,13705.556,3763978.3999999,3763976.762,3763993.34,3777698.896,3777699.8,2023-05-09T16:37:00Z,3777714.984,NULL,Abrechnung,uhasibu,s,kusahihisha,mpambano,mashambulizi,NA,sdf,NA,0,NA,NA,NA,NA,NA,NA,NA,NA,NA,NA,NA,NA,NA,NA,NA,NA,NA,NA,NA
2f5ff,task,flow.Sequence,5_0_0_0_2,NA,NA,completion,13705.556,3763978.0999999,3763976.762,3763993.34,3777698.896,3777699.8999999,2023-05-09T16:37:00Z,3777714.984,NULL,Abrechnung,uhasibu,s,kusahihisha,mpambano,mashambulizi,NA,sdf,NA,0,NA,NA,NA,NA,NA,NA,NA,NA,NA,NA,NA,NA,NA,NA,NA,NA,NA,NA,NA
2f5ff,Deep Question,html.Page,5_0_0_0_3_0_0,NA,NA,form submission,3108.6159999045,3777700,3777698.896,3777714.984,3780823.5999999,3780823.8,2023-05-09T16:37:03Z,3780829.056,NULL,Auftrag,uagizaji,d,NA,NA,NA,aslkdjf,NA,NA,0,NA,NA,NA,NA,NA,NA,NA,NA,NA,NA,NA,NA,NA,NA,NA,NA,NA,NA,NA
2f5ff,"""Richtig""-Screen",canvas.Screen,5_0_0_0_3_0_1,NA,NA,skipped,NA,3780825.8,NA,NA,3780823.5999999,3780826,2023-05-09T16:37:03Z,3780829.056,NULL,Auftrag,uagizaji,d,NA,NA,NA,NA,sdf,NA,0,NA,NA,NA,NA,NA,NA,NA,NA,NA,NA,NA,NA,NA,NA,NA,NA,NA,NA,NA
2f5ff,"""Falsch""-Screen",canvas.Screen,5_0_0_0_3_0_2,NA,NA,timeout,4996.4750000001,3780826.5999999,3780813.017,3780829.056,3785808.667,3785809.6999998,2023-05-09T16:37:08Z,3785825.531,NULL,Auftrag,uagizaji,d,NA,NA,NA,NA,sdf,0,0,NA,NA,NA,NA,NA,NA,NA,NA,NA,NA,NA,NA,NA,NA,NA,NA,NA,NA,NA
2f5ff,deep,flow.Sequence,5_0_0_0_3_0,NA,NA,completion,8093.6829999997,3777700,3777698.896,3777714.984,3785808.667,3785810.0999999,2023-05-09T16:37:08Z,3785825.531,NULL,Auftrag,uagizaji,d,NA,NA,NA,NA,sdf,NA,0,NA,NA,NA,NA,NA,NA,NA,NA,NA,NA,NA,NA,NA,NA,NA,NA,NA,NA,NA
2f5ff,shallow,flow.Sequence,5_0_0_0_3_1,NA,NA,skipped,NA,3785810.1999998,NA,NA,3785808.667,3785810.5,2023-05-09T16:37:08Z,3785825.531,NULL,Auftrag,uagizaji,d,NA,NA,NA,NA,sdf,NA,0,NA,NA,NA,NA,NA,NA,NA,NA,NA,NA,NA,NA,NA,NA,NA,NA,NA,NA,NA
2f5ff,task,flow.Sequence,5_0_0_0_3,NA,NA,completion,8093.6829999997,3777700,3777698.896,3777714.984,3785808.667,3785810.6999998,2023-05-09T16:37:08Z,3785825.531,NULL,Auftrag,uagizaji,d,NA,NA,NA,NA,sdf,NA,0,NA,NA,NA,NA,NA,NA,NA,NA,NA,NA,NA,NA,NA,NA,NA,NA,NA,NA,NA
2f5ff,Deep Question,html.Page,5_0_0_0_4_0_0,NA,NA,form submission,3571.2689999524,3785810.8999999,3785808.667,3785825.531,3789396.8,3789397,2023-05-09T16:37:11Z,3789405.337,NULL,Sänger,mwimbaji,d,NA,NA,NA,uasn,NA,NA,0,NA,NA,NA,NA,NA,NA,NA,NA,NA,NA,NA,NA,NA,NA,NA,NA,NA,NA,NA
2f5ff,"""Richtig""-Screen",canvas.Screen,5_0_0_0_4_0_1,NA,NA,skipped,NA,3789399.1999998,NA,NA,3789396.8,3789399.3,2023-05-09T16:37:11Z,3789405.337,NULL,Sänger,mwimbaji,d,NA,NA,NA,NA,sdf,NA,0,NA,NA,NA,NA,NA,NA,NA,NA,NA,NA,NA,NA,NA,NA,NA,NA,NA,NA,NA
2f5ff,"""Falsch""-Screen",canvas.Screen,5_0_0_0_4_0_2,NA,NA,timeout,4996.4950000001,3789399.8999999,3789389.329,3789405.337,3794385.163,3794386.1999998,2023-05-09T16:37:16Z,3794401.832,NULL,Sänger,mwimbaji,d,NA,NA,NA,NA,sdf,0,0,NA,NA,NA,NA,NA,NA,NA,NA,NA,NA,NA,NA,NA,NA,NA,NA,NA,NA,NA
2f5ff,deep,flow.Sequence,5_0_0_0_4_0,NA,NA,completion,8559.6320000002,3785810.8,3785808.667,3785825.531,3794385.163,3794386.8,2023-05-09T16:37:16Z,3794401.832,NULL,Sänger,mwimbaji,d,NA,NA,NA,NA,sdf,NA,0,NA,NA,NA,NA,NA,NA,NA,NA,NA,NA,NA,NA,NA,NA,NA,NA,NA,NA,NA
2f5ff,shallow,flow.Sequence,5_0_0_0_4_1,NA,NA,skipped,NA,3794386.8999999,NA,NA,3794385.163,3794387.0999999,2023-05-09T16:37:16Z,3794401.832,NULL,Sänger,mwimbaji,d,NA,NA,NA,NA,sdf,NA,0,NA,NA,NA,NA,NA,NA,NA,NA,NA,NA,NA,NA,NA,NA,NA,NA,NA,NA,NA
2f5ff,task,flow.Sequence,5_0_0_0_4,NA,NA,completion,8559.6320000002,3785810.8,3785808.667,3785825.531,3794385.163,3794387.3999999,2023-05-09T16:37:16Z,3794401.832,NULL,Sänger,mwimbaji,d,NA,NA,NA,NA,sdf,NA,0,NA,NA,NA,NA,NA,NA,NA,NA,NA,NA,NA,NA,NA,NA,NA,NA,NA,NA,NA
2f5ff,deep,flow.Sequence,5_0_0_0_5_0,NA,NA,skipped,NA,3794387.5999999,NA,NA,3794385.163,3794387.8,2023-05-09T16:37:16Z,3794401.832,NULL,Schönheit,kirembo,s,mahojiano,msisimko,jitihadi,NA,sdf,NA,0,NA,NA,NA,NA,NA,NA,NA,NA,NA,NA,NA,NA,NA,NA,NA,NA,NA,NA,NA
2f5ff,Shallow Question,html.Page,5_0_0_0_5_1_0,NA,NA,form submission,4449.067999857,3794387.8999999,3794385.163,3794401.832,3798850.8999999,3798851.0999999,2023-05-09T16:37:21Z,3798864.277,NULL,Schönheit,kirembo,s,mahojiano,msisimko,jitihadi,msisimko,NA,NA,0,NA,NA,NA,NA,NA,NA,NA,NA,NA,NA,NA,NA,NA,NA,NA,NA,NA,NA,NA
2f5ff,"""Richtig""-Screen",canvas.Screen,5_0_0_0_5_1_1,NA,NA,skipped,NA,3798853,NA,NA,3798850.8999999,3798853.1999998,2023-05-09T16:37:21Z,3798864.277,NULL,Schönheit,kirembo,s,mahojiano,msisimko,jitihadi,NA,sdf,NA,0,NA,NA,NA,NA,NA,NA,NA,NA,NA,NA,NA,NA,NA,NA,NA,NA,NA,NA,NA
2f5ff,"""Falsch""-Screen",canvas.Screen,5_0_0_0_5_1_2,NA,NA,timeout,4996.2150000003,3798853.8,3798848.129,3798864.277,3803844.1,3803845.1999998,2023-05-09T16:37:26Z,3803860.492,NULL,Schönheit,kirembo,s,mahojiano,msisimko,jitihadi,NA,sdf,0,0,NA,NA,NA,NA,NA,NA,NA,NA,NA,NA,NA,NA,NA,NA,NA,NA,NA,NA,NA
2f5ff,shallow,flow.Sequence,5_0_0_0_5_1,NA,NA,completion,9442.2680000002,3794387.8999999,3794385.163,3794401.832,3803844.1,3803845.6999998,2023-05-09T16:37:26Z,3803860.492,NULL,Schönheit,kirembo,s,mahojiano,msisimko,jitihadi,NA,sdf,NA,0,NA,NA,NA,NA,NA,NA,NA,NA,NA,NA,NA,NA,NA,NA,NA,NA,NA,NA,NA
2f5ff,task,flow.Sequence,5_0_0_0_5,NA,NA,completion,9442.2680000002,3794387.5999999,3794385.163,3794401.832,3803844.1,3803845.8999999,2023-05-09T16:37:26Z,3803860.492,NULL,Schönheit,kirembo,s,mahojiano,msisimko,jitihadi,NA,sdf,NA,0,NA,NA,NA,NA,NA,NA,NA,NA,NA,NA,NA,NA,NA,NA,NA,NA,NA,NA,NA
2f5ff,deep,flow.Sequence,5_0_0_0_6_0,NA,NA,skipped,NA,3803846.1999998,NA,NA,3803844.1,3803846.3,2023-05-09T16:37:26Z,3803860.492,NULL,Zufall,kikuti,s,kukosekana,uchoraji,leseni,NA,sdf,NA,0,NA,NA,NA,NA,NA,NA,NA,NA,NA,NA,NA,NA,NA,NA,NA,NA,NA,NA,NA
2f5ff,Shallow Question,html.Page,5_0_0_0_6_1_0,NA,NA,form submission,7341.8079999522,3803846.5,3803844.1,3803860.492,3811202.3,3811202.5,2023-05-09T16:37:33Z,3811204.134,NULL,Zufall,kikuti,s,kukosekana,uchoraji,leseni,kikuti,NA,NA,0,NA,NA,NA,NA,NA,NA,NA,NA,NA,NA,NA,NA,NA,NA,NA,NA,NA,NA,NA
2f5ff,"""Richtig""-Screen",canvas.Screen,5_0_0_0_6_1_1,NA,NA,timeout,4996.4669999997,3811204.5,3811187.709,3811204.134,3816183.925,3816184.3999999,2023-05-09T16:37:38Z,3816200.601,NULL,Zufall,kikuti,s,kukosekana,uchoraji,leseni,NA,sdf,1,0,NA,NA,NA,NA,NA,NA,NA,NA,NA,NA,NA,NA,NA,NA,NA,NA,NA,NA,NA
2f5ff,"""Falsch""-Screen",canvas.Screen,5_0_0_0_6_1_2,NA,NA,skipped,NA,3816186.8999999,NA,NA,3816183.925,3816187.0999999,2023-05-09T16:37:38Z,3816200.601,NULL,Zufall,kikuti,s,kukosekana,uchoraji,leseni,NA,sdf,NA,0,NA,NA,NA,NA,NA,NA,NA,NA,NA,NA,NA,NA,NA,NA,NA,NA,NA,NA,NA
2f5ff,shallow,flow.Sequence,5_0_0_0_6_1,NA,NA,completion,12323.433,3803846.5,3803844.1,3803860.492,3816183.925,3816187.3,2023-05-09T16:37:38Z,3816200.601,NULL,Zufall,kikuti,s,kukosekana,uchoraji,leseni,NA,sdf,NA,0,NA,NA,NA,NA,NA,NA,NA,NA,NA,NA,NA,NA,NA,NA,NA,NA,NA,NA,NA
2f5ff,task,flow.Sequence,5_0_0_0_6,NA,NA,completion,12323.433,3803846.0999999,3803844.1,3803860.492,3816183.925,3816187.5,2023-05-09T16:37:38Z,3816200.601,NULL,Zufall,kikuti,s,kukosekana,uchoraji,leseni,NA,sdf,NA,0,NA,NA,NA,NA,NA,NA,NA,NA,NA,NA,NA,NA,NA,NA,NA,NA,NA,NA,NA
2f5ff,Deep Question,html.Page,5_0_0_0_7_0_0,NA,NA,form submission,3060.8990000002,3816187.5999999,3816183.925,3816200.601,3819261.5,3819261.6999998,2023-05-09T16:37:41Z,3819264.133,NULL,Wettbewerb,ushindani,d,NA,NA,NA,ksjf,NA,NA,0,NA,NA,NA,NA,NA,NA,NA,NA,NA,NA,NA,NA,NA,NA,NA,NA,NA,NA,NA
2f5ff,"""Richtig""-Screen",canvas.Screen,5_0_0_0_7_0_1,NA,NA,skipped,NA,3819263.6999998,NA,NA,3819261.5,3819264,2023-05-09T16:37:41Z,3819264.133,NULL,Wettbewerb,ushindani,d,NA,NA,NA,NA,sdf,NA,0,NA,NA,NA,NA,NA,NA,NA,NA,NA,NA,NA,NA,NA,NA,NA,NA,NA,NA,NA
2f5ff,"""Falsch""-Screen",canvas.Screen,5_0_0_0_7_0_2,NA,NA,timeout,4996.5049999999,3819264.6999998,3819247.573,3819264.133,3824243.425,3824244.5,2023-05-09T16:37:46Z,3824260.638,NULL,Wettbewerb,ushindani,d,NA,NA,NA,NA,sdf,0,0,NA,NA,NA,NA,NA,NA,NA,NA,NA,NA,NA,NA,NA,NA,NA,NA,NA,NA,NA
2f5ff,deep,flow.Sequence,5_0_0_0_7_0,NA,NA,completion,8042.824,3816187.5,3816183.925,3816200.601,3824243.425,3824244.8999999,2023-05-09T16:37:46Z,3824260.638,NULL,Wettbewerb,ushindani,d,NA,NA,NA,NA,sdf,NA,0,NA,NA,NA,NA,NA,NA,NA,NA,NA,NA,NA,NA,NA,NA,NA,NA,NA,NA,NA
2f5ff,shallow,flow.Sequence,5_0_0_0_7_1,NA,NA,skipped,NA,3824245,NA,NA,3824243.425,3824245.1999998,2023-05-09T16:37:46Z,3824260.638,NULL,Wettbewerb,ushindani,d,NA,NA,NA,NA,sdf,NA,0,NA,NA,NA,NA,NA,NA,NA,NA,NA,NA,NA,NA,NA,NA,NA,NA,NA,NA,NA
2f5ff,task,flow.Sequence,5_0_0_0_7,NA,NA,completion,8042.824,3816187.5,3816183.925,3816200.601,3824243.425,3824245.5,2023-05-09T16:37:46Z,3824260.638,NULL,Wettbewerb,ushindani,d,NA,NA,NA,NA,sdf,NA,0,NA,NA,NA,NA,NA,NA,NA,NA,NA,NA,NA,NA,NA,NA,NA,NA,NA,NA,NA
2f5ff,block,flow.Loop,5_0_0_0,NA,NA,completion,81232.942,3742998.3999999,3742993.585,3743010.483,3824243.425,3824245.6999998,2023-05-09T16:37:46Z,3824260.638,NULL,NA,NA,NA,NA,NA,NA,NA,sdf,NA,0,NA,NA,NA,NA,NA,NA,NA,NA,NA,NA,NA,NA,NA,NA,NA,NA,NA,NA,NA
2f5ff,weiter,canvas.Screen,5_0_0_1,sdf,keypress(Space),response,1813.0619998095,3824245.8999999,3824243.425,3824260.638,3826073.6999998,3826075.6999998,2023-05-09T16:37:48Z,3826108.533,NULL,NA,NA,NA,NA,NA,NA,NA,sdf,NA,0,NA,NA,NA,NA,NA,NA,NA,NA,NA,NA,NA,NA,NA,NA,NA,NA,NA,NA,NA
2f5ff,check continue,flow.Sequence,5_0_0,NA,NA,completion,83063.216999809,3742998.3,3742993.585,3743010.483,3826073.6999998,3826075.8999999,2023-05-09T16:37:48Z,3826108.533,NULL,NA,NA,NA,NA,NA,NA,NA,sdf,NA,0,NA,NA,NA,NA,NA,NA,NA,NA,NA,NA,NA,NA,NA,NA,NA,NA,NA,NA,NA
2f5ff,deep,flow.Sequence,5_0_1_0_0_0,NA,NA,skipped,NA,3826105.8999999,NA,NA,3826073.6999998,3826106,2023-05-09T16:37:48Z,3826108.533,NULL,Schönheit,kirembo,s,mahojiano,msisimko,jitihadi,NA,sdfdsf,NA,1,NA,NA,NA,NA,NA,NA,NA,NA,NA,NA,NA,NA,NA,NA,NA,NA,NA,NA,NA
2f5ff,Shallow Question,html.Page,5_0_1_0_0_1_0,NA,NA,form submission,5654.1669998094,3826106,3826092.516,3826108.533,3831762.6999998,3831762.8,2023-05-09T16:37:54Z,3831770.736,NULL,Schönheit,kirembo,s,mahojiano,msisimko,jitihadi,kirembo,NA,NA,1,NA,NA,NA,NA,NA,NA,NA,NA,NA,NA,NA,NA,NA,NA,NA,NA,NA,NA,NA
2f5ff,"""Richtig""-Screen",canvas.Screen,5_0_1_0_0_1_1,NA,NA,timeout,4995.7379999999,3831764.5999999,3831754.138,3831770.736,3836749.886,3836751.8,2023-05-09T16:37:59Z,3836766.474,NULL,Schönheit,kirembo,s,mahojiano,msisimko,jitihadi,NA,sdfdsf,1,1,NA,NA,NA,NA,NA,NA,NA,NA,NA,NA,NA,NA,NA,NA,NA,NA,NA,NA,NA
2f5ff,"""Falsch""-Screen",canvas.Screen,5_0_1_0_0_1_2,NA,NA,skipped,NA,3836757.5999999,NA,NA,3836749.886,3836758,2023-05-09T16:37:59Z,3836766.474,NULL,Schönheit,kirembo,s,mahojiano,msisimko,jitihadi,NA,sdfdsf,NA,1,NA,NA,NA,NA,NA,NA,NA,NA,NA,NA,NA,NA,NA,NA,NA,NA,NA,NA,NA
2f5ff,shallow,flow.Sequence,5_0_1_0_0_1,NA,NA,completion,10641.353,3826106,3826092.516,3826108.533,3836749.886,3836758.3999999,2023-05-09T16:37:59Z,3836766.474,NULL,Schönheit,kirembo,s,mahojiano,msisimko,jitihadi,NA,sdfdsf,NA,1,NA,NA,NA,NA,NA,NA,NA,NA,NA,NA,NA,NA,NA,NA,NA,NA,NA,NA,NA
2f5ff,task,flow.Sequence,5_0_1_0_0,NA,NA,completion,10641.353,3826105.8999999,3826092.516,3826108.533,3836749.886,3836758.5999999,2023-05-09T16:37:59Z,3836766.474,NULL,Schönheit,kirembo,s,mahojiano,msisimko,jitihadi,NA,sdfdsf,NA,1,NA,NA,NA,NA,NA,NA,NA,NA,NA,NA,NA,NA,NA,NA,NA,NA,NA,NA,NA
2f5ff,Deep Question,html.Page,5_0_1_0_1_0_0,NA,NA,form submission,7860.1259999047,3836758.8999999,3836749.886,3836766.474,3844626.5999999,3844627,2023-05-09T16:38:06Z,3844643.28,NULL,Angreifer,mshambulizi,d,NA,NA,NA,lk,NA,NA,1,NA,NA,NA,NA,NA,NA,NA,NA,NA,NA,NA,NA,NA,NA,NA,NA,NA,NA,NA
2f5ff,"""Richtig""-Screen",canvas.Screen,5_0_1_0_1_0_1,NA,NA,skipped,NA,3844629.8999999,NA,NA,3844626.5999999,3844630,2023-05-09T16:38:06Z,3844643.28,NULL,Angreifer,mshambulizi,d,NA,NA,NA,NA,sdfdsf,NA,1,NA,NA,NA,NA,NA,NA,NA,NA,NA,NA,NA,NA,NA,NA,NA,NA,NA,NA,NA
2f5ff,"""Falsch""-Screen",canvas.Screen,5_0_1_0_1_0_2,NA,NA,timeout,4996.355,3844630.8,3844626.63,3844643.28,3849622.765,3849623.6999998,2023-05-09T16:38:11Z,3849639.635,NULL,Angreifer,mshambulizi,d,NA,NA,NA,NA,sdfdsf,0,1,NA,NA,NA,NA,NA,NA,NA,NA,NA,NA,NA,NA,NA,NA,NA,NA,NA,NA,NA
2f5ff,deep,flow.Sequence,5_0_1_0_1_0,NA,NA,completion,12856.291,3836758.8999999,3836749.886,3836766.474,3849622.765,3849624.1999998,2023-05-09T16:38:11Z,3849639.635,NULL,Angreifer,mshambulizi,d,NA,NA,NA,NA,sdfdsf,NA,1,NA,NA,NA,NA,NA,NA,NA,NA,NA,NA,NA,NA,NA,NA,NA,NA,NA,NA,NA
2f5ff,shallow,flow.Sequence,5_0_1_0_1_1,NA,NA,skipped,NA,3849624.3999999,NA,NA,3849622.765,3849624.5999999,2023-05-09T16:38:11Z,3849639.635,NULL,Angreifer,mshambulizi,d,NA,NA,NA,NA,sdfdsf,NA,1,NA,NA,NA,NA,NA,NA,NA,NA,NA,NA,NA,NA,NA,NA,NA,NA,NA,NA,NA
2f5ff,task,flow.Sequence,5_0_1_0_1,NA,NA,completion,12856.291,3836758.8,3836749.886,3836766.474,3849622.765,3849624.8,2023-05-09T16:38:11Z,3849639.635,NULL,Angreifer,mshambulizi,d,NA,NA,NA,NA,sdfdsf,NA,1,NA,NA,NA,NA,NA,NA,NA,NA,NA,NA,NA,NA,NA,NA,NA,NA,NA,NA,NA
2f5ff,Deep Question,html.Page,5_0_1_0_2_0_0,NA,NA,form submission,8405.2649998572,3849625,3849622.765,3849639.635,3858044.8999999,3858045.0999999,2023-05-09T16:38:20Z,3858048.93,NULL,Wettbewerb,ushindani,d,NA,NA,NA,dsfö,NA,NA,1,NA,NA,NA,NA,NA,NA,NA,NA,NA,NA,NA,NA,NA,NA,NA,NA,NA,NA,NA
2f5ff,"""Richtig""-Screen",canvas.Screen,5_0_1_0_2_0_1,NA,NA,skipped,NA,3858047.1999998,NA,NA,3858044.8999999,3858047.3999999,2023-05-09T16:38:20Z,3858048.93,NULL,Wettbewerb,ushindani,d,NA,NA,NA,NA,sdfdsf,NA,1,NA,NA,NA,NA,NA,NA,NA,NA,NA,NA,NA,NA,NA,NA,NA,NA,NA,NA,NA
2f5ff,"""Falsch""-Screen",canvas.Screen,5_0_1_0_2_0_2,NA,NA,timeout,4996.642,3858048,3858032.89,3858048.93,3863028.275,3863029.3,2023-05-09T16:38:25Z,3863045.572,NULL,Wettbewerb,ushindani,d,NA,NA,NA,NA,sdfdsf,0,1,NA,NA,NA,NA,NA,NA,NA,NA,NA,NA,NA,NA,NA,NA,NA,NA,NA,NA,NA
2f5ff,deep,flow.Sequence,5_0_1_0_2_0,NA,NA,completion,13388.64,3849624.8999999,3849622.765,3849639.635,3863028.275,3863029.8,2023-05-09T16:38:25Z,3863045.572,NULL,Wettbewerb,ushindani,d,NA,NA,NA,NA,sdfdsf,NA,1,NA,NA,NA,NA,NA,NA,NA,NA,NA,NA,NA,NA,NA,NA,NA,NA,NA,NA,NA
2f5ff,shallow,flow.Sequence,5_0_1_0_2_1,NA,NA,skipped,NA,3863030,NA,NA,3863028.275,3863030.1999998,2023-05-09T16:38:25Z,3863045.572,NULL,Wettbewerb,ushindani,d,NA,NA,NA,NA,sdfdsf,NA,1,NA,NA,NA,NA,NA,NA,NA,NA,NA,NA,NA,NA,NA,NA,NA,NA,NA,NA,NA
2f5ff,task,flow.Sequence,5_0_1_0_2,NA,NA,completion,13388.64,3849624.8999999,3849622.765,3849639.635,3863028.275,3863030.3999999,2023-05-09T16:38:25Z,3863045.572,NULL,Wettbewerb,ushindani,d,NA,NA,NA,NA,sdfdsf,NA,1,NA,NA,NA,NA,NA,NA,NA,NA,NA,NA,NA,NA,NA,NA,NA,NA,NA,NA,NA
2f5ff,deep,flow.Sequence,5_0_1_0_3_0,NA,NA,skipped,NA,3863030.5999999,NA,NA,3863028.275,3863030.6999998,2023-05-09T16:38:25Z,3863045.572,NULL,Zufall,kikuti,s,kukosekana,uchoraji,leseni,NA,sdfdsf,NA,1,NA,NA,NA,NA,NA,NA,NA,NA,NA,NA,NA,NA,NA,NA,NA,NA,NA,NA,NA
2f5ff,Shallow Question,html.Page,5_0_1_0_3_1_0,NA,NA,form submission,6035.6279998091,3863030.8999999,3863028.275,3863045.572,3869081.1999998,3869081.3,2023-05-09T16:38:31Z,3869089.866,NULL,Zufall,kikuti,s,kukosekana,uchoraji,leseni,kikuti,NA,NA,1,NA,NA,NA,NA,NA,NA,NA,NA,NA,NA,NA,NA,NA,NA,NA,NA,NA,NA,NA
2f5ff,"""Richtig""-Screen",canvas.Screen,5_0_1_0_3_1_1,NA,NA,timeout,4996.0350000001,3869083.0999999,3869073.155,3869089.866,3874069.444,3874070.3999999,2023-05-09T16:38:36Z,3874085.901,NULL,Zufall,kikuti,s,kukosekana,uchoraji,leseni,NA,sdfdsf,1,1,NA,NA,NA,NA,NA,NA,NA,NA,NA,NA,NA,NA,NA,NA,NA,NA,NA,NA,NA
2f5ff,"""Falsch""-Screen",canvas.Screen,5_0_1_0_3_1_2,NA,NA,skipped,NA,3874075.6999998,NA,NA,3874069.444,3874076.0999999,2023-05-09T16:38:36Z,3874085.901,NULL,Zufall,kikuti,s,kukosekana,uchoraji,leseni,NA,sdfdsf,NA,1,NA,NA,NA,NA,NA,NA,NA,NA,NA,NA,NA,NA,NA,NA,NA,NA,NA,NA,NA
2f5ff,shallow,flow.Sequence,5_0_1_0_3_1,NA,NA,completion,11023.872,3863030.8999999,3863028.275,3863045.572,3874069.444,3874076.5,2023-05-09T16:38:36Z,3874085.901,NULL,Zufall,kikuti,s,kukosekana,uchoraji,leseni,NA,sdfdsf,NA,1,NA,NA,NA,NA,NA,NA,NA,NA,NA,NA,NA,NA,NA,NA,NA,NA,NA,NA,NA
2f5ff,task,flow.Sequence,5_0_1_0_3,NA,NA,completion,11023.872,3863030.5,3863028.275,3863045.572,3874069.444,3874076.6999998,2023-05-09T16:38:36Z,3874085.901,NULL,Zufall,kikuti,s,kukosekana,uchoraji,leseni,NA,sdfdsf,NA,1,NA,NA,NA,NA,NA,NA,NA,NA,NA,NA,NA,NA,NA,NA,NA,NA,NA,NA,NA
2f5ff,Deep Question,html.Page,5_0_1_0_4_0_0,NA,NA,form submission,5629.2989998092,3874077,3874069.444,3874085.901,3879715.1999998,3879715.5,2023-05-09T16:38:42Z,3879731.11,NULL,Auftrag,uagizaji,d,NA,NA,NA,asdö,NA,NA,1,NA,NA,NA,NA,NA,NA,NA,NA,NA,NA,NA,NA,NA,NA,NA,NA,NA,NA,NA
2f5ff,"""Richtig""-Screen",canvas.Screen,5_0_1_0_4_0_1,NA,NA,skipped,NA,3879717.3999999,NA,NA,3879715.1999998,3879717.5999999,2023-05-09T16:38:42Z,3879731.11,NULL,Auftrag,uagizaji,d,NA,NA,NA,NA,sdfdsf,NA,1,NA,NA,NA,NA,NA,NA,NA,NA,NA,NA,NA,NA,NA,NA,NA,NA,NA,NA,NA
2f5ff,"""Falsch""-Screen",canvas.Screen,5_0_1_0_4_0_2,NA,NA,timeout,4995.9140000003,3879718.0999999,3879714.509,3879731.11,3884710.405,3884710.8999999,2023-05-09T16:38:47Z,3884727.024,NULL,Auftrag,uagizaji,d,NA,NA,NA,NA,sdfdsf,0,1,NA,NA,NA,NA,NA,NA,NA,NA,NA,NA,NA,NA,NA,NA,NA,NA,NA,NA,NA
2f5ff,deep,flow.Sequence,5_0_1_0_4_0,NA,NA,completion,10624.504,3874076.8999999,3874069.444,3874085.901,3884710.405,3884711.0999999,2023-05-09T16:38:47Z,3884727.024,NULL,Auftrag,uagizaji,d,NA,NA,NA,NA,sdfdsf,NA,1,NA,NA,NA,NA,NA,NA,NA,NA,NA,NA,NA,NA,NA,NA,NA,NA,NA,NA,NA
2f5ff,shallow,flow.Sequence,5_0_1_0_4_1,NA,NA,skipped,NA,3884711.1999998,NA,NA,3884710.405,3884711.3,2023-05-09T16:38:47Z,3884727.024,NULL,Auftrag,uagizaji,d,NA,NA,NA,NA,sdfdsf,NA,1,NA,NA,NA,NA,NA,NA,NA,NA,NA,NA,NA,NA,NA,NA,NA,NA,NA,NA,NA
2f5ff,task,flow.Sequence,5_0_1_0_4,NA,NA,completion,10624.504,3874076.8,3874069.444,3874085.901,3884710.405,3884711.3,2023-05-09T16:38:47Z,3884727.024,NULL,Auftrag,uagizaji,d,NA,NA,NA,NA,sdfdsf,NA,1,NA,NA,NA,NA,NA,NA,NA,NA,NA,NA,NA,NA,NA,NA,NA,NA,NA,NA,NA
2f5ff,Deep Question,html.Page,5_0_1_0_5_0_0,NA,NA,form submission,8676.8759998567,3884711.5,3884710.405,3884727.024,3893403.8999999,3893404.1999998,2023-05-09T16:38:55Z,3893420.274,NULL,Sänger,mwimbaji,d,NA,NA,NA,mwahimo,NA,NA,1,NA,NA,NA,NA,NA,NA,NA,NA,NA,NA,NA,NA,NA,NA,NA,NA,NA,NA,NA
2f5ff,"""Richtig""-Screen",canvas.Screen,5_0_1_0_5_0_1,NA,NA,skipped,NA,3893406.3,NA,NA,3893403.8999999,3893406.5,2023-05-09T16:38:55Z,3893420.274,NULL,Sänger,mwimbaji,d,NA,NA,NA,NA,sdfdsf,NA,1,NA,NA,NA,NA,NA,NA,NA,NA,NA,NA,NA,NA,NA,NA,NA,NA,NA,NA,NA
2f5ff,"""Falsch""-Screen",canvas.Screen,5_0_1_0_5_0_2,NA,NA,timeout,4995.7829999998,3893407.0999999,3893387.285,3893420.274,3898399.164,3898402,2023-05-09T16:39:00Z,3898416.057,NULL,Sänger,mwimbaji,d,NA,NA,NA,NA,sdfdsf,0,1,NA,NA,NA,NA,NA,NA,NA,NA,NA,NA,NA,NA,NA,NA,NA,NA,NA,NA,NA
2f5ff,deep,flow.Sequence,5_0_1_0_5_0,NA,NA,completion,13672.14,3884711.3999999,3884710.405,3884727.024,3898399.164,3898402.5999999,2023-05-09T16:39:00Z,3898416.057,NULL,Sänger,mwimbaji,d,NA,NA,NA,NA,sdfdsf,NA,1,NA,NA,NA,NA,NA,NA,NA,NA,NA,NA,NA,NA,NA,NA,NA,NA,NA,NA,NA
2f5ff,shallow,flow.Sequence,5_0_1_0_5_1,NA,NA,skipped,NA,3898402.8,NA,NA,3898399.164,3898403,2023-05-09T16:39:00Z,3898416.057,NULL,Sänger,mwimbaji,d,NA,NA,NA,NA,sdfdsf,NA,1,NA,NA,NA,NA,NA,NA,NA,NA,NA,NA,NA,NA,NA,NA,NA,NA,NA,NA,NA
2f5ff,task,flow.Sequence,5_0_1_0_5,NA,NA,completion,13672.14,3884711.3999999,3884710.405,3884727.024,3898399.164,3898403.1999998,2023-05-09T16:39:00Z,3898416.057,NULL,Sänger,mwimbaji,d,NA,NA,NA,NA,sdfdsf,NA,1,NA,NA,NA,NA,NA,NA,NA,NA,NA,NA,NA,NA,NA,NA,NA,NA,NA,NA,NA
