observation,sender,sender_type,sender_id,response,response_action,ended_on,duration,time_run,time_render,time_show,time_end,time_commit,timestamp,time_switch,german,swahili,enc,distractor1,distractor2,distractor3,response_2,x,correct,distractors,url_vp,url_sess,meta_labjs_version,meta_location,meta_user_agent,meta_platform,meta_language,meta_locale,meta_time_zone,meta_timezone_offset,meta_screen_width,meta_screen_height,meta_scroll_width,meta_scroll_height,meta_window_inner_width,meta_window_inner_height,meta_device_pixel_ratio,meta_labjs_build_flavor,meta_labjs_build_commit
78d4a,Introduction delayed retrieval,canvas.Screen,0,weiter,keypress(Space),response,15135.194,4421.1000000238,4406.007,4489.306,19624.5,19626.100000024,2023-01-22T17:32:23Z,19636.984,NA,NA,NA,NA,NA,NA,NA,NA,NA,NULL,108,2,20.2.4,https://neurocog.fernuni.ch/studies/vweber/delayed%202/index.html?vp=108&sess=2,"Mozilla/5.0 (Windows NT 10.0; Win64; x64) AppleWebKit/537.36 (KHTML, like Gecko) Chrome/109.0.0.0 Safari/537.36",Win32,en-US,en-US,Europe/Berlin,-60,1536,864,1536,674,1536,722,1.25,production,f5b4a49f956347addd546a832a3327688c2c0fef
78d4a,Deep Question,html.Page,1_0_0_0,NA,NA,form submission,27930.016,19626.300000072,19620.413,19636.984,47567,47567.399999976,2023-01-22T17:32:51Z,47585.231,Fleisch,mshakiki,d,kizunguzungu,mshikamano,angusho,k,NA,NA,NULL,NA,NA,NA,NA,NA,NA,NA,NA,NA,NA,NA,NA,NA,NA,NA,NA,NA,NA,NA
78d4a,Save data screen,canvas.Screen,1_0_0_1,NA,NA,timeout,497.439,47568.5,47549.413,47585.231,48065.999,48067.100000024,2023-01-22T17:32:51Z,48082.67,Fleisch,mshakiki,d,kizunguzungu,mshikamano,angusho,NA,NA,0,NULL,NA,NA,NA,NA,NA,NA,NA,NA,NA,NA,NA,NA,NA,NA,NA,NA,NA,NA,NA
78d4a,deep,flow.Sequence,1_0_0,NA,NA,completion,28429.015,19626.300000072,19620.413,19636.984,48065.999,48067.5,2023-01-22T17:32:51Z,48082.67,Fleisch,mshakiki,d,kizunguzungu,mshikamano,angusho,NA,NA,NA,NULL,NA,NA,NA,NA,NA,NA,NA,NA,NA,NA,NA,NA,NA,NA,NA,NA,NA,NA,NA
78d4a,task,flow.Sequence,1_0,NA,NA,completion,28429.015,19626.300000072,19620.413,19636.984,48065.999,48067.800000072,2023-01-22T17:32:51Z,48082.67,Fleisch,mshakiki,d,kizunguzungu,mshikamano,angusho,NA,NA,NA,NULL,NA,NA,NA,NA,NA,NA,NA,NA,NA,NA,NA,NA,NA,NA,NA,NA,NA,NA,NA
78d4a,Deep Question,html.Page,1_1_0_0,NA,NA,form submission,20932.33,48067.899999976,48065.999,48082.67,69015,69015.399999976,2023-01-22T17:33:12Z,69029.506,Respekt,heshima,d,changamnao,upinzani,ufanisi,uawe,NA,NA,NULL,NA,NA,NA,NA,NA,NA,NA,NA,NA,NA,NA,NA,NA,NA,NA,NA,NA,NA,NA
78d4a,Save data screen,canvas.Screen,1_1_0_1,NA,NA,timeout,499.86300000001,69019.200000048,69012.774,69029.506,69512.709,69513.5,2023-01-22T17:33:13Z,69529.369,Respekt,heshima,d,changamnao,upinzani,ufanisi,NA,NA,0,NULL,NA,NA,NA,NA,NA,NA,NA,NA,NA,NA,NA,NA,NA,NA,NA,NA,NA,NA,NA
78d4a,deep,flow.Sequence,1_1_0,NA,NA,completion,21430.039,48067.899999976,48065.999,48082.67,69512.709,69513.899999976,2023-01-22T17:33:13Z,69529.369,Respekt,heshima,d,changamnao,upinzani,ufanisi,NA,NA,NA,NULL,NA,NA,NA,NA,NA,NA,NA,NA,NA,NA,NA,NA,NA,NA,NA,NA,NA,NA,NA
78d4a,task,flow.Sequence,1_1,NA,NA,completion,21430.039,48067.899999976,48065.999,48082.67,69512.709,69514.100000024,2023-01-22T17:33:13Z,69529.369,Respekt,heshima,d,changamnao,upinzani,ufanisi,NA,NA,NA,NULL,NA,NA,NA,NA,NA,NA,NA,NA,NA,NA,NA,NA,NA,NA,NA,NA,NA,NA,NA
78d4a,Deep Question,html.Page,1_2_0_0,NA,NA,form submission,22042.931000072,69514.600000024,69512.709,69529.369,91572.300000072,91572.800000072,2023-01-22T17:33:35Z,91576.012,Papier,karatasi,d,uchambuzi,usalama,kukataliwa,ubiwanje,NA,NA,NULL,NA,NA,NA,NA,NA,NA,NA,NA,NA,NA,NA,NA,NA,NA,NA,NA,NA,NA,NA
78d4a,Save data screen,canvas.Screen,1_2_0_1,NA,NA,timeout,499.917,91576.600000024,91559.316,91576.012,92059.251,92060.100000024,2023-01-22T17:33:35Z,92075.929,Papier,karatasi,d,uchambuzi,usalama,kukataliwa,NA,NA,0,NULL,NA,NA,NA,NA,NA,NA,NA,NA,NA,NA,NA,NA,NA,NA,NA,NA,NA,NA,NA
78d4a,deep,flow.Sequence,1_2_0,NA,NA,completion,22529.882,69514.399999976,69512.709,69529.369,92059.251,92060.600000024,2023-01-22T17:33:35Z,92075.929,Papier,karatasi,d,uchambuzi,usalama,kukataliwa,NA,NA,NA,NULL,NA,NA,NA,NA,NA,NA,NA,NA,NA,NA,NA,NA,NA,NA,NA,NA,NA,NA,NA
78d4a,task,flow.Sequence,1_2,NA,NA,completion,22529.882,69514.300000072,69512.709,69529.369,92059.251,92061.100000024,2023-01-22T17:33:35Z,92075.929,Papier,karatasi,d,uchambuzi,usalama,kukataliwa,NA,NA,NA,NULL,NA,NA,NA,NA,NA,NA,NA,NA,NA,NA,NA,NA,NA,NA,NA,NA,NA,NA,NA
78d4a,Deep Question,html.Page,1_3_0_0,NA,NA,form submission,8167.9709999762,92061.5,92059.251,92075.929,100243.89999998,100244.30000007,2023-01-22T17:33:43Z,100258.146,Niveau,kiwango,d,usimamizi,mwamali,mshairi,k,NA,NA,NULL,NA,NA,NA,NA,NA,NA,NA,NA,NA,NA,NA,NA,NA,NA,NA,NA,NA,NA,NA
78d4a,Save data screen,canvas.Screen,1_3_0_1,NA,NA,timeout,499.79500000001,100248.10000002,100241.345,100258.146,100741.276,100742,2023-01-22T17:33:44Z,100757.941,Niveau,kiwango,d,usimamizi,mwamali,mshairi,NA,NA,0,NULL,NA,NA,NA,NA,NA,NA,NA,NA,NA,NA,NA,NA,NA,NA,NA,NA,NA,NA,NA
78d4a,deep,flow.Sequence,1_3_0,NA,NA,completion,8665.347,92061.5,92059.251,92075.929,100741.276,100742.39999998,2023-01-22T17:33:44Z,100757.941,Niveau,kiwango,d,usimamizi,mwamali,mshairi,NA,NA,NA,NULL,NA,NA,NA,NA,NA,NA,NA,NA,NA,NA,NA,NA,NA,NA,NA,NA,NA,NA,NA
78d4a,task,flow.Sequence,1_3,NA,NA,completion,8665.347,92061.300000072,92059.251,92075.929,100741.276,100742.80000007,2023-01-22T17:33:44Z,100757.941,Niveau,kiwango,d,usimamizi,mwamali,mshairi,NA,NA,NA,NULL,NA,NA,NA,NA,NA,NA,NA,NA,NA,NA,NA,NA,NA,NA,NA,NA,NA,NA,NA
78d4a,Deep Question,html.Page,1_4_0_0,NA,NA,form submission,10075.458999976,100743.10000002,100741.276,100757.941,110833.39999998,110833.80000007,2023-01-22T17:33:54Z,110839.723,Vorwurf,mashtaka,s,msukumo,mtangulizi,uenyekiti,k,NA,NA,NULL,NA,NA,NA,NA,NA,NA,NA,NA,NA,NA,NA,NA,NA,NA,NA,NA,NA,NA,NA
78d4a,Save data screen,canvas.Screen,1_4_0_1,NA,NA,timeout,499.932,110837.60000002,110823.05,110839.723,111323.001,111323.70000005,2023-01-22T17:33:55Z,111339.655,Vorwurf,mashtaka,s,msukumo,mtangulizi,uenyekiti,NA,NA,0,NULL,NA,NA,NA,NA,NA,NA,NA,NA,NA,NA,NA,NA,NA,NA,NA,NA,NA,NA,NA
78d4a,deep,flow.Sequence,1_4_0,NA,NA,completion,10565.06,100743,100741.276,100757.941,111323.001,111324.10000002,2023-01-22T17:33:55Z,111339.655,Vorwurf,mashtaka,s,msukumo,mtangulizi,uenyekiti,NA,NA,NA,NULL,NA,NA,NA,NA,NA,NA,NA,NA,NA,NA,NA,NA,NA,NA,NA,NA,NA,NA,NA
78d4a,task,flow.Sequence,1_4,NA,NA,completion,10565.06,100743,100741.276,100757.941,111323.001,111324.39999998,2023-01-22T17:33:55Z,111339.655,Vorwurf,mashtaka,s,msukumo,mtangulizi,uenyekiti,NA,NA,NA,NULL,NA,NA,NA,NA,NA,NA,NA,NA,NA,NA,NA,NA,NA,NA,NA,NA,NA,NA,NA
78d4a,Deep Question,html.Page,1_5_0_0,NA,NA,form submission,4277.9450000238,111324.70000005,111323.001,111339.655,115617.60000002,115618.20000005,2023-01-22T17:33:59Z,115622.362,Orientierung,urekebisho,d,uelekeo,marekebisho,utunzaji,k,NA,NA,NULL,NA,NA,NA,NA,NA,NA,NA,NA,NA,NA,NA,NA,NA,NA,NA,NA,NA,NA,NA
78d4a,Save data screen,canvas.Screen,1_5_0_1,NA,NA,timeout,499.88900000001,115622.20000005,115605.663,115622.362,116105.57,116106.30000007,2023-01-22T17:33:59Z,116122.251,Orientierung,urekebisho,d,uelekeo,marekebisho,utunzaji,NA,NA,0,NULL,NA,NA,NA,NA,NA,NA,NA,NA,NA,NA,NA,NA,NA,NA,NA,NA,NA,NA,NA
78d4a,deep,flow.Sequence,1_5_0,NA,NA,completion,4765.915,111324.60000002,111323.001,111339.655,116105.57,116106.70000005,2023-01-22T17:33:59Z,116122.251,Orientierung,urekebisho,d,uelekeo,marekebisho,utunzaji,NA,NA,NA,NULL,NA,NA,NA,NA,NA,NA,NA,NA,NA,NA,NA,NA,NA,NA,NA,NA,NA,NA,NA
78d4a,task,flow.Sequence,1_5,NA,NA,completion,4765.915,111324.60000002,111323.001,111339.655,116105.57,116106.89999998,2023-01-22T17:33:59Z,116122.251,Orientierung,urekebisho,d,uelekeo,marekebisho,utunzaji,NA,NA,NA,NULL,NA,NA,NA,NA,NA,NA,NA,NA,NA,NA,NA,NA,NA,NA,NA,NA,NA,NA,NA
78d4a,Deep Question,html.Page,1_6_0_0,NA,NA,form submission,4241.5490000715,116107.30000007,116105.57,116122.251,120363.80000007,120364.20000005,2023-01-22T17:34:04Z,120371.592,Flexibilität,kubadilika,s,enjini,usikilivu,hesabu,k,NA,NA,NULL,NA,NA,NA,NA,NA,NA,NA,NA,NA,NA,NA,NA,NA,NA,NA,NA,NA,NA,NA
78d4a,Save data screen,canvas.Screen,1_6_0_1,NA,NA,timeout,499.939,120367.30000007,120354.941,120371.592,120854.865,120855.5,2023-01-22T17:34:04Z,120871.531,Flexibilität,kubadilika,s,enjini,usikilivu,hesabu,NA,NA,0,NULL,NA,NA,NA,NA,NA,NA,NA,NA,NA,NA,NA,NA,NA,NA,NA,NA,NA,NA,NA
78d4a,deep,flow.Sequence,1_6_0,NA,NA,completion,4732.614,116107.30000007,116105.57,116122.251,120854.865,120855.89999998,2023-01-22T17:34:04Z,120871.531,Flexibilität,kubadilika,s,enjini,usikilivu,hesabu,NA,NA,NA,NULL,NA,NA,NA,NA,NA,NA,NA,NA,NA,NA,NA,NA,NA,NA,NA,NA,NA,NA,NA
78d4a,task,flow.Sequence,1_6,NA,NA,completion,4732.614,116107.20000005,116105.57,116122.251,120854.865,120856.20000005,2023-01-22T17:34:04Z,120871.531,Flexibilität,kubadilika,s,enjini,usikilivu,hesabu,NA,NA,NA,NULL,NA,NA,NA,NA,NA,NA,NA,NA,NA,NA,NA,NA,NA,NA,NA,NA,NA,NA,NA
78d4a,Deep Question,html.Page,1_7_0_0,NA,NA,form submission,15627.269000072,120856.5,120854.865,120871.531,136498.80000007,136499.10000002,2023-01-22T17:34:20Z,136502.486,Erneuerung,ukarabati,d,ushawishi,ukalifu,unyonyaji,k,NA,NA,NULL,NA,NA,NA,NA,NA,NA,NA,NA,NA,NA,NA,NA,NA,NA,NA,NA,NA,NA,NA
78d4a,Save data screen,canvas.Screen,1_7_0_1,NA,NA,timeout,499.91399999999,136501.80000007,136485.787,136502.486,136985.704,136986.20000005,2023-01-22T17:34:20Z,137002.4,Erneuerung,ukarabati,d,ushawishi,ukalifu,unyonyaji,NA,NA,0,NULL,NA,NA,NA,NA,NA,NA,NA,NA,NA,NA,NA,NA,NA,NA,NA,NA,NA,NA,NA
78d4a,deep,flow.Sequence,1_7_0,NA,NA,completion,16114.173,120856.39999998,120854.865,120871.531,136985.704,136986.39999998,2023-01-22T17:34:20Z,137002.4,Erneuerung,ukarabati,d,ushawishi,ukalifu,unyonyaji,NA,NA,NA,NULL,NA,NA,NA,NA,NA,NA,NA,NA,NA,NA,NA,NA,NA,NA,NA,NA,NA,NA,NA
78d4a,task,flow.Sequence,1_7,NA,NA,completion,16114.173,120856.30000007,120854.865,120871.531,136985.704,136986.60000002,2023-01-22T17:34:20Z,137002.4,Erneuerung,ukarabati,d,ushawishi,ukalifu,unyonyaji,NA,NA,NA,NULL,NA,NA,NA,NA,NA,NA,NA,NA,NA,NA,NA,NA,NA,NA,NA,NA,NA,NA,NA
78d4a,Deep Question,html.Page,1_8_0_0,NA,NA,form submission,9407.4999999762,136986.70000005,136985.704,137002.4,146409.89999998,146410.30000007,2023-01-22T17:34:30Z,146417.637,Atmosphäre,angahewa,s,kuteseka,usahihi,kutoamini,k,NA,NA,NULL,NA,NA,NA,NA,NA,NA,NA,NA,NA,NA,NA,NA,NA,NA,NA,NA,NA,NA,NA
78d4a,Save data screen,canvas.Screen,1_8_0_1,NA,NA,timeout,499.92800000001,146412.89999998,146400.965,146417.637,146900.845,146901.30000007,2023-01-22T17:34:30Z,146917.565,Atmosphäre,angahewa,s,kuteseka,usahihi,kutoamini,NA,NA,0,NULL,NA,NA,NA,NA,NA,NA,NA,NA,NA,NA,NA,NA,NA,NA,NA,NA,NA,NA,NA
78d4a,deep,flow.Sequence,1_8_0,NA,NA,completion,9898.445,136986.70000005,136985.704,137002.4,146900.845,146901.70000005,2023-01-22T17:34:30Z,146917.565,Atmosphäre,angahewa,s,kuteseka,usahihi,kutoamini,NA,NA,NA,NULL,NA,NA,NA,NA,NA,NA,NA,NA,NA,NA,NA,NA,NA,NA,NA,NA,NA,NA,NA
78d4a,task,flow.Sequence,1_8,NA,NA,completion,9898.445,136986.70000005,136985.704,137002.4,146900.845,146902,2023-01-22T17:34:30Z,146917.565,Atmosphäre,angahewa,s,kuteseka,usahihi,kutoamini,NA,NA,NA,NULL,NA,NA,NA,NA,NA,NA,NA,NA,NA,NA,NA,NA,NA,NA,NA,NA,NA,NA,NA
78d4a,Deep Question,html.Page,1_9_0_0,NA,NA,form submission,11746.535000024,146902.10000002,146900.845,146917.565,158664.10000002,158664.60000002,2023-01-22T17:34:42Z,158665.745,Genehmigung,idhini,s,mwanamke,itikadi,fedheha,k,NA,NA,NULL,NA,NA,NA,NA,NA,NA,NA,NA,NA,NA,NA,NA,NA,NA,NA,NA,NA,NA,NA
78d4a,Save data screen,canvas.Screen,1_9_0_1,NA,NA,timeout,499.954,158667.70000005,158649.07,158665.745,159149.035,159149.80000007,2023-01-22T17:34:42Z,159165.699,Genehmigung,idhini,s,mwanamke,itikadi,fedheha,NA,NA,0,NULL,NA,NA,NA,NA,NA,NA,NA,NA,NA,NA,NA,NA,NA,NA,NA,NA,NA,NA,NA
78d4a,deep,flow.Sequence,1_9_0,NA,NA,completion,12231.47,146902.10000002,146900.845,146917.565,159149.035,159150.30000007,2023-01-22T17:34:42Z,159165.699,Genehmigung,idhini,s,mwanamke,itikadi,fedheha,NA,NA,NA,NULL,NA,NA,NA,NA,NA,NA,NA,NA,NA,NA,NA,NA,NA,NA,NA,NA,NA,NA,NA
78d4a,task,flow.Sequence,1_9,NA,NA,completion,12231.47,146902,146900.845,146917.565,159149.035,159150.60000002,2023-01-22T17:34:42Z,159165.699,Genehmigung,idhini,s,mwanamke,itikadi,fedheha,NA,NA,NA,NULL,NA,NA,NA,NA,NA,NA,NA,NA,NA,NA,NA,NA,NA,NA,NA,NA,NA,NA,NA
78d4a,Deep Question,html.Page,1_10_0_0,NA,NA,form submission,9937.7009999762,159150.89999998,159149.035,159165.699,169103.39999998,169104,2023-01-22T17:34:52Z,169114.144,Begegnung,kukutana,s,mmasihiya,mpiganaji,husiano,k,NA,NA,NULL,NA,NA,NA,NA,NA,NA,NA,NA,NA,NA,NA,NA,NA,NA,NA,NA,NA,NA,NA
78d4a,Save data screen,canvas.Screen,1_10_0_1,NA,NA,timeout,499.946,169108,169097.48,169114.144,169597.425,169598.20000005,2023-01-22T17:34:53Z,169614.09,Begegnung,kukutana,s,mmasihiya,mpiganaji,husiano,NA,NA,0,NULL,NA,NA,NA,NA,NA,NA,NA,NA,NA,NA,NA,NA,NA,NA,NA,NA,NA,NA,NA
78d4a,deep,flow.Sequence,1_10_0,NA,NA,completion,10431.726,159150.89999998,159149.035,159165.699,169597.425,169598.5,2023-01-22T17:34:53Z,169614.09,Begegnung,kukutana,s,mmasihiya,mpiganaji,husiano,NA,NA,NA,NULL,NA,NA,NA,NA,NA,NA,NA,NA,NA,NA,NA,NA,NA,NA,NA,NA,NA,NA,NA
78d4a,task,flow.Sequence,1_10,NA,NA,completion,10431.726,159150.80000007,159149.035,159165.699,169597.425,169598.89999998,2023-01-22T17:34:53Z,169614.09,Begegnung,kukutana,s,mmasihiya,mpiganaji,husiano,NA,NA,NA,NULL,NA,NA,NA,NA,NA,NA,NA,NA,NA,NA,NA,NA,NA,NA,NA,NA,NA,NA,NA
78d4a,Deep Question,html.Page,1_11_0_0,NA,NA,form submission,26119.41,169599,169597.425,169614.09,195733.5,195733.89999998,2023-01-22T17:35:19Z,195743.392,Wechsel,ugeuzaji,d,utambulisho,kujenga,wasiwasi,k,NA,NA,NULL,NA,NA,NA,NA,NA,NA,NA,NA,NA,NA,NA,NA,NA,NA,NA,NA,NA,NA,NA
78d4a,Save data screen,canvas.Screen,1_11_0_1,NA,NA,timeout,499.959,195737.5,195726.756,195743.392,196226.667,196227.39999998,2023-01-22T17:35:19Z,196243.351,Wechsel,ugeuzaji,d,utambulisho,kujenga,wasiwasi,NA,NA,0,NULL,NA,NA,NA,NA,NA,NA,NA,NA,NA,NA,NA,NA,NA,NA,NA,NA,NA,NA,NA
78d4a,deep,flow.Sequence,1_11_0,NA,NA,completion,26612.577,169599,169597.425,169614.09,196226.667,196227.70000005,2023-01-22T17:35:19Z,196243.351,Wechsel,ugeuzaji,d,utambulisho,kujenga,wasiwasi,NA,NA,NA,NULL,NA,NA,NA,NA,NA,NA,NA,NA,NA,NA,NA,NA,NA,NA,NA,NA,NA,NA,NA
78d4a,task,flow.Sequence,1_11,NA,NA,completion,26612.577,169599,169597.425,169614.09,196226.667,196228,2023-01-22T17:35:19Z,196243.351,Wechsel,ugeuzaji,d,utambulisho,kujenga,wasiwasi,NA,NA,NA,NULL,NA,NA,NA,NA,NA,NA,NA,NA,NA,NA,NA,NA,NA,NA,NA,NA,NA,NA,NA
78d4a,Deep Question,html.Page,1_12_0_0,NA,NA,form submission,27651.949000072,196228.20000005,196226.667,196243.351,223895.30000007,223895.70000005,2023-01-22T17:35:47Z,223905.779,Stimmung,kinyongo,s,kilekile,kisambo,madhehebu,k,NA,NA,NULL,NA,NA,NA,NA,NA,NA,NA,NA,NA,NA,NA,NA,NA,NA,NA,NA,NA,NA,NA
78d4a,Save data screen,canvas.Screen,1_12_0_1,NA,NA,timeout,499.92799999999,223899.39999998,223889.126,223905.779,224389.076,224389.80000007,2023-01-22T17:35:48Z,224405.707,Stimmung,kinyongo,s,kilekile,kisambo,madhehebu,NA,NA,0,NULL,NA,NA,NA,NA,NA,NA,NA,NA,NA,NA,NA,NA,NA,NA,NA,NA,NA,NA,NA
78d4a,deep,flow.Sequence,1_12_0,NA,NA,completion,28145.725,196228.20000005,196226.667,196243.351,224389.076,224390.10000002,2023-01-22T17:35:48Z,224405.707,Stimmung,kinyongo,s,kilekile,kisambo,madhehebu,NA,NA,NA,NULL,NA,NA,NA,NA,NA,NA,NA,NA,NA,NA,NA,NA,NA,NA,NA,NA,NA,NA,NA
78d4a,task,flow.Sequence,1_12,NA,NA,completion,28145.725,196228.20000005,196226.667,196243.351,224389.076,224390.30000007,2023-01-22T17:35:48Z,224405.707,Stimmung,kinyongo,s,kilekile,kisambo,madhehebu,NA,NA,NA,NULL,NA,NA,NA,NA,NA,NA,NA,NA,NA,NA,NA,NA,NA,NA,NA,NA,NA,NA,NA
78d4a,Deep Question,html.Page,1_13_0_0,NA,NA,form submission,5761.4930000477,224390.5,224389.076,224405.707,230167.20000005,230167.5,2023-01-22T17:35:53Z,230171.501,Integrität,uadilifu,d,muungano,mtiririko,upunguaji,k,NA,NA,NULL,NA,NA,NA,NA,NA,NA,NA,NA,NA,NA,NA,NA,NA,NA,NA,NA,NA,NA,NA
78d4a,Save data screen,canvas.Screen,1_13_0_1,NA,NA,timeout,499.91,230170,230154.835,230171.501,230654.743,230655.30000007,2023-01-22T17:35:54Z,230671.411,Integrität,uadilifu,d,muungano,mtiririko,upunguaji,NA,NA,0,NULL,NA,NA,NA,NA,NA,NA,NA,NA,NA,NA,NA,NA,NA,NA,NA,NA,NA,NA,NA
78d4a,deep,flow.Sequence,1_13_0,NA,NA,completion,6249.036,224390.5,224389.076,224405.707,230654.743,230655.5,2023-01-22T17:35:54Z,230671.411,Integrität,uadilifu,d,muungano,mtiririko,upunguaji,NA,NA,NA,NULL,NA,NA,NA,NA,NA,NA,NA,NA,NA,NA,NA,NA,NA,NA,NA,NA,NA,NA,NA
78d4a,task,flow.Sequence,1_13,NA,NA,completion,6249.036,224390.39999998,224389.076,224405.707,230654.743,230655.70000005,2023-01-22T17:35:54Z,230671.411,Integrität,uadilifu,d,muungano,mtiririko,upunguaji,NA,NA,NA,NULL,NA,NA,NA,NA,NA,NA,NA,NA,NA,NA,NA,NA,NA,NA,NA,NA,NA,NA,NA
78d4a,Deep Question,html.Page,1_14_0_0,NA,NA,form submission,4173.8890000715,230655.80000007,230654.743,230671.411,234845.30000007,234845.60000002,2023-01-22T17:35:58Z,234854.111,Entwicklung,maendeleo,s,uangavu,mshindwa,badiliko,k,NA,NA,NULL,NA,NA,NA,NA,NA,NA,NA,NA,NA,NA,NA,NA,NA,NA,NA,NA,NA,NA,NA
78d4a,Save data screen,canvas.Screen,1_14_0_1,NA,NA,timeout,499.97999999998,234848.70000005,234837.437,234854.111,235337.351,235338,2023-01-22T17:35:59Z,235354.091,Entwicklung,maendeleo,s,uangavu,mshindwa,badiliko,NA,NA,0,NULL,NA,NA,NA,NA,NA,NA,NA,NA,NA,NA,NA,NA,NA,NA,NA,NA,NA,NA,NA
78d4a,deep,flow.Sequence,1_14_0,NA,NA,completion,4665.94,230655.70000005,230654.743,230671.411,235337.351,235338.30000007,2023-01-22T17:35:59Z,235354.091,Entwicklung,maendeleo,s,uangavu,mshindwa,badiliko,NA,NA,NA,NULL,NA,NA,NA,NA,NA,NA,NA,NA,NA,NA,NA,NA,NA,NA,NA,NA,NA,NA,NA
78d4a,task,flow.Sequence,1_14,NA,NA,completion,4665.94,230655.70000005,230654.743,230671.411,235337.351,235338.5,2023-01-22T17:35:59Z,235354.091,Entwicklung,maendeleo,s,uangavu,mshindwa,badiliko,NA,NA,NA,NULL,NA,NA,NA,NA,NA,NA,NA,NA,NA,NA,NA,NA,NA,NA,NA,NA,NA,NA,NA
78d4a,Deep Question,html.Page,1_15_0_0,NA,NA,form submission,32145.808999976,235338.70000005,235337.351,235354.091,267499.89999998,267500.20000005,2023-01-22T17:36:31Z,267522.459,Betrüger,mdanganyifu,s,mwanamuziki,wastani,mahakama,mshamizili,NA,NA,NULL,NA,NA,NA,NA,NA,NA,NA,NA,NA,NA,NA,NA,NA,NA,NA,NA,NA,NA,NA
78d4a,Save data screen,canvas.Screen,1_15_0_1,NA,NA,timeout,493.30700000003,267502.89999998,267482.44,267522.459,267999.025,267999.60000002,2023-01-22T17:36:31Z,268015.766,Betrüger,mdanganyifu,s,mwanamuziki,wastani,mahakama,NA,NA,0,NULL,NA,NA,NA,NA,NA,NA,NA,NA,NA,NA,NA,NA,NA,NA,NA,NA,NA,NA,NA
78d4a,deep,flow.Sequence,1_15_0,NA,NA,completion,32644.934,235338.60000002,235337.351,235354.091,267999.025,267999.89999998,2023-01-22T17:36:31Z,268015.766,Betrüger,mdanganyifu,s,mwanamuziki,wastani,mahakama,NA,NA,NA,NULL,NA,NA,NA,NA,NA,NA,NA,NA,NA,NA,NA,NA,NA,NA,NA,NA,NA,NA,NA
78d4a,task,flow.Sequence,1_15,NA,NA,completion,32644.934,235338.60000002,235337.351,235354.091,267999.025,268000.20000005,2023-01-22T17:36:31Z,268015.766,Betrüger,mdanganyifu,s,mwanamuziki,wastani,mahakama,NA,NA,NA,NULL,NA,NA,NA,NA,NA,NA,NA,NA,NA,NA,NA,NA,NA,NA,NA,NA,NA,NA,NA
78d4a,retrieval block 1 (cued recall),flow.Loop,1,NA,NA,completion,248362.041,19626.300000072,19620.413,19636.984,267999.025,268000.5,2023-01-22T17:36:31Z,268015.766,NA,NA,NA,NA,NA,NA,NA,NA,NA,NULL,NA,NA,NA,NA,NA,NA,NA,NA,NA,NA,NA,NA,NA,NA,NA,NA,NA,NA,NA
78d4a,Shallow Question,html.Page,2_0_0_0,NA,NA,form submission,6503.734,268000.80000007,267999.025,268015.766,274519.5,274519.89999998,2023-01-22T17:36:38Z,274531.485,Papier,karatasi,d,uchambuzi,usalama,kukataliwa,karatasi,NA,NA,"c(""distractor1"", ""distractor2"", ""distractor3"")",NA,NA,NA,NA,NA,NA,NA,NA,NA,NA,NA,NA,NA,NA,NA,NA,NA,NA,NA
78d4a,Save data screen,canvas.Screen,2_0_0_1,NA,NA,timeout,499.80200000003,274522.10000002,274514.707,274531.485,275014.604,275015.10000002,2023-01-22T17:36:38Z,275031.287,Papier,karatasi,d,uchambuzi,usalama,kukataliwa,NA,NA,1,"c(""distractor1"", ""distractor2"", ""distractor3"")",NA,NA,NA,NA,NA,NA,NA,NA,NA,NA,NA,NA,NA,NA,NA,NA,NA,NA,NA
78d4a,shallow,flow.Sequence,2_0_0,NA,NA,completion,6998.838,268000.70000005,267999.025,268015.766,275014.604,275015.30000007,2023-01-22T17:36:38Z,275031.287,Papier,karatasi,d,uchambuzi,usalama,kukataliwa,NA,NA,NA,"c(""distractor1"", ""distractor2"", ""distractor3"")",NA,NA,NA,NA,NA,NA,NA,NA,NA,NA,NA,NA,NA,NA,NA,NA,NA,NA,NA
78d4a,task,flow.Sequence,2_0,NA,NA,completion,6998.838,268000.70000005,267999.025,268015.766,275014.604,275015.5,2023-01-22T17:36:38Z,275031.287,Papier,karatasi,d,uchambuzi,usalama,kukataliwa,NA,NA,NA,"c(""distractor1"", ""distractor2"", ""distractor3"")",NA,NA,NA,NA,NA,NA,NA,NA,NA,NA,NA,NA,NA,NA,NA,NA,NA,NA,NA
78d4a,Shallow Question,html.Page,2_1_0_0,NA,NA,form submission,8411.4130000477,275015.5,275014.604,275031.287,283442.70000005,283443.10000002,2023-01-22T17:36:47Z,283446.686,Begegnung,kukutana,s,mmasihiya,mpiganaji,husiano,mpiganaji,NA,NA,"c(""distractor1"", ""distractor2"", ""distractor3"")",NA,NA,NA,NA,NA,NA,NA,NA,NA,NA,NA,NA,NA,NA,NA,NA,NA,NA,NA
78d4a,Save data screen,canvas.Screen,2_1_0_1,NA,NA,timeout,499.91200000001,283446,283430.007,283446.686,283929.938,283930.60000002,2023-01-22T17:36:47Z,283946.598,Begegnung,kukutana,s,mmasihiya,mpiganaji,husiano,NA,NA,0,"c(""distractor1"", ""distractor2"", ""distractor3"")",NA,NA,NA,NA,NA,NA,NA,NA,NA,NA,NA,NA,NA,NA,NA,NA,NA,NA,NA
78d4a,shallow,flow.Sequence,2_1_0,NA,NA,completion,8898.651,275015.5,275014.604,275031.287,283929.938,283930.89999998,2023-01-22T17:36:47Z,283946.598,Begegnung,kukutana,s,mmasihiya,mpiganaji,husiano,NA,NA,NA,"c(""distractor1"", ""distractor2"", ""distractor3"")",NA,NA,NA,NA,NA,NA,NA,NA,NA,NA,NA,NA,NA,NA,NA,NA,NA,NA,NA
78d4a,task,flow.Sequence,2_1,NA,NA,completion,8898.651,275015.5,275014.604,275031.287,283929.938,283931.20000005,2023-01-22T17:36:47Z,283946.598,Begegnung,kukutana,s,mmasihiya,mpiganaji,husiano,NA,NA,NA,"c(""distractor1"", ""distractor2"", ""distractor3"")",NA,NA,NA,NA,NA,NA,NA,NA,NA,NA,NA,NA,NA,NA,NA,NA,NA,NA,NA
78d4a,Shallow Question,html.Page,2_2_0_0,NA,NA,form submission,5024.5020000238,283931.39999998,283929.938,283946.598,288971.10000002,288971.39999998,2023-01-22T17:36:52Z,288979.151,Orientierung,urekebisho,d,uelekeo,marekebisho,utunzaji,utunzaji,NA,NA,"c(""distractor1"", ""distractor2"", ""distractor3"")",NA,NA,NA,NA,NA,NA,NA,NA,NA,NA,NA,NA,NA,NA,NA,NA,NA,NA,NA
78d4a,Save data screen,canvas.Screen,2_2_0_1,NA,NA,timeout,499.93699999998,288975.20000005,288962.495,288979.151,289462.412,289462.89999998,2023-01-22T17:36:53Z,289479.088,Orientierung,urekebisho,d,uelekeo,marekebisho,utunzaji,NA,NA,0,"c(""distractor1"", ""distractor2"", ""distractor3"")",NA,NA,NA,NA,NA,NA,NA,NA,NA,NA,NA,NA,NA,NA,NA,NA,NA,NA,NA
78d4a,shallow,flow.Sequence,2_2_0,NA,NA,completion,5515.814,283931.30000007,283929.938,283946.598,289462.412,289463.10000002,2023-01-22T17:36:53Z,289479.088,Orientierung,urekebisho,d,uelekeo,marekebisho,utunzaji,NA,NA,NA,"c(""distractor1"", ""distractor2"", ""distractor3"")",NA,NA,NA,NA,NA,NA,NA,NA,NA,NA,NA,NA,NA,NA,NA,NA,NA,NA,NA
78d4a,task,flow.Sequence,2_2,NA,NA,completion,5515.814,283931.30000007,283929.938,283946.598,289462.412,289463.30000007,2023-01-22T17:36:53Z,289479.088,Orientierung,urekebisho,d,uelekeo,marekebisho,utunzaji,NA,NA,NA,"c(""distractor1"", ""distractor2"", ""distractor3"")",NA,NA,NA,NA,NA,NA,NA,NA,NA,NA,NA,NA,NA,NA,NA,NA,NA,NA,NA
78d4a,Shallow Question,html.Page,2_3_0_0,NA,NA,form submission,5100.912,289463.30000007,289462.412,289479.088,294580,294580.30000007,2023-01-22T17:36:58Z,294595.161,Betrüger,mdanganyifu,s,mwanamuziki,wastani,mahakama,mdanganyifu,NA,NA,"c(""distractor1"", ""distractor2"", ""distractor3"")",NA,NA,NA,NA,NA,NA,NA,NA,NA,NA,NA,NA,NA,NA,NA,NA,NA,NA,NA
78d4a,Save data screen,canvas.Screen,2_3_0_1,NA,NA,timeout,499.728,294582.20000005,294578.303,294595.161,295078.194,295078.60000002,2023-01-22T17:36:58Z,295094.889,Betrüger,mdanganyifu,s,mwanamuziki,wastani,mahakama,NA,NA,1,"c(""distractor1"", ""distractor2"", ""distractor3"")",NA,NA,NA,NA,NA,NA,NA,NA,NA,NA,NA,NA,NA,NA,NA,NA,NA,NA,NA
78d4a,shallow,flow.Sequence,2_3_0,NA,NA,completion,5599.106,289463.30000007,289462.412,289479.088,295078.194,295078.80000007,2023-01-22T17:36:58Z,295094.889,Betrüger,mdanganyifu,s,mwanamuziki,wastani,mahakama,NA,NA,NA,"c(""distractor1"", ""distractor2"", ""distractor3"")",NA,NA,NA,NA,NA,NA,NA,NA,NA,NA,NA,NA,NA,NA,NA,NA,NA,NA,NA
78d4a,task,flow.Sequence,2_3,NA,NA,completion,5599.106,289463.30000007,289462.412,289479.088,295078.194,295079.10000002,2023-01-22T17:36:58Z,295094.889,Betrüger,mdanganyifu,s,mwanamuziki,wastani,mahakama,NA,NA,NA,"c(""distractor1"", ""distractor2"", ""distractor3"")",NA,NA,NA,NA,NA,NA,NA,NA,NA,NA,NA,NA,NA,NA,NA,NA,NA,NA,NA
78d4a,Shallow Question,html.Page,2_4_0_0,NA,NA,form submission,5013.8110000477,295079.10000002,295078.194,295094.889,300108.70000005,300108.89999998,2023-01-22T17:37:03Z,300110.795,Respekt,heshima,d,changamnao,upinzani,ufanisi,heshima,NA,NA,"c(""distractor1"", ""distractor2"", ""distractor3"")",NA,NA,NA,NA,NA,NA,NA,NA,NA,NA,NA,NA,NA,NA,NA,NA,NA,NA,NA
78d4a,Save data screen,canvas.Screen,2_4_0_1,NA,NA,timeout,499.93100000004,300111.60000002,300094.13,300110.795,300594.027,300594.5,2023-01-22T17:37:04Z,300610.726,Respekt,heshima,d,changamnao,upinzani,ufanisi,NA,NA,1,"c(""distractor1"", ""distractor2"", ""distractor3"")",NA,NA,NA,NA,NA,NA,NA,NA,NA,NA,NA,NA,NA,NA,NA,NA,NA,NA,NA
78d4a,shallow,flow.Sequence,2_4_0,NA,NA,completion,5499.138,295079.10000002,295078.194,295094.889,300594.027,300594.60000002,2023-01-22T17:37:04Z,300610.726,Respekt,heshima,d,changamnao,upinzani,ufanisi,NA,NA,NA,"c(""distractor1"", ""distractor2"", ""distractor3"")",NA,NA,NA,NA,NA,NA,NA,NA,NA,NA,NA,NA,NA,NA,NA,NA,NA,NA,NA
78d4a,task,flow.Sequence,2_4,NA,NA,completion,5499.138,295079.10000002,295078.194,295094.889,300594.027,300594.80000007,2023-01-22T17:37:04Z,300610.726,Respekt,heshima,d,changamnao,upinzani,ufanisi,NA,NA,NA,"c(""distractor1"", ""distractor2"", ""distractor3"")",NA,NA,NA,NA,NA,NA,NA,NA,NA,NA,NA,NA,NA,NA,NA,NA,NA,NA,NA
78d4a,Shallow Question,html.Page,2_5_0_0,NA,NA,form submission,4739.774,300594.89999998,300594.027,300610.726,305350.5,305350.89999998,2023-01-22T17:37:09Z,305359.971,Stimmung,kinyongo,s,kilekile,kisambo,madhehebu,kinyongo,NA,NA,"c(""distractor1"", ""distractor2"", ""distractor3"")",NA,NA,NA,NA,NA,NA,NA,NA,NA,NA,NA,NA,NA,NA,NA,NA,NA,NA,NA
78d4a,Save data screen,canvas.Screen,2_5_0_1,NA,NA,timeout,499.946,305353.20000005,305343.315,305359.971,305843.238,305843.70000005,2023-01-22T17:37:09Z,305859.917,Stimmung,kinyongo,s,kilekile,kisambo,madhehebu,NA,NA,1,"c(""distractor1"", ""distractor2"", ""distractor3"")",NA,NA,NA,NA,NA,NA,NA,NA,NA,NA,NA,NA,NA,NA,NA,NA,NA,NA,NA
78d4a,shallow,flow.Sequence,2_5_0,NA,NA,completion,5232.512,300594.89999998,300594.027,300610.726,305843.238,305843.89999998,2023-01-22T17:37:09Z,305859.917,Stimmung,kinyongo,s,kilekile,kisambo,madhehebu,NA,NA,NA,"c(""distractor1"", ""distractor2"", ""distractor3"")",NA,NA,NA,NA,NA,NA,NA,NA,NA,NA,NA,NA,NA,NA,NA,NA,NA,NA,NA
78d4a,task,flow.Sequence,2_5,NA,NA,completion,5232.512,300594.89999998,300594.027,300610.726,305843.238,305844.20000005,2023-01-22T17:37:09Z,305859.917,Stimmung,kinyongo,s,kilekile,kisambo,madhehebu,NA,NA,NA,"c(""distractor1"", ""distractor2"", ""distractor3"")",NA,NA,NA,NA,NA,NA,NA,NA,NA,NA,NA,NA,NA,NA,NA,NA,NA,NA,NA
78d4a,Shallow Question,html.Page,2_6_0_0,NA,NA,form submission,8161.083,305844.20000005,305843.238,305859.917,314021,314021.30000007,2023-01-22T17:37:17Z,314025.331,Erneuerung,ukarabati,d,ushawishi,ukalifu,unyonyaji,ushawishi,NA,NA,"c(""distractor1"", ""distractor2"", ""distractor3"")",NA,NA,NA,NA,NA,NA,NA,NA,NA,NA,NA,NA,NA,NA,NA,NA,NA,NA,NA
78d4a,Save data screen,canvas.Screen,2_6_0_1,NA,NA,timeout,499.91599999997,314023.70000005,314008.664,314025.331,314508.567,314508.89999998,2023-01-22T17:37:18Z,314525.247,Erneuerung,ukarabati,d,ushawishi,ukalifu,unyonyaji,NA,NA,0,"c(""distractor1"", ""distractor2"", ""distractor3"")",NA,NA,NA,NA,NA,NA,NA,NA,NA,NA,NA,NA,NA,NA,NA,NA,NA,NA,NA
78d4a,shallow,flow.Sequence,2_6_0,NA,NA,completion,8648.65,305844.20000005,305843.238,305859.917,314508.567,314509.20000005,2023-01-22T17:37:18Z,314525.247,Erneuerung,ukarabati,d,ushawishi,ukalifu,unyonyaji,NA,NA,NA,"c(""distractor1"", ""distractor2"", ""distractor3"")",NA,NA,NA,NA,NA,NA,NA,NA,NA,NA,NA,NA,NA,NA,NA,NA,NA,NA,NA
78d4a,task,flow.Sequence,2_6,NA,NA,completion,8648.65,305844.20000005,305843.238,305859.917,314508.567,314509.30000007,2023-01-22T17:37:18Z,314525.247,Erneuerung,ukarabati,d,ushawishi,ukalifu,unyonyaji,NA,NA,NA,"c(""distractor1"", ""distractor2"", ""distractor3"")",NA,NA,NA,NA,NA,NA,NA,NA,NA,NA,NA,NA,NA,NA,NA,NA,NA,NA,NA
78d4a,Shallow Question,html.Page,2_7_0_0,NA,NA,form submission,7798.753,314509.5,314508.567,314525.247,322324,322324.60000002,2023-01-22T17:37:26Z,322324.078,Atmosphäre,angahewa,s,kuteseka,usahihi,kutoamini,kutoamini,NA,NA,"c(""distractor1"", ""distractor2"", ""distractor3"")",NA,NA,NA,NA,NA,NA,NA,NA,NA,NA,NA,NA,NA,NA,NA,NA,NA,NA,NA
78d4a,Save data screen,canvas.Screen,2_7_0_1,NA,NA,timeout,500.07300000003,322327.20000005,322307.42,322324.078,322807.3,322808,2023-01-22T17:37:26Z,322824.151,Atmosphäre,angahewa,s,kuteseka,usahihi,kutoamini,NA,NA,0,"c(""distractor1"", ""distractor2"", ""distractor3"")",NA,NA,NA,NA,NA,NA,NA,NA,NA,NA,NA,NA,NA,NA,NA,NA,NA,NA,NA
78d4a,shallow,flow.Sequence,2_7_0,NA,NA,completion,8282.053,314509.5,314508.567,314525.247,322807.3,322808.30000007,2023-01-22T17:37:26Z,322824.151,Atmosphäre,angahewa,s,kuteseka,usahihi,kutoamini,NA,NA,NA,"c(""distractor1"", ""distractor2"", ""distractor3"")",NA,NA,NA,NA,NA,NA,NA,NA,NA,NA,NA,NA,NA,NA,NA,NA,NA,NA,NA
78d4a,task,flow.Sequence,2_7,NA,NA,completion,8282.053,314509.39999998,314508.567,314525.247,322807.3,322808.70000005,2023-01-22T17:37:26Z,322824.151,Atmosphäre,angahewa,s,kuteseka,usahihi,kutoamini,NA,NA,NA,"c(""distractor1"", ""distractor2"", ""distractor3"")",NA,NA,NA,NA,NA,NA,NA,NA,NA,NA,NA,NA,NA,NA,NA,NA,NA,NA,NA
78d4a,Shallow Question,html.Page,2_8_0_0,NA,NA,form submission,10048.949000024,322809,322807.3,322824.151,332873.10000002,332873.5,2023-01-22T17:37:36Z,332895.243,Flexibilität,kubadilika,s,enjini,usikilivu,hesabu,usikilivu,NA,NA,"c(""distractor1"", ""distractor2"", ""distractor3"")",NA,NA,NA,NA,NA,NA,NA,NA,NA,NA,NA,NA,NA,NA,NA,NA,NA,NA,NA
78d4a,Save data screen,canvas.Screen,2_8_0_1,NA,NA,timeout,493.81099999999,332875.80000007,332855.774,332895.243,333372.362,333373.10000002,2023-01-22T17:37:37Z,333389.054,Flexibilität,kubadilika,s,enjini,usikilivu,hesabu,NA,NA,0,"c(""distractor1"", ""distractor2"", ""distractor3"")",NA,NA,NA,NA,NA,NA,NA,NA,NA,NA,NA,NA,NA,NA,NA,NA,NA,NA,NA
78d4a,shallow,flow.Sequence,2_8_0,NA,NA,completion,10548.211,322809,322807.3,322824.151,333372.362,333373.30000007,2023-01-22T17:37:37Z,333389.054,Flexibilität,kubadilika,s,enjini,usikilivu,hesabu,NA,NA,NA,"c(""distractor1"", ""distractor2"", ""distractor3"")",NA,NA,NA,NA,NA,NA,NA,NA,NA,NA,NA,NA,NA,NA,NA,NA,NA,NA,NA
78d4a,task,flow.Sequence,2_8,NA,NA,completion,10548.211,322809,322807.3,322824.151,333372.362,333373.39999998,2023-01-22T17:37:37Z,333389.054,Flexibilität,kubadilika,s,enjini,usikilivu,hesabu,NA,NA,NA,"c(""distractor1"", ""distractor2"", ""distractor3"")",NA,NA,NA,NA,NA,NA,NA,NA,NA,NA,NA,NA,NA,NA,NA,NA,NA,NA,NA
78d4a,Shallow Question,html.Page,2_9_0_0,NA,NA,form submission,6435.2460000715,333373.60000002,333372.362,333389.054,339824.30000007,339824.70000005,2023-01-22T17:37:43Z,339838.2,Fleisch,mshakiki,d,kizunguzungu,mshikamano,angusho,mshakiki,NA,NA,"c(""distractor1"", ""distractor2"", ""distractor3"")",NA,NA,NA,NA,NA,NA,NA,NA,NA,NA,NA,NA,NA,NA,NA,NA,NA,NA,NA
78d4a,Save data screen,canvas.Screen,2_9_0_1,NA,NA,timeout,499.76799999998,339826.89999998,339821.374,339838.2,340321.295,340321.70000005,2023-01-22T17:37:44Z,340337.968,Fleisch,mshakiki,d,kizunguzungu,mshikamano,angusho,NA,NA,1,"c(""distractor1"", ""distractor2"", ""distractor3"")",NA,NA,NA,NA,NA,NA,NA,NA,NA,NA,NA,NA,NA,NA,NA,NA,NA,NA,NA
78d4a,shallow,flow.Sequence,2_9_0,NA,NA,completion,6932.241,333373.60000002,333372.362,333389.054,340321.295,340321.89999998,2023-01-22T17:37:44Z,340337.968,Fleisch,mshakiki,d,kizunguzungu,mshikamano,angusho,NA,NA,NA,"c(""distractor1"", ""distractor2"", ""distractor3"")",NA,NA,NA,NA,NA,NA,NA,NA,NA,NA,NA,NA,NA,NA,NA,NA,NA,NA,NA
78d4a,task,flow.Sequence,2_9,NA,NA,completion,6932.241,333373.5,333372.362,333389.054,340321.295,340322.10000002,2023-01-22T17:37:44Z,340337.968,Fleisch,mshakiki,d,kizunguzungu,mshikamano,angusho,NA,NA,NA,"c(""distractor1"", ""distractor2"", ""distractor3"")",NA,NA,NA,NA,NA,NA,NA,NA,NA,NA,NA,NA,NA,NA,NA,NA,NA,NA,NA
78d4a,Shallow Question,html.Page,2_10_0_0,NA,NA,form submission,9189.8320000715,340322.30000007,340321.295,340337.968,349527.80000007,349528.10000002,2023-01-22T17:37:53Z,349536.561,Genehmigung,idhini,s,mwanamke,itikadi,fedheha,fedheha,NA,NA,"c(""distractor1"", ""distractor2"", ""distractor3"")",NA,NA,NA,NA,NA,NA,NA,NA,NA,NA,NA,NA,NA,NA,NA,NA,NA,NA,NA
78d4a,Save data screen,canvas.Screen,2_10_0_1,NA,NA,timeout,499.98800000001,349530.80000007,349519.906,349536.561,350019.819,350020.20000005,2023-01-22T17:37:53Z,350036.549,Genehmigung,idhini,s,mwanamke,itikadi,fedheha,NA,NA,0,"c(""distractor1"", ""distractor2"", ""distractor3"")",NA,NA,NA,NA,NA,NA,NA,NA,NA,NA,NA,NA,NA,NA,NA,NA,NA,NA,NA
78d4a,shallow,flow.Sequence,2_10_0,NA,NA,completion,9681.851,340322.30000007,340321.295,340337.968,350019.819,350020.39999998,2023-01-22T17:37:53Z,350036.549,Genehmigung,idhini,s,mwanamke,itikadi,fedheha,NA,NA,NA,"c(""distractor1"", ""distractor2"", ""distractor3"")",NA,NA,NA,NA,NA,NA,NA,NA,NA,NA,NA,NA,NA,NA,NA,NA,NA,NA,NA
78d4a,task,flow.Sequence,2_10,NA,NA,completion,9681.851,340322.20000005,340321.295,340337.968,350019.819,350020.60000002,2023-01-22T17:37:53Z,350036.549,Genehmigung,idhini,s,mwanamke,itikadi,fedheha,NA,NA,NA,"c(""distractor1"", ""distractor2"", ""distractor3"")",NA,NA,NA,NA,NA,NA,NA,NA,NA,NA,NA,NA,NA,NA,NA,NA,NA,NA,NA
78d4a,Shallow Question,html.Page,2_11_0_0,NA,NA,form submission,10067.850999976,350020.60000002,350019.819,350036.549,360104.39999998,360104.80000007,2023-01-22T17:38:03Z,360118.48,Wechsel,ugeuzaji,d,utambulisho,kujenga,wasiwasi,ugeuzaji,NA,NA,"c(""distractor1"", ""distractor2"", ""distractor3"")",NA,NA,NA,NA,NA,NA,NA,NA,NA,NA,NA,NA,NA,NA,NA,NA,NA,NA,NA
78d4a,Save data screen,canvas.Screen,2_11_0_1,NA,NA,timeout,499.72700000001,360108.10000002,360101.636,360118.48,360601.543,360602.5,2023-01-22T17:38:04Z,360618.207,Wechsel,ugeuzaji,d,utambulisho,kujenga,wasiwasi,NA,NA,1,"c(""distractor1"", ""distractor2"", ""distractor3"")",NA,NA,NA,NA,NA,NA,NA,NA,NA,NA,NA,NA,NA,NA,NA,NA,NA,NA,NA
78d4a,shallow,flow.Sequence,2_11_0,NA,NA,completion,10564.994,350020.60000002,350019.819,350036.549,360601.543,360602.70000005,2023-01-22T17:38:04Z,360618.207,Wechsel,ugeuzaji,d,utambulisho,kujenga,wasiwasi,NA,NA,NA,"c(""distractor1"", ""distractor2"", ""distractor3"")",NA,NA,NA,NA,NA,NA,NA,NA,NA,NA,NA,NA,NA,NA,NA,NA,NA,NA,NA
78d4a,task,flow.Sequence,2_11,NA,NA,completion,10564.994,350020.60000002,350019.819,350036.549,360601.543,360602.80000007,2023-01-22T17:38:04Z,360618.207,Wechsel,ugeuzaji,d,utambulisho,kujenga,wasiwasi,NA,NA,NA,"c(""distractor1"", ""distractor2"", ""distractor3"")",NA,NA,NA,NA,NA,NA,NA,NA,NA,NA,NA,NA,NA,NA,NA,NA,NA,NA,NA
78d4a,Shallow Question,html.Page,2_12_0_0,NA,NA,form submission,5321.293,360603,360601.543,360618.207,365939.5,365939.89999998,2023-01-22T17:38:09Z,365951.354,Niveau,kiwango,d,usimamizi,mwamali,mshairi,kiwango,NA,NA,"c(""distractor1"", ""distractor2"", ""distractor3"")",NA,NA,NA,NA,NA,NA,NA,NA,NA,NA,NA,NA,NA,NA,NA,NA,NA,NA,NA
78d4a,Save data screen,canvas.Screen,2_12_0_1,NA,NA,timeout,499.30599999998,365942,365934.069,365951.354,366433.996,366434.5,2023-01-22T17:38:10Z,366450.66,Niveau,kiwango,d,usimamizi,mwamali,mshairi,NA,NA,1,"c(""distractor1"", ""distractor2"", ""distractor3"")",NA,NA,NA,NA,NA,NA,NA,NA,NA,NA,NA,NA,NA,NA,NA,NA,NA,NA,NA
78d4a,shallow,flow.Sequence,2_12_0,NA,NA,completion,5815.789,360603,360601.543,360618.207,366433.996,366434.80000007,2023-01-22T17:38:10Z,366450.66,Niveau,kiwango,d,usimamizi,mwamali,mshairi,NA,NA,NA,"c(""distractor1"", ""distractor2"", ""distractor3"")",NA,NA,NA,NA,NA,NA,NA,NA,NA,NA,NA,NA,NA,NA,NA,NA,NA,NA,NA
78d4a,task,flow.Sequence,2_12,NA,NA,completion,5815.789,360602.89999998,360601.543,360618.207,366433.996,366435,2023-01-22T17:38:10Z,366450.66,Niveau,kiwango,d,usimamizi,mwamali,mshairi,NA,NA,NA,"c(""distractor1"", ""distractor2"", ""distractor3"")",NA,NA,NA,NA,NA,NA,NA,NA,NA,NA,NA,NA,NA,NA,NA,NA,NA,NA,NA
78d4a,Shallow Question,html.Page,2_13_0_0,NA,NA,form submission,11533.540000048,366435.10000002,366433.996,366450.66,377984.20000005,377984.60000002,2023-01-22T17:38:21Z,377999.112,Vorwurf,mashtaka,s,msukumo,mtangulizi,uenyekiti,msukumo,NA,NA,"c(""distractor1"", ""distractor2"", ""distractor3"")",NA,NA,NA,NA,NA,NA,NA,NA,NA,NA,NA,NA,NA,NA,NA,NA,NA,NA,NA
78d4a,Save data screen,canvas.Screen,2_13_0_1,NA,NA,timeout,499.701,377987.20000005,377982.214,377999.112,378482.141,378482.5,2023-01-22T17:38:22Z,378498.813,Vorwurf,mashtaka,s,msukumo,mtangulizi,uenyekiti,NA,NA,0,"c(""distractor1"", ""distractor2"", ""distractor3"")",NA,NA,NA,NA,NA,NA,NA,NA,NA,NA,NA,NA,NA,NA,NA,NA,NA,NA,NA
78d4a,shallow,flow.Sequence,2_13_0,NA,NA,completion,12031.481,366435.10000002,366433.996,366450.66,378482.141,378482.80000007,2023-01-22T17:38:22Z,378498.813,Vorwurf,mashtaka,s,msukumo,mtangulizi,uenyekiti,NA,NA,NA,"c(""distractor1"", ""distractor2"", ""distractor3"")",NA,NA,NA,NA,NA,NA,NA,NA,NA,NA,NA,NA,NA,NA,NA,NA,NA,NA,NA
78d4a,task,flow.Sequence,2_13,NA,NA,completion,12031.481,366435.10000002,366433.996,366450.66,378482.141,378482.89999998,2023-01-22T17:38:22Z,378498.813,Vorwurf,mashtaka,s,msukumo,mtangulizi,uenyekiti,NA,NA,NA,"c(""distractor1"", ""distractor2"", ""distractor3"")",NA,NA,NA,NA,NA,NA,NA,NA,NA,NA,NA,NA,NA,NA,NA,NA,NA,NA,NA
78d4a,Shallow Question,html.Page,2_14_0_0,NA,NA,form submission,7831.2870000238,378483.10000002,378482.141,378498.813,386330.10000002,386330.39999998,2023-01-22T17:38:30Z,386330.961,Entwicklung,maendeleo,s,uangavu,mshindwa,badiliko,maendeleo,NA,NA,"c(""distractor1"", ""distractor2"", ""distractor3"")",NA,NA,NA,NA,NA,NA,NA,NA,NA,NA,NA,NA,NA,NA,NA,NA,NA,NA,NA
78d4a,Save data screen,canvas.Screen,2_14_0_1,NA,NA,timeout,499.90299999999,386333.60000002,386314.333,386330.961,386814.203,386814.60000002,2023-01-22T17:38:30Z,386830.864,Entwicklung,maendeleo,s,uangavu,mshindwa,badiliko,NA,NA,1,"c(""distractor1"", ""distractor2"", ""distractor3"")",NA,NA,NA,NA,NA,NA,NA,NA,NA,NA,NA,NA,NA,NA,NA,NA,NA,NA,NA
78d4a,shallow,flow.Sequence,2_14_0,NA,NA,completion,8315.39,378483,378482.141,378498.813,386814.203,386814.89999998,2023-01-22T17:38:30Z,386830.864,Entwicklung,maendeleo,s,uangavu,mshindwa,badiliko,NA,NA,NA,"c(""distractor1"", ""distractor2"", ""distractor3"")",NA,NA,NA,NA,NA,NA,NA,NA,NA,NA,NA,NA,NA,NA,NA,NA,NA,NA,NA
78d4a,task,flow.Sequence,2_14,NA,NA,completion,8315.39,378483,378482.141,378498.813,386814.203,386815,2023-01-22T17:38:30Z,386830.864,Entwicklung,maendeleo,s,uangavu,mshindwa,badiliko,NA,NA,NA,"c(""distractor1"", ""distractor2"", ""distractor3"")",NA,NA,NA,NA,NA,NA,NA,NA,NA,NA,NA,NA,NA,NA,NA,NA,NA,NA,NA
78d4a,Shallow Question,html.Page,2_15_0_0,NA,NA,form submission,6023.4360000715,386815.20000005,386814.203,386830.864,392854.30000007,392854.60000002,2023-01-22T17:38:36Z,392863.256,Integrität,uadilifu,d,muungano,mtiririko,upunguaji,uadilifu,NA,NA,"c(""distractor1"", ""distractor2"", ""distractor3"")",NA,NA,NA,NA,NA,NA,NA,NA,NA,NA,NA,NA,NA,NA,NA,NA,NA,NA,NA
78d4a,Save data screen,canvas.Screen,2_15_0_1,NA,NA,timeout,499.97700000001,392857.30000007,392846.625,392863.256,393346.545,393347,2023-01-22T17:38:37Z,393363.233,Integrität,uadilifu,d,muungano,mtiririko,upunguaji,NA,NA,1,"c(""distractor1"", ""distractor2"", ""distractor3"")",NA,NA,NA,NA,NA,NA,NA,NA,NA,NA,NA,NA,NA,NA,NA,NA,NA,NA,NA
78d4a,shallow,flow.Sequence,2_15_0,NA,NA,completion,6515.681,386815.20000005,386814.203,386830.864,393346.545,393347.20000005,2023-01-22T17:38:37Z,393363.233,Integrität,uadilifu,d,muungano,mtiririko,upunguaji,NA,NA,NA,"c(""distractor1"", ""distractor2"", ""distractor3"")",NA,NA,NA,NA,NA,NA,NA,NA,NA,NA,NA,NA,NA,NA,NA,NA,NA,NA,NA
78d4a,task,flow.Sequence,2_15,NA,NA,completion,6515.681,386815.10000002,386814.203,386830.864,393346.545,393347.39999998,2023-01-22T17:38:37Z,393363.233,Integrität,uadilifu,d,muungano,mtiririko,upunguaji,NA,NA,NA,"c(""distractor1"", ""distractor2"", ""distractor3"")",NA,NA,NA,NA,NA,NA,NA,NA,NA,NA,NA,NA,NA,NA,NA,NA,NA,NA,NA
78d4a,retrieval block 2 (multiple choice),flow.Loop,2,NA,NA,completion,125330.779,268000.60000002,267999.025,268015.766,393346.545,393347.5,2023-01-22T17:38:37Z,393363.233,NA,NA,NA,NA,NA,NA,NA,NA,NA,"c(""distractor1"", ""distractor2"", ""distractor3"")",NA,NA,NA,NA,NA,NA,NA,NA,NA,NA,NA,NA,NA,NA,NA,NA,NA,NA,NA
78d4a,End,canvas.Screen,3,NA,keypress(Space),response,1166.8670000238,393347.5,393346.545,393363.233,394530.10000002,394531.10000002,2023-01-22T17:38:38Z,394546.365,NA,NA,NA,NA,NA,NA,NA,NA,NA,NULL,NA,NA,NA,NA,NA,NA,NA,NA,NA,NA,NA,NA,NA,NA,NA,NA,NA,NA,NA
78d4a,root,flow.Sequence,NA,NA,NA,completion,390040.79400002,4420.8000000715,4406.007,4489.306,394530.10000002,394531.60000002,2023-01-22T17:38:38Z,394546.365,NA,NA,NA,NA,NA,NA,NA,NA,NA,NULL,NA,NA,NA,NA,NA,NA,NA,NA,NA,NA,NA,NA,NA,NA,NA,NA,NA,NA,NA
