observation,sender,sender_type,sender_id,response,response_action,ended_on,duration,time_run,time_render,time_show,time_end,time_commit,timestamp,time_switch,distractors,german,swahili,enc,distractor1,distractor2,distractor3,response_2,x,correct,x_2,url_vp,url_sess,meta_labjs_version,meta_location,meta_user_agent,meta_platform,meta_language,meta_locale,meta_time_zone,meta_timezone_offset,meta_screen_width,meta_screen_height,meta_scroll_width,meta_scroll_height,meta_window_inner_width,meta_window_inner_height,meta_device_pixel_ratio,meta_labjs_build_flavor,meta_labjs_build_commit
778d0,Introduction general,canvas.Screen,0,weiter,keypress(q),response,46797.96,440,435.4,452.04,47250,47285,2023-08-11T12:06:12Z,47287.6,NULL,NA,NA,NA,NA,NA,NA,NA,NA,NA,NA,173,3,20.2.4,https://neurocog.fernuni.ch/studies/vweber/sliechti/encoding_immediate/index.html?vp=173&sess=3,Mozilla/5.0 (Windows NT 10.0; Win64; x64; rv:109.0) Gecko/20100101 Firefox/116.0,Win32,de,de-CH,Europe/Zurich,-120,1280,720,1280,587,1280,587,1.5,production,f5b4a49f956347addd546a832a3327688c2c0fef
778d0,Introduction practice,canvas.Screen,1_0,NA,keypress(Space),response,5525.4,47286,47286.78,47287.6,52813,52830,2023-08-11T12:06:18Z,52830.76,NULL,NA,NA,NA,NA,NA,NA,NA,NA,NA,NA,NA,NA,NA,NA,NA,NA,NA,NA,NA,NA,NA,NA,NA,NA,NA,NA,NA,NA,NA
778d0,Deep Question,html.Page,1_1_0_0_0,NA,NA,form submission,4662.24,52830,52830.4,52830.76,57493,57493,2023-08-11T12:06:22Z,57494.76,"c(""distractor1"", ""distractor2"", ""distractor3"")",Qualität,mtindo,d,NA,NA,NA,d,NA,NA,NA,NA,NA,NA,NA,NA,NA,NA,NA,NA,NA,NA,NA,NA,NA,NA,NA,NA,NA,NA
778d0,"""Richtig""-Screen",canvas.Screen,1_1_0_0_1,NA,NA,skipped,NA,57500,NA,NA,57493,57500,2023-08-11T12:06:22Z,57494.76,"c(""distractor1"", ""distractor2"", ""distractor3"")",Qualität,mtindo,d,NA,NA,NA,NA,NA,NA,NA,NA,NA,NA,NA,NA,NA,NA,NA,NA,NA,NA,NA,NA,NA,NA,NA,NA,NA,NA
778d0,"""Falsch""-Screen",canvas.Screen,1_1_0_0_2,NA,NA,timeout,4999.36,57503,57490.18,57494.76,62477.54,62480,2023-08-11T12:06:27Z,62494.12,"c(""distractor1"", ""distractor2"", ""distractor3"")",Qualität,mtindo,d,NA,NA,NA,NA,NA,0,NA,NA,NA,NA,NA,NA,NA,NA,NA,NA,NA,NA,NA,NA,NA,NA,NA,NA,NA,NA
778d0,deep,flow.Sequence,1_1_0_0,NA,NA,completion,9646.78,52830,52830.4,52830.76,62477.54,62481,2023-08-11T12:06:27Z,62494.12,"c(""distractor1"", ""distractor2"", ""distractor3"")",Qualität,mtindo,d,NA,NA,NA,NA,NA,NA,NA,NA,NA,NA,NA,NA,NA,NA,NA,NA,NA,NA,NA,NA,NA,NA,NA,NA,NA,NA
778d0,shallow,flow.Sequence,1_1_0_1,NA,NA,skipped,NA,62481,NA,NA,62477.54,62481,2023-08-11T12:06:27Z,62494.12,"c(""distractor1"", ""distractor2"", ""distractor3"")",Qualität,mtindo,d,NA,NA,NA,NA,NA,NA,NA,NA,NA,NA,NA,NA,NA,NA,NA,NA,NA,NA,NA,NA,NA,NA,NA,NA,NA,NA
778d0,task,flow.Sequence,1_1_0,NA,NA,completion,9646.78,52830,52830.4,52830.76,62477.54,62482,2023-08-11T12:06:27Z,62494.12,"c(""distractor1"", ""distractor2"", ""distractor3"")",Qualität,mtindo,d,NA,NA,NA,NA,NA,NA,NA,NA,NA,NA,NA,NA,NA,NA,NA,NA,NA,NA,NA,NA,NA,NA,NA,NA,NA,NA
778d0,Deep Question,html.Page,1_1_1_0_0,NA,NA,form submission,2080.88,62483,62477.54,62494.12,64575,64575,2023-08-11T12:06:29Z,64577.14,"c(""distractor1"", ""distractor2"", ""distractor3"")",Gesundheit,salama,d,NA,NA,NA,d,NA,NA,NA,NA,NA,NA,NA,NA,NA,NA,NA,NA,NA,NA,NA,NA,NA,NA,NA,NA,NA,NA
778d0,"""Richtig""-Screen",canvas.Screen,1_1_1_0_1,NA,NA,skipped,NA,64577,NA,NA,64575,64578,2023-08-11T12:06:29Z,64577.14,"c(""distractor1"", ""distractor2"", ""distractor3"")",Gesundheit,salama,d,NA,NA,NA,NA,NA,NA,NA,NA,NA,NA,NA,NA,NA,NA,NA,NA,NA,NA,NA,NA,NA,NA,NA,NA,NA,NA
778d0,"""Falsch""-Screen",canvas.Screen,1_1_1_0_2,NA,NA,timeout,4999.4,64582,64573.28,64577.14,69559.86,69561,2023-08-11T12:06:34Z,69576.54,"c(""distractor1"", ""distractor2"", ""distractor3"")",Gesundheit,salama,d,NA,NA,NA,NA,NA,0,NA,NA,NA,NA,NA,NA,NA,NA,NA,NA,NA,NA,NA,NA,NA,NA,NA,NA,NA,NA
778d0,deep,flow.Sequence,1_1_1_0,NA,NA,completion,7065.74,62483,62477.54,62494.12,69559.86,69561,2023-08-11T12:06:34Z,69576.54,"c(""distractor1"", ""distractor2"", ""distractor3"")",Gesundheit,salama,d,NA,NA,NA,NA,NA,NA,NA,NA,NA,NA,NA,NA,NA,NA,NA,NA,NA,NA,NA,NA,NA,NA,NA,NA,NA,NA
778d0,shallow,flow.Sequence,1_1_1_1,NA,NA,skipped,NA,69561,NA,NA,69559.86,69562,2023-08-11T12:06:34Z,69576.54,"c(""distractor1"", ""distractor2"", ""distractor3"")",Gesundheit,salama,d,NA,NA,NA,NA,NA,NA,NA,NA,NA,NA,NA,NA,NA,NA,NA,NA,NA,NA,NA,NA,NA,NA,NA,NA,NA,NA
778d0,task,flow.Sequence,1_1_1,NA,NA,completion,7065.74,62482,62477.54,62494.12,69559.86,69562,2023-08-11T12:06:34Z,69576.54,"c(""distractor1"", ""distractor2"", ""distractor3"")",Gesundheit,salama,d,NA,NA,NA,NA,NA,NA,NA,NA,NA,NA,NA,NA,NA,NA,NA,NA,NA,NA,NA,NA,NA,NA,NA,NA,NA,NA
778d0,Deep Question,html.Page,1_1_2_0_0,NA,NA,form submission,1851.46,69562,69559.86,69576.54,71428,71428,2023-08-11T12:06:36Z,71427.62,"c(""distractor1"", ""distractor2"", ""distractor3"")",Schatten,kivuli,d,NA,NA,NA,d,NA,NA,NA,NA,NA,NA,NA,NA,NA,NA,NA,NA,NA,NA,NA,NA,NA,NA,NA,NA,NA,NA
778d0,"""Richtig""-Screen",canvas.Screen,1_1_2_0_1,NA,NA,skipped,NA,71430,NA,NA,71428,71430,2023-08-11T12:06:36Z,71427.62,"c(""distractor1"", ""distractor2"", ""distractor3"")",Schatten,kivuli,d,NA,NA,NA,NA,NA,NA,NA,NA,NA,NA,NA,NA,NA,NA,NA,NA,NA,NA,NA,NA,NA,NA,NA,NA,NA,NA
778d0,"""Falsch""-Screen",canvas.Screen,1_1_2_0_2,NA,NA,timeout,4997.98,71432,71427.5,71427.62,76408.94,76410,2023-08-11T12:06:41Z,76425.6,"c(""distractor1"", ""distractor2"", ""distractor3"")",Schatten,kivuli,d,NA,NA,NA,NA,NA,0,NA,NA,NA,NA,NA,NA,NA,NA,NA,NA,NA,NA,NA,NA,NA,NA,NA,NA,NA,NA
778d0,deep,flow.Sequence,1_1_2_0,NA,NA,completion,6832.4,69562,69559.86,69576.54,76408.94,76411,2023-08-11T12:06:41Z,76425.6,"c(""distractor1"", ""distractor2"", ""distractor3"")",Schatten,kivuli,d,NA,NA,NA,NA,NA,NA,NA,NA,NA,NA,NA,NA,NA,NA,NA,NA,NA,NA,NA,NA,NA,NA,NA,NA,NA,NA
778d0,shallow,flow.Sequence,1_1_2_1,NA,NA,skipped,NA,76411,NA,NA,76408.94,76411,2023-08-11T12:06:41Z,76425.6,"c(""distractor1"", ""distractor2"", ""distractor3"")",Schatten,kivuli,d,NA,NA,NA,NA,NA,NA,NA,NA,NA,NA,NA,NA,NA,NA,NA,NA,NA,NA,NA,NA,NA,NA,NA,NA,NA,NA
778d0,task,flow.Sequence,1_1_2,NA,NA,completion,6832.4,69562,69559.86,69576.54,76408.94,76411,2023-08-11T12:06:41Z,76425.6,"c(""distractor1"", ""distractor2"", ""distractor3"")",Schatten,kivuli,d,NA,NA,NA,NA,NA,NA,NA,NA,NA,NA,NA,NA,NA,NA,NA,NA,NA,NA,NA,NA,NA,NA,NA,NA,NA,NA
778d0,deep,flow.Sequence,1_1_3_0,NA,NA,skipped,NA,76412,NA,NA,76408.94,76412,2023-08-11T12:06:41Z,76425.6,"c(""distractor1"", ""distractor2"", ""distractor3"")",Kritik,lawama,s,dereva,nafasi,mawazo,NA,NA,NA,NA,NA,NA,NA,NA,NA,NA,NA,NA,NA,NA,NA,NA,NA,NA,NA,NA,NA,NA,NA
778d0,Shallow Question,html.Page,1_1_3_1_0,NA,NA,form submission,4230.4,76413,76408.94,76425.6,80656,80656,2023-08-11T12:06:46Z,80658.34,"c(""distractor1"", ""distractor2"", ""distractor3"")",Kritik,lawama,s,dereva,nafasi,mawazo,mawazo,NA,NA,NA,NA,NA,NA,NA,NA,NA,NA,NA,NA,NA,NA,NA,NA,NA,NA,NA,NA,NA,NA
778d0,"""Richtig""-Screen",canvas.Screen,1_1_3_1_1,NA,NA,skipped,NA,80660,NA,NA,80656,80660,2023-08-11T12:06:46Z,80658.34,"c(""distractor1"", ""distractor2"", ""distractor3"")",Kritik,lawama,s,dereva,nafasi,mawazo,NA,NA,NA,NA,NA,NA,NA,NA,NA,NA,NA,NA,NA,NA,NA,NA,NA,NA,NA,NA,NA,NA,NA
778d0,"""Falsch""-Screen",canvas.Screen,1_1_3_1_2,NA,NA,timeout,4999.38,80662,80652.86,80658.34,85641.12,85643,2023-08-11T12:06:50Z,85657.72,"c(""distractor1"", ""distractor2"", ""distractor3"")",Kritik,lawama,s,dereva,nafasi,mawazo,NA,NA,0,NA,NA,NA,NA,NA,NA,NA,NA,NA,NA,NA,NA,NA,NA,NA,NA,NA,NA,NA,NA
778d0,shallow,flow.Sequence,1_1_3_1,NA,NA,completion,9215.52,76413,76408.94,76425.6,85641.12,85644,2023-08-11T12:06:50Z,85657.72,"c(""distractor1"", ""distractor2"", ""distractor3"")",Kritik,lawama,s,dereva,nafasi,mawazo,NA,NA,NA,NA,NA,NA,NA,NA,NA,NA,NA,NA,NA,NA,NA,NA,NA,NA,NA,NA,NA,NA,NA
778d0,task,flow.Sequence,1_1_3,NA,NA,completion,9215.52,76412,76408.94,76425.6,85641.12,85644,2023-08-11T12:06:50Z,85657.72,"c(""distractor1"", ""distractor2"", ""distractor3"")",Kritik,lawama,s,dereva,nafasi,mawazo,NA,NA,NA,NA,NA,NA,NA,NA,NA,NA,NA,NA,NA,NA,NA,NA,NA,NA,NA,NA,NA,NA,NA
778d0,deep,flow.Sequence,1_1_4_0,NA,NA,skipped,NA,85644,NA,NA,85641.12,85645,2023-08-11T12:06:50Z,85657.72,"c(""distractor1"", ""distractor2"", ""distractor3"")",Gegenwart,hadhara,s,katiba,jokofu,mikopo,NA,NA,NA,NA,NA,NA,NA,NA,NA,NA,NA,NA,NA,NA,NA,NA,NA,NA,NA,NA,NA,NA,NA
778d0,Shallow Question,html.Page,1_1_4_1_0,NA,NA,form submission,6366.28,85645,85641.12,85657.72,92024,92025,2023-08-11T12:06:57Z,92023.68,"c(""distractor1"", ""distractor2"", ""distractor3"")",Gegenwart,hadhara,s,katiba,jokofu,mikopo,hadhara,NA,NA,NA,NA,NA,NA,NA,NA,NA,NA,NA,NA,NA,NA,NA,NA,NA,NA,NA,NA,NA,NA
778d0,"""Richtig""-Screen",canvas.Screen,1_1_4_1_1,NA,NA,timeout,4999.28,92031,92018.62,92023.68,97006.38,97009,2023-08-11T12:07:02Z,97022.96,"c(""distractor1"", ""distractor2"", ""distractor3"")",Gegenwart,hadhara,s,katiba,jokofu,mikopo,NA,NA,1,NA,NA,NA,NA,NA,NA,NA,NA,NA,NA,NA,NA,NA,NA,NA,NA,NA,NA,NA,NA
778d0,"""Falsch""-Screen",canvas.Screen,1_1_4_1_2,NA,NA,skipped,NA,97018,NA,NA,97006.38,97019,2023-08-11T12:07:02Z,97022.96,"c(""distractor1"", ""distractor2"", ""distractor3"")",Gegenwart,hadhara,s,katiba,jokofu,mikopo,NA,NA,NA,NA,NA,NA,NA,NA,NA,NA,NA,NA,NA,NA,NA,NA,NA,NA,NA,NA,NA,NA,NA
778d0,shallow,flow.Sequence,1_1_4_1,NA,NA,completion,11348.66,85645,85641.12,85657.72,97006.38,97019,2023-08-11T12:07:02Z,97022.96,"c(""distractor1"", ""distractor2"", ""distractor3"")",Gegenwart,hadhara,s,katiba,jokofu,mikopo,NA,NA,NA,NA,NA,NA,NA,NA,NA,NA,NA,NA,NA,NA,NA,NA,NA,NA,NA,NA,NA,NA,NA
778d0,task,flow.Sequence,1_1_4,NA,NA,completion,11348.66,85644,85641.12,85657.72,97006.38,97020,2023-08-11T12:07:02Z,97022.96,"c(""distractor1"", ""distractor2"", ""distractor3"")",Gegenwart,hadhara,s,katiba,jokofu,mikopo,NA,NA,NA,NA,NA,NA,NA,NA,NA,NA,NA,NA,NA,NA,NA,NA,NA,NA,NA,NA,NA,NA,NA
778d0,deep,flow.Sequence,1_1_5_0,NA,NA,skipped,NA,97020,NA,NA,97006.38,97020,2023-08-11T12:07:02Z,97022.96,"c(""distractor1"", ""distractor2"", ""distractor3"")",Rückhalt,msaada,s,muhula,auwali,kiwimbe,NA,NA,NA,NA,NA,NA,NA,NA,NA,NA,NA,NA,NA,NA,NA,NA,NA,NA,NA,NA,NA,NA,NA
778d0,Shallow Question,html.Page,1_1_5_1_0,NA,NA,form submission,3682.04,97021,97006.38,97022.96,100705,100706,2023-08-11T12:07:06Z,100705.8,"c(""distractor1"", ""distractor2"", ""distractor3"")",Rückhalt,msaada,s,muhula,auwali,kiwimbe,auwali,NA,NA,NA,NA,NA,NA,NA,NA,NA,NA,NA,NA,NA,NA,NA,NA,NA,NA,NA,NA,NA,NA
778d0,"""Richtig""-Screen",canvas.Screen,1_1_5_1_1,NA,NA,skipped,NA,100709,NA,NA,100705,100709,2023-08-11T12:07:06Z,100705.8,"c(""distractor1"", ""distractor2"", ""distractor3"")",Rückhalt,msaada,s,muhula,auwali,kiwimbe,NA,NA,NA,NA,NA,NA,NA,NA,NA,NA,NA,NA,NA,NA,NA,NA,NA,NA,NA,NA,NA,NA,NA
778d0,"""Falsch""-Screen",canvas.Screen,1_1_5_1_2,NA,NA,timeout,4999.3,100713,100701.68,100705.8,105688.46,105689,2023-08-11T12:07:11Z,105705.1,"c(""distractor1"", ""distractor2"", ""distractor3"")",Rückhalt,msaada,s,muhula,auwali,kiwimbe,NA,NA,0,NA,NA,NA,NA,NA,NA,NA,NA,NA,NA,NA,NA,NA,NA,NA,NA,NA,NA,NA,NA
778d0,shallow,flow.Sequence,1_1_5_1,NA,NA,completion,8665.5,97021,97006.38,97022.96,105688.46,105689,2023-08-11T12:07:11Z,105705.1,"c(""distractor1"", ""distractor2"", ""distractor3"")",Rückhalt,msaada,s,muhula,auwali,kiwimbe,NA,NA,NA,NA,NA,NA,NA,NA,NA,NA,NA,NA,NA,NA,NA,NA,NA,NA,NA,NA,NA,NA,NA
778d0,task,flow.Sequence,1_1_5,NA,NA,completion,8665.5,97020,97006.38,97022.96,105688.46,105689,2023-08-11T12:07:11Z,105705.1,"c(""distractor1"", ""distractor2"", ""distractor3"")",Rückhalt,msaada,s,muhula,auwali,kiwimbe,NA,NA,NA,NA,NA,NA,NA,NA,NA,NA,NA,NA,NA,NA,NA,NA,NA,NA,NA,NA,NA,NA,NA
778d0,block,flow.Loop,1_1,NA,NA,completion,52857.7,52830,52830.4,52830.76,105688.46,105690,2023-08-11T12:07:11Z,105705.1,"c(""distractor1"", ""distractor2"", ""distractor3"")",NA,NA,NA,NA,NA,NA,NA,NA,NA,NA,NA,NA,NA,NA,NA,NA,NA,NA,NA,NA,NA,NA,NA,NA,NA,NA,NA,NA,NA
778d0,Practice,flow.Sequence,1,NA,NA,completion,58400.86,47286,47286.78,47287.6,105688.46,105690,2023-08-11T12:07:11Z,105705.1,NULL,NA,NA,NA,NA,NA,NA,NA,NA,NA,NA,NA,NA,NA,NA,NA,NA,NA,NA,NA,NA,NA,NA,NA,NA,NA,NA,NA,NA,NA
778d0,Experiment start,canvas.Screen,2,weiter,keypress(q),response,27027.9,105690,105688.46,105705.1,132733,132747,2023-08-11T12:07:38Z,132837.12,NULL,NA,NA,NA,NA,NA,NA,NA,NA,NA,NA,NA,NA,NA,NA,NA,NA,NA,NA,NA,NA,NA,NA,NA,NA,NA,NA,NA,NA,NA
778d0,Deep Question,html.Page,3_0_0_0_0_0_0,NA,NA,form submission,7438.88,132837,132836.8,132837.12,140276,140276,2023-08-11T12:07:45Z,140274.68,NULL,Schlange,foleni,d,NA,NA,NA,d,NA,NA,0,NA,NA,NA,NA,NA,NA,NA,NA,NA,NA,NA,NA,NA,NA,NA,NA,NA,NA,NA
778d0,"""Richtig""-Screen",canvas.Screen,3_0_0_0_0_0_1,NA,NA,skipped,NA,140279,NA,NA,140276,140279,2023-08-11T12:07:45Z,140274.68,NULL,Schlange,foleni,d,NA,NA,NA,NA,sdf,NA,0,NA,NA,NA,NA,NA,NA,NA,NA,NA,NA,NA,NA,NA,NA,NA,NA,NA,NA,NA
778d0,"""Falsch""-Screen",canvas.Screen,3_0_0_0_0_0_2,NA,NA,timeout,4992.1,140281,140274.3,140274.68,145250.1,145251,2023-08-11T12:07:50Z,145266.78,NULL,Schlange,foleni,d,NA,NA,NA,NA,sdf,0,0,NA,NA,NA,NA,NA,NA,NA,NA,NA,NA,NA,NA,NA,NA,NA,NA,NA,NA,NA
778d0,deep,flow.Sequence,3_0_0_0_0_0,NA,NA,completion,12412.98,132837,132836.8,132837.12,145250.1,145252,2023-08-11T12:07:50Z,145266.78,NULL,Schlange,foleni,d,NA,NA,NA,NA,sdf,NA,0,NA,NA,NA,NA,NA,NA,NA,NA,NA,NA,NA,NA,NA,NA,NA,NA,NA,NA,NA
778d0,shallow,flow.Sequence,3_0_0_0_0_1,NA,NA,skipped,NA,145252,NA,NA,145250.1,145253,2023-08-11T12:07:50Z,145266.78,NULL,Schlange,foleni,d,NA,NA,NA,NA,sdf,NA,0,NA,NA,NA,NA,NA,NA,NA,NA,NA,NA,NA,NA,NA,NA,NA,NA,NA,NA,NA
778d0,task,flow.Sequence,3_0_0_0_0,NA,NA,completion,12412.98,132837,132836.8,132837.12,145250.1,145253,2023-08-11T12:07:50Z,145266.78,NULL,Schlange,foleni,d,NA,NA,NA,NA,sdf,NA,0,NA,NA,NA,NA,NA,NA,NA,NA,NA,NA,NA,NA,NA,NA,NA,NA,NA,NA,NA
778d0,deep,flow.Sequence,3_0_0_0_1_0,NA,NA,skipped,NA,145253,NA,NA,145250.1,145253,2023-08-11T12:07:50Z,145266.78,NULL,Inhalt,yaliyomo,s,kishawishi,hifadhi,kutembea,NA,sdf,NA,0,NA,NA,NA,NA,NA,NA,NA,NA,NA,NA,NA,NA,NA,NA,NA,NA,NA,NA,NA
778d0,Shallow Question,html.Page,3_0_0_0_1_1_0,NA,NA,form submission,4049.22,145254,145250.1,145266.78,149316,149317,2023-08-11T12:07:54Z,149332.82,NULL,Inhalt,yaliyomo,s,kishawishi,hifadhi,kutembea,hifadhi,NA,NA,0,NA,NA,NA,NA,NA,NA,NA,NA,NA,NA,NA,NA,NA,NA,NA,NA,NA,NA,NA
778d0,"""Richtig""-Screen",canvas.Screen,3_0_0_0_1_1_1,NA,NA,skipped,NA,149323,NA,NA,149316,149323,2023-08-11T12:07:54Z,149332.82,NULL,Inhalt,yaliyomo,s,kishawishi,hifadhi,kutembea,NA,sdf,NA,0,NA,NA,NA,NA,NA,NA,NA,NA,NA,NA,NA,NA,NA,NA,NA,NA,NA,NA,NA
778d0,"""Falsch""-Screen",canvas.Screen,3_0_0_0_1_1_2,NA,NA,timeout,4999.4,149329,149310.48,149332.82,154315.64,154317,2023-08-11T12:07:59Z,154332.22,NULL,Inhalt,yaliyomo,s,kishawishi,hifadhi,kutembea,NA,sdf,0,0,NA,NA,NA,NA,NA,NA,NA,NA,NA,NA,NA,NA,NA,NA,NA,NA,NA,NA,NA
778d0,shallow,flow.Sequence,3_0_0_0_1_1,NA,NA,completion,9048.86,145254,145250.1,145266.78,154315.64,154318,2023-08-11T12:07:59Z,154332.22,NULL,Inhalt,yaliyomo,s,kishawishi,hifadhi,kutembea,NA,sdf,NA,0,NA,NA,NA,NA,NA,NA,NA,NA,NA,NA,NA,NA,NA,NA,NA,NA,NA,NA,NA
778d0,task,flow.Sequence,3_0_0_0_1,NA,NA,completion,9048.86,145253,145250.1,145266.78,154315.64,154319,2023-08-11T12:07:59Z,154332.22,NULL,Inhalt,yaliyomo,s,kishawishi,hifadhi,kutembea,NA,sdf,NA,0,NA,NA,NA,NA,NA,NA,NA,NA,NA,NA,NA,NA,NA,NA,NA,NA,NA,NA,NA
778d0,Deep Question,html.Page,3_0_0_0_2_0_0,NA,NA,form submission,4505.78,154319,154315.64,154332.22,158838,158839,2023-08-11T12:08:04Z,158837.3,NULL,Sympathie,mapendano,d,NA,NA,NA,foleni,NA,NA,0,NA,NA,NA,NA,NA,NA,NA,NA,NA,NA,NA,NA,NA,NA,NA,NA,NA,NA,NA
778d0,"""Richtig""-Screen",canvas.Screen,3_0_0_0_2_0_1,NA,NA,skipped,NA,158841,NA,NA,158838,158841,2023-08-11T12:08:04Z,158837.3,NULL,Sympathie,mapendano,d,NA,NA,NA,NA,sdf,NA,0,NA,NA,NA,NA,NA,NA,NA,NA,NA,NA,NA,NA,NA,NA,NA,NA,NA,NA,NA
778d0,"""Falsch""-Screen",canvas.Screen,3_0_0_0_2_0_2,NA,NA,timeout,4993.7,158844,158836.96,158837.3,163814.38,163816,2023-08-11T12:08:09Z,163831,NULL,Sympathie,mapendano,d,NA,NA,NA,NA,sdf,0,0,NA,NA,NA,NA,NA,NA,NA,NA,NA,NA,NA,NA,NA,NA,NA,NA,NA,NA,NA
778d0,deep,flow.Sequence,3_0_0_0_2_0,NA,NA,completion,9482.16,154319,154315.64,154332.22,163814.38,163817,2023-08-11T12:08:09Z,163831,NULL,Sympathie,mapendano,d,NA,NA,NA,NA,sdf,NA,0,NA,NA,NA,NA,NA,NA,NA,NA,NA,NA,NA,NA,NA,NA,NA,NA,NA,NA,NA
778d0,shallow,flow.Sequence,3_0_0_0_2_1,NA,NA,skipped,NA,163817,NA,NA,163814.38,163818,2023-08-11T12:08:09Z,163831,NULL,Sympathie,mapendano,d,NA,NA,NA,NA,sdf,NA,0,NA,NA,NA,NA,NA,NA,NA,NA,NA,NA,NA,NA,NA,NA,NA,NA,NA,NA,NA
778d0,task,flow.Sequence,3_0_0_0_2,NA,NA,completion,9482.16,154319,154315.64,154332.22,163814.38,163818,2023-08-11T12:08:09Z,163831,NULL,Sympathie,mapendano,d,NA,NA,NA,NA,sdf,NA,0,NA,NA,NA,NA,NA,NA,NA,NA,NA,NA,NA,NA,NA,NA,NA,NA,NA,NA,NA
778d0,Deep Question,html.Page,3_0_0_0_3_0_0,NA,NA,form submission,6272,163819,163814.38,163831,170103,170103,2023-08-11T12:08:15Z,170113.5,NULL,Toleranz,kuvumiliana,d,NA,NA,NA,mapendano,NA,NA,0,NA,NA,NA,NA,NA,NA,NA,NA,NA,NA,NA,NA,NA,NA,NA,NA,NA,NA,NA
778d0,"""Richtig""-Screen",canvas.Screen,3_0_0_0_3_0_1,NA,NA,skipped,NA,170105,NA,NA,170103,170105,2023-08-11T12:08:15Z,170113.5,NULL,Toleranz,kuvumiliana,d,NA,NA,NA,NA,sdf,NA,0,NA,NA,NA,NA,NA,NA,NA,NA,NA,NA,NA,NA,NA,NA,NA,NA,NA,NA,NA
778d0,"""Falsch""-Screen",canvas.Screen,3_0_0_0_3_0_2,NA,NA,timeout,4999.38,170108,170101.48,170113.5,175096.28,175102,2023-08-11T12:08:20Z,175112.88,NULL,Toleranz,kuvumiliana,d,NA,NA,NA,NA,sdf,0,0,NA,NA,NA,NA,NA,NA,NA,NA,NA,NA,NA,NA,NA,NA,NA,NA,NA,NA,NA
778d0,deep,flow.Sequence,3_0_0_0_3_0,NA,NA,completion,11265.28,163818,163814.38,163831,175096.28,175104,2023-08-11T12:08:20Z,175112.88,NULL,Toleranz,kuvumiliana,d,NA,NA,NA,NA,sdf,NA,0,NA,NA,NA,NA,NA,NA,NA,NA,NA,NA,NA,NA,NA,NA,NA,NA,NA,NA,NA
778d0,shallow,flow.Sequence,3_0_0_0_3_1,NA,NA,skipped,NA,175106,NA,NA,175096.28,175107,2023-08-11T12:08:20Z,175112.88,NULL,Toleranz,kuvumiliana,d,NA,NA,NA,NA,sdf,NA,0,NA,NA,NA,NA,NA,NA,NA,NA,NA,NA,NA,NA,NA,NA,NA,NA,NA,NA,NA
778d0,task,flow.Sequence,3_0_0_0_3,NA,NA,completion,11265.28,163818,163814.38,163831,175096.28,175107,2023-08-11T12:08:20Z,175112.88,NULL,Toleranz,kuvumiliana,d,NA,NA,NA,NA,sdf,NA,0,NA,NA,NA,NA,NA,NA,NA,NA,NA,NA,NA,NA,NA,NA,NA,NA,NA,NA,NA
778d0,deep,flow.Sequence,3_0_0_0_4_0,NA,NA,skipped,NA,175108,NA,NA,175096.28,175108,2023-08-11T12:08:20Z,175112.88,NULL,Beweis,ushahidi,s,marudio,kizuizi,mtendaji,NA,sdf,NA,0,NA,NA,NA,NA,NA,NA,NA,NA,NA,NA,NA,NA,NA,NA,NA,NA,NA,NA,NA
778d0,Shallow Question,html.Page,3_0_0_0_4_1_0,NA,NA,form submission,4088.12,175108,175096.28,175112.88,179201,179201,2023-08-11T12:08:24Z,179195.62,NULL,Beweis,ushahidi,s,marudio,kizuizi,mtendaji,ushahidi,NA,NA,0,NA,NA,NA,NA,NA,NA,NA,NA,NA,NA,NA,NA,NA,NA,NA,NA,NA,NA,NA
778d0,"""Richtig""-Screen",canvas.Screen,3_0_0_0_4_1_1,NA,NA,timeout,4999.46,179208,179191.78,179195.62,184178.48,184181,2023-08-11T12:08:29Z,184195.08,NULL,Beweis,ushahidi,s,marudio,kizuizi,mtendaji,NA,sdf,1,0,NA,NA,NA,NA,NA,NA,NA,NA,NA,NA,NA,NA,NA,NA,NA,NA,NA,NA,NA
778d0,"""Falsch""-Screen",canvas.Screen,3_0_0_0_4_1_2,NA,NA,skipped,NA,184189,NA,NA,184178.48,184189,2023-08-11T12:08:29Z,184195.08,NULL,Beweis,ushahidi,s,marudio,kizuizi,mtendaji,NA,sdf,NA,0,NA,NA,NA,NA,NA,NA,NA,NA,NA,NA,NA,NA,NA,NA,NA,NA,NA,NA,NA
778d0,shallow,flow.Sequence,3_0_0_0_4_1,NA,NA,completion,9065.6,175108,175096.28,175112.88,184178.48,184190,2023-08-11T12:08:29Z,184195.08,NULL,Beweis,ushahidi,s,marudio,kizuizi,mtendaji,NA,sdf,NA,0,NA,NA,NA,NA,NA,NA,NA,NA,NA,NA,NA,NA,NA,NA,NA,NA,NA,NA,NA
778d0,task,flow.Sequence,3_0_0_0_4,NA,NA,completion,9065.6,175108,175096.28,175112.88,184178.48,184191,2023-08-11T12:08:29Z,184195.08,NULL,Beweis,ushahidi,s,marudio,kizuizi,mtendaji,NA,sdf,NA,0,NA,NA,NA,NA,NA,NA,NA,NA,NA,NA,NA,NA,NA,NA,NA,NA,NA,NA,NA
778d0,deep,flow.Sequence,3_0_0_0_5_0,NA,NA,skipped,NA,184191,NA,NA,184178.48,184192,2023-08-11T12:08:29Z,184195.08,NULL,Vermutung,udhanifu,s,haramia,tikisho,itifaki,NA,sdf,NA,0,NA,NA,NA,NA,NA,NA,NA,NA,NA,NA,NA,NA,NA,NA,NA,NA,NA,NA,NA
778d0,Shallow Question,html.Page,3_0_0_0_5_1_0,NA,NA,form submission,5141.92,184192,184178.48,184195.08,189337,189338,2023-08-11T12:08:34Z,189344.36,NULL,Vermutung,udhanifu,s,haramia,tikisho,itifaki,itifaki,NA,NA,0,NA,NA,NA,NA,NA,NA,NA,NA,NA,NA,NA,NA,NA,NA,NA,NA,NA,NA,NA
778d0,"""Richtig""-Screen",canvas.Screen,3_0_0_0_5_1_1,NA,NA,skipped,NA,189345,NA,NA,189337,189345,2023-08-11T12:08:34Z,189344.36,NULL,Vermutung,udhanifu,s,haramia,tikisho,itifaki,NA,sdf,NA,0,NA,NA,NA,NA,NA,NA,NA,NA,NA,NA,NA,NA,NA,NA,NA,NA,NA,NA,NA
778d0,"""Falsch""-Screen",canvas.Screen,3_0_0_0_5_1_2,NA,NA,timeout,4999.38,189349,189332.6,189344.36,194327.1,194328,2023-08-11T12:08:39Z,194343.74,NULL,Vermutung,udhanifu,s,haramia,tikisho,itifaki,NA,sdf,0,0,NA,NA,NA,NA,NA,NA,NA,NA,NA,NA,NA,NA,NA,NA,NA,NA,NA,NA,NA
778d0,shallow,flow.Sequence,3_0_0_0_5_1,NA,NA,completion,10132.02,184192,184178.48,184195.08,194327.1,194329,2023-08-11T12:08:39Z,194343.74,NULL,Vermutung,udhanifu,s,haramia,tikisho,itifaki,NA,sdf,NA,0,NA,NA,NA,NA,NA,NA,NA,NA,NA,NA,NA,NA,NA,NA,NA,NA,NA,NA,NA
778d0,task,flow.Sequence,3_0_0_0_5,NA,NA,completion,10132.02,184191,184178.48,184195.08,194327.1,194329,2023-08-11T12:08:39Z,194343.74,NULL,Vermutung,udhanifu,s,haramia,tikisho,itifaki,NA,sdf,NA,0,NA,NA,NA,NA,NA,NA,NA,NA,NA,NA,NA,NA,NA,NA,NA,NA,NA,NA,NA
778d0,Deep Question,html.Page,3_0_0_0_6_0_0,NA,NA,form submission,4618.26,194329,194327.1,194343.74,198962,198962,2023-08-11T12:08:44Z,198976.44,NULL,Annäherung,maegesho,d,NA,NA,NA,h,NA,NA,0,NA,NA,NA,NA,NA,NA,NA,NA,NA,NA,NA,NA,NA,NA,NA,NA,NA,NA,NA
778d0,"""Richtig""-Screen",canvas.Screen,3_0_0_0_6_0_1,NA,NA,skipped,NA,198965,NA,NA,198962,198966,2023-08-11T12:08:44Z,198976.44,NULL,Annäherung,maegesho,d,NA,NA,NA,NA,sdf,NA,0,NA,NA,NA,NA,NA,NA,NA,NA,NA,NA,NA,NA,NA,NA,NA,NA,NA,NA,NA
778d0,"""Falsch""-Screen",canvas.Screen,3_0_0_0_6_0_2,NA,NA,timeout,4999.42,198970,198961.22,198976.44,203959.18,203960,2023-08-11T12:08:49Z,203975.86,NULL,Annäherung,maegesho,d,NA,NA,NA,NA,sdf,0,0,NA,NA,NA,NA,NA,NA,NA,NA,NA,NA,NA,NA,NA,NA,NA,NA,NA,NA,NA
778d0,deep,flow.Sequence,3_0_0_0_6_0,NA,NA,completion,9615.44,194329,194327.1,194343.74,203959.18,203961,2023-08-11T12:08:49Z,203975.86,NULL,Annäherung,maegesho,d,NA,NA,NA,NA,sdf,NA,0,NA,NA,NA,NA,NA,NA,NA,NA,NA,NA,NA,NA,NA,NA,NA,NA,NA,NA,NA
778d0,shallow,flow.Sequence,3_0_0_0_6_1,NA,NA,skipped,NA,203961,NA,NA,203959.18,203961,2023-08-11T12:08:49Z,203975.86,NULL,Annäherung,maegesho,d,NA,NA,NA,NA,sdf,NA,0,NA,NA,NA,NA,NA,NA,NA,NA,NA,NA,NA,NA,NA,NA,NA,NA,NA,NA,NA
778d0,task,flow.Sequence,3_0_0_0_6,NA,NA,completion,9615.44,194329,194327.1,194343.74,203959.18,203961,2023-08-11T12:08:49Z,203975.86,NULL,Annäherung,maegesho,d,NA,NA,NA,NA,sdf,NA,0,NA,NA,NA,NA,NA,NA,NA,NA,NA,NA,NA,NA,NA,NA,NA,NA,NA,NA,NA
778d0,deep,flow.Sequence,3_0_0_0_7_0,NA,NA,skipped,NA,203962,NA,NA,203959.18,203962,2023-08-11T12:08:49Z,203975.86,NULL,Polizist,msongora,s,simanzi,mandhari,nidhamu,NA,sdf,NA,0,NA,NA,NA,NA,NA,NA,NA,NA,NA,NA,NA,NA,NA,NA,NA,NA,NA,NA,NA
778d0,Shallow Question,html.Page,3_0_0_0_7_1_0,NA,NA,form submission,3756.14,203962,203959.18,203975.86,207732,207733,2023-08-11T12:08:53Z,207740.04,NULL,Polizist,msongora,s,simanzi,mandhari,nidhamu,simanzi,NA,NA,0,NA,NA,NA,NA,NA,NA,NA,NA,NA,NA,NA,NA,NA,NA,NA,NA,NA,NA,NA
778d0,"""Richtig""-Screen",canvas.Screen,3_0_0_0_7_1_1,NA,NA,skipped,NA,207738,NA,NA,207732,207738,2023-08-11T12:08:53Z,207740.04,NULL,Polizist,msongora,s,simanzi,mandhari,nidhamu,NA,sdf,NA,0,NA,NA,NA,NA,NA,NA,NA,NA,NA,NA,NA,NA,NA,NA,NA,NA,NA,NA,NA
778d0,"""Falsch""-Screen",canvas.Screen,3_0_0_0_7_1_2,NA,NA,timeout,5001.36,207742,207727.5,207740.04,212724.72,212725,2023-08-11T12:08:58Z,212741.4,NULL,Polizist,msongora,s,simanzi,mandhari,nidhamu,NA,sdf,0,0,NA,NA,NA,NA,NA,NA,NA,NA,NA,NA,NA,NA,NA,NA,NA,NA,NA,NA,NA
778d0,shallow,flow.Sequence,3_0_0_0_7_1,NA,NA,completion,8748.86,203962,203959.18,203975.86,212724.72,212726,2023-08-11T12:08:58Z,212741.4,NULL,Polizist,msongora,s,simanzi,mandhari,nidhamu,NA,sdf,NA,0,NA,NA,NA,NA,NA,NA,NA,NA,NA,NA,NA,NA,NA,NA,NA,NA,NA,NA,NA
778d0,task,flow.Sequence,3_0_0_0_7,NA,NA,completion,8748.86,203962,203959.18,203975.86,212724.72,212726,2023-08-11T12:08:58Z,212741.4,NULL,Polizist,msongora,s,simanzi,mandhari,nidhamu,NA,sdf,NA,0,NA,NA,NA,NA,NA,NA,NA,NA,NA,NA,NA,NA,NA,NA,NA,NA,NA,NA,NA
778d0,block,flow.Loop,3_0_0_0,NA,NA,completion,79887.6,132837,132836.8,132837.12,212724.72,212727,2023-08-11T12:08:58Z,212741.4,NULL,NA,NA,NA,NA,NA,NA,NA,sdf,NA,0,NA,NA,NA,NA,NA,NA,NA,NA,NA,NA,NA,NA,NA,NA,NA,NA,NA,NA,NA
778d0,weiter,canvas.Screen,3_0_0_1,sdf,keypress(Space),response,1241.6,212727,212724.72,212741.4,213983,213998,2023-08-11T12:08:59Z,214063.2,NULL,NA,NA,NA,NA,NA,NA,NA,sdf,NA,0,NA,NA,NA,NA,NA,NA,NA,NA,NA,NA,NA,NA,NA,NA,NA,NA,NA,NA,NA
778d0,check continue,flow.Sequence,3_0_0,NA,NA,completion,81145.88,132837,132836.8,132837.12,213983,213999,2023-08-11T12:08:59Z,214063.2,NULL,NA,NA,NA,NA,NA,NA,NA,sdf,NA,0,NA,NA,NA,NA,NA,NA,NA,NA,NA,NA,NA,NA,NA,NA,NA,NA,NA,NA,NA
778d0,deep,flow.Sequence,3_0_1_0_0_0,NA,NA,skipped,NA,214063,NA,NA,213983,214063,2023-08-11T12:08:59Z,214063.2,NULL,Polizist,msongora,s,simanzi,mandhari,nidhamu,NA,sdfdsf,NA,1,NA,NA,NA,NA,NA,NA,NA,NA,NA,NA,NA,NA,NA,NA,NA,NA,NA,NA,NA
778d0,Shallow Question,html.Page,3_0_1_0_0_1_0,NA,NA,form submission,4247.8,214063,214062.92,214063.2,218311,218312,2023-08-11T12:09:03Z,218307.36,NULL,Polizist,msongora,s,simanzi,mandhari,nidhamu,msongora,NA,NA,1,NA,NA,NA,NA,NA,NA,NA,NA,NA,NA,NA,NA,NA,NA,NA,NA,NA,NA,NA
778d0,"""Richtig""-Screen",canvas.Screen,3_0_1_0_0_1_1,NA,NA,timeout,4999.42,218316,218305.6,218307.36,223290.14,223291,2023-08-11T12:09:08Z,223306.78,NULL,Polizist,msongora,s,simanzi,mandhari,nidhamu,NA,sdfdsf,1,1,NA,NA,NA,NA,NA,NA,NA,NA,NA,NA,NA,NA,NA,NA,NA,NA,NA,NA,NA
778d0,"""Falsch""-Screen",canvas.Screen,3_0_1_0_0_1_2,NA,NA,skipped,NA,223298,NA,NA,223290.14,223299,2023-08-11T12:09:08Z,223306.78,NULL,Polizist,msongora,s,simanzi,mandhari,nidhamu,NA,sdfdsf,NA,1,NA,NA,NA,NA,NA,NA,NA,NA,NA,NA,NA,NA,NA,NA,NA,NA,NA,NA,NA
778d0,shallow,flow.Sequence,3_0_1_0_0_1,NA,NA,completion,9226.94,214063,214062.92,214063.2,223290.14,223299,2023-08-11T12:09:08Z,223306.78,NULL,Polizist,msongora,s,simanzi,mandhari,nidhamu,NA,sdfdsf,NA,1,NA,NA,NA,NA,NA,NA,NA,NA,NA,NA,NA,NA,NA,NA,NA,NA,NA,NA,NA
778d0,task,flow.Sequence,3_0_1_0_0,NA,NA,completion,9226.94,214063,214062.92,214063.2,223290.14,223299,2023-08-11T12:09:08Z,223306.78,NULL,Polizist,msongora,s,simanzi,mandhari,nidhamu,NA,sdfdsf,NA,1,NA,NA,NA,NA,NA,NA,NA,NA,NA,NA,NA,NA,NA,NA,NA,NA,NA,NA,NA
778d0,Deep Question,html.Page,3_0_1_0_1_0_0,NA,NA,form submission,4524.22,223299,223290.14,223306.78,227831,227832,2023-08-11T12:09:13Z,227839.4,NULL,Toleranz,kuvumiliana,d,NA,NA,NA,mapendano,NA,NA,1,NA,NA,NA,NA,NA,NA,NA,NA,NA,NA,NA,NA,NA,NA,NA,NA,NA,NA,NA
778d0,"""Richtig""-Screen",canvas.Screen,3_0_1_0_1_0_1,NA,NA,skipped,NA,227834,NA,NA,227831,227835,2023-08-11T12:09:13Z,227839.4,NULL,Toleranz,kuvumiliana,d,NA,NA,NA,NA,sdfdsf,NA,1,NA,NA,NA,NA,NA,NA,NA,NA,NA,NA,NA,NA,NA,NA,NA,NA,NA,NA,NA
778d0,"""Falsch""-Screen",canvas.Screen,3_0_1_0_1_0_2,NA,NA,timeout,4999.3,227837,227830.38,227839.4,232822.12,232827,2023-08-11T12:09:18Z,232838.7,NULL,Toleranz,kuvumiliana,d,NA,NA,NA,NA,sdfdsf,0,1,NA,NA,NA,NA,NA,NA,NA,NA,NA,NA,NA,NA,NA,NA,NA,NA,NA,NA,NA
778d0,deep,flow.Sequence,3_0_1_0_1_0,NA,NA,completion,9515.34,223299,223290.14,223306.78,232822.12,232829,2023-08-11T12:09:18Z,232838.7,NULL,Toleranz,kuvumiliana,d,NA,NA,NA,NA,sdfdsf,NA,1,NA,NA,NA,NA,NA,NA,NA,NA,NA,NA,NA,NA,NA,NA,NA,NA,NA,NA,NA
778d0,shallow,flow.Sequence,3_0_1_0_1_1,NA,NA,skipped,NA,232830,NA,NA,232822.12,232830,2023-08-11T12:09:18Z,232838.7,NULL,Toleranz,kuvumiliana,d,NA,NA,NA,NA,sdfdsf,NA,1,NA,NA,NA,NA,NA,NA,NA,NA,NA,NA,NA,NA,NA,NA,NA,NA,NA,NA,NA
778d0,task,flow.Sequence,3_0_1_0_1,NA,NA,completion,9515.34,223299,223290.14,223306.78,232822.12,232830,2023-08-11T12:09:18Z,232838.7,NULL,Toleranz,kuvumiliana,d,NA,NA,NA,NA,sdfdsf,NA,1,NA,NA,NA,NA,NA,NA,NA,NA,NA,NA,NA,NA,NA,NA,NA,NA,NA,NA,NA
778d0,Deep Question,html.Page,3_0_1_0_2_0_0,NA,NA,form submission,2618.3,232831,232822.12,232838.7,235457,235458,2023-08-11T12:09:20Z,235456.68,NULL,Annäherung,maegesho,d,NA,NA,NA,foleni,NA,NA,1,NA,NA,NA,NA,NA,NA,NA,NA,NA,NA,NA,NA,NA,NA,NA,NA,NA,NA,NA
778d0,"""Richtig""-Screen",canvas.Screen,3_0_1_0_2_0_1,NA,NA,skipped,NA,235464,NA,NA,235457,235464,2023-08-11T12:09:20Z,235456.68,NULL,Annäherung,maegesho,d,NA,NA,NA,NA,sdfdsf,NA,1,NA,NA,NA,NA,NA,NA,NA,NA,NA,NA,NA,NA,NA,NA,NA,NA,NA,NA,NA
778d0,"""Falsch""-Screen",canvas.Screen,3_0_1_0_2_0_2,NA,NA,timeout,4997.76,235465,235456.42,235456.68,240437.9,240439,2023-08-11T12:09:25Z,240454.44,NULL,Annäherung,maegesho,d,NA,NA,NA,NA,sdfdsf,0,1,NA,NA,NA,NA,NA,NA,NA,NA,NA,NA,NA,NA,NA,NA,NA,NA,NA,NA,NA
778d0,deep,flow.Sequence,3_0_1_0_2_0,NA,NA,completion,7599.2,232831,232822.12,232838.7,240437.9,240441,2023-08-11T12:09:25Z,240454.44,NULL,Annäherung,maegesho,d,NA,NA,NA,NA,sdfdsf,NA,1,NA,NA,NA,NA,NA,NA,NA,NA,NA,NA,NA,NA,NA,NA,NA,NA,NA,NA,NA
778d0,shallow,flow.Sequence,3_0_1_0_2_1,NA,NA,skipped,NA,240441,NA,NA,240437.9,240441,2023-08-11T12:09:25Z,240454.44,NULL,Annäherung,maegesho,d,NA,NA,NA,NA,sdfdsf,NA,1,NA,NA,NA,NA,NA,NA,NA,NA,NA,NA,NA,NA,NA,NA,NA,NA,NA,NA,NA
778d0,task,flow.Sequence,3_0_1_0_2,NA,NA,completion,7599.2,232830,232822.12,232838.7,240437.9,240442,2023-08-11T12:09:25Z,240454.44,NULL,Annäherung,maegesho,d,NA,NA,NA,NA,sdfdsf,NA,1,NA,NA,NA,NA,NA,NA,NA,NA,NA,NA,NA,NA,NA,NA,NA,NA,NA,NA,NA
778d0,deep,flow.Sequence,3_0_1_0_3_0,NA,NA,skipped,NA,240442,NA,NA,240437.9,240444,2023-08-11T12:09:25Z,240454.44,NULL,Inhalt,yaliyomo,s,kishawishi,hifadhi,kutembea,NA,sdfdsf,NA,1,NA,NA,NA,NA,NA,NA,NA,NA,NA,NA,NA,NA,NA,NA,NA,NA,NA,NA,NA
778d0,Shallow Question,html.Page,3_0_1_0_3_1_0,NA,NA,form submission,5591.56,240444,240437.9,240454.44,246046,246047,2023-08-11T12:09:31Z,246053.64,NULL,Inhalt,yaliyomo,s,kishawishi,hifadhi,kutembea,yaliyomo,NA,NA,1,NA,NA,NA,NA,NA,NA,NA,NA,NA,NA,NA,NA,NA,NA,NA,NA,NA,NA,NA
778d0,"""Richtig""-Screen",canvas.Screen,3_0_1_0_3_1_1,NA,NA,timeout,4999.48,246053,246040.14,246053.64,251036.46,251038,2023-08-11T12:09:36Z,251053.12,NULL,Inhalt,yaliyomo,s,kishawishi,hifadhi,kutembea,NA,sdfdsf,1,1,NA,NA,NA,NA,NA,NA,NA,NA,NA,NA,NA,NA,NA,NA,NA,NA,NA,NA,NA
778d0,"""Falsch""-Screen",canvas.Screen,3_0_1_0_3_1_2,NA,NA,skipped,NA,251045,NA,NA,251036.46,251045,2023-08-11T12:09:36Z,251053.12,NULL,Inhalt,yaliyomo,s,kishawishi,hifadhi,kutembea,NA,sdfdsf,NA,1,NA,NA,NA,NA,NA,NA,NA,NA,NA,NA,NA,NA,NA,NA,NA,NA,NA,NA,NA
778d0,shallow,flow.Sequence,3_0_1_0_3_1,NA,NA,completion,10582.02,240444,240437.9,240454.44,251036.46,251046,2023-08-11T12:09:36Z,251053.12,NULL,Inhalt,yaliyomo,s,kishawishi,hifadhi,kutembea,NA,sdfdsf,NA,1,NA,NA,NA,NA,NA,NA,NA,NA,NA,NA,NA,NA,NA,NA,NA,NA,NA,NA,NA
778d0,task,flow.Sequence,3_0_1_0_3,NA,NA,completion,10582.02,240442,240437.9,240454.44,251036.46,251046,2023-08-11T12:09:36Z,251053.12,NULL,Inhalt,yaliyomo,s,kishawishi,hifadhi,kutembea,NA,sdfdsf,NA,1,NA,NA,NA,NA,NA,NA,NA,NA,NA,NA,NA,NA,NA,NA,NA,NA,NA,NA,NA
778d0,Deep Question,html.Page,3_0_1_0_4_0_0,NA,NA,form submission,4252.88,251047,251036.46,251053.12,255306,255307,2023-08-11T12:09:40Z,255319.1,NULL,Schlange,foleni,d,NA,NA,NA,foleni,NA,NA,1,NA,NA,NA,NA,NA,NA,NA,NA,NA,NA,NA,NA,NA,NA,NA,NA,NA,NA,NA
778d0,"""Richtig""-Screen",canvas.Screen,3_0_1_0_4_0_1,NA,NA,timeout,4999.4,255310,255305.38,255319.1,260301.94,260304,2023-08-11T12:09:45Z,260318.5,NULL,Schlange,foleni,d,NA,NA,NA,NA,sdfdsf,1,1,NA,NA,NA,NA,NA,NA,NA,NA,NA,NA,NA,NA,NA,NA,NA,NA,NA,NA,NA
778d0,"""Falsch""-Screen",canvas.Screen,3_0_1_0_4_0_2,NA,NA,skipped,NA,260310,NA,NA,260301.94,260311,2023-08-11T12:09:45Z,260318.5,NULL,Schlange,foleni,d,NA,NA,NA,NA,sdfdsf,NA,1,NA,NA,NA,NA,NA,NA,NA,NA,NA,NA,NA,NA,NA,NA,NA,NA,NA,NA,NA
778d0,deep,flow.Sequence,3_0_1_0_4_0,NA,NA,completion,9248.82,251047,251036.46,251053.12,260301.94,260312,2023-08-11T12:09:45Z,260318.5,NULL,Schlange,foleni,d,NA,NA,NA,NA,sdfdsf,NA,1,NA,NA,NA,NA,NA,NA,NA,NA,NA,NA,NA,NA,NA,NA,NA,NA,NA,NA,NA
778d0,shallow,flow.Sequence,3_0_1_0_4_1,NA,NA,skipped,NA,260312,NA,NA,260301.94,260312,2023-08-11T12:09:45Z,260318.5,NULL,Schlange,foleni,d,NA,NA,NA,NA,sdfdsf,NA,1,NA,NA,NA,NA,NA,NA,NA,NA,NA,NA,NA,NA,NA,NA,NA,NA,NA,NA,NA
778d0,task,flow.Sequence,3_0_1_0_4,NA,NA,completion,9248.82,251046,251036.46,251053.12,260301.94,260312,2023-08-11T12:09:45Z,260318.5,NULL,Schlange,foleni,d,NA,NA,NA,NA,sdfdsf,NA,1,NA,NA,NA,NA,NA,NA,NA,NA,NA,NA,NA,NA,NA,NA,NA,NA,NA,NA,NA
778d0,Deep Question,html.Page,3_0_1_0_5_0_0,NA,NA,form submission,3886.5,260313,260301.94,260318.5,264205,264206,2023-08-11T12:09:49Z,264217.98,NULL,Sympathie,mapendano,d,NA,NA,NA,mapendano,NA,NA,1,NA,NA,NA,NA,NA,NA,NA,NA,NA,NA,NA,NA,NA,NA,NA,NA,NA,NA,NA
778d0,"""Richtig""-Screen",canvas.Screen,3_0_1_0_5_0_1,NA,NA,timeout,4999.4,264208,264204.52,264217.98,269200.82,269202,2023-08-11T12:09:54Z,269217.38,NULL,Sympathie,mapendano,d,NA,NA,NA,NA,sdfdsf,1,1,NA,NA,NA,NA,NA,NA,NA,NA,NA,NA,NA,NA,NA,NA,NA,NA,NA,NA,NA
778d0,"""Falsch""-Screen",canvas.Screen,3_0_1_0_5_0_2,NA,NA,skipped,NA,269210,NA,NA,269200.82,269211,2023-08-11T12:09:54Z,269217.38,NULL,Sympathie,mapendano,d,NA,NA,NA,NA,sdfdsf,NA,1,NA,NA,NA,NA,NA,NA,NA,NA,NA,NA,NA,NA,NA,NA,NA,NA,NA,NA,NA
778d0,deep,flow.Sequence,3_0_1_0_5_0,NA,NA,completion,8882.32,260313,260301.94,260318.5,269200.82,269211,2023-08-11T12:09:54Z,269217.38,NULL,Sympathie,mapendano,d,NA,NA,NA,NA,sdfdsf,NA,1,NA,NA,NA,NA,NA,NA,NA,NA,NA,NA,NA,NA,NA,NA,NA,NA,NA,NA,NA
778d0,shallow,flow.Sequence,3_0_1_0_5_1,NA,NA,skipped,NA,269211,NA,NA,269200.82,269212,2023-08-11T12:09:54Z,269217.38,NULL,Sympathie,mapendano,d,NA,NA,NA,NA,sdfdsf,NA,1,NA,NA,NA,NA,NA,NA,NA,NA,NA,NA,NA,NA,NA,NA,NA,NA,NA,NA,NA
778d0,task,flow.Sequence,3_0_1_0_5,NA,NA,completion,8882.32,260313,260301.94,260318.5,269200.82,269212,2023-08-11T12:09:54Z,269217.38,NULL,Sympathie,mapendano,d,NA,NA,NA,NA,sdfdsf,NA,1,NA,NA,NA,NA,NA,NA,NA,NA,NA,NA,NA,NA,NA,NA,NA,NA,NA,NA,NA
778d0,deep,flow.Sequence,3_0_1_0_6_0,NA,NA,skipped,NA,269212,NA,NA,269200.82,269213,2023-08-11T12:09:54Z,269217.38,NULL,Beweis,ushahidi,s,marudio,kizuizi,mtendaji,NA,sdfdsf,NA,1,NA,NA,NA,NA,NA,NA,NA,NA,NA,NA,NA,NA,NA,NA,NA,NA,NA,NA,NA
778d0,Shallow Question,html.Page,3_0_1_0_6_1_0,NA,NA,form submission,7867.62,269213,269200.82,269217.38,277085,277086,2023-08-11T12:10:02Z,277083.12,NULL,Beweis,ushahidi,s,marudio,kizuizi,mtendaji,ushahidi,NA,NA,1,NA,NA,NA,NA,NA,NA,NA,NA,NA,NA,NA,NA,NA,NA,NA,NA,NA,NA,NA
778d0,"""Richtig""-Screen",canvas.Screen,3_0_1_0_6_1_1,NA,NA,timeout,4999.26,277091,277079.98,277083.12,282065.72,282068,2023-08-11T12:10:07Z,282082.38,NULL,Beweis,ushahidi,s,marudio,kizuizi,mtendaji,NA,sdfdsf,1,1,NA,NA,NA,NA,NA,NA,NA,NA,NA,NA,NA,NA,NA,NA,NA,NA,NA,NA,NA
778d0,"""Falsch""-Screen",canvas.Screen,3_0_1_0_6_1_2,NA,NA,skipped,NA,282072,NA,NA,282065.72,282073,2023-08-11T12:10:07Z,282082.38,NULL,Beweis,ushahidi,s,marudio,kizuizi,mtendaji,NA,sdfdsf,NA,1,NA,NA,NA,NA,NA,NA,NA,NA,NA,NA,NA,NA,NA,NA,NA,NA,NA,NA,NA
778d0,shallow,flow.Sequence,3_0_1_0_6_1,NA,NA,completion,12848.34,269213,269200.82,269217.38,282065.72,282073,2023-08-11T12:10:07Z,282082.38,NULL,Beweis,ushahidi,s,marudio,kizuizi,mtendaji,NA,sdfdsf,NA,1,NA,NA,NA,NA,NA,NA,NA,NA,NA,NA,NA,NA,NA,NA,NA,NA,NA,NA,NA
778d0,task,flow.Sequence,3_0_1_0_6,NA,NA,completion,12848.34,269212,269200.82,269217.38,282065.72,282074,2023-08-11T12:10:07Z,282082.38,NULL,Beweis,ushahidi,s,marudio,kizuizi,mtendaji,NA,sdfdsf,NA,1,NA,NA,NA,NA,NA,NA,NA,NA,NA,NA,NA,NA,NA,NA,NA,NA,NA,NA,NA
778d0,deep,flow.Sequence,3_0_1_0_7_0,NA,NA,skipped,NA,282074,NA,NA,282065.72,282074,2023-08-11T12:10:07Z,282082.38,NULL,Vermutung,udhanifu,s,haramia,tikisho,itifaki,NA,sdfdsf,NA,1,NA,NA,NA,NA,NA,NA,NA,NA,NA,NA,NA,NA,NA,NA,NA,NA,NA,NA,NA
778d0,Shallow Question,html.Page,3_0_1_0_7_1_0,NA,NA,form submission,8753.62,282075,282065.72,282082.38,290836,290837,2023-08-11T12:10:16Z,290847.84,NULL,Vermutung,udhanifu,s,haramia,tikisho,itifaki,udhanifu,NA,NA,1,NA,NA,NA,NA,NA,NA,NA,NA,NA,NA,NA,NA,NA,NA,NA,NA,NA,NA,NA
778d0,"""Richtig""-Screen",canvas.Screen,3_0_1_0_7_1_1,NA,NA,timeout,4999.42,290842,290830.86,290847.84,295830.58,295831,2023-08-11T12:10:21Z,295847.26,NULL,Vermutung,udhanifu,s,haramia,tikisho,itifaki,NA,sdfdsf,1,1,NA,NA,NA,NA,NA,NA,NA,NA,NA,NA,NA,NA,NA,NA,NA,NA,NA,NA,NA
778d0,"""Falsch""-Screen",canvas.Screen,3_0_1_0_7_1_2,NA,NA,skipped,NA,295836,NA,NA,295830.58,295836,2023-08-11T12:10:21Z,295847.26,NULL,Vermutung,udhanifu,s,haramia,tikisho,itifaki,NA,sdfdsf,NA,1,NA,NA,NA,NA,NA,NA,NA,NA,NA,NA,NA,NA,NA,NA,NA,NA,NA,NA,NA
778d0,shallow,flow.Sequence,3_0_1_0_7_1,NA,NA,completion,13748.2,282075,282065.72,282082.38,295830.58,295836,2023-08-11T12:10:21Z,295847.26,NULL,Vermutung,udhanifu,s,haramia,tikisho,itifaki,NA,sdfdsf,NA,1,NA,NA,NA,NA,NA,NA,NA,NA,NA,NA,NA,NA,NA,NA,NA,NA,NA,NA,NA
778d0,task,flow.Sequence,3_0_1_0_7,NA,NA,completion,13748.2,282074,282065.72,282082.38,295830.58,295837,2023-08-11T12:10:21Z,295847.26,NULL,Vermutung,udhanifu,s,haramia,tikisho,itifaki,NA,sdfdsf,NA,1,NA,NA,NA,NA,NA,NA,NA,NA,NA,NA,NA,NA,NA,NA,NA,NA,NA,NA,NA
778d0,block,flow.Loop,3_0_1_0,NA,NA,completion,81767.38,214063,214062.92,214063.2,295830.58,295837,2023-08-11T12:10:21Z,295847.26,NULL,NA,NA,NA,NA,NA,NA,NA,sdfdsf,NA,1,NA,NA,NA,NA,NA,NA,NA,NA,NA,NA,NA,NA,NA,NA,NA,NA,NA,NA,NA
778d0,weiter,canvas.Screen,3_0_1_1,sdf,keypress(Space),response,1073.74,295837,295830.58,295847.26,296921,296933,2023-08-11T12:10:22Z,296993.46,NULL,NA,NA,NA,NA,NA,NA,NA,sdfdsf,NA,1,NA,NA,NA,NA,NA,NA,NA,NA,NA,NA,NA,NA,NA,NA,NA,NA,NA,NA,NA
778d0,check continue,flow.Sequence,3_0_1,NA,NA,completion,82857.8,214063,214062.92,214063.2,296921,296934,2023-08-11T12:10:22Z,296993.46,NULL,NA,NA,NA,NA,NA,NA,NA,sdfdsf,NA,1,NA,NA,NA,NA,NA,NA,NA,NA,NA,NA,NA,NA,NA,NA,NA,NA,NA,NA,NA
778d0,Deep Question,html.Page,3_0_2_0_0_0_0,NA,NA,form submission,4029.54,296994,296993.24,296993.46,301023,301023,2023-08-11T12:10:26Z,301029.88,NULL,Annäherung,maegesho,d,NA,NA,NA,miliano,NA,NA,2,NA,NA,NA,NA,NA,NA,NA,NA,NA,NA,NA,NA,NA,NA,NA,NA,NA,NA,NA
778d0,"""Richtig""-Screen",canvas.Screen,3_0_2_0_0_0_1,NA,NA,skipped,NA,301026,NA,NA,301023,301026,2023-08-11T12:10:26Z,301029.88,NULL,Annäherung,maegesho,d,NA,NA,NA,NA,sdf,NA,2,NA,NA,NA,NA,NA,NA,NA,NA,NA,NA,NA,NA,NA,NA,NA,NA,NA,NA,NA
778d0,"""Falsch""-Screen",canvas.Screen,3_0_2_0_0_0_2,NA,NA,timeout,4999.4,301029,301022.24,301029.88,306012.68,306018,2023-08-11T12:10:31Z,306029.28,NULL,Annäherung,maegesho,d,NA,NA,NA,NA,sdf,0,2,NA,NA,NA,NA,NA,NA,NA,NA,NA,NA,NA,NA,NA,NA,NA,NA,NA,NA,NA
778d0,deep,flow.Sequence,3_0_2_0_0_0,NA,NA,completion,9019.22,296994,296993.24,296993.46,306012.68,306020,2023-08-11T12:10:31Z,306029.28,NULL,Annäherung,maegesho,d,NA,NA,NA,NA,sdf,NA,2,NA,NA,NA,NA,NA,NA,NA,NA,NA,NA,NA,NA,NA,NA,NA,NA,NA,NA,NA
778d0,shallow,flow.Sequence,3_0_2_0_0_1,NA,NA,skipped,NA,306021,NA,NA,306012.68,306022,2023-08-11T12:10:31Z,306029.28,NULL,Annäherung,maegesho,d,NA,NA,NA,NA,sdf,NA,2,NA,NA,NA,NA,NA,NA,NA,NA,NA,NA,NA,NA,NA,NA,NA,NA,NA,NA,NA
778d0,task,flow.Sequence,3_0_2_0_0,NA,NA,completion,9019.22,296994,296993.24,296993.46,306012.68,306022,2023-08-11T12:10:31Z,306029.28,NULL,Annäherung,maegesho,d,NA,NA,NA,NA,sdf,NA,2,NA,NA,NA,NA,NA,NA,NA,NA,NA,NA,NA,NA,NA,NA,NA,NA,NA,NA,NA
778d0,deep,flow.Sequence,3_0_2_0_1_0,NA,NA,skipped,NA,306023,NA,NA,306012.68,306023,2023-08-11T12:10:31Z,306029.28,NULL,Inhalt,yaliyomo,s,kishawishi,hifadhi,kutembea,NA,sdf,NA,2,NA,NA,NA,NA,NA,NA,NA,NA,NA,NA,NA,NA,NA,NA,NA,NA,NA,NA,NA
778d0,Shallow Question,html.Page,3_0_2_0_1_1_0,NA,NA,form submission,5255.72,306024,306012.68,306029.28,311285,311286,2023-08-11T12:10:36Z,311295.34,NULL,Inhalt,yaliyomo,s,kishawishi,hifadhi,kutembea,yaliyomo,NA,NA,2,NA,NA,NA,NA,NA,NA,NA,NA,NA,NA,NA,NA,NA,NA,NA,NA,NA,NA,NA
778d0,"""Richtig""-Screen",canvas.Screen,3_0_2_0_1_1_1,NA,NA,timeout,4999.3799999999,311297,311278.74,311295.34,316278.1,316280,2023-08-11T12:10:41Z,316294.72,NULL,Inhalt,yaliyomo,s,kishawishi,hifadhi,kutembea,NA,sdf,1,2,NA,NA,NA,NA,NA,NA,NA,NA,NA,NA,NA,NA,NA,NA,NA,NA,NA,NA,NA
778d0,"""Falsch""-Screen",canvas.Screen,3_0_2_0_1_1_2,NA,NA,skipped,NA,316287,NA,NA,316278.1,316288,2023-08-11T12:10:41Z,316294.72,NULL,Inhalt,yaliyomo,s,kishawishi,hifadhi,kutembea,NA,sdf,NA,2,NA,NA,NA,NA,NA,NA,NA,NA,NA,NA,NA,NA,NA,NA,NA,NA,NA,NA,NA
778d0,shallow,flow.Sequence,3_0_2_0_1_1,NA,NA,completion,10248.82,306024,306012.68,306029.28,316278.1,316289,2023-08-11T12:10:41Z,316294.72,NULL,Inhalt,yaliyomo,s,kishawishi,hifadhi,kutembea,NA,sdf,NA,2,NA,NA,NA,NA,NA,NA,NA,NA,NA,NA,NA,NA,NA,NA,NA,NA,NA,NA,NA
778d0,task,flow.Sequence,3_0_2_0_1,NA,NA,completion,10248.82,306023,306012.68,306029.28,316278.1,316290,2023-08-11T12:10:41Z,316294.72,NULL,Inhalt,yaliyomo,s,kishawishi,hifadhi,kutembea,NA,sdf,NA,2,NA,NA,NA,NA,NA,NA,NA,NA,NA,NA,NA,NA,NA,NA,NA,NA,NA,NA,NA
778d0,deep,flow.Sequence,3_0_2_0_2_0,NA,NA,skipped,NA,316290,NA,NA,316278.1,316291,2023-08-11T12:10:41Z,316294.72,NULL,Beweis,ushahidi,s,marudio,kizuizi,mtendaji,NA,sdf,NA,2,NA,NA,NA,NA,NA,NA,NA,NA,NA,NA,NA,NA,NA,NA,NA,NA,NA,NA,NA
778d0,Shallow Question,html.Page,3_0_2_0_2_1_0,NA,NA,form submission,4518.28,316292,316278.1,316294.72,320813,320814,2023-08-11T12:10:46Z,320827.54,NULL,Beweis,ushahidi,s,marudio,kizuizi,mtendaji,ushahidi,NA,NA,2,NA,NA,NA,NA,NA,NA,NA,NA,NA,NA,NA,NA,NA,NA,NA,NA,NA,NA,NA
778d0,"""Richtig""-Screen",canvas.Screen,3_0_2_0_2_1_1,NA,NA,timeout,4999.28,320816,320810.06,320827.54,325810.16,325812,2023-08-11T12:10:51Z,325826.82,NULL,Beweis,ushahidi,s,marudio,kizuizi,mtendaji,NA,sdf,1,2,NA,NA,NA,NA,NA,NA,NA,NA,NA,NA,NA,NA,NA,NA,NA,NA,NA,NA,NA
778d0,"""Falsch""-Screen",canvas.Screen,3_0_2_0_2_1_2,NA,NA,skipped,NA,325819,NA,NA,325810.16,325820,2023-08-11T12:10:51Z,325826.82,NULL,Beweis,ushahidi,s,marudio,kizuizi,mtendaji,NA,sdf,NA,2,NA,NA,NA,NA,NA,NA,NA,NA,NA,NA,NA,NA,NA,NA,NA,NA,NA,NA,NA
778d0,shallow,flow.Sequence,3_0_2_0_2_1,NA,NA,completion,9515.44,316292,316278.1,316294.72,325810.16,325821,2023-08-11T12:10:51Z,325826.82,NULL,Beweis,ushahidi,s,marudio,kizuizi,mtendaji,NA,sdf,NA,2,NA,NA,NA,NA,NA,NA,NA,NA,NA,NA,NA,NA,NA,NA,NA,NA,NA,NA,NA
778d0,task,flow.Sequence,3_0_2_0_2,NA,NA,completion,9515.44,316290,316278.1,316294.72,325810.16,325821,2023-08-11T12:10:51Z,325826.82,NULL,Beweis,ushahidi,s,marudio,kizuizi,mtendaji,NA,sdf,NA,2,NA,NA,NA,NA,NA,NA,NA,NA,NA,NA,NA,NA,NA,NA,NA,NA,NA,NA,NA
778d0,deep,flow.Sequence,3_0_2_0_3_0,NA,NA,skipped,NA,325821,NA,NA,325810.16,325821,2023-08-11T12:10:51Z,325826.82,NULL,Vermutung,udhanifu,s,haramia,tikisho,itifaki,NA,sdf,NA,2,NA,NA,NA,NA,NA,NA,NA,NA,NA,NA,NA,NA,NA,NA,NA,NA,NA,NA,NA
778d0,Shallow Question,html.Page,3_0_2_0_3_1_0,NA,NA,form submission,4100.18,325822,325810.16,325826.82,329927,329927,2023-08-11T12:10:55Z,329926.16,NULL,Vermutung,udhanifu,s,haramia,tikisho,itifaki,udhanifu,NA,NA,2,NA,NA,NA,NA,NA,NA,NA,NA,NA,NA,NA,NA,NA,NA,NA,NA,NA,NA,NA
778d0,"""Richtig""-Screen",canvas.Screen,3_0_2_0_3_1_1,NA,NA,timeout,4999.4,329935,329921.34,329926.16,334908.88,334910,2023-08-11T12:11:00Z,334925.56,NULL,Vermutung,udhanifu,s,haramia,tikisho,itifaki,NA,sdf,1,2,NA,NA,NA,NA,NA,NA,NA,NA,NA,NA,NA,NA,NA,NA,NA,NA,NA,NA,NA
778d0,"""Falsch""-Screen",canvas.Screen,3_0_2_0_3_1_2,NA,NA,skipped,NA,334918,NA,NA,334908.88,334918,2023-08-11T12:11:00Z,334925.56,NULL,Vermutung,udhanifu,s,haramia,tikisho,itifaki,NA,sdf,NA,2,NA,NA,NA,NA,NA,NA,NA,NA,NA,NA,NA,NA,NA,NA,NA,NA,NA,NA,NA
778d0,shallow,flow.Sequence,3_0_2_0_3_1,NA,NA,completion,9082.06,325822,325810.16,325826.82,334908.88,334919,2023-08-11T12:11:00Z,334925.56,NULL,Vermutung,udhanifu,s,haramia,tikisho,itifaki,NA,sdf,NA,2,NA,NA,NA,NA,NA,NA,NA,NA,NA,NA,NA,NA,NA,NA,NA,NA,NA,NA,NA
778d0,task,flow.Sequence,3_0_2_0_3,NA,NA,completion,9082.06,325821,325810.16,325826.82,334908.88,334920,2023-08-11T12:11:00Z,334925.56,NULL,Vermutung,udhanifu,s,haramia,tikisho,itifaki,NA,sdf,NA,2,NA,NA,NA,NA,NA,NA,NA,NA,NA,NA,NA,NA,NA,NA,NA,NA,NA,NA,NA
778d0,Deep Question,html.Page,3_0_2_0_4_0_0,NA,NA,form submission,4449.44,334920,334908.88,334925.56,339375,339375,2023-08-11T12:11:04Z,339374.98,NULL,Schlange,foleni,d,NA,NA,NA,foleni,NA,NA,2,NA,NA,NA,NA,NA,NA,NA,NA,NA,NA,NA,NA,NA,NA,NA,NA,NA,NA,NA
778d0,"""Richtig""-Screen",canvas.Screen,3_0_2_0_4_0_1,NA,NA,timeout,4999.34,339378,339373.48,339374.98,344357.74,344360,2023-08-11T12:11:09Z,344374.32,NULL,Schlange,foleni,d,NA,NA,NA,NA,sdf,1,2,NA,NA,NA,NA,NA,NA,NA,NA,NA,NA,NA,NA,NA,NA,NA,NA,NA,NA,NA
778d0,"""Falsch""-Screen",canvas.Screen,3_0_2_0_4_0_2,NA,NA,skipped,NA,344366,NA,NA,344357.74,344366,2023-08-11T12:11:09Z,344374.32,NULL,Schlange,foleni,d,NA,NA,NA,NA,sdf,NA,2,NA,NA,NA,NA,NA,NA,NA,NA,NA,NA,NA,NA,NA,NA,NA,NA,NA,NA,NA
778d0,deep,flow.Sequence,3_0_2_0_4_0,NA,NA,completion,9432.18,334920,334908.88,334925.56,344357.74,344367,2023-08-11T12:11:09Z,344374.32,NULL,Schlange,foleni,d,NA,NA,NA,NA,sdf,NA,2,NA,NA,NA,NA,NA,NA,NA,NA,NA,NA,NA,NA,NA,NA,NA,NA,NA,NA,NA
778d0,shallow,flow.Sequence,3_0_2_0_4_1,NA,NA,skipped,NA,344367,NA,NA,344357.74,344367,2023-08-11T12:11:09Z,344374.32,NULL,Schlange,foleni,d,NA,NA,NA,NA,sdf,NA,2,NA,NA,NA,NA,NA,NA,NA,NA,NA,NA,NA,NA,NA,NA,NA,NA,NA,NA,NA
778d0,task,flow.Sequence,3_0_2_0_4,NA,NA,completion,9432.18,334920,334908.88,334925.56,344357.74,344367,2023-08-11T12:11:09Z,344374.32,NULL,Schlange,foleni,d,NA,NA,NA,NA,sdf,NA,2,NA,NA,NA,NA,NA,NA,NA,NA,NA,NA,NA,NA,NA,NA,NA,NA,NA,NA,NA
778d0,deep,flow.Sequence,3_0_2_0_5_0,NA,NA,skipped,NA,344368,NA,NA,344357.74,344368,2023-08-11T12:11:09Z,344374.32,NULL,Polizist,msongora,s,simanzi,mandhari,nidhamu,NA,sdf,NA,2,NA,NA,NA,NA,NA,NA,NA,NA,NA,NA,NA,NA,NA,NA,NA,NA,NA,NA,NA
778d0,Shallow Question,html.Page,3_0_2_0_5_1_0,NA,NA,form submission,5566.68,344368,344357.74,344374.32,349941,349941,2023-08-11T12:11:15Z,349940.24,NULL,Polizist,msongora,s,simanzi,mandhari,nidhamu,msongora,NA,NA,2,NA,NA,NA,NA,NA,NA,NA,NA,NA,NA,NA,NA,NA,NA,NA,NA,NA,NA,NA
778d0,"""Richtig""-Screen",canvas.Screen,3_0_2_0_5_1_1,NA,NA,timeout,4999.48,349943,349939.14,349940.24,354923.06,354924,2023-08-11T12:11:20Z,354939.72,NULL,Polizist,msongora,s,simanzi,mandhari,nidhamu,NA,sdf,1,2,NA,NA,NA,NA,NA,NA,NA,NA,NA,NA,NA,NA,NA,NA,NA,NA,NA,NA,NA
778d0,"""Falsch""-Screen",canvas.Screen,3_0_2_0_5_1_2,NA,NA,skipped,NA,354931,NA,NA,354923.06,354931,2023-08-11T12:11:20Z,354939.72,NULL,Polizist,msongora,s,simanzi,mandhari,nidhamu,NA,sdf,NA,2,NA,NA,NA,NA,NA,NA,NA,NA,NA,NA,NA,NA,NA,NA,NA,NA,NA,NA,NA
778d0,shallow,flow.Sequence,3_0_2_0_5_1,NA,NA,completion,10548.74,344368,344357.74,344374.32,354923.06,354932,2023-08-11T12:11:20Z,354939.72,NULL,Polizist,msongora,s,simanzi,mandhari,nidhamu,NA,sdf,NA,2,NA,NA,NA,NA,NA,NA,NA,NA,NA,NA,NA,NA,NA,NA,NA,NA,NA,NA,NA
778d0,task,flow.Sequence,3_0_2_0_5,NA,NA,completion,10548.74,344368,344357.74,344374.32,354923.06,354932,2023-08-11T12:11:20Z,354939.72,NULL,Polizist,msongora,s,simanzi,mandhari,nidhamu,NA,sdf,NA,2,NA,NA,NA,NA,NA,NA,NA,NA,NA,NA,NA,NA,NA,NA,NA,NA,NA,NA,NA
778d0,Deep Question,html.Page,3_0_2_0_6_0_0,NA,NA,form submission,5556.28,354933,354923.06,354939.72,360496,360496,2023-08-11T12:11:25Z,360495.36,NULL,Sympathie,mapendano,d,NA,NA,NA,mande,NA,NA,2,NA,NA,NA,NA,NA,NA,NA,NA,NA,NA,NA,NA,NA,NA,NA,NA,NA,NA,NA
778d0,"""Richtig""-Screen",canvas.Screen,3_0_2_0_6_0_1,NA,NA,skipped,NA,360499,NA,NA,360496,360500,2023-08-11T12:11:25Z,360495.36,NULL,Sympathie,mapendano,d,NA,NA,NA,NA,sdf,NA,2,NA,NA,NA,NA,NA,NA,NA,NA,NA,NA,NA,NA,NA,NA,NA,NA,NA,NA,NA
778d0,"""Falsch""-Screen",canvas.Screen,3_0_2_0_6_0_2,NA,NA,timeout,4992.92,360503,360495.06,360495.36,365471.68,365475,2023-08-11T12:11:30Z,365488.28,NULL,Sympathie,mapendano,d,NA,NA,NA,NA,sdf,0,2,NA,NA,NA,NA,NA,NA,NA,NA,NA,NA,NA,NA,NA,NA,NA,NA,NA,NA,NA
778d0,deep,flow.Sequence,3_0_2_0_6_0,NA,NA,completion,10531.96,354932,354923.06,354939.72,365471.68,365477,2023-08-11T12:11:30Z,365488.28,NULL,Sympathie,mapendano,d,NA,NA,NA,NA,sdf,NA,2,NA,NA,NA,NA,NA,NA,NA,NA,NA,NA,NA,NA,NA,NA,NA,NA,NA,NA,NA
778d0,shallow,flow.Sequence,3_0_2_0_6_1,NA,NA,skipped,NA,365478,NA,NA,365471.68,365478,2023-08-11T12:11:30Z,365488.28,NULL,Sympathie,mapendano,d,NA,NA,NA,NA,sdf,NA,2,NA,NA,NA,NA,NA,NA,NA,NA,NA,NA,NA,NA,NA,NA,NA,NA,NA,NA,NA
778d0,task,flow.Sequence,3_0_2_0_6,NA,NA,completion,10531.96,354932,354923.06,354939.72,365471.68,365479,2023-08-11T12:11:30Z,365488.28,NULL,Sympathie,mapendano,d,NA,NA,NA,NA,sdf,NA,2,NA,NA,NA,NA,NA,NA,NA,NA,NA,NA,NA,NA,NA,NA,NA,NA,NA,NA,NA
778d0,Deep Question,html.Page,3_0_2_0_7_0_0,NA,NA,form submission,6192.72,365480,365471.68,365488.28,371681,371682,2023-08-11T12:11:37Z,371687.52,NULL,Toleranz,kuvumiliana,d,NA,NA,NA,mapendano,NA,NA,2,NA,NA,NA,NA,NA,NA,NA,NA,NA,NA,NA,NA,NA,NA,NA,NA,NA,NA,NA
778d0,"""Richtig""-Screen",canvas.Screen,3_0_2_0_7_0_1,NA,NA,skipped,NA,371689,NA,NA,371681,371689,2023-08-11T12:11:37Z,371687.52,NULL,Toleranz,kuvumiliana,d,NA,NA,NA,NA,sdf,NA,2,NA,NA,NA,NA,NA,NA,NA,NA,NA,NA,NA,NA,NA,NA,NA,NA,NA,NA,NA
778d0,"""Falsch""-Screen",canvas.Screen,3_0_2_0_7_0_2,NA,NA,timeout,4999.36,371692,371679.76,371687.52,376670.22,376672,2023-08-11T12:11:42Z,376686.88,NULL,Toleranz,kuvumiliana,d,NA,NA,NA,NA,sdf,0,2,NA,NA,NA,NA,NA,NA,NA,NA,NA,NA,NA,NA,NA,NA,NA,NA,NA,NA,NA
778d0,deep,flow.Sequence,3_0_2_0_7_0,NA,NA,completion,11181.94,365480,365471.68,365488.28,376670.22,376672,2023-08-11T12:11:42Z,376686.88,NULL,Toleranz,kuvumiliana,d,NA,NA,NA,NA,sdf,NA,2,NA,NA,NA,NA,NA,NA,NA,NA,NA,NA,NA,NA,NA,NA,NA,NA,NA,NA,NA
778d0,shallow,flow.Sequence,3_0_2_0_7_1,NA,NA,skipped,NA,376673,NA,NA,376670.22,376673,2023-08-11T12:11:42Z,376686.88,NULL,Toleranz,kuvumiliana,d,NA,NA,NA,NA,sdf,NA,2,NA,NA,NA,NA,NA,NA,NA,NA,NA,NA,NA,NA,NA,NA,NA,NA,NA,NA,NA
778d0,task,flow.Sequence,3_0_2_0_7,NA,NA,completion,11181.94,365480,365471.68,365488.28,376670.22,376673,2023-08-11T12:11:42Z,376686.88,NULL,Toleranz,kuvumiliana,d,NA,NA,NA,NA,sdf,NA,2,NA,NA,NA,NA,NA,NA,NA,NA,NA,NA,NA,NA,NA,NA,NA,NA,NA,NA,NA
778d0,block,flow.Loop,3_0_2_0,NA,NA,completion,79676.76,296994,296993.24,296993.46,376670.22,376673,2023-08-11T12:11:42Z,376686.88,NULL,NA,NA,NA,NA,NA,NA,NA,sdf,NA,2,NA,NA,NA,NA,NA,NA,NA,NA,NA,NA,NA,NA,NA,NA,NA,NA,NA,NA,NA
778d0,weiter,canvas.Screen,3_0_2_1,sdf,keypress(Space),response,906.12,376674,376670.22,376686.88,377593,377609,2023-08-11T12:11:42Z,378413.36,NULL,NA,NA,NA,NA,NA,NA,NA,sdf,NA,2,NA,NA,NA,NA,NA,NA,NA,NA,NA,NA,NA,NA,NA,NA,NA,NA,NA,NA,NA
778d0,check continue,flow.Sequence,3_0_2,NA,NA,completion,80599.54,296993,296993.24,296993.46,377593,377610,2023-08-11T12:11:42Z,378413.36,NULL,NA,NA,NA,NA,NA,NA,NA,sdf,NA,2,NA,NA,NA,NA,NA,NA,NA,NA,NA,NA,NA,NA,NA,NA,NA,NA,NA,NA,NA
778d0,check continue,flow.Sequence,3_0_3,NA,NA,skipped,NA,377673,NA,NA,377593,377673,2023-08-11T12:11:43Z,378413.36,NULL,NA,NA,NA,NA,NA,NA,NA,qt,NA,3,NA,NA,NA,NA,NA,NA,NA,NA,NA,NA,NA,NA,NA,NA,NA,NA,NA,NA,NA
778d0,check continue,flow.Sequence,3_0_4,NA,NA,skipped,NA,377707,NA,NA,377593,377707,2023-08-11T12:11:43Z,378413.36,NULL,NA,NA,NA,NA,NA,NA,NA,sd,NA,4,NA,NA,NA,NA,NA,NA,NA,NA,NA,NA,NA,NA,NA,NA,NA,NA,NA,NA,NA
778d0,check continue,flow.Sequence,3_0_5,NA,NA,skipped,NA,377747,NA,NA,377593,377747,2023-08-11T12:11:43Z,378413.36,NULL,NA,NA,NA,NA,NA,NA,NA,sdf,NA,5,NA,NA,NA,NA,NA,NA,NA,NA,NA,NA,NA,NA,NA,NA,NA,NA,NA,NA,NA
778d0,check continue,flow.Sequence,3_0_6,NA,NA,skipped,NA,377777,NA,NA,377593,377777,2023-08-11T12:11:43Z,378413.36,NULL,NA,NA,NA,NA,NA,NA,NA,dfs,NA,6,NA,NA,NA,NA,NA,NA,NA,NA,NA,NA,NA,NA,NA,NA,NA,NA,NA,NA,NA
778d0,check continue,flow.Sequence,3_0_7,NA,NA,skipped,NA,377806,NA,NA,377593,377806,2023-08-11T12:11:43Z,378413.36,NULL,NA,NA,NA,NA,NA,NA,NA,df,NA,7,NA,NA,NA,NA,NA,NA,NA,NA,NA,NA,NA,NA,NA,NA,NA,NA,NA,NA,NA
778d0,check continue,flow.Sequence,3_0_8,NA,NA,skipped,NA,377834,NA,NA,377593,377835,2023-08-11T12:11:43Z,378413.36,NULL,NA,NA,NA,NA,NA,NA,NA,dfs,NA,8,NA,NA,NA,NA,NA,NA,NA,NA,NA,NA,NA,NA,NA,NA,NA,NA,NA,NA,NA
778d0,check continue,flow.Sequence,3_0_9,NA,NA,skipped,NA,377862,NA,NA,377593,377862,2023-08-11T12:11:43Z,378413.36,NULL,NA,NA,NA,NA,NA,NA,NA,dsf,NA,9,NA,NA,NA,NA,NA,NA,NA,NA,NA,NA,NA,NA,NA,NA,NA,NA,NA,NA,NA
778d0,check continue,flow.Sequence,3_0_10,NA,NA,skipped,NA,377891,NA,NA,377593,377891,2023-08-11T12:11:43Z,378413.36,NULL,NA,NA,NA,NA,NA,NA,NA,df,NA,10,NA,NA,NA,NA,NA,NA,NA,NA,NA,NA,NA,NA,NA,NA,NA,NA,NA,NA,NA
778d0,check continue,flow.Sequence,3_0_11,NA,NA,skipped,NA,377923,NA,NA,377593,377923,2023-08-11T12:11:43Z,378413.36,NULL,NA,NA,NA,NA,NA,NA,NA,dfs,NA,11,NA,NA,NA,NA,NA,NA,NA,NA,NA,NA,NA,NA,NA,NA,NA,NA,NA,NA,NA
778d0,check continue,flow.Sequence,3_0_12,NA,NA,skipped,NA,377950,NA,NA,377593,377950,2023-08-11T12:11:43Z,378413.36,NULL,NA,NA,NA,NA,NA,NA,NA,dsf,NA,12,NA,NA,NA,NA,NA,NA,NA,NA,NA,NA,NA,NA,NA,NA,NA,NA,NA,NA,NA
778d0,check continue,flow.Sequence,3_0_13,NA,NA,skipped,NA,377980,NA,NA,377593,377980,2023-08-11T12:11:43Z,378413.36,NULL,NA,NA,NA,NA,NA,NA,NA,dsf,NA,13,NA,NA,NA,NA,NA,NA,NA,NA,NA,NA,NA,NA,NA,NA,NA,NA,NA,NA,NA
778d0,check continue,flow.Sequence,3_0_14,NA,NA,skipped,NA,378008,NA,NA,377593,378008,2023-08-11T12:11:43Z,378413.36,NULL,NA,NA,NA,NA,NA,NA,NA,NA,NA,14,NA,NA,NA,NA,NA,NA,NA,NA,NA,NA,NA,NA,NA,NA,NA,NA,NA,NA,NA
778d0,check continue,flow.Sequence,3_0_15,NA,NA,skipped,NA,378034,NA,NA,377593,378034,2023-08-11T12:11:43Z,378413.36,NULL,NA,NA,NA,NA,NA,NA,NA,NA,NA,15,NA,NA,NA,NA,NA,NA,NA,NA,NA,NA,NA,NA,NA,NA,NA,NA,NA,NA,NA
778d0,check continue,flow.Sequence,3_0_16,NA,NA,skipped,NA,378064,NA,NA,377593,378064,2023-08-11T12:11:43Z,378413.36,NULL,NA,NA,NA,NA,NA,NA,NA,NA,NA,16,NA,NA,NA,NA,NA,NA,NA,NA,NA,NA,NA,NA,NA,NA,NA,NA,NA,NA,NA
778d0,check continue,flow.Sequence,3_0_17,NA,NA,skipped,NA,378090,NA,NA,377593,378090,2023-08-11T12:11:43Z,378413.36,NULL,NA,NA,NA,NA,NA,NA,NA,NA,NA,17,NA,NA,NA,NA,NA,NA,NA,NA,NA,NA,NA,NA,NA,NA,NA,NA,NA,NA,NA
778d0,check continue,flow.Sequence,3_0_18,NA,NA,skipped,NA,378120,NA,NA,377593,378121,2023-08-11T12:11:43Z,378413.36,NULL,NA,NA,NA,NA,NA,NA,NA,NA,NA,18,NA,NA,NA,NA,NA,NA,NA,NA,NA,NA,NA,NA,NA,NA,NA,NA,NA,NA,NA
778d0,check continue,flow.Sequence,3_0_19,NA,NA,skipped,NA,378147,NA,NA,377593,378147,2023-08-11T12:11:43Z,378413.36,NULL,NA,NA,NA,NA,NA,NA,NA,NA,NA,19,NA,NA,NA,NA,NA,NA,NA,NA,NA,NA,NA,NA,NA,NA,NA,NA,NA,NA,NA
778d0,check continue,flow.Sequence,3_0_20,NA,NA,skipped,NA,378173,NA,NA,377593,378173,2023-08-11T12:11:43Z,378413.36,NULL,NA,NA,NA,NA,NA,NA,NA,NA,NA,20,NA,NA,NA,NA,NA,NA,NA,NA,NA,NA,NA,NA,NA,NA,NA,NA,NA,NA,NA
778d0,check continue,flow.Sequence,3_0_21,NA,NA,skipped,NA,378200,NA,NA,377593,378201,2023-08-11T12:11:43Z,378413.36,NULL,NA,NA,NA,NA,NA,NA,NA,NA,NA,21,NA,NA,NA,NA,NA,NA,NA,NA,NA,NA,NA,NA,NA,NA,NA,NA,NA,NA,NA
778d0,check continue,flow.Sequence,3_0_22,NA,NA,skipped,NA,378226,NA,NA,377593,378226,2023-08-11T12:11:43Z,378413.36,NULL,NA,NA,NA,NA,NA,NA,NA,NA,NA,22,NA,NA,NA,NA,NA,NA,NA,NA,NA,NA,NA,NA,NA,NA,NA,NA,NA,NA,NA
778d0,check continue,flow.Sequence,3_0_23,NA,NA,skipped,NA,378257,NA,NA,377593,378257,2023-08-11T12:11:43Z,378413.36,NULL,NA,NA,NA,NA,NA,NA,NA,NA,NA,23,NA,NA,NA,NA,NA,NA,NA,NA,NA,NA,NA,NA,NA,NA,NA,NA,NA,NA,NA
778d0,check continue,flow.Sequence,3_0_24,NA,NA,skipped,NA,378282,NA,NA,377593,378282,2023-08-11T12:11:43Z,378413.36,NULL,NA,NA,NA,NA,NA,NA,NA,NA,NA,24,NA,NA,NA,NA,NA,NA,NA,NA,NA,NA,NA,NA,NA,NA,NA,NA,NA,NA,NA
778d0,check continue,flow.Sequence,3_0_25,NA,NA,skipped,NA,378307,NA,NA,377593,378307,2023-08-11T12:11:43Z,378413.36,NULL,NA,NA,NA,NA,NA,NA,NA,NA,NA,25,NA,NA,NA,NA,NA,NA,NA,NA,NA,NA,NA,NA,NA,NA,NA,NA,NA,NA,NA
778d0,check continue,flow.Sequence,3_0_26,NA,NA,skipped,NA,378334,NA,NA,377593,378335,2023-08-11T12:11:43Z,378413.36,NULL,NA,NA,NA,NA,NA,NA,NA,NA,NA,26,NA,NA,NA,NA,NA,NA,NA,NA,NA,NA,NA,NA,NA,NA,NA,NA,NA,NA,NA
778d0,check continue,flow.Sequence,3_0_27,NA,NA,skipped,NA,378358,NA,NA,377593,378358,2023-08-11T12:11:43Z,378413.36,NULL,NA,NA,NA,NA,NA,NA,NA,NA,NA,27,NA,NA,NA,NA,NA,NA,NA,NA,NA,NA,NA,NA,NA,NA,NA,NA,NA,NA,NA
778d0,check continue,flow.Sequence,3_0_28,NA,NA,skipped,NA,378386,NA,NA,377593,378386,2023-08-11T12:11:43Z,378413.36,NULL,NA,NA,NA,NA,NA,NA,NA,NA,NA,28,NA,NA,NA,NA,NA,NA,NA,NA,NA,NA,NA,NA,NA,NA,NA,NA,NA,NA,NA
778d0,check continue,flow.Sequence,3_0_29,NA,NA,skipped,NA,378413,NA,NA,377593,378413,2023-08-11T12:11:43Z,378413.36,NULL,NA,NA,NA,NA,NA,NA,NA,NA,NA,29,NA,NA,NA,NA,NA,NA,NA,NA,NA,NA,NA,NA,NA,NA,NA,NA,NA,NA,NA
778d0,until continue,flow.Loop,3_0,NA,NA,completion,244755.88,132802,132836.8,132837.12,377593,378413,2023-08-11T12:11:43Z,378413.36,NULL,NA,NA,NA,NA,NA,NA,NA,NA,NA,NA,NA,NA,NA,NA,NA,NA,NA,NA,NA,NA,NA,NA,NA,NA,NA,NA,NA,NA,NA
778d0,block 1,flow.Sequence,3,NA,NA,completion,244755.88,132801,132836.8,132837.12,377593,378413,2023-08-11T12:11:43Z,378413.36,NULL,NA,NA,NA,NA,NA,NA,NA,NA,NA,NA,NA,NA,NA,NA,NA,NA,NA,NA,NA,NA,NA,NA,NA,NA,NA,NA,NA,NA,NA
778d0,1.Part Over,canvas.Screen,4,NA,keypress(Space),response,3773.64,378414,378413.1,378413.36,382187,382192,2023-08-11T12:11:47Z,382269.46,NULL,NA,NA,NA,NA,NA,NA,NA,NA,NA,NA,NA,NA,NA,NA,NA,NA,NA,NA,NA,NA,NA,NA,NA,NA,NA,NA,NA,NA,NA
778d0,deep,flow.Sequence,5_0_0_0_0_0,NA,NA,skipped,NA,382265,NA,NA,382187,382265,2023-08-11T12:11:47Z,382269.46,NULL,Hoffnung,matarajio,s,kutaalamika,uratibu,mvumbuzi,NA,sdf,NA,0,NA,NA,NA,NA,NA,NA,NA,NA,NA,NA,NA,NA,NA,NA,NA,NA,NA,NA,NA
778d0,Shallow Question,html.Page,5_0_0_0_0_1_0,NA,NA,form submission,10316.54,382265,382265.5,382269.46,392586,392587,2023-08-11T12:11:57Z,392584.7,NULL,Hoffnung,matarajio,s,kutaalamika,uratibu,mvumbuzi,kutaalamika,NA,NA,0,NA,NA,NA,NA,NA,NA,NA,NA,NA,NA,NA,NA,NA,NA,NA,NA,NA,NA,NA
778d0,"""Richtig""-Screen",canvas.Screen,5_0_0_0_0_1_1,NA,NA,skipped,NA,392592,NA,NA,392586,392593,2023-08-11T12:11:57Z,392584.7,NULL,Hoffnung,matarajio,s,kutaalamika,uratibu,mvumbuzi,NA,sdf,NA,0,NA,NA,NA,NA,NA,NA,NA,NA,NA,NA,NA,NA,NA,NA,NA,NA,NA,NA,NA
778d0,"""Falsch""-Screen",canvas.Screen,5_0_0_0_0_1_2,NA,NA,timeout,4999.52,392597,392579.28,392584.7,397567.56,397568,2023-08-11T12:12:02Z,397584.22,NULL,Hoffnung,matarajio,s,kutaalamika,uratibu,mvumbuzi,NA,sdf,0,0,NA,NA,NA,NA,NA,NA,NA,NA,NA,NA,NA,NA,NA,NA,NA,NA,NA,NA,NA
778d0,shallow,flow.Sequence,5_0_0_0_0_1,NA,NA,completion,15298.1,382265,382265.5,382269.46,397567.56,397569,2023-08-11T12:12:02Z,397584.22,NULL,Hoffnung,matarajio,s,kutaalamika,uratibu,mvumbuzi,NA,sdf,NA,0,NA,NA,NA,NA,NA,NA,NA,NA,NA,NA,NA,NA,NA,NA,NA,NA,NA,NA,NA
778d0,task,flow.Sequence,5_0_0_0_0,NA,NA,completion,15298.1,382265,382265.5,382269.46,397567.56,397570,2023-08-11T12:12:02Z,397584.22,NULL,Hoffnung,matarajio,s,kutaalamika,uratibu,mvumbuzi,NA,sdf,NA,0,NA,NA,NA,NA,NA,NA,NA,NA,NA,NA,NA,NA,NA,NA,NA,NA,NA,NA,NA
778d0,deep,flow.Sequence,5_0_0_0_1_0,NA,NA,skipped,NA,397570,NA,NA,397567.56,397570,2023-08-11T12:12:02Z,397584.22,NULL,Auftrag,uagizaji,s,ghanima,kuzingatia,msukani,NA,sdf,NA,0,NA,NA,NA,NA,NA,NA,NA,NA,NA,NA,NA,NA,NA,NA,NA,NA,NA,NA,NA
778d0,Shallow Question,html.Page,5_0_0_0_1_1_0,NA,NA,form submission,4344.78,397571,397567.56,397584.22,401929,401930,2023-08-11T12:12:07Z,401933.52,NULL,Auftrag,uagizaji,s,ghanima,kuzingatia,msukani,msukani,NA,NA,0,NA,NA,NA,NA,NA,NA,NA,NA,NA,NA,NA,NA,NA,NA,NA,NA,NA,NA,NA
778d0,"""Richtig""-Screen",canvas.Screen,5_0_0_0_1_1_1,NA,NA,skipped,NA,401932,NA,NA,401929,401932,2023-08-11T12:12:07Z,401933.52,NULL,Auftrag,uagizaji,s,ghanima,kuzingatia,msukani,NA,sdf,NA,0,NA,NA,NA,NA,NA,NA,NA,NA,NA,NA,NA,NA,NA,NA,NA,NA,NA,NA,NA
778d0,"""Falsch""-Screen",canvas.Screen,5_0_0_0_1_1_2,NA,NA,timeout,4999.36,401935,401926.32,401933.52,406916.32,406918,2023-08-11T12:12:12Z,406932.88,NULL,Auftrag,uagizaji,s,ghanima,kuzingatia,msukani,NA,sdf,0,0,NA,NA,NA,NA,NA,NA,NA,NA,NA,NA,NA,NA,NA,NA,NA,NA,NA,NA,NA
778d0,shallow,flow.Sequence,5_0_0_0_1_1,NA,NA,completion,9332.1,397571,397567.56,397584.22,406916.32,406918,2023-08-11T12:12:12Z,406932.88,NULL,Auftrag,uagizaji,s,ghanima,kuzingatia,msukani,NA,sdf,NA,0,NA,NA,NA,NA,NA,NA,NA,NA,NA,NA,NA,NA,NA,NA,NA,NA,NA,NA,NA
778d0,task,flow.Sequence,5_0_0_0_1,NA,NA,completion,9332.1,397570,397567.56,397584.22,406916.32,406918,2023-08-11T12:12:12Z,406932.88,NULL,Auftrag,uagizaji,s,ghanima,kuzingatia,msukani,NA,sdf,NA,0,NA,NA,NA,NA,NA,NA,NA,NA,NA,NA,NA,NA,NA,NA,NA,NA,NA,NA,NA
778d0,Deep Question,html.Page,5_0_0_0_2_0_0,NA,NA,form submission,4978.12,406919,406916.32,406932.88,411911,411912,2023-08-11T12:12:17Z,411915.64,NULL,Schönheit,kirembo,d,NA,NA,NA,d,NA,NA,0,NA,NA,NA,NA,NA,NA,NA,NA,NA,NA,NA,NA,NA,NA,NA,NA,NA,NA,NA
778d0,"""Richtig""-Screen",canvas.Screen,5_0_0_0_2_0_1,NA,NA,skipped,NA,411914,NA,NA,411911,411914,2023-08-11T12:12:17Z,411915.64,NULL,Schönheit,kirembo,d,NA,NA,NA,NA,sdf,NA,0,NA,NA,NA,NA,NA,NA,NA,NA,NA,NA,NA,NA,NA,NA,NA,NA,NA,NA,NA
778d0,"""Falsch""-Screen",canvas.Screen,5_0_0_0_2_0_2,NA,NA,timeout,4999.4,411917,411910.72,411915.64,416898.36,416900,2023-08-11T12:12:22Z,416915.04,NULL,Schönheit,kirembo,d,NA,NA,NA,NA,sdf,0,0,NA,NA,NA,NA,NA,NA,NA,NA,NA,NA,NA,NA,NA,NA,NA,NA,NA,NA,NA
778d0,deep,flow.Sequence,5_0_0_0_2_0,NA,NA,completion,9965.48,406919,406916.32,406932.88,416898.36,416901,2023-08-11T12:12:22Z,416915.04,NULL,Schönheit,kirembo,d,NA,NA,NA,NA,sdf,NA,0,NA,NA,NA,NA,NA,NA,NA,NA,NA,NA,NA,NA,NA,NA,NA,NA,NA,NA,NA
778d0,shallow,flow.Sequence,5_0_0_0_2_1,NA,NA,skipped,NA,416901,NA,NA,416898.36,416901,2023-08-11T12:12:22Z,416915.04,NULL,Schönheit,kirembo,d,NA,NA,NA,NA,sdf,NA,0,NA,NA,NA,NA,NA,NA,NA,NA,NA,NA,NA,NA,NA,NA,NA,NA,NA,NA,NA
778d0,task,flow.Sequence,5_0_0_0_2,NA,NA,completion,9965.48,406919,406916.32,406932.88,416898.36,416902,2023-08-11T12:12:22Z,416915.04,NULL,Schönheit,kirembo,d,NA,NA,NA,NA,sdf,NA,0,NA,NA,NA,NA,NA,NA,NA,NA,NA,NA,NA,NA,NA,NA,NA,NA,NA,NA,NA
778d0,Deep Question,html.Page,5_0_0_0_3_0_0,NA,NA,form submission,3388.96,416902,416898.36,416915.04,420304,420305,2023-08-11T12:12:25Z,420303.36,NULL,Zufall,kikuti,d,NA,NA,NA,kirembo,NA,NA,0,NA,NA,NA,NA,NA,NA,NA,NA,NA,NA,NA,NA,NA,NA,NA,NA,NA,NA,NA
778d0,"""Richtig""-Screen",canvas.Screen,5_0_0_0_3_0_1,NA,NA,skipped,NA,420306,NA,NA,420304,420306,2023-08-11T12:12:25Z,420303.36,NULL,Zufall,kikuti,d,NA,NA,NA,NA,sdf,NA,0,NA,NA,NA,NA,NA,NA,NA,NA,NA,NA,NA,NA,NA,NA,NA,NA,NA,NA,NA
778d0,"""Falsch""-Screen",canvas.Screen,5_0_0_0_3_0_2,NA,NA,timeout,4993.86,420308,420303.24,420303.36,425280.7,425284,2023-08-11T12:12:30Z,425297.22,NULL,Zufall,kikuti,d,NA,NA,NA,NA,sdf,0,0,NA,NA,NA,NA,NA,NA,NA,NA,NA,NA,NA,NA,NA,NA,NA,NA,NA,NA,NA
778d0,deep,flow.Sequence,5_0_0_0_3_0,NA,NA,completion,8365.66,416902,416898.36,416915.04,425280.7,425286,2023-08-11T12:12:30Z,425297.22,NULL,Zufall,kikuti,d,NA,NA,NA,NA,sdf,NA,0,NA,NA,NA,NA,NA,NA,NA,NA,NA,NA,NA,NA,NA,NA,NA,NA,NA,NA,NA
778d0,shallow,flow.Sequence,5_0_0_0_3_1,NA,NA,skipped,NA,425286,NA,NA,425280.7,425287,2023-08-11T12:12:30Z,425297.22,NULL,Zufall,kikuti,d,NA,NA,NA,NA,sdf,NA,0,NA,NA,NA,NA,NA,NA,NA,NA,NA,NA,NA,NA,NA,NA,NA,NA,NA,NA,NA
778d0,task,flow.Sequence,5_0_0_0_3,NA,NA,completion,8365.66,416902,416898.36,416915.04,425280.7,425288,2023-08-11T12:12:30Z,425297.22,NULL,Zufall,kikuti,d,NA,NA,NA,NA,sdf,NA,0,NA,NA,NA,NA,NA,NA,NA,NA,NA,NA,NA,NA,NA,NA,NA,NA,NA,NA,NA
778d0,Deep Question,html.Page,5_0_0_0_4_0_0,NA,NA,form submission,10462.78,425290,425280.7,425297.22,435760,435760,2023-08-11T12:12:41Z,435762.56,NULL,Theorie,nadharia,d,NA,NA,NA,kikuti kirempo,NA,NA,0,NA,NA,NA,NA,NA,NA,NA,NA,NA,NA,NA,NA,NA,NA,NA,NA,NA,NA,NA
778d0,"""Richtig""-Screen",canvas.Screen,5_0_0_0_4_0_1,NA,NA,skipped,NA,435767,NA,NA,435760,435768,2023-08-11T12:12:41Z,435762.56,NULL,Theorie,nadharia,d,NA,NA,NA,NA,sdf,NA,0,NA,NA,NA,NA,NA,NA,NA,NA,NA,NA,NA,NA,NA,NA,NA,NA,NA,NA,NA
778d0,"""Falsch""-Screen",canvas.Screen,5_0_0_0_4_0_2,NA,NA,timeout,4999.4,435771,435758.64,435762.56,440745.3,440747,2023-08-11T12:12:46Z,440761.96,NULL,Theorie,nadharia,d,NA,NA,NA,NA,sdf,0,0,NA,NA,NA,NA,NA,NA,NA,NA,NA,NA,NA,NA,NA,NA,NA,NA,NA,NA,NA
778d0,deep,flow.Sequence,5_0_0_0_4_0,NA,NA,completion,15448.08,425290,425280.7,425297.22,440745.3,440748,2023-08-11T12:12:46Z,440761.96,NULL,Theorie,nadharia,d,NA,NA,NA,NA,sdf,NA,0,NA,NA,NA,NA,NA,NA,NA,NA,NA,NA,NA,NA,NA,NA,NA,NA,NA,NA,NA
778d0,shallow,flow.Sequence,5_0_0_0_4_1,NA,NA,skipped,NA,440748,NA,NA,440745.3,440749,2023-08-11T12:12:46Z,440761.96,NULL,Theorie,nadharia,d,NA,NA,NA,NA,sdf,NA,0,NA,NA,NA,NA,NA,NA,NA,NA,NA,NA,NA,NA,NA,NA,NA,NA,NA,NA,NA
778d0,task,flow.Sequence,5_0_0_0_4,NA,NA,completion,15448.08,425290,425280.7,425297.22,440745.3,440750,2023-08-11T12:12:46Z,440761.96,NULL,Theorie,nadharia,d,NA,NA,NA,NA,sdf,NA,0,NA,NA,NA,NA,NA,NA,NA,NA,NA,NA,NA,NA,NA,NA,NA,NA,NA,NA,NA
778d0,deep,flow.Sequence,5_0_0_0_5_0,NA,NA,skipped,NA,440751,NA,NA,440745.3,440751,2023-08-11T12:12:46Z,440761.96,NULL,Wettbewerb,ushindani,s,mapendezi,kichocheo,ubaguzi,NA,sdf,NA,0,NA,NA,NA,NA,NA,NA,NA,NA,NA,NA,NA,NA,NA,NA,NA,NA,NA,NA,NA
778d0,Shallow Question,html.Page,5_0_0_0_5_1_0,NA,NA,form submission,4852.04,440752,440745.3,440761.96,445614,445615,2023-08-11T12:12:50Z,445611.24,NULL,Wettbewerb,ushindani,s,mapendezi,kichocheo,ubaguzi,mapendezi,NA,NA,0,NA,NA,NA,NA,NA,NA,NA,NA,NA,NA,NA,NA,NA,NA,NA,NA,NA,NA,NA
778d0,"""Richtig""-Screen",canvas.Screen,5_0_0_0_5_1_1,NA,NA,skipped,NA,445617,NA,NA,445614,445618,2023-08-11T12:12:50Z,445611.24,NULL,Wettbewerb,ushindani,s,mapendezi,kichocheo,ubaguzi,NA,sdf,NA,0,NA,NA,NA,NA,NA,NA,NA,NA,NA,NA,NA,NA,NA,NA,NA,NA,NA,NA,NA
778d0,"""Falsch""-Screen",canvas.Screen,5_0_0_0_5_1_2,NA,NA,timeout,4999.4,445621,445611.08,445611.24,450594.04,450595,2023-08-11T12:12:55Z,450610.64,NULL,Wettbewerb,ushindani,s,mapendezi,kichocheo,ubaguzi,NA,sdf,0,0,NA,NA,NA,NA,NA,NA,NA,NA,NA,NA,NA,NA,NA,NA,NA,NA,NA,NA,NA
778d0,shallow,flow.Sequence,5_0_0_0_5_1,NA,NA,completion,9832.08,440752,440745.3,440761.96,450594.04,450596,2023-08-11T12:12:55Z,450610.64,NULL,Wettbewerb,ushindani,s,mapendezi,kichocheo,ubaguzi,NA,sdf,NA,0,NA,NA,NA,NA,NA,NA,NA,NA,NA,NA,NA,NA,NA,NA,NA,NA,NA,NA,NA
778d0,task,flow.Sequence,5_0_0_0_5,NA,NA,completion,9832.08,440751,440745.3,440761.96,450594.04,450597,2023-08-11T12:12:55Z,450610.64,NULL,Wettbewerb,ushindani,s,mapendezi,kichocheo,ubaguzi,NA,sdf,NA,0,NA,NA,NA,NA,NA,NA,NA,NA,NA,NA,NA,NA,NA,NA,NA,NA,NA,NA,NA
778d0,Deep Question,html.Page,5_0_0_0_6_0_0,NA,NA,form submission,2044.36,450597,450594.04,450610.64,452655,452656,2023-08-11T12:12:58Z,452660.38,NULL,Schock,mshtuko,d,NA,NA,NA,d,NA,NA,0,NA,NA,NA,NA,NA,NA,NA,NA,NA,NA,NA,NA,NA,NA,NA,NA,NA,NA,NA
778d0,"""Richtig""-Screen",canvas.Screen,5_0_0_0_6_0_1,NA,NA,skipped,NA,452659,NA,NA,452655,452659,2023-08-11T12:12:58Z,452660.38,NULL,Schock,mshtuko,d,NA,NA,NA,NA,sdf,NA,0,NA,NA,NA,NA,NA,NA,NA,NA,NA,NA,NA,NA,NA,NA,NA,NA,NA,NA,NA
778d0,"""Falsch""-Screen",canvas.Screen,5_0_0_0_6_0_2,NA,NA,timeout,4999.32,452663,452654.58,452660.38,457643.18,457645,2023-08-11T12:13:02Z,457659.7,NULL,Schock,mshtuko,d,NA,NA,NA,NA,sdf,0,0,NA,NA,NA,NA,NA,NA,NA,NA,NA,NA,NA,NA,NA,NA,NA,NA,NA,NA,NA
778d0,deep,flow.Sequence,5_0_0_0_6_0,NA,NA,completion,7032.54,450597,450594.04,450610.64,457643.18,457646,2023-08-11T12:13:02Z,457659.7,NULL,Schock,mshtuko,d,NA,NA,NA,NA,sdf,NA,0,NA,NA,NA,NA,NA,NA,NA,NA,NA,NA,NA,NA,NA,NA,NA,NA,NA,NA,NA
778d0,shallow,flow.Sequence,5_0_0_0_6_1,NA,NA,skipped,NA,457646,NA,NA,457643.18,457646,2023-08-11T12:13:02Z,457659.7,NULL,Schock,mshtuko,d,NA,NA,NA,NA,sdf,NA,0,NA,NA,NA,NA,NA,NA,NA,NA,NA,NA,NA,NA,NA,NA,NA,NA,NA,NA,NA
778d0,task,flow.Sequence,5_0_0_0_6,NA,NA,completion,7032.54,450597,450594.04,450610.64,457643.18,457646,2023-08-11T12:13:02Z,457659.7,NULL,Schock,mshtuko,d,NA,NA,NA,NA,sdf,NA,0,NA,NA,NA,NA,NA,NA,NA,NA,NA,NA,NA,NA,NA,NA,NA,NA,NA,NA,NA
778d0,deep,flow.Sequence,5_0_0_0_7_0,NA,NA,skipped,NA,457647,NA,NA,457643.18,457648,2023-08-11T12:13:02Z,457659.7,NULL,Verpackung,ufungaji,s,uhusiano,upimaji,uchunguzi,NA,sdf,NA,0,NA,NA,NA,NA,NA,NA,NA,NA,NA,NA,NA,NA,NA,NA,NA,NA,NA,NA,NA
778d0,Shallow Question,html.Page,5_0_0_0_7_1_0,NA,NA,form submission,3960.3,457648,457643.18,457659.7,461620,461621,2023-08-11T12:13:06Z,461625.94,NULL,Verpackung,ufungaji,s,uhusiano,upimaji,uchunguzi,uchunguzi,NA,NA,0,NA,NA,NA,NA,NA,NA,NA,NA,NA,NA,NA,NA,NA,NA,NA,NA,NA,NA,NA
778d0,"""Richtig""-Screen",canvas.Screen,5_0_0_0_7_1_1,NA,NA,skipped,NA,461627,NA,NA,461620,461628,2023-08-11T12:13:06Z,461625.94,NULL,Verpackung,ufungaji,s,uhusiano,upimaji,uchunguzi,NA,sdf,NA,0,NA,NA,NA,NA,NA,NA,NA,NA,NA,NA,NA,NA,NA,NA,NA,NA,NA,NA,NA
778d0,"""Falsch""-Screen",canvas.Screen,5_0_0_0_7_1_2,NA,NA,timeout,4999.14,461633,461616.1,461625.94,466608.6,466610,2023-08-11T12:13:11Z,466625.08,NULL,Verpackung,ufungaji,s,uhusiano,upimaji,uchunguzi,NA,sdf,0,0,NA,NA,NA,NA,NA,NA,NA,NA,NA,NA,NA,NA,NA,NA,NA,NA,NA,NA,NA
778d0,shallow,flow.Sequence,5_0_0_0_7_1,NA,NA,completion,8948.9,457648,457643.18,457659.7,466608.6,466611,2023-08-11T12:13:11Z,466625.08,NULL,Verpackung,ufungaji,s,uhusiano,upimaji,uchunguzi,NA,sdf,NA,0,NA,NA,NA,NA,NA,NA,NA,NA,NA,NA,NA,NA,NA,NA,NA,NA,NA,NA,NA
778d0,task,flow.Sequence,5_0_0_0_7,NA,NA,completion,8948.9,457647,457643.18,457659.7,466608.6,466612,2023-08-11T12:13:11Z,466625.08,NULL,Verpackung,ufungaji,s,uhusiano,upimaji,uchunguzi,NA,sdf,NA,0,NA,NA,NA,NA,NA,NA,NA,NA,NA,NA,NA,NA,NA,NA,NA,NA,NA,NA,NA
778d0,block,flow.Loop,5_0_0_0,NA,NA,completion,84339.14,382265,382265.5,382269.46,466608.6,466613,2023-08-11T12:13:11Z,466625.08,NULL,NA,NA,NA,NA,NA,NA,NA,sdf,NA,0,NA,NA,NA,NA,NA,NA,NA,NA,NA,NA,NA,NA,NA,NA,NA,NA,NA,NA,NA
778d0,weiter,canvas.Screen,5_0_0_1,sdf,keypress(Space),response,951.91999999998,466614,466608.6,466625.08,467577,467586,2023-08-11T12:13:12Z,467661.88,NULL,NA,NA,NA,NA,NA,NA,NA,sdf,NA,0,NA,NA,NA,NA,NA,NA,NA,NA,NA,NA,NA,NA,NA,NA,NA,NA,NA,NA,NA
778d0,check continue,flow.Sequence,5_0_0,NA,NA,completion,85307.54,382265,382265.5,382269.46,467577,467587,2023-08-11T12:13:12Z,467661.88,NULL,NA,NA,NA,NA,NA,NA,NA,sdf,NA,0,NA,NA,NA,NA,NA,NA,NA,NA,NA,NA,NA,NA,NA,NA,NA,NA,NA,NA,NA
778d0,Deep Question,html.Page,5_0_1_0_0_0_0,NA,NA,form submission,3569.12,467662,467661.62,467661.88,471231,471231,2023-08-11T12:13:16Z,471241.32,NULL,Zufall,kikuti,d,NA,NA,NA,f,NA,NA,1,NA,NA,NA,NA,NA,NA,NA,NA,NA,NA,NA,NA,NA,NA,NA,NA,NA,NA,NA
778d0,"""Richtig""-Screen",canvas.Screen,5_0_1_0_0_0_1,NA,NA,skipped,NA,471234,NA,NA,471231,471234,2023-08-11T12:13:16Z,471241.32,NULL,Zufall,kikuti,d,NA,NA,NA,NA,sdfdsf,NA,1,NA,NA,NA,NA,NA,NA,NA,NA,NA,NA,NA,NA,NA,NA,NA,NA,NA,NA,NA
778d0,"""Falsch""-Screen",canvas.Screen,5_0_1_0_0_0_2,NA,NA,timeout,4999.4,471237,471230.22,471241.32,476224.04,476226,2023-08-11T12:13:21Z,476240.72,NULL,Zufall,kikuti,d,NA,NA,NA,NA,sdfdsf,0,1,NA,NA,NA,NA,NA,NA,NA,NA,NA,NA,NA,NA,NA,NA,NA,NA,NA,NA,NA
778d0,deep,flow.Sequence,5_0_1_0_0_0,NA,NA,completion,8562.16,467661,467661.62,467661.88,476224.04,476226,2023-08-11T12:13:21Z,476240.72,NULL,Zufall,kikuti,d,NA,NA,NA,NA,sdfdsf,NA,1,NA,NA,NA,NA,NA,NA,NA,NA,NA,NA,NA,NA,NA,NA,NA,NA,NA,NA,NA
778d0,shallow,flow.Sequence,5_0_1_0_0_1,NA,NA,skipped,NA,476226,NA,NA,476224.04,476227,2023-08-11T12:13:21Z,476240.72,NULL,Zufall,kikuti,d,NA,NA,NA,NA,sdfdsf,NA,1,NA,NA,NA,NA,NA,NA,NA,NA,NA,NA,NA,NA,NA,NA,NA,NA,NA,NA,NA
778d0,task,flow.Sequence,5_0_1_0_0,NA,NA,completion,8562.16,467661,467661.62,467661.88,476224.04,476227,2023-08-11T12:13:21Z,476240.72,NULL,Zufall,kikuti,d,NA,NA,NA,NA,sdfdsf,NA,1,NA,NA,NA,NA,NA,NA,NA,NA,NA,NA,NA,NA,NA,NA,NA,NA,NA,NA,NA
778d0,Deep Question,html.Page,5_0_1_0_1_0_0,NA,NA,form submission,5044.28,476228,476224.04,476240.72,481285,481287,2023-08-11T12:13:26Z,481290.02,NULL,Theorie,nadharia,d,NA,NA,NA,kampo,NA,NA,1,NA,NA,NA,NA,NA,NA,NA,NA,NA,NA,NA,NA,NA,NA,NA,NA,NA,NA,NA
778d0,"""Richtig""-Screen",canvas.Screen,5_0_1_0_1_0_1,NA,NA,skipped,NA,481295,NA,NA,481285,481295,2023-08-11T12:13:26Z,481290.02,NULL,Theorie,nadharia,d,NA,NA,NA,NA,sdfdsf,NA,1,NA,NA,NA,NA,NA,NA,NA,NA,NA,NA,NA,NA,NA,NA,NA,NA,NA,NA,NA
778d0,"""Falsch""-Screen",canvas.Screen,5_0_1_0_1_0_2,NA,NA,timeout,4999.3,481299,481283.3,481290.02,486272.76,486274,2023-08-11T12:13:31Z,486289.32,NULL,Theorie,nadharia,d,NA,NA,NA,NA,sdfdsf,0,1,NA,NA,NA,NA,NA,NA,NA,NA,NA,NA,NA,NA,NA,NA,NA,NA,NA,NA,NA
778d0,deep,flow.Sequence,5_0_1_0_1_0,NA,NA,completion,10032.04,476228,476224.04,476240.72,486272.76,486275,2023-08-11T12:13:31Z,486289.32,NULL,Theorie,nadharia,d,NA,NA,NA,NA,sdfdsf,NA,1,NA,NA,NA,NA,NA,NA,NA,NA,NA,NA,NA,NA,NA,NA,NA,NA,NA,NA,NA
778d0,shallow,flow.Sequence,5_0_1_0_1_1,NA,NA,skipped,NA,486275,NA,NA,486272.76,486276,2023-08-11T12:13:31Z,486289.32,NULL,Theorie,nadharia,d,NA,NA,NA,NA,sdfdsf,NA,1,NA,NA,NA,NA,NA,NA,NA,NA,NA,NA,NA,NA,NA,NA,NA,NA,NA,NA,NA
778d0,task,flow.Sequence,5_0_1_0_1,NA,NA,completion,10032.04,476227,476224.04,476240.72,486272.76,486276,2023-08-11T12:13:31Z,486289.32,NULL,Theorie,nadharia,d,NA,NA,NA,NA,sdfdsf,NA,1,NA,NA,NA,NA,NA,NA,NA,NA,NA,NA,NA,NA,NA,NA,NA,NA,NA,NA,NA
778d0,Deep Question,html.Page,5_0_1_0_2_0_0,NA,NA,form submission,3805.68,486277,486272.76,486289.32,490095,490095,2023-08-11T12:13:35Z,490122.2,NULL,Schönheit,kirembo,d,NA,NA,NA,kampo,NA,NA,1,NA,NA,NA,NA,NA,NA,NA,NA,NA,NA,NA,NA,NA,NA,NA,NA,NA,NA,NA
778d0,"""Richtig""-Screen",canvas.Screen,5_0_1_0_2_0_1,NA,NA,skipped,NA,490099,NA,NA,490095,490099,2023-08-11T12:13:35Z,490122.2,NULL,Schönheit,kirembo,d,NA,NA,NA,NA,sdfdsf,NA,1,NA,NA,NA,NA,NA,NA,NA,NA,NA,NA,NA,NA,NA,NA,NA,NA,NA,NA,NA
778d0,"""Falsch""-Screen",canvas.Screen,5_0_1_0_2_0_2,NA,NA,timeout,4999.34,490101,490105.52,490122.2,495104.92,495107,2023-08-11T12:13:40Z,495121.54,NULL,Schönheit,kirembo,d,NA,NA,NA,NA,sdfdsf,0,1,NA,NA,NA,NA,NA,NA,NA,NA,NA,NA,NA,NA,NA,NA,NA,NA,NA,NA,NA
778d0,deep,flow.Sequence,5_0_1_0_2_0,NA,NA,completion,8815.6,486277,486272.76,486289.32,495104.92,495108,2023-08-11T12:13:40Z,495121.54,NULL,Schönheit,kirembo,d,NA,NA,NA,NA,sdfdsf,NA,1,NA,NA,NA,NA,NA,NA,NA,NA,NA,NA,NA,NA,NA,NA,NA,NA,NA,NA,NA
778d0,shallow,flow.Sequence,5_0_1_0_2_1,NA,NA,skipped,NA,495108,NA,NA,495104.92,495109,2023-08-11T12:13:40Z,495121.54,NULL,Schönheit,kirembo,d,NA,NA,NA,NA,sdfdsf,NA,1,NA,NA,NA,NA,NA,NA,NA,NA,NA,NA,NA,NA,NA,NA,NA,NA,NA,NA,NA
778d0,task,flow.Sequence,5_0_1_0_2,NA,NA,completion,8815.6,486277,486272.76,486289.32,495104.92,495110,2023-08-11T12:13:40Z,495121.54,NULL,Schönheit,kirembo,d,NA,NA,NA,NA,sdfdsf,NA,1,NA,NA,NA,NA,NA,NA,NA,NA,NA,NA,NA,NA,NA,NA,NA,NA,NA,NA,NA
778d0,deep,flow.Sequence,5_0_1_0_3_0,NA,NA,skipped,NA,495110,NA,NA,495104.92,495111,2023-08-11T12:13:40Z,495121.54,NULL,Auftrag,uagizaji,s,ghanima,kuzingatia,msukani,NA,sdfdsf,NA,1,NA,NA,NA,NA,NA,NA,NA,NA,NA,NA,NA,NA,NA,NA,NA,NA,NA,NA,NA
778d0,Shallow Question,html.Page,5_0_1_0_3_1_0,NA,NA,form submission,5589.46,495112,495104.92,495121.54,500711,500712,2023-08-11T12:13:46Z,500720.78,NULL,Auftrag,uagizaji,s,ghanima,kuzingatia,msukani,uagizaji,NA,NA,1,NA,NA,NA,NA,NA,NA,NA,NA,NA,NA,NA,NA,NA,NA,NA,NA,NA,NA,NA
778d0,"""Richtig""-Screen",canvas.Screen,5_0_1_0_3_1_1,NA,NA,timeout,4999.46,500718,500706.12,500720.78,505703.56,505706,2023-08-11T12:13:51Z,505720.24,NULL,Auftrag,uagizaji,s,ghanima,kuzingatia,msukani,NA,sdfdsf,1,1,NA,NA,NA,NA,NA,NA,NA,NA,NA,NA,NA,NA,NA,NA,NA,NA,NA,NA,NA
778d0,"""Falsch""-Screen",canvas.Screen,5_0_1_0_3_1_2,NA,NA,skipped,NA,505714,NA,NA,505703.56,505715,2023-08-11T12:13:51Z,505720.24,NULL,Auftrag,uagizaji,s,ghanima,kuzingatia,msukani,NA,sdfdsf,NA,1,NA,NA,NA,NA,NA,NA,NA,NA,NA,NA,NA,NA,NA,NA,NA,NA,NA,NA,NA
778d0,shallow,flow.Sequence,5_0_1_0_3_1,NA,NA,completion,10582.02,495111,495104.92,495121.54,505703.56,505715,2023-08-11T12:13:51Z,505720.24,NULL,Auftrag,uagizaji,s,ghanima,kuzingatia,msukani,NA,sdfdsf,NA,1,NA,NA,NA,NA,NA,NA,NA,NA,NA,NA,NA,NA,NA,NA,NA,NA,NA,NA,NA
778d0,task,flow.Sequence,5_0_1_0_3,NA,NA,completion,10582.02,495110,495104.92,495121.54,505703.56,505716,2023-08-11T12:13:51Z,505720.24,NULL,Auftrag,uagizaji,s,ghanima,kuzingatia,msukani,NA,sdfdsf,NA,1,NA,NA,NA,NA,NA,NA,NA,NA,NA,NA,NA,NA,NA,NA,NA,NA,NA,NA,NA
778d0,Deep Question,html.Page,5_0_1_0_4_0_0,NA,NA,form submission,3371.76,505716,505703.56,505720.24,509092,509092,2023-08-11T12:13:54Z,509090.66,NULL,Schock,mshtuko,d,NA,NA,NA,na,NA,NA,1,NA,NA,NA,NA,NA,NA,NA,NA,NA,NA,NA,NA,NA,NA,NA,NA,NA,NA,NA
778d0,"""Richtig""-Screen",canvas.Screen,5_0_1_0_4_0_1,NA,NA,skipped,NA,509094,NA,NA,509092,509094,2023-08-11T12:13:54Z,509090.66,NULL,Schock,mshtuko,d,NA,NA,NA,NA,sdfdsf,NA,1,NA,NA,NA,NA,NA,NA,NA,NA,NA,NA,NA,NA,NA,NA,NA,NA,NA,NA,NA
778d0,"""Falsch""-Screen",canvas.Screen,5_0_1_0_4_0_2,NA,NA,timeout,4995.04,509098,509090.3,509090.66,514069.1,514071,2023-08-11T12:13:59Z,514085.7,NULL,Schock,mshtuko,d,NA,NA,NA,NA,sdfdsf,0,1,NA,NA,NA,NA,NA,NA,NA,NA,NA,NA,NA,NA,NA,NA,NA,NA,NA,NA,NA
778d0,deep,flow.Sequence,5_0_1_0_4_0,NA,NA,completion,8348.86,505716,505703.56,505720.24,514069.1,514071,2023-08-11T12:13:59Z,514085.7,NULL,Schock,mshtuko,d,NA,NA,NA,NA,sdfdsf,NA,1,NA,NA,NA,NA,NA,NA,NA,NA,NA,NA,NA,NA,NA,NA,NA,NA,NA,NA,NA
778d0,shallow,flow.Sequence,5_0_1_0_4_1,NA,NA,skipped,NA,514072,NA,NA,514069.1,514072,2023-08-11T12:13:59Z,514085.7,NULL,Schock,mshtuko,d,NA,NA,NA,NA,sdfdsf,NA,1,NA,NA,NA,NA,NA,NA,NA,NA,NA,NA,NA,NA,NA,NA,NA,NA,NA,NA,NA
778d0,task,flow.Sequence,5_0_1_0_4,NA,NA,completion,8348.86,505716,505703.56,505720.24,514069.1,514073,2023-08-11T12:13:59Z,514085.7,NULL,Schock,mshtuko,d,NA,NA,NA,NA,sdfdsf,NA,1,NA,NA,NA,NA,NA,NA,NA,NA,NA,NA,NA,NA,NA,NA,NA,NA,NA,NA,NA
778d0,deep,flow.Sequence,5_0_1_0_5_0,NA,NA,skipped,NA,514074,NA,NA,514069.1,514074,2023-08-11T12:13:59Z,514085.7,NULL,Hoffnung,matarajio,s,kutaalamika,uratibu,mvumbuzi,NA,sdfdsf,NA,1,NA,NA,NA,NA,NA,NA,NA,NA,NA,NA,NA,NA,NA,NA,NA,NA,NA,NA,NA
778d0,Shallow Question,html.Page,5_0_1_0_5_1_0,NA,NA,form submission,6103.3,514075,514069.1,514085.7,520189,520189,2023-08-11T12:14:05Z,520201.64,NULL,Hoffnung,matarajio,s,kutaalamika,uratibu,mvumbuzi,mvumbuzi,NA,NA,1,NA,NA,NA,NA,NA,NA,NA,NA,NA,NA,NA,NA,NA,NA,NA,NA,NA,NA,NA
778d0,"""Richtig""-Screen",canvas.Screen,5_0_1_0_5_1_1,NA,NA,skipped,NA,520190,NA,NA,520189,520190,2023-08-11T12:14:05Z,520201.64,NULL,Hoffnung,matarajio,s,kutaalamika,uratibu,mvumbuzi,NA,sdfdsf,NA,1,NA,NA,NA,NA,NA,NA,NA,NA,NA,NA,NA,NA,NA,NA,NA,NA,NA,NA,NA
778d0,"""Falsch""-Screen",canvas.Screen,5_0_1_0_5_1_2,NA,NA,timeout,4999.4,520192,520186.16,520201.64,525184.46,525186,2023-08-11T12:14:10Z,525201.04,NULL,Hoffnung,matarajio,s,kutaalamika,uratibu,mvumbuzi,NA,sdfdsf,0,1,NA,NA,NA,NA,NA,NA,NA,NA,NA,NA,NA,NA,NA,NA,NA,NA,NA,NA,NA
778d0,shallow,flow.Sequence,5_0_1_0_5_1,NA,NA,completion,11098.76,514074,514069.1,514085.7,525184.46,525186,2023-08-11T12:14:10Z,525201.04,NULL,Hoffnung,matarajio,s,kutaalamika,uratibu,mvumbuzi,NA,sdfdsf,NA,1,NA,NA,NA,NA,NA,NA,NA,NA,NA,NA,NA,NA,NA,NA,NA,NA,NA,NA,NA
778d0,task,flow.Sequence,5_0_1_0_5,NA,NA,completion,11098.76,514074,514069.1,514085.7,525184.46,525187,2023-08-11T12:14:10Z,525201.04,NULL,Hoffnung,matarajio,s,kutaalamika,uratibu,mvumbuzi,NA,sdfdsf,NA,1,NA,NA,NA,NA,NA,NA,NA,NA,NA,NA,NA,NA,NA,NA,NA,NA,NA,NA,NA
778d0,deep,flow.Sequence,5_0_1_0_6_0,NA,NA,skipped,NA,525188,NA,NA,525184.46,525188,2023-08-11T12:14:10Z,525201.04,NULL,Wettbewerb,ushindani,s,mapendezi,kichocheo,ubaguzi,NA,sdfdsf,NA,1,NA,NA,NA,NA,NA,NA,NA,NA,NA,NA,NA,NA,NA,NA,NA,NA,NA,NA,NA
778d0,Shallow Question,html.Page,5_0_1_0_6_1_0,NA,NA,form submission,5755.96,525188,525184.46,525201.04,530957,530958,2023-08-11T12:14:16Z,530966.86,NULL,Wettbewerb,ushindani,s,mapendezi,kichocheo,ubaguzi,ubaguzi,NA,NA,1,NA,NA,NA,NA,NA,NA,NA,NA,NA,NA,NA,NA,NA,NA,NA,NA,NA,NA,NA
778d0,"""Richtig""-Screen",canvas.Screen,5_0_1_0_6_1_1,NA,NA,skipped,NA,530964,NA,NA,530957,530964,2023-08-11T12:14:16Z,530966.86,NULL,Wettbewerb,ushindani,s,mapendezi,kichocheo,ubaguzi,NA,sdfdsf,NA,1,NA,NA,NA,NA,NA,NA,NA,NA,NA,NA,NA,NA,NA,NA,NA,NA,NA,NA,NA
778d0,"""Falsch""-Screen",canvas.Screen,5_0_1_0_6_1_2,NA,NA,timeout,4999.46,530968,530950.56,530966.86,535949.68,535951,2023-08-11T12:14:21Z,535966.32,NULL,Wettbewerb,ushindani,s,mapendezi,kichocheo,ubaguzi,NA,sdfdsf,0,1,NA,NA,NA,NA,NA,NA,NA,NA,NA,NA,NA,NA,NA,NA,NA,NA,NA,NA,NA
778d0,shallow,flow.Sequence,5_0_1_0_6_1,NA,NA,completion,10748.64,525188,525184.46,525201.04,535949.68,535952,2023-08-11T12:14:21Z,535966.32,NULL,Wettbewerb,ushindani,s,mapendezi,kichocheo,ubaguzi,NA,sdfdsf,NA,1,NA,NA,NA,NA,NA,NA,NA,NA,NA,NA,NA,NA,NA,NA,NA,NA,NA,NA,NA
778d0,task,flow.Sequence,5_0_1_0_6,NA,NA,completion,10748.64,525187,525184.46,525201.04,535949.68,535953,2023-08-11T12:14:21Z,535966.32,NULL,Wettbewerb,ushindani,s,mapendezi,kichocheo,ubaguzi,NA,sdfdsf,NA,1,NA,NA,NA,NA,NA,NA,NA,NA,NA,NA,NA,NA,NA,NA,NA,NA,NA,NA,NA
778d0,deep,flow.Sequence,5_0_1_0_7_0,NA,NA,skipped,NA,535953,NA,NA,535949.68,535953,2023-08-11T12:14:21Z,535966.32,NULL,Verpackung,ufungaji,s,uhusiano,upimaji,uchunguzi,NA,sdfdsf,NA,1,NA,NA,NA,NA,NA,NA,NA,NA,NA,NA,NA,NA,NA,NA,NA,NA,NA,NA,NA
778d0,Shallow Question,html.Page,5_0_1_0_7_1_0,NA,NA,form submission,9796.6800000001,535954,535949.68,535966.32,545763,545763,2023-08-11T12:14:31Z,545764.9,NULL,Verpackung,ufungaji,s,uhusiano,upimaji,uchunguzi,upimaji,NA,NA,1,NA,NA,NA,NA,NA,NA,NA,NA,NA,NA,NA,NA,NA,NA,NA,NA,NA,NA,NA
778d0,"""Richtig""-Screen",canvas.Screen,5_0_1_0_7_1_1,NA,NA,skipped,NA,545768,NA,NA,545763,545768,2023-08-11T12:14:31Z,545764.9,NULL,Verpackung,ufungaji,s,uhusiano,upimaji,uchunguzi,NA,sdfdsf,NA,1,NA,NA,NA,NA,NA,NA,NA,NA,NA,NA,NA,NA,NA,NA,NA,NA,NA,NA,NA
778d0,"""Falsch""-Screen",canvas.Screen,5_0_1_0_7_1_2,NA,NA,timeout,4999.52,545772,545757.78,545764.9,550747.74,550750,2023-08-11T12:14:36Z,550764.42,NULL,Verpackung,ufungaji,s,uhusiano,upimaji,uchunguzi,NA,sdfdsf,0,1,NA,NA,NA,NA,NA,NA,NA,NA,NA,NA,NA,NA,NA,NA,NA,NA,NA,NA,NA
778d0,shallow,flow.Sequence,5_0_1_0_7_1,NA,NA,completion,14781.42,535953,535949.68,535966.32,550747.74,550751,2023-08-11T12:14:36Z,550764.42,NULL,Verpackung,ufungaji,s,uhusiano,upimaji,uchunguzi,NA,sdfdsf,NA,1,NA,NA,NA,NA,NA,NA,NA,NA,NA,NA,NA,NA,NA,NA,NA,NA,NA,NA,NA
778d0,task,flow.Sequence,5_0_1_0_7,NA,NA,completion,14781.42,535953,535949.68,535966.32,550747.74,550751,2023-08-11T12:14:36Z,550764.42,NULL,Verpackung,ufungaji,s,uhusiano,upimaji,uchunguzi,NA,sdfdsf,NA,1,NA,NA,NA,NA,NA,NA,NA,NA,NA,NA,NA,NA,NA,NA,NA,NA,NA,NA,NA
778d0,block,flow.Loop,5_0_1_0,NA,NA,completion,83085.86,467661,467661.62,467661.88,550747.74,550752,2023-08-11T12:14:36Z,550764.42,NULL,NA,NA,NA,NA,NA,NA,NA,sdfdsf,NA,1,NA,NA,NA,NA,NA,NA,NA,NA,NA,NA,NA,NA,NA,NA,NA,NA,NA,NA,NA
778d0,weiter,canvas.Screen,5_0_1_1,sdf,keypress(Space),response,5813.58,550753,550747.74,550764.42,556578,556597,2023-08-11T12:14:41Z,556663.68,NULL,NA,NA,NA,NA,NA,NA,NA,sdfdsf,NA,1,NA,NA,NA,NA,NA,NA,NA,NA,NA,NA,NA,NA,NA,NA,NA,NA,NA,NA,NA
778d0,check continue,flow.Sequence,5_0_1,NA,NA,completion,88916.12,467661,467661.62,467661.88,556578,556599,2023-08-11T12:14:41Z,556663.68,NULL,NA,NA,NA,NA,NA,NA,NA,sdfdsf,NA,1,NA,NA,NA,NA,NA,NA,NA,NA,NA,NA,NA,NA,NA,NA,NA,NA,NA,NA,NA
778d0,deep,flow.Sequence,5_0_2_0_0_0,NA,NA,skipped,NA,556655,NA,NA,556578,556655,2023-08-11T12:14:42Z,556663.68,NULL,Auftrag,uagizaji,s,ghanima,kuzingatia,msukani,NA,sdf,NA,2,NA,NA,NA,NA,NA,NA,NA,NA,NA,NA,NA,NA,NA,NA,NA,NA,NA,NA,NA
778d0,Shallow Question,html.Page,5_0_2_0_0_1_0,NA,NA,form submission,8831.3199999999,556655,556654.9,556663.68,565495,565496,2023-08-11T12:14:50Z,565495.82,NULL,Auftrag,uagizaji,s,ghanima,kuzingatia,msukani,msukani,NA,NA,2,NA,NA,NA,NA,NA,NA,NA,NA,NA,NA,NA,NA,NA,NA,NA,NA,NA,NA,NA
778d0,"""Richtig""-Screen",canvas.Screen,5_0_2_0_0_1_1,NA,NA,skipped,NA,565503,NA,NA,565495,565503,2023-08-11T12:14:50Z,565495.82,NULL,Auftrag,uagizaji,s,ghanima,kuzingatia,msukani,NA,sdf,NA,2,NA,NA,NA,NA,NA,NA,NA,NA,NA,NA,NA,NA,NA,NA,NA,NA,NA,NA,NA
778d0,"""Falsch""-Screen",canvas.Screen,5_0_2_0_0_1_2,NA,NA,timeout,4999.38,565507,565487.6,565495.82,570478.52,570480,2023-08-11T12:14:55Z,570495.2,NULL,Auftrag,uagizaji,s,ghanima,kuzingatia,msukani,NA,sdf,0,2,NA,NA,NA,NA,NA,NA,NA,NA,NA,NA,NA,NA,NA,NA,NA,NA,NA,NA,NA
778d0,shallow,flow.Sequence,5_0_2_0_0_1,NA,NA,completion,13814.84,556655,556654.9,556663.68,570478.52,570481,2023-08-11T12:14:55Z,570495.2,NULL,Auftrag,uagizaji,s,ghanima,kuzingatia,msukani,NA,sdf,NA,2,NA,NA,NA,NA,NA,NA,NA,NA,NA,NA,NA,NA,NA,NA,NA,NA,NA,NA,NA
778d0,task,flow.Sequence,5_0_2_0_0,NA,NA,completion,13814.84,556655,556654.9,556663.68,570478.52,570482,2023-08-11T12:14:55Z,570495.2,NULL,Auftrag,uagizaji,s,ghanima,kuzingatia,msukani,NA,sdf,NA,2,NA,NA,NA,NA,NA,NA,NA,NA,NA,NA,NA,NA,NA,NA,NA,NA,NA,NA,NA
778d0,Deep Question,html.Page,5_0_2_0_1_0_0,NA,NA,form submission,5312.8,570482,570478.52,570495.2,575808,575808,2023-08-11T12:15:01Z,575827.68,NULL,Theorie,nadharia,d,NA,NA,NA,nandani,NA,NA,2,NA,NA,NA,NA,NA,NA,NA,NA,NA,NA,NA,NA,NA,NA,NA,NA,NA,NA,NA
778d0,"""Richtig""-Screen",canvas.Screen,5_0_2_0_1_0_1,NA,NA,skipped,NA,575811,NA,NA,575808,575811,2023-08-11T12:15:01Z,575827.68,NULL,Theorie,nadharia,d,NA,NA,NA,NA,sdf,NA,2,NA,NA,NA,NA,NA,NA,NA,NA,NA,NA,NA,NA,NA,NA,NA,NA,NA,NA,NA
778d0,"""Falsch""-Screen",canvas.Screen,5_0_2_0_1_0_2,NA,NA,timeout,4999.48,575814,575811.1,575827.68,580810.52,580812,2023-08-11T12:15:06Z,580827.16,NULL,Theorie,nadharia,d,NA,NA,NA,NA,sdf,0,2,NA,NA,NA,NA,NA,NA,NA,NA,NA,NA,NA,NA,NA,NA,NA,NA,NA,NA,NA
778d0,deep,flow.Sequence,5_0_2_0_1_0,NA,NA,completion,10315.32,570482,570478.52,570495.2,580810.52,580813,2023-08-11T12:15:06Z,580827.16,NULL,Theorie,nadharia,d,NA,NA,NA,NA,sdf,NA,2,NA,NA,NA,NA,NA,NA,NA,NA,NA,NA,NA,NA,NA,NA,NA,NA,NA,NA,NA
778d0,shallow,flow.Sequence,5_0_2_0_1_1,NA,NA,skipped,NA,580813,NA,NA,580810.52,580814,2023-08-11T12:15:06Z,580827.16,NULL,Theorie,nadharia,d,NA,NA,NA,NA,sdf,NA,2,NA,NA,NA,NA,NA,NA,NA,NA,NA,NA,NA,NA,NA,NA,NA,NA,NA,NA,NA
778d0,task,flow.Sequence,5_0_2_0_1,NA,NA,completion,10315.32,570482,570478.52,570495.2,580810.52,580814,2023-08-11T12:15:06Z,580827.16,NULL,Theorie,nadharia,d,NA,NA,NA,NA,sdf,NA,2,NA,NA,NA,NA,NA,NA,NA,NA,NA,NA,NA,NA,NA,NA,NA,NA,NA,NA,NA
778d0,Deep Question,html.Page,5_0_2_0_2_0_0,NA,NA,form submission,11303.84,580815,580810.52,580827.16,592131,592132,2023-08-11T12:15:17Z,592142.28,NULL,Zufall,kikuti,d,NA,NA,NA,kiktu,NA,NA,2,NA,NA,NA,NA,NA,NA,NA,NA,NA,NA,NA,NA,NA,NA,NA,NA,NA,NA,NA
778d0,"""Richtig""-Screen",canvas.Screen,5_0_2_0_2_0_1,NA,NA,skipped,NA,592134,NA,NA,592131,592134,2023-08-11T12:15:17Z,592142.28,NULL,Zufall,kikuti,d,NA,NA,NA,NA,sdf,NA,2,NA,NA,NA,NA,NA,NA,NA,NA,NA,NA,NA,NA,NA,NA,NA,NA,NA,NA,NA
778d0,"""Falsch""-Screen",canvas.Screen,5_0_2_0_2_0_2,NA,NA,timeout,4999.4399999999,592136,592129.86,592142.28,597125.06,597127,2023-08-11T12:15:22Z,597141.72,NULL,Zufall,kikuti,d,NA,NA,NA,NA,sdf,0,2,NA,NA,NA,NA,NA,NA,NA,NA,NA,NA,NA,NA,NA,NA,NA,NA,NA,NA,NA
778d0,deep,flow.Sequence,5_0_2_0_2_0,NA,NA,completion,16297.9,580814,580810.52,580827.16,597125.06,597128,2023-08-11T12:15:22Z,597141.72,NULL,Zufall,kikuti,d,NA,NA,NA,NA,sdf,NA,2,NA,NA,NA,NA,NA,NA,NA,NA,NA,NA,NA,NA,NA,NA,NA,NA,NA,NA,NA
778d0,shallow,flow.Sequence,5_0_2_0_2_1,NA,NA,skipped,NA,597128,NA,NA,597125.06,597128,2023-08-11T12:15:22Z,597141.72,NULL,Zufall,kikuti,d,NA,NA,NA,NA,sdf,NA,2,NA,NA,NA,NA,NA,NA,NA,NA,NA,NA,NA,NA,NA,NA,NA,NA,NA,NA,NA
778d0,task,flow.Sequence,5_0_2_0_2,NA,NA,completion,16297.9,580814,580810.52,580827.16,597125.06,597129,2023-08-11T12:15:22Z,597141.72,NULL,Zufall,kikuti,d,NA,NA,NA,NA,sdf,NA,2,NA,NA,NA,NA,NA,NA,NA,NA,NA,NA,NA,NA,NA,NA,NA,NA,NA,NA,NA
778d0,Deep Question,html.Page,5_0_2_0_3_0_0,NA,NA,form submission,23276.28,597130,597125.06,597141.72,620418,620420,2023-08-11T12:15:45Z,620422.04,NULL,Schock,mshtuko,d,NA,NA,NA,mashgo,NA,NA,2,NA,NA,NA,NA,NA,NA,NA,NA,NA,NA,NA,NA,NA,NA,NA,NA,NA,NA,NA
778d0,"""Richtig""-Screen",canvas.Screen,5_0_2_0_3_0_1,NA,NA,skipped,NA,620428,NA,NA,620418,620428,2023-08-11T12:15:45Z,620422.04,NULL,Schock,mshtuko,d,NA,NA,NA,NA,sdf,NA,2,NA,NA,NA,NA,NA,NA,NA,NA,NA,NA,NA,NA,NA,NA,NA,NA,NA,NA,NA
778d0,"""Falsch""-Screen",canvas.Screen,5_0_2_0_3_0_2,NA,NA,timeout,4999.38,620432,620416.2,620422.04,625404.74,625406,2023-08-11T12:15:50Z,625421.42,NULL,Schock,mshtuko,d,NA,NA,NA,NA,sdf,0,2,NA,NA,NA,NA,NA,NA,NA,NA,NA,NA,NA,NA,NA,NA,NA,NA,NA,NA,NA
778d0,deep,flow.Sequence,5_0_2_0_3_0,NA,NA,completion,28263.02,597129,597125.06,597141.72,625404.74,625407,2023-08-11T12:15:50Z,625421.42,NULL,Schock,mshtuko,d,NA,NA,NA,NA,sdf,NA,2,NA,NA,NA,NA,NA,NA,NA,NA,NA,NA,NA,NA,NA,NA,NA,NA,NA,NA,NA
778d0,shallow,flow.Sequence,5_0_2_0_3_1,NA,NA,skipped,NA,625408,NA,NA,625404.74,625408,2023-08-11T12:15:50Z,625421.42,NULL,Schock,mshtuko,d,NA,NA,NA,NA,sdf,NA,2,NA,NA,NA,NA,NA,NA,NA,NA,NA,NA,NA,NA,NA,NA,NA,NA,NA,NA,NA
778d0,task,flow.Sequence,5_0_2_0_3,NA,NA,completion,28263.02,597129,597125.06,597141.72,625404.74,625409,2023-08-11T12:15:50Z,625421.42,NULL,Schock,mshtuko,d,NA,NA,NA,NA,sdf,NA,2,NA,NA,NA,NA,NA,NA,NA,NA,NA,NA,NA,NA,NA,NA,NA,NA,NA,NA,NA
778d0,deep,flow.Sequence,5_0_2_0_4_0,NA,NA,skipped,NA,625409,NA,NA,625404.74,625409,2023-08-11T12:15:50Z,625421.42,NULL,Wettbewerb,ushindani,s,mapendezi,kichocheo,ubaguzi,NA,sdf,NA,2,NA,NA,NA,NA,NA,NA,NA,NA,NA,NA,NA,NA,NA,NA,NA,NA,NA,NA,NA
778d0,Shallow Question,html.Page,5_0_2_0_4_1_0,NA,NA,form submission,7587.58,625410,625404.74,625421.42,633009,633010,2023-08-11T12:15:58Z,633020.36,NULL,Wettbewerb,ushindani,s,mapendezi,kichocheo,ubaguzi,ushindani,NA,NA,2,NA,NA,NA,NA,NA,NA,NA,NA,NA,NA,NA,NA,NA,NA,NA,NA,NA,NA,NA
778d0,"""Richtig""-Screen",canvas.Screen,5_0_2_0_4_1_1,NA,NA,timeout,4999.42,633016,633003.98,633020.36,638003.12,638005,2023-08-11T12:16:03Z,638019.78,NULL,Wettbewerb,ushindani,s,mapendezi,kichocheo,ubaguzi,NA,sdf,1,2,NA,NA,NA,NA,NA,NA,NA,NA,NA,NA,NA,NA,NA,NA,NA,NA,NA,NA,NA
778d0,"""Falsch""-Screen",canvas.Screen,5_0_2_0_4_1_2,NA,NA,skipped,NA,638013,NA,NA,638003.12,638014,2023-08-11T12:16:03Z,638019.78,NULL,Wettbewerb,ushindani,s,mapendezi,kichocheo,ubaguzi,NA,sdf,NA,2,NA,NA,NA,NA,NA,NA,NA,NA,NA,NA,NA,NA,NA,NA,NA,NA,NA,NA,NA
778d0,shallow,flow.Sequence,5_0_2_0_4_1,NA,NA,completion,12581.7,625410,625404.74,625421.42,638003.12,638015,2023-08-11T12:16:03Z,638019.78,NULL,Wettbewerb,ushindani,s,mapendezi,kichocheo,ubaguzi,NA,sdf,NA,2,NA,NA,NA,NA,NA,NA,NA,NA,NA,NA,NA,NA,NA,NA,NA,NA,NA,NA,NA
778d0,task,flow.Sequence,5_0_2_0_4,NA,NA,completion,12581.7,625409,625404.74,625421.42,638003.12,638016,2023-08-11T12:16:03Z,638019.78,NULL,Wettbewerb,ushindani,s,mapendezi,kichocheo,ubaguzi,NA,sdf,NA,2,NA,NA,NA,NA,NA,NA,NA,NA,NA,NA,NA,NA,NA,NA,NA,NA,NA,NA,NA
778d0,deep,flow.Sequence,5_0_2_0_5_0,NA,NA,skipped,NA,638016,NA,NA,638003.12,638016,2023-08-11T12:16:03Z,638019.78,NULL,Verpackung,ufungaji,s,uhusiano,upimaji,uchunguzi,NA,sdf,NA,2,NA,NA,NA,NA,NA,NA,NA,NA,NA,NA,NA,NA,NA,NA,NA,NA,NA,NA,NA
778d0,Shallow Question,html.Page,5_0_2_0_5_1_0,NA,NA,form submission,12289.22,638017,638003.12,638019.78,650309,650311,2023-08-11T12:16:15Z,650315.86,NULL,Verpackung,ufungaji,s,uhusiano,upimaji,uchunguzi,upimaji,NA,NA,2,NA,NA,NA,NA,NA,NA,NA,NA,NA,NA,NA,NA,NA,NA,NA,NA,NA,NA,NA
778d0,"""Richtig""-Screen",canvas.Screen,5_0_2_0_5_1_1,NA,NA,skipped,NA,650315,NA,NA,650309,650316,2023-08-11T12:16:15Z,650315.86,NULL,Verpackung,ufungaji,s,uhusiano,upimaji,uchunguzi,NA,sdf,NA,2,NA,NA,NA,NA,NA,NA,NA,NA,NA,NA,NA,NA,NA,NA,NA,NA,NA,NA,NA
778d0,"""Falsch""-Screen",canvas.Screen,5_0_2_0_5_1_2,NA,NA,timeout,5001.64,650321,650303.56,650315.86,655300.92,655302,2023-08-11T12:16:20Z,655317.5,NULL,Verpackung,ufungaji,s,uhusiano,upimaji,uchunguzi,NA,sdf,0,2,NA,NA,NA,NA,NA,NA,NA,NA,NA,NA,NA,NA,NA,NA,NA,NA,NA,NA,NA
778d0,shallow,flow.Sequence,5_0_2_0_5_1,NA,NA,completion,17281.14,638017,638003.12,638019.78,655300.92,655303,2023-08-11T12:16:20Z,655317.5,NULL,Verpackung,ufungaji,s,uhusiano,upimaji,uchunguzi,NA,sdf,NA,2,NA,NA,NA,NA,NA,NA,NA,NA,NA,NA,NA,NA,NA,NA,NA,NA,NA,NA,NA
778d0,task,flow.Sequence,5_0_2_0_5,NA,NA,completion,17281.14,638016,638003.12,638019.78,655300.92,655304,2023-08-11T12:16:20Z,655317.5,NULL,Verpackung,ufungaji,s,uhusiano,upimaji,uchunguzi,NA,sdf,NA,2,NA,NA,NA,NA,NA,NA,NA,NA,NA,NA,NA,NA,NA,NA,NA,NA,NA,NA,NA
778d0,Deep Question,html.Page,5_0_2_0_6_0_0,NA,NA,form submission,5882.5,655305,655300.92,655317.5,661200,661200,2023-08-11T12:16:26Z,661200.06,NULL,Schönheit,kirembo,d,NA,NA,NA,d,NA,NA,2,NA,NA,NA,NA,NA,NA,NA,NA,NA,NA,NA,NA,NA,NA,NA,NA,NA,NA,NA
778d0,"""Richtig""-Screen",canvas.Screen,5_0_2_0_6_0_1,NA,NA,skipped,NA,661204,NA,NA,661200,661204,2023-08-11T12:16:26Z,661200.06,NULL,Schönheit,kirembo,d,NA,NA,NA,NA,sdf,NA,2,NA,NA,NA,NA,NA,NA,NA,NA,NA,NA,NA,NA,NA,NA,NA,NA,NA,NA,NA
778d0,"""Falsch""-Screen",canvas.Screen,5_0_2_0_6_0_2,NA,NA,timeout,4999.48,661207,661199.32,661200.06,666182.86,666184,2023-08-11T12:16:31Z,666199.54,NULL,Schönheit,kirembo,d,NA,NA,NA,NA,sdf,0,2,NA,NA,NA,NA,NA,NA,NA,NA,NA,NA,NA,NA,NA,NA,NA,NA,NA,NA,NA
778d0,deep,flow.Sequence,5_0_2_0_6_0,NA,NA,completion,10865.36,655305,655300.92,655317.5,666182.86,666185,2023-08-11T12:16:31Z,666199.54,NULL,Schönheit,kirembo,d,NA,NA,NA,NA,sdf,NA,2,NA,NA,NA,NA,NA,NA,NA,NA,NA,NA,NA,NA,NA,NA,NA,NA,NA,NA,NA
778d0,shallow,flow.Sequence,5_0_2_0_6_1,NA,NA,skipped,NA,666185,NA,NA,666182.86,666185,2023-08-11T12:16:31Z,666199.54,NULL,Schönheit,kirembo,d,NA,NA,NA,NA,sdf,NA,2,NA,NA,NA,NA,NA,NA,NA,NA,NA,NA,NA,NA,NA,NA,NA,NA,NA,NA,NA
778d0,task,flow.Sequence,5_0_2_0_6,NA,NA,completion,10865.36,655304,655300.92,655317.5,666182.86,666186,2023-08-11T12:16:31Z,666199.54,NULL,Schönheit,kirembo,d,NA,NA,NA,NA,sdf,NA,2,NA,NA,NA,NA,NA,NA,NA,NA,NA,NA,NA,NA,NA,NA,NA,NA,NA,NA,NA
778d0,deep,flow.Sequence,5_0_2_0_7_0,NA,NA,skipped,NA,666186,NA,NA,666182.86,666186,2023-08-11T12:16:31Z,666199.54,NULL,Hoffnung,matarajio,s,kutaalamika,uratibu,mvumbuzi,NA,sdf,NA,2,NA,NA,NA,NA,NA,NA,NA,NA,NA,NA,NA,NA,NA,NA,NA,NA,NA,NA,NA
778d0,Shallow Question,html.Page,5_0_2_0_7_1_0,NA,NA,form submission,7888.46,666187,666182.86,666199.54,674088,674089,2023-08-11T12:16:39Z,674098.38,NULL,Hoffnung,matarajio,s,kutaalamika,uratibu,mvumbuzi,matarajio,NA,NA,2,NA,NA,NA,NA,NA,NA,NA,NA,NA,NA,NA,NA,NA,NA,NA,NA,NA,NA,NA
778d0,"""Richtig""-Screen",canvas.Screen,5_0_2_0_7_1_1,NA,NA,timeout,4999.4,674094,674084.24,674098.38,679081.2,679082,2023-08-11T12:16:44Z,679097.78,NULL,Hoffnung,matarajio,s,kutaalamika,uratibu,mvumbuzi,NA,sdf,1,2,NA,NA,NA,NA,NA,NA,NA,NA,NA,NA,NA,NA,NA,NA,NA,NA,NA,NA,NA
778d0,"""Falsch""-Screen",canvas.Screen,5_0_2_0_7_1_2,NA,NA,skipped,NA,679089,NA,NA,679081.2,679089,2023-08-11T12:16:44Z,679097.78,NULL,Hoffnung,matarajio,s,kutaalamika,uratibu,mvumbuzi,NA,sdf,NA,2,NA,NA,NA,NA,NA,NA,NA,NA,NA,NA,NA,NA,NA,NA,NA,NA,NA,NA,NA
778d0,shallow,flow.Sequence,5_0_2_0_7_1,NA,NA,completion,12881.66,666187,666182.86,666199.54,679081.2,679090,2023-08-11T12:16:44Z,679097.78,NULL,Hoffnung,matarajio,s,kutaalamika,uratibu,mvumbuzi,NA,sdf,NA,2,NA,NA,NA,NA,NA,NA,NA,NA,NA,NA,NA,NA,NA,NA,NA,NA,NA,NA,NA
778d0,task,flow.Sequence,5_0_2_0_7,NA,NA,completion,12881.66,666186,666182.86,666199.54,679081.2,679090,2023-08-11T12:16:44Z,679097.78,NULL,Hoffnung,matarajio,s,kutaalamika,uratibu,mvumbuzi,NA,sdf,NA,2,NA,NA,NA,NA,NA,NA,NA,NA,NA,NA,NA,NA,NA,NA,NA,NA,NA,NA,NA
778d0,block,flow.Loop,5_0_2_0,NA,NA,completion,122417.52,556655,556654.9,556663.68,679081.2,679090,2023-08-11T12:16:44Z,679097.78,NULL,NA,NA,NA,NA,NA,NA,NA,sdf,NA,2,NA,NA,NA,NA,NA,NA,NA,NA,NA,NA,NA,NA,NA,NA,NA,NA,NA,NA,NA
778d0,weiter,canvas.Screen,5_0_2_1,sdf,keypress(Space),response,792.21999999997,679091,679081.2,679097.78,679890,679895,2023-08-11T12:16:45Z,679965.58,NULL,NA,NA,NA,NA,NA,NA,NA,sdf,NA,2,NA,NA,NA,NA,NA,NA,NA,NA,NA,NA,NA,NA,NA,NA,NA,NA,NA,NA,NA
778d0,check continue,flow.Sequence,5_0_2,NA,NA,completion,123226.32,556655,556654.9,556663.68,679890,679897,2023-08-11T12:16:45Z,679965.58,NULL,NA,NA,NA,NA,NA,NA,NA,sdf,NA,2,NA,NA,NA,NA,NA,NA,NA,NA,NA,NA,NA,NA,NA,NA,NA,NA,NA,NA,NA
778d0,Deep Question,html.Page,5_0_3_0_0_0_0,NA,NA,form submission,3970.42,679965,679965.2,679965.58,683936,683936,2023-08-11T12:16:49Z,683947.04,NULL,Theorie,nadharia,d,NA,NA,NA,nadharia,NA,NA,3,NA,NA,NA,NA,NA,NA,NA,NA,NA,NA,NA,NA,NA,NA,NA,NA,NA,NA,NA
778d0,"""Richtig""-Screen",canvas.Screen,5_0_3_0_0_0_1,NA,NA,timeout,4999.5399999999,683939,683930.54,683947.04,688929.92,688932,2023-08-11T12:16:54Z,688946.58,NULL,Theorie,nadharia,d,NA,NA,NA,NA,qt,1,3,NA,NA,NA,NA,NA,NA,NA,NA,NA,NA,NA,NA,NA,NA,NA,NA,NA,NA,NA
778d0,"""Falsch""-Screen",canvas.Screen,5_0_3_0_0_0_2,NA,NA,skipped,NA,688937,NA,NA,688929.92,688937,2023-08-11T12:16:54Z,688946.58,NULL,Theorie,nadharia,d,NA,NA,NA,NA,qt,NA,3,NA,NA,NA,NA,NA,NA,NA,NA,NA,NA,NA,NA,NA,NA,NA,NA,NA,NA,NA
778d0,deep,flow.Sequence,5_0_3_0_0_0,NA,NA,completion,8964.3400000001,679965,679965.2,679965.58,688929.92,688938,2023-08-11T12:16:54Z,688946.58,NULL,Theorie,nadharia,d,NA,NA,NA,NA,qt,NA,3,NA,NA,NA,NA,NA,NA,NA,NA,NA,NA,NA,NA,NA,NA,NA,NA,NA,NA,NA
778d0,shallow,flow.Sequence,5_0_3_0_0_1,NA,NA,skipped,NA,688938,NA,NA,688929.92,688938,2023-08-11T12:16:54Z,688946.58,NULL,Theorie,nadharia,d,NA,NA,NA,NA,qt,NA,3,NA,NA,NA,NA,NA,NA,NA,NA,NA,NA,NA,NA,NA,NA,NA,NA,NA,NA,NA
778d0,task,flow.Sequence,5_0_3_0_0,NA,NA,completion,8964.3400000001,679965,679965.2,679965.58,688929.92,688939,2023-08-11T12:16:54Z,688946.58,NULL,Theorie,nadharia,d,NA,NA,NA,NA,qt,NA,3,NA,NA,NA,NA,NA,NA,NA,NA,NA,NA,NA,NA,NA,NA,NA,NA,NA,NA,NA
778d0,Deep Question,html.Page,5_0_3_0_1_0_0,NA,NA,form submission,11562.42,688939,688929.92,688946.58,700509,700510,2023-08-11T12:17:05Z,700511.64,NULL,Schönheit,kirembo,d,NA,NA,NA,kirembo,NA,NA,3,NA,NA,NA,NA,NA,NA,NA,NA,NA,NA,NA,NA,NA,NA,NA,NA,NA,NA,NA
778d0,"""Richtig""-Screen",canvas.Screen,5_0_3_0_1_0_1,NA,NA,timeout,4999.4399999999,700512,700508.72,700511.64,705494.48,705498,2023-08-11T12:17:10Z,705511.08,NULL,Schönheit,kirembo,d,NA,NA,NA,NA,qt,1,3,NA,NA,NA,NA,NA,NA,NA,NA,NA,NA,NA,NA,NA,NA,NA,NA,NA,NA,NA
778d0,"""Falsch""-Screen",canvas.Screen,5_0_3_0_1_0_2,NA,NA,skipped,NA,705515,NA,NA,705494.48,705515,2023-08-11T12:17:10Z,705511.08,NULL,Schönheit,kirembo,d,NA,NA,NA,NA,qt,NA,3,NA,NA,NA,NA,NA,NA,NA,NA,NA,NA,NA,NA,NA,NA,NA,NA,NA,NA,NA
778d0,deep,flow.Sequence,5_0_3_0_1_0,NA,NA,completion,16547.9,688939,688929.92,688946.58,705494.48,705516,2023-08-11T12:17:10Z,705511.08,NULL,Schönheit,kirembo,d,NA,NA,NA,NA,qt,NA,3,NA,NA,NA,NA,NA,NA,NA,NA,NA,NA,NA,NA,NA,NA,NA,NA,NA,NA,NA
778d0,shallow,flow.Sequence,5_0_3_0_1_1,NA,NA,skipped,NA,705516,NA,NA,705494.48,705516,2023-08-11T12:17:10Z,705511.08,NULL,Schönheit,kirembo,d,NA,NA,NA,NA,qt,NA,3,NA,NA,NA,NA,NA,NA,NA,NA,NA,NA,NA,NA,NA,NA,NA,NA,NA,NA,NA
778d0,task,flow.Sequence,5_0_3_0_1,NA,NA,completion,16547.9,688939,688929.92,688946.58,705494.48,705516,2023-08-11T12:17:10Z,705511.08,NULL,Schönheit,kirembo,d,NA,NA,NA,NA,qt,NA,3,NA,NA,NA,NA,NA,NA,NA,NA,NA,NA,NA,NA,NA,NA,NA,NA,NA,NA,NA
778d0,Deep Question,html.Page,5_0_3_0_2_0_0,NA,NA,form submission,9229.92,705517,705494.48,705511.08,714741,714742,2023-08-11T12:17:20Z,714743.18,NULL,Schock,mshtuko,d,NA,NA,NA,mshtuko,NA,NA,3,NA,NA,NA,NA,NA,NA,NA,NA,NA,NA,NA,NA,NA,NA,NA,NA,NA,NA,NA
778d0,"""Richtig""-Screen",canvas.Screen,5_0_3_0_2_0_1,NA,NA,timeout,4999.36,714745,714740.18,714743.18,719725.88,719727,2023-08-11T12:17:25Z,719742.54,NULL,Schock,mshtuko,d,NA,NA,NA,NA,qt,1,3,NA,NA,NA,NA,NA,NA,NA,NA,NA,NA,NA,NA,NA,NA,NA,NA,NA,NA,NA
778d0,"""Falsch""-Screen",canvas.Screen,5_0_3_0_2_0_2,NA,NA,skipped,NA,719731,NA,NA,719725.88,719731,2023-08-11T12:17:25Z,719742.54,NULL,Schock,mshtuko,d,NA,NA,NA,NA,qt,NA,3,NA,NA,NA,NA,NA,NA,NA,NA,NA,NA,NA,NA,NA,NA,NA,NA,NA,NA,NA
778d0,deep,flow.Sequence,5_0_3_0_2_0,NA,NA,completion,14214.8,705517,705494.48,705511.08,719725.88,719731,2023-08-11T12:17:25Z,719742.54,NULL,Schock,mshtuko,d,NA,NA,NA,NA,qt,NA,3,NA,NA,NA,NA,NA,NA,NA,NA,NA,NA,NA,NA,NA,NA,NA,NA,NA,NA,NA
778d0,shallow,flow.Sequence,5_0_3_0_2_1,NA,NA,skipped,NA,719732,NA,NA,719725.88,719732,2023-08-11T12:17:25Z,719742.54,NULL,Schock,mshtuko,d,NA,NA,NA,NA,qt,NA,3,NA,NA,NA,NA,NA,NA,NA,NA,NA,NA,NA,NA,NA,NA,NA,NA,NA,NA,NA
778d0,task,flow.Sequence,5_0_3_0_2,NA,NA,completion,14214.8,705517,705494.48,705511.08,719725.88,719732,2023-08-11T12:17:25Z,719742.54,NULL,Schock,mshtuko,d,NA,NA,NA,NA,qt,NA,3,NA,NA,NA,NA,NA,NA,NA,NA,NA,NA,NA,NA,NA,NA,NA,NA,NA,NA,NA
778d0,Deep Question,html.Page,5_0_3_0_3_0_0,NA,NA,form submission,4095.46,719732,719725.88,719742.54,723838,723839,2023-08-11T12:17:29Z,723841.92,NULL,Zufall,kikuti,d,NA,NA,NA,kikuti,NA,NA,3,NA,NA,NA,NA,NA,NA,NA,NA,NA,NA,NA,NA,NA,NA,NA,NA,NA,NA,NA
778d0,"""Richtig""-Screen",canvas.Screen,5_0_3_0_3_0_1,NA,NA,timeout,4999.3999999999,723841,723837.22,723841.92,728824.72,728826,2023-08-11T12:17:34Z,728841.32,NULL,Zufall,kikuti,d,NA,NA,NA,NA,qt,1,3,NA,NA,NA,NA,NA,NA,NA,NA,NA,NA,NA,NA,NA,NA,NA,NA,NA,NA,NA
778d0,"""Falsch""-Screen",canvas.Screen,5_0_3_0_3_0_2,NA,NA,skipped,NA,728832,NA,NA,728824.72,728833,2023-08-11T12:17:34Z,728841.32,NULL,Zufall,kikuti,d,NA,NA,NA,NA,qt,NA,3,NA,NA,NA,NA,NA,NA,NA,NA,NA,NA,NA,NA,NA,NA,NA,NA,NA,NA,NA
778d0,deep,flow.Sequence,5_0_3_0_3_0,NA,NA,completion,9082.1799999999,719732,719725.88,719742.54,728824.72,728833,2023-08-11T12:17:34Z,728841.32,NULL,Zufall,kikuti,d,NA,NA,NA,NA,qt,NA,3,NA,NA,NA,NA,NA,NA,NA,NA,NA,NA,NA,NA,NA,NA,NA,NA,NA,NA,NA
