observation,sender,sender_type,sender_id,response,response_action,ended_on,duration,time_run,time_render,time_show,time_end,time_commit,timestamp,time_switch,german,swahili,enc,distractor1,distractor2,distractor3,response_2,x,correct,distractors,url_vp,url_sess,meta_labjs_version,meta_location,meta_user_agent,meta_platform,meta_language,meta_locale,meta_time_zone,meta_timezone_offset,meta_screen_width,meta_screen_height,meta_scroll_width,meta_scroll_height,meta_window_inner_width,meta_window_inner_height,meta_device_pixel_ratio,meta_labjs_build_flavor,meta_labjs_build_commit
1ddd8,Introduction delayed retrieval,canvas.Screen,0,weiter,keypress(Space),response,32835.399999428,448.19999980927,271.9,455.2,33290.599999428,33293.099999428,2024-04-15T08:05:02Z,33305.1,NA,NA,NA,NA,NA,NA,NA,NA,NA,NULL,157,2,20.2.4,https://neurocog.fernuni.ch/studies/vweber/jbaenninger/delayed%202/index.html?vp=157&sess=2,"Mozilla/5.0 (Windows NT 10.0; Win64; x64) AppleWebKit/537.36 (KHTML, like Gecko) Chrome/123.0.0.0 Safari/537.36 Edg/123.0.0.0",Win32,de,de-CH,Europe/Zurich,-120,1920,1080,1872,910,1872,958,1,production,f5b4a49f956347addd546a832a3327688c2c0fef
1ddd8,Deep Question,html.Page,1_0_0_0,NA,NA,form submission,62809.199999237,33293.5,33288.7,33305.1,96114.299999237,96114.5,2024-04-15T08:06:04Z,96138.6,Kultur,utamaduni,d,shetani,gerezani,mazingira,s,NA,NA,NULL,NA,NA,NA,NA,NA,NA,NA,NA,NA,NA,NA,NA,NA,NA,NA,NA,NA,NA,NA
1ddd8,Save data screen,canvas.Screen,1_0_0_1,NA,NA,timeout,500,96115.5,96121.926,96138.6,96621.9,96622.799999237,2024-04-15T08:06:05Z,96638.6,Kultur,utamaduni,d,shetani,gerezani,mazingira,NA,NA,0,NULL,NA,NA,NA,NA,NA,NA,NA,NA,NA,NA,NA,NA,NA,NA,NA,NA,NA,NA,NA
1ddd8,deep,flow.Sequence,1_0_0,NA,NA,completion,63316.8,33293.5,33288.7,33305.1,96621.9,96623.299999237,2024-04-15T08:06:05Z,96638.6,Kultur,utamaduni,d,shetani,gerezani,mazingira,NA,NA,NA,NULL,NA,NA,NA,NA,NA,NA,NA,NA,NA,NA,NA,NA,NA,NA,NA,NA,NA,NA,NA
1ddd8,task,flow.Sequence,1_0,NA,NA,completion,63316.8,33293.399999619,33288.7,33305.1,96621.9,96623.599999428,2024-04-15T08:06:05Z,96638.6,Kultur,utamaduni,d,shetani,gerezani,mazingira,NA,NA,NA,NULL,NA,NA,NA,NA,NA,NA,NA,NA,NA,NA,NA,NA,NA,NA,NA,NA,NA,NA,NA
1ddd8,Deep Question,html.Page,1_1_0_0,NA,NA,form submission,13341.099999809,96623.799999237,96621.9,96638.6,109979.69999980999,109980,2024-04-15T08:06:18Z,109988.5,Abrechnung,uhasibu,d,kusahihisha,mpambano,mashambulizi,s,NA,NA,NULL,NA,NA,NA,NA,NA,NA,NA,NA,NA,NA,NA,NA,NA,NA,NA,NA,NA,NA,NA
1ddd8,Save data screen,canvas.Screen,1_1_0_1,NA,NA,timeout,500.2,109981.89999962,109972.058,109988.5,110472,110472.79999924,2024-04-15T08:06:19Z,110488.7,Abrechnung,uhasibu,d,kusahihisha,mpambano,mashambulizi,NA,NA,0,NULL,NA,NA,NA,NA,NA,NA,NA,NA,NA,NA,NA,NA,NA,NA,NA,NA,NA,NA,NA
1ddd8,deep,flow.Sequence,1_1_0,NA,NA,completion,13833.4,96623.699999809,96621.9,96638.6,110472,110473.09999943,2024-04-15T08:06:19Z,110488.7,Abrechnung,uhasibu,d,kusahihisha,mpambano,mashambulizi,NA,NA,NA,NULL,NA,NA,NA,NA,NA,NA,NA,NA,NA,NA,NA,NA,NA,NA,NA,NA,NA,NA,NA
1ddd8,task,flow.Sequence,1_1,NA,NA,completion,13833.4,96623.599999428,96621.9,96638.6,110472,110473.39999962,2024-04-15T08:06:19Z,110488.7,Abrechnung,uhasibu,d,kusahihisha,mpambano,mashambulizi,NA,NA,NA,NULL,NA,NA,NA,NA,NA,NA,NA,NA,NA,NA,NA,NA,NA,NA,NA,NA,NA,NA,NA
1ddd8,Deep Question,html.Page,1_2_0_0,NA,NA,form submission,16845.999999809,110473.5,110472,110488.7,127334.69999981,127335,2024-04-15T08:06:36Z,127355.3,Angreifer,mshambulizi,s,kitengo,tasinia,usafirishaji,ms,NA,NA,NULL,NA,NA,NA,NA,NA,NA,NA,NA,NA,NA,NA,NA,NA,NA,NA,NA,NA,NA,NA
1ddd8,Save data screen,canvas.Screen,1_2_0_1,NA,NA,timeout,500,127336.59999943,127338.626,127355.3,127838.6,127839.39999962,2024-04-15T08:06:36Z,127855.3,Angreifer,mshambulizi,s,kitengo,tasinia,usafirishaji,NA,NA,0,NULL,NA,NA,NA,NA,NA,NA,NA,NA,NA,NA,NA,NA,NA,NA,NA,NA,NA,NA,NA
1ddd8,deep,flow.Sequence,1_2_0,NA,NA,completion,17349.9,110473.5,110472,110488.7,127838.6,127839.79999924,2024-04-15T08:06:36Z,127855.3,Angreifer,mshambulizi,s,kitengo,tasinia,usafirishaji,NA,NA,NA,NULL,NA,NA,NA,NA,NA,NA,NA,NA,NA,NA,NA,NA,NA,NA,NA,NA,NA,NA,NA
1ddd8,task,flow.Sequence,1_2,NA,NA,completion,17349.9,110473.5,110472,110488.7,127838.6,127840,2024-04-15T08:06:36Z,127855.3,Angreifer,mshambulizi,s,kitengo,tasinia,usafirishaji,NA,NA,NA,NULL,NA,NA,NA,NA,NA,NA,NA,NA,NA,NA,NA,NA,NA,NA,NA,NA,NA,NA,NA
1ddd8,Deep Question,html.Page,1_3_0_0,NA,NA,form submission,39569.099999619,127840.19999981,127838.6,127855.3,167424.39999962,167424.59999943,2024-04-15T08:07:16Z,167438.6,Sänger,mwimbaji,s,msichana,shughuli,mshirika,s,NA,NA,NULL,NA,NA,NA,NA,NA,NA,NA,NA,NA,NA,NA,NA,NA,NA,NA,NA,NA,NA,NA
1ddd8,Save data screen,canvas.Screen,1_3_0_1,NA,NA,timeout,500.10000000001,167426.39999962,167421.99,167438.6,167921.9,167922.5,2024-04-15T08:07:16Z,167938.7,Sänger,mwimbaji,s,msichana,shughuli,mshirika,NA,NA,0,NULL,NA,NA,NA,NA,NA,NA,NA,NA,NA,NA,NA,NA,NA,NA,NA,NA,NA,NA,NA
1ddd8,deep,flow.Sequence,1_3_0,NA,NA,completion,40066.6,127840.09999943,127838.6,127855.3,167921.9,167922.79999924,2024-04-15T08:07:16Z,167938.7,Sänger,mwimbaji,s,msichana,shughuli,mshirika,NA,NA,NA,NULL,NA,NA,NA,NA,NA,NA,NA,NA,NA,NA,NA,NA,NA,NA,NA,NA,NA,NA,NA
1ddd8,task,flow.Sequence,1_3,NA,NA,completion,40066.6,127840,127838.6,127855.3,167921.9,167922.89999962,2024-04-15T08:07:16Z,167938.7,Sänger,mwimbaji,s,msichana,shughuli,mshirika,NA,NA,NA,NULL,NA,NA,NA,NA,NA,NA,NA,NA,NA,NA,NA,NA,NA,NA,NA,NA,NA,NA,NA
1ddd8,Deep Question,html.Page,1_4_0_0,NA,NA,form submission,18007.199999619,167923.09999943,167921.9,167938.7,185945.89999961999,185946.09999943,2024-04-15T08:07:34Z,185955.3,Kreativität,ubunifu,s,mratibu,mwendelezo,makubaliano,s,NA,NA,NULL,NA,NA,NA,NA,NA,NA,NA,NA,NA,NA,NA,NA,NA,NA,NA,NA,NA,NA,NA
1ddd8,Save data screen,canvas.Screen,1_4_0_1,NA,NA,timeout,500,185947.79999924,185938.676,185955.3,186438.6,186439.19999981,2024-04-15T08:07:35Z,186455.3,Kreativität,ubunifu,s,mratibu,mwendelezo,makubaliano,NA,NA,0,NULL,NA,NA,NA,NA,NA,NA,NA,NA,NA,NA,NA,NA,NA,NA,NA,NA,NA,NA,NA
1ddd8,deep,flow.Sequence,1_4_0,NA,NA,completion,18499.9,167923.09999943,167921.9,167938.7,186438.6,186439.5,2024-04-15T08:07:35Z,186455.3,Kreativität,ubunifu,s,mratibu,mwendelezo,makubaliano,NA,NA,NA,NULL,NA,NA,NA,NA,NA,NA,NA,NA,NA,NA,NA,NA,NA,NA,NA,NA,NA,NA,NA
1ddd8,task,flow.Sequence,1_4,NA,NA,completion,18499.9,167923,167921.9,167938.7,186438.6,186439.69999981,2024-04-15T08:07:35Z,186455.3,Kreativität,ubunifu,s,mratibu,mwendelezo,makubaliano,NA,NA,NA,NULL,NA,NA,NA,NA,NA,NA,NA,NA,NA,NA,NA,NA,NA,NA,NA,NA,NA,NA,NA
1ddd8,Deep Question,html.Page,1_5_0_0,NA,NA,form submission,8169.2,186439.89999962,186438.6,186455.3,194624.5,194624.69999981,2024-04-15T08:07:43Z,194638.6,Können,unaweza,s,kiongozi,bustani,mienendo,s,NA,NA,NULL,NA,NA,NA,NA,NA,NA,NA,NA,NA,NA,NA,NA,NA,NA,NA,NA,NA,NA,NA
1ddd8,Save data screen,canvas.Screen,1_5_0_1,NA,NA,timeout,500.10000000001,194626.39999962,194622.01,194638.6,195121.9,195122.59999943,2024-04-15T08:07:43Z,195138.7,Können,unaweza,s,kiongozi,bustani,mienendo,NA,NA,0,NULL,NA,NA,NA,NA,NA,NA,NA,NA,NA,NA,NA,NA,NA,NA,NA,NA,NA,NA,NA
1ddd8,deep,flow.Sequence,1_5_0,NA,NA,completion,8666.6,186439.89999962,186438.6,186455.3,195121.9,195122.89999961999,2024-04-15T08:07:43Z,195138.7,Können,unaweza,s,kiongozi,bustani,mienendo,NA,NA,NA,NULL,NA,NA,NA,NA,NA,NA,NA,NA,NA,NA,NA,NA,NA,NA,NA,NA,NA,NA,NA
1ddd8,task,flow.Sequence,1_5,NA,NA,completion,8666.6,186439.79999924,186438.6,186455.3,195121.9,195123.09999943,2024-04-15T08:07:43Z,195138.7,Können,unaweza,s,kiongozi,bustani,mienendo,NA,NA,NA,NULL,NA,NA,NA,NA,NA,NA,NA,NA,NA,NA,NA,NA,NA,NA,NA,NA,NA,NA,NA
1ddd8,Deep Question,html.Page,1_6_0_0,NA,NA,form submission,17982.699999619,195123.19999981,195121.9,195138.7,213121.39999962,213121.79999924,2024-04-15T08:08:01Z,213138.9,Körper,kiwiliwili,d,mapambano,mpatanishi,kiolezo,s,NA,NA,NULL,NA,NA,NA,NA,NA,NA,NA,NA,NA,NA,NA,NA,NA,NA,NA,NA,NA,NA,NA
1ddd8,Save data screen,canvas.Screen,1_6_0_1,NA,NA,timeout,499.70000000001,213123.59999943,213122.004,213138.9,213621.8,213622.39999962,2024-04-15T08:08:02Z,213638.6,Körper,kiwiliwili,d,mapambano,mpatanishi,kiolezo,NA,NA,0,NULL,NA,NA,NA,NA,NA,NA,NA,NA,NA,NA,NA,NA,NA,NA,NA,NA,NA,NA,NA
1ddd8,deep,flow.Sequence,1_6_0,NA,NA,completion,18483.1,195123.19999981,195121.9,195138.7,213621.8,213622.69999981,2024-04-15T08:08:02Z,213638.6,Körper,kiwiliwili,d,mapambano,mpatanishi,kiolezo,NA,NA,NA,NULL,NA,NA,NA,NA,NA,NA,NA,NA,NA,NA,NA,NA,NA,NA,NA,NA,NA,NA,NA
1ddd8,task,flow.Sequence,1_6,NA,NA,completion,18483.1,195123.19999981,195121.9,195138.7,213621.8,213622.79999924,2024-04-15T08:08:02Z,213638.6,Körper,kiwiliwili,d,mapambano,mpatanishi,kiolezo,NA,NA,NA,NULL,NA,NA,NA,NA,NA,NA,NA,NA,NA,NA,NA,NA,NA,NA,NA,NA,NA,NA,NA
1ddd8,Deep Question,html.Page,1_7_0_0,NA,NA,form submission,71071.699999237,213623,213621.8,213638.6,284710.29999923997,284710.59999943,2024-04-15T08:09:13Z,284738.6,Kanzler,diwani,d,rasilmali,mahitaji,maabudu,kiwiliwili,NA,NA,NULL,NA,NA,NA,NA,NA,NA,NA,NA,NA,NA,NA,NA,NA,NA,NA,NA,NA,NA,NA
1ddd8,Save data screen,canvas.Screen,1_7_0_1,NA,NA,timeout,500,284712.19999981,284721.922,284738.6,285221.8,285222.39999962,2024-04-15T08:09:14Z,285238.6,Kanzler,diwani,d,rasilmali,mahitaji,maabudu,NA,NA,0,NULL,NA,NA,NA,NA,NA,NA,NA,NA,NA,NA,NA,NA,NA,NA,NA,NA,NA,NA,NA
1ddd8,deep,flow.Sequence,1_7_0,NA,NA,completion,71583.2,213623,213621.8,213638.6,285221.8,285222.69999981,2024-04-15T08:09:14Z,285238.6,Kanzler,diwani,d,rasilmali,mahitaji,maabudu,NA,NA,NA,NULL,NA,NA,NA,NA,NA,NA,NA,NA,NA,NA,NA,NA,NA,NA,NA,NA,NA,NA,NA
1ddd8,task,flow.Sequence,1_7,NA,NA,completion,71583.2,213622.89999962,213621.8,213638.6,285221.8,285222.79999923997,2024-04-15T08:09:14Z,285238.6,Kanzler,diwani,d,rasilmali,mahitaji,maabudu,NA,NA,NA,NULL,NA,NA,NA,NA,NA,NA,NA,NA,NA,NA,NA,NA,NA,NA,NA,NA,NA,NA,NA
1ddd8,Deep Question,html.Page,1_8_0_0,NA,NA,form submission,11202.799999619,285223,285221.8,285238.6,296441.39999962,296441.59999943,2024-04-15T08:09:25Z,296455.2,Kontrolle,kudhibiti,d,mbinguni,kufunga,utegemezi,s,NA,NA,NULL,NA,NA,NA,NA,NA,NA,NA,NA,NA,NA,NA,NA,NA,NA,NA,NA,NA,NA,NA
1ddd8,Save data screen,canvas.Screen,1_8_0_1,NA,NA,timeout,500.09999999998,296443.19999981,296438.618,296455.2,296938.5,296939.19999981,2024-04-15T08:09:25Z,296955.3,Kontrolle,kudhibiti,d,mbinguni,kufunga,utegemezi,NA,NA,0,NULL,NA,NA,NA,NA,NA,NA,NA,NA,NA,NA,NA,NA,NA,NA,NA,NA,NA,NA,NA
1ddd8,deep,flow.Sequence,1_8_0,NA,NA,completion,11699.9,285222.89999962,285221.8,285238.6,296938.5,296939.5,2024-04-15T08:09:25Z,296955.3,Kontrolle,kudhibiti,d,mbinguni,kufunga,utegemezi,NA,NA,NA,NULL,NA,NA,NA,NA,NA,NA,NA,NA,NA,NA,NA,NA,NA,NA,NA,NA,NA,NA,NA
1ddd8,task,flow.Sequence,1_8,NA,NA,completion,11699.9,285222.89999962,285221.8,285238.6,296938.5,296939.69999981,2024-04-15T08:09:25Z,296955.3,Kontrolle,kudhibiti,d,mbinguni,kufunga,utegemezi,NA,NA,NA,NULL,NA,NA,NA,NA,NA,NA,NA,NA,NA,NA,NA,NA,NA,NA,NA,NA,NA,NA,NA
1ddd8,Deep Question,html.Page,1_9_0_0,NA,NA,form submission,12481.999999237,296939.89999962,296938.5,296955.3,309437.29999924,309437.5,2024-04-15T08:09:38Z,309438.614,Lawine,banguko,s,maambukizi,usuluhishi,chekechea,s,NA,NA,NULL,NA,NA,NA,NA,NA,NA,NA,NA,NA,NA,NA,NA,NA,NA,NA,NA,NA,NA,NA
1ddd8,Save data screen,canvas.Screen,1_9_0_1,NA,NA,timeout,499.98599999998,309439.09999943,309438.614,309438.614,309921.9,309922.69999981,2024-04-15T08:09:38Z,309938.6,Lawine,banguko,s,maambukizi,usuluhishi,chekechea,NA,NA,0,NULL,NA,NA,NA,NA,NA,NA,NA,NA,NA,NA,NA,NA,NA,NA,NA,NA,NA,NA,NA
1ddd8,deep,flow.Sequence,1_9_0,NA,NA,completion,12966.6,296939.79999924,296938.5,296955.3,309921.9,309922.89999962,2024-04-15T08:09:38Z,309938.6,Lawine,banguko,s,maambukizi,usuluhishi,chekechea,NA,NA,NA,NULL,NA,NA,NA,NA,NA,NA,NA,NA,NA,NA,NA,NA,NA,NA,NA,NA,NA,NA,NA
1ddd8,task,flow.Sequence,1_9,NA,NA,completion,12966.6,296939.69999981,296938.5,296955.3,309921.9,309923.09999943,2024-04-15T08:09:38Z,309938.6,Lawine,banguko,s,maambukizi,usuluhishi,chekechea,NA,NA,NA,NULL,NA,NA,NA,NA,NA,NA,NA,NA,NA,NA,NA,NA,NA,NA,NA,NA,NA,NA,NA
1ddd8,Deep Question,html.Page,1_10_0_0,NA,NA,form submission,47150.9,309923.29999923997,309921.9,309938.6,357089.5,357089.69999981,2024-04-15T08:10:25Z,357105.1,Gefährdung,kuhatarisha,d,uchokozi,udhaifu,makorowezo,kitorisha,NA,NA,NULL,NA,NA,NA,NA,NA,NA,NA,NA,NA,NA,NA,NA,NA,NA,NA,NA,NA,NA,NA
1ddd8,Save data screen,canvas.Screen,1_10_0_1,NA,NA,timeout,500.10000000003,357091.39999962,357088.65,357105.1,357588.5,357589.29999923997,2024-04-15T08:10:26Z,357605.2,Gefährdung,kuhatarisha,d,uchokozi,udhaifu,makorowezo,NA,NA,0,NULL,NA,NA,NA,NA,NA,NA,NA,NA,NA,NA,NA,NA,NA,NA,NA,NA,NA,NA,NA
1ddd8,deep,flow.Sequence,1_10_0,NA,NA,completion,47649.9,309923.29999923997,309921.9,309938.6,357588.5,357589.5,2024-04-15T08:10:26Z,357605.2,Gefährdung,kuhatarisha,d,uchokozi,udhaifu,makorowezo,NA,NA,NA,NULL,NA,NA,NA,NA,NA,NA,NA,NA,NA,NA,NA,NA,NA,NA,NA,NA,NA,NA,NA
1ddd8,task,flow.Sequence,1_10,NA,NA,completion,47649.9,309923.09999943,309921.9,309938.6,357588.5,357589.69999981,2024-04-15T08:10:26Z,357605.2,Gefährdung,kuhatarisha,d,uchokozi,udhaifu,makorowezo,NA,NA,NA,NULL,NA,NA,NA,NA,NA,NA,NA,NA,NA,NA,NA,NA,NA,NA,NA,NA,NA,NA,NA
1ddd8,Deep Question,html.Page,1_11_0_0,NA,NA,form submission,3741.1999996185,357589.79999924,357588.5,357605.2,361346.39999962,361346.59999943,2024-04-15T08:10:30Z,361355.2,Prüfung,mtihani,s,mkulima,mtizamo,ufumbuzi,s,NA,NA,NULL,NA,NA,NA,NA,NA,NA,NA,NA,NA,NA,NA,NA,NA,NA,NA,NA,NA,NA,NA
1ddd8,Save data screen,canvas.Screen,1_11_0_1,NA,NA,timeout,500.09999999998,361348,361338.62,361355.2,361838.5,361839.19999981,2024-04-15T08:10:30Z,361855.3,Prüfung,mtihani,s,mkulima,mtizamo,ufumbuzi,NA,NA,0,NULL,NA,NA,NA,NA,NA,NA,NA,NA,NA,NA,NA,NA,NA,NA,NA,NA,NA,NA,NA
1ddd8,deep,flow.Sequence,1_11_0,NA,NA,completion,4233.3,357589.79999924,357588.5,357605.2,361838.5,361839.39999962,2024-04-15T08:10:30Z,361855.3,Prüfung,mtihani,s,mkulima,mtizamo,ufumbuzi,NA,NA,NA,NULL,NA,NA,NA,NA,NA,NA,NA,NA,NA,NA,NA,NA,NA,NA,NA,NA,NA,NA,NA
1ddd8,task,flow.Sequence,1_11,NA,NA,completion,4233.3,357589.79999924,357588.5,357605.2,361838.5,361839.5,2024-04-15T08:10:30Z,361855.3,Prüfung,mtihani,s,mkulima,mtizamo,ufumbuzi,NA,NA,NA,NULL,NA,NA,NA,NA,NA,NA,NA,NA,NA,NA,NA,NA,NA,NA,NA,NA,NA,NA,NA
1ddd8,Deep Question,html.Page,1_12_0_0,NA,NA,form submission,9236.7999994278,361839.69999981,361838.5,361855.3,371092.09999943,371092.19999981,2024-04-15T08:10:39Z,371105.1,Übersicht,kilindo,d,mgusano,chipukizi,kulinganisha,s,NA,NA,NULL,NA,NA,NA,NA,NA,NA,NA,NA,NA,NA,NA,NA,NA,NA,NA,NA,NA,NA,NA
1ddd8,Save data screen,canvas.Screen,1_12_0_1,NA,NA,timeout,500.10000000003,371093.79999924,371088.618,371105.1,371588.5,371589.29999924,2024-04-15T08:10:40Z,371605.2,Übersicht,kilindo,d,mgusano,chipukizi,kulinganisha,NA,NA,0,NULL,NA,NA,NA,NA,NA,NA,NA,NA,NA,NA,NA,NA,NA,NA,NA,NA,NA,NA,NA
1ddd8,deep,flow.Sequence,1_12_0,NA,NA,completion,9733.2,361839.59999943,361838.5,361855.3,371588.5,371589.59999943,2024-04-15T08:10:40Z,371605.2,Übersicht,kilindo,d,mgusano,chipukizi,kulinganisha,NA,NA,NA,NULL,NA,NA,NA,NA,NA,NA,NA,NA,NA,NA,NA,NA,NA,NA,NA,NA,NA,NA,NA
1ddd8,task,flow.Sequence,1_12,NA,NA,completion,9733.2,361839.59999943,361838.5,361855.3,371588.5,371589.59999943,2024-04-15T08:10:40Z,371605.2,Übersicht,kilindo,d,mgusano,chipukizi,kulinganisha,NA,NA,NA,NULL,NA,NA,NA,NA,NA,NA,NA,NA,NA,NA,NA,NA,NA,NA,NA,NA,NA,NA,NA
1ddd8,Deep Question,html.Page,1_13_0_0,NA,NA,form submission,6774.9999998093,371589.89999962,371588.5,371605.2,378380.19999981,378380.39999962,2024-04-15T08:10:47Z,378388.4,Verzögerung,kuchelewa,d,mwakilishi,mwanauchumi,jaribio,s,NA,NA,NULL,NA,NA,NA,NA,NA,NA,NA,NA,NA,NA,NA,NA,NA,NA,NA,NA,NA,NA,NA
1ddd8,Save data screen,canvas.Screen,1_13_0_1,NA,NA,timeout,500.09999999998,378382,378371.924,378388.4,378871.8,378872.39999962,2024-04-15T08:10:47Z,378888.5,Verzögerung,kuchelewa,d,mwakilishi,mwanauchumi,jaribio,NA,NA,0,NULL,NA,NA,NA,NA,NA,NA,NA,NA,NA,NA,NA,NA,NA,NA,NA,NA,NA,NA,NA
1ddd8,deep,flow.Sequence,1_13_0,NA,NA,completion,7266.6,371589.89999962,371588.5,371605.2,378871.8,378872.69999981,2024-04-15T08:10:47Z,378888.5,Verzögerung,kuchelewa,d,mwakilishi,mwanauchumi,jaribio,NA,NA,NA,NULL,NA,NA,NA,NA,NA,NA,NA,NA,NA,NA,NA,NA,NA,NA,NA,NA,NA,NA,NA
1ddd8,task,flow.Sequence,1_13,NA,NA,completion,7266.6,371589.69999981,371588.5,371605.2,378871.8,378872.89999962,2024-04-15T08:10:47Z,378888.5,Verzögerung,kuchelewa,d,mwakilishi,mwanauchumi,jaribio,NA,NA,NA,NULL,NA,NA,NA,NA,NA,NA,NA,NA,NA,NA,NA,NA,NA,NA,NA,NA,NA,NA,NA
1ddd8,Deep Question,html.Page,1_14_0_0,NA,NA,form submission,13897.699999809,378873,378871.8,378888.5,392786.19999981,392786.39999962,2024-04-15T08:11:01Z,392805.2,Aufstand,ugomaji,s,mazidio,msingi,kujieleza,usulumu,NA,NA,NULL,NA,NA,NA,NA,NA,NA,NA,NA,NA,NA,NA,NA,NA,NA,NA,NA,NA,NA,NA
1ddd8,Save data screen,canvas.Screen,1_14_0_1,NA,NA,timeout,500,392788.09999943,392788.588,392805.2,393288.5,393289.39999962,2024-04-15T08:11:02Z,393305.2,Aufstand,ugomaji,s,mazidio,msingi,kujieleza,NA,NA,0,NULL,NA,NA,NA,NA,NA,NA,NA,NA,NA,NA,NA,NA,NA,NA,NA,NA,NA,NA,NA
1ddd8,deep,flow.Sequence,1_14_0,NA,NA,completion,14400,378873,378871.8,378888.5,393288.5,393289.59999943,2024-04-15T08:11:02Z,393305.2,Aufstand,ugomaji,s,mazidio,msingi,kujieleza,NA,NA,NA,NULL,NA,NA,NA,NA,NA,NA,NA,NA,NA,NA,NA,NA,NA,NA,NA,NA,NA,NA,NA
1ddd8,task,flow.Sequence,1_14,NA,NA,completion,14400,378873,378871.8,378888.5,393288.5,393289.79999924,2024-04-15T08:11:02Z,393305.2,Aufstand,ugomaji,s,mazidio,msingi,kujieleza,NA,NA,NA,NULL,NA,NA,NA,NA,NA,NA,NA,NA,NA,NA,NA,NA,NA,NA,NA,NA,NA,NA,NA
1ddd8,Deep Question,html.Page,1_15_0_0,NA,NA,form submission,5860.9999998093,393289.89999962,393288.5,393305.2,399166.19999981,399166.39999962,2024-04-15T08:11:08Z,399188.5,System,maongozi,s,chokochoko,nuksani,mitaani,s,NA,NA,NULL,NA,NA,NA,NA,NA,NA,NA,NA,NA,NA,NA,NA,NA,NA,NA,NA,NA,NA,NA
1ddd8,Save data screen,canvas.Screen,1_15_0_1,NA,NA,timeout,500.09999999998,399167.89999962,399171.952,399188.5,399671.8,399672.59999943,2024-04-15T08:11:08Z,399688.6,System,maongozi,s,chokochoko,nuksani,mitaani,NA,NA,0,NULL,NA,NA,NA,NA,NA,NA,NA,NA,NA,NA,NA,NA,NA,NA,NA,NA,NA,NA,NA
1ddd8,deep,flow.Sequence,1_15_0,NA,NA,completion,6366.6,393289.89999962,393288.5,393305.2,399671.8,399672.79999923997,2024-04-15T08:11:08Z,399688.6,System,maongozi,s,chokochoko,nuksani,mitaani,NA,NA,NA,NULL,NA,NA,NA,NA,NA,NA,NA,NA,NA,NA,NA,NA,NA,NA,NA,NA,NA,NA,NA
1ddd8,task,flow.Sequence,1_15,NA,NA,completion,6366.6,393289.79999924,393288.5,393305.2,399671.8,399672.89999962,2024-04-15T08:11:08Z,399688.6,System,maongozi,s,chokochoko,nuksani,mitaani,NA,NA,NA,NULL,NA,NA,NA,NA,NA,NA,NA,NA,NA,NA,NA,NA,NA,NA,NA,NA,NA,NA,NA
1ddd8,retrieval block 1 (cued recall),flow.Loop,1,NA,NA,completion,366366.7,33293.399999619,33288.7,33305.1,399671.8,399673.29999924,2024-04-15T08:11:08Z,399688.6,NA,NA,NA,NA,NA,NA,NA,NA,NA,NULL,NA,NA,NA,NA,NA,NA,NA,NA,NA,NA,NA,NA,NA,NA,NA,NA,NA,NA,NA
1ddd8,Shallow Question,html.Page,2_0_0_0,NA,NA,form submission,26309.4,399673.5,399671.8,399688.6,425998,425998.19999981,2024-04-15T08:11:34Z,426005.1,Prüfung,mtihani,s,mkulima,mtizamo,ufumbuzi,mtihani,NA,NA,"c(""distractor1"", ""distractor2"", ""distractor3"")",NA,NA,NA,NA,NA,NA,NA,NA,NA,NA,NA,NA,NA,NA,NA,NA,NA,NA,NA
1ddd8,Save data screen,canvas.Screen,2_0_0_1,NA,NA,timeout,500.20000000001,425999.69999981,425988.666,426005.1,426488.5,426489.29999924,2024-04-15T08:11:35Z,426505.3,Prüfung,mtihani,s,mkulima,mtizamo,ufumbuzi,NA,NA,1,"c(""distractor1"", ""distractor2"", ""distractor3"")",NA,NA,NA,NA,NA,NA,NA,NA,NA,NA,NA,NA,NA,NA,NA,NA,NA,NA,NA
1ddd8,shallow,flow.Sequence,2_0_0,NA,NA,completion,26799.9,399673.39999962,399671.8,399688.6,426488.5,426489.5,2024-04-15T08:11:35Z,426505.3,Prüfung,mtihani,s,mkulima,mtizamo,ufumbuzi,NA,NA,NA,"c(""distractor1"", ""distractor2"", ""distractor3"")",NA,NA,NA,NA,NA,NA,NA,NA,NA,NA,NA,NA,NA,NA,NA,NA,NA,NA,NA
1ddd8,task,flow.Sequence,2_0,NA,NA,completion,26799.9,399673.39999962,399671.8,399688.6,426488.5,426489.69999981,2024-04-15T08:11:35Z,426505.3,Prüfung,mtihani,s,mkulima,mtizamo,ufumbuzi,NA,NA,NA,"c(""distractor1"", ""distractor2"", ""distractor3"")",NA,NA,NA,NA,NA,NA,NA,NA,NA,NA,NA,NA,NA,NA,NA,NA,NA,NA,NA
1ddd8,Shallow Question,html.Page,2_1_0_0,NA,NA,form submission,8547.7999994278,426489.79999923997,426488.5,426505.3,435053.09999943,435053.29999923997,2024-04-15T08:11:43Z,435055.224,Können,unaweza,s,kiongozi,bustani,mienendo,unaweza,NA,NA,"c(""distractor1"", ""distractor2"", ""distractor3"")",NA,NA,NA,NA,NA,NA,NA,NA,NA,NA,NA,NA,NA,NA,NA,NA,NA,NA,NA
1ddd8,Save data screen,canvas.Screen,2_1_0_1,NA,NA,timeout,499.87599999999,435054.89999962,435055.224,435055.224,435538.4,435539.29999924,2024-04-15T08:11:44Z,435555.1,Können,unaweza,s,kiongozi,bustani,mienendo,NA,NA,1,"c(""distractor1"", ""distractor2"", ""distractor3"")",NA,NA,NA,NA,NA,NA,NA,NA,NA,NA,NA,NA,NA,NA,NA,NA,NA,NA,NA
1ddd8,shallow,flow.Sequence,2_1_0,NA,NA,completion,9033.1,426489.79999923997,426488.5,426505.3,435538.4,435539.59999943,2024-04-15T08:11:44Z,435555.1,Können,unaweza,s,kiongozi,bustani,mienendo,NA,NA,NA,"c(""distractor1"", ""distractor2"", ""distractor3"")",NA,NA,NA,NA,NA,NA,NA,NA,NA,NA,NA,NA,NA,NA,NA,NA,NA,NA,NA
1ddd8,task,flow.Sequence,2_1,NA,NA,completion,9033.1,426489.79999923997,426488.5,426505.3,435538.4,435539.69999981,2024-04-15T08:11:44Z,435555.1,Können,unaweza,s,kiongozi,bustani,mienendo,NA,NA,NA,"c(""distractor1"", ""distractor2"", ""distractor3"")",NA,NA,NA,NA,NA,NA,NA,NA,NA,NA,NA,NA,NA,NA,NA,NA,NA,NA,NA
1ddd8,Shallow Question,html.Page,2_2_0_0,NA,NA,form submission,7431.9,435539.89999962,435538.4,435555.1,442987,442987.19999981,2024-04-15T08:11:51Z,442989.232,Kanzler,diwani,d,rasilmali,mahitaji,maabudu,diwani,NA,NA,"c(""distractor1"", ""distractor2"", ""distractor3"")",NA,NA,NA,NA,NA,NA,NA,NA,NA,NA,NA,NA,NA,NA,NA,NA,NA,NA,NA
1ddd8,Save data screen,canvas.Screen,2_2_0_1,NA,NA,timeout,499.26799999998,442988.89999962,442989.232,442989.232,443471.8,443472.59999943,2024-04-15T08:11:52Z,443488.5,Kanzler,diwani,d,rasilmali,mahitaji,maabudu,NA,NA,1,"c(""distractor1"", ""distractor2"", ""distractor3"")",NA,NA,NA,NA,NA,NA,NA,NA,NA,NA,NA,NA,NA,NA,NA,NA,NA,NA,NA
1ddd8,shallow,flow.Sequence,2_2_0,NA,NA,completion,7916.7,435539.79999923997,435538.4,435555.1,443471.8,443473,2024-04-15T08:11:52Z,443488.5,Kanzler,diwani,d,rasilmali,mahitaji,maabudu,NA,NA,NA,"c(""distractor1"", ""distractor2"", ""distractor3"")",NA,NA,NA,NA,NA,NA,NA,NA,NA,NA,NA,NA,NA,NA,NA,NA,NA,NA,NA
1ddd8,task,flow.Sequence,2_2,NA,NA,completion,7916.7,435539.79999923997,435538.4,435555.1,443471.8,443473.09999943,2024-04-15T08:11:52Z,443488.5,Kanzler,diwani,d,rasilmali,mahitaji,maabudu,NA,NA,NA,"c(""distractor1"", ""distractor2"", ""distractor3"")",NA,NA,NA,NA,NA,NA,NA,NA,NA,NA,NA,NA,NA,NA,NA,NA,NA,NA,NA
1ddd8,Shallow Question,html.Page,2_3_0_0,NA,NA,form submission,12009.899999619,443473.19999981,443471.8,443488.5,455498.39999962,455498.59999943,2024-04-15T08:12:04Z,455505,Aufstand,ugomaji,s,mazidio,msingi,kujieleza,ugomaji,NA,NA,"c(""distractor1"", ""distractor2"", ""distractor3"")",NA,NA,NA,NA,NA,NA,NA,NA,NA,NA,NA,NA,NA,NA,NA,NA,NA,NA,NA
1ddd8,Save data screen,canvas.Screen,2_3_0_1,NA,NA,timeout,500.09999999998,455499.89999962,455488.566,455505,455988.5,455989.29999923997,2024-04-15T08:12:04Z,456005.1,Aufstand,ugomaji,s,mazidio,msingi,kujieleza,NA,NA,1,"c(""distractor1"", ""distractor2"", ""distractor3"")",NA,NA,NA,NA,NA,NA,NA,NA,NA,NA,NA,NA,NA,NA,NA,NA,NA,NA,NA
1ddd8,shallow,flow.Sequence,2_3_0,NA,NA,completion,12500,443473.19999981,443471.8,443488.5,455988.5,455989.5,2024-04-15T08:12:04Z,456005.1,Aufstand,ugomaji,s,mazidio,msingi,kujieleza,NA,NA,NA,"c(""distractor1"", ""distractor2"", ""distractor3"")",NA,NA,NA,NA,NA,NA,NA,NA,NA,NA,NA,NA,NA,NA,NA,NA,NA,NA,NA
1ddd8,task,flow.Sequence,2_3,NA,NA,completion,12500,443473.19999981,443471.8,443488.5,455988.5,455989.69999981,2024-04-15T08:12:04Z,456005.1,Aufstand,ugomaji,s,mazidio,msingi,kujieleza,NA,NA,NA,"c(""distractor1"", ""distractor2"", ""distractor3"")",NA,NA,NA,NA,NA,NA,NA,NA,NA,NA,NA,NA,NA,NA,NA,NA,NA,NA,NA
1ddd8,Shallow Question,html.Page,2_4_0_0,NA,NA,form submission,7522.9,455989.79999924,455988.5,456005.1,463528,463528.19999981,2024-04-15T08:12:12Z,463538.6,Sänger,mwimbaji,s,msichana,shughuli,mshirika,mwimbaji,NA,NA,"c(""distractor1"", ""distractor2"", ""distractor3"")",NA,NA,NA,NA,NA,NA,NA,NA,NA,NA,NA,NA,NA,NA,NA,NA,NA,NA,NA
1ddd8,Save data screen,canvas.Screen,2_4_0_1,NA,NA,timeout,500,463529.69999981,463521.91,463538.6,464021.8,464022.5,2024-04-15T08:12:12Z,464038.6,Sänger,mwimbaji,s,msichana,shughuli,mshirika,NA,NA,1,"c(""distractor1"", ""distractor2"", ""distractor3"")",NA,NA,NA,NA,NA,NA,NA,NA,NA,NA,NA,NA,NA,NA,NA,NA,NA,NA,NA
1ddd8,shallow,flow.Sequence,2_4_0,NA,NA,completion,8016.7,455989.79999924,455988.5,456005.1,464021.8,464022.79999924,2024-04-15T08:12:12Z,464038.6,Sänger,mwimbaji,s,msichana,shughuli,mshirika,NA,NA,NA,"c(""distractor1"", ""distractor2"", ""distractor3"")",NA,NA,NA,NA,NA,NA,NA,NA,NA,NA,NA,NA,NA,NA,NA,NA,NA,NA,NA
1ddd8,task,flow.Sequence,2_4,NA,NA,completion,8016.7,455989.79999924,455988.5,456005.1,464021.8,464022.89999962,2024-04-15T08:12:12Z,464038.6,Sänger,mwimbaji,s,msichana,shughuli,mshirika,NA,NA,NA,"c(""distractor1"", ""distractor2"", ""distractor3"")",NA,NA,NA,NA,NA,NA,NA,NA,NA,NA,NA,NA,NA,NA,NA,NA,NA,NA,NA
1ddd8,Shallow Question,html.Page,2_5_0_0,NA,NA,form submission,14137.4,464023.09999943,464021.8,464038.6,478176,478176.19999981,2024-04-15T08:12:27Z,478205.2,Abrechnung,uhasibu,d,kusahihisha,mpambano,mashambulizi,uhasibu,NA,NA,"c(""distractor1"", ""distractor2"", ""distractor3"")",NA,NA,NA,NA,NA,NA,NA,NA,NA,NA,NA,NA,NA,NA,NA,NA,NA,NA,NA
1ddd8,Save data screen,canvas.Screen,2_5_0_1,NA,NA,timeout,499.89999999997,478177.79999924,478188.544,478205.2,478688.5,478689.29999923997,2024-04-15T08:12:27Z,478705.1,Abrechnung,uhasibu,d,kusahihisha,mpambano,mashambulizi,NA,NA,1,"c(""distractor1"", ""distractor2"", ""distractor3"")",NA,NA,NA,NA,NA,NA,NA,NA,NA,NA,NA,NA,NA,NA,NA,NA,NA,NA,NA
1ddd8,shallow,flow.Sequence,2_5_0,NA,NA,completion,14649.9,464023.09999943,464021.8,464038.6,478688.5,478689.59999943,2024-04-15T08:12:27Z,478705.1,Abrechnung,uhasibu,d,kusahihisha,mpambano,mashambulizi,NA,NA,NA,"c(""distractor1"", ""distractor2"", ""distractor3"")",NA,NA,NA,NA,NA,NA,NA,NA,NA,NA,NA,NA,NA,NA,NA,NA,NA,NA,NA
1ddd8,task,flow.Sequence,2_5,NA,NA,completion,14649.9,464023,464021.8,464038.6,478688.5,478689.69999981,2024-04-15T08:12:27Z,478705.1,Abrechnung,uhasibu,d,kusahihisha,mpambano,mashambulizi,NA,NA,NA,"c(""distractor1"", ""distractor2"", ""distractor3"")",NA,NA,NA,NA,NA,NA,NA,NA,NA,NA,NA,NA,NA,NA,NA,NA,NA,NA,NA
1ddd8,Shallow Question,html.Page,2_6_0_0,NA,NA,form submission,7667.9,478689.79999924,478688.5,478705.1,486373,486373.29999923997,2024-04-15T08:12:35Z,486388.5,System,maongozi,s,chokochoko,nuksani,mitaani,maongozi,NA,NA,"c(""distractor1"", ""distractor2"", ""distractor3"")",NA,NA,NA,NA,NA,NA,NA,NA,NA,NA,NA,NA,NA,NA,NA,NA,NA,NA,NA
1ddd8,Save data screen,canvas.Screen,2_6_0_1,NA,NA,timeout,500,486375,486371.868,486388.5,486871.7,486872.59999943,2024-04-15T08:12:35Z,486888.5,System,maongozi,s,chokochoko,nuksani,mitaani,NA,NA,1,"c(""distractor1"", ""distractor2"", ""distractor3"")",NA,NA,NA,NA,NA,NA,NA,NA,NA,NA,NA,NA,NA,NA,NA,NA,NA,NA,NA
1ddd8,shallow,flow.Sequence,2_6_0,NA,NA,completion,8166.6,478689.79999924,478688.5,478705.1,486871.7,486872.89999962,2024-04-15T08:12:35Z,486888.5,System,maongozi,s,chokochoko,nuksani,mitaani,NA,NA,NA,"c(""distractor1"", ""distractor2"", ""distractor3"")",NA,NA,NA,NA,NA,NA,NA,NA,NA,NA,NA,NA,NA,NA,NA,NA,NA,NA,NA
1ddd8,task,flow.Sequence,2_6,NA,NA,completion,8166.6,478689.79999924,478688.5,478705.1,486871.7,486873.09999943,2024-04-15T08:12:35Z,486888.5,System,maongozi,s,chokochoko,nuksani,mitaani,NA,NA,NA,"c(""distractor1"", ""distractor2"", ""distractor3"")",NA,NA,NA,NA,NA,NA,NA,NA,NA,NA,NA,NA,NA,NA,NA,NA,NA,NA,NA
1ddd8,Shallow Question,html.Page,2_7_0_0,NA,NA,form submission,13005.399999619,486873.19999981,486871.7,486888.5,499893.89999962,499894.09999943,2024-04-15T08:12:48Z,499921.8,Gefährdung,kuhatarisha,d,uchokozi,udhaifu,makorowezo,kuhatarisha,NA,NA,"c(""distractor1"", ""distractor2"", ""distractor3"")",NA,NA,NA,NA,NA,NA,NA,NA,NA,NA,NA,NA,NA,NA,NA,NA,NA,NA,NA
1ddd8,Save data screen,canvas.Screen,2_7_0_1,NA,NA,timeout,500,499895.79999923997,499905.222,499921.8,500405.1,500405.69999981,2024-04-15T08:12:49Z,500421.8,Gefährdung,kuhatarisha,d,uchokozi,udhaifu,makorowezo,NA,NA,1,"c(""distractor1"", ""distractor2"", ""distractor3"")",NA,NA,NA,NA,NA,NA,NA,NA,NA,NA,NA,NA,NA,NA,NA,NA,NA,NA,NA
1ddd8,shallow,flow.Sequence,2_7_0,NA,NA,completion,13516.6,486873.19999981,486871.7,486888.5,500405.1,500406,2024-04-15T08:12:49Z,500421.8,Gefährdung,kuhatarisha,d,uchokozi,udhaifu,makorowezo,NA,NA,NA,"c(""distractor1"", ""distractor2"", ""distractor3"")",NA,NA,NA,NA,NA,NA,NA,NA,NA,NA,NA,NA,NA,NA,NA,NA,NA,NA,NA
1ddd8,task,flow.Sequence,2_7,NA,NA,completion,13516.6,486873.09999943,486871.7,486888.5,500405.1,500406.19999981,2024-04-15T08:12:49Z,500421.8,Gefährdung,kuhatarisha,d,uchokozi,udhaifu,makorowezo,NA,NA,NA,"c(""distractor1"", ""distractor2"", ""distractor3"")",NA,NA,NA,NA,NA,NA,NA,NA,NA,NA,NA,NA,NA,NA,NA,NA,NA,NA,NA
1ddd8,Shallow Question,html.Page,2_8_0_0,NA,NA,form submission,5602.9999992371,500406.29999924,500405.1,500421.8,506024.79999924,506025.09999943,2024-04-15T08:12:54Z,506038.5,Körper,kiwiliwili,d,mapambano,mpatanishi,kiolezo,kiwiliwili,NA,NA,"c(""distractor1"", ""distractor2"", ""distractor3"")",NA,NA,NA,NA,NA,NA,NA,NA,NA,NA,NA,NA,NA,NA,NA,NA,NA,NA,NA
1ddd8,Save data screen,canvas.Screen,2_8_0_1,NA,NA,timeout,500,506026.5,506021.882,506038.5,506521.8,506522.5,2024-04-15T08:12:55Z,506538.5,Körper,kiwiliwili,d,mapambano,mpatanishi,kiolezo,NA,NA,1,"c(""distractor1"", ""distractor2"", ""distractor3"")",NA,NA,NA,NA,NA,NA,NA,NA,NA,NA,NA,NA,NA,NA,NA,NA,NA,NA,NA
1ddd8,shallow,flow.Sequence,2_8_0,NA,NA,completion,6100,500406.29999924,500405.1,500421.8,506521.8,506522.79999924,2024-04-15T08:12:55Z,506538.5,Körper,kiwiliwili,d,mapambano,mpatanishi,kiolezo,NA,NA,NA,"c(""distractor1"", ""distractor2"", ""distractor3"")",NA,NA,NA,NA,NA,NA,NA,NA,NA,NA,NA,NA,NA,NA,NA,NA,NA,NA,NA
1ddd8,task,flow.Sequence,2_8,NA,NA,completion,6100,500406.29999924,500405.1,500421.8,506521.8,506522.89999962,2024-04-15T08:12:55Z,506538.5,Körper,kiwiliwili,d,mapambano,mpatanishi,kiolezo,NA,NA,NA,"c(""distractor1"", ""distractor2"", ""distractor3"")",NA,NA,NA,NA,NA,NA,NA,NA,NA,NA,NA,NA,NA,NA,NA,NA,NA,NA,NA
1ddd8,Shallow Question,html.Page,2_9_0_0,NA,NA,form submission,6496.7999992371,506523.09999943,506521.8,506538.5,513035.29999923997,513035.5,2024-04-15T08:13:01Z,513038.528,Übersicht,kilindo,d,mgusano,chipukizi,kulinganisha,kilindo,NA,NA,"c(""distractor1"", ""distractor2"", ""distractor3"")",NA,NA,NA,NA,NA,NA,NA,NA,NA,NA,NA,NA,NA,NA,NA,NA,NA,NA,NA
1ddd8,Save data screen,canvas.Screen,2_9_0_1,NA,NA,timeout,499.97200000001,513037,513038.528,513038.528,513521.8,513522.59999943,2024-04-15T08:13:02Z,513538.5,Übersicht,kilindo,d,mgusano,chipukizi,kulinganisha,NA,NA,1,"c(""distractor1"", ""distractor2"", ""distractor3"")",NA,NA,NA,NA,NA,NA,NA,NA,NA,NA,NA,NA,NA,NA,NA,NA,NA,NA,NA
1ddd8,shallow,flow.Sequence,2_9_0,NA,NA,completion,6983.3,506523.09999943,506521.8,506538.5,513521.8,513522.89999962,2024-04-15T08:13:02Z,513538.5,Übersicht,kilindo,d,mgusano,chipukizi,kulinganisha,NA,NA,NA,"c(""distractor1"", ""distractor2"", ""distractor3"")",NA,NA,NA,NA,NA,NA,NA,NA,NA,NA,NA,NA,NA,NA,NA,NA,NA,NA,NA
1ddd8,task,flow.Sequence,2_9,NA,NA,completion,6983.3,506523,506521.8,506538.5,513521.8,513523,2024-04-15T08:13:02Z,513538.5,Übersicht,kilindo,d,mgusano,chipukizi,kulinganisha,NA,NA,NA,"c(""distractor1"", ""distractor2"", ""distractor3"")",NA,NA,NA,NA,NA,NA,NA,NA,NA,NA,NA,NA,NA,NA,NA,NA,NA,NA,NA
1ddd8,Shallow Question,html.Page,2_10_0_0,NA,NA,form submission,13004.5,513523.29999923997,513521.8,513538.5,526543,526543.19999981,2024-04-15T08:13:15Z,526555.2,Kontrolle,kudhibiti,d,mbinguni,kufunga,utegemezi,kudhibiti,NA,NA,"c(""distractor1"", ""distractor2"", ""distractor3"")",NA,NA,NA,NA,NA,NA,NA,NA,NA,NA,NA,NA,NA,NA,NA,NA,NA,NA,NA
1ddd8,Save data screen,canvas.Screen,2_10_0_1,NA,NA,timeout,499.90000000002,526544.79999924,526538.552,526555.2,527038.5,527039.39999962,2024-04-15T08:13:15Z,527055.1,Kontrolle,kudhibiti,d,mbinguni,kufunga,utegemezi,NA,NA,1,"c(""distractor1"", ""distractor2"", ""distractor3"")",NA,NA,NA,NA,NA,NA,NA,NA,NA,NA,NA,NA,NA,NA,NA,NA,NA,NA,NA
1ddd8,shallow,flow.Sequence,2_10_0,NA,NA,completion,13500,513523.19999981,513521.8,513538.5,527038.5,527039.59999943,2024-04-15T08:13:15Z,527055.1,Kontrolle,kudhibiti,d,mbinguni,kufunga,utegemezi,NA,NA,NA,"c(""distractor1"", ""distractor2"", ""distractor3"")",NA,NA,NA,NA,NA,NA,NA,NA,NA,NA,NA,NA,NA,NA,NA,NA,NA,NA,NA
1ddd8,task,flow.Sequence,2_10,NA,NA,completion,13500,513523.09999943,513521.8,513538.5,527038.5,527039.69999981,2024-04-15T08:13:15Z,527055.1,Kontrolle,kudhibiti,d,mbinguni,kufunga,utegemezi,NA,NA,NA,"c(""distractor1"", ""distractor2"", ""distractor3"")",NA,NA,NA,NA,NA,NA,NA,NA,NA,NA,NA,NA,NA,NA,NA,NA,NA,NA,NA
1ddd8,Shallow Question,html.Page,2_11_0_0,NA,NA,form submission,4674.7999996186,527039.79999924,527038.5,527055.1,531729.89999962,531730.09999943,2024-04-15T08:13:20Z,531738.5,Verzögerung,kuchelewa,d,mwakilishi,mwanauchumi,jaribio,kuchelewa,NA,NA,"c(""distractor1"", ""distractor2"", ""distractor3"")",NA,NA,NA,NA,NA,NA,NA,NA,NA,NA,NA,NA,NA,NA,NA,NA,NA,NA,NA
1ddd8,Save data screen,canvas.Screen,2_11_0_1,NA,NA,timeout,500.09999999998,531731.5,531721.908,531738.5,532221.8,532222.5,2024-04-15T08:13:21Z,532238.6,Verzögerung,kuchelewa,d,mwakilishi,mwanauchumi,jaribio,NA,NA,1,"c(""distractor1"", ""distractor2"", ""distractor3"")",NA,NA,NA,NA,NA,NA,NA,NA,NA,NA,NA,NA,NA,NA,NA,NA,NA,NA,NA
1ddd8,shallow,flow.Sequence,2_11_0,NA,NA,completion,5166.7000000001,527039.79999924,527038.5,527055.1,532221.8,532222.79999924,2024-04-15T08:13:21Z,532238.6,Verzögerung,kuchelewa,d,mwakilishi,mwanauchumi,jaribio,NA,NA,NA,"c(""distractor1"", ""distractor2"", ""distractor3"")",NA,NA,NA,NA,NA,NA,NA,NA,NA,NA,NA,NA,NA,NA,NA,NA,NA,NA,NA
1ddd8,task,flow.Sequence,2_11,NA,NA,completion,5166.7000000001,527039.79999924,527038.5,527055.1,532221.8,532222.89999962,2024-04-15T08:13:21Z,532238.6,Verzögerung,kuchelewa,d,mwakilishi,mwanauchumi,jaribio,NA,NA,NA,"c(""distractor1"", ""distractor2"", ""distractor3"")",NA,NA,NA,NA,NA,NA,NA,NA,NA,NA,NA,NA,NA,NA,NA,NA,NA,NA,NA
1ddd8,Shallow Question,html.Page,2_12_0_0,NA,NA,form submission,30315.199999237,532223.09999943,532221.8,532238.6,562553.79999924,562554,2024-04-15T08:13:51Z,562555.192,Angreifer,mshambulizi,s,kitengo,tasinia,usafirishaji,mshambulizi,NA,NA,"c(""distractor1"", ""distractor2"", ""distractor3"")",NA,NA,NA,NA,NA,NA,NA,NA,NA,NA,NA,NA,NA,NA,NA,NA,NA,NA,NA
1ddd8,Save data screen,canvas.Screen,2_12_0_1,NA,NA,timeout,500.00799999991,562555.69999981,562555.192,562555.192,563038.4,563039.19999981,2024-04-15T08:13:51Z,563055.2,Angreifer,mshambulizi,s,kitengo,tasinia,usafirishaji,NA,NA,1,"c(""distractor1"", ""distractor2"", ""distractor3"")",NA,NA,NA,NA,NA,NA,NA,NA,NA,NA,NA,NA,NA,NA,NA,NA,NA,NA,NA
1ddd8,shallow,flow.Sequence,2_12_0,NA,NA,completion,30799.8,532223.09999943,532221.8,532238.6,563038.4,563039.5,2024-04-15T08:13:51Z,563055.2,Angreifer,mshambulizi,s,kitengo,tasinia,usafirishaji,NA,NA,NA,"c(""distractor1"", ""distractor2"", ""distractor3"")",NA,NA,NA,NA,NA,NA,NA,NA,NA,NA,NA,NA,NA,NA,NA,NA,NA,NA,NA
1ddd8,task,flow.Sequence,2_12,NA,NA,completion,30799.8,532223,532221.8,532238.6,563038.4,563039.59999943,2024-04-15T08:13:51Z,563055.2,Angreifer,mshambulizi,s,kitengo,tasinia,usafirishaji,NA,NA,NA,"c(""distractor1"", ""distractor2"", ""distractor3"")",NA,NA,NA,NA,NA,NA,NA,NA,NA,NA,NA,NA,NA,NA,NA,NA,NA,NA,NA
1ddd8,Shallow Question,html.Page,2_13_0_0,NA,NA,form submission,20790.8,563039.79999924,563038.4,563055.2,583846,583846.39999962,2024-04-15T08:14:12Z,583871.7,Kreativität,ubunifu,s,mratibu,mwendelezo,makubaliano,ubunifu,NA,NA,"c(""distractor1"", ""distractor2"", ""distractor3"")",NA,NA,NA,NA,NA,NA,NA,NA,NA,NA,NA,NA,NA,NA,NA,NA,NA,NA,NA
1ddd8,Save data screen,canvas.Screen,2_13_0_1,NA,NA,timeout,500.10000000009,583848.19999981,583855.2,583871.7,584355.1,584356,2024-04-15T08:14:13Z,584371.8,Kreativität,ubunifu,s,mratibu,mwendelezo,makubaliano,NA,NA,1,"c(""distractor1"", ""distractor2"", ""distractor3"")",NA,NA,NA,NA,NA,NA,NA,NA,NA,NA,NA,NA,NA,NA,NA,NA,NA,NA,NA
1ddd8,shallow,flow.Sequence,2_13_0,NA,NA,completion,21299.9,563039.79999924,563038.4,563055.2,584355.1,584356.19999981,2024-04-15T08:14:13Z,584371.8,Kreativität,ubunifu,s,mratibu,mwendelezo,makubaliano,NA,NA,NA,"c(""distractor1"", ""distractor2"", ""distractor3"")",NA,NA,NA,NA,NA,NA,NA,NA,NA,NA,NA,NA,NA,NA,NA,NA,NA,NA,NA
1ddd8,task,flow.Sequence,2_13,NA,NA,completion,21299.9,563039.69999981,563038.4,563055.2,584355.1,584356.39999962,2024-04-15T08:14:13Z,584371.8,Kreativität,ubunifu,s,mratibu,mwendelezo,makubaliano,NA,NA,NA,"c(""distractor1"", ""distractor2"", ""distractor3"")",NA,NA,NA,NA,NA,NA,NA,NA,NA,NA,NA,NA,NA,NA,NA,NA,NA,NA,NA
1ddd8,Shallow Question,html.Page,2_14_0_0,NA,NA,form submission,4329.999999237,584356.5,584355.1,584371.8,588701.79999924,588702,2024-04-15T08:14:17Z,588721.7,Lawine,banguko,s,maambukizi,usuluhishi,chekechea,banguko,NA,NA,"c(""distractor1"", ""distractor2"", ""distractor3"")",NA,NA,NA,NA,NA,NA,NA,NA,NA,NA,NA,NA,NA,NA,NA,NA,NA,NA,NA
1ddd8,Save data screen,canvas.Screen,2_14_0_1,NA,NA,timeout,500.10000000009,588703.39999962,588705,588721.7,589205.1,589205.79999924,2024-04-15T08:14:18Z,589221.8,Lawine,banguko,s,maambukizi,usuluhishi,chekechea,NA,NA,1,"c(""distractor1"", ""distractor2"", ""distractor3"")",NA,NA,NA,NA,NA,NA,NA,NA,NA,NA,NA,NA,NA,NA,NA,NA,NA,NA,NA
1ddd8,shallow,flow.Sequence,2_14_0,NA,NA,completion,4833.2999999999,584356.5,584355.1,584371.8,589205.1,589206,2024-04-15T08:14:18Z,589221.8,Lawine,banguko,s,maambukizi,usuluhishi,chekechea,NA,NA,NA,"c(""distractor1"", ""distractor2"", ""distractor3"")",NA,NA,NA,NA,NA,NA,NA,NA,NA,NA,NA,NA,NA,NA,NA,NA,NA,NA,NA
1ddd8,task,flow.Sequence,2_14,NA,NA,completion,4833.2999999999,584356.39999962,584355.1,584371.8,589205.1,589206.09999943,2024-04-15T08:14:18Z,589221.8,Lawine,banguko,s,maambukizi,usuluhishi,chekechea,NA,NA,NA,"c(""distractor1"", ""distractor2"", ""distractor3"")",NA,NA,NA,NA,NA,NA,NA,NA,NA,NA,NA,NA,NA,NA,NA,NA,NA,NA,NA
1ddd8,Shallow Question,html.Page,2_15_0_0,NA,NA,form submission,8961.999999237,589206.29999924,589205.1,589221.8,598183.79999924,598184,2024-04-15T08:14:27Z,598188.3,Kultur,utamaduni,d,shetani,gerezani,mazingira,utamaduni,NA,NA,"c(""distractor1"", ""distractor2"", ""distractor3"")",NA,NA,NA,NA,NA,NA,NA,NA,NA,NA,NA,NA,NA,NA,NA,NA,NA,NA,NA
1ddd8,Save data screen,canvas.Screen,2_15_0_1,NA,NA,timeout,500.19999999995,598185.5,598171.872,598188.3,598671.7,598672.29999924,2024-04-15T08:14:27Z,598688.5,Kultur,utamaduni,d,shetani,gerezani,mazingira,NA,NA,1,"c(""distractor1"", ""distractor2"", ""distractor3"")",NA,NA,NA,NA,NA,NA,NA,NA,NA,NA,NA,NA,NA,NA,NA,NA,NA,NA,NA
1ddd8,shallow,flow.Sequence,2_15_0,NA,NA,completion,9449.8999999999,589206.29999924,589205.1,589221.8,598671.7,598672.59999943,2024-04-15T08:14:27Z,598688.5,Kultur,utamaduni,d,shetani,gerezani,mazingira,NA,NA,NA,"c(""distractor1"", ""distractor2"", ""distractor3"")",NA,NA,NA,NA,NA,NA,NA,NA,NA,NA,NA,NA,NA,NA,NA,NA,NA,NA,NA
1ddd8,task,flow.Sequence,2_15,NA,NA,completion,9449.8999999999,589206.29999924,589205.1,589221.8,598671.7,598672.69999981,2024-04-15T08:14:27Z,598688.5,Kultur,utamaduni,d,shetani,gerezani,mazingira,NA,NA,NA,"c(""distractor1"", ""distractor2"", ""distractor3"")",NA,NA,NA,NA,NA,NA,NA,NA,NA,NA,NA,NA,NA,NA,NA,NA,NA,NA,NA
1ddd8,retrieval block 2 (multiple choice),flow.Loop,2,NA,NA,completion,198983.1,399673.29999924,399671.8,399688.6,598671.7,598672.89999962,2024-04-15T08:14:27Z,598688.5,NA,NA,NA,NA,NA,NA,NA,NA,NA,"c(""distractor1"", ""distractor2"", ""distractor3"")",NA,NA,NA,NA,NA,NA,NA,NA,NA,NA,NA,NA,NA,NA,NA,NA,NA,NA,NA
1ddd8,End,canvas.Screen,3,NA,keypress(Space),response,2512.5,598672.89999962,598671.7,598688.5,601201,601202.09999943,2024-04-15T08:14:30Z,601205.2,NA,NA,NA,NA,NA,NA,NA,NA,NA,NULL,NA,NA,NA,NA,NA,NA,NA,NA,NA,NA,NA,NA,NA,NA,NA,NA,NA,NA,NA
1ddd8,root,flow.Sequence,NA,NA,NA,completion,600745.8,448,271.9,455.2,601201,601202.79999924,2024-04-15T08:14:30Z,601205.2,NA,NA,NA,NA,NA,NA,NA,NA,NA,NULL,NA,NA,NA,NA,NA,NA,NA,NA,NA,NA,NA,NA,NA,NA,NA,NA,NA,NA,NA
