observation;sender;sender_type;sender_id;response;response_action;ended_on;duration;time_run;time_render;time_show;time_end;time_commit;timestamp;time_switch;distractors;german;swahili;enc;distractor1;distractor2;distractor3;response_2;x;correct;x_2;url_vp;url_sess;meta_labjs_version;meta_location;meta_user_agent;meta_platform;meta_language;meta_locale;meta_time_zone;meta_timezone_offset;meta_screen_width;meta_screen_height;meta_scroll_width;meta_scroll_height;meta_window_inner_width;meta_window_inner_height;meta_device_pixel_ratio;meta_labjs_build_flavor;meta_labjs_build_commit;;;;
40289;Introduction;general;canvas.Screen;0;weiter;keypress(q);response;815664.54;401;402.12;417.46;816082;816109;2023-05-28T18:46:11Z;816115.6;NULL;NA;NA;NA;NA;NA;NA;NA;NA;NA;NA;170;3;20.02.2004;https://neurocog.fernuni.ch/studies/vweber/sliechti/encoding_immediate/index.html?vp=170&sess=3;Mozilla/5.0;(Windows;NT;10;;;;;;;;;;;;;;
40289;Introduction;practice;canvas.Screen;1_0;NA;keypress(Space);response;2950.4;816111;816110.9;816115.6;819066;819069;2023-05-28T18:46:14Z;819081.86;NULL;NA;NA;NA;NA;NA;NA;NA;NA;NA;NA;NA;NA;NA;NA;NA;NA;NA;NA;NA;NA;NA;NA;NA;NA;NA;NA;NA;NA;NA;;;
40289;deep;flow.Sequence;1_1_0_0;NA;NA;skipped;NA;819070;NA;NA;819066;819071;2023-05-28T18:46:14Z;819081.86;"c(""distractor1"", ""distractor2"", ""distractor3"")";Rückhalt;msaada;s;muhula;auwali;kiwimbe;NA;NA;NA;NA;NA;NA;NA;NA;NA;NA;NA;NA;NA;NA;NA;NA;NA;NA;NA;NA;NA;NA;NA;;;;
40289;Shallow;Question;html.Page;1_1_0_1_0;NA;NA;form;submission;4162.14;819072;819071.76;819081.86;823244;823244;2023-05-28T18:46:19Z;823248;"c(""distractor1"", ""distractor2"", ""distractor3"")";Rückhalt;msaada;s;muhula;auwali;kiwimbe;auwali;NA;NA;NA;NA;NA;NA;NA;NA;NA;NA;NA;NA;NA;NA;NA;NA;NA;NA;NA;NA;NA;NA;;
40289;"""Richtig""-Screen";canvas.Screen;1_1_0_1_1;NA;NA;skipped;NA;823250;NA;NA;823244;823250;2023-05-28T18:46:19Z;823248;"c(""distractor1"", ""distractor2"", ""distractor3"")";Rückhalt;msaada;s;muhula;auwali;kiwimbe;NA;NA;NA;NA;NA;NA;NA;NA;NA;NA;NA;NA;NA;NA;NA;NA;NA;NA;NA;NA;NA;NA;NA;;;;
40289;"""Falsch""-Screen";canvas.Screen;1_1_0_1_2;NA;NA;timeout;4999.38;823253;823241.34;823248;828230.74;828233;2023-05-28T18:46:23Z;828247.38;"c(""distractor1"", ""distractor2"", ""distractor3"")";Rückhalt;msaada;s;muhula;auwali;kiwimbe;NA;NA;0;NA;NA;NA;NA;NA;NA;NA;NA;NA;NA;NA;NA;NA;NA;NA;NA;NA;NA;NA;NA;;;;
40289;shallow;flow.Sequence;1_1_0_1;NA;NA;completion;9148.88;819071;819071.76;819081.86;828230.74;828234;2023-05-28T18:46:23Z;828247.38;"c(""distractor1"", ""distractor2"", ""distractor3"")";Rückhalt;msaada;s;muhula;auwali;kiwimbe;NA;NA;NA;NA;NA;NA;NA;NA;NA;NA;NA;NA;NA;NA;NA;NA;NA;NA;NA;NA;NA;NA;NA;;;;
40289;task;flow.Sequence;1_1_0;NA;NA;completion;9148.88;819070;819071.76;819081.86;828230.74;828235;2023-05-28T18:46:23Z;828247.38;"c(""distractor1"", ""distractor2"", ""distractor3"")";Rückhalt;msaada;s;muhula;auwali;kiwimbe;NA;NA;NA;NA;NA;NA;NA;NA;NA;NA;NA;NA;NA;NA;NA;NA;NA;NA;NA;NA;NA;NA;NA;;;;
40289;Deep;Question;html.Page;1_1_1_0_0;NA;NA;form;submission;4049.62;828236;828230.74;828247.38;832297;832297;2023-05-28T18:46:28Z;832313.5;"c(""distractor1"", ""distractor2"", ""distractor3"")";Schatten;kivuli;d;NA;NA;NA;slak;NA;NA;NA;NA;NA;NA;NA;NA;NA;NA;NA;NA;NA;NA;NA;NA;NA;NA;NA;NA;NA;NA;;
40289;"""Richtig""-Screen";canvas.Screen;1_1_1_0_1;NA;NA;skipped;NA;832301;NA;NA;832297;832301;2023-05-28T18:46:28Z;832313.5;"c(""distractor1"", ""distractor2"", ""distractor3"")";Schatten;kivuli;d;NA;NA;NA;NA;NA;NA;NA;NA;NA;NA;NA;NA;NA;NA;NA;NA;NA;NA;NA;NA;NA;NA;NA;NA;NA;NA;;;;
40289;"""Falsch""-Screen";canvas.Screen;1_1_1_0_2;NA;NA;timeout;4999.44;832305;832296.9;832313.5;837296.56;837299;2023-05-28T18:46:33Z;837312.94;"c(""distractor1"", ""distractor2"", ""distractor3"")";Schatten;kivuli;d;NA;NA;NA;NA;NA;0;NA;NA;NA;NA;NA;NA;NA;NA;NA;NA;NA;NA;NA;NA;NA;NA;NA;NA;NA;NA;;;;
40289;deep;flow.Sequence;1_1_1_0;NA;NA;completion;9049.18;828235;828230.74;828247.38;837296.56;837300;2023-05-28T18:46:33Z;837312.94;"c(""distractor1"", ""distractor2"", ""distractor3"")";Schatten;kivuli;d;NA;NA;NA;NA;NA;NA;NA;NA;NA;NA;NA;NA;NA;NA;NA;NA;NA;NA;NA;NA;NA;NA;NA;NA;NA;NA;;;;
40289;shallow;flow.Sequence;1_1_1_1;NA;NA;skipped;NA;837300;NA;NA;837296.56;837300;2023-05-28T18:46:33Z;837312.94;"c(""distractor1"", ""distractor2"", ""distractor3"")";Schatten;kivuli;d;NA;NA;NA;NA;NA;NA;NA;NA;NA;NA;NA;NA;NA;NA;NA;NA;NA;NA;NA;NA;NA;NA;NA;NA;NA;NA;;;;
40289;task;flow.Sequence;1_1_1;NA;NA;completion;9049.18;828235;828230.74;828247.38;837296.56;837301;2023-05-28T18:46:33Z;837312.94;"c(""distractor1"", ""distractor2"", ""distractor3"")";Schatten;kivuli;d;NA;NA;NA;NA;NA;NA;NA;NA;NA;NA;NA;NA;NA;NA;NA;NA;NA;NA;NA;NA;NA;NA;NA;NA;NA;NA;;;;
40289;deep;flow.Sequence;1_1_2_0;NA;NA;skipped;NA;837301;NA;NA;837296.56;837302;2023-05-28T18:46:33Z;837312.94;"c(""distractor1"", ""distractor2"", ""distractor3"")";Gegenwart;hadhara;s;katiba;jokofu;mikopo;NA;NA;NA;NA;NA;NA;NA;NA;NA;NA;NA;NA;NA;NA;NA;NA;NA;NA;NA;NA;NA;NA;NA;;;;
40289;Shallow;Question;html.Page;1_1_2_1_0;NA;NA;form;submission;6679.06;837303;837296.56;837312.94;843992;843993;2023-05-28T18:46:39Z;843995.42;"c(""distractor1"", ""distractor2"", ""distractor3"")";Gegenwart;hadhara;s;katiba;jokofu;mikopo;katiba;NA;NA;NA;NA;NA;NA;NA;NA;NA;NA;NA;NA;NA;NA;NA;NA;NA;NA;NA;NA;NA;NA;;
40289;"""Richtig""-Screen";canvas.Screen;1_1_2_1_1;NA;NA;skipped;NA;843996;NA;NA;843992;843997;2023-05-28T18:46:39Z;843995.42;"c(""distractor1"", ""distractor2"", ""distractor3"")";Gegenwart;hadhara;s;katiba;jokofu;mikopo;NA;NA;NA;NA;NA;NA;NA;NA;NA;NA;NA;NA;NA;NA;NA;NA;NA;NA;NA;NA;NA;NA;NA;;;;
40289;"""Falsch""-Screen";canvas.Screen;1_1_2_1_2;NA;NA;timeout;4999.34;844000;843990.92;843995.42;848978.06;848979;2023-05-28T18:46:44Z;848994.76;"c(""distractor1"", ""distractor2"", ""distractor3"")";Gegenwart;hadhara;s;katiba;jokofu;mikopo;NA;NA;0;NA;NA;NA;NA;NA;NA;NA;NA;NA;NA;NA;NA;NA;NA;NA;NA;NA;NA;NA;NA;;;;
40289;shallow;flow.Sequence;1_1_2_1;NA;NA;completion;11665.12;837303;837296.56;837312.94;848978.06;848980;2023-05-28T18:46:44Z;848994.76;"c(""distractor1"", ""distractor2"", ""distractor3"")";Gegenwart;hadhara;s;katiba;jokofu;mikopo;NA;NA;NA;NA;NA;NA;NA;NA;NA;NA;NA;NA;NA;NA;NA;NA;NA;NA;NA;NA;NA;NA;NA;;;;
40289;task;flow.Sequence;1_1_2;NA;NA;completion;11665.12;837301;837296.56;837312.94;848978.06;848981;2023-05-28T18:46:44Z;848994.76;"c(""distractor1"", ""distractor2"", ""distractor3"")";Gegenwart;hadhara;s;katiba;jokofu;mikopo;NA;NA;NA;NA;NA;NA;NA;NA;NA;NA;NA;NA;NA;NA;NA;NA;NA;NA;NA;NA;NA;NA;NA;;;;
40289;Deep;Question;html.Page;1_1_3_0_0;NA;NA;form;submission;5806.24;848982;848978.06;848994.76;854801;854801;2023-05-28T18:46:50Z;854810.64;"c(""distractor1"", ""distractor2"", ""distractor3"")";Qualität;mtindo;d;NA;NA;NA;sdflkj;NA;NA;NA;NA;NA;NA;NA;NA;NA;NA;NA;NA;NA;NA;NA;NA;NA;NA;NA;NA;NA;NA;;
40289;"""Richtig""-Screen";canvas.Screen;1_1_3_0_1;NA;NA;skipped;NA;854805;NA;NA;854801;854805;2023-05-28T18:46:50Z;854810.64;"c(""distractor1"", ""distractor2"", ""distractor3"")";Qualität;mtindo;d;NA;NA;NA;NA;NA;NA;NA;NA;NA;NA;NA;NA;NA;NA;NA;NA;NA;NA;NA;NA;NA;NA;NA;NA;NA;NA;;;;
40289;"""Falsch""-Screen";canvas.Screen;1_1_3_0_2;NA;NA;timeout;4999.38;854809;854799.54;854810.64;859793.52;859795;2023-05-28T18:46:55Z;859810.02;"c(""distractor1"", ""distractor2"", ""distractor3"")";Qualität;mtindo;d;NA;NA;NA;NA;NA;0;NA;NA;NA;NA;NA;NA;NA;NA;NA;NA;NA;NA;NA;NA;NA;NA;NA;NA;NA;NA;;;;
40289;deep;flow.Sequence;1_1_3_0;NA;NA;completion;10798.76;848982;848978.06;848994.76;859793.52;859796;2023-05-28T18:46:55Z;859810.02;"c(""distractor1"", ""distractor2"", ""distractor3"")";Qualität;mtindo;d;NA;NA;NA;NA;NA;NA;NA;NA;NA;NA;NA;NA;NA;NA;NA;NA;NA;NA;NA;NA;NA;NA;NA;NA;NA;NA;;;;
40289;shallow;flow.Sequence;1_1_3_1;NA;NA;skipped;NA;859796;NA;NA;859793.52;859796;2023-05-28T18:46:55Z;859810.02;"c(""distractor1"", ""distractor2"", ""distractor3"")";Qualität;mtindo;d;NA;NA;NA;NA;NA;NA;NA;NA;NA;NA;NA;NA;NA;NA;NA;NA;NA;NA;NA;NA;NA;NA;NA;NA;NA;NA;;;;
40289;task;flow.Sequence;1_1_3;NA;NA;completion;10798.76;848981;848978.06;848994.76;859793.52;859797;2023-05-28T18:46:55Z;859810.02;"c(""distractor1"", ""distractor2"", ""distractor3"")";Qualität;mtindo;d;NA;NA;NA;NA;NA;NA;NA;NA;NA;NA;NA;NA;NA;NA;NA;NA;NA;NA;NA;NA;NA;NA;NA;NA;NA;NA;;;;
40289;deep;flow.Sequence;1_1_4_0;NA;NA;skipped;NA;859798;NA;NA;859793.52;859798;2023-05-28T18:46:55Z;859810.02;"c(""distractor1"", ""distractor2"", ""distractor3"")";Kritik;lawama;s;dereva;nafasi;mawazo;NA;NA;NA;NA;NA;NA;NA;NA;NA;NA;NA;NA;NA;NA;NA;NA;NA;NA;NA;NA;NA;NA;NA;;;;
40289;Shallow;Question;html.Page;1_1_4_1_0;NA;NA;form;submission;3966.98;859798;859793.52;859810.02;863777;863778;2023-05-28T18:46:59Z;863776.2;"c(""distractor1"", ""distractor2"", ""distractor3"")";Kritik;lawama;s;dereva;nafasi;mawazo;mawazo;NA;NA;NA;NA;NA;NA;NA;NA;NA;NA;NA;NA;NA;NA;NA;NA;NA;NA;NA;NA;NA;NA;;
40289;"""Richtig""-Screen";canvas.Screen;1_1_4_1_1;NA;NA;skipped;NA;863781;NA;NA;863777;863781;2023-05-28T18:46:59Z;863776.2;"c(""distractor1"", ""distractor2"", ""distractor3"")";Kritik;lawama;s;dereva;nafasi;mawazo;NA;NA;NA;NA;NA;NA;NA;NA;NA;NA;NA;NA;NA;NA;NA;NA;NA;NA;NA;NA;NA;NA;NA;;;;
40289;"""Falsch""-Screen";canvas.Screen;1_1_4_1_2;NA;NA;timeout;4998;863783;863775.88;863776.2;868758.96;868760;2023-05-28T18:47:04Z;868774.2;"c(""distractor1"", ""distractor2"", ""distractor3"")";Kritik;lawama;s;dereva;nafasi;mawazo;NA;NA;0;NA;NA;NA;NA;NA;NA;NA;NA;NA;NA;NA;NA;NA;NA;NA;NA;NA;NA;NA;NA;;;;
40289;shallow;flow.Sequence;1_1_4_1;NA;NA;completion;8948.94;859798;859793.52;859810.02;868758.96;868760;2023-05-28T18:47:04Z;868774.2;"c(""distractor1"", ""distractor2"", ""distractor3"")";Kritik;lawama;s;dereva;nafasi;mawazo;NA;NA;NA;NA;NA;NA;NA;NA;NA;NA;NA;NA;NA;NA;NA;NA;NA;NA;NA;NA;NA;NA;NA;;;;
40289;task;flow.Sequence;1_1_4;NA;NA;completion;8948.94;859797;859793.52;859810.02;868758.96;868761;2023-05-28T18:47:04Z;868774.2;"c(""distractor1"", ""distractor2"", ""distractor3"")";Kritik;lawama;s;dereva;nafasi;mawazo;NA;NA;NA;NA;NA;NA;NA;NA;NA;NA;NA;NA;NA;NA;NA;NA;NA;NA;NA;NA;NA;NA;NA;;;;
40289;Deep;Question;html.Page;1_1_5_0_0;NA;NA;form;submission;3004.8;868761;868758.96;868774.2;871779;871779;2023-05-28T18:47:07Z;871776.76;"c(""distractor1"", ""distractor2"", ""distractor3"")";Gesundheit;salama;d;NA;NA;NA;sdfklj;NA;NA;NA;NA;NA;NA;NA;NA;NA;NA;NA;NA;NA;NA;NA;NA;NA;NA;NA;NA;NA;NA;;
40289;"""Richtig""-Screen";canvas.Screen;1_1_5_0_1;NA;NA;skipped;NA;871782;NA;NA;871779;871782;2023-05-28T18:47:07Z;871776.76;"c(""distractor1"", ""distractor2"", ""distractor3"")";Gesundheit;salama;d;NA;NA;NA;NA;NA;NA;NA;NA;NA;NA;NA;NA;NA;NA;NA;NA;NA;NA;NA;NA;NA;NA;NA;NA;NA;NA;;;;
40289;"""Falsch""-Screen";canvas.Screen;1_1_5_0_2;NA;NA;timeout;4997.76;871785;871776.38;871776.76;876757.98;876759;2023-05-28T18:47:12Z;876774.52;"c(""distractor1"", ""distractor2"", ""distractor3"")";Gesundheit;salama;d;NA;NA;NA;NA;NA;0;NA;NA;NA;NA;NA;NA;NA;NA;NA;NA;NA;NA;NA;NA;NA;NA;NA;NA;NA;NA;;;;
40289;deep;flow.Sequence;1_1_5_0;NA;NA;completion;7983.78;868761;868758.96;868774.2;876757.98;876760;2023-05-28T18:47:12Z;876774.52;"c(""distractor1"", ""distractor2"", ""distractor3"")";Gesundheit;salama;d;NA;NA;NA;NA;NA;NA;NA;NA;NA;NA;NA;NA;NA;NA;NA;NA;NA;NA;NA;NA;NA;NA;NA;NA;NA;NA;;;;
40289;shallow;flow.Sequence;1_1_5_1;NA;NA;skipped;NA;876761;NA;NA;876757.98;876761;2023-05-28T18:47:12Z;876774.52;"c(""distractor1"", ""distractor2"", ""distractor3"")";Gesundheit;salama;d;NA;NA;NA;NA;NA;NA;NA;NA;NA;NA;NA;NA;NA;NA;NA;NA;NA;NA;NA;NA;NA;NA;NA;NA;NA;NA;;;;
40289;task;flow.Sequence;1_1_5;NA;NA;completion;7983.78;868761;868758.96;868774.2;876757.98;876762;2023-05-28T18:47:12Z;876774.52;"c(""distractor1"", ""distractor2"", ""distractor3"")";Gesundheit;salama;d;NA;NA;NA;NA;NA;NA;NA;NA;NA;NA;NA;NA;NA;NA;NA;NA;NA;NA;NA;NA;NA;NA;NA;NA;NA;NA;;;;
40289;block;flow.Loop;1_1;NA;NA;completion;57676.12;819070;819071.76;819081.86;876757.98;876763;2023-05-28T18:47:12Z;876774.52;"c(""distractor1"", ""distractor2"", ""distractor3"")";NA;NA;NA;NA;NA;NA;NA;NA;NA;NA;NA;NA;NA;NA;NA;NA;NA;NA;NA;NA;NA;NA;NA;NA;NA;NA;NA;NA;NA;;;;
40289;Practice;flow.Sequence;1;NA;NA;completion;60642.38;816111;816110.9;816115.6;876757.98;876764;2023-05-28T18:47:12Z;876774.52;NULL;NA;NA;NA;NA;NA;NA;NA;NA;NA;NA;NA;NA;NA;NA;NA;NA;NA;NA;NA;NA;NA;NA;NA;NA;NA;NA;NA;NA;NA;;;;
40289;Experiment;start;canvas.Screen;2;weiter;keypress(q);response;2885.48;876764;876757.98;876774.52;879660;879670;2023-05-28T18:47:15Z;879760.86;NULL;NA;NA;NA;NA;NA;NA;NA;NA;NA;NA;NA;NA;NA;NA;NA;NA;NA;NA;NA;NA;NA;NA;NA;NA;NA;NA;NA;NA;NA;;;
40289;deep;flow.Sequence;3_0_0_0_0_0;NA;NA;skipped;NA;879760;NA;NA;879660;879760;2023-05-28T18:47:15Z;879760.86;NULL;Verstand;ufahamivu;s;shakawa;hadhari;mhandisi;NA;sdf;NA;0;NA;NA;NA;NA;NA;NA;NA;NA;NA;NA;NA;NA;NA;NA;NA;NA;NA;NA;NA;;;;
40289;Shallow;Question;html.Page;3_0_0_0_0_1_0;NA;NA;form;submission;4232.14;879761;879760.56;879760.86;883993;883993;2023-05-28T18:47:19Z;883992.5;NULL;Verstand;ufahamivu;s;shakawa;hadhari;mhandisi;mhandisi;NA;NA;0;NA;NA;NA;NA;NA;NA;NA;NA;NA;NA;NA;NA;NA;NA;NA;NA;NA;NA;NA;;
40289;"""Richtig""-Screen";canvas.Screen;3_0_0_0_0_1_1;NA;NA;skipped;NA;883997;NA;NA;883993;883997;2023-05-28T18:47:19Z;883992.5;NULL;Verstand;ufahamivu;s;shakawa;hadhari;mhandisi;NA;sdf;NA;0;NA;NA;NA;NA;NA;NA;NA;NA;NA;NA;NA;NA;NA;NA;NA;NA;NA;NA;NA;;;;
40289;"""Falsch""-Screen";canvas.Screen;3_0_0_0_0_1_2;NA;NA;timeout;4997.28;884000;883992.2;883992.5;888973.36;888975;2023-05-28T18:47:24Z;888989.78;NULL;Verstand;ufahamivu;s;shakawa;hadhari;mhandisi;NA;sdf;0;0;NA;NA;NA;NA;NA;NA;NA;NA;NA;NA;NA;NA;NA;NA;NA;NA;NA;NA;NA;;;;
40289;shallow;flow.Sequence;3_0_0_0_0_1;NA;NA;completion;9212.5;879761;879760.56;879760.86;888973.36;888975;2023-05-28T18:47:24Z;888989.78;NULL;Verstand;ufahamivu;s;shakawa;hadhari;mhandisi;NA;sdf;NA;0;NA;NA;NA;NA;NA;NA;NA;NA;NA;NA;NA;NA;NA;NA;NA;NA;NA;NA;NA;;;;
40289;task;flow.Sequence;3_0_0_0_0;NA;NA;completion;9212.5;879760;879760.56;879760.86;888973.36;888976;2023-05-28T18:47:24Z;888989.78;NULL;Verstand;ufahamivu;s;shakawa;hadhari;mhandisi;NA;sdf;NA;0;NA;NA;NA;NA;NA;NA;NA;NA;NA;NA;NA;NA;NA;NA;NA;NA;NA;NA;NA;;;;
40289;deep;flow.Sequence;3_0_0_0_1_0;NA;NA;skipped;NA;888977;NA;NA;888973.36;888978;2023-05-28T18:47:24Z;888989.78;NULL;Wohlstand;mafanikio;s;chimbuko;kumbuko;mapwaji;NA;sdf;NA;0;NA;NA;NA;NA;NA;NA;NA;NA;NA;NA;NA;NA;NA;NA;NA;NA;NA;NA;NA;;;;
40289;Shallow;Question;html.Page;3_0_0_0_1_1_0;NA;NA;form;submission;5016.22;888978;888973.36;888989.78;894006;894006;2023-05-28T18:47:29Z;894005.76;NULL;Wohlstand;mafanikio;s;chimbuko;kumbuko;mapwaji;chimbuko;NA;NA;0;NA;NA;NA;NA;NA;NA;NA;NA;NA;NA;NA;NA;NA;NA;NA;NA;NA;NA;NA;;
40289;"""Richtig""-Screen";canvas.Screen;3_0_0_0_1_1_1;NA;NA;skipped;NA;894008;NA;NA;894006;894008;2023-05-28T18:47:29Z;894005.76;NULL;Wohlstand;mafanikio;s;chimbuko;kumbuko;mapwaji;NA;sdf;NA;0;NA;NA;NA;NA;NA;NA;NA;NA;NA;NA;NA;NA;NA;NA;NA;NA;NA;NA;NA;;;;
40289;"""Falsch""-Screen";canvas.Screen;3_0_0_0_1_1_2;NA;NA;timeout;4999.26;894011;894004.02;894005.76;898988.46;898990;2023-05-28T18:47:34Z;899005.02;NULL;Wohlstand;mafanikio;s;chimbuko;kumbuko;mapwaji;NA;sdf;0;0;NA;NA;NA;NA;NA;NA;NA;NA;NA;NA;NA;NA;NA;NA;NA;NA;NA;NA;NA;;;;
40289;shallow;flow.Sequence;3_0_0_0_1_1;NA;NA;completion;9998.68;888978;888973.36;888989.78;898988.46;898991;2023-05-28T18:47:34Z;899005.02;NULL;Wohlstand;mafanikio;s;chimbuko;kumbuko;mapwaji;NA;sdf;NA;0;NA;NA;NA;NA;NA;NA;NA;NA;NA;NA;NA;NA;NA;NA;NA;NA;NA;NA;NA;;;;
40289;task;flow.Sequence;3_0_0_0_1;NA;NA;completion;9998.68;888976;888973.36;888989.78;898988.46;898992;2023-05-28T18:47:34Z;899005.02;NULL;Wohlstand;mafanikio;s;chimbuko;kumbuko;mapwaji;NA;sdf;NA;0;NA;NA;NA;NA;NA;NA;NA;NA;NA;NA;NA;NA;NA;NA;NA;NA;NA;NA;NA;;;;
40289;Deep;Question;html.Page;3_0_0_0_2_0_0;NA;NA;form;submission;4522.98;898992;898988.46;899005.02;903528;903529;2023-05-28T18:47:39Z;903554.8;NULL;Notfall;dharura;d;NA;NA;NA;sdflkj;NA;NA;0;NA;NA;NA;NA;NA;NA;NA;NA;NA;NA;NA;NA;NA;NA;NA;NA;NA;NA;NA;;
40289;"""Richtig""-Screen";canvas.Screen;3_0_0_0_2_0_1;NA;NA;skipped;NA;903531;NA;NA;903528;903532;2023-05-28T18:47:39Z;903554.8;NULL;Notfall;dharura;d;NA;NA;NA;NA;sdf;NA;0;NA;NA;NA;NA;NA;NA;NA;NA;NA;NA;NA;NA;NA;NA;NA;NA;NA;NA;NA;;;;
40289;"""Falsch""-Screen";canvas.Screen;3_0_0_0_2_0_2;NA;NA;timeout;4999.16;903534;903537.86;903554.8;908537.28;908538;2023-05-28T18:47:44Z;908553.96;NULL;Notfall;dharura;d;NA;NA;NA;NA;sdf;0;0;NA;NA;NA;NA;NA;NA;NA;NA;NA;NA;NA;NA;NA;NA;NA;NA;NA;NA;NA;;;;
40289;deep;flow.Sequence;3_0_0_0_2_0;NA;NA;completion;9532.26;898992;898988.46;899005.02;908537.28;908539;2023-05-28T18:47:44Z;908553.96;NULL;Notfall;dharura;d;NA;NA;NA;NA;sdf;NA;0;NA;NA;NA;NA;NA;NA;NA;NA;NA;NA;NA;NA;NA;NA;NA;NA;NA;NA;NA;;;;
40289;shallow;flow.Sequence;3_0_0_0_2_1;NA;NA;skipped;NA;908539;NA;NA;908537.28;908539;2023-05-28T18:47:44Z;908553.96;NULL;Notfall;dharura;d;NA;NA;NA;NA;sdf;NA;0;NA;NA;NA;NA;NA;NA;NA;NA;NA;NA;NA;NA;NA;NA;NA;NA;NA;NA;NA;;;;
40289;task;flow.Sequence;3_0_0_0_2;NA;NA;completion;9532.26;898992;898988.46;899005.02;908537.28;908540;2023-05-28T18:47:44Z;908553.96;NULL;Notfall;dharura;d;NA;NA;NA;NA;sdf;NA;0;NA;NA;NA;NA;NA;NA;NA;NA;NA;NA;NA;NA;NA;NA;NA;NA;NA;NA;NA;;;;
40289;Deep;Question;html.Page;3_0_0_0_3_0_0;NA;NA;form;submission;2972.04;908540;908537.28;908553.96;911526;911526;2023-05-28T18:47:47Z;911525.32;NULL;Ausschluss;kutengwa;d;NA;NA;NA;qelkrj;NA;NA;0;NA;NA;NA;NA;NA;NA;NA;NA;NA;NA;NA;NA;NA;NA;NA;NA;NA;NA;NA;;
40289;"""Richtig""-Screen";canvas.Screen;3_0_0_0_3_0_1;NA;NA;skipped;NA;911529;NA;NA;911526;911529;2023-05-28T18:47:47Z;911525.32;NULL;Ausschluss;kutengwa;d;NA;NA;NA;NA;sdf;NA;0;NA;NA;NA;NA;NA;NA;NA;NA;NA;NA;NA;NA;NA;NA;NA;NA;NA;NA;NA;;;;
40289;"""Falsch""-Screen";canvas.Screen;3_0_0_0_3_0_2;NA;NA;timeout;4994.28;911532;911524.94;911525.32;916502.86;916504;2023-05-28T18:47:52Z;916519.6;NULL;Ausschluss;kutengwa;d;NA;NA;NA;NA;sdf;0;0;NA;NA;NA;NA;NA;NA;NA;NA;NA;NA;NA;NA;NA;NA;NA;NA;NA;NA;NA;;;;
40289;deep;flow.Sequence;3_0_0_0_3_0;NA;NA;completion;7948.9;908540;908537.28;908553.96;916502.86;916504;2023-05-28T18:47:52Z;916519.6;NULL;Ausschluss;kutengwa;d;NA;NA;NA;NA;sdf;NA;0;NA;NA;NA;NA;NA;NA;NA;NA;NA;NA;NA;NA;NA;NA;NA;NA;NA;NA;NA;;;;
40289;shallow;flow.Sequence;3_0_0_0_3_1;NA;NA;skipped;NA;916504;NA;NA;916502.86;916504;2023-05-28T18:47:52Z;916519.6;NULL;Ausschluss;kutengwa;d;NA;NA;NA;NA;sdf;NA;0;NA;NA;NA;NA;NA;NA;NA;NA;NA;NA;NA;NA;NA;NA;NA;NA;NA;NA;NA;;;;
40289;task;flow.Sequence;3_0_0_0_3;NA;NA;completion;7948.9;908540;908537.28;908553.96;916502.86;916505;2023-05-28T18:47:52Z;916519.6;NULL;Ausschluss;kutengwa;d;NA;NA;NA;NA;sdf;NA;0;NA;NA;NA;NA;NA;NA;NA;NA;NA;NA;NA;NA;NA;NA;NA;NA;NA;NA;NA;;;;
40289;Deep;Question;html.Page;3_0_0_0_4_0_0;NA;NA;form;submission;6069.4;916505;916502.86;916519.6;922589;922589;2023-05-28T18:47:58Z;922602.06;NULL;Vergnügen;kichekesho;d;NA;NA;NA;adflk;NA;NA;0;NA;NA;NA;NA;NA;NA;NA;NA;NA;NA;NA;NA;NA;NA;NA;NA;NA;NA;NA;;
40289;"""Richtig""-Screen";canvas.Screen;3_0_0_0_4_0_1;NA;NA;skipped;NA;922591;NA;NA;922589;922592;2023-05-28T18:47:58Z;922602.06;NULL;Vergnügen;kichekesho;d;NA;NA;NA;NA;sdf;NA;0;NA;NA;NA;NA;NA;NA;NA;NA;NA;NA;NA;NA;NA;NA;NA;NA;NA;NA;NA;;;;
40289;"""Falsch""-Screen";canvas.Screen;3_0_0_0_4_0_2;NA;NA;timeout;4999.4;922595;922587.54;922602.06;927585.2;927587;2023-05-28T18:48:03Z;927601.46;NULL;Vergnügen;kichekesho;d;NA;NA;NA;NA;sdf;0;0;NA;NA;NA;NA;NA;NA;NA;NA;NA;NA;NA;NA;NA;NA;NA;NA;NA;NA;NA;;;;
40289;deep;flow.Sequence;3_0_0_0_4_0;NA;NA;completion;11065.6;916505;916502.86;916519.6;927585.2;927587;2023-05-28T18:48:03Z;927601.46;NULL;Vergnügen;kichekesho;d;NA;NA;NA;NA;sdf;NA;0;NA;NA;NA;NA;NA;NA;NA;NA;NA;NA;NA;NA;NA;NA;NA;NA;NA;NA;NA;;;;
40289;shallow;flow.Sequence;3_0_0_0_4_1;NA;NA;skipped;NA;927588;NA;NA;927585.2;927588;2023-05-28T18:48:03Z;927601.46;NULL;Vergnügen;kichekesho;d;NA;NA;NA;NA;sdf;NA;0;NA;NA;NA;NA;NA;NA;NA;NA;NA;NA;NA;NA;NA;NA;NA;NA;NA;NA;NA;;;;
40289;task;flow.Sequence;3_0_0_0_4;NA;NA;completion;11065.6;916505;916502.86;916519.6;927585.2;927588;2023-05-28T18:48:03Z;927601.46;NULL;Vergnügen;kichekesho;d;NA;NA;NA;NA;sdf;NA;0;NA;NA;NA;NA;NA;NA;NA;NA;NA;NA;NA;NA;NA;NA;NA;NA;NA;NA;NA;;;;
40289;deep;flow.Sequence;3_0_0_0_5_0;NA;NA;skipped;NA;927588;NA;NA;927585.2;927589;2023-05-28T18:48:03Z;927601.46;NULL;Widerstand;usulubu;s;kusababisha;mwalimu;mwenendo;NA;sdf;NA;0;NA;NA;NA;NA;NA;NA;NA;NA;NA;NA;NA;NA;NA;NA;NA;NA;NA;NA;NA;;;;
40289;Shallow;Question;html.Page;3_0_0_0_5_1_0;NA;NA;form;submission;8985.54;927589;927585.2;927601.46;936587;936587;2023-05-28T18:48:12Z;936586.02;NULL;Widerstand;usulubu;s;kusababisha;mwalimu;mwenendo;mwalimu;NA;NA;0;NA;NA;NA;NA;NA;NA;NA;NA;NA;NA;NA;NA;NA;NA;NA;NA;NA;NA;NA;;
40289;"""Richtig""-Screen";canvas.Screen;3_0_0_0_5_1_1;NA;NA;skipped;NA;936589;NA;NA;936587;936590;2023-05-28T18:48:12Z;936586.02;NULL;Widerstand;usulubu;s;kusababisha;mwalimu;mwenendo;NA;sdf;NA;0;NA;NA;NA;NA;NA;NA;NA;NA;NA;NA;NA;NA;NA;NA;NA;NA;NA;NA;NA;;;;
40289;"""Falsch""-Screen";canvas.Screen;3_0_0_0_5_1_2;NA;NA;timeout;4997;936593;936585.58;936586.02;941566.46;941569;2023-05-28T18:48:17Z;941583.02;NULL;Widerstand;usulubu;s;kusababisha;mwalimu;mwenendo;NA;sdf;0;0;NA;NA;NA;NA;NA;NA;NA;NA;NA;NA;NA;NA;NA;NA;NA;NA;NA;NA;NA;;;;
40289;shallow;flow.Sequence;3_0_0_0_5_1;NA;NA;completion;13965;927589;927585.2;927601.46;941566.46;941571;2023-05-28T18:48:17Z;941583.02;NULL;Widerstand;usulubu;s;kusababisha;mwalimu;mwenendo;NA;sdf;NA;0;NA;NA;NA;NA;NA;NA;NA;NA;NA;NA;NA;NA;NA;NA;NA;NA;NA;NA;NA;;;;
40289;task;flow.Sequence;3_0_0_0_5;NA;NA;completion;13965;927588;927585.2;927601.46;941566.46;941572;2023-05-28T18:48:17Z;941583.02;NULL;Widerstand;usulubu;s;kusababisha;mwalimu;mwenendo;NA;sdf;NA;0;NA;NA;NA;NA;NA;NA;NA;NA;NA;NA;NA;NA;NA;NA;NA;NA;NA;NA;NA;;;;
40289;deep;flow.Sequence;3_0_0_0_6_0;NA;NA;skipped;NA;941573;NA;NA;941566.46;941573;2023-05-28T18:48:17Z;941583.02;NULL;Ergänzung;kijalizo;s;ulaghai;mustarehe;matangazo;NA;sdf;NA;0;NA;NA;NA;NA;NA;NA;NA;NA;NA;NA;NA;NA;NA;NA;NA;NA;NA;NA;NA;;;;
40289;Shallow;Question;html.Page;3_0_0_0_6_1_0;NA;NA;form;submission;4223.98;941575;941566.46;941583.02;945807;945807;2023-05-28T18:48:21Z;945815.82;NULL;Ergänzung;kijalizo;s;ulaghai;mustarehe;matangazo;kijalizo;NA;NA;0;NA;NA;NA;NA;NA;NA;NA;NA;NA;NA;NA;NA;NA;NA;NA;NA;NA;NA;NA;;
40289;"""Richtig""-Screen";canvas.Screen;3_0_0_0_6_1_1;NA;NA;timeout;4999.44;945814;945804.14;945815.82;950798.56;950800;2023-05-28T18:48:26Z;950815.26;NULL;Ergänzung;kijalizo;s;ulaghai;mustarehe;matangazo;NA;sdf;1;0;NA;NA;NA;NA;NA;NA;NA;NA;NA;NA;NA;NA;NA;NA;NA;NA;NA;NA;NA;;;;
40289;"""Falsch""-Screen";canvas.Screen;3_0_0_0_6_1_2;NA;NA;skipped;NA;950808;NA;NA;950798.56;950808;2023-05-28T18:48:26Z;950815.26;NULL;Ergänzung;kijalizo;s;ulaghai;mustarehe;matangazo;NA;sdf;NA;0;NA;NA;NA;NA;NA;NA;NA;NA;NA;NA;NA;NA;NA;NA;NA;NA;NA;NA;NA;;;;
40289;shallow;flow.Sequence;3_0_0_0_6_1;NA;NA;completion;9215.54;941574;941566.46;941583.02;950798.56;950809;2023-05-28T18:48:26Z;950815.26;NULL;Ergänzung;kijalizo;s;ulaghai;mustarehe;matangazo;NA;sdf;NA;0;NA;NA;NA;NA;NA;NA;NA;NA;NA;NA;NA;NA;NA;NA;NA;NA;NA;NA;NA;;;;
40289;task;flow.Sequence;3_0_0_0_6;NA;NA;completion;9215.54;941573;941566.46;941583.02;950798.56;950809;2023-05-28T18:48:26Z;950815.26;NULL;Ergänzung;kijalizo;s;ulaghai;mustarehe;matangazo;NA;sdf;NA;0;NA;NA;NA;NA;NA;NA;NA;NA;NA;NA;NA;NA;NA;NA;NA;NA;NA;NA;NA;;;;
40289;Deep;Question;html.Page;3_0_0_0_7_0_0;NA;NA;form;submission;3116.74;950810;950798.56;950815.26;953932;953932;2023-05-28T18:48:29Z;953931.48;NULL;Gelegenheit;wakati;d;NA;NA;NA;aksjdf;NA;NA;0;NA;NA;NA;NA;NA;NA;NA;NA;NA;NA;NA;NA;NA;NA;NA;NA;NA;NA;NA;;
40289;"""Richtig""-Screen";canvas.Screen;3_0_0_0_7_0_1;NA;NA;skipped;NA;953936;NA;NA;953932;953936;2023-05-28T18:48:29Z;953931.48;NULL;Gelegenheit;wakati;d;NA;NA;NA;NA;sdf;NA;0;NA;NA;NA;NA;NA;NA;NA;NA;NA;NA;NA;NA;NA;NA;NA;NA;NA;NA;NA;;;;
40289;"""Falsch""-Screen";canvas.Screen;3_0_0_0_7_0_2;NA;NA;timeout;4999.54;953940;953929.64;953931.48;958914.24;958916;2023-05-28T18:48:34Z;958931.02;NULL;Gelegenheit;wakati;d;NA;NA;NA;NA;sdf;0;0;NA;NA;NA;NA;NA;NA;NA;NA;NA;NA;NA;NA;NA;NA;NA;NA;NA;NA;NA;;;;
40289;deep;flow.Sequence;3_0_0_0_7_0;NA;NA;completion;8098.98;950810;950798.56;950815.26;958914.24;958917;2023-05-28T18:48:34Z;958931.02;NULL;Gelegenheit;wakati;d;NA;NA;NA;NA;sdf;NA;0;NA;NA;NA;NA;NA;NA;NA;NA;NA;NA;NA;NA;NA;NA;NA;NA;NA;NA;NA;;;;
40289;shallow;flow.Sequence;3_0_0_0_7_1;NA;NA;skipped;NA;958917;NA;NA;958914.24;958917;2023-05-28T18:48:34Z;958931.02;NULL;Gelegenheit;wakati;d;NA;NA;NA;NA;sdf;NA;0;NA;NA;NA;NA;NA;NA;NA;NA;NA;NA;NA;NA;NA;NA;NA;NA;NA;NA;NA;;;;
40289;task;flow.Sequence;3_0_0_0_7;NA;NA;completion;8098.98;950810;950798.56;950815.26;958914.24;958917;2023-05-28T18:48:34Z;958931.02;NULL;Gelegenheit;wakati;d;NA;NA;NA;NA;sdf;NA;0;NA;NA;NA;NA;NA;NA;NA;NA;NA;NA;NA;NA;NA;NA;NA;NA;NA;NA;NA;;;;
40289;block;flow.Loop;3_0_0_0;NA;NA;completion;79153.38;879760;879760.56;879760.86;958914.24;958918;2023-05-28T18:48:34Z;958931.02;NULL;NA;NA;NA;NA;NA;NA;NA;sdf;NA;0;NA;NA;NA;NA;NA;NA;NA;NA;NA;NA;NA;NA;NA;NA;NA;NA;NA;NA;NA;;;;
40289;weiter;canvas.Screen;3_0_0_1;sdf;keypress(Space);response;2055.98;958918;958914.24;958931.02;960987;961002;2023-05-28T18:48:36Z;961067.28;NULL;NA;NA;NA;NA;NA;NA;NA;sdf;NA;0;NA;NA;NA;NA;NA;NA;NA;NA;NA;NA;NA;NA;NA;NA;NA;NA;NA;NA;NA;;;;
40289;check;continue;flow.Sequence;3_0_0;NA;NA;completion;81226.14;879760;879760.56;879760.86;960987;961003;2023-05-28T18:48:36Z;961067.28;NULL;NA;NA;NA;NA;NA;NA;NA;sdf;NA;0;NA;NA;NA;NA;NA;NA;NA;NA;NA;NA;NA;NA;NA;NA;NA;NA;NA;NA;NA;;;
40289;Deep;Question;html.Page;3_0_1_0_0_0_0;NA;NA;form;submission;3302.72;961067;961066.78;961067.28;964370;964370;2023-05-28T18:48:40Z;964368.66;NULL;Gelegenheit;wakati;d;NA;NA;NA;wakati;NA;NA;1;NA;NA;NA;NA;NA;NA;NA;NA;NA;NA;NA;NA;NA;NA;NA;NA;NA;NA;NA;;
40289;"""Richtig""-Screen";canvas.Screen;3_0_1_0_0_0_1;NA;NA;timeout;4994.18;964373;964368.26;964368.66;969346.54;969348;2023-05-28T18:48:45Z;969362.84;NULL;Gelegenheit;wakati;d;NA;NA;NA;NA;sdfdsf;1;1;NA;NA;NA;NA;NA;NA;NA;NA;NA;NA;NA;NA;NA;NA;NA;NA;NA;NA;NA;;;;
40289;"""Falsch""-Screen";canvas.Screen;3_0_1_0_0_0_2;NA;NA;skipped;NA;969357;NA;NA;969346.54;969357;2023-05-28T18:48:45Z;969362.84;NULL;Gelegenheit;wakati;d;NA;NA;NA;NA;sdfdsf;NA;1;NA;NA;NA;NA;NA;NA;NA;NA;NA;NA;NA;NA;NA;NA;NA;NA;NA;NA;NA;;;;
40289;deep;flow.Sequence;3_0_1_0_0_0;NA;NA;completion;8279.26;961067;961066.78;961067.28;969346.54;969358;2023-05-28T18:48:45Z;969362.84;NULL;Gelegenheit;wakati;d;NA;NA;NA;NA;sdfdsf;NA;1;NA;NA;NA;NA;NA;NA;NA;NA;NA;NA;NA;NA;NA;NA;NA;NA;NA;NA;NA;;;;
40289;shallow;flow.Sequence;3_0_1_0_0_1;NA;NA;skipped;NA;969358;NA;NA;969346.54;969358;2023-05-28T18:48:45Z;969362.84;NULL;Gelegenheit;wakati;d;NA;NA;NA;NA;sdfdsf;NA;1;NA;NA;NA;NA;NA;NA;NA;NA;NA;NA;NA;NA;NA;NA;NA;NA;NA;NA;NA;;;;
40289;task;flow.Sequence;3_0_1_0_0;NA;NA;completion;8279.26;961067;961066.78;961067.28;969346.54;969359;2023-05-28T18:48:45Z;969362.84;NULL;Gelegenheit;wakati;d;NA;NA;NA;NA;sdfdsf;NA;1;NA;NA;NA;NA;NA;NA;NA;NA;NA;NA;NA;NA;NA;NA;NA;NA;NA;NA;NA;;;;
40289;Deep;Question;html.Page;3_0_1_0_1_0_0;NA;NA;form;submission;2855.16;969359;969346.54;969362.84;972218;972218;2023-05-28T18:48:47Z;972217.54;NULL;Ausschluss;kutengwa;d;NA;NA;NA;öslkdjföl;NA;NA;1;NA;NA;NA;NA;NA;NA;NA;NA;NA;NA;NA;NA;NA;NA;NA;NA;NA;NA;NA;;
40289;"""Richtig""-Screen";canvas.Screen;3_0_1_0_1_0_1;NA;NA;skipped;NA;972222;NA;NA;972218;972222;2023-05-28T18:48:47Z;972217.54;NULL;Ausschluss;kutengwa;d;NA;NA;NA;NA;sdfdsf;NA;1;NA;NA;NA;NA;NA;NA;NA;NA;NA;NA;NA;NA;NA;NA;NA;NA;NA;NA;NA;;;;
40289;"""Falsch""-Screen";canvas.Screen;3_0_1_0_1_0_2;NA;NA;timeout;4994.3;972225;972217.2;972217.54;977195.5;977197;2023-05-28T18:48:52Z;977211.84;NULL;Ausschluss;kutengwa;d;NA;NA;NA;NA;sdfdsf;0;1;NA;NA;NA;NA;NA;NA;NA;NA;NA;NA;NA;NA;NA;NA;NA;NA;NA;NA;NA;;;;
40289;deep;flow.Sequence;3_0_1_0_1_0;NA;NA;completion;7832.66;969359;969346.54;969362.84;977195.5;977198;2023-05-28T18:48:52Z;977211.84;NULL;Ausschluss;kutengwa;d;NA;NA;NA;NA;sdfdsf;NA;1;NA;NA;NA;NA;NA;NA;NA;NA;NA;NA;NA;NA;NA;NA;NA;NA;NA;NA;NA;;;;
40289;shallow;flow.Sequence;3_0_1_0_1_1;NA;NA;skipped;NA;977198;NA;NA;977195.5;977198;2023-05-28T18:48:52Z;977211.84;NULL;Ausschluss;kutengwa;d;NA;NA;NA;NA;sdfdsf;NA;1;NA;NA;NA;NA;NA;NA;NA;NA;NA;NA;NA;NA;NA;NA;NA;NA;NA;NA;NA;;;;
40289;task;flow.Sequence;3_0_1_0_1;NA;NA;completion;7832.66;969359;969346.54;969362.84;977195.5;977199;2023-05-28T18:48:52Z;977211.84;NULL;Ausschluss;kutengwa;d;NA;NA;NA;NA;sdfdsf;NA;1;NA;NA;NA;NA;NA;NA;NA;NA;NA;NA;NA;NA;NA;NA;NA;NA;NA;NA;NA;;;;
40289;deep;flow.Sequence;3_0_1_0_2_0;NA;NA;skipped;NA;977199;NA;NA;977195.5;977200;2023-05-28T18:48:52Z;977211.84;NULL;Verstand;ufahamivu;s;shakawa;hadhari;mhandisi;NA;sdfdsf;NA;1;NA;NA;NA;NA;NA;NA;NA;NA;NA;NA;NA;NA;NA;NA;NA;NA;NA;NA;NA;;;;
40289;Shallow;Question;html.Page;3_0_1_0_2_1_0;NA;NA;form;submission;5544.16;977200;977195.5;977211.84;982756;982756;2023-05-28T18:48:58Z;982761.18;NULL;Verstand;ufahamivu;s;shakawa;hadhari;mhandisi;ufahamivu;NA;NA;1;NA;NA;NA;NA;NA;NA;NA;NA;NA;NA;NA;NA;NA;NA;NA;NA;NA;NA;NA;;
40289;"""Richtig""-Screen";canvas.Screen;3_0_1_0_2_1_1;NA;NA;timeout;4997.94;982759;982754.96;982761.18;987743.9;987744;2023-05-28T18:49:03Z;987759.12;NULL;Verstand;ufahamivu;s;shakawa;hadhari;mhandisi;NA;sdfdsf;1;1;NA;NA;NA;NA;NA;NA;NA;NA;NA;NA;NA;NA;NA;NA;NA;NA;NA;NA;NA;;;;
40289;"""Falsch""-Screen";canvas.Screen;3_0_1_0_2_1_2;NA;NA;skipped;NA;987749;NA;NA;987743.9;987749;2023-05-28T18:49:03Z;987759.12;NULL;Verstand;ufahamivu;s;shakawa;hadhari;mhandisi;NA;sdfdsf;NA;1;NA;NA;NA;NA;NA;NA;NA;NA;NA;NA;NA;NA;NA;NA;NA;NA;NA;NA;NA;;;;
40289;shallow;flow.Sequence;3_0_1_0_2_1;NA;NA;completion;10532.06;977200;977195.5;977211.84;987743.9;987749;2023-05-28T18:49:03Z;987759.12;NULL;Verstand;ufahamivu;s;shakawa;hadhari;mhandisi;NA;sdfdsf;NA;1;NA;NA;NA;NA;NA;NA;NA;NA;NA;NA;NA;NA;NA;NA;NA;NA;NA;NA;NA;;;;
40289;task;flow.Sequence;3_0_1_0_2;NA;NA;completion;10532.06;977199;977195.5;977211.84;987743.9;987750;2023-05-28T18:49:03Z;987759.12;NULL;Verstand;ufahamivu;s;shakawa;hadhari;mhandisi;NA;sdfdsf;NA;1;NA;NA;NA;NA;NA;NA;NA;NA;NA;NA;NA;NA;NA;NA;NA;NA;NA;NA;NA;;;;
40289;Deep;Question;html.Page;3_0_1_0_3_0_0;NA;NA;form;submission;3421.88;987750;987743.9;987759.12;991181;991181;2023-05-28T18:49:06Z;991193.4;NULL;Notfall;dharura;d;NA;NA;NA;sdkljf;NA;NA;1;NA;NA;NA;NA;NA;NA;NA;NA;NA;NA;NA;NA;NA;NA;NA;NA;NA;NA;NA;;
40289;"""Richtig""-Screen";canvas.Screen;3_0_1_0_3_0_1;NA;NA;skipped;NA;991184;NA;NA;991181;991185;2023-05-28T18:49:06Z;991193.4;NULL;Notfall;dharura;d;NA;NA;NA;NA;sdfdsf;NA;1;NA;NA;NA;NA;NA;NA;NA;NA;NA;NA;NA;NA;NA;NA;NA;NA;NA;NA;NA;;;;
40289;"""Falsch""-Screen";canvas.Screen;3_0_1_0_3_0_2;NA;NA;timeout;4999.44;991187;991179.64;991193.4;996176.18;996177;2023-05-28T18:49:11Z;996192.84;NULL;Notfall;dharura;d;NA;NA;NA;NA;sdfdsf;0;1;NA;NA;NA;NA;NA;NA;NA;NA;NA;NA;NA;NA;NA;NA;NA;NA;NA;NA;NA;;;;
40289;deep;flow.Sequence;3_0_1_0_3_0;NA;NA;completion;8417.06;987750;987743.9;987759.12;996176.18;996177;2023-05-28T18:49:11Z;996192.84;NULL;Notfall;dharura;d;NA;NA;NA;NA;sdfdsf;NA;1;NA;NA;NA;NA;NA;NA;NA;NA;NA;NA;NA;NA;NA;NA;NA;NA;NA;NA;NA;;;;
40289;shallow;flow.Sequence;3_0_1_0_3_1;NA;NA;skipped;NA;996178;NA;NA;996176.18;996179;2023-05-28T18:49:11Z;996192.84;NULL;Notfall;dharura;d;NA;NA;NA;NA;sdfdsf;NA;1;NA;NA;NA;NA;NA;NA;NA;NA;NA;NA;NA;NA;NA;NA;NA;NA;NA;NA;NA;;;;
40289;task;flow.Sequence;3_0_1_0_3;NA;NA;completion;8417.06;987750;987743.9;987759.12;996176.18;996179;2023-05-28T18:49:11Z;996192.84;NULL;Notfall;dharura;d;NA;NA;NA;NA;sdfdsf;NA;1;NA;NA;NA;NA;NA;NA;NA;NA;NA;NA;NA;NA;NA;NA;NA;NA;NA;NA;NA;;;;
40289;deep;flow.Sequence;3_0_1_0_4_0;NA;NA;skipped;NA;996179;NA;NA;996176.18;996180;2023-05-28T18:49:11Z;996192.84;NULL;Wohlstand;mafanikio;s;chimbuko;kumbuko;mapwaji;NA;sdfdsf;NA;1;NA;NA;NA;NA;NA;NA;NA;NA;NA;NA;NA;NA;NA;NA;NA;NA;NA;NA;NA;;;;
40289;Shallow;Question;html.Page;3_0_1_0_4_1_0;NA;NA;form;submission;9474.16;996180;996176.18;996192.84;1005667;1005669;2023-05-28T18:49:21Z;1005674.86;NULL;Wohlstand;mafanikio;s;chimbuko;kumbuko;mapwaji;chimbuko;NA;NA;1;NA;NA;NA;NA;NA;NA;NA;NA;NA;NA;NA;NA;NA;NA;NA;NA;NA;NA;NA;;
40289;"""Richtig""-Screen";canvas.Screen;3_0_1_0_4_1_1;NA;NA;skipped;NA;1005677;NA;NA;1005667;1005677;2023-05-28T18:49:21Z;1005674.86;NULL;Wohlstand;mafanikio;s;chimbuko;kumbuko;mapwaji;NA;sdfdsf;NA;1;NA;NA;NA;NA;NA;NA;NA;NA;NA;NA;NA;NA;NA;NA;NA;NA;NA;NA;NA;;;;
40289;"""Falsch""-Screen";canvas.Screen;3_0_1_0_4_1_2;NA;NA;timeout;4999.5;1005680;1005665.14;1005674.86;1010657.66;1010659;2023-05-28T18:49:26Z;1010674.36;NULL;Wohlstand;mafanikio;s;chimbuko;kumbuko;mapwaji;NA;sdfdsf;0;1;NA;NA;NA;NA;NA;NA;NA;NA;NA;NA;NA;NA;NA;NA;NA;NA;NA;NA;NA;;;;
40289;shallow;flow.Sequence;3_0_1_0_4_1;NA;NA;completion;14464.82;996180;996176.18;996192.84;1010657.66;1010661;2023-05-28T18:49:26Z;1010674.36;NULL;Wohlstand;mafanikio;s;chimbuko;kumbuko;mapwaji;NA;sdfdsf;NA;1;NA;NA;NA;NA;NA;NA;NA;NA;NA;NA;NA;NA;NA;NA;NA;NA;NA;NA;NA;;;;
40289;task;flow.Sequence;3_0_1_0_4;NA;NA;completion;14464.82;996179;996176.18;996192.84;1010657.66;1010662;2023-05-28T18:49:26Z;1010674.36;NULL;Wohlstand;mafanikio;s;chimbuko;kumbuko;mapwaji;NA;sdfdsf;NA;1;NA;NA;NA;NA;NA;NA;NA;NA;NA;NA;NA;NA;NA;NA;NA;NA;NA;NA;NA;;;;
40289;deep;flow.Sequence;3_0_1_0_5_0;NA;NA;skipped;NA;1010664;NA;NA;1010657.66;1010665;2023-05-28T18:49:26Z;1010674.36;NULL;Ergänzung;kijalizo;s;ulaghai;mustarehe;matangazo;NA;sdfdsf;NA;1;NA;NA;NA;NA;NA;NA;NA;NA;NA;NA;NA;NA;NA;NA;NA;NA;NA;NA;NA;;;;
40289;Shallow;Question;html.Page;3_0_1_0_5_1_0;NA;NA;form;submission;12974.64;1010666;1010657.66;1010674.36;1023649;1023649;2023-05-28T18:49:39Z;1023647.46;NULL;Ergänzung;kijalizo;s;ulaghai;mustarehe;matangazo;kijalizo;NA;NA;1;NA;NA;NA;NA;NA;NA;NA;NA;NA;NA;NA;NA;NA;NA;NA;NA;NA;NA;NA;;
40289;"""Richtig""-Screen";canvas.Screen;3_0_1_0_5_1_1;NA;NA;timeout;5007.88;1023652;1023647.12;1023647.46;1028638.72;1028641;2023-05-28T18:49:44Z;1028655.34;NULL;Ergänzung;kijalizo;s;ulaghai;mustarehe;matangazo;NA;sdfdsf;1;1;NA;NA;NA;NA;NA;NA;NA;NA;NA;NA;NA;NA;NA;NA;NA;NA;NA;NA;NA;;;;
40289;"""Falsch""-Screen";canvas.Screen;3_0_1_0_5_1_2;NA;NA;skipped;NA;1028650;NA;NA;1028638.72;1028651;2023-05-28T18:49:44Z;1028655.34;NULL;Ergänzung;kijalizo;s;ulaghai;mustarehe;matangazo;NA;sdfdsf;NA;1;NA;NA;NA;NA;NA;NA;NA;NA;NA;NA;NA;NA;NA;NA;NA;NA;NA;NA;NA;;;;
40289;shallow;flow.Sequence;3_0_1_0_5_1;NA;NA;completion;17964.36;1010666;1010657.66;1010674.36;1028638.72;1028651;2023-05-28T18:49:44Z;1028655.34;NULL;Ergänzung;kijalizo;s;ulaghai;mustarehe;matangazo;NA;sdfdsf;NA;1;NA;NA;NA;NA;NA;NA;NA;NA;NA;NA;NA;NA;NA;NA;NA;NA;NA;NA;NA;;;;
40289;task;flow.Sequence;3_0_1_0_5;NA;NA;completion;17964.36;1010663;1010657.66;1010674.36;1028638.72;1028653;2023-05-28T18:49:44Z;1028655.34;NULL;Ergänzung;kijalizo;s;ulaghai;mustarehe;matangazo;NA;sdfdsf;NA;1;NA;NA;NA;NA;NA;NA;NA;NA;NA;NA;NA;NA;NA;NA;NA;NA;NA;NA;NA;;;;
40289;Deep;Question;html.Page;3_0_1_0_6_0_0;NA;NA;form;submission;5459.66;1028654;1028638.72;1028655.34;1034115;1034116;2023-05-28T18:49:49Z;1034121.32;NULL;Vergnügen;kichekesho;d;NA;NA;NA;lkjlk;NA;NA;1;NA;NA;NA;NA;NA;NA;NA;NA;NA;NA;NA;NA;NA;NA;NA;NA;NA;NA;NA;;
40289;"""Richtig""-Screen";canvas.Screen;3_0_1_0_6_0_1;NA;NA;skipped;NA;1034119;NA;NA;1034115;1034119;2023-05-28T18:49:49Z;1034121.32;NULL;Vergnügen;kichekesho;d;NA;NA;NA;NA;sdfdsf;NA;1;NA;NA;NA;NA;NA;NA;NA;NA;NA;NA;NA;NA;NA;NA;NA;NA;NA;NA;NA;;;;
40289;"""Falsch""-Screen";canvas.Screen;3_0_1_0_6_0_2;NA;NA;timeout;4999.44;1034124;1034113.54;1034121.32;1039104.16;1039106;2023-05-28T18:49:54Z;1039120.76;NULL;Vergnügen;kichekesho;d;NA;NA;NA;NA;sdfdsf;0;1;NA;NA;NA;NA;NA;NA;NA;NA;NA;NA;NA;NA;NA;NA;NA;NA;NA;NA;NA;;;;
40289;deep;flow.Sequence;3_0_1_0_6_0;NA;NA;completion;10448.82;1028653;1028638.72;1028655.34;1039104.16;1039107;2023-05-28T18:49:54Z;1039120.76;NULL;Vergnügen;kichekesho;d;NA;NA;NA;NA;sdfdsf;NA;1;NA;NA;NA;NA;NA;NA;NA;NA;NA;NA;NA;NA;NA;NA;NA;NA;NA;NA;NA;;;;
40289;shallow;flow.Sequence;3_0_1_0_6_1;NA;NA;skipped;NA;1039107;NA;NA;1039104.16;1039108;2023-05-28T18:49:54Z;1039120.76;NULL;Vergnügen;kichekesho;d;NA;NA;NA;NA;sdfdsf;NA;1;NA;NA;NA;NA;NA;NA;NA;NA;NA;NA;NA;NA;NA;NA;NA;NA;NA;NA;NA;;;;
40289;task;flow.Sequence;3_0_1_0_6;NA;NA;completion;10448.82;1028653;1028638.72;1028655.34;1039104.16;1039109;2023-05-28T18:49:54Z;1039120.76;NULL;Vergnügen;kichekesho;d;NA;NA;NA;NA;sdfdsf;NA;1;NA;NA;NA;NA;NA;NA;NA;NA;NA;NA;NA;NA;NA;NA;NA;NA;NA;NA;NA;;;;
40289;deep;flow.Sequence;3_0_1_0_7_0;NA;NA;skipped;NA;1039109;NA;NA;1039104.16;1039109;2023-05-28T18:49:54Z;1039120.76;NULL;Widerstand;usulubu;s;kusababisha;mwalimu;mwenendo;NA;sdfdsf;NA;1;NA;NA;NA;NA;NA;NA;NA;NA;NA;NA;NA;NA;NA;NA;NA;NA;NA;NA;NA;;;;
40289;Shallow;Question;html.Page;3_0_1_0_7_1_0;NA;NA;form;submission;8415.24;1039110;1039104.16;1039120.76;1047536;1047537;2023-05-28T18:50:03Z;1047552.9;NULL;Widerstand;usulubu;s;kusababisha;mwalimu;mwenendo;usulubu;NA;NA;1;NA;NA;NA;NA;NA;NA;NA;NA;NA;NA;NA;NA;NA;NA;NA;NA;NA;NA;NA;;
40289;"""Richtig""-Screen";canvas.Screen;3_0_1_0_7_1_1;NA;NA;timeout;4998;1047539;1047535.44;1047552.9;1052535.92;1052537;2023-05-28T18:50:08Z;1052550.9;NULL;Widerstand;usulubu;s;kusababisha;mwalimu;mwenendo;NA;sdfdsf;1;1;NA;NA;NA;NA;NA;NA;NA;NA;NA;NA;NA;NA;NA;NA;NA;NA;NA;NA;NA;;;;
40289;"""Falsch""-Screen";canvas.Screen;3_0_1_0_7_1_2;NA;NA;skipped;NA;1052542;NA;NA;1052535.92;1052542;2023-05-28T18:50:08Z;1052550.9;NULL;Widerstand;usulubu;s;kusababisha;mwalimu;mwenendo;NA;sdfdsf;NA;1;NA;NA;NA;NA;NA;NA;NA;NA;NA;NA;NA;NA;NA;NA;NA;NA;NA;NA;NA;;;;
40289;shallow;flow.Sequence;3_0_1_0_7_1;NA;NA;completion;13415.16;1039110;1039104.16;1039120.76;1052535.92;1052542;2023-05-28T18:50:08Z;1052550.9;NULL;Widerstand;usulubu;s;kusababisha;mwalimu;mwenendo;NA;sdfdsf;NA;1;NA;NA;NA;NA;NA;NA;NA;NA;NA;NA;NA;NA;NA;NA;NA;NA;NA;NA;NA;;;;
40289;task;flow.Sequence;3_0_1_0_7;NA;NA;completion;13415.16;1039109;1039104.16;1039120.76;1052535.92;1052543;2023-05-28T18:50:08Z;1052550.9;NULL;Widerstand;usulubu;s;kusababisha;mwalimu;mwenendo;NA;sdfdsf;NA;1;NA;NA;NA;NA;NA;NA;NA;NA;NA;NA;NA;NA;NA;NA;NA;NA;NA;NA;NA;;;;
40289;block;flow.Loop;3_0_1_0;NA;NA;completion;91468.64;961066;961066.78;961067.28;1052535.92;1052543;2023-05-28T18:50:08Z;1052550.9;NULL;NA;NA;NA;NA;NA;NA;NA;sdfdsf;NA;1;NA;NA;NA;NA;NA;NA;NA;NA;NA;NA;NA;NA;NA;NA;NA;NA;NA;NA;NA;;;;
40289;weiter;canvas.Screen;3_0_1_1;sdf;keypress(Space);response;1217.1;1052543;1052535.92;1052550.9;1053768;1053786;2023-05-28T18:50:09Z;1053853.72;NULL;NA;NA;NA;NA;NA;NA;NA;sdfdsf;NA;1;NA;NA;NA;NA;NA;NA;NA;NA;NA;NA;NA;NA;NA;NA;NA;NA;NA;NA;NA;;;;
40289;check;continue;flow.Sequence;3_0_1;NA;NA;completion;92700.72;961066;961066.78;961067.28;1053768;1053788;2023-05-28T18:50:09Z;1053853.72;NULL;NA;NA;NA;NA;NA;NA;NA;sdfdsf;NA;1;NA;NA;NA;NA;NA;NA;NA;NA;NA;NA;NA;NA;NA;NA;NA;NA;NA;NA;NA;;;
40289;Deep;Question;html.Page;3_0_2_0_0_0_0;NA;NA;form;submission;8357.28;1053853;1053853.38;1053853.72;1062211;1062212;2023-05-28T18:50:17Z;1062210.64;NULL;Vergnügen;kichekesho;d;NA;NA;NA;kichekesho;NA;NA;2;NA;NA;NA;NA;NA;NA;NA;NA;NA;NA;NA;NA;NA;NA;NA;NA;NA;NA;NA;;
40289;"""Richtig""-Screen";canvas.Screen;3_0_2_0_0_0_1;NA;NA;timeout;5006.46;1062215;1062210.22;1062210.64;1067200.7;1067202;2023-05-28T18:50:22Z;1067217.1;NULL;Vergnügen;kichekesho;d;NA;NA;NA;NA;sdf;1;2;NA;NA;NA;NA;NA;NA;NA;NA;NA;NA;NA;NA;NA;NA;NA;NA;NA;NA;NA;;;;
40289;"""Falsch""-Screen";canvas.Screen;3_0_2_0_0_0_2;NA;NA;skipped;NA;1067206;NA;NA;1067200.7;1067206;2023-05-28T18:50:22Z;1067217.1;NULL;Vergnügen;kichekesho;d;NA;NA;NA;NA;sdf;NA;2;NA;NA;NA;NA;NA;NA;NA;NA;NA;NA;NA;NA;NA;NA;NA;NA;NA;NA;NA;;;;
40289;deep;flow.Sequence;3_0_2_0_0_0;NA;NA;completion;13346.98;1053853;1053853.38;1053853.72;1067200.7;1067206;2023-05-28T18:50:22Z;1067217.1;NULL;Vergnügen;kichekesho;d;NA;NA;NA;NA;sdf;NA;2;NA;NA;NA;NA;NA;NA;NA;NA;NA;NA;NA;NA;NA;NA;NA;NA;NA;NA;NA;;;;
40289;shallow;flow.Sequence;3_0_2_0_0_1;NA;NA;skipped;NA;1067206;NA;NA;1067200.7;1067207;2023-05-28T18:50:22Z;1067217.1;NULL;Vergnügen;kichekesho;d;NA;NA;NA;NA;sdf;NA;2;NA;NA;NA;NA;NA;NA;NA;NA;NA;NA;NA;NA;NA;NA;NA;NA;NA;NA;NA;;;;
40289;task;flow.Sequence;3_0_2_0_0;NA;NA;completion;13346.98;1053853;1053853.38;1053853.72;1067200.7;1067207;2023-05-28T18:50:22Z;1067217.1;NULL;Vergnügen;kichekesho;d;NA;NA;NA;NA;sdf;NA;2;NA;NA;NA;NA;NA;NA;NA;NA;NA;NA;NA;NA;NA;NA;NA;NA;NA;NA;NA;;;;
40289;deep;flow.Sequence;3_0_2_0_1_0;NA;NA;skipped;NA;1067207;NA;NA;1067200.7;1067207;2023-05-28T18:50:22Z;1067217.1;NULL;Wohlstand;mafanikio;s;chimbuko;kumbuko;mapwaji;NA;sdf;NA;2;NA;NA;NA;NA;NA;NA;NA;NA;NA;NA;NA;NA;NA;NA;NA;NA;NA;NA;NA;;;;
40289;Shallow;Question;html.Page;3_0_2_0_1_1_0;NA;NA;form;submission;2604.9;1067207;1067200.7;1067217.1;1069822;1069822;2023-05-28T18:50:25Z;1069820.76;NULL;Wohlstand;mafanikio;s;chimbuko;kumbuko;mapwaji;mafanikio;NA;NA;2;NA;NA;NA;NA;NA;NA;NA;NA;NA;NA;NA;NA;NA;NA;NA;NA;NA;NA;NA;;
40289;"""Richtig""-Screen";canvas.Screen;3_0_2_0_1_1_1;NA;NA;timeout;4995.32;1069825;1069820.38;1069820.76;1074799.62;1074801;2023-05-28T18:50:30Z;1074816.08;NULL;Wohlstand;mafanikio;s;chimbuko;kumbuko;mapwaji;NA;sdf;1;2;NA;NA;NA;NA;NA;NA;NA;NA;NA;NA;NA;NA;NA;NA;NA;NA;NA;NA;NA;;;;
40289;"""Falsch""-Screen";canvas.Screen;3_0_2_0_1_1_2;NA;NA;skipped;NA;1074808;NA;NA;1074799.62;1074808;2023-05-28T18:50:30Z;1074816.08;NULL;Wohlstand;mafanikio;s;chimbuko;kumbuko;mapwaji;NA;sdf;NA;2;NA;NA;NA;NA;NA;NA;NA;NA;NA;NA;NA;NA;NA;NA;NA;NA;NA;NA;NA;;;;
40289;shallow;flow.Sequence;3_0_2_0_1_1;NA;NA;completion;7582.52;1067207;1067200.7;1067217.1;1074799.62;1074808;2023-05-28T18:50:30Z;1074816.08;NULL;Wohlstand;mafanikio;s;chimbuko;kumbuko;mapwaji;NA;sdf;NA;2;NA;NA;NA;NA;NA;NA;NA;NA;NA;NA;NA;NA;NA;NA;NA;NA;NA;NA;NA;;;;
40289;task;flow.Sequence;3_0_2_0_1;NA;NA;completion;7582.52;1067207;1067200.7;1067217.1;1074799.62;1074809;2023-05-28T18:50:30Z;1074816.08;NULL;Wohlstand;mafanikio;s;chimbuko;kumbuko;mapwaji;NA;sdf;NA;2;NA;NA;NA;NA;NA;NA;NA;NA;NA;NA;NA;NA;NA;NA;NA;NA;NA;NA;NA;;;;
40289;deep;flow.Sequence;3_0_2_0_2_0;NA;NA;skipped;NA;1074809;NA;NA;1074799.62;1074809;2023-05-28T18:50:30Z;1074816.08;NULL;Verstand;ufahamivu;s;shakawa;hadhari;mhandisi;NA;sdf;NA;2;NA;NA;NA;NA;NA;NA;NA;NA;NA;NA;NA;NA;NA;NA;NA;NA;NA;NA;NA;;;;
40289;Shallow;Question;html.Page;3_0_2_0_2_1_0;NA;NA;form;submission;13015.92;1074809;1074799.62;1074816.08;1087832;1087832;2023-05-28T18:50:43Z;1087848.2;NULL;Verstand;ufahamivu;s;shakawa;hadhari;mhandisi;ufahamivu;NA;NA;2;NA;NA;NA;NA;NA;NA;NA;NA;NA;NA;NA;NA;NA;NA;NA;NA;NA;NA;NA;;
40289;"""Richtig""-Screen";canvas.Screen;3_0_2_0_2_1_1;NA;NA;timeout;4998.98;1087834;1087831.18;1087848.2;1092830.68;1092832;2023-05-28T18:50:48Z;1092847.18;NULL;Verstand;ufahamivu;s;shakawa;hadhari;mhandisi;NA;sdf;1;2;NA;NA;NA;NA;NA;NA;NA;NA;NA;NA;NA;NA;NA;NA;NA;NA;NA;NA;NA;;;;
40289;"""Falsch""-Screen";canvas.Screen;3_0_2_0_2_1_2;NA;NA;skipped;NA;1092840;NA;NA;1092830.68;1092840;2023-05-28T18:50:48Z;1092847.18;NULL;Verstand;ufahamivu;s;shakawa;hadhari;mhandisi;NA;sdf;NA;2;NA;NA;NA;NA;NA;NA;NA;NA;NA;NA;NA;NA;NA;NA;NA;NA;NA;NA;NA;;;;
40289;shallow;flow.Sequence;3_0_2_0_2_1;NA;NA;completion;18014.6;1074809;1074799.62;1074816.08;1092830.68;1092841;2023-05-28T18:50:48Z;1092847.18;NULL;Verstand;ufahamivu;s;shakawa;hadhari;mhandisi;NA;sdf;NA;2;NA;NA;NA;NA;NA;NA;NA;NA;NA;NA;NA;NA;NA;NA;NA;NA;NA;NA;NA;;;;
40289;task;flow.Sequence;3_0_2_0_2;NA;NA;completion;18014.6;1074809;1074799.62;1074816.08;1092830.68;1092841;2023-05-28T18:50:48Z;1092847.18;NULL;Verstand;ufahamivu;s;shakawa;hadhari;mhandisi;NA;sdf;NA;2;NA;NA;NA;NA;NA;NA;NA;NA;NA;NA;NA;NA;NA;NA;NA;NA;NA;NA;NA;;;;
40289;Deep;Question;html.Page;3_0_2_0_3_0_0;NA;NA;form;submission;7308.82;1092842;1092830.68;1092847.18;1100156;1100157;2023-05-28T18:50:55Z;1100162.9;NULL;Notfall;dharura;d;NA;NA;NA;mekati;NA;NA;2;NA;NA;NA;NA;NA;NA;NA;NA;NA;NA;NA;NA;NA;NA;NA;NA;NA;NA;NA;;
40289;"""Richtig""-Screen";canvas.Screen;3_0_2_0_3_0_1;NA;NA;skipped;NA;1100160;NA;NA;1100156;1100160;2023-05-28T18:50:55Z;1100162.9;NULL;Notfall;dharura;d;NA;NA;NA;NA;sdf;NA;2;NA;NA;NA;NA;NA;NA;NA;NA;NA;NA;NA;NA;NA;NA;NA;NA;NA;NA;NA;;;;
40289;"""Falsch""-Screen";canvas.Screen;3_0_2_0_3_0_2;NA;NA;timeout;4999.44;1100163;1100155.18;1100162.9;1105146.08;1105151;2023-05-28T18:51:00Z;1105162.34;NULL;Notfall;dharura;d;NA;NA;NA;NA;sdf;0;2;NA;NA;NA;NA;NA;NA;NA;NA;NA;NA;NA;NA;NA;NA;NA;NA;NA;NA;NA;;;;
40289;deep;flow.Sequence;3_0_2_0_3_0;NA;NA;completion;12298.9;1092842;1092830.68;1092847.18;1105146.08;1105157;2023-05-28T18:51:00Z;1105162.34;NULL;Notfall;dharura;d;NA;NA;NA;NA;sdf;NA;2;NA;NA;NA;NA;NA;NA;NA;NA;NA;NA;NA;NA;NA;NA;NA;NA;NA;NA;NA;;;;
40289;shallow;flow.Sequence;3_0_2_0_3_1;NA;NA;skipped;NA;1105158;NA;NA;1105146.08;1105160;2023-05-28T18:51:00Z;1105162.34;NULL;Notfall;dharura;d;NA;NA;NA;NA;sdf;NA;2;NA;NA;NA;NA;NA;NA;NA;NA;NA;NA;NA;NA;NA;NA;NA;NA;NA;NA;NA;;;;
40289;task;flow.Sequence;3_0_2_0_3;NA;NA;completion;12298.9;1092841;1092830.68;1092847.18;1105146.08;1105161;2023-05-28T18:51:00Z;1105162.34;NULL;Notfall;dharura;d;NA;NA;NA;NA;sdf;NA;2;NA;NA;NA;NA;NA;NA;NA;NA;NA;NA;NA;NA;NA;NA;NA;NA;NA;NA;NA;;;;
40289;deep;flow.Sequence;3_0_2_0_4_0;NA;NA;skipped;NA;1105162;NA;NA;1105146.08;1105162;2023-05-28T18:51:00Z;1105162.34;NULL;Widerstand;usulubu;s;kusababisha;mwalimu;mwenendo;NA;sdf;NA;2;NA;NA;NA;NA;NA;NA;NA;NA;NA;NA;NA;NA;NA;NA;NA;NA;NA;NA;NA;;;;
40289;Shallow;Question;html.Page;3_0_2_0_4_1_0;NA;NA;form;submission;2729.66;1105163;1105146.08;1105162.34;1107892;1107893;2023-05-28T18:51:03Z;1107895.34;NULL;Widerstand;usulubu;s;kusababisha;mwalimu;mwenendo;usulubu;NA;NA;2;NA;NA;NA;NA;NA;NA;NA;NA;NA;NA;NA;NA;NA;NA;NA;NA;NA;NA;NA;;
40289;"""Richtig""-Screen";canvas.Screen;3_0_2_0_4_1_1;NA;NA;timeout;4999.3;1107900;1107890.26;1107895.34;1112878.06;1112879;2023-05-28T18:51:08Z;1112894.64;NULL;Widerstand;usulubu;s;kusababisha;mwalimu;mwenendo;NA;sdf;1;2;NA;NA;NA;NA;NA;NA;NA;NA;NA;NA;NA;NA;NA;NA;NA;NA;NA;NA;NA;;;;
40289;"""Falsch""-Screen";canvas.Screen;3_0_2_0_4_1_2;NA;NA;skipped;NA;1112887;NA;NA;1112878.06;1112887;2023-05-28T18:51:08Z;1112894.64;NULL;Widerstand;usulubu;s;kusababisha;mwalimu;mwenendo;NA;sdf;NA;2;NA;NA;NA;NA;NA;NA;NA;NA;NA;NA;NA;NA;NA;NA;NA;NA;NA;NA;NA;;;;
40289;shallow;flow.Sequence;3_0_2_0_4_1;NA;NA;completion;7715.72;1105163;1105146.08;1105162.34;1112878.06;1112888;2023-05-28T18:51:08Z;1112894.64;NULL;Widerstand;usulubu;s;kusababisha;mwalimu;mwenendo;NA;sdf;NA;2;NA;NA;NA;NA;NA;NA;NA;NA;NA;NA;NA;NA;NA;NA;NA;NA;NA;NA;NA;;;;
40289;task;flow.Sequence;3_0_2_0_4;NA;NA;completion;7715.72;1105162;1105146.08;1105162.34;1112878.06;1112888;2023-05-28T18:51:08Z;1112894.64;NULL;Widerstand;usulubu;s;kusababisha;mwalimu;mwenendo;NA;sdf;NA;2;NA;NA;NA;NA;NA;NA;NA;NA;NA;NA;NA;NA;NA;NA;NA;NA;NA;NA;NA;;;;
40289;deep;flow.Sequence;3_0_2_0_5_0;NA;NA;skipped;NA;1112889;NA;NA;1112878.06;1112889;2023-05-28T18:51:08Z;1112894.64;NULL;Ergänzung;kijalizo;s;ulaghai;mustarehe;matangazo;NA;sdf;NA;2;NA;NA;NA;NA;NA;NA;NA;NA;NA;NA;NA;NA;NA;NA;NA;NA;NA;NA;NA;;;;
40289;Shallow;Question;html.Page;3_0_2_0_5_1_0;NA;NA;form;submission;3345.36;1112890;1112878.06;1112894.64;1116240;1116241;2023-05-28T18:51:11Z;1116244.28;NULL;Ergänzung;kijalizo;s;ulaghai;mustarehe;matangazo;kijalizo;NA;NA;2;NA;NA;NA;NA;NA;NA;NA;NA;NA;NA;NA;NA;NA;NA;NA;NA;NA;NA;NA;;
40289;"""Richtig""-Screen";canvas.Screen;3_0_2_0_5_1_1;NA;NA;timeout;4999.42;1116244;1116238.92;1116244.28;1121227.08;1121229;2023-05-28T18:51:16Z;1121243.7;NULL;Ergänzung;kijalizo;s;ulaghai;mustarehe;matangazo;NA;sdf;1;2;NA;NA;NA;NA;NA;NA;NA;NA;NA;NA;NA;NA;NA;NA;NA;NA;NA;NA;NA;;;;
40289;"""Falsch""-Screen";canvas.Screen;3_0_2_0_5_1_2;NA;NA;skipped;NA;1121237;NA;NA;1121227.08;1121238;2023-05-28T18:51:16Z;1121243.7;NULL;Ergänzung;kijalizo;s;ulaghai;mustarehe;matangazo;NA;sdf;NA;2;NA;NA;NA;NA;NA;NA;NA;NA;NA;NA;NA;NA;NA;NA;NA;NA;NA;NA;NA;;;;
40289;shallow;flow.Sequence;3_0_2_0_5_1;NA;NA;completion;8332.44;1112890;1112878.06;1112894.64;1121227.08;1121239;2023-05-28T18:51:16Z;1121243.7;NULL;Ergänzung;kijalizo;s;ulaghai;mustarehe;matangazo;NA;sdf;NA;2;NA;NA;NA;NA;NA;NA;NA;NA;NA;NA;NA;NA;NA;NA;NA;NA;NA;NA;NA;;;;
40289;task;flow.Sequence;3_0_2_0_5;NA;NA;completion;8332.44;1112889;1112878.06;1112894.64;1121227.08;1121239;2023-05-28T18:51:16Z;1121243.7;NULL;Ergänzung;kijalizo;s;ulaghai;mustarehe;matangazo;NA;sdf;NA;2;NA;NA;NA;NA;NA;NA;NA;NA;NA;NA;NA;NA;NA;NA;NA;NA;NA;NA;NA;;;;
40289;Deep;Question;html.Page;3_0_2_0_6_0_0;NA;NA;form;submission;7671.3;1121240;1121227.08;1121243.7;1128915;1128916;2023-05-28T18:51:24Z;1128925.98;NULL;Gelegenheit;wakati;d;NA;NA;NA;mektu;NA;NA;2;NA;NA;NA;NA;NA;NA;NA;NA;NA;NA;NA;NA;NA;NA;NA;NA;NA;NA;NA;;
40289;"""Richtig""-Screen";canvas.Screen;3_0_2_0_6_0_1;NA;NA;skipped;NA;1128920;NA;NA;1128915;1128920;2023-05-28T18:51:24Z;1128925.98;NULL;Gelegenheit;wakati;d;NA;NA;NA;NA;sdf;NA;2;NA;NA;NA;NA;NA;NA;NA;NA;NA;NA;NA;NA;NA;NA;NA;NA;NA;NA;NA;;;;
40289;"""Falsch""-Screen";canvas.Screen;3_0_2_0_6_0_2;NA;NA;timeout;4999.34;1128924;1128914.06;1128925.98;1133908.8;1133910;2023-05-28T18:51:29Z;1133925.32;NULL;Gelegenheit;wakati;d;NA;NA;NA;NA;sdf;0;2;NA;NA;NA;NA;NA;NA;NA;NA;NA;NA;NA;NA;NA;NA;NA;NA;NA;NA;NA;;;;
40289;deep;flow.Sequence;3_0_2_0_6_0;NA;NA;completion;12665.1;1121240;1121227.08;1121243.7;1133908.8;1133911;2023-05-28T18:51:29Z;1133925.32;NULL;Gelegenheit;wakati;d;NA;NA;NA;NA;sdf;NA;2;NA;NA;NA;NA;NA;NA;NA;NA;NA;NA;NA;NA;NA;NA;NA;NA;NA;NA;NA;;;;
40289;shallow;flow.Sequence;3_0_2_0_6_1;NA;NA;skipped;NA;1133911;NA;NA;1133908.8;1133912;2023-05-28T18:51:29Z;1133925.32;NULL;Gelegenheit;wakati;d;NA;NA;NA;NA;sdf;NA;2;NA;NA;NA;NA;NA;NA;NA;NA;NA;NA;NA;NA;NA;NA;NA;NA;NA;NA;NA;;;;
40289;task;flow.Sequence;3_0_2_0_6;NA;NA;completion;12665.1;1121240;1121227.08;1121243.7;1133908.8;1133912;2023-05-28T18:51:29Z;1133925.32;NULL;Gelegenheit;wakati;d;NA;NA;NA;NA;sdf;NA;2;NA;NA;NA;NA;NA;NA;NA;NA;NA;NA;NA;NA;NA;NA;NA;NA;NA;NA;NA;;;;
40289;Deep;Question;html.Page;3_0_2_0_7_0_0;NA;NA;form;submission;4859.68;1133913;1133908.8;1133925.32;1138785;1138785;2023-05-28T18:51:34Z;1138791.4;NULL;Ausschluss;kutengwa;d;NA;NA;NA;sdlkfj;NA;NA;2;NA;NA;NA;NA;NA;NA;NA;NA;NA;NA;NA;NA;NA;NA;NA;NA;NA;NA;NA;;
40289;"""Richtig""-Screen";canvas.Screen;3_0_2_0_7_0_1;NA;NA;skipped;NA;1138788;NA;NA;1138785;1138789;2023-05-28T18:51:34Z;1138791.4;NULL;Ausschluss;kutengwa;d;NA;NA;NA;NA;sdf;NA;2;NA;NA;NA;NA;NA;NA;NA;NA;NA;NA;NA;NA;NA;NA;NA;NA;NA;NA;NA;;;;
40289;"""Falsch""-Screen";canvas.Screen;3_0_2_0_7_0_2;NA;NA;timeout;4999.4;1138792;1138783.62;1138791.4;1143774.22;1143776;2023-05-28T18:51:39Z;1143790.8;NULL;Ausschluss;kutengwa;d;NA;NA;NA;NA;sdf;0;2;NA;NA;NA;NA;NA;NA;NA;NA;NA;NA;NA;NA;NA;NA;NA;NA;NA;NA;NA;;;;
40289;deep;flow.Sequence;3_0_2_0_7_0;NA;NA;completion;9848.9;1133913;1133908.8;1133925.32;1143774.22;1143777;2023-05-28T18:51:39Z;1143790.8;NULL;Ausschluss;kutengwa;d;NA;NA;NA;NA;sdf;NA;2;NA;NA;NA;NA;NA;NA;NA;NA;NA;NA;NA;NA;NA;NA;NA;NA;NA;NA;NA;;;;
40289;shallow;flow.Sequence;3_0_2_0_7_1;NA;NA;skipped;NA;1143777;NA;NA;1143774.22;1143777;2023-05-28T18:51:39Z;1143790.8;NULL;Ausschluss;kutengwa;d;NA;NA;NA;NA;sdf;NA;2;NA;NA;NA;NA;NA;NA;NA;NA;NA;NA;NA;NA;NA;NA;NA;NA;NA;NA;NA;;;;
40289;task;flow.Sequence;3_0_2_0_7;NA;NA;completion;9848.9;1133913;1133908.8;1133925.32;1143774.22;1143778;2023-05-28T18:51:39Z;1143790.8;NULL;Ausschluss;kutengwa;d;NA;NA;NA;NA;sdf;NA;2;NA;NA;NA;NA;NA;NA;NA;NA;NA;NA;NA;NA;NA;NA;NA;NA;NA;NA;NA;;;;
40289;block;flow.Loop;3_0_2_0;NA;NA;completion;89920.5;1053853;1053853.38;1053853.72;1143774.22;1143779;2023-05-28T18:51:39Z;1143790.8;NULL;NA;NA;NA;NA;NA;NA;NA;sdf;NA;2;NA;NA;NA;NA;NA;NA;NA;NA;NA;NA;NA;NA;NA;NA;NA;NA;NA;NA;NA;;;;
40289;weiter;canvas.Screen;3_0_2_1;sdf;keypress(Space);response;1135.2;1143780;1143774.22;1143790.8;1144926;1144932;2023-05-28T18:51:40Z;1145003.94;NULL;NA;NA;NA;NA;NA;NA;NA;sdf;NA;2;NA;NA;NA;NA;NA;NA;NA;NA;NA;NA;NA;NA;NA;NA;NA;NA;NA;NA;NA;;;;
40289;check;continue;flow.Sequence;3_0_2;NA;NA;completion;91072.28;1053853;1053853.38;1053853.72;1144926;1144933;2023-05-28T18:51:40Z;1145003.94;NULL;NA;NA;NA;NA;NA;NA;NA;sdf;NA;2;NA;NA;NA;NA;NA;NA;NA;NA;NA;NA;NA;NA;NA;NA;NA;NA;NA;NA;NA;;;
40289;Deep;Question;html.Page;3_0_3_0_0_0_0;NA;NA;form;submission;5876.06;1145003;1145003.64;1145003.94;1150880;1150881;2023-05-28T18:51:46Z;1150879.62;NULL;Vergnügen;kichekesho;d;NA;NA;NA;kichekesho;NA;NA;3;NA;NA;NA;NA;NA;NA;NA;NA;NA;NA;NA;NA;NA;NA;NA;NA;NA;NA;NA;;
40289;"""Richtig""-Screen";canvas.Screen;3_0_3_0_0_0_1;NA;NA;timeout;4992.9;1150884;1150879.32;1150879.62;1155855.96;1155857;2023-05-28T18:51:51Z;1155872.52;NULL;Vergnügen;kichekesho;d;NA;NA;NA;NA;qt;1;3;NA;NA;NA;NA;NA;NA;NA;NA;NA;NA;NA;NA;NA;NA;NA;NA;NA;NA;NA;;;;
40289;"""Falsch""-Screen";canvas.Screen;3_0_3_0_0_0_2;NA;NA;skipped;NA;1155865;NA;NA;1155855.96;1155865;2023-05-28T18:51:51Z;1155872.52;NULL;Vergnügen;kichekesho;d;NA;NA;NA;NA;qt;NA;3;NA;NA;NA;NA;NA;NA;NA;NA;NA;NA;NA;NA;NA;NA;NA;NA;NA;NA;NA;;;;
40289;deep;flow.Sequence;3_0_3_0_0_0;NA;NA;completion;10852.02;1145003;1145003.64;1145003.94;1155855.96;1155866;2023-05-28T18:51:51Z;1155872.52;NULL;Vergnügen;kichekesho;d;NA;NA;NA;NA;qt;NA;3;NA;NA;NA;NA;NA;NA;NA;NA;NA;NA;NA;NA;NA;NA;NA;NA;NA;NA;NA;;;;
40289;shallow;flow.Sequence;3_0_3_0_0_1;NA;NA;skipped;NA;1155866;NA;NA;1155855.96;1155866;2023-05-28T18:51:51Z;1155872.52;NULL;Vergnügen;kichekesho;d;NA;NA;NA;NA;qt;NA;3;NA;NA;NA;NA;NA;NA;NA;NA;NA;NA;NA;NA;NA;NA;NA;NA;NA;NA;NA;;;;
40289;task;flow.Sequence;3_0_3_0_0;NA;NA;completion;10852.02;1145003;1145003.64;1145003.94;1155855.96;1155867;2023-05-28T18:51:51Z;1155872.52;NULL;Vergnügen;kichekesho;d;NA;NA;NA;NA;qt;NA;3;NA;NA;NA;NA;NA;NA;NA;NA;NA;NA;NA;NA;NA;NA;NA;NA;NA;NA;NA;;;;
40289;deep;flow.Sequence;3_0_3_0_1_0;NA;NA;skipped;NA;1155867;NA;NA;1155855.96;1155867;2023-05-28T18:51:51Z;1155872.52;NULL;Wohlstand;mafanikio;s;chimbuko;kumbuko;mapwaji;NA;qt;NA;3;NA;NA;NA;NA;NA;NA;NA;NA;NA;NA;NA;NA;NA;NA;NA;NA;NA;NA;NA;;;;
40289;Shallow;Question;html.Page;3_0_3_0_1_1_0;NA;NA;form;submission;5628.48;1155868;1155855.96;1155872.52;1161501;1161502;2023-05-28T18:51:57Z;1161505.18;NULL;Wohlstand;mafanikio;s;chimbuko;kumbuko;mapwaji;mafanikio;NA;NA;3;NA;NA;NA;NA;NA;NA;NA;NA;NA;NA;NA;NA;NA;NA;NA;NA;NA;NA;NA;;
40289;"""Richtig""-Screen";canvas.Screen;3_0_3_0_1_1_1;NA;NA;timeout;4999.42;1161509;1161497.12;1161505.18;1166488.06;1166490;2023-05-28T18:52:02Z;1166504.6;NULL;Wohlstand;mafanikio;s;chimbuko;kumbuko;mapwaji;NA;qt;1;3;NA;NA;NA;NA;NA;NA;NA;NA;NA;NA;NA;NA;NA;NA;NA;NA;NA;NA;NA;;;;
40289;"""Falsch""-Screen";canvas.Screen;3_0_3_0_1_1_2;NA;NA;skipped;NA;1166502;NA;NA;1166488.06;1166503;2023-05-28T18:52:02Z;1166504.6;NULL;Wohlstand;mafanikio;s;chimbuko;kumbuko;mapwaji;NA;qt;NA;3;NA;NA;NA;NA;NA;NA;NA;NA;NA;NA;NA;NA;NA;NA;NA;NA;NA;NA;NA;;;;
40289;shallow;flow.Sequence;3_0_3_0_1_1;NA;NA;completion;10615.54;1155868;1155855.96;1155872.52;1166488.06;1166504;2023-05-28T18:52:02Z;1166504.6;NULL;Wohlstand;mafanikio;s;chimbuko;kumbuko;mapwaji;NA;qt;NA;3;NA;NA;NA;NA;NA;NA;NA;NA;NA;NA;NA;NA;NA;NA;NA;NA;NA;NA;NA;;;;
40289;task;flow.Sequence;3_0_3_0_1;NA;NA;completion;10615.54;1155867;1155855.96;1155872.52;1166488.06;1166506;2023-05-28T18:52:02Z;1166504.6;NULL;Wohlstand;mafanikio;s;chimbuko;kumbuko;mapwaji;NA;qt;NA;3;NA;NA;NA;NA;NA;NA;NA;NA;NA;NA;NA;NA;NA;NA;NA;NA;NA;NA;NA;;;;
40289;deep;flow.Sequence;3_0_3_0_2_0;NA;NA;skipped;NA;1166507;NA;NA;1166488.06;1166508;2023-05-28T18:52:02Z;1166504.6;NULL;Ergänzung;kijalizo;s;ulaghai;mustarehe;matangazo;NA;qt;NA;3;NA;NA;NA;NA;NA;NA;NA;NA;NA;NA;NA;NA;NA;NA;NA;NA;NA;NA;NA;;;;
40289;Shallow;Question;html.Page;3_0_3_0_2_1_0;NA;NA;form;submission;4477.4;1166508;1166488.06;1166504.6;1170982;1170983;2023-05-28T18:52:06Z;1170987.26;NULL;Ergänzung;kijalizo;s;ulaghai;mustarehe;matangazo;kijalizo;NA;NA;3;NA;NA;NA;NA;NA;NA;NA;NA;NA;NA;NA;NA;NA;NA;NA;NA;NA;NA;NA;;
40289;"""Richtig""-Screen";canvas.Screen;3_0_3_0_2_1_1;NA;NA;timeout;4999.52;1170985;1170980.86;1170987.26;1175970.1;1175972;2023-05-28T18:52:11Z;1175986.78;NULL;Ergänzung;kijalizo;s;ulaghai;mustarehe;matangazo;NA;qt;1;3;NA;NA;NA;NA;NA;NA;NA;NA;NA;NA;NA;NA;NA;NA;NA;NA;NA;NA;NA;;;;
40289;"""Falsch""-Screen";canvas.Screen;3_0_3_0_2_1_2;NA;NA;skipped;NA;1175980;NA;NA;1175970.1;1175980;2023-05-28T18:52:11Z;1175986.78;NULL;Ergänzung;kijalizo;s;ulaghai;mustarehe;matangazo;NA;qt;NA;3;NA;NA;NA;NA;NA;NA;NA;NA;NA;NA;NA;NA;NA;NA;NA;NA;NA;NA;NA;;;;
40289;shallow;flow.Sequence;3_0_3_0_2_1;NA;NA;completion;9465.5;1166508;1166488.06;1166504.6;1175970.1;1175981;2023-05-28T18:52:11Z;1175986.78;NULL;Ergänzung;kijalizo;s;ulaghai;mustarehe;matangazo;NA;qt;NA;3;NA;NA;NA;NA;NA;NA;NA;NA;NA;NA;NA;NA;NA;NA;NA;NA;NA;NA;NA;;;;
40289;task;flow.Sequence;3_0_3_0_2;NA;NA;completion;9465.5;1166507;1166488.06;1166504.6;1175970.1;1175983;2023-05-28T18:52:11Z;1175986.78;NULL;Ergänzung;kijalizo;s;ulaghai;mustarehe;matangazo;NA;qt;NA;3;NA;NA;NA;NA;NA;NA;NA;NA;NA;NA;NA;NA;NA;NA;NA;NA;NA;NA;NA;;;;
40289;Deep;Question;html.Page;3_0_3_0_3_0_0;NA;NA;form;submission;3167.22;1175984;1175970.1;1175986.78;1179154;1179154;2023-05-28T18:52:14Z;1179152.92;NULL;Ausschluss;kutengwa;d;NA;NA;NA;wakati;NA;NA;3;NA;NA;NA;NA;NA;NA;NA;NA;NA;NA;NA;NA;NA;NA;NA;NA;NA;NA;NA;;
40289;"""Richtig""-Screen";canvas.Screen;3_0_3_0_3_0_1;NA;NA;skipped;NA;1179158;NA;NA;1179154;1179158;2023-05-28T18:52:14Z;1179152.92;NULL;Ausschluss;kutengwa;d;NA;NA;NA;NA;qt;NA;3;NA;NA;NA;NA;NA;NA;NA;NA;NA;NA;NA;NA;NA;NA;NA;NA;NA;NA;NA;;;;
40289;"""Falsch""-Screen";canvas.Screen;3_0_3_0_3_0_2;NA;NA;timeout;4999.46;1179162;1179151.92;1179152.92;1184135.8;1184138;2023-05-28T18:52:19Z;1184152.38;NULL;Ausschluss;kutengwa;d;NA;NA;NA;NA;qt;0;3;NA;NA;NA;NA;NA;NA;NA;NA;NA;NA;NA;NA;NA;NA;NA;NA;NA;NA;NA;;;;
40289;deep;flow.Sequence;3_0_3_0_3_0;NA;NA;completion;8149.02;1175984;1175970.1;1175986.78;1184135.8;1184139;2023-05-28T18:52:19Z;1184152.38;NULL;Ausschluss;kutengwa;d;NA;NA;NA;NA;qt;NA;3;NA;NA;NA;NA;NA;NA;NA;NA;NA;NA;NA;NA;NA;NA;NA;NA;NA;NA;NA;;;;
40289;shallow;flow.Sequence;3_0_3_0_3_1;NA;NA;skipped;NA;1184140;NA;NA;1184135.8;1184140;2023-05-28T18:52:19Z;1184152.38;NULL;Ausschluss;kutengwa;d;NA;NA;NA;NA;qt;NA;3;NA;NA;NA;NA;NA;NA;NA;NA;NA;NA;NA;NA;NA;NA;NA;NA;NA;NA;NA;;;;
40289;task;flow.Sequence;3_0_3_0_3;NA;NA;completion;8149.02;1175983;1175970.1;1175986.78;1184135.8;1184141;2023-05-28T18:52:19Z;1184152.38;NULL;Ausschluss;kutengwa;d;NA;NA;NA;NA;qt;NA;3;NA;NA;NA;NA;NA;NA;NA;NA;NA;NA;NA;NA;NA;NA;NA;NA;NA;NA;NA;;;;
40289;deep;flow.Sequence;3_0_3_0_4_0;NA;NA;skipped;NA;1184142;NA;NA;1184135.8;1184142;2023-05-28T18:52:19Z;1184152.38;NULL;Verstand;ufahamivu;s;shakawa;hadhari;mhandisi;NA;qt;NA;3;NA;NA;NA;NA;NA;NA;NA;NA;NA;NA;NA;NA;NA;NA;NA;NA;NA;NA;NA;;;;
40289;Shallow;Question;html.Page;3_0_3_0_4_1_0;NA;NA;form;submission;3576.62;1184143;1184135.8;1184152.38;1187729;1187729;2023-05-28T18:52:23Z;1187735.18;NULL;Verstand;ufahamivu;s;shakawa;hadhari;mhandisi;ufahamivu;NA;NA;3;NA;NA;NA;NA;NA;NA;NA;NA;NA;NA;NA;NA;NA;NA;NA;NA;NA;NA;NA;;
40289;"""Richtig""-Screen";canvas.Screen;3_0_3_0_4_1_1;NA;NA;timeout;4997.98;1187733;1187727.96;1187735.18;1192718.2;1192720;2023-05-28T18:52:28Z;1192733.16;NULL;Verstand;ufahamivu;s;shakawa;hadhari;mhandisi;NA;qt;1;3;NA;NA;NA;NA;NA;NA;NA;NA;NA;NA;NA;NA;NA;NA;NA;NA;NA;NA;NA;;;;
40289;"""Falsch""-Screen";canvas.Screen;3_0_3_0_4_1_2;NA;NA;skipped;NA;1192724;NA;NA;1192718.2;1192725;2023-05-28T18:52:28Z;1192733.16;NULL;Verstand;ufahamivu;s;shakawa;hadhari;mhandisi;NA;qt;NA;3;NA;NA;NA;NA;NA;NA;NA;NA;NA;NA;NA;NA;NA;NA;NA;NA;NA;NA;NA;;;;
40289;shallow;flow.Sequence;3_0_3_0_4_1;NA;NA;completion;8565.82;1184143;1184135.8;1184152.38;1192718.2;1192725;2023-05-28T18:52:28Z;1192733.16;NULL;Verstand;ufahamivu;s;shakawa;hadhari;mhandisi;NA;qt;NA;3;NA;NA;NA;NA;NA;NA;NA;NA;NA;NA;NA;NA;NA;NA;NA;NA;NA;NA;NA;;;;
40289;task;flow.Sequence;3_0_3_0_4;NA;NA;completion;8565.82;1184141;1184135.8;1184152.38;1192718.2;1192725;2023-05-28T18:52:28Z;1192733.16;NULL;Verstand;ufahamivu;s;shakawa;hadhari;mhandisi;NA;qt;NA;3;NA;NA;NA;NA;NA;NA;NA;NA;NA;NA;NA;NA;NA;NA;NA;NA;NA;NA;NA;;;;
40289;Deep;Question;html.Page;3_0_3_0_5_0_0;NA;NA;form;submission;3543.84;1192726;1192718.2;1192733.16;1196277;1196278;2023-05-28T18:52:32Z;1196284.08;NULL;Gelegenheit;wakati;d;NA;NA;NA;wakati;NA;NA;3;NA;NA;NA;NA;NA;NA;NA;NA;NA;NA;NA;NA;NA;NA;NA;NA;NA;NA;NA;;
40289;"""Richtig""-Screen";canvas.Screen;3_0_3_0_5_0_1;NA;NA;timeout;4999.44;1196280;1196276.04;1196284.08;1201266.86;1201268;2023-05-28T18:52:37Z;1201283.52;NULL;Gelegenheit;wakati;d;NA;NA;NA;NA;qt;1;3;NA;NA;NA;NA;NA;NA;NA;NA;NA;NA;NA;NA;NA;NA;NA;NA;NA;NA;NA;;;;
40289;"""Falsch""-Screen";canvas.Screen;3_0_3_0_5_0_2;NA;NA;skipped;NA;1201273;NA;NA;1201266.86;1201273;2023-05-28T18:52:37Z;1201283.52;NULL;Gelegenheit;wakati;d;NA;NA;NA;NA;qt;NA;3;NA;NA;NA;NA;NA;NA;NA;NA;NA;NA;NA;NA;NA;NA;NA;NA;NA;NA;NA;;;;
40289;deep;flow.Sequence;3_0_3_0_5_0;NA;NA;completion;8533.7;1192725;1192718.2;1192733.16;1201266.86;1201273;2023-05-28T18:52:37Z;1201283.52;NULL;Gelegenheit;wakati;d;NA;NA;NA;NA;qt;NA;3;NA;NA;NA;NA;NA;NA;NA;NA;NA;NA;NA;NA;NA;NA;NA;NA;NA;NA;NA;;;;
40289;shallow;flow.Sequence;3_0_3_0_5_1;NA;NA;skipped;NA;1201273;NA;NA;1201266.86;1201274;2023-05-28T18:52:37Z;1201283.52;NULL;Gelegenheit;wakati;d;NA;NA;NA;NA;qt;NA;3;NA;NA;NA;NA;NA;NA;NA;NA;NA;NA;NA;NA;NA;NA;NA;NA;NA;NA;NA;;;;
40289;task;flow.Sequence;3_0_3_0_5;NA;NA;completion;8533.7;1192725;1192718.2;1192733.16;1201266.86;1201274;2023-05-28T18:52:37Z;1201283.52;NULL;Gelegenheit;wakati;d;NA;NA;NA;NA;qt;NA;3;NA;NA;NA;NA;NA;NA;NA;NA;NA;NA;NA;NA;NA;NA;NA;NA;NA;NA;NA;;;;
40289;deep;flow.Sequence;3_0_3_0_6_0;NA;NA;skipped;NA;1201274;NA;NA;1201266.86;1201274;2023-05-28T18:52:37Z;1201283.52;NULL;Widerstand;usulubu;s;kusababisha;mwalimu;mwenendo;NA;qt;NA;3;NA;NA;NA;NA;NA;NA;NA;NA;NA;NA;NA;NA;NA;NA;NA;NA;NA;NA;NA;;;;
40289;Shallow;Question;html.Page;3_0_3_0_6_1_0;NA;NA;form;submission;6279.48;1201275;1201266.86;1201283.52;1207563;1207563;2023-05-28T18:52:43Z;1207566.02;NULL;Widerstand;usulubu;s;kusababisha;mwalimu;mwenendo;usulubu;NA;NA;3;NA;NA;NA;NA;NA;NA;NA;NA;NA;NA;NA;NA;NA;NA;NA;NA;NA;NA;NA;;
40289;"""Richtig""-Screen";canvas.Screen;3_0_3_0_6_1_1;NA;NA;timeout;4999.28;1207567;1207561.36;1207566.02;1212548.78;1212550;2023-05-28T18:52:48Z;1212565.3;NULL;Widerstand;usulubu;s;kusababisha;mwalimu;mwenendo;NA;qt;1;3;NA;NA;NA;NA;NA;NA;NA;NA;NA;NA;NA;NA;NA;NA;NA;NA;NA;NA;NA;;;;
40289;"""Falsch""-Screen";canvas.Screen;3_0_3_0_6_1_2;NA;NA;skipped;NA;1212557;NA;NA;1212548.78;1212558;2023-05-28T18:52:48Z;1212565.3;NULL;Widerstand;usulubu;s;kusababisha;mwalimu;mwenendo;NA;qt;NA;3;NA;NA;NA;NA;NA;NA;NA;NA;NA;NA;NA;NA;NA;NA;NA;NA;NA;NA;NA;;;;
40289;shallow;flow.Sequence;3_0_3_0_6_1;NA;NA;completion;11265.26;1201274;1201266.86;1201283.52;1212548.78;1212558;2023-05-28T18:52:48Z;1212565.3;NULL;Widerstand;usulubu;s;kusababisha;mwalimu;mwenendo;NA;qt;NA;3;NA;NA;NA;NA;NA;NA;NA;NA;NA;NA;NA;NA;NA;NA;NA;NA;NA;NA;NA;;;;
40289;task;flow.Sequence;3_0_3_0_6;NA;NA;completion;11265.26;1201274;1201266.86;1201283.52;1212548.78;1212559;2023-05-28T18:52:48Z;1212565.3;NULL;Widerstand;usulubu;s;kusababisha;mwalimu;mwenendo;NA;qt;NA;3;NA;NA;NA;NA;NA;NA;NA;NA;NA;NA;NA;NA;NA;NA;NA;NA;NA;NA;NA;;;;
40289;Deep;Question;html.Page;3_0_3_0_7_0_0;NA;NA;form;submission;5615.7;1212560;1212548.78;1212565.3;1218181;1218181;2023-05-28T18:52:53Z;1218181.34;NULL;Notfall;dharura;d;NA;NA;NA;wakati;NA;NA;3;NA;NA;NA;NA;NA;NA;NA;NA;NA;NA;NA;NA;NA;NA;NA;NA;NA;NA;NA;;
40289;"""Richtig""-Screen";canvas.Screen;3_0_3_0_7_0_1;NA;NA;skipped;NA;1218184;NA;NA;1218181;1218184;2023-05-28T18:52:53Z;1218181.34;NULL;Notfall;dharura;d;NA;NA;NA;NA;qt;NA;3;NA;NA;NA;NA;NA;NA;NA;NA;NA;NA;NA;NA;NA;NA;NA;NA;NA;NA;NA;;;;
40289;"""Falsch""-Screen";canvas.Screen;3_0_3_0_7_0_2;NA;NA;timeout;4999.58;1218188;1218179.4;1218181.34;1223164.1;1223166;2023-05-28T18:52:58Z;1223180.92;NULL;Notfall;dharura;d;NA;NA;NA;NA;qt;0;3;NA;NA;NA;NA;NA;NA;NA;NA;NA;NA;NA;NA;NA;NA;NA;NA;NA;NA;NA;;;;
40289;deep;flow.Sequence;3_0_3_0_7_0;NA;NA;completion;10598.8;1212560;1212548.78;1212565.3;1223164.1;1223166;2023-05-28T18:52:58Z;1223180.92;NULL;Notfall;dharura;d;NA;NA;NA;NA;qt;NA;3;NA;NA;NA;NA;NA;NA;NA;NA;NA;NA;NA;NA;NA;NA;NA;NA;NA;NA;NA;;;;
40289;shallow;flow.Sequence;3_0_3_0_7_1;NA;NA;skipped;NA;1223167;NA;NA;1223164.1;1223167;2023-05-28T18:52:58Z;1223180.92;NULL;Notfall;dharura;d;NA;NA;NA;NA;qt;NA;3;NA;NA;NA;NA;NA;NA;NA;NA;NA;NA;NA;NA;NA;NA;NA;NA;NA;NA;NA;;;;
40289;task;flow.Sequence;3_0_3_0_7;NA;NA;completion;10598.8;1212559;1212548.78;1212565.3;1223164.1;1223167;2023-05-28T18:52:58Z;1223180.92;NULL;Notfall;dharura;d;NA;NA;NA;NA;qt;NA;3;NA;NA;NA;NA;NA;NA;NA;NA;NA;NA;NA;NA;NA;NA;NA;NA;NA;NA;NA;;;;
40289;block;flow.Loop;3_0_3_0;NA;NA;completion;78160.16;1145003;1145003.64;1145003.94;1223164.1;1223168;2023-05-28T18:52:58Z;1223180.92;NULL;NA;NA;NA;NA;NA;NA;NA;qt;NA;3;NA;NA;NA;NA;NA;NA;NA;NA;NA;NA;NA;NA;NA;NA;NA;NA;NA;NA;NA;;;;
40289;weiter;canvas.Screen;3_0_3_1;sdf;keypress(Space);response;947.08;1223168;1223164.1;1223180.92;1224128;1224139;2023-05-28T18:52:59Z;1224967.52;NULL;NA;NA;NA;NA;NA;NA;NA;qt;NA;3;NA;NA;NA;NA;NA;NA;NA;NA;NA;NA;NA;NA;NA;NA;NA;NA;NA;NA;NA;;;;
40289;check;continue;flow.Sequence;3_0_3;NA;NA;completion;79124.06;1145003;1145003.64;1145003.94;1224128;1224140;2023-05-28T18:52:59Z;1224967.52;NULL;NA;NA;NA;NA;NA;NA;NA;qt;NA;3;NA;NA;NA;NA;NA;NA;NA;NA;NA;NA;NA;NA;NA;NA;NA;NA;NA;NA;NA;;;
40289;check;continue;flow.Sequence;3_0_4;NA;NA;skipped;NA;1224214;NA;NA;1224128;1224214;2023-05-28T18:52:59Z;1224967.52;NULL;NA;NA;NA;NA;NA;NA;NA;sd;NA;4;NA;NA;NA;NA;NA;NA;NA;NA;NA;NA;NA;NA;NA;NA;NA;NA;NA;NA;NA;;;
40289;check;continue;flow.Sequence;3_0_5;NA;NA;skipped;NA;1224248;NA;NA;1224128;1224249;2023-05-28T18:53:00Z;1224967.52;NULL;NA;NA;NA;NA;NA;NA;NA;sdf;NA;5;NA;NA;NA;NA;NA;NA;NA;NA;NA;NA;NA;NA;NA;NA;NA;NA;NA;NA;NA;;;
40289;check;continue;flow.Sequence;3_0_6;NA;NA;skipped;NA;1224290;NA;NA;1224128;1224290;2023-05-28T18:53:00Z;1224967.52;NULL;NA;NA;NA;NA;NA;NA;NA;dfs;NA;6;NA;NA;NA;NA;NA;NA;NA;NA;NA;NA;NA;NA;NA;NA;NA;NA;NA;NA;NA;;;
40289;check;continue;flow.Sequence;3_0_7;NA;NA;skipped;NA;1224325;NA;NA;1224128;1224325;2023-05-28T18:53:00Z;1224967.52;NULL;NA;NA;NA;NA;NA;NA;NA;df;NA;7;NA;NA;NA;NA;NA;NA;NA;NA;NA;NA;NA;NA;NA;NA;NA;NA;NA;NA;NA;;;
40289;check;continue;flow.Sequence;3_0_8;NA;NA;skipped;NA;1224355;NA;NA;1224128;1224355;2023-05-28T18:53:00Z;1224967.52;NULL;NA;NA;NA;NA;NA;NA;NA;dfs;NA;8;NA;NA;NA;NA;NA;NA;NA;NA;NA;NA;NA;NA;NA;NA;NA;NA;NA;NA;NA;;;
40289;check;continue;flow.Sequence;3_0_9;NA;NA;skipped;NA;1224385;NA;NA;1224128;1224385;2023-05-28T18:53:00Z;1224967.52;NULL;NA;NA;NA;NA;NA;NA;NA;dsf;NA;9;NA;NA;NA;NA;NA;NA;NA;NA;NA;NA;NA;NA;NA;NA;NA;NA;NA;NA;NA;;;
40289;check;continue;flow.Sequence;3_0_10;NA;NA;skipped;NA;1224412;NA;NA;1224128;1224412;2023-05-28T18:53:00Z;1224967.52;NULL;NA;NA;NA;NA;NA;NA;NA;df;NA;10;NA;NA;NA;NA;NA;NA;NA;NA;NA;NA;NA;NA;NA;NA;NA;NA;NA;NA;NA;;;
40289;check;continue;flow.Sequence;3_0_11;NA;NA;skipped;NA;1224441;NA;NA;1224128;1224441;2023-05-28T18:53:00Z;1224967.52;NULL;NA;NA;NA;NA;NA;NA;NA;dfs;NA;11;NA;NA;NA;NA;NA;NA;NA;NA;NA;NA;NA;NA;NA;NA;NA;NA;NA;NA;NA;;;
40289;check;continue;flow.Sequence;3_0_12;NA;NA;skipped;NA;1224473;NA;NA;1224128;1224473;2023-05-28T18:53:00Z;1224967.52;NULL;NA;NA;NA;NA;NA;NA;NA;dsf;NA;12;NA;NA;NA;NA;NA;NA;NA;NA;NA;NA;NA;NA;NA;NA;NA;NA;NA;NA;NA;;;
40289;check;continue;flow.Sequence;3_0_13;NA;NA;skipped;NA;1224504;NA;NA;1224128;1224504;2023-05-28T18:53:00Z;1224967.52;NULL;NA;NA;NA;NA;NA;NA;NA;dsf;NA;13;NA;NA;NA;NA;NA;NA;NA;NA;NA;NA;NA;NA;NA;NA;NA;NA;NA;NA;NA;;;
40289;check;continue;flow.Sequence;3_0_14;NA;NA;skipped;NA;1224534;NA;NA;1224128;1224534;2023-05-28T18:53:00Z;1224967.52;NULL;NA;NA;NA;NA;NA;NA;NA;NA;NA;14;NA;NA;NA;NA;NA;NA;NA;NA;NA;NA;NA;NA;NA;NA;NA;NA;NA;NA;NA;;;
40289;check;continue;flow.Sequence;3_0_15;NA;NA;skipped;NA;1224561;NA;NA;1224128;1224562;2023-05-28T18:53:00Z;1224967.52;NULL;NA;NA;NA;NA;NA;NA;NA;NA;NA;15;NA;NA;NA;NA;NA;NA;NA;NA;NA;NA;NA;NA;NA;NA;NA;NA;NA;NA;NA;;;
40289;check;continue;flow.Sequence;3_0_16;NA;NA;skipped;NA;1224588;NA;NA;1224128;1224588;2023-05-28T18:53:00Z;1224967.52;NULL;NA;NA;NA;NA;NA;NA;NA;NA;NA;16;NA;NA;NA;NA;NA;NA;NA;NA;NA;NA;NA;NA;NA;NA;NA;NA;NA;NA;NA;;;
40289;check;continue;flow.Sequence;3_0_17;NA;NA;skipped;NA;1224617;NA;NA;1224128;1224617;2023-05-28T18:53:00Z;1224967.52;NULL;NA;NA;NA;NA;NA;NA;NA;NA;NA;17;NA;NA;NA;NA;NA;NA;NA;NA;NA;NA;NA;NA;NA;NA;NA;NA;NA;NA;NA;;;
40289;check;continue;flow.Sequence;3_0_18;NA;NA;skipped;NA;1224644;NA;NA;1224128;1224644;2023-05-28T18:53:00Z;1224967.52;NULL;NA;NA;NA;NA;NA;NA;NA;NA;NA;18;NA;NA;NA;NA;NA;NA;NA;NA;NA;NA;NA;NA;NA;NA;NA;NA;NA;NA;NA;;;
40289;check;continue;flow.Sequence;3_0_19;NA;NA;skipped;NA;1224674;NA;NA;1224128;1224675;2023-05-28T18:53:00Z;1224967.52;NULL;NA;NA;NA;NA;NA;NA;NA;NA;NA;19;NA;NA;NA;NA;NA;NA;NA;NA;NA;NA;NA;NA;NA;NA;NA;NA;NA;NA;NA;;;
40289;check;continue;flow.Sequence;3_0_20;NA;NA;skipped;NA;1224702;NA;NA;1224128;1224702;2023-05-28T18:53:00Z;1224967.52;NULL;NA;NA;NA;NA;NA;NA;NA;NA;NA;20;NA;NA;NA;NA;NA;NA;NA;NA;NA;NA;NA;NA;NA;NA;NA;NA;NA;NA;NA;;;
40289;check;continue;flow.Sequence;3_0_21;NA;NA;skipped;NA;1224728;NA;NA;1224128;1224728;2023-05-28T18:53:00Z;1224967.52;NULL;NA;NA;NA;NA;NA;NA;NA;NA;NA;21;NA;NA;NA;NA;NA;NA;NA;NA;NA;NA;NA;NA;NA;NA;NA;NA;NA;NA;NA;;;
40289;check;continue;flow.Sequence;3_0_22;NA;NA;skipped;NA;1224763;NA;NA;1224128;1224763;2023-05-28T18:53:00Z;1224967.52;NULL;NA;NA;NA;NA;NA;NA;NA;NA;NA;22;NA;NA;NA;NA;NA;NA;NA;NA;NA;NA;NA;NA;NA;NA;NA;NA;NA;NA;NA;;;
40289;check;continue;flow.Sequence;3_0_23;NA;NA;skipped;NA;1224790;NA;NA;1224128;1224790;2023-05-28T18:53:00Z;1224967.52;NULL;NA;NA;NA;NA;NA;NA;NA;NA;NA;23;NA;NA;NA;NA;NA;NA;NA;NA;NA;NA;NA;NA;NA;NA;NA;NA;NA;NA;NA;;;
40289;check;continue;flow.Sequence;3_0_24;NA;NA;skipped;NA;1224820;NA;NA;1224128;1224820;2023-05-28T18:53:00Z;1224967.52;NULL;NA;NA;NA;NA;NA;NA;NA;NA;NA;24;NA;NA;NA;NA;NA;NA;NA;NA;NA;NA;NA;NA;NA;NA;NA;NA;NA;NA;NA;;;
40289;check;continue;flow.Sequence;3_0_25;NA;NA;skipped;NA;1224856;NA;NA;1224128;1224856;2023-05-28T18:53:00Z;1224967.52;NULL;NA;NA;NA;NA;NA;NA;NA;NA;NA;25;NA;NA;NA;NA;NA;NA;NA;NA;NA;NA;NA;NA;NA;NA;NA;NA;NA;NA;NA;;;
40289;check;continue;flow.Sequence;3_0_26;NA;NA;skipped;NA;1224883;NA;NA;1224128;1224883;2023-05-28T18:53:00Z;1224967.52;NULL;NA;NA;NA;NA;NA;NA;NA;NA;NA;26;NA;NA;NA;NA;NA;NA;NA;NA;NA;NA;NA;NA;NA;NA;NA;NA;NA;NA;NA;;;
40289;check;continue;flow.Sequence;3_0_27;NA;NA;skipped;NA;1224914;NA;NA;1224128;1224914;2023-05-28T18:53:00Z;1224967.52;NULL;NA;NA;NA;NA;NA;NA;NA;NA;NA;27;NA;NA;NA;NA;NA;NA;NA;NA;NA;NA;NA;NA;NA;NA;NA;NA;NA;NA;NA;;;
40289;check;continue;flow.Sequence;3_0_28;NA;NA;skipped;NA;1224941;NA;NA;1224128;1224941;2023-05-28T18:53:00Z;1224967.52;NULL;NA;NA;NA;NA;NA;NA;NA;NA;NA;28;NA;NA;NA;NA;NA;NA;NA;NA;NA;NA;NA;NA;NA;NA;NA;NA;NA;NA;NA;;;
40289;check;continue;flow.Sequence;3_0_29;NA;NA;skipped;NA;1224967;NA;NA;1224128;1224967;2023-05-28T18:53:00Z;1224967.52;NULL;NA;NA;NA;NA;NA;NA;NA;NA;NA;29;NA;NA;NA;NA;NA;NA;NA;NA;NA;NA;NA;NA;NA;NA;NA;NA;NA;NA;NA;;;
40289;until;continue;flow.Loop;3_0;NA;NA;completion;344367.14;879715;879760.56;879760.86;1224128;1224967;2023-05-28T18:53:00Z;1224967.52;NULL;NA;NA;NA;NA;NA;NA;NA;NA;NA;NA;NA;NA;NA;NA;NA;NA;NA;NA;NA;NA;NA;NA;NA;NA;NA;NA;NA;NA;NA;;;
40289;block;1;flow.Sequence;3;NA;NA;completion;344367.14;879715;879760.56;879760.86;1224128;1224967;2023-05-28T18:53:00Z;1224967.52;NULL;NA;NA;NA;NA;NA;NA;NA;NA;NA;NA;NA;NA;NA;NA;NA;NA;NA;NA;NA;NA;NA;NA;NA;NA;NA;NA;NA;NA;NA;;;
40289;1.Part;Over;canvas.Screen;4;NA;keypress(Space);response;4378.48;1224967;1224967.12;1224967.52;1229346;1229353;2023-05-28T18:53:05Z;1229438.48;NULL;NA;NA;NA;NA;NA;NA;NA;NA;NA;NA;NA;NA;NA;NA;NA;NA;NA;NA;NA;NA;NA;NA;NA;NA;NA;NA;NA;NA;NA;;;
40289;Deep;Question;html.Page;5_0_0_0_0_0_0;NA;NA;form;submission;2480.52;1229439;1229438.2;1229438.48;1231919;1231919;2023-05-28T18:53:07Z;1231929.62;NULL;Konkurrent;mshindani;d;NA;NA;NA;lkj;NA;NA;0;NA;NA;NA;NA;NA;NA;NA;NA;NA;NA;NA;NA;NA;NA;NA;NA;NA;NA;NA;;
40289;"""Richtig""-Screen";canvas.Screen;5_0_0_0_0_0_1;NA;NA;skipped;NA;1231922;NA;NA;1231919;1231922;2023-05-28T18:53:07Z;1231929.62;NULL;Konkurrent;mshindani;d;NA;NA;NA;NA;sdf;NA;0;NA;NA;NA;NA;NA;NA;NA;NA;NA;NA;NA;NA;NA;NA;NA;NA;NA;NA;NA;;;;
40289;"""Falsch""-Screen";canvas.Screen;5_0_0_0_0_0_2;NA;NA;timeout;4999.36;1231924;1231918.08;1231929.62;1236912.3;1236914;2023-05-28T18:53:12Z;1236928.98;NULL;Konkurrent;mshindani;d;NA;NA;NA;NA;sdf;0;0;NA;NA;NA;NA;NA;NA;NA;NA;NA;NA;NA;NA;NA;NA;NA;NA;NA;NA;NA;;;;
40289;deep;flow.Sequence;5_0_0_0_0_0;NA;NA;completion;7473.82;1229439;1229438.2;1229438.48;1236912.3;1236915;2023-05-28T18:53:12Z;1236928.98;NULL;Konkurrent;mshindani;d;NA;NA;NA;NA;sdf;NA;0;NA;NA;NA;NA;NA;NA;NA;NA;NA;NA;NA;NA;NA;NA;NA;NA;NA;NA;NA;;;;
40289;shallow;flow.Sequence;5_0_0_0_0_1;NA;NA;skipped;NA;1236915;NA;NA;1236912.3;1236915;2023-05-28T18:53:12Z;1236928.98;NULL;Konkurrent;mshindani;d;NA;NA;NA;NA;sdf;NA;0;NA;NA;NA;NA;NA;NA;NA;NA;NA;NA;NA;NA;NA;NA;NA;NA;NA;NA;NA;;;;
40289;task;flow.Sequence;5_0_0_0_0;NA;NA;completion;7473.82;1229439;1229438.2;1229438.48;1236912.3;1236916;2023-05-28T18:53:12Z;1236928.98;NULL;Konkurrent;mshindani;d;NA;NA;NA;NA;sdf;NA;0;NA;NA;NA;NA;NA;NA;NA;NA;NA;NA;NA;NA;NA;NA;NA;NA;NA;NA;NA;;;;
40289;Deep;Question;html.Page;5_0_0_0_1_0_0;NA;NA;form;submission;3272.02;1236916;1236912.3;1236928.98;1240201;1240201;2023-05-28T18:53:15Z;1240200.1;NULL;Vorsorge;tahadhari;d;NA;NA;NA;kjhkj;NA;NA;0;NA;NA;NA;NA;NA;NA;NA;NA;NA;NA;NA;NA;NA;NA;NA;NA;NA;NA;NA;;
40289;"""Richtig""-Screen";canvas.Screen;5_0_0_0_1_0_1;NA;NA;skipped;NA;1240204;NA;NA;1240201;1240204;2023-05-28T18:53:15Z;1240200.1;NULL;Vorsorge;tahadhari;d;NA;NA;NA;NA;sdf;NA;0;NA;NA;NA;NA;NA;NA;NA;NA;NA;NA;NA;NA;NA;NA;NA;NA;NA;NA;NA;;;;
40289;"""Falsch""-Screen";canvas.Screen;5_0_0_0_1_0_2;NA;NA;timeout;4993.1;1240206;1240199.74;1240200.1;1245177.98;1245180;2023-05-28T18:53:20Z;1245193.2;NULL;Vorsorge;tahadhari;d;NA;NA;NA;NA;sdf;0;0;NA;NA;NA;NA;NA;NA;NA;NA;NA;NA;NA;NA;NA;NA;NA;NA;NA;NA;NA;;;;
40289;deep;flow.Sequence;5_0_0_0_1_0;NA;NA;completion;8249;1236916;1236912.3;1236928.98;1245177.98;1245180;2023-05-28T18:53:20Z;1245193.2;NULL;Vorsorge;tahadhari;d;NA;NA;NA;NA;sdf;NA;0;NA;NA;NA;NA;NA;NA;NA;NA;NA;NA;NA;NA;NA;NA;NA;NA;NA;NA;NA;;;;
40289;shallow;flow.Sequence;5_0_0_0_1_1;NA;NA;skipped;NA;1245180;NA;NA;1245177.98;1245180;2023-05-28T18:53:20Z;1245193.2;NULL;Vorsorge;tahadhari;d;NA;NA;NA;NA;sdf;NA;0;NA;NA;NA;NA;NA;NA;NA;NA;NA;NA;NA;NA;NA;NA;NA;NA;NA;NA;NA;;;;
40289;task;flow.Sequence;5_0_0_0_1;NA;NA;completion;8249;1236916;1236912.3;1236928.98;1245177.98;1245181;2023-05-28T18:53:20Z;1245193.2;NULL;Vorsorge;tahadhari;d;NA;NA;NA;NA;sdf;NA;0;NA;NA;NA;NA;NA;NA;NA;NA;NA;NA;NA;NA;NA;NA;NA;NA;NA;NA;NA;;;;
40289;deep;flow.Sequence;5_0_0_0_2_0;NA;NA;skipped;NA;1245181;NA;NA;1245177.98;1245181;2023-05-28T18:53:20Z;1245193.2;NULL;Fenster;dirisha;s;walakini;tasawari;maarifa;NA;sdf;NA;0;NA;NA;NA;NA;NA;NA;NA;NA;NA;NA;NA;NA;NA;NA;NA;NA;NA;NA;NA;;;;
40289;Shallow;Question;html.Page;5_0_0_0_2_1_0;NA;NA;form;submission;2883.8;1245181;1245177.98;1245193.2;1248077;1248077;2023-05-28T18:53:23Z;1248077.58;NULL;Fenster;dirisha;s;walakini;tasawari;maarifa;walakini;NA;NA;0;NA;NA;NA;NA;NA;NA;NA;NA;NA;NA;NA;NA;NA;NA;NA;NA;NA;NA;NA;;
40289;"""Richtig""-Screen";canvas.Screen;5_0_0_0_2_1_1;NA;NA;skipped;NA;1248079;NA;NA;1248077;1248079;2023-05-28T18:53:23Z;1248077.58;NULL;Fenster;dirisha;s;walakini;tasawari;maarifa;NA;sdf;NA;0;NA;NA;NA;NA;NA;NA;NA;NA;NA;NA;NA;NA;NA;NA;NA;NA;NA;NA;NA;;;;
40289;"""Falsch""-Screen";canvas.Screen;5_0_0_0_2_1_2;NA;NA;timeout;4999.38;1248082;1248074.84;1248077.58;1253060.32;1253061;2023-05-28T18:53:28Z;1253076.96;NULL;Fenster;dirisha;s;walakini;tasawari;maarifa;NA;sdf;0;0;NA;NA;NA;NA;NA;NA;NA;NA;NA;NA;NA;NA;NA;NA;NA;NA;NA;NA;NA;;;;
40289;shallow;flow.Sequence;5_0_0_0_2_1;NA;NA;completion;7867.12;1245181;1245177.98;1245193.2;1253060.32;1253061;2023-05-28T18:53:28Z;1253076.96;NULL;Fenster;dirisha;s;walakini;tasawari;maarifa;NA;sdf;NA;0;NA;NA;NA;NA;NA;NA;NA;NA;NA;NA;NA;NA;NA;NA;NA;NA;NA;NA;NA;;;;
40289;task;flow.Sequence;5_0_0_0_2;NA;NA;completion;7867.12;1245181;1245177.98;1245193.2;1253060.32;1253062;2023-05-28T18:53:28Z;1253076.96;NULL;Fenster;dirisha;s;walakini;tasawari;maarifa;NA;sdf;NA;0;NA;NA;NA;NA;NA;NA;NA;NA;NA;NA;NA;NA;NA;NA;NA;NA;NA;NA;NA;;;;
40289;deep;flow.Sequence;5_0_0_0_3_0;NA;NA;skipped;NA;1253063;NA;NA;1253060.32;1253063;2023-05-28T18:53:28Z;1253076.96;NULL;Zuwachs;nyongeza;s;matilaba;udhibiti;hudhurio;NA;sdf;NA;0;NA;NA;NA;NA;NA;NA;NA;NA;NA;NA;NA;NA;NA;NA;NA;NA;NA;NA;NA;;;;
40289;Shallow;Question;html.Page;5_0_0_0_3_1_0;NA;NA;form;submission;1979.04;1253063;1253060.32;1253076.96;1255056;1255056;2023-05-28T18:53:30Z;1255059.96;NULL;Zuwachs;nyongeza;s;matilaba;udhibiti;hudhurio;nyongeza;NA;NA;0;NA;NA;NA;NA;NA;NA;NA;NA;NA;NA;NA;NA;NA;NA;NA;NA;NA;NA;NA;;
40289;"""Richtig""-Screen";canvas.Screen;5_0_0_0_3_1_1;NA;NA;timeout;4999.36;1255059;1255054.88;1255059.96;1260042.7;1260043;2023-05-28T18:53:35Z;1260059.32;NULL;Zuwachs;nyongeza;s;matilaba;udhibiti;hudhurio;NA;sdf;1;0;NA;NA;NA;NA;NA;NA;NA;NA;NA;NA;NA;NA;NA;NA;NA;NA;NA;NA;NA;;;;
40289;"""Falsch""-Screen";canvas.Screen;5_0_0_0_3_1_2;NA;NA;skipped;NA;1260046;NA;NA;1260042.7;1260046;2023-05-28T18:53:35Z;1260059.32;NULL;Zuwachs;nyongeza;s;matilaba;udhibiti;hudhurio;NA;sdf;NA;0;NA;NA;NA;NA;NA;NA;NA;NA;NA;NA;NA;NA;NA;NA;NA;NA;NA;NA;NA;;;;
40289;shallow;flow.Sequence;5_0_0_0_3_1;NA;NA;completion;6965.74;1253063;1253060.32;1253076.96;1260042.7;1260047;2023-05-28T18:53:35Z;1260059.32;NULL;Zuwachs;nyongeza;s;matilaba;udhibiti;hudhurio;NA;sdf;NA;0;NA;NA;NA;NA;NA;NA;NA;NA;NA;NA;NA;NA;NA;NA;NA;NA;NA;NA;NA;;;;
40289;task;flow.Sequence;5_0_0_0_3;NA;NA;completion;6965.74;1253063;1253060.32;1253076.96;1260042.7;1260047;2023-05-28T18:53:35Z;1260059.32;NULL;Zuwachs;nyongeza;s;matilaba;udhibiti;hudhurio;NA;sdf;NA;0;NA;NA;NA;NA;NA;NA;NA;NA;NA;NA;NA;NA;NA;NA;NA;NA;NA;NA;NA;;;;
40289;Deep;Question;html.Page;5_0_0_0_4_0_0;NA;NA;form;submission;2607.68;1260047;1260042.7;1260059.32;1262667;1262667;2023-05-28T18:53:38Z;1262675.68;NULL;Tester;wanaojaribu;d;NA;NA;NA;jb;NA;NA;0;NA;NA;NA;NA;NA;NA;NA;NA;NA;NA;NA;NA;NA;NA;NA;NA;NA;NA;NA;;
40289;"""Richtig""-Screen";canvas.Screen;5_0_0_0_4_0_1;NA;NA;skipped;NA;1262670;NA;NA;1262667;1262670;2023-05-28T18:53:38Z;1262675.68;NULL;Tester;wanaojaribu;d;NA;NA;NA;NA;sdf;NA;0;NA;NA;NA;NA;NA;NA;NA;NA;NA;NA;NA;NA;NA;NA;NA;NA;NA;NA;NA;;;;
40289;"""Falsch""-Screen";canvas.Screen;5_0_0_0_4_0_2;NA;NA;timeout;4999.36;1262672;1262665.7;1262675.68;1267658.56;1267661;2023-05-28T18:53:43Z;1267675.04;NULL;Tester;wanaojaribu;d;NA;NA;NA;NA;sdf;0;0;NA;NA;NA;NA;NA;NA;NA;NA;NA;NA;NA;NA;NA;NA;NA;NA;NA;NA;NA;;;;
40289;deep;flow.Sequence;5_0_0_0_4_0;NA;NA;completion;7599.24;1260047;1260042.7;1260059.32;1267658.56;1267661;2023-05-28T18:53:43Z;1267675.04;NULL;Tester;wanaojaribu;d;NA;NA;NA;NA;sdf;NA;0;NA;NA;NA;NA;NA;NA;NA;NA;NA;NA;NA;NA;NA;NA;NA;NA;NA;NA;NA;;;;
40289;shallow;flow.Sequence;5_0_0_0_4_1;NA;NA;skipped;NA;1267662;NA;NA;1267658.56;1267662;2023-05-28T18:53:43Z;1267675.04;NULL;Tester;wanaojaribu;d;NA;NA;NA;NA;sdf;NA;0;NA;NA;NA;NA;NA;NA;NA;NA;NA;NA;NA;NA;NA;NA;NA;NA;NA;NA;NA;;;;
40289;task;flow.Sequence;5_0_0_0_4;NA;NA;completion;7599.24;1260047;1260042.7;1260059.32;1267658.56;1267663;2023-05-28T18:53:43Z;1267675.04;NULL;Tester;wanaojaribu;d;NA;NA;NA;NA;sdf;NA;0;NA;NA;NA;NA;NA;NA;NA;NA;NA;NA;NA;NA;NA;NA;NA;NA;NA;NA;NA;;;;
40289;deep;flow.Sequence;5_0_0_0_5_0;NA;NA;skipped;NA;1267663;NA;NA;1267658.56;1267663;2023-05-28T18:53:43Z;1267675.04;NULL;Symbol;kielezo;s;kinyume;nderemo;utayari;NA;sdf;NA;0;NA;NA;NA;NA;NA;NA;NA;NA;NA;NA;NA;NA;NA;NA;NA;NA;NA;NA;NA;;;;
40289;Shallow;Question;html.Page;5_0_0_0_5_1_0;NA;NA;form;submission;2500.96;1267664;1267658.56;1267675.04;1270176;1270176;2023-05-28T18:53:45Z;1270175.76;NULL;Symbol;kielezo;s;kinyume;nderemo;utayari;kinyume;NA;NA;0;NA;NA;NA;NA;NA;NA;NA;NA;NA;NA;NA;NA;NA;NA;NA;NA;NA;NA;NA;;
40289;"""Richtig""-Screen";canvas.Screen;5_0_0_0_5_1_1;NA;NA;skipped;NA;1270178;NA;NA;1270176;1270178;2023-05-28T18:53:45Z;1270175.76;NULL;Symbol;kielezo;s;kinyume;nderemo;utayari;NA;sdf;NA;0;NA;NA;NA;NA;NA;NA;NA;NA;NA;NA;NA;NA;NA;NA;NA;NA;NA;NA;NA;;;;
40289;"""Falsch""-Screen";canvas.Screen;5_0_0_0_5_1_2;NA;NA;timeout;4998.3;1270179;1270175.48;1270175.76;1275157.78;1275159;2023-05-28T18:53:50Z;1275174.06;NULL;Symbol;kielezo;s;kinyume;nderemo;utayari;NA;sdf;0;0;NA;NA;NA;NA;NA;NA;NA;NA;NA;NA;NA;NA;NA;NA;NA;NA;NA;NA;NA;;;;
40289;shallow;flow.Sequence;5_0_0_0_5_1;NA;NA;completion;7482.74;1267664;1267658.56;1267675.04;1275157.78;1275160;2023-05-28T18:53:50Z;1275174.06;NULL;Symbol;kielezo;s;kinyume;nderemo;utayari;NA;sdf;NA;0;NA;NA;NA;NA;NA;NA;NA;NA;NA;NA;NA;NA;NA;NA;NA;NA;NA;NA;NA;;;;
40289;task;flow.Sequence;5_0_0_0_5;NA;NA;completion;7482.74;1267663;1267658.56;1267675.04;1275157.78;1275161;2023-05-28T18:53:50Z;1275174.06;NULL;Symbol;kielezo;s;kinyume;nderemo;utayari;NA;sdf;NA;0;NA;NA;NA;NA;NA;NA;NA;NA;NA;NA;NA;NA;NA;NA;NA;NA;NA;NA;NA;;;;
40289;Deep;Question;html.Page;5_0_0_0_6_0_0;NA;NA;form;submission;2785.94;1275161;1275157.78;1275174.06;1277960;1277960;2023-05-28T18:53:53Z;1277958.8;NULL;Schüler;mwanafunzi;d;NA;NA;NA;jhl;NA;NA;0;NA;NA;NA;NA;NA;NA;NA;NA;NA;NA;NA;NA;NA;NA;NA;NA;NA;NA;NA;;
40289;"""Richtig""-Screen";canvas.Screen;5_0_0_0_6_0_1;NA;NA;skipped;NA;1277962;NA;NA;1277960;1277962;2023-05-28T18:53:53Z;1277958.8;NULL;Schüler;mwanafunzi;d;NA;NA;NA;NA;sdf;NA;0;NA;NA;NA;NA;NA;NA;NA;NA;NA;NA;NA;NA;NA;NA;NA;NA;NA;NA;NA;;;;
40289;"""Falsch""-Screen";canvas.Screen;5_0_0_0_6_0_2;NA;NA;timeout;4997.66;1277965;1277958.44;1277958.8;1282939.92;1282942;2023-05-28T18:53:58Z;1282956.46;NULL;Schüler;mwanafunzi;d;NA;NA;NA;NA;sdf;0;0;NA;NA;NA;NA;NA;NA;NA;NA;NA;NA;NA;NA;NA;NA;NA;NA;NA;NA;NA;;;;
40289;deep;flow.Sequence;5_0_0_0_6_0;NA;NA;completion;7765.86;1275161;1275157.78;1275174.06;1282939.92;1282942;2023-05-28T18:53:58Z;1282956.46;NULL;Schüler;mwanafunzi;d;NA;NA;NA;NA;sdf;NA;0;NA;NA;NA;NA;NA;NA;NA;NA;NA;NA;NA;NA;NA;NA;NA;NA;NA;NA;NA;;;;
40289;shallow;flow.Sequence;5_0_0_0_6_1;NA;NA;skipped;NA;1282942;NA;NA;1282939.92;1282943;2023-05-28T18:53:58Z;1282956.46;NULL;Schüler;mwanafunzi;d;NA;NA;NA;NA;sdf;NA;0;NA;NA;NA;NA;NA;NA;NA;NA;NA;NA;NA;NA;NA;NA;NA;NA;NA;NA;NA;;;;
40289;task;flow.Sequence;5_0_0_0_6;NA;NA;completion;7765.86;1275161;1275157.78;1275174.06;1282939.92;1282943;2023-05-28T18:53:58Z;1282956.46;NULL;Schüler;mwanafunzi;d;NA;NA;NA;NA;sdf;NA;0;NA;NA;NA;NA;NA;NA;NA;NA;NA;NA;NA;NA;NA;NA;NA;NA;NA;NA;NA;;;;
40289;deep;flow.Sequence;5_0_0_0_7_0;NA;NA;skipped;NA;1282943;NA;NA;1282939.92;1282943;2023-05-28T18:53:58Z;1282956.46;NULL;Spionage;upelelezi;s;maslahi;utokazo;magangao;NA;sdf;NA;0;NA;NA;NA;NA;NA;NA;NA;NA;NA;NA;NA;NA;NA;NA;NA;NA;NA;NA;NA;;;;
40289;Shallow;Question;html.Page;5_0_0_0_7_1_0;NA;NA;form;submission;8631.54;1282944;1282939.92;1282956.46;1291588;1291589;2023-05-28T18:54:07Z;1291588.68;NULL;Spionage;upelelezi;s;maslahi;utokazo;magangao;magangao;NA;NA;0;NA;NA;NA;NA;NA;NA;NA;NA;NA;NA;NA;NA;NA;NA;NA;NA;NA;NA;NA;;
40289;"""Richtig""-Screen";canvas.Screen;5_0_0_0_7_1_1;NA;NA;skipped;NA;1291596;NA;NA;1291588;1291596;2023-05-28T18:54:07Z;1291588.68;NULL;Spionage;upelelezi;s;maslahi;utokazo;magangao;NA;sdf;NA;0;NA;NA;NA;NA;NA;NA;NA;NA;NA;NA;NA;NA;NA;NA;NA;NA;NA;NA;NA;;;;
40289;"""Falsch""-Screen";canvas.Screen;5_0_0_0_7_1_2;NA;NA;timeout;4999.42;1291599;1291585.88;1291588.68;1296571.48;1296573;2023-05-28T18:54:12Z;1296588.1;NULL;Spionage;upelelezi;s;maslahi;utokazo;magangao;NA;sdf;0;0;NA;NA;NA;NA;NA;NA;NA;NA;NA;NA;NA;NA;NA;NA;NA;NA;NA;NA;NA;;;;
40289;shallow;flow.Sequence;5_0_0_0_7_1;NA;NA;completion;13615.02;1282943;1282939.92;1282956.46;1296571.48;1296575;2023-05-28T18:54:12Z;1296588.1;NULL;Spionage;upelelezi;s;maslahi;utokazo;magangao;NA;sdf;NA;0;NA;NA;NA;NA;NA;NA;NA;NA;NA;NA;NA;NA;NA;NA;NA;NA;NA;NA;NA;;;;
40289;task;flow.Sequence;5_0_0_0_7;NA;NA;completion;13615.02;1282943;1282939.92;1282956.46;1296571.48;1296576;2023-05-28T18:54:12Z;1296588.1;NULL;Spionage;upelelezi;s;maslahi;utokazo;magangao;NA;sdf;NA;0;NA;NA;NA;NA;NA;NA;NA;NA;NA;NA;NA;NA;NA;NA;NA;NA;NA;NA;NA;;;;
40289;block;flow.Loop;5_0_0_0;NA;NA;completion;67133;1229439;1229438.2;1229438.48;1296571.48;1296579;2023-05-28T18:54:12Z;1296588.1;NULL;NA;NA;NA;NA;NA;NA;NA;sdf;NA;0;NA;NA;NA;NA;NA;NA;NA;NA;NA;NA;NA;NA;NA;NA;NA;NA;NA;NA;NA;;;;
40289;weiter;canvas.Screen;5_0_0_1;sdf;keypress(Space);response;1961.9;1296580;1296571.48;1296588.1;1298550;1298556;2023-05-28T18:54:14Z;1298623.04;NULL;NA;NA;NA;NA;NA;NA;NA;sdf;NA;0;NA;NA;NA;NA;NA;NA;NA;NA;NA;NA;NA;NA;NA;NA;NA;NA;NA;NA;NA;;;;
40289;check;continue;flow.Sequence;5_0_0;NA;NA;completion;69111.52;1229439;1229438.2;1229438.48;1298550;1298557;2023-05-28T18:54:14Z;1298623.04;NULL;NA;NA;NA;NA;NA;NA;NA;sdf;NA;0;NA;NA;NA;NA;NA;NA;NA;NA;NA;NA;NA;NA;NA;NA;NA;NA;NA;NA;NA;;;
40289;deep;flow.Sequence;5_0_1_0_0_0;NA;NA;skipped;NA;1298623;NA;NA;1298550;1298623;2023-05-28T18:54:14Z;1298623.04;NULL;Fenster;dirisha;s;walakini;tasawari;maarifa;NA;sdfdsf;NA;1;NA;NA;NA;NA;NA;NA;NA;NA;NA;NA;NA;NA;NA;NA;NA;NA;NA;NA;NA;;;;
40289;Shallow;Question;html.Page;5_0_1_0_0_1_0;NA;NA;form;submission;3845.96;1298623;1298622.74;1298623.04;1302469;1302469;2023-05-28T18:54:18Z;1302470.68;NULL;Fenster;dirisha;s;walakini;tasawari;maarifa;dirisha;NA;NA;1;NA;NA;NA;NA;NA;NA;NA;NA;NA;NA;NA;NA;NA;NA;NA;NA;NA;NA;NA;;
40289;"""Richtig""-Screen";canvas.Screen;5_0_1_0_0_1_1;NA;NA;timeout;4999.28;1302472;1302467.14;1302470.68;1307453.8;1307456;2023-05-28T18:54:23Z;1307469.96;NULL;Fenster;dirisha;s;walakini;tasawari;maarifa;NA;sdfdsf;1;1;NA;NA;NA;NA;NA;NA;NA;NA;NA;NA;NA;NA;NA;NA;NA;NA;NA;NA;NA;;;;
40289;"""Falsch""-Screen";canvas.Screen;5_0_1_0_0_1_2;NA;NA;skipped;NA;1307465;NA;NA;1307453.8;1307465;2023-05-28T18:54:23Z;1307469.96;NULL;Fenster;dirisha;s;walakini;tasawari;maarifa;NA;sdfdsf;NA;1;NA;NA;NA;NA;NA;NA;NA;NA;NA;NA;NA;NA;NA;NA;NA;NA;NA;NA;NA;;;;
40289;shallow;flow.Sequence;5_0_1_0_0_1;NA;NA;completion;8830.76;1298623;1298622.74;1298623.04;1307453.8;1307465;2023-05-28T18:54:23Z;1307469.96;NULL;Fenster;dirisha;s;walakini;tasawari;maarifa;NA;sdfdsf;NA;1;NA;NA;NA;NA;NA;NA;NA;NA;NA;NA;NA;NA;NA;NA;NA;NA;NA;NA;NA;;;;
40289;task;flow.Sequence;5_0_1_0_0;NA;NA;completion;8830.76;1298623;1298622.74;1298623.04;1307453.8;1307466;2023-05-28T18:54:23Z;1307469.96;NULL;Fenster;dirisha;s;walakini;tasawari;maarifa;NA;sdfdsf;NA;1;NA;NA;NA;NA;NA;NA;NA;NA;NA;NA;NA;NA;NA;NA;NA;NA;NA;NA;NA;;;;
40289;deep;flow.Sequence;5_0_1_0_1_0;NA;NA;skipped;NA;1307466;NA;NA;1307453.8;1307466;2023-05-28T18:54:23Z;1307469.96;NULL;Spionage;upelelezi;s;maslahi;utokazo;magangao;NA;sdfdsf;NA;1;NA;NA;NA;NA;NA;NA;NA;NA;NA;NA;NA;NA;NA;NA;NA;NA;NA;NA;NA;;;;
40289;Shallow;Question;html.Page;5_0_1_0_1_1_0;NA;NA;form;submission;4745.04;1307466;1307453.8;1307469.96;1312215;1312215;2023-05-28T18:54:27Z;1312219.36;NULL;Spionage;upelelezi;s;maslahi;utokazo;magangao;upelelezi;NA;NA;1;NA;NA;NA;NA;NA;NA;NA;NA;NA;NA;NA;NA;NA;NA;NA;NA;NA;NA;NA;;
40289;"""Richtig""-Screen";canvas.Screen;5_0_1_0_1_1_1;NA;NA;timeout;4999.4;1312219;1312213.44;1312219.36;1317202.3;1317204;2023-05-28T18:54:32Z;1317218.76;NULL;Spionage;upelelezi;s;maslahi;utokazo;magangao;NA;sdfdsf;1;1;NA;NA;NA;NA;NA;NA;NA;NA;NA;NA;NA;NA;NA;NA;NA;NA;NA;NA;NA;;;;
40289;"""Falsch""-Screen";canvas.Screen;5_0_1_0_1_1_2;NA;NA;skipped;NA;1317211;NA;NA;1317202.3;1317212;2023-05-28T18:54:32Z;1317218.76;NULL;Spionage;upelelezi;s;maslahi;utokazo;magangao;NA;sdfdsf;NA;1;NA;NA;NA;NA;NA;NA;NA;NA;NA;NA;NA;NA;NA;NA;NA;NA;NA;NA;NA;;;;
40289;shallow;flow.Sequence;5_0_1_0_1_1;NA;NA;completion;9732.34;1307466;1307453.8;1307469.96;1317202.3;1317212;2023-05-28T18:54:32Z;1317218.76;NULL;Spionage;upelelezi;s;maslahi;utokazo;magangao;NA;sdfdsf;NA;1;NA;NA;NA;NA;NA;NA;NA;NA;NA;NA;NA;NA;NA;NA;NA;NA;NA;NA;NA;;;;
40289;task;flow.Sequence;5_0_1_0_1;NA;NA;completion;9732.34;1307466;1307453.8;1307469.96;1317202.3;1317213;2023-05-28T18:54:32Z;1317218.76;NULL;Spionage;upelelezi;s;maslahi;utokazo;magangao;NA;sdfdsf;NA;1;NA;NA;NA;NA;NA;NA;NA;NA;NA;NA;NA;NA;NA;NA;NA;NA;NA;NA;NA;;;;
40289;Deep;Question;html.Page;5_0_1_0_2_0_0;NA;NA;form;submission;4818.24;1317213;1317202.3;1317218.76;1322037;1322037;2023-05-28T18:54:37Z;1322035.6;NULL;Tester;wanaojaribu;d;NA;NA;NA;lkjh;NA;NA;1;NA;NA;NA;NA;NA;NA;NA;NA;NA;NA;NA;NA;NA;NA;NA;NA;NA;NA;NA;;
40289;"""Richtig""-Screen";canvas.Screen;5_0_1_0_2_0_1;NA;NA;skipped;NA;1322039;NA;NA;1322037;1322040;2023-05-28T18:54:37Z;1322035.6;NULL;Tester;wanaojaribu;d;NA;NA;NA;NA;sdfdsf;NA;1;NA;NA;NA;NA;NA;NA;NA;NA;NA;NA;NA;NA;NA;NA;NA;NA;NA;NA;NA;;;;
40289;"""Falsch""-Screen";canvas.Screen;5_0_1_0_2_0_2;NA;NA;timeout;4998.64;1322043;1322035.32;1322035.6;1327017.68;1327020;2023-05-28T18:54:42Z;1327034.24;NULL;Tester;wanaojaribu;d;NA;NA;NA;NA;sdfdsf;0;1;NA;NA;NA;NA;NA;NA;NA;NA;NA;NA;NA;NA;NA;NA;NA;NA;NA;NA;NA;;;;
40289;deep;flow.Sequence;5_0_1_0_2_0;NA;NA;completion;9798.92;1317213;1317202.3;1317218.76;1327017.68;1327020;2023-05-28T18:54:42Z;1327034.24;NULL;Tester;wanaojaribu;d;NA;NA;NA;NA;sdfdsf;NA;1;NA;NA;NA;NA;NA;NA;NA;NA;NA;NA;NA;NA;NA;NA;NA;NA;NA;NA;NA;;;;
40289;shallow;flow.Sequence;5_0_1_0_2_1;NA;NA;skipped;NA;1327021;NA;NA;1327017.68;1327021;2023-05-28T18:54:42Z;1327034.24;NULL;Tester;wanaojaribu;d;NA;NA;NA;NA;sdfdsf;NA;1;NA;NA;NA;NA;NA;NA;NA;NA;NA;NA;NA;NA;NA;NA;NA;NA;NA;NA;NA;;;;
40289;task;flow.Sequence;5_0_1_0_2;NA;NA;completion;9798.92;1317213;1317202.3;1317218.76;1327017.68;1327021;2023-05-28T18:54:42Z;1327034.24;NULL;Tester;wanaojaribu;d;NA;NA;NA;NA;sdfdsf;NA;1;NA;NA;NA;NA;NA;NA;NA;NA;NA;NA;NA;NA;NA;NA;NA;NA;NA;NA;NA;;;;
40289;Deep;Question;html.Page;5_0_1_0_3_0_0;NA;NA;form;submission;3448.76;1327022;1327017.68;1327034.24;1330483;1330483;2023-05-28T18:54:46Z;1330483.78;NULL;Konkurrent;mshindani;d;NA;NA;NA;jhk;NA;NA;1;NA;NA;NA;NA;NA;NA;NA;NA;NA;NA;NA;NA;NA;NA;NA;NA;NA;NA;NA;;
40289;"""Richtig""-Screen";canvas.Screen;5_0_1_0_3_0_1;NA;NA;skipped;NA;1330486;NA;NA;1330483;1330486;2023-05-28T18:54:46Z;1330483.78;NULL;Konkurrent;mshindani;d;NA;NA;NA;NA;sdfdsf;NA;1;NA;NA;NA;NA;NA;NA;NA;NA;NA;NA;NA;NA;NA;NA;NA;NA;NA;NA;NA;;;;
40289;"""Falsch""-Screen";canvas.Screen;5_0_1_0_3_0_2;NA;NA;timeout;4999.34;1330489;1330481.74;1330483.78;1335466.58;1335467;2023-05-28T18:54:51Z;1335483.12;NULL;Konkurrent;mshindani;d;NA;NA;NA;NA;sdfdsf;0;1;NA;NA;NA;NA;NA;NA;NA;NA;NA;NA;NA;NA;NA;NA;NA;NA;NA;NA;NA;;;;
40289;deep;flow.Sequence;5_0_1_0_3_0;NA;NA;completion;8432.34;1327022;1327017.68;1327034.24;1335466.58;1335468;2023-05-28T18:54:51Z;1335483.12;NULL;Konkurrent;mshindani;d;NA;NA;NA;NA;sdfdsf;NA;1;NA;NA;NA;NA;NA;NA;NA;NA;NA;NA;NA;NA;NA;NA;NA;NA;NA;NA;NA;;;;
40289;shallow;flow.Sequence;5_0_1_0_3_1;NA;NA;skipped;NA;1335468;NA;NA;1335466.58;1335469;2023-05-28T18:54:51Z;1335483.12;NULL;Konkurrent;mshindani;d;NA;NA;NA;NA;sdfdsf;NA;1;NA;NA;NA;NA;NA;NA;NA;NA;NA;NA;NA;NA;NA;NA;NA;NA;NA;NA;NA;;;;
40289;task;flow.Sequence;5_0_1_0_3;NA;NA;completion;8432.34;1327022;1327017.68;1327034.24;1335466.58;1335469;2023-05-28T18:54:51Z;1335483.12;NULL;Konkurrent;mshindani;d;NA;NA;NA;NA;sdfdsf;NA;1;NA;NA;NA;NA;NA;NA;NA;NA;NA;NA;NA;NA;NA;NA;NA;NA;NA;NA;NA;;;;
40289;deep;flow.Sequence;5_0_1_0_4_0;NA;NA;skipped;NA;1335470;NA;NA;1335466.58;1335470;2023-05-28T18:54:51Z;1335483.12;NULL;Zuwachs;nyongeza;s;matilaba;udhibiti;hudhurio;NA;sdfdsf;NA;1;NA;NA;NA;NA;NA;NA;NA;NA;NA;NA;NA;NA;NA;NA;NA;NA;NA;NA;NA;;;;
40289;Shallow;Question;html.Page;5_0_1_0_4_1_0;NA;NA;form;submission;3600.88;1335470;1335466.58;1335483.12;1339084;1339084;2023-05-28T18:54:54Z;1339083.02;NULL;Zuwachs;nyongeza;s;matilaba;udhibiti;hudhurio;nyongeza;NA;NA;1;NA;NA;NA;NA;NA;NA;NA;NA;NA;NA;NA;NA;NA;NA;NA;NA;NA;NA;NA;;
40289;"""Richtig""-Screen";canvas.Screen;5_0_1_0_4_1_1;NA;NA;timeout;4999.1;1339087;1339081.8;1339083.02;1344065.44;1344067;2023-05-28T18:54:59Z;1344082.12;NULL;Zuwachs;nyongeza;s;matilaba;udhibiti;hudhurio;NA;sdfdsf;1;1;NA;NA;NA;NA;NA;NA;NA;NA;NA;NA;NA;NA;NA;NA;NA;NA;NA;NA;NA;;;;
40289;"""Falsch""-Screen";canvas.Screen;5_0_1_0_4_1_2;NA;NA;skipped;NA;1344073;NA;NA;1344065.44;1344074;2023-05-28T18:54:59Z;1344082.12;NULL;Zuwachs;nyongeza;s;matilaba;udhibiti;hudhurio;NA;sdfdsf;NA;1;NA;NA;NA;NA;NA;NA;NA;NA;NA;NA;NA;NA;NA;NA;NA;NA;NA;NA;NA;;;;
40289;shallow;flow.Sequence;5_0_1_0_4_1;NA;NA;completion;8582.32;1335470;1335466.58;1335483.12;1344065.44;1344074;2023-05-28T18:54:59Z;1344082.12;NULL;Zuwachs;nyongeza;s;matilaba;udhibiti;hudhurio;NA;sdfdsf;NA;1;NA;NA;NA;NA;NA;NA;NA;NA;NA;NA;NA;NA;NA;NA;NA;NA;NA;NA;NA;;;;
40289;task;flow.Sequence;5_0_1_0_4;NA;NA;completion;8582.32;1335470;1335466.58;1335483.12;1344065.44;1344075;2023-05-28T18:54:59Z;1344082.12;NULL;Zuwachs;nyongeza;s;matilaba;udhibiti;hudhurio;NA;sdfdsf;NA;1;NA;NA;NA;NA;NA;NA;NA;NA;NA;NA;NA;NA;NA;NA;NA;NA;NA;NA;NA;;;;
40289;deep;flow.Sequence;5_0_1_0_5_0;NA;NA;skipped;NA;1344076;NA;NA;1344065.44;1344076;2023-05-28T18:54:59Z;1344082.12;NULL;Symbol;kielezo;s;kinyume;nderemo;utayari;NA;sdfdsf;NA;1;NA;NA;NA;NA;NA;NA;NA;NA;NA;NA;NA;NA;NA;NA;NA;NA;NA;NA;NA;;;;
40289;Shallow;Question;html.Page;5_0_1_0_5_1_0;NA;NA;form;submission;7232.88;1344076;1344065.44;1344082.12;1351315;1351316;2023-05-28T18:55:07Z;1351314.5;NULL;Symbol;kielezo;s;kinyume;nderemo;utayari;kielezo;NA;NA;1;NA;NA;NA;NA;NA;NA;NA;NA;NA;NA;NA;NA;NA;NA;NA;NA;NA;NA;NA;;
40289;"""Richtig""-Screen";canvas.Screen;5_0_1_0_5_1_1;NA;NA;timeout;4999.34;1351325;1351311.82;1351314.5;1356297.44;1356299;2023-05-28T18:55:12Z;1356313.84;NULL;Symbol;kielezo;s;kinyume;nderemo;utayari;NA;sdfdsf;1;1;NA;NA;NA;NA;NA;NA;NA;NA;NA;NA;NA;NA;NA;NA;NA;NA;NA;NA;NA;;;;
40289;"""Falsch""-Screen";canvas.Screen;5_0_1_0_5_1_2;NA;NA;skipped;NA;1356305;NA;NA;1356297.44;1356305;2023-05-28T18:55:12Z;1356313.84;NULL;Symbol;kielezo;s;kinyume;nderemo;utayari;NA;sdfdsf;NA;1;NA;NA;NA;NA;NA;NA;NA;NA;NA;NA;NA;NA;NA;NA;NA;NA;NA;NA;NA;;;;
40289;shallow;flow.Sequence;5_0_1_0_5_1;NA;NA;completion;12215.32;1344076;1344065.44;1344082.12;1356297.44;1356306;2023-05-28T18:55:12Z;1356313.84;NULL;Symbol;kielezo;s;kinyume;nderemo;utayari;NA;sdfdsf;NA;1;NA;NA;NA;NA;NA;NA;NA;NA;NA;NA;NA;NA;NA;NA;NA;NA;NA;NA;NA;;;;
40289;task;flow.Sequence;5_0_1_0_5;NA;NA;completion;12215.32;1344075;1344065.44;1344082.12;1356297.44;1356306;2023-05-28T18:55:12Z;1356313.84;NULL;Symbol;kielezo;s;kinyume;nderemo;utayari;NA;sdfdsf;NA;1;NA;NA;NA;NA;NA;NA;NA;NA;NA;NA;NA;NA;NA;NA;NA;NA;NA;NA;NA;;;;
40289;Deep;Question;html.Page;5_0_1_0_6_0_0;NA;NA;form;submission;5440.16;1356307;1356297.44;1356313.84;1361754;1361755;2023-05-28T18:55:17Z;1361763.1;NULL;Schüler;mwanafunzi;d;NA;NA;NA;mwanafunzi;NA;NA;1;NA;NA;NA;NA;NA;NA;NA;NA;NA;NA;NA;NA;NA;NA;NA;NA;NA;NA;NA;;
40289;"""Richtig""-Screen";canvas.Screen;5_0_1_0_6_0_1;NA;NA;timeout;4999.42;1361759;1361753.16;1361763.1;1366745.9;1366747;2023-05-28T18:55:22Z;1366762.52;NULL;Schüler;mwanafunzi;d;NA;NA;NA;NA;sdfdsf;1;1;NA;NA;NA;NA;NA;NA;NA;NA;NA;NA;NA;NA;NA;NA;NA;NA;NA;NA;NA;;;;
40289;"""Falsch""-Screen";canvas.Screen;5_0_1_0_6_0_2;NA;NA;skipped;NA;1366758;NA;NA;1366745.9;1366758;2023-05-28T18:55:22Z;1366762.52;NULL;Schüler;mwanafunzi;d;NA;NA;NA;NA;sdfdsf;NA;1;NA;NA;NA;NA;NA;NA;NA;NA;NA;NA;NA;NA;NA;NA;NA;NA;NA;NA;NA;;;;
40289;deep;flow.Sequence;5_0_1_0_6_0;NA;NA;completion;10432.06;1356307;1356297.44;1356313.84;1366745.9;1366759;2023-05-28T18:55:22Z;1366762.52;NULL;Schüler;mwanafunzi;d;NA;NA;NA;NA;sdfdsf;NA;1;NA;NA;NA;NA;NA;NA;NA;NA;NA;NA;NA;NA;NA;NA;NA;NA;NA;NA;NA;;;;
40289;shallow;flow.Sequence;5_0_1_0_6_1;NA;NA;skipped;NA;1366759;NA;NA;1366745.9;1366760;2023-05-28T18:55:22Z;1366762.52;NULL;Schüler;mwanafunzi;d;NA;NA;NA;NA;sdfdsf;NA;1;NA;NA;NA;NA;NA;NA;NA;NA;NA;NA;NA;NA;NA;NA;NA;NA;NA;NA;NA;;;;
40289;task;flow.Sequence;5_0_1_0_6;NA;NA;completion;10432.06;1356307;1356297.44;1356313.84;1366745.9;1366761;2023-05-28T18:55:22Z;1366762.52;NULL;Schüler;mwanafunzi;d;NA;NA;NA;NA;sdfdsf;NA;1;NA;NA;NA;NA;NA;NA;NA;NA;NA;NA;NA;NA;NA;NA;NA;NA;NA;NA;NA;;;;
40289;Deep;Question;html.Page;5_0_1_0_7_0_0;NA;NA;form;submission;3927.48;1366762;1366745.9;1366762.52;1370690;1370690;2023-05-28T18:55:26Z;1370695.38;NULL;Vorsorge;tahadhari;d;NA;NA;NA;mshindani;NA;NA;1;NA;NA;NA;NA;NA;NA;NA;NA;NA;NA;NA;NA;NA;NA;NA;NA;NA;NA;NA;;
40289;"""Richtig""-Screen";canvas.Screen;5_0_1_0_7_0_1;NA;NA;skipped;NA;1370693;NA;NA;1370690;1370693;2023-05-28T18:55:26Z;1370695.38;NULL;Vorsorge;tahadhari;d;NA;NA;NA;NA;sdfdsf;NA;1;NA;NA;NA;NA;NA;NA;NA;NA;NA;NA;NA;NA;NA;NA;NA;NA;NA;NA;NA;;;;
40289;"""Falsch""-Screen";canvas.Screen;5_0_1_0_7_0_2;NA;NA;timeout;4999.34;1370698;1370688.26;1370695.38;1375678.16;1375680;2023-05-28T18:55:31Z;1375694.72;NULL;Vorsorge;tahadhari;d;NA;NA;NA;NA;sdfdsf;0;1;NA;NA;NA;NA;NA;NA;NA;NA;NA;NA;NA;NA;NA;NA;NA;NA;NA;NA;NA;;;;
40289;deep;flow.Sequence;5_0_1_0_7_0;NA;NA;completion;8915.64;1366762;1366745.9;1366762.52;1375678.16;1375681;2023-05-28T18:55:31Z;1375694.72;NULL;Vorsorge;tahadhari;d;NA;NA;NA;NA;sdfdsf;NA;1;NA;NA;NA;NA;NA;NA;NA;NA;NA;NA;NA;NA;NA;NA;NA;NA;NA;NA;NA;;;;
40289;shallow;flow.Sequence;5_0_1_0_7_1;NA;NA;skipped;NA;1375681;NA;NA;1375678.16;1375682;2023-05-28T18:55:31Z;1375694.72;NULL;Vorsorge;tahadhari;d;NA;NA;NA;NA;sdfdsf;NA;1;NA;NA;NA;NA;NA;NA;NA;NA;NA;NA;NA;NA;NA;NA;NA;NA;NA;NA;NA;;;;
40289;task;flow.Sequence;5_0_1_0_7;NA;NA;completion;8915.64;1366761;1366745.9;1366762.52;1375678.16;1375682;2023-05-28T18:55:31Z;1375694.72;NULL;Vorsorge;tahadhari;d;NA;NA;NA;NA;sdfdsf;NA;1;NA;NA;NA;NA;NA;NA;NA;NA;NA;NA;NA;NA;NA;NA;NA;NA;NA;NA;NA;;;;
40289;block;flow.Loop;5_0_1_0;NA;NA;completion;77055.12;1298623;1298622.74;1298623.04;1375678.16;1375683;2023-05-28T18:55:31Z;1375694.72;NULL;NA;NA;NA;NA;NA;NA;NA;sdfdsf;NA;1;NA;NA;NA;NA;NA;NA;NA;NA;NA;NA;NA;NA;NA;NA;NA;NA;NA;NA;NA;;;;
40289;weiter;canvas.Screen;5_0_1_1;sdf;keypress(Space);response;1088.28;1375684;1375678.16;1375694.72;1376783;1376803;2023-05-28T18:55:32Z;1376871.94;NULL;NA;NA;NA;NA;NA;NA;NA;sdfdsf;NA;1;NA;NA;NA;NA;NA;NA;NA;NA;NA;NA;NA;NA;NA;NA;NA;NA;NA;NA;NA;;;;
40289;check;continue;flow.Sequence;5_0_1;NA;NA;completion;78159.96;1298622;1298622.74;1298623.04;1376783;1376803;2023-05-28T18:55:32Z;1376871.94;NULL;NA;NA;NA;NA;NA;NA;NA;sdfdsf;NA;1;NA;NA;NA;NA;NA;NA;NA;NA;NA;NA;NA;NA;NA;NA;NA;NA;NA;NA;NA;;;
40289;deep;flow.Sequence;5_0_2_0_0_0;NA;NA;skipped;NA;1376871;NA;NA;1376783;1376871;2023-05-28T18:55:32Z;1376871.94;NULL;Spionage;upelelezi;s;maslahi;utokazo;magangao;NA;sdf;NA;2;NA;NA;NA;NA;NA;NA;NA;NA;NA;NA;NA;NA;NA;NA;NA;NA;NA;NA;NA;;;;
40289;Shallow;Question;html.Page;5_0_2_0_0_1_0;NA;NA;form;submission;3608.06;1376871;1376871.64;1376871.94;1380480;1380480;2023-05-28T18:55:36Z;1380478.94;NULL;Spionage;upelelezi;s;maslahi;utokazo;magangao;upelelezi;NA;NA;2;NA;NA;NA;NA;NA;NA;NA;NA;NA;NA;NA;NA;NA;NA;NA;NA;NA;NA;NA;;
40289;"""Richtig""-Screen";canvas.Screen;5_0_2_0_0_1_1;NA;NA;timeout;4997.9;1380483;1380478.52;1380478.94;1385460.2;1385462;2023-05-28T18:55:41Z;1385476.84;NULL;Spionage;upelelezi;s;maslahi;utokazo;magangao;NA;sdf;1;2;NA;NA;NA;NA;NA;NA;NA;NA;NA;NA;NA;NA;NA;NA;NA;NA;NA;NA;NA;;;;
40289;"""Falsch""-Screen";canvas.Screen;5_0_2_0_0_1_2;NA;NA;skipped;NA;1385471;NA;NA;1385460.2;1385471;2023-05-28T18:55:41Z;1385476.84;NULL;Spionage;upelelezi;s;maslahi;utokazo;magangao;NA;sdf;NA;2;NA;NA;NA;NA;NA;NA;NA;NA;NA;NA;NA;NA;NA;NA;NA;NA;NA;NA;NA;;;;
40289;shallow;flow.Sequence;5_0_2_0_0_1;NA;NA;completion;8588.26;1376871;1376871.64;1376871.94;1385460.2;1385472;2023-05-28T18:55:41Z;1385476.84;NULL;Spionage;upelelezi;s;maslahi;utokazo;magangao;NA;sdf;NA;2;NA;NA;NA;NA;NA;NA;NA;NA;NA;NA;NA;NA;NA;NA;NA;NA;NA;NA;NA;;;;
40289;task;flow.Sequence;5_0_2_0_0;NA;NA;completion;8588.26;1376871;1376871.64;1376871.94;1385460.2;1385472;2023-05-28T18:55:41Z;1385476.84;NULL;Spionage;upelelezi;s;maslahi;utokazo;magangao;NA;sdf;NA;2;NA;NA;NA;NA;NA;NA;NA;NA;NA;NA;NA;NA;NA;NA;NA;NA;NA;NA;NA;;;;
40289;Deep;Question;html.Page;5_0_2_0_1_0_0;NA;NA;form;submission;5055.16;1385472;1385460.2;1385476.84;1390532;1390533;2023-05-28T18:55:46Z;1390531.12;NULL;Schüler;mwanafunzi;d;NA;NA;NA;mwanafunzi;NA;NA;2;NA;NA;NA;NA;NA;NA;NA;NA;NA;NA;NA;NA;NA;NA;NA;NA;NA;NA;NA;;
40289;"""Richtig""-Screen";canvas.Screen;5_0_2_0_1_0_1;NA;NA;timeout;4994.46;1390536;1390530.8;1390531.12;1395509.06;1395511;2023-05-28T18:55:51Z;1395525.58;NULL;Schüler;mwanafunzi;d;NA;NA;NA;NA;sdf;1;2;NA;NA;NA;NA;NA;NA;NA;NA;NA;NA;NA;NA;NA;NA;NA;NA;NA;NA;NA;;;;
40289;"""Falsch""-Screen";canvas.Screen;5_0_2_0_1_0_2;NA;NA;skipped;NA;1395518;NA;NA;1395509.06;1395518;2023-05-28T18:55:51Z;1395525.58;NULL;Schüler;mwanafunzi;d;NA;NA;NA;NA;sdf;NA;2;NA;NA;NA;NA;NA;NA;NA;NA;NA;NA;NA;NA;NA;NA;NA;NA;NA;NA;NA;;;;
