observation,sender,sender_type,sender_id,response,response_action,ended_on,duration,time_run,time_render,time_show,time_end,time_commit,timestamp,time_switch,distractors,german,swahili,enc,distractor1,distractor2,distractor3,response_2,x,correct,x_2,url_vp,url_sess,meta_labjs_version,meta_location,meta_user_agent,meta_platform,meta_language,meta_locale,meta_time_zone,meta_timezone_offset,meta_screen_width,meta_screen_height,meta_scroll_width,meta_scroll_height,meta_window_inner_width,meta_window_inner_height,meta_device_pixel_ratio,meta_labjs_build_flavor,meta_labjs_build_commit
58275,Introduction general,canvas.Screen,0,weiter,keypress(q),response,1660185.445,1001.3000000119,915.693,1032.355,1661217.8,1661223.4,2023-04-18T11:51:11Z,1661235.986,NULL,NA,NA,NA,NA,NA,NA,NA,NA,NA,NA,117,3,20.2.4,https://neurocog.fernuni.ch/studies/vweber/encoding_immediate/index.html?vp=117&sess=3,"Mozilla/5.0 (Macintosh; Intel Mac OS X 10_15_7) AppleWebKit/537.36 (KHTML, like Gecko) Chrome/112.0.0.0 Safari/537.36",MacIntel,de-DE,de,Europe/Rome,-120,1440,900,1309,676,1309,723,2.2000000476837,production,f5b4a49f956347addd546a832a3327688c2c0fef
58275,Introduction practice,canvas.Screen,1_0,NA,keypress(Space),response,2178.8140000119,1661224.1,1661219.32,1661235.986,1663414.8,1663418.6,2023-04-18T11:51:13Z,1663435.898,NULL,NA,NA,NA,NA,NA,NA,NA,NA,NA,NA,NA,NA,NA,NA,NA,NA,NA,NA,NA,NA,NA,NA,NA,NA,NA,NA,NA,NA,NA
58275,Deep Question,html.Page,1_1_0_0_0,NA,NA,form submission,4199.9020000119,1663419.2,1663419.232,1663435.898,1667635.8,1667636.2,2023-04-18T11:51:17Z,1667643.206,"c(""distractor1"", ""distractor2"", ""distractor3"")",Schatten,kivuli,d,NA,NA,NA,bodo,NA,NA,NA,NA,NA,NA,NA,NA,NA,NA,NA,NA,NA,NA,NA,NA,NA,NA,NA,NA,NA,NA
58275,"""Richtig""-Screen",canvas.Screen,1_1_0_0_1,NA,NA,skipped,NA,1667638.9,NA,NA,1667635.8,1667639.1,2023-04-18T11:51:17Z,1667643.206,"c(""distractor1"", ""distractor2"", ""distractor3"")",Schatten,kivuli,d,NA,NA,NA,NA,NA,NA,NA,NA,NA,NA,NA,NA,NA,NA,NA,NA,NA,NA,NA,NA,NA,NA,NA,NA,NA,NA
58275,"""Falsch""-Screen",canvas.Screen,1_1_0_0_2,NA,NA,timeout,4999.8,1667640.4,1667626.54,1667643.206,1672626.34,1672632.6,2023-04-18T11:51:22Z,1672643.006,"c(""distractor1"", ""distractor2"", ""distractor3"")",Schatten,kivuli,d,NA,NA,NA,NA,NA,0,NA,NA,NA,NA,NA,NA,NA,NA,NA,NA,NA,NA,NA,NA,NA,NA,NA,NA,NA,NA
58275,deep,flow.Sequence,1_1_0_0,NA,NA,completion,9190.442,1663419.1,1663419.232,1663435.898,1672626.34,1672632.9,2023-04-18T11:51:22Z,1672643.006,"c(""distractor1"", ""distractor2"", ""distractor3"")",Schatten,kivuli,d,NA,NA,NA,NA,NA,NA,NA,NA,NA,NA,NA,NA,NA,NA,NA,NA,NA,NA,NA,NA,NA,NA,NA,NA,NA,NA
58275,shallow,flow.Sequence,1_1_0_1,NA,NA,skipped,NA,1672633,NA,NA,1672626.34,1672633.1,2023-04-18T11:51:22Z,1672643.006,"c(""distractor1"", ""distractor2"", ""distractor3"")",Schatten,kivuli,d,NA,NA,NA,NA,NA,NA,NA,NA,NA,NA,NA,NA,NA,NA,NA,NA,NA,NA,NA,NA,NA,NA,NA,NA,NA,NA
58275,task,flow.Sequence,1_1_0,NA,NA,completion,9190.442,1663418.9,1663419.232,1663435.898,1672626.34,1672633.3,2023-04-18T11:51:22Z,1672643.006,"c(""distractor1"", ""distractor2"", ""distractor3"")",Schatten,kivuli,d,NA,NA,NA,NA,NA,NA,NA,NA,NA,NA,NA,NA,NA,NA,NA,NA,NA,NA,NA,NA,NA,NA,NA,NA,NA,NA
58275,deep,flow.Sequence,1_1_1_0,NA,NA,skipped,NA,1672633.5,NA,NA,1672626.34,1672633.6,2023-04-18T11:51:22Z,1672643.006,"c(""distractor1"", ""distractor2"", ""distractor3"")",Kritik,lawama,s,dereva,nafasi,mawazo,NA,NA,NA,NA,NA,NA,NA,NA,NA,NA,NA,NA,NA,NA,NA,NA,NA,NA,NA,NA,NA,NA,NA
58275,Shallow Question,html.Page,1_1_1_1_0,NA,NA,form submission,4008.4939999999,1672633.9,1672626.34,1672643.006,1676651.5,1676651.8,2023-04-18T11:51:26Z,1676664.276,"c(""distractor1"", ""distractor2"", ""distractor3"")",Kritik,lawama,s,dereva,nafasi,mawazo,nafasi,NA,NA,NA,NA,NA,NA,NA,NA,NA,NA,NA,NA,NA,NA,NA,NA,NA,NA,NA,NA,NA,NA
58275,"""Richtig""-Screen",canvas.Screen,1_1_1_1_1,NA,NA,skipped,NA,1676655,NA,NA,1676651.5,1676655.2,2023-04-18T11:51:26Z,1676664.276,"c(""distractor1"", ""distractor2"", ""distractor3"")",Kritik,lawama,s,dereva,nafasi,mawazo,NA,NA,NA,NA,NA,NA,NA,NA,NA,NA,NA,NA,NA,NA,NA,NA,NA,NA,NA,NA,NA,NA,NA
58275,"""Falsch""-Screen",canvas.Screen,1_1_1_1_2,NA,NA,timeout,4999.7999999998,1676656.8,1676647.61,1676664.276,1681647.41,1681652.6,2023-04-18T11:51:31Z,1681664.076,"c(""distractor1"", ""distractor2"", ""distractor3"")",Kritik,lawama,s,dereva,nafasi,mawazo,NA,NA,0,NA,NA,NA,NA,NA,NA,NA,NA,NA,NA,NA,NA,NA,NA,NA,NA,NA,NA,NA,NA
58275,shallow,flow.Sequence,1_1_1_1,NA,NA,completion,9004.4039999999,1672633.7,1672626.34,1672643.006,1681647.41,1681653,2023-04-18T11:51:31Z,1681664.076,"c(""distractor1"", ""distractor2"", ""distractor3"")",Kritik,lawama,s,dereva,nafasi,mawazo,NA,NA,NA,NA,NA,NA,NA,NA,NA,NA,NA,NA,NA,NA,NA,NA,NA,NA,NA,NA,NA,NA,NA
58275,task,flow.Sequence,1_1_1,NA,NA,completion,9004.4039999999,1672633.4,1672626.34,1672643.006,1681647.41,1681653.2,2023-04-18T11:51:31Z,1681664.076,"c(""distractor1"", ""distractor2"", ""distractor3"")",Kritik,lawama,s,dereva,nafasi,mawazo,NA,NA,NA,NA,NA,NA,NA,NA,NA,NA,NA,NA,NA,NA,NA,NA,NA,NA,NA,NA,NA,NA,NA
58275,deep,flow.Sequence,1_1_2_0,NA,NA,skipped,NA,1681653.4,NA,NA,1681647.41,1681653.6,2023-04-18T11:51:31Z,1681664.076,"c(""distractor1"", ""distractor2"", ""distractor3"")",Rückhalt,msaada,s,muhula,auwali,kiwimbe,NA,NA,NA,NA,NA,NA,NA,NA,NA,NA,NA,NA,NA,NA,NA,NA,NA,NA,NA,NA,NA,NA,NA
58275,Shallow Question,html.Page,1_1_2_1_0,NA,NA,form submission,6935.724000012,1681653.8,1681647.41,1681664.076,1688599.8,1688600.1,2023-04-18T11:51:38Z,1688606.336,"c(""distractor1"", ""distractor2"", ""distractor3"")",Rückhalt,msaada,s,muhula,auwali,kiwimbe,msaada,NA,NA,NA,NA,NA,NA,NA,NA,NA,NA,NA,NA,NA,NA,NA,NA,NA,NA,NA,NA,NA,NA
58275,"""Richtig""-Screen",canvas.Screen,1_1_2_1_1,NA,NA,timeout,4999.8,1688603.1,1688589.67,1688606.336,1693589.47,1693590.7,2023-04-18T11:51:43Z,1693606.136,"c(""distractor1"", ""distractor2"", ""distractor3"")",Rückhalt,msaada,s,muhula,auwali,kiwimbe,NA,NA,1,NA,NA,NA,NA,NA,NA,NA,NA,NA,NA,NA,NA,NA,NA,NA,NA,NA,NA,NA,NA
58275,"""Falsch""-Screen",canvas.Screen,1_1_2_1_2,NA,NA,skipped,NA,1693594,NA,NA,1693589.47,1693594.3,2023-04-18T11:51:43Z,1693606.136,"c(""distractor1"", ""distractor2"", ""distractor3"")",Rückhalt,msaada,s,muhula,auwali,kiwimbe,NA,NA,NA,NA,NA,NA,NA,NA,NA,NA,NA,NA,NA,NA,NA,NA,NA,NA,NA,NA,NA,NA,NA
58275,shallow,flow.Sequence,1_1_2_1,NA,NA,completion,11925.394,1681653.7,1681647.41,1681664.076,1693589.47,1693594.5,2023-04-18T11:51:43Z,1693606.136,"c(""distractor1"", ""distractor2"", ""distractor3"")",Rückhalt,msaada,s,muhula,auwali,kiwimbe,NA,NA,NA,NA,NA,NA,NA,NA,NA,NA,NA,NA,NA,NA,NA,NA,NA,NA,NA,NA,NA,NA,NA
58275,task,flow.Sequence,1_1_2,NA,NA,completion,11925.394,1681653.4,1681647.41,1681664.076,1693589.47,1693594.6,2023-04-18T11:51:43Z,1693606.136,"c(""distractor1"", ""distractor2"", ""distractor3"")",Rückhalt,msaada,s,muhula,auwali,kiwimbe,NA,NA,NA,NA,NA,NA,NA,NA,NA,NA,NA,NA,NA,NA,NA,NA,NA,NA,NA,NA,NA,NA,NA
58275,Deep Question,html.Page,1_1_3_0_0,NA,NA,form submission,4133.4639999941,1693594.8,1693589.47,1693606.136,1697739.6,1697739.9,2023-04-18T11:51:47Z,1697750.024,"c(""distractor1"", ""distractor2"", ""distractor3"")",Qualität,mtindo,d,NA,NA,NA,fono,NA,NA,NA,NA,NA,NA,NA,NA,NA,NA,NA,NA,NA,NA,NA,NA,NA,NA,NA,NA,NA,NA
58275,"""Richtig""-Screen",canvas.Screen,1_1_3_0_1,NA,NA,skipped,NA,1697742.8,NA,NA,1697739.6,1697743,2023-04-18T11:51:48Z,1697750.024,"c(""distractor1"", ""distractor2"", ""distractor3"")",Qualität,mtindo,d,NA,NA,NA,NA,NA,NA,NA,NA,NA,NA,NA,NA,NA,NA,NA,NA,NA,NA,NA,NA,NA,NA,NA,NA,NA,NA
58275,"""Falsch""-Screen",canvas.Screen,1_1_3_0_2,NA,NA,timeout,4999.8,1697744.1,1697733.358,1697750.024,1702733.158,1702737,2023-04-18T11:51:52Z,1702749.824,"c(""distractor1"", ""distractor2"", ""distractor3"")",Qualität,mtindo,d,NA,NA,NA,NA,NA,0,NA,NA,NA,NA,NA,NA,NA,NA,NA,NA,NA,NA,NA,NA,NA,NA,NA,NA,NA,NA
58275,deep,flow.Sequence,1_1_3_0,NA,NA,completion,9127.0220000001,1693594.8,1693589.47,1693606.136,1702733.158,1702737.3,2023-04-18T11:51:52Z,1702749.824,"c(""distractor1"", ""distractor2"", ""distractor3"")",Qualität,mtindo,d,NA,NA,NA,NA,NA,NA,NA,NA,NA,NA,NA,NA,NA,NA,NA,NA,NA,NA,NA,NA,NA,NA,NA,NA,NA,NA
58275,shallow,flow.Sequence,1_1_3_1,NA,NA,skipped,NA,1702737.5,NA,NA,1702733.158,1702737.5,2023-04-18T11:51:52Z,1702749.824,"c(""distractor1"", ""distractor2"", ""distractor3"")",Qualität,mtindo,d,NA,NA,NA,NA,NA,NA,NA,NA,NA,NA,NA,NA,NA,NA,NA,NA,NA,NA,NA,NA,NA,NA,NA,NA,NA,NA
58275,task,flow.Sequence,1_1_3,NA,NA,completion,9127.0220000001,1693594.7,1693589.47,1693606.136,1702733.158,1702737.6,2023-04-18T11:51:52Z,1702749.824,"c(""distractor1"", ""distractor2"", ""distractor3"")",Qualität,mtindo,d,NA,NA,NA,NA,NA,NA,NA,NA,NA,NA,NA,NA,NA,NA,NA,NA,NA,NA,NA,NA,NA,NA,NA,NA,NA,NA
58275,deep,flow.Sequence,1_1_4_0,NA,NA,skipped,NA,1702737.8,NA,NA,1702733.158,1702737.9,2023-04-18T11:51:52Z,1702749.824,"c(""distractor1"", ""distractor2"", ""distractor3"")",Gegenwart,hadhara,s,katiba,jokofu,mikopo,NA,NA,NA,NA,NA,NA,NA,NA,NA,NA,NA,NA,NA,NA,NA,NA,NA,NA,NA,NA,NA,NA,NA
58275,Shallow Question,html.Page,1_1_4_1_0,NA,NA,form submission,4178.0760000059,1702738,1702733.158,1702749.824,1706927.9,1706928.1,2023-04-18T11:51:57Z,1706933.718,"c(""distractor1"", ""distractor2"", ""distractor3"")",Gegenwart,hadhara,s,katiba,jokofu,mikopo,katiba,NA,NA,NA,NA,NA,NA,NA,NA,NA,NA,NA,NA,NA,NA,NA,NA,NA,NA,NA,NA,NA,NA
58275,"""Richtig""-Screen",canvas.Screen,1_1_4_1_1,NA,NA,skipped,NA,1706931,NA,NA,1706927.9,1706931.2,2023-04-18T11:51:57Z,1706933.718,"c(""distractor1"", ""distractor2"", ""distractor3"")",Gegenwart,hadhara,s,katiba,jokofu,mikopo,NA,NA,NA,NA,NA,NA,NA,NA,NA,NA,NA,NA,NA,NA,NA,NA,NA,NA,NA,NA,NA,NA,NA
58275,"""Falsch""-Screen",canvas.Screen,1_1_4_1_2,NA,NA,timeout,4999.7999999998,1706932.1,1706917.052,1706933.718,1711916.852,1711921.3,2023-04-18T11:52:02Z,1711933.518,"c(""distractor1"", ""distractor2"", ""distractor3"")",Gegenwart,hadhara,s,katiba,jokofu,mikopo,NA,NA,0,NA,NA,NA,NA,NA,NA,NA,NA,NA,NA,NA,NA,NA,NA,NA,NA,NA,NA,NA,NA
58275,shallow,flow.Sequence,1_1_4_1,NA,NA,completion,9167.0279999999,1702738,1702733.158,1702749.824,1711916.852,1711921.6,2023-04-18T11:52:02Z,1711933.518,"c(""distractor1"", ""distractor2"", ""distractor3"")",Gegenwart,hadhara,s,katiba,jokofu,mikopo,NA,NA,NA,NA,NA,NA,NA,NA,NA,NA,NA,NA,NA,NA,NA,NA,NA,NA,NA,NA,NA,NA,NA
58275,task,flow.Sequence,1_1_4,NA,NA,completion,9167.0279999999,1702737.8,1702733.158,1702749.824,1711916.852,1711921.7,2023-04-18T11:52:02Z,1711933.518,"c(""distractor1"", ""distractor2"", ""distractor3"")",Gegenwart,hadhara,s,katiba,jokofu,mikopo,NA,NA,NA,NA,NA,NA,NA,NA,NA,NA,NA,NA,NA,NA,NA,NA,NA,NA,NA,NA,NA,NA,NA
58275,Deep Question,html.Page,1_1_5_0_0,NA,NA,form submission,2970.9820000001,1711921.9,1711916.852,1711933.518,1714904.5,1714904.8,2023-04-18T11:52:05Z,1714916.732,"c(""distractor1"", ""distractor2"", ""distractor3"")",Gesundheit,salama,d,NA,NA,NA,bono,NA,NA,NA,NA,NA,NA,NA,NA,NA,NA,NA,NA,NA,NA,NA,NA,NA,NA,NA,NA,NA,NA
58275,"""Richtig""-Screen",canvas.Screen,1_1_5_0_1,NA,NA,skipped,NA,1714907.5,NA,NA,1714904.5,1714907.7,2023-04-18T11:52:05Z,1714916.732,"c(""distractor1"", ""distractor2"", ""distractor3"")",Gesundheit,salama,d,NA,NA,NA,NA,NA,NA,NA,NA,NA,NA,NA,NA,NA,NA,NA,NA,NA,NA,NA,NA,NA,NA,NA,NA,NA,NA
58275,"""Falsch""-Screen",canvas.Screen,1_1_5_0_2,NA,NA,timeout,4999.7999999998,1714908.9,1714900.066,1714916.732,1719899.866,1719903.4,2023-04-18T11:52:10Z,1719916.532,"c(""distractor1"", ""distractor2"", ""distractor3"")",Gesundheit,salama,d,NA,NA,NA,NA,NA,0,NA,NA,NA,NA,NA,NA,NA,NA,NA,NA,NA,NA,NA,NA,NA,NA,NA,NA,NA,NA
58275,deep,flow.Sequence,1_1_5_0,NA,NA,completion,7966.348,1711921.9,1711916.852,1711933.518,1719899.866,1719903.6,2023-04-18T11:52:10Z,1719916.532,"c(""distractor1"", ""distractor2"", ""distractor3"")",Gesundheit,salama,d,NA,NA,NA,NA,NA,NA,NA,NA,NA,NA,NA,NA,NA,NA,NA,NA,NA,NA,NA,NA,NA,NA,NA,NA,NA,NA
58275,shallow,flow.Sequence,1_1_5_1,NA,NA,skipped,NA,1719903.7,NA,NA,1719899.866,1719903.8,2023-04-18T11:52:10Z,1719916.532,"c(""distractor1"", ""distractor2"", ""distractor3"")",Gesundheit,salama,d,NA,NA,NA,NA,NA,NA,NA,NA,NA,NA,NA,NA,NA,NA,NA,NA,NA,NA,NA,NA,NA,NA,NA,NA,NA,NA
58275,task,flow.Sequence,1_1_5,NA,NA,completion,7966.348,1711921.8,1711916.852,1711933.518,1719899.866,1719904,2023-04-18T11:52:10Z,1719916.532,"c(""distractor1"", ""distractor2"", ""distractor3"")",Gesundheit,salama,d,NA,NA,NA,NA,NA,NA,NA,NA,NA,NA,NA,NA,NA,NA,NA,NA,NA,NA,NA,NA,NA,NA,NA,NA,NA,NA
58275,block,flow.Loop,1_1,NA,NA,completion,56463.968,1663418.8,1663419.232,1663435.898,1719899.866,1719904.4,2023-04-18T11:52:10Z,1719916.532,"c(""distractor1"", ""distractor2"", ""distractor3"")",NA,NA,NA,NA,NA,NA,NA,NA,NA,NA,NA,NA,NA,NA,NA,NA,NA,NA,NA,NA,NA,NA,NA,NA,NA,NA,NA,NA,NA
58275,Practice,flow.Sequence,1,NA,NA,completion,58663.88,1661224,1661219.32,1661235.986,1719899.866,1719904.6,2023-04-18T11:52:10Z,1719916.532,NULL,NA,NA,NA,NA,NA,NA,NA,NA,NA,NA,NA,NA,NA,NA,NA,NA,NA,NA,NA,NA,NA,NA,NA,NA,NA,NA,NA,NA,NA
58275,Experiment start,canvas.Screen,2,weiter,keypress(q),response,29126.368000006,1719904.7,1719899.866,1719916.532,1749042.9,1749050.9,2023-04-18T11:52:39Z,1749126.35,NULL,NA,NA,NA,NA,NA,NA,NA,NA,NA,NA,NA,NA,NA,NA,NA,NA,NA,NA,NA,NA,NA,NA,NA,NA,NA,NA,NA,NA,NA
58275,Deep Question,html.Page,3_0_0_0_0_0_0,NA,NA,form submission,5519.6499999999,1749125.5,1749109.684,1749126.35,1754646,1754646.3,2023-04-18T11:52:44Z,1754646.675,NULL,Beweis,ushahidi,d,NA,NA,NA,mtombo,NA,NA,0,NA,NA,NA,NA,NA,NA,NA,NA,NA,NA,NA,NA,NA,NA,NA,NA,NA,NA,NA
58275,"""Richtig""-Screen",canvas.Screen,3_0_0_0_0_0_1,NA,NA,skipped,NA,1754649.3,NA,NA,1754646,1754649.5,2023-04-18T11:52:44Z,1754646.675,NULL,Beweis,ushahidi,d,NA,NA,NA,NA,sdf,NA,0,NA,NA,NA,NA,NA,NA,NA,NA,NA,NA,NA,NA,NA,NA,NA,NA,NA,NA,NA
58275,"""Falsch""-Screen",canvas.Screen,3_0_0_0_0_0_2,NA,NA,timeout,4999.8,1754650.5,1754630.009,1754646.675,1759629.809,1759633.3,2023-04-18T11:52:49Z,1759646.475,NULL,Beweis,ushahidi,d,NA,NA,NA,NA,sdf,0,0,NA,NA,NA,NA,NA,NA,NA,NA,NA,NA,NA,NA,NA,NA,NA,NA,NA,NA,NA
58275,deep,flow.Sequence,3_0_0_0_0_0,NA,NA,completion,10503.459,1749125.5,1749109.684,1749126.35,1759629.809,1759633.5,2023-04-18T11:52:49Z,1759646.475,NULL,Beweis,ushahidi,d,NA,NA,NA,NA,sdf,NA,0,NA,NA,NA,NA,NA,NA,NA,NA,NA,NA,NA,NA,NA,NA,NA,NA,NA,NA,NA
58275,shallow,flow.Sequence,3_0_0_0_0_1,NA,NA,skipped,NA,1759633.7,NA,NA,1759629.809,1759633.8,2023-04-18T11:52:49Z,1759646.475,NULL,Beweis,ushahidi,d,NA,NA,NA,NA,sdf,NA,0,NA,NA,NA,NA,NA,NA,NA,NA,NA,NA,NA,NA,NA,NA,NA,NA,NA,NA,NA
58275,task,flow.Sequence,3_0_0_0_0,NA,NA,completion,10503.459,1749125.5,1749109.684,1749126.35,1759629.809,1759633.8,2023-04-18T11:52:49Z,1759646.475,NULL,Beweis,ushahidi,d,NA,NA,NA,NA,sdf,NA,0,NA,NA,NA,NA,NA,NA,NA,NA,NA,NA,NA,NA,NA,NA,NA,NA,NA,NA,NA
58275,deep,flow.Sequence,3_0_0_0_1_0,NA,NA,skipped,NA,1759634,NA,NA,1759629.809,1759634,2023-04-18T11:52:49Z,1759646.475,NULL,Annäherung,maegesho,s,madahili,kujiamini,mapendekezo,NA,sdf,NA,0,NA,NA,NA,NA,NA,NA,NA,NA,NA,NA,NA,NA,NA,NA,NA,NA,NA,NA,NA
58275,Shallow Question,html.Page,3_0_0_0_1_1_0,NA,NA,form submission,6229.6249999939,1759634.1,1759629.809,1759646.475,1765876.1,1765876.3,2023-04-18T11:52:56Z,1765883.718,NULL,Annäherung,maegesho,s,madahili,kujiamini,mapendekezo,maegesho,NA,NA,0,NA,NA,NA,NA,NA,NA,NA,NA,NA,NA,NA,NA,NA,NA,NA,NA,NA,NA,NA
58275,"""Richtig""-Screen",canvas.Screen,3_0_0_0_1_1_1,NA,NA,timeout,4999.7999999998,1765879,1765867.052,1765883.718,1770866.852,1770870.7,2023-04-18T11:53:01Z,1770883.518,NULL,Annäherung,maegesho,s,madahili,kujiamini,mapendekezo,NA,sdf,1,0,NA,NA,NA,NA,NA,NA,NA,NA,NA,NA,NA,NA,NA,NA,NA,NA,NA,NA,NA
58275,"""Falsch""-Screen",canvas.Screen,3_0_0_0_1_1_2,NA,NA,skipped,NA,1770873.9,NA,NA,1770866.852,1770874.2,2023-04-18T11:53:01Z,1770883.518,NULL,Annäherung,maegesho,s,madahili,kujiamini,mapendekezo,NA,sdf,NA,0,NA,NA,NA,NA,NA,NA,NA,NA,NA,NA,NA,NA,NA,NA,NA,NA,NA,NA,NA
58275,shallow,flow.Sequence,3_0_0_0_1_1,NA,NA,completion,11220.377,1759634.1,1759629.809,1759646.475,1770866.852,1770874.3,2023-04-18T11:53:01Z,1770883.518,NULL,Annäherung,maegesho,s,madahili,kujiamini,mapendekezo,NA,sdf,NA,0,NA,NA,NA,NA,NA,NA,NA,NA,NA,NA,NA,NA,NA,NA,NA,NA,NA,NA,NA
58275,task,flow.Sequence,3_0_0_0_1,NA,NA,completion,11220.377,1759633.9,1759629.809,1759646.475,1770866.852,1770874.4,2023-04-18T11:53:01Z,1770883.518,NULL,Annäherung,maegesho,s,madahili,kujiamini,mapendekezo,NA,sdf,NA,0,NA,NA,NA,NA,NA,NA,NA,NA,NA,NA,NA,NA,NA,NA,NA,NA,NA,NA,NA
58275,deep,flow.Sequence,3_0_0_0_2_0,NA,NA,skipped,NA,1770874.6,NA,NA,1770866.852,1770874.7,2023-04-18T11:53:01Z,1770883.518,NULL,Kultur,utamaduni,s,shetani,gerezani,mazingira,NA,sdf,NA,0,NA,NA,NA,NA,NA,NA,NA,NA,NA,NA,NA,NA,NA,NA,NA,NA,NA,NA,NA
58275,Shallow Question,html.Page,3_0_0_0_2_1_0,NA,NA,form submission,5093.782000012,1770874.7,1770866.852,1770883.518,1775977.3,1775977.6,2023-04-18T11:53:06Z,1775979.928,NULL,Kultur,utamaduni,s,shetani,gerezani,mazingira,utamaduni,NA,NA,0,NA,NA,NA,NA,NA,NA,NA,NA,NA,NA,NA,NA,NA,NA,NA,NA,NA,NA,NA
58275,"""Richtig""-Screen",canvas.Screen,3_0_0_0_2_1_1,NA,NA,timeout,4999.7999999998,1775980.4,1775963.262,1775979.928,1780963.062,1780967.7,2023-04-18T11:53:11Z,1780979.728,NULL,Kultur,utamaduni,s,shetani,gerezani,mazingira,NA,sdf,1,0,NA,NA,NA,NA,NA,NA,NA,NA,NA,NA,NA,NA,NA,NA,NA,NA,NA,NA,NA
58275,"""Falsch""-Screen",canvas.Screen,3_0_0_0_2_1_2,NA,NA,skipped,NA,1780971.2,NA,NA,1780963.062,1780971.4,2023-04-18T11:53:11Z,1780979.728,NULL,Kultur,utamaduni,s,shetani,gerezani,mazingira,NA,sdf,NA,0,NA,NA,NA,NA,NA,NA,NA,NA,NA,NA,NA,NA,NA,NA,NA,NA,NA,NA,NA
58275,shallow,flow.Sequence,3_0_0_0_2_1,NA,NA,completion,10079.544,1770874.7,1770866.852,1770883.518,1780963.062,1780971.5,2023-04-18T11:53:11Z,1780979.728,NULL,Kultur,utamaduni,s,shetani,gerezani,mazingira,NA,sdf,NA,0,NA,NA,NA,NA,NA,NA,NA,NA,NA,NA,NA,NA,NA,NA,NA,NA,NA,NA,NA
58275,task,flow.Sequence,3_0_0_0_2,NA,NA,completion,10079.544,1770874.6,1770866.852,1770883.518,1780963.062,1780971.7,2023-04-18T11:53:11Z,1780979.728,NULL,Kultur,utamaduni,s,shetani,gerezani,mazingira,NA,sdf,NA,0,NA,NA,NA,NA,NA,NA,NA,NA,NA,NA,NA,NA,NA,NA,NA,NA,NA,NA,NA
58275,deep,flow.Sequence,3_0_0_0_3_0,NA,NA,skipped,NA,1780971.8,NA,NA,1780963.062,1780971.9,2023-04-18T11:53:11Z,1780979.728,NULL,Verzögerung,kuchelewa,s,mwakilishi,mwanauchumi,jaribio,NA,sdf,NA,0,NA,NA,NA,NA,NA,NA,NA,NA,NA,NA,NA,NA,NA,NA,NA,NA,NA,NA,NA
58275,Shallow Question,html.Page,3_0_0_0_3_1_0,NA,NA,form submission,4435.2720000001,1780972,1780963.062,1780979.728,1785415,1785415.2,2023-04-18T11:53:15Z,1785415.028,NULL,Verzögerung,kuchelewa,s,mwakilishi,mwanauchumi,jaribio,kuchelewa,NA,NA,0,NA,NA,NA,NA,NA,NA,NA,NA,NA,NA,NA,NA,NA,NA,NA,NA,NA,NA,NA
58275,"""Richtig""-Screen",canvas.Screen,3_0_0_0_3_1_1,NA,NA,timeout,4999.8,1785417.9,1785398.362,1785415.028,1790398.162,1790400.6,2023-04-18T11:53:20Z,1790414.828,NULL,Verzögerung,kuchelewa,s,mwakilishi,mwanauchumi,jaribio,NA,sdf,1,0,NA,NA,NA,NA,NA,NA,NA,NA,NA,NA,NA,NA,NA,NA,NA,NA,NA,NA,NA
58275,"""Falsch""-Screen",canvas.Screen,3_0_0_0_3_1_2,NA,NA,skipped,NA,1790403.6,NA,NA,1790398.162,1790403.7,2023-04-18T11:53:20Z,1790414.828,NULL,Verzögerung,kuchelewa,s,mwakilishi,mwanauchumi,jaribio,NA,sdf,NA,0,NA,NA,NA,NA,NA,NA,NA,NA,NA,NA,NA,NA,NA,NA,NA,NA,NA,NA,NA
58275,shallow,flow.Sequence,3_0_0_0_3_1,NA,NA,completion,9418.4340000001,1780972,1780963.062,1780979.728,1790398.162,1790404,2023-04-18T11:53:20Z,1790414.828,NULL,Verzögerung,kuchelewa,s,mwakilishi,mwanauchumi,jaribio,NA,sdf,NA,0,NA,NA,NA,NA,NA,NA,NA,NA,NA,NA,NA,NA,NA,NA,NA,NA,NA,NA,NA
58275,task,flow.Sequence,3_0_0_0_3,NA,NA,completion,9418.4340000001,1780971.7,1780963.062,1780979.728,1790398.162,1790404.1,2023-04-18T11:53:20Z,1790414.828,NULL,Verzögerung,kuchelewa,s,mwakilishi,mwanauchumi,jaribio,NA,sdf,NA,0,NA,NA,NA,NA,NA,NA,NA,NA,NA,NA,NA,NA,NA,NA,NA,NA,NA,NA,NA
58275,Deep Question,html.Page,3_0_0_0_4_0_0,NA,NA,form submission,5843.072000006,1790404.2,1790398.162,1790414.828,1796257.9,1796258.1,2023-04-18T11:53:26Z,1796267.475,NULL,Aufstand,ugomaji,d,NA,NA,NA,mbarito,NA,NA,0,NA,NA,NA,NA,NA,NA,NA,NA,NA,NA,NA,NA,NA,NA,NA,NA,NA,NA,NA
58275,"""Richtig""-Screen",canvas.Screen,3_0_0_0_4_0_1,NA,NA,skipped,NA,1796261,NA,NA,1796257.9,1796261.2,2023-04-18T11:53:26Z,1796267.475,NULL,Aufstand,ugomaji,d,NA,NA,NA,NA,sdf,NA,0,NA,NA,NA,NA,NA,NA,NA,NA,NA,NA,NA,NA,NA,NA,NA,NA,NA,NA,NA
58275,"""Falsch""-Screen",canvas.Screen,3_0_0_0_4_0_2,NA,NA,timeout,4999.7999999998,1796262,1796250.809,1796267.475,1801250.609,1801255.4,2023-04-18T11:53:31Z,1801267.275,NULL,Aufstand,ugomaji,d,NA,NA,NA,NA,sdf,0,0,NA,NA,NA,NA,NA,NA,NA,NA,NA,NA,NA,NA,NA,NA,NA,NA,NA,NA,NA
58275,deep,flow.Sequence,3_0_0_0_4_0,NA,NA,completion,10835.781,1790404.2,1790398.162,1790414.828,1801250.609,1801255.7,2023-04-18T11:53:31Z,1801267.275,NULL,Aufstand,ugomaji,d,NA,NA,NA,NA,sdf,NA,0,NA,NA,NA,NA,NA,NA,NA,NA,NA,NA,NA,NA,NA,NA,NA,NA,NA,NA,NA
58275,shallow,flow.Sequence,3_0_0_0_4_1,NA,NA,skipped,NA,1801255.8,NA,NA,1801250.609,1801255.9,2023-04-18T11:53:31Z,1801267.275,NULL,Aufstand,ugomaji,d,NA,NA,NA,NA,sdf,NA,0,NA,NA,NA,NA,NA,NA,NA,NA,NA,NA,NA,NA,NA,NA,NA,NA,NA,NA,NA
58275,task,flow.Sequence,3_0_0_0_4,NA,NA,completion,10835.781,1790404.2,1790398.162,1790414.828,1801250.609,1801256,2023-04-18T11:53:31Z,1801267.275,NULL,Aufstand,ugomaji,d,NA,NA,NA,NA,sdf,NA,0,NA,NA,NA,NA,NA,NA,NA,NA,NA,NA,NA,NA,NA,NA,NA,NA,NA,NA,NA
58275,deep,flow.Sequence,3_0_0_0_5_0,NA,NA,skipped,NA,1801256.1,NA,NA,1801250.609,1801256.2,2023-04-18T11:53:31Z,1801267.275,NULL,Sympathie,mapendano,s,dhamiria,fungamano,maazimio,NA,sdf,NA,0,NA,NA,NA,NA,NA,NA,NA,NA,NA,NA,NA,NA,NA,NA,NA,NA,NA,NA,NA
58275,Shallow Question,html.Page,3_0_0_0_5_1_0,NA,NA,form submission,6272.7250000001,1801256.3,1801250.609,1801267.275,1807540,1807540.3,2023-04-18T11:53:37Z,1807547.847,NULL,Sympathie,mapendano,s,dhamiria,fungamano,maazimio,dhamiria,NA,NA,0,NA,NA,NA,NA,NA,NA,NA,NA,NA,NA,NA,NA,NA,NA,NA,NA,NA,NA,NA
58275,"""Richtig""-Screen",canvas.Screen,3_0_0_0_5_1_1,NA,NA,skipped,NA,1807543.1,NA,NA,1807540,1807543.3,2023-04-18T11:53:37Z,1807547.847,NULL,Sympathie,mapendano,s,dhamiria,fungamano,maazimio,NA,sdf,NA,0,NA,NA,NA,NA,NA,NA,NA,NA,NA,NA,NA,NA,NA,NA,NA,NA,NA,NA,NA
58275,"""Falsch""-Screen",canvas.Screen,3_0_0_0_5_1_2,NA,NA,timeout,4999.8,1807543.9,1807531.181,1807547.847,1812530.981,1812534.7,2023-04-18T11:53:42Z,1812547.647,NULL,Sympathie,mapendano,s,dhamiria,fungamano,maazimio,NA,sdf,0,0,NA,NA,NA,NA,NA,NA,NA,NA,NA,NA,NA,NA,NA,NA,NA,NA,NA,NA,NA
58275,shallow,flow.Sequence,3_0_0_0_5_1,NA,NA,completion,11263.706,1801256.3,1801250.609,1801267.275,1812530.981,1812534.9,2023-04-18T11:53:42Z,1812547.647,NULL,Sympathie,mapendano,s,dhamiria,fungamano,maazimio,NA,sdf,NA,0,NA,NA,NA,NA,NA,NA,NA,NA,NA,NA,NA,NA,NA,NA,NA,NA,NA,NA,NA
58275,task,flow.Sequence,3_0_0_0_5,NA,NA,completion,11263.706,1801256.1,1801250.609,1801267.275,1812530.981,1812535.1,2023-04-18T11:53:42Z,1812547.647,NULL,Sympathie,mapendano,s,dhamiria,fungamano,maazimio,NA,sdf,NA,0,NA,NA,NA,NA,NA,NA,NA,NA,NA,NA,NA,NA,NA,NA,NA,NA,NA,NA,NA
58275,Deep Question,html.Page,3_0_0_0_6_0_0,NA,NA,form submission,4506.4529999939,1812535.2,1812530.981,1812547.647,1817054.1,1817054.4,2023-04-18T11:53:47Z,1817070.433,NULL,Prüfung,mtihani,d,NA,NA,NA,bati,NA,NA,0,NA,NA,NA,NA,NA,NA,NA,NA,NA,NA,NA,NA,NA,NA,NA,NA,NA,NA,NA
58275,"""Richtig""-Screen",canvas.Screen,3_0_0_0_6_0_1,NA,NA,skipped,NA,1817057.3,NA,NA,1817054.1,1817057.5,2023-04-18T11:53:47Z,1817070.433,NULL,Prüfung,mtihani,d,NA,NA,NA,NA,sdf,NA,0,NA,NA,NA,NA,NA,NA,NA,NA,NA,NA,NA,NA,NA,NA,NA,NA,NA,NA,NA
58275,"""Falsch""-Screen",canvas.Screen,3_0_0_0_6_0_2,NA,NA,timeout,4999.8,1817058.5,1817053.767,1817070.433,1822053.567,1822057.8,2023-04-18T11:53:52Z,1822070.233,NULL,Prüfung,mtihani,d,NA,NA,NA,NA,sdf,0,0,NA,NA,NA,NA,NA,NA,NA,NA,NA,NA,NA,NA,NA,NA,NA,NA,NA,NA,NA
58275,deep,flow.Sequence,3_0_0_0_6_0,NA,NA,completion,9505.9199999999,1812535.2,1812530.981,1812547.647,1822053.567,1822058.1,2023-04-18T11:53:52Z,1822070.233,NULL,Prüfung,mtihani,d,NA,NA,NA,NA,sdf,NA,0,NA,NA,NA,NA,NA,NA,NA,NA,NA,NA,NA,NA,NA,NA,NA,NA,NA,NA,NA
58275,shallow,flow.Sequence,3_0_0_0_6_1,NA,NA,skipped,NA,1822058.2,NA,NA,1822053.567,1822058.4,2023-04-18T11:53:52Z,1822070.233,NULL,Prüfung,mtihani,d,NA,NA,NA,NA,sdf,NA,0,NA,NA,NA,NA,NA,NA,NA,NA,NA,NA,NA,NA,NA,NA,NA,NA,NA,NA,NA
58275,task,flow.Sequence,3_0_0_0_6,NA,NA,completion,9505.9199999999,1812535.2,1812530.981,1812547.647,1822053.567,1822058.4,2023-04-18T11:53:52Z,1822070.233,NULL,Prüfung,mtihani,d,NA,NA,NA,NA,sdf,NA,0,NA,NA,NA,NA,NA,NA,NA,NA,NA,NA,NA,NA,NA,NA,NA,NA,NA,NA,NA
58275,Deep Question,html.Page,3_0_0_0_7_0_0,NA,NA,form submission,3766.167000006,1822058.7,1822053.567,1822070.233,1825836.4,1825836.8,2023-04-18T11:53:56Z,1825844.828,NULL,Polizist,msongora,d,NA,NA,NA,bato,NA,NA,0,NA,NA,NA,NA,NA,NA,NA,NA,NA,NA,NA,NA,NA,NA,NA,NA,NA,NA,NA
58275,"""Richtig""-Screen",canvas.Screen,3_0_0_0_7_0_1,NA,NA,skipped,NA,1825839.6,NA,NA,1825836.4,1825839.7,2023-04-18T11:53:56Z,1825844.828,NULL,Polizist,msongora,d,NA,NA,NA,NA,sdf,NA,0,NA,NA,NA,NA,NA,NA,NA,NA,NA,NA,NA,NA,NA,NA,NA,NA,NA,NA,NA
58275,"""Falsch""-Screen",canvas.Screen,3_0_0_0_7_0_2,NA,NA,timeout,4999.8,1825840.7,1825828.162,1825844.828,1830827.962,1830829.6,2023-04-18T11:54:01Z,1830844.628,NULL,Polizist,msongora,d,NA,NA,NA,NA,sdf,0,0,NA,NA,NA,NA,NA,NA,NA,NA,NA,NA,NA,NA,NA,NA,NA,NA,NA,NA,NA
58275,deep,flow.Sequence,3_0_0_0_7_0,NA,NA,completion,8757.7290000001,1822058.6,1822053.567,1822070.233,1830827.962,1830829.8,2023-04-18T11:54:01Z,1830844.628,NULL,Polizist,msongora,d,NA,NA,NA,NA,sdf,NA,0,NA,NA,NA,NA,NA,NA,NA,NA,NA,NA,NA,NA,NA,NA,NA,NA,NA,NA,NA
58275,shallow,flow.Sequence,3_0_0_0_7_1,NA,NA,skipped,NA,1830829.9,NA,NA,1830827.962,1830830,2023-04-18T11:54:01Z,1830844.628,NULL,Polizist,msongora,d,NA,NA,NA,NA,sdf,NA,0,NA,NA,NA,NA,NA,NA,NA,NA,NA,NA,NA,NA,NA,NA,NA,NA,NA,NA,NA
58275,task,flow.Sequence,3_0_0_0_7,NA,NA,completion,8757.7290000001,1822058.6,1822053.567,1822070.233,1830827.962,1830830.1,2023-04-18T11:54:01Z,1830844.628,NULL,Polizist,msongora,d,NA,NA,NA,NA,sdf,NA,0,NA,NA,NA,NA,NA,NA,NA,NA,NA,NA,NA,NA,NA,NA,NA,NA,NA,NA,NA
58275,block,flow.Loop,3_0_0_0,NA,NA,completion,81701.612,1749125.4,1749109.684,1749126.35,1830827.962,1830830.3,2023-04-18T11:54:01Z,1830844.628,NULL,NA,NA,NA,NA,NA,NA,NA,sdf,NA,0,NA,NA,NA,NA,NA,NA,NA,NA,NA,NA,NA,NA,NA,NA,NA,NA,NA,NA,NA
58275,weiter,canvas.Screen,3_0_0_1,sdf,keypress(Space),response,2192.372,1830830.3,1830827.962,1830844.628,1833037,1833045.8,2023-04-18T11:54:03Z,1833077.872,NULL,NA,NA,NA,NA,NA,NA,NA,sdf,NA,0,NA,NA,NA,NA,NA,NA,NA,NA,NA,NA,NA,NA,NA,NA,NA,NA,NA,NA,NA
58275,check continue,flow.Sequence,3_0_0,NA,NA,completion,83910.65,1749125.4,1749109.684,1749126.35,1833037,1833046,2023-04-18T11:54:03Z,1833077.872,NULL,NA,NA,NA,NA,NA,NA,NA,sdf,NA,0,NA,NA,NA,NA,NA,NA,NA,NA,NA,NA,NA,NA,NA,NA,NA,NA,NA,NA,NA
58275,Deep Question,html.Page,3_0_1_0_0_0_0,NA,NA,form submission,7036.8279999881,1833076.9,1833061.206,1833077.872,1840114.7,1840115,2023-04-18T11:54:10Z,1840130.379,NULL,Beweis,ushahidi,d,NA,NA,NA,btaehano,NA,NA,1,NA,NA,NA,NA,NA,NA,NA,NA,NA,NA,NA,NA,NA,NA,NA,NA,NA,NA,NA
58275,"""Richtig""-Screen",canvas.Screen,3_0_1_0_0_0_1,NA,NA,skipped,NA,1840117.8,NA,NA,1840114.7,1840118,2023-04-18T11:54:10Z,1840130.379,NULL,Beweis,ushahidi,d,NA,NA,NA,NA,sdfdsf,NA,1,NA,NA,NA,NA,NA,NA,NA,NA,NA,NA,NA,NA,NA,NA,NA,NA,NA,NA,NA
58275,"""Falsch""-Screen",canvas.Screen,3_0_1_0_0_0_2,NA,NA,timeout,4999.8,1840118.8,1840113.713,1840130.379,1845113.513,1845116.2,2023-04-18T11:54:15Z,1845130.179,NULL,Beweis,ushahidi,d,NA,NA,NA,NA,sdfdsf,0,1,NA,NA,NA,NA,NA,NA,NA,NA,NA,NA,NA,NA,NA,NA,NA,NA,NA,NA,NA
58275,deep,flow.Sequence,3_0_1_0_0_0,NA,NA,completion,12035.641,1833076.8,1833061.206,1833077.872,1845113.513,1845116.5,2023-04-18T11:54:15Z,1845130.179,NULL,Beweis,ushahidi,d,NA,NA,NA,NA,sdfdsf,NA,1,NA,NA,NA,NA,NA,NA,NA,NA,NA,NA,NA,NA,NA,NA,NA,NA,NA,NA,NA
58275,shallow,flow.Sequence,3_0_1_0_0_1,NA,NA,skipped,NA,1845116.6,NA,NA,1845113.513,1845116.7,2023-04-18T11:54:15Z,1845130.179,NULL,Beweis,ushahidi,d,NA,NA,NA,NA,sdfdsf,NA,1,NA,NA,NA,NA,NA,NA,NA,NA,NA,NA,NA,NA,NA,NA,NA,NA,NA,NA,NA
58275,task,flow.Sequence,3_0_1_0_0,NA,NA,completion,12035.641,1833076.8,1833061.206,1833077.872,1845113.513,1845116.9,2023-04-18T11:54:15Z,1845130.179,NULL,Beweis,ushahidi,d,NA,NA,NA,NA,sdfdsf,NA,1,NA,NA,NA,NA,NA,NA,NA,NA,NA,NA,NA,NA,NA,NA,NA,NA,NA,NA,NA
58275,Deep Question,html.Page,3_0_1_0_1_0_0,NA,NA,form submission,8716.321,1845117,1845113.513,1845130.179,1853846.5,1853846.6,2023-04-18T11:54:24Z,1853860.206,NULL,Aufstand,ugomaji,d,NA,NA,NA,behatini,NA,NA,1,NA,NA,NA,NA,NA,NA,NA,NA,NA,NA,NA,NA,NA,NA,NA,NA,NA,NA,NA
58275,"""Richtig""-Screen",canvas.Screen,3_0_1_0_1_0_1,NA,NA,skipped,NA,1853849.1,NA,NA,1853846.5,1853849.2,2023-04-18T11:54:24Z,1853860.206,NULL,Aufstand,ugomaji,d,NA,NA,NA,NA,sdfdsf,NA,1,NA,NA,NA,NA,NA,NA,NA,NA,NA,NA,NA,NA,NA,NA,NA,NA,NA,NA,NA
58275,"""Falsch""-Screen",canvas.Screen,3_0_1_0_1_0_2,NA,NA,timeout,4999.8,1853850.1,1853843.54,1853860.206,1858843.34,1858847.2,2023-04-18T11:54:29Z,1858860.006,NULL,Aufstand,ugomaji,d,NA,NA,NA,NA,sdfdsf,0,1,NA,NA,NA,NA,NA,NA,NA,NA,NA,NA,NA,NA,NA,NA,NA,NA,NA,NA,NA
58275,deep,flow.Sequence,3_0_1_0_1_0,NA,NA,completion,13713.161,1845116.9,1845113.513,1845130.179,1858843.34,1858847.5,2023-04-18T11:54:29Z,1858860.006,NULL,Aufstand,ugomaji,d,NA,NA,NA,NA,sdfdsf,NA,1,NA,NA,NA,NA,NA,NA,NA,NA,NA,NA,NA,NA,NA,NA,NA,NA,NA,NA,NA
58275,shallow,flow.Sequence,3_0_1_0_1_1,NA,NA,skipped,NA,1858847.5,NA,NA,1858843.34,1858847.7,2023-04-18T11:54:29Z,1858860.006,NULL,Aufstand,ugomaji,d,NA,NA,NA,NA,sdfdsf,NA,1,NA,NA,NA,NA,NA,NA,NA,NA,NA,NA,NA,NA,NA,NA,NA,NA,NA,NA,NA
58275,task,flow.Sequence,3_0_1_0_1,NA,NA,completion,13713.161,1845116.9,1845113.513,1845130.179,1858843.34,1858847.8,2023-04-18T11:54:29Z,1858860.006,NULL,Aufstand,ugomaji,d,NA,NA,NA,NA,sdfdsf,NA,1,NA,NA,NA,NA,NA,NA,NA,NA,NA,NA,NA,NA,NA,NA,NA,NA,NA,NA,NA
58275,deep,flow.Sequence,3_0_1_0_2_0,NA,NA,skipped,NA,1858847.9,NA,NA,1858843.34,1858848,2023-04-18T11:54:29Z,1858860.006,NULL,Sympathie,mapendano,s,dhamiria,fungamano,maazimio,NA,sdfdsf,NA,1,NA,NA,NA,NA,NA,NA,NA,NA,NA,NA,NA,NA,NA,NA,NA,NA,NA,NA,NA
58275,Shallow Question,html.Page,3_0_1_0_2_1_0,NA,NA,form submission,8043.3940000059,1858848.2,1858843.34,1858860.006,1866903.4,1866903.7,2023-04-18T11:54:37Z,1866906.653,NULL,Sympathie,mapendano,s,dhamiria,fungamano,maazimio,dhamiria,NA,NA,1,NA,NA,NA,NA,NA,NA,NA,NA,NA,NA,NA,NA,NA,NA,NA,NA,NA,NA,NA
58275,"""Richtig""-Screen",canvas.Screen,3_0_1_0_2_1_1,NA,NA,skipped,NA,1866906.1,NA,NA,1866903.4,1866906.2,2023-04-18T11:54:37Z,1866906.653,NULL,Sympathie,mapendano,s,dhamiria,fungamano,maazimio,NA,sdfdsf,NA,1,NA,NA,NA,NA,NA,NA,NA,NA,NA,NA,NA,NA,NA,NA,NA,NA,NA,NA,NA
58275,"""Falsch""-Screen",canvas.Screen,3_0_1_0_2_1_2,NA,NA,timeout,4999.8,1866907,1866889.987,1866906.653,1871889.787,1871893.6,2023-04-18T11:54:42Z,1871906.453,NULL,Sympathie,mapendano,s,dhamiria,fungamano,maazimio,NA,sdfdsf,0,1,NA,NA,NA,NA,NA,NA,NA,NA,NA,NA,NA,NA,NA,NA,NA,NA,NA,NA,NA
58275,shallow,flow.Sequence,3_0_1_0_2_1,NA,NA,completion,13029.781,1858848.1,1858843.34,1858860.006,1871889.787,1871893.8,2023-04-18T11:54:42Z,1871906.453,NULL,Sympathie,mapendano,s,dhamiria,fungamano,maazimio,NA,sdfdsf,NA,1,NA,NA,NA,NA,NA,NA,NA,NA,NA,NA,NA,NA,NA,NA,NA,NA,NA,NA,NA
58275,task,flow.Sequence,3_0_1_0_2,NA,NA,completion,13029.781,1858847.9,1858843.34,1858860.006,1871889.787,1871894,2023-04-18T11:54:42Z,1871906.453,NULL,Sympathie,mapendano,s,dhamiria,fungamano,maazimio,NA,sdfdsf,NA,1,NA,NA,NA,NA,NA,NA,NA,NA,NA,NA,NA,NA,NA,NA,NA,NA,NA,NA,NA
58275,deep,flow.Sequence,3_0_1_0_3_0,NA,NA,skipped,NA,1871894.1,NA,NA,1871889.787,1871894.2,2023-04-18T11:54:42Z,1871906.453,NULL,Kultur,utamaduni,s,shetani,gerezani,mazingira,NA,sdfdsf,NA,1,NA,NA,NA,NA,NA,NA,NA,NA,NA,NA,NA,NA,NA,NA,NA,NA,NA,NA,NA
58275,Shallow Question,html.Page,3_0_1_0_3_1_0,NA,NA,form submission,5727.947000006,1871894.3,1871889.787,1871906.453,1877634.4,1877634.7,2023-04-18T11:54:47Z,1877648.161,NULL,Kultur,utamaduni,s,shetani,gerezani,mazingira,utamaduni,NA,NA,1,NA,NA,NA,NA,NA,NA,NA,NA,NA,NA,NA,NA,NA,NA,NA,NA,NA,NA,NA
58275,"""Richtig""-Screen",canvas.Screen,3_0_1_0_3_1_1,NA,NA,timeout,4999.7999999998,1877637.2,1877631.495,1877648.161,1882631.295,1882633.2,2023-04-18T11:54:52Z,1882647.961,NULL,Kultur,utamaduni,s,shetani,gerezani,mazingira,NA,sdfdsf,1,1,NA,NA,NA,NA,NA,NA,NA,NA,NA,NA,NA,NA,NA,NA,NA,NA,NA,NA,NA
58275,"""Falsch""-Screen",canvas.Screen,3_0_1_0_3_1_2,NA,NA,skipped,NA,1882636.4,NA,NA,1882631.295,1882636.5,2023-04-18T11:54:52Z,1882647.961,NULL,Kultur,utamaduni,s,shetani,gerezani,mazingira,NA,sdfdsf,NA,1,NA,NA,NA,NA,NA,NA,NA,NA,NA,NA,NA,NA,NA,NA,NA,NA,NA,NA,NA
58275,shallow,flow.Sequence,3_0_1_0_3_1,NA,NA,completion,10724.842,1871894.3,1871889.787,1871906.453,1882631.295,1882636.7,2023-04-18T11:54:52Z,1882647.961,NULL,Kultur,utamaduni,s,shetani,gerezani,mazingira,NA,sdfdsf,NA,1,NA,NA,NA,NA,NA,NA,NA,NA,NA,NA,NA,NA,NA,NA,NA,NA,NA,NA,NA
58275,task,flow.Sequence,3_0_1_0_3,NA,NA,completion,10724.842,1871894.1,1871889.787,1871906.453,1882631.295,1882636.9,2023-04-18T11:54:52Z,1882647.961,NULL,Kultur,utamaduni,s,shetani,gerezani,mazingira,NA,sdfdsf,NA,1,NA,NA,NA,NA,NA,NA,NA,NA,NA,NA,NA,NA,NA,NA,NA,NA,NA,NA,NA
58275,Deep Question,html.Page,3_0_1_0_4_0_0,NA,NA,form submission,5586.9390000061,1882637,1882631.295,1882647.961,1888234.9,1888235,2023-04-18T11:54:58Z,1888235.937,NULL,Prüfung,mtihani,d,NA,NA,NA,dhihani,NA,NA,1,NA,NA,NA,NA,NA,NA,NA,NA,NA,NA,NA,NA,NA,NA,NA,NA,NA,NA,NA
58275,"""Richtig""-Screen",canvas.Screen,3_0_1_0_4_0_1,NA,NA,skipped,NA,1888236.9,NA,NA,1888234.9,1888236.9,2023-04-18T11:54:58Z,1888235.937,NULL,Prüfung,mtihani,d,NA,NA,NA,NA,sdfdsf,NA,1,NA,NA,NA,NA,NA,NA,NA,NA,NA,NA,NA,NA,NA,NA,NA,NA,NA,NA,NA
58275,"""Falsch""-Screen",canvas.Screen,3_0_1_0_4_0_2,NA,NA,timeout,4999.8,1888237.6,1888219.271,1888235.937,1893219.071,1893220.2,2023-04-18T11:55:03Z,1893235.737,NULL,Prüfung,mtihani,d,NA,NA,NA,NA,sdfdsf,0,1,NA,NA,NA,NA,NA,NA,NA,NA,NA,NA,NA,NA,NA,NA,NA,NA,NA,NA,NA
58275,deep,flow.Sequence,3_0_1_0_4_0,NA,NA,completion,10571.11,1882637,1882631.295,1882647.961,1893219.071,1893220.4,2023-04-18T11:55:03Z,1893235.737,NULL,Prüfung,mtihani,d,NA,NA,NA,NA,sdfdsf,NA,1,NA,NA,NA,NA,NA,NA,NA,NA,NA,NA,NA,NA,NA,NA,NA,NA,NA,NA,NA
58275,shallow,flow.Sequence,3_0_1_0_4_1,NA,NA,skipped,NA,1893220.4,NA,NA,1893219.071,1893220.5,2023-04-18T11:55:03Z,1893235.737,NULL,Prüfung,mtihani,d,NA,NA,NA,NA,sdfdsf,NA,1,NA,NA,NA,NA,NA,NA,NA,NA,NA,NA,NA,NA,NA,NA,NA,NA,NA,NA,NA
58275,task,flow.Sequence,3_0_1_0_4,NA,NA,completion,10571.11,1882637,1882631.295,1882647.961,1893219.071,1893220.5,2023-04-18T11:55:03Z,1893235.737,NULL,Prüfung,mtihani,d,NA,NA,NA,NA,sdfdsf,NA,1,NA,NA,NA,NA,NA,NA,NA,NA,NA,NA,NA,NA,NA,NA,NA,NA,NA,NA,NA
58275,Deep Question,html.Page,3_0_1_0_5_0_0,NA,NA,form submission,3379.4629999881,1893220.6,1893219.071,1893235.737,1896615.2,1896615.4,2023-04-18T11:55:06Z,1896619.459,NULL,Polizist,msongora,d,NA,NA,NA,bedalino,NA,NA,1,NA,NA,NA,NA,NA,NA,NA,NA,NA,NA,NA,NA,NA,NA,NA,NA,NA,NA,NA
58275,"""Richtig""-Screen",canvas.Screen,3_0_1_0_5_0_1,NA,NA,skipped,NA,1896616.9,NA,NA,1896615.2,1896617,2023-04-18T11:55:06Z,1896619.459,NULL,Polizist,msongora,d,NA,NA,NA,NA,sdfdsf,NA,1,NA,NA,NA,NA,NA,NA,NA,NA,NA,NA,NA,NA,NA,NA,NA,NA,NA,NA,NA
58275,"""Falsch""-Screen",canvas.Screen,3_0_1_0_5_0_2,NA,NA,timeout,4999.8,1896617.5,1896602.793,1896619.459,1901602.593,1901604.3,2023-04-18T11:55:11Z,1901619.259,NULL,Polizist,msongora,d,NA,NA,NA,NA,sdfdsf,0,1,NA,NA,NA,NA,NA,NA,NA,NA,NA,NA,NA,NA,NA,NA,NA,NA,NA,NA,NA
58275,deep,flow.Sequence,3_0_1_0_5_0,NA,NA,completion,8366.8560000001,1893220.6,1893219.071,1893235.737,1901602.593,1901604.5,2023-04-18T11:55:11Z,1901619.259,NULL,Polizist,msongora,d,NA,NA,NA,NA,sdfdsf,NA,1,NA,NA,NA,NA,NA,NA,NA,NA,NA,NA,NA,NA,NA,NA,NA,NA,NA,NA,NA
58275,shallow,flow.Sequence,3_0_1_0_5_1,NA,NA,skipped,NA,1901604.7,NA,NA,1901602.593,1901604.8,2023-04-18T11:55:11Z,1901619.259,NULL,Polizist,msongora,d,NA,NA,NA,NA,sdfdsf,NA,1,NA,NA,NA,NA,NA,NA,NA,NA,NA,NA,NA,NA,NA,NA,NA,NA,NA,NA,NA
58275,task,flow.Sequence,3_0_1_0_5,NA,NA,completion,8366.8560000001,1893220.6,1893219.071,1893235.737,1901602.593,1901605,2023-04-18T11:55:11Z,1901619.259,NULL,Polizist,msongora,d,NA,NA,NA,NA,sdfdsf,NA,1,NA,NA,NA,NA,NA,NA,NA,NA,NA,NA,NA,NA,NA,NA,NA,NA,NA,NA,NA
58275,deep,flow.Sequence,3_0_1_0_6_0,NA,NA,skipped,NA,1901605.1,NA,NA,1901602.593,1901605.2,2023-04-18T11:55:11Z,1901619.259,NULL,Verzögerung,kuchelewa,s,mwakilishi,mwanauchumi,jaribio,NA,sdfdsf,NA,1,NA,NA,NA,NA,NA,NA,NA,NA,NA,NA,NA,NA,NA,NA,NA,NA,NA,NA,NA
58275,Shallow Question,html.Page,3_0_1_0_6_1_0,NA,NA,form submission,7944.340999994,1901605.3,1901602.593,1901619.259,1909563.6,1909563.9,2023-04-18T11:55:19Z,1909568.941,NULL,Verzögerung,kuchelewa,s,mwakilishi,mwanauchumi,jaribio,kuchelewa,NA,NA,1,NA,NA,NA,NA,NA,NA,NA,NA,NA,NA,NA,NA,NA,NA,NA,NA,NA,NA,NA
58275,"""Richtig""-Screen",canvas.Screen,3_0_1_0_6_1_1,NA,NA,timeout,4999.7999999998,1909566.3,1909552.275,1909568.941,1914552.075,1914553.7,2023-04-18T11:55:24Z,1914568.741,NULL,Verzögerung,kuchelewa,s,mwakilishi,mwanauchumi,jaribio,NA,sdfdsf,1,1,NA,NA,NA,NA,NA,NA,NA,NA,NA,NA,NA,NA,NA,NA,NA,NA,NA,NA,NA
58275,"""Falsch""-Screen",canvas.Screen,3_0_1_0_6_1_2,NA,NA,skipped,NA,1914556.9,NA,NA,1914552.075,1914557.1,2023-04-18T11:55:24Z,1914568.741,NULL,Verzögerung,kuchelewa,s,mwakilishi,mwanauchumi,jaribio,NA,sdfdsf,NA,1,NA,NA,NA,NA,NA,NA,NA,NA,NA,NA,NA,NA,NA,NA,NA,NA,NA,NA,NA
58275,shallow,flow.Sequence,3_0_1_0_6_1,NA,NA,completion,12932.816,1901605.3,1901602.593,1901619.259,1914552.075,1914557.3,2023-04-18T11:55:24Z,1914568.741,NULL,Verzögerung,kuchelewa,s,mwakilishi,mwanauchumi,jaribio,NA,sdfdsf,NA,1,NA,NA,NA,NA,NA,NA,NA,NA,NA,NA,NA,NA,NA,NA,NA,NA,NA,NA,NA
58275,task,flow.Sequence,3_0_1_0_6,NA,NA,completion,12932.816,1901605.1,1901602.593,1901619.259,1914552.075,1914557.4,2023-04-18T11:55:24Z,1914568.741,NULL,Verzögerung,kuchelewa,s,mwakilishi,mwanauchumi,jaribio,NA,sdfdsf,NA,1,NA,NA,NA,NA,NA,NA,NA,NA,NA,NA,NA,NA,NA,NA,NA,NA,NA,NA,NA
58275,deep,flow.Sequence,3_0_1_0_7_0,NA,NA,skipped,NA,1914557.5,NA,NA,1914552.075,1914557.6,2023-04-18T11:55:24Z,1914568.741,NULL,Annäherung,maegesho,s,madahili,kujiamini,mapendekezo,NA,sdfdsf,NA,1,NA,NA,NA,NA,NA,NA,NA,NA,NA,NA,NA,NA,NA,NA,NA,NA,NA,NA,NA
58275,Shallow Question,html.Page,3_0_1_0_7_1_0,NA,NA,form submission,8202.7590000001,1914557.7,1914552.075,1914568.741,1922771.5,1922771.8,2023-04-18T11:55:33Z,1922771.534,NULL,Annäherung,maegesho,s,madahili,kujiamini,mapendekezo,maegesho,NA,NA,1,NA,NA,NA,NA,NA,NA,NA,NA,NA,NA,NA,NA,NA,NA,NA,NA,NA,NA,NA
58275,"""Richtig""-Screen",canvas.Screen,3_0_1_0_7_1_1,NA,NA,timeout,4999.8,1922774.6,1922754.868,1922771.534,1927754.668,1927756,2023-04-18T11:55:38Z,1927771.334,NULL,Annäherung,maegesho,s,madahili,kujiamini,mapendekezo,NA,sdfdsf,1,1,NA,NA,NA,NA,NA,NA,NA,NA,NA,NA,NA,NA,NA,NA,NA,NA,NA,NA,NA
58275,"""Falsch""-Screen",canvas.Screen,3_0_1_0_7_1_2,NA,NA,skipped,NA,1927759,NA,NA,1927754.668,1927759.1,2023-04-18T11:55:38Z,1927771.334,NULL,Annäherung,maegesho,s,madahili,kujiamini,mapendekezo,NA,sdfdsf,NA,1,NA,NA,NA,NA,NA,NA,NA,NA,NA,NA,NA,NA,NA,NA,NA,NA,NA,NA,NA
58275,shallow,flow.Sequence,3_0_1_0_7_1,NA,NA,completion,13185.927,1914557.7,1914552.075,1914568.741,1927754.668,1927759.3,2023-04-18T11:55:38Z,1927771.334,NULL,Annäherung,maegesho,s,madahili,kujiamini,mapendekezo,NA,sdfdsf,NA,1,NA,NA,NA,NA,NA,NA,NA,NA,NA,NA,NA,NA,NA,NA,NA,NA,NA,NA,NA
58275,task,flow.Sequence,3_0_1_0_7,NA,NA,completion,13185.927,1914557.5,1914552.075,1914568.741,1927754.668,1927759.4,2023-04-18T11:55:38Z,1927771.334,NULL,Annäherung,maegesho,s,madahili,kujiamini,mapendekezo,NA,sdfdsf,NA,1,NA,NA,NA,NA,NA,NA,NA,NA,NA,NA,NA,NA,NA,NA,NA,NA,NA,NA,NA
58275,block,flow.Loop,3_0_1_0,NA,NA,completion,94676.796,1833076.8,1833061.206,1833077.872,1927754.668,1927759.6,2023-04-18T11:55:38Z,1927771.334,NULL,NA,NA,NA,NA,NA,NA,NA,sdfdsf,NA,1,NA,NA,NA,NA,NA,NA,NA,NA,NA,NA,NA,NA,NA,NA,NA,NA,NA,NA,NA
58275,weiter,canvas.Screen,3_0_1_1,sdf,keypress(Space),response,1021.4660000119,1927759.6,1927754.668,1927771.334,1928792.8,1928796.5,2023-04-18T11:55:39Z,1928835.505,NULL,NA,NA,NA,NA,NA,NA,NA,sdfdsf,NA,1,NA,NA,NA,NA,NA,NA,NA,NA,NA,NA,NA,NA,NA,NA,NA,NA,NA,NA,NA
58275,check continue,flow.Sequence,3_0_1,NA,NA,completion,95714.928000012,1833076.7,1833061.206,1833077.872,1928792.8,1928796.7,2023-04-18T11:55:39Z,1928835.505,NULL,NA,NA,NA,NA,NA,NA,NA,sdfdsf,NA,1,NA,NA,NA,NA,NA,NA,NA,NA,NA,NA,NA,NA,NA,NA,NA,NA,NA,NA,NA
58275,deep,flow.Sequence,3_0_2_0_0_0,NA,NA,skipped,NA,1928821.5,NA,NA,1928792.8,1928821.7,2023-04-18T11:55:39Z,1928835.505,NULL,Sympathie,mapendano,s,dhamiria,fungamano,maazimio,NA,sdf,NA,2,NA,NA,NA,NA,NA,NA,NA,NA,NA,NA,NA,NA,NA,NA,NA,NA,NA,NA,NA
58275,Shallow Question,html.Page,3_0_2_0_0_1_0,NA,NA,form submission,11207.795000012,1928821.7,1928818.839,1928835.505,1940043.3,1940043.5,2023-04-18T11:55:50Z,1940055.378,NULL,Sympathie,mapendano,s,dhamiria,fungamano,maazimio,mapendano,NA,NA,2,NA,NA,NA,NA,NA,NA,NA,NA,NA,NA,NA,NA,NA,NA,NA,NA,NA,NA,NA
58275,"""Richtig""-Screen",canvas.Screen,3_0_2_0_0_1_1,NA,NA,timeout,4999.8,1940044.9,1940038.712,1940055.378,1945038.512,1945039,2023-04-18T11:55:55Z,1945055.178,NULL,Sympathie,mapendano,s,dhamiria,fungamano,maazimio,NA,sdf,1,2,NA,NA,NA,NA,NA,NA,NA,NA,NA,NA,NA,NA,NA,NA,NA,NA,NA,NA,NA
58275,"""Falsch""-Screen",canvas.Screen,3_0_2_0_0_1_2,NA,NA,skipped,NA,1945040.6,NA,NA,1945038.512,1945040.7,2023-04-18T11:55:55Z,1945055.178,NULL,Sympathie,mapendano,s,dhamiria,fungamano,maazimio,NA,sdf,NA,2,NA,NA,NA,NA,NA,NA,NA,NA,NA,NA,NA,NA,NA,NA,NA,NA,NA,NA,NA
58275,shallow,flow.Sequence,3_0_2_0_0_1,NA,NA,completion,16203.007,1928821.7,1928818.839,1928835.505,1945038.512,1945040.9,2023-04-18T11:55:55Z,1945055.178,NULL,Sympathie,mapendano,s,dhamiria,fungamano,maazimio,NA,sdf,NA,2,NA,NA,NA,NA,NA,NA,NA,NA,NA,NA,NA,NA,NA,NA,NA,NA,NA,NA,NA
58275,task,flow.Sequence,3_0_2_0_0,NA,NA,completion,16203.007,1928821.5,1928818.839,1928835.505,1945038.512,1945040.9,2023-04-18T11:55:55Z,1945055.178,NULL,Sympathie,mapendano,s,dhamiria,fungamano,maazimio,NA,sdf,NA,2,NA,NA,NA,NA,NA,NA,NA,NA,NA,NA,NA,NA,NA,NA,NA,NA,NA,NA,NA
58275,deep,flow.Sequence,3_0_2_0_1_0,NA,NA,skipped,NA,1945041,NA,NA,1945038.512,1945041.1,2023-04-18T11:55:55Z,1945055.178,NULL,Annäherung,maegesho,s,madahili,kujiamini,mapendekezo,NA,sdf,NA,2,NA,NA,NA,NA,NA,NA,NA,NA,NA,NA,NA,NA,NA,NA,NA,NA,NA,NA,NA
58275,Shallow Question,html.Page,3_0_2_0_1_1_0,NA,NA,form submission,7483.7220000059,1945041.1,1945038.512,1945055.178,1952538.9,1952539.1,2023-04-18T11:56:02Z,1952547.023,NULL,Annäherung,maegesho,s,madahili,kujiamini,mapendekezo,maegesho,NA,NA,2,NA,NA,NA,NA,NA,NA,NA,NA,NA,NA,NA,NA,NA,NA,NA,NA,NA,NA,NA
58275,"""Richtig""-Screen",canvas.Screen,3_0_2_0_1_1_1,NA,NA,timeout,4999.8,1952540.7,1952530.357,1952547.023,1957530.157,1957534.1,2023-04-18T11:56:07Z,1957546.823,NULL,Annäherung,maegesho,s,madahili,kujiamini,mapendekezo,NA,sdf,1,2,NA,NA,NA,NA,NA,NA,NA,NA,NA,NA,NA,NA,NA,NA,NA,NA,NA,NA,NA
58275,"""Falsch""-Screen",canvas.Screen,3_0_2_0_1_1_2,NA,NA,skipped,NA,1957536.6,NA,NA,1957530.157,1957536.7,2023-04-18T11:56:07Z,1957546.823,NULL,Annäherung,maegesho,s,madahili,kujiamini,mapendekezo,NA,sdf,NA,2,NA,NA,NA,NA,NA,NA,NA,NA,NA,NA,NA,NA,NA,NA,NA,NA,NA,NA,NA
58275,shallow,flow.Sequence,3_0_2_0_1_1,NA,NA,completion,12474.979,1945041.1,1945038.512,1945055.178,1957530.157,1957536.8,2023-04-18T11:56:07Z,1957546.823,NULL,Annäherung,maegesho,s,madahili,kujiamini,mapendekezo,NA,sdf,NA,2,NA,NA,NA,NA,NA,NA,NA,NA,NA,NA,NA,NA,NA,NA,NA,NA,NA,NA,NA
58275,task,flow.Sequence,3_0_2_0_1,NA,NA,completion,12474.979,1945041,1945038.512,1945055.178,1957530.157,1957537,2023-04-18T11:56:07Z,1957546.823,NULL,Annäherung,maegesho,s,madahili,kujiamini,mapendekezo,NA,sdf,NA,2,NA,NA,NA,NA,NA,NA,NA,NA,NA,NA,NA,NA,NA,NA,NA,NA,NA,NA,NA
58275,Deep Question,html.Page,3_0_2_0_2_0_0,NA,NA,form submission,11514.376999988,1957537.1,1957530.157,1957546.823,1969061.2,1969061.3,2023-04-18T11:56:19Z,1969063.22,NULL,Aufstand,ugomaji,d,NA,NA,NA,maegl,NA,NA,2,NA,NA,NA,NA,NA,NA,NA,NA,NA,NA,NA,NA,NA,NA,NA,NA,NA,NA,NA
58275,"""Richtig""-Screen",canvas.Screen,3_0_2_0_2_0_1,NA,NA,skipped,NA,1969062.7,NA,NA,1969061.2,1969062.8,2023-04-18T11:56:19Z,1969063.22,NULL,Aufstand,ugomaji,d,NA,NA,NA,NA,sdf,NA,2,NA,NA,NA,NA,NA,NA,NA,NA,NA,NA,NA,NA,NA,NA,NA,NA,NA,NA,NA
58275,"""Falsch""-Screen",canvas.Screen,3_0_2_0_2_0_2,NA,NA,timeout,4999.8,1969063.4,1969046.554,1969063.22,1974046.354,1974049.4,2023-04-18T11:56:24Z,1974063.02,NULL,Aufstand,ugomaji,d,NA,NA,NA,NA,sdf,0,2,NA,NA,NA,NA,NA,NA,NA,NA,NA,NA,NA,NA,NA,NA,NA,NA,NA,NA,NA
58275,deep,flow.Sequence,3_0_2_0_2_0,NA,NA,completion,16499.531,1957537.1,1957530.157,1957546.823,1974046.354,1974049.5,2023-04-18T11:56:24Z,1974063.02,NULL,Aufstand,ugomaji,d,NA,NA,NA,NA,sdf,NA,2,NA,NA,NA,NA,NA,NA,NA,NA,NA,NA,NA,NA,NA,NA,NA,NA,NA,NA,NA
58275,shallow,flow.Sequence,3_0_2_0_2_1,NA,NA,skipped,NA,1974049.5,NA,NA,1974046.354,1974049.6,2023-04-18T11:56:24Z,1974063.02,NULL,Aufstand,ugomaji,d,NA,NA,NA,NA,sdf,NA,2,NA,NA,NA,NA,NA,NA,NA,NA,NA,NA,NA,NA,NA,NA,NA,NA,NA,NA,NA
58275,task,flow.Sequence,3_0_2_0_2,NA,NA,completion,16499.531,1957537,1957530.157,1957546.823,1974046.354,1974049.7,2023-04-18T11:56:24Z,1974063.02,NULL,Aufstand,ugomaji,d,NA,NA,NA,NA,sdf,NA,2,NA,NA,NA,NA,NA,NA,NA,NA,NA,NA,NA,NA,NA,NA,NA,NA,NA,NA,NA
58275,Deep Question,html.Page,3_0_2_0_3_0_0,NA,NA,form submission,4144.8800000059,1974049.8,1974046.354,1974063.02,1978207.9,1978208.3,2023-04-18T11:56:28Z,1978210.781,NULL,Beweis,ushahidi,d,NA,NA,NA,mathe,NA,NA,2,NA,NA,NA,NA,NA,NA,NA,NA,NA,NA,NA,NA,NA,NA,NA,NA,NA,NA,NA
58275,"""Richtig""-Screen",canvas.Screen,3_0_2_0_3_0_1,NA,NA,skipped,NA,1978211.2,NA,NA,1978207.9,1978211.3,2023-04-18T11:56:28Z,1978210.781,NULL,Beweis,ushahidi,d,NA,NA,NA,NA,sdf,NA,2,NA,NA,NA,NA,NA,NA,NA,NA,NA,NA,NA,NA,NA,NA,NA,NA,NA,NA,NA
58275,"""Falsch""-Screen",canvas.Screen,3_0_2_0_3_0_2,NA,NA,timeout,4999.8,1978212.2,1978194.115,1978210.781,1983193.915,1983195.5,2023-04-18T11:56:33Z,1983210.581,NULL,Beweis,ushahidi,d,NA,NA,NA,NA,sdf,0,2,NA,NA,NA,NA,NA,NA,NA,NA,NA,NA,NA,NA,NA,NA,NA,NA,NA,NA,NA
58275,deep,flow.Sequence,3_0_2_0_3_0,NA,NA,completion,9130.895,1974049.8,1974046.354,1974063.02,1983193.915,1983195.6,2023-04-18T11:56:33Z,1983210.581,NULL,Beweis,ushahidi,d,NA,NA,NA,NA,sdf,NA,2,NA,NA,NA,NA,NA,NA,NA,NA,NA,NA,NA,NA,NA,NA,NA,NA,NA,NA,NA
58275,shallow,flow.Sequence,3_0_2_0_3_1,NA,NA,skipped,NA,1983195.8,NA,NA,1983193.915,1983195.8,2023-04-18T11:56:33Z,1983210.581,NULL,Beweis,ushahidi,d,NA,NA,NA,NA,sdf,NA,2,NA,NA,NA,NA,NA,NA,NA,NA,NA,NA,NA,NA,NA,NA,NA,NA,NA,NA,NA
58275,task,flow.Sequence,3_0_2_0_3,NA,NA,completion,9130.895,1974049.8,1974046.354,1974063.02,1983193.915,1983195.9,2023-04-18T11:56:33Z,1983210.581,NULL,Beweis,ushahidi,d,NA,NA,NA,NA,sdf,NA,2,NA,NA,NA,NA,NA,NA,NA,NA,NA,NA,NA,NA,NA,NA,NA,NA,NA,NA,NA
58275,deep,flow.Sequence,3_0_2_0_4_0,NA,NA,skipped,NA,1983195.9,NA,NA,1983193.915,1983195.9,2023-04-18T11:56:33Z,1983210.581,NULL,Kultur,utamaduni,s,shetani,gerezani,mazingira,NA,sdf,NA,2,NA,NA,NA,NA,NA,NA,NA,NA,NA,NA,NA,NA,NA,NA,NA,NA,NA,NA,NA
58275,Shallow Question,html.Page,3_0_2_0_4_1_0,NA,NA,form submission,10392.719000012,1983196,1983193.915,1983210.581,1993603.3,1993603.5,2023-04-18T11:56:43Z,1993617.836,NULL,Kultur,utamaduni,s,shetani,gerezani,mazingira,gerezani,NA,NA,2,NA,NA,NA,NA,NA,NA,NA,NA,NA,NA,NA,NA,NA,NA,NA,NA,NA,NA,NA
58275,"""Richtig""-Screen",canvas.Screen,3_0_2_0_4_1_1,NA,NA,skipped,NA,1993605.1,NA,NA,1993603.3,1993605.3,2023-04-18T11:56:43Z,1993617.836,NULL,Kultur,utamaduni,s,shetani,gerezani,mazingira,NA,sdf,NA,2,NA,NA,NA,NA,NA,NA,NA,NA,NA,NA,NA,NA,NA,NA,NA,NA,NA,NA,NA
58275,"""Falsch""-Screen",canvas.Screen,3_0_2_0_4_1_2,NA,NA,timeout,4999.8,1993605.8,1993601.17,1993617.836,1998600.97,1998602.5,2023-04-18T11:56:48Z,1998617.636,NULL,Kultur,utamaduni,s,shetani,gerezani,mazingira,NA,sdf,0,2,NA,NA,NA,NA,NA,NA,NA,NA,NA,NA,NA,NA,NA,NA,NA,NA,NA,NA,NA
58275,shallow,flow.Sequence,3_0_2_0_4_1,NA,NA,completion,15390.389,1983196,1983193.915,1983210.581,1998600.97,1998602.7,2023-04-18T11:56:48Z,1998617.636,NULL,Kultur,utamaduni,s,shetani,gerezani,mazingira,NA,sdf,NA,2,NA,NA,NA,NA,NA,NA,NA,NA,NA,NA,NA,NA,NA,NA,NA,NA,NA,NA,NA
58275,task,flow.Sequence,3_0_2_0_4,NA,NA,completion,15390.389,1983195.9,1983193.915,1983210.581,1998600.97,1998602.8,2023-04-18T11:56:48Z,1998617.636,NULL,Kultur,utamaduni,s,shetani,gerezani,mazingira,NA,sdf,NA,2,NA,NA,NA,NA,NA,NA,NA,NA,NA,NA,NA,NA,NA,NA,NA,NA,NA,NA,NA
58275,Deep Question,html.Page,3_0_2_0_5_0_0,NA,NA,form submission,3571.8640000001,1998602.9,1998600.97,1998617.636,2002189.5,2002189.6,2023-04-18T11:56:52Z,2002196.451,NULL,Prüfung,mtihani,d,NA,NA,NA,mtihani,NA,NA,2,NA,NA,NA,NA,NA,NA,NA,NA,NA,NA,NA,NA,NA,NA,NA,NA,NA,NA,NA
58275,"""Richtig""-Screen",canvas.Screen,3_0_2_0_5_0_1,NA,NA,timeout,4999.8,2002191.1,2002179.785,2002196.451,2007179.585,2007181.1,2023-04-18T11:56:57Z,2007196.251,NULL,Prüfung,mtihani,d,NA,NA,NA,NA,sdf,1,2,NA,NA,NA,NA,NA,NA,NA,NA,NA,NA,NA,NA,NA,NA,NA,NA,NA,NA,NA
58275,"""Falsch""-Screen",canvas.Screen,3_0_2_0_5_0_2,NA,NA,skipped,NA,2007184.2,NA,NA,2007179.585,2007184.3,2023-04-18T11:56:57Z,2007196.251,NULL,Prüfung,mtihani,d,NA,NA,NA,NA,sdf,NA,2,NA,NA,NA,NA,NA,NA,NA,NA,NA,NA,NA,NA,NA,NA,NA,NA,NA,NA,NA
58275,deep,flow.Sequence,3_0_2_0_5_0,NA,NA,completion,8561.949,1998602.9,1998600.97,1998617.636,2007179.585,2007184.5,2023-04-18T11:56:57Z,2007196.251,NULL,Prüfung,mtihani,d,NA,NA,NA,NA,sdf,NA,2,NA,NA,NA,NA,NA,NA,NA,NA,NA,NA,NA,NA,NA,NA,NA,NA,NA,NA,NA
58275,shallow,flow.Sequence,3_0_2_0_5_1,NA,NA,skipped,NA,2007184.7,NA,NA,2007179.585,2007184.9,2023-04-18T11:56:57Z,2007196.251,NULL,Prüfung,mtihani,d,NA,NA,NA,NA,sdf,NA,2,NA,NA,NA,NA,NA,NA,NA,NA,NA,NA,NA,NA,NA,NA,NA,NA,NA,NA,NA
58275,task,flow.Sequence,3_0_2_0_5,NA,NA,completion,8561.949,1998602.8,1998600.97,1998617.636,2007179.585,2007185.2,2023-04-18T11:56:57Z,2007196.251,NULL,Prüfung,mtihani,d,NA,NA,NA,NA,sdf,NA,2,NA,NA,NA,NA,NA,NA,NA,NA,NA,NA,NA,NA,NA,NA,NA,NA,NA,NA,NA
58275,deep,flow.Sequence,3_0_2_0_6_0,NA,NA,skipped,NA,2007185.3,NA,NA,2007179.585,2007185.4,2023-04-18T11:56:57Z,2007196.251,NULL,Verzögerung,kuchelewa,s,mwakilishi,mwanauchumi,jaribio,NA,sdf,NA,2,NA,NA,NA,NA,NA,NA,NA,NA,NA,NA,NA,NA,NA,NA,NA,NA,NA,NA,NA
58275,Shallow Question,html.Page,3_0_2_0_6_1_0,NA,NA,form submission,4571.8489999941,2007185.5,2007179.585,2007196.251,2011768.1,2011768.2,2023-04-18T11:57:02Z,2011776.566,NULL,Verzögerung,kuchelewa,s,mwakilishi,mwanauchumi,jaribio,kuchelewa,NA,NA,2,NA,NA,NA,NA,NA,NA,NA,NA,NA,NA,NA,NA,NA,NA,NA,NA,NA,NA,NA
58275,"""Richtig""-Screen",canvas.Screen,3_0_2_0_6_1_1,NA,NA,timeout,4999.7999999998,2011769.6,2011759.9,2011776.566,2016759.7,2016761.3,2023-04-18T11:57:07Z,2016776.366,NULL,Verzögerung,kuchelewa,s,mwakilishi,mwanauchumi,jaribio,NA,sdf,1,2,NA,NA,NA,NA,NA,NA,NA,NA,NA,NA,NA,NA,NA,NA,NA,NA,NA,NA,NA
58275,"""Falsch""-Screen",canvas.Screen,3_0_2_0_6_1_2,NA,NA,skipped,NA,2016764.2,NA,NA,2016759.7,2016764.6,2023-04-18T11:57:07Z,2016776.366,NULL,Verzögerung,kuchelewa,s,mwakilishi,mwanauchumi,jaribio,NA,sdf,NA,2,NA,NA,NA,NA,NA,NA,NA,NA,NA,NA,NA,NA,NA,NA,NA,NA,NA,NA,NA
58275,shallow,flow.Sequence,3_0_2_0_6_1,NA,NA,completion,9563.449,2007185.4,2007179.585,2007196.251,2016759.7,2016764.9,2023-04-18T11:57:07Z,2016776.366,NULL,Verzögerung,kuchelewa,s,mwakilishi,mwanauchumi,jaribio,NA,sdf,NA,2,NA,NA,NA,NA,NA,NA,NA,NA,NA,NA,NA,NA,NA,NA,NA,NA,NA,NA,NA
58275,task,flow.Sequence,3_0_2_0_6,NA,NA,completion,9563.449,2007185.3,2007179.585,2007196.251,2016759.7,2016765.1,2023-04-18T11:57:07Z,2016776.366,NULL,Verzögerung,kuchelewa,s,mwakilishi,mwanauchumi,jaribio,NA,sdf,NA,2,NA,NA,NA,NA,NA,NA,NA,NA,NA,NA,NA,NA,NA,NA,NA,NA,NA,NA,NA
58275,Deep Question,html.Page,3_0_2_0_7_0_0,NA,NA,form submission,9135.534000006,2016765.2,2016759.7,2016776.366,2025911.9,2025912.2,2023-04-18T11:57:16Z,2025919.488,NULL,Polizist,msongora,d,NA,NA,NA,lage,NA,NA,2,NA,NA,NA,NA,NA,NA,NA,NA,NA,NA,NA,NA,NA,NA,NA,NA,NA,NA,NA
58275,"""Richtig""-Screen",canvas.Screen,3_0_2_0_7_0_1,NA,NA,skipped,NA,2025914.9,NA,NA,2025911.9,2025915,2023-04-18T11:57:16Z,2025919.488,NULL,Polizist,msongora,d,NA,NA,NA,NA,sdf,NA,2,NA,NA,NA,NA,NA,NA,NA,NA,NA,NA,NA,NA,NA,NA,NA,NA,NA,NA,NA
58275,"""Falsch""-Screen",canvas.Screen,3_0_2_0_7_0_2,NA,NA,timeout,4999.8,2025915.8,2025902.822,2025919.488,2030902.622,2030904.2,2023-04-18T11:57:21Z,2030919.288,NULL,Polizist,msongora,d,NA,NA,NA,NA,sdf,0,2,NA,NA,NA,NA,NA,NA,NA,NA,NA,NA,NA,NA,NA,NA,NA,NA,NA,NA,NA
58275,deep,flow.Sequence,3_0_2_0_7_0,NA,NA,completion,14126.256,2016765.2,2016759.7,2016776.366,2030902.622,2030904.5,2023-04-18T11:57:21Z,2030919.288,NULL,Polizist,msongora,d,NA,NA,NA,NA,sdf,NA,2,NA,NA,NA,NA,NA,NA,NA,NA,NA,NA,NA,NA,NA,NA,NA,NA,NA,NA,NA
58275,shallow,flow.Sequence,3_0_2_0_7_1,NA,NA,skipped,NA,2030904.6,NA,NA,2030902.622,2030904.7,2023-04-18T11:57:21Z,2030919.288,NULL,Polizist,msongora,d,NA,NA,NA,NA,sdf,NA,2,NA,NA,NA,NA,NA,NA,NA,NA,NA,NA,NA,NA,NA,NA,NA,NA,NA,NA,NA
58275,task,flow.Sequence,3_0_2_0_7,NA,NA,completion,14126.256,2016765.2,2016759.7,2016776.366,2030902.622,2030904.9,2023-04-18T11:57:21Z,2030919.288,NULL,Polizist,msongora,d,NA,NA,NA,NA,sdf,NA,2,NA,NA,NA,NA,NA,NA,NA,NA,NA,NA,NA,NA,NA,NA,NA,NA,NA,NA,NA
58275,block,flow.Loop,3_0_2_0,NA,NA,completion,102067.117,1928821.5,1928818.839,1928835.505,2030902.622,2030905.1,2023-04-18T11:57:21Z,2030919.288,NULL,NA,NA,NA,NA,NA,NA,NA,sdf,NA,2,NA,NA,NA,NA,NA,NA,NA,NA,NA,NA,NA,NA,NA,NA,NA,NA,NA,NA,NA
58275,weiter,canvas.Screen,3_0_2_1,sdf,keypress(Space),response,994.71200000006,2030905.1,2030902.622,2030919.288,2031914,2031919.2,2023-04-18T11:57:22Z,2031958.148,NULL,NA,NA,NA,NA,NA,NA,NA,sdf,NA,2,NA,NA,NA,NA,NA,NA,NA,NA,NA,NA,NA,NA,NA,NA,NA,NA,NA,NA,NA
58275,check continue,flow.Sequence,3_0_2,NA,NA,completion,103078.495,1928821.1,1928818.839,1928835.505,2031914,2031919.3,2023-04-18T11:57:22Z,2031958.148,NULL,NA,NA,NA,NA,NA,NA,NA,sdf,NA,2,NA,NA,NA,NA,NA,NA,NA,NA,NA,NA,NA,NA,NA,NA,NA,NA,NA,NA,NA
58275,Deep Question,html.Page,3_0_3_0_0_0_0,NA,NA,form submission,2571.951999994,2031944,2031941.482,2031958.148,2034530.1,2034530.3,2023-04-18T11:57:24Z,2034541.378,NULL,Polizist,msongora,d,NA,NA,NA,msongora,NA,NA,3,NA,NA,NA,NA,NA,NA,NA,NA,NA,NA,NA,NA,NA,NA,NA,NA,NA,NA,NA
58275,"""Richtig""-Screen",canvas.Screen,3_0_3_0_0_0_1,NA,NA,timeout,4999.8,2034531.8,2034524.712,2034541.378,2039524.512,2039525.5,2023-04-18T11:57:29Z,2039541.178,NULL,Polizist,msongora,d,NA,NA,NA,NA,qt,1,3,NA,NA,NA,NA,NA,NA,NA,NA,NA,NA,NA,NA,NA,NA,NA,NA,NA,NA,NA
58275,"""Falsch""-Screen",canvas.Screen,3_0_3_0_0_0_2,NA,NA,skipped,NA,2039527,NA,NA,2039524.512,2039527.2,2023-04-18T11:57:29Z,2039541.178,NULL,Polizist,msongora,d,NA,NA,NA,NA,qt,NA,3,NA,NA,NA,NA,NA,NA,NA,NA,NA,NA,NA,NA,NA,NA,NA,NA,NA,NA,NA
58275,deep,flow.Sequence,3_0_3_0_0_0,NA,NA,completion,7566.3640000001,2031944,2031941.482,2031958.148,2039524.512,2039527.3,2023-04-18T11:57:29Z,2039541.178,NULL,Polizist,msongora,d,NA,NA,NA,NA,qt,NA,3,NA,NA,NA,NA,NA,NA,NA,NA,NA,NA,NA,NA,NA,NA,NA,NA,NA,NA,NA
58275,shallow,flow.Sequence,3_0_3_0_0_1,NA,NA,skipped,NA,2039527.3,NA,NA,2039524.512,2039527.4,2023-04-18T11:57:29Z,2039541.178,NULL,Polizist,msongora,d,NA,NA,NA,NA,qt,NA,3,NA,NA,NA,NA,NA,NA,NA,NA,NA,NA,NA,NA,NA,NA,NA,NA,NA,NA,NA
58275,task,flow.Sequence,3_0_3_0_0,NA,NA,completion,7566.3640000001,2031944,2031941.482,2031958.148,2039524.512,2039527.4,2023-04-18T11:57:29Z,2039541.178,NULL,Polizist,msongora,d,NA,NA,NA,NA,qt,NA,3,NA,NA,NA,NA,NA,NA,NA,NA,NA,NA,NA,NA,NA,NA,NA,NA,NA,NA,NA
58275,deep,flow.Sequence,3_0_3_0_1_0,NA,NA,skipped,NA,2039527.5,NA,NA,2039524.512,2039527.5,2023-04-18T11:57:29Z,2039541.178,NULL,Kultur,utamaduni,s,shetani,gerezani,mazingira,NA,qt,NA,3,NA,NA,NA,NA,NA,NA,NA,NA,NA,NA,NA,NA,NA,NA,NA,NA,NA,NA,NA
58275,Shallow Question,html.Page,3_0_3_0_1_1_0,NA,NA,form submission,3313.3219999999,2039527.5,2039524.512,2039541.178,2042854.5,2042854.8,2023-04-18T11:57:33Z,2042862.29,NULL,Kultur,utamaduni,s,shetani,gerezani,mazingira,utamaduni,NA,NA,3,NA,NA,NA,NA,NA,NA,NA,NA,NA,NA,NA,NA,NA,NA,NA,NA,NA,NA,NA
58275,"""Richtig""-Screen",canvas.Screen,3_0_3_0_1_1_1,NA,NA,timeout,4999.8,2042856.6,2042845.624,2042862.29,2047845.424,2047850.2,2023-04-18T11:57:38Z,2047862.09,NULL,Kultur,utamaduni,s,shetani,gerezani,mazingira,NA,qt,1,3,NA,NA,NA,NA,NA,NA,NA,NA,NA,NA,NA,NA,NA,NA,NA,NA,NA,NA,NA
58275,"""Falsch""-Screen",canvas.Screen,3_0_3_0_1_1_2,NA,NA,skipped,NA,2047851.8,NA,NA,2047845.424,2047852,2023-04-18T11:57:38Z,2047862.09,NULL,Kultur,utamaduni,s,shetani,gerezani,mazingira,NA,qt,NA,3,NA,NA,NA,NA,NA,NA,NA,NA,NA,NA,NA,NA,NA,NA,NA,NA,NA,NA,NA
58275,shallow,flow.Sequence,3_0_3_0_1_1,NA,NA,completion,8304.246,2039527.5,2039524.512,2039541.178,2047845.424,2047852.1,2023-04-18T11:57:38Z,2047862.09,NULL,Kultur,utamaduni,s,shetani,gerezani,mazingira,NA,qt,NA,3,NA,NA,NA,NA,NA,NA,NA,NA,NA,NA,NA,NA,NA,NA,NA,NA,NA,NA,NA
58275,task,flow.Sequence,3_0_3_0_1,NA,NA,completion,8304.246,2039527.4,2039524.512,2039541.178,2047845.424,2047852.2,2023-04-18T11:57:38Z,2047862.09,NULL,Kultur,utamaduni,s,shetani,gerezani,mazingira,NA,qt,NA,3,NA,NA,NA,NA,NA,NA,NA,NA,NA,NA,NA,NA,NA,NA,NA,NA,NA,NA,NA
58275,deep,flow.Sequence,3_0_3_0_2_0,NA,NA,skipped,NA,2047852.3,NA,NA,2047845.424,2047852.3,2023-04-18T11:57:38Z,2047862.09,NULL,Annäherung,maegesho,s,madahili,kujiamini,mapendekezo,NA,qt,NA,3,NA,NA,NA,NA,NA,NA,NA,NA,NA,NA,NA,NA,NA,NA,NA,NA,NA,NA,NA
58275,Shallow Question,html.Page,3_0_3_0_2_1_0,NA,NA,form submission,2337.4099999999,2047852.3,2047845.424,2047862.09,2050199.5,2050199.8,2023-04-18T11:57:40Z,2050211.996,NULL,Annäherung,maegesho,s,madahili,kujiamini,mapendekezo,maegesho,NA,NA,3,NA,NA,NA,NA,NA,NA,NA,NA,NA,NA,NA,NA,NA,NA,NA,NA,NA,NA,NA
58275,"""Richtig""-Screen",canvas.Screen,3_0_3_0_2_1_1,NA,NA,timeout,4999.8,2050202.1,2050195.33,2050211.996,2055195.13,2055196.6,2023-04-18T11:57:45Z,2055211.796,NULL,Annäherung,maegesho,s,madahili,kujiamini,mapendekezo,NA,qt,1,3,NA,NA,NA,NA,NA,NA,NA,NA,NA,NA,NA,NA,NA,NA,NA,NA,NA,NA,NA
58275,"""Falsch""-Screen",canvas.Screen,3_0_3_0_2_1_2,NA,NA,skipped,NA,2055199.7,NA,NA,2055195.13,2055199.9,2023-04-18T11:57:45Z,2055211.796,NULL,Annäherung,maegesho,s,madahili,kujiamini,mapendekezo,NA,qt,NA,3,NA,NA,NA,NA,NA,NA,NA,NA,NA,NA,NA,NA,NA,NA,NA,NA,NA,NA,NA
58275,shallow,flow.Sequence,3_0_3_0_2_1,NA,NA,completion,7333.0399999998,2047852.3,2047845.424,2047862.09,2055195.13,2055200.1,2023-04-18T11:57:45Z,2055211.796,NULL,Annäherung,maegesho,s,madahili,kujiamini,mapendekezo,NA,qt,NA,3,NA,NA,NA,NA,NA,NA,NA,NA,NA,NA,NA,NA,NA,NA,NA,NA,NA,NA,NA
58275,task,flow.Sequence,3_0_3_0_2,NA,NA,completion,7333.0399999998,2047852.3,2047845.424,2047862.09,2055195.13,2055200.3,2023-04-18T11:57:45Z,2055211.796,NULL,Annäherung,maegesho,s,madahili,kujiamini,mapendekezo,NA,qt,NA,3,NA,NA,NA,NA,NA,NA,NA,NA,NA,NA,NA,NA,NA,NA,NA,NA,NA,NA,NA
58275,Deep Question,html.Page,3_0_3_0_3_0_0,NA,NA,form submission,3782.1040000059,2055200.4,2055195.13,2055211.796,2058993.9,2058994,2023-04-18T11:57:49Z,2059000.048,NULL,Aufstand,ugomaji,d,NA,NA,NA,ugomaji,NA,NA,3,NA,NA,NA,NA,NA,NA,NA,NA,NA,NA,NA,NA,NA,NA,NA,NA,NA,NA,NA
58275,"""Richtig""-Screen",canvas.Screen,3_0_3_0_3_0_1,NA,NA,timeout,4999.8,2058995.3,2058983.382,2059000.048,2063983.182,2063984,2023-04-18T11:57:54Z,2063999.848,NULL,Aufstand,ugomaji,d,NA,NA,NA,NA,qt,1,3,NA,NA,NA,NA,NA,NA,NA,NA,NA,NA,NA,NA,NA,NA,NA,NA,NA,NA,NA
58275,"""Falsch""-Screen",canvas.Screen,3_0_3_0_3_0_2,NA,NA,skipped,NA,2063987,NA,NA,2063983.182,2063987.2,2023-04-18T11:57:54Z,2063999.848,NULL,Aufstand,ugomaji,d,NA,NA,NA,NA,qt,NA,3,NA,NA,NA,NA,NA,NA,NA,NA,NA,NA,NA,NA,NA,NA,NA,NA,NA,NA,NA
58275,deep,flow.Sequence,3_0_3_0_3_0,NA,NA,completion,8771.3859999999,2055200.4,2055195.13,2055211.796,2063983.182,2063987.4,2023-04-18T11:57:54Z,2063999.848,NULL,Aufstand,ugomaji,d,NA,NA,NA,NA,qt,NA,3,NA,NA,NA,NA,NA,NA,NA,NA,NA,NA,NA,NA,NA,NA,NA,NA,NA,NA,NA
58275,shallow,flow.Sequence,3_0_3_0_3_1,NA,NA,skipped,NA,2063987.5,NA,NA,2063983.182,2063987.6,2023-04-18T11:57:54Z,2063999.848,NULL,Aufstand,ugomaji,d,NA,NA,NA,NA,qt,NA,3,NA,NA,NA,NA,NA,NA,NA,NA,NA,NA,NA,NA,NA,NA,NA,NA,NA,NA,NA
58275,task,flow.Sequence,3_0_3_0_3,NA,NA,completion,8771.3859999999,2055200.3,2055195.13,2055211.796,2063983.182,2063987.7,2023-04-18T11:57:54Z,2063999.848,NULL,Aufstand,ugomaji,d,NA,NA,NA,NA,qt,NA,3,NA,NA,NA,NA,NA,NA,NA,NA,NA,NA,NA,NA,NA,NA,NA,NA,NA,NA,NA
58275,Deep Question,html.Page,3_0_3_0_4_0_0,NA,NA,form submission,2310.9520000119,2063987.9,2063983.182,2063999.848,2066310.8,2066311.1,2023-04-18T11:57:56Z,2066319.348,NULL,Prüfung,mtihani,d,NA,NA,NA,mtihani,NA,NA,3,NA,NA,NA,NA,NA,NA,NA,NA,NA,NA,NA,NA,NA,NA,NA,NA,NA,NA,NA
58275,"""Richtig""-Screen",canvas.Screen,3_0_3_0_4_0_1,NA,NA,timeout,4999.8,2066313.5,2066302.682,2066319.348,2071302.482,2071307.6,2023-04-18T11:58:01Z,2071319.148,NULL,Prüfung,mtihani,d,NA,NA,NA,NA,qt,1,3,NA,NA,NA,NA,NA,NA,NA,NA,NA,NA,NA,NA,NA,NA,NA,NA,NA,NA,NA
58275,"""Falsch""-Screen",canvas.Screen,3_0_3_0_4_0_2,NA,NA,skipped,NA,2071310.2,NA,NA,2071302.482,2071310.2,2023-04-18T11:58:01Z,2071319.148,NULL,Prüfung,mtihani,d,NA,NA,NA,NA,qt,NA,3,NA,NA,NA,NA,NA,NA,NA,NA,NA,NA,NA,NA,NA,NA,NA,NA,NA,NA,NA
58275,deep,flow.Sequence,3_0_3_0_4_0,NA,NA,completion,7302.6340000001,2063987.8,2063983.182,2063999.848,2071302.482,2071310.3,2023-04-18T11:58:01Z,2071319.148,NULL,Prüfung,mtihani,d,NA,NA,NA,NA,qt,NA,3,NA,NA,NA,NA,NA,NA,NA,NA,NA,NA,NA,NA,NA,NA,NA,NA,NA,NA,NA
58275,shallow,flow.Sequence,3_0_3_0_4_1,NA,NA,skipped,NA,2071310.4,NA,NA,2071302.482,2071310.5,2023-04-18T11:58:01Z,2071319.148,NULL,Prüfung,mtihani,d,NA,NA,NA,NA,qt,NA,3,NA,NA,NA,NA,NA,NA,NA,NA,NA,NA,NA,NA,NA,NA,NA,NA,NA,NA,NA
58275,task,flow.Sequence,3_0_3_0_4,NA,NA,completion,7302.6340000001,2063987.8,2063983.182,2063999.848,2071302.482,2071310.5,2023-04-18T11:58:01Z,2071319.148,NULL,Prüfung,mtihani,d,NA,NA,NA,NA,qt,NA,3,NA,NA,NA,NA,NA,NA,NA,NA,NA,NA,NA,NA,NA,NA,NA,NA,NA,NA,NA
58275,Deep Question,html.Page,3_0_3_0_5_0_0,NA,NA,form submission,7662.6520000119,2071310.7,2071302.482,2071319.148,2078981.8,2078982,2023-04-18T11:58:09Z,2078982.181,NULL,Beweis,ushahidi,d,NA,NA,NA,s,NA,NA,3,NA,NA,NA,NA,NA,NA,NA,NA,NA,NA,NA,NA,NA,NA,NA,NA,NA,NA,NA
58275,"""Richtig""-Screen",canvas.Screen,3_0_3_0_5_0_1,NA,NA,skipped,NA,2078984.6,NA,NA,2078981.8,2078984.7,2023-04-18T11:58:09Z,2078982.181,NULL,Beweis,ushahidi,d,NA,NA,NA,NA,qt,NA,3,NA,NA,NA,NA,NA,NA,NA,NA,NA,NA,NA,NA,NA,NA,NA,NA,NA,NA,NA
58275,"""Falsch""-Screen",canvas.Screen,3_0_3_0_5_0_2,NA,NA,timeout,4999.7999999998,2078985.8,2078965.515,2078982.181,2083965.315,2083966.6,2023-04-18T11:58:14Z,2083981.981,NULL,Beweis,ushahidi,d,NA,NA,NA,NA,qt,0,3,NA,NA,NA,NA,NA,NA,NA,NA,NA,NA,NA,NA,NA,NA,NA,NA,NA,NA,NA
58275,deep,flow.Sequence,3_0_3_0_5_0,NA,NA,completion,12646.167,2071310.7,2071302.482,2071319.148,2083965.315,2083966.9,2023-04-18T11:58:14Z,2083981.981,NULL,Beweis,ushahidi,d,NA,NA,NA,NA,qt,NA,3,NA,NA,NA,NA,NA,NA,NA,NA,NA,NA,NA,NA,NA,NA,NA,NA,NA,NA,NA
58275,shallow,flow.Sequence,3_0_3_0_5_1,NA,NA,skipped,NA,2083966.9,NA,NA,2083965.315,2083967,2023-04-18T11:58:14Z,2083981.981,NULL,Beweis,ushahidi,d,NA,NA,NA,NA,qt,NA,3,NA,NA,NA,NA,NA,NA,NA,NA,NA,NA,NA,NA,NA,NA,NA,NA,NA,NA,NA
58275,task,flow.Sequence,3_0_3_0_5,NA,NA,completion,12646.167,2071310.7,2071302.482,2071319.148,2083965.315,2083967.2,2023-04-18T11:58:14Z,2083981.981,NULL,Beweis,ushahidi,d,NA,NA,NA,NA,qt,NA,3,NA,NA,NA,NA,NA,NA,NA,NA,NA,NA,NA,NA,NA,NA,NA,NA,NA,NA,NA
58275,deep,flow.Sequence,3_0_3_0_6_0,NA,NA,skipped,NA,2083967.2,NA,NA,2083965.315,2083967.4,2023-04-18T11:58:14Z,2083981.981,NULL,Verzögerung,kuchelewa,s,mwakilishi,mwanauchumi,jaribio,NA,qt,NA,3,NA,NA,NA,NA,NA,NA,NA,NA,NA,NA,NA,NA,NA,NA,NA,NA,NA,NA,NA
58275,Shallow Question,html.Page,3_0_3_0_6_1_0,NA,NA,form submission,2280.319000012,2083967.4,2083965.315,2083981.981,2086262.3,2086262.6,2023-04-18T11:58:16Z,2086263.308,NULL,Verzögerung,kuchelewa,s,mwakilishi,mwanauchumi,jaribio,kuchelewa,NA,NA,3,NA,NA,NA,NA,NA,NA,NA,NA,NA,NA,NA,NA,NA,NA,NA,NA,NA,NA,NA
58275,"""Richtig""-Screen",canvas.Screen,3_0_3_0_6_1_1,NA,NA,timeout,4999.8,2086264.9,2086246.642,2086263.308,2091246.442,2091247.5,2023-04-18T11:58:21Z,2091263.108,NULL,Verzögerung,kuchelewa,s,mwakilishi,mwanauchumi,jaribio,NA,qt,1,3,NA,NA,NA,NA,NA,NA,NA,NA,NA,NA,NA,NA,NA,NA,NA,NA,NA,NA,NA
58275,"""Falsch""-Screen",canvas.Screen,3_0_3_0_6_1_2,NA,NA,skipped,NA,2091249.5,NA,NA,2091246.442,2091249.7,2023-04-18T11:58:21Z,2091263.108,NULL,Verzögerung,kuchelewa,s,mwakilishi,mwanauchumi,jaribio,NA,qt,NA,3,NA,NA,NA,NA,NA,NA,NA,NA,NA,NA,NA,NA,NA,NA,NA,NA,NA,NA,NA
58275,shallow,flow.Sequence,3_0_3_0_6_1,NA,NA,completion,7264.4610000001,2083967.4,2083965.315,2083981.981,2091246.442,2091249.8,2023-04-18T11:58:21Z,2091263.108,NULL,Verzögerung,kuchelewa,s,mwakilishi,mwanauchumi,jaribio,NA,qt,NA,3,NA,NA,NA,NA,NA,NA,NA,NA,NA,NA,NA,NA,NA,NA,NA,NA,NA,NA,NA
58275,task,flow.Sequence,3_0_3_0_6,NA,NA,completion,7264.4610000001,2083967.2,2083965.315,2083981.981,2091246.442,2091249.8,2023-04-18T11:58:21Z,2091263.108,NULL,Verzögerung,kuchelewa,s,mwakilishi,mwanauchumi,jaribio,NA,qt,NA,3,NA,NA,NA,NA,NA,NA,NA,NA,NA,NA,NA,NA,NA,NA,NA,NA,NA,NA,NA
58275,deep,flow.Sequence,3_0_3_0_7_0,NA,NA,skipped,NA,2091249.9,NA,NA,2091246.442,2091249.9,2023-04-18T11:58:21Z,2091263.108,NULL,Sympathie,mapendano,s,dhamiria,fungamano,maazimio,NA,qt,NA,3,NA,NA,NA,NA,NA,NA,NA,NA,NA,NA,NA,NA,NA,NA,NA,NA,NA,NA,NA
58275,Shallow Question,html.Page,3_0_3_0_7_1_0,NA,NA,form submission,7345.892,2091250,2091246.442,2091263.108,2098609,2098609.3,2023-04-18T11:58:28Z,2098608.477,NULL,Sympathie,mapendano,s,dhamiria,fungamano,maazimio,mapendano,NA,NA,3,NA,NA,NA,NA,NA,NA,NA,NA,NA,NA,NA,NA,NA,NA,NA,NA,NA,NA,NA
58275,"""Richtig""-Screen",canvas.Screen,3_0_3_0_7_1_1,NA,NA,timeout,4999.7999999998,2098612.2,2098591.811,2098608.477,2103591.611,2103596.1,2023-04-18T11:58:33Z,2103608.277,NULL,Sympathie,mapendano,s,dhamiria,fungamano,maazimio,NA,qt,1,3,NA,NA,NA,NA,NA,NA,NA,NA,NA,NA,NA,NA,NA,NA,NA,NA,NA,NA,NA
58275,"""Falsch""-Screen",canvas.Screen,3_0_3_0_7_1_2,NA,NA,skipped,NA,2103600,NA,NA,2103591.611,2103600.2,2023-04-18T11:58:33Z,2103608.277,NULL,Sympathie,mapendano,s,dhamiria,fungamano,maazimio,NA,qt,NA,3,NA,NA,NA,NA,NA,NA,NA,NA,NA,NA,NA,NA,NA,NA,NA,NA,NA,NA,NA
58275,shallow,flow.Sequence,3_0_3_0_7_1,NA,NA,completion,12328.503,2091250,2091246.442,2091263.108,2103591.611,2103600.4,2023-04-18T11:58:33Z,2103608.277,NULL,Sympathie,mapendano,s,dhamiria,fungamano,maazimio,NA,qt,NA,3,NA,NA,NA,NA,NA,NA,NA,NA,NA,NA,NA,NA,NA,NA,NA,NA,NA,NA,NA
58275,task,flow.Sequence,3_0_3_0_7,NA,NA,completion,12328.503,2091249.9,2091246.442,2091263.108,2103591.611,2103600.5,2023-04-18T11:58:33Z,2103608.277,NULL,Sympathie,mapendano,s,dhamiria,fungamano,maazimio,NA,qt,NA,3,NA,NA,NA,NA,NA,NA,NA,NA,NA,NA,NA,NA,NA,NA,NA,NA,NA,NA,NA
58275,block,flow.Loop,3_0_3_0,NA,NA,completion,71633.463,2031944,2031941.482,2031958.148,2103591.611,2103600.7,2023-04-18T11:58:33Z,2103608.277,NULL,NA,NA,NA,NA,NA,NA,NA,qt,NA,3,NA,NA,NA,NA,NA,NA,NA,NA,NA,NA,NA,NA,NA,NA,NA,NA,NA,NA,NA
58275,weiter,canvas.Screen,3_0_3_1,sdf,keypress(Space),response,735.72300000023,2103600.7,2103591.611,2103608.277,2104344,2104347.8,2023-04-18T11:58:34Z,2104791.563,NULL,NA,NA,NA,NA,NA,NA,NA,qt,NA,3,NA,NA,NA,NA,NA,NA,NA,NA,NA,NA,NA,NA,NA,NA,NA,NA,NA,NA,NA
58275,check continue,flow.Sequence,3_0_3,NA,NA,completion,72385.852,2031944,2031941.482,2031958.148,2104344,2104348,2023-04-18T11:58:34Z,2104791.563,NULL,NA,NA,NA,NA,NA,NA,NA,qt,NA,3,NA,NA,NA,NA,NA,NA,NA,NA,NA,NA,NA,NA,NA,NA,NA,NA,NA,NA,NA
58275,check continue,flow.Sequence,3_0_4,NA,NA,skipped,NA,2104373.5,NA,NA,2104344,2104373.6,2023-04-18T11:58:34Z,2104791.563,NULL,NA,NA,NA,NA,NA,NA,NA,sd,NA,4,NA,NA,NA,NA,NA,NA,NA,NA,NA,NA,NA,NA,NA,NA,NA,NA,NA,NA,NA
58275,check continue,flow.Sequence,3_0_5,NA,NA,skipped,NA,2104391,NA,NA,2104344,2104391.1,2023-04-18T11:58:34Z,2104791.563,NULL,NA,NA,NA,NA,NA,NA,NA,sdf,NA,5,NA,NA,NA,NA,NA,NA,NA,NA,NA,NA,NA,NA,NA,NA,NA,NA,NA,NA,NA
58275,check continue,flow.Sequence,3_0_6,NA,NA,skipped,NA,2104408.7,NA,NA,2104344,2104408.8,2023-04-18T11:58:34Z,2104791.563,NULL,NA,NA,NA,NA,NA,NA,NA,dfs,NA,6,NA,NA,NA,NA,NA,NA,NA,NA,NA,NA,NA,NA,NA,NA,NA,NA,NA,NA,NA
58275,check continue,flow.Sequence,3_0_7,NA,NA,skipped,NA,2104426.6,NA,NA,2104344,2104426.7,2023-04-18T11:58:34Z,2104791.563,NULL,NA,NA,NA,NA,NA,NA,NA,df,NA,7,NA,NA,NA,NA,NA,NA,NA,NA,NA,NA,NA,NA,NA,NA,NA,NA,NA,NA,NA
58275,check continue,flow.Sequence,3_0_8,NA,NA,skipped,NA,2104443.9,NA,NA,2104344,2104443.9,2023-04-18T11:58:34Z,2104791.563,NULL,NA,NA,NA,NA,NA,NA,NA,dfs,NA,8,NA,NA,NA,NA,NA,NA,NA,NA,NA,NA,NA,NA,NA,NA,NA,NA,NA,NA,NA
58275,check continue,flow.Sequence,3_0_9,NA,NA,skipped,NA,2104460.9,NA,NA,2104344,2104460.9,2023-04-18T11:58:34Z,2104791.563,NULL,NA,NA,NA,NA,NA,NA,NA,dsf,NA,9,NA,NA,NA,NA,NA,NA,NA,NA,NA,NA,NA,NA,NA,NA,NA,NA,NA,NA,NA
58275,check continue,flow.Sequence,3_0_10,NA,NA,skipped,NA,2104475.5,NA,NA,2104344,2104475.6,2023-04-18T11:58:34Z,2104791.563,NULL,NA,NA,NA,NA,NA,NA,NA,df,NA,10,NA,NA,NA,NA,NA,NA,NA,NA,NA,NA,NA,NA,NA,NA,NA,NA,NA,NA,NA
58275,check continue,flow.Sequence,3_0_11,NA,NA,skipped,NA,2104489.8,NA,NA,2104344,2104489.9,2023-04-18T11:58:34Z,2104791.563,NULL,NA,NA,NA,NA,NA,NA,NA,dfs,NA,11,NA,NA,NA,NA,NA,NA,NA,NA,NA,NA,NA,NA,NA,NA,NA,NA,NA,NA,NA
58275,check continue,flow.Sequence,3_0_12,NA,NA,skipped,NA,2104506.6,NA,NA,2104344,2104506.7,2023-04-18T11:58:34Z,2104791.563,NULL,NA,NA,NA,NA,NA,NA,NA,dsf,NA,12,NA,NA,NA,NA,NA,NA,NA,NA,NA,NA,NA,NA,NA,NA,NA,NA,NA,NA,NA
58275,check continue,flow.Sequence,3_0_13,NA,NA,skipped,NA,2104524.2,NA,NA,2104344,2104524.4,2023-04-18T11:58:34Z,2104791.563,NULL,NA,NA,NA,NA,NA,NA,NA,dsf,NA,13,NA,NA,NA,NA,NA,NA,NA,NA,NA,NA,NA,NA,NA,NA,NA,NA,NA,NA,NA
58275,check continue,flow.Sequence,3_0_14,NA,NA,skipped,NA,2104539.7,NA,NA,2104344,2104539.9,2023-04-18T11:58:34Z,2104791.563,NULL,NA,NA,NA,NA,NA,NA,NA,NA,NA,14,NA,NA,NA,NA,NA,NA,NA,NA,NA,NA,NA,NA,NA,NA,NA,NA,NA,NA,NA
58275,check continue,flow.Sequence,3_0_15,NA,NA,skipped,NA,2104554.8,NA,NA,2104344,2104555,2023-04-18T11:58:34Z,2104791.563,NULL,NA,NA,NA,NA,NA,NA,NA,NA,NA,15,NA,NA,NA,NA,NA,NA,NA,NA,NA,NA,NA,NA,NA,NA,NA,NA,NA,NA,NA
58275,check continue,flow.Sequence,3_0_16,NA,NA,skipped,NA,2104569.6,NA,NA,2104344,2104569.7,2023-04-18T11:58:34Z,2104791.563,NULL,NA,NA,NA,NA,NA,NA,NA,NA,NA,16,NA,NA,NA,NA,NA,NA,NA,NA,NA,NA,NA,NA,NA,NA,NA,NA,NA,NA,NA
58275,check continue,flow.Sequence,3_0_17,NA,NA,skipped,NA,2104583.4,NA,NA,2104344,2104583.4,2023-04-18T11:58:34Z,2104791.563,NULL,NA,NA,NA,NA,NA,NA,NA,NA,NA,17,NA,NA,NA,NA,NA,NA,NA,NA,NA,NA,NA,NA,NA,NA,NA,NA,NA,NA,NA
58275,check continue,flow.Sequence,3_0_18,NA,NA,skipped,NA,2104599,NA,NA,2104344,2104599.1,2023-04-18T11:58:34Z,2104791.563,NULL,NA,NA,NA,NA,NA,NA,NA,NA,NA,18,NA,NA,NA,NA,NA,NA,NA,NA,NA,NA,NA,NA,NA,NA,NA,NA,NA,NA,NA
58275,check continue,flow.Sequence,3_0_19,NA,NA,skipped,NA,2104614.2,NA,NA,2104344,2104614.3,2023-04-18T11:58:34Z,2104791.563,NULL,NA,NA,NA,NA,NA,NA,NA,NA,NA,19,NA,NA,NA,NA,NA,NA,NA,NA,NA,NA,NA,NA,NA,NA,NA,NA,NA,NA,NA
58275,check continue,flow.Sequence,3_0_20,NA,NA,skipped,NA,2104629.9,NA,NA,2104344,2104630,2023-04-18T11:58:34Z,2104791.563,NULL,NA,NA,NA,NA,NA,NA,NA,NA,NA,20,NA,NA,NA,NA,NA,NA,NA,NA,NA,NA,NA,NA,NA,NA,NA,NA,NA,NA,NA
58275,check continue,flow.Sequence,3_0_21,NA,NA,skipped,NA,2104643.9,NA,NA,2104344,2104643.9,2023-04-18T11:58:34Z,2104791.563,NULL,NA,NA,NA,NA,NA,NA,NA,NA,NA,21,NA,NA,NA,NA,NA,NA,NA,NA,NA,NA,NA,NA,NA,NA,NA,NA,NA,NA,NA
58275,check continue,flow.Sequence,3_0_22,NA,NA,skipped,NA,2104666.2,NA,NA,2104344,2104666.3,2023-04-18T11:58:34Z,2104791.563,NULL,NA,NA,NA,NA,NA,NA,NA,NA,NA,22,NA,NA,NA,NA,NA,NA,NA,NA,NA,NA,NA,NA,NA,NA,NA,NA,NA,NA,NA
58275,check continue,flow.Sequence,3_0_23,NA,NA,skipped,NA,2104680.1,NA,NA,2104344,2104680.2,2023-04-18T11:58:34Z,2104791.563,NULL,NA,NA,NA,NA,NA,NA,NA,NA,NA,23,NA,NA,NA,NA,NA,NA,NA,NA,NA,NA,NA,NA,NA,NA,NA,NA,NA,NA,NA
58275,check continue,flow.Sequence,3_0_24,NA,NA,skipped,NA,2104695.4,NA,NA,2104344,2104695.4,2023-04-18T11:58:34Z,2104791.563,NULL,NA,NA,NA,NA,NA,NA,NA,NA,NA,24,NA,NA,NA,NA,NA,NA,NA,NA,NA,NA,NA,NA,NA,NA,NA,NA,NA,NA,NA
58275,check continue,flow.Sequence,3_0_25,NA,NA,skipped,NA,2104708.4,NA,NA,2104344,2104708.6,2023-04-18T11:58:34Z,2104791.563,NULL,NA,NA,NA,NA,NA,NA,NA,NA,NA,25,NA,NA,NA,NA,NA,NA,NA,NA,NA,NA,NA,NA,NA,NA,NA,NA,NA,NA,NA
58275,check continue,flow.Sequence,3_0_26,NA,NA,skipped,NA,2104738.7,NA,NA,2104344,2104738.8,2023-04-18T11:58:35Z,2104791.563,NULL,NA,NA,NA,NA,NA,NA,NA,NA,NA,26,NA,NA,NA,NA,NA,NA,NA,NA,NA,NA,NA,NA,NA,NA,NA,NA,NA,NA,NA
58275,check continue,flow.Sequence,3_0_27,NA,NA,skipped,NA,2104756.6,NA,NA,2104344,2104756.7,2023-04-18T11:58:35Z,2104791.563,NULL,NA,NA,NA,NA,NA,NA,NA,NA,NA,27,NA,NA,NA,NA,NA,NA,NA,NA,NA,NA,NA,NA,NA,NA,NA,NA,NA,NA,NA
58275,check continue,flow.Sequence,3_0_28,NA,NA,skipped,NA,2104769.6,NA,NA,2104344,2104769.7,2023-04-18T11:58:35Z,2104791.563,NULL,NA,NA,NA,NA,NA,NA,NA,NA,NA,28,NA,NA,NA,NA,NA,NA,NA,NA,NA,NA,NA,NA,NA,NA,NA,NA,NA,NA,NA
58275,check continue,flow.Sequence,3_0_29,NA,NA,skipped,NA,2104786.3,NA,NA,2104344,2104786.4,2023-04-18T11:58:35Z,2104791.563,NULL,NA,NA,NA,NA,NA,NA,NA,NA,NA,29,NA,NA,NA,NA,NA,NA,NA,NA,NA,NA,NA,NA,NA,NA,NA,NA,NA,NA,NA
58275,until continue,flow.Loop,3_0,NA,NA,completion,355217.65,1749098.9,1749109.684,1749126.35,2104344,2104786.5,2023-04-18T11:58:35Z,2104791.563,NULL,NA,NA,NA,NA,NA,NA,NA,NA,NA,NA,NA,NA,NA,NA,NA,NA,NA,NA,NA,NA,NA,NA,NA,NA,NA,NA,NA,NA,NA
58275,block 1,flow.Sequence,3,NA,NA,completion,355217.65,1749098.8,1749109.684,1749126.35,2104344,2104786.5,2023-04-18T11:58:35Z,2104791.563,NULL,NA,NA,NA,NA,NA,NA,NA,NA,NA,NA,NA,NA,NA,NA,NA,NA,NA,NA,NA,NA,NA,NA,NA,NA,NA,NA,NA,NA,NA
58275,1.Part Over,canvas.Screen,4,NA,keypress(Space),response,1231.4369999999,2104786.5,2104774.897,2104791.563,2106023,2106026.4,2023-04-18T11:58:36Z,2106091.511,NULL,NA,NA,NA,NA,NA,NA,NA,NA,NA,NA,NA,NA,NA,NA,NA,NA,NA,NA,NA,NA,NA,NA,NA,NA,NA,NA,NA,NA,NA
58275,Deep Question,html.Page,5_0_0_0_0_0_0,NA,NA,form submission,4759.5889999941,2106080.1,2106074.845,2106091.511,2110851.1,2110851.3,2023-04-18T11:58:41Z,2110862.197,NULL,Angreifer,mshambulizi,d,NA,NA,NA,harakiri,NA,NA,0,NA,NA,NA,NA,NA,NA,NA,NA,NA,NA,NA,NA,NA,NA,NA,NA,NA,NA,NA
58275,"""Richtig""-Screen",canvas.Screen,5_0_0_0_0_0_1,NA,NA,skipped,NA,2110852.7,NA,NA,2110851.1,2110852.8,2023-04-18T11:58:41Z,2110862.197,NULL,Angreifer,mshambulizi,d,NA,NA,NA,NA,sdf,NA,0,NA,NA,NA,NA,NA,NA,NA,NA,NA,NA,NA,NA,NA,NA,NA,NA,NA,NA,NA
58275,"""Falsch""-Screen",canvas.Screen,5_0_0_0_0_0_2,NA,NA,timeout,4999.7999999998,2110853.3,2110845.531,2110862.197,2115845.331,2115846.8,2023-04-18T11:58:46Z,2115861.997,NULL,Angreifer,mshambulizi,d,NA,NA,NA,NA,sdf,0,0,NA,NA,NA,NA,NA,NA,NA,NA,NA,NA,NA,NA,NA,NA,NA,NA,NA,NA,NA
58275,deep,flow.Sequence,5_0_0_0_0_0,NA,NA,completion,9753.8199999998,2106080.1,2106074.845,2106091.511,2115845.331,2115847.1,2023-04-18T11:58:46Z,2115861.997,NULL,Angreifer,mshambulizi,d,NA,NA,NA,NA,sdf,NA,0,NA,NA,NA,NA,NA,NA,NA,NA,NA,NA,NA,NA,NA,NA,NA,NA,NA,NA,NA
58275,shallow,flow.Sequence,5_0_0_0_0_1,NA,NA,skipped,NA,2115847.2,NA,NA,2115845.331,2115847.2,2023-04-18T11:58:46Z,2115861.997,NULL,Angreifer,mshambulizi,d,NA,NA,NA,NA,sdf,NA,0,NA,NA,NA,NA,NA,NA,NA,NA,NA,NA,NA,NA,NA,NA,NA,NA,NA,NA,NA
58275,task,flow.Sequence,5_0_0_0_0,NA,NA,completion,9753.8199999998,2106080.1,2106074.845,2106091.511,2115845.331,2115847.4,2023-04-18T11:58:46Z,2115861.997,NULL,Angreifer,mshambulizi,d,NA,NA,NA,NA,sdf,NA,0,NA,NA,NA,NA,NA,NA,NA,NA,NA,NA,NA,NA,NA,NA,NA,NA,NA,NA,NA
58275,deep,flow.Sequence,5_0_0_0_1_0,NA,NA,skipped,NA,2115847.5,NA,NA,2115845.331,2115847.6,2023-04-18T11:58:46Z,2115861.997,NULL,Zufall,kikuti,s,kukosekana,uchoraji,leseni,NA,sdf,NA,0,NA,NA,NA,NA,NA,NA,NA,NA,NA,NA,NA,NA,NA,NA,NA,NA,NA,NA,NA
58275,Shallow Question,html.Page,5_0_0_0_1_1_0,NA,NA,form submission,5524.003,2115847.7,2115845.331,2115861.997,2121386,2121386.2,2023-04-18T11:58:51Z,2121388.331,NULL,Zufall,kikuti,s,kukosekana,uchoraji,leseni,kukosekana,NA,NA,0,NA,NA,NA,NA,NA,NA,NA,NA,NA,NA,NA,NA,NA,NA,NA,NA,NA,NA,NA
58275,"""Richtig""-Screen",canvas.Screen,5_0_0_0_1_1_1,NA,NA,skipped,NA,2121389.2,NA,NA,2121386,2121389.4,2023-04-18T11:58:51Z,2121388.331,NULL,Zufall,kikuti,s,kukosekana,uchoraji,leseni,NA,sdf,NA,0,NA,NA,NA,NA,NA,NA,NA,NA,NA,NA,NA,NA,NA,NA,NA,NA,NA,NA,NA
58275,"""Falsch""-Screen",canvas.Screen,5_0_0_0_1_1_2,NA,NA,timeout,4999.8000000003,2121390.1,2121371.665,2121388.331,2126371.465,2126374.8,2023-04-18T11:58:56Z,2126388.131,NULL,Zufall,kikuti,s,kukosekana,uchoraji,leseni,NA,sdf,0,0,NA,NA,NA,NA,NA,NA,NA,NA,NA,NA,NA,NA,NA,NA,NA,NA,NA,NA,NA
58275,shallow,flow.Sequence,5_0_0_0_1_1,NA,NA,completion,10509.468,2115847.6,2115845.331,2115861.997,2126371.465,2126375.2,2023-04-18T11:58:56Z,2126388.131,NULL,Zufall,kikuti,s,kukosekana,uchoraji,leseni,NA,sdf,NA,0,NA,NA,NA,NA,NA,NA,NA,NA,NA,NA,NA,NA,NA,NA,NA,NA,NA,NA,NA
58275,task,flow.Sequence,5_0_0_0_1,NA,NA,completion,10509.468,2115847.4,2115845.331,2115861.997,2126371.465,2126375.4,2023-04-18T11:58:56Z,2126388.131,NULL,Zufall,kikuti,s,kukosekana,uchoraji,leseni,NA,sdf,NA,0,NA,NA,NA,NA,NA,NA,NA,NA,NA,NA,NA,NA,NA,NA,NA,NA,NA,NA,NA
58275,deep,flow.Sequence,5_0_0_0_2_0,NA,NA,skipped,NA,2126375.5,NA,NA,2126371.465,2126375.8,2023-04-18T11:58:56Z,2126388.131,NULL,Kanzler,diwani,s,rasilmali,mahitaji,maabudu,NA,sdf,NA,0,NA,NA,NA,NA,NA,NA,NA,NA,NA,NA,NA,NA,NA,NA,NA,NA,NA,NA,NA
58275,Shallow Question,html.Page,5_0_0_0_2_1_0,NA,NA,form submission,3025.568999988,2126375.8,2126371.465,2126388.131,2129413.7,2129414.1,2023-04-18T11:58:59Z,2129421.343,NULL,Kanzler,diwani,s,rasilmali,mahitaji,maabudu,maabudu,NA,NA,0,NA,NA,NA,NA,NA,NA,NA,NA,NA,NA,NA,NA,NA,NA,NA,NA,NA,NA,NA
58275,"""Richtig""-Screen",canvas.Screen,5_0_0_0_2_1_1,NA,NA,skipped,NA,2129417.5,NA,NA,2129413.7,2129417.6,2023-04-18T11:58:59Z,2129421.343,NULL,Kanzler,diwani,s,rasilmali,mahitaji,maabudu,NA,sdf,NA,0,NA,NA,NA,NA,NA,NA,NA,NA,NA,NA,NA,NA,NA,NA,NA,NA,NA,NA,NA
58275,"""Falsch""-Screen",canvas.Screen,5_0_0_0_2_1_2,NA,NA,timeout,4999.8000000003,2129418.5,2129404.677,2129421.343,2134404.477,2134409.1,2023-04-18T11:59:04Z,2134421.143,NULL,Kanzler,diwani,s,rasilmali,mahitaji,maabudu,NA,sdf,0,0,NA,NA,NA,NA,NA,NA,NA,NA,NA,NA,NA,NA,NA,NA,NA,NA,NA,NA,NA
58275,shallow,flow.Sequence,5_0_0_0_2_1,NA,NA,completion,8016.3459999999,2126375.8,2126371.465,2126388.131,2134404.477,2134409.5,2023-04-18T11:59:04Z,2134421.143,NULL,Kanzler,diwani,s,rasilmali,mahitaji,maabudu,NA,sdf,NA,0,NA,NA,NA,NA,NA,NA,NA,NA,NA,NA,NA,NA,NA,NA,NA,NA,NA,NA,NA
58275,task,flow.Sequence,5_0_0_0_2,NA,NA,completion,8016.3459999999,2126375.5,2126371.465,2126388.131,2134404.477,2134409.7,2023-04-18T11:59:04Z,2134421.143,NULL,Kanzler,diwani,s,rasilmali,mahitaji,maabudu,NA,sdf,NA,0,NA,NA,NA,NA,NA,NA,NA,NA,NA,NA,NA,NA,NA,NA,NA,NA,NA,NA,NA
58275,Deep Question,html.Page,5_0_0_0_3_0_0,NA,NA,form submission,3679.1570000118,2134409.9,2134404.477,2134421.143,2138100.3,2138100.6,2023-04-18T11:59:08Z,2138106.791,NULL,Wettbewerb,ushindani,d,NA,NA,NA,bad,NA,NA,0,NA,NA,NA,NA,NA,NA,NA,NA,NA,NA,NA,NA,NA,NA,NA,NA,NA,NA,NA
58275,"""Richtig""-Screen",canvas.Screen,5_0_0_0_3_0_1,NA,NA,skipped,NA,2138104.1,NA,NA,2138100.3,2138104.2,2023-04-18T11:59:08Z,2138106.791,NULL,Wettbewerb,ushindani,d,NA,NA,NA,NA,sdf,NA,0,NA,NA,NA,NA,NA,NA,NA,NA,NA,NA,NA,NA,NA,NA,NA,NA,NA,NA,NA
58275,"""Falsch""-Screen",canvas.Screen,5_0_0_0_3_0_2,NA,NA,timeout,4999.7999999998,2138105.1,2138090.125,2138106.791,2143089.925,2143094.5,2023-04-18T11:59:13Z,2143106.591,NULL,Wettbewerb,ushindani,d,NA,NA,NA,NA,sdf,0,0,NA,NA,NA,NA,NA,NA,NA,NA,NA,NA,NA,NA,NA,NA,NA,NA,NA,NA,NA
58275,deep,flow.Sequence,5_0_0_0_3_0,NA,NA,completion,8668.7819999997,2134409.9,2134404.477,2134421.143,2143089.925,2143094.9,2023-04-18T11:59:13Z,2143106.591,NULL,Wettbewerb,ushindani,d,NA,NA,NA,NA,sdf,NA,0,NA,NA,NA,NA,NA,NA,NA,NA,NA,NA,NA,NA,NA,NA,NA,NA,NA,NA,NA
58275,shallow,flow.Sequence,5_0_0_0_3_1,NA,NA,skipped,NA,2143095.1,NA,NA,2143089.925,2143095.2,2023-04-18T11:59:13Z,2143106.591,NULL,Wettbewerb,ushindani,d,NA,NA,NA,NA,sdf,NA,0,NA,NA,NA,NA,NA,NA,NA,NA,NA,NA,NA,NA,NA,NA,NA,NA,NA,NA,NA
58275,task,flow.Sequence,5_0_0_0_3,NA,NA,completion,8668.7819999997,2134409.8,2134404.477,2134421.143,2143089.925,2143095.4,2023-04-18T11:59:13Z,2143106.591,NULL,Wettbewerb,ushindani,d,NA,NA,NA,NA,sdf,NA,0,NA,NA,NA,NA,NA,NA,NA,NA,NA,NA,NA,NA,NA,NA,NA,NA,NA,NA,NA
58275,deep,flow.Sequence,5_0_0_0_4_0,NA,NA,skipped,NA,2143095.5,NA,NA,2143089.925,2143095.6,2023-04-18T11:59:13Z,2143106.591,NULL,Schönheit,kirembo,s,mahojiano,msisimko,jitihadi,NA,sdf,NA,0,NA,NA,NA,NA,NA,NA,NA,NA,NA,NA,NA,NA,NA,NA,NA,NA,NA,NA,NA
58275,Shallow Question,html.Page,5_0_0_0_4_1_0,NA,NA,form submission,4106.909,2143095.8,2143089.925,2143106.591,2147213.5,2147213.9,2023-04-18T11:59:17Z,2147213.943,NULL,Schönheit,kirembo,s,mahojiano,msisimko,jitihadi,mahojiano,NA,NA,0,NA,NA,NA,NA,NA,NA,NA,NA,NA,NA,NA,NA,NA,NA,NA,NA,NA,NA,NA
58275,"""Richtig""-Screen",canvas.Screen,5_0_0_0_4_1_1,NA,NA,skipped,NA,2147217,NA,NA,2147213.5,2147217.1,2023-04-18T11:59:17Z,2147213.943,NULL,Schönheit,kirembo,s,mahojiano,msisimko,jitihadi,NA,sdf,NA,0,NA,NA,NA,NA,NA,NA,NA,NA,NA,NA,NA,NA,NA,NA,NA,NA,NA,NA,NA
58275,"""Falsch""-Screen",canvas.Screen,5_0_0_0_4_1_2,NA,NA,timeout,4999.7999999998,2147218.1,2147197.277,2147213.943,2152197.077,2152198,2023-04-18T11:59:22Z,2152213.743,NULL,Schönheit,kirembo,s,mahojiano,msisimko,jitihadi,NA,sdf,0,0,NA,NA,NA,NA,NA,NA,NA,NA,NA,NA,NA,NA,NA,NA,NA,NA,NA,NA,NA
58275,shallow,flow.Sequence,5_0_0_0_4_1,NA,NA,completion,9090.486,2143095.8,2143089.925,2143106.591,2152197.077,2152198.2,2023-04-18T11:59:22Z,2152213.743,NULL,Schönheit,kirembo,s,mahojiano,msisimko,jitihadi,NA,sdf,NA,0,NA,NA,NA,NA,NA,NA,NA,NA,NA,NA,NA,NA,NA,NA,NA,NA,NA,NA,NA
58275,task,flow.Sequence,5_0_0_0_4,NA,NA,completion,9090.486,2143095.5,2143089.925,2143106.591,2152197.077,2152198.3,2023-04-18T11:59:22Z,2152213.743,NULL,Schönheit,kirembo,s,mahojiano,msisimko,jitihadi,NA,sdf,NA,0,NA,NA,NA,NA,NA,NA,NA,NA,NA,NA,NA,NA,NA,NA,NA,NA,NA,NA,NA
58275,Deep Question,html.Page,5_0_0_0_5_0_0,NA,NA,form submission,2476.6570000062,2152198.4,2152197.077,2152213.743,2154690.4,2154690.5,2023-04-18T11:59:24Z,2154696.977,NULL,Auftrag,uagizaji,d,NA,NA,NA,ma,NA,NA,0,NA,NA,NA,NA,NA,NA,NA,NA,NA,NA,NA,NA,NA,NA,NA,NA,NA,NA,NA
58275,"""Richtig""-Screen",canvas.Screen,5_0_0_0_5_0_1,NA,NA,skipped,NA,2154692.2,NA,NA,2154690.4,2154692.2,2023-04-18T11:59:24Z,2154696.977,NULL,Auftrag,uagizaji,d,NA,NA,NA,NA,sdf,NA,0,NA,NA,NA,NA,NA,NA,NA,NA,NA,NA,NA,NA,NA,NA,NA,NA,NA,NA,NA
58275,"""Falsch""-Screen",canvas.Screen,5_0_0_0_5_0_2,NA,NA,timeout,4999.7999999998,2154692.6,2154680.311,2154696.977,2159680.111,2159684.4,2023-04-18T11:59:29Z,2159696.777,NULL,Auftrag,uagizaji,d,NA,NA,NA,NA,sdf,0,0,NA,NA,NA,NA,NA,NA,NA,NA,NA,NA,NA,NA,NA,NA,NA,NA,NA,NA,NA
58275,deep,flow.Sequence,5_0_0_0_5_0,NA,NA,completion,7466.3680000002,2152198.4,2152197.077,2152213.743,2159680.111,2159684.7,2023-04-18T11:59:29Z,2159696.777,NULL,Auftrag,uagizaji,d,NA,NA,NA,NA,sdf,NA,0,NA,NA,NA,NA,NA,NA,NA,NA,NA,NA,NA,NA,NA,NA,NA,NA,NA,NA,NA
58275,shallow,flow.Sequence,5_0_0_0_5_1,NA,NA,skipped,NA,2159684.8,NA,NA,2159680.111,2159684.9,2023-04-18T11:59:29Z,2159696.777,NULL,Auftrag,uagizaji,d,NA,NA,NA,NA,sdf,NA,0,NA,NA,NA,NA,NA,NA,NA,NA,NA,NA,NA,NA,NA,NA,NA,NA,NA,NA,NA
58275,task,flow.Sequence,5_0_0_0_5,NA,NA,completion,7466.3680000002,2152198.3,2152197.077,2152213.743,2159680.111,2159685,2023-04-18T11:59:29Z,2159696.777,NULL,Auftrag,uagizaji,d,NA,NA,NA,NA,sdf,NA,0,NA,NA,NA,NA,NA,NA,NA,NA,NA,NA,NA,NA,NA,NA,NA,NA,NA,NA,NA
58275,deep,flow.Sequence,5_0_0_0_6_0,NA,NA,skipped,NA,2159685.2,NA,NA,2159680.111,2159685.2,2023-04-18T11:59:29Z,2159696.777,NULL,Abrechnung,uhasibu,s,kusahihisha,mpambano,mashambulizi,NA,sdf,NA,0,NA,NA,NA,NA,NA,NA,NA,NA,NA,NA,NA,NA,NA,NA,NA,NA,NA,NA,NA
58275,Shallow Question,html.Page,5_0_0_0_6_1_0,NA,NA,form submission,7412.3229999943,2159685.3,2159680.111,2159696.777,2167109.1,2167109.5,2023-04-18T11:59:37Z,2167115.972,NULL,Abrechnung,uhasibu,s,kusahihisha,mpambano,mashambulizi,kusahihisha,NA,NA,0,NA,NA,NA,NA,NA,NA,NA,NA,NA,NA,NA,NA,NA,NA,NA,NA,NA,NA,NA
58275,"""Richtig""-Screen",canvas.Screen,5_0_0_0_6_1_1,NA,NA,skipped,NA,2167112.9,NA,NA,2167109.1,2167113,2023-04-18T11:59:37Z,2167115.972,NULL,Abrechnung,uhasibu,s,kusahihisha,mpambano,mashambulizi,NA,sdf,NA,0,NA,NA,NA,NA,NA,NA,NA,NA,NA,NA,NA,NA,NA,NA,NA,NA,NA,NA,NA
58275,"""Falsch""-Screen",canvas.Screen,5_0_0_0_6_1_2,NA,NA,timeout,4999.7999999998,2167113.8,2167099.306,2167115.972,2172099.106,2172102.9,2023-04-18T11:59:42Z,2172115.772,NULL,Abrechnung,uhasibu,s,kusahihisha,mpambano,mashambulizi,NA,sdf,0,0,NA,NA,NA,NA,NA,NA,NA,NA,NA,NA,NA,NA,NA,NA,NA,NA,NA,NA,NA
58275,shallow,flow.Sequence,5_0_0_0_6_1,NA,NA,completion,12402.329,2159685.3,2159680.111,2159696.777,2172099.106,2172103.2,2023-04-18T11:59:42Z,2172115.772,NULL,Abrechnung,uhasibu,s,kusahihisha,mpambano,mashambulizi,NA,sdf,NA,0,NA,NA,NA,NA,NA,NA,NA,NA,NA,NA,NA,NA,NA,NA,NA,NA,NA,NA,NA
58275,task,flow.Sequence,5_0_0_0_6,NA,NA,completion,12402.329,2159685.1,2159680.111,2159696.777,2172099.106,2172103.4,2023-04-18T11:59:42Z,2172115.772,NULL,Abrechnung,uhasibu,s,kusahihisha,mpambano,mashambulizi,NA,sdf,NA,0,NA,NA,NA,NA,NA,NA,NA,NA,NA,NA,NA,NA,NA,NA,NA,NA,NA,NA,NA
58275,Deep Question,html.Page,5_0_0_0_7_0_0,NA,NA,form submission,4547.6280000061,2172103.6,2172099.106,2172115.772,2176663.4,2176663.6,2023-04-18T11:59:46Z,2176677.129,NULL,Sänger,mwimbaji,d,NA,NA,NA,malala,NA,NA,0,NA,NA,NA,NA,NA,NA,NA,NA,NA,NA,NA,NA,NA,NA,NA,NA,NA,NA,NA
58275,"""Richtig""-Screen",canvas.Screen,5_0_0_0_7_0_1,NA,NA,skipped,NA,2176666.5,NA,NA,2176663.4,2176666.7,2023-04-18T11:59:46Z,2176677.129,NULL,Sänger,mwimbaji,d,NA,NA,NA,NA,sdf,NA,0,NA,NA,NA,NA,NA,NA,NA,NA,NA,NA,NA,NA,NA,NA,NA,NA,NA,NA,NA
58275,"""Falsch""-Screen",canvas.Screen,5_0_0_0_7_0_2,NA,NA,timeout,4999.7999999998,2176667.7,2176660.463,2176677.129,2181660.263,2181664.2,2023-04-18T11:59:51Z,2181676.929,NULL,Sänger,mwimbaji,d,NA,NA,NA,NA,sdf,0,0,NA,NA,NA,NA,NA,NA,NA,NA,NA,NA,NA,NA,NA,NA,NA,NA,NA,NA,NA
58275,deep,flow.Sequence,5_0_0_0_7_0,NA,NA,completion,9544.4909999999,2172103.6,2172099.106,2172115.772,2181660.263,2181664.5,2023-04-18T11:59:51Z,2181676.929,NULL,Sänger,mwimbaji,d,NA,NA,NA,NA,sdf,NA,0,NA,NA,NA,NA,NA,NA,NA,NA,NA,NA,NA,NA,NA,NA,NA,NA,NA,NA,NA
58275,shallow,flow.Sequence,5_0_0_0_7_1,NA,NA,skipped,NA,2181664.6,NA,NA,2181660.263,2181664.8,2023-04-18T11:59:51Z,2181676.929,NULL,Sänger,mwimbaji,d,NA,NA,NA,NA,sdf,NA,0,NA,NA,NA,NA,NA,NA,NA,NA,NA,NA,NA,NA,NA,NA,NA,NA,NA,NA,NA
58275,task,flow.Sequence,5_0_0_0_7,NA,NA,completion,9544.4909999999,2172103.5,2172099.106,2172115.772,2181660.263,2181665,2023-04-18T11:59:51Z,2181676.929,NULL,Sänger,mwimbaji,d,NA,NA,NA,NA,sdf,NA,0,NA,NA,NA,NA,NA,NA,NA,NA,NA,NA,NA,NA,NA,NA,NA,NA,NA,NA,NA
58275,block,flow.Loop,5_0_0_0,NA,NA,completion,75568.752,2106080,2106074.845,2106091.511,2181660.263,2181665.2,2023-04-18T11:59:51Z,2181676.929,NULL,NA,NA,NA,NA,NA,NA,NA,sdf,NA,0,NA,NA,NA,NA,NA,NA,NA,NA,NA,NA,NA,NA,NA,NA,NA,NA,NA,NA,NA
58275,weiter,canvas.Screen,5_0_0_1,sdf,keypress(Space),response,1055.7709999881,2181665.3,2181660.263,2181676.929,2182732.7,2182745.8,2023-04-18T11:59:53Z,2182776.885,NULL,NA,NA,NA,NA,NA,NA,NA,sdf,NA,0,NA,NA,NA,NA,NA,NA,NA,NA,NA,NA,NA,NA,NA,NA,NA,NA,NA,NA,NA
58275,check continue,flow.Sequence,5_0_0,NA,NA,completion,76641.188999988,2106080,2106074.845,2106091.511,2182732.7,2182745.9,2023-04-18T11:59:53Z,2182776.885,NULL,NA,NA,NA,NA,NA,NA,NA,sdf,NA,0,NA,NA,NA,NA,NA,NA,NA,NA,NA,NA,NA,NA,NA,NA,NA,NA,NA,NA,NA
58275,Deep Question,html.Page,5_0_1_0_0_0_0,NA,NA,form submission,3914.0150000062,2182774.2,2182760.219,2182776.885,2186690.9,2186691.3,2023-04-18T11:59:56Z,2186693.585,NULL,Sänger,mwimbaji,d,NA,NA,NA,mwimbaji,NA,NA,1,NA,NA,NA,NA,NA,NA,NA,NA,NA,NA,NA,NA,NA,NA,NA,NA,NA,NA,NA
58275,"""Richtig""-Screen",canvas.Screen,5_0_1_0_0_0_1,NA,NA,timeout,4999.7999999998,2186694.4,2186676.919,2186693.585,2191676.719,2191681.3,2023-04-18T12:00:01Z,2191693.385,NULL,Sänger,mwimbaji,d,NA,NA,NA,NA,sdfdsf,1,1,NA,NA,NA,NA,NA,NA,NA,NA,NA,NA,NA,NA,NA,NA,NA,NA,NA,NA,NA
58275,"""Falsch""-Screen",canvas.Screen,5_0_1_0_0_0_2,NA,NA,skipped,NA,2191685.4,NA,NA,2191676.719,2191685.6,2023-04-18T12:00:01Z,2191693.385,NULL,Sänger,mwimbaji,d,NA,NA,NA,NA,sdfdsf,NA,1,NA,NA,NA,NA,NA,NA,NA,NA,NA,NA,NA,NA,NA,NA,NA,NA,NA,NA,NA
58275,deep,flow.Sequence,5_0_1_0_0_0,NA,NA,completion,8899.8340000003,2182774.2,2182760.219,2182776.885,2191676.719,2191685.8,2023-04-18T12:00:01Z,2191693.385,NULL,Sänger,mwimbaji,d,NA,NA,NA,NA,sdfdsf,NA,1,NA,NA,NA,NA,NA,NA,NA,NA,NA,NA,NA,NA,NA,NA,NA,NA,NA,NA,NA
58275,shallow,flow.Sequence,5_0_1_0_0_1,NA,NA,skipped,NA,2191685.9,NA,NA,2191676.719,2191686,2023-04-18T12:00:01Z,2191693.385,NULL,Sänger,mwimbaji,d,NA,NA,NA,NA,sdfdsf,NA,1,NA,NA,NA,NA,NA,NA,NA,NA,NA,NA,NA,NA,NA,NA,NA,NA,NA,NA,NA
58275,task,flow.Sequence,5_0_1_0_0,NA,NA,completion,8899.8340000003,2182774.2,2182760.219,2182776.885,2191676.719,2191686.1,2023-04-18T12:00:01Z,2191693.385,NULL,Sänger,mwimbaji,d,NA,NA,NA,NA,sdfdsf,NA,1,NA,NA,NA,NA,NA,NA,NA,NA,NA,NA,NA,NA,NA,NA,NA,NA,NA,NA,NA
58275,deep,flow.Sequence,5_0_1_0_1_0,NA,NA,skipped,NA,2191686.1,NA,NA,2191676.719,2191686.3,2023-04-18T12:00:01Z,2191693.385,NULL,Kanzler,diwani,s,rasilmali,mahitaji,maabudu,NA,sdfdsf,NA,1,NA,NA,NA,NA,NA,NA,NA,NA,NA,NA,NA,NA,NA,NA,NA,NA,NA,NA,NA
58275,Shallow Question,html.Page,5_0_1_0_1_1_0,NA,NA,form submission,3822.3149999883,2191686.3,2191676.719,2191693.385,2195515.7,2195516,2023-04-18T12:00:05Z,2195530.877,NULL,Kanzler,diwani,s,rasilmali,mahitaji,maabudu,diwani,NA,NA,1,NA,NA,NA,NA,NA,NA,NA,NA,NA,NA,NA,NA,NA,NA,NA,NA,NA,NA,NA
58275,"""Richtig""-Screen",canvas.Screen,5_0_1_0_1_1_1,NA,NA,timeout,4999.8000000003,2195518.6,2195514.211,2195530.877,2200514.011,2200518.7,2023-04-18T12:00:10Z,2200530.677,NULL,Kanzler,diwani,s,rasilmali,mahitaji,maabudu,NA,sdfdsf,1,1,NA,NA,NA,NA,NA,NA,NA,NA,NA,NA,NA,NA,NA,NA,NA,NA,NA,NA,NA
58275,"""Falsch""-Screen",canvas.Screen,5_0_1_0_1_1_2,NA,NA,skipped,NA,2200522.4,NA,NA,2200514.011,2200522.7,2023-04-18T12:00:10Z,2200530.677,NULL,Kanzler,diwani,s,rasilmali,mahitaji,maabudu,NA,sdfdsf,NA,1,NA,NA,NA,NA,NA,NA,NA,NA,NA,NA,NA,NA,NA,NA,NA,NA,NA,NA,NA
58275,shallow,flow.Sequence,5_0_1_0_1_1,NA,NA,completion,8820.6260000002,2191686.3,2191676.719,2191693.385,2200514.011,2200522.8,2023-04-18T12:00:10Z,2200530.677,NULL,Kanzler,diwani,s,rasilmali,mahitaji,maabudu,NA,sdfdsf,NA,1,NA,NA,NA,NA,NA,NA,NA,NA,NA,NA,NA,NA,NA,NA,NA,NA,NA,NA,NA
58275,task,flow.Sequence,5_0_1_0_1,NA,NA,completion,8820.6260000002,2191686.1,2191676.719,2191693.385,2200514.011,2200523,2023-04-18T12:00:10Z,2200530.677,NULL,Kanzler,diwani,s,rasilmali,mahitaji,maabudu,NA,sdfdsf,NA,1,NA,NA,NA,NA,NA,NA,NA,NA,NA,NA,NA,NA,NA,NA,NA,NA,NA,NA,NA
58275,Deep Question,html.Page,5_0_1_0_2_0_0,NA,NA,form submission,4971.5229999879,2200523.1,2200514.011,2200530.677,2205502.2,2205502.5,2023-04-18T12:00:15Z,2205508.557,NULL,Auftrag,uagizaji,d,NA,NA,NA,minizaji,NA,NA,1,NA,NA,NA,NA,NA,NA,NA,NA,NA,NA,NA,NA,NA,NA,NA,NA,NA,NA,NA
58275,"""Richtig""-Screen",canvas.Screen,5_0_1_0_2_0_1,NA,NA,skipped,NA,2205505.3,NA,NA,2205502.2,2205505.5,2023-04-18T12:00:15Z,2205508.557,NULL,Auftrag,uagizaji,d,NA,NA,NA,NA,sdfdsf,NA,1,NA,NA,NA,NA,NA,NA,NA,NA,NA,NA,NA,NA,NA,NA,NA,NA,NA,NA,NA
58275,"""Falsch""-Screen",canvas.Screen,5_0_1_0_2_0_2,NA,NA,timeout,4999.7999999998,2205506.3,2205491.891,2205508.557,2210491.691,2210494.4,2023-04-18T12:00:20Z,2210508.357,NULL,Auftrag,uagizaji,d,NA,NA,NA,NA,sdfdsf,0,1,NA,NA,NA,NA,NA,NA,NA,NA,NA,NA,NA,NA,NA,NA,NA,NA,NA,NA,NA
58275,deep,flow.Sequence,5_0_1_0_2_0,NA,NA,completion,9961.014,2200523.1,2200514.011,2200530.677,2210491.691,2210494.7,2023-04-18T12:00:20Z,2210508.357,NULL,Auftrag,uagizaji,d,NA,NA,NA,NA,sdfdsf,NA,1,NA,NA,NA,NA,NA,NA,NA,NA,NA,NA,NA,NA,NA,NA,NA,NA,NA,NA,NA
58275,shallow,flow.Sequence,5_0_1_0_2_1,NA,NA,skipped,NA,2210494.9,NA,NA,2210491.691,2210495,2023-04-18T12:00:20Z,2210508.357,NULL,Auftrag,uagizaji,d,NA,NA,NA,NA,sdfdsf,NA,1,NA,NA,NA,NA,NA,NA,NA,NA,NA,NA,NA,NA,NA,NA,NA,NA,NA,NA,NA
58275,task,flow.Sequence,5_0_1_0_2,NA,NA,completion,9961.014,2200523.1,2200514.011,2200530.677,2210491.691,2210495.2,2023-04-18T12:00:20Z,2210508.357,NULL,Auftrag,uagizaji,d,NA,NA,NA,NA,sdfdsf,NA,1,NA,NA,NA,NA,NA,NA,NA,NA,NA,NA,NA,NA,NA,NA,NA,NA,NA,NA,NA
58275,Deep Question,html.Page,5_0_1_0_3_0_0,NA,NA,form submission,6634.4430000121,2210495.3,2210491.691,2210508.357,2217142.8,2217143.1,2023-04-18T12:00:27Z,2217154.646,NULL,Angreifer,mshambulizi,d,NA,NA,NA,hakilimba,NA,NA,1,NA,NA,NA,NA,NA,NA,NA,NA,NA,NA,NA,NA,NA,NA,NA,NA,NA,NA,NA
58275,"""Richtig""-Screen",canvas.Screen,5_0_1_0_3_0_1,NA,NA,skipped,NA,2217145.9,NA,NA,2217142.8,2217146.1,2023-04-18T12:00:27Z,2217154.646,NULL,Angreifer,mshambulizi,d,NA,NA,NA,NA,sdfdsf,NA,1,NA,NA,NA,NA,NA,NA,NA,NA,NA,NA,NA,NA,NA,NA,NA,NA,NA,NA,NA
58275,"""Falsch""-Screen",canvas.Screen,5_0_1_0_3_0_2,NA,NA,timeout,4999.7999999998,2217146.9,2217137.98,2217154.646,2222137.78,2222140.2,2023-04-18T12:00:32Z,2222154.446,NULL,Angreifer,mshambulizi,d,NA,NA,NA,NA,sdfdsf,0,1,NA,NA,NA,NA,NA,NA,NA,NA,NA,NA,NA,NA,NA,NA,NA,NA,NA,NA,NA
58275,deep,flow.Sequence,5_0_1_0_3_0,NA,NA,completion,11629.423,2210495.3,2210491.691,2210508.357,2222137.78,2222140.5,2023-04-18T12:00:32Z,2222154.446,NULL,Angreifer,mshambulizi,d,NA,NA,NA,NA,sdfdsf,NA,1,NA,NA,NA,NA,NA,NA,NA,NA,NA,NA,NA,NA,NA,NA,NA,NA,NA,NA,NA
58275,shallow,flow.Sequence,5_0_1_0_3_1,NA,NA,skipped,NA,2222140.6,NA,NA,2222137.78,2222140.7,2023-04-18T12:00:32Z,2222154.446,NULL,Angreifer,mshambulizi,d,NA,NA,NA,NA,sdfdsf,NA,1,NA,NA,NA,NA,NA,NA,NA,NA,NA,NA,NA,NA,NA,NA,NA,NA,NA,NA,NA
58275,task,flow.Sequence,5_0_1_0_3,NA,NA,completion,11629.423,2210495.3,2210491.691,2210508.357,2222137.78,2222140.9,2023-04-18T12:00:32Z,2222154.446,NULL,Angreifer,mshambulizi,d,NA,NA,NA,NA,sdfdsf,NA,1,NA,NA,NA,NA,NA,NA,NA,NA,NA,NA,NA,NA,NA,NA,NA,NA,NA,NA,NA
58275,deep,flow.Sequence,5_0_1_0_4_0,NA,NA,skipped,NA,2222141,NA,NA,2222137.78,2222141.2,2023-04-18T12:00:32Z,2222154.446,NULL,Zufall,kikuti,s,kukosekana,uchoraji,leseni,NA,sdfdsf,NA,1,NA,NA,NA,NA,NA,NA,NA,NA,NA,NA,NA,NA,NA,NA,NA,NA,NA,NA,NA
58275,Shallow Question,html.Page,5_0_1_0_4_1_0,NA,NA,form submission,3361.554,2222141.2,2222137.78,2222154.446,2225516,2225516.2,2023-04-18T12:00:35Z,2225520.978,NULL,Zufall,kikuti,s,kukosekana,uchoraji,leseni,kikuti,NA,NA,1,NA,NA,NA,NA,NA,NA,NA,NA,NA,NA,NA,NA,NA,NA,NA,NA,NA,NA,NA
58275,"""Richtig""-Screen",canvas.Screen,5_0_1_0_4_1_1,NA,NA,timeout,5006.1170000001,2225518.1,2225504.312,2225520.978,2230510.429,2230513.2,2023-04-18T12:00:40Z,2230527.095,NULL,Zufall,kikuti,s,kukosekana,uchoraji,leseni,NA,sdfdsf,1,1,NA,NA,NA,NA,NA,NA,NA,NA,NA,NA,NA,NA,NA,NA,NA,NA,NA,NA,NA
58275,"""Falsch""-Screen",canvas.Screen,5_0_1_0_4_1_2,NA,NA,skipped,NA,2230514.8,NA,NA,2230510.429,2230514.9,2023-04-18T12:00:40Z,2230527.095,NULL,Zufall,kikuti,s,kukosekana,uchoraji,leseni,NA,sdfdsf,NA,1,NA,NA,NA,NA,NA,NA,NA,NA,NA,NA,NA,NA,NA,NA,NA,NA,NA,NA,NA
58275,shallow,flow.Sequence,5_0_1_0_4_1,NA,NA,completion,8355.983,2222141.2,2222137.78,2222154.446,2230510.429,2230515,2023-04-18T12:00:40Z,2230527.095,NULL,Zufall,kikuti,s,kukosekana,uchoraji,leseni,NA,sdfdsf,NA,1,NA,NA,NA,NA,NA,NA,NA,NA,NA,NA,NA,NA,NA,NA,NA,NA,NA,NA,NA
58275,task,flow.Sequence,5_0_1_0_4,NA,NA,completion,8355.983,2222141,2222137.78,2222154.446,2230510.429,2230515.1,2023-04-18T12:00:40Z,2230527.095,NULL,Zufall,kikuti,s,kukosekana,uchoraji,leseni,NA,sdfdsf,NA,1,NA,NA,NA,NA,NA,NA,NA,NA,NA,NA,NA,NA,NA,NA,NA,NA,NA,NA,NA
58275,Deep Question,html.Page,5_0_1_0_5_0_0,NA,NA,form submission,7309.1049999879,2230515.2,2230510.429,2230527.095,2237836.2,2237836.3,2023-04-18T12:00:48Z,2237842.532,NULL,Wettbewerb,ushindani,d,NA,NA,NA,shumoba,NA,NA,1,NA,NA,NA,NA,NA,NA,NA,NA,NA,NA,NA,NA,NA,NA,NA,NA,NA,NA,NA
58275,"""Richtig""-Screen",canvas.Screen,5_0_1_0_5_0_1,NA,NA,skipped,NA,2237837.7,NA,NA,2237836.2,2237837.8,2023-04-18T12:00:48Z,2237842.532,NULL,Wettbewerb,ushindani,d,NA,NA,NA,NA,sdfdsf,NA,1,NA,NA,NA,NA,NA,NA,NA,NA,NA,NA,NA,NA,NA,NA,NA,NA,NA,NA,NA
58275,"""Falsch""-Screen",canvas.Screen,5_0_1_0_5_0_2,NA,NA,timeout,4999.7999999998,2237838.3,2237825.866,2237842.532,2242825.666,2242830.3,2023-04-18T12:00:53Z,2242842.332,NULL,Wettbewerb,ushindani,d,NA,NA,NA,NA,sdfdsf,0,1,NA,NA,NA,NA,NA,NA,NA,NA,NA,NA,NA,NA,NA,NA,NA,NA,NA,NA,NA
58275,deep,flow.Sequence,5_0_1_0_5_0,NA,NA,completion,12298.571,2230515.2,2230510.429,2230527.095,2242825.666,2242830.6,2023-04-18T12:00:53Z,2242842.332,NULL,Wettbewerb,ushindani,d,NA,NA,NA,NA,sdfdsf,NA,1,NA,NA,NA,NA,NA,NA,NA,NA,NA,NA,NA,NA,NA,NA,NA,NA,NA,NA,NA
58275,shallow,flow.Sequence,5_0_1_0_5_1,NA,NA,skipped,NA,2242830.7,NA,NA,2242825.666,2242830.8,2023-04-18T12:00:53Z,2242842.332,NULL,Wettbewerb,ushindani,d,NA,NA,NA,NA,sdfdsf,NA,1,NA,NA,NA,NA,NA,NA,NA,NA,NA,NA,NA,NA,NA,NA,NA,NA,NA,NA,NA
58275,task,flow.Sequence,5_0_1_0_5,NA,NA,completion,12298.571,2230515.2,2230510.429,2230527.095,2242825.666,2242831,2023-04-18T12:00:53Z,2242842.332,NULL,Wettbewerb,ushindani,d,NA,NA,NA,NA,sdfdsf,NA,1,NA,NA,NA,NA,NA,NA,NA,NA,NA,NA,NA,NA,NA,NA,NA,NA,NA,NA,NA
58275,deep,flow.Sequence,5_0_1_0_6_0,NA,NA,skipped,NA,2242831.2,NA,NA,2242825.666,2242831.2,2023-04-18T12:00:53Z,2242842.332,NULL,Abrechnung,uhasibu,s,kusahihisha,mpambano,mashambulizi,NA,sdfdsf,NA,1,NA,NA,NA,NA,NA,NA,NA,NA,NA,NA,NA,NA,NA,NA,NA,NA,NA,NA,NA
58275,Shallow Question,html.Page,5_0_1_0_6_1_0,NA,NA,form submission,9734.2679999941,2242831.3,2242825.666,2242842.332,2252576.6,2252576.9,2023-04-18T12:01:02Z,2252586.659,NULL,Abrechnung,uhasibu,s,kusahihisha,mpambano,mashambulizi,uhasibu,NA,NA,1,NA,NA,NA,NA,NA,NA,NA,NA,NA,NA,NA,NA,NA,NA,NA,NA,NA,NA,NA
58275,"""Richtig""-Screen",canvas.Screen,5_0_1_0_6_1_1,NA,NA,timeout,4999.7999999998,2252579.8,2252569.993,2252586.659,2257569.793,2257571.4,2023-04-18T12:01:07Z,2257586.459,NULL,Abrechnung,uhasibu,s,kusahihisha,mpambano,mashambulizi,NA,sdfdsf,1,1,NA,NA,NA,NA,NA,NA,NA,NA,NA,NA,NA,NA,NA,NA,NA,NA,NA,NA,NA
58275,"""Falsch""-Screen",canvas.Screen,5_0_1_0_6_1_2,NA,NA,skipped,NA,2257575.1,NA,NA,2257569.793,2257575.3,2023-04-18T12:01:07Z,2257586.459,NULL,Abrechnung,uhasibu,s,kusahihisha,mpambano,mashambulizi,NA,sdfdsf,NA,1,NA,NA,NA,NA,NA,NA,NA,NA,NA,NA,NA,NA,NA,NA,NA,NA,NA,NA,NA
58275,shallow,flow.Sequence,5_0_1_0_6_1,NA,NA,completion,14727.461,2242831.3,2242825.666,2242842.332,2257569.793,2257575.4,2023-04-18T12:01:07Z,2257586.459,NULL,Abrechnung,uhasibu,s,kusahihisha,mpambano,mashambulizi,NA,sdfdsf,NA,1,NA,NA,NA,NA,NA,NA,NA,NA,NA,NA,NA,NA,NA,NA,NA,NA,NA,NA,NA
58275,task,flow.Sequence,5_0_1_0_6,NA,NA,completion,14727.461,2242831.1,2242825.666,2242842.332,2257569.793,2257575.6,2023-04-18T12:01:07Z,2257586.459,NULL,Abrechnung,uhasibu,s,kusahihisha,mpambano,mashambulizi,NA,sdfdsf,NA,1,NA,NA,NA,NA,NA,NA,NA,NA,NA,NA,NA,NA,NA,NA,NA,NA,NA,NA,NA
58275,deep,flow.Sequence,5_0_1_0_7_0,NA,NA,skipped,NA,2257575.7,NA,NA,2257569.793,2257575.7,2023-04-18T12:01:07Z,2257586.459,NULL,Schönheit,kirembo,s,mahojiano,msisimko,jitihadi,NA,sdfdsf,NA,1,NA,NA,NA,NA,NA,NA,NA,NA,NA,NA,NA,NA,NA,NA,NA,NA,NA,NA,NA
58275,Shallow Question,html.Page,5_0_1_0_7_1_0,NA,NA,form submission,2701.5410000002,2257575.9,2257569.793,2257586.459,2260288,2260288.4,2023-04-18T12:01:10Z,2260291.619,NULL,Schönheit,kirembo,s,mahojiano,msisimko,jitihadi,kirembo,NA,NA,1,NA,NA,NA,NA,NA,NA,NA,NA,NA,NA,NA,NA,NA,NA,NA,NA,NA,NA,NA
58275,"""Richtig""-Screen",canvas.Screen,5_0_1_0_7_1_1,NA,NA,timeout,4999.8000000003,2260289.9,2260274.953,2260291.619,2265274.753,2265279.4,2023-04-18T12:01:15Z,2265291.419,NULL,Schönheit,kirembo,s,mahojiano,msisimko,jitihadi,NA,sdfdsf,1,1,NA,NA,NA,NA,NA,NA,NA,NA,NA,NA,NA,NA,NA,NA,NA,NA,NA,NA,NA
58275,"""Falsch""-Screen",canvas.Screen,5_0_1_0_7_1_2,NA,NA,skipped,NA,2265283.5,NA,NA,2265274.753,2265283.7,2023-04-18T12:01:15Z,2265291.419,NULL,Schönheit,kirembo,s,mahojiano,msisimko,jitihadi,NA,sdfdsf,NA,1,NA,NA,NA,NA,NA,NA,NA,NA,NA,NA,NA,NA,NA,NA,NA,NA,NA,NA,NA
58275,shallow,flow.Sequence,5_0_1_0_7_1,NA,NA,completion,7688.2940000002,2257575.8,2257569.793,2257586.459,2265274.753,2265283.9,2023-04-18T12:01:15Z,2265291.419,NULL,Schönheit,kirembo,s,mahojiano,msisimko,jitihadi,NA,sdfdsf,NA,1,NA,NA,NA,NA,NA,NA,NA,NA,NA,NA,NA,NA,NA,NA,NA,NA,NA,NA,NA
58275,task,flow.Sequence,5_0_1_0_7,NA,NA,completion,7688.2940000002,2257575.7,2257569.793,2257586.459,2265274.753,2265284,2023-04-18T12:01:15Z,2265291.419,NULL,Schönheit,kirembo,s,mahojiano,msisimko,jitihadi,NA,sdfdsf,NA,1,NA,NA,NA,NA,NA,NA,NA,NA,NA,NA,NA,NA,NA,NA,NA,NA,NA,NA,NA
