observation,sender,sender_type,sender_id,response,response_action,ended_on,duration,time_run,time_render,time_show,time_end,time_commit,timestamp,time_switch,german,swahili,enc,distractor1,distractor2,distractor3,response_2,x,correct,distractors,url_vp,url_sess,meta_labjs_version,meta_location,meta_user_agent,meta_platform,meta_language,meta_locale,meta_time_zone,meta_timezone_offset,meta_screen_width,meta_screen_height,meta_scroll_width,meta_scroll_height,meta_window_inner_width,meta_window_inner_height,meta_device_pixel_ratio,meta_labjs_build_flavor,meta_labjs_build_commit
82f64,Introduction delayed retrieval,canvas.Screen,0,weiter,keypress(Space),response,7690.4419999523,1166.4000000954,1162.177,1178.858,8869.2999999523,8873.5999999046,2023-04-30T15:19:42Z,8879.324,NA,NA,NA,NA,NA,NA,NA,NA,NA,NULL,209,4,20.2.4,https://neurocog.fernuni.ch/studies/vweber/sfink/delayed%202/index.html?vp=209&sess=4,"Mozilla/5.0 (Windows NT 10.0; Win64; x64) AppleWebKit/537.36 (KHTML, like Gecko) Chrome/112.0.0.0 Safari/537.36",Win32,de-DE,de,Europe/Zurich,-120,1536,864,1536,698,1536,746,1.25,production,f5b4a49f956347addd546a832a3327688c2c0fef
82f64,Deep Question,html.Page,1_0_0_0,NA,NA,form submission,4654.8760000477,8874.7999999523,8862.553,8879.324,13534.200000048,13534.5,2023-04-30T15:19:47Z,13546.195,Orientierung,urekebisho,s,uelekeo,marekebisho,utunzaji,h,NA,NA,NULL,NA,NA,NA,NA,NA,NA,NA,NA,NA,NA,NA,NA,NA,NA,NA,NA,NA,NA,NA
82f64,Save data screen,canvas.Screen,1_0_0_1,NA,NA,timeout,500.052,13535.599999905,13529.607,13546.195,14029.607,14031.299999952,2023-04-30T15:19:47Z,14046.247,Orientierung,urekebisho,s,uelekeo,marekebisho,utunzaji,NA,NA,0,NULL,NA,NA,NA,NA,NA,NA,NA,NA,NA,NA,NA,NA,NA,NA,NA,NA,NA,NA,NA
82f64,deep,flow.Sequence,1_0_0,NA,NA,completion,5150.283,8874.7000000477,8862.553,8879.324,14029.607,14031.900000095,2023-04-30T15:19:47Z,14046.247,Orientierung,urekebisho,s,uelekeo,marekebisho,utunzaji,NA,NA,NA,NULL,NA,NA,NA,NA,NA,NA,NA,NA,NA,NA,NA,NA,NA,NA,NA,NA,NA,NA,NA
82f64,task,flow.Sequence,1_0,NA,NA,completion,5150.283,8874.5999999046,8862.553,8879.324,14029.607,14032.299999952,2023-04-30T15:19:47Z,14046.247,Orientierung,urekebisho,s,uelekeo,marekebisho,utunzaji,NA,NA,NA,NULL,NA,NA,NA,NA,NA,NA,NA,NA,NA,NA,NA,NA,NA,NA,NA,NA,NA,NA,NA
82f64,Deep Question,html.Page,1_1_0_0,NA,NA,form submission,2236.5529999523,14032.599999905,14029.607,14046.247,16282.799999952,16283.099999905,2023-04-30T15:19:49Z,16296.428,Entwicklung,maendeleo,d,uangavu,mshindwa,badiliko,h,NA,NA,NULL,NA,NA,NA,NA,NA,NA,NA,NA,NA,NA,NA,NA,NA,NA,NA,NA,NA,NA,NA
82f64,Save data screen,canvas.Screen,1_1_0_1,NA,NA,timeout,499.933,16283.900000095,16279.823,16296.428,16779.744,16781,2023-04-30T15:19:50Z,16796.361,Entwicklung,maendeleo,d,uangavu,mshindwa,badiliko,NA,NA,0,NULL,NA,NA,NA,NA,NA,NA,NA,NA,NA,NA,NA,NA,NA,NA,NA,NA,NA,NA,NA
82f64,deep,flow.Sequence,1_1_0,NA,NA,completion,2733.497,14032.5,14029.607,14046.247,16779.744,16781.599999905,2023-04-30T15:19:50Z,16796.361,Entwicklung,maendeleo,d,uangavu,mshindwa,badiliko,NA,NA,NA,NULL,NA,NA,NA,NA,NA,NA,NA,NA,NA,NA,NA,NA,NA,NA,NA,NA,NA,NA,NA
82f64,task,flow.Sequence,1_1,NA,NA,completion,2733.497,14032.5,14029.607,14046.247,16779.744,16784.299999952,2023-04-30T15:19:50Z,16796.361,Entwicklung,maendeleo,d,uangavu,mshindwa,badiliko,NA,NA,NA,NULL,NA,NA,NA,NA,NA,NA,NA,NA,NA,NA,NA,NA,NA,NA,NA,NA,NA,NA,NA
82f64,Deep Question,html.Page,1_2_0_0,NA,NA,form submission,4245.8390000477,16785.299999952,16779.744,16796.361,21042.200000048,21042.5,2023-04-30T15:19:54Z,21046.546,Integrität,uadilifu,s,muungano,mtiririko,upunguaji,h,NA,NA,NULL,NA,NA,NA,NA,NA,NA,NA,NA,NA,NA,NA,NA,NA,NA,NA,NA,NA,NA,NA
82f64,Save data screen,canvas.Screen,1_2_0_1,NA,NA,timeout,500.029,21043.400000095,21030.029,21046.546,21529.999,21531.200000048,2023-04-30T15:19:55Z,21546.575,Integrität,uadilifu,s,muungano,mtiririko,upunguaji,NA,NA,0,NULL,NA,NA,NA,NA,NA,NA,NA,NA,NA,NA,NA,NA,NA,NA,NA,NA,NA,NA,NA
82f64,deep,flow.Sequence,1_2_0,NA,NA,completion,4733.638,16785,16779.744,16796.361,21529.999,21531.900000095,2023-04-30T15:19:55Z,21546.575,Integrität,uadilifu,s,muungano,mtiririko,upunguaji,NA,NA,NA,NULL,NA,NA,NA,NA,NA,NA,NA,NA,NA,NA,NA,NA,NA,NA,NA,NA,NA,NA,NA
82f64,task,flow.Sequence,1_2,NA,NA,completion,4733.638,16784.700000048,16779.744,16796.361,21529.999,21532.400000095,2023-04-30T15:19:55Z,21546.575,Integrität,uadilifu,s,muungano,mtiririko,upunguaji,NA,NA,NA,NULL,NA,NA,NA,NA,NA,NA,NA,NA,NA,NA,NA,NA,NA,NA,NA,NA,NA,NA,NA
82f64,Deep Question,html.Page,1_3_0_0,NA,NA,form submission,8393.3250000954,21532.700000048,21529.999,21546.575,29939.900000095,29940.200000048,2023-04-30T15:20:03Z,29947.089,Flexibilität,kubadilika,d,enjini,usikilivu,hesabu,h,NA,NA,NULL,NA,NA,NA,NA,NA,NA,NA,NA,NA,NA,NA,NA,NA,NA,NA,NA,NA,NA,NA
82f64,Save data screen,canvas.Screen,1_3_0_1,NA,NA,timeout,500.013,29941.200000048,29930.492,29947.089,30430.556,30432.099999905,2023-04-30T15:20:03Z,30447.102,Flexibilität,kubadilika,d,enjini,usikilivu,hesabu,NA,NA,0,NULL,NA,NA,NA,NA,NA,NA,NA,NA,NA,NA,NA,NA,NA,NA,NA,NA,NA,NA,NA
82f64,deep,flow.Sequence,1_3_0,NA,NA,completion,8883.981,21532.700000048,21529.999,21546.575,30430.556,30432.700000048,2023-04-30T15:20:03Z,30447.102,Flexibilität,kubadilika,d,enjini,usikilivu,hesabu,NA,NA,NA,NULL,NA,NA,NA,NA,NA,NA,NA,NA,NA,NA,NA,NA,NA,NA,NA,NA,NA,NA,NA
82f64,task,flow.Sequence,1_3,NA,NA,completion,8883.981,21532.5,21529.999,21546.575,30430.556,30433.200000048,2023-04-30T15:20:03Z,30447.102,Flexibilität,kubadilika,d,enjini,usikilivu,hesabu,NA,NA,NA,NULL,NA,NA,NA,NA,NA,NA,NA,NA,NA,NA,NA,NA,NA,NA,NA,NA,NA,NA,NA
82f64,Deep Question,html.Page,1_4_0_0,NA,NA,form submission,3356.898,30433.5,30430.556,30447.102,33804,33804.200000048,2023-04-30T15:20:07Z,33813.989,Stimmung,kinyongo,d,kilekile,kisambo,madhehebu,h,NA,NA,NULL,NA,NA,NA,NA,NA,NA,NA,NA,NA,NA,NA,NA,NA,NA,NA,NA,NA,NA,NA
82f64,Save data screen,canvas.Screen,1_4_0_1,NA,NA,timeout,500.059,33805.200000048,33797.381,33813.989,34297.536,34298.900000095004,2023-04-30T15:20:07Z,34314.048,Stimmung,kinyongo,d,kilekile,kisambo,madhehebu,NA,NA,0,NULL,NA,NA,NA,NA,NA,NA,NA,NA,NA,NA,NA,NA,NA,NA,NA,NA,NA,NA,NA
82f64,deep,flow.Sequence,1_4_0,NA,NA,completion,3850.434,30433.400000095,30430.556,30447.102,34297.536,34299.400000095004,2023-04-30T15:20:07Z,34314.048,Stimmung,kinyongo,d,kilekile,kisambo,madhehebu,NA,NA,NA,NULL,NA,NA,NA,NA,NA,NA,NA,NA,NA,NA,NA,NA,NA,NA,NA,NA,NA,NA,NA
82f64,task,flow.Sequence,1_4,NA,NA,completion,3850.434,30433.299999952,30430.556,30447.102,34297.536,34299.799999952,2023-04-30T15:20:07Z,34314.048,Stimmung,kinyongo,d,kilekile,kisambo,madhehebu,NA,NA,NA,NULL,NA,NA,NA,NA,NA,NA,NA,NA,NA,NA,NA,NA,NA,NA,NA,NA,NA,NA,NA
82f64,Deep Question,html.Page,1_5_0_0,NA,NA,form submission,2438.952,34300.099999904996,34297.536,34314.048,36753,36753.299999952,2023-04-30T15:20:10Z,36780.905,Atmosphäre,angahewa,d,kuteseka,usahihi,kutoamini,h,NA,NA,NULL,NA,NA,NA,NA,NA,NA,NA,NA,NA,NA,NA,NA,NA,NA,NA,NA,NA,NA,NA
82f64,Save data screen,canvas.Screen,1_5_0_1,NA,NA,timeout,500.046,36754.099999904996,36764.169,36780.905,37264.282,37265.900000095004,2023-04-30T15:20:10Z,37280.951,Atmosphäre,angahewa,d,kuteseka,usahihi,kutoamini,NA,NA,0,NULL,NA,NA,NA,NA,NA,NA,NA,NA,NA,NA,NA,NA,NA,NA,NA,NA,NA,NA,NA
82f64,deep,flow.Sequence,1_5_0,NA,NA,completion,2950.234,34300,34297.536,34314.048,37264.282,37266.599999904996,2023-04-30T15:20:10Z,37280.951,Atmosphäre,angahewa,d,kuteseka,usahihi,kutoamini,NA,NA,NA,NULL,NA,NA,NA,NA,NA,NA,NA,NA,NA,NA,NA,NA,NA,NA,NA,NA,NA,NA,NA
82f64,task,flow.Sequence,1_5,NA,NA,completion,2950.234,34300,34297.536,34314.048,37264.282,37267,2023-04-30T15:20:10Z,37280.951,Atmosphäre,angahewa,d,kuteseka,usahihi,kutoamini,NA,NA,NA,NULL,NA,NA,NA,NA,NA,NA,NA,NA,NA,NA,NA,NA,NA,NA,NA,NA,NA,NA,NA
82f64,Deep Question,html.Page,1_6_0_0,NA,NA,form submission,3206.2490000477,37267.5,37264.282,37280.951,40487.200000048,40487.400000095004,2023-04-30T15:20:14Z,40497.698,Begegnung,kukutana,d,mmasihiya,mpiganaji,husiano,h,NA,NA,NULL,NA,NA,NA,NA,NA,NA,NA,NA,NA,NA,NA,NA,NA,NA,NA,NA,NA,NA,NA
82f64,Save data screen,canvas.Screen,1_6_0_1,NA,NA,timeout,500.094,40488.299999952,40481.171,40497.698,40981.133,40982.5,2023-04-30T15:20:14Z,40997.792,Begegnung,kukutana,d,mmasihiya,mpiganaji,husiano,NA,NA,0,NULL,NA,NA,NA,NA,NA,NA,NA,NA,NA,NA,NA,NA,NA,NA,NA,NA,NA,NA,NA
82f64,deep,flow.Sequence,1_6_0,NA,NA,completion,3700.182,37267.400000095004,37264.282,37280.951,40981.133,40983,2023-04-30T15:20:14Z,40997.792,Begegnung,kukutana,d,mmasihiya,mpiganaji,husiano,NA,NA,NA,NULL,NA,NA,NA,NA,NA,NA,NA,NA,NA,NA,NA,NA,NA,NA,NA,NA,NA,NA,NA
82f64,task,flow.Sequence,1_6,NA,NA,completion,3700.182,37267.200000048,37264.282,37280.951,40981.133,40983.299999952,2023-04-30T15:20:14Z,40997.792,Begegnung,kukutana,d,mmasihiya,mpiganaji,husiano,NA,NA,NA,NULL,NA,NA,NA,NA,NA,NA,NA,NA,NA,NA,NA,NA,NA,NA,NA,NA,NA,NA,NA
82f64,Deep Question,html.Page,1_7_0_0,NA,NA,form submission,1820.6080000954,40983.700000048,40981.133,40997.792,42818.400000095004,42818.700000048,2023-04-30T15:20:16Z,42831.075,Genehmigung,idhini,d,mwanamke,itikadi,fedheha,h,NA,NA,NULL,NA,NA,NA,NA,NA,NA,NA,NA,NA,NA,NA,NA,NA,NA,NA,NA,NA,NA,NA
82f64,Save data screen,canvas.Screen,1_7_0_1,NA,NA,timeout,500.185,42819.5,42814.701,42831.075,43314.577,43316,2023-04-30T15:20:16Z,43331.26,Genehmigung,idhini,d,mwanamke,itikadi,fedheha,NA,NA,0,NULL,NA,NA,NA,NA,NA,NA,NA,NA,NA,NA,NA,NA,NA,NA,NA,NA,NA,NA,NA
82f64,deep,flow.Sequence,1_7_0,NA,NA,completion,2316.785,40983.5,40981.133,40997.792,43314.577,43316.5,2023-04-30T15:20:16Z,43331.26,Genehmigung,idhini,d,mwanamke,itikadi,fedheha,NA,NA,NA,NULL,NA,NA,NA,NA,NA,NA,NA,NA,NA,NA,NA,NA,NA,NA,NA,NA,NA,NA,NA
82f64,task,flow.Sequence,1_7,NA,NA,completion,2316.785,40983.5,40981.133,40997.792,43314.577,43316.900000095004,2023-04-30T15:20:16Z,43331.26,Genehmigung,idhini,d,mwanamke,itikadi,fedheha,NA,NA,NA,NULL,NA,NA,NA,NA,NA,NA,NA,NA,NA,NA,NA,NA,NA,NA,NA,NA,NA,NA,NA
82f64,Deep Question,html.Page,1_8_0_0,NA,NA,form submission,2565.24,43317.299999952,43314.577,43331.26,45896.5,45896.799999952,2023-04-30T15:20:19Z,45897.96,Erneuerung,ukarabati,s,ushawishi,ukalifu,unyonyaji,h,NA,NA,NULL,NA,NA,NA,NA,NA,NA,NA,NA,NA,NA,NA,NA,NA,NA,NA,NA,NA,NA,NA
82f64,Save data screen,canvas.Screen,1_8_0_1,NA,NA,timeout,500.073,45897.700000048,45881.415,45897.96,46381.449,46382.900000095004,2023-04-30T15:20:19Z,46398.033,Erneuerung,ukarabati,s,ushawishi,ukalifu,unyonyaji,NA,NA,0,NULL,NA,NA,NA,NA,NA,NA,NA,NA,NA,NA,NA,NA,NA,NA,NA,NA,NA,NA,NA
82f64,deep,flow.Sequence,1_8_0,NA,NA,completion,3050.189,43317.299999952,43314.577,43331.26,46381.449,46383.400000095004,2023-04-30T15:20:19Z,46398.033,Erneuerung,ukarabati,s,ushawishi,ukalifu,unyonyaji,NA,NA,NA,NULL,NA,NA,NA,NA,NA,NA,NA,NA,NA,NA,NA,NA,NA,NA,NA,NA,NA,NA,NA
82f64,task,flow.Sequence,1_8,NA,NA,completion,3050.189,43317.099999904996,43314.577,43331.26,46381.449,46383.700000048,2023-04-30T15:20:19Z,46398.033,Erneuerung,ukarabati,s,ushawishi,ukalifu,unyonyaji,NA,NA,NA,NULL,NA,NA,NA,NA,NA,NA,NA,NA,NA,NA,NA,NA,NA,NA,NA,NA,NA,NA,NA
82f64,Deep Question,html.Page,1_9_0_0,NA,NA,form submission,2037.8670000954,46384,46381.449,46398.033,48435.900000095004,48436.200000048,2023-04-30T15:20:21Z,48448.075,Respekt,heshima,s,changamnao,upinzani,ufanisi,h,NA,NA,NULL,NA,NA,NA,NA,NA,NA,NA,NA,NA,NA,NA,NA,NA,NA,NA,NA,NA,NA,NA
82f64,Save data screen,canvas.Screen,1_9_0_1,NA,NA,timeout,500.142,48437,48431.557,48448.075,48931.589,48932.900000095004,2023-04-30T15:20:22Z,48948.217,Respekt,heshima,s,changamnao,upinzani,ufanisi,NA,NA,0,NULL,NA,NA,NA,NA,NA,NA,NA,NA,NA,NA,NA,NA,NA,NA,NA,NA,NA,NA,NA
82f64,deep,flow.Sequence,1_9_0,NA,NA,completion,2533.556,46384,46381.449,46398.033,48931.589,48933.299999952,2023-04-30T15:20:22Z,48948.217,Respekt,heshima,s,changamnao,upinzani,ufanisi,NA,NA,NA,NULL,NA,NA,NA,NA,NA,NA,NA,NA,NA,NA,NA,NA,NA,NA,NA,NA,NA,NA,NA
82f64,task,flow.Sequence,1_9,NA,NA,completion,2533.556,46383.900000095004,46381.449,46398.033,48931.589,48933.799999952,2023-04-30T15:20:22Z,48948.217,Respekt,heshima,s,changamnao,upinzani,ufanisi,NA,NA,NA,NULL,NA,NA,NA,NA,NA,NA,NA,NA,NA,NA,NA,NA,NA,NA,NA,NA,NA,NA,NA
82f64,Deep Question,html.Page,1_10_0_0,NA,NA,form submission,1737.0829999523,48934.099999904996,48931.589,48948.217,50685.299999952,50685.5,2023-04-30T15:20:24Z,50698.199,Niveau,kiwango,s,usimamizi,mwamali,mshairi,h,NA,NA,NULL,NA,NA,NA,NA,NA,NA,NA,NA,NA,NA,NA,NA,NA,NA,NA,NA,NA,NA,NA
82f64,Save data screen,canvas.Screen,1_10_0_1,NA,NA,timeout,500.134,50686.200000048,50681.447,50698.199,51181.731,51183.099999904996,2023-04-30T15:20:24Z,51198.333,Niveau,kiwango,s,usimamizi,mwamali,mshairi,NA,NA,0,NULL,NA,NA,NA,NA,NA,NA,NA,NA,NA,NA,NA,NA,NA,NA,NA,NA,NA,NA,NA
82f64,deep,flow.Sequence,1_10_0,NA,NA,completion,2233.514,48934.099999904996,48931.589,48948.217,51181.731,51183.599999904996,2023-04-30T15:20:24Z,51198.333,Niveau,kiwango,s,usimamizi,mwamali,mshairi,NA,NA,NA,NULL,NA,NA,NA,NA,NA,NA,NA,NA,NA,NA,NA,NA,NA,NA,NA,NA,NA,NA,NA
82f64,task,flow.Sequence,1_10,NA,NA,completion,2233.514,48934,48931.589,48948.217,51181.731,51184,2023-04-30T15:20:24Z,51198.333,Niveau,kiwango,s,usimamizi,mwamali,mshairi,NA,NA,NA,NULL,NA,NA,NA,NA,NA,NA,NA,NA,NA,NA,NA,NA,NA,NA,NA,NA,NA,NA,NA
82f64,Deep Question,html.Page,1_11_0_0,NA,NA,form submission,2701.667,51184.299999952,51181.731,51198.333,53900,53900.099999904996,2023-04-30T15:20:27Z,53915.122,Papier,karatasi,s,uchambuzi,usalama,kukataliwa,h,NA,NA,NULL,NA,NA,NA,NA,NA,NA,NA,NA,NA,NA,NA,NA,NA,NA,NA,NA,NA,NA,NA
82f64,Save data screen,canvas.Screen,1_11_0_1,NA,NA,timeout,500.085,53901,53898.468,53915.122,54398.527,54400,2023-04-30T15:20:27Z,54415.207,Papier,karatasi,s,uchambuzi,usalama,kukataliwa,NA,NA,0,NULL,NA,NA,NA,NA,NA,NA,NA,NA,NA,NA,NA,NA,NA,NA,NA,NA,NA,NA,NA
82f64,deep,flow.Sequence,1_11_0,NA,NA,completion,3200.194,51184.200000048,51181.731,51198.333,54398.527,54400.599999904996,2023-04-30T15:20:27Z,54415.207,Papier,karatasi,s,uchambuzi,usalama,kukataliwa,NA,NA,NA,NULL,NA,NA,NA,NA,NA,NA,NA,NA,NA,NA,NA,NA,NA,NA,NA,NA,NA,NA,NA
82f64,task,flow.Sequence,1_11,NA,NA,completion,3200.194,51184.099999904996,51181.731,51198.333,54398.527,54401,2023-04-30T15:20:27Z,54415.207,Papier,karatasi,s,uchambuzi,usalama,kukataliwa,NA,NA,NA,NULL,NA,NA,NA,NA,NA,NA,NA,NA,NA,NA,NA,NA,NA,NA,NA,NA,NA,NA,NA
82f64,Deep Question,html.Page,1_12_0_0,NA,NA,form submission,1846.9930000477,54401.299999952,54398.527,54415.207,56262.200000048,56262.5,2023-04-30T15:20:29Z,56265.173,Betrüger,mdanganyifu,d,mwanamuziki,wastani,mahakama,h,NA,NA,NULL,NA,NA,NA,NA,NA,NA,NA,NA,NA,NA,NA,NA,NA,NA,NA,NA,NA,NA,NA
82f64,Save data screen,canvas.Screen,1_12_0_1,NA,NA,timeout,500.21999999999,56263.299999952,56248.69,56265.173,56748.641,56750.099999904996,2023-04-30T15:20:30Z,56765.393,Betrüger,mdanganyifu,d,mwanamuziki,wastani,mahakama,NA,NA,0,NULL,NA,NA,NA,NA,NA,NA,NA,NA,NA,NA,NA,NA,NA,NA,NA,NA,NA,NA,NA
82f64,deep,flow.Sequence,1_12_0,NA,NA,completion,2333.434,54401.200000048,54398.527,54415.207,56748.641,56750.5,2023-04-30T15:20:30Z,56765.393,Betrüger,mdanganyifu,d,mwanamuziki,wastani,mahakama,NA,NA,NA,NULL,NA,NA,NA,NA,NA,NA,NA,NA,NA,NA,NA,NA,NA,NA,NA,NA,NA,NA,NA
82f64,task,flow.Sequence,1_12,NA,NA,completion,2333.434,54401.200000048,54398.527,54415.207,56748.641,56750.900000095004,2023-04-30T15:20:30Z,56765.393,Betrüger,mdanganyifu,d,mwanamuziki,wastani,mahakama,NA,NA,NA,NULL,NA,NA,NA,NA,NA,NA,NA,NA,NA,NA,NA,NA,NA,NA,NA,NA,NA,NA,NA
82f64,Deep Question,html.Page,1_13_0_0,NA,NA,form submission,1636.5070000954,56751.299999952,56748.641,56765.393,58401.900000095004,58402.299999952,2023-04-30T15:20:31Z,58415.431,Fleisch,mshakiki,s,kizunguzungu,mshikamano,angusho,h,NA,NA,NULL,NA,NA,NA,NA,NA,NA,NA,NA,NA,NA,NA,NA,NA,NA,NA,NA,NA,NA,NA
82f64,Save data screen,canvas.Screen,1_13_0_1,NA,NA,timeout,500.037,58403,58398.899,58415.431,58898.75,58900.200000048,2023-04-30T15:20:32Z,58915.468,Fleisch,mshakiki,s,kizunguzungu,mshikamano,angusho,NA,NA,0,NULL,NA,NA,NA,NA,NA,NA,NA,NA,NA,NA,NA,NA,NA,NA,NA,NA,NA,NA,NA
82f64,deep,flow.Sequence,1_13_0,NA,NA,completion,2133.357,56751.200000048,56748.641,56765.393,58898.75,58900.799999952,2023-04-30T15:20:32Z,58915.468,Fleisch,mshakiki,s,kizunguzungu,mshikamano,angusho,NA,NA,NA,NULL,NA,NA,NA,NA,NA,NA,NA,NA,NA,NA,NA,NA,NA,NA,NA,NA,NA,NA,NA
82f64,task,flow.Sequence,1_13,NA,NA,completion,2133.357,56751.099999904996,56748.641,56765.393,58898.75,58901.200000048,2023-04-30T15:20:32Z,58915.468,Fleisch,mshakiki,s,kizunguzungu,mshikamano,angusho,NA,NA,NA,NULL,NA,NA,NA,NA,NA,NA,NA,NA,NA,NA,NA,NA,NA,NA,NA,NA,NA,NA,NA
82f64,Deep Question,html.Page,1_14_0_0,NA,NA,form submission,2386.6319999046,58901.5,58898.75,58915.468,61302.099999904996,61302.400000095004,2023-04-30T15:20:34Z,61315.6,Wechsel,ugeuzaji,s,utambulisho,kujenga,wasiwasi,h,NA,NA,NULL,NA,NA,NA,NA,NA,NA,NA,NA,NA,NA,NA,NA,NA,NA,NA,NA,NA,NA,NA
82f64,Save data screen,canvas.Screen,1_14_0_1,NA,NA,timeout,500.03,61303.299999952,61298.928,61315.6,61798.974,61800.200000048,2023-04-30T15:20:35Z,61815.63,Wechsel,ugeuzaji,s,utambulisho,kujenga,wasiwasi,NA,NA,0,NULL,NA,NA,NA,NA,NA,NA,NA,NA,NA,NA,NA,NA,NA,NA,NA,NA,NA,NA,NA
82f64,deep,flow.Sequence,1_14_0,NA,NA,completion,2883.506,58901.400000095004,58898.75,58915.468,61798.974,61800.799999952,2023-04-30T15:20:35Z,61815.63,Wechsel,ugeuzaji,s,utambulisho,kujenga,wasiwasi,NA,NA,NA,NULL,NA,NA,NA,NA,NA,NA,NA,NA,NA,NA,NA,NA,NA,NA,NA,NA,NA,NA,NA
82f64,task,flow.Sequence,1_14,NA,NA,completion,2883.506,58901.299999952,58898.75,58915.468,61798.974,61801.400000095004,2023-04-30T15:20:35Z,61815.63,Wechsel,ugeuzaji,s,utambulisho,kujenga,wasiwasi,NA,NA,NA,NULL,NA,NA,NA,NA,NA,NA,NA,NA,NA,NA,NA,NA,NA,NA,NA,NA,NA,NA,NA
82f64,Deep Question,html.Page,1_15_0_0,NA,NA,form submission,2274.7700000954,61801.700000048,61798.974,61815.63,64090.400000095004,64090.599999904996,2023-04-30T15:20:37Z,64099.036,Vorwurf,mashtaka,d,msukumo,mtangulizi,uenyekiti,h,NA,NA,NULL,NA,NA,NA,NA,NA,NA,NA,NA,NA,NA,NA,NA,NA,NA,NA,NA,NA,NA,NA
82f64,Save data screen,canvas.Screen,1_15_0_1,NA,NA,timeout,499.961,64091.400000095004,64082.4,64099.036,64582.466,64583.900000095004,2023-04-30T15:20:38Z,64598.997,Vorwurf,mashtaka,d,msukumo,mtangulizi,uenyekiti,NA,NA,0,NULL,NA,NA,NA,NA,NA,NA,NA,NA,NA,NA,NA,NA,NA,NA,NA,NA,NA,NA,NA
82f64,deep,flow.Sequence,1_15_0,NA,NA,completion,2766.836,61801.700000048,61798.974,61815.63,64582.466,64584.400000095004,2023-04-30T15:20:38Z,64598.997,Vorwurf,mashtaka,d,msukumo,mtangulizi,uenyekiti,NA,NA,NA,NULL,NA,NA,NA,NA,NA,NA,NA,NA,NA,NA,NA,NA,NA,NA,NA,NA,NA,NA,NA
82f64,task,flow.Sequence,1_15,NA,NA,completion,2766.836,61801.599999904996,61798.974,61815.63,64582.466,64584.599999904996,2023-04-30T15:20:38Z,64598.997,Vorwurf,mashtaka,d,msukumo,mtangulizi,uenyekiti,NA,NA,NA,NULL,NA,NA,NA,NA,NA,NA,NA,NA,NA,NA,NA,NA,NA,NA,NA,NA,NA,NA,NA
82f64,retrieval block 1 (cued recall),flow.Loop,1,NA,NA,completion,55703.142,8874.5,8862.553,8879.324,64582.466,64585,2023-04-30T15:20:38Z,64598.997,NA,NA,NA,NA,NA,NA,NA,NA,NA,NULL,NA,NA,NA,NA,NA,NA,NA,NA,NA,NA,NA,NA,NA,NA,NA,NA,NA,NA,NA
82f64,Shallow Question,html.Page,2_0_0_0,NA,NA,form submission,11254.802999952,64585.5,64582.466,64598.997,75853.799999952,75854.099999905,2023-04-30T15:20:49Z,75866.246,Erneuerung,ukarabati,s,ushawishi,ukalifu,unyonyaji,ukarabati,NA,NA,"c(""distractor1"", ""distractor2"", ""distractor3"")",NA,NA,NA,NA,NA,NA,NA,NA,NA,NA,NA,NA,NA,NA,NA,NA,NA,NA,NA
82f64,Save data screen,canvas.Screen,2_0_0_1,NA,NA,timeout,500.166,75856.900000095,75849.874,75866.246,76349.683,76351.099999905,2023-04-30T15:20:49Z,76366.412,Erneuerung,ukarabati,s,ushawishi,ukalifu,unyonyaji,NA,NA,1,"c(""distractor1"", ""distractor2"", ""distractor3"")",NA,NA,NA,NA,NA,NA,NA,NA,NA,NA,NA,NA,NA,NA,NA,NA,NA,NA,NA
82f64,shallow,flow.Sequence,2_0_0,NA,NA,completion,11750.686,64585.5,64582.466,64598.997,76349.683,76351.700000048,2023-04-30T15:20:49Z,76366.412,Erneuerung,ukarabati,s,ushawishi,ukalifu,unyonyaji,NA,NA,NA,"c(""distractor1"", ""distractor2"", ""distractor3"")",NA,NA,NA,NA,NA,NA,NA,NA,NA,NA,NA,NA,NA,NA,NA,NA,NA,NA,NA
82f64,task,flow.Sequence,2_0,NA,NA,completion,11750.686,64585.400000095004,64582.466,64598.997,76349.683,76352.099999905,2023-04-30T15:20:49Z,76366.412,Erneuerung,ukarabati,s,ushawishi,ukalifu,unyonyaji,NA,NA,NA,"c(""distractor1"", ""distractor2"", ""distractor3"")",NA,NA,NA,NA,NA,NA,NA,NA,NA,NA,NA,NA,NA,NA,NA,NA,NA,NA,NA
82f64,Shallow Question,html.Page,2_1_0_0,NA,NA,form submission,16065.387999952,76352.299999952,76349.683,76366.412,92431.799999952,92432,2023-04-30T15:21:05Z,92433.882,Atmosphäre,angahewa,d,kuteseka,usahihi,kutoamini,kuteseka,NA,NA,"c(""distractor1"", ""distractor2"", ""distractor3"")",NA,NA,NA,NA,NA,NA,NA,NA,NA,NA,NA,NA,NA,NA,NA,NA,NA,NA,NA
82f64,Save data screen,canvas.Screen,2_1_0_1,NA,NA,timeout,500.12700000001,92434.900000095,92417.255,92433.882,92917.368,92918.799999952,2023-04-30T15:21:06Z,92934.009,Atmosphäre,angahewa,d,kuteseka,usahihi,kutoamini,NA,NA,0,"c(""distractor1"", ""distractor2"", ""distractor3"")",NA,NA,NA,NA,NA,NA,NA,NA,NA,NA,NA,NA,NA,NA,NA,NA,NA,NA,NA
82f64,shallow,flow.Sequence,2_1_0,NA,NA,completion,16550.956,76352.299999952,76349.683,76366.412,92917.368,92919.400000095,2023-04-30T15:21:06Z,92934.009,Atmosphäre,angahewa,d,kuteseka,usahihi,kutoamini,NA,NA,NA,"c(""distractor1"", ""distractor2"", ""distractor3"")",NA,NA,NA,NA,NA,NA,NA,NA,NA,NA,NA,NA,NA,NA,NA,NA,NA,NA,NA
82f64,task,flow.Sequence,2_1,NA,NA,completion,16550.956,76352.299999952,76349.683,76366.412,92917.368,92920,2023-04-30T15:21:06Z,92934.009,Atmosphäre,angahewa,d,kuteseka,usahihi,kutoamini,NA,NA,NA,"c(""distractor1"", ""distractor2"", ""distractor3"")",NA,NA,NA,NA,NA,NA,NA,NA,NA,NA,NA,NA,NA,NA,NA,NA,NA,NA,NA
82f64,Shallow Question,html.Page,2_2_0_0,NA,NA,form submission,10068.090999905,92920.5,92917.368,92934.009,103002.0999999,103002.29999995,2023-04-30T15:21:16Z,103017.83,Genehmigung,idhini,d,mwanamke,itikadi,fedheha,mwanamke,NA,NA,"c(""distractor1"", ""distractor2"", ""distractor3"")",NA,NA,NA,NA,NA,NA,NA,NA,NA,NA,NA,NA,NA,NA,NA,NA,NA,NA,NA
82f64,Save data screen,canvas.Screen,2_2_0_1,NA,NA,timeout,500.088,103004.9000001,103001.114,103017.83,103501.336,103502.5999999,2023-04-30T15:21:17Z,103517.918,Genehmigung,idhini,d,mwanamke,itikadi,fedheha,NA,NA,0,"c(""distractor1"", ""distractor2"", ""distractor3"")",NA,NA,NA,NA,NA,NA,NA,NA,NA,NA,NA,NA,NA,NA,NA,NA,NA,NA,NA
82f64,shallow,flow.Sequence,2_2_0,NA,NA,completion,10567.327,92920.400000095,92917.368,92934.009,103501.336,103503.20000005,2023-04-30T15:21:17Z,103517.918,Genehmigung,idhini,d,mwanamke,itikadi,fedheha,NA,NA,NA,"c(""distractor1"", ""distractor2"", ""distractor3"")",NA,NA,NA,NA,NA,NA,NA,NA,NA,NA,NA,NA,NA,NA,NA,NA,NA,NA,NA
82f64,task,flow.Sequence,2_2,NA,NA,completion,10567.327,92920.299999952,92917.368,92934.009,103501.336,103503.5,2023-04-30T15:21:17Z,103517.918,Genehmigung,idhini,d,mwanamke,itikadi,fedheha,NA,NA,NA,"c(""distractor1"", ""distractor2"", ""distractor3"")",NA,NA,NA,NA,NA,NA,NA,NA,NA,NA,NA,NA,NA,NA,NA,NA,NA,NA,NA
82f64,Shallow Question,html.Page,2_3_0_0,NA,NA,form submission,5133.6819999046,103503.79999995,103501.336,103517.918,108651.5999999,108651.9000001,2023-04-30T15:21:22Z,108671.46,Papier,karatasi,s,uchambuzi,usalama,kukataliwa,karatasi,NA,NA,"c(""distractor1"", ""distractor2"", ""distractor3"")",NA,NA,NA,NA,NA,NA,NA,NA,NA,NA,NA,NA,NA,NA,NA,NA,NA,NA,NA
82f64,Save data screen,canvas.Screen,2_3_0_1,NA,NA,timeout,496.63699999999,108654.29999995,108634.709,108671.46,109151.529,109153.0999999,2023-04-30T15:21:22Z,109168.097,Papier,karatasi,s,uchambuzi,usalama,kukataliwa,NA,NA,1,"c(""distractor1"", ""distractor2"", ""distractor3"")",NA,NA,NA,NA,NA,NA,NA,NA,NA,NA,NA,NA,NA,NA,NA,NA,NA,NA,NA
82f64,shallow,flow.Sequence,2_3_0,NA,NA,completion,5633.611,103503.79999995,103501.336,103517.918,109151.529,109153.79999995,2023-04-30T15:21:22Z,109168.097,Papier,karatasi,s,uchambuzi,usalama,kukataliwa,NA,NA,NA,"c(""distractor1"", ""distractor2"", ""distractor3"")",NA,NA,NA,NA,NA,NA,NA,NA,NA,NA,NA,NA,NA,NA,NA,NA,NA,NA,NA
82f64,task,flow.Sequence,2_3,NA,NA,completion,5633.611,103503.70000005,103501.336,103517.918,109151.529,109154.29999995,2023-04-30T15:21:22Z,109168.097,Papier,karatasi,s,uchambuzi,usalama,kukataliwa,NA,NA,NA,"c(""distractor1"", ""distractor2"", ""distractor3"")",NA,NA,NA,NA,NA,NA,NA,NA,NA,NA,NA,NA,NA,NA,NA,NA,NA,NA,NA
82f64,Shallow Question,html.Page,2_4_0_0,NA,NA,form submission,10085.502999905,109154.70000005,109151.529,109168.097,119253.5999999,119253.9000001,2023-04-30T15:21:32Z,119268.644,Stimmung,kinyongo,d,kilekile,kisambo,madhehebu,madhehebu,NA,NA,"c(""distractor1"", ""distractor2"", ""distractor3"")",NA,NA,NA,NA,NA,NA,NA,NA,NA,NA,NA,NA,NA,NA,NA,NA,NA,NA,NA
82f64,Save data screen,canvas.Screen,2_4_0_1,NA,NA,timeout,500.12300000001,119256.9000001,119252.132,119268.644,119752.181,119753.70000005,2023-04-30T15:21:33Z,119768.767,Stimmung,kinyongo,d,kilekile,kisambo,madhehebu,NA,NA,0,"c(""distractor1"", ""distractor2"", ""distractor3"")",NA,NA,NA,NA,NA,NA,NA,NA,NA,NA,NA,NA,NA,NA,NA,NA,NA,NA,NA
82f64,shallow,flow.Sequence,2_4_0,NA,NA,completion,10584.084,109154.5999999,109151.529,109168.097,119752.181,119754.0999999,2023-04-30T15:21:33Z,119768.767,Stimmung,kinyongo,d,kilekile,kisambo,madhehebu,NA,NA,NA,"c(""distractor1"", ""distractor2"", ""distractor3"")",NA,NA,NA,NA,NA,NA,NA,NA,NA,NA,NA,NA,NA,NA,NA,NA,NA,NA,NA
82f64,task,flow.Sequence,2_4,NA,NA,completion,10584.084,109154.5999999,109151.529,109168.097,119752.181,119754.5,2023-04-30T15:21:33Z,119768.767,Stimmung,kinyongo,d,kilekile,kisambo,madhehebu,NA,NA,NA,"c(""distractor1"", ""distractor2"", ""distractor3"")",NA,NA,NA,NA,NA,NA,NA,NA,NA,NA,NA,NA,NA,NA,NA,NA,NA,NA,NA
82f64,Shallow Question,html.Page,2_5_0_0,NA,NA,form submission,8913.4330000477,119754.79999995,119752.181,119768.767,128682.20000005,128682.5,2023-04-30T15:21:42Z,128685.887,Vorwurf,mashtaka,d,msukumo,mtangulizi,uenyekiti,uenyekiti,NA,NA,"c(""distractor1"", ""distractor2"", ""distractor3"")",NA,NA,NA,NA,NA,NA,NA,NA,NA,NA,NA,NA,NA,NA,NA,NA,NA,NA,NA
82f64,Save data screen,canvas.Screen,2_5_0_1,NA,NA,timeout,500.10799999999,128685,128669.12,128685.887,129169.275,129170.5999999,2023-04-30T15:21:42Z,129185.995,Vorwurf,mashtaka,d,msukumo,mtangulizi,uenyekiti,NA,NA,0,"c(""distractor1"", ""distractor2"", ""distractor3"")",NA,NA,NA,NA,NA,NA,NA,NA,NA,NA,NA,NA,NA,NA,NA,NA,NA,NA,NA
82f64,shallow,flow.Sequence,2_5_0,NA,NA,completion,9400.508,119754.70000005,119752.181,119768.767,129169.275,129171,2023-04-30T15:21:42Z,129185.995,Vorwurf,mashtaka,d,msukumo,mtangulizi,uenyekiti,NA,NA,NA,"c(""distractor1"", ""distractor2"", ""distractor3"")",NA,NA,NA,NA,NA,NA,NA,NA,NA,NA,NA,NA,NA,NA,NA,NA,NA,NA,NA
82f64,task,flow.Sequence,2_5,NA,NA,completion,9400.508,119754.70000005,119752.181,119768.767,129169.275,129171.4000001,2023-04-30T15:21:42Z,129185.995,Vorwurf,mashtaka,d,msukumo,mtangulizi,uenyekiti,NA,NA,NA,"c(""distractor1"", ""distractor2"", ""distractor3"")",NA,NA,NA,NA,NA,NA,NA,NA,NA,NA,NA,NA,NA,NA,NA,NA,NA,NA,NA
82f64,Shallow Question,html.Page,2_6_0_0,NA,NA,form submission,6830.7050000477,129171.5999999,129169.275,129185.995,136016.70000005,136016.9000001,2023-04-30T15:21:49Z,136019.612,Respekt,heshima,s,changamnao,upinzani,ufanisi,ufanisi,NA,NA,"c(""distractor1"", ""distractor2"", ""distractor3"")",NA,NA,NA,NA,NA,NA,NA,NA,NA,NA,NA,NA,NA,NA,NA,NA,NA,NA,NA
82f64,Save data screen,canvas.Screen,2_6_0_1,NA,NA,timeout,500.12600000002,136019.4000001,136003.117,136019.612,136503.082,136504.29999995,2023-04-30T15:21:50Z,136519.738,Respekt,heshima,s,changamnao,upinzani,ufanisi,NA,NA,0,"c(""distractor1"", ""distractor2"", ""distractor3"")",NA,NA,NA,NA,NA,NA,NA,NA,NA,NA,NA,NA,NA,NA,NA,NA,NA,NA,NA
82f64,shallow,flow.Sequence,2_6_0,NA,NA,completion,7317.087,129171.5999999,129169.275,129185.995,136503.082,136504.79999995,2023-04-30T15:21:50Z,136519.738,Respekt,heshima,s,changamnao,upinzani,ufanisi,NA,NA,NA,"c(""distractor1"", ""distractor2"", ""distractor3"")",NA,NA,NA,NA,NA,NA,NA,NA,NA,NA,NA,NA,NA,NA,NA,NA,NA,NA,NA
82f64,task,flow.Sequence,2_6,NA,NA,completion,7317.087,129171.5,129169.275,129185.995,136503.082,136505.0999999,2023-04-30T15:21:50Z,136519.738,Respekt,heshima,s,changamnao,upinzani,ufanisi,NA,NA,NA,"c(""distractor1"", ""distractor2"", ""distractor3"")",NA,NA,NA,NA,NA,NA,NA,NA,NA,NA,NA,NA,NA,NA,NA,NA,NA,NA,NA
82f64,Shallow Question,html.Page,2_7_0_0,NA,NA,form submission,7691.262,136505.5,136503.082,136519.738,144211,144211.20000005,2023-04-30T15:21:57Z,144220.059,Flexibilität,kubadilika,d,enjini,usikilivu,hesabu,kubadilika,NA,NA,"c(""distractor1"", ""distractor2"", ""distractor3"")",NA,NA,NA,NA,NA,NA,NA,NA,NA,NA,NA,NA,NA,NA,NA,NA,NA,NA,NA
82f64,Save data screen,canvas.Screen,2_7_0_1,NA,NA,timeout,500.00099999999,144213.79999995,144203.067,144220.059,144703.532,144705,2023-04-30T15:21:58Z,144720.06,Flexibilität,kubadilika,d,enjini,usikilivu,hesabu,NA,NA,1,"c(""distractor1"", ""distractor2"", ""distractor3"")",NA,NA,NA,NA,NA,NA,NA,NA,NA,NA,NA,NA,NA,NA,NA,NA,NA,NA,NA
82f64,shallow,flow.Sequence,2_7_0,NA,NA,completion,8183.794,136505.4000001,136503.082,136519.738,144703.532,144705.5999999,2023-04-30T15:21:58Z,144720.06,Flexibilität,kubadilika,d,enjini,usikilivu,hesabu,NA,NA,NA,"c(""distractor1"", ""distractor2"", ""distractor3"")",NA,NA,NA,NA,NA,NA,NA,NA,NA,NA,NA,NA,NA,NA,NA,NA,NA,NA,NA
82f64,task,flow.Sequence,2_7,NA,NA,completion,8183.794,136505.29999995,136503.082,136519.738,144703.532,144706,2023-04-30T15:21:58Z,144720.06,Flexibilität,kubadilika,d,enjini,usikilivu,hesabu,NA,NA,NA,"c(""distractor1"", ""distractor2"", ""distractor3"")",NA,NA,NA,NA,NA,NA,NA,NA,NA,NA,NA,NA,NA,NA,NA,NA,NA,NA,NA
82f64,Shallow Question,html.Page,2_8_0_0,NA,NA,form submission,6759.5399999046,144706.4000001,144703.532,144720.06,151479.5999999,151479.9000001,2023-04-30T15:22:05Z,151487.139,Entwicklung,maendeleo,d,uangavu,mshindwa,badiliko,maendeleo,NA,NA,"c(""distractor1"", ""distractor2"", ""distractor3"")",NA,NA,NA,NA,NA,NA,NA,NA,NA,NA,NA,NA,NA,NA,NA,NA,NA,NA,NA
82f64,Save data screen,canvas.Screen,2_8_0_1,NA,NA,timeout,499.989,151482.4000001,151470.405,151487.139,151970.598,151971.5999999,2023-04-30T15:22:05Z,151987.128,Entwicklung,maendeleo,d,uangavu,mshindwa,badiliko,NA,NA,1,"c(""distractor1"", ""distractor2"", ""distractor3"")",NA,NA,NA,NA,NA,NA,NA,NA,NA,NA,NA,NA,NA,NA,NA,NA,NA,NA,NA
82f64,shallow,flow.Sequence,2_8_0,NA,NA,completion,7250.538,144706.4000001,144703.532,144720.06,151970.598,151972.0999999,2023-04-30T15:22:05Z,151987.128,Entwicklung,maendeleo,d,uangavu,mshindwa,badiliko,NA,NA,NA,"c(""distractor1"", ""distractor2"", ""distractor3"")",NA,NA,NA,NA,NA,NA,NA,NA,NA,NA,NA,NA,NA,NA,NA,NA,NA,NA,NA
82f64,task,flow.Sequence,2_8,NA,NA,completion,7250.538,144706.29999995,144703.532,144720.06,151970.598,151972.70000005,2023-04-30T15:22:05Z,151987.128,Entwicklung,maendeleo,d,uangavu,mshindwa,badiliko,NA,NA,NA,"c(""distractor1"", ""distractor2"", ""distractor3"")",NA,NA,NA,NA,NA,NA,NA,NA,NA,NA,NA,NA,NA,NA,NA,NA,NA,NA,NA
82f64,Shallow Question,html.Page,2_9_0_0,NA,NA,form submission,7538.1719999523,151973.20000005,151970.598,151987.128,159525.29999995,159525.5,2023-04-30T15:22:13Z,159537.608,Betrüger,mdanganyifu,d,mwanamuziki,wastani,mahakama,mdanganyifu,NA,NA,"c(""distractor1"", ""distractor2"", ""distractor3"")",NA,NA,NA,NA,NA,NA,NA,NA,NA,NA,NA,NA,NA,NA,NA,NA,NA,NA,NA
82f64,Save data screen,canvas.Screen,2_9_0_1,NA,NA,timeout,500.084,159527.5,159521.125,159537.608,160021.037,160022.29999995,2023-04-30T15:22:13Z,160037.692,Betrüger,mdanganyifu,d,mwanamuziki,wastani,mahakama,NA,NA,1,"c(""distractor1"", ""distractor2"", ""distractor3"")",NA,NA,NA,NA,NA,NA,NA,NA,NA,NA,NA,NA,NA,NA,NA,NA,NA,NA,NA
82f64,shallow,flow.Sequence,2_9_0,NA,NA,completion,8033.909,151973.0999999,151970.598,151987.128,160021.037,160022.79999995,2023-04-30T15:22:13Z,160037.692,Betrüger,mdanganyifu,d,mwanamuziki,wastani,mahakama,NA,NA,NA,"c(""distractor1"", ""distractor2"", ""distractor3"")",NA,NA,NA,NA,NA,NA,NA,NA,NA,NA,NA,NA,NA,NA,NA,NA,NA,NA,NA
82f64,task,flow.Sequence,2_9,NA,NA,completion,8033.909,151973,151970.598,151987.128,160021.037,160023.20000005,2023-04-30T15:22:13Z,160037.692,Betrüger,mdanganyifu,d,mwanamuziki,wastani,mahakama,NA,NA,NA,"c(""distractor1"", ""distractor2"", ""distractor3"")",NA,NA,NA,NA,NA,NA,NA,NA,NA,NA,NA,NA,NA,NA,NA,NA,NA,NA,NA
82f64,Shallow Question,html.Page,2_10_0_0,NA,NA,form submission,5972.6079999523,160023.5999999,160021.037,160037.692,166010.29999995,166010.5999999,2023-04-30T15:22:19Z,166021.252,Wechsel,ugeuzaji,s,utambulisho,kujenga,wasiwasi,ugeuzaji,NA,NA,"c(""distractor1"", ""distractor2"", ""distractor3"")",NA,NA,NA,NA,NA,NA,NA,NA,NA,NA,NA,NA,NA,NA,NA,NA,NA,NA,NA
82f64,Save data screen,canvas.Screen,2_10_0_1,NA,NA,timeout,500.125,166012.79999995,166004.649,166021.252,166504.755,166506.29999995,2023-04-30T15:22:20Z,166521.377,Wechsel,ugeuzaji,s,utambulisho,kujenga,wasiwasi,NA,NA,1,"c(""distractor1"", ""distractor2"", ""distractor3"")",NA,NA,NA,NA,NA,NA,NA,NA,NA,NA,NA,NA,NA,NA,NA,NA,NA,NA,NA
82f64,shallow,flow.Sequence,2_10_0,NA,NA,completion,6467.063,160023.5,160021.037,160037.692,166504.755,166507.20000005,2023-04-30T15:22:20Z,166521.377,Wechsel,ugeuzaji,s,utambulisho,kujenga,wasiwasi,NA,NA,NA,"c(""distractor1"", ""distractor2"", ""distractor3"")",NA,NA,NA,NA,NA,NA,NA,NA,NA,NA,NA,NA,NA,NA,NA,NA,NA,NA,NA
82f64,task,flow.Sequence,2_10,NA,NA,completion,6467.063,160023.4000001,160021.037,160037.692,166504.755,166507.79999995,2023-04-30T15:22:20Z,166521.377,Wechsel,ugeuzaji,s,utambulisho,kujenga,wasiwasi,NA,NA,NA,"c(""distractor1"", ""distractor2"", ""distractor3"")",NA,NA,NA,NA,NA,NA,NA,NA,NA,NA,NA,NA,NA,NA,NA,NA,NA,NA,NA
82f64,Shallow Question,html.Page,2_11_0_0,NA,NA,form submission,12273.222999905,166508.5,166504.755,166521.377,178794.5999999,178794.79999995,2023-04-30T15:22:32Z,178805.426,Begegnung,kukutana,d,mmasihiya,mpiganaji,husiano,kukutana,NA,NA,"c(""distractor1"", ""distractor2"", ""distractor3"")",NA,NA,NA,NA,NA,NA,NA,NA,NA,NA,NA,NA,NA,NA,NA,NA,NA,NA,NA
82f64,Save data screen,canvas.Screen,2_11_0_1,NA,NA,timeout,499.92499999999,178797.20000005,178788.931,178805.426,179288.763,179290.20000005,2023-04-30T15:22:32Z,179305.351,Begegnung,kukutana,d,mmasihiya,mpiganaji,husiano,NA,NA,1,"c(""distractor1"", ""distractor2"", ""distractor3"")",NA,NA,NA,NA,NA,NA,NA,NA,NA,NA,NA,NA,NA,NA,NA,NA,NA,NA,NA
82f64,shallow,flow.Sequence,2_11_0,NA,NA,completion,12767.386,166508.4000001,166504.755,166521.377,179288.763,179290.9000001,2023-04-30T15:22:32Z,179305.351,Begegnung,kukutana,d,mmasihiya,mpiganaji,husiano,NA,NA,NA,"c(""distractor1"", ""distractor2"", ""distractor3"")",NA,NA,NA,NA,NA,NA,NA,NA,NA,NA,NA,NA,NA,NA,NA,NA,NA,NA,NA
82f64,task,flow.Sequence,2_11,NA,NA,completion,12767.386,166508.29999995,166504.755,166521.377,179288.763,179291.29999995,2023-04-30T15:22:32Z,179305.351,Begegnung,kukutana,d,mmasihiya,mpiganaji,husiano,NA,NA,NA,"c(""distractor1"", ""distractor2"", ""distractor3"")",NA,NA,NA,NA,NA,NA,NA,NA,NA,NA,NA,NA,NA,NA,NA,NA,NA,NA,NA
82f64,Shallow Question,html.Page,2_12_0_0,NA,NA,form submission,6479.649,179291.5999999,179288.763,179305.351,185785,185785.29999995,2023-04-30T15:22:39Z,185788.987,Orientierung,urekebisho,s,uelekeo,marekebisho,utunzaji,urekebisho,NA,NA,"c(""distractor1"", ""distractor2"", ""distractor3"")",NA,NA,NA,NA,NA,NA,NA,NA,NA,NA,NA,NA,NA,NA,NA,NA,NA,NA,NA
82f64,Save data screen,canvas.Screen,2_12_0_1,NA,NA,timeout,500.12299999999,185787.70000005,185772.128,185788.987,186272.498,186273.70000005,2023-04-30T15:22:39Z,186289.11,Orientierung,urekebisho,s,uelekeo,marekebisho,utunzaji,NA,NA,1,"c(""distractor1"", ""distractor2"", ""distractor3"")",NA,NA,NA,NA,NA,NA,NA,NA,NA,NA,NA,NA,NA,NA,NA,NA,NA,NA,NA
82f64,shallow,flow.Sequence,2_12_0,NA,NA,completion,6967.147,179291.5,179288.763,179305.351,186272.498,186274.20000005,2023-04-30T15:22:39Z,186289.11,Orientierung,urekebisho,s,uelekeo,marekebisho,utunzaji,NA,NA,NA,"c(""distractor1"", ""distractor2"", ""distractor3"")",NA,NA,NA,NA,NA,NA,NA,NA,NA,NA,NA,NA,NA,NA,NA,NA,NA,NA,NA
82f64,task,flow.Sequence,2_12,NA,NA,completion,6967.147,179291.5,179288.763,179305.351,186272.498,186274.5,2023-04-30T15:22:39Z,186289.11,Orientierung,urekebisho,s,uelekeo,marekebisho,utunzaji,NA,NA,NA,"c(""distractor1"", ""distractor2"", ""distractor3"")",NA,NA,NA,NA,NA,NA,NA,NA,NA,NA,NA,NA,NA,NA,NA,NA,NA,NA,NA
82f64,Shallow Question,html.Page,2_13_0_0,NA,NA,form submission,18473.989999905,186274.79999995,186272.498,186289.11,204763.0999999,204763.4000001,2023-04-30T15:22:58Z,204773.5,Fleisch,mshakiki,s,kizunguzungu,mshikamano,angusho,angusho,NA,NA,"c(""distractor1"", ""distractor2"", ""distractor3"")",NA,NA,NA,NA,NA,NA,NA,NA,NA,NA,NA,NA,NA,NA,NA,NA,NA,NA,NA
82f64,Save data screen,canvas.Screen,2_13_0_1,NA,NA,timeout,500.02299999999,204766,204756.839,204773.5,205256.857,205258.29999995,2023-04-30T15:22:58Z,205273.523,Fleisch,mshakiki,s,kizunguzungu,mshikamano,angusho,NA,NA,0,"c(""distractor1"", ""distractor2"", ""distractor3"")",NA,NA,NA,NA,NA,NA,NA,NA,NA,NA,NA,NA,NA,NA,NA,NA,NA,NA,NA
82f64,shallow,flow.Sequence,2_13_0,NA,NA,completion,18967.747,186274.70000005,186272.498,186289.11,205256.857,205259,2023-04-30T15:22:58Z,205273.523,Fleisch,mshakiki,s,kizunguzungu,mshikamano,angusho,NA,NA,NA,"c(""distractor1"", ""distractor2"", ""distractor3"")",NA,NA,NA,NA,NA,NA,NA,NA,NA,NA,NA,NA,NA,NA,NA,NA,NA,NA,NA
82f64,task,flow.Sequence,2_13,NA,NA,completion,18967.747,186274.70000005,186272.498,186289.11,205256.857,205259.5999999,2023-04-30T15:22:58Z,205273.523,Fleisch,mshakiki,s,kizunguzungu,mshikamano,angusho,NA,NA,NA,"c(""distractor1"", ""distractor2"", ""distractor3"")",NA,NA,NA,NA,NA,NA,NA,NA,NA,NA,NA,NA,NA,NA,NA,NA,NA,NA,NA
82f64,Shallow Question,html.Page,2_14_0_0,NA,NA,form submission,13141.576999905,205259.9000001,205256.857,205273.523,218415.0999999,218415.29999995,2023-04-30T15:23:11Z,218424.137,Niveau,kiwango,s,usimamizi,mwamali,mshairi,kiwango,NA,NA,"c(""distractor1"", ""distractor2"", ""distractor3"")",NA,NA,NA,NA,NA,NA,NA,NA,NA,NA,NA,NA,NA,NA,NA,NA,NA,NA,NA
82f64,Save data screen,canvas.Screen,2_14_0_1,NA,NA,timeout,500.04200000002,218417.70000005,218407.595,218424.137,218907.565,218908.70000005,2023-04-30T15:23:12Z,218924.179,Niveau,kiwango,s,usimamizi,mwamali,mshairi,NA,NA,1,"c(""distractor1"", ""distractor2"", ""distractor3"")",NA,NA,NA,NA,NA,NA,NA,NA,NA,NA,NA,NA,NA,NA,NA,NA,NA,NA,NA
82f64,shallow,flow.Sequence,2_14_0,NA,NA,completion,13634.042,205259.9000001,205256.857,205273.523,218907.565,218909.4000001,2023-04-30T15:23:12Z,218924.179,Niveau,kiwango,s,usimamizi,mwamali,mshairi,NA,NA,NA,"c(""distractor1"", ""distractor2"", ""distractor3"")",NA,NA,NA,NA,NA,NA,NA,NA,NA,NA,NA,NA,NA,NA,NA,NA,NA,NA,NA
82f64,task,flow.Sequence,2_14,NA,NA,completion,13634.042,205259.79999995,205256.857,205273.523,218907.565,218909.70000005,2023-04-30T15:23:12Z,218924.179,Niveau,kiwango,s,usimamizi,mwamali,mshairi,NA,NA,NA,"c(""distractor1"", ""distractor2"", ""distractor3"")",NA,NA,NA,NA,NA,NA,NA,NA,NA,NA,NA,NA,NA,NA,NA,NA,NA,NA,NA
82f64,Shallow Question,html.Page,2_15_0_0,NA,NA,form submission,8137.821,218910.0999999,218907.565,218924.179,227062,227062.20000005,2023-04-30T15:23:20Z,227074.631,Integrität,uadilifu,s,muungano,mtiririko,upunguaji,uadilifu,NA,NA,"c(""distractor1"", ""distractor2"", ""distractor3"")",NA,NA,NA,NA,NA,NA,NA,NA,NA,NA,NA,NA,NA,NA,NA,NA,NA,NA,NA
82f64,Save data screen,canvas.Screen,2_15_0_1,NA,NA,timeout,500.00200000001,227064.70000005,227058.018,227074.631,227558.072,227559.5,2023-04-30T15:23:21Z,227574.633,Integrität,uadilifu,s,muungano,mtiririko,upunguaji,NA,NA,1,"c(""distractor1"", ""distractor2"", ""distractor3"")",NA,NA,NA,NA,NA,NA,NA,NA,NA,NA,NA,NA,NA,NA,NA,NA,NA,NA,NA
82f64,shallow,flow.Sequence,2_15_0,NA,NA,completion,8633.893,218910,218907.565,218924.179,227558.072,227560,2023-04-30T15:23:21Z,227574.633,Integrität,uadilifu,s,muungano,mtiririko,upunguaji,NA,NA,NA,"c(""distractor1"", ""distractor2"", ""distractor3"")",NA,NA,NA,NA,NA,NA,NA,NA,NA,NA,NA,NA,NA,NA,NA,NA,NA,NA,NA
82f64,task,flow.Sequence,2_15,NA,NA,completion,8633.893,218909.9000001,218907.565,218924.179,227558.072,227560.29999995,2023-04-30T15:23:21Z,227574.633,Integrität,uadilifu,s,muungano,mtiririko,upunguaji,NA,NA,NA,"c(""distractor1"", ""distractor2"", ""distractor3"")",NA,NA,NA,NA,NA,NA,NA,NA,NA,NA,NA,NA,NA,NA,NA,NA,NA,NA,NA
82f64,retrieval block 2 (multiple choice),flow.Loop,2,NA,NA,completion,162959.075,64585.299999952,64582.466,64598.997,227558.072,227560.70000005,2023-04-30T15:23:21Z,227574.633,NA,NA,NA,NA,NA,NA,NA,NA,NA,"c(""distractor1"", ""distractor2"", ""distractor3"")",NA,NA,NA,NA,NA,NA,NA,NA,NA,NA,NA,NA,NA,NA,NA,NA,NA,NA,NA
82f64,End,canvas.Screen,3,NA,keypress(Space),response,3571.6669999523,227560.9000001,227558.072,227574.633,231146.29999995,231151.5,2023-04-30T15:23:24Z,231158.276,NA,NA,NA,NA,NA,NA,NA,NA,NA,NULL,NA,NA,NA,NA,NA,NA,NA,NA,NA,NA,NA,NA,NA,NA,NA,NA,NA,NA,NA
82f64,root,flow.Sequence,NA,NA,NA,completion,229967.44199995,1166.2999999523,1162.177,1178.858,231146.29999995,231152.4000001,2023-04-30T15:23:24Z,231158.276,NA,NA,NA,NA,NA,NA,NA,NA,NA,NULL,NA,NA,NA,NA,NA,NA,NA,NA,NA,NA,NA,NA,NA,NA,NA,NA,NA,NA,NA
