observation,sender,sender_type,sender_id,response,response_action,ended_on,duration,time_run,time_render,time_show,time_end,time_commit,timestamp,time_switch,german,swahili,enc,distractor1,distractor2,distractor3,response_2,x,correct,distractors,url_vp,url_sess,meta_labjs_version,meta_location,meta_user_agent,meta_platform,meta_language,meta_locale,meta_time_zone,meta_timezone_offset,meta_screen_width,meta_screen_height,meta_scroll_width,meta_scroll_height,meta_window_inner_width,meta_window_inner_height,meta_device_pixel_ratio,meta_labjs_build_flavor,meta_labjs_build_commit
2e46,Introduction delayed retrieval,canvas.Screen,0,weiter,keypress(Space),response,4814.6119999821,1274.5,996.097,1312.688,6127.2999999821,6128.8999999762,2023-04-18T07:50:33Z,6136.481,NA,NA,NA,NA,NA,NA,NA,NA,NA,NULL,205,4,20.2.4,https://neurocog.fernuni.ch/studies/vweber/sfink/delayed/index.html?vp=205&sess=4,"Mozilla/5.0 (Windows NT 10.0; Win64; x64) AppleWebKit/537.36 (KHTML, like Gecko) Chrome/112.0.0.0 Safari/537.36 Edg/112.0.1722.48",Win32,de,de-CH,Europe/Zurich,-120,1440,960,1383,793,1383,841,2,production,f5b4a49f956347addd546a832a3327688c2c0fef
2e46,Deep Question,html.Page,1_0_0_0,NA,NA,form submission,8551.019,6129.099999994,6118.248,6136.481,14687.5,14687.599999994,2023-04-18T07:50:41Z,14713.218,Vorwurf,mashtaka,d,msukumo,mtangulizi,uenyekiti,kuhawili,NA,NA,NULL,NA,NA,NA,NA,NA,NA,NA,NA,NA,NA,NA,NA,NA,NA,NA,NA,NA,NA,NA
2e46,Save data screen,canvas.Screen,1_0_0_1,NA,NA,timeout,497.894,14688,14696.566,14713.218,15194.417,15195,2023-04-18T07:50:42Z,15211.112,Vorwurf,mashtaka,d,msukumo,mtangulizi,uenyekiti,NA,NA,0,NULL,NA,NA,NA,NA,NA,NA,NA,NA,NA,NA,NA,NA,NA,NA,NA,NA,NA,NA,NA
2e46,deep,flow.Sequence,1_0_0,NA,NA,completion,9057.936,6129.099999994,6118.248,6136.481,15194.417,15195.099999994,2023-04-18T07:50:42Z,15211.112,Vorwurf,mashtaka,d,msukumo,mtangulizi,uenyekiti,NA,NA,NA,NULL,NA,NA,NA,NA,NA,NA,NA,NA,NA,NA,NA,NA,NA,NA,NA,NA,NA,NA,NA
2e46,task,flow.Sequence,1_0,NA,NA,completion,9057.936,6129.099999994,6118.248,6136.481,15194.417,15195.099999994,2023-04-18T07:50:42Z,15211.112,Vorwurf,mashtaka,d,msukumo,mtangulizi,uenyekiti,NA,NA,NA,NULL,NA,NA,NA,NA,NA,NA,NA,NA,NA,NA,NA,NA,NA,NA,NA,NA,NA,NA,NA
2e46,Deep Question,html.Page,1_1_0_0,NA,NA,form submission,6802.1879999821,15195.199999988,15194.417,15211.112,22013.299999982,22013.399999976,2023-04-18T07:50:49Z,22038.189,Respekt,heshima,s,changamnao,upinzani,ufanisi,dinawi,NA,NA,NULL,NA,NA,NA,NA,NA,NA,NA,NA,NA,NA,NA,NA,NA,NA,NA,NA,NA,NA,NA
2e46,Save data screen,canvas.Screen,1_1_0_1,NA,NA,timeout,498.556,22014,22021.45,22038.189,22520.123,22520.899999976,2023-04-18T07:50:49Z,22536.745,Respekt,heshima,s,changamnao,upinzani,ufanisi,NA,NA,0,NULL,NA,NA,NA,NA,NA,NA,NA,NA,NA,NA,NA,NA,NA,NA,NA,NA,NA,NA,NA
2e46,deep,flow.Sequence,1_1_0,NA,NA,completion,7309.011,15195.199999988,15194.417,15211.112,22520.123,22521,2023-04-18T07:50:49Z,22536.745,Respekt,heshima,s,changamnao,upinzani,ufanisi,NA,NA,NA,NULL,NA,NA,NA,NA,NA,NA,NA,NA,NA,NA,NA,NA,NA,NA,NA,NA,NA,NA,NA
2e46,task,flow.Sequence,1_1,NA,NA,completion,7309.011,15195.199999988,15194.417,15211.112,22520.123,22521.099999994,2023-04-18T07:50:49Z,22536.745,Respekt,heshima,s,changamnao,upinzani,ufanisi,NA,NA,NA,NULL,NA,NA,NA,NA,NA,NA,NA,NA,NA,NA,NA,NA,NA,NA,NA,NA,NA,NA,NA
2e46,Deep Question,html.Page,1_2_0_0,NA,NA,form submission,9999.854999994,22521.199999988,22520.123,22536.745,32536.599999994,32536.699999988,2023-04-18T07:50:59Z,32545.274,Integrität,uadilifu,s,muungano,mtiririko,upunguaji,meadeno,NA,NA,NULL,NA,NA,NA,NA,NA,NA,NA,NA,NA,NA,NA,NA,NA,NA,NA,NA,NA,NA,NA
2e46,Save data screen,canvas.Screen,1_2_0_1,NA,NA,timeout,503.069,32537.399999976,32535.014,32545.274,33031.626,33032.5,2023-04-18T07:51:00Z,33048.343,Integrität,uadilifu,s,muungano,mtiririko,upunguaji,NA,NA,0,NULL,NA,NA,NA,NA,NA,NA,NA,NA,NA,NA,NA,NA,NA,NA,NA,NA,NA,NA,NA
2e46,deep,flow.Sequence,1_2_0,NA,NA,completion,10494.881,22521.199999988,22520.123,22536.745,33031.626,33032.5,2023-04-18T07:51:00Z,33048.343,Integrität,uadilifu,s,muungano,mtiririko,upunguaji,NA,NA,NA,NULL,NA,NA,NA,NA,NA,NA,NA,NA,NA,NA,NA,NA,NA,NA,NA,NA,NA,NA,NA
2e46,task,flow.Sequence,1_2,NA,NA,completion,10494.881,22521.099999994,22520.123,22536.745,33031.626,33032.599999994,2023-04-18T07:51:00Z,33048.343,Integrität,uadilifu,s,muungano,mtiririko,upunguaji,NA,NA,NA,NULL,NA,NA,NA,NA,NA,NA,NA,NA,NA,NA,NA,NA,NA,NA,NA,NA,NA,NA,NA
2e46,Deep Question,html.Page,1_3_0_0,NA,NA,form submission,10017.456999982,33032.599999994,33031.626,33048.343,43065.799999982,43066,2023-04-18T07:51:10Z,43091.659,Papier,karatasi,s,uchambuzi,usalama,kukataliwa,mudanfanjuzi,NA,NA,NULL,NA,NA,NA,NA,NA,NA,NA,NA,NA,NA,NA,NA,NA,NA,NA,NA,NA,NA,NA
2e46,Save data screen,canvas.Screen,1_3_0_1,NA,NA,timeout,494.118,43066.5,43075.02,43091.659,43569.188,43570.599999994,2023-04-18T07:51:10Z,43585.777,Papier,karatasi,s,uchambuzi,usalama,kukataliwa,NA,NA,0,NULL,NA,NA,NA,NA,NA,NA,NA,NA,NA,NA,NA,NA,NA,NA,NA,NA,NA,NA,NA
2e46,deep,flow.Sequence,1_3_0,NA,NA,completion,10520.845,33032.599999994,33031.626,33048.343,43569.188,43570.899999976,2023-04-18T07:51:10Z,43585.777,Papier,karatasi,s,uchambuzi,usalama,kukataliwa,NA,NA,NA,NULL,NA,NA,NA,NA,NA,NA,NA,NA,NA,NA,NA,NA,NA,NA,NA,NA,NA,NA,NA
2e46,task,flow.Sequence,1_3,NA,NA,completion,10520.845,33032.599999994,33031.626,33048.343,43569.188,43571,2023-04-18T07:51:10Z,43585.777,Papier,karatasi,s,uchambuzi,usalama,kukataliwa,NA,NA,NA,NULL,NA,NA,NA,NA,NA,NA,NA,NA,NA,NA,NA,NA,NA,NA,NA,NA,NA,NA,NA
2e46,Deep Question,html.Page,1_4_0_0,NA,NA,form submission,5841.5229999821,43571.199999988,43569.188,43585.777,49427.299999982,49427.399999976,2023-04-18T07:51:16Z,49436.204,Genehmigung,idhini,d,mwanamke,itikadi,fedheha,idihi,NA,NA,NULL,NA,NA,NA,NA,NA,NA,NA,NA,NA,NA,NA,NA,NA,NA,NA,NA,NA,NA,NA
2e46,Save data screen,canvas.Screen,1_4_0_1,NA,NA,timeout,494.45,49427.899999976,49415.326,49436.204,49914.036,49915.399999976,2023-04-18T07:51:16Z,49930.654,Genehmigung,idhini,d,mwanamke,itikadi,fedheha,NA,NA,0,NULL,NA,NA,NA,NA,NA,NA,NA,NA,NA,NA,NA,NA,NA,NA,NA,NA,NA,NA,NA
2e46,deep,flow.Sequence,1_4_0,NA,NA,completion,6328.259,43571.199999988,43569.188,43585.777,49914.036,49915.699999988,2023-04-18T07:51:16Z,49930.654,Genehmigung,idhini,d,mwanamke,itikadi,fedheha,NA,NA,NA,NULL,NA,NA,NA,NA,NA,NA,NA,NA,NA,NA,NA,NA,NA,NA,NA,NA,NA,NA,NA
2e46,task,flow.Sequence,1_4,NA,NA,completion,6328.259,43571.099999994,43569.188,43585.777,49914.036,49915.899999976,2023-04-18T07:51:16Z,49930.654,Genehmigung,idhini,d,mwanamke,itikadi,fedheha,NA,NA,NA,NULL,NA,NA,NA,NA,NA,NA,NA,NA,NA,NA,NA,NA,NA,NA,NA,NA,NA,NA,NA
2e46,Deep Question,html.Page,1_5_0_0,NA,NA,form submission,7702.7459999762,49916.099999994,49914.036,49930.654,57633.399999976,57633.799999982,2023-04-18T07:51:24Z,57642.335,Orientierung,urekebisho,s,uelekeo,marekebisho,utunzaji,kudemi,NA,NA,NULL,NA,NA,NA,NA,NA,NA,NA,NA,NA,NA,NA,NA,NA,NA,NA,NA,NA,NA,NA
2e46,Save data screen,canvas.Screen,1_5_0_1,NA,NA,timeout,494.634,57634.299999982,57618.995,57642.335,58120.65,58121.899999976,2023-04-18T07:51:25Z,58136.969,Orientierung,urekebisho,s,uelekeo,marekebisho,utunzaji,NA,NA,0,NULL,NA,NA,NA,NA,NA,NA,NA,NA,NA,NA,NA,NA,NA,NA,NA,NA,NA,NA,NA
2e46,deep,flow.Sequence,1_5_0,NA,NA,completion,8189.996,49916,49914.036,49930.654,58120.65,58122.199999988,2023-04-18T07:51:25Z,58136.969,Orientierung,urekebisho,s,uelekeo,marekebisho,utunzaji,NA,NA,NA,NULL,NA,NA,NA,NA,NA,NA,NA,NA,NA,NA,NA,NA,NA,NA,NA,NA,NA,NA,NA
2e46,task,flow.Sequence,1_5,NA,NA,completion,8189.996,49916,49914.036,49930.654,58120.65,58122.299999982,2023-04-18T07:51:25Z,58136.969,Orientierung,urekebisho,s,uelekeo,marekebisho,utunzaji,NA,NA,NA,NULL,NA,NA,NA,NA,NA,NA,NA,NA,NA,NA,NA,NA,NA,NA,NA,NA,NA,NA,NA
2e46,Deep Question,html.Page,1_6_0_0,NA,NA,form submission,8032.9309999762,58122.5,58120.65,58136.969,66169.899999976,66170.099999994,2023-04-18T07:51:33Z,66179.563,Begegnung,kukutana,d,mmasihiya,mpiganaji,husiano,kukukili,NA,NA,NULL,NA,NA,NA,NA,NA,NA,NA,NA,NA,NA,NA,NA,NA,NA,NA,NA,NA,NA,NA
2e46,Save data screen,canvas.Screen,1_6_0_1,NA,NA,timeout,495.12700000001,66171.799999982,66153.428,66179.563,66658.082,66659.599999994,2023-04-18T07:51:33Z,66674.69,Begegnung,kukutana,d,mmasihiya,mpiganaji,husiano,NA,NA,0,NULL,NA,NA,NA,NA,NA,NA,NA,NA,NA,NA,NA,NA,NA,NA,NA,NA,NA,NA,NA
2e46,deep,flow.Sequence,1_6_0,NA,NA,completion,8521.113,58122.5,58120.65,58136.969,66658.082,66659.899999976,2023-04-18T07:51:33Z,66674.69,Begegnung,kukutana,d,mmasihiya,mpiganaji,husiano,NA,NA,NA,NULL,NA,NA,NA,NA,NA,NA,NA,NA,NA,NA,NA,NA,NA,NA,NA,NA,NA,NA,NA
2e46,task,flow.Sequence,1_6,NA,NA,completion,8521.113,58122.399999976,58120.65,58136.969,66658.082,66660.099999994,2023-04-18T07:51:33Z,66674.69,Begegnung,kukutana,d,mmasihiya,mpiganaji,husiano,NA,NA,NA,NULL,NA,NA,NA,NA,NA,NA,NA,NA,NA,NA,NA,NA,NA,NA,NA,NA,NA,NA,NA
2e46,Deep Question,html.Page,1_7_0_0,NA,NA,form submission,8313.909999994,66660.299999982,66658.082,66674.69,74988.599999994,74988.699999988,2023-04-18T07:51:41Z,75003.278,Atmosphäre,angahewa,d,kuteseka,usahihi,kutoamini,damoi,NA,NA,NULL,NA,NA,NA,NA,NA,NA,NA,NA,NA,NA,NA,NA,NA,NA,NA,NA,NA,NA,NA
2e46,Save data screen,canvas.Screen,1_7_0_1,NA,NA,timeout,506.39099999999,74990.5,74987.028,75003.278,75493.008,75494.099999994,2023-04-18T07:51:42Z,75509.669,Atmosphäre,angahewa,d,kuteseka,usahihi,kutoamini,NA,NA,0,NULL,NA,NA,NA,NA,NA,NA,NA,NA,NA,NA,NA,NA,NA,NA,NA,NA,NA,NA,NA
2e46,deep,flow.Sequence,1_7_0,NA,NA,completion,8818.318,66660.199999988,66658.082,66674.69,75493.008,75494.299999982,2023-04-18T07:51:42Z,75509.669,Atmosphäre,angahewa,d,kuteseka,usahihi,kutoamini,NA,NA,NA,NULL,NA,NA,NA,NA,NA,NA,NA,NA,NA,NA,NA,NA,NA,NA,NA,NA,NA,NA,NA
2e46,task,flow.Sequence,1_7,NA,NA,completion,8818.318,66660.199999988,66658.082,66674.69,75493.008,75494.599999994,2023-04-18T07:51:42Z,75509.669,Atmosphäre,angahewa,d,kuteseka,usahihi,kutoamini,NA,NA,NA,NULL,NA,NA,NA,NA,NA,NA,NA,NA,NA,NA,NA,NA,NA,NA,NA,NA,NA,NA,NA
2e46,Deep Question,html.Page,1_8_0_0,NA,NA,form submission,10600.030999988,75494.699999988,75493.008,75509.669,86109.699999988,86110,2023-04-18T07:51:53Z,86138.227,Wechsel,ugeuzaji,s,utambulisho,kujenga,wasiwasi,maedapo,NA,NA,NULL,NA,NA,NA,NA,NA,NA,NA,NA,NA,NA,NA,NA,NA,NA,NA,NA,NA,NA,NA
2e46,Save data screen,canvas.Screen,1_8_0_1,NA,NA,timeout,496.186,86111.599999994,86093.847,86138.227,86617.748,86618.899999976,2023-04-18T07:51:53Z,86634.413,Wechsel,ugeuzaji,s,utambulisho,kujenga,wasiwasi,NA,NA,0,NULL,NA,NA,NA,NA,NA,NA,NA,NA,NA,NA,NA,NA,NA,NA,NA,NA,NA,NA,NA
2e46,deep,flow.Sequence,1_8_0,NA,NA,completion,11108.079,75494.599999994,75493.008,75509.669,86617.748,86619.199999988,2023-04-18T07:51:53Z,86634.413,Wechsel,ugeuzaji,s,utambulisho,kujenga,wasiwasi,NA,NA,NA,NULL,NA,NA,NA,NA,NA,NA,NA,NA,NA,NA,NA,NA,NA,NA,NA,NA,NA,NA,NA
2e46,task,flow.Sequence,1_8,NA,NA,completion,11108.079,75494.599999994,75493.008,75509.669,86617.748,86619.399999976,2023-04-18T07:51:53Z,86634.413,Wechsel,ugeuzaji,s,utambulisho,kujenga,wasiwasi,NA,NA,NA,NULL,NA,NA,NA,NA,NA,NA,NA,NA,NA,NA,NA,NA,NA,NA,NA,NA,NA,NA,NA
2e46,Deep Question,html.Page,1_9_0_0,NA,NA,form submission,11428.486999976,86619.5,86617.748,86634.413,98062.899999976,98063.099999994,2023-04-18T07:52:05Z,98072.037,Stimmung,kinyongo,d,kilekile,kisambo,madhehebu,kuwalili,NA,NA,NULL,NA,NA,NA,NA,NA,NA,NA,NA,NA,NA,NA,NA,NA,NA,NA,NA,NA,NA,NA
2e46,Save data screen,canvas.Screen,1_9_0_1,NA,NA,timeout,493.05900000001,98064.699999988,98059.213,98072.037,98548.473,98549.799999982,2023-04-18T07:52:05Z,98565.096,Stimmung,kinyongo,d,kilekile,kisambo,madhehebu,NA,NA,0,NULL,NA,NA,NA,NA,NA,NA,NA,NA,NA,NA,NA,NA,NA,NA,NA,NA,NA,NA,NA
2e46,deep,flow.Sequence,1_9_0,NA,NA,completion,11914.06,86619.5,86617.748,86634.413,98548.473,98550.199999988,2023-04-18T07:52:05Z,98565.096,Stimmung,kinyongo,d,kilekile,kisambo,madhehebu,NA,NA,NA,NULL,NA,NA,NA,NA,NA,NA,NA,NA,NA,NA,NA,NA,NA,NA,NA,NA,NA,NA,NA
2e46,task,flow.Sequence,1_9,NA,NA,completion,11914.06,86619.5,86617.748,86634.413,98548.473,98550.399999976,2023-04-18T07:52:05Z,98565.096,Stimmung,kinyongo,d,kilekile,kisambo,madhehebu,NA,NA,NA,NULL,NA,NA,NA,NA,NA,NA,NA,NA,NA,NA,NA,NA,NA,NA,NA,NA,NA,NA,NA
2e46,Deep Question,html.Page,1_10_0_0,NA,NA,form submission,5996.904,98550.599999994,98548.473,98565.096,104562,104562.19999999,2023-04-18T07:52:11Z,104571.067,Flexibilität,kubadilika,d,enjini,usikilivu,hesabu,demadi,NA,NA,NULL,NA,NA,NA,NA,NA,NA,NA,NA,NA,NA,NA,NA,NA,NA,NA,NA,NA,NA,NA
2e46,Save data screen,canvas.Screen,1_10_0_1,NA,NA,timeout,495.26400000001,104563.69999999,104561.515,104571.067,105049.71,105051,2023-04-18T07:52:12Z,105066.331,Flexibilität,kubadilika,d,enjini,usikilivu,hesabu,NA,NA,0,NULL,NA,NA,NA,NA,NA,NA,NA,NA,NA,NA,NA,NA,NA,NA,NA,NA,NA,NA,NA
2e46,deep,flow.Sequence,1_10_0,NA,NA,completion,6484.614,98550.5,98548.473,98565.096,105049.71,105051.19999999,2023-04-18T07:52:12Z,105066.331,Flexibilität,kubadilika,d,enjini,usikilivu,hesabu,NA,NA,NA,NULL,NA,NA,NA,NA,NA,NA,NA,NA,NA,NA,NA,NA,NA,NA,NA,NA,NA,NA,NA
2e46,task,flow.Sequence,1_10,NA,NA,completion,6484.614,98550.5,98548.473,98565.096,105049.71,105051.39999998,2023-04-18T07:52:12Z,105066.331,Flexibilität,kubadilika,d,enjini,usikilivu,hesabu,NA,NA,NA,NULL,NA,NA,NA,NA,NA,NA,NA,NA,NA,NA,NA,NA,NA,NA,NA,NA,NA,NA,NA
2e46,Deep Question,html.Page,1_11_0_0,NA,NA,form submission,5430.268999994,105051.5,105049.71,105066.331,110496.59999999,110497.09999999,2023-04-18T07:52:17Z,110505.445,Betrüger,mdanganyifu,d,mwanamuziki,wastani,mahakama,doweni,NA,NA,NULL,NA,NA,NA,NA,NA,NA,NA,NA,NA,NA,NA,NA,NA,NA,NA,NA,NA,NA,NA
2e46,Save data screen,canvas.Screen,1_11_0_1,NA,NA,timeout,502.298,110498.69999999,110495.948,110505.445,110991.138,110992.29999998,2023-04-18T07:52:17Z,111007.743,Betrüger,mdanganyifu,d,mwanamuziki,wastani,mahakama,NA,NA,0,NULL,NA,NA,NA,NA,NA,NA,NA,NA,NA,NA,NA,NA,NA,NA,NA,NA,NA,NA,NA
2e46,deep,flow.Sequence,1_11_0,NA,NA,completion,5924.807,105051.5,105049.71,105066.331,110991.138,110992.5,2023-04-18T07:52:18Z,111007.743,Betrüger,mdanganyifu,d,mwanamuziki,wastani,mahakama,NA,NA,NA,NULL,NA,NA,NA,NA,NA,NA,NA,NA,NA,NA,NA,NA,NA,NA,NA,NA,NA,NA,NA
2e46,task,flow.Sequence,1_11,NA,NA,completion,5924.807,105051.5,105049.71,105066.331,110991.138,110992.69999999,2023-04-18T07:52:18Z,111007.743,Betrüger,mdanganyifu,d,mwanamuziki,wastani,mahakama,NA,NA,NA,NULL,NA,NA,NA,NA,NA,NA,NA,NA,NA,NA,NA,NA,NA,NA,NA,NA,NA,NA,NA
2e46,Deep Question,html.Page,1_12_0_0,NA,NA,form submission,9480.856999994,110992.79999998,110991.138,111007.743,120488.59999999,120488.69999999,2023-04-18T07:52:27Z,120498.237,Niveau,kiwango,s,usimamizi,mwamali,mshairi,kudemi,NA,NA,NULL,NA,NA,NA,NA,NA,NA,NA,NA,NA,NA,NA,NA,NA,NA,NA,NA,NA,NA,NA
2e46,Save data screen,canvas.Screen,1_12_0_1,NA,NA,timeout,495.89,120490.39999998,120487.873,120498.237,120977.402,120978.79999998,2023-04-18T07:52:27Z,120994.127,Niveau,kiwango,s,usimamizi,mwamali,mshairi,NA,NA,0,NULL,NA,NA,NA,NA,NA,NA,NA,NA,NA,NA,NA,NA,NA,NA,NA,NA,NA,NA,NA
2e46,deep,flow.Sequence,1_12_0,NA,NA,completion,9969.659,110992.79999998,110991.138,111007.743,120977.402,120979,2023-04-18T07:52:27Z,120994.127,Niveau,kiwango,s,usimamizi,mwamali,mshairi,NA,NA,NA,NULL,NA,NA,NA,NA,NA,NA,NA,NA,NA,NA,NA,NA,NA,NA,NA,NA,NA,NA,NA
2e46,task,flow.Sequence,1_12,NA,NA,completion,9969.659,110992.79999998,110991.138,111007.743,120977.402,120979.19999999,2023-04-18T07:52:27Z,120994.127,Niveau,kiwango,s,usimamizi,mwamali,mshairi,NA,NA,NA,NULL,NA,NA,NA,NA,NA,NA,NA,NA,NA,NA,NA,NA,NA,NA,NA,NA,NA,NA,NA
2e46,Deep Question,html.Page,1_13_0_0,NA,NA,form submission,5693.873,120979.39999998,120977.402,120994.127,126688,126688.19999999,2023-04-18T07:52:33Z,126697.148,Erneuerung,ukarabati,s,ushawishi,ukalifu,unyonyaji,nawani,NA,NA,NULL,NA,NA,NA,NA,NA,NA,NA,NA,NA,NA,NA,NA,NA,NA,NA,NA,NA,NA,NA
2e46,Save data screen,canvas.Screen,1_13_0_1,NA,NA,timeout,495.572,126689.69999999,126676.391,126697.148,127176.059,127177.19999999,2023-04-18T07:52:34Z,127192.72,Erneuerung,ukarabati,s,ushawishi,ukalifu,unyonyaji,NA,NA,0,NULL,NA,NA,NA,NA,NA,NA,NA,NA,NA,NA,NA,NA,NA,NA,NA,NA,NA,NA,NA
2e46,deep,flow.Sequence,1_13_0,NA,NA,completion,6181.932,120979.39999998,120977.402,120994.127,127176.059,127177.5,2023-04-18T07:52:34Z,127192.72,Erneuerung,ukarabati,s,ushawishi,ukalifu,unyonyaji,NA,NA,NA,NULL,NA,NA,NA,NA,NA,NA,NA,NA,NA,NA,NA,NA,NA,NA,NA,NA,NA,NA,NA
2e46,task,flow.Sequence,1_13,NA,NA,completion,6181.932,120979.29999998,120977.402,120994.127,127176.059,127177.69999999,2023-04-18T07:52:34Z,127192.72,Erneuerung,ukarabati,s,ushawishi,ukalifu,unyonyaji,NA,NA,NA,NULL,NA,NA,NA,NA,NA,NA,NA,NA,NA,NA,NA,NA,NA,NA,NA,NA,NA,NA,NA
2e46,Deep Question,html.Page,1_14_0_0,NA,NA,form submission,11875.879999994,127177.89999998,127176.059,127192.72,139068.59999999,139068.79999998,2023-04-18T07:52:46Z,139081.877,Entwicklung,maendeleo,d,uangavu,mshindwa,badiliko,mdawe,NA,NA,NULL,NA,NA,NA,NA,NA,NA,NA,NA,NA,NA,NA,NA,NA,NA,NA,NA,NA,NA,NA
2e46,Save data screen,canvas.Screen,1_14_0_1,NA,NA,timeout,491.60499999998,139070.39999998,139065.227,139081.877,139556.792,139557.89999998,2023-04-18T07:52:46Z,139573.482,Entwicklung,maendeleo,d,uangavu,mshindwa,badiliko,NA,NA,0,NULL,NA,NA,NA,NA,NA,NA,NA,NA,NA,NA,NA,NA,NA,NA,NA,NA,NA,NA,NA
2e46,deep,flow.Sequence,1_14_0,NA,NA,completion,12364.072,127177.79999998,127176.059,127192.72,139556.792,139558.19999999,2023-04-18T07:52:46Z,139573.482,Entwicklung,maendeleo,d,uangavu,mshindwa,badiliko,NA,NA,NA,NULL,NA,NA,NA,NA,NA,NA,NA,NA,NA,NA,NA,NA,NA,NA,NA,NA,NA,NA,NA
2e46,task,flow.Sequence,1_14,NA,NA,completion,12364.072,127177.79999998,127176.059,127192.72,139556.792,139558.39999998,2023-04-18T07:52:46Z,139573.482,Entwicklung,maendeleo,d,uangavu,mshindwa,badiliko,NA,NA,NA,NULL,NA,NA,NA,NA,NA,NA,NA,NA,NA,NA,NA,NA,NA,NA,NA,NA,NA,NA,NA
2e46,Deep Question,html.Page,1_15_0_0,NA,NA,form submission,8789.7179999881,139558.5,139556.792,139573.482,148363.19999999,148363.39999998,2023-04-18T07:52:55Z,148390.663,Fleisch,mshakiki,s,kizunguzungu,mshikamano,angusho,muhashanzu,NA,NA,NULL,NA,NA,NA,NA,NA,NA,NA,NA,NA,NA,NA,NA,NA,NA,NA,NA,NA,NA,NA
2e46,Save data screen,canvas.Screen,1_15_0_1,NA,NA,timeout,492.326,148365.09999999,148373.973,148390.663,148866.495,148867.69999999,2023-04-18T07:52:55Z,148882.989,Fleisch,mshakiki,s,kizunguzungu,mshikamano,angusho,NA,NA,0,NULL,NA,NA,NA,NA,NA,NA,NA,NA,NA,NA,NA,NA,NA,NA,NA,NA,NA,NA,NA
2e46,deep,flow.Sequence,1_15_0,NA,NA,completion,9293.013,139558.5,139556.792,139573.482,148866.495,148868,2023-04-18T07:52:55Z,148882.989,Fleisch,mshakiki,s,kizunguzungu,mshikamano,angusho,NA,NA,NA,NULL,NA,NA,NA,NA,NA,NA,NA,NA,NA,NA,NA,NA,NA,NA,NA,NA,NA,NA,NA
2e46,task,flow.Sequence,1_15,NA,NA,completion,9293.013,139558.39999998,139556.792,139573.482,148866.495,148868.09999999,2023-04-18T07:52:55Z,148882.989,Fleisch,mshakiki,s,kizunguzungu,mshikamano,angusho,NA,NA,NA,NULL,NA,NA,NA,NA,NA,NA,NA,NA,NA,NA,NA,NA,NA,NA,NA,NA,NA,NA,NA
2e46,retrieval block 1 (cued recall),flow.Loop,1,NA,NA,completion,142730.014,6129.099999994,6118.248,6136.481,148866.495,148868.29999998,2023-04-18T07:52:55Z,148882.989,NA,NA,NA,NA,NA,NA,NA,NA,NA,NULL,NA,NA,NA,NA,NA,NA,NA,NA,NA,NA,NA,NA,NA,NA,NA,NA,NA,NA,NA
2e46,Shallow Question,html.Page,2_0_0_0,NA,NA,form submission,4560.110999994,148868.5,148866.495,148882.989,153443.09999999,153443.29999998,2023-04-18T07:53:00Z,153452.286,Genehmigung,idhini,d,mwanamke,itikadi,fedheha,idhini,NA,NA,"c(""distractor1"", ""distractor2"", ""distractor3"")",NA,NA,NA,NA,NA,NA,NA,NA,NA,NA,NA,NA,NA,NA,NA,NA,NA,NA,NA
2e46,Save data screen,canvas.Screen,2_0_0_1,NA,NA,timeout,500.24400000001,153444.79999998,153442.375,153452.286,153936.089,153937.29999998,2023-04-18T07:53:00Z,153952.53,Genehmigung,idhini,d,mwanamke,itikadi,fedheha,NA,NA,1,"c(""distractor1"", ""distractor2"", ""distractor3"")",NA,NA,NA,NA,NA,NA,NA,NA,NA,NA,NA,NA,NA,NA,NA,NA,NA,NA,NA
2e46,shallow,flow.Sequence,2_0_0,NA,NA,completion,5053.1,148868.39999998,148866.495,148882.989,153936.089,153937.69999999,2023-04-18T07:53:00Z,153952.53,Genehmigung,idhini,d,mwanamke,itikadi,fedheha,NA,NA,NA,"c(""distractor1"", ""distractor2"", ""distractor3"")",NA,NA,NA,NA,NA,NA,NA,NA,NA,NA,NA,NA,NA,NA,NA,NA,NA,NA,NA
2e46,task,flow.Sequence,2_0,NA,NA,completion,5053.1,148868.39999998,148866.495,148882.989,153936.089,153937.79999998,2023-04-18T07:53:00Z,153952.53,Genehmigung,idhini,d,mwanamke,itikadi,fedheha,NA,NA,NA,"c(""distractor1"", ""distractor2"", ""distractor3"")",NA,NA,NA,NA,NA,NA,NA,NA,NA,NA,NA,NA,NA,NA,NA,NA,NA,NA,NA
2e46,Shallow Question,html.Page,2_1_0_0,NA,NA,form submission,7230.47,153938,153936.089,153952.53,161183,161183.09999999,2023-04-18T07:53:08Z,161192.136,Erneuerung,ukarabati,s,ushawishi,ukalifu,unyonyaji,ukarabati,NA,NA,"c(""distractor1"", ""distractor2"", ""distractor3"")",NA,NA,NA,NA,NA,NA,NA,NA,NA,NA,NA,NA,NA,NA,NA,NA,NA,NA,NA
2e46,Save data screen,canvas.Screen,2_1_0_1,NA,NA,timeout,498.35500000001,161184.79999998,161176.305,161192.136,161674.151,161675.39999998,2023-04-18T07:53:08Z,161690.491,Erneuerung,ukarabati,s,ushawishi,ukalifu,unyonyaji,NA,NA,1,"c(""distractor1"", ""distractor2"", ""distractor3"")",NA,NA,NA,NA,NA,NA,NA,NA,NA,NA,NA,NA,NA,NA,NA,NA,NA,NA,NA
2e46,shallow,flow.Sequence,2_1_0,NA,NA,completion,7721.621,153938,153936.089,153952.53,161674.151,161675.69999999,2023-04-18T07:53:08Z,161690.491,Erneuerung,ukarabati,s,ushawishi,ukalifu,unyonyaji,NA,NA,NA,"c(""distractor1"", ""distractor2"", ""distractor3"")",NA,NA,NA,NA,NA,NA,NA,NA,NA,NA,NA,NA,NA,NA,NA,NA,NA,NA,NA
2e46,task,flow.Sequence,2_1,NA,NA,completion,7721.621,153937.89999998,153936.089,153952.53,161674.151,161675.89999998,2023-04-18T07:53:08Z,161690.491,Erneuerung,ukarabati,s,ushawishi,ukalifu,unyonyaji,NA,NA,NA,"c(""distractor1"", ""distractor2"", ""distractor3"")",NA,NA,NA,NA,NA,NA,NA,NA,NA,NA,NA,NA,NA,NA,NA,NA,NA,NA,NA
2e46,Shallow Question,html.Page,2_2_0_0,NA,NA,form submission,6959.8089999821,161676.09999999,161674.151,161690.491,168650.29999998,168650.59999999,2023-04-18T07:53:15Z,168659.603,Stimmung,kinyongo,d,kilekile,kisambo,madhehebu,kinyongo,NA,NA,"c(""distractor1"", ""distractor2"", ""distractor3"")",NA,NA,NA,NA,NA,NA,NA,NA,NA,NA,NA,NA,NA,NA,NA,NA,NA,NA,NA
2e46,Save data screen,canvas.Screen,2_2_0_1,NA,NA,timeout,498.54199999999,168652.29999998,168636.594,168659.603,169141.694,169142.89999998,2023-04-18T07:53:16Z,169158.145,Stimmung,kinyongo,d,kilekile,kisambo,madhehebu,NA,NA,1,"c(""distractor1"", ""distractor2"", ""distractor3"")",NA,NA,NA,NA,NA,NA,NA,NA,NA,NA,NA,NA,NA,NA,NA,NA,NA,NA,NA
2e46,shallow,flow.Sequence,2_2_0,NA,NA,completion,7451.203,161676,161674.151,161690.491,169141.694,169143.09999999,2023-04-18T07:53:16Z,169158.145,Stimmung,kinyongo,d,kilekile,kisambo,madhehebu,NA,NA,NA,"c(""distractor1"", ""distractor2"", ""distractor3"")",NA,NA,NA,NA,NA,NA,NA,NA,NA,NA,NA,NA,NA,NA,NA,NA,NA,NA,NA
2e46,task,flow.Sequence,2_2,NA,NA,completion,7451.203,161675.89999998,161674.151,161690.491,169141.694,169143.19999999,2023-04-18T07:53:16Z,169158.145,Stimmung,kinyongo,d,kilekile,kisambo,madhehebu,NA,NA,NA,"c(""distractor1"", ""distractor2"", ""distractor3"")",NA,NA,NA,NA,NA,NA,NA,NA,NA,NA,NA,NA,NA,NA,NA,NA,NA,NA,NA
2e46,Shallow Question,html.Page,2_3_0_0,NA,NA,form submission,4264.6549999821,169143.39999998,169141.694,169158.145,173422.79999998,173423,2023-04-18T07:53:20Z,173431.797,Flexibilität,kubadilika,d,enjini,usikilivu,hesabu,kubadilika,NA,NA,"c(""distractor1"", ""distractor2"", ""distractor3"")",NA,NA,NA,NA,NA,NA,NA,NA,NA,NA,NA,NA,NA,NA,NA,NA,NA,NA,NA
2e46,Save data screen,canvas.Screen,2_3_0_1,NA,NA,timeout,493.693,173424.5,173421.738,173431.797,173909.046,173910.89999998,2023-04-18T07:53:20Z,173925.49,Flexibilität,kubadilika,d,enjini,usikilivu,hesabu,NA,NA,1,"c(""distractor1"", ""distractor2"", ""distractor3"")",NA,NA,NA,NA,NA,NA,NA,NA,NA,NA,NA,NA,NA,NA,NA,NA,NA,NA,NA
2e46,shallow,flow.Sequence,2_3_0,NA,NA,completion,4750.901,169143.39999998,169141.694,169158.145,173909.046,173911.09999999,2023-04-18T07:53:20Z,173925.49,Flexibilität,kubadilika,d,enjini,usikilivu,hesabu,NA,NA,NA,"c(""distractor1"", ""distractor2"", ""distractor3"")",NA,NA,NA,NA,NA,NA,NA,NA,NA,NA,NA,NA,NA,NA,NA,NA,NA,NA,NA
2e46,task,flow.Sequence,2_3,NA,NA,completion,4750.901,169143.29999998,169141.694,169158.145,173909.046,173911.29999998,2023-04-18T07:53:20Z,173925.49,Flexibilität,kubadilika,d,enjini,usikilivu,hesabu,NA,NA,NA,"c(""distractor1"", ""distractor2"", ""distractor3"")",NA,NA,NA,NA,NA,NA,NA,NA,NA,NA,NA,NA,NA,NA,NA,NA,NA,NA,NA
2e46,Shallow Question,html.Page,2_4_0_0,NA,NA,form submission,3609.2099999881,173911.39999998,173909.046,173925.49,177534.69999999,177535.19999999,2023-04-18T07:53:24Z,177543.794,Respekt,heshima,s,changamnao,upinzani,ufanisi,heshima,NA,NA,"c(""distractor1"", ""distractor2"", ""distractor3"")",NA,NA,NA,NA,NA,NA,NA,NA,NA,NA,NA,NA,NA,NA,NA,NA,NA,NA,NA
2e46,Save data screen,canvas.Screen,2_4_0_1,NA,NA,timeout,494.99000000002,177536.59999999,177523.534,177543.794,178022.297,178023.59999999,2023-04-18T07:53:25Z,178038.784,Respekt,heshima,s,changamnao,upinzani,ufanisi,NA,NA,1,"c(""distractor1"", ""distractor2"", ""distractor3"")",NA,NA,NA,NA,NA,NA,NA,NA,NA,NA,NA,NA,NA,NA,NA,NA,NA,NA,NA
2e46,shallow,flow.Sequence,2_4_0,NA,NA,completion,4096.807,173911.39999998,173909.046,173925.49,178022.297,178023.79999998,2023-04-18T07:53:25Z,178038.784,Respekt,heshima,s,changamnao,upinzani,ufanisi,NA,NA,NA,"c(""distractor1"", ""distractor2"", ""distractor3"")",NA,NA,NA,NA,NA,NA,NA,NA,NA,NA,NA,NA,NA,NA,NA,NA,NA,NA,NA
2e46,task,flow.Sequence,2_4,NA,NA,completion,4096.807,173911.29999998,173909.046,173925.49,178022.297,178024,2023-04-18T07:53:25Z,178038.784,Respekt,heshima,s,changamnao,upinzani,ufanisi,NA,NA,NA,"c(""distractor1"", ""distractor2"", ""distractor3"")",NA,NA,NA,NA,NA,NA,NA,NA,NA,NA,NA,NA,NA,NA,NA,NA,NA,NA,NA
2e46,Shallow Question,html.Page,2_5_0_0,NA,NA,form submission,4692.4159999881,178024.19999999,178022.297,178038.784,182731.19999999,182731.5,2023-04-18T07:53:29Z,182738.071,Niveau,kiwango,s,usimamizi,mwamali,mshairi,kiwango,NA,NA,"c(""distractor1"", ""distractor2"", ""distractor3"")",NA,NA,NA,NA,NA,NA,NA,NA,NA,NA,NA,NA,NA,NA,NA,NA,NA,NA,NA
2e46,Save data screen,canvas.Screen,2_5_0_1,NA,NA,timeout,496.179,182733.19999999,182725.613,182738.071,183217.949,183219.39999998,2023-04-18T07:53:30Z,183234.25,Niveau,kiwango,s,usimamizi,mwamali,mshairi,NA,NA,1,"c(""distractor1"", ""distractor2"", ""distractor3"")",NA,NA,NA,NA,NA,NA,NA,NA,NA,NA,NA,NA,NA,NA,NA,NA,NA,NA,NA
2e46,shallow,flow.Sequence,2_5_0,NA,NA,completion,5179.165,178024.09999999,178022.297,178038.784,183217.949,183219.59999999,2023-04-18T07:53:30Z,183234.25,Niveau,kiwango,s,usimamizi,mwamali,mshairi,NA,NA,NA,"c(""distractor1"", ""distractor2"", ""distractor3"")",NA,NA,NA,NA,NA,NA,NA,NA,NA,NA,NA,NA,NA,NA,NA,NA,NA,NA,NA
2e46,task,flow.Sequence,2_5,NA,NA,completion,5179.165,178024.09999999,178022.297,178038.784,183217.949,183219.89999998,2023-04-18T07:53:30Z,183234.25,Niveau,kiwango,s,usimamizi,mwamali,mshairi,NA,NA,NA,"c(""distractor1"", ""distractor2"", ""distractor3"")",NA,NA,NA,NA,NA,NA,NA,NA,NA,NA,NA,NA,NA,NA,NA,NA,NA,NA,NA
2e46,Shallow Question,html.Page,2_6_0_0,NA,NA,form submission,5100.349999994,183220,183217.949,183234.25,188334.59999999,188334.89999998,2023-04-18T07:53:35Z,188337.301,Entwicklung,maendeleo,d,uangavu,mshindwa,badiliko,maendeleo,NA,NA,"c(""distractor1"", ""distractor2"", ""distractor3"")",NA,NA,NA,NA,NA,NA,NA,NA,NA,NA,NA,NA,NA,NA,NA,NA,NA,NA,NA
2e46,Save data screen,canvas.Screen,2_6_0_1,NA,NA,timeout,503,188336.59999999,188318.77,188337.301,188823.632,188824.79999998,2023-04-18T07:53:35Z,188840.301,Entwicklung,maendeleo,d,uangavu,mshindwa,badiliko,NA,NA,1,"c(""distractor1"", ""distractor2"", ""distractor3"")",NA,NA,NA,NA,NA,NA,NA,NA,NA,NA,NA,NA,NA,NA,NA,NA,NA,NA,NA
2e46,shallow,flow.Sequence,2_6_0,NA,NA,completion,5589.382,183219.89999998,183217.949,183234.25,188823.632,188825.09999999,2023-04-18T07:53:35Z,188840.301,Entwicklung,maendeleo,d,uangavu,mshindwa,badiliko,NA,NA,NA,"c(""distractor1"", ""distractor2"", ""distractor3"")",NA,NA,NA,NA,NA,NA,NA,NA,NA,NA,NA,NA,NA,NA,NA,NA,NA,NA,NA
2e46,task,flow.Sequence,2_6,NA,NA,completion,5589.382,183219.89999998,183217.949,183234.25,188823.632,188825.19999999,2023-04-18T07:53:35Z,188840.301,Entwicklung,maendeleo,d,uangavu,mshindwa,badiliko,NA,NA,NA,"c(""distractor1"", ""distractor2"", ""distractor3"")",NA,NA,NA,NA,NA,NA,NA,NA,NA,NA,NA,NA,NA,NA,NA,NA,NA,NA,NA
2e46,Shallow Question,html.Page,2_7_0_0,NA,NA,form submission,5350.199,188825.39999998,188823.632,188840.301,194190.5,194190.69999999,2023-04-18T07:53:41Z,194199.205,Atmosphäre,angahewa,d,kuteseka,usahihi,kutoamini,usahihi,NA,NA,"c(""distractor1"", ""distractor2"", ""distractor3"")",NA,NA,NA,NA,NA,NA,NA,NA,NA,NA,NA,NA,NA,NA,NA,NA,NA,NA,NA
2e46,Save data screen,canvas.Screen,2_7_0_1,NA,NA,timeout,495.576,194192.19999999,194188.758,194199.205,194678.434,194679.79999998,2023-04-18T07:53:41Z,194694.781,Atmosphäre,angahewa,d,kuteseka,usahihi,kutoamini,NA,NA,0,"c(""distractor1"", ""distractor2"", ""distractor3"")",NA,NA,NA,NA,NA,NA,NA,NA,NA,NA,NA,NA,NA,NA,NA,NA,NA,NA,NA
2e46,shallow,flow.Sequence,2_7_0,NA,NA,completion,5838.133,188825.39999998,188823.632,188840.301,194678.434,194680.09999999,2023-04-18T07:53:41Z,194694.781,Atmosphäre,angahewa,d,kuteseka,usahihi,kutoamini,NA,NA,NA,"c(""distractor1"", ""distractor2"", ""distractor3"")",NA,NA,NA,NA,NA,NA,NA,NA,NA,NA,NA,NA,NA,NA,NA,NA,NA,NA,NA
2e46,task,flow.Sequence,2_7,NA,NA,completion,5838.133,188825.29999998,188823.632,188840.301,194678.434,194680.39999998,2023-04-18T07:53:41Z,194694.781,Atmosphäre,angahewa,d,kuteseka,usahihi,kutoamini,NA,NA,NA,"c(""distractor1"", ""distractor2"", ""distractor3"")",NA,NA,NA,NA,NA,NA,NA,NA,NA,NA,NA,NA,NA,NA,NA,NA,NA,NA,NA
2e46,Shallow Question,html.Page,2_8_0_0,NA,NA,form submission,6911.4189999881,194680.59999999,194678.434,194694.781,201606.19999999,201606.39999998,2023-04-18T07:53:48Z,201612.958,Integrität,uadilifu,s,muungano,mtiririko,upunguaji,upunguaji,NA,NA,"c(""distractor1"", ""distractor2"", ""distractor3"")",NA,NA,NA,NA,NA,NA,NA,NA,NA,NA,NA,NA,NA,NA,NA,NA,NA,NA,NA
2e46,Save data screen,canvas.Screen,2_8_0_1,NA,NA,timeout,495.78099999999,201608.29999998,201602.458,201612.958,202092.137,202093.39999998,2023-04-18T07:53:49Z,202108.739,Integrität,uadilifu,s,muungano,mtiririko,upunguaji,NA,NA,0,"c(""distractor1"", ""distractor2"", ""distractor3"")",NA,NA,NA,NA,NA,NA,NA,NA,NA,NA,NA,NA,NA,NA,NA,NA,NA,NA,NA
2e46,shallow,flow.Sequence,2_8_0,NA,NA,completion,7397.356,194680.59999999,194678.434,194694.781,202092.137,202093.59999999,2023-04-18T07:53:49Z,202108.739,Integrität,uadilifu,s,muungano,mtiririko,upunguaji,NA,NA,NA,"c(""distractor1"", ""distractor2"", ""distractor3"")",NA,NA,NA,NA,NA,NA,NA,NA,NA,NA,NA,NA,NA,NA,NA,NA,NA,NA,NA
2e46,task,flow.Sequence,2_8,NA,NA,completion,7397.356,194680.5,194678.434,194694.781,202092.137,202093.89999998,2023-04-18T07:53:49Z,202108.739,Integrität,uadilifu,s,muungano,mtiririko,upunguaji,NA,NA,NA,"c(""distractor1"", ""distractor2"", ""distractor3"")",NA,NA,NA,NA,NA,NA,NA,NA,NA,NA,NA,NA,NA,NA,NA,NA,NA,NA,NA
2e46,Shallow Question,html.Page,2_9_0_0,NA,NA,form submission,8441.360999994,202093.89999998,202092.137,202108.739,210550.09999999,210550.19999999,2023-04-18T07:53:57Z,210558.969,Wechsel,ugeuzaji,s,utambulisho,kujenga,wasiwasi,ugeuzaji,NA,NA,"c(""distractor1"", ""distractor2"", ""distractor3"")",NA,NA,NA,NA,NA,NA,NA,NA,NA,NA,NA,NA,NA,NA,NA,NA,NA,NA,NA
2e46,Save data screen,canvas.Screen,2_9_0_1,NA,NA,timeout,496.677,210551.79999998,210535.824,210558.969,211039.042,211040.19999999,2023-04-18T07:53:58Z,211055.646,Wechsel,ugeuzaji,s,utambulisho,kujenga,wasiwasi,NA,NA,1,"c(""distractor1"", ""distractor2"", ""distractor3"")",NA,NA,NA,NA,NA,NA,NA,NA,NA,NA,NA,NA,NA,NA,NA,NA,NA,NA,NA
2e46,shallow,flow.Sequence,2_9_0,NA,NA,completion,8930.303,202093.89999998,202092.137,202108.739,211039.042,211040.59999999,2023-04-18T07:53:58Z,211055.646,Wechsel,ugeuzaji,s,utambulisho,kujenga,wasiwasi,NA,NA,NA,"c(""distractor1"", ""distractor2"", ""distractor3"")",NA,NA,NA,NA,NA,NA,NA,NA,NA,NA,NA,NA,NA,NA,NA,NA,NA,NA,NA
2e46,task,flow.Sequence,2_9,NA,NA,completion,8930.303,202093.89999998,202092.137,202108.739,211039.042,211040.79999998,2023-04-18T07:53:58Z,211055.646,Wechsel,ugeuzaji,s,utambulisho,kujenga,wasiwasi,NA,NA,NA,"c(""distractor1"", ""distractor2"", ""distractor3"")",NA,NA,NA,NA,NA,NA,NA,NA,NA,NA,NA,NA,NA,NA,NA,NA,NA,NA,NA
2e46,Shallow Question,html.Page,2_10_0_0,NA,NA,form submission,4146.354,211040.89999998,211039.042,211055.646,215202,215202.19999999,2023-04-18T07:54:02Z,215210.732,Papier,karatasi,s,uchambuzi,usalama,kukataliwa,uchambuzi,NA,NA,"c(""distractor1"", ""distractor2"", ""distractor3"")",NA,NA,NA,NA,NA,NA,NA,NA,NA,NA,NA,NA,NA,NA,NA,NA,NA,NA,NA
2e46,Save data screen,canvas.Screen,2_10_0_1,NA,NA,timeout,507.76400000002,215203.69999999,215200.952,215210.732,215702.08,215703.5,2023-04-18T07:54:02Z,215718.496,Papier,karatasi,s,uchambuzi,usalama,kukataliwa,NA,NA,0,"c(""distractor1"", ""distractor2"", ""distractor3"")",NA,NA,NA,NA,NA,NA,NA,NA,NA,NA,NA,NA,NA,NA,NA,NA,NA,NA,NA
2e46,shallow,flow.Sequence,2_10_0,NA,NA,completion,4646.434,211040.89999998,211039.042,211055.646,215702.08,215703.89999998,2023-04-18T07:54:02Z,215718.496,Papier,karatasi,s,uchambuzi,usalama,kukataliwa,NA,NA,NA,"c(""distractor1"", ""distractor2"", ""distractor3"")",NA,NA,NA,NA,NA,NA,NA,NA,NA,NA,NA,NA,NA,NA,NA,NA,NA,NA,NA
2e46,task,flow.Sequence,2_10,NA,NA,completion,4646.434,211040.79999998,211039.042,211055.646,215702.08,215704,2023-04-18T07:54:02Z,215718.496,Papier,karatasi,s,uchambuzi,usalama,kukataliwa,NA,NA,NA,"c(""distractor1"", ""distractor2"", ""distractor3"")",NA,NA,NA,NA,NA,NA,NA,NA,NA,NA,NA,NA,NA,NA,NA,NA,NA,NA,NA
2e46,Shallow Question,html.Page,2_11_0_0,NA,NA,form submission,6142.8039999821,215704.19999999,215702.08,215718.496,221861.29999998,221861.39999998,2023-04-18T07:54:08Z,221870.308,Orientierung,urekebisho,s,uelekeo,marekebisho,utunzaji,urekebisho,NA,NA,"c(""distractor1"", ""distractor2"", ""distractor3"")",NA,NA,NA,NA,NA,NA,NA,NA,NA,NA,NA,NA,NA,NA,NA,NA,NA,NA,NA
2e46,Save data screen,canvas.Screen,2_11_0_1,NA,NA,timeout,505.84900000002,221862.89999998,221851.223,221870.308,222359.718,222371.79999998,2023-04-18T07:54:09Z,222376.157,Orientierung,urekebisho,s,uelekeo,marekebisho,utunzaji,NA,NA,1,"c(""distractor1"", ""distractor2"", ""distractor3"")",NA,NA,NA,NA,NA,NA,NA,NA,NA,NA,NA,NA,NA,NA,NA,NA,NA,NA,NA
2e46,shallow,flow.Sequence,2_11_0,NA,NA,completion,6641.222,215704.19999999,215702.08,215718.496,222359.718,222372,2023-04-18T07:54:09Z,222376.157,Orientierung,urekebisho,s,uelekeo,marekebisho,utunzaji,NA,NA,NA,"c(""distractor1"", ""distractor2"", ""distractor3"")",NA,NA,NA,NA,NA,NA,NA,NA,NA,NA,NA,NA,NA,NA,NA,NA,NA,NA,NA
2e46,task,flow.Sequence,2_11,NA,NA,completion,6641.222,215704.19999999,215702.08,215718.496,222359.718,222372.09999999,2023-04-18T07:54:09Z,222376.157,Orientierung,urekebisho,s,uelekeo,marekebisho,utunzaji,NA,NA,NA,"c(""distractor1"", ""distractor2"", ""distractor3"")",NA,NA,NA,NA,NA,NA,NA,NA,NA,NA,NA,NA,NA,NA,NA,NA,NA,NA,NA
2e46,Shallow Question,html.Page,2_12_0_0,NA,NA,form submission,5313.7429999762,222372.29999998,222359.718,222376.157,227689.89999998,227690.09999999,2023-04-18T07:54:14Z,227698.629,Vorwurf,mashtaka,d,msukumo,mtangulizi,uenyekiti,mtangulizi,NA,NA,"c(""distractor1"", ""distractor2"", ""distractor3"")",NA,NA,NA,NA,NA,NA,NA,NA,NA,NA,NA,NA,NA,NA,NA,NA,NA,NA,NA
2e46,Save data screen,canvas.Screen,2_12_0_1,NA,NA,timeout,505.41700000002,227691.59999999,227677.628,227698.629,228187.833,228189.79999998,2023-04-18T07:54:15Z,228204.046,Vorwurf,mashtaka,d,msukumo,mtangulizi,uenyekiti,NA,NA,0,"c(""distractor1"", ""distractor2"", ""distractor3"")",NA,NA,NA,NA,NA,NA,NA,NA,NA,NA,NA,NA,NA,NA,NA,NA,NA,NA,NA
2e46,shallow,flow.Sequence,2_12_0,NA,NA,completion,5811.676,222372.19999999,222359.718,222376.157,228187.833,228190.09999999,2023-04-18T07:54:15Z,228204.046,Vorwurf,mashtaka,d,msukumo,mtangulizi,uenyekiti,NA,NA,NA,"c(""distractor1"", ""distractor2"", ""distractor3"")",NA,NA,NA,NA,NA,NA,NA,NA,NA,NA,NA,NA,NA,NA,NA,NA,NA,NA,NA
2e46,task,flow.Sequence,2_12,NA,NA,completion,5811.676,222372.19999999,222359.718,222376.157,228187.833,228190.29999998,2023-04-18T07:54:15Z,228204.046,Vorwurf,mashtaka,d,msukumo,mtangulizi,uenyekiti,NA,NA,NA,"c(""distractor1"", ""distractor2"", ""distractor3"")",NA,NA,NA,NA,NA,NA,NA,NA,NA,NA,NA,NA,NA,NA,NA,NA,NA,NA,NA
2e46,Shallow Question,html.Page,2_13_0_0,NA,NA,form submission,3754.954,228190.39999998,228187.833,228204.046,231959,231959.09999999,2023-04-18T07:54:18Z,231968.11,Begegnung,kukutana,d,mmasihiya,mpiganaji,husiano,kukutana,NA,NA,"c(""distractor1"", ""distractor2"", ""distractor3"")",NA,NA,NA,NA,NA,NA,NA,NA,NA,NA,NA,NA,NA,NA,NA,NA,NA,NA,NA
2e46,Save data screen,canvas.Screen,2_13_0_1,NA,NA,timeout,507.20500000002,231960.59999999,231942.597,231968.11,232458.918,232460,2023-04-18T07:54:19Z,232475.315,Begegnung,kukutana,d,mmasihiya,mpiganaji,husiano,NA,NA,1,"c(""distractor1"", ""distractor2"", ""distractor3"")",NA,NA,NA,NA,NA,NA,NA,NA,NA,NA,NA,NA,NA,NA,NA,NA,NA,NA,NA
2e46,shallow,flow.Sequence,2_13_0,NA,NA,completion,4254.872,228190.39999998,228187.833,228204.046,232458.918,232460.19999999,2023-04-18T07:54:19Z,232475.315,Begegnung,kukutana,d,mmasihiya,mpiganaji,husiano,NA,NA,NA,"c(""distractor1"", ""distractor2"", ""distractor3"")",NA,NA,NA,NA,NA,NA,NA,NA,NA,NA,NA,NA,NA,NA,NA,NA,NA,NA,NA
2e46,task,flow.Sequence,2_13,NA,NA,completion,4254.872,228190.39999998,228187.833,228204.046,232458.918,232460.39999998,2023-04-18T07:54:19Z,232475.315,Begegnung,kukutana,d,mmasihiya,mpiganaji,husiano,NA,NA,NA,"c(""distractor1"", ""distractor2"", ""distractor3"")",NA,NA,NA,NA,NA,NA,NA,NA,NA,NA,NA,NA,NA,NA,NA,NA,NA,NA,NA
2e46,Shallow Question,html.Page,2_14_0_0,NA,NA,form submission,3733.4849999821,232460.5,232458.918,232475.315,236208.79999998,236209,2023-04-18T07:54:23Z,236215.262,Fleisch,mshakiki,s,kizunguzungu,mshikamano,angusho,mshikamano,NA,NA,"c(""distractor1"", ""distractor2"", ""distractor3"")",NA,NA,NA,NA,NA,NA,NA,NA,NA,NA,NA,NA,NA,NA,NA,NA,NA,NA,NA
2e46,Save data screen,canvas.Screen,2_14_0_1,NA,NA,timeout,498.875,236211,236195.081,236215.262,236697.526,236699.39999998,2023-04-18T07:54:23Z,236714.137,Fleisch,mshakiki,s,kizunguzungu,mshikamano,angusho,NA,NA,0,"c(""distractor1"", ""distractor2"", ""distractor3"")",NA,NA,NA,NA,NA,NA,NA,NA,NA,NA,NA,NA,NA,NA,NA,NA,NA,NA,NA
2e46,shallow,flow.Sequence,2_14_0,NA,NA,completion,4222.211,232460.5,232458.918,232475.315,236697.526,236699.69999999,2023-04-18T07:54:23Z,236714.137,Fleisch,mshakiki,s,kizunguzungu,mshikamano,angusho,NA,NA,NA,"c(""distractor1"", ""distractor2"", ""distractor3"")",NA,NA,NA,NA,NA,NA,NA,NA,NA,NA,NA,NA,NA,NA,NA,NA,NA,NA,NA
2e46,task,flow.Sequence,2_14,NA,NA,completion,4222.211,232460.39999998,232458.918,232475.315,236697.526,236699.89999998,2023-04-18T07:54:23Z,236714.137,Fleisch,mshakiki,s,kizunguzungu,mshikamano,angusho,NA,NA,NA,"c(""distractor1"", ""distractor2"", ""distractor3"")",NA,NA,NA,NA,NA,NA,NA,NA,NA,NA,NA,NA,NA,NA,NA,NA,NA,NA,NA
2e46,Shallow Question,html.Page,2_15_0_0,NA,NA,form submission,7063.6629999821,236700,236697.526,236714.137,243777.79999998,243778,2023-04-18T07:54:30Z,243784.535,Betrüger,mdanganyifu,d,mwanamuziki,wastani,mahakama,mwanamuziki,NA,NA,"c(""distractor1"", ""distractor2"", ""distractor3"")",NA,NA,NA,NA,NA,NA,NA,NA,NA,NA,NA,NA,NA,NA,NA,NA,NA,NA,NA
2e46,Save data screen,canvas.Screen,2_15_0_1,NA,NA,timeout,492.823,243780,243774.826,243784.535,244260.94,244262.29999998,2023-04-18T07:54:31Z,244277.358,Betrüger,mdanganyifu,d,mwanamuziki,wastani,mahakama,NA,NA,0,"c(""distractor1"", ""distractor2"", ""distractor3"")",NA,NA,NA,NA,NA,NA,NA,NA,NA,NA,NA,NA,NA,NA,NA,NA,NA,NA,NA
2e46,shallow,flow.Sequence,2_15_0,NA,NA,completion,7546.803,236700,236697.526,236714.137,244260.94,244262.59999999,2023-04-18T07:54:31Z,244277.358,Betrüger,mdanganyifu,d,mwanamuziki,wastani,mahakama,NA,NA,NA,"c(""distractor1"", ""distractor2"", ""distractor3"")",NA,NA,NA,NA,NA,NA,NA,NA,NA,NA,NA,NA,NA,NA,NA,NA,NA,NA,NA
2e46,task,flow.Sequence,2_15,NA,NA,completion,7546.803,236700,236697.526,236714.137,244260.94,244262.79999998,2023-04-18T07:54:31Z,244277.358,Betrüger,mdanganyifu,d,mwanamuziki,wastani,mahakama,NA,NA,NA,"c(""distractor1"", ""distractor2"", ""distractor3"")",NA,NA,NA,NA,NA,NA,NA,NA,NA,NA,NA,NA,NA,NA,NA,NA,NA,NA,NA
2e46,retrieval block 2 (multiple choice),flow.Loop,2,NA,NA,completion,95377.951,148868.39999998,148866.495,148882.989,244260.94,244262.89999998,2023-04-18T07:54:31Z,244277.358,NA,NA,NA,NA,NA,NA,NA,NA,NA,"c(""distractor1"", ""distractor2"", ""distractor3"")",NA,NA,NA,NA,NA,NA,NA,NA,NA,NA,NA,NA,NA,NA,NA,NA,NA,NA,NA
2e46,End,canvas.Screen,3,NA,keypress(Space),response,1249.4419999821,244263,244260.94,244277.358,245526.79999998,245528.19999999,2023-04-18T07:54:32Z,245556.679,NA,NA,NA,NA,NA,NA,NA,NA,NA,NULL,NA,NA,NA,NA,NA,NA,NA,NA,NA,NA,NA,NA,NA,NA,NA,NA,NA,NA,NA
2e46,root,flow.Sequence,NA,NA,NA,completion,244214.11199998,1274.3999999762,996.097,1312.688,245526.79999998,245529,2023-04-18T07:54:32Z,245556.679,NA,NA,NA,NA,NA,NA,NA,NA,NA,NULL,NA,NA,NA,NA,NA,NA,NA,NA,NA,NA,NA,NA,NA,NA,NA,NA,NA,NA,NA
