observation,sender,sender_type,sender_id,response,response_action,ended_on,duration,time_run,time_render,time_show,time_end,time_commit,timestamp,time_switch,german,swahili,enc,distractor1,distractor2,distractor3,response_2,x,correct,distractors,url_vp,url_sess,meta_labjs_version,meta_location,meta_user_agent,meta_platform,meta_language,meta_locale,meta_time_zone,meta_timezone_offset,meta_screen_width,meta_screen_height,meta_scroll_width,meta_scroll_height,meta_window_inner_width,meta_window_inner_height,meta_device_pixel_ratio,meta_labjs_build_flavor,meta_labjs_build_commit
d9ca7,Introduction delayed retrieval,canvas.Screen,0,weiter,keypress(Space),response,12136,727,751,763,12887,12888,2023-10-04T08:40:00Z,12916,NA,NA,NA,NA,NA,NA,NA,NA,NA,NULL,185,2,20.2.4,https://neurocog.fernuni.ch/studies/vweber/sliechti/delayed/index.html?vp=185&sess=2,"Mozilla/5.0 (Macintosh; Intel Mac OS X 10_15_7) AppleWebKit/605.1.15 (KHTML, like Gecko) Version/14.1.2 Safari/605.1.15",MacIntel,de-de,de-DE,Europe/London,-60,1440,900,1112,556,1112,604,2,production,f5b4a49f956347addd546a832a3327688c2c0fef
d9ca7,Deep Question,html.Page,1_0_0_0,NA,NA,form submission,8038,12889,12905,12916,20954,20954,2023-10-04T08:40:08Z,20984,Vermutung,udhanifu,d,haramia,tikisho,itifaki,safovjwekr,NA,NA,NULL,NA,NA,NA,NA,NA,NA,NA,NA,NA,NA,NA,NA,NA,NA,NA,NA,NA,NA,NA
d9ca7,Save data screen,canvas.Screen,1_0_0_1,NA,NA,timeout,500,20955,20967,20984,21467,21469,2023-10-04T08:40:08Z,21484,Vermutung,udhanifu,d,haramia,tikisho,itifaki,NA,NA,0,NULL,NA,NA,NA,NA,NA,NA,NA,NA,NA,NA,NA,NA,NA,NA,NA,NA,NA,NA,NA
d9ca7,deep,flow.Sequence,1_0_0,NA,NA,completion,8551,12888,12905,12916,21467,21469,2023-10-04T08:40:08Z,21484,Vermutung,udhanifu,d,haramia,tikisho,itifaki,NA,NA,NA,NULL,NA,NA,NA,NA,NA,NA,NA,NA,NA,NA,NA,NA,NA,NA,NA,NA,NA,NA,NA
d9ca7,task,flow.Sequence,1_0,NA,NA,completion,8551,12888,12905,12916,21467,21469,2023-10-04T08:40:08Z,21484,Vermutung,udhanifu,d,haramia,tikisho,itifaki,NA,NA,NA,NULL,NA,NA,NA,NA,NA,NA,NA,NA,NA,NA,NA,NA,NA,NA,NA,NA,NA,NA,NA
d9ca7,Deep Question,html.Page,1_1_0_0,NA,NA,form submission,4242,21470,21467,21484,25726,25726,2023-10-04T08:40:12Z,25751,Verpackung,ufungaji,d,uhusiano,upimaji,uchunguzi,weofjeive,NA,NA,NULL,NA,NA,NA,NA,NA,NA,NA,NA,NA,NA,NA,NA,NA,NA,NA,NA,NA,NA,NA
d9ca7,Save data screen,canvas.Screen,1_1_0_1,NA,NA,timeout,500,25727,25734,25751,26234,26235,2023-10-04T08:40:13Z,26251,Verpackung,ufungaji,d,uhusiano,upimaji,uchunguzi,NA,NA,0,NULL,NA,NA,NA,NA,NA,NA,NA,NA,NA,NA,NA,NA,NA,NA,NA,NA,NA,NA,NA
d9ca7,deep,flow.Sequence,1_1_0,NA,NA,completion,4750,21470,21467,21484,26234,26237,2023-10-04T08:40:13Z,26251,Verpackung,ufungaji,d,uhusiano,upimaji,uchunguzi,NA,NA,NA,NULL,NA,NA,NA,NA,NA,NA,NA,NA,NA,NA,NA,NA,NA,NA,NA,NA,NA,NA,NA
d9ca7,task,flow.Sequence,1_1,NA,NA,completion,4750,21470,21467,21484,26234,26237,2023-10-04T08:40:13Z,26251,Verpackung,ufungaji,d,uhusiano,upimaji,uchunguzi,NA,NA,NA,NULL,NA,NA,NA,NA,NA,NA,NA,NA,NA,NA,NA,NA,NA,NA,NA,NA,NA,NA,NA
d9ca7,Deep Question,html.Page,1_2_0_0,NA,NA,form submission,4016,26238,26234,26251,30267,30267,2023-10-04T08:40:17Z,30284,Tester,wanaojaribu,d,sherti,sihiri,mlipuko,vomeifwoe,NA,NA,NULL,NA,NA,NA,NA,NA,NA,NA,NA,NA,NA,NA,NA,NA,NA,NA,NA,NA,NA,NA
d9ca7,Save data screen,canvas.Screen,1_2_0_1,NA,NA,timeout,500,30268,30269,30284,30768,30769,2023-10-04T08:40:17Z,30784,Tester,wanaojaribu,d,sherti,sihiri,mlipuko,NA,NA,0,NULL,NA,NA,NA,NA,NA,NA,NA,NA,NA,NA,NA,NA,NA,NA,NA,NA,NA,NA,NA
d9ca7,deep,flow.Sequence,1_2_0,NA,NA,completion,4517,26238,26234,26251,30768,30769,2023-10-04T08:40:17Z,30784,Tester,wanaojaribu,d,sherti,sihiri,mlipuko,NA,NA,NA,NULL,NA,NA,NA,NA,NA,NA,NA,NA,NA,NA,NA,NA,NA,NA,NA,NA,NA,NA,NA
d9ca7,task,flow.Sequence,1_2,NA,NA,completion,4517,26238,26234,26251,30768,30770,2023-10-04T08:40:17Z,30784,Tester,wanaojaribu,d,sherti,sihiri,mlipuko,NA,NA,NA,NULL,NA,NA,NA,NA,NA,NA,NA,NA,NA,NA,NA,NA,NA,NA,NA,NA,NA,NA,NA
d9ca7,Deep Question,html.Page,1_3_0_0,NA,NA,form submission,22340,30770,30768,30784,53124,53125,2023-10-04T08:40:40Z,53135,Fenster,dirisha,s,walakini,tasawari,maarifa,ahahre,NA,NA,NULL,NA,NA,NA,NA,NA,NA,NA,NA,NA,NA,NA,NA,NA,NA,NA,NA,NA,NA,NA
d9ca7,Save data screen,canvas.Screen,1_3_0_1,NA,NA,timeout,498,53127,53131,53135,53617,53619,2023-10-04T08:40:40Z,53633,Fenster,dirisha,s,walakini,tasawari,maarifa,NA,NA,0,NULL,NA,NA,NA,NA,NA,NA,NA,NA,NA,NA,NA,NA,NA,NA,NA,NA,NA,NA,NA
d9ca7,deep,flow.Sequence,1_3_0,NA,NA,completion,22833,30770,30768,30784,53617,53620,2023-10-04T08:40:40Z,53633,Fenster,dirisha,s,walakini,tasawari,maarifa,NA,NA,NA,NULL,NA,NA,NA,NA,NA,NA,NA,NA,NA,NA,NA,NA,NA,NA,NA,NA,NA,NA,NA
d9ca7,task,flow.Sequence,1_3,NA,NA,completion,22833,30770,30768,30784,53617,53620,2023-10-04T08:40:40Z,53633,Fenster,dirisha,s,walakini,tasawari,maarifa,NA,NA,NA,NULL,NA,NA,NA,NA,NA,NA,NA,NA,NA,NA,NA,NA,NA,NA,NA,NA,NA,NA,NA
d9ca7,Deep Question,html.Page,1_4_0_0,NA,NA,form submission,9867,53621,53617,53633,63500,63500,2023-10-04T08:40:50Z,63517,Schüler,mwanafunzi,d,mwekezaji,matumizi,uaminifu,mwefunzi,NA,NA,NULL,NA,NA,NA,NA,NA,NA,NA,NA,NA,NA,NA,NA,NA,NA,NA,NA,NA,NA,NA
d9ca7,Save data screen,canvas.Screen,1_4_0_1,NA,NA,timeout,501,63501,63502,63517,64001,64002,2023-10-04T08:40:51Z,64018,Schüler,mwanafunzi,d,mwekezaji,matumizi,uaminifu,NA,NA,0,NULL,NA,NA,NA,NA,NA,NA,NA,NA,NA,NA,NA,NA,NA,NA,NA,NA,NA,NA,NA
d9ca7,deep,flow.Sequence,1_4_0,NA,NA,completion,10368,53621,53617,53633,64001,64003,2023-10-04T08:40:51Z,64018,Schüler,mwanafunzi,d,mwekezaji,matumizi,uaminifu,NA,NA,NA,NULL,NA,NA,NA,NA,NA,NA,NA,NA,NA,NA,NA,NA,NA,NA,NA,NA,NA,NA,NA
d9ca7,task,flow.Sequence,1_4,NA,NA,completion,10368,53621,53617,53633,64001,64003,2023-10-04T08:40:51Z,64018,Schüler,mwanafunzi,d,mwekezaji,matumizi,uaminifu,NA,NA,NA,NULL,NA,NA,NA,NA,NA,NA,NA,NA,NA,NA,NA,NA,NA,NA,NA,NA,NA,NA,NA
d9ca7,Deep Question,html.Page,1_5_0_0,NA,NA,form submission,5880,64004,64001,64018,69898,69898,2023-10-04T08:40:57Z,69917,Schlange,foleni,s,uvumilivu,uteuzi,muuzaji,foleni,NA,NA,NULL,NA,NA,NA,NA,NA,NA,NA,NA,NA,NA,NA,NA,NA,NA,NA,NA,NA,NA,NA
d9ca7,Save data screen,canvas.Screen,1_5_0_1,NA,NA,timeout,500,69899,69900,69917,70400,70401,2023-10-04T08:40:57Z,70417,Schlange,foleni,s,uvumilivu,uteuzi,muuzaji,NA,NA,1,NULL,NA,NA,NA,NA,NA,NA,NA,NA,NA,NA,NA,NA,NA,NA,NA,NA,NA,NA,NA
d9ca7,deep,flow.Sequence,1_5_0,NA,NA,completion,6382,64004,64001,64018,70400,70402,2023-10-04T08:40:57Z,70417,Schlange,foleni,s,uvumilivu,uteuzi,muuzaji,NA,NA,NA,NULL,NA,NA,NA,NA,NA,NA,NA,NA,NA,NA,NA,NA,NA,NA,NA,NA,NA,NA,NA
d9ca7,task,flow.Sequence,1_5,NA,NA,completion,6382,64004,64001,64018,70400,70402,2023-10-04T08:40:57Z,70417,Schlange,foleni,s,uvumilivu,uteuzi,muuzaji,NA,NA,NA,NULL,NA,NA,NA,NA,NA,NA,NA,NA,NA,NA,NA,NA,NA,NA,NA,NA,NA,NA,NA
d9ca7,Deep Question,html.Page,1_6_0_0,NA,NA,form submission,4320,70403,70400,70417,74737,74737,2023-10-04T08:41:01Z,74766,Theorie,nadharia,s,ushungi,mkutano,uwakilishi,foaweirje,NA,NA,NULL,NA,NA,NA,NA,NA,NA,NA,NA,NA,NA,NA,NA,NA,NA,NA,NA,NA,NA,NA
d9ca7,Save data screen,canvas.Screen,1_6_0_1,NA,NA,timeout,501,74740,74750,74766,75250,75252,2023-10-04T08:41:02Z,75267,Theorie,nadharia,s,ushungi,mkutano,uwakilishi,NA,NA,0,NULL,NA,NA,NA,NA,NA,NA,NA,NA,NA,NA,NA,NA,NA,NA,NA,NA,NA,NA,NA
d9ca7,deep,flow.Sequence,1_6_0,NA,NA,completion,4833,70403,70400,70417,75250,75253,2023-10-04T08:41:02Z,75267,Theorie,nadharia,s,ushungi,mkutano,uwakilishi,NA,NA,NA,NULL,NA,NA,NA,NA,NA,NA,NA,NA,NA,NA,NA,NA,NA,NA,NA,NA,NA,NA,NA
d9ca7,task,flow.Sequence,1_6,NA,NA,completion,4833,70403,70400,70417,75250,75253,2023-10-04T08:41:02Z,75267,Theorie,nadharia,s,ushungi,mkutano,uwakilishi,NA,NA,NA,NULL,NA,NA,NA,NA,NA,NA,NA,NA,NA,NA,NA,NA,NA,NA,NA,NA,NA,NA,NA
d9ca7,Deep Question,html.Page,1_7_0_0,NA,NA,form submission,4409,75254,75250,75267,79676,79676,2023-10-04T08:41:06Z,79700,Schock,mshtuko,s,biashara,kukataza,vichekesho,sofwejifew,NA,NA,NULL,NA,NA,NA,NA,NA,NA,NA,NA,NA,NA,NA,NA,NA,NA,NA,NA,NA,NA,NA
d9ca7,Save data screen,canvas.Screen,1_7_0_1,NA,NA,timeout,500,79677,79684,79700,80184,80184,2023-10-04T08:41:07Z,80200,Schock,mshtuko,s,biashara,kukataza,vichekesho,NA,NA,0,NULL,NA,NA,NA,NA,NA,NA,NA,NA,NA,NA,NA,NA,NA,NA,NA,NA,NA,NA,NA
d9ca7,deep,flow.Sequence,1_7_0,NA,NA,completion,4917,75254,75250,75267,80184,80185,2023-10-04T08:41:07Z,80200,Schock,mshtuko,s,biashara,kukataza,vichekesho,NA,NA,NA,NULL,NA,NA,NA,NA,NA,NA,NA,NA,NA,NA,NA,NA,NA,NA,NA,NA,NA,NA,NA
d9ca7,task,flow.Sequence,1_7,NA,NA,completion,4917,75254,75250,75267,80184,80185,2023-10-04T08:41:07Z,80200,Schock,mshtuko,s,biashara,kukataza,vichekesho,NA,NA,NA,NULL,NA,NA,NA,NA,NA,NA,NA,NA,NA,NA,NA,NA,NA,NA,NA,NA,NA,NA,NA
d9ca7,Deep Question,html.Page,1_8_0_0,NA,NA,form submission,4135,80186,80184,80200,84335,84335,2023-10-04T08:41:11Z,84367,Ergänzung,kijalizo,s,ulaghai,mustarehe,matangazo,mjweiroew,NA,NA,NULL,NA,NA,NA,NA,NA,NA,NA,NA,NA,NA,NA,NA,NA,NA,NA,NA,NA,NA,NA
d9ca7,Save data screen,canvas.Screen,1_8_0_1,NA,NA,timeout,500,84336,84350,84367,84850,84854,2023-10-04T08:41:12Z,84867,Ergänzung,kijalizo,s,ulaghai,mustarehe,matangazo,NA,NA,0,NULL,NA,NA,NA,NA,NA,NA,NA,NA,NA,NA,NA,NA,NA,NA,NA,NA,NA,NA,NA
d9ca7,deep,flow.Sequence,1_8_0,NA,NA,completion,4650,80186,80184,80200,84850,84855,2023-10-04T08:41:12Z,84867,Ergänzung,kijalizo,s,ulaghai,mustarehe,matangazo,NA,NA,NA,NULL,NA,NA,NA,NA,NA,NA,NA,NA,NA,NA,NA,NA,NA,NA,NA,NA,NA,NA,NA
d9ca7,task,flow.Sequence,1_8,NA,NA,completion,4650,80186,80184,80200,84850,84855,2023-10-04T08:41:12Z,84867,Ergänzung,kijalizo,s,ulaghai,mustarehe,matangazo,NA,NA,NA,NULL,NA,NA,NA,NA,NA,NA,NA,NA,NA,NA,NA,NA,NA,NA,NA,NA,NA,NA,NA
d9ca7,Deep Question,html.Page,1_9_0_0,NA,NA,form submission,3067,84856,84850,84867,87934,87935,2023-10-04T08:41:15Z,87967,Inhalt,yaliyomo,d,kishawishi,hifadhi,kutembea,asopifjwe,NA,NA,NULL,NA,NA,NA,NA,NA,NA,NA,NA,NA,NA,NA,NA,NA,NA,NA,NA,NA,NA,NA
d9ca7,Save data screen,canvas.Screen,1_9_0_1,NA,NA,timeout,500,87935,87950,87967,88449,88450,2023-10-04T08:41:15Z,88467,Inhalt,yaliyomo,d,kishawishi,hifadhi,kutembea,NA,NA,0,NULL,NA,NA,NA,NA,NA,NA,NA,NA,NA,NA,NA,NA,NA,NA,NA,NA,NA,NA,NA
d9ca7,deep,flow.Sequence,1_9_0,NA,NA,completion,3582,84856,84850,84867,88449,88450,2023-10-04T08:41:15Z,88467,Inhalt,yaliyomo,d,kishawishi,hifadhi,kutembea,NA,NA,NA,NULL,NA,NA,NA,NA,NA,NA,NA,NA,NA,NA,NA,NA,NA,NA,NA,NA,NA,NA,NA
d9ca7,task,flow.Sequence,1_9,NA,NA,completion,3582,84855,84850,84867,88449,88451,2023-10-04T08:41:15Z,88467,Inhalt,yaliyomo,d,kishawishi,hifadhi,kutembea,NA,NA,NA,NULL,NA,NA,NA,NA,NA,NA,NA,NA,NA,NA,NA,NA,NA,NA,NA,NA,NA,NA,NA
d9ca7,Deep Question,html.Page,1_10_0_0,NA,NA,form submission,2746,88451,88449,88467,91213,91213,2023-10-04T08:41:18Z,91234,Notfall,dharura,d,rairai,malalamiko,ahueni,sos,NA,NA,NULL,NA,NA,NA,NA,NA,NA,NA,NA,NA,NA,NA,NA,NA,NA,NA,NA,NA,NA,NA
d9ca7,Save data screen,canvas.Screen,1_10_0_1,NA,NA,timeout,500,91215,91220,91234,91717,91718,2023-10-04T08:41:18Z,91734,Notfall,dharura,d,rairai,malalamiko,ahueni,NA,NA,0,NULL,NA,NA,NA,NA,NA,NA,NA,NA,NA,NA,NA,NA,NA,NA,NA,NA,NA,NA,NA
d9ca7,deep,flow.Sequence,1_10_0,NA,NA,completion,3250,88451,88449,88467,91717,91719,2023-10-04T08:41:18Z,91734,Notfall,dharura,d,rairai,malalamiko,ahueni,NA,NA,NA,NULL,NA,NA,NA,NA,NA,NA,NA,NA,NA,NA,NA,NA,NA,NA,NA,NA,NA,NA,NA
d9ca7,task,flow.Sequence,1_10,NA,NA,completion,3250,88451,88449,88467,91717,91719,2023-10-04T08:41:18Z,91734,Notfall,dharura,d,rairai,malalamiko,ahueni,NA,NA,NA,NULL,NA,NA,NA,NA,NA,NA,NA,NA,NA,NA,NA,NA,NA,NA,NA,NA,NA,NA,NA
d9ca7,Deep Question,html.Page,1_11_0_0,NA,NA,form submission,2617,91720,91717,91734,94351,94352,2023-10-04T08:41:21Z,94383,Hoffnung,matarajio,d,kutaalamika,uratibu,mvumbuzi,oapiwejrwer,NA,NA,NULL,NA,NA,NA,NA,NA,NA,NA,NA,NA,NA,NA,NA,NA,NA,NA,NA,NA,NA,NA
d9ca7,Save data screen,canvas.Screen,1_11_0_1,NA,NA,timeout,501,94353,94367,94383,94867,94868,2023-10-04T08:41:22Z,94884,Hoffnung,matarajio,d,kutaalamika,uratibu,mvumbuzi,NA,NA,0,NULL,NA,NA,NA,NA,NA,NA,NA,NA,NA,NA,NA,NA,NA,NA,NA,NA,NA,NA,NA
d9ca7,deep,flow.Sequence,1_11_0,NA,NA,completion,3133,91720,91717,91734,94867,94869,2023-10-04T08:41:22Z,94884,Hoffnung,matarajio,d,kutaalamika,uratibu,mvumbuzi,NA,NA,NA,NULL,NA,NA,NA,NA,NA,NA,NA,NA,NA,NA,NA,NA,NA,NA,NA,NA,NA,NA,NA
d9ca7,task,flow.Sequence,1_11,NA,NA,completion,3133,91720,91717,91734,94867,94869,2023-10-04T08:41:22Z,94884,Hoffnung,matarajio,d,kutaalamika,uratibu,mvumbuzi,NA,NA,NA,NULL,NA,NA,NA,NA,NA,NA,NA,NA,NA,NA,NA,NA,NA,NA,NA,NA,NA,NA,NA
d9ca7,Deep Question,html.Page,1_12_0_0,NA,NA,form submission,3282,94870,94867,94884,98166,98167,2023-10-04T08:41:25Z,98184,Spionage,upelelezi,s,maslahi,utokazo,magangao,paiowernfiowe,NA,NA,NULL,NA,NA,NA,NA,NA,NA,NA,NA,NA,NA,NA,NA,NA,NA,NA,NA,NA,NA,NA
d9ca7,Save data screen,canvas.Screen,1_12_0_1,NA,NA,timeout,500,98168,98172,98184,98667,98668,2023-10-04T08:41:25Z,98684,Spionage,upelelezi,s,maslahi,utokazo,magangao,NA,NA,0,NULL,NA,NA,NA,NA,NA,NA,NA,NA,NA,NA,NA,NA,NA,NA,NA,NA,NA,NA,NA
d9ca7,deep,flow.Sequence,1_12_0,NA,NA,completion,3783,94870,94867,94884,98667,98669,2023-10-04T08:41:25Z,98684,Spionage,upelelezi,s,maslahi,utokazo,magangao,NA,NA,NA,NULL,NA,NA,NA,NA,NA,NA,NA,NA,NA,NA,NA,NA,NA,NA,NA,NA,NA,NA,NA
d9ca7,task,flow.Sequence,1_12,NA,NA,completion,3783,94869,94867,94884,98667,98670,2023-10-04T08:41:25Z,98684,Spionage,upelelezi,s,maslahi,utokazo,magangao,NA,NA,NA,NULL,NA,NA,NA,NA,NA,NA,NA,NA,NA,NA,NA,NA,NA,NA,NA,NA,NA,NA,NA
d9ca7,Deep Question,html.Page,1_13_0_0,NA,NA,form submission,4034,98670,98667,98684,102718,102718,2023-10-04T08:41:29Z,102750,Wohlstand,mafanikio,s,chimbuko,kumbuko,mapwaji,voweirjwer,NA,NA,NULL,NA,NA,NA,NA,NA,NA,NA,NA,NA,NA,NA,NA,NA,NA,NA,NA,NA,NA,NA
d9ca7,Save data screen,canvas.Screen,1_13_0_1,NA,NA,timeout,500,102719,102733,102750,103233,103235,2023-10-04T08:41:30Z,103250,Wohlstand,mafanikio,s,chimbuko,kumbuko,mapwaji,NA,NA,0,NULL,NA,NA,NA,NA,NA,NA,NA,NA,NA,NA,NA,NA,NA,NA,NA,NA,NA,NA,NA
d9ca7,deep,flow.Sequence,1_13_0,NA,NA,completion,4549,98670,98667,98684,103233,103236,2023-10-04T08:41:30Z,103250,Wohlstand,mafanikio,s,chimbuko,kumbuko,mapwaji,NA,NA,NA,NULL,NA,NA,NA,NA,NA,NA,NA,NA,NA,NA,NA,NA,NA,NA,NA,NA,NA,NA,NA
d9ca7,task,flow.Sequence,1_13,NA,NA,completion,4549,98670,98667,98684,103233,103236,2023-10-04T08:41:30Z,103250,Wohlstand,mafanikio,s,chimbuko,kumbuko,mapwaji,NA,NA,NA,NULL,NA,NA,NA,NA,NA,NA,NA,NA,NA,NA,NA,NA,NA,NA,NA,NA,NA,NA,NA
d9ca7,Deep Question,html.Page,1_14_0_0,NA,NA,form submission,20422,103237,103233,103250,123672,123672,2023-10-04T08:41:50Z,123700,Toleranz,kuvumiliana,s,maombolezo,ujasusi,mchekeshaji,kubaWÖEORI,NA,NA,NULL,NA,NA,NA,NA,NA,NA,NA,NA,NA,NA,NA,NA,NA,NA,NA,NA,NA,NA,NA
d9ca7,Save data screen,canvas.Screen,1_14_0_1,NA,NA,timeout,500,123673,123683,123700,124183,124184,2023-10-04T08:41:51Z,124200,Toleranz,kuvumiliana,s,maombolezo,ujasusi,mchekeshaji,NA,NA,0,NULL,NA,NA,NA,NA,NA,NA,NA,NA,NA,NA,NA,NA,NA,NA,NA,NA,NA,NA,NA
d9ca7,deep,flow.Sequence,1_14_0,NA,NA,completion,20933,103237,103233,103250,124183,124185,2023-10-04T08:41:51Z,124200,Toleranz,kuvumiliana,s,maombolezo,ujasusi,mchekeshaji,NA,NA,NA,NULL,NA,NA,NA,NA,NA,NA,NA,NA,NA,NA,NA,NA,NA,NA,NA,NA,NA,NA,NA
d9ca7,task,flow.Sequence,1_14,NA,NA,completion,20933,103237,103233,103250,124183,124185,2023-10-04T08:41:51Z,124200,Toleranz,kuvumiliana,s,maombolezo,ujasusi,mchekeshaji,NA,NA,NA,NULL,NA,NA,NA,NA,NA,NA,NA,NA,NA,NA,NA,NA,NA,NA,NA,NA,NA,NA,NA
d9ca7,Deep Question,html.Page,1_15_0_0,NA,NA,form submission,7215,124186,124183,124200,131415,131415,2023-10-04T08:41:58Z,131433,Vergnügen,kichekesho,d,dubwana,mpanuko,mtesaji,chmiwoirerw,NA,NA,NULL,NA,NA,NA,NA,NA,NA,NA,NA,NA,NA,NA,NA,NA,NA,NA,NA,NA,NA,NA
d9ca7,Save data screen,canvas.Screen,1_15_0_1,NA,NA,timeout,509,131417,131418,131433,131917,131918,2023-10-04T08:41:59Z,131942,Vergnügen,kichekesho,d,dubwana,mpanuko,mtesaji,NA,NA,0,NULL,NA,NA,NA,NA,NA,NA,NA,NA,NA,NA,NA,NA,NA,NA,NA,NA,NA,NA,NA
d9ca7,deep,flow.Sequence,1_15_0,NA,NA,completion,7717,124186,124183,124200,131917,131918,2023-10-04T08:41:59Z,131942,Vergnügen,kichekesho,d,dubwana,mpanuko,mtesaji,NA,NA,NA,NULL,NA,NA,NA,NA,NA,NA,NA,NA,NA,NA,NA,NA,NA,NA,NA,NA,NA,NA,NA
d9ca7,task,flow.Sequence,1_15,NA,NA,completion,7717,124186,124183,124200,131917,131919,2023-10-04T08:41:59Z,131942,Vergnügen,kichekesho,d,dubwana,mpanuko,mtesaji,NA,NA,NA,NULL,NA,NA,NA,NA,NA,NA,NA,NA,NA,NA,NA,NA,NA,NA,NA,NA,NA,NA,NA
d9ca7,retrieval block 1 (cued recall),flow.Loop,1,NA,NA,completion,119001,12888,12905,12916,131917,131920,2023-10-04T08:41:59Z,131942,NA,NA,NA,NA,NA,NA,NA,NA,NA,NULL,NA,NA,NA,NA,NA,NA,NA,NA,NA,NA,NA,NA,NA,NA,NA,NA,NA,NA,NA
d9ca7,Shallow Question,html.Page,2_0_0_0,NA,NA,form submission,9212,131920,131917,131942,141154,141155,2023-10-04T08:42:08Z,141182,Vergnügen,kichekesho,d,dubwana,mpanuko,mtesaji,kichekesho,NA,NA,"c(""distractor1"", ""distractor2"", ""distractor3"")",NA,NA,NA,NA,NA,NA,NA,NA,NA,NA,NA,NA,NA,NA,NA,NA,NA,NA,NA
d9ca7,Save data screen,canvas.Screen,2_0_0_1,NA,NA,timeout,501,141156,141167,141182,141666,141666,2023-10-04T08:42:08Z,141683,Vergnügen,kichekesho,d,dubwana,mpanuko,mtesaji,NA,NA,1,"c(""distractor1"", ""distractor2"", ""distractor3"")",NA,NA,NA,NA,NA,NA,NA,NA,NA,NA,NA,NA,NA,NA,NA,NA,NA,NA,NA
d9ca7,shallow,flow.Sequence,2_0_0,NA,NA,completion,9724,131920,131917,131942,141666,141667,2023-10-04T08:42:08Z,141683,Vergnügen,kichekesho,d,dubwana,mpanuko,mtesaji,NA,NA,NA,"c(""distractor1"", ""distractor2"", ""distractor3"")",NA,NA,NA,NA,NA,NA,NA,NA,NA,NA,NA,NA,NA,NA,NA,NA,NA,NA,NA
d9ca7,task,flow.Sequence,2_0,NA,NA,completion,9724,131920,131917,131942,141666,141668,2023-10-04T08:42:08Z,141683,Vergnügen,kichekesho,d,dubwana,mpanuko,mtesaji,NA,NA,NA,"c(""distractor1"", ""distractor2"", ""distractor3"")",NA,NA,NA,NA,NA,NA,NA,NA,NA,NA,NA,NA,NA,NA,NA,NA,NA,NA,NA
d9ca7,Shallow Question,html.Page,2_1_0_0,NA,NA,form submission,5096,141668,141666,141683,146779,146780,2023-10-04T08:42:13Z,146800,Vermutung,udhanifu,d,haramia,tikisho,itifaki,itifaki,NA,NA,"c(""distractor1"", ""distractor2"", ""distractor3"")",NA,NA,NA,NA,NA,NA,NA,NA,NA,NA,NA,NA,NA,NA,NA,NA,NA,NA,NA
d9ca7,Save data screen,canvas.Screen,2_1_0_1,NA,NA,timeout,499,146782,146783,146800,147283,147284,2023-10-04T08:42:14Z,147299,Vermutung,udhanifu,d,haramia,tikisho,itifaki,NA,NA,0,"c(""distractor1"", ""distractor2"", ""distractor3"")",NA,NA,NA,NA,NA,NA,NA,NA,NA,NA,NA,NA,NA,NA,NA,NA,NA,NA,NA
d9ca7,shallow,flow.Sequence,2_1_0,NA,NA,completion,5600,141668,141666,141683,147283,147285,2023-10-04T08:42:14Z,147299,Vermutung,udhanifu,d,haramia,tikisho,itifaki,NA,NA,NA,"c(""distractor1"", ""distractor2"", ""distractor3"")",NA,NA,NA,NA,NA,NA,NA,NA,NA,NA,NA,NA,NA,NA,NA,NA,NA,NA,NA
d9ca7,task,flow.Sequence,2_1,NA,NA,completion,5600,141668,141666,141683,147283,147286,2023-10-04T08:42:14Z,147299,Vermutung,udhanifu,d,haramia,tikisho,itifaki,NA,NA,NA,"c(""distractor1"", ""distractor2"", ""distractor3"")",NA,NA,NA,NA,NA,NA,NA,NA,NA,NA,NA,NA,NA,NA,NA,NA,NA,NA,NA
d9ca7,Shallow Question,html.Page,2_2_0_0,NA,NA,form submission,5112,147286,147283,147299,152411,152411,2023-10-04T08:42:19Z,152433,Theorie,nadharia,s,ushungi,mkutano,uwakilishi,nadharia,NA,NA,"c(""distractor1"", ""distractor2"", ""distractor3"")",NA,NA,NA,NA,NA,NA,NA,NA,NA,NA,NA,NA,NA,NA,NA,NA,NA,NA,NA
d9ca7,Save data screen,canvas.Screen,2_2_0_1,NA,NA,timeout,500,152412,152417,152433,152917,152918,2023-10-04T08:42:20Z,152933,Theorie,nadharia,s,ushungi,mkutano,uwakilishi,NA,NA,1,"c(""distractor1"", ""distractor2"", ""distractor3"")",NA,NA,NA,NA,NA,NA,NA,NA,NA,NA,NA,NA,NA,NA,NA,NA,NA,NA,NA
d9ca7,shallow,flow.Sequence,2_2_0,NA,NA,completion,5618,147286,147283,147299,152917,152918,2023-10-04T08:42:20Z,152933,Theorie,nadharia,s,ushungi,mkutano,uwakilishi,NA,NA,NA,"c(""distractor1"", ""distractor2"", ""distractor3"")",NA,NA,NA,NA,NA,NA,NA,NA,NA,NA,NA,NA,NA,NA,NA,NA,NA,NA,NA
d9ca7,task,flow.Sequence,2_2,NA,NA,completion,5618,147286,147283,147299,152917,152919,2023-10-04T08:42:20Z,152933,Theorie,nadharia,s,ushungi,mkutano,uwakilishi,NA,NA,NA,"c(""distractor1"", ""distractor2"", ""distractor3"")",NA,NA,NA,NA,NA,NA,NA,NA,NA,NA,NA,NA,NA,NA,NA,NA,NA,NA,NA
d9ca7,Shallow Question,html.Page,2_3_0_0,NA,NA,form submission,4110,152919,152917,152933,157043,157044,2023-10-04T08:42:24Z,157067,Inhalt,yaliyomo,d,kishawishi,hifadhi,kutembea,kishawishi,NA,NA,"c(""distractor1"", ""distractor2"", ""distractor3"")",NA,NA,NA,NA,NA,NA,NA,NA,NA,NA,NA,NA,NA,NA,NA,NA,NA,NA,NA
d9ca7,Save data screen,canvas.Screen,2_3_0_1,NA,NA,timeout,499,157045,157050,157067,157549,157550,2023-10-04T08:42:24Z,157566,Inhalt,yaliyomo,d,kishawishi,hifadhi,kutembea,NA,NA,0,"c(""distractor1"", ""distractor2"", ""distractor3"")",NA,NA,NA,NA,NA,NA,NA,NA,NA,NA,NA,NA,NA,NA,NA,NA,NA,NA,NA
d9ca7,shallow,flow.Sequence,2_3_0,NA,NA,completion,4616,152919,152917,152933,157549,157551,2023-10-04T08:42:24Z,157566,Inhalt,yaliyomo,d,kishawishi,hifadhi,kutembea,NA,NA,NA,"c(""distractor1"", ""distractor2"", ""distractor3"")",NA,NA,NA,NA,NA,NA,NA,NA,NA,NA,NA,NA,NA,NA,NA,NA,NA,NA,NA
d9ca7,task,flow.Sequence,2_3,NA,NA,completion,4616,152919,152917,152933,157549,157551,2023-10-04T08:42:24Z,157566,Inhalt,yaliyomo,d,kishawishi,hifadhi,kutembea,NA,NA,NA,"c(""distractor1"", ""distractor2"", ""distractor3"")",NA,NA,NA,NA,NA,NA,NA,NA,NA,NA,NA,NA,NA,NA,NA,NA,NA,NA,NA
d9ca7,Shallow Question,html.Page,2_4_0_0,NA,NA,form submission,4584,157552,157549,157566,162150,162151,2023-10-04T08:42:29Z,162167,Verpackung,ufungaji,d,uhusiano,upimaji,uchunguzi,ufungaji,NA,NA,"c(""distractor1"", ""distractor2"", ""distractor3"")",NA,NA,NA,NA,NA,NA,NA,NA,NA,NA,NA,NA,NA,NA,NA,NA,NA,NA,NA
d9ca7,Save data screen,canvas.Screen,2_4_0_1,NA,NA,timeout,499,162153,162155,162167,162650,162650,2023-10-04T08:42:29Z,162666,Verpackung,ufungaji,d,uhusiano,upimaji,uchunguzi,NA,NA,1,"c(""distractor1"", ""distractor2"", ""distractor3"")",NA,NA,NA,NA,NA,NA,NA,NA,NA,NA,NA,NA,NA,NA,NA,NA,NA,NA,NA
d9ca7,shallow,flow.Sequence,2_4_0,NA,NA,completion,5084,157552,157549,157566,162650,162651,2023-10-04T08:42:29Z,162666,Verpackung,ufungaji,d,uhusiano,upimaji,uchunguzi,NA,NA,NA,"c(""distractor1"", ""distractor2"", ""distractor3"")",NA,NA,NA,NA,NA,NA,NA,NA,NA,NA,NA,NA,NA,NA,NA,NA,NA,NA,NA
d9ca7,task,flow.Sequence,2_4,NA,NA,completion,5084,157552,157549,157566,162650,162651,2023-10-04T08:42:29Z,162666,Verpackung,ufungaji,d,uhusiano,upimaji,uchunguzi,NA,NA,NA,"c(""distractor1"", ""distractor2"", ""distractor3"")",NA,NA,NA,NA,NA,NA,NA,NA,NA,NA,NA,NA,NA,NA,NA,NA,NA,NA,NA
d9ca7,Shallow Question,html.Page,2_5_0_0,NA,NA,form submission,5299,162651,162650,162666,167965,167965,2023-10-04T08:42:35Z,167983,Ergänzung,kijalizo,s,ulaghai,mustarehe,matangazo,mustarehe,NA,NA,"c(""distractor1"", ""distractor2"", ""distractor3"")",NA,NA,NA,NA,NA,NA,NA,NA,NA,NA,NA,NA,NA,NA,NA,NA,NA,NA,NA
d9ca7,Save data screen,canvas.Screen,2_5_0_1,NA,NA,timeout,500,167967,167971,167983,168467,168468,2023-10-04T08:42:35Z,168483,Ergänzung,kijalizo,s,ulaghai,mustarehe,matangazo,NA,NA,0,"c(""distractor1"", ""distractor2"", ""distractor3"")",NA,NA,NA,NA,NA,NA,NA,NA,NA,NA,NA,NA,NA,NA,NA,NA,NA,NA,NA
d9ca7,shallow,flow.Sequence,2_5_0,NA,NA,completion,5801,162651,162650,162666,168467,168469,2023-10-04T08:42:35Z,168483,Ergänzung,kijalizo,s,ulaghai,mustarehe,matangazo,NA,NA,NA,"c(""distractor1"", ""distractor2"", ""distractor3"")",NA,NA,NA,NA,NA,NA,NA,NA,NA,NA,NA,NA,NA,NA,NA,NA,NA,NA,NA
d9ca7,task,flow.Sequence,2_5,NA,NA,completion,5801,162651,162650,162666,168467,168469,2023-10-04T08:42:35Z,168483,Ergänzung,kijalizo,s,ulaghai,mustarehe,matangazo,NA,NA,NA,"c(""distractor1"", ""distractor2"", ""distractor3"")",NA,NA,NA,NA,NA,NA,NA,NA,NA,NA,NA,NA,NA,NA,NA,NA,NA,NA,NA
d9ca7,Shallow Question,html.Page,2_6_0_0,NA,NA,form submission,3866,168470,168467,168483,172349,172349,2023-10-04T08:42:39Z,172366,Tester,wanaojaribu,d,sherti,sihiri,mlipuko,wanaojaribu,NA,NA,"c(""distractor1"", ""distractor2"", ""distractor3"")",NA,NA,NA,NA,NA,NA,NA,NA,NA,NA,NA,NA,NA,NA,NA,NA,NA,NA,NA
d9ca7,Save data screen,canvas.Screen,2_6_0_1,NA,NA,timeout,500,172350,172351,172366,172850,172851,2023-10-04T08:42:40Z,172866,Tester,wanaojaribu,d,sherti,sihiri,mlipuko,NA,NA,1,"c(""distractor1"", ""distractor2"", ""distractor3"")",NA,NA,NA,NA,NA,NA,NA,NA,NA,NA,NA,NA,NA,NA,NA,NA,NA,NA,NA
d9ca7,shallow,flow.Sequence,2_6_0,NA,NA,completion,4367,168470,168467,168483,172850,172851,2023-10-04T08:42:40Z,172866,Tester,wanaojaribu,d,sherti,sihiri,mlipuko,NA,NA,NA,"c(""distractor1"", ""distractor2"", ""distractor3"")",NA,NA,NA,NA,NA,NA,NA,NA,NA,NA,NA,NA,NA,NA,NA,NA,NA,NA,NA
d9ca7,task,flow.Sequence,2_6,NA,NA,completion,4367,168469,168467,168483,172850,172851,2023-10-04T08:42:40Z,172866,Tester,wanaojaribu,d,sherti,sihiri,mlipuko,NA,NA,NA,"c(""distractor1"", ""distractor2"", ""distractor3"")",NA,NA,NA,NA,NA,NA,NA,NA,NA,NA,NA,NA,NA,NA,NA,NA,NA,NA,NA
d9ca7,Shallow Question,html.Page,2_7_0_0,NA,NA,form submission,2792,172852,172850,172866,175658,175658,2023-10-04T08:42:42Z,175683,Schlange,foleni,s,uvumilivu,uteuzi,muuzaji,foleni,NA,NA,"c(""distractor1"", ""distractor2"", ""distractor3"")",NA,NA,NA,NA,NA,NA,NA,NA,NA,NA,NA,NA,NA,NA,NA,NA,NA,NA,NA
d9ca7,Save data screen,canvas.Screen,2_7_0_1,NA,NA,timeout,500,175658,175666,175683,176166,176167,2023-10-04T08:42:43Z,176183,Schlange,foleni,s,uvumilivu,uteuzi,muuzaji,NA,NA,1,"c(""distractor1"", ""distractor2"", ""distractor3"")",NA,NA,NA,NA,NA,NA,NA,NA,NA,NA,NA,NA,NA,NA,NA,NA,NA,NA,NA
d9ca7,shallow,flow.Sequence,2_7_0,NA,NA,completion,3300,172852,172850,172866,176166,176168,2023-10-04T08:42:43Z,176183,Schlange,foleni,s,uvumilivu,uteuzi,muuzaji,NA,NA,NA,"c(""distractor1"", ""distractor2"", ""distractor3"")",NA,NA,NA,NA,NA,NA,NA,NA,NA,NA,NA,NA,NA,NA,NA,NA,NA,NA,NA
d9ca7,task,flow.Sequence,2_7,NA,NA,completion,3300,172852,172850,172866,176166,176169,2023-10-04T08:42:43Z,176183,Schlange,foleni,s,uvumilivu,uteuzi,muuzaji,NA,NA,NA,"c(""distractor1"", ""distractor2"", ""distractor3"")",NA,NA,NA,NA,NA,NA,NA,NA,NA,NA,NA,NA,NA,NA,NA,NA,NA,NA,NA
d9ca7,Shallow Question,html.Page,2_8_0_0,NA,NA,form submission,3967,176170,176166,176183,180150,180151,2023-10-04T08:42:47Z,180166,Wohlstand,mafanikio,s,chimbuko,kumbuko,mapwaji,mafanikio,NA,NA,"c(""distractor1"", ""distractor2"", ""distractor3"")",NA,NA,NA,NA,NA,NA,NA,NA,NA,NA,NA,NA,NA,NA,NA,NA,NA,NA,NA
d9ca7,Save data screen,canvas.Screen,2_8_0_1,NA,NA,timeout,500,180152,180153,180166,180649,180651,2023-10-04T08:42:47Z,180666,Wohlstand,mafanikio,s,chimbuko,kumbuko,mapwaji,NA,NA,1,"c(""distractor1"", ""distractor2"", ""distractor3"")",NA,NA,NA,NA,NA,NA,NA,NA,NA,NA,NA,NA,NA,NA,NA,NA,NA,NA,NA
d9ca7,shallow,flow.Sequence,2_8_0,NA,NA,completion,4466,176170,176166,176183,180649,180653,2023-10-04T08:42:47Z,180666,Wohlstand,mafanikio,s,chimbuko,kumbuko,mapwaji,NA,NA,NA,"c(""distractor1"", ""distractor2"", ""distractor3"")",NA,NA,NA,NA,NA,NA,NA,NA,NA,NA,NA,NA,NA,NA,NA,NA,NA,NA,NA
d9ca7,task,flow.Sequence,2_8,NA,NA,completion,4466,176169,176166,176183,180649,180653,2023-10-04T08:42:47Z,180666,Wohlstand,mafanikio,s,chimbuko,kumbuko,mapwaji,NA,NA,NA,"c(""distractor1"", ""distractor2"", ""distractor3"")",NA,NA,NA,NA,NA,NA,NA,NA,NA,NA,NA,NA,NA,NA,NA,NA,NA,NA,NA
d9ca7,Shallow Question,html.Page,2_9_0_0,NA,NA,form submission,10794,180654,180649,180666,191460,191460,2023-10-04T08:42:58Z,191483,Schüler,mwanafunzi,d,mwekezaji,matumizi,uaminifu,mwanafunzi,NA,NA,"c(""distractor1"", ""distractor2"", ""distractor3"")",NA,NA,NA,NA,NA,NA,NA,NA,NA,NA,NA,NA,NA,NA,NA,NA,NA,NA,NA
d9ca7,Save data screen,canvas.Screen,2_9_0_1,NA,NA,timeout,500,191462,191466,191483,191966,191968,2023-10-04T08:42:59Z,191983,Schüler,mwanafunzi,d,mwekezaji,matumizi,uaminifu,NA,NA,1,"c(""distractor1"", ""distractor2"", ""distractor3"")",NA,NA,NA,NA,NA,NA,NA,NA,NA,NA,NA,NA,NA,NA,NA,NA,NA,NA,NA
d9ca7,shallow,flow.Sequence,2_9_0,NA,NA,completion,11300,180654,180649,180666,191966,191969,2023-10-04T08:42:59Z,191983,Schüler,mwanafunzi,d,mwekezaji,matumizi,uaminifu,NA,NA,NA,"c(""distractor1"", ""distractor2"", ""distractor3"")",NA,NA,NA,NA,NA,NA,NA,NA,NA,NA,NA,NA,NA,NA,NA,NA,NA,NA,NA
d9ca7,task,flow.Sequence,2_9,NA,NA,completion,11300,180654,180649,180666,191966,191970,2023-10-04T08:42:59Z,191983,Schüler,mwanafunzi,d,mwekezaji,matumizi,uaminifu,NA,NA,NA,"c(""distractor1"", ""distractor2"", ""distractor3"")",NA,NA,NA,NA,NA,NA,NA,NA,NA,NA,NA,NA,NA,NA,NA,NA,NA,NA,NA
d9ca7,Shallow Question,html.Page,2_10_0_0,NA,NA,form submission,5208,191970,191966,191983,197191,197192,2023-10-04T08:43:04Z,197216,Toleranz,kuvumiliana,s,maombolezo,ujasusi,mchekeshaji,maombolezo,NA,NA,"c(""distractor1"", ""distractor2"", ""distractor3"")",NA,NA,NA,NA,NA,NA,NA,NA,NA,NA,NA,NA,NA,NA,NA,NA,NA,NA,NA
d9ca7,Save data screen,canvas.Screen,2_10_0_1,NA,NA,timeout,500,197194,197200,197216,197700,197701,2023-10-04T08:43:04Z,197716,Toleranz,kuvumiliana,s,maombolezo,ujasusi,mchekeshaji,NA,NA,0,"c(""distractor1"", ""distractor2"", ""distractor3"")",NA,NA,NA,NA,NA,NA,NA,NA,NA,NA,NA,NA,NA,NA,NA,NA,NA,NA,NA
d9ca7,shallow,flow.Sequence,2_10_0,NA,NA,completion,5717,191970,191966,191983,197700,197702,2023-10-04T08:43:04Z,197716,Toleranz,kuvumiliana,s,maombolezo,ujasusi,mchekeshaji,NA,NA,NA,"c(""distractor1"", ""distractor2"", ""distractor3"")",NA,NA,NA,NA,NA,NA,NA,NA,NA,NA,NA,NA,NA,NA,NA,NA,NA,NA,NA
d9ca7,task,flow.Sequence,2_10,NA,NA,completion,5717,191970,191966,191983,197700,197702,2023-10-04T08:43:04Z,197716,Toleranz,kuvumiliana,s,maombolezo,ujasusi,mchekeshaji,NA,NA,NA,"c(""distractor1"", ""distractor2"", ""distractor3"")",NA,NA,NA,NA,NA,NA,NA,NA,NA,NA,NA,NA,NA,NA,NA,NA,NA,NA,NA
d9ca7,Shallow Question,html.Page,2_11_0_0,NA,NA,form submission,5987,197703,197700,197716,203703,203704,2023-10-04T08:43:10Z,203733,Notfall,dharura,d,rairai,malalamiko,ahueni,dharura,NA,NA,"c(""distractor1"", ""distractor2"", ""distractor3"")",NA,NA,NA,NA,NA,NA,NA,NA,NA,NA,NA,NA,NA,NA,NA,NA,NA,NA,NA
d9ca7,Save data screen,canvas.Screen,2_11_0_1,NA,NA,timeout,500,203706,203716,203733,204216,204218,2023-10-04T08:43:11Z,204233,Notfall,dharura,d,rairai,malalamiko,ahueni,NA,NA,1,"c(""distractor1"", ""distractor2"", ""distractor3"")",NA,NA,NA,NA,NA,NA,NA,NA,NA,NA,NA,NA,NA,NA,NA,NA,NA,NA,NA
d9ca7,shallow,flow.Sequence,2_11_0,NA,NA,completion,6500,197703,197700,197716,204216,204218,2023-10-04T08:43:11Z,204233,Notfall,dharura,d,rairai,malalamiko,ahueni,NA,NA,NA,"c(""distractor1"", ""distractor2"", ""distractor3"")",NA,NA,NA,NA,NA,NA,NA,NA,NA,NA,NA,NA,NA,NA,NA,NA,NA,NA,NA
d9ca7,task,flow.Sequence,2_11,NA,NA,completion,6500,197703,197700,197716,204216,204219,2023-10-04T08:43:11Z,204233,Notfall,dharura,d,rairai,malalamiko,ahueni,NA,NA,NA,"c(""distractor1"", ""distractor2"", ""distractor3"")",NA,NA,NA,NA,NA,NA,NA,NA,NA,NA,NA,NA,NA,NA,NA,NA,NA,NA,NA
d9ca7,Shallow Question,html.Page,2_12_0_0,NA,NA,form submission,5028,204219,204216,204233,209261,209262,2023-10-04T08:43:16Z,209282,Hoffnung,matarajio,d,kutaalamika,uratibu,mvumbuzi,matarajio,NA,NA,"c(""distractor1"", ""distractor2"", ""distractor3"")",NA,NA,NA,NA,NA,NA,NA,NA,NA,NA,NA,NA,NA,NA,NA,NA,NA,NA,NA
d9ca7,Save data screen,canvas.Screen,2_12_0_1,NA,NA,timeout,501,209265,209267,209282,209765,209767,2023-10-04T08:43:16Z,209783,Hoffnung,matarajio,d,kutaalamika,uratibu,mvumbuzi,NA,NA,1,"c(""distractor1"", ""distractor2"", ""distractor3"")",NA,NA,NA,NA,NA,NA,NA,NA,NA,NA,NA,NA,NA,NA,NA,NA,NA,NA,NA
d9ca7,shallow,flow.Sequence,2_12_0,NA,NA,completion,5532,204219,204216,204233,209765,209767,2023-10-04T08:43:16Z,209783,Hoffnung,matarajio,d,kutaalamika,uratibu,mvumbuzi,NA,NA,NA,"c(""distractor1"", ""distractor2"", ""distractor3"")",NA,NA,NA,NA,NA,NA,NA,NA,NA,NA,NA,NA,NA,NA,NA,NA,NA,NA,NA
d9ca7,task,flow.Sequence,2_12,NA,NA,completion,5532,204219,204216,204233,209765,209767,2023-10-04T08:43:16Z,209783,Hoffnung,matarajio,d,kutaalamika,uratibu,mvumbuzi,NA,NA,NA,"c(""distractor1"", ""distractor2"", ""distractor3"")",NA,NA,NA,NA,NA,NA,NA,NA,NA,NA,NA,NA,NA,NA,NA,NA,NA,NA,NA
d9ca7,Shallow Question,html.Page,2_13_0_0,NA,NA,form submission,3905,209768,209765,209783,213688,213688,2023-10-04T08:43:20Z,213716,Fenster,dirisha,s,walakini,tasawari,maarifa,dirisha,NA,NA,"c(""distractor1"", ""distractor2"", ""distractor3"")",NA,NA,NA,NA,NA,NA,NA,NA,NA,NA,NA,NA,NA,NA,NA,NA,NA,NA,NA
d9ca7,Save data screen,canvas.Screen,2_13_0_1,NA,NA,timeout,500,213690,213700,213716,214199,214200,2023-10-04T08:43:21Z,214216,Fenster,dirisha,s,walakini,tasawari,maarifa,NA,NA,1,"c(""distractor1"", ""distractor2"", ""distractor3"")",NA,NA,NA,NA,NA,NA,NA,NA,NA,NA,NA,NA,NA,NA,NA,NA,NA,NA,NA
d9ca7,shallow,flow.Sequence,2_13_0,NA,NA,completion,4416,209768,209765,209783,214199,214200,2023-10-04T08:43:21Z,214216,Fenster,dirisha,s,walakini,tasawari,maarifa,NA,NA,NA,"c(""distractor1"", ""distractor2"", ""distractor3"")",NA,NA,NA,NA,NA,NA,NA,NA,NA,NA,NA,NA,NA,NA,NA,NA,NA,NA,NA
d9ca7,task,flow.Sequence,2_13,NA,NA,completion,4416,209768,209765,209783,214199,214201,2023-10-04T08:43:21Z,214216,Fenster,dirisha,s,walakini,tasawari,maarifa,NA,NA,NA,"c(""distractor1"", ""distractor2"", ""distractor3"")",NA,NA,NA,NA,NA,NA,NA,NA,NA,NA,NA,NA,NA,NA,NA,NA,NA,NA,NA
d9ca7,Shallow Question,html.Page,2_14_0_0,NA,NA,form submission,4772,214201,214199,214216,218988,218989,2023-10-04T08:43:26Z,219016,Spionage,upelelezi,s,maslahi,utokazo,magangao,maslahi,NA,NA,"c(""distractor1"", ""distractor2"", ""distractor3"")",NA,NA,NA,NA,NA,NA,NA,NA,NA,NA,NA,NA,NA,NA,NA,NA,NA,NA,NA
d9ca7,Save data screen,canvas.Screen,2_14_0_1,NA,NA,timeout,499,218990,219000,219016,219500,219503,2023-10-04T08:43:26Z,219515,Spionage,upelelezi,s,maslahi,utokazo,magangao,NA,NA,0,"c(""distractor1"", ""distractor2"", ""distractor3"")",NA,NA,NA,NA,NA,NA,NA,NA,NA,NA,NA,NA,NA,NA,NA,NA,NA,NA,NA
d9ca7,shallow,flow.Sequence,2_14_0,NA,NA,completion,5284,214201,214199,214216,219500,219504,2023-10-04T08:43:26Z,219515,Spionage,upelelezi,s,maslahi,utokazo,magangao,NA,NA,NA,"c(""distractor1"", ""distractor2"", ""distractor3"")",NA,NA,NA,NA,NA,NA,NA,NA,NA,NA,NA,NA,NA,NA,NA,NA,NA,NA,NA
d9ca7,task,flow.Sequence,2_14,NA,NA,completion,5284,214201,214199,214216,219500,219504,2023-10-04T08:43:26Z,219515,Spionage,upelelezi,s,maslahi,utokazo,magangao,NA,NA,NA,"c(""distractor1"", ""distractor2"", ""distractor3"")",NA,NA,NA,NA,NA,NA,NA,NA,NA,NA,NA,NA,NA,NA,NA,NA,NA,NA,NA
d9ca7,Shallow Question,html.Page,2_15_0_0,NA,NA,form submission,5612,219504,219500,219515,225127,225128,2023-10-04T08:43:32Z,225150,Schock,mshtuko,s,biashara,kukataza,vichekesho,mshtuko,NA,NA,"c(""distractor1"", ""distractor2"", ""distractor3"")",NA,NA,NA,NA,NA,NA,NA,NA,NA,NA,NA,NA,NA,NA,NA,NA,NA,NA,NA
d9ca7,Save data screen,canvas.Screen,2_15_0_1,NA,NA,timeout,499,225129,225133,225150,225633,225634,2023-10-04T08:43:32Z,225649,Schock,mshtuko,s,biashara,kukataza,vichekesho,NA,NA,1,"c(""distractor1"", ""distractor2"", ""distractor3"")",NA,NA,NA,NA,NA,NA,NA,NA,NA,NA,NA,NA,NA,NA,NA,NA,NA,NA,NA
d9ca7,shallow,flow.Sequence,2_15_0,NA,NA,completion,6118,219504,219500,219515,225633,225635,2023-10-04T08:43:32Z,225649,Schock,mshtuko,s,biashara,kukataza,vichekesho,NA,NA,NA,"c(""distractor1"", ""distractor2"", ""distractor3"")",NA,NA,NA,NA,NA,NA,NA,NA,NA,NA,NA,NA,NA,NA,NA,NA,NA,NA,NA
d9ca7,task,flow.Sequence,2_15,NA,NA,completion,6118,219504,219500,219515,225633,225636,2023-10-04T08:43:32Z,225649,Schock,mshtuko,s,biashara,kukataza,vichekesho,NA,NA,NA,"c(""distractor1"", ""distractor2"", ""distractor3"")",NA,NA,NA,NA,NA,NA,NA,NA,NA,NA,NA,NA,NA,NA,NA,NA,NA,NA,NA
d9ca7,retrieval block 2 (multiple choice),flow.Loop,2,NA,NA,completion,93691,131920,131917,131942,225633,225636,2023-10-04T08:43:32Z,225649,NA,NA,NA,NA,NA,NA,NA,NA,NA,"c(""distractor1"", ""distractor2"", ""distractor3"")",NA,NA,NA,NA,NA,NA,NA,NA,NA,NA,NA,NA,NA,NA,NA,NA,NA,NA,NA
d9ca7,End,canvas.Screen,3,NA,keypress(Space),response,2301,225636,225633,225649,227934,227900,2023-10-04T08:43:35Z,227933,NA,NA,NA,NA,NA,NA,NA,NA,NA,NULL,NA,NA,NA,NA,NA,NA,NA,NA,NA,NA,NA,NA,NA,NA,NA,NA,NA,NA,NA
d9ca7,root,flow.Sequence,NA,NA,NA,completion,227171,726,751,763,227934,227901,2023-10-04T08:43:35Z,227933,NA,NA,NA,NA,NA,NA,NA,NA,NA,NULL,NA,NA,NA,NA,NA,NA,NA,NA,NA,NA,NA,NA,NA,NA,NA,NA,NA,NA,NA
