observation,sender,sender_type,sender_id,response,response_action,ended_on,duration,time_run,time_render,time_show,time_end,time_commit,timestamp,time_switch,german,swahili,enc,distractor1,distractor2,distractor3,response_2,x,correct,distractors,url_vp,url_sess,meta_labjs_version,meta_location,meta_user_agent,meta_platform,meta_language,meta_locale,meta_time_zone,meta_timezone_offset,meta_screen_width,meta_screen_height,meta_scroll_width,meta_scroll_height,meta_window_inner_width,meta_window_inner_height,meta_device_pixel_ratio,meta_labjs_build_flavor,meta_labjs_build_commit
c0b2f,Introduction delayed retrieval,canvas.Screen,0,weiter,keypress(Space),response,1894,470,476,502,2370,2379,2024-05-09T11:07:17Z,2420,NA,NA,NA,NA,NA,NA,NA,NA,NA,NULL,227,2,20.2.4,https://neurocog.fernuni.ch/studies/vweber/aberisha/delayed/index.html?vp=227&sess=2,"Mozilla/5.0 (Macintosh; Intel Mac OS X 10_15_7) AppleWebKit/605.1.15 (KHTML, like Gecko) Version/17.4.1 Safari/605.1.15",MacIntel,de-DE,de-DE,Europe/Zurich,-120,1536,960,1520,66,1536,806,2,production,f5b4a49f956347addd546a832a3327688c2c0fef
c0b2f,Deep Question,html.Page,1_0_0_0,NA,NA,form submission,9421,2380,2401,2420,11841,11841,2024-05-09T11:07:26Z,11851,Übersicht,kilindo,d,mgusano,chipukizi,kulinganisha,as,NA,NA,NULL,NA,NA,NA,NA,NA,NA,NA,NA,NA,NA,NA,NA,NA,NA,NA,NA,NA,NA,NA
c0b2f,Save data screen,canvas.Screen,1_0_0_1,NA,NA,timeout,504,11842,11843,11851,12337,12338,2024-05-09T11:07:27Z,12355,Übersicht,kilindo,d,mgusano,chipukizi,kulinganisha,NA,NA,0,NULL,NA,NA,NA,NA,NA,NA,NA,NA,NA,NA,NA,NA,NA,NA,NA,NA,NA,NA,NA
c0b2f,deep,flow.Sequence,1_0_0,NA,NA,completion,9917,2380,2401,2420,12337,12338,2024-05-09T11:07:27Z,12355,Übersicht,kilindo,d,mgusano,chipukizi,kulinganisha,NA,NA,NA,NULL,NA,NA,NA,NA,NA,NA,NA,NA,NA,NA,NA,NA,NA,NA,NA,NA,NA,NA,NA
c0b2f,task,flow.Sequence,1_0,NA,NA,completion,9917,2380,2401,2420,12337,12338,2024-05-09T11:07:27Z,12355,Übersicht,kilindo,d,mgusano,chipukizi,kulinganisha,NA,NA,NA,NULL,NA,NA,NA,NA,NA,NA,NA,NA,NA,NA,NA,NA,NA,NA,NA,NA,NA,NA,NA
c0b2f,Deep Question,html.Page,1_1_0_0,NA,NA,form submission,115967,12338,12337,12355,128322,128322,2024-05-09T11:09:23Z,128335,Abrechnung,uhasibu,d,kusahihisha,mpambano,mashambulizi,pdf,NA,NA,NULL,NA,NA,NA,NA,NA,NA,NA,NA,NA,NA,NA,NA,NA,NA,NA,NA,NA,NA,NA
c0b2f,Save data screen,canvas.Screen,1_1_0_1,NA,NA,timeout,504,128323,128323,128335,128823,128823,2024-05-09T11:09:23Z,128839,Abrechnung,uhasibu,d,kusahihisha,mpambano,mashambulizi,NA,NA,0,NULL,NA,NA,NA,NA,NA,NA,NA,NA,NA,NA,NA,NA,NA,NA,NA,NA,NA,NA,NA
c0b2f,deep,flow.Sequence,1_1_0,NA,NA,completion,116468,12338,12337,12355,128823,128824,2024-05-09T11:09:23Z,128839,Abrechnung,uhasibu,d,kusahihisha,mpambano,mashambulizi,NA,NA,NA,NULL,NA,NA,NA,NA,NA,NA,NA,NA,NA,NA,NA,NA,NA,NA,NA,NA,NA,NA,NA
c0b2f,task,flow.Sequence,1_1,NA,NA,completion,116468,12338,12337,12355,128823,128824,2024-05-09T11:09:23Z,128839,Abrechnung,uhasibu,d,kusahihisha,mpambano,mashambulizi,NA,NA,NA,NULL,NA,NA,NA,NA,NA,NA,NA,NA,NA,NA,NA,NA,NA,NA,NA,NA,NA,NA,NA
c0b2f,Deep Question,html.Page,1_2_0_0,NA,NA,form submission,30723,128824,128823,128839,159562,159562,2024-05-09T11:09:54Z,159582,Gefährdung,kuhatarisha,d,uchokozi,udhaifu,makorowezo,hantari,NA,NA,NULL,NA,NA,NA,NA,NA,NA,NA,NA,NA,NA,NA,NA,NA,NA,NA,NA,NA,NA,NA
c0b2f,Save data screen,canvas.Screen,1_2_0_1,NA,NA,timeout,498,159563,159564,159582,160064,160064,2024-05-09T11:09:55Z,160080,Gefährdung,kuhatarisha,d,uchokozi,udhaifu,makorowezo,NA,NA,0,NULL,NA,NA,NA,NA,NA,NA,NA,NA,NA,NA,NA,NA,NA,NA,NA,NA,NA,NA,NA
c0b2f,deep,flow.Sequence,1_2_0,NA,NA,completion,31225,128824,128823,128839,160064,160065,2024-05-09T11:09:55Z,160080,Gefährdung,kuhatarisha,d,uchokozi,udhaifu,makorowezo,NA,NA,NA,NULL,NA,NA,NA,NA,NA,NA,NA,NA,NA,NA,NA,NA,NA,NA,NA,NA,NA,NA,NA
c0b2f,task,flow.Sequence,1_2,NA,NA,completion,31225,128824,128823,128839,160064,160065,2024-05-09T11:09:55Z,160080,Gefährdung,kuhatarisha,d,uchokozi,udhaifu,makorowezo,NA,NA,NA,NULL,NA,NA,NA,NA,NA,NA,NA,NA,NA,NA,NA,NA,NA,NA,NA,NA,NA,NA,NA
c0b2f,Deep Question,html.Page,1_3_0_0,NA,NA,form submission,14392,160065,160064,160080,174472,174472,2024-05-09T11:10:09Z,174491,Können,unaweza,s,kiongozi,bustani,mienendo,dfg,NA,NA,NULL,NA,NA,NA,NA,NA,NA,NA,NA,NA,NA,NA,NA,NA,NA,NA,NA,NA,NA,NA
c0b2f,Save data screen,canvas.Screen,1_3_0_1,NA,NA,timeout,492,174473,174474,174491,174966,174966,2024-05-09T11:10:09Z,174983,Können,unaweza,s,kiongozi,bustani,mienendo,NA,NA,0,NULL,NA,NA,NA,NA,NA,NA,NA,NA,NA,NA,NA,NA,NA,NA,NA,NA,NA,NA,NA
c0b2f,deep,flow.Sequence,1_3_0,NA,NA,completion,14886,160065,160064,160080,174966,174966,2024-05-09T11:10:09Z,174983,Können,unaweza,s,kiongozi,bustani,mienendo,NA,NA,NA,NULL,NA,NA,NA,NA,NA,NA,NA,NA,NA,NA,NA,NA,NA,NA,NA,NA,NA,NA,NA
c0b2f,task,flow.Sequence,1_3,NA,NA,completion,14886,160065,160064,160080,174966,174966,2024-05-09T11:10:09Z,174983,Können,unaweza,s,kiongozi,bustani,mienendo,NA,NA,NA,NULL,NA,NA,NA,NA,NA,NA,NA,NA,NA,NA,NA,NA,NA,NA,NA,NA,NA,NA,NA
c0b2f,Deep Question,html.Page,1_4_0_0,NA,NA,form submission,35054,174966,174966,174983,210037,210037,2024-05-09T11:10:45Z,210049,Prüfung,mtihani,s,mkulima,mtizamo,ufumbuzi,mithin,NA,NA,NULL,NA,NA,NA,NA,NA,NA,NA,NA,NA,NA,NA,NA,NA,NA,NA,NA,NA,NA,NA
c0b2f,Save data screen,canvas.Screen,1_4_0_1,NA,NA,timeout,501,210038,210038,210049,210533,210534,2024-05-09T11:10:45Z,210550,Prüfung,mtihani,s,mkulima,mtizamo,ufumbuzi,NA,NA,0,NULL,NA,NA,NA,NA,NA,NA,NA,NA,NA,NA,NA,NA,NA,NA,NA,NA,NA,NA,NA
c0b2f,deep,flow.Sequence,1_4_0,NA,NA,completion,35550,174966,174966,174983,210533,210534,2024-05-09T11:10:45Z,210550,Prüfung,mtihani,s,mkulima,mtizamo,ufumbuzi,NA,NA,NA,NULL,NA,NA,NA,NA,NA,NA,NA,NA,NA,NA,NA,NA,NA,NA,NA,NA,NA,NA,NA
c0b2f,task,flow.Sequence,1_4,NA,NA,completion,35550,174966,174966,174983,210533,210534,2024-05-09T11:10:45Z,210550,Prüfung,mtihani,s,mkulima,mtizamo,ufumbuzi,NA,NA,NA,NULL,NA,NA,NA,NA,NA,NA,NA,NA,NA,NA,NA,NA,NA,NA,NA,NA,NA,NA,NA
c0b2f,Deep Question,html.Page,1_5_0_0,NA,NA,form submission,9177,210534,210533,210550,219727,219727,2024-05-09T11:10:54Z,219739,Kanzler,diwani,d,rasilmali,mahitaji,maabudu,jfkd,NA,NA,NULL,NA,NA,NA,NA,NA,NA,NA,NA,NA,NA,NA,NA,NA,NA,NA,NA,NA,NA,NA
c0b2f,Save data screen,canvas.Screen,1_5_0_1,NA,NA,timeout,501,219728,219729,219739,220223,220223,2024-05-09T11:10:55Z,220240,Kanzler,diwani,d,rasilmali,mahitaji,maabudu,NA,NA,0,NULL,NA,NA,NA,NA,NA,NA,NA,NA,NA,NA,NA,NA,NA,NA,NA,NA,NA,NA,NA
c0b2f,deep,flow.Sequence,1_5_0,NA,NA,completion,9673,210534,210533,210550,220223,220224,2024-05-09T11:10:55Z,220240,Kanzler,diwani,d,rasilmali,mahitaji,maabudu,NA,NA,NA,NULL,NA,NA,NA,NA,NA,NA,NA,NA,NA,NA,NA,NA,NA,NA,NA,NA,NA,NA,NA
c0b2f,task,flow.Sequence,1_5,NA,NA,completion,9673,210534,210533,210550,220223,220224,2024-05-09T11:10:55Z,220240,Kanzler,diwani,d,rasilmali,mahitaji,maabudu,NA,NA,NA,NULL,NA,NA,NA,NA,NA,NA,NA,NA,NA,NA,NA,NA,NA,NA,NA,NA,NA,NA,NA
c0b2f,Deep Question,html.Page,1_6_0_0,NA,NA,form submission,4741,220224,220223,220240,224981,224981,2024-05-09T11:10:59Z,224992,Angreifer,mshambulizi,s,kitengo,tasinia,usafirishaji,jfkd,NA,NA,NULL,NA,NA,NA,NA,NA,NA,NA,NA,NA,NA,NA,NA,NA,NA,NA,NA,NA,NA,NA
c0b2f,Save data screen,canvas.Screen,1_6_0_1,NA,NA,timeout,503,224982,224982,224992,225480,225480,2024-05-09T11:11:00Z,225495,Angreifer,mshambulizi,s,kitengo,tasinia,usafirishaji,NA,NA,0,NULL,NA,NA,NA,NA,NA,NA,NA,NA,NA,NA,NA,NA,NA,NA,NA,NA,NA,NA,NA
c0b2f,deep,flow.Sequence,1_6_0,NA,NA,completion,5240,220224,220223,220240,225480,225480,2024-05-09T11:11:00Z,225495,Angreifer,mshambulizi,s,kitengo,tasinia,usafirishaji,NA,NA,NA,NULL,NA,NA,NA,NA,NA,NA,NA,NA,NA,NA,NA,NA,NA,NA,NA,NA,NA,NA,NA
c0b2f,task,flow.Sequence,1_6,NA,NA,completion,5240,220224,220223,220240,225480,225481,2024-05-09T11:11:00Z,225495,Angreifer,mshambulizi,s,kitengo,tasinia,usafirishaji,NA,NA,NA,NULL,NA,NA,NA,NA,NA,NA,NA,NA,NA,NA,NA,NA,NA,NA,NA,NA,NA,NA,NA
c0b2f,Deep Question,html.Page,1_7_0_0,NA,NA,form submission,5074,225481,225480,225495,230569,230570,2024-05-09T11:11:05Z,230580,System,maongozi,s,chokochoko,nuksani,mitaani,hfjd,NA,NA,NULL,NA,NA,NA,NA,NA,NA,NA,NA,NA,NA,NA,NA,NA,NA,NA,NA,NA,NA,NA
c0b2f,Save data screen,canvas.Screen,1_7_0_1,NA,NA,timeout,503,230571,230571,230580,231065,231066,2024-05-09T11:11:06Z,231083,System,maongozi,s,chokochoko,nuksani,mitaani,NA,NA,0,NULL,NA,NA,NA,NA,NA,NA,NA,NA,NA,NA,NA,NA,NA,NA,NA,NA,NA,NA,NA
c0b2f,deep,flow.Sequence,1_7_0,NA,NA,completion,5570,225481,225480,225495,231065,231066,2024-05-09T11:11:06Z,231083,System,maongozi,s,chokochoko,nuksani,mitaani,NA,NA,NA,NULL,NA,NA,NA,NA,NA,NA,NA,NA,NA,NA,NA,NA,NA,NA,NA,NA,NA,NA,NA
c0b2f,task,flow.Sequence,1_7,NA,NA,completion,5570,225481,225480,225495,231065,231066,2024-05-09T11:11:06Z,231083,System,maongozi,s,chokochoko,nuksani,mitaani,NA,NA,NA,NULL,NA,NA,NA,NA,NA,NA,NA,NA,NA,NA,NA,NA,NA,NA,NA,NA,NA,NA,NA
c0b2f,Deep Question,html.Page,1_8_0_0,NA,NA,form submission,17362,231066,231065,231083,248445,248445,2024-05-09T11:11:23Z,248456,Lawine,banguko,s,maambukizi,usuluhishi,chekechea,jfkd,NA,NA,NULL,NA,NA,NA,NA,NA,NA,NA,NA,NA,NA,NA,NA,NA,NA,NA,NA,NA,NA,NA
c0b2f,Save data screen,canvas.Screen,1_8_0_1,NA,NA,timeout,504,248446,248447,248456,248944,248944,2024-05-09T11:11:23Z,248960,Lawine,banguko,s,maambukizi,usuluhishi,chekechea,NA,NA,0,NULL,NA,NA,NA,NA,NA,NA,NA,NA,NA,NA,NA,NA,NA,NA,NA,NA,NA,NA,NA
c0b2f,deep,flow.Sequence,1_8_0,NA,NA,completion,17861,231066,231065,231083,248944,248945,2024-05-09T11:11:23Z,248960,Lawine,banguko,s,maambukizi,usuluhishi,chekechea,NA,NA,NA,NULL,NA,NA,NA,NA,NA,NA,NA,NA,NA,NA,NA,NA,NA,NA,NA,NA,NA,NA,NA
c0b2f,task,flow.Sequence,1_8,NA,NA,completion,17861,231066,231065,231083,248944,248945,2024-05-09T11:11:23Z,248960,Lawine,banguko,s,maambukizi,usuluhishi,chekechea,NA,NA,NA,NULL,NA,NA,NA,NA,NA,NA,NA,NA,NA,NA,NA,NA,NA,NA,NA,NA,NA,NA,NA
c0b2f,Deep Question,html.Page,1_9_0_0,NA,NA,form submission,14552,248945,248944,248960,263512,263512,2024-05-09T11:11:38Z,263524,Kontrolle,kudhibiti,d,mbinguni,kufunga,utegemezi,Jod,NA,NA,NULL,NA,NA,NA,NA,NA,NA,NA,NA,NA,NA,NA,NA,NA,NA,NA,NA,NA,NA,NA
c0b2f,Save data screen,canvas.Screen,1_9_0_1,NA,NA,timeout,504,263513,263513,263524,264010,264010,2024-05-09T11:11:39Z,264028,Kontrolle,kudhibiti,d,mbinguni,kufunga,utegemezi,NA,NA,0,NULL,NA,NA,NA,NA,NA,NA,NA,NA,NA,NA,NA,NA,NA,NA,NA,NA,NA,NA,NA
c0b2f,deep,flow.Sequence,1_9_0,NA,NA,completion,15050,248945,248944,248960,264010,264010,2024-05-09T11:11:39Z,264028,Kontrolle,kudhibiti,d,mbinguni,kufunga,utegemezi,NA,NA,NA,NULL,NA,NA,NA,NA,NA,NA,NA,NA,NA,NA,NA,NA,NA,NA,NA,NA,NA,NA,NA
c0b2f,task,flow.Sequence,1_9,NA,NA,completion,15050,248945,248944,248960,264010,264010,2024-05-09T11:11:39Z,264028,Kontrolle,kudhibiti,d,mbinguni,kufunga,utegemezi,NA,NA,NA,NULL,NA,NA,NA,NA,NA,NA,NA,NA,NA,NA,NA,NA,NA,NA,NA,NA,NA,NA,NA
c0b2f,Deep Question,html.Page,1_10_0_0,NA,NA,form submission,14975,264011,264010,264028,279003,279004,2024-05-09T11:11:54Z,279012,Sänger,mwimbaji,s,msichana,shughuli,mshirika,Jaks,NA,NA,NULL,NA,NA,NA,NA,NA,NA,NA,NA,NA,NA,NA,NA,NA,NA,NA,NA,NA,NA,NA
c0b2f,Save data screen,canvas.Screen,1_10_0_1,NA,NA,timeout,505,279004,279005,279012,279500,279501,2024-05-09T11:11:54Z,279517,Sänger,mwimbaji,s,msichana,shughuli,mshirika,NA,NA,0,NULL,NA,NA,NA,NA,NA,NA,NA,NA,NA,NA,NA,NA,NA,NA,NA,NA,NA,NA,NA
c0b2f,deep,flow.Sequence,1_10_0,NA,NA,completion,15472,264011,264010,264028,279500,279501,2024-05-09T11:11:54Z,279517,Sänger,mwimbaji,s,msichana,shughuli,mshirika,NA,NA,NA,NULL,NA,NA,NA,NA,NA,NA,NA,NA,NA,NA,NA,NA,NA,NA,NA,NA,NA,NA,NA
c0b2f,task,flow.Sequence,1_10,NA,NA,completion,15472,264011,264010,264028,279500,279501,2024-05-09T11:11:54Z,279517,Sänger,mwimbaji,s,msichana,shughuli,mshirika,NA,NA,NA,NULL,NA,NA,NA,NA,NA,NA,NA,NA,NA,NA,NA,NA,NA,NA,NA,NA,NA,NA,NA
c0b2f,Deep Question,html.Page,1_11_0_0,NA,NA,form submission,20709,279502,279500,279517,300226,300226,2024-05-09T11:12:15Z,300237,Aufstand,ugomaji,s,mazidio,msingi,kujieleza,dsf,NA,NA,NULL,NA,NA,NA,NA,NA,NA,NA,NA,NA,NA,NA,NA,NA,NA,NA,NA,NA,NA,NA
c0b2f,Save data screen,canvas.Screen,1_11_0_1,NA,NA,timeout,501,300227,300228,300237,300722,300722,2024-05-09T11:12:15Z,300738,Aufstand,ugomaji,s,mazidio,msingi,kujieleza,NA,NA,0,NULL,NA,NA,NA,NA,NA,NA,NA,NA,NA,NA,NA,NA,NA,NA,NA,NA,NA,NA,NA
c0b2f,deep,flow.Sequence,1_11_0,NA,NA,completion,21205,279502,279500,279517,300722,300722,2024-05-09T11:12:15Z,300738,Aufstand,ugomaji,s,mazidio,msingi,kujieleza,NA,NA,NA,NULL,NA,NA,NA,NA,NA,NA,NA,NA,NA,NA,NA,NA,NA,NA,NA,NA,NA,NA,NA
c0b2f,task,flow.Sequence,1_11,NA,NA,completion,21205,279501,279500,279517,300722,300722,2024-05-09T11:12:15Z,300738,Aufstand,ugomaji,s,mazidio,msingi,kujieleza,NA,NA,NA,NULL,NA,NA,NA,NA,NA,NA,NA,NA,NA,NA,NA,NA,NA,NA,NA,NA,NA,NA,NA
c0b2f,Deep Question,html.Page,1_12_0_0,NA,NA,form submission,4558,300722,300722,300738,305296,305296,2024-05-09T11:12:20Z,305322,Verzögerung,kuchelewa,d,mwakilishi,mwanauchumi,jaribio,dsf,NA,NA,NULL,NA,NA,NA,NA,NA,NA,NA,NA,NA,NA,NA,NA,NA,NA,NA,NA,NA,NA,NA
c0b2f,Save data screen,canvas.Screen,1_12_0_1,NA,NA,timeout,493,305297,305299,305322,305798,305799,2024-05-09T11:12:20Z,305815,Verzögerung,kuchelewa,d,mwakilishi,mwanauchumi,jaribio,NA,NA,0,NULL,NA,NA,NA,NA,NA,NA,NA,NA,NA,NA,NA,NA,NA,NA,NA,NA,NA,NA,NA
c0b2f,deep,flow.Sequence,1_12_0,NA,NA,completion,5060,300722,300722,300738,305798,305799,2024-05-09T11:12:20Z,305815,Verzögerung,kuchelewa,d,mwakilishi,mwanauchumi,jaribio,NA,NA,NA,NULL,NA,NA,NA,NA,NA,NA,NA,NA,NA,NA,NA,NA,NA,NA,NA,NA,NA,NA,NA
c0b2f,task,flow.Sequence,1_12,NA,NA,completion,5060,300722,300722,300738,305798,305799,2024-05-09T11:12:20Z,305815,Verzögerung,kuchelewa,d,mwakilishi,mwanauchumi,jaribio,NA,NA,NA,NULL,NA,NA,NA,NA,NA,NA,NA,NA,NA,NA,NA,NA,NA,NA,NA,NA,NA,NA,NA
c0b2f,Deep Question,html.Page,1_13_0_0,NA,NA,form submission,19615,305799,305798,305815,325430,325430,2024-05-09T11:12:40Z,325441,Kreativität,ubunifu,s,mratibu,mwendelezo,makubaliano,jfkd,NA,NA,NULL,NA,NA,NA,NA,NA,NA,NA,NA,NA,NA,NA,NA,NA,NA,NA,NA,NA,NA,NA
c0b2f,Save data screen,canvas.Screen,1_13_0_1,NA,NA,timeout,500,325431,325432,325441,325924,325925,2024-05-09T11:12:40Z,325941,Kreativität,ubunifu,s,mratibu,mwendelezo,makubaliano,NA,NA,0,NULL,NA,NA,NA,NA,NA,NA,NA,NA,NA,NA,NA,NA,NA,NA,NA,NA,NA,NA,NA
c0b2f,deep,flow.Sequence,1_13_0,NA,NA,completion,20109,305799,305798,305815,325924,325925,2024-05-09T11:12:40Z,325941,Kreativität,ubunifu,s,mratibu,mwendelezo,makubaliano,NA,NA,NA,NULL,NA,NA,NA,NA,NA,NA,NA,NA,NA,NA,NA,NA,NA,NA,NA,NA,NA,NA,NA
c0b2f,task,flow.Sequence,1_13,NA,NA,completion,20109,305799,305798,305815,325924,325925,2024-05-09T11:12:40Z,325941,Kreativität,ubunifu,s,mratibu,mwendelezo,makubaliano,NA,NA,NA,NULL,NA,NA,NA,NA,NA,NA,NA,NA,NA,NA,NA,NA,NA,NA,NA,NA,NA,NA,NA
c0b2f,Deep Question,html.Page,1_14_0_0,NA,NA,form submission,12924,325925,325924,325941,338865,338865,2024-05-09T11:12:53Z,338878,Kultur,utamaduni,d,shetani,gerezani,mazingira,Jod,NA,NA,NULL,NA,NA,NA,NA,NA,NA,NA,NA,NA,NA,NA,NA,NA,NA,NA,NA,NA,NA,NA
c0b2f,Save data screen,canvas.Screen,1_14_0_1,NA,NA,timeout,501,338866,338868,338878,339361,339362,2024-05-09T11:12:54Z,339379,Kultur,utamaduni,d,shetani,gerezani,mazingira,NA,NA,0,NULL,NA,NA,NA,NA,NA,NA,NA,NA,NA,NA,NA,NA,NA,NA,NA,NA,NA,NA,NA
c0b2f,deep,flow.Sequence,1_14_0,NA,NA,completion,13420,325925,325924,325941,339361,339362,2024-05-09T11:12:54Z,339379,Kultur,utamaduni,d,shetani,gerezani,mazingira,NA,NA,NA,NULL,NA,NA,NA,NA,NA,NA,NA,NA,NA,NA,NA,NA,NA,NA,NA,NA,NA,NA,NA
c0b2f,task,flow.Sequence,1_14,NA,NA,completion,13420,325925,325924,325941,339361,339362,2024-05-09T11:12:54Z,339379,Kultur,utamaduni,d,shetani,gerezani,mazingira,NA,NA,NA,NULL,NA,NA,NA,NA,NA,NA,NA,NA,NA,NA,NA,NA,NA,NA,NA,NA,NA,NA,NA
c0b2f,Deep Question,html.Page,1_15_0_0,NA,NA,form submission,16184,339362,339361,339379,355563,355563,2024-05-09T11:13:10Z,355575,Körper,kiwiliwili,d,mapambano,mpatanishi,kiolezo,Jaks,NA,NA,NULL,NA,NA,NA,NA,NA,NA,NA,NA,NA,NA,NA,NA,NA,NA,NA,NA,NA,NA,NA
c0b2f,Save data screen,canvas.Screen,1_15_0_1,NA,NA,timeout,504,355563,355564,355575,356063,356063,2024-05-09T11:13:11Z,356079,Körper,kiwiliwili,d,mapambano,mpatanishi,kiolezo,NA,NA,0,NULL,NA,NA,NA,NA,NA,NA,NA,NA,NA,NA,NA,NA,NA,NA,NA,NA,NA,NA,NA
c0b2f,deep,flow.Sequence,1_15_0,NA,NA,completion,16684,339362,339361,339379,356063,356063,2024-05-09T11:13:11Z,356079,Körper,kiwiliwili,d,mapambano,mpatanishi,kiolezo,NA,NA,NA,NULL,NA,NA,NA,NA,NA,NA,NA,NA,NA,NA,NA,NA,NA,NA,NA,NA,NA,NA,NA
c0b2f,task,flow.Sequence,1_15,NA,NA,completion,16684,339362,339361,339379,356063,356063,2024-05-09T11:13:11Z,356079,Körper,kiwiliwili,d,mapambano,mpatanishi,kiolezo,NA,NA,NA,NULL,NA,NA,NA,NA,NA,NA,NA,NA,NA,NA,NA,NA,NA,NA,NA,NA,NA,NA,NA
c0b2f,retrieval block 1 (cued recall),flow.Loop,1,NA,NA,completion,353643,2380,2401,2420,356063,356063,2024-05-09T11:13:11Z,356079,NA,NA,NA,NA,NA,NA,NA,NA,NA,NULL,NA,NA,NA,NA,NA,NA,NA,NA,NA,NA,NA,NA,NA,NA,NA,NA,NA,NA,NA
c0b2f,Shallow Question,html.Page,2_0_0_0,NA,NA,form submission,23196,356063,356063,356079,379275,379275,2024-05-09T11:13:34Z,379296,Kreativität,ubunifu,s,mratibu,mwendelezo,makubaliano,ubunifu,NA,NA,"c(""distractor1"", ""distractor2"", ""distractor3"")",NA,NA,NA,NA,NA,NA,NA,NA,NA,NA,NA,NA,NA,NA,NA,NA,NA,NA,NA
c0b2f,Save data screen,canvas.Screen,2_0_0_1,NA,NA,timeout,503,379276,379277,379296,379783,379783,2024-05-09T11:13:34Z,379799,Kreativität,ubunifu,s,mratibu,mwendelezo,makubaliano,NA,NA,1,"c(""distractor1"", ""distractor2"", ""distractor3"")",NA,NA,NA,NA,NA,NA,NA,NA,NA,NA,NA,NA,NA,NA,NA,NA,NA,NA,NA
c0b2f,shallow,flow.Sequence,2_0_0,NA,NA,completion,23704,356063,356063,356079,379783,379783,2024-05-09T11:13:34Z,379799,Kreativität,ubunifu,s,mratibu,mwendelezo,makubaliano,NA,NA,NA,"c(""distractor1"", ""distractor2"", ""distractor3"")",NA,NA,NA,NA,NA,NA,NA,NA,NA,NA,NA,NA,NA,NA,NA,NA,NA,NA,NA
c0b2f,task,flow.Sequence,2_0,NA,NA,completion,23704,356063,356063,356079,379783,379783,2024-05-09T11:13:34Z,379799,Kreativität,ubunifu,s,mratibu,mwendelezo,makubaliano,NA,NA,NA,"c(""distractor1"", ""distractor2"", ""distractor3"")",NA,NA,NA,NA,NA,NA,NA,NA,NA,NA,NA,NA,NA,NA,NA,NA,NA,NA,NA
c0b2f,Shallow Question,html.Page,2_1_0_0,NA,NA,form submission,13620,379784,379783,379799,393419,393419,2024-05-09T11:13:48Z,393425,Kultur,utamaduni,d,shetani,gerezani,mazingira,utamaduni,NA,NA,"c(""distractor1"", ""distractor2"", ""distractor3"")",NA,NA,NA,NA,NA,NA,NA,NA,NA,NA,NA,NA,NA,NA,NA,NA,NA,NA,NA
c0b2f,Save data screen,canvas.Screen,2_1_0_1,NA,NA,timeout,505,393420,393421,393425,393913,393913,2024-05-09T11:13:48Z,393930,Kultur,utamaduni,d,shetani,gerezani,mazingira,NA,NA,1,"c(""distractor1"", ""distractor2"", ""distractor3"")",NA,NA,NA,NA,NA,NA,NA,NA,NA,NA,NA,NA,NA,NA,NA,NA,NA,NA,NA
c0b2f,shallow,flow.Sequence,2_1_0,NA,NA,completion,14114,379783,379783,379799,393913,393913,2024-05-09T11:13:48Z,393930,Kultur,utamaduni,d,shetani,gerezani,mazingira,NA,NA,NA,"c(""distractor1"", ""distractor2"", ""distractor3"")",NA,NA,NA,NA,NA,NA,NA,NA,NA,NA,NA,NA,NA,NA,NA,NA,NA,NA,NA
c0b2f,task,flow.Sequence,2_1,NA,NA,completion,14114,379783,379783,379799,393913,393914,2024-05-09T11:13:48Z,393930,Kultur,utamaduni,d,shetani,gerezani,mazingira,NA,NA,NA,"c(""distractor1"", ""distractor2"", ""distractor3"")",NA,NA,NA,NA,NA,NA,NA,NA,NA,NA,NA,NA,NA,NA,NA,NA,NA,NA,NA
c0b2f,Shallow Question,html.Page,2_2_0_0,NA,NA,form submission,7241,393914,393913,393930,401171,401171,2024-05-09T11:13:56Z,401193,System,maongozi,s,chokochoko,nuksani,mitaani,maongozi,NA,NA,"c(""distractor1"", ""distractor2"", ""distractor3"")",NA,NA,NA,NA,NA,NA,NA,NA,NA,NA,NA,NA,NA,NA,NA,NA,NA,NA,NA
c0b2f,Save data screen,canvas.Screen,2_2_0_1,NA,NA,timeout,501,401171,401174,401193,401677,401678,2024-05-09T11:13:56Z,401694,System,maongozi,s,chokochoko,nuksani,mitaani,NA,NA,1,"c(""distractor1"", ""distractor2"", ""distractor3"")",NA,NA,NA,NA,NA,NA,NA,NA,NA,NA,NA,NA,NA,NA,NA,NA,NA,NA,NA
c0b2f,shallow,flow.Sequence,2_2_0,NA,NA,completion,7747,393914,393913,393930,401677,401678,2024-05-09T11:13:56Z,401694,System,maongozi,s,chokochoko,nuksani,mitaani,NA,NA,NA,"c(""distractor1"", ""distractor2"", ""distractor3"")",NA,NA,NA,NA,NA,NA,NA,NA,NA,NA,NA,NA,NA,NA,NA,NA,NA,NA,NA
c0b2f,task,flow.Sequence,2_2,NA,NA,completion,7747,393914,393913,393930,401677,401678,2024-05-09T11:13:56Z,401694,System,maongozi,s,chokochoko,nuksani,mitaani,NA,NA,NA,"c(""distractor1"", ""distractor2"", ""distractor3"")",NA,NA,NA,NA,NA,NA,NA,NA,NA,NA,NA,NA,NA,NA,NA,NA,NA,NA,NA
c0b2f,Shallow Question,html.Page,2_3_0_0,NA,NA,form submission,13928,401678,401677,401694,415622,415622,2024-05-09T11:14:10Z,415632,Übersicht,kilindo,d,mgusano,chipukizi,kulinganisha,mgusano,NA,NA,"c(""distractor1"", ""distractor2"", ""distractor3"")",NA,NA,NA,NA,NA,NA,NA,NA,NA,NA,NA,NA,NA,NA,NA,NA,NA,NA,NA
c0b2f,Save data screen,canvas.Screen,2_3_0_1,NA,NA,timeout,506,415623,415623,415632,416121,416121,2024-05-09T11:14:11Z,416138,Übersicht,kilindo,d,mgusano,chipukizi,kulinganisha,NA,NA,0,"c(""distractor1"", ""distractor2"", ""distractor3"")",NA,NA,NA,NA,NA,NA,NA,NA,NA,NA,NA,NA,NA,NA,NA,NA,NA,NA,NA
c0b2f,shallow,flow.Sequence,2_3_0,NA,NA,completion,14427,401678,401677,401694,416121,416121,2024-05-09T11:14:11Z,416138,Übersicht,kilindo,d,mgusano,chipukizi,kulinganisha,NA,NA,NA,"c(""distractor1"", ""distractor2"", ""distractor3"")",NA,NA,NA,NA,NA,NA,NA,NA,NA,NA,NA,NA,NA,NA,NA,NA,NA,NA,NA
c0b2f,task,flow.Sequence,2_3,NA,NA,completion,14427,401678,401677,401694,416121,416122,2024-05-09T11:14:11Z,416138,Übersicht,kilindo,d,mgusano,chipukizi,kulinganisha,NA,NA,NA,"c(""distractor1"", ""distractor2"", ""distractor3"")",NA,NA,NA,NA,NA,NA,NA,NA,NA,NA,NA,NA,NA,NA,NA,NA,NA,NA,NA
c0b2f,Shallow Question,html.Page,2_4_0_0,NA,NA,form submission,7894,416122,416121,416138,424032,424032,2024-05-09T11:14:19Z,424048,Lawine,banguko,s,maambukizi,usuluhishi,chekechea,banguko,NA,NA,"c(""distractor1"", ""distractor2"", ""distractor3"")",NA,NA,NA,NA,NA,NA,NA,NA,NA,NA,NA,NA,NA,NA,NA,NA,NA,NA,NA
c0b2f,Save data screen,canvas.Screen,2_4_0_1,NA,NA,timeout,499,424033,424036,424048,424531,424532,2024-05-09T11:14:19Z,424547,Lawine,banguko,s,maambukizi,usuluhishi,chekechea,NA,NA,1,"c(""distractor1"", ""distractor2"", ""distractor3"")",NA,NA,NA,NA,NA,NA,NA,NA,NA,NA,NA,NA,NA,NA,NA,NA,NA,NA,NA
c0b2f,shallow,flow.Sequence,2_4_0,NA,NA,completion,8393,416122,416121,416138,424531,424532,2024-05-09T11:14:19Z,424547,Lawine,banguko,s,maambukizi,usuluhishi,chekechea,NA,NA,NA,"c(""distractor1"", ""distractor2"", ""distractor3"")",NA,NA,NA,NA,NA,NA,NA,NA,NA,NA,NA,NA,NA,NA,NA,NA,NA,NA,NA
c0b2f,task,flow.Sequence,2_4,NA,NA,completion,8393,416122,416121,416138,424531,424532,2024-05-09T11:14:19Z,424547,Lawine,banguko,s,maambukizi,usuluhishi,chekechea,NA,NA,NA,"c(""distractor1"", ""distractor2"", ""distractor3"")",NA,NA,NA,NA,NA,NA,NA,NA,NA,NA,NA,NA,NA,NA,NA,NA,NA,NA,NA
c0b2f,Shallow Question,html.Page,2_5_0_0,NA,NA,form submission,12144,424532,424531,424547,436691,436691,2024-05-09T11:14:31Z,436706,Angreifer,mshambulizi,s,kitengo,tasinia,usafirishaji,mshambulizi,NA,NA,"c(""distractor1"", ""distractor2"", ""distractor3"")",NA,NA,NA,NA,NA,NA,NA,NA,NA,NA,NA,NA,NA,NA,NA,NA,NA,NA,NA
c0b2f,Save data screen,canvas.Screen,2_5_0_1,NA,NA,timeout,499,436692,436692,436706,437189,437190,2024-05-09T11:14:32Z,437205,Angreifer,mshambulizi,s,kitengo,tasinia,usafirishaji,NA,NA,1,"c(""distractor1"", ""distractor2"", ""distractor3"")",NA,NA,NA,NA,NA,NA,NA,NA,NA,NA,NA,NA,NA,NA,NA,NA,NA,NA,NA
c0b2f,shallow,flow.Sequence,2_5_0,NA,NA,completion,12642,424532,424531,424547,437189,437190,2024-05-09T11:14:32Z,437205,Angreifer,mshambulizi,s,kitengo,tasinia,usafirishaji,NA,NA,NA,"c(""distractor1"", ""distractor2"", ""distractor3"")",NA,NA,NA,NA,NA,NA,NA,NA,NA,NA,NA,NA,NA,NA,NA,NA,NA,NA,NA
c0b2f,task,flow.Sequence,2_5,NA,NA,completion,12642,424532,424531,424547,437189,437190,2024-05-09T11:14:32Z,437205,Angreifer,mshambulizi,s,kitengo,tasinia,usafirishaji,NA,NA,NA,"c(""distractor1"", ""distractor2"", ""distractor3"")",NA,NA,NA,NA,NA,NA,NA,NA,NA,NA,NA,NA,NA,NA,NA,NA,NA,NA,NA
c0b2f,Shallow Question,html.Page,2_6_0_0,NA,NA,form submission,8047,437190,437189,437205,445252,445252,2024-05-09T11:14:40Z,445261,Verzögerung,kuchelewa,d,mwakilishi,mwanauchumi,jaribio,kuchelewa,NA,NA,"c(""distractor1"", ""distractor2"", ""distractor3"")",NA,NA,NA,NA,NA,NA,NA,NA,NA,NA,NA,NA,NA,NA,NA,NA,NA,NA,NA
c0b2f,Save data screen,canvas.Screen,2_6_0_1,NA,NA,timeout,505,445253,445255,445261,445749,445749,2024-05-09T11:14:40Z,445766,Verzögerung,kuchelewa,d,mwakilishi,mwanauchumi,jaribio,NA,NA,1,"c(""distractor1"", ""distractor2"", ""distractor3"")",NA,NA,NA,NA,NA,NA,NA,NA,NA,NA,NA,NA,NA,NA,NA,NA,NA,NA,NA
c0b2f,shallow,flow.Sequence,2_6_0,NA,NA,completion,8544,437190,437189,437205,445749,445750,2024-05-09T11:14:40Z,445766,Verzögerung,kuchelewa,d,mwakilishi,mwanauchumi,jaribio,NA,NA,NA,"c(""distractor1"", ""distractor2"", ""distractor3"")",NA,NA,NA,NA,NA,NA,NA,NA,NA,NA,NA,NA,NA,NA,NA,NA,NA,NA,NA
c0b2f,task,flow.Sequence,2_6,NA,NA,completion,8544,437190,437189,437205,445749,445750,2024-05-09T11:14:40Z,445766,Verzögerung,kuchelewa,d,mwakilishi,mwanauchumi,jaribio,NA,NA,NA,"c(""distractor1"", ""distractor2"", ""distractor3"")",NA,NA,NA,NA,NA,NA,NA,NA,NA,NA,NA,NA,NA,NA,NA,NA,NA,NA,NA
c0b2f,Shallow Question,html.Page,2_7_0_0,NA,NA,form submission,12563,445750,445749,445766,458329,458329,2024-05-09T11:14:53Z,458339,Aufstand,ugomaji,s,mazidio,msingi,kujieleza,ugomaji,NA,NA,"c(""distractor1"", ""distractor2"", ""distractor3"")",NA,NA,NA,NA,NA,NA,NA,NA,NA,NA,NA,NA,NA,NA,NA,NA,NA,NA,NA
c0b2f,Save data screen,canvas.Screen,2_7_0_1,NA,NA,timeout,505,458330,458330,458339,458827,458827,2024-05-09T11:14:53Z,458844,Aufstand,ugomaji,s,mazidio,msingi,kujieleza,NA,NA,1,"c(""distractor1"", ""distractor2"", ""distractor3"")",NA,NA,NA,NA,NA,NA,NA,NA,NA,NA,NA,NA,NA,NA,NA,NA,NA,NA,NA
c0b2f,shallow,flow.Sequence,2_7_0,NA,NA,completion,13061,445750,445749,445766,458827,458827,2024-05-09T11:14:53Z,458844,Aufstand,ugomaji,s,mazidio,msingi,kujieleza,NA,NA,NA,"c(""distractor1"", ""distractor2"", ""distractor3"")",NA,NA,NA,NA,NA,NA,NA,NA,NA,NA,NA,NA,NA,NA,NA,NA,NA,NA,NA
c0b2f,task,flow.Sequence,2_7,NA,NA,completion,13061,445750,445749,445766,458827,458827,2024-05-09T11:14:53Z,458844,Aufstand,ugomaji,s,mazidio,msingi,kujieleza,NA,NA,NA,"c(""distractor1"", ""distractor2"", ""distractor3"")",NA,NA,NA,NA,NA,NA,NA,NA,NA,NA,NA,NA,NA,NA,NA,NA,NA,NA,NA
c0b2f,Shallow Question,html.Page,2_8_0_0,NA,NA,form submission,9440,458827,458827,458844,468284,468284,2024-05-09T11:15:03Z,468297,Kontrolle,kudhibiti,d,mbinguni,kufunga,utegemezi,utegemezi,NA,NA,"c(""distractor1"", ""distractor2"", ""distractor3"")",NA,NA,NA,NA,NA,NA,NA,NA,NA,NA,NA,NA,NA,NA,NA,NA,NA,NA,NA
c0b2f,Save data screen,canvas.Screen,2_8_0_1,NA,NA,timeout,502,468284,468287,468297,468782,468782,2024-05-09T11:15:03Z,468799,Kontrolle,kudhibiti,d,mbinguni,kufunga,utegemezi,NA,NA,0,"c(""distractor1"", ""distractor2"", ""distractor3"")",NA,NA,NA,NA,NA,NA,NA,NA,NA,NA,NA,NA,NA,NA,NA,NA,NA,NA,NA
c0b2f,shallow,flow.Sequence,2_8_0,NA,NA,completion,9938,458827,458827,458844,468782,468782,2024-05-09T11:15:03Z,468799,Kontrolle,kudhibiti,d,mbinguni,kufunga,utegemezi,NA,NA,NA,"c(""distractor1"", ""distractor2"", ""distractor3"")",NA,NA,NA,NA,NA,NA,NA,NA,NA,NA,NA,NA,NA,NA,NA,NA,NA,NA,NA
c0b2f,task,flow.Sequence,2_8,NA,NA,completion,9938,458827,458827,458844,468782,468782,2024-05-09T11:15:03Z,468799,Kontrolle,kudhibiti,d,mbinguni,kufunga,utegemezi,NA,NA,NA,"c(""distractor1"", ""distractor2"", ""distractor3"")",NA,NA,NA,NA,NA,NA,NA,NA,NA,NA,NA,NA,NA,NA,NA,NA,NA,NA,NA
c0b2f,Shallow Question,html.Page,2_9_0_0,NA,NA,form submission,6601.0000000001,468782,468782,468799,475400,475400,2024-05-09T11:15:10Z,475419,Prüfung,mtihani,s,mkulima,mtizamo,ufumbuzi,mtihani,NA,NA,"c(""distractor1"", ""distractor2"", ""distractor3"")",NA,NA,NA,NA,NA,NA,NA,NA,NA,NA,NA,NA,NA,NA,NA,NA,NA,NA,NA
c0b2f,Save data screen,canvas.Screen,2_9_0_1,NA,NA,timeout,493,475400,475401,475419,475895,475895,2024-05-09T11:15:10Z,475912,Prüfung,mtihani,s,mkulima,mtizamo,ufumbuzi,NA,NA,1,"c(""distractor1"", ""distractor2"", ""distractor3"")",NA,NA,NA,NA,NA,NA,NA,NA,NA,NA,NA,NA,NA,NA,NA,NA,NA,NA,NA
c0b2f,shallow,flow.Sequence,2_9_0,NA,NA,completion,7096,468782,468782,468799,475895,475895,2024-05-09T11:15:10Z,475912,Prüfung,mtihani,s,mkulima,mtizamo,ufumbuzi,NA,NA,NA,"c(""distractor1"", ""distractor2"", ""distractor3"")",NA,NA,NA,NA,NA,NA,NA,NA,NA,NA,NA,NA,NA,NA,NA,NA,NA,NA,NA
c0b2f,task,flow.Sequence,2_9,NA,NA,completion,7096,468782,468782,468799,475895,475895,2024-05-09T11:15:10Z,475912,Prüfung,mtihani,s,mkulima,mtizamo,ufumbuzi,NA,NA,NA,"c(""distractor1"", ""distractor2"", ""distractor3"")",NA,NA,NA,NA,NA,NA,NA,NA,NA,NA,NA,NA,NA,NA,NA,NA,NA,NA,NA
c0b2f,Shallow Question,html.Page,2_10_0_0,NA,NA,form submission,15074,475896,475895,475912,490986,490986,2024-05-09T11:15:25Z,490999,Abrechnung,uhasibu,d,kusahihisha,mpambano,mashambulizi,mpambano,NA,NA,"c(""distractor1"", ""distractor2"", ""distractor3"")",NA,NA,NA,NA,NA,NA,NA,NA,NA,NA,NA,NA,NA,NA,NA,NA,NA,NA,NA
c0b2f,Save data screen,canvas.Screen,2_10_0_1,NA,NA,timeout,502,490987,490989,490999,491485,491486,2024-05-09T11:15:26Z,491501,Abrechnung,uhasibu,d,kusahihisha,mpambano,mashambulizi,NA,NA,0,"c(""distractor1"", ""distractor2"", ""distractor3"")",NA,NA,NA,NA,NA,NA,NA,NA,NA,NA,NA,NA,NA,NA,NA,NA,NA,NA,NA
c0b2f,shallow,flow.Sequence,2_10_0,NA,NA,completion,15573,475896,475895,475912,491485,491486,2024-05-09T11:15:26Z,491501,Abrechnung,uhasibu,d,kusahihisha,mpambano,mashambulizi,NA,NA,NA,"c(""distractor1"", ""distractor2"", ""distractor3"")",NA,NA,NA,NA,NA,NA,NA,NA,NA,NA,NA,NA,NA,NA,NA,NA,NA,NA,NA
c0b2f,task,flow.Sequence,2_10,NA,NA,completion,15573,475896,475895,475912,491485,491486,2024-05-09T11:15:26Z,491501,Abrechnung,uhasibu,d,kusahihisha,mpambano,mashambulizi,NA,NA,NA,"c(""distractor1"", ""distractor2"", ""distractor3"")",NA,NA,NA,NA,NA,NA,NA,NA,NA,NA,NA,NA,NA,NA,NA,NA,NA,NA,NA
c0b2f,Shallow Question,html.Page,2_11_0_0,NA,NA,form submission,11739,491486,491485,491501,503240,503240,2024-05-09T11:15:38Z,503251,Sänger,mwimbaji,s,msichana,shughuli,mshirika,mwimbaji,NA,NA,"c(""distractor1"", ""distractor2"", ""distractor3"")",NA,NA,NA,NA,NA,NA,NA,NA,NA,NA,NA,NA,NA,NA,NA,NA,NA,NA,NA
c0b2f,Save data screen,canvas.Screen,2_11_0_1,NA,NA,timeout,504,503241,503242,503251,503738,503738,2024-05-09T11:15:38Z,503755,Sänger,mwimbaji,s,msichana,shughuli,mshirika,NA,NA,1,"c(""distractor1"", ""distractor2"", ""distractor3"")",NA,NA,NA,NA,NA,NA,NA,NA,NA,NA,NA,NA,NA,NA,NA,NA,NA,NA,NA
c0b2f,shallow,flow.Sequence,2_11_0,NA,NA,completion,12237,491486,491485,491501,503738,503738,2024-05-09T11:15:38Z,503755,Sänger,mwimbaji,s,msichana,shughuli,mshirika,NA,NA,NA,"c(""distractor1"", ""distractor2"", ""distractor3"")",NA,NA,NA,NA,NA,NA,NA,NA,NA,NA,NA,NA,NA,NA,NA,NA,NA,NA,NA
c0b2f,task,flow.Sequence,2_11,NA,NA,completion,12237,491486,491485,491501,503738,503738,2024-05-09T11:15:38Z,503755,Sänger,mwimbaji,s,msichana,shughuli,mshirika,NA,NA,NA,"c(""distractor1"", ""distractor2"", ""distractor3"")",NA,NA,NA,NA,NA,NA,NA,NA,NA,NA,NA,NA,NA,NA,NA,NA,NA,NA,NA
c0b2f,Shallow Question,html.Page,2_12_0_0,NA,NA,form submission,17264,503739,503738,503755,521019,521019,2024-05-09T11:15:56Z,521027,Gefährdung,kuhatarisha,d,uchokozi,udhaifu,makorowezo,kuhatarisha,NA,NA,"c(""distractor1"", ""distractor2"", ""distractor3"")",NA,NA,NA,NA,NA,NA,NA,NA,NA,NA,NA,NA,NA,NA,NA,NA,NA,NA,NA
c0b2f,Save data screen,canvas.Screen,2_12_0_1,NA,NA,timeout,498,521019,521022,521027,521508,521508,2024-05-09T11:15:56Z,521525,Gefährdung,kuhatarisha,d,uchokozi,udhaifu,makorowezo,NA,NA,1,"c(""distractor1"", ""distractor2"", ""distractor3"")",NA,NA,NA,NA,NA,NA,NA,NA,NA,NA,NA,NA,NA,NA,NA,NA,NA,NA,NA
c0b2f,shallow,flow.Sequence,2_12_0,NA,NA,completion,17753,503738,503738,503755,521508,521509,2024-05-09T11:15:56Z,521525,Gefährdung,kuhatarisha,d,uchokozi,udhaifu,makorowezo,NA,NA,NA,"c(""distractor1"", ""distractor2"", ""distractor3"")",NA,NA,NA,NA,NA,NA,NA,NA,NA,NA,NA,NA,NA,NA,NA,NA,NA,NA,NA
c0b2f,task,flow.Sequence,2_12,NA,NA,completion,17753,503738,503738,503755,521508,521509,2024-05-09T11:15:56Z,521525,Gefährdung,kuhatarisha,d,uchokozi,udhaifu,makorowezo,NA,NA,NA,"c(""distractor1"", ""distractor2"", ""distractor3"")",NA,NA,NA,NA,NA,NA,NA,NA,NA,NA,NA,NA,NA,NA,NA,NA,NA,NA,NA
c0b2f,Shallow Question,html.Page,2_13_0_0,NA,NA,form submission,16915,521509,521508,521525,538440,538440,2024-05-09T11:16:13Z,538451,Können,unaweza,s,kiongozi,bustani,mienendo,kiongozi,NA,NA,"c(""distractor1"", ""distractor2"", ""distractor3"")",NA,NA,NA,NA,NA,NA,NA,NA,NA,NA,NA,NA,NA,NA,NA,NA,NA,NA,NA
c0b2f,Save data screen,canvas.Screen,2_13_0_1,NA,NA,timeout,498,538441,538441,538451,538931,538931,2024-05-09T11:16:13Z,538949,Können,unaweza,s,kiongozi,bustani,mienendo,NA,NA,0,"c(""distractor1"", ""distractor2"", ""distractor3"")",NA,NA,NA,NA,NA,NA,NA,NA,NA,NA,NA,NA,NA,NA,NA,NA,NA,NA,NA
c0b2f,shallow,flow.Sequence,2_13_0,NA,NA,completion,17406,521509,521508,521525,538931,538932,2024-05-09T11:16:13Z,538949,Können,unaweza,s,kiongozi,bustani,mienendo,NA,NA,NA,"c(""distractor1"", ""distractor2"", ""distractor3"")",NA,NA,NA,NA,NA,NA,NA,NA,NA,NA,NA,NA,NA,NA,NA,NA,NA,NA,NA
c0b2f,task,flow.Sequence,2_13,NA,NA,completion,17406,521509,521508,521525,538931,538932,2024-05-09T11:16:13Z,538949,Können,unaweza,s,kiongozi,bustani,mienendo,NA,NA,NA,"c(""distractor1"", ""distractor2"", ""distractor3"")",NA,NA,NA,NA,NA,NA,NA,NA,NA,NA,NA,NA,NA,NA,NA,NA,NA,NA,NA
c0b2f,Shallow Question,html.Page,2_14_0_0,NA,NA,form submission,11690,538932,538931,538949,550639,550640,2024-05-09T11:16:25Z,550652,Körper,kiwiliwili,d,mapambano,mpatanishi,kiolezo,kiwiliwili,NA,NA,"c(""distractor1"", ""distractor2"", ""distractor3"")",NA,NA,NA,NA,NA,NA,NA,NA,NA,NA,NA,NA,NA,NA,NA,NA,NA,NA,NA
c0b2f,Save data screen,canvas.Screen,2_14_0_1,NA,NA,timeout,501,550640,550641,550652,551136,551137,2024-05-09T11:16:26Z,551153,Körper,kiwiliwili,d,mapambano,mpatanishi,kiolezo,NA,NA,1,"c(""distractor1"", ""distractor2"", ""distractor3"")",NA,NA,NA,NA,NA,NA,NA,NA,NA,NA,NA,NA,NA,NA,NA,NA,NA,NA,NA
c0b2f,shallow,flow.Sequence,2_14_0,NA,NA,completion,12187,538932,538931,538949,551136,551137,2024-05-09T11:16:26Z,551153,Körper,kiwiliwili,d,mapambano,mpatanishi,kiolezo,NA,NA,NA,"c(""distractor1"", ""distractor2"", ""distractor3"")",NA,NA,NA,NA,NA,NA,NA,NA,NA,NA,NA,NA,NA,NA,NA,NA,NA,NA,NA
c0b2f,task,flow.Sequence,2_14,NA,NA,completion,12187,538932,538931,538949,551136,551137,2024-05-09T11:16:26Z,551153,Körper,kiwiliwili,d,mapambano,mpatanishi,kiolezo,NA,NA,NA,"c(""distractor1"", ""distractor2"", ""distractor3"")",NA,NA,NA,NA,NA,NA,NA,NA,NA,NA,NA,NA,NA,NA,NA,NA,NA,NA,NA
c0b2f,Shallow Question,html.Page,2_15_0_0,NA,NA,form submission,43742,551137,551136,551153,594895,594895,2024-05-09T11:17:09Z,594909,Kanzler,diwani,d,rasilmali,mahitaji,maabudu,mahitaji,NA,NA,"c(""distractor1"", ""distractor2"", ""distractor3"")",NA,NA,NA,NA,NA,NA,NA,NA,NA,NA,NA,NA,NA,NA,NA,NA,NA,NA,NA
c0b2f,Save data screen,canvas.Screen,2_15_0_1,NA,NA,timeout,504,594896,594897,594909,595396,595397,2024-05-09T11:17:10Z,595413,Kanzler,diwani,d,rasilmali,mahitaji,maabudu,NA,NA,0,"c(""distractor1"", ""distractor2"", ""distractor3"")",NA,NA,NA,NA,NA,NA,NA,NA,NA,NA,NA,NA,NA,NA,NA,NA,NA,NA,NA
c0b2f,shallow,flow.Sequence,2_15_0,NA,NA,completion,44243,551137,551136,551153,595396,595397,2024-05-09T11:17:10Z,595413,Kanzler,diwani,d,rasilmali,mahitaji,maabudu,NA,NA,NA,"c(""distractor1"", ""distractor2"", ""distractor3"")",NA,NA,NA,NA,NA,NA,NA,NA,NA,NA,NA,NA,NA,NA,NA,NA,NA,NA,NA
c0b2f,task,flow.Sequence,2_15,NA,NA,completion,44243,551137,551136,551153,595396,595397,2024-05-09T11:17:10Z,595413,Kanzler,diwani,d,rasilmali,mahitaji,maabudu,NA,NA,NA,"c(""distractor1"", ""distractor2"", ""distractor3"")",NA,NA,NA,NA,NA,NA,NA,NA,NA,NA,NA,NA,NA,NA,NA,NA,NA,NA,NA
c0b2f,retrieval block 2 (multiple choice),flow.Loop,2,NA,NA,completion,239317,356063,356063,356079,595396,595397,2024-05-09T11:17:10Z,595413,NA,NA,NA,NA,NA,NA,NA,NA,NA,"c(""distractor1"", ""distractor2"", ""distractor3"")",NA,NA,NA,NA,NA,NA,NA,NA,NA,NA,NA,NA,NA,NA,NA,NA,NA,NA,NA
c0b2f,End,canvas.Screen,3,NA,keypress(Space),response,2911,595397,595396,595413,598307,598324,2024-05-09T11:17:13Z,598364,NA,NA,NA,NA,NA,NA,NA,NA,NA,NULL,NA,NA,NA,NA,NA,NA,NA,NA,NA,NA,NA,NA,NA,NA,NA,NA,NA,NA,NA
c0b2f,root,flow.Sequence,NA,NA,NA,completion,597805,469,476,502,598307,598325,2024-05-09T11:17:13Z,598364,NA,NA,NA,NA,NA,NA,NA,NA,NA,NULL,NA,NA,NA,NA,NA,NA,NA,NA,NA,NA,NA,NA,NA,NA,NA,NA,NA,NA,NA
