observation,sender,sender_type,sender_id,response,response_action,ended_on,duration,time_run,time_render,time_show,time_end,time_commit,timestamp,time_switch,german,swahili,enc,distractor1,distractor2,distractor3,response_2,x,correct,distractors,url_vp,url_sess,meta_labjs_version,meta_location,meta_user_agent,meta_platform,meta_language,meta_locale,meta_time_zone,meta_timezone_offset,meta_screen_width,meta_screen_height,meta_scroll_width,meta_scroll_height,meta_window_inner_width,meta_window_inner_height,meta_device_pixel_ratio,meta_labjs_build_flavor,meta_labjs_build_commit
8e08c,Introduction delayed retrieval,canvas.Screen,0,weiter,keypress(Space),response,70592.199999952,656.89999997616,432.1,665.6,71257.799999952,71263.100000024,2024-02-19T21:13:28Z,71286,NA,NA,NA,NA,NA,NA,NA,NA,NA,NULL,152,2,20.2.4,https://neurocog.fernuni.ch/studies/vweber/jbaenninger/delayed/index.html?vp=152&sess=2,"Mozilla/5.0 (Windows NT 10.0; Win64; x64) AppleWebKit/537.36 (KHTML, like Gecko) Chrome/121.0.0.0 Safari/537.36 Edg/121.0.0.0",Win32,de,de-CH,Europe/Zurich,-60,1280,800,630,620,630,668,1.5,production,f5b4a49f956347addd546a832a3327688c2c0fef
8e08c,Deep Question,html.Page,1_0_0_0,NA,NA,form submission,30804.600000024,71263.5,71261.7,71286,102090.60000002,102091,2024-02-19T21:13:59Z,102114.5,Prüfung,mtihani,d,mkulima,mtizamo,ufumbuzi,mthani,NA,NA,NULL,NA,NA,NA,NA,NA,NA,NA,NA,NA,NA,NA,NA,NA,NA,NA,NA,NA,NA,NA
8e08c,Save data screen,canvas.Screen,1_0_0_1,NA,NA,timeout,499.7,102092.19999993,102082.946,102114.5,102597.5,102599.5,2024-02-19T21:14:00Z,102614.2,Prüfung,mtihani,d,mkulima,mtizamo,ufumbuzi,NA,NA,0,NULL,NA,NA,NA,NA,NA,NA,NA,NA,NA,NA,NA,NA,NA,NA,NA,NA,NA,NA,NA
8e08c,deep,flow.Sequence,1_0_0,NA,NA,completion,31311.5,71263.5,71261.7,71286,102597.5,102599.79999995,2024-02-19T21:14:00Z,102614.2,Prüfung,mtihani,d,mkulima,mtizamo,ufumbuzi,NA,NA,NA,NULL,NA,NA,NA,NA,NA,NA,NA,NA,NA,NA,NA,NA,NA,NA,NA,NA,NA,NA,NA
8e08c,task,flow.Sequence,1_0,NA,NA,completion,31311.5,71263.5,71261.7,71286,102597.5,102599.89999998,2024-02-19T21:14:00Z,102614.2,Prüfung,mtihani,d,mkulima,mtizamo,ufumbuzi,NA,NA,NA,NULL,NA,NA,NA,NA,NA,NA,NA,NA,NA,NA,NA,NA,NA,NA,NA,NA,NA,NA,NA
8e08c,Deep Question,html.Page,1_1_0_0,NA,NA,form submission,41708.999999928,102600.19999993,102597.5,102614.2,144323.19999993,144323.60000002,2024-02-19T21:14:41Z,144337.7,Können,unaweza,d,kiongozi,bustani,mienendo,unaveza,NA,NA,NULL,NA,NA,NA,NA,NA,NA,NA,NA,NA,NA,NA,NA,NA,NA,NA,NA,NA,NA,NA
8e08c,Save data screen,canvas.Screen,1_1_0_1,NA,NA,timeout,495.79999999999,144326.19999993,144321.2,144337.7,144816.6,144818,2024-02-19T21:14:42Z,144833.5,Können,unaweza,d,kiongozi,bustani,mienendo,NA,NA,0,NULL,NA,NA,NA,NA,NA,NA,NA,NA,NA,NA,NA,NA,NA,NA,NA,NA,NA,NA,NA
8e08c,deep,flow.Sequence,1_1_0,NA,NA,completion,42202.4,102600.10000002,102597.5,102614.2,144816.6,144818.29999995,2024-02-19T21:14:42Z,144833.5,Können,unaweza,d,kiongozi,bustani,mienendo,NA,NA,NA,NULL,NA,NA,NA,NA,NA,NA,NA,NA,NA,NA,NA,NA,NA,NA,NA,NA,NA,NA,NA
8e08c,task,flow.Sequence,1_1,NA,NA,completion,42202.4,102600,102597.5,102614.2,144816.6,144818.5,2024-02-19T21:14:42Z,144833.5,Können,unaweza,d,kiongozi,bustani,mienendo,NA,NA,NA,NULL,NA,NA,NA,NA,NA,NA,NA,NA,NA,NA,NA,NA,NA,NA,NA,NA,NA,NA,NA
8e08c,Deep Question,html.Page,1_2_0_0,NA,NA,form submission,23084.399999976,144818.69999993,144816.6,144833.5,167917.89999998,167918.29999995,2024-02-19T21:15:05Z,167920.3,Kontrolle,kudhibiti,s,mbinguni,kufunga,utegemezi,buhani,NA,NA,NULL,NA,NA,NA,NA,NA,NA,NA,NA,NA,NA,NA,NA,NA,NA,NA,NA,NA,NA,NA
8e08c,Save data screen,canvas.Screen,1_2_0_1,NA,NA,timeout,499.5,167920.5,167906.194,167920.3,168403.2,168406.39999998,2024-02-19T21:15:05Z,168419.8,Kontrolle,kudhibiti,s,mbinguni,kufunga,utegemezi,NA,NA,0,NULL,NA,NA,NA,NA,NA,NA,NA,NA,NA,NA,NA,NA,NA,NA,NA,NA,NA,NA,NA
8e08c,deep,flow.Sequence,1_2_0,NA,NA,completion,23569.7,144818.5,144816.6,144833.5,168403.2,168406.69999993,2024-02-19T21:15:05Z,168419.8,Kontrolle,kudhibiti,s,mbinguni,kufunga,utegemezi,NA,NA,NA,NULL,NA,NA,NA,NA,NA,NA,NA,NA,NA,NA,NA,NA,NA,NA,NA,NA,NA,NA,NA
8e08c,task,flow.Sequence,1_2,NA,NA,completion,23569.7,144818.5,144816.6,144833.5,168403.2,168406.69999993,2024-02-19T21:15:05Z,168419.8,Kontrolle,kudhibiti,s,mbinguni,kufunga,utegemezi,NA,NA,NA,NULL,NA,NA,NA,NA,NA,NA,NA,NA,NA,NA,NA,NA,NA,NA,NA,NA,NA,NA,NA
8e08c,Deep Question,html.Page,1_3_0_0,NA,NA,form submission,14130.300000024,168406.89999998,168403.2,168419.8,182550.10000002,182550.5,2024-02-19T21:15:20Z,182555.9,Verzögerung,kuchelewa,s,mwakilishi,mwanauchumi,jaribio,awasa,NA,NA,NULL,NA,NA,NA,NA,NA,NA,NA,NA,NA,NA,NA,NA,NA,NA,NA,NA,NA,NA,NA
8e08c,Save data screen,canvas.Screen,1_3_0_1,NA,NA,timeout,500.60000000001,182552.79999995,182547.562,182555.9,183040.2,183042.79999995,2024-02-19T21:15:20Z,183056.5,Verzögerung,kuchelewa,s,mwakilishi,mwanauchumi,jaribio,NA,NA,0,NULL,NA,NA,NA,NA,NA,NA,NA,NA,NA,NA,NA,NA,NA,NA,NA,NA,NA,NA,NA
8e08c,deep,flow.Sequence,1_3_0,NA,NA,completion,14620.4,168406.89999998,168403.2,168419.8,183040.2,183043,2024-02-19T21:15:20Z,183056.5,Verzögerung,kuchelewa,s,mwakilishi,mwanauchumi,jaribio,NA,NA,NA,NULL,NA,NA,NA,NA,NA,NA,NA,NA,NA,NA,NA,NA,NA,NA,NA,NA,NA,NA,NA
8e08c,task,flow.Sequence,1_3,NA,NA,completion,14620.4,168406.89999998,168403.2,168419.8,183040.2,183043.19999993,2024-02-19T21:15:20Z,183056.5,Verzögerung,kuchelewa,s,mwakilishi,mwanauchumi,jaribio,NA,NA,NA,NULL,NA,NA,NA,NA,NA,NA,NA,NA,NA,NA,NA,NA,NA,NA,NA,NA,NA,NA,NA
8e08c,Deep Question,html.Page,1_4_0_0,NA,NA,form submission,60363.600000024,183043.29999995,183040.2,183056.5,243420.10000002,243420.39999998,2024-02-19T21:16:20Z,243430,Aufstand,ugomaji,d,mazidio,msingi,kujieleza,urusawa,NA,NA,NULL,NA,NA,NA,NA,NA,NA,NA,NA,NA,NA,NA,NA,NA,NA,NA,NA,NA,NA,NA
8e08c,Save data screen,canvas.Screen,1_4_0_1,NA,NA,timeout,495,243422.89999998,243413.33,243430,243908.3,243909.79999995,2024-02-19T21:16:21Z,243925,Aufstand,ugomaji,d,mazidio,msingi,kujieleza,NA,NA,0,NULL,NA,NA,NA,NA,NA,NA,NA,NA,NA,NA,NA,NA,NA,NA,NA,NA,NA,NA,NA
8e08c,deep,flow.Sequence,1_4_0,NA,NA,completion,60851.8,183043.29999995,183040.2,183056.5,243908.3,243910.10000002,2024-02-19T21:16:21Z,243925,Aufstand,ugomaji,d,mazidio,msingi,kujieleza,NA,NA,NA,NULL,NA,NA,NA,NA,NA,NA,NA,NA,NA,NA,NA,NA,NA,NA,NA,NA,NA,NA,NA
8e08c,task,flow.Sequence,1_4,NA,NA,completion,60851.8,183043.19999993,183040.2,183056.5,243908.3,243910.29999995,2024-02-19T21:16:21Z,243925,Aufstand,ugomaji,d,mazidio,msingi,kujieleza,NA,NA,NA,NULL,NA,NA,NA,NA,NA,NA,NA,NA,NA,NA,NA,NA,NA,NA,NA,NA,NA,NA,NA
8e08c,Deep Question,html.Page,1_5_0_0,NA,NA,form submission,27799.100000024,243910.39999998,243908.3,243925,271724.10000002,271724.29999995,2024-02-19T21:16:49Z,271725.9,Abrechnung,uhasibu,s,kusahihisha,mpambano,mashambulizi,gvfztfvhg,NA,NA,NULL,NA,NA,NA,NA,NA,NA,NA,NA,NA,NA,NA,NA,NA,NA,NA,NA,NA,NA,NA
8e08c,Save data screen,canvas.Screen,1_5_0_1,NA,NA,timeout,506.29999999999,271726,271722.496,271725.9,272215.4,272216.29999995,2024-02-19T21:16:49Z,272232.2,Abrechnung,uhasibu,s,kusahihisha,mpambano,mashambulizi,NA,NA,0,NULL,NA,NA,NA,NA,NA,NA,NA,NA,NA,NA,NA,NA,NA,NA,NA,NA,NA,NA,NA
8e08c,deep,flow.Sequence,1_5_0,NA,NA,completion,28290.4,243910.39999998,243908.3,243925,272215.4,272216.39999998,2024-02-19T21:16:49Z,272232.2,Abrechnung,uhasibu,s,kusahihisha,mpambano,mashambulizi,NA,NA,NA,NULL,NA,NA,NA,NA,NA,NA,NA,NA,NA,NA,NA,NA,NA,NA,NA,NA,NA,NA,NA
8e08c,task,flow.Sequence,1_5,NA,NA,completion,28290.4,243910.29999995,243908.3,243925,272215.4,272216.5,2024-02-19T21:16:49Z,272232.2,Abrechnung,uhasibu,s,kusahihisha,mpambano,mashambulizi,NA,NA,NA,NULL,NA,NA,NA,NA,NA,NA,NA,NA,NA,NA,NA,NA,NA,NA,NA,NA,NA,NA,NA
8e08c,Deep Question,html.Page,1_6_0_0,NA,NA,form submission,29629.699999976,272216.60000002,272215.4,272232.2,301861.89999998,301862.10000002,2024-02-19T21:17:19Z,301864,System,maongozi,d,chokochoko,nuksani,mitaani,maongozi,NA,NA,NULL,NA,NA,NA,NA,NA,NA,NA,NA,NA,NA,NA,NA,NA,NA,NA,NA,NA,NA,NA
8e08c,Save data screen,canvas.Screen,1_6_0_1,NA,NA,timeout,493.59999999998,301864.39999998,301860.462,301864,302340.7,302341.89999998,2024-02-19T21:17:19Z,302357.6,System,maongozi,d,chokochoko,nuksani,mitaani,NA,NA,1,NULL,NA,NA,NA,NA,NA,NA,NA,NA,NA,NA,NA,NA,NA,NA,NA,NA,NA,NA,NA
8e08c,deep,flow.Sequence,1_6_0,NA,NA,completion,30108.5,272216.60000002,272215.4,272232.2,302340.7,302342.10000002,2024-02-19T21:17:19Z,302357.6,System,maongozi,d,chokochoko,nuksani,mitaani,NA,NA,NA,NULL,NA,NA,NA,NA,NA,NA,NA,NA,NA,NA,NA,NA,NA,NA,NA,NA,NA,NA,NA
8e08c,task,flow.Sequence,1_6,NA,NA,completion,30108.5,272216.5,272215.4,272232.2,302340.7,302342.29999995,2024-02-19T21:17:19Z,302357.6,System,maongozi,d,chokochoko,nuksani,mitaani,NA,NA,NA,NULL,NA,NA,NA,NA,NA,NA,NA,NA,NA,NA,NA,NA,NA,NA,NA,NA,NA,NA,NA
8e08c,Deep Question,html.Page,1_7_0_0,NA,NA,form submission,5886.6999999523,302342.39999998,302340.7,302357.6,308244.29999995,308244.79999995,2024-02-19T21:17:25Z,308248.1,Kreativität,ubunifu,d,mratibu,mwendelezo,makubaliano,shbwcb,NA,NA,NULL,NA,NA,NA,NA,NA,NA,NA,NA,NA,NA,NA,NA,NA,NA,NA,NA,NA,NA,NA
8e08c,Save data screen,canvas.Screen,1_7_0_1,NA,NA,timeout,505.5,308246.89999998,308241.096,308248.1,308737,308738.29999995,2024-02-19T21:17:26Z,308753.6,Kreativität,ubunifu,d,mratibu,mwendelezo,makubaliano,NA,NA,0,NULL,NA,NA,NA,NA,NA,NA,NA,NA,NA,NA,NA,NA,NA,NA,NA,NA,NA,NA,NA
8e08c,deep,flow.Sequence,1_7_0,NA,NA,completion,6379.4,302342.39999998,302340.7,302357.6,308737,308738.60000002,2024-02-19T21:17:26Z,308753.6,Kreativität,ubunifu,d,mratibu,mwendelezo,makubaliano,NA,NA,NA,NULL,NA,NA,NA,NA,NA,NA,NA,NA,NA,NA,NA,NA,NA,NA,NA,NA,NA,NA,NA
8e08c,task,flow.Sequence,1_7,NA,NA,completion,6379.4,302342.29999995,302340.7,302357.6,308737,308738.79999995,2024-02-19T21:17:26Z,308753.6,Kreativität,ubunifu,d,mratibu,mwendelezo,makubaliano,NA,NA,NA,NULL,NA,NA,NA,NA,NA,NA,NA,NA,NA,NA,NA,NA,NA,NA,NA,NA,NA,NA,NA
8e08c,Deep Question,html.Page,1_8_0_0,NA,NA,form submission,3931.1999999523,308738.89999998,308737,308753.6,312684.79999995,312685.19999993,2024-02-19T21:17:30Z,312691.1,Übersicht,kilindo,s,mgusano,chipukizi,kulinganisha,iuefhwiqurenbv,NA,NA,NULL,NA,NA,NA,NA,NA,NA,NA,NA,NA,NA,NA,NA,NA,NA,NA,NA,NA,NA,NA
8e08c,Save data screen,canvas.Screen,1_8_0_1,NA,NA,timeout,493.80000000005,312687.39999998,312677.756,312691.1,313167.9,313169.29999995,2024-02-19T21:17:30Z,313184.9,Übersicht,kilindo,s,mgusano,chipukizi,kulinganisha,NA,NA,0,NULL,NA,NA,NA,NA,NA,NA,NA,NA,NA,NA,NA,NA,NA,NA,NA,NA,NA,NA,NA
8e08c,deep,flow.Sequence,1_8_0,NA,NA,completion,4414.3,308738.89999998,308737,308753.6,313167.9,313169.69999993,2024-02-19T21:17:30Z,313184.9,Übersicht,kilindo,s,mgusano,chipukizi,kulinganisha,NA,NA,NA,NULL,NA,NA,NA,NA,NA,NA,NA,NA,NA,NA,NA,NA,NA,NA,NA,NA,NA,NA,NA
8e08c,task,flow.Sequence,1_8,NA,NA,completion,4414.3,308738.89999998,308737,308753.6,313167.9,313169.79999995,2024-02-19T21:17:30Z,313184.9,Übersicht,kilindo,s,mgusano,chipukizi,kulinganisha,NA,NA,NA,NULL,NA,NA,NA,NA,NA,NA,NA,NA,NA,NA,NA,NA,NA,NA,NA,NA,NA,NA,NA
8e08c,Deep Question,html.Page,1_9_0_0,NA,NA,form submission,41583.299999928,313169.89999998,313167.9,313184.9,354768.19999993,354768.39999998,2024-02-19T21:18:12Z,354783.1,Körper,kiwiliwili,s,mapambano,mpatanishi,kiolezo,kiwiliwi,NA,NA,NULL,NA,NA,NA,NA,NA,NA,NA,NA,NA,NA,NA,NA,NA,NA,NA,NA,NA,NA,NA
8e08c,Save data screen,canvas.Screen,1_9_0_1,NA,NA,timeout,501.70000000001,354770.69999993,354760.7,354783.1,355268,355270.10000002,2024-02-19T21:18:12Z,355284.8,Körper,kiwiliwili,s,mapambano,mpatanishi,kiolezo,NA,NA,0,NULL,NA,NA,NA,NA,NA,NA,NA,NA,NA,NA,NA,NA,NA,NA,NA,NA,NA,NA,NA
8e08c,deep,flow.Sequence,1_9_0,NA,NA,completion,42083.1,313169.89999998,313167.9,313184.9,355268,355270.29999995,2024-02-19T21:18:12Z,355284.8,Körper,kiwiliwili,s,mapambano,mpatanishi,kiolezo,NA,NA,NA,NULL,NA,NA,NA,NA,NA,NA,NA,NA,NA,NA,NA,NA,NA,NA,NA,NA,NA,NA,NA
8e08c,task,flow.Sequence,1_9,NA,NA,completion,42083.1,313169.79999995,313167.9,313184.9,355268,355270.29999995,2024-02-19T21:18:12Z,355284.8,Körper,kiwiliwili,s,mapambano,mpatanishi,kiolezo,NA,NA,NA,NULL,NA,NA,NA,NA,NA,NA,NA,NA,NA,NA,NA,NA,NA,NA,NA,NA,NA,NA,NA
8e08c,Deep Question,html.Page,1_10_0_0,NA,NA,form submission,34515.499999952,355270.60000002,355268,355284.8,389800.29999995,389800.60000002,2024-02-19T21:18:47Z,389812,Kultur,utamaduni,s,shetani,gerezani,mazingira,utumanu,NA,NA,NULL,NA,NA,NA,NA,NA,NA,NA,NA,NA,NA,NA,NA,NA,NA,NA,NA,NA,NA,NA
8e08c,Save data screen,canvas.Screen,1_10_0_1,NA,NA,timeout,492.29999999999,389802.69999993,389796.1,389812,390287.6,390289.60000002,2024-02-19T21:18:47Z,390304.3,Kultur,utamaduni,s,shetani,gerezani,mazingira,NA,NA,0,NULL,NA,NA,NA,NA,NA,NA,NA,NA,NA,NA,NA,NA,NA,NA,NA,NA,NA,NA,NA
8e08c,deep,flow.Sequence,1_10_0,NA,NA,completion,35002.8,355270.5,355268,355284.8,390287.6,390289.69999993,2024-02-19T21:18:47Z,390304.3,Kultur,utamaduni,s,shetani,gerezani,mazingira,NA,NA,NA,NULL,NA,NA,NA,NA,NA,NA,NA,NA,NA,NA,NA,NA,NA,NA,NA,NA,NA,NA,NA
8e08c,task,flow.Sequence,1_10,NA,NA,completion,35002.8,355270.39999998,355268,355284.8,390287.6,390289.89999998,2024-02-19T21:18:47Z,390304.3,Kultur,utamaduni,s,shetani,gerezani,mazingira,NA,NA,NA,NULL,NA,NA,NA,NA,NA,NA,NA,NA,NA,NA,NA,NA,NA,NA,NA,NA,NA,NA,NA
8e08c,Deep Question,html.Page,1_11_0_0,NA,NA,form submission,8579.7,390289.89999998,390287.6,390304.3,398884,398884.19999993,2024-02-19T21:18:56Z,398892.2,Sänger,mwimbaji,d,msichana,shughuli,mshirika,fcbhqiwevq,NA,NA,NULL,NA,NA,NA,NA,NA,NA,NA,NA,NA,NA,NA,NA,NA,NA,NA,NA,NA,NA,NA
8e08c,Save data screen,canvas.Screen,1_11_0_1,NA,NA,timeout,501.09999999998,398886.39999998,398890.93,398892.2,399377.1,399379.60000002,2024-02-19T21:18:56Z,399393.3,Sänger,mwimbaji,d,msichana,shughuli,mshirika,NA,NA,0,NULL,NA,NA,NA,NA,NA,NA,NA,NA,NA,NA,NA,NA,NA,NA,NA,NA,NA,NA,NA
8e08c,deep,flow.Sequence,1_11_0,NA,NA,completion,9072.8,390289.89999998,390287.6,390304.3,399377.1,399379.79999995,2024-02-19T21:18:56Z,399393.3,Sänger,mwimbaji,d,msichana,shughuli,mshirika,NA,NA,NA,NULL,NA,NA,NA,NA,NA,NA,NA,NA,NA,NA,NA,NA,NA,NA,NA,NA,NA,NA,NA
8e08c,task,flow.Sequence,1_11,NA,NA,completion,9072.8,390289.89999998,390287.6,390304.3,399377.1,399380,2024-02-19T21:18:56Z,399393.3,Sänger,mwimbaji,d,msichana,shughuli,mshirika,NA,NA,NA,NULL,NA,NA,NA,NA,NA,NA,NA,NA,NA,NA,NA,NA,NA,NA,NA,NA,NA,NA,NA
8e08c,Deep Question,html.Page,1_12_0_0,NA,NA,form submission,52906.099999976,399380.19999993,399377.1,399393.3,452299.39999998,452299.69999993,2024-02-19T21:19:49Z,452321.7,Gefährdung,kuhatarisha,s,uchokozi,udhaifu,makorowezo,jfvbefbvw,NA,NA,NULL,NA,NA,NA,NA,NA,NA,NA,NA,NA,NA,NA,NA,NA,NA,NA,NA,NA,NA,NA
8e08c,Save data screen,canvas.Screen,1_12_0_1,NA,NA,timeout,492.79999999999,452301.89999998,452287.088,452321.7,452797.8,452799.19999993,2024-02-19T21:19:50Z,452814.5,Gefährdung,kuhatarisha,s,uchokozi,udhaifu,makorowezo,NA,NA,0,NULL,NA,NA,NA,NA,NA,NA,NA,NA,NA,NA,NA,NA,NA,NA,NA,NA,NA,NA,NA
8e08c,deep,flow.Sequence,1_12_0,NA,NA,completion,53404.5,399380.10000002,399377.1,399393.3,452797.8,452799.69999993,2024-02-19T21:19:50Z,452814.5,Gefährdung,kuhatarisha,s,uchokozi,udhaifu,makorowezo,NA,NA,NA,NULL,NA,NA,NA,NA,NA,NA,NA,NA,NA,NA,NA,NA,NA,NA,NA,NA,NA,NA,NA
8e08c,task,flow.Sequence,1_12,NA,NA,completion,53404.5,399380.10000002,399377.1,399393.3,452797.8,452799.89999998,2024-02-19T21:19:50Z,452814.5,Gefährdung,kuhatarisha,s,uchokozi,udhaifu,makorowezo,NA,NA,NA,NULL,NA,NA,NA,NA,NA,NA,NA,NA,NA,NA,NA,NA,NA,NA,NA,NA,NA,NA,NA
8e08c,Deep Question,html.Page,1_13_0_0,NA,NA,form submission,51221.100000024,452800.29999995,452797.8,452814.5,504035.60000002,504036,2024-02-19T21:20:41Z,504044.8,Angreifer,mshambulizi,d,kitengo,tasinia,usafirishaji,vbufbvi,NA,NA,NULL,NA,NA,NA,NA,NA,NA,NA,NA,NA,NA,NA,NA,NA,NA,NA,NA,NA,NA,NA
8e08c,Save data screen,canvas.Screen,1_13_0_1,NA,NA,timeout,498,504038.29999995,504036.624,504044.8,504526.2,504528.39999998,2024-02-19T21:20:42Z,504542.8,Angreifer,mshambulizi,d,kitengo,tasinia,usafirishaji,NA,NA,0,NULL,NA,NA,NA,NA,NA,NA,NA,NA,NA,NA,NA,NA,NA,NA,NA,NA,NA,NA,NA
8e08c,deep,flow.Sequence,1_13_0,NA,NA,completion,51711.7,452800.19999993,452797.8,452814.5,504526.2,504528.60000002,2024-02-19T21:20:42Z,504542.8,Angreifer,mshambulizi,d,kitengo,tasinia,usafirishaji,NA,NA,NA,NULL,NA,NA,NA,NA,NA,NA,NA,NA,NA,NA,NA,NA,NA,NA,NA,NA,NA,NA,NA
8e08c,task,flow.Sequence,1_13,NA,NA,completion,51711.7,452800,452797.8,452814.5,504526.2,504528.79999995,2024-02-19T21:20:42Z,504542.8,Angreifer,mshambulizi,d,kitengo,tasinia,usafirishaji,NA,NA,NA,NULL,NA,NA,NA,NA,NA,NA,NA,NA,NA,NA,NA,NA,NA,NA,NA,NA,NA,NA,NA
8e08c,Deep Question,html.Page,1_14_0_0,NA,NA,form submission,22508.599999976,504528.89999998,504526.2,504542.8,527051.39999998,527051.69999993,2024-02-19T21:21:04Z,527077.4,Kanzler,diwani,s,rasilmali,mahitaji,maabudu,diwani,NA,NA,NULL,NA,NA,NA,NA,NA,NA,NA,NA,NA,NA,NA,NA,NA,NA,NA,NA,NA,NA,NA
8e08c,Save data screen,canvas.Screen,1_14_0_1,NA,NA,timeout,495.09999999998,527054,527061.166,527077.4,527556.1,527557.29999995,2024-02-19T21:21:05Z,527572.5,Kanzler,diwani,s,rasilmali,mahitaji,maabudu,NA,NA,1,NULL,NA,NA,NA,NA,NA,NA,NA,NA,NA,NA,NA,NA,NA,NA,NA,NA,NA,NA,NA
8e08c,deep,flow.Sequence,1_14_0,NA,NA,completion,23013.3,504528.89999998,504526.2,504542.8,527556.1,527557.5,2024-02-19T21:21:05Z,527572.5,Kanzler,diwani,s,rasilmali,mahitaji,maabudu,NA,NA,NA,NULL,NA,NA,NA,NA,NA,NA,NA,NA,NA,NA,NA,NA,NA,NA,NA,NA,NA,NA,NA
8e08c,task,flow.Sequence,1_14,NA,NA,completion,23013.3,504528.89999998,504526.2,504542.8,527556.1,527557.60000002,2024-02-19T21:21:05Z,527572.5,Kanzler,diwani,s,rasilmali,mahitaji,maabudu,NA,NA,NA,NULL,NA,NA,NA,NA,NA,NA,NA,NA,NA,NA,NA,NA,NA,NA,NA,NA,NA,NA,NA
8e08c,Deep Question,html.Page,1_15_0_0,NA,NA,form submission,22677.899999976,527557.79999995,527556.1,527572.5,550250.39999998,550250.79999995,2024-02-19T21:21:27Z,550259.6,Lawine,banguko,d,maambukizi,usuluhishi,chekechea,banguku,NA,NA,NULL,NA,NA,NA,NA,NA,NA,NA,NA,NA,NA,NA,NA,NA,NA,NA,NA,NA,NA,NA
8e08c,Save data screen,canvas.Screen,1_15_0_1,NA,NA,timeout,499.5,550253,550249.962,550259.6,550742.3,550744.10000002,2024-02-19T21:21:28Z,550759.1,Lawine,banguko,d,maambukizi,usuluhishi,chekechea,NA,NA,0,NULL,NA,NA,NA,NA,NA,NA,NA,NA,NA,NA,NA,NA,NA,NA,NA,NA,NA,NA,NA
8e08c,deep,flow.Sequence,1_15_0,NA,NA,completion,23169.8,527557.69999993,527556.1,527572.5,550742.3,550744.60000002,2024-02-19T21:21:28Z,550759.1,Lawine,banguko,d,maambukizi,usuluhishi,chekechea,NA,NA,NA,NULL,NA,NA,NA,NA,NA,NA,NA,NA,NA,NA,NA,NA,NA,NA,NA,NA,NA,NA,NA
8e08c,task,flow.Sequence,1_15,NA,NA,completion,23169.8,527557.60000002,527556.1,527572.5,550742.3,550744.89999998,2024-02-19T21:21:28Z,550759.1,Lawine,banguko,d,maambukizi,usuluhishi,chekechea,NA,NA,NA,NULL,NA,NA,NA,NA,NA,NA,NA,NA,NA,NA,NA,NA,NA,NA,NA,NA,NA,NA,NA
8e08c,retrieval block 1 (cued recall),flow.Loop,1,NA,NA,completion,479456.3,71263.399999976,71261.7,71286,550742.3,550745.10000002,2024-02-19T21:21:28Z,550759.1,NA,NA,NA,NA,NA,NA,NA,NA,NA,NULL,NA,NA,NA,NA,NA,NA,NA,NA,NA,NA,NA,NA,NA,NA,NA,NA,NA,NA,NA
8e08c,Shallow Question,html.Page,2_0_0_0,NA,NA,form submission,6301.7999999762,550745.29999995,550742.3,550759.1,557060.89999998,557061.19999993,2024-02-19T21:21:34Z,557076.7,Prüfung,mtihani,d,mkulima,mtizamo,ufumbuzi,mtihani,NA,NA,"c(""distractor1"", ""distractor2"", ""distractor3"")",NA,NA,NA,NA,NA,NA,NA,NA,NA,NA,NA,NA,NA,NA,NA,NA,NA,NA,NA
8e08c,Save data screen,canvas.Screen,2_0_0_1,NA,NA,timeout,492.20000000007,557063.60000002,557051.096,557076.7,557552.4,557555.79999995,2024-02-19T21:21:35Z,557568.9,Prüfung,mtihani,d,mkulima,mtizamo,ufumbuzi,NA,NA,1,"c(""distractor1"", ""distractor2"", ""distractor3"")",NA,NA,NA,NA,NA,NA,NA,NA,NA,NA,NA,NA,NA,NA,NA,NA,NA,NA,NA
8e08c,shallow,flow.Sequence,2_0_0,NA,NA,completion,6793.3,550745.29999995,550742.3,550759.1,557552.4,557556,2024-02-19T21:21:35Z,557568.9,Prüfung,mtihani,d,mkulima,mtizamo,ufumbuzi,NA,NA,NA,"c(""distractor1"", ""distractor2"", ""distractor3"")",NA,NA,NA,NA,NA,NA,NA,NA,NA,NA,NA,NA,NA,NA,NA,NA,NA,NA,NA
8e08c,task,flow.Sequence,2_0,NA,NA,completion,6793.3,550745.19999993,550742.3,550759.1,557552.4,557556.19999993,2024-02-19T21:21:35Z,557568.9,Prüfung,mtihani,d,mkulima,mtizamo,ufumbuzi,NA,NA,NA,"c(""distractor1"", ""distractor2"", ""distractor3"")",NA,NA,NA,NA,NA,NA,NA,NA,NA,NA,NA,NA,NA,NA,NA,NA,NA,NA,NA
8e08c,Shallow Question,html.Page,2_1_0_0,NA,NA,form submission,9727.8999999523,557556.29999995,557552.4,557568.9,567296.79999995,567297,2024-02-19T21:21:44Z,567315.8,Gefährdung,kuhatarisha,s,uchokozi,udhaifu,makorowezo,kuhatarisha,NA,NA,"c(""distractor1"", ""distractor2"", ""distractor3"")",NA,NA,NA,NA,NA,NA,NA,NA,NA,NA,NA,NA,NA,NA,NA,NA,NA,NA,NA
8e08c,Save data screen,canvas.Screen,2_1_0_1,NA,NA,timeout,493.29999999993,567299.29999995,567299.026,567315.8,567792.3,567793.69999993,2024-02-19T21:21:45Z,567809.1,Gefährdung,kuhatarisha,s,uchokozi,udhaifu,makorowezo,NA,NA,1,"c(""distractor1"", ""distractor2"", ""distractor3"")",NA,NA,NA,NA,NA,NA,NA,NA,NA,NA,NA,NA,NA,NA,NA,NA,NA,NA,NA
8e08c,shallow,flow.Sequence,2_1_0,NA,NA,completion,10223.4,557556.29999995,557552.4,557568.9,567792.3,567793.89999998,2024-02-19T21:21:45Z,567809.1,Gefährdung,kuhatarisha,s,uchokozi,udhaifu,makorowezo,NA,NA,NA,"c(""distractor1"", ""distractor2"", ""distractor3"")",NA,NA,NA,NA,NA,NA,NA,NA,NA,NA,NA,NA,NA,NA,NA,NA,NA,NA,NA
8e08c,task,flow.Sequence,2_1,NA,NA,completion,10223.4,557556.29999995,557552.4,557568.9,567792.3,567794.10000002,2024-02-19T21:21:45Z,567809.1,Gefährdung,kuhatarisha,s,uchokozi,udhaifu,makorowezo,NA,NA,NA,"c(""distractor1"", ""distractor2"", ""distractor3"")",NA,NA,NA,NA,NA,NA,NA,NA,NA,NA,NA,NA,NA,NA,NA,NA,NA,NA,NA
8e08c,Shallow Question,html.Page,2_2_0_0,NA,NA,form submission,5407.0999999285,567794.10000002,567792.3,567809.1,573216.19999993,573216.69999993,2024-02-19T21:21:50Z,573240.7,Können,unaweza,d,kiongozi,bustani,mienendo,unaweza,NA,NA,"c(""distractor1"", ""distractor2"", ""distractor3"")",NA,NA,NA,NA,NA,NA,NA,NA,NA,NA,NA,NA,NA,NA,NA,NA,NA,NA,NA
8e08c,Save data screen,canvas.Screen,2_2_0_1,NA,NA,timeout,502.60000000009,573219.19999993,573208.728,573240.7,573726.8,573729.19999993,2024-02-19T21:21:51Z,573743.3,Können,unaweza,d,kiongozi,bustani,mienendo,NA,NA,1,"c(""distractor1"", ""distractor2"", ""distractor3"")",NA,NA,NA,NA,NA,NA,NA,NA,NA,NA,NA,NA,NA,NA,NA,NA,NA,NA,NA
8e08c,shallow,flow.Sequence,2_2_0,NA,NA,completion,5917.7000000001,567794.10000002,567792.3,567809.1,573726.8,573729.39999998,2024-02-19T21:21:51Z,573743.3,Können,unaweza,d,kiongozi,bustani,mienendo,NA,NA,NA,"c(""distractor1"", ""distractor2"", ""distractor3"")",NA,NA,NA,NA,NA,NA,NA,NA,NA,NA,NA,NA,NA,NA,NA,NA,NA,NA,NA
8e08c,task,flow.Sequence,2_2,NA,NA,completion,5917.7000000001,567794.10000002,567792.3,567809.1,573726.8,573729.5,2024-02-19T21:21:51Z,573743.3,Können,unaweza,d,kiongozi,bustani,mienendo,NA,NA,NA,"c(""distractor1"", ""distractor2"", ""distractor3"")",NA,NA,NA,NA,NA,NA,NA,NA,NA,NA,NA,NA,NA,NA,NA,NA,NA,NA,NA
8e08c,Shallow Question,html.Page,2_3_0_0,NA,NA,form submission,7212.8000000238,573729.69999993,573726.8,573743.3,580956.10000002,580956.39999998,2024-02-19T21:21:58Z,580969.8,Kultur,utamaduni,s,shetani,gerezani,mazingira,utamaduni,NA,NA,"c(""distractor1"", ""distractor2"", ""distractor3"")",NA,NA,NA,NA,NA,NA,NA,NA,NA,NA,NA,NA,NA,NA,NA,NA,NA,NA,NA
8e08c,Save data screen,canvas.Screen,2_3_0_1,NA,NA,timeout,492.39999999991,580958.5,580956.196,580969.8,581445.7,581447,2024-02-19T21:21:59Z,581462.2,Kultur,utamaduni,s,shetani,gerezani,mazingira,NA,NA,1,"c(""distractor1"", ""distractor2"", ""distractor3"")",NA,NA,NA,NA,NA,NA,NA,NA,NA,NA,NA,NA,NA,NA,NA,NA,NA,NA,NA
8e08c,shallow,flow.Sequence,2_3_0,NA,NA,completion,7702.3999999999,573729.69999993,573726.8,573743.3,581445.7,581447.5,2024-02-19T21:21:59Z,581462.2,Kultur,utamaduni,s,shetani,gerezani,mazingira,NA,NA,NA,"c(""distractor1"", ""distractor2"", ""distractor3"")",NA,NA,NA,NA,NA,NA,NA,NA,NA,NA,NA,NA,NA,NA,NA,NA,NA,NA,NA
8e08c,task,flow.Sequence,2_3,NA,NA,completion,7702.3999999999,573729.60000002,573726.8,573743.3,581445.7,581447.60000002,2024-02-19T21:21:59Z,581462.2,Kultur,utamaduni,s,shetani,gerezani,mazingira,NA,NA,NA,"c(""distractor1"", ""distractor2"", ""distractor3"")",NA,NA,NA,NA,NA,NA,NA,NA,NA,NA,NA,NA,NA,NA,NA,NA,NA,NA,NA
8e08c,Shallow Question,html.Page,2_4_0_0,NA,NA,form submission,6160.9999999285,581447.79999995,581445.7,581462.2,587623.19999993,587623.5,2024-02-19T21:22:05Z,587625.1,Lawine,banguko,d,maambukizi,usuluhishi,chekechea,banguko,NA,NA,"c(""distractor1"", ""distractor2"", ""distractor3"")",NA,NA,NA,NA,NA,NA,NA,NA,NA,NA,NA,NA,NA,NA,NA,NA,NA,NA,NA
8e08c,Save data screen,canvas.Screen,2_4_0_1,NA,NA,timeout,501.09999999998,587625.69999993,587621.96,587625.1,588109.7,588110.79999995,2024-02-19T21:22:05Z,588126.2,Lawine,banguko,d,maambukizi,usuluhishi,chekechea,NA,NA,1,"c(""distractor1"", ""distractor2"", ""distractor3"")",NA,NA,NA,NA,NA,NA,NA,NA,NA,NA,NA,NA,NA,NA,NA,NA,NA,NA,NA
8e08c,shallow,flow.Sequence,2_4_0,NA,NA,completion,6647.5,581447.79999995,581445.7,581462.2,588109.7,588111,2024-02-19T21:22:05Z,588126.2,Lawine,banguko,d,maambukizi,usuluhishi,chekechea,NA,NA,NA,"c(""distractor1"", ""distractor2"", ""distractor3"")",NA,NA,NA,NA,NA,NA,NA,NA,NA,NA,NA,NA,NA,NA,NA,NA,NA,NA,NA
8e08c,task,flow.Sequence,2_4,NA,NA,completion,6647.5,581447.69999993,581445.7,581462.2,588109.7,588111.10000002,2024-02-19T21:22:05Z,588126.2,Lawine,banguko,d,maambukizi,usuluhishi,chekechea,NA,NA,NA,"c(""distractor1"", ""distractor2"", ""distractor3"")",NA,NA,NA,NA,NA,NA,NA,NA,NA,NA,NA,NA,NA,NA,NA,NA,NA,NA,NA
8e08c,Shallow Question,html.Page,2_5_0_0,NA,NA,form submission,6346.0999999524,588111.29999995,588109.7,588126.2,594472.29999995,594472.60000002,2024-02-19T21:22:12Z,594480.4,Angreifer,mshambulizi,d,kitengo,tasinia,usafirishaji,mshambulizi,NA,NA,"c(""distractor1"", ""distractor2"", ""distractor3"")",NA,NA,NA,NA,NA,NA,NA,NA,NA,NA,NA,NA,NA,NA,NA,NA,NA,NA,NA
8e08c,Save data screen,canvas.Screen,2_5_0_1,NA,NA,timeout,502.69999999995,594474.60000002,594464.4,594480.4,594966.3,594967.60000002,2024-02-19T21:22:12Z,594983.1,Angreifer,mshambulizi,d,kitengo,tasinia,usafirishaji,NA,NA,1,"c(""distractor1"", ""distractor2"", ""distractor3"")",NA,NA,NA,NA,NA,NA,NA,NA,NA,NA,NA,NA,NA,NA,NA,NA,NA,NA,NA
8e08c,shallow,flow.Sequence,2_5_0,NA,NA,completion,6840.1000000001,588111.19999993,588109.7,588126.2,594966.3,594967.79999995,2024-02-19T21:22:12Z,594983.1,Angreifer,mshambulizi,d,kitengo,tasinia,usafirishaji,NA,NA,NA,"c(""distractor1"", ""distractor2"", ""distractor3"")",NA,NA,NA,NA,NA,NA,NA,NA,NA,NA,NA,NA,NA,NA,NA,NA,NA,NA,NA
8e08c,task,flow.Sequence,2_5,NA,NA,completion,6840.1000000001,588111.19999993,588109.7,588126.2,594966.3,594967.89999998,2024-02-19T21:22:12Z,594983.1,Angreifer,mshambulizi,d,kitengo,tasinia,usafirishaji,NA,NA,NA,"c(""distractor1"", ""distractor2"", ""distractor3"")",NA,NA,NA,NA,NA,NA,NA,NA,NA,NA,NA,NA,NA,NA,NA,NA,NA,NA,NA
8e08c,Shallow Question,html.Page,2_6_0_0,NA,NA,form submission,22603.000000024,594968.10000002,594966.3,594983.1,617586.10000002,617586.39999998,2024-02-19T21:22:35Z,617590.8,Abrechnung,uhasibu,s,kusahihisha,mpambano,mashambulizi,uhasibu,NA,NA,"c(""distractor1"", ""distractor2"", ""distractor3"")",NA,NA,NA,NA,NA,NA,NA,NA,NA,NA,NA,NA,NA,NA,NA,NA,NA,NA,NA
8e08c,Save data screen,canvas.Screen,2_6_0_1,NA,NA,timeout,501,617588.5,617574.928,617590.8,618075.2,618075.89999998,2024-02-19T21:22:35Z,618091.8,Abrechnung,uhasibu,s,kusahihisha,mpambano,mashambulizi,NA,NA,1,"c(""distractor1"", ""distractor2"", ""distractor3"")",NA,NA,NA,NA,NA,NA,NA,NA,NA,NA,NA,NA,NA,NA,NA,NA,NA,NA,NA
8e08c,shallow,flow.Sequence,2_6_0,NA,NA,completion,23092.1,594968.10000002,594966.3,594983.1,618075.2,618076.10000002,2024-02-19T21:22:35Z,618091.8,Abrechnung,uhasibu,s,kusahihisha,mpambano,mashambulizi,NA,NA,NA,"c(""distractor1"", ""distractor2"", ""distractor3"")",NA,NA,NA,NA,NA,NA,NA,NA,NA,NA,NA,NA,NA,NA,NA,NA,NA,NA,NA
8e08c,task,flow.Sequence,2_6,NA,NA,completion,23092.1,594968,594966.3,594983.1,618075.2,618076.19999993,2024-02-19T21:22:35Z,618091.8,Abrechnung,uhasibu,s,kusahihisha,mpambano,mashambulizi,NA,NA,NA,"c(""distractor1"", ""distractor2"", ""distractor3"")",NA,NA,NA,NA,NA,NA,NA,NA,NA,NA,NA,NA,NA,NA,NA,NA,NA,NA,NA
8e08c,Shallow Question,html.Page,2_7_0_0,NA,NA,form submission,4653.9999999523,618076.29999995,618075.2,618091.8,622745.79999995,622746,2024-02-19T21:22:40Z,622760.2,System,maongozi,d,chokochoko,nuksani,mitaani,maongozi,NA,NA,"c(""distractor1"", ""distractor2"", ""distractor3"")",NA,NA,NA,NA,NA,NA,NA,NA,NA,NA,NA,NA,NA,NA,NA,NA,NA,NA,NA
8e08c,Save data screen,canvas.Screen,2_7_0_1,NA,NA,timeout,493.40000000002,622748.10000002,622741.2,622760.2,623236.8,623237.79999995,2024-02-19T21:22:40Z,623253.6,System,maongozi,d,chokochoko,nuksani,mitaani,NA,NA,1,"c(""distractor1"", ""distractor2"", ""distractor3"")",NA,NA,NA,NA,NA,NA,NA,NA,NA,NA,NA,NA,NA,NA,NA,NA,NA,NA,NA
8e08c,shallow,flow.Sequence,2_7_0,NA,NA,completion,5145,618076.29999995,618075.2,618091.8,623236.8,623238,2024-02-19T21:22:40Z,623253.6,System,maongozi,d,chokochoko,nuksani,mitaani,NA,NA,NA,"c(""distractor1"", ""distractor2"", ""distractor3"")",NA,NA,NA,NA,NA,NA,NA,NA,NA,NA,NA,NA,NA,NA,NA,NA,NA,NA,NA
8e08c,task,flow.Sequence,2_7,NA,NA,completion,5145,618076.19999993,618075.2,618091.8,623236.8,623238.19999993,2024-02-19T21:22:40Z,623253.6,System,maongozi,d,chokochoko,nuksani,mitaani,NA,NA,NA,"c(""distractor1"", ""distractor2"", ""distractor3"")",NA,NA,NA,NA,NA,NA,NA,NA,NA,NA,NA,NA,NA,NA,NA,NA,NA,NA,NA
8e08c,Shallow Question,html.Page,2_8_0_0,NA,NA,form submission,29215.500000024,623238.29999995,623236.8,623253.6,652469.10000002,652469.39999998,2024-02-19T21:23:10Z,652471.4,Sänger,mwimbaji,d,msichana,shughuli,mshirika,mwimbaji,NA,NA,"c(""distractor1"", ""distractor2"", ""distractor3"")",NA,NA,NA,NA,NA,NA,NA,NA,NA,NA,NA,NA,NA,NA,NA,NA,NA,NA,NA
8e08c,Save data screen,canvas.Screen,2_8_0_1,NA,NA,timeout,492.90000000002,652471.79999995,652457.586,652471.4,652948,652950.39999998,2024-02-19T21:23:10Z,652964.3,Sänger,mwimbaji,d,msichana,shughuli,mshirika,NA,NA,1,"c(""distractor1"", ""distractor2"", ""distractor3"")",NA,NA,NA,NA,NA,NA,NA,NA,NA,NA,NA,NA,NA,NA,NA,NA,NA,NA,NA
8e08c,shallow,flow.Sequence,2_8_0,NA,NA,completion,29694.4,623238.29999995,623236.8,623253.6,652948,652950.60000002,2024-02-19T21:23:10Z,652964.3,Sänger,mwimbaji,d,msichana,shughuli,mshirika,NA,NA,NA,"c(""distractor1"", ""distractor2"", ""distractor3"")",NA,NA,NA,NA,NA,NA,NA,NA,NA,NA,NA,NA,NA,NA,NA,NA,NA,NA,NA
8e08c,task,flow.Sequence,2_8,NA,NA,completion,29694.4,623238.19999993,623236.8,623253.6,652948,652950.69999993,2024-02-19T21:23:10Z,652964.3,Sänger,mwimbaji,d,msichana,shughuli,mshirika,NA,NA,NA,"c(""distractor1"", ""distractor2"", ""distractor3"")",NA,NA,NA,NA,NA,NA,NA,NA,NA,NA,NA,NA,NA,NA,NA,NA,NA,NA,NA
8e08c,Shallow Question,html.Page,2_9_0_0,NA,NA,form submission,8273.5999999761,652950.89999998,652948,652964.3,661237.89999998,661238.29999995,2024-02-19T21:23:18Z,661250.1,Verzögerung,kuchelewa,s,mwakilishi,mwanauchumi,jaribio,kuchelewa,NA,NA,"c(""distractor1"", ""distractor2"", ""distractor3"")",NA,NA,NA,NA,NA,NA,NA,NA,NA,NA,NA,NA,NA,NA,NA,NA,NA,NA,NA
8e08c,Save data screen,canvas.Screen,2_9_0_1,NA,NA,timeout,495.90000000002,661240.89999998,661233.9,661250.1,661729.2,661730.5,2024-02-19T21:23:19Z,661746,Verzögerung,kuchelewa,s,mwakilishi,mwanauchumi,jaribio,NA,NA,1,"c(""distractor1"", ""distractor2"", ""distractor3"")",NA,NA,NA,NA,NA,NA,NA,NA,NA,NA,NA,NA,NA,NA,NA,NA,NA,NA,NA
8e08c,shallow,flow.Sequence,2_9_0,NA,NA,completion,8764.8999999999,652950.79999995,652948,652964.3,661729.2,661730.69999993,2024-02-19T21:23:19Z,661746,Verzögerung,kuchelewa,s,mwakilishi,mwanauchumi,jaribio,NA,NA,NA,"c(""distractor1"", ""distractor2"", ""distractor3"")",NA,NA,NA,NA,NA,NA,NA,NA,NA,NA,NA,NA,NA,NA,NA,NA,NA,NA,NA
8e08c,task,flow.Sequence,2_9,NA,NA,completion,8764.8999999999,652950.79999995,652948,652964.3,661729.2,661730.79999995,2024-02-19T21:23:19Z,661746,Verzögerung,kuchelewa,s,mwakilishi,mwanauchumi,jaribio,NA,NA,NA,"c(""distractor1"", ""distractor2"", ""distractor3"")",NA,NA,NA,NA,NA,NA,NA,NA,NA,NA,NA,NA,NA,NA,NA,NA,NA,NA,NA
8e08c,Shallow Question,html.Page,2_10_0_0,NA,NA,form submission,19209.5,661730.89999998,661729.2,661746,680955.5,680955.79999995,2024-02-19T21:23:38Z,680957.3,Kreativität,ubunifu,d,mratibu,mwendelezo,makubaliano,ubunifu,NA,NA,"c(""distractor1"", ""distractor2"", ""distractor3"")",NA,NA,NA,NA,NA,NA,NA,NA,NA,NA,NA,NA,NA,NA,NA,NA,NA,NA,NA
8e08c,Save data screen,canvas.Screen,2_10_0_1,NA,NA,timeout,502.69999999995,680958.19999993,680957.126,680957.3,681443.2,681444.5,2024-02-19T21:23:39Z,681460,Kreativität,ubunifu,d,mratibu,mwendelezo,makubaliano,NA,NA,1,"c(""distractor1"", ""distractor2"", ""distractor3"")",NA,NA,NA,NA,NA,NA,NA,NA,NA,NA,NA,NA,NA,NA,NA,NA,NA,NA,NA
8e08c,shallow,flow.Sequence,2_10_0,NA,NA,completion,19697.2,661730.89999998,661729.2,661746,681443.2,681444.69999993,2024-02-19T21:23:39Z,681460,Kreativität,ubunifu,d,mratibu,mwendelezo,makubaliano,NA,NA,NA,"c(""distractor1"", ""distractor2"", ""distractor3"")",NA,NA,NA,NA,NA,NA,NA,NA,NA,NA,NA,NA,NA,NA,NA,NA,NA,NA,NA
8e08c,task,flow.Sequence,2_10,NA,NA,completion,19697.2,661730.89999998,661729.2,661746,681443.2,681444.89999998,2024-02-19T21:23:39Z,681460,Kreativität,ubunifu,d,mratibu,mwendelezo,makubaliano,NA,NA,NA,"c(""distractor1"", ""distractor2"", ""distractor3"")",NA,NA,NA,NA,NA,NA,NA,NA,NA,NA,NA,NA,NA,NA,NA,NA,NA,NA,NA
8e08c,Shallow Question,html.Page,2_11_0_0,NA,NA,form submission,6995.5,681445,681443.2,681460,688455.5,688455.89999998,2024-02-19T21:23:46Z,688466.5,Aufstand,ugomaji,d,mazidio,msingi,kujieleza,ugomaji,NA,NA,"c(""distractor1"", ""distractor2"", ""distractor3"")",NA,NA,NA,NA,NA,NA,NA,NA,NA,NA,NA,NA,NA,NA,NA,NA,NA,NA,NA
8e08c,Save data screen,canvas.Screen,2_11_0_1,NA,NA,timeout,502.40000000002,688457.79999995,688450.422,688466.5,688952.3,688953.79999995,2024-02-19T21:23:46Z,688968.9,Aufstand,ugomaji,d,mazidio,msingi,kujieleza,NA,NA,1,"c(""distractor1"", ""distractor2"", ""distractor3"")",NA,NA,NA,NA,NA,NA,NA,NA,NA,NA,NA,NA,NA,NA,NA,NA,NA,NA,NA
8e08c,shallow,flow.Sequence,2_11_0,NA,NA,completion,7492.3,681445,681443.2,681460,688952.3,688954.19999993,2024-02-19T21:23:46Z,688968.9,Aufstand,ugomaji,d,mazidio,msingi,kujieleza,NA,NA,NA,"c(""distractor1"", ""distractor2"", ""distractor3"")",NA,NA,NA,NA,NA,NA,NA,NA,NA,NA,NA,NA,NA,NA,NA,NA,NA,NA,NA
8e08c,task,flow.Sequence,2_11,NA,NA,completion,7492.3,681444.89999998,681443.2,681460,688952.3,688954.39999998,2024-02-19T21:23:46Z,688968.9,Aufstand,ugomaji,d,mazidio,msingi,kujieleza,NA,NA,NA,"c(""distractor1"", ""distractor2"", ""distractor3"")",NA,NA,NA,NA,NA,NA,NA,NA,NA,NA,NA,NA,NA,NA,NA,NA,NA,NA,NA
8e08c,Shallow Question,html.Page,2_12_0_0,NA,NA,form submission,22227.200000024,688954.5,688952.3,688968.9,711196.10000002,711196.39999998,2024-02-19T21:24:08Z,711200.5,Körper,kiwiliwili,s,mapambano,mpatanishi,kiolezo,kiwiliwili,NA,NA,"c(""distractor1"", ""distractor2"", ""distractor3"")",NA,NA,NA,NA,NA,NA,NA,NA,NA,NA,NA,NA,NA,NA,NA,NA,NA,NA,NA
8e08c,Save data screen,canvas.Screen,2_12_0_1,NA,NA,timeout,496.40000000002,711198.60000002,711187.852,711200.5,711680.2,711682.60000002,2024-02-19T21:24:09Z,711696.9,Körper,kiwiliwili,s,mapambano,mpatanishi,kiolezo,NA,NA,1,"c(""distractor1"", ""distractor2"", ""distractor3"")",NA,NA,NA,NA,NA,NA,NA,NA,NA,NA,NA,NA,NA,NA,NA,NA,NA,NA,NA
8e08c,shallow,flow.Sequence,2_12_0,NA,NA,completion,22711.3,688954.5,688952.3,688968.9,711680.2,711682.79999995,2024-02-19T21:24:09Z,711696.9,Körper,kiwiliwili,s,mapambano,mpatanishi,kiolezo,NA,NA,NA,"c(""distractor1"", ""distractor2"", ""distractor3"")",NA,NA,NA,NA,NA,NA,NA,NA,NA,NA,NA,NA,NA,NA,NA,NA,NA,NA,NA
8e08c,task,flow.Sequence,2_12,NA,NA,completion,22711.3,688954.5,688952.3,688968.9,711680.2,711682.89999998,2024-02-19T21:24:09Z,711696.9,Körper,kiwiliwili,s,mapambano,mpatanishi,kiolezo,NA,NA,NA,"c(""distractor1"", ""distractor2"", ""distractor3"")",NA,NA,NA,NA,NA,NA,NA,NA,NA,NA,NA,NA,NA,NA,NA,NA,NA,NA,NA
8e08c,Shallow Question,html.Page,2_13_0_0,NA,NA,form submission,21758.799999928,711683,711680.2,711696.9,733455.69999993,733456.10000002,2024-02-19T21:24:31Z,733463.8,Kontrolle,kudhibiti,s,mbinguni,kufunga,utegemezi,kudhibiti,NA,NA,"c(""distractor1"", ""distractor2"", ""distractor3"")",NA,NA,NA,NA,NA,NA,NA,NA,NA,NA,NA,NA,NA,NA,NA,NA,NA,NA,NA
8e08c,Save data screen,canvas.Screen,2_13_0_1,NA,NA,timeout,498.79999999993,733458.19999993,733447.6,733463.8,733945.9,733947.89999998,2024-02-19T21:24:31Z,733962.6,Kontrolle,kudhibiti,s,mbinguni,kufunga,utegemezi,NA,NA,1,"c(""distractor1"", ""distractor2"", ""distractor3"")",NA,NA,NA,NA,NA,NA,NA,NA,NA,NA,NA,NA,NA,NA,NA,NA,NA,NA,NA
8e08c,shallow,flow.Sequence,2_13_0,NA,NA,completion,22249,711683,711680.2,711696.9,733945.9,733948.10000002,2024-02-19T21:24:31Z,733962.6,Kontrolle,kudhibiti,s,mbinguni,kufunga,utegemezi,NA,NA,NA,"c(""distractor1"", ""distractor2"", ""distractor3"")",NA,NA,NA,NA,NA,NA,NA,NA,NA,NA,NA,NA,NA,NA,NA,NA,NA,NA,NA
8e08c,task,flow.Sequence,2_13,NA,NA,completion,22249,711682.89999998,711680.2,711696.9,733945.9,733948.29999995,2024-02-19T21:24:31Z,733962.6,Kontrolle,kudhibiti,s,mbinguni,kufunga,utegemezi,NA,NA,NA,"c(""distractor1"", ""distractor2"", ""distractor3"")",NA,NA,NA,NA,NA,NA,NA,NA,NA,NA,NA,NA,NA,NA,NA,NA,NA,NA,NA
8e08c,Shallow Question,html.Page,2_14_0_0,NA,NA,form submission,2584.5000000239,733948.39999998,733945.9,733962.6,736547.10000002,736547.39999998,2024-02-19T21:24:34Z,736552.3,Kanzler,diwani,s,rasilmali,mahitaji,maabudu,diwani,NA,NA,"c(""distractor1"", ""distractor2"", ""distractor3"")",NA,NA,NA,NA,NA,NA,NA,NA,NA,NA,NA,NA,NA,NA,NA,NA,NA,NA,NA
8e08c,Save data screen,canvas.Screen,2_14_0_1,NA,NA,timeout,497.89999999991,736548.10000002,736546.264,736552.3,737033.5,737035,2024-02-19T21:24:34Z,737050.2,Kanzler,diwani,s,rasilmali,mahitaji,maabudu,NA,NA,1,"c(""distractor1"", ""distractor2"", ""distractor3"")",NA,NA,NA,NA,NA,NA,NA,NA,NA,NA,NA,NA,NA,NA,NA,NA,NA,NA,NA
8e08c,shallow,flow.Sequence,2_14_0,NA,NA,completion,3070.9,733948.29999995,733945.9,733962.6,737033.5,737035.29999995,2024-02-19T21:24:34Z,737050.2,Kanzler,diwani,s,rasilmali,mahitaji,maabudu,NA,NA,NA,"c(""distractor1"", ""distractor2"", ""distractor3"")",NA,NA,NA,NA,NA,NA,NA,NA,NA,NA,NA,NA,NA,NA,NA,NA,NA,NA,NA
8e08c,task,flow.Sequence,2_14,NA,NA,completion,3070.9,733948.29999995,733945.9,733962.6,737033.5,737035.39999998,2024-02-19T21:24:34Z,737050.2,Kanzler,diwani,s,rasilmali,mahitaji,maabudu,NA,NA,NA,"c(""distractor1"", ""distractor2"", ""distractor3"")",NA,NA,NA,NA,NA,NA,NA,NA,NA,NA,NA,NA,NA,NA,NA,NA,NA,NA,NA
8e08c,Shallow Question,html.Page,2_15_0_0,NA,NA,form submission,18637.400000024,737035.60000002,737033.5,737050.2,755687.60000002,755687.89999998,2024-02-19T21:24:53Z,755696.8,Übersicht,kilindo,s,mgusano,chipukizi,kulinganisha,kilindo,NA,NA,"c(""distractor1"", ""distractor2"", ""distractor3"")",NA,NA,NA,NA,NA,NA,NA,NA,NA,NA,NA,NA,NA,NA,NA,NA,NA,NA,NA
8e08c,Save data screen,canvas.Screen,2_15_0_1,NA,NA,timeout,502.5,755689.89999998,755683.588,755696.8,756183.1,756185.69999993,2024-02-19T21:24:53Z,756199.3,Übersicht,kilindo,s,mgusano,chipukizi,kulinganisha,NA,NA,1,"c(""distractor1"", ""distractor2"", ""distractor3"")",NA,NA,NA,NA,NA,NA,NA,NA,NA,NA,NA,NA,NA,NA,NA,NA,NA,NA,NA
8e08c,shallow,flow.Sequence,2_15_0,NA,NA,completion,19132.9,737035.5,737033.5,737050.2,756183.1,756185.89999998,2024-02-19T21:24:53Z,756199.3,Übersicht,kilindo,s,mgusano,chipukizi,kulinganisha,NA,NA,NA,"c(""distractor1"", ""distractor2"", ""distractor3"")",NA,NA,NA,NA,NA,NA,NA,NA,NA,NA,NA,NA,NA,NA,NA,NA,NA,NA,NA
8e08c,task,flow.Sequence,2_15,NA,NA,completion,19132.9,737035.5,737033.5,737050.2,756183.1,756186.10000002,2024-02-19T21:24:53Z,756199.3,Übersicht,kilindo,s,mgusano,chipukizi,kulinganisha,NA,NA,NA,"c(""distractor1"", ""distractor2"", ""distractor3"")",NA,NA,NA,NA,NA,NA,NA,NA,NA,NA,NA,NA,NA,NA,NA,NA,NA,NA,NA
8e08c,retrieval block 2 (multiple choice),flow.Loop,2,NA,NA,completion,205424,550745.10000002,550742.3,550759.1,756183.1,756186.19999993,2024-02-19T21:24:53Z,756199.3,NA,NA,NA,NA,NA,NA,NA,NA,NA,"c(""distractor1"", ""distractor2"", ""distractor3"")",NA,NA,NA,NA,NA,NA,NA,NA,NA,NA,NA,NA,NA,NA,NA,NA,NA,NA,NA
8e08c,End,canvas.Screen,3,NA,keypress(Space),response,2431.4999999523,756186.39999998,756183.1,756199.3,758630.79999995,758632.79999995,2024-02-19T21:24:56Z,758651.4,NA,NA,NA,NA,NA,NA,NA,NA,NA,NULL,NA,NA,NA,NA,NA,NA,NA,NA,NA,NA,NA,NA,NA,NA,NA,NA,NA,NA,NA
8e08c,root,flow.Sequence,NA,NA,NA,completion,757965.19999995,656.89999997616,432.1,665.6,758630.79999995,758633.39999998,2024-02-19T21:24:56Z,758651.4,NA,NA,NA,NA,NA,NA,NA,NA,NA,NULL,NA,NA,NA,NA,NA,NA,NA,NA,NA,NA,NA,NA,NA,NA,NA,NA,NA,NA,NA
