observation,sender,sender_type,sender_id,response,response_action,ended_on,duration,time_run,time_render,time_show,time_end,time_commit,timestamp,time_switch,distractors,german,swahili,enc,distractor1,distractor2,distractor3,response_2,x,correct,x_2,url_vp,url_sess,meta_labjs_version,meta_location,meta_user_agent,meta_platform,meta_language,meta_locale,meta_time_zone,meta_timezone_offset,meta_screen_width,meta_screen_height,meta_scroll_width,meta_scroll_height,meta_window_inner_width,meta_window_inner_height,meta_device_pixel_ratio,meta_labjs_build_flavor,meta_labjs_build_commit
770bf,Introduction general,canvas.Screen,0,weiter,keypress(q),response,125639.61999995,776.59999990463,766.508,783.18,126422.79999995,126426.5999999,2023-03-18T10:33:01Z,126430.377,NULL,NA,NA,NA,NA,NA,NA,NA,NA,NA,NA,108,3,20.2.4,https://neurocog.fernuni.ch/studies/vweber/encoding_immediate/index.html?vp=108&sess=3,"Mozilla/5.0 (Windows NT 10.0; Win64; x64) AppleWebKit/537.36 (KHTML, like Gecko) Chrome/110.0.0.0 Safari/537.36",Win32,en-US,en-US,Europe/Berlin,-60,1536,864,1536,674,1536,722,1.25,production,f5b4a49f956347addd546a832a3327688c2c0fef
770bf,Introduction practice,canvas.Screen,1_0,NA,keypress(Space),response,5873.4229999523,126426.89999986,126409.911,126430.377,132303.79999995,132304.5,2023-03-18T10:33:07Z,132312.905,NULL,NA,NA,NA,NA,NA,NA,NA,NA,NA,NA,NA,NA,NA,NA,NA,NA,NA,NA,NA,NA,NA,NA,NA,NA,NA,NA,NA,NA,NA
770bf,Deep Question,html.Page,1_1_0_0_0,NA,NA,form submission,6187.8949999523,132304.79999995,132296.76,132312.905,138500.79999995,138501.0999999,2023-03-18T10:33:13Z,138511.856,"c(""distractor1"", ""distractor2"", ""distractor3"")",Schatten,kivuli,d,NA,NA,NA,x,NA,NA,NA,NA,NA,NA,NA,NA,NA,NA,NA,NA,NA,NA,NA,NA,NA,NA,NA,NA,NA,NA
770bf,"""Richtig""-Screen",canvas.Screen,1_1_0_0_1,NA,NA,skipped,NA,138502.79999995,NA,NA,138500.79999995,138503.0999999,2023-03-18T10:33:13Z,138511.856,"c(""distractor1"", ""distractor2"", ""distractor3"")",Schatten,kivuli,d,NA,NA,NA,NA,NA,NA,NA,NA,NA,NA,NA,NA,NA,NA,NA,NA,NA,NA,NA,NA,NA,NA,NA,NA,NA,NA
770bf,"""Falsch""-Screen",canvas.Screen,1_1_0_0_2,NA,NA,timeout,4999.272,138504.29999995,138495.291,138511.856,143494.49,143496.79999995,2023-03-18T10:33:18Z,143511.128,"c(""distractor1"", ""distractor2"", ""distractor3"")",Schatten,kivuli,d,NA,NA,NA,NA,NA,0,NA,NA,NA,NA,NA,NA,NA,NA,NA,NA,NA,NA,NA,NA,NA,NA,NA,NA,NA,NA
770bf,deep,flow.Sequence,1_1_0_0,NA,NA,completion,11181.585,132304.79999995,132296.76,132312.905,143494.49,143497.0999999,2023-03-18T10:33:18Z,143511.128,"c(""distractor1"", ""distractor2"", ""distractor3"")",Schatten,kivuli,d,NA,NA,NA,NA,NA,NA,NA,NA,NA,NA,NA,NA,NA,NA,NA,NA,NA,NA,NA,NA,NA,NA,NA,NA,NA,NA
770bf,shallow,flow.Sequence,1_1_0_1,NA,NA,skipped,NA,143497.20000005,NA,NA,143494.49,143497.29999995,2023-03-18T10:33:18Z,143511.128,"c(""distractor1"", ""distractor2"", ""distractor3"")",Schatten,kivuli,d,NA,NA,NA,NA,NA,NA,NA,NA,NA,NA,NA,NA,NA,NA,NA,NA,NA,NA,NA,NA,NA,NA,NA,NA,NA,NA
770bf,task,flow.Sequence,1_1_0,NA,NA,completion,11181.585,132304.79999995,132296.76,132312.905,143494.49,143497.29999995,2023-03-18T10:33:18Z,143511.128,"c(""distractor1"", ""distractor2"", ""distractor3"")",Schatten,kivuli,d,NA,NA,NA,NA,NA,NA,NA,NA,NA,NA,NA,NA,NA,NA,NA,NA,NA,NA,NA,NA,NA,NA,NA,NA,NA,NA
770bf,deep,flow.Sequence,1_1_1_0,NA,NA,skipped,NA,143497.39999986,NA,NA,143494.49,143497.5999999,2023-03-18T10:33:18Z,143511.128,"c(""distractor1"", ""distractor2"", ""distractor3"")",Rückhalt,msaada,s,muhula,auwali,kiwimbe,NA,NA,NA,NA,NA,NA,NA,NA,NA,NA,NA,NA,NA,NA,NA,NA,NA,NA,NA,NA,NA,NA,NA
770bf,Shallow Question,html.Page,1_1_1_1_0,NA,NA,form submission,5043.771999857,143497.70000005,143494.49,143511.128,148554.89999986,148555.20000005,2023-03-18T10:33:23Z,148560.31,"c(""distractor1"", ""distractor2"", ""distractor3"")",Rückhalt,msaada,s,muhula,auwali,kiwimbe,muhula,NA,NA,NA,NA,NA,NA,NA,NA,NA,NA,NA,NA,NA,NA,NA,NA,NA,NA,NA,NA,NA,NA
770bf,"""Richtig""-Screen",canvas.Screen,1_1_1_1_1,NA,NA,skipped,NA,148557.5999999,NA,NA,148554.89999986,148557.79999995,2023-03-18T10:33:23Z,148560.31,"c(""distractor1"", ""distractor2"", ""distractor3"")",Rückhalt,msaada,s,muhula,auwali,kiwimbe,NA,NA,NA,NA,NA,NA,NA,NA,NA,NA,NA,NA,NA,NA,NA,NA,NA,NA,NA,NA,NA,NA,NA
770bf,"""Falsch""-Screen",canvas.Screen,1_1_1_1_2,NA,NA,timeout,4999.329,148558.89999986,148543.774,148560.31,153542.931,153543.5999999,2023-03-18T10:33:28Z,153559.639,"c(""distractor1"", ""distractor2"", ""distractor3"")",Rückhalt,msaada,s,muhula,auwali,kiwimbe,NA,NA,0,NA,NA,NA,NA,NA,NA,NA,NA,NA,NA,NA,NA,NA,NA,NA,NA,NA,NA,NA,NA
770bf,shallow,flow.Sequence,1_1_1_1,NA,NA,completion,10031.803,143497.5999999,143494.49,143511.128,153542.931,153543.89999986,2023-03-18T10:33:28Z,153559.639,"c(""distractor1"", ""distractor2"", ""distractor3"")",Rückhalt,msaada,s,muhula,auwali,kiwimbe,NA,NA,NA,NA,NA,NA,NA,NA,NA,NA,NA,NA,NA,NA,NA,NA,NA,NA,NA,NA,NA,NA,NA
770bf,task,flow.Sequence,1_1_1,NA,NA,completion,10031.803,143497.39999986,143494.49,143511.128,153542.931,153544.0999999,2023-03-18T10:33:28Z,153559.639,"c(""distractor1"", ""distractor2"", ""distractor3"")",Rückhalt,msaada,s,muhula,auwali,kiwimbe,NA,NA,NA,NA,NA,NA,NA,NA,NA,NA,NA,NA,NA,NA,NA,NA,NA,NA,NA,NA,NA,NA,NA
770bf,Deep Question,html.Page,1_1_2_0_0,NA,NA,form submission,3201.5610000477,153544.29999995,153542.931,153559.639,156761.20000005,156761.39999986,2023-03-18T10:33:31Z,156775.774,"c(""distractor1"", ""distractor2"", ""distractor3"")",Gesundheit,salama,d,NA,NA,NA,x,NA,NA,NA,NA,NA,NA,NA,NA,NA,NA,NA,NA,NA,NA,NA,NA,NA,NA,NA,NA,NA,NA
770bf,"""Richtig""-Screen",canvas.Screen,1_1_2_0_1,NA,NA,skipped,NA,156763.70000005,NA,NA,156761.20000005,156763.79999995,2023-03-18T10:33:31Z,156775.774,"c(""distractor1"", ""distractor2"", ""distractor3"")",Gesundheit,salama,d,NA,NA,NA,NA,NA,NA,NA,NA,NA,NA,NA,NA,NA,NA,NA,NA,NA,NA,NA,NA,NA,NA,NA,NA,NA,NA
770bf,"""Falsch""-Screen",canvas.Screen,1_1_2_0_2,NA,NA,timeout,4999.179,156764.70000005,156759.125,156775.774,161758.339,161758.89999986,2023-03-18T10:33:36Z,161774.953,"c(""distractor1"", ""distractor2"", ""distractor3"")",Gesundheit,salama,d,NA,NA,NA,NA,NA,0,NA,NA,NA,NA,NA,NA,NA,NA,NA,NA,NA,NA,NA,NA,NA,NA,NA,NA,NA,NA
770bf,deep,flow.Sequence,1_1_2_0,NA,NA,completion,8198.7,153544.29999995,153542.931,153559.639,161758.339,161759.0999999,2023-03-18T10:33:36Z,161774.953,"c(""distractor1"", ""distractor2"", ""distractor3"")",Gesundheit,salama,d,NA,NA,NA,NA,NA,NA,NA,NA,NA,NA,NA,NA,NA,NA,NA,NA,NA,NA,NA,NA,NA,NA,NA,NA,NA,NA
770bf,shallow,flow.Sequence,1_1_2_1,NA,NA,skipped,NA,161759.29999995,NA,NA,161758.339,161759.39999986,2023-03-18T10:33:36Z,161774.953,"c(""distractor1"", ""distractor2"", ""distractor3"")",Gesundheit,salama,d,NA,NA,NA,NA,NA,NA,NA,NA,NA,NA,NA,NA,NA,NA,NA,NA,NA,NA,NA,NA,NA,NA,NA,NA,NA,NA
770bf,task,flow.Sequence,1_1_2,NA,NA,completion,8198.7,153544.29999995,153542.931,153559.639,161758.339,161759.5999999,2023-03-18T10:33:36Z,161774.953,"c(""distractor1"", ""distractor2"", ""distractor3"")",Gesundheit,salama,d,NA,NA,NA,NA,NA,NA,NA,NA,NA,NA,NA,NA,NA,NA,NA,NA,NA,NA,NA,NA,NA,NA,NA,NA,NA,NA
770bf,deep,flow.Sequence,1_1_3_0,NA,NA,skipped,NA,161759.70000005,NA,NA,161758.339,161759.79999995,2023-03-18T10:33:36Z,161774.953,"c(""distractor1"", ""distractor2"", ""distractor3"")",Gegenwart,hadhara,s,katiba,jokofu,mikopo,NA,NA,NA,NA,NA,NA,NA,NA,NA,NA,NA,NA,NA,NA,NA,NA,NA,NA,NA,NA,NA,NA,NA
770bf,Shallow Question,html.Page,1_1_3_1_0,NA,NA,form submission,4959.9469998569,161759.79999995,161758.339,161774.953,166734.89999986,166735.0999999,2023-03-18T10:33:41Z,166740.853,"c(""distractor1"", ""distractor2"", ""distractor3"")",Gegenwart,hadhara,s,katiba,jokofu,mikopo,katiba,NA,NA,NA,NA,NA,NA,NA,NA,NA,NA,NA,NA,NA,NA,NA,NA,NA,NA,NA,NA,NA,NA
770bf,"""Richtig""-Screen",canvas.Screen,1_1_3_1_1,NA,NA,skipped,NA,166737.39999986,NA,NA,166734.89999986,166737.5,2023-03-18T10:33:41Z,166740.853,"c(""distractor1"", ""distractor2"", ""distractor3"")",Gegenwart,hadhara,s,katiba,jokofu,mikopo,NA,NA,NA,NA,NA,NA,NA,NA,NA,NA,NA,NA,NA,NA,NA,NA,NA,NA,NA,NA,NA,NA,NA
770bf,"""Falsch""-Screen",canvas.Screen,1_1_3_1_2,NA,NA,timeout,4999.242,166738.29999995,166724.239,166740.853,171723.45,171724.0999999,2023-03-18T10:33:46Z,171740.095,"c(""distractor1"", ""distractor2"", ""distractor3"")",Gegenwart,hadhara,s,katiba,jokofu,mikopo,NA,NA,0,NA,NA,NA,NA,NA,NA,NA,NA,NA,NA,NA,NA,NA,NA,NA,NA,NA,NA,NA,NA
770bf,shallow,flow.Sequence,1_1_3_1,NA,NA,completion,9948.497,161759.79999995,161758.339,161774.953,171723.45,171724.20000005,2023-03-18T10:33:46Z,171740.095,"c(""distractor1"", ""distractor2"", ""distractor3"")",Gegenwart,hadhara,s,katiba,jokofu,mikopo,NA,NA,NA,NA,NA,NA,NA,NA,NA,NA,NA,NA,NA,NA,NA,NA,NA,NA,NA,NA,NA,NA,NA
770bf,task,flow.Sequence,1_1_3,NA,NA,completion,9948.497,161759.70000005,161758.339,161774.953,171723.45,171724.39999986,2023-03-18T10:33:46Z,171740.095,"c(""distractor1"", ""distractor2"", ""distractor3"")",Gegenwart,hadhara,s,katiba,jokofu,mikopo,NA,NA,NA,NA,NA,NA,NA,NA,NA,NA,NA,NA,NA,NA,NA,NA,NA,NA,NA,NA,NA,NA,NA
770bf,deep,flow.Sequence,1_1_4_0,NA,NA,skipped,NA,171724.5999999,NA,NA,171723.45,171724.5999999,2023-03-18T10:33:46Z,171740.095,"c(""distractor1"", ""distractor2"", ""distractor3"")",Kritik,lawama,s,dereva,nafasi,mawazo,NA,NA,NA,NA,NA,NA,NA,NA,NA,NA,NA,NA,NA,NA,NA,NA,NA,NA,NA,NA,NA,NA,NA
770bf,Shallow Question,html.Page,1_1_4_1_0,NA,NA,form submission,4958.7049999523,171724.79999995,171723.45,171740.095,176698.79999995,176699.0999999,2023-03-18T10:33:51Z,176705.965,"c(""distractor1"", ""distractor2"", ""distractor3"")",Kritik,lawama,s,dereva,nafasi,mawazo,lawama,NA,NA,NA,NA,NA,NA,NA,NA,NA,NA,NA,NA,NA,NA,NA,NA,NA,NA,NA,NA,NA,NA
770bf,"""Richtig""-Screen",canvas.Screen,1_1_4_1_1,NA,NA,timeout,4999.29,176701.29999995,176689.368,176705.965,181688.58,181689.29999995,2023-03-18T10:33:56Z,181705.255,"c(""distractor1"", ""distractor2"", ""distractor3"")",Kritik,lawama,s,dereva,nafasi,mawazo,NA,NA,1,NA,NA,NA,NA,NA,NA,NA,NA,NA,NA,NA,NA,NA,NA,NA,NA,NA,NA,NA,NA
770bf,"""Falsch""-Screen",canvas.Screen,1_1_4_1_2,NA,NA,skipped,NA,181693,NA,NA,181688.58,181693.20000005,2023-03-18T10:33:56Z,181705.255,"c(""distractor1"", ""distractor2"", ""distractor3"")",Kritik,lawama,s,dereva,nafasi,mawazo,NA,NA,NA,NA,NA,NA,NA,NA,NA,NA,NA,NA,NA,NA,NA,NA,NA,NA,NA,NA,NA,NA,NA
770bf,shallow,flow.Sequence,1_1_4_1,NA,NA,completion,9948.485,171724.79999995,171723.45,171740.095,181688.58,181693.5,2023-03-18T10:33:56Z,181705.255,"c(""distractor1"", ""distractor2"", ""distractor3"")",Kritik,lawama,s,dereva,nafasi,mawazo,NA,NA,NA,NA,NA,NA,NA,NA,NA,NA,NA,NA,NA,NA,NA,NA,NA,NA,NA,NA,NA,NA,NA
770bf,task,flow.Sequence,1_1_4,NA,NA,completion,9948.485,171724.5999999,171723.45,171740.095,181688.58,181693.70000005,2023-03-18T10:33:56Z,181705.255,"c(""distractor1"", ""distractor2"", ""distractor3"")",Kritik,lawama,s,dereva,nafasi,mawazo,NA,NA,NA,NA,NA,NA,NA,NA,NA,NA,NA,NA,NA,NA,NA,NA,NA,NA,NA,NA,NA,NA,NA
770bf,Deep Question,html.Page,1_1_5_0_0,NA,NA,form submission,2954.1449998569,181693.89999986,181688.58,181705.255,184659.39999986,184659.70000005,2023-03-18T10:33:59Z,184671.513,"c(""distractor1"", ""distractor2"", ""distractor3"")",Qualität,mtindo,d,NA,NA,NA,x,NA,NA,NA,NA,NA,NA,NA,NA,NA,NA,NA,NA,NA,NA,NA,NA,NA,NA,NA,NA,NA,NA
770bf,"""Richtig""-Screen",canvas.Screen,1_1_5_0_1,NA,NA,skipped,NA,184660.89999986,NA,NA,184659.39999986,184661,2023-03-18T10:33:59Z,184671.513,"c(""distractor1"", ""distractor2"", ""distractor3"")",Qualität,mtindo,d,NA,NA,NA,NA,NA,NA,NA,NA,NA,NA,NA,NA,NA,NA,NA,NA,NA,NA,NA,NA,NA,NA,NA,NA,NA,NA
770bf,"""Falsch""-Screen",canvas.Screen,1_1_5_0_2,NA,NA,timeout,4999.209,184662.0999999,184654.803,184671.513,189654.022,189655,2023-03-18T10:34:04Z,189670.722,"c(""distractor1"", ""distractor2"", ""distractor3"")",Qualität,mtindo,d,NA,NA,NA,NA,NA,0,NA,NA,NA,NA,NA,NA,NA,NA,NA,NA,NA,NA,NA,NA,NA,NA,NA,NA,NA,NA
770bf,deep,flow.Sequence,1_1_5_0,NA,NA,completion,7948.767,181693.89999986,181688.58,181705.255,189654.022,189655.0999999,2023-03-18T10:34:04Z,189670.722,"c(""distractor1"", ""distractor2"", ""distractor3"")",Qualität,mtindo,d,NA,NA,NA,NA,NA,NA,NA,NA,NA,NA,NA,NA,NA,NA,NA,NA,NA,NA,NA,NA,NA,NA,NA,NA,NA,NA
770bf,shallow,flow.Sequence,1_1_5_1,NA,NA,skipped,NA,189655.29999995,NA,NA,189654.022,189655.39999986,2023-03-18T10:34:04Z,189670.722,"c(""distractor1"", ""distractor2"", ""distractor3"")",Qualität,mtindo,d,NA,NA,NA,NA,NA,NA,NA,NA,NA,NA,NA,NA,NA,NA,NA,NA,NA,NA,NA,NA,NA,NA,NA,NA,NA,NA
770bf,task,flow.Sequence,1_1_5,NA,NA,completion,7948.767,181693.79999995,181688.58,181705.255,189654.022,189655.5,2023-03-18T10:34:04Z,189670.722,"c(""distractor1"", ""distractor2"", ""distractor3"")",Qualität,mtindo,d,NA,NA,NA,NA,NA,NA,NA,NA,NA,NA,NA,NA,NA,NA,NA,NA,NA,NA,NA,NA,NA,NA,NA,NA,NA,NA
770bf,block,flow.Loop,1_1,NA,NA,completion,57341.117,132304.70000005,132296.76,132312.905,189654.022,189655.79999995,2023-03-18T10:34:04Z,189670.722,"c(""distractor1"", ""distractor2"", ""distractor3"")",NA,NA,NA,NA,NA,NA,NA,NA,NA,NA,NA,NA,NA,NA,NA,NA,NA,NA,NA,NA,NA,NA,NA,NA,NA,NA,NA,NA,NA
770bf,Practice,flow.Sequence,1,NA,NA,completion,63223.645,126426.89999986,126409.911,126430.377,189654.022,189656,2023-03-18T10:34:04Z,189670.722,NULL,NA,NA,NA,NA,NA,NA,NA,NA,NA,NA,NA,NA,NA,NA,NA,NA,NA,NA,NA,NA,NA,NA,NA,NA,NA,NA,NA,NA,NA
770bf,Experiment start,canvas.Screen,2,weiter,keypress(q),response,11178.278,189656.20000005,189654.022,189670.722,200849,200849.5999999,2023-03-18T10:34:15Z,201052.175,NULL,NA,NA,NA,NA,NA,NA,NA,NA,NA,NA,NA,NA,NA,NA,NA,NA,NA,NA,NA,NA,NA,NA,NA,NA,NA,NA,NA,NA,NA
770bf,Deep Question,html.Page,3_0_0_0_0_0_0,NA,NA,form submission,7874.825,201035.89999986,201019.799,201052.175,208927,208927.29999995,2023-03-18T10:34:23Z,208934.302,NULL,Vorsorge,tahadhari,d,NA,NA,NA,x,NA,NA,0,NA,NA,NA,NA,NA,NA,NA,NA,NA,NA,NA,NA,NA,NA,NA,NA,NA,NA,NA
770bf,"""Richtig""-Screen",canvas.Screen,3_0_0_0_0_0_1,NA,NA,skipped,NA,208929.5999999,NA,NA,208927,208929.70000005,2023-03-18T10:34:23Z,208934.302,NULL,Vorsorge,tahadhari,d,NA,NA,NA,NA,sdf,NA,0,NA,NA,NA,NA,NA,NA,NA,NA,NA,NA,NA,NA,NA,NA,NA,NA,NA,NA,NA
770bf,"""Falsch""-Screen",canvas.Screen,3_0_0_0_0_0_2,NA,NA,timeout,4999.274,208930.5,208917.779,208934.302,213916.945,213917.5,2023-03-18T10:34:28Z,213933.576,NULL,Vorsorge,tahadhari,d,NA,NA,NA,NA,sdf,0,0,NA,NA,NA,NA,NA,NA,NA,NA,NA,NA,NA,NA,NA,NA,NA,NA,NA,NA,NA
770bf,deep,flow.Sequence,3_0_0_0_0_0,NA,NA,completion,12864.77,201035.89999986,201019.799,201052.175,213916.945,213917.79999995,2023-03-18T10:34:28Z,213933.576,NULL,Vorsorge,tahadhari,d,NA,NA,NA,NA,sdf,NA,0,NA,NA,NA,NA,NA,NA,NA,NA,NA,NA,NA,NA,NA,NA,NA,NA,NA,NA,NA
770bf,shallow,flow.Sequence,3_0_0_0_0_1,NA,NA,skipped,NA,213917.89999986,NA,NA,213916.945,213918,2023-03-18T10:34:28Z,213933.576,NULL,Vorsorge,tahadhari,d,NA,NA,NA,NA,sdf,NA,0,NA,NA,NA,NA,NA,NA,NA,NA,NA,NA,NA,NA,NA,NA,NA,NA,NA,NA,NA
770bf,task,flow.Sequence,3_0_0_0_0,NA,NA,completion,12864.77,201035.79999995,201019.799,201052.175,213916.945,213918.0999999,2023-03-18T10:34:28Z,213933.576,NULL,Vorsorge,tahadhari,d,NA,NA,NA,NA,sdf,NA,0,NA,NA,NA,NA,NA,NA,NA,NA,NA,NA,NA,NA,NA,NA,NA,NA,NA,NA,NA
770bf,deep,flow.Sequence,3_0_0_0_1_0,NA,NA,skipped,NA,213918.29999995,NA,NA,213916.945,213918.29999995,2023-03-18T10:34:28Z,213933.576,NULL,Spionage,upelelezi,s,maslahi,utokazo,magangao,NA,sdf,NA,0,NA,NA,NA,NA,NA,NA,NA,NA,NA,NA,NA,NA,NA,NA,NA,NA,NA,NA,NA
770bf,Shallow Question,html.Page,3_0_0_0_1_1_0,NA,NA,form submission,11649.424,213918.39999986,213916.945,213933.576,225583,225583.29999995,2023-03-18T10:34:40Z,225598.836,NULL,Spionage,upelelezi,s,maslahi,utokazo,magangao,utokazo,NA,NA,0,NA,NA,NA,NA,NA,NA,NA,NA,NA,NA,NA,NA,NA,NA,NA,NA,NA,NA,NA
770bf,"""Richtig""-Screen",canvas.Screen,3_0_0_0_1_1_1,NA,NA,skipped,NA,225585.5999999,NA,NA,225583,225585.70000005,2023-03-18T10:34:40Z,225598.836,NULL,Spionage,upelelezi,s,maslahi,utokazo,magangao,NA,sdf,NA,0,NA,NA,NA,NA,NA,NA,NA,NA,NA,NA,NA,NA,NA,NA,NA,NA,NA,NA,NA
770bf,"""Falsch""-Screen",canvas.Screen,3_0_0_0_1_1_2,NA,NA,timeout,4998.811,225586.39999986,225581.772,225598.836,230581.081,230581.5999999,2023-03-18T10:34:45Z,230597.647,NULL,Spionage,upelelezi,s,maslahi,utokazo,magangao,NA,sdf,0,0,NA,NA,NA,NA,NA,NA,NA,NA,NA,NA,NA,NA,NA,NA,NA,NA,NA,NA,NA
770bf,shallow,flow.Sequence,3_0_0_0_1_1,NA,NA,completion,16647.505,213918.39999986,213916.945,213933.576,230581.081,230581.89999986,2023-03-18T10:34:45Z,230597.647,NULL,Spionage,upelelezi,s,maslahi,utokazo,magangao,NA,sdf,NA,0,NA,NA,NA,NA,NA,NA,NA,NA,NA,NA,NA,NA,NA,NA,NA,NA,NA,NA,NA
770bf,task,flow.Sequence,3_0_0_0_1,NA,NA,completion,16647.505,213918.20000005,213916.945,213933.576,230581.081,230582.0999999,2023-03-18T10:34:45Z,230597.647,NULL,Spionage,upelelezi,s,maslahi,utokazo,magangao,NA,sdf,NA,0,NA,NA,NA,NA,NA,NA,NA,NA,NA,NA,NA,NA,NA,NA,NA,NA,NA,NA,NA
770bf,Deep Question,html.Page,3_0_0_0_2_0_0,NA,NA,form submission,10897.152999952,230582.20000005,230581.081,230597.647,241494.79999995,241495.20000005,2023-03-18T10:34:56Z,241495.984,NULL,Konkurrent,mshindani,d,NA,NA,NA,x,NA,NA,0,NA,NA,NA,NA,NA,NA,NA,NA,NA,NA,NA,NA,NA,NA,NA,NA,NA,NA,NA
770bf,"""Richtig""-Screen",canvas.Screen,3_0_0_0_2_0_1,NA,NA,skipped,NA,241497.89999986,NA,NA,241494.79999995,241498.0999999,2023-03-18T10:34:56Z,241495.984,NULL,Konkurrent,mshindani,d,NA,NA,NA,NA,sdf,NA,0,NA,NA,NA,NA,NA,NA,NA,NA,NA,NA,NA,NA,NA,NA,NA,NA,NA,NA,NA
770bf,"""Falsch""-Screen",canvas.Screen,3_0_0_0_2_0_2,NA,NA,timeout,4999.305,241498.79999995,241479.379,241495.984,246478.604,246479.0999999,2023-03-18T10:35:01Z,246495.289,NULL,Konkurrent,mshindani,d,NA,NA,NA,NA,sdf,0,0,NA,NA,NA,NA,NA,NA,NA,NA,NA,NA,NA,NA,NA,NA,NA,NA,NA,NA,NA
770bf,deep,flow.Sequence,3_0_0_0_2_0,NA,NA,completion,15880.957,230582.20000005,230581.081,230597.647,246478.604,246479.5,2023-03-18T10:35:01Z,246495.289,NULL,Konkurrent,mshindani,d,NA,NA,NA,NA,sdf,NA,0,NA,NA,NA,NA,NA,NA,NA,NA,NA,NA,NA,NA,NA,NA,NA,NA,NA,NA,NA
770bf,shallow,flow.Sequence,3_0_0_0_2_1,NA,NA,skipped,NA,246479.5999999,NA,NA,246478.604,246479.70000005,2023-03-18T10:35:01Z,246495.289,NULL,Konkurrent,mshindani,d,NA,NA,NA,NA,sdf,NA,0,NA,NA,NA,NA,NA,NA,NA,NA,NA,NA,NA,NA,NA,NA,NA,NA,NA,NA,NA
770bf,task,flow.Sequence,3_0_0_0_2,NA,NA,completion,15880.957,230582.0999999,230581.081,230597.647,246478.604,246479.89999986,2023-03-18T10:35:01Z,246495.289,NULL,Konkurrent,mshindani,d,NA,NA,NA,NA,sdf,NA,0,NA,NA,NA,NA,NA,NA,NA,NA,NA,NA,NA,NA,NA,NA,NA,NA,NA,NA,NA
770bf,Deep Question,html.Page,3_0_0_0_3_0_0,NA,NA,form submission,22157.211,246480,246478.604,246495.289,268652.5,268652.79999995,2023-03-18T10:35:23Z,268658.431,NULL,Schüler,mwanafunzi,d,NA,NA,NA,x,NA,NA,0,NA,NA,NA,NA,NA,NA,NA,NA,NA,NA,NA,NA,NA,NA,NA,NA,NA,NA,NA
770bf,"""Richtig""-Screen",canvas.Screen,3_0_0_0_3_0_1,NA,NA,skipped,NA,268655.29999995,NA,NA,268652.5,268655.39999986,2023-03-18T10:35:23Z,268658.431,NULL,Schüler,mwanafunzi,d,NA,NA,NA,NA,sdf,NA,0,NA,NA,NA,NA,NA,NA,NA,NA,NA,NA,NA,NA,NA,NA,NA,NA,NA,NA,NA
770bf,"""Falsch""-Screen",canvas.Screen,3_0_0_0_3_0_2,NA,NA,timeout,4999.338,268656.0999999,268641.77,268658.431,273641.036,273641.89999986,2023-03-18T10:35:28Z,273657.769,NULL,Schüler,mwanafunzi,d,NA,NA,NA,NA,sdf,0,0,NA,NA,NA,NA,NA,NA,NA,NA,NA,NA,NA,NA,NA,NA,NA,NA,NA,NA,NA
770bf,deep,flow.Sequence,3_0_0_0_3_0,NA,NA,completion,27145.747,246480,246478.604,246495.289,273641.036,273642.20000005,2023-03-18T10:35:28Z,273657.769,NULL,Schüler,mwanafunzi,d,NA,NA,NA,NA,sdf,NA,0,NA,NA,NA,NA,NA,NA,NA,NA,NA,NA,NA,NA,NA,NA,NA,NA,NA,NA,NA
770bf,shallow,flow.Sequence,3_0_0_0_3_1,NA,NA,skipped,NA,273642.20000005,NA,NA,273641.036,273642.29999995,2023-03-18T10:35:28Z,273657.769,NULL,Schüler,mwanafunzi,d,NA,NA,NA,NA,sdf,NA,0,NA,NA,NA,NA,NA,NA,NA,NA,NA,NA,NA,NA,NA,NA,NA,NA,NA,NA,NA
770bf,task,flow.Sequence,3_0_0_0_3,NA,NA,completion,27145.747,246479.89999986,246478.604,246495.289,273641.036,273642.70000005,2023-03-18T10:35:28Z,273657.769,NULL,Schüler,mwanafunzi,d,NA,NA,NA,NA,sdf,NA,0,NA,NA,NA,NA,NA,NA,NA,NA,NA,NA,NA,NA,NA,NA,NA,NA,NA,NA,NA
770bf,Deep Question,html.Page,3_0_0_0_4_0_0,NA,NA,form submission,13904.830999905,273642.79999995,273641.036,273657.769,287562.5999999,287562.89999986,2023-03-18T10:35:42Z,287572.242,NULL,Tester,wanaojaribu,d,NA,NA,NA,mwanafunzi,NA,NA,0,NA,NA,NA,NA,NA,NA,NA,NA,NA,NA,NA,NA,NA,NA,NA,NA,NA,NA,NA
770bf,"""Richtig""-Screen",canvas.Screen,3_0_0_0_4_0_1,NA,NA,skipped,NA,287565.29999995,NA,NA,287562.5999999,287565.29999995,2023-03-18T10:35:42Z,287572.242,NULL,Tester,wanaojaribu,d,NA,NA,NA,NA,sdf,NA,0,NA,NA,NA,NA,NA,NA,NA,NA,NA,NA,NA,NA,NA,NA,NA,NA,NA,NA,NA
770bf,"""Falsch""-Screen",canvas.Screen,3_0_0_0_4_0_2,NA,NA,timeout,4999.186,287566.0999999,287555.63,287572.242,292554.794,292555.39999986,2023-03-18T10:35:47Z,292571.428,NULL,Tester,wanaojaribu,d,NA,NA,NA,NA,sdf,0,0,NA,NA,NA,NA,NA,NA,NA,NA,NA,NA,NA,NA,NA,NA,NA,NA,NA,NA,NA
770bf,deep,flow.Sequence,3_0_0_0_4_0,NA,NA,completion,18897.025,273642.79999995,273641.036,273657.769,292554.794,292555.70000005,2023-03-18T10:35:47Z,292571.428,NULL,Tester,wanaojaribu,d,NA,NA,NA,NA,sdf,NA,0,NA,NA,NA,NA,NA,NA,NA,NA,NA,NA,NA,NA,NA,NA,NA,NA,NA,NA,NA
770bf,shallow,flow.Sequence,3_0_0_0_4_1,NA,NA,skipped,NA,292555.79999995,NA,NA,292554.794,292555.89999986,2023-03-18T10:35:47Z,292571.428,NULL,Tester,wanaojaribu,d,NA,NA,NA,NA,sdf,NA,0,NA,NA,NA,NA,NA,NA,NA,NA,NA,NA,NA,NA,NA,NA,NA,NA,NA,NA,NA
770bf,task,flow.Sequence,3_0_0_0_4,NA,NA,completion,18897.025,273642.79999995,273641.036,273657.769,292554.794,292556,2023-03-18T10:35:47Z,292571.428,NULL,Tester,wanaojaribu,d,NA,NA,NA,NA,sdf,NA,0,NA,NA,NA,NA,NA,NA,NA,NA,NA,NA,NA,NA,NA,NA,NA,NA,NA,NA,NA
770bf,deep,flow.Sequence,3_0_0_0_5_0,NA,NA,skipped,NA,292556.0999999,NA,NA,292554.794,292556.20000005,2023-03-18T10:35:47Z,292571.428,NULL,Fenster,dirisha,s,walakini,tasawari,maarifa,NA,sdf,NA,0,NA,NA,NA,NA,NA,NA,NA,NA,NA,NA,NA,NA,NA,NA,NA,NA,NA,NA,NA
770bf,Shallow Question,html.Page,3_0_0_0_5_1_0,NA,NA,form submission,8592.9719998569,292556.29999995,292554.794,292571.428,301164.39999986,301164.5999999,2023-03-18T10:35:56Z,301170.076,NULL,Fenster,dirisha,s,walakini,tasawari,maarifa,dirisha,NA,NA,0,NA,NA,NA,NA,NA,NA,NA,NA,NA,NA,NA,NA,NA,NA,NA,NA,NA,NA,NA
770bf,"""Richtig""-Screen",canvas.Screen,3_0_0_0_5_1_1,NA,NA,timeout,4999.233,301166.79999995,301153.51,301170.076,306152.664,306153.5,2023-03-18T10:36:01Z,306169.309,NULL,Fenster,dirisha,s,walakini,tasawari,maarifa,NA,sdf,1,0,NA,NA,NA,NA,NA,NA,NA,NA,NA,NA,NA,NA,NA,NA,NA,NA,NA,NA,NA
770bf,"""Falsch""-Screen",canvas.Screen,3_0_0_0_5_1_2,NA,NA,skipped,NA,306156,NA,NA,306152.664,306156.0999999,2023-03-18T10:36:01Z,306169.309,NULL,Fenster,dirisha,s,walakini,tasawari,maarifa,NA,sdf,NA,0,NA,NA,NA,NA,NA,NA,NA,NA,NA,NA,NA,NA,NA,NA,NA,NA,NA,NA,NA
770bf,shallow,flow.Sequence,3_0_0_0_5_1,NA,NA,completion,13581.236,292556.29999995,292554.794,292571.428,306152.664,306156.39999986,2023-03-18T10:36:01Z,306169.309,NULL,Fenster,dirisha,s,walakini,tasawari,maarifa,NA,sdf,NA,0,NA,NA,NA,NA,NA,NA,NA,NA,NA,NA,NA,NA,NA,NA,NA,NA,NA,NA,NA
770bf,task,flow.Sequence,3_0_0_0_5,NA,NA,completion,13581.236,292556.0999999,292554.794,292571.428,306152.664,306156.5,2023-03-18T10:36:01Z,306169.309,NULL,Fenster,dirisha,s,walakini,tasawari,maarifa,NA,sdf,NA,0,NA,NA,NA,NA,NA,NA,NA,NA,NA,NA,NA,NA,NA,NA,NA,NA,NA,NA,NA
770bf,deep,flow.Sequence,3_0_0_0_6_0,NA,NA,skipped,NA,306156.5999999,NA,NA,306152.664,306156.5999999,2023-03-18T10:36:01Z,306169.309,NULL,Symbol,kielezo,s,kinyume,nderemo,utayari,NA,sdf,NA,0,NA,NA,NA,NA,NA,NA,NA,NA,NA,NA,NA,NA,NA,NA,NA,NA,NA,NA,NA
770bf,Shallow Question,html.Page,3_0_0_0_6_1_0,NA,NA,form submission,8959.2909999046,306156.70000005,306152.664,306169.309,315128.5999999,315128.79999995,2023-03-18T10:36:10Z,315134.562,NULL,Symbol,kielezo,s,kinyume,nderemo,utayari,nderemo,NA,NA,0,NA,NA,NA,NA,NA,NA,NA,NA,NA,NA,NA,NA,NA,NA,NA,NA,NA,NA,NA
770bf,"""Richtig""-Screen",canvas.Screen,3_0_0_0_6_1_1,NA,NA,skipped,NA,315130.79999995,NA,NA,315128.5999999,315130.89999986,2023-03-18T10:36:10Z,315134.562,NULL,Symbol,kielezo,s,kinyume,nderemo,utayari,NA,sdf,NA,0,NA,NA,NA,NA,NA,NA,NA,NA,NA,NA,NA,NA,NA,NA,NA,NA,NA,NA,NA
770bf,"""Falsch""-Screen",canvas.Screen,3_0_0_0_6_1_2,NA,NA,timeout,4999.282,315131.5999999,315117.953,315134.562,320117.192,320117.79999995,2023-03-18T10:36:15Z,320133.844,NULL,Symbol,kielezo,s,kinyume,nderemo,utayari,NA,sdf,0,0,NA,NA,NA,NA,NA,NA,NA,NA,NA,NA,NA,NA,NA,NA,NA,NA,NA,NA,NA
770bf,shallow,flow.Sequence,3_0_0_0_6_1,NA,NA,completion,13947.883,306156.5999999,306152.664,306169.309,320117.192,320118,2023-03-18T10:36:15Z,320133.844,NULL,Symbol,kielezo,s,kinyume,nderemo,utayari,NA,sdf,NA,0,NA,NA,NA,NA,NA,NA,NA,NA,NA,NA,NA,NA,NA,NA,NA,NA,NA,NA,NA
770bf,task,flow.Sequence,3_0_0_0_6,NA,NA,completion,13947.883,306156.5999999,306152.664,306169.309,320117.192,320118.20000005,2023-03-18T10:36:15Z,320133.844,NULL,Symbol,kielezo,s,kinyume,nderemo,utayari,NA,sdf,NA,0,NA,NA,NA,NA,NA,NA,NA,NA,NA,NA,NA,NA,NA,NA,NA,NA,NA,NA,NA
770bf,deep,flow.Sequence,3_0_0_0_7_0,NA,NA,skipped,NA,320118.39999986,NA,NA,320117.192,320118.5,2023-03-18T10:36:15Z,320133.844,NULL,Zuwachs,nyongeza,s,matilaba,udhibiti,hudhurio,NA,sdf,NA,0,NA,NA,NA,NA,NA,NA,NA,NA,NA,NA,NA,NA,NA,NA,NA,NA,NA,NA,NA
770bf,Shallow Question,html.Page,3_0_0_0_7_1_0,NA,NA,form submission,5530.656,320118.70000005,320117.192,320133.844,325664.5,325664.70000005,2023-03-18T10:36:20Z,325666.271,NULL,Zuwachs,nyongeza,s,matilaba,udhibiti,hudhurio,udhibiti,NA,NA,0,NA,NA,NA,NA,NA,NA,NA,NA,NA,NA,NA,NA,NA,NA,NA,NA,NA,NA,NA
770bf,"""Richtig""-Screen",canvas.Screen,3_0_0_0_7_1_1,NA,NA,skipped,NA,325667.70000005,NA,NA,325664.5,325667.79999995,2023-03-18T10:36:20Z,325666.271,NULL,Zuwachs,nyongeza,s,matilaba,udhibiti,hudhurio,NA,sdf,NA,0,NA,NA,NA,NA,NA,NA,NA,NA,NA,NA,NA,NA,NA,NA,NA,NA,NA,NA,NA
770bf,"""Falsch""-Screen",canvas.Screen,3_0_0_0_7_1_2,NA,NA,timeout,4999.323,325668.5999999,325649.684,325666.271,330648.896,330649.39999986,2023-03-18T10:36:25Z,330665.594,NULL,Zuwachs,nyongeza,s,matilaba,udhibiti,hudhurio,NA,sdf,0,0,NA,NA,NA,NA,NA,NA,NA,NA,NA,NA,NA,NA,NA,NA,NA,NA,NA,NA,NA
770bf,shallow,flow.Sequence,3_0_0_0_7_1,NA,NA,completion,10515.052,320118.5999999,320117.192,320133.844,330648.896,330649.70000005,2023-03-18T10:36:25Z,330665.594,NULL,Zuwachs,nyongeza,s,matilaba,udhibiti,hudhurio,NA,sdf,NA,0,NA,NA,NA,NA,NA,NA,NA,NA,NA,NA,NA,NA,NA,NA,NA,NA,NA,NA,NA
770bf,task,flow.Sequence,3_0_0_0_7,NA,NA,completion,10515.052,320118.29999995,320117.192,320133.844,330648.896,330649.89999986,2023-03-18T10:36:25Z,330665.594,NULL,Zuwachs,nyongeza,s,matilaba,udhibiti,hudhurio,NA,sdf,NA,0,NA,NA,NA,NA,NA,NA,NA,NA,NA,NA,NA,NA,NA,NA,NA,NA,NA,NA,NA
770bf,block,flow.Loop,3_0_0_0,NA,NA,completion,129596.721,201035.79999995,201019.799,201052.175,330648.896,330650,2023-03-18T10:36:25Z,330665.594,NULL,NA,NA,NA,NA,NA,NA,NA,sdf,NA,0,NA,NA,NA,NA,NA,NA,NA,NA,NA,NA,NA,NA,NA,NA,NA,NA,NA,NA,NA
770bf,weiter,canvas.Screen,3_0_0_1,sdf,keypress(Space),response,1461.5059999046,330650.0999999,330648.896,330665.594,332127.0999999,332129.29999995,2023-03-18T10:36:27Z,332215.263,NULL,NA,NA,NA,NA,NA,NA,NA,sdf,NA,0,NA,NA,NA,NA,NA,NA,NA,NA,NA,NA,NA,NA,NA,NA,NA,NA,NA,NA,NA
770bf,check continue,flow.Sequence,3_0_0,NA,NA,completion,131074.9249999,201035.79999995,201019.799,201052.175,332127.0999999,332129.5,2023-03-18T10:36:27Z,332215.263,NULL,NA,NA,NA,NA,NA,NA,NA,sdf,NA,0,NA,NA,NA,NA,NA,NA,NA,NA,NA,NA,NA,NA,NA,NA,NA,NA,NA,NA,NA
770bf,Deep Question,html.Page,3_0_1_0_0_0_0,NA,NA,form submission,7855.0369999523,332228.29999995,332115.409,332215.263,340070.29999995,340070.5,2023-03-18T10:36:35Z,340080.797,NULL,Konkurrent,mshindani,d,NA,NA,NA,x,NA,NA,1,NA,NA,NA,NA,NA,NA,NA,NA,NA,NA,NA,NA,NA,NA,NA,NA,NA,NA,NA
770bf,"""Richtig""-Screen",canvas.Screen,3_0_1_0_0_0_1,NA,NA,skipped,NA,340072.79999995,NA,NA,340070.29999995,340072.89999986,2023-03-18T10:36:35Z,340080.797,NULL,Konkurrent,mshindani,d,NA,NA,NA,NA,sdfdsf,NA,1,NA,NA,NA,NA,NA,NA,NA,NA,NA,NA,NA,NA,NA,NA,NA,NA,NA,NA,NA
770bf,"""Falsch""-Screen",canvas.Screen,3_0_1_0_0_0_2,NA,NA,timeout,4999.244,340073.70000005,340064.128,340080.797,345063.316,345063.89999986,2023-03-18T10:36:40Z,345080.041,NULL,Konkurrent,mshindani,d,NA,NA,NA,NA,sdfdsf,0,1,NA,NA,NA,NA,NA,NA,NA,NA,NA,NA,NA,NA,NA,NA,NA,NA,NA,NA,NA
770bf,deep,flow.Sequence,3_0_1_0_0_0,NA,NA,completion,12848.053,332228.20000005,332115.409,332215.263,345063.316,345064.0999999,2023-03-18T10:36:40Z,345080.041,NULL,Konkurrent,mshindani,d,NA,NA,NA,NA,sdfdsf,NA,1,NA,NA,NA,NA,NA,NA,NA,NA,NA,NA,NA,NA,NA,NA,NA,NA,NA,NA,NA
770bf,shallow,flow.Sequence,3_0_1_0_0_1,NA,NA,skipped,NA,345064.20000005,NA,NA,345063.316,345064.29999995,2023-03-18T10:36:40Z,345080.041,NULL,Konkurrent,mshindani,d,NA,NA,NA,NA,sdfdsf,NA,1,NA,NA,NA,NA,NA,NA,NA,NA,NA,NA,NA,NA,NA,NA,NA,NA,NA,NA,NA
770bf,task,flow.Sequence,3_0_1_0_0,NA,NA,completion,12848.053,332228.20000005,332115.409,332215.263,345063.316,345064.5,2023-03-18T10:36:40Z,345080.041,NULL,Konkurrent,mshindani,d,NA,NA,NA,NA,sdfdsf,NA,1,NA,NA,NA,NA,NA,NA,NA,NA,NA,NA,NA,NA,NA,NA,NA,NA,NA,NA,NA
770bf,Deep Question,html.Page,3_0_1_0_1_0_0,NA,NA,form submission,8906.2589999523,345064.5,345063.316,345080.041,353986.29999995,353986.5999999,2023-03-18T10:36:48Z,353995.274,NULL,Schüler,mwanafunzi,d,NA,NA,NA,mshindani,NA,NA,1,NA,NA,NA,NA,NA,NA,NA,NA,NA,NA,NA,NA,NA,NA,NA,NA,NA,NA,NA
770bf,"""Richtig""-Screen",canvas.Screen,3_0_1_0_1_0_1,NA,NA,skipped,NA,353988.89999986,NA,NA,353986.29999995,353989,2023-03-18T10:36:48Z,353995.274,NULL,Schüler,mwanafunzi,d,NA,NA,NA,NA,sdfdsf,NA,1,NA,NA,NA,NA,NA,NA,NA,NA,NA,NA,NA,NA,NA,NA,NA,NA,NA,NA,NA
770bf,"""Falsch""-Screen",canvas.Screen,3_0_1_0_1_0_2,NA,NA,timeout,4999.273,353989.79999995,353978.657,353995.274,358977.853,358978.39999986,2023-03-18T10:36:53Z,358994.547,NULL,Schüler,mwanafunzi,d,NA,NA,NA,NA,sdfdsf,0,1,NA,NA,NA,NA,NA,NA,NA,NA,NA,NA,NA,NA,NA,NA,NA,NA,NA,NA,NA
770bf,deep,flow.Sequence,3_0_1_0_1_0,NA,NA,completion,13897.812,345064.5,345063.316,345080.041,358977.853,358978.70000005,2023-03-18T10:36:53Z,358994.547,NULL,Schüler,mwanafunzi,d,NA,NA,NA,NA,sdfdsf,NA,1,NA,NA,NA,NA,NA,NA,NA,NA,NA,NA,NA,NA,NA,NA,NA,NA,NA,NA,NA
770bf,shallow,flow.Sequence,3_0_1_0_1_1,NA,NA,skipped,NA,358978.89999986,NA,NA,358977.853,358978.89999986,2023-03-18T10:36:53Z,358994.547,NULL,Schüler,mwanafunzi,d,NA,NA,NA,NA,sdfdsf,NA,1,NA,NA,NA,NA,NA,NA,NA,NA,NA,NA,NA,NA,NA,NA,NA,NA,NA,NA,NA
770bf,task,flow.Sequence,3_0_1_0_1,NA,NA,completion,13897.812,345064.5,345063.316,345080.041,358977.853,358979.0999999,2023-03-18T10:36:53Z,358994.547,NULL,Schüler,mwanafunzi,d,NA,NA,NA,NA,sdfdsf,NA,1,NA,NA,NA,NA,NA,NA,NA,NA,NA,NA,NA,NA,NA,NA,NA,NA,NA,NA,NA
770bf,Deep Question,html.Page,3_0_1_0_2_0_0,NA,NA,form submission,11897.653000048,358979.20000005,358977.853,358994.547,370892.20000005,370892.5,2023-03-18T10:37:05Z,370916.547,NULL,Tester,wanaojaribu,d,NA,NA,NA,mshindani,NA,NA,1,NA,NA,NA,NA,NA,NA,NA,NA,NA,NA,NA,NA,NA,NA,NA,NA,NA,NA,NA
770bf,"""Richtig""-Screen",canvas.Screen,3_0_1_0_2_0_1,NA,NA,skipped,NA,370895.20000005,NA,NA,370892.20000005,370895.29999995,2023-03-18T10:37:05Z,370916.547,NULL,Tester,wanaojaribu,d,NA,NA,NA,NA,sdfdsf,NA,1,NA,NA,NA,NA,NA,NA,NA,NA,NA,NA,NA,NA,NA,NA,NA,NA,NA,NA,NA
770bf,"""Falsch""-Screen",canvas.Screen,3_0_1_0_2_0_2,NA,NA,timeout,4992.029,370896,370876.032,370916.547,375891.877,375892.70000005,2023-03-18T10:37:10Z,375908.576,NULL,Tester,wanaojaribu,d,NA,NA,NA,NA,sdfdsf,0,1,NA,NA,NA,NA,NA,NA,NA,NA,NA,NA,NA,NA,NA,NA,NA,NA,NA,NA,NA
770bf,deep,flow.Sequence,3_0_1_0_2_0,NA,NA,completion,16897.33,358979.20000005,358977.853,358994.547,375891.877,375893,2023-03-18T10:37:10Z,375908.576,NULL,Tester,wanaojaribu,d,NA,NA,NA,NA,sdfdsf,NA,1,NA,NA,NA,NA,NA,NA,NA,NA,NA,NA,NA,NA,NA,NA,NA,NA,NA,NA,NA
770bf,shallow,flow.Sequence,3_0_1_0_2_1,NA,NA,skipped,NA,375893,NA,NA,375891.877,375893.20000005,2023-03-18T10:37:10Z,375908.576,NULL,Tester,wanaojaribu,d,NA,NA,NA,NA,sdfdsf,NA,1,NA,NA,NA,NA,NA,NA,NA,NA,NA,NA,NA,NA,NA,NA,NA,NA,NA,NA,NA
770bf,task,flow.Sequence,3_0_1_0_2,NA,NA,completion,16897.33,358979.20000005,358977.853,358994.547,375891.877,375893.29999995,2023-03-18T10:37:10Z,375908.576,NULL,Tester,wanaojaribu,d,NA,NA,NA,NA,sdfdsf,NA,1,NA,NA,NA,NA,NA,NA,NA,NA,NA,NA,NA,NA,NA,NA,NA,NA,NA,NA,NA
770bf,deep,flow.Sequence,3_0_1_0_3_0,NA,NA,skipped,NA,375893.39999986,NA,NA,375891.877,375893.5,2023-03-18T10:37:10Z,375908.576,NULL,Zuwachs,nyongeza,s,matilaba,udhibiti,hudhurio,NA,sdfdsf,NA,1,NA,NA,NA,NA,NA,NA,NA,NA,NA,NA,NA,NA,NA,NA,NA,NA,NA,NA,NA
770bf,Shallow Question,html.Page,3_0_1_0_3_1_0,NA,NA,form submission,4491.6240000477,375893.5,375891.877,375908.576,380400.20000005,380400.5999999,2023-03-18T10:37:15Z,380407.853,NULL,Zuwachs,nyongeza,s,matilaba,udhibiti,hudhurio,nyongeza,NA,NA,1,NA,NA,NA,NA,NA,NA,NA,NA,NA,NA,NA,NA,NA,NA,NA,NA,NA,NA,NA
770bf,"""Richtig""-Screen",canvas.Screen,3_0_1_0_3_1_1,NA,NA,timeout,4999.249,380403.0999999,380391.232,380407.853,385390.383,385391.29999995,2023-03-18T10:37:20Z,385407.102,NULL,Zuwachs,nyongeza,s,matilaba,udhibiti,hudhurio,NA,sdfdsf,1,1,NA,NA,NA,NA,NA,NA,NA,NA,NA,NA,NA,NA,NA,NA,NA,NA,NA,NA,NA
770bf,"""Falsch""-Screen",canvas.Screen,3_0_1_0_3_1_2,NA,NA,skipped,NA,385393.79999995,NA,NA,385390.383,385393.79999995,2023-03-18T10:37:20Z,385407.102,NULL,Zuwachs,nyongeza,s,matilaba,udhibiti,hudhurio,NA,sdfdsf,NA,1,NA,NA,NA,NA,NA,NA,NA,NA,NA,NA,NA,NA,NA,NA,NA,NA,NA,NA,NA
770bf,shallow,flow.Sequence,3_0_1_0_3_1,NA,NA,completion,9481.807,375893.5,375891.877,375908.576,385390.383,385394.0999999,2023-03-18T10:37:20Z,385407.102,NULL,Zuwachs,nyongeza,s,matilaba,udhibiti,hudhurio,NA,sdfdsf,NA,1,NA,NA,NA,NA,NA,NA,NA,NA,NA,NA,NA,NA,NA,NA,NA,NA,NA,NA,NA
770bf,task,flow.Sequence,3_0_1_0_3,NA,NA,completion,9481.807,375893.39999986,375891.877,375908.576,385390.383,385394.20000005,2023-03-18T10:37:20Z,385407.102,NULL,Zuwachs,nyongeza,s,matilaba,udhibiti,hudhurio,NA,sdfdsf,NA,1,NA,NA,NA,NA,NA,NA,NA,NA,NA,NA,NA,NA,NA,NA,NA,NA,NA,NA,NA
770bf,deep,flow.Sequence,3_0_1_0_4_0,NA,NA,skipped,NA,385394.29999995,NA,NA,385390.383,385394.29999995,2023-03-18T10:37:20Z,385407.102,NULL,Fenster,dirisha,s,walakini,tasawari,maarifa,NA,sdfdsf,NA,1,NA,NA,NA,NA,NA,NA,NA,NA,NA,NA,NA,NA,NA,NA,NA,NA,NA,NA,NA
770bf,Shallow Question,html.Page,3_0_1_0_4_1_0,NA,NA,form submission,3934.9979999046,385394.39999986,385390.383,385407.102,389342.0999999,389342.39999986,2023-03-18T10:37:24Z,389356.609,NULL,Fenster,dirisha,s,walakini,tasawari,maarifa,dirisha,NA,NA,1,NA,NA,NA,NA,NA,NA,NA,NA,NA,NA,NA,NA,NA,NA,NA,NA,NA,NA,NA
770bf,"""Richtig""-Screen",canvas.Screen,3_0_1_0_4_1_1,NA,NA,timeout,4999.082,389344.29999995,389339.795,389356.609,394339.031,394339.89999986,2023-03-18T10:37:29Z,394355.691,NULL,Fenster,dirisha,s,walakini,tasawari,maarifa,NA,sdfdsf,1,1,NA,NA,NA,NA,NA,NA,NA,NA,NA,NA,NA,NA,NA,NA,NA,NA,NA,NA,NA
770bf,"""Falsch""-Screen",canvas.Screen,3_0_1_0_4_1_2,NA,NA,skipped,NA,394342.0999999,NA,NA,394339.031,394342.29999995,2023-03-18T10:37:29Z,394355.691,NULL,Fenster,dirisha,s,walakini,tasawari,maarifa,NA,sdfdsf,NA,1,NA,NA,NA,NA,NA,NA,NA,NA,NA,NA,NA,NA,NA,NA,NA,NA,NA,NA,NA
770bf,shallow,flow.Sequence,3_0_1_0_4_1,NA,NA,completion,8931.929,385394.39999986,385390.383,385407.102,394339.031,394342.39999986,2023-03-18T10:37:29Z,394355.691,NULL,Fenster,dirisha,s,walakini,tasawari,maarifa,NA,sdfdsf,NA,1,NA,NA,NA,NA,NA,NA,NA,NA,NA,NA,NA,NA,NA,NA,NA,NA,NA,NA,NA
770bf,task,flow.Sequence,3_0_1_0_4,NA,NA,completion,8931.929,385394.29999995,385390.383,385407.102,394339.031,394342.5,2023-03-18T10:37:29Z,394355.691,NULL,Fenster,dirisha,s,walakini,tasawari,maarifa,NA,sdfdsf,NA,1,NA,NA,NA,NA,NA,NA,NA,NA,NA,NA,NA,NA,NA,NA,NA,NA,NA,NA,NA
770bf,deep,flow.Sequence,3_0_1_0_5_0,NA,NA,skipped,NA,394342.5999999,NA,NA,394339.031,394342.70000005,2023-03-18T10:37:29Z,394355.691,NULL,Symbol,kielezo,s,kinyume,nderemo,utayari,NA,sdfdsf,NA,1,NA,NA,NA,NA,NA,NA,NA,NA,NA,NA,NA,NA,NA,NA,NA,NA,NA,NA,NA
770bf,Shallow Question,html.Page,3_0_1_0_5_1_0,NA,NA,form submission,4668.5090000477,394342.70000005,394339.031,394355.691,399024.20000005,399024.39999986,2023-03-18T10:37:33Z,399038.34,NULL,Symbol,kielezo,s,kinyume,nderemo,utayari,kielezo,NA,NA,1,NA,NA,NA,NA,NA,NA,NA,NA,NA,NA,NA,NA,NA,NA,NA,NA,NA,NA,NA
770bf,"""Richtig""-Screen",canvas.Screen,3_0_1_0_5_1_1,NA,NA,timeout,4999.238,399026.5999999,399021.687,399038.34,404020.899,404021.5,2023-03-18T10:37:38Z,404037.578,NULL,Symbol,kielezo,s,kinyume,nderemo,utayari,NA,sdfdsf,1,1,NA,NA,NA,NA,NA,NA,NA,NA,NA,NA,NA,NA,NA,NA,NA,NA,NA,NA,NA
770bf,"""Falsch""-Screen",canvas.Screen,3_0_1_0_5_1_2,NA,NA,skipped,NA,404023.89999986,NA,NA,404020.899,404024.0999999,2023-03-18T10:37:38Z,404037.578,NULL,Symbol,kielezo,s,kinyume,nderemo,utayari,NA,sdfdsf,NA,1,NA,NA,NA,NA,NA,NA,NA,NA,NA,NA,NA,NA,NA,NA,NA,NA,NA,NA,NA
770bf,shallow,flow.Sequence,3_0_1_0_5_1,NA,NA,completion,9665.208,394342.70000005,394339.031,394355.691,404020.899,404024.29999995,2023-03-18T10:37:38Z,404037.578,NULL,Symbol,kielezo,s,kinyume,nderemo,utayari,NA,sdfdsf,NA,1,NA,NA,NA,NA,NA,NA,NA,NA,NA,NA,NA,NA,NA,NA,NA,NA,NA,NA,NA
770bf,task,flow.Sequence,3_0_1_0_5,NA,NA,completion,9665.208,394342.5999999,394339.031,394355.691,404020.899,404024.39999986,2023-03-18T10:37:38Z,404037.578,NULL,Symbol,kielezo,s,kinyume,nderemo,utayari,NA,sdfdsf,NA,1,NA,NA,NA,NA,NA,NA,NA,NA,NA,NA,NA,NA,NA,NA,NA,NA,NA,NA,NA
770bf,Deep Question,html.Page,3_0_1_0_6_0_0,NA,NA,form submission,6248.5219999047,404024.39999986,404020.899,404037.578,410286.0999999,410286.29999995,2023-03-18T10:37:45Z,410310.337,NULL,Vorsorge,tahadhari,d,NA,NA,NA,mshindani,NA,NA,1,NA,NA,NA,NA,NA,NA,NA,NA,NA,NA,NA,NA,NA,NA,NA,NA,NA,NA,NA
770bf,"""Richtig""-Screen",canvas.Screen,3_0_1_0_6_0_1,NA,NA,skipped,NA,410288.5,NA,NA,410286.0999999,410288.5999999,2023-03-18T10:37:45Z,410310.337,NULL,Vorsorge,tahadhari,d,NA,NA,NA,NA,sdfdsf,NA,1,NA,NA,NA,NA,NA,NA,NA,NA,NA,NA,NA,NA,NA,NA,NA,NA,NA,NA,NA
770bf,"""Falsch""-Screen",canvas.Screen,3_0_1_0_6_0_2,NA,NA,timeout,4992.103,410289.29999995,410269.934,410310.337,415285.831,415286.39999986,2023-03-18T10:37:50Z,415302.44,NULL,Vorsorge,tahadhari,d,NA,NA,NA,NA,sdfdsf,0,1,NA,NA,NA,NA,NA,NA,NA,NA,NA,NA,NA,NA,NA,NA,NA,NA,NA,NA,NA
770bf,deep,flow.Sequence,3_0_1_0_6_0,NA,NA,completion,11248.253,404024.39999986,404020.899,404037.578,415285.831,415286.70000005,2023-03-18T10:37:50Z,415302.44,NULL,Vorsorge,tahadhari,d,NA,NA,NA,NA,sdfdsf,NA,1,NA,NA,NA,NA,NA,NA,NA,NA,NA,NA,NA,NA,NA,NA,NA,NA,NA,NA,NA
770bf,shallow,flow.Sequence,3_0_1_0_6_1,NA,NA,skipped,NA,415286.70000005,NA,NA,415285.831,415286.79999995,2023-03-18T10:37:50Z,415302.44,NULL,Vorsorge,tahadhari,d,NA,NA,NA,NA,sdfdsf,NA,1,NA,NA,NA,NA,NA,NA,NA,NA,NA,NA,NA,NA,NA,NA,NA,NA,NA,NA,NA
770bf,task,flow.Sequence,3_0_1_0_6,NA,NA,completion,11248.253,404024.39999986,404020.899,404037.578,415285.831,415287,2023-03-18T10:37:50Z,415302.44,NULL,Vorsorge,tahadhari,d,NA,NA,NA,NA,sdfdsf,NA,1,NA,NA,NA,NA,NA,NA,NA,NA,NA,NA,NA,NA,NA,NA,NA,NA,NA,NA,NA
770bf,deep,flow.Sequence,3_0_1_0_7_0,NA,NA,skipped,NA,415287.0999999,NA,NA,415285.831,415287.0999999,2023-03-18T10:37:50Z,415302.44,NULL,Spionage,upelelezi,s,maslahi,utokazo,magangao,NA,sdfdsf,NA,1,NA,NA,NA,NA,NA,NA,NA,NA,NA,NA,NA,NA,NA,NA,NA,NA,NA,NA,NA
770bf,Shallow Question,html.Page,3_0_1_0_7_1_0,NA,NA,form submission,8253.7600000477,415287.29999995,415285.831,415302.44,423556.20000005,423556.5,2023-03-18T10:37:58Z,423567.891,NULL,Spionage,upelelezi,s,maslahi,utokazo,magangao,maslahi,NA,NA,1,NA,NA,NA,NA,NA,NA,NA,NA,NA,NA,NA,NA,NA,NA,NA,NA,NA,NA,NA
770bf,"""Richtig""-Screen",canvas.Screen,3_0_1_0_7_1_1,NA,NA,skipped,NA,423558.89999986,NA,NA,423556.20000005,423559.0999999,2023-03-18T10:37:58Z,423567.891,NULL,Spionage,upelelezi,s,maslahi,utokazo,magangao,NA,sdfdsf,NA,1,NA,NA,NA,NA,NA,NA,NA,NA,NA,NA,NA,NA,NA,NA,NA,NA,NA,NA,NA
770bf,"""Falsch""-Screen",canvas.Screen,3_0_1_0_7_1_2,NA,NA,timeout,4999.182,423559.79999995,423551.246,423567.891,428550.433,428551,2023-03-18T10:38:03Z,428567.073,NULL,Spionage,upelelezi,s,maslahi,utokazo,magangao,NA,sdfdsf,0,1,NA,NA,NA,NA,NA,NA,NA,NA,NA,NA,NA,NA,NA,NA,NA,NA,NA,NA,NA
770bf,shallow,flow.Sequence,3_0_1_0_7_1,NA,NA,completion,13247.993,415287.20000005,415285.831,415302.44,428550.433,428551.20000005,2023-03-18T10:38:03Z,428567.073,NULL,Spionage,upelelezi,s,maslahi,utokazo,magangao,NA,sdfdsf,NA,1,NA,NA,NA,NA,NA,NA,NA,NA,NA,NA,NA,NA,NA,NA,NA,NA,NA,NA,NA
770bf,task,flow.Sequence,3_0_1_0_7,NA,NA,completion,13247.993,415287,415285.831,415302.44,428550.433,428551.39999986,2023-03-18T10:38:03Z,428567.073,NULL,Spionage,upelelezi,s,maslahi,utokazo,magangao,NA,sdfdsf,NA,1,NA,NA,NA,NA,NA,NA,NA,NA,NA,NA,NA,NA,NA,NA,NA,NA,NA,NA,NA
770bf,block,flow.Loop,3_0_1_0,NA,NA,completion,96335.17,332228.20000005,332115.409,332215.263,428550.433,428551.5,2023-03-18T10:38:03Z,428567.073,NULL,NA,NA,NA,NA,NA,NA,NA,sdfdsf,NA,1,NA,NA,NA,NA,NA,NA,NA,NA,NA,NA,NA,NA,NA,NA,NA,NA,NA,NA,NA
770bf,weiter,canvas.Screen,3_0_1_1,sdf,keypress(Space),response,1386.826999857,428551.5999999,428550.433,428567.073,429953.89999986,429956.29999995,2023-03-18T10:38:04Z,429983.51,NULL,NA,NA,NA,NA,NA,NA,NA,sdfdsf,NA,1,NA,NA,NA,NA,NA,NA,NA,NA,NA,NA,NA,NA,NA,NA,NA,NA,NA,NA,NA
770bf,check continue,flow.Sequence,3_0_1,NA,NA,completion,97738.636999857,332228.0999999,332115.409,332215.263,429953.89999986,429956.5,2023-03-18T10:38:04Z,429983.51,NULL,NA,NA,NA,NA,NA,NA,NA,sdfdsf,NA,1,NA,NA,NA,NA,NA,NA,NA,NA,NA,NA,NA,NA,NA,NA,NA,NA,NA,NA,NA
770bf,Deep Question,html.Page,3_0_2_0_0_0_0,NA,NA,form submission,6656.6900000477,429991.79999995,429950.288,429983.51,436640.20000005,436640.39999986,2023-03-18T10:38:11Z,436649.23,NULL,Konkurrent,mshindani,d,NA,NA,NA,mshindani,NA,NA,2,NA,NA,NA,NA,NA,NA,NA,NA,NA,NA,NA,NA,NA,NA,NA,NA,NA,NA,NA
770bf,"""Richtig""-Screen",canvas.Screen,3_0_2_0_0_0_1,NA,NA,timeout,4999.174,436642.5,436632.579,436649.23,441631.739,441632.29999995,2023-03-18T10:38:16Z,441648.404,NULL,Konkurrent,mshindani,d,NA,NA,NA,NA,sdf,1,2,NA,NA,NA,NA,NA,NA,NA,NA,NA,NA,NA,NA,NA,NA,NA,NA,NA,NA,NA
770bf,"""Falsch""-Screen",canvas.Screen,3_0_2_0_0_0_2,NA,NA,skipped,NA,441634.5999999,NA,NA,441631.739,441634.79999995,2023-03-18T10:38:16Z,441648.404,NULL,Konkurrent,mshindani,d,NA,NA,NA,NA,sdf,NA,2,NA,NA,NA,NA,NA,NA,NA,NA,NA,NA,NA,NA,NA,NA,NA,NA,NA,NA,NA
770bf,deep,flow.Sequence,3_0_2_0_0_0,NA,NA,completion,11648.229,429991.79999995,429950.288,429983.51,441631.739,441634.89999986,2023-03-18T10:38:16Z,441648.404,NULL,Konkurrent,mshindani,d,NA,NA,NA,NA,sdf,NA,2,NA,NA,NA,NA,NA,NA,NA,NA,NA,NA,NA,NA,NA,NA,NA,NA,NA,NA,NA
770bf,shallow,flow.Sequence,3_0_2_0_0_1,NA,NA,skipped,NA,441635,NA,NA,441631.739,441635,2023-03-18T10:38:16Z,441648.404,NULL,Konkurrent,mshindani,d,NA,NA,NA,NA,sdf,NA,2,NA,NA,NA,NA,NA,NA,NA,NA,NA,NA,NA,NA,NA,NA,NA,NA,NA,NA,NA
770bf,task,flow.Sequence,3_0_2_0_0,NA,NA,completion,11648.229,429991.5999999,429950.288,429983.51,441631.739,441635.0999999,2023-03-18T10:38:16Z,441648.404,NULL,Konkurrent,mshindani,d,NA,NA,NA,NA,sdf,NA,2,NA,NA,NA,NA,NA,NA,NA,NA,NA,NA,NA,NA,NA,NA,NA,NA,NA,NA,NA
770bf,deep,flow.Sequence,3_0_2_0_1_0,NA,NA,skipped,NA,441635.0999999,NA,NA,441631.739,441635.20000005,2023-03-18T10:38:16Z,441648.404,NULL,Symbol,kielezo,s,kinyume,nderemo,utayari,NA,sdf,NA,2,NA,NA,NA,NA,NA,NA,NA,NA,NA,NA,NA,NA,NA,NA,NA,NA,NA,NA,NA
770bf,Shallow Question,html.Page,3_0_2_0_1_1_0,NA,NA,form submission,8003.7960000477,441635.29999995,441631.739,441648.404,449652.20000005,449652.5,2023-03-18T10:38:24Z,449663.999,NULL,Symbol,kielezo,s,kinyume,nderemo,utayari,kielezo,NA,NA,2,NA,NA,NA,NA,NA,NA,NA,NA,NA,NA,NA,NA,NA,NA,NA,NA,NA,NA,NA
770bf,"""Richtig""-Screen",canvas.Screen,3_0_2_0_1_1_1,NA,NA,timeout,4999.047,449654.70000005,449647.217,449663.999,454646.426,454647.20000005,2023-03-18T10:38:29Z,454663.046,NULL,Symbol,kielezo,s,kinyume,nderemo,utayari,NA,sdf,1,2,NA,NA,NA,NA,NA,NA,NA,NA,NA,NA,NA,NA,NA,NA,NA,NA,NA,NA,NA
770bf,"""Falsch""-Screen",canvas.Screen,3_0_2_0_1_1_2,NA,NA,skipped,NA,454649.5999999,NA,NA,454646.426,454649.70000005,2023-03-18T10:38:29Z,454663.046,NULL,Symbol,kielezo,s,kinyume,nderemo,utayari,NA,sdf,NA,2,NA,NA,NA,NA,NA,NA,NA,NA,NA,NA,NA,NA,NA,NA,NA,NA,NA,NA,NA
770bf,shallow,flow.Sequence,3_0_2_0_1_1,NA,NA,completion,12998.022,441635.29999995,441631.739,441648.404,454646.426,454649.89999986,2023-03-18T10:38:29Z,454663.046,NULL,Symbol,kielezo,s,kinyume,nderemo,utayari,NA,sdf,NA,2,NA,NA,NA,NA,NA,NA,NA,NA,NA,NA,NA,NA,NA,NA,NA,NA,NA,NA,NA
770bf,task,flow.Sequence,3_0_2_0_1,NA,NA,completion,12998.022,441635.0999999,441631.739,441648.404,454646.426,454650,2023-03-18T10:38:29Z,454663.046,NULL,Symbol,kielezo,s,kinyume,nderemo,utayari,NA,sdf,NA,2,NA,NA,NA,NA,NA,NA,NA,NA,NA,NA,NA,NA,NA,NA,NA,NA,NA,NA,NA
770bf,deep,flow.Sequence,3_0_2_0_2_0,NA,NA,skipped,NA,454650.0999999,NA,NA,454646.426,454650.0999999,2023-03-18T10:38:29Z,454663.046,NULL,Spionage,upelelezi,s,maslahi,utokazo,magangao,NA,sdf,NA,2,NA,NA,NA,NA,NA,NA,NA,NA,NA,NA,NA,NA,NA,NA,NA,NA,NA,NA,NA
770bf,Shallow Question,html.Page,3_0_2_0_2_1_0,NA,NA,form submission,3661.0539999047,454650.20000005,454646.426,454663.046,458324.0999999,458324.29999995,2023-03-18T10:38:33Z,458329.139,NULL,Spionage,upelelezi,s,maslahi,utokazo,magangao,upelelezi,NA,NA,2,NA,NA,NA,NA,NA,NA,NA,NA,NA,NA,NA,NA,NA,NA,NA,NA,NA,NA,NA
770bf,"""Richtig""-Screen",canvas.Screen,3_0_2_0_2_1_1,NA,NA,timeout,4999.306,458326.0999999,458312.539,458329.139,463311.719,463312.29999995,2023-03-18T10:38:38Z,463328.445,NULL,Spionage,upelelezi,s,maslahi,utokazo,magangao,NA,sdf,1,2,NA,NA,NA,NA,NA,NA,NA,NA,NA,NA,NA,NA,NA,NA,NA,NA,NA,NA,NA
770bf,"""Falsch""-Screen",canvas.Screen,3_0_2_0_2_1_2,NA,NA,skipped,NA,463314.89999986,NA,NA,463311.719,463315,2023-03-18T10:38:38Z,463328.445,NULL,Spionage,upelelezi,s,maslahi,utokazo,magangao,NA,sdf,NA,2,NA,NA,NA,NA,NA,NA,NA,NA,NA,NA,NA,NA,NA,NA,NA,NA,NA,NA,NA
770bf,shallow,flow.Sequence,3_0_2_0_2_1,NA,NA,completion,8648.673,454650.20000005,454646.426,454663.046,463311.719,463315.20000005,2023-03-18T10:38:38Z,463328.445,NULL,Spionage,upelelezi,s,maslahi,utokazo,magangao,NA,sdf,NA,2,NA,NA,NA,NA,NA,NA,NA,NA,NA,NA,NA,NA,NA,NA,NA,NA,NA,NA,NA
770bf,task,flow.Sequence,3_0_2_0_2,NA,NA,completion,8648.673,454650,454646.426,454663.046,463311.719,463315.29999995,2023-03-18T10:38:38Z,463328.445,NULL,Spionage,upelelezi,s,maslahi,utokazo,magangao,NA,sdf,NA,2,NA,NA,NA,NA,NA,NA,NA,NA,NA,NA,NA,NA,NA,NA,NA,NA,NA,NA,NA
770bf,Deep Question,html.Page,3_0_2_0_3_0_0,NA,NA,form submission,20369.654999905,463315.29999995,463311.719,463328.445,483698.0999999,483698.39999986,2023-03-18T10:38:58Z,483708.654,NULL,Schüler,mwanafunzi,d,NA,NA,NA,mshindani,NA,NA,2,NA,NA,NA,NA,NA,NA,NA,NA,NA,NA,NA,NA,NA,NA,NA,NA,NA,NA,NA
770bf,"""Richtig""-Screen",canvas.Screen,3_0_2_0_3_0_1,NA,NA,skipped,NA,483700.5,NA,NA,483698.0999999,483700.70000005,2023-03-18T10:38:58Z,483708.654,NULL,Schüler,mwanafunzi,d,NA,NA,NA,NA,sdf,NA,2,NA,NA,NA,NA,NA,NA,NA,NA,NA,NA,NA,NA,NA,NA,NA,NA,NA,NA,NA
770bf,"""Falsch""-Screen",canvas.Screen,3_0_2_0_3_0_2,NA,NA,timeout,4999.214,483701.39999986,483691.995,483708.654,488691.137,488692,2023-03-18T10:39:03Z,488707.868,NULL,Schüler,mwanafunzi,d,NA,NA,NA,NA,sdf,0,2,NA,NA,NA,NA,NA,NA,NA,NA,NA,NA,NA,NA,NA,NA,NA,NA,NA,NA,NA
770bf,deep,flow.Sequence,3_0_2_0_3_0,NA,NA,completion,25362.692,463315.29999995,463311.719,463328.445,488691.137,488692.29999995,2023-03-18T10:39:03Z,488707.868,NULL,Schüler,mwanafunzi,d,NA,NA,NA,NA,sdf,NA,2,NA,NA,NA,NA,NA,NA,NA,NA,NA,NA,NA,NA,NA,NA,NA,NA,NA,NA,NA
770bf,shallow,flow.Sequence,3_0_2_0_3_1,NA,NA,skipped,NA,488692.39999986,NA,NA,488691.137,488692.5,2023-03-18T10:39:03Z,488707.868,NULL,Schüler,mwanafunzi,d,NA,NA,NA,NA,sdf,NA,2,NA,NA,NA,NA,NA,NA,NA,NA,NA,NA,NA,NA,NA,NA,NA,NA,NA,NA,NA
770bf,task,flow.Sequence,3_0_2_0_3,NA,NA,completion,25362.692,463315.29999995,463311.719,463328.445,488691.137,488692.5999999,2023-03-18T10:39:03Z,488707.868,NULL,Schüler,mwanafunzi,d,NA,NA,NA,NA,sdf,NA,2,NA,NA,NA,NA,NA,NA,NA,NA,NA,NA,NA,NA,NA,NA,NA,NA,NA,NA,NA
770bf,Deep Question,html.Page,3_0_2_0_4_0_0,NA,NA,form submission,25530.431999952,488692.79999995,488691.137,488707.868,514238.29999995,514238.5,2023-03-18T10:39:29Z,514253.832,NULL,Vorsorge,tahadhari,d,NA,NA,NA,x,NA,NA,2,NA,NA,NA,NA,NA,NA,NA,NA,NA,NA,NA,NA,NA,NA,NA,NA,NA,NA,NA
770bf,"""Richtig""-Screen",canvas.Screen,3_0_2_0_4_0_1,NA,NA,skipped,NA,514241,NA,NA,514238.29999995,514241,2023-03-18T10:39:29Z,514253.832,NULL,Vorsorge,tahadhari,d,NA,NA,NA,NA,sdf,NA,2,NA,NA,NA,NA,NA,NA,NA,NA,NA,NA,NA,NA,NA,NA,NA,NA,NA,NA,NA
770bf,"""Falsch""-Screen",canvas.Screen,3_0_2_0_4_0_2,NA,NA,timeout,4999.265,514242,514237.239,514253.832,519236.442,519237.0999999,2023-03-18T10:39:34Z,519253.097,NULL,Vorsorge,tahadhari,d,NA,NA,NA,NA,sdf,0,2,NA,NA,NA,NA,NA,NA,NA,NA,NA,NA,NA,NA,NA,NA,NA,NA,NA,NA,NA
770bf,deep,flow.Sequence,3_0_2_0_4_0,NA,NA,completion,30528.574,488692.79999995,488691.137,488707.868,519236.442,519237.29999995,2023-03-18T10:39:34Z,519253.097,NULL,Vorsorge,tahadhari,d,NA,NA,NA,NA,sdf,NA,2,NA,NA,NA,NA,NA,NA,NA,NA,NA,NA,NA,NA,NA,NA,NA,NA,NA,NA,NA
770bf,shallow,flow.Sequence,3_0_2_0_4_1,NA,NA,skipped,NA,519237.39999986,NA,NA,519236.442,519237.5,2023-03-18T10:39:34Z,519253.097,NULL,Vorsorge,tahadhari,d,NA,NA,NA,NA,sdf,NA,2,NA,NA,NA,NA,NA,NA,NA,NA,NA,NA,NA,NA,NA,NA,NA,NA,NA,NA,NA
770bf,task,flow.Sequence,3_0_2_0_4,NA,NA,completion,30528.574,488692.70000005,488691.137,488707.868,519236.442,519237.5999999,2023-03-18T10:39:34Z,519253.097,NULL,Vorsorge,tahadhari,d,NA,NA,NA,NA,sdf,NA,2,NA,NA,NA,NA,NA,NA,NA,NA,NA,NA,NA,NA,NA,NA,NA,NA,NA,NA,NA
770bf,deep,flow.Sequence,3_0_2_0_5_0,NA,NA,skipped,NA,519238,NA,NA,519236.442,519238.0999999,2023-03-18T10:39:34Z,519253.097,NULL,Zuwachs,nyongeza,s,matilaba,udhibiti,hudhurio,NA,sdf,NA,2,NA,NA,NA,NA,NA,NA,NA,NA,NA,NA,NA,NA,NA,NA,NA,NA,NA,NA,NA
770bf,Shallow Question,html.Page,3_0_2_0_5_1_0,NA,NA,form submission,10701.103000048,519238.20000005,519236.442,519253.097,529954.20000005,529954.5,2023-03-18T10:39:44Z,529968.239,NULL,Zuwachs,nyongeza,s,matilaba,udhibiti,hudhurio,nyongeza,NA,NA,2,NA,NA,NA,NA,NA,NA,NA,NA,NA,NA,NA,NA,NA,NA,NA,NA,NA,NA,NA
770bf,"""Richtig""-Screen",canvas.Screen,3_0_2_0_5_1_1,NA,NA,timeout,4999.101,529956.5999999,529951.462,529968.239,534950.666,534951.5,2023-03-18T10:39:49Z,534967.34,NULL,Zuwachs,nyongeza,s,matilaba,udhibiti,hudhurio,NA,sdf,1,2,NA,NA,NA,NA,NA,NA,NA,NA,NA,NA,NA,NA,NA,NA,NA,NA,NA,NA,NA
770bf,"""Falsch""-Screen",canvas.Screen,3_0_2_0_5_1_2,NA,NA,skipped,NA,534954.0999999,NA,NA,534950.666,534954.20000005,2023-03-18T10:39:49Z,534967.34,NULL,Zuwachs,nyongeza,s,matilaba,udhibiti,hudhurio,NA,sdf,NA,2,NA,NA,NA,NA,NA,NA,NA,NA,NA,NA,NA,NA,NA,NA,NA,NA,NA,NA,NA
770bf,shallow,flow.Sequence,3_0_2_0_5_1,NA,NA,completion,15697.569,519238.20000005,519236.442,519253.097,534950.666,534954.39999986,2023-03-18T10:39:49Z,534967.34,NULL,Zuwachs,nyongeza,s,matilaba,udhibiti,hudhurio,NA,sdf,NA,2,NA,NA,NA,NA,NA,NA,NA,NA,NA,NA,NA,NA,NA,NA,NA,NA,NA,NA,NA
770bf,task,flow.Sequence,3_0_2_0_5,NA,NA,completion,15697.569,519237.89999986,519236.442,519253.097,534950.666,534954.39999986,2023-03-18T10:39:49Z,534967.34,NULL,Zuwachs,nyongeza,s,matilaba,udhibiti,hudhurio,NA,sdf,NA,2,NA,NA,NA,NA,NA,NA,NA,NA,NA,NA,NA,NA,NA,NA,NA,NA,NA,NA,NA
770bf,Deep Question,html.Page,3_0_2_0_6_0_0,NA,NA,form submission,15015.559999857,534954.5,534950.666,534967.34,549982.89999986,549983.0999999,2023-03-18T10:40:04Z,549998.301,NULL,Tester,wanaojaribu,d,NA,NA,NA,x,NA,NA,2,NA,NA,NA,NA,NA,NA,NA,NA,NA,NA,NA,NA,NA,NA,NA,NA,NA,NA,NA
770bf,"""Richtig""-Screen",canvas.Screen,3_0_2_0_6_0_1,NA,NA,skipped,NA,549985.0999999,NA,NA,549982.89999986,549985.20000005,2023-03-18T10:40:04Z,549998.301,NULL,Tester,wanaojaribu,d,NA,NA,NA,NA,sdf,NA,2,NA,NA,NA,NA,NA,NA,NA,NA,NA,NA,NA,NA,NA,NA,NA,NA,NA,NA,NA
770bf,"""Falsch""-Screen",canvas.Screen,3_0_2_0_6_0_2,NA,NA,timeout,4999.24,549985.89999986,549965.018,549998.301,554980.94,554981.5999999,2023-03-18T10:40:09Z,554997.541,NULL,Tester,wanaojaribu,d,NA,NA,NA,NA,sdf,0,2,NA,NA,NA,NA,NA,NA,NA,NA,NA,NA,NA,NA,NA,NA,NA,NA,NA,NA,NA
770bf,deep,flow.Sequence,3_0_2_0_6_0,NA,NA,completion,20013.6,534954.5,534950.666,534967.34,554980.94,554981.70000005,2023-03-18T10:40:09Z,554997.541,NULL,Tester,wanaojaribu,d,NA,NA,NA,NA,sdf,NA,2,NA,NA,NA,NA,NA,NA,NA,NA,NA,NA,NA,NA,NA,NA,NA,NA,NA,NA,NA
770bf,shallow,flow.Sequence,3_0_2_0_6_1,NA,NA,skipped,NA,554981.89999986,NA,NA,554980.94,554982,2023-03-18T10:40:09Z,554997.541,NULL,Tester,wanaojaribu,d,NA,NA,NA,NA,sdf,NA,2,NA,NA,NA,NA,NA,NA,NA,NA,NA,NA,NA,NA,NA,NA,NA,NA,NA,NA,NA
770bf,task,flow.Sequence,3_0_2_0_6,NA,NA,completion,20013.6,534954.5,534950.666,534967.34,554980.94,554982.20000005,2023-03-18T10:40:09Z,554997.541,NULL,Tester,wanaojaribu,d,NA,NA,NA,NA,sdf,NA,2,NA,NA,NA,NA,NA,NA,NA,NA,NA,NA,NA,NA,NA,NA,NA,NA,NA,NA,NA
770bf,deep,flow.Sequence,3_0_2_0_7_0,NA,NA,skipped,NA,554982.29999995,NA,NA,554980.94,554982.39999986,2023-03-18T10:40:09Z,554997.541,NULL,Fenster,dirisha,s,walakini,tasawari,maarifa,NA,sdf,NA,2,NA,NA,NA,NA,NA,NA,NA,NA,NA,NA,NA,NA,NA,NA,NA,NA,NA,NA,NA
770bf,Shallow Question,html.Page,3_0_2_0_7_1_0,NA,NA,form submission,2640.2589999523,554982.5999999,554980.94,554997.541,557637.79999995,557638.0999999,2023-03-18T10:40:12Z,557647.176,NULL,Fenster,dirisha,s,walakini,tasawari,maarifa,dirisha,NA,NA,2,NA,NA,NA,NA,NA,NA,NA,NA,NA,NA,NA,NA,NA,NA,NA,NA,NA,NA,NA
770bf,"""Richtig""-Screen",canvas.Screen,3_0_2_0_7_1_1,NA,NA,timeout,4999.237,557640.29999995,557630.523,557647.176,562629.717,562630.29999995,2023-03-18T10:40:17Z,562646.413,NULL,Fenster,dirisha,s,walakini,tasawari,maarifa,NA,sdf,1,2,NA,NA,NA,NA,NA,NA,NA,NA,NA,NA,NA,NA,NA,NA,NA,NA,NA,NA,NA
770bf,"""Falsch""-Screen",canvas.Screen,3_0_2_0_7_1_2,NA,NA,skipped,NA,562632.89999986,NA,NA,562629.717,562632.89999986,2023-03-18T10:40:17Z,562646.413,NULL,Fenster,dirisha,s,walakini,tasawari,maarifa,NA,sdf,NA,2,NA,NA,NA,NA,NA,NA,NA,NA,NA,NA,NA,NA,NA,NA,NA,NA,NA,NA,NA
770bf,shallow,flow.Sequence,3_0_2_0_7_1,NA,NA,completion,7632.176,554982.5,554980.94,554997.541,562629.717,562633.20000005,2023-03-18T10:40:17Z,562646.413,NULL,Fenster,dirisha,s,walakini,tasawari,maarifa,NA,sdf,NA,2,NA,NA,NA,NA,NA,NA,NA,NA,NA,NA,NA,NA,NA,NA,NA,NA,NA,NA,NA
770bf,task,flow.Sequence,3_0_2_0_7,NA,NA,completion,7632.176,554982.20000005,554980.94,554997.541,562629.717,562633.20000005,2023-03-18T10:40:17Z,562646.413,NULL,Fenster,dirisha,s,walakini,tasawari,maarifa,NA,sdf,NA,2,NA,NA,NA,NA,NA,NA,NA,NA,NA,NA,NA,NA,NA,NA,NA,NA,NA,NA,NA
770bf,block,flow.Loop,3_0_2_0,NA,NA,completion,132646.207,429991.0999999,429950.288,429983.51,562629.717,562633.29999995,2023-03-18T10:40:17Z,562646.413,NULL,NA,NA,NA,NA,NA,NA,NA,sdf,NA,2,NA,NA,NA,NA,NA,NA,NA,NA,NA,NA,NA,NA,NA,NA,NA,NA,NA,NA,NA
770bf,weiter,canvas.Screen,3_0_2_1,sdf,keypress(Space),response,1057.5870000001,562633.39999986,562629.717,562646.413,563704,563705,2023-03-18T10:40:18Z,563779.478,NULL,NA,NA,NA,NA,NA,NA,NA,sdf,NA,2,NA,NA,NA,NA,NA,NA,NA,NA,NA,NA,NA,NA,NA,NA,NA,NA,NA,NA,NA
770bf,check continue,flow.Sequence,3_0_2,NA,NA,completion,133720.49,429991.0999999,429950.288,429983.51,563704,563705.0999999,2023-03-18T10:40:18Z,563779.478,NULL,NA,NA,NA,NA,NA,NA,NA,sdf,NA,2,NA,NA,NA,NA,NA,NA,NA,NA,NA,NA,NA,NA,NA,NA,NA,NA,NA,NA,NA
770bf,deep,flow.Sequence,3_0_3_0_0_0,NA,NA,skipped,NA,563790.79999995,NA,NA,563704,563791.20000005,2023-03-18T10:40:18Z,563779.478,NULL,Spionage,upelelezi,s,maslahi,utokazo,magangao,NA,qt,NA,3,NA,NA,NA,NA,NA,NA,NA,NA,NA,NA,NA,NA,NA,NA,NA,NA,NA,NA,NA
770bf,Shallow Question,html.Page,3_0_3_0_0_1_0,NA,NA,form submission,2613.022,563791.29999995,563696.356,563779.478,566392.5,566392.70000005,2023-03-18T10:40:21Z,566395.735,NULL,Spionage,upelelezi,s,maslahi,utokazo,magangao,upelelezi,NA,NA,3,NA,NA,NA,NA,NA,NA,NA,NA,NA,NA,NA,NA,NA,NA,NA,NA,NA,NA,NA
770bf,"""Richtig""-Screen",canvas.Screen,3_0_3_0_0_1_1,NA,NA,timeout,4999.314,566394.5,566379.144,566395.735,571378.373,571379.20000005,2023-03-18T10:40:26Z,571395.049,NULL,Spionage,upelelezi,s,maslahi,utokazo,magangao,NA,qt,1,3,NA,NA,NA,NA,NA,NA,NA,NA,NA,NA,NA,NA,NA,NA,NA,NA,NA,NA,NA
770bf,"""Falsch""-Screen",canvas.Screen,3_0_3_0_0_1_2,NA,NA,skipped,NA,571382,NA,NA,571378.373,571382.20000005,2023-03-18T10:40:26Z,571395.049,NULL,Spionage,upelelezi,s,maslahi,utokazo,magangao,NA,qt,NA,3,NA,NA,NA,NA,NA,NA,NA,NA,NA,NA,NA,NA,NA,NA,NA,NA,NA,NA,NA
770bf,shallow,flow.Sequence,3_0_3_0_0_1,NA,NA,completion,7598.895,563791.29999995,563696.356,563779.478,571378.373,571382.39999986,2023-03-18T10:40:26Z,571395.049,NULL,Spionage,upelelezi,s,maslahi,utokazo,magangao,NA,qt,NA,3,NA,NA,NA,NA,NA,NA,NA,NA,NA,NA,NA,NA,NA,NA,NA,NA,NA,NA,NA
770bf,task,flow.Sequence,3_0_3_0_0,NA,NA,completion,7598.895,563790.79999995,563696.356,563779.478,571378.373,571382.5,2023-03-18T10:40:26Z,571395.049,NULL,Spionage,upelelezi,s,maslahi,utokazo,magangao,NA,qt,NA,3,NA,NA,NA,NA,NA,NA,NA,NA,NA,NA,NA,NA,NA,NA,NA,NA,NA,NA,NA
770bf,Deep Question,html.Page,3_0_3_0_1_0_0,NA,NA,form submission,6187.7509999523,571382.5999999,571378.373,571395.049,577582.79999995,577583,2023-03-18T10:40:32Z,577594.065,NULL,Schüler,mwanafunzi,d,NA,NA,NA,mwalafunzi,NA,NA,3,NA,NA,NA,NA,NA,NA,NA,NA,NA,NA,NA,NA,NA,NA,NA,NA,NA,NA,NA
770bf,"""Richtig""-Screen",canvas.Screen,3_0_3_0_1_0_1,NA,NA,skipped,NA,577584.89999986,NA,NA,577582.79999995,577585,2023-03-18T10:40:32Z,577594.065,NULL,Schüler,mwanafunzi,d,NA,NA,NA,NA,qt,NA,3,NA,NA,NA,NA,NA,NA,NA,NA,NA,NA,NA,NA,NA,NA,NA,NA,NA,NA,NA
770bf,"""Falsch""-Screen",canvas.Screen,3_0_3_0_1_0_2,NA,NA,timeout,4999.1640000001,577585.70000005,577577.444,577594.065,582576.629,582577.20000005,2023-03-18T10:40:37Z,582593.229,NULL,Schüler,mwanafunzi,d,NA,NA,NA,NA,qt,0,3,NA,NA,NA,NA,NA,NA,NA,NA,NA,NA,NA,NA,NA,NA,NA,NA,NA,NA,NA
770bf,deep,flow.Sequence,3_0_3_0_1_0,NA,NA,completion,11181.58,571382.5999999,571378.373,571395.049,582576.629,582577.5,2023-03-18T10:40:37Z,582593.229,NULL,Schüler,mwanafunzi,d,NA,NA,NA,NA,qt,NA,3,NA,NA,NA,NA,NA,NA,NA,NA,NA,NA,NA,NA,NA,NA,NA,NA,NA,NA,NA
770bf,shallow,flow.Sequence,3_0_3_0_1_1,NA,NA,skipped,NA,582577.5999999,NA,NA,582576.629,582577.70000005,2023-03-18T10:40:37Z,582593.229,NULL,Schüler,mwanafunzi,d,NA,NA,NA,NA,qt,NA,3,NA,NA,NA,NA,NA,NA,NA,NA,NA,NA,NA,NA,NA,NA,NA,NA,NA,NA,NA
770bf,task,flow.Sequence,3_0_3_0_1,NA,NA,completion,11181.58,571382.5999999,571378.373,571395.049,582576.629,582577.79999995,2023-03-18T10:40:37Z,582593.229,NULL,Schüler,mwanafunzi,d,NA,NA,NA,NA,qt,NA,3,NA,NA,NA,NA,NA,NA,NA,NA,NA,NA,NA,NA,NA,NA,NA,NA,NA,NA,NA
770bf,deep,flow.Sequence,3_0_3_0_2_0,NA,NA,skipped,NA,582577.89999986,NA,NA,582576.629,582578,2023-03-18T10:40:37Z,582593.229,NULL,Symbol,kielezo,s,kinyume,nderemo,utayari,NA,qt,NA,3,NA,NA,NA,NA,NA,NA,NA,NA,NA,NA,NA,NA,NA,NA,NA,NA,NA,NA,NA
770bf,Shallow Question,html.Page,3_0_3_0_2_1_0,NA,NA,form submission,12700.771,582578.0999999,582576.629,582593.229,595294,595294.20000005,2023-03-18T10:40:50Z,595308.129,NULL,Symbol,kielezo,s,kinyume,nderemo,utayari,kielezo,NA,NA,3,NA,NA,NA,NA,NA,NA,NA,NA,NA,NA,NA,NA,NA,NA,NA,NA,NA,NA,NA
770bf,"""Richtig""-Screen",canvas.Screen,3_0_3_0_2_1_1,NA,NA,timeout,4999.123,595296.5,595291.274,595308.129,600290.567,600291.0999999,2023-03-18T10:40:55Z,600307.252,NULL,Symbol,kielezo,s,kinyume,nderemo,utayari,NA,qt,1,3,NA,NA,NA,NA,NA,NA,NA,NA,NA,NA,NA,NA,NA,NA,NA,NA,NA,NA,NA
770bf,"""Falsch""-Screen",canvas.Screen,3_0_3_0_2_1_2,NA,NA,skipped,NA,600293.39999986,NA,NA,600290.567,600293.5,2023-03-18T10:40:55Z,600307.252,NULL,Symbol,kielezo,s,kinyume,nderemo,utayari,NA,qt,NA,3,NA,NA,NA,NA,NA,NA,NA,NA,NA,NA,NA,NA,NA,NA,NA,NA,NA,NA,NA
770bf,shallow,flow.Sequence,3_0_3_0_2_1,NA,NA,completion,17697.338,582578,582576.629,582593.229,600290.567,600293.70000005,2023-03-18T10:40:55Z,600307.252,NULL,Symbol,kielezo,s,kinyume,nderemo,utayari,NA,qt,NA,3,NA,NA,NA,NA,NA,NA,NA,NA,NA,NA,NA,NA,NA,NA,NA,NA,NA,NA,NA
770bf,task,flow.Sequence,3_0_3_0_2,NA,NA,completion,17697.338,582577.89999986,582576.629,582593.229,600290.567,600293.79999995,2023-03-18T10:40:55Z,600307.252,NULL,Symbol,kielezo,s,kinyume,nderemo,utayari,NA,qt,NA,3,NA,NA,NA,NA,NA,NA,NA,NA,NA,NA,NA,NA,NA,NA,NA,NA,NA,NA,NA
770bf,Deep Question,html.Page,3_0_3_0_3_0_0,NA,NA,form submission,6452.147999857,600293.89999986,600290.567,600307.252,606759.39999986,606759.5999999,2023-03-18T10:41:01Z,606772.936,NULL,Konkurrent,mshindani,d,NA,NA,NA,mshidani,NA,NA,3,NA,NA,NA,NA,NA,NA,NA,NA,NA,NA,NA,NA,NA,NA,NA,NA,NA,NA,NA
770bf,"""Richtig""-Screen",canvas.Screen,3_0_3_0_3_0_1,NA,NA,skipped,NA,606761.5,NA,NA,606759.39999986,606761.5999999,2023-03-18T10:41:01Z,606772.936,NULL,Konkurrent,mshindani,d,NA,NA,NA,NA,qt,NA,3,NA,NA,NA,NA,NA,NA,NA,NA,NA,NA,NA,NA,NA,NA,NA,NA,NA,NA,NA
770bf,"""Falsch""-Screen",canvas.Screen,3_0_3_0_3_0_2,NA,NA,timeout,4999.132,606762.39999986,606756.279,606772.936,611755.457,611756,2023-03-18T10:41:06Z,611772.068,NULL,Konkurrent,mshindani,d,NA,NA,NA,NA,qt,0,3,NA,NA,NA,NA,NA,NA,NA,NA,NA,NA,NA,NA,NA,NA,NA,NA,NA,NA,NA
770bf,deep,flow.Sequence,3_0_3_0_3_0,NA,NA,completion,11448.205,600293.79999995,600290.567,600307.252,611755.457,611756.29999995,2023-03-18T10:41:06Z,611772.068,NULL,Konkurrent,mshindani,d,NA,NA,NA,NA,qt,NA,3,NA,NA,NA,NA,NA,NA,NA,NA,NA,NA,NA,NA,NA,NA,NA,NA,NA,NA,NA
770bf,shallow,flow.Sequence,3_0_3_0_3_1,NA,NA,skipped,NA,611756.39999986,NA,NA,611755.457,611756.39999986,2023-03-18T10:41:06Z,611772.068,NULL,Konkurrent,mshindani,d,NA,NA,NA,NA,qt,NA,3,NA,NA,NA,NA,NA,NA,NA,NA,NA,NA,NA,NA,NA,NA,NA,NA,NA,NA,NA
770bf,task,flow.Sequence,3_0_3_0_3,NA,NA,completion,11448.205,600293.79999995,600290.567,600307.252,611755.457,611756.5999999,2023-03-18T10:41:06Z,611772.068,NULL,Konkurrent,mshindani,d,NA,NA,NA,NA,qt,NA,3,NA,NA,NA,NA,NA,NA,NA,NA,NA,NA,NA,NA,NA,NA,NA,NA,NA,NA,NA
770bf,Deep Question,html.Page,3_0_3_0_4_0_0,NA,NA,form submission,12992.031999905,611756.70000005,611755.457,611772.068,624764.0999999,624764.29999995,2023-03-18T10:41:19Z,624786.741,NULL,Vorsorge,tahadhari,d,NA,NA,NA,mwalafunzi mshindani,NA,NA,3,NA,NA,NA,NA,NA,NA,NA,NA,NA,NA,NA,NA,NA,NA,NA,NA,NA,NA,NA
770bf,"""Richtig""-Screen",canvas.Screen,3_0_3_0_4_0_1,NA,NA,skipped,NA,624766.5999999,NA,NA,624764.0999999,624766.79999995,2023-03-18T10:41:19Z,624786.741,NULL,Vorsorge,tahadhari,d,NA,NA,NA,NA,qt,NA,3,NA,NA,NA,NA,NA,NA,NA,NA,NA,NA,NA,NA,NA,NA,NA,NA,NA,NA,NA
770bf,"""Falsch""-Screen",canvas.Screen,3_0_3_0_4_0_2,NA,NA,timeout,4999.2359999999,624767.39999986,624770.03,624786.741,629769.317,629769.89999986,2023-03-18T10:41:24Z,629785.977,NULL,Vorsorge,tahadhari,d,NA,NA,NA,NA,qt,0,3,NA,NA,NA,NA,NA,NA,NA,NA,NA,NA,NA,NA,NA,NA,NA,NA,NA,NA,NA
770bf,deep,flow.Sequence,3_0_3_0_4_0,NA,NA,completion,17997.249,611756.70000005,611755.457,611772.068,629769.317,629770.0999999,2023-03-18T10:41:24Z,629785.977,NULL,Vorsorge,tahadhari,d,NA,NA,NA,NA,qt,NA,3,NA,NA,NA,NA,NA,NA,NA,NA,NA,NA,NA,NA,NA,NA,NA,NA,NA,NA,NA
770bf,shallow,flow.Sequence,3_0_3_0_4_1,NA,NA,skipped,NA,629770.20000005,NA,NA,629769.317,629770.29999995,2023-03-18T10:41:24Z,629785.977,NULL,Vorsorge,tahadhari,d,NA,NA,NA,NA,qt,NA,3,NA,NA,NA,NA,NA,NA,NA,NA,NA,NA,NA,NA,NA,NA,NA,NA,NA,NA,NA
770bf,task,flow.Sequence,3_0_3_0_4,NA,NA,completion,17997.249,611756.70000005,611755.457,611772.068,629769.317,629770.5,2023-03-18T10:41:24Z,629785.977,NULL,Vorsorge,tahadhari,d,NA,NA,NA,NA,qt,NA,3,NA,NA,NA,NA,NA,NA,NA,NA,NA,NA,NA,NA,NA,NA,NA,NA,NA,NA,NA
770bf,deep,flow.Sequence,3_0_3_0_5_0,NA,NA,skipped,NA,629770.5999999,NA,NA,629769.317,629770.5999999,2023-03-18T10:41:24Z,629785.977,NULL,Fenster,dirisha,s,walakini,tasawari,maarifa,NA,qt,NA,3,NA,NA,NA,NA,NA,NA,NA,NA,NA,NA,NA,NA,NA,NA,NA,NA,NA,NA,NA
770bf,Shallow Question,html.Page,3_0_3_0_5_1_0,NA,NA,form submission,1964.523,629770.70000005,629769.317,629785.977,631750.5,631750.70000005,2023-03-18T10:41:26Z,631752.288,NULL,Fenster,dirisha,s,walakini,tasawari,maarifa,dirisha,NA,NA,3,NA,NA,NA,NA,NA,NA,NA,NA,NA,NA,NA,NA,NA,NA,NA,NA,NA,NA,NA
770bf,"""Richtig""-Screen",canvas.Screen,3_0_3_0_5_1_1,NA,NA,timeout,4999.2640000001,631753.29999995,631735.695,631752.288,636734.9,636735.70000005,2023-03-18T10:41:31Z,636751.552,NULL,Fenster,dirisha,s,walakini,tasawari,maarifa,NA,qt,1,3,NA,NA,NA,NA,NA,NA,NA,NA,NA,NA,NA,NA,NA,NA,NA,NA,NA,NA,NA
770bf,"""Falsch""-Screen",canvas.Screen,3_0_3_0_5_1_2,NA,NA,skipped,NA,636738.0999999,NA,NA,636734.9,636738.20000005,2023-03-18T10:41:31Z,636751.552,NULL,Fenster,dirisha,s,walakini,tasawari,maarifa,NA,qt,NA,3,NA,NA,NA,NA,NA,NA,NA,NA,NA,NA,NA,NA,NA,NA,NA,NA,NA,NA,NA
770bf,shallow,flow.Sequence,3_0_3_0_5_1,NA,NA,completion,6948.9230000001,629770.70000005,629769.317,629785.977,636734.9,636738.39999986,2023-03-18T10:41:31Z,636751.552,NULL,Fenster,dirisha,s,walakini,tasawari,maarifa,NA,qt,NA,3,NA,NA,NA,NA,NA,NA,NA,NA,NA,NA,NA,NA,NA,NA,NA,NA,NA,NA,NA
770bf,task,flow.Sequence,3_0_3_0_5,NA,NA,completion,6948.9230000001,629770.5999999,629769.317,629785.977,636734.9,636738.39999986,2023-03-18T10:41:31Z,636751.552,NULL,Fenster,dirisha,s,walakini,tasawari,maarifa,NA,qt,NA,3,NA,NA,NA,NA,NA,NA,NA,NA,NA,NA,NA,NA,NA,NA,NA,NA,NA,NA,NA
770bf,Deep Question,html.Page,3_0_3_0_6_0_0,NA,NA,form submission,13340.148000048,636738.5999999,636734.9,636751.552,650091.70000005,650091.89999986,2023-03-18T10:41:45Z,650099.458,NULL,Tester,wanaojaribu,d,NA,NA,NA,x,NA,NA,3,NA,NA,NA,NA,NA,NA,NA,NA,NA,NA,NA,NA,NA,NA,NA,NA,NA,NA,NA
770bf,"""Richtig""-Screen",canvas.Screen,3_0_3_0_6_0_1,NA,NA,skipped,NA,650094.20000005,NA,NA,650091.70000005,650094.39999986,2023-03-18T10:41:45Z,650099.458,NULL,Tester,wanaojaribu,d,NA,NA,NA,NA,qt,NA,3,NA,NA,NA,NA,NA,NA,NA,NA,NA,NA,NA,NA,NA,NA,NA,NA,NA,NA,NA
770bf,"""Falsch""-Screen",canvas.Screen,3_0_3_0_6_0_2,NA,NA,timeout,4999.709,650095,650082.846,650099.458,655081.995,655082.89999986,2023-03-18T10:41:50Z,655099.167,NULL,Tester,wanaojaribu,d,NA,NA,NA,NA,qt,0,3,NA,NA,NA,NA,NA,NA,NA,NA,NA,NA,NA,NA,NA,NA,NA,NA,NA,NA,NA
770bf,deep,flow.Sequence,3_0_3_0_6_0,NA,NA,completion,18330.443,636738.5,636734.9,636751.552,655081.995,655083.0999999,2023-03-18T10:41:50Z,655099.167,NULL,Tester,wanaojaribu,d,NA,NA,NA,NA,qt,NA,3,NA,NA,NA,NA,NA,NA,NA,NA,NA,NA,NA,NA,NA,NA,NA,NA,NA,NA,NA
770bf,shallow,flow.Sequence,3_0_3_0_6_1,NA,NA,skipped,NA,655083.20000005,NA,NA,655081.995,655083.39999986,2023-03-18T10:41:50Z,655099.167,NULL,Tester,wanaojaribu,d,NA,NA,NA,NA,qt,NA,3,NA,NA,NA,NA,NA,NA,NA,NA,NA,NA,NA,NA,NA,NA,NA,NA,NA,NA,NA
770bf,task,flow.Sequence,3_0_3_0_6,NA,NA,completion,18330.443,636738.5,636734.9,636751.552,655081.995,655083.39999986,2023-03-18T10:41:50Z,655099.167,NULL,Tester,wanaojaribu,d,NA,NA,NA,NA,qt,NA,3,NA,NA,NA,NA,NA,NA,NA,NA,NA,NA,NA,NA,NA,NA,NA,NA,NA,NA,NA
770bf,deep,flow.Sequence,3_0_3_0_7_0,NA,NA,skipped,NA,655083.5,NA,NA,655081.995,655083.5,2023-03-18T10:41:50Z,655099.167,NULL,Zuwachs,nyongeza,s,matilaba,udhibiti,hudhurio,NA,qt,NA,3,NA,NA,NA,NA,NA,NA,NA,NA,NA,NA,NA,NA,NA,NA,NA,NA,NA,NA,NA
770bf,Shallow Question,html.Page,3_0_3_0_7_1_0,NA,NA,form submission,3682.6329999523,655083.5999999,655081.995,655099.167,658781.79999995,658782.20000005,2023-03-18T10:41:53Z,658806.064,NULL,Zuwachs,nyongeza,s,matilaba,udhibiti,hudhurio,nyongeza,NA,NA,3,NA,NA,NA,NA,NA,NA,NA,NA,NA,NA,NA,NA,NA,NA,NA,NA,NA,NA,NA
770bf,"""Richtig""-Screen",canvas.Screen,3_0_3_0_7_1_1,NA,NA,timeout,5008.023,658784.39999986,658764.819,658806.064,663797.389,663798,2023-03-18T10:41:58Z,663814.087,NULL,Zuwachs,nyongeza,s,matilaba,udhibiti,hudhurio,NA,qt,1,3,NA,NA,NA,NA,NA,NA,NA,NA,NA,NA,NA,NA,NA,NA,NA,NA,NA,NA,NA
770bf,"""Falsch""-Screen",canvas.Screen,3_0_3_0_7_1_2,NA,NA,skipped,NA,663800.70000005,NA,NA,663797.389,663800.79999995,2023-03-18T10:41:58Z,663814.087,NULL,Zuwachs,nyongeza,s,matilaba,udhibiti,hudhurio,NA,qt,NA,3,NA,NA,NA,NA,NA,NA,NA,NA,NA,NA,NA,NA,NA,NA,NA,NA,NA,NA,NA
770bf,shallow,flow.Sequence,3_0_3_0_7_1,NA,NA,completion,8698.222,655083.5999999,655081.995,655099.167,663797.389,663800.89999986,2023-03-18T10:41:58Z,663814.087,NULL,Zuwachs,nyongeza,s,matilaba,udhibiti,hudhurio,NA,qt,NA,3,NA,NA,NA,NA,NA,NA,NA,NA,NA,NA,NA,NA,NA,NA,NA,NA,NA,NA,NA
770bf,task,flow.Sequence,3_0_3_0_7,NA,NA,completion,8698.222,655083.5,655081.995,655099.167,663797.389,663801,2023-03-18T10:41:58Z,663814.087,NULL,Zuwachs,nyongeza,s,matilaba,udhibiti,hudhurio,NA,qt,NA,3,NA,NA,NA,NA,NA,NA,NA,NA,NA,NA,NA,NA,NA,NA,NA,NA,NA,NA,NA
770bf,block,flow.Loop,3_0_3_0,NA,NA,completion,100017.911,563790.79999995,563696.356,563779.478,663797.389,663801.0999999,2023-03-18T10:41:58Z,663814.087,NULL,NA,NA,NA,NA,NA,NA,NA,qt,NA,3,NA,NA,NA,NA,NA,NA,NA,NA,NA,NA,NA,NA,NA,NA,NA,NA,NA,NA,NA
770bf,weiter,canvas.Screen,3_0_3_1,sdf,keypress(Space),response,1008.6130000476,663801.20000005,663797.389,663814.087,664822.70000005,664823.70000005,2023-03-18T10:41:59Z,664847.18,NULL,NA,NA,NA,NA,NA,NA,NA,qt,NA,3,NA,NA,NA,NA,NA,NA,NA,NA,NA,NA,NA,NA,NA,NA,NA,NA,NA,NA,NA
770bf,check continue,flow.Sequence,3_0_3,NA,NA,completion,101043.22200005,563790.70000005,563696.356,563779.478,664822.70000005,664823.79999995,2023-03-18T10:41:59Z,664847.18,NULL,NA,NA,NA,NA,NA,NA,NA,qt,NA,3,NA,NA,NA,NA,NA,NA,NA,NA,NA,NA,NA,NA,NA,NA,NA,NA,NA,NA,NA
770bf,deep,flow.Sequence,3_0_4_0_0_0,NA,NA,skipped,NA,664858.0999999,NA,NA,664822.70000005,664858.20000005,2023-03-18T10:41:59Z,664847.18,NULL,Fenster,dirisha,s,walakini,tasawari,maarifa,NA,sd,NA,4,NA,NA,NA,NA,NA,NA,NA,NA,NA,NA,NA,NA,NA,NA,NA,NA,NA,NA,NA
770bf,Shallow Question,html.Page,3_0_4_0_0_1_0,NA,NA,form submission,2964.5200000476,664858.29999995,664813.927,664847.18,667811.70000005,667812,2023-03-18T10:42:02Z,667813.38,NULL,Fenster,dirisha,s,walakini,tasawari,maarifa,dirisha,NA,NA,4,NA,NA,NA,NA,NA,NA,NA,NA,NA,NA,NA,NA,NA,NA,NA,NA,NA,NA,NA
770bf,"""Richtig""-Screen",canvas.Screen,3_0_4_0_0_1_1,NA,NA,timeout,4999.306,667812.79999995,667796.799,667813.38,672795.984,672796.70000005,2023-03-18T10:42:07Z,672812.686,NULL,Fenster,dirisha,s,walakini,tasawari,maarifa,NA,sd,1,4,NA,NA,NA,NA,NA,NA,NA,NA,NA,NA,NA,NA,NA,NA,NA,NA,NA,NA,NA
770bf,"""Falsch""-Screen",canvas.Screen,3_0_4_0_0_1_2,NA,NA,skipped,NA,672799.70000005,NA,NA,672795.984,672799.89999986,2023-03-18T10:42:07Z,672812.686,NULL,Fenster,dirisha,s,walakini,tasawari,maarifa,NA,sd,NA,4,NA,NA,NA,NA,NA,NA,NA,NA,NA,NA,NA,NA,NA,NA,NA,NA,NA,NA,NA
770bf,shallow,flow.Sequence,3_0_4_0_0_1,NA,NA,completion,7948.804,664858.20000005,664813.927,664847.18,672795.984,672800.0999999,2023-03-18T10:42:07Z,672812.686,NULL,Fenster,dirisha,s,walakini,tasawari,maarifa,NA,sd,NA,4,NA,NA,NA,NA,NA,NA,NA,NA,NA,NA,NA,NA,NA,NA,NA,NA,NA,NA,NA
770bf,task,flow.Sequence,3_0_4_0_0,NA,NA,completion,7948.804,664858.0999999,664813.927,664847.18,672795.984,672800.20000005,2023-03-18T10:42:07Z,672812.686,NULL,Fenster,dirisha,s,walakini,tasawari,maarifa,NA,sd,NA,4,NA,NA,NA,NA,NA,NA,NA,NA,NA,NA,NA,NA,NA,NA,NA,NA,NA,NA,NA
770bf,Deep Question,html.Page,3_0_4_0_1_0_0,NA,NA,form submission,6771.0140000477,672800.29999995,672795.984,672812.686,679583.70000005,679584.0999999,2023-03-18T10:42:14Z,679594.957,NULL,Konkurrent,mshindani,d,NA,NA,NA,mshindani,NA,NA,4,NA,NA,NA,NA,NA,NA,NA,NA,NA,NA,NA,NA,NA,NA,NA,NA,NA,NA,NA
770bf,"""Richtig""-Screen",canvas.Screen,3_0_4_0_1_0_1,NA,NA,timeout,4999.2699999999,679586.70000005,679578.297,679594.957,684577.511,684578.0999999,2023-03-18T10:42:19Z,684594.227,NULL,Konkurrent,mshindani,d,NA,NA,NA,NA,sd,1,4,NA,NA,NA,NA,NA,NA,NA,NA,NA,NA,NA,NA,NA,NA,NA,NA,NA,NA,NA
770bf,"""Falsch""-Screen",canvas.Screen,3_0_4_0_1_0_2,NA,NA,skipped,NA,684580.89999986,NA,NA,684577.511,684581.0999999,2023-03-18T10:42:19Z,684594.227,NULL,Konkurrent,mshindani,d,NA,NA,NA,NA,sd,NA,4,NA,NA,NA,NA,NA,NA,NA,NA,NA,NA,NA,NA,NA,NA,NA,NA,NA,NA,NA
770bf,deep,flow.Sequence,3_0_4_0_1_0,NA,NA,completion,11764.825,672800.29999995,672795.984,672812.686,684577.511,684581.20000005,2023-03-18T10:42:19Z,684594.227,NULL,Konkurrent,mshindani,d,NA,NA,NA,NA,sd,NA,4,NA,NA,NA,NA,NA,NA,NA,NA,NA,NA,NA,NA,NA,NA,NA,NA,NA,NA,NA
770bf,shallow,flow.Sequence,3_0_4_0_1_1,NA,NA,skipped,NA,684581.29999995,NA,NA,684577.511,684581.39999986,2023-03-18T10:42:19Z,684594.227,NULL,Konkurrent,mshindani,d,NA,NA,NA,NA,sd,NA,4,NA,NA,NA,NA,NA,NA,NA,NA,NA,NA,NA,NA,NA,NA,NA,NA,NA,NA,NA
770bf,task,flow.Sequence,3_0_4_0_1,NA,NA,completion,11764.825,672800.29999995,672795.984,672812.686,684577.511,684581.5,2023-03-18T10:42:19Z,684594.227,NULL,Konkurrent,mshindani,d,NA,NA,NA,NA,sd,NA,4,NA,NA,NA,NA,NA,NA,NA,NA,NA,NA,NA,NA,NA,NA,NA,NA,NA,NA,NA
770bf,Deep Question,html.Page,3_0_4_0_2_0_0,NA,NA,form submission,11249.273,684581.5,684577.511,684594.227,695843.5,695843.79999995,2023-03-18T10:42:30Z,695859.057,NULL,Vorsorge,tahadhari,d,NA,NA,NA,wajaobiu,NA,NA,4,NA,NA,NA,NA,NA,NA,NA,NA,NA,NA,NA,NA,NA,NA,NA,NA,NA,NA,NA
770bf,"""Richtig""-Screen",canvas.Screen,3_0_4_0_2_0_1,NA,NA,skipped,NA,695845.89999986,NA,NA,695843.5,695846,2023-03-18T10:42:30Z,695859.057,NULL,Vorsorge,tahadhari,d,NA,NA,NA,NA,sd,NA,4,NA,NA,NA,NA,NA,NA,NA,NA,NA,NA,NA,NA,NA,NA,NA,NA,NA,NA,NA
770bf,"""Falsch""-Screen",canvas.Screen,3_0_4_0_2_0_2,NA,NA,timeout,4999.216,695846.79999995,695842.459,695859.057,700841.601,700842.0999999,2023-03-18T10:42:35Z,700858.273,NULL,Vorsorge,tahadhari,d,NA,NA,NA,NA,sd,0,4,NA,NA,NA,NA,NA,NA,NA,NA,NA,NA,NA,NA,NA,NA,NA,NA,NA,NA,NA
770bf,deep,flow.Sequence,3_0_4_0_2_0,NA,NA,completion,16247.374,684581.5,684577.511,684594.227,700841.601,700842.39999986,2023-03-18T10:42:35Z,700858.273,NULL,Vorsorge,tahadhari,d,NA,NA,NA,NA,sd,NA,4,NA,NA,NA,NA,NA,NA,NA,NA,NA,NA,NA,NA,NA,NA,NA,NA,NA,NA,NA
770bf,shallow,flow.Sequence,3_0_4_0_2_1,NA,NA,skipped,NA,700842.5,NA,NA,700841.601,700842.5999999,2023-03-18T10:42:35Z,700858.273,NULL,Vorsorge,tahadhari,d,NA,NA,NA,NA,sd,NA,4,NA,NA,NA,NA,NA,NA,NA,NA,NA,NA,NA,NA,NA,NA,NA,NA,NA,NA,NA
770bf,task,flow.Sequence,3_0_4_0_2,NA,NA,completion,16247.374,684581.5,684577.511,684594.227,700841.601,700842.70000005,2023-03-18T10:42:35Z,700858.273,NULL,Vorsorge,tahadhari,d,NA,NA,NA,NA,sd,NA,4,NA,NA,NA,NA,NA,NA,NA,NA,NA,NA,NA,NA,NA,NA,NA,NA,NA,NA,NA
770bf,Deep Question,html.Page,3_0_4_0_3_0_0,NA,NA,form submission,13181.427000048,700842.89999986,700841.601,700858.273,714039.70000005,714040.20000005,2023-03-18T10:42:49Z,714058.288,NULL,Schüler,mwanafunzi,d,NA,NA,NA,mwanafunzi,NA,NA,4,NA,NA,NA,NA,NA,NA,NA,NA,NA,NA,NA,NA,NA,NA,NA,NA,NA,NA,NA
770bf,"""Richtig""-Screen",canvas.Screen,3_0_4_0_3_0_1,NA,NA,timeout,4997.199,714043,714023.011,714058.288,719038.822,719039.29999995,2023-03-18T10:42:54Z,719055.487,NULL,Schüler,mwanafunzi,d,NA,NA,NA,NA,sd,1,4,NA,NA,NA,NA,NA,NA,NA,NA,NA,NA,NA,NA,NA,NA,NA,NA,NA,NA,NA
770bf,"""Falsch""-Screen",canvas.Screen,3_0_4_0_3_0_2,NA,NA,skipped,NA,719042,NA,NA,719038.822,719042.20000005,2023-03-18T10:42:54Z,719055.487,NULL,Schüler,mwanafunzi,d,NA,NA,NA,NA,sd,NA,4,NA,NA,NA,NA,NA,NA,NA,NA,NA,NA,NA,NA,NA,NA,NA,NA,NA,NA,NA
770bf,deep,flow.Sequence,3_0_4_0_3_0,NA,NA,completion,18180.549,700842.89999986,700841.601,700858.273,719038.822,719042.5,2023-03-18T10:42:54Z,719055.487,NULL,Schüler,mwanafunzi,d,NA,NA,NA,NA,sd,NA,4,NA,NA,NA,NA,NA,NA,NA,NA,NA,NA,NA,NA,NA,NA,NA,NA,NA,NA,NA
770bf,shallow,flow.Sequence,3_0_4_0_3_1,NA,NA,skipped,NA,719042.5999999,NA,NA,719038.822,719042.5999999,2023-03-18T10:42:54Z,719055.487,NULL,Schüler,mwanafunzi,d,NA,NA,NA,NA,sd,NA,4,NA,NA,NA,NA,NA,NA,NA,NA,NA,NA,NA,NA,NA,NA,NA,NA,NA,NA,NA
770bf,task,flow.Sequence,3_0_4_0_3,NA,NA,completion,18180.549,700842.79999995,700841.601,700858.273,719038.822,719042.70000005,2023-03-18T10:42:54Z,719055.487,NULL,Schüler,mwanafunzi,d,NA,NA,NA,NA,sd,NA,4,NA,NA,NA,NA,NA,NA,NA,NA,NA,NA,NA,NA,NA,NA,NA,NA,NA,NA,NA
770bf,deep,flow.Sequence,3_0_4_0_4_0,NA,NA,skipped,NA,719042.79999995,NA,NA,719038.822,719042.79999995,2023-03-18T10:42:54Z,719055.487,NULL,Symbol,kielezo,s,kinyume,nderemo,utayari,NA,sd,NA,4,NA,NA,NA,NA,NA,NA,NA,NA,NA,NA,NA,NA,NA,NA,NA,NA,NA,NA,NA
770bf,Shallow Question,html.Page,3_0_4_0_4_1_0,NA,NA,form submission,5132.3129999524,719042.89999986,719038.822,719055.487,724187.79999995,724188.0999999,2023-03-18T10:42:59Z,724207.85,NULL,Symbol,kielezo,s,kinyume,nderemo,utayari,kielezo,NA,NA,4,NA,NA,NA,NA,NA,NA,NA,NA,NA,NA,NA,NA,NA,NA,NA,NA,NA,NA,NA
770bf,"""Richtig""-Screen",canvas.Screen,3_0_4_0_4_1_1,NA,NA,timeout,4996.05,724190.20000005,724171.41,724207.85,729187.292,729187.79999995,2023-03-18T10:43:04Z,729203.9,NULL,Symbol,kielezo,s,kinyume,nderemo,utayari,NA,sd,1,4,NA,NA,NA,NA,NA,NA,NA,NA,NA,NA,NA,NA,NA,NA,NA,NA,NA,NA,NA
770bf,"""Falsch""-Screen",canvas.Screen,3_0_4_0_4_1_2,NA,NA,skipped,NA,729190.20000005,NA,NA,729187.292,729190.39999986,2023-03-18T10:43:04Z,729203.9,NULL,Symbol,kielezo,s,kinyume,nderemo,utayari,NA,sd,NA,4,NA,NA,NA,NA,NA,NA,NA,NA,NA,NA,NA,NA,NA,NA,NA,NA,NA,NA,NA
770bf,shallow,flow.Sequence,3_0_4_0_4_1,NA,NA,completion,10131.805,719042.89999986,719038.822,719055.487,729187.292,729190.5,2023-03-18T10:43:04Z,729203.9,NULL,Symbol,kielezo,s,kinyume,nderemo,utayari,NA,sd,NA,4,NA,NA,NA,NA,NA,NA,NA,NA,NA,NA,NA,NA,NA,NA,NA,NA,NA,NA,NA
770bf,task,flow.Sequence,3_0_4_0_4,NA,NA,completion,10131.805,719042.70000005,719038.822,719055.487,729187.292,729190.70000005,2023-03-18T10:43:04Z,729203.9,NULL,Symbol,kielezo,s,kinyume,nderemo,utayari,NA,sd,NA,4,NA,NA,NA,NA,NA,NA,NA,NA,NA,NA,NA,NA,NA,NA,NA,NA,NA,NA,NA
770bf,deep,flow.Sequence,3_0_4_0_5_0,NA,NA,skipped,NA,729190.70000005,NA,NA,729187.292,729190.79999995,2023-03-18T10:43:04Z,729203.9,NULL,Spionage,upelelezi,s,maslahi,utokazo,magangao,NA,sd,NA,4,NA,NA,NA,NA,NA,NA,NA,NA,NA,NA,NA,NA,NA,NA,NA,NA,NA,NA,NA
770bf,Shallow Question,html.Page,3_0_4_0_5_1_0,NA,NA,form submission,4113.8999999523,729190.79999995,729187.292,729203.9,733317.79999995,733318.0999999,2023-03-18T10:43:08Z,733319.921,NULL,Spionage,upelelezi,s,maslahi,utokazo,magangao,upelelezi,NA,NA,4,NA,NA,NA,NA,NA,NA,NA,NA,NA,NA,NA,NA,NA,NA,NA,NA,NA,NA,NA
770bf,"""Richtig""-Screen",canvas.Screen,3_0_4_0_5_1_1,NA,NA,timeout,4999.301,733319.79999995,733303.328,733319.921,738302.534,738303,2023-03-18T10:43:13Z,738319.222,NULL,Spionage,upelelezi,s,maslahi,utokazo,magangao,NA,sd,1,4,NA,NA,NA,NA,NA,NA,NA,NA,NA,NA,NA,NA,NA,NA,NA,NA,NA,NA,NA
770bf,"""Falsch""-Screen",canvas.Screen,3_0_4_0_5_1_2,NA,NA,skipped,NA,738305.5999999,NA,NA,738302.534,738305.70000005,2023-03-18T10:43:13Z,738319.222,NULL,Spionage,upelelezi,s,maslahi,utokazo,magangao,NA,sd,NA,4,NA,NA,NA,NA,NA,NA,NA,NA,NA,NA,NA,NA,NA,NA,NA,NA,NA,NA,NA
770bf,shallow,flow.Sequence,3_0_4_0_5_1,NA,NA,completion,9098.634,729190.79999995,729187.292,729203.9,738302.534,738305.89999986,2023-03-18T10:43:13Z,738319.222,NULL,Spionage,upelelezi,s,maslahi,utokazo,magangao,NA,sd,NA,4,NA,NA,NA,NA,NA,NA,NA,NA,NA,NA,NA,NA,NA,NA,NA,NA,NA,NA,NA
770bf,task,flow.Sequence,3_0_4_0_5,NA,NA,completion,9098.634,729190.70000005,729187.292,729203.9,738302.534,738306,2023-03-18T10:43:13Z,738319.222,NULL,Spionage,upelelezi,s,maslahi,utokazo,magangao,NA,sd,NA,4,NA,NA,NA,NA,NA,NA,NA,NA,NA,NA,NA,NA,NA,NA,NA,NA,NA,NA,NA
770bf,Deep Question,html.Page,3_0_4_0_6_0_0,NA,NA,form submission,41032.177999857,738306,738302.534,738319.222,779351.39999986,779351.70000005,2023-03-18T10:43:54Z,779362.905,NULL,Tester,wanaojaribu,d,NA,NA,NA,x,NA,NA,4,NA,NA,NA,NA,NA,NA,NA,NA,NA,NA,NA,NA,NA,NA,NA,NA,NA,NA,NA
770bf,"""Richtig""-Screen",canvas.Screen,3_0_4_0_6_0_1,NA,NA,skipped,NA,779354,NA,NA,779351.39999986,779354.20000005,2023-03-18T10:43:54Z,779362.905,NULL,Tester,wanaojaribu,d,NA,NA,NA,NA,sd,NA,4,NA,NA,NA,NA,NA,NA,NA,NA,NA,NA,NA,NA,NA,NA,NA,NA,NA,NA,NA
770bf,"""Falsch""-Screen",canvas.Screen,3_0_4_0_6_0_2,NA,NA,timeout,4999.135,779354.89999986,779346.205,779362.905,784345.345,784346.0999999,2023-03-18T10:43:59Z,784362.04,NULL,Tester,wanaojaribu,d,NA,NA,NA,NA,sd,0,4,NA,NA,NA,NA,NA,NA,NA,NA,NA,NA,NA,NA,NA,NA,NA,NA,NA,NA,NA
770bf,deep,flow.Sequence,3_0_4_0_6_0,NA,NA,completion,46026.123,738306,738302.534,738319.222,784345.345,784346.39999986,2023-03-18T10:43:59Z,784362.04,NULL,Tester,wanaojaribu,d,NA,NA,NA,NA,sd,NA,4,NA,NA,NA,NA,NA,NA,NA,NA,NA,NA,NA,NA,NA,NA,NA,NA,NA,NA,NA
770bf,shallow,flow.Sequence,3_0_4_0_6_1,NA,NA,skipped,NA,784346.5,NA,NA,784345.345,784346.5999999,2023-03-18T10:43:59Z,784362.04,NULL,Tester,wanaojaribu,d,NA,NA,NA,NA,sd,NA,4,NA,NA,NA,NA,NA,NA,NA,NA,NA,NA,NA,NA,NA,NA,NA,NA,NA,NA,NA
770bf,task,flow.Sequence,3_0_4_0_6,NA,NA,completion,46026.123,738306,738302.534,738319.222,784345.345,784346.70000005,2023-03-18T10:43:59Z,784362.04,NULL,Tester,wanaojaribu,d,NA,NA,NA,NA,sd,NA,4,NA,NA,NA,NA,NA,NA,NA,NA,NA,NA,NA,NA,NA,NA,NA,NA,NA,NA,NA
770bf,deep,flow.Sequence,3_0_4_0_7_0,NA,NA,skipped,NA,784346.89999986,NA,NA,784345.345,784346.89999986,2023-03-18T10:43:59Z,784362.04,NULL,Zuwachs,nyongeza,s,matilaba,udhibiti,hudhurio,NA,sd,NA,4,NA,NA,NA,NA,NA,NA,NA,NA,NA,NA,NA,NA,NA,NA,NA,NA,NA,NA,NA
770bf,Shallow Question,html.Page,3_0_4_0_7_1_0,NA,NA,form submission,3707.3599998569,784347,784345.345,784362.04,788069.39999986,788069.70000005,2023-03-18T10:44:03Z,788078.163,NULL,Zuwachs,nyongeza,s,matilaba,udhibiti,hudhurio,nyongeza,NA,NA,4,NA,NA,NA,NA,NA,NA,NA,NA,NA,NA,NA,NA,NA,NA,NA,NA,NA,NA,NA
770bf,"""Richtig""-Screen",canvas.Screen,3_0_4_0_7_1_1,NA,NA,timeout,4999.2320000001,788072.29999995,788061.501,788078.163,793060.7,793061.29999995,2023-03-18T10:44:08Z,793077.395,NULL,Zuwachs,nyongeza,s,matilaba,udhibiti,hudhurio,NA,sd,1,4,NA,NA,NA,NA,NA,NA,NA,NA,NA,NA,NA,NA,NA,NA,NA,NA,NA,NA,NA
770bf,"""Falsch""-Screen",canvas.Screen,3_0_4_0_7_1_2,NA,NA,skipped,NA,793064,NA,NA,793060.7,793064,2023-03-18T10:44:08Z,793077.395,NULL,Zuwachs,nyongeza,s,matilaba,udhibiti,hudhurio,NA,sd,NA,4,NA,NA,NA,NA,NA,NA,NA,NA,NA,NA,NA,NA,NA,NA,NA,NA,NA,NA,NA
770bf,shallow,flow.Sequence,3_0_4_0_7_1,NA,NA,completion,8698.6599999999,784347,784345.345,784362.04,793060.7,793064.20000005,2023-03-18T10:44:08Z,793077.395,NULL,Zuwachs,nyongeza,s,matilaba,udhibiti,hudhurio,NA,sd,NA,4,NA,NA,NA,NA,NA,NA,NA,NA,NA,NA,NA,NA,NA,NA,NA,NA,NA,NA,NA
770bf,task,flow.Sequence,3_0_4_0_7,NA,NA,completion,8698.6599999999,784346.79999995,784345.345,784362.04,793060.7,793064.39999986,2023-03-18T10:44:08Z,793077.395,NULL,Zuwachs,nyongeza,s,matilaba,udhibiti,hudhurio,NA,sd,NA,4,NA,NA,NA,NA,NA,NA,NA,NA,NA,NA,NA,NA,NA,NA,NA,NA,NA,NA,NA
770bf,block,flow.Loop,3_0_4_0,NA,NA,completion,128213.52,664858.0999999,664813.927,664847.18,793060.7,793064.39999986,2023-03-18T10:44:08Z,793077.395,NULL,NA,NA,NA,NA,NA,NA,NA,sd,NA,4,NA,NA,NA,NA,NA,NA,NA,NA,NA,NA,NA,NA,NA,NA,NA,NA,NA,NA,NA
770bf,weiter,canvas.Screen,3_0_4_1,sdf,keypress(Space),response,1129.0049998569,793064.5,793060.7,793077.395,794206.39999986,794207.29999995,2023-03-18T10:44:09Z,794976.987,NULL,NA,NA,NA,NA,NA,NA,NA,sd,NA,4,NA,NA,NA,NA,NA,NA,NA,NA,NA,NA,NA,NA,NA,NA,NA,NA,NA,NA,NA
770bf,check continue,flow.Sequence,3_0_4,NA,NA,completion,129359.21999986,664858,664813.927,664847.18,794206.39999986,794207.5,2023-03-18T10:44:09Z,794976.987,NULL,NA,NA,NA,NA,NA,NA,NA,sd,NA,4,NA,NA,NA,NA,NA,NA,NA,NA,NA,NA,NA,NA,NA,NA,NA,NA,NA,NA,NA
770bf,check continue,flow.Sequence,3_0_5,NA,NA,skipped,NA,794302,NA,NA,794206.39999986,794302.29999995,2023-03-18T10:44:09Z,794976.987,NULL,NA,NA,NA,NA,NA,NA,NA,sdf,NA,5,NA,NA,NA,NA,NA,NA,NA,NA,NA,NA,NA,NA,NA,NA,NA,NA,NA,NA,NA
770bf,check continue,flow.Sequence,3_0_6,NA,NA,skipped,NA,794334.39999986,NA,NA,794206.39999986,794334.5999999,2023-03-18T10:44:09Z,794976.987,NULL,NA,NA,NA,NA,NA,NA,NA,dfs,NA,6,NA,NA,NA,NA,NA,NA,NA,NA,NA,NA,NA,NA,NA,NA,NA,NA,NA,NA,NA
770bf,check continue,flow.Sequence,3_0_7,NA,NA,skipped,NA,794362.5999999,NA,NA,794206.39999986,794362.79999995,2023-03-18T10:44:09Z,794976.987,NULL,NA,NA,NA,NA,NA,NA,NA,df,NA,7,NA,NA,NA,NA,NA,NA,NA,NA,NA,NA,NA,NA,NA,NA,NA,NA,NA,NA,NA
770bf,check continue,flow.Sequence,3_0_8,NA,NA,skipped,NA,794389.0999999,NA,NA,794206.39999986,794389.20000005,2023-03-18T10:44:09Z,794976.987,NULL,NA,NA,NA,NA,NA,NA,NA,dfs,NA,8,NA,NA,NA,NA,NA,NA,NA,NA,NA,NA,NA,NA,NA,NA,NA,NA,NA,NA,NA
770bf,check continue,flow.Sequence,3_0_9,NA,NA,skipped,NA,794415.5999999,NA,NA,794206.39999986,794415.89999986,2023-03-18T10:44:09Z,794976.987,NULL,NA,NA,NA,NA,NA,NA,NA,dsf,NA,9,NA,NA,NA,NA,NA,NA,NA,NA,NA,NA,NA,NA,NA,NA,NA,NA,NA,NA,NA
770bf,check continue,flow.Sequence,3_0_10,NA,NA,skipped,NA,794442,NA,NA,794206.39999986,794442.20000005,2023-03-18T10:44:09Z,794976.987,NULL,NA,NA,NA,NA,NA,NA,NA,df,NA,10,NA,NA,NA,NA,NA,NA,NA,NA,NA,NA,NA,NA,NA,NA,NA,NA,NA,NA,NA
770bf,check continue,flow.Sequence,3_0_11,NA,NA,skipped,NA,794470,NA,NA,794206.39999986,794470.20000005,2023-03-18T10:44:09Z,794976.987,NULL,NA,NA,NA,NA,NA,NA,NA,dfs,NA,11,NA,NA,NA,NA,NA,NA,NA,NA,NA,NA,NA,NA,NA,NA,NA,NA,NA,NA,NA
770bf,check continue,flow.Sequence,3_0_12,NA,NA,skipped,NA,794503.70000005,NA,NA,794206.39999986,794503.89999986,2023-03-18T10:44:09Z,794976.987,NULL,NA,NA,NA,NA,NA,NA,NA,dsf,NA,12,NA,NA,NA,NA,NA,NA,NA,NA,NA,NA,NA,NA,NA,NA,NA,NA,NA,NA,NA
770bf,check continue,flow.Sequence,3_0_13,NA,NA,skipped,NA,794532.79999995,NA,NA,794206.39999986,794532.89999986,2023-03-18T10:44:09Z,794976.987,NULL,NA,NA,NA,NA,NA,NA,NA,dsf,NA,13,NA,NA,NA,NA,NA,NA,NA,NA,NA,NA,NA,NA,NA,NA,NA,NA,NA,NA,NA
770bf,check continue,flow.Sequence,3_0_14,NA,NA,skipped,NA,794561.0999999,NA,NA,794206.39999986,794561.29999995,2023-03-18T10:44:09Z,794976.987,NULL,NA,NA,NA,NA,NA,NA,NA,NA,NA,14,NA,NA,NA,NA,NA,NA,NA,NA,NA,NA,NA,NA,NA,NA,NA,NA,NA,NA,NA
770bf,check continue,flow.Sequence,3_0_15,NA,NA,skipped,NA,794588.29999995,NA,NA,794206.39999986,794588.39999986,2023-03-18T10:44:09Z,794976.987,NULL,NA,NA,NA,NA,NA,NA,NA,NA,NA,15,NA,NA,NA,NA,NA,NA,NA,NA,NA,NA,NA,NA,NA,NA,NA,NA,NA,NA,NA
770bf,check continue,flow.Sequence,3_0_16,NA,NA,skipped,NA,794617.5,NA,NA,794206.39999986,794617.5,2023-03-18T10:44:09Z,794976.987,NULL,NA,NA,NA,NA,NA,NA,NA,NA,NA,16,NA,NA,NA,NA,NA,NA,NA,NA,NA,NA,NA,NA,NA,NA,NA,NA,NA,NA,NA
770bf,check continue,flow.Sequence,3_0_17,NA,NA,skipped,NA,794648.79999995,NA,NA,794206.39999986,794649,2023-03-18T10:44:09Z,794976.987,NULL,NA,NA,NA,NA,NA,NA,NA,NA,NA,17,NA,NA,NA,NA,NA,NA,NA,NA,NA,NA,NA,NA,NA,NA,NA,NA,NA,NA,NA
770bf,check continue,flow.Sequence,3_0_18,NA,NA,skipped,NA,794674.29999995,NA,NA,794206.39999986,794674.29999995,2023-03-18T10:44:09Z,794976.987,NULL,NA,NA,NA,NA,NA,NA,NA,NA,NA,18,NA,NA,NA,NA,NA,NA,NA,NA,NA,NA,NA,NA,NA,NA,NA,NA,NA,NA,NA
770bf,check continue,flow.Sequence,3_0_19,NA,NA,skipped,NA,794704.70000005,NA,NA,794206.39999986,794704.89999986,2023-03-18T10:44:09Z,794976.987,NULL,NA,NA,NA,NA,NA,NA,NA,NA,NA,19,NA,NA,NA,NA,NA,NA,NA,NA,NA,NA,NA,NA,NA,NA,NA,NA,NA,NA,NA
770bf,check continue,flow.Sequence,3_0_20,NA,NA,skipped,NA,794732.89999986,NA,NA,794206.39999986,794733.0999999,2023-03-18T10:44:09Z,794976.987,NULL,NA,NA,NA,NA,NA,NA,NA,NA,NA,20,NA,NA,NA,NA,NA,NA,NA,NA,NA,NA,NA,NA,NA,NA,NA,NA,NA,NA,NA
770bf,check continue,flow.Sequence,3_0_21,NA,NA,skipped,NA,794757.5999999,NA,NA,794206.39999986,794757.70000005,2023-03-18T10:44:09Z,794976.987,NULL,NA,NA,NA,NA,NA,NA,NA,NA,NA,21,NA,NA,NA,NA,NA,NA,NA,NA,NA,NA,NA,NA,NA,NA,NA,NA,NA,NA,NA
770bf,check continue,flow.Sequence,3_0_22,NA,NA,skipped,NA,794785.0999999,NA,NA,794206.39999986,794785.29999995,2023-03-18T10:44:09Z,794976.987,NULL,NA,NA,NA,NA,NA,NA,NA,NA,NA,22,NA,NA,NA,NA,NA,NA,NA,NA,NA,NA,NA,NA,NA,NA,NA,NA,NA,NA,NA
770bf,check continue,flow.Sequence,3_0_23,NA,NA,skipped,NA,794810.20000005,NA,NA,794206.39999986,794810.5999999,2023-03-18T10:44:09Z,794976.987,NULL,NA,NA,NA,NA,NA,NA,NA,NA,NA,23,NA,NA,NA,NA,NA,NA,NA,NA,NA,NA,NA,NA,NA,NA,NA,NA,NA,NA,NA
770bf,check continue,flow.Sequence,3_0_24,NA,NA,skipped,NA,794836.39999986,NA,NA,794206.39999986,794836.5,2023-03-18T10:44:09Z,794976.987,NULL,NA,NA,NA,NA,NA,NA,NA,NA,NA,24,NA,NA,NA,NA,NA,NA,NA,NA,NA,NA,NA,NA,NA,NA,NA,NA,NA,NA,NA
770bf,check continue,flow.Sequence,3_0_25,NA,NA,skipped,NA,794859.89999986,NA,NA,794206.39999986,794860.0999999,2023-03-18T10:44:09Z,794976.987,NULL,NA,NA,NA,NA,NA,NA,NA,NA,NA,25,NA,NA,NA,NA,NA,NA,NA,NA,NA,NA,NA,NA,NA,NA,NA,NA,NA,NA,NA
770bf,check continue,flow.Sequence,3_0_26,NA,NA,skipped,NA,794892.5999999,NA,NA,794206.39999986,794892.79999995,2023-03-18T10:44:09Z,794976.987,NULL,NA,NA,NA,NA,NA,NA,NA,NA,NA,26,NA,NA,NA,NA,NA,NA,NA,NA,NA,NA,NA,NA,NA,NA,NA,NA,NA,NA,NA
770bf,check continue,flow.Sequence,3_0_27,NA,NA,skipped,NA,794915.39999986,NA,NA,794206.39999986,794915.5,2023-03-18T10:44:09Z,794976.987,NULL,NA,NA,NA,NA,NA,NA,NA,NA,NA,27,NA,NA,NA,NA,NA,NA,NA,NA,NA,NA,NA,NA,NA,NA,NA,NA,NA,NA,NA
770bf,check continue,flow.Sequence,3_0_28,NA,NA,skipped,NA,794939.5999999,NA,NA,794206.39999986,794939.79999995,2023-03-18T10:44:09Z,794976.987,NULL,NA,NA,NA,NA,NA,NA,NA,NA,NA,28,NA,NA,NA,NA,NA,NA,NA,NA,NA,NA,NA,NA,NA,NA,NA,NA,NA,NA,NA
770bf,check continue,flow.Sequence,3_0_29,NA,NA,skipped,NA,794962.5,NA,NA,794206.39999986,794962.70000005,2023-03-18T10:44:09Z,794976.987,NULL,NA,NA,NA,NA,NA,NA,NA,NA,NA,29,NA,NA,NA,NA,NA,NA,NA,NA,NA,NA,NA,NA,NA,NA,NA,NA,NA,NA,NA
770bf,until continue,flow.Loop,3_0,NA,NA,completion,593154.22499986,201001.0999999,201019.799,201052.175,794206.39999986,794962.79999995,2023-03-18T10:44:09Z,794976.987,NULL,NA,NA,NA,NA,NA,NA,NA,NA,NA,NA,NA,NA,NA,NA,NA,NA,NA,NA,NA,NA,NA,NA,NA,NA,NA,NA,NA,NA,NA
770bf,block 1,flow.Sequence,3,NA,NA,completion,593154.22499986,201001,201019.799,201052.175,794206.39999986,794963,2023-03-18T10:44:09Z,794976.987,NULL,NA,NA,NA,NA,NA,NA,NA,NA,NA,NA,NA,NA,NA,NA,NA,NA,NA,NA,NA,NA,NA,NA,NA,NA,NA,NA,NA,NA,NA
770bf,1.Part Over,canvas.Screen,4,NA,keypress(Space),response,2468.513,794963.0999999,794193.991,794976.987,797445.5,797446.20000005,2023-03-18T10:44:12Z,797543.295,NULL,NA,NA,NA,NA,NA,NA,NA,NA,NA,NA,NA,NA,NA,NA,NA,NA,NA,NA,NA,NA,NA,NA,NA,NA,NA,NA,NA,NA,NA
770bf,deep,flow.Sequence,5_0_0_0_0_0,NA,NA,skipped,NA,797527,NA,NA,797445.5,797527.20000005,2023-03-18T10:44:12Z,797543.295,NULL,Toleranz,kuvumiliana,s,maombolezo,ujasusi,mchekeshaji,NA,sdf,NA,0,NA,NA,NA,NA,NA,NA,NA,NA,NA,NA,NA,NA,NA,NA,NA,NA,NA,NA,NA
770bf,Shallow Question,html.Page,5_0_0_0_0_1_0,NA,NA,form submission,6011.9050000476,797527.20000005,797526.616,797543.295,803555.20000005,803555.5,2023-03-18T10:44:18Z,803559.031,NULL,Toleranz,kuvumiliana,s,maombolezo,ujasusi,mchekeshaji,maombolezo,NA,NA,0,NA,NA,NA,NA,NA,NA,NA,NA,NA,NA,NA,NA,NA,NA,NA,NA,NA,NA,NA
770bf,"""Richtig""-Screen",canvas.Screen,5_0_0_0_0_1_1,NA,NA,skipped,NA,803557.20000005,NA,NA,803555.20000005,803557.39999986,2023-03-18T10:44:18Z,803559.031,NULL,Toleranz,kuvumiliana,s,maombolezo,ujasusi,mchekeshaji,NA,sdf,NA,0,NA,NA,NA,NA,NA,NA,NA,NA,NA,NA,NA,NA,NA,NA,NA,NA,NA,NA,NA
770bf,"""Falsch""-Screen",canvas.Screen,5_0_0_0_0_1_2,NA,NA,timeout,4999.3010000001,803558.0999999,803542.453,803559.031,808541.645,808542.20000005,2023-03-18T10:44:23Z,808558.332,NULL,Toleranz,kuvumiliana,s,maombolezo,ujasusi,mchekeshaji,NA,sdf,0,0,NA,NA,NA,NA,NA,NA,NA,NA,NA,NA,NA,NA,NA,NA,NA,NA,NA,NA,NA
770bf,shallow,flow.Sequence,5_0_0_0_0_1,NA,NA,completion,10998.35,797527.20000005,797526.616,797543.295,808541.645,808542.39999986,2023-03-18T10:44:23Z,808558.332,NULL,Toleranz,kuvumiliana,s,maombolezo,ujasusi,mchekeshaji,NA,sdf,NA,0,NA,NA,NA,NA,NA,NA,NA,NA,NA,NA,NA,NA,NA,NA,NA,NA,NA,NA,NA
770bf,task,flow.Sequence,5_0_0_0_0,NA,NA,completion,10998.35,797527,797526.616,797543.295,808541.645,808542.5,2023-03-18T10:44:23Z,808558.332,NULL,Toleranz,kuvumiliana,s,maombolezo,ujasusi,mchekeshaji,NA,sdf,NA,0,NA,NA,NA,NA,NA,NA,NA,NA,NA,NA,NA,NA,NA,NA,NA,NA,NA,NA,NA
770bf,Deep Question,html.Page,5_0_0_0_1_0_0,NA,NA,form submission,4562.7679999046,808542.5999999,808541.645,808558.332,813121.0999999,813121.29999995,2023-03-18T10:44:28Z,813124.216,NULL,Inhalt,yaliyomo,d,NA,NA,NA,x,NA,NA,0,NA,NA,NA,NA,NA,NA,NA,NA,NA,NA,NA,NA,NA,NA,NA,NA,NA,NA,NA
770bf,"""Richtig""-Screen",canvas.Screen,5_0_0_0_1_0_1,NA,NA,skipped,NA,813123.5999999,NA,NA,813121.0999999,813123.70000005,2023-03-18T10:44:28Z,813124.216,NULL,Inhalt,yaliyomo,d,NA,NA,NA,NA,sdf,NA,0,NA,NA,NA,NA,NA,NA,NA,NA,NA,NA,NA,NA,NA,NA,NA,NA,NA,NA,NA
770bf,"""Falsch""-Screen",canvas.Screen,5_0_0_0_1_0_2,NA,NA,timeout,4999.263,813125,813107.625,813124.216,818106.845,818107.39999986,2023-03-18T10:44:33Z,818123.479,NULL,Inhalt,yaliyomo,d,NA,NA,NA,NA,sdf,0,0,NA,NA,NA,NA,NA,NA,NA,NA,NA,NA,NA,NA,NA,NA,NA,NA,NA,NA,NA
770bf,deep,flow.Sequence,5_0_0_0_1_0,NA,NA,completion,9548.5129999999,808542.5999999,808541.645,808558.332,818106.845,818107.70000005,2023-03-18T10:44:33Z,818123.479,NULL,Inhalt,yaliyomo,d,NA,NA,NA,NA,sdf,NA,0,NA,NA,NA,NA,NA,NA,NA,NA,NA,NA,NA,NA,NA,NA,NA,NA,NA,NA,NA
770bf,shallow,flow.Sequence,5_0_0_0_1_1,NA,NA,skipped,NA,818107.70000005,NA,NA,818106.845,818107.89999986,2023-03-18T10:44:33Z,818123.479,NULL,Inhalt,yaliyomo,d,NA,NA,NA,NA,sdf,NA,0,NA,NA,NA,NA,NA,NA,NA,NA,NA,NA,NA,NA,NA,NA,NA,NA,NA,NA,NA
770bf,task,flow.Sequence,5_0_0_0_1,NA,NA,completion,9548.5129999999,808542.5999999,808541.645,808558.332,818106.845,818108,2023-03-18T10:44:33Z,818123.479,NULL,Inhalt,yaliyomo,d,NA,NA,NA,NA,sdf,NA,0,NA,NA,NA,NA,NA,NA,NA,NA,NA,NA,NA,NA,NA,NA,NA,NA,NA,NA,NA
770bf,deep,flow.Sequence,5_0_0_0_2_0,NA,NA,skipped,NA,818108.0999999,NA,NA,818106.845,818108.20000005,2023-03-18T10:44:33Z,818123.479,NULL,Sympathie,mapendano,s,dhamiria,fungamano,maazimio,NA,sdf,NA,0,NA,NA,NA,NA,NA,NA,NA,NA,NA,NA,NA,NA,NA,NA,NA,NA,NA,NA,NA
770bf,Shallow Question,html.Page,5_0_0_0_2_1_0,NA,NA,form submission,10617.721000048,818108.20000005,818106.845,818123.479,828741.20000005,828741.5,2023-03-18T10:44:43Z,828755.234,NULL,Sympathie,mapendano,s,dhamiria,fungamano,maazimio,mapendano,NA,NA,0,NA,NA,NA,NA,NA,NA,NA,NA,NA,NA,NA,NA,NA,NA,NA,NA,NA,NA,NA
770bf,"""Richtig""-Screen",canvas.Screen,5_0_0_0_2_1_1,NA,NA,timeout,4999.1329999999,828743.79999995,828738.546,828755.234,833737.759,833738.5999999,2023-03-18T10:44:48Z,833754.367,NULL,Sympathie,mapendano,s,dhamiria,fungamano,maazimio,NA,sdf,1,0,NA,NA,NA,NA,NA,NA,NA,NA,NA,NA,NA,NA,NA,NA,NA,NA,NA,NA,NA
770bf,"""Falsch""-Screen",canvas.Screen,5_0_0_0_2_1_2,NA,NA,skipped,NA,833741.5999999,NA,NA,833737.759,833741.79999995,2023-03-18T10:44:48Z,833754.367,NULL,Sympathie,mapendano,s,dhamiria,fungamano,maazimio,NA,sdf,NA,0,NA,NA,NA,NA,NA,NA,NA,NA,NA,NA,NA,NA,NA,NA,NA,NA,NA,NA,NA
770bf,shallow,flow.Sequence,5_0_0_0_2_1,NA,NA,completion,15614.28,818108.20000005,818106.845,818123.479,833737.759,833742,2023-03-18T10:44:48Z,833754.367,NULL,Sympathie,mapendano,s,dhamiria,fungamano,maazimio,NA,sdf,NA,0,NA,NA,NA,NA,NA,NA,NA,NA,NA,NA,NA,NA,NA,NA,NA,NA,NA,NA,NA
770bf,task,flow.Sequence,5_0_0_0_2,NA,NA,completion,15614.28,818108.0999999,818106.845,818123.479,833737.759,833742.0999999,2023-03-18T10:44:48Z,833754.367,NULL,Sympathie,mapendano,s,dhamiria,fungamano,maazimio,NA,sdf,NA,0,NA,NA,NA,NA,NA,NA,NA,NA,NA,NA,NA,NA,NA,NA,NA,NA,NA,NA,NA
770bf,deep,flow.Sequence,5_0_0_0_3_0,NA,NA,skipped,NA,833742.0999999,NA,NA,833737.759,833742.29999995,2023-03-18T10:44:48Z,833754.367,NULL,Annäherung,maegesho,s,madahili,kujiamini,mapendekezo,NA,sdf,NA,0,NA,NA,NA,NA,NA,NA,NA,NA,NA,NA,NA,NA,NA,NA,NA,NA,NA,NA,NA
770bf,Shallow Question,html.Page,5_0_0_0_3_1_0,NA,NA,form submission,5096.9329999523,833742.39999986,833737.759,833754.367,838851.29999995,838851.5999999,2023-03-18T10:44:53Z,838853.571,NULL,Annäherung,maegesho,s,madahili,kujiamini,mapendekezo,kujiamini,NA,NA,0,NA,NA,NA,NA,NA,NA,NA,NA,NA,NA,NA,NA,NA,NA,NA,NA,NA,NA,NA
770bf,"""Richtig""-Screen",canvas.Screen,5_0_0_0_3_1_1,NA,NA,skipped,NA,838853.89999986,NA,NA,838851.29999995,838854.0999999,2023-03-18T10:44:53Z,838853.571,NULL,Annäherung,maegesho,s,madahili,kujiamini,mapendekezo,NA,sdf,NA,0,NA,NA,NA,NA,NA,NA,NA,NA,NA,NA,NA,NA,NA,NA,NA,NA,NA,NA,NA
770bf,"""Falsch""-Screen",canvas.Screen,5_0_0_0_3_1_2,NA,NA,timeout,4999.1949999999,838854.89999986,838837.009,838853.571,843836.183,843836.89999986,2023-03-18T10:44:58Z,843852.766,NULL,Annäherung,maegesho,s,madahili,kujiamini,mapendekezo,NA,sdf,0,0,NA,NA,NA,NA,NA,NA,NA,NA,NA,NA,NA,NA,NA,NA,NA,NA,NA,NA,NA
770bf,shallow,flow.Sequence,5_0_0_0_3_1,NA,NA,completion,10081.816,833742.29999995,833737.759,833754.367,843836.183,843837.20000005,2023-03-18T10:44:58Z,843852.766,NULL,Annäherung,maegesho,s,madahili,kujiamini,mapendekezo,NA,sdf,NA,0,NA,NA,NA,NA,NA,NA,NA,NA,NA,NA,NA,NA,NA,NA,NA,NA,NA,NA,NA
770bf,task,flow.Sequence,5_0_0_0_3,NA,NA,completion,10081.816,833742.0999999,833737.759,833754.367,843836.183,843837.39999986,2023-03-18T10:44:58Z,843852.766,NULL,Annäherung,maegesho,s,madahili,kujiamini,mapendekezo,NA,sdf,NA,0,NA,NA,NA,NA,NA,NA,NA,NA,NA,NA,NA,NA,NA,NA,NA,NA,NA,NA,NA
770bf,deep,flow.Sequence,5_0_0_0_4_0,NA,NA,skipped,NA,843837.5,NA,NA,843836.183,843837.5999999,2023-03-18T10:44:58Z,843852.766,NULL,Schlange,foleni,s,uvumilivu,uteuzi,muuzaji,NA,sdf,NA,0,NA,NA,NA,NA,NA,NA,NA,NA,NA,NA,NA,NA,NA,NA,NA,NA,NA,NA,NA
770bf,Shallow Question,html.Page,5_0_0_0_4_1_0,NA,NA,form submission,6944.5339999524,843837.70000005,843836.183,843852.766,850797.29999995,850797.5,2023-03-18T10:45:05Z,850801.718,NULL,Schlange,foleni,s,uvumilivu,uteuzi,muuzaji,uvumilivu,NA,NA,0,NA,NA,NA,NA,NA,NA,NA,NA,NA,NA,NA,NA,NA,NA,NA,NA,NA,NA,NA
770bf,"""Richtig""-Screen",canvas.Screen,5_0_0_0_4_1_1,NA,NA,skipped,NA,850799.89999986,NA,NA,850797.29999995,850799.89999986,2023-03-18T10:45:05Z,850801.718,NULL,Schlange,foleni,s,uvumilivu,uteuzi,muuzaji,NA,sdf,NA,0,NA,NA,NA,NA,NA,NA,NA,NA,NA,NA,NA,NA,NA,NA,NA,NA,NA,NA,NA
770bf,"""Falsch""-Screen",canvas.Screen,5_0_0_0_4_1_2,NA,NA,timeout,4999.329,850800.5999999,850785.113,850801.718,855784.34,855784.89999986,2023-03-18T10:45:10Z,855801.047,NULL,Schlange,foleni,s,uvumilivu,uteuzi,muuzaji,NA,sdf,0,0,NA,NA,NA,NA,NA,NA,NA,NA,NA,NA,NA,NA,NA,NA,NA,NA,NA,NA,NA
770bf,shallow,flow.Sequence,5_0_0_0_4_1,NA,NA,completion,11931.574,843837.70000005,843836.183,843852.766,855784.34,855785.20000005,2023-03-18T10:45:10Z,855801.047,NULL,Schlange,foleni,s,uvumilivu,uteuzi,muuzaji,NA,sdf,NA,0,NA,NA,NA,NA,NA,NA,NA,NA,NA,NA,NA,NA,NA,NA,NA,NA,NA,NA,NA
770bf,task,flow.Sequence,5_0_0_0_4,NA,NA,completion,11931.574,843837.5,843836.183,843852.766,855784.34,855785.29999995,2023-03-18T10:45:10Z,855801.047,NULL,Schlange,foleni,s,uvumilivu,uteuzi,muuzaji,NA,sdf,NA,0,NA,NA,NA,NA,NA,NA,NA,NA,NA,NA,NA,NA,NA,NA,NA,NA,NA,NA,NA
770bf,Deep Question,html.Page,5_0_0_0_5_0_0,NA,NA,form submission,5042.0529999046,855785.5,855784.34,855801.047,860843.0999999,860843.29999995,2023-03-18T10:45:15Z,860850.156,NULL,Beweis,ushahidi,d,NA,NA,NA,x,NA,NA,0,NA,NA,NA,NA,NA,NA,NA,NA,NA,NA,NA,NA,NA,NA,NA,NA,NA,NA,NA
770bf,"""Richtig""-Screen",canvas.Screen,5_0_0_0_5_0_1,NA,NA,skipped,NA,860845.39999986,NA,NA,860843.0999999,860845.5999999,2023-03-18T10:45:15Z,860850.156,NULL,Beweis,ushahidi,d,NA,NA,NA,NA,sdf,NA,0,NA,NA,NA,NA,NA,NA,NA,NA,NA,NA,NA,NA,NA,NA,NA,NA,NA,NA,NA
770bf,"""Falsch""-Screen",canvas.Screen,5_0_0_0_5_0_2,NA,NA,timeout,4999.2590000001,860846.39999986,860833.619,860850.156,865832.773,865833.29999995,2023-03-18T10:45:20Z,865849.415,NULL,Beweis,ushahidi,d,NA,NA,NA,NA,sdf,0,0,NA,NA,NA,NA,NA,NA,NA,NA,NA,NA,NA,NA,NA,NA,NA,NA,NA,NA,NA
770bf,deep,flow.Sequence,5_0_0_0_5_0,NA,NA,completion,10031.726,855785.5,855784.34,855801.047,865832.773,865833.5999999,2023-03-18T10:45:20Z,865849.415,NULL,Beweis,ushahidi,d,NA,NA,NA,NA,sdf,NA,0,NA,NA,NA,NA,NA,NA,NA,NA,NA,NA,NA,NA,NA,NA,NA,NA,NA,NA,NA
770bf,shallow,flow.Sequence,5_0_0_0_5_1,NA,NA,skipped,NA,865833.79999995,NA,NA,865832.773,865833.89999986,2023-03-18T10:45:20Z,865849.415,NULL,Beweis,ushahidi,d,NA,NA,NA,NA,sdf,NA,0,NA,NA,NA,NA,NA,NA,NA,NA,NA,NA,NA,NA,NA,NA,NA,NA,NA,NA,NA
770bf,task,flow.Sequence,5_0_0_0_5,NA,NA,completion,10031.726,855785.39999986,855784.34,855801.047,865832.773,865834,2023-03-18T10:45:20Z,865849.415,NULL,Beweis,ushahidi,d,NA,NA,NA,NA,sdf,NA,0,NA,NA,NA,NA,NA,NA,NA,NA,NA,NA,NA,NA,NA,NA,NA,NA,NA,NA,NA
770bf,Deep Question,html.Page,5_0_0_0_6_0_0,NA,NA,form submission,6027.4849998569,865834,865832.773,865849.415,871876.89999986,871877.20000005,2023-03-18T10:45:26Z,871881.795,NULL,Polizist,msongora,d,NA,NA,NA,ushahidi,NA,NA,0,NA,NA,NA,NA,NA,NA,NA,NA,NA,NA,NA,NA,NA,NA,NA,NA,NA,NA,NA
770bf,"""Richtig""-Screen",canvas.Screen,5_0_0_0_6_0_1,NA,NA,skipped,NA,871879.5,NA,NA,871876.89999986,871879.70000005,2023-03-18T10:45:26Z,871881.795,NULL,Polizist,msongora,d,NA,NA,NA,NA,sdf,NA,0,NA,NA,NA,NA,NA,NA,NA,NA,NA,NA,NA,NA,NA,NA,NA,NA,NA,NA,NA
770bf,"""Falsch""-Screen",canvas.Screen,5_0_0_0_6_0_2,NA,NA,timeout,4999.336,871880.39999986,871865.214,871881.795,876864.415,876864.89999986,2023-03-18T10:45:31Z,876881.131,NULL,Polizist,msongora,d,NA,NA,NA,NA,sdf,0,0,NA,NA,NA,NA,NA,NA,NA,NA,NA,NA,NA,NA,NA,NA,NA,NA,NA,NA,NA
770bf,deep,flow.Sequence,5_0_0_0_6_0,NA,NA,completion,11015,865834,865832.773,865849.415,876864.415,876865.20000005,2023-03-18T10:45:31Z,876881.131,NULL,Polizist,msongora,d,NA,NA,NA,NA,sdf,NA,0,NA,NA,NA,NA,NA,NA,NA,NA,NA,NA,NA,NA,NA,NA,NA,NA,NA,NA,NA
770bf,shallow,flow.Sequence,5_0_0_0_6_1,NA,NA,skipped,NA,876865.29999995,NA,NA,876864.415,876865.39999986,2023-03-18T10:45:31Z,876881.131,NULL,Polizist,msongora,d,NA,NA,NA,NA,sdf,NA,0,NA,NA,NA,NA,NA,NA,NA,NA,NA,NA,NA,NA,NA,NA,NA,NA,NA,NA,NA
