observation,sender,sender_type,sender_id,response,response_action,ended_on,duration,time_run,time_render,time_show,time_end,time_commit,timestamp,time_switch,german,swahili,enc,distractor1,distractor2,distractor3,response_2,x,correct,distractors,url_vp,url_sess,meta_labjs_version,meta_location,meta_user_agent,meta_platform,meta_language,meta_locale,meta_time_zone,meta_timezone_offset,meta_screen_width,meta_screen_height,meta_scroll_width,meta_scroll_height,meta_window_inner_width,meta_window_inner_height,meta_device_pixel_ratio,meta_labjs_build_flavor,meta_labjs_build_commit
63e65,Introduction delayed retrieval,canvas.Screen,0,weiter,keypress(Space),response,15584.286999999,593.19999999553,264.621,615.113,16199.399999999,16200.5,2023-03-20T17:32:14Z,16204.491,NA,NA,NA,NA,NA,NA,NA,NA,NA,NULL,108,4,20.2.4,https://neurocog.fernuni.ch/studies/vweber/delayed/index.html?vp=108&sess=4,"Mozilla/5.0 (Windows NT 10.0; Win64; x64) AppleWebKit/537.36 (KHTML, like Gecko) Chrome/111.0.0.0 Safari/537.36",Win32,en-GB,en-GB,Europe/Berlin,-60,3440,1440,1718,1239,1718,1287,1,production,f5b4a49f956347addd546a832a3327688c2c0fef
63e65,Deep Question,html.Page,1_0_0_0,NA,NA,form submission,30198.408999999,16200.799999997,16187.759,16204.491,46402.899999999,46403.199999996,2023-03-20T17:32:44Z,46415.184,Wettbewerb,ushindani,d,mapendezi,kichocheo,ubaguzi,wualeleze,NA,NA,NULL,NA,NA,NA,NA,NA,NA,NA,NA,NA,NA,NA,NA,NA,NA,NA,NA,NA,NA,NA
63e65,Save data screen,canvas.Screen,1_0_0_1,NA,NA,timeout,500.753,46403.899999999,46398.516,46415.184,46899.257,46900.100000001,2023-03-20T17:32:44Z,46915.937,Wettbewerb,ushindani,d,mapendezi,kichocheo,ubaguzi,NA,NA,0,NULL,NA,NA,NA,NA,NA,NA,NA,NA,NA,NA,NA,NA,NA,NA,NA,NA,NA,NA,NA
63e65,deep,flow.Sequence,1_0_0,NA,NA,completion,30694.766,16200.699999996,16187.759,16204.491,46899.257,46900.399999999,2023-03-20T17:32:44Z,46915.937,Wettbewerb,ushindani,d,mapendezi,kichocheo,ubaguzi,NA,NA,NA,NULL,NA,NA,NA,NA,NA,NA,NA,NA,NA,NA,NA,NA,NA,NA,NA,NA,NA,NA,NA
63e65,task,flow.Sequence,1_0,NA,NA,completion,30694.766,16200.699999996,16187.759,16204.491,46899.257,46900.5,2023-03-20T17:32:44Z,46915.937,Wettbewerb,ushindani,d,mapendezi,kichocheo,ubaguzi,NA,NA,NA,NULL,NA,NA,NA,NA,NA,NA,NA,NA,NA,NA,NA,NA,NA,NA,NA,NA,NA,NA,NA
63e65,Deep Question,html.Page,1_1_0_0,NA,NA,form submission,8490.7629999955,46900.600000001,46899.257,46915.937,55406.699999996,55406.799999997,2023-03-20T17:32:53Z,55411.552,Schönheit,kirembo,s,mahojiano,msisimko,jitihadi,x,NA,NA,NULL,NA,NA,NA,NA,NA,NA,NA,NA,NA,NA,NA,NA,NA,NA,NA,NA,NA,NA,NA
63e65,Save data screen,canvas.Screen,1_1_0_1,NA,NA,timeout,500.79199999999,55407.399999999,55394.934,55411.552,55895.646,55896.399999999,2023-03-20T17:32:53Z,55912.344,Schönheit,kirembo,s,mahojiano,msisimko,jitihadi,NA,NA,0,NULL,NA,NA,NA,NA,NA,NA,NA,NA,NA,NA,NA,NA,NA,NA,NA,NA,NA,NA,NA
63e65,deep,flow.Sequence,1_1_0,NA,NA,completion,8979.709,46900.5,46899.257,46915.937,55895.646,55896.699999996,2023-03-20T17:32:53Z,55912.344,Schönheit,kirembo,s,mahojiano,msisimko,jitihadi,NA,NA,NA,NULL,NA,NA,NA,NA,NA,NA,NA,NA,NA,NA,NA,NA,NA,NA,NA,NA,NA,NA,NA
63e65,task,flow.Sequence,1_1,NA,NA,completion,8979.709,46900.5,46899.257,46915.937,55895.646,55896.899999999,2023-03-20T17:32:53Z,55912.344,Schönheit,kirembo,s,mahojiano,msisimko,jitihadi,NA,NA,NA,NULL,NA,NA,NA,NA,NA,NA,NA,NA,NA,NA,NA,NA,NA,NA,NA,NA,NA,NA,NA
63e65,Deep Question,html.Page,1_2_0_0,NA,NA,form submission,9092.2560000015,55897,55895.646,55912.344,65004.600000001,65004.899999999,2023-03-20T17:33:03Z,65025.46,Zufall,kikuti,s,kukosekana,uchoraji,leseni,x,NA,NA,NULL,NA,NA,NA,NA,NA,NA,NA,NA,NA,NA,NA,NA,NA,NA,NA,NA,NA,NA,NA
63e65,Save data screen,canvas.Screen,1_2_0_1,NA,NA,timeout,500.835,65006.299999997,65008.886,65025.46,65509.63,65510.5,2023-03-20T17:33:03Z,65526.295,Zufall,kikuti,s,kukosekana,uchoraji,leseni,NA,NA,0,NULL,NA,NA,NA,NA,NA,NA,NA,NA,NA,NA,NA,NA,NA,NA,NA,NA,NA,NA,NA
63e65,deep,flow.Sequence,1_2_0,NA,NA,completion,9597.286,55896.899999999,55895.646,55912.344,65509.63,65510.699999996,2023-03-20T17:33:03Z,65526.295,Zufall,kikuti,s,kukosekana,uchoraji,leseni,NA,NA,NA,NULL,NA,NA,NA,NA,NA,NA,NA,NA,NA,NA,NA,NA,NA,NA,NA,NA,NA,NA,NA
63e65,task,flow.Sequence,1_2,NA,NA,completion,9597.286,55896.899999999,55895.646,55912.344,65509.63,65510.899999999,2023-03-20T17:33:03Z,65526.295,Zufall,kikuti,s,kukosekana,uchoraji,leseni,NA,NA,NA,NULL,NA,NA,NA,NA,NA,NA,NA,NA,NA,NA,NA,NA,NA,NA,NA,NA,NA,NA,NA
63e65,Deep Question,html.Page,1_3_0_0,NA,NA,form submission,18982.504999997,65511,65509.63,65526.295,84508.799999997,84508.899999999,2023-03-20T17:33:22Z,84520.604,Widerstand,usulubu,s,kusababisha,mwalimu,mwenendo,x,NA,NA,NULL,NA,NA,NA,NA,NA,NA,NA,NA,NA,NA,NA,NA,NA,NA,NA,NA,NA,NA,NA
63e65,Save data screen,canvas.Screen,1_3_0_1,NA,NA,timeout,500.735,84510.600000001,84503.764,84520.604,85004.642,85005.399999999,2023-03-20T17:33:23Z,85021.339,Widerstand,usulubu,s,kusababisha,mwalimu,mwenendo,NA,NA,0,NULL,NA,NA,NA,NA,NA,NA,NA,NA,NA,NA,NA,NA,NA,NA,NA,NA,NA,NA,NA
63e65,deep,flow.Sequence,1_3_0,NA,NA,completion,19478.347,65511,65509.63,65526.295,85004.642,85005.699999996,2023-03-20T17:33:23Z,85021.339,Widerstand,usulubu,s,kusababisha,mwalimu,mwenendo,NA,NA,NA,NULL,NA,NA,NA,NA,NA,NA,NA,NA,NA,NA,NA,NA,NA,NA,NA,NA,NA,NA,NA
63e65,task,flow.Sequence,1_3,NA,NA,completion,19478.347,65511,65509.63,65526.295,85004.642,85005.799999997,2023-03-20T17:33:23Z,85021.339,Widerstand,usulubu,s,kusababisha,mwalimu,mwenendo,NA,NA,NA,NULL,NA,NA,NA,NA,NA,NA,NA,NA,NA,NA,NA,NA,NA,NA,NA,NA,NA,NA,NA
63e65,Deep Question,html.Page,1_4_0_0,NA,NA,form submission,20165.460999997,85005.899999999,85004.642,85021.339,105186.8,105187.1,2023-03-20T17:33:43Z,105200.684,Gelegenheit,wakati,d,mchanganyiko,kipaumbele,kushuku,x,NA,NA,NULL,NA,NA,NA,NA,NA,NA,NA,NA,NA,NA,NA,NA,NA,NA,NA,NA,NA,NA,NA
63e65,Save data screen,canvas.Screen,1_4_0_1,NA,NA,timeout,500.70300000001,105188.6,105183.982,105200.684,105684.694,105685.5,2023-03-20T17:33:43Z,105701.387,Gelegenheit,wakati,d,mchanganyiko,kipaumbele,kushuku,NA,NA,0,NULL,NA,NA,NA,NA,NA,NA,NA,NA,NA,NA,NA,NA,NA,NA,NA,NA,NA,NA,NA
63e65,deep,flow.Sequence,1_4_0,NA,NA,completion,20663.355,85005.799999997,85004.642,85021.339,105684.694,105685.8,2023-03-20T17:33:43Z,105701.387,Gelegenheit,wakati,d,mchanganyiko,kipaumbele,kushuku,NA,NA,NA,NULL,NA,NA,NA,NA,NA,NA,NA,NA,NA,NA,NA,NA,NA,NA,NA,NA,NA,NA,NA
63e65,task,flow.Sequence,1_4,NA,NA,completion,20663.355,85005.799999997,85004.642,85021.339,105684.694,105686,2023-03-20T17:33:43Z,105701.387,Gelegenheit,wakati,d,mchanganyiko,kipaumbele,kushuku,NA,NA,NA,NULL,NA,NA,NA,NA,NA,NA,NA,NA,NA,NA,NA,NA,NA,NA,NA,NA,NA,NA,NA
63e65,Deep Question,html.Page,1_5_0_0,NA,NA,form submission,5887.5129999985,105686.1,105684.694,105701.387,111588.9,111589,2023-03-20T17:33:49Z,111593.187,Annäherung,maegesho,s,madahili,kujiamini,mapendekezo,x,NA,NA,NULL,NA,NA,NA,NA,NA,NA,NA,NA,NA,NA,NA,NA,NA,NA,NA,NA,NA,NA,NA
63e65,Save data screen,canvas.Screen,1_5_0_1,NA,NA,timeout,500.81299999999,111590.6,111576.618,111593.187,112077.316,112077.9,2023-03-20T17:33:50Z,112094,Annäherung,maegesho,s,madahili,kujiamini,mapendekezo,NA,NA,0,NULL,NA,NA,NA,NA,NA,NA,NA,NA,NA,NA,NA,NA,NA,NA,NA,NA,NA,NA,NA
63e65,deep,flow.Sequence,1_5_0,NA,NA,completion,6375.929,105686.1,105684.694,105701.387,112077.316,112078.2,2023-03-20T17:33:50Z,112094,Annäherung,maegesho,s,madahili,kujiamini,mapendekezo,NA,NA,NA,NULL,NA,NA,NA,NA,NA,NA,NA,NA,NA,NA,NA,NA,NA,NA,NA,NA,NA,NA,NA
63e65,task,flow.Sequence,1_5,NA,NA,completion,6375.929,105686,105684.694,105701.387,112077.316,112078.4,2023-03-20T17:33:50Z,112094,Annäherung,maegesho,s,madahili,kujiamini,mapendekezo,NA,NA,NA,NULL,NA,NA,NA,NA,NA,NA,NA,NA,NA,NA,NA,NA,NA,NA,NA,NA,NA,NA,NA
63e65,Deep Question,html.Page,1_6_0_0,NA,NA,form submission,16249.399999999,112078.5,112077.316,112094,128343.4,128343.6,2023-03-20T17:34:06Z,128350.846,Symbol,kielezo,s,kinyume,nderemo,utayari,x,NA,NA,NULL,NA,NA,NA,NA,NA,NA,NA,NA,NA,NA,NA,NA,NA,NA,NA,NA,NA,NA,NA
63e65,Save data screen,canvas.Screen,1_6_0_1,NA,NA,timeout,500.878,128345.2,128334.285,128350.846,128834.958,128835.5,2023-03-20T17:34:06Z,128851.724,Symbol,kielezo,s,kinyume,nderemo,utayari,NA,NA,0,NULL,NA,NA,NA,NA,NA,NA,NA,NA,NA,NA,NA,NA,NA,NA,NA,NA,NA,NA,NA
63e65,deep,flow.Sequence,1_6_0,NA,NA,completion,16740.958,112078.5,112077.316,112094,128834.958,128835.7,2023-03-20T17:34:06Z,128851.724,Symbol,kielezo,s,kinyume,nderemo,utayari,NA,NA,NA,NULL,NA,NA,NA,NA,NA,NA,NA,NA,NA,NA,NA,NA,NA,NA,NA,NA,NA,NA,NA
63e65,task,flow.Sequence,1_6,NA,NA,completion,16740.958,112078.4,112077.316,112094,128834.958,128835.9,2023-03-20T17:34:06Z,128851.724,Symbol,kielezo,s,kinyume,nderemo,utayari,NA,NA,NA,NULL,NA,NA,NA,NA,NA,NA,NA,NA,NA,NA,NA,NA,NA,NA,NA,NA,NA,NA,NA
63e65,Deep Question,html.Page,1_7_0_0,NA,NA,form submission,38601.376000001,128835.9,128834.958,128851.724,167453.1,167453.3,2023-03-20T17:34:45Z,167474.522,Polizist,msongora,d,simanzi,mandhari,nidhamu,wsongora,NA,NA,NULL,NA,NA,NA,NA,NA,NA,NA,NA,NA,NA,NA,NA,NA,NA,NA,NA,NA,NA,NA
63e65,Save data screen,canvas.Screen,1_7_0_1,NA,NA,timeout,500.75599999999,167454.9,167457.842,167474.522,167958.6,167959.3,2023-03-20T17:34:46Z,167975.278,Polizist,msongora,d,simanzi,mandhari,nidhamu,NA,NA,0,NULL,NA,NA,NA,NA,NA,NA,NA,NA,NA,NA,NA,NA,NA,NA,NA,NA,NA,NA,NA
63e65,deep,flow.Sequence,1_7_0,NA,NA,completion,39106.876,128835.9,128834.958,128851.724,167958.6,167959.5,2023-03-20T17:34:46Z,167975.278,Polizist,msongora,d,simanzi,mandhari,nidhamu,NA,NA,NA,NULL,NA,NA,NA,NA,NA,NA,NA,NA,NA,NA,NA,NA,NA,NA,NA,NA,NA,NA,NA
63e65,task,flow.Sequence,1_7,NA,NA,completion,39106.876,128835.9,128834.958,128851.724,167958.6,167959.7,2023-03-20T17:34:46Z,167975.278,Polizist,msongora,d,simanzi,mandhari,nidhamu,NA,NA,NA,NULL,NA,NA,NA,NA,NA,NA,NA,NA,NA,NA,NA,NA,NA,NA,NA,NA,NA,NA,NA
63e65,Deep Question,html.Page,1_8_0_0,NA,NA,form submission,6751.9219999955,167959.8,167958.6,167975.278,174727.2,174727.4,2023-03-20T17:34:52Z,174735.111,Verstand,ufahamivu,s,shakawa,hadhari,mhandisi,yaliyomo,NA,NA,NULL,NA,NA,NA,NA,NA,NA,NA,NA,NA,NA,NA,NA,NA,NA,NA,NA,NA,NA,NA
63e65,Save data screen,canvas.Screen,1_8_0_1,NA,NA,timeout,500.65099999998,174728.8,174718.34,174735.111,175219.058,175219.6,2023-03-20T17:34:53Z,175235.762,Verstand,ufahamivu,s,shakawa,hadhari,mhandisi,NA,NA,0,NULL,NA,NA,NA,NA,NA,NA,NA,NA,NA,NA,NA,NA,NA,NA,NA,NA,NA,NA,NA
63e65,deep,flow.Sequence,1_8_0,NA,NA,completion,7243.78,167959.8,167958.6,167975.278,175219.058,175219.8,2023-03-20T17:34:53Z,175235.762,Verstand,ufahamivu,s,shakawa,hadhari,mhandisi,NA,NA,NA,NULL,NA,NA,NA,NA,NA,NA,NA,NA,NA,NA,NA,NA,NA,NA,NA,NA,NA,NA,NA
63e65,task,flow.Sequence,1_8,NA,NA,completion,7243.78,167959.7,167958.6,167975.278,175219.058,175219.8,2023-03-20T17:34:53Z,175235.762,Verstand,ufahamivu,s,shakawa,hadhari,mhandisi,NA,NA,NA,NULL,NA,NA,NA,NA,NA,NA,NA,NA,NA,NA,NA,NA,NA,NA,NA,NA,NA,NA,NA
63e65,Deep Question,html.Page,1_9_0_0,NA,NA,form submission,4415.4379999955,175219.9,175219.058,175235.762,179651.2,179651.4,2023-03-20T17:34:57Z,179675.5,Sympathie,mapendano,s,dhamiria,fungamano,maazimio,x,NA,NA,NULL,NA,NA,NA,NA,NA,NA,NA,NA,NA,NA,NA,NA,NA,NA,NA,NA,NA,NA,NA
63e65,Save data screen,canvas.Screen,1_9_0_1,NA,NA,timeout,500.85800000001,179652.8,179658.926,179675.5,180159.64,180160.2,2023-03-20T17:34:58Z,180176.358,Sympathie,mapendano,s,dhamiria,fungamano,maazimio,NA,NA,0,NULL,NA,NA,NA,NA,NA,NA,NA,NA,NA,NA,NA,NA,NA,NA,NA,NA,NA,NA,NA
63e65,deep,flow.Sequence,1_9_0,NA,NA,completion,4923.878,175219.9,175219.058,175235.762,180159.64,180160.3,2023-03-20T17:34:58Z,180176.358,Sympathie,mapendano,s,dhamiria,fungamano,maazimio,NA,NA,NA,NULL,NA,NA,NA,NA,NA,NA,NA,NA,NA,NA,NA,NA,NA,NA,NA,NA,NA,NA,NA
63e65,task,flow.Sequence,1_9,NA,NA,completion,4923.878,175219.9,175219.058,175235.762,180159.64,180160.5,2023-03-20T17:34:58Z,180176.358,Sympathie,mapendano,s,dhamiria,fungamano,maazimio,NA,NA,NA,NULL,NA,NA,NA,NA,NA,NA,NA,NA,NA,NA,NA,NA,NA,NA,NA,NA,NA,NA,NA
63e65,Deep Question,html.Page,1_10_0_0,NA,NA,form submission,2644.8419999955,180160.6,180159.64,180176.358,182821.2,182821.4,2023-03-20T17:35:00Z,182830.21,Zuwachs,nyongeza,s,matilaba,udhibiti,hudhurio,x,NA,NA,NULL,NA,NA,NA,NA,NA,NA,NA,NA,NA,NA,NA,NA,NA,NA,NA,NA,NA,NA,NA
63e65,Save data screen,canvas.Screen,1_10_0_1,NA,NA,timeout,500.72500000001,182821.8,182813.433,182830.21,183314.252,183314.7,2023-03-20T17:35:01Z,183330.935,Zuwachs,nyongeza,s,matilaba,udhibiti,hudhurio,NA,NA,0,NULL,NA,NA,NA,NA,NA,NA,NA,NA,NA,NA,NA,NA,NA,NA,NA,NA,NA,NA,NA
63e65,deep,flow.Sequence,1_10_0,NA,NA,completion,3137.894,180160.5,180159.64,180176.358,183314.252,183314.9,2023-03-20T17:35:01Z,183330.935,Zuwachs,nyongeza,s,matilaba,udhibiti,hudhurio,NA,NA,NA,NULL,NA,NA,NA,NA,NA,NA,NA,NA,NA,NA,NA,NA,NA,NA,NA,NA,NA,NA,NA
63e65,task,flow.Sequence,1_10,NA,NA,completion,3137.894,180160.5,180159.64,180176.358,183314.252,183315,2023-03-20T17:35:01Z,183330.935,Zuwachs,nyongeza,s,matilaba,udhibiti,hudhurio,NA,NA,NA,NULL,NA,NA,NA,NA,NA,NA,NA,NA,NA,NA,NA,NA,NA,NA,NA,NA,NA,NA,NA
63e65,Deep Question,html.Page,1_11_0_0,NA,NA,form submission,8336.364999997,183315.1,183314.252,183330.935,191667.3,191667.5,2023-03-20T17:35:09Z,191676.27,Auftrag,uagizaji,d,ghanima,kuzingatia,msukani,x,NA,NA,NULL,NA,NA,NA,NA,NA,NA,NA,NA,NA,NA,NA,NA,NA,NA,NA,NA,NA,NA,NA
63e65,Save data screen,canvas.Screen,1_11_0_1,NA,NA,timeout,500.84,191669,191659.717,191676.27,192160.352,192160.8,2023-03-20T17:35:10Z,192177.11,Auftrag,uagizaji,d,ghanima,kuzingatia,msukani,NA,NA,0,NULL,NA,NA,NA,NA,NA,NA,NA,NA,NA,NA,NA,NA,NA,NA,NA,NA,NA,NA,NA
63e65,deep,flow.Sequence,1_11_0,NA,NA,completion,8829.417,183315.1,183314.252,183330.935,192160.352,192160.9,2023-03-20T17:35:10Z,192177.11,Auftrag,uagizaji,d,ghanima,kuzingatia,msukani,NA,NA,NA,NULL,NA,NA,NA,NA,NA,NA,NA,NA,NA,NA,NA,NA,NA,NA,NA,NA,NA,NA,NA
63e65,task,flow.Sequence,1_11,NA,NA,completion,8829.417,183315,183314.252,183330.935,192160.352,192161.1,2023-03-20T17:35:10Z,192177.11,Auftrag,uagizaji,d,ghanima,kuzingatia,msukani,NA,NA,NA,NULL,NA,NA,NA,NA,NA,NA,NA,NA,NA,NA,NA,NA,NA,NA,NA,NA,NA,NA,NA
63e65,Deep Question,html.Page,1_12_0_0,NA,NA,form submission,5820.4900000015,192161.2,192160.352,192177.11,197997.6,197997.7,2023-03-20T17:35:16Z,198018.938,Ausschluss,kutengwa,d,ununuzi,taratibu,madeni,x,NA,NA,NULL,NA,NA,NA,NA,NA,NA,NA,NA,NA,NA,NA,NA,NA,NA,NA,NA,NA,NA,NA
63e65,Save data screen,canvas.Screen,1_12_0_1,NA,NA,timeout,500.75599999999,197999.2,198002.225,198018.938,198502.996,198503.5,2023-03-20T17:35:16Z,198519.694,Ausschluss,kutengwa,d,ununuzi,taratibu,madeni,NA,NA,0,NULL,NA,NA,NA,NA,NA,NA,NA,NA,NA,NA,NA,NA,NA,NA,NA,NA,NA,NA,NA
63e65,deep,flow.Sequence,1_12_0,NA,NA,completion,6325.886,192161.2,192160.352,192177.11,198502.996,198503.7,2023-03-20T17:35:16Z,198519.694,Ausschluss,kutengwa,d,ununuzi,taratibu,madeni,NA,NA,NA,NULL,NA,NA,NA,NA,NA,NA,NA,NA,NA,NA,NA,NA,NA,NA,NA,NA,NA,NA,NA
63e65,task,flow.Sequence,1_12,NA,NA,completion,6325.886,192161.2,192160.352,192177.11,198502.996,198503.8,2023-03-20T17:35:16Z,198519.694,Ausschluss,kutengwa,d,ununuzi,taratibu,madeni,NA,NA,NA,NULL,NA,NA,NA,NA,NA,NA,NA,NA,NA,NA,NA,NA,NA,NA,NA,NA,NA,NA,NA
63e65,Deep Question,html.Page,1_13_0_0,NA,NA,form submission,9103.7059999985,198503.9,198502.996,198519.694,207623.4,207623.4,2023-03-20T17:35:25Z,207632.922,Vorsorge,tahadhari,d,ufafanuzi,makini,mashambani,yaliyomo,NA,NA,NULL,NA,NA,NA,NA,NA,NA,NA,NA,NA,NA,NA,NA,NA,NA,NA,NA,NA,NA,NA
63e65,Save data screen,canvas.Screen,1_13_0_1,NA,NA,timeout,500.73300000001,207625.1,207616.243,207632.922,208116.844,208117.3,2023-03-20T17:35:26Z,208133.655,Vorsorge,tahadhari,d,ufafanuzi,makini,mashambani,NA,NA,0,NULL,NA,NA,NA,NA,NA,NA,NA,NA,NA,NA,NA,NA,NA,NA,NA,NA,NA,NA,NA
63e65,deep,flow.Sequence,1_13_0,NA,NA,completion,9597.15,198503.8,198502.996,198519.694,208116.844,208117.5,2023-03-20T17:35:26Z,208133.655,Vorsorge,tahadhari,d,ufafanuzi,makini,mashambani,NA,NA,NA,NULL,NA,NA,NA,NA,NA,NA,NA,NA,NA,NA,NA,NA,NA,NA,NA,NA,NA,NA,NA
63e65,task,flow.Sequence,1_13,NA,NA,completion,9597.15,198503.8,198502.996,198519.694,208116.844,208117.6,2023-03-20T17:35:26Z,208133.655,Vorsorge,tahadhari,d,ufafanuzi,makini,mashambani,NA,NA,NA,NULL,NA,NA,NA,NA,NA,NA,NA,NA,NA,NA,NA,NA,NA,NA,NA,NA,NA,NA,NA
63e65,Deep Question,html.Page,1_14_0_0,NA,NA,form submission,12285.744999999,208117.6,208116.844,208133.655,220419.4,220419.5,2023-03-20T17:35:38Z,220434.869,Beweis,ushahidi,d,marudio,kizuizi,mtendaji,x,NA,NA,NULL,NA,NA,NA,NA,NA,NA,NA,NA,NA,NA,NA,NA,NA,NA,NA,NA,NA,NA,NA
63e65,Save data screen,canvas.Screen,1_14_0_1,NA,NA,timeout,500.622,220421.1,220418.206,220434.869,220918.766,220920.8,2023-03-20T17:35:38Z,220935.491,Beweis,ushahidi,d,marudio,kizuizi,mtendaji,NA,NA,0,NULL,NA,NA,NA,NA,NA,NA,NA,NA,NA,NA,NA,NA,NA,NA,NA,NA,NA,NA,NA
63e65,deep,flow.Sequence,1_14_0,NA,NA,completion,12785.111,208117.6,208116.844,208133.655,220918.766,220921,2023-03-20T17:35:38Z,220935.491,Beweis,ushahidi,d,marudio,kizuizi,mtendaji,NA,NA,NA,NULL,NA,NA,NA,NA,NA,NA,NA,NA,NA,NA,NA,NA,NA,NA,NA,NA,NA,NA,NA
63e65,task,flow.Sequence,1_14,NA,NA,completion,12785.111,208117.6,208116.844,208133.655,220918.766,220921,2023-03-20T17:35:38Z,220935.491,Beweis,ushahidi,d,marudio,kizuizi,mtendaji,NA,NA,NA,NULL,NA,NA,NA,NA,NA,NA,NA,NA,NA,NA,NA,NA,NA,NA,NA,NA,NA,NA,NA
63e65,Deep Question,html.Page,1_15_0_0,NA,NA,form submission,3802.009,220921.1,220918.766,220935.491,224737.5,224737.7,2023-03-20T17:35:42Z,224740.978,Konkurrent,mshindani,d,msemaji,mvutaji,kipukusa,x,NA,NA,NULL,NA,NA,NA,NA,NA,NA,NA,NA,NA,NA,NA,NA,NA,NA,NA,NA,NA,NA,NA
63e65,Save data screen,canvas.Screen,1_15_0_1,NA,NA,timeout,500.88500000001,224739.2,224724.457,224740.978,225225.181,225225.6,2023-03-20T17:35:43Z,225241.863,Konkurrent,mshindani,d,msemaji,mvutaji,kipukusa,NA,NA,0,NULL,NA,NA,NA,NA,NA,NA,NA,NA,NA,NA,NA,NA,NA,NA,NA,NA,NA,NA,NA
63e65,deep,flow.Sequence,1_15_0,NA,NA,completion,4289.69,220921.1,220918.766,220935.491,225225.181,225225.7,2023-03-20T17:35:43Z,225241.863,Konkurrent,mshindani,d,msemaji,mvutaji,kipukusa,NA,NA,NA,NULL,NA,NA,NA,NA,NA,NA,NA,NA,NA,NA,NA,NA,NA,NA,NA,NA,NA,NA,NA
63e65,task,flow.Sequence,1_15,NA,NA,completion,4289.69,220921.1,220918.766,220935.491,225225.181,225225.9,2023-03-20T17:35:43Z,225241.863,Konkurrent,mshindani,d,msemaji,mvutaji,kipukusa,NA,NA,NA,NULL,NA,NA,NA,NA,NA,NA,NA,NA,NA,NA,NA,NA,NA,NA,NA,NA,NA,NA,NA
63e65,retrieval block 1 (cued recall),flow.Loop,1,NA,NA,completion,209020.69,16200.699999996,16187.759,16204.491,225225.181,225225.9,2023-03-20T17:35:43Z,225241.863,NA,NA,NA,NA,NA,NA,NA,NA,NA,NULL,NA,NA,NA,NA,NA,NA,NA,NA,NA,NA,NA,NA,NA,NA,NA,NA,NA,NA,NA
63e65,Shallow Question,html.Page,2_0_0_0,NA,NA,form submission,7497.5369999985,225226.1,225225.181,225241.863,232739.4,232739.6,2023-03-20T17:35:50Z,232769.488,Vorsorge,tahadhari,d,ufafanuzi,makini,mashambani,mashambani,NA,NA,"c(""distractor1"", ""distractor2"", ""distractor3"")",NA,NA,NA,NA,NA,NA,NA,NA,NA,NA,NA,NA,NA,NA,NA,NA,NA,NA,NA
63e65,Save data screen,canvas.Screen,2_0_0_1,NA,NA,timeout,500.60799999998,232741.1,232752.777,232769.488,233253.463,233254.2,2023-03-20T17:35:51Z,233270.096,Vorsorge,tahadhari,d,ufafanuzi,makini,mashambani,NA,NA,0,"c(""distractor1"", ""distractor2"", ""distractor3"")",NA,NA,NA,NA,NA,NA,NA,NA,NA,NA,NA,NA,NA,NA,NA,NA,NA,NA,NA
63e65,shallow,flow.Sequence,2_0_0,NA,NA,completion,8011.6,225226.1,225225.181,225241.863,233253.463,233254.6,2023-03-20T17:35:51Z,233270.096,Vorsorge,tahadhari,d,ufafanuzi,makini,mashambani,NA,NA,NA,"c(""distractor1"", ""distractor2"", ""distractor3"")",NA,NA,NA,NA,NA,NA,NA,NA,NA,NA,NA,NA,NA,NA,NA,NA,NA,NA,NA
63e65,task,flow.Sequence,2_0,NA,NA,completion,8011.6,225226.1,225225.181,225241.863,233253.463,233254.7,2023-03-20T17:35:51Z,233270.096,Vorsorge,tahadhari,d,ufafanuzi,makini,mashambani,NA,NA,NA,"c(""distractor1"", ""distractor2"", ""distractor3"")",NA,NA,NA,NA,NA,NA,NA,NA,NA,NA,NA,NA,NA,NA,NA,NA,NA,NA,NA
63e65,Shallow Question,html.Page,2_1_0_0,NA,NA,form submission,6491.404,233254.8,233253.463,233270.096,239761.5,239761.7,2023-03-20T17:35:57Z,239779.655,Verstand,ufahamivu,s,shakawa,hadhari,mhandisi,mhandisi,NA,NA,"c(""distractor1"", ""distractor2"", ""distractor3"")",NA,NA,NA,NA,NA,NA,NA,NA,NA,NA,NA,NA,NA,NA,NA,NA,NA,NA,NA
63e65,Save data screen,canvas.Screen,2_1_0_1,NA,NA,timeout,500.75200000001,239763.2,239762.838,239779.655,240263.709,240264.4,2023-03-20T17:35:58Z,240280.407,Verstand,ufahamivu,s,shakawa,hadhari,mhandisi,NA,NA,0,"c(""distractor1"", ""distractor2"", ""distractor3"")",NA,NA,NA,NA,NA,NA,NA,NA,NA,NA,NA,NA,NA,NA,NA,NA,NA,NA,NA
63e65,shallow,flow.Sequence,2_1_0,NA,NA,completion,6993.613,233254.8,233253.463,233270.096,240263.709,240264.7,2023-03-20T17:35:58Z,240280.407,Verstand,ufahamivu,s,shakawa,hadhari,mhandisi,NA,NA,NA,"c(""distractor1"", ""distractor2"", ""distractor3"")",NA,NA,NA,NA,NA,NA,NA,NA,NA,NA,NA,NA,NA,NA,NA,NA,NA,NA,NA
63e65,task,flow.Sequence,2_1,NA,NA,completion,6993.613,233254.7,233253.463,233270.096,240263.709,240264.8,2023-03-20T17:35:58Z,240280.407,Verstand,ufahamivu,s,shakawa,hadhari,mhandisi,NA,NA,NA,"c(""distractor1"", ""distractor2"", ""distractor3"")",NA,NA,NA,NA,NA,NA,NA,NA,NA,NA,NA,NA,NA,NA,NA,NA,NA,NA,NA
63e65,Shallow Question,html.Page,2_2_0_0,NA,NA,form submission,10878.892999997,240264.9,240263.709,240280.407,251159.3,251159.5,2023-03-20T17:36:09Z,251162.738,Schönheit,kirembo,s,mahojiano,msisimko,jitihadi,kirembo,NA,NA,"c(""distractor1"", ""distractor2"", ""distractor3"")",NA,NA,NA,NA,NA,NA,NA,NA,NA,NA,NA,NA,NA,NA,NA,NA,NA,NA,NA
63e65,Save data screen,canvas.Screen,2_2_0_1,NA,NA,timeout,500.79799999998,251161.1,251146.209,251162.738,251646.951,251647.6,2023-03-20T17:36:09Z,251663.536,Schönheit,kirembo,s,mahojiano,msisimko,jitihadi,NA,NA,1,"c(""distractor1"", ""distractor2"", ""distractor3"")",NA,NA,NA,NA,NA,NA,NA,NA,NA,NA,NA,NA,NA,NA,NA,NA,NA,NA,NA
63e65,shallow,flow.Sequence,2_2_0,NA,NA,completion,11366.544,240264.9,240263.709,240280.407,251646.951,251647.9,2023-03-20T17:36:09Z,251663.536,Schönheit,kirembo,s,mahojiano,msisimko,jitihadi,NA,NA,NA,"c(""distractor1"", ""distractor2"", ""distractor3"")",NA,NA,NA,NA,NA,NA,NA,NA,NA,NA,NA,NA,NA,NA,NA,NA,NA,NA,NA
63e65,task,flow.Sequence,2_2,NA,NA,completion,11366.544,240264.9,240263.709,240280.407,251646.951,251648.1,2023-03-20T17:36:09Z,251663.536,Schönheit,kirembo,s,mahojiano,msisimko,jitihadi,NA,NA,NA,"c(""distractor1"", ""distractor2"", ""distractor3"")",NA,NA,NA,NA,NA,NA,NA,NA,NA,NA,NA,NA,NA,NA,NA,NA,NA,NA,NA
63e65,Shallow Question,html.Page,2_3_0_0,NA,NA,form submission,12405.863999999,251648.1,251646.951,251663.536,264069.4,264069.5,2023-03-20T17:36:22Z,264081.527,Polizist,msongora,d,simanzi,mandhari,nidhamu,msongora,NA,NA,"c(""distractor1"", ""distractor2"", ""distractor3"")",NA,NA,NA,NA,NA,NA,NA,NA,NA,NA,NA,NA,NA,NA,NA,NA,NA,NA,NA
63e65,Save data screen,canvas.Screen,2_3_0_1,NA,NA,timeout,500.72499999998,264071.2,264064.975,264081.527,264565.622,264566.2,2023-03-20T17:36:22Z,264582.252,Polizist,msongora,d,simanzi,mandhari,nidhamu,NA,NA,1,"c(""distractor1"", ""distractor2"", ""distractor3"")",NA,NA,NA,NA,NA,NA,NA,NA,NA,NA,NA,NA,NA,NA,NA,NA,NA,NA,NA
63e65,shallow,flow.Sequence,2_3_0,NA,NA,completion,12902.086,251648.1,251646.951,251663.536,264565.622,264566.3,2023-03-20T17:36:22Z,264582.252,Polizist,msongora,d,simanzi,mandhari,nidhamu,NA,NA,NA,"c(""distractor1"", ""distractor2"", ""distractor3"")",NA,NA,NA,NA,NA,NA,NA,NA,NA,NA,NA,NA,NA,NA,NA,NA,NA,NA,NA
63e65,task,flow.Sequence,2_3,NA,NA,completion,12902.086,251648.1,251646.951,251663.536,264565.622,264566.5,2023-03-20T17:36:22Z,264582.252,Polizist,msongora,d,simanzi,mandhari,nidhamu,NA,NA,NA,"c(""distractor1"", ""distractor2"", ""distractor3"")",NA,NA,NA,NA,NA,NA,NA,NA,NA,NA,NA,NA,NA,NA,NA,NA,NA,NA,NA
63e65,Shallow Question,html.Page,2_4_0_0,NA,NA,form submission,14667.348000002,264566.6,264565.622,264582.252,279249.6,279249.8,2023-03-20T17:36:37Z,279270.429,Gelegenheit,wakati,d,mchanganyiko,kipaumbele,kushuku,wakati,NA,NA,"c(""distractor1"", ""distractor2"", ""distractor3"")",NA,NA,NA,NA,NA,NA,NA,NA,NA,NA,NA,NA,NA,NA,NA,NA,NA,NA,NA
63e65,Save data screen,canvas.Screen,2_4_0_1,NA,NA,timeout,500.72700000001,279251.3,279253.665,279270.429,279754.471,279755.2,2023-03-20T17:36:37Z,279771.156,Gelegenheit,wakati,d,mchanganyiko,kipaumbele,kushuku,NA,NA,1,"c(""distractor1"", ""distractor2"", ""distractor3"")",NA,NA,NA,NA,NA,NA,NA,NA,NA,NA,NA,NA,NA,NA,NA,NA,NA,NA,NA
63e65,shallow,flow.Sequence,2_4_0,NA,NA,completion,15172.219,264566.6,264565.622,264582.252,279754.471,279755.4,2023-03-20T17:36:37Z,279771.156,Gelegenheit,wakati,d,mchanganyiko,kipaumbele,kushuku,NA,NA,NA,"c(""distractor1"", ""distractor2"", ""distractor3"")",NA,NA,NA,NA,NA,NA,NA,NA,NA,NA,NA,NA,NA,NA,NA,NA,NA,NA,NA
63e65,task,flow.Sequence,2_4,NA,NA,completion,15172.219,264566.5,264565.622,264582.252,279754.471,279755.5,2023-03-20T17:36:37Z,279771.156,Gelegenheit,wakati,d,mchanganyiko,kipaumbele,kushuku,NA,NA,NA,"c(""distractor1"", ""distractor2"", ""distractor3"")",NA,NA,NA,NA,NA,NA,NA,NA,NA,NA,NA,NA,NA,NA,NA,NA,NA,NA,NA
63e65,Shallow Question,html.Page,2_5_0_0,NA,NA,form submission,9288.7439999985,279755.6,279754.471,279771.156,289059.9,289059.9,2023-03-20T17:36:47Z,289067.986,Wettbewerb,ushindani,d,mapendezi,kichocheo,ubaguzi,ushindani,NA,NA,"c(""distractor1"", ""distractor2"", ""distractor3"")",NA,NA,NA,NA,NA,NA,NA,NA,NA,NA,NA,NA,NA,NA,NA,NA,NA,NA,NA
63e65,Save data screen,canvas.Screen,2_5_0_1,NA,NA,timeout,500.74900000001,289061.5,289051.303,289067.986,289552.032,289552.7,2023-03-20T17:36:47Z,289568.735,Wettbewerb,ushindani,d,mapendezi,kichocheo,ubaguzi,NA,NA,1,"c(""distractor1"", ""distractor2"", ""distractor3"")",NA,NA,NA,NA,NA,NA,NA,NA,NA,NA,NA,NA,NA,NA,NA,NA,NA,NA,NA
63e65,shallow,flow.Sequence,2_5_0,NA,NA,completion,9780.876,279755.6,279754.471,279771.156,289552.032,289552.8,2023-03-20T17:36:47Z,289568.735,Wettbewerb,ushindani,d,mapendezi,kichocheo,ubaguzi,NA,NA,NA,"c(""distractor1"", ""distractor2"", ""distractor3"")",NA,NA,NA,NA,NA,NA,NA,NA,NA,NA,NA,NA,NA,NA,NA,NA,NA,NA,NA
63e65,task,flow.Sequence,2_5,NA,NA,completion,9780.876,279755.6,279754.471,279771.156,289552.032,289553,2023-03-20T17:36:47Z,289568.735,Wettbewerb,ushindani,d,mapendezi,kichocheo,ubaguzi,NA,NA,NA,"c(""distractor1"", ""distractor2"", ""distractor3"")",NA,NA,NA,NA,NA,NA,NA,NA,NA,NA,NA,NA,NA,NA,NA,NA,NA,NA,NA
63e65,Shallow Question,html.Page,2_6_0_0,NA,NA,form submission,5555.064999997,289553.1,289552.032,289568.735,295123.8,295124,2023-03-20T17:36:53Z,295126.691,Widerstand,usulubu,s,kusababisha,mwalimu,mwenendo,usulubu,NA,NA,"c(""distractor1"", ""distractor2"", ""distractor3"")",NA,NA,NA,NA,NA,NA,NA,NA,NA,NA,NA,NA,NA,NA,NA,NA,NA,NA,NA
63e65,Save data screen,canvas.Screen,2_6_0_1,NA,NA,timeout,500.84899999999,295125.3,295110.13,295126.691,295610.857,295611.6,2023-03-20T17:36:53Z,295627.54,Widerstand,usulubu,s,kusababisha,mwalimu,mwenendo,NA,NA,1,"c(""distractor1"", ""distractor2"", ""distractor3"")",NA,NA,NA,NA,NA,NA,NA,NA,NA,NA,NA,NA,NA,NA,NA,NA,NA,NA,NA
63e65,shallow,flow.Sequence,2_6_0,NA,NA,completion,6042.122,289553.1,289552.032,289568.735,295610.857,295611.8,2023-03-20T17:36:53Z,295627.54,Widerstand,usulubu,s,kusababisha,mwalimu,mwenendo,NA,NA,NA,"c(""distractor1"", ""distractor2"", ""distractor3"")",NA,NA,NA,NA,NA,NA,NA,NA,NA,NA,NA,NA,NA,NA,NA,NA,NA,NA,NA
63e65,task,flow.Sequence,2_6,NA,NA,completion,6042.122,289553,289552.032,289568.735,295610.857,295611.9,2023-03-20T17:36:53Z,295627.54,Widerstand,usulubu,s,kusababisha,mwalimu,mwenendo,NA,NA,NA,"c(""distractor1"", ""distractor2"", ""distractor3"")",NA,NA,NA,NA,NA,NA,NA,NA,NA,NA,NA,NA,NA,NA,NA,NA,NA,NA,NA
63e65,Shallow Question,html.Page,2_7_0_0,NA,NA,form submission,10800.359999999,295611.9,295610.857,295627.54,306427.9,306428.1,2023-03-20T17:37:04Z,306443.199,Auftrag,uagizaji,d,ghanima,kuzingatia,msukani,uagizaji,NA,NA,"c(""distractor1"", ""distractor2"", ""distractor3"")",NA,NA,NA,NA,NA,NA,NA,NA,NA,NA,NA,NA,NA,NA,NA,NA,NA,NA,NA
63e65,Save data screen,canvas.Screen,2_7_0_1,NA,NA,timeout,500.79099999997,306429.6,306426.491,306443.199,306927.294,306927.9,2023-03-20T17:37:05Z,306943.99,Auftrag,uagizaji,d,ghanima,kuzingatia,msukani,NA,NA,1,"c(""distractor1"", ""distractor2"", ""distractor3"")",NA,NA,NA,NA,NA,NA,NA,NA,NA,NA,NA,NA,NA,NA,NA,NA,NA,NA,NA
63e65,shallow,flow.Sequence,2_7_0,NA,NA,completion,11299.754,295611.9,295610.857,295627.54,306927.294,306928.1,2023-03-20T17:37:05Z,306943.99,Auftrag,uagizaji,d,ghanima,kuzingatia,msukani,NA,NA,NA,"c(""distractor1"", ""distractor2"", ""distractor3"")",NA,NA,NA,NA,NA,NA,NA,NA,NA,NA,NA,NA,NA,NA,NA,NA,NA,NA,NA
63e65,task,flow.Sequence,2_7,NA,NA,completion,11299.754,295611.9,295610.857,295627.54,306927.294,306928.3,2023-03-20T17:37:05Z,306943.99,Auftrag,uagizaji,d,ghanima,kuzingatia,msukani,NA,NA,NA,"c(""distractor1"", ""distractor2"", ""distractor3"")",NA,NA,NA,NA,NA,NA,NA,NA,NA,NA,NA,NA,NA,NA,NA,NA,NA,NA,NA
63e65,Shallow Question,html.Page,2_8_0_0,NA,NA,form submission,3871.9099999985,306928.4,306927.294,306943.99,310815.9,310816.1,2023-03-20T17:37:08Z,310833.7,Annäherung,maegesho,s,madahili,kujiamini,mapendekezo,kujiamini,NA,NA,"c(""distractor1"", ""distractor2"", ""distractor3"")",NA,NA,NA,NA,NA,NA,NA,NA,NA,NA,NA,NA,NA,NA,NA,NA,NA,NA,NA
63e65,Save data screen,canvas.Screen,2_8_0_1,NA,NA,timeout,499.89899999998,310817.8,310799.458,310833.7,311316.918,311317.3,2023-03-20T17:37:09Z,311333.599,Annäherung,maegesho,s,madahili,kujiamini,mapendekezo,NA,NA,0,"c(""distractor1"", ""distractor2"", ""distractor3"")",NA,NA,NA,NA,NA,NA,NA,NA,NA,NA,NA,NA,NA,NA,NA,NA,NA,NA,NA
63e65,shallow,flow.Sequence,2_8_0,NA,NA,completion,4372.928,306928.4,306927.294,306943.99,311316.918,311317.4,2023-03-20T17:37:09Z,311333.599,Annäherung,maegesho,s,madahili,kujiamini,mapendekezo,NA,NA,NA,"c(""distractor1"", ""distractor2"", ""distractor3"")",NA,NA,NA,NA,NA,NA,NA,NA,NA,NA,NA,NA,NA,NA,NA,NA,NA,NA,NA
63e65,task,flow.Sequence,2_8,NA,NA,completion,4372.928,306928.4,306927.294,306943.99,311316.918,311317.6,2023-03-20T17:37:09Z,311333.599,Annäherung,maegesho,s,madahili,kujiamini,mapendekezo,NA,NA,NA,"c(""distractor1"", ""distractor2"", ""distractor3"")",NA,NA,NA,NA,NA,NA,NA,NA,NA,NA,NA,NA,NA,NA,NA,NA,NA,NA,NA
63e65,Shallow Question,html.Page,2_9_0_0,NA,NA,form submission,7575.901,311317.6,311316.918,311333.599,318909.5,318909.6,2023-03-20T17:37:17Z,318927.956,Ausschluss,kutengwa,d,ununuzi,taratibu,madeni,kutengwa,NA,NA,"c(""distractor1"", ""distractor2"", ""distractor3"")",NA,NA,NA,NA,NA,NA,NA,NA,NA,NA,NA,NA,NA,NA,NA,NA,NA,NA,NA
63e65,Save data screen,canvas.Screen,2_9_0_1,NA,NA,timeout,500.86499999999,318911.2,318911.24,318927.956,319412.114,319412.7,2023-03-20T17:37:17Z,319428.821,Ausschluss,kutengwa,d,ununuzi,taratibu,madeni,NA,NA,1,"c(""distractor1"", ""distractor2"", ""distractor3"")",NA,NA,NA,NA,NA,NA,NA,NA,NA,NA,NA,NA,NA,NA,NA,NA,NA,NA,NA
63e65,shallow,flow.Sequence,2_9_0,NA,NA,completion,8078.515,311317.6,311316.918,311333.599,319412.114,319412.9,2023-03-20T17:37:17Z,319428.821,Ausschluss,kutengwa,d,ununuzi,taratibu,madeni,NA,NA,NA,"c(""distractor1"", ""distractor2"", ""distractor3"")",NA,NA,NA,NA,NA,NA,NA,NA,NA,NA,NA,NA,NA,NA,NA,NA,NA,NA,NA
63e65,task,flow.Sequence,2_9,NA,NA,completion,8078.515,311317.6,311316.918,311333.599,319412.114,319413,2023-03-20T17:37:17Z,319428.821,Ausschluss,kutengwa,d,ununuzi,taratibu,madeni,NA,NA,NA,"c(""distractor1"", ""distractor2"", ""distractor3"")",NA,NA,NA,NA,NA,NA,NA,NA,NA,NA,NA,NA,NA,NA,NA,NA,NA,NA,NA
63e65,Shallow Question,html.Page,2_10_0_0,NA,NA,form submission,4279.179,319413.1,319412.114,319428.821,323708,323708.1,2023-03-20T17:37:21Z,323718.353,Symbol,kielezo,s,kinyume,nderemo,utayari,kielezo,NA,NA,"c(""distractor1"", ""distractor2"", ""distractor3"")",NA,NA,NA,NA,NA,NA,NA,NA,NA,NA,NA,NA,NA,NA,NA,NA,NA,NA,NA
63e65,Save data screen,canvas.Screen,2_10_0_1,NA,NA,timeout,500.61300000001,323709.5,323701.628,323718.353,324202.436,324203.1,2023-03-20T17:37:22Z,324218.966,Symbol,kielezo,s,kinyume,nderemo,utayari,NA,NA,1,"c(""distractor1"", ""distractor2"", ""distractor3"")",NA,NA,NA,NA,NA,NA,NA,NA,NA,NA,NA,NA,NA,NA,NA,NA,NA,NA,NA
63e65,shallow,flow.Sequence,2_10_0,NA,NA,completion,4773.615,319413.1,319412.114,319428.821,324202.436,324203.4,2023-03-20T17:37:22Z,324218.966,Symbol,kielezo,s,kinyume,nderemo,utayari,NA,NA,NA,"c(""distractor1"", ""distractor2"", ""distractor3"")",NA,NA,NA,NA,NA,NA,NA,NA,NA,NA,NA,NA,NA,NA,NA,NA,NA,NA,NA
63e65,task,flow.Sequence,2_10,NA,NA,completion,4773.615,319413.1,319412.114,319428.821,324202.436,324203.6,2023-03-20T17:37:22Z,324218.966,Symbol,kielezo,s,kinyume,nderemo,utayari,NA,NA,NA,"c(""distractor1"", ""distractor2"", ""distractor3"")",NA,NA,NA,NA,NA,NA,NA,NA,NA,NA,NA,NA,NA,NA,NA,NA,NA,NA,NA
63e65,Shallow Question,html.Page,2_11_0_0,NA,NA,form submission,5536.6340000015,324203.7,324202.436,324218.966,329755.6,329755.7,2023-03-20T17:37:27Z,329760.423,Zuwachs,nyongeza,s,matilaba,udhibiti,hudhurio,nyongeza,NA,NA,"c(""distractor1"", ""distractor2"", ""distractor3"")",NA,NA,NA,NA,NA,NA,NA,NA,NA,NA,NA,NA,NA,NA,NA,NA,NA,NA,NA
63e65,Save data screen,canvas.Screen,2_11_0_1,NA,NA,timeout,500.80800000002,329757.2,329743.821,329760.423,330244.507,330245.1,2023-03-20T17:37:28Z,330261.231,Zuwachs,nyongeza,s,matilaba,udhibiti,hudhurio,NA,NA,1,"c(""distractor1"", ""distractor2"", ""distractor3"")",NA,NA,NA,NA,NA,NA,NA,NA,NA,NA,NA,NA,NA,NA,NA,NA,NA,NA,NA
63e65,shallow,flow.Sequence,2_11_0,NA,NA,completion,6025.541,324203.7,324202.436,324218.966,330244.507,330245.3,2023-03-20T17:37:28Z,330261.231,Zuwachs,nyongeza,s,matilaba,udhibiti,hudhurio,NA,NA,NA,"c(""distractor1"", ""distractor2"", ""distractor3"")",NA,NA,NA,NA,NA,NA,NA,NA,NA,NA,NA,NA,NA,NA,NA,NA,NA,NA,NA
63e65,task,flow.Sequence,2_11,NA,NA,completion,6025.541,324203.7,324202.436,324218.966,330244.507,330245.5,2023-03-20T17:37:28Z,330261.231,Zuwachs,nyongeza,s,matilaba,udhibiti,hudhurio,NA,NA,NA,"c(""distractor1"", ""distractor2"", ""distractor3"")",NA,NA,NA,NA,NA,NA,NA,NA,NA,NA,NA,NA,NA,NA,NA,NA,NA,NA,NA
63e65,Shallow Question,html.Page,2_12_0_0,NA,NA,form submission,5170.769,330245.6,330244.507,330261.231,335432,335432.1,2023-03-20T17:37:33Z,335435.266,Zufall,kikuti,s,kukosekana,uchoraji,leseni,kikuti,NA,NA,"c(""distractor1"", ""distractor2"", ""distractor3"")",NA,NA,NA,NA,NA,NA,NA,NA,NA,NA,NA,NA,NA,NA,NA,NA,NA,NA,NA
63e65,Save data screen,canvas.Screen,2_12_0_1,NA,NA,timeout,500.89199999999,335433.4,335418.74,335435.266,335919.464,335920.2,2023-03-20T17:37:34Z,335936.158,Zufall,kikuti,s,kukosekana,uchoraji,leseni,NA,NA,1,"c(""distractor1"", ""distractor2"", ""distractor3"")",NA,NA,NA,NA,NA,NA,NA,NA,NA,NA,NA,NA,NA,NA,NA,NA,NA,NA,NA
63e65,shallow,flow.Sequence,2_12_0,NA,NA,completion,5658.2329999999,330245.6,330244.507,330261.231,335919.464,335920.4,2023-03-20T17:37:34Z,335936.158,Zufall,kikuti,s,kukosekana,uchoraji,leseni,NA,NA,NA,"c(""distractor1"", ""distractor2"", ""distractor3"")",NA,NA,NA,NA,NA,NA,NA,NA,NA,NA,NA,NA,NA,NA,NA,NA,NA,NA,NA
63e65,task,flow.Sequence,2_12,NA,NA,completion,5658.2329999999,330245.6,330244.507,330261.231,335919.464,335920.6,2023-03-20T17:37:34Z,335936.158,Zufall,kikuti,s,kukosekana,uchoraji,leseni,NA,NA,NA,"c(""distractor1"", ""distractor2"", ""distractor3"")",NA,NA,NA,NA,NA,NA,NA,NA,NA,NA,NA,NA,NA,NA,NA,NA,NA,NA,NA
63e65,Shallow Question,html.Page,2_13_0_0,NA,NA,form submission,7887.842,335920.7,335919.464,335936.158,343824,343824.1,2023-03-20T17:37:41Z,343830.899,Sympathie,mapendano,s,dhamiria,fungamano,maazimio,dhamiria,NA,NA,"c(""distractor1"", ""distractor2"", ""distractor3"")",NA,NA,NA,NA,NA,NA,NA,NA,NA,NA,NA,NA,NA,NA,NA,NA,NA,NA,NA
63e65,Save data screen,canvas.Screen,2_13_0_1,NA,NA,timeout,500.80800000002,343825.7,343814.14,343830.899,344315.008,344315.4,2023-03-20T17:37:42Z,344331.707,Sympathie,mapendano,s,dhamiria,fungamano,maazimio,NA,NA,0,"c(""distractor1"", ""distractor2"", ""distractor3"")",NA,NA,NA,NA,NA,NA,NA,NA,NA,NA,NA,NA,NA,NA,NA,NA,NA,NA,NA
63e65,shallow,flow.Sequence,2_13_0,NA,NA,completion,8378.85,335920.7,335919.464,335936.158,344315.008,344315.5,2023-03-20T17:37:42Z,344331.707,Sympathie,mapendano,s,dhamiria,fungamano,maazimio,NA,NA,NA,"c(""distractor1"", ""distractor2"", ""distractor3"")",NA,NA,NA,NA,NA,NA,NA,NA,NA,NA,NA,NA,NA,NA,NA,NA,NA,NA,NA
63e65,task,flow.Sequence,2_13,NA,NA,completion,8378.85,335920.7,335919.464,335936.158,344315.008,344315.6,2023-03-20T17:37:42Z,344331.707,Sympathie,mapendano,s,dhamiria,fungamano,maazimio,NA,NA,NA,"c(""distractor1"", ""distractor2"", ""distractor3"")",NA,NA,NA,NA,NA,NA,NA,NA,NA,NA,NA,NA,NA,NA,NA,NA,NA,NA,NA
63e65,Shallow Question,html.Page,2_14_0_0,NA,NA,form submission,3590.3930000015,344315.8,344315.008,344331.707,347922.1,347922.2,2023-03-20T17:37:46Z,347936.819,Konkurrent,mshindani,d,msemaji,mvutaji,kipukusa,mshindani,NA,NA,"c(""distractor1"", ""distractor2"", ""distractor3"")",NA,NA,NA,NA,NA,NA,NA,NA,NA,NA,NA,NA,NA,NA,NA,NA,NA,NA,NA
63e65,Save data screen,canvas.Screen,2_14_0_1,NA,NA,timeout,500.81199999998,347923.6,347920.247,347936.819,348420.972,348421.7,2023-03-20T17:37:46Z,348437.631,Konkurrent,mshindani,d,msemaji,mvutaji,kipukusa,NA,NA,1,"c(""distractor1"", ""distractor2"", ""distractor3"")",NA,NA,NA,NA,NA,NA,NA,NA,NA,NA,NA,NA,NA,NA,NA,NA,NA,NA,NA
63e65,shallow,flow.Sequence,2_14_0,NA,NA,completion,4089.265,344315.8,344315.008,344331.707,348420.972,348421.9,2023-03-20T17:37:46Z,348437.631,Konkurrent,mshindani,d,msemaji,mvutaji,kipukusa,NA,NA,NA,"c(""distractor1"", ""distractor2"", ""distractor3"")",NA,NA,NA,NA,NA,NA,NA,NA,NA,NA,NA,NA,NA,NA,NA,NA,NA,NA,NA
63e65,task,flow.Sequence,2_14,NA,NA,completion,4089.265,344315.7,344315.008,344331.707,348420.972,348422,2023-03-20T17:37:46Z,348437.631,Konkurrent,mshindani,d,msemaji,mvutaji,kipukusa,NA,NA,NA,"c(""distractor1"", ""distractor2"", ""distractor3"")",NA,NA,NA,NA,NA,NA,NA,NA,NA,NA,NA,NA,NA,NA,NA,NA,NA,NA,NA
63e65,Shallow Question,html.Page,2_15_0_0,NA,NA,form submission,8320.369,348422.1,348420.972,348437.631,356758,356758.1,2023-03-20T17:37:54Z,356783.137,Beweis,ushahidi,d,marudio,kizuizi,mtendaji,mtendaji,NA,NA,"c(""distractor1"", ""distractor2"", ""distractor3"")",NA,NA,NA,NA,NA,NA,NA,NA,NA,NA,NA,NA,NA,NA,NA,NA,NA,NA,NA
63e65,Save data screen,canvas.Screen,2_15_0_1,NA,NA,timeout,500.72200000001,356759.6,356766.438,356783.137,357267.142,357267.9,2023-03-20T17:37:55Z,357283.859,Beweis,ushahidi,d,marudio,kizuizi,mtendaji,NA,NA,0,"c(""distractor1"", ""distractor2"", ""distractor3"")",NA,NA,NA,NA,NA,NA,NA,NA,NA,NA,NA,NA,NA,NA,NA,NA,NA,NA,NA
63e65,shallow,flow.Sequence,2_15_0,NA,NA,completion,8829.511,348422.1,348420.972,348437.631,357267.142,357268,2023-03-20T17:37:55Z,357283.859,Beweis,ushahidi,d,marudio,kizuizi,mtendaji,NA,NA,NA,"c(""distractor1"", ""distractor2"", ""distractor3"")",NA,NA,NA,NA,NA,NA,NA,NA,NA,NA,NA,NA,NA,NA,NA,NA,NA,NA,NA
63e65,task,flow.Sequence,2_15,NA,NA,completion,8829.511,348422.1,348420.972,348437.631,357267.142,357268.1,2023-03-20T17:37:55Z,357283.859,Beweis,ushahidi,d,marudio,kizuizi,mtendaji,NA,NA,NA,"c(""distractor1"", ""distractor2"", ""distractor3"")",NA,NA,NA,NA,NA,NA,NA,NA,NA,NA,NA,NA,NA,NA,NA,NA,NA,NA,NA
63e65,retrieval block 2 (multiple choice),flow.Loop,2,NA,NA,completion,132025.279,225226.1,225225.181,225241.863,357267.142,357268.2,2023-03-20T17:37:55Z,357283.859,NA,NA,NA,NA,NA,NA,NA,NA,NA,"c(""distractor1"", ""distractor2"", ""distractor3"")",NA,NA,NA,NA,NA,NA,NA,NA,NA,NA,NA,NA,NA,NA,NA,NA,NA,NA,NA
63e65,End,canvas.Screen,3,NA,keypress(Space),response,1973.5409999985,357268.2,357267.142,357283.859,359257.4,359258,2023-03-20T17:37:57Z,359269.95,NA,NA,NA,NA,NA,NA,NA,NA,NA,NULL,NA,NA,NA,NA,NA,NA,NA,NA,NA,NA,NA,NA,NA,NA,NA,NA,NA,NA,NA
63e65,root,flow.Sequence,NA,NA,NA,completion,358642.287,593,264.621,615.113,359257.4,359258.3,2023-03-20T17:37:57Z,359269.95,NA,NA,NA,NA,NA,NA,NA,NA,NA,NULL,NA,NA,NA,NA,NA,NA,NA,NA,NA,NA,NA,NA,NA,NA,NA,NA,NA,NA,NA
