observation,sender,sender_type,sender_id,response,response_action,ended_on,duration,time_run,time_render,time_show,time_end,time_commit,timestamp,time_switch,german,swahili,enc,distractor1,distractor2,distractor3,response_2,x,correct,distractors,url_vp,url_sess,meta_labjs_version,meta_location,meta_user_agent,meta_platform,meta_language,meta_locale,meta_time_zone,meta_timezone_offset,meta_screen_width,meta_screen_height,meta_scroll_width,meta_scroll_height,meta_window_inner_width,meta_window_inner_height,meta_device_pixel_ratio,meta_labjs_build_flavor,meta_labjs_build_commit
ec0b5,Introduction delayed retrieval,canvas.Screen,0,weiter,keypress(Space),response,3900.8000001907,805.90000009537,318.5,818.5,4719.3000001907,4722.9000000954,2024-03-04T11:49:14Z,4735.3,NA,NA,NA,NA,NA,NA,NA,NA,NA,NULL,154,2,20.2.4,https://neurocog.fernuni.ch/studies/vweber/jbaenninger/delayed/index.html?vp=154&sess=2,"Mozilla/5.0 (Windows NT 10.0; Win64; x64) AppleWebKit/537.36 (KHTML, like Gecko) Chrome/122.0.0.0 Safari/537.36 Edg/122.0.0.0",Win32,de,de-CH,Europe/Zurich,-60,1920,1080,1872,910,1872,958,1,production,f5b4a49f956347addd546a832a3327688c2c0fef
ec0b5,Deep Question,html.Page,1_0_0_0,NA,NA,form submission,19578.7,4723.6999998093,4718.73,4735.3,24314,24314.300000191,2024-03-04T11:49:34Z,24318.6,Sänger,mwimbaji,d,msichana,shughuli,mshirika,mzutubi,NA,NA,NULL,NA,NA,NA,NA,NA,NA,NA,NA,NA,NA,NA,NA,NA,NA,NA,NA,NA,NA,NA
ec0b5,Save data screen,canvas.Screen,1_0_0_1,NA,NA,timeout,499.9,24315.199999809,24301.9,24318.6,24801.8,24802.900000095,2024-03-04T11:49:34Z,24818.5,Sänger,mwimbaji,d,msichana,shughuli,mshirika,NA,NA,0,NULL,NA,NA,NA,NA,NA,NA,NA,NA,NA,NA,NA,NA,NA,NA,NA,NA,NA,NA,NA
ec0b5,deep,flow.Sequence,1_0_0,NA,NA,completion,20066.5,4723.6999998093,4718.73,4735.3,24801.8,24803.300000191,2024-03-04T11:49:34Z,24818.5,Sänger,mwimbaji,d,msichana,shughuli,mshirika,NA,NA,NA,NULL,NA,NA,NA,NA,NA,NA,NA,NA,NA,NA,NA,NA,NA,NA,NA,NA,NA,NA,NA
ec0b5,task,flow.Sequence,1_0,NA,NA,completion,20066.5,4723.5999999046,4718.73,4735.3,24801.8,24803.5,2024-03-04T11:49:34Z,24818.5,Sänger,mwimbaji,d,msichana,shughuli,mshirika,NA,NA,NA,NULL,NA,NA,NA,NA,NA,NA,NA,NA,NA,NA,NA,NA,NA,NA,NA,NA,NA,NA,NA
ec0b5,Deep Question,html.Page,1_1_0_0,NA,NA,form submission,22103.800000191,24803.699999809,24801.8,24818.5,46922.300000191,46922.599999904996,2024-03-04T11:49:56Z,46935.1,Abrechnung,uhasibu,s,kusahihisha,mpambano,mashambulizi,mabutichi,NA,NA,NULL,NA,NA,NA,NA,NA,NA,NA,NA,NA,NA,NA,NA,NA,NA,NA,NA,NA,NA,NA
ec0b5,Save data screen,canvas.Screen,1_1_0_1,NA,NA,timeout,500.1,46923.599999904996,46921.296,46935.1,47418.6,47419.400000095004,2024-03-04T11:49:57Z,47435.2,Abrechnung,uhasibu,s,kusahihisha,mpambano,mashambulizi,NA,NA,0,NULL,NA,NA,NA,NA,NA,NA,NA,NA,NA,NA,NA,NA,NA,NA,NA,NA,NA,NA,NA
ec0b5,deep,flow.Sequence,1_1_0,NA,NA,completion,22600.1,24803.699999809,24801.8,24818.5,47418.6,47419.699999809,2024-03-04T11:49:57Z,47435.2,Abrechnung,uhasibu,s,kusahihisha,mpambano,mashambulizi,NA,NA,NA,NULL,NA,NA,NA,NA,NA,NA,NA,NA,NA,NA,NA,NA,NA,NA,NA,NA,NA,NA,NA
ec0b5,task,flow.Sequence,1_1,NA,NA,completion,22600.1,24803.599999905,24801.8,24818.5,47418.6,47419.900000095004,2024-03-04T11:49:57Z,47435.2,Abrechnung,uhasibu,s,kusahihisha,mpambano,mashambulizi,NA,NA,NA,NULL,NA,NA,NA,NA,NA,NA,NA,NA,NA,NA,NA,NA,NA,NA,NA,NA,NA,NA,NA
ec0b5,Deep Question,html.Page,1_2_0_0,NA,NA,form submission,35023.700000095,47420.099999904996,47418.6,47435.2,82458.900000095,82459.199999809,2024-03-04T11:50:32Z,82485.1,Körper,kiwiliwili,s,mapambano,mpatanishi,kiolezo,mbunahiji,NA,NA,NULL,NA,NA,NA,NA,NA,NA,NA,NA,NA,NA,NA,NA,NA,NA,NA,NA,NA,NA,NA
ec0b5,Save data screen,canvas.Screen,1_2_0_1,NA,NA,timeout,500.09999999999,82460.800000191,82468.634,82485.1,82968.6,82969.300000191,2024-03-04T11:50:32Z,82985.2,Körper,kiwiliwili,s,mapambano,mpatanishi,kiolezo,NA,NA,0,NULL,NA,NA,NA,NA,NA,NA,NA,NA,NA,NA,NA,NA,NA,NA,NA,NA,NA,NA,NA
ec0b5,deep,flow.Sequence,1_2_0,NA,NA,completion,35533.4,47420.099999904996,47418.6,47435.2,82968.6,82969.599999905,2024-03-04T11:50:32Z,82985.2,Körper,kiwiliwili,s,mapambano,mpatanishi,kiolezo,NA,NA,NA,NULL,NA,NA,NA,NA,NA,NA,NA,NA,NA,NA,NA,NA,NA,NA,NA,NA,NA,NA,NA
ec0b5,task,flow.Sequence,1_2,NA,NA,completion,35533.4,47420.099999904996,47418.6,47435.2,82968.6,82969.800000191,2024-03-04T11:50:32Z,82985.2,Körper,kiwiliwili,s,mapambano,mpatanishi,kiolezo,NA,NA,NA,NULL,NA,NA,NA,NA,NA,NA,NA,NA,NA,NA,NA,NA,NA,NA,NA,NA,NA,NA,NA
ec0b5,Deep Question,html.Page,1_3_0_0,NA,NA,form submission,18426.100000191,82970,82968.6,82985.2,101411.30000019001,101411.4000001,2024-03-04T11:50:51Z,101418.4,Angreifer,mshambulizi,d,kitengo,tasinia,usafirishaji,msangono,NA,NA,NULL,NA,NA,NA,NA,NA,NA,NA,NA,NA,NA,NA,NA,NA,NA,NA,NA,NA,NA,NA
ec0b5,Save data screen,canvas.Screen,1_3_0_1,NA,NA,timeout,500.20000000001,101413.30000019001,101409.122,101418.4,101901.9,101902.5,2024-03-04T11:50:51Z,101918.6,Angreifer,mshambulizi,d,kitengo,tasinia,usafirishaji,NA,NA,0,NULL,NA,NA,NA,NA,NA,NA,NA,NA,NA,NA,NA,NA,NA,NA,NA,NA,NA,NA,NA
ec0b5,deep,flow.Sequence,1_3_0,NA,NA,completion,18916.7,82969.900000095,82968.6,82985.2,101901.9,101902.69999981,2024-03-04T11:50:51Z,101918.6,Angreifer,mshambulizi,d,kitengo,tasinia,usafirishaji,NA,NA,NA,NULL,NA,NA,NA,NA,NA,NA,NA,NA,NA,NA,NA,NA,NA,NA,NA,NA,NA,NA,NA
ec0b5,task,flow.Sequence,1_3,NA,NA,completion,18916.7,82969.900000095,82968.6,82985.2,101901.9,101902.9000001,2024-03-04T11:50:51Z,101918.6,Angreifer,mshambulizi,d,kitengo,tasinia,usafirishaji,NA,NA,NA,NULL,NA,NA,NA,NA,NA,NA,NA,NA,NA,NA,NA,NA,NA,NA,NA,NA,NA,NA,NA
ec0b5,Deep Question,html.Page,1_4_0_0,NA,NA,form submission,6669.3000000954,101903.0999999,101901.9,101918.6,108587.9000001,108588.19999980999,2024-03-04T11:50:58Z,108601.7,Aufstand,ugomaji,d,mazidio,msingi,kujieleza,tuchakiti,NA,NA,NULL,NA,NA,NA,NA,NA,NA,NA,NA,NA,NA,NA,NA,NA,NA,NA,NA,NA,NA,NA
ec0b5,Save data screen,canvas.Screen,1_4_0_1,NA,NA,timeout,500.3,108589.5999999,108585.704,108601.7,109085.2,109085.9000001,2024-03-04T11:50:58Z,109102,Aufstand,ugomaji,d,mazidio,msingi,kujieleza,NA,NA,0,NULL,NA,NA,NA,NA,NA,NA,NA,NA,NA,NA,NA,NA,NA,NA,NA,NA,NA,NA,NA
ec0b5,deep,flow.Sequence,1_4_0,NA,NA,completion,7166.6,101903.0999999,101901.9,101918.6,109085.2,109086.0999999,2024-03-04T11:50:58Z,109102,Aufstand,ugomaji,d,mazidio,msingi,kujieleza,NA,NA,NA,NULL,NA,NA,NA,NA,NA,NA,NA,NA,NA,NA,NA,NA,NA,NA,NA,NA,NA,NA,NA
ec0b5,task,flow.Sequence,1_4,NA,NA,completion,7166.6,101903.0999999,101901.9,101918.6,109085.2,109086.30000019001,2024-03-04T11:50:58Z,109102,Aufstand,ugomaji,d,mazidio,msingi,kujieleza,NA,NA,NA,NULL,NA,NA,NA,NA,NA,NA,NA,NA,NA,NA,NA,NA,NA,NA,NA,NA,NA,NA,NA
ec0b5,Deep Question,html.Page,1_5_0_0,NA,NA,form submission,36026,109086.5,109085.2,109102,145128,145128.30000019,2024-03-04T11:51:34Z,145135,System,maongozi,d,chokochoko,nuksani,mitaani,tubetimuba,NA,NA,NULL,NA,NA,NA,NA,NA,NA,NA,NA,NA,NA,NA,NA,NA,NA,NA,NA,NA,NA,NA
ec0b5,Save data screen,canvas.Screen,1_5_0_1,NA,NA,timeout,500.20000000001,145129.9000001,145122.6,145135,145618.5,145619.19999981,2024-03-04T11:51:35Z,145635.2,System,maongozi,d,chokochoko,nuksani,mitaani,NA,NA,0,NULL,NA,NA,NA,NA,NA,NA,NA,NA,NA,NA,NA,NA,NA,NA,NA,NA,NA,NA,NA
ec0b5,deep,flow.Sequence,1_5_0,NA,NA,completion,36516.5,109086.4000001,109085.2,109102,145618.5,145619.5,2024-03-04T11:51:35Z,145635.2,System,maongozi,d,chokochoko,nuksani,mitaani,NA,NA,NA,NULL,NA,NA,NA,NA,NA,NA,NA,NA,NA,NA,NA,NA,NA,NA,NA,NA,NA,NA,NA
ec0b5,task,flow.Sequence,1_5,NA,NA,completion,36516.5,109086.4000001,109085.2,109102,145618.5,145619.69999981,2024-03-04T11:51:35Z,145635.2,System,maongozi,d,chokochoko,nuksani,mitaani,NA,NA,NA,NULL,NA,NA,NA,NA,NA,NA,NA,NA,NA,NA,NA,NA,NA,NA,NA,NA,NA,NA,NA
ec0b5,Deep Question,html.Page,1_6_0_0,NA,NA,form submission,7986.7000000954,145619.80000019,145618.5,145635.2,153621.9000001,153622.0999999,2024-03-04T11:51:43Z,153635,Übersicht,kilindo,s,mgusano,chipukizi,kulinganisha,otumba,NA,NA,NULL,NA,NA,NA,NA,NA,NA,NA,NA,NA,NA,NA,NA,NA,NA,NA,NA,NA,NA,NA
ec0b5,Save data screen,canvas.Screen,1_6_0_1,NA,NA,timeout,500.10000000001,153623.69999981,153618.72,153635,154118.5,154119.4000001,2024-03-04T11:51:43Z,154135.1,Übersicht,kilindo,s,mgusano,chipukizi,kulinganisha,NA,NA,0,NULL,NA,NA,NA,NA,NA,NA,NA,NA,NA,NA,NA,NA,NA,NA,NA,NA,NA,NA,NA
ec0b5,deep,flow.Sequence,1_6_0,NA,NA,completion,8483.3,145619.80000019,145618.5,145635.2,154118.5,154119.69999981,2024-03-04T11:51:43Z,154135.1,Übersicht,kilindo,s,mgusano,chipukizi,kulinganisha,NA,NA,NA,NULL,NA,NA,NA,NA,NA,NA,NA,NA,NA,NA,NA,NA,NA,NA,NA,NA,NA,NA,NA
ec0b5,task,flow.Sequence,1_6,NA,NA,completion,8483.3,145619.80000019,145618.5,145635.2,154118.5,154119.9000001,2024-03-04T11:51:43Z,154135.1,Übersicht,kilindo,s,mgusano,chipukizi,kulinganisha,NA,NA,NA,NULL,NA,NA,NA,NA,NA,NA,NA,NA,NA,NA,NA,NA,NA,NA,NA,NA,NA,NA,NA
ec0b5,Deep Question,html.Page,1_7_0_0,NA,NA,form submission,10935.700000191,154120,154118.5,154135.1,165070.80000019,165071,2024-03-04T11:51:54Z,165085.2,Kultur,utamaduni,s,shetani,gerezani,mazingira,sekutiji,NA,NA,NULL,NA,NA,NA,NA,NA,NA,NA,NA,NA,NA,NA,NA,NA,NA,NA,NA,NA,NA,NA
ec0b5,Save data screen,canvas.Screen,1_7_0_1,NA,NA,timeout,499.89999999999,165072.5999999,165069.15,165085.2,165568.5,165569.0999999,2024-03-04T11:51:55Z,165585.1,Kultur,utamaduni,s,shetani,gerezani,mazingira,NA,NA,0,NULL,NA,NA,NA,NA,NA,NA,NA,NA,NA,NA,NA,NA,NA,NA,NA,NA,NA,NA,NA
ec0b5,deep,flow.Sequence,1_7_0,NA,NA,completion,11433.4,154120,154118.5,154135.1,165568.5,165569.4000001,2024-03-04T11:51:55Z,165585.1,Kultur,utamaduni,s,shetani,gerezani,mazingira,NA,NA,NA,NULL,NA,NA,NA,NA,NA,NA,NA,NA,NA,NA,NA,NA,NA,NA,NA,NA,NA,NA,NA
ec0b5,task,flow.Sequence,1_7,NA,NA,completion,11433.4,154119.9000001,154118.5,154135.1,165568.5,165569.5999999,2024-03-04T11:51:55Z,165585.1,Kultur,utamaduni,s,shetani,gerezani,mazingira,NA,NA,NA,NULL,NA,NA,NA,NA,NA,NA,NA,NA,NA,NA,NA,NA,NA,NA,NA,NA,NA,NA,NA
ec0b5,Deep Question,html.Page,1_8_0_0,NA,NA,form submission,19650.800000095,165569.69999981,165568.5,165585.1,185235.9000001,185236.0999999,2024-03-04T11:52:14Z,185251.8,Kanzler,diwani,s,rasilmali,mahitaji,maabudu,batangugo,NA,NA,NULL,NA,NA,NA,NA,NA,NA,NA,NA,NA,NA,NA,NA,NA,NA,NA,NA,NA,NA,NA
ec0b5,Save data screen,canvas.Screen,1_8_0_1,NA,NA,timeout,500.10000000001,185237.69999981,185235.152,185251.8,185735.1,185735.9000001,2024-03-04T11:52:15Z,185751.9,Kanzler,diwani,s,rasilmali,mahitaji,maabudu,NA,NA,0,NULL,NA,NA,NA,NA,NA,NA,NA,NA,NA,NA,NA,NA,NA,NA,NA,NA,NA,NA,NA
ec0b5,deep,flow.Sequence,1_8_0,NA,NA,completion,20150,165569.69999981,165568.5,165585.1,185735.1,185736.0999999,2024-03-04T11:52:15Z,185751.9,Kanzler,diwani,s,rasilmali,mahitaji,maabudu,NA,NA,NA,NULL,NA,NA,NA,NA,NA,NA,NA,NA,NA,NA,NA,NA,NA,NA,NA,NA,NA,NA,NA
ec0b5,task,flow.Sequence,1_8,NA,NA,completion,20150,165569.69999981,165568.5,165585.1,185735.1,185736.4000001,2024-03-04T11:52:15Z,185751.9,Kanzler,diwani,s,rasilmali,mahitaji,maabudu,NA,NA,NA,NULL,NA,NA,NA,NA,NA,NA,NA,NA,NA,NA,NA,NA,NA,NA,NA,NA,NA,NA,NA
ec0b5,Deep Question,html.Page,1_9_0_0,NA,NA,form submission,14728.1,185736.5,185735.1,185751.9,200480,200480.30000019,2024-03-04T11:52:30Z,200485.1,Gefährdung,kuhatarisha,s,uchokozi,udhaifu,makorowezo,zukukomatu,NA,NA,NULL,NA,NA,NA,NA,NA,NA,NA,NA,NA,NA,NA,NA,NA,NA,NA,NA,NA,NA,NA
ec0b5,Save data screen,canvas.Screen,1_9_0_1,NA,NA,timeout,500,200481.9000001,200468.5,200485.1,200968.4,200969.0999999,2024-03-04T11:52:30Z,200985.1,Gefährdung,kuhatarisha,s,uchokozi,udhaifu,makorowezo,NA,NA,0,NULL,NA,NA,NA,NA,NA,NA,NA,NA,NA,NA,NA,NA,NA,NA,NA,NA,NA,NA,NA
ec0b5,deep,flow.Sequence,1_9_0,NA,NA,completion,15216.5,185736.5,185735.1,185751.9,200968.4,200969.4000001,2024-03-04T11:52:30Z,200985.1,Gefährdung,kuhatarisha,s,uchokozi,udhaifu,makorowezo,NA,NA,NA,NULL,NA,NA,NA,NA,NA,NA,NA,NA,NA,NA,NA,NA,NA,NA,NA,NA,NA,NA,NA
ec0b5,task,flow.Sequence,1_9,NA,NA,completion,15216.5,185736.4000001,185735.1,185751.9,200968.4,200969.5999999,2024-03-04T11:52:30Z,200985.1,Gefährdung,kuhatarisha,s,uchokozi,udhaifu,makorowezo,NA,NA,NA,NULL,NA,NA,NA,NA,NA,NA,NA,NA,NA,NA,NA,NA,NA,NA,NA,NA,NA,NA,NA
ec0b5,Deep Question,html.Page,1_10_0_0,NA,NA,form submission,9790.9,200969.80000019,200968.4,200985.1,210776,210776.30000019,2024-03-04T11:52:40Z,210785.1,Können,unaweza,d,kiongozi,bustani,mienendo,tubetiga,NA,NA,NULL,NA,NA,NA,NA,NA,NA,NA,NA,NA,NA,NA,NA,NA,NA,NA,NA,NA,NA,NA
ec0b5,Save data screen,canvas.Screen,1_10_0_1,NA,NA,timeout,500,210777.9000001,210768.5,210785.1,211268.5,211269.19999981,2024-03-04T11:52:40Z,211285.1,Können,unaweza,d,kiongozi,bustani,mienendo,NA,NA,0,NULL,NA,NA,NA,NA,NA,NA,NA,NA,NA,NA,NA,NA,NA,NA,NA,NA,NA,NA,NA
ec0b5,deep,flow.Sequence,1_10_0,NA,NA,completion,10283.4,200969.80000019,200968.4,200985.1,211268.5,211269.4000001,2024-03-04T11:52:40Z,211285.1,Können,unaweza,d,kiongozi,bustani,mienendo,NA,NA,NA,NULL,NA,NA,NA,NA,NA,NA,NA,NA,NA,NA,NA,NA,NA,NA,NA,NA,NA,NA,NA
ec0b5,task,flow.Sequence,1_10,NA,NA,completion,10283.4,200969.69999981,200968.4,200985.1,211268.5,211269.5999999,2024-03-04T11:52:40Z,211285.1,Können,unaweza,d,kiongozi,bustani,mienendo,NA,NA,NA,NULL,NA,NA,NA,NA,NA,NA,NA,NA,NA,NA,NA,NA,NA,NA,NA,NA,NA,NA,NA
ec0b5,Deep Question,html.Page,1_11_0_0,NA,NA,form submission,14859.800000095,211269.80000019,211268.5,211285.1,226144.9000001,226145.0999999,2024-03-04T11:52:55Z,226151.6,Lawine,banguko,d,maambukizi,usuluhishi,chekechea,nungigiji,NA,NA,NULL,NA,NA,NA,NA,NA,NA,NA,NA,NA,NA,NA,NA,NA,NA,NA,NA,NA,NA,NA
ec0b5,Save data screen,canvas.Screen,1_11_0_1,NA,NA,timeout,500.19999999998,226146.69999981,226139.864,226151.6,226635.1,226635.69999981,2024-03-04T11:52:56Z,226651.8,Lawine,banguko,d,maambukizi,usuluhishi,chekechea,NA,NA,0,NULL,NA,NA,NA,NA,NA,NA,NA,NA,NA,NA,NA,NA,NA,NA,NA,NA,NA,NA,NA
ec0b5,deep,flow.Sequence,1_11_0,NA,NA,completion,15350,211269.80000019,211268.5,211285.1,226635.1,226635.9000001,2024-03-04T11:52:56Z,226651.8,Lawine,banguko,d,maambukizi,usuluhishi,chekechea,NA,NA,NA,NULL,NA,NA,NA,NA,NA,NA,NA,NA,NA,NA,NA,NA,NA,NA,NA,NA,NA,NA,NA
ec0b5,task,flow.Sequence,1_11,NA,NA,completion,15350,211269.69999981,211268.5,211285.1,226635.1,226636.0999999,2024-03-04T11:52:56Z,226651.8,Lawine,banguko,d,maambukizi,usuluhishi,chekechea,NA,NA,NA,NULL,NA,NA,NA,NA,NA,NA,NA,NA,NA,NA,NA,NA,NA,NA,NA,NA,NA,NA,NA
ec0b5,Deep Question,html.Page,1_12_0_0,NA,NA,form submission,42148.399999809,226636.19999981,226635.1,226651.8,268800.19999981,268800.30000019,2024-03-04T11:53:38Z,268801.708,Kontrolle,kudhibiti,s,mbinguni,kufunga,utegemezi,mamutiguka,NA,NA,NULL,NA,NA,NA,NA,NA,NA,NA,NA,NA,NA,NA,NA,NA,NA,NA,NA,NA,NA,NA
ec0b5,Save data screen,canvas.Screen,1_12_0_1,NA,NA,timeout,500.092,268801.9000001,268801.708,268801.708,269285.1,269285.80000019,2024-03-04T11:53:39Z,269301.8,Kontrolle,kudhibiti,s,mbinguni,kufunga,utegemezi,NA,NA,0,NULL,NA,NA,NA,NA,NA,NA,NA,NA,NA,NA,NA,NA,NA,NA,NA,NA,NA,NA,NA
ec0b5,deep,flow.Sequence,1_12_0,NA,NA,completion,42633.3,226636.19999981,226635.1,226651.8,269285.1,269286,2024-03-04T11:53:39Z,269301.8,Kontrolle,kudhibiti,s,mbinguni,kufunga,utegemezi,NA,NA,NA,NULL,NA,NA,NA,NA,NA,NA,NA,NA,NA,NA,NA,NA,NA,NA,NA,NA,NA,NA,NA
ec0b5,task,flow.Sequence,1_12,NA,NA,completion,42633.3,226636.19999981,226635.1,226651.8,269285.1,269286.19999981,2024-03-04T11:53:39Z,269301.8,Kontrolle,kudhibiti,s,mbinguni,kufunga,utegemezi,NA,NA,NA,NULL,NA,NA,NA,NA,NA,NA,NA,NA,NA,NA,NA,NA,NA,NA,NA,NA,NA,NA,NA
ec0b5,Deep Question,html.Page,1_13_0_0,NA,NA,form submission,7516.2,269286.4000001,269285.1,269301.8,276818,276818.0999999,2024-03-04T11:53:46Z,276835.6,Kreativität,ubunifu,d,mratibu,mwendelezo,makubaliano,msagono,NA,NA,NULL,NA,NA,NA,NA,NA,NA,NA,NA,NA,NA,NA,NA,NA,NA,NA,NA,NA,NA,NA
ec0b5,Save data screen,canvas.Screen,1_13_0_1,NA,NA,timeout,499.40000000002,276819.69999981,276818.342,276835.6,277318.3,277318.9000001,2024-03-04T11:53:47Z,277335,Kreativität,ubunifu,d,mratibu,mwendelezo,makubaliano,NA,NA,0,NULL,NA,NA,NA,NA,NA,NA,NA,NA,NA,NA,NA,NA,NA,NA,NA,NA,NA,NA,NA
ec0b5,deep,flow.Sequence,1_13_0,NA,NA,completion,8016.5,269286.4000001,269285.1,269301.8,277318.3,277319.19999981,2024-03-04T11:53:47Z,277335,Kreativität,ubunifu,d,mratibu,mwendelezo,makubaliano,NA,NA,NA,NULL,NA,NA,NA,NA,NA,NA,NA,NA,NA,NA,NA,NA,NA,NA,NA,NA,NA,NA,NA
ec0b5,task,flow.Sequence,1_13,NA,NA,completion,8016.5,269286.30000019,269285.1,269301.8,277318.3,277319.30000019,2024-03-04T11:53:47Z,277335,Kreativität,ubunifu,d,mratibu,mwendelezo,makubaliano,NA,NA,NA,NULL,NA,NA,NA,NA,NA,NA,NA,NA,NA,NA,NA,NA,NA,NA,NA,NA,NA,NA,NA
ec0b5,Deep Question,html.Page,1_14_0_0,NA,NA,form submission,34208.599999904996,277319.4000001,277318.3,277335,311543.5999999,311543.80000019,2024-03-04T11:54:21Z,311568.4,Prüfung,mtihani,d,mkulima,mtizamo,ufumbuzi,kuteng,NA,NA,NULL,NA,NA,NA,NA,NA,NA,NA,NA,NA,NA,NA,NA,NA,NA,NA,NA,NA,NA,NA
ec0b5,Save data screen,canvas.Screen,1_14_0_1,NA,NA,timeout,500.09999999998,311545.30000019,311551.8,311568.4,312051.7,312052.4000001,2024-03-04T11:54:21Z,312068.5,Prüfung,mtihani,d,mkulima,mtizamo,ufumbuzi,NA,NA,0,NULL,NA,NA,NA,NA,NA,NA,NA,NA,NA,NA,NA,NA,NA,NA,NA,NA,NA,NA,NA
ec0b5,deep,flow.Sequence,1_14_0,NA,NA,completion,34716.7,277319.4000001,277318.3,277335,312051.7,312052.5999999,2024-03-04T11:54:21Z,312068.5,Prüfung,mtihani,d,mkulima,mtizamo,ufumbuzi,NA,NA,NA,NULL,NA,NA,NA,NA,NA,NA,NA,NA,NA,NA,NA,NA,NA,NA,NA,NA,NA,NA,NA
ec0b5,task,flow.Sequence,1_14,NA,NA,completion,34716.7,277319.4000001,277318.3,277335,312051.7,312052.80000019,2024-03-04T11:54:21Z,312068.5,Prüfung,mtihani,d,mkulima,mtizamo,ufumbuzi,NA,NA,NA,NULL,NA,NA,NA,NA,NA,NA,NA,NA,NA,NA,NA,NA,NA,NA,NA,NA,NA,NA,NA
ec0b5,Deep Question,html.Page,1_15_0_0,NA,NA,form submission,21829.199999809,312052.9000001,312051.7,312068.5,333897.69999981,333897.80000019,2024-03-04T11:54:43Z,333901.6,Verzögerung,kuchelewa,s,mwakilishi,mwanauchumi,jaribio,kutengi,NA,NA,NULL,NA,NA,NA,NA,NA,NA,NA,NA,NA,NA,NA,NA,NA,NA,NA,NA,NA,NA,NA
ec0b5,Save data screen,canvas.Screen,1_15_0_1,NA,NA,timeout,500,333899.4000001,333884.964,333901.6,334384.9,334385.5999999,2024-03-04T11:54:44Z,334401.6,Verzögerung,kuchelewa,s,mwakilishi,mwanauchumi,jaribio,NA,NA,0,NULL,NA,NA,NA,NA,NA,NA,NA,NA,NA,NA,NA,NA,NA,NA,NA,NA,NA,NA,NA
ec0b5,deep,flow.Sequence,1_15_0,NA,NA,completion,22316.4,312052.9000001,312051.7,312068.5,334384.9,334385.9000001,2024-03-04T11:54:44Z,334401.6,Verzögerung,kuchelewa,s,mwakilishi,mwanauchumi,jaribio,NA,NA,NA,NULL,NA,NA,NA,NA,NA,NA,NA,NA,NA,NA,NA,NA,NA,NA,NA,NA,NA,NA,NA
ec0b5,task,flow.Sequence,1_15,NA,NA,completion,22316.4,312052.9000001,312051.7,312068.5,334384.9,334386,2024-03-04T11:54:44Z,334401.6,Verzögerung,kuchelewa,s,mwakilishi,mwanauchumi,jaribio,NA,NA,NA,NULL,NA,NA,NA,NA,NA,NA,NA,NA,NA,NA,NA,NA,NA,NA,NA,NA,NA,NA,NA
ec0b5,retrieval block 1 (cued recall),flow.Loop,1,NA,NA,completion,329649.6,4723.5999999046,4718.73,4735.3,334384.9,334386.19999981,2024-03-04T11:54:44Z,334401.6,NA,NA,NA,NA,NA,NA,NA,NA,NA,NULL,NA,NA,NA,NA,NA,NA,NA,NA,NA,NA,NA,NA,NA,NA,NA,NA,NA,NA,NA
ec0b5,Shallow Question,html.Page,2_0_0_0,NA,NA,form submission,24909.999999905,334386.5,334384.9,334401.6,359311.5999999,359311.80000019,2024-03-04T11:55:09Z,359318.378,Körper,kiwiliwili,s,mapambano,mpatanishi,kiolezo,mapambano,NA,NA,"c(""distractor1"", ""distractor2"", ""distractor3"")",NA,NA,NA,NA,NA,NA,NA,NA,NA,NA,NA,NA,NA,NA,NA,NA,NA,NA,NA
ec0b5,Save data screen,canvas.Screen,2_0_0_1,NA,NA,timeout,499.92199999996,359313.4000001,359318.378,359318.378,359801.7,359802.5,2024-03-04T11:55:09Z,359818.3,Körper,kiwiliwili,s,mapambano,mpatanishi,kiolezo,NA,NA,0,"c(""distractor1"", ""distractor2"", ""distractor3"")",NA,NA,NA,NA,NA,NA,NA,NA,NA,NA,NA,NA,NA,NA,NA,NA,NA,NA,NA
ec0b5,shallow,flow.Sequence,2_0_0,NA,NA,completion,25400.1,334386.4000001,334384.9,334401.6,359801.7,359802.80000019,2024-03-04T11:55:09Z,359818.3,Körper,kiwiliwili,s,mapambano,mpatanishi,kiolezo,NA,NA,NA,"c(""distractor1"", ""distractor2"", ""distractor3"")",NA,NA,NA,NA,NA,NA,NA,NA,NA,NA,NA,NA,NA,NA,NA,NA,NA,NA,NA
ec0b5,task,flow.Sequence,2_0,NA,NA,completion,25400.1,334386.4000001,334384.9,334401.6,359801.7,359802.9000001,2024-03-04T11:55:09Z,359818.3,Körper,kiwiliwili,s,mapambano,mpatanishi,kiolezo,NA,NA,NA,"c(""distractor1"", ""distractor2"", ""distractor3"")",NA,NA,NA,NA,NA,NA,NA,NA,NA,NA,NA,NA,NA,NA,NA,NA,NA,NA,NA
ec0b5,Shallow Question,html.Page,2_1_0_0,NA,NA,form submission,15091.299999905,359803.19999981,359801.7,359818.3,374909.5999999,374909.80000019,2024-03-04T11:55:24Z,374935,Kontrolle,kudhibiti,s,mbinguni,kufunga,utegemezi,kudhibiti,NA,NA,"c(""distractor1"", ""distractor2"", ""distractor3"")",NA,NA,NA,NA,NA,NA,NA,NA,NA,NA,NA,NA,NA,NA,NA,NA,NA,NA,NA
ec0b5,Save data screen,canvas.Screen,2_1_0_1,NA,NA,timeout,499.90000000002,374911.4000001,374918.4,374935,375418.2,375419.4000001,2024-03-04T11:55:25Z,375434.9,Kontrolle,kudhibiti,s,mbinguni,kufunga,utegemezi,NA,NA,1,"c(""distractor1"", ""distractor2"", ""distractor3"")",NA,NA,NA,NA,NA,NA,NA,NA,NA,NA,NA,NA,NA,NA,NA,NA,NA,NA,NA
ec0b5,shallow,flow.Sequence,2_1_0,NA,NA,completion,15599.9,359803.0999999,359801.7,359818.3,375418.2,375419.5999999,2024-03-04T11:55:25Z,375434.9,Kontrolle,kudhibiti,s,mbinguni,kufunga,utegemezi,NA,NA,NA,"c(""distractor1"", ""distractor2"", ""distractor3"")",NA,NA,NA,NA,NA,NA,NA,NA,NA,NA,NA,NA,NA,NA,NA,NA,NA,NA,NA
ec0b5,task,flow.Sequence,2_1,NA,NA,completion,15599.9,359803.0999999,359801.7,359818.3,375418.2,375419.80000019,2024-03-04T11:55:25Z,375434.9,Kontrolle,kudhibiti,s,mbinguni,kufunga,utegemezi,NA,NA,NA,"c(""distractor1"", ""distractor2"", ""distractor3"")",NA,NA,NA,NA,NA,NA,NA,NA,NA,NA,NA,NA,NA,NA,NA,NA,NA,NA,NA
ec0b5,Shallow Question,html.Page,2_2_0_0,NA,NA,form submission,8071.6,375419.9000001,375418.2,375434.9,383506.5,383506.69999981,2024-03-04T11:55:33Z,383518.3,Gefährdung,kuhatarisha,s,uchokozi,udhaifu,makorowezo,kuhatarisha,NA,NA,"c(""distractor1"", ""distractor2"", ""distractor3"")",NA,NA,NA,NA,NA,NA,NA,NA,NA,NA,NA,NA,NA,NA,NA,NA,NA,NA,NA
ec0b5,Save data screen,canvas.Screen,2_2_0_1,NA,NA,timeout,500,383508.30000019,383501.752,383518.3,384001.5,384002.4000001,2024-03-04T11:55:33Z,384018.3,Gefährdung,kuhatarisha,s,uchokozi,udhaifu,makorowezo,NA,NA,1,"c(""distractor1"", ""distractor2"", ""distractor3"")",NA,NA,NA,NA,NA,NA,NA,NA,NA,NA,NA,NA,NA,NA,NA,NA,NA,NA,NA
ec0b5,shallow,flow.Sequence,2_2_0,NA,NA,completion,8566.6,375419.9000001,375418.2,375434.9,384001.5,384002.69999981,2024-03-04T11:55:33Z,384018.3,Gefährdung,kuhatarisha,s,uchokozi,udhaifu,makorowezo,NA,NA,NA,"c(""distractor1"", ""distractor2"", ""distractor3"")",NA,NA,NA,NA,NA,NA,NA,NA,NA,NA,NA,NA,NA,NA,NA,NA,NA,NA,NA
ec0b5,task,flow.Sequence,2_2,NA,NA,completion,8566.6,375419.9000001,375418.2,375434.9,384001.5,384002.69999981,2024-03-04T11:55:33Z,384018.3,Gefährdung,kuhatarisha,s,uchokozi,udhaifu,makorowezo,NA,NA,NA,"c(""distractor1"", ""distractor2"", ""distractor3"")",NA,NA,NA,NA,NA,NA,NA,NA,NA,NA,NA,NA,NA,NA,NA,NA,NA,NA,NA
ec0b5,Shallow Question,html.Page,2_3_0_0,NA,NA,form submission,15259.500000191,384003,384001.5,384018.3,399277.80000019,399278,2024-03-04T11:55:48Z,399301.7,Übersicht,kilindo,s,mgusano,chipukizi,kulinganisha,mgusano,NA,NA,"c(""distractor1"", ""distractor2"", ""distractor3"")",NA,NA,NA,NA,NA,NA,NA,NA,NA,NA,NA,NA,NA,NA,NA,NA,NA,NA,NA
ec0b5,Save data screen,canvas.Screen,2_3_0_1,NA,NA,timeout,500,399279.5,399285.1,399301.7,399784.9,399785.69999981,2024-03-04T11:55:49Z,399801.7,Übersicht,kilindo,s,mgusano,chipukizi,kulinganisha,NA,NA,0,"c(""distractor1"", ""distractor2"", ""distractor3"")",NA,NA,NA,NA,NA,NA,NA,NA,NA,NA,NA,NA,NA,NA,NA,NA,NA,NA,NA
ec0b5,shallow,flow.Sequence,2_3_0,NA,NA,completion,15766.6,384002.9000001,384001.5,384018.3,399784.9,399785.9000001,2024-03-04T11:55:49Z,399801.7,Übersicht,kilindo,s,mgusano,chipukizi,kulinganisha,NA,NA,NA,"c(""distractor1"", ""distractor2"", ""distractor3"")",NA,NA,NA,NA,NA,NA,NA,NA,NA,NA,NA,NA,NA,NA,NA,NA,NA,NA,NA
ec0b5,task,flow.Sequence,2_3,NA,NA,completion,15766.6,384002.9000001,384001.5,384018.3,399784.9,399786.0999999,2024-03-04T11:55:49Z,399801.7,Übersicht,kilindo,s,mgusano,chipukizi,kulinganisha,NA,NA,NA,"c(""distractor1"", ""distractor2"", ""distractor3"")",NA,NA,NA,NA,NA,NA,NA,NA,NA,NA,NA,NA,NA,NA,NA,NA,NA,NA,NA
ec0b5,Shallow Question,html.Page,2_4_0_0,NA,NA,form submission,8172.7000000954,399786.19999981,399784.9,399801.7,407974.4000001,407974.69999981,2024-03-04T11:55:57Z,407984.9,Kanzler,diwani,s,rasilmali,mahitaji,maabudu,mahitaji,NA,NA,"c(""distractor1"", ""distractor2"", ""distractor3"")",NA,NA,NA,NA,NA,NA,NA,NA,NA,NA,NA,NA,NA,NA,NA,NA,NA,NA,NA
ec0b5,Save data screen,canvas.Screen,2_4_0_1,NA,NA,timeout,500,407976.19999981,407968.354,407984.9,408468.3,408469.19999981,2024-03-04T11:55:58Z,408484.9,Kanzler,diwani,s,rasilmali,mahitaji,maabudu,NA,NA,0,"c(""distractor1"", ""distractor2"", ""distractor3"")",NA,NA,NA,NA,NA,NA,NA,NA,NA,NA,NA,NA,NA,NA,NA,NA,NA,NA,NA
ec0b5,shallow,flow.Sequence,2_4_0,NA,NA,completion,8666.6,399786.19999981,399784.9,399801.7,408468.3,408469.5,2024-03-04T11:55:58Z,408484.9,Kanzler,diwani,s,rasilmali,mahitaji,maabudu,NA,NA,NA,"c(""distractor1"", ""distractor2"", ""distractor3"")",NA,NA,NA,NA,NA,NA,NA,NA,NA,NA,NA,NA,NA,NA,NA,NA,NA,NA,NA
ec0b5,task,flow.Sequence,2_4,NA,NA,completion,8666.6,399786.0999999,399784.9,399801.7,408468.3,408469.5999999,2024-03-04T11:55:58Z,408484.9,Kanzler,diwani,s,rasilmali,mahitaji,maabudu,NA,NA,NA,"c(""distractor1"", ""distractor2"", ""distractor3"")",NA,NA,NA,NA,NA,NA,NA,NA,NA,NA,NA,NA,NA,NA,NA,NA,NA,NA,NA
ec0b5,Shallow Question,html.Page,2_5_0_0,NA,NA,form submission,7259.5000000953,408469.80000019,408468.3,408484.9,415744.4000001,415744.69999981,2024-03-04T11:56:05Z,415751.7,System,maongozi,d,chokochoko,nuksani,mitaani,maongozi,NA,NA,"c(""distractor1"", ""distractor2"", ""distractor3"")",NA,NA,NA,NA,NA,NA,NA,NA,NA,NA,NA,NA,NA,NA,NA,NA,NA,NA,NA
ec0b5,Save data screen,canvas.Screen,2_5_0_1,NA,NA,timeout,500,415746.19999981,415735.016,415751.7,416234.9,416235.80000019,2024-03-04T11:56:05Z,416251.7,System,maongozi,d,chokochoko,nuksani,mitaani,NA,NA,1,"c(""distractor1"", ""distractor2"", ""distractor3"")",NA,NA,NA,NA,NA,NA,NA,NA,NA,NA,NA,NA,NA,NA,NA,NA,NA,NA,NA
ec0b5,shallow,flow.Sequence,2_5_0,NA,NA,completion,7750,408469.69999981,408468.3,408484.9,416234.9,416236,2024-03-04T11:56:05Z,416251.7,System,maongozi,d,chokochoko,nuksani,mitaani,NA,NA,NA,"c(""distractor1"", ""distractor2"", ""distractor3"")",NA,NA,NA,NA,NA,NA,NA,NA,NA,NA,NA,NA,NA,NA,NA,NA,NA,NA,NA
ec0b5,task,flow.Sequence,2_5,NA,NA,completion,7750,408469.69999981,408468.3,408484.9,416234.9,416236.0999999,2024-03-04T11:56:05Z,416251.7,System,maongozi,d,chokochoko,nuksani,mitaani,NA,NA,NA,"c(""distractor1"", ""distractor2"", ""distractor3"")",NA,NA,NA,NA,NA,NA,NA,NA,NA,NA,NA,NA,NA,NA,NA,NA,NA,NA,NA
ec0b5,Shallow Question,html.Page,2_6_0_0,NA,NA,form submission,13519.600000191,416236.30000019,416234.9,416251.7,429771.30000019,429771.5,2024-03-04T11:56:19Z,429784.9,Kultur,utamaduni,s,shetani,gerezani,mazingira,utamaduni,NA,NA,"c(""distractor1"", ""distractor2"", ""distractor3"")",NA,NA,NA,NA,NA,NA,NA,NA,NA,NA,NA,NA,NA,NA,NA,NA,NA,NA,NA
ec0b5,Save data screen,canvas.Screen,2_6_0_1,NA,NA,timeout,500.09999999998,429773.0999999,429768.36,429784.9,430268.3,430269.0999999,2024-03-04T11:56:19Z,430285,Kultur,utamaduni,s,shetani,gerezani,mazingira,NA,NA,1,"c(""distractor1"", ""distractor2"", ""distractor3"")",NA,NA,NA,NA,NA,NA,NA,NA,NA,NA,NA,NA,NA,NA,NA,NA,NA,NA,NA
ec0b5,shallow,flow.Sequence,2_6_0,NA,NA,completion,14016.6,416236.19999981,416234.9,416251.7,430268.3,430269.30000019,2024-03-04T11:56:19Z,430285,Kultur,utamaduni,s,shetani,gerezani,mazingira,NA,NA,NA,"c(""distractor1"", ""distractor2"", ""distractor3"")",NA,NA,NA,NA,NA,NA,NA,NA,NA,NA,NA,NA,NA,NA,NA,NA,NA,NA,NA
ec0b5,task,flow.Sequence,2_6,NA,NA,completion,14016.6,416236.19999981,416234.9,416251.7,430268.3,430269.5,2024-03-04T11:56:19Z,430285,Kultur,utamaduni,s,shetani,gerezani,mazingira,NA,NA,NA,"c(""distractor1"", ""distractor2"", ""distractor3"")",NA,NA,NA,NA,NA,NA,NA,NA,NA,NA,NA,NA,NA,NA,NA,NA,NA,NA,NA
ec0b5,Shallow Question,html.Page,2_7_0_0,NA,NA,form submission,13152.400000095,430269.69999981,430268.3,430285,443437.4000001,443437.5999999,2024-03-04T11:56:33Z,443451.7,Angreifer,mshambulizi,d,kitengo,tasinia,usafirishaji,kitengo,NA,NA,"c(""distractor1"", ""distractor2"", ""distractor3"")",NA,NA,NA,NA,NA,NA,NA,NA,NA,NA,NA,NA,NA,NA,NA,NA,NA,NA,NA
ec0b5,Save data screen,canvas.Screen,2_7_0_1,NA,NA,timeout,499.89999999997,443439.19999981,443435.02,443451.7,443935,443935.80000019,2024-03-04T11:56:33Z,443951.6,Angreifer,mshambulizi,d,kitengo,tasinia,usafirishaji,NA,NA,0,"c(""distractor1"", ""distractor2"", ""distractor3"")",NA,NA,NA,NA,NA,NA,NA,NA,NA,NA,NA,NA,NA,NA,NA,NA,NA,NA,NA
ec0b5,shallow,flow.Sequence,2_7_0,NA,NA,completion,13650,430269.69999981,430268.3,430285,443935,443936.0999999,2024-03-04T11:56:33Z,443951.6,Angreifer,mshambulizi,d,kitengo,tasinia,usafirishaji,NA,NA,NA,"c(""distractor1"", ""distractor2"", ""distractor3"")",NA,NA,NA,NA,NA,NA,NA,NA,NA,NA,NA,NA,NA,NA,NA,NA,NA,NA,NA
ec0b5,task,flow.Sequence,2_7,NA,NA,completion,13650,430269.5999999,430268.3,430285,443935,443936.19999981,2024-03-04T11:56:33Z,443951.6,Angreifer,mshambulizi,d,kitengo,tasinia,usafirishaji,NA,NA,NA,"c(""distractor1"", ""distractor2"", ""distractor3"")",NA,NA,NA,NA,NA,NA,NA,NA,NA,NA,NA,NA,NA,NA,NA,NA,NA,NA,NA
ec0b5,Shallow Question,html.Page,2_8_0_0,NA,NA,form submission,7495.8000000954,443936.30000019,443935,443951.6,451447.4000001,451447.5999999,2024-03-04T11:56:41Z,451451.652,Aufstand,ugomaji,d,mazidio,msingi,kujieleza,ugomaji,NA,NA,"c(""distractor1"", ""distractor2"", ""distractor3"")",NA,NA,NA,NA,NA,NA,NA,NA,NA,NA,NA,NA,NA,NA,NA,NA,NA,NA,NA
ec0b5,Save data screen,canvas.Screen,2_8_0_1,NA,NA,timeout,499.94799999997,451449,451451.652,451451.652,451934.9,451935.5999999,2024-03-04T11:56:41Z,451951.6,Aufstand,ugomaji,d,mazidio,msingi,kujieleza,NA,NA,1,"c(""distractor1"", ""distractor2"", ""distractor3"")",NA,NA,NA,NA,NA,NA,NA,NA,NA,NA,NA,NA,NA,NA,NA,NA,NA,NA,NA
ec0b5,shallow,flow.Sequence,2_8_0,NA,NA,completion,7983.3,443936.30000019,443935,443951.6,451934.9,451935.9000001,2024-03-04T11:56:41Z,451951.6,Aufstand,ugomaji,d,mazidio,msingi,kujieleza,NA,NA,NA,"c(""distractor1"", ""distractor2"", ""distractor3"")",NA,NA,NA,NA,NA,NA,NA,NA,NA,NA,NA,NA,NA,NA,NA,NA,NA,NA,NA
ec0b5,task,flow.Sequence,2_8,NA,NA,completion,7983.3,443936.30000019,443935,443951.6,451934.9,451936.0999999,2024-03-04T11:56:41Z,451951.6,Aufstand,ugomaji,d,mazidio,msingi,kujieleza,NA,NA,NA,"c(""distractor1"", ""distractor2"", ""distractor3"")",NA,NA,NA,NA,NA,NA,NA,NA,NA,NA,NA,NA,NA,NA,NA,NA,NA,NA,NA
ec0b5,Shallow Question,html.Page,2_9_0_0,NA,NA,form submission,9167.7000001908,451936.30000019,451934.9,451951.6,461119.30000019,461119.4000001,2024-03-04T11:56:50Z,461135.1,Kreativität,ubunifu,d,mratibu,mwendelezo,makubaliano,ubunifu,NA,NA,"c(""distractor1"", ""distractor2"", ""distractor3"")",NA,NA,NA,NA,NA,NA,NA,NA,NA,NA,NA,NA,NA,NA,NA,NA,NA,NA,NA
ec0b5,Save data screen,canvas.Screen,2_9_0_1,NA,NA,timeout,499.90000000002,461121.0999999,461118.354,461135.1,461618.2,461619.0999999,2024-03-04T11:56:51Z,461635,Kreativität,ubunifu,d,mratibu,mwendelezo,makubaliano,NA,NA,1,"c(""distractor1"", ""distractor2"", ""distractor3"")",NA,NA,NA,NA,NA,NA,NA,NA,NA,NA,NA,NA,NA,NA,NA,NA,NA,NA,NA
ec0b5,shallow,flow.Sequence,2_9_0,NA,NA,completion,9666.6,451936.30000019,451934.9,451951.6,461618.2,461619.30000019,2024-03-04T11:56:51Z,461635,Kreativität,ubunifu,d,mratibu,mwendelezo,makubaliano,NA,NA,NA,"c(""distractor1"", ""distractor2"", ""distractor3"")",NA,NA,NA,NA,NA,NA,NA,NA,NA,NA,NA,NA,NA,NA,NA,NA,NA,NA,NA
ec0b5,task,flow.Sequence,2_9,NA,NA,completion,9666.6,451936.19999981,451934.9,451951.6,461618.2,461619.5,2024-03-04T11:56:51Z,461635,Kreativität,ubunifu,d,mratibu,mwendelezo,makubaliano,NA,NA,NA,"c(""distractor1"", ""distractor2"", ""distractor3"")",NA,NA,NA,NA,NA,NA,NA,NA,NA,NA,NA,NA,NA,NA,NA,NA,NA,NA,NA
ec0b5,Shallow Question,html.Page,2_10_0_0,NA,NA,form submission,9237.4000000954,461619.5999999,461618.2,461635,470872.4000001,470872.5999999,2024-03-04T11:57:00Z,470884.9,Lawine,banguko,d,maambukizi,usuluhishi,chekechea,usuluhishi,NA,NA,"c(""distractor1"", ""distractor2"", ""distractor3"")",NA,NA,NA,NA,NA,NA,NA,NA,NA,NA,NA,NA,NA,NA,NA,NA,NA,NA,NA
ec0b5,Save data screen,canvas.Screen,2_10_0_1,NA,NA,timeout,500,470874.0999999,470868.322,470884.9,471368.3,471369.0999999,2024-03-04T11:57:01Z,471384.9,Lawine,banguko,d,maambukizi,usuluhishi,chekechea,NA,NA,0,"c(""distractor1"", ""distractor2"", ""distractor3"")",NA,NA,NA,NA,NA,NA,NA,NA,NA,NA,NA,NA,NA,NA,NA,NA,NA,NA,NA
ec0b5,shallow,flow.Sequence,2_10_0,NA,NA,completion,9733.3,461619.5999999,461618.2,461635,471368.3,471369.30000019,2024-03-04T11:57:01Z,471384.9,Lawine,banguko,d,maambukizi,usuluhishi,chekechea,NA,NA,NA,"c(""distractor1"", ""distractor2"", ""distractor3"")",NA,NA,NA,NA,NA,NA,NA,NA,NA,NA,NA,NA,NA,NA,NA,NA,NA,NA,NA
ec0b5,task,flow.Sequence,2_10,NA,NA,completion,9733.3,461619.5999999,461618.2,461635,471368.3,471369.5,2024-03-04T11:57:01Z,471384.9,Lawine,banguko,d,maambukizi,usuluhishi,chekechea,NA,NA,NA,"c(""distractor1"", ""distractor2"", ""distractor3"")",NA,NA,NA,NA,NA,NA,NA,NA,NA,NA,NA,NA,NA,NA,NA,NA,NA,NA,NA
ec0b5,Shallow Question,html.Page,2_11_0_0,NA,NA,form submission,16927.400000191,471369.5999999,471368.3,471384.9,488312.30000019,488312.5999999,2024-03-04T11:57:18Z,488318.1,Abrechnung,uhasibu,s,kusahihisha,mpambano,mashambulizi,uhasibu,NA,NA,"c(""distractor1"", ""distractor2"", ""distractor3"")",NA,NA,NA,NA,NA,NA,NA,NA,NA,NA,NA,NA,NA,NA,NA,NA,NA,NA,NA
ec0b5,Save data screen,canvas.Screen,2_11_0_1,NA,NA,timeout,500.10000000003,488314.0999999,488301.594,488318.1,488801.5,488802.4000001,2024-03-04T11:57:18Z,488818.2,Abrechnung,uhasibu,s,kusahihisha,mpambano,mashambulizi,NA,NA,1,"c(""distractor1"", ""distractor2"", ""distractor3"")",NA,NA,NA,NA,NA,NA,NA,NA,NA,NA,NA,NA,NA,NA,NA,NA,NA,NA,NA
ec0b5,shallow,flow.Sequence,2_11_0,NA,NA,completion,17416.6,471369.5999999,471368.3,471384.9,488801.5,488802.5999999,2024-03-04T11:57:18Z,488818.2,Abrechnung,uhasibu,s,kusahihisha,mpambano,mashambulizi,NA,NA,NA,"c(""distractor1"", ""distractor2"", ""distractor3"")",NA,NA,NA,NA,NA,NA,NA,NA,NA,NA,NA,NA,NA,NA,NA,NA,NA,NA,NA
ec0b5,task,flow.Sequence,2_11,NA,NA,completion,17416.6,471369.5999999,471368.3,471384.9,488801.5,488802.80000019,2024-03-04T11:57:18Z,488818.2,Abrechnung,uhasibu,s,kusahihisha,mpambano,mashambulizi,NA,NA,NA,"c(""distractor1"", ""distractor2"", ""distractor3"")",NA,NA,NA,NA,NA,NA,NA,NA,NA,NA,NA,NA,NA,NA,NA,NA,NA,NA,NA
ec0b5,Shallow Question,html.Page,2_12_0_0,NA,NA,form submission,12606.100000191,488803,488801.5,488818.2,501424.30000019,501424.5,2024-03-04T11:57:31Z,501451.6,Prüfung,mtihani,d,mkulima,mtizamo,ufumbuzi,ufumbuzi,NA,NA,"c(""distractor1"", ""distractor2"", ""distractor3"")",NA,NA,NA,NA,NA,NA,NA,NA,NA,NA,NA,NA,NA,NA,NA,NA,NA,NA,NA
ec0b5,Save data screen,canvas.Screen,2_12_0_1,NA,NA,timeout,500,501426.0999999,501434.95,501451.6,501934.8,501935.5,2024-03-04T11:57:31Z,501951.6,Prüfung,mtihani,d,mkulima,mtizamo,ufumbuzi,NA,NA,0,"c(""distractor1"", ""distractor2"", ""distractor3"")",NA,NA,NA,NA,NA,NA,NA,NA,NA,NA,NA,NA,NA,NA,NA,NA,NA,NA,NA
ec0b5,shallow,flow.Sequence,2_12_0,NA,NA,completion,13116.6,488803,488801.5,488818.2,501934.8,501935.69999981,2024-03-04T11:57:31Z,501951.6,Prüfung,mtihani,d,mkulima,mtizamo,ufumbuzi,NA,NA,NA,"c(""distractor1"", ""distractor2"", ""distractor3"")",NA,NA,NA,NA,NA,NA,NA,NA,NA,NA,NA,NA,NA,NA,NA,NA,NA,NA,NA
ec0b5,task,flow.Sequence,2_12,NA,NA,completion,13116.6,488802.80000019,488801.5,488818.2,501934.8,501935.9000001,2024-03-04T11:57:31Z,501951.6,Prüfung,mtihani,d,mkulima,mtizamo,ufumbuzi,NA,NA,NA,"c(""distractor1"", ""distractor2"", ""distractor3"")",NA,NA,NA,NA,NA,NA,NA,NA,NA,NA,NA,NA,NA,NA,NA,NA,NA,NA,NA
ec0b5,Shallow Question,html.Page,2_13_0_0,NA,NA,form submission,16985.800000095,501936.0999999,501934.8,501951.6,518937.4000001,518937.5999999,2024-03-04T11:57:48Z,518968.2,Verzögerung,kuchelewa,s,mwakilishi,mwanauchumi,jaribio,kuchelewa,NA,NA,"c(""distractor1"", ""distractor2"", ""distractor3"")",NA,NA,NA,NA,NA,NA,NA,NA,NA,NA,NA,NA,NA,NA,NA,NA,NA,NA,NA
ec0b5,Save data screen,canvas.Screen,2_13_0_1,NA,NA,timeout,499.89999999997,518939.19999981,518951.6,518968.2,519451.4,519452.30000019,2024-03-04T11:57:49Z,519468.1,Verzögerung,kuchelewa,s,mwakilishi,mwanauchumi,jaribio,NA,NA,1,"c(""distractor1"", ""distractor2"", ""distractor3"")",NA,NA,NA,NA,NA,NA,NA,NA,NA,NA,NA,NA,NA,NA,NA,NA,NA,NA,NA
ec0b5,shallow,flow.Sequence,2_13_0,NA,NA,completion,17499.8,501936.0999999,501934.8,501951.6,519451.4,519452.5,2024-03-04T11:57:49Z,519468.1,Verzögerung,kuchelewa,s,mwakilishi,mwanauchumi,jaribio,NA,NA,NA,"c(""distractor1"", ""distractor2"", ""distractor3"")",NA,NA,NA,NA,NA,NA,NA,NA,NA,NA,NA,NA,NA,NA,NA,NA,NA,NA,NA
ec0b5,task,flow.Sequence,2_13,NA,NA,completion,17499.8,501936,501934.8,501951.6,519451.4,519452.5999999,2024-03-04T11:57:49Z,519468.1,Verzögerung,kuchelewa,s,mwakilishi,mwanauchumi,jaribio,NA,NA,NA,"c(""distractor1"", ""distractor2"", ""distractor3"")",NA,NA,NA,NA,NA,NA,NA,NA,NA,NA,NA,NA,NA,NA,NA,NA,NA,NA,NA
ec0b5,Shallow Question,html.Page,2_14_0_0,NA,NA,form submission,9308.0999998093,519452.80000019,519451.4,519468.1,528776.19999981,528776.4000001,2024-03-04T11:57:58Z,528785,Sänger,mwimbaji,d,msichana,shughuli,mshirika,mwimbaji,NA,NA,"c(""distractor1"", ""distractor2"", ""distractor3"")",NA,NA,NA,NA,NA,NA,NA,NA,NA,NA,NA,NA,NA,NA,NA,NA,NA,NA,NA
ec0b5,Save data screen,canvas.Screen,2_14_0_1,NA,NA,timeout,499.80000000005,528777.9000001,528768.188,528785,529268.2,529268.9000001,2024-03-04T11:57:58Z,529284.8,Sänger,mwimbaji,d,msichana,shughuli,mshirika,NA,NA,1,"c(""distractor1"", ""distractor2"", ""distractor3"")",NA,NA,NA,NA,NA,NA,NA,NA,NA,NA,NA,NA,NA,NA,NA,NA,NA,NA,NA
ec0b5,shallow,flow.Sequence,2_14_0,NA,NA,completion,9800.1,519452.80000019,519451.4,519468.1,529268.2,529269.19999981,2024-03-04T11:57:58Z,529284.8,Sänger,mwimbaji,d,msichana,shughuli,mshirika,NA,NA,NA,"c(""distractor1"", ""distractor2"", ""distractor3"")",NA,NA,NA,NA,NA,NA,NA,NA,NA,NA,NA,NA,NA,NA,NA,NA,NA,NA,NA
ec0b5,task,flow.Sequence,2_14,NA,NA,completion,9800.1,519452.80000019,519451.4,519468.1,529268.2,529269.4000001,2024-03-04T11:57:58Z,529284.8,Sänger,mwimbaji,d,msichana,shughuli,mshirika,NA,NA,NA,"c(""distractor1"", ""distractor2"", ""distractor3"")",NA,NA,NA,NA,NA,NA,NA,NA,NA,NA,NA,NA,NA,NA,NA,NA,NA,NA,NA
ec0b5,Shallow Question,html.Page,2_15_0_0,NA,NA,form submission,9639.5000001907,529269.5,529268.2,529284.8,538924.30000019,538924.5,2024-03-04T11:58:08Z,538934.7,Können,unaweza,d,kiongozi,bustani,mienendo,unaweza,NA,NA,"c(""distractor1"", ""distractor2"", ""distractor3"")",NA,NA,NA,NA,NA,NA,NA,NA,NA,NA,NA,NA,NA,NA,NA,NA,NA,NA,NA
ec0b5,Save data screen,canvas.Screen,2_15_0_1,NA,NA,timeout,500.10000000009,538926,538918.3,538934.7,539418.1,539419,2024-03-04T11:58:09Z,539434.8,Können,unaweza,d,kiongozi,bustani,mienendo,NA,NA,1,"c(""distractor1"", ""distractor2"", ""distractor3"")",NA,NA,NA,NA,NA,NA,NA,NA,NA,NA,NA,NA,NA,NA,NA,NA,NA,NA,NA
ec0b5,shallow,flow.Sequence,2_15_0,NA,NA,completion,10133.3,529269.5,529268.2,529284.8,539418.1,539419.19999981,2024-03-04T11:58:09Z,539434.8,Können,unaweza,d,kiongozi,bustani,mienendo,NA,NA,NA,"c(""distractor1"", ""distractor2"", ""distractor3"")",NA,NA,NA,NA,NA,NA,NA,NA,NA,NA,NA,NA,NA,NA,NA,NA,NA,NA,NA
ec0b5,task,flow.Sequence,2_15,NA,NA,completion,10133.3,529269.4000001,529268.2,529284.8,539418.1,539419.4000001,2024-03-04T11:58:09Z,539434.8,Können,unaweza,d,kiongozi,bustani,mienendo,NA,NA,NA,"c(""distractor1"", ""distractor2"", ""distractor3"")",NA,NA,NA,NA,NA,NA,NA,NA,NA,NA,NA,NA,NA,NA,NA,NA,NA,NA,NA
ec0b5,retrieval block 2 (multiple choice),flow.Loop,2,NA,NA,completion,205016.5,334386.4000001,334384.9,334401.6,539418.1,539419.5999999,2024-03-04T11:58:09Z,539434.8,NA,NA,NA,NA,NA,NA,NA,NA,NA,"c(""distractor1"", ""distractor2"", ""distractor3"")",NA,NA,NA,NA,NA,NA,NA,NA,NA,NA,NA,NA,NA,NA,NA,NA,NA,NA,NA
ec0b5,End,canvas.Screen,3,NA,keypress(Space),response,3697.7,539419.69999981,539418.1,539434.8,543132.5,543136.30000019,2024-03-04T11:58:12Z,543134.848,NA,NA,NA,NA,NA,NA,NA,NA,NA,NULL,NA,NA,NA,NA,NA,NA,NA,NA,NA,NA,NA,NA,NA,NA,NA,NA,NA,NA,NA
ec0b5,root,flow.Sequence,NA,NA,NA,completion,542314,805.69999980927,318.5,818.5,543132.5,543137,2024-03-04T11:58:12Z,543134.848,NA,NA,NA,NA,NA,NA,NA,NA,NA,NULL,NA,NA,NA,NA,NA,NA,NA,NA,NA,NA,NA,NA,NA,NA,NA,NA,NA,NA,NA
