observation,sender,sender_type,sender_id,response,response_action,ended_on,duration,time_run,time_render,time_show,time_end,time_commit,timestamp,time_switch,distractors,german,swahili,enc,distractor1,distractor2,distractor3,response_2,x,correct,x_2,url_vp,url_sess,meta_labjs_version,meta_location,meta_user_agent,meta_platform,meta_language,meta_locale,meta_time_zone,meta_timezone_offset,meta_screen_width,meta_screen_height,meta_scroll_width,meta_scroll_height,meta_window_inner_width,meta_window_inner_height,meta_device_pixel_ratio,meta_labjs_build_flavor,meta_labjs_build_commit
aa4a0,Introduction general,canvas.Screen,0,weiter,keypress(q),response,101094.64,344,353.72,370.36,101465,101491,2023-10-18T08:20:38Z,101492.94,NULL,NA,NA,NA,NA,NA,NA,NA,NA,NA,NA,188,1,20.2.4,https://neurocog.fernuni.ch/studies/vweber/sliechti/encoding_immediate/index.html?vp=188&sess=1,Mozilla/5.0 (Windows NT 10.0; Win64; x64; rv:109.0) Gecko/20100101 Firefox/118.0,Win32,de,de-CH,Europe/Zurich,-120,1280,720,1280,587,1280,587,1.5,production,f5b4a49f956347addd546a832a3327688c2c0fef
aa4a0,Introduction practice,canvas.Screen,1_0,NA,keypress(Space),response,4801.06,101493,101492.54,101492.94,106294,106325,2023-10-18T08:20:42Z,106326.52,NULL,NA,NA,NA,NA,NA,NA,NA,NA,NA,NA,NA,NA,NA,NA,NA,NA,NA,NA,NA,NA,NA,NA,NA,NA,NA,NA,NA,NA,NA
aa4a0,Deep Question,html.Page,1_1_0_0_0,NA,NA,form submission,12318.48,106326,106326.1,106326.52,118645,118646,2023-10-18T08:20:55Z,118655.36,"c(""distractor1"", ""distractor2"", ""distractor3"")",Gesundheit,salama,d,NA,NA,NA,hi,NA,NA,NA,NA,NA,NA,NA,NA,NA,NA,NA,NA,NA,NA,NA,NA,NA,NA,NA,NA,NA,NA
aa4a0,"""Richtig""-Screen",canvas.Screen,1_1_0_0_1,NA,NA,skipped,NA,118653,NA,NA,118645,118653,2023-10-18T08:20:55Z,118655.36,"c(""distractor1"", ""distractor2"", ""distractor3"")",Gesundheit,salama,d,NA,NA,NA,NA,NA,NA,NA,NA,NA,NA,NA,NA,NA,NA,NA,NA,NA,NA,NA,NA,NA,NA,NA,NA,NA,NA
aa4a0,"""Falsch""-Screen",canvas.Screen,1_1_0_0_2,NA,NA,timeout,4999.36,118657,118643.96,118655.36,123638.04,123640,2023-10-18T08:21:00Z,123654.72,"c(""distractor1"", ""distractor2"", ""distractor3"")",Gesundheit,salama,d,NA,NA,NA,NA,NA,0,NA,NA,NA,NA,NA,NA,NA,NA,NA,NA,NA,NA,NA,NA,NA,NA,NA,NA,NA,NA
aa4a0,deep,flow.Sequence,1_1_0_0,NA,NA,completion,17311.52,106326,106326.1,106326.52,123638.04,123640,2023-10-18T08:21:00Z,123654.72,"c(""distractor1"", ""distractor2"", ""distractor3"")",Gesundheit,salama,d,NA,NA,NA,NA,NA,NA,NA,NA,NA,NA,NA,NA,NA,NA,NA,NA,NA,NA,NA,NA,NA,NA,NA,NA,NA,NA
aa4a0,shallow,flow.Sequence,1_1_0_1,NA,NA,skipped,NA,123641,NA,NA,123638.04,123643,2023-10-18T08:21:00Z,123654.72,"c(""distractor1"", ""distractor2"", ""distractor3"")",Gesundheit,salama,d,NA,NA,NA,NA,NA,NA,NA,NA,NA,NA,NA,NA,NA,NA,NA,NA,NA,NA,NA,NA,NA,NA,NA,NA,NA,NA
aa4a0,task,flow.Sequence,1_1_0,NA,NA,completion,17311.52,106326,106326.1,106326.52,123638.04,123643,2023-10-18T08:21:00Z,123654.72,"c(""distractor1"", ""distractor2"", ""distractor3"")",Gesundheit,salama,d,NA,NA,NA,NA,NA,NA,NA,NA,NA,NA,NA,NA,NA,NA,NA,NA,NA,NA,NA,NA,NA,NA,NA,NA,NA,NA
aa4a0,deep,flow.Sequence,1_1_1_0,NA,NA,skipped,NA,123644,NA,NA,123638.04,123644,2023-10-18T08:21:00Z,123654.72,"c(""distractor1"", ""distractor2"", ""distractor3"")",Kritik,lawama,s,dereva,nafasi,mawazo,NA,NA,NA,NA,NA,NA,NA,NA,NA,NA,NA,NA,NA,NA,NA,NA,NA,NA,NA,NA,NA,NA,NA
aa4a0,Shallow Question,html.Page,1_1_1_1_0,NA,NA,form submission,7723.28,123645,123638.04,123654.72,131378,131378,2023-10-18T08:21:08Z,131387.1,"c(""distractor1"", ""distractor2"", ""distractor3"")",Kritik,lawama,s,dereva,nafasi,mawazo,mawazo,NA,NA,NA,NA,NA,NA,NA,NA,NA,NA,NA,NA,NA,NA,NA,NA,NA,NA,NA,NA,NA,NA
aa4a0,"""Richtig""-Screen",canvas.Screen,1_1_1_1_1,NA,NA,skipped,NA,131385,NA,NA,131378,131386,2023-10-18T08:21:08Z,131387.1,"c(""distractor1"", ""distractor2"", ""distractor3"")",Kritik,lawama,s,dereva,nafasi,mawazo,NA,NA,NA,NA,NA,NA,NA,NA,NA,NA,NA,NA,NA,NA,NA,NA,NA,NA,NA,NA,NA,NA,NA
aa4a0,"""Falsch""-Screen",canvas.Screen,1_1_1_1_2,NA,NA,timeout,4999.32,131390,131371.88,131387.1,136369.76,136371,2023-10-18T08:21:13Z,136386.42,"c(""distractor1"", ""distractor2"", ""distractor3"")",Kritik,lawama,s,dereva,nafasi,mawazo,NA,NA,0,NA,NA,NA,NA,NA,NA,NA,NA,NA,NA,NA,NA,NA,NA,NA,NA,NA,NA,NA,NA
aa4a0,shallow,flow.Sequence,1_1_1_1,NA,NA,completion,12715.04,123645,123638.04,123654.72,136369.76,136372,2023-10-18T08:21:13Z,136386.42,"c(""distractor1"", ""distractor2"", ""distractor3"")",Kritik,lawama,s,dereva,nafasi,mawazo,NA,NA,NA,NA,NA,NA,NA,NA,NA,NA,NA,NA,NA,NA,NA,NA,NA,NA,NA,NA,NA,NA,NA
aa4a0,task,flow.Sequence,1_1_1,NA,NA,completion,12715.04,123644,123638.04,123654.72,136369.76,136372,2023-10-18T08:21:13Z,136386.42,"c(""distractor1"", ""distractor2"", ""distractor3"")",Kritik,lawama,s,dereva,nafasi,mawazo,NA,NA,NA,NA,NA,NA,NA,NA,NA,NA,NA,NA,NA,NA,NA,NA,NA,NA,NA,NA,NA,NA,NA
aa4a0,Deep Question,html.Page,1_1_2_0_0,NA,NA,form submission,7036.58,136373,136369.76,136386.42,143423,143424,2023-10-18T08:21:20Z,143422.38,"c(""distractor1"", ""distractor2"", ""distractor3"")",Qualität,mtindo,d,NA,NA,NA,hakuna,NA,NA,NA,NA,NA,NA,NA,NA,NA,NA,NA,NA,NA,NA,NA,NA,NA,NA,NA,NA,NA,NA
aa4a0,"""Richtig""-Screen",canvas.Screen,1_1_2_0_1,NA,NA,skipped,NA,143426,NA,NA,143423,143426,2023-10-18T08:21:20Z,143422.38,"c(""distractor1"", ""distractor2"", ""distractor3"")",Qualität,mtindo,d,NA,NA,NA,NA,NA,NA,NA,NA,NA,NA,NA,NA,NA,NA,NA,NA,NA,NA,NA,NA,NA,NA,NA,NA,NA,NA
aa4a0,"""Falsch""-Screen",canvas.Screen,1_1_2_0_2,NA,NA,timeout,4995.78,143430,143422.12,143422.38,148401.58,148403,2023-10-18T08:21:25Z,148418.16,"c(""distractor1"", ""distractor2"", ""distractor3"")",Qualität,mtindo,d,NA,NA,NA,NA,NA,0,NA,NA,NA,NA,NA,NA,NA,NA,NA,NA,NA,NA,NA,NA,NA,NA,NA,NA,NA,NA
aa4a0,deep,flow.Sequence,1_1_2_0,NA,NA,completion,12015.16,136373,136369.76,136386.42,148401.58,148403,2023-10-18T08:21:25Z,148418.16,"c(""distractor1"", ""distractor2"", ""distractor3"")",Qualität,mtindo,d,NA,NA,NA,NA,NA,NA,NA,NA,NA,NA,NA,NA,NA,NA,NA,NA,NA,NA,NA,NA,NA,NA,NA,NA,NA,NA
aa4a0,shallow,flow.Sequence,1_1_2_1,NA,NA,skipped,NA,148404,NA,NA,148401.58,148404,2023-10-18T08:21:25Z,148418.16,"c(""distractor1"", ""distractor2"", ""distractor3"")",Qualität,mtindo,d,NA,NA,NA,NA,NA,NA,NA,NA,NA,NA,NA,NA,NA,NA,NA,NA,NA,NA,NA,NA,NA,NA,NA,NA,NA,NA
aa4a0,task,flow.Sequence,1_1_2,NA,NA,completion,12015.16,136373,136369.76,136386.42,148401.58,148404,2023-10-18T08:21:25Z,148418.16,"c(""distractor1"", ""distractor2"", ""distractor3"")",Qualität,mtindo,d,NA,NA,NA,NA,NA,NA,NA,NA,NA,NA,NA,NA,NA,NA,NA,NA,NA,NA,NA,NA,NA,NA,NA,NA,NA,NA
aa4a0,deep,flow.Sequence,1_1_3_0,NA,NA,skipped,NA,148405,NA,NA,148401.58,148405,2023-10-18T08:21:25Z,148418.16,"c(""distractor1"", ""distractor2"", ""distractor3"")",Gegenwart,hadhara,s,katiba,jokofu,mikopo,NA,NA,NA,NA,NA,NA,NA,NA,NA,NA,NA,NA,NA,NA,NA,NA,NA,NA,NA,NA,NA,NA,NA
aa4a0,Shallow Question,html.Page,1_1_3_1_0,NA,NA,form submission,6963.84,148405,148401.58,148418.16,155382,155382,2023-10-18T08:21:32Z,155383.96,"c(""distractor1"", ""distractor2"", ""distractor3"")",Gegenwart,hadhara,s,katiba,jokofu,mikopo,jokofu,NA,NA,NA,NA,NA,NA,NA,NA,NA,NA,NA,NA,NA,NA,NA,NA,NA,NA,NA,NA,NA,NA
aa4a0,"""Richtig""-Screen",canvas.Screen,1_1_3_1_1,NA,NA,skipped,NA,155385,NA,NA,155382,155386,2023-10-18T08:21:32Z,155383.96,"c(""distractor1"", ""distractor2"", ""distractor3"")",Gegenwart,hadhara,s,katiba,jokofu,mikopo,NA,NA,NA,NA,NA,NA,NA,NA,NA,NA,NA,NA,NA,NA,NA,NA,NA,NA,NA,NA,NA,NA,NA
aa4a0,"""Falsch""-Screen",canvas.Screen,1_1_3_1_2,NA,NA,timeout,4999.4,155389,155381.04,155383.96,160366.68,160369,2023-10-18T08:21:37Z,160383.36,"c(""distractor1"", ""distractor2"", ""distractor3"")",Gegenwart,hadhara,s,katiba,jokofu,mikopo,NA,NA,0,NA,NA,NA,NA,NA,NA,NA,NA,NA,NA,NA,NA,NA,NA,NA,NA,NA,NA,NA,NA
aa4a0,shallow,flow.Sequence,1_1_3_1,NA,NA,completion,11948.52,148405,148401.58,148418.16,160366.68,160369,2023-10-18T08:21:37Z,160383.36,"c(""distractor1"", ""distractor2"", ""distractor3"")",Gegenwart,hadhara,s,katiba,jokofu,mikopo,NA,NA,NA,NA,NA,NA,NA,NA,NA,NA,NA,NA,NA,NA,NA,NA,NA,NA,NA,NA,NA,NA,NA
aa4a0,task,flow.Sequence,1_1_3,NA,NA,completion,11948.52,148405,148401.58,148418.16,160366.68,160370,2023-10-18T08:21:37Z,160383.36,"c(""distractor1"", ""distractor2"", ""distractor3"")",Gegenwart,hadhara,s,katiba,jokofu,mikopo,NA,NA,NA,NA,NA,NA,NA,NA,NA,NA,NA,NA,NA,NA,NA,NA,NA,NA,NA,NA,NA,NA,NA
aa4a0,Deep Question,html.Page,1_1_4_0_0,NA,NA,form submission,3857.64,160370,160366.68,160383.36,164241,164241,2023-10-18T08:21:40Z,164239.46,"c(""distractor1"", ""distractor2"", ""distractor3"")",Schatten,kivuli,d,NA,NA,NA,mn,NA,NA,NA,NA,NA,NA,NA,NA,NA,NA,NA,NA,NA,NA,NA,NA,NA,NA,NA,NA,NA,NA
aa4a0,"""Richtig""-Screen",canvas.Screen,1_1_4_0_1,NA,NA,skipped,NA,164243,NA,NA,164241,164243,2023-10-18T08:21:40Z,164239.46,"c(""distractor1"", ""distractor2"", ""distractor3"")",Schatten,kivuli,d,NA,NA,NA,NA,NA,NA,NA,NA,NA,NA,NA,NA,NA,NA,NA,NA,NA,NA,NA,NA,NA,NA,NA,NA,NA,NA
aa4a0,"""Falsch""-Screen",canvas.Screen,1_1_4_0_2,NA,NA,timeout,4992.68,164246,164239.06,164239.46,169215.58,169217,2023-10-18T08:21:45Z,169232.14,"c(""distractor1"", ""distractor2"", ""distractor3"")",Schatten,kivuli,d,NA,NA,NA,NA,NA,0,NA,NA,NA,NA,NA,NA,NA,NA,NA,NA,NA,NA,NA,NA,NA,NA,NA,NA,NA,NA
aa4a0,deep,flow.Sequence,1_1_4_0,NA,NA,completion,8832.22,160370,160366.68,160383.36,169215.58,169218,2023-10-18T08:21:45Z,169232.14,"c(""distractor1"", ""distractor2"", ""distractor3"")",Schatten,kivuli,d,NA,NA,NA,NA,NA,NA,NA,NA,NA,NA,NA,NA,NA,NA,NA,NA,NA,NA,NA,NA,NA,NA,NA,NA,NA,NA
aa4a0,shallow,flow.Sequence,1_1_4_1,NA,NA,skipped,NA,169218,NA,NA,169215.58,169218,2023-10-18T08:21:45Z,169232.14,"c(""distractor1"", ""distractor2"", ""distractor3"")",Schatten,kivuli,d,NA,NA,NA,NA,NA,NA,NA,NA,NA,NA,NA,NA,NA,NA,NA,NA,NA,NA,NA,NA,NA,NA,NA,NA,NA,NA
aa4a0,task,flow.Sequence,1_1_4,NA,NA,completion,8832.22,160370,160366.68,160383.36,169215.58,169219,2023-10-18T08:21:45Z,169232.14,"c(""distractor1"", ""distractor2"", ""distractor3"")",Schatten,kivuli,d,NA,NA,NA,NA,NA,NA,NA,NA,NA,NA,NA,NA,NA,NA,NA,NA,NA,NA,NA,NA,NA,NA,NA,NA,NA,NA
aa4a0,deep,flow.Sequence,1_1_5_0,NA,NA,skipped,NA,169219,NA,NA,169215.58,169219,2023-10-18T08:21:45Z,169232.14,"c(""distractor1"", ""distractor2"", ""distractor3"")",Rückhalt,msaada,s,muhula,auwali,kiwimbe,NA,NA,NA,NA,NA,NA,NA,NA,NA,NA,NA,NA,NA,NA,NA,NA,NA,NA,NA,NA,NA,NA,NA
aa4a0,Shallow Question,html.Page,1_1_5_1_0,NA,NA,form submission,4970.86,169220,169215.58,169232.14,174203,174203,2023-10-18T08:21:50Z,174214.9,"c(""distractor1"", ""distractor2"", ""distractor3"")",Rückhalt,msaada,s,muhula,auwali,kiwimbe,kiwimbe,NA,NA,NA,NA,NA,NA,NA,NA,NA,NA,NA,NA,NA,NA,NA,NA,NA,NA,NA,NA,NA,NA
aa4a0,"""Richtig""-Screen",canvas.Screen,1_1_5_1_1,NA,NA,skipped,NA,174206,NA,NA,174203,174206,2023-10-18T08:21:50Z,174214.9,"c(""distractor1"", ""distractor2"", ""distractor3"")",Rückhalt,msaada,s,muhula,auwali,kiwimbe,NA,NA,NA,NA,NA,NA,NA,NA,NA,NA,NA,NA,NA,NA,NA,NA,NA,NA,NA,NA,NA,NA,NA
aa4a0,"""Falsch""-Screen",canvas.Screen,1_1_5_1_2,NA,NA,timeout,4999.36,174208,174202.1,174214.9,179197.6,179199,2023-10-18T08:21:55Z,179214.26,"c(""distractor1"", ""distractor2"", ""distractor3"")",Rückhalt,msaada,s,muhula,auwali,kiwimbe,NA,NA,0,NA,NA,NA,NA,NA,NA,NA,NA,NA,NA,NA,NA,NA,NA,NA,NA,NA,NA,NA,NA
aa4a0,shallow,flow.Sequence,1_1_5_1,NA,NA,completion,9965.46,169220,169215.58,169232.14,179197.6,179199,2023-10-18T08:21:55Z,179214.26,"c(""distractor1"", ""distractor2"", ""distractor3"")",Rückhalt,msaada,s,muhula,auwali,kiwimbe,NA,NA,NA,NA,NA,NA,NA,NA,NA,NA,NA,NA,NA,NA,NA,NA,NA,NA,NA,NA,NA,NA,NA
aa4a0,task,flow.Sequence,1_1_5,NA,NA,completion,9965.46,169219,169215.58,169232.14,179197.6,179199,2023-10-18T08:21:55Z,179214.26,"c(""distractor1"", ""distractor2"", ""distractor3"")",Rückhalt,msaada,s,muhula,auwali,kiwimbe,NA,NA,NA,NA,NA,NA,NA,NA,NA,NA,NA,NA,NA,NA,NA,NA,NA,NA,NA,NA,NA,NA,NA
aa4a0,block,flow.Loop,1_1,NA,NA,completion,72871.08,106326,106326.1,106326.52,179197.6,179199,2023-10-18T08:21:55Z,179214.26,"c(""distractor1"", ""distractor2"", ""distractor3"")",NA,NA,NA,NA,NA,NA,NA,NA,NA,NA,NA,NA,NA,NA,NA,NA,NA,NA,NA,NA,NA,NA,NA,NA,NA,NA,NA,NA,NA
aa4a0,Practice,flow.Sequence,1,NA,NA,completion,77704.66,101493,101492.54,101492.94,179197.6,179199,2023-10-18T08:21:55Z,179214.26,NULL,NA,NA,NA,NA,NA,NA,NA,NA,NA,NA,NA,NA,NA,NA,NA,NA,NA,NA,NA,NA,NA,NA,NA,NA,NA,NA,NA,NA,NA
aa4a0,Experiment start,canvas.Screen,2,weiter,keypress(q),response,80766.74,179199,179197.6,179214.26,259981,259997,2023-10-18T08:23:16Z,260106.88,NULL,NA,NA,NA,NA,NA,NA,NA,NA,NA,NA,NA,NA,NA,NA,NA,NA,NA,NA,NA,NA,NA,NA,NA,NA,NA,NA,NA,NA,NA
aa4a0,deep,flow.Sequence,3_0_0_0_0_0,NA,NA,skipped,NA,260106,NA,NA,259981,260106,2023-10-18T08:23:16Z,260106.88,NULL,Spionage,upelelezi,s,maslahi,utokazo,magangao,NA,sdf,NA,0,NA,NA,NA,NA,NA,NA,NA,NA,NA,NA,NA,NA,NA,NA,NA,NA,NA,NA,NA
aa4a0,Shallow Question,html.Page,3_0_0_0_0_1_0,NA,NA,form submission,7153.12,260106,260106.5,260106.88,267260,267260,2023-10-18T08:23:23Z,267258.28,NULL,Spionage,upelelezi,s,maslahi,utokazo,magangao,magangao,NA,NA,0,NA,NA,NA,NA,NA,NA,NA,NA,NA,NA,NA,NA,NA,NA,NA,NA,NA,NA,NA
aa4a0,"""Richtig""-Screen",canvas.Screen,3_0_0_0_0_1_1,NA,NA,skipped,NA,267263,NA,NA,267260,267263,2023-10-18T08:23:23Z,267258.28,NULL,Spionage,upelelezi,s,maslahi,utokazo,magangao,NA,sdf,NA,0,NA,NA,NA,NA,NA,NA,NA,NA,NA,NA,NA,NA,NA,NA,NA,NA,NA,NA,NA
aa4a0,"""Falsch""-Screen",canvas.Screen,3_0_0_0_0_1_2,NA,NA,timeout,4994.08,267266,267258.08,267258.28,272235.76,272238,2023-10-18T08:23:28Z,272252.36,NULL,Spionage,upelelezi,s,maslahi,utokazo,magangao,NA,sdf,0,0,NA,NA,NA,NA,NA,NA,NA,NA,NA,NA,NA,NA,NA,NA,NA,NA,NA,NA,NA
aa4a0,shallow,flow.Sequence,3_0_0_0_0_1,NA,NA,completion,12128.88,260106,260106.5,260106.88,272235.76,272238,2023-10-18T08:23:28Z,272252.36,NULL,Spionage,upelelezi,s,maslahi,utokazo,magangao,NA,sdf,NA,0,NA,NA,NA,NA,NA,NA,NA,NA,NA,NA,NA,NA,NA,NA,NA,NA,NA,NA,NA
aa4a0,task,flow.Sequence,3_0_0_0_0,NA,NA,completion,12128.88,260106,260106.5,260106.88,272235.76,272239,2023-10-18T08:23:28Z,272252.36,NULL,Spionage,upelelezi,s,maslahi,utokazo,magangao,NA,sdf,NA,0,NA,NA,NA,NA,NA,NA,NA,NA,NA,NA,NA,NA,NA,NA,NA,NA,NA,NA,NA
aa4a0,Deep Question,html.Page,3_0_0_0_1_0_0,NA,NA,form submission,4809.64,272240,272235.76,272252.36,277062,277062,2023-10-18T08:23:33Z,277085.06,NULL,Schüler,mwanafunzi,d,NA,NA,NA,uk,NA,NA,0,NA,NA,NA,NA,NA,NA,NA,NA,NA,NA,NA,NA,NA,NA,NA,NA,NA,NA,NA
aa4a0,"""Richtig""-Screen",canvas.Screen,3_0_0_0_1_0_1,NA,NA,skipped,NA,277064,NA,NA,277062,277064,2023-10-18T08:23:33Z,277085.06,NULL,Schüler,mwanafunzi,d,NA,NA,NA,NA,sdf,NA,0,NA,NA,NA,NA,NA,NA,NA,NA,NA,NA,NA,NA,NA,NA,NA,NA,NA,NA,NA
aa4a0,"""Falsch""-Screen",canvas.Screen,3_0_0_0_1_0_2,NA,NA,timeout,4999.4,277067,277068.4,277085.06,282067.84,282070,2023-10-18T08:23:38Z,282084.46,NULL,Schüler,mwanafunzi,d,NA,NA,NA,NA,sdf,0,0,NA,NA,NA,NA,NA,NA,NA,NA,NA,NA,NA,NA,NA,NA,NA,NA,NA,NA,NA
aa4a0,deep,flow.Sequence,3_0_0_0_1_0,NA,NA,completion,9815.48,272240,272235.76,272252.36,282067.84,282071,2023-10-18T08:23:38Z,282084.46,NULL,Schüler,mwanafunzi,d,NA,NA,NA,NA,sdf,NA,0,NA,NA,NA,NA,NA,NA,NA,NA,NA,NA,NA,NA,NA,NA,NA,NA,NA,NA,NA
aa4a0,shallow,flow.Sequence,3_0_0_0_1_1,NA,NA,skipped,NA,282072,NA,NA,282067.84,282073,2023-10-18T08:23:38Z,282084.46,NULL,Schüler,mwanafunzi,d,NA,NA,NA,NA,sdf,NA,0,NA,NA,NA,NA,NA,NA,NA,NA,NA,NA,NA,NA,NA,NA,NA,NA,NA,NA,NA
aa4a0,task,flow.Sequence,3_0_0_0_1,NA,NA,completion,9815.48,272239,272235.76,272252.36,282067.84,282073,2023-10-18T08:23:38Z,282084.46,NULL,Schüler,mwanafunzi,d,NA,NA,NA,NA,sdf,NA,0,NA,NA,NA,NA,NA,NA,NA,NA,NA,NA,NA,NA,NA,NA,NA,NA,NA,NA,NA
aa4a0,deep,flow.Sequence,3_0_0_0_2_0,NA,NA,skipped,NA,282074,NA,NA,282067.84,282074,2023-10-18T08:23:38Z,282084.46,NULL,Entwicklung,maendeleo,s,uangavu,mshindwa,badiliko,NA,sdf,NA,0,NA,NA,NA,NA,NA,NA,NA,NA,NA,NA,NA,NA,NA,NA,NA,NA,NA,NA,NA
aa4a0,Shallow Question,html.Page,3_0_0_0_2_1_0,NA,NA,form submission,5218.54,282074,282067.84,282084.46,287303,287304,2023-10-18T08:23:43Z,287302.1,NULL,Entwicklung,maendeleo,s,uangavu,mshindwa,badiliko,mshindwa,NA,NA,0,NA,NA,NA,NA,NA,NA,NA,NA,NA,NA,NA,NA,NA,NA,NA,NA,NA,NA,NA
aa4a0,"""Richtig""-Screen",canvas.Screen,3_0_0_0_2_1_1,NA,NA,skipped,NA,287306,NA,NA,287303,287306,2023-10-18T08:23:43Z,287302.1,NULL,Entwicklung,maendeleo,s,uangavu,mshindwa,badiliko,NA,sdf,NA,0,NA,NA,NA,NA,NA,NA,NA,NA,NA,NA,NA,NA,NA,NA,NA,NA,NA,NA,NA
aa4a0,"""Falsch""-Screen",canvas.Screen,3_0_0_0_2_1_2,NA,NA,timeout,4997.66,287308,287301.78,287302.1,292283.2,292285,2023-10-18T08:23:48Z,292299.76,NULL,Entwicklung,maendeleo,s,uangavu,mshindwa,badiliko,NA,sdf,0,0,NA,NA,NA,NA,NA,NA,NA,NA,NA,NA,NA,NA,NA,NA,NA,NA,NA,NA,NA
aa4a0,shallow,flow.Sequence,3_0_0_0_2_1,NA,NA,completion,10198.74,282074,282067.84,282084.46,292283.2,292286,2023-10-18T08:23:48Z,292299.76,NULL,Entwicklung,maendeleo,s,uangavu,mshindwa,badiliko,NA,sdf,NA,0,NA,NA,NA,NA,NA,NA,NA,NA,NA,NA,NA,NA,NA,NA,NA,NA,NA,NA,NA
aa4a0,task,flow.Sequence,3_0_0_0_2,NA,NA,completion,10198.74,282074,282067.84,282084.46,292283.2,292286,2023-10-18T08:23:48Z,292299.76,NULL,Entwicklung,maendeleo,s,uangavu,mshindwa,badiliko,NA,sdf,NA,0,NA,NA,NA,NA,NA,NA,NA,NA,NA,NA,NA,NA,NA,NA,NA,NA,NA,NA,NA
aa4a0,Deep Question,html.Page,3_0_0_0_3_0_0,NA,NA,form submission,4602.24,292286,292283.2,292299.76,296902,296903,2023-10-18T08:23:53Z,296915.62,NULL,Tester,wanaojaribu,d,NA,NA,NA,j,NA,NA,0,NA,NA,NA,NA,NA,NA,NA,NA,NA,NA,NA,NA,NA,NA,NA,NA,NA,NA,NA
aa4a0,"""Richtig""-Screen",canvas.Screen,3_0_0_0_3_0_1,NA,NA,skipped,NA,296905,NA,NA,296902,296905,2023-10-18T08:23:53Z,296915.62,NULL,Tester,wanaojaribu,d,NA,NA,NA,NA,sdf,NA,0,NA,NA,NA,NA,NA,NA,NA,NA,NA,NA,NA,NA,NA,NA,NA,NA,NA,NA,NA
aa4a0,"""Falsch""-Screen",canvas.Screen,3_0_0_0_3_0_2,NA,NA,timeout,4999.64,296907,296900.78,296915.62,301898.58,301900,2023-10-18T08:23:58Z,301915.26,NULL,Tester,wanaojaribu,d,NA,NA,NA,NA,sdf,0,0,NA,NA,NA,NA,NA,NA,NA,NA,NA,NA,NA,NA,NA,NA,NA,NA,NA,NA,NA
aa4a0,deep,flow.Sequence,3_0_0_0_3_0,NA,NA,completion,9598.82,292286,292283.2,292299.76,301898.58,301900,2023-10-18T08:23:58Z,301915.26,NULL,Tester,wanaojaribu,d,NA,NA,NA,NA,sdf,NA,0,NA,NA,NA,NA,NA,NA,NA,NA,NA,NA,NA,NA,NA,NA,NA,NA,NA,NA,NA
aa4a0,shallow,flow.Sequence,3_0_0_0_3_1,NA,NA,skipped,NA,301900,NA,NA,301898.58,301900,2023-10-18T08:23:58Z,301915.26,NULL,Tester,wanaojaribu,d,NA,NA,NA,NA,sdf,NA,0,NA,NA,NA,NA,NA,NA,NA,NA,NA,NA,NA,NA,NA,NA,NA,NA,NA,NA,NA
aa4a0,task,flow.Sequence,3_0_0_0_3,NA,NA,completion,9598.82,292286,292283.2,292299.76,301898.58,301901,2023-10-18T08:23:58Z,301915.26,NULL,Tester,wanaojaribu,d,NA,NA,NA,NA,sdf,NA,0,NA,NA,NA,NA,NA,NA,NA,NA,NA,NA,NA,NA,NA,NA,NA,NA,NA,NA,NA
aa4a0,Deep Question,html.Page,3_0_0_0_4_0_0,NA,NA,form submission,4194.74,301901,301898.58,301915.26,306110,306110,2023-10-18T08:24:02Z,306131.42,NULL,Papier,karatasi,d,NA,NA,NA,kl,NA,NA,0,NA,NA,NA,NA,NA,NA,NA,NA,NA,NA,NA,NA,NA,NA,NA,NA,NA,NA,NA
aa4a0,"""Richtig""-Screen",canvas.Screen,3_0_0_0_4_0_1,NA,NA,skipped,NA,306112,NA,NA,306110,306112,2023-10-18T08:24:02Z,306131.42,NULL,Papier,karatasi,d,NA,NA,NA,NA,sdf,NA,0,NA,NA,NA,NA,NA,NA,NA,NA,NA,NA,NA,NA,NA,NA,NA,NA,NA,NA,NA
aa4a0,"""Falsch""-Screen",canvas.Screen,3_0_0_0_4_0_2,NA,NA,timeout,4999.26,306114,306114.76,306131.42,311114.12,311115,2023-10-18T08:24:07Z,311130.68,NULL,Papier,karatasi,d,NA,NA,NA,NA,sdf,0,0,NA,NA,NA,NA,NA,NA,NA,NA,NA,NA,NA,NA,NA,NA,NA,NA,NA,NA,NA
aa4a0,deep,flow.Sequence,3_0_0_0_4_0,NA,NA,completion,9198.86,301901,301898.58,301915.26,311114.12,311115,2023-10-18T08:24:07Z,311130.68,NULL,Papier,karatasi,d,NA,NA,NA,NA,sdf,NA,0,NA,NA,NA,NA,NA,NA,NA,NA,NA,NA,NA,NA,NA,NA,NA,NA,NA,NA,NA
aa4a0,shallow,flow.Sequence,3_0_0_0_4_1,NA,NA,skipped,NA,311115,NA,NA,311114.12,311115,2023-10-18T08:24:07Z,311130.68,NULL,Papier,karatasi,d,NA,NA,NA,NA,sdf,NA,0,NA,NA,NA,NA,NA,NA,NA,NA,NA,NA,NA,NA,NA,NA,NA,NA,NA,NA,NA
aa4a0,task,flow.Sequence,3_0_0_0_4,NA,NA,completion,9198.86,301901,301898.58,301915.26,311114.12,311116,2023-10-18T08:24:07Z,311130.68,NULL,Papier,karatasi,d,NA,NA,NA,NA,sdf,NA,0,NA,NA,NA,NA,NA,NA,NA,NA,NA,NA,NA,NA,NA,NA,NA,NA,NA,NA,NA
aa4a0,deep,flow.Sequence,3_0_0_0_5_0,NA,NA,skipped,NA,311117,NA,NA,311114.12,311117,2023-10-18T08:24:07Z,311130.68,NULL,Vorwurf,mashtaka,s,msukumo,mtangulizi,uenyekiti,NA,sdf,NA,0,NA,NA,NA,NA,NA,NA,NA,NA,NA,NA,NA,NA,NA,NA,NA,NA,NA,NA,NA
aa4a0,Shallow Question,html.Page,3_0_0_0_5_1_0,NA,NA,form submission,7784.32,311117,311114.12,311130.68,318915,318915,2023-10-18T08:24:15Z,318914.2,NULL,Vorwurf,mashtaka,s,msukumo,mtangulizi,uenyekiti,uenyekiti,NA,NA,0,NA,NA,NA,NA,NA,NA,NA,NA,NA,NA,NA,NA,NA,NA,NA,NA,NA,NA,NA
aa4a0,"""Richtig""-Screen",canvas.Screen,3_0_0_0_5_1_1,NA,NA,skipped,NA,318917,NA,NA,318915,318917,2023-10-18T08:24:15Z,318914.2,NULL,Vorwurf,mashtaka,s,msukumo,mtangulizi,uenyekiti,NA,sdf,NA,0,NA,NA,NA,NA,NA,NA,NA,NA,NA,NA,NA,NA,NA,NA,NA,NA,NA,NA,NA
aa4a0,"""Falsch""-Screen",canvas.Screen,3_0_0_0_5_1_2,NA,NA,timeout,4998.32,318919,318913.86,318914.2,323895.86,323898,2023-10-18T08:24:20Z,323912.52,NULL,Vorwurf,mashtaka,s,msukumo,mtangulizi,uenyekiti,NA,sdf,0,0,NA,NA,NA,NA,NA,NA,NA,NA,NA,NA,NA,NA,NA,NA,NA,NA,NA,NA,NA
aa4a0,shallow,flow.Sequence,3_0_0_0_5_1,NA,NA,completion,12765.18,311117,311114.12,311130.68,323895.86,323898,2023-10-18T08:24:20Z,323912.52,NULL,Vorwurf,mashtaka,s,msukumo,mtangulizi,uenyekiti,NA,sdf,NA,0,NA,NA,NA,NA,NA,NA,NA,NA,NA,NA,NA,NA,NA,NA,NA,NA,NA,NA,NA
aa4a0,task,flow.Sequence,3_0_0_0_5,NA,NA,completion,12765.18,311117,311114.12,311130.68,323895.86,323898,2023-10-18T08:24:20Z,323912.52,NULL,Vorwurf,mashtaka,s,msukumo,mtangulizi,uenyekiti,NA,sdf,NA,0,NA,NA,NA,NA,NA,NA,NA,NA,NA,NA,NA,NA,NA,NA,NA,NA,NA,NA,NA
aa4a0,deep,flow.Sequence,3_0_0_0_6_0,NA,NA,skipped,NA,323898,NA,NA,323895.86,323899,2023-10-18T08:24:20Z,323912.52,NULL,Fenster,dirisha,s,walakini,tasawari,maarifa,NA,sdf,NA,0,NA,NA,NA,NA,NA,NA,NA,NA,NA,NA,NA,NA,NA,NA,NA,NA,NA,NA,NA
aa4a0,Shallow Question,html.Page,3_0_0_0_6_1_0,NA,NA,form submission,6074.48,323900,323895.86,323912.52,329987,329987,2023-10-18T08:24:26Z,329985.88,NULL,Fenster,dirisha,s,walakini,tasawari,maarifa,walakini,NA,NA,0,NA,NA,NA,NA,NA,NA,NA,NA,NA,NA,NA,NA,NA,NA,NA,NA,NA,NA,NA
aa4a0,"""Richtig""-Screen",canvas.Screen,3_0_0_0_6_1_1,NA,NA,skipped,NA,329990,NA,NA,329987,329990,2023-10-18T08:24:26Z,329985.88,NULL,Fenster,dirisha,s,walakini,tasawari,maarifa,NA,sdf,NA,0,NA,NA,NA,NA,NA,NA,NA,NA,NA,NA,NA,NA,NA,NA,NA,NA,NA,NA,NA
aa4a0,"""Falsch""-Screen",canvas.Screen,3_0_0_0_6_1_2,NA,NA,timeout,4991.84,329992,329985.5,329985.88,334961.04,334962,2023-10-18T08:24:31Z,334977.72,NULL,Fenster,dirisha,s,walakini,tasawari,maarifa,NA,sdf,0,0,NA,NA,NA,NA,NA,NA,NA,NA,NA,NA,NA,NA,NA,NA,NA,NA,NA,NA,NA
aa4a0,shallow,flow.Sequence,3_0_0_0_6_1,NA,NA,completion,11048.52,323900,323895.86,323912.52,334961.04,334962,2023-10-18T08:24:31Z,334977.72,NULL,Fenster,dirisha,s,walakini,tasawari,maarifa,NA,sdf,NA,0,NA,NA,NA,NA,NA,NA,NA,NA,NA,NA,NA,NA,NA,NA,NA,NA,NA,NA,NA
aa4a0,task,flow.Sequence,3_0_0_0_6,NA,NA,completion,11048.52,323898,323895.86,323912.52,334961.04,334963,2023-10-18T08:24:31Z,334977.72,NULL,Fenster,dirisha,s,walakini,tasawari,maarifa,NA,sdf,NA,0,NA,NA,NA,NA,NA,NA,NA,NA,NA,NA,NA,NA,NA,NA,NA,NA,NA,NA,NA
aa4a0,Deep Question,html.Page,3_0_0_0_7_0_0,NA,NA,form submission,6917.28,334963,334961.04,334977.72,341895,341896,2023-10-18T08:24:38Z,341894.34,NULL,Niveau,kiwango,d,NA,NA,NA,k,NA,NA,0,NA,NA,NA,NA,NA,NA,NA,NA,NA,NA,NA,NA,NA,NA,NA,NA,NA,NA,NA
aa4a0,"""Richtig""-Screen",canvas.Screen,3_0_0_0_7_0_1,NA,NA,skipped,NA,341897,NA,NA,341895,341897,2023-10-18T08:24:38Z,341894.34,NULL,Niveau,kiwango,d,NA,NA,NA,NA,sdf,NA,0,NA,NA,NA,NA,NA,NA,NA,NA,NA,NA,NA,NA,NA,NA,NA,NA,NA,NA,NA
aa4a0,"""Falsch""-Screen",canvas.Screen,3_0_0_0_7_0_2,NA,NA,timeout,4998.48,341901,341894.04,341894.34,346876.18,346882,2023-10-18T08:24:43Z,346892.82,NULL,Niveau,kiwango,d,NA,NA,NA,NA,sdf,0,0,NA,NA,NA,NA,NA,NA,NA,NA,NA,NA,NA,NA,NA,NA,NA,NA,NA,NA,NA
aa4a0,deep,flow.Sequence,3_0_0_0_7_0,NA,NA,completion,11898.46,334963,334961.04,334977.72,346876.18,346885,2023-10-18T08:24:43Z,346892.82,NULL,Niveau,kiwango,d,NA,NA,NA,NA,sdf,NA,0,NA,NA,NA,NA,NA,NA,NA,NA,NA,NA,NA,NA,NA,NA,NA,NA,NA,NA,NA
aa4a0,shallow,flow.Sequence,3_0_0_0_7_1,NA,NA,skipped,NA,346886,NA,NA,346876.18,346887,2023-10-18T08:24:43Z,346892.82,NULL,Niveau,kiwango,d,NA,NA,NA,NA,sdf,NA,0,NA,NA,NA,NA,NA,NA,NA,NA,NA,NA,NA,NA,NA,NA,NA,NA,NA,NA,NA
aa4a0,task,flow.Sequence,3_0_0_0_7,NA,NA,completion,11898.46,334963,334961.04,334977.72,346876.18,346888,2023-10-18T08:24:43Z,346892.82,NULL,Niveau,kiwango,d,NA,NA,NA,NA,sdf,NA,0,NA,NA,NA,NA,NA,NA,NA,NA,NA,NA,NA,NA,NA,NA,NA,NA,NA,NA,NA
aa4a0,block,flow.Loop,3_0_0_0,NA,NA,completion,86769.3,260106,260106.5,260106.88,346876.18,346888,2023-10-18T08:24:43Z,346892.82,NULL,NA,NA,NA,NA,NA,NA,NA,sdf,NA,0,NA,NA,NA,NA,NA,NA,NA,NA,NA,NA,NA,NA,NA,NA,NA,NA,NA,NA,NA
aa4a0,weiter,canvas.Screen,3_0_0_1,sdf,keypress(Space),response,2588.18,346889,346876.18,346892.82,349481,349494,2023-10-18T08:24:46Z,349550.14,NULL,NA,NA,NA,NA,NA,NA,NA,sdf,NA,0,NA,NA,NA,NA,NA,NA,NA,NA,NA,NA,NA,NA,NA,NA,NA,NA,NA,NA,NA
aa4a0,check continue,flow.Sequence,3_0_0,NA,NA,completion,89374.12,260106,260106.5,260106.88,349481,349495,2023-10-18T08:24:46Z,349550.14,NULL,NA,NA,NA,NA,NA,NA,NA,sdf,NA,0,NA,NA,NA,NA,NA,NA,NA,NA,NA,NA,NA,NA,NA,NA,NA,NA,NA,NA,NA
aa4a0,deep,flow.Sequence,3_0_1_0_0_0,NA,NA,skipped,NA,349550,NA,NA,349481,349550,2023-10-18T08:24:46Z,349550.14,NULL,Spionage,upelelezi,s,maslahi,utokazo,magangao,NA,sdfdsf,NA,1,NA,NA,NA,NA,NA,NA,NA,NA,NA,NA,NA,NA,NA,NA,NA,NA,NA,NA,NA
aa4a0,Shallow Question,html.Page,3_0_1_0_0_1_0,NA,NA,form submission,5194.86,349550,349549.82,349550.14,354745,354745,2023-10-18T08:24:51Z,354744.12,NULL,Spionage,upelelezi,s,maslahi,utokazo,magangao,upelelezi,NA,NA,1,NA,NA,NA,NA,NA,NA,NA,NA,NA,NA,NA,NA,NA,NA,NA,NA,NA,NA,NA
aa4a0,"""Richtig""-Screen",canvas.Screen,3_0_1_0_0_1_1,NA,NA,timeout,4997.1,354748,354743.96,354744.12,359724.56,359727,2023-10-18T08:24:56Z,359741.22,NULL,Spionage,upelelezi,s,maslahi,utokazo,magangao,NA,sdfdsf,1,1,NA,NA,NA,NA,NA,NA,NA,NA,NA,NA,NA,NA,NA,NA,NA,NA,NA,NA,NA
aa4a0,"""Falsch""-Screen",canvas.Screen,3_0_1_0_0_1_2,NA,NA,skipped,NA,359733,NA,NA,359724.56,359734,2023-10-18T08:24:56Z,359741.22,NULL,Spionage,upelelezi,s,maslahi,utokazo,magangao,NA,sdfdsf,NA,1,NA,NA,NA,NA,NA,NA,NA,NA,NA,NA,NA,NA,NA,NA,NA,NA,NA,NA,NA
aa4a0,shallow,flow.Sequence,3_0_1_0_0_1,NA,NA,completion,10174.42,349550,349549.82,349550.14,359724.56,359735,2023-10-18T08:24:56Z,359741.22,NULL,Spionage,upelelezi,s,maslahi,utokazo,magangao,NA,sdfdsf,NA,1,NA,NA,NA,NA,NA,NA,NA,NA,NA,NA,NA,NA,NA,NA,NA,NA,NA,NA,NA
aa4a0,task,flow.Sequence,3_0_1_0_0,NA,NA,completion,10174.42,349550,349549.82,349550.14,359724.56,359735,2023-10-18T08:24:56Z,359741.22,NULL,Spionage,upelelezi,s,maslahi,utokazo,magangao,NA,sdfdsf,NA,1,NA,NA,NA,NA,NA,NA,NA,NA,NA,NA,NA,NA,NA,NA,NA,NA,NA,NA,NA
aa4a0,deep,flow.Sequence,3_0_1_0_1_0,NA,NA,skipped,NA,359736,NA,NA,359724.56,359736,2023-10-18T08:24:56Z,359741.22,NULL,Vorwurf,mashtaka,s,msukumo,mtangulizi,uenyekiti,NA,sdfdsf,NA,1,NA,NA,NA,NA,NA,NA,NA,NA,NA,NA,NA,NA,NA,NA,NA,NA,NA,NA,NA
aa4a0,Shallow Question,html.Page,3_0_1_0_1_1_0,NA,NA,form submission,8229.78,359736,359724.56,359741.22,367971,367971,2023-10-18T08:25:04Z,367973.52,NULL,Vorwurf,mashtaka,s,msukumo,mtangulizi,uenyekiti,msukumo,NA,NA,1,NA,NA,NA,NA,NA,NA,NA,NA,NA,NA,NA,NA,NA,NA,NA,NA,NA,NA,NA
aa4a0,"""Richtig""-Screen",canvas.Screen,3_0_1_0_1_1_1,NA,NA,skipped,NA,367974,NA,NA,367971,367974,2023-10-18T08:25:04Z,367973.52,NULL,Vorwurf,mashtaka,s,msukumo,mtangulizi,uenyekiti,NA,sdfdsf,NA,1,NA,NA,NA,NA,NA,NA,NA,NA,NA,NA,NA,NA,NA,NA,NA,NA,NA,NA,NA
aa4a0,"""Falsch""-Screen",canvas.Screen,3_0_1_0_1_1_2,NA,NA,timeout,4999.34,367976,367969.94,367973.52,372956.2,372958,2023-10-18T08:25:09Z,372972.86,NULL,Vorwurf,mashtaka,s,msukumo,mtangulizi,uenyekiti,NA,sdfdsf,0,1,NA,NA,NA,NA,NA,NA,NA,NA,NA,NA,NA,NA,NA,NA,NA,NA,NA,NA,NA
aa4a0,shallow,flow.Sequence,3_0_1_0_1_1,NA,NA,completion,13214.98,359736,359724.56,359741.22,372956.2,372959,2023-10-18T08:25:09Z,372972.86,NULL,Vorwurf,mashtaka,s,msukumo,mtangulizi,uenyekiti,NA,sdfdsf,NA,1,NA,NA,NA,NA,NA,NA,NA,NA,NA,NA,NA,NA,NA,NA,NA,NA,NA,NA,NA
aa4a0,task,flow.Sequence,3_0_1_0_1,NA,NA,completion,13214.98,359736,359724.56,359741.22,372956.2,372959,2023-10-18T08:25:09Z,372972.86,NULL,Vorwurf,mashtaka,s,msukumo,mtangulizi,uenyekiti,NA,sdfdsf,NA,1,NA,NA,NA,NA,NA,NA,NA,NA,NA,NA,NA,NA,NA,NA,NA,NA,NA,NA,NA
aa4a0,Deep Question,html.Page,3_0_1_0_2_0_0,NA,NA,form submission,4492.14,372960,372956.2,372972.86,377465,377465,2023-10-18T08:25:14Z,377472.18,NULL,Niveau,kiwango,d,NA,NA,NA,jk,NA,NA,1,NA,NA,NA,NA,NA,NA,NA,NA,NA,NA,NA,NA,NA,NA,NA,NA,NA,NA,NA
aa4a0,"""Richtig""-Screen",canvas.Screen,3_0_1_0_2_0_1,NA,NA,skipped,NA,377467,NA,NA,377465,377467,2023-10-18T08:25:14Z,377472.18,NULL,Niveau,kiwango,d,NA,NA,NA,NA,sdfdsf,NA,1,NA,NA,NA,NA,NA,NA,NA,NA,NA,NA,NA,NA,NA,NA,NA,NA,NA,NA,NA
aa4a0,"""Falsch""-Screen",canvas.Screen,3_0_1_0_2_0_2,NA,NA,timeout,4999.42,377469,377463.38,377472.18,382454.92,382457,2023-10-18T08:25:19Z,382471.6,NULL,Niveau,kiwango,d,NA,NA,NA,NA,sdfdsf,0,1,NA,NA,NA,NA,NA,NA,NA,NA,NA,NA,NA,NA,NA,NA,NA,NA,NA,NA,NA
aa4a0,deep,flow.Sequence,3_0_1_0_2_0,NA,NA,completion,9482.06,372960,372956.2,372972.86,382454.92,382457,2023-10-18T08:25:19Z,382471.6,NULL,Niveau,kiwango,d,NA,NA,NA,NA,sdfdsf,NA,1,NA,NA,NA,NA,NA,NA,NA,NA,NA,NA,NA,NA,NA,NA,NA,NA,NA,NA,NA
aa4a0,shallow,flow.Sequence,3_0_1_0_2_1,NA,NA,skipped,NA,382458,NA,NA,382454.92,382458,2023-10-18T08:25:19Z,382471.6,NULL,Niveau,kiwango,d,NA,NA,NA,NA,sdfdsf,NA,1,NA,NA,NA,NA,NA,NA,NA,NA,NA,NA,NA,NA,NA,NA,NA,NA,NA,NA,NA
aa4a0,task,flow.Sequence,3_0_1_0_2,NA,NA,completion,9482.06,372959,372956.2,372972.86,382454.92,382458,2023-10-18T08:25:19Z,382471.6,NULL,Niveau,kiwango,d,NA,NA,NA,NA,sdfdsf,NA,1,NA,NA,NA,NA,NA,NA,NA,NA,NA,NA,NA,NA,NA,NA,NA,NA,NA,NA,NA
aa4a0,Deep Question,html.Page,3_0_1_0_3_0_0,NA,NA,form submission,6145.4,382459,382454.92,382471.6,388617,388617,2023-10-18T08:25:25Z,388620.86,NULL,Tester,wanaojaribu,d,NA,NA,NA,s,NA,NA,1,NA,NA,NA,NA,NA,NA,NA,NA,NA,NA,NA,NA,NA,NA,NA,NA,NA,NA,NA
aa4a0,"""Richtig""-Screen",canvas.Screen,3_0_1_0_3_0_1,NA,NA,skipped,NA,388620,NA,NA,388617,388620,2023-10-18T08:25:25Z,388620.86,NULL,Tester,wanaojaribu,d,NA,NA,NA,NA,sdfdsf,NA,1,NA,NA,NA,NA,NA,NA,NA,NA,NA,NA,NA,NA,NA,NA,NA,NA,NA,NA,NA
aa4a0,"""Falsch""-Screen",canvas.Screen,3_0_1_0_3_0_2,NA,NA,timeout,4999.34,388622,388615.8,388620.86,393603.54,393605,2023-10-18T08:25:30Z,393620.2,NULL,Tester,wanaojaribu,d,NA,NA,NA,NA,sdfdsf,0,1,NA,NA,NA,NA,NA,NA,NA,NA,NA,NA,NA,NA,NA,NA,NA,NA,NA,NA,NA
aa4a0,deep,flow.Sequence,3_0_1_0_3_0,NA,NA,completion,11131.94,382459,382454.92,382471.6,393603.54,393606,2023-10-18T08:25:30Z,393620.2,NULL,Tester,wanaojaribu,d,NA,NA,NA,NA,sdfdsf,NA,1,NA,NA,NA,NA,NA,NA,NA,NA,NA,NA,NA,NA,NA,NA,NA,NA,NA,NA,NA
aa4a0,shallow,flow.Sequence,3_0_1_0_3_1,NA,NA,skipped,NA,393606,NA,NA,393603.54,393606,2023-10-18T08:25:30Z,393620.2,NULL,Tester,wanaojaribu,d,NA,NA,NA,NA,sdfdsf,NA,1,NA,NA,NA,NA,NA,NA,NA,NA,NA,NA,NA,NA,NA,NA,NA,NA,NA,NA,NA
aa4a0,task,flow.Sequence,3_0_1_0_3,NA,NA,completion,11131.94,382459,382454.92,382471.6,393603.54,393607,2023-10-18T08:25:30Z,393620.2,NULL,Tester,wanaojaribu,d,NA,NA,NA,NA,sdfdsf,NA,1,NA,NA,NA,NA,NA,NA,NA,NA,NA,NA,NA,NA,NA,NA,NA,NA,NA,NA,NA
aa4a0,Deep Question,html.Page,3_0_1_0_4_0_0,NA,NA,form submission,5974.8,393607,393603.54,393620.2,399595,399595,2023-10-18T08:25:36Z,399602.7,NULL,Schüler,mwanafunzi,d,NA,NA,NA,d,NA,NA,1,NA,NA,NA,NA,NA,NA,NA,NA,NA,NA,NA,NA,NA,NA,NA,NA,NA,NA,NA
aa4a0,"""Richtig""-Screen",canvas.Screen,3_0_1_0_4_0_1,NA,NA,skipped,NA,399597,NA,NA,399595,399598,2023-10-18T08:25:36Z,399602.7,NULL,Schüler,mwanafunzi,d,NA,NA,NA,NA,sdfdsf,NA,1,NA,NA,NA,NA,NA,NA,NA,NA,NA,NA,NA,NA,NA,NA,NA,NA,NA,NA,NA
aa4a0,"""Falsch""-Screen",canvas.Screen,3_0_1_0_4_0_2,NA,NA,timeout,4999.38,399600,399593.72,399602.7,404585.5,404589,2023-10-18T08:25:41Z,404602.08,NULL,Schüler,mwanafunzi,d,NA,NA,NA,NA,sdfdsf,0,1,NA,NA,NA,NA,NA,NA,NA,NA,NA,NA,NA,NA,NA,NA,NA,NA,NA,NA,NA
aa4a0,deep,flow.Sequence,3_0_1_0_4_0,NA,NA,completion,10965.3,393607,393603.54,393620.2,404585.5,404591,2023-10-18T08:25:41Z,404602.08,NULL,Schüler,mwanafunzi,d,NA,NA,NA,NA,sdfdsf,NA,1,NA,NA,NA,NA,NA,NA,NA,NA,NA,NA,NA,NA,NA,NA,NA,NA,NA,NA,NA
aa4a0,shallow,flow.Sequence,3_0_1_0_4_1,NA,NA,skipped,NA,404591,NA,NA,404585.5,404592,2023-10-18T08:25:41Z,404602.08,NULL,Schüler,mwanafunzi,d,NA,NA,NA,NA,sdfdsf,NA,1,NA,NA,NA,NA,NA,NA,NA,NA,NA,NA,NA,NA,NA,NA,NA,NA,NA,NA,NA
aa4a0,task,flow.Sequence,3_0_1_0_4,NA,NA,completion,10965.3,393607,393603.54,393620.2,404585.5,404592,2023-10-18T08:25:41Z,404602.08,NULL,Schüler,mwanafunzi,d,NA,NA,NA,NA,sdfdsf,NA,1,NA,NA,NA,NA,NA,NA,NA,NA,NA,NA,NA,NA,NA,NA,NA,NA,NA,NA,NA
aa4a0,deep,flow.Sequence,3_0_1_0_5_0,NA,NA,skipped,NA,404592,NA,NA,404585.5,404593,2023-10-18T08:25:41Z,404602.08,NULL,Entwicklung,maendeleo,s,uangavu,mshindwa,badiliko,NA,sdfdsf,NA,1,NA,NA,NA,NA,NA,NA,NA,NA,NA,NA,NA,NA,NA,NA,NA,NA,NA,NA,NA
aa4a0,Shallow Question,html.Page,3_0_1_0_5_1_0,NA,NA,form submission,6424.92,404593,404585.5,404602.08,411027,411028,2023-10-18T08:25:47Z,411034.62,NULL,Entwicklung,maendeleo,s,uangavu,mshindwa,badiliko,mshindwa,NA,NA,1,NA,NA,NA,NA,NA,NA,NA,NA,NA,NA,NA,NA,NA,NA,NA,NA,NA,NA,NA
aa4a0,"""Richtig""-Screen",canvas.Screen,3_0_1_0_5_1_1,NA,NA,skipped,NA,411033,NA,NA,411027,411033,2023-10-18T08:25:47Z,411034.62,NULL,Entwicklung,maendeleo,s,uangavu,mshindwa,badiliko,NA,sdfdsf,NA,1,NA,NA,NA,NA,NA,NA,NA,NA,NA,NA,NA,NA,NA,NA,NA,NA,NA,NA,NA
aa4a0,"""Falsch""-Screen",canvas.Screen,3_0_1_0_5_1_2,NA,NA,timeout,4999.4,411036,411025.9,411034.62,416017.36,416019,2023-10-18T08:25:52Z,416034.02,NULL,Entwicklung,maendeleo,s,uangavu,mshindwa,badiliko,NA,sdfdsf,0,1,NA,NA,NA,NA,NA,NA,NA,NA,NA,NA,NA,NA,NA,NA,NA,NA,NA,NA,NA
aa4a0,shallow,flow.Sequence,3_0_1_0_5_1,NA,NA,completion,11415.28,404593,404585.5,404602.08,416017.36,416020,2023-10-18T08:25:52Z,416034.02,NULL,Entwicklung,maendeleo,s,uangavu,mshindwa,badiliko,NA,sdfdsf,NA,1,NA,NA,NA,NA,NA,NA,NA,NA,NA,NA,NA,NA,NA,NA,NA,NA,NA,NA,NA
aa4a0,task,flow.Sequence,3_0_1_0_5,NA,NA,completion,11415.28,404592,404585.5,404602.08,416017.36,416021,2023-10-18T08:25:52Z,416034.02,NULL,Entwicklung,maendeleo,s,uangavu,mshindwa,badiliko,NA,sdfdsf,NA,1,NA,NA,NA,NA,NA,NA,NA,NA,NA,NA,NA,NA,NA,NA,NA,NA,NA,NA,NA
aa4a0,Deep Question,html.Page,3_0_1_0_6_0_0,NA,NA,form submission,2569.98,416021,416017.36,416034.02,418604,418605,2023-10-18T08:25:55Z,418603.58,NULL,Papier,karatasi,d,NA,NA,NA,d,NA,NA,1,NA,NA,NA,NA,NA,NA,NA,NA,NA,NA,NA,NA,NA,NA,NA,NA,NA,NA,NA
aa4a0,"""Richtig""-Screen",canvas.Screen,3_0_1_0_6_0_1,NA,NA,skipped,NA,418608,NA,NA,418604,418608,2023-10-18T08:25:55Z,418603.58,NULL,Papier,karatasi,d,NA,NA,NA,NA,sdfdsf,NA,1,NA,NA,NA,NA,NA,NA,NA,NA,NA,NA,NA,NA,NA,NA,NA,NA,NA,NA,NA
aa4a0,"""Falsch""-Screen",canvas.Screen,3_0_1_0_6_0_2,NA,NA,timeout,4996.08,418609,418603.32,418603.58,423583.08,423585,2023-10-18T08:26:00Z,423599.66,NULL,Papier,karatasi,d,NA,NA,NA,NA,sdfdsf,0,1,NA,NA,NA,NA,NA,NA,NA,NA,NA,NA,NA,NA,NA,NA,NA,NA,NA,NA,NA
aa4a0,deep,flow.Sequence,3_0_1_0_6_0,NA,NA,completion,7549.06,416021,416017.36,416034.02,423583.08,423586,2023-10-18T08:26:00Z,423599.66,NULL,Papier,karatasi,d,NA,NA,NA,NA,sdfdsf,NA,1,NA,NA,NA,NA,NA,NA,NA,NA,NA,NA,NA,NA,NA,NA,NA,NA,NA,NA,NA
aa4a0,shallow,flow.Sequence,3_0_1_0_6_1,NA,NA,skipped,NA,423587,NA,NA,423583.08,423587,2023-10-18T08:26:00Z,423599.66,NULL,Papier,karatasi,d,NA,NA,NA,NA,sdfdsf,NA,1,NA,NA,NA,NA,NA,NA,NA,NA,NA,NA,NA,NA,NA,NA,NA,NA,NA,NA,NA
aa4a0,task,flow.Sequence,3_0_1_0_6,NA,NA,completion,7549.06,416021,416017.36,416034.02,423583.08,423587,2023-10-18T08:26:00Z,423599.66,NULL,Papier,karatasi,d,NA,NA,NA,NA,sdfdsf,NA,1,NA,NA,NA,NA,NA,NA,NA,NA,NA,NA,NA,NA,NA,NA,NA,NA,NA,NA,NA
aa4a0,deep,flow.Sequence,3_0_1_0_7_0,NA,NA,skipped,NA,423587,NA,NA,423583.08,423587,2023-10-18T08:26:00Z,423599.66,NULL,Fenster,dirisha,s,walakini,tasawari,maarifa,NA,sdfdsf,NA,1,NA,NA,NA,NA,NA,NA,NA,NA,NA,NA,NA,NA,NA,NA,NA,NA,NA,NA,NA
aa4a0,Shallow Question,html.Page,3_0_1_0_7_1_0,NA,NA,form submission,6228.34,423588,423583.08,423599.66,429828,429829,2023-10-18T08:26:06Z,429832.24,NULL,Fenster,dirisha,s,walakini,tasawari,maarifa,tasawari,NA,NA,1,NA,NA,NA,NA,NA,NA,NA,NA,NA,NA,NA,NA,NA,NA,NA,NA,NA,NA,NA
aa4a0,"""Richtig""-Screen",canvas.Screen,3_0_1_0_7_1_1,NA,NA,skipped,NA,429831,NA,NA,429828,429832,2023-10-18T08:26:06Z,429832.24,NULL,Fenster,dirisha,s,walakini,tasawari,maarifa,NA,sdfdsf,NA,1,NA,NA,NA,NA,NA,NA,NA,NA,NA,NA,NA,NA,NA,NA,NA,NA,NA,NA,NA
aa4a0,"""Falsch""-Screen",canvas.Screen,3_0_1_0_7_1_2,NA,NA,timeout,4999.4,429835,429827.16,429832.24,434814.96,434816,2023-10-18T08:26:11Z,434831.64,NULL,Fenster,dirisha,s,walakini,tasawari,maarifa,NA,sdfdsf,0,1,NA,NA,NA,NA,NA,NA,NA,NA,NA,NA,NA,NA,NA,NA,NA,NA,NA,NA,NA
aa4a0,shallow,flow.Sequence,3_0_1_0_7_1,NA,NA,completion,11215.3,423587,423583.08,423599.66,434814.96,434817,2023-10-18T08:26:11Z,434831.64,NULL,Fenster,dirisha,s,walakini,tasawari,maarifa,NA,sdfdsf,NA,1,NA,NA,NA,NA,NA,NA,NA,NA,NA,NA,NA,NA,NA,NA,NA,NA,NA,NA,NA
aa4a0,task,flow.Sequence,3_0_1_0_7,NA,NA,completion,11215.3,423587,423583.08,423599.66,434814.96,434818,2023-10-18T08:26:11Z,434831.64,NULL,Fenster,dirisha,s,walakini,tasawari,maarifa,NA,sdfdsf,NA,1,NA,NA,NA,NA,NA,NA,NA,NA,NA,NA,NA,NA,NA,NA,NA,NA,NA,NA,NA
aa4a0,block,flow.Loop,3_0_1_0,NA,NA,completion,85264.82,349550,349549.82,349550.14,434814.96,434819,2023-10-18T08:26:11Z,434831.64,NULL,NA,NA,NA,NA,NA,NA,NA,sdfdsf,NA,1,NA,NA,NA,NA,NA,NA,NA,NA,NA,NA,NA,NA,NA,NA,NA,NA,NA,NA,NA
aa4a0,weiter,canvas.Screen,3_0_1_1,sdf,keypress(Space),response,2524.36,434819,434814.96,434831.64,437356,437372,2023-10-18T08:26:14Z,437432.96,NULL,NA,NA,NA,NA,NA,NA,NA,sdfdsf,NA,1,NA,NA,NA,NA,NA,NA,NA,NA,NA,NA,NA,NA,NA,NA,NA,NA,NA,NA,NA
aa4a0,check continue,flow.Sequence,3_0_1,NA,NA,completion,87805.86,349550,349549.82,349550.14,437356,437372,2023-10-18T08:26:14Z,437432.96,NULL,NA,NA,NA,NA,NA,NA,NA,sdfdsf,NA,1,NA,NA,NA,NA,NA,NA,NA,NA,NA,NA,NA,NA,NA,NA,NA,NA,NA,NA,NA
aa4a0,deep,flow.Sequence,3_0_2_0_0_0,NA,NA,skipped,NA,437433,NA,NA,437356,437433,2023-10-18T08:26:14Z,437432.96,NULL,Vorwurf,mashtaka,s,msukumo,mtangulizi,uenyekiti,NA,sdf,NA,2,NA,NA,NA,NA,NA,NA,NA,NA,NA,NA,NA,NA,NA,NA,NA,NA,NA,NA,NA
aa4a0,Shallow Question,html.Page,3_0_2_0_0_1_0,NA,NA,form submission,4978.04,437433,437432.76,437432.96,442411,442411,2023-10-18T08:26:19Z,442413.92,NULL,Vorwurf,mashtaka,s,msukumo,mtangulizi,uenyekiti,mashtaka,NA,NA,2,NA,NA,NA,NA,NA,NA,NA,NA,NA,NA,NA,NA,NA,NA,NA,NA,NA,NA,NA
aa4a0,"""Richtig""-Screen",canvas.Screen,3_0_2_0_0_1_1,NA,NA,timeout,4999.4,442413,442409.88,442413.92,447396.66,447398,2023-10-18T08:26:24Z,447413.32,NULL,Vorwurf,mashtaka,s,msukumo,mtangulizi,uenyekiti,NA,sdf,1,2,NA,NA,NA,NA,NA,NA,NA,NA,NA,NA,NA,NA,NA,NA,NA,NA,NA,NA,NA
aa4a0,"""Falsch""-Screen",canvas.Screen,3_0_2_0_0_1_2,NA,NA,skipped,NA,447404,NA,NA,447396.66,447405,2023-10-18T08:26:24Z,447413.32,NULL,Vorwurf,mashtaka,s,msukumo,mtangulizi,uenyekiti,NA,sdf,NA,2,NA,NA,NA,NA,NA,NA,NA,NA,NA,NA,NA,NA,NA,NA,NA,NA,NA,NA,NA
aa4a0,shallow,flow.Sequence,3_0_2_0_0_1,NA,NA,completion,9963.7,437433,437432.76,437432.96,447396.66,447405,2023-10-18T08:26:24Z,447413.32,NULL,Vorwurf,mashtaka,s,msukumo,mtangulizi,uenyekiti,NA,sdf,NA,2,NA,NA,NA,NA,NA,NA,NA,NA,NA,NA,NA,NA,NA,NA,NA,NA,NA,NA,NA
aa4a0,task,flow.Sequence,3_0_2_0_0,NA,NA,completion,9963.7,437433,437432.76,437432.96,447396.66,447406,2023-10-18T08:26:24Z,447413.32,NULL,Vorwurf,mashtaka,s,msukumo,mtangulizi,uenyekiti,NA,sdf,NA,2,NA,NA,NA,NA,NA,NA,NA,NA,NA,NA,NA,NA,NA,NA,NA,NA,NA,NA,NA
aa4a0,Deep Question,html.Page,3_0_2_0_1_0_0,NA,NA,form submission,9400.68,447406,447396.66,447413.32,456814,456815,2023-10-18T08:26:33Z,456813.96,NULL,Schüler,mwanafunzi,d,NA,NA,NA,mwanafunzi,NA,NA,2,NA,NA,NA,NA,NA,NA,NA,NA,NA,NA,NA,NA,NA,NA,NA,NA,NA,NA,NA
aa4a0,"""Richtig""-Screen",canvas.Screen,3_0_2_0_1_0_1,NA,NA,timeout,4997.52,456818,456813.62,456813.96,461794.82,461796,2023-10-18T08:26:38Z,461811.48,NULL,Schüler,mwanafunzi,d,NA,NA,NA,NA,sdf,1,2,NA,NA,NA,NA,NA,NA,NA,NA,NA,NA,NA,NA,NA,NA,NA,NA,NA,NA,NA
aa4a0,"""Falsch""-Screen",canvas.Screen,3_0_2_0_1_0_2,NA,NA,skipped,NA,461802,NA,NA,461794.82,461803,2023-10-18T08:26:38Z,461811.48,NULL,Schüler,mwanafunzi,d,NA,NA,NA,NA,sdf,NA,2,NA,NA,NA,NA,NA,NA,NA,NA,NA,NA,NA,NA,NA,NA,NA,NA,NA,NA,NA
aa4a0,deep,flow.Sequence,3_0_2_0_1_0,NA,NA,completion,14381.5,447406,447396.66,447413.32,461794.82,461803,2023-10-18T08:26:38Z,461811.48,NULL,Schüler,mwanafunzi,d,NA,NA,NA,NA,sdf,NA,2,NA,NA,NA,NA,NA,NA,NA,NA,NA,NA,NA,NA,NA,NA,NA,NA,NA,NA,NA
aa4a0,shallow,flow.Sequence,3_0_2_0_1_1,NA,NA,skipped,NA,461803,NA,NA,461794.82,461804,2023-10-18T08:26:38Z,461811.48,NULL,Schüler,mwanafunzi,d,NA,NA,NA,NA,sdf,NA,2,NA,NA,NA,NA,NA,NA,NA,NA,NA,NA,NA,NA,NA,NA,NA,NA,NA,NA,NA
aa4a0,task,flow.Sequence,3_0_2_0_1,NA,NA,completion,14381.5,447406,447396.66,447413.32,461794.82,461804,2023-10-18T08:26:38Z,461811.48,NULL,Schüler,mwanafunzi,d,NA,NA,NA,NA,sdf,NA,2,NA,NA,NA,NA,NA,NA,NA,NA,NA,NA,NA,NA,NA,NA,NA,NA,NA,NA,NA
aa4a0,deep,flow.Sequence,3_0_2_0_2_0,NA,NA,skipped,NA,461804,NA,NA,461794.82,461805,2023-10-18T08:26:38Z,461811.48,NULL,Entwicklung,maendeleo,s,uangavu,mshindwa,badiliko,NA,sdf,NA,2,NA,NA,NA,NA,NA,NA,NA,NA,NA,NA,NA,NA,NA,NA,NA,NA,NA,NA,NA
aa4a0,Shallow Question,html.Page,3_0_2_0_2_1_0,NA,NA,form submission,5322.52,461805,461794.82,461811.48,467134,467135,2023-10-18T08:26:43Z,467133.7,NULL,Entwicklung,maendeleo,s,uangavu,mshindwa,badiliko,maendeleo,NA,NA,2,NA,NA,NA,NA,NA,NA,NA,NA,NA,NA,NA,NA,NA,NA,NA,NA,NA,NA,NA
aa4a0,"""Richtig""-Screen",canvas.Screen,3_0_2_0_2_1_1,NA,NA,timeout,4993.16,467137,467133.3,467133.7,472110.18,472111,2023-10-18T08:26:48Z,472126.86,NULL,Entwicklung,maendeleo,s,uangavu,mshindwa,badiliko,NA,sdf,1,2,NA,NA,NA,NA,NA,NA,NA,NA,NA,NA,NA,NA,NA,NA,NA,NA,NA,NA,NA
aa4a0,"""Falsch""-Screen",canvas.Screen,3_0_2_0_2_1_2,NA,NA,skipped,NA,472118,NA,NA,472110.18,472118,2023-10-18T08:26:48Z,472126.86,NULL,Entwicklung,maendeleo,s,uangavu,mshindwa,badiliko,NA,sdf,NA,2,NA,NA,NA,NA,NA,NA,NA,NA,NA,NA,NA,NA,NA,NA,NA,NA,NA,NA,NA
aa4a0,shallow,flow.Sequence,3_0_2_0_2_1,NA,NA,completion,10298.7,461805,461794.82,461811.48,472110.18,472118,2023-10-18T08:26:48Z,472126.86,NULL,Entwicklung,maendeleo,s,uangavu,mshindwa,badiliko,NA,sdf,NA,2,NA,NA,NA,NA,NA,NA,NA,NA,NA,NA,NA,NA,NA,NA,NA,NA,NA,NA,NA
aa4a0,task,flow.Sequence,3_0_2_0_2,NA,NA,completion,10298.7,461804,461794.82,461811.48,472110.18,472119,2023-10-18T08:26:48Z,472126.86,NULL,Entwicklung,maendeleo,s,uangavu,mshindwa,badiliko,NA,sdf,NA,2,NA,NA,NA,NA,NA,NA,NA,NA,NA,NA,NA,NA,NA,NA,NA,NA,NA,NA,NA
aa4a0,deep,flow.Sequence,3_0_2_0_3_0,NA,NA,skipped,NA,472119,NA,NA,472110.18,472119,2023-10-18T08:26:48Z,472126.86,NULL,Spionage,upelelezi,s,maslahi,utokazo,magangao,NA,sdf,NA,2,NA,NA,NA,NA,NA,NA,NA,NA,NA,NA,NA,NA,NA,NA,NA,NA,NA,NA,NA
aa4a0,Shallow Question,html.Page,3_0_2_0_3_1_0,NA,NA,form submission,9116.14,472120,472110.18,472126.86,481243,481243,2023-10-18T08:26:57Z,481258.98,NULL,Spionage,upelelezi,s,maslahi,utokazo,magangao,upelelezi,NA,NA,2,NA,NA,NA,NA,NA,NA,NA,NA,NA,NA,NA,NA,NA,NA,NA,NA,NA,NA,NA
aa4a0,"""Richtig""-Screen",canvas.Screen,3_0_2_0_3_1_1,NA,NA,timeout,4999.42,481245,481242.3,481258.98,486241.74,486248,2023-10-18T08:27:02Z,486258.4,NULL,Spionage,upelelezi,s,maslahi,utokazo,magangao,NA,sdf,1,2,NA,NA,NA,NA,NA,NA,NA,NA,NA,NA,NA,NA,NA,NA,NA,NA,NA,NA,NA
aa4a0,"""Falsch""-Screen",canvas.Screen,3_0_2_0_3_1_2,NA,NA,skipped,NA,486264,NA,NA,486241.74,486264,2023-10-18T08:27:02Z,486258.4,NULL,Spionage,upelelezi,s,maslahi,utokazo,magangao,NA,sdf,NA,2,NA,NA,NA,NA,NA,NA,NA,NA,NA,NA,NA,NA,NA,NA,NA,NA,NA,NA,NA
aa4a0,shallow,flow.Sequence,3_0_2_0_3_1,NA,NA,completion,14114.88,472119,472110.18,472126.86,486241.74,486265,2023-10-18T08:27:02Z,486258.4,NULL,Spionage,upelelezi,s,maslahi,utokazo,magangao,NA,sdf,NA,2,NA,NA,NA,NA,NA,NA,NA,NA,NA,NA,NA,NA,NA,NA,NA,NA,NA,NA,NA
aa4a0,task,flow.Sequence,3_0_2_0_3,NA,NA,completion,14114.88,472119,472110.18,472126.86,486241.74,486265,2023-10-18T08:27:02Z,486258.4,NULL,Spionage,upelelezi,s,maslahi,utokazo,magangao,NA,sdf,NA,2,NA,NA,NA,NA,NA,NA,NA,NA,NA,NA,NA,NA,NA,NA,NA,NA,NA,NA,NA
aa4a0,deep,flow.Sequence,3_0_2_0_4_0,NA,NA,skipped,NA,486266,NA,NA,486241.74,486266,2023-10-18T08:27:02Z,486258.4,NULL,Fenster,dirisha,s,walakini,tasawari,maarifa,NA,sdf,NA,2,NA,NA,NA,NA,NA,NA,NA,NA,NA,NA,NA,NA,NA,NA,NA,NA,NA,NA,NA
aa4a0,Shallow Question,html.Page,3_0_2_0_4_1_0,NA,NA,form submission,5295.6,486267,486241.74,486258.4,491554,491555,2023-10-18T08:27:08Z,491557.66,NULL,Fenster,dirisha,s,walakini,tasawari,maarifa,dirisha,NA,NA,2,NA,NA,NA,NA,NA,NA,NA,NA,NA,NA,NA,NA,NA,NA,NA,NA,NA,NA,NA
aa4a0,"""Richtig""-Screen",canvas.Screen,3_0_2_0_4_1_1,NA,NA,timeout,4999.38,491557,491552.86,491557.66,496540.42,496542,2023-10-18T08:27:13Z,496557.04,NULL,Fenster,dirisha,s,walakini,tasawari,maarifa,NA,sdf,1,2,NA,NA,NA,NA,NA,NA,NA,NA,NA,NA,NA,NA,NA,NA,NA,NA,NA,NA,NA
aa4a0,"""Falsch""-Screen",canvas.Screen,3_0_2_0_4_1_2,NA,NA,skipped,NA,496548,NA,NA,496540.42,496549,2023-10-18T08:27:13Z,496557.04,NULL,Fenster,dirisha,s,walakini,tasawari,maarifa,NA,sdf,NA,2,NA,NA,NA,NA,NA,NA,NA,NA,NA,NA,NA,NA,NA,NA,NA,NA,NA,NA,NA
aa4a0,shallow,flow.Sequence,3_0_2_0_4_1,NA,NA,completion,10282.02,486266,486241.74,486258.4,496540.42,496549,2023-10-18T08:27:13Z,496557.04,NULL,Fenster,dirisha,s,walakini,tasawari,maarifa,NA,sdf,NA,2,NA,NA,NA,NA,NA,NA,NA,NA,NA,NA,NA,NA,NA,NA,NA,NA,NA,NA,NA
aa4a0,task,flow.Sequence,3_0_2_0_4,NA,NA,completion,10282.02,486266,486241.74,486258.4,496540.42,496550,2023-10-18T08:27:13Z,496557.04,NULL,Fenster,dirisha,s,walakini,tasawari,maarifa,NA,sdf,NA,2,NA,NA,NA,NA,NA,NA,NA,NA,NA,NA,NA,NA,NA,NA,NA,NA,NA,NA,NA
aa4a0,Deep Question,html.Page,3_0_2_0_5_0_0,NA,NA,form submission,4119.96,496551,496540.42,496557.04,500677,500677,2023-10-18T08:27:17Z,500676.24,NULL,Niveau,kiwango,d,NA,NA,NA,d,NA,NA,2,NA,NA,NA,NA,NA,NA,NA,NA,NA,NA,NA,NA,NA,NA,NA,NA,NA,NA,NA
aa4a0,"""Richtig""-Screen",canvas.Screen,3_0_2_0_5_0_1,NA,NA,skipped,NA,500680,NA,NA,500677,500680,2023-10-18T08:27:17Z,500676.24,NULL,Niveau,kiwango,d,NA,NA,NA,NA,sdf,NA,2,NA,NA,NA,NA,NA,NA,NA,NA,NA,NA,NA,NA,NA,NA,NA,NA,NA,NA,NA
aa4a0,"""Falsch""-Screen",canvas.Screen,3_0_2_0_5_0_2,NA,NA,timeout,4996.28,500683,500675.9,500676.24,505655.92,505657,2023-10-18T08:27:22Z,505672.52,NULL,Niveau,kiwango,d,NA,NA,NA,NA,sdf,0,2,NA,NA,NA,NA,NA,NA,NA,NA,NA,NA,NA,NA,NA,NA,NA,NA,NA,NA,NA
aa4a0,deep,flow.Sequence,3_0_2_0_5_0,NA,NA,completion,9098.88,496551,496540.42,496557.04,505655.92,505658,2023-10-18T08:27:22Z,505672.52,NULL,Niveau,kiwango,d,NA,NA,NA,NA,sdf,NA,2,NA,NA,NA,NA,NA,NA,NA,NA,NA,NA,NA,NA,NA,NA,NA,NA,NA,NA,NA
aa4a0,shallow,flow.Sequence,3_0_2_0_5_1,NA,NA,skipped,NA,505658,NA,NA,505655.92,505659,2023-10-18T08:27:22Z,505672.52,NULL,Niveau,kiwango,d,NA,NA,NA,NA,sdf,NA,2,NA,NA,NA,NA,NA,NA,NA,NA,NA,NA,NA,NA,NA,NA,NA,NA,NA,NA,NA
aa4a0,task,flow.Sequence,3_0_2_0_5,NA,NA,completion,9098.88,496551,496540.42,496557.04,505655.92,505659,2023-10-18T08:27:22Z,505672.52,NULL,Niveau,kiwango,d,NA,NA,NA,NA,sdf,NA,2,NA,NA,NA,NA,NA,NA,NA,NA,NA,NA,NA,NA,NA,NA,NA,NA,NA,NA,NA
aa4a0,Deep Question,html.Page,3_0_2_0_6_0_0,NA,NA,form submission,3967.48,505659,505655.92,505672.52,509640,509640,2023-10-18T08:27:26Z,509638.62,NULL,Papier,karatasi,d,NA,NA,NA,d,NA,NA,2,NA,NA,NA,NA,NA,NA,NA,NA,NA,NA,NA,NA,NA,NA,NA,NA,NA,NA,NA
aa4a0,"""Richtig""-Screen",canvas.Screen,3_0_2_0_6_0_1,NA,NA,skipped,NA,509643,NA,NA,509640,509643,2023-10-18T08:27:26Z,509638.62,NULL,Papier,karatasi,d,NA,NA,NA,NA,sdf,NA,2,NA,NA,NA,NA,NA,NA,NA,NA,NA,NA,NA,NA,NA,NA,NA,NA,NA,NA,NA
aa4a0,"""Falsch""-Screen",canvas.Screen,3_0_2_0_6_0_2,NA,NA,timeout,4999.48,509646,509638.16,509638.62,514621.44,514623,2023-10-18T08:27:31Z,514638.1,NULL,Papier,karatasi,d,NA,NA,NA,NA,sdf,0,2,NA,NA,NA,NA,NA,NA,NA,NA,NA,NA,NA,NA,NA,NA,NA,NA,NA,NA,NA
aa4a0,deep,flow.Sequence,3_0_2_0_6_0,NA,NA,completion,8948.92,505659,505655.92,505672.52,514621.44,514624,2023-10-18T08:27:31Z,514638.1,NULL,Papier,karatasi,d,NA,NA,NA,NA,sdf,NA,2,NA,NA,NA,NA,NA,NA,NA,NA,NA,NA,NA,NA,NA,NA,NA,NA,NA,NA,NA
aa4a0,shallow,flow.Sequence,3_0_2_0_6_1,NA,NA,skipped,NA,514625,NA,NA,514621.44,514625,2023-10-18T08:27:31Z,514638.1,NULL,Papier,karatasi,d,NA,NA,NA,NA,sdf,NA,2,NA,NA,NA,NA,NA,NA,NA,NA,NA,NA,NA,NA,NA,NA,NA,NA,NA,NA,NA
aa4a0,task,flow.Sequence,3_0_2_0_6,NA,NA,completion,8948.92,505659,505655.92,505672.52,514621.44,514626,2023-10-18T08:27:31Z,514638.1,NULL,Papier,karatasi,d,NA,NA,NA,NA,sdf,NA,2,NA,NA,NA,NA,NA,NA,NA,NA,NA,NA,NA,NA,NA,NA,NA,NA,NA,NA,NA
aa4a0,Deep Question,html.Page,3_0_2_0_7_0_0,NA,NA,form submission,2258.9,514627,514621.44,514638.1,516897,516898,2023-10-18T08:27:33Z,516904.46,NULL,Tester,wanaojaribu,d,NA,NA,NA,d,NA,NA,2,NA,NA,NA,NA,NA,NA,NA,NA,NA,NA,NA,NA,NA,NA,NA,NA,NA,NA,NA
aa4a0,"""Richtig""-Screen",canvas.Screen,3_0_2_0_7_0_1,NA,NA,skipped,NA,516900,NA,NA,516897,516900,2023-10-18T08:27:33Z,516904.46,NULL,Tester,wanaojaribu,d,NA,NA,NA,NA,sdf,NA,2,NA,NA,NA,NA,NA,NA,NA,NA,NA,NA,NA,NA,NA,NA,NA,NA,NA,NA,NA
aa4a0,"""Falsch""-Screen",canvas.Screen,3_0_2_0_7_0_2,NA,NA,timeout,4999.36,516904,516896.42,516904.46,521887.14,521889,2023-10-18T08:27:38Z,521903.82,NULL,Tester,wanaojaribu,d,NA,NA,NA,NA,sdf,0,2,NA,NA,NA,NA,NA,NA,NA,NA,NA,NA,NA,NA,NA,NA,NA,NA,NA,NA,NA
aa4a0,deep,flow.Sequence,3_0_2_0_7_0,NA,NA,completion,7249.04,514627,514621.44,514638.1,521887.14,521890,2023-10-18T08:27:38Z,521903.82,NULL,Tester,wanaojaribu,d,NA,NA,NA,NA,sdf,NA,2,NA,NA,NA,NA,NA,NA,NA,NA,NA,NA,NA,NA,NA,NA,NA,NA,NA,NA,NA
aa4a0,shallow,flow.Sequence,3_0_2_0_7_1,NA,NA,skipped,NA,521890,NA,NA,521887.14,521890,2023-10-18T08:27:38Z,521903.82,NULL,Tester,wanaojaribu,d,NA,NA,NA,NA,sdf,NA,2,NA,NA,NA,NA,NA,NA,NA,NA,NA,NA,NA,NA,NA,NA,NA,NA,NA,NA,NA
aa4a0,task,flow.Sequence,3_0_2_0_7,NA,NA,completion,7249.04,514627,514621.44,514638.1,521887.14,521891,2023-10-18T08:27:38Z,521903.82,NULL,Tester,wanaojaribu,d,NA,NA,NA,NA,sdf,NA,2,NA,NA,NA,NA,NA,NA,NA,NA,NA,NA,NA,NA,NA,NA,NA,NA,NA,NA,NA
aa4a0,block,flow.Loop,3_0_2_0,NA,NA,completion,84454.18,437433,437432.76,437432.96,521887.14,521891,2023-10-18T08:27:38Z,521903.82,NULL,NA,NA,NA,NA,NA,NA,NA,sdf,NA,2,NA,NA,NA,NA,NA,NA,NA,NA,NA,NA,NA,NA,NA,NA,NA,NA,NA,NA,NA
aa4a0,weiter,canvas.Screen,3_0_2_1,sdf,keypress(Space),response,1498.18,521892,521887.14,521903.82,523402,523408,2023-10-18T08:27:40Z,523464.54,NULL,NA,NA,NA,NA,NA,NA,NA,sdf,NA,2,NA,NA,NA,NA,NA,NA,NA,NA,NA,NA,NA,NA,NA,NA,NA,NA,NA,NA,NA
aa4a0,check continue,flow.Sequence,3_0_2,NA,NA,completion,85969.04,437433,437432.76,437432.96,523402,523408,2023-10-18T08:27:40Z,523464.54,NULL,NA,NA,NA,NA,NA,NA,NA,sdf,NA,2,NA,NA,NA,NA,NA,NA,NA,NA,NA,NA,NA,NA,NA,NA,NA,NA,NA,NA,NA
aa4a0,deep,flow.Sequence,3_0_3_0_0_0,NA,NA,skipped,NA,523464,NA,NA,523402,523464,2023-10-18T08:27:40Z,523464.54,NULL,Vorwurf,mashtaka,s,msukumo,mtangulizi,uenyekiti,NA,qt,NA,3,NA,NA,NA,NA,NA,NA,NA,NA,NA,NA,NA,NA,NA,NA,NA,NA,NA,NA,NA
aa4a0,Shallow Question,html.Page,3_0_3_0_0_1_0,NA,NA,form submission,6708.46,523464,523464.18,523464.54,530173,530174,2023-10-18T08:27:46Z,530172.48,NULL,Vorwurf,mashtaka,s,msukumo,mtangulizi,uenyekiti,mashtaka,NA,NA,3,NA,NA,NA,NA,NA,NA,NA,NA,NA,NA,NA,NA,NA,NA,NA,NA,NA,NA,NA
aa4a0,"""Richtig""-Screen",canvas.Screen,3_0_3_0_0_1_1,NA,NA,timeout,4996.3200000001,530176,530172.12,530172.48,535152.12,535154,2023-10-18T08:27:51Z,535168.8,NULL,Vorwurf,mashtaka,s,msukumo,mtangulizi,uenyekiti,NA,qt,1,3,NA,NA,NA,NA,NA,NA,NA,NA,NA,NA,NA,NA,NA,NA,NA,NA,NA,NA,NA
aa4a0,"""Falsch""-Screen",canvas.Screen,3_0_3_0_0_1_2,NA,NA,skipped,NA,535159,NA,NA,535152.12,535160,2023-10-18T08:27:51Z,535168.8,NULL,Vorwurf,mashtaka,s,msukumo,mtangulizi,uenyekiti,NA,qt,NA,3,NA,NA,NA,NA,NA,NA,NA,NA,NA,NA,NA,NA,NA,NA,NA,NA,NA,NA,NA
aa4a0,shallow,flow.Sequence,3_0_3_0_0_1,NA,NA,completion,11687.58,523464,523464.18,523464.54,535152.12,535160,2023-10-18T08:27:51Z,535168.8,NULL,Vorwurf,mashtaka,s,msukumo,mtangulizi,uenyekiti,NA,qt,NA,3,NA,NA,NA,NA,NA,NA,NA,NA,NA,NA,NA,NA,NA,NA,NA,NA,NA,NA,NA
aa4a0,task,flow.Sequence,3_0_3_0_0,NA,NA,completion,11687.58,523464,523464.18,523464.54,535152.12,535161,2023-10-18T08:27:51Z,535168.8,NULL,Vorwurf,mashtaka,s,msukumo,mtangulizi,uenyekiti,NA,qt,NA,3,NA,NA,NA,NA,NA,NA,NA,NA,NA,NA,NA,NA,NA,NA,NA,NA,NA,NA,NA
aa4a0,Deep Question,html.Page,3_0_3_0_1_0_0,NA,NA,form submission,3386.2,535161,535152.12,535168.8,538555,538555,2023-10-18T08:27:55Z,538568.3,NULL,Schüler,mwanafunzi,d,NA,NA,NA,d,NA,NA,3,NA,NA,NA,NA,NA,NA,NA,NA,NA,NA,NA,NA,NA,NA,NA,NA,NA,NA,NA
aa4a0,"""Richtig""-Screen",canvas.Screen,3_0_3_0_1_0_1,NA,NA,skipped,NA,538557,NA,NA,538555,538557,2023-10-18T08:27:55Z,538568.3,NULL,Schüler,mwanafunzi,d,NA,NA,NA,NA,qt,NA,3,NA,NA,NA,NA,NA,NA,NA,NA,NA,NA,NA,NA,NA,NA,NA,NA,NA,NA,NA
aa4a0,"""Falsch""-Screen",canvas.Screen,3_0_3_0_1_0_2,NA,NA,timeout,4999.36,538560,538553.4,538568.3,543551,543555,2023-10-18T08:28:00Z,543567.66,NULL,Schüler,mwanafunzi,d,NA,NA,NA,NA,qt,0,3,NA,NA,NA,NA,NA,NA,NA,NA,NA,NA,NA,NA,NA,NA,NA,NA,NA,NA,NA
aa4a0,deep,flow.Sequence,3_0_3_0_1_0,NA,NA,completion,8382.2,535161,535152.12,535168.8,543551,543559,2023-10-18T08:28:00Z,543567.66,NULL,Schüler,mwanafunzi,d,NA,NA,NA,NA,qt,NA,3,NA,NA,NA,NA,NA,NA,NA,NA,NA,NA,NA,NA,NA,NA,NA,NA,NA,NA,NA
aa4a0,shallow,flow.Sequence,3_0_3_0_1_1,NA,NA,skipped,NA,543559,NA,NA,543551,543560,2023-10-18T08:28:00Z,543567.66,NULL,Schüler,mwanafunzi,d,NA,NA,NA,NA,qt,NA,3,NA,NA,NA,NA,NA,NA,NA,NA,NA,NA,NA,NA,NA,NA,NA,NA,NA,NA,NA
aa4a0,task,flow.Sequence,3_0_3_0_1,NA,NA,completion,8382.2,535161,535152.12,535168.8,543551,543560,2023-10-18T08:28:00Z,543567.66,NULL,Schüler,mwanafunzi,d,NA,NA,NA,NA,qt,NA,3,NA,NA,NA,NA,NA,NA,NA,NA,NA,NA,NA,NA,NA,NA,NA,NA,NA,NA,NA
aa4a0,Deep Question,html.Page,3_0_3_0_2_0_0,NA,NA,form submission,3076.34,543561,543551,543567.66,546644,546645,2023-10-18T08:28:03Z,546650.66,NULL,Niveau,kiwango,d,NA,NA,NA,s,NA,NA,3,NA,NA,NA,NA,NA,NA,NA,NA,NA,NA,NA,NA,NA,NA,NA,NA,NA,NA,NA
aa4a0,"""Richtig""-Screen",canvas.Screen,3_0_3_0_2_0_1,NA,NA,skipped,NA,546652,NA,NA,546644,546652,2023-10-18T08:28:03Z,546650.66,NULL,Niveau,kiwango,d,NA,NA,NA,NA,qt,NA,3,NA,NA,NA,NA,NA,NA,NA,NA,NA,NA,NA,NA,NA,NA,NA,NA,NA,NA,NA
aa4a0,"""Falsch""-Screen",canvas.Screen,3_0_3_0_2_0_2,NA,NA,timeout,4999.2999999999,546655,546643.12,546650.66,551633.3,551635,2023-10-18T08:28:08Z,551649.96,NULL,Niveau,kiwango,d,NA,NA,NA,NA,qt,0,3,NA,NA,NA,NA,NA,NA,NA,NA,NA,NA,NA,NA,NA,NA,NA,NA,NA,NA,NA
aa4a0,deep,flow.Sequence,3_0_3_0_2_0,NA,NA,completion,8065.64,543560,543551,543567.66,551633.3,551636,2023-10-18T08:28:08Z,551649.96,NULL,Niveau,kiwango,d,NA,NA,NA,NA,qt,NA,3,NA,NA,NA,NA,NA,NA,NA,NA,NA,NA,NA,NA,NA,NA,NA,NA,NA,NA,NA
aa4a0,shallow,flow.Sequence,3_0_3_0_2_1,NA,NA,skipped,NA,551636,NA,NA,551633.3,551636,2023-10-18T08:28:08Z,551649.96,NULL,Niveau,kiwango,d,NA,NA,NA,NA,qt,NA,3,NA,NA,NA,NA,NA,NA,NA,NA,NA,NA,NA,NA,NA,NA,NA,NA,NA,NA,NA
aa4a0,task,flow.Sequence,3_0_3_0_2,NA,NA,completion,8065.64,543560,543551,543567.66,551633.3,551636,2023-10-18T08:28:08Z,551649.96,NULL,Niveau,kiwango,d,NA,NA,NA,NA,qt,NA,3,NA,NA,NA,NA,NA,NA,NA,NA,NA,NA,NA,NA,NA,NA,NA,NA,NA,NA,NA
aa4a0,deep,flow.Sequence,3_0_3_0_3_0,NA,NA,skipped,NA,551636,NA,NA,551633.3,551637,2023-10-18T08:28:08Z,551649.96,NULL,Spionage,upelelezi,s,maslahi,utokazo,magangao,NA,qt,NA,3,NA,NA,NA,NA,NA,NA,NA,NA,NA,NA,NA,NA,NA,NA,NA,NA,NA,NA,NA
aa4a0,Shallow Question,html.Page,3_0_3_0_3_1_0,NA,NA,form submission,5528.04,551637,551633.3,551649.96,557178,557178,2023-10-18T08:28:13Z,557182.6,NULL,Spionage,upelelezi,s,maslahi,utokazo,magangao,upelelezi,NA,NA,3,NA,NA,NA,NA,NA,NA,NA,NA,NA,NA,NA,NA,NA,NA,NA,NA,NA,NA,NA
aa4a0,"""Richtig""-Screen",canvas.Screen,3_0_3_0_3_1_1,NA,NA,timeout,4999.4,557182,557176.86,557182.6,562165.34,562167,2023-10-18T08:28:18Z,562182,NULL,Spionage,upelelezi,s,maslahi,utokazo,magangao,NA,qt,1,3,NA,NA,NA,NA,NA,NA,NA,NA,NA,NA,NA,NA,NA,NA,NA,NA,NA,NA,NA
aa4a0,"""Falsch""-Screen",canvas.Screen,3_0_3_0_3_1_2,NA,NA,skipped,NA,562173,NA,NA,562165.34,562174,2023-10-18T08:28:18Z,562182,NULL,Spionage,upelelezi,s,maslahi,utokazo,magangao,NA,qt,NA,3,NA,NA,NA,NA,NA,NA,NA,NA,NA,NA,NA,NA,NA,NA,NA,NA,NA,NA,NA
aa4a0,shallow,flow.Sequence,3_0_3_0_3_1,NA,NA,completion,10515.38,551637,551633.3,551649.96,562165.34,562175,2023-10-18T08:28:18Z,562182,NULL,Spionage,upelelezi,s,maslahi,utokazo,magangao,NA,qt,NA,3,NA,NA,NA,NA,NA,NA,NA,NA,NA,NA,NA,NA,NA,NA,NA,NA,NA,NA,NA
aa4a0,task,flow.Sequence,3_0_3_0_3,NA,NA,completion,10515.38,551636,551633.3,551649.96,562165.34,562175,2023-10-18T08:28:18Z,562182,NULL,Spionage,upelelezi,s,maslahi,utokazo,magangao,NA,qt,NA,3,NA,NA,NA,NA,NA,NA,NA,NA,NA,NA,NA,NA,NA,NA,NA,NA,NA,NA,NA
aa4a0,deep,flow.Sequence,3_0_3_0_4_0,NA,NA,skipped,NA,562175,NA,NA,562165.34,562176,2023-10-18T08:28:18Z,562182,NULL,Entwicklung,maendeleo,s,uangavu,mshindwa,badiliko,NA,qt,NA,3,NA,NA,NA,NA,NA,NA,NA,NA,NA,NA,NA,NA,NA,NA,NA,NA,NA,NA,NA
aa4a0,Shallow Question,html.Page,3_0_3_0_4_1_0,NA,NA,form submission,5612,562176,562165.34,562182,567794,567794,2023-10-18T08:28:24Z,567797.96,NULL,Entwicklung,maendeleo,s,uangavu,mshindwa,badiliko,mshindwa,NA,NA,3,NA,NA,NA,NA,NA,NA,NA,NA,NA,NA,NA,NA,NA,NA,NA,NA,NA,NA,NA
aa4a0,"""Richtig""-Screen",canvas.Screen,3_0_3_0_4_1_1,NA,NA,skipped,NA,567797,NA,NA,567794,567797,2023-10-18T08:28:24Z,567797.96,NULL,Entwicklung,maendeleo,s,uangavu,mshindwa,badiliko,NA,qt,NA,3,NA,NA,NA,NA,NA,NA,NA,NA,NA,NA,NA,NA,NA,NA,NA,NA,NA,NA,NA
aa4a0,"""Falsch""-Screen",canvas.Screen,3_0_3_0_4_1_2,NA,NA,timeout,4999.3200000001,567799,567792.32,567797.96,572780.62,572782,2023-10-18T08:28:29Z,572797.28,NULL,Entwicklung,maendeleo,s,uangavu,mshindwa,badiliko,NA,qt,0,3,NA,NA,NA,NA,NA,NA,NA,NA,NA,NA,NA,NA,NA,NA,NA,NA,NA,NA,NA
aa4a0,shallow,flow.Sequence,3_0_3_0_4_1,NA,NA,completion,10598.62,562176,562165.34,562182,572780.62,572782,2023-10-18T08:28:29Z,572797.28,NULL,Entwicklung,maendeleo,s,uangavu,mshindwa,badiliko,NA,qt,NA,3,NA,NA,NA,NA,NA,NA,NA,NA,NA,NA,NA,NA,NA,NA,NA,NA,NA,NA,NA
aa4a0,task,flow.Sequence,3_0_3_0_4,NA,NA,completion,10598.62,562175,562165.34,562182,572780.62,572783,2023-10-18T08:28:29Z,572797.28,NULL,Entwicklung,maendeleo,s,uangavu,mshindwa,badiliko,NA,qt,NA,3,NA,NA,NA,NA,NA,NA,NA,NA,NA,NA,NA,NA,NA,NA,NA,NA,NA,NA,NA
aa4a0,Deep Question,html.Page,3_0_3_0_5_0_0,NA,NA,form submission,3356.72,572783,572780.62,572797.28,576154,576154,2023-10-18T08:28:32Z,576163.46,NULL,Tester,wanaojaribu,d,NA,NA,NA,s,NA,NA,3,NA,NA,NA,NA,NA,NA,NA,NA,NA,NA,NA,NA,NA,NA,NA,NA,NA,NA,NA
aa4a0,"""Richtig""-Screen",canvas.Screen,3_0_3_0_5_0_1,NA,NA,skipped,NA,576157,NA,NA,576154,576157,2023-10-18T08:28:32Z,576163.46,NULL,Tester,wanaojaribu,d,NA,NA,NA,NA,qt,NA,3,NA,NA,NA,NA,NA,NA,NA,NA,NA,NA,NA,NA,NA,NA,NA,NA,NA,NA,NA
aa4a0,"""Falsch""-Screen",canvas.Screen,3_0_3_0_5_0_2,NA,NA,timeout,4999.4600000001,576160,576152.42,576163.46,581146.26,581148,2023-10-18T08:28:37Z,581162.92,NULL,Tester,wanaojaribu,d,NA,NA,NA,NA,qt,0,3,NA,NA,NA,NA,NA,NA,NA,NA,NA,NA,NA,NA,NA,NA,NA,NA,NA,NA,NA
aa4a0,deep,flow.Sequence,3_0_3_0_5_0,NA,NA,completion,8348.98,572783,572780.62,572797.28,581146.26,581148,2023-10-18T08:28:37Z,581162.92,NULL,Tester,wanaojaribu,d,NA,NA,NA,NA,qt,NA,3,NA,NA,NA,NA,NA,NA,NA,NA,NA,NA,NA,NA,NA,NA,NA,NA,NA,NA,NA
aa4a0,shallow,flow.Sequence,3_0_3_0_5_1,NA,NA,skipped,NA,581149,NA,NA,581146.26,581149,2023-10-18T08:28:37Z,581162.92,NULL,Tester,wanaojaribu,d,NA,NA,NA,NA,qt,NA,3,NA,NA,NA,NA,NA,NA,NA,NA,NA,NA,NA,NA,NA,NA,NA,NA,NA,NA,NA
aa4a0,task,flow.Sequence,3_0_3_0_5,NA,NA,completion,8348.98,572783,572780.62,572797.28,581146.26,581149,2023-10-18T08:28:37Z,581162.92,NULL,Tester,wanaojaribu,d,NA,NA,NA,NA,qt,NA,3,NA,NA,NA,NA,NA,NA,NA,NA,NA,NA,NA,NA,NA,NA,NA,NA,NA,NA,NA
aa4a0,deep,flow.Sequence,3_0_3_0_6_0,NA,NA,skipped,NA,581150,NA,NA,581146.26,581150,2023-10-18T08:28:37Z,581162.92,NULL,Fenster,dirisha,s,walakini,tasawari,maarifa,NA,qt,NA,3,NA,NA,NA,NA,NA,NA,NA,NA,NA,NA,NA,NA,NA,NA,NA,NA,NA,NA,NA
aa4a0,Shallow Question,html.Page,3_0_3_0_6_1_0,NA,NA,form submission,5375.08,581150,581146.26,581162.92,586538,586538,2023-10-18T08:28:43Z,586537.66,NULL,Fenster,dirisha,s,walakini,tasawari,maarifa,dirisha,NA,NA,3,NA,NA,NA,NA,NA,NA,NA,NA,NA,NA,NA,NA,NA,NA,NA,NA,NA,NA,NA
aa4a0,"""Richtig""-Screen",canvas.Screen,3_0_3_0_6_1_1,NA,NA,timeout,5007.22,586542,586537.36,586537.66,591528.22,591529,2023-10-18T08:28:48Z,591544.88,NULL,Fenster,dirisha,s,walakini,tasawari,maarifa,NA,qt,1,3,NA,NA,NA,NA,NA,NA,NA,NA,NA,NA,NA,NA,NA,NA,NA,NA,NA,NA,NA
aa4a0,"""Falsch""-Screen",canvas.Screen,3_0_3_0_6_1_2,NA,NA,skipped,NA,591532,NA,NA,591528.22,591532,2023-10-18T08:28:48Z,591544.88,NULL,Fenster,dirisha,s,walakini,tasawari,maarifa,NA,qt,NA,3,NA,NA,NA,NA,NA,NA,NA,NA,NA,NA,NA,NA,NA,NA,NA,NA,NA,NA,NA
aa4a0,shallow,flow.Sequence,3_0_3_0_6_1,NA,NA,completion,10365.3,581150,581146.26,581162.92,591528.22,591532,2023-10-18T08:28:48Z,591544.88,NULL,Fenster,dirisha,s,walakini,tasawari,maarifa,NA,qt,NA,3,NA,NA,NA,NA,NA,NA,NA,NA,NA,NA,NA,NA,NA,NA,NA,NA,NA,NA,NA
aa4a0,task,flow.Sequence,3_0_3_0_6,NA,NA,completion,10365.3,581149,581146.26,581162.92,591528.22,591532,2023-10-18T08:28:48Z,591544.88,NULL,Fenster,dirisha,s,walakini,tasawari,maarifa,NA,qt,NA,3,NA,NA,NA,NA,NA,NA,NA,NA,NA,NA,NA,NA,NA,NA,NA,NA,NA,NA,NA
aa4a0,Deep Question,html.Page,3_0_3_0_7_0_0,NA,NA,form submission,2860.12,591533,591528.22,591544.88,594405,594405,2023-10-18T08:28:51Z,594411.18,NULL,Papier,karatasi,d,NA,NA,NA,s,NA,NA,3,NA,NA,NA,NA,NA,NA,NA,NA,NA,NA,NA,NA,NA,NA,NA,NA,NA,NA,NA
aa4a0,"""Richtig""-Screen",canvas.Screen,3_0_3_0_7_0_1,NA,NA,skipped,NA,594408,NA,NA,594405,594409,2023-10-18T08:28:51Z,594411.18,NULL,Papier,karatasi,d,NA,NA,NA,NA,qt,NA,3,NA,NA,NA,NA,NA,NA,NA,NA,NA,NA,NA,NA,NA,NA,NA,NA,NA,NA,NA
aa4a0,"""Falsch""-Screen",canvas.Screen,3_0_3_0_7_0_2,NA,NA,timeout,4999.3999999999,594411,594404.1,594411.18,599393.94,599395,2023-10-18T08:28:56Z,599410.58,NULL,Papier,karatasi,d,NA,NA,NA,NA,qt,0,3,NA,NA,NA,NA,NA,NA,NA,NA,NA,NA,NA,NA,NA,NA,NA,NA,NA,NA,NA
aa4a0,deep,flow.Sequence,3_0_3_0_7_0,NA,NA,completion,7849.0599999999,591533,591528.22,591544.88,599393.94,599396,2023-10-18T08:28:56Z,599410.58,NULL,Papier,karatasi,d,NA,NA,NA,NA,qt,NA,3,NA,NA,NA,NA,NA,NA,NA,NA,NA,NA,NA,NA,NA,NA,NA,NA,NA,NA,NA
aa4a0,shallow,flow.Sequence,3_0_3_0_7_1,NA,NA,skipped,NA,599396,NA,NA,599393.94,599396,2023-10-18T08:28:56Z,599410.58,NULL,Papier,karatasi,d,NA,NA,NA,NA,qt,NA,3,NA,NA,NA,NA,NA,NA,NA,NA,NA,NA,NA,NA,NA,NA,NA,NA,NA,NA,NA
aa4a0,task,flow.Sequence,3_0_3_0_7,NA,NA,completion,7849.0599999999,591533,591528.22,591544.88,599393.94,599397,2023-10-18T08:28:56Z,599410.58,NULL,Papier,karatasi,d,NA,NA,NA,NA,qt,NA,3,NA,NA,NA,NA,NA,NA,NA,NA,NA,NA,NA,NA,NA,NA,NA,NA,NA,NA,NA
aa4a0,block,flow.Loop,3_0_3_0,NA,NA,completion,75929.4,523464,523464.18,523464.54,599393.94,599398,2023-10-18T08:28:56Z,599410.58,NULL,NA,NA,NA,NA,NA,NA,NA,qt,NA,3,NA,NA,NA,NA,NA,NA,NA,NA,NA,NA,NA,NA,NA,NA,NA,NA,NA,NA,NA
aa4a0,weiter,canvas.Screen,3_0_3_1,sdf,keypress(Space),response,1414.42,599398,599393.94,599410.58,600825,600837,2023-10-18T08:28:57Z,600901.34,NULL,NA,NA,NA,NA,NA,NA,NA,qt,NA,3,NA,NA,NA,NA,NA,NA,NA,NA,NA,NA,NA,NA,NA,NA,NA,NA,NA,NA,NA
aa4a0,check continue,flow.Sequence,3_0_3,NA,NA,completion,77360.46,523464,523464.18,523464.54,600825,600837,2023-10-18T08:28:57Z,600901.34,NULL,NA,NA,NA,NA,NA,NA,NA,qt,NA,3,NA,NA,NA,NA,NA,NA,NA,NA,NA,NA,NA,NA,NA,NA,NA,NA,NA,NA,NA
aa4a0,Deep Question,html.Page,3_0_4_0_0_0_0,NA,NA,form submission,13702.66,600901,600901.02,600901.34,614604,614604,2023-10-18T08:29:11Z,614608.62,NULL,Niveau,kiwango,d,NA,NA,NA,kawunz,NA,NA,4,NA,NA,NA,NA,NA,NA,NA,NA,NA,NA,NA,NA,NA,NA,NA,NA,NA,NA,NA
aa4a0,"""Richtig""-Screen",canvas.Screen,3_0_4_0_0_0_1,NA,NA,skipped,NA,614606,NA,NA,614604,614607,2023-10-18T08:29:11Z,614608.62,NULL,Niveau,kiwango,d,NA,NA,NA,NA,sd,NA,4,NA,NA,NA,NA,NA,NA,NA,NA,NA,NA,NA,NA,NA,NA,NA,NA,NA,NA,NA
aa4a0,"""Falsch""-Screen",canvas.Screen,3_0_4_0_0_0_2,NA,NA,timeout,4999.38,614609,614602.76,614608.62,619591.32,619594,2023-10-18T08:29:16Z,619608,NULL,Niveau,kiwango,d,NA,NA,NA,NA,sd,0,4,NA,NA,NA,NA,NA,NA,NA,NA,NA,NA,NA,NA,NA,NA,NA,NA,NA,NA,NA
aa4a0,deep,flow.Sequence,3_0_4_0_0_0,NA,NA,completion,18689.98,600901,600901.02,600901.34,619591.32,619596,2023-10-18T08:29:16Z,619608,NULL,Niveau,kiwango,d,NA,NA,NA,NA,sd,NA,4,NA,NA,NA,NA,NA,NA,NA,NA,NA,NA,NA,NA,NA,NA,NA,NA,NA,NA,NA
aa4a0,shallow,flow.Sequence,3_0_4_0_0_1,NA,NA,skipped,NA,619597,NA,NA,619591.32,619597,2023-10-18T08:29:16Z,619608,NULL,Niveau,kiwango,d,NA,NA,NA,NA,sd,NA,4,NA,NA,NA,NA,NA,NA,NA,NA,NA,NA,NA,NA,NA,NA,NA,NA,NA,NA,NA
aa4a0,task,flow.Sequence,3_0_4_0_0,NA,NA,completion,18689.98,600901,600901.02,600901.34,619591.32,619599,2023-10-18T08:29:16Z,619608,NULL,Niveau,kiwango,d,NA,NA,NA,NA,sd,NA,4,NA,NA,NA,NA,NA,NA,NA,NA,NA,NA,NA,NA,NA,NA,NA,NA,NA,NA,NA
aa4a0,Deep Question,html.Page,3_0_4_0_1_0_0,NA,NA,form submission,5203,619600,619591.32,619608,624811,624812,2023-10-18T08:29:21Z,624823.92,NULL,Papier,karatasi,d,NA,NA,NA,d,NA,NA,4,NA,NA,NA,NA,NA,NA,NA,NA,NA,NA,NA,NA,NA,NA,NA,NA,NA,NA,NA
aa4a0,"""Richtig""-Screen",canvas.Screen,3_0_4_0_1_0_1,NA,NA,skipped,NA,624818,NA,NA,624811,624819,2023-10-18T08:29:21Z,624823.92,NULL,Papier,karatasi,d,NA,NA,NA,NA,sd,NA,4,NA,NA,NA,NA,NA,NA,NA,NA,NA,NA,NA,NA,NA,NA,NA,NA,NA,NA,NA
aa4a0,"""Falsch""-Screen",canvas.Screen,3_0_4_0_1_0_2,NA,NA,timeout,4999.3999999999,624822,624810.22,624823.92,629806.74,629808,2023-10-18T08:29:26Z,629823.32,NULL,Papier,karatasi,d,NA,NA,NA,NA,sd,0,4,NA,NA,NA,NA,NA,NA,NA,NA,NA,NA,NA,NA,NA,NA,NA,NA,NA,NA,NA
aa4a0,deep,flow.Sequence,3_0_4_0_1_0,NA,NA,completion,10198.74,619600,619591.32,619608,629806.74,629809,2023-10-18T08:29:26Z,629823.32,NULL,Papier,karatasi,d,NA,NA,NA,NA,sd,NA,4,NA,NA,NA,NA,NA,NA,NA,NA,NA,NA,NA,NA,NA,NA,NA,NA,NA,NA,NA
aa4a0,shallow,flow.Sequence,3_0_4_0_1_1,NA,NA,skipped,NA,629809,NA,NA,629806.74,629811,2023-10-18T08:29:26Z,629823.32,NULL,Papier,karatasi,d,NA,NA,NA,NA,sd,NA,4,NA,NA,NA,NA,NA,NA,NA,NA,NA,NA,NA,NA,NA,NA,NA,NA,NA,NA,NA
aa4a0,task,flow.Sequence,3_0_4_0_1,NA,NA,completion,10198.74,619599,619591.32,619608,629806.74,629811,2023-10-18T08:29:26Z,629823.32,NULL,Papier,karatasi,d,NA,NA,NA,NA,sd,NA,4,NA,NA,NA,NA,NA,NA,NA,NA,NA,NA,NA,NA,NA,NA,NA,NA,NA,NA,NA
aa4a0,Deep Question,html.Page,3_0_4_0_2_0_0,NA,NA,form submission,3383.6800000001,629811,629806.74,629823.32,633207,633208,2023-10-18T08:29:29Z,633206.38,NULL,Tester,wanaojaribu,d,NA,NA,NA,d,NA,NA,4,NA,NA,NA,NA,NA,NA,NA,NA,NA,NA,NA,NA,NA,NA,NA,NA,NA,NA,NA
aa4a0,"""Richtig""-Screen",canvas.Screen,3_0_4_0_2_0_1,NA,NA,skipped,NA,633211,NA,NA,633207,633211,2023-10-18T08:29:29Z,633206.38,NULL,Tester,wanaojaribu,d,NA,NA,NA,NA,sd,NA,4,NA,NA,NA,NA,NA,NA,NA,NA,NA,NA,NA,NA,NA,NA,NA,NA,NA,NA,NA
aa4a0,"""Falsch""-Screen",canvas.Screen,3_0_4_0_2_0_2,NA,NA,timeout,4999.16,633213,633206.1,633206.38,638188.94,638191,2023-10-18T08:29:34Z,638205.54,NULL,Tester,wanaojaribu,d,NA,NA,NA,NA,sd,0,4,NA,NA,NA,NA,NA,NA,NA,NA,NA,NA,NA,NA,NA,NA,NA,NA,NA,NA,NA
aa4a0,deep,flow.Sequence,3_0_4_0_2_0,NA,NA,completion,8365.62,629811,629806.74,629823.32,638188.94,638192,2023-10-18T08:29:34Z,638205.54,NULL,Tester,wanaojaribu,d,NA,NA,NA,NA,sd,NA,4,NA,NA,NA,NA,NA,NA,NA,NA,NA,NA,NA,NA,NA,NA,NA,NA,NA,NA,NA
aa4a0,shallow,flow.Sequence,3_0_4_0_2_1,NA,NA,skipped,NA,638192,NA,NA,638188.94,638192,2023-10-18T08:29:34Z,638205.54,NULL,Tester,wanaojaribu,d,NA,NA,NA,NA,sd,NA,4,NA,NA,NA,NA,NA,NA,NA,NA,NA,NA,NA,NA,NA,NA,NA,NA,NA,NA,NA
aa4a0,task,flow.Sequence,3_0_4_0_2,NA,NA,completion,8365.62,629811,629806.74,629823.32,638188.94,638193,2023-10-18T08:29:34Z,638205.54,NULL,Tester,wanaojaribu,d,NA,NA,NA,NA,sd,NA,4,NA,NA,NA,NA,NA,NA,NA,NA,NA,NA,NA,NA,NA,NA,NA,NA,NA,NA,NA
aa4a0,Deep Question,html.Page,3_0_4_0_3_0_0,NA,NA,form submission,6976.46,638193,638188.94,638205.54,645182,645183,2023-10-18T08:29:41Z,645181.04,NULL,Schüler,mwanafunzi,d,NA,NA,NA,mwanafunzi,NA,NA,4,NA,NA,NA,NA,NA,NA,NA,NA,NA,NA,NA,NA,NA,NA,NA,NA,NA,NA,NA
aa4a0,"""Richtig""-Screen",canvas.Screen,3_0_4_0_3_0_1,NA,NA,timeout,5006.3199999999,645184,645180.74,645181.04,650170.72,650172,2023-10-18T08:29:46Z,650187.36,NULL,Schüler,mwanafunzi,d,NA,NA,NA,NA,sd,1,4,NA,NA,NA,NA,NA,NA,NA,NA,NA,NA,NA,NA,NA,NA,NA,NA,NA,NA,NA
aa4a0,"""Falsch""-Screen",canvas.Screen,3_0_4_0_3_0_2,NA,NA,skipped,NA,650179,NA,NA,650170.72,650179,2023-10-18T08:29:46Z,650187.36,NULL,Schüler,mwanafunzi,d,NA,NA,NA,NA,sd,NA,4,NA,NA,NA,NA,NA,NA,NA,NA,NA,NA,NA,NA,NA,NA,NA,NA,NA,NA,NA
aa4a0,deep,flow.Sequence,3_0_4_0_3_0,NA,NA,completion,11965.18,638193,638188.94,638205.54,650170.72,650179,2023-10-18T08:29:46Z,650187.36,NULL,Schüler,mwanafunzi,d,NA,NA,NA,NA,sd,NA,4,NA,NA,NA,NA,NA,NA,NA,NA,NA,NA,NA,NA,NA,NA,NA,NA,NA,NA,NA
aa4a0,shallow,flow.Sequence,3_0_4_0_3_1,NA,NA,skipped,NA,650179,NA,NA,650170.72,650179,2023-10-18T08:29:46Z,650187.36,NULL,Schüler,mwanafunzi,d,NA,NA,NA,NA,sd,NA,4,NA,NA,NA,NA,NA,NA,NA,NA,NA,NA,NA,NA,NA,NA,NA,NA,NA,NA,NA
aa4a0,task,flow.Sequence,3_0_4_0_3,NA,NA,completion,11965.18,638193,638188.94,638205.54,650170.72,650180,2023-10-18T08:29:46Z,650187.36,NULL,Schüler,mwanafunzi,d,NA,NA,NA,NA,sd,NA,4,NA,NA,NA,NA,NA,NA,NA,NA,NA,NA,NA,NA,NA,NA,NA,NA,NA,NA,NA
aa4a0,deep,flow.Sequence,3_0_4_0_4_0,NA,NA,skipped,NA,650180,NA,NA,650170.72,650181,2023-10-18T08:29:46Z,650187.36,NULL,Fenster,dirisha,s,walakini,tasawari,maarifa,NA,sd,NA,4,NA,NA,NA,NA,NA,NA,NA,NA,NA,NA,NA,NA,NA,NA,NA,NA,NA,NA,NA
aa4a0,Shallow Question,html.Page,3_0_4_0_4_1_0,NA,NA,form submission,5894.64,650181,650170.72,650187.36,656082,656082,2023-10-18T08:29:52Z,656080.18,NULL,Fenster,dirisha,s,walakini,tasawari,maarifa,dirisha,NA,NA,4,NA,NA,NA,NA,NA,NA,NA,NA,NA,NA,NA,NA,NA,NA,NA,NA,NA,NA,NA
aa4a0,"""Richtig""-Screen",canvas.Screen,3_0_4_0_4_1_1,NA,NA,timeout,5005.7799999999,656084,656079.94,656080.18,661069.34,661071,2023-10-18T08:29:57Z,661085.96,NULL,Fenster,dirisha,s,walakini,tasawari,maarifa,NA,sd,1,4,NA,NA,NA,NA,NA,NA,NA,NA,NA,NA,NA,NA,NA,NA,NA,NA,NA,NA,NA
aa4a0,"""Falsch""-Screen",canvas.Screen,3_0_4_0_4_1_2,NA,NA,skipped,NA,661077,NA,NA,661069.34,661078,2023-10-18T08:29:57Z,661085.96,NULL,Fenster,dirisha,s,walakini,tasawari,maarifa,NA,sd,NA,4,NA,NA,NA,NA,NA,NA,NA,NA,NA,NA,NA,NA,NA,NA,NA,NA,NA,NA,NA
aa4a0,shallow,flow.Sequence,3_0_4_0_4_1,NA,NA,completion,10881.98,650181,650170.72,650187.36,661069.34,661078,2023-10-18T08:29:57Z,661085.96,NULL,Fenster,dirisha,s,walakini,tasawari,maarifa,NA,sd,NA,4,NA,NA,NA,NA,NA,NA,NA,NA,NA,NA,NA,NA,NA,NA,NA,NA,NA,NA,NA
aa4a0,task,flow.Sequence,3_0_4_0_4,NA,NA,completion,10881.98,650180,650170.72,650187.36,661069.34,661079,2023-10-18T08:29:57Z,661085.96,NULL,Fenster,dirisha,s,walakini,tasawari,maarifa,NA,sd,NA,4,NA,NA,NA,NA,NA,NA,NA,NA,NA,NA,NA,NA,NA,NA,NA,NA,NA,NA,NA
aa4a0,deep,flow.Sequence,3_0_4_0_5_0,NA,NA,skipped,NA,661079,NA,NA,661069.34,661079,2023-10-18T08:29:57Z,661085.96,NULL,Spionage,upelelezi,s,maslahi,utokazo,magangao,NA,sd,NA,4,NA,NA,NA,NA,NA,NA,NA,NA,NA,NA,NA,NA,NA,NA,NA,NA,NA,NA,NA
aa4a0,Shallow Question,html.Page,3_0_4_0_5_1_0,NA,NA,form submission,5024.04,661079,661069.34,661085.96,666110,666110,2023-10-18T08:30:02Z,666109.02,NULL,Spionage,upelelezi,s,maslahi,utokazo,magangao,upelelezi,NA,NA,4,NA,NA,NA,NA,NA,NA,NA,NA,NA,NA,NA,NA,NA,NA,NA,NA,NA,NA,NA
aa4a0,"""Richtig""-Screen",canvas.Screen,3_0_4_0_5_1_1,NA,NA,timeout,4992.36,666113,666108.76,666109.02,671084.76,671086,2023-10-18T08:30:07Z,671101.38,NULL,Spionage,upelelezi,s,maslahi,utokazo,magangao,NA,sd,1,4,NA,NA,NA,NA,NA,NA,NA,NA,NA,NA,NA,NA,NA,NA,NA,NA,NA,NA,NA
aa4a0,"""Falsch""-Screen",canvas.Screen,3_0_4_0_5_1_2,NA,NA,skipped,NA,671093,NA,NA,671084.76,671093,2023-10-18T08:30:07Z,671101.38,NULL,Spionage,upelelezi,s,maslahi,utokazo,magangao,NA,sd,NA,4,NA,NA,NA,NA,NA,NA,NA,NA,NA,NA,NA,NA,NA,NA,NA,NA,NA,NA,NA
aa4a0,shallow,flow.Sequence,3_0_4_0_5_1,NA,NA,completion,9998.8,661079,661069.34,661085.96,671084.76,671094,2023-10-18T08:30:07Z,671101.38,NULL,Spionage,upelelezi,s,maslahi,utokazo,magangao,NA,sd,NA,4,NA,NA,NA,NA,NA,NA,NA,NA,NA,NA,NA,NA,NA,NA,NA,NA,NA,NA,NA
aa4a0,task,flow.Sequence,3_0_4_0_5,NA,NA,completion,9998.8,661079,661069.34,661085.96,671084.76,671095,2023-10-18T08:30:07Z,671101.38,NULL,Spionage,upelelezi,s,maslahi,utokazo,magangao,NA,sd,NA,4,NA,NA,NA,NA,NA,NA,NA,NA,NA,NA,NA,NA,NA,NA,NA,NA,NA,NA,NA
aa4a0,deep,flow.Sequence,3_0_4_0_6_0,NA,NA,skipped,NA,671095,NA,NA,671084.76,671095,2023-10-18T08:30:07Z,671101.38,NULL,Entwicklung,maendeleo,s,uangavu,mshindwa,badiliko,NA,sd,NA,4,NA,NA,NA,NA,NA,NA,NA,NA,NA,NA,NA,NA,NA,NA,NA,NA,NA,NA,NA
aa4a0,Shallow Question,html.Page,3_0_4_0_6_1_0,NA,NA,form submission,6271.62,671096,671084.76,671101.38,677373,677376,2023-10-18T08:30:14Z,677400.56,NULL,Entwicklung,maendeleo,s,uangavu,mshindwa,badiliko,maendeleo,NA,NA,4,NA,NA,NA,NA,NA,NA,NA,NA,NA,NA,NA,NA,NA,NA,NA,NA,NA,NA,NA
aa4a0,"""Richtig""-Screen",canvas.Screen,3_0_4_0_6_1_1,NA,NA,timeout,4999.34,677383,677383.9,677400.56,682383.24,682385,2023-10-18T08:30:19Z,682399.9,NULL,Entwicklung,maendeleo,s,uangavu,mshindwa,badiliko,NA,sd,1,4,NA,NA,NA,NA,NA,NA,NA,NA,NA,NA,NA,NA,NA,NA,NA,NA,NA,NA,NA
aa4a0,"""Falsch""-Screen",canvas.Screen,3_0_4_0_6_1_2,NA,NA,skipped,NA,682393,NA,NA,682383.24,682393,2023-10-18T08:30:19Z,682399.9,NULL,Entwicklung,maendeleo,s,uangavu,mshindwa,badiliko,NA,sd,NA,4,NA,NA,NA,NA,NA,NA,NA,NA,NA,NA,NA,NA,NA,NA,NA,NA,NA,NA,NA
aa4a0,shallow,flow.Sequence,3_0_4_0_6_1,NA,NA,completion,11281.86,671096,671084.76,671101.38,682383.24,682393,2023-10-18T08:30:19Z,682399.9,NULL,Entwicklung,maendeleo,s,uangavu,mshindwa,badiliko,NA,sd,NA,4,NA,NA,NA,NA,NA,NA,NA,NA,NA,NA,NA,NA,NA,NA,NA,NA,NA,NA,NA
aa4a0,task,flow.Sequence,3_0_4_0_6,NA,NA,completion,11281.86,671095,671084.76,671101.38,682383.24,682393,2023-10-18T08:30:19Z,682399.9,NULL,Entwicklung,maendeleo,s,uangavu,mshindwa,badiliko,NA,sd,NA,4,NA,NA,NA,NA,NA,NA,NA,NA,NA,NA,NA,NA,NA,NA,NA,NA,NA,NA,NA
aa4a0,deep,flow.Sequence,3_0_4_0_7_0,NA,NA,skipped,NA,682395,NA,NA,682383.24,682395,2023-10-18T08:30:19Z,682399.9,NULL,Vorwurf,mashtaka,s,msukumo,mtangulizi,uenyekiti,NA,sd,NA,4,NA,NA,NA,NA,NA,NA,NA,NA,NA,NA,NA,NA,NA,NA,NA,NA,NA,NA,NA
aa4a0,Shallow Question,html.Page,3_0_4_0_7_1_0,NA,NA,form submission,6163.1,682395,682383.24,682399.9,688563,688563,2023-10-18T08:30:25Z,688582.74,NULL,Vorwurf,mashtaka,s,msukumo,mtangulizi,uenyekiti,mashtaka,NA,NA,4,NA,NA,NA,NA,NA,NA,NA,NA,NA,NA,NA,NA,NA,NA,NA,NA,NA,NA,NA
aa4a0,"""Richtig""-Screen",canvas.Screen,3_0_4_0_7_1_1,NA,NA,timeout,4999.08,688566,688563.86,688582.74,693565.2,693567,2023-10-18T08:30:30Z,693581.82,NULL,Vorwurf,mashtaka,s,msukumo,mtangulizi,uenyekiti,NA,sd,1,4,NA,NA,NA,NA,NA,NA,NA,NA,NA,NA,NA,NA,NA,NA,NA,NA,NA,NA,NA
aa4a0,"""Falsch""-Screen",canvas.Screen,3_0_4_0_7_1_2,NA,NA,skipped,NA,693574,NA,NA,693565.2,693574,2023-10-18T08:30:30Z,693581.82,NULL,Vorwurf,mashtaka,s,msukumo,mtangulizi,uenyekiti,NA,sd,NA,4,NA,NA,NA,NA,NA,NA,NA,NA,NA,NA,NA,NA,NA,NA,NA,NA,NA,NA,NA
aa4a0,shallow,flow.Sequence,3_0_4_0_7_1,NA,NA,completion,11165.3,682395,682383.24,682399.9,693565.2,693575,2023-10-18T08:30:30Z,693581.82,NULL,Vorwurf,mashtaka,s,msukumo,mtangulizi,uenyekiti,NA,sd,NA,4,NA,NA,NA,NA,NA,NA,NA,NA,NA,NA,NA,NA,NA,NA,NA,NA,NA,NA,NA
aa4a0,task,flow.Sequence,3_0_4_0_7,NA,NA,completion,11165.3,682394,682383.24,682399.9,693565.2,693576,2023-10-18T08:30:30Z,693581.82,NULL,Vorwurf,mashtaka,s,msukumo,mtangulizi,uenyekiti,NA,sd,NA,4,NA,NA,NA,NA,NA,NA,NA,NA,NA,NA,NA,NA,NA,NA,NA,NA,NA,NA,NA
aa4a0,block,flow.Loop,3_0_4_0,NA,NA,completion,92663.86,600901,600901.02,600901.34,693565.2,693576,2023-10-18T08:30:30Z,693581.82,NULL,NA,NA,NA,NA,NA,NA,NA,sd,NA,4,NA,NA,NA,NA,NA,NA,NA,NA,NA,NA,NA,NA,NA,NA,NA,NA,NA,NA,NA
aa4a0,weiter,canvas.Screen,3_0_4_1,sdf,keypress(Space),response,1524.1800000001,693577,693565.2,693581.82,695106,695121,2023-10-18T08:30:31Z,695174.16,NULL,NA,NA,NA,NA,NA,NA,NA,sd,NA,4,NA,NA,NA,NA,NA,NA,NA,NA,NA,NA,NA,NA,NA,NA,NA,NA,NA,NA,NA
aa4a0,check continue,flow.Sequence,3_0_4,NA,NA,completion,94204.66,600900,600901.02,600901.34,695106,695122,2023-10-18T08:30:31Z,695174.16,NULL,NA,NA,NA,NA,NA,NA,NA,sd,NA,4,NA,NA,NA,NA,NA,NA,NA,NA,NA,NA,NA,NA,NA,NA,NA,NA,NA,NA,NA
aa4a0,deep,flow.Sequence,3_0_5_0_0_0,NA,NA,skipped,NA,695174,NA,NA,695106,695174,2023-10-18T08:30:31Z,695174.16,NULL,Fenster,dirisha,s,walakini,tasawari,maarifa,NA,sdf,NA,5,NA,NA,NA,NA,NA,NA,NA,NA,NA,NA,NA,NA,NA,NA,NA,NA,NA,NA,NA
aa4a0,Shallow Question,html.Page,3_0_5_0_0_1_0,NA,NA,form submission,2599.84,695174,695173.86,695174.16,697774,697774,2023-10-18T08:30:34Z,697773.04,NULL,Fenster,dirisha,s,walakini,tasawari,maarifa,dirisha,NA,NA,5,NA,NA,NA,NA,NA,NA,NA,NA,NA,NA,NA,NA,NA,NA,NA,NA,NA,NA,NA
aa4a0,"""Richtig""-Screen",canvas.Screen,3_0_5_0_0_1_1,NA,NA,timeout,5007.5399999999,697776,697772.68,697773.04,702764.04,702765,2023-10-18T08:30:39Z,702780.58,NULL,Fenster,dirisha,s,walakini,tasawari,maarifa,NA,sdf,1,5,NA,NA,NA,NA,NA,NA,NA,NA,NA,NA,NA,NA,NA,NA,NA,NA,NA,NA,NA
aa4a0,"""Falsch""-Screen",canvas.Screen,3_0_5_0_0_1_2,NA,NA,skipped,NA,702771,NA,NA,702764.04,702772,2023-10-18T08:30:39Z,702780.58,NULL,Fenster,dirisha,s,walakini,tasawari,maarifa,NA,sdf,NA,5,NA,NA,NA,NA,NA,NA,NA,NA,NA,NA,NA,NA,NA,NA,NA,NA,NA,NA,NA
aa4a0,shallow,flow.Sequence,3_0_5_0_0_1,NA,NA,completion,7589.88,695174,695173.86,695174.16,702764.04,702772,2023-10-18T08:30:39Z,702780.58,NULL,Fenster,dirisha,s,walakini,tasawari,maarifa,NA,sdf,NA,5,NA,NA,NA,NA,NA,NA,NA,NA,NA,NA,NA,NA,NA,NA,NA,NA,NA,NA,NA
aa4a0,task,flow.Sequence,3_0_5_0_0,NA,NA,completion,7589.88,695174,695173.86,695174.16,702764.04,702772,2023-10-18T08:30:39Z,702780.58,NULL,Fenster,dirisha,s,walakini,tasawari,maarifa,NA,sdf,NA,5,NA,NA,NA,NA,NA,NA,NA,NA,NA,NA,NA,NA,NA,NA,NA,NA,NA,NA,NA
aa4a0,Deep Question,html.Page,3_0_5_0_1_0_0,NA,NA,form submission,6519.42,702772,702764.04,702780.58,709300,709301,2023-10-18T08:30:45Z,709313.12,NULL,Papier,karatasi,d,NA,NA,NA,karatasi,NA,NA,5,NA,NA,NA,NA,NA,NA,NA,NA,NA,NA,NA,NA,NA,NA,NA,NA,NA,NA,NA
aa4a0,"""Richtig""-Screen",canvas.Screen,3_0_5_0_1_0_1,NA,NA,timeout,4999.4400000001,709303,709299.62,709313.12,714295.94,714297,2023-10-18T08:30:50Z,714312.56,NULL,Papier,karatasi,d,NA,NA,NA,NA,sdf,1,5,NA,NA,NA,NA,NA,NA,NA,NA,NA,NA,NA,NA,NA,NA,NA,NA,NA,NA,NA
aa4a0,"""Falsch""-Screen",canvas.Screen,3_0_5_0_1_0_2,NA,NA,skipped,NA,714303,NA,NA,714295.94,714303,2023-10-18T08:30:50Z,714312.56,NULL,Papier,karatasi,d,NA,NA,NA,NA,sdf,NA,5,NA,NA,NA,NA,NA,NA,NA,NA,NA,NA,NA,NA,NA,NA,NA,NA,NA,NA,NA
aa4a0,deep,flow.Sequence,3_0_5_0_1_0,NA,NA,completion,11515.36,702772,702764.04,702780.58,714295.94,714304,2023-10-18T08:30:50Z,714312.56,NULL,Papier,karatasi,d,NA,NA,NA,NA,sdf,NA,5,NA,NA,NA,NA,NA,NA,NA,NA,NA,NA,NA,NA,NA,NA,NA,NA,NA,NA,NA
aa4a0,shallow,flow.Sequence,3_0_5_0_1_1,NA,NA,skipped,NA,714304,NA,NA,714295.94,714305,2023-10-18T08:30:50Z,714312.56,NULL,Papier,karatasi,d,NA,NA,NA,NA,sdf,NA,5,NA,NA,NA,NA,NA,NA,NA,NA,NA,NA,NA,NA,NA,NA,NA,NA,NA,NA,NA
aa4a0,task,flow.Sequence,3_0_5_0_1,NA,NA,completion,11515.36,702772,702764.04,702780.58,714295.94,714305,2023-10-18T08:30:50Z,714312.56,NULL,Papier,karatasi,d,NA,NA,NA,NA,sdf,NA,5,NA,NA,NA,NA,NA,NA,NA,NA,NA,NA,NA,NA,NA,NA,NA,NA,NA,NA,NA
aa4a0,deep,flow.Sequence,3_0_5_0_2_0,NA,NA,skipped,NA,714305,NA,NA,714295.94,714306,2023-10-18T08:30:50Z,714312.56,NULL,Entwicklung,maendeleo,s,uangavu,mshindwa,badiliko,NA,sdf,NA,5,NA,NA,NA,NA,NA,NA,NA,NA,NA,NA,NA,NA,NA,NA,NA,NA,NA,NA,NA
aa4a0,Shallow Question,html.Page,3_0_5_0_2_1_0,NA,NA,form submission,6974.4399999999,714306,714295.94,714312.56,721287,721287,2023-10-18T08:30:57Z,721286.26,NULL,Entwicklung,maendeleo,s,uangavu,mshindwa,badiliko,maendeleo,NA,NA,5,NA,NA,NA,NA,NA,NA,NA,NA,NA,NA,NA,NA,NA,NA,NA,NA,NA,NA,NA
aa4a0,"""Richtig""-Screen",canvas.Screen,3_0_5_0_2_1_1,NA,NA,timeout,5008.0599999999,721289,721285.6,721286.26,726277.68,726278,2023-10-18T08:31:02Z,726294.32,NULL,Entwicklung,maendeleo,s,uangavu,mshindwa,badiliko,NA,sdf,1,5,NA,NA,NA,NA,NA,NA,NA,NA,NA,NA,NA,NA,NA,NA,NA,NA,NA,NA,NA
aa4a0,"""Falsch""-Screen",canvas.Screen,3_0_5_0_2_1_2,NA,NA,skipped,NA,726282,NA,NA,726277.68,726283,2023-10-18T08:31:02Z,726294.32,NULL,Entwicklung,maendeleo,s,uangavu,mshindwa,badiliko,NA,sdf,NA,5,NA,NA,NA,NA,NA,NA,NA,NA,NA,NA,NA,NA,NA,NA,NA,NA,NA,NA,NA
aa4a0,shallow,flow.Sequence,3_0_5_0_2_1,NA,NA,completion,11965.12,714306,714295.94,714312.56,726277.68,726283,2023-10-18T08:31:02Z,726294.32,NULL,Entwicklung,maendeleo,s,uangavu,mshindwa,badiliko,NA,sdf,NA,5,NA,NA,NA,NA,NA,NA,NA,NA,NA,NA,NA,NA,NA,NA,NA,NA,NA,NA,NA
aa4a0,task,flow.Sequence,3_0_5_0_2,NA,NA,completion,11965.12,714305,714295.94,714312.56,726277.68,726284,2023-10-18T08:31:02Z,726294.32,NULL,Entwicklung,maendeleo,s,uangavu,mshindwa,badiliko,NA,sdf,NA,5,NA,NA,NA,NA,NA,NA,NA,NA,NA,NA,NA,NA,NA,NA,NA,NA,NA,NA,NA
aa4a0,Deep Question,html.Page,3_0_5_0_3_0_0,NA,NA,form submission,3343.6800000001,726284,726277.68,726294.32,729638,729638,2023-10-18T08:31:06Z,729643.84,NULL,Niveau,kiwango,d,NA,NA,NA,d,NA,NA,5,NA,NA,NA,NA,NA,NA,NA,NA,NA,NA,NA,NA,NA,NA,NA,NA,NA,NA,NA
aa4a0,"""Richtig""-Screen",canvas.Screen,3_0_5_0_3_0_1,NA,NA,skipped,NA,729640,NA,NA,729638,729640,2023-10-18T08:31:06Z,729643.84,NULL,Niveau,kiwango,d,NA,NA,NA,NA,sdf,NA,5,NA,NA,NA,NA,NA,NA,NA,NA,NA,NA,NA,NA,NA,NA,NA,NA,NA,NA,NA
aa4a0,"""Falsch""-Screen",canvas.Screen,3_0_5_0_3_0_2,NA,NA,timeout,4999.4400000001,729643,729636.5,729643.84,734626.62,734628,2023-10-18T08:31:11Z,734643.28,NULL,Niveau,kiwango,d,NA,NA,NA,NA,sdf,0,5,NA,NA,NA,NA,NA,NA,NA,NA,NA,NA,NA,NA,NA,NA,NA,NA,NA,NA,NA
aa4a0,deep,flow.Sequence,3_0_5_0_3_0,NA,NA,completion,8332.3,726284,726277.68,726294.32,734626.62,734628,2023-10-18T08:31:11Z,734643.28,NULL,Niveau,kiwango,d,NA,NA,NA,NA,sdf,NA,5,NA,NA,NA,NA,NA,NA,NA,NA,NA,NA,NA,NA,NA,NA,NA,NA,NA,NA,NA
aa4a0,shallow,flow.Sequence,3_0_5_0_3_1,NA,NA,skipped,NA,734629,NA,NA,734626.62,734629,2023-10-18T08:31:11Z,734643.28,NULL,Niveau,kiwango,d,NA,NA,NA,NA,sdf,NA,5,NA,NA,NA,NA,NA,NA,NA,NA,NA,NA,NA,NA,NA,NA,NA,NA,NA,NA,NA
aa4a0,task,flow.Sequence,3_0_5_0_3,NA,NA,completion,8332.3,726284,726277.68,726294.32,734626.62,734629,2023-10-18T08:31:11Z,734643.28,NULL,Niveau,kiwango,d,NA,NA,NA,NA,sdf,NA,5,NA,NA,NA,NA,NA,NA,NA,NA,NA,NA,NA,NA,NA,NA,NA,NA,NA,NA,NA
aa4a0,Deep Question,html.Page,3_0_5_0_4_0_0,NA,NA,form submission,7012.72,734630,734626.62,734643.28,741656,741656,2023-10-18T08:31:18Z,741659,NULL,Schüler,mwanafunzi,d,NA,NA,NA,mwanafunzi,NA,NA,5,NA,NA,NA,NA,NA,NA,NA,NA,NA,NA,NA,NA,NA,NA,NA,NA,NA,NA,NA
aa4a0,"""Richtig""-Screen",canvas.Screen,3_0_5_0_4_0_1,NA,NA,timeout,4999.4,741657,741654.16,741659,746641.8,746643,2023-10-18T08:31:23Z,746658.4,NULL,Schüler,mwanafunzi,d,NA,NA,NA,NA,sdf,1,5,NA,NA,NA,NA,NA,NA,NA,NA,NA,NA,NA,NA,NA,NA,NA,NA,NA,NA,NA
aa4a0,"""Falsch""-Screen",canvas.Screen,3_0_5_0_4_0_2,NA,NA,skipped,NA,746649,NA,NA,746641.8,746649,2023-10-18T08:31:23Z,746658.4,NULL,Schüler,mwanafunzi,d,NA,NA,NA,NA,sdf,NA,5,NA,NA,NA,NA,NA,NA,NA,NA,NA,NA,NA,NA,NA,NA,NA,NA,NA,NA,NA
aa4a0,deep,flow.Sequence,3_0_5_0_4_0,NA,NA,completion,11998.52,734630,734626.62,734643.28,746641.8,746649,2023-10-18T08:31:23Z,746658.4,NULL,Schüler,mwanafunzi,d,NA,NA,NA,NA,sdf,NA,5,NA,NA,NA,NA,NA,NA,NA,NA,NA,NA,NA,NA,NA,NA,NA,NA,NA,NA,NA
aa4a0,shallow,flow.Sequence,3_0_5_0_4_1,NA,NA,skipped,NA,746649,NA,NA,746641.8,746649,2023-10-18T08:31:23Z,746658.4,NULL,Schüler,mwanafunzi,d,NA,NA,NA,NA,sdf,NA,5,NA,NA,NA,NA,NA,NA,NA,NA,NA,NA,NA,NA,NA,NA,NA,NA,NA,NA,NA
aa4a0,task,flow.Sequence,3_0_5_0_4,NA,NA,completion,11998.52,734630,734626.62,734643.28,746641.8,746650,2023-10-18T08:31:23Z,746658.4,NULL,Schüler,mwanafunzi,d,NA,NA,NA,NA,sdf,NA,5,NA,NA,NA,NA,NA,NA,NA,NA,NA,NA,NA,NA,NA,NA,NA,NA,NA,NA,NA
aa4a0,deep,flow.Sequence,3_0_5_0_5_0,NA,NA,skipped,NA,746650,NA,NA,746641.8,746650,2023-10-18T08:31:23Z,746658.4,NULL,Vorwurf,mashtaka,s,msukumo,mtangulizi,uenyekiti,NA,sdf,NA,5,NA,NA,NA,NA,NA,NA,NA,NA,NA,NA,NA,NA,NA,NA,NA,NA,NA,NA,NA
aa4a0,Shallow Question,html.Page,3_0_5_0_5_1_0,NA,NA,form submission,4347.6,746651,746641.8,746658.4,751006,751006,2023-10-18T08:31:27Z,751007.86,NULL,Vorwurf,mashtaka,s,msukumo,mtangulizi,uenyekiti,mashtaka,NA,NA,5,NA,NA,NA,NA,NA,NA,NA,NA,NA,NA,NA,NA,NA,NA,NA,NA,NA,NA,NA
aa4a0,"""Richtig""-Screen",canvas.Screen,3_0_5_0_5_1_1,NA,NA,timeout,4999.3200000001,751009,751005.12,751007.86,755990.58,755994,2023-10-18T08:31:32Z,756007.18,NULL,Vorwurf,mashtaka,s,msukumo,mtangulizi,uenyekiti,NA,sdf,1,5,NA,NA,NA,NA,NA,NA,NA,NA,NA,NA,NA,NA,NA,NA,NA,NA,NA,NA,NA
aa4a0,"""Falsch""-Screen",canvas.Screen,3_0_5_0_5_1_2,NA,NA,skipped,NA,756007,NA,NA,755990.58,756007,2023-10-18T08:31:32Z,756007.18,NULL,Vorwurf,mashtaka,s,msukumo,mtangulizi,uenyekiti,NA,sdf,NA,5,NA,NA,NA,NA,NA,NA,NA,NA,NA,NA,NA,NA,NA,NA,NA,NA,NA,NA,NA
aa4a0,shallow,flow.Sequence,3_0_5_0_5_1,NA,NA,completion,9332.1799999999,746651,746641.8,746658.4,755990.58,756007,2023-10-18T08:31:32Z,756007.18,NULL,Vorwurf,mashtaka,s,msukumo,mtangulizi,uenyekiti,NA,sdf,NA,5,NA,NA,NA,NA,NA,NA,NA,NA,NA,NA,NA,NA,NA,NA,NA,NA,NA,NA,NA
aa4a0,task,flow.Sequence,3_0_5_0_5,NA,NA,completion,9332.1799999999,746650,746641.8,746658.4,755990.58,756008,2023-10-18T08:31:32Z,756007.18,NULL,Vorwurf,mashtaka,s,msukumo,mtangulizi,uenyekiti,NA,sdf,NA,5,NA,NA,NA,NA,NA,NA,NA,NA,NA,NA,NA,NA,NA,NA,NA,NA,NA,NA,NA
aa4a0,deep,flow.Sequence,3_0_5_0_6_0,NA,NA,skipped,NA,756008,NA,NA,755990.58,756008,2023-10-18T08:31:32Z,756007.18,NULL,Spionage,upelelezi,s,maslahi,utokazo,magangao,NA,sdf,NA,5,NA,NA,NA,NA,NA,NA,NA,NA,NA,NA,NA,NA,NA,NA,NA,NA,NA,NA,NA
aa4a0,Shallow Question,html.Page,3_0_5_0_6_1_0,NA,NA,form submission,4685.8199999999,756008,755990.58,756007.18,760693,760693,2023-10-18T08:31:37Z,760691.68,NULL,Spionage,upelelezi,s,maslahi,utokazo,magangao,upelelezi,NA,NA,5,NA,NA,NA,NA,NA,NA,NA,NA,NA,NA,NA,NA,NA,NA,NA,NA,NA,NA,NA
aa4a0,"""Richtig""-Screen",canvas.Screen,3_0_5_0_6_1_1,NA,NA,timeout,4997.58,760696,760691.3,760691.68,765672.68,765674,2023-10-18T08:31:42Z,765689.26,NULL,Spionage,upelelezi,s,maslahi,utokazo,magangao,NA,sdf,1,5,NA,NA,NA,NA,NA,NA,NA,NA,NA,NA,NA,NA,NA,NA,NA,NA,NA,NA,NA
aa4a0,"""Falsch""-Screen",canvas.Screen,3_0_5_0_6_1_2,NA,NA,skipped,NA,765681,NA,NA,765672.68,765681,2023-10-18T08:31:42Z,765689.26,NULL,Spionage,upelelezi,s,maslahi,utokazo,magangao,NA,sdf,NA,5,NA,NA,NA,NA,NA,NA,NA,NA,NA,NA,NA,NA,NA,NA,NA,NA,NA,NA,NA
aa4a0,shallow,flow.Sequence,3_0_5_0_6_1,NA,NA,completion,9665.5,756008,755990.58,756007.18,765672.68,765682,2023-10-18T08:31:42Z,765689.26,NULL,Spionage,upelelezi,s,maslahi,utokazo,magangao,NA,sdf,NA,5,NA,NA,NA,NA,NA,NA,NA,NA,NA,NA,NA,NA,NA,NA,NA,NA,NA,NA,NA
aa4a0,task,flow.Sequence,3_0_5_0_6,NA,NA,completion,9665.5,756008,755990.58,756007.18,765672.68,765682,2023-10-18T08:31:42Z,765689.26,NULL,Spionage,upelelezi,s,maslahi,utokazo,magangao,NA,sdf,NA,5,NA,NA,NA,NA,NA,NA,NA,NA,NA,NA,NA,NA,NA,NA,NA,NA,NA,NA,NA
aa4a0,Deep Question,html.Page,3_0_5_0_7_0_0,NA,NA,form submission,2764.74,765683,765672.68,765689.26,768454,768454,2023-10-18T08:31:45Z,768455.62,NULL,Tester,wanaojaribu,d,NA,NA,NA,s,NA,NA,5,NA,NA,NA,NA,NA,NA,NA,NA,NA,NA,NA,NA,NA,NA,NA,NA,NA,NA,NA
aa4a0,"""Richtig""-Screen",canvas.Screen,3_0_5_0_7_0_1,NA,NA,skipped,NA,768456,NA,NA,768454,768456,2023-10-18T08:31:45Z,768455.62,NULL,Tester,wanaojaribu,d,NA,NA,NA,NA,sdf,NA,5,NA,NA,NA,NA,NA,NA,NA,NA,NA,NA,NA,NA,NA,NA,NA,NA,NA,NA,NA
aa4a0,"""Falsch""-Screen",canvas.Screen,3_0_5_0_7_0_2,NA,NA,timeout,4999.34,768459,768452.66,768455.62,773438.36,773441,2023-10-18T08:31:50Z,773454.96,NULL,Tester,wanaojaribu,d,NA,NA,NA,NA,sdf,0,5,NA,NA,NA,NA,NA,NA,NA,NA,NA,NA,NA,NA,NA,NA,NA,NA,NA,NA,NA
aa4a0,deep,flow.Sequence,3_0_5_0_7_0,NA,NA,completion,7749.1,765683,765672.68,765689.26,773438.36,773441,2023-10-18T08:31:50Z,773454.96,NULL,Tester,wanaojaribu,d,NA,NA,NA,NA,sdf,NA,5,NA,NA,NA,NA,NA,NA,NA,NA,NA,NA,NA,NA,NA,NA,NA,NA,NA,NA,NA
aa4a0,shallow,flow.Sequence,3_0_5_0_7_1,NA,NA,skipped,NA,773441,NA,NA,773438.36,773441,2023-10-18T08:31:50Z,773454.96,NULL,Tester,wanaojaribu,d,NA,NA,NA,NA,sdf,NA,5,NA,NA,NA,NA,NA,NA,NA,NA,NA,NA,NA,NA,NA,NA,NA,NA,NA,NA,NA
aa4a0,task,flow.Sequence,3_0_5_0_7,NA,NA,completion,7749.1,765682,765672.68,765689.26,773438.36,773442,2023-10-18T08:31:50Z,773454.96,NULL,Tester,wanaojaribu,d,NA,NA,NA,NA,sdf,NA,5,NA,NA,NA,NA,NA,NA,NA,NA,NA,NA,NA,NA,NA,NA,NA,NA,NA,NA,NA
aa4a0,block,flow.Loop,3_0_5_0,NA,NA,completion,78264.2,695174,695173.86,695174.16,773438.36,773443,2023-10-18T08:31:50Z,773454.96,NULL,NA,NA,NA,NA,NA,NA,NA,sdf,NA,5,NA,NA,NA,NA,NA,NA,NA,NA,NA,NA,NA,NA,NA,NA,NA,NA,NA,NA,NA
aa4a0,weiter,canvas.Screen,3_0_5_1,sdf,keypress(Space),response,1338.04,773443,773438.36,773454.96,774793,774807,2023-10-18T08:31:51Z,775461.72,NULL,NA,NA,NA,NA,NA,NA,NA,sdf,NA,5,NA,NA,NA,NA,NA,NA,NA,NA,NA,NA,NA,NA,NA,NA,NA,NA,NA,NA,NA
aa4a0,check continue,flow.Sequence,3_0_5,NA,NA,completion,79618.84,695174,695173.86,695174.16,774793,774808,2023-10-18T08:31:51Z,775461.72,NULL,NA,NA,NA,NA,NA,NA,NA,sdf,NA,5,NA,NA,NA,NA,NA,NA,NA,NA,NA,NA,NA,NA,NA,NA,NA,NA,NA,NA,NA
aa4a0,check continue,flow.Sequence,3_0_6,NA,NA,skipped,NA,774861,NA,NA,774793,774862,2023-10-18T08:31:51Z,775461.72,NULL,NA,NA,NA,NA,NA,NA,NA,dfs,NA,6,NA,NA,NA,NA,NA,NA,NA,NA,NA,NA,NA,NA,NA,NA,NA,NA,NA,NA,NA
aa4a0,check continue,flow.Sequence,3_0_7,NA,NA,skipped,NA,774891,NA,NA,774793,774891,2023-10-18T08:31:51Z,775461.72,NULL,NA,NA,NA,NA,NA,NA,NA,df,NA,7,NA,NA,NA,NA,NA,NA,NA,NA,NA,NA,NA,NA,NA,NA,NA,NA,NA,NA,NA
aa4a0,check continue,flow.Sequence,3_0_8,NA,NA,skipped,NA,774920,NA,NA,774793,774920,2023-10-18T08:31:51Z,775461.72,NULL,NA,NA,NA,NA,NA,NA,NA,dfs,NA,8,NA,NA,NA,NA,NA,NA,NA,NA,NA,NA,NA,NA,NA,NA,NA,NA,NA,NA,NA
aa4a0,check continue,flow.Sequence,3_0_9,NA,NA,skipped,NA,774948,NA,NA,774793,774948,2023-10-18T08:31:51Z,775461.72,NULL,NA,NA,NA,NA,NA,NA,NA,dsf,NA,9,NA,NA,NA,NA,NA,NA,NA,NA,NA,NA,NA,NA,NA,NA,NA,NA,NA,NA,NA
aa4a0,check continue,flow.Sequence,3_0_10,NA,NA,skipped,NA,774974,NA,NA,774793,774975,2023-10-18T08:31:51Z,775461.72,NULL,NA,NA,NA,NA,NA,NA,NA,df,NA,10,NA,NA,NA,NA,NA,NA,NA,NA,NA,NA,NA,NA,NA,NA,NA,NA,NA,NA,NA
aa4a0,check continue,flow.Sequence,3_0_11,NA,NA,skipped,NA,775000,NA,NA,774793,775000,2023-10-18T08:31:51Z,775461.72,NULL,NA,NA,NA,NA,NA,NA,NA,dfs,NA,11,NA,NA,NA,NA,NA,NA,NA,NA,NA,NA,NA,NA,NA,NA,NA,NA,NA,NA,NA
aa4a0,check continue,flow.Sequence,3_0_12,NA,NA,skipped,NA,775026,NA,NA,774793,775026,2023-10-18T08:31:51Z,775461.72,NULL,NA,NA,NA,NA,NA,NA,NA,dsf,NA,12,NA,NA,NA,NA,NA,NA,NA,NA,NA,NA,NA,NA,NA,NA,NA,NA,NA,NA,NA
aa4a0,check continue,flow.Sequence,3_0_13,NA,NA,skipped,NA,775051,NA,NA,774793,775051,2023-10-18T08:31:51Z,775461.72,NULL,NA,NA,NA,NA,NA,NA,NA,dsf,NA,13,NA,NA,NA,NA,NA,NA,NA,NA,NA,NA,NA,NA,NA,NA,NA,NA,NA,NA,NA
aa4a0,check continue,flow.Sequence,3_0_14,NA,NA,skipped,NA,775082,NA,NA,774793,775083,2023-10-18T08:31:51Z,775461.72,NULL,NA,NA,NA,NA,NA,NA,NA,NA,NA,14,NA,NA,NA,NA,NA,NA,NA,NA,NA,NA,NA,NA,NA,NA,NA,NA,NA,NA,NA
aa4a0,check continue,flow.Sequence,3_0_15,NA,NA,skipped,NA,775107,NA,NA,774793,775107,2023-10-18T08:31:51Z,775461.72,NULL,NA,NA,NA,NA,NA,NA,NA,NA,NA,15,NA,NA,NA,NA,NA,NA,NA,NA,NA,NA,NA,NA,NA,NA,NA,NA,NA,NA,NA
aa4a0,check continue,flow.Sequence,3_0_16,NA,NA,skipped,NA,775130,NA,NA,774793,775130,2023-10-18T08:31:51Z,775461.72,NULL,NA,NA,NA,NA,NA,NA,NA,NA,NA,16,NA,NA,NA,NA,NA,NA,NA,NA,NA,NA,NA,NA,NA,NA,NA,NA,NA,NA,NA
aa4a0,check continue,flow.Sequence,3_0_17,NA,NA,skipped,NA,775158,NA,NA,774793,775158,2023-10-18T08:31:51Z,775461.72,NULL,NA,NA,NA,NA,NA,NA,NA,NA,NA,17,NA,NA,NA,NA,NA,NA,NA,NA,NA,NA,NA,NA,NA,NA,NA,NA,NA,NA,NA
aa4a0,check continue,flow.Sequence,3_0_18,NA,NA,skipped,NA,775181,NA,NA,774793,775181,2023-10-18T08:31:51Z,775461.72,NULL,NA,NA,NA,NA,NA,NA,NA,NA,NA,18,NA,NA,NA,NA,NA,NA,NA,NA,NA,NA,NA,NA,NA,NA,NA,NA,NA,NA,NA
aa4a0,check continue,flow.Sequence,3_0_19,NA,NA,skipped,NA,775204,NA,NA,774793,775204,2023-10-18T08:31:51Z,775461.72,NULL,NA,NA,NA,NA,NA,NA,NA,NA,NA,19,NA,NA,NA,NA,NA,NA,NA,NA,NA,NA,NA,NA,NA,NA,NA,NA,NA,NA,NA
aa4a0,check continue,flow.Sequence,3_0_20,NA,NA,skipped,NA,775233,NA,NA,774793,775233,2023-10-18T08:31:51Z,775461.72,NULL,NA,NA,NA,NA,NA,NA,NA,NA,NA,20,NA,NA,NA,NA,NA,NA,NA,NA,NA,NA,NA,NA,NA,NA,NA,NA,NA,NA,NA
aa4a0,check continue,flow.Sequence,3_0_21,NA,NA,skipped,NA,775260,NA,NA,774793,775260,2023-10-18T08:31:51Z,775461.72,NULL,NA,NA,NA,NA,NA,NA,NA,NA,NA,21,NA,NA,NA,NA,NA,NA,NA,NA,NA,NA,NA,NA,NA,NA,NA,NA,NA,NA,NA
aa4a0,check continue,flow.Sequence,3_0_22,NA,NA,skipped,NA,775284,NA,NA,774793,775284,2023-10-18T08:31:51Z,775461.72,NULL,NA,NA,NA,NA,NA,NA,NA,NA,NA,22,NA,NA,NA,NA,NA,NA,NA,NA,NA,NA,NA,NA,NA,NA,NA,NA,NA,NA,NA
aa4a0,check continue,flow.Sequence,3_0_23,NA,NA,skipped,NA,775310,NA,NA,774793,775310,2023-10-18T08:31:51Z,775461.72,NULL,NA,NA,NA,NA,NA,NA,NA,NA,NA,23,NA,NA,NA,NA,NA,NA,NA,NA,NA,NA,NA,NA,NA,NA,NA,NA,NA,NA,NA
aa4a0,check continue,flow.Sequence,3_0_24,NA,NA,skipped,NA,775335,NA,NA,774793,775335,2023-10-18T08:31:51Z,775461.72,NULL,NA,NA,NA,NA,NA,NA,NA,NA,NA,24,NA,NA,NA,NA,NA,NA,NA,NA,NA,NA,NA,NA,NA,NA,NA,NA,NA,NA,NA
aa4a0,check continue,flow.Sequence,3_0_25,NA,NA,skipped,NA,775361,NA,NA,774793,775361,2023-10-18T08:31:52Z,775461.72,NULL,NA,NA,NA,NA,NA,NA,NA,NA,NA,25,NA,NA,NA,NA,NA,NA,NA,NA,NA,NA,NA,NA,NA,NA,NA,NA,NA,NA,NA
aa4a0,check continue,flow.Sequence,3_0_26,NA,NA,skipped,NA,775386,NA,NA,774793,775386,2023-10-18T08:31:52Z,775461.72,NULL,NA,NA,NA,NA,NA,NA,NA,NA,NA,26,NA,NA,NA,NA,NA,NA,NA,NA,NA,NA,NA,NA,NA,NA,NA,NA,NA,NA,NA
aa4a0,check continue,flow.Sequence,3_0_27,NA,NA,skipped,NA,775411,NA,NA,774793,775411,2023-10-18T08:31:52Z,775461.72,NULL,NA,NA,NA,NA,NA,NA,NA,NA,NA,27,NA,NA,NA,NA,NA,NA,NA,NA,NA,NA,NA,NA,NA,NA,NA,NA,NA,NA,NA
aa4a0,check continue,flow.Sequence,3_0_28,NA,NA,skipped,NA,775438,NA,NA,774793,775438,2023-10-18T08:31:52Z,775461.72,NULL,NA,NA,NA,NA,NA,NA,NA,NA,NA,28,NA,NA,NA,NA,NA,NA,NA,NA,NA,NA,NA,NA,NA,NA,NA,NA,NA,NA,NA
aa4a0,check continue,flow.Sequence,3_0_29,NA,NA,skipped,NA,775461,NA,NA,774793,775461,2023-10-18T08:31:52Z,775461.72,NULL,NA,NA,NA,NA,NA,NA,NA,NA,NA,29,NA,NA,NA,NA,NA,NA,NA,NA,NA,NA,NA,NA,NA,NA,NA,NA,NA,NA,NA
aa4a0,until continue,flow.Loop,3_0,NA,NA,completion,514686.12,260071,260106.5,260106.88,774793,775462,2023-10-18T08:31:52Z,775461.72,NULL,NA,NA,NA,NA,NA,NA,NA,NA,NA,NA,NA,NA,NA,NA,NA,NA,NA,NA,NA,NA,NA,NA,NA,NA,NA,NA,NA,NA,NA
aa4a0,block 1,flow.Sequence,3,NA,NA,completion,514686.12,260071,260106.5,260106.88,774793,775462,2023-10-18T08:31:52Z,775461.72,NULL,NA,NA,NA,NA,NA,NA,NA,NA,NA,NA,NA,NA,NA,NA,NA,NA,NA,NA,NA,NA,NA,NA,NA,NA,NA,NA,NA,NA,NA
aa4a0,1.Part Over,canvas.Screen,4,NA,keypress(Space),response,2769.28,775462,775461.4,775461.72,778231,778245,2023-10-18T08:31:54Z,778321.04,NULL,NA,NA,NA,NA,NA,NA,NA,NA,NA,NA,NA,NA,NA,NA,NA,NA,NA,NA,NA,NA,NA,NA,NA,NA,NA,NA,NA,NA,NA
aa4a0,deep,flow.Sequence,5_0_0_0_0_0,NA,NA,skipped,NA,778319,NA,NA,778231,778319,2023-10-18T08:31:54Z,778321.04,NULL,Schlange,foleni,s,uvumilivu,uteuzi,muuzaji,NA,sdf,NA,0,NA,NA,NA,NA,NA,NA,NA,NA,NA,NA,NA,NA,NA,NA,NA,NA,NA,NA,NA
aa4a0,Shallow Question,html.Page,5_0_0_0_0_1_0,NA,NA,form submission,5103.96,778320,778319.16,778321.04,783425,783425,2023-10-18T08:32:00Z,783424.54,NULL,Schlange,foleni,s,uvumilivu,uteuzi,muuzaji,uteuzi,NA,NA,0,NA,NA,NA,NA,NA,NA,NA,NA,NA,NA,NA,NA,NA,NA,NA,NA,NA,NA,NA
aa4a0,"""Richtig""-Screen",canvas.Screen,5_0_0_0_0_1_1,NA,NA,skipped,NA,783428,NA,NA,783425,783428,2023-10-18T08:32:00Z,783424.54,NULL,Schlange,foleni,s,uvumilivu,uteuzi,muuzaji,NA,sdf,NA,0,NA,NA,NA,NA,NA,NA,NA,NA,NA,NA,NA,NA,NA,NA,NA,NA,NA,NA,NA
aa4a0,"""Falsch""-Screen",canvas.Screen,5_0_0_0_0_1_2,NA,NA,timeout,4995.14,783430,783424.22,783424.54,788403.1,788404,2023-10-18T08:32:05Z,788419.68,NULL,Schlange,foleni,s,uvumilivu,uteuzi,muuzaji,NA,sdf,0,0,NA,NA,NA,NA,NA,NA,NA,NA,NA,NA,NA,NA,NA,NA,NA,NA,NA,NA,NA
aa4a0,shallow,flow.Sequence,5_0_0_0_0_1,NA,NA,completion,10082.06,778320,778319.16,778321.04,788403.1,788404,2023-10-18T08:32:05Z,788419.68,NULL,Schlange,foleni,s,uvumilivu,uteuzi,muuzaji,NA,sdf,NA,0,NA,NA,NA,NA,NA,NA,NA,NA,NA,NA,NA,NA,NA,NA,NA,NA,NA,NA,NA
aa4a0,task,flow.Sequence,5_0_0_0_0,NA,NA,completion,10082.06,778319,778319.16,778321.04,788403.1,788404,2023-10-18T08:32:05Z,788419.68,NULL,Schlange,foleni,s,uvumilivu,uteuzi,muuzaji,NA,sdf,NA,0,NA,NA,NA,NA,NA,NA,NA,NA,NA,NA,NA,NA,NA,NA,NA,NA,NA,NA,NA
aa4a0,Deep Question,html.Page,5_0_0_0_1_0_0,NA,NA,form submission,2725.3199999999,788404,788403.1,788419.68,791145,791145,2023-10-18T08:32:07Z,791144.18,NULL,Integrität,uadilifu,d,NA,NA,NA,dfa,NA,NA,0,NA,NA,NA,NA,NA,NA,NA,NA,NA,NA,NA,NA,NA,NA,NA,NA,NA,NA,NA
aa4a0,"""Richtig""-Screen",canvas.Screen,5_0_0_0_1_0_1,NA,NA,skipped,NA,791148,NA,NA,791145,791148,2023-10-18T08:32:07Z,791144.18,NULL,Integrität,uadilifu,d,NA,NA,NA,NA,sdf,NA,0,NA,NA,NA,NA,NA,NA,NA,NA,NA,NA,NA,NA,NA,NA,NA,NA,NA,NA,NA
aa4a0,"""Falsch""-Screen",canvas.Screen,5_0_0_0_1_0_2,NA,NA,timeout,5007.8999999999,791150,791143.94,791144.18,796135.42,796137,2023-10-18T08:32:12Z,796152.08,NULL,Integrität,uadilifu,d,NA,NA,NA,NA,sdf,0,0,NA,NA,NA,NA,NA,NA,NA,NA,NA,NA,NA,NA,NA,NA,NA,NA,NA,NA,NA
aa4a0,deep,flow.Sequence,5_0_0_0_1_0,NA,NA,completion,7715.74,788404,788403.1,788419.68,796135.42,796138,2023-10-18T08:32:12Z,796152.08,NULL,Integrität,uadilifu,d,NA,NA,NA,NA,sdf,NA,0,NA,NA,NA,NA,NA,NA,NA,NA,NA,NA,NA,NA,NA,NA,NA,NA,NA,NA,NA
aa4a0,shallow,flow.Sequence,5_0_0_0_1_1,NA,NA,skipped,NA,796138,NA,NA,796135.42,796138,2023-10-18T08:32:12Z,796152.08,NULL,Integrität,uadilifu,d,NA,NA,NA,NA,sdf,NA,0,NA,NA,NA,NA,NA,NA,NA,NA,NA,NA,NA,NA,NA,NA,NA,NA,NA,NA,NA
aa4a0,task,flow.Sequence,5_0_0_0_1,NA,NA,completion,7715.74,788404,788403.1,788419.68,796135.42,796138,2023-10-18T08:32:12Z,796152.08,NULL,Integrität,uadilifu,d,NA,NA,NA,NA,sdf,NA,0,NA,NA,NA,NA,NA,NA,NA,NA,NA,NA,NA,NA,NA,NA,NA,NA,NA,NA,NA
aa4a0,deep,flow.Sequence,5_0_0_0_2_0,NA,NA,skipped,NA,796138,NA,NA,796135.42,796138,2023-10-18T08:32:12Z,796152.08,NULL,Genehmigung,idhini,s,mwanamke,itikadi,fedheha,NA,sdf,NA,0,NA,NA,NA,NA,NA,NA,NA,NA,NA,NA,NA,NA,NA,NA,NA,NA,NA,NA,NA
aa4a0,Shallow Question,html.Page,5_0_0_0_2_1_0,NA,NA,form submission,6728.92,796138,796135.42,796152.08,802881,802881,2023-10-18T08:32:19Z,802884.54,NULL,Genehmigung,idhini,s,mwanamke,itikadi,fedheha,fedheha,NA,NA,0,NA,NA,NA,NA,NA,NA,NA,NA,NA,NA,NA,NA,NA,NA,NA,NA,NA,NA,NA
aa4a0,"""Richtig""-Screen",canvas.Screen,5_0_0_0_2_1_1,NA,NA,skipped,NA,802883,NA,NA,802881,802883,2023-10-18T08:32:19Z,802884.54,NULL,Genehmigung,idhini,s,mwanamke,itikadi,fedheha,NA,sdf,NA,0,NA,NA,NA,NA,NA,NA,NA,NA,NA,NA,NA,NA,NA,NA,NA,NA,NA,NA,NA
aa4a0,"""Falsch""-Screen",canvas.Screen,5_0_0_0_2_1_2,NA,NA,timeout,4999.36,802885,802879.74,802884.54,807867.26,807868,2023-10-18T08:32:24Z,807883.9,NULL,Genehmigung,idhini,s,mwanamke,itikadi,fedheha,NA,sdf,0,0,NA,NA,NA,NA,NA,NA,NA,NA,NA,NA,NA,NA,NA,NA,NA,NA,NA,NA,NA
aa4a0,shallow,flow.Sequence,5_0_0_0_2_1,NA,NA,completion,11715.18,796138,796135.42,796152.08,807867.26,807869,2023-10-18T08:32:24Z,807883.9,NULL,Genehmigung,idhini,s,mwanamke,itikadi,fedheha,NA,sdf,NA,0,NA,NA,NA,NA,NA,NA,NA,NA,NA,NA,NA,NA,NA,NA,NA,NA,NA,NA,NA
aa4a0,task,flow.Sequence,5_0_0_0_2,NA,NA,completion,11715.18,796138,796135.42,796152.08,807867.26,807869,2023-10-18T08:32:24Z,807883.9,NULL,Genehmigung,idhini,s,mwanamke,itikadi,fedheha,NA,sdf,NA,0,NA,NA,NA,NA,NA,NA,NA,NA,NA,NA,NA,NA,NA,NA,NA,NA,NA,NA,NA
aa4a0,deep,flow.Sequence,5_0_0_0_3_0,NA,NA,skipped,NA,807870,NA,NA,807867.26,807870,2023-10-18T08:32:24Z,807883.9,NULL,Begegnung,kukutana,s,mmasihiya,mpiganaji,husiano,NA,sdf,NA,0,NA,NA,NA,NA,NA,NA,NA,NA,NA,NA,NA,NA,NA,NA,NA,NA,NA,NA,NA
aa4a0,Shallow Question,html.Page,5_0_0_0_3_1_0,NA,NA,form submission,4676.1,807871,807867.26,807883.9,812560,812562,2023-10-18T08:32:29Z,812566.64,NULL,Begegnung,kukutana,s,mmasihiya,mpiganaji,husiano,kukutana,NA,NA,0,NA,NA,NA,NA,NA,NA,NA,NA,NA,NA,NA,NA,NA,NA,NA,NA,NA,NA,NA
aa4a0,"""Richtig""-Screen",canvas.Screen,5_0_0_0_3_1_1,NA,NA,timeout,4999.42,812569,812558.54,812566.64,817549.4,817551,2023-10-18T08:32:34Z,817566.06,NULL,Begegnung,kukutana,s,mmasihiya,mpiganaji,husiano,NA,sdf,1,0,NA,NA,NA,NA,NA,NA,NA,NA,NA,NA,NA,NA,NA,NA,NA,NA,NA,NA,NA
aa4a0,"""Falsch""-Screen",canvas.Screen,5_0_0_0_3_1_2,NA,NA,skipped,NA,817559,NA,NA,817549.4,817560,2023-10-18T08:32:34Z,817566.06,NULL,Begegnung,kukutana,s,mmasihiya,mpiganaji,husiano,NA,sdf,NA,0,NA,NA,NA,NA,NA,NA,NA,NA,NA,NA,NA,NA,NA,NA,NA,NA,NA,NA,NA
aa4a0,shallow,flow.Sequence,5_0_0_0_3_1,NA,NA,completion,9665.5,807870,807867.26,807883.9,817549.4,817560,2023-10-18T08:32:34Z,817566.06,NULL,Begegnung,kukutana,s,mmasihiya,mpiganaji,husiano,NA,sdf,NA,0,NA,NA,NA,NA,NA,NA,NA,NA,NA,NA,NA,NA,NA,NA,NA,NA,NA,NA,NA
aa4a0,task,flow.Sequence,5_0_0_0_3,NA,NA,completion,9665.5,807870,807867.26,807883.9,817549.4,817560,2023-10-18T08:32:34Z,817566.06,NULL,Begegnung,kukutana,s,mmasihiya,mpiganaji,husiano,NA,sdf,NA,0,NA,NA,NA,NA,NA,NA,NA,NA,NA,NA,NA,NA,NA,NA,NA,NA,NA,NA,NA
