observation,sender,sender_type,sender_id,response,response_action,ended_on,duration,time_run,time_render,time_show,time_end,time_commit,timestamp,time_switch,distractors,german,swahili,enc,distractor1,distractor2,distractor3,response_2,x,correct,x_2,url_vp,url_sess,meta_labjs_version,meta_location,meta_user_agent,meta_platform,meta_language,meta_locale,meta_time_zone,meta_timezone_offset,meta_screen_width,meta_screen_height,meta_scroll_width,meta_scroll_height,meta_window_inner_width,meta_window_inner_height,meta_device_pixel_ratio,meta_labjs_build_flavor,meta_labjs_build_commit
8db8a,Introduction general,canvas.Screen,0,weiter,keypress(q),response,301364.96799995,958.40000009537,964.166,980.832,302345.79999995,302351.4000001,2023-03-21T18:55:47Z,302354.112,NULL,NA,NA,NA,NA,NA,NA,NA,NA,NA,NA,200,3,20.2.4,https://neurocog.fernuni.ch/studies/vweber/sfink/encoding_immediate/index.html?vp=200&sess=3,"Mozilla/5.0 (Windows NT 10.0; Win64; x64) AppleWebKit/537.36 (KHTML, like Gecko) Chrome/111.0.0.0 Safari/537.36",Win32,de-DE,de,Europe/Zurich,-60,1368,912,1368,656,1368,704,2,production,f5b4a49f956347addd546a832a3327688c2c0fef
8db8a,Introduction practice,canvas.Screen,1_0,NA,keypress(Space),response,3060.888,302351.9000001,302334.695,302354.112,305415,305416.10000014,2023-03-21T18:55:50Z,305439.55,NULL,NA,NA,NA,NA,NA,NA,NA,NA,NA,NA,NA,NA,NA,NA,NA,NA,NA,NA,NA,NA,NA,NA,NA,NA,NA,NA,NA,NA,NA
8db8a,deep,flow.Sequence,1_1_0_0,NA,NA,skipped,NA,305416.4000001,NA,NA,305415,305416.79999995,2023-03-21T18:55:50Z,305439.55,"c(""distractor1"", ""distractor2"", ""distractor3"")",Rückhalt,msaada,s,muhula,auwali,kiwimbe,NA,NA,NA,NA,NA,NA,NA,NA,NA,NA,NA,NA,NA,NA,NA,NA,NA,NA,NA,NA,NA,NA,NA
8db8a,Shallow Question,html.Page,1_1_0_1_0,NA,NA,form submission,4857.8500000954,305417,305427.032,305439.55,310297.4000001,310297.9000001,2023-03-21T18:55:55Z,310320.441,"c(""distractor1"", ""distractor2"", ""distractor3"")",Rückhalt,msaada,s,muhula,auwali,kiwimbe,msaada,NA,NA,NA,NA,NA,NA,NA,NA,NA,NA,NA,NA,NA,NA,NA,NA,NA,NA,NA,NA,NA,NA
8db8a,"""Richtig""-Screen",canvas.Screen,1_1_0_1_1,NA,NA,timeout,4992.902,310300.5,310276.526,310320.441,315296.577,315301.29999995,2023-03-21T18:56:00Z,315313.343,"c(""distractor1"", ""distractor2"", ""distractor3"")",Rückhalt,msaada,s,muhula,auwali,kiwimbe,NA,NA,1,NA,NA,NA,NA,NA,NA,NA,NA,NA,NA,NA,NA,NA,NA,NA,NA,NA,NA,NA,NA
8db8a,"""Falsch""-Screen",canvas.Screen,1_1_0_1_2,NA,NA,skipped,NA,315302,NA,NA,315296.577,315302,2023-03-21T18:56:00Z,315313.343,"c(""distractor1"", ""distractor2"", ""distractor3"")",Rückhalt,msaada,s,muhula,auwali,kiwimbe,NA,NA,NA,NA,NA,NA,NA,NA,NA,NA,NA,NA,NA,NA,NA,NA,NA,NA,NA,NA,NA,NA,NA
8db8a,shallow,flow.Sequence,1_1_0_1,NA,NA,completion,9857.027,305417,305427.032,305439.55,315296.577,315302.20000005,2023-03-21T18:56:00Z,315313.343,"c(""distractor1"", ""distractor2"", ""distractor3"")",Rückhalt,msaada,s,muhula,auwali,kiwimbe,NA,NA,NA,NA,NA,NA,NA,NA,NA,NA,NA,NA,NA,NA,NA,NA,NA,NA,NA,NA,NA,NA,NA
8db8a,task,flow.Sequence,1_1_0,NA,NA,completion,9857.027,305416.4000001,305427.032,305439.55,315296.577,315302.29999995,2023-03-21T18:56:00Z,315313.343,"c(""distractor1"", ""distractor2"", ""distractor3"")",Rückhalt,msaada,s,muhula,auwali,kiwimbe,NA,NA,NA,NA,NA,NA,NA,NA,NA,NA,NA,NA,NA,NA,NA,NA,NA,NA,NA,NA,NA,NA,NA
8db8a,deep,flow.Sequence,1_1_1_0,NA,NA,skipped,NA,315302.4000001,NA,NA,315296.577,315302.5,2023-03-21T18:56:00Z,315313.343,"c(""distractor1"", ""distractor2"", ""distractor3"")",Gegenwart,hadhara,s,katiba,jokofu,mikopo,NA,NA,NA,NA,NA,NA,NA,NA,NA,NA,NA,NA,NA,NA,NA,NA,NA,NA,NA,NA,NA,NA,NA
8db8a,Shallow Question,html.Page,1_1_1_1_0,NA,NA,form submission,3524.657,315302.5,315296.577,315313.343,318838,318838.5,2023-03-21T18:56:03Z,318865.439,"c(""distractor1"", ""distractor2"", ""distractor3"")",Gegenwart,hadhara,s,katiba,jokofu,mikopo,katiba,NA,NA,NA,NA,NA,NA,NA,NA,NA,NA,NA,NA,NA,NA,NA,NA,NA,NA,NA,NA,NA,NA
8db8a,"""Richtig""-Screen",canvas.Screen,1_1_1_1_1,NA,NA,skipped,NA,318843.70000005,NA,NA,318838,318844,2023-03-21T18:56:03Z,318865.439,"c(""distractor1"", ""distractor2"", ""distractor3"")",Gegenwart,hadhara,s,katiba,jokofu,mikopo,NA,NA,NA,NA,NA,NA,NA,NA,NA,NA,NA,NA,NA,NA,NA,NA,NA,NA,NA,NA,NA,NA,NA
8db8a,"""Falsch""-Screen",canvas.Screen,1_1_1_1_2,NA,NA,timeout,5003.826,318845.79999995,318832.572,318865.439,323852.257,323853.70000005,2023-03-21T18:56:08Z,323869.265,"c(""distractor1"", ""distractor2"", ""distractor3"")",Gegenwart,hadhara,s,katiba,jokofu,mikopo,NA,NA,0,NA,NA,NA,NA,NA,NA,NA,NA,NA,NA,NA,NA,NA,NA,NA,NA,NA,NA,NA,NA
8db8a,shallow,flow.Sequence,1_1_1_1,NA,NA,completion,8538.914,315302.5,315296.577,315313.343,323852.257,323854.10000014,2023-03-21T18:56:08Z,323869.265,"c(""distractor1"", ""distractor2"", ""distractor3"")",Gegenwart,hadhara,s,katiba,jokofu,mikopo,NA,NA,NA,NA,NA,NA,NA,NA,NA,NA,NA,NA,NA,NA,NA,NA,NA,NA,NA,NA,NA,NA,NA
8db8a,task,flow.Sequence,1_1_1,NA,NA,completion,8538.914,315302.4000001,315296.577,315313.343,323852.257,323854.29999995,2023-03-21T18:56:08Z,323869.265,"c(""distractor1"", ""distractor2"", ""distractor3"")",Gegenwart,hadhara,s,katiba,jokofu,mikopo,NA,NA,NA,NA,NA,NA,NA,NA,NA,NA,NA,NA,NA,NA,NA,NA,NA,NA,NA,NA,NA,NA,NA
8db8a,deep,flow.Sequence,1_1_2_0,NA,NA,skipped,NA,323854.5,NA,NA,323852.257,323854.70000005,2023-03-21T18:56:08Z,323869.265,"c(""distractor1"", ""distractor2"", ""distractor3"")",Kritik,lawama,s,dereva,nafasi,mawazo,NA,NA,NA,NA,NA,NA,NA,NA,NA,NA,NA,NA,NA,NA,NA,NA,NA,NA,NA,NA,NA,NA,NA
8db8a,Shallow Question,html.Page,1_1_2_1_0,NA,NA,form submission,8538.6350000954,323854.9000001,323852.257,323869.265,332407.9000001,332408.29999995,2023-03-21T18:56:17Z,332438.066,"c(""distractor1"", ""distractor2"", ""distractor3"")",Kritik,lawama,s,dereva,nafasi,mawazo,mawazo,NA,NA,NA,NA,NA,NA,NA,NA,NA,NA,NA,NA,NA,NA,NA,NA,NA,NA,NA,NA,NA,NA
8db8a,"""Richtig""-Screen",canvas.Screen,1_1_2_1_1,NA,NA,skipped,NA,332413.5,NA,NA,332407.9000001,332413.70000005,2023-03-21T18:56:17Z,332438.066,"c(""distractor1"", ""distractor2"", ""distractor3"")",Kritik,lawama,s,dereva,nafasi,mawazo,NA,NA,NA,NA,NA,NA,NA,NA,NA,NA,NA,NA,NA,NA,NA,NA,NA,NA,NA,NA,NA,NA,NA
8db8a,"""Falsch""-Screen",canvas.Screen,1_1_2_1_2,NA,NA,timeout,5006.92,332415.10000014,332391.482,332438.066,337428.179,337429.5,2023-03-21T18:56:22Z,337444.986,"c(""distractor1"", ""distractor2"", ""distractor3"")",Kritik,lawama,s,dereva,nafasi,mawazo,NA,NA,0,NA,NA,NA,NA,NA,NA,NA,NA,NA,NA,NA,NA,NA,NA,NA,NA,NA,NA,NA,NA
8db8a,shallow,flow.Sequence,1_1_2_1,NA,NA,completion,13558.914,323854.79999995,323852.257,323869.265,337428.179,337429.79999995,2023-03-21T18:56:22Z,337444.986,"c(""distractor1"", ""distractor2"", ""distractor3"")",Kritik,lawama,s,dereva,nafasi,mawazo,NA,NA,NA,NA,NA,NA,NA,NA,NA,NA,NA,NA,NA,NA,NA,NA,NA,NA,NA,NA,NA,NA,NA
8db8a,task,flow.Sequence,1_1_2,NA,NA,completion,13558.914,323854.5,323852.257,323869.265,337428.179,337430,2023-03-21T18:56:22Z,337444.986,"c(""distractor1"", ""distractor2"", ""distractor3"")",Kritik,lawama,s,dereva,nafasi,mawazo,NA,NA,NA,NA,NA,NA,NA,NA,NA,NA,NA,NA,NA,NA,NA,NA,NA,NA,NA,NA,NA,NA,NA
8db8a,Deep Question,html.Page,1_1_3_0_0,NA,NA,form submission,2092.1140001431,337430.29999995,337428.179,337444.986,339537.10000014,339537.4000001,2023-03-21T18:56:24Z,339546.148,"c(""distractor1"", ""distractor2"", ""distractor3"")",Qualität,mtindo,d,NA,NA,NA,p,NA,NA,NA,NA,NA,NA,NA,NA,NA,NA,NA,NA,NA,NA,NA,NA,NA,NA,NA,NA,NA,NA
8db8a,"""Richtig""-Screen",canvas.Screen,1_1_3_0_1,NA,NA,skipped,NA,339541.10000014,NA,NA,339537.10000014,339541.29999995,2023-03-21T18:56:24Z,339546.148,"c(""distractor1"", ""distractor2"", ""distractor3"")",Qualität,mtindo,d,NA,NA,NA,NA,NA,NA,NA,NA,NA,NA,NA,NA,NA,NA,NA,NA,NA,NA,NA,NA,NA,NA,NA,NA,NA,NA
8db8a,"""Falsch""-Screen",canvas.Screen,1_1_3_0_2,NA,NA,timeout,5003.498,339542.5,339529.783,339546.148,344533.404,344534.9000001,2023-03-21T18:56:29Z,344549.646,"c(""distractor1"", ""distractor2"", ""distractor3"")",Qualität,mtindo,d,NA,NA,NA,NA,NA,0,NA,NA,NA,NA,NA,NA,NA,NA,NA,NA,NA,NA,NA,NA,NA,NA,NA,NA,NA,NA
8db8a,deep,flow.Sequence,1_1_3_0,NA,NA,completion,7088.418,337430.20000005,337428.179,337444.986,344533.404,344535.20000005,2023-03-21T18:56:29Z,344549.646,"c(""distractor1"", ""distractor2"", ""distractor3"")",Qualität,mtindo,d,NA,NA,NA,NA,NA,NA,NA,NA,NA,NA,NA,NA,NA,NA,NA,NA,NA,NA,NA,NA,NA,NA,NA,NA,NA,NA
8db8a,shallow,flow.Sequence,1_1_3_1,NA,NA,skipped,NA,344535.29999995,NA,NA,344533.404,344535.4000001,2023-03-21T18:56:29Z,344549.646,"c(""distractor1"", ""distractor2"", ""distractor3"")",Qualität,mtindo,d,NA,NA,NA,NA,NA,NA,NA,NA,NA,NA,NA,NA,NA,NA,NA,NA,NA,NA,NA,NA,NA,NA,NA,NA,NA,NA
8db8a,task,flow.Sequence,1_1_3,NA,NA,completion,7088.418,337430.20000005,337428.179,337444.986,344533.404,344535.60000014,2023-03-21T18:56:29Z,344549.646,"c(""distractor1"", ""distractor2"", ""distractor3"")",Qualität,mtindo,d,NA,NA,NA,NA,NA,NA,NA,NA,NA,NA,NA,NA,NA,NA,NA,NA,NA,NA,NA,NA,NA,NA,NA,NA,NA,NA
8db8a,Deep Question,html.Page,1_1_4_0_0,NA,NA,form submission,1457.454000143,344535.79999995,344533.404,344549.646,346007.10000014,346007.4000001,2023-03-21T18:56:30Z,346017.318,"c(""distractor1"", ""distractor2"", ""distractor3"")",Schatten,kivuli,d,NA,NA,NA,p,NA,NA,NA,NA,NA,NA,NA,NA,NA,NA,NA,NA,NA,NA,NA,NA,NA,NA,NA,NA,NA,NA
8db8a,"""Richtig""-Screen",canvas.Screen,1_1_4_0_1,NA,NA,skipped,NA,346011.60000014,NA,NA,346007.10000014,346011.79999995,2023-03-21T18:56:30Z,346017.318,"c(""distractor1"", ""distractor2"", ""distractor3"")",Schatten,kivuli,d,NA,NA,NA,NA,NA,NA,NA,NA,NA,NA,NA,NA,NA,NA,NA,NA,NA,NA,NA,NA,NA,NA,NA,NA,NA,NA
8db8a,"""Falsch""-Screen",canvas.Screen,1_1_4_0_2,NA,NA,timeout,5003.756,346012.9000001,346001.876,346017.318,351004.49,351005.79999995,2023-03-21T18:56:35Z,351021.074,"c(""distractor1"", ""distractor2"", ""distractor3"")",Schatten,kivuli,d,NA,NA,NA,NA,NA,0,NA,NA,NA,NA,NA,NA,NA,NA,NA,NA,NA,NA,NA,NA,NA,NA,NA,NA,NA,NA
8db8a,deep,flow.Sequence,1_1_4_0,NA,NA,completion,6454.844,344535.79999995,344533.404,344549.646,351004.49,351006.20000005,2023-03-21T18:56:35Z,351021.074,"c(""distractor1"", ""distractor2"", ""distractor3"")",Schatten,kivuli,d,NA,NA,NA,NA,NA,NA,NA,NA,NA,NA,NA,NA,NA,NA,NA,NA,NA,NA,NA,NA,NA,NA,NA,NA,NA,NA
8db8a,shallow,flow.Sequence,1_1_4_1,NA,NA,skipped,NA,351006.4000001,NA,NA,351004.49,351006.4000001,2023-03-21T18:56:35Z,351021.074,"c(""distractor1"", ""distractor2"", ""distractor3"")",Schatten,kivuli,d,NA,NA,NA,NA,NA,NA,NA,NA,NA,NA,NA,NA,NA,NA,NA,NA,NA,NA,NA,NA,NA,NA,NA,NA,NA,NA
8db8a,task,flow.Sequence,1_1_4,NA,NA,completion,6454.844,344535.70000005,344533.404,344549.646,351004.49,351006.60000014,2023-03-21T18:56:35Z,351021.074,"c(""distractor1"", ""distractor2"", ""distractor3"")",Schatten,kivuli,d,NA,NA,NA,NA,NA,NA,NA,NA,NA,NA,NA,NA,NA,NA,NA,NA,NA,NA,NA,NA,NA,NA,NA,NA,NA,NA
8db8a,Deep Question,html.Page,1_1_5_0_0,NA,NA,form submission,1775.926,351006.79999995,351004.49,351021.074,352797,352797.29999995,2023-03-21T18:56:37Z,352805.2,"c(""distractor1"", ""distractor2"", ""distractor3"")",Gesundheit,salama,d,NA,NA,NA,p,NA,NA,NA,NA,NA,NA,NA,NA,NA,NA,NA,NA,NA,NA,NA,NA,NA,NA,NA,NA,NA,NA
8db8a,"""Richtig""-Screen",canvas.Screen,1_1_5_0_1,NA,NA,skipped,NA,352801,NA,NA,352797,352801.10000014,2023-03-21T18:56:37Z,352805.2,"c(""distractor1"", ""distractor2"", ""distractor3"")",Gesundheit,salama,d,NA,NA,NA,NA,NA,NA,NA,NA,NA,NA,NA,NA,NA,NA,NA,NA,NA,NA,NA,NA,NA,NA,NA,NA,NA,NA
8db8a,"""Falsch""-Screen",canvas.Screen,1_1_5_0_2,NA,NA,timeout,5003.463,352802.20000005,352789.631,352805.2,357792.344,357793.70000005,2023-03-21T18:56:42Z,357808.663,"c(""distractor1"", ""distractor2"", ""distractor3"")",Gesundheit,salama,d,NA,NA,NA,NA,NA,0,NA,NA,NA,NA,NA,NA,NA,NA,NA,NA,NA,NA,NA,NA,NA,NA,NA,NA,NA,NA
8db8a,deep,flow.Sequence,1_1_5_0,NA,NA,completion,6771.27,351006.79999995,351004.49,351021.074,357792.344,357794,2023-03-21T18:56:42Z,357808.663,"c(""distractor1"", ""distractor2"", ""distractor3"")",Gesundheit,salama,d,NA,NA,NA,NA,NA,NA,NA,NA,NA,NA,NA,NA,NA,NA,NA,NA,NA,NA,NA,NA,NA,NA,NA,NA,NA,NA
8db8a,shallow,flow.Sequence,1_1_5_1,NA,NA,skipped,NA,357794.10000014,NA,NA,357792.344,357794.29999995,2023-03-21T18:56:42Z,357808.663,"c(""distractor1"", ""distractor2"", ""distractor3"")",Gesundheit,salama,d,NA,NA,NA,NA,NA,NA,NA,NA,NA,NA,NA,NA,NA,NA,NA,NA,NA,NA,NA,NA,NA,NA,NA,NA,NA,NA
8db8a,task,flow.Sequence,1_1_5,NA,NA,completion,6771.27,351006.70000005,351004.49,351021.074,357792.344,357794.4000001,2023-03-21T18:56:42Z,357808.663,"c(""distractor1"", ""distractor2"", ""distractor3"")",Gesundheit,salama,d,NA,NA,NA,NA,NA,NA,NA,NA,NA,NA,NA,NA,NA,NA,NA,NA,NA,NA,NA,NA,NA,NA,NA,NA,NA,NA
8db8a,block,flow.Loop,1_1,NA,NA,completion,52352.794,305416.29999995,305427.032,305439.55,357792.344,357794.79999995,2023-03-21T18:56:42Z,357808.663,"c(""distractor1"", ""distractor2"", ""distractor3"")",NA,NA,NA,NA,NA,NA,NA,NA,NA,NA,NA,NA,NA,NA,NA,NA,NA,NA,NA,NA,NA,NA,NA,NA,NA,NA,NA,NA,NA
8db8a,Practice,flow.Sequence,1,NA,NA,completion,55438.232,302351.9000001,302334.695,302354.112,357792.344,357795,2023-03-21T18:56:42Z,357808.663,NULL,NA,NA,NA,NA,NA,NA,NA,NA,NA,NA,NA,NA,NA,NA,NA,NA,NA,NA,NA,NA,NA,NA,NA,NA,NA,NA,NA,NA,NA
8db8a,Experiment start,canvas.Screen,2,weiter,keypress(q),response,37735.437000143,357795.10000014,357792.344,357808.663,395544.10000014,395545.20000005,2023-03-21T18:57:20Z,395634.616,NULL,NA,NA,NA,NA,NA,NA,NA,NA,NA,NA,NA,NA,NA,NA,NA,NA,NA,NA,NA,NA,NA,NA,NA,NA,NA,NA,NA,NA,NA
8db8a,Deep Question,html.Page,3_0_0_0_0_0_0,NA,NA,form submission,2052.0840000477,395628.60000014,395613.551,395634.616,397686.70000005,397687.10000014,2023-03-21T18:57:22Z,397702.669,NULL,Angreifer,mshambulizi,d,NA,NA,NA,p,NA,NA,0,NA,NA,NA,NA,NA,NA,NA,NA,NA,NA,NA,NA,NA,NA,NA,NA,NA,NA,NA
8db8a,"""Richtig""-Screen",canvas.Screen,3_0_0_0_0_0_1,NA,NA,skipped,NA,397688.10000014,NA,NA,397686.70000005,397688.29999995,2023-03-21T18:57:22Z,397702.669,NULL,Angreifer,mshambulizi,d,NA,NA,NA,NA,sdf,NA,0,NA,NA,NA,NA,NA,NA,NA,NA,NA,NA,NA,NA,NA,NA,NA,NA,NA,NA,NA
8db8a,"""Falsch""-Screen",canvas.Screen,3_0_0_0_0_0_2,NA,NA,timeout,5004.519,397689.20000005,397671.581,397702.669,402689.633,402691,2023-03-21T18:57:27Z,402707.188,NULL,Angreifer,mshambulizi,d,NA,NA,NA,NA,sdf,0,0,NA,NA,NA,NA,NA,NA,NA,NA,NA,NA,NA,NA,NA,NA,NA,NA,NA,NA,NA
8db8a,deep,flow.Sequence,3_0_0_0_0_0,NA,NA,completion,7055.017,395628.60000014,395613.551,395634.616,402689.633,402691.4000001,2023-03-21T18:57:27Z,402707.188,NULL,Angreifer,mshambulizi,d,NA,NA,NA,NA,sdf,NA,0,NA,NA,NA,NA,NA,NA,NA,NA,NA,NA,NA,NA,NA,NA,NA,NA,NA,NA,NA
8db8a,shallow,flow.Sequence,3_0_0_0_0_1,NA,NA,skipped,NA,402691.5,NA,NA,402689.633,402691.60000014,2023-03-21T18:57:27Z,402707.188,NULL,Angreifer,mshambulizi,d,NA,NA,NA,NA,sdf,NA,0,NA,NA,NA,NA,NA,NA,NA,NA,NA,NA,NA,NA,NA,NA,NA,NA,NA,NA,NA
8db8a,task,flow.Sequence,3_0_0_0_0,NA,NA,completion,7055.017,395628.60000014,395613.551,395634.616,402689.633,402691.79999995,2023-03-21T18:57:27Z,402707.188,NULL,Angreifer,mshambulizi,d,NA,NA,NA,NA,sdf,NA,0,NA,NA,NA,NA,NA,NA,NA,NA,NA,NA,NA,NA,NA,NA,NA,NA,NA,NA,NA
8db8a,deep,flow.Sequence,3_0_0_0_1_0,NA,NA,skipped,NA,402691.9000001,NA,NA,402689.633,402692,2023-03-21T18:57:27Z,402707.188,NULL,Flexibilität,kubadilika,s,enjini,usikilivu,hesabu,NA,sdf,NA,0,NA,NA,NA,NA,NA,NA,NA,NA,NA,NA,NA,NA,NA,NA,NA,NA,NA,NA,NA
8db8a,Shallow Question,html.Page,3_0_0_0_1_1_0,NA,NA,form submission,3585.312,402692.20000005,402689.633,402707.188,406292.5,406293,2023-03-21T18:57:30Z,406308.534,NULL,Flexibilität,kubadilika,s,enjini,usikilivu,hesabu,enjini,NA,NA,0,NA,NA,NA,NA,NA,NA,NA,NA,NA,NA,NA,NA,NA,NA,NA,NA,NA,NA,NA
8db8a,"""Richtig""-Screen",canvas.Screen,3_0_0_0_1_1_1,NA,NA,skipped,NA,406298.4000001,NA,NA,406292.5,406298.60000014,2023-03-21T18:57:31Z,406308.534,NULL,Flexibilität,kubadilika,s,enjini,usikilivu,hesabu,NA,sdf,NA,0,NA,NA,NA,NA,NA,NA,NA,NA,NA,NA,NA,NA,NA,NA,NA,NA,NA,NA,NA
8db8a,"""Falsch""-Screen",canvas.Screen,3_0_0_0_1_1_2,NA,NA,timeout,5003.887,406300,406292.011,406308.534,411295.679,411296.9000001,2023-03-21T18:57:35Z,411312.421,NULL,Flexibilität,kubadilika,s,enjini,usikilivu,hesabu,NA,sdf,0,0,NA,NA,NA,NA,NA,NA,NA,NA,NA,NA,NA,NA,NA,NA,NA,NA,NA,NA,NA
8db8a,shallow,flow.Sequence,3_0_0_0_1_1,NA,NA,completion,8588.491,402692.10000014,402689.633,402707.188,411295.679,411297.4000001,2023-03-21T18:57:36Z,411312.421,NULL,Flexibilität,kubadilika,s,enjini,usikilivu,hesabu,NA,sdf,NA,0,NA,NA,NA,NA,NA,NA,NA,NA,NA,NA,NA,NA,NA,NA,NA,NA,NA,NA,NA
8db8a,task,flow.Sequence,3_0_0_0_1,NA,NA,completion,8588.491,402691.9000001,402689.633,402707.188,411295.679,411297.60000014,2023-03-21T18:57:36Z,411312.421,NULL,Flexibilität,kubadilika,s,enjini,usikilivu,hesabu,NA,sdf,NA,0,NA,NA,NA,NA,NA,NA,NA,NA,NA,NA,NA,NA,NA,NA,NA,NA,NA,NA,NA
8db8a,Deep Question,html.Page,3_0_0_0_2_0_0,NA,NA,form submission,2103.9790000954,411297.79999995,411295.679,411312.421,413416.4000001,413416.70000005,2023-03-21T18:57:38Z,413430.213,NULL,Sänger,mwimbaji,d,NA,NA,NA,p,NA,NA,0,NA,NA,NA,NA,NA,NA,NA,NA,NA,NA,NA,NA,NA,NA,NA,NA,NA,NA,NA
8db8a,"""Richtig""-Screen",canvas.Screen,3_0_0_0_2_0_1,NA,NA,skipped,NA,413420.29999995,NA,NA,413416.4000001,413420.5,2023-03-21T18:57:38Z,413430.213,NULL,Sänger,mwimbaji,d,NA,NA,NA,NA,sdf,NA,0,NA,NA,NA,NA,NA,NA,NA,NA,NA,NA,NA,NA,NA,NA,NA,NA,NA,NA,NA
8db8a,"""Falsch""-Screen",canvas.Screen,3_0_0_0_2_0_2,NA,NA,timeout,5003.443,413421.5,413415.849,413430.213,418417.332,418418.5,2023-03-21T18:57:43Z,418433.656,NULL,Sänger,mwimbaji,d,NA,NA,NA,NA,sdf,0,0,NA,NA,NA,NA,NA,NA,NA,NA,NA,NA,NA,NA,NA,NA,NA,NA,NA,NA,NA
8db8a,deep,flow.Sequence,3_0_0_0_2_0,NA,NA,completion,7104.911,411297.60000014,411295.679,411312.421,418417.332,418418.9000001,2023-03-21T18:57:43Z,418433.656,NULL,Sänger,mwimbaji,d,NA,NA,NA,NA,sdf,NA,0,NA,NA,NA,NA,NA,NA,NA,NA,NA,NA,NA,NA,NA,NA,NA,NA,NA,NA,NA
8db8a,shallow,flow.Sequence,3_0_0_0_2_1,NA,NA,skipped,NA,418419.10000014,NA,NA,418417.332,418419.10000014,2023-03-21T18:57:43Z,418433.656,NULL,Sänger,mwimbaji,d,NA,NA,NA,NA,sdf,NA,0,NA,NA,NA,NA,NA,NA,NA,NA,NA,NA,NA,NA,NA,NA,NA,NA,NA,NA,NA
8db8a,task,flow.Sequence,3_0_0_0_2,NA,NA,completion,7104.911,411297.60000014,411295.679,411312.421,418417.332,418419.29999995,2023-03-21T18:57:43Z,418433.656,NULL,Sänger,mwimbaji,d,NA,NA,NA,NA,sdf,NA,0,NA,NA,NA,NA,NA,NA,NA,NA,NA,NA,NA,NA,NA,NA,NA,NA,NA,NA,NA
8db8a,Deep Question,html.Page,3_0_0_0_3_0_0,NA,NA,form submission,2462.944000143,418419.5,418417.332,418433.656,420896.60000014,420897,2023-03-21T18:57:45Z,420901.945,NULL,Wechsel,ugeuzaji,d,NA,NA,NA,p,NA,NA,0,NA,NA,NA,NA,NA,NA,NA,NA,NA,NA,NA,NA,NA,NA,NA,NA,NA,NA,NA
8db8a,"""Richtig""-Screen",canvas.Screen,3_0_0_0_3_0_1,NA,NA,skipped,NA,420901,NA,NA,420896.60000014,420901.29999995,2023-03-21T18:57:45Z,420901.945,NULL,Wechsel,ugeuzaji,d,NA,NA,NA,NA,sdf,NA,0,NA,NA,NA,NA,NA,NA,NA,NA,NA,NA,NA,NA,NA,NA,NA,NA,NA,NA,NA
8db8a,"""Falsch""-Screen",canvas.Screen,3_0_0_0_3_0_2,NA,NA,timeout,5003.604,420902.20000005,420886.165,420901.945,425889.075,425890.29999995,2023-03-21T18:57:50Z,425905.549,NULL,Wechsel,ugeuzaji,d,NA,NA,NA,NA,sdf,0,0,NA,NA,NA,NA,NA,NA,NA,NA,NA,NA,NA,NA,NA,NA,NA,NA,NA,NA,NA
8db8a,deep,flow.Sequence,3_0_0_0_3_0,NA,NA,completion,7455.419,418419.4000001,418417.332,418433.656,425889.075,425890.60000014,2023-03-21T18:57:50Z,425905.549,NULL,Wechsel,ugeuzaji,d,NA,NA,NA,NA,sdf,NA,0,NA,NA,NA,NA,NA,NA,NA,NA,NA,NA,NA,NA,NA,NA,NA,NA,NA,NA,NA
8db8a,shallow,flow.Sequence,3_0_0_0_3_1,NA,NA,skipped,NA,425890.70000005,NA,NA,425889.075,425890.79999995,2023-03-21T18:57:50Z,425905.549,NULL,Wechsel,ugeuzaji,d,NA,NA,NA,NA,sdf,NA,0,NA,NA,NA,NA,NA,NA,NA,NA,NA,NA,NA,NA,NA,NA,NA,NA,NA,NA,NA
8db8a,task,flow.Sequence,3_0_0_0_3,NA,NA,completion,7455.419,418419.4000001,418417.332,418433.656,425889.075,425891,2023-03-21T18:57:50Z,425905.549,NULL,Wechsel,ugeuzaji,d,NA,NA,NA,NA,sdf,NA,0,NA,NA,NA,NA,NA,NA,NA,NA,NA,NA,NA,NA,NA,NA,NA,NA,NA,NA,NA
8db8a,deep,flow.Sequence,3_0_0_0_4_0,NA,NA,skipped,NA,425891.20000005,NA,NA,425889.075,425891.20000005,2023-03-21T18:57:50Z,425905.549,NULL,Atmosphäre,angahewa,s,kuteseka,usahihi,kutoamini,NA,sdf,NA,0,NA,NA,NA,NA,NA,NA,NA,NA,NA,NA,NA,NA,NA,NA,NA,NA,NA,NA,NA
8db8a,Shallow Question,html.Page,3_0_0_0_4_1_0,NA,NA,form submission,3131.951,425891.4000001,425889.075,425905.549,429037.5,429037.79999995,2023-03-21T18:57:53Z,429057.537,NULL,Atmosphäre,angahewa,s,kuteseka,usahihi,kutoamini,kutoamini,NA,NA,0,NA,NA,NA,NA,NA,NA,NA,NA,NA,NA,NA,NA,NA,NA,NA,NA,NA,NA,NA
8db8a,"""Richtig""-Screen",canvas.Screen,3_0_0_0_4_1_1,NA,NA,skipped,NA,429042.79999995,NA,NA,429037.5,429043,2023-03-21T18:57:53Z,429057.537,NULL,Atmosphäre,angahewa,s,kuteseka,usahihi,kutoamini,NA,sdf,NA,0,NA,NA,NA,NA,NA,NA,NA,NA,NA,NA,NA,NA,NA,NA,NA,NA,NA,NA,NA
8db8a,"""Falsch""-Screen",canvas.Screen,3_0_0_0_4_1_2,NA,NA,timeout,5003.588,429044.29999995,429024.459,429057.537,434044.401,434045.9000001,2023-03-21T18:57:58Z,434061.125,NULL,Atmosphäre,angahewa,s,kuteseka,usahihi,kutoamini,NA,sdf,0,0,NA,NA,NA,NA,NA,NA,NA,NA,NA,NA,NA,NA,NA,NA,NA,NA,NA,NA,NA
8db8a,shallow,flow.Sequence,3_0_0_0_4_1,NA,NA,completion,8138.852,425891.29999995,425889.075,425905.549,434044.401,434046.20000005,2023-03-21T18:57:58Z,434061.125,NULL,Atmosphäre,angahewa,s,kuteseka,usahihi,kutoamini,NA,sdf,NA,0,NA,NA,NA,NA,NA,NA,NA,NA,NA,NA,NA,NA,NA,NA,NA,NA,NA,NA,NA
8db8a,task,flow.Sequence,3_0_0_0_4,NA,NA,completion,8138.852,425891.10000014,425889.075,425905.549,434044.401,434046.5,2023-03-21T18:57:58Z,434061.125,NULL,Atmosphäre,angahewa,s,kuteseka,usahihi,kutoamini,NA,sdf,NA,0,NA,NA,NA,NA,NA,NA,NA,NA,NA,NA,NA,NA,NA,NA,NA,NA,NA,NA,NA
8db8a,deep,flow.Sequence,3_0_0_0_5_0,NA,NA,skipped,NA,434046.60000014,NA,NA,434044.401,434046.79999995,2023-03-21T18:57:58Z,434061.125,NULL,Kanzler,diwani,s,rasilmali,mahitaji,maabudu,NA,sdf,NA,0,NA,NA,NA,NA,NA,NA,NA,NA,NA,NA,NA,NA,NA,NA,NA,NA,NA,NA,NA
8db8a,Shallow Question,html.Page,3_0_0_0_5_1_0,NA,NA,form submission,5913.2750000954,434046.9000001,434044.401,434061.125,439974.4000001,439974.9000001,2023-03-21T18:58:04Z,439981.7,NULL,Kanzler,diwani,s,rasilmali,mahitaji,maabudu,mahitaji,NA,NA,0,NA,NA,NA,NA,NA,NA,NA,NA,NA,NA,NA,NA,NA,NA,NA,NA,NA,NA,NA
8db8a,"""Richtig""-Screen",canvas.Screen,3_0_0_0_5_1_1,NA,NA,skipped,NA,439980.29999995,NA,NA,439974.4000001,439980.5,2023-03-21T18:58:04Z,439981.7,NULL,Kanzler,diwani,s,rasilmali,mahitaji,maabudu,NA,sdf,NA,0,NA,NA,NA,NA,NA,NA,NA,NA,NA,NA,NA,NA,NA,NA,NA,NA,NA,NA,NA
8db8a,"""Falsch""-Screen",canvas.Screen,3_0_0_0_5_1_2,NA,NA,timeout,5003.59,439982,439965.215,439981.7,444968.831,444970.20000005,2023-03-21T18:58:09Z,444985.29,NULL,Kanzler,diwani,s,rasilmali,mahitaji,maabudu,NA,sdf,0,0,NA,NA,NA,NA,NA,NA,NA,NA,NA,NA,NA,NA,NA,NA,NA,NA,NA,NA,NA
8db8a,shallow,flow.Sequence,3_0_0_0_5_1,NA,NA,completion,10907.706,434046.79999995,434044.401,434061.125,444968.831,444970.60000014,2023-03-21T18:58:09Z,444985.29,NULL,Kanzler,diwani,s,rasilmali,mahitaji,maabudu,NA,sdf,NA,0,NA,NA,NA,NA,NA,NA,NA,NA,NA,NA,NA,NA,NA,NA,NA,NA,NA,NA,NA
8db8a,task,flow.Sequence,3_0_0_0_5,NA,NA,completion,10907.706,434046.60000014,434044.401,434061.125,444968.831,444970.79999995,2023-03-21T18:58:09Z,444985.29,NULL,Kanzler,diwani,s,rasilmali,mahitaji,maabudu,NA,sdf,NA,0,NA,NA,NA,NA,NA,NA,NA,NA,NA,NA,NA,NA,NA,NA,NA,NA,NA,NA,NA
8db8a,Deep Question,html.Page,3_0_0_0_6_0_0,NA,NA,form submission,2451.21,444971,444968.831,444985.29,447436.5,447436.9000001,2023-03-21T18:58:12Z,447460.878,NULL,Erneuerung,ukarabati,d,NA,NA,NA,p,NA,NA,0,NA,NA,NA,NA,NA,NA,NA,NA,NA,NA,NA,NA,NA,NA,NA,NA,NA,NA,NA
8db8a,"""Richtig""-Screen",canvas.Screen,3_0_0_0_6_0_1,NA,NA,skipped,NA,447440.60000014,NA,NA,447436.5,447440.79999995,2023-03-21T18:58:12Z,447460.878,NULL,Erneuerung,ukarabati,d,NA,NA,NA,NA,sdf,NA,0,NA,NA,NA,NA,NA,NA,NA,NA,NA,NA,NA,NA,NA,NA,NA,NA,NA,NA,NA
8db8a,"""Falsch""-Screen",canvas.Screen,3_0_0_0_6_0_2,NA,NA,timeout,4996.397,447441.70000005,447420.567,447460.878,452440.379,452441.9000001,2023-03-21T18:58:17Z,452457.275,NULL,Erneuerung,ukarabati,d,NA,NA,NA,NA,sdf,0,0,NA,NA,NA,NA,NA,NA,NA,NA,NA,NA,NA,NA,NA,NA,NA,NA,NA,NA,NA
8db8a,deep,flow.Sequence,3_0_0_0_6_0,NA,NA,completion,7455.089,444971,444968.831,444985.29,452440.379,452442.29999995,2023-03-21T18:58:17Z,452457.275,NULL,Erneuerung,ukarabati,d,NA,NA,NA,NA,sdf,NA,0,NA,NA,NA,NA,NA,NA,NA,NA,NA,NA,NA,NA,NA,NA,NA,NA,NA,NA,NA
8db8a,shallow,flow.Sequence,3_0_0_0_6_1,NA,NA,skipped,NA,452442.5,NA,NA,452440.379,452442.60000014,2023-03-21T18:58:17Z,452457.275,NULL,Erneuerung,ukarabati,d,NA,NA,NA,NA,sdf,NA,0,NA,NA,NA,NA,NA,NA,NA,NA,NA,NA,NA,NA,NA,NA,NA,NA,NA,NA,NA
8db8a,task,flow.Sequence,3_0_0_0_6,NA,NA,completion,7455.089,444970.9000001,444968.831,444985.29,452440.379,452442.79999995,2023-03-21T18:58:17Z,452457.275,NULL,Erneuerung,ukarabati,d,NA,NA,NA,NA,sdf,NA,0,NA,NA,NA,NA,NA,NA,NA,NA,NA,NA,NA,NA,NA,NA,NA,NA,NA,NA,NA
8db8a,deep,flow.Sequence,3_0_0_0_7_0,NA,NA,skipped,NA,452443,NA,NA,452440.379,452443,2023-03-21T18:58:17Z,452457.275,NULL,Abrechnung,uhasibu,s,kusahihisha,mpambano,mashambulizi,NA,sdf,NA,0,NA,NA,NA,NA,NA,NA,NA,NA,NA,NA,NA,NA,NA,NA,NA,NA,NA,NA,NA
8db8a,Shallow Question,html.Page,3_0_0_0_7_1_0,NA,NA,form submission,3717.1250000953,452443.10000014,452440.379,452457.275,456174.4000001,456174.79999995,2023-03-21T18:58:20Z,456176.097,NULL,Abrechnung,uhasibu,s,kusahihisha,mpambano,mashambulizi,uhasibu,NA,NA,0,NA,NA,NA,NA,NA,NA,NA,NA,NA,NA,NA,NA,NA,NA,NA,NA,NA,NA,NA
8db8a,"""Richtig""-Screen",canvas.Screen,3_0_0_0_7_1_1,NA,NA,timeout,5003.465,456180.10000014,456159.56,456176.097,461162.91,461164.29999995,2023-03-21T18:58:25Z,461179.562,NULL,Abrechnung,uhasibu,s,kusahihisha,mpambano,mashambulizi,NA,sdf,1,0,NA,NA,NA,NA,NA,NA,NA,NA,NA,NA,NA,NA,NA,NA,NA,NA,NA,NA,NA
8db8a,"""Falsch""-Screen",canvas.Screen,3_0_0_0_7_1_2,NA,NA,skipped,NA,461169,NA,NA,461162.91,461169.10000014,2023-03-21T18:58:25Z,461179.562,NULL,Abrechnung,uhasibu,s,kusahihisha,mpambano,mashambulizi,NA,sdf,NA,0,NA,NA,NA,NA,NA,NA,NA,NA,NA,NA,NA,NA,NA,NA,NA,NA,NA,NA,NA
8db8a,shallow,flow.Sequence,3_0_0_0_7_1,NA,NA,completion,8705.635,452443.10000014,452440.379,452457.275,461162.91,461169.5,2023-03-21T18:58:25Z,461179.562,NULL,Abrechnung,uhasibu,s,kusahihisha,mpambano,mashambulizi,NA,sdf,NA,0,NA,NA,NA,NA,NA,NA,NA,NA,NA,NA,NA,NA,NA,NA,NA,NA,NA,NA,NA
8db8a,task,flow.Sequence,3_0_0_0_7,NA,NA,completion,8705.635,452442.79999995,452440.379,452457.275,461162.91,461169.60000014,2023-03-21T18:58:25Z,461179.562,NULL,Abrechnung,uhasibu,s,kusahihisha,mpambano,mashambulizi,NA,sdf,NA,0,NA,NA,NA,NA,NA,NA,NA,NA,NA,NA,NA,NA,NA,NA,NA,NA,NA,NA,NA
8db8a,block,flow.Loop,3_0_0_0,NA,NA,completion,65528.294,395628.60000014,395613.551,395634.616,461162.91,461169.9000001,2023-03-21T18:58:25Z,461179.562,NULL,NA,NA,NA,NA,NA,NA,NA,sdf,NA,0,NA,NA,NA,NA,NA,NA,NA,NA,NA,NA,NA,NA,NA,NA,NA,NA,NA,NA,NA
8db8a,weiter,canvas.Screen,3_0_0_1,sdf,keypress(Space),response,836.03800014307,461170,461162.91,461179.562,462015.60000014,462016.79999995,2023-03-21T18:58:26Z,462046.763,NULL,NA,NA,NA,NA,NA,NA,NA,sdf,NA,0,NA,NA,NA,NA,NA,NA,NA,NA,NA,NA,NA,NA,NA,NA,NA,NA,NA,NA,NA
8db8a,check continue,flow.Sequence,3_0_0,NA,NA,completion,66380.984000143,395628.60000014,395613.551,395634.616,462015.60000014,462017.20000005,2023-03-21T18:58:26Z,462046.763,NULL,NA,NA,NA,NA,NA,NA,NA,sdf,NA,0,NA,NA,NA,NA,NA,NA,NA,NA,NA,NA,NA,NA,NA,NA,NA,NA,NA,NA,NA
8db8a,Deep Question,html.Page,3_0_1_0_0_0_0,NA,NA,form submission,1879.6370000954,462057.10000014,462013.696,462046.763,463926.4000001,463926.70000005,2023-03-21T18:58:28Z,463931.372,NULL,Wechsel,ugeuzaji,d,NA,NA,NA,p,NA,NA,1,NA,NA,NA,NA,NA,NA,NA,NA,NA,NA,NA,NA,NA,NA,NA,NA,NA,NA,NA
8db8a,"""Richtig""-Screen",canvas.Screen,3_0_1_0_0_0_1,NA,NA,skipped,NA,463927.79999995,NA,NA,463926.4000001,463928,2023-03-21T18:58:28Z,463931.372,NULL,Wechsel,ugeuzaji,d,NA,NA,NA,NA,sdfdsf,NA,1,NA,NA,NA,NA,NA,NA,NA,NA,NA,NA,NA,NA,NA,NA,NA,NA,NA,NA,NA
8db8a,"""Falsch""-Screen",canvas.Screen,3_0_1_0_0_0_2,NA,NA,timeout,5003.525,463929,463914.978,463931.372,468918.445,468919.70000005,2023-03-21T18:58:33Z,468934.897,NULL,Wechsel,ugeuzaji,d,NA,NA,NA,NA,sdfdsf,0,1,NA,NA,NA,NA,NA,NA,NA,NA,NA,NA,NA,NA,NA,NA,NA,NA,NA,NA,NA
8db8a,deep,flow.Sequence,3_0_1_0_0_0,NA,NA,completion,6871.682,462057.10000014,462013.696,462046.763,468918.445,468920,2023-03-21T18:58:33Z,468934.897,NULL,Wechsel,ugeuzaji,d,NA,NA,NA,NA,sdfdsf,NA,1,NA,NA,NA,NA,NA,NA,NA,NA,NA,NA,NA,NA,NA,NA,NA,NA,NA,NA,NA
8db8a,shallow,flow.Sequence,3_0_1_0_0_1,NA,NA,skipped,NA,468920.10000014,NA,NA,468918.445,468920.29999995,2023-03-21T18:58:33Z,468934.897,NULL,Wechsel,ugeuzaji,d,NA,NA,NA,NA,sdfdsf,NA,1,NA,NA,NA,NA,NA,NA,NA,NA,NA,NA,NA,NA,NA,NA,NA,NA,NA,NA,NA
8db8a,task,flow.Sequence,3_0_1_0_0,NA,NA,completion,6871.682,462057.10000014,462013.696,462046.763,468918.445,468920.5,2023-03-21T18:58:33Z,468934.897,NULL,Wechsel,ugeuzaji,d,NA,NA,NA,NA,sdfdsf,NA,1,NA,NA,NA,NA,NA,NA,NA,NA,NA,NA,NA,NA,NA,NA,NA,NA,NA,NA,NA
8db8a,Deep Question,html.Page,3_0_1_0_1_0_0,NA,NA,form submission,3301.103,468920.60000014,468918.445,468934.897,472236,472236.29999995,2023-03-21T18:58:36Z,472253.722,NULL,Erneuerung,ukarabati,d,NA,NA,NA,a,NA,NA,1,NA,NA,NA,NA,NA,NA,NA,NA,NA,NA,NA,NA,NA,NA,NA,NA,NA,NA,NA
8db8a,"""Richtig""-Screen",canvas.Screen,3_0_1_0_1_0_1,NA,NA,skipped,NA,472241.4000001,NA,NA,472236,472241.60000014,2023-03-21T18:58:36Z,472253.722,NULL,Erneuerung,ukarabati,d,NA,NA,NA,NA,sdfdsf,NA,1,NA,NA,NA,NA,NA,NA,NA,NA,NA,NA,NA,NA,NA,NA,NA,NA,NA,NA,NA
8db8a,"""Falsch""-Screen",canvas.Screen,3_0_1_0_1_0_2,NA,NA,timeout,5003.676,472243,472237.08,472253.722,477240.654,477242.10000014,2023-03-21T18:58:41Z,477257.398,NULL,Erneuerung,ukarabati,d,NA,NA,NA,NA,sdfdsf,0,1,NA,NA,NA,NA,NA,NA,NA,NA,NA,NA,NA,NA,NA,NA,NA,NA,NA,NA,NA
8db8a,deep,flow.Sequence,3_0_1_0_1_0,NA,NA,completion,8305.757,468920.60000014,468918.445,468934.897,477240.654,477242.5,2023-03-21T18:58:41Z,477257.398,NULL,Erneuerung,ukarabati,d,NA,NA,NA,NA,sdfdsf,NA,1,NA,NA,NA,NA,NA,NA,NA,NA,NA,NA,NA,NA,NA,NA,NA,NA,NA,NA,NA
8db8a,shallow,flow.Sequence,3_0_1_0_1_1,NA,NA,skipped,NA,477242.70000005,NA,NA,477240.654,477242.79999995,2023-03-21T18:58:41Z,477257.398,NULL,Erneuerung,ukarabati,d,NA,NA,NA,NA,sdfdsf,NA,1,NA,NA,NA,NA,NA,NA,NA,NA,NA,NA,NA,NA,NA,NA,NA,NA,NA,NA,NA
8db8a,task,flow.Sequence,3_0_1_0_1,NA,NA,completion,8305.757,468920.5,468918.445,468934.897,477240.654,477243,2023-03-21T18:58:41Z,477257.398,NULL,Erneuerung,ukarabati,d,NA,NA,NA,NA,sdfdsf,NA,1,NA,NA,NA,NA,NA,NA,NA,NA,NA,NA,NA,NA,NA,NA,NA,NA,NA,NA,NA
8db8a,deep,flow.Sequence,3_0_1_0_2_0,NA,NA,skipped,NA,477243.20000005,NA,NA,477240.654,477243.4000001,2023-03-21T18:58:41Z,477257.398,NULL,Kanzler,diwani,s,rasilmali,mahitaji,maabudu,NA,sdfdsf,NA,1,NA,NA,NA,NA,NA,NA,NA,NA,NA,NA,NA,NA,NA,NA,NA,NA,NA,NA,NA
8db8a,Shallow Question,html.Page,3_0_1_0_2_1_0,NA,NA,form submission,4988.2020001431,477243.4000001,477240.654,477257.398,482245.60000014,482246.10000014,2023-03-21T18:58:46Z,482277.739,NULL,Kanzler,diwani,s,rasilmali,mahitaji,maabudu,diwani,NA,NA,1,NA,NA,NA,NA,NA,NA,NA,NA,NA,NA,NA,NA,NA,NA,NA,NA,NA,NA,NA
8db8a,"""Richtig""-Screen",canvas.Screen,3_0_1_0_2_1_1,NA,NA,timeout,5003.059,482251.5,482260.765,482277.739,487264.14,487265.4000001,2023-03-21T18:58:51Z,487280.798,NULL,Kanzler,diwani,s,rasilmali,mahitaji,maabudu,NA,sdfdsf,1,1,NA,NA,NA,NA,NA,NA,NA,NA,NA,NA,NA,NA,NA,NA,NA,NA,NA,NA,NA
8db8a,"""Falsch""-Screen",canvas.Screen,3_0_1_0_2_1_2,NA,NA,skipped,NA,487270.5,NA,NA,487264.14,487270.70000005,2023-03-21T18:58:51Z,487280.798,NULL,Kanzler,diwani,s,rasilmali,mahitaji,maabudu,NA,sdfdsf,NA,1,NA,NA,NA,NA,NA,NA,NA,NA,NA,NA,NA,NA,NA,NA,NA,NA,NA,NA,NA
8db8a,shallow,flow.Sequence,3_0_1_0_2_1,NA,NA,completion,10006.742,477243.4000001,477240.654,477257.398,487264.14,487270.9000001,2023-03-21T18:58:51Z,487280.798,NULL,Kanzler,diwani,s,rasilmali,mahitaji,maabudu,NA,sdfdsf,NA,1,NA,NA,NA,NA,NA,NA,NA,NA,NA,NA,NA,NA,NA,NA,NA,NA,NA,NA,NA
8db8a,task,flow.Sequence,3_0_1_0_2,NA,NA,completion,10006.742,477243.10000014,477240.654,477257.398,487264.14,487271.10000014,2023-03-21T18:58:51Z,487280.798,NULL,Kanzler,diwani,s,rasilmali,mahitaji,maabudu,NA,sdfdsf,NA,1,NA,NA,NA,NA,NA,NA,NA,NA,NA,NA,NA,NA,NA,NA,NA,NA,NA,NA,NA
8db8a,deep,flow.Sequence,3_0_1_0_3_0,NA,NA,skipped,NA,487271.29999995,NA,NA,487264.14,487271.4000001,2023-03-21T18:58:51Z,487280.798,NULL,Flexibilität,kubadilika,s,enjini,usikilivu,hesabu,NA,sdfdsf,NA,1,NA,NA,NA,NA,NA,NA,NA,NA,NA,NA,NA,NA,NA,NA,NA,NA,NA,NA,NA
8db8a,Shallow Question,html.Page,3_0_1_0_3_1_0,NA,NA,form submission,8072.302000143,487271.60000014,487264.14,487280.798,495353.10000014,495353.29999995,2023-03-21T18:59:00Z,495384.234,NULL,Flexibilität,kubadilika,s,enjini,usikilivu,hesabu,hesabu,NA,NA,1,NA,NA,NA,NA,NA,NA,NA,NA,NA,NA,NA,NA,NA,NA,NA,NA,NA,NA,NA
8db8a,"""Richtig""-Screen",canvas.Screen,3_0_1_0_3_1_1,NA,NA,skipped,NA,495356.70000005,NA,NA,495353.10000014,495356.9000001,2023-03-21T18:59:00Z,495384.234,NULL,Flexibilität,kubadilika,s,enjini,usikilivu,hesabu,NA,sdfdsf,NA,1,NA,NA,NA,NA,NA,NA,NA,NA,NA,NA,NA,NA,NA,NA,NA,NA,NA,NA,NA
8db8a,"""Falsch""-Screen",canvas.Screen,3_0_1_0_3_1_2,NA,NA,timeout,5005.514,495358.29999995,495336.324,495384.234,500373.035,500374.4000001,2023-03-21T18:59:05Z,500389.748,NULL,Flexibilität,kubadilika,s,enjini,usikilivu,hesabu,NA,sdfdsf,0,1,NA,NA,NA,NA,NA,NA,NA,NA,NA,NA,NA,NA,NA,NA,NA,NA,NA,NA,NA
8db8a,shallow,flow.Sequence,3_0_1_0_3_1,NA,NA,completion,13092.237,487271.5,487264.14,487280.798,500373.035,500374.79999995,2023-03-21T18:59:05Z,500389.748,NULL,Flexibilität,kubadilika,s,enjini,usikilivu,hesabu,NA,sdfdsf,NA,1,NA,NA,NA,NA,NA,NA,NA,NA,NA,NA,NA,NA,NA,NA,NA,NA,NA,NA,NA
8db8a,task,flow.Sequence,3_0_1_0_3,NA,NA,completion,13092.237,487271.20000005,487264.14,487280.798,500373.035,500375.10000014,2023-03-21T18:59:05Z,500389.748,NULL,Flexibilität,kubadilika,s,enjini,usikilivu,hesabu,NA,sdfdsf,NA,1,NA,NA,NA,NA,NA,NA,NA,NA,NA,NA,NA,NA,NA,NA,NA,NA,NA,NA,NA
8db8a,Deep Question,html.Page,3_0_1_0_4_0_0,NA,NA,form submission,2556.4520000477,500375.29999995,500373.035,500389.748,502946.20000005,502946.60000014,2023-03-21T18:59:07Z,502958.073,NULL,Angreifer,mshambulizi,d,NA,NA,NA,p,NA,NA,1,NA,NA,NA,NA,NA,NA,NA,NA,NA,NA,NA,NA,NA,NA,NA,NA,NA,NA,NA
8db8a,"""Richtig""-Screen",canvas.Screen,3_0_1_0_4_0_1,NA,NA,skipped,NA,502950.70000005,NA,NA,502946.20000005,502950.9000001,2023-03-21T18:59:07Z,502958.073,NULL,Angreifer,mshambulizi,d,NA,NA,NA,NA,sdfdsf,NA,1,NA,NA,NA,NA,NA,NA,NA,NA,NA,NA,NA,NA,NA,NA,NA,NA,NA,NA,NA
8db8a,"""Falsch""-Screen",canvas.Screen,3_0_1_0_4_0_2,NA,NA,timeout,5004.096,502951.79999995,502941.649,502958.073,507945.431,507946.79999995,2023-03-21T18:59:12Z,507962.169,NULL,Angreifer,mshambulizi,d,NA,NA,NA,NA,sdfdsf,0,1,NA,NA,NA,NA,NA,NA,NA,NA,NA,NA,NA,NA,NA,NA,NA,NA,NA,NA,NA
8db8a,deep,flow.Sequence,3_0_1_0_4_0,NA,NA,completion,7555.683,500375.29999995,500373.035,500389.748,507945.431,507947.10000014,2023-03-21T18:59:12Z,507962.169,NULL,Angreifer,mshambulizi,d,NA,NA,NA,NA,sdfdsf,NA,1,NA,NA,NA,NA,NA,NA,NA,NA,NA,NA,NA,NA,NA,NA,NA,NA,NA,NA,NA
8db8a,shallow,flow.Sequence,3_0_1_0_4_1,NA,NA,skipped,NA,507947.29999995,NA,NA,507945.431,507947.29999995,2023-03-21T18:59:12Z,507962.169,NULL,Angreifer,mshambulizi,d,NA,NA,NA,NA,sdfdsf,NA,1,NA,NA,NA,NA,NA,NA,NA,NA,NA,NA,NA,NA,NA,NA,NA,NA,NA,NA,NA
8db8a,task,flow.Sequence,3_0_1_0_4,NA,NA,completion,7555.683,500375.20000005,500373.035,500389.748,507945.431,507947.60000014,2023-03-21T18:59:12Z,507962.169,NULL,Angreifer,mshambulizi,d,NA,NA,NA,NA,sdfdsf,NA,1,NA,NA,NA,NA,NA,NA,NA,NA,NA,NA,NA,NA,NA,NA,NA,NA,NA,NA,NA
8db8a,Deep Question,html.Page,3_0_1_0_5_0_0,NA,NA,form submission,9094.2310000954,507947.79999995,507945.431,507962.169,517056.4000001,517056.79999995,2023-03-21T18:59:21Z,517067.735,NULL,Sänger,mwimbaji,d,NA,NA,NA,mwimbaji,NA,NA,1,NA,NA,NA,NA,NA,NA,NA,NA,NA,NA,NA,NA,NA,NA,NA,NA,NA,NA,NA
8db8a,"""Richtig""-Screen",canvas.Screen,3_0_1_0_5_0_1,NA,NA,timeout,5003.502,517060.70000005,517051.855,517067.735,522054.667,522056.10000014,2023-03-21T18:59:26Z,522071.237,NULL,Sänger,mwimbaji,d,NA,NA,NA,NA,sdfdsf,1,1,NA,NA,NA,NA,NA,NA,NA,NA,NA,NA,NA,NA,NA,NA,NA,NA,NA,NA,NA
8db8a,"""Falsch""-Screen",canvas.Screen,3_0_1_0_5_0_2,NA,NA,skipped,NA,522061.29999995,NA,NA,522054.667,522061.5,2023-03-21T18:59:26Z,522071.237,NULL,Sänger,mwimbaji,d,NA,NA,NA,NA,sdfdsf,NA,1,NA,NA,NA,NA,NA,NA,NA,NA,NA,NA,NA,NA,NA,NA,NA,NA,NA,NA,NA
8db8a,deep,flow.Sequence,3_0_1_0_5_0,NA,NA,completion,14092.498,507947.79999995,507945.431,507962.169,522054.667,522061.70000005,2023-03-21T18:59:26Z,522071.237,NULL,Sänger,mwimbaji,d,NA,NA,NA,NA,sdfdsf,NA,1,NA,NA,NA,NA,NA,NA,NA,NA,NA,NA,NA,NA,NA,NA,NA,NA,NA,NA,NA
8db8a,shallow,flow.Sequence,3_0_1_0_5_1,NA,NA,skipped,NA,522061.9000001,NA,NA,522054.667,522061.9000001,2023-03-21T18:59:26Z,522071.237,NULL,Sänger,mwimbaji,d,NA,NA,NA,NA,sdfdsf,NA,1,NA,NA,NA,NA,NA,NA,NA,NA,NA,NA,NA,NA,NA,NA,NA,NA,NA,NA,NA
8db8a,task,flow.Sequence,3_0_1_0_5,NA,NA,completion,14092.498,507947.70000005,507945.431,507962.169,522054.667,522062.10000014,2023-03-21T18:59:26Z,522071.237,NULL,Sänger,mwimbaji,d,NA,NA,NA,NA,sdfdsf,NA,1,NA,NA,NA,NA,NA,NA,NA,NA,NA,NA,NA,NA,NA,NA,NA,NA,NA,NA,NA
8db8a,deep,flow.Sequence,3_0_1_0_6_0,NA,NA,skipped,NA,522062.20000005,NA,NA,522054.667,522062.4000001,2023-03-21T18:59:26Z,522071.237,NULL,Abrechnung,uhasibu,s,kusahihisha,mpambano,mashambulizi,NA,sdfdsf,NA,1,NA,NA,NA,NA,NA,NA,NA,NA,NA,NA,NA,NA,NA,NA,NA,NA,NA,NA,NA
8db8a,Shallow Question,html.Page,3_0_1_0_6_1_0,NA,NA,form submission,5358.863000143,522062.5,522054.667,522071.237,527430.10000014,527430.60000014,2023-03-21T18:59:32Z,527441.558,NULL,Abrechnung,uhasibu,s,kusahihisha,mpambano,mashambulizi,uhasibu,NA,NA,1,NA,NA,NA,NA,NA,NA,NA,NA,NA,NA,NA,NA,NA,NA,NA,NA,NA,NA,NA
8db8a,"""Richtig""-Screen",canvas.Screen,3_0_1_0_6_1_1,NA,NA,timeout,5003.6980000001,527435.4000001,527425.038,527441.558,532428.431,532429.70000005,2023-03-21T18:59:37Z,532445.256,NULL,Abrechnung,uhasibu,s,kusahihisha,mpambano,mashambulizi,NA,sdfdsf,1,1,NA,NA,NA,NA,NA,NA,NA,NA,NA,NA,NA,NA,NA,NA,NA,NA,NA,NA,NA
8db8a,"""Falsch""-Screen",canvas.Screen,3_0_1_0_6_1_2,NA,NA,skipped,NA,532434.20000005,NA,NA,532428.431,532434.5,2023-03-21T18:59:37Z,532445.256,NULL,Abrechnung,uhasibu,s,kusahihisha,mpambano,mashambulizi,NA,sdfdsf,NA,1,NA,NA,NA,NA,NA,NA,NA,NA,NA,NA,NA,NA,NA,NA,NA,NA,NA,NA,NA
8db8a,shallow,flow.Sequence,3_0_1_0_6_1,NA,NA,completion,10357.194,522062.4000001,522054.667,522071.237,532428.431,532434.70000005,2023-03-21T18:59:37Z,532445.256,NULL,Abrechnung,uhasibu,s,kusahihisha,mpambano,mashambulizi,NA,sdfdsf,NA,1,NA,NA,NA,NA,NA,NA,NA,NA,NA,NA,NA,NA,NA,NA,NA,NA,NA,NA,NA
8db8a,task,flow.Sequence,3_0_1_0_6,NA,NA,completion,10357.194,522062.20000005,522054.667,522071.237,532428.431,532434.9000001,2023-03-21T18:59:37Z,532445.256,NULL,Abrechnung,uhasibu,s,kusahihisha,mpambano,mashambulizi,NA,sdfdsf,NA,1,NA,NA,NA,NA,NA,NA,NA,NA,NA,NA,NA,NA,NA,NA,NA,NA,NA,NA,NA
8db8a,deep,flow.Sequence,3_0_1_0_7_0,NA,NA,skipped,NA,532435.10000014,NA,NA,532428.431,532435.20000005,2023-03-21T18:59:37Z,532445.256,NULL,Atmosphäre,angahewa,s,kuteseka,usahihi,kutoamini,NA,sdfdsf,NA,1,NA,NA,NA,NA,NA,NA,NA,NA,NA,NA,NA,NA,NA,NA,NA,NA,NA,NA,NA
8db8a,Shallow Question,html.Page,3_0_1_0_7_1_0,NA,NA,form submission,5262.344000143,532435.29999995,532428.431,532445.256,537707.60000014,537708,2023-03-21T18:59:42Z,537715.375,NULL,Atmosphäre,angahewa,s,kuteseka,usahihi,kutoamini,usahihi,NA,NA,1,NA,NA,NA,NA,NA,NA,NA,NA,NA,NA,NA,NA,NA,NA,NA,NA,NA,NA,NA
8db8a,"""Richtig""-Screen",canvas.Screen,3_0_1_0_7_1_1,NA,NA,skipped,NA,537712.79999995,NA,NA,537707.60000014,537713,2023-03-21T18:59:42Z,537715.375,NULL,Atmosphäre,angahewa,s,kuteseka,usahihi,kutoamini,NA,sdfdsf,NA,1,NA,NA,NA,NA,NA,NA,NA,NA,NA,NA,NA,NA,NA,NA,NA,NA,NA,NA,NA
8db8a,"""Falsch""-Screen",canvas.Screen,3_0_1_0_7_1_2,NA,NA,timeout,5003.75,537714.20000005,537698.87,537715.375,542702.232,542703.60000014,2023-03-21T18:59:47Z,542719.125,NULL,Atmosphäre,angahewa,s,kuteseka,usahihi,kutoamini,NA,sdfdsf,0,1,NA,NA,NA,NA,NA,NA,NA,NA,NA,NA,NA,NA,NA,NA,NA,NA,NA,NA,NA
8db8a,shallow,flow.Sequence,3_0_1_0_7_1,NA,NA,completion,10256.976,532435.29999995,532428.431,532445.256,542702.232,542704,2023-03-21T18:59:47Z,542719.125,NULL,Atmosphäre,angahewa,s,kuteseka,usahihi,kutoamini,NA,sdfdsf,NA,1,NA,NA,NA,NA,NA,NA,NA,NA,NA,NA,NA,NA,NA,NA,NA,NA,NA,NA,NA
8db8a,task,flow.Sequence,3_0_1_0_7,NA,NA,completion,10256.976,532435.10000014,532428.431,532445.256,542702.232,542704.20000005,2023-03-21T18:59:47Z,542719.125,NULL,Atmosphäre,angahewa,s,kuteseka,usahihi,kutoamini,NA,sdfdsf,NA,1,NA,NA,NA,NA,NA,NA,NA,NA,NA,NA,NA,NA,NA,NA,NA,NA,NA,NA,NA
8db8a,block,flow.Loop,3_0_1_0,NA,NA,completion,80655.469,462057.10000014,462013.696,462046.763,542702.232,542704.4000001,2023-03-21T18:59:47Z,542719.125,NULL,NA,NA,NA,NA,NA,NA,NA,sdfdsf,NA,1,NA,NA,NA,NA,NA,NA,NA,NA,NA,NA,NA,NA,NA,NA,NA,NA,NA,NA,NA
8db8a,weiter,canvas.Screen,3_0_1_1,sdf,keypress(Space),response,1215.7750000954,542704.5,542702.232,542719.125,543934.9000001,543936.10000014,2023-03-21T18:59:48Z,543969.497,NULL,NA,NA,NA,NA,NA,NA,NA,sdfdsf,NA,1,NA,NA,NA,NA,NA,NA,NA,NA,NA,NA,NA,NA,NA,NA,NA,NA,NA,NA,NA
8db8a,check continue,flow.Sequence,3_0_1,NA,NA,completion,81888.137000095,462057.10000014,462013.696,462046.763,543934.9000001,543936.4000001,2023-03-21T18:59:48Z,543969.497,NULL,NA,NA,NA,NA,NA,NA,NA,sdfdsf,NA,1,NA,NA,NA,NA,NA,NA,NA,NA,NA,NA,NA,NA,NA,NA,NA,NA,NA,NA,NA
8db8a,Deep Question,html.Page,3_0_2_0_0_0_0,NA,NA,form submission,1756.8029999523,543981,543925.833,543969.497,545726.29999995,545726.60000014,2023-03-21T18:59:50Z,545737.624,NULL,Wechsel,ugeuzaji,d,NA,NA,NA,p,NA,NA,2,NA,NA,NA,NA,NA,NA,NA,NA,NA,NA,NA,NA,NA,NA,NA,NA,NA,NA,NA
8db8a,"""Richtig""-Screen",canvas.Screen,3_0_2_0_0_0_1,NA,NA,skipped,NA,545727.9000001,NA,NA,545726.29999995,545728.10000014,2023-03-21T18:59:50Z,545737.624,NULL,Wechsel,ugeuzaji,d,NA,NA,NA,NA,sdf,NA,2,NA,NA,NA,NA,NA,NA,NA,NA,NA,NA,NA,NA,NA,NA,NA,NA,NA,NA,NA
8db8a,"""Falsch""-Screen",canvas.Screen,3_0_2_0_0_0_2,NA,NA,timeout,5003.75,545729.10000014,545721.629,545737.624,550724.378,550725.5,2023-03-21T18:59:55Z,550741.374,NULL,Wechsel,ugeuzaji,d,NA,NA,NA,NA,sdf,0,2,NA,NA,NA,NA,NA,NA,NA,NA,NA,NA,NA,NA,NA,NA,NA,NA,NA,NA,NA
8db8a,deep,flow.Sequence,3_0_2_0_0_0,NA,NA,completion,6754.8810000001,543981,543925.833,543969.497,550724.378,550725.79999995,2023-03-21T18:59:55Z,550741.374,NULL,Wechsel,ugeuzaji,d,NA,NA,NA,NA,sdf,NA,2,NA,NA,NA,NA,NA,NA,NA,NA,NA,NA,NA,NA,NA,NA,NA,NA,NA,NA,NA
8db8a,shallow,flow.Sequence,3_0_2_0_0_1,NA,NA,skipped,NA,550726,NA,NA,550724.378,550726.20000005,2023-03-21T18:59:55Z,550741.374,NULL,Wechsel,ugeuzaji,d,NA,NA,NA,NA,sdf,NA,2,NA,NA,NA,NA,NA,NA,NA,NA,NA,NA,NA,NA,NA,NA,NA,NA,NA,NA,NA
8db8a,task,flow.Sequence,3_0_2_0_0,NA,NA,completion,6754.8810000001,543981,543925.833,543969.497,550724.378,550726.29999995,2023-03-21T18:59:55Z,550741.374,NULL,Wechsel,ugeuzaji,d,NA,NA,NA,NA,sdf,NA,2,NA,NA,NA,NA,NA,NA,NA,NA,NA,NA,NA,NA,NA,NA,NA,NA,NA,NA,NA
8db8a,Deep Question,html.Page,3_0_2_0_1_0_0,NA,NA,form submission,6434.9259999524,550726.5,550724.378,550741.374,557176.29999995,557176.79999995,2023-03-21T19:00:01Z,557178.65,NULL,Sänger,mwimbaji,d,NA,NA,NA,mwimbaji,NA,NA,2,NA,NA,NA,NA,NA,NA,NA,NA,NA,NA,NA,NA,NA,NA,NA,NA,NA,NA,NA
8db8a,"""Richtig""-Screen",canvas.Screen,3_0_2_0_1_0_1,NA,NA,timeout,5003.505,557180.70000005,557162.06,557178.65,562165.637,562167.4000001,2023-03-21T19:00:06Z,562182.155,NULL,Sänger,mwimbaji,d,NA,NA,NA,NA,sdf,1,2,NA,NA,NA,NA,NA,NA,NA,NA,NA,NA,NA,NA,NA,NA,NA,NA,NA,NA,NA
8db8a,"""Falsch""-Screen",canvas.Screen,3_0_2_0_1_0_2,NA,NA,skipped,NA,562172.79999995,NA,NA,562165.637,562173,2023-03-21T19:00:06Z,562182.155,NULL,Sänger,mwimbaji,d,NA,NA,NA,NA,sdf,NA,2,NA,NA,NA,NA,NA,NA,NA,NA,NA,NA,NA,NA,NA,NA,NA,NA,NA,NA,NA
8db8a,deep,flow.Sequence,3_0_2_0_1_0,NA,NA,completion,11424.263,550726.5,550724.378,550741.374,562165.637,562173.29999995,2023-03-21T19:00:06Z,562182.155,NULL,Sänger,mwimbaji,d,NA,NA,NA,NA,sdf,NA,2,NA,NA,NA,NA,NA,NA,NA,NA,NA,NA,NA,NA,NA,NA,NA,NA,NA,NA,NA
8db8a,shallow,flow.Sequence,3_0_2_0_1_1,NA,NA,skipped,NA,562173.5,NA,NA,562165.637,562173.5,2023-03-21T19:00:06Z,562182.155,NULL,Sänger,mwimbaji,d,NA,NA,NA,NA,sdf,NA,2,NA,NA,NA,NA,NA,NA,NA,NA,NA,NA,NA,NA,NA,NA,NA,NA,NA,NA,NA
8db8a,task,flow.Sequence,3_0_2_0_1,NA,NA,completion,11424.263,550726.4000001,550724.378,550741.374,562165.637,562173.70000005,2023-03-21T19:00:06Z,562182.155,NULL,Sänger,mwimbaji,d,NA,NA,NA,NA,sdf,NA,2,NA,NA,NA,NA,NA,NA,NA,NA,NA,NA,NA,NA,NA,NA,NA,NA,NA,NA,NA
8db8a,deep,flow.Sequence,3_0_2_0_2_0,NA,NA,skipped,NA,562173.79999995,NA,NA,562165.637,562174,2023-03-21T19:00:06Z,562182.155,NULL,Flexibilität,kubadilika,s,enjini,usikilivu,hesabu,NA,sdf,NA,2,NA,NA,NA,NA,NA,NA,NA,NA,NA,NA,NA,NA,NA,NA,NA,NA,NA,NA,NA
8db8a,Shallow Question,html.Page,3_0_2_0_2_1_0,NA,NA,form submission,6263.0450000477,562174.10000014,562165.637,562182.155,568445.20000005,568445.70000005,2023-03-21T19:00:13Z,568453.087,NULL,Flexibilität,kubadilika,s,enjini,usikilivu,hesabu,hesabu,NA,NA,2,NA,NA,NA,NA,NA,NA,NA,NA,NA,NA,NA,NA,NA,NA,NA,NA,NA,NA,NA
8db8a,"""Richtig""-Screen",canvas.Screen,3_0_2_0_2_1_1,NA,NA,skipped,NA,568450.4000001,NA,NA,568445.20000005,568450.60000014,2023-03-21T19:00:13Z,568453.087,NULL,Flexibilität,kubadilika,s,enjini,usikilivu,hesabu,NA,sdf,NA,2,NA,NA,NA,NA,NA,NA,NA,NA,NA,NA,NA,NA,NA,NA,NA,NA,NA,NA,NA
8db8a,"""Falsch""-Screen",canvas.Screen,3_0_2_0_2_1_2,NA,NA,timeout,5003.737,568451.70000005,568436.693,568453.087,573439.923,573441.20000005,2023-03-21T19:00:18Z,573456.824,NULL,Flexibilität,kubadilika,s,enjini,usikilivu,hesabu,NA,sdf,0,2,NA,NA,NA,NA,NA,NA,NA,NA,NA,NA,NA,NA,NA,NA,NA,NA,NA,NA,NA
8db8a,shallow,flow.Sequence,3_0_2_0_2_1,NA,NA,completion,11257.768,562174.10000014,562165.637,562182.155,573439.923,573441.5,2023-03-21T19:00:18Z,573456.824,NULL,Flexibilität,kubadilika,s,enjini,usikilivu,hesabu,NA,sdf,NA,2,NA,NA,NA,NA,NA,NA,NA,NA,NA,NA,NA,NA,NA,NA,NA,NA,NA,NA,NA
8db8a,task,flow.Sequence,3_0_2_0_2,NA,NA,completion,11257.768,562173.79999995,562165.637,562182.155,573439.923,573441.70000005,2023-03-21T19:00:18Z,573456.824,NULL,Flexibilität,kubadilika,s,enjini,usikilivu,hesabu,NA,sdf,NA,2,NA,NA,NA,NA,NA,NA,NA,NA,NA,NA,NA,NA,NA,NA,NA,NA,NA,NA,NA
8db8a,deep,flow.Sequence,3_0_2_0_3_0,NA,NA,skipped,NA,573441.9000001,NA,NA,573439.923,573442,2023-03-21T19:00:18Z,573456.824,NULL,Kanzler,diwani,s,rasilmali,mahitaji,maabudu,NA,sdf,NA,2,NA,NA,NA,NA,NA,NA,NA,NA,NA,NA,NA,NA,NA,NA,NA,NA,NA,NA,NA
8db8a,Shallow Question,html.Page,3_0_2_0_3_1_0,NA,NA,form submission,3447.676,573442.10000014,573439.923,573456.824,576904.5,576905,2023-03-21T19:00:21Z,576908.806,NULL,Kanzler,diwani,s,rasilmali,mahitaji,maabudu,diwani,NA,NA,2,NA,NA,NA,NA,NA,NA,NA,NA,NA,NA,NA,NA,NA,NA,NA,NA,NA,NA,NA
8db8a,"""Richtig""-Screen",canvas.Screen,3_0_2_0_3_1_1,NA,NA,timeout,5003.475,576909.9000001,576892.307,576908.806,581895.953,581897.29999995,2023-03-21T19:00:26Z,581912.281,NULL,Kanzler,diwani,s,rasilmali,mahitaji,maabudu,NA,sdf,1,2,NA,NA,NA,NA,NA,NA,NA,NA,NA,NA,NA,NA,NA,NA,NA,NA,NA,NA,NA
8db8a,"""Falsch""-Screen",canvas.Screen,3_0_2_0_3_1_2,NA,NA,skipped,NA,581902.4000001,NA,NA,581895.953,581902.60000014,2023-03-21T19:00:26Z,581912.281,NULL,Kanzler,diwani,s,rasilmali,mahitaji,maabudu,NA,sdf,NA,2,NA,NA,NA,NA,NA,NA,NA,NA,NA,NA,NA,NA,NA,NA,NA,NA,NA,NA,NA
8db8a,shallow,flow.Sequence,3_0_2_0_3_1,NA,NA,completion,8439.129,573442.10000014,573439.923,573456.824,581895.953,581902.79999995,2023-03-21T19:00:26Z,581912.281,NULL,Kanzler,diwani,s,rasilmali,mahitaji,maabudu,NA,sdf,NA,2,NA,NA,NA,NA,NA,NA,NA,NA,NA,NA,NA,NA,NA,NA,NA,NA,NA,NA,NA
8db8a,task,flow.Sequence,3_0_2_0_3,NA,NA,completion,8439.129,573441.79999995,573439.923,573456.824,581895.953,581903,2023-03-21T19:00:26Z,581912.281,NULL,Kanzler,diwani,s,rasilmali,mahitaji,maabudu,NA,sdf,NA,2,NA,NA,NA,NA,NA,NA,NA,NA,NA,NA,NA,NA,NA,NA,NA,NA,NA,NA,NA
8db8a,deep,flow.Sequence,3_0_2_0_4_0,NA,NA,skipped,NA,581903.10000014,NA,NA,581895.953,581903.20000005,2023-03-21T19:00:26Z,581912.281,NULL,Abrechnung,uhasibu,s,kusahihisha,mpambano,mashambulizi,NA,sdf,NA,2,NA,NA,NA,NA,NA,NA,NA,NA,NA,NA,NA,NA,NA,NA,NA,NA,NA,NA,NA
8db8a,Shallow Question,html.Page,3_0_2_0_4_1_0,NA,NA,form submission,6779.0189999524,581903.4000001,581895.953,581912.281,588691.29999995,588691.70000005,2023-03-21T19:00:33Z,588700.283,NULL,Abrechnung,uhasibu,s,kusahihisha,mpambano,mashambulizi,uhasibu,NA,NA,2,NA,NA,NA,NA,NA,NA,NA,NA,NA,NA,NA,NA,NA,NA,NA,NA,NA,NA,NA
8db8a,"""Richtig""-Screen",canvas.Screen,3_0_2_0_4_1_1,NA,NA,timeout,5003.419,588696.29999995,588683.597,588700.283,593687.122,593688.20000005,2023-03-21T19:00:38Z,593703.702,NULL,Abrechnung,uhasibu,s,kusahihisha,mpambano,mashambulizi,NA,sdf,1,2,NA,NA,NA,NA,NA,NA,NA,NA,NA,NA,NA,NA,NA,NA,NA,NA,NA,NA,NA
8db8a,"""Falsch""-Screen",canvas.Screen,3_0_2_0_4_1_2,NA,NA,skipped,NA,593693,NA,NA,593687.122,593693.29999995,2023-03-21T19:00:38Z,593703.702,NULL,Abrechnung,uhasibu,s,kusahihisha,mpambano,mashambulizi,NA,sdf,NA,2,NA,NA,NA,NA,NA,NA,NA,NA,NA,NA,NA,NA,NA,NA,NA,NA,NA,NA,NA
8db8a,shallow,flow.Sequence,3_0_2_0_4_1,NA,NA,completion,11774.841,581903.4000001,581895.953,581912.281,593687.122,593693.5,2023-03-21T19:00:38Z,593703.702,NULL,Abrechnung,uhasibu,s,kusahihisha,mpambano,mashambulizi,NA,sdf,NA,2,NA,NA,NA,NA,NA,NA,NA,NA,NA,NA,NA,NA,NA,NA,NA,NA,NA,NA,NA
8db8a,task,flow.Sequence,3_0_2_0_4,NA,NA,completion,11774.841,581903,581895.953,581912.281,593687.122,593693.70000005,2023-03-21T19:00:38Z,593703.702,NULL,Abrechnung,uhasibu,s,kusahihisha,mpambano,mashambulizi,NA,sdf,NA,2,NA,NA,NA,NA,NA,NA,NA,NA,NA,NA,NA,NA,NA,NA,NA,NA,NA,NA,NA
8db8a,Deep Question,html.Page,3_0_2_0_5_0_0,NA,NA,form submission,4372.5979999523,593693.79999995,593687.122,593703.702,598076.29999995,598076.60000014,2023-03-21T19:00:42Z,598089.911,NULL,Erneuerung,ukarabati,d,NA,NA,NA,ukiribati,NA,NA,2,NA,NA,NA,NA,NA,NA,NA,NA,NA,NA,NA,NA,NA,NA,NA,NA,NA,NA,NA
8db8a,"""Richtig""-Screen",canvas.Screen,3_0_2_0_5_0_1,NA,NA,skipped,NA,598080.29999995,NA,NA,598076.29999995,598080.5,2023-03-21T19:00:42Z,598089.911,NULL,Erneuerung,ukarabati,d,NA,NA,NA,NA,sdf,NA,2,NA,NA,NA,NA,NA,NA,NA,NA,NA,NA,NA,NA,NA,NA,NA,NA,NA,NA,NA
8db8a,"""Falsch""-Screen",canvas.Screen,3_0_2_0_5_0_2,NA,NA,timeout,5003.581,598081.4000001,598073.565,598089.911,603076.825,603078.20000005,2023-03-21T19:00:47Z,603093.492,NULL,Erneuerung,ukarabati,d,NA,NA,NA,NA,sdf,0,2,NA,NA,NA,NA,NA,NA,NA,NA,NA,NA,NA,NA,NA,NA,NA,NA,NA,NA,NA
8db8a,deep,flow.Sequence,3_0_2_0_5_0,NA,NA,completion,9373.1229999999,593693.79999995,593687.122,593703.702,603076.825,603078.5,2023-03-21T19:00:47Z,603093.492,NULL,Erneuerung,ukarabati,d,NA,NA,NA,NA,sdf,NA,2,NA,NA,NA,NA,NA,NA,NA,NA,NA,NA,NA,NA,NA,NA,NA,NA,NA,NA,NA
8db8a,shallow,flow.Sequence,3_0_2_0_5_1,NA,NA,skipped,NA,603078.70000005,NA,NA,603076.825,603078.79999995,2023-03-21T19:00:47Z,603093.492,NULL,Erneuerung,ukarabati,d,NA,NA,NA,NA,sdf,NA,2,NA,NA,NA,NA,NA,NA,NA,NA,NA,NA,NA,NA,NA,NA,NA,NA,NA,NA,NA
8db8a,task,flow.Sequence,3_0_2_0_5,NA,NA,completion,9373.1229999999,593693.79999995,593687.122,593703.702,603076.825,603079,2023-03-21T19:00:47Z,603093.492,NULL,Erneuerung,ukarabati,d,NA,NA,NA,NA,sdf,NA,2,NA,NA,NA,NA,NA,NA,NA,NA,NA,NA,NA,NA,NA,NA,NA,NA,NA,NA,NA
8db8a,Deep Question,html.Page,3_0_2_0_6_0_0,NA,NA,form submission,2362.7080000477,603079.20000005,603076.825,603093.492,605456.20000005,605456.5,2023-03-21T19:00:50Z,605461.742,NULL,Angreifer,mshambulizi,d,NA,NA,NA,p,NA,NA,2,NA,NA,NA,NA,NA,NA,NA,NA,NA,NA,NA,NA,NA,NA,NA,NA,NA,NA,NA
8db8a,"""Richtig""-Screen",canvas.Screen,3_0_2_0_6_0_1,NA,NA,skipped,NA,605460.70000005,NA,NA,605456.20000005,605460.79999995,2023-03-21T19:00:50Z,605461.742,NULL,Angreifer,mshambulizi,d,NA,NA,NA,NA,sdf,NA,2,NA,NA,NA,NA,NA,NA,NA,NA,NA,NA,NA,NA,NA,NA,NA,NA,NA,NA,NA
8db8a,"""Falsch""-Screen",canvas.Screen,3_0_2_0_6_0_2,NA,NA,timeout,5003.7880000001,605461.9000001,605454.134,605461.742,610448.676,610449.9000001,2023-03-21T19:00:55Z,610465.53,NULL,Angreifer,mshambulizi,d,NA,NA,NA,NA,sdf,0,2,NA,NA,NA,NA,NA,NA,NA,NA,NA,NA,NA,NA,NA,NA,NA,NA,NA,NA,NA
8db8a,deep,flow.Sequence,3_0_2_0_6_0,NA,NA,completion,7355.184,603079.20000005,603076.825,603093.492,610448.676,610450.10000014,2023-03-21T19:00:55Z,610465.53,NULL,Angreifer,mshambulizi,d,NA,NA,NA,NA,sdf,NA,2,NA,NA,NA,NA,NA,NA,NA,NA,NA,NA,NA,NA,NA,NA,NA,NA,NA,NA,NA
8db8a,shallow,flow.Sequence,3_0_2_0_6_1,NA,NA,skipped,NA,610450.29999995,NA,NA,610448.676,610450.5,2023-03-21T19:00:55Z,610465.53,NULL,Angreifer,mshambulizi,d,NA,NA,NA,NA,sdf,NA,2,NA,NA,NA,NA,NA,NA,NA,NA,NA,NA,NA,NA,NA,NA,NA,NA,NA,NA,NA
8db8a,task,flow.Sequence,3_0_2_0_6,NA,NA,completion,7355.184,603079.10000014,603076.825,603093.492,610448.676,610450.60000014,2023-03-21T19:00:55Z,610465.53,NULL,Angreifer,mshambulizi,d,NA,NA,NA,NA,sdf,NA,2,NA,NA,NA,NA,NA,NA,NA,NA,NA,NA,NA,NA,NA,NA,NA,NA,NA,NA,NA
8db8a,deep,flow.Sequence,3_0_2_0_7_0,NA,NA,skipped,NA,610450.79999995,NA,NA,610448.676,610450.9000001,2023-03-21T19:00:55Z,610465.53,NULL,Atmosphäre,angahewa,s,kuteseka,usahihi,kutoamini,NA,sdf,NA,2,NA,NA,NA,NA,NA,NA,NA,NA,NA,NA,NA,NA,NA,NA,NA,NA,NA,NA,NA
8db8a,Shallow Question,html.Page,3_0_2_0_7_1_0,NA,NA,form submission,7172.97,610451,610448.676,610465.53,617638.5,617638.9000001,2023-03-21T19:01:02Z,617653.314,NULL,Atmosphäre,angahewa,s,kuteseka,usahihi,kutoamini,usahihi,NA,NA,2,NA,NA,NA,NA,NA,NA,NA,NA,NA,NA,NA,NA,NA,NA,NA,NA,NA,NA,NA
8db8a,"""Richtig""-Screen",canvas.Screen,3_0_2_0_7_1_1,NA,NA,skipped,NA,617643.79999995,NA,NA,617638.5,617644.10000014,2023-03-21T19:01:02Z,617653.314,NULL,Atmosphäre,angahewa,s,kuteseka,usahihi,kutoamini,NA,sdf,NA,2,NA,NA,NA,NA,NA,NA,NA,NA,NA,NA,NA,NA,NA,NA,NA,NA,NA,NA,NA
8db8a,"""Falsch""-Screen",canvas.Screen,3_0_2_0_7_1_2,NA,NA,timeout,5003.628,617645.4000001,617637.15,617653.314,622640.338,622641.79999995,2023-03-21T19:01:07Z,622656.942,NULL,Atmosphäre,angahewa,s,kuteseka,usahihi,kutoamini,NA,sdf,0,2,NA,NA,NA,NA,NA,NA,NA,NA,NA,NA,NA,NA,NA,NA,NA,NA,NA,NA,NA
8db8a,shallow,flow.Sequence,3_0_2_0_7_1,NA,NA,completion,12174.808,610450.9000001,610448.676,610465.53,622640.338,622642.20000005,2023-03-21T19:01:07Z,622656.942,NULL,Atmosphäre,angahewa,s,kuteseka,usahihi,kutoamini,NA,sdf,NA,2,NA,NA,NA,NA,NA,NA,NA,NA,NA,NA,NA,NA,NA,NA,NA,NA,NA,NA,NA
8db8a,task,flow.Sequence,3_0_2_0_7,NA,NA,completion,12174.808,610450.70000005,610448.676,610465.53,622640.338,622642.29999995,2023-03-21T19:01:07Z,622656.942,NULL,Atmosphäre,angahewa,s,kuteseka,usahihi,kutoamini,NA,sdf,NA,2,NA,NA,NA,NA,NA,NA,NA,NA,NA,NA,NA,NA,NA,NA,NA,NA,NA,NA,NA
8db8a,block,flow.Loop,3_0_2_0,NA,NA,completion,78670.841,543980.9000001,543925.833,543969.497,622640.338,622642.5,2023-03-21T19:01:07Z,622656.942,NULL,NA,NA,NA,NA,NA,NA,NA,sdf,NA,2,NA,NA,NA,NA,NA,NA,NA,NA,NA,NA,NA,NA,NA,NA,NA,NA,NA,NA,NA
8db8a,weiter,canvas.Screen,3_0_2_1,sdf,keypress(Space),response,1287.8579999523,622642.60000014,622640.338,622656.942,623944.79999995,623945.9000001,2023-03-21T19:01:08Z,623974.406,NULL,NA,NA,NA,NA,NA,NA,NA,sdf,NA,2,NA,NA,NA,NA,NA,NA,NA,NA,NA,NA,NA,NA,NA,NA,NA,NA,NA,NA,NA
8db8a,check continue,flow.Sequence,3_0_2,NA,NA,completion,79975.302999952,543980.9000001,543925.833,543969.497,623944.79999995,623946.29999995,2023-03-21T19:01:08Z,623974.406,NULL,NA,NA,NA,NA,NA,NA,NA,sdf,NA,2,NA,NA,NA,NA,NA,NA,NA,NA,NA,NA,NA,NA,NA,NA,NA,NA,NA,NA,NA
8db8a,deep,flow.Sequence,3_0_3_0_0_0,NA,NA,skipped,NA,623978.70000005,NA,NA,623944.79999995,623978.79999995,2023-03-21T19:01:08Z,623974.406,NULL,Abrechnung,uhasibu,s,kusahihisha,mpambano,mashambulizi,NA,qt,NA,3,NA,NA,NA,NA,NA,NA,NA,NA,NA,NA,NA,NA,NA,NA,NA,NA,NA,NA,NA
8db8a,Shallow Question,html.Page,3_0_3_0_0_1_0,NA,NA,form submission,7280.2940000477,623978.9000001,623944.15,623974.406,631254.70000005,631255.29999995,2023-03-21T19:01:15Z,631262.655,NULL,Abrechnung,uhasibu,s,kusahihisha,mpambano,mashambulizi,uhasibu,NA,NA,3,NA,NA,NA,NA,NA,NA,NA,NA,NA,NA,NA,NA,NA,NA,NA,NA,NA,NA,NA
8db8a,"""Richtig""-Screen",canvas.Screen,3_0_3_0_0_1_1,NA,NA,timeout,5003.6749999999,631260.20000005,631246.351,631262.655,636249.706,636251,2023-03-21T19:01:20Z,636266.33,NULL,Abrechnung,uhasibu,s,kusahihisha,mpambano,mashambulizi,NA,qt,1,3,NA,NA,NA,NA,NA,NA,NA,NA,NA,NA,NA,NA,NA,NA,NA,NA,NA,NA,NA
8db8a,"""Falsch""-Screen",canvas.Screen,3_0_3_0_0_1_2,NA,NA,skipped,NA,636256.70000005,NA,NA,636249.706,636256.79999995,2023-03-21T19:01:20Z,636266.33,NULL,Abrechnung,uhasibu,s,kusahihisha,mpambano,mashambulizi,NA,qt,NA,3,NA,NA,NA,NA,NA,NA,NA,NA,NA,NA,NA,NA,NA,NA,NA,NA,NA,NA,NA
8db8a,shallow,flow.Sequence,3_0_3_0_0_1,NA,NA,completion,12275.3,623978.9000001,623944.15,623974.406,636249.706,636257,2023-03-21T19:01:20Z,636266.33,NULL,Abrechnung,uhasibu,s,kusahihisha,mpambano,mashambulizi,NA,qt,NA,3,NA,NA,NA,NA,NA,NA,NA,NA,NA,NA,NA,NA,NA,NA,NA,NA,NA,NA,NA
8db8a,task,flow.Sequence,3_0_3_0_0,NA,NA,completion,12275.3,623978.70000005,623944.15,623974.406,636249.706,636257.29999995,2023-03-21T19:01:20Z,636266.33,NULL,Abrechnung,uhasibu,s,kusahihisha,mpambano,mashambulizi,NA,qt,NA,3,NA,NA,NA,NA,NA,NA,NA,NA,NA,NA,NA,NA,NA,NA,NA,NA,NA,NA,NA
8db8a,Deep Question,html.Page,3_0_3_0_1_0_0,NA,NA,form submission,7420.8700000477,636257.5,636249.706,636266.33,643687.20000005,643687.5,2023-03-21T19:01:28Z,643705.119,NULL,Angreifer,mshambulizi,d,NA,NA,NA,ang,NA,NA,3,NA,NA,NA,NA,NA,NA,NA,NA,NA,NA,NA,NA,NA,NA,NA,NA,NA,NA,NA
8db8a,"""Richtig""-Screen",canvas.Screen,3_0_3_0_1_0_1,NA,NA,skipped,NA,643691.60000014,NA,NA,643687.20000005,643691.9000001,2023-03-21T19:01:28Z,643705.119,NULL,Angreifer,mshambulizi,d,NA,NA,NA,NA,qt,NA,3,NA,NA,NA,NA,NA,NA,NA,NA,NA,NA,NA,NA,NA,NA,NA,NA,NA,NA,NA
8db8a,"""Falsch""-Screen",canvas.Screen,3_0_3_0_1_0_2,NA,NA,timeout,5003.1760000001,643692.9000001,643671.477,643705.119,648691.446,648692.79999995,2023-03-21T19:01:33Z,648708.295,NULL,Angreifer,mshambulizi,d,NA,NA,NA,NA,qt,0,3,NA,NA,NA,NA,NA,NA,NA,NA,NA,NA,NA,NA,NA,NA,NA,NA,NA,NA,NA
8db8a,deep,flow.Sequence,3_0_3_0_1_0,NA,NA,completion,12425.116,636257.4000001,636249.706,636266.33,648691.446,648693.20000005,2023-03-21T19:01:33Z,648708.295,NULL,Angreifer,mshambulizi,d,NA,NA,NA,NA,qt,NA,3,NA,NA,NA,NA,NA,NA,NA,NA,NA,NA,NA,NA,NA,NA,NA,NA,NA,NA,NA
8db8a,shallow,flow.Sequence,3_0_3_0_1_1,NA,NA,skipped,NA,648693.29999995,NA,NA,648691.446,648693.4000001,2023-03-21T19:01:33Z,648708.295,NULL,Angreifer,mshambulizi,d,NA,NA,NA,NA,qt,NA,3,NA,NA,NA,NA,NA,NA,NA,NA,NA,NA,NA,NA,NA,NA,NA,NA,NA,NA,NA
8db8a,task,flow.Sequence,3_0_3_0_1,NA,NA,completion,12425.116,636257.4000001,636249.706,636266.33,648691.446,648693.60000014,2023-03-21T19:01:33Z,648708.295,NULL,Angreifer,mshambulizi,d,NA,NA,NA,NA,qt,NA,3,NA,NA,NA,NA,NA,NA,NA,NA,NA,NA,NA,NA,NA,NA,NA,NA,NA,NA,NA
8db8a,deep,flow.Sequence,3_0_3_0_2_0,NA,NA,skipped,NA,648693.70000005,NA,NA,648691.446,648693.79999995,2023-03-21T19:01:33Z,648708.295,NULL,Atmosphäre,angahewa,s,kuteseka,usahihi,kutoamini,NA,qt,NA,3,NA,NA,NA,NA,NA,NA,NA,NA,NA,NA,NA,NA,NA,NA,NA,NA,NA,NA,NA
8db8a,Shallow Question,html.Page,3_0_3_0_2_1_0,NA,NA,form submission,6100.705,648693.9000001,648691.446,648708.295,654809,654809.5,2023-03-21T19:01:39Z,654812.366,NULL,Atmosphäre,angahewa,s,kuteseka,usahihi,kutoamini,angahewa,NA,NA,3,NA,NA,NA,NA,NA,NA,NA,NA,NA,NA,NA,NA,NA,NA,NA,NA,NA,NA,NA
8db8a,"""Richtig""-Screen",canvas.Screen,3_0_3_0_2_1_1,NA,NA,timeout,5003.372,654814.4000001,654795.612,654812.366,659798.946,659800.29999995,2023-03-21T19:01:44Z,659815.738,NULL,Atmosphäre,angahewa,s,kuteseka,usahihi,kutoamini,NA,qt,1,3,NA,NA,NA,NA,NA,NA,NA,NA,NA,NA,NA,NA,NA,NA,NA,NA,NA,NA,NA
8db8a,"""Falsch""-Screen",canvas.Screen,3_0_3_0_2_1_2,NA,NA,skipped,NA,659805.5,NA,NA,659798.946,659805.70000005,2023-03-21T19:01:44Z,659815.738,NULL,Atmosphäre,angahewa,s,kuteseka,usahihi,kutoamini,NA,qt,NA,3,NA,NA,NA,NA,NA,NA,NA,NA,NA,NA,NA,NA,NA,NA,NA,NA,NA,NA,NA
8db8a,shallow,flow.Sequence,3_0_3_0_2_1,NA,NA,completion,11090.651,648693.9000001,648691.446,648708.295,659798.946,659805.9000001,2023-03-21T19:01:44Z,659815.738,NULL,Atmosphäre,angahewa,s,kuteseka,usahihi,kutoamini,NA,qt,NA,3,NA,NA,NA,NA,NA,NA,NA,NA,NA,NA,NA,NA,NA,NA,NA,NA,NA,NA,NA
8db8a,task,flow.Sequence,3_0_3_0_2,NA,NA,completion,11090.651,648693.60000014,648691.446,648708.295,659798.946,659806.10000014,2023-03-21T19:01:44Z,659815.738,NULL,Atmosphäre,angahewa,s,kuteseka,usahihi,kutoamini,NA,qt,NA,3,NA,NA,NA,NA,NA,NA,NA,NA,NA,NA,NA,NA,NA,NA,NA,NA,NA,NA,NA
8db8a,Deep Question,html.Page,3_0_3_0_3_0_0,NA,NA,form submission,5160.762,659806.29999995,659798.946,659815.738,664976.5,664976.79999995,2023-03-21T19:01:49Z,665002.484,NULL,Erneuerung,ukarabati,d,NA,NA,NA,ukarabati,NA,NA,3,NA,NA,NA,NA,NA,NA,NA,NA,NA,NA,NA,NA,NA,NA,NA,NA,NA,NA,NA
8db8a,"""Richtig""-Screen",canvas.Screen,3_0_3_0_3_0_1,NA,NA,timeout,5003.428,664980.5,664985.854,665002.484,669989.221,669990.5,2023-03-21T19:01:54Z,670005.912,NULL,Erneuerung,ukarabati,d,NA,NA,NA,NA,qt,1,3,NA,NA,NA,NA,NA,NA,NA,NA,NA,NA,NA,NA,NA,NA,NA,NA,NA,NA,NA
8db8a,"""Falsch""-Screen",canvas.Screen,3_0_3_0_3_0_2,NA,NA,skipped,NA,669995.29999995,NA,NA,669989.221,669995.4000001,2023-03-21T19:01:54Z,670005.912,NULL,Erneuerung,ukarabati,d,NA,NA,NA,NA,qt,NA,3,NA,NA,NA,NA,NA,NA,NA,NA,NA,NA,NA,NA,NA,NA,NA,NA,NA,NA,NA
8db8a,deep,flow.Sequence,3_0_3_0_3_0,NA,NA,completion,10173.483,659806.29999995,659798.946,659815.738,669989.221,669995.70000005,2023-03-21T19:01:54Z,670005.912,NULL,Erneuerung,ukarabati,d,NA,NA,NA,NA,qt,NA,3,NA,NA,NA,NA,NA,NA,NA,NA,NA,NA,NA,NA,NA,NA,NA,NA,NA,NA,NA
8db8a,shallow,flow.Sequence,3_0_3_0_3_1,NA,NA,skipped,NA,669995.79999995,NA,NA,669989.221,669995.9000001,2023-03-21T19:01:54Z,670005.912,NULL,Erneuerung,ukarabati,d,NA,NA,NA,NA,qt,NA,3,NA,NA,NA,NA,NA,NA,NA,NA,NA,NA,NA,NA,NA,NA,NA,NA,NA,NA,NA
8db8a,task,flow.Sequence,3_0_3_0_3,NA,NA,completion,10173.483,659806.29999995,659798.946,659815.738,669989.221,669996,2023-03-21T19:01:54Z,670005.912,NULL,Erneuerung,ukarabati,d,NA,NA,NA,NA,qt,NA,3,NA,NA,NA,NA,NA,NA,NA,NA,NA,NA,NA,NA,NA,NA,NA,NA,NA,NA,NA
8db8a,Deep Question,html.Page,3_0_3_0_4_0_0,NA,NA,form submission,6140.7880000477,669996.20000005,669989.221,670005.912,676146.70000005,676147.10000014,2023-03-21T19:02:00Z,676160.108,NULL,Sänger,mwimbaji,d,NA,NA,NA,mwimbaji,NA,NA,3,NA,NA,NA,NA,NA,NA,NA,NA,NA,NA,NA,NA,NA,NA,NA,NA,NA,NA,NA
8db8a,"""Richtig""-Screen",canvas.Screen,3_0_3_0_4_0_1,NA,NA,timeout,5003.627,676150.79999995,676143.791,676160.108,681147.278,681148.79999995,2023-03-21T19:02:05Z,681163.735,NULL,Sänger,mwimbaji,d,NA,NA,NA,NA,qt,1,3,NA,NA,NA,NA,NA,NA,NA,NA,NA,NA,NA,NA,NA,NA,NA,NA,NA,NA,NA
8db8a,"""Falsch""-Screen",canvas.Screen,3_0_3_0_4_0_2,NA,NA,skipped,NA,681153.79999995,NA,NA,681147.278,681154,2023-03-21T19:02:05Z,681163.735,NULL,Sänger,mwimbaji,d,NA,NA,NA,NA,qt,NA,3,NA,NA,NA,NA,NA,NA,NA,NA,NA,NA,NA,NA,NA,NA,NA,NA,NA,NA,NA
8db8a,deep,flow.Sequence,3_0_3_0_4_0,NA,NA,completion,11141.366,669996.20000005,669989.221,670005.912,681147.278,681154.29999995,2023-03-21T19:02:05Z,681163.735,NULL,Sänger,mwimbaji,d,NA,NA,NA,NA,qt,NA,3,NA,NA,NA,NA,NA,NA,NA,NA,NA,NA,NA,NA,NA,NA,NA,NA,NA,NA,NA
8db8a,shallow,flow.Sequence,3_0_3_0_4_1,NA,NA,skipped,NA,681154.4000001,NA,NA,681147.278,681154.4000001,2023-03-21T19:02:05Z,681163.735,NULL,Sänger,mwimbaji,d,NA,NA,NA,NA,qt,NA,3,NA,NA,NA,NA,NA,NA,NA,NA,NA,NA,NA,NA,NA,NA,NA,NA,NA,NA,NA
8db8a,task,flow.Sequence,3_0_3_0_4,NA,NA,completion,11141.366,669996.10000014,669989.221,670005.912,681147.278,681154.60000014,2023-03-21T19:02:05Z,681163.735,NULL,Sänger,mwimbaji,d,NA,NA,NA,NA,qt,NA,3,NA,NA,NA,NA,NA,NA,NA,NA,NA,NA,NA,NA,NA,NA,NA,NA,NA,NA,NA
8db8a,deep,flow.Sequence,3_0_3_0_5_0,NA,NA,skipped,NA,681154.79999995,NA,NA,681147.278,681154.79999995,2023-03-21T19:02:05Z,681163.735,NULL,Flexibilität,kubadilika,s,enjini,usikilivu,hesabu,NA,qt,NA,3,NA,NA,NA,NA,NA,NA,NA,NA,NA,NA,NA,NA,NA,NA,NA,NA,NA,NA,NA
8db8a,Shallow Question,html.Page,3_0_3_0_5_1_0,NA,NA,form submission,7316.9650000477,681155,681147.278,681163.735,688480.70000005,688481.20000005,2023-03-21T19:02:13Z,688485.348,NULL,Flexibilität,kubadilika,s,enjini,usikilivu,hesabu,kubadilika,NA,NA,3,NA,NA,NA,NA,NA,NA,NA,NA,NA,NA,NA,NA,NA,NA,NA,NA,NA,NA,NA
8db8a,"""Richtig""-Screen",canvas.Screen,3_0_3_0_5_1_1,NA,NA,timeout,5003.267,688485.9000001,688468.625,688485.348,693472.15,693473.70000005,2023-03-21T19:02:18Z,693488.615,NULL,Flexibilität,kubadilika,s,enjini,usikilivu,hesabu,NA,qt,1,3,NA,NA,NA,NA,NA,NA,NA,NA,NA,NA,NA,NA,NA,NA,NA,NA,NA,NA,NA
8db8a,"""Falsch""-Screen",canvas.Screen,3_0_3_0_5_1_2,NA,NA,skipped,NA,693478.70000005,NA,NA,693472.15,693478.9000001,2023-03-21T19:02:18Z,693488.615,NULL,Flexibilität,kubadilika,s,enjini,usikilivu,hesabu,NA,qt,NA,3,NA,NA,NA,NA,NA,NA,NA,NA,NA,NA,NA,NA,NA,NA,NA,NA,NA,NA,NA
8db8a,shallow,flow.Sequence,3_0_3_0_5_1,NA,NA,completion,12308.415,681154.9000001,681147.278,681163.735,693472.15,693479.20000005,2023-03-21T19:02:18Z,693488.615,NULL,Flexibilität,kubadilika,s,enjini,usikilivu,hesabu,NA,qt,NA,3,NA,NA,NA,NA,NA,NA,NA,NA,NA,NA,NA,NA,NA,NA,NA,NA,NA,NA,NA
8db8a,task,flow.Sequence,3_0_3_0_5,NA,NA,completion,12308.415,681154.70000005,681147.278,681163.735,693472.15,693479.4000001,2023-03-21T19:02:18Z,693488.615,NULL,Flexibilität,kubadilika,s,enjini,usikilivu,hesabu,NA,qt,NA,3,NA,NA,NA,NA,NA,NA,NA,NA,NA,NA,NA,NA,NA,NA,NA,NA,NA,NA,NA
8db8a,Deep Question,html.Page,3_0_3_0_6_0_0,NA,NA,form submission,2338.1849999523,693479.5,693472.15,693488.615,695826.79999995,695827.20000005,2023-03-21T19:02:20Z,695840.228,NULL,Wechsel,ugeuzaji,d,NA,NA,NA,p,NA,NA,3,NA,NA,NA,NA,NA,NA,NA,NA,NA,NA,NA,NA,NA,NA,NA,NA,NA,NA,NA
8db8a,"""Richtig""-Screen",canvas.Screen,3_0_3_0_6_0_1,NA,NA,skipped,NA,695828.20000005,NA,NA,695826.79999995,695828.4000001,2023-03-21T19:02:20Z,695840.228,NULL,Wechsel,ugeuzaji,d,NA,NA,NA,NA,qt,NA,3,NA,NA,NA,NA,NA,NA,NA,NA,NA,NA,NA,NA,NA,NA,NA,NA,NA,NA,NA
8db8a,"""Falsch""-Screen",canvas.Screen,3_0_3_0_6_0_2,NA,NA,timeout,5003.624,695829.29999995,695823,695840.228,700827.473,700828.79999995,2023-03-21T19:02:25Z,700843.852,NULL,Wechsel,ugeuzaji,d,NA,NA,NA,NA,qt,0,3,NA,NA,NA,NA,NA,NA,NA,NA,NA,NA,NA,NA,NA,NA,NA,NA,NA,NA,NA
8db8a,deep,flow.Sequence,3_0_3_0_6_0,NA,NA,completion,7338.858,693479.5,693472.15,693488.615,700827.473,700829.10000014,2023-03-21T19:02:25Z,700843.852,NULL,Wechsel,ugeuzaji,d,NA,NA,NA,NA,qt,NA,3,NA,NA,NA,NA,NA,NA,NA,NA,NA,NA,NA,NA,NA,NA,NA,NA,NA,NA,NA
8db8a,shallow,flow.Sequence,3_0_3_0_6_1,NA,NA,skipped,NA,700829.29999995,NA,NA,700827.473,700829.5,2023-03-21T19:02:25Z,700843.852,NULL,Wechsel,ugeuzaji,d,NA,NA,NA,NA,qt,NA,3,NA,NA,NA,NA,NA,NA,NA,NA,NA,NA,NA,NA,NA,NA,NA,NA,NA,NA,NA
8db8a,task,flow.Sequence,3_0_3_0_6,NA,NA,completion,7338.858,693479.4000001,693472.15,693488.615,700827.473,700829.60000014,2023-03-21T19:02:25Z,700843.852,NULL,Wechsel,ugeuzaji,d,NA,NA,NA,NA,qt,NA,3,NA,NA,NA,NA,NA,NA,NA,NA,NA,NA,NA,NA,NA,NA,NA,NA,NA,NA,NA
8db8a,deep,flow.Sequence,3_0_3_0_7_0,NA,NA,skipped,NA,700829.70000005,NA,NA,700827.473,700829.79999995,2023-03-21T19:02:25Z,700843.852,NULL,Kanzler,diwani,s,rasilmali,mahitaji,maabudu,NA,qt,NA,3,NA,NA,NA,NA,NA,NA,NA,NA,NA,NA,NA,NA,NA,NA,NA,NA,NA,NA,NA
8db8a,Shallow Question,html.Page,3_0_3_0_7_1_0,NA,NA,form submission,3193.148,700830,700827.473,700843.852,704037,704037.4000001,2023-03-21T19:02:28Z,704045.871,NULL,Kanzler,diwani,s,rasilmali,mahitaji,maabudu,diwani,NA,NA,3,NA,NA,NA,NA,NA,NA,NA,NA,NA,NA,NA,NA,NA,NA,NA,NA,NA,NA,NA
8db8a,"""Richtig""-Screen",canvas.Screen,3_0_3_0_7_1_1,NA,NA,timeout,5003.419,704042.60000014,704029.405,704045.871,709032.76,709034.10000014,2023-03-21T19:02:33Z,709049.29,NULL,Kanzler,diwani,s,rasilmali,mahitaji,maabudu,NA,qt,1,3,NA,NA,NA,NA,NA,NA,NA,NA,NA,NA,NA,NA,NA,NA,NA,NA,NA,NA,NA
8db8a,"""Falsch""-Screen",canvas.Screen,3_0_3_0_7_1_2,NA,NA,skipped,NA,709039,NA,NA,709032.76,709039.29999995,2023-03-21T19:02:33Z,709049.29,NULL,Kanzler,diwani,s,rasilmali,mahitaji,maabudu,NA,qt,NA,3,NA,NA,NA,NA,NA,NA,NA,NA,NA,NA,NA,NA,NA,NA,NA,NA,NA,NA,NA
8db8a,shallow,flow.Sequence,3_0_3_0_7_1,NA,NA,completion,8188.9080000001,700830,700827.473,700843.852,709032.76,709039.60000014,2023-03-21T19:02:33Z,709049.29,NULL,Kanzler,diwani,s,rasilmali,mahitaji,maabudu,NA,qt,NA,3,NA,NA,NA,NA,NA,NA,NA,NA,NA,NA,NA,NA,NA,NA,NA,NA,NA,NA,NA
8db8a,task,flow.Sequence,3_0_3_0_7,NA,NA,completion,8188.9080000001,700829.70000005,700827.473,700843.852,709032.76,709039.79999995,2023-03-21T19:02:33Z,709049.29,NULL,Kanzler,diwani,s,rasilmali,mahitaji,maabudu,NA,qt,NA,3,NA,NA,NA,NA,NA,NA,NA,NA,NA,NA,NA,NA,NA,NA,NA,NA,NA,NA,NA
8db8a,block,flow.Loop,3_0_3_0,NA,NA,completion,85058.354,623978.70000005,623944.15,623974.406,709032.76,709039.9000001,2023-03-21T19:02:33Z,709049.29,NULL,NA,NA,NA,NA,NA,NA,NA,qt,NA,3,NA,NA,NA,NA,NA,NA,NA,NA,NA,NA,NA,NA,NA,NA,NA,NA,NA,NA,NA
8db8a,weiter,canvas.Screen,3_0_3_1,sdf,keypress(Space),response,766.61000009533,709040.10000014,709032.76,709049.29,709815.9000001,709817.20000005,2023-03-21T19:02:34Z,710183.447,NULL,NA,NA,NA,NA,NA,NA,NA,qt,NA,3,NA,NA,NA,NA,NA,NA,NA,NA,NA,NA,NA,NA,NA,NA,NA,NA,NA,NA,NA
8db8a,check continue,flow.Sequence,3_0_3,NA,NA,completion,85841.494000095,623978.70000005,623944.15,623974.406,709815.9000001,709817.60000014,2023-03-21T19:02:34Z,710183.447,NULL,NA,NA,NA,NA,NA,NA,NA,qt,NA,3,NA,NA,NA,NA,NA,NA,NA,NA,NA,NA,NA,NA,NA,NA,NA,NA,NA,NA,NA
8db8a,check continue,flow.Sequence,3_0_4,NA,NA,skipped,NA,709855.79999995,NA,NA,709815.9000001,709855.9000001,2023-03-21T19:02:34Z,710183.447,NULL,NA,NA,NA,NA,NA,NA,NA,sd,NA,4,NA,NA,NA,NA,NA,NA,NA,NA,NA,NA,NA,NA,NA,NA,NA,NA,NA,NA,NA
8db8a,check continue,flow.Sequence,3_0_5,NA,NA,skipped,NA,709879.4000001,NA,NA,709815.9000001,709879.5,2023-03-21T19:02:34Z,710183.447,NULL,NA,NA,NA,NA,NA,NA,NA,sdf,NA,5,NA,NA,NA,NA,NA,NA,NA,NA,NA,NA,NA,NA,NA,NA,NA,NA,NA,NA,NA
8db8a,check continue,flow.Sequence,3_0_6,NA,NA,skipped,NA,709894.60000014,NA,NA,709815.9000001,709894.60000014,2023-03-21T19:02:34Z,710183.447,NULL,NA,NA,NA,NA,NA,NA,NA,dfs,NA,6,NA,NA,NA,NA,NA,NA,NA,NA,NA,NA,NA,NA,NA,NA,NA,NA,NA,NA,NA
8db8a,check continue,flow.Sequence,3_0_7,NA,NA,skipped,NA,709907.9000001,NA,NA,709815.9000001,709908,2023-03-21T19:02:34Z,710183.447,NULL,NA,NA,NA,NA,NA,NA,NA,df,NA,7,NA,NA,NA,NA,NA,NA,NA,NA,NA,NA,NA,NA,NA,NA,NA,NA,NA,NA,NA
8db8a,check continue,flow.Sequence,3_0_8,NA,NA,skipped,NA,709922.20000005,NA,NA,709815.9000001,709922.4000001,2023-03-21T19:02:34Z,710183.447,NULL,NA,NA,NA,NA,NA,NA,NA,dfs,NA,8,NA,NA,NA,NA,NA,NA,NA,NA,NA,NA,NA,NA,NA,NA,NA,NA,NA,NA,NA
8db8a,check continue,flow.Sequence,3_0_9,NA,NA,skipped,NA,709935.79999995,NA,NA,709815.9000001,709935.9000001,2023-03-21T19:02:34Z,710183.447,NULL,NA,NA,NA,NA,NA,NA,NA,dsf,NA,9,NA,NA,NA,NA,NA,NA,NA,NA,NA,NA,NA,NA,NA,NA,NA,NA,NA,NA,NA
8db8a,check continue,flow.Sequence,3_0_10,NA,NA,skipped,NA,709950.4000001,NA,NA,709815.9000001,709950.60000014,2023-03-21T19:02:34Z,710183.447,NULL,NA,NA,NA,NA,NA,NA,NA,df,NA,10,NA,NA,NA,NA,NA,NA,NA,NA,NA,NA,NA,NA,NA,NA,NA,NA,NA,NA,NA
8db8a,check continue,flow.Sequence,3_0_11,NA,NA,skipped,NA,709963.20000005,NA,NA,709815.9000001,709963.29999995,2023-03-21T19:02:34Z,710183.447,NULL,NA,NA,NA,NA,NA,NA,NA,dfs,NA,11,NA,NA,NA,NA,NA,NA,NA,NA,NA,NA,NA,NA,NA,NA,NA,NA,NA,NA,NA
8db8a,check continue,flow.Sequence,3_0_12,NA,NA,skipped,NA,709976.4000001,NA,NA,709815.9000001,709976.4000001,2023-03-21T19:02:34Z,710183.447,NULL,NA,NA,NA,NA,NA,NA,NA,dsf,NA,12,NA,NA,NA,NA,NA,NA,NA,NA,NA,NA,NA,NA,NA,NA,NA,NA,NA,NA,NA
8db8a,check continue,flow.Sequence,3_0_13,NA,NA,skipped,NA,709989.79999995,NA,NA,709815.9000001,709989.9000001,2023-03-21T19:02:34Z,710183.447,NULL,NA,NA,NA,NA,NA,NA,NA,dsf,NA,13,NA,NA,NA,NA,NA,NA,NA,NA,NA,NA,NA,NA,NA,NA,NA,NA,NA,NA,NA
8db8a,check continue,flow.Sequence,3_0_14,NA,NA,skipped,NA,710002.10000014,NA,NA,709815.9000001,710002.10000014,2023-03-21T19:02:34Z,710183.447,NULL,NA,NA,NA,NA,NA,NA,NA,NA,NA,14,NA,NA,NA,NA,NA,NA,NA,NA,NA,NA,NA,NA,NA,NA,NA,NA,NA,NA,NA
8db8a,check continue,flow.Sequence,3_0_15,NA,NA,skipped,NA,710014.20000005,NA,NA,709815.9000001,710014.4000001,2023-03-21T19:02:34Z,710183.447,NULL,NA,NA,NA,NA,NA,NA,NA,NA,NA,15,NA,NA,NA,NA,NA,NA,NA,NA,NA,NA,NA,NA,NA,NA,NA,NA,NA,NA,NA
8db8a,check continue,flow.Sequence,3_0_16,NA,NA,skipped,NA,710026.60000014,NA,NA,709815.9000001,710026.70000005,2023-03-21T19:02:34Z,710183.447,NULL,NA,NA,NA,NA,NA,NA,NA,NA,NA,16,NA,NA,NA,NA,NA,NA,NA,NA,NA,NA,NA,NA,NA,NA,NA,NA,NA,NA,NA
8db8a,check continue,flow.Sequence,3_0_17,NA,NA,skipped,NA,710038.29999995,NA,NA,709815.9000001,710038.29999995,2023-03-21T19:02:34Z,710183.447,NULL,NA,NA,NA,NA,NA,NA,NA,NA,NA,17,NA,NA,NA,NA,NA,NA,NA,NA,NA,NA,NA,NA,NA,NA,NA,NA,NA,NA,NA
8db8a,check continue,flow.Sequence,3_0_18,NA,NA,skipped,NA,710049.60000014,NA,NA,709815.9000001,710049.70000005,2023-03-21T19:02:34Z,710183.447,NULL,NA,NA,NA,NA,NA,NA,NA,NA,NA,18,NA,NA,NA,NA,NA,NA,NA,NA,NA,NA,NA,NA,NA,NA,NA,NA,NA,NA,NA
8db8a,check continue,flow.Sequence,3_0_19,NA,NA,skipped,NA,710061.9000001,NA,NA,709815.9000001,710062,2023-03-21T19:02:34Z,710183.447,NULL,NA,NA,NA,NA,NA,NA,NA,NA,NA,19,NA,NA,NA,NA,NA,NA,NA,NA,NA,NA,NA,NA,NA,NA,NA,NA,NA,NA,NA
8db8a,check continue,flow.Sequence,3_0_20,NA,NA,skipped,NA,710076.5,NA,NA,709815.9000001,710076.60000014,2023-03-21T19:02:34Z,710183.447,NULL,NA,NA,NA,NA,NA,NA,NA,NA,NA,20,NA,NA,NA,NA,NA,NA,NA,NA,NA,NA,NA,NA,NA,NA,NA,NA,NA,NA,NA
8db8a,check continue,flow.Sequence,3_0_21,NA,NA,skipped,NA,710090,NA,NA,709815.9000001,710090.10000014,2023-03-21T19:02:34Z,710183.447,NULL,NA,NA,NA,NA,NA,NA,NA,NA,NA,21,NA,NA,NA,NA,NA,NA,NA,NA,NA,NA,NA,NA,NA,NA,NA,NA,NA,NA,NA
8db8a,check continue,flow.Sequence,3_0_22,NA,NA,skipped,NA,710102.9000001,NA,NA,709815.9000001,710103,2023-03-21T19:02:34Z,710183.447,NULL,NA,NA,NA,NA,NA,NA,NA,NA,NA,22,NA,NA,NA,NA,NA,NA,NA,NA,NA,NA,NA,NA,NA,NA,NA,NA,NA,NA,NA
8db8a,check continue,flow.Sequence,3_0_23,NA,NA,skipped,NA,710115.20000005,NA,NA,709815.9000001,710115.29999995,2023-03-21T19:02:34Z,710183.447,NULL,NA,NA,NA,NA,NA,NA,NA,NA,NA,23,NA,NA,NA,NA,NA,NA,NA,NA,NA,NA,NA,NA,NA,NA,NA,NA,NA,NA,NA
8db8a,check continue,flow.Sequence,3_0_24,NA,NA,skipped,NA,710126.60000014,NA,NA,709815.9000001,710126.60000014,2023-03-21T19:02:34Z,710183.447,NULL,NA,NA,NA,NA,NA,NA,NA,NA,NA,24,NA,NA,NA,NA,NA,NA,NA,NA,NA,NA,NA,NA,NA,NA,NA,NA,NA,NA,NA
8db8a,check continue,flow.Sequence,3_0_25,NA,NA,skipped,NA,710138.29999995,NA,NA,709815.9000001,710138.4000001,2023-03-21T19:02:34Z,710183.447,NULL,NA,NA,NA,NA,NA,NA,NA,NA,NA,25,NA,NA,NA,NA,NA,NA,NA,NA,NA,NA,NA,NA,NA,NA,NA,NA,NA,NA,NA
8db8a,check continue,flow.Sequence,3_0_26,NA,NA,skipped,NA,710149.9000001,NA,NA,709815.9000001,710150,2023-03-21T19:02:34Z,710183.447,NULL,NA,NA,NA,NA,NA,NA,NA,NA,NA,26,NA,NA,NA,NA,NA,NA,NA,NA,NA,NA,NA,NA,NA,NA,NA,NA,NA,NA,NA
8db8a,check continue,flow.Sequence,3_0_27,NA,NA,skipped,NA,710173.9000001,NA,NA,709815.9000001,710174.10000014,2023-03-21T19:02:34Z,710183.447,NULL,NA,NA,NA,NA,NA,NA,NA,NA,NA,27,NA,NA,NA,NA,NA,NA,NA,NA,NA,NA,NA,NA,NA,NA,NA,NA,NA,NA,NA
8db8a,check continue,flow.Sequence,3_0_28,NA,NA,skipped,NA,710184.79999995,NA,NA,709815.9000001,710184.9000001,2023-03-21T19:02:34Z,710183.447,NULL,NA,NA,NA,NA,NA,NA,NA,NA,NA,28,NA,NA,NA,NA,NA,NA,NA,NA,NA,NA,NA,NA,NA,NA,NA,NA,NA,NA,NA
8db8a,check continue,flow.Sequence,3_0_29,NA,NA,skipped,NA,710196.79999995,NA,NA,709815.9000001,710196.9000001,2023-03-21T19:02:34Z,710183.447,NULL,NA,NA,NA,NA,NA,NA,NA,NA,NA,29,NA,NA,NA,NA,NA,NA,NA,NA,NA,NA,NA,NA,NA,NA,NA,NA,NA,NA,NA
8db8a,until continue,flow.Loop,3_0,NA,NA,completion,314181.2840001,395609.79999995,395613.551,395634.616,709815.9000001,710197,2023-03-21T19:02:34Z,710183.447,NULL,NA,NA,NA,NA,NA,NA,NA,NA,NA,NA,NA,NA,NA,NA,NA,NA,NA,NA,NA,NA,NA,NA,NA,NA,NA,NA,NA,NA,NA
8db8a,block 1,flow.Sequence,3,NA,NA,completion,314181.2840001,395609.79999995,395613.551,395634.616,709815.9000001,710197,2023-03-21T19:02:34Z,710183.447,NULL,NA,NA,NA,NA,NA,NA,NA,NA,NA,NA,NA,NA,NA,NA,NA,NA,NA,NA,NA,NA,NA,NA,NA,NA,NA,NA,NA,NA,NA
8db8a,1.Part Over,canvas.Screen,4,NA,keypress(Space),response,1752.2530000476,710197,709816.628,710183.447,711935.70000005,711936.79999995,2023-03-21T19:02:36Z,712001.351,NULL,NA,NA,NA,NA,NA,NA,NA,NA,NA,NA,NA,NA,NA,NA,NA,NA,NA,NA,NA,NA,NA,NA,NA,NA,NA,NA,NA,NA,NA
8db8a,Deep Question,html.Page,5_0_0_0_0_0_0,NA,NA,form submission,1985.8490000477,711995.79999995,711982.961,712001.351,713987.20000005,713987.4000001,2023-03-21T19:02:38Z,714019.32,NULL,Respekt,heshima,d,NA,NA,NA,p,NA,NA,0,NA,NA,NA,NA,NA,NA,NA,NA,NA,NA,NA,NA,NA,NA,NA,NA,NA,NA,NA
8db8a,"""Richtig""-Screen",canvas.Screen,5_0_0_0_0_0_1,NA,NA,skipped,NA,713988.79999995,NA,NA,713987.20000005,713988.9000001,2023-03-21T19:02:38Z,714019.32,NULL,Respekt,heshima,d,NA,NA,NA,NA,sdf,NA,0,NA,NA,NA,NA,NA,NA,NA,NA,NA,NA,NA,NA,NA,NA,NA,NA,NA,NA,NA
8db8a,"""Falsch""-Screen",canvas.Screen,5_0_0_0_0_0_2,NA,NA,timeout,5003.807,713989.79999995,714002.865,714019.32,719006.276,719007.5,2023-03-21T19:02:43Z,719023.127,NULL,Respekt,heshima,d,NA,NA,NA,NA,sdf,0,0,NA,NA,NA,NA,NA,NA,NA,NA,NA,NA,NA,NA,NA,NA,NA,NA,NA,NA,NA
8db8a,deep,flow.Sequence,5_0_0_0_0_0,NA,NA,completion,7004.9249999999,711995.79999995,711982.961,712001.351,719006.276,719008.10000014,2023-03-21T19:02:43Z,719023.127,NULL,Respekt,heshima,d,NA,NA,NA,NA,sdf,NA,0,NA,NA,NA,NA,NA,NA,NA,NA,NA,NA,NA,NA,NA,NA,NA,NA,NA,NA,NA
8db8a,shallow,flow.Sequence,5_0_0_0_0_1,NA,NA,skipped,NA,719008.20000005,NA,NA,719006.276,719008.29999995,2023-03-21T19:02:43Z,719023.127,NULL,Respekt,heshima,d,NA,NA,NA,NA,sdf,NA,0,NA,NA,NA,NA,NA,NA,NA,NA,NA,NA,NA,NA,NA,NA,NA,NA,NA,NA,NA
8db8a,task,flow.Sequence,5_0_0_0_0,NA,NA,completion,7004.9249999999,711995.79999995,711982.961,712001.351,719006.276,719008.5,2023-03-21T19:02:43Z,719023.127,NULL,Respekt,heshima,d,NA,NA,NA,NA,sdf,NA,0,NA,NA,NA,NA,NA,NA,NA,NA,NA,NA,NA,NA,NA,NA,NA,NA,NA,NA,NA
8db8a,Deep Question,html.Page,5_0_0_0_1_0_0,NA,NA,form submission,1343.7730000954,719008.79999995,719006.276,719023.127,720366.9000001,720367.20000005,2023-03-21T19:02:45Z,720373.737,NULL,Orientierung,urekebisho,d,NA,NA,NA,p,NA,NA,0,NA,NA,NA,NA,NA,NA,NA,NA,NA,NA,NA,NA,NA,NA,NA,NA,NA,NA,NA
8db8a,"""Richtig""-Screen",canvas.Screen,5_0_0_0_1_0_1,NA,NA,skipped,NA,720371.10000014,NA,NA,720366.9000001,720371.4000001,2023-03-21T19:02:45Z,720373.737,NULL,Orientierung,urekebisho,d,NA,NA,NA,NA,sdf,NA,0,NA,NA,NA,NA,NA,NA,NA,NA,NA,NA,NA,NA,NA,NA,NA,NA,NA,NA,NA
8db8a,"""Falsch""-Screen",canvas.Screen,5_0_0_0_1_0_2,NA,NA,timeout,5003.827,720372.29999995,720357.175,720373.737,725360.695,725361.9000001,2023-03-21T19:02:50Z,725377.564,NULL,Orientierung,urekebisho,d,NA,NA,NA,NA,sdf,0,0,NA,NA,NA,NA,NA,NA,NA,NA,NA,NA,NA,NA,NA,NA,NA,NA,NA,NA,NA
8db8a,deep,flow.Sequence,5_0_0_0_1_0,NA,NA,completion,6337.568,719008.70000005,719006.276,719023.127,725360.695,725362.20000005,2023-03-21T19:02:50Z,725377.564,NULL,Orientierung,urekebisho,d,NA,NA,NA,NA,sdf,NA,0,NA,NA,NA,NA,NA,NA,NA,NA,NA,NA,NA,NA,NA,NA,NA,NA,NA,NA,NA
8db8a,shallow,flow.Sequence,5_0_0_0_1_1,NA,NA,skipped,NA,725362.4000001,NA,NA,725360.695,725362.5,2023-03-21T19:02:50Z,725377.564,NULL,Orientierung,urekebisho,d,NA,NA,NA,NA,sdf,NA,0,NA,NA,NA,NA,NA,NA,NA,NA,NA,NA,NA,NA,NA,NA,NA,NA,NA,NA,NA
8db8a,task,flow.Sequence,5_0_0_0_1,NA,NA,completion,6337.568,719008.60000014,719006.276,719023.127,725360.695,725362.70000005,2023-03-21T19:02:50Z,725377.564,NULL,Orientierung,urekebisho,d,NA,NA,NA,NA,sdf,NA,0,NA,NA,NA,NA,NA,NA,NA,NA,NA,NA,NA,NA,NA,NA,NA,NA,NA,NA,NA
8db8a,deep,flow.Sequence,5_0_0_0_2_0,NA,NA,skipped,NA,725362.9000001,NA,NA,725360.695,725363,2023-03-21T19:02:50Z,725377.564,NULL,Kontrolle,kudhibiti,s,mbinguni,kufunga,utegemezi,NA,sdf,NA,0,NA,NA,NA,NA,NA,NA,NA,NA,NA,NA,NA,NA,NA,NA,NA,NA,NA,NA,NA
8db8a,Shallow Question,html.Page,5_0_0_0_2_1_0,NA,NA,form submission,2009.436,725363.10000014,725360.695,725377.564,727387,727387.4000001,2023-03-21T19:02:52Z,727395.238,NULL,Kontrolle,kudhibiti,s,mbinguni,kufunga,utegemezi,kufunga,NA,NA,0,NA,NA,NA,NA,NA,NA,NA,NA,NA,NA,NA,NA,NA,NA,NA,NA,NA,NA,NA
8db8a,"""Richtig""-Screen",canvas.Screen,5_0_0_0_2_1_1,NA,NA,skipped,NA,727391.4000001,NA,NA,727387,727391.70000005,2023-03-21T19:02:52Z,727395.238,NULL,Kontrolle,kudhibiti,s,mbinguni,kufunga,utegemezi,NA,sdf,NA,0,NA,NA,NA,NA,NA,NA,NA,NA,NA,NA,NA,NA,NA,NA,NA,NA,NA,NA,NA
8db8a,"""Falsch""-Screen",canvas.Screen,5_0_0_0_2_1_2,NA,NA,timeout,5003.888,727392.9000001,727378.705,727395.238,732382.132,732383.70000005,2023-03-21T19:02:57Z,732399.126,NULL,Kontrolle,kudhibiti,s,mbinguni,kufunga,utegemezi,NA,sdf,0,0,NA,NA,NA,NA,NA,NA,NA,NA,NA,NA,NA,NA,NA,NA,NA,NA,NA,NA,NA
8db8a,shallow,flow.Sequence,5_0_0_0_2_1,NA,NA,completion,7004.568,725363.10000014,725360.695,725377.564,732382.132,732384,2023-03-21T19:02:57Z,732399.126,NULL,Kontrolle,kudhibiti,s,mbinguni,kufunga,utegemezi,NA,sdf,NA,0,NA,NA,NA,NA,NA,NA,NA,NA,NA,NA,NA,NA,NA,NA,NA,NA,NA,NA,NA
8db8a,task,flow.Sequence,5_0_0_0_2,NA,NA,completion,7004.568,725362.79999995,725360.695,725377.564,732382.132,732384.20000005,2023-03-21T19:02:57Z,732399.126,NULL,Kontrolle,kudhibiti,s,mbinguni,kufunga,utegemezi,NA,sdf,NA,0,NA,NA,NA,NA,NA,NA,NA,NA,NA,NA,NA,NA,NA,NA,NA,NA,NA,NA,NA
8db8a,deep,flow.Sequence,5_0_0_0_3_0,NA,NA,skipped,NA,732384.29999995,NA,NA,732382.132,732384.5,2023-03-21T19:02:57Z,732399.126,NULL,Gefährdung,kuhatarisha,s,uchokozi,udhaifu,makorowezo,NA,sdf,NA,0,NA,NA,NA,NA,NA,NA,NA,NA,NA,NA,NA,NA,NA,NA,NA,NA,NA,NA,NA
8db8a,Shallow Question,html.Page,5_0_0_0_3_1_0,NA,NA,form submission,4007.7740000953,732384.60000014,732382.132,732399.126,736406.9000001,736407.29999995,2023-03-21T19:03:01Z,736418.015,NULL,Gefährdung,kuhatarisha,s,uchokozi,udhaifu,makorowezo,uchokozi,NA,NA,0,NA,NA,NA,NA,NA,NA,NA,NA,NA,NA,NA,NA,NA,NA,NA,NA,NA,NA,NA
8db8a,"""Richtig""-Screen",canvas.Screen,5_0_0_0_3_1_1,NA,NA,skipped,NA,736411.20000005,NA,NA,736406.9000001,736411.4000001,2023-03-21T19:03:01Z,736418.015,NULL,Gefährdung,kuhatarisha,s,uchokozi,udhaifu,makorowezo,NA,sdf,NA,0,NA,NA,NA,NA,NA,NA,NA,NA,NA,NA,NA,NA,NA,NA,NA,NA,NA,NA,NA
8db8a,"""Falsch""-Screen",canvas.Screen,5_0_0_0_3_1_2,NA,NA,timeout,5003.877,736412.5,736398.551,736418.015,741405.023,741406.4000001,2023-03-21T19:03:06Z,741421.892,NULL,Gefährdung,kuhatarisha,s,uchokozi,udhaifu,makorowezo,NA,sdf,0,0,NA,NA,NA,NA,NA,NA,NA,NA,NA,NA,NA,NA,NA,NA,NA,NA,NA,NA,NA
8db8a,shallow,flow.Sequence,5_0_0_0_3_1,NA,NA,completion,9005.897,732384.60000014,732382.132,732399.126,741405.023,741406.9000001,2023-03-21T19:03:06Z,741421.892,NULL,Gefährdung,kuhatarisha,s,uchokozi,udhaifu,makorowezo,NA,sdf,NA,0,NA,NA,NA,NA,NA,NA,NA,NA,NA,NA,NA,NA,NA,NA,NA,NA,NA,NA,NA
8db8a,task,flow.Sequence,5_0_0_0_3,NA,NA,completion,9005.897,732384.29999995,732382.132,732399.126,741405.023,741407.10000014,2023-03-21T19:03:06Z,741421.892,NULL,Gefährdung,kuhatarisha,s,uchokozi,udhaifu,makorowezo,NA,sdf,NA,0,NA,NA,NA,NA,NA,NA,NA,NA,NA,NA,NA,NA,NA,NA,NA,NA,NA,NA,NA
8db8a,Deep Question,html.Page,5_0_0_0_4_0_0,NA,NA,form submission,1644.7080001431,741407.20000005,741405.023,741421.892,743066.60000014,743067,2023-03-21T19:03:07Z,743072.711,NULL,Kreativität,ubunifu,d,NA,NA,NA,p,NA,NA,0,NA,NA,NA,NA,NA,NA,NA,NA,NA,NA,NA,NA,NA,NA,NA,NA,NA,NA,NA
8db8a,"""Richtig""-Screen",canvas.Screen,5_0_0_0_4_0_1,NA,NA,skipped,NA,743071.20000005,NA,NA,743066.60000014,743071.4000001,2023-03-21T19:03:07Z,743072.711,NULL,Kreativität,ubunifu,d,NA,NA,NA,NA,sdf,NA,0,NA,NA,NA,NA,NA,NA,NA,NA,NA,NA,NA,NA,NA,NA,NA,NA,NA,NA,NA
8db8a,"""Falsch""-Screen",canvas.Screen,5_0_0_0_4_0_2,NA,NA,timeout,5003.893,743072.4000001,743056.653,743072.711,748059.459,748060.70000005,2023-03-21T19:03:12Z,748076.604,NULL,Kreativität,ubunifu,d,NA,NA,NA,NA,sdf,0,0,NA,NA,NA,NA,NA,NA,NA,NA,NA,NA,NA,NA,NA,NA,NA,NA,NA,NA,NA
8db8a,deep,flow.Sequence,5_0_0_0_4_0,NA,NA,completion,6637.567,741407.20000005,741405.023,741421.892,748059.459,748061.10000014,2023-03-21T19:03:12Z,748076.604,NULL,Kreativität,ubunifu,d,NA,NA,NA,NA,sdf,NA,0,NA,NA,NA,NA,NA,NA,NA,NA,NA,NA,NA,NA,NA,NA,NA,NA,NA,NA,NA
8db8a,shallow,flow.Sequence,5_0_0_0_4_1,NA,NA,skipped,NA,748061.20000005,NA,NA,748059.459,748061.29999995,2023-03-21T19:03:12Z,748076.604,NULL,Kreativität,ubunifu,d,NA,NA,NA,NA,sdf,NA,0,NA,NA,NA,NA,NA,NA,NA,NA,NA,NA,NA,NA,NA,NA,NA,NA,NA,NA,NA
8db8a,task,flow.Sequence,5_0_0_0_4,NA,NA,completion,6637.567,741407.20000005,741405.023,741421.892,748059.459,748061.5,2023-03-21T19:03:12Z,748076.604,NULL,Kreativität,ubunifu,d,NA,NA,NA,NA,sdf,NA,0,NA,NA,NA,NA,NA,NA,NA,NA,NA,NA,NA,NA,NA,NA,NA,NA,NA,NA,NA
8db8a,Deep Question,html.Page,5_0_0_0_5_0_0,NA,NA,form submission,3080.1959999523,748061.70000005,748059.459,748076.604,751156.79999995,751157.10000014,2023-03-21T19:03:15Z,751161.515,NULL,Können,unaweza,d,NA,NA,NA,p,NA,NA,0,NA,NA,NA,NA,NA,NA,NA,NA,NA,NA,NA,NA,NA,NA,NA,NA,NA,NA,NA
8db8a,"""Richtig""-Screen",canvas.Screen,5_0_0_0_5_0_1,NA,NA,skipped,NA,751161.10000014,NA,NA,751156.79999995,751161.29999995,2023-03-21T19:03:15Z,751161.515,NULL,Können,unaweza,d,NA,NA,NA,NA,sdf,NA,0,NA,NA,NA,NA,NA,NA,NA,NA,NA,NA,NA,NA,NA,NA,NA,NA,NA,NA,NA
8db8a,"""Falsch""-Screen",canvas.Screen,5_0_0_0_5_0_2,NA,NA,timeout,5003.7999999999,751162.4000001,751143.765,751161.515,756148.368,756149.79999995,2023-03-21T19:03:20Z,756165.315,NULL,Können,unaweza,d,NA,NA,NA,NA,sdf,0,0,NA,NA,NA,NA,NA,NA,NA,NA,NA,NA,NA,NA,NA,NA,NA,NA,NA,NA,NA
8db8a,deep,flow.Sequence,5_0_0_0_5_0,NA,NA,completion,8071.764,748061.60000014,748059.459,748076.604,756148.368,756150.20000005,2023-03-21T19:03:20Z,756165.315,NULL,Können,unaweza,d,NA,NA,NA,NA,sdf,NA,0,NA,NA,NA,NA,NA,NA,NA,NA,NA,NA,NA,NA,NA,NA,NA,NA,NA,NA,NA
8db8a,shallow,flow.Sequence,5_0_0_0_5_1,NA,NA,skipped,NA,756150.20000005,NA,NA,756148.368,756150.29999995,2023-03-21T19:03:20Z,756165.315,NULL,Können,unaweza,d,NA,NA,NA,NA,sdf,NA,0,NA,NA,NA,NA,NA,NA,NA,NA,NA,NA,NA,NA,NA,NA,NA,NA,NA,NA,NA
8db8a,task,flow.Sequence,5_0_0_0_5,NA,NA,completion,8071.764,748061.5,748059.459,748076.604,756148.368,756150.60000014,2023-03-21T19:03:20Z,756165.315,NULL,Können,unaweza,d,NA,NA,NA,NA,sdf,NA,0,NA,NA,NA,NA,NA,NA,NA,NA,NA,NA,NA,NA,NA,NA,NA,NA,NA,NA,NA
8db8a,deep,flow.Sequence,5_0_0_0_6_0,NA,NA,skipped,NA,756150.60000014,NA,NA,756148.368,756150.70000005,2023-03-21T19:03:20Z,756165.315,NULL,Betrüger,mdanganyifu,s,mwanamuziki,wastani,mahakama,NA,sdf,NA,0,NA,NA,NA,NA,NA,NA,NA,NA,NA,NA,NA,NA,NA,NA,NA,NA,NA,NA,NA
8db8a,Shallow Question,html.Page,5_0_0_0_6_1_0,NA,NA,form submission,3261.3850000477,756150.9000001,756148.368,756165.315,759426.70000005,759427.10000014,2023-03-21T19:03:24Z,759433.788,NULL,Betrüger,mdanganyifu,s,mwanamuziki,wastani,mahakama,mdanganyifu,NA,NA,0,NA,NA,NA,NA,NA,NA,NA,NA,NA,NA,NA,NA,NA,NA,NA,NA,NA,NA,NA
8db8a,"""Richtig""-Screen",canvas.Screen,5_0_0_0_6_1_1,NA,NA,timeout,5003.6410000001,759431.20000005,759415.793,759433.788,764420.804,764422.10000014,2023-03-21T19:03:29Z,764437.429,NULL,Betrüger,mdanganyifu,s,mwanamuziki,wastani,mahakama,NA,sdf,1,0,NA,NA,NA,NA,NA,NA,NA,NA,NA,NA,NA,NA,NA,NA,NA,NA,NA,NA,NA
8db8a,"""Falsch""-Screen",canvas.Screen,5_0_0_0_6_1_2,NA,NA,skipped,NA,764427.10000014,NA,NA,764420.804,764427.4000001,2023-03-21T19:03:29Z,764437.429,NULL,Betrüger,mdanganyifu,s,mwanamuziki,wastani,mahakama,NA,sdf,NA,0,NA,NA,NA,NA,NA,NA,NA,NA,NA,NA,NA,NA,NA,NA,NA,NA,NA,NA,NA
8db8a,shallow,flow.Sequence,5_0_0_0_6_1,NA,NA,completion,8255.4890000001,756150.79999995,756148.368,756165.315,764420.804,764427.60000014,2023-03-21T19:03:29Z,764437.429,NULL,Betrüger,mdanganyifu,s,mwanamuziki,wastani,mahakama,NA,sdf,NA,0,NA,NA,NA,NA,NA,NA,NA,NA,NA,NA,NA,NA,NA,NA,NA,NA,NA,NA,NA
8db8a,task,flow.Sequence,5_0_0_0_6,NA,NA,completion,8255.4890000001,756150.60000014,756148.368,756165.315,764420.804,764427.79999995,2023-03-21T19:03:29Z,764437.429,NULL,Betrüger,mdanganyifu,s,mwanamuziki,wastani,mahakama,NA,sdf,NA,0,NA,NA,NA,NA,NA,NA,NA,NA,NA,NA,NA,NA,NA,NA,NA,NA,NA,NA,NA
8db8a,deep,flow.Sequence,5_0_0_0_7_0,NA,NA,skipped,NA,764428,NA,NA,764420.804,764428.10000014,2023-03-21T19:03:29Z,764437.429,NULL,Stimmung,kinyongo,s,kilekile,kisambo,madhehebu,NA,sdf,NA,0,NA,NA,NA,NA,NA,NA,NA,NA,NA,NA,NA,NA,NA,NA,NA,NA,NA,NA,NA
8db8a,Shallow Question,html.Page,5_0_0_0_7_1_0,NA,NA,form submission,3109.4710000954,764428.20000005,764420.804,764437.429,767546.9000001,767547.20000005,2023-03-21T19:03:32Z,767556.015,NULL,Stimmung,kinyongo,s,kilekile,kisambo,madhehebu,kinyongo,NA,NA,0,NA,NA,NA,NA,NA,NA,NA,NA,NA,NA,NA,NA,NA,NA,NA,NA,NA,NA,NA
8db8a,"""Richtig""-Screen",canvas.Screen,5_0_0_0_7_1_1,NA,NA,timeout,5003.616,767551.4000001,767539.493,767556.015,772543.004,772544.4000001,2023-03-21T19:03:37Z,772559.631,NULL,Stimmung,kinyongo,s,kilekile,kisambo,madhehebu,NA,sdf,1,0,NA,NA,NA,NA,NA,NA,NA,NA,NA,NA,NA,NA,NA,NA,NA,NA,NA,NA,NA
8db8a,"""Falsch""-Screen",canvas.Screen,5_0_0_0_7_1_2,NA,NA,skipped,NA,772549.70000005,NA,NA,772543.004,772549.9000001,2023-03-21T19:03:37Z,772559.631,NULL,Stimmung,kinyongo,s,kilekile,kisambo,madhehebu,NA,sdf,NA,0,NA,NA,NA,NA,NA,NA,NA,NA,NA,NA,NA,NA,NA,NA,NA,NA,NA,NA,NA
8db8a,shallow,flow.Sequence,5_0_0_0_7_1,NA,NA,completion,8105.575,764428.20000005,764420.804,764437.429,772543.004,772550.20000005,2023-03-21T19:03:37Z,772559.631,NULL,Stimmung,kinyongo,s,kilekile,kisambo,madhehebu,NA,sdf,NA,0,NA,NA,NA,NA,NA,NA,NA,NA,NA,NA,NA,NA,NA,NA,NA,NA,NA,NA,NA
8db8a,task,flow.Sequence,5_0_0_0_7,NA,NA,completion,8105.575,764428,764420.804,764437.429,772543.004,772550.29999995,2023-03-21T19:03:37Z,772559.631,NULL,Stimmung,kinyongo,s,kilekile,kisambo,madhehebu,NA,sdf,NA,0,NA,NA,NA,NA,NA,NA,NA,NA,NA,NA,NA,NA,NA,NA,NA,NA,NA,NA,NA
8db8a,block,flow.Loop,5_0_0_0,NA,NA,completion,60541.653,711995.79999995,711982.961,712001.351,772543.004,772550.5,2023-03-21T19:03:37Z,772559.631,NULL,NA,NA,NA,NA,NA,NA,NA,sdf,NA,0,NA,NA,NA,NA,NA,NA,NA,NA,NA,NA,NA,NA,NA,NA,NA,NA,NA,NA,NA
8db8a,weiter,canvas.Screen,5_0_0_1,sdf,keypress(Space),response,645.66899995226,772550.60000014,772543.004,772559.631,773205.29999995,773206.60000014,2023-03-21T19:03:37Z,773259.875,NULL,NA,NA,NA,NA,NA,NA,NA,sdf,NA,0,NA,NA,NA,NA,NA,NA,NA,NA,NA,NA,NA,NA,NA,NA,NA,NA,NA,NA,NA
8db8a,check continue,flow.Sequence,5_0_0,NA,NA,completion,61203.948999952,711995.79999995,711982.961,712001.351,773205.29999995,773207,2023-03-21T19:03:37Z,773259.875,NULL,NA,NA,NA,NA,NA,NA,NA,sdf,NA,0,NA,NA,NA,NA,NA,NA,NA,NA,NA,NA,NA,NA,NA,NA,NA,NA,NA,NA,NA
8db8a,deep,flow.Sequence,5_0_1_0_0_0,NA,NA,skipped,NA,773256.70000005,NA,NA,773205.29999995,773256.9000001,2023-03-21T19:03:37Z,773259.875,NULL,Betrüger,mdanganyifu,s,mwanamuziki,wastani,mahakama,NA,sdfdsf,NA,1,NA,NA,NA,NA,NA,NA,NA,NA,NA,NA,NA,NA,NA,NA,NA,NA,NA,NA,NA
8db8a,Shallow Question,html.Page,5_0_1_0_0_1_0,NA,NA,form submission,3934.9249999523,773257,773243.764,773259.875,777194.79999995,777195.29999995,2023-03-21T19:03:41Z,777195.971,NULL,Betrüger,mdanganyifu,s,mwanamuziki,wastani,mahakama,mdanganyifu,NA,NA,1,NA,NA,NA,NA,NA,NA,NA,NA,NA,NA,NA,NA,NA,NA,NA,NA,NA,NA,NA
8db8a,"""Richtig""-Screen",canvas.Screen,5_0_1_0_0_1_1,NA,NA,timeout,5003.693,777200.5,777179.555,777195.971,782182.882,782184.29999995,2023-03-21T19:03:46Z,782199.664,NULL,Betrüger,mdanganyifu,s,mwanamuziki,wastani,mahakama,NA,sdfdsf,1,1,NA,NA,NA,NA,NA,NA,NA,NA,NA,NA,NA,NA,NA,NA,NA,NA,NA,NA,NA
8db8a,"""Falsch""-Screen",canvas.Screen,5_0_1_0_0_1_2,NA,NA,skipped,NA,782189.70000005,NA,NA,782182.882,782190,2023-03-21T19:03:46Z,782199.664,NULL,Betrüger,mdanganyifu,s,mwanamuziki,wastani,mahakama,NA,sdfdsf,NA,1,NA,NA,NA,NA,NA,NA,NA,NA,NA,NA,NA,NA,NA,NA,NA,NA,NA,NA,NA
8db8a,shallow,flow.Sequence,5_0_1_0_0_1,NA,NA,completion,8923.007,773257,773243.764,773259.875,782182.882,782190.20000005,2023-03-21T19:03:46Z,782199.664,NULL,Betrüger,mdanganyifu,s,mwanamuziki,wastani,mahakama,NA,sdfdsf,NA,1,NA,NA,NA,NA,NA,NA,NA,NA,NA,NA,NA,NA,NA,NA,NA,NA,NA,NA,NA
8db8a,task,flow.Sequence,5_0_1_0_0,NA,NA,completion,8923.007,773256.70000005,773243.764,773259.875,782182.882,782190.4000001,2023-03-21T19:03:46Z,782199.664,NULL,Betrüger,mdanganyifu,s,mwanamuziki,wastani,mahakama,NA,sdfdsf,NA,1,NA,NA,NA,NA,NA,NA,NA,NA,NA,NA,NA,NA,NA,NA,NA,NA,NA,NA,NA
8db8a,Deep Question,html.Page,5_0_1_0_1_0_0,NA,NA,form submission,1577.1359999523,782190.60000014,782182.882,782199.664,783776.79999995,783777.20000005,2023-03-21T19:03:48Z,783783.805,NULL,Kreativität,ubunifu,d,NA,NA,NA,p,NA,NA,1,NA,NA,NA,NA,NA,NA,NA,NA,NA,NA,NA,NA,NA,NA,NA,NA,NA,NA,NA
8db8a,"""Richtig""-Screen",canvas.Screen,5_0_1_0_1_0_1,NA,NA,skipped,NA,783778.5,NA,NA,783776.79999995,783778.60000014,2023-03-21T19:03:48Z,783783.805,NULL,Kreativität,ubunifu,d,NA,NA,NA,NA,sdfdsf,NA,1,NA,NA,NA,NA,NA,NA,NA,NA,NA,NA,NA,NA,NA,NA,NA,NA,NA,NA,NA
8db8a,"""Falsch""-Screen",canvas.Screen,5_0_1_0_1_0_2,NA,NA,timeout,5003.752,783779.70000005,783767.322,783783.805,788770.714,788772,2023-03-21T19:03:53Z,788787.557,NULL,Kreativität,ubunifu,d,NA,NA,NA,NA,sdfdsf,0,1,NA,NA,NA,NA,NA,NA,NA,NA,NA,NA,NA,NA,NA,NA,NA,NA,NA,NA,NA
8db8a,deep,flow.Sequence,5_0_1_0_1_0,NA,NA,completion,6571.05,782190.5,782182.882,782199.664,788770.714,788772.20000005,2023-03-21T19:03:53Z,788787.557,NULL,Kreativität,ubunifu,d,NA,NA,NA,NA,sdfdsf,NA,1,NA,NA,NA,NA,NA,NA,NA,NA,NA,NA,NA,NA,NA,NA,NA,NA,NA,NA,NA
8db8a,shallow,flow.Sequence,5_0_1_0_1_1,NA,NA,skipped,NA,788772.4000001,NA,NA,788770.714,788772.60000014,2023-03-21T19:03:53Z,788787.557,NULL,Kreativität,ubunifu,d,NA,NA,NA,NA,sdfdsf,NA,1,NA,NA,NA,NA,NA,NA,NA,NA,NA,NA,NA,NA,NA,NA,NA,NA,NA,NA,NA
8db8a,task,flow.Sequence,5_0_1_0_1,NA,NA,completion,6571.05,782190.5,782182.882,782199.664,788770.714,788772.70000005,2023-03-21T19:03:53Z,788787.557,NULL,Kreativität,ubunifu,d,NA,NA,NA,NA,sdfdsf,NA,1,NA,NA,NA,NA,NA,NA,NA,NA,NA,NA,NA,NA,NA,NA,NA,NA,NA,NA,NA
8db8a,Deep Question,html.Page,5_0_1_0_2_0_0,NA,NA,form submission,1819.2429999523,788772.9000001,788770.714,788787.557,790606.79999995,790607.20000005,2023-03-21T19:03:55Z,790622.016,NULL,Können,unaweza,d,NA,NA,NA,p,NA,NA,1,NA,NA,NA,NA,NA,NA,NA,NA,NA,NA,NA,NA,NA,NA,NA,NA,NA,NA,NA
8db8a,"""Richtig""-Screen",canvas.Screen,5_0_1_0_2_0_1,NA,NA,skipped,NA,790611.20000005,NA,NA,790606.79999995,790611.4000001,2023-03-21T19:03:55Z,790622.016,NULL,Können,unaweza,d,NA,NA,NA,NA,sdfdsf,NA,1,NA,NA,NA,NA,NA,NA,NA,NA,NA,NA,NA,NA,NA,NA,NA,NA,NA,NA,NA
8db8a,"""Falsch""-Screen",canvas.Screen,5_0_1_0_2_0_2,NA,NA,timeout,5003.2030000001,790612.60000014,790605.346,790622.016,795608.683,795610,2023-03-21T19:04:00Z,795625.219,NULL,Können,unaweza,d,NA,NA,NA,NA,sdfdsf,0,1,NA,NA,NA,NA,NA,NA,NA,NA,NA,NA,NA,NA,NA,NA,NA,NA,NA,NA,NA
8db8a,deep,flow.Sequence,5_0_1_0_2_0,NA,NA,completion,6821.1259999999,788772.9000001,788770.714,788787.557,795608.683,795610.29999995,2023-03-21T19:04:00Z,795625.219,NULL,Können,unaweza,d,NA,NA,NA,NA,sdfdsf,NA,1,NA,NA,NA,NA,NA,NA,NA,NA,NA,NA,NA,NA,NA,NA,NA,NA,NA,NA,NA
8db8a,shallow,flow.Sequence,5_0_1_0_2_1,NA,NA,skipped,NA,795610.4000001,NA,NA,795608.683,795610.5,2023-03-21T19:04:00Z,795625.219,NULL,Können,unaweza,d,NA,NA,NA,NA,sdfdsf,NA,1,NA,NA,NA,NA,NA,NA,NA,NA,NA,NA,NA,NA,NA,NA,NA,NA,NA,NA,NA
8db8a,task,flow.Sequence,5_0_1_0_2,NA,NA,completion,6821.1259999999,788772.70000005,788770.714,788787.557,795608.683,795610.70000005,2023-03-21T19:04:00Z,795625.219,NULL,Können,unaweza,d,NA,NA,NA,NA,sdfdsf,NA,1,NA,NA,NA,NA,NA,NA,NA,NA,NA,NA,NA,NA,NA,NA,NA,NA,NA,NA,NA
8db8a,deep,flow.Sequence,5_0_1_0_3_0,NA,NA,skipped,NA,795610.79999995,NA,NA,795608.683,795610.9000001,2023-03-21T19:04:00Z,795625.219,NULL,Kontrolle,kudhibiti,s,mbinguni,kufunga,utegemezi,NA,sdfdsf,NA,1,NA,NA,NA,NA,NA,NA,NA,NA,NA,NA,NA,NA,NA,NA,NA,NA,NA,NA,NA
8db8a,Shallow Question,html.Page,5_0_1_0_3_1_0,NA,NA,form submission,9905.4810000476,795611,795608.683,795625.219,805530.70000005,805531.20000005,2023-03-21T19:04:10Z,805532.178,NULL,Kontrolle,kudhibiti,s,mbinguni,kufunga,utegemezi,kudhibiti,NA,NA,1,NA,NA,NA,NA,NA,NA,NA,NA,NA,NA,NA,NA,NA,NA,NA,NA,NA,NA,NA
8db8a,"""Richtig""-Screen",canvas.Screen,5_0_1_0_3_1_1,NA,NA,timeout,5003.539,805536.70000005,805515.717,805532.178,810519.108,810520.5,2023-03-21T19:04:15Z,810535.717,NULL,Kontrolle,kudhibiti,s,mbinguni,kufunga,utegemezi,NA,sdfdsf,1,1,NA,NA,NA,NA,NA,NA,NA,NA,NA,NA,NA,NA,NA,NA,NA,NA,NA,NA,NA
8db8a,"""Falsch""-Screen",canvas.Screen,5_0_1_0_3_1_2,NA,NA,skipped,NA,810525.9000001,NA,NA,810519.108,810526.10000014,2023-03-21T19:04:15Z,810535.717,NULL,Kontrolle,kudhibiti,s,mbinguni,kufunga,utegemezi,NA,sdfdsf,NA,1,NA,NA,NA,NA,NA,NA,NA,NA,NA,NA,NA,NA,NA,NA,NA,NA,NA,NA,NA
8db8a,shallow,flow.Sequence,5_0_1_0_3_1,NA,NA,completion,14893.889,795610.9000001,795608.683,795625.219,810519.108,810526.29999995,2023-03-21T19:04:15Z,810535.717,NULL,Kontrolle,kudhibiti,s,mbinguni,kufunga,utegemezi,NA,sdfdsf,NA,1,NA,NA,NA,NA,NA,NA,NA,NA,NA,NA,NA,NA,NA,NA,NA,NA,NA,NA,NA
8db8a,task,flow.Sequence,5_0_1_0_3,NA,NA,completion,14893.889,795610.70000005,795608.683,795625.219,810519.108,810526.60000014,2023-03-21T19:04:15Z,810535.717,NULL,Kontrolle,kudhibiti,s,mbinguni,kufunga,utegemezi,NA,sdfdsf,NA,1,NA,NA,NA,NA,NA,NA,NA,NA,NA,NA,NA,NA,NA,NA,NA,NA,NA,NA,NA
8db8a,Deep Question,html.Page,5_0_1_0_4_0_0,NA,NA,form submission,2071.0829999524,810526.79999995,810519.108,810535.717,812606.79999995,812607.20000005,2023-03-21T19:04:17Z,812620.304,NULL,Orientierung,urekebisho,d,NA,NA,NA,p,NA,NA,1,NA,NA,NA,NA,NA,NA,NA,NA,NA,NA,NA,NA,NA,NA,NA,NA,NA,NA,NA
8db8a,"""Richtig""-Screen",canvas.Screen,5_0_1_0_4_0_1,NA,NA,skipped,NA,812608.20000005,NA,NA,812606.79999995,812608.29999995,2023-03-21T19:04:17Z,812620.304,NULL,Orientierung,urekebisho,d,NA,NA,NA,NA,sdfdsf,NA,1,NA,NA,NA,NA,NA,NA,NA,NA,NA,NA,NA,NA,NA,NA,NA,NA,NA,NA,NA
8db8a,"""Falsch""-Screen",canvas.Screen,5_0_1_0_4_0_2,NA,NA,timeout,5003.285,812609.29999995,812604.032,812620.304,817606.931,817607.5,2023-03-21T19:04:22Z,817623.589,NULL,Orientierung,urekebisho,d,NA,NA,NA,NA,sdfdsf,0,1,NA,NA,NA,NA,NA,NA,NA,NA,NA,NA,NA,NA,NA,NA,NA,NA,NA,NA,NA
8db8a,deep,flow.Sequence,5_0_1_0_4_0,NA,NA,completion,7071.214,810526.70000005,810519.108,810535.717,817606.931,817607.70000005,2023-03-21T19:04:22Z,817623.589,NULL,Orientierung,urekebisho,d,NA,NA,NA,NA,sdfdsf,NA,1,NA,NA,NA,NA,NA,NA,NA,NA,NA,NA,NA,NA,NA,NA,NA,NA,NA,NA,NA
8db8a,shallow,flow.Sequence,5_0_1_0_4_1,NA,NA,skipped,NA,817607.79999995,NA,NA,817606.931,817607.79999995,2023-03-21T19:04:22Z,817623.589,NULL,Orientierung,urekebisho,d,NA,NA,NA,NA,sdfdsf,NA,1,NA,NA,NA,NA,NA,NA,NA,NA,NA,NA,NA,NA,NA,NA,NA,NA,NA,NA,NA
8db8a,task,flow.Sequence,5_0_1_0_4,NA,NA,completion,7071.214,810526.70000005,810519.108,810535.717,817606.931,817607.9000001,2023-03-21T19:04:22Z,817623.589,NULL,Orientierung,urekebisho,d,NA,NA,NA,NA,sdfdsf,NA,1,NA,NA,NA,NA,NA,NA,NA,NA,NA,NA,NA,NA,NA,NA,NA,NA,NA,NA,NA
8db8a,deep,flow.Sequence,5_0_1_0_5_0,NA,NA,skipped,NA,817607.9000001,NA,NA,817606.931,817608,2023-03-21T19:04:22Z,817623.589,NULL,Gefährdung,kuhatarisha,s,uchokozi,udhaifu,makorowezo,NA,sdfdsf,NA,1,NA,NA,NA,NA,NA,NA,NA,NA,NA,NA,NA,NA,NA,NA,NA,NA,NA,NA,NA
8db8a,Shallow Question,html.Page,5_0_1_0_5_1_0,NA,NA,form submission,6039.2109999523,817608.10000014,817606.931,817623.589,823662.79999995,823663.10000014,2023-03-21T19:04:28Z,823677.821,NULL,Gefährdung,kuhatarisha,s,uchokozi,udhaifu,makorowezo,kuhatarisha,NA,NA,1,NA,NA,NA,NA,NA,NA,NA,NA,NA,NA,NA,NA,NA,NA,NA,NA,NA,NA,NA
8db8a,"""Richtig""-Screen",canvas.Screen,5_0_1_0_5_1_1,NA,NA,timeout,5003.4620000001,823666.29999995,823661.257,823677.821,828665.121,828666.70000005,2023-03-21T19:04:33Z,828681.283,NULL,Gefährdung,kuhatarisha,s,uchokozi,udhaifu,makorowezo,NA,sdfdsf,1,1,NA,NA,NA,NA,NA,NA,NA,NA,NA,NA,NA,NA,NA,NA,NA,NA,NA,NA,NA
8db8a,"""Falsch""-Screen",canvas.Screen,5_0_1_0_5_1_2,NA,NA,skipped,NA,828671.4000001,NA,NA,828665.121,828671.70000005,2023-03-21T19:04:33Z,828681.283,NULL,Gefährdung,kuhatarisha,s,uchokozi,udhaifu,makorowezo,NA,sdfdsf,NA,1,NA,NA,NA,NA,NA,NA,NA,NA,NA,NA,NA,NA,NA,NA,NA,NA,NA,NA,NA
8db8a,shallow,flow.Sequence,5_0_1_0_5_1,NA,NA,completion,11041.532,817608,817606.931,817623.589,828665.121,828671.9000001,2023-03-21T19:04:33Z,828681.283,NULL,Gefährdung,kuhatarisha,s,uchokozi,udhaifu,makorowezo,NA,sdfdsf,NA,1,NA,NA,NA,NA,NA,NA,NA,NA,NA,NA,NA,NA,NA,NA,NA,NA,NA,NA,NA
8db8a,task,flow.Sequence,5_0_1_0_5,NA,NA,completion,11041.532,817607.9000001,817606.931,817623.589,828665.121,828672.10000014,2023-03-21T19:04:33Z,828681.283,NULL,Gefährdung,kuhatarisha,s,uchokozi,udhaifu,makorowezo,NA,sdfdsf,NA,1,NA,NA,NA,NA,NA,NA,NA,NA,NA,NA,NA,NA,NA,NA,NA,NA,NA,NA,NA
8db8a,Deep Question,html.Page,5_0_1_0_6_0_0,NA,NA,form submission,3775.317000143,828672.20000005,828665.121,828681.283,832456.60000014,832457,2023-03-21T19:04:37Z,832467.196,NULL,Respekt,heshima,d,NA,NA,NA,heshima,NA,NA,1,NA,NA,NA,NA,NA,NA,NA,NA,NA,NA,NA,NA,NA,NA,NA,NA,NA,NA,NA
8db8a,"""Richtig""-Screen",canvas.Screen,5_0_1_0_6_0_1,NA,NA,timeout,5003.378,832461,832450.532,832467.196,837453.842,837454.5,2023-03-21T19:04:42Z,837470.574,NULL,Respekt,heshima,d,NA,NA,NA,NA,sdfdsf,1,1,NA,NA,NA,NA,NA,NA,NA,NA,NA,NA,NA,NA,NA,NA,NA,NA,NA,NA,NA
