observation,sender,sender_type,sender_id,response,response_action,ended_on,duration,time_run,time_render,time_show,time_end,time_commit,timestamp,time_switch,distractors,german,swahili,enc,distractor1,distractor2,distractor3,response_2,x,correct,x_2,url_vp,url_sess,meta_labjs_version,meta_location,meta_user_agent,meta_platform,meta_language,meta_locale,meta_time_zone,meta_timezone_offset,meta_screen_width,meta_screen_height,meta_scroll_width,meta_scroll_height,meta_window_inner_width,meta_window_inner_height,meta_device_pixel_ratio,meta_labjs_build_flavor,meta_labjs_build_commit
9972d,Introduction general,canvas.Screen,0,weiter,keypress(q),response,249182.7,20606.5,20635.032,20651.8,269834.5,269838.60000002,2024-02-27T16:55:26Z,269849.3,NULL,NA,NA,NA,NA,NA,NA,NA,NA,NA,NA,142,1,20.2.4,https://neurocog.fernuni.ch/studies/vweber/aberisha/encoding_immediate/index.html?vp=142&sess=1,"Mozilla/5.0 (Windows NT 10.0; Win64; x64) AppleWebKit/537.36 (KHTML, like Gecko) Chrome/121.0.0.0 Safari/537.36",Win32,de-DE,de,Europe/Zurich,-60,1739,979,1740,763,1740,811,1.1041666269302,production,f5b4a49f956347addd546a832a3327688c2c0fef
9972d,Introduction practice,canvas.Screen,1_0,NA,keypress(Space),response,7068.6000000954,269839,269836.416,269849.3,276917.9000001,276918.9000001,2024-02-27T16:55:33Z,276928.2,NULL,NA,NA,NA,NA,NA,NA,NA,NA,NA,NA,NA,NA,NA,NA,NA,NA,NA,NA,NA,NA,NA,NA,NA,NA,NA,NA,NA,NA,NA
9972d,Deep Question,html.Page,1_1_0_0_0,NA,NA,form submission,10113.100000072,276919.4000001,276915.984,276928.2,287041.30000007,287041.70000005,2024-02-27T16:55:43Z,287039.578,"c(""distractor1"", ""distractor2"", ""distractor3"")",Gesundheit,salama,d,NA,NA,NA,hibialalla,NA,NA,NA,NA,NA,NA,NA,NA,NA,NA,NA,NA,NA,NA,NA,NA,NA,NA,NA,NA,NA,NA
9972d,"""Richtig""-Screen",canvas.Screen,1_1_0_0_1,NA,NA,skipped,NA,287042.70000005,NA,NA,287041.30000007,287042.9000001,2024-02-27T16:55:43Z,287039.578,"c(""distractor1"", ""distractor2"", ""distractor3"")",Gesundheit,salama,d,NA,NA,NA,NA,NA,NA,NA,NA,NA,NA,NA,NA,NA,NA,NA,NA,NA,NA,NA,NA,NA,NA,NA,NA,NA,NA
9972d,"""Falsch""-Screen",canvas.Screen,1_1_0_0_2,NA,NA,timeout,4996.622,287043.60000002,287039.578,287039.578,292019.3,292024.4000001,2024-02-27T16:55:48Z,292036.2,"c(""distractor1"", ""distractor2"", ""distractor3"")",Gesundheit,salama,d,NA,NA,NA,NA,NA,0,NA,NA,NA,NA,NA,NA,NA,NA,NA,NA,NA,NA,NA,NA,NA,NA,NA,NA,NA,NA
9972d,deep,flow.Sequence,1_1_0_0,NA,NA,completion,15091.1,276919.30000007,276915.984,276928.2,292019.3,292024.80000007,2024-02-27T16:55:48Z,292036.2,"c(""distractor1"", ""distractor2"", ""distractor3"")",Gesundheit,salama,d,NA,NA,NA,NA,NA,NA,NA,NA,NA,NA,NA,NA,NA,NA,NA,NA,NA,NA,NA,NA,NA,NA,NA,NA,NA,NA
9972d,shallow,flow.Sequence,1_1_0_1,NA,NA,skipped,NA,292024.9000001,NA,NA,292019.3,292024.9000001,2024-02-27T16:55:48Z,292036.2,"c(""distractor1"", ""distractor2"", ""distractor3"")",Gesundheit,salama,d,NA,NA,NA,NA,NA,NA,NA,NA,NA,NA,NA,NA,NA,NA,NA,NA,NA,NA,NA,NA,NA,NA,NA,NA,NA,NA
9972d,task,flow.Sequence,1_1_0,NA,NA,completion,15091.1,276919.30000007,276915.984,276928.2,292019.3,292025.10000002,2024-02-27T16:55:48Z,292036.2,"c(""distractor1"", ""distractor2"", ""distractor3"")",Gesundheit,salama,d,NA,NA,NA,NA,NA,NA,NA,NA,NA,NA,NA,NA,NA,NA,NA,NA,NA,NA,NA,NA,NA,NA,NA,NA,NA,NA
9972d,Deep Question,html.Page,1_1_1_0_0,NA,NA,form submission,10698.500000048,292025.10000002,292019.3,292036.2,302734.70000005,302735,2024-02-27T16:55:59Z,302745.8,"c(""distractor1"", ""distractor2"", ""distractor3"")",Qualität,mtindo,d,NA,NA,NA,lobilaai,NA,NA,NA,NA,NA,NA,NA,NA,NA,NA,NA,NA,NA,NA,NA,NA,NA,NA,NA,NA,NA,NA
9972d,"""Richtig""-Screen",canvas.Screen,1_1_1_0_1,NA,NA,skipped,NA,302737,NA,NA,302734.70000005,302737.20000005,2024-02-27T16:55:59Z,302745.8,"c(""distractor1"", ""distractor2"", ""distractor3"")",Qualität,mtindo,d,NA,NA,NA,NA,NA,NA,NA,NA,NA,NA,NA,NA,NA,NA,NA,NA,NA,NA,NA,NA,NA,NA,NA,NA,NA,NA
9972d,"""Falsch""-Screen",canvas.Screen,1_1_1_0_2,NA,NA,timeout,4997.6,302737.60000002,302729.998,302745.8,307726.2,307727.5,2024-02-27T16:56:04Z,307743.4,"c(""distractor1"", ""distractor2"", ""distractor3"")",Qualität,mtindo,d,NA,NA,NA,NA,NA,0,NA,NA,NA,NA,NA,NA,NA,NA,NA,NA,NA,NA,NA,NA,NA,NA,NA,NA,NA,NA
9972d,deep,flow.Sequence,1_1_1_0,NA,NA,completion,15690,292025.10000002,292019.3,292036.2,307726.2,307728.10000002,2024-02-27T16:56:04Z,307743.4,"c(""distractor1"", ""distractor2"", ""distractor3"")",Qualität,mtindo,d,NA,NA,NA,NA,NA,NA,NA,NA,NA,NA,NA,NA,NA,NA,NA,NA,NA,NA,NA,NA,NA,NA,NA,NA,NA,NA
9972d,shallow,flow.Sequence,1_1_1_1,NA,NA,skipped,NA,307728.4000001,NA,NA,307726.2,307728.70000005,2024-02-27T16:56:04Z,307743.4,"c(""distractor1"", ""distractor2"", ""distractor3"")",Qualität,mtindo,d,NA,NA,NA,NA,NA,NA,NA,NA,NA,NA,NA,NA,NA,NA,NA,NA,NA,NA,NA,NA,NA,NA,NA,NA,NA,NA
9972d,task,flow.Sequence,1_1_1,NA,NA,completion,15690,292025.10000002,292019.3,292036.2,307726.2,307729.10000002,2024-02-27T16:56:04Z,307743.4,"c(""distractor1"", ""distractor2"", ""distractor3"")",Qualität,mtindo,d,NA,NA,NA,NA,NA,NA,NA,NA,NA,NA,NA,NA,NA,NA,NA,NA,NA,NA,NA,NA,NA,NA,NA,NA,NA,NA
9972d,deep,flow.Sequence,1_1_2_0,NA,NA,skipped,NA,307729.4000001,NA,NA,307726.2,307729.60000002,2024-02-27T16:56:04Z,307743.4,"c(""distractor1"", ""distractor2"", ""distractor3"")",Kritik,lawama,s,dereva,nafasi,mawazo,NA,NA,NA,NA,NA,NA,NA,NA,NA,NA,NA,NA,NA,NA,NA,NA,NA,NA,NA,NA,NA,NA,NA
9972d,Shallow Question,html.Page,1_1_2_1_0,NA,NA,form submission,21492.500000095,307729.9000001,307726.2,307743.4,329235.9000001,329236.20000005,2024-02-27T16:56:25Z,329263.5,"c(""distractor1"", ""distractor2"", ""distractor3"")",Kritik,lawama,s,dereva,nafasi,mawazo,dereva,NA,NA,NA,NA,NA,NA,NA,NA,NA,NA,NA,NA,NA,NA,NA,NA,NA,NA,NA,NA,NA,NA
9972d,"""Richtig""-Screen",canvas.Screen,1_1_2_1_1,NA,NA,skipped,NA,329237.30000007,NA,NA,329235.9000001,329237.5,2024-02-27T16:56:25Z,329263.5,"c(""distractor1"", ""distractor2"", ""distractor3"")",Kritik,lawama,s,dereva,nafasi,mawazo,NA,NA,NA,NA,NA,NA,NA,NA,NA,NA,NA,NA,NA,NA,NA,NA,NA,NA,NA,NA,NA,NA,NA
9972d,"""Falsch""-Screen",canvas.Screen,1_1_2_1_2,NA,NA,timeout,4996.3,329238.60000002,329246.8,329263.5,334243.6,334244.70000005,2024-02-27T16:56:30Z,334259.8,"c(""distractor1"", ""distractor2"", ""distractor3"")",Kritik,lawama,s,dereva,nafasi,mawazo,NA,NA,0,NA,NA,NA,NA,NA,NA,NA,NA,NA,NA,NA,NA,NA,NA,NA,NA,NA,NA,NA,NA
9972d,shallow,flow.Sequence,1_1_2_1,NA,NA,completion,26500.2,307729.70000005,307726.2,307743.4,334243.6,334245.60000002,2024-02-27T16:56:30Z,334259.8,"c(""distractor1"", ""distractor2"", ""distractor3"")",Kritik,lawama,s,dereva,nafasi,mawazo,NA,NA,NA,NA,NA,NA,NA,NA,NA,NA,NA,NA,NA,NA,NA,NA,NA,NA,NA,NA,NA,NA,NA
9972d,task,flow.Sequence,1_1_2,NA,NA,completion,26500.2,307729.30000007,307726.2,307743.4,334243.6,334245.9000001,2024-02-27T16:56:30Z,334259.8,"c(""distractor1"", ""distractor2"", ""distractor3"")",Kritik,lawama,s,dereva,nafasi,mawazo,NA,NA,NA,NA,NA,NA,NA,NA,NA,NA,NA,NA,NA,NA,NA,NA,NA,NA,NA,NA,NA,NA,NA
9972d,deep,flow.Sequence,1_1_3_0,NA,NA,skipped,NA,334246.10000002,NA,NA,334243.6,334246.30000007,2024-02-27T16:56:30Z,334259.8,"c(""distractor1"", ""distractor2"", ""distractor3"")",Rückhalt,msaada,s,muhula,auwali,kiwimbe,NA,NA,NA,NA,NA,NA,NA,NA,NA,NA,NA,NA,NA,NA,NA,NA,NA,NA,NA,NA,NA,NA,NA
9972d,Shallow Question,html.Page,1_1_3_1_0,NA,NA,form submission,6468.2,334246.60000002,334243.6,334259.8,340728,340728.20000005,2024-02-27T16:56:37Z,340739.3,"c(""distractor1"", ""distractor2"", ""distractor3"")",Rückhalt,msaada,s,muhula,auwali,kiwimbe,muhula,NA,NA,NA,NA,NA,NA,NA,NA,NA,NA,NA,NA,NA,NA,NA,NA,NA,NA,NA,NA,NA,NA
9972d,"""Richtig""-Screen",canvas.Screen,1_1_3_1_1,NA,NA,skipped,NA,340731.4000001,NA,NA,340728,340731.5,2024-02-27T16:56:37Z,340739.3,"c(""distractor1"", ""distractor2"", ""distractor3"")",Rückhalt,msaada,s,muhula,auwali,kiwimbe,NA,NA,NA,NA,NA,NA,NA,NA,NA,NA,NA,NA,NA,NA,NA,NA,NA,NA,NA,NA,NA,NA,NA
9972d,"""Falsch""-Screen",canvas.Screen,1_1_3_1_2,NA,NA,timeout,4997.2,340732.4000001,340723.314,340739.3,345719.8,345720.80000007,2024-02-27T16:56:42Z,345736.5,"c(""distractor1"", ""distractor2"", ""distractor3"")",Rückhalt,msaada,s,muhula,auwali,kiwimbe,NA,NA,0,NA,NA,NA,NA,NA,NA,NA,NA,NA,NA,NA,NA,NA,NA,NA,NA,NA,NA,NA,NA
9972d,shallow,flow.Sequence,1_1_3_1,NA,NA,completion,11460,334246.5,334243.6,334259.8,345719.8,345721.10000002,2024-02-27T16:56:42Z,345736.5,"c(""distractor1"", ""distractor2"", ""distractor3"")",Rückhalt,msaada,s,muhula,auwali,kiwimbe,NA,NA,NA,NA,NA,NA,NA,NA,NA,NA,NA,NA,NA,NA,NA,NA,NA,NA,NA,NA,NA,NA,NA
9972d,task,flow.Sequence,1_1_3,NA,NA,completion,11460,334246.10000002,334243.6,334259.8,345719.8,345721.4000001,2024-02-27T16:56:42Z,345736.5,"c(""distractor1"", ""distractor2"", ""distractor3"")",Rückhalt,msaada,s,muhula,auwali,kiwimbe,NA,NA,NA,NA,NA,NA,NA,NA,NA,NA,NA,NA,NA,NA,NA,NA,NA,NA,NA,NA,NA,NA,NA
9972d,Deep Question,html.Page,1_1_4_0_0,NA,NA,form submission,8738.1000000238,345721.70000005,345719.8,345736.5,354474.60000002,354474.80000007,2024-02-27T16:56:51Z,354480.8,"c(""distractor1"", ""distractor2"", ""distractor3"")",Schatten,kivuli,d,NA,NA,NA,habilttu,NA,NA,NA,NA,NA,NA,NA,NA,NA,NA,NA,NA,NA,NA,NA,NA,NA,NA,NA,NA,NA,NA
9972d,"""Richtig""-Screen",canvas.Screen,1_1_4_0_1,NA,NA,skipped,NA,354478,NA,NA,354474.60000002,354478.20000005,2024-02-27T16:56:51Z,354480.8,"c(""distractor1"", ""distractor2"", ""distractor3"")",Schatten,kivuli,d,NA,NA,NA,NA,NA,NA,NA,NA,NA,NA,NA,NA,NA,NA,NA,NA,NA,NA,NA,NA,NA,NA,NA,NA,NA,NA
9972d,"""Falsch""-Screen",canvas.Screen,1_1_4_0_2,NA,NA,timeout,4997.2,354479.10000002,354464.912,354480.8,359461.5,359462.5,2024-02-27T16:56:56Z,359478,"c(""distractor1"", ""distractor2"", ""distractor3"")",Schatten,kivuli,d,NA,NA,NA,NA,NA,0,NA,NA,NA,NA,NA,NA,NA,NA,NA,NA,NA,NA,NA,NA,NA,NA,NA,NA,NA,NA
9972d,deep,flow.Sequence,1_1_4_0,NA,NA,completion,13725,345721.60000002,345719.8,345736.5,359461.5,359462.9000001,2024-02-27T16:56:56Z,359478,"c(""distractor1"", ""distractor2"", ""distractor3"")",Schatten,kivuli,d,NA,NA,NA,NA,NA,NA,NA,NA,NA,NA,NA,NA,NA,NA,NA,NA,NA,NA,NA,NA,NA,NA,NA,NA,NA,NA
9972d,shallow,flow.Sequence,1_1_4_1,NA,NA,skipped,NA,359463.10000002,NA,NA,359461.5,359463.30000007,2024-02-27T16:56:56Z,359478,"c(""distractor1"", ""distractor2"", ""distractor3"")",Schatten,kivuli,d,NA,NA,NA,NA,NA,NA,NA,NA,NA,NA,NA,NA,NA,NA,NA,NA,NA,NA,NA,NA,NA,NA,NA,NA,NA,NA
9972d,task,flow.Sequence,1_1_4,NA,NA,completion,13725,345721.60000002,345719.8,345736.5,359461.5,359463.60000002,2024-02-27T16:56:56Z,359478,"c(""distractor1"", ""distractor2"", ""distractor3"")",Schatten,kivuli,d,NA,NA,NA,NA,NA,NA,NA,NA,NA,NA,NA,NA,NA,NA,NA,NA,NA,NA,NA,NA,NA,NA,NA,NA,NA,NA
9972d,deep,flow.Sequence,1_1_5_0,NA,NA,skipped,NA,359463.70000005,NA,NA,359461.5,359463.9000001,2024-02-27T16:56:56Z,359478,"c(""distractor1"", ""distractor2"", ""distractor3"")",Gegenwart,hadhara,s,katiba,jokofu,mikopo,NA,NA,NA,NA,NA,NA,NA,NA,NA,NA,NA,NA,NA,NA,NA,NA,NA,NA,NA,NA,NA,NA,NA
9972d,Shallow Question,html.Page,1_1_5_1_0,NA,NA,form submission,7663.5,359464.10000002,359461.5,359478,367141.5,367141.5,2024-02-27T16:57:03Z,367156.8,"c(""distractor1"", ""distractor2"", ""distractor3"")",Gegenwart,hadhara,s,katiba,jokofu,mikopo,hadhara,NA,NA,NA,NA,NA,NA,NA,NA,NA,NA,NA,NA,NA,NA,NA,NA,NA,NA,NA,NA,NA,NA
9972d,"""Richtig""-Screen",canvas.Screen,1_1_5_1_1,NA,NA,timeout,4996.5,367143,367140.55,367156.8,372136.7,372138.10000002,2024-02-27T16:57:08Z,372153.3,"c(""distractor1"", ""distractor2"", ""distractor3"")",Gegenwart,hadhara,s,katiba,jokofu,mikopo,NA,NA,1,NA,NA,NA,NA,NA,NA,NA,NA,NA,NA,NA,NA,NA,NA,NA,NA,NA,NA,NA,NA
9972d,"""Falsch""-Screen",canvas.Screen,1_1_5_1_2,NA,NA,skipped,NA,372144.70000005,NA,NA,372136.7,372145,2024-02-27T16:57:08Z,372153.3,"c(""distractor1"", ""distractor2"", ""distractor3"")",Gegenwart,hadhara,s,katiba,jokofu,mikopo,NA,NA,NA,NA,NA,NA,NA,NA,NA,NA,NA,NA,NA,NA,NA,NA,NA,NA,NA,NA,NA,NA,NA
9972d,shallow,flow.Sequence,1_1_5_1,NA,NA,completion,12658.7,359464.10000002,359461.5,359478,372136.7,372145.60000002,2024-02-27T16:57:08Z,372153.3,"c(""distractor1"", ""distractor2"", ""distractor3"")",Gegenwart,hadhara,s,katiba,jokofu,mikopo,NA,NA,NA,NA,NA,NA,NA,NA,NA,NA,NA,NA,NA,NA,NA,NA,NA,NA,NA,NA,NA,NA,NA
9972d,task,flow.Sequence,1_1_5,NA,NA,completion,12658.7,359463.70000005,359461.5,359478,372136.7,372145.9000001,2024-02-27T16:57:08Z,372153.3,"c(""distractor1"", ""distractor2"", ""distractor3"")",Gegenwart,hadhara,s,katiba,jokofu,mikopo,NA,NA,NA,NA,NA,NA,NA,NA,NA,NA,NA,NA,NA,NA,NA,NA,NA,NA,NA,NA,NA,NA,NA
9972d,block,flow.Loop,1_1,NA,NA,completion,95208.5,276919.20000005,276915.984,276928.2,372136.7,372146.4000001,2024-02-27T16:57:08Z,372153.3,"c(""distractor1"", ""distractor2"", ""distractor3"")",NA,NA,NA,NA,NA,NA,NA,NA,NA,NA,NA,NA,NA,NA,NA,NA,NA,NA,NA,NA,NA,NA,NA,NA,NA,NA,NA,NA,NA
9972d,Practice,flow.Sequence,1,NA,NA,completion,102287.4,269839,269836.416,269849.3,372136.7,372146.70000005,2024-02-27T16:57:08Z,372153.3,NULL,NA,NA,NA,NA,NA,NA,NA,NA,NA,NA,NA,NA,NA,NA,NA,NA,NA,NA,NA,NA,NA,NA,NA,NA,NA,NA,NA,NA,NA
9972d,Experiment start,canvas.Screen,2,weiter,keypress(q),response,258462.50000007,372146.9000001,372136.7,372153.3,630615.80000007,630617,2024-02-27T17:01:27Z,630679.896,NULL,NA,NA,NA,NA,NA,NA,NA,NA,NA,NA,NA,NA,NA,NA,NA,NA,NA,NA,NA,NA,NA,NA,NA,NA,NA,NA,NA,NA,NA
9972d,deep,flow.Sequence,3_0_0_0_0_0,NA,NA,skipped,NA,630688.4000001,NA,NA,630615.80000007,630688.60000002,2024-02-27T17:01:27Z,630679.896,NULL,Vermutung,udhanifu,s,haramia,tikisho,itifaki,NA,sdf,NA,0,NA,NA,NA,NA,NA,NA,NA,NA,NA,NA,NA,NA,NA,NA,NA,NA,NA,NA,NA
9972d,Shallow Question,html.Page,3_0_0_0_0_1_0,NA,NA,form submission,253509.5040001,630688.70000005,630679.896,630679.896,884189.4000001,884189.70000005,2024-02-27T17:05:40Z,884207.6,NULL,Vermutung,udhanifu,s,haramia,tikisho,itifaki,haramia,NA,NA,0,NA,NA,NA,NA,NA,NA,NA,NA,NA,NA,NA,NA,NA,NA,NA,NA,NA,NA,NA
9972d,"""Richtig""-Screen",canvas.Screen,3_0_0_0_0_1_1,NA,NA,skipped,NA,884191.20000005,NA,NA,884189.4000001,884191.20000005,2024-02-27T17:05:40Z,884207.6,NULL,Vermutung,udhanifu,s,haramia,tikisho,itifaki,NA,sdf,NA,0,NA,NA,NA,NA,NA,NA,NA,NA,NA,NA,NA,NA,NA,NA,NA,NA,NA,NA,NA
9972d,"""Falsch""-Screen",canvas.Screen,3_0_0_0_0_1_2,NA,NA,timeout,4996,884191.70000005,884192.868,884207.6,889187.1,889188.10000002,2024-02-27T17:05:45Z,889203.6,NULL,Vermutung,udhanifu,s,haramia,tikisho,itifaki,NA,sdf,0,0,NA,NA,NA,NA,NA,NA,NA,NA,NA,NA,NA,NA,NA,NA,NA,NA,NA,NA,NA
9972d,shallow,flow.Sequence,3_0_0_0_0_1,NA,NA,completion,258507.204,630688.70000005,630679.896,630679.896,889187.1,889188.60000002,2024-02-27T17:05:45Z,889203.6,NULL,Vermutung,udhanifu,s,haramia,tikisho,itifaki,NA,sdf,NA,0,NA,NA,NA,NA,NA,NA,NA,NA,NA,NA,NA,NA,NA,NA,NA,NA,NA,NA,NA
9972d,task,flow.Sequence,3_0_0_0_0,NA,NA,completion,258507.204,630688.4000001,630679.896,630679.896,889187.1,889191.30000007,2024-02-27T17:05:45Z,889203.6,NULL,Vermutung,udhanifu,s,haramia,tikisho,itifaki,NA,sdf,NA,0,NA,NA,NA,NA,NA,NA,NA,NA,NA,NA,NA,NA,NA,NA,NA,NA,NA,NA,NA
9972d,Deep Question,html.Page,3_0_0_0_1_0_0,NA,NA,form submission,6299.7000000715,889191.60000002,889187.1,889203.6,895503.30000007,895503.60000002,2024-02-27T17:05:52Z,895516.3,NULL,Sympathie,mapendano,d,NA,NA,NA,hilaro,NA,NA,0,NA,NA,NA,NA,NA,NA,NA,NA,NA,NA,NA,NA,NA,NA,NA,NA,NA,NA,NA
9972d,"""Richtig""-Screen",canvas.Screen,3_0_0_0_1_0_1,NA,NA,skipped,NA,895506.80000007,NA,NA,895503.30000007,895506.9000001,2024-02-27T17:05:52Z,895516.3,NULL,Sympathie,mapendano,d,NA,NA,NA,NA,sdf,NA,0,NA,NA,NA,NA,NA,NA,NA,NA,NA,NA,NA,NA,NA,NA,NA,NA,NA,NA,NA
9972d,"""Falsch""-Screen",canvas.Screen,3_0_0_0_1_0_2,NA,NA,timeout,4997.1,895507.4000001,895500.046,895516.3,900496.8,900498,2024-02-27T17:05:57Z,900513.4,NULL,Sympathie,mapendano,d,NA,NA,NA,NA,sdf,0,0,NA,NA,NA,NA,NA,NA,NA,NA,NA,NA,NA,NA,NA,NA,NA,NA,NA,NA,NA
9972d,deep,flow.Sequence,3_0_0_0_1_0,NA,NA,completion,11293.2,889191.5,889187.1,889203.6,900496.8,900498.4000001,2024-02-27T17:05:57Z,900513.4,NULL,Sympathie,mapendano,d,NA,NA,NA,NA,sdf,NA,0,NA,NA,NA,NA,NA,NA,NA,NA,NA,NA,NA,NA,NA,NA,NA,NA,NA,NA,NA
9972d,shallow,flow.Sequence,3_0_0_0_1_1,NA,NA,skipped,NA,900498.60000002,NA,NA,900496.8,900498.70000005,2024-02-27T17:05:57Z,900513.4,NULL,Sympathie,mapendano,d,NA,NA,NA,NA,sdf,NA,0,NA,NA,NA,NA,NA,NA,NA,NA,NA,NA,NA,NA,NA,NA,NA,NA,NA,NA,NA
9972d,task,flow.Sequence,3_0_0_0_1,NA,NA,completion,11293.2,889191.4000001,889187.1,889203.6,900496.8,900499,2024-02-27T17:05:57Z,900513.4,NULL,Sympathie,mapendano,d,NA,NA,NA,NA,sdf,NA,0,NA,NA,NA,NA,NA,NA,NA,NA,NA,NA,NA,NA,NA,NA,NA,NA,NA,NA,NA
9972d,Deep Question,html.Page,3_0_0_0_2_0_0,NA,NA,form submission,4173.4000000715,900499.30000007,900496.8,900513.4,904686.80000007,904687.20000005,2024-02-27T17:06:01Z,904694.1,NULL,Toleranz,kuvumiliana,d,NA,NA,NA,sdfe,NA,NA,0,NA,NA,NA,NA,NA,NA,NA,NA,NA,NA,NA,NA,NA,NA,NA,NA,NA,NA,NA
9972d,"""Richtig""-Screen",canvas.Screen,3_0_0_0_2_0_1,NA,NA,skipped,NA,904689.5,NA,NA,904686.80000007,904689.60000002,2024-02-27T17:06:01Z,904694.1,NULL,Toleranz,kuvumiliana,d,NA,NA,NA,NA,sdf,NA,0,NA,NA,NA,NA,NA,NA,NA,NA,NA,NA,NA,NA,NA,NA,NA,NA,NA,NA,NA
9972d,"""Falsch""-Screen",canvas.Screen,3_0_0_0_2_0_2,NA,NA,timeout,4997.1,904690.10000002,904678.19,904694.1,909674.7,909676,2024-02-27T17:06:06Z,909691.2,NULL,Toleranz,kuvumiliana,d,NA,NA,NA,NA,sdf,0,0,NA,NA,NA,NA,NA,NA,NA,NA,NA,NA,NA,NA,NA,NA,NA,NA,NA,NA,NA
9972d,deep,flow.Sequence,3_0_0_0_2_0,NA,NA,completion,9161.2999999999,900499.20000005,900496.8,900513.4,909674.7,909676.30000007,2024-02-27T17:06:06Z,909691.2,NULL,Toleranz,kuvumiliana,d,NA,NA,NA,NA,sdf,NA,0,NA,NA,NA,NA,NA,NA,NA,NA,NA,NA,NA,NA,NA,NA,NA,NA,NA,NA,NA
9972d,shallow,flow.Sequence,3_0_0_0_2_1,NA,NA,skipped,NA,909676.60000002,NA,NA,909674.7,909676.70000005,2024-02-27T17:06:06Z,909691.2,NULL,Toleranz,kuvumiliana,d,NA,NA,NA,NA,sdf,NA,0,NA,NA,NA,NA,NA,NA,NA,NA,NA,NA,NA,NA,NA,NA,NA,NA,NA,NA,NA
9972d,task,flow.Sequence,3_0_0_0_2,NA,NA,completion,9161.2999999999,900499.20000005,900496.8,900513.4,909674.7,909677,2024-02-27T17:06:06Z,909691.2,NULL,Toleranz,kuvumiliana,d,NA,NA,NA,NA,sdf,NA,0,NA,NA,NA,NA,NA,NA,NA,NA,NA,NA,NA,NA,NA,NA,NA,NA,NA,NA,NA
9972d,Deep Question,html.Page,3_0_0_0_3_0_0,NA,NA,form submission,6051.0000000477,909677.20000005,909674.7,909691.2,915742.20000005,915742.30000007,2024-02-27T17:06:12Z,915753.9,NULL,Schlange,foleni,d,NA,NA,NA,sefre,NA,NA,0,NA,NA,NA,NA,NA,NA,NA,NA,NA,NA,NA,NA,NA,NA,NA,NA,NA,NA,NA
9972d,"""Richtig""-Screen",canvas.Screen,3_0_0_0_3_0_1,NA,NA,skipped,NA,915744.10000002,NA,NA,915742.20000005,915744.10000002,2024-02-27T17:06:12Z,915753.9,NULL,Schlange,foleni,d,NA,NA,NA,NA,sdf,NA,0,NA,NA,NA,NA,NA,NA,NA,NA,NA,NA,NA,NA,NA,NA,NA,NA,NA,NA,NA
9972d,"""Falsch""-Screen",canvas.Screen,3_0_0_0_3_0_2,NA,NA,timeout,4997.4,915744.60000002,915738.61,915753.9,920734.5,920735.30000007,2024-02-27T17:06:17Z,920751.3,NULL,Schlange,foleni,d,NA,NA,NA,NA,sdf,0,0,NA,NA,NA,NA,NA,NA,NA,NA,NA,NA,NA,NA,NA,NA,NA,NA,NA,NA,NA
9972d,deep,flow.Sequence,3_0_0_0_3_0,NA,NA,completion,11043.3,909677.20000005,909674.7,909691.2,920734.5,920735.60000002,2024-02-27T17:06:17Z,920751.3,NULL,Schlange,foleni,d,NA,NA,NA,NA,sdf,NA,0,NA,NA,NA,NA,NA,NA,NA,NA,NA,NA,NA,NA,NA,NA,NA,NA,NA,NA,NA
9972d,shallow,flow.Sequence,3_0_0_0_3_1,NA,NA,skipped,NA,920735.70000005,NA,NA,920734.5,920735.9000001,2024-02-27T17:06:17Z,920751.3,NULL,Schlange,foleni,d,NA,NA,NA,NA,sdf,NA,0,NA,NA,NA,NA,NA,NA,NA,NA,NA,NA,NA,NA,NA,NA,NA,NA,NA,NA,NA
9972d,task,flow.Sequence,3_0_0_0_3,NA,NA,completion,11043.3,909677.20000005,909674.7,909691.2,920734.5,920736.10000002,2024-02-27T17:06:17Z,920751.3,NULL,Schlange,foleni,d,NA,NA,NA,NA,sdf,NA,0,NA,NA,NA,NA,NA,NA,NA,NA,NA,NA,NA,NA,NA,NA,NA,NA,NA,NA,NA
9972d,Deep Question,html.Page,3_0_0_0_4_0_0,NA,NA,form submission,6725.4000000476,920736.30000007,920734.5,920751.3,927476.70000005,927476.70000005,2024-02-27T17:06:24Z,927480.1,NULL,Annäherung,maegesho,d,NA,NA,NA,nili,NA,NA,0,NA,NA,NA,NA,NA,NA,NA,NA,NA,NA,NA,NA,NA,NA,NA,NA,NA,NA,NA
9972d,"""Richtig""-Screen",canvas.Screen,3_0_0_0_4_0_1,NA,NA,skipped,NA,927478.20000005,NA,NA,927476.70000005,927478.30000007,2024-02-27T17:06:24Z,927480.1,NULL,Annäherung,maegesho,d,NA,NA,NA,NA,sdf,NA,0,NA,NA,NA,NA,NA,NA,NA,NA,NA,NA,NA,NA,NA,NA,NA,NA,NA,NA,NA
9972d,"""Falsch""-Screen",canvas.Screen,3_0_0_0_4_0_2,NA,NA,timeout,4997.1,927478.80000007,927464.562,927480.1,932460.7,932461.80000007,2024-02-27T17:06:29Z,932477.2,NULL,Annäherung,maegesho,d,NA,NA,NA,NA,sdf,0,0,NA,NA,NA,NA,NA,NA,NA,NA,NA,NA,NA,NA,NA,NA,NA,NA,NA,NA,NA
9972d,deep,flow.Sequence,3_0_0_0_4_0,NA,NA,completion,11709.4,920736.30000007,920734.5,920751.3,932460.7,932462.20000005,2024-02-27T17:06:29Z,932477.2,NULL,Annäherung,maegesho,d,NA,NA,NA,NA,sdf,NA,0,NA,NA,NA,NA,NA,NA,NA,NA,NA,NA,NA,NA,NA,NA,NA,NA,NA,NA,NA
9972d,shallow,flow.Sequence,3_0_0_0_4_1,NA,NA,skipped,NA,932462.5,NA,NA,932460.7,932462.70000005,2024-02-27T17:06:29Z,932477.2,NULL,Annäherung,maegesho,d,NA,NA,NA,NA,sdf,NA,0,NA,NA,NA,NA,NA,NA,NA,NA,NA,NA,NA,NA,NA,NA,NA,NA,NA,NA,NA
9972d,task,flow.Sequence,3_0_0_0_4,NA,NA,completion,11709.4,920736.20000005,920734.5,920751.3,932460.7,932463,2024-02-27T17:06:29Z,932477.2,NULL,Annäherung,maegesho,d,NA,NA,NA,NA,sdf,NA,0,NA,NA,NA,NA,NA,NA,NA,NA,NA,NA,NA,NA,NA,NA,NA,NA,NA,NA,NA
9972d,deep,flow.Sequence,3_0_0_0_5_0,NA,NA,skipped,NA,932463.20000005,NA,NA,932460.7,932463.4000001,2024-02-27T17:06:29Z,932477.2,NULL,Polizist,msongora,s,simanzi,mandhari,nidhamu,NA,sdf,NA,0,NA,NA,NA,NA,NA,NA,NA,NA,NA,NA,NA,NA,NA,NA,NA,NA,NA,NA,NA
9972d,Shallow Question,html.Page,3_0_0_0_5_1_0,NA,NA,form submission,6330.1000000716,932463.60000002,932460.7,932477.2,938807.30000007,938807.60000002,2024-02-27T17:06:35Z,938823.2,NULL,Polizist,msongora,s,simanzi,mandhari,nidhamu,mandhari,NA,NA,0,NA,NA,NA,NA,NA,NA,NA,NA,NA,NA,NA,NA,NA,NA,NA,NA,NA,NA,NA
9972d,"""Richtig""-Screen",canvas.Screen,3_0_0_0_5_1_1,NA,NA,skipped,NA,938810.80000007,NA,NA,938807.30000007,938811,2024-02-27T17:06:35Z,938823.2,NULL,Polizist,msongora,s,simanzi,mandhari,nidhamu,NA,sdf,NA,0,NA,NA,NA,NA,NA,NA,NA,NA,NA,NA,NA,NA,NA,NA,NA,NA,NA,NA,NA
9972d,"""Falsch""-Screen",canvas.Screen,3_0_0_0_5_1_2,NA,NA,timeout,4997.4,938811.9000001,938807.122,938823.2,943803.5,943803.9000001,2024-02-27T17:06:40Z,943820.6,NULL,Polizist,msongora,s,simanzi,mandhari,nidhamu,NA,sdf,0,0,NA,NA,NA,NA,NA,NA,NA,NA,NA,NA,NA,NA,NA,NA,NA,NA,NA,NA,NA
9972d,shallow,flow.Sequence,3_0_0_0_5_1,NA,NA,completion,11326.3,932463.4000001,932460.7,932477.2,943803.5,943804,2024-02-27T17:06:40Z,943820.6,NULL,Polizist,msongora,s,simanzi,mandhari,nidhamu,NA,sdf,NA,0,NA,NA,NA,NA,NA,NA,NA,NA,NA,NA,NA,NA,NA,NA,NA,NA,NA,NA,NA
9972d,task,flow.Sequence,3_0_0_0_5,NA,NA,completion,11326.3,932463.10000002,932460.7,932477.2,943803.5,943804.20000005,2024-02-27T17:06:40Z,943820.6,NULL,Polizist,msongora,s,simanzi,mandhari,nidhamu,NA,sdf,NA,0,NA,NA,NA,NA,NA,NA,NA,NA,NA,NA,NA,NA,NA,NA,NA,NA,NA,NA,NA
9972d,deep,flow.Sequence,3_0_0_0_6_0,NA,NA,skipped,NA,943804.20000005,NA,NA,943803.5,943804.20000005,2024-02-27T17:06:40Z,943820.6,NULL,Beweis,ushahidi,s,marudio,kizuizi,mtendaji,NA,sdf,NA,0,NA,NA,NA,NA,NA,NA,NA,NA,NA,NA,NA,NA,NA,NA,NA,NA,NA,NA,NA
9972d,Shallow Question,html.Page,3_0_0_0_6_1_0,NA,NA,form submission,6192.5000000239,943804.30000007,943803.5,943820.6,950013.10000002,950013.30000007,2024-02-27T17:06:46Z,950017.128,NULL,Beweis,ushahidi,s,marudio,kizuizi,mtendaji,kizuizi,NA,NA,0,NA,NA,NA,NA,NA,NA,NA,NA,NA,NA,NA,NA,NA,NA,NA,NA,NA,NA,NA
9972d,"""Richtig""-Screen",canvas.Screen,3_0_0_0_6_1_1,NA,NA,skipped,NA,950016.60000002,NA,NA,950013.10000002,950016.80000007,2024-02-27T17:06:46Z,950017.128,NULL,Beweis,ushahidi,s,marudio,kizuizi,mtendaji,NA,sdf,NA,0,NA,NA,NA,NA,NA,NA,NA,NA,NA,NA,NA,NA,NA,NA,NA,NA,NA,NA,NA
9972d,"""Falsch""-Screen",canvas.Screen,3_0_0_0_6_1_2,NA,NA,timeout,4996.272,950017.70000005,950017.128,950017.128,954996.9,954997.4000001,2024-02-27T17:06:51Z,955013.4,NULL,Beweis,ushahidi,s,marudio,kizuizi,mtendaji,NA,sdf,0,0,NA,NA,NA,NA,NA,NA,NA,NA,NA,NA,NA,NA,NA,NA,NA,NA,NA,NA,NA
9972d,shallow,flow.Sequence,3_0_0_0_6_1,NA,NA,completion,11176.3,943804.20000005,943803.5,943820.6,954996.9,954997.5,2024-02-27T17:06:51Z,955013.4,NULL,Beweis,ushahidi,s,marudio,kizuizi,mtendaji,NA,sdf,NA,0,NA,NA,NA,NA,NA,NA,NA,NA,NA,NA,NA,NA,NA,NA,NA,NA,NA,NA,NA
9972d,task,flow.Sequence,3_0_0_0_6,NA,NA,completion,11176.3,943804.20000005,943803.5,943820.6,954996.9,954997.5,2024-02-27T17:06:51Z,955013.4,NULL,Beweis,ushahidi,s,marudio,kizuizi,mtendaji,NA,sdf,NA,0,NA,NA,NA,NA,NA,NA,NA,NA,NA,NA,NA,NA,NA,NA,NA,NA,NA,NA,NA
9972d,deep,flow.Sequence,3_0_0_0_7_0,NA,NA,skipped,NA,954997.60000002,NA,NA,954996.9,954997.60000002,2024-02-27T17:06:51Z,955013.4,NULL,Inhalt,yaliyomo,s,kishawishi,hifadhi,kutembea,NA,sdf,NA,0,NA,NA,NA,NA,NA,NA,NA,NA,NA,NA,NA,NA,NA,NA,NA,NA,NA,NA,NA
9972d,Shallow Question,html.Page,3_0_0_0_7_1_0,NA,NA,form submission,7692.3000000477,954997.70000005,954996.9,955013.4,962705.70000005,962705.80000007,2024-02-27T17:06:59Z,962708.6,NULL,Inhalt,yaliyomo,s,kishawishi,hifadhi,kutembea,yaliyomo,NA,NA,0,NA,NA,NA,NA,NA,NA,NA,NA,NA,NA,NA,NA,NA,NA,NA,NA,NA,NA,NA
9972d,"""Richtig""-Screen",canvas.Screen,3_0_0_0_7_1_1,NA,NA,timeout,4996.9,962707.20000005,962694.4,962708.6,967689.3,967690.30000007,2024-02-27T17:07:04Z,967705.5,NULL,Inhalt,yaliyomo,s,kishawishi,hifadhi,kutembea,NA,sdf,1,0,NA,NA,NA,NA,NA,NA,NA,NA,NA,NA,NA,NA,NA,NA,NA,NA,NA,NA,NA
9972d,"""Falsch""-Screen",canvas.Screen,3_0_0_0_7_1_2,NA,NA,skipped,NA,967696.5,NA,NA,967689.3,967696.9000001,2024-02-27T17:07:04Z,967705.5,NULL,Inhalt,yaliyomo,s,kishawishi,hifadhi,kutembea,NA,sdf,NA,0,NA,NA,NA,NA,NA,NA,NA,NA,NA,NA,NA,NA,NA,NA,NA,NA,NA,NA,NA
9972d,shallow,flow.Sequence,3_0_0_0_7_1,NA,NA,completion,12675.9,954997.60000002,954996.9,955013.4,967689.3,967697.20000005,2024-02-27T17:07:04Z,967705.5,NULL,Inhalt,yaliyomo,s,kishawishi,hifadhi,kutembea,NA,sdf,NA,0,NA,NA,NA,NA,NA,NA,NA,NA,NA,NA,NA,NA,NA,NA,NA,NA,NA,NA,NA
9972d,task,flow.Sequence,3_0_0_0_7,NA,NA,completion,12675.9,954997.60000002,954996.9,955013.4,967689.3,967697.5,2024-02-27T17:07:04Z,967705.5,NULL,Inhalt,yaliyomo,s,kishawishi,hifadhi,kutembea,NA,sdf,NA,0,NA,NA,NA,NA,NA,NA,NA,NA,NA,NA,NA,NA,NA,NA,NA,NA,NA,NA,NA
9972d,block,flow.Loop,3_0_0_0,NA,NA,completion,337009.404,630688.4000001,630679.896,630679.896,967689.3,967697.9000001,2024-02-27T17:07:04Z,967705.5,NULL,NA,NA,NA,NA,NA,NA,NA,sdf,NA,0,NA,NA,NA,NA,NA,NA,NA,NA,NA,NA,NA,NA,NA,NA,NA,NA,NA,NA,NA
9972d,weiter,canvas.Screen,3_0_0_1,sdf,keypress(Space),response,4232,967698,967689.3,967705.5,971937.5,971938.70000005,2024-02-27T17:07:08Z,971970.01,NULL,NA,NA,NA,NA,NA,NA,NA,sdf,NA,0,NA,NA,NA,NA,NA,NA,NA,NA,NA,NA,NA,NA,NA,NA,NA,NA,NA,NA,NA
9972d,check continue,flow.Sequence,3_0_0,NA,NA,completion,341257.604,630688.4000001,630679.896,630679.896,971937.5,971939,2024-02-27T17:07:08Z,971970.01,NULL,NA,NA,NA,NA,NA,NA,NA,sdf,NA,0,NA,NA,NA,NA,NA,NA,NA,NA,NA,NA,NA,NA,NA,NA,NA,NA,NA,NA,NA
9972d,Deep Question,html.Page,3_0_1_0_0_0_0,NA,NA,form submission,8041.0900000238,971979.10000002,971970.01,971970.01,980011.10000002,980011.30000007,2024-02-27T17:07:16Z,980014.996,NULL,Annäherung,maegesho,d,NA,NA,NA,vasili,NA,NA,1,NA,NA,NA,NA,NA,NA,NA,NA,NA,NA,NA,NA,NA,NA,NA,NA,NA,NA,NA
9972d,"""Richtig""-Screen",canvas.Screen,3_0_1_0_0_0_1,NA,NA,skipped,NA,980014.4000001,NA,NA,980011.10000002,980014.5,2024-02-27T17:07:16Z,980014.996,NULL,Annäherung,maegesho,d,NA,NA,NA,NA,sdfdsf,NA,1,NA,NA,NA,NA,NA,NA,NA,NA,NA,NA,NA,NA,NA,NA,NA,NA,NA,NA,NA
9972d,"""Falsch""-Screen",canvas.Screen,3_0_1_0_0_0_2,NA,NA,timeout,4997.004,980015,980014.996,980014.996,984995.2,984996.10000002,2024-02-27T17:07:21Z,985012,NULL,Annäherung,maegesho,d,NA,NA,NA,NA,sdfdsf,0,1,NA,NA,NA,NA,NA,NA,NA,NA,NA,NA,NA,NA,NA,NA,NA,NA,NA,NA,NA
9972d,deep,flow.Sequence,3_0_1_0_0_0,NA,NA,completion,13025.19,971979.10000002,971970.01,971970.01,984995.2,984996.5,2024-02-27T17:07:21Z,985012,NULL,Annäherung,maegesho,d,NA,NA,NA,NA,sdfdsf,NA,1,NA,NA,NA,NA,NA,NA,NA,NA,NA,NA,NA,NA,NA,NA,NA,NA,NA,NA,NA
9972d,shallow,flow.Sequence,3_0_1_0_0_1,NA,NA,skipped,NA,984996.70000005,NA,NA,984995.2,984996.70000005,2024-02-27T17:07:21Z,985012,NULL,Annäherung,maegesho,d,NA,NA,NA,NA,sdfdsf,NA,1,NA,NA,NA,NA,NA,NA,NA,NA,NA,NA,NA,NA,NA,NA,NA,NA,NA,NA,NA
9972d,task,flow.Sequence,3_0_1_0_0,NA,NA,completion,13025.19,971979.10000002,971970.01,971970.01,984995.2,984996.9000001,2024-02-27T17:07:21Z,985012,NULL,Annäherung,maegesho,d,NA,NA,NA,NA,sdfdsf,NA,1,NA,NA,NA,NA,NA,NA,NA,NA,NA,NA,NA,NA,NA,NA,NA,NA,NA,NA,NA
9972d,deep,flow.Sequence,3_0_1_0_1_0,NA,NA,skipped,NA,984997.10000002,NA,NA,984995.2,984997.20000005,2024-02-27T17:07:21Z,985012,NULL,Vermutung,udhanifu,s,haramia,tikisho,itifaki,NA,sdfdsf,NA,1,NA,NA,NA,NA,NA,NA,NA,NA,NA,NA,NA,NA,NA,NA,NA,NA,NA,NA,NA
9972d,Shallow Question,html.Page,3_0_1_0_1_1_0,NA,NA,form submission,7782.7000000477,984997.30000007,984995.2,985012,992794.70000005,992795,2024-02-27T17:07:29Z,992806.9,NULL,Vermutung,udhanifu,s,haramia,tikisho,itifaki,haramia,NA,NA,1,NA,NA,NA,NA,NA,NA,NA,NA,NA,NA,NA,NA,NA,NA,NA,NA,NA,NA,NA
9972d,"""Richtig""-Screen",canvas.Screen,3_0_1_0_1_1_1,NA,NA,skipped,NA,992798.20000005,NA,NA,992794.70000005,992798.30000007,2024-02-27T17:07:29Z,992806.9,NULL,Vermutung,udhanifu,s,haramia,tikisho,itifaki,NA,sdfdsf,NA,1,NA,NA,NA,NA,NA,NA,NA,NA,NA,NA,NA,NA,NA,NA,NA,NA,NA,NA,NA
9972d,"""Falsch""-Screen",canvas.Screen,3_0_1_0_1_1_2,NA,NA,timeout,4997,992799.30000007,992790.988,992806.9,997787.1,997787.5,2024-02-27T17:07:34Z,997803.9,NULL,Vermutung,udhanifu,s,haramia,tikisho,itifaki,NA,sdfdsf,0,1,NA,NA,NA,NA,NA,NA,NA,NA,NA,NA,NA,NA,NA,NA,NA,NA,NA,NA,NA
9972d,shallow,flow.Sequence,3_0_1_0_1_1,NA,NA,completion,12775.1,984997.30000007,984995.2,985012,997787.1,997787.60000002,2024-02-27T17:07:34Z,997803.9,NULL,Vermutung,udhanifu,s,haramia,tikisho,itifaki,NA,sdfdsf,NA,1,NA,NA,NA,NA,NA,NA,NA,NA,NA,NA,NA,NA,NA,NA,NA,NA,NA,NA,NA
9972d,task,flow.Sequence,3_0_1_0_1,NA,NA,completion,12775.1,984997.10000002,984995.2,985012,997787.1,997787.70000005,2024-02-27T17:07:34Z,997803.9,NULL,Vermutung,udhanifu,s,haramia,tikisho,itifaki,NA,sdfdsf,NA,1,NA,NA,NA,NA,NA,NA,NA,NA,NA,NA,NA,NA,NA,NA,NA,NA,NA,NA,NA
9972d,Deep Question,html.Page,3_0_1_0_2_0_0,NA,NA,form submission,8445.0000000953,997787.80000007,997787.1,997803.9,1006248.9000001,1006249,2024-02-27T17:07:42Z,1006266.4,NULL,Sympathie,mapendano,d,NA,NA,NA,mgadani,NA,NA,1,NA,NA,NA,NA,NA,NA,NA,NA,NA,NA,NA,NA,NA,NA,NA,NA,NA,NA,NA
9972d,"""Richtig""-Screen",canvas.Screen,3_0_1_0_2_0_1,NA,NA,skipped,NA,1006250.8000001,NA,NA,1006248.9000001,1006251,2024-02-27T17:07:42Z,1006266.4,NULL,Sympathie,mapendano,d,NA,NA,NA,NA,sdfdsf,NA,1,NA,NA,NA,NA,NA,NA,NA,NA,NA,NA,NA,NA,NA,NA,NA,NA,NA,NA,NA
9972d,"""Falsch""-Screen",canvas.Screen,3_0_1_0_2_0_2,NA,NA,timeout,4996.2,1006251.5,1006249.056,1006266.4,1011245.9,1011246.2,2024-02-27T17:07:47Z,1011262.6,NULL,Sympathie,mapendano,d,NA,NA,NA,NA,sdfdsf,0,1,NA,NA,NA,NA,NA,NA,NA,NA,NA,NA,NA,NA,NA,NA,NA,NA,NA,NA,NA
9972d,deep,flow.Sequence,3_0_1_0_2_0,NA,NA,completion,13442,997787.80000007,997787.1,997803.9,1011245.9,1011246.3000001,2024-02-27T17:07:47Z,1011262.6,NULL,Sympathie,mapendano,d,NA,NA,NA,NA,sdfdsf,NA,1,NA,NA,NA,NA,NA,NA,NA,NA,NA,NA,NA,NA,NA,NA,NA,NA,NA,NA,NA
9972d,shallow,flow.Sequence,3_0_1_0_2_1,NA,NA,skipped,NA,1011246.4000001,NA,NA,1011245.9,1011246.4000001,2024-02-27T17:07:47Z,1011262.6,NULL,Sympathie,mapendano,d,NA,NA,NA,NA,sdfdsf,NA,1,NA,NA,NA,NA,NA,NA,NA,NA,NA,NA,NA,NA,NA,NA,NA,NA,NA,NA,NA
9972d,task,flow.Sequence,3_0_1_0_2,NA,NA,completion,13442,997787.70000005,997787.1,997803.9,1011245.9,1011246.4000001,2024-02-27T17:07:47Z,1011262.6,NULL,Sympathie,mapendano,d,NA,NA,NA,NA,sdfdsf,NA,1,NA,NA,NA,NA,NA,NA,NA,NA,NA,NA,NA,NA,NA,NA,NA,NA,NA,NA,NA
9972d,deep,flow.Sequence,3_0_1_0_3_0,NA,NA,skipped,NA,1011246.6,NA,NA,1011245.9,1011246.6,2024-02-27T17:07:47Z,1011262.6,NULL,Inhalt,yaliyomo,s,kishawishi,hifadhi,kutembea,NA,sdfdsf,NA,1,NA,NA,NA,NA,NA,NA,NA,NA,NA,NA,NA,NA,NA,NA,NA,NA,NA,NA,NA
9972d,Shallow Question,html.Page,3_0_1_0_3_1_0,NA,NA,form submission,9639.2000000715,1011246.7,1011245.9,1011262.6,1020901.8000001,1020902,2024-02-27T17:07:57Z,1020906.3,NULL,Inhalt,yaliyomo,s,kishawishi,hifadhi,kutembea,yaliyomo,NA,NA,1,NA,NA,NA,NA,NA,NA,NA,NA,NA,NA,NA,NA,NA,NA,NA,NA,NA,NA,NA
9972d,"""Richtig""-Screen",canvas.Screen,3_0_1_0_3_1_1,NA,NA,timeout,4996.8999999999,1020903.6,1020889.99,1020906.3,1025887,1025887.6,2024-02-27T17:08:02Z,1025903.2,NULL,Inhalt,yaliyomo,s,kishawishi,hifadhi,kutembea,NA,sdfdsf,1,1,NA,NA,NA,NA,NA,NA,NA,NA,NA,NA,NA,NA,NA,NA,NA,NA,NA,NA,NA
9972d,"""Falsch""-Screen",canvas.Screen,3_0_1_0_3_1_2,NA,NA,skipped,NA,1025891.7,NA,NA,1025887,1025891.9000001,2024-02-27T17:08:02Z,1025903.2,NULL,Inhalt,yaliyomo,s,kishawishi,hifadhi,kutembea,NA,sdfdsf,NA,1,NA,NA,NA,NA,NA,NA,NA,NA,NA,NA,NA,NA,NA,NA,NA,NA,NA,NA,NA
9972d,shallow,flow.Sequence,3_0_1_0_3_1,NA,NA,completion,14624.4,1011246.7,1011245.9,1011262.6,1025887,1025892.1,2024-02-27T17:08:02Z,1025903.2,NULL,Inhalt,yaliyomo,s,kishawishi,hifadhi,kutembea,NA,sdfdsf,NA,1,NA,NA,NA,NA,NA,NA,NA,NA,NA,NA,NA,NA,NA,NA,NA,NA,NA,NA,NA
9972d,task,flow.Sequence,3_0_1_0_3,NA,NA,completion,14624.4,1011246.5,1011245.9,1011262.6,1025887,1025892.3000001,2024-02-27T17:08:02Z,1025903.2,NULL,Inhalt,yaliyomo,s,kishawishi,hifadhi,kutembea,NA,sdfdsf,NA,1,NA,NA,NA,NA,NA,NA,NA,NA,NA,NA,NA,NA,NA,NA,NA,NA,NA,NA,NA
9972d,Deep Question,html.Page,3_0_1_0_4_0_0,NA,NA,form submission,16098.8,1025892.5,1025887,1025903.2,1042002,1042002.2,2024-02-27T17:08:18Z,1042010.1,NULL,Toleranz,kuvumiliana,d,NA,NA,NA,hamami,NA,NA,1,NA,NA,NA,NA,NA,NA,NA,NA,NA,NA,NA,NA,NA,NA,NA,NA,NA,NA,NA
9972d,"""Richtig""-Screen",canvas.Screen,3_0_1_0_4_0_1,NA,NA,skipped,NA,1042003.7,NA,NA,1042002,1042003.8000001,2024-02-27T17:08:18Z,1042010.1,NULL,Toleranz,kuvumiliana,d,NA,NA,NA,NA,sdfdsf,NA,1,NA,NA,NA,NA,NA,NA,NA,NA,NA,NA,NA,NA,NA,NA,NA,NA,NA,NA,NA
9972d,"""Falsch""-Screen",canvas.Screen,3_0_1_0_4_0_2,NA,NA,timeout,4996.9,1042004.3000001,1041993.6,1042010.1,1046990.7,1046992.2,2024-02-27T17:08:23Z,1047007,NULL,Toleranz,kuvumiliana,d,NA,NA,NA,NA,sdfdsf,0,1,NA,NA,NA,NA,NA,NA,NA,NA,NA,NA,NA,NA,NA,NA,NA,NA,NA,NA,NA
9972d,deep,flow.Sequence,3_0_1_0_4_0,NA,NA,completion,21087.5,1025892.5,1025887,1025903.2,1046990.7,1046992.8000001,2024-02-27T17:08:23Z,1047007,NULL,Toleranz,kuvumiliana,d,NA,NA,NA,NA,sdfdsf,NA,1,NA,NA,NA,NA,NA,NA,NA,NA,NA,NA,NA,NA,NA,NA,NA,NA,NA,NA,NA
9972d,shallow,flow.Sequence,3_0_1_0_4_1,NA,NA,skipped,NA,1046993.1,NA,NA,1046990.7,1046993.2,2024-02-27T17:08:23Z,1047007,NULL,Toleranz,kuvumiliana,d,NA,NA,NA,NA,sdfdsf,NA,1,NA,NA,NA,NA,NA,NA,NA,NA,NA,NA,NA,NA,NA,NA,NA,NA,NA,NA,NA
9972d,task,flow.Sequence,3_0_1_0_4,NA,NA,completion,21087.5,1025892.4000001,1025887,1025903.2,1046990.7,1046993.5,2024-02-27T17:08:23Z,1047007,NULL,Toleranz,kuvumiliana,d,NA,NA,NA,NA,sdfdsf,NA,1,NA,NA,NA,NA,NA,NA,NA,NA,NA,NA,NA,NA,NA,NA,NA,NA,NA,NA,NA
9972d,deep,flow.Sequence,3_0_1_0_5_0,NA,NA,skipped,NA,1046993.8000001,NA,NA,1046990.7,1046994,2024-02-27T17:08:23Z,1047007,NULL,Polizist,msongora,s,simanzi,mandhari,nidhamu,NA,sdfdsf,NA,1,NA,NA,NA,NA,NA,NA,NA,NA,NA,NA,NA,NA,NA,NA,NA,NA,NA,NA,NA
9972d,Shallow Question,html.Page,3_0_1_0_5_1_0,NA,NA,form submission,10737.100000024,1046994.1,1046990.7,1047007,1057744.1,1057744.2,2024-02-27T17:08:34Z,1057750.4,NULL,Polizist,msongora,s,simanzi,mandhari,nidhamu,msongora,NA,NA,1,NA,NA,NA,NA,NA,NA,NA,NA,NA,NA,NA,NA,NA,NA,NA,NA,NA,NA,NA
9972d,"""Richtig""-Screen",canvas.Screen,3_0_1_0_5_1_1,NA,NA,timeout,4997,1057746,1057734.526,1057750.4,1062730.9,1062731.2,2024-02-27T17:08:39Z,1062747.4,NULL,Polizist,msongora,s,simanzi,mandhari,nidhamu,NA,sdfdsf,1,1,NA,NA,NA,NA,NA,NA,NA,NA,NA,NA,NA,NA,NA,NA,NA,NA,NA,NA,NA
9972d,"""Falsch""-Screen",canvas.Screen,3_0_1_0_5_1_2,NA,NA,skipped,NA,1062732.8000001,NA,NA,1062730.9,1062732.9000001,2024-02-27T17:08:39Z,1062747.4,NULL,Polizist,msongora,s,simanzi,mandhari,nidhamu,NA,sdfdsf,NA,1,NA,NA,NA,NA,NA,NA,NA,NA,NA,NA,NA,NA,NA,NA,NA,NA,NA,NA,NA
9972d,shallow,flow.Sequence,3_0_1_0_5_1,NA,NA,completion,15723.9,1046994.1,1046990.7,1047007,1062730.9,1062733,2024-02-27T17:08:39Z,1062747.4,NULL,Polizist,msongora,s,simanzi,mandhari,nidhamu,NA,sdfdsf,NA,1,NA,NA,NA,NA,NA,NA,NA,NA,NA,NA,NA,NA,NA,NA,NA,NA,NA,NA,NA
9972d,task,flow.Sequence,3_0_1_0_5,NA,NA,completion,15723.9,1046993.7,1046990.7,1047007,1062730.9,1062733.1,2024-02-27T17:08:39Z,1062747.4,NULL,Polizist,msongora,s,simanzi,mandhari,nidhamu,NA,sdfdsf,NA,1,NA,NA,NA,NA,NA,NA,NA,NA,NA,NA,NA,NA,NA,NA,NA,NA,NA,NA,NA
9972d,Deep Question,html.Page,3_0_1_0_6_0_0,NA,NA,form submission,7878.6000000001,1062733.1,1062730.9,1062747.4,1070626,1070626.2,2024-02-27T17:08:47Z,1070643,NULL,Schlange,foleni,d,NA,NA,NA,vasili,NA,NA,1,NA,NA,NA,NA,NA,NA,NA,NA,NA,NA,NA,NA,NA,NA,NA,NA,NA,NA,NA
9972d,"""Richtig""-Screen",canvas.Screen,3_0_1_0_6_0_1,NA,NA,skipped,NA,1070627.8000001,NA,NA,1070626,1070627.9000001,2024-02-27T17:08:47Z,1070643,NULL,Schlange,foleni,d,NA,NA,NA,NA,sdfdsf,NA,1,NA,NA,NA,NA,NA,NA,NA,NA,NA,NA,NA,NA,NA,NA,NA,NA,NA,NA,NA
9972d,"""Falsch""-Screen",canvas.Screen,3_0_1_0_6_0_2,NA,NA,timeout,4996.8,1070628.4000001,1070626.618,1070643,1075623,1075623.8000001,2024-02-27T17:08:52Z,1075639.8,NULL,Schlange,foleni,d,NA,NA,NA,NA,sdfdsf,0,1,NA,NA,NA,NA,NA,NA,NA,NA,NA,NA,NA,NA,NA,NA,NA,NA,NA,NA,NA
9972d,deep,flow.Sequence,3_0_1_0_6_0,NA,NA,completion,12875.6,1062733.1,1062730.9,1062747.4,1075623,1075624.5,2024-02-27T17:08:52Z,1075639.8,NULL,Schlange,foleni,d,NA,NA,NA,NA,sdfdsf,NA,1,NA,NA,NA,NA,NA,NA,NA,NA,NA,NA,NA,NA,NA,NA,NA,NA,NA,NA,NA
9972d,shallow,flow.Sequence,3_0_1_0_6_1,NA,NA,skipped,NA,1075624.6,NA,NA,1075623,1075624.8000001,2024-02-27T17:08:52Z,1075639.8,NULL,Schlange,foleni,d,NA,NA,NA,NA,sdfdsf,NA,1,NA,NA,NA,NA,NA,NA,NA,NA,NA,NA,NA,NA,NA,NA,NA,NA,NA,NA,NA
9972d,task,flow.Sequence,3_0_1_0_6,NA,NA,completion,12875.6,1062733.1,1062730.9,1062747.4,1075623,1075625,2024-02-27T17:08:52Z,1075639.8,NULL,Schlange,foleni,d,NA,NA,NA,NA,sdfdsf,NA,1,NA,NA,NA,NA,NA,NA,NA,NA,NA,NA,NA,NA,NA,NA,NA,NA,NA,NA,NA
9972d,deep,flow.Sequence,3_0_1_0_7_0,NA,NA,skipped,NA,1075625.3000001,NA,NA,1075623,1075625.3000001,2024-02-27T17:08:52Z,1075639.8,NULL,Beweis,ushahidi,s,marudio,kizuizi,mtendaji,NA,sdfdsf,NA,1,NA,NA,NA,NA,NA,NA,NA,NA,NA,NA,NA,NA,NA,NA,NA,NA,NA,NA,NA
9972d,Shallow Question,html.Page,3_0_1_0_7_1_0,NA,NA,form submission,11084.7,1075625.5,1075623,1075639.8,1086724.5,1086724.8000001,2024-02-27T17:09:03Z,1086733.214,NULL,Beweis,ushahidi,s,marudio,kizuizi,mtendaji,ushahidi,NA,NA,1,NA,NA,NA,NA,NA,NA,NA,NA,NA,NA,NA,NA,NA,NA,NA,NA,NA,NA,NA
9972d,"""Richtig""-Screen",canvas.Screen,3_0_1_0_7_1_1,NA,NA,timeout,4996.986,1086728,1086733.214,1086733.214,1091713.1,1091713.6,2024-02-27T17:09:08Z,1091730.2,NULL,Beweis,ushahidi,s,marudio,kizuizi,mtendaji,NA,sdfdsf,1,1,NA,NA,NA,NA,NA,NA,NA,NA,NA,NA,NA,NA,NA,NA,NA,NA,NA,NA,NA
9972d,"""Falsch""-Screen",canvas.Screen,3_0_1_0_7_1_2,NA,NA,skipped,NA,1091716,NA,NA,1091713.1,1091716.1,2024-02-27T17:09:08Z,1091730.2,NULL,Beweis,ushahidi,s,marudio,kizuizi,mtendaji,NA,sdfdsf,NA,1,NA,NA,NA,NA,NA,NA,NA,NA,NA,NA,NA,NA,NA,NA,NA,NA,NA,NA,NA
9972d,shallow,flow.Sequence,3_0_1_0_7_1,NA,NA,completion,16073.3,1075625.5,1075623,1075639.8,1091713.1,1091716.1,2024-02-27T17:09:08Z,1091730.2,NULL,Beweis,ushahidi,s,marudio,kizuizi,mtendaji,NA,sdfdsf,NA,1,NA,NA,NA,NA,NA,NA,NA,NA,NA,NA,NA,NA,NA,NA,NA,NA,NA,NA,NA
9972d,task,flow.Sequence,3_0_1_0_7,NA,NA,completion,16073.3,1075625.2,1075623,1075639.8,1091713.1,1091716.2,2024-02-27T17:09:08Z,1091730.2,NULL,Beweis,ushahidi,s,marudio,kizuizi,mtendaji,NA,sdfdsf,NA,1,NA,NA,NA,NA,NA,NA,NA,NA,NA,NA,NA,NA,NA,NA,NA,NA,NA,NA,NA
9972d,block,flow.Loop,3_0_1_0,NA,NA,completion,119743.09,971979.10000002,971970.01,971970.01,1091713.1,1091716.3000001,2024-02-27T17:09:08Z,1091730.2,NULL,NA,NA,NA,NA,NA,NA,NA,sdfdsf,NA,1,NA,NA,NA,NA,NA,NA,NA,NA,NA,NA,NA,NA,NA,NA,NA,NA,NA,NA,NA
9972d,weiter,canvas.Screen,3_0_1_1,sdf,keypress(Space),response,3800.1000000716,1091716.3000001,1091713.1,1091730.2,1095530.3000001,1095531.3000001,2024-02-27T17:09:12Z,1095545.092,NULL,NA,NA,NA,NA,NA,NA,NA,sdfdsf,NA,1,NA,NA,NA,NA,NA,NA,NA,NA,NA,NA,NA,NA,NA,NA,NA,NA,NA,NA,NA
9972d,check continue,flow.Sequence,3_0_1,NA,NA,completion,123560.29000007,971979,971970.01,971970.01,1095530.3000001,1095531.7,2024-02-27T17:09:12Z,1095545.092,NULL,NA,NA,NA,NA,NA,NA,NA,sdfdsf,NA,1,NA,NA,NA,NA,NA,NA,NA,NA,NA,NA,NA,NA,NA,NA,NA,NA,NA,NA,NA
9972d,Deep Question,html.Page,3_0_2_0_0_0_0,NA,NA,form submission,9677.2080000716,1095553.9000001,1095545.092,1095545.092,1105222.3000001,1105222.5,2024-02-27T17:09:21Z,1105238.6,NULL,Toleranz,kuvumiliana,d,NA,NA,NA,mgani,NA,NA,2,NA,NA,NA,NA,NA,NA,NA,NA,NA,NA,NA,NA,NA,NA,NA,NA,NA,NA,NA
9972d,"""Richtig""-Screen",canvas.Screen,3_0_2_0_0_0_1,NA,NA,skipped,NA,1105224.8000001,NA,NA,1105222.3000001,1105224.9000001,2024-02-27T17:09:21Z,1105238.6,NULL,Toleranz,kuvumiliana,d,NA,NA,NA,NA,sdf,NA,2,NA,NA,NA,NA,NA,NA,NA,NA,NA,NA,NA,NA,NA,NA,NA,NA,NA,NA,NA
9972d,"""Falsch""-Screen",canvas.Screen,3_0_2_0_0_0_2,NA,NA,timeout,4996.5,1105225.4000001,1105223.294,1105238.6,1110218.3,1110219.3000001,2024-02-27T17:09:26Z,1110235.1,NULL,Toleranz,kuvumiliana,d,NA,NA,NA,NA,sdf,0,2,NA,NA,NA,NA,NA,NA,NA,NA,NA,NA,NA,NA,NA,NA,NA,NA,NA,NA,NA
9972d,deep,flow.Sequence,3_0_2_0_0_0,NA,NA,completion,14673.208,1095553.9000001,1095545.092,1095545.092,1110218.3,1110219.8000001,2024-02-27T17:09:26Z,1110235.1,NULL,Toleranz,kuvumiliana,d,NA,NA,NA,NA,sdf,NA,2,NA,NA,NA,NA,NA,NA,NA,NA,NA,NA,NA,NA,NA,NA,NA,NA,NA,NA,NA
9972d,shallow,flow.Sequence,3_0_2_0_0_1,NA,NA,skipped,NA,1110220,NA,NA,1110218.3,1110220.2,2024-02-27T17:09:26Z,1110235.1,NULL,Toleranz,kuvumiliana,d,NA,NA,NA,NA,sdf,NA,2,NA,NA,NA,NA,NA,NA,NA,NA,NA,NA,NA,NA,NA,NA,NA,NA,NA,NA,NA
9972d,task,flow.Sequence,3_0_2_0_0,NA,NA,completion,14673.208,1095553.9000001,1095545.092,1095545.092,1110218.3,1110220.4000001,2024-02-27T17:09:26Z,1110235.1,NULL,Toleranz,kuvumiliana,d,NA,NA,NA,NA,sdf,NA,2,NA,NA,NA,NA,NA,NA,NA,NA,NA,NA,NA,NA,NA,NA,NA,NA,NA,NA,NA
9972d,deep,flow.Sequence,3_0_2_0_1_0,NA,NA,skipped,NA,1110220.5,NA,NA,1110218.3,1110220.7,2024-02-27T17:09:26Z,1110235.1,NULL,Inhalt,yaliyomo,s,kishawishi,hifadhi,kutembea,NA,sdf,NA,2,NA,NA,NA,NA,NA,NA,NA,NA,NA,NA,NA,NA,NA,NA,NA,NA,NA,NA,NA
9972d,Shallow Question,html.Page,3_0_2_0_1_1_0,NA,NA,form submission,7131.0000000237,1110220.8000001,1110218.3,1110235.1,1117366.1,1117366.3000001,2024-02-27T17:09:33Z,1117381.2,NULL,Inhalt,yaliyomo,s,kishawishi,hifadhi,kutembea,yaliyomo,NA,NA,2,NA,NA,NA,NA,NA,NA,NA,NA,NA,NA,NA,NA,NA,NA,NA,NA,NA,NA,NA
9972d,"""Richtig""-Screen",canvas.Screen,3_0_2_0_1_1_1,NA,NA,timeout,4996.4000000001,1117367.7,1117365.246,1117381.2,1122360.9,1122361.6,2024-02-27T17:09:38Z,1122377.6,NULL,Inhalt,yaliyomo,s,kishawishi,hifadhi,kutembea,NA,sdf,1,2,NA,NA,NA,NA,NA,NA,NA,NA,NA,NA,NA,NA,NA,NA,NA,NA,NA,NA,NA
9972d,"""Falsch""-Screen",canvas.Screen,3_0_2_0_1_1_2,NA,NA,skipped,NA,1122363.1,NA,NA,1122360.9,1122363.2,2024-02-27T17:09:38Z,1122377.6,NULL,Inhalt,yaliyomo,s,kishawishi,hifadhi,kutembea,NA,sdf,NA,2,NA,NA,NA,NA,NA,NA,NA,NA,NA,NA,NA,NA,NA,NA,NA,NA,NA,NA,NA
9972d,shallow,flow.Sequence,3_0_2_0_1_1,NA,NA,completion,12125.8,1110220.7,1110218.3,1110235.1,1122360.9,1122363.3000001,2024-02-27T17:09:38Z,1122377.6,NULL,Inhalt,yaliyomo,s,kishawishi,hifadhi,kutembea,NA,sdf,NA,2,NA,NA,NA,NA,NA,NA,NA,NA,NA,NA,NA,NA,NA,NA,NA,NA,NA,NA,NA
9972d,task,flow.Sequence,3_0_2_0_1,NA,NA,completion,12125.8,1110220.5,1110218.3,1110235.1,1122360.9,1122363.4000001,2024-02-27T17:09:38Z,1122377.6,NULL,Inhalt,yaliyomo,s,kishawishi,hifadhi,kutembea,NA,sdf,NA,2,NA,NA,NA,NA,NA,NA,NA,NA,NA,NA,NA,NA,NA,NA,NA,NA,NA,NA,NA
9972d,deep,flow.Sequence,3_0_2_0_2_0,NA,NA,skipped,NA,1122363.5,NA,NA,1122360.9,1122363.5,2024-02-27T17:09:38Z,1122377.6,NULL,Vermutung,udhanifu,s,haramia,tikisho,itifaki,NA,sdf,NA,2,NA,NA,NA,NA,NA,NA,NA,NA,NA,NA,NA,NA,NA,NA,NA,NA,NA,NA,NA
9972d,Shallow Question,html.Page,3_0_2_0_2_1_0,NA,NA,form submission,13906.600000048,1122363.6,1122360.9,1122377.6,1136284.2,1136284.3000001,2024-02-27T17:09:52Z,1136286.566,NULL,Vermutung,udhanifu,s,haramia,tikisho,itifaki,udhanifu,NA,NA,2,NA,NA,NA,NA,NA,NA,NA,NA,NA,NA,NA,NA,NA,NA,NA,NA,NA,NA,NA
9972d,"""Richtig""-Screen",canvas.Screen,3_0_2_0_2_1_1,NA,NA,timeout,4996.3339999998,1136285.8000001,1136286.566,1136286.566,1141266.4,1141267.7,2024-02-27T17:09:57Z,1141282.9,NULL,Vermutung,udhanifu,s,haramia,tikisho,itifaki,NA,sdf,1,2,NA,NA,NA,NA,NA,NA,NA,NA,NA,NA,NA,NA,NA,NA,NA,NA,NA,NA,NA
9972d,"""Falsch""-Screen",canvas.Screen,3_0_2_0_2_1_2,NA,NA,skipped,NA,1141273,NA,NA,1141266.4,1141273,2024-02-27T17:09:57Z,1141282.9,NULL,Vermutung,udhanifu,s,haramia,tikisho,itifaki,NA,sdf,NA,2,NA,NA,NA,NA,NA,NA,NA,NA,NA,NA,NA,NA,NA,NA,NA,NA,NA,NA,NA
9972d,shallow,flow.Sequence,3_0_2_0_2_1,NA,NA,completion,18888.8,1122363.6,1122360.9,1122377.6,1141266.4,1141273.1,2024-02-27T17:09:57Z,1141282.9,NULL,Vermutung,udhanifu,s,haramia,tikisho,itifaki,NA,sdf,NA,2,NA,NA,NA,NA,NA,NA,NA,NA,NA,NA,NA,NA,NA,NA,NA,NA,NA,NA,NA
9972d,task,flow.Sequence,3_0_2_0_2,NA,NA,completion,18888.8,1122363.4000001,1122360.9,1122377.6,1141266.4,1141273.2,2024-02-27T17:09:57Z,1141282.9,NULL,Vermutung,udhanifu,s,haramia,tikisho,itifaki,NA,sdf,NA,2,NA,NA,NA,NA,NA,NA,NA,NA,NA,NA,NA,NA,NA,NA,NA,NA,NA,NA,NA
9972d,Deep Question,html.Page,3_0_2_0_3_0_0,NA,NA,form submission,16048.000000095,1141273.3000001,1141266.4,1141282.9,1157330.9000001,1157331.2,2024-02-27T17:10:13Z,1157339.5,NULL,Schlange,foleni,d,NA,NA,NA,adfeni,NA,NA,2,NA,NA,NA,NA,NA,NA,NA,NA,NA,NA,NA,NA,NA,NA,NA,NA,NA,NA,NA
9972d,"""Richtig""-Screen",canvas.Screen,3_0_2_0_3_0_1,NA,NA,skipped,NA,1157334.4000001,NA,NA,1157330.9000001,1157334.6,2024-02-27T17:10:13Z,1157339.5,NULL,Schlange,foleni,d,NA,NA,NA,NA,sdf,NA,2,NA,NA,NA,NA,NA,NA,NA,NA,NA,NA,NA,NA,NA,NA,NA,NA,NA,NA,NA
9972d,"""Falsch""-Screen",canvas.Screen,3_0_2_0_3_0_2,NA,NA,timeout,4997,1157335.4000001,1157323.704,1157339.5,1162320.1,1162320.7,2024-02-27T17:10:18Z,1162336.5,NULL,Schlange,foleni,d,NA,NA,NA,NA,sdf,0,2,NA,NA,NA,NA,NA,NA,NA,NA,NA,NA,NA,NA,NA,NA,NA,NA,NA,NA,NA
9972d,deep,flow.Sequence,3_0_2_0_3_0,NA,NA,completion,21037.2,1141273.3000001,1141266.4,1141282.9,1162320.1,1162320.9000001,2024-02-27T17:10:18Z,1162336.5,NULL,Schlange,foleni,d,NA,NA,NA,NA,sdf,NA,2,NA,NA,NA,NA,NA,NA,NA,NA,NA,NA,NA,NA,NA,NA,NA,NA,NA,NA,NA
9972d,shallow,flow.Sequence,3_0_2_0_3_1,NA,NA,skipped,NA,1162320.9000001,NA,NA,1162320.1,1162321,2024-02-27T17:10:18Z,1162336.5,NULL,Schlange,foleni,d,NA,NA,NA,NA,sdf,NA,2,NA,NA,NA,NA,NA,NA,NA,NA,NA,NA,NA,NA,NA,NA,NA,NA,NA,NA,NA
9972d,task,flow.Sequence,3_0_2_0_3,NA,NA,completion,21037.2,1141273.3000001,1141266.4,1141282.9,1162320.1,1162321,2024-02-27T17:10:18Z,1162336.5,NULL,Schlange,foleni,d,NA,NA,NA,NA,sdf,NA,2,NA,NA,NA,NA,NA,NA,NA,NA,NA,NA,NA,NA,NA,NA,NA,NA,NA,NA,NA
9972d,Deep Question,html.Page,3_0_2_0_4_0_0,NA,NA,form submission,12080.400000095,1162321.1,1162320.1,1162336.5,1174416.9000001,1174417.1,2024-02-27T17:10:31Z,1174429.1,NULL,Sympathie,mapendano,d,NA,NA,NA,mavasili,NA,NA,2,NA,NA,NA,NA,NA,NA,NA,NA,NA,NA,NA,NA,NA,NA,NA,NA,NA,NA,NA
9972d,"""Richtig""-Screen",canvas.Screen,3_0_2_0_4_0_1,NA,NA,skipped,NA,1174421.1,NA,NA,1174416.9000001,1174421.1,2024-02-27T17:10:31Z,1174429.1,NULL,Sympathie,mapendano,d,NA,NA,NA,NA,sdf,NA,2,NA,NA,NA,NA,NA,NA,NA,NA,NA,NA,NA,NA,NA,NA,NA,NA,NA,NA,NA
9972d,"""Falsch""-Screen",canvas.Screen,3_0_2_0_4_0_2,NA,NA,timeout,4997,1174421.6,1174414.262,1174429.1,1179409.4,1179410.2,2024-02-27T17:10:36Z,1179426.1,NULL,Sympathie,mapendano,d,NA,NA,NA,NA,sdf,0,2,NA,NA,NA,NA,NA,NA,NA,NA,NA,NA,NA,NA,NA,NA,NA,NA,NA,NA,NA
9972d,deep,flow.Sequence,3_0_2_0_4_0,NA,NA,completion,17072.9,1162321.1,1162320.1,1162336.5,1179409.4,1179410.6,2024-02-27T17:10:36Z,1179426.1,NULL,Sympathie,mapendano,d,NA,NA,NA,NA,sdf,NA,2,NA,NA,NA,NA,NA,NA,NA,NA,NA,NA,NA,NA,NA,NA,NA,NA,NA,NA,NA
9972d,shallow,flow.Sequence,3_0_2_0_4_1,NA,NA,skipped,NA,1179410.7,NA,NA,1179409.4,1179410.9000001,2024-02-27T17:10:36Z,1179426.1,NULL,Sympathie,mapendano,d,NA,NA,NA,NA,sdf,NA,2,NA,NA,NA,NA,NA,NA,NA,NA,NA,NA,NA,NA,NA,NA,NA,NA,NA,NA,NA
9972d,task,flow.Sequence,3_0_2_0_4,NA,NA,completion,17072.9,1162321.1,1162320.1,1162336.5,1179409.4,1179411,2024-02-27T17:10:36Z,1179426.1,NULL,Sympathie,mapendano,d,NA,NA,NA,NA,sdf,NA,2,NA,NA,NA,NA,NA,NA,NA,NA,NA,NA,NA,NA,NA,NA,NA,NA,NA,NA,NA
9972d,deep,flow.Sequence,3_0_2_0_5_0,NA,NA,skipped,NA,1179411.2,NA,NA,1179409.4,1179411.4000001,2024-02-27T17:10:36Z,1179426.1,NULL,Beweis,ushahidi,s,marudio,kizuizi,mtendaji,NA,sdf,NA,2,NA,NA,NA,NA,NA,NA,NA,NA,NA,NA,NA,NA,NA,NA,NA,NA,NA,NA,NA
9972d,Shallow Question,html.Page,3_0_2_0_5_1_0,NA,NA,form submission,10178.600000048,1179411.5,1179409.4,1179426.1,1189604.7,1189604.9000001,2024-02-27T17:10:46Z,1189619.7,NULL,Beweis,ushahidi,s,marudio,kizuizi,mtendaji,ushahidi,NA,NA,2,NA,NA,NA,NA,NA,NA,NA,NA,NA,NA,NA,NA,NA,NA,NA,NA,NA,NA,NA
9972d,"""Richtig""-Screen",canvas.Screen,3_0_2_0_5_1_1,NA,NA,timeout,4997.1000000001,1189608.1,1189603.688,1189619.7,1194600.6,1194601.7,2024-02-27T17:10:51Z,1194616.8,NULL,Beweis,ushahidi,s,marudio,kizuizi,mtendaji,NA,sdf,1,2,NA,NA,NA,NA,NA,NA,NA,NA,NA,NA,NA,NA,NA,NA,NA,NA,NA,NA,NA
9972d,"""Falsch""-Screen",canvas.Screen,3_0_2_0_5_1_2,NA,NA,skipped,NA,1194607.7,NA,NA,1194600.6,1194607.9000001,2024-02-27T17:10:51Z,1194616.8,NULL,Beweis,ushahidi,s,marudio,kizuizi,mtendaji,NA,sdf,NA,2,NA,NA,NA,NA,NA,NA,NA,NA,NA,NA,NA,NA,NA,NA,NA,NA,NA,NA,NA
9972d,shallow,flow.Sequence,3_0_2_0_5_1,NA,NA,completion,15174.5,1179411.4000001,1179409.4,1179426.1,1194600.6,1194608.2,2024-02-27T17:10:51Z,1194616.8,NULL,Beweis,ushahidi,s,marudio,kizuizi,mtendaji,NA,sdf,NA,2,NA,NA,NA,NA,NA,NA,NA,NA,NA,NA,NA,NA,NA,NA,NA,NA,NA,NA,NA
9972d,task,flow.Sequence,3_0_2_0_5,NA,NA,completion,15174.5,1179411.2,1179409.4,1179426.1,1194600.6,1194608.5,2024-02-27T17:10:51Z,1194616.8,NULL,Beweis,ushahidi,s,marudio,kizuizi,mtendaji,NA,sdf,NA,2,NA,NA,NA,NA,NA,NA,NA,NA,NA,NA,NA,NA,NA,NA,NA,NA,NA,NA,NA
9972d,deep,flow.Sequence,3_0_2_0_6_0,NA,NA,skipped,NA,1194608.7,NA,NA,1194600.6,1194608.9000001,2024-02-27T17:10:51Z,1194616.8,NULL,Polizist,msongora,s,simanzi,mandhari,nidhamu,NA,sdf,NA,2,NA,NA,NA,NA,NA,NA,NA,NA,NA,NA,NA,NA,NA,NA,NA,NA,NA,NA,NA
9972d,Shallow Question,html.Page,3_0_2_0_6_1_0,NA,NA,form submission,10693.300000024,1194609.1,1194600.6,1194616.8,1205310.1,1205310.2,2024-02-27T17:11:01Z,1205327.3,NULL,Polizist,msongora,s,simanzi,mandhari,nidhamu,msongora,NA,NA,2,NA,NA,NA,NA,NA,NA,NA,NA,NA,NA,NA,NA,NA,NA,NA,NA,NA,NA,NA
9972d,"""Richtig""-Screen",canvas.Screen,3_0_2_0_6_1_1,NA,NA,timeout,4996.8,1205311.9000001,1205311.994,1205327.3,1210307.6,1210308,2024-02-27T17:11:06Z,1210324.1,NULL,Polizist,msongora,s,simanzi,mandhari,nidhamu,NA,sdf,1,2,NA,NA,NA,NA,NA,NA,NA,NA,NA,NA,NA,NA,NA,NA,NA,NA,NA,NA,NA
9972d,"""Falsch""-Screen",canvas.Screen,3_0_2_0_6_1_2,NA,NA,skipped,NA,1210310.2,NA,NA,1210307.6,1210310.4000001,2024-02-27T17:11:06Z,1210324.1,NULL,Polizist,msongora,s,simanzi,mandhari,nidhamu,NA,sdf,NA,2,NA,NA,NA,NA,NA,NA,NA,NA,NA,NA,NA,NA,NA,NA,NA,NA,NA,NA,NA
9972d,shallow,flow.Sequence,3_0_2_0_6_1,NA,NA,completion,15690.8,1194608.9000001,1194600.6,1194616.8,1210307.6,1210310.5,2024-02-27T17:11:06Z,1210324.1,NULL,Polizist,msongora,s,simanzi,mandhari,nidhamu,NA,sdf,NA,2,NA,NA,NA,NA,NA,NA,NA,NA,NA,NA,NA,NA,NA,NA,NA,NA,NA,NA,NA
9972d,task,flow.Sequence,3_0_2_0_6,NA,NA,completion,15690.8,1194608.7,1194600.6,1194616.8,1210307.6,1210310.7,2024-02-27T17:11:06Z,1210324.1,NULL,Polizist,msongora,s,simanzi,mandhari,nidhamu,NA,sdf,NA,2,NA,NA,NA,NA,NA,NA,NA,NA,NA,NA,NA,NA,NA,NA,NA,NA,NA,NA,NA
9972d,Deep Question,html.Page,3_0_2_0_7_0_0,NA,NA,form submission,7599.0000000237,1210310.8000001,1210307.6,1210324.1,1217923.1,1217923.3000001,2024-02-27T17:11:14Z,1217936.2,NULL,Annäherung,maegesho,d,NA,NA,NA,vasili,NA,NA,2,NA,NA,NA,NA,NA,NA,NA,NA,NA,NA,NA,NA,NA,NA,NA,NA,NA,NA,NA
9972d,"""Richtig""-Screen",canvas.Screen,3_0_2_0_7_0_1,NA,NA,skipped,NA,1217925.3000001,NA,NA,1217923.1,1217925.3000001,2024-02-27T17:11:14Z,1217936.2,NULL,Annäherung,maegesho,d,NA,NA,NA,NA,sdf,NA,2,NA,NA,NA,NA,NA,NA,NA,NA,NA,NA,NA,NA,NA,NA,NA,NA,NA,NA,NA
9972d,"""Falsch""-Screen",canvas.Screen,3_0_2_0_7_0_2,NA,NA,timeout,4996.5,1217925.8000001,1217919.78,1217936.2,1222916,1222916.3000001,2024-02-27T17:11:19Z,1222932.7,NULL,Annäherung,maegesho,d,NA,NA,NA,NA,sdf,0,2,NA,NA,NA,NA,NA,NA,NA,NA,NA,NA,NA,NA,NA,NA,NA,NA,NA,NA,NA
9972d,deep,flow.Sequence,3_0_2_0_7_0,NA,NA,completion,12591.9,1210310.8000001,1210307.6,1210324.1,1222916,1222916.5,2024-02-27T17:11:19Z,1222932.7,NULL,Annäherung,maegesho,d,NA,NA,NA,NA,sdf,NA,2,NA,NA,NA,NA,NA,NA,NA,NA,NA,NA,NA,NA,NA,NA,NA,NA,NA,NA,NA
9972d,shallow,flow.Sequence,3_0_2_0_7_1,NA,NA,skipped,NA,1222916.5,NA,NA,1222916,1222916.5,2024-02-27T17:11:19Z,1222932.7,NULL,Annäherung,maegesho,d,NA,NA,NA,NA,sdf,NA,2,NA,NA,NA,NA,NA,NA,NA,NA,NA,NA,NA,NA,NA,NA,NA,NA,NA,NA,NA
9972d,task,flow.Sequence,3_0_2_0_7,NA,NA,completion,12591.9,1210310.7,1210307.6,1210324.1,1222916,1222916.6,2024-02-27T17:11:19Z,1222932.7,NULL,Annäherung,maegesho,d,NA,NA,NA,NA,sdf,NA,2,NA,NA,NA,NA,NA,NA,NA,NA,NA,NA,NA,NA,NA,NA,NA,NA,NA,NA,NA
9972d,block,flow.Loop,3_0_2_0,NA,NA,completion,127370.908,1095553.9000001,1095545.092,1095545.092,1222916,1222916.7,2024-02-27T17:11:19Z,1222932.7,NULL,NA,NA,NA,NA,NA,NA,NA,sdf,NA,2,NA,NA,NA,NA,NA,NA,NA,NA,NA,NA,NA,NA,NA,NA,NA,NA,NA,NA,NA
9972d,weiter,canvas.Screen,3_0_2_1,sdf,keypress(Space),response,91769.100000072,1222916.7,1222916,1222932.7,1314701.8000001,1314702.7,2024-02-27T17:12:51Z,1314726.562,NULL,NA,NA,NA,NA,NA,NA,NA,sdf,NA,2,NA,NA,NA,NA,NA,NA,NA,NA,NA,NA,NA,NA,NA,NA,NA,NA,NA,NA,NA
9972d,check continue,flow.Sequence,3_0_2,NA,NA,completion,219156.70800007,1095553.9000001,1095545.092,1095545.092,1314701.8000001,1314702.9000001,2024-02-27T17:12:51Z,1314726.562,NULL,NA,NA,NA,NA,NA,NA,NA,sdf,NA,2,NA,NA,NA,NA,NA,NA,NA,NA,NA,NA,NA,NA,NA,NA,NA,NA,NA,NA,NA
9972d,Deep Question,html.Page,3_0_3_0_0_0_0,NA,NA,form submission,20502.138000048,1314732.1,1314726.562,1314726.562,1335228.7,1335228.8000001,2024-02-27T17:13:11Z,1335230.696,NULL,Sympathie,mapendano,d,NA,NA,NA,vafeni,NA,NA,3,NA,NA,NA,NA,NA,NA,NA,NA,NA,NA,NA,NA,NA,NA,NA,NA,NA,NA,NA
9972d,"""Richtig""-Screen",canvas.Screen,3_0_3_0_0_0_1,NA,NA,skipped,NA,1335230.3000001,NA,NA,1335228.7,1335230.5,2024-02-27T17:13:11Z,1335230.696,NULL,Sympathie,mapendano,d,NA,NA,NA,NA,qt,NA,3,NA,NA,NA,NA,NA,NA,NA,NA,NA,NA,NA,NA,NA,NA,NA,NA,NA,NA,NA
9972d,"""Falsch""-Screen",canvas.Screen,3_0_3_0_0_0_2,NA,NA,timeout,4996.9040000001,1335231,1335230.696,1335230.696,1340211.5,1340212.4000001,2024-02-27T17:13:16Z,1340227.6,NULL,Sympathie,mapendano,d,NA,NA,NA,NA,qt,0,3,NA,NA,NA,NA,NA,NA,NA,NA,NA,NA,NA,NA,NA,NA,NA,NA,NA,NA,NA
9972d,deep,flow.Sequence,3_0_3_0_0_0,NA,NA,completion,25484.938,1314732.1,1314726.562,1314726.562,1340211.5,1340212.9000001,2024-02-27T17:13:16Z,1340227.6,NULL,Sympathie,mapendano,d,NA,NA,NA,NA,qt,NA,3,NA,NA,NA,NA,NA,NA,NA,NA,NA,NA,NA,NA,NA,NA,NA,NA,NA,NA,NA
9972d,shallow,flow.Sequence,3_0_3_0_0_1,NA,NA,skipped,NA,1340213.1,NA,NA,1340211.5,1340213.2,2024-02-27T17:13:16Z,1340227.6,NULL,Sympathie,mapendano,d,NA,NA,NA,NA,qt,NA,3,NA,NA,NA,NA,NA,NA,NA,NA,NA,NA,NA,NA,NA,NA,NA,NA,NA,NA,NA
9972d,task,flow.Sequence,3_0_3_0_0,NA,NA,completion,25484.938,1314732.1,1314726.562,1314726.562,1340211.5,1340213.6,2024-02-27T17:13:16Z,1340227.6,NULL,Sympathie,mapendano,d,NA,NA,NA,NA,qt,NA,3,NA,NA,NA,NA,NA,NA,NA,NA,NA,NA,NA,NA,NA,NA,NA,NA,NA,NA,NA
9972d,deep,flow.Sequence,3_0_3_0_1_0,NA,NA,skipped,NA,1340213.7,NA,NA,1340211.5,1340213.9000001,2024-02-27T17:13:16Z,1340227.6,NULL,Polizist,msongora,s,simanzi,mandhari,nidhamu,NA,qt,NA,3,NA,NA,NA,NA,NA,NA,NA,NA,NA,NA,NA,NA,NA,NA,NA,NA,NA,NA,NA
9972d,Shallow Question,html.Page,3_0_3_0_1_1_0,NA,NA,form submission,86444.600000048,1340214,1340211.5,1340227.6,1426672.2,1426672.5,2024-02-27T17:14:43Z,1426675.854,NULL,Polizist,msongora,s,simanzi,mandhari,nidhamu,msongora,NA,NA,3,NA,NA,NA,NA,NA,NA,NA,NA,NA,NA,NA,NA,NA,NA,NA,NA,NA,NA,NA
9972d,"""Richtig""-Screen",canvas.Screen,3_0_3_0_1_1_1,NA,NA,timeout,4995.746,1426675.9000001,1426675.854,1426675.854,1431655.4,1431655.8000001,2024-02-27T17:14:48Z,1431671.6,NULL,Polizist,msongora,s,simanzi,mandhari,nidhamu,NA,qt,1,3,NA,NA,NA,NA,NA,NA,NA,NA,NA,NA,NA,NA,NA,NA,NA,NA,NA,NA,NA
9972d,"""Falsch""-Screen",canvas.Screen,3_0_3_0_1_1_2,NA,NA,skipped,NA,1431657.2,NA,NA,1431655.4,1431657.3000001,2024-02-27T17:14:48Z,1431671.6,NULL,Polizist,msongora,s,simanzi,mandhari,nidhamu,NA,qt,NA,3,NA,NA,NA,NA,NA,NA,NA,NA,NA,NA,NA,NA,NA,NA,NA,NA,NA,NA,NA
9972d,shallow,flow.Sequence,3_0_3_0_1_1,NA,NA,completion,91427.8,1340214,1340211.5,1340227.6,1431655.4,1431657.3000001,2024-02-27T17:14:48Z,1431671.6,NULL,Polizist,msongora,s,simanzi,mandhari,nidhamu,NA,qt,NA,3,NA,NA,NA,NA,NA,NA,NA,NA,NA,NA,NA,NA,NA,NA,NA,NA,NA,NA,NA
9972d,task,flow.Sequence,3_0_3_0_1,NA,NA,completion,91427.8,1340213.7,1340211.5,1340227.6,1431655.4,1431657.4000001,2024-02-27T17:14:48Z,1431671.6,NULL,Polizist,msongora,s,simanzi,mandhari,nidhamu,NA,qt,NA,3,NA,NA,NA,NA,NA,NA,NA,NA,NA,NA,NA,NA,NA,NA,NA,NA,NA,NA,NA
9972d,Deep Question,html.Page,3_0_3_0_2_0_0,NA,NA,form submission,15156.000000024,1431657.4000001,1431655.4,1431671.6,1446827.6,1446827.6,2024-02-27T17:15:03Z,1446829.356,NULL,Annäherung,maegesho,d,NA,NA,NA,vafeni,NA,NA,3,NA,NA,NA,NA,NA,NA,NA,NA,NA,NA,NA,NA,NA,NA,NA,NA,NA,NA,NA
9972d,"""Richtig""-Screen",canvas.Screen,3_0_3_0_2_0_1,NA,NA,skipped,NA,1446829.4000001,NA,NA,1446827.6,1446829.4000001,2024-02-27T17:15:03Z,1446829.356,NULL,Annäherung,maegesho,d,NA,NA,NA,NA,qt,NA,3,NA,NA,NA,NA,NA,NA,NA,NA,NA,NA,NA,NA,NA,NA,NA,NA,NA,NA,NA
9972d,"""Falsch""-Screen",canvas.Screen,3_0_3_0_2_0_2,NA,NA,timeout,4996.844,1446829.9000001,1446829.356,1446829.356,1451809.8,1451810.8000001,2024-02-27T17:15:08Z,1451826.2,NULL,Annäherung,maegesho,d,NA,NA,NA,NA,qt,0,3,NA,NA,NA,NA,NA,NA,NA,NA,NA,NA,NA,NA,NA,NA,NA,NA,NA,NA,NA
9972d,deep,flow.Sequence,3_0_3_0_2_0,NA,NA,completion,20138.2,1431657.4000001,1431655.4,1431671.6,1451809.8,1451811.3000001,2024-02-27T17:15:08Z,1451826.2,NULL,Annäherung,maegesho,d,NA,NA,NA,NA,qt,NA,3,NA,NA,NA,NA,NA,NA,NA,NA,NA,NA,NA,NA,NA,NA,NA,NA,NA,NA,NA
9972d,shallow,flow.Sequence,3_0_3_0_2_1,NA,NA,skipped,NA,1451811.5,NA,NA,1451809.8,1451811.7,2024-02-27T17:15:08Z,1451826.2,NULL,Annäherung,maegesho,d,NA,NA,NA,NA,qt,NA,3,NA,NA,NA,NA,NA,NA,NA,NA,NA,NA,NA,NA,NA,NA,NA,NA,NA,NA,NA
9972d,task,flow.Sequence,3_0_3_0_2,NA,NA,completion,20138.2,1431657.4000001,1431655.4,1431671.6,1451809.8,1451811.9000001,2024-02-27T17:15:08Z,1451826.2,NULL,Annäherung,maegesho,d,NA,NA,NA,NA,qt,NA,3,NA,NA,NA,NA,NA,NA,NA,NA,NA,NA,NA,NA,NA,NA,NA,NA,NA,NA,NA
9972d,deep,flow.Sequence,3_0_3_0_3_0,NA,NA,skipped,NA,1451812.2,NA,NA,1451809.8,1451812.4000001,2024-02-27T17:15:08Z,1451826.2,NULL,Vermutung,udhanifu,s,haramia,tikisho,itifaki,NA,qt,NA,3,NA,NA,NA,NA,NA,NA,NA,NA,NA,NA,NA,NA,NA,NA,NA,NA,NA,NA,NA
9972d,Shallow Question,html.Page,3_0_3_0_3_1_0,NA,NA,form submission,17789.700000095,1451812.6,1451809.8,1451826.2,1469615.9000001,1469616,2024-02-27T17:15:26Z,1469632.2,NULL,Vermutung,udhanifu,s,haramia,tikisho,itifaki,udhanifu,NA,NA,3,NA,NA,NA,NA,NA,NA,NA,NA,NA,NA,NA,NA,NA,NA,NA,NA,NA,NA,NA
9972d,"""Richtig""-Screen",canvas.Screen,3_0_3_0_3_1_1,NA,NA,timeout,4996.4000000001,1469619.2,1469616.164,1469632.2,1474612.1,1474613.5,2024-02-27T17:15:31Z,1474628.6,NULL,Vermutung,udhanifu,s,haramia,tikisho,itifaki,NA,qt,1,3,NA,NA,NA,NA,NA,NA,NA,NA,NA,NA,NA,NA,NA,NA,NA,NA,NA,NA,NA
9972d,"""Falsch""-Screen",canvas.Screen,3_0_3_0_3_1_2,NA,NA,skipped,NA,1474620.3000001,NA,NA,1474612.1,1474620.7,2024-02-27T17:15:31Z,1474628.6,NULL,Vermutung,udhanifu,s,haramia,tikisho,itifaki,NA,qt,NA,3,NA,NA,NA,NA,NA,NA,NA,NA,NA,NA,NA,NA,NA,NA,NA,NA,NA,NA,NA
9972d,shallow,flow.Sequence,3_0_3_0_3_1,NA,NA,completion,22785.9,1451812.5,1451809.8,1451826.2,1474612.1,1474621,2024-02-27T17:15:31Z,1474628.6,NULL,Vermutung,udhanifu,s,haramia,tikisho,itifaki,NA,qt,NA,3,NA,NA,NA,NA,NA,NA,NA,NA,NA,NA,NA,NA,NA,NA,NA,NA,NA,NA,NA
9972d,task,flow.Sequence,3_0_3_0_3,NA,NA,completion,22785.9,1451812.2,1451809.8,1451826.2,1474612.1,1474621.4000001,2024-02-27T17:15:31Z,1474628.6,NULL,Vermutung,udhanifu,s,haramia,tikisho,itifaki,NA,qt,NA,3,NA,NA,NA,NA,NA,NA,NA,NA,NA,NA,NA,NA,NA,NA,NA,NA,NA,NA,NA
9972d,Deep Question,html.Page,3_0_3_0_4_0_0,NA,NA,form submission,17629.200000071,1474621.7,1474612.1,1474628.6,1492257.8000001,1492257.9000001,2024-02-27T17:15:48Z,1492268.2,NULL,Toleranz,kuvumiliana,d,NA,NA,NA,mafeni,NA,NA,3,NA,NA,NA,NA,NA,NA,NA,NA,NA,NA,NA,NA,NA,NA,NA,NA,NA,NA,NA
9972d,"""Richtig""-Screen",canvas.Screen,3_0_3_0_4_0_1,NA,NA,skipped,NA,1492259.5,NA,NA,1492257.8000001,1492259.6,2024-02-27T17:15:48Z,1492268.2,NULL,Toleranz,kuvumiliana,d,NA,NA,NA,NA,qt,NA,3,NA,NA,NA,NA,NA,NA,NA,NA,NA,NA,NA,NA,NA,NA,NA,NA,NA,NA,NA
9972d,"""Falsch""-Screen",canvas.Screen,3_0_3_0_4_0_2,NA,NA,timeout,4996.7,1492259.9000001,1492252.662,1492268.2,1497248.7,1497249.6,2024-02-27T17:15:53Z,1497264.9,NULL,Toleranz,kuvumiliana,d,NA,NA,NA,NA,qt,0,3,NA,NA,NA,NA,NA,NA,NA,NA,NA,NA,NA,NA,NA,NA,NA,NA,NA,NA,NA
9972d,deep,flow.Sequence,3_0_3_0_4_0,NA,NA,completion,22620.1,1474621.6,1474612.1,1474628.6,1497248.7,1497250,2024-02-27T17:15:53Z,1497264.9,NULL,Toleranz,kuvumiliana,d,NA,NA,NA,NA,qt,NA,3,NA,NA,NA,NA,NA,NA,NA,NA,NA,NA,NA,NA,NA,NA,NA,NA,NA,NA,NA
9972d,shallow,flow.Sequence,3_0_3_0_4_1,NA,NA,skipped,NA,1497250.2,NA,NA,1497248.7,1497250.4000001,2024-02-27T17:15:53Z,1497264.9,NULL,Toleranz,kuvumiliana,d,NA,NA,NA,NA,qt,NA,3,NA,NA,NA,NA,NA,NA,NA,NA,NA,NA,NA,NA,NA,NA,NA,NA,NA,NA,NA
9972d,task,flow.Sequence,3_0_3_0_4,NA,NA,completion,22620.1,1474621.5,1474612.1,1474628.6,1497248.7,1497250.7,2024-02-27T17:15:53Z,1497264.9,NULL,Toleranz,kuvumiliana,d,NA,NA,NA,NA,qt,NA,3,NA,NA,NA,NA,NA,NA,NA,NA,NA,NA,NA,NA,NA,NA,NA,NA,NA,NA,NA
9972d,deep,flow.Sequence,3_0_3_0_5_0,NA,NA,skipped,NA,1497250.9000001,NA,NA,1497248.7,1497251,2024-02-27T17:15:53Z,1497264.9,NULL,Inhalt,yaliyomo,s,kishawishi,hifadhi,kutembea,NA,qt,NA,3,NA,NA,NA,NA,NA,NA,NA,NA,NA,NA,NA,NA,NA,NA,NA,NA,NA,NA,NA
9972d,Shallow Question,html.Page,3_0_3_0_5_1_0,NA,NA,form submission,14518.700000024,1497251.2,1497248.7,1497264.9,1511783.6,1511783.7,2024-02-27T17:16:08Z,1511789.694,NULL,Inhalt,yaliyomo,s,kishawishi,hifadhi,kutembea,yaliyomo,NA,NA,3,NA,NA,NA,NA,NA,NA,NA,NA,NA,NA,NA,NA,NA,NA,NA,NA,NA,NA,NA
9972d,"""Richtig""-Screen",canvas.Screen,3_0_3_0_5_1_1,NA,NA,timeout,4996.6060000001,1511786.6,1511789.694,1511789.694,1516769.5,1516770.1,2024-02-27T17:16:13Z,1516786.3,NULL,Inhalt,yaliyomo,s,kishawishi,hifadhi,kutembea,NA,qt,1,3,NA,NA,NA,NA,NA,NA,NA,NA,NA,NA,NA,NA,NA,NA,NA,NA,NA,NA,NA
9972d,"""Falsch""-Screen",canvas.Screen,3_0_3_0_5_1_2,NA,NA,skipped,NA,1516772.5,NA,NA,1516769.5,1516772.6,2024-02-27T17:16:13Z,1516786.3,NULL,Inhalt,yaliyomo,s,kishawishi,hifadhi,kutembea,NA,qt,NA,3,NA,NA,NA,NA,NA,NA,NA,NA,NA,NA,NA,NA,NA,NA,NA,NA,NA,NA,NA
9972d,shallow,flow.Sequence,3_0_3_0_5_1,NA,NA,completion,19504.6,1497251.1,1497248.7,1497264.9,1516769.5,1516772.7,2024-02-27T17:16:13Z,1516786.3,NULL,Inhalt,yaliyomo,s,kishawishi,hifadhi,kutembea,NA,qt,NA,3,NA,NA,NA,NA,NA,NA,NA,NA,NA,NA,NA,NA,NA,NA,NA,NA,NA,NA,NA
9972d,task,flow.Sequence,3_0_3_0_5,NA,NA,completion,19504.6,1497250.8000001,1497248.7,1497264.9,1516769.5,1516772.8000001,2024-02-27T17:16:13Z,1516786.3,NULL,Inhalt,yaliyomo,s,kishawishi,hifadhi,kutembea,NA,qt,NA,3,NA,NA,NA,NA,NA,NA,NA,NA,NA,NA,NA,NA,NA,NA,NA,NA,NA,NA,NA
9972d,deep,flow.Sequence,3_0_3_0_6_0,NA,NA,skipped,NA,1516772.9000001,NA,NA,1516769.5,1516772.9000001,2024-02-27T17:16:13Z,1516786.3,NULL,Beweis,ushahidi,s,marudio,kizuizi,mtendaji,NA,qt,NA,3,NA,NA,NA,NA,NA,NA,NA,NA,NA,NA,NA,NA,NA,NA,NA,NA,NA,NA,NA
9972d,Shallow Question,html.Page,3_0_3_0_6_1_0,NA,NA,form submission,20486.100000095,1516773.1,1516769.5,1516786.3,1537272.4000001,1537272.6,2024-02-27T17:16:33Z,1537273.886,NULL,Beweis,ushahidi,s,marudio,kizuizi,mtendaji,ushahidi,NA,NA,3,NA,NA,NA,NA,NA,NA,NA,NA,NA,NA,NA,NA,NA,NA,NA,NA,NA,NA,NA
9972d,"""Richtig""-Screen",canvas.Screen,3_0_3_0_6_1_1,NA,NA,timeout,4996.7140000002,1537276.1,1537273.886,1537273.886,1542254,1542255,2024-02-27T17:16:38Z,1542270.6,NULL,Beweis,ushahidi,s,marudio,kizuizi,mtendaji,NA,qt,1,3,NA,NA,NA,NA,NA,NA,NA,NA,NA,NA,NA,NA,NA,NA,NA,NA,NA,NA,NA
9972d,"""Falsch""-Screen",canvas.Screen,3_0_3_0_6_1_2,NA,NA,skipped,NA,1542260.5,NA,NA,1542254,1542260.6,2024-02-27T17:16:38Z,1542270.6,NULL,Beweis,ushahidi,s,marudio,kizuizi,mtendaji,NA,qt,NA,3,NA,NA,NA,NA,NA,NA,NA,NA,NA,NA,NA,NA,NA,NA,NA,NA,NA,NA,NA
9972d,shallow,flow.Sequence,3_0_3_0_6_1,NA,NA,completion,25467.7,1516773,1516769.5,1516786.3,1542254,1542260.9000001,2024-02-27T17:16:38Z,1542270.6,NULL,Beweis,ushahidi,s,marudio,kizuizi,mtendaji,NA,qt,NA,3,NA,NA,NA,NA,NA,NA,NA,NA,NA,NA,NA,NA,NA,NA,NA,NA,NA,NA,NA
9972d,task,flow.Sequence,3_0_3_0_6,NA,NA,completion,25467.7,1516772.9000001,1516769.5,1516786.3,1542254,1542261,2024-02-27T17:16:38Z,1542270.6,NULL,Beweis,ushahidi,s,marudio,kizuizi,mtendaji,NA,qt,NA,3,NA,NA,NA,NA,NA,NA,NA,NA,NA,NA,NA,NA,NA,NA,NA,NA,NA,NA,NA
9972d,Deep Question,html.Page,3_0_3_0_7_0_0,NA,NA,form submission,14142.600000048,1542261.3000001,1542254,1542270.6,1556413.2,1556413.3000001,2024-02-27T17:16:53Z,1556429,NULL,Schlange,foleni,d,NA,NA,NA,fe$aleni,NA,NA,3,NA,NA,NA,NA,NA,NA,NA,NA,NA,NA,NA,NA,NA,NA,NA,NA,NA,NA,NA
9972d,"""Richtig""-Screen",canvas.Screen,3_0_3_0_7_0_1,NA,NA,skipped,NA,1556414.9000001,NA,NA,1556413.2,1556414.9000001,2024-02-27T17:16:53Z,1556429,NULL,Schlange,foleni,d,NA,NA,NA,NA,qt,NA,3,NA,NA,NA,NA,NA,NA,NA,NA,NA,NA,NA,NA,NA,NA,NA,NA,NA,NA,NA
9972d,"""Falsch""-Screen",canvas.Screen,3_0_3_0_7_0_2,NA,NA,timeout,4996.7,1556415.3000001,1556415.392,1556429,1561408.9,1561409.4000001,2024-02-27T17:16:58Z,1561425.7,NULL,Schlange,foleni,d,NA,NA,NA,NA,qt,0,3,NA,NA,NA,NA,NA,NA,NA,NA,NA,NA,NA,NA,NA,NA,NA,NA,NA,NA,NA
9972d,deep,flow.Sequence,3_0_3_0_7_0,NA,NA,completion,19138.3,1542261.2,1542254,1542270.6,1561408.9,1561409.4000001,2024-02-27T17:16:58Z,1561425.7,NULL,Schlange,foleni,d,NA,NA,NA,NA,qt,NA,3,NA,NA,NA,NA,NA,NA,NA,NA,NA,NA,NA,NA,NA,NA,NA,NA,NA,NA,NA
9972d,shallow,flow.Sequence,3_0_3_0_7_1,NA,NA,skipped,NA,1561409.5,NA,NA,1561408.9,1561409.6,2024-02-27T17:16:58Z,1561425.7,NULL,Schlange,foleni,d,NA,NA,NA,NA,qt,NA,3,NA,NA,NA,NA,NA,NA,NA,NA,NA,NA,NA,NA,NA,NA,NA,NA,NA,NA,NA
9972d,task,flow.Sequence,3_0_3_0_7,NA,NA,completion,19138.3,1542261.1,1542254,1542270.6,1561408.9,1561409.6,2024-02-27T17:16:58Z,1561425.7,NULL,Schlange,foleni,d,NA,NA,NA,NA,qt,NA,3,NA,NA,NA,NA,NA,NA,NA,NA,NA,NA,NA,NA,NA,NA,NA,NA,NA,NA,NA
9972d,block,flow.Loop,3_0_3_0,NA,NA,completion,246682.338,1314732.1,1314726.562,1314726.562,1561408.9,1561409.6,2024-02-27T17:16:58Z,1561425.7,NULL,NA,NA,NA,NA,NA,NA,NA,qt,NA,3,NA,NA,NA,NA,NA,NA,NA,NA,NA,NA,NA,NA,NA,NA,NA,NA,NA,NA,NA
9972d,weiter,canvas.Screen,3_0_3_1,sdf,keypress(Space),response,161700.2000001,1561409.7,1561408.9,1561425.7,1723125.9000001,1723126.5,2024-02-27T17:19:39Z,1723159.8,NULL,NA,NA,NA,NA,NA,NA,NA,qt,NA,3,NA,NA,NA,NA,NA,NA,NA,NA,NA,NA,NA,NA,NA,NA,NA,NA,NA,NA,NA
9972d,check continue,flow.Sequence,3_0_3,NA,NA,completion,408399.3380001,1314732.1,1314726.562,1314726.562,1723125.9000001,1723126.6,2024-02-27T17:19:39Z,1723159.8,NULL,NA,NA,NA,NA,NA,NA,NA,qt,NA,3,NA,NA,NA,NA,NA,NA,NA,NA,NA,NA,NA,NA,NA,NA,NA,NA,NA,NA,NA
9972d,Deep Question,html.Page,3_0_4_0_0_0_0,NA,NA,form submission,24012.300000024,1723151.5,1723145.6,1723159.8,1747172.1,1747172.4000001,2024-02-27T17:20:03Z,1747178.5,NULL,Toleranz,kuvumiliana,d,NA,NA,NA,kuvum,NA,NA,4,NA,NA,NA,NA,NA,NA,NA,NA,NA,NA,NA,NA,NA,NA,NA,NA,NA,NA,NA
9972d,"""Richtig""-Screen",canvas.Screen,3_0_4_0_0_0_1,NA,NA,skipped,NA,1747175.9000001,NA,NA,1747172.1,1747176,2024-02-27T17:20:03Z,1747178.5,NULL,Toleranz,kuvumiliana,d,NA,NA,NA,NA,sd,NA,4,NA,NA,NA,NA,NA,NA,NA,NA,NA,NA,NA,NA,NA,NA,NA,NA,NA,NA,NA
9972d,"""Falsch""-Screen",canvas.Screen,3_0_4_0_0_0_2,NA,NA,timeout,4996.8999999999,1747176.4000001,1747162.12,1747178.5,1752158.8,1752159.3000001,2024-02-27T17:20:08Z,1752175.4,NULL,Toleranz,kuvumiliana,d,NA,NA,NA,NA,sd,0,4,NA,NA,NA,NA,NA,NA,NA,NA,NA,NA,NA,NA,NA,NA,NA,NA,NA,NA,NA
9972d,deep,flow.Sequence,3_0_4_0_0_0,NA,NA,completion,28999,1723151.5,1723145.6,1723159.8,1752158.8,1752159.4000001,2024-02-27T17:20:08Z,1752175.4,NULL,Toleranz,kuvumiliana,d,NA,NA,NA,NA,sd,NA,4,NA,NA,NA,NA,NA,NA,NA,NA,NA,NA,NA,NA,NA,NA,NA,NA,NA,NA,NA
9972d,shallow,flow.Sequence,3_0_4_0_0_1,NA,NA,skipped,NA,1752159.4000001,NA,NA,1752158.8,1752159.5,2024-02-27T17:20:08Z,1752175.4,NULL,Toleranz,kuvumiliana,d,NA,NA,NA,NA,sd,NA,4,NA,NA,NA,NA,NA,NA,NA,NA,NA,NA,NA,NA,NA,NA,NA,NA,NA,NA,NA
9972d,task,flow.Sequence,3_0_4_0_0,NA,NA,completion,28999,1723151.5,1723145.6,1723159.8,1752158.8,1752159.6,2024-02-27T17:20:08Z,1752175.4,NULL,Toleranz,kuvumiliana,d,NA,NA,NA,NA,sd,NA,4,NA,NA,NA,NA,NA,NA,NA,NA,NA,NA,NA,NA,NA,NA,NA,NA,NA,NA,NA
9972d,deep,flow.Sequence,3_0_4_0_1_0,NA,NA,skipped,NA,1752159.6,NA,NA,1752158.8,1752159.6,2024-02-27T17:20:08Z,1752175.4,NULL,Vermutung,udhanifu,s,haramia,tikisho,itifaki,NA,sd,NA,4,NA,NA,NA,NA,NA,NA,NA,NA,NA,NA,NA,NA,NA,NA,NA,NA,NA,NA,NA
9972d,Shallow Question,html.Page,3_0_4_0_1_1_0,NA,NA,form submission,50090.200000024,1752159.7,1752158.8,1752175.4,1802265.6,1802265.8000001,2024-02-27T17:20:58Z,1802278.2,NULL,Vermutung,udhanifu,s,haramia,tikisho,itifaki,udhanifu,NA,NA,4,NA,NA,NA,NA,NA,NA,NA,NA,NA,NA,NA,NA,NA,NA,NA,NA,NA,NA,NA
9972d,"""Richtig""-Screen",canvas.Screen,3_0_4_0_1_1_1,NA,NA,timeout,4997.3,1802269.2,1802263.17,1802278.2,1807258.5,1807259,2024-02-27T17:21:03Z,1807275.5,NULL,Vermutung,udhanifu,s,haramia,tikisho,itifaki,NA,sd,1,4,NA,NA,NA,NA,NA,NA,NA,NA,NA,NA,NA,NA,NA,NA,NA,NA,NA,NA,NA
9972d,"""Falsch""-Screen",canvas.Screen,3_0_4_0_1_1_2,NA,NA,skipped,NA,1807260.3000001,NA,NA,1807258.5,1807260.5,2024-02-27T17:21:03Z,1807275.5,NULL,Vermutung,udhanifu,s,haramia,tikisho,itifaki,NA,sd,NA,4,NA,NA,NA,NA,NA,NA,NA,NA,NA,NA,NA,NA,NA,NA,NA,NA,NA,NA,NA
9972d,shallow,flow.Sequence,3_0_4_0_1_1,NA,NA,completion,55083.1,1752159.7,1752158.8,1752175.4,1807258.5,1807260.5,2024-02-27T17:21:03Z,1807275.5,NULL,Vermutung,udhanifu,s,haramia,tikisho,itifaki,NA,sd,NA,4,NA,NA,NA,NA,NA,NA,NA,NA,NA,NA,NA,NA,NA,NA,NA,NA,NA,NA,NA
9972d,task,flow.Sequence,3_0_4_0_1,NA,NA,completion,55083.1,1752159.6,1752158.8,1752175.4,1807258.5,1807260.6,2024-02-27T17:21:03Z,1807275.5,NULL,Vermutung,udhanifu,s,haramia,tikisho,itifaki,NA,sd,NA,4,NA,NA,NA,NA,NA,NA,NA,NA,NA,NA,NA,NA,NA,NA,NA,NA,NA,NA,NA
9972d,Deep Question,html.Page,3_0_4_0_2_0_0,NA,NA,form submission,15138,1807260.7,1807258.5,1807275.5,1822413.5,1822413.7,2024-02-27T17:21:19Z,1822415.8,NULL,Sympathie,mapendano,d,NA,NA,NA,daro,NA,NA,4,NA,NA,NA,NA,NA,NA,NA,NA,NA,NA,NA,NA,NA,NA,NA,NA,NA,NA,NA
9972d,"""Richtig""-Screen",canvas.Screen,3_0_4_0_2_0_1,NA,NA,skipped,NA,1822415.3000001,NA,NA,1822413.5,1822415.3000001,2024-02-27T17:21:19Z,1822415.8,NULL,Sympathie,mapendano,d,NA,NA,NA,NA,sd,NA,4,NA,NA,NA,NA,NA,NA,NA,NA,NA,NA,NA,NA,NA,NA,NA,NA,NA,NA,NA
9972d,"""Falsch""-Screen",canvas.Screen,3_0_4_0_2_0_2,NA,NA,timeout,4997,1822415.9000001,1822400.472,1822415.8,1827396.5,1827397.5,2024-02-27T17:21:23Z,1827412.8,NULL,Sympathie,mapendano,d,NA,NA,NA,NA,sd,0,4,NA,NA,NA,NA,NA,NA,NA,NA,NA,NA,NA,NA,NA,NA,NA,NA,NA,NA,NA
9972d,deep,flow.Sequence,3_0_4_0_2_0,NA,NA,completion,20121,1807260.6,1807258.5,1807275.5,1827396.5,1827398,2024-02-27T17:21:23Z,1827412.8,NULL,Sympathie,mapendano,d,NA,NA,NA,NA,sd,NA,4,NA,NA,NA,NA,NA,NA,NA,NA,NA,NA,NA,NA,NA,NA,NA,NA,NA,NA,NA
9972d,shallow,flow.Sequence,3_0_4_0_2_1,NA,NA,skipped,NA,1827398.2,NA,NA,1827396.5,1827398.4000001,2024-02-27T17:21:23Z,1827412.8,NULL,Sympathie,mapendano,d,NA,NA,NA,NA,sd,NA,4,NA,NA,NA,NA,NA,NA,NA,NA,NA,NA,NA,NA,NA,NA,NA,NA,NA,NA,NA
9972d,task,flow.Sequence,3_0_4_0_2,NA,NA,completion,20121,1807260.6,1807258.5,1807275.5,1827396.5,1827398.6,2024-02-27T17:21:23Z,1827412.8,NULL,Sympathie,mapendano,d,NA,NA,NA,NA,sd,NA,4,NA,NA,NA,NA,NA,NA,NA,NA,NA,NA,NA,NA,NA,NA,NA,NA,NA,NA,NA
9972d,deep,flow.Sequence,3_0_4_0_3_0,NA,NA,skipped,NA,1827398.9000001,NA,NA,1827396.5,1827399,2024-02-27T17:21:23Z,1827412.8,NULL,Inhalt,yaliyomo,s,kishawishi,hifadhi,kutembea,NA,sd,NA,4,NA,NA,NA,NA,NA,NA,NA,NA,NA,NA,NA,NA,NA,NA,NA,NA,NA,NA,NA
9972d,Shallow Question,html.Page,3_0_4_0_3_1_0,NA,NA,form submission,18149.800000024,1827399.2,1827396.5,1827412.8,1845562.6,1845562.8000001,2024-02-27T17:21:42Z,1845568.3,NULL,Inhalt,yaliyomo,s,kishawishi,hifadhi,kutembea,yaliyomo,NA,NA,4,NA,NA,NA,NA,NA,NA,NA,NA,NA,NA,NA,NA,NA,NA,NA,NA,NA,NA,NA
9972d,"""Richtig""-Screen",canvas.Screen,3_0_4_0_3_1_1,NA,NA,timeout,4997.3,1845564.4000001,1845552.278,1845568.3,1850549.1,1850549.6,2024-02-27T17:21:47Z,1850565.6,NULL,Inhalt,yaliyomo,s,kishawishi,hifadhi,kutembea,NA,sd,1,4,NA,NA,NA,NA,NA,NA,NA,NA,NA,NA,NA,NA,NA,NA,NA,NA,NA,NA,NA
9972d,"""Falsch""-Screen",canvas.Screen,3_0_4_0_3_1_2,NA,NA,skipped,NA,1850551.2,NA,NA,1850549.1,1850551.3000001,2024-02-27T17:21:47Z,1850565.6,NULL,Inhalt,yaliyomo,s,kishawishi,hifadhi,kutembea,NA,sd,NA,4,NA,NA,NA,NA,NA,NA,NA,NA,NA,NA,NA,NA,NA,NA,NA,NA,NA,NA,NA
9972d,shallow,flow.Sequence,3_0_4_0_3_1,NA,NA,completion,23136.3,1827399.2,1827396.5,1827412.8,1850549.1,1850551.4000001,2024-02-27T17:21:47Z,1850565.6,NULL,Inhalt,yaliyomo,s,kishawishi,hifadhi,kutembea,NA,sd,NA,4,NA,NA,NA,NA,NA,NA,NA,NA,NA,NA,NA,NA,NA,NA,NA,NA,NA,NA,NA
9972d,task,flow.Sequence,3_0_4_0_3,NA,NA,completion,23136.3,1827398.8000001,1827396.5,1827412.8,1850549.1,1850551.5,2024-02-27T17:21:47Z,1850565.6,NULL,Inhalt,yaliyomo,s,kishawishi,hifadhi,kutembea,NA,sd,NA,4,NA,NA,NA,NA,NA,NA,NA,NA,NA,NA,NA,NA,NA,NA,NA,NA,NA,NA,NA
9972d,Deep Question,html.Page,3_0_4_0_4_0_0,NA,NA,form submission,29378.300000095,1850551.6,1850549.1,1850565.6,1879943.9000001,1879944.1,2024-02-27T17:22:16Z,1879947.3,NULL,Schlange,foleni,d,NA,NA,NA,faleni,NA,NA,4,NA,NA,NA,NA,NA,NA,NA,NA,NA,NA,NA,NA,NA,NA,NA,NA,NA,NA,NA
9972d,"""Richtig""-Screen",canvas.Screen,3_0_4_0_4_0_1,NA,NA,skipped,NA,1879945.6,NA,NA,1879943.9000001,1879945.7,2024-02-27T17:22:16Z,1879947.3,NULL,Schlange,foleni,d,NA,NA,NA,NA,sd,NA,4,NA,NA,NA,NA,NA,NA,NA,NA,NA,NA,NA,NA,NA,NA,NA,NA,NA,NA,NA
9972d,"""Falsch""-Screen",canvas.Screen,3_0_4_0_4_0_2,NA,NA,timeout,4997,1879946.1,1879931.106,1879947.3,1884927.8,1884928.6,2024-02-27T17:22:21Z,1884944.3,NULL,Schlange,foleni,d,NA,NA,NA,NA,sd,0,4,NA,NA,NA,NA,NA,NA,NA,NA,NA,NA,NA,NA,NA,NA,NA,NA,NA,NA,NA
9972d,deep,flow.Sequence,3_0_4_0_4_0,NA,NA,completion,34362.2,1850551.5,1850549.1,1850565.6,1884927.8,1884929,2024-02-27T17:22:21Z,1884944.3,NULL,Schlange,foleni,d,NA,NA,NA,NA,sd,NA,4,NA,NA,NA,NA,NA,NA,NA,NA,NA,NA,NA,NA,NA,NA,NA,NA,NA,NA,NA
9972d,shallow,flow.Sequence,3_0_4_0_4_1,NA,NA,skipped,NA,1884929.1,NA,NA,1884927.8,1884929.2,2024-02-27T17:22:21Z,1884944.3,NULL,Schlange,foleni,d,NA,NA,NA,NA,sd,NA,4,NA,NA,NA,NA,NA,NA,NA,NA,NA,NA,NA,NA,NA,NA,NA,NA,NA,NA,NA
9972d,task,flow.Sequence,3_0_4_0_4,NA,NA,completion,34362.2,1850551.5,1850549.1,1850565.6,1884927.8,1884929.4000001,2024-02-27T17:22:21Z,1884944.3,NULL,Schlange,foleni,d,NA,NA,NA,NA,sd,NA,4,NA,NA,NA,NA,NA,NA,NA,NA,NA,NA,NA,NA,NA,NA,NA,NA,NA,NA,NA
9972d,deep,flow.Sequence,3_0_4_0_5_0,NA,NA,skipped,NA,1884929.5,NA,NA,1884927.8,1884929.7,2024-02-27T17:22:21Z,1884944.3,NULL,Polizist,msongora,s,simanzi,mandhari,nidhamu,NA,sd,NA,4,NA,NA,NA,NA,NA,NA,NA,NA,NA,NA,NA,NA,NA,NA,NA,NA,NA,NA,NA
9972d,Shallow Question,html.Page,3_0_4_0_5_1_0,NA,NA,form submission,7507.9000000476,1884929.8000001,1884927.8,1884944.3,1892452.2,1892452.4000001,2024-02-27T17:22:29Z,1892456.3,NULL,Polizist,msongora,s,simanzi,mandhari,nidhamu,msongora,NA,NA,4,NA,NA,NA,NA,NA,NA,NA,NA,NA,NA,NA,NA,NA,NA,NA,NA,NA,NA,NA
9972d,"""Richtig""-Screen",canvas.Screen,3_0_4_0_5_1_1,NA,NA,timeout,4997.5,1892455.7,1892440.462,1892456.3,1897437.1,1897437.5,2024-02-27T17:22:34Z,1897453.8,NULL,Polizist,msongora,s,simanzi,mandhari,nidhamu,NA,sd,1,4,NA,NA,NA,NA,NA,NA,NA,NA,NA,NA,NA,NA,NA,NA,NA,NA,NA,NA,NA
9972d,"""Falsch""-Screen",canvas.Screen,3_0_4_0_5_1_2,NA,NA,skipped,NA,1897439.2,NA,NA,1897437.1,1897439.4000001,2024-02-27T17:22:34Z,1897453.8,NULL,Polizist,msongora,s,simanzi,mandhari,nidhamu,NA,sd,NA,4,NA,NA,NA,NA,NA,NA,NA,NA,NA,NA,NA,NA,NA,NA,NA,NA,NA,NA,NA
9972d,shallow,flow.Sequence,3_0_4_0_5_1,NA,NA,completion,12492.8,1884929.8000001,1884927.8,1884944.3,1897437.1,1897439.4000001,2024-02-27T17:22:34Z,1897453.8,NULL,Polizist,msongora,s,simanzi,mandhari,nidhamu,NA,sd,NA,4,NA,NA,NA,NA,NA,NA,NA,NA,NA,NA,NA,NA,NA,NA,NA,NA,NA,NA,NA
9972d,task,flow.Sequence,3_0_4_0_5,NA,NA,completion,12492.8,1884929.5,1884927.8,1884944.3,1897437.1,1897439.5,2024-02-27T17:22:34Z,1897453.8,NULL,Polizist,msongora,s,simanzi,mandhari,nidhamu,NA,sd,NA,4,NA,NA,NA,NA,NA,NA,NA,NA,NA,NA,NA,NA,NA,NA,NA,NA,NA,NA,NA
9972d,deep,flow.Sequence,3_0_4_0_6_0,NA,NA,skipped,NA,1897439.6,NA,NA,1897437.1,1897439.6,2024-02-27T17:22:34Z,1897453.8,NULL,Beweis,ushahidi,s,marudio,kizuizi,mtendaji,NA,sd,NA,4,NA,NA,NA,NA,NA,NA,NA,NA,NA,NA,NA,NA,NA,NA,NA,NA,NA,NA,NA
9972d,Shallow Question,html.Page,3_0_4_0_6_1_0,NA,NA,form submission,7848.0000000715,1897439.7,1897437.1,1897453.8,1905301.8000001,1905302,2024-02-27T17:22:41Z,1905315.2,NULL,Beweis,ushahidi,s,marudio,kizuizi,mtendaji,ushahidi,NA,NA,4,NA,NA,NA,NA,NA,NA,NA,NA,NA,NA,NA,NA,NA,NA,NA,NA,NA,NA,NA
9972d,"""Richtig""-Screen",canvas.Screen,3_0_4_0_6_1_1,NA,NA,timeout,4997.2,1905305.1,1905298.992,1905315.2,1910295.6,1910296.8000001,2024-02-27T17:22:46Z,1910312.4,NULL,Beweis,ushahidi,s,marudio,kizuizi,mtendaji,NA,sd,1,4,NA,NA,NA,NA,NA,NA,NA,NA,NA,NA,NA,NA,NA,NA,NA,NA,NA,NA,NA
9972d,"""Falsch""-Screen",canvas.Screen,3_0_4_0_6_1_2,NA,NA,skipped,NA,1910303.9000001,NA,NA,1910295.6,1910304.4000001,2024-02-27T17:22:46Z,1910312.4,NULL,Beweis,ushahidi,s,marudio,kizuizi,mtendaji,NA,sd,NA,4,NA,NA,NA,NA,NA,NA,NA,NA,NA,NA,NA,NA,NA,NA,NA,NA,NA,NA,NA
9972d,shallow,flow.Sequence,3_0_4_0_6_1,NA,NA,completion,12841.8,1897439.7,1897437.1,1897453.8,1910295.6,1910305,2024-02-27T17:22:46Z,1910312.4,NULL,Beweis,ushahidi,s,marudio,kizuizi,mtendaji,NA,sd,NA,4,NA,NA,NA,NA,NA,NA,NA,NA,NA,NA,NA,NA,NA,NA,NA,NA,NA,NA,NA
9972d,task,flow.Sequence,3_0_4_0_6,NA,NA,completion,12841.8,1897439.6,1897437.1,1897453.8,1910295.6,1910305.4000001,2024-02-27T17:22:46Z,1910312.4,NULL,Beweis,ushahidi,s,marudio,kizuizi,mtendaji,NA,sd,NA,4,NA,NA,NA,NA,NA,NA,NA,NA,NA,NA,NA,NA,NA,NA,NA,NA,NA,NA,NA
9972d,Deep Question,html.Page,3_0_4_0_7_0_0,NA,NA,form submission,18115.800000048,1910305.6,1910295.6,1910312.4,1928428.2,1928428.5,2024-02-27T17:23:05Z,1928434.3,NULL,Annäherung,maegesho,d,NA,NA,NA,gescha,NA,NA,4,NA,NA,NA,NA,NA,NA,NA,NA,NA,NA,NA,NA,NA,NA,NA,NA,NA,NA,NA
9972d,"""Richtig""-Screen",canvas.Screen,3_0_4_0_7_0_1,NA,NA,skipped,NA,1928430.1,NA,NA,1928428.2,1928430.1,2024-02-27T17:23:05Z,1928434.3,NULL,Annäherung,maegesho,d,NA,NA,NA,NA,sd,NA,4,NA,NA,NA,NA,NA,NA,NA,NA,NA,NA,NA,NA,NA,NA,NA,NA,NA,NA,NA
9972d,"""Falsch""-Screen",canvas.Screen,3_0_4_0_7_0_2,NA,NA,timeout,4997.0999999999,1928430.6,1928418.2,1928434.3,1933414.9,1933415.8000001,2024-02-27T17:23:10Z,1933431.4,NULL,Annäherung,maegesho,d,NA,NA,NA,NA,sd,0,4,NA,NA,NA,NA,NA,NA,NA,NA,NA,NA,NA,NA,NA,NA,NA,NA,NA,NA,NA
9972d,deep,flow.Sequence,3_0_4_0_7_0,NA,NA,completion,23102.5,1910305.5,1910295.6,1910312.4,1933414.9,1933416.2,2024-02-27T17:23:10Z,1933431.4,NULL,Annäherung,maegesho,d,NA,NA,NA,NA,sd,NA,4,NA,NA,NA,NA,NA,NA,NA,NA,NA,NA,NA,NA,NA,NA,NA,NA,NA,NA,NA
9972d,shallow,flow.Sequence,3_0_4_0_7_1,NA,NA,skipped,NA,1933416.4000001,NA,NA,1933414.9,1933416.5,2024-02-27T17:23:10Z,1933431.4,NULL,Annäherung,maegesho,d,NA,NA,NA,NA,sd,NA,4,NA,NA,NA,NA,NA,NA,NA,NA,NA,NA,NA,NA,NA,NA,NA,NA,NA,NA,NA
9972d,task,flow.Sequence,3_0_4_0_7,NA,NA,completion,23102.5,1910305.4000001,1910295.6,1910312.4,1933414.9,1933416.8000001,2024-02-27T17:23:10Z,1933431.4,NULL,Annäherung,maegesho,d,NA,NA,NA,NA,sd,NA,4,NA,NA,NA,NA,NA,NA,NA,NA,NA,NA,NA,NA,NA,NA,NA,NA,NA,NA,NA
9972d,block,flow.Loop,3_0_4_0,NA,NA,completion,210255.1,1723151.5,1723145.6,1723159.8,1933414.9,1933417,2024-02-27T17:23:10Z,1933431.4,NULL,NA,NA,NA,NA,NA,NA,NA,sd,NA,4,NA,NA,NA,NA,NA,NA,NA,NA,NA,NA,NA,NA,NA,NA,NA,NA,NA,NA,NA
9972d,weiter,canvas.Screen,3_0_4_1,sdf,keypress(Space),response,30598.6,1933417.2,1933414.9,1933431.4,1964030,1964030.6,2024-02-27T17:23:40Z,1964062.916,NULL,NA,NA,NA,NA,NA,NA,NA,sd,NA,4,NA,NA,NA,NA,NA,NA,NA,NA,NA,NA,NA,NA,NA,NA,NA,NA,NA,NA,NA
9972d,check continue,flow.Sequence,3_0_4,NA,NA,completion,240870.2,1723151.5,1723145.6,1723159.8,1964030,1964030.8000001,2024-02-27T17:23:40Z,1964062.916,NULL,NA,NA,NA,NA,NA,NA,NA,sd,NA,4,NA,NA,NA,NA,NA,NA,NA,NA,NA,NA,NA,NA,NA,NA,NA,NA,NA,NA,NA
9972d,Deep Question,html.Page,3_0_5_0_0_0_0,NA,NA,form submission,10792.684000024,1964067.8000001,1964062.916,1964062.916,1974855.6,1974855.9000001,2024-02-27T17:23:51Z,1974856.75,NULL,Toleranz,kuvumiliana,d,NA,NA,NA,miliana,NA,NA,5,NA,NA,NA,NA,NA,NA,NA,NA,NA,NA,NA,NA,NA,NA,NA,NA,NA,NA,NA
9972d,"""Richtig""-Screen",canvas.Screen,3_0_5_0_0_0_1,NA,NA,skipped,NA,1974859.4000001,NA,NA,1974855.6,1974859.6,2024-02-27T17:23:51Z,1974856.75,NULL,Toleranz,kuvumiliana,d,NA,NA,NA,NA,sdf,NA,5,NA,NA,NA,NA,NA,NA,NA,NA,NA,NA,NA,NA,NA,NA,NA,NA,NA,NA,NA
9972d,"""Falsch""-Screen",canvas.Screen,3_0_5_0_0_0_2,NA,NA,timeout,4996.1499999999,1974860.6,1974856.75,1974856.75,1979836.5,1979837.6,2024-02-27T17:23:56Z,1979852.9,NULL,Toleranz,kuvumiliana,d,NA,NA,NA,NA,sdf,0,5,NA,NA,NA,NA,NA,NA,NA,NA,NA,NA,NA,NA,NA,NA,NA,NA,NA,NA,NA
9972d,deep,flow.Sequence,3_0_5_0_0_0,NA,NA,completion,15773.584,1964067.7,1964062.916,1964062.916,1979836.5,1979838.2,2024-02-27T17:23:56Z,1979852.9,NULL,Toleranz,kuvumiliana,d,NA,NA,NA,NA,sdf,NA,5,NA,NA,NA,NA,NA,NA,NA,NA,NA,NA,NA,NA,NA,NA,NA,NA,NA,NA,NA
9972d,shallow,flow.Sequence,3_0_5_0_0_1,NA,NA,skipped,NA,1979838.5,NA,NA,1979836.5,1979838.6,2024-02-27T17:23:56Z,1979852.9,NULL,Toleranz,kuvumiliana,d,NA,NA,NA,NA,sdf,NA,5,NA,NA,NA,NA,NA,NA,NA,NA,NA,NA,NA,NA,NA,NA,NA,NA,NA,NA,NA
9972d,task,flow.Sequence,3_0_5_0_0,NA,NA,completion,15773.584,1964067.7,1964062.916,1964062.916,1979836.5,1979838.9000001,2024-02-27T17:23:56Z,1979852.9,NULL,Toleranz,kuvumiliana,d,NA,NA,NA,NA,sdf,NA,5,NA,NA,NA,NA,NA,NA,NA,NA,NA,NA,NA,NA,NA,NA,NA,NA,NA,NA,NA
9972d,Deep Question,html.Page,3_0_5_0_1_0_0,NA,NA,form submission,21712.800000048,1979839.2,1979836.5,1979852.9,2001565.7,2001566,2024-02-27T17:24:18Z,2001572.9,NULL,Sympathie,mapendano,d,NA,NA,NA,maperio,NA,NA,5,NA,NA,NA,NA,NA,NA,NA,NA,NA,NA,NA,NA,NA,NA,NA,NA,NA,NA,NA
9972d,"""Richtig""-Screen",canvas.Screen,3_0_5_0_1_0_1,NA,NA,skipped,NA,2001569.3000001,NA,NA,2001565.7,2001569.4000001,2024-02-27T17:24:18Z,2001572.9,NULL,Sympathie,mapendano,d,NA,NA,NA,NA,sdf,NA,5,NA,NA,NA,NA,NA,NA,NA,NA,NA,NA,NA,NA,NA,NA,NA,NA,NA,NA,NA
9972d,"""Falsch""-Screen",canvas.Screen,3_0_5_0_1_0_2,NA,NA,timeout,4997.2000000002,2001570,2001559.728,2001572.9,2006553.3,2006554.8000001,2024-02-27T17:24:23Z,2006570.1,NULL,Sympathie,mapendano,d,NA,NA,NA,NA,sdf,0,5,NA,NA,NA,NA,NA,NA,NA,NA,NA,NA,NA,NA,NA,NA,NA,NA,NA,NA,NA
9972d,deep,flow.Sequence,3_0_5_0_1_0,NA,NA,completion,26700.4,1979839.2,1979836.5,1979852.9,2006553.3,2006555.4000001,2024-02-27T17:24:23Z,2006570.1,NULL,Sympathie,mapendano,d,NA,NA,NA,NA,sdf,NA,5,NA,NA,NA,NA,NA,NA,NA,NA,NA,NA,NA,NA,NA,NA,NA,NA,NA,NA,NA
9972d,shallow,flow.Sequence,3_0_5_0_1_1,NA,NA,skipped,NA,2006555.6,NA,NA,2006553.3,2006555.8000001,2024-02-27T17:24:23Z,2006570.1,NULL,Sympathie,mapendano,d,NA,NA,NA,NA,sdf,NA,5,NA,NA,NA,NA,NA,NA,NA,NA,NA,NA,NA,NA,NA,NA,NA,NA,NA,NA,NA
9972d,task,flow.Sequence,3_0_5_0_1,NA,NA,completion,26700.4,1979839.1,1979836.5,1979852.9,2006553.3,2006556.3000001,2024-02-27T17:24:23Z,2006570.1,NULL,Sympathie,mapendano,d,NA,NA,NA,NA,sdf,NA,5,NA,NA,NA,NA,NA,NA,NA,NA,NA,NA,NA,NA,NA,NA,NA,NA,NA,NA,NA
9972d,deep,flow.Sequence,3_0_5_0_2_0,NA,NA,skipped,NA,2006556.5,NA,NA,2006553.3,2006556.7,2024-02-27T17:24:23Z,2006570.1,NULL,Inhalt,yaliyomo,s,kishawishi,hifadhi,kutembea,NA,sdf,NA,5,NA,NA,NA,NA,NA,NA,NA,NA,NA,NA,NA,NA,NA,NA,NA,NA,NA,NA,NA
9972d,Shallow Question,html.Page,3_0_5_0_2_1_0,NA,NA,form submission,11171.300000095,2006556.9000001,2006553.3,2006570.1,2017741.4000001,2017741.7,2024-02-27T17:24:34Z,2017746.2,NULL,Inhalt,yaliyomo,s,kishawishi,hifadhi,kutembea,yaliyomo,NA,NA,5,NA,NA,NA,NA,NA,NA,NA,NA,NA,NA,NA,NA,NA,NA,NA,NA,NA,NA,NA
9972d,"""Richtig""-Screen",canvas.Screen,3_0_5_0_2_1_1,NA,NA,timeout,4997.2,2017743.2,2017731.636,2017746.2,2022727,2022728.1,2024-02-27T17:24:39Z,2022743.4,NULL,Inhalt,yaliyomo,s,kishawishi,hifadhi,kutembea,NA,sdf,1,5,NA,NA,NA,NA,NA,NA,NA,NA,NA,NA,NA,NA,NA,NA,NA,NA,NA,NA,NA
9972d,"""Falsch""-Screen",canvas.Screen,3_0_5_0_2_1_2,NA,NA,skipped,NA,2022734,NA,NA,2022727,2022734.3000001,2024-02-27T17:24:39Z,2022743.4,NULL,Inhalt,yaliyomo,s,kishawishi,hifadhi,kutembea,NA,sdf,NA,5,NA,NA,NA,NA,NA,NA,NA,NA,NA,NA,NA,NA,NA,NA,NA,NA,NA,NA,NA
9972d,shallow,flow.Sequence,3_0_5_0_2_1,NA,NA,completion,16156.9,2006556.9000001,2006553.3,2006570.1,2022727,2022734.7,2024-02-27T17:24:39Z,2022743.4,NULL,Inhalt,yaliyomo,s,kishawishi,hifadhi,kutembea,NA,sdf,NA,5,NA,NA,NA,NA,NA,NA,NA,NA,NA,NA,NA,NA,NA,NA,NA,NA,NA,NA,NA
9972d,task,flow.Sequence,3_0_5_0_2,NA,NA,completion,16156.9,2006556.4000001,2006553.3,2006570.1,2022727,2022735,2024-02-27T17:24:39Z,2022743.4,NULL,Inhalt,yaliyomo,s,kishawishi,hifadhi,kutembea,NA,sdf,NA,5,NA,NA,NA,NA,NA,NA,NA,NA,NA,NA,NA,NA,NA,NA,NA,NA,NA,NA,NA
9972d,Deep Question,html.Page,3_0_5_0_3_0_0,NA,NA,form submission,20156.700000024,2022735.2,2022727,2022743.4,2042900.1,2042900.3000001,2024-02-27T17:24:59Z,2042914.5,NULL,Annäherung,maegesho,d,NA,NA,NA,milio,NA,NA,5,NA,NA,NA,NA,NA,NA,NA,NA,NA,NA,NA,NA,NA,NA,NA,NA,NA,NA,NA
9972d,"""Richtig""-Screen",canvas.Screen,3_0_5_0_3_0_1,NA,NA,skipped,NA,2042903.6,NA,NA,2042900.1,2042903.8000001,2024-02-27T17:24:59Z,2042914.5,NULL,Annäherung,maegesho,d,NA,NA,NA,NA,sdf,NA,5,NA,NA,NA,NA,NA,NA,NA,NA,NA,NA,NA,NA,NA,NA,NA,NA,NA,NA,NA
9972d,"""Falsch""-Screen",canvas.Screen,3_0_5_0_3_0_2,NA,NA,timeout,4996.8,2042904.8000001,2042898.254,2042914.5,2047894.5,2047895.5,2024-02-27T17:25:04Z,2047911.3,NULL,Annäherung,maegesho,d,NA,NA,NA,NA,sdf,0,5,NA,NA,NA,NA,NA,NA,NA,NA,NA,NA,NA,NA,NA,NA,NA,NA,NA,NA,NA
9972d,deep,flow.Sequence,3_0_5_0_3_0,NA,NA,completion,25151.1,2022735.1,2022727,2022743.4,2047894.5,2047895.8000001,2024-02-27T17:25:04Z,2047911.3,NULL,Annäherung,maegesho,d,NA,NA,NA,NA,sdf,NA,5,NA,NA,NA,NA,NA,NA,NA,NA,NA,NA,NA,NA,NA,NA,NA,NA,NA,NA,NA
9972d,shallow,flow.Sequence,3_0_5_0_3_1,NA,NA,skipped,NA,2047896,NA,NA,2047894.5,2047896.1,2024-02-27T17:25:04Z,2047911.3,NULL,Annäherung,maegesho,d,NA,NA,NA,NA,sdf,NA,5,NA,NA,NA,NA,NA,NA,NA,NA,NA,NA,NA,NA,NA,NA,NA,NA,NA,NA,NA
9972d,task,flow.Sequence,3_0_5_0_3,NA,NA,completion,25151.1,2022735.1,2022727,2022743.4,2047894.5,2047896.4000001,2024-02-27T17:25:04Z,2047911.3,NULL,Annäherung,maegesho,d,NA,NA,NA,NA,sdf,NA,5,NA,NA,NA,NA,NA,NA,NA,NA,NA,NA,NA,NA,NA,NA,NA,NA,NA,NA,NA
9972d,deep,flow.Sequence,3_0_5_0_4_0,NA,NA,skipped,NA,2047896.5,NA,NA,2047894.5,2047896.6,2024-02-27T17:25:04Z,2047911.3,NULL,Beweis,ushahidi,s,marudio,kizuizi,mtendaji,NA,sdf,NA,5,NA,NA,NA,NA,NA,NA,NA,NA,NA,NA,NA,NA,NA,NA,NA,NA,NA,NA,NA
9972d,Shallow Question,html.Page,3_0_5_0_4_1_0,NA,NA,form submission,14163.900000048,2047896.8000001,2047894.5,2047911.3,2062075.2,2062075.4000001,2024-02-27T17:25:18Z,2062086,NULL,Beweis,ushahidi,s,marudio,kizuizi,mtendaji,ushahidi,NA,NA,5,NA,NA,NA,NA,NA,NA,NA,NA,NA,NA,NA,NA,NA,NA,NA,NA,NA,NA,NA
9972d,"""Richtig""-Screen",canvas.Screen,3_0_5_0_4_1_1,NA,NA,timeout,4996.8999999999,2062077.6,2062070.128,2062086,2067066.1,2067066.6,2024-02-27T17:25:23Z,2067082.9,NULL,Beweis,ushahidi,s,marudio,kizuizi,mtendaji,NA,sdf,1,5,NA,NA,NA,NA,NA,NA,NA,NA,NA,NA,NA,NA,NA,NA,NA,NA,NA,NA,NA
9972d,"""Falsch""-Screen",canvas.Screen,3_0_5_0_4_1_2,NA,NA,skipped,NA,2067068.4000001,NA,NA,2067066.1,2067068.5,2024-02-27T17:25:23Z,2067082.9,NULL,Beweis,ushahidi,s,marudio,kizuizi,mtendaji,NA,sdf,NA,5,NA,NA,NA,NA,NA,NA,NA,NA,NA,NA,NA,NA,NA,NA,NA,NA,NA,NA,NA
9972d,shallow,flow.Sequence,3_0_5_0_4_1,NA,NA,completion,19154.8,2047896.7,2047894.5,2047911.3,2067066.1,2067068.7,2024-02-27T17:25:23Z,2067082.9,NULL,Beweis,ushahidi,s,marudio,kizuizi,mtendaji,NA,sdf,NA,5,NA,NA,NA,NA,NA,NA,NA,NA,NA,NA,NA,NA,NA,NA,NA,NA,NA,NA,NA
9972d,task,flow.Sequence,3_0_5_0_4,NA,NA,completion,19154.8,2047896.4000001,2047894.5,2047911.3,2067066.1,2067068.7,2024-02-27T17:25:23Z,2067082.9,NULL,Beweis,ushahidi,s,marudio,kizuizi,mtendaji,NA,sdf,NA,5,NA,NA,NA,NA,NA,NA,NA,NA,NA,NA,NA,NA,NA,NA,NA,NA,NA,NA,NA
9972d,deep,flow.Sequence,3_0_5_0_5_0,NA,NA,skipped,NA,2067068.8000001,NA,NA,2067066.1,2067068.9000001,2024-02-27T17:25:23Z,2067082.9,NULL,Vermutung,udhanifu,s,haramia,tikisho,itifaki,NA,sdf,NA,5,NA,NA,NA,NA,NA,NA,NA,NA,NA,NA,NA,NA,NA,NA,NA,NA,NA,NA,NA
9972d,Shallow Question,html.Page,3_0_5_0_5_1_0,NA,NA,form submission,14670.700000024,2067068.9000001,2067066.1,2067082.9,2081753.6,2081753.9000001,2024-02-27T17:25:38Z,2081757.584,NULL,Vermutung,udhanifu,s,haramia,tikisho,itifaki,udhanifu,NA,NA,5,NA,NA,NA,NA,NA,NA,NA,NA,NA,NA,NA,NA,NA,NA,NA,NA,NA,NA,NA
9972d,"""Richtig""-Screen",canvas.Screen,3_0_5_0_5_1_1,NA,NA,timeout,4996.716,2081757.1,2081757.584,2081757.584,2086737.9,2086738.4000001,2024-02-27T17:25:43Z,2086754.3,NULL,Vermutung,udhanifu,s,haramia,tikisho,itifaki,NA,sdf,1,5,NA,NA,NA,NA,NA,NA,NA,NA,NA,NA,NA,NA,NA,NA,NA,NA,NA,NA,NA
9972d,"""Falsch""-Screen",canvas.Screen,3_0_5_0_5_1_2,NA,NA,skipped,NA,2086740.5,NA,NA,2086737.9,2086740.6,2024-02-27T17:25:43Z,2086754.3,NULL,Vermutung,udhanifu,s,haramia,tikisho,itifaki,NA,sdf,NA,5,NA,NA,NA,NA,NA,NA,NA,NA,NA,NA,NA,NA,NA,NA,NA,NA,NA,NA,NA
9972d,shallow,flow.Sequence,3_0_5_0_5_1,NA,NA,completion,19655,2067068.9000001,2067066.1,2067082.9,2086737.9,2086740.8000001,2024-02-27T17:25:43Z,2086754.3,NULL,Vermutung,udhanifu,s,haramia,tikisho,itifaki,NA,sdf,NA,5,NA,NA,NA,NA,NA,NA,NA,NA,NA,NA,NA,NA,NA,NA,NA,NA,NA,NA,NA
9972d,task,flow.Sequence,3_0_5_0_5,NA,NA,completion,19655,2067068.8000001,2067066.1,2067082.9,2086737.9,2086740.8000001,2024-02-27T17:25:43Z,2086754.3,NULL,Vermutung,udhanifu,s,haramia,tikisho,itifaki,NA,sdf,NA,5,NA,NA,NA,NA,NA,NA,NA,NA,NA,NA,NA,NA,NA,NA,NA,NA,NA,NA,NA
9972d,deep,flow.Sequence,3_0_5_0_6_0,NA,NA,skipped,NA,2086740.9000001,NA,NA,2086737.9,2086740.9000001,2024-02-27T17:25:43Z,2086754.3,NULL,Polizist,msongora,s,simanzi,mandhari,nidhamu,NA,sdf,NA,5,NA,NA,NA,NA,NA,NA,NA,NA,NA,NA,NA,NA,NA,NA,NA,NA,NA,NA,NA
9972d,Shallow Question,html.Page,3_0_5_0_6_1_0,NA,NA,form submission,5959.9000000476,2086741,2086737.9,2086754.3,2092714.2,2092714.4000001,2024-02-27T17:25:49Z,2092717.1,NULL,Polizist,msongora,s,simanzi,mandhari,nidhamu,msongora,NA,NA,5,NA,NA,NA,NA,NA,NA,NA,NA,NA,NA,NA,NA,NA,NA,NA,NA,NA,NA,NA
9972d,"""Richtig""-Screen",canvas.Screen,3_0_5_0_6_1_1,NA,NA,timeout,4997.1999999997,2092715.8000001,2092701.224,2092717.1,2097697.6,2097698.2,2024-02-27T17:25:54Z,2097714.3,NULL,Polizist,msongora,s,simanzi,mandhari,nidhamu,NA,sdf,1,5,NA,NA,NA,NA,NA,NA,NA,NA,NA,NA,NA,NA,NA,NA,NA,NA,NA,NA,NA
9972d,"""Falsch""-Screen",canvas.Screen,3_0_5_0_6_1_2,NA,NA,skipped,NA,2097701.1,NA,NA,2097697.6,2097701.2,2024-02-27T17:25:54Z,2097714.3,NULL,Polizist,msongora,s,simanzi,mandhari,nidhamu,NA,sdf,NA,5,NA,NA,NA,NA,NA,NA,NA,NA,NA,NA,NA,NA,NA,NA,NA,NA,NA,NA,NA
9972d,shallow,flow.Sequence,3_0_5_0_6_1,NA,NA,completion,10943.3,2086740.9000001,2086737.9,2086754.3,2097697.6,2097701.4000001,2024-02-27T17:25:54Z,2097714.3,NULL,Polizist,msongora,s,simanzi,mandhari,nidhamu,NA,sdf,NA,5,NA,NA,NA,NA,NA,NA,NA,NA,NA,NA,NA,NA,NA,NA,NA,NA,NA,NA,NA
9972d,task,flow.Sequence,3_0_5_0_6,NA,NA,completion,10943.3,2086740.9000001,2086737.9,2086754.3,2097697.6,2097701.5,2024-02-27T17:25:54Z,2097714.3,NULL,Polizist,msongora,s,simanzi,mandhari,nidhamu,NA,sdf,NA,5,NA,NA,NA,NA,NA,NA,NA,NA,NA,NA,NA,NA,NA,NA,NA,NA,NA,NA,NA
9972d,Deep Question,html.Page,3_0_5_0_7_0_0,NA,NA,form submission,13269.100000096,2097701.7,2097697.6,2097714.3,2110983.4000001,2110983.7,2024-02-27T17:26:07Z,2110989.994,NULL,Schlange,foleni,d,NA,NA,NA,foleni,NA,NA,5,NA,NA,NA,NA,NA,NA,NA,NA,NA,NA,NA,NA,NA,NA,NA,NA,NA,NA,NA
9972d,"""Richtig""-Screen",canvas.Screen,3_0_5_0_7_0_1,NA,NA,timeout,4996.6060000001,2110987.8000001,2110989.994,2110989.994,2115969.7,2115970.1,2024-02-27T17:26:12Z,2115986.6,NULL,Schlange,foleni,d,NA,NA,NA,NA,sdf,1,5,NA,NA,NA,NA,NA,NA,NA,NA,NA,NA,NA,NA,NA,NA,NA,NA,NA,NA,NA
9972d,"""Falsch""-Screen",canvas.Screen,3_0_5_0_7_0_2,NA,NA,skipped,NA,2115971.8000001,NA,NA,2115969.7,2115971.8000001,2024-02-27T17:26:12Z,2115986.6,NULL,Schlange,foleni,d,NA,NA,NA,NA,sdf,NA,5,NA,NA,NA,NA,NA,NA,NA,NA,NA,NA,NA,NA,NA,NA,NA,NA,NA,NA,NA
9972d,deep,flow.Sequence,3_0_5_0_7_0,NA,NA,completion,18255.4,2097701.7,2097697.6,2097714.3,2115969.7,2115971.9000001,2024-02-27T17:26:12Z,2115986.6,NULL,Schlange,foleni,d,NA,NA,NA,NA,sdf,NA,5,NA,NA,NA,NA,NA,NA,NA,NA,NA,NA,NA,NA,NA,NA,NA,NA,NA,NA,NA
9972d,shallow,flow.Sequence,3_0_5_0_7_1,NA,NA,skipped,NA,2115971.9000001,NA,NA,2115969.7,2115972,2024-02-27T17:26:12Z,2115986.6,NULL,Schlange,foleni,d,NA,NA,NA,NA,sdf,NA,5,NA,NA,NA,NA,NA,NA,NA,NA,NA,NA,NA,NA,NA,NA,NA,NA,NA,NA,NA
9972d,task,flow.Sequence,3_0_5_0_7,NA,NA,completion,18255.4,2097701.7,2097697.6,2097714.3,2115969.7,2115972.1,2024-02-27T17:26:12Z,2115986.6,NULL,Schlange,foleni,d,NA,NA,NA,NA,sdf,NA,5,NA,NA,NA,NA,NA,NA,NA,NA,NA,NA,NA,NA,NA,NA,NA,NA,NA,NA,NA
9972d,block,flow.Loop,3_0_5_0,NA,NA,completion,151906.784,1964067.7,1964062.916,1964062.916,2115969.7,2115972.1,2024-02-27T17:26:12Z,2115986.6,NULL,NA,NA,NA,NA,NA,NA,NA,sdf,NA,5,NA,NA,NA,NA,NA,NA,NA,NA,NA,NA,NA,NA,NA,NA,NA,NA,NA,NA,NA
9972d,weiter,canvas.Screen,3_0_5_1,sdf,keypress(Space),response,1479.3000000953,2115972.1,2115969.7,2115986.6,2117465.9000001,2117467.6,2024-02-27T17:26:14Z,2117486.236,NULL,NA,NA,NA,NA,NA,NA,NA,sdf,NA,5,NA,NA,NA,NA,NA,NA,NA,NA,NA,NA,NA,NA,NA,NA,NA,NA,NA,NA,NA
9972d,check continue,flow.Sequence,3_0_5,NA,NA,completion,153402.9840001,1964067.6,1964062.916,1964062.916,2117465.9000001,2117468,2024-02-27T17:26:14Z,2117486.236,NULL,NA,NA,NA,NA,NA,NA,NA,sdf,NA,5,NA,NA,NA,NA,NA,NA,NA,NA,NA,NA,NA,NA,NA,NA,NA,NA,NA,NA,NA
9972d,Deep Question,html.Page,3_0_6_0_0_0_0,NA,NA,form submission,19306.964000048,2117491.1,2117486.236,2117486.236,2136793.2,2136793.5,2024-02-27T17:26:33Z,2136806.9,NULL,Schlange,foleni,d,NA,NA,NA,foleni,NA,NA,6,NA,NA,NA,NA,NA,NA,NA,NA,NA,NA,NA,NA,NA,NA,NA,NA,NA,NA,NA
9972d,"""Richtig""-Screen",canvas.Screen,3_0_6_0_0_0_1,NA,NA,timeout,4996.8000000003,2136796.9000001,2136790.862,2136806.9,2141787.4,2141788.4000001,2024-02-27T17:26:38Z,2141803.7,NULL,Schlange,foleni,d,NA,NA,NA,NA,dfs,1,6,NA,NA,NA,NA,NA,NA,NA,NA,NA,NA,NA,NA,NA,NA,NA,NA,NA,NA,NA
9972d,"""Falsch""-Screen",canvas.Screen,3_0_6_0_0_0_2,NA,NA,skipped,NA,2141793.7,NA,NA,2141787.4,2141793.9000001,2024-02-27T17:26:38Z,2141803.7,NULL,Schlange,foleni,d,NA,NA,NA,NA,dfs,NA,6,NA,NA,NA,NA,NA,NA,NA,NA,NA,NA,NA,NA,NA,NA,NA,NA,NA,NA,NA
9972d,deep,flow.Sequence,3_0_6_0_0_0,NA,NA,completion,24301.164,2117491.1,2117486.236,2117486.236,2141787.4,2141794,2024-02-27T17:26:38Z,2141803.7,NULL,Schlange,foleni,d,NA,NA,NA,NA,dfs,NA,6,NA,NA,NA,NA,NA,NA,NA,NA,NA,NA,NA,NA,NA,NA,NA,NA,NA,NA,NA
9972d,shallow,flow.Sequence,3_0_6_0_0_1,NA,NA,skipped,NA,2141794,NA,NA,2141787.4,2141794.1,2024-02-27T17:26:38Z,2141803.7,NULL,Schlange,foleni,d,NA,NA,NA,NA,dfs,NA,6,NA,NA,NA,NA,NA,NA,NA,NA,NA,NA,NA,NA,NA,NA,NA,NA,NA,NA,NA
9972d,task,flow.Sequence,3_0_6_0_0,NA,NA,completion,24301.164,2117491.1,2117486.236,2117486.236,2141787.4,2141794.1,2024-02-27T17:26:38Z,2141803.7,NULL,Schlange,foleni,d,NA,NA,NA,NA,dfs,NA,6,NA,NA,NA,NA,NA,NA,NA,NA,NA,NA,NA,NA,NA,NA,NA,NA,NA,NA,NA
9972d,deep,flow.Sequence,3_0_6_0_1_0,NA,NA,skipped,NA,2141794.2,NA,NA,2141787.4,2141794.3000001,2024-02-27T17:26:38Z,2141803.7,NULL,Polizist,msongora,s,simanzi,mandhari,nidhamu,NA,dfs,NA,6,NA,NA,NA,NA,NA,NA,NA,NA,NA,NA,NA,NA,NA,NA,NA,NA,NA,NA,NA
9972d,Shallow Question,html.Page,3_0_6_0_1_1_0,NA,NA,form submission,5847.7999999998,2141794.3000001,2141787.4,2141803.7,2147651.5,2147651.8000001,2024-02-27T17:26:44Z,2147667.1,NULL,Polizist,msongora,s,simanzi,mandhari,nidhamu,msongora,NA,NA,6,NA,NA,NA,NA,NA,NA,NA,NA,NA,NA,NA,NA,NA,NA,NA,NA,NA,NA,NA
9972d,"""Richtig""-Screen",canvas.Screen,3_0_6_0_1_1_1,NA,NA,timeout,4996.7999999998,2147655,2147650.72,2147667.1,2152647.6,2152648.5,2024-02-27T17:26:49Z,2152663.9,NULL,Polizist,msongora,s,simanzi,mandhari,nidhamu,NA,dfs,1,6,NA,NA,NA,NA,NA,NA,NA,NA,NA,NA,NA,NA,NA,NA,NA,NA,NA,NA,NA
9972d,"""Falsch""-Screen",canvas.Screen,3_0_6_0_1_1_2,NA,NA,skipped,NA,2152654.7,NA,NA,2152647.6,2152655,2024-02-27T17:26:49Z,2152663.9,NULL,Polizist,msongora,s,simanzi,mandhari,nidhamu,NA,dfs,NA,6,NA,NA,NA,NA,NA,NA,NA,NA,NA,NA,NA,NA,NA,NA,NA,NA,NA,NA,NA
9972d,shallow,flow.Sequence,3_0_6_0_1_1,NA,NA,completion,10843.9,2141794.3000001,2141787.4,2141803.7,2152647.6,2152655.4000001,2024-02-27T17:26:49Z,2152663.9,NULL,Polizist,msongora,s,simanzi,mandhari,nidhamu,NA,dfs,NA,6,NA,NA,NA,NA,NA,NA,NA,NA,NA,NA,NA,NA,NA,NA,NA,NA,NA,NA,NA
9972d,task,flow.Sequence,3_0_6_0_1,NA,NA,completion,10843.9,2141794.1,2141787.4,2141803.7,2152647.6,2152655.7,2024-02-27T17:26:49Z,2152663.9,NULL,Polizist,msongora,s,simanzi,mandhari,nidhamu,NA,dfs,NA,6,NA,NA,NA,NA,NA,NA,NA,NA,NA,NA,NA,NA,NA,NA,NA,NA,NA,NA,NA
9972d,deep,flow.Sequence,3_0_6_0_2_0,NA,NA,skipped,NA,2152655.9000001,NA,NA,2152647.6,2152656,2024-02-27T17:26:49Z,2152663.9,NULL,Inhalt,yaliyomo,s,kishawishi,hifadhi,kutembea,NA,dfs,NA,6,NA,NA,NA,NA,NA,NA,NA,NA,NA,NA,NA,NA,NA,NA,NA,NA,NA,NA,NA
9972d,Shallow Question,html.Page,3_0_6_0_2_1_0,NA,NA,form submission,6100.9000000716,2152656.1,2152647.6,2152663.9,2158764.8000001,2158765.1,2024-02-27T17:26:55Z,2158776.7,NULL,Inhalt,yaliyomo,s,kishawishi,hifadhi,kutembea,yaliyomo,NA,NA,6,NA,NA,NA,NA,NA,NA,NA,NA,NA,NA,NA,NA,NA,NA,NA,NA,NA,NA,NA
9972d,"""Richtig""-Screen",canvas.Screen,3_0_6_0_2_1_1,NA,NA,timeout,4997,2158768.1,2158760.03,2158776.7,2163757.4,2163758.1,2024-02-27T17:27:00Z,2163773.7,NULL,Inhalt,yaliyomo,s,kishawishi,hifadhi,kutembea,NA,dfs,1,6,NA,NA,NA,NA,NA,NA,NA,NA,NA,NA,NA,NA,NA,NA,NA,NA,NA,NA,NA
9972d,"""Falsch""-Screen",canvas.Screen,3_0_6_0_2_1_2,NA,NA,skipped,NA,2163761.2,NA,NA,2163757.4,2163761.3000001,2024-02-27T17:27:00Z,2163773.7,NULL,Inhalt,yaliyomo,s,kishawishi,hifadhi,kutembea,NA,dfs,NA,6,NA,NA,NA,NA,NA,NA,NA,NA,NA,NA,NA,NA,NA,NA,NA,NA,NA,NA,NA
9972d,shallow,flow.Sequence,3_0_6_0_2_1,NA,NA,completion,11093.5,2152656.1,2152647.6,2152663.9,2163757.4,2163761.6,2024-02-27T17:27:00Z,2163773.7,NULL,Inhalt,yaliyomo,s,kishawishi,hifadhi,kutembea,NA,dfs,NA,6,NA,NA,NA,NA,NA,NA,NA,NA,NA,NA,NA,NA,NA,NA,NA,NA,NA,NA,NA
9972d,task,flow.Sequence,3_0_6_0_2,NA,NA,completion,11093.5,2152655.7,2152647.6,2152663.9,2163757.4,2163761.7,2024-02-27T17:27:00Z,2163773.7,NULL,Inhalt,yaliyomo,s,kishawishi,hifadhi,kutembea,NA,dfs,NA,6,NA,NA,NA,NA,NA,NA,NA,NA,NA,NA,NA,NA,NA,NA,NA,NA,NA,NA,NA
9972d,deep,flow.Sequence,3_0_6_0_3_0,NA,NA,skipped,NA,2163761.9000001,NA,NA,2163757.4,2163761.9000001,2024-02-27T17:27:00Z,2163773.7,NULL,Vermutung,udhanifu,s,haramia,tikisho,itifaki,NA,dfs,NA,6,NA,NA,NA,NA,NA,NA,NA,NA,NA,NA,NA,NA,NA,NA,NA,NA,NA,NA,NA
9972d,Shallow Question,html.Page,3_0_6_0_3_1_0,NA,NA,form submission,5194.9000000237,2163762,2163757.4,2163773.7,2168968.6,2168968.8000001,2024-02-27T17:27:05Z,2168970.4,NULL,Vermutung,udhanifu,s,haramia,tikisho,itifaki,udhanifu,NA,NA,6,NA,NA,NA,NA,NA,NA,NA,NA,NA,NA,NA,NA,NA,NA,NA,NA,NA,NA,NA
9972d,"""Richtig""-Screen",canvas.Screen,3_0_6_0_3_1_1,NA,NA,timeout,4997.1000000001,2168970.5,2168954.694,2168970.4,2173951.2,2173952.3000001,2024-02-27T17:27:10Z,2173967.5,NULL,Vermutung,udhanifu,s,haramia,tikisho,itifaki,NA,dfs,1,6,NA,NA,NA,NA,NA,NA,NA,NA,NA,NA,NA,NA,NA,NA,NA,NA,NA,NA,NA
9972d,"""Falsch""-Screen",canvas.Screen,3_0_6_0_3_1_2,NA,NA,skipped,NA,2173957.4000001,NA,NA,2173951.2,2173957.6,2024-02-27T17:27:10Z,2173967.5,NULL,Vermutung,udhanifu,s,haramia,tikisho,itifaki,NA,dfs,NA,6,NA,NA,NA,NA,NA,NA,NA,NA,NA,NA,NA,NA,NA,NA,NA,NA,NA,NA,NA
9972d,shallow,flow.Sequence,3_0_6_0_3_1,NA,NA,completion,10177.5,2163762,2163757.4,2163773.7,2173951.2,2173957.6,2024-02-27T17:27:10Z,2173967.5,NULL,Vermutung,udhanifu,s,haramia,tikisho,itifaki,NA,dfs,NA,6,NA,NA,NA,NA,NA,NA,NA,NA,NA,NA,NA,NA,NA,NA,NA,NA,NA,NA,NA
9972d,task,flow.Sequence,3_0_6_0_3,NA,NA,completion,10177.5,2163761.9000001,2163757.4,2163773.7,2173951.2,2173957.6,2024-02-27T17:27:10Z,2173967.5,NULL,Vermutung,udhanifu,s,haramia,tikisho,itifaki,NA,dfs,NA,6,NA,NA,NA,NA,NA,NA,NA,NA,NA,NA,NA,NA,NA,NA,NA,NA,NA,NA,NA
