observation,sender,sender_type,sender_id,response,response_action,ended_on,duration,time_run,time_render,time_show,time_end,time_commit,timestamp,time_switch,distractors,german,swahili,enc,distractor1,distractor2,distractor3,response_2,x,correct,x_2,url_vp,url_sess,meta_labjs_version,meta_location,meta_user_agent,meta_platform,meta_language,meta_locale,meta_time_zone,meta_timezone_offset,meta_screen_width,meta_screen_height,meta_scroll_width,meta_scroll_height,meta_window_inner_width,meta_window_inner_height,meta_device_pixel_ratio,meta_labjs_build_flavor,meta_labjs_build_commit
c1047,Introduction general,canvas.Screen,0,weiter,keypress(q),response,23539.299999905,3229.3999996185,3218.724,3235.3,26774.599999905,26776.799999714,2024-05-24T14:55:51Z,26787.6,NULL,NA,NA,NA,NA,NA,NA,NA,NA,NA,NA,226,3,20.2.4,https://neurocog.fernuni.ch/studies/vweber/aberisha/encoding_immediate/index.html?vp=226&sess=3,"Mozilla/5.0 (Windows NT 10.0; Win64; x64) AppleWebKit/537.36 (KHTML, like Gecko) Chrome/124.0.0.0 Safari/537.36",Win32,de-DE,de,Europe/Zurich,-120,1536,864,1536,682,1536,730,1.25,production,f5b4a49f956347addd546a832a3327688c2c0fef
c1047,Introduction practice,canvas.Screen,1_0,NA,keypress(Space),response,4313.4999999046,26777.299999714,26772.16,26787.6,31101.099999905,31102,2024-05-24T14:55:55Z,31118.3,NULL,NA,NA,NA,NA,NA,NA,NA,NA,NA,NA,NA,NA,NA,NA,NA,NA,NA,NA,NA,NA,NA,NA,NA,NA,NA,NA,NA,NA,NA
c1047,deep,flow.Sequence,1_1_0_0,NA,NA,skipped,NA,31102.399999619,NA,NA,31101.099999905,31102.899999619,2024-05-24T14:55:55Z,31118.3,"c(""distractor1"", ""distractor2"", ""distractor3"")",Gegenwart,hadhara,s,katiba,jokofu,mikopo,NA,NA,NA,NA,NA,NA,NA,NA,NA,NA,NA,NA,NA,NA,NA,NA,NA,NA,NA,NA,NA,NA,NA
c1047,Shallow Question,html.Page,1_1_0_1_0,NA,NA,form submission,6169.3999998093,31103.299999714,31104.094,31118.3,37287.699999809,37288,2024-05-24T14:56:02Z,37297.7,"c(""distractor1"", ""distractor2"", ""distractor3"")",Gegenwart,hadhara,s,katiba,jokofu,mikopo,katiba,NA,NA,NA,NA,NA,NA,NA,NA,NA,NA,NA,NA,NA,NA,NA,NA,NA,NA,NA,NA,NA,NA
c1047,"""Richtig""-Screen",canvas.Screen,1_1_0_1_1,NA,NA,skipped,NA,37289.699999809,NA,NA,37287.699999809,37290,2024-05-24T14:56:02Z,37297.7,"c(""distractor1"", ""distractor2"", ""distractor3"")",Gegenwart,hadhara,s,katiba,jokofu,mikopo,NA,NA,NA,NA,NA,NA,NA,NA,NA,NA,NA,NA,NA,NA,NA,NA,NA,NA,NA,NA,NA,NA,NA
c1047,"""Falsch""-Screen",canvas.Screen,1_1_0_1_2,NA,NA,timeout,4997.4,37291.299999714,37281.792,37297.7,42278.2,42279.5,2024-05-24T14:56:07Z,42295.1,"c(""distractor1"", ""distractor2"", ""distractor3"")",Gegenwart,hadhara,s,katiba,jokofu,mikopo,NA,NA,0,NA,NA,NA,NA,NA,NA,NA,NA,NA,NA,NA,NA,NA,NA,NA,NA,NA,NA,NA,NA
c1047,shallow,flow.Sequence,1_1_0_1,NA,NA,completion,11159.9,31103.199999809,31104.094,31118.3,42278.2,42280,2024-05-24T14:56:07Z,42295.1,"c(""distractor1"", ""distractor2"", ""distractor3"")",Gegenwart,hadhara,s,katiba,jokofu,mikopo,NA,NA,NA,NA,NA,NA,NA,NA,NA,NA,NA,NA,NA,NA,NA,NA,NA,NA,NA,NA,NA,NA,NA
c1047,task,flow.Sequence,1_1_0,NA,NA,completion,11159.9,31102.299999714,31104.094,31118.3,42278.2,42280.299999714,2024-05-24T14:56:07Z,42295.1,"c(""distractor1"", ""distractor2"", ""distractor3"")",Gegenwart,hadhara,s,katiba,jokofu,mikopo,NA,NA,NA,NA,NA,NA,NA,NA,NA,NA,NA,NA,NA,NA,NA,NA,NA,NA,NA,NA,NA,NA,NA
c1047,deep,flow.Sequence,1_1_1_0,NA,NA,skipped,NA,42280.599999904996,NA,NA,42278.2,42280.799999714,2024-05-24T14:56:07Z,42295.1,"c(""distractor1"", ""distractor2"", ""distractor3"")",Kritik,lawama,s,dereva,nafasi,mawazo,NA,NA,NA,NA,NA,NA,NA,NA,NA,NA,NA,NA,NA,NA,NA,NA,NA,NA,NA,NA,NA,NA,NA
c1047,Shallow Question,html.Page,1_1_1_1_0,NA,NA,form submission,5268.4,42281.099999904996,42278.2,42295.1,47563.5,47563.799999714,2024-05-24T14:56:12Z,47575.1,"c(""distractor1"", ""distractor2"", ""distractor3"")",Kritik,lawama,s,dereva,nafasi,mawazo,nafasi,NA,NA,NA,NA,NA,NA,NA,NA,NA,NA,NA,NA,NA,NA,NA,NA,NA,NA,NA,NA,NA,NA
c1047,"""Richtig""-Screen",canvas.Screen,1_1_1_1_1,NA,NA,skipped,NA,47565.099999904996,NA,NA,47563.5,47565.299999714,2024-05-24T14:56:12Z,47575.1,"c(""distractor1"", ""distractor2"", ""distractor3"")",Kritik,lawama,s,dereva,nafasi,mawazo,NA,NA,NA,NA,NA,NA,NA,NA,NA,NA,NA,NA,NA,NA,NA,NA,NA,NA,NA,NA,NA,NA,NA
c1047,"""Falsch""-Screen",canvas.Screen,1_1_1_1_2,NA,NA,timeout,4997.1,47566.5,47558.978,47575.1,52555.2,52556.199999809,2024-05-24T14:56:17Z,52572.2,"c(""distractor1"", ""distractor2"", ""distractor3"")",Kritik,lawama,s,dereva,nafasi,mawazo,NA,NA,0,NA,NA,NA,NA,NA,NA,NA,NA,NA,NA,NA,NA,NA,NA,NA,NA,NA,NA,NA,NA
c1047,shallow,flow.Sequence,1_1_1_1,NA,NA,completion,10260.1,42281,42278.2,42295.1,52555.2,52556.699999809,2024-05-24T14:56:17Z,52572.2,"c(""distractor1"", ""distractor2"", ""distractor3"")",Kritik,lawama,s,dereva,nafasi,mawazo,NA,NA,NA,NA,NA,NA,NA,NA,NA,NA,NA,NA,NA,NA,NA,NA,NA,NA,NA,NA,NA,NA,NA
c1047,task,flow.Sequence,1_1_1,NA,NA,completion,10260.1,42280.599999904996,42278.2,42295.1,52555.2,52556.899999619,2024-05-24T14:56:17Z,52572.2,"c(""distractor1"", ""distractor2"", ""distractor3"")",Kritik,lawama,s,dereva,nafasi,mawazo,NA,NA,NA,NA,NA,NA,NA,NA,NA,NA,NA,NA,NA,NA,NA,NA,NA,NA,NA,NA,NA,NA,NA
c1047,Deep Question,html.Page,1_1_2_0_0,NA,NA,form submission,7888.1999996185,52557.199999809,52555.2,52572.2,60460.399999619,60460.599999904996,2024-05-24T14:56:25Z,60467,"c(""distractor1"", ""distractor2"", ""distractor3"")",Qualität,mtindo,d,NA,NA,NA,jikilo,NA,NA,NA,NA,NA,NA,NA,NA,NA,NA,NA,NA,NA,NA,NA,NA,NA,NA,NA,NA,NA,NA
c1047,"""Richtig""-Screen",canvas.Screen,1_1_2_0_1,NA,NA,skipped,NA,60461,NA,NA,60460.399999619,60461.099999904996,2024-05-24T14:56:25Z,60467,"c(""distractor1"", ""distractor2"", ""distractor3"")",Qualität,mtindo,d,NA,NA,NA,NA,NA,NA,NA,NA,NA,NA,NA,NA,NA,NA,NA,NA,NA,NA,NA,NA,NA,NA,NA,NA,NA,NA
c1047,"""Falsch""-Screen",canvas.Screen,1_1_2_0_2,NA,NA,timeout,4997.6,60461.699999809,60450.43,60467,65447.3,65448.299999714,2024-05-24T14:56:30Z,65464.6,"c(""distractor1"", ""distractor2"", ""distractor3"")",Qualität,mtindo,d,NA,NA,NA,NA,NA,0,NA,NA,NA,NA,NA,NA,NA,NA,NA,NA,NA,NA,NA,NA,NA,NA,NA,NA,NA,NA
c1047,deep,flow.Sequence,1_1_2_0,NA,NA,completion,12875.1,52557.199999809,52555.2,52572.2,65447.3,65448.599999904996,2024-05-24T14:56:30Z,65464.6,"c(""distractor1"", ""distractor2"", ""distractor3"")",Qualität,mtindo,d,NA,NA,NA,NA,NA,NA,NA,NA,NA,NA,NA,NA,NA,NA,NA,NA,NA,NA,NA,NA,NA,NA,NA,NA,NA,NA
c1047,shallow,flow.Sequence,1_1_2_1,NA,NA,skipped,NA,65448.899999619,NA,NA,65447.3,65449.099999904996,2024-05-24T14:56:30Z,65464.6,"c(""distractor1"", ""distractor2"", ""distractor3"")",Qualität,mtindo,d,NA,NA,NA,NA,NA,NA,NA,NA,NA,NA,NA,NA,NA,NA,NA,NA,NA,NA,NA,NA,NA,NA,NA,NA,NA,NA
c1047,task,flow.Sequence,1_1_2,NA,NA,completion,12875.1,52557,52555.2,52572.2,65447.3,65449.399999619,2024-05-24T14:56:30Z,65464.6,"c(""distractor1"", ""distractor2"", ""distractor3"")",Qualität,mtindo,d,NA,NA,NA,NA,NA,NA,NA,NA,NA,NA,NA,NA,NA,NA,NA,NA,NA,NA,NA,NA,NA,NA,NA,NA,NA,NA
c1047,Deep Question,html.Page,1_1_3_0_0,NA,NA,form submission,13660.699999714,65449.799999714,65447.3,65464.6,79125.299999714,79125.5,2024-05-24T14:56:43Z,79139.4,"c(""distractor1"", ""distractor2"", ""distractor3"")",Gesundheit,salama,d,NA,NA,NA,kawaliwo,NA,NA,NA,NA,NA,NA,NA,NA,NA,NA,NA,NA,NA,NA,NA,NA,NA,NA,NA,NA,NA,NA
c1047,"""Richtig""-Screen",canvas.Screen,1_1_3_0_1,NA,NA,skipped,NA,79128.599999905,NA,NA,79125.299999714,79128.799999714,2024-05-24T14:56:43Z,79139.4,"c(""distractor1"", ""distractor2"", ""distractor3"")",Gesundheit,salama,d,NA,NA,NA,NA,NA,NA,NA,NA,NA,NA,NA,NA,NA,NA,NA,NA,NA,NA,NA,NA,NA,NA,NA,NA,NA,NA
c1047,"""Falsch""-Screen",canvas.Screen,1_1_3_0_2,NA,NA,timeout,4996.6,79129.5,79122.824,79139.4,84119.4,84120.5,2024-05-24T14:56:48Z,84136,"c(""distractor1"", ""distractor2"", ""distractor3"")",Gesundheit,salama,d,NA,NA,NA,NA,NA,0,NA,NA,NA,NA,NA,NA,NA,NA,NA,NA,NA,NA,NA,NA,NA,NA,NA,NA,NA,NA
c1047,deep,flow.Sequence,1_1_3_0,NA,NA,completion,18654.8,65449.799999714,65447.3,65464.6,84119.4,84120.799999714,2024-05-24T14:56:48Z,84136,"c(""distractor1"", ""distractor2"", ""distractor3"")",Gesundheit,salama,d,NA,NA,NA,NA,NA,NA,NA,NA,NA,NA,NA,NA,NA,NA,NA,NA,NA,NA,NA,NA,NA,NA,NA,NA,NA,NA
c1047,shallow,flow.Sequence,1_1_3_1,NA,NA,skipped,NA,84121,NA,NA,84119.4,84121.099999905,2024-05-24T14:56:48Z,84136,"c(""distractor1"", ""distractor2"", ""distractor3"")",Gesundheit,salama,d,NA,NA,NA,NA,NA,NA,NA,NA,NA,NA,NA,NA,NA,NA,NA,NA,NA,NA,NA,NA,NA,NA,NA,NA,NA,NA
c1047,task,flow.Sequence,1_1_3,NA,NA,completion,18654.8,65449.599999904996,65447.3,65464.6,84119.4,84121.299999714,2024-05-24T14:56:48Z,84136,"c(""distractor1"", ""distractor2"", ""distractor3"")",Gesundheit,salama,d,NA,NA,NA,NA,NA,NA,NA,NA,NA,NA,NA,NA,NA,NA,NA,NA,NA,NA,NA,NA,NA,NA,NA,NA,NA,NA
c1047,Deep Question,html.Page,1_1_4_0_0,NA,NA,form submission,7832.6999998093,84121.5,84119.4,84136,91968.699999809,91969,2024-05-24T14:56:56Z,91981.1,"c(""distractor1"", ""distractor2"", ""distractor3"")",Schatten,kivuli,d,NA,NA,NA,poligo,NA,NA,NA,NA,NA,NA,NA,NA,NA,NA,NA,NA,NA,NA,NA,NA,NA,NA,NA,NA,NA,NA
c1047,"""Richtig""-Screen",canvas.Screen,1_1_4_0_1,NA,NA,skipped,NA,91971.799999714,NA,NA,91968.699999809,91972,2024-05-24T14:56:56Z,91981.1,"c(""distractor1"", ""distractor2"", ""distractor3"")",Schatten,kivuli,d,NA,NA,NA,NA,NA,NA,NA,NA,NA,NA,NA,NA,NA,NA,NA,NA,NA,NA,NA,NA,NA,NA,NA,NA,NA,NA
c1047,"""Falsch""-Screen",canvas.Screen,1_1_4_0_2,NA,NA,timeout,4997.3,91972.799999714,91965.028,91981.1,96961.4,96962.399999619,2024-05-24T14:57:01Z,96978.4,"c(""distractor1"", ""distractor2"", ""distractor3"")",Schatten,kivuli,d,NA,NA,NA,NA,NA,0,NA,NA,NA,NA,NA,NA,NA,NA,NA,NA,NA,NA,NA,NA,NA,NA,NA,NA,NA,NA
c1047,deep,flow.Sequence,1_1_4_0,NA,NA,completion,12825.4,84121.5,84119.4,84136,96961.4,96962.699999809,2024-05-24T14:57:01Z,96978.4,"c(""distractor1"", ""distractor2"", ""distractor3"")",Schatten,kivuli,d,NA,NA,NA,NA,NA,NA,NA,NA,NA,NA,NA,NA,NA,NA,NA,NA,NA,NA,NA,NA,NA,NA,NA,NA,NA,NA
c1047,shallow,flow.Sequence,1_1_4_1,NA,NA,skipped,NA,96962.899999619,NA,NA,96961.4,96963.099999905,2024-05-24T14:57:01Z,96978.4,"c(""distractor1"", ""distractor2"", ""distractor3"")",Schatten,kivuli,d,NA,NA,NA,NA,NA,NA,NA,NA,NA,NA,NA,NA,NA,NA,NA,NA,NA,NA,NA,NA,NA,NA,NA,NA,NA,NA
c1047,task,flow.Sequence,1_1_4,NA,NA,completion,12825.4,84121.399999619,84119.4,84136,96961.4,96963.299999714,2024-05-24T14:57:01Z,96978.4,"c(""distractor1"", ""distractor2"", ""distractor3"")",Schatten,kivuli,d,NA,NA,NA,NA,NA,NA,NA,NA,NA,NA,NA,NA,NA,NA,NA,NA,NA,NA,NA,NA,NA,NA,NA,NA,NA,NA
c1047,deep,flow.Sequence,1_1_5_0,NA,NA,skipped,NA,96963.5,NA,NA,96961.4,96963.599999905,2024-05-24T14:57:01Z,96978.4,"c(""distractor1"", ""distractor2"", ""distractor3"")",Rückhalt,msaada,s,muhula,auwali,kiwimbe,NA,NA,NA,NA,NA,NA,NA,NA,NA,NA,NA,NA,NA,NA,NA,NA,NA,NA,NA,NA,NA,NA,NA
c1047,Shallow Question,html.Page,1_1_5_1_0,NA,NA,form submission,5256.1999999046,96963.799999714,96961.4,96978.4,102234.5999999,102234.79999971,2024-05-24T14:57:07Z,102242.158,"c(""distractor1"", ""distractor2"", ""distractor3"")",Rückhalt,msaada,s,muhula,auwali,kiwimbe,auwali,NA,NA,NA,NA,NA,NA,NA,NA,NA,NA,NA,NA,NA,NA,NA,NA,NA,NA,NA,NA,NA,NA
c1047,"""Richtig""-Screen",canvas.Screen,1_1_5_1_1,NA,NA,skipped,NA,102237.69999980999,NA,NA,102234.5999999,102237.89999962,2024-05-24T14:57:07Z,102242.158,"c(""distractor1"", ""distractor2"", ""distractor3"")",Rückhalt,msaada,s,muhula,auwali,kiwimbe,NA,NA,NA,NA,NA,NA,NA,NA,NA,NA,NA,NA,NA,NA,NA,NA,NA,NA,NA,NA,NA,NA,NA
c1047,"""Falsch""-Screen",canvas.Screen,1_1_5_1_2,NA,NA,timeout,4996.742,102238.5999999,102242.158,102242.158,107222.3,107223.19999980999,2024-05-24T14:57:12Z,107238.9,"c(""distractor1"", ""distractor2"", ""distractor3"")",Rückhalt,msaada,s,muhula,auwali,kiwimbe,NA,NA,0,NA,NA,NA,NA,NA,NA,NA,NA,NA,NA,NA,NA,NA,NA,NA,NA,NA,NA,NA,NA
c1047,shallow,flow.Sequence,1_1_5_1,NA,NA,completion,10243.9,96963.699999809,96961.4,96978.4,107222.3,107223.5999999,2024-05-24T14:57:12Z,107238.9,"c(""distractor1"", ""distractor2"", ""distractor3"")",Rückhalt,msaada,s,muhula,auwali,kiwimbe,NA,NA,NA,NA,NA,NA,NA,NA,NA,NA,NA,NA,NA,NA,NA,NA,NA,NA,NA,NA,NA,NA,NA
c1047,task,flow.Sequence,1_1_5,NA,NA,completion,10243.9,96963.399999619,96961.4,96978.4,107222.3,107223.79999971,2024-05-24T14:57:12Z,107238.9,"c(""distractor1"", ""distractor2"", ""distractor3"")",Rückhalt,msaada,s,muhula,auwali,kiwimbe,NA,NA,NA,NA,NA,NA,NA,NA,NA,NA,NA,NA,NA,NA,NA,NA,NA,NA,NA,NA,NA,NA,NA
c1047,block,flow.Loop,1_1,NA,NA,completion,76104,31102.299999714,31104.094,31118.3,107222.3,107224.19999981,2024-05-24T14:57:12Z,107238.9,"c(""distractor1"", ""distractor2"", ""distractor3"")",NA,NA,NA,NA,NA,NA,NA,NA,NA,NA,NA,NA,NA,NA,NA,NA,NA,NA,NA,NA,NA,NA,NA,NA,NA,NA,NA,NA,NA
c1047,Practice,flow.Sequence,1,NA,NA,completion,80434.7,26777.299999714,26772.16,26787.6,107222.3,107224.39999962,2024-05-24T14:57:12Z,107238.9,NULL,NA,NA,NA,NA,NA,NA,NA,NA,NA,NA,NA,NA,NA,NA,NA,NA,NA,NA,NA,NA,NA,NA,NA,NA,NA,NA,NA,NA,NA
c1047,Experiment start,canvas.Screen,2,weiter,keypress(q),response,10770.6,107224.5999999,107222.3,107238.9,118009.5,118010,2024-05-24T14:57:22Z,118065.2,NULL,NA,NA,NA,NA,NA,NA,NA,NA,NA,NA,NA,NA,NA,NA,NA,NA,NA,NA,NA,NA,NA,NA,NA,NA,NA,NA,NA,NA,NA
c1047,Deep Question,html.Page,3_0_0_0_0_0_0,NA,NA,form submission,7050.1999996185,118063.5999999,118058,118065.2,125115.39999962,125115.5999999,2024-05-24T14:57:29Z,125127.9,NULL,Ergänzung,kijalizo,d,NA,NA,NA,koil,NA,NA,0,NA,NA,NA,NA,NA,NA,NA,NA,NA,NA,NA,NA,NA,NA,NA,NA,NA,NA,NA
c1047,"""Richtig""-Screen",canvas.Screen,3_0_0_0_0_0_1,NA,NA,skipped,NA,125118.39999962,NA,NA,125115.39999962,125118.5999999,2024-05-24T14:57:29Z,125127.9,NULL,Ergänzung,kijalizo,d,NA,NA,NA,NA,sdf,NA,0,NA,NA,NA,NA,NA,NA,NA,NA,NA,NA,NA,NA,NA,NA,NA,NA,NA,NA,NA
c1047,"""Falsch""-Screen",canvas.Screen,3_0_0_0_0_0_2,NA,NA,timeout,4997,125119.29999971,125111.5,125127.9,130108.2,130109,2024-05-24T14:57:34Z,130124.9,NULL,Ergänzung,kijalizo,d,NA,NA,NA,NA,sdf,0,0,NA,NA,NA,NA,NA,NA,NA,NA,NA,NA,NA,NA,NA,NA,NA,NA,NA,NA,NA
c1047,deep,flow.Sequence,3_0_0_0_0_0,NA,NA,completion,12043,118063.5999999,118058,118065.2,130108.2,130109.39999962,2024-05-24T14:57:34Z,130124.9,NULL,Ergänzung,kijalizo,d,NA,NA,NA,NA,sdf,NA,0,NA,NA,NA,NA,NA,NA,NA,NA,NA,NA,NA,NA,NA,NA,NA,NA,NA,NA,NA
c1047,shallow,flow.Sequence,3_0_0_0_0_1,NA,NA,skipped,NA,130109.5999999,NA,NA,130108.2,130109.79999971,2024-05-24T14:57:34Z,130124.9,NULL,Ergänzung,kijalizo,d,NA,NA,NA,NA,sdf,NA,0,NA,NA,NA,NA,NA,NA,NA,NA,NA,NA,NA,NA,NA,NA,NA,NA,NA,NA,NA
c1047,task,flow.Sequence,3_0_0_0_0,NA,NA,completion,12043,118063.5999999,118058,118065.2,130108.2,130110,2024-05-24T14:57:34Z,130124.9,NULL,Ergänzung,kijalizo,d,NA,NA,NA,NA,sdf,NA,0,NA,NA,NA,NA,NA,NA,NA,NA,NA,NA,NA,NA,NA,NA,NA,NA,NA,NA,NA
c1047,deep,flow.Sequence,3_0_0_0_1_0,NA,NA,skipped,NA,130110.0999999,NA,NA,130108.2,130110.19999980999,2024-05-24T14:57:34Z,130124.9,NULL,Respekt,heshima,s,changamnao,upinzani,ufanisi,NA,sdf,NA,0,NA,NA,NA,NA,NA,NA,NA,NA,NA,NA,NA,NA,NA,NA,NA,NA,NA,NA,NA
c1047,Shallow Question,html.Page,3_0_0_0_1_1_0,NA,NA,form submission,16127.799999809,130110.39999962,130108.2,130124.9,146252.69999981,146253,2024-05-24T14:57:51Z,146264.9,NULL,Respekt,heshima,s,changamnao,upinzani,ufanisi,changamnao,NA,NA,0,NA,NA,NA,NA,NA,NA,NA,NA,NA,NA,NA,NA,NA,NA,NA,NA,NA,NA,NA
c1047,"""Richtig""-Screen",canvas.Screen,3_0_0_0_1_1_1,NA,NA,skipped,NA,146255.89999961999,NA,NA,146252.69999981,146256.0999999,2024-05-24T14:57:51Z,146264.9,NULL,Respekt,heshima,s,changamnao,upinzani,ufanisi,NA,sdf,NA,0,NA,NA,NA,NA,NA,NA,NA,NA,NA,NA,NA,NA,NA,NA,NA,NA,NA,NA,NA
c1047,"""Falsch""-Screen",canvas.Screen,3_0_0_0_1_1_2,NA,NA,timeout,4997.1,146256.79999971,146248.5,146264.9,151245.2,151245.5,2024-05-24T14:57:56Z,151262,NULL,Respekt,heshima,s,changamnao,upinzani,ufanisi,NA,sdf,0,0,NA,NA,NA,NA,NA,NA,NA,NA,NA,NA,NA,NA,NA,NA,NA,NA,NA,NA,NA
c1047,shallow,flow.Sequence,3_0_0_0_1_1,NA,NA,completion,21120.3,130110.29999971,130108.2,130124.9,151245.2,151245.5999999,2024-05-24T14:57:56Z,151262,NULL,Respekt,heshima,s,changamnao,upinzani,ufanisi,NA,sdf,NA,0,NA,NA,NA,NA,NA,NA,NA,NA,NA,NA,NA,NA,NA,NA,NA,NA,NA,NA,NA
c1047,task,flow.Sequence,3_0_0_0_1,NA,NA,completion,21120.3,130110,130108.2,130124.9,151245.2,151245.5999999,2024-05-24T14:57:56Z,151262,NULL,Respekt,heshima,s,changamnao,upinzani,ufanisi,NA,sdf,NA,0,NA,NA,NA,NA,NA,NA,NA,NA,NA,NA,NA,NA,NA,NA,NA,NA,NA,NA,NA
c1047,Deep Question,html.Page,3_0_0_0_2_0_0,NA,NA,form submission,5490.5999999046,151245.69999981,151245.2,151262,156752.5999999,156752.89999962,2024-05-24T14:58:01Z,156758.2,NULL,Stimmung,kinyongo,d,NA,NA,NA,kieiri,NA,NA,0,NA,NA,NA,NA,NA,NA,NA,NA,NA,NA,NA,NA,NA,NA,NA,NA,NA,NA,NA
c1047,"""Richtig""-Screen",canvas.Screen,3_0_0_0_2_0_1,NA,NA,skipped,NA,156755.79999971,NA,NA,156752.5999999,156756,2024-05-24T14:58:01Z,156758.2,NULL,Stimmung,kinyongo,d,NA,NA,NA,NA,sdf,NA,0,NA,NA,NA,NA,NA,NA,NA,NA,NA,NA,NA,NA,NA,NA,NA,NA,NA,NA,NA
c1047,"""Falsch""-Screen",canvas.Screen,3_0_0_0_2_0_2,NA,NA,timeout,4997.2,156756.69999981,156747.846,156758.2,161738.5,161739.5,2024-05-24T14:58:06Z,161755.4,NULL,Stimmung,kinyongo,d,NA,NA,NA,NA,sdf,0,0,NA,NA,NA,NA,NA,NA,NA,NA,NA,NA,NA,NA,NA,NA,NA,NA,NA,NA,NA
c1047,deep,flow.Sequence,3_0_0_0_2_0,NA,NA,completion,10476.5,151245.69999981,151245.2,151262,161738.5,161740,2024-05-24T14:58:06Z,161755.4,NULL,Stimmung,kinyongo,d,NA,NA,NA,NA,sdf,NA,0,NA,NA,NA,NA,NA,NA,NA,NA,NA,NA,NA,NA,NA,NA,NA,NA,NA,NA,NA
c1047,shallow,flow.Sequence,3_0_0_0_2_1,NA,NA,skipped,NA,161740.19999981,NA,NA,161738.5,161740.29999971,2024-05-24T14:58:06Z,161755.4,NULL,Stimmung,kinyongo,d,NA,NA,NA,NA,sdf,NA,0,NA,NA,NA,NA,NA,NA,NA,NA,NA,NA,NA,NA,NA,NA,NA,NA,NA,NA,NA
c1047,task,flow.Sequence,3_0_0_0_2,NA,NA,completion,10476.5,151245.69999981,151245.2,151262,161738.5,161740.5,2024-05-24T14:58:06Z,161755.4,NULL,Stimmung,kinyongo,d,NA,NA,NA,NA,sdf,NA,0,NA,NA,NA,NA,NA,NA,NA,NA,NA,NA,NA,NA,NA,NA,NA,NA,NA,NA,NA
c1047,Deep Question,html.Page,3_0_0_0_3_0_0,NA,NA,form submission,4189.7999998093,161740.69999981,161738.5,161755.4,165945.19999981,165945.5,2024-05-24T14:58:10Z,165952.6,NULL,Betrüger,mdanganyifu,d,NA,NA,NA,pozhj,NA,NA,0,NA,NA,NA,NA,NA,NA,NA,NA,NA,NA,NA,NA,NA,NA,NA,NA,NA,NA,NA
c1047,"""Richtig""-Screen",canvas.Screen,3_0_0_0_3_0_1,NA,NA,skipped,NA,165948.69999981,NA,NA,165945.19999981,165948.89999961999,2024-05-24T14:58:10Z,165952.6,NULL,Betrüger,mdanganyifu,d,NA,NA,NA,NA,sdf,NA,0,NA,NA,NA,NA,NA,NA,NA,NA,NA,NA,NA,NA,NA,NA,NA,NA,NA,NA,NA
c1047,"""Falsch""-Screen",canvas.Screen,3_0_0_0_3_0_2,NA,NA,timeout,4997.5,165949.5999999,165936.5,165952.6,170933.3,170934.79999971,2024-05-24T14:58:15Z,170950.1,NULL,Betrüger,mdanganyifu,d,NA,NA,NA,NA,sdf,0,0,NA,NA,NA,NA,NA,NA,NA,NA,NA,NA,NA,NA,NA,NA,NA,NA,NA,NA,NA
c1047,deep,flow.Sequence,3_0_0_0_3_0,NA,NA,completion,9177.9,161740.69999981,161738.5,161755.4,170933.3,170935.0999999,2024-05-24T14:58:15Z,170950.1,NULL,Betrüger,mdanganyifu,d,NA,NA,NA,NA,sdf,NA,0,NA,NA,NA,NA,NA,NA,NA,NA,NA,NA,NA,NA,NA,NA,NA,NA,NA,NA,NA
c1047,shallow,flow.Sequence,3_0_0_0_3_1,NA,NA,skipped,NA,170935.29999971,NA,NA,170933.3,170935.5,2024-05-24T14:58:15Z,170950.1,NULL,Betrüger,mdanganyifu,d,NA,NA,NA,NA,sdf,NA,0,NA,NA,NA,NA,NA,NA,NA,NA,NA,NA,NA,NA,NA,NA,NA,NA,NA,NA,NA
c1047,task,flow.Sequence,3_0_0_0_3,NA,NA,completion,9177.9,161740.69999981,161738.5,161755.4,170933.3,170935.69999981,2024-05-24T14:58:15Z,170950.1,NULL,Betrüger,mdanganyifu,d,NA,NA,NA,NA,sdf,NA,0,NA,NA,NA,NA,NA,NA,NA,NA,NA,NA,NA,NA,NA,NA,NA,NA,NA,NA,NA
c1047,deep,flow.Sequence,3_0_0_0_4_0,NA,NA,skipped,NA,170935.89999962,NA,NA,170933.3,170936,2024-05-24T14:58:15Z,170950.1,NULL,Notfall,dharura,s,rairai,malalamiko,ahueni,NA,sdf,NA,0,NA,NA,NA,NA,NA,NA,NA,NA,NA,NA,NA,NA,NA,NA,NA,NA,NA,NA,NA
c1047,Shallow Question,html.Page,3_0_0_0_4_1_0,NA,NA,form submission,7168.4,170936.0999999,170933.3,170950.1,178118.5,178118.69999981,2024-05-24T14:58:22Z,178145.5,NULL,Notfall,dharura,s,rairai,malalamiko,ahueni,malalamiko,NA,NA,0,NA,NA,NA,NA,NA,NA,NA,NA,NA,NA,NA,NA,NA,NA,NA,NA,NA,NA,NA
c1047,"""Richtig""-Screen",canvas.Screen,3_0_0_0_4_1_1,NA,NA,skipped,NA,178121.5999999,NA,NA,178118.5,178121.69999981,2024-05-24T14:58:22Z,178145.5,NULL,Notfall,dharura,s,rairai,malalamiko,ahueni,NA,sdf,NA,0,NA,NA,NA,NA,NA,NA,NA,NA,NA,NA,NA,NA,NA,NA,NA,NA,NA,NA,NA
c1047,"""Falsch""-Screen",canvas.Screen,3_0_0_0_4_1_2,NA,NA,timeout,4997.2,178122.5,178129.13,178145.5,183125.5,183126.39999962,2024-05-24T14:58:27Z,183142.7,NULL,Notfall,dharura,s,rairai,malalamiko,ahueni,NA,sdf,0,0,NA,NA,NA,NA,NA,NA,NA,NA,NA,NA,NA,NA,NA,NA,NA,NA,NA,NA,NA
c1047,shallow,flow.Sequence,3_0_0_0_4_1,NA,NA,completion,12175.4,170936.0999999,170933.3,170950.1,183125.5,183126.79999971,2024-05-24T14:58:27Z,183142.7,NULL,Notfall,dharura,s,rairai,malalamiko,ahueni,NA,sdf,NA,0,NA,NA,NA,NA,NA,NA,NA,NA,NA,NA,NA,NA,NA,NA,NA,NA,NA,NA,NA
c1047,task,flow.Sequence,3_0_0_0_4,NA,NA,completion,12175.4,170935.79999971,170933.3,170950.1,183125.5,183126.89999962,2024-05-24T14:58:27Z,183142.7,NULL,Notfall,dharura,s,rairai,malalamiko,ahueni,NA,sdf,NA,0,NA,NA,NA,NA,NA,NA,NA,NA,NA,NA,NA,NA,NA,NA,NA,NA,NA,NA,NA
c1047,deep,flow.Sequence,3_0_0_0_5_0,NA,NA,skipped,NA,183127.0999999,NA,NA,183125.5,183127.29999971,2024-05-24T14:58:27Z,183142.7,NULL,Vergnügen,kichekesho,s,dubwana,mpanuko,mtesaji,NA,sdf,NA,0,NA,NA,NA,NA,NA,NA,NA,NA,NA,NA,NA,NA,NA,NA,NA,NA,NA,NA,NA
c1047,Shallow Question,html.Page,3_0_0_0_5_1_0,NA,NA,form submission,7721.0999997139,183127.5,183125.5,183142.7,190863.79999971,190863.89999962,2024-05-24T14:58:35Z,190870.8,NULL,Vergnügen,kichekesho,s,dubwana,mpanuko,mtesaji,dubwana,NA,NA,0,NA,NA,NA,NA,NA,NA,NA,NA,NA,NA,NA,NA,NA,NA,NA,NA,NA,NA,NA
c1047,"""Richtig""-Screen",canvas.Screen,3_0_0_0_5_1_1,NA,NA,skipped,NA,190865.19999981,NA,NA,190863.79999971,190865.5999999,2024-05-24T14:58:35Z,190870.8,NULL,Vergnügen,kichekesho,s,dubwana,mpanuko,mtesaji,NA,sdf,NA,0,NA,NA,NA,NA,NA,NA,NA,NA,NA,NA,NA,NA,NA,NA,NA,NA,NA,NA,NA
c1047,"""Falsch""-Screen",canvas.Screen,3_0_0_0_5_1_2,NA,NA,timeout,4997.3,190866,190854.224,190870.8,195851.1,195851.89999961999,2024-05-24T14:58:40Z,195868.1,NULL,Vergnügen,kichekesho,s,dubwana,mpanuko,mtesaji,NA,sdf,0,0,NA,NA,NA,NA,NA,NA,NA,NA,NA,NA,NA,NA,NA,NA,NA,NA,NA,NA,NA
c1047,shallow,flow.Sequence,3_0_0_0_5_1,NA,NA,completion,12708.4,183127.39999961999,183125.5,183142.7,195851.1,195852.29999971,2024-05-24T14:58:40Z,195868.1,NULL,Vergnügen,kichekesho,s,dubwana,mpanuko,mtesaji,NA,sdf,NA,0,NA,NA,NA,NA,NA,NA,NA,NA,NA,NA,NA,NA,NA,NA,NA,NA,NA,NA,NA
c1047,task,flow.Sequence,3_0_0_0_5,NA,NA,completion,12708.4,183127.0999999,183125.5,183142.7,195851.1,195852.5,2024-05-24T14:58:40Z,195868.1,NULL,Vergnügen,kichekesho,s,dubwana,mpanuko,mtesaji,NA,sdf,NA,0,NA,NA,NA,NA,NA,NA,NA,NA,NA,NA,NA,NA,NA,NA,NA,NA,NA,NA,NA
c1047,deep,flow.Sequence,3_0_0_0_6_0,NA,NA,skipped,NA,195852.69999981,NA,NA,195851.1,195852.89999962,2024-05-24T14:58:40Z,195868.1,NULL,Orientierung,urekebisho,s,uelekeo,marekebisho,utunzaji,NA,sdf,NA,0,NA,NA,NA,NA,NA,NA,NA,NA,NA,NA,NA,NA,NA,NA,NA,NA,NA,NA,NA
c1047,Shallow Question,html.Page,3_0_0_0_6_1_0,NA,NA,form submission,5790.1999997139,195853,195851.1,195868.1,201658.29999971,201658.5999999,2024-05-24T14:58:46Z,201664.66,NULL,Orientierung,urekebisho,s,uelekeo,marekebisho,utunzaji,uelekeo,NA,NA,0,NA,NA,NA,NA,NA,NA,NA,NA,NA,NA,NA,NA,NA,NA,NA,NA,NA,NA,NA
c1047,"""Richtig""-Screen",canvas.Screen,3_0_0_0_6_1_1,NA,NA,skipped,NA,201661.5999999,NA,NA,201658.29999971,201661.79999971,2024-05-24T14:58:46Z,201664.66,NULL,Orientierung,urekebisho,s,uelekeo,marekebisho,utunzaji,NA,sdf,NA,0,NA,NA,NA,NA,NA,NA,NA,NA,NA,NA,NA,NA,NA,NA,NA,NA,NA,NA,NA
c1047,"""Falsch""-Screen",canvas.Screen,3_0_0_0_6_1_2,NA,NA,timeout,4996.74,201662.39999961999,201664.66,201664.66,206645,206646,2024-05-24T14:58:51Z,206661.4,NULL,Orientierung,urekebisho,s,uelekeo,marekebisho,utunzaji,NA,sdf,0,0,NA,NA,NA,NA,NA,NA,NA,NA,NA,NA,NA,NA,NA,NA,NA,NA,NA,NA,NA
c1047,shallow,flow.Sequence,3_0_0_0_6_1,NA,NA,completion,10776.9,195852.89999962,195851.1,195868.1,206645,206646.5,2024-05-24T14:58:51Z,206661.4,NULL,Orientierung,urekebisho,s,uelekeo,marekebisho,utunzaji,NA,sdf,NA,0,NA,NA,NA,NA,NA,NA,NA,NA,NA,NA,NA,NA,NA,NA,NA,NA,NA,NA,NA
c1047,task,flow.Sequence,3_0_0_0_6,NA,NA,completion,10776.9,195852.69999981,195851.1,195868.1,206645,206646.69999981,2024-05-24T14:58:51Z,206661.4,NULL,Orientierung,urekebisho,s,uelekeo,marekebisho,utunzaji,NA,sdf,NA,0,NA,NA,NA,NA,NA,NA,NA,NA,NA,NA,NA,NA,NA,NA,NA,NA,NA,NA,NA
c1047,Deep Question,html.Page,3_0_0_0_7_0_0,NA,NA,form submission,3895.8999997139,206647.0999999,206645,206661.4,210557.29999971,210557.39999962,2024-05-24T14:58:55Z,210559.388,NULL,Wohlstand,mafanikio,d,NA,NA,NA,poihg,NA,NA,0,NA,NA,NA,NA,NA,NA,NA,NA,NA,NA,NA,NA,NA,NA,NA,NA,NA,NA,NA
c1047,"""Richtig""-Screen",canvas.Screen,3_0_0_0_7_0_1,NA,NA,skipped,NA,210560.5,NA,NA,210557.29999971,210560.69999981,2024-05-24T14:58:55Z,210559.388,NULL,Wohlstand,mafanikio,d,NA,NA,NA,NA,sdf,NA,0,NA,NA,NA,NA,NA,NA,NA,NA,NA,NA,NA,NA,NA,NA,NA,NA,NA,NA,NA
c1047,"""Falsch""-Screen",canvas.Screen,3_0_0_0_7_0_2,NA,NA,timeout,4996.312,210561.19999981,210559.388,210559.388,215539,215540.89999962,2024-05-24T14:59:00Z,215555.7,NULL,Wohlstand,mafanikio,d,NA,NA,NA,NA,sdf,0,0,NA,NA,NA,NA,NA,NA,NA,NA,NA,NA,NA,NA,NA,NA,NA,NA,NA,NA,NA
c1047,deep,flow.Sequence,3_0_0_0_7_0,NA,NA,completion,8877.6,206647,206645,206661.4,215539,215541,2024-05-24T14:59:00Z,215555.7,NULL,Wohlstand,mafanikio,d,NA,NA,NA,NA,sdf,NA,0,NA,NA,NA,NA,NA,NA,NA,NA,NA,NA,NA,NA,NA,NA,NA,NA,NA,NA,NA
c1047,shallow,flow.Sequence,3_0_0_0_7_1,NA,NA,skipped,NA,215541.0999999,NA,NA,215539,215541.0999999,2024-05-24T14:59:00Z,215555.7,NULL,Wohlstand,mafanikio,d,NA,NA,NA,NA,sdf,NA,0,NA,NA,NA,NA,NA,NA,NA,NA,NA,NA,NA,NA,NA,NA,NA,NA,NA,NA,NA
c1047,task,flow.Sequence,3_0_0_0_7,NA,NA,completion,8877.6,206647,206645,206661.4,215539,215541.0999999,2024-05-24T14:59:00Z,215555.7,NULL,Wohlstand,mafanikio,d,NA,NA,NA,NA,sdf,NA,0,NA,NA,NA,NA,NA,NA,NA,NA,NA,NA,NA,NA,NA,NA,NA,NA,NA,NA,NA
c1047,block,flow.Loop,3_0_0_0,NA,NA,completion,97473.8,118063.5999999,118058,118065.2,215539,215541.19999981,2024-05-24T14:59:00Z,215555.7,NULL,NA,NA,NA,NA,NA,NA,NA,sdf,NA,0,NA,NA,NA,NA,NA,NA,NA,NA,NA,NA,NA,NA,NA,NA,NA,NA,NA,NA,NA
c1047,weiter,canvas.Screen,3_0_0_1,sdf,keypress(Space),response,1287.6999996185,215541.19999981,215539,215555.7,216843.39999961999,216844.5,2024-05-24T14:59:01Z,216871.5,NULL,NA,NA,NA,NA,NA,NA,NA,sdf,NA,0,NA,NA,NA,NA,NA,NA,NA,NA,NA,NA,NA,NA,NA,NA,NA,NA,NA,NA,NA
c1047,check continue,flow.Sequence,3_0_0,NA,NA,completion,98778.199999619,118063.5999999,118058,118065.2,216843.39999961999,216844.79999971,2024-05-24T14:59:01Z,216871.5,NULL,NA,NA,NA,NA,NA,NA,NA,sdf,NA,0,NA,NA,NA,NA,NA,NA,NA,NA,NA,NA,NA,NA,NA,NA,NA,NA,NA,NA,NA
c1047,Deep Question,html.Page,3_0_1_0_0_0_0,NA,NA,form submission,5890.1999998093,216864.5,216855.648,216871.5,222761.69999981,222761.89999962,2024-05-24T14:59:07Z,222768,NULL,Betrüger,mdanganyifu,d,NA,NA,NA,mayagio,NA,NA,1,NA,NA,NA,NA,NA,NA,NA,NA,NA,NA,NA,NA,NA,NA,NA,NA,NA,NA,NA
c1047,"""Richtig""-Screen",canvas.Screen,3_0_1_0_0_0_1,NA,NA,skipped,NA,222763.69999981,NA,NA,222761.69999981,222763.69999981,2024-05-24T14:59:07Z,222768,NULL,Betrüger,mdanganyifu,d,NA,NA,NA,NA,sdfdsf,NA,1,NA,NA,NA,NA,NA,NA,NA,NA,NA,NA,NA,NA,NA,NA,NA,NA,NA,NA,NA
c1047,"""Falsch""-Screen",canvas.Screen,3_0_1_0_0_0_2,NA,NA,timeout,4997.4,222764.29999971,222753.538,222768,227748.7,227749.39999961999,2024-05-24T14:59:12Z,227765.4,NULL,Betrüger,mdanganyifu,d,NA,NA,NA,NA,sdfdsf,0,1,NA,NA,NA,NA,NA,NA,NA,NA,NA,NA,NA,NA,NA,NA,NA,NA,NA,NA,NA
c1047,deep,flow.Sequence,3_0_1_0_0_0,NA,NA,completion,10877.2,216864.5,216855.648,216871.5,227748.7,227749.79999971,2024-05-24T14:59:12Z,227765.4,NULL,Betrüger,mdanganyifu,d,NA,NA,NA,NA,sdfdsf,NA,1,NA,NA,NA,NA,NA,NA,NA,NA,NA,NA,NA,NA,NA,NA,NA,NA,NA,NA,NA
c1047,shallow,flow.Sequence,3_0_1_0_0_1,NA,NA,skipped,NA,227749.89999962,NA,NA,227748.7,227750,2024-05-24T14:59:12Z,227765.4,NULL,Betrüger,mdanganyifu,d,NA,NA,NA,NA,sdfdsf,NA,1,NA,NA,NA,NA,NA,NA,NA,NA,NA,NA,NA,NA,NA,NA,NA,NA,NA,NA,NA
c1047,task,flow.Sequence,3_0_1_0_0,NA,NA,completion,10877.2,216864.5,216855.648,216871.5,227748.7,227750.19999981,2024-05-24T14:59:12Z,227765.4,NULL,Betrüger,mdanganyifu,d,NA,NA,NA,NA,sdfdsf,NA,1,NA,NA,NA,NA,NA,NA,NA,NA,NA,NA,NA,NA,NA,NA,NA,NA,NA,NA,NA
c1047,deep,flow.Sequence,3_0_1_0_1_0,NA,NA,skipped,NA,227750.29999971,NA,NA,227748.7,227750.39999962,2024-05-24T14:59:12Z,227765.4,NULL,Orientierung,urekebisho,s,uelekeo,marekebisho,utunzaji,NA,sdfdsf,NA,1,NA,NA,NA,NA,NA,NA,NA,NA,NA,NA,NA,NA,NA,NA,NA,NA,NA,NA,NA
c1047,Shallow Question,html.Page,3_0_1_0_1_1_0,NA,NA,form submission,6043.3999997139,227750.5,227748.7,227765.4,233808.79999971,233808.89999962,2024-05-24T14:59:18Z,233811.66,NULL,Orientierung,urekebisho,s,uelekeo,marekebisho,utunzaji,urekebisho,NA,NA,1,NA,NA,NA,NA,NA,NA,NA,NA,NA,NA,NA,NA,NA,NA,NA,NA,NA,NA,NA
c1047,"""Richtig""-Screen",canvas.Screen,3_0_1_0_1_1_1,NA,NA,timeout,4996.94,233811.89999962,233811.66,233811.66,238792,238792.89999961999,2024-05-24T14:59:23Z,238808.6,NULL,Orientierung,urekebisho,s,uelekeo,marekebisho,utunzaji,NA,sdfdsf,1,1,NA,NA,NA,NA,NA,NA,NA,NA,NA,NA,NA,NA,NA,NA,NA,NA,NA,NA,NA
c1047,"""Falsch""-Screen",canvas.Screen,3_0_1_0_1_1_2,NA,NA,skipped,NA,238798.19999981,NA,NA,238792,238798.29999971,2024-05-24T14:59:23Z,238808.6,NULL,Orientierung,urekebisho,s,uelekeo,marekebisho,utunzaji,NA,sdfdsf,NA,1,NA,NA,NA,NA,NA,NA,NA,NA,NA,NA,NA,NA,NA,NA,NA,NA,NA,NA,NA
c1047,shallow,flow.Sequence,3_0_1_0_1_1,NA,NA,completion,11026.6,227750.5,227748.7,227765.4,238792,238798.39999961999,2024-05-24T14:59:23Z,238808.6,NULL,Orientierung,urekebisho,s,uelekeo,marekebisho,utunzaji,NA,sdfdsf,NA,1,NA,NA,NA,NA,NA,NA,NA,NA,NA,NA,NA,NA,NA,NA,NA,NA,NA,NA,NA
c1047,task,flow.Sequence,3_0_1_0_1,NA,NA,completion,11026.6,227750.29999971,227748.7,227765.4,238792,238798.5,2024-05-24T14:59:23Z,238808.6,NULL,Orientierung,urekebisho,s,uelekeo,marekebisho,utunzaji,NA,sdfdsf,NA,1,NA,NA,NA,NA,NA,NA,NA,NA,NA,NA,NA,NA,NA,NA,NA,NA,NA,NA,NA
c1047,Deep Question,html.Page,3_0_1_0_2_0_0,NA,NA,form submission,8199.0999998093,238798.5,238792,238808.6,247007.69999981,247007.89999962,2024-05-24T14:59:31Z,247019.8,NULL,Wohlstand,mafanikio,d,NA,NA,NA,mayanga,NA,NA,1,NA,NA,NA,NA,NA,NA,NA,NA,NA,NA,NA,NA,NA,NA,NA,NA,NA,NA,NA
c1047,"""Richtig""-Screen",canvas.Screen,3_0_1_0_2_0_1,NA,NA,skipped,NA,247010.89999962,NA,NA,247007.69999981,247011,2024-05-24T14:59:31Z,247019.8,NULL,Wohlstand,mafanikio,d,NA,NA,NA,NA,sdfdsf,NA,1,NA,NA,NA,NA,NA,NA,NA,NA,NA,NA,NA,NA,NA,NA,NA,NA,NA,NA,NA
c1047,"""Falsch""-Screen",canvas.Screen,3_0_1_0_2_0_2,NA,NA,timeout,4997.3,247011.79999971,247004.22,247019.8,252000.6,252001.39999961999,2024-05-24T14:59:36Z,252017.1,NULL,Wohlstand,mafanikio,d,NA,NA,NA,NA,sdfdsf,0,1,NA,NA,NA,NA,NA,NA,NA,NA,NA,NA,NA,NA,NA,NA,NA,NA,NA,NA,NA
c1047,deep,flow.Sequence,3_0_1_0_2_0,NA,NA,completion,13192,238798.5,238792,238808.6,252000.6,252001.69999981,2024-05-24T14:59:36Z,252017.1,NULL,Wohlstand,mafanikio,d,NA,NA,NA,NA,sdfdsf,NA,1,NA,NA,NA,NA,NA,NA,NA,NA,NA,NA,NA,NA,NA,NA,NA,NA,NA,NA,NA
c1047,shallow,flow.Sequence,3_0_1_0_2_1,NA,NA,skipped,NA,252001.79999971,NA,NA,252000.6,252002,2024-05-24T14:59:36Z,252017.1,NULL,Wohlstand,mafanikio,d,NA,NA,NA,NA,sdfdsf,NA,1,NA,NA,NA,NA,NA,NA,NA,NA,NA,NA,NA,NA,NA,NA,NA,NA,NA,NA,NA
c1047,task,flow.Sequence,3_0_1_0_2,NA,NA,completion,13192,238798.5,238792,238808.6,252000.6,252002.0999999,2024-05-24T14:59:36Z,252017.1,NULL,Wohlstand,mafanikio,d,NA,NA,NA,NA,sdfdsf,NA,1,NA,NA,NA,NA,NA,NA,NA,NA,NA,NA,NA,NA,NA,NA,NA,NA,NA,NA,NA
c1047,deep,flow.Sequence,3_0_1_0_3_0,NA,NA,skipped,NA,252002.39999962,NA,NA,252000.6,252002.39999962,2024-05-24T14:59:36Z,252017.1,NULL,Vergnügen,kichekesho,s,dubwana,mpanuko,mtesaji,NA,sdfdsf,NA,1,NA,NA,NA,NA,NA,NA,NA,NA,NA,NA,NA,NA,NA,NA,NA,NA,NA,NA,NA
c1047,Shallow Question,html.Page,3_0_1_0_3_1_0,NA,NA,form submission,4578.6999997139,252002.5999999,252000.6,252017.1,256595.79999971,256596.19999981,2024-05-24T14:59:41Z,256598.018,NULL,Vergnügen,kichekesho,s,dubwana,mpanuko,mtesaji,kichekesho,NA,NA,1,NA,NA,NA,NA,NA,NA,NA,NA,NA,NA,NA,NA,NA,NA,NA,NA,NA,NA,NA
c1047,"""Richtig""-Screen",canvas.Screen,3_0_1_0_3_1_1,NA,NA,timeout,4996.782,256598.69999981,256598.018,256598.018,261578,261578.29999971,2024-05-24T14:59:46Z,261594.8,NULL,Vergnügen,kichekesho,s,dubwana,mpanuko,mtesaji,NA,sdfdsf,1,1,NA,NA,NA,NA,NA,NA,NA,NA,NA,NA,NA,NA,NA,NA,NA,NA,NA,NA,NA
c1047,"""Falsch""-Screen",canvas.Screen,3_0_1_0_3_1_2,NA,NA,skipped,NA,261579.89999961999,NA,NA,261578,261580,2024-05-24T14:59:46Z,261594.8,NULL,Vergnügen,kichekesho,s,dubwana,mpanuko,mtesaji,NA,sdfdsf,NA,1,NA,NA,NA,NA,NA,NA,NA,NA,NA,NA,NA,NA,NA,NA,NA,NA,NA,NA,NA
c1047,shallow,flow.Sequence,3_0_1_0_3_1,NA,NA,completion,9560.9,252002.5,252000.6,252017.1,261578,261580,2024-05-24T14:59:46Z,261594.8,NULL,Vergnügen,kichekesho,s,dubwana,mpanuko,mtesaji,NA,sdfdsf,NA,1,NA,NA,NA,NA,NA,NA,NA,NA,NA,NA,NA,NA,NA,NA,NA,NA,NA,NA,NA
c1047,task,flow.Sequence,3_0_1_0_3,NA,NA,completion,9560.9,252002.29999971,252000.6,252017.1,261578,261580.19999981,2024-05-24T14:59:46Z,261594.8,NULL,Vergnügen,kichekesho,s,dubwana,mpanuko,mtesaji,NA,sdfdsf,NA,1,NA,NA,NA,NA,NA,NA,NA,NA,NA,NA,NA,NA,NA,NA,NA,NA,NA,NA,NA
c1047,deep,flow.Sequence,3_0_1_0_4_0,NA,NA,skipped,NA,261580.19999981,NA,NA,261578,261580.29999971,2024-05-24T14:59:46Z,261594.8,NULL,Notfall,dharura,s,rairai,malalamiko,ahueni,NA,sdfdsf,NA,1,NA,NA,NA,NA,NA,NA,NA,NA,NA,NA,NA,NA,NA,NA,NA,NA,NA,NA,NA
c1047,Shallow Question,html.Page,3_0_1_0_4_1_0,NA,NA,form submission,5232.0999996185,261580.29999971,261578,261594.8,266826.89999962,266827.0999999,2024-05-24T14:59:51Z,266841.6,NULL,Notfall,dharura,s,rairai,malalamiko,ahueni,dharura,NA,NA,1,NA,NA,NA,NA,NA,NA,NA,NA,NA,NA,NA,NA,NA,NA,NA,NA,NA,NA,NA
c1047,"""Richtig""-Screen",canvas.Screen,3_0_1_0_4_1_1,NA,NA,timeout,4996.7,266829.89999962,266825.192,266841.6,271821.8,271822.69999981,2024-05-24T14:59:56Z,271838.3,NULL,Notfall,dharura,s,rairai,malalamiko,ahueni,NA,sdfdsf,1,1,NA,NA,NA,NA,NA,NA,NA,NA,NA,NA,NA,NA,NA,NA,NA,NA,NA,NA,NA
c1047,"""Falsch""-Screen",canvas.Screen,3_0_1_0_4_1_2,NA,NA,skipped,NA,271827.69999981,NA,NA,271821.8,271828,2024-05-24T14:59:56Z,271838.3,NULL,Notfall,dharura,s,rairai,malalamiko,ahueni,NA,sdfdsf,NA,1,NA,NA,NA,NA,NA,NA,NA,NA,NA,NA,NA,NA,NA,NA,NA,NA,NA,NA,NA
c1047,shallow,flow.Sequence,3_0_1_0_4_1,NA,NA,completion,10227,261580.29999971,261578,261594.8,271821.8,271828.29999971,2024-05-24T14:59:56Z,271838.3,NULL,Notfall,dharura,s,rairai,malalamiko,ahueni,NA,sdfdsf,NA,1,NA,NA,NA,NA,NA,NA,NA,NA,NA,NA,NA,NA,NA,NA,NA,NA,NA,NA,NA
c1047,task,flow.Sequence,3_0_1_0_4,NA,NA,completion,10227,261580.19999981,261578,261594.8,271821.8,271828.39999962,2024-05-24T14:59:56Z,271838.3,NULL,Notfall,dharura,s,rairai,malalamiko,ahueni,NA,sdfdsf,NA,1,NA,NA,NA,NA,NA,NA,NA,NA,NA,NA,NA,NA,NA,NA,NA,NA,NA,NA,NA
c1047,Deep Question,html.Page,3_0_1_0_5_0_0,NA,NA,form submission,11779.299999905,271828.5999999,271821.8,271838.3,283617.5999999,283617.79999971,2024-05-24T15:00:08Z,283630.9,NULL,Ergänzung,kijalizo,d,NA,NA,NA,mozinga,NA,NA,1,NA,NA,NA,NA,NA,NA,NA,NA,NA,NA,NA,NA,NA,NA,NA,NA,NA,NA,NA
c1047,"""Richtig""-Screen",canvas.Screen,3_0_1_0_5_0_1,NA,NA,skipped,NA,283620.89999962,NA,NA,283617.5999999,283621.0999999,2024-05-24T15:00:08Z,283630.9,NULL,Ergänzung,kijalizo,d,NA,NA,NA,NA,sdfdsf,NA,1,NA,NA,NA,NA,NA,NA,NA,NA,NA,NA,NA,NA,NA,NA,NA,NA,NA,NA,NA
c1047,"""Falsch""-Screen",canvas.Screen,3_0_1_0_5_0_2,NA,NA,timeout,4997,283621.79999971,283612,283630.9,288611.2,288612,2024-05-24T15:00:13Z,288627.9,NULL,Ergänzung,kijalizo,d,NA,NA,NA,NA,sdfdsf,0,1,NA,NA,NA,NA,NA,NA,NA,NA,NA,NA,NA,NA,NA,NA,NA,NA,NA,NA,NA
c1047,deep,flow.Sequence,3_0_1_0_5_0,NA,NA,completion,16772.9,271828.5999999,271821.8,271838.3,288611.2,288612.5,2024-05-24T15:00:13Z,288627.9,NULL,Ergänzung,kijalizo,d,NA,NA,NA,NA,sdfdsf,NA,1,NA,NA,NA,NA,NA,NA,NA,NA,NA,NA,NA,NA,NA,NA,NA,NA,NA,NA,NA
c1047,shallow,flow.Sequence,3_0_1_0_5_1,NA,NA,skipped,NA,288612.5,NA,NA,288611.2,288612.69999981,2024-05-24T15:00:13Z,288627.9,NULL,Ergänzung,kijalizo,d,NA,NA,NA,NA,sdfdsf,NA,1,NA,NA,NA,NA,NA,NA,NA,NA,NA,NA,NA,NA,NA,NA,NA,NA,NA,NA,NA
c1047,task,flow.Sequence,3_0_1_0_5,NA,NA,completion,16772.9,271828.5999999,271821.8,271838.3,288611.2,288612.89999962,2024-05-24T15:00:13Z,288627.9,NULL,Ergänzung,kijalizo,d,NA,NA,NA,NA,sdfdsf,NA,1,NA,NA,NA,NA,NA,NA,NA,NA,NA,NA,NA,NA,NA,NA,NA,NA,NA,NA,NA
c1047,Deep Question,html.Page,3_0_1_0_6_0_0,NA,NA,form submission,9799.1999999046,288613.0999999,288611.2,288627.9,298427.0999999,298427.29999971,2024-05-24T15:00:23Z,298438.5,NULL,Stimmung,kinyongo,d,NA,NA,NA,mayangza,NA,NA,1,NA,NA,NA,NA,NA,NA,NA,NA,NA,NA,NA,NA,NA,NA,NA,NA,NA,NA,NA
c1047,"""Richtig""-Screen",canvas.Screen,3_0_1_0_6_0_1,NA,NA,skipped,NA,298428.79999971,NA,NA,298427.0999999,298428.79999971,2024-05-24T15:00:23Z,298438.5,NULL,Stimmung,kinyongo,d,NA,NA,NA,NA,sdfdsf,NA,1,NA,NA,NA,NA,NA,NA,NA,NA,NA,NA,NA,NA,NA,NA,NA,NA,NA,NA,NA
c1047,"""Falsch""-Screen",canvas.Screen,3_0_1_0_6_0_2,NA,NA,timeout,4997.1,298429.19999981,298422.726,298438.5,303419.1,303420,2024-05-24T15:00:28Z,303435.6,NULL,Stimmung,kinyongo,d,NA,NA,NA,NA,sdfdsf,0,1,NA,NA,NA,NA,NA,NA,NA,NA,NA,NA,NA,NA,NA,NA,NA,NA,NA,NA,NA
c1047,deep,flow.Sequence,3_0_1_0_6_0,NA,NA,completion,14791.2,288613.0999999,288611.2,288627.9,303419.1,303420.29999971,2024-05-24T15:00:28Z,303435.6,NULL,Stimmung,kinyongo,d,NA,NA,NA,NA,sdfdsf,NA,1,NA,NA,NA,NA,NA,NA,NA,NA,NA,NA,NA,NA,NA,NA,NA,NA,NA,NA,NA
c1047,shallow,flow.Sequence,3_0_1_0_6_1,NA,NA,skipped,NA,303420.5,NA,NA,303419.1,303420.69999981,2024-05-24T15:00:28Z,303435.6,NULL,Stimmung,kinyongo,d,NA,NA,NA,NA,sdfdsf,NA,1,NA,NA,NA,NA,NA,NA,NA,NA,NA,NA,NA,NA,NA,NA,NA,NA,NA,NA,NA
c1047,task,flow.Sequence,3_0_1_0_6,NA,NA,completion,14791.2,288613,288611.2,288627.9,303419.1,303420.79999971,2024-05-24T15:00:28Z,303435.6,NULL,Stimmung,kinyongo,d,NA,NA,NA,NA,sdfdsf,NA,1,NA,NA,NA,NA,NA,NA,NA,NA,NA,NA,NA,NA,NA,NA,NA,NA,NA,NA,NA
c1047,deep,flow.Sequence,3_0_1_0_7_0,NA,NA,skipped,NA,303421,NA,NA,303419.1,303421,2024-05-24T15:00:28Z,303435.6,NULL,Respekt,heshima,s,changamnao,upinzani,ufanisi,NA,sdfdsf,NA,1,NA,NA,NA,NA,NA,NA,NA,NA,NA,NA,NA,NA,NA,NA,NA,NA,NA,NA,NA
c1047,Shallow Question,html.Page,3_0_1_0_7_1_0,NA,NA,form submission,6557.5999998093,303421.19999981,303419.1,303435.6,309993.19999981,309993.39999962,2024-05-24T15:00:34Z,310014.8,NULL,Respekt,heshima,s,changamnao,upinzani,ufanisi,heshima,NA,NA,1,NA,NA,NA,NA,NA,NA,NA,NA,NA,NA,NA,NA,NA,NA,NA,NA,NA,NA,NA
c1047,"""Richtig""-Screen",canvas.Screen,3_0_1_0_7_1_1,NA,NA,timeout,4997.5,309996.39999962,309998.596,310014.8,314995.7,314995.89999962,2024-05-24T15:00:39Z,315012.3,NULL,Respekt,heshima,s,changamnao,upinzani,ufanisi,NA,sdfdsf,1,1,NA,NA,NA,NA,NA,NA,NA,NA,NA,NA,NA,NA,NA,NA,NA,NA,NA,NA,NA
c1047,"""Falsch""-Screen",canvas.Screen,3_0_1_0_7_1_2,NA,NA,skipped,NA,314997.29999971,NA,NA,314995.7,314997.39999962,2024-05-24T15:00:39Z,315012.3,NULL,Respekt,heshima,s,changamnao,upinzani,ufanisi,NA,sdfdsf,NA,1,NA,NA,NA,NA,NA,NA,NA,NA,NA,NA,NA,NA,NA,NA,NA,NA,NA,NA,NA
c1047,shallow,flow.Sequence,3_0_1_0_7_1,NA,NA,completion,11560.1,303421.19999981,303419.1,303435.6,314995.7,314997.39999962,2024-05-24T15:00:39Z,315012.3,NULL,Respekt,heshima,s,changamnao,upinzani,ufanisi,NA,sdfdsf,NA,1,NA,NA,NA,NA,NA,NA,NA,NA,NA,NA,NA,NA,NA,NA,NA,NA,NA,NA,NA
c1047,task,flow.Sequence,3_0_1_0_7,NA,NA,completion,11560.1,303420.89999962,303419.1,303435.6,314995.7,314997.5,2024-05-24T15:00:39Z,315012.3,NULL,Respekt,heshima,s,changamnao,upinzani,ufanisi,NA,sdfdsf,NA,1,NA,NA,NA,NA,NA,NA,NA,NA,NA,NA,NA,NA,NA,NA,NA,NA,NA,NA,NA
c1047,block,flow.Loop,3_0_1_0,NA,NA,completion,98124.2,216864.39999962,216855.648,216871.5,314995.7,314997.5999999,2024-05-24T15:00:39Z,315012.3,NULL,NA,NA,NA,NA,NA,NA,NA,sdfdsf,NA,1,NA,NA,NA,NA,NA,NA,NA,NA,NA,NA,NA,NA,NA,NA,NA,NA,NA,NA,NA
c1047,weiter,canvas.Screen,3_0_1_1,sdf,keypress(Space),response,1047.7,314997.5999999,314995.7,315012.3,316060,316060.5,2024-05-24T15:00:40Z,316094.8,NULL,NA,NA,NA,NA,NA,NA,NA,sdfdsf,NA,1,NA,NA,NA,NA,NA,NA,NA,NA,NA,NA,NA,NA,NA,NA,NA,NA,NA,NA,NA
c1047,check continue,flow.Sequence,3_0_1,NA,NA,completion,99188.5,216864.39999962,216855.648,216871.5,316060,316060.5999999,2024-05-24T15:00:40Z,316094.8,NULL,NA,NA,NA,NA,NA,NA,NA,sdfdsf,NA,1,NA,NA,NA,NA,NA,NA,NA,NA,NA,NA,NA,NA,NA,NA,NA,NA,NA,NA,NA
c1047,Deep Question,html.Page,3_0_2_0_0_0_0,NA,NA,form submission,9205.3999998093,316080.29999971,316078.924,316094.8,325300.19999981,325300.39999962,2024-05-24T15:00:50Z,325305.3,NULL,Stimmung,kinyongo,d,NA,NA,NA,kijyongo,NA,NA,2,NA,NA,NA,NA,NA,NA,NA,NA,NA,NA,NA,NA,NA,NA,NA,NA,NA,NA,NA
c1047,"""Richtig""-Screen",canvas.Screen,3_0_2_0_0_0_1,NA,NA,skipped,NA,325303.39999962,NA,NA,325300.19999981,325303.5,2024-05-24T15:00:50Z,325305.3,NULL,Stimmung,kinyongo,d,NA,NA,NA,NA,sdf,NA,2,NA,NA,NA,NA,NA,NA,NA,NA,NA,NA,NA,NA,NA,NA,NA,NA,NA,NA,NA
c1047,"""Falsch""-Screen",canvas.Screen,3_0_2_0_0_0_2,NA,NA,timeout,4997.6,325304.19999981,325289.418,325305.3,330286,330286.5,2024-05-24T15:00:55Z,330302.9,NULL,Stimmung,kinyongo,d,NA,NA,NA,NA,sdf,0,2,NA,NA,NA,NA,NA,NA,NA,NA,NA,NA,NA,NA,NA,NA,NA,NA,NA,NA,NA
c1047,deep,flow.Sequence,3_0_2_0_0_0,NA,NA,completion,14191.2,316080.29999971,316078.924,316094.8,330286,330286.5,2024-05-24T15:00:55Z,330302.9,NULL,Stimmung,kinyongo,d,NA,NA,NA,NA,sdf,NA,2,NA,NA,NA,NA,NA,NA,NA,NA,NA,NA,NA,NA,NA,NA,NA,NA,NA,NA,NA
c1047,shallow,flow.Sequence,3_0_2_0_0_1,NA,NA,skipped,NA,330286.5999999,NA,NA,330286,330286.5999999,2024-05-24T15:00:55Z,330302.9,NULL,Stimmung,kinyongo,d,NA,NA,NA,NA,sdf,NA,2,NA,NA,NA,NA,NA,NA,NA,NA,NA,NA,NA,NA,NA,NA,NA,NA,NA,NA,NA
c1047,task,flow.Sequence,3_0_2_0_0,NA,NA,completion,14191.2,316080.29999971,316078.924,316094.8,330286,330286.69999981,2024-05-24T15:00:55Z,330302.9,NULL,Stimmung,kinyongo,d,NA,NA,NA,NA,sdf,NA,2,NA,NA,NA,NA,NA,NA,NA,NA,NA,NA,NA,NA,NA,NA,NA,NA,NA,NA,NA
c1047,deep,flow.Sequence,3_0_2_0_1_0,NA,NA,skipped,NA,330286.69999981,NA,NA,330286,330286.69999981,2024-05-24T15:00:55Z,330302.9,NULL,Vergnügen,kichekesho,s,dubwana,mpanuko,mtesaji,NA,sdf,NA,2,NA,NA,NA,NA,NA,NA,NA,NA,NA,NA,NA,NA,NA,NA,NA,NA,NA,NA,NA
c1047,Shallow Question,html.Page,3_0_2_0_1_1_0,NA,NA,form submission,9300.2999998092,330286.79999971,330286,330302.9,339603.19999981,339603.39999962,2024-05-24T15:01:04Z,339613.4,NULL,Vergnügen,kichekesho,s,dubwana,mpanuko,mtesaji,kichekesho,NA,NA,2,NA,NA,NA,NA,NA,NA,NA,NA,NA,NA,NA,NA,NA,NA,NA,NA,NA,NA,NA
c1047,"""Richtig""-Screen",canvas.Screen,3_0_2_0_1_1_1,NA,NA,timeout,4997.3,339606.39999962,339597.358,339613.4,344593.6,344593.89999962,2024-05-24T15:01:09Z,344610.7,NULL,Vergnügen,kichekesho,s,dubwana,mpanuko,mtesaji,NA,sdf,1,2,NA,NA,NA,NA,NA,NA,NA,NA,NA,NA,NA,NA,NA,NA,NA,NA,NA,NA,NA
c1047,"""Falsch""-Screen",canvas.Screen,3_0_2_0_1_1_2,NA,NA,skipped,NA,344595.29999971,NA,NA,344593.6,344595.39999962,2024-05-24T15:01:09Z,344610.7,NULL,Vergnügen,kichekesho,s,dubwana,mpanuko,mtesaji,NA,sdf,NA,2,NA,NA,NA,NA,NA,NA,NA,NA,NA,NA,NA,NA,NA,NA,NA,NA,NA,NA,NA
c1047,shallow,flow.Sequence,3_0_2_0_1_1,NA,NA,completion,14290.7,330286.79999971,330286,330302.9,344593.6,344595.39999962,2024-05-24T15:01:09Z,344610.7,NULL,Vergnügen,kichekesho,s,dubwana,mpanuko,mtesaji,NA,sdf,NA,2,NA,NA,NA,NA,NA,NA,NA,NA,NA,NA,NA,NA,NA,NA,NA,NA,NA,NA,NA
c1047,task,flow.Sequence,3_0_2_0_1,NA,NA,completion,14290.7,330286.69999981,330286,330302.9,344593.6,344595.5,2024-05-24T15:01:09Z,344610.7,NULL,Vergnügen,kichekesho,s,dubwana,mpanuko,mtesaji,NA,sdf,NA,2,NA,NA,NA,NA,NA,NA,NA,NA,NA,NA,NA,NA,NA,NA,NA,NA,NA,NA,NA
c1047,deep,flow.Sequence,3_0_2_0_2_0,NA,NA,skipped,NA,344595.5,NA,NA,344593.6,344595.5999999,2024-05-24T15:01:09Z,344610.7,NULL,Orientierung,urekebisho,s,uelekeo,marekebisho,utunzaji,NA,sdf,NA,2,NA,NA,NA,NA,NA,NA,NA,NA,NA,NA,NA,NA,NA,NA,NA,NA,NA,NA,NA
c1047,Shallow Question,html.Page,3_0_2_0_2_1_0,NA,NA,form submission,7464.9999998093,344595.5999999,344593.6,344610.7,352075.69999981,352075.79999971,2024-05-24T15:01:16Z,352089.5,NULL,Orientierung,urekebisho,s,uelekeo,marekebisho,utunzaji,urekebisho,NA,NA,2,NA,NA,NA,NA,NA,NA,NA,NA,NA,NA,NA,NA,NA,NA,NA,NA,NA,NA,NA
c1047,"""Richtig""-Screen",canvas.Screen,3_0_2_0_2_1_1,NA,NA,timeout,4996.6,352077.29999971,352072.994,352089.5,357069.5,357070.5,2024-05-24T15:01:21Z,357086.1,NULL,Orientierung,urekebisho,s,uelekeo,marekebisho,utunzaji,NA,sdf,1,2,NA,NA,NA,NA,NA,NA,NA,NA,NA,NA,NA,NA,NA,NA,NA,NA,NA,NA,NA
c1047,"""Falsch""-Screen",canvas.Screen,3_0_2_0_2_1_2,NA,NA,skipped,NA,357075.5999999,NA,NA,357069.5,357075.79999971,2024-05-24T15:01:21Z,357086.1,NULL,Orientierung,urekebisho,s,uelekeo,marekebisho,utunzaji,NA,sdf,NA,2,NA,NA,NA,NA,NA,NA,NA,NA,NA,NA,NA,NA,NA,NA,NA,NA,NA,NA,NA
c1047,shallow,flow.Sequence,3_0_2_0_2_1,NA,NA,completion,12458.8,344595.5999999,344593.6,344610.7,357069.5,357075.89999962,2024-05-24T15:01:21Z,357086.1,NULL,Orientierung,urekebisho,s,uelekeo,marekebisho,utunzaji,NA,sdf,NA,2,NA,NA,NA,NA,NA,NA,NA,NA,NA,NA,NA,NA,NA,NA,NA,NA,NA,NA,NA
c1047,task,flow.Sequence,3_0_2_0_2,NA,NA,completion,12458.8,344595.5,344593.6,344610.7,357069.5,357075.89999962,2024-05-24T15:01:21Z,357086.1,NULL,Orientierung,urekebisho,s,uelekeo,marekebisho,utunzaji,NA,sdf,NA,2,NA,NA,NA,NA,NA,NA,NA,NA,NA,NA,NA,NA,NA,NA,NA,NA,NA,NA,NA
c1047,deep,flow.Sequence,3_0_2_0_3_0,NA,NA,skipped,NA,357076,NA,NA,357069.5,357076,2024-05-24T15:01:21Z,357086.1,NULL,Notfall,dharura,s,rairai,malalamiko,ahueni,NA,sdf,NA,2,NA,NA,NA,NA,NA,NA,NA,NA,NA,NA,NA,NA,NA,NA,NA,NA,NA,NA,NA
c1047,Shallow Question,html.Page,3_0_2_0_3_1_0,NA,NA,form submission,5051.9999999047,357076,357069.5,357086.1,362138.0999999,362138.29999971,2024-05-24T15:01:26Z,362149.7,NULL,Notfall,dharura,s,rairai,malalamiko,ahueni,dharura,NA,NA,2,NA,NA,NA,NA,NA,NA,NA,NA,NA,NA,NA,NA,NA,NA,NA,NA,NA,NA,NA
c1047,"""Richtig""-Screen",canvas.Screen,3_0_2_0_3_1_1,NA,NA,timeout,4997,362139.89999962,362133.712,362149.7,367130.1,367131,2024-05-24T15:01:31Z,367146.7,NULL,Notfall,dharura,s,rairai,malalamiko,ahueni,NA,sdf,1,2,NA,NA,NA,NA,NA,NA,NA,NA,NA,NA,NA,NA,NA,NA,NA,NA,NA,NA,NA
c1047,"""Falsch""-Screen",canvas.Screen,3_0_2_0_3_1_2,NA,NA,skipped,NA,367136,NA,NA,367130.1,367136.0999999,2024-05-24T15:01:31Z,367146.7,NULL,Notfall,dharura,s,rairai,malalamiko,ahueni,NA,sdf,NA,2,NA,NA,NA,NA,NA,NA,NA,NA,NA,NA,NA,NA,NA,NA,NA,NA,NA,NA,NA
c1047,shallow,flow.Sequence,3_0_2_0_3_1,NA,NA,completion,10044,357076,357069.5,357086.1,367130.1,367136.0999999,2024-05-24T15:01:31Z,367146.7,NULL,Notfall,dharura,s,rairai,malalamiko,ahueni,NA,sdf,NA,2,NA,NA,NA,NA,NA,NA,NA,NA,NA,NA,NA,NA,NA,NA,NA,NA,NA,NA,NA
c1047,task,flow.Sequence,3_0_2_0_3,NA,NA,completion,10044,357075.89999962,357069.5,357086.1,367130.1,367136.19999981,2024-05-24T15:01:31Z,367146.7,NULL,Notfall,dharura,s,rairai,malalamiko,ahueni,NA,sdf,NA,2,NA,NA,NA,NA,NA,NA,NA,NA,NA,NA,NA,NA,NA,NA,NA,NA,NA,NA,NA
c1047,Deep Question,html.Page,3_0_2_0_4_0_0,NA,NA,form submission,13268.599999714,367136.29999971,367130.1,367146.7,380415.29999971,380415.5,2024-05-24T15:01:45Z,380421.8,NULL,Wohlstand,mafanikio,d,NA,NA,NA,kifijo,NA,NA,2,NA,NA,NA,NA,NA,NA,NA,NA,NA,NA,NA,NA,NA,NA,NA,NA,NA,NA,NA
c1047,"""Richtig""-Screen",canvas.Screen,3_0_2_0_4_0_1,NA,NA,skipped,NA,380418.69999981,NA,NA,380415.29999971,380418.79999971,2024-05-24T15:01:45Z,380421.8,NULL,Wohlstand,mafanikio,d,NA,NA,NA,NA,sdf,NA,2,NA,NA,NA,NA,NA,NA,NA,NA,NA,NA,NA,NA,NA,NA,NA,NA,NA,NA,NA
c1047,"""Falsch""-Screen",canvas.Screen,3_0_2_0_4_0_2,NA,NA,timeout,4997,380419.5,380406.254,380421.8,385402.2,385403.19999981,2024-05-24T15:01:50Z,385418.8,NULL,Wohlstand,mafanikio,d,NA,NA,NA,NA,sdf,0,2,NA,NA,NA,NA,NA,NA,NA,NA,NA,NA,NA,NA,NA,NA,NA,NA,NA,NA,NA
c1047,deep,flow.Sequence,3_0_2_0_4_0,NA,NA,completion,18255.5,367136.29999971,367130.1,367146.7,385402.2,385403.5999999,2024-05-24T15:01:50Z,385418.8,NULL,Wohlstand,mafanikio,d,NA,NA,NA,NA,sdf,NA,2,NA,NA,NA,NA,NA,NA,NA,NA,NA,NA,NA,NA,NA,NA,NA,NA,NA,NA,NA
c1047,shallow,flow.Sequence,3_0_2_0_4_1,NA,NA,skipped,NA,385403.69999981,NA,NA,385402.2,385403.79999971,2024-05-24T15:01:50Z,385418.8,NULL,Wohlstand,mafanikio,d,NA,NA,NA,NA,sdf,NA,2,NA,NA,NA,NA,NA,NA,NA,NA,NA,NA,NA,NA,NA,NA,NA,NA,NA,NA,NA
c1047,task,flow.Sequence,3_0_2_0_4,NA,NA,completion,18255.5,367136.29999971,367130.1,367146.7,385402.2,385404,2024-05-24T15:01:50Z,385418.8,NULL,Wohlstand,mafanikio,d,NA,NA,NA,NA,sdf,NA,2,NA,NA,NA,NA,NA,NA,NA,NA,NA,NA,NA,NA,NA,NA,NA,NA,NA,NA,NA
c1047,Deep Question,html.Page,3_0_2_0_5_0_0,NA,NA,form submission,6864.5999996185,385404.19999981,385402.2,385418.8,392283.39999962,392283.5,2024-05-24T15:01:57Z,392314.5,NULL,Ergänzung,kijalizo,d,NA,NA,NA,mazgn,NA,NA,2,NA,NA,NA,NA,NA,NA,NA,NA,NA,NA,NA,NA,NA,NA,NA,NA,NA,NA,NA
c1047,"""Richtig""-Screen",canvas.Screen,3_0_2_0_5_0_1,NA,NA,skipped,NA,392284.89999962,NA,NA,392283.39999962,392285.0999999,2024-05-24T15:01:57Z,392314.5,NULL,Ergänzung,kijalizo,d,NA,NA,NA,NA,sdf,NA,2,NA,NA,NA,NA,NA,NA,NA,NA,NA,NA,NA,NA,NA,NA,NA,NA,NA,NA,NA
c1047,"""Falsch""-Screen",canvas.Screen,3_0_2_0_5_0_2,NA,NA,timeout,4997.6,392285.39999962,392297.832,392314.5,397295.2,397296.19999981,2024-05-24T15:02:02Z,397312.1,NULL,Ergänzung,kijalizo,d,NA,NA,NA,NA,sdf,0,2,NA,NA,NA,NA,NA,NA,NA,NA,NA,NA,NA,NA,NA,NA,NA,NA,NA,NA,NA
c1047,deep,flow.Sequence,3_0_2_0_5_0,NA,NA,completion,11876.4,385404.0999999,385402.2,385418.8,397295.2,397296.5999999,2024-05-24T15:02:02Z,397312.1,NULL,Ergänzung,kijalizo,d,NA,NA,NA,NA,sdf,NA,2,NA,NA,NA,NA,NA,NA,NA,NA,NA,NA,NA,NA,NA,NA,NA,NA,NA,NA,NA
c1047,shallow,flow.Sequence,3_0_2_0_5_1,NA,NA,skipped,NA,397296.79999971,NA,NA,397295.2,397297,2024-05-24T15:02:02Z,397312.1,NULL,Ergänzung,kijalizo,d,NA,NA,NA,NA,sdf,NA,2,NA,NA,NA,NA,NA,NA,NA,NA,NA,NA,NA,NA,NA,NA,NA,NA,NA,NA,NA
c1047,task,flow.Sequence,3_0_2_0_5,NA,NA,completion,11876.4,385404.0999999,385402.2,385418.8,397295.2,397297.19999981,2024-05-24T15:02:02Z,397312.1,NULL,Ergänzung,kijalizo,d,NA,NA,NA,NA,sdf,NA,2,NA,NA,NA,NA,NA,NA,NA,NA,NA,NA,NA,NA,NA,NA,NA,NA,NA,NA,NA
c1047,deep,flow.Sequence,3_0_2_0_6_0,NA,NA,skipped,NA,397297.39999962,NA,NA,397295.2,397297.5999999,2024-05-24T15:02:02Z,397312.1,NULL,Respekt,heshima,s,changamnao,upinzani,ufanisi,NA,sdf,NA,2,NA,NA,NA,NA,NA,NA,NA,NA,NA,NA,NA,NA,NA,NA,NA,NA,NA,NA,NA
c1047,Shallow Question,html.Page,3_0_2_0_6_1_0,NA,NA,form submission,21084.9,397297.69999981,397295.2,397312.1,418397,418397.29999971,2024-05-24T15:02:23Z,418398.828,NULL,Respekt,heshima,s,changamnao,upinzani,ufanisi,heshima,NA,NA,2,NA,NA,NA,NA,NA,NA,NA,NA,NA,NA,NA,NA,NA,NA,NA,NA,NA,NA,NA
c1047,"""Richtig""-Screen",canvas.Screen,3_0_2_0_6_1_1,NA,NA,timeout,4996.772,418400.19999981,418398.828,418398.828,423378.9,423379.79999971,2024-05-24T15:02:28Z,423395.6,NULL,Respekt,heshima,s,changamnao,upinzani,ufanisi,NA,sdf,1,2,NA,NA,NA,NA,NA,NA,NA,NA,NA,NA,NA,NA,NA,NA,NA,NA,NA,NA,NA
c1047,"""Falsch""-Screen",canvas.Screen,3_0_2_0_6_1_2,NA,NA,skipped,NA,423385,NA,NA,423378.9,423385.19999981,2024-05-24T15:02:28Z,423395.6,NULL,Respekt,heshima,s,changamnao,upinzani,ufanisi,NA,sdf,NA,2,NA,NA,NA,NA,NA,NA,NA,NA,NA,NA,NA,NA,NA,NA,NA,NA,NA,NA,NA
c1047,shallow,flow.Sequence,3_0_2_0_6_1,NA,NA,completion,26066.8,397297.69999981,397295.2,397312.1,423378.9,423385.5,2024-05-24T15:02:28Z,423395.6,NULL,Respekt,heshima,s,changamnao,upinzani,ufanisi,NA,sdf,NA,2,NA,NA,NA,NA,NA,NA,NA,NA,NA,NA,NA,NA,NA,NA,NA,NA,NA,NA,NA
c1047,task,flow.Sequence,3_0_2_0_6,NA,NA,completion,26066.8,397297.29999971,397295.2,397312.1,423378.9,423385.69999981,2024-05-24T15:02:28Z,423395.6,NULL,Respekt,heshima,s,changamnao,upinzani,ufanisi,NA,sdf,NA,2,NA,NA,NA,NA,NA,NA,NA,NA,NA,NA,NA,NA,NA,NA,NA,NA,NA,NA,NA
c1047,Deep Question,html.Page,3_0_2_0_7_0_0,NA,NA,form submission,10447.9,423385.89999962,423378.9,423395.6,433843.5,433843.5999999,2024-05-24T15:02:38Z,433855.7,NULL,Betrüger,mdanganyifu,d,NA,NA,NA,mayafio,NA,NA,2,NA,NA,NA,NA,NA,NA,NA,NA,NA,NA,NA,NA,NA,NA,NA,NA,NA,NA,NA
c1047,"""Richtig""-Screen",canvas.Screen,3_0_2_0_7_0_1,NA,NA,skipped,NA,433846.69999981,NA,NA,433843.5,433846.69999981,2024-05-24T15:02:38Z,433855.7,NULL,Betrüger,mdanganyifu,d,NA,NA,NA,NA,sdf,NA,2,NA,NA,NA,NA,NA,NA,NA,NA,NA,NA,NA,NA,NA,NA,NA,NA,NA,NA,NA
c1047,"""Falsch""-Screen",canvas.Screen,3_0_2_0_7_0_2,NA,NA,timeout,4997.4,433847.5,433842.182,433855.7,438836.2,438837.89999962,2024-05-24T15:02:43Z,438853.1,NULL,Betrüger,mdanganyifu,d,NA,NA,NA,NA,sdf,0,2,NA,NA,NA,NA,NA,NA,NA,NA,NA,NA,NA,NA,NA,NA,NA,NA,NA,NA,NA
c1047,deep,flow.Sequence,3_0_2_0_7_0,NA,NA,completion,15440.6,423385.89999962,423378.9,423395.6,438836.2,438838.29999971,2024-05-24T15:02:43Z,438853.1,NULL,Betrüger,mdanganyifu,d,NA,NA,NA,NA,sdf,NA,2,NA,NA,NA,NA,NA,NA,NA,NA,NA,NA,NA,NA,NA,NA,NA,NA,NA,NA,NA
c1047,shallow,flow.Sequence,3_0_2_0_7_1,NA,NA,skipped,NA,438838.5,NA,NA,438836.2,438838.5999999,2024-05-24T15:02:43Z,438853.1,NULL,Betrüger,mdanganyifu,d,NA,NA,NA,NA,sdf,NA,2,NA,NA,NA,NA,NA,NA,NA,NA,NA,NA,NA,NA,NA,NA,NA,NA,NA,NA,NA
c1047,task,flow.Sequence,3_0_2_0_7,NA,NA,completion,15440.6,423385.79999971,423378.9,423395.6,438836.2,438838.79999971,2024-05-24T15:02:43Z,438853.1,NULL,Betrüger,mdanganyifu,d,NA,NA,NA,NA,sdf,NA,2,NA,NA,NA,NA,NA,NA,NA,NA,NA,NA,NA,NA,NA,NA,NA,NA,NA,NA,NA
c1047,block,flow.Loop,3_0_2_0,NA,NA,completion,122741.4,316080.29999971,316078.924,316094.8,438836.2,438839,2024-05-24T15:02:43Z,438853.1,NULL,NA,NA,NA,NA,NA,NA,NA,sdf,NA,2,NA,NA,NA,NA,NA,NA,NA,NA,NA,NA,NA,NA,NA,NA,NA,NA,NA,NA,NA
c1047,weiter,canvas.Screen,3_0_2_1,sdf,keypress(Space),response,987.40000000002,438839.19999981,438836.2,438853.1,439840.5,439841.5999999,2024-05-24T15:02:44Z,439885.6,NULL,NA,NA,NA,NA,NA,NA,NA,sdf,NA,2,NA,NA,NA,NA,NA,NA,NA,NA,NA,NA,NA,NA,NA,NA,NA,NA,NA,NA,NA
c1047,check continue,flow.Sequence,3_0_2,NA,NA,completion,123745.7,316080.29999971,316078.924,316094.8,439840.5,439841.79999971,2024-05-24T15:02:44Z,439885.6,NULL,NA,NA,NA,NA,NA,NA,NA,sdf,NA,2,NA,NA,NA,NA,NA,NA,NA,NA,NA,NA,NA,NA,NA,NA,NA,NA,NA,NA,NA
c1047,deep,flow.Sequence,3_0_3_0_0_0,NA,NA,skipped,NA,439879.69999981,NA,NA,439840.5,439879.79999971,2024-05-24T15:02:44Z,439885.6,NULL,Respekt,heshima,s,changamnao,upinzani,ufanisi,NA,qt,NA,3,NA,NA,NA,NA,NA,NA,NA,NA,NA,NA,NA,NA,NA,NA,NA,NA,NA,NA,NA
c1047,Shallow Question,html.Page,3_0_3_0_0_1_0,NA,NA,form submission,4441.9999999047,439879.79999971,439869.726,439885.6,444327.5999999,444327.79999971,2024-05-24T15:02:49Z,444349.3,NULL,Respekt,heshima,s,changamnao,upinzani,ufanisi,heshima,NA,NA,3,NA,NA,NA,NA,NA,NA,NA,NA,NA,NA,NA,NA,NA,NA,NA,NA,NA,NA,NA
c1047,"""Richtig""-Screen",canvas.Screen,3_0_3_0_0_1_1,NA,NA,timeout,4997.4,444330.69999981,444333.1,444349.3,449330,449331,2024-05-24T15:02:54Z,449346.7,NULL,Respekt,heshima,s,changamnao,upinzani,ufanisi,NA,qt,1,3,NA,NA,NA,NA,NA,NA,NA,NA,NA,NA,NA,NA,NA,NA,NA,NA,NA,NA,NA
c1047,"""Falsch""-Screen",canvas.Screen,3_0_3_0_0_1_2,NA,NA,skipped,NA,449336.0999999,NA,NA,449330,449336.19999981,2024-05-24T15:02:54Z,449346.7,NULL,Respekt,heshima,s,changamnao,upinzani,ufanisi,NA,qt,NA,3,NA,NA,NA,NA,NA,NA,NA,NA,NA,NA,NA,NA,NA,NA,NA,NA,NA,NA,NA
c1047,shallow,flow.Sequence,3_0_3_0_0_1,NA,NA,completion,9444.4,439879.79999971,439869.726,439885.6,449330,449336.39999962,2024-05-24T15:02:54Z,449346.7,NULL,Respekt,heshima,s,changamnao,upinzani,ufanisi,NA,qt,NA,3,NA,NA,NA,NA,NA,NA,NA,NA,NA,NA,NA,NA,NA,NA,NA,NA,NA,NA,NA
c1047,task,flow.Sequence,3_0_3_0_0,NA,NA,completion,9444.4,439879.5999999,439869.726,439885.6,449330,449336.39999962,2024-05-24T15:02:54Z,449346.7,NULL,Respekt,heshima,s,changamnao,upinzani,ufanisi,NA,qt,NA,3,NA,NA,NA,NA,NA,NA,NA,NA,NA,NA,NA,NA,NA,NA,NA,NA,NA,NA,NA
c1047,Deep Question,html.Page,3_0_3_0_1_0_0,NA,NA,form submission,24639.8,449336.5,449330,449346.7,473986.5,473986.69999981,2024-05-24T15:03:18Z,473998,NULL,Stimmung,kinyongo,d,NA,NA,NA,kinyongo,NA,NA,3,NA,NA,NA,NA,NA,NA,NA,NA,NA,NA,NA,NA,NA,NA,NA,NA,NA,NA,NA
c1047,"""Richtig""-Screen",canvas.Screen,3_0_3_0_1_0_1,NA,NA,timeout,4997.3,473988.79999971,473981.598,473998,478978.7,478979.5999999,2024-05-24T15:03:23Z,478995.3,NULL,Stimmung,kinyongo,d,NA,NA,NA,NA,qt,1,3,NA,NA,NA,NA,NA,NA,NA,NA,NA,NA,NA,NA,NA,NA,NA,NA,NA,NA,NA
c1047,"""Falsch""-Screen",canvas.Screen,3_0_3_0_1_0_2,NA,NA,skipped,NA,478983.29999971,NA,NA,478978.7,478983.29999971,2024-05-24T15:03:23Z,478995.3,NULL,Stimmung,kinyongo,d,NA,NA,NA,NA,qt,NA,3,NA,NA,NA,NA,NA,NA,NA,NA,NA,NA,NA,NA,NA,NA,NA,NA,NA,NA,NA
c1047,deep,flow.Sequence,3_0_3_0_1_0,NA,NA,completion,29632,449336.5,449330,449346.7,478978.7,478983.39999962,2024-05-24T15:03:23Z,478995.3,NULL,Stimmung,kinyongo,d,NA,NA,NA,NA,qt,NA,3,NA,NA,NA,NA,NA,NA,NA,NA,NA,NA,NA,NA,NA,NA,NA,NA,NA,NA,NA
c1047,shallow,flow.Sequence,3_0_3_0_1_1,NA,NA,skipped,NA,478983.39999962,NA,NA,478978.7,478983.39999962,2024-05-24T15:03:23Z,478995.3,NULL,Stimmung,kinyongo,d,NA,NA,NA,NA,qt,NA,3,NA,NA,NA,NA,NA,NA,NA,NA,NA,NA,NA,NA,NA,NA,NA,NA,NA,NA,NA
c1047,task,flow.Sequence,3_0_3_0_1,NA,NA,completion,29632,449336.39999962,449330,449346.7,478978.7,478983.5,2024-05-24T15:03:23Z,478995.3,NULL,Stimmung,kinyongo,d,NA,NA,NA,NA,qt,NA,3,NA,NA,NA,NA,NA,NA,NA,NA,NA,NA,NA,NA,NA,NA,NA,NA,NA,NA,NA
c1047,deep,flow.Sequence,3_0_3_0_2_0,NA,NA,skipped,NA,478983.5999999,NA,NA,478978.7,478983.5999999,2024-05-24T15:03:23Z,478995.3,NULL,Vergnügen,kichekesho,s,dubwana,mpanuko,mtesaji,NA,qt,NA,3,NA,NA,NA,NA,NA,NA,NA,NA,NA,NA,NA,NA,NA,NA,NA,NA,NA,NA,NA
c1047,Shallow Question,html.Page,3_0_3_0_2_1_0,NA,NA,form submission,5700.7999999046,478983.5999999,478978.7,478995.3,484696.0999999,484696.19999981,2024-05-24T15:03:29Z,484725.2,NULL,Vergnügen,kichekesho,s,dubwana,mpanuko,mtesaji,kichekesho,NA,NA,3,NA,NA,NA,NA,NA,NA,NA,NA,NA,NA,NA,NA,NA,NA,NA,NA,NA,NA,NA
c1047,"""Richtig""-Screen",canvas.Screen,3_0_3_0_2_1_1,NA,NA,timeout,4997,484697.69999981,484708.598,484725.2,489705.7,489706.5,2024-05-24T15:03:34Z,489722.2,NULL,Vergnügen,kichekesho,s,dubwana,mpanuko,mtesaji,NA,qt,1,3,NA,NA,NA,NA,NA,NA,NA,NA,NA,NA,NA,NA,NA,NA,NA,NA,NA,NA,NA
c1047,"""Falsch""-Screen",canvas.Screen,3_0_3_0_2_1_2,NA,NA,skipped,NA,489711.89999962,NA,NA,489705.7,489711.89999962,2024-05-24T15:03:34Z,489722.2,NULL,Vergnügen,kichekesho,s,dubwana,mpanuko,mtesaji,NA,qt,NA,3,NA,NA,NA,NA,NA,NA,NA,NA,NA,NA,NA,NA,NA,NA,NA,NA,NA,NA,NA
c1047,shallow,flow.Sequence,3_0_3_0_2_1,NA,NA,completion,10710.4,478983.5999999,478978.7,478995.3,489705.7,489712.0999999,2024-05-24T15:03:34Z,489722.2,NULL,Vergnügen,kichekesho,s,dubwana,mpanuko,mtesaji,NA,qt,NA,3,NA,NA,NA,NA,NA,NA,NA,NA,NA,NA,NA,NA,NA,NA,NA,NA,NA,NA,NA
c1047,task,flow.Sequence,3_0_3_0_2,NA,NA,completion,10710.4,478983.5999999,478978.7,478995.3,489705.7,489712.0999999,2024-05-24T15:03:34Z,489722.2,NULL,Vergnügen,kichekesho,s,dubwana,mpanuko,mtesaji,NA,qt,NA,3,NA,NA,NA,NA,NA,NA,NA,NA,NA,NA,NA,NA,NA,NA,NA,NA,NA,NA,NA
c1047,deep,flow.Sequence,3_0_3_0_3_0,NA,NA,skipped,NA,489712.0999999,NA,NA,489705.7,489712.0999999,2024-05-24T15:03:34Z,489722.2,NULL,Notfall,dharura,s,rairai,malalamiko,ahueni,NA,qt,NA,3,NA,NA,NA,NA,NA,NA,NA,NA,NA,NA,NA,NA,NA,NA,NA,NA,NA,NA,NA
c1047,Shallow Question,html.Page,3_0_3_0_3_1_0,NA,NA,form submission,3435.3999999046,489712.19999981,489705.7,489722.2,493157.5999999,493157.79999971,2024-05-24T15:03:37Z,493170.1,NULL,Notfall,dharura,s,rairai,malalamiko,ahueni,dharura,NA,NA,3,NA,NA,NA,NA,NA,NA,NA,NA,NA,NA,NA,NA,NA,NA,NA,NA,NA,NA,NA
c1047,"""Richtig""-Screen",canvas.Screen,3_0_3_0_3_1_1,NA,NA,timeout,4996.8,493160.5999999,493153.69,493170.1,498150.4,498151.39999962,2024-05-24T15:03:42Z,498166.9,NULL,Notfall,dharura,s,rairai,malalamiko,ahueni,NA,qt,1,3,NA,NA,NA,NA,NA,NA,NA,NA,NA,NA,NA,NA,NA,NA,NA,NA,NA,NA,NA
c1047,"""Falsch""-Screen",canvas.Screen,3_0_3_0_3_1_2,NA,NA,skipped,NA,498156.5999999,NA,NA,498150.4,498156.69999981,2024-05-24T15:03:42Z,498166.9,NULL,Notfall,dharura,s,rairai,malalamiko,ahueni,NA,qt,NA,3,NA,NA,NA,NA,NA,NA,NA,NA,NA,NA,NA,NA,NA,NA,NA,NA,NA,NA,NA
c1047,shallow,flow.Sequence,3_0_3_0_3_1,NA,NA,completion,8428.2,489712.19999981,489705.7,489722.2,498150.4,498156.79999971,2024-05-24T15:03:42Z,498166.9,NULL,Notfall,dharura,s,rairai,malalamiko,ahueni,NA,qt,NA,3,NA,NA,NA,NA,NA,NA,NA,NA,NA,NA,NA,NA,NA,NA,NA,NA,NA,NA,NA
c1047,task,flow.Sequence,3_0_3_0_3,NA,NA,completion,8428.2,489712.0999999,489705.7,489722.2,498150.4,498156.79999971,2024-05-24T15:03:42Z,498166.9,NULL,Notfall,dharura,s,rairai,malalamiko,ahueni,NA,qt,NA,3,NA,NA,NA,NA,NA,NA,NA,NA,NA,NA,NA,NA,NA,NA,NA,NA,NA,NA,NA
c1047,Deep Question,html.Page,3_0_3_0_4_0_0,NA,NA,form submission,9760.6,498156.89999962,498150.4,498166.9,507927.5,507927.69999981,2024-05-24T15:03:52Z,507944.4,NULL,Betrüger,mdanganyifu,d,NA,NA,NA,mdaniziyua,NA,NA,3,NA,NA,NA,NA,NA,NA,NA,NA,NA,NA,NA,NA,NA,NA,NA,NA,NA,NA,NA
c1047,"""Richtig""-Screen",canvas.Screen,3_0_3_0_4_0_1,NA,NA,skipped,NA,507930.5999999,NA,NA,507927.5,507930.79999971,2024-05-24T15:03:52Z,507944.4,NULL,Betrüger,mdanganyifu,d,NA,NA,NA,NA,qt,NA,3,NA,NA,NA,NA,NA,NA,NA,NA,NA,NA,NA,NA,NA,NA,NA,NA,NA,NA,NA
c1047,"""Falsch""-Screen",canvas.Screen,3_0_3_0_4_0_2,NA,NA,timeout,4996.9,507931.5,507928.886,507944.4,512924.4,512925.39999962,2024-05-24T15:03:57Z,512941.3,NULL,Betrüger,mdanganyifu,d,NA,NA,NA,NA,qt,0,3,NA,NA,NA,NA,NA,NA,NA,NA,NA,NA,NA,NA,NA,NA,NA,NA,NA,NA,NA
c1047,deep,flow.Sequence,3_0_3_0_4_0,NA,NA,completion,14757.5,498156.79999971,498150.4,498166.9,512924.4,512925.79999971,2024-05-24T15:03:57Z,512941.3,NULL,Betrüger,mdanganyifu,d,NA,NA,NA,NA,qt,NA,3,NA,NA,NA,NA,NA,NA,NA,NA,NA,NA,NA,NA,NA,NA,NA,NA,NA,NA,NA
c1047,shallow,flow.Sequence,3_0_3_0_4_1,NA,NA,skipped,NA,512926,NA,NA,512924.4,512926.0999999,2024-05-24T15:03:57Z,512941.3,NULL,Betrüger,mdanganyifu,d,NA,NA,NA,NA,qt,NA,3,NA,NA,NA,NA,NA,NA,NA,NA,NA,NA,NA,NA,NA,NA,NA,NA,NA,NA,NA
c1047,task,flow.Sequence,3_0_3_0_4,NA,NA,completion,14757.5,498156.79999971,498150.4,498166.9,512924.4,512926.29999971,2024-05-24T15:03:57Z,512941.3,NULL,Betrüger,mdanganyifu,d,NA,NA,NA,NA,qt,NA,3,NA,NA,NA,NA,NA,NA,NA,NA,NA,NA,NA,NA,NA,NA,NA,NA,NA,NA,NA
c1047,Deep Question,html.Page,3_0_3_0_5_0_0,NA,NA,form submission,9234.5999996185,512926.5,512924.4,512941.3,522175.89999962,522176.0999999,2024-05-24T15:04:06Z,522185.3,NULL,Ergänzung,kijalizo,d,NA,NA,NA,kinjifu,NA,NA,3,NA,NA,NA,NA,NA,NA,NA,NA,NA,NA,NA,NA,NA,NA,NA,NA,NA,NA,NA
c1047,"""Richtig""-Screen",canvas.Screen,3_0_3_0_5_0_1,NA,NA,skipped,NA,522179.0999999,NA,NA,522175.89999962,522179.19999981,2024-05-24T15:04:06Z,522185.3,NULL,Ergänzung,kijalizo,d,NA,NA,NA,NA,qt,NA,3,NA,NA,NA,NA,NA,NA,NA,NA,NA,NA,NA,NA,NA,NA,NA,NA,NA,NA,NA
c1047,"""Falsch""-Screen",canvas.Screen,3_0_3_0_5_0_2,NA,NA,timeout,4997.4,522179.89999962,522169.468,522185.3,527165.6,527166.5,2024-05-24T15:04:11Z,527182.7,NULL,Ergänzung,kijalizo,d,NA,NA,NA,NA,qt,0,3,NA,NA,NA,NA,NA,NA,NA,NA,NA,NA,NA,NA,NA,NA,NA,NA,NA,NA,NA
c1047,deep,flow.Sequence,3_0_3_0_5_0,NA,NA,completion,14224.3,512926.39999962,512924.4,512941.3,527165.6,527166.69999981,2024-05-24T15:04:11Z,527182.7,NULL,Ergänzung,kijalizo,d,NA,NA,NA,NA,qt,NA,3,NA,NA,NA,NA,NA,NA,NA,NA,NA,NA,NA,NA,NA,NA,NA,NA,NA,NA,NA
c1047,shallow,flow.Sequence,3_0_3_0_5_1,NA,NA,skipped,NA,527167,NA,NA,527165.6,527167.0999999,2024-05-24T15:04:11Z,527182.7,NULL,Ergänzung,kijalizo,d,NA,NA,NA,NA,qt,NA,3,NA,NA,NA,NA,NA,NA,NA,NA,NA,NA,NA,NA,NA,NA,NA,NA,NA,NA,NA
c1047,task,flow.Sequence,3_0_3_0_5,NA,NA,completion,14224.3,512926.39999962,512924.4,512941.3,527165.6,527167.29999971,2024-05-24T15:04:11Z,527182.7,NULL,Ergänzung,kijalizo,d,NA,NA,NA,NA,qt,NA,3,NA,NA,NA,NA,NA,NA,NA,NA,NA,NA,NA,NA,NA,NA,NA,NA,NA,NA,NA
c1047,Deep Question,html.Page,3_0_3_0_6_0_0,NA,NA,form submission,8544.8999999047,527167.39999962,527165.6,527182.7,535727.5999999,535727.89999962,2024-05-24T15:04:20Z,535760.9,NULL,Wohlstand,mafanikio,d,NA,NA,NA,kinzaljo,NA,NA,3,NA,NA,NA,NA,NA,NA,NA,NA,NA,NA,NA,NA,NA,NA,NA,NA,NA,NA,NA
c1047,"""Richtig""-Screen",canvas.Screen,3_0_3_0_6_0_1,NA,NA,skipped,NA,535730.79999971,NA,NA,535727.5999999,535730.89999962,2024-05-24T15:04:20Z,535760.9,NULL,Wohlstand,mafanikio,d,NA,NA,NA,NA,qt,NA,3,NA,NA,NA,NA,NA,NA,NA,NA,NA,NA,NA,NA,NA,NA,NA,NA,NA,NA,NA
c1047,"""Falsch""-Screen",canvas.Screen,3_0_3_0_6_0_2,NA,NA,timeout,4996.7,535731.69999981,535744.3,535760.9,540740.8,540741.79999971,2024-05-24T15:04:25Z,540757.6,NULL,Wohlstand,mafanikio,d,NA,NA,NA,NA,qt,0,3,NA,NA,NA,NA,NA,NA,NA,NA,NA,NA,NA,NA,NA,NA,NA,NA,NA,NA,NA
c1047,deep,flow.Sequence,3_0_3_0_6_0,NA,NA,completion,13558.1,527167.39999962,527165.6,527182.7,540740.8,540742.19999981,2024-05-24T15:04:25Z,540757.6,NULL,Wohlstand,mafanikio,d,NA,NA,NA,NA,qt,NA,3,NA,NA,NA,NA,NA,NA,NA,NA,NA,NA,NA,NA,NA,NA,NA,NA,NA,NA,NA
c1047,shallow,flow.Sequence,3_0_3_0_6_1,NA,NA,skipped,NA,540742.39999962,NA,NA,540740.8,540742.5,2024-05-24T15:04:25Z,540757.6,NULL,Wohlstand,mafanikio,d,NA,NA,NA,NA,qt,NA,3,NA,NA,NA,NA,NA,NA,NA,NA,NA,NA,NA,NA,NA,NA,NA,NA,NA,NA,NA
c1047,task,flow.Sequence,3_0_3_0_6,NA,NA,completion,13558.1,527167.29999971,527165.6,527182.7,540740.8,540742.89999962,2024-05-24T15:04:25Z,540757.6,NULL,Wohlstand,mafanikio,d,NA,NA,NA,NA,qt,NA,3,NA,NA,NA,NA,NA,NA,NA,NA,NA,NA,NA,NA,NA,NA,NA,NA,NA,NA,NA
c1047,deep,flow.Sequence,3_0_3_0_7_0,NA,NA,skipped,NA,540743,NA,NA,540740.8,540743.19999981,2024-05-24T15:04:25Z,540757.6,NULL,Orientierung,urekebisho,s,uelekeo,marekebisho,utunzaji,NA,qt,NA,3,NA,NA,NA,NA,NA,NA,NA,NA,NA,NA,NA,NA,NA,NA,NA,NA,NA,NA,NA
c1047,Shallow Question,html.Page,3_0_3_0_7_1_0,NA,NA,form submission,6665.1999997139,540743.29999971,540740.8,540757.6,547422.79999971,547423,2024-05-24T15:04:32Z,547436.9,NULL,Orientierung,urekebisho,s,uelekeo,marekebisho,utunzaji,urekebisho,NA,NA,3,NA,NA,NA,NA,NA,NA,NA,NA,NA,NA,NA,NA,NA,NA,NA,NA,NA,NA,NA
c1047,"""Richtig""-Screen",canvas.Screen,3_0_3_0_7_1_1,NA,NA,timeout,4997.1,547426.0999999,547420.366,547436.9,552417.1,552417.89999962,2024-05-24T15:04:37Z,552434,NULL,Orientierung,urekebisho,s,uelekeo,marekebisho,utunzaji,NA,qt,1,3,NA,NA,NA,NA,NA,NA,NA,NA,NA,NA,NA,NA,NA,NA,NA,NA,NA,NA,NA
c1047,"""Falsch""-Screen",canvas.Screen,3_0_3_0_7_1_2,NA,NA,skipped,NA,552423.0999999,NA,NA,552417.1,552423.19999981,2024-05-24T15:04:37Z,552434,NULL,Orientierung,urekebisho,s,uelekeo,marekebisho,utunzaji,NA,qt,NA,3,NA,NA,NA,NA,NA,NA,NA,NA,NA,NA,NA,NA,NA,NA,NA,NA,NA,NA,NA
c1047,shallow,flow.Sequence,3_0_3_0_7_1,NA,NA,completion,11659.5,540743.19999981,540740.8,540757.6,552417.1,552423.29999971,2024-05-24T15:04:37Z,552434,NULL,Orientierung,urekebisho,s,uelekeo,marekebisho,utunzaji,NA,qt,NA,3,NA,NA,NA,NA,NA,NA,NA,NA,NA,NA,NA,NA,NA,NA,NA,NA,NA,NA,NA
c1047,task,flow.Sequence,3_0_3_0_7,NA,NA,completion,11659.5,540743,540740.8,540757.6,552417.1,552423.39999962,2024-05-24T15:04:37Z,552434,NULL,Orientierung,urekebisho,s,uelekeo,marekebisho,utunzaji,NA,qt,NA,3,NA,NA,NA,NA,NA,NA,NA,NA,NA,NA,NA,NA,NA,NA,NA,NA,NA,NA,NA
c1047,block,flow.Loop,3_0_3_0,NA,NA,completion,112531.5,439879.5999999,439869.726,439885.6,552417.1,552423.39999962,2024-05-24T15:04:37Z,552434,NULL,NA,NA,NA,NA,NA,NA,NA,qt,NA,3,NA,NA,NA,NA,NA,NA,NA,NA,NA,NA,NA,NA,NA,NA,NA,NA,NA,NA,NA
c1047,weiter,canvas.Screen,3_0_3_1,sdf,keypress(Space),response,6426.3999996185,552423.5,552417.1,552434,558860.39999962,558861.5,2024-05-24T15:04:43Z,558896.4,NULL,NA,NA,NA,NA,NA,NA,NA,qt,NA,3,NA,NA,NA,NA,NA,NA,NA,NA,NA,NA,NA,NA,NA,NA,NA,NA,NA,NA,NA
c1047,check continue,flow.Sequence,3_0_3,NA,NA,completion,118974.79999962,439879.5999999,439869.726,439885.6,558860.39999962,558861.69999981,2024-05-24T15:04:43Z,558896.4,NULL,NA,NA,NA,NA,NA,NA,NA,qt,NA,3,NA,NA,NA,NA,NA,NA,NA,NA,NA,NA,NA,NA,NA,NA,NA,NA,NA,NA,NA
c1047,Deep Question,html.Page,3_0_4_0_0_0_0,NA,NA,form submission,10206.699999905,558885.5,558883.742,558896.4,569103.0999999,569103.29999971,2024-05-24T15:04:53Z,569106.6,NULL,Stimmung,kinyongo,d,NA,NA,NA,kinyongo,NA,NA,4,NA,NA,NA,NA,NA,NA,NA,NA,NA,NA,NA,NA,NA,NA,NA,NA,NA,NA,NA
c1047,"""Richtig""-Screen",canvas.Screen,3_0_4_0_0_0_1,NA,NA,timeout,4997.5,569106.29999971,569091.798,569106.6,574087.2,574088.39999962,2024-05-24T15:04:58Z,574104.1,NULL,Stimmung,kinyongo,d,NA,NA,NA,NA,sd,1,4,NA,NA,NA,NA,NA,NA,NA,NA,NA,NA,NA,NA,NA,NA,NA,NA,NA,NA,NA
c1047,"""Falsch""-Screen",canvas.Screen,3_0_4_0_0_0_2,NA,NA,skipped,NA,574093.69999981,NA,NA,574087.2,574093.69999981,2024-05-24T15:04:58Z,574104.1,NULL,Stimmung,kinyongo,d,NA,NA,NA,NA,sd,NA,4,NA,NA,NA,NA,NA,NA,NA,NA,NA,NA,NA,NA,NA,NA,NA,NA,NA,NA,NA
c1047,deep,flow.Sequence,3_0_4_0_0_0,NA,NA,completion,15190.8,558885.5,558883.742,558896.4,574087.2,574093.79999971,2024-05-24T15:04:58Z,574104.1,NULL,Stimmung,kinyongo,d,NA,NA,NA,NA,sd,NA,4,NA,NA,NA,NA,NA,NA,NA,NA,NA,NA,NA,NA,NA,NA,NA,NA,NA,NA,NA
c1047,shallow,flow.Sequence,3_0_4_0_0_1,NA,NA,skipped,NA,574094,NA,NA,574087.2,574094,2024-05-24T15:04:58Z,574104.1,NULL,Stimmung,kinyongo,d,NA,NA,NA,NA,sd,NA,4,NA,NA,NA,NA,NA,NA,NA,NA,NA,NA,NA,NA,NA,NA,NA,NA,NA,NA,NA
c1047,task,flow.Sequence,3_0_4_0_0,NA,NA,completion,15190.8,558885.5,558883.742,558896.4,574087.2,574094.0999999,2024-05-24T15:04:58Z,574104.1,NULL,Stimmung,kinyongo,d,NA,NA,NA,NA,sd,NA,4,NA,NA,NA,NA,NA,NA,NA,NA,NA,NA,NA,NA,NA,NA,NA,NA,NA,NA,NA
c1047,Deep Question,html.Page,3_0_4_0_1_0_0,NA,NA,form submission,23842.699999714,574094.0999999,574087.2,574104.1,597946.79999971,597947,2024-05-24T15:05:22Z,597955.8,NULL,Ergänzung,kijalizo,d,NA,NA,NA,kifakio,NA,NA,4,NA,NA,NA,NA,NA,NA,NA,NA,NA,NA,NA,NA,NA,NA,NA,NA,NA,NA,NA
c1047,"""Richtig""-Screen",canvas.Screen,3_0_4_0_1_0_1,NA,NA,skipped,NA,597950,NA,NA,597946.79999971,597950.19999981,2024-05-24T15:05:22Z,597955.8,NULL,Ergänzung,kijalizo,d,NA,NA,NA,NA,sd,NA,4,NA,NA,NA,NA,NA,NA,NA,NA,NA,NA,NA,NA,NA,NA,NA,NA,NA,NA,NA
c1047,"""Falsch""-Screen",canvas.Screen,3_0_4_0_1_0_2,NA,NA,timeout,4997.1,597950.89999962,597943.196,597955.8,602936.2,602937.0999999,2024-05-24T15:05:27Z,602952.9,NULL,Ergänzung,kijalizo,d,NA,NA,NA,NA,sd,0,4,NA,NA,NA,NA,NA,NA,NA,NA,NA,NA,NA,NA,NA,NA,NA,NA,NA,NA,NA
c1047,deep,flow.Sequence,3_0_4_0_1_0,NA,NA,completion,28832.1,574094.0999999,574087.2,574104.1,602936.2,602937.39999962,2024-05-24T15:05:27Z,602952.9,NULL,Ergänzung,kijalizo,d,NA,NA,NA,NA,sd,NA,4,NA,NA,NA,NA,NA,NA,NA,NA,NA,NA,NA,NA,NA,NA,NA,NA,NA,NA,NA
c1047,shallow,flow.Sequence,3_0_4_0_1_1,NA,NA,skipped,NA,602937.5999999,NA,NA,602936.2,602937.69999981,2024-05-24T15:05:27Z,602952.9,NULL,Ergänzung,kijalizo,d,NA,NA,NA,NA,sd,NA,4,NA,NA,NA,NA,NA,NA,NA,NA,NA,NA,NA,NA,NA,NA,NA,NA,NA,NA,NA
c1047,task,flow.Sequence,3_0_4_0_1,NA,NA,completion,28832.1,574094.0999999,574087.2,574104.1,602936.2,602937.89999962,2024-05-24T15:05:27Z,602952.9,NULL,Ergänzung,kijalizo,d,NA,NA,NA,NA,sd,NA,4,NA,NA,NA,NA,NA,NA,NA,NA,NA,NA,NA,NA,NA,NA,NA,NA,NA,NA,NA
c1047,deep,flow.Sequence,3_0_4_0_2_0,NA,NA,skipped,NA,602938.0999999,NA,NA,602936.2,602938.19999981,2024-05-24T15:05:27Z,602952.9,NULL,Respekt,heshima,s,changamnao,upinzani,ufanisi,NA,sd,NA,4,NA,NA,NA,NA,NA,NA,NA,NA,NA,NA,NA,NA,NA,NA,NA,NA,NA,NA,NA
c1047,Shallow Question,html.Page,3_0_4_0_2_1_0,NA,NA,form submission,6220.1999999046,602938.29999971,602936.2,602952.9,609173.0999999,609173.29999971,2024-05-24T15:05:33Z,609182.4,NULL,Respekt,heshima,s,changamnao,upinzani,ufanisi,heshima,NA,NA,4,NA,NA,NA,NA,NA,NA,NA,NA,NA,NA,NA,NA,NA,NA,NA,NA,NA,NA,NA
c1047,"""Richtig""-Screen",canvas.Screen,3_0_4_0_2_1_1,NA,NA,timeout,4997.1,609176.19999981,609165.93,609182.4,614162.9,614163.69999981,2024-05-24T15:05:38Z,614179.5,NULL,Respekt,heshima,s,changamnao,upinzani,ufanisi,NA,sd,1,4,NA,NA,NA,NA,NA,NA,NA,NA,NA,NA,NA,NA,NA,NA,NA,NA,NA,NA,NA
c1047,"""Falsch""-Screen",canvas.Screen,3_0_4_0_2_1_2,NA,NA,skipped,NA,614168.89999962,NA,NA,614162.9,614169.0999999,2024-05-24T15:05:38Z,614179.5,NULL,Respekt,heshima,s,changamnao,upinzani,ufanisi,NA,sd,NA,4,NA,NA,NA,NA,NA,NA,NA,NA,NA,NA,NA,NA,NA,NA,NA,NA,NA,NA,NA
c1047,shallow,flow.Sequence,3_0_4_0_2_1,NA,NA,completion,11210,602938.19999981,602936.2,602952.9,614162.9,614169.29999971,2024-05-24T15:05:38Z,614179.5,NULL,Respekt,heshima,s,changamnao,upinzani,ufanisi,NA,sd,NA,4,NA,NA,NA,NA,NA,NA,NA,NA,NA,NA,NA,NA,NA,NA,NA,NA,NA,NA,NA
c1047,task,flow.Sequence,3_0_4_0_2,NA,NA,completion,11210,602938,602936.2,602952.9,614162.9,614169.29999971,2024-05-24T15:05:38Z,614179.5,NULL,Respekt,heshima,s,changamnao,upinzani,ufanisi,NA,sd,NA,4,NA,NA,NA,NA,NA,NA,NA,NA,NA,NA,NA,NA,NA,NA,NA,NA,NA,NA,NA
c1047,deep,flow.Sequence,3_0_4_0_3_0,NA,NA,skipped,NA,614169.29999971,NA,NA,614162.9,614169.29999971,2024-05-24T15:05:38Z,614179.5,NULL,Orientierung,urekebisho,s,uelekeo,marekebisho,utunzaji,NA,sd,NA,4,NA,NA,NA,NA,NA,NA,NA,NA,NA,NA,NA,NA,NA,NA,NA,NA,NA,NA,NA
c1047,Shallow Question,html.Page,3_0_4_0_3_1_0,NA,NA,form submission,3893.1999998093,614169.29999971,614162.9,614179.5,618072.69999981,618073,2024-05-24T15:05:42Z,618077.33,NULL,Orientierung,urekebisho,s,uelekeo,marekebisho,utunzaji,urekebisho,NA,NA,4,NA,NA,NA,NA,NA,NA,NA,NA,NA,NA,NA,NA,NA,NA,NA,NA,NA,NA,NA
c1047,"""Richtig""-Screen",canvas.Screen,3_0_4_0_3_1_1,NA,NA,timeout,4996.9700000001,618075.79999971,618077.33,618077.33,623057.3,623058.19999981,2024-05-24T15:05:47Z,623074.3,NULL,Orientierung,urekebisho,s,uelekeo,marekebisho,utunzaji,NA,sd,1,4,NA,NA,NA,NA,NA,NA,NA,NA,NA,NA,NA,NA,NA,NA,NA,NA,NA,NA,NA
c1047,"""Falsch""-Screen",canvas.Screen,3_0_4_0_3_1_2,NA,NA,skipped,NA,623063.19999981,NA,NA,623057.3,623063.5,2024-05-24T15:05:47Z,623074.3,NULL,Orientierung,urekebisho,s,uelekeo,marekebisho,utunzaji,NA,sd,NA,4,NA,NA,NA,NA,NA,NA,NA,NA,NA,NA,NA,NA,NA,NA,NA,NA,NA,NA,NA
c1047,shallow,flow.Sequence,3_0_4_0_3_1,NA,NA,completion,8877.8,614169.29999971,614162.9,614179.5,623057.3,623063.69999981,2024-05-24T15:05:47Z,623074.3,NULL,Orientierung,urekebisho,s,uelekeo,marekebisho,utunzaji,NA,sd,NA,4,NA,NA,NA,NA,NA,NA,NA,NA,NA,NA,NA,NA,NA,NA,NA,NA,NA,NA,NA
c1047,task,flow.Sequence,3_0_4_0_3,NA,NA,completion,8877.8,614169.29999971,614162.9,614179.5,623057.3,623063.69999981,2024-05-24T15:05:47Z,623074.3,NULL,Orientierung,urekebisho,s,uelekeo,marekebisho,utunzaji,NA,sd,NA,4,NA,NA,NA,NA,NA,NA,NA,NA,NA,NA,NA,NA,NA,NA,NA,NA,NA,NA,NA
c1047,Deep Question,html.Page,3_0_4_0_4_0_0,NA,NA,form submission,9988.2999999046,623063.69999981,623057.3,623074.3,633062.5999999,633062.79999971,2024-05-24T15:05:57Z,633067.6,NULL,Betrüger,mdanganyifu,d,NA,NA,NA,mdafanjifu,NA,NA,4,NA,NA,NA,NA,NA,NA,NA,NA,NA,NA,NA,NA,NA,NA,NA,NA,NA,NA,NA
c1047,"""Richtig""-Screen",canvas.Screen,3_0_4_0_4_0_1,NA,NA,skipped,NA,633065.0999999,NA,NA,633062.5999999,633065.19999981,2024-05-24T15:05:57Z,633067.6,NULL,Betrüger,mdanganyifu,d,NA,NA,NA,NA,sd,NA,4,NA,NA,NA,NA,NA,NA,NA,NA,NA,NA,NA,NA,NA,NA,NA,NA,NA,NA,NA
c1047,"""Falsch""-Screen",canvas.Screen,3_0_4_0_4_0_2,NA,NA,timeout,4997,633065.69999981,633051.298,633067.6,638048.2,638049,2024-05-24T15:06:02Z,638064.6,NULL,Betrüger,mdanganyifu,d,NA,NA,NA,NA,sd,0,4,NA,NA,NA,NA,NA,NA,NA,NA,NA,NA,NA,NA,NA,NA,NA,NA,NA,NA,NA
c1047,deep,flow.Sequence,3_0_4_0_4_0,NA,NA,completion,14973.9,623063.69999981,623057.3,623074.3,638048.2,638049.39999962,2024-05-24T15:06:02Z,638064.6,NULL,Betrüger,mdanganyifu,d,NA,NA,NA,NA,sd,NA,4,NA,NA,NA,NA,NA,NA,NA,NA,NA,NA,NA,NA,NA,NA,NA,NA,NA,NA,NA
c1047,shallow,flow.Sequence,3_0_4_0_4_1,NA,NA,skipped,NA,638049.5,NA,NA,638048.2,638049.5999999,2024-05-24T15:06:02Z,638064.6,NULL,Betrüger,mdanganyifu,d,NA,NA,NA,NA,sd,NA,4,NA,NA,NA,NA,NA,NA,NA,NA,NA,NA,NA,NA,NA,NA,NA,NA,NA,NA,NA
c1047,task,flow.Sequence,3_0_4_0_4,NA,NA,completion,14973.9,623063.69999981,623057.3,623074.3,638048.2,638049.89999962,2024-05-24T15:06:02Z,638064.6,NULL,Betrüger,mdanganyifu,d,NA,NA,NA,NA,sd,NA,4,NA,NA,NA,NA,NA,NA,NA,NA,NA,NA,NA,NA,NA,NA,NA,NA,NA,NA,NA
c1047,deep,flow.Sequence,3_0_4_0_5_0,NA,NA,skipped,NA,638050,NA,NA,638048.2,638050,2024-05-24T15:06:02Z,638064.6,NULL,Notfall,dharura,s,rairai,malalamiko,ahueni,NA,sd,NA,4,NA,NA,NA,NA,NA,NA,NA,NA,NA,NA,NA,NA,NA,NA,NA,NA,NA,NA,NA
c1047,Shallow Question,html.Page,3_0_4_0_5_1_0,NA,NA,form submission,3140.7999996186,638050.19999981,638048.2,638064.6,641205.39999962,641205.5999999,2024-05-24T15:06:05Z,641212.8,NULL,Notfall,dharura,s,rairai,malalamiko,ahueni,dharura,NA,NA,4,NA,NA,NA,NA,NA,NA,NA,NA,NA,NA,NA,NA,NA,NA,NA,NA,NA,NA,NA
c1047,"""Richtig""-Screen",canvas.Screen,3_0_4_0_5_1_1,NA,NA,timeout,4996.7,641208.5,641196.654,641212.8,646193.3,646194.5,2024-05-24T15:06:10Z,646209.5,NULL,Notfall,dharura,s,rairai,malalamiko,ahueni,NA,sd,1,4,NA,NA,NA,NA,NA,NA,NA,NA,NA,NA,NA,NA,NA,NA,NA,NA,NA,NA,NA
c1047,"""Falsch""-Screen",canvas.Screen,3_0_4_0_5_1_2,NA,NA,skipped,NA,646199.69999981,NA,NA,646193.3,646199.89999962,2024-05-24T15:06:10Z,646209.5,NULL,Notfall,dharura,s,rairai,malalamiko,ahueni,NA,sd,NA,4,NA,NA,NA,NA,NA,NA,NA,NA,NA,NA,NA,NA,NA,NA,NA,NA,NA,NA,NA
c1047,shallow,flow.Sequence,3_0_4_0_5_1,NA,NA,completion,8128.7000000001,638050.19999981,638048.2,638064.6,646193.3,646199.89999962,2024-05-24T15:06:10Z,646209.5,NULL,Notfall,dharura,s,rairai,malalamiko,ahueni,NA,sd,NA,4,NA,NA,NA,NA,NA,NA,NA,NA,NA,NA,NA,NA,NA,NA,NA,NA,NA,NA,NA
c1047,task,flow.Sequence,3_0_4_0_5,NA,NA,completion,8128.7000000001,638050,638048.2,638064.6,646193.3,646199.89999962,2024-05-24T15:06:10Z,646209.5,NULL,Notfall,dharura,s,rairai,malalamiko,ahueni,NA,sd,NA,4,NA,NA,NA,NA,NA,NA,NA,NA,NA,NA,NA,NA,NA,NA,NA,NA,NA,NA,NA
c1047,Deep Question,html.Page,3_0_4_0_6_0_0,NA,NA,form submission,7897.2999997139,646200,646193.3,646209.5,654106.79999971,654106.79999971,2024-05-24T15:06:18Z,654138.4,NULL,Wohlstand,mafanikio,d,NA,NA,NA,kinfakio,NA,NA,4,NA,NA,NA,NA,NA,NA,NA,NA,NA,NA,NA,NA,NA,NA,NA,NA,NA,NA,NA
c1047,"""Richtig""-Screen",canvas.Screen,3_0_4_0_6_0_1,NA,NA,skipped,NA,654108.69999981,NA,NA,654106.79999971,654108.79999971,2024-05-24T15:06:18Z,654138.4,NULL,Wohlstand,mafanikio,d,NA,NA,NA,NA,sd,NA,4,NA,NA,NA,NA,NA,NA,NA,NA,NA,NA,NA,NA,NA,NA,NA,NA,NA,NA,NA
c1047,"""Falsch""-Screen",canvas.Screen,3_0_4_0_6_0_2,NA,NA,timeout,4996.6,654109.19999981,654122.166,654138.4,659118.3,659120.79999971,2024-05-24T15:06:23Z,659135,NULL,Wohlstand,mafanikio,d,NA,NA,NA,NA,sd,0,4,NA,NA,NA,NA,NA,NA,NA,NA,NA,NA,NA,NA,NA,NA,NA,NA,NA,NA,NA
c1047,deep,flow.Sequence,3_0_4_0_6_0,NA,NA,completion,12908.8,646200,646193.3,646209.5,659118.3,659120.89999962,2024-05-24T15:06:23Z,659135,NULL,Wohlstand,mafanikio,d,NA,NA,NA,NA,sd,NA,4,NA,NA,NA,NA,NA,NA,NA,NA,NA,NA,NA,NA,NA,NA,NA,NA,NA,NA,NA
c1047,shallow,flow.Sequence,3_0_4_0_6_1,NA,NA,skipped,NA,659120.89999962,NA,NA,659118.3,659120.89999962,2024-05-24T15:06:23Z,659135,NULL,Wohlstand,mafanikio,d,NA,NA,NA,NA,sd,NA,4,NA,NA,NA,NA,NA,NA,NA,NA,NA,NA,NA,NA,NA,NA,NA,NA,NA,NA,NA
c1047,task,flow.Sequence,3_0_4_0_6,NA,NA,completion,12908.8,646200,646193.3,646209.5,659118.3,659120.89999962,2024-05-24T15:06:23Z,659135,NULL,Wohlstand,mafanikio,d,NA,NA,NA,NA,sd,NA,4,NA,NA,NA,NA,NA,NA,NA,NA,NA,NA,NA,NA,NA,NA,NA,NA,NA,NA,NA
c1047,deep,flow.Sequence,3_0_4_0_7_0,NA,NA,skipped,NA,659121,NA,NA,659118.3,659121,2024-05-24T15:06:23Z,659135,NULL,Vergnügen,kichekesho,s,dubwana,mpanuko,mtesaji,NA,sd,NA,4,NA,NA,NA,NA,NA,NA,NA,NA,NA,NA,NA,NA,NA,NA,NA,NA,NA,NA,NA
c1047,Shallow Question,html.Page,3_0_4_0_7_1_0,NA,NA,form submission,8287.2999997139,659121,659118.3,659135,667422.29999971,667422.5,2024-05-24T15:06:32Z,667447,NULL,Vergnügen,kichekesho,s,dubwana,mpanuko,mtesaji,kichekesho,NA,NA,4,NA,NA,NA,NA,NA,NA,NA,NA,NA,NA,NA,NA,NA,NA,NA,NA,NA,NA,NA
c1047,"""Richtig""-Screen",canvas.Screen,3_0_4_0_7_1_1,NA,NA,timeout,4996.5,667425.5,667430.498,667447,672427.2,672428.0999999,2024-05-24T15:06:37Z,672443.5,NULL,Vergnügen,kichekesho,s,dubwana,mpanuko,mtesaji,NA,sd,1,4,NA,NA,NA,NA,NA,NA,NA,NA,NA,NA,NA,NA,NA,NA,NA,NA,NA,NA,NA
c1047,"""Falsch""-Screen",canvas.Screen,3_0_4_0_7_1_2,NA,NA,skipped,NA,672433.0999999,NA,NA,672427.2,672433.19999981,2024-05-24T15:06:37Z,672443.5,NULL,Vergnügen,kichekesho,s,dubwana,mpanuko,mtesaji,NA,sd,NA,4,NA,NA,NA,NA,NA,NA,NA,NA,NA,NA,NA,NA,NA,NA,NA,NA,NA,NA,NA
c1047,shallow,flow.Sequence,3_0_4_0_7_1,NA,NA,completion,13292.2,659121,659118.3,659135,672427.2,672433.19999981,2024-05-24T15:06:37Z,672443.5,NULL,Vergnügen,kichekesho,s,dubwana,mpanuko,mtesaji,NA,sd,NA,4,NA,NA,NA,NA,NA,NA,NA,NA,NA,NA,NA,NA,NA,NA,NA,NA,NA,NA,NA
c1047,task,flow.Sequence,3_0_4_0_7,NA,NA,completion,13292.2,659121,659118.3,659135,672427.2,672433.39999962,2024-05-24T15:06:37Z,672443.5,NULL,Vergnügen,kichekesho,s,dubwana,mpanuko,mtesaji,NA,sd,NA,4,NA,NA,NA,NA,NA,NA,NA,NA,NA,NA,NA,NA,NA,NA,NA,NA,NA,NA,NA
c1047,block,flow.Loop,3_0_4_0,NA,NA,completion,113530.8,558885.5,558883.742,558896.4,672427.2,672433.39999962,2024-05-24T15:06:37Z,672443.5,NULL,NA,NA,NA,NA,NA,NA,NA,sd,NA,4,NA,NA,NA,NA,NA,NA,NA,NA,NA,NA,NA,NA,NA,NA,NA,NA,NA,NA,NA
c1047,weiter,canvas.Screen,3_0_4_1,sdf,keypress(Space),response,1029.6999998093,672433.39999962,672427.2,672443.5,673473.19999981,673473.69999981,2024-05-24T15:06:38Z,673476.792,NULL,NA,NA,NA,NA,NA,NA,NA,sd,NA,4,NA,NA,NA,NA,NA,NA,NA,NA,NA,NA,NA,NA,NA,NA,NA,NA,NA,NA,NA
c1047,check continue,flow.Sequence,3_0_4,NA,NA,completion,114576.79999981,558885.5,558883.742,558896.4,673473.19999981,673473.79999971,2024-05-24T15:06:38Z,673476.792,NULL,NA,NA,NA,NA,NA,NA,NA,sd,NA,4,NA,NA,NA,NA,NA,NA,NA,NA,NA,NA,NA,NA,NA,NA,NA,NA,NA,NA,NA
c1047,deep,flow.Sequence,3_0_5_0_0_0,NA,NA,skipped,NA,673488.39999962,NA,NA,673473.19999981,673488.5,2024-05-24T15:06:38Z,673476.792,NULL,Respekt,heshima,s,changamnao,upinzani,ufanisi,NA,sdf,NA,5,NA,NA,NA,NA,NA,NA,NA,NA,NA,NA,NA,NA,NA,NA,NA,NA,NA,NA,NA
c1047,Shallow Question,html.Page,3_0_5_0_0_1_0,NA,NA,form submission,2936.6079996185,673488.5,673476.792,673476.792,676413.39999962,676413.5999999,2024-05-24T15:06:41Z,676424.5,NULL,Respekt,heshima,s,changamnao,upinzani,ufanisi,heshima,NA,NA,5,NA,NA,NA,NA,NA,NA,NA,NA,NA,NA,NA,NA,NA,NA,NA,NA,NA,NA,NA
c1047,"""Richtig""-Screen",canvas.Screen,3_0_5_0_0_1_1,NA,NA,timeout,4997.5,676414.29999971,676408.714,676424.5,681404.8,681405.79999971,2024-05-24T15:06:46Z,681422,NULL,Respekt,heshima,s,changamnao,upinzani,ufanisi,NA,sdf,1,5,NA,NA,NA,NA,NA,NA,NA,NA,NA,NA,NA,NA,NA,NA,NA,NA,NA,NA,NA
c1047,"""Falsch""-Screen",canvas.Screen,3_0_5_0_0_1_2,NA,NA,skipped,NA,681410.89999962,NA,NA,681404.8,681411,2024-05-24T15:06:46Z,681422,NULL,Respekt,heshima,s,changamnao,upinzani,ufanisi,NA,sdf,NA,5,NA,NA,NA,NA,NA,NA,NA,NA,NA,NA,NA,NA,NA,NA,NA,NA,NA,NA,NA
c1047,shallow,flow.Sequence,3_0_5_0_0_1,NA,NA,completion,7928.008,673488.5,673476.792,673476.792,681404.8,681411.0999999,2024-05-24T15:06:46Z,681422,NULL,Respekt,heshima,s,changamnao,upinzani,ufanisi,NA,sdf,NA,5,NA,NA,NA,NA,NA,NA,NA,NA,NA,NA,NA,NA,NA,NA,NA,NA,NA,NA,NA
c1047,task,flow.Sequence,3_0_5_0_0,NA,NA,completion,7928.008,673488.39999962,673476.792,673476.792,681404.8,681411.19999981,2024-05-24T15:06:46Z,681422,NULL,Respekt,heshima,s,changamnao,upinzani,ufanisi,NA,sdf,NA,5,NA,NA,NA,NA,NA,NA,NA,NA,NA,NA,NA,NA,NA,NA,NA,NA,NA,NA,NA
c1047,Deep Question,html.Page,3_0_5_0_1_0_0,NA,NA,form submission,10027.399999619,681411.19999981,681404.8,681422,691449.39999962,691449.5999999,2024-05-24T15:06:56Z,691465.7,NULL,Ergänzung,kijalizo,d,NA,NA,NA,mafankio,NA,NA,5,NA,NA,NA,NA,NA,NA,NA,NA,NA,NA,NA,NA,NA,NA,NA,NA,NA,NA,NA
c1047,"""Richtig""-Screen",canvas.Screen,3_0_5_0_1_0_1,NA,NA,skipped,NA,691452.5999999,NA,NA,691449.39999962,691452.79999971,2024-05-24T15:06:56Z,691465.7,NULL,Ergänzung,kijalizo,d,NA,NA,NA,NA,sdf,NA,5,NA,NA,NA,NA,NA,NA,NA,NA,NA,NA,NA,NA,NA,NA,NA,NA,NA,NA,NA
c1047,"""Falsch""-Screen",canvas.Screen,3_0_5_0_1_0_2,NA,NA,timeout,4997.2000000001,691453.39999962,691448.918,691465.7,696446,696446.79999971,2024-05-24T15:07:01Z,696462.9,NULL,Ergänzung,kijalizo,d,NA,NA,NA,NA,sdf,0,5,NA,NA,NA,NA,NA,NA,NA,NA,NA,NA,NA,NA,NA,NA,NA,NA,NA,NA,NA
c1047,deep,flow.Sequence,3_0_5_0_1_0,NA,NA,completion,15024,681411.19999981,681404.8,681422,696446,696447.0999999,2024-05-24T15:07:01Z,696462.9,NULL,Ergänzung,kijalizo,d,NA,NA,NA,NA,sdf,NA,5,NA,NA,NA,NA,NA,NA,NA,NA,NA,NA,NA,NA,NA,NA,NA,NA,NA,NA,NA
c1047,shallow,flow.Sequence,3_0_5_0_1_1,NA,NA,skipped,NA,696447.29999971,NA,NA,696446,696447.5,2024-05-24T15:07:01Z,696462.9,NULL,Ergänzung,kijalizo,d,NA,NA,NA,NA,sdf,NA,5,NA,NA,NA,NA,NA,NA,NA,NA,NA,NA,NA,NA,NA,NA,NA,NA,NA,NA,NA
c1047,task,flow.Sequence,3_0_5_0_1,NA,NA,completion,15024,681411.19999981,681404.8,681422,696446,696447.69999981,2024-05-24T15:07:01Z,696462.9,NULL,Ergänzung,kijalizo,d,NA,NA,NA,NA,sdf,NA,5,NA,NA,NA,NA,NA,NA,NA,NA,NA,NA,NA,NA,NA,NA,NA,NA,NA,NA,NA
c1047,deep,flow.Sequence,3_0_5_0_2_0,NA,NA,skipped,NA,696447.79999971,NA,NA,696446,696447.89999962,2024-05-24T15:07:01Z,696462.9,NULL,Vergnügen,kichekesho,s,dubwana,mpanuko,mtesaji,NA,sdf,NA,5,NA,NA,NA,NA,NA,NA,NA,NA,NA,NA,NA,NA,NA,NA,NA,NA,NA,NA,NA
c1047,Shallow Question,html.Page,3_0_5_0_2_1_0,NA,NA,form submission,5212.1,696448,696446,696462.9,701675,701675.29999971,2024-05-24T15:07:06Z,701692.8,NULL,Vergnügen,kichekesho,s,dubwana,mpanuko,mtesaji,kichekesho,NA,NA,5,NA,NA,NA,NA,NA,NA,NA,NA,NA,NA,NA,NA,NA,NA,NA,NA,NA,NA,NA
c1047,"""Richtig""-Screen",canvas.Screen,3_0_5_0_2_1_1,NA,NA,timeout,4996.7999999999,701678.29999971,701676.3,701692.8,706673,706673.39999962,2024-05-24T15:07:11Z,706689.6,NULL,Vergnügen,kichekesho,s,dubwana,mpanuko,mtesaji,NA,sdf,1,5,NA,NA,NA,NA,NA,NA,NA,NA,NA,NA,NA,NA,NA,NA,NA,NA,NA,NA,NA
c1047,"""Falsch""-Screen",canvas.Screen,3_0_5_0_2_1_2,NA,NA,skipped,NA,706675.29999971,NA,NA,706673,706675.29999971,2024-05-24T15:07:11Z,706689.6,NULL,Vergnügen,kichekesho,s,dubwana,mpanuko,mtesaji,NA,sdf,NA,5,NA,NA,NA,NA,NA,NA,NA,NA,NA,NA,NA,NA,NA,NA,NA,NA,NA,NA,NA
c1047,shallow,flow.Sequence,3_0_5_0_2_1,NA,NA,completion,10210.1,696448,696446,696462.9,706673,706675.5,2024-05-24T15:07:11Z,706689.6,NULL,Vergnügen,kichekesho,s,dubwana,mpanuko,mtesaji,NA,sdf,NA,5,NA,NA,NA,NA,NA,NA,NA,NA,NA,NA,NA,NA,NA,NA,NA,NA,NA,NA,NA
c1047,task,flow.Sequence,3_0_5_0_2,NA,NA,completion,10210.1,696447.69999981,696446,696462.9,706673,706675.5,2024-05-24T15:07:11Z,706689.6,NULL,Vergnügen,kichekesho,s,dubwana,mpanuko,mtesaji,NA,sdf,NA,5,NA,NA,NA,NA,NA,NA,NA,NA,NA,NA,NA,NA,NA,NA,NA,NA,NA,NA,NA
c1047,deep,flow.Sequence,3_0_5_0_3_0,NA,NA,skipped,NA,706675.5999999,NA,NA,706673,706675.5999999,2024-05-24T15:07:11Z,706689.6,NULL,Notfall,dharura,s,rairai,malalamiko,ahueni,NA,sdf,NA,5,NA,NA,NA,NA,NA,NA,NA,NA,NA,NA,NA,NA,NA,NA,NA,NA,NA,NA,NA
c1047,Shallow Question,html.Page,3_0_5_0_3_1_0,NA,NA,form submission,3463.4,706675.69999981,706673,706689.6,710153,710153.19999981,2024-05-24T15:07:14Z,710154.622,NULL,Notfall,dharura,s,rairai,malalamiko,ahueni,dharura,NA,NA,5,NA,NA,NA,NA,NA,NA,NA,NA,NA,NA,NA,NA,NA,NA,NA,NA,NA,NA,NA
c1047,"""Richtig""-Screen",canvas.Screen,3_0_5_0_3_1_1,NA,NA,timeout,4996.6780000001,710156.0999999,710154.622,710154.622,715134.2,715135.0999999,2024-05-24T15:07:19Z,715151.3,NULL,Notfall,dharura,s,rairai,malalamiko,ahueni,NA,sdf,1,5,NA,NA,NA,NA,NA,NA,NA,NA,NA,NA,NA,NA,NA,NA,NA,NA,NA,NA,NA
c1047,"""Falsch""-Screen",canvas.Screen,3_0_5_0_3_1_2,NA,NA,skipped,NA,715140.29999971,NA,NA,715134.2,715140.39999962,2024-05-24T15:07:19Z,715151.3,NULL,Notfall,dharura,s,rairai,malalamiko,ahueni,NA,sdf,NA,5,NA,NA,NA,NA,NA,NA,NA,NA,NA,NA,NA,NA,NA,NA,NA,NA,NA,NA,NA
c1047,shallow,flow.Sequence,3_0_5_0_3_1,NA,NA,completion,8444.6,706675.69999981,706673,706689.6,715134.2,715140.5,2024-05-24T15:07:19Z,715151.3,NULL,Notfall,dharura,s,rairai,malalamiko,ahueni,NA,sdf,NA,5,NA,NA,NA,NA,NA,NA,NA,NA,NA,NA,NA,NA,NA,NA,NA,NA,NA,NA,NA
c1047,task,flow.Sequence,3_0_5_0_3,NA,NA,completion,8444.6,706675.5999999,706673,706689.6,715134.2,715140.5999999,2024-05-24T15:07:19Z,715151.3,NULL,Notfall,dharura,s,rairai,malalamiko,ahueni,NA,sdf,NA,5,NA,NA,NA,NA,NA,NA,NA,NA,NA,NA,NA,NA,NA,NA,NA,NA,NA,NA,NA
c1047,Deep Question,html.Page,3_0_5_0_4_0_0,NA,NA,form submission,10570.399999809,715140.5999999,715134.2,715151.3,725721.69999981,725722,2024-05-24T15:07:30Z,725727.7,NULL,Stimmung,kinyongo,d,NA,NA,NA,kinyongo,NA,NA,5,NA,NA,NA,NA,NA,NA,NA,NA,NA,NA,NA,NA,NA,NA,NA,NA,NA,NA,NA
c1047,"""Richtig""-Screen",canvas.Screen,3_0_5_0_4_0_1,NA,NA,timeout,4997.4,725724.89999962,725713.114,725727.7,730708.1,730710.29999971,2024-05-24T15:07:35Z,730725.1,NULL,Stimmung,kinyongo,d,NA,NA,NA,NA,sdf,1,5,NA,NA,NA,NA,NA,NA,NA,NA,NA,NA,NA,NA,NA,NA,NA,NA,NA,NA,NA
c1047,"""Falsch""-Screen",canvas.Screen,3_0_5_0_4_0_2,NA,NA,skipped,NA,730715,NA,NA,730708.1,730715,2024-05-24T15:07:35Z,730725.1,NULL,Stimmung,kinyongo,d,NA,NA,NA,NA,sdf,NA,5,NA,NA,NA,NA,NA,NA,NA,NA,NA,NA,NA,NA,NA,NA,NA,NA,NA,NA,NA
c1047,deep,flow.Sequence,3_0_5_0_4_0,NA,NA,completion,15556.8,715140.5999999,715134.2,715151.3,730708.1,730715.0999999,2024-05-24T15:07:35Z,730725.1,NULL,Stimmung,kinyongo,d,NA,NA,NA,NA,sdf,NA,5,NA,NA,NA,NA,NA,NA,NA,NA,NA,NA,NA,NA,NA,NA,NA,NA,NA,NA,NA
c1047,shallow,flow.Sequence,3_0_5_0_4_1,NA,NA,skipped,NA,730715.19999981,NA,NA,730708.1,730715.19999981,2024-05-24T15:07:35Z,730725.1,NULL,Stimmung,kinyongo,d,NA,NA,NA,NA,sdf,NA,5,NA,NA,NA,NA,NA,NA,NA,NA,NA,NA,NA,NA,NA,NA,NA,NA,NA,NA,NA
c1047,task,flow.Sequence,3_0_5_0_4,NA,NA,completion,15556.8,715140.5999999,715134.2,715151.3,730708.1,730715.19999981,2024-05-24T15:07:35Z,730725.1,NULL,Stimmung,kinyongo,d,NA,NA,NA,NA,sdf,NA,5,NA,NA,NA,NA,NA,NA,NA,NA,NA,NA,NA,NA,NA,NA,NA,NA,NA,NA,NA
c1047,Deep Question,html.Page,3_0_5_0_5_0_0,NA,NA,form submission,6039.5999998093,730715.29999971,730708.1,730725.1,736764.69999981,736765,2024-05-24T15:07:41Z,736771,NULL,Wohlstand,mafanikio,d,NA,NA,NA,mafankio,NA,NA,5,NA,NA,NA,NA,NA,NA,NA,NA,NA,NA,NA,NA,NA,NA,NA,NA,NA,NA,NA
c1047,"""Richtig""-Screen",canvas.Screen,3_0_5_0_5_0_1,NA,NA,skipped,NA,736767.79999971,NA,NA,736764.69999981,736767.89999962,2024-05-24T15:07:41Z,736771,NULL,Wohlstand,mafanikio,d,NA,NA,NA,NA,sdf,NA,5,NA,NA,NA,NA,NA,NA,NA,NA,NA,NA,NA,NA,NA,NA,NA,NA,NA,NA,NA
c1047,"""Falsch""-Screen",canvas.Screen,3_0_5_0_5_0_2,NA,NA,timeout,4997.4,736768.69999981,736760.4,736771,741751.7,741752.19999981,2024-05-24T15:07:46Z,741768.4,NULL,Wohlstand,mafanikio,d,NA,NA,NA,NA,sdf,0,5,NA,NA,NA,NA,NA,NA,NA,NA,NA,NA,NA,NA,NA,NA,NA,NA,NA,NA,NA
c1047,deep,flow.Sequence,3_0_5_0_5_0,NA,NA,completion,11026.6,730715.29999971,730708.1,730725.1,741751.7,741752.29999971,2024-05-24T15:07:46Z,741768.4,NULL,Wohlstand,mafanikio,d,NA,NA,NA,NA,sdf,NA,5,NA,NA,NA,NA,NA,NA,NA,NA,NA,NA,NA,NA,NA,NA,NA,NA,NA,NA,NA
c1047,shallow,flow.Sequence,3_0_5_0_5_1,NA,NA,skipped,NA,741752.39999962,NA,NA,741751.7,741752.39999962,2024-05-24T15:07:46Z,741768.4,NULL,Wohlstand,mafanikio,d,NA,NA,NA,NA,sdf,NA,5,NA,NA,NA,NA,NA,NA,NA,NA,NA,NA,NA,NA,NA,NA,NA,NA,NA,NA,NA
c1047,task,flow.Sequence,3_0_5_0_5,NA,NA,completion,11026.6,730715.19999981,730708.1,730725.1,741751.7,741752.5,2024-05-24T15:07:46Z,741768.4,NULL,Wohlstand,mafanikio,d,NA,NA,NA,NA,sdf,NA,5,NA,NA,NA,NA,NA,NA,NA,NA,NA,NA,NA,NA,NA,NA,NA,NA,NA,NA,NA
c1047,Deep Question,html.Page,3_0_5_0_6_0_0,NA,NA,form submission,10083.899999714,741752.5999999,741751.7,741768.4,751852.29999971,751852.5,2024-05-24T15:07:56Z,751861.7,NULL,Betrüger,mdanganyifu,d,NA,NA,NA,mdangafijo,NA,NA,5,NA,NA,NA,NA,NA,NA,NA,NA,NA,NA,NA,NA,NA,NA,NA,NA,NA,NA,NA
c1047,"""Richtig""-Screen",canvas.Screen,3_0_5_0_6_0_1,NA,NA,skipped,NA,751855.39999962,NA,NA,751852.29999971,751855.5999999,2024-05-24T15:07:56Z,751861.7,NULL,Betrüger,mdanganyifu,d,NA,NA,NA,NA,sdf,NA,5,NA,NA,NA,NA,NA,NA,NA,NA,NA,NA,NA,NA,NA,NA,NA,NA,NA,NA,NA
c1047,"""Falsch""-Screen",canvas.Screen,3_0_5_0_6_0_2,NA,NA,timeout,4997.5,751856.29999971,751847.52,751861.7,756842.3,756843.79999971,2024-05-24T15:08:01Z,756859.2,NULL,Betrüger,mdanganyifu,d,NA,NA,NA,NA,sdf,0,5,NA,NA,NA,NA,NA,NA,NA,NA,NA,NA,NA,NA,NA,NA,NA,NA,NA,NA,NA
c1047,deep,flow.Sequence,3_0_5_0_6_0,NA,NA,completion,15073.9,741752.5999999,741751.7,741768.4,756842.3,756844.19999981,2024-05-24T15:08:01Z,756859.2,NULL,Betrüger,mdanganyifu,d,NA,NA,NA,NA,sdf,NA,5,NA,NA,NA,NA,NA,NA,NA,NA,NA,NA,NA,NA,NA,NA,NA,NA,NA,NA,NA
c1047,shallow,flow.Sequence,3_0_5_0_6_1,NA,NA,skipped,NA,756844.39999962,NA,NA,756842.3,756844.5,2024-05-24T15:08:01Z,756859.2,NULL,Betrüger,mdanganyifu,d,NA,NA,NA,NA,sdf,NA,5,NA,NA,NA,NA,NA,NA,NA,NA,NA,NA,NA,NA,NA,NA,NA,NA,NA,NA,NA
c1047,task,flow.Sequence,3_0_5_0_6,NA,NA,completion,15073.9,741752.5999999,741751.7,741768.4,756842.3,756844.79999971,2024-05-24T15:08:01Z,756859.2,NULL,Betrüger,mdanganyifu,d,NA,NA,NA,NA,sdf,NA,5,NA,NA,NA,NA,NA,NA,NA,NA,NA,NA,NA,NA,NA,NA,NA,NA,NA,NA,NA
c1047,deep,flow.Sequence,3_0_5_0_7_0,NA,NA,skipped,NA,756845,NA,NA,756842.3,756845,2024-05-24T15:08:01Z,756859.2,NULL,Orientierung,urekebisho,s,uelekeo,marekebisho,utunzaji,NA,sdf,NA,5,NA,NA,NA,NA,NA,NA,NA,NA,NA,NA,NA,NA,NA,NA,NA,NA,NA,NA,NA
c1047,Shallow Question,html.Page,3_0_5_0_7_1_0,NA,NA,form submission,3436.1999996186,756845.0999999,756842.3,756859.2,760295.39999962,760295.5999999,2024-05-24T15:08:05Z,760323.3,NULL,Orientierung,urekebisho,s,uelekeo,marekebisho,utunzaji,urekebisho,NA,NA,5,NA,NA,NA,NA,NA,NA,NA,NA,NA,NA,NA,NA,NA,NA,NA,NA,NA,NA,NA
c1047,"""Richtig""-Screen",canvas.Screen,3_0_5_0_7_1_1,NA,NA,timeout,4997.3999999999,760298.69999981,760307.444,760323.3,765304.1,765305,2024-05-24T15:08:10Z,765320.7,NULL,Orientierung,urekebisho,s,uelekeo,marekebisho,utunzaji,NA,sdf,1,5,NA,NA,NA,NA,NA,NA,NA,NA,NA,NA,NA,NA,NA,NA,NA,NA,NA,NA,NA
c1047,"""Falsch""-Screen",canvas.Screen,3_0_5_0_7_1_2,NA,NA,skipped,NA,765310.19999981,NA,NA,765304.1,765310.29999971,2024-05-24T15:08:10Z,765320.7,NULL,Orientierung,urekebisho,s,uelekeo,marekebisho,utunzaji,NA,sdf,NA,5,NA,NA,NA,NA,NA,NA,NA,NA,NA,NA,NA,NA,NA,NA,NA,NA,NA,NA,NA
c1047,shallow,flow.Sequence,3_0_5_0_7_1,NA,NA,completion,8444.9,756845,756842.3,756859.2,765304.1,765310.29999971,2024-05-24T15:08:10Z,765320.7,NULL,Orientierung,urekebisho,s,uelekeo,marekebisho,utunzaji,NA,sdf,NA,5,NA,NA,NA,NA,NA,NA,NA,NA,NA,NA,NA,NA,NA,NA,NA,NA,NA,NA,NA
c1047,task,flow.Sequence,3_0_5_0_7,NA,NA,completion,8444.9,756844.89999962,756842.3,756859.2,765304.1,765310.39999962,2024-05-24T15:08:10Z,765320.7,NULL,Orientierung,urekebisho,s,uelekeo,marekebisho,utunzaji,NA,sdf,NA,5,NA,NA,NA,NA,NA,NA,NA,NA,NA,NA,NA,NA,NA,NA,NA,NA,NA,NA,NA
c1047,block,flow.Loop,3_0_5_0,NA,NA,completion,91827.308,673488.29999971,673476.792,673476.792,765304.1,765310.5,2024-05-24T15:08:10Z,765320.7,NULL,NA,NA,NA,NA,NA,NA,NA,sdf,NA,5,NA,NA,NA,NA,NA,NA,NA,NA,NA,NA,NA,NA,NA,NA,NA,NA,NA,NA,NA
c1047,weiter,canvas.Screen,3_0_5_1,sdf,keypress(Space),response,1702.9999998093,765310.5,765304.1,765320.7,767023.69999981,767024.69999981,2024-05-24T15:08:11Z,767335.8,NULL,NA,NA,NA,NA,NA,NA,NA,sdf,NA,5,NA,NA,NA,NA,NA,NA,NA,NA,NA,NA,NA,NA,NA,NA,NA,NA,NA,NA,NA
c1047,check continue,flow.Sequence,3_0_5,NA,NA,completion,93546.907999809,673488.29999971,673476.792,673476.792,767023.69999981,767025.0999999,2024-05-24T15:08:11Z,767335.8,NULL,NA,NA,NA,NA,NA,NA,NA,sdf,NA,5,NA,NA,NA,NA,NA,NA,NA,NA,NA,NA,NA,NA,NA,NA,NA,NA,NA,NA,NA
c1047,check continue,flow.Sequence,3_0_6,NA,NA,skipped,NA,767046.89999962,NA,NA,767023.69999981,767047,2024-05-24T15:08:11Z,767335.8,NULL,NA,NA,NA,NA,NA,NA,NA,dfs,NA,6,NA,NA,NA,NA,NA,NA,NA,NA,NA,NA,NA,NA,NA,NA,NA,NA,NA,NA,NA
c1047,check continue,flow.Sequence,3_0_7,NA,NA,skipped,NA,767062,NA,NA,767023.69999981,767062,2024-05-24T15:08:11Z,767335.8,NULL,NA,NA,NA,NA,NA,NA,NA,df,NA,7,NA,NA,NA,NA,NA,NA,NA,NA,NA,NA,NA,NA,NA,NA,NA,NA,NA,NA,NA
c1047,check continue,flow.Sequence,3_0_8,NA,NA,skipped,NA,767075.19999981,NA,NA,767023.69999981,767075.19999981,2024-05-24T15:08:11Z,767335.8,NULL,NA,NA,NA,NA,NA,NA,NA,dfs,NA,8,NA,NA,NA,NA,NA,NA,NA,NA,NA,NA,NA,NA,NA,NA,NA,NA,NA,NA,NA
c1047,check continue,flow.Sequence,3_0_9,NA,NA,skipped,NA,767087.69999981,NA,NA,767023.69999981,767087.79999971,2024-05-24T15:08:11Z,767335.8,NULL,NA,NA,NA,NA,NA,NA,NA,dsf,NA,9,NA,NA,NA,NA,NA,NA,NA,NA,NA,NA,NA,NA,NA,NA,NA,NA,NA,NA,NA
c1047,check continue,flow.Sequence,3_0_10,NA,NA,skipped,NA,767100.89999962,NA,NA,767023.69999981,767101,2024-05-24T15:08:11Z,767335.8,NULL,NA,NA,NA,NA,NA,NA,NA,df,NA,10,NA,NA,NA,NA,NA,NA,NA,NA,NA,NA,NA,NA,NA,NA,NA,NA,NA,NA,NA
c1047,check continue,flow.Sequence,3_0_11,NA,NA,skipped,NA,767113.39999962,NA,NA,767023.69999981,767113.5,2024-05-24T15:08:11Z,767335.8,NULL,NA,NA,NA,NA,NA,NA,NA,dfs,NA,11,NA,NA,NA,NA,NA,NA,NA,NA,NA,NA,NA,NA,NA,NA,NA,NA,NA,NA,NA
c1047,check continue,flow.Sequence,3_0_12,NA,NA,skipped,NA,767126.69999981,NA,NA,767023.69999981,767126.69999981,2024-05-24T15:08:11Z,767335.8,NULL,NA,NA,NA,NA,NA,NA,NA,dsf,NA,12,NA,NA,NA,NA,NA,NA,NA,NA,NA,NA,NA,NA,NA,NA,NA,NA,NA,NA,NA
c1047,check continue,flow.Sequence,3_0_13,NA,NA,skipped,NA,767139.5,NA,NA,767023.69999981,767139.5,2024-05-24T15:08:11Z,767335.8,NULL,NA,NA,NA,NA,NA,NA,NA,dsf,NA,13,NA,NA,NA,NA,NA,NA,NA,NA,NA,NA,NA,NA,NA,NA,NA,NA,NA,NA,NA
c1047,check continue,flow.Sequence,3_0_14,NA,NA,skipped,NA,767152.5999999,NA,NA,767023.69999981,767152.5999999,2024-05-24T15:08:11Z,767335.8,NULL,NA,NA,NA,NA,NA,NA,NA,NA,NA,14,NA,NA,NA,NA,NA,NA,NA,NA,NA,NA,NA,NA,NA,NA,NA,NA,NA,NA,NA
c1047,check continue,flow.Sequence,3_0_15,NA,NA,skipped,NA,767163.5999999,NA,NA,767023.69999981,767163.69999981,2024-05-24T15:08:11Z,767335.8,NULL,NA,NA,NA,NA,NA,NA,NA,NA,NA,15,NA,NA,NA,NA,NA,NA,NA,NA,NA,NA,NA,NA,NA,NA,NA,NA,NA,NA,NA
c1047,check continue,flow.Sequence,3_0_16,NA,NA,skipped,NA,767175,NA,NA,767023.69999981,767175,2024-05-24T15:08:11Z,767335.8,NULL,NA,NA,NA,NA,NA,NA,NA,NA,NA,16,NA,NA,NA,NA,NA,NA,NA,NA,NA,NA,NA,NA,NA,NA,NA,NA,NA,NA,NA
c1047,check continue,flow.Sequence,3_0_17,NA,NA,skipped,NA,767186.29999971,NA,NA,767023.69999981,767186.39999962,2024-05-24T15:08:11Z,767335.8,NULL,NA,NA,NA,NA,NA,NA,NA,NA,NA,17,NA,NA,NA,NA,NA,NA,NA,NA,NA,NA,NA,NA,NA,NA,NA,NA,NA,NA,NA
c1047,check continue,flow.Sequence,3_0_18,NA,NA,skipped,NA,767196.89999962,NA,NA,767023.69999981,767197,2024-05-24T15:08:11Z,767335.8,NULL,NA,NA,NA,NA,NA,NA,NA,NA,NA,18,NA,NA,NA,NA,NA,NA,NA,NA,NA,NA,NA,NA,NA,NA,NA,NA,NA,NA,NA
c1047,check continue,flow.Sequence,3_0_19,NA,NA,skipped,NA,767207.69999981,NA,NA,767023.69999981,767207.79999971,2024-05-24T15:08:11Z,767335.8,NULL,NA,NA,NA,NA,NA,NA,NA,NA,NA,19,NA,NA,NA,NA,NA,NA,NA,NA,NA,NA,NA,NA,NA,NA,NA,NA,NA,NA,NA
c1047,check continue,flow.Sequence,3_0_20,NA,NA,skipped,NA,767218.5999999,NA,NA,767023.69999981,767218.69999981,2024-05-24T15:08:12Z,767335.8,NULL,NA,NA,NA,NA,NA,NA,NA,NA,NA,20,NA,NA,NA,NA,NA,NA,NA,NA,NA,NA,NA,NA,NA,NA,NA,NA,NA,NA,NA
c1047,check continue,flow.Sequence,3_0_21,NA,NA,skipped,NA,767229.89999962,NA,NA,767023.69999981,767230,2024-05-24T15:08:12Z,767335.8,NULL,NA,NA,NA,NA,NA,NA,NA,NA,NA,21,NA,NA,NA,NA,NA,NA,NA,NA,NA,NA,NA,NA,NA,NA,NA,NA,NA,NA,NA
c1047,check continue,flow.Sequence,3_0_22,NA,NA,skipped,NA,767241.5999999,NA,NA,767023.69999981,767241.69999981,2024-05-24T15:08:12Z,767335.8,NULL,NA,NA,NA,NA,NA,NA,NA,NA,NA,22,NA,NA,NA,NA,NA,NA,NA,NA,NA,NA,NA,NA,NA,NA,NA,NA,NA,NA,NA
c1047,check continue,flow.Sequence,3_0_23,NA,NA,skipped,NA,767253.29999971,NA,NA,767023.69999981,767253.39999962,2024-05-24T15:08:12Z,767335.8,NULL,NA,NA,NA,NA,NA,NA,NA,NA,NA,23,NA,NA,NA,NA,NA,NA,NA,NA,NA,NA,NA,NA,NA,NA,NA,NA,NA,NA,NA
c1047,check continue,flow.Sequence,3_0_24,NA,NA,skipped,NA,767264.5999999,NA,NA,767023.69999981,767264.5999999,2024-05-24T15:08:12Z,767335.8,NULL,NA,NA,NA,NA,NA,NA,NA,NA,NA,24,NA,NA,NA,NA,NA,NA,NA,NA,NA,NA,NA,NA,NA,NA,NA,NA,NA,NA,NA
c1047,check continue,flow.Sequence,3_0_25,NA,NA,skipped,NA,767276.69999981,NA,NA,767023.69999981,767276.79999971,2024-05-24T15:08:12Z,767335.8,NULL,NA,NA,NA,NA,NA,NA,NA,NA,NA,25,NA,NA,NA,NA,NA,NA,NA,NA,NA,NA,NA,NA,NA,NA,NA,NA,NA,NA,NA
c1047,check continue,flow.Sequence,3_0_26,NA,NA,skipped,NA,767286.69999981,NA,NA,767023.69999981,767286.69999981,2024-05-24T15:08:12Z,767335.8,NULL,NA,NA,NA,NA,NA,NA,NA,NA,NA,26,NA,NA,NA,NA,NA,NA,NA,NA,NA,NA,NA,NA,NA,NA,NA,NA,NA,NA,NA
c1047,check continue,flow.Sequence,3_0_27,NA,NA,skipped,NA,767298.89999962,NA,NA,767023.69999981,767299,2024-05-24T15:08:12Z,767335.8,NULL,NA,NA,NA,NA,NA,NA,NA,NA,NA,27,NA,NA,NA,NA,NA,NA,NA,NA,NA,NA,NA,NA,NA,NA,NA,NA,NA,NA,NA
c1047,check continue,flow.Sequence,3_0_28,NA,NA,skipped,NA,767309.19999981,NA,NA,767023.69999981,767309.29999971,2024-05-24T15:08:12Z,767335.8,NULL,NA,NA,NA,NA,NA,NA,NA,NA,NA,28,NA,NA,NA,NA,NA,NA,NA,NA,NA,NA,NA,NA,NA,NA,NA,NA,NA,NA,NA
c1047,check continue,flow.Sequence,3_0_29,NA,NA,skipped,NA,767321.19999981,NA,NA,767023.69999981,767321.29999971,2024-05-24T15:08:12Z,767335.8,NULL,NA,NA,NA,NA,NA,NA,NA,NA,NA,29,NA,NA,NA,NA,NA,NA,NA,NA,NA,NA,NA,NA,NA,NA,NA,NA,NA,NA,NA
c1047,until continue,flow.Loop,3_0,NA,NA,completion,648958.49999981,118048.79999971,118058,118065.2,767023.69999981,767321.39999962,2024-05-24T15:08:12Z,767335.8,NULL,NA,NA,NA,NA,NA,NA,NA,NA,NA,NA,NA,NA,NA,NA,NA,NA,NA,NA,NA,NA,NA,NA,NA,NA,NA,NA,NA,NA,NA
c1047,block 1,flow.Sequence,3,NA,NA,completion,648958.49999981,118048.79999971,118058,118065.2,767023.69999981,767321.5,2024-05-24T15:08:12Z,767335.8,NULL,NA,NA,NA,NA,NA,NA,NA,NA,NA,NA,NA,NA,NA,NA,NA,NA,NA,NA,NA,NA,NA,NA,NA,NA,NA,NA,NA,NA,NA
c1047,1.Part Over,canvas.Screen,4,NA,keypress(Space),response,1583.7999999046,767321.5,767320.62,767335.8,768919.5999999,768920.5999999,2024-05-24T15:08:13Z,768984.7,NULL,NA,NA,NA,NA,NA,NA,NA,NA,NA,NA,NA,NA,NA,NA,NA,NA,NA,NA,NA,NA,NA,NA,NA,NA,NA,NA,NA,NA,NA
