observation,sender,sender_type,sender_id,response,response_action,ended_on,duration,time_run,time_render,time_show,time_end,time_commit,timestamp,time_switch,distractors,german,swahili,enc,distractor1,distractor2,distractor3,response_2,x,correct,x_2,url_vp,url_sess,meta_labjs_version,meta_location,meta_user_agent,meta_platform,meta_language,meta_locale,meta_time_zone,meta_timezone_offset,meta_screen_width,meta_screen_height,meta_scroll_width,meta_scroll_height,meta_window_inner_width,meta_window_inner_height,meta_device_pixel_ratio,meta_labjs_build_flavor,meta_labjs_build_commit
d3caa,Introduction general,canvas.Screen,0,weiter,keypress(q),response,40314.28,1741,1754.06,1770.72,42085,42104,2023-06-13T11:47:14Z,42105.76,NULL,NA,NA,NA,NA,NA,NA,NA,NA,NA,NA,125,3,20.2.4,https://neurocog.fernuni.ch/studies/vweber/encoding_immediate/index.html?vp=125&sess=3,Mozilla/5.0 (Macintosh; Intel Mac OS X 10.15; rv:109.0) Gecko/20100101 Firefox/114.0,MacIntel,de,de-CH,Europe/Zurich,-120,1470,956,1206,705,1206,753,2,production,f5b4a49f956347addd546a832a3327688c2c0fef
d3caa,Introduction practice,canvas.Screen,1_0,NA,keypress(Space),response,11180.24,42105,42105.64,42105.76,53286,53293,2023-06-13T11:47:25Z,53294.52,NULL,NA,NA,NA,NA,NA,NA,NA,NA,NA,NA,NA,NA,NA,NA,NA,NA,NA,NA,NA,NA,NA,NA,NA,NA,NA,NA,NA,NA,NA
d3caa,deep,flow.Sequence,1_1_0_0,NA,NA,skipped,NA,53294,NA,NA,53286,53294,2023-06-13T11:47:25Z,53294.52,"c(""distractor1"", ""distractor2"", ""distractor3"")",Rückhalt,msaada,s,muhula,auwali,kiwimbe,NA,NA,NA,NA,NA,NA,NA,NA,NA,NA,NA,NA,NA,NA,NA,NA,NA,NA,NA,NA,NA,NA,NA
d3caa,Shallow Question,html.Page,1_1_0_1_0,NA,NA,form submission,5230.48,53294,53294.32,53294.52,58525,58525,2023-06-13T11:47:31Z,58535.78,"c(""distractor1"", ""distractor2"", ""distractor3"")",Rückhalt,msaada,s,muhula,auwali,kiwimbe,kiwimbe,NA,NA,NA,NA,NA,NA,NA,NA,NA,NA,NA,NA,NA,NA,NA,NA,NA,NA,NA,NA,NA,NA
d3caa,"""Richtig""-Screen",canvas.Screen,1_1_0_1_1,NA,NA,skipped,NA,58531,NA,NA,58525,58531,2023-06-13T11:47:31Z,58535.78,"c(""distractor1"", ""distractor2"", ""distractor3"")",Rückhalt,msaada,s,muhula,auwali,kiwimbe,NA,NA,NA,NA,NA,NA,NA,NA,NA,NA,NA,NA,NA,NA,NA,NA,NA,NA,NA,NA,NA,NA,NA
d3caa,"""Falsch""-Screen",canvas.Screen,1_1_0_1_2,NA,NA,timeout,5000.5,58532,58512.54,58535.78,63519.94,63521,2023-06-13T11:47:35Z,63536.28,"c(""distractor1"", ""distractor2"", ""distractor3"")",Rückhalt,msaada,s,muhula,auwali,kiwimbe,NA,NA,0,NA,NA,NA,NA,NA,NA,NA,NA,NA,NA,NA,NA,NA,NA,NA,NA,NA,NA,NA,NA
d3caa,shallow,flow.Sequence,1_1_0_1,NA,NA,completion,10225.42,53294,53294.32,53294.52,63519.94,63522,2023-06-13T11:47:36Z,63536.28,"c(""distractor1"", ""distractor2"", ""distractor3"")",Rückhalt,msaada,s,muhula,auwali,kiwimbe,NA,NA,NA,NA,NA,NA,NA,NA,NA,NA,NA,NA,NA,NA,NA,NA,NA,NA,NA,NA,NA,NA,NA
d3caa,task,flow.Sequence,1_1_0,NA,NA,completion,10225.42,53293,53294.32,53294.52,63519.94,63522,2023-06-13T11:47:36Z,63536.28,"c(""distractor1"", ""distractor2"", ""distractor3"")",Rückhalt,msaada,s,muhula,auwali,kiwimbe,NA,NA,NA,NA,NA,NA,NA,NA,NA,NA,NA,NA,NA,NA,NA,NA,NA,NA,NA,NA,NA,NA,NA
d3caa,deep,flow.Sequence,1_1_1_0,NA,NA,skipped,NA,63523,NA,NA,63519.94,63523,2023-06-13T11:47:36Z,63536.28,"c(""distractor1"", ""distractor2"", ""distractor3"")",Gegenwart,hadhara,s,katiba,jokofu,mikopo,NA,NA,NA,NA,NA,NA,NA,NA,NA,NA,NA,NA,NA,NA,NA,NA,NA,NA,NA,NA,NA,NA,NA
d3caa,Shallow Question,html.Page,1_1_1_1_0,NA,NA,form submission,3766.72,63523,63519.94,63536.28,67303,67304,2023-06-13T11:47:39Z,67303.24,"c(""distractor1"", ""distractor2"", ""distractor3"")",Gegenwart,hadhara,s,katiba,jokofu,mikopo,jokofu,NA,NA,NA,NA,NA,NA,NA,NA,NA,NA,NA,NA,NA,NA,NA,NA,NA,NA,NA,NA,NA,NA
d3caa,"""Richtig""-Screen",canvas.Screen,1_1_1_1_1,NA,NA,skipped,NA,67306,NA,NA,67303,67307,2023-06-13T11:47:39Z,67303.24,"c(""distractor1"", ""distractor2"", ""distractor3"")",Gegenwart,hadhara,s,katiba,jokofu,mikopo,NA,NA,NA,NA,NA,NA,NA,NA,NA,NA,NA,NA,NA,NA,NA,NA,NA,NA,NA,NA,NA,NA,NA
d3caa,"""Falsch""-Screen",canvas.Screen,1_1_1_1_2,NA,NA,timeout,4999.82,67307,67299.7,67303.24,72286.32,72289,2023-06-13T11:47:44Z,72303.06,"c(""distractor1"", ""distractor2"", ""distractor3"")",Gegenwart,hadhara,s,katiba,jokofu,mikopo,NA,NA,0,NA,NA,NA,NA,NA,NA,NA,NA,NA,NA,NA,NA,NA,NA,NA,NA,NA,NA,NA,NA
d3caa,shallow,flow.Sequence,1_1_1_1,NA,NA,completion,8750.04,63523,63519.94,63536.28,72286.32,72290,2023-06-13T11:47:44Z,72303.06,"c(""distractor1"", ""distractor2"", ""distractor3"")",Gegenwart,hadhara,s,katiba,jokofu,mikopo,NA,NA,NA,NA,NA,NA,NA,NA,NA,NA,NA,NA,NA,NA,NA,NA,NA,NA,NA,NA,NA,NA,NA
d3caa,task,flow.Sequence,1_1_1,NA,NA,completion,8750.04,63523,63519.94,63536.28,72286.32,72290,2023-06-13T11:47:44Z,72303.06,"c(""distractor1"", ""distractor2"", ""distractor3"")",Gegenwart,hadhara,s,katiba,jokofu,mikopo,NA,NA,NA,NA,NA,NA,NA,NA,NA,NA,NA,NA,NA,NA,NA,NA,NA,NA,NA,NA,NA,NA,NA
d3caa,Deep Question,html.Page,1_1_2_0_0,NA,NA,form submission,4573.94,72292,72286.32,72303.06,76877,76878,2023-06-13T11:47:49Z,76886.42,"c(""distractor1"", ""distractor2"", ""distractor3"")",Gesundheit,salama,d,NA,NA,NA,mbake,NA,NA,NA,NA,NA,NA,NA,NA,NA,NA,NA,NA,NA,NA,NA,NA,NA,NA,NA,NA,NA,NA
d3caa,"""Richtig""-Screen",canvas.Screen,1_1_2_0_1,NA,NA,skipped,NA,76886,NA,NA,76877,76886,2023-06-13T11:47:49Z,76886.42,"c(""distractor1"", ""distractor2"", ""distractor3"")",Gesundheit,salama,d,NA,NA,NA,NA,NA,NA,NA,NA,NA,NA,NA,NA,NA,NA,NA,NA,NA,NA,NA,NA,NA,NA,NA,NA,NA,NA
d3caa,"""Falsch""-Screen",canvas.Screen,1_1_2_0_2,NA,NA,timeout,4999.84,76888,76870.88,76886.42,81869.6,81871,2023-06-13T11:47:54Z,81886.26,"c(""distractor1"", ""distractor2"", ""distractor3"")",Gesundheit,salama,d,NA,NA,NA,NA,NA,0,NA,NA,NA,NA,NA,NA,NA,NA,NA,NA,NA,NA,NA,NA,NA,NA,NA,NA,NA,NA
d3caa,deep,flow.Sequence,1_1_2_0,NA,NA,completion,9566.54,72292,72286.32,72303.06,81869.6,81871,2023-06-13T11:47:54Z,81886.26,"c(""distractor1"", ""distractor2"", ""distractor3"")",Gesundheit,salama,d,NA,NA,NA,NA,NA,NA,NA,NA,NA,NA,NA,NA,NA,NA,NA,NA,NA,NA,NA,NA,NA,NA,NA,NA,NA,NA
d3caa,shallow,flow.Sequence,1_1_2_1,NA,NA,skipped,NA,81871,NA,NA,81869.6,81872,2023-06-13T11:47:54Z,81886.26,"c(""distractor1"", ""distractor2"", ""distractor3"")",Gesundheit,salama,d,NA,NA,NA,NA,NA,NA,NA,NA,NA,NA,NA,NA,NA,NA,NA,NA,NA,NA,NA,NA,NA,NA,NA,NA,NA,NA
d3caa,task,flow.Sequence,1_1_2,NA,NA,completion,9566.54,72291,72286.32,72303.06,81869.6,81872,2023-06-13T11:47:54Z,81886.26,"c(""distractor1"", ""distractor2"", ""distractor3"")",Gesundheit,salama,d,NA,NA,NA,NA,NA,NA,NA,NA,NA,NA,NA,NA,NA,NA,NA,NA,NA,NA,NA,NA,NA,NA,NA,NA,NA,NA
d3caa,deep,flow.Sequence,1_1_3_0,NA,NA,skipped,NA,81873,NA,NA,81869.6,81873,2023-06-13T11:47:54Z,81886.26,"c(""distractor1"", ""distractor2"", ""distractor3"")",Kritik,lawama,s,dereva,nafasi,mawazo,NA,NA,NA,NA,NA,NA,NA,NA,NA,NA,NA,NA,NA,NA,NA,NA,NA,NA,NA,NA,NA,NA,NA
d3caa,Shallow Question,html.Page,1_1_3_1_0,NA,NA,form submission,5092.74,81873,81869.6,81886.26,86979,86980,2023-06-13T11:47:59Z,86986.32,"c(""distractor1"", ""distractor2"", ""distractor3"")",Kritik,lawama,s,dereva,nafasi,mawazo,nafasi,NA,NA,NA,NA,NA,NA,NA,NA,NA,NA,NA,NA,NA,NA,NA,NA,NA,NA,NA,NA,NA,NA
d3caa,"""Richtig""-Screen",canvas.Screen,1_1_3_1_1,NA,NA,skipped,NA,86983,NA,NA,86979,86983,2023-06-13T11:47:59Z,86986.32,"c(""distractor1"", ""distractor2"", ""distractor3"")",Kritik,lawama,s,dereva,nafasi,mawazo,NA,NA,NA,NA,NA,NA,NA,NA,NA,NA,NA,NA,NA,NA,NA,NA,NA,NA,NA,NA,NA,NA,NA
d3caa,"""Falsch""-Screen",canvas.Screen,1_1_3_1_2,NA,NA,timeout,4999.86,86985,86976.3,86986.32,91969.48,91970,2023-06-13T11:48:04Z,91986.18,"c(""distractor1"", ""distractor2"", ""distractor3"")",Kritik,lawama,s,dereva,nafasi,mawazo,NA,NA,0,NA,NA,NA,NA,NA,NA,NA,NA,NA,NA,NA,NA,NA,NA,NA,NA,NA,NA,NA,NA
d3caa,shallow,flow.Sequence,1_1_3_1,NA,NA,completion,10083.22,81873,81869.6,81886.26,91969.48,91970,2023-06-13T11:48:04Z,91986.18,"c(""distractor1"", ""distractor2"", ""distractor3"")",Kritik,lawama,s,dereva,nafasi,mawazo,NA,NA,NA,NA,NA,NA,NA,NA,NA,NA,NA,NA,NA,NA,NA,NA,NA,NA,NA,NA,NA,NA,NA
d3caa,task,flow.Sequence,1_1_3,NA,NA,completion,10083.22,81872,81869.6,81886.26,91969.48,91971,2023-06-13T11:48:04Z,91986.18,"c(""distractor1"", ""distractor2"", ""distractor3"")",Kritik,lawama,s,dereva,nafasi,mawazo,NA,NA,NA,NA,NA,NA,NA,NA,NA,NA,NA,NA,NA,NA,NA,NA,NA,NA,NA,NA,NA,NA,NA
d3caa,Deep Question,html.Page,1_1_4_0_0,NA,NA,form submission,5121.82,91971,91969.48,91986.18,97108,97109,2023-06-13T11:48:09Z,97118.66,"c(""distractor1"", ""distractor2"", ""distractor3"")",Schatten,kivuli,d,NA,NA,NA,nafasi,NA,NA,NA,NA,NA,NA,NA,NA,NA,NA,NA,NA,NA,NA,NA,NA,NA,NA,NA,NA,NA,NA
d3caa,"""Richtig""-Screen",canvas.Screen,1_1_4_0_1,NA,NA,skipped,NA,97112,NA,NA,97108,97112,2023-06-13T11:48:09Z,97118.66,"c(""distractor1"", ""distractor2"", ""distractor3"")",Schatten,kivuli,d,NA,NA,NA,NA,NA,NA,NA,NA,NA,NA,NA,NA,NA,NA,NA,NA,NA,NA,NA,NA,NA,NA,NA,NA,NA,NA
d3caa,"""Falsch""-Screen",canvas.Screen,1_1_4_0_2,NA,NA,timeout,4999.9,97114,97105.76,97118.66,102102.76,102104,2023-06-13T11:48:14Z,102118.56,"c(""distractor1"", ""distractor2"", ""distractor3"")",Schatten,kivuli,d,NA,NA,NA,NA,NA,0,NA,NA,NA,NA,NA,NA,NA,NA,NA,NA,NA,NA,NA,NA,NA,NA,NA,NA,NA,NA
d3caa,deep,flow.Sequence,1_1_4_0,NA,NA,completion,10116.58,91971,91969.48,91986.18,102102.76,102104,2023-06-13T11:48:14Z,102118.56,"c(""distractor1"", ""distractor2"", ""distractor3"")",Schatten,kivuli,d,NA,NA,NA,NA,NA,NA,NA,NA,NA,NA,NA,NA,NA,NA,NA,NA,NA,NA,NA,NA,NA,NA,NA,NA,NA,NA
d3caa,shallow,flow.Sequence,1_1_4_1,NA,NA,skipped,NA,102104,NA,NA,102102.76,102104,2023-06-13T11:48:14Z,102118.56,"c(""distractor1"", ""distractor2"", ""distractor3"")",Schatten,kivuli,d,NA,NA,NA,NA,NA,NA,NA,NA,NA,NA,NA,NA,NA,NA,NA,NA,NA,NA,NA,NA,NA,NA,NA,NA,NA,NA
d3caa,task,flow.Sequence,1_1_4,NA,NA,completion,10116.58,91971,91969.48,91986.18,102102.76,102105,2023-06-13T11:48:14Z,102118.56,"c(""distractor1"", ""distractor2"", ""distractor3"")",Schatten,kivuli,d,NA,NA,NA,NA,NA,NA,NA,NA,NA,NA,NA,NA,NA,NA,NA,NA,NA,NA,NA,NA,NA,NA,NA,NA,NA,NA
d3caa,Deep Question,html.Page,1_1_5_0_0,NA,NA,form submission,7879.44,102105,102102.76,102118.56,109998,109999,2023-06-13T11:48:22Z,110002.7,"c(""distractor1"", ""distractor2"", ""distractor3"")",Qualität,mtindo,d,NA,NA,NA,mikuto,NA,NA,NA,NA,NA,NA,NA,NA,NA,NA,NA,NA,NA,NA,NA,NA,NA,NA,NA,NA,NA,NA
d3caa,"""Richtig""-Screen",canvas.Screen,1_1_5_0_1,NA,NA,skipped,NA,110001,NA,NA,109998,110001,2023-06-13T11:48:22Z,110002.7,"c(""distractor1"", ""distractor2"", ""distractor3"")",Qualität,mtindo,d,NA,NA,NA,NA,NA,NA,NA,NA,NA,NA,NA,NA,NA,NA,NA,NA,NA,NA,NA,NA,NA,NA,NA,NA,NA,NA
d3caa,"""Falsch""-Screen",canvas.Screen,1_1_5_0_2,NA,NA,timeout,4999.82,110003,109994.92,110002.7,114985.84,114989,2023-06-13T11:48:27Z,115002.52,"c(""distractor1"", ""distractor2"", ""distractor3"")",Qualität,mtindo,d,NA,NA,NA,NA,NA,0,NA,NA,NA,NA,NA,NA,NA,NA,NA,NA,NA,NA,NA,NA,NA,NA,NA,NA,NA,NA
d3caa,deep,flow.Sequence,1_1_5_0,NA,NA,completion,12867.28,102105,102102.76,102118.56,114985.84,114991,2023-06-13T11:48:27Z,115002.52,"c(""distractor1"", ""distractor2"", ""distractor3"")",Qualität,mtindo,d,NA,NA,NA,NA,NA,NA,NA,NA,NA,NA,NA,NA,NA,NA,NA,NA,NA,NA,NA,NA,NA,NA,NA,NA,NA,NA
d3caa,shallow,flow.Sequence,1_1_5_1,NA,NA,skipped,NA,114991,NA,NA,114985.84,114991,2023-06-13T11:48:27Z,115002.52,"c(""distractor1"", ""distractor2"", ""distractor3"")",Qualität,mtindo,d,NA,NA,NA,NA,NA,NA,NA,NA,NA,NA,NA,NA,NA,NA,NA,NA,NA,NA,NA,NA,NA,NA,NA,NA,NA,NA
d3caa,task,flow.Sequence,1_1_5,NA,NA,completion,12867.28,102105,102102.76,102118.56,114985.84,114991,2023-06-13T11:48:27Z,115002.52,"c(""distractor1"", ""distractor2"", ""distractor3"")",Qualität,mtindo,d,NA,NA,NA,NA,NA,NA,NA,NA,NA,NA,NA,NA,NA,NA,NA,NA,NA,NA,NA,NA,NA,NA,NA,NA,NA,NA
d3caa,block,flow.Loop,1_1,NA,NA,completion,61691.32,53293,53294.32,53294.52,114985.84,114991,2023-06-13T11:48:27Z,115002.52,"c(""distractor1"", ""distractor2"", ""distractor3"")",NA,NA,NA,NA,NA,NA,NA,NA,NA,NA,NA,NA,NA,NA,NA,NA,NA,NA,NA,NA,NA,NA,NA,NA,NA,NA,NA,NA,NA
d3caa,Practice,flow.Sequence,1,NA,NA,completion,72880.08,42105,42105.64,42105.76,114985.84,114992,2023-06-13T11:48:27Z,115002.52,NULL,NA,NA,NA,NA,NA,NA,NA,NA,NA,NA,NA,NA,NA,NA,NA,NA,NA,NA,NA,NA,NA,NA,NA,NA,NA,NA,NA,NA,NA
d3caa,Experiment start,canvas.Screen,2,weiter,keypress(q),response,23614.48,114992,114985.84,115002.52,138617,138629,2023-06-13T11:48:51Z,138682.02,NULL,NA,NA,NA,NA,NA,NA,NA,NA,NA,NA,NA,NA,NA,NA,NA,NA,NA,NA,NA,NA,NA,NA,NA,NA,NA,NA,NA,NA,NA
d3caa,Deep Question,html.Page,3_0_0_0_0_0_0,NA,NA,form submission,14687.98,138682,138681.92,138682.02,153370,153371,2023-06-13T11:49:05Z,153368.82,NULL,Annäherung,maegesho,d,NA,NA,NA,mbaktu,NA,NA,0,NA,NA,NA,NA,NA,NA,NA,NA,NA,NA,NA,NA,NA,NA,NA,NA,NA,NA,NA
d3caa,"""Richtig""-Screen",canvas.Screen,3_0_0_0_0_0_1,NA,NA,skipped,NA,153373,NA,NA,153370,153373,2023-06-13T11:49:05Z,153368.82,NULL,Annäherung,maegesho,d,NA,NA,NA,NA,sdf,NA,0,NA,NA,NA,NA,NA,NA,NA,NA,NA,NA,NA,NA,NA,NA,NA,NA,NA,NA,NA
d3caa,"""Falsch""-Screen",canvas.Screen,3_0_0_0_0_0_2,NA,NA,timeout,4999.26,153374,153366.22,153368.82,158351.96,158352,2023-06-13T11:49:10Z,158368.08,NULL,Annäherung,maegesho,d,NA,NA,NA,NA,sdf,0,0,NA,NA,NA,NA,NA,NA,NA,NA,NA,NA,NA,NA,NA,NA,NA,NA,NA,NA,NA
d3caa,deep,flow.Sequence,3_0_0_0_0_0,NA,NA,completion,19669.94,138682,138681.92,138682.02,158351.96,158353,2023-06-13T11:49:10Z,158368.08,NULL,Annäherung,maegesho,d,NA,NA,NA,NA,sdf,NA,0,NA,NA,NA,NA,NA,NA,NA,NA,NA,NA,NA,NA,NA,NA,NA,NA,NA,NA,NA
d3caa,shallow,flow.Sequence,3_0_0_0_0_1,NA,NA,skipped,NA,158353,NA,NA,158351.96,158353,2023-06-13T11:49:10Z,158368.08,NULL,Annäherung,maegesho,d,NA,NA,NA,NA,sdf,NA,0,NA,NA,NA,NA,NA,NA,NA,NA,NA,NA,NA,NA,NA,NA,NA,NA,NA,NA,NA
d3caa,task,flow.Sequence,3_0_0_0_0,NA,NA,completion,19669.94,138682,138681.92,138682.02,158351.96,158353,2023-06-13T11:49:10Z,158368.08,NULL,Annäherung,maegesho,d,NA,NA,NA,NA,sdf,NA,0,NA,NA,NA,NA,NA,NA,NA,NA,NA,NA,NA,NA,NA,NA,NA,NA,NA,NA,NA
d3caa,deep,flow.Sequence,3_0_0_0_1_0,NA,NA,skipped,NA,158353,NA,NA,158351.96,158353,2023-06-13T11:49:10Z,158368.08,NULL,Aufstand,ugomaji,s,mazidio,msingi,kujieleza,NA,sdf,NA,0,NA,NA,NA,NA,NA,NA,NA,NA,NA,NA,NA,NA,NA,NA,NA,NA,NA,NA,NA
d3caa,Shallow Question,html.Page,3_0_0_0_1_1_0,NA,NA,form submission,8689.92,158354,158351.96,158368.08,167058,167058,2023-06-13T11:49:19Z,167068.64,NULL,Aufstand,ugomaji,s,mazidio,msingi,kujieleza,ugomaji,NA,NA,0,NA,NA,NA,NA,NA,NA,NA,NA,NA,NA,NA,NA,NA,NA,NA,NA,NA,NA,NA
d3caa,"""Richtig""-Screen",canvas.Screen,3_0_0_0_1_1_1,NA,NA,timeout,4999.7,167061,167054.62,167068.64,172051.8,172053,2023-06-13T11:49:24Z,172068.34,NULL,Aufstand,ugomaji,s,mazidio,msingi,kujieleza,NA,sdf,1,0,NA,NA,NA,NA,NA,NA,NA,NA,NA,NA,NA,NA,NA,NA,NA,NA,NA,NA,NA
d3caa,"""Falsch""-Screen",canvas.Screen,3_0_0_0_1_1_2,NA,NA,skipped,NA,172055,NA,NA,172051.8,172055,2023-06-13T11:49:24Z,172068.34,NULL,Aufstand,ugomaji,s,mazidio,msingi,kujieleza,NA,sdf,NA,0,NA,NA,NA,NA,NA,NA,NA,NA,NA,NA,NA,NA,NA,NA,NA,NA,NA,NA,NA
d3caa,shallow,flow.Sequence,3_0_0_0_1_1,NA,NA,completion,13683.72,158353,158351.96,158368.08,172051.8,172056,2023-06-13T11:49:24Z,172068.34,NULL,Aufstand,ugomaji,s,mazidio,msingi,kujieleza,NA,sdf,NA,0,NA,NA,NA,NA,NA,NA,NA,NA,NA,NA,NA,NA,NA,NA,NA,NA,NA,NA,NA
d3caa,task,flow.Sequence,3_0_0_0_1,NA,NA,completion,13683.72,158353,158351.96,158368.08,172051.8,172056,2023-06-13T11:49:24Z,172068.34,NULL,Aufstand,ugomaji,s,mazidio,msingi,kujieleza,NA,sdf,NA,0,NA,NA,NA,NA,NA,NA,NA,NA,NA,NA,NA,NA,NA,NA,NA,NA,NA,NA,NA
d3caa,deep,flow.Sequence,3_0_0_0_2_0,NA,NA,skipped,NA,172056,NA,NA,172051.8,172056,2023-06-13T11:49:24Z,172068.34,NULL,Beweis,ushahidi,s,marudio,kizuizi,mtendaji,NA,sdf,NA,0,NA,NA,NA,NA,NA,NA,NA,NA,NA,NA,NA,NA,NA,NA,NA,NA,NA,NA,NA
d3caa,Shallow Question,html.Page,3_0_0_0_2_1_0,NA,NA,form submission,8276.66,172056,172051.8,172068.34,180345,180345,2023-06-13T11:49:32Z,180351.82,NULL,Beweis,ushahidi,s,marudio,kizuizi,mtendaji,kizuizi,NA,NA,0,NA,NA,NA,NA,NA,NA,NA,NA,NA,NA,NA,NA,NA,NA,NA,NA,NA,NA,NA
d3caa,"""Richtig""-Screen",canvas.Screen,3_0_0_0_2_1_1,NA,NA,skipped,NA,180348,NA,NA,180345,180348,2023-06-13T11:49:32Z,180351.82,NULL,Beweis,ushahidi,s,marudio,kizuizi,mtendaji,NA,sdf,NA,0,NA,NA,NA,NA,NA,NA,NA,NA,NA,NA,NA,NA,NA,NA,NA,NA,NA,NA,NA
d3caa,"""Falsch""-Screen",canvas.Screen,3_0_0_0_2_1_2,NA,NA,timeout,4999.8,180350,180342.12,180351.82,185334.86,185338,2023-06-13T11:49:37Z,185351.62,NULL,Beweis,ushahidi,s,marudio,kizuizi,mtendaji,NA,sdf,0,0,NA,NA,NA,NA,NA,NA,NA,NA,NA,NA,NA,NA,NA,NA,NA,NA,NA,NA,NA
d3caa,shallow,flow.Sequence,3_0_0_0_2_1,NA,NA,completion,13266.52,172056,172051.8,172068.34,185334.86,185340,2023-06-13T11:49:37Z,185351.62,NULL,Beweis,ushahidi,s,marudio,kizuizi,mtendaji,NA,sdf,NA,0,NA,NA,NA,NA,NA,NA,NA,NA,NA,NA,NA,NA,NA,NA,NA,NA,NA,NA,NA
d3caa,task,flow.Sequence,3_0_0_0_2,NA,NA,completion,13266.52,172056,172051.8,172068.34,185334.86,185340,2023-06-13T11:49:37Z,185351.62,NULL,Beweis,ushahidi,s,marudio,kizuizi,mtendaji,NA,sdf,NA,0,NA,NA,NA,NA,NA,NA,NA,NA,NA,NA,NA,NA,NA,NA,NA,NA,NA,NA,NA
d3caa,deep,flow.Sequence,3_0_0_0_3_0,NA,NA,skipped,NA,185340,NA,NA,185334.86,185340,2023-06-13T11:49:37Z,185351.62,NULL,Polizist,msongora,s,simanzi,mandhari,nidhamu,NA,sdf,NA,0,NA,NA,NA,NA,NA,NA,NA,NA,NA,NA,NA,NA,NA,NA,NA,NA,NA,NA,NA
d3caa,Shallow Question,html.Page,3_0_0_0_3_1_0,NA,NA,form submission,3923.38,185340,185334.86,185351.62,189275,189276,2023-06-13T11:49:41Z,189285.04,NULL,Polizist,msongora,s,simanzi,mandhari,nidhamu,nidhamu,NA,NA,0,NA,NA,NA,NA,NA,NA,NA,NA,NA,NA,NA,NA,NA,NA,NA,NA,NA,NA,NA
d3caa,"""Richtig""-Screen",canvas.Screen,3_0_0_0_3_1_1,NA,NA,skipped,NA,189282,NA,NA,189275,189283,2023-06-13T11:49:41Z,189285.04,NULL,Polizist,msongora,s,simanzi,mandhari,nidhamu,NA,sdf,NA,0,NA,NA,NA,NA,NA,NA,NA,NA,NA,NA,NA,NA,NA,NA,NA,NA,NA,NA,NA
d3caa,"""Falsch""-Screen",canvas.Screen,3_0_0_0_3_1_2,NA,NA,timeout,4999,189284,189269.74,189285.04,194268.18,194269,2023-06-13T11:49:46Z,194284.04,NULL,Polizist,msongora,s,simanzi,mandhari,nidhamu,NA,sdf,0,0,NA,NA,NA,NA,NA,NA,NA,NA,NA,NA,NA,NA,NA,NA,NA,NA,NA,NA,NA
d3caa,shallow,flow.Sequence,3_0_0_0_3_1,NA,NA,completion,8916.56,185340,185334.86,185351.62,194268.18,194270,2023-06-13T11:49:46Z,194284.04,NULL,Polizist,msongora,s,simanzi,mandhari,nidhamu,NA,sdf,NA,0,NA,NA,NA,NA,NA,NA,NA,NA,NA,NA,NA,NA,NA,NA,NA,NA,NA,NA,NA
d3caa,task,flow.Sequence,3_0_0_0_3,NA,NA,completion,8916.56,185340,185334.86,185351.62,194268.18,194270,2023-06-13T11:49:46Z,194284.04,NULL,Polizist,msongora,s,simanzi,mandhari,nidhamu,NA,sdf,NA,0,NA,NA,NA,NA,NA,NA,NA,NA,NA,NA,NA,NA,NA,NA,NA,NA,NA,NA,NA
d3caa,Deep Question,html.Page,3_0_0_0_4_0_0,NA,NA,form submission,4588.96,194270,194268.18,194284.04,198873,198873,2023-06-13T11:49:51Z,198884.92,NULL,Verzögerung,kuchelewa,d,NA,NA,NA,matudi,NA,NA,0,NA,NA,NA,NA,NA,NA,NA,NA,NA,NA,NA,NA,NA,NA,NA,NA,NA,NA,NA
d3caa,"""Richtig""-Screen",canvas.Screen,3_0_0_0_4_0_1,NA,NA,skipped,NA,198876,NA,NA,198873,198876,2023-06-13T11:49:51Z,198884.92,NULL,Verzögerung,kuchelewa,d,NA,NA,NA,NA,sdf,NA,0,NA,NA,NA,NA,NA,NA,NA,NA,NA,NA,NA,NA,NA,NA,NA,NA,NA,NA,NA
d3caa,"""Falsch""-Screen",canvas.Screen,3_0_0_0_4_0_2,NA,NA,timeout,4999.82,198878,198870.32,198884.92,203868.06,203868,2023-06-13T11:49:56Z,203884.74,NULL,Verzögerung,kuchelewa,d,NA,NA,NA,NA,sdf,0,0,NA,NA,NA,NA,NA,NA,NA,NA,NA,NA,NA,NA,NA,NA,NA,NA,NA,NA,NA
d3caa,deep,flow.Sequence,3_0_0_0_4_0,NA,NA,completion,9584.02,194270,194268.18,194284.04,203868.06,203869,2023-06-13T11:49:56Z,203884.74,NULL,Verzögerung,kuchelewa,d,NA,NA,NA,NA,sdf,NA,0,NA,NA,NA,NA,NA,NA,NA,NA,NA,NA,NA,NA,NA,NA,NA,NA,NA,NA,NA
d3caa,shallow,flow.Sequence,3_0_0_0_4_1,NA,NA,skipped,NA,203869,NA,NA,203868.06,203869,2023-06-13T11:49:56Z,203884.74,NULL,Verzögerung,kuchelewa,d,NA,NA,NA,NA,sdf,NA,0,NA,NA,NA,NA,NA,NA,NA,NA,NA,NA,NA,NA,NA,NA,NA,NA,NA,NA,NA
d3caa,task,flow.Sequence,3_0_0_0_4,NA,NA,completion,9584.02,194270,194268.18,194284.04,203868.06,203870,2023-06-13T11:49:56Z,203884.74,NULL,Verzögerung,kuchelewa,d,NA,NA,NA,NA,sdf,NA,0,NA,NA,NA,NA,NA,NA,NA,NA,NA,NA,NA,NA,NA,NA,NA,NA,NA,NA,NA
d3caa,deep,flow.Sequence,3_0_0_0_5_0,NA,NA,skipped,NA,203870,NA,NA,203868.06,203870,2023-06-13T11:49:56Z,203884.74,NULL,Prüfung,mtihani,s,mkulima,mtizamo,ufumbuzi,NA,sdf,NA,0,NA,NA,NA,NA,NA,NA,NA,NA,NA,NA,NA,NA,NA,NA,NA,NA,NA,NA,NA
d3caa,Shallow Question,html.Page,3_0_0_0_5_1_0,NA,NA,form submission,4140.26,203870,203868.06,203884.74,208025,208025,2023-06-13T11:50:00Z,208034,NULL,Prüfung,mtihani,s,mkulima,mtizamo,ufumbuzi,mtizamo,NA,NA,0,NA,NA,NA,NA,NA,NA,NA,NA,NA,NA,NA,NA,NA,NA,NA,NA,NA,NA,NA
d3caa,"""Richtig""-Screen",canvas.Screen,3_0_0_0_5_1_1,NA,NA,skipped,NA,208028,NA,NA,208025,208028,2023-06-13T11:50:00Z,208034,NULL,Prüfung,mtihani,s,mkulima,mtizamo,ufumbuzi,NA,sdf,NA,0,NA,NA,NA,NA,NA,NA,NA,NA,NA,NA,NA,NA,NA,NA,NA,NA,NA,NA,NA
d3caa,"""Falsch""-Screen",canvas.Screen,3_0_0_0_5_1_2,NA,NA,timeout,4999.72,208030,208021.54,208034,213017.96,213019,2023-06-13T11:50:05Z,213033.72,NULL,Prüfung,mtihani,s,mkulima,mtizamo,ufumbuzi,NA,sdf,0,0,NA,NA,NA,NA,NA,NA,NA,NA,NA,NA,NA,NA,NA,NA,NA,NA,NA,NA,NA
d3caa,shallow,flow.Sequence,3_0_0_0_5_1,NA,NA,completion,9133.22,203870,203868.06,203884.74,213017.96,213019,2023-06-13T11:50:05Z,213033.72,NULL,Prüfung,mtihani,s,mkulima,mtizamo,ufumbuzi,NA,sdf,NA,0,NA,NA,NA,NA,NA,NA,NA,NA,NA,NA,NA,NA,NA,NA,NA,NA,NA,NA,NA
d3caa,task,flow.Sequence,3_0_0_0_5,NA,NA,completion,9133.22,203870,203868.06,203884.74,213017.96,213020,2023-06-13T11:50:05Z,213033.72,NULL,Prüfung,mtihani,s,mkulima,mtizamo,ufumbuzi,NA,sdf,NA,0,NA,NA,NA,NA,NA,NA,NA,NA,NA,NA,NA,NA,NA,NA,NA,NA,NA,NA,NA
d3caa,Deep Question,html.Page,3_0_0_0_6_0_0,NA,NA,form submission,9469.28,213020,213017.96,213033.72,222503,222504,2023-06-13T11:50:14Z,222501.3,NULL,Kultur,utamaduni,d,NA,NA,NA,muturi,NA,NA,0,NA,NA,NA,NA,NA,NA,NA,NA,NA,NA,NA,NA,NA,NA,NA,NA,NA,NA,NA
d3caa,"""Richtig""-Screen",canvas.Screen,3_0_0_0_6_0_1,NA,NA,skipped,NA,222507,NA,NA,222503,222507,2023-06-13T11:50:14Z,222501.3,NULL,Kultur,utamaduni,d,NA,NA,NA,NA,sdf,NA,0,NA,NA,NA,NA,NA,NA,NA,NA,NA,NA,NA,NA,NA,NA,NA,NA,NA,NA,NA
d3caa,"""Falsch""-Screen",canvas.Screen,3_0_0_0_6_0_2,NA,NA,timeout,4999.8,222509,222500.96,222501.3,227484.42,227485,2023-06-13T11:50:19Z,227501.1,NULL,Kultur,utamaduni,d,NA,NA,NA,NA,sdf,0,0,NA,NA,NA,NA,NA,NA,NA,NA,NA,NA,NA,NA,NA,NA,NA,NA,NA,NA,NA
d3caa,deep,flow.Sequence,3_0_0_0_6_0,NA,NA,completion,14450.7,213020,213017.96,213033.72,227484.42,227486,2023-06-13T11:50:19Z,227501.1,NULL,Kultur,utamaduni,d,NA,NA,NA,NA,sdf,NA,0,NA,NA,NA,NA,NA,NA,NA,NA,NA,NA,NA,NA,NA,NA,NA,NA,NA,NA,NA
d3caa,shallow,flow.Sequence,3_0_0_0_6_1,NA,NA,skipped,NA,227486,NA,NA,227484.42,227486,2023-06-13T11:50:19Z,227501.1,NULL,Kultur,utamaduni,d,NA,NA,NA,NA,sdf,NA,0,NA,NA,NA,NA,NA,NA,NA,NA,NA,NA,NA,NA,NA,NA,NA,NA,NA,NA,NA
d3caa,task,flow.Sequence,3_0_0_0_6,NA,NA,completion,14450.7,213020,213017.96,213033.72,227484.42,227486,2023-06-13T11:50:19Z,227501.1,NULL,Kultur,utamaduni,d,NA,NA,NA,NA,sdf,NA,0,NA,NA,NA,NA,NA,NA,NA,NA,NA,NA,NA,NA,NA,NA,NA,NA,NA,NA,NA
d3caa,Deep Question,html.Page,3_0_0_0_7_0_0,NA,NA,form submission,3943.9,227487,227484.42,227501.1,231445,231445,2023-06-13T11:50:23Z,231451.18,NULL,Sympathie,mapendano,d,NA,NA,NA,mabu,NA,NA,0,NA,NA,NA,NA,NA,NA,NA,NA,NA,NA,NA,NA,NA,NA,NA,NA,NA,NA,NA
d3caa,"""Richtig""-Screen",canvas.Screen,3_0_0_0_7_0_1,NA,NA,skipped,NA,231448,NA,NA,231445,231448,2023-06-13T11:50:23Z,231451.18,NULL,Sympathie,mapendano,d,NA,NA,NA,NA,sdf,NA,0,NA,NA,NA,NA,NA,NA,NA,NA,NA,NA,NA,NA,NA,NA,NA,NA,NA,NA,NA
d3caa,"""Falsch""-Screen",canvas.Screen,3_0_0_0_7_0_2,NA,NA,timeout,4999.82,231449,231442.12,231451.18,236434.32,236435,2023-06-13T11:50:28Z,236451,NULL,Sympathie,mapendano,d,NA,NA,NA,NA,sdf,0,0,NA,NA,NA,NA,NA,NA,NA,NA,NA,NA,NA,NA,NA,NA,NA,NA,NA,NA,NA
d3caa,deep,flow.Sequence,3_0_0_0_7_0,NA,NA,completion,8933.22,227487,227484.42,227501.1,236434.32,236435,2023-06-13T11:50:28Z,236451,NULL,Sympathie,mapendano,d,NA,NA,NA,NA,sdf,NA,0,NA,NA,NA,NA,NA,NA,NA,NA,NA,NA,NA,NA,NA,NA,NA,NA,NA,NA,NA
d3caa,shallow,flow.Sequence,3_0_0_0_7_1,NA,NA,skipped,NA,236435,NA,NA,236434.32,236435,2023-06-13T11:50:28Z,236451,NULL,Sympathie,mapendano,d,NA,NA,NA,NA,sdf,NA,0,NA,NA,NA,NA,NA,NA,NA,NA,NA,NA,NA,NA,NA,NA,NA,NA,NA,NA,NA
d3caa,task,flow.Sequence,3_0_0_0_7,NA,NA,completion,8933.22,227487,227484.42,227501.1,236434.32,236436,2023-06-13T11:50:28Z,236451,NULL,Sympathie,mapendano,d,NA,NA,NA,NA,sdf,NA,0,NA,NA,NA,NA,NA,NA,NA,NA,NA,NA,NA,NA,NA,NA,NA,NA,NA,NA,NA
d3caa,block,flow.Loop,3_0_0_0,NA,NA,completion,97752.3,138682,138681.92,138682.02,236434.32,236436,2023-06-13T11:50:28Z,236451,NULL,NA,NA,NA,NA,NA,NA,NA,sdf,NA,0,NA,NA,NA,NA,NA,NA,NA,NA,NA,NA,NA,NA,NA,NA,NA,NA,NA,NA,NA
d3caa,weiter,canvas.Screen,3_0_0_1,sdf,keypress(Space),response,1139,236436,236434.32,236451,237590,237600,2023-06-13T11:50:30Z,237641.46,NULL,NA,NA,NA,NA,NA,NA,NA,sdf,NA,0,NA,NA,NA,NA,NA,NA,NA,NA,NA,NA,NA,NA,NA,NA,NA,NA,NA,NA,NA
d3caa,check continue,flow.Sequence,3_0_0,NA,NA,completion,98907.98,138682,138681.92,138682.02,237590,237602,2023-06-13T11:50:30Z,237641.46,NULL,NA,NA,NA,NA,NA,NA,NA,sdf,NA,0,NA,NA,NA,NA,NA,NA,NA,NA,NA,NA,NA,NA,NA,NA,NA,NA,NA,NA,NA
d3caa,deep,flow.Sequence,3_0_1_0_0_0,NA,NA,skipped,NA,237641,NA,NA,237590,237641,2023-06-13T11:50:30Z,237641.46,NULL,Aufstand,ugomaji,s,mazidio,msingi,kujieleza,NA,sdfdsf,NA,1,NA,NA,NA,NA,NA,NA,NA,NA,NA,NA,NA,NA,NA,NA,NA,NA,NA,NA,NA
d3caa,Shallow Question,html.Page,3_0_1_0_0_1_0,NA,NA,form submission,4358.54,237641,237641.34,237641.46,242000,242002,2023-06-13T11:50:34Z,242017.7,NULL,Aufstand,ugomaji,s,mazidio,msingi,kujieleza,mazidio,NA,NA,1,NA,NA,NA,NA,NA,NA,NA,NA,NA,NA,NA,NA,NA,NA,NA,NA,NA,NA,NA
d3caa,"""Richtig""-Screen",canvas.Screen,3_0_1_0_0_1_1,NA,NA,skipped,NA,242010,NA,NA,242000,242010,2023-06-13T11:50:34Z,242017.7,NULL,Aufstand,ugomaji,s,mazidio,msingi,kujieleza,NA,sdfdsf,NA,1,NA,NA,NA,NA,NA,NA,NA,NA,NA,NA,NA,NA,NA,NA,NA,NA,NA,NA,NA
d3caa,"""Falsch""-Screen",canvas.Screen,3_0_1_0_0_1_2,NA,NA,timeout,4999.44,242011,241992.7,242017.7,247000.86,247002,2023-06-13T11:50:39Z,247017.14,NULL,Aufstand,ugomaji,s,mazidio,msingi,kujieleza,NA,sdfdsf,0,1,NA,NA,NA,NA,NA,NA,NA,NA,NA,NA,NA,NA,NA,NA,NA,NA,NA,NA,NA
d3caa,shallow,flow.Sequence,3_0_1_0_0_1,NA,NA,completion,9359.4,237641,237641.34,237641.46,247000.86,247003,2023-06-13T11:50:39Z,247017.14,NULL,Aufstand,ugomaji,s,mazidio,msingi,kujieleza,NA,sdfdsf,NA,1,NA,NA,NA,NA,NA,NA,NA,NA,NA,NA,NA,NA,NA,NA,NA,NA,NA,NA,NA
d3caa,task,flow.Sequence,3_0_1_0_0,NA,NA,completion,9359.4,237641,237641.34,237641.46,247000.86,247003,2023-06-13T11:50:39Z,247017.14,NULL,Aufstand,ugomaji,s,mazidio,msingi,kujieleza,NA,sdfdsf,NA,1,NA,NA,NA,NA,NA,NA,NA,NA,NA,NA,NA,NA,NA,NA,NA,NA,NA,NA,NA
d3caa,Deep Question,html.Page,3_0_1_0_1_0_0,NA,NA,form submission,5211.86,247004,247000.86,247017.14,252229,252230,2023-06-13T11:50:44Z,252234.26,NULL,Sympathie,mapendano,d,NA,NA,NA,mbalangu,NA,NA,1,NA,NA,NA,NA,NA,NA,NA,NA,NA,NA,NA,NA,NA,NA,NA,NA,NA,NA,NA
d3caa,"""Richtig""-Screen",canvas.Screen,3_0_1_0_1_0_1,NA,NA,skipped,NA,252233,NA,NA,252229,252234,2023-06-13T11:50:44Z,252234.26,NULL,Sympathie,mapendano,d,NA,NA,NA,NA,sdfdsf,NA,1,NA,NA,NA,NA,NA,NA,NA,NA,NA,NA,NA,NA,NA,NA,NA,NA,NA,NA,NA
d3caa,"""Falsch""-Screen",canvas.Screen,3_0_1_0_1_0_2,NA,NA,timeout,4999.8,252235,252226.64,252234.26,257217.38,257219,2023-06-13T11:50:49Z,257234.06,NULL,Sympathie,mapendano,d,NA,NA,NA,NA,sdfdsf,0,1,NA,NA,NA,NA,NA,NA,NA,NA,NA,NA,NA,NA,NA,NA,NA,NA,NA,NA,NA
d3caa,deep,flow.Sequence,3_0_1_0_1_0,NA,NA,completion,10200.24,247003,247000.86,247017.14,257217.38,257219,2023-06-13T11:50:49Z,257234.06,NULL,Sympathie,mapendano,d,NA,NA,NA,NA,sdfdsf,NA,1,NA,NA,NA,NA,NA,NA,NA,NA,NA,NA,NA,NA,NA,NA,NA,NA,NA,NA,NA
d3caa,shallow,flow.Sequence,3_0_1_0_1_1,NA,NA,skipped,NA,257219,NA,NA,257217.38,257220,2023-06-13T11:50:49Z,257234.06,NULL,Sympathie,mapendano,d,NA,NA,NA,NA,sdfdsf,NA,1,NA,NA,NA,NA,NA,NA,NA,NA,NA,NA,NA,NA,NA,NA,NA,NA,NA,NA,NA
d3caa,task,flow.Sequence,3_0_1_0_1,NA,NA,completion,10200.24,247003,247000.86,247017.14,257217.38,257220,2023-06-13T11:50:49Z,257234.06,NULL,Sympathie,mapendano,d,NA,NA,NA,NA,sdfdsf,NA,1,NA,NA,NA,NA,NA,NA,NA,NA,NA,NA,NA,NA,NA,NA,NA,NA,NA,NA,NA
d3caa,deep,flow.Sequence,3_0_1_0_2_0,NA,NA,skipped,NA,257220,NA,NA,257217.38,257220,2023-06-13T11:50:49Z,257234.06,NULL,Prüfung,mtihani,s,mkulima,mtizamo,ufumbuzi,NA,sdfdsf,NA,1,NA,NA,NA,NA,NA,NA,NA,NA,NA,NA,NA,NA,NA,NA,NA,NA,NA,NA,NA
d3caa,Shallow Question,html.Page,3_0_1_0_2_1_0,NA,NA,form submission,6231.94,257220,257217.38,257234.06,263466,263467,2023-06-13T11:50:55Z,263467.4,NULL,Prüfung,mtihani,s,mkulima,mtizamo,ufumbuzi,mtizamo,NA,NA,1,NA,NA,NA,NA,NA,NA,NA,NA,NA,NA,NA,NA,NA,NA,NA,NA,NA,NA,NA
d3caa,"""Richtig""-Screen",canvas.Screen,3_0_1_0_2_1_1,NA,NA,skipped,NA,263469,NA,NA,263466,263470,2023-06-13T11:50:55Z,263467.4,NULL,Prüfung,mtihani,s,mkulima,mtizamo,ufumbuzi,NA,sdfdsf,NA,1,NA,NA,NA,NA,NA,NA,NA,NA,NA,NA,NA,NA,NA,NA,NA,NA,NA,NA,NA
d3caa,"""Falsch""-Screen",canvas.Screen,3_0_1_0_2_1_2,NA,NA,timeout,4999.08,263472,263463.02,263467.4,268450.7,268452,2023-06-13T11:51:00Z,268466.48,NULL,Prüfung,mtihani,s,mkulima,mtizamo,ufumbuzi,NA,sdfdsf,0,1,NA,NA,NA,NA,NA,NA,NA,NA,NA,NA,NA,NA,NA,NA,NA,NA,NA,NA,NA
d3caa,shallow,flow.Sequence,3_0_1_0_2_1,NA,NA,completion,11216.64,257220,257217.38,257234.06,268450.7,268452,2023-06-13T11:51:00Z,268466.48,NULL,Prüfung,mtihani,s,mkulima,mtizamo,ufumbuzi,NA,sdfdsf,NA,1,NA,NA,NA,NA,NA,NA,NA,NA,NA,NA,NA,NA,NA,NA,NA,NA,NA,NA,NA
d3caa,task,flow.Sequence,3_0_1_0_2,NA,NA,completion,11216.64,257220,257217.38,257234.06,268450.7,268452,2023-06-13T11:51:00Z,268466.48,NULL,Prüfung,mtihani,s,mkulima,mtizamo,ufumbuzi,NA,sdfdsf,NA,1,NA,NA,NA,NA,NA,NA,NA,NA,NA,NA,NA,NA,NA,NA,NA,NA,NA,NA,NA
d3caa,Deep Question,html.Page,3_0_1_0_3_0_0,NA,NA,form submission,4431.52,268453,268450.7,268466.48,272898,272898,2023-06-13T11:51:05Z,272900.24,NULL,Verzögerung,kuchelewa,d,NA,NA,NA,mabu,NA,NA,1,NA,NA,NA,NA,NA,NA,NA,NA,NA,NA,NA,NA,NA,NA,NA,NA,NA,NA,NA
d3caa,"""Richtig""-Screen",canvas.Screen,3_0_1_0_3_0_1,NA,NA,skipped,NA,272901,NA,NA,272898,272901,2023-06-13T11:51:05Z,272900.24,NULL,Verzögerung,kuchelewa,d,NA,NA,NA,NA,sdfdsf,NA,1,NA,NA,NA,NA,NA,NA,NA,NA,NA,NA,NA,NA,NA,NA,NA,NA,NA,NA,NA
d3caa,"""Falsch""-Screen",canvas.Screen,3_0_1_0_3_0_2,NA,NA,timeout,5000.24,272903,272894.48,272900.24,277883.78,277887,2023-06-13T11:51:10Z,277900.48,NULL,Verzögerung,kuchelewa,d,NA,NA,NA,NA,sdfdsf,0,1,NA,NA,NA,NA,NA,NA,NA,NA,NA,NA,NA,NA,NA,NA,NA,NA,NA,NA,NA
d3caa,deep,flow.Sequence,3_0_1_0_3_0,NA,NA,completion,9417.3,268453,268450.7,268466.48,277883.78,277888,2023-06-13T11:51:10Z,277900.48,NULL,Verzögerung,kuchelewa,d,NA,NA,NA,NA,sdfdsf,NA,1,NA,NA,NA,NA,NA,NA,NA,NA,NA,NA,NA,NA,NA,NA,NA,NA,NA,NA,NA
d3caa,shallow,flow.Sequence,3_0_1_0_3_1,NA,NA,skipped,NA,277888,NA,NA,277883.78,277888,2023-06-13T11:51:10Z,277900.48,NULL,Verzögerung,kuchelewa,d,NA,NA,NA,NA,sdfdsf,NA,1,NA,NA,NA,NA,NA,NA,NA,NA,NA,NA,NA,NA,NA,NA,NA,NA,NA,NA,NA
d3caa,task,flow.Sequence,3_0_1_0_3,NA,NA,completion,9417.3,268453,268450.7,268466.48,277883.78,277888,2023-06-13T11:51:10Z,277900.48,NULL,Verzögerung,kuchelewa,d,NA,NA,NA,NA,sdfdsf,NA,1,NA,NA,NA,NA,NA,NA,NA,NA,NA,NA,NA,NA,NA,NA,NA,NA,NA,NA,NA
d3caa,deep,flow.Sequence,3_0_1_0_4_0,NA,NA,skipped,NA,277889,NA,NA,277883.78,277889,2023-06-13T11:51:10Z,277900.48,NULL,Polizist,msongora,s,simanzi,mandhari,nidhamu,NA,sdfdsf,NA,1,NA,NA,NA,NA,NA,NA,NA,NA,NA,NA,NA,NA,NA,NA,NA,NA,NA,NA,NA
d3caa,Shallow Question,html.Page,3_0_1_0_4_1_0,NA,NA,form submission,6774.52,277889,277883.78,277900.48,284675,284676,2023-06-13T11:51:17Z,284683.82,NULL,Polizist,msongora,s,simanzi,mandhari,nidhamu,msongora,NA,NA,1,NA,NA,NA,NA,NA,NA,NA,NA,NA,NA,NA,NA,NA,NA,NA,NA,NA,NA,NA
d3caa,"""Richtig""-Screen",canvas.Screen,3_0_1_0_4_1_1,NA,NA,timeout,4999.84,284683,284669.2,284683.82,289666.98,289667,2023-06-13T11:51:22Z,289683.66,NULL,Polizist,msongora,s,simanzi,mandhari,nidhamu,NA,sdfdsf,1,1,NA,NA,NA,NA,NA,NA,NA,NA,NA,NA,NA,NA,NA,NA,NA,NA,NA,NA,NA
d3caa,"""Falsch""-Screen",canvas.Screen,3_0_1_0_4_1_2,NA,NA,skipped,NA,289671,NA,NA,289666.98,289672,2023-06-13T11:51:22Z,289683.66,NULL,Polizist,msongora,s,simanzi,mandhari,nidhamu,NA,sdfdsf,NA,1,NA,NA,NA,NA,NA,NA,NA,NA,NA,NA,NA,NA,NA,NA,NA,NA,NA,NA,NA
d3caa,shallow,flow.Sequence,3_0_1_0_4_1,NA,NA,completion,11766.5,277889,277883.78,277900.48,289666.98,289672,2023-06-13T11:51:22Z,289683.66,NULL,Polizist,msongora,s,simanzi,mandhari,nidhamu,NA,sdfdsf,NA,1,NA,NA,NA,NA,NA,NA,NA,NA,NA,NA,NA,NA,NA,NA,NA,NA,NA,NA,NA
d3caa,task,flow.Sequence,3_0_1_0_4,NA,NA,completion,11766.5,277889,277883.78,277900.48,289666.98,289672,2023-06-13T11:51:22Z,289683.66,NULL,Polizist,msongora,s,simanzi,mandhari,nidhamu,NA,sdfdsf,NA,1,NA,NA,NA,NA,NA,NA,NA,NA,NA,NA,NA,NA,NA,NA,NA,NA,NA,NA,NA
d3caa,Deep Question,html.Page,3_0_1_0_5_0_0,NA,NA,form submission,4155.34,289672,289666.98,289683.66,293839,293840,2023-06-13T11:51:26Z,293850.4,NULL,Kultur,utamaduni,d,NA,NA,NA,bubu,NA,NA,1,NA,NA,NA,NA,NA,NA,NA,NA,NA,NA,NA,NA,NA,NA,NA,NA,NA,NA,NA
d3caa,"""Richtig""-Screen",canvas.Screen,3_0_1_0_5_0_1,NA,NA,skipped,NA,293842,NA,NA,293839,293843,2023-06-13T11:51:26Z,293850.4,NULL,Kultur,utamaduni,d,NA,NA,NA,NA,sdfdsf,NA,1,NA,NA,NA,NA,NA,NA,NA,NA,NA,NA,NA,NA,NA,NA,NA,NA,NA,NA,NA
d3caa,"""Falsch""-Screen",canvas.Screen,3_0_1_0_5_0_2,NA,NA,timeout,4999.8199999999,293844,293834.68,293850.4,298833.54,298834,2023-06-13T11:51:31Z,298850.22,NULL,Kultur,utamaduni,d,NA,NA,NA,NA,sdfdsf,0,1,NA,NA,NA,NA,NA,NA,NA,NA,NA,NA,NA,NA,NA,NA,NA,NA,NA,NA,NA
d3caa,deep,flow.Sequence,3_0_1_0_5_0,NA,NA,completion,9149.88,289672,289666.98,289683.66,298833.54,298835,2023-06-13T11:51:31Z,298850.22,NULL,Kultur,utamaduni,d,NA,NA,NA,NA,sdfdsf,NA,1,NA,NA,NA,NA,NA,NA,NA,NA,NA,NA,NA,NA,NA,NA,NA,NA,NA,NA,NA
d3caa,shallow,flow.Sequence,3_0_1_0_5_1,NA,NA,skipped,NA,298835,NA,NA,298833.54,298835,2023-06-13T11:51:31Z,298850.22,NULL,Kultur,utamaduni,d,NA,NA,NA,NA,sdfdsf,NA,1,NA,NA,NA,NA,NA,NA,NA,NA,NA,NA,NA,NA,NA,NA,NA,NA,NA,NA,NA
d3caa,task,flow.Sequence,3_0_1_0_5,NA,NA,completion,9149.88,289672,289666.98,289683.66,298833.54,298836,2023-06-13T11:51:31Z,298850.22,NULL,Kultur,utamaduni,d,NA,NA,NA,NA,sdfdsf,NA,1,NA,NA,NA,NA,NA,NA,NA,NA,NA,NA,NA,NA,NA,NA,NA,NA,NA,NA,NA
d3caa,Deep Question,html.Page,3_0_1_0_6_0_0,NA,NA,form submission,5215.78,298836,298833.54,298850.22,304066,304067,2023-06-13T11:51:36Z,304066.94,NULL,Annäherung,maegesho,d,NA,NA,NA,utamaburi,NA,NA,1,NA,NA,NA,NA,NA,NA,NA,NA,NA,NA,NA,NA,NA,NA,NA,NA,NA,NA,NA
d3caa,"""Richtig""-Screen",canvas.Screen,3_0_1_0_6_0_1,NA,NA,skipped,NA,304069,NA,NA,304066,304069,2023-06-13T11:51:36Z,304066.94,NULL,Annäherung,maegesho,d,NA,NA,NA,NA,sdfdsf,NA,1,NA,NA,NA,NA,NA,NA,NA,NA,NA,NA,NA,NA,NA,NA,NA,NA,NA,NA,NA
d3caa,"""Falsch""-Screen",canvas.Screen,3_0_1_0_6_0_2,NA,NA,timeout,4999.8,304071,304063.38,304066.94,309050.06,309051,2023-06-13T11:51:41Z,309066.74,NULL,Annäherung,maegesho,d,NA,NA,NA,NA,sdfdsf,0,1,NA,NA,NA,NA,NA,NA,NA,NA,NA,NA,NA,NA,NA,NA,NA,NA,NA,NA,NA
d3caa,deep,flow.Sequence,3_0_1_0_6_0,NA,NA,completion,10199.84,298836,298833.54,298850.22,309050.06,309051,2023-06-13T11:51:41Z,309066.74,NULL,Annäherung,maegesho,d,NA,NA,NA,NA,sdfdsf,NA,1,NA,NA,NA,NA,NA,NA,NA,NA,NA,NA,NA,NA,NA,NA,NA,NA,NA,NA,NA
d3caa,shallow,flow.Sequence,3_0_1_0_6_1,NA,NA,skipped,NA,309052,NA,NA,309050.06,309052,2023-06-13T11:51:41Z,309066.74,NULL,Annäherung,maegesho,d,NA,NA,NA,NA,sdfdsf,NA,1,NA,NA,NA,NA,NA,NA,NA,NA,NA,NA,NA,NA,NA,NA,NA,NA,NA,NA,NA
d3caa,task,flow.Sequence,3_0_1_0_6,NA,NA,completion,10199.84,298836,298833.54,298850.22,309050.06,309052,2023-06-13T11:51:41Z,309066.74,NULL,Annäherung,maegesho,d,NA,NA,NA,NA,sdfdsf,NA,1,NA,NA,NA,NA,NA,NA,NA,NA,NA,NA,NA,NA,NA,NA,NA,NA,NA,NA,NA
d3caa,deep,flow.Sequence,3_0_1_0_7_0,NA,NA,skipped,NA,309052,NA,NA,309050.06,309052,2023-06-13T11:51:41Z,309066.74,NULL,Beweis,ushahidi,s,marudio,kizuizi,mtendaji,NA,sdfdsf,NA,1,NA,NA,NA,NA,NA,NA,NA,NA,NA,NA,NA,NA,NA,NA,NA,NA,NA,NA,NA
d3caa,Shallow Question,html.Page,3_0_1_0_7_1_0,NA,NA,form submission,6344.26,309052,309050.06,309066.74,315411,315411,2023-06-13T11:51:47Z,315416.78,NULL,Beweis,ushahidi,s,marudio,kizuizi,mtendaji,ushahidi,NA,NA,1,NA,NA,NA,NA,NA,NA,NA,NA,NA,NA,NA,NA,NA,NA,NA,NA,NA,NA,NA
d3caa,"""Richtig""-Screen",canvas.Screen,3_0_1_0_7_1_1,NA,NA,timeout,4999.8199999999,315414,315409.38,315416.78,320399.92,320400,2023-06-13T11:51:52Z,320416.6,NULL,Beweis,ushahidi,s,marudio,kizuizi,mtendaji,NA,sdfdsf,1,1,NA,NA,NA,NA,NA,NA,NA,NA,NA,NA,NA,NA,NA,NA,NA,NA,NA,NA,NA
d3caa,"""Falsch""-Screen",canvas.Screen,3_0_1_0_7_1_2,NA,NA,skipped,NA,320405,NA,NA,320399.92,320405,2023-06-13T11:51:52Z,320416.6,NULL,Beweis,ushahidi,s,marudio,kizuizi,mtendaji,NA,sdfdsf,NA,1,NA,NA,NA,NA,NA,NA,NA,NA,NA,NA,NA,NA,NA,NA,NA,NA,NA,NA,NA
d3caa,shallow,flow.Sequence,3_0_1_0_7_1,NA,NA,completion,11333.18,309052,309050.06,309066.74,320399.92,320405,2023-06-13T11:51:52Z,320416.6,NULL,Beweis,ushahidi,s,marudio,kizuizi,mtendaji,NA,sdfdsf,NA,1,NA,NA,NA,NA,NA,NA,NA,NA,NA,NA,NA,NA,NA,NA,NA,NA,NA,NA,NA
d3caa,task,flow.Sequence,3_0_1_0_7,NA,NA,completion,11333.18,309052,309050.06,309066.74,320399.92,320405,2023-06-13T11:51:52Z,320416.6,NULL,Beweis,ushahidi,s,marudio,kizuizi,mtendaji,NA,sdfdsf,NA,1,NA,NA,NA,NA,NA,NA,NA,NA,NA,NA,NA,NA,NA,NA,NA,NA,NA,NA,NA
d3caa,block,flow.Loop,3_0_1_0,NA,NA,completion,82758.46,237641,237641.34,237641.46,320399.92,320406,2023-06-13T11:51:52Z,320416.6,NULL,NA,NA,NA,NA,NA,NA,NA,sdfdsf,NA,1,NA,NA,NA,NA,NA,NA,NA,NA,NA,NA,NA,NA,NA,NA,NA,NA,NA,NA,NA
d3caa,weiter,canvas.Screen,3_0_1_1,sdf,keypress(Space),response,1223.4,320406,320399.92,320416.6,321640,321647,2023-06-13T11:51:54Z,321683.96,NULL,NA,NA,NA,NA,NA,NA,NA,sdfdsf,NA,1,NA,NA,NA,NA,NA,NA,NA,NA,NA,NA,NA,NA,NA,NA,NA,NA,NA,NA,NA
d3caa,check continue,flow.Sequence,3_0_1,NA,NA,completion,83998.54,237641,237641.34,237641.46,321640,321647,2023-06-13T11:51:54Z,321683.96,NULL,NA,NA,NA,NA,NA,NA,NA,sdfdsf,NA,1,NA,NA,NA,NA,NA,NA,NA,NA,NA,NA,NA,NA,NA,NA,NA,NA,NA,NA,NA
d3caa,Deep Question,html.Page,3_0_2_0_0_0_0,NA,NA,form submission,3353.04,321684,321683.84,321683.96,325037,325037,2023-06-13T11:51:57Z,325050,NULL,Kultur,utamaduni,d,NA,NA,NA,babu,NA,NA,2,NA,NA,NA,NA,NA,NA,NA,NA,NA,NA,NA,NA,NA,NA,NA,NA,NA,NA,NA
d3caa,"""Richtig""-Screen",canvas.Screen,3_0_2_0_0_0_1,NA,NA,skipped,NA,325039,NA,NA,325037,325039,2023-06-13T11:51:57Z,325050,NULL,Kultur,utamaduni,d,NA,NA,NA,NA,sdf,NA,2,NA,NA,NA,NA,NA,NA,NA,NA,NA,NA,NA,NA,NA,NA,NA,NA,NA,NA,NA
d3caa,"""Falsch""-Screen",canvas.Screen,3_0_2_0_0_0_2,NA,NA,timeout,4999.86,325040,325034.74,325050,330033.2,330036,2023-06-13T11:52:02Z,330049.86,NULL,Kultur,utamaduni,d,NA,NA,NA,NA,sdf,0,2,NA,NA,NA,NA,NA,NA,NA,NA,NA,NA,NA,NA,NA,NA,NA,NA,NA,NA,NA
d3caa,deep,flow.Sequence,3_0_2_0_0_0,NA,NA,completion,8349.24,321684,321683.84,321683.96,330033.2,330037,2023-06-13T11:52:02Z,330049.86,NULL,Kultur,utamaduni,d,NA,NA,NA,NA,sdf,NA,2,NA,NA,NA,NA,NA,NA,NA,NA,NA,NA,NA,NA,NA,NA,NA,NA,NA,NA,NA
d3caa,shallow,flow.Sequence,3_0_2_0_0_1,NA,NA,skipped,NA,330038,NA,NA,330033.2,330038,2023-06-13T11:52:02Z,330049.86,NULL,Kultur,utamaduni,d,NA,NA,NA,NA,sdf,NA,2,NA,NA,NA,NA,NA,NA,NA,NA,NA,NA,NA,NA,NA,NA,NA,NA,NA,NA,NA
d3caa,task,flow.Sequence,3_0_2_0_0,NA,NA,completion,8349.24,321684,321683.84,321683.96,330033.2,330038,2023-06-13T11:52:02Z,330049.86,NULL,Kultur,utamaduni,d,NA,NA,NA,NA,sdf,NA,2,NA,NA,NA,NA,NA,NA,NA,NA,NA,NA,NA,NA,NA,NA,NA,NA,NA,NA,NA
d3caa,deep,flow.Sequence,3_0_2_0_1_0,NA,NA,skipped,NA,330039,NA,NA,330033.2,330039,2023-06-13T11:52:02Z,330049.86,NULL,Prüfung,mtihani,s,mkulima,mtizamo,ufumbuzi,NA,sdf,NA,2,NA,NA,NA,NA,NA,NA,NA,NA,NA,NA,NA,NA,NA,NA,NA,NA,NA,NA,NA
d3caa,Shallow Question,html.Page,3_0_2_0_1_1_0,NA,NA,form submission,4825.14,330039,330033.2,330049.86,334875,334878,2023-06-13T11:52:07Z,334883.2,NULL,Prüfung,mtihani,s,mkulima,mtizamo,ufumbuzi,ufumbuzi,NA,NA,2,NA,NA,NA,NA,NA,NA,NA,NA,NA,NA,NA,NA,NA,NA,NA,NA,NA,NA,NA
d3caa,"""Richtig""-Screen",canvas.Screen,3_0_2_0_1_1_1,NA,NA,skipped,NA,334885,NA,NA,334875,334885,2023-06-13T11:52:07Z,334883.2,NULL,Prüfung,mtihani,s,mkulima,mtizamo,ufumbuzi,NA,sdf,NA,2,NA,NA,NA,NA,NA,NA,NA,NA,NA,NA,NA,NA,NA,NA,NA,NA,NA,NA,NA
d3caa,"""Falsch""-Screen",canvas.Screen,3_0_2_0_1_1_2,NA,NA,timeout,4999.82,334887,334868.22,334883.2,339866.34,339867,2023-06-13T11:52:12Z,339883.02,NULL,Prüfung,mtihani,s,mkulima,mtizamo,ufumbuzi,NA,sdf,0,2,NA,NA,NA,NA,NA,NA,NA,NA,NA,NA,NA,NA,NA,NA,NA,NA,NA,NA,NA
d3caa,shallow,flow.Sequence,3_0_2_0_1_1,NA,NA,completion,9816.48,330039,330033.2,330049.86,339866.34,339868,2023-06-13T11:52:12Z,339883.02,NULL,Prüfung,mtihani,s,mkulima,mtizamo,ufumbuzi,NA,sdf,NA,2,NA,NA,NA,NA,NA,NA,NA,NA,NA,NA,NA,NA,NA,NA,NA,NA,NA,NA,NA
d3caa,task,flow.Sequence,3_0_2_0_1,NA,NA,completion,9816.48,330038,330033.2,330049.86,339866.34,339868,2023-06-13T11:52:12Z,339883.02,NULL,Prüfung,mtihani,s,mkulima,mtizamo,ufumbuzi,NA,sdf,NA,2,NA,NA,NA,NA,NA,NA,NA,NA,NA,NA,NA,NA,NA,NA,NA,NA,NA,NA,NA
d3caa,Deep Question,html.Page,3_0_2_0_2_0_0,NA,NA,form submission,4093.98,339868,339866.34,339883.02,343977,343978,2023-06-13T11:52:16Z,343983.08,NULL,Verzögerung,kuchelewa,d,NA,NA,NA,mtihani,NA,NA,2,NA,NA,NA,NA,NA,NA,NA,NA,NA,NA,NA,NA,NA,NA,NA,NA,NA,NA,NA
d3caa,"""Richtig""-Screen",canvas.Screen,3_0_2_0_2_0_1,NA,NA,skipped,NA,343980,NA,NA,343977,343980,2023-06-13T11:52:16Z,343983.08,NULL,Verzögerung,kuchelewa,d,NA,NA,NA,NA,sdf,NA,2,NA,NA,NA,NA,NA,NA,NA,NA,NA,NA,NA,NA,NA,NA,NA,NA,NA,NA,NA
d3caa,"""Falsch""-Screen",canvas.Screen,3_0_2_0_2_0_2,NA,NA,timeout,4998.92,343981,343973.02,343983.08,348966.22,348967,2023-06-13T11:52:21Z,348982,NULL,Verzögerung,kuchelewa,d,NA,NA,NA,NA,sdf,0,2,NA,NA,NA,NA,NA,NA,NA,NA,NA,NA,NA,NA,NA,NA,NA,NA,NA,NA,NA
d3caa,deep,flow.Sequence,3_0_2_0_2_0,NA,NA,completion,9083.2,339868,339866.34,339883.02,348966.22,348968,2023-06-13T11:52:21Z,348982,NULL,Verzögerung,kuchelewa,d,NA,NA,NA,NA,sdf,NA,2,NA,NA,NA,NA,NA,NA,NA,NA,NA,NA,NA,NA,NA,NA,NA,NA,NA,NA,NA
d3caa,shallow,flow.Sequence,3_0_2_0_2_1,NA,NA,skipped,NA,348968,NA,NA,348966.22,348968,2023-06-13T11:52:21Z,348982,NULL,Verzögerung,kuchelewa,d,NA,NA,NA,NA,sdf,NA,2,NA,NA,NA,NA,NA,NA,NA,NA,NA,NA,NA,NA,NA,NA,NA,NA,NA,NA,NA
d3caa,task,flow.Sequence,3_0_2_0_2,NA,NA,completion,9083.2,339868,339866.34,339883.02,348966.22,348968,2023-06-13T11:52:21Z,348982,NULL,Verzögerung,kuchelewa,d,NA,NA,NA,NA,sdf,NA,2,NA,NA,NA,NA,NA,NA,NA,NA,NA,NA,NA,NA,NA,NA,NA,NA,NA,NA,NA
d3caa,deep,flow.Sequence,3_0_2_0_3_0,NA,NA,skipped,NA,348969,NA,NA,348966.22,348969,2023-06-13T11:52:21Z,348982,NULL,Beweis,ushahidi,s,marudio,kizuizi,mtendaji,NA,sdf,NA,2,NA,NA,NA,NA,NA,NA,NA,NA,NA,NA,NA,NA,NA,NA,NA,NA,NA,NA,NA
d3caa,Shallow Question,html.Page,3_0_2_0_3_1_0,NA,NA,form submission,6707,348969,348966.22,348982,355689,355690,2023-06-13T11:52:28Z,355698.84,NULL,Beweis,ushahidi,s,marudio,kizuizi,mtendaji,ushahidi,NA,NA,2,NA,NA,NA,NA,NA,NA,NA,NA,NA,NA,NA,NA,NA,NA,NA,NA,NA,NA,NA
d3caa,"""Richtig""-Screen",canvas.Screen,3_0_2_0_3_1_1,NA,NA,timeout,4999.68,355692,355686.74,355698.84,360682.74,360684,2023-06-13T11:52:33Z,360698.52,NULL,Beweis,ushahidi,s,marudio,kizuizi,mtendaji,NA,sdf,1,2,NA,NA,NA,NA,NA,NA,NA,NA,NA,NA,NA,NA,NA,NA,NA,NA,NA,NA,NA
d3caa,"""Falsch""-Screen",canvas.Screen,3_0_2_0_3_1_2,NA,NA,skipped,NA,360687,NA,NA,360682.74,360687,2023-06-13T11:52:33Z,360698.52,NULL,Beweis,ushahidi,s,marudio,kizuizi,mtendaji,NA,sdf,NA,2,NA,NA,NA,NA,NA,NA,NA,NA,NA,NA,NA,NA,NA,NA,NA,NA,NA,NA,NA
d3caa,shallow,flow.Sequence,3_0_2_0_3_1,NA,NA,completion,11700.74,348969,348966.22,348982,360682.74,360687,2023-06-13T11:52:33Z,360698.52,NULL,Beweis,ushahidi,s,marudio,kizuizi,mtendaji,NA,sdf,NA,2,NA,NA,NA,NA,NA,NA,NA,NA,NA,NA,NA,NA,NA,NA,NA,NA,NA,NA,NA
d3caa,task,flow.Sequence,3_0_2_0_3,NA,NA,completion,11700.74,348969,348966.22,348982,360682.74,360688,2023-06-13T11:52:33Z,360698.52,NULL,Beweis,ushahidi,s,marudio,kizuizi,mtendaji,NA,sdf,NA,2,NA,NA,NA,NA,NA,NA,NA,NA,NA,NA,NA,NA,NA,NA,NA,NA,NA,NA,NA
d3caa,Deep Question,html.Page,3_0_2_0_4_0_0,NA,NA,form submission,5642.48,360688,360682.74,360698.52,366341,366342,2023-06-13T11:52:38Z,366349.46,NULL,Sympathie,mapendano,d,NA,NA,NA,mbaengo,NA,NA,2,NA,NA,NA,NA,NA,NA,NA,NA,NA,NA,NA,NA,NA,NA,NA,NA,NA,NA,NA
d3caa,"""Richtig""-Screen",canvas.Screen,3_0_2_0_4_0_1,NA,NA,skipped,NA,366344,NA,NA,366341,366345,2023-06-13T11:52:38Z,366349.46,NULL,Sympathie,mapendano,d,NA,NA,NA,NA,sdf,NA,2,NA,NA,NA,NA,NA,NA,NA,NA,NA,NA,NA,NA,NA,NA,NA,NA,NA,NA,NA
d3caa,"""Falsch""-Screen",canvas.Screen,3_0_2_0_4_0_2,NA,NA,timeout,4999.82,366347,366338,366349.46,371332.64,371336,2023-06-13T11:52:43Z,371349.28,NULL,Sympathie,mapendano,d,NA,NA,NA,NA,sdf,0,2,NA,NA,NA,NA,NA,NA,NA,NA,NA,NA,NA,NA,NA,NA,NA,NA,NA,NA,NA
d3caa,deep,flow.Sequence,3_0_2_0_4_0,NA,NA,completion,10634.12,360688,360682.74,360698.52,371332.64,371337,2023-06-13T11:52:43Z,371349.28,NULL,Sympathie,mapendano,d,NA,NA,NA,NA,sdf,NA,2,NA,NA,NA,NA,NA,NA,NA,NA,NA,NA,NA,NA,NA,NA,NA,NA,NA,NA,NA
d3caa,shallow,flow.Sequence,3_0_2_0_4_1,NA,NA,skipped,NA,371338,NA,NA,371332.64,371338,2023-06-13T11:52:43Z,371349.28,NULL,Sympathie,mapendano,d,NA,NA,NA,NA,sdf,NA,2,NA,NA,NA,NA,NA,NA,NA,NA,NA,NA,NA,NA,NA,NA,NA,NA,NA,NA,NA
d3caa,task,flow.Sequence,3_0_2_0_4,NA,NA,completion,10634.12,360688,360682.74,360698.52,371332.64,371339,2023-06-13T11:52:43Z,371349.28,NULL,Sympathie,mapendano,d,NA,NA,NA,NA,sdf,NA,2,NA,NA,NA,NA,NA,NA,NA,NA,NA,NA,NA,NA,NA,NA,NA,NA,NA,NA,NA
d3caa,Deep Question,html.Page,3_0_2_0_5_0_0,NA,NA,form submission,8169.72,371340,371332.64,371349.28,379519,379520,2023-06-13T11:52:52Z,379532.64,NULL,Annäherung,maegesho,d,NA,NA,NA,balbuzi,NA,NA,2,NA,NA,NA,NA,NA,NA,NA,NA,NA,NA,NA,NA,NA,NA,NA,NA,NA,NA,NA
d3caa,"""Richtig""-Screen",canvas.Screen,3_0_2_0_5_0_1,NA,NA,skipped,NA,379527,NA,NA,379519,379527,2023-06-13T11:52:52Z,379532.64,NULL,Annäherung,maegesho,d,NA,NA,NA,NA,sdf,NA,2,NA,NA,NA,NA,NA,NA,NA,NA,NA,NA,NA,NA,NA,NA,NA,NA,NA,NA,NA
d3caa,"""Falsch""-Screen",canvas.Screen,3_0_2_0_5_0_2,NA,NA,timeout,4999.12,379529,379513.6,379532.64,384515.78,384517,2023-06-13T11:52:56Z,384531.76,NULL,Annäherung,maegesho,d,NA,NA,NA,NA,sdf,0,2,NA,NA,NA,NA,NA,NA,NA,NA,NA,NA,NA,NA,NA,NA,NA,NA,NA,NA,NA
d3caa,deep,flow.Sequence,3_0_2_0_5_0,NA,NA,completion,13166.5,371340,371332.64,371349.28,384515.78,384517,2023-06-13T11:52:56Z,384531.76,NULL,Annäherung,maegesho,d,NA,NA,NA,NA,sdf,NA,2,NA,NA,NA,NA,NA,NA,NA,NA,NA,NA,NA,NA,NA,NA,NA,NA,NA,NA,NA
d3caa,shallow,flow.Sequence,3_0_2_0_5_1,NA,NA,skipped,NA,384518,NA,NA,384515.78,384518,2023-06-13T11:52:56Z,384531.76,NULL,Annäherung,maegesho,d,NA,NA,NA,NA,sdf,NA,2,NA,NA,NA,NA,NA,NA,NA,NA,NA,NA,NA,NA,NA,NA,NA,NA,NA,NA,NA
d3caa,task,flow.Sequence,3_0_2_0_5,NA,NA,completion,13166.5,371339,371332.64,371349.28,384515.78,384518,2023-06-13T11:52:56Z,384531.76,NULL,Annäherung,maegesho,d,NA,NA,NA,NA,sdf,NA,2,NA,NA,NA,NA,NA,NA,NA,NA,NA,NA,NA,NA,NA,NA,NA,NA,NA,NA,NA
d3caa,deep,flow.Sequence,3_0_2_0_6_0,NA,NA,skipped,NA,384518,NA,NA,384515.78,384519,2023-06-13T11:52:56Z,384531.76,NULL,Aufstand,ugomaji,s,mazidio,msingi,kujieleza,NA,sdf,NA,2,NA,NA,NA,NA,NA,NA,NA,NA,NA,NA,NA,NA,NA,NA,NA,NA,NA,NA,NA
d3caa,Shallow Question,html.Page,3_0_2_0_6_1_0,NA,NA,form submission,6971.24,384519,384515.78,384531.76,391503,391503,2023-06-13T11:53:03Z,391499.16,NULL,Aufstand,ugomaji,s,mazidio,msingi,kujieleza,msingi,NA,NA,2,NA,NA,NA,NA,NA,NA,NA,NA,NA,NA,NA,NA,NA,NA,NA,NA,NA,NA,NA
d3caa,"""Richtig""-Screen",canvas.Screen,3_0_2_0_6_1_1,NA,NA,skipped,NA,391505,NA,NA,391503,391506,2023-06-13T11:53:03Z,391499.16,NULL,Aufstand,ugomaji,s,mazidio,msingi,kujieleza,NA,sdf,NA,2,NA,NA,NA,NA,NA,NA,NA,NA,NA,NA,NA,NA,NA,NA,NA,NA,NA,NA,NA
d3caa,"""Falsch""-Screen",canvas.Screen,3_0_2_0_6_1_2,NA,NA,timeout,4999.32,391507,391498.5,391499.16,396482.3,396485,2023-06-13T11:53:08Z,396498.48,NULL,Aufstand,ugomaji,s,mazidio,msingi,kujieleza,NA,sdf,0,2,NA,NA,NA,NA,NA,NA,NA,NA,NA,NA,NA,NA,NA,NA,NA,NA,NA,NA,NA
d3caa,shallow,flow.Sequence,3_0_2_0_6_1,NA,NA,completion,11950.54,384519,384515.78,384531.76,396482.3,396487,2023-06-13T11:53:08Z,396498.48,NULL,Aufstand,ugomaji,s,mazidio,msingi,kujieleza,NA,sdf,NA,2,NA,NA,NA,NA,NA,NA,NA,NA,NA,NA,NA,NA,NA,NA,NA,NA,NA,NA,NA
d3caa,task,flow.Sequence,3_0_2_0_6,NA,NA,completion,11950.54,384518,384515.78,384531.76,396482.3,396487,2023-06-13T11:53:08Z,396498.48,NULL,Aufstand,ugomaji,s,mazidio,msingi,kujieleza,NA,sdf,NA,2,NA,NA,NA,NA,NA,NA,NA,NA,NA,NA,NA,NA,NA,NA,NA,NA,NA,NA,NA
d3caa,deep,flow.Sequence,3_0_2_0_7_0,NA,NA,skipped,NA,396487,NA,NA,396482.3,396487,2023-06-13T11:53:08Z,396498.48,NULL,Polizist,msongora,s,simanzi,mandhari,nidhamu,NA,sdf,NA,2,NA,NA,NA,NA,NA,NA,NA,NA,NA,NA,NA,NA,NA,NA,NA,NA,NA,NA,NA
d3caa,Shallow Question,html.Page,3_0_2_0_7_1_0,NA,NA,form submission,4899.52,396488,396482.3,396498.48,401398,401399,2023-06-13T11:53:13Z,401415.42,NULL,Polizist,msongora,s,simanzi,mandhari,nidhamu,mandhari,NA,NA,2,NA,NA,NA,NA,NA,NA,NA,NA,NA,NA,NA,NA,NA,NA,NA,NA,NA,NA,NA
d3caa,"""Richtig""-Screen",canvas.Screen,3_0_2_0_7_1_1,NA,NA,skipped,NA,401407,NA,NA,401398,401407,2023-06-13T11:53:13Z,401415.42,NULL,Polizist,msongora,s,simanzi,mandhari,nidhamu,NA,sdf,NA,2,NA,NA,NA,NA,NA,NA,NA,NA,NA,NA,NA,NA,NA,NA,NA,NA,NA,NA,NA
d3caa,"""Falsch""-Screen",canvas.Screen,3_0_2_0_7_1_2,NA,NA,timeout,5000.1,401408,401393.44,401415.42,406398.84,406400,2023-06-13T11:53:18Z,406415.52,NULL,Polizist,msongora,s,simanzi,mandhari,nidhamu,NA,sdf,0,2,NA,NA,NA,NA,NA,NA,NA,NA,NA,NA,NA,NA,NA,NA,NA,NA,NA,NA,NA
d3caa,shallow,flow.Sequence,3_0_2_0_7_1,NA,NA,completion,9900.36,396487,396482.3,396498.48,406398.84,406400,2023-06-13T11:53:18Z,406415.52,NULL,Polizist,msongora,s,simanzi,mandhari,nidhamu,NA,sdf,NA,2,NA,NA,NA,NA,NA,NA,NA,NA,NA,NA,NA,NA,NA,NA,NA,NA,NA,NA,NA
d3caa,task,flow.Sequence,3_0_2_0_7,NA,NA,completion,9900.36,396487,396482.3,396498.48,406398.84,406401,2023-06-13T11:53:18Z,406415.52,NULL,Polizist,msongora,s,simanzi,mandhari,nidhamu,NA,sdf,NA,2,NA,NA,NA,NA,NA,NA,NA,NA,NA,NA,NA,NA,NA,NA,NA,NA,NA,NA,NA
d3caa,block,flow.Loop,3_0_2_0,NA,NA,completion,84714.88,321684,321683.84,321683.96,406398.84,406401,2023-06-13T11:53:18Z,406415.52,NULL,NA,NA,NA,NA,NA,NA,NA,sdf,NA,2,NA,NA,NA,NA,NA,NA,NA,NA,NA,NA,NA,NA,NA,NA,NA,NA,NA,NA,NA
d3caa,weiter,canvas.Screen,3_0_2_1,sdf,keypress(Space),response,1104.48,406401,406398.84,406415.52,407520,407526,2023-06-13T11:53:20Z,407563.5,NULL,NA,NA,NA,NA,NA,NA,NA,sdf,NA,2,NA,NA,NA,NA,NA,NA,NA,NA,NA,NA,NA,NA,NA,NA,NA,NA,NA,NA,NA
d3caa,check continue,flow.Sequence,3_0_2,NA,NA,completion,85836.04,321684,321683.84,321683.96,407520,407526,2023-06-13T11:53:20Z,407563.5,NULL,NA,NA,NA,NA,NA,NA,NA,sdf,NA,2,NA,NA,NA,NA,NA,NA,NA,NA,NA,NA,NA,NA,NA,NA,NA,NA,NA,NA,NA
d3caa,Deep Question,html.Page,3_0_3_0_0_0_0,NA,NA,form submission,7737.5,407563,407563.38,407563.5,415301,415302,2023-06-13T11:53:27Z,415315.52,NULL,Sympathie,mapendano,d,NA,NA,NA,maengesha,NA,NA,3,NA,NA,NA,NA,NA,NA,NA,NA,NA,NA,NA,NA,NA,NA,NA,NA,NA,NA,NA
d3caa,"""Richtig""-Screen",canvas.Screen,3_0_3_0_0_0_1,NA,NA,skipped,NA,415304,NA,NA,415301,415304,2023-06-13T11:53:27Z,415315.52,NULL,Sympathie,mapendano,d,NA,NA,NA,NA,qt,NA,3,NA,NA,NA,NA,NA,NA,NA,NA,NA,NA,NA,NA,NA,NA,NA,NA,NA,NA,NA
d3caa,"""Falsch""-Screen",canvas.Screen,3_0_3_0_0_0_2,NA,NA,timeout,4999.82,415306,415297.92,415315.52,420298.32,420299,2023-06-13T11:53:32Z,420315.34,NULL,Sympathie,mapendano,d,NA,NA,NA,NA,qt,0,3,NA,NA,NA,NA,NA,NA,NA,NA,NA,NA,NA,NA,NA,NA,NA,NA,NA,NA,NA
d3caa,deep,flow.Sequence,3_0_3_0_0_0,NA,NA,completion,12734.82,407563,407563.38,407563.5,420298.32,420300,2023-06-13T11:53:32Z,420315.34,NULL,Sympathie,mapendano,d,NA,NA,NA,NA,qt,NA,3,NA,NA,NA,NA,NA,NA,NA,NA,NA,NA,NA,NA,NA,NA,NA,NA,NA,NA,NA
d3caa,shallow,flow.Sequence,3_0_3_0_0_1,NA,NA,skipped,NA,420300,NA,NA,420298.32,420300,2023-06-13T11:53:32Z,420315.34,NULL,Sympathie,mapendano,d,NA,NA,NA,NA,qt,NA,3,NA,NA,NA,NA,NA,NA,NA,NA,NA,NA,NA,NA,NA,NA,NA,NA,NA,NA,NA
d3caa,task,flow.Sequence,3_0_3_0_0,NA,NA,completion,12734.82,407563,407563.38,407563.5,420298.32,420300,2023-06-13T11:53:32Z,420315.34,NULL,Sympathie,mapendano,d,NA,NA,NA,NA,qt,NA,3,NA,NA,NA,NA,NA,NA,NA,NA,NA,NA,NA,NA,NA,NA,NA,NA,NA,NA,NA
d3caa,deep,flow.Sequence,3_0_3_0_1_0,NA,NA,skipped,NA,420301,NA,NA,420298.32,420301,2023-06-13T11:53:32Z,420315.34,NULL,Aufstand,ugomaji,s,mazidio,msingi,kujieleza,NA,qt,NA,3,NA,NA,NA,NA,NA,NA,NA,NA,NA,NA,NA,NA,NA,NA,NA,NA,NA,NA,NA
d3caa,Shallow Question,html.Page,3_0_3_0_1_1_0,NA,NA,form submission,4900.66,420301,420298.32,420315.34,425216,425217,2023-06-13T11:53:37Z,425215.4,NULL,Aufstand,ugomaji,s,mazidio,msingi,kujieleza,ugomaji,NA,NA,3,NA,NA,NA,NA,NA,NA,NA,NA,NA,NA,NA,NA,NA,NA,NA,NA,NA,NA,NA
d3caa,"""Richtig""-Screen",canvas.Screen,3_0_3_0_1_1_1,NA,NA,timeout,4999.8199999999,425220,425210.42,425215.4,430198.54,430200,2023-06-13T11:53:42Z,430215.22,NULL,Aufstand,ugomaji,s,mazidio,msingi,kujieleza,NA,qt,1,3,NA,NA,NA,NA,NA,NA,NA,NA,NA,NA,NA,NA,NA,NA,NA,NA,NA,NA,NA
d3caa,"""Falsch""-Screen",canvas.Screen,3_0_3_0_1_1_2,NA,NA,skipped,NA,430203,NA,NA,430198.54,430203,2023-06-13T11:53:42Z,430215.22,NULL,Aufstand,ugomaji,s,mazidio,msingi,kujieleza,NA,qt,NA,3,NA,NA,NA,NA,NA,NA,NA,NA,NA,NA,NA,NA,NA,NA,NA,NA,NA,NA,NA
d3caa,shallow,flow.Sequence,3_0_3_0_1_1,NA,NA,completion,9883.2,420301,420298.32,420315.34,430198.54,430204,2023-06-13T11:53:42Z,430215.22,NULL,Aufstand,ugomaji,s,mazidio,msingi,kujieleza,NA,qt,NA,3,NA,NA,NA,NA,NA,NA,NA,NA,NA,NA,NA,NA,NA,NA,NA,NA,NA,NA,NA
d3caa,task,flow.Sequence,3_0_3_0_1,NA,NA,completion,9883.2,420301,420298.32,420315.34,430198.54,430204,2023-06-13T11:53:42Z,430215.22,NULL,Aufstand,ugomaji,s,mazidio,msingi,kujieleza,NA,qt,NA,3,NA,NA,NA,NA,NA,NA,NA,NA,NA,NA,NA,NA,NA,NA,NA,NA,NA,NA,NA
d3caa,deep,flow.Sequence,3_0_3_0_2_0,NA,NA,skipped,NA,430204,NA,NA,430198.54,430204,2023-06-13T11:53:42Z,430215.22,NULL,Beweis,ushahidi,s,marudio,kizuizi,mtendaji,NA,qt,NA,3,NA,NA,NA,NA,NA,NA,NA,NA,NA,NA,NA,NA,NA,NA,NA,NA,NA,NA,NA
d3caa,Shallow Question,html.Page,3_0_3_0_2_1_0,NA,NA,form submission,6223.78,430204,430198.54,430215.22,436439,436439,2023-06-13T11:53:48Z,436448.58,NULL,Beweis,ushahidi,s,marudio,kizuizi,mtendaji,ushahidi,NA,NA,3,NA,NA,NA,NA,NA,NA,NA,NA,NA,NA,NA,NA,NA,NA,NA,NA,NA,NA,NA
d3caa,"""Richtig""-Screen",canvas.Screen,3_0_3_0_2_1_1,NA,NA,timeout,4999.82,436442,436435.48,436448.58,441431.72,441432,2023-06-13T11:53:53Z,441448.4,NULL,Beweis,ushahidi,s,marudio,kizuizi,mtendaji,NA,qt,1,3,NA,NA,NA,NA,NA,NA,NA,NA,NA,NA,NA,NA,NA,NA,NA,NA,NA,NA,NA
d3caa,"""Falsch""-Screen",canvas.Screen,3_0_3_0_2_1_2,NA,NA,skipped,NA,441436,NA,NA,441431.72,441436,2023-06-13T11:53:53Z,441448.4,NULL,Beweis,ushahidi,s,marudio,kizuizi,mtendaji,NA,qt,NA,3,NA,NA,NA,NA,NA,NA,NA,NA,NA,NA,NA,NA,NA,NA,NA,NA,NA,NA,NA
d3caa,shallow,flow.Sequence,3_0_3_0_2_1,NA,NA,completion,11216.5,430204,430198.54,430215.22,441431.72,441436,2023-06-13T11:53:53Z,441448.4,NULL,Beweis,ushahidi,s,marudio,kizuizi,mtendaji,NA,qt,NA,3,NA,NA,NA,NA,NA,NA,NA,NA,NA,NA,NA,NA,NA,NA,NA,NA,NA,NA,NA
d3caa,task,flow.Sequence,3_0_3_0_2,NA,NA,completion,11216.5,430204,430198.54,430215.22,441431.72,441437,2023-06-13T11:53:53Z,441448.4,NULL,Beweis,ushahidi,s,marudio,kizuizi,mtendaji,NA,qt,NA,3,NA,NA,NA,NA,NA,NA,NA,NA,NA,NA,NA,NA,NA,NA,NA,NA,NA,NA,NA
d3caa,Deep Question,html.Page,3_0_3_0_3_0_0,NA,NA,form submission,4030.6,441437,441431.72,441448.4,445479,445480,2023-06-13T11:53:57Z,445481.8,NULL,Kultur,utamaduni,d,NA,NA,NA,mapendano,NA,NA,3,NA,NA,NA,NA,NA,NA,NA,NA,NA,NA,NA,NA,NA,NA,NA,NA,NA,NA,NA
d3caa,"""Richtig""-Screen",canvas.Screen,3_0_3_0_3_0_1,NA,NA,skipped,NA,445482,NA,NA,445479,445482,2023-06-13T11:53:57Z,445481.8,NULL,Kultur,utamaduni,d,NA,NA,NA,NA,qt,NA,3,NA,NA,NA,NA,NA,NA,NA,NA,NA,NA,NA,NA,NA,NA,NA,NA,NA,NA,NA
d3caa,"""Falsch""-Screen",canvas.Screen,3_0_3_0_3_0_2,NA,NA,timeout,4999.88,445484,445475.94,445481.8,450465,450466,2023-06-13T11:54:02Z,450481.68,NULL,Kultur,utamaduni,d,NA,NA,NA,NA,qt,0,3,NA,NA,NA,NA,NA,NA,NA,NA,NA,NA,NA,NA,NA,NA,NA,NA,NA,NA,NA
d3caa,deep,flow.Sequence,3_0_3_0_3_0,NA,NA,completion,9016.6,441437,441431.72,441448.4,450465,450466,2023-06-13T11:54:02Z,450481.68,NULL,Kultur,utamaduni,d,NA,NA,NA,NA,qt,NA,3,NA,NA,NA,NA,NA,NA,NA,NA,NA,NA,NA,NA,NA,NA,NA,NA,NA,NA,NA
d3caa,shallow,flow.Sequence,3_0_3_0_3_1,NA,NA,skipped,NA,450466,NA,NA,450465,450466,2023-06-13T11:54:02Z,450481.68,NULL,Kultur,utamaduni,d,NA,NA,NA,NA,qt,NA,3,NA,NA,NA,NA,NA,NA,NA,NA,NA,NA,NA,NA,NA,NA,NA,NA,NA,NA,NA
d3caa,task,flow.Sequence,3_0_3_0_3,NA,NA,completion,9016.6,441437,441431.72,441448.4,450465,450467,2023-06-13T11:54:02Z,450481.68,NULL,Kultur,utamaduni,d,NA,NA,NA,NA,qt,NA,3,NA,NA,NA,NA,NA,NA,NA,NA,NA,NA,NA,NA,NA,NA,NA,NA,NA,NA,NA
d3caa,Deep Question,html.Page,3_0_3_0_4_0_0,NA,NA,form submission,4305.32,450467,450465,450481.68,454787,454787,2023-06-13T11:54:07Z,454798.36,NULL,Annäherung,maegesho,d,NA,NA,NA,mapendano,NA,NA,3,NA,NA,NA,NA,NA,NA,NA,NA,NA,NA,NA,NA,NA,NA,NA,NA,NA,NA,NA
d3caa,"""Richtig""-Screen",canvas.Screen,3_0_3_0_4_0_1,NA,NA,skipped,NA,454790,NA,NA,454787,454790,2023-06-13T11:54:07Z,454798.36,NULL,Annäherung,maegesho,d,NA,NA,NA,NA,qt,NA,3,NA,NA,NA,NA,NA,NA,NA,NA,NA,NA,NA,NA,NA,NA,NA,NA,NA,NA,NA
d3caa,"""Falsch""-Screen",canvas.Screen,3_0_3_0_4_0_2,NA,NA,timeout,4999.8,454792,454783.74,454798.36,459781.2,459781,2023-06-13T11:54:12Z,459798.16,NULL,Annäherung,maegesho,d,NA,NA,NA,NA,qt,0,3,NA,NA,NA,NA,NA,NA,NA,NA,NA,NA,NA,NA,NA,NA,NA,NA,NA,NA,NA
d3caa,deep,flow.Sequence,3_0_3_0_4_0,NA,NA,completion,9299.52,450467,450465,450481.68,459781.2,459782,2023-06-13T11:54:12Z,459798.16,NULL,Annäherung,maegesho,d,NA,NA,NA,NA,qt,NA,3,NA,NA,NA,NA,NA,NA,NA,NA,NA,NA,NA,NA,NA,NA,NA,NA,NA,NA,NA
d3caa,shallow,flow.Sequence,3_0_3_0_4_1,NA,NA,skipped,NA,459782,NA,NA,459781.2,459782,2023-06-13T11:54:12Z,459798.16,NULL,Annäherung,maegesho,d,NA,NA,NA,NA,qt,NA,3,NA,NA,NA,NA,NA,NA,NA,NA,NA,NA,NA,NA,NA,NA,NA,NA,NA,NA,NA
d3caa,task,flow.Sequence,3_0_3_0_4,NA,NA,completion,9299.52,450467,450465,450481.68,459781.2,459782,2023-06-13T11:54:12Z,459798.16,NULL,Annäherung,maegesho,d,NA,NA,NA,NA,qt,NA,3,NA,NA,NA,NA,NA,NA,NA,NA,NA,NA,NA,NA,NA,NA,NA,NA,NA,NA,NA
d3caa,deep,flow.Sequence,3_0_3_0_5_0,NA,NA,skipped,NA,459782,NA,NA,459781.2,459782,2023-06-13T11:54:12Z,459798.16,NULL,Prüfung,mtihani,s,mkulima,mtizamo,ufumbuzi,NA,qt,NA,3,NA,NA,NA,NA,NA,NA,NA,NA,NA,NA,NA,NA,NA,NA,NA,NA,NA,NA,NA
d3caa,Shallow Question,html.Page,3_0_3_0_5_1_0,NA,NA,form submission,4863.84,459782,459781.2,459798.16,464662,464662,2023-06-13T11:54:17Z,464658.86,NULL,Prüfung,mtihani,s,mkulima,mtizamo,ufumbuzi,mtizamo,NA,NA,3,NA,NA,NA,NA,NA,NA,NA,NA,NA,NA,NA,NA,NA,NA,NA,NA,NA,NA,NA
d3caa,"""Richtig""-Screen",canvas.Screen,3_0_3_0_5_1_1,NA,NA,skipped,NA,464664,NA,NA,464662,464664,2023-06-13T11:54:17Z,464658.86,NULL,Prüfung,mtihani,s,mkulima,mtizamo,ufumbuzi,NA,qt,NA,3,NA,NA,NA,NA,NA,NA,NA,NA,NA,NA,NA,NA,NA,NA,NA,NA,NA,NA,NA
d3caa,"""Falsch""-Screen",canvas.Screen,3_0_3_0_5_1_2,NA,NA,timeout,5006,464665,464658.8,464658.86,469648.14,469651,2023-06-13T11:54:22Z,469664.86,NULL,Prüfung,mtihani,s,mkulima,mtizamo,ufumbuzi,NA,qt,0,3,NA,NA,NA,NA,NA,NA,NA,NA,NA,NA,NA,NA,NA,NA,NA,NA,NA,NA,NA
d3caa,shallow,flow.Sequence,3_0_3_0_5_1,NA,NA,completion,9849.98,459782,459781.2,459798.16,469648.14,469653,2023-06-13T11:54:22Z,469664.86,NULL,Prüfung,mtihani,s,mkulima,mtizamo,ufumbuzi,NA,qt,NA,3,NA,NA,NA,NA,NA,NA,NA,NA,NA,NA,NA,NA,NA,NA,NA,NA,NA,NA,NA
d3caa,task,flow.Sequence,3_0_3_0_5,NA,NA,completion,9849.98,459782,459781.2,459798.16,469648.14,469653,2023-06-13T11:54:22Z,469664.86,NULL,Prüfung,mtihani,s,mkulima,mtizamo,ufumbuzi,NA,qt,NA,3,NA,NA,NA,NA,NA,NA,NA,NA,NA,NA,NA,NA,NA,NA,NA,NA,NA,NA,NA
d3caa,Deep Question,html.Page,3_0_3_0_6_0_0,NA,NA,form submission,4237.14,469654,469648.14,469664.86,473902,473902,2023-06-13T11:54:26Z,473913.96,NULL,Verzögerung,kuchelewa,d,NA,NA,NA,mapendano,NA,NA,3,NA,NA,NA,NA,NA,NA,NA,NA,NA,NA,NA,NA,NA,NA,NA,NA,NA,NA,NA
d3caa,"""Richtig""-Screen",canvas.Screen,3_0_3_0_6_0_1,NA,NA,skipped,NA,473908,NA,NA,473902,473908,2023-06-13T11:54:26Z,473913.96,NULL,Verzögerung,kuchelewa,d,NA,NA,NA,NA,qt,NA,3,NA,NA,NA,NA,NA,NA,NA,NA,NA,NA,NA,NA,NA,NA,NA,NA,NA,NA,NA
d3caa,"""Falsch""-Screen",canvas.Screen,3_0_3_0_6_0_2,NA,NA,timeout,5000.64,473910,473896.48,473913.96,478897.92,478901,2023-06-13T11:54:31Z,478914.6,NULL,Verzögerung,kuchelewa,d,NA,NA,NA,NA,qt,0,3,NA,NA,NA,NA,NA,NA,NA,NA,NA,NA,NA,NA,NA,NA,NA,NA,NA,NA,NA
d3caa,deep,flow.Sequence,3_0_3_0_6_0,NA,NA,completion,9233.06,469654,469648.14,469664.86,478897.92,478903,2023-06-13T11:54:31Z,478914.6,NULL,Verzögerung,kuchelewa,d,NA,NA,NA,NA,qt,NA,3,NA,NA,NA,NA,NA,NA,NA,NA,NA,NA,NA,NA,NA,NA,NA,NA,NA,NA,NA
d3caa,shallow,flow.Sequence,3_0_3_0_6_1,NA,NA,skipped,NA,478903,NA,NA,478897.92,478903,2023-06-13T11:54:31Z,478914.6,NULL,Verzögerung,kuchelewa,d,NA,NA,NA,NA,qt,NA,3,NA,NA,NA,NA,NA,NA,NA,NA,NA,NA,NA,NA,NA,NA,NA,NA,NA,NA,NA
d3caa,task,flow.Sequence,3_0_3_0_6,NA,NA,completion,9233.06,469654,469648.14,469664.86,478897.92,478904,2023-06-13T11:54:31Z,478914.6,NULL,Verzögerung,kuchelewa,d,NA,NA,NA,NA,qt,NA,3,NA,NA,NA,NA,NA,NA,NA,NA,NA,NA,NA,NA,NA,NA,NA,NA,NA,NA,NA
d3caa,deep,flow.Sequence,3_0_3_0_7_0,NA,NA,skipped,NA,478904,NA,NA,478897.92,478904,2023-06-13T11:54:31Z,478914.6,NULL,Polizist,msongora,s,simanzi,mandhari,nidhamu,NA,qt,NA,3,NA,NA,NA,NA,NA,NA,NA,NA,NA,NA,NA,NA,NA,NA,NA,NA,NA,NA,NA
d3caa,Shallow Question,html.Page,3_0_3_0_7_1_0,NA,NA,form submission,6668.4,478904,478897.92,478914.6,485583,485584,2023-06-13T11:54:38Z,485597.96,NULL,Polizist,msongora,s,simanzi,mandhari,nidhamu,nidhamu,NA,NA,3,NA,NA,NA,NA,NA,NA,NA,NA,NA,NA,NA,NA,NA,NA,NA,NA,NA,NA,NA
d3caa,"""Richtig""-Screen",canvas.Screen,3_0_3_0_7_1_1,NA,NA,skipped,NA,485591,NA,NA,485583,485592,2023-06-13T11:54:38Z,485597.96,NULL,Polizist,msongora,s,simanzi,mandhari,nidhamu,NA,qt,NA,3,NA,NA,NA,NA,NA,NA,NA,NA,NA,NA,NA,NA,NA,NA,NA,NA,NA,NA,NA
d3caa,"""Falsch""-Screen",canvas.Screen,3_0_3_0_7_1_2,NA,NA,timeout,4999.84,485593,485577.86,485597.96,490581.1,490582,2023-06-13T11:54:43Z,490597.8,NULL,Polizist,msongora,s,simanzi,mandhari,nidhamu,NA,qt,0,3,NA,NA,NA,NA,NA,NA,NA,NA,NA,NA,NA,NA,NA,NA,NA,NA,NA,NA,NA
d3caa,shallow,flow.Sequence,3_0_3_0_7_1,NA,NA,completion,11666.5,478904,478897.92,478914.6,490581.1,490582,2023-06-13T11:54:43Z,490597.8,NULL,Polizist,msongora,s,simanzi,mandhari,nidhamu,NA,qt,NA,3,NA,NA,NA,NA,NA,NA,NA,NA,NA,NA,NA,NA,NA,NA,NA,NA,NA,NA,NA
d3caa,task,flow.Sequence,3_0_3_0_7,NA,NA,completion,11666.5,478904,478897.92,478914.6,490581.1,490583,2023-06-13T11:54:43Z,490597.8,NULL,Polizist,msongora,s,simanzi,mandhari,nidhamu,NA,qt,NA,3,NA,NA,NA,NA,NA,NA,NA,NA,NA,NA,NA,NA,NA,NA,NA,NA,NA,NA,NA
d3caa,block,flow.Loop,3_0_3_0,NA,NA,completion,83017.6,407563,407563.38,407563.5,490581.1,490583,2023-06-13T11:54:43Z,490597.8,NULL,NA,NA,NA,NA,NA,NA,NA,qt,NA,3,NA,NA,NA,NA,NA,NA,NA,NA,NA,NA,NA,NA,NA,NA,NA,NA,NA,NA,NA
d3caa,weiter,canvas.Screen,3_0_3_1,sdf,keypress(Space),response,1062.2,490583,490581.1,490597.8,491660,491667,2023-06-13T11:54:44Z,491704.36,NULL,NA,NA,NA,NA,NA,NA,NA,qt,NA,3,NA,NA,NA,NA,NA,NA,NA,NA,NA,NA,NA,NA,NA,NA,NA,NA,NA,NA,NA
d3caa,check continue,flow.Sequence,3_0_3,NA,NA,completion,84096.5,407563,407563.38,407563.5,491660,491668,2023-06-13T11:54:44Z,491704.36,NULL,NA,NA,NA,NA,NA,NA,NA,qt,NA,3,NA,NA,NA,NA,NA,NA,NA,NA,NA,NA,NA,NA,NA,NA,NA,NA,NA,NA,NA
d3caa,deep,flow.Sequence,3_0_4_0_0_0,NA,NA,skipped,NA,491704,NA,NA,491660,491704,2023-06-13T11:54:44Z,491704.36,NULL,Beweis,ushahidi,s,marudio,kizuizi,mtendaji,NA,sd,NA,4,NA,NA,NA,NA,NA,NA,NA,NA,NA,NA,NA,NA,NA,NA,NA,NA,NA,NA,NA
d3caa,Shallow Question,html.Page,3_0_4_0_0_1_0,NA,NA,form submission,3782.64,491704,491704.2,491704.36,495487,495488,2023-06-13T11:54:47Z,495497.84,NULL,Beweis,ushahidi,s,marudio,kizuizi,mtendaji,ushahidi,NA,NA,4,NA,NA,NA,NA,NA,NA,NA,NA,NA,NA,NA,NA,NA,NA,NA,NA,NA,NA,NA
d3caa,"""Richtig""-Screen",canvas.Screen,3_0_4_0_0_1_1,NA,NA,timeout,4999.8,495490,495484.5,495497.84,500481,500482,2023-06-13T11:54:52Z,500497.64,NULL,Beweis,ushahidi,s,marudio,kizuizi,mtendaji,NA,sd,1,4,NA,NA,NA,NA,NA,NA,NA,NA,NA,NA,NA,NA,NA,NA,NA,NA,NA,NA,NA
d3caa,"""Falsch""-Screen",canvas.Screen,3_0_4_0_0_1_2,NA,NA,skipped,NA,500486,NA,NA,500481,500486,2023-06-13T11:54:52Z,500497.64,NULL,Beweis,ushahidi,s,marudio,kizuizi,mtendaji,NA,sd,NA,4,NA,NA,NA,NA,NA,NA,NA,NA,NA,NA,NA,NA,NA,NA,NA,NA,NA,NA,NA
d3caa,shallow,flow.Sequence,3_0_4_0_0_1,NA,NA,completion,8776.64,491704,491704.2,491704.36,500481,500486,2023-06-13T11:54:52Z,500497.64,NULL,Beweis,ushahidi,s,marudio,kizuizi,mtendaji,NA,sd,NA,4,NA,NA,NA,NA,NA,NA,NA,NA,NA,NA,NA,NA,NA,NA,NA,NA,NA,NA,NA
d3caa,task,flow.Sequence,3_0_4_0_0,NA,NA,completion,8776.64,491704,491704.2,491704.36,500481,500487,2023-06-13T11:54:52Z,500497.64,NULL,Beweis,ushahidi,s,marudio,kizuizi,mtendaji,NA,sd,NA,4,NA,NA,NA,NA,NA,NA,NA,NA,NA,NA,NA,NA,NA,NA,NA,NA,NA,NA,NA
d3caa,deep,flow.Sequence,3_0_4_0_1_0,NA,NA,skipped,NA,500487,NA,NA,500481,500487,2023-06-13T11:54:52Z,500497.64,NULL,Prüfung,mtihani,s,mkulima,mtizamo,ufumbuzi,NA,sd,NA,4,NA,NA,NA,NA,NA,NA,NA,NA,NA,NA,NA,NA,NA,NA,NA,NA,NA,NA,NA
d3caa,Shallow Question,html.Page,3_0_4_0_1_1_0,NA,NA,form submission,6416.36,500487,500481,500497.64,506914,506915,2023-06-13T11:54:59Z,506914.36,NULL,Prüfung,mtihani,s,mkulima,mtizamo,ufumbuzi,mtihani,NA,NA,4,NA,NA,NA,NA,NA,NA,NA,NA,NA,NA,NA,NA,NA,NA,NA,NA,NA,NA,NA
d3caa,"""Richtig""-Screen",canvas.Screen,3_0_4_0_1_1_1,NA,NA,timeout,4999.84,506918,506909.86,506914.36,511897.52,511898,2023-06-13T11:55:04Z,511914.2,NULL,Prüfung,mtihani,s,mkulima,mtizamo,ufumbuzi,NA,sd,1,4,NA,NA,NA,NA,NA,NA,NA,NA,NA,NA,NA,NA,NA,NA,NA,NA,NA,NA,NA
d3caa,"""Falsch""-Screen",canvas.Screen,3_0_4_0_1_1_2,NA,NA,skipped,NA,511901,NA,NA,511897.52,511901,2023-06-13T11:55:04Z,511914.2,NULL,Prüfung,mtihani,s,mkulima,mtizamo,ufumbuzi,NA,sd,NA,4,NA,NA,NA,NA,NA,NA,NA,NA,NA,NA,NA,NA,NA,NA,NA,NA,NA,NA,NA
d3caa,shallow,flow.Sequence,3_0_4_0_1_1,NA,NA,completion,11399.88,500487,500481,500497.64,511897.52,511901,2023-06-13T11:55:04Z,511914.2,NULL,Prüfung,mtihani,s,mkulima,mtizamo,ufumbuzi,NA,sd,NA,4,NA,NA,NA,NA,NA,NA,NA,NA,NA,NA,NA,NA,NA,NA,NA,NA,NA,NA,NA
d3caa,task,flow.Sequence,3_0_4_0_1,NA,NA,completion,11399.88,500487,500481,500497.64,511897.52,511901,2023-06-13T11:55:04Z,511914.2,NULL,Prüfung,mtihani,s,mkulima,mtizamo,ufumbuzi,NA,sd,NA,4,NA,NA,NA,NA,NA,NA,NA,NA,NA,NA,NA,NA,NA,NA,NA,NA,NA,NA,NA
d3caa,Deep Question,html.Page,3_0_4_0_2_0_0,NA,NA,form submission,3947.8,511901,511897.52,511914.2,515862,515862,2023-06-13T11:55:08Z,515864.26,NULL,Verzögerung,kuchelewa,d,NA,NA,NA,mapendano,NA,NA,4,NA,NA,NA,NA,NA,NA,NA,NA,NA,NA,NA,NA,NA,NA,NA,NA,NA,NA,NA
d3caa,"""Richtig""-Screen",canvas.Screen,3_0_4_0_2_0_1,NA,NA,skipped,NA,515865,NA,NA,515862,515865,2023-06-13T11:55:08Z,515864.26,NULL,Verzögerung,kuchelewa,d,NA,NA,NA,NA,sd,NA,4,NA,NA,NA,NA,NA,NA,NA,NA,NA,NA,NA,NA,NA,NA,NA,NA,NA,NA,NA
d3caa,"""Falsch""-Screen",canvas.Screen,3_0_4_0_2_0_2,NA,NA,timeout,4999.82,515867,515858.2,515864.26,520847.4,520848,2023-06-13T11:55:13Z,520864.08,NULL,Verzögerung,kuchelewa,d,NA,NA,NA,NA,sd,0,4,NA,NA,NA,NA,NA,NA,NA,NA,NA,NA,NA,NA,NA,NA,NA,NA,NA,NA,NA
d3caa,deep,flow.Sequence,3_0_4_0_2_0,NA,NA,completion,8933.2,511901,511897.52,511914.2,520847.4,520849,2023-06-13T11:55:13Z,520864.08,NULL,Verzögerung,kuchelewa,d,NA,NA,NA,NA,sd,NA,4,NA,NA,NA,NA,NA,NA,NA,NA,NA,NA,NA,NA,NA,NA,NA,NA,NA,NA,NA
d3caa,shallow,flow.Sequence,3_0_4_0_2_1,NA,NA,skipped,NA,520849,NA,NA,520847.4,520849,2023-06-13T11:55:13Z,520864.08,NULL,Verzögerung,kuchelewa,d,NA,NA,NA,NA,sd,NA,4,NA,NA,NA,NA,NA,NA,NA,NA,NA,NA,NA,NA,NA,NA,NA,NA,NA,NA,NA
d3caa,task,flow.Sequence,3_0_4_0_2,NA,NA,completion,8933.2,511901,511897.52,511914.2,520847.4,520849,2023-06-13T11:55:13Z,520864.08,NULL,Verzögerung,kuchelewa,d,NA,NA,NA,NA,sd,NA,4,NA,NA,NA,NA,NA,NA,NA,NA,NA,NA,NA,NA,NA,NA,NA,NA,NA,NA,NA
d3caa,deep,flow.Sequence,3_0_4_0_3_0,NA,NA,skipped,NA,520849,NA,NA,520847.4,520850,2023-06-13T11:55:13Z,520864.08,NULL,Aufstand,ugomaji,s,mazidio,msingi,kujieleza,NA,sd,NA,4,NA,NA,NA,NA,NA,NA,NA,NA,NA,NA,NA,NA,NA,NA,NA,NA,NA,NA,NA
d3caa,Shallow Question,html.Page,3_0_4_0_3_1_0,NA,NA,form submission,7305.92,520850,520847.4,520864.08,528170,528171,2023-06-13T11:55:20Z,528180.78,NULL,Aufstand,ugomaji,s,mazidio,msingi,kujieleza,ugomaji,NA,NA,4,NA,NA,NA,NA,NA,NA,NA,NA,NA,NA,NA,NA,NA,NA,NA,NA,NA,NA,NA
d3caa,"""Richtig""-Screen",canvas.Screen,3_0_4_0_3_1_1,NA,NA,timeout,4999.8199999999,528173,528166.34,528180.78,533163.9,533165,2023-06-13T11:55:25Z,533180.6,NULL,Aufstand,ugomaji,s,mazidio,msingi,kujieleza,NA,sd,1,4,NA,NA,NA,NA,NA,NA,NA,NA,NA,NA,NA,NA,NA,NA,NA,NA,NA,NA,NA
d3caa,"""Falsch""-Screen",canvas.Screen,3_0_4_0_3_1_2,NA,NA,skipped,NA,533168,NA,NA,533163.9,533168,2023-06-13T11:55:25Z,533180.6,NULL,Aufstand,ugomaji,s,mazidio,msingi,kujieleza,NA,sd,NA,4,NA,NA,NA,NA,NA,NA,NA,NA,NA,NA,NA,NA,NA,NA,NA,NA,NA,NA,NA
d3caa,shallow,flow.Sequence,3_0_4_0_3_1,NA,NA,completion,12299.82,520850,520847.4,520864.08,533163.9,533168,2023-06-13T11:55:25Z,533180.6,NULL,Aufstand,ugomaji,s,mazidio,msingi,kujieleza,NA,sd,NA,4,NA,NA,NA,NA,NA,NA,NA,NA,NA,NA,NA,NA,NA,NA,NA,NA,NA,NA,NA
d3caa,task,flow.Sequence,3_0_4_0_3,NA,NA,completion,12299.82,520849,520847.4,520864.08,533163.9,533168,2023-06-13T11:55:25Z,533180.6,NULL,Aufstand,ugomaji,s,mazidio,msingi,kujieleza,NA,sd,NA,4,NA,NA,NA,NA,NA,NA,NA,NA,NA,NA,NA,NA,NA,NA,NA,NA,NA,NA,NA
d3caa,Deep Question,html.Page,3_0_4_0_4_0_0,NA,NA,form submission,4228.4,533168,533163.9,533180.6,537409,537410,2023-06-13T11:55:29Z,537413.98,NULL,Kultur,utamaduni,d,NA,NA,NA,mapendano,NA,NA,4,NA,NA,NA,NA,NA,NA,NA,NA,NA,NA,NA,NA,NA,NA,NA,NA,NA,NA,NA
d3caa,"""Richtig""-Screen",canvas.Screen,3_0_4_0_4_0_1,NA,NA,skipped,NA,537412,NA,NA,537409,537413,2023-06-13T11:55:29Z,537413.98,NULL,Kultur,utamaduni,d,NA,NA,NA,NA,sd,NA,4,NA,NA,NA,NA,NA,NA,NA,NA,NA,NA,NA,NA,NA,NA,NA,NA,NA,NA,NA
d3caa,"""Falsch""-Screen",canvas.Screen,3_0_4_0_4_0_2,NA,NA,timeout,4999.8200000001,537414,537406.3,537413.98,542397.14,542398,2023-06-13T11:55:34Z,542413.8,NULL,Kultur,utamaduni,d,NA,NA,NA,NA,sd,0,4,NA,NA,NA,NA,NA,NA,NA,NA,NA,NA,NA,NA,NA,NA,NA,NA,NA,NA,NA
d3caa,deep,flow.Sequence,3_0_4_0_4_0,NA,NA,completion,9216.54,533168,533163.9,533180.6,542397.14,542399,2023-06-13T11:55:34Z,542413.8,NULL,Kultur,utamaduni,d,NA,NA,NA,NA,sd,NA,4,NA,NA,NA,NA,NA,NA,NA,NA,NA,NA,NA,NA,NA,NA,NA,NA,NA,NA,NA
d3caa,shallow,flow.Sequence,3_0_4_0_4_1,NA,NA,skipped,NA,542399,NA,NA,542397.14,542399,2023-06-13T11:55:34Z,542413.8,NULL,Kultur,utamaduni,d,NA,NA,NA,NA,sd,NA,4,NA,NA,NA,NA,NA,NA,NA,NA,NA,NA,NA,NA,NA,NA,NA,NA,NA,NA,NA
d3caa,task,flow.Sequence,3_0_4_0_4,NA,NA,completion,9216.54,533168,533163.9,533180.6,542397.14,542399,2023-06-13T11:55:34Z,542413.8,NULL,Kultur,utamaduni,d,NA,NA,NA,NA,sd,NA,4,NA,NA,NA,NA,NA,NA,NA,NA,NA,NA,NA,NA,NA,NA,NA,NA,NA,NA,NA
d3caa,Deep Question,html.Page,3_0_4_0_5_0_0,NA,NA,form submission,4577.2,542400,542397.14,542413.8,546991,546992,2023-06-13T11:55:39Z,546997.2,NULL,Annäherung,maegesho,d,NA,NA,NA,mapendano,NA,NA,4,NA,NA,NA,NA,NA,NA,NA,NA,NA,NA,NA,NA,NA,NA,NA,NA,NA,NA,NA
d3caa,"""Richtig""-Screen",canvas.Screen,3_0_4_0_5_0_1,NA,NA,skipped,NA,546994,NA,NA,546991,546994,2023-06-13T11:55:39Z,546997.2,NULL,Annäherung,maegesho,d,NA,NA,NA,NA,sd,NA,4,NA,NA,NA,NA,NA,NA,NA,NA,NA,NA,NA,NA,NA,NA,NA,NA,NA,NA,NA
d3caa,"""Falsch""-Screen",canvas.Screen,3_0_4_0_5_0_2,NA,NA,timeout,4999.8200000001,546995,546989.16,546997.2,551979.56,551982,2023-06-13T11:55:44Z,551997.02,NULL,Annäherung,maegesho,d,NA,NA,NA,NA,sd,0,4,NA,NA,NA,NA,NA,NA,NA,NA,NA,NA,NA,NA,NA,NA,NA,NA,NA,NA,NA
d3caa,deep,flow.Sequence,3_0_4_0_5_0,NA,NA,completion,9565.76,542400,542397.14,542413.8,551979.56,551985,2023-06-13T11:55:44Z,551997.02,NULL,Annäherung,maegesho,d,NA,NA,NA,NA,sd,NA,4,NA,NA,NA,NA,NA,NA,NA,NA,NA,NA,NA,NA,NA,NA,NA,NA,NA,NA,NA
d3caa,shallow,flow.Sequence,3_0_4_0_5_1,NA,NA,skipped,NA,551985,NA,NA,551979.56,551985,2023-06-13T11:55:44Z,551997.02,NULL,Annäherung,maegesho,d,NA,NA,NA,NA,sd,NA,4,NA,NA,NA,NA,NA,NA,NA,NA,NA,NA,NA,NA,NA,NA,NA,NA,NA,NA,NA
d3caa,task,flow.Sequence,3_0_4_0_5,NA,NA,completion,9565.76,542399,542397.14,542413.8,551979.56,551986,2023-06-13T11:55:44Z,551997.02,NULL,Annäherung,maegesho,d,NA,NA,NA,NA,sd,NA,4,NA,NA,NA,NA,NA,NA,NA,NA,NA,NA,NA,NA,NA,NA,NA,NA,NA,NA,NA
d3caa,Deep Question,html.Page,3_0_4_0_6_0_0,NA,NA,form submission,5765.98,551987,551979.56,551997.02,557763,557767,2023-06-13T11:55:50Z,557780.38,NULL,Sympathie,mapendano,d,NA,NA,NA,mapendano,NA,NA,4,NA,NA,NA,NA,NA,NA,NA,NA,NA,NA,NA,NA,NA,NA,NA,NA,NA,NA,NA
d3caa,"""Richtig""-Screen",canvas.Screen,3_0_4_0_6_0_1,NA,NA,timeout,4999.84,557774,557757.18,557780.38,562763.52,562765,2023-06-13T11:55:55Z,562780.22,NULL,Sympathie,mapendano,d,NA,NA,NA,NA,sd,1,4,NA,NA,NA,NA,NA,NA,NA,NA,NA,NA,NA,NA,NA,NA,NA,NA,NA,NA,NA
d3caa,"""Falsch""-Screen",canvas.Screen,3_0_4_0_6_0_2,NA,NA,skipped,NA,562769,NA,NA,562763.52,562769,2023-06-13T11:55:55Z,562780.22,NULL,Sympathie,mapendano,d,NA,NA,NA,NA,sd,NA,4,NA,NA,NA,NA,NA,NA,NA,NA,NA,NA,NA,NA,NA,NA,NA,NA,NA,NA,NA
d3caa,deep,flow.Sequence,3_0_4_0_6_0,NA,NA,completion,10766.5,551987,551979.56,551997.02,562763.52,562769,2023-06-13T11:55:55Z,562780.22,NULL,Sympathie,mapendano,d,NA,NA,NA,NA,sd,NA,4,NA,NA,NA,NA,NA,NA,NA,NA,NA,NA,NA,NA,NA,NA,NA,NA,NA,NA,NA
d3caa,shallow,flow.Sequence,3_0_4_0_6_1,NA,NA,skipped,NA,562769,NA,NA,562763.52,562770,2023-06-13T11:55:55Z,562780.22,NULL,Sympathie,mapendano,d,NA,NA,NA,NA,sd,NA,4,NA,NA,NA,NA,NA,NA,NA,NA,NA,NA,NA,NA,NA,NA,NA,NA,NA,NA,NA
d3caa,task,flow.Sequence,3_0_4_0_6,NA,NA,completion,10766.5,551986,551979.56,551997.02,562763.52,562770,2023-06-13T11:55:55Z,562780.22,NULL,Sympathie,mapendano,d,NA,NA,NA,NA,sd,NA,4,NA,NA,NA,NA,NA,NA,NA,NA,NA,NA,NA,NA,NA,NA,NA,NA,NA,NA,NA
d3caa,deep,flow.Sequence,3_0_4_0_7_0,NA,NA,skipped,NA,562770,NA,NA,562763.52,562770,2023-06-13T11:55:55Z,562780.22,NULL,Polizist,msongora,s,simanzi,mandhari,nidhamu,NA,sd,NA,4,NA,NA,NA,NA,NA,NA,NA,NA,NA,NA,NA,NA,NA,NA,NA,NA,NA,NA,NA
d3caa,Shallow Question,html.Page,3_0_4_0_7_1_0,NA,NA,form submission,4762.78,562770,562763.52,562780.22,567543,567543,2023-06-13T11:56:00Z,567546.94,NULL,Polizist,msongora,s,simanzi,mandhari,nidhamu,nidhamu,NA,NA,4,NA,NA,NA,NA,NA,NA,NA,NA,NA,NA,NA,NA,NA,NA,NA,NA,NA,NA,NA
d3caa,"""Richtig""-Screen",canvas.Screen,3_0_4_0_7_1_1,NA,NA,skipped,NA,567546,NA,NA,567543,567546,2023-06-13T11:56:00Z,567546.94,NULL,Polizist,msongora,s,simanzi,mandhari,nidhamu,NA,sd,NA,4,NA,NA,NA,NA,NA,NA,NA,NA,NA,NA,NA,NA,NA,NA,NA,NA,NA,NA,NA
d3caa,"""Falsch""-Screen",canvas.Screen,3_0_4_0_7_1_2,NA,NA,timeout,4999.8,567547,567540.4,567546.94,572530.08,572530,2023-06-13T11:56:05Z,572546.74,NULL,Polizist,msongora,s,simanzi,mandhari,nidhamu,NA,sd,0,4,NA,NA,NA,NA,NA,NA,NA,NA,NA,NA,NA,NA,NA,NA,NA,NA,NA,NA,NA
d3caa,shallow,flow.Sequence,3_0_4_0_7_1,NA,NA,completion,9749.86,562770,562763.52,562780.22,572530.08,572531,2023-06-13T11:56:05Z,572546.74,NULL,Polizist,msongora,s,simanzi,mandhari,nidhamu,NA,sd,NA,4,NA,NA,NA,NA,NA,NA,NA,NA,NA,NA,NA,NA,NA,NA,NA,NA,NA,NA,NA
d3caa,task,flow.Sequence,3_0_4_0_7,NA,NA,completion,9749.86,562770,562763.52,562780.22,572530.08,572532,2023-06-13T11:56:05Z,572546.74,NULL,Polizist,msongora,s,simanzi,mandhari,nidhamu,NA,sd,NA,4,NA,NA,NA,NA,NA,NA,NA,NA,NA,NA,NA,NA,NA,NA,NA,NA,NA,NA,NA
d3caa,block,flow.Loop,3_0_4_0,NA,NA,completion,80825.72,491704,491704.2,491704.36,572530.08,572532,2023-06-13T11:56:05Z,572546.74,NULL,NA,NA,NA,NA,NA,NA,NA,sd,NA,4,NA,NA,NA,NA,NA,NA,NA,NA,NA,NA,NA,NA,NA,NA,NA,NA,NA,NA,NA
d3caa,weiter,canvas.Screen,3_0_4_1,sdf,keypress(Space),response,824.26000000001,572532,572530.08,572546.74,573371,573379,2023-06-13T11:56:05Z,573417.34,NULL,NA,NA,NA,NA,NA,NA,NA,sd,NA,4,NA,NA,NA,NA,NA,NA,NA,NA,NA,NA,NA,NA,NA,NA,NA,NA,NA,NA,NA
d3caa,check continue,flow.Sequence,3_0_4,NA,NA,completion,81666.64,491704,491704.2,491704.36,573371,573379,2023-06-13T11:56:05Z,573417.34,NULL,NA,NA,NA,NA,NA,NA,NA,sd,NA,4,NA,NA,NA,NA,NA,NA,NA,NA,NA,NA,NA,NA,NA,NA,NA,NA,NA,NA,NA
d3caa,Deep Question,html.Page,3_0_5_0_0_0_0,NA,NA,form submission,4820.66,573417,573417.22,573417.34,578238,578239,2023-06-13T11:56:10Z,578246.8,NULL,Verzögerung,kuchelewa,d,NA,NA,NA,kuchelewa,NA,NA,5,NA,NA,NA,NA,NA,NA,NA,NA,NA,NA,NA,NA,NA,NA,NA,NA,NA,NA,NA
d3caa,"""Richtig""-Screen",canvas.Screen,3_0_5_0_0_0_1,NA,NA,timeout,4998.98,578241,578235.14,578246.8,583230.08,583231,2023-06-13T11:56:15Z,583245.78,NULL,Verzögerung,kuchelewa,d,NA,NA,NA,NA,sdf,1,5,NA,NA,NA,NA,NA,NA,NA,NA,NA,NA,NA,NA,NA,NA,NA,NA,NA,NA,NA
d3caa,"""Falsch""-Screen",canvas.Screen,3_0_5_0_0_0_2,NA,NA,skipped,NA,583236,NA,NA,583230.08,583236,2023-06-13T11:56:15Z,583245.78,NULL,Verzögerung,kuchelewa,d,NA,NA,NA,NA,sdf,NA,5,NA,NA,NA,NA,NA,NA,NA,NA,NA,NA,NA,NA,NA,NA,NA,NA,NA,NA,NA
d3caa,deep,flow.Sequence,3_0_5_0_0_0,NA,NA,completion,9812.74,573417,573417.22,573417.34,583230.08,583236,2023-06-13T11:56:15Z,583245.78,NULL,Verzögerung,kuchelewa,d,NA,NA,NA,NA,sdf,NA,5,NA,NA,NA,NA,NA,NA,NA,NA,NA,NA,NA,NA,NA,NA,NA,NA,NA,NA,NA
d3caa,shallow,flow.Sequence,3_0_5_0_0_1,NA,NA,skipped,NA,583236,NA,NA,583230.08,583236,2023-06-13T11:56:15Z,583245.78,NULL,Verzögerung,kuchelewa,d,NA,NA,NA,NA,sdf,NA,5,NA,NA,NA,NA,NA,NA,NA,NA,NA,NA,NA,NA,NA,NA,NA,NA,NA,NA,NA
d3caa,task,flow.Sequence,3_0_5_0_0,NA,NA,completion,9812.74,573417,573417.22,573417.34,583230.08,583236,2023-06-13T11:56:15Z,583245.78,NULL,Verzögerung,kuchelewa,d,NA,NA,NA,NA,sdf,NA,5,NA,NA,NA,NA,NA,NA,NA,NA,NA,NA,NA,NA,NA,NA,NA,NA,NA,NA,NA
d3caa,Deep Question,html.Page,3_0_5_0_1_0_0,NA,NA,form submission,8421.22,583236,583230.08,583245.78,591667,591667,2023-06-13T11:56:24Z,591679.74,NULL,Kultur,utamaduni,d,NA,NA,NA,maegesho,NA,NA,5,NA,NA,NA,NA,NA,NA,NA,NA,NA,NA,NA,NA,NA,NA,NA,NA,NA,NA,NA
d3caa,"""Richtig""-Screen",canvas.Screen,3_0_5_0_1_0_1,NA,NA,skipped,NA,591669,NA,NA,591667,591669,2023-06-13T11:56:24Z,591679.74,NULL,Kultur,utamaduni,d,NA,NA,NA,NA,sdf,NA,5,NA,NA,NA,NA,NA,NA,NA,NA,NA,NA,NA,NA,NA,NA,NA,NA,NA,NA,NA
d3caa,"""Falsch""-Screen",canvas.Screen,3_0_5_0_1_0_2,NA,NA,timeout,5000.04,591672,591661.82,591679.74,596663.1,596663,2023-06-13T11:56:29Z,596679.78,NULL,Kultur,utamaduni,d,NA,NA,NA,NA,sdf,0,5,NA,NA,NA,NA,NA,NA,NA,NA,NA,NA,NA,NA,NA,NA,NA,NA,NA,NA,NA
d3caa,deep,flow.Sequence,3_0_5_0_1_0,NA,NA,completion,13417.32,583236,583230.08,583245.78,596663.1,596664,2023-06-13T11:56:29Z,596679.78,NULL,Kultur,utamaduni,d,NA,NA,NA,NA,sdf,NA,5,NA,NA,NA,NA,NA,NA,NA,NA,NA,NA,NA,NA,NA,NA,NA,NA,NA,NA,NA
d3caa,shallow,flow.Sequence,3_0_5_0_1_1,NA,NA,skipped,NA,596664,NA,NA,596663.1,596664,2023-06-13T11:56:29Z,596679.78,NULL,Kultur,utamaduni,d,NA,NA,NA,NA,sdf,NA,5,NA,NA,NA,NA,NA,NA,NA,NA,NA,NA,NA,NA,NA,NA,NA,NA,NA,NA,NA
d3caa,task,flow.Sequence,3_0_5_0_1,NA,NA,completion,13417.32,583236,583230.08,583245.78,596663.1,596664,2023-06-13T11:56:29Z,596679.78,NULL,Kultur,utamaduni,d,NA,NA,NA,NA,sdf,NA,5,NA,NA,NA,NA,NA,NA,NA,NA,NA,NA,NA,NA,NA,NA,NA,NA,NA,NA,NA
d3caa,deep,flow.Sequence,3_0_5_0_2_0,NA,NA,skipped,NA,596664,NA,NA,596663.1,596664,2023-06-13T11:56:29Z,596679.78,NULL,Aufstand,ugomaji,s,mazidio,msingi,kujieleza,NA,sdf,NA,5,NA,NA,NA,NA,NA,NA,NA,NA,NA,NA,NA,NA,NA,NA,NA,NA,NA,NA,NA
d3caa,Shallow Question,html.Page,3_0_5_0_2_1_0,NA,NA,form submission,5450.22,596664,596663.1,596679.78,602130,602131,2023-06-13T11:56:34Z,602129.84,NULL,Aufstand,ugomaji,s,mazidio,msingi,kujieleza,ugomaji,NA,NA,5,NA,NA,NA,NA,NA,NA,NA,NA,NA,NA,NA,NA,NA,NA,NA,NA,NA,NA,NA
d3caa,"""Richtig""-Screen",canvas.Screen,3_0_5_0_2_1_1,NA,NA,timeout,4999.8,602133,602127.16,602129.84,607112.98,607114,2023-06-13T11:56:39Z,607129.64,NULL,Aufstand,ugomaji,s,mazidio,msingi,kujieleza,NA,sdf,1,5,NA,NA,NA,NA,NA,NA,NA,NA,NA,NA,NA,NA,NA,NA,NA,NA,NA,NA,NA
d3caa,"""Falsch""-Screen",canvas.Screen,3_0_5_0_2_1_2,NA,NA,skipped,NA,607117,NA,NA,607112.98,607117,2023-06-13T11:56:39Z,607129.64,NULL,Aufstand,ugomaji,s,mazidio,msingi,kujieleza,NA,sdf,NA,5,NA,NA,NA,NA,NA,NA,NA,NA,NA,NA,NA,NA,NA,NA,NA,NA,NA,NA,NA
d3caa,shallow,flow.Sequence,3_0_5_0_2_1,NA,NA,completion,10433.2,596664,596663.1,596679.78,607112.98,607118,2023-06-13T11:56:39Z,607129.64,NULL,Aufstand,ugomaji,s,mazidio,msingi,kujieleza,NA,sdf,NA,5,NA,NA,NA,NA,NA,NA,NA,NA,NA,NA,NA,NA,NA,NA,NA,NA,NA,NA,NA
d3caa,task,flow.Sequence,3_0_5_0_2,NA,NA,completion,10433.2,596664,596663.1,596679.78,607112.98,607118,2023-06-13T11:56:39Z,607129.64,NULL,Aufstand,ugomaji,s,mazidio,msingi,kujieleza,NA,sdf,NA,5,NA,NA,NA,NA,NA,NA,NA,NA,NA,NA,NA,NA,NA,NA,NA,NA,NA,NA,NA
d3caa,Deep Question,html.Page,3_0_5_0_3_0_0,NA,NA,form submission,4387.36,607118,607112.98,607129.64,611517,611517,2023-06-13T11:56:43Z,611513.04,NULL,Sympathie,mapendano,d,NA,NA,NA,mapendano,NA,NA,5,NA,NA,NA,NA,NA,NA,NA,NA,NA,NA,NA,NA,NA,NA,NA,NA,NA,NA,NA
d3caa,"""Richtig""-Screen",canvas.Screen,3_0_5_0_3_0_1,NA,NA,timeout,4999.8199999999,611520,611512.94,611513.04,616496.18,616497,2023-06-13T11:56:48Z,616512.86,NULL,Sympathie,mapendano,d,NA,NA,NA,NA,sdf,1,5,NA,NA,NA,NA,NA,NA,NA,NA,NA,NA,NA,NA,NA,NA,NA,NA,NA,NA,NA
d3caa,"""Falsch""-Screen",canvas.Screen,3_0_5_0_3_0_2,NA,NA,skipped,NA,616500,NA,NA,616496.18,616500,2023-06-13T11:56:48Z,616512.86,NULL,Sympathie,mapendano,d,NA,NA,NA,NA,sdf,NA,5,NA,NA,NA,NA,NA,NA,NA,NA,NA,NA,NA,NA,NA,NA,NA,NA,NA,NA,NA
d3caa,deep,flow.Sequence,3_0_5_0_3_0,NA,NA,completion,9366.54,607118,607112.98,607129.64,616496.18,616500,2023-06-13T11:56:48Z,616512.86,NULL,Sympathie,mapendano,d,NA,NA,NA,NA,sdf,NA,5,NA,NA,NA,NA,NA,NA,NA,NA,NA,NA,NA,NA,NA,NA,NA,NA,NA,NA,NA
d3caa,shallow,flow.Sequence,3_0_5_0_3_1,NA,NA,skipped,NA,616501,NA,NA,616496.18,616501,2023-06-13T11:56:48Z,616512.86,NULL,Sympathie,mapendano,d,NA,NA,NA,NA,sdf,NA,5,NA,NA,NA,NA,NA,NA,NA,NA,NA,NA,NA,NA,NA,NA,NA,NA,NA,NA,NA
d3caa,task,flow.Sequence,3_0_5_0_3,NA,NA,completion,9366.54,607118,607112.98,607129.64,616496.18,616501,2023-06-13T11:56:48Z,616512.86,NULL,Sympathie,mapendano,d,NA,NA,NA,NA,sdf,NA,5,NA,NA,NA,NA,NA,NA,NA,NA,NA,NA,NA,NA,NA,NA,NA,NA,NA,NA,NA
d3caa,deep,flow.Sequence,3_0_5_0_4_0,NA,NA,skipped,NA,616501,NA,NA,616496.18,616501,2023-06-13T11:56:48Z,616512.86,NULL,Prüfung,mtihani,s,mkulima,mtizamo,ufumbuzi,NA,sdf,NA,5,NA,NA,NA,NA,NA,NA,NA,NA,NA,NA,NA,NA,NA,NA,NA,NA,NA,NA,NA
d3caa,Shallow Question,html.Page,3_0_5_0_4_1_0,NA,NA,form submission,5193.14,616501,616496.18,616512.86,621706,621706,2023-06-13T11:56:54Z,621712.92,NULL,Prüfung,mtihani,s,mkulima,mtizamo,ufumbuzi,mtihani,NA,NA,5,NA,NA,NA,NA,NA,NA,NA,NA,NA,NA,NA,NA,NA,NA,NA,NA,NA,NA,NA
d3caa,"""Richtig""-Screen",canvas.Screen,3_0_5_0_4_1_1,NA,NA,timeout,4999.0199999999,621709,621703.74,621712.92,626696.14,626696,2023-06-13T11:56:59Z,626711.94,NULL,Prüfung,mtihani,s,mkulima,mtizamo,ufumbuzi,NA,sdf,1,5,NA,NA,NA,NA,NA,NA,NA,NA,NA,NA,NA,NA,NA,NA,NA,NA,NA,NA,NA
d3caa,"""Falsch""-Screen",canvas.Screen,3_0_5_0_4_1_2,NA,NA,skipped,NA,626699,NA,NA,626696.14,626699,2023-06-13T11:56:59Z,626711.94,NULL,Prüfung,mtihani,s,mkulima,mtizamo,ufumbuzi,NA,sdf,NA,5,NA,NA,NA,NA,NA,NA,NA,NA,NA,NA,NA,NA,NA,NA,NA,NA,NA,NA,NA
d3caa,shallow,flow.Sequence,3_0_5_0_4_1,NA,NA,completion,10183.28,616501,616496.18,616512.86,626696.14,626700,2023-06-13T11:56:59Z,626711.94,NULL,Prüfung,mtihani,s,mkulima,mtizamo,ufumbuzi,NA,sdf,NA,5,NA,NA,NA,NA,NA,NA,NA,NA,NA,NA,NA,NA,NA,NA,NA,NA,NA,NA,NA
d3caa,task,flow.Sequence,3_0_5_0_4,NA,NA,completion,10183.28,616501,616496.18,616512.86,626696.14,626700,2023-06-13T11:56:59Z,626711.94,NULL,Prüfung,mtihani,s,mkulima,mtizamo,ufumbuzi,NA,sdf,NA,5,NA,NA,NA,NA,NA,NA,NA,NA,NA,NA,NA,NA,NA,NA,NA,NA,NA,NA,NA
d3caa,deep,flow.Sequence,3_0_5_0_5_0,NA,NA,skipped,NA,626700,NA,NA,626696.14,626700,2023-06-13T11:56:59Z,626711.94,NULL,Polizist,msongora,s,simanzi,mandhari,nidhamu,NA,sdf,NA,5,NA,NA,NA,NA,NA,NA,NA,NA,NA,NA,NA,NA,NA,NA,NA,NA,NA,NA,NA
d3caa,Shallow Question,html.Page,3_0_5_0_5_1_0,NA,NA,form submission,5588.0600000001,626700,626696.14,626711.94,632300,632301,2023-06-13T11:57:04Z,632312.78,NULL,Polizist,msongora,s,simanzi,mandhari,nidhamu,msongora,NA,NA,5,NA,NA,NA,NA,NA,NA,NA,NA,NA,NA,NA,NA,NA,NA,NA,NA,NA,NA,NA
d3caa,"""Richtig""-Screen",canvas.Screen,3_0_5_0_5_1_1,NA,NA,timeout,4999.84,632301,632298.5,632312.78,637295.92,637297,2023-06-13T11:57:09Z,637312.62,NULL,Polizist,msongora,s,simanzi,mandhari,nidhamu,NA,sdf,1,5,NA,NA,NA,NA,NA,NA,NA,NA,NA,NA,NA,NA,NA,NA,NA,NA,NA,NA,NA
d3caa,"""Falsch""-Screen",canvas.Screen,3_0_5_0_5_1_2,NA,NA,skipped,NA,637299,NA,NA,637295.92,637300,2023-06-13T11:57:09Z,637312.62,NULL,Polizist,msongora,s,simanzi,mandhari,nidhamu,NA,sdf,NA,5,NA,NA,NA,NA,NA,NA,NA,NA,NA,NA,NA,NA,NA,NA,NA,NA,NA,NA,NA
d3caa,shallow,flow.Sequence,3_0_5_0_5_1,NA,NA,completion,10583.98,626700,626696.14,626711.94,637295.92,637300,2023-06-13T11:57:09Z,637312.62,NULL,Polizist,msongora,s,simanzi,mandhari,nidhamu,NA,sdf,NA,5,NA,NA,NA,NA,NA,NA,NA,NA,NA,NA,NA,NA,NA,NA,NA,NA,NA,NA,NA
d3caa,task,flow.Sequence,3_0_5_0_5,NA,NA,completion,10583.98,626700,626696.14,626711.94,637295.92,637300,2023-06-13T11:57:09Z,637312.62,NULL,Polizist,msongora,s,simanzi,mandhari,nidhamu,NA,sdf,NA,5,NA,NA,NA,NA,NA,NA,NA,NA,NA,NA,NA,NA,NA,NA,NA,NA,NA,NA,NA
d3caa,deep,flow.Sequence,3_0_5_0_6_0,NA,NA,skipped,NA,637300,NA,NA,637295.92,637300,2023-06-13T11:57:09Z,637312.62,NULL,Beweis,ushahidi,s,marudio,kizuizi,mtendaji,NA,sdf,NA,5,NA,NA,NA,NA,NA,NA,NA,NA,NA,NA,NA,NA,NA,NA,NA,NA,NA,NA,NA
d3caa,Shallow Question,html.Page,3_0_5_0_6_1_0,NA,NA,form submission,5844.38,637300,637295.92,637312.62,643157,643158,2023-06-13T11:57:15Z,643161.96,NULL,Beweis,ushahidi,s,marudio,kizuizi,mtendaji,ushahidi,NA,NA,5,NA,NA,NA,NA,NA,NA,NA,NA,NA,NA,NA,NA,NA,NA,NA,NA,NA,NA,NA
d3caa,"""Richtig""-Screen",canvas.Screen,3_0_5_0_6_1_1,NA,NA,timeout,5000.42,643166,643151.06,643161.96,648145.78,648146,2023-06-13T11:57:20Z,648162.38,NULL,Beweis,ushahidi,s,marudio,kizuizi,mtendaji,NA,sdf,1,5,NA,NA,NA,NA,NA,NA,NA,NA,NA,NA,NA,NA,NA,NA,NA,NA,NA,NA,NA
d3caa,"""Falsch""-Screen",canvas.Screen,3_0_5_0_6_1_2,NA,NA,skipped,NA,648151,NA,NA,648145.78,648151,2023-06-13T11:57:20Z,648162.38,NULL,Beweis,ushahidi,s,marudio,kizuizi,mtendaji,NA,sdf,NA,5,NA,NA,NA,NA,NA,NA,NA,NA,NA,NA,NA,NA,NA,NA,NA,NA,NA,NA,NA
d3caa,shallow,flow.Sequence,3_0_5_0_6_1,NA,NA,completion,10833.16,637300,637295.92,637312.62,648145.78,648151,2023-06-13T11:57:20Z,648162.38,NULL,Beweis,ushahidi,s,marudio,kizuizi,mtendaji,NA,sdf,NA,5,NA,NA,NA,NA,NA,NA,NA,NA,NA,NA,NA,NA,NA,NA,NA,NA,NA,NA,NA
d3caa,task,flow.Sequence,3_0_5_0_6,NA,NA,completion,10833.16,637300,637295.92,637312.62,648145.78,648152,2023-06-13T11:57:20Z,648162.38,NULL,Beweis,ushahidi,s,marudio,kizuizi,mtendaji,NA,sdf,NA,5,NA,NA,NA,NA,NA,NA,NA,NA,NA,NA,NA,NA,NA,NA,NA,NA,NA,NA,NA
d3caa,Deep Question,html.Page,3_0_5_0_7_0_0,NA,NA,form submission,9245.62,648152,648145.78,648162.38,657408,657409,2023-06-13T11:57:29Z,657412.46,NULL,Annäherung,maegesho,d,NA,NA,NA,maegesha,NA,NA,5,NA,NA,NA,NA,NA,NA,NA,NA,NA,NA,NA,NA,NA,NA,NA,NA,NA,NA,NA
d3caa,"""Richtig""-Screen",canvas.Screen,3_0_5_0_7_0_1,NA,NA,skipped,NA,657411,NA,NA,657408,657411,2023-06-13T11:57:29Z,657412.46,NULL,Annäherung,maegesho,d,NA,NA,NA,NA,sdf,NA,5,NA,NA,NA,NA,NA,NA,NA,NA,NA,NA,NA,NA,NA,NA,NA,NA,NA,NA,NA
d3caa,"""Falsch""-Screen",canvas.Screen,3_0_5_0_7_0_2,NA,NA,timeout,4999.8400000001,657413,657404.34,657412.46,662395.6,662397,2023-06-13T11:57:34Z,662412.3,NULL,Annäherung,maegesho,d,NA,NA,NA,NA,sdf,0,5,NA,NA,NA,NA,NA,NA,NA,NA,NA,NA,NA,NA,NA,NA,NA,NA,NA,NA,NA
d3caa,deep,flow.Sequence,3_0_5_0_7_0,NA,NA,completion,14233.22,648152,648145.78,648162.38,662395.6,662397,2023-06-13T11:57:34Z,662412.3,NULL,Annäherung,maegesho,d,NA,NA,NA,NA,sdf,NA,5,NA,NA,NA,NA,NA,NA,NA,NA,NA,NA,NA,NA,NA,NA,NA,NA,NA,NA,NA
d3caa,shallow,flow.Sequence,3_0_5_0_7_1,NA,NA,skipped,NA,662397,NA,NA,662395.6,662397,2023-06-13T11:57:34Z,662412.3,NULL,Annäherung,maegesho,d,NA,NA,NA,NA,sdf,NA,5,NA,NA,NA,NA,NA,NA,NA,NA,NA,NA,NA,NA,NA,NA,NA,NA,NA,NA,NA
d3caa,task,flow.Sequence,3_0_5_0_7,NA,NA,completion,14233.22,648152,648145.78,648162.38,662395.6,662398,2023-06-13T11:57:34Z,662412.3,NULL,Annäherung,maegesho,d,NA,NA,NA,NA,sdf,NA,5,NA,NA,NA,NA,NA,NA,NA,NA,NA,NA,NA,NA,NA,NA,NA,NA,NA,NA,NA
d3caa,block,flow.Loop,3_0_5_0,NA,NA,completion,88978.26,573417,573417.22,573417.34,662395.6,662398,2023-06-13T11:57:34Z,662412.3,NULL,NA,NA,NA,NA,NA,NA,NA,sdf,NA,5,NA,NA,NA,NA,NA,NA,NA,NA,NA,NA,NA,NA,NA,NA,NA,NA,NA,NA,NA
d3caa,weiter,canvas.Screen,3_0_5_1,sdf,keypress(Space),response,869.69999999995,662398,662395.6,662412.3,663282,663288,2023-06-13T11:57:35Z,663559.98,NULL,NA,NA,NA,NA,NA,NA,NA,sdf,NA,5,NA,NA,NA,NA,NA,NA,NA,NA,NA,NA,NA,NA,NA,NA,NA,NA,NA,NA,NA
d3caa,check continue,flow.Sequence,3_0_5,NA,NA,completion,89864.66,573417,573417.22,573417.34,663282,663289,2023-06-13T11:57:35Z,663559.98,NULL,NA,NA,NA,NA,NA,NA,NA,sdf,NA,5,NA,NA,NA,NA,NA,NA,NA,NA,NA,NA,NA,NA,NA,NA,NA,NA,NA,NA,NA
d3caa,check continue,flow.Sequence,3_0_6,NA,NA,skipped,NA,663327,NA,NA,663282,663327,2023-06-13T11:57:35Z,663559.98,NULL,NA,NA,NA,NA,NA,NA,NA,dfs,NA,6,NA,NA,NA,NA,NA,NA,NA,NA,NA,NA,NA,NA,NA,NA,NA,NA,NA,NA,NA
d3caa,check continue,flow.Sequence,3_0_7,NA,NA,skipped,NA,663344,NA,NA,663282,663344,2023-06-13T11:57:35Z,663559.98,NULL,NA,NA,NA,NA,NA,NA,NA,df,NA,7,NA,NA,NA,NA,NA,NA,NA,NA,NA,NA,NA,NA,NA,NA,NA,NA,NA,NA,NA
d3caa,check continue,flow.Sequence,3_0_8,NA,NA,skipped,NA,663356,NA,NA,663282,663356,2023-06-13T11:57:35Z,663559.98,NULL,NA,NA,NA,NA,NA,NA,NA,dfs,NA,8,NA,NA,NA,NA,NA,NA,NA,NA,NA,NA,NA,NA,NA,NA,NA,NA,NA,NA,NA
d3caa,check continue,flow.Sequence,3_0_9,NA,NA,skipped,NA,663368,NA,NA,663282,663368,2023-06-13T11:57:35Z,663559.98,NULL,NA,NA,NA,NA,NA,NA,NA,dsf,NA,9,NA,NA,NA,NA,NA,NA,NA,NA,NA,NA,NA,NA,NA,NA,NA,NA,NA,NA,NA
d3caa,check continue,flow.Sequence,3_0_10,NA,NA,skipped,NA,663379,NA,NA,663282,663379,2023-06-13T11:57:35Z,663559.98,NULL,NA,NA,NA,NA,NA,NA,NA,df,NA,10,NA,NA,NA,NA,NA,NA,NA,NA,NA,NA,NA,NA,NA,NA,NA,NA,NA,NA,NA
d3caa,check continue,flow.Sequence,3_0_11,NA,NA,skipped,NA,663388,NA,NA,663282,663388,2023-06-13T11:57:35Z,663559.98,NULL,NA,NA,NA,NA,NA,NA,NA,dfs,NA,11,NA,NA,NA,NA,NA,NA,NA,NA,NA,NA,NA,NA,NA,NA,NA,NA,NA,NA,NA
d3caa,check continue,flow.Sequence,3_0_12,NA,NA,skipped,NA,663398,NA,NA,663282,663398,2023-06-13T11:57:35Z,663559.98,NULL,NA,NA,NA,NA,NA,NA,NA,dsf,NA,12,NA,NA,NA,NA,NA,NA,NA,NA,NA,NA,NA,NA,NA,NA,NA,NA,NA,NA,NA
d3caa,check continue,flow.Sequence,3_0_13,NA,NA,skipped,NA,663407,NA,NA,663282,663407,2023-06-13T11:57:35Z,663559.98,NULL,NA,NA,NA,NA,NA,NA,NA,dsf,NA,13,NA,NA,NA,NA,NA,NA,NA,NA,NA,NA,NA,NA,NA,NA,NA,NA,NA,NA,NA
d3caa,check continue,flow.Sequence,3_0_14,NA,NA,skipped,NA,663417,NA,NA,663282,663417,2023-06-13T11:57:35Z,663559.98,NULL,NA,NA,NA,NA,NA,NA,NA,NA,NA,14,NA,NA,NA,NA,NA,NA,NA,NA,NA,NA,NA,NA,NA,NA,NA,NA,NA,NA,NA
d3caa,check continue,flow.Sequence,3_0_15,NA,NA,skipped,NA,663425,NA,NA,663282,663425,2023-06-13T11:57:35Z,663559.98,NULL,NA,NA,NA,NA,NA,NA,NA,NA,NA,15,NA,NA,NA,NA,NA,NA,NA,NA,NA,NA,NA,NA,NA,NA,NA,NA,NA,NA,NA
d3caa,check continue,flow.Sequence,3_0_16,NA,NA,skipped,NA,663435,NA,NA,663282,663435,2023-06-13T11:57:35Z,663559.98,NULL,NA,NA,NA,NA,NA,NA,NA,NA,NA,16,NA,NA,NA,NA,NA,NA,NA,NA,NA,NA,NA,NA,NA,NA,NA,NA,NA,NA,NA
d3caa,check continue,flow.Sequence,3_0_17,NA,NA,skipped,NA,663444,NA,NA,663282,663444,2023-06-13T11:57:35Z,663559.98,NULL,NA,NA,NA,NA,NA,NA,NA,NA,NA,17,NA,NA,NA,NA,NA,NA,NA,NA,NA,NA,NA,NA,NA,NA,NA,NA,NA,NA,NA
d3caa,check continue,flow.Sequence,3_0_18,NA,NA,skipped,NA,663452,NA,NA,663282,663452,2023-06-13T11:57:35Z,663559.98,NULL,NA,NA,NA,NA,NA,NA,NA,NA,NA,18,NA,NA,NA,NA,NA,NA,NA,NA,NA,NA,NA,NA,NA,NA,NA,NA,NA,NA,NA
d3caa,check continue,flow.Sequence,3_0_19,NA,NA,skipped,NA,663462,NA,NA,663282,663462,2023-06-13T11:57:35Z,663559.98,NULL,NA,NA,NA,NA,NA,NA,NA,NA,NA,19,NA,NA,NA,NA,NA,NA,NA,NA,NA,NA,NA,NA,NA,NA,NA,NA,NA,NA,NA
d3caa,check continue,flow.Sequence,3_0_20,NA,NA,skipped,NA,663470,NA,NA,663282,663470,2023-06-13T11:57:35Z,663559.98,NULL,NA,NA,NA,NA,NA,NA,NA,NA,NA,20,NA,NA,NA,NA,NA,NA,NA,NA,NA,NA,NA,NA,NA,NA,NA,NA,NA,NA,NA
d3caa,check continue,flow.Sequence,3_0_21,NA,NA,skipped,NA,663480,NA,NA,663282,663480,2023-06-13T11:57:35Z,663559.98,NULL,NA,NA,NA,NA,NA,NA,NA,NA,NA,21,NA,NA,NA,NA,NA,NA,NA,NA,NA,NA,NA,NA,NA,NA,NA,NA,NA,NA,NA
d3caa,check continue,flow.Sequence,3_0_22,NA,NA,skipped,NA,663488,NA,NA,663282,663488,2023-06-13T11:57:35Z,663559.98,NULL,NA,NA,NA,NA,NA,NA,NA,NA,NA,22,NA,NA,NA,NA,NA,NA,NA,NA,NA,NA,NA,NA,NA,NA,NA,NA,NA,NA,NA
d3caa,check continue,flow.Sequence,3_0_23,NA,NA,skipped,NA,663497,NA,NA,663282,663497,2023-06-13T11:57:35Z,663559.98,NULL,NA,NA,NA,NA,NA,NA,NA,NA,NA,23,NA,NA,NA,NA,NA,NA,NA,NA,NA,NA,NA,NA,NA,NA,NA,NA,NA,NA,NA
d3caa,check continue,flow.Sequence,3_0_24,NA,NA,skipped,NA,663507,NA,NA,663282,663507,2023-06-13T11:57:35Z,663559.98,NULL,NA,NA,NA,NA,NA,NA,NA,NA,NA,24,NA,NA,NA,NA,NA,NA,NA,NA,NA,NA,NA,NA,NA,NA,NA,NA,NA,NA,NA
d3caa,check continue,flow.Sequence,3_0_25,NA,NA,skipped,NA,663515,NA,NA,663282,663515,2023-06-13T11:57:35Z,663559.98,NULL,NA,NA,NA,NA,NA,NA,NA,NA,NA,25,NA,NA,NA,NA,NA,NA,NA,NA,NA,NA,NA,NA,NA,NA,NA,NA,NA,NA,NA
d3caa,check continue,flow.Sequence,3_0_26,NA,NA,skipped,NA,663524,NA,NA,663282,663524,2023-06-13T11:57:36Z,663559.98,NULL,NA,NA,NA,NA,NA,NA,NA,NA,NA,26,NA,NA,NA,NA,NA,NA,NA,NA,NA,NA,NA,NA,NA,NA,NA,NA,NA,NA,NA
d3caa,check continue,flow.Sequence,3_0_27,NA,NA,skipped,NA,663540,NA,NA,663282,663540,2023-06-13T11:57:36Z,663559.98,NULL,NA,NA,NA,NA,NA,NA,NA,NA,NA,27,NA,NA,NA,NA,NA,NA,NA,NA,NA,NA,NA,NA,NA,NA,NA,NA,NA,NA,NA
d3caa,check continue,flow.Sequence,3_0_28,NA,NA,skipped,NA,663548,NA,NA,663282,663548,2023-06-13T11:57:36Z,663559.98,NULL,NA,NA,NA,NA,NA,NA,NA,NA,NA,28,NA,NA,NA,NA,NA,NA,NA,NA,NA,NA,NA,NA,NA,NA,NA,NA,NA,NA,NA
d3caa,check continue,flow.Sequence,3_0_29,NA,NA,skipped,NA,663560,NA,NA,663282,663560,2023-06-13T11:57:36Z,663559.98,NULL,NA,NA,NA,NA,NA,NA,NA,NA,NA,29,NA,NA,NA,NA,NA,NA,NA,NA,NA,NA,NA,NA,NA,NA,NA,NA,NA,NA,NA
d3caa,until continue,flow.Loop,3_0,NA,NA,completion,524599.98,138664,138681.92,138682.02,663282,663560,2023-06-13T11:57:36Z,663559.98,NULL,NA,NA,NA,NA,NA,NA,NA,NA,NA,NA,NA,NA,NA,NA,NA,NA,NA,NA,NA,NA,NA,NA,NA,NA,NA,NA,NA,NA,NA
d3caa,block 1,flow.Sequence,3,NA,NA,completion,524599.98,138664,138681.92,138682.02,663282,663560,2023-06-13T11:57:36Z,663559.98,NULL,NA,NA,NA,NA,NA,NA,NA,NA,NA,NA,NA,NA,NA,NA,NA,NA,NA,NA,NA,NA,NA,NA,NA,NA,NA,NA,NA,NA,NA
d3caa,1.Part Over,canvas.Screen,4,NA,keypress(Space),response,1535.02,663560,663559.84,663559.98,665095,665101,2023-06-13T11:57:37Z,665146.54,NULL,NA,NA,NA,NA,NA,NA,NA,NA,NA,NA,NA,NA,NA,NA,NA,NA,NA,NA,NA,NA,NA,NA,NA,NA,NA,NA,NA,NA,NA
d3caa,deep,flow.Sequence,5_0_0_0_0_0,NA,NA,skipped,NA,665147,NA,NA,665095,665147,2023-06-13T11:57:37Z,665146.54,NULL,Sänger,mwimbaji,s,msichana,shughuli,mshirika,NA,sdf,NA,0,NA,NA,NA,NA,NA,NA,NA,NA,NA,NA,NA,NA,NA,NA,NA,NA,NA,NA,NA
d3caa,Shallow Question,html.Page,5_0_0_0_0_1_0,NA,NA,form submission,7316.46,665147,665146.42,665146.54,672463,672464,2023-06-13T11:57:44Z,672462.26,NULL,Sänger,mwimbaji,s,msichana,shughuli,mshirika,mwimbaji,NA,NA,0,NA,NA,NA,NA,NA,NA,NA,NA,NA,NA,NA,NA,NA,NA,NA,NA,NA,NA,NA
d3caa,"""Richtig""-Screen",canvas.Screen,5_0_0_0_0_1_1,NA,NA,timeout,4998.92,672466,672458.2,672462.26,677445.44,677446,2023-06-13T11:57:49Z,677461.18,NULL,Sänger,mwimbaji,s,msichana,shughuli,mshirika,NA,sdf,1,0,NA,NA,NA,NA,NA,NA,NA,NA,NA,NA,NA,NA,NA,NA,NA,NA,NA,NA,NA
d3caa,"""Falsch""-Screen",canvas.Screen,5_0_0_0_0_1_2,NA,NA,skipped,NA,677449,NA,NA,677445.44,677449,2023-06-13T11:57:49Z,677461.18,NULL,Sänger,mwimbaji,s,msichana,shughuli,mshirika,NA,sdf,NA,0,NA,NA,NA,NA,NA,NA,NA,NA,NA,NA,NA,NA,NA,NA,NA,NA,NA,NA,NA
d3caa,shallow,flow.Sequence,5_0_0_0_0_1,NA,NA,completion,12298.9,665147,665146.42,665146.54,677445.44,677449,2023-06-13T11:57:49Z,677461.18,NULL,Sänger,mwimbaji,s,msichana,shughuli,mshirika,NA,sdf,NA,0,NA,NA,NA,NA,NA,NA,NA,NA,NA,NA,NA,NA,NA,NA,NA,NA,NA,NA,NA
d3caa,task,flow.Sequence,5_0_0_0_0,NA,NA,completion,12298.9,665147,665146.42,665146.54,677445.44,677449,2023-06-13T11:57:49Z,677461.18,NULL,Sänger,mwimbaji,s,msichana,shughuli,mshirika,NA,sdf,NA,0,NA,NA,NA,NA,NA,NA,NA,NA,NA,NA,NA,NA,NA,NA,NA,NA,NA,NA,NA
d3caa,Deep Question,html.Page,5_0_0_0_1_0_0,NA,NA,form submission,4494.8199999999,677449,677445.44,677461.18,681956,681956,2023-06-13T11:57:54Z,681962.16,NULL,Schönheit,kirembo,d,NA,NA,NA,blu,NA,NA,0,NA,NA,NA,NA,NA,NA,NA,NA,NA,NA,NA,NA,NA,NA,NA,NA,NA,NA,NA
d3caa,"""Richtig""-Screen",canvas.Screen,5_0_0_0_1_0_1,NA,NA,skipped,NA,681958,NA,NA,681956,681958,2023-06-13T11:57:54Z,681962.16,NULL,Schönheit,kirembo,d,NA,NA,NA,NA,sdf,NA,0,NA,NA,NA,NA,NA,NA,NA,NA,NA,NA,NA,NA,NA,NA,NA,NA,NA,NA,NA
d3caa,"""Falsch""-Screen",canvas.Screen,5_0_0_0_1_0_2,NA,NA,timeout,4999.84,681959,681951.4,681962.16,686945.32,686946,2023-06-13T11:57:59Z,686962,NULL,Schönheit,kirembo,d,NA,NA,NA,NA,sdf,0,0,NA,NA,NA,NA,NA,NA,NA,NA,NA,NA,NA,NA,NA,NA,NA,NA,NA,NA,NA
d3caa,deep,flow.Sequence,5_0_0_0_1_0,NA,NA,completion,9484.1399999999,677449,677445.44,677461.18,686945.32,686946,2023-06-13T11:57:59Z,686962,NULL,Schönheit,kirembo,d,NA,NA,NA,NA,sdf,NA,0,NA,NA,NA,NA,NA,NA,NA,NA,NA,NA,NA,NA,NA,NA,NA,NA,NA,NA,NA
d3caa,shallow,flow.Sequence,5_0_0_0_1_1,NA,NA,skipped,NA,686946,NA,NA,686945.32,686946,2023-06-13T11:57:59Z,686962,NULL,Schönheit,kirembo,d,NA,NA,NA,NA,sdf,NA,0,NA,NA,NA,NA,NA,NA,NA,NA,NA,NA,NA,NA,NA,NA,NA,NA,NA,NA,NA
d3caa,task,flow.Sequence,5_0_0_0_1,NA,NA,completion,9484.1399999999,677449,677445.44,677461.18,686945.32,686947,2023-06-13T11:57:59Z,686962,NULL,Schönheit,kirembo,d,NA,NA,NA,NA,sdf,NA,0,NA,NA,NA,NA,NA,NA,NA,NA,NA,NA,NA,NA,NA,NA,NA,NA,NA,NA,NA
d3caa,deep,flow.Sequence,5_0_0_0_2_0,NA,NA,skipped,NA,686947,NA,NA,686945.32,686947,2023-06-13T11:57:59Z,686962,NULL,Auftrag,uagizaji,s,ghanima,kuzingatia,msukani,NA,sdf,NA,0,NA,NA,NA,NA,NA,NA,NA,NA,NA,NA,NA,NA,NA,NA,NA,NA,NA,NA,NA
d3caa,Shallow Question,html.Page,5_0_0_0_2_1_0,NA,NA,form submission,3823,686947,686945.32,686962,690785,690785,2023-06-13T11:58:03Z,690795.38,NULL,Auftrag,uagizaji,s,ghanima,kuzingatia,msukani,kuzingatia,NA,NA,0,NA,NA,NA,NA,NA,NA,NA,NA,NA,NA,NA,NA,NA,NA,NA,NA,NA,NA,NA
d3caa,"""Richtig""-Screen",canvas.Screen,5_0_0_0_2_1_1,NA,NA,skipped,NA,690787,NA,NA,690785,690788,2023-06-13T11:58:03Z,690795.38,NULL,Auftrag,uagizaji,s,ghanima,kuzingatia,msukani,NA,sdf,NA,0,NA,NA,NA,NA,NA,NA,NA,NA,NA,NA,NA,NA,NA,NA,NA,NA,NA,NA,NA
d3caa,"""Falsch""-Screen",canvas.Screen,5_0_0_0_2_1_2,NA,NA,timeout,4999.8199999999,690789,690782.12,690795.38,695778.52,695780,2023-06-13T11:58:08Z,695795.2,NULL,Auftrag,uagizaji,s,ghanima,kuzingatia,msukani,NA,sdf,0,0,NA,NA,NA,NA,NA,NA,NA,NA,NA,NA,NA,NA,NA,NA,NA,NA,NA,NA,NA
d3caa,shallow,flow.Sequence,5_0_0_0_2_1,NA,NA,completion,8816.52,686947,686945.32,686962,695778.52,695780,2023-06-13T11:58:08Z,695795.2,NULL,Auftrag,uagizaji,s,ghanima,kuzingatia,msukani,NA,sdf,NA,0,NA,NA,NA,NA,NA,NA,NA,NA,NA,NA,NA,NA,NA,NA,NA,NA,NA,NA,NA
d3caa,task,flow.Sequence,5_0_0_0_2,NA,NA,completion,8816.52,686947,686945.32,686962,695778.52,695780,2023-06-13T11:58:08Z,695795.2,NULL,Auftrag,uagizaji,s,ghanima,kuzingatia,msukani,NA,sdf,NA,0,NA,NA,NA,NA,NA,NA,NA,NA,NA,NA,NA,NA,NA,NA,NA,NA,NA,NA,NA
d3caa,Deep Question,html.Page,5_0_0_0_3_0_0,NA,NA,form submission,3379.8,695780,695778.52,695795.2,699175,699179,2023-06-13T11:58:11Z,699195.28,NULL,Zufall,kikuti,d,NA,NA,NA,mapa,NA,NA,0,NA,NA,NA,NA,NA,NA,NA,NA,NA,NA,NA,NA,NA,NA,NA,NA,NA,NA,NA
d3caa,"""Richtig""-Screen",canvas.Screen,5_0_0_0_3_0_1,NA,NA,skipped,NA,699186,NA,NA,699175,699186,2023-06-13T11:58:11Z,699195.28,NULL,Zufall,kikuti,d,NA,NA,NA,NA,sdf,NA,0,NA,NA,NA,NA,NA,NA,NA,NA,NA,NA,NA,NA,NA,NA,NA,NA,NA,NA,NA
d3caa,"""Falsch""-Screen",canvas.Screen,5_0_0_0_3_0_2,NA,NA,timeout,4999.8199999999,699188,699167.74,699195.28,704178.4,704179,2023-06-13T11:58:16Z,704195.1,NULL,Zufall,kikuti,d,NA,NA,NA,NA,sdf,0,0,NA,NA,NA,NA,NA,NA,NA,NA,NA,NA,NA,NA,NA,NA,NA,NA,NA,NA,NA
d3caa,deep,flow.Sequence,5_0_0_0_3_0,NA,NA,completion,8383.2000000001,695780,695778.52,695795.2,704178.4,704180,2023-06-13T11:58:16Z,704195.1,NULL,Zufall,kikuti,d,NA,NA,NA,NA,sdf,NA,0,NA,NA,NA,NA,NA,NA,NA,NA,NA,NA,NA,NA,NA,NA,NA,NA,NA,NA,NA
d3caa,shallow,flow.Sequence,5_0_0_0_3_1,NA,NA,skipped,NA,704180,NA,NA,704178.4,704180,2023-06-13T11:58:16Z,704195.1,NULL,Zufall,kikuti,d,NA,NA,NA,NA,sdf,NA,0,NA,NA,NA,NA,NA,NA,NA,NA,NA,NA,NA,NA,NA,NA,NA,NA,NA,NA,NA
d3caa,task,flow.Sequence,5_0_0_0_3,NA,NA,completion,8383.2000000001,695780,695778.52,695795.2,704178.4,704181,2023-06-13T11:58:16Z,704195.1,NULL,Zufall,kikuti,d,NA,NA,NA,NA,sdf,NA,0,NA,NA,NA,NA,NA,NA,NA,NA,NA,NA,NA,NA,NA,NA,NA,NA,NA,NA,NA
d3caa,deep,flow.Sequence,5_0_0_0_4_0,NA,NA,skipped,NA,704181,NA,NA,704178.4,704181,2023-06-13T11:58:16Z,704195.1,NULL,Wettbewerb,ushindani,s,mapendezi,kichocheo,ubaguzi,NA,sdf,NA,0,NA,NA,NA,NA,NA,NA,NA,NA,NA,NA,NA,NA,NA,NA,NA,NA,NA,NA,NA
d3caa,Shallow Question,html.Page,5_0_0_0_4_1_0,NA,NA,form submission,5310.9,704182,704178.4,704195.1,709506,709506,2023-06-13T11:58:21Z,709511.8,NULL,Wettbewerb,ushindani,s,mapendezi,kichocheo,ubaguzi,ubaguzi,NA,NA,0,NA,NA,NA,NA,NA,NA,NA,NA,NA,NA,NA,NA,NA,NA,NA,NA,NA,NA,NA
