observation,sender,sender_type,sender_id,response,response_action,ended_on,duration,time_run,time_render,time_show,time_end,time_commit,timestamp,time_switch,german,swahili,enc,distractor1,distractor2,distractor3,response_2,x,correct,distractors,url_vp,url_sess,meta_labjs_version,meta_location,meta_user_agent,meta_platform,meta_language,meta_locale,meta_time_zone,meta_timezone_offset,meta_screen_width,meta_screen_height,meta_scroll_width,meta_scroll_height,meta_window_inner_width,meta_window_inner_height,meta_device_pixel_ratio,meta_labjs_build_flavor,meta_labjs_build_commit
6aa22,Introduction delayed retrieval,canvas.Screen,0,weiter,keypress(Space),response,21102.355,734.79999999702,152.374,769.645,21872,21888.399999999,2023-05-11T14:02:10Z,21890.323,NA,NA,NA,NA,NA,NA,NA,NA,NA,NULL,214,2,20.2.4,https://neurocog.fernuni.ch/studies/vweber/sfink/delayed/index.html?vp=214&sess=2,"Mozilla/5.0 (Macintosh; Intel Mac OS X 10_15_7) AppleWebKit/537.36 (KHTML, like Gecko) Chrome/113.0.0.0 Safari/537.36",MacIntel,en,en-GB,Europe/Zurich,-120,1920,1080,1773,833,1773,881,1,production,f5b4a49f956347addd546a832a3327688c2c0fef
6aa22,Deep Question,html.Page,1_0_0_0,NA,NA,form submission,15723.876999999,21888.899999999,21873.64,21890.323,37614.199999999,37614.399999999,2023-05-11T14:02:26Z,37622.665,Angreifer,mshambulizi,d,kitengo,tasinia,usafirishaji,mshambulizi,NA,NA,NULL,NA,NA,NA,NA,NA,NA,NA,NA,NA,NA,NA,NA,NA,NA,NA,NA,NA,NA,NA
6aa22,Save data screen,canvas.Screen,1_0_0_1,NA,NA,timeout,500.49,37615.199999999,37605.982,37622.665,38106.472,38113,2023-05-11T14:02:26Z,38123.155,Angreifer,mshambulizi,d,kitengo,tasinia,usafirishaji,NA,NA,1,NULL,NA,NA,NA,NA,NA,NA,NA,NA,NA,NA,NA,NA,NA,NA,NA,NA,NA,NA,NA
6aa22,deep,flow.Sequence,1_0_0,NA,NA,completion,16216.149,21888.899999999,21873.64,21890.323,38106.472,38113.199999999,2023-05-11T14:02:26Z,38123.155,Angreifer,mshambulizi,d,kitengo,tasinia,usafirishaji,NA,NA,NA,NULL,NA,NA,NA,NA,NA,NA,NA,NA,NA,NA,NA,NA,NA,NA,NA,NA,NA,NA,NA
6aa22,task,flow.Sequence,1_0,NA,NA,completion,16216.149,21888.899999999,21873.64,21890.323,38106.472,38113.299999997,2023-05-11T14:02:26Z,38123.155,Angreifer,mshambulizi,d,kitengo,tasinia,usafirishaji,NA,NA,NA,NULL,NA,NA,NA,NA,NA,NA,NA,NA,NA,NA,NA,NA,NA,NA,NA,NA,NA,NA,NA
6aa22,Deep Question,html.Page,1_1_0_0,NA,NA,form submission,13339.944999998,38113.399999999,38106.472,38123.155,51463.099999998,51463.299999997,2023-05-11T14:02:39Z,51476.405,Kontrolle,kudhibiti,s,mbinguni,kufunga,utegemezi,ushandani,NA,NA,NULL,NA,NA,NA,NA,NA,NA,NA,NA,NA,NA,NA,NA,NA,NA,NA,NA,NA,NA,NA
6aa22,Save data screen,canvas.Screen,1_1_0_1,NA,NA,timeout,500.49,51464.099999998,51459.722,51476.405,51960.212,51964.5,2023-05-11T14:02:40Z,51976.895,Kontrolle,kudhibiti,s,mbinguni,kufunga,utegemezi,NA,NA,0,NULL,NA,NA,NA,NA,NA,NA,NA,NA,NA,NA,NA,NA,NA,NA,NA,NA,NA,NA,NA
6aa22,deep,flow.Sequence,1_1_0,NA,NA,completion,13837.057,38113.399999999,38106.472,38123.155,51960.212,51964.599999998,2023-05-11T14:02:40Z,51976.895,Kontrolle,kudhibiti,s,mbinguni,kufunga,utegemezi,NA,NA,NA,NULL,NA,NA,NA,NA,NA,NA,NA,NA,NA,NA,NA,NA,NA,NA,NA,NA,NA,NA,NA
6aa22,task,flow.Sequence,1_1,NA,NA,completion,13837.057,38113.399999999,38106.472,38123.155,51960.212,51964.799999997,2023-05-11T14:02:40Z,51976.895,Kontrolle,kudhibiti,s,mbinguni,kufunga,utegemezi,NA,NA,NA,NULL,NA,NA,NA,NA,NA,NA,NA,NA,NA,NA,NA,NA,NA,NA,NA,NA,NA,NA,NA
6aa22,Deep Question,html.Page,1_2_0_0,NA,NA,form submission,3468.904999997,51964.899999999,51960.212,51976.895,55445.799999997,55446,2023-05-11T14:02:43Z,55452.748,Kanzler,diwani,s,rasilmali,mahitaji,maabudu,diwani,NA,NA,NULL,NA,NA,NA,NA,NA,NA,NA,NA,NA,NA,NA,NA,NA,NA,NA,NA,NA,NA,NA
6aa22,Save data screen,canvas.Screen,1_2_0_1,NA,NA,timeout,500.49,55446.5,55436.065,55452.748,55936.555,55937.5,2023-05-11T14:02:44Z,55953.238,Kanzler,diwani,s,rasilmali,mahitaji,maabudu,NA,NA,1,NULL,NA,NA,NA,NA,NA,NA,NA,NA,NA,NA,NA,NA,NA,NA,NA,NA,NA,NA,NA
6aa22,deep,flow.Sequence,1_2_0,NA,NA,completion,3959.66,51964.899999999,51960.212,51976.895,55936.555,55937.699999999,2023-05-11T14:02:44Z,55953.238,Kanzler,diwani,s,rasilmali,mahitaji,maabudu,NA,NA,NA,NULL,NA,NA,NA,NA,NA,NA,NA,NA,NA,NA,NA,NA,NA,NA,NA,NA,NA,NA,NA
6aa22,task,flow.Sequence,1_2,NA,NA,completion,3959.66,51964.799999997,51960.212,51976.895,55936.555,55937.799999997,2023-05-11T14:02:44Z,55953.238,Kanzler,diwani,s,rasilmali,mahitaji,maabudu,NA,NA,NA,NULL,NA,NA,NA,NA,NA,NA,NA,NA,NA,NA,NA,NA,NA,NA,NA,NA,NA,NA,NA
6aa22,Deep Question,html.Page,1_3_0_0,NA,NA,form submission,22589.961999999,55937.899999999,55936.555,55953.238,78543.199999999,78543.399999999,2023-05-11T14:03:07Z,78548.592,Können,unaweza,d,kiongozi,bustani,mienendo,mwekeli,NA,NA,NULL,NA,NA,NA,NA,NA,NA,NA,NA,NA,NA,NA,NA,NA,NA,NA,NA,NA,NA,NA
6aa22,Save data screen,canvas.Screen,1_3_0_1,NA,NA,timeout,500.48999999999,78552.699999999,78531.909,78548.592,79032.399,79033.899999999,2023-05-11T14:03:07Z,79049.082,Können,unaweza,d,kiongozi,bustani,mienendo,NA,NA,0,NULL,NA,NA,NA,NA,NA,NA,NA,NA,NA,NA,NA,NA,NA,NA,NA,NA,NA,NA,NA
6aa22,deep,flow.Sequence,1_3_0,NA,NA,completion,23079.161,55937.899999999,55936.555,55953.238,79032.399,79034,2023-05-11T14:03:07Z,79049.082,Können,unaweza,d,kiongozi,bustani,mienendo,NA,NA,NA,NULL,NA,NA,NA,NA,NA,NA,NA,NA,NA,NA,NA,NA,NA,NA,NA,NA,NA,NA,NA
6aa22,task,flow.Sequence,1_3,NA,NA,completion,23079.161,55937.899999999,55936.555,55953.238,79032.399,79034.099999998,2023-05-11T14:03:07Z,79049.082,Können,unaweza,d,kiongozi,bustani,mienendo,NA,NA,NA,NULL,NA,NA,NA,NA,NA,NA,NA,NA,NA,NA,NA,NA,NA,NA,NA,NA,NA,NA,NA
6aa22,Deep Question,html.Page,1_4_0_0,NA,NA,form submission,36868.418,79034.199999999,79032.399,79049.082,115917.5,115917.6,2023-05-11T14:03:44Z,115918.399,System,maongozi,d,chokochoko,nuksani,mitaani,undanji,NA,NA,NULL,NA,NA,NA,NA,NA,NA,NA,NA,NA,NA,NA,NA,NA,NA,NA,NA,NA,NA,NA
6aa22,Save data screen,canvas.Screen,1_4_0_1,NA,NA,timeout,500.48999999999,115924.5,115901.716,115918.399,116402.206,116406.4,2023-05-11T14:03:44Z,116418.889,System,maongozi,d,chokochoko,nuksani,mitaani,NA,NA,0,NULL,NA,NA,NA,NA,NA,NA,NA,NA,NA,NA,NA,NA,NA,NA,NA,NA,NA,NA,NA
6aa22,deep,flow.Sequence,1_4_0,NA,NA,completion,37353.124,79034.199999999,79032.399,79049.082,116402.206,116406.5,2023-05-11T14:03:44Z,116418.889,System,maongozi,d,chokochoko,nuksani,mitaani,NA,NA,NA,NULL,NA,NA,NA,NA,NA,NA,NA,NA,NA,NA,NA,NA,NA,NA,NA,NA,NA,NA,NA
6aa22,task,flow.Sequence,1_4,NA,NA,completion,37353.124,79034.199999999,79032.399,79049.082,116402.206,116406.7,2023-05-11T14:03:44Z,116418.889,System,maongozi,d,chokochoko,nuksani,mitaani,NA,NA,NA,NULL,NA,NA,NA,NA,NA,NA,NA,NA,NA,NA,NA,NA,NA,NA,NA,NA,NA,NA,NA
6aa22,Deep Question,html.Page,1_5_0_0,NA,NA,form submission,17983.210999998,116406.8,116402.206,116418.889,134402.1,134402.2,2023-05-11T14:04:02Z,134409.752,Kultur,utamaduni,s,shetani,gerezani,mazingira,kulkuti,NA,NA,NULL,NA,NA,NA,NA,NA,NA,NA,NA,NA,NA,NA,NA,NA,NA,NA,NA,NA,NA,NA
6aa22,Save data screen,canvas.Screen,1_5_0_1,NA,NA,timeout,500.48999999999,134403.6,134393.069,134409.752,134893.559,134895.2,2023-05-11T14:04:03Z,134910.242,Kultur,utamaduni,s,shetani,gerezani,mazingira,NA,NA,0,NULL,NA,NA,NA,NA,NA,NA,NA,NA,NA,NA,NA,NA,NA,NA,NA,NA,NA,NA,NA
6aa22,deep,flow.Sequence,1_5_0,NA,NA,completion,18474.67,116406.7,116402.206,116418.889,134893.559,134895.4,2023-05-11T14:04:03Z,134910.242,Kultur,utamaduni,s,shetani,gerezani,mazingira,NA,NA,NA,NULL,NA,NA,NA,NA,NA,NA,NA,NA,NA,NA,NA,NA,NA,NA,NA,NA,NA,NA,NA
6aa22,task,flow.Sequence,1_5,NA,NA,completion,18474.67,116406.7,116402.206,116418.889,134893.559,134895.5,2023-05-11T14:04:03Z,134910.242,Kultur,utamaduni,s,shetani,gerezani,mazingira,NA,NA,NA,NULL,NA,NA,NA,NA,NA,NA,NA,NA,NA,NA,NA,NA,NA,NA,NA,NA,NA,NA,NA
6aa22,Deep Question,html.Page,1_6_0_0,NA,NA,form submission,31454.657999999,134895.6,134893.559,134910.242,166364.9,166364.9,2023-05-11T14:04:34Z,166376.744,Lawine,banguko,d,maambukizi,usuluhishi,chekechea,banguko,NA,NA,NULL,NA,NA,NA,NA,NA,NA,NA,NA,NA,NA,NA,NA,NA,NA,NA,NA,NA,NA,NA
6aa22,Save data screen,canvas.Screen,1_6_0_1,NA,NA,timeout,500.48999999999,166366.3,166360.061,166376.744,166860.551,166863.3,2023-05-11T14:04:35Z,166877.234,Lawine,banguko,d,maambukizi,usuluhishi,chekechea,NA,NA,1,NULL,NA,NA,NA,NA,NA,NA,NA,NA,NA,NA,NA,NA,NA,NA,NA,NA,NA,NA,NA
6aa22,deep,flow.Sequence,1_6_0,NA,NA,completion,31950.309,134895.6,134893.559,134910.242,166860.551,166863.5,2023-05-11T14:04:35Z,166877.234,Lawine,banguko,d,maambukizi,usuluhishi,chekechea,NA,NA,NA,NULL,NA,NA,NA,NA,NA,NA,NA,NA,NA,NA,NA,NA,NA,NA,NA,NA,NA,NA,NA
6aa22,task,flow.Sequence,1_6,NA,NA,completion,31950.309,134895.6,134893.559,134910.242,166860.551,166863.6,2023-05-11T14:04:35Z,166877.234,Lawine,banguko,d,maambukizi,usuluhishi,chekechea,NA,NA,NA,NULL,NA,NA,NA,NA,NA,NA,NA,NA,NA,NA,NA,NA,NA,NA,NA,NA,NA,NA,NA
6aa22,Deep Question,html.Page,1_7_0_0,NA,NA,form submission,57878.065999997,166863.7,166860.551,166877.234,224755.3,224755.4,2023-05-11T14:05:33Z,224757.363,Abrechnung,uhasibu,s,kusahihisha,mpambano,mashambulizi,unandani,NA,NA,NULL,NA,NA,NA,NA,NA,NA,NA,NA,NA,NA,NA,NA,NA,NA,NA,NA,NA,NA,NA
6aa22,Save data screen,canvas.Screen,1_7_0_1,NA,NA,timeout,500.48999999999,224756.8,224740.68,224757.363,225241.17,225245.1,2023-05-11T14:05:33Z,225257.853,Abrechnung,uhasibu,s,kusahihisha,mpambano,mashambulizi,NA,NA,0,NULL,NA,NA,NA,NA,NA,NA,NA,NA,NA,NA,NA,NA,NA,NA,NA,NA,NA,NA,NA
6aa22,deep,flow.Sequence,1_7_0,NA,NA,completion,58363.936,166863.7,166860.551,166877.234,225241.17,225245.2,2023-05-11T14:05:33Z,225257.853,Abrechnung,uhasibu,s,kusahihisha,mpambano,mashambulizi,NA,NA,NA,NULL,NA,NA,NA,NA,NA,NA,NA,NA,NA,NA,NA,NA,NA,NA,NA,NA,NA,NA,NA
6aa22,task,flow.Sequence,1_7,NA,NA,completion,58363.936,166863.7,166860.551,166877.234,225241.17,225245.4,2023-05-11T14:05:33Z,225257.853,Abrechnung,uhasibu,s,kusahihisha,mpambano,mashambulizi,NA,NA,NA,NULL,NA,NA,NA,NA,NA,NA,NA,NA,NA,NA,NA,NA,NA,NA,NA,NA,NA,NA,NA
6aa22,Deep Question,html.Page,1_8_0_0,NA,NA,form submission,6731.2469999978,225245.5,225241.17,225257.853,231989.1,231989.3,2023-05-11T14:05:40Z,232004.178,Kreativität,ubunifu,d,mratibu,mwendelezo,makubaliano,asdf,NA,NA,NULL,NA,NA,NA,NA,NA,NA,NA,NA,NA,NA,NA,NA,NA,NA,NA,NA,NA,NA,NA
6aa22,Save data screen,canvas.Screen,1_8_0_1,NA,NA,timeout,500.48999999999,231990.5,231987.495,232004.178,232487.985,232490.7,2023-05-11T14:05:40Z,232504.668,Kreativität,ubunifu,d,mratibu,mwendelezo,makubaliano,NA,NA,0,NULL,NA,NA,NA,NA,NA,NA,NA,NA,NA,NA,NA,NA,NA,NA,NA,NA,NA,NA,NA
6aa22,deep,flow.Sequence,1_8_0,NA,NA,completion,7230.132,225245.4,225241.17,225257.853,232487.985,232490.7,2023-05-11T14:05:40Z,232504.668,Kreativität,ubunifu,d,mratibu,mwendelezo,makubaliano,NA,NA,NA,NULL,NA,NA,NA,NA,NA,NA,NA,NA,NA,NA,NA,NA,NA,NA,NA,NA,NA,NA,NA
6aa22,task,flow.Sequence,1_8,NA,NA,completion,7230.132,225245.4,225241.17,225257.853,232487.985,232490.9,2023-05-11T14:05:40Z,232504.668,Kreativität,ubunifu,d,mratibu,mwendelezo,makubaliano,NA,NA,NA,NULL,NA,NA,NA,NA,NA,NA,NA,NA,NA,NA,NA,NA,NA,NA,NA,NA,NA,NA,NA
6aa22,Deep Question,html.Page,1_9_0_0,NA,NA,form submission,7472.631999997,232491,232487.985,232504.668,239977.3,239977.4,2023-05-11T14:05:48Z,239985.338,Körper,kiwiliwili,s,mapambano,mpatanishi,kiolezo,kiwiliwili,NA,NA,NULL,NA,NA,NA,NA,NA,NA,NA,NA,NA,NA,NA,NA,NA,NA,NA,NA,NA,NA,NA
6aa22,Save data screen,canvas.Screen,1_9_0_1,NA,NA,timeout,500.49000000002,239978.7,239968.655,239985.338,240469.145,240470.7,2023-05-11T14:05:48Z,240485.828,Körper,kiwiliwili,s,mapambano,mpatanishi,kiolezo,NA,NA,1,NULL,NA,NA,NA,NA,NA,NA,NA,NA,NA,NA,NA,NA,NA,NA,NA,NA,NA,NA,NA
6aa22,deep,flow.Sequence,1_9_0,NA,NA,completion,7964.477,232490.9,232487.985,232504.668,240469.145,240470.9,2023-05-11T14:05:48Z,240485.828,Körper,kiwiliwili,s,mapambano,mpatanishi,kiolezo,NA,NA,NA,NULL,NA,NA,NA,NA,NA,NA,NA,NA,NA,NA,NA,NA,NA,NA,NA,NA,NA,NA,NA
6aa22,task,flow.Sequence,1_9,NA,NA,completion,7964.477,232490.9,232487.985,232504.668,240469.145,240470.9,2023-05-11T14:05:48Z,240485.828,Körper,kiwiliwili,s,mapambano,mpatanishi,kiolezo,NA,NA,NA,NULL,NA,NA,NA,NA,NA,NA,NA,NA,NA,NA,NA,NA,NA,NA,NA,NA,NA,NA,NA
6aa22,Deep Question,html.Page,1_10_0_0,NA,NA,form submission,6241.471999997,240471,240469.145,240485.828,246727.3,246727.5,2023-05-11T14:05:55Z,246741.953,Sänger,mwimbaji,d,msichana,shughuli,mshirika,mwimbaji,NA,NA,NULL,NA,NA,NA,NA,NA,NA,NA,NA,NA,NA,NA,NA,NA,NA,NA,NA,NA,NA,NA
6aa22,Save data screen,canvas.Screen,1_10_0_1,NA,NA,timeout,500.48999999999,246728.7,246725.27,246741.953,247225.76,247227.8,2023-05-11T14:05:55Z,247242.443,Sänger,mwimbaji,d,msichana,shughuli,mshirika,NA,NA,1,NULL,NA,NA,NA,NA,NA,NA,NA,NA,NA,NA,NA,NA,NA,NA,NA,NA,NA,NA,NA
6aa22,deep,flow.Sequence,1_10_0,NA,NA,completion,6739.932,240471,240469.145,240485.828,247225.76,247228,2023-05-11T14:05:55Z,247242.443,Sänger,mwimbaji,d,msichana,shughuli,mshirika,NA,NA,NA,NULL,NA,NA,NA,NA,NA,NA,NA,NA,NA,NA,NA,NA,NA,NA,NA,NA,NA,NA,NA
6aa22,task,flow.Sequence,1_10,NA,NA,completion,6739.932,240471,240469.145,240485.828,247225.76,247228.1,2023-05-11T14:05:55Z,247242.443,Sänger,mwimbaji,d,msichana,shughuli,mshirika,NA,NA,NA,NULL,NA,NA,NA,NA,NA,NA,NA,NA,NA,NA,NA,NA,NA,NA,NA,NA,NA,NA,NA
6aa22,Deep Question,html.Page,1_11_0_0,NA,NA,form submission,4772.9569999985,247228.2,247225.76,247242.443,252015.4,252015.6,2023-05-11T14:06:00Z,252020.533,Aufstand,ugomaji,d,mazidio,msingi,kujieleza,usulubu,NA,NA,NULL,NA,NA,NA,NA,NA,NA,NA,NA,NA,NA,NA,NA,NA,NA,NA,NA,NA,NA,NA
6aa22,Save data screen,canvas.Screen,1_11_0_1,NA,NA,timeout,500.48999999999,252016.7,252003.85,252020.533,252504.34,252508.8,2023-05-11T14:06:00Z,252521.023,Aufstand,ugomaji,d,mazidio,msingi,kujieleza,NA,NA,0,NULL,NA,NA,NA,NA,NA,NA,NA,NA,NA,NA,NA,NA,NA,NA,NA,NA,NA,NA,NA
6aa22,deep,flow.Sequence,1_11_0,NA,NA,completion,5261.897,247228.1,247225.76,247242.443,252504.34,252508.9,2023-05-11T14:06:00Z,252521.023,Aufstand,ugomaji,d,mazidio,msingi,kujieleza,NA,NA,NA,NULL,NA,NA,NA,NA,NA,NA,NA,NA,NA,NA,NA,NA,NA,NA,NA,NA,NA,NA,NA
6aa22,task,flow.Sequence,1_11,NA,NA,completion,5261.897,247228.1,247225.76,247242.443,252504.34,252509,2023-05-11T14:06:00Z,252521.023,Aufstand,ugomaji,d,mazidio,msingi,kujieleza,NA,NA,NA,NULL,NA,NA,NA,NA,NA,NA,NA,NA,NA,NA,NA,NA,NA,NA,NA,NA,NA,NA,NA
6aa22,Deep Question,html.Page,1_12_0_0,NA,NA,form submission,4511.977,252509.1,252504.34,252521.023,257033,257033.1,2023-05-11T14:06:05Z,257042.116,Verzögerung,kuchelewa,s,mwakilishi,mwanauchumi,jaribio,al,NA,NA,NULL,NA,NA,NA,NA,NA,NA,NA,NA,NA,NA,NA,NA,NA,NA,NA,NA,NA,NA,NA
6aa22,Save data screen,canvas.Screen,1_12_0_1,NA,NA,timeout,500.48999999999,257034.4,257025.433,257042.116,257525.923,257530.3,2023-05-11T14:06:06Z,257542.606,Verzögerung,kuchelewa,s,mwakilishi,mwanauchumi,jaribio,NA,NA,0,NULL,NA,NA,NA,NA,NA,NA,NA,NA,NA,NA,NA,NA,NA,NA,NA,NA,NA,NA,NA
6aa22,deep,flow.Sequence,1_12_0,NA,NA,completion,5004.9,252509.1,252504.34,252521.023,257525.923,257530.4,2023-05-11T14:06:06Z,257542.606,Verzögerung,kuchelewa,s,mwakilishi,mwanauchumi,jaribio,NA,NA,NA,NULL,NA,NA,NA,NA,NA,NA,NA,NA,NA,NA,NA,NA,NA,NA,NA,NA,NA,NA,NA
6aa22,task,flow.Sequence,1_12,NA,NA,completion,5004.9,252509,252504.34,252521.023,257525.923,257530.5,2023-05-11T14:06:06Z,257542.606,Verzögerung,kuchelewa,s,mwakilishi,mwanauchumi,jaribio,NA,NA,NA,NULL,NA,NA,NA,NA,NA,NA,NA,NA,NA,NA,NA,NA,NA,NA,NA,NA,NA,NA,NA
6aa22,Deep Question,html.Page,1_13_0_0,NA,NA,form submission,15724.693999997,257530.6,257525.923,257542.606,273267.3,273267.5,2023-05-11T14:06:21Z,273281.248,Prüfung,mtihani,d,mkulima,mtizamo,ufumbuzi,asdfj,NA,NA,NULL,NA,NA,NA,NA,NA,NA,NA,NA,NA,NA,NA,NA,NA,NA,NA,NA,NA,NA,NA
6aa22,Save data screen,canvas.Screen,1_13_0_1,NA,NA,timeout,500.48999999999,273268.9,273264.565,273281.248,273765.055,273766,2023-05-11T14:06:22Z,273781.738,Prüfung,mtihani,d,mkulima,mtizamo,ufumbuzi,NA,NA,0,NULL,NA,NA,NA,NA,NA,NA,NA,NA,NA,NA,NA,NA,NA,NA,NA,NA,NA,NA,NA
6aa22,deep,flow.Sequence,1_13_0,NA,NA,completion,16222.449,257530.6,257525.923,257542.606,273765.055,273766.1,2023-05-11T14:06:22Z,273781.738,Prüfung,mtihani,d,mkulima,mtizamo,ufumbuzi,NA,NA,NA,NULL,NA,NA,NA,NA,NA,NA,NA,NA,NA,NA,NA,NA,NA,NA,NA,NA,NA,NA,NA
6aa22,task,flow.Sequence,1_13,NA,NA,completion,16222.449,257530.6,257525.923,257542.606,273765.055,273766.3,2023-05-11T14:06:22Z,273781.738,Prüfung,mtihani,d,mkulima,mtizamo,ufumbuzi,NA,NA,NA,NULL,NA,NA,NA,NA,NA,NA,NA,NA,NA,NA,NA,NA,NA,NA,NA,NA,NA,NA,NA
6aa22,Deep Question,html.Page,1_14_0_0,NA,NA,form submission,22245.661999998,273766.3,273765.055,273781.738,296027.4,296027.5,2023-05-11T14:06:44Z,296033.811,Gefährdung,kuhatarisha,s,uchokozi,udhaifu,makorowezo,df,NA,NA,NULL,NA,NA,NA,NA,NA,NA,NA,NA,NA,NA,NA,NA,NA,NA,NA,NA,NA,NA,NA
6aa22,Save data screen,canvas.Screen,1_14_0_1,NA,NA,timeout,500.48999999999,296028.7,296017.128,296033.811,296517.618,296522.8,2023-05-11T14:06:45Z,296534.301,Gefährdung,kuhatarisha,s,uchokozi,udhaifu,makorowezo,NA,NA,0,NULL,NA,NA,NA,NA,NA,NA,NA,NA,NA,NA,NA,NA,NA,NA,NA,NA,NA,NA,NA
6aa22,deep,flow.Sequence,1_14_0,NA,NA,completion,22735.88,273766.3,273765.055,273781.738,296517.618,296522.9,2023-05-11T14:06:45Z,296534.301,Gefährdung,kuhatarisha,s,uchokozi,udhaifu,makorowezo,NA,NA,NA,NULL,NA,NA,NA,NA,NA,NA,NA,NA,NA,NA,NA,NA,NA,NA,NA,NA,NA,NA,NA
6aa22,task,flow.Sequence,1_14,NA,NA,completion,22735.88,273766.3,273765.055,273781.738,296517.618,296523,2023-05-11T14:06:45Z,296534.301,Gefährdung,kuhatarisha,s,uchokozi,udhaifu,makorowezo,NA,NA,NA,NULL,NA,NA,NA,NA,NA,NA,NA,NA,NA,NA,NA,NA,NA,NA,NA,NA,NA,NA,NA
6aa22,Deep Question,html.Page,1_15_0_0,NA,NA,form submission,16638.998999997,296523.1,296517.618,296534.301,313173.3,313173.5,2023-05-11T14:07:01Z,313180.936,Übersicht,kilindo,s,mgusano,chipukizi,kulinganisha,uasf,NA,NA,NULL,NA,NA,NA,NA,NA,NA,NA,NA,NA,NA,NA,NA,NA,NA,NA,NA,NA,NA,NA
6aa22,Save data screen,canvas.Screen,1_15_0_1,NA,NA,timeout,500.48999999999,313174.6,313164.253,313180.936,313664.743,313669.5,2023-05-11T14:07:02Z,313681.426,Übersicht,kilindo,s,mgusano,chipukizi,kulinganisha,NA,NA,0,NULL,NA,NA,NA,NA,NA,NA,NA,NA,NA,NA,NA,NA,NA,NA,NA,NA,NA,NA,NA
6aa22,deep,flow.Sequence,1_15_0,NA,NA,completion,17130.442,296523.1,296517.618,296534.301,313664.743,313669.6,2023-05-11T14:07:02Z,313681.426,Übersicht,kilindo,s,mgusano,chipukizi,kulinganisha,NA,NA,NA,NULL,NA,NA,NA,NA,NA,NA,NA,NA,NA,NA,NA,NA,NA,NA,NA,NA,NA,NA,NA
6aa22,task,flow.Sequence,1_15,NA,NA,completion,17130.442,296523,296517.618,296534.301,313664.743,313669.8,2023-05-11T14:07:02Z,313681.426,Übersicht,kilindo,s,mgusano,chipukizi,kulinganisha,NA,NA,NA,NULL,NA,NA,NA,NA,NA,NA,NA,NA,NA,NA,NA,NA,NA,NA,NA,NA,NA,NA,NA
6aa22,retrieval block 1 (cued recall),flow.Loop,1,NA,NA,completion,291774.42,21888.899999999,21873.64,21890.323,313664.743,313669.9,2023-05-11T14:07:02Z,313681.426,NA,NA,NA,NA,NA,NA,NA,NA,NA,NULL,NA,NA,NA,NA,NA,NA,NA,NA,NA,NA,NA,NA,NA,NA,NA,NA,NA,NA,NA
6aa22,Shallow Question,html.Page,2_0_0_0,NA,NA,form submission,6772.4739999985,313670,313664.743,313681.426,320453.9,320454.1,2023-05-11T14:07:08Z,320521.456,Angreifer,mshambulizi,d,kitengo,tasinia,usafirishaji,mshambulizi,NA,NA,"c(""distractor1"", ""distractor2"", ""distractor3"")",NA,NA,NA,NA,NA,NA,NA,NA,NA,NA,NA,NA,NA,NA,NA,NA,NA,NA,NA
6aa22,Save data screen,canvas.Screen,2_0_0_1,NA,NA,timeout,496.28200000001,320455.2,320438.041,320521.456,321001.055,321005.7,2023-05-11T14:07:09Z,321017.738,Angreifer,mshambulizi,d,kitengo,tasinia,usafirishaji,NA,NA,1,"c(""distractor1"", ""distractor2"", ""distractor3"")",NA,NA,NA,NA,NA,NA,NA,NA,NA,NA,NA,NA,NA,NA,NA,NA,NA,NA,NA
6aa22,shallow,flow.Sequence,2_0_0,NA,NA,completion,7319.629,313669.9,313664.743,313681.426,321001.055,321005.9,2023-05-11T14:07:09Z,321017.738,Angreifer,mshambulizi,d,kitengo,tasinia,usafirishaji,NA,NA,NA,"c(""distractor1"", ""distractor2"", ""distractor3"")",NA,NA,NA,NA,NA,NA,NA,NA,NA,NA,NA,NA,NA,NA,NA,NA,NA,NA,NA
6aa22,task,flow.Sequence,2_0,NA,NA,completion,7319.629,313669.9,313664.743,313681.426,321001.055,321005.9,2023-05-11T14:07:09Z,321017.738,Angreifer,mshambulizi,d,kitengo,tasinia,usafirishaji,NA,NA,NA,"c(""distractor1"", ""distractor2"", ""distractor3"")",NA,NA,NA,NA,NA,NA,NA,NA,NA,NA,NA,NA,NA,NA,NA,NA,NA,NA,NA
6aa22,Shallow Question,html.Page,2_1_0_0,NA,NA,form submission,8367.6619999985,321006,321001.055,321017.738,329385.4,329385.5,2023-05-11T14:07:17Z,329392.604,Können,unaweza,d,kiongozi,bustani,mienendo,mienendo,NA,NA,"c(""distractor1"", ""distractor2"", ""distractor3"")",NA,NA,NA,NA,NA,NA,NA,NA,NA,NA,NA,NA,NA,NA,NA,NA,NA,NA,NA
6aa22,Save data screen,canvas.Screen,2_1_0_1,NA,NA,timeout,500.48999999999,329386.6,329375.921,329392.604,329876.411,329879.2,2023-05-11T14:07:18Z,329893.094,Können,unaweza,d,kiongozi,bustani,mienendo,NA,NA,0,"c(""distractor1"", ""distractor2"", ""distractor3"")",NA,NA,NA,NA,NA,NA,NA,NA,NA,NA,NA,NA,NA,NA,NA,NA,NA,NA,NA
6aa22,shallow,flow.Sequence,2_1_0,NA,NA,completion,8858.673,321006,321001.055,321017.738,329876.411,329879.4,2023-05-11T14:07:18Z,329893.094,Können,unaweza,d,kiongozi,bustani,mienendo,NA,NA,NA,"c(""distractor1"", ""distractor2"", ""distractor3"")",NA,NA,NA,NA,NA,NA,NA,NA,NA,NA,NA,NA,NA,NA,NA,NA,NA,NA,NA
6aa22,task,flow.Sequence,2_1,NA,NA,completion,8858.673,321006,321001.055,321017.738,329876.411,329879.5,2023-05-11T14:07:18Z,329893.094,Können,unaweza,d,kiongozi,bustani,mienendo,NA,NA,NA,"c(""distractor1"", ""distractor2"", ""distractor3"")",NA,NA,NA,NA,NA,NA,NA,NA,NA,NA,NA,NA,NA,NA,NA,NA,NA,NA,NA
6aa22,Shallow Question,html.Page,2_2_0_0,NA,NA,form submission,1631.205999997,329879.6,329876.411,329893.094,331524.3,331524.5,2023-05-11T14:07:20Z,331534.779,Körper,kiwiliwili,s,mapambano,mpatanishi,kiolezo,kiwiliwili,NA,NA,"c(""distractor1"", ""distractor2"", ""distractor3"")",NA,NA,NA,NA,NA,NA,NA,NA,NA,NA,NA,NA,NA,NA,NA,NA,NA,NA,NA
6aa22,Save data screen,canvas.Screen,2_2_0_1,NA,NA,timeout,500.48999999999,331524.8,331518.096,331534.779,332018.586,332021.1,2023-05-11T14:07:20Z,332035.269,Körper,kiwiliwili,s,mapambano,mpatanishi,kiolezo,NA,NA,1,"c(""distractor1"", ""distractor2"", ""distractor3"")",NA,NA,NA,NA,NA,NA,NA,NA,NA,NA,NA,NA,NA,NA,NA,NA,NA,NA,NA
6aa22,shallow,flow.Sequence,2_2_0,NA,NA,completion,2125.492,329879.6,329876.411,329893.094,332018.586,332021.3,2023-05-11T14:07:20Z,332035.269,Körper,kiwiliwili,s,mapambano,mpatanishi,kiolezo,NA,NA,NA,"c(""distractor1"", ""distractor2"", ""distractor3"")",NA,NA,NA,NA,NA,NA,NA,NA,NA,NA,NA,NA,NA,NA,NA,NA,NA,NA,NA
6aa22,task,flow.Sequence,2_2,NA,NA,completion,2125.492,329879.6,329876.411,329893.094,332018.586,332021.3,2023-05-11T14:07:20Z,332035.269,Körper,kiwiliwili,s,mapambano,mpatanishi,kiolezo,NA,NA,NA,"c(""distractor1"", ""distractor2"", ""distractor3"")",NA,NA,NA,NA,NA,NA,NA,NA,NA,NA,NA,NA,NA,NA,NA,NA,NA,NA,NA
6aa22,Shallow Question,html.Page,2_3_0_0,NA,NA,form submission,6159.231,332021.5,332018.586,332035.269,338194.5,338194.6,2023-05-11T14:07:26Z,338207.979,Abrechnung,uhasibu,s,kusahihisha,mpambano,mashambulizi,uhasibu,NA,NA,"c(""distractor1"", ""distractor2"", ""distractor3"")",NA,NA,NA,NA,NA,NA,NA,NA,NA,NA,NA,NA,NA,NA,NA,NA,NA,NA,NA
6aa22,Save data screen,canvas.Screen,2_3_0_1,NA,NA,timeout,500.48999999999,338195.7,338191.296,338207.979,338691.786,338693.5,2023-05-11T14:07:27Z,338708.469,Abrechnung,uhasibu,s,kusahihisha,mpambano,mashambulizi,NA,NA,1,"c(""distractor1"", ""distractor2"", ""distractor3"")",NA,NA,NA,NA,NA,NA,NA,NA,NA,NA,NA,NA,NA,NA,NA,NA,NA,NA,NA
6aa22,shallow,flow.Sequence,2_3_0,NA,NA,completion,6656.5170000001,332021.5,332018.586,332035.269,338691.786,338693.7,2023-05-11T14:07:27Z,338708.469,Abrechnung,uhasibu,s,kusahihisha,mpambano,mashambulizi,NA,NA,NA,"c(""distractor1"", ""distractor2"", ""distractor3"")",NA,NA,NA,NA,NA,NA,NA,NA,NA,NA,NA,NA,NA,NA,NA,NA,NA,NA,NA
6aa22,task,flow.Sequence,2_3,NA,NA,completion,6656.5170000001,332021.5,332018.586,332035.269,338691.786,338693.8,2023-05-11T14:07:27Z,338708.469,Abrechnung,uhasibu,s,kusahihisha,mpambano,mashambulizi,NA,NA,NA,"c(""distractor1"", ""distractor2"", ""distractor3"")",NA,NA,NA,NA,NA,NA,NA,NA,NA,NA,NA,NA,NA,NA,NA,NA,NA,NA,NA
6aa22,Shallow Question,html.Page,2_4_0_0,NA,NA,form submission,2997.7309999993,338693.9,338691.786,338708.469,341706.2,341706.4,2023-05-11T14:07:30Z,341717.851,Sänger,mwimbaji,d,msichana,shughuli,mshirika,mwimbaji,NA,NA,"c(""distractor1"", ""distractor2"", ""distractor3"")",NA,NA,NA,NA,NA,NA,NA,NA,NA,NA,NA,NA,NA,NA,NA,NA,NA,NA,NA
6aa22,Save data screen,canvas.Screen,2_4_0_1,NA,NA,timeout,500.48999999999,341707.6,341701.168,341717.851,342201.658,342203.7,2023-05-11T14:07:30Z,342218.341,Sänger,mwimbaji,d,msichana,shughuli,mshirika,NA,NA,1,"c(""distractor1"", ""distractor2"", ""distractor3"")",NA,NA,NA,NA,NA,NA,NA,NA,NA,NA,NA,NA,NA,NA,NA,NA,NA,NA,NA
6aa22,shallow,flow.Sequence,2_4_0,NA,NA,completion,3493.189,338693.9,338691.786,338708.469,342201.658,342203.9,2023-05-11T14:07:30Z,342218.341,Sänger,mwimbaji,d,msichana,shughuli,mshirika,NA,NA,NA,"c(""distractor1"", ""distractor2"", ""distractor3"")",NA,NA,NA,NA,NA,NA,NA,NA,NA,NA,NA,NA,NA,NA,NA,NA,NA,NA,NA
6aa22,task,flow.Sequence,2_4,NA,NA,completion,3493.189,338693.9,338691.786,338708.469,342201.658,342204,2023-05-11T14:07:30Z,342218.341,Sänger,mwimbaji,d,msichana,shughuli,mshirika,NA,NA,NA,"c(""distractor1"", ""distractor2"", ""distractor3"")",NA,NA,NA,NA,NA,NA,NA,NA,NA,NA,NA,NA,NA,NA,NA,NA,NA,NA,NA
6aa22,Shallow Question,html.Page,2_5_0_0,NA,NA,form submission,1241.3589999992,342204.1,342201.658,342218.341,343459.7,343459.8,2023-05-11T14:07:31Z,343469.566,Kanzler,diwani,s,rasilmali,mahitaji,maabudu,diwani,NA,NA,"c(""distractor1"", ""distractor2"", ""distractor3"")",NA,NA,NA,NA,NA,NA,NA,NA,NA,NA,NA,NA,NA,NA,NA,NA,NA,NA,NA
6aa22,Save data screen,canvas.Screen,2_5_0_1,NA,NA,timeout,500.48999999999,343460.2,343452.883,343469.566,343953.373,343954.8,2023-05-11T14:07:32Z,343970.056,Kanzler,diwani,s,rasilmali,mahitaji,maabudu,NA,NA,1,"c(""distractor1"", ""distractor2"", ""distractor3"")",NA,NA,NA,NA,NA,NA,NA,NA,NA,NA,NA,NA,NA,NA,NA,NA,NA,NA,NA
6aa22,shallow,flow.Sequence,2_5_0,NA,NA,completion,1735.032,342204.1,342201.658,342218.341,343953.373,343955.1,2023-05-11T14:07:32Z,343970.056,Kanzler,diwani,s,rasilmali,mahitaji,maabudu,NA,NA,NA,"c(""distractor1"", ""distractor2"", ""distractor3"")",NA,NA,NA,NA,NA,NA,NA,NA,NA,NA,NA,NA,NA,NA,NA,NA,NA,NA,NA
6aa22,task,flow.Sequence,2_5,NA,NA,completion,1735.032,342204.1,342201.658,342218.341,343953.373,343955.2,2023-05-11T14:07:32Z,343970.056,Kanzler,diwani,s,rasilmali,mahitaji,maabudu,NA,NA,NA,"c(""distractor1"", ""distractor2"", ""distractor3"")",NA,NA,NA,NA,NA,NA,NA,NA,NA,NA,NA,NA,NA,NA,NA,NA,NA,NA,NA
6aa22,Shallow Question,html.Page,2_6_0_0,NA,NA,form submission,8750.5439999978,343955.2,343953.373,343970.056,352720.6,352720.8,2023-05-11T14:07:41Z,352735.252,Kontrolle,kudhibiti,s,mbinguni,kufunga,utegemezi,kudhibiti,NA,NA,"c(""distractor1"", ""distractor2"", ""distractor3"")",NA,NA,NA,NA,NA,NA,NA,NA,NA,NA,NA,NA,NA,NA,NA,NA,NA,NA,NA
6aa22,Save data screen,canvas.Screen,2_6_0_1,NA,NA,timeout,500.49000000005,352722,352718.569,352735.252,353219.059,353220.4,2023-05-11T14:07:41Z,353235.742,Kontrolle,kudhibiti,s,mbinguni,kufunga,utegemezi,NA,NA,1,"c(""distractor1"", ""distractor2"", ""distractor3"")",NA,NA,NA,NA,NA,NA,NA,NA,NA,NA,NA,NA,NA,NA,NA,NA,NA,NA,NA
6aa22,shallow,flow.Sequence,2_6_0,NA,NA,completion,9249.003,343955.2,343953.373,343970.056,353219.059,353220.5,2023-05-11T14:07:41Z,353235.742,Kontrolle,kudhibiti,s,mbinguni,kufunga,utegemezi,NA,NA,NA,"c(""distractor1"", ""distractor2"", ""distractor3"")",NA,NA,NA,NA,NA,NA,NA,NA,NA,NA,NA,NA,NA,NA,NA,NA,NA,NA,NA
6aa22,task,flow.Sequence,2_6,NA,NA,completion,9249.003,343955.2,343953.373,343970.056,353219.059,353220.7,2023-05-11T14:07:41Z,353235.742,Kontrolle,kudhibiti,s,mbinguni,kufunga,utegemezi,NA,NA,NA,"c(""distractor1"", ""distractor2"", ""distractor3"")",NA,NA,NA,NA,NA,NA,NA,NA,NA,NA,NA,NA,NA,NA,NA,NA,NA,NA,NA
6aa22,Shallow Question,html.Page,2_7_0_0,NA,NA,form submission,6143.3579999977,353220.7,353219.059,353235.742,359379.1,359379.3,2023-05-11T14:07:47Z,359408.452,Kreativität,ubunifu,d,mratibu,mwendelezo,makubaliano,ubunifu,NA,NA,"c(""distractor1"", ""distractor2"", ""distractor3"")",NA,NA,NA,NA,NA,NA,NA,NA,NA,NA,NA,NA,NA,NA,NA,NA,NA,NA,NA
6aa22,Save data screen,canvas.Screen,2_7_0_1,NA,NA,timeout,500.48999999999,359380.5,359391.769,359408.452,359892.259,359896.1,2023-05-11T14:07:48Z,359908.942,Kreativität,ubunifu,d,mratibu,mwendelezo,makubaliano,NA,NA,1,"c(""distractor1"", ""distractor2"", ""distractor3"")",NA,NA,NA,NA,NA,NA,NA,NA,NA,NA,NA,NA,NA,NA,NA,NA,NA,NA,NA
6aa22,shallow,flow.Sequence,2_7_0,NA,NA,completion,6656.517,353220.7,353219.059,353235.742,359892.259,359896.3,2023-05-11T14:07:48Z,359908.942,Kreativität,ubunifu,d,mratibu,mwendelezo,makubaliano,NA,NA,NA,"c(""distractor1"", ""distractor2"", ""distractor3"")",NA,NA,NA,NA,NA,NA,NA,NA,NA,NA,NA,NA,NA,NA,NA,NA,NA,NA,NA
6aa22,task,flow.Sequence,2_7,NA,NA,completion,6656.517,353220.7,353219.059,353235.742,359892.259,359896.5,2023-05-11T14:07:48Z,359908.942,Kreativität,ubunifu,d,mratibu,mwendelezo,makubaliano,NA,NA,NA,"c(""distractor1"", ""distractor2"", ""distractor3"")",NA,NA,NA,NA,NA,NA,NA,NA,NA,NA,NA,NA,NA,NA,NA,NA,NA,NA,NA
6aa22,Shallow Question,html.Page,2_8_0_0,NA,NA,form submission,15166.357999997,359896.5,359892.259,359908.942,375075.3,375075.5,2023-05-11T14:08:03Z,375084.173,Übersicht,kilindo,s,mgusano,chipukizi,kulinganisha,kilindo,NA,NA,"c(""distractor1"", ""distractor2"", ""distractor3"")",NA,NA,NA,NA,NA,NA,NA,NA,NA,NA,NA,NA,NA,NA,NA,NA,NA,NA,NA
6aa22,Save data screen,canvas.Screen,2_8_0_1,NA,NA,timeout,500.48999999999,375076.7,375067.49,375084.173,375567.98,375569.2,2023-05-11T14:08:04Z,375584.663,Übersicht,kilindo,s,mgusano,chipukizi,kulinganisha,NA,NA,1,"c(""distractor1"", ""distractor2"", ""distractor3"")",NA,NA,NA,NA,NA,NA,NA,NA,NA,NA,NA,NA,NA,NA,NA,NA,NA,NA,NA
6aa22,shallow,flow.Sequence,2_8_0,NA,NA,completion,15659.038,359896.5,359892.259,359908.942,375567.98,375569.3,2023-05-11T14:08:04Z,375584.663,Übersicht,kilindo,s,mgusano,chipukizi,kulinganisha,NA,NA,NA,"c(""distractor1"", ""distractor2"", ""distractor3"")",NA,NA,NA,NA,NA,NA,NA,NA,NA,NA,NA,NA,NA,NA,NA,NA,NA,NA,NA
6aa22,task,flow.Sequence,2_8,NA,NA,completion,15659.038,359896.5,359892.259,359908.942,375567.98,375569.4,2023-05-11T14:08:04Z,375584.663,Übersicht,kilindo,s,mgusano,chipukizi,kulinganisha,NA,NA,NA,"c(""distractor1"", ""distractor2"", ""distractor3"")",NA,NA,NA,NA,NA,NA,NA,NA,NA,NA,NA,NA,NA,NA,NA,NA,NA,NA,NA
6aa22,Shallow Question,html.Page,2_9_0_0,NA,NA,form submission,13630.936999998,375569.6,375567.98,375584.663,389215.6,389215.7,2023-05-11T14:08:17Z,389217.588,Aufstand,ugomaji,d,mazidio,msingi,kujieleza,ugomaji,NA,NA,"c(""distractor1"", ""distractor2"", ""distractor3"")",NA,NA,NA,NA,NA,NA,NA,NA,NA,NA,NA,NA,NA,NA,NA,NA,NA,NA,NA
6aa22,Save data screen,canvas.Screen,2_9_0_1,NA,NA,timeout,500.48999999999,389216.9,389200.905,389217.588,389701.395,389705.3,2023-05-11T14:08:18Z,389718.078,Aufstand,ugomaji,d,mazidio,msingi,kujieleza,NA,NA,1,"c(""distractor1"", ""distractor2"", ""distractor3"")",NA,NA,NA,NA,NA,NA,NA,NA,NA,NA,NA,NA,NA,NA,NA,NA,NA,NA,NA
6aa22,shallow,flow.Sequence,2_9_0,NA,NA,completion,14116.732,375569.5,375567.98,375584.663,389701.395,389705.6,2023-05-11T14:08:18Z,389718.078,Aufstand,ugomaji,d,mazidio,msingi,kujieleza,NA,NA,NA,"c(""distractor1"", ""distractor2"", ""distractor3"")",NA,NA,NA,NA,NA,NA,NA,NA,NA,NA,NA,NA,NA,NA,NA,NA,NA,NA,NA
6aa22,task,flow.Sequence,2_9,NA,NA,completion,14116.732,375569.5,375567.98,375584.663,389701.395,389705.6,2023-05-11T14:08:18Z,389718.078,Aufstand,ugomaji,d,mazidio,msingi,kujieleza,NA,NA,NA,"c(""distractor1"", ""distractor2"", ""distractor3"")",NA,NA,NA,NA,NA,NA,NA,NA,NA,NA,NA,NA,NA,NA,NA,NA,NA,NA,NA
6aa22,Shallow Question,html.Page,2_10_0_0,NA,NA,form submission,8544.6219999993,389705.7,389701.395,389718.078,398262.7,398262.9,2023-05-11T14:08:26Z,398276.457,System,maongozi,d,chokochoko,nuksani,mitaani,maongozi,NA,NA,"c(""distractor1"", ""distractor2"", ""distractor3"")",NA,NA,NA,NA,NA,NA,NA,NA,NA,NA,NA,NA,NA,NA,NA,NA,NA,NA,NA
6aa22,Save data screen,canvas.Screen,2_10_0_1,NA,NA,timeout,500.48999999999,398264,398259.774,398276.457,398760.264,398762.7,2023-05-11T14:08:27Z,398776.947,System,maongozi,d,chokochoko,nuksani,mitaani,NA,NA,1,"c(""distractor1"", ""distractor2"", ""distractor3"")",NA,NA,NA,NA,NA,NA,NA,NA,NA,NA,NA,NA,NA,NA,NA,NA,NA,NA,NA
6aa22,shallow,flow.Sequence,2_10_0,NA,NA,completion,9042.186,389705.7,389701.395,389718.078,398760.264,398762.8,2023-05-11T14:08:27Z,398776.947,System,maongozi,d,chokochoko,nuksani,mitaani,NA,NA,NA,"c(""distractor1"", ""distractor2"", ""distractor3"")",NA,NA,NA,NA,NA,NA,NA,NA,NA,NA,NA,NA,NA,NA,NA,NA,NA,NA,NA
6aa22,task,flow.Sequence,2_10,NA,NA,completion,9042.186,389705.7,389701.395,389718.078,398760.264,398762.9,2023-05-11T14:08:27Z,398776.947,System,maongozi,d,chokochoko,nuksani,mitaani,NA,NA,NA,"c(""distractor1"", ""distractor2"", ""distractor3"")",NA,NA,NA,NA,NA,NA,NA,NA,NA,NA,NA,NA,NA,NA,NA,NA,NA,NA,NA
6aa22,Shallow Question,html.Page,2_11_0_0,NA,NA,form submission,11285.852999997,398763,398760.264,398776.947,410062.8,410063,2023-05-11T14:08:38Z,410077.665,Gefährdung,kuhatarisha,s,uchokozi,udhaifu,makorowezo,kuhatarisha,NA,NA,"c(""distractor1"", ""distractor2"", ""distractor3"")",NA,NA,NA,NA,NA,NA,NA,NA,NA,NA,NA,NA,NA,NA,NA,NA,NA,NA,NA
6aa22,Save data screen,canvas.Screen,2_11_0_1,NA,NA,timeout,506.75200000004,410064.2,410060.982,410077.665,410567.734,410568.6,2023-05-11T14:08:39Z,410584.417,Gefährdung,kuhatarisha,s,uchokozi,udhaifu,makorowezo,NA,NA,1,"c(""distractor1"", ""distractor2"", ""distractor3"")",NA,NA,NA,NA,NA,NA,NA,NA,NA,NA,NA,NA,NA,NA,NA,NA,NA,NA,NA
6aa22,shallow,flow.Sequence,2_11_0,NA,NA,completion,11790.787,398763,398760.264,398776.947,410567.734,410568.8,2023-05-11T14:08:39Z,410584.417,Gefährdung,kuhatarisha,s,uchokozi,udhaifu,makorowezo,NA,NA,NA,"c(""distractor1"", ""distractor2"", ""distractor3"")",NA,NA,NA,NA,NA,NA,NA,NA,NA,NA,NA,NA,NA,NA,NA,NA,NA,NA,NA
6aa22,task,flow.Sequence,2_11,NA,NA,completion,11790.787,398763,398760.264,398776.947,410567.734,410568.9,2023-05-11T14:08:39Z,410584.417,Gefährdung,kuhatarisha,s,uchokozi,udhaifu,makorowezo,NA,NA,NA,"c(""distractor1"", ""distractor2"", ""distractor3"")",NA,NA,NA,NA,NA,NA,NA,NA,NA,NA,NA,NA,NA,NA,NA,NA,NA,NA,NA
6aa22,Shallow Question,html.Page,2_12_0_0,NA,NA,form submission,11079.583,410569,410567.734,410584.417,421664,421664.1,2023-05-11T14:08:50Z,421667.554,Verzögerung,kuchelewa,s,mwakilishi,mwanauchumi,jaribio,kuchelewa,NA,NA,"c(""distractor1"", ""distractor2"", ""distractor3"")",NA,NA,NA,NA,NA,NA,NA,NA,NA,NA,NA,NA,NA,NA,NA,NA,NA,NA,NA
6aa22,Save data screen,canvas.Screen,2_12_0_1,NA,NA,timeout,500.48999999999,421665.4,421650.871,421667.554,422151.361,422155.1,2023-05-11T14:08:50Z,422168.044,Verzögerung,kuchelewa,s,mwakilishi,mwanauchumi,jaribio,NA,NA,1,"c(""distractor1"", ""distractor2"", ""distractor3"")",NA,NA,NA,NA,NA,NA,NA,NA,NA,NA,NA,NA,NA,NA,NA,NA,NA,NA,NA
6aa22,shallow,flow.Sequence,2_12_0,NA,NA,completion,11566.944,410569,410567.734,410584.417,422151.361,422155.3,2023-05-11T14:08:50Z,422168.044,Verzögerung,kuchelewa,s,mwakilishi,mwanauchumi,jaribio,NA,NA,NA,"c(""distractor1"", ""distractor2"", ""distractor3"")",NA,NA,NA,NA,NA,NA,NA,NA,NA,NA,NA,NA,NA,NA,NA,NA,NA,NA,NA
6aa22,task,flow.Sequence,2_12,NA,NA,completion,11566.944,410569,410567.734,410584.417,422151.361,422155.3,2023-05-11T14:08:50Z,422168.044,Verzögerung,kuchelewa,s,mwakilishi,mwanauchumi,jaribio,NA,NA,NA,"c(""distractor1"", ""distractor2"", ""distractor3"")",NA,NA,NA,NA,NA,NA,NA,NA,NA,NA,NA,NA,NA,NA,NA,NA,NA,NA,NA
6aa22,Shallow Question,html.Page,2_13_0_0,NA,NA,form submission,4804.5559999978,422155.4,422151.361,422168.044,426972.6,426972.8,2023-05-11T14:08:55Z,426972.748,Prüfung,mtihani,d,mkulima,mtizamo,ufumbuzi,mtihani,NA,NA,"c(""distractor1"", ""distractor2"", ""distractor3"")",NA,NA,NA,NA,NA,NA,NA,NA,NA,NA,NA,NA,NA,NA,NA,NA,NA,NA,NA
6aa22,Save data screen,canvas.Screen,2_13_0_1,NA,NA,timeout,500.48999999999,426974.1,426956.065,426972.748,427456.555,427460.9,2023-05-11T14:08:55Z,427473.238,Prüfung,mtihani,d,mkulima,mtizamo,ufumbuzi,NA,NA,1,"c(""distractor1"", ""distractor2"", ""distractor3"")",NA,NA,NA,NA,NA,NA,NA,NA,NA,NA,NA,NA,NA,NA,NA,NA,NA,NA,NA
6aa22,shallow,flow.Sequence,2_13_0,NA,NA,completion,5288.511,422155.4,422151.361,422168.044,427456.555,427461,2023-05-11T14:08:55Z,427473.238,Prüfung,mtihani,d,mkulima,mtizamo,ufumbuzi,NA,NA,NA,"c(""distractor1"", ""distractor2"", ""distractor3"")",NA,NA,NA,NA,NA,NA,NA,NA,NA,NA,NA,NA,NA,NA,NA,NA,NA,NA,NA
6aa22,task,flow.Sequence,2_13,NA,NA,completion,5288.511,422155.4,422151.361,422168.044,427456.555,427461.1,2023-05-11T14:08:55Z,427473.238,Prüfung,mtihani,d,mkulima,mtizamo,ufumbuzi,NA,NA,NA,"c(""distractor1"", ""distractor2"", ""distractor3"")",NA,NA,NA,NA,NA,NA,NA,NA,NA,NA,NA,NA,NA,NA,NA,NA,NA,NA,NA
6aa22,Shallow Question,html.Page,2_14_0_0,NA,NA,form submission,6622.262,427461.2,427456.555,427473.238,434095.5,434095.7,2023-05-11T14:09:02Z,434102.847,Kultur,utamaduni,s,shetani,gerezani,mazingira,utamaduni,NA,NA,"c(""distractor1"", ""distractor2"", ""distractor3"")",NA,NA,NA,NA,NA,NA,NA,NA,NA,NA,NA,NA,NA,NA,NA,NA,NA,NA,NA
6aa22,Save data screen,canvas.Screen,2_14_0_1,NA,NA,timeout,500.48999999999,434096.8,434086.164,434102.847,434586.654,434588.4,2023-05-11T14:09:03Z,434603.337,Kultur,utamaduni,s,shetani,gerezani,mazingira,NA,NA,1,"c(""distractor1"", ""distractor2"", ""distractor3"")",NA,NA,NA,NA,NA,NA,NA,NA,NA,NA,NA,NA,NA,NA,NA,NA,NA,NA,NA
6aa22,shallow,flow.Sequence,2_14_0,NA,NA,completion,7113.416,427461.2,427456.555,427473.238,434586.654,434588.5,2023-05-11T14:09:03Z,434603.337,Kultur,utamaduni,s,shetani,gerezani,mazingira,NA,NA,NA,"c(""distractor1"", ""distractor2"", ""distractor3"")",NA,NA,NA,NA,NA,NA,NA,NA,NA,NA,NA,NA,NA,NA,NA,NA,NA,NA,NA
6aa22,task,flow.Sequence,2_14,NA,NA,completion,7113.416,427461.2,427456.555,427473.238,434586.654,434591.7,2023-05-11T14:09:03Z,434603.337,Kultur,utamaduni,s,shetani,gerezani,mazingira,NA,NA,NA,"c(""distractor1"", ""distractor2"", ""distractor3"")",NA,NA,NA,NA,NA,NA,NA,NA,NA,NA,NA,NA,NA,NA,NA,NA,NA,NA,NA
6aa22,Shallow Question,html.Page,2_15_0_0,NA,NA,form submission,1706.8629999993,434591.8,434586.654,434603.337,436310.2,436310.3,2023-05-11T14:09:04Z,436321.686,Lawine,banguko,d,maambukizi,usuluhishi,chekechea,banguko,NA,NA,"c(""distractor1"", ""distractor2"", ""distractor3"")",NA,NA,NA,NA,NA,NA,NA,NA,NA,NA,NA,NA,NA,NA,NA,NA,NA,NA,NA
6aa22,Save data screen,canvas.Screen,2_15_0_1,NA,NA,timeout,500.48999999999,436310.8,436305.003,436321.686,436805.493,436809.5,2023-05-11T14:09:05Z,436822.176,Lawine,banguko,d,maambukizi,usuluhishi,chekechea,NA,NA,1,"c(""distractor1"", ""distractor2"", ""distractor3"")",NA,NA,NA,NA,NA,NA,NA,NA,NA,NA,NA,NA,NA,NA,NA,NA,NA,NA,NA
6aa22,shallow,flow.Sequence,2_15_0,NA,NA,completion,2202.156,434591.8,434586.654,434603.337,436805.493,436809.6,2023-05-11T14:09:05Z,436822.176,Lawine,banguko,d,maambukizi,usuluhishi,chekechea,NA,NA,NA,"c(""distractor1"", ""distractor2"", ""distractor3"")",NA,NA,NA,NA,NA,NA,NA,NA,NA,NA,NA,NA,NA,NA,NA,NA,NA,NA,NA
6aa22,task,flow.Sequence,2_15,NA,NA,completion,2202.156,434591.8,434586.654,434603.337,436805.493,436809.7,2023-05-11T14:09:05Z,436822.176,Lawine,banguko,d,maambukizi,usuluhishi,chekechea,NA,NA,NA,"c(""distractor1"", ""distractor2"", ""distractor3"")",NA,NA,NA,NA,NA,NA,NA,NA,NA,NA,NA,NA,NA,NA,NA,NA,NA,NA,NA
6aa22,retrieval block 2 (multiple choice),flow.Loop,2,NA,NA,completion,123124.067,313669.9,313664.743,313681.426,436805.493,436809.8,2023-05-11T14:09:05Z,436822.176,NA,NA,NA,NA,NA,NA,NA,NA,NA,"c(""distractor1"", ""distractor2"", ""distractor3"")",NA,NA,NA,NA,NA,NA,NA,NA,NA,NA,NA,NA,NA,NA,NA,NA,NA,NA,NA
6aa22,End,canvas.Screen,3,NA,keypress(Space),response,2534.9239999978,436809.8,436805.493,436822.176,439357.1,439359.1,2023-05-11T14:09:07Z,439374.675,NA,NA,NA,NA,NA,NA,NA,NA,NA,NULL,NA,NA,NA,NA,NA,NA,NA,NA,NA,NA,NA,NA,NA,NA,NA,NA,NA,NA,NA
6aa22,root,flow.Sequence,NA,NA,NA,completion,438587.455,734.5,152.374,769.645,439357.1,439359.3,2023-05-11T14:09:07Z,439374.675,NA,NA,NA,NA,NA,NA,NA,NA,NA,NULL,NA,NA,NA,NA,NA,NA,NA,NA,NA,NA,NA,NA,NA,NA,NA,NA,NA,NA,NA
