observation,sender,sender_type,sender_id,response,response_action,ended_on,duration,time_run,time_render,time_show,time_end,time_commit,timestamp,time_switch,distractors,german,swahili,enc,distractor1,distractor2,distractor3,response_2,x,correct,x_2,url_vp,url_sess,meta_labjs_version,meta_location,meta_user_agent,meta_platform,meta_language,meta_locale,meta_time_zone,meta_timezone_offset,meta_screen_width,meta_screen_height,meta_scroll_width,meta_scroll_height,meta_window_inner_width,meta_window_inner_height,meta_device_pixel_ratio,meta_labjs_build_flavor,meta_labjs_build_commit
3bc19,Introduction general,canvas.Screen,0,weiter,keypress(q),response,1944049.453,258,99.487,266.147,1944315.6,1944346.6,2023-03-02T12:41:42Z,1944355.284,NULL,NA,NA,NA,NA,NA,NA,NA,NA,NA,NA,110,3,20.2.4,https://neurocog.fernuni.ch/studies/vweber/encoding_immediate/index.html?vp=110&sess=3,"Mozilla/5.0 (Macintosh; Intel Mac OS X 10_15_7) AppleWebKit/537.36 (KHTML, like Gecko) Chrome/110.0.0.0 Safari/537.36",MacIntel,de-DE,de,Europe/Zurich,-60,1440,900,1426,692,1426,740,2,production,f5b4a49f956347addd546a832a3327688c2c0fef
3bc19,Introduction practice,canvas.Screen,1_0,NA,keypress(Space),response,1316.1160000004,1944346.8,1944338.618,1944355.284,1945671.4,1945674.5,2023-03-02T12:41:43Z,1945689.189,NULL,NA,NA,NA,NA,NA,NA,NA,NA,NA,NA,NA,NA,NA,NA,NA,NA,NA,NA,NA,NA,NA,NA,NA,NA,NA,NA,NA,NA,NA
3bc19,deep,flow.Sequence,1_1_0_0,NA,NA,skipped,NA,1945674.9,NA,NA,1945671.4,1945675.2,2023-03-02T12:41:43Z,1945689.189,"c(""distractor1"", ""distractor2"", ""distractor3"")",Kritik,lawama,s,dereva,nafasi,mawazo,NA,NA,NA,NA,NA,NA,NA,NA,NA,NA,NA,NA,NA,NA,NA,NA,NA,NA,NA,NA,NA,NA,NA
3bc19,Shallow Question,html.Page,1_1_0_1_0,NA,NA,form submission,8166.9110000015,1945675.5,1945672.523,1945689.189,1953856.1,1953856.3,2023-03-02T12:41:51Z,1953855.529,"c(""distractor1"", ""distractor2"", ""distractor3"")",Kritik,lawama,s,dereva,nafasi,mawazo,mawazo,NA,NA,NA,NA,NA,NA,NA,NA,NA,NA,NA,NA,NA,NA,NA,NA,NA,NA,NA,NA,NA,NA
3bc19,"""Richtig""-Screen",canvas.Screen,1_1_0_1_1,NA,NA,skipped,NA,1953857.4,NA,NA,1953856.1,1953857.4,2023-03-02T12:41:51Z,1953855.529,"c(""distractor1"", ""distractor2"", ""distractor3"")",Kritik,lawama,s,dereva,nafasi,mawazo,NA,NA,NA,NA,NA,NA,NA,NA,NA,NA,NA,NA,NA,NA,NA,NA,NA,NA,NA,NA,NA,NA,NA
3bc19,"""Falsch""-Screen",canvas.Screen,1_1_0_1_2,NA,NA,timeout,4999.7999999998,1953858,1953838.863,1953855.529,1958838.663,1958845,2023-03-02T12:41:56Z,1958855.329,"c(""distractor1"", ""distractor2"", ""distractor3"")",Kritik,lawama,s,dereva,nafasi,mawazo,NA,NA,0,NA,NA,NA,NA,NA,NA,NA,NA,NA,NA,NA,NA,NA,NA,NA,NA,NA,NA,NA,NA
3bc19,shallow,flow.Sequence,1_1_0_1,NA,NA,completion,13149.474,1945675.4,1945672.523,1945689.189,1958838.663,1958845.4,2023-03-02T12:41:56Z,1958855.329,"c(""distractor1"", ""distractor2"", ""distractor3"")",Kritik,lawama,s,dereva,nafasi,mawazo,NA,NA,NA,NA,NA,NA,NA,NA,NA,NA,NA,NA,NA,NA,NA,NA,NA,NA,NA,NA,NA,NA,NA
3bc19,task,flow.Sequence,1_1_0,NA,NA,completion,13149.474,1945674.8,1945672.523,1945689.189,1958838.663,1958845.5,2023-03-02T12:41:56Z,1958855.329,"c(""distractor1"", ""distractor2"", ""distractor3"")",Kritik,lawama,s,dereva,nafasi,mawazo,NA,NA,NA,NA,NA,NA,NA,NA,NA,NA,NA,NA,NA,NA,NA,NA,NA,NA,NA,NA,NA,NA,NA
3bc19,Deep Question,html.Page,1_1_1_0_0,NA,NA,form submission,10977.271000002,1958845.8,1958838.663,1958855.329,1969832.6,1969833.1,2023-03-02T12:42:07Z,1969839.549,"c(""distractor1"", ""distractor2"", ""distractor3"")",Gesundheit,salama,d,NA,NA,NA,d,NA,NA,NA,NA,NA,NA,NA,NA,NA,NA,NA,NA,NA,NA,NA,NA,NA,NA,NA,NA,NA,NA
3bc19,"""Richtig""-Screen",canvas.Screen,1_1_1_0_1,NA,NA,skipped,NA,1969836.4,NA,NA,1969832.6,1969836.5,2023-03-02T12:42:07Z,1969839.549,"c(""distractor1"", ""distractor2"", ""distractor3"")",Gesundheit,salama,d,NA,NA,NA,NA,NA,NA,NA,NA,NA,NA,NA,NA,NA,NA,NA,NA,NA,NA,NA,NA,NA,NA,NA,NA,NA,NA
3bc19,"""Falsch""-Screen",canvas.Screen,1_1_1_0_2,NA,NA,timeout,4999.7999999998,1969837.4,1969822.883,1969839.549,1974822.683,1974824.9,2023-03-02T12:42:12Z,1974839.349,"c(""distractor1"", ""distractor2"", ""distractor3"")",Gesundheit,salama,d,NA,NA,NA,NA,NA,0,NA,NA,NA,NA,NA,NA,NA,NA,NA,NA,NA,NA,NA,NA,NA,NA,NA,NA,NA,NA
3bc19,deep,flow.Sequence,1_1_1_0,NA,NA,completion,15967.354,1958845.7,1958838.663,1958855.329,1974822.683,1974825.4,2023-03-02T12:42:12Z,1974839.349,"c(""distractor1"", ""distractor2"", ""distractor3"")",Gesundheit,salama,d,NA,NA,NA,NA,NA,NA,NA,NA,NA,NA,NA,NA,NA,NA,NA,NA,NA,NA,NA,NA,NA,NA,NA,NA,NA,NA
3bc19,shallow,flow.Sequence,1_1_1_1,NA,NA,skipped,NA,1974825.7,NA,NA,1974822.683,1974825.8,2023-03-02T12:42:12Z,1974839.349,"c(""distractor1"", ""distractor2"", ""distractor3"")",Gesundheit,salama,d,NA,NA,NA,NA,NA,NA,NA,NA,NA,NA,NA,NA,NA,NA,NA,NA,NA,NA,NA,NA,NA,NA,NA,NA,NA,NA
3bc19,task,flow.Sequence,1_1_1,NA,NA,completion,15967.354,1958845.7,1958838.663,1958855.329,1974822.683,1974826.1,2023-03-02T12:42:12Z,1974839.349,"c(""distractor1"", ""distractor2"", ""distractor3"")",Gesundheit,salama,d,NA,NA,NA,NA,NA,NA,NA,NA,NA,NA,NA,NA,NA,NA,NA,NA,NA,NA,NA,NA,NA,NA,NA,NA,NA,NA
3bc19,Deep Question,html.Page,1_1_2_0_0,NA,NA,form submission,4335.3510000012,1974826.4,1974822.683,1974839.349,1979174.7,1979175.3,2023-03-02T12:42:16Z,1979189.175,"c(""distractor1"", ""distractor2"", ""distractor3"")",Qualität,mtindo,d,NA,NA,NA,maw,NA,NA,NA,NA,NA,NA,NA,NA,NA,NA,NA,NA,NA,NA,NA,NA,NA,NA,NA,NA,NA,NA
3bc19,"""Richtig""-Screen",canvas.Screen,1_1_2_0_1,NA,NA,skipped,NA,1979179,NA,NA,1979174.7,1979179.3,2023-03-02T12:42:16Z,1979189.175,"c(""distractor1"", ""distractor2"", ""distractor3"")",Qualität,mtindo,d,NA,NA,NA,NA,NA,NA,NA,NA,NA,NA,NA,NA,NA,NA,NA,NA,NA,NA,NA,NA,NA,NA,NA,NA,NA,NA
3bc19,"""Falsch""-Screen",canvas.Screen,1_1_2_0_2,NA,NA,timeout,4999.8,1979180.3,1979172.509,1979189.175,1984172.309,1984175.1,2023-03-02T12:42:21Z,1984188.975,"c(""distractor1"", ""distractor2"", ""distractor3"")",Qualität,mtindo,d,NA,NA,NA,NA,NA,0,NA,NA,NA,NA,NA,NA,NA,NA,NA,NA,NA,NA,NA,NA,NA,NA,NA,NA,NA,NA
3bc19,deep,flow.Sequence,1_1_2_0,NA,NA,completion,9332.96,1974826.3,1974822.683,1974839.349,1984172.309,1984175.5,2023-03-02T12:42:21Z,1984188.975,"c(""distractor1"", ""distractor2"", ""distractor3"")",Qualität,mtindo,d,NA,NA,NA,NA,NA,NA,NA,NA,NA,NA,NA,NA,NA,NA,NA,NA,NA,NA,NA,NA,NA,NA,NA,NA,NA,NA
3bc19,shallow,flow.Sequence,1_1_2_1,NA,NA,skipped,NA,1984175.6,NA,NA,1984172.309,1984175.8,2023-03-02T12:42:21Z,1984188.975,"c(""distractor1"", ""distractor2"", ""distractor3"")",Qualität,mtindo,d,NA,NA,NA,NA,NA,NA,NA,NA,NA,NA,NA,NA,NA,NA,NA,NA,NA,NA,NA,NA,NA,NA,NA,NA,NA,NA
3bc19,task,flow.Sequence,1_1_2,NA,NA,completion,9332.96,1974826.2,1974822.683,1974839.349,1984172.309,1984175.9,2023-03-02T12:42:21Z,1984188.975,"c(""distractor1"", ""distractor2"", ""distractor3"")",Qualität,mtindo,d,NA,NA,NA,NA,NA,NA,NA,NA,NA,NA,NA,NA,NA,NA,NA,NA,NA,NA,NA,NA,NA,NA,NA,NA,NA,NA
3bc19,deep,flow.Sequence,1_1_3_0,NA,NA,skipped,NA,1984176.2,NA,NA,1984172.309,1984176.3,2023-03-02T12:42:21Z,1984188.975,"c(""distractor1"", ""distractor2"", ""distractor3"")",Gegenwart,hadhara,s,katiba,jokofu,mikopo,NA,NA,NA,NA,NA,NA,NA,NA,NA,NA,NA,NA,NA,NA,NA,NA,NA,NA,NA,NA,NA,NA,NA
3bc19,Shallow Question,html.Page,1_1_3_1_0,NA,NA,form submission,4137.1250000014,1984176.4,1984172.309,1984188.975,1988326.1,1988326.5,2023-03-02T12:42:26Z,1988339.482,"c(""distractor1"", ""distractor2"", ""distractor3"")",Gegenwart,hadhara,s,katiba,jokofu,mikopo,mikopo,NA,NA,NA,NA,NA,NA,NA,NA,NA,NA,NA,NA,NA,NA,NA,NA,NA,NA,NA,NA,NA,NA
3bc19,"""Richtig""-Screen",canvas.Screen,1_1_3_1_1,NA,NA,skipped,NA,1988329.9,NA,NA,1988326.1,1988330.1,2023-03-02T12:42:26Z,1988339.482,"c(""distractor1"", ""distractor2"", ""distractor3"")",Gegenwart,hadhara,s,katiba,jokofu,mikopo,NA,NA,NA,NA,NA,NA,NA,NA,NA,NA,NA,NA,NA,NA,NA,NA,NA,NA,NA,NA,NA,NA,NA
3bc19,"""Falsch""-Screen",canvas.Screen,1_1_3_1_2,NA,NA,timeout,4999.7999999998,1988331,1988322.816,1988339.482,1993322.616,1993324.3,2023-03-02T12:42:31Z,1993339.282,"c(""distractor1"", ""distractor2"", ""distractor3"")",Gegenwart,hadhara,s,katiba,jokofu,mikopo,NA,NA,0,NA,NA,NA,NA,NA,NA,NA,NA,NA,NA,NA,NA,NA,NA,NA,NA,NA,NA,NA,NA
3bc19,shallow,flow.Sequence,1_1_3_1,NA,NA,completion,9133.6409999998,1984176.4,1984172.309,1984188.975,1993322.616,1993324.9,2023-03-02T12:42:31Z,1993339.282,"c(""distractor1"", ""distractor2"", ""distractor3"")",Gegenwart,hadhara,s,katiba,jokofu,mikopo,NA,NA,NA,NA,NA,NA,NA,NA,NA,NA,NA,NA,NA,NA,NA,NA,NA,NA,NA,NA,NA,NA,NA
3bc19,task,flow.Sequence,1_1_3,NA,NA,completion,9133.6409999998,1984176.1,1984172.309,1984188.975,1993322.616,1993325.2,2023-03-02T12:42:31Z,1993339.282,"c(""distractor1"", ""distractor2"", ""distractor3"")",Gegenwart,hadhara,s,katiba,jokofu,mikopo,NA,NA,NA,NA,NA,NA,NA,NA,NA,NA,NA,NA,NA,NA,NA,NA,NA,NA,NA,NA,NA,NA,NA
3bc19,deep,flow.Sequence,1_1_4_0,NA,NA,skipped,NA,1993325.5,NA,NA,1993322.616,1993325.7,2023-03-02T12:42:31Z,1993339.282,"c(""distractor1"", ""distractor2"", ""distractor3"")",Rückhalt,msaada,s,muhula,auwali,kiwimbe,NA,NA,NA,NA,NA,NA,NA,NA,NA,NA,NA,NA,NA,NA,NA,NA,NA,NA,NA,NA,NA,NA,NA
3bc19,Shallow Question,html.Page,1_1_4_1_0,NA,NA,form submission,3704.9180000012,1993325.8,1993322.616,1993339.282,1997044.2,1997044.8,2023-03-02T12:42:34Z,1997055.8,"c(""distractor1"", ""distractor2"", ""distractor3"")",Rückhalt,msaada,s,muhula,auwali,kiwimbe,muhula,NA,NA,NA,NA,NA,NA,NA,NA,NA,NA,NA,NA,NA,NA,NA,NA,NA,NA,NA,NA,NA,NA
3bc19,"""Richtig""-Screen",canvas.Screen,1_1_4_1_1,NA,NA,skipped,NA,1997047.6,NA,NA,1997044.2,1997047.7,2023-03-02T12:42:34Z,1997055.8,"c(""distractor1"", ""distractor2"", ""distractor3"")",Rückhalt,msaada,s,muhula,auwali,kiwimbe,NA,NA,NA,NA,NA,NA,NA,NA,NA,NA,NA,NA,NA,NA,NA,NA,NA,NA,NA,NA,NA,NA,NA
3bc19,"""Falsch""-Screen",canvas.Screen,1_1_4_1_2,NA,NA,timeout,4999.8,1997048.4,1997039.134,1997055.8,2002038.934,2002041.1,2023-03-02T12:42:39Z,2002055.6,"c(""distractor1"", ""distractor2"", ""distractor3"")",Rückhalt,msaada,s,muhula,auwali,kiwimbe,NA,NA,0,NA,NA,NA,NA,NA,NA,NA,NA,NA,NA,NA,NA,NA,NA,NA,NA,NA,NA,NA,NA
3bc19,shallow,flow.Sequence,1_1_4_1,NA,NA,completion,8699.652,1993325.8,1993322.616,1993339.282,2002038.934,2002041.5,2023-03-02T12:42:39Z,2002055.6,"c(""distractor1"", ""distractor2"", ""distractor3"")",Rückhalt,msaada,s,muhula,auwali,kiwimbe,NA,NA,NA,NA,NA,NA,NA,NA,NA,NA,NA,NA,NA,NA,NA,NA,NA,NA,NA,NA,NA,NA,NA
3bc19,task,flow.Sequence,1_1_4,NA,NA,completion,8699.652,1993325.3,1993322.616,1993339.282,2002038.934,2002041.7,2023-03-02T12:42:39Z,2002055.6,"c(""distractor1"", ""distractor2"", ""distractor3"")",Rückhalt,msaada,s,muhula,auwali,kiwimbe,NA,NA,NA,NA,NA,NA,NA,NA,NA,NA,NA,NA,NA,NA,NA,NA,NA,NA,NA,NA,NA,NA,NA
3bc19,Deep Question,html.Page,1_1_5_0_0,NA,NA,form submission,4838.2000000007,2002042.1,2002038.934,2002055.6,2006893.8,2006894.2,2023-03-02T12:42:44Z,2006906.533,"c(""distractor1"", ""distractor2"", ""distractor3"")",Schatten,kivuli,d,NA,NA,NA,d,NA,NA,NA,NA,NA,NA,NA,NA,NA,NA,NA,NA,NA,NA,NA,NA,NA,NA,NA,NA,NA,NA
3bc19,"""Richtig""-Screen",canvas.Screen,1_1_5_0_1,NA,NA,skipped,NA,2006897,NA,NA,2006893.8,2006897.1,2023-03-02T12:42:44Z,2006906.533,"c(""distractor1"", ""distractor2"", ""distractor3"")",Schatten,kivuli,d,NA,NA,NA,NA,NA,NA,NA,NA,NA,NA,NA,NA,NA,NA,NA,NA,NA,NA,NA,NA,NA,NA,NA,NA,NA,NA
3bc19,"""Falsch""-Screen",canvas.Screen,1_1_5_0_2,NA,NA,timeout,4999.8,2006898.5,2006889.867,2006906.533,2011889.667,2011892.1,2023-03-02T12:42:49Z,2011906.333,"c(""distractor1"", ""distractor2"", ""distractor3"")",Schatten,kivuli,d,NA,NA,NA,NA,NA,0,NA,NA,NA,NA,NA,NA,NA,NA,NA,NA,NA,NA,NA,NA,NA,NA,NA,NA,NA,NA
3bc19,deep,flow.Sequence,1_1_5_0,NA,NA,completion,9834.0669999998,2002042,2002038.934,2002055.6,2011889.667,2011892.6,2023-03-02T12:42:49Z,2011906.333,"c(""distractor1"", ""distractor2"", ""distractor3"")",Schatten,kivuli,d,NA,NA,NA,NA,NA,NA,NA,NA,NA,NA,NA,NA,NA,NA,NA,NA,NA,NA,NA,NA,NA,NA,NA,NA,NA,NA
3bc19,shallow,flow.Sequence,1_1_5_1,NA,NA,skipped,NA,2011892.7,NA,NA,2011889.667,2011892.9,2023-03-02T12:42:49Z,2011906.333,"c(""distractor1"", ""distractor2"", ""distractor3"")",Schatten,kivuli,d,NA,NA,NA,NA,NA,NA,NA,NA,NA,NA,NA,NA,NA,NA,NA,NA,NA,NA,NA,NA,NA,NA,NA,NA,NA,NA
3bc19,task,flow.Sequence,1_1_5,NA,NA,completion,9834.0669999998,2002041.9,2002038.934,2002055.6,2011889.667,2011893.1,2023-03-02T12:42:49Z,2011906.333,"c(""distractor1"", ""distractor2"", ""distractor3"")",Schatten,kivuli,d,NA,NA,NA,NA,NA,NA,NA,NA,NA,NA,NA,NA,NA,NA,NA,NA,NA,NA,NA,NA,NA,NA,NA,NA,NA,NA
3bc19,block,flow.Loop,1_1,NA,NA,completion,66200.478,1945674.8,1945672.523,1945689.189,2011889.667,2011893.5,2023-03-02T12:42:49Z,2011906.333,"c(""distractor1"", ""distractor2"", ""distractor3"")",NA,NA,NA,NA,NA,NA,NA,NA,NA,NA,NA,NA,NA,NA,NA,NA,NA,NA,NA,NA,NA,NA,NA,NA,NA,NA,NA,NA,NA
3bc19,Practice,flow.Sequence,1,NA,NA,completion,67534.383,1944346.8,1944338.618,1944355.284,2011889.667,2011893.6,2023-03-02T12:42:49Z,2011906.333,NULL,NA,NA,NA,NA,NA,NA,NA,NA,NA,NA,NA,NA,NA,NA,NA,NA,NA,NA,NA,NA,NA,NA,NA,NA,NA,NA,NA,NA,NA
3bc19,Experiment start,canvas.Screen,2,weiter,keypress(q),response,35883.667,2011893.8,2011889.667,2011906.333,2047790,2047794.5,2023-03-02T12:43:25Z,2047838.229,NULL,NA,NA,NA,NA,NA,NA,NA,NA,NA,NA,NA,NA,NA,NA,NA,NA,NA,NA,NA,NA,NA,NA,NA,NA,NA,NA,NA,NA,NA
3bc19,Deep Question,html.Page,3_0_0_0_0_0_0,NA,NA,form submission,6344.8710000014,2047852.5,2047788.231,2047838.229,2054183.1,2054183.6,2023-03-02T12:43:31Z,2054190.218,NULL,Annäherung,maegesho,d,NA,NA,NA,c,NA,NA,0,NA,NA,NA,NA,NA,NA,NA,NA,NA,NA,NA,NA,NA,NA,NA,NA,NA,NA,NA
3bc19,"""Richtig""-Screen",canvas.Screen,3_0_0_0_0_0_1,NA,NA,skipped,NA,2054187.1,NA,NA,2054183.1,2054187.4,2023-03-02T12:43:31Z,2054190.218,NULL,Annäherung,maegesho,d,NA,NA,NA,NA,sdf,NA,0,NA,NA,NA,NA,NA,NA,NA,NA,NA,NA,NA,NA,NA,NA,NA,NA,NA,NA,NA
3bc19,"""Falsch""-Screen",canvas.Screen,3_0_0_0_0_0_2,NA,NA,timeout,4999.7999999998,2054188.2,2054173.552,2054190.218,2059173.352,2059176,2023-03-02T12:43:36Z,2059190.018,NULL,Annäherung,maegesho,d,NA,NA,NA,NA,sdf,0,0,NA,NA,NA,NA,NA,NA,NA,NA,NA,NA,NA,NA,NA,NA,NA,NA,NA,NA,NA
3bc19,deep,flow.Sequence,3_0_0_0_0_0,NA,NA,completion,11335.123,2047852.5,2047788.231,2047838.229,2059173.352,2059176.4,2023-03-02T12:43:36Z,2059190.018,NULL,Annäherung,maegesho,d,NA,NA,NA,NA,sdf,NA,0,NA,NA,NA,NA,NA,NA,NA,NA,NA,NA,NA,NA,NA,NA,NA,NA,NA,NA,NA
3bc19,shallow,flow.Sequence,3_0_0_0_0_1,NA,NA,skipped,NA,2059176.5,NA,NA,2059173.352,2059176.6,2023-03-02T12:43:36Z,2059190.018,NULL,Annäherung,maegesho,d,NA,NA,NA,NA,sdf,NA,0,NA,NA,NA,NA,NA,NA,NA,NA,NA,NA,NA,NA,NA,NA,NA,NA,NA,NA,NA
3bc19,task,flow.Sequence,3_0_0_0_0,NA,NA,completion,11335.123,2047852.5,2047788.231,2047838.229,2059173.352,2059176.8,2023-03-02T12:43:36Z,2059190.018,NULL,Annäherung,maegesho,d,NA,NA,NA,NA,sdf,NA,0,NA,NA,NA,NA,NA,NA,NA,NA,NA,NA,NA,NA,NA,NA,NA,NA,NA,NA,NA
3bc19,deep,flow.Sequence,3_0_0_0_1_0,NA,NA,skipped,NA,2059176.9,NA,NA,2059173.352,2059177.1,2023-03-02T12:43:36Z,2059190.018,NULL,Vermutung,udhanifu,s,haramia,tikisho,itifaki,NA,sdf,NA,0,NA,NA,NA,NA,NA,NA,NA,NA,NA,NA,NA,NA,NA,NA,NA,NA,NA,NA,NA
3bc19,Shallow Question,html.Page,3_0_0_0_1_1_0,NA,NA,form submission,6082.2820000008,2059177.2,2059173.352,2059190.018,2065272.3,2065273,2023-03-02T12:43:42Z,2065273.611,NULL,Vermutung,udhanifu,s,haramia,tikisho,itifaki,haramia,NA,NA,0,NA,NA,NA,NA,NA,NA,NA,NA,NA,NA,NA,NA,NA,NA,NA,NA,NA,NA,NA
3bc19,"""Richtig""-Screen",canvas.Screen,3_0_0_0_1_1_1,NA,NA,skipped,NA,2065276.8,NA,NA,2065272.3,2065277,2023-03-02T12:43:42Z,2065273.611,NULL,Vermutung,udhanifu,s,haramia,tikisho,itifaki,NA,sdf,NA,0,NA,NA,NA,NA,NA,NA,NA,NA,NA,NA,NA,NA,NA,NA,NA,NA,NA,NA,NA
3bc19,"""Falsch""-Screen",canvas.Screen,3_0_0_0_1_1_2,NA,NA,timeout,4999.8,2065277.6,2065256.945,2065273.611,2070256.745,2070259.2,2023-03-02T12:43:47Z,2070273.411,NULL,Vermutung,udhanifu,s,haramia,tikisho,itifaki,NA,sdf,0,0,NA,NA,NA,NA,NA,NA,NA,NA,NA,NA,NA,NA,NA,NA,NA,NA,NA,NA,NA
3bc19,shallow,flow.Sequence,3_0_0_0_1_1,NA,NA,completion,11066.727,2059177.1,2059173.352,2059190.018,2070256.745,2070259.8,2023-03-02T12:43:47Z,2070273.411,NULL,Vermutung,udhanifu,s,haramia,tikisho,itifaki,NA,sdf,NA,0,NA,NA,NA,NA,NA,NA,NA,NA,NA,NA,NA,NA,NA,NA,NA,NA,NA,NA,NA
3bc19,task,flow.Sequence,3_0_0_0_1,NA,NA,completion,11066.727,2059176.9,2059173.352,2059190.018,2070256.745,2070260,2023-03-02T12:43:47Z,2070273.411,NULL,Vermutung,udhanifu,s,haramia,tikisho,itifaki,NA,sdf,NA,0,NA,NA,NA,NA,NA,NA,NA,NA,NA,NA,NA,NA,NA,NA,NA,NA,NA,NA,NA
3bc19,Deep Question,html.Page,3_0_0_0_2_0_0,NA,NA,form submission,3191.8890000007,2070260.2,2070256.745,2070273.411,2073465.3,2073465.8,2023-03-02T12:43:51Z,2073473.973,NULL,Sympathie,mapendano,d,NA,NA,NA,s,NA,NA,0,NA,NA,NA,NA,NA,NA,NA,NA,NA,NA,NA,NA,NA,NA,NA,NA,NA,NA,NA
3bc19,"""Richtig""-Screen",canvas.Screen,3_0_0_0_2_0_1,NA,NA,skipped,NA,2073468.3,NA,NA,2073465.3,2073468.6,2023-03-02T12:43:51Z,2073473.973,NULL,Sympathie,mapendano,d,NA,NA,NA,NA,sdf,NA,0,NA,NA,NA,NA,NA,NA,NA,NA,NA,NA,NA,NA,NA,NA,NA,NA,NA,NA,NA
3bc19,"""Falsch""-Screen",canvas.Screen,3_0_0_0_2_0_2,NA,NA,timeout,4999.8,2073469.7,2073457.307,2073473.973,2078457.107,2078459.1,2023-03-02T12:43:56Z,2078473.773,NULL,Sympathie,mapendano,d,NA,NA,NA,NA,sdf,0,0,NA,NA,NA,NA,NA,NA,NA,NA,NA,NA,NA,NA,NA,NA,NA,NA,NA,NA,NA
3bc19,deep,flow.Sequence,3_0_0_0_2_0,NA,NA,completion,8183.696,2070260.2,2070256.745,2070273.411,2078457.107,2078459.4,2023-03-02T12:43:56Z,2078473.773,NULL,Sympathie,mapendano,d,NA,NA,NA,NA,sdf,NA,0,NA,NA,NA,NA,NA,NA,NA,NA,NA,NA,NA,NA,NA,NA,NA,NA,NA,NA,NA
3bc19,shallow,flow.Sequence,3_0_0_0_2_1,NA,NA,skipped,NA,2078459.5,NA,NA,2078457.107,2078459.6,2023-03-02T12:43:56Z,2078473.773,NULL,Sympathie,mapendano,d,NA,NA,NA,NA,sdf,NA,0,NA,NA,NA,NA,NA,NA,NA,NA,NA,NA,NA,NA,NA,NA,NA,NA,NA,NA,NA
3bc19,task,flow.Sequence,3_0_0_0_2,NA,NA,completion,8183.696,2070260.1,2070256.745,2070273.411,2078457.107,2078459.7,2023-03-02T12:43:56Z,2078473.773,NULL,Sympathie,mapendano,d,NA,NA,NA,NA,sdf,NA,0,NA,NA,NA,NA,NA,NA,NA,NA,NA,NA,NA,NA,NA,NA,NA,NA,NA,NA,NA
3bc19,Deep Question,html.Page,3_0_0_0_3_0_0,NA,NA,form submission,3340.0270000007,2078459.8,2078457.107,2078473.773,2081813.8,2081814.4,2023-03-02T12:43:59Z,2081824.15,NULL,Schlange,foleni,d,NA,NA,NA,s,NA,NA,0,NA,NA,NA,NA,NA,NA,NA,NA,NA,NA,NA,NA,NA,NA,NA,NA,NA,NA,NA
3bc19,"""Richtig""-Screen",canvas.Screen,3_0_0_0_3_0_1,NA,NA,skipped,NA,2081817.9,NA,NA,2081813.8,2081818.2,2023-03-02T12:43:59Z,2081824.15,NULL,Schlange,foleni,d,NA,NA,NA,NA,sdf,NA,0,NA,NA,NA,NA,NA,NA,NA,NA,NA,NA,NA,NA,NA,NA,NA,NA,NA,NA,NA
3bc19,"""Falsch""-Screen",canvas.Screen,3_0_0_0_3_0_2,NA,NA,timeout,4999.8,2081819.2,2081807.484,2081824.15,2086807.284,2086810,2023-03-02T12:44:04Z,2086823.95,NULL,Schlange,foleni,d,NA,NA,NA,NA,sdf,0,0,NA,NA,NA,NA,NA,NA,NA,NA,NA,NA,NA,NA,NA,NA,NA,NA,NA,NA,NA
3bc19,deep,flow.Sequence,3_0_0_0_3_0,NA,NA,completion,8333.5109999999,2078459.8,2078457.107,2078473.773,2086807.284,2086810.4,2023-03-02T12:44:04Z,2086823.95,NULL,Schlange,foleni,d,NA,NA,NA,NA,sdf,NA,0,NA,NA,NA,NA,NA,NA,NA,NA,NA,NA,NA,NA,NA,NA,NA,NA,NA,NA,NA
3bc19,shallow,flow.Sequence,3_0_0_0_3_1,NA,NA,skipped,NA,2086810.7,NA,NA,2086807.284,2086810.8,2023-03-02T12:44:04Z,2086823.95,NULL,Schlange,foleni,d,NA,NA,NA,NA,sdf,NA,0,NA,NA,NA,NA,NA,NA,NA,NA,NA,NA,NA,NA,NA,NA,NA,NA,NA,NA,NA
3bc19,task,flow.Sequence,3_0_0_0_3,NA,NA,completion,8333.5109999999,2078459.8,2078457.107,2078473.773,2086807.284,2086811,2023-03-02T12:44:04Z,2086823.95,NULL,Schlange,foleni,d,NA,NA,NA,NA,sdf,NA,0,NA,NA,NA,NA,NA,NA,NA,NA,NA,NA,NA,NA,NA,NA,NA,NA,NA,NA,NA
3bc19,deep,flow.Sequence,3_0_0_0_4_0,NA,NA,skipped,NA,2086811.2,NA,NA,2086807.284,2086811.3,2023-03-02T12:44:04Z,2086823.95,NULL,Beweis,ushahidi,s,marudio,kizuizi,mtendaji,NA,sdf,NA,0,NA,NA,NA,NA,NA,NA,NA,NA,NA,NA,NA,NA,NA,NA,NA,NA,NA,NA,NA
3bc19,Shallow Question,html.Page,3_0_0_0_4_1_0,NA,NA,form submission,6055.8500000008,2086811.4,2086807.284,2086823.95,2092879.8,2092880.4,2023-03-02T12:44:10Z,2092890.911,NULL,Beweis,ushahidi,s,marudio,kizuizi,mtendaji,ushahidi,NA,NA,0,NA,NA,NA,NA,NA,NA,NA,NA,NA,NA,NA,NA,NA,NA,NA,NA,NA,NA,NA
3bc19,"""Richtig""-Screen",canvas.Screen,3_0_0_0_4_1_1,NA,NA,timeout,4999.8,2092883,2092874.245,2092890.911,2097874.045,2097876,2023-03-02T12:44:15Z,2097890.711,NULL,Beweis,ushahidi,s,marudio,kizuizi,mtendaji,NA,sdf,1,0,NA,NA,NA,NA,NA,NA,NA,NA,NA,NA,NA,NA,NA,NA,NA,NA,NA,NA,NA
3bc19,"""Falsch""-Screen",canvas.Screen,3_0_0_0_4_1_2,NA,NA,skipped,NA,2097880.6,NA,NA,2097874.045,2097880.8,2023-03-02T12:44:15Z,2097890.711,NULL,Beweis,ushahidi,s,marudio,kizuizi,mtendaji,NA,sdf,NA,0,NA,NA,NA,NA,NA,NA,NA,NA,NA,NA,NA,NA,NA,NA,NA,NA,NA,NA,NA
3bc19,shallow,flow.Sequence,3_0_0_0_4_1,NA,NA,completion,11050.095,2086811.4,2086807.284,2086823.95,2097874.045,2097881,2023-03-02T12:44:15Z,2097890.711,NULL,Beweis,ushahidi,s,marudio,kizuizi,mtendaji,NA,sdf,NA,0,NA,NA,NA,NA,NA,NA,NA,NA,NA,NA,NA,NA,NA,NA,NA,NA,NA,NA,NA
3bc19,task,flow.Sequence,3_0_0_0_4,NA,NA,completion,11050.095,2086811.1,2086807.284,2086823.95,2097874.045,2097881.1,2023-03-02T12:44:15Z,2097890.711,NULL,Beweis,ushahidi,s,marudio,kizuizi,mtendaji,NA,sdf,NA,0,NA,NA,NA,NA,NA,NA,NA,NA,NA,NA,NA,NA,NA,NA,NA,NA,NA,NA,NA
3bc19,Deep Question,html.Page,3_0_0_0_5_0_0,NA,NA,form submission,2125.6890000002,2097881.2,2097874.045,2097890.711,2100016.4,2100017,2023-03-02T12:44:17Z,2100023.959,NULL,Toleranz,kuvumiliana,d,NA,NA,NA,k,NA,NA,0,NA,NA,NA,NA,NA,NA,NA,NA,NA,NA,NA,NA,NA,NA,NA,NA,NA,NA,NA
3bc19,"""Richtig""-Screen",canvas.Screen,3_0_0_0_5_0_1,NA,NA,skipped,NA,2100018.2,NA,NA,2100016.4,2100018.4,2023-03-02T12:44:17Z,2100023.959,NULL,Toleranz,kuvumiliana,d,NA,NA,NA,NA,sdf,NA,0,NA,NA,NA,NA,NA,NA,NA,NA,NA,NA,NA,NA,NA,NA,NA,NA,NA,NA,NA
3bc19,"""Falsch""-Screen",canvas.Screen,3_0_0_0_5_0_2,NA,NA,timeout,4999.8000000003,2100018.9,2100007.293,2100023.959,2105007.093,2105009.9,2023-03-02T12:44:22Z,2105023.759,NULL,Toleranz,kuvumiliana,d,NA,NA,NA,NA,sdf,0,0,NA,NA,NA,NA,NA,NA,NA,NA,NA,NA,NA,NA,NA,NA,NA,NA,NA,NA,NA
3bc19,deep,flow.Sequence,3_0_0_0_5_0,NA,NA,completion,7116.3819999998,2097881.2,2097874.045,2097890.711,2105007.093,2105010.3,2023-03-02T12:44:22Z,2105023.759,NULL,Toleranz,kuvumiliana,d,NA,NA,NA,NA,sdf,NA,0,NA,NA,NA,NA,NA,NA,NA,NA,NA,NA,NA,NA,NA,NA,NA,NA,NA,NA,NA
3bc19,shallow,flow.Sequence,3_0_0_0_5_1,NA,NA,skipped,NA,2105010.4,NA,NA,2105007.093,2105010.6,2023-03-02T12:44:22Z,2105023.759,NULL,Toleranz,kuvumiliana,d,NA,NA,NA,NA,sdf,NA,0,NA,NA,NA,NA,NA,NA,NA,NA,NA,NA,NA,NA,NA,NA,NA,NA,NA,NA,NA
3bc19,task,flow.Sequence,3_0_0_0_5,NA,NA,completion,7116.3819999998,2097881.1,2097874.045,2097890.711,2105007.093,2105010.7,2023-03-02T12:44:22Z,2105023.759,NULL,Toleranz,kuvumiliana,d,NA,NA,NA,NA,sdf,NA,0,NA,NA,NA,NA,NA,NA,NA,NA,NA,NA,NA,NA,NA,NA,NA,NA,NA,NA,NA
3bc19,deep,flow.Sequence,3_0_0_0_6_0,NA,NA,skipped,NA,2105010.9,NA,NA,2105007.093,2105011,2023-03-02T12:44:22Z,2105023.759,NULL,Polizist,msongora,s,simanzi,mandhari,nidhamu,NA,sdf,NA,0,NA,NA,NA,NA,NA,NA,NA,NA,NA,NA,NA,NA,NA,NA,NA,NA,NA,NA,NA
3bc19,Shallow Question,html.Page,3_0_0_0_6_1_0,NA,NA,form submission,3635.0410000007,2105011.2,2105007.093,2105023.759,2108658.8,2108659.3,2023-03-02T12:44:26Z,2108657.645,NULL,Polizist,msongora,s,simanzi,mandhari,nidhamu,simanzi,NA,NA,0,NA,NA,NA,NA,NA,NA,NA,NA,NA,NA,NA,NA,NA,NA,NA,NA,NA,NA,NA
3bc19,"""Richtig""-Screen",canvas.Screen,3_0_0_0_6_1_1,NA,NA,skipped,NA,2108663.2,NA,NA,2108658.8,2108663.4,2023-03-02T12:44:26Z,2108657.645,NULL,Polizist,msongora,s,simanzi,mandhari,nidhamu,NA,sdf,NA,0,NA,NA,NA,NA,NA,NA,NA,NA,NA,NA,NA,NA,NA,NA,NA,NA,NA,NA,NA
3bc19,"""Falsch""-Screen",canvas.Screen,3_0_0_0_6_1_2,NA,NA,timeout,4999.7999999998,2108664.3,2108640.979,2108657.645,2113640.779,2113642.8,2023-03-02T12:44:31Z,2113657.445,NULL,Polizist,msongora,s,simanzi,mandhari,nidhamu,NA,sdf,0,0,NA,NA,NA,NA,NA,NA,NA,NA,NA,NA,NA,NA,NA,NA,NA,NA,NA,NA,NA
3bc19,shallow,flow.Sequence,3_0_0_0_6_1,NA,NA,completion,8617.02,2105011.1,2105007.093,2105023.759,2113640.779,2113643.1,2023-03-02T12:44:31Z,2113657.445,NULL,Polizist,msongora,s,simanzi,mandhari,nidhamu,NA,sdf,NA,0,NA,NA,NA,NA,NA,NA,NA,NA,NA,NA,NA,NA,NA,NA,NA,NA,NA,NA,NA
3bc19,task,flow.Sequence,3_0_0_0_6,NA,NA,completion,8617.02,2105010.8,2105007.093,2105023.759,2113640.779,2113643.3,2023-03-02T12:44:31Z,2113657.445,NULL,Polizist,msongora,s,simanzi,mandhari,nidhamu,NA,sdf,NA,0,NA,NA,NA,NA,NA,NA,NA,NA,NA,NA,NA,NA,NA,NA,NA,NA,NA,NA,NA
3bc19,deep,flow.Sequence,3_0_0_0_7_0,NA,NA,skipped,NA,2113643.5,NA,NA,2113640.779,2113643.6,2023-03-02T12:44:31Z,2113657.445,NULL,Inhalt,yaliyomo,s,kishawishi,hifadhi,kutembea,NA,sdf,NA,0,NA,NA,NA,NA,NA,NA,NA,NA,NA,NA,NA,NA,NA,NA,NA,NA,NA,NA,NA
3bc19,Shallow Question,html.Page,3_0_0_0_7_1_0,NA,NA,form submission,6883.4550000005,2113643.8,2113640.779,2113657.445,2120540.9,2120541.5,2023-03-02T12:44:38Z,2120541.117,NULL,Inhalt,yaliyomo,s,kishawishi,hifadhi,kutembea,hifadhi,NA,NA,0,NA,NA,NA,NA,NA,NA,NA,NA,NA,NA,NA,NA,NA,NA,NA,NA,NA,NA,NA
3bc19,"""Richtig""-Screen",canvas.Screen,3_0_0_0_7_1_1,NA,NA,skipped,NA,2120544.2,NA,NA,2120540.9,2120544.2,2023-03-02T12:44:38Z,2120541.117,NULL,Inhalt,yaliyomo,s,kishawishi,hifadhi,kutembea,NA,sdf,NA,0,NA,NA,NA,NA,NA,NA,NA,NA,NA,NA,NA,NA,NA,NA,NA,NA,NA,NA,NA
3bc19,"""Falsch""-Screen",canvas.Screen,3_0_0_0_7_1_2,NA,NA,timeout,4999.7999999998,2120544.8,2120524.451,2120541.117,2125524.251,2125526.5,2023-03-02T12:44:43Z,2125540.917,NULL,Inhalt,yaliyomo,s,kishawishi,hifadhi,kutembea,NA,sdf,0,0,NA,NA,NA,NA,NA,NA,NA,NA,NA,NA,NA,NA,NA,NA,NA,NA,NA,NA,NA
3bc19,shallow,flow.Sequence,3_0_0_0_7_1,NA,NA,completion,11866.806,2113643.8,2113640.779,2113657.445,2125524.251,2125527,2023-03-02T12:44:43Z,2125540.917,NULL,Inhalt,yaliyomo,s,kishawishi,hifadhi,kutembea,NA,sdf,NA,0,NA,NA,NA,NA,NA,NA,NA,NA,NA,NA,NA,NA,NA,NA,NA,NA,NA,NA,NA
3bc19,task,flow.Sequence,3_0_0_0_7,NA,NA,completion,11866.806,2113643.5,2113640.779,2113657.445,2125524.251,2125527.3,2023-03-02T12:44:43Z,2125540.917,NULL,Inhalt,yaliyomo,s,kishawishi,hifadhi,kutembea,NA,sdf,NA,0,NA,NA,NA,NA,NA,NA,NA,NA,NA,NA,NA,NA,NA,NA,NA,NA,NA,NA,NA
3bc19,block,flow.Loop,3_0_0_0,NA,NA,completion,77686.022,2047852.5,2047788.231,2047838.229,2125524.251,2125527.6,2023-03-02T12:44:43Z,2125540.917,NULL,NA,NA,NA,NA,NA,NA,NA,sdf,NA,0,NA,NA,NA,NA,NA,NA,NA,NA,NA,NA,NA,NA,NA,NA,NA,NA,NA,NA,NA
3bc19,weiter,canvas.Screen,3_0_0_1,sdf,keypress(Space),response,1005.4830000005,2125527.8,2125524.251,2125540.917,2126546.4,2126551.6,2023-03-02T12:44:44Z,2126590.875,NULL,NA,NA,NA,NA,NA,NA,NA,sdf,NA,0,NA,NA,NA,NA,NA,NA,NA,NA,NA,NA,NA,NA,NA,NA,NA,NA,NA,NA,NA
3bc19,check continue,flow.Sequence,3_0_0,NA,NA,completion,78708.171,2047852.5,2047788.231,2047838.229,2126546.4,2126551.9,2023-03-02T12:44:44Z,2126590.875,NULL,NA,NA,NA,NA,NA,NA,NA,sdf,NA,0,NA,NA,NA,NA,NA,NA,NA,NA,NA,NA,NA,NA,NA,NA,NA,NA,NA,NA,NA
3bc19,deep,flow.Sequence,3_0_1_0_0_0,NA,NA,skipped,NA,2126579.6,NA,NA,2126546.4,2126579.8,2023-03-02T12:44:44Z,2126590.875,NULL,Polizist,msongora,s,simanzi,mandhari,nidhamu,NA,sdfdsf,NA,1,NA,NA,NA,NA,NA,NA,NA,NA,NA,NA,NA,NA,NA,NA,NA,NA,NA,NA,NA
3bc19,Shallow Question,html.Page,3_0_1_0_0_1_0,NA,NA,form submission,3741.9250000007,2126579.8,2126574.209,2126590.875,2130332.8,2130333.5,2023-03-02T12:44:48Z,2130341.283,NULL,Polizist,msongora,s,simanzi,mandhari,nidhamu,msongora,NA,NA,1,NA,NA,NA,NA,NA,NA,NA,NA,NA,NA,NA,NA,NA,NA,NA,NA,NA,NA,NA
3bc19,"""Richtig""-Screen",canvas.Screen,3_0_1_0_0_1_1,NA,NA,timeout,4999.8000000003,2130337.3,2130324.617,2130341.283,2135324.417,2135326.8,2023-03-02T12:44:53Z,2135341.083,NULL,Polizist,msongora,s,simanzi,mandhari,nidhamu,NA,sdfdsf,1,1,NA,NA,NA,NA,NA,NA,NA,NA,NA,NA,NA,NA,NA,NA,NA,NA,NA,NA,NA
3bc19,"""Falsch""-Screen",canvas.Screen,3_0_1_0_0_1_2,NA,NA,skipped,NA,2135331.3,NA,NA,2135324.417,2135331.5,2023-03-02T12:44:53Z,2135341.083,NULL,Polizist,msongora,s,simanzi,mandhari,nidhamu,NA,sdfdsf,NA,1,NA,NA,NA,NA,NA,NA,NA,NA,NA,NA,NA,NA,NA,NA,NA,NA,NA,NA,NA
3bc19,shallow,flow.Sequence,3_0_1_0_0_1,NA,NA,completion,8733.5419999999,2126579.8,2126574.209,2126590.875,2135324.417,2135331.6,2023-03-02T12:44:53Z,2135341.083,NULL,Polizist,msongora,s,simanzi,mandhari,nidhamu,NA,sdfdsf,NA,1,NA,NA,NA,NA,NA,NA,NA,NA,NA,NA,NA,NA,NA,NA,NA,NA,NA,NA,NA
3bc19,task,flow.Sequence,3_0_1_0_0,NA,NA,completion,8733.5419999999,2126579.6,2126574.209,2126590.875,2135324.417,2135331.7,2023-03-02T12:44:53Z,2135341.083,NULL,Polizist,msongora,s,simanzi,mandhari,nidhamu,NA,sdfdsf,NA,1,NA,NA,NA,NA,NA,NA,NA,NA,NA,NA,NA,NA,NA,NA,NA,NA,NA,NA,NA
3bc19,Deep Question,html.Page,3_0_1_0_1_0_0,NA,NA,form submission,11474.317,2135331.9,2135324.417,2135341.083,2146815.4,2146815.9,2023-03-02T12:45:04Z,2146824.492,NULL,Toleranz,kuvumiliana,d,NA,NA,NA,ufumilana,NA,NA,1,NA,NA,NA,NA,NA,NA,NA,NA,NA,NA,NA,NA,NA,NA,NA,NA,NA,NA,NA
3bc19,"""Richtig""-Screen",canvas.Screen,3_0_1_0_1_0_1,NA,NA,skipped,NA,2146819.6,NA,NA,2146815.4,2146819.7,2023-03-02T12:45:04Z,2146824.492,NULL,Toleranz,kuvumiliana,d,NA,NA,NA,NA,sdfdsf,NA,1,NA,NA,NA,NA,NA,NA,NA,NA,NA,NA,NA,NA,NA,NA,NA,NA,NA,NA,NA
3bc19,"""Falsch""-Screen",canvas.Screen,3_0_1_0_1_0_2,NA,NA,timeout,5000.3249999997,2146820.8,2146807.826,2146824.492,2151808.151,2151810.8,2023-03-02T12:45:09Z,2151824.817,NULL,Toleranz,kuvumiliana,d,NA,NA,NA,NA,sdfdsf,0,1,NA,NA,NA,NA,NA,NA,NA,NA,NA,NA,NA,NA,NA,NA,NA,NA,NA,NA,NA
3bc19,deep,flow.Sequence,3_0_1_0_1_0,NA,NA,completion,16467.068,2135331.8,2135324.417,2135341.083,2151808.151,2151811.2,2023-03-02T12:45:09Z,2151824.817,NULL,Toleranz,kuvumiliana,d,NA,NA,NA,NA,sdfdsf,NA,1,NA,NA,NA,NA,NA,NA,NA,NA,NA,NA,NA,NA,NA,NA,NA,NA,NA,NA,NA
3bc19,shallow,flow.Sequence,3_0_1_0_1_1,NA,NA,skipped,NA,2151811.4,NA,NA,2151808.151,2151811.5,2023-03-02T12:45:09Z,2151824.817,NULL,Toleranz,kuvumiliana,d,NA,NA,NA,NA,sdfdsf,NA,1,NA,NA,NA,NA,NA,NA,NA,NA,NA,NA,NA,NA,NA,NA,NA,NA,NA,NA,NA
3bc19,task,flow.Sequence,3_0_1_0_1,NA,NA,completion,16467.068,2135331.8,2135324.417,2135341.083,2151808.151,2151811.8,2023-03-02T12:45:09Z,2151824.817,NULL,Toleranz,kuvumiliana,d,NA,NA,NA,NA,sdfdsf,NA,1,NA,NA,NA,NA,NA,NA,NA,NA,NA,NA,NA,NA,NA,NA,NA,NA,NA,NA,NA
3bc19,deep,flow.Sequence,3_0_1_0_2_0,NA,NA,skipped,NA,2151812,NA,NA,2151808.151,2151812.1,2023-03-02T12:45:09Z,2151824.817,NULL,Inhalt,yaliyomo,s,kishawishi,hifadhi,kutembea,NA,sdfdsf,NA,1,NA,NA,NA,NA,NA,NA,NA,NA,NA,NA,NA,NA,NA,NA,NA,NA,NA,NA,NA
3bc19,Shallow Question,html.Page,3_0_1_0_2_1_0,NA,NA,form submission,5938.2830000017,2151812.3,2151808.151,2151824.817,2157763.1,2157763.7,2023-03-02T12:45:15Z,2157775.085,NULL,Inhalt,yaliyomo,s,kishawishi,hifadhi,kutembea,yaliyomo,NA,NA,1,NA,NA,NA,NA,NA,NA,NA,NA,NA,NA,NA,NA,NA,NA,NA,NA,NA,NA,NA
3bc19,"""Richtig""-Screen",canvas.Screen,3_0_1_0_2_1_1,NA,NA,timeout,4999.7999999998,2157766.9,2157758.419,2157775.085,2162758.219,2162759.5,2023-03-02T12:45:20Z,2162774.885,NULL,Inhalt,yaliyomo,s,kishawishi,hifadhi,kutembea,NA,sdfdsf,1,1,NA,NA,NA,NA,NA,NA,NA,NA,NA,NA,NA,NA,NA,NA,NA,NA,NA,NA,NA
3bc19,"""Falsch""-Screen",canvas.Screen,3_0_1_0_2_1_2,NA,NA,skipped,NA,2162764,NA,NA,2162758.219,2162764.1,2023-03-02T12:45:20Z,2162774.885,NULL,Inhalt,yaliyomo,s,kishawishi,hifadhi,kutembea,NA,sdfdsf,NA,1,NA,NA,NA,NA,NA,NA,NA,NA,NA,NA,NA,NA,NA,NA,NA,NA,NA,NA,NA
3bc19,shallow,flow.Sequence,3_0_1_0_2_1,NA,NA,completion,10933.402,2151812.3,2151808.151,2151824.817,2162758.219,2162764.3,2023-03-02T12:45:20Z,2162774.885,NULL,Inhalt,yaliyomo,s,kishawishi,hifadhi,kutembea,NA,sdfdsf,NA,1,NA,NA,NA,NA,NA,NA,NA,NA,NA,NA,NA,NA,NA,NA,NA,NA,NA,NA,NA
3bc19,task,flow.Sequence,3_0_1_0_2,NA,NA,completion,10933.402,2151811.9,2151808.151,2151824.817,2162758.219,2162764.4,2023-03-02T12:45:20Z,2162774.885,NULL,Inhalt,yaliyomo,s,kishawishi,hifadhi,kutembea,NA,sdfdsf,NA,1,NA,NA,NA,NA,NA,NA,NA,NA,NA,NA,NA,NA,NA,NA,NA,NA,NA,NA,NA
3bc19,deep,flow.Sequence,3_0_1_0_3_0,NA,NA,skipped,NA,2162764.5,NA,NA,2162758.219,2162764.6,2023-03-02T12:45:20Z,2162774.885,NULL,Vermutung,udhanifu,s,haramia,tikisho,itifaki,NA,sdfdsf,NA,1,NA,NA,NA,NA,NA,NA,NA,NA,NA,NA,NA,NA,NA,NA,NA,NA,NA,NA,NA
3bc19,Shallow Question,html.Page,3_0_1_0_3_1_0,NA,NA,form submission,5138.1150000002,2162764.7,2162758.219,2162774.885,2167913,2167913.5,2023-03-02T12:45:25Z,2167925.187,NULL,Vermutung,udhanifu,s,haramia,tikisho,itifaki,udhanifu,NA,NA,1,NA,NA,NA,NA,NA,NA,NA,NA,NA,NA,NA,NA,NA,NA,NA,NA,NA,NA,NA
3bc19,"""Richtig""-Screen",canvas.Screen,3_0_1_0_3_1_1,NA,NA,timeout,4999.8000000003,2167916.7,2167908.521,2167925.187,2172908.321,2172910.1,2023-03-02T12:45:30Z,2172924.987,NULL,Vermutung,udhanifu,s,haramia,tikisho,itifaki,NA,sdfdsf,1,1,NA,NA,NA,NA,NA,NA,NA,NA,NA,NA,NA,NA,NA,NA,NA,NA,NA,NA,NA
3bc19,"""Falsch""-Screen",canvas.Screen,3_0_1_0_3_1_2,NA,NA,skipped,NA,2172913.7,NA,NA,2172908.321,2172913.8,2023-03-02T12:45:30Z,2172924.987,NULL,Vermutung,udhanifu,s,haramia,tikisho,itifaki,NA,sdfdsf,NA,1,NA,NA,NA,NA,NA,NA,NA,NA,NA,NA,NA,NA,NA,NA,NA,NA,NA,NA,NA
3bc19,shallow,flow.Sequence,3_0_1_0_3_1,NA,NA,completion,10133.436,2162764.7,2162758.219,2162774.885,2172908.321,2172914,2023-03-02T12:45:30Z,2172924.987,NULL,Vermutung,udhanifu,s,haramia,tikisho,itifaki,NA,sdfdsf,NA,1,NA,NA,NA,NA,NA,NA,NA,NA,NA,NA,NA,NA,NA,NA,NA,NA,NA,NA,NA
3bc19,task,flow.Sequence,3_0_1_0_3,NA,NA,completion,10133.436,2162764.4,2162758.219,2162774.885,2172908.321,2172914,2023-03-02T12:45:30Z,2172924.987,NULL,Vermutung,udhanifu,s,haramia,tikisho,itifaki,NA,sdfdsf,NA,1,NA,NA,NA,NA,NA,NA,NA,NA,NA,NA,NA,NA,NA,NA,NA,NA,NA,NA,NA
3bc19,Deep Question,html.Page,3_0_1_0_4_0_0,NA,NA,form submission,10775.013,2172914.3,2172908.321,2172924.987,2183700,2183700.6,2023-03-02T12:45:41Z,2183708.611,NULL,Annäherung,maegesho,d,NA,NA,NA,kuvu,NA,NA,1,NA,NA,NA,NA,NA,NA,NA,NA,NA,NA,NA,NA,NA,NA,NA,NA,NA,NA,NA
3bc19,"""Richtig""-Screen",canvas.Screen,3_0_1_0_4_0_1,NA,NA,skipped,NA,2183704.4,NA,NA,2183700,2183704.6,2023-03-02T12:45:41Z,2183708.611,NULL,Annäherung,maegesho,d,NA,NA,NA,NA,sdfdsf,NA,1,NA,NA,NA,NA,NA,NA,NA,NA,NA,NA,NA,NA,NA,NA,NA,NA,NA,NA,NA
3bc19,"""Falsch""-Screen",canvas.Screen,3_0_1_0_4_0_2,NA,NA,timeout,4999.7999999998,2183705.3,2183691.945,2183708.611,2188691.745,2188694.2,2023-03-02T12:45:46Z,2188708.411,NULL,Annäherung,maegesho,d,NA,NA,NA,NA,sdfdsf,0,1,NA,NA,NA,NA,NA,NA,NA,NA,NA,NA,NA,NA,NA,NA,NA,NA,NA,NA,NA
3bc19,deep,flow.Sequence,3_0_1_0_4_0,NA,NA,completion,15766.758,2172914.2,2172908.321,2172924.987,2188691.745,2188694.8,2023-03-02T12:45:46Z,2188708.411,NULL,Annäherung,maegesho,d,NA,NA,NA,NA,sdfdsf,NA,1,NA,NA,NA,NA,NA,NA,NA,NA,NA,NA,NA,NA,NA,NA,NA,NA,NA,NA,NA
3bc19,shallow,flow.Sequence,3_0_1_0_4_1,NA,NA,skipped,NA,2188695,NA,NA,2188691.745,2188695.1,2023-03-02T12:45:46Z,2188708.411,NULL,Annäherung,maegesho,d,NA,NA,NA,NA,sdfdsf,NA,1,NA,NA,NA,NA,NA,NA,NA,NA,NA,NA,NA,NA,NA,NA,NA,NA,NA,NA,NA
3bc19,task,flow.Sequence,3_0_1_0_4,NA,NA,completion,15766.758,2172914.1,2172908.321,2172924.987,2188691.745,2188695.3,2023-03-02T12:45:46Z,2188708.411,NULL,Annäherung,maegesho,d,NA,NA,NA,NA,sdfdsf,NA,1,NA,NA,NA,NA,NA,NA,NA,NA,NA,NA,NA,NA,NA,NA,NA,NA,NA,NA,NA
3bc19,Deep Question,html.Page,3_0_1_0_5_0_0,NA,NA,form submission,10067.389000001,2188695.4,2188691.745,2188708.411,2198775.8,2198776.2,2023-03-02T12:45:56Z,2198775.164,NULL,Schlange,foleni,d,NA,NA,NA,adasf,NA,NA,1,NA,NA,NA,NA,NA,NA,NA,NA,NA,NA,NA,NA,NA,NA,NA,NA,NA,NA,NA
3bc19,"""Richtig""-Screen",canvas.Screen,3_0_1_0_5_0_1,NA,NA,skipped,NA,2198778.9,NA,NA,2198775.8,2198779,2023-03-02T12:45:56Z,2198775.164,NULL,Schlange,foleni,d,NA,NA,NA,NA,sdfdsf,NA,1,NA,NA,NA,NA,NA,NA,NA,NA,NA,NA,NA,NA,NA,NA,NA,NA,NA,NA,NA
3bc19,"""Falsch""-Screen",canvas.Screen,3_0_1_0_5_0_2,NA,NA,timeout,4999.8000000003,2198779.6,2198758.498,2198775.164,2203758.298,2203760.6,2023-03-02T12:46:01Z,2203774.964,NULL,Schlange,foleni,d,NA,NA,NA,NA,sdfdsf,0,1,NA,NA,NA,NA,NA,NA,NA,NA,NA,NA,NA,NA,NA,NA,NA,NA,NA,NA,NA
3bc19,deep,flow.Sequence,3_0_1_0_5_0,NA,NA,completion,15049.887,2188695.4,2188691.745,2188708.411,2203758.298,2203760.9,2023-03-02T12:46:01Z,2203774.964,NULL,Schlange,foleni,d,NA,NA,NA,NA,sdfdsf,NA,1,NA,NA,NA,NA,NA,NA,NA,NA,NA,NA,NA,NA,NA,NA,NA,NA,NA,NA,NA
3bc19,shallow,flow.Sequence,3_0_1_0_5_1,NA,NA,skipped,NA,2203761.2,NA,NA,2203758.298,2203761.2,2023-03-02T12:46:01Z,2203774.964,NULL,Schlange,foleni,d,NA,NA,NA,NA,sdfdsf,NA,1,NA,NA,NA,NA,NA,NA,NA,NA,NA,NA,NA,NA,NA,NA,NA,NA,NA,NA,NA
3bc19,task,flow.Sequence,3_0_1_0_5,NA,NA,completion,15049.887,2188695.3,2188691.745,2188708.411,2203758.298,2203761.4,2023-03-02T12:46:01Z,2203774.964,NULL,Schlange,foleni,d,NA,NA,NA,NA,sdfdsf,NA,1,NA,NA,NA,NA,NA,NA,NA,NA,NA,NA,NA,NA,NA,NA,NA,NA,NA,NA,NA
3bc19,deep,flow.Sequence,3_0_1_0_6_0,NA,NA,skipped,NA,2203761.7,NA,NA,2203758.298,2203761.8,2023-03-02T12:46:01Z,2203774.964,NULL,Beweis,ushahidi,s,marudio,kizuizi,mtendaji,NA,sdfdsf,NA,1,NA,NA,NA,NA,NA,NA,NA,NA,NA,NA,NA,NA,NA,NA,NA,NA,NA,NA,NA
3bc19,Shallow Question,html.Page,3_0_1_0_6_1_0,NA,NA,form submission,8703.9360000002,2203761.9,2203758.298,2203774.964,2212478.9,2212479.2,2023-03-02T12:46:10Z,2212492.012,NULL,Beweis,ushahidi,s,marudio,kizuizi,mtendaji,kizuizi,NA,NA,1,NA,NA,NA,NA,NA,NA,NA,NA,NA,NA,NA,NA,NA,NA,NA,NA,NA,NA,NA
3bc19,"""Richtig""-Screen",canvas.Screen,3_0_1_0_6_1_1,NA,NA,skipped,NA,2212481.9,NA,NA,2212478.9,2212481.9,2023-03-02T12:46:10Z,2212492.012,NULL,Beweis,ushahidi,s,marudio,kizuizi,mtendaji,NA,sdfdsf,NA,1,NA,NA,NA,NA,NA,NA,NA,NA,NA,NA,NA,NA,NA,NA,NA,NA,NA,NA,NA
3bc19,"""Falsch""-Screen",canvas.Screen,3_0_1_0_6_1_2,NA,NA,timeout,4999.7999999998,2212482.7,2212475.346,2212492.012,2217475.146,2217476.8,2023-03-02T12:46:15Z,2217491.812,NULL,Beweis,ushahidi,s,marudio,kizuizi,mtendaji,NA,sdfdsf,0,1,NA,NA,NA,NA,NA,NA,NA,NA,NA,NA,NA,NA,NA,NA,NA,NA,NA,NA,NA
3bc19,shallow,flow.Sequence,3_0_1_0_6_1,NA,NA,completion,13700.182,2203761.9,2203758.298,2203774.964,2217475.146,2217477.3,2023-03-02T12:46:15Z,2217491.812,NULL,Beweis,ushahidi,s,marudio,kizuizi,mtendaji,NA,sdfdsf,NA,1,NA,NA,NA,NA,NA,NA,NA,NA,NA,NA,NA,NA,NA,NA,NA,NA,NA,NA,NA
3bc19,task,flow.Sequence,3_0_1_0_6,NA,NA,completion,13700.182,2203761.6,2203758.298,2203774.964,2217475.146,2217477.6,2023-03-02T12:46:15Z,2217491.812,NULL,Beweis,ushahidi,s,marudio,kizuizi,mtendaji,NA,sdfdsf,NA,1,NA,NA,NA,NA,NA,NA,NA,NA,NA,NA,NA,NA,NA,NA,NA,NA,NA,NA,NA
3bc19,Deep Question,html.Page,3_0_1_0_7_0_0,NA,NA,form submission,3081.5880000005,2217477.9,2217475.146,2217491.812,2220573.4,2220573.9,2023-03-02T12:46:18Z,2220575.737,NULL,Sympathie,mapendano,d,NA,NA,NA,f,NA,NA,1,NA,NA,NA,NA,NA,NA,NA,NA,NA,NA,NA,NA,NA,NA,NA,NA,NA,NA,NA
3bc19,"""Richtig""-Screen",canvas.Screen,3_0_1_0_7_0_1,NA,NA,skipped,NA,2220578,NA,NA,2220573.4,2220578.2,2023-03-02T12:46:18Z,2220575.737,NULL,Sympathie,mapendano,d,NA,NA,NA,NA,sdfdsf,NA,1,NA,NA,NA,NA,NA,NA,NA,NA,NA,NA,NA,NA,NA,NA,NA,NA,NA,NA,NA
3bc19,"""Falsch""-Screen",canvas.Screen,3_0_1_0_7_0_2,NA,NA,timeout,4999.7999999998,2220579.1,2220559.071,2220575.737,2225558.871,2225561.2,2023-03-02T12:46:23Z,2225575.537,NULL,Sympathie,mapendano,d,NA,NA,NA,NA,sdfdsf,0,1,NA,NA,NA,NA,NA,NA,NA,NA,NA,NA,NA,NA,NA,NA,NA,NA,NA,NA,NA
3bc19,deep,flow.Sequence,3_0_1_0_7_0,NA,NA,completion,8067.0589999999,2217477.8,2217475.146,2217491.812,2225558.871,2225561.8,2023-03-02T12:46:23Z,2225575.537,NULL,Sympathie,mapendano,d,NA,NA,NA,NA,sdfdsf,NA,1,NA,NA,NA,NA,NA,NA,NA,NA,NA,NA,NA,NA,NA,NA,NA,NA,NA,NA,NA
3bc19,shallow,flow.Sequence,3_0_1_0_7_1,NA,NA,skipped,NA,2225561.9,NA,NA,2225558.871,2225562,2023-03-02T12:46:23Z,2225575.537,NULL,Sympathie,mapendano,d,NA,NA,NA,NA,sdfdsf,NA,1,NA,NA,NA,NA,NA,NA,NA,NA,NA,NA,NA,NA,NA,NA,NA,NA,NA,NA,NA
3bc19,task,flow.Sequence,3_0_1_0_7,NA,NA,completion,8067.0589999999,2217477.7,2217475.146,2217491.812,2225558.871,2225562.2,2023-03-02T12:46:23Z,2225575.537,NULL,Sympathie,mapendano,d,NA,NA,NA,NA,sdfdsf,NA,1,NA,NA,NA,NA,NA,NA,NA,NA,NA,NA,NA,NA,NA,NA,NA,NA,NA,NA,NA
3bc19,block,flow.Loop,3_0_1_0,NA,NA,completion,98967.996,2126579.6,2126574.209,2126590.875,2225558.871,2225562.4,2023-03-02T12:46:23Z,2225575.537,NULL,NA,NA,NA,NA,NA,NA,NA,sdfdsf,NA,1,NA,NA,NA,NA,NA,NA,NA,NA,NA,NA,NA,NA,NA,NA,NA,NA,NA,NA,NA
3bc19,weiter,canvas.Screen,3_0_1_1,sdf,keypress(Space),response,1008.0630000015,2225562.5,2225558.871,2225575.537,2226583.6,2226589.5,2023-03-02T12:46:24Z,2226625.495,NULL,NA,NA,NA,NA,NA,NA,NA,sdfdsf,NA,1,NA,NA,NA,NA,NA,NA,NA,NA,NA,NA,NA,NA,NA,NA,NA,NA,NA,NA,NA
3bc19,check continue,flow.Sequence,3_0_1,NA,NA,completion,99992.725000001,2126579.6,2126574.209,2126590.875,2226583.6,2226590,2023-03-02T12:46:24Z,2226625.495,NULL,NA,NA,NA,NA,NA,NA,NA,sdfdsf,NA,1,NA,NA,NA,NA,NA,NA,NA,NA,NA,NA,NA,NA,NA,NA,NA,NA,NA,NA,NA
3bc19,Deep Question,html.Page,3_0_2_0_0_0_0,NA,NA,form submission,3940.3050000006,2226614.5,2226608.829,2226625.495,2230565.8,2230566.4,2023-03-02T12:46:28Z,2230575.83,NULL,Schlange,foleni,d,NA,NA,NA,foleni,NA,NA,2,NA,NA,NA,NA,NA,NA,NA,NA,NA,NA,NA,NA,NA,NA,NA,NA,NA,NA,NA
3bc19,"""Richtig""-Screen",canvas.Screen,3_0_2_0_0_0_1,NA,NA,timeout,4999.7999999998,2230569.2,2230559.164,2230575.83,2235558.964,2235561.4,2023-03-02T12:46:33Z,2235575.63,NULL,Schlange,foleni,d,NA,NA,NA,NA,sdf,1,2,NA,NA,NA,NA,NA,NA,NA,NA,NA,NA,NA,NA,NA,NA,NA,NA,NA,NA,NA
3bc19,"""Falsch""-Screen",canvas.Screen,3_0_2_0_0_0_2,NA,NA,skipped,NA,2235564.8,NA,NA,2235558.964,2235564.9,2023-03-02T12:46:33Z,2235575.63,NULL,Schlange,foleni,d,NA,NA,NA,NA,sdf,NA,2,NA,NA,NA,NA,NA,NA,NA,NA,NA,NA,NA,NA,NA,NA,NA,NA,NA,NA,NA
3bc19,deep,flow.Sequence,3_0_2_0_0_0,NA,NA,completion,8933.469,2226614.5,2226608.829,2226625.495,2235558.964,2235565.1,2023-03-02T12:46:33Z,2235575.63,NULL,Schlange,foleni,d,NA,NA,NA,NA,sdf,NA,2,NA,NA,NA,NA,NA,NA,NA,NA,NA,NA,NA,NA,NA,NA,NA,NA,NA,NA,NA
3bc19,shallow,flow.Sequence,3_0_2_0_0_1,NA,NA,skipped,NA,2235565.1,NA,NA,2235558.964,2235565.1,2023-03-02T12:46:33Z,2235575.63,NULL,Schlange,foleni,d,NA,NA,NA,NA,sdf,NA,2,NA,NA,NA,NA,NA,NA,NA,NA,NA,NA,NA,NA,NA,NA,NA,NA,NA,NA,NA
3bc19,task,flow.Sequence,3_0_2_0_0,NA,NA,completion,8933.469,2226614.5,2226608.829,2226625.495,2235558.964,2235565.3,2023-03-02T12:46:33Z,2235575.63,NULL,Schlange,foleni,d,NA,NA,NA,NA,sdf,NA,2,NA,NA,NA,NA,NA,NA,NA,NA,NA,NA,NA,NA,NA,NA,NA,NA,NA,NA,NA
3bc19,Deep Question,html.Page,3_0_2_0_1_0_0,NA,NA,form submission,21453.77,2235565.3,2235558.964,2235575.63,2257029.4,2257030,2023-03-02T12:46:54Z,2257042.411,NULL,Toleranz,kuvumiliana,d,NA,NA,NA,ufumialana,NA,NA,2,NA,NA,NA,NA,NA,NA,NA,NA,NA,NA,NA,NA,NA,NA,NA,NA,NA,NA,NA
3bc19,"""Richtig""-Screen",canvas.Screen,3_0_2_0_1_0_1,NA,NA,skipped,NA,2257033.7,NA,NA,2257029.4,2257034,2023-03-02T12:46:54Z,2257042.411,NULL,Toleranz,kuvumiliana,d,NA,NA,NA,NA,sdf,NA,2,NA,NA,NA,NA,NA,NA,NA,NA,NA,NA,NA,NA,NA,NA,NA,NA,NA,NA,NA
3bc19,"""Falsch""-Screen",canvas.Screen,3_0_2_0_1_0_2,NA,NA,timeout,4999.8000000003,2257034.8,2257025.745,2257042.411,2262025.545,2262028.4,2023-03-02T12:46:59Z,2262042.211,NULL,Toleranz,kuvumiliana,d,NA,NA,NA,NA,sdf,0,2,NA,NA,NA,NA,NA,NA,NA,NA,NA,NA,NA,NA,NA,NA,NA,NA,NA,NA,NA
3bc19,deep,flow.Sequence,3_0_2_0_1_0,NA,NA,completion,26449.915,2235565.3,2235558.964,2235575.63,2262025.545,2262028.9,2023-03-02T12:46:59Z,2262042.211,NULL,Toleranz,kuvumiliana,d,NA,NA,NA,NA,sdf,NA,2,NA,NA,NA,NA,NA,NA,NA,NA,NA,NA,NA,NA,NA,NA,NA,NA,NA,NA,NA
3bc19,shallow,flow.Sequence,3_0_2_0_1_1,NA,NA,skipped,NA,2262029,NA,NA,2262025.545,2262029.1,2023-03-02T12:46:59Z,2262042.211,NULL,Toleranz,kuvumiliana,d,NA,NA,NA,NA,sdf,NA,2,NA,NA,NA,NA,NA,NA,NA,NA,NA,NA,NA,NA,NA,NA,NA,NA,NA,NA,NA
3bc19,task,flow.Sequence,3_0_2_0_1,NA,NA,completion,26449.915,2235565.3,2235558.964,2235575.63,2262025.545,2262029.3,2023-03-02T12:46:59Z,2262042.211,NULL,Toleranz,kuvumiliana,d,NA,NA,NA,NA,sdf,NA,2,NA,NA,NA,NA,NA,NA,NA,NA,NA,NA,NA,NA,NA,NA,NA,NA,NA,NA,NA
3bc19,deep,flow.Sequence,3_0_2_0_2_0,NA,NA,skipped,NA,2262029.5,NA,NA,2262025.545,2262029.7,2023-03-02T12:46:59Z,2262042.211,NULL,Beweis,ushahidi,s,marudio,kizuizi,mtendaji,NA,sdf,NA,2,NA,NA,NA,NA,NA,NA,NA,NA,NA,NA,NA,NA,NA,NA,NA,NA,NA,NA,NA
3bc19,Shallow Question,html.Page,3_0_2_0_2_1_0,NA,NA,form submission,5631.8890000014,2262029.8,2262025.545,2262042.211,2267674.1,2267674.8,2023-03-02T12:47:05Z,2267676.064,NULL,Beweis,ushahidi,s,marudio,kizuizi,mtendaji,ushahidi,NA,NA,2,NA,NA,NA,NA,NA,NA,NA,NA,NA,NA,NA,NA,NA,NA,NA,NA,NA,NA,NA
3bc19,"""Richtig""-Screen",canvas.Screen,3_0_2_0_2_1_1,NA,NA,timeout,4999.8000000003,2267678,2267659.398,2267676.064,2272659.198,2272661.9,2023-03-02T12:47:10Z,2272675.864,NULL,Beweis,ushahidi,s,marudio,kizuizi,mtendaji,NA,sdf,1,2,NA,NA,NA,NA,NA,NA,NA,NA,NA,NA,NA,NA,NA,NA,NA,NA,NA,NA,NA
3bc19,"""Falsch""-Screen",canvas.Screen,3_0_2_0_2_1_2,NA,NA,skipped,NA,2272666.7,NA,NA,2272659.198,2272666.9,2023-03-02T12:47:10Z,2272675.864,NULL,Beweis,ushahidi,s,marudio,kizuizi,mtendaji,NA,sdf,NA,2,NA,NA,NA,NA,NA,NA,NA,NA,NA,NA,NA,NA,NA,NA,NA,NA,NA,NA,NA
3bc19,shallow,flow.Sequence,3_0_2_0_2_1,NA,NA,completion,10616.987,2262029.7,2262025.545,2262042.211,2272659.198,2272667.1,2023-03-02T12:47:10Z,2272675.864,NULL,Beweis,ushahidi,s,marudio,kizuizi,mtendaji,NA,sdf,NA,2,NA,NA,NA,NA,NA,NA,NA,NA,NA,NA,NA,NA,NA,NA,NA,NA,NA,NA,NA
3bc19,task,flow.Sequence,3_0_2_0_2,NA,NA,completion,10616.987,2262029.4,2262025.545,2262042.211,2272659.198,2272667.2,2023-03-02T12:47:10Z,2272675.864,NULL,Beweis,ushahidi,s,marudio,kizuizi,mtendaji,NA,sdf,NA,2,NA,NA,NA,NA,NA,NA,NA,NA,NA,NA,NA,NA,NA,NA,NA,NA,NA,NA,NA
3bc19,Deep Question,html.Page,3_0_2_0_3_0_0,NA,NA,form submission,5113.6359999999,2272667.4,2272659.198,2272675.864,2277789.5,2277790,2023-03-02T12:47:15Z,2277792.976,NULL,Annäherung,maegesho,d,NA,NA,NA,gesho,NA,NA,2,NA,NA,NA,NA,NA,NA,NA,NA,NA,NA,NA,NA,NA,NA,NA,NA,NA,NA,NA
3bc19,"""Richtig""-Screen",canvas.Screen,3_0_2_0_3_0_1,NA,NA,skipped,NA,2277792.7,NA,NA,2277789.5,2277792.8,2023-03-02T12:47:15Z,2277792.976,NULL,Annäherung,maegesho,d,NA,NA,NA,NA,sdf,NA,2,NA,NA,NA,NA,NA,NA,NA,NA,NA,NA,NA,NA,NA,NA,NA,NA,NA,NA,NA
3bc19,"""Falsch""-Screen",canvas.Screen,3_0_2_0_3_0_2,NA,NA,timeout,4999.8000000003,2277793.5,2277776.31,2277792.976,2282776.11,2282778.2,2023-03-02T12:47:20Z,2282792.776,NULL,Annäherung,maegesho,d,NA,NA,NA,NA,sdf,0,2,NA,NA,NA,NA,NA,NA,NA,NA,NA,NA,NA,NA,NA,NA,NA,NA,NA,NA,NA
3bc19,deep,flow.Sequence,3_0_2_0_3_0,NA,NA,completion,10100.246,2272667.4,2272659.198,2272675.864,2282776.11,2282778.6,2023-03-02T12:47:20Z,2282792.776,NULL,Annäherung,maegesho,d,NA,NA,NA,NA,sdf,NA,2,NA,NA,NA,NA,NA,NA,NA,NA,NA,NA,NA,NA,NA,NA,NA,NA,NA,NA,NA
3bc19,shallow,flow.Sequence,3_0_2_0_3_1,NA,NA,skipped,NA,2282778.8,NA,NA,2282776.11,2282778.9,2023-03-02T12:47:20Z,2282792.776,NULL,Annäherung,maegesho,d,NA,NA,NA,NA,sdf,NA,2,NA,NA,NA,NA,NA,NA,NA,NA,NA,NA,NA,NA,NA,NA,NA,NA,NA,NA,NA
3bc19,task,flow.Sequence,3_0_2_0_3,NA,NA,completion,10100.246,2272667.3,2272659.198,2272675.864,2282776.11,2282779.1,2023-03-02T12:47:20Z,2282792.776,NULL,Annäherung,maegesho,d,NA,NA,NA,NA,sdf,NA,2,NA,NA,NA,NA,NA,NA,NA,NA,NA,NA,NA,NA,NA,NA,NA,NA,NA,NA,NA
3bc19,deep,flow.Sequence,3_0_2_0_4_0,NA,NA,skipped,NA,2282779.3,NA,NA,2282776.11,2282779.4,2023-03-02T12:47:20Z,2282792.776,NULL,Vermutung,udhanifu,s,haramia,tikisho,itifaki,NA,sdf,NA,2,NA,NA,NA,NA,NA,NA,NA,NA,NA,NA,NA,NA,NA,NA,NA,NA,NA,NA,NA
3bc19,Shallow Question,html.Page,3_0_2_0_4_1_0,NA,NA,form submission,4571.3240000014,2282779.5,2282776.11,2282792.776,2287364.1,2287364.7,2023-03-02T12:47:25Z,2287376.432,NULL,Vermutung,udhanifu,s,haramia,tikisho,itifaki,udhanifu,NA,NA,2,NA,NA,NA,NA,NA,NA,NA,NA,NA,NA,NA,NA,NA,NA,NA,NA,NA,NA,NA
3bc19,"""Richtig""-Screen",canvas.Screen,3_0_2_0_4_1_1,NA,NA,timeout,4999.7999999998,2287367.9,2287359.766,2287376.432,2292359.566,2292362.2,2023-03-02T12:47:30Z,2292376.232,NULL,Vermutung,udhanifu,s,haramia,tikisho,itifaki,NA,sdf,1,2,NA,NA,NA,NA,NA,NA,NA,NA,NA,NA,NA,NA,NA,NA,NA,NA,NA,NA,NA
3bc19,"""Falsch""-Screen",canvas.Screen,3_0_2_0_4_1_2,NA,NA,skipped,NA,2292364.9,NA,NA,2292359.566,2292365,2023-03-02T12:47:30Z,2292376.232,NULL,Vermutung,udhanifu,s,haramia,tikisho,itifaki,NA,sdf,NA,2,NA,NA,NA,NA,NA,NA,NA,NA,NA,NA,NA,NA,NA,NA,NA,NA,NA,NA,NA
3bc19,shallow,flow.Sequence,3_0_2_0_4_1,NA,NA,completion,9566.79,2282779.5,2282776.11,2282792.776,2292359.566,2292365.1,2023-03-02T12:47:30Z,2292376.232,NULL,Vermutung,udhanifu,s,haramia,tikisho,itifaki,NA,sdf,NA,2,NA,NA,NA,NA,NA,NA,NA,NA,NA,NA,NA,NA,NA,NA,NA,NA,NA,NA,NA
3bc19,task,flow.Sequence,3_0_2_0_4,NA,NA,completion,9566.79,2282779.2,2282776.11,2282792.776,2292359.566,2292365.2,2023-03-02T12:47:30Z,2292376.232,NULL,Vermutung,udhanifu,s,haramia,tikisho,itifaki,NA,sdf,NA,2,NA,NA,NA,NA,NA,NA,NA,NA,NA,NA,NA,NA,NA,NA,NA,NA,NA,NA,NA
3bc19,deep,flow.Sequence,3_0_2_0_5_0,NA,NA,skipped,NA,2292365.4,NA,NA,2292359.566,2292365.5,2023-03-02T12:47:30Z,2292376.232,NULL,Inhalt,yaliyomo,s,kishawishi,hifadhi,kutembea,NA,sdf,NA,2,NA,NA,NA,NA,NA,NA,NA,NA,NA,NA,NA,NA,NA,NA,NA,NA,NA,NA,NA
3bc19,Shallow Question,html.Page,3_0_2_0_5_1_0,NA,NA,form submission,4304.4680000013,2292365.5,2292359.566,2292376.232,2296680.7,2296681.2,2023-03-02T12:47:34Z,2296693.249,NULL,Inhalt,yaliyomo,s,kishawishi,hifadhi,kutembea,yaliyomo,NA,NA,2,NA,NA,NA,NA,NA,NA,NA,NA,NA,NA,NA,NA,NA,NA,NA,NA,NA,NA,NA
3bc19,"""Richtig""-Screen",canvas.Screen,3_0_2_0_5_1_1,NA,NA,timeout,4999.8000000003,2296684.7,2296676.583,2296693.249,2301676.383,2301678.8,2023-03-02T12:47:39Z,2301693.049,NULL,Inhalt,yaliyomo,s,kishawishi,hifadhi,kutembea,NA,sdf,1,2,NA,NA,NA,NA,NA,NA,NA,NA,NA,NA,NA,NA,NA,NA,NA,NA,NA,NA,NA
3bc19,"""Falsch""-Screen",canvas.Screen,3_0_2_0_5_1_2,NA,NA,skipped,NA,2301683.4,NA,NA,2301676.383,2301683.5,2023-03-02T12:47:39Z,2301693.049,NULL,Inhalt,yaliyomo,s,kishawishi,hifadhi,kutembea,NA,sdf,NA,2,NA,NA,NA,NA,NA,NA,NA,NA,NA,NA,NA,NA,NA,NA,NA,NA,NA,NA,NA
3bc19,shallow,flow.Sequence,3_0_2_0_5_1,NA,NA,completion,9300.1510000001,2292365.5,2292359.566,2292376.232,2301676.383,2301683.7,2023-03-02T12:47:39Z,2301693.049,NULL,Inhalt,yaliyomo,s,kishawishi,hifadhi,kutembea,NA,sdf,NA,2,NA,NA,NA,NA,NA,NA,NA,NA,NA,NA,NA,NA,NA,NA,NA,NA,NA,NA,NA
3bc19,task,flow.Sequence,3_0_2_0_5,NA,NA,completion,9300.1510000001,2292365.4,2292359.566,2292376.232,2301676.383,2301683.8,2023-03-02T12:47:39Z,2301693.049,NULL,Inhalt,yaliyomo,s,kishawishi,hifadhi,kutembea,NA,sdf,NA,2,NA,NA,NA,NA,NA,NA,NA,NA,NA,NA,NA,NA,NA,NA,NA,NA,NA,NA,NA
3bc19,deep,flow.Sequence,3_0_2_0_6_0,NA,NA,skipped,NA,2301683.9,NA,NA,2301676.383,2301684,2023-03-02T12:47:39Z,2301693.049,NULL,Polizist,msongora,s,simanzi,mandhari,nidhamu,NA,sdf,NA,2,NA,NA,NA,NA,NA,NA,NA,NA,NA,NA,NA,NA,NA,NA,NA,NA,NA,NA,NA
3bc19,Shallow Question,html.Page,3_0_2_0_6_1_0,NA,NA,form submission,3971.0510000014,2301684,2301676.383,2301693.049,2305664.1,2305664.7,2023-03-02T12:47:43Z,2305676.766,NULL,Polizist,msongora,s,simanzi,mandhari,nidhamu,msongora,NA,NA,2,NA,NA,NA,NA,NA,NA,NA,NA,NA,NA,NA,NA,NA,NA,NA,NA,NA,NA,NA
3bc19,"""Richtig""-Screen",canvas.Screen,3_0_2_0_6_1_1,NA,NA,timeout,4999.8000000003,2305667.6,2305660.1,2305676.766,2310659.9,2310662,2023-03-02T12:47:48Z,2310676.566,NULL,Polizist,msongora,s,simanzi,mandhari,nidhamu,NA,sdf,1,2,NA,NA,NA,NA,NA,NA,NA,NA,NA,NA,NA,NA,NA,NA,NA,NA,NA,NA,NA
3bc19,"""Falsch""-Screen",canvas.Screen,3_0_2_0_6_1_2,NA,NA,skipped,NA,2310666.4,NA,NA,2310659.9,2310666.5,2023-03-02T12:47:48Z,2310676.566,NULL,Polizist,msongora,s,simanzi,mandhari,nidhamu,NA,sdf,NA,2,NA,NA,NA,NA,NA,NA,NA,NA,NA,NA,NA,NA,NA,NA,NA,NA,NA,NA,NA
3bc19,shallow,flow.Sequence,3_0_2_0_6_1,NA,NA,completion,8966.8509999998,2301684,2301676.383,2301693.049,2310659.9,2310666.6,2023-03-02T12:47:48Z,2310676.566,NULL,Polizist,msongora,s,simanzi,mandhari,nidhamu,NA,sdf,NA,2,NA,NA,NA,NA,NA,NA,NA,NA,NA,NA,NA,NA,NA,NA,NA,NA,NA,NA,NA
3bc19,task,flow.Sequence,3_0_2_0_6,NA,NA,completion,8966.8509999998,2301683.9,2301676.383,2301693.049,2310659.9,2310666.7,2023-03-02T12:47:48Z,2310676.566,NULL,Polizist,msongora,s,simanzi,mandhari,nidhamu,NA,sdf,NA,2,NA,NA,NA,NA,NA,NA,NA,NA,NA,NA,NA,NA,NA,NA,NA,NA,NA,NA,NA
3bc19,Deep Question,html.Page,3_0_2_0_7_0_0,NA,NA,form submission,7728.634000001,2310666.9,2310659.9,2310676.566,2318405.2,2318405.6,2023-03-02T12:47:56Z,2318426.851,NULL,Sympathie,mapendano,d,NA,NA,NA,a,NA,NA,2,NA,NA,NA,NA,NA,NA,NA,NA,NA,NA,NA,NA,NA,NA,NA,NA,NA,NA,NA
3bc19,"""Richtig""-Screen",canvas.Screen,3_0_2_0_7_0_1,NA,NA,skipped,NA,2318408.3,NA,NA,2318405.2,2318408.5,2023-03-02T12:47:56Z,2318426.851,NULL,Sympathie,mapendano,d,NA,NA,NA,NA,sdf,NA,2,NA,NA,NA,NA,NA,NA,NA,NA,NA,NA,NA,NA,NA,NA,NA,NA,NA,NA,NA
3bc19,"""Falsch""-Screen",canvas.Screen,3_0_2_0_7_0_2,NA,NA,timeout,4999.8000000003,2318409.7,2318410.185,2318426.851,2323409.985,2323412,2023-03-02T12:48:01Z,2323426.651,NULL,Sympathie,mapendano,d,NA,NA,NA,NA,sdf,0,2,NA,NA,NA,NA,NA,NA,NA,NA,NA,NA,NA,NA,NA,NA,NA,NA,NA,NA,NA
3bc19,deep,flow.Sequence,3_0_2_0_7_0,NA,NA,completion,12733.419,2310666.9,2310659.9,2310676.566,2323409.985,2323412.5,2023-03-02T12:48:01Z,2323426.651,NULL,Sympathie,mapendano,d,NA,NA,NA,NA,sdf,NA,2,NA,NA,NA,NA,NA,NA,NA,NA,NA,NA,NA,NA,NA,NA,NA,NA,NA,NA,NA
3bc19,shallow,flow.Sequence,3_0_2_0_7_1,NA,NA,skipped,NA,2323412.7,NA,NA,2323409.985,2323412.8,2023-03-02T12:48:01Z,2323426.651,NULL,Sympathie,mapendano,d,NA,NA,NA,NA,sdf,NA,2,NA,NA,NA,NA,NA,NA,NA,NA,NA,NA,NA,NA,NA,NA,NA,NA,NA,NA,NA
3bc19,task,flow.Sequence,3_0_2_0_7,NA,NA,completion,12733.419,2310666.9,2310659.9,2310676.566,2323409.985,2323412.9,2023-03-02T12:48:01Z,2323426.651,NULL,Sympathie,mapendano,d,NA,NA,NA,NA,sdf,NA,2,NA,NA,NA,NA,NA,NA,NA,NA,NA,NA,NA,NA,NA,NA,NA,NA,NA,NA,NA
3bc19,block,flow.Loop,3_0_2_0,NA,NA,completion,96784.49,2226614.5,2226608.829,2226625.495,2323409.985,2323413.2,2023-03-02T12:48:01Z,2323426.651,NULL,NA,NA,NA,NA,NA,NA,NA,sdf,NA,2,NA,NA,NA,NA,NA,NA,NA,NA,NA,NA,NA,NA,NA,NA,NA,NA,NA,NA,NA
3bc19,weiter,canvas.Screen,3_0_2_1,sdf,keypress(Space),response,1111.3489999999,2323413.3,2323409.985,2323426.651,2324538,2324543.1,2023-03-02T12:48:02Z,2324576.605,NULL,NA,NA,NA,NA,NA,NA,NA,sdf,NA,2,NA,NA,NA,NA,NA,NA,NA,NA,NA,NA,NA,NA,NA,NA,NA,NA,NA,NA,NA
3bc19,check continue,flow.Sequence,3_0_2,NA,NA,completion,97912.505,2226614.5,2226608.829,2226625.495,2324538,2324543.5,2023-03-02T12:48:02Z,2324576.605,NULL,NA,NA,NA,NA,NA,NA,NA,sdf,NA,2,NA,NA,NA,NA,NA,NA,NA,NA,NA,NA,NA,NA,NA,NA,NA,NA,NA,NA,NA
3bc19,deep,flow.Sequence,3_0_3_0_0_0,NA,NA,skipped,NA,2324571.5,NA,NA,2324538,2324571.7,2023-03-02T12:48:02Z,2324576.605,NULL,Inhalt,yaliyomo,s,kishawishi,hifadhi,kutembea,NA,qt,NA,3,NA,NA,NA,NA,NA,NA,NA,NA,NA,NA,NA,NA,NA,NA,NA,NA,NA,NA,NA
3bc19,Shallow Question,html.Page,3_0_3_0_0_1_0,NA,NA,form submission,3555.1950000008,2324571.8,2324559.939,2324576.605,2328131.8,2328132.3,2023-03-02T12:48:05Z,2328143.643,NULL,Inhalt,yaliyomo,s,kishawishi,hifadhi,kutembea,yaliyomo,NA,NA,3,NA,NA,NA,NA,NA,NA,NA,NA,NA,NA,NA,NA,NA,NA,NA,NA,NA,NA,NA
3bc19,"""Richtig""-Screen",canvas.Screen,3_0_3_0_0_1_1,NA,NA,timeout,4999.7999999998,2328133.5,2328126.977,2328143.643,2333126.777,2333128.8,2023-03-02T12:48:10Z,2333143.443,NULL,Inhalt,yaliyomo,s,kishawishi,hifadhi,kutembea,NA,qt,1,3,NA,NA,NA,NA,NA,NA,NA,NA,NA,NA,NA,NA,NA,NA,NA,NA,NA,NA,NA
3bc19,"""Falsch""-Screen",canvas.Screen,3_0_3_0_0_1_2,NA,NA,skipped,NA,2333133.4,NA,NA,2333126.777,2333133.5,2023-03-02T12:48:10Z,2333143.443,NULL,Inhalt,yaliyomo,s,kishawishi,hifadhi,kutembea,NA,qt,NA,3,NA,NA,NA,NA,NA,NA,NA,NA,NA,NA,NA,NA,NA,NA,NA,NA,NA,NA,NA
3bc19,shallow,flow.Sequence,3_0_3_0_0_1,NA,NA,completion,8550.1719999998,2324571.8,2324559.939,2324576.605,2333126.777,2333133.6,2023-03-02T12:48:10Z,2333143.443,NULL,Inhalt,yaliyomo,s,kishawishi,hifadhi,kutembea,NA,qt,NA,3,NA,NA,NA,NA,NA,NA,NA,NA,NA,NA,NA,NA,NA,NA,NA,NA,NA,NA,NA
3bc19,task,flow.Sequence,3_0_3_0_0,NA,NA,completion,8550.1719999998,2324571.5,2324559.939,2324576.605,2333126.777,2333133.7,2023-03-02T12:48:10Z,2333143.443,NULL,Inhalt,yaliyomo,s,kishawishi,hifadhi,kutembea,NA,qt,NA,3,NA,NA,NA,NA,NA,NA,NA,NA,NA,NA,NA,NA,NA,NA,NA,NA,NA,NA,NA
3bc19,Deep Question,html.Page,3_0_3_0_1_0_0,NA,NA,form submission,12487.357000001,2333133.8,2333126.777,2333143.443,2345630.8,2345631.3,2023-03-02T12:48:23Z,2345644.018,NULL,Toleranz,kuvumiliana,d,NA,NA,NA,kuvumiliana,NA,NA,3,NA,NA,NA,NA,NA,NA,NA,NA,NA,NA,NA,NA,NA,NA,NA,NA,NA,NA,NA
3bc19,"""Richtig""-Screen",canvas.Screen,3_0_3_0_1_0_1,NA,NA,timeout,4999.7999999998,2345634.5,2345627.352,2345644.018,2350627.152,2350629.6,2023-03-02T12:48:28Z,2350643.818,NULL,Toleranz,kuvumiliana,d,NA,NA,NA,NA,qt,1,3,NA,NA,NA,NA,NA,NA,NA,NA,NA,NA,NA,NA,NA,NA,NA,NA,NA,NA,NA
3bc19,"""Falsch""-Screen",canvas.Screen,3_0_3_0_1_0_2,NA,NA,skipped,NA,2350634.2,NA,NA,2350627.152,2350634.3,2023-03-02T12:48:28Z,2350643.818,NULL,Toleranz,kuvumiliana,d,NA,NA,NA,NA,qt,NA,3,NA,NA,NA,NA,NA,NA,NA,NA,NA,NA,NA,NA,NA,NA,NA,NA,NA,NA,NA
3bc19,deep,flow.Sequence,3_0_3_0_1_0,NA,NA,completion,17483.709,2333133.8,2333126.777,2333143.443,2350627.152,2350634.5,2023-03-02T12:48:28Z,2350643.818,NULL,Toleranz,kuvumiliana,d,NA,NA,NA,NA,qt,NA,3,NA,NA,NA,NA,NA,NA,NA,NA,NA,NA,NA,NA,NA,NA,NA,NA,NA,NA,NA
3bc19,shallow,flow.Sequence,3_0_3_0_1_1,NA,NA,skipped,NA,2350634.6,NA,NA,2350627.152,2350634.6,2023-03-02T12:48:28Z,2350643.818,NULL,Toleranz,kuvumiliana,d,NA,NA,NA,NA,qt,NA,3,NA,NA,NA,NA,NA,NA,NA,NA,NA,NA,NA,NA,NA,NA,NA,NA,NA,NA,NA
3bc19,task,flow.Sequence,3_0_3_0_1,NA,NA,completion,17483.709,2333133.8,2333126.777,2333143.443,2350627.152,2350634.8,2023-03-02T12:48:28Z,2350643.818,NULL,Toleranz,kuvumiliana,d,NA,NA,NA,NA,qt,NA,3,NA,NA,NA,NA,NA,NA,NA,NA,NA,NA,NA,NA,NA,NA,NA,NA,NA,NA,NA
3bc19,Deep Question,html.Page,3_0_3_0_2_0_0,NA,NA,form submission,6737.2820000015,2350634.9,2350627.152,2350643.818,2357381.1,2357381.6,2023-03-02T12:48:35Z,2357394.063,NULL,Annäherung,maegesho,d,NA,NA,NA,maegesho,NA,NA,3,NA,NA,NA,NA,NA,NA,NA,NA,NA,NA,NA,NA,NA,NA,NA,NA,NA,NA,NA
3bc19,"""Richtig""-Screen",canvas.Screen,3_0_3_0_2_0_1,NA,NA,timeout,4999.7999999998,2357385.1,2357377.397,2357394.063,2362377.197,2362379.7,2023-03-02T12:48:40Z,2362393.863,NULL,Annäherung,maegesho,d,NA,NA,NA,NA,qt,1,3,NA,NA,NA,NA,NA,NA,NA,NA,NA,NA,NA,NA,NA,NA,NA,NA,NA,NA,NA
3bc19,"""Falsch""-Screen",canvas.Screen,3_0_3_0_2_0_2,NA,NA,skipped,NA,2362384,NA,NA,2362377.197,2362384.2,2023-03-02T12:48:40Z,2362393.863,NULL,Annäherung,maegesho,d,NA,NA,NA,NA,qt,NA,3,NA,NA,NA,NA,NA,NA,NA,NA,NA,NA,NA,NA,NA,NA,NA,NA,NA,NA,NA
3bc19,deep,flow.Sequence,3_0_3_0_2_0,NA,NA,completion,11733.379,2350634.9,2350627.152,2350643.818,2362377.197,2362384.3,2023-03-02T12:48:40Z,2362393.863,NULL,Annäherung,maegesho,d,NA,NA,NA,NA,qt,NA,3,NA,NA,NA,NA,NA,NA,NA,NA,NA,NA,NA,NA,NA,NA,NA,NA,NA,NA,NA
3bc19,shallow,flow.Sequence,3_0_3_0_2_1,NA,NA,skipped,NA,2362384.3,NA,NA,2362377.197,2362384.4,2023-03-02T12:48:40Z,2362393.863,NULL,Annäherung,maegesho,d,NA,NA,NA,NA,qt,NA,3,NA,NA,NA,NA,NA,NA,NA,NA,NA,NA,NA,NA,NA,NA,NA,NA,NA,NA,NA
3bc19,task,flow.Sequence,3_0_3_0_2,NA,NA,completion,11733.379,2350634.8,2350627.152,2350643.818,2362377.197,2362384.5,2023-03-02T12:48:40Z,2362393.863,NULL,Annäherung,maegesho,d,NA,NA,NA,NA,qt,NA,3,NA,NA,NA,NA,NA,NA,NA,NA,NA,NA,NA,NA,NA,NA,NA,NA,NA,NA,NA
3bc19,Deep Question,html.Page,3_0_3_0_3_0_0,NA,NA,form submission,21321.537,2362384.6,2362377.197,2362393.863,2383715.4,2383715.8,2023-03-02T12:49:01Z,2383727.375,NULL,Sympathie,mapendano,d,NA,NA,NA,mapendano,NA,NA,3,NA,NA,NA,NA,NA,NA,NA,NA,NA,NA,NA,NA,NA,NA,NA,NA,NA,NA,NA
3bc19,"""Richtig""-Screen",canvas.Screen,3_0_3_0_3_0_1,NA,NA,timeout,4999.7999999998,2383718.7,2383710.709,2383727.375,2388710.509,2388712.2,2023-03-02T12:49:06Z,2388727.175,NULL,Sympathie,mapendano,d,NA,NA,NA,NA,qt,1,3,NA,NA,NA,NA,NA,NA,NA,NA,NA,NA,NA,NA,NA,NA,NA,NA,NA,NA,NA
3bc19,"""Falsch""-Screen",canvas.Screen,3_0_3_0_3_0_2,NA,NA,skipped,NA,2388715.8,NA,NA,2388710.509,2388715.9,2023-03-02T12:49:06Z,2388727.175,NULL,Sympathie,mapendano,d,NA,NA,NA,NA,qt,NA,3,NA,NA,NA,NA,NA,NA,NA,NA,NA,NA,NA,NA,NA,NA,NA,NA,NA,NA,NA
3bc19,deep,flow.Sequence,3_0_3_0_3_0,NA,NA,completion,26316.646,2362384.6,2362377.197,2362393.863,2388710.509,2388716,2023-03-02T12:49:06Z,2388727.175,NULL,Sympathie,mapendano,d,NA,NA,NA,NA,qt,NA,3,NA,NA,NA,NA,NA,NA,NA,NA,NA,NA,NA,NA,NA,NA,NA,NA,NA,NA,NA
3bc19,shallow,flow.Sequence,3_0_3_0_3_1,NA,NA,skipped,NA,2388716,NA,NA,2388710.509,2388716.1,2023-03-02T12:49:06Z,2388727.175,NULL,Sympathie,mapendano,d,NA,NA,NA,NA,qt,NA,3,NA,NA,NA,NA,NA,NA,NA,NA,NA,NA,NA,NA,NA,NA,NA,NA,NA,NA,NA
3bc19,task,flow.Sequence,3_0_3_0_3,NA,NA,completion,26316.646,2362384.6,2362377.197,2362393.863,2388710.509,2388716.3,2023-03-02T12:49:06Z,2388727.175,NULL,Sympathie,mapendano,d,NA,NA,NA,NA,qt,NA,3,NA,NA,NA,NA,NA,NA,NA,NA,NA,NA,NA,NA,NA,NA,NA,NA,NA,NA,NA
3bc19,deep,flow.Sequence,3_0_3_0_4_0,NA,NA,skipped,NA,2388716.3,NA,NA,2388710.509,2388716.4,2023-03-02T12:49:06Z,2388727.175,NULL,Polizist,msongora,s,simanzi,mandhari,nidhamu,NA,qt,NA,3,NA,NA,NA,NA,NA,NA,NA,NA,NA,NA,NA,NA,NA,NA,NA,NA,NA,NA,NA
3bc19,Shallow Question,html.Page,3_0_3_0_4_1_0,NA,NA,form submission,8253.9250000017,2388716.4,2388710.509,2388727.175,2396981.1,2396981.6,2023-03-02T12:49:14Z,2396994.223,NULL,Polizist,msongora,s,simanzi,mandhari,nidhamu,msongora,NA,NA,3,NA,NA,NA,NA,NA,NA,NA,NA,NA,NA,NA,NA,NA,NA,NA,NA,NA,NA,NA
3bc19,"""Richtig""-Screen",canvas.Screen,3_0_3_0_4_1_1,NA,NA,timeout,4999.7999999998,2396984.2,2396977.557,2396994.223,2401977.357,2401978.9,2023-03-02T12:49:19Z,2401994.023,NULL,Polizist,msongora,s,simanzi,mandhari,nidhamu,NA,qt,1,3,NA,NA,NA,NA,NA,NA,NA,NA,NA,NA,NA,NA,NA,NA,NA,NA,NA,NA,NA
3bc19,"""Falsch""-Screen",canvas.Screen,3_0_3_0_4_1_2,NA,NA,skipped,NA,2401983.4,NA,NA,2401977.357,2401983.7,2023-03-02T12:49:19Z,2401994.023,NULL,Polizist,msongora,s,simanzi,mandhari,nidhamu,NA,qt,NA,3,NA,NA,NA,NA,NA,NA,NA,NA,NA,NA,NA,NA,NA,NA,NA,NA,NA,NA,NA
3bc19,shallow,flow.Sequence,3_0_3_0_4_1,NA,NA,completion,13250.182,2388716.4,2388710.509,2388727.175,2401977.357,2401983.8,2023-03-02T12:49:19Z,2401994.023,NULL,Polizist,msongora,s,simanzi,mandhari,nidhamu,NA,qt,NA,3,NA,NA,NA,NA,NA,NA,NA,NA,NA,NA,NA,NA,NA,NA,NA,NA,NA,NA,NA
3bc19,task,flow.Sequence,3_0_3_0_4,NA,NA,completion,13250.182,2388716.3,2388710.509,2388727.175,2401977.357,2401983.9,2023-03-02T12:49:19Z,2401994.023,NULL,Polizist,msongora,s,simanzi,mandhari,nidhamu,NA,qt,NA,3,NA,NA,NA,NA,NA,NA,NA,NA,NA,NA,NA,NA,NA,NA,NA,NA,NA,NA,NA
3bc19,Deep Question,html.Page,3_0_3_0_5_0_0,NA,NA,form submission,21657.777000001,2401984.1,2401977.357,2401994.023,2423651.8,2423652.5,2023-03-02T12:49:41Z,2423661.569,NULL,Schlange,foleni,d,NA,NA,NA,foleni,NA,NA,3,NA,NA,NA,NA,NA,NA,NA,NA,NA,NA,NA,NA,NA,NA,NA,NA,NA,NA,NA
3bc19,"""Richtig""-Screen",canvas.Screen,3_0_3_0_5_0_1,NA,NA,timeout,4999.7999999998,2423655.9,2423644.903,2423661.569,2428644.703,2428647.1,2023-03-02T12:49:46Z,2428661.369,NULL,Schlange,foleni,d,NA,NA,NA,NA,qt,1,3,NA,NA,NA,NA,NA,NA,NA,NA,NA,NA,NA,NA,NA,NA,NA,NA,NA,NA,NA
3bc19,"""Falsch""-Screen",canvas.Screen,3_0_3_0_5_0_2,NA,NA,skipped,NA,2428650.8,NA,NA,2428644.703,2428651,2023-03-02T12:49:46Z,2428661.369,NULL,Schlange,foleni,d,NA,NA,NA,NA,qt,NA,3,NA,NA,NA,NA,NA,NA,NA,NA,NA,NA,NA,NA,NA,NA,NA,NA,NA,NA,NA
3bc19,deep,flow.Sequence,3_0_3_0_5_0,NA,NA,completion,26650.68,2401984.1,2401977.357,2401994.023,2428644.703,2428651.1,2023-03-02T12:49:46Z,2428661.369,NULL,Schlange,foleni,d,NA,NA,NA,NA,qt,NA,3,NA,NA,NA,NA,NA,NA,NA,NA,NA,NA,NA,NA,NA,NA,NA,NA,NA,NA,NA
3bc19,shallow,flow.Sequence,3_0_3_0_5_1,NA,NA,skipped,NA,2428651.2,NA,NA,2428644.703,2428651.2,2023-03-02T12:49:46Z,2428661.369,NULL,Schlange,foleni,d,NA,NA,NA,NA,qt,NA,3,NA,NA,NA,NA,NA,NA,NA,NA,NA,NA,NA,NA,NA,NA,NA,NA,NA,NA,NA
3bc19,task,flow.Sequence,3_0_3_0_5,NA,NA,completion,26650.68,2401984,2401977.357,2401994.023,2428644.703,2428651.3,2023-03-02T12:49:46Z,2428661.369,NULL,Schlange,foleni,d,NA,NA,NA,NA,qt,NA,3,NA,NA,NA,NA,NA,NA,NA,NA,NA,NA,NA,NA,NA,NA,NA,NA,NA,NA,NA
3bc19,deep,flow.Sequence,3_0_3_0_6_0,NA,NA,skipped,NA,2428651.4,NA,NA,2428644.703,2428651.4,2023-03-02T12:49:46Z,2428661.369,NULL,Vermutung,udhanifu,s,haramia,tikisho,itifaki,NA,qt,NA,3,NA,NA,NA,NA,NA,NA,NA,NA,NA,NA,NA,NA,NA,NA,NA,NA,NA,NA,NA
3bc19,Shallow Question,html.Page,3_0_3_0_6_1_0,NA,NA,form submission,12604.731000002,2428651.6,2428644.703,2428661.369,2441266.1,2441266.6,2023-03-02T12:49:58Z,2441278.07,NULL,Vermutung,udhanifu,s,haramia,tikisho,itifaki,udhanifu,NA,NA,3,NA,NA,NA,NA,NA,NA,NA,NA,NA,NA,NA,NA,NA,NA,NA,NA,NA,NA,NA
3bc19,"""Richtig""-Screen",canvas.Screen,3_0_3_0_6_1_1,NA,NA,timeout,4999.8000000003,2441270.1,2441261.404,2441278.07,2446261.204,2446262.8,2023-03-02T12:50:03Z,2446277.87,NULL,Vermutung,udhanifu,s,haramia,tikisho,itifaki,NA,qt,1,3,NA,NA,NA,NA,NA,NA,NA,NA,NA,NA,NA,NA,NA,NA,NA,NA,NA,NA,NA
3bc19,"""Falsch""-Screen",canvas.Screen,3_0_3_0_6_1_2,NA,NA,skipped,NA,2446267.1,NA,NA,2446261.204,2446267.2,2023-03-02T12:50:03Z,2446277.87,NULL,Vermutung,udhanifu,s,haramia,tikisho,itifaki,NA,qt,NA,3,NA,NA,NA,NA,NA,NA,NA,NA,NA,NA,NA,NA,NA,NA,NA,NA,NA,NA,NA
3bc19,shallow,flow.Sequence,3_0_3_0_6_1,NA,NA,completion,17599.835,2428651.6,2428644.703,2428661.369,2446261.204,2446267.4,2023-03-02T12:50:03Z,2446277.87,NULL,Vermutung,udhanifu,s,haramia,tikisho,itifaki,NA,qt,NA,3,NA,NA,NA,NA,NA,NA,NA,NA,NA,NA,NA,NA,NA,NA,NA,NA,NA,NA,NA
3bc19,task,flow.Sequence,3_0_3_0_6,NA,NA,completion,17599.835,2428651.4,2428644.703,2428661.369,2446261.204,2446267.6,2023-03-02T12:50:03Z,2446277.87,NULL,Vermutung,udhanifu,s,haramia,tikisho,itifaki,NA,qt,NA,3,NA,NA,NA,NA,NA,NA,NA,NA,NA,NA,NA,NA,NA,NA,NA,NA,NA,NA,NA
3bc19,deep,flow.Sequence,3_0_3_0_7_0,NA,NA,skipped,NA,2446267.7,NA,NA,2446261.204,2446267.8,2023-03-02T12:50:03Z,2446277.87,NULL,Beweis,ushahidi,s,marudio,kizuizi,mtendaji,NA,qt,NA,3,NA,NA,NA,NA,NA,NA,NA,NA,NA,NA,NA,NA,NA,NA,NA,NA,NA,NA,NA
3bc19,Shallow Question,html.Page,3_0_3_0_7_1_0,NA,NA,form submission,29405.53,2446267.9,2446261.204,2446277.87,2475683.4,2475683.8,2023-03-02T12:50:33Z,2475695.485,NULL,Beweis,ushahidi,s,marudio,kizuizi,mtendaji,kizuizi,NA,NA,3,NA,NA,NA,NA,NA,NA,NA,NA,NA,NA,NA,NA,NA,NA,NA,NA,NA,NA,NA
3bc19,"""Richtig""-Screen",canvas.Screen,3_0_3_0_7_1_1,NA,NA,skipped,NA,2475686.3,NA,NA,2475683.4,2475686.5,2023-03-02T12:50:33Z,2475695.485,NULL,Beweis,ushahidi,s,marudio,kizuizi,mtendaji,NA,qt,NA,3,NA,NA,NA,NA,NA,NA,NA,NA,NA,NA,NA,NA,NA,NA,NA,NA,NA,NA,NA
3bc19,"""Falsch""-Screen",canvas.Screen,3_0_3_0_7_1_2,NA,NA,timeout,4999.8000000003,2475687.1,2475678.819,2475695.485,2480678.619,2480681.2,2023-03-02T12:50:38Z,2480695.285,NULL,Beweis,ushahidi,s,marudio,kizuizi,mtendaji,NA,qt,0,3,NA,NA,NA,NA,NA,NA,NA,NA,NA,NA,NA,NA,NA,NA,NA,NA,NA,NA,NA
3bc19,shallow,flow.Sequence,3_0_3_0_7_1,NA,NA,completion,34400.749,2446267.9,2446261.204,2446277.87,2480678.619,2480681.7,2023-03-02T12:50:38Z,2480695.285,NULL,Beweis,ushahidi,s,marudio,kizuizi,mtendaji,NA,qt,NA,3,NA,NA,NA,NA,NA,NA,NA,NA,NA,NA,NA,NA,NA,NA,NA,NA,NA,NA,NA
3bc19,task,flow.Sequence,3_0_3_0_7,NA,NA,completion,34400.749,2446267.6,2446261.204,2446277.87,2480678.619,2480681.9,2023-03-02T12:50:38Z,2480695.285,NULL,Beweis,ushahidi,s,marudio,kizuizi,mtendaji,NA,qt,NA,3,NA,NA,NA,NA,NA,NA,NA,NA,NA,NA,NA,NA,NA,NA,NA,NA,NA,NA,NA
3bc19,block,flow.Loop,3_0_3_0,NA,NA,completion,156102.014,2324571.5,2324559.939,2324576.605,2480678.619,2480682.1,2023-03-02T12:50:38Z,2480695.285,NULL,NA,NA,NA,NA,NA,NA,NA,qt,NA,3,NA,NA,NA,NA,NA,NA,NA,NA,NA,NA,NA,NA,NA,NA,NA,NA,NA,NA,NA
3bc19,weiter,canvas.Screen,3_0_3_1,sdf,keypress(Space),response,1006.6150000002,2480682.2,2480678.619,2480695.285,2481701.9,2481708,2023-03-02T12:50:39Z,2481911.903,NULL,NA,NA,NA,NA,NA,NA,NA,qt,NA,3,NA,NA,NA,NA,NA,NA,NA,NA,NA,NA,NA,NA,NA,NA,NA,NA,NA,NA,NA
3bc19,check continue,flow.Sequence,3_0_3,NA,NA,completion,157125.295,2324571.5,2324559.939,2324576.605,2481701.9,2481708.3,2023-03-02T12:50:39Z,2481911.903,NULL,NA,NA,NA,NA,NA,NA,NA,qt,NA,3,NA,NA,NA,NA,NA,NA,NA,NA,NA,NA,NA,NA,NA,NA,NA,NA,NA,NA,NA
3bc19,check continue,flow.Sequence,3_0_4,NA,NA,skipped,NA,2481735.4,NA,NA,2481701.9,2481735.4,2023-03-02T12:50:39Z,2481911.903,NULL,NA,NA,NA,NA,NA,NA,NA,sd,NA,4,NA,NA,NA,NA,NA,NA,NA,NA,NA,NA,NA,NA,NA,NA,NA,NA,NA,NA,NA
3bc19,check continue,flow.Sequence,3_0_5,NA,NA,skipped,NA,2481749.2,NA,NA,2481701.9,2481749.2,2023-03-02T12:50:39Z,2481911.903,NULL,NA,NA,NA,NA,NA,NA,NA,sdf,NA,5,NA,NA,NA,NA,NA,NA,NA,NA,NA,NA,NA,NA,NA,NA,NA,NA,NA,NA,NA
3bc19,check continue,flow.Sequence,3_0_6,NA,NA,skipped,NA,2481761.2,NA,NA,2481701.9,2481761.2,2023-03-02T12:50:39Z,2481911.903,NULL,NA,NA,NA,NA,NA,NA,NA,dfs,NA,6,NA,NA,NA,NA,NA,NA,NA,NA,NA,NA,NA,NA,NA,NA,NA,NA,NA,NA,NA
3bc19,check continue,flow.Sequence,3_0_7,NA,NA,skipped,NA,2481772.3,NA,NA,2481701.9,2481772.3,2023-03-02T12:50:39Z,2481911.903,NULL,NA,NA,NA,NA,NA,NA,NA,df,NA,7,NA,NA,NA,NA,NA,NA,NA,NA,NA,NA,NA,NA,NA,NA,NA,NA,NA,NA,NA
3bc19,check continue,flow.Sequence,3_0_8,NA,NA,skipped,NA,2481780.6,NA,NA,2481701.9,2481780.6,2023-03-02T12:50:39Z,2481911.903,NULL,NA,NA,NA,NA,NA,NA,NA,dfs,NA,8,NA,NA,NA,NA,NA,NA,NA,NA,NA,NA,NA,NA,NA,NA,NA,NA,NA,NA,NA
3bc19,check continue,flow.Sequence,3_0_9,NA,NA,skipped,NA,2481788,NA,NA,2481701.9,2481788,2023-03-02T12:50:39Z,2481911.903,NULL,NA,NA,NA,NA,NA,NA,NA,dsf,NA,9,NA,NA,NA,NA,NA,NA,NA,NA,NA,NA,NA,NA,NA,NA,NA,NA,NA,NA,NA
3bc19,check continue,flow.Sequence,3_0_10,NA,NA,skipped,NA,2481795.9,NA,NA,2481701.9,2481796,2023-03-02T12:50:39Z,2481911.903,NULL,NA,NA,NA,NA,NA,NA,NA,df,NA,10,NA,NA,NA,NA,NA,NA,NA,NA,NA,NA,NA,NA,NA,NA,NA,NA,NA,NA,NA
3bc19,check continue,flow.Sequence,3_0_11,NA,NA,skipped,NA,2481803,NA,NA,2481701.9,2481803.1,2023-03-02T12:50:39Z,2481911.903,NULL,NA,NA,NA,NA,NA,NA,NA,dfs,NA,11,NA,NA,NA,NA,NA,NA,NA,NA,NA,NA,NA,NA,NA,NA,NA,NA,NA,NA,NA
3bc19,check continue,flow.Sequence,3_0_12,NA,NA,skipped,NA,2481809.8,NA,NA,2481701.9,2481809.8,2023-03-02T12:50:39Z,2481911.903,NULL,NA,NA,NA,NA,NA,NA,NA,dsf,NA,12,NA,NA,NA,NA,NA,NA,NA,NA,NA,NA,NA,NA,NA,NA,NA,NA,NA,NA,NA
3bc19,check continue,flow.Sequence,3_0_13,NA,NA,skipped,NA,2481816.5,NA,NA,2481701.9,2481816.6,2023-03-02T12:50:39Z,2481911.903,NULL,NA,NA,NA,NA,NA,NA,NA,dsf,NA,13,NA,NA,NA,NA,NA,NA,NA,NA,NA,NA,NA,NA,NA,NA,NA,NA,NA,NA,NA
3bc19,check continue,flow.Sequence,3_0_14,NA,NA,skipped,NA,2481823,NA,NA,2481701.9,2481823.1,2023-03-02T12:50:39Z,2481911.903,NULL,NA,NA,NA,NA,NA,NA,NA,NA,NA,14,NA,NA,NA,NA,NA,NA,NA,NA,NA,NA,NA,NA,NA,NA,NA,NA,NA,NA,NA
3bc19,check continue,flow.Sequence,3_0_15,NA,NA,skipped,NA,2481829.3,NA,NA,2481701.9,2481829.4,2023-03-02T12:50:39Z,2481911.903,NULL,NA,NA,NA,NA,NA,NA,NA,NA,NA,15,NA,NA,NA,NA,NA,NA,NA,NA,NA,NA,NA,NA,NA,NA,NA,NA,NA,NA,NA
3bc19,check continue,flow.Sequence,3_0_16,NA,NA,skipped,NA,2481835.5,NA,NA,2481701.9,2481835.6,2023-03-02T12:50:39Z,2481911.903,NULL,NA,NA,NA,NA,NA,NA,NA,NA,NA,16,NA,NA,NA,NA,NA,NA,NA,NA,NA,NA,NA,NA,NA,NA,NA,NA,NA,NA,NA
3bc19,check continue,flow.Sequence,3_0_17,NA,NA,skipped,NA,2481841.6,NA,NA,2481701.9,2481841.7,2023-03-02T12:50:39Z,2481911.903,NULL,NA,NA,NA,NA,NA,NA,NA,NA,NA,17,NA,NA,NA,NA,NA,NA,NA,NA,NA,NA,NA,NA,NA,NA,NA,NA,NA,NA,NA
3bc19,check continue,flow.Sequence,3_0_18,NA,NA,skipped,NA,2481848.4,NA,NA,2481701.9,2481848.4,2023-03-02T12:50:39Z,2481911.903,NULL,NA,NA,NA,NA,NA,NA,NA,NA,NA,18,NA,NA,NA,NA,NA,NA,NA,NA,NA,NA,NA,NA,NA,NA,NA,NA,NA,NA,NA
3bc19,check continue,flow.Sequence,3_0_19,NA,NA,skipped,NA,2481854.4,NA,NA,2481701.9,2481854.4,2023-03-02T12:50:39Z,2481911.903,NULL,NA,NA,NA,NA,NA,NA,NA,NA,NA,19,NA,NA,NA,NA,NA,NA,NA,NA,NA,NA,NA,NA,NA,NA,NA,NA,NA,NA,NA
3bc19,check continue,flow.Sequence,3_0_20,NA,NA,skipped,NA,2481861,NA,NA,2481701.9,2481861.1,2023-03-02T12:50:39Z,2481911.903,NULL,NA,NA,NA,NA,NA,NA,NA,NA,NA,20,NA,NA,NA,NA,NA,NA,NA,NA,NA,NA,NA,NA,NA,NA,NA,NA,NA,NA,NA
3bc19,check continue,flow.Sequence,3_0_21,NA,NA,skipped,NA,2481866.8,NA,NA,2481701.9,2481866.8,2023-03-02T12:50:39Z,2481911.903,NULL,NA,NA,NA,NA,NA,NA,NA,NA,NA,21,NA,NA,NA,NA,NA,NA,NA,NA,NA,NA,NA,NA,NA,NA,NA,NA,NA,NA,NA
3bc19,check continue,flow.Sequence,3_0_22,NA,NA,skipped,NA,2481873.4,NA,NA,2481701.9,2481873.4,2023-03-02T12:50:39Z,2481911.903,NULL,NA,NA,NA,NA,NA,NA,NA,NA,NA,22,NA,NA,NA,NA,NA,NA,NA,NA,NA,NA,NA,NA,NA,NA,NA,NA,NA,NA,NA
3bc19,check continue,flow.Sequence,3_0_23,NA,NA,skipped,NA,2481879,NA,NA,2481701.9,2481879.1,2023-03-02T12:50:39Z,2481911.903,NULL,NA,NA,NA,NA,NA,NA,NA,NA,NA,23,NA,NA,NA,NA,NA,NA,NA,NA,NA,NA,NA,NA,NA,NA,NA,NA,NA,NA,NA
3bc19,check continue,flow.Sequence,3_0_24,NA,NA,skipped,NA,2481885.7,NA,NA,2481701.9,2481885.7,2023-03-02T12:50:39Z,2481911.903,NULL,NA,NA,NA,NA,NA,NA,NA,NA,NA,24,NA,NA,NA,NA,NA,NA,NA,NA,NA,NA,NA,NA,NA,NA,NA,NA,NA,NA,NA
3bc19,check continue,flow.Sequence,3_0_25,NA,NA,skipped,NA,2481891.3,NA,NA,2481701.9,2481891.3,2023-03-02T12:50:39Z,2481911.903,NULL,NA,NA,NA,NA,NA,NA,NA,NA,NA,25,NA,NA,NA,NA,NA,NA,NA,NA,NA,NA,NA,NA,NA,NA,NA,NA,NA,NA,NA
3bc19,check continue,flow.Sequence,3_0_26,NA,NA,skipped,NA,2481903.4,NA,NA,2481701.9,2481903.5,2023-03-02T12:50:39Z,2481911.903,NULL,NA,NA,NA,NA,NA,NA,NA,NA,NA,26,NA,NA,NA,NA,NA,NA,NA,NA,NA,NA,NA,NA,NA,NA,NA,NA,NA,NA,NA
3bc19,check continue,flow.Sequence,3_0_27,NA,NA,skipped,NA,2481909.7,NA,NA,2481701.9,2481909.8,2023-03-02T12:50:39Z,2481911.903,NULL,NA,NA,NA,NA,NA,NA,NA,NA,NA,27,NA,NA,NA,NA,NA,NA,NA,NA,NA,NA,NA,NA,NA,NA,NA,NA,NA,NA,NA
3bc19,check continue,flow.Sequence,3_0_28,NA,NA,skipped,NA,2481915.9,NA,NA,2481701.9,2481915.9,2023-03-02T12:50:39Z,2481911.903,NULL,NA,NA,NA,NA,NA,NA,NA,NA,NA,28,NA,NA,NA,NA,NA,NA,NA,NA,NA,NA,NA,NA,NA,NA,NA,NA,NA,NA,NA
3bc19,check continue,flow.Sequence,3_0_29,NA,NA,skipped,NA,2481922.4,NA,NA,2481701.9,2481922.4,2023-03-02T12:50:39Z,2481911.903,NULL,NA,NA,NA,NA,NA,NA,NA,NA,NA,29,NA,NA,NA,NA,NA,NA,NA,NA,NA,NA,NA,NA,NA,NA,NA,NA,NA,NA,NA
3bc19,until continue,flow.Loop,3_0,NA,NA,completion,433863.671,2047838.8,2047788.231,2047838.229,2481701.9,2481922.5,2023-03-02T12:50:39Z,2481911.903,NULL,NA,NA,NA,NA,NA,NA,NA,NA,NA,NA,NA,NA,NA,NA,NA,NA,NA,NA,NA,NA,NA,NA,NA,NA,NA,NA,NA,NA,NA
3bc19,block 1,flow.Sequence,3,NA,NA,completion,433863.671,2047838.8,2047788.231,2047838.229,2481701.9,2481922.5,2023-03-02T12:50:39Z,2481911.903,NULL,NA,NA,NA,NA,NA,NA,NA,NA,NA,NA,NA,NA,NA,NA,NA,NA,NA,NA,NA,NA,NA,NA,NA,NA,NA,NA,NA,NA,NA
3bc19,1.Part Over,canvas.Screen,4,NA,keypress(Space),response,2539.2970000012,2481922.5,2481695.245,2481911.903,2484451.2,2484453.8,2023-03-02T12:50:42Z,2484511.799,NULL,NA,NA,NA,NA,NA,NA,NA,NA,NA,NA,NA,NA,NA,NA,NA,NA,NA,NA,NA,NA,NA,NA,NA,NA,NA,NA,NA,NA,NA
3bc19,deep,flow.Sequence,5_0_0_0_0_0,NA,NA,skipped,NA,2484506.2,NA,NA,2484451.2,2484506.3,2023-03-02T12:50:42Z,2484511.799,NULL,Wettbewerb,ushindani,s,mapendezi,kichocheo,ubaguzi,NA,sdf,NA,0,NA,NA,NA,NA,NA,NA,NA,NA,NA,NA,NA,NA,NA,NA,NA,NA,NA,NA,NA
3bc19,Shallow Question,html.Page,5_0_0_0_0_1_0,NA,NA,form submission,5321.3010000014,2484506.4,2484495.133,2484511.799,2489833.1,2489833.6,2023-03-02T12:50:47Z,2489845.465,NULL,Wettbewerb,ushindani,s,mapendezi,kichocheo,ubaguzi,kichocheo,NA,NA,0,NA,NA,NA,NA,NA,NA,NA,NA,NA,NA,NA,NA,NA,NA,NA,NA,NA,NA,NA
3bc19,"""Richtig""-Screen",canvas.Screen,5_0_0_0_0_1_1,NA,NA,skipped,NA,2489836.7,NA,NA,2489833.1,2489836.9,2023-03-02T12:50:47Z,2489845.465,NULL,Wettbewerb,ushindani,s,mapendezi,kichocheo,ubaguzi,NA,sdf,NA,0,NA,NA,NA,NA,NA,NA,NA,NA,NA,NA,NA,NA,NA,NA,NA,NA,NA,NA,NA
3bc19,"""Falsch""-Screen",canvas.Screen,5_0_0_0_0_1_2,NA,NA,timeout,4999.8000000003,2489838,2489828.799,2489845.465,2494828.599,2494830,2023-03-02T12:50:52Z,2494845.265,NULL,Wettbewerb,ushindani,s,mapendezi,kichocheo,ubaguzi,NA,sdf,0,0,NA,NA,NA,NA,NA,NA,NA,NA,NA,NA,NA,NA,NA,NA,NA,NA,NA,NA,NA
3bc19,shallow,flow.Sequence,5_0_0_0_0_1,NA,NA,completion,10316.8,2484506.4,2484495.133,2484511.799,2494828.599,2494830.5,2023-03-02T12:50:52Z,2494845.265,NULL,Wettbewerb,ushindani,s,mapendezi,kichocheo,ubaguzi,NA,sdf,NA,0,NA,NA,NA,NA,NA,NA,NA,NA,NA,NA,NA,NA,NA,NA,NA,NA,NA,NA,NA
3bc19,task,flow.Sequence,5_0_0_0_0,NA,NA,completion,10316.8,2484506.1,2484495.133,2484511.799,2494828.599,2494830.7,2023-03-02T12:50:52Z,2494845.265,NULL,Wettbewerb,ushindani,s,mapendezi,kichocheo,ubaguzi,NA,sdf,NA,0,NA,NA,NA,NA,NA,NA,NA,NA,NA,NA,NA,NA,NA,NA,NA,NA,NA,NA,NA
3bc19,Deep Question,html.Page,5_0_0_0_1_0_0,NA,NA,form submission,4549.5350000006,2494831,2494828.599,2494845.265,2499394.8,2499395.4,2023-03-02T12:50:57Z,2499395.621,NULL,Zufall,kikuti,d,NA,NA,NA,f,NA,NA,0,NA,NA,NA,NA,NA,NA,NA,NA,NA,NA,NA,NA,NA,NA,NA,NA,NA,NA,NA
3bc19,"""Richtig""-Screen",canvas.Screen,5_0_0_0_1_0_1,NA,NA,skipped,NA,2499398.9,NA,NA,2499394.8,2499399,2023-03-02T12:50:57Z,2499395.621,NULL,Zufall,kikuti,d,NA,NA,NA,NA,sdf,NA,0,NA,NA,NA,NA,NA,NA,NA,NA,NA,NA,NA,NA,NA,NA,NA,NA,NA,NA,NA
3bc19,"""Falsch""-Screen",canvas.Screen,5_0_0_0_1_0_2,NA,NA,timeout,4999.8000000003,2499399.9,2499378.955,2499395.621,2504378.755,2504380.7,2023-03-02T12:51:02Z,2504395.421,NULL,Zufall,kikuti,d,NA,NA,NA,NA,sdf,0,0,NA,NA,NA,NA,NA,NA,NA,NA,NA,NA,NA,NA,NA,NA,NA,NA,NA,NA,NA
3bc19,deep,flow.Sequence,5_0_0_0_1_0,NA,NA,completion,9533.4899999998,2494830.9,2494828.599,2494845.265,2504378.755,2504381.1,2023-03-02T12:51:02Z,2504395.421,NULL,Zufall,kikuti,d,NA,NA,NA,NA,sdf,NA,0,NA,NA,NA,NA,NA,NA,NA,NA,NA,NA,NA,NA,NA,NA,NA,NA,NA,NA,NA
3bc19,shallow,flow.Sequence,5_0_0_0_1_1,NA,NA,skipped,NA,2504381.3,NA,NA,2504378.755,2504381.5,2023-03-02T12:51:02Z,2504395.421,NULL,Zufall,kikuti,d,NA,NA,NA,NA,sdf,NA,0,NA,NA,NA,NA,NA,NA,NA,NA,NA,NA,NA,NA,NA,NA,NA,NA,NA,NA,NA
3bc19,task,flow.Sequence,5_0_0_0_1,NA,NA,completion,9533.4899999998,2494830.9,2494828.599,2494845.265,2504378.755,2504381.6,2023-03-02T12:51:02Z,2504395.421,NULL,Zufall,kikuti,d,NA,NA,NA,NA,sdf,NA,0,NA,NA,NA,NA,NA,NA,NA,NA,NA,NA,NA,NA,NA,NA,NA,NA,NA,NA,NA
3bc19,deep,flow.Sequence,5_0_0_0_2_0,NA,NA,skipped,NA,2504381.8,NA,NA,2504378.755,2504382,2023-03-02T12:51:02Z,2504395.421,NULL,Hoffnung,matarajio,s,kutaalamika,uratibu,mvumbuzi,NA,sdf,NA,0,NA,NA,NA,NA,NA,NA,NA,NA,NA,NA,NA,NA,NA,NA,NA,NA,NA,NA,NA
3bc19,Shallow Question,html.Page,5_0_0_0_2_1_0,NA,NA,form submission,3838.1790000014,2504382.1,2504378.755,2504395.421,2508233.6,2508234.2,2023-03-02T12:51:05Z,2508245.78,NULL,Hoffnung,matarajio,s,kutaalamika,uratibu,mvumbuzi,kutaalamika,NA,NA,0,NA,NA,NA,NA,NA,NA,NA,NA,NA,NA,NA,NA,NA,NA,NA,NA,NA,NA,NA
3bc19,"""Richtig""-Screen",canvas.Screen,5_0_0_0_2_1_1,NA,NA,skipped,NA,2508237.5,NA,NA,2508233.6,2508237.7,2023-03-02T12:51:05Z,2508245.78,NULL,Hoffnung,matarajio,s,kutaalamika,uratibu,mvumbuzi,NA,sdf,NA,0,NA,NA,NA,NA,NA,NA,NA,NA,NA,NA,NA,NA,NA,NA,NA,NA,NA,NA,NA
3bc19,"""Falsch""-Screen",canvas.Screen,5_0_0_0_2_1_2,NA,NA,timeout,4999.8000000003,2508238.3,2508229.114,2508245.78,2513228.914,2513231.6,2023-03-02T12:51:10Z,2513245.58,NULL,Hoffnung,matarajio,s,kutaalamika,uratibu,mvumbuzi,NA,sdf,0,0,NA,NA,NA,NA,NA,NA,NA,NA,NA,NA,NA,NA,NA,NA,NA,NA,NA,NA,NA
3bc19,shallow,flow.Sequence,5_0_0_0_2_1,NA,NA,completion,8833.4929999998,2504382.1,2504378.755,2504395.421,2513228.914,2513232.1,2023-03-02T12:51:10Z,2513245.58,NULL,Hoffnung,matarajio,s,kutaalamika,uratibu,mvumbuzi,NA,sdf,NA,0,NA,NA,NA,NA,NA,NA,NA,NA,NA,NA,NA,NA,NA,NA,NA,NA,NA,NA,NA
3bc19,task,flow.Sequence,5_0_0_0_2,NA,NA,completion,8833.4929999998,2504381.8,2504378.755,2504395.421,2513228.914,2513232.3,2023-03-02T12:51:10Z,2513245.58,NULL,Hoffnung,matarajio,s,kutaalamika,uratibu,mvumbuzi,NA,sdf,NA,0,NA,NA,NA,NA,NA,NA,NA,NA,NA,NA,NA,NA,NA,NA,NA,NA,NA,NA,NA
3bc19,Deep Question,html.Page,5_0_0_0_3_0_0,NA,NA,form submission,12187.720000001,2513232.5,2513228.914,2513245.58,2525433.3,2525433.7,2023-03-02T12:51:23Z,2525445.624,NULL,Schock,mshtuko,d,NA,NA,NA,shooooooooooook,NA,NA,0,NA,NA,NA,NA,NA,NA,NA,NA,NA,NA,NA,NA,NA,NA,NA,NA,NA,NA,NA
3bc19,"""Richtig""-Screen",canvas.Screen,5_0_0_0_3_0_1,NA,NA,skipped,NA,2525436.7,NA,NA,2525433.3,2525436.8,2023-03-02T12:51:23Z,2525445.624,NULL,Schock,mshtuko,d,NA,NA,NA,NA,sdf,NA,0,NA,NA,NA,NA,NA,NA,NA,NA,NA,NA,NA,NA,NA,NA,NA,NA,NA,NA,NA
3bc19,"""Falsch""-Screen",canvas.Screen,5_0_0_0_3_0_2,NA,NA,timeout,4999.8000000003,2525437.6,2525428.958,2525445.624,2530428.758,2530431.6,2023-03-02T12:51:28Z,2530445.424,NULL,Schock,mshtuko,d,NA,NA,NA,NA,sdf,0,0,NA,NA,NA,NA,NA,NA,NA,NA,NA,NA,NA,NA,NA,NA,NA,NA,NA,NA,NA
3bc19,deep,flow.Sequence,5_0_0_0_3_0,NA,NA,completion,17183.178,2513232.5,2513228.914,2513245.58,2530428.758,2530432.1,2023-03-02T12:51:28Z,2530445.424,NULL,Schock,mshtuko,d,NA,NA,NA,NA,sdf,NA,0,NA,NA,NA,NA,NA,NA,NA,NA,NA,NA,NA,NA,NA,NA,NA,NA,NA,NA,NA
3bc19,shallow,flow.Sequence,5_0_0_0_3_1,NA,NA,skipped,NA,2530432.2,NA,NA,2530428.758,2530432.4,2023-03-02T12:51:28Z,2530445.424,NULL,Schock,mshtuko,d,NA,NA,NA,NA,sdf,NA,0,NA,NA,NA,NA,NA,NA,NA,NA,NA,NA,NA,NA,NA,NA,NA,NA,NA,NA,NA
3bc19,task,flow.Sequence,5_0_0_0_3,NA,NA,completion,17183.178,2513232.4,2513228.914,2513245.58,2530428.758,2530432.5,2023-03-02T12:51:28Z,2530445.424,NULL,Schock,mshtuko,d,NA,NA,NA,NA,sdf,NA,0,NA,NA,NA,NA,NA,NA,NA,NA,NA,NA,NA,NA,NA,NA,NA,NA,NA,NA,NA
3bc19,deep,flow.Sequence,5_0_0_0_4_0,NA,NA,skipped,NA,2530432.7,NA,NA,2530428.758,2530432.9,2023-03-02T12:51:28Z,2530445.424,NULL,Auftrag,uagizaji,s,ghanima,kuzingatia,msukani,NA,sdf,NA,0,NA,NA,NA,NA,NA,NA,NA,NA,NA,NA,NA,NA,NA,NA,NA,NA,NA,NA,NA
3bc19,Shallow Question,html.Page,5_0_0_0_4_1_0,NA,NA,form submission,10588.576,2530433,2530428.758,2530445.424,2541034,2541034.5,2023-03-02T12:51:38Z,2541046.247,NULL,Auftrag,uagizaji,s,ghanima,kuzingatia,msukani,msukani,NA,NA,0,NA,NA,NA,NA,NA,NA,NA,NA,NA,NA,NA,NA,NA,NA,NA,NA,NA,NA,NA
3bc19,"""Richtig""-Screen",canvas.Screen,5_0_0_0_4_1_1,NA,NA,skipped,NA,2541038.5,NA,NA,2541034,2541038.7,2023-03-02T12:51:38Z,2541046.247,NULL,Auftrag,uagizaji,s,ghanima,kuzingatia,msukani,NA,sdf,NA,0,NA,NA,NA,NA,NA,NA,NA,NA,NA,NA,NA,NA,NA,NA,NA,NA,NA,NA,NA
3bc19,"""Falsch""-Screen",canvas.Screen,5_0_0_0_4_1_2,NA,NA,timeout,4999.7999999998,2541039.7,2541029.581,2541046.247,2546029.381,2546032.2,2023-03-02T12:51:43Z,2546046.047,NULL,Auftrag,uagizaji,s,ghanima,kuzingatia,msukani,NA,sdf,0,0,NA,NA,NA,NA,NA,NA,NA,NA,NA,NA,NA,NA,NA,NA,NA,NA,NA,NA,NA
3bc19,shallow,flow.Sequence,5_0_0_0_4_1,NA,NA,completion,15583.957,2530433,2530428.758,2530445.424,2546029.381,2546032.7,2023-03-02T12:51:43Z,2546046.047,NULL,Auftrag,uagizaji,s,ghanima,kuzingatia,msukani,NA,sdf,NA,0,NA,NA,NA,NA,NA,NA,NA,NA,NA,NA,NA,NA,NA,NA,NA,NA,NA,NA,NA
3bc19,task,flow.Sequence,5_0_0_0_4,NA,NA,completion,15583.957,2530432.7,2530428.758,2530445.424,2546029.381,2546033,2023-03-02T12:51:43Z,2546046.047,NULL,Auftrag,uagizaji,s,ghanima,kuzingatia,msukani,NA,sdf,NA,0,NA,NA,NA,NA,NA,NA,NA,NA,NA,NA,NA,NA,NA,NA,NA,NA,NA,NA,NA
3bc19,Deep Question,html.Page,5_0_0_0_5_0_0,NA,NA,form submission,6938.0530000017,2546033.2,2546029.381,2546046.047,2552984.1,2552984.6,2023-03-02T12:51:50Z,2552996.384,NULL,Schönheit,kirembo,d,NA,NA,NA,cvfdg,NA,NA,0,NA,NA,NA,NA,NA,NA,NA,NA,NA,NA,NA,NA,NA,NA,NA,NA,NA,NA,NA
3bc19,"""Richtig""-Screen",canvas.Screen,5_0_0_0_5_0_1,NA,NA,skipped,NA,2552987.8,NA,NA,2552984.1,2552988.1,2023-03-02T12:51:50Z,2552996.384,NULL,Schönheit,kirembo,d,NA,NA,NA,NA,sdf,NA,0,NA,NA,NA,NA,NA,NA,NA,NA,NA,NA,NA,NA,NA,NA,NA,NA,NA,NA,NA
3bc19,"""Falsch""-Screen",canvas.Screen,5_0_0_0_5_0_2,NA,NA,timeout,4999.7999999998,2552988.9,2552979.718,2552996.384,2557979.518,2557981.7,2023-03-02T12:51:55Z,2557996.184,NULL,Schönheit,kirembo,d,NA,NA,NA,NA,sdf,0,0,NA,NA,NA,NA,NA,NA,NA,NA,NA,NA,NA,NA,NA,NA,NA,NA,NA,NA,NA
3bc19,deep,flow.Sequence,5_0_0_0_5_0,NA,NA,completion,11933.471,2546033.2,2546029.381,2546046.047,2557979.518,2557982.2,2023-03-02T12:51:55Z,2557996.184,NULL,Schönheit,kirembo,d,NA,NA,NA,NA,sdf,NA,0,NA,NA,NA,NA,NA,NA,NA,NA,NA,NA,NA,NA,NA,NA,NA,NA,NA,NA,NA
3bc19,shallow,flow.Sequence,5_0_0_0_5_1,NA,NA,skipped,NA,2557982.3,NA,NA,2557979.518,2557982.5,2023-03-02T12:51:55Z,2557996.184,NULL,Schönheit,kirembo,d,NA,NA,NA,NA,sdf,NA,0,NA,NA,NA,NA,NA,NA,NA,NA,NA,NA,NA,NA,NA,NA,NA,NA,NA,NA,NA
3bc19,task,flow.Sequence,5_0_0_0_5,NA,NA,completion,11933.471,2546033,2546029.381,2546046.047,2557979.518,2557982.6,2023-03-02T12:51:55Z,2557996.184,NULL,Schönheit,kirembo,d,NA,NA,NA,NA,sdf,NA,0,NA,NA,NA,NA,NA,NA,NA,NA,NA,NA,NA,NA,NA,NA,NA,NA,NA,NA,NA
3bc19,deep,flow.Sequence,5_0_0_0_6_0,NA,NA,skipped,NA,2557982.8,NA,NA,2557979.518,2557983,2023-03-02T12:51:55Z,2557996.184,NULL,Verpackung,ufungaji,s,uhusiano,upimaji,uchunguzi,NA,sdf,NA,0,NA,NA,NA,NA,NA,NA,NA,NA,NA,NA,NA,NA,NA,NA,NA,NA,NA,NA,NA
3bc19,Shallow Question,html.Page,5_0_0_0_6_1_0,NA,NA,form submission,21138.316,2557983.1,2557979.518,2557996.184,2579134.5,2579134.9,2023-03-02T12:52:16Z,2579146.329,NULL,Verpackung,ufungaji,s,uhusiano,upimaji,uchunguzi,upimaji,NA,NA,0,NA,NA,NA,NA,NA,NA,NA,NA,NA,NA,NA,NA,NA,NA,NA,NA,NA,NA,NA
3bc19,"""Richtig""-Screen",canvas.Screen,5_0_0_0_6_1_1,NA,NA,skipped,NA,2579138.7,NA,NA,2579134.5,2579138.9,2023-03-02T12:52:16Z,2579146.329,NULL,Verpackung,ufungaji,s,uhusiano,upimaji,uchunguzi,NA,sdf,NA,0,NA,NA,NA,NA,NA,NA,NA,NA,NA,NA,NA,NA,NA,NA,NA,NA,NA,NA,NA
3bc19,"""Falsch""-Screen",canvas.Screen,5_0_0_0_6_1_2,NA,NA,timeout,4999.8000000003,2579139.8,2579129.663,2579146.329,2584129.463,2584131.2,2023-03-02T12:52:21Z,2584146.129,NULL,Verpackung,ufungaji,s,uhusiano,upimaji,uchunguzi,NA,sdf,0,0,NA,NA,NA,NA,NA,NA,NA,NA,NA,NA,NA,NA,NA,NA,NA,NA,NA,NA,NA
3bc19,shallow,flow.Sequence,5_0_0_0_6_1,NA,NA,completion,26133.279,2557983,2557979.518,2557996.184,2584129.463,2584131.8,2023-03-02T12:52:21Z,2584146.129,NULL,Verpackung,ufungaji,s,uhusiano,upimaji,uchunguzi,NA,sdf,NA,0,NA,NA,NA,NA,NA,NA,NA,NA,NA,NA,NA,NA,NA,NA,NA,NA,NA,NA,NA
3bc19,task,flow.Sequence,5_0_0_0_6,NA,NA,completion,26133.279,2557982.8,2557979.518,2557996.184,2584129.463,2584131.9,2023-03-02T12:52:21Z,2584146.129,NULL,Verpackung,ufungaji,s,uhusiano,upimaji,uchunguzi,NA,sdf,NA,0,NA,NA,NA,NA,NA,NA,NA,NA,NA,NA,NA,NA,NA,NA,NA,NA,NA,NA,NA
3bc19,Deep Question,html.Page,5_0_0_0_7_0_0,NA,NA,form submission,12852.971000001,2584132.1,2584129.463,2584146.129,2596999.1,2596999.6,2023-03-02T12:52:34Z,2597013.48,NULL,Theorie,nadharia,d,NA,NA,NA,thridtzkhgjmbnv,NA,NA,0,NA,NA,NA,NA,NA,NA,NA,NA,NA,NA,NA,NA,NA,NA,NA,NA,NA,NA,NA
3bc19,"""Richtig""-Screen",canvas.Screen,5_0_0_0_7_0_1,NA,NA,skipped,NA,2597002.7,NA,NA,2596999.1,2597002.7,2023-03-02T12:52:34Z,2597013.48,NULL,Theorie,nadharia,d,NA,NA,NA,NA,sdf,NA,0,NA,NA,NA,NA,NA,NA,NA,NA,NA,NA,NA,NA,NA,NA,NA,NA,NA,NA,NA
3bc19,"""Falsch""-Screen",canvas.Screen,5_0_0_0_7_0_2,NA,NA,timeout,4999.7999999998,2597004.2,2596996.814,2597013.48,2601996.614,2601998.8,2023-03-02T12:52:39Z,2602013.28,NULL,Theorie,nadharia,d,NA,NA,NA,NA,sdf,0,0,NA,NA,NA,NA,NA,NA,NA,NA,NA,NA,NA,NA,NA,NA,NA,NA,NA,NA,NA
3bc19,deep,flow.Sequence,5_0_0_0_7_0,NA,NA,completion,17850.485,2584132.1,2584129.463,2584146.129,2601996.614,2601999.2,2023-03-02T12:52:39Z,2602013.28,NULL,Theorie,nadharia,d,NA,NA,NA,NA,sdf,NA,0,NA,NA,NA,NA,NA,NA,NA,NA,NA,NA,NA,NA,NA,NA,NA,NA,NA,NA,NA
3bc19,shallow,flow.Sequence,5_0_0_0_7_1,NA,NA,skipped,NA,2601999.4,NA,NA,2601996.614,2601999.5,2023-03-02T12:52:39Z,2602013.28,NULL,Theorie,nadharia,d,NA,NA,NA,NA,sdf,NA,0,NA,NA,NA,NA,NA,NA,NA,NA,NA,NA,NA,NA,NA,NA,NA,NA,NA,NA,NA
3bc19,task,flow.Sequence,5_0_0_0_7,NA,NA,completion,17850.485,2584132.1,2584129.463,2584146.129,2601996.614,2601999.7,2023-03-02T12:52:39Z,2602013.28,NULL,Theorie,nadharia,d,NA,NA,NA,NA,sdf,NA,0,NA,NA,NA,NA,NA,NA,NA,NA,NA,NA,NA,NA,NA,NA,NA,NA,NA,NA,NA
3bc19,block,flow.Loop,5_0_0_0,NA,NA,completion,117484.815,2484506.1,2484495.133,2484511.799,2601996.614,2601999.9,2023-03-02T12:52:39Z,2602013.28,NULL,NA,NA,NA,NA,NA,NA,NA,sdf,NA,0,NA,NA,NA,NA,NA,NA,NA,NA,NA,NA,NA,NA,NA,NA,NA,NA,NA,NA,NA
3bc19,weiter,canvas.Screen,5_0_0_1,sdf,keypress(Space),response,2211.8200000017,2602000.1,2601996.614,2602013.28,2604225.1,2604231.3,2023-03-02T12:52:41Z,2604263.19,NULL,NA,NA,NA,NA,NA,NA,NA,sdf,NA,0,NA,NA,NA,NA,NA,NA,NA,NA,NA,NA,NA,NA,NA,NA,NA,NA,NA,NA,NA
3bc19,check continue,flow.Sequence,5_0_0,NA,NA,completion,119713.301,2484506.1,2484495.133,2484511.799,2604225.1,2604231.6,2023-03-02T12:52:41Z,2604263.19,NULL,NA,NA,NA,NA,NA,NA,NA,sdf,NA,0,NA,NA,NA,NA,NA,NA,NA,NA,NA,NA,NA,NA,NA,NA,NA,NA,NA,NA,NA
3bc19,deep,flow.Sequence,5_0_1_0_0_0,NA,NA,skipped,NA,2604258.1,NA,NA,2604225.1,2604258.2,2023-03-02T12:52:41Z,2604263.19,NULL,Auftrag,uagizaji,s,ghanima,kuzingatia,msukani,NA,sdfdsf,NA,1,NA,NA,NA,NA,NA,NA,NA,NA,NA,NA,NA,NA,NA,NA,NA,NA,NA,NA,NA
3bc19,Shallow Question,html.Page,5_0_1_0_0_1_0,NA,NA,form submission,7470.9100000015,2604258.8,2604246.524,2604263.19,2611734.1,2611734.7,2023-03-02T12:52:49Z,2611746.729,NULL,Auftrag,uagizaji,s,ghanima,kuzingatia,msukani,uagizaji,NA,NA,1,NA,NA,NA,NA,NA,NA,NA,NA,NA,NA,NA,NA,NA,NA,NA,NA,NA,NA,NA
3bc19,"""Richtig""-Screen",canvas.Screen,5_0_1_0_0_1_1,NA,NA,timeout,4999.8000000003,2611737.5,2611730.063,2611746.729,2616729.863,2616732.9,2023-03-02T12:52:54Z,2616746.529,NULL,Auftrag,uagizaji,s,ghanima,kuzingatia,msukani,NA,sdfdsf,1,1,NA,NA,NA,NA,NA,NA,NA,NA,NA,NA,NA,NA,NA,NA,NA,NA,NA,NA,NA
3bc19,"""Falsch""-Screen",canvas.Screen,5_0_1_0_0_1_2,NA,NA,skipped,NA,2616737.6,NA,NA,2616729.863,2616737.9,2023-03-02T12:52:54Z,2616746.529,NULL,Auftrag,uagizaji,s,ghanima,kuzingatia,msukani,NA,sdfdsf,NA,1,NA,NA,NA,NA,NA,NA,NA,NA,NA,NA,NA,NA,NA,NA,NA,NA,NA,NA,NA
3bc19,shallow,flow.Sequence,5_0_1_0_0_1,NA,NA,completion,12466.673,2604258.8,2604246.524,2604263.19,2616729.863,2616738,2023-03-02T12:52:54Z,2616746.529,NULL,Auftrag,uagizaji,s,ghanima,kuzingatia,msukani,NA,sdfdsf,NA,1,NA,NA,NA,NA,NA,NA,NA,NA,NA,NA,NA,NA,NA,NA,NA,NA,NA,NA,NA
3bc19,task,flow.Sequence,5_0_1_0_0,NA,NA,completion,12466.673,2604258,2604246.524,2604263.19,2616729.863,2616738.1,2023-03-02T12:52:54Z,2616746.529,NULL,Auftrag,uagizaji,s,ghanima,kuzingatia,msukani,NA,sdfdsf,NA,1,NA,NA,NA,NA,NA,NA,NA,NA,NA,NA,NA,NA,NA,NA,NA,NA,NA,NA,NA
3bc19,deep,flow.Sequence,5_0_1_0_1_0,NA,NA,skipped,NA,2616738.3,NA,NA,2616729.863,2616738.4,2023-03-02T12:52:54Z,2616746.529,NULL,Wettbewerb,ushindani,s,mapendezi,kichocheo,ubaguzi,NA,sdfdsf,NA,1,NA,NA,NA,NA,NA,NA,NA,NA,NA,NA,NA,NA,NA,NA,NA,NA,NA,NA,NA
3bc19,Shallow Question,html.Page,5_0_1_0_1_1_0,NA,NA,form submission,37221.871000002,2616738.5,2616729.863,2616746.529,2653968.4,2653968.9,2023-03-02T12:53:31Z,2653980.806,NULL,Wettbewerb,ushindani,s,mapendezi,kichocheo,ubaguzi,ushindani,NA,NA,1,NA,NA,NA,NA,NA,NA,NA,NA,NA,NA,NA,NA,NA,NA,NA,NA,NA,NA,NA
3bc19,"""Richtig""-Screen",canvas.Screen,5_0_1_0_1_1_1,NA,NA,timeout,4999.8000000003,2653972.1,2653964.14,2653980.806,2658963.94,2658967,2023-03-02T12:53:36Z,2658980.606,NULL,Wettbewerb,ushindani,s,mapendezi,kichocheo,ubaguzi,NA,sdfdsf,1,1,NA,NA,NA,NA,NA,NA,NA,NA,NA,NA,NA,NA,NA,NA,NA,NA,NA,NA,NA
3bc19,"""Falsch""-Screen",canvas.Screen,5_0_1_0_1_1_2,NA,NA,skipped,NA,2658971.8,NA,NA,2658963.94,2658971.9,2023-03-02T12:53:36Z,2658980.606,NULL,Wettbewerb,ushindani,s,mapendezi,kichocheo,ubaguzi,NA,sdfdsf,NA,1,NA,NA,NA,NA,NA,NA,NA,NA,NA,NA,NA,NA,NA,NA,NA,NA,NA,NA,NA
3bc19,shallow,flow.Sequence,5_0_1_0_1_1,NA,NA,completion,42217.411,2616738.4,2616729.863,2616746.529,2658963.94,2658972.1,2023-03-02T12:53:36Z,2658980.606,NULL,Wettbewerb,ushindani,s,mapendezi,kichocheo,ubaguzi,NA,sdfdsf,NA,1,NA,NA,NA,NA,NA,NA,NA,NA,NA,NA,NA,NA,NA,NA,NA,NA,NA,NA,NA
3bc19,task,flow.Sequence,5_0_1_0_1,NA,NA,completion,42217.411,2616738.2,2616729.863,2616746.529,2658963.94,2658972.3,2023-03-02T12:53:36Z,2658980.606,NULL,Wettbewerb,ushindani,s,mapendezi,kichocheo,ubaguzi,NA,sdfdsf,NA,1,NA,NA,NA,NA,NA,NA,NA,NA,NA,NA,NA,NA,NA,NA,NA,NA,NA,NA,NA
3bc19,Deep Question,html.Page,5_0_1_0_2_0_0,NA,NA,form submission,6287.6940000006,2658972.5,2658963.94,2658980.606,2665268.3,2665268.7,2023-03-02T12:53:42Z,2665280.948,NULL,Theorie,nadharia,d,NA,NA,NA,kikuti,NA,NA,1,NA,NA,NA,NA,NA,NA,NA,NA,NA,NA,NA,NA,NA,NA,NA,NA,NA,NA,NA
3bc19,"""Richtig""-Screen",canvas.Screen,5_0_1_0_2_0_1,NA,NA,skipped,NA,2665272.1,NA,NA,2665268.3,2665272.2,2023-03-02T12:53:42Z,2665280.948,NULL,Theorie,nadharia,d,NA,NA,NA,NA,sdfdsf,NA,1,NA,NA,NA,NA,NA,NA,NA,NA,NA,NA,NA,NA,NA,NA,NA,NA,NA,NA,NA
3bc19,"""Falsch""-Screen",canvas.Screen,5_0_1_0_2_0_2,NA,NA,timeout,4999.8000000003,2665272.8,2665264.282,2665280.948,2670264.082,2670266.2,2023-03-02T12:53:47Z,2670280.748,NULL,Theorie,nadharia,d,NA,NA,NA,NA,sdfdsf,0,1,NA,NA,NA,NA,NA,NA,NA,NA,NA,NA,NA,NA,NA,NA,NA,NA,NA,NA,NA
3bc19,deep,flow.Sequence,5_0_1_0_2_0,NA,NA,completion,11283.476,2658972.4,2658963.94,2658980.606,2670264.082,2670266.6,2023-03-02T12:53:47Z,2670280.748,NULL,Theorie,nadharia,d,NA,NA,NA,NA,sdfdsf,NA,1,NA,NA,NA,NA,NA,NA,NA,NA,NA,NA,NA,NA,NA,NA,NA,NA,NA,NA,NA
3bc19,shallow,flow.Sequence,5_0_1_0_2_1,NA,NA,skipped,NA,2670266.8,NA,NA,2670264.082,2670266.9,2023-03-02T12:53:47Z,2670280.748,NULL,Theorie,nadharia,d,NA,NA,NA,NA,sdfdsf,NA,1,NA,NA,NA,NA,NA,NA,NA,NA,NA,NA,NA,NA,NA,NA,NA,NA,NA,NA,NA
3bc19,task,flow.Sequence,5_0_1_0_2,NA,NA,completion,11283.476,2658972.4,2658963.94,2658980.606,2670264.082,2670267.1,2023-03-02T12:53:47Z,2670280.748,NULL,Theorie,nadharia,d,NA,NA,NA,NA,sdfdsf,NA,1,NA,NA,NA,NA,NA,NA,NA,NA,NA,NA,NA,NA,NA,NA,NA,NA,NA,NA,NA
3bc19,deep,flow.Sequence,5_0_1_0_3_0,NA,NA,skipped,NA,2670267.2,NA,NA,2670264.082,2670267.3,2023-03-02T12:53:47Z,2670280.748,NULL,Hoffnung,matarajio,s,kutaalamika,uratibu,mvumbuzi,NA,sdfdsf,NA,1,NA,NA,NA,NA,NA,NA,NA,NA,NA,NA,NA,NA,NA,NA,NA,NA,NA,NA,NA
3bc19,Shallow Question,html.Page,5_0_1_0_3_1_0,NA,NA,form submission,15889.552000001,2670267.5,2670264.082,2670280.748,2686170.3,2686170.7,2023-03-02T12:54:03Z,2686181.049,NULL,Hoffnung,matarajio,s,kutaalamika,uratibu,mvumbuzi,kutaalamika,NA,NA,1,NA,NA,NA,NA,NA,NA,NA,NA,NA,NA,NA,NA,NA,NA,NA,NA,NA,NA,NA
3bc19,"""Richtig""-Screen",canvas.Screen,5_0_1_0_3_1_1,NA,NA,skipped,NA,2686174,NA,NA,2686170.3,2686174.3,2023-03-02T12:54:03Z,2686181.049,NULL,Hoffnung,matarajio,s,kutaalamika,uratibu,mvumbuzi,NA,sdfdsf,NA,1,NA,NA,NA,NA,NA,NA,NA,NA,NA,NA,NA,NA,NA,NA,NA,NA,NA,NA,NA
3bc19,"""Falsch""-Screen",canvas.Screen,5_0_1_0_3_1_2,NA,NA,timeout,4999.7999999998,2686175.2,2686164.383,2686181.049,2691164.183,2691166.9,2023-03-02T12:54:08Z,2691180.849,NULL,Hoffnung,matarajio,s,kutaalamika,uratibu,mvumbuzi,NA,sdfdsf,0,1,NA,NA,NA,NA,NA,NA,NA,NA,NA,NA,NA,NA,NA,NA,NA,NA,NA,NA,NA
3bc19,shallow,flow.Sequence,5_0_1_0_3_1,NA,NA,completion,20883.435,2670267.5,2670264.082,2670280.748,2691164.183,2691167.4,2023-03-02T12:54:08Z,2691180.849,NULL,Hoffnung,matarajio,s,kutaalamika,uratibu,mvumbuzi,NA,sdfdsf,NA,1,NA,NA,NA,NA,NA,NA,NA,NA,NA,NA,NA,NA,NA,NA,NA,NA,NA,NA,NA
3bc19,task,flow.Sequence,5_0_1_0_3,NA,NA,completion,20883.435,2670267.2,2670264.082,2670280.748,2691164.183,2691167.6,2023-03-02T12:54:08Z,2691180.849,NULL,Hoffnung,matarajio,s,kutaalamika,uratibu,mvumbuzi,NA,sdfdsf,NA,1,NA,NA,NA,NA,NA,NA,NA,NA,NA,NA,NA,NA,NA,NA,NA,NA,NA,NA,NA
3bc19,deep,flow.Sequence,5_0_1_0_4_0,NA,NA,skipped,NA,2691167.8,NA,NA,2691164.183,2691168,2023-03-02T12:54:08Z,2691180.849,NULL,Verpackung,ufungaji,s,uhusiano,upimaji,uchunguzi,NA,sdfdsf,NA,1,NA,NA,NA,NA,NA,NA,NA,NA,NA,NA,NA,NA,NA,NA,NA,NA,NA,NA,NA
3bc19,Shallow Question,html.Page,5_0_1_0_4_1_0,NA,NA,form submission,28790.551000002,2691168.1,2691164.183,2691180.849,2719971.4,2719972,2023-03-02T12:54:37Z,2719981.604,NULL,Verpackung,ufungaji,s,uhusiano,upimaji,uchunguzi,ufungaji,NA,NA,1,NA,NA,NA,NA,NA,NA,NA,NA,NA,NA,NA,NA,NA,NA,NA,NA,NA,NA,NA
3bc19,"""Richtig""-Screen",canvas.Screen,5_0_1_0_4_1_1,NA,NA,timeout,4999.8000000003,2719975.1,2719964.938,2719981.604,2724964.738,2724967.3,2023-03-02T12:54:42Z,2724981.404,NULL,Verpackung,ufungaji,s,uhusiano,upimaji,uchunguzi,NA,sdfdsf,1,1,NA,NA,NA,NA,NA,NA,NA,NA,NA,NA,NA,NA,NA,NA,NA,NA,NA,NA,NA
3bc19,"""Falsch""-Screen",canvas.Screen,5_0_1_0_4_1_2,NA,NA,skipped,NA,2724971.6,NA,NA,2724964.738,2724971.8,2023-03-02T12:54:42Z,2724981.404,NULL,Verpackung,ufungaji,s,uhusiano,upimaji,uchunguzi,NA,sdfdsf,NA,1,NA,NA,NA,NA,NA,NA,NA,NA,NA,NA,NA,NA,NA,NA,NA,NA,NA,NA,NA
3bc19,shallow,flow.Sequence,5_0_1_0_4_1,NA,NA,completion,33783.889,2691168.1,2691164.183,2691180.849,2724964.738,2724972,2023-03-02T12:54:42Z,2724981.404,NULL,Verpackung,ufungaji,s,uhusiano,upimaji,uchunguzi,NA,sdfdsf,NA,1,NA,NA,NA,NA,NA,NA,NA,NA,NA,NA,NA,NA,NA,NA,NA,NA,NA,NA,NA
3bc19,task,flow.Sequence,5_0_1_0_4,NA,NA,completion,33783.889,2691167.7,2691164.183,2691180.849,2724964.738,2724972.2,2023-03-02T12:54:42Z,2724981.404,NULL,Verpackung,ufungaji,s,uhusiano,upimaji,uchunguzi,NA,sdfdsf,NA,1,NA,NA,NA,NA,NA,NA,NA,NA,NA,NA,NA,NA,NA,NA,NA,NA,NA,NA,NA
3bc19,Deep Question,html.Page,5_0_1_0_5_0_0,NA,NA,form submission,5662.3960000006,2724972.5,2724964.738,2724981.404,2730643.8,2730644.4,2023-03-02T12:54:48Z,2730648.479,NULL,Schönheit,kirembo,d,NA,NA,NA,k,NA,NA,1,NA,NA,NA,NA,NA,NA,NA,NA,NA,NA,NA,NA,NA,NA,NA,NA,NA,NA,NA
3bc19,"""Richtig""-Screen",canvas.Screen,5_0_1_0_5_0_1,NA,NA,skipped,NA,2730647.6,NA,NA,2730643.8,2730647.7,2023-03-02T12:54:48Z,2730648.479,NULL,Schönheit,kirembo,d,NA,NA,NA,NA,sdfdsf,NA,1,NA,NA,NA,NA,NA,NA,NA,NA,NA,NA,NA,NA,NA,NA,NA,NA,NA,NA,NA
3bc19,"""Falsch""-Screen",canvas.Screen,5_0_1_0_5_0_2,NA,NA,timeout,4999.8000000003,2730648.3,2730631.813,2730648.479,2735631.613,2735634.3,2023-03-02T12:54:53Z,2735648.279,NULL,Schönheit,kirembo,d,NA,NA,NA,NA,sdfdsf,0,1,NA,NA,NA,NA,NA,NA,NA,NA,NA,NA,NA,NA,NA,NA,NA,NA,NA,NA,NA
3bc19,deep,flow.Sequence,5_0_1_0_5_0,NA,NA,completion,10650.209,2724972.3,2724964.738,2724981.404,2735631.613,2735634.7,2023-03-02T12:54:53Z,2735648.279,NULL,Schönheit,kirembo,d,NA,NA,NA,NA,sdfdsf,NA,1,NA,NA,NA,NA,NA,NA,NA,NA,NA,NA,NA,NA,NA,NA,NA,NA,NA,NA,NA
3bc19,shallow,flow.Sequence,5_0_1_0_5_1,NA,NA,skipped,NA,2735634.8,NA,NA,2735631.613,2735635,2023-03-02T12:54:53Z,2735648.279,NULL,Schönheit,kirembo,d,NA,NA,NA,NA,sdfdsf,NA,1,NA,NA,NA,NA,NA,NA,NA,NA,NA,NA,NA,NA,NA,NA,NA,NA,NA,NA,NA
3bc19,task,flow.Sequence,5_0_1_0_5,NA,NA,completion,10650.209,2724972.3,2724964.738,2724981.404,2735631.613,2735635.2,2023-03-02T12:54:53Z,2735648.279,NULL,Schönheit,kirembo,d,NA,NA,NA,NA,sdfdsf,NA,1,NA,NA,NA,NA,NA,NA,NA,NA,NA,NA,NA,NA,NA,NA,NA,NA,NA,NA,NA
3bc19,Deep Question,html.Page,5_0_1_0_6_0_0,NA,NA,form submission,2635.3210000014,2735635.4,2735631.613,2735648.279,2738283.6,2738284.3,2023-03-02T12:54:55Z,2738298.173,NULL,Schock,mshtuko,d,NA,NA,NA,k,NA,NA,1,NA,NA,NA,NA,NA,NA,NA,NA,NA,NA,NA,NA,NA,NA,NA,NA,NA,NA,NA
3bc19,"""Richtig""-Screen",canvas.Screen,5_0_1_0_6_0_1,NA,NA,skipped,NA,2738288.8,NA,NA,2738283.6,2738289.1,2023-03-02T12:54:55Z,2738298.173,NULL,Schock,mshtuko,d,NA,NA,NA,NA,sdfdsf,NA,1,NA,NA,NA,NA,NA,NA,NA,NA,NA,NA,NA,NA,NA,NA,NA,NA,NA,NA,NA
3bc19,"""Falsch""-Screen",canvas.Screen,5_0_1_0_6_0_2,NA,NA,timeout,4999.8000000003,2738290,2738281.507,2738298.173,2743281.307,2743283.8,2023-03-02T12:55:00Z,2743297.973,NULL,Schock,mshtuko,d,NA,NA,NA,NA,sdfdsf,0,1,NA,NA,NA,NA,NA,NA,NA,NA,NA,NA,NA,NA,NA,NA,NA,NA,NA,NA,NA
3bc19,deep,flow.Sequence,5_0_1_0_6_0,NA,NA,completion,7633.0279999999,2735635.4,2735631.613,2735648.279,2743281.307,2743284.2,2023-03-02T12:55:00Z,2743297.973,NULL,Schock,mshtuko,d,NA,NA,NA,NA,sdfdsf,NA,1,NA,NA,NA,NA,NA,NA,NA,NA,NA,NA,NA,NA,NA,NA,NA,NA,NA,NA,NA
3bc19,shallow,flow.Sequence,5_0_1_0_6_1,NA,NA,skipped,NA,2743284.3,NA,NA,2743281.307,2743284.5,2023-03-02T12:55:00Z,2743297.973,NULL,Schock,mshtuko,d,NA,NA,NA,NA,sdfdsf,NA,1,NA,NA,NA,NA,NA,NA,NA,NA,NA,NA,NA,NA,NA,NA,NA,NA,NA,NA,NA
3bc19,task,flow.Sequence,5_0_1_0_6,NA,NA,completion,7633.0279999999,2735635.3,2735631.613,2735648.279,2743281.307,2743284.7,2023-03-02T12:55:00Z,2743297.973,NULL,Schock,mshtuko,d,NA,NA,NA,NA,sdfdsf,NA,1,NA,NA,NA,NA,NA,NA,NA,NA,NA,NA,NA,NA,NA,NA,NA,NA,NA,NA,NA
3bc19,Deep Question,html.Page,5_0_1_0_7_0_0,NA,NA,form submission,4400.5269999998,2743284.9,2743281.307,2743297.973,2747698.5,2747699.2,2023-03-02T12:55:05Z,2747698.515,NULL,Zufall,kikuti,d,NA,NA,NA,k,NA,NA,1,NA,NA,NA,NA,NA,NA,NA,NA,NA,NA,NA,NA,NA,NA,NA,NA,NA,NA,NA
3bc19,"""Richtig""-Screen",canvas.Screen,5_0_1_0_7_0_1,NA,NA,skipped,NA,2747702.8,NA,NA,2747698.5,2747703.1,2023-03-02T12:55:05Z,2747698.515,NULL,Zufall,kikuti,d,NA,NA,NA,NA,sdfdsf,NA,1,NA,NA,NA,NA,NA,NA,NA,NA,NA,NA,NA,NA,NA,NA,NA,NA,NA,NA,NA
3bc19,"""Falsch""-Screen",canvas.Screen,5_0_1_0_7_0_2,NA,NA,timeout,4999.7999999998,2747704,2747681.849,2747698.515,2752681.649,2752684.4,2023-03-02T12:55:10Z,2752698.315,NULL,Zufall,kikuti,d,NA,NA,NA,NA,sdfdsf,0,1,NA,NA,NA,NA,NA,NA,NA,NA,NA,NA,NA,NA,NA,NA,NA,NA,NA,NA,NA
3bc19,deep,flow.Sequence,5_0_1_0_7_0,NA,NA,completion,9383.676,2743284.8,2743281.307,2743297.973,2752681.649,2752684.8,2023-03-02T12:55:10Z,2752698.315,NULL,Zufall,kikuti,d,NA,NA,NA,NA,sdfdsf,NA,1,NA,NA,NA,NA,NA,NA,NA,NA,NA,NA,NA,NA,NA,NA,NA,NA,NA,NA,NA
3bc19,shallow,flow.Sequence,5_0_1_0_7_1,NA,NA,skipped,NA,2752684.9,NA,NA,2752681.649,2752685.1,2023-03-02T12:55:10Z,2752698.315,NULL,Zufall,kikuti,d,NA,NA,NA,NA,sdfdsf,NA,1,NA,NA,NA,NA,NA,NA,NA,NA,NA,NA,NA,NA,NA,NA,NA,NA,NA,NA,NA
3bc19,task,flow.Sequence,5_0_1_0_7,NA,NA,completion,9383.676,2743284.8,2743281.307,2743297.973,2752681.649,2752685.3,2023-03-02T12:55:10Z,2752698.315,NULL,Zufall,kikuti,d,NA,NA,NA,NA,sdfdsf,NA,1,NA,NA,NA,NA,NA,NA,NA,NA,NA,NA,NA,NA,NA,NA,NA,NA,NA,NA,NA
3bc19,block,flow.Loop,5_0_1_0,NA,NA,completion,148418.459,2604258,2604246.524,2604263.19,2752681.649,2752685.5,2023-03-02T12:55:10Z,2752698.315,NULL,NA,NA,NA,NA,NA,NA,NA,sdfdsf,NA,1,NA,NA,NA,NA,NA,NA,NA,NA,NA,NA,NA,NA,NA,NA,NA,NA,NA,NA,NA
