observation,sender,sender_type,sender_id,response,response_action,ended_on,duration,time_run,time_render,time_show,time_end,time_commit,timestamp,time_switch,german,swahili,enc,distractor1,distractor2,distractor3,response_2,x,correct,distractors,url_vp,url_sess,meta_labjs_version,meta_location,meta_user_agent,meta_platform,meta_language,meta_locale,meta_time_zone,meta_timezone_offset,meta_screen_width,meta_screen_height,meta_scroll_width,meta_scroll_height,meta_window_inner_width,meta_window_inner_height,meta_device_pixel_ratio,meta_labjs_build_flavor,meta_labjs_build_commit
45cae,Introduction delayed retrieval,canvas.Screen,0,weiter,keypress(Space),response,5134.38,954,959.94,976.62,6111,6127,2024-05-27T19:51:44Z,6131.18,NA,NA,NA,NA,NA,NA,NA,NA,NA,NULL,160,2,20.2.4,https://neurocog.fernuni.ch/studies/vweber/jbaenninger/delayed%203/index.html?vp=160&sess=2,Mozilla/5.0 (Windows NT 10.0; Win64; x64; rv:126.0) Gecko/20100101 Firefox/126.0,Win32,de,de-CH,Europe/Zurich,-120,1280,800,1280,591,1280,639,1.5,production,f5b4a49f956347addd546a832a3327688c2c0fef
45cae,Deep Question,html.Page,1_0_0_0,NA,NA,form submission,27407.82,6127,6127.4,6131.18,33539,33540,2024-05-27T19:52:11Z,33537.2,Verzögerung,kuchelewa,d,mwakilishi,mwanauchumi,jaribio,dfuhb,NA,NA,NULL,NA,NA,NA,NA,NA,NA,NA,NA,NA,NA,NA,NA,NA,NA,NA,NA,NA,NA,NA
45cae,Save data screen,canvas.Screen,1_0_0_1,NA,NA,timeout,509.5,33544,33531.88,33537.2,34020.72,34024,2024-05-27T19:52:12Z,34046.7,Verzögerung,kuchelewa,d,mwakilishi,mwanauchumi,jaribio,NA,NA,0,NULL,NA,NA,NA,NA,NA,NA,NA,NA,NA,NA,NA,NA,NA,NA,NA,NA,NA,NA,NA
45cae,deep,flow.Sequence,1_0_0,NA,NA,completion,27889.54,6127,6127.4,6131.18,34020.72,34026,2024-05-27T19:52:12Z,34046.7,Verzögerung,kuchelewa,d,mwakilishi,mwanauchumi,jaribio,NA,NA,NA,NULL,NA,NA,NA,NA,NA,NA,NA,NA,NA,NA,NA,NA,NA,NA,NA,NA,NA,NA,NA
45cae,task,flow.Sequence,1_0,NA,NA,completion,27889.54,6127,6127.4,6131.18,34020.72,34026,2024-05-27T19:52:12Z,34046.7,Verzögerung,kuchelewa,d,mwakilishi,mwanauchumi,jaribio,NA,NA,NA,NULL,NA,NA,NA,NA,NA,NA,NA,NA,NA,NA,NA,NA,NA,NA,NA,NA,NA,NA,NA
45cae,Deep Question,html.Page,1_1_0_0,NA,NA,form submission,17080.3,34026,34020.72,34046.7,51127,51127,2024-05-27T19:52:29Z,51135.02,Gefährdung,kuhatarisha,d,uchokozi,udhaifu,makorowezo,weissich nicht mehr,NA,NA,NULL,NA,NA,NA,NA,NA,NA,NA,NA,NA,NA,NA,NA,NA,NA,NA,NA,NA,NA,NA
45cae,Save data screen,canvas.Screen,1_1_0_1,NA,NA,timeout,500.24000000001,51128,51122.88,51135.02,51618.68,51621,2024-05-27T19:52:29Z,51635.26,Gefährdung,kuhatarisha,d,uchokozi,udhaifu,makorowezo,NA,NA,0,NULL,NA,NA,NA,NA,NA,NA,NA,NA,NA,NA,NA,NA,NA,NA,NA,NA,NA,NA,NA
45cae,deep,flow.Sequence,1_1_0,NA,NA,completion,17571.98,34026,34020.72,34046.7,51618.68,51621,2024-05-27T19:52:29Z,51635.26,Gefährdung,kuhatarisha,d,uchokozi,udhaifu,makorowezo,NA,NA,NA,NULL,NA,NA,NA,NA,NA,NA,NA,NA,NA,NA,NA,NA,NA,NA,NA,NA,NA,NA,NA
45cae,task,flow.Sequence,1_1,NA,NA,completion,17571.98,34026,34020.72,34046.7,51618.68,51621,2024-05-27T19:52:29Z,51635.26,Gefährdung,kuhatarisha,d,uchokozi,udhaifu,makorowezo,NA,NA,NA,NULL,NA,NA,NA,NA,NA,NA,NA,NA,NA,NA,NA,NA,NA,NA,NA,NA,NA,NA,NA
45cae,Deep Question,html.Page,1_2_0_0,NA,NA,form submission,15670.74,51622,51618.68,51635.26,67306,67307,2024-05-27T19:52:45Z,67315.02,Kreativität,ubunifu,s,mratibu,mwendelezo,makubaliano,dvgvbq,NA,NA,NULL,NA,NA,NA,NA,NA,NA,NA,NA,NA,NA,NA,NA,NA,NA,NA,NA,NA,NA,NA
45cae,Save data screen,canvas.Screen,1_2_0_1,NA,NA,timeout,500.5,67309,67303.2,67315.02,67798.82,67800,2024-05-27T19:52:46Z,67815.52,Kreativität,ubunifu,s,mratibu,mwendelezo,makubaliano,NA,NA,0,NULL,NA,NA,NA,NA,NA,NA,NA,NA,NA,NA,NA,NA,NA,NA,NA,NA,NA,NA,NA
45cae,deep,flow.Sequence,1_2_0,NA,NA,completion,16163.56,51621,51618.68,51635.26,67798.82,67801,2024-05-27T19:52:46Z,67815.52,Kreativität,ubunifu,s,mratibu,mwendelezo,makubaliano,NA,NA,NA,NULL,NA,NA,NA,NA,NA,NA,NA,NA,NA,NA,NA,NA,NA,NA,NA,NA,NA,NA,NA
45cae,task,flow.Sequence,1_2,NA,NA,completion,16163.56,51621,51618.68,51635.26,67798.82,67801,2024-05-27T19:52:46Z,67815.52,Kreativität,ubunifu,s,mratibu,mwendelezo,makubaliano,NA,NA,NA,NULL,NA,NA,NA,NA,NA,NA,NA,NA,NA,NA,NA,NA,NA,NA,NA,NA,NA,NA,NA
45cae,Deep Question,html.Page,1_3_0_0,NA,NA,form submission,15108.48,67801,67798.82,67815.52,82924,82925,2024-05-27T19:53:01Z,82928.06,Lawine,banguko,s,maambukizi,usuluhishi,chekechea,keineahnung,NA,NA,NULL,NA,NA,NA,NA,NA,NA,NA,NA,NA,NA,NA,NA,NA,NA,NA,NA,NA,NA,NA
45cae,Save data screen,canvas.Screen,1_3_0_1,NA,NA,timeout,500.32000000001,82931,82919.32,82928.06,83411.7,83413,2024-05-27T19:53:01Z,83428.38,Lawine,banguko,s,maambukizi,usuluhishi,chekechea,NA,NA,0,NULL,NA,NA,NA,NA,NA,NA,NA,NA,NA,NA,NA,NA,NA,NA,NA,NA,NA,NA,NA
45cae,deep,flow.Sequence,1_3_0,NA,NA,completion,15596.18,67801,67798.82,67815.52,83411.7,83414,2024-05-27T19:53:01Z,83428.38,Lawine,banguko,s,maambukizi,usuluhishi,chekechea,NA,NA,NA,NULL,NA,NA,NA,NA,NA,NA,NA,NA,NA,NA,NA,NA,NA,NA,NA,NA,NA,NA,NA
45cae,task,flow.Sequence,1_3,NA,NA,completion,15596.18,67801,67798.82,67815.52,83411.7,83414,2024-05-27T19:53:01Z,83428.38,Lawine,banguko,s,maambukizi,usuluhishi,chekechea,NA,NA,NA,NULL,NA,NA,NA,NA,NA,NA,NA,NA,NA,NA,NA,NA,NA,NA,NA,NA,NA,NA,NA
45cae,Deep Question,html.Page,1_4_0_0,NA,NA,form submission,16653.62,83414,83411.7,83428.38,100082,100083,2024-05-27T19:53:18Z,100092.2,Sänger,mwimbaji,s,msichana,shughuli,mshirika,shakiro,NA,NA,NULL,NA,NA,NA,NA,NA,NA,NA,NA,NA,NA,NA,NA,NA,NA,NA,NA,NA,NA,NA
45cae,Save data screen,canvas.Screen,1_4_0_1,NA,NA,timeout,500.38,100084,100079.36,100092.2,100575.9,100578,2024-05-27T19:53:18Z,100592.58,Sänger,mwimbaji,s,msichana,shughuli,mshirika,NA,NA,0,NULL,NA,NA,NA,NA,NA,NA,NA,NA,NA,NA,NA,NA,NA,NA,NA,NA,NA,NA,NA
45cae,deep,flow.Sequence,1_4_0,NA,NA,completion,17147.52,83414,83411.7,83428.38,100575.9,100579,2024-05-27T19:53:18Z,100592.58,Sänger,mwimbaji,s,msichana,shughuli,mshirika,NA,NA,NA,NULL,NA,NA,NA,NA,NA,NA,NA,NA,NA,NA,NA,NA,NA,NA,NA,NA,NA,NA,NA
45cae,task,flow.Sequence,1_4,NA,NA,completion,17147.52,83414,83411.7,83428.38,100575.9,100579,2024-05-27T19:53:18Z,100592.58,Sänger,mwimbaji,s,msichana,shughuli,mshirika,NA,NA,NA,NULL,NA,NA,NA,NA,NA,NA,NA,NA,NA,NA,NA,NA,NA,NA,NA,NA,NA,NA,NA
45cae,Deep Question,html.Page,1_5_0_0,NA,NA,form submission,14925.42,100580,100575.9,100592.58,115518,115518,2024-05-27T19:53:33Z,115521.58,Kanzler,diwani,d,rasilmali,mahitaji,maabudu,diwani,NA,NA,NULL,NA,NA,NA,NA,NA,NA,NA,NA,NA,NA,NA,NA,NA,NA,NA,NA,NA,NA,NA
45cae,Save data screen,canvas.Screen,1_5_0_1,NA,NA,timeout,500.7,115520,115513.88,115521.58,116005.58,116007,2024-05-27T19:53:34Z,116022.28,Kanzler,diwani,d,rasilmali,mahitaji,maabudu,NA,NA,1,NULL,NA,NA,NA,NA,NA,NA,NA,NA,NA,NA,NA,NA,NA,NA,NA,NA,NA,NA,NA
45cae,deep,flow.Sequence,1_5_0,NA,NA,completion,15413,100580,100575.9,100592.58,116005.58,116009,2024-05-27T19:53:34Z,116022.28,Kanzler,diwani,d,rasilmali,mahitaji,maabudu,NA,NA,NA,NULL,NA,NA,NA,NA,NA,NA,NA,NA,NA,NA,NA,NA,NA,NA,NA,NA,NA,NA,NA
45cae,task,flow.Sequence,1_5,NA,NA,completion,15413,100579,100575.9,100592.58,116005.58,116009,2024-05-27T19:53:34Z,116022.28,Kanzler,diwani,d,rasilmali,mahitaji,maabudu,NA,NA,NA,NULL,NA,NA,NA,NA,NA,NA,NA,NA,NA,NA,NA,NA,NA,NA,NA,NA,NA,NA,NA
45cae,Deep Question,html.Page,1_6_0_0,NA,NA,form submission,6988.72,116010,116005.58,116022.28,123011,123011,2024-05-27T19:53:41Z,123011.24,Kultur,utamaduni,d,shetani,gerezani,mazingira,bööö,NA,NA,NULL,NA,NA,NA,NA,NA,NA,NA,NA,NA,NA,NA,NA,NA,NA,NA,NA,NA,NA,NA
45cae,Save data screen,canvas.Screen,1_6_0_1,NA,NA,timeout,500.31999999999,123012,123006.98,123011.24,123495.02,123496,2024-05-27T19:53:41Z,123511.56,Kultur,utamaduni,d,shetani,gerezani,mazingira,NA,NA,0,NULL,NA,NA,NA,NA,NA,NA,NA,NA,NA,NA,NA,NA,NA,NA,NA,NA,NA,NA,NA
45cae,deep,flow.Sequence,1_6_0,NA,NA,completion,7472.74,116010,116005.58,116022.28,123495.02,123497,2024-05-27T19:53:41Z,123511.56,Kultur,utamaduni,d,shetani,gerezani,mazingira,NA,NA,NA,NULL,NA,NA,NA,NA,NA,NA,NA,NA,NA,NA,NA,NA,NA,NA,NA,NA,NA,NA,NA
45cae,task,flow.Sequence,1_6,NA,NA,completion,7472.74,116009,116005.58,116022.28,123495.02,123497,2024-05-27T19:53:41Z,123511.56,Kultur,utamaduni,d,shetani,gerezani,mazingira,NA,NA,NA,NULL,NA,NA,NA,NA,NA,NA,NA,NA,NA,NA,NA,NA,NA,NA,NA,NA,NA,NA,NA
45cae,Deep Question,html.Page,1_7_0_0,NA,NA,form submission,6459.44,123499,123495.02,123511.56,129971,129971,2024-05-27T19:53:48Z,129983.6,Angreifer,mshambulizi,s,kitengo,tasinia,usafirishaji,ohje,NA,NA,NULL,NA,NA,NA,NA,NA,NA,NA,NA,NA,NA,NA,NA,NA,NA,NA,NA,NA,NA,NA
45cae,Save data screen,canvas.Screen,1_7_0_1,NA,NA,timeout,500.39999999999,129972,129966.98,129983.6,130467.32,130469,2024-05-27T19:53:48Z,130484,Angreifer,mshambulizi,s,kitengo,tasinia,usafirishaji,NA,NA,0,NULL,NA,NA,NA,NA,NA,NA,NA,NA,NA,NA,NA,NA,NA,NA,NA,NA,NA,NA,NA
45cae,deep,flow.Sequence,1_7_0,NA,NA,completion,6955.76,123498,123495.02,123511.56,130467.32,130470,2024-05-27T19:53:48Z,130484,Angreifer,mshambulizi,s,kitengo,tasinia,usafirishaji,NA,NA,NA,NULL,NA,NA,NA,NA,NA,NA,NA,NA,NA,NA,NA,NA,NA,NA,NA,NA,NA,NA,NA
45cae,task,flow.Sequence,1_7,NA,NA,completion,6955.76,123498,123495.02,123511.56,130467.32,130470,2024-05-27T19:53:48Z,130484,Angreifer,mshambulizi,s,kitengo,tasinia,usafirishaji,NA,NA,NA,NULL,NA,NA,NA,NA,NA,NA,NA,NA,NA,NA,NA,NA,NA,NA,NA,NA,NA,NA,NA
45cae,Deep Question,html.Page,1_8_0_0,NA,NA,form submission,20913,130470,130467.32,130484,151397,151399,2024-05-27T19:54:09Z,151401.36,Können,unaweza,s,kiongozi,bustani,mienendo,nope,NA,NA,NULL,NA,NA,NA,NA,NA,NA,NA,NA,NA,NA,NA,NA,NA,NA,NA,NA,NA,NA,NA
45cae,Save data screen,canvas.Screen,1_8_0_1,NA,NA,timeout,500.46000000002,151405,151392.18,151401.36,151885.14,151887,2024-05-27T19:54:10Z,151901.82,Können,unaweza,s,kiongozi,bustani,mienendo,NA,NA,0,NULL,NA,NA,NA,NA,NA,NA,NA,NA,NA,NA,NA,NA,NA,NA,NA,NA,NA,NA,NA
45cae,deep,flow.Sequence,1_8_0,NA,NA,completion,21401.14,130470,130467.32,130484,151885.14,151889,2024-05-27T19:54:10Z,151901.82,Können,unaweza,s,kiongozi,bustani,mienendo,NA,NA,NA,NULL,NA,NA,NA,NA,NA,NA,NA,NA,NA,NA,NA,NA,NA,NA,NA,NA,NA,NA,NA
45cae,task,flow.Sequence,1_8,NA,NA,completion,21401.14,130470,130467.32,130484,151885.14,151889,2024-05-27T19:54:10Z,151901.82,Können,unaweza,s,kiongozi,bustani,mienendo,NA,NA,NA,NULL,NA,NA,NA,NA,NA,NA,NA,NA,NA,NA,NA,NA,NA,NA,NA,NA,NA,NA,NA
45cae,Deep Question,html.Page,1_9_0_0,NA,NA,form submission,4500.18,151889,151885.14,151901.82,156402,156402,2024-05-27T19:54:14Z,156405.48,Aufstand,ugomaji,s,mazidio,msingi,kujieleza,hmmm,NA,NA,NULL,NA,NA,NA,NA,NA,NA,NA,NA,NA,NA,NA,NA,NA,NA,NA,NA,NA,NA,NA
45cae,Save data screen,canvas.Screen,1_9_0_1,NA,NA,timeout,500.45999999999,156402,156397.36,156405.48,156889.24,156891,2024-05-27T19:54:15Z,156905.94,Aufstand,ugomaji,s,mazidio,msingi,kujieleza,NA,NA,0,NULL,NA,NA,NA,NA,NA,NA,NA,NA,NA,NA,NA,NA,NA,NA,NA,NA,NA,NA,NA
45cae,deep,flow.Sequence,1_9_0,NA,NA,completion,4987.42,151889,151885.14,151901.82,156889.24,156891,2024-05-27T19:54:15Z,156905.94,Aufstand,ugomaji,s,mazidio,msingi,kujieleza,NA,NA,NA,NULL,NA,NA,NA,NA,NA,NA,NA,NA,NA,NA,NA,NA,NA,NA,NA,NA,NA,NA,NA
45cae,task,flow.Sequence,1_9,NA,NA,completion,4987.42,151889,151885.14,151901.82,156889.24,156891,2024-05-27T19:54:15Z,156905.94,Aufstand,ugomaji,s,mazidio,msingi,kujieleza,NA,NA,NA,NULL,NA,NA,NA,NA,NA,NA,NA,NA,NA,NA,NA,NA,NA,NA,NA,NA,NA,NA,NA
45cae,Deep Question,html.Page,1_10_0_0,NA,NA,form submission,29519.06,156891,156889.24,156905.94,186425,186425,2024-05-27T19:54:44Z,186430.36,Kontrolle,kudhibiti,d,mbinguni,kufunga,utegemezi,fvwb,NA,NA,NULL,NA,NA,NA,NA,NA,NA,NA,NA,NA,NA,NA,NA,NA,NA,NA,NA,NA,NA,NA
45cae,Save data screen,canvas.Screen,1_10_0_1,NA,NA,timeout,500.52000000002,186427,186421.82,186430.36,186914.18,186916,2024-05-27T19:54:45Z,186930.88,Kontrolle,kudhibiti,d,mbinguni,kufunga,utegemezi,NA,NA,0,NULL,NA,NA,NA,NA,NA,NA,NA,NA,NA,NA,NA,NA,NA,NA,NA,NA,NA,NA,NA
45cae,deep,flow.Sequence,1_10_0,NA,NA,completion,30008.24,156891,156889.24,156905.94,186914.18,186917,2024-05-27T19:54:45Z,186930.88,Kontrolle,kudhibiti,d,mbinguni,kufunga,utegemezi,NA,NA,NA,NULL,NA,NA,NA,NA,NA,NA,NA,NA,NA,NA,NA,NA,NA,NA,NA,NA,NA,NA,NA
45cae,task,flow.Sequence,1_10,NA,NA,completion,30008.24,156891,156889.24,156905.94,186914.18,186917,2024-05-27T19:54:45Z,186930.88,Kontrolle,kudhibiti,d,mbinguni,kufunga,utegemezi,NA,NA,NA,NULL,NA,NA,NA,NA,NA,NA,NA,NA,NA,NA,NA,NA,NA,NA,NA,NA,NA,NA,NA
45cae,Deep Question,html.Page,1_11_0_0,NA,NA,form submission,8201.12,186917,186914.18,186930.88,195132,195132,2024-05-27T19:54:53Z,195137.58,Abrechnung,uhasibu,d,kusahihisha,mpambano,mashambulizi,böööh,NA,NA,NULL,NA,NA,NA,NA,NA,NA,NA,NA,NA,NA,NA,NA,NA,NA,NA,NA,NA,NA,NA
45cae,Save data screen,canvas.Screen,1_11_0_1,NA,NA,timeout,500.60000000001,195133,195128.94,195137.58,195621.48,195623,2024-05-27T19:54:53Z,195638.18,Abrechnung,uhasibu,d,kusahihisha,mpambano,mashambulizi,NA,NA,0,NULL,NA,NA,NA,NA,NA,NA,NA,NA,NA,NA,NA,NA,NA,NA,NA,NA,NA,NA,NA
45cae,deep,flow.Sequence,1_11_0,NA,NA,completion,8690.6,186917,186914.18,186930.88,195621.48,195623,2024-05-27T19:54:53Z,195638.18,Abrechnung,uhasibu,d,kusahihisha,mpambano,mashambulizi,NA,NA,NA,NULL,NA,NA,NA,NA,NA,NA,NA,NA,NA,NA,NA,NA,NA,NA,NA,NA,NA,NA,NA
45cae,task,flow.Sequence,1_11,NA,NA,completion,8690.6,186917,186914.18,186930.88,195621.48,195623,2024-05-27T19:54:53Z,195638.18,Abrechnung,uhasibu,d,kusahihisha,mpambano,mashambulizi,NA,NA,NA,NULL,NA,NA,NA,NA,NA,NA,NA,NA,NA,NA,NA,NA,NA,NA,NA,NA,NA,NA,NA
45cae,Deep Question,html.Page,1_12_0_0,NA,NA,form submission,22629.82,195624,195621.48,195638.18,218268,218268,2024-05-27T19:55:16Z,218273.3,Prüfung,mtihani,s,mkulima,mtizamo,ufumbuzi,mtihani,NA,NA,NULL,NA,NA,NA,NA,NA,NA,NA,NA,NA,NA,NA,NA,NA,NA,NA,NA,NA,NA,NA
45cae,Save data screen,canvas.Screen,1_12_0_1,NA,NA,timeout,500.58000000002,218275,218262.42,218273.3,218757.18,218758,2024-05-27T19:55:17Z,218773.88,Prüfung,mtihani,s,mkulima,mtizamo,ufumbuzi,NA,NA,1,NULL,NA,NA,NA,NA,NA,NA,NA,NA,NA,NA,NA,NA,NA,NA,NA,NA,NA,NA,NA
45cae,deep,flow.Sequence,1_12_0,NA,NA,completion,23119,195623,195621.48,195638.18,218757.18,218758,2024-05-27T19:55:17Z,218773.88,Prüfung,mtihani,s,mkulima,mtizamo,ufumbuzi,NA,NA,NA,NULL,NA,NA,NA,NA,NA,NA,NA,NA,NA,NA,NA,NA,NA,NA,NA,NA,NA,NA,NA
45cae,task,flow.Sequence,1_12,NA,NA,completion,23119,195623,195621.48,195638.18,218757.18,218759,2024-05-27T19:55:17Z,218773.88,Prüfung,mtihani,s,mkulima,mtizamo,ufumbuzi,NA,NA,NA,NULL,NA,NA,NA,NA,NA,NA,NA,NA,NA,NA,NA,NA,NA,NA,NA,NA,NA,NA,NA
45cae,Deep Question,html.Page,1_13_0_0,NA,NA,form submission,3013.12,218759,218757.18,218773.88,221787,221787,2024-05-27T19:55:20Z,221792.88,System,maongozi,s,chokochoko,nuksani,mitaani,dhemn,NA,NA,NULL,NA,NA,NA,NA,NA,NA,NA,NA,NA,NA,NA,NA,NA,NA,NA,NA,NA,NA,NA
45cae,Save data screen,canvas.Screen,1_13_0_1,NA,NA,timeout,500.54000000001,221788,221783.54,221792.88,222276.72,222278,2024-05-27T19:55:20Z,222293.42,System,maongozi,s,chokochoko,nuksani,mitaani,NA,NA,0,NULL,NA,NA,NA,NA,NA,NA,NA,NA,NA,NA,NA,NA,NA,NA,NA,NA,NA,NA,NA
45cae,deep,flow.Sequence,1_13_0,NA,NA,completion,3502.84,218759,218757.18,218773.88,222276.72,222278,2024-05-27T19:55:20Z,222293.42,System,maongozi,s,chokochoko,nuksani,mitaani,NA,NA,NA,NULL,NA,NA,NA,NA,NA,NA,NA,NA,NA,NA,NA,NA,NA,NA,NA,NA,NA,NA,NA
45cae,task,flow.Sequence,1_13,NA,NA,completion,3502.84,218759,218757.18,218773.88,222276.72,222278,2024-05-27T19:55:20Z,222293.42,System,maongozi,s,chokochoko,nuksani,mitaani,NA,NA,NA,NULL,NA,NA,NA,NA,NA,NA,NA,NA,NA,NA,NA,NA,NA,NA,NA,NA,NA,NA,NA
45cae,Deep Question,html.Page,1_14_0_0,NA,NA,form submission,55737.58,222278,222276.72,222293.42,278031,278033,2024-05-27T19:56:16Z,278039.56,Körper,kiwiliwili,d,mapambano,mpatanishi,kiolezo,kiwiliwi,NA,NA,NULL,NA,NA,NA,NA,NA,NA,NA,NA,NA,NA,NA,NA,NA,NA,NA,NA,NA,NA,NA
45cae,Save data screen,canvas.Screen,1_14_0_1,NA,NA,timeout,500.56,278039,278026.48,278039.56,278523.42,278525,2024-05-27T19:56:16Z,278540.12,Körper,kiwiliwili,d,mapambano,mpatanishi,kiolezo,NA,NA,0,NULL,NA,NA,NA,NA,NA,NA,NA,NA,NA,NA,NA,NA,NA,NA,NA,NA,NA,NA,NA
45cae,deep,flow.Sequence,1_14_0,NA,NA,completion,56230,222278,222276.72,222293.42,278523.42,278525,2024-05-27T19:56:16Z,278540.12,Körper,kiwiliwili,d,mapambano,mpatanishi,kiolezo,NA,NA,NA,NULL,NA,NA,NA,NA,NA,NA,NA,NA,NA,NA,NA,NA,NA,NA,NA,NA,NA,NA,NA
45cae,task,flow.Sequence,1_14,NA,NA,completion,56230,222278,222276.72,222293.42,278523.42,278526,2024-05-27T19:56:16Z,278540.12,Körper,kiwiliwili,d,mapambano,mpatanishi,kiolezo,NA,NA,NA,NULL,NA,NA,NA,NA,NA,NA,NA,NA,NA,NA,NA,NA,NA,NA,NA,NA,NA,NA,NA
45cae,Deep Question,html.Page,1_15_0_0,NA,NA,form submission,4806.88,278526,278523.42,278540.12,283347,283348,2024-05-27T19:56:21Z,283360.68,Übersicht,kilindo,d,mgusano,chipukizi,kulinganisha,vcgvkj,NA,NA,NULL,NA,NA,NA,NA,NA,NA,NA,NA,NA,NA,NA,NA,NA,NA,NA,NA,NA,NA,NA
45cae,Save data screen,canvas.Screen,1_15_0_1,NA,NA,timeout,500.41999999998,283349,283344.24,283360.68,283844.4,283845,2024-05-27T19:56:22Z,283861.1,Übersicht,kilindo,d,mgusano,chipukizi,kulinganisha,NA,NA,0,NULL,NA,NA,NA,NA,NA,NA,NA,NA,NA,NA,NA,NA,NA,NA,NA,NA,NA,NA,NA
45cae,deep,flow.Sequence,1_15_0,NA,NA,completion,5304.28,278526,278523.42,278540.12,283844.4,283845,2024-05-27T19:56:22Z,283861.1,Übersicht,kilindo,d,mgusano,chipukizi,kulinganisha,NA,NA,NA,NULL,NA,NA,NA,NA,NA,NA,NA,NA,NA,NA,NA,NA,NA,NA,NA,NA,NA,NA,NA
45cae,task,flow.Sequence,1_15,NA,NA,completion,5304.28,278526,278523.42,278540.12,283844.4,283846,2024-05-27T19:56:22Z,283861.1,Übersicht,kilindo,d,mgusano,chipukizi,kulinganisha,NA,NA,NA,NULL,NA,NA,NA,NA,NA,NA,NA,NA,NA,NA,NA,NA,NA,NA,NA,NA,NA,NA,NA
45cae,retrieval block 1 (cued recall),flow.Loop,1,NA,NA,completion,277713.22,6127,6127.4,6131.18,283844.4,283847,2024-05-27T19:56:22Z,283861.1,NA,NA,NA,NA,NA,NA,NA,NA,NA,NULL,NA,NA,NA,NA,NA,NA,NA,NA,NA,NA,NA,NA,NA,NA,NA,NA,NA,NA,NA
45cae,Shallow Question,html.Page,2_0_0_0,NA,NA,form submission,7211.9,283847,283844.4,283861.1,291073,291073,2024-05-27T19:56:29Z,291083.7,Kontrolle,kudhibiti,d,mbinguni,kufunga,utegemezi,kudhibiti,NA,NA,"c(""distractor1"", ""distractor2"", ""distractor3"")",NA,NA,NA,NA,NA,NA,NA,NA,NA,NA,NA,NA,NA,NA,NA,NA,NA,NA,NA
45cae,Save data screen,canvas.Screen,2_0_0_1,NA,NA,timeout,500.47999999998,291074,291068.64,291083.7,291567.48,291568,2024-05-27T19:56:29Z,291584.18,Kontrolle,kudhibiti,d,mbinguni,kufunga,utegemezi,NA,NA,1,"c(""distractor1"", ""distractor2"", ""distractor3"")",NA,NA,NA,NA,NA,NA,NA,NA,NA,NA,NA,NA,NA,NA,NA,NA,NA,NA,NA
45cae,shallow,flow.Sequence,2_0_0,NA,NA,completion,7706.38,283847,283844.4,283861.1,291567.48,291569,2024-05-27T19:56:29Z,291584.18,Kontrolle,kudhibiti,d,mbinguni,kufunga,utegemezi,NA,NA,NA,"c(""distractor1"", ""distractor2"", ""distractor3"")",NA,NA,NA,NA,NA,NA,NA,NA,NA,NA,NA,NA,NA,NA,NA,NA,NA,NA,NA
45cae,task,flow.Sequence,2_0,NA,NA,completion,7706.38,283847,283844.4,283861.1,291567.48,291569,2024-05-27T19:56:29Z,291584.18,Kontrolle,kudhibiti,d,mbinguni,kufunga,utegemezi,NA,NA,NA,"c(""distractor1"", ""distractor2"", ""distractor3"")",NA,NA,NA,NA,NA,NA,NA,NA,NA,NA,NA,NA,NA,NA,NA,NA,NA,NA,NA
45cae,Shallow Question,html.Page,2_1_0_0,NA,NA,form submission,3041.82,291569,291567.48,291584.18,294626,294627,2024-05-27T19:56:32Z,294636.7,Kanzler,diwani,d,rasilmali,mahitaji,maabudu,diwani,NA,NA,"c(""distractor1"", ""distractor2"", ""distractor3"")",NA,NA,NA,NA,NA,NA,NA,NA,NA,NA,NA,NA,NA,NA,NA,NA,NA,NA,NA
45cae,Save data screen,canvas.Screen,2_1_0_1,NA,NA,timeout,500.39999999997,294628,294623.88,294636.7,295120.4,295122,2024-05-27T19:56:33Z,295137.1,Kanzler,diwani,d,rasilmali,mahitaji,maabudu,NA,NA,1,"c(""distractor1"", ""distractor2"", ""distractor3"")",NA,NA,NA,NA,NA,NA,NA,NA,NA,NA,NA,NA,NA,NA,NA,NA,NA,NA,NA
45cae,shallow,flow.Sequence,2_1_0,NA,NA,completion,3536.22,291569,291567.48,291584.18,295120.4,295125,2024-05-27T19:56:33Z,295137.1,Kanzler,diwani,d,rasilmali,mahitaji,maabudu,NA,NA,NA,"c(""distractor1"", ""distractor2"", ""distractor3"")",NA,NA,NA,NA,NA,NA,NA,NA,NA,NA,NA,NA,NA,NA,NA,NA,NA,NA,NA
45cae,task,flow.Sequence,2_1,NA,NA,completion,3536.22,291569,291567.48,291584.18,295120.4,295125,2024-05-27T19:56:33Z,295137.1,Kanzler,diwani,d,rasilmali,mahitaji,maabudu,NA,NA,NA,"c(""distractor1"", ""distractor2"", ""distractor3"")",NA,NA,NA,NA,NA,NA,NA,NA,NA,NA,NA,NA,NA,NA,NA,NA,NA,NA,NA
45cae,Shallow Question,html.Page,2_2_0_0,NA,NA,form submission,7867.9,295125,295120.4,295137.1,303005,303006,2024-05-27T19:56:41Z,303010.28,System,maongozi,s,chokochoko,nuksani,mitaani,mitaani,NA,NA,"c(""distractor1"", ""distractor2"", ""distractor3"")",NA,NA,NA,NA,NA,NA,NA,NA,NA,NA,NA,NA,NA,NA,NA,NA,NA,NA,NA
45cae,Save data screen,canvas.Screen,2_2_0_1,NA,NA,timeout,500.53999999998,303007,303002.3,303010.28,303494.12,303496,2024-05-27T19:56:41Z,303510.82,System,maongozi,s,chokochoko,nuksani,mitaani,NA,NA,0,"c(""distractor1"", ""distractor2"", ""distractor3"")",NA,NA,NA,NA,NA,NA,NA,NA,NA,NA,NA,NA,NA,NA,NA,NA,NA,NA,NA
45cae,shallow,flow.Sequence,2_2_0,NA,NA,completion,8357.02,295125,295120.4,295137.1,303494.12,303497,2024-05-27T19:56:41Z,303510.82,System,maongozi,s,chokochoko,nuksani,mitaani,NA,NA,NA,"c(""distractor1"", ""distractor2"", ""distractor3"")",NA,NA,NA,NA,NA,NA,NA,NA,NA,NA,NA,NA,NA,NA,NA,NA,NA,NA,NA
45cae,task,flow.Sequence,2_2,NA,NA,completion,8357.02,295125,295120.4,295137.1,303494.12,303497,2024-05-27T19:56:41Z,303510.82,System,maongozi,s,chokochoko,nuksani,mitaani,NA,NA,NA,"c(""distractor1"", ""distractor2"", ""distractor3"")",NA,NA,NA,NA,NA,NA,NA,NA,NA,NA,NA,NA,NA,NA,NA,NA,NA,NA,NA
45cae,Shallow Question,html.Page,2_3_0_0,NA,NA,form submission,3118.18,303498,303494.12,303510.82,306629,306629,2024-05-27T19:56:44Z,306630,Lawine,banguko,s,maambukizi,usuluhishi,chekechea,banguko,NA,NA,"c(""distractor1"", ""distractor2"", ""distractor3"")",NA,NA,NA,NA,NA,NA,NA,NA,NA,NA,NA,NA,NA,NA,NA,NA,NA,NA,NA
45cae,Save data screen,canvas.Screen,2_3_0_1,NA,NA,timeout,500.38,306630,306624.56,306630,307113.68,307115,2024-05-27T19:56:45Z,307130.38,Lawine,banguko,s,maambukizi,usuluhishi,chekechea,NA,NA,1,"c(""distractor1"", ""distractor2"", ""distractor3"")",NA,NA,NA,NA,NA,NA,NA,NA,NA,NA,NA,NA,NA,NA,NA,NA,NA,NA,NA
45cae,shallow,flow.Sequence,2_3_0,NA,NA,completion,3602.86,303498,303494.12,303510.82,307113.68,307117,2024-05-27T19:56:45Z,307130.38,Lawine,banguko,s,maambukizi,usuluhishi,chekechea,NA,NA,NA,"c(""distractor1"", ""distractor2"", ""distractor3"")",NA,NA,NA,NA,NA,NA,NA,NA,NA,NA,NA,NA,NA,NA,NA,NA,NA,NA,NA
45cae,task,flow.Sequence,2_3,NA,NA,completion,3602.86,303497,303494.12,303510.82,307113.68,307119,2024-05-27T19:56:45Z,307130.38,Lawine,banguko,s,maambukizi,usuluhishi,chekechea,NA,NA,NA,"c(""distractor1"", ""distractor2"", ""distractor3"")",NA,NA,NA,NA,NA,NA,NA,NA,NA,NA,NA,NA,NA,NA,NA,NA,NA,NA,NA
45cae,Shallow Question,html.Page,2_4_0_0,NA,NA,form submission,8902.62,307119,307113.68,307130.38,316033,316033,2024-05-27T19:56:54Z,316037.76,Gefährdung,kuhatarisha,d,uchokozi,udhaifu,makorowezo,udhaifu,NA,NA,"c(""distractor1"", ""distractor2"", ""distractor3"")",NA,NA,NA,NA,NA,NA,NA,NA,NA,NA,NA,NA,NA,NA,NA,NA,NA,NA,NA
45cae,Save data screen,canvas.Screen,2_4_0_1,NA,NA,timeout,500.52000000002,316035,316030.18,316037.76,316521.58,316523,2024-05-27T19:56:54Z,316538.28,Gefährdung,kuhatarisha,d,uchokozi,udhaifu,makorowezo,NA,NA,0,"c(""distractor1"", ""distractor2"", ""distractor3"")",NA,NA,NA,NA,NA,NA,NA,NA,NA,NA,NA,NA,NA,NA,NA,NA,NA,NA,NA
45cae,shallow,flow.Sequence,2_4_0,NA,NA,completion,9391.2,307119,307113.68,307130.38,316521.58,316524,2024-05-27T19:56:54Z,316538.28,Gefährdung,kuhatarisha,d,uchokozi,udhaifu,makorowezo,NA,NA,NA,"c(""distractor1"", ""distractor2"", ""distractor3"")",NA,NA,NA,NA,NA,NA,NA,NA,NA,NA,NA,NA,NA,NA,NA,NA,NA,NA,NA
45cae,task,flow.Sequence,2_4,NA,NA,completion,9391.2,307119,307113.68,307130.38,316521.58,316524,2024-05-27T19:56:54Z,316538.28,Gefährdung,kuhatarisha,d,uchokozi,udhaifu,makorowezo,NA,NA,NA,"c(""distractor1"", ""distractor2"", ""distractor3"")",NA,NA,NA,NA,NA,NA,NA,NA,NA,NA,NA,NA,NA,NA,NA,NA,NA,NA,NA
45cae,Shallow Question,html.Page,2_5_0_0,NA,NA,form submission,10979.72,316525,316521.58,316538.28,327518,327519,2024-05-27T19:57:05Z,327513.96,Angreifer,mshambulizi,s,kitengo,tasinia,usafirishaji,kitengo,NA,NA,"c(""distractor1"", ""distractor2"", ""distractor3"")",NA,NA,NA,NA,NA,NA,NA,NA,NA,NA,NA,NA,NA,NA,NA,NA,NA,NA,NA
45cae,Save data screen,canvas.Screen,2_5_0_1,NA,NA,timeout,500.57999999996,327520,327513.6,327513.96,327997.84,327999,2024-05-27T19:57:06Z,328014.54,Angreifer,mshambulizi,s,kitengo,tasinia,usafirishaji,NA,NA,0,"c(""distractor1"", ""distractor2"", ""distractor3"")",NA,NA,NA,NA,NA,NA,NA,NA,NA,NA,NA,NA,NA,NA,NA,NA,NA,NA,NA
45cae,shallow,flow.Sequence,2_5_0,NA,NA,completion,11459.56,316525,316521.58,316538.28,327997.84,328000,2024-05-27T19:57:06Z,328014.54,Angreifer,mshambulizi,s,kitengo,tasinia,usafirishaji,NA,NA,NA,"c(""distractor1"", ""distractor2"", ""distractor3"")",NA,NA,NA,NA,NA,NA,NA,NA,NA,NA,NA,NA,NA,NA,NA,NA,NA,NA,NA
45cae,task,flow.Sequence,2_5,NA,NA,completion,11459.56,316525,316521.58,316538.28,327997.84,328000,2024-05-27T19:57:06Z,328014.54,Angreifer,mshambulizi,s,kitengo,tasinia,usafirishaji,NA,NA,NA,"c(""distractor1"", ""distractor2"", ""distractor3"")",NA,NA,NA,NA,NA,NA,NA,NA,NA,NA,NA,NA,NA,NA,NA,NA,NA,NA,NA
45cae,Shallow Question,html.Page,2_6_0_0,NA,NA,form submission,3906.46,328000,327997.84,328014.54,331921,331923,2024-05-27T19:57:10Z,331917.68,Übersicht,kilindo,d,mgusano,chipukizi,kulinganisha,kilindo,NA,NA,"c(""distractor1"", ""distractor2"", ""distractor3"")",NA,NA,NA,NA,NA,NA,NA,NA,NA,NA,NA,NA,NA,NA,NA,NA,NA,NA,NA
45cae,Save data screen,canvas.Screen,2_6_0_1,NA,NA,timeout,500.35999999999,331928,331914.4,331917.68,332401.34,332403,2024-05-27T19:57:10Z,332418.04,Übersicht,kilindo,d,mgusano,chipukizi,kulinganisha,NA,NA,1,"c(""distractor1"", ""distractor2"", ""distractor3"")",NA,NA,NA,NA,NA,NA,NA,NA,NA,NA,NA,NA,NA,NA,NA,NA,NA,NA,NA
45cae,shallow,flow.Sequence,2_6_0,NA,NA,completion,4386.8,328000,327997.84,328014.54,332401.34,332403,2024-05-27T19:57:10Z,332418.04,Übersicht,kilindo,d,mgusano,chipukizi,kulinganisha,NA,NA,NA,"c(""distractor1"", ""distractor2"", ""distractor3"")",NA,NA,NA,NA,NA,NA,NA,NA,NA,NA,NA,NA,NA,NA,NA,NA,NA,NA,NA
45cae,task,flow.Sequence,2_6,NA,NA,completion,4386.8,328000,327997.84,328014.54,332401.34,332404,2024-05-27T19:57:10Z,332418.04,Übersicht,kilindo,d,mgusano,chipukizi,kulinganisha,NA,NA,NA,"c(""distractor1"", ""distractor2"", ""distractor3"")",NA,NA,NA,NA,NA,NA,NA,NA,NA,NA,NA,NA,NA,NA,NA,NA,NA,NA,NA
45cae,Shallow Question,html.Page,2_7_0_0,NA,NA,form submission,8120.96,332404,332401.34,332418.04,340539,340541,2024-05-27T19:57:18Z,340541.44,Kreativität,ubunifu,s,mratibu,mwendelezo,makubaliano,ubunifu,NA,NA,"c(""distractor1"", ""distractor2"", ""distractor3"")",NA,NA,NA,NA,NA,NA,NA,NA,NA,NA,NA,NA,NA,NA,NA,NA,NA,NA,NA
45cae,Save data screen,canvas.Screen,2_7_0_1,NA,NA,timeout,500.41999999998,340547,340533.74,340541.44,341025.16,341027,2024-05-27T19:57:19Z,341041.86,Kreativität,ubunifu,s,mratibu,mwendelezo,makubaliano,NA,NA,1,"c(""distractor1"", ""distractor2"", ""distractor3"")",NA,NA,NA,NA,NA,NA,NA,NA,NA,NA,NA,NA,NA,NA,NA,NA,NA,NA,NA
45cae,shallow,flow.Sequence,2_7_0,NA,NA,completion,8607.12,332404,332401.34,332418.04,341025.16,341028,2024-05-27T19:57:19Z,341041.86,Kreativität,ubunifu,s,mratibu,mwendelezo,makubaliano,NA,NA,NA,"c(""distractor1"", ""distractor2"", ""distractor3"")",NA,NA,NA,NA,NA,NA,NA,NA,NA,NA,NA,NA,NA,NA,NA,NA,NA,NA,NA
45cae,task,flow.Sequence,2_7,NA,NA,completion,8607.12,332404,332401.34,332418.04,341025.16,341028,2024-05-27T19:57:19Z,341041.86,Kreativität,ubunifu,s,mratibu,mwendelezo,makubaliano,NA,NA,NA,"c(""distractor1"", ""distractor2"", ""distractor3"")",NA,NA,NA,NA,NA,NA,NA,NA,NA,NA,NA,NA,NA,NA,NA,NA,NA,NA,NA
45cae,Shallow Question,html.Page,2_8_0_0,NA,NA,form submission,4753.14,341028,341025.16,341041.86,345795,345795,2024-05-27T19:57:24Z,345795.86,Prüfung,mtihani,s,mkulima,mtizamo,ufumbuzi,mtihani,NA,NA,"c(""distractor1"", ""distractor2"", ""distractor3"")",NA,NA,NA,NA,NA,NA,NA,NA,NA,NA,NA,NA,NA,NA,NA,NA,NA,NA,NA
45cae,Save data screen,canvas.Screen,2_8_0_1,NA,NA,timeout,500.40000000002,345796,345790.94,345795.86,346279.56,346281,2024-05-27T19:57:24Z,346296.26,Prüfung,mtihani,s,mkulima,mtizamo,ufumbuzi,NA,NA,1,"c(""distractor1"", ""distractor2"", ""distractor3"")",NA,NA,NA,NA,NA,NA,NA,NA,NA,NA,NA,NA,NA,NA,NA,NA,NA,NA,NA
45cae,shallow,flow.Sequence,2_8_0,NA,NA,completion,5237.7,341028,341025.16,341041.86,346279.56,346282,2024-05-27T19:57:24Z,346296.26,Prüfung,mtihani,s,mkulima,mtizamo,ufumbuzi,NA,NA,NA,"c(""distractor1"", ""distractor2"", ""distractor3"")",NA,NA,NA,NA,NA,NA,NA,NA,NA,NA,NA,NA,NA,NA,NA,NA,NA,NA,NA
45cae,task,flow.Sequence,2_8,NA,NA,completion,5237.7,341028,341025.16,341041.86,346279.56,346282,2024-05-27T19:57:24Z,346296.26,Prüfung,mtihani,s,mkulima,mtizamo,ufumbuzi,NA,NA,NA,"c(""distractor1"", ""distractor2"", ""distractor3"")",NA,NA,NA,NA,NA,NA,NA,NA,NA,NA,NA,NA,NA,NA,NA,NA,NA,NA,NA
45cae,Shallow Question,html.Page,2_9_0_0,NA,NA,form submission,6367.74,346283,346279.56,346296.26,352664,352664,2024-05-27T19:57:30Z,352668.14,Aufstand,ugomaji,s,mazidio,msingi,kujieleza,ugomaji,NA,NA,"c(""distractor1"", ""distractor2"", ""distractor3"")",NA,NA,NA,NA,NA,NA,NA,NA,NA,NA,NA,NA,NA,NA,NA,NA,NA,NA,NA
45cae,Save data screen,canvas.Screen,2_9_0_1,NA,NA,timeout,500.35999999999,352665,352660.74,352668.14,353151.94,353153,2024-05-27T19:57:31Z,353168.5,Aufstand,ugomaji,s,mazidio,msingi,kujieleza,NA,NA,1,"c(""distractor1"", ""distractor2"", ""distractor3"")",NA,NA,NA,NA,NA,NA,NA,NA,NA,NA,NA,NA,NA,NA,NA,NA,NA,NA,NA
45cae,shallow,flow.Sequence,2_9_0,NA,NA,completion,6855.68,346283,346279.56,346296.26,353151.94,353154,2024-05-27T19:57:31Z,353168.5,Aufstand,ugomaji,s,mazidio,msingi,kujieleza,NA,NA,NA,"c(""distractor1"", ""distractor2"", ""distractor3"")",NA,NA,NA,NA,NA,NA,NA,NA,NA,NA,NA,NA,NA,NA,NA,NA,NA,NA,NA
45cae,task,flow.Sequence,2_9,NA,NA,completion,6855.68,346282,346279.56,346296.26,353151.94,353154,2024-05-27T19:57:31Z,353168.5,Aufstand,ugomaji,s,mazidio,msingi,kujieleza,NA,NA,NA,"c(""distractor1"", ""distractor2"", ""distractor3"")",NA,NA,NA,NA,NA,NA,NA,NA,NA,NA,NA,NA,NA,NA,NA,NA,NA,NA,NA
45cae,Shallow Question,html.Page,2_10_0_0,NA,NA,form submission,3406.5,353154,353151.94,353168.5,356575,356575,2024-05-27T19:57:34Z,356571.36,Können,unaweza,s,kiongozi,bustani,mienendo,unaweza,NA,NA,"c(""distractor1"", ""distractor2"", ""distractor3"")",NA,NA,NA,NA,NA,NA,NA,NA,NA,NA,NA,NA,NA,NA,NA,NA,NA,NA,NA
45cae,Save data screen,canvas.Screen,2_10_0_1,NA,NA,timeout,500.46000000002,356577,356569.8,356571.36,357055.12,357056,2024-05-27T19:57:35Z,357071.82,Können,unaweza,s,kiongozi,bustani,mienendo,NA,NA,1,"c(""distractor1"", ""distractor2"", ""distractor3"")",NA,NA,NA,NA,NA,NA,NA,NA,NA,NA,NA,NA,NA,NA,NA,NA,NA,NA,NA
45cae,shallow,flow.Sequence,2_10_0,NA,NA,completion,3886.62,353154,353151.94,353168.5,357055.12,357056,2024-05-27T19:57:35Z,357071.82,Können,unaweza,s,kiongozi,bustani,mienendo,NA,NA,NA,"c(""distractor1"", ""distractor2"", ""distractor3"")",NA,NA,NA,NA,NA,NA,NA,NA,NA,NA,NA,NA,NA,NA,NA,NA,NA,NA,NA
45cae,task,flow.Sequence,2_10,NA,NA,completion,3886.62,353154,353151.94,353168.5,357055.12,357056,2024-05-27T19:57:35Z,357071.82,Können,unaweza,s,kiongozi,bustani,mienendo,NA,NA,NA,"c(""distractor1"", ""distractor2"", ""distractor3"")",NA,NA,NA,NA,NA,NA,NA,NA,NA,NA,NA,NA,NA,NA,NA,NA,NA,NA,NA
45cae,Shallow Question,html.Page,2_11_0_0,NA,NA,form submission,6232.18,357056,357055.12,357071.82,363304,363304,2024-05-27T19:57:41Z,363310.3,Körper,kiwiliwili,d,mapambano,mpatanishi,kiolezo,kiwiliwili,NA,NA,"c(""distractor1"", ""distractor2"", ""distractor3"")",NA,NA,NA,NA,NA,NA,NA,NA,NA,NA,NA,NA,NA,NA,NA,NA,NA,NA,NA
45cae,Save data screen,canvas.Screen,2_11_0_1,NA,NA,timeout,500.40000000002,363305,363300.7,363310.3,363794,363797,2024-05-27T19:57:42Z,363810.7,Körper,kiwiliwili,d,mapambano,mpatanishi,kiolezo,NA,NA,1,"c(""distractor1"", ""distractor2"", ""distractor3"")",NA,NA,NA,NA,NA,NA,NA,NA,NA,NA,NA,NA,NA,NA,NA,NA,NA,NA,NA
45cae,shallow,flow.Sequence,2_11_0,NA,NA,completion,6722.18,357056,357055.12,357071.82,363794,363798,2024-05-27T19:57:42Z,363810.7,Körper,kiwiliwili,d,mapambano,mpatanishi,kiolezo,NA,NA,NA,"c(""distractor1"", ""distractor2"", ""distractor3"")",NA,NA,NA,NA,NA,NA,NA,NA,NA,NA,NA,NA,NA,NA,NA,NA,NA,NA,NA
45cae,task,flow.Sequence,2_11,NA,NA,completion,6722.18,357056,357055.12,357071.82,363794,363798,2024-05-27T19:57:42Z,363810.7,Körper,kiwiliwili,d,mapambano,mpatanishi,kiolezo,NA,NA,NA,"c(""distractor1"", ""distractor2"", ""distractor3"")",NA,NA,NA,NA,NA,NA,NA,NA,NA,NA,NA,NA,NA,NA,NA,NA,NA,NA,NA
45cae,Shallow Question,html.Page,2_12_0_0,NA,NA,form submission,7197.3,363798,363794,363810.7,371008,371008,2024-05-27T19:57:49Z,371016.64,Sänger,mwimbaji,s,msichana,shughuli,mshirika,mshirika,NA,NA,"c(""distractor1"", ""distractor2"", ""distractor3"")",NA,NA,NA,NA,NA,NA,NA,NA,NA,NA,NA,NA,NA,NA,NA,NA,NA,NA,NA
45cae,Save data screen,canvas.Screen,2_12_0_1,NA,NA,timeout,500.47999999998,371010,371004.8,371016.64,371500.46,371501,2024-05-27T19:57:49Z,371517.12,Sänger,mwimbaji,s,msichana,shughuli,mshirika,NA,NA,0,"c(""distractor1"", ""distractor2"", ""distractor3"")",NA,NA,NA,NA,NA,NA,NA,NA,NA,NA,NA,NA,NA,NA,NA,NA,NA,NA,NA
45cae,shallow,flow.Sequence,2_12_0,NA,NA,completion,7689.76,363798,363794,363810.7,371500.46,371502,2024-05-27T19:57:49Z,371517.12,Sänger,mwimbaji,s,msichana,shughuli,mshirika,NA,NA,NA,"c(""distractor1"", ""distractor2"", ""distractor3"")",NA,NA,NA,NA,NA,NA,NA,NA,NA,NA,NA,NA,NA,NA,NA,NA,NA,NA,NA
45cae,task,flow.Sequence,2_12,NA,NA,completion,7689.76,363798,363794,363810.7,371500.46,371502,2024-05-27T19:57:49Z,371517.12,Sänger,mwimbaji,s,msichana,shughuli,mshirika,NA,NA,NA,"c(""distractor1"", ""distractor2"", ""distractor3"")",NA,NA,NA,NA,NA,NA,NA,NA,NA,NA,NA,NA,NA,NA,NA,NA,NA,NA,NA
45cae,Shallow Question,html.Page,2_13_0_0,NA,NA,form submission,12062.88,371503,371500.46,371517.12,383580,383580,2024-05-27T19:58:01Z,383577.1,Abrechnung,uhasibu,d,kusahihisha,mpambano,mashambulizi,uhasibu,NA,NA,"c(""distractor1"", ""distractor2"", ""distractor3"")",NA,NA,NA,NA,NA,NA,NA,NA,NA,NA,NA,NA,NA,NA,NA,NA,NA,NA,NA
45cae,Save data screen,canvas.Screen,2_13_0_1,NA,NA,timeout,500.34000000003,383582,383575.92,383577.1,384060.74,384063,2024-05-27T19:58:02Z,384077.44,Abrechnung,uhasibu,d,kusahihisha,mpambano,mashambulizi,NA,NA,1,"c(""distractor1"", ""distractor2"", ""distractor3"")",NA,NA,NA,NA,NA,NA,NA,NA,NA,NA,NA,NA,NA,NA,NA,NA,NA,NA,NA
45cae,shallow,flow.Sequence,2_13_0,NA,NA,completion,12543.62,371503,371500.46,371517.12,384060.74,384063,2024-05-27T19:58:02Z,384077.44,Abrechnung,uhasibu,d,kusahihisha,mpambano,mashambulizi,NA,NA,NA,"c(""distractor1"", ""distractor2"", ""distractor3"")",NA,NA,NA,NA,NA,NA,NA,NA,NA,NA,NA,NA,NA,NA,NA,NA,NA,NA,NA
45cae,task,flow.Sequence,2_13,NA,NA,completion,12543.62,371503,371500.46,371517.12,384060.74,384063,2024-05-27T19:58:02Z,384077.44,Abrechnung,uhasibu,d,kusahihisha,mpambano,mashambulizi,NA,NA,NA,"c(""distractor1"", ""distractor2"", ""distractor3"")",NA,NA,NA,NA,NA,NA,NA,NA,NA,NA,NA,NA,NA,NA,NA,NA,NA,NA,NA
45cae,Shallow Question,html.Page,2_14_0_0,NA,NA,form submission,4234.56,384063,384060.74,384077.44,388312,388312,2024-05-27T19:58:06Z,388314.36,Verzögerung,kuchelewa,d,mwakilishi,mwanauchumi,jaribio,kuchelewa,NA,NA,"c(""distractor1"", ""distractor2"", ""distractor3"")",NA,NA,NA,NA,NA,NA,NA,NA,NA,NA,NA,NA,NA,NA,NA,NA,NA,NA,NA
45cae,Save data screen,canvas.Screen,2_14_0_1,NA,NA,timeout,500.46000000002,388312,388308.2,388314.36,388798.12,388799,2024-05-27T19:58:07Z,388814.82,Verzögerung,kuchelewa,d,mwakilishi,mwanauchumi,jaribio,NA,NA,1,"c(""distractor1"", ""distractor2"", ""distractor3"")",NA,NA,NA,NA,NA,NA,NA,NA,NA,NA,NA,NA,NA,NA,NA,NA,NA,NA,NA
45cae,shallow,flow.Sequence,2_14_0,NA,NA,completion,4720.68,384063,384060.74,384077.44,388798.12,388800,2024-05-27T19:58:07Z,388814.82,Verzögerung,kuchelewa,d,mwakilishi,mwanauchumi,jaribio,NA,NA,NA,"c(""distractor1"", ""distractor2"", ""distractor3"")",NA,NA,NA,NA,NA,NA,NA,NA,NA,NA,NA,NA,NA,NA,NA,NA,NA,NA,NA
45cae,task,flow.Sequence,2_14,NA,NA,completion,4720.68,384063,384060.74,384077.44,388798.12,388800,2024-05-27T19:58:07Z,388814.82,Verzögerung,kuchelewa,d,mwakilishi,mwanauchumi,jaribio,NA,NA,NA,"c(""distractor1"", ""distractor2"", ""distractor3"")",NA,NA,NA,NA,NA,NA,NA,NA,NA,NA,NA,NA,NA,NA,NA,NA,NA,NA,NA
45cae,Shallow Question,html.Page,2_15_0_0,NA,NA,form submission,5766.18,388800,388798.12,388814.82,394581,394581,2024-05-27T19:58:12Z,394586.06,Kultur,utamaduni,d,shetani,gerezani,mazingira,utamaduni,NA,NA,"c(""distractor1"", ""distractor2"", ""distractor3"")",NA,NA,NA,NA,NA,NA,NA,NA,NA,NA,NA,NA,NA,NA,NA,NA,NA,NA,NA
45cae,Save data screen,canvas.Screen,2_15_0_1,NA,NA,timeout,500.40000000002,394583,394577.94,394586.06,395070.06,395072,2024-05-27T19:58:13Z,395086.46,Kultur,utamaduni,d,shetani,gerezani,mazingira,NA,NA,1,"c(""distractor1"", ""distractor2"", ""distractor3"")",NA,NA,NA,NA,NA,NA,NA,NA,NA,NA,NA,NA,NA,NA,NA,NA,NA,NA,NA
45cae,shallow,flow.Sequence,2_15_0,NA,NA,completion,6255.24,388800,388798.12,388814.82,395070.06,395074,2024-05-27T19:58:13Z,395086.46,Kultur,utamaduni,d,shetani,gerezani,mazingira,NA,NA,NA,"c(""distractor1"", ""distractor2"", ""distractor3"")",NA,NA,NA,NA,NA,NA,NA,NA,NA,NA,NA,NA,NA,NA,NA,NA,NA,NA,NA
45cae,task,flow.Sequence,2_15,NA,NA,completion,6255.24,388800,388798.12,388814.82,395070.06,395074,2024-05-27T19:58:13Z,395086.46,Kultur,utamaduni,d,shetani,gerezani,mazingira,NA,NA,NA,"c(""distractor1"", ""distractor2"", ""distractor3"")",NA,NA,NA,NA,NA,NA,NA,NA,NA,NA,NA,NA,NA,NA,NA,NA,NA,NA,NA
45cae,retrieval block 2 (multiple choice),flow.Loop,2,NA,NA,completion,111208.96,283847,283844.4,283861.1,395070.06,395074,2024-05-27T19:58:13Z,395086.46,NA,NA,NA,NA,NA,NA,NA,NA,NA,"c(""distractor1"", ""distractor2"", ""distractor3"")",NA,NA,NA,NA,NA,NA,NA,NA,NA,NA,NA,NA,NA,NA,NA,NA,NA,NA,NA
45cae,End,canvas.Screen,3,NA,keypress(Space),response,1688.54,395075,395070.06,395086.46,396775,396785,2024-05-27T19:58:15Z,396804.7,NA,NA,NA,NA,NA,NA,NA,NA,NA,NULL,NA,NA,NA,NA,NA,NA,NA,NA,NA,NA,NA,NA,NA,NA,NA,NA,NA,NA,NA
45cae,root,flow.Sequence,NA,NA,NA,completion,395798.38,954,959.94,976.62,396775,396785,2024-05-27T19:58:15Z,396804.7,NA,NA,NA,NA,NA,NA,NA,NA,NA,NULL,NA,NA,NA,NA,NA,NA,NA,NA,NA,NA,NA,NA,NA,NA,NA,NA,NA,NA,NA
