observation,sender,sender_type,sender_id,response,response_action,ended_on,duration,time_run,time_render,time_show,time_end,time_commit,timestamp,time_switch,distractors,german,swahili,enc,distractor1,distractor2,distractor3,response_2,x,correct,x_2,url_vp,url_sess,meta_labjs_version,meta_location,meta_user_agent,meta_platform,meta_language,meta_locale,meta_time_zone,meta_timezone_offset,meta_screen_width,meta_screen_height,meta_scroll_width,meta_scroll_height,meta_window_inner_width,meta_window_inner_height,meta_device_pixel_ratio,meta_labjs_build_flavor,meta_labjs_build_commit
3883f,Introduction general,canvas.Screen,0,weiter,keypress(q),response,25935.94,538,535.4,552.06,26488,26513,2023-07-27T18:12:25Z,26515.3,NULL,NA,NA,NA,NA,NA,NA,NA,NA,NA,NA,174,3,20.2.4,https://neurocog.fernuni.ch/studies/vweber/sliechti/encoding_immediate/index.html?vp=174&sess=3,Mozilla/5.0 (Windows NT 10.0; Win64; x64; rv:109.0) Gecko/20100101 Firefox/115.0,Win32,de,de-CH,Europe/Zurich,-120,1280,720,1280,587,1280,587,1.5,production,f5b4a49f956347addd546a832a3327688c2c0fef
3883f,Introduction practice,canvas.Screen,1_0,NA,keypress(Space),response,6597.7,26515,26514.82,26515.3,33113,33130,2023-07-27T18:12:31Z,33131.04,NULL,NA,NA,NA,NA,NA,NA,NA,NA,NA,NA,NA,NA,NA,NA,NA,NA,NA,NA,NA,NA,NA,NA,NA,NA,NA,NA,NA,NA,NA
3883f,deep,flow.Sequence,1_1_0_0,NA,NA,skipped,NA,33130,NA,NA,33113,33131,2023-07-27T18:12:31Z,33131.04,"c(""distractor1"", ""distractor2"", ""distractor3"")",Rückhalt,msaada,s,muhula,auwali,kiwimbe,NA,NA,NA,NA,NA,NA,NA,NA,NA,NA,NA,NA,NA,NA,NA,NA,NA,NA,NA,NA,NA,NA,NA
3883f,Shallow Question,html.Page,1_1_0_1_0,NA,NA,form submission,7252.96,33131,33130.82,33131.04,40384,40384,2023-07-27T18:12:38Z,40380.32,"c(""distractor1"", ""distractor2"", ""distractor3"")",Rückhalt,msaada,s,muhula,auwali,kiwimbe,kiwimbe,NA,NA,NA,NA,NA,NA,NA,NA,NA,NA,NA,NA,NA,NA,NA,NA,NA,NA,NA,NA,NA,NA
3883f,"""Richtig""-Screen",canvas.Screen,1_1_0_1_1,NA,NA,skipped,NA,40388,NA,NA,40384,40388,2023-07-27T18:12:38Z,40380.32,"c(""distractor1"", ""distractor2"", ""distractor3"")",Rückhalt,msaada,s,muhula,auwali,kiwimbe,NA,NA,NA,NA,NA,NA,NA,NA,NA,NA,NA,NA,NA,NA,NA,NA,NA,NA,NA,NA,NA,NA,NA
3883f,"""Falsch""-Screen",canvas.Screen,1_1_0_1_2,NA,NA,timeout,4999.28,40390,40349.92,40380.32,45362.94,45365,2023-07-27T18:12:43Z,45379.6,"c(""distractor1"", ""distractor2"", ""distractor3"")",Rückhalt,msaada,s,muhula,auwali,kiwimbe,NA,NA,0,NA,NA,NA,NA,NA,NA,NA,NA,NA,NA,NA,NA,NA,NA,NA,NA,NA,NA,NA,NA
3883f,shallow,flow.Sequence,1_1_0_1,NA,NA,completion,12231.9,33131,33130.82,33131.04,45362.94,45366,2023-07-27T18:12:43Z,45379.6,"c(""distractor1"", ""distractor2"", ""distractor3"")",Rückhalt,msaada,s,muhula,auwali,kiwimbe,NA,NA,NA,NA,NA,NA,NA,NA,NA,NA,NA,NA,NA,NA,NA,NA,NA,NA,NA,NA,NA,NA,NA
3883f,task,flow.Sequence,1_1_0,NA,NA,completion,12231.9,33130,33130.82,33131.04,45362.94,45366,2023-07-27T18:12:43Z,45379.6,"c(""distractor1"", ""distractor2"", ""distractor3"")",Rückhalt,msaada,s,muhula,auwali,kiwimbe,NA,NA,NA,NA,NA,NA,NA,NA,NA,NA,NA,NA,NA,NA,NA,NA,NA,NA,NA,NA,NA,NA,NA
3883f,Deep Question,html.Page,1_1_1_0_0,NA,NA,form submission,5699.4,45367,45362.94,45379.6,51079,51080,2023-07-27T18:12:49Z,51078.92,"c(""distractor1"", ""distractor2"", ""distractor3"")",Gesundheit,salama,d,NA,NA,NA,jhl,NA,NA,NA,NA,NA,NA,NA,NA,NA,NA,NA,NA,NA,NA,NA,NA,NA,NA,NA,NA,NA,NA
3883f,"""Richtig""-Screen",canvas.Screen,1_1_1_0_1,NA,NA,skipped,NA,51084,NA,NA,51079,51084,2023-07-27T18:12:49Z,51078.92,"c(""distractor1"", ""distractor2"", ""distractor3"")",Gesundheit,salama,d,NA,NA,NA,NA,NA,NA,NA,NA,NA,NA,NA,NA,NA,NA,NA,NA,NA,NA,NA,NA,NA,NA,NA,NA,NA,NA
3883f,"""Falsch""-Screen",canvas.Screen,1_1_1_0_2,NA,NA,timeout,4999.34,51087,51078.66,51078.92,56061.62,56064,2023-07-27T18:12:54Z,56078.26,"c(""distractor1"", ""distractor2"", ""distractor3"")",Gesundheit,salama,d,NA,NA,NA,NA,NA,0,NA,NA,NA,NA,NA,NA,NA,NA,NA,NA,NA,NA,NA,NA,NA,NA,NA,NA,NA,NA
3883f,deep,flow.Sequence,1_1_1_0,NA,NA,completion,10682.02,45367,45362.94,45379.6,56061.62,56064,2023-07-27T18:12:54Z,56078.26,"c(""distractor1"", ""distractor2"", ""distractor3"")",Gesundheit,salama,d,NA,NA,NA,NA,NA,NA,NA,NA,NA,NA,NA,NA,NA,NA,NA,NA,NA,NA,NA,NA,NA,NA,NA,NA,NA,NA
3883f,shallow,flow.Sequence,1_1_1_1,NA,NA,skipped,NA,56065,NA,NA,56061.62,56066,2023-07-27T18:12:54Z,56078.26,"c(""distractor1"", ""distractor2"", ""distractor3"")",Gesundheit,salama,d,NA,NA,NA,NA,NA,NA,NA,NA,NA,NA,NA,NA,NA,NA,NA,NA,NA,NA,NA,NA,NA,NA,NA,NA,NA,NA
3883f,task,flow.Sequence,1_1_1,NA,NA,completion,10682.02,45367,45362.94,45379.6,56061.62,56067,2023-07-27T18:12:54Z,56078.26,"c(""distractor1"", ""distractor2"", ""distractor3"")",Gesundheit,salama,d,NA,NA,NA,NA,NA,NA,NA,NA,NA,NA,NA,NA,NA,NA,NA,NA,NA,NA,NA,NA,NA,NA,NA,NA,NA,NA
3883f,Deep Question,html.Page,1_1_2_0_0,NA,NA,form submission,5326.74,56067,56061.62,56078.26,61405,61405,2023-07-27T18:12:59Z,61410.86,"c(""distractor1"", ""distractor2"", ""distractor3"")",Schatten,kivuli,d,NA,NA,NA,jkh,NA,NA,NA,NA,NA,NA,NA,NA,NA,NA,NA,NA,NA,NA,NA,NA,NA,NA,NA,NA,NA,NA
3883f,"""Richtig""-Screen",canvas.Screen,1_1_2_0_1,NA,NA,skipped,NA,61408,NA,NA,61405,61408,2023-07-27T18:12:59Z,61410.86,"c(""distractor1"", ""distractor2"", ""distractor3"")",Schatten,kivuli,d,NA,NA,NA,NA,NA,NA,NA,NA,NA,NA,NA,NA,NA,NA,NA,NA,NA,NA,NA,NA,NA,NA,NA,NA,NA,NA
3883f,"""Falsch""-Screen",canvas.Screen,1_1_2_0_2,NA,NA,timeout,4999.46,61411,61403.44,61410.86,66393.66,66395,2023-07-27T18:13:04Z,66410.32,"c(""distractor1"", ""distractor2"", ""distractor3"")",Schatten,kivuli,d,NA,NA,NA,NA,NA,0,NA,NA,NA,NA,NA,NA,NA,NA,NA,NA,NA,NA,NA,NA,NA,NA,NA,NA,NA,NA
3883f,deep,flow.Sequence,1_1_2_0,NA,NA,completion,10315.4,56067,56061.62,56078.26,66393.66,66395,2023-07-27T18:13:04Z,66410.32,"c(""distractor1"", ""distractor2"", ""distractor3"")",Schatten,kivuli,d,NA,NA,NA,NA,NA,NA,NA,NA,NA,NA,NA,NA,NA,NA,NA,NA,NA,NA,NA,NA,NA,NA,NA,NA,NA,NA
3883f,shallow,flow.Sequence,1_1_2_1,NA,NA,skipped,NA,66395,NA,NA,66393.66,66396,2023-07-27T18:13:04Z,66410.32,"c(""distractor1"", ""distractor2"", ""distractor3"")",Schatten,kivuli,d,NA,NA,NA,NA,NA,NA,NA,NA,NA,NA,NA,NA,NA,NA,NA,NA,NA,NA,NA,NA,NA,NA,NA,NA,NA,NA
3883f,task,flow.Sequence,1_1_2,NA,NA,completion,10315.4,56067,56061.62,56078.26,66393.66,66396,2023-07-27T18:13:04Z,66410.32,"c(""distractor1"", ""distractor2"", ""distractor3"")",Schatten,kivuli,d,NA,NA,NA,NA,NA,NA,NA,NA,NA,NA,NA,NA,NA,NA,NA,NA,NA,NA,NA,NA,NA,NA,NA,NA,NA,NA
3883f,deep,flow.Sequence,1_1_3_0,NA,NA,skipped,NA,66396,NA,NA,66393.66,66396,2023-07-27T18:13:04Z,66410.32,"c(""distractor1"", ""distractor2"", ""distractor3"")",Kritik,lawama,s,dereva,nafasi,mawazo,NA,NA,NA,NA,NA,NA,NA,NA,NA,NA,NA,NA,NA,NA,NA,NA,NA,NA,NA,NA,NA,NA,NA
3883f,Shallow Question,html.Page,1_1_3_1_0,NA,NA,form submission,6643.68,66397,66393.66,66410.32,73054,73057,2023-07-27T18:13:11Z,73059.34,"c(""distractor1"", ""distractor2"", ""distractor3"")",Kritik,lawama,s,dereva,nafasi,mawazo,dereva,NA,NA,NA,NA,NA,NA,NA,NA,NA,NA,NA,NA,NA,NA,NA,NA,NA,NA,NA,NA,NA,NA
3883f,"""Richtig""-Screen",canvas.Screen,1_1_3_1_1,NA,NA,skipped,NA,73064,NA,NA,73054,73064,2023-07-27T18:13:11Z,73059.34,"c(""distractor1"", ""distractor2"", ""distractor3"")",Kritik,lawama,s,dereva,nafasi,mawazo,NA,NA,NA,NA,NA,NA,NA,NA,NA,NA,NA,NA,NA,NA,NA,NA,NA,NA,NA,NA,NA,NA,NA
3883f,"""Falsch""-Screen",canvas.Screen,1_1_3_1_2,NA,NA,timeout,4999.38,73067,73050.8,73059.34,78042.14,78044,2023-07-27T18:13:16Z,78058.72,"c(""distractor1"", ""distractor2"", ""distractor3"")",Kritik,lawama,s,dereva,nafasi,mawazo,NA,NA,0,NA,NA,NA,NA,NA,NA,NA,NA,NA,NA,NA,NA,NA,NA,NA,NA,NA,NA,NA,NA
3883f,shallow,flow.Sequence,1_1_3_1,NA,NA,completion,11631.82,66396,66393.66,66410.32,78042.14,78044,2023-07-27T18:13:16Z,78058.72,"c(""distractor1"", ""distractor2"", ""distractor3"")",Kritik,lawama,s,dereva,nafasi,mawazo,NA,NA,NA,NA,NA,NA,NA,NA,NA,NA,NA,NA,NA,NA,NA,NA,NA,NA,NA,NA,NA,NA,NA
3883f,task,flow.Sequence,1_1_3,NA,NA,completion,11631.82,66396,66393.66,66410.32,78042.14,78045,2023-07-27T18:13:16Z,78058.72,"c(""distractor1"", ""distractor2"", ""distractor3"")",Kritik,lawama,s,dereva,nafasi,mawazo,NA,NA,NA,NA,NA,NA,NA,NA,NA,NA,NA,NA,NA,NA,NA,NA,NA,NA,NA,NA,NA,NA,NA
3883f,Deep Question,html.Page,1_1_4_0_0,NA,NA,form submission,2867.28,78047,78042.14,78058.72,80926,80926,2023-07-27T18:13:19Z,80924.94,"c(""distractor1"", ""distractor2"", ""distractor3"")",Qualität,mtindo,d,NA,NA,NA,kj,NA,NA,NA,NA,NA,NA,NA,NA,NA,NA,NA,NA,NA,NA,NA,NA,NA,NA,NA,NA,NA,NA
3883f,"""Richtig""-Screen",canvas.Screen,1_1_4_0_1,NA,NA,skipped,NA,80929,NA,NA,80926,80929,2023-07-27T18:13:19Z,80924.94,"c(""distractor1"", ""distractor2"", ""distractor3"")",Qualität,mtindo,d,NA,NA,NA,NA,NA,NA,NA,NA,NA,NA,NA,NA,NA,NA,NA,NA,NA,NA,NA,NA,NA,NA,NA,NA,NA,NA
3883f,"""Falsch""-Screen",canvas.Screen,1_1_4_0_2,NA,NA,timeout,4999.5,80933,80924.1,80924.94,85907.76,85910,2023-07-27T18:13:24Z,85924.44,"c(""distractor1"", ""distractor2"", ""distractor3"")",Qualität,mtindo,d,NA,NA,NA,NA,NA,0,NA,NA,NA,NA,NA,NA,NA,NA,NA,NA,NA,NA,NA,NA,NA,NA,NA,NA,NA,NA
3883f,deep,flow.Sequence,1_1_4_0,NA,NA,completion,7849.04,78046,78042.14,78058.72,85907.76,85911,2023-07-27T18:13:24Z,85924.44,"c(""distractor1"", ""distractor2"", ""distractor3"")",Qualität,mtindo,d,NA,NA,NA,NA,NA,NA,NA,NA,NA,NA,NA,NA,NA,NA,NA,NA,NA,NA,NA,NA,NA,NA,NA,NA,NA,NA
3883f,shallow,flow.Sequence,1_1_4_1,NA,NA,skipped,NA,85911,NA,NA,85907.76,85912,2023-07-27T18:13:24Z,85924.44,"c(""distractor1"", ""distractor2"", ""distractor3"")",Qualität,mtindo,d,NA,NA,NA,NA,NA,NA,NA,NA,NA,NA,NA,NA,NA,NA,NA,NA,NA,NA,NA,NA,NA,NA,NA,NA,NA,NA
3883f,task,flow.Sequence,1_1_4,NA,NA,completion,7849.04,78046,78042.14,78058.72,85907.76,85913,2023-07-27T18:13:24Z,85924.44,"c(""distractor1"", ""distractor2"", ""distractor3"")",Qualität,mtindo,d,NA,NA,NA,NA,NA,NA,NA,NA,NA,NA,NA,NA,NA,NA,NA,NA,NA,NA,NA,NA,NA,NA,NA,NA,NA,NA
3883f,deep,flow.Sequence,1_1_5_0,NA,NA,skipped,NA,85914,NA,NA,85907.76,85914,2023-07-27T18:13:24Z,85924.44,"c(""distractor1"", ""distractor2"", ""distractor3"")",Gegenwart,hadhara,s,katiba,jokofu,mikopo,NA,NA,NA,NA,NA,NA,NA,NA,NA,NA,NA,NA,NA,NA,NA,NA,NA,NA,NA,NA,NA,NA,NA
3883f,Shallow Question,html.Page,1_1_5_1_0,NA,NA,form submission,8444.56,85914,85907.76,85924.44,94369,94369,2023-07-27T18:13:32Z,94373.32,"c(""distractor1"", ""distractor2"", ""distractor3"")",Gegenwart,hadhara,s,katiba,jokofu,mikopo,mikopo,NA,NA,NA,NA,NA,NA,NA,NA,NA,NA,NA,NA,NA,NA,NA,NA,NA,NA,NA,NA,NA,NA
3883f,"""Richtig""-Screen",canvas.Screen,1_1_5_1_1,NA,NA,skipped,NA,94372,NA,NA,94369,94373,2023-07-27T18:13:32Z,94373.32,"c(""distractor1"", ""distractor2"", ""distractor3"")",Gegenwart,hadhara,s,katiba,jokofu,mikopo,NA,NA,NA,NA,NA,NA,NA,NA,NA,NA,NA,NA,NA,NA,NA,NA,NA,NA,NA,NA,NA,NA,NA
3883f,"""Falsch""-Screen",canvas.Screen,1_1_5_1_2,NA,NA,timeout,4999.36,94376,94367.78,94373.32,99356,99358,2023-07-27T18:13:37Z,99372.68,"c(""distractor1"", ""distractor2"", ""distractor3"")",Gegenwart,hadhara,s,katiba,jokofu,mikopo,NA,NA,0,NA,NA,NA,NA,NA,NA,NA,NA,NA,NA,NA,NA,NA,NA,NA,NA,NA,NA,NA,NA
3883f,shallow,flow.Sequence,1_1_5_1,NA,NA,completion,13431.56,85914,85907.76,85924.44,99356,99358,2023-07-27T18:13:37Z,99372.68,"c(""distractor1"", ""distractor2"", ""distractor3"")",Gegenwart,hadhara,s,katiba,jokofu,mikopo,NA,NA,NA,NA,NA,NA,NA,NA,NA,NA,NA,NA,NA,NA,NA,NA,NA,NA,NA,NA,NA,NA,NA
3883f,task,flow.Sequence,1_1_5,NA,NA,completion,13431.56,85913,85907.76,85924.44,99356,99359,2023-07-27T18:13:37Z,99372.68,"c(""distractor1"", ""distractor2"", ""distractor3"")",Gegenwart,hadhara,s,katiba,jokofu,mikopo,NA,NA,NA,NA,NA,NA,NA,NA,NA,NA,NA,NA,NA,NA,NA,NA,NA,NA,NA,NA,NA,NA,NA
3883f,block,flow.Loop,1_1,NA,NA,completion,66224.96,33130,33130.82,33131.04,99356,99360,2023-07-27T18:13:37Z,99372.68,"c(""distractor1"", ""distractor2"", ""distractor3"")",NA,NA,NA,NA,NA,NA,NA,NA,NA,NA,NA,NA,NA,NA,NA,NA,NA,NA,NA,NA,NA,NA,NA,NA,NA,NA,NA,NA,NA
3883f,Practice,flow.Sequence,1,NA,NA,completion,72840.7,26515,26514.82,26515.3,99356,99361,2023-07-27T18:13:37Z,99372.68,NULL,NA,NA,NA,NA,NA,NA,NA,NA,NA,NA,NA,NA,NA,NA,NA,NA,NA,NA,NA,NA,NA,NA,NA,NA,NA,NA,NA,NA,NA
3883f,Experiment start,canvas.Screen,2,weiter,keypress(q),response,9303.32,99362,99356,99372.68,108676,108693,2023-07-27T18:13:47Z,108793.88,NULL,NA,NA,NA,NA,NA,NA,NA,NA,NA,NA,NA,NA,NA,NA,NA,NA,NA,NA,NA,NA,NA,NA,NA,NA,NA,NA,NA,NA,NA
3883f,Deep Question,html.Page,3_0_0_0_0_0_0,NA,NA,form submission,6663.12,108794,108793.52,108793.88,115457,115457,2023-07-27T18:13:54Z,115470.46,NULL,Toleranz,kuvumiliana,d,NA,NA,NA,kj,NA,NA,0,NA,NA,NA,NA,NA,NA,NA,NA,NA,NA,NA,NA,NA,NA,NA,NA,NA,NA,NA
3883f,"""Richtig""-Screen",canvas.Screen,3_0_0_0_0_0_1,NA,NA,skipped,NA,115460,NA,NA,115457,115461,2023-07-27T18:13:54Z,115470.46,NULL,Toleranz,kuvumiliana,d,NA,NA,NA,NA,sdf,NA,0,NA,NA,NA,NA,NA,NA,NA,NA,NA,NA,NA,NA,NA,NA,NA,NA,NA,NA,NA
3883f,"""Falsch""-Screen",canvas.Screen,3_0_0_0_0_0_2,NA,NA,timeout,4999.38,115463,115456.08,115470.46,120453.28,120455,2023-07-27T18:13:59Z,120469.84,NULL,Toleranz,kuvumiliana,d,NA,NA,NA,NA,sdf,0,0,NA,NA,NA,NA,NA,NA,NA,NA,NA,NA,NA,NA,NA,NA,NA,NA,NA,NA,NA
3883f,deep,flow.Sequence,3_0_0_0_0_0,NA,NA,completion,11659.4,108794,108793.52,108793.88,120453.28,120455,2023-07-27T18:13:59Z,120469.84,NULL,Toleranz,kuvumiliana,d,NA,NA,NA,NA,sdf,NA,0,NA,NA,NA,NA,NA,NA,NA,NA,NA,NA,NA,NA,NA,NA,NA,NA,NA,NA,NA
3883f,shallow,flow.Sequence,3_0_0_0_0_1,NA,NA,skipped,NA,120455,NA,NA,120453.28,120455,2023-07-27T18:13:59Z,120469.84,NULL,Toleranz,kuvumiliana,d,NA,NA,NA,NA,sdf,NA,0,NA,NA,NA,NA,NA,NA,NA,NA,NA,NA,NA,NA,NA,NA,NA,NA,NA,NA,NA
3883f,task,flow.Sequence,3_0_0_0_0,NA,NA,completion,11659.4,108794,108793.52,108793.88,120453.28,120456,2023-07-27T18:13:59Z,120469.84,NULL,Toleranz,kuvumiliana,d,NA,NA,NA,NA,sdf,NA,0,NA,NA,NA,NA,NA,NA,NA,NA,NA,NA,NA,NA,NA,NA,NA,NA,NA,NA,NA
3883f,Deep Question,html.Page,3_0_0_0_1_0_0,NA,NA,form submission,11717.16,120456,120453.28,120469.84,132187,132187,2023-07-27T18:14:10Z,132186.18,NULL,Schlange,foleni,d,NA,NA,NA,kj,NA,NA,0,NA,NA,NA,NA,NA,NA,NA,NA,NA,NA,NA,NA,NA,NA,NA,NA,NA,NA,NA
3883f,"""Richtig""-Screen",canvas.Screen,3_0_0_0_1_0_1,NA,NA,skipped,NA,132190,NA,NA,132187,132190,2023-07-27T18:14:10Z,132186.18,NULL,Schlange,foleni,d,NA,NA,NA,NA,sdf,NA,0,NA,NA,NA,NA,NA,NA,NA,NA,NA,NA,NA,NA,NA,NA,NA,NA,NA,NA,NA
3883f,"""Falsch""-Screen",canvas.Screen,3_0_0_0_1_0_2,NA,NA,timeout,4998.22,132193,132185.84,132186.18,137167.76,137170,2023-07-27T18:14:15Z,137184.4,NULL,Schlange,foleni,d,NA,NA,NA,NA,sdf,0,0,NA,NA,NA,NA,NA,NA,NA,NA,NA,NA,NA,NA,NA,NA,NA,NA,NA,NA,NA
3883f,deep,flow.Sequence,3_0_0_0_1_0,NA,NA,completion,16697.92,120456,120453.28,120469.84,137167.76,137170,2023-07-27T18:14:15Z,137184.4,NULL,Schlange,foleni,d,NA,NA,NA,NA,sdf,NA,0,NA,NA,NA,NA,NA,NA,NA,NA,NA,NA,NA,NA,NA,NA,NA,NA,NA,NA,NA
3883f,shallow,flow.Sequence,3_0_0_0_1_1,NA,NA,skipped,NA,137171,NA,NA,137167.76,137171,2023-07-27T18:14:15Z,137184.4,NULL,Schlange,foleni,d,NA,NA,NA,NA,sdf,NA,0,NA,NA,NA,NA,NA,NA,NA,NA,NA,NA,NA,NA,NA,NA,NA,NA,NA,NA,NA
3883f,task,flow.Sequence,3_0_0_0_1,NA,NA,completion,16697.92,120456,120453.28,120469.84,137167.76,137171,2023-07-27T18:14:15Z,137184.4,NULL,Schlange,foleni,d,NA,NA,NA,NA,sdf,NA,0,NA,NA,NA,NA,NA,NA,NA,NA,NA,NA,NA,NA,NA,NA,NA,NA,NA,NA,NA
3883f,deep,flow.Sequence,3_0_0_0_2_0,NA,NA,skipped,NA,137171,NA,NA,137167.76,137172,2023-07-27T18:14:15Z,137184.4,NULL,Inhalt,yaliyomo,s,kishawishi,hifadhi,kutembea,NA,sdf,NA,0,NA,NA,NA,NA,NA,NA,NA,NA,NA,NA,NA,NA,NA,NA,NA,NA,NA,NA,NA
3883f,Shallow Question,html.Page,3_0_0_0_2_1_0,NA,NA,form submission,8237.6,137172,137167.76,137184.4,145422,145423,2023-07-27T18:14:24Z,145433.3,NULL,Inhalt,yaliyomo,s,kishawishi,hifadhi,kutembea,kishawishi,NA,NA,0,NA,NA,NA,NA,NA,NA,NA,NA,NA,NA,NA,NA,NA,NA,NA,NA,NA,NA,NA
3883f,"""Richtig""-Screen",canvas.Screen,3_0_0_0_2_1_1,NA,NA,skipped,NA,145427,NA,NA,145422,145428,2023-07-27T18:14:24Z,145433.3,NULL,Inhalt,yaliyomo,s,kishawishi,hifadhi,kutembea,NA,sdf,NA,0,NA,NA,NA,NA,NA,NA,NA,NA,NA,NA,NA,NA,NA,NA,NA,NA,NA,NA,NA
3883f,"""Falsch""-Screen",canvas.Screen,3_0_0_0_2_1_2,NA,NA,timeout,4999.38,145433,145415.1,145433.3,150416,150417,2023-07-27T18:14:29Z,150432.68,NULL,Inhalt,yaliyomo,s,kishawishi,hifadhi,kutembea,NA,sdf,0,0,NA,NA,NA,NA,NA,NA,NA,NA,NA,NA,NA,NA,NA,NA,NA,NA,NA,NA,NA
3883f,shallow,flow.Sequence,3_0_0_0_2_1,NA,NA,completion,13231.6,137172,137167.76,137184.4,150416,150417,2023-07-27T18:14:29Z,150432.68,NULL,Inhalt,yaliyomo,s,kishawishi,hifadhi,kutembea,NA,sdf,NA,0,NA,NA,NA,NA,NA,NA,NA,NA,NA,NA,NA,NA,NA,NA,NA,NA,NA,NA,NA
3883f,task,flow.Sequence,3_0_0_0_2,NA,NA,completion,13231.6,137171,137167.76,137184.4,150416,150417,2023-07-27T18:14:29Z,150432.68,NULL,Inhalt,yaliyomo,s,kishawishi,hifadhi,kutembea,NA,sdf,NA,0,NA,NA,NA,NA,NA,NA,NA,NA,NA,NA,NA,NA,NA,NA,NA,NA,NA,NA,NA
3883f,deep,flow.Sequence,3_0_0_0_3_0,NA,NA,skipped,NA,150419,NA,NA,150416,150419,2023-07-27T18:14:29Z,150432.68,NULL,Polizist,msongora,s,simanzi,mandhari,nidhamu,NA,sdf,NA,0,NA,NA,NA,NA,NA,NA,NA,NA,NA,NA,NA,NA,NA,NA,NA,NA,NA,NA,NA
3883f,Shallow Question,html.Page,3_0_0_0_3_1_0,NA,NA,form submission,12994.32,150419,150416,150432.68,163427,163428,2023-07-27T18:14:42Z,163430.92,NULL,Polizist,msongora,s,simanzi,mandhari,nidhamu,mandhari,NA,NA,0,NA,NA,NA,NA,NA,NA,NA,NA,NA,NA,NA,NA,NA,NA,NA,NA,NA,NA,NA
3883f,"""Richtig""-Screen",canvas.Screen,3_0_0_0_3_1_1,NA,NA,skipped,NA,163432,NA,NA,163427,163432,2023-07-27T18:14:42Z,163430.92,NULL,Polizist,msongora,s,simanzi,mandhari,nidhamu,NA,sdf,NA,0,NA,NA,NA,NA,NA,NA,NA,NA,NA,NA,NA,NA,NA,NA,NA,NA,NA,NA,NA
3883f,"""Falsch""-Screen",canvas.Screen,3_0_0_0_3_1_2,NA,NA,timeout,4999.4,163436,163423.6,163430.92,168413.66,168415,2023-07-27T18:14:47Z,168430.32,NULL,Polizist,msongora,s,simanzi,mandhari,nidhamu,NA,sdf,0,0,NA,NA,NA,NA,NA,NA,NA,NA,NA,NA,NA,NA,NA,NA,NA,NA,NA,NA,NA
3883f,shallow,flow.Sequence,3_0_0_0_3_1,NA,NA,completion,17980.98,150419,150416,150432.68,168413.66,168415,2023-07-27T18:14:47Z,168430.32,NULL,Polizist,msongora,s,simanzi,mandhari,nidhamu,NA,sdf,NA,0,NA,NA,NA,NA,NA,NA,NA,NA,NA,NA,NA,NA,NA,NA,NA,NA,NA,NA,NA
3883f,task,flow.Sequence,3_0_0_0_3,NA,NA,completion,17980.98,150418,150416,150432.68,168413.66,168415,2023-07-27T18:14:47Z,168430.32,NULL,Polizist,msongora,s,simanzi,mandhari,nidhamu,NA,sdf,NA,0,NA,NA,NA,NA,NA,NA,NA,NA,NA,NA,NA,NA,NA,NA,NA,NA,NA,NA,NA
3883f,deep,flow.Sequence,3_0_0_0_4_0,NA,NA,skipped,NA,168415,NA,NA,168413.66,168416,2023-07-27T18:14:47Z,168430.32,NULL,Beweis,ushahidi,s,marudio,kizuizi,mtendaji,NA,sdf,NA,0,NA,NA,NA,NA,NA,NA,NA,NA,NA,NA,NA,NA,NA,NA,NA,NA,NA,NA,NA
3883f,Shallow Question,html.Page,3_0_0_0_4_1_0,NA,NA,form submission,7663.68,168417,168413.66,168430.32,176094,176094,2023-07-27T18:14:54Z,176095.92,NULL,Beweis,ushahidi,s,marudio,kizuizi,mtendaji,kizuizi,NA,NA,0,NA,NA,NA,NA,NA,NA,NA,NA,NA,NA,NA,NA,NA,NA,NA,NA,NA,NA,NA
3883f,"""Richtig""-Screen",canvas.Screen,3_0_0_0_4_1_1,NA,NA,skipped,NA,176097,NA,NA,176094,176097,2023-07-27T18:14:54Z,176095.92,NULL,Beweis,ushahidi,s,marudio,kizuizi,mtendaji,NA,sdf,NA,0,NA,NA,NA,NA,NA,NA,NA,NA,NA,NA,NA,NA,NA,NA,NA,NA,NA,NA,NA
3883f,"""Falsch""-Screen",canvas.Screen,3_0_0_0_4_1_2,NA,NA,timeout,4999.46,176100,176090.04,176095.92,181078.72,181087,2023-07-27T18:14:59Z,181095.38,NULL,Beweis,ushahidi,s,marudio,kizuizi,mtendaji,NA,sdf,0,0,NA,NA,NA,NA,NA,NA,NA,NA,NA,NA,NA,NA,NA,NA,NA,NA,NA,NA,NA
3883f,shallow,flow.Sequence,3_0_0_0_4_1,NA,NA,completion,12648.4,168417,168413.66,168430.32,181078.72,181092,2023-07-27T18:14:59Z,181095.38,NULL,Beweis,ushahidi,s,marudio,kizuizi,mtendaji,NA,sdf,NA,0,NA,NA,NA,NA,NA,NA,NA,NA,NA,NA,NA,NA,NA,NA,NA,NA,NA,NA,NA
3883f,task,flow.Sequence,3_0_0_0_4,NA,NA,completion,12648.4,168415,168413.66,168430.32,181078.72,181092,2023-07-27T18:14:59Z,181095.38,NULL,Beweis,ushahidi,s,marudio,kizuizi,mtendaji,NA,sdf,NA,0,NA,NA,NA,NA,NA,NA,NA,NA,NA,NA,NA,NA,NA,NA,NA,NA,NA,NA,NA
3883f,deep,flow.Sequence,3_0_0_0_5_0,NA,NA,skipped,NA,181093,NA,NA,181078.72,181093,2023-07-27T18:14:59Z,181095.38,NULL,Vermutung,udhanifu,s,haramia,tikisho,itifaki,NA,sdf,NA,0,NA,NA,NA,NA,NA,NA,NA,NA,NA,NA,NA,NA,NA,NA,NA,NA,NA,NA,NA
3883f,Shallow Question,html.Page,3_0_0_0_5_1_0,NA,NA,form submission,9573.62,181094,181078.72,181095.38,190669,190669,2023-07-27T18:15:09Z,190677.38,NULL,Vermutung,udhanifu,s,haramia,tikisho,itifaki,itifaki,NA,NA,0,NA,NA,NA,NA,NA,NA,NA,NA,NA,NA,NA,NA,NA,NA,NA,NA,NA,NA,NA
3883f,"""Richtig""-Screen",canvas.Screen,3_0_0_0_5_1_1,NA,NA,skipped,NA,190672,NA,NA,190669,190672,2023-07-27T18:15:09Z,190677.38,NULL,Vermutung,udhanifu,s,haramia,tikisho,itifaki,NA,sdf,NA,0,NA,NA,NA,NA,NA,NA,NA,NA,NA,NA,NA,NA,NA,NA,NA,NA,NA,NA,NA
3883f,"""Falsch""-Screen",canvas.Screen,3_0_0_0_5_1_2,NA,NA,timeout,4999.38,190674,190666.26,190677.38,195660.16,195662,2023-07-27T18:15:14Z,195676.76,NULL,Vermutung,udhanifu,s,haramia,tikisho,itifaki,NA,sdf,0,0,NA,NA,NA,NA,NA,NA,NA,NA,NA,NA,NA,NA,NA,NA,NA,NA,NA,NA,NA
3883f,shallow,flow.Sequence,3_0_0_0_5_1,NA,NA,completion,14564.78,181094,181078.72,181095.38,195660.16,195662,2023-07-27T18:15:14Z,195676.76,NULL,Vermutung,udhanifu,s,haramia,tikisho,itifaki,NA,sdf,NA,0,NA,NA,NA,NA,NA,NA,NA,NA,NA,NA,NA,NA,NA,NA,NA,NA,NA,NA,NA
3883f,task,flow.Sequence,3_0_0_0_5,NA,NA,completion,14564.78,181093,181078.72,181095.38,195660.16,195663,2023-07-27T18:15:14Z,195676.76,NULL,Vermutung,udhanifu,s,haramia,tikisho,itifaki,NA,sdf,NA,0,NA,NA,NA,NA,NA,NA,NA,NA,NA,NA,NA,NA,NA,NA,NA,NA,NA,NA,NA
3883f,Deep Question,html.Page,3_0_0_0_6_0_0,NA,NA,form submission,4623.24,195664,195660.16,195676.76,200300,200300,2023-07-27T18:15:18Z,200326.1,NULL,Sympathie,mapendano,d,NA,NA,NA,kl,NA,NA,0,NA,NA,NA,NA,NA,NA,NA,NA,NA,NA,NA,NA,NA,NA,NA,NA,NA,NA,NA
3883f,"""Richtig""-Screen",canvas.Screen,3_0_0_0_6_0_1,NA,NA,skipped,NA,200303,NA,NA,200300,200304,2023-07-27T18:15:18Z,200326.1,NULL,Sympathie,mapendano,d,NA,NA,NA,NA,sdf,NA,0,NA,NA,NA,NA,NA,NA,NA,NA,NA,NA,NA,NA,NA,NA,NA,NA,NA,NA,NA
3883f,"""Falsch""-Screen",canvas.Screen,3_0_0_0_6_0_2,NA,NA,timeout,4999.44,200306,200309.42,200326.1,205308.88,205311,2023-07-27T18:15:23Z,205325.54,NULL,Sympathie,mapendano,d,NA,NA,NA,NA,sdf,0,0,NA,NA,NA,NA,NA,NA,NA,NA,NA,NA,NA,NA,NA,NA,NA,NA,NA,NA,NA
3883f,deep,flow.Sequence,3_0_0_0_6_0,NA,NA,completion,9632.12,195664,195660.16,195676.76,205308.88,205311,2023-07-27T18:15:23Z,205325.54,NULL,Sympathie,mapendano,d,NA,NA,NA,NA,sdf,NA,0,NA,NA,NA,NA,NA,NA,NA,NA,NA,NA,NA,NA,NA,NA,NA,NA,NA,NA,NA
3883f,shallow,flow.Sequence,3_0_0_0_6_1,NA,NA,skipped,NA,205311,NA,NA,205308.88,205311,2023-07-27T18:15:23Z,205325.54,NULL,Sympathie,mapendano,d,NA,NA,NA,NA,sdf,NA,0,NA,NA,NA,NA,NA,NA,NA,NA,NA,NA,NA,NA,NA,NA,NA,NA,NA,NA,NA
3883f,task,flow.Sequence,3_0_0_0_6,NA,NA,completion,9632.12,195664,195660.16,195676.76,205308.88,205313,2023-07-27T18:15:23Z,205325.54,NULL,Sympathie,mapendano,d,NA,NA,NA,NA,sdf,NA,0,NA,NA,NA,NA,NA,NA,NA,NA,NA,NA,NA,NA,NA,NA,NA,NA,NA,NA,NA
3883f,Deep Question,html.Page,3_0_0_0_7_0_0,NA,NA,form submission,4430.46,205313,205308.88,205325.54,209756,209756,2023-07-27T18:15:28Z,209758.28,NULL,Annäherung,maegesho,d,NA,NA,NA,jk,NA,NA,0,NA,NA,NA,NA,NA,NA,NA,NA,NA,NA,NA,NA,NA,NA,NA,NA,NA,NA,NA
3883f,"""Richtig""-Screen",canvas.Screen,3_0_0_0_7_0_1,NA,NA,skipped,NA,209759,NA,NA,209756,209759,2023-07-27T18:15:28Z,209758.28,NULL,Annäherung,maegesho,d,NA,NA,NA,NA,sdf,NA,0,NA,NA,NA,NA,NA,NA,NA,NA,NA,NA,NA,NA,NA,NA,NA,NA,NA,NA,NA
3883f,"""Falsch""-Screen",canvas.Screen,3_0_0_0_7_0_2,NA,NA,timeout,4999.42,209762,209754.78,209758.28,214741.04,214742,2023-07-27T18:15:33Z,214757.7,NULL,Annäherung,maegesho,d,NA,NA,NA,NA,sdf,0,0,NA,NA,NA,NA,NA,NA,NA,NA,NA,NA,NA,NA,NA,NA,NA,NA,NA,NA,NA
3883f,deep,flow.Sequence,3_0_0_0_7_0,NA,NA,completion,9415.5,205313,205308.88,205325.54,214741.04,214743,2023-07-27T18:15:33Z,214757.7,NULL,Annäherung,maegesho,d,NA,NA,NA,NA,sdf,NA,0,NA,NA,NA,NA,NA,NA,NA,NA,NA,NA,NA,NA,NA,NA,NA,NA,NA,NA,NA
3883f,shallow,flow.Sequence,3_0_0_0_7_1,NA,NA,skipped,NA,214744,NA,NA,214741.04,214744,2023-07-27T18:15:33Z,214757.7,NULL,Annäherung,maegesho,d,NA,NA,NA,NA,sdf,NA,0,NA,NA,NA,NA,NA,NA,NA,NA,NA,NA,NA,NA,NA,NA,NA,NA,NA,NA,NA
3883f,task,flow.Sequence,3_0_0_0_7,NA,NA,completion,9415.5,205313,205308.88,205325.54,214741.04,214744,2023-07-27T18:15:33Z,214757.7,NULL,Annäherung,maegesho,d,NA,NA,NA,NA,sdf,NA,0,NA,NA,NA,NA,NA,NA,NA,NA,NA,NA,NA,NA,NA,NA,NA,NA,NA,NA,NA
3883f,block,flow.Loop,3_0_0_0,NA,NA,completion,105947.16,108794,108793.52,108793.88,214741.04,214745,2023-07-27T18:15:33Z,214757.7,NULL,NA,NA,NA,NA,NA,NA,NA,sdf,NA,0,NA,NA,NA,NA,NA,NA,NA,NA,NA,NA,NA,NA,NA,NA,NA,NA,NA,NA,NA
3883f,weiter,canvas.Screen,3_0_0_1,sdf,keypress(Space),response,1590.3,214745,214741.04,214757.7,216348,216354,2023-07-27T18:15:34Z,216410.4,NULL,NA,NA,NA,NA,NA,NA,NA,sdf,NA,0,NA,NA,NA,NA,NA,NA,NA,NA,NA,NA,NA,NA,NA,NA,NA,NA,NA,NA,NA
3883f,check continue,flow.Sequence,3_0_0,NA,NA,completion,107554.12,108794,108793.52,108793.88,216348,216355,2023-07-27T18:15:34Z,216410.4,NULL,NA,NA,NA,NA,NA,NA,NA,sdf,NA,0,NA,NA,NA,NA,NA,NA,NA,NA,NA,NA,NA,NA,NA,NA,NA,NA,NA,NA,NA
3883f,deep,flow.Sequence,3_0_1_0_0_0,NA,NA,skipped,NA,216410,NA,NA,216348,216410,2023-07-27T18:15:34Z,216410.4,NULL,Vermutung,udhanifu,s,haramia,tikisho,itifaki,NA,sdfdsf,NA,1,NA,NA,NA,NA,NA,NA,NA,NA,NA,NA,NA,NA,NA,NA,NA,NA,NA,NA,NA
3883f,Shallow Question,html.Page,3_0_1_0_0_1_0,NA,NA,form submission,5236.6,216410,216410.02,216410.4,221647,221647,2023-07-27T18:15:40Z,221656.72,NULL,Vermutung,udhanifu,s,haramia,tikisho,itifaki,udhanifu,NA,NA,1,NA,NA,NA,NA,NA,NA,NA,NA,NA,NA,NA,NA,NA,NA,NA,NA,NA,NA,NA
3883f,"""Richtig""-Screen",canvas.Screen,3_0_1_0_0_1_1,NA,NA,timeout,4999.36,221649,221645.36,221656.72,226639.4,226641,2023-07-27T18:15:45Z,226656.08,NULL,Vermutung,udhanifu,s,haramia,tikisho,itifaki,NA,sdfdsf,1,1,NA,NA,NA,NA,NA,NA,NA,NA,NA,NA,NA,NA,NA,NA,NA,NA,NA,NA,NA
3883f,"""Falsch""-Screen",canvas.Screen,3_0_1_0_0_1_2,NA,NA,skipped,NA,226646,NA,NA,226639.4,226647,2023-07-27T18:15:45Z,226656.08,NULL,Vermutung,udhanifu,s,haramia,tikisho,itifaki,NA,sdfdsf,NA,1,NA,NA,NA,NA,NA,NA,NA,NA,NA,NA,NA,NA,NA,NA,NA,NA,NA,NA,NA
3883f,shallow,flow.Sequence,3_0_1_0_0_1,NA,NA,completion,10229,216410,216410.02,216410.4,226639.4,226647,2023-07-27T18:15:45Z,226656.08,NULL,Vermutung,udhanifu,s,haramia,tikisho,itifaki,NA,sdfdsf,NA,1,NA,NA,NA,NA,NA,NA,NA,NA,NA,NA,NA,NA,NA,NA,NA,NA,NA,NA,NA
3883f,task,flow.Sequence,3_0_1_0_0,NA,NA,completion,10229,216410,216410.02,216410.4,226639.4,226648,2023-07-27T18:15:45Z,226656.08,NULL,Vermutung,udhanifu,s,haramia,tikisho,itifaki,NA,sdfdsf,NA,1,NA,NA,NA,NA,NA,NA,NA,NA,NA,NA,NA,NA,NA,NA,NA,NA,NA,NA,NA
3883f,deep,flow.Sequence,3_0_1_0_1_0,NA,NA,skipped,NA,226648,NA,NA,226639.4,226648,2023-07-27T18:15:45Z,226656.08,NULL,Inhalt,yaliyomo,s,kishawishi,hifadhi,kutembea,NA,sdfdsf,NA,1,NA,NA,NA,NA,NA,NA,NA,NA,NA,NA,NA,NA,NA,NA,NA,NA,NA,NA,NA
3883f,Shallow Question,html.Page,3_0_1_0_1_1_0,NA,NA,form submission,7860.92,226649,226639.4,226656.08,234517,234517,2023-07-27T18:15:53Z,234521.64,NULL,Inhalt,yaliyomo,s,kishawishi,hifadhi,kutembea,yaliyomo,NA,NA,1,NA,NA,NA,NA,NA,NA,NA,NA,NA,NA,NA,NA,NA,NA,NA,NA,NA,NA,NA
3883f,"""Richtig""-Screen",canvas.Screen,3_0_1_0_1_1_1,NA,NA,timeout,4999.42,234523,234511.9,234521.64,239504.44,239509,2023-07-27T18:15:58Z,239521.06,NULL,Inhalt,yaliyomo,s,kishawishi,hifadhi,kutembea,NA,sdfdsf,1,1,NA,NA,NA,NA,NA,NA,NA,NA,NA,NA,NA,NA,NA,NA,NA,NA,NA,NA,NA
3883f,"""Falsch""-Screen",canvas.Screen,3_0_1_0_1_1_2,NA,NA,skipped,NA,239526,NA,NA,239504.44,239527,2023-07-27T18:15:58Z,239521.06,NULL,Inhalt,yaliyomo,s,kishawishi,hifadhi,kutembea,NA,sdfdsf,NA,1,NA,NA,NA,NA,NA,NA,NA,NA,NA,NA,NA,NA,NA,NA,NA,NA,NA,NA,NA
3883f,shallow,flow.Sequence,3_0_1_0_1_1,NA,NA,completion,12848.36,226648,226639.4,226656.08,239504.44,239527,2023-07-27T18:15:58Z,239521.06,NULL,Inhalt,yaliyomo,s,kishawishi,hifadhi,kutembea,NA,sdfdsf,NA,1,NA,NA,NA,NA,NA,NA,NA,NA,NA,NA,NA,NA,NA,NA,NA,NA,NA,NA,NA
3883f,task,flow.Sequence,3_0_1_0_1,NA,NA,completion,12848.36,226648,226639.4,226656.08,239504.44,239527,2023-07-27T18:15:58Z,239521.06,NULL,Inhalt,yaliyomo,s,kishawishi,hifadhi,kutembea,NA,sdfdsf,NA,1,NA,NA,NA,NA,NA,NA,NA,NA,NA,NA,NA,NA,NA,NA,NA,NA,NA,NA,NA
3883f,deep,flow.Sequence,3_0_1_0_2_0,NA,NA,skipped,NA,239528,NA,NA,239504.44,239528,2023-07-27T18:15:58Z,239521.06,NULL,Beweis,ushahidi,s,marudio,kizuizi,mtendaji,NA,sdfdsf,NA,1,NA,NA,NA,NA,NA,NA,NA,NA,NA,NA,NA,NA,NA,NA,NA,NA,NA,NA,NA
3883f,Shallow Question,html.Page,3_0_1_0_2_1_0,NA,NA,form submission,6707.94,239528,239504.44,239521.06,246229,246231,2023-07-27T18:16:04Z,246236.82,NULL,Beweis,ushahidi,s,marudio,kizuizi,mtendaji,ushahidi,NA,NA,1,NA,NA,NA,NA,NA,NA,NA,NA,NA,NA,NA,NA,NA,NA,NA,NA,NA,NA,NA
3883f,"""Richtig""-Screen",canvas.Screen,3_0_1_0_2_1_1,NA,NA,timeout,4999.34,246237,246220.74,246236.82,251219.58,251221,2023-07-27T18:16:09Z,251236.16,NULL,Beweis,ushahidi,s,marudio,kizuizi,mtendaji,NA,sdfdsf,1,1,NA,NA,NA,NA,NA,NA,NA,NA,NA,NA,NA,NA,NA,NA,NA,NA,NA,NA,NA
3883f,"""Falsch""-Screen",canvas.Screen,3_0_1_0_2_1_2,NA,NA,skipped,NA,251230,NA,NA,251219.58,251230,2023-07-27T18:16:09Z,251236.16,NULL,Beweis,ushahidi,s,marudio,kizuizi,mtendaji,NA,sdfdsf,NA,1,NA,NA,NA,NA,NA,NA,NA,NA,NA,NA,NA,NA,NA,NA,NA,NA,NA,NA,NA
3883f,shallow,flow.Sequence,3_0_1_0_2_1,NA,NA,completion,11698.52,239528,239504.44,239521.06,251219.58,251230,2023-07-27T18:16:09Z,251236.16,NULL,Beweis,ushahidi,s,marudio,kizuizi,mtendaji,NA,sdfdsf,NA,1,NA,NA,NA,NA,NA,NA,NA,NA,NA,NA,NA,NA,NA,NA,NA,NA,NA,NA,NA
3883f,task,flow.Sequence,3_0_1_0_2,NA,NA,completion,11698.52,239528,239504.44,239521.06,251219.58,251231,2023-07-27T18:16:09Z,251236.16,NULL,Beweis,ushahidi,s,marudio,kizuizi,mtendaji,NA,sdfdsf,NA,1,NA,NA,NA,NA,NA,NA,NA,NA,NA,NA,NA,NA,NA,NA,NA,NA,NA,NA,NA
3883f,Deep Question,html.Page,3_0_1_0_3_0_0,NA,NA,form submission,8160.84,251232,251219.58,251236.16,259397,259397,2023-07-27T18:16:17Z,259401.84,NULL,Schlange,foleni,d,NA,NA,NA,feldi,NA,NA,1,NA,NA,NA,NA,NA,NA,NA,NA,NA,NA,NA,NA,NA,NA,NA,NA,NA,NA,NA
3883f,"""Richtig""-Screen",canvas.Screen,3_0_1_0_3_0_1,NA,NA,skipped,NA,259400,NA,NA,259397,259400,2023-07-27T18:16:17Z,259401.84,NULL,Schlange,foleni,d,NA,NA,NA,NA,sdfdsf,NA,1,NA,NA,NA,NA,NA,NA,NA,NA,NA,NA,NA,NA,NA,NA,NA,NA,NA,NA,NA
3883f,"""Falsch""-Screen",canvas.Screen,3_0_1_0_3_0_2,NA,NA,timeout,4999.28,259403,259395.58,259401.84,264384.52,264386,2023-07-27T18:16:22Z,264401.12,NULL,Schlange,foleni,d,NA,NA,NA,NA,sdfdsf,0,1,NA,NA,NA,NA,NA,NA,NA,NA,NA,NA,NA,NA,NA,NA,NA,NA,NA,NA,NA
3883f,deep,flow.Sequence,3_0_1_0_3_0,NA,NA,completion,13148.36,251232,251219.58,251236.16,264384.52,264387,2023-07-27T18:16:22Z,264401.12,NULL,Schlange,foleni,d,NA,NA,NA,NA,sdfdsf,NA,1,NA,NA,NA,NA,NA,NA,NA,NA,NA,NA,NA,NA,NA,NA,NA,NA,NA,NA,NA
3883f,shallow,flow.Sequence,3_0_1_0_3_1,NA,NA,skipped,NA,264387,NA,NA,264384.52,264388,2023-07-27T18:16:22Z,264401.12,NULL,Schlange,foleni,d,NA,NA,NA,NA,sdfdsf,NA,1,NA,NA,NA,NA,NA,NA,NA,NA,NA,NA,NA,NA,NA,NA,NA,NA,NA,NA,NA
3883f,task,flow.Sequence,3_0_1_0_3,NA,NA,completion,13148.36,251232,251219.58,251236.16,264384.52,264388,2023-07-27T18:16:22Z,264401.12,NULL,Schlange,foleni,d,NA,NA,NA,NA,sdfdsf,NA,1,NA,NA,NA,NA,NA,NA,NA,NA,NA,NA,NA,NA,NA,NA,NA,NA,NA,NA,NA
3883f,Deep Question,html.Page,3_0_1_0_4_0_0,NA,NA,form submission,3200.88,264389,264384.52,264401.12,267602,267603,2023-07-27T18:16:26Z,267601.22,NULL,Annäherung,maegesho,d,NA,NA,NA,kj,NA,NA,1,NA,NA,NA,NA,NA,NA,NA,NA,NA,NA,NA,NA,NA,NA,NA,NA,NA,NA,NA
3883f,"""Richtig""-Screen",canvas.Screen,3_0_1_0_4_0_1,NA,NA,skipped,NA,267606,NA,NA,267602,267606,2023-07-27T18:16:26Z,267601.22,NULL,Annäherung,maegesho,d,NA,NA,NA,NA,sdfdsf,NA,1,NA,NA,NA,NA,NA,NA,NA,NA,NA,NA,NA,NA,NA,NA,NA,NA,NA,NA,NA
3883f,"""Falsch""-Screen",canvas.Screen,3_0_1_0_4_0_2,NA,NA,timeout,4998.86,267610,267600.76,267601.22,272583.42,272585,2023-07-27T18:16:31Z,272600.08,NULL,Annäherung,maegesho,d,NA,NA,NA,NA,sdfdsf,0,1,NA,NA,NA,NA,NA,NA,NA,NA,NA,NA,NA,NA,NA,NA,NA,NA,NA,NA,NA
3883f,deep,flow.Sequence,3_0_1_0_4_0,NA,NA,completion,8182.3,264389,264384.52,264401.12,272583.42,272585,2023-07-27T18:16:31Z,272600.08,NULL,Annäherung,maegesho,d,NA,NA,NA,NA,sdfdsf,NA,1,NA,NA,NA,NA,NA,NA,NA,NA,NA,NA,NA,NA,NA,NA,NA,NA,NA,NA,NA
3883f,shallow,flow.Sequence,3_0_1_0_4_1,NA,NA,skipped,NA,272585,NA,NA,272583.42,272586,2023-07-27T18:16:31Z,272600.08,NULL,Annäherung,maegesho,d,NA,NA,NA,NA,sdfdsf,NA,1,NA,NA,NA,NA,NA,NA,NA,NA,NA,NA,NA,NA,NA,NA,NA,NA,NA,NA,NA
3883f,task,flow.Sequence,3_0_1_0_4,NA,NA,completion,8182.3,264388,264384.52,264401.12,272583.42,272587,2023-07-27T18:16:31Z,272600.08,NULL,Annäherung,maegesho,d,NA,NA,NA,NA,sdfdsf,NA,1,NA,NA,NA,NA,NA,NA,NA,NA,NA,NA,NA,NA,NA,NA,NA,NA,NA,NA,NA
3883f,Deep Question,html.Page,3_0_1_0_5_0_0,NA,NA,form submission,5591.92,272587,272583.42,272600.08,278192,278192,2023-07-27T18:16:36Z,278199.3,NULL,Sympathie,mapendano,d,NA,NA,NA,kj,NA,NA,1,NA,NA,NA,NA,NA,NA,NA,NA,NA,NA,NA,NA,NA,NA,NA,NA,NA,NA,NA
3883f,"""Richtig""-Screen",canvas.Screen,3_0_1_0_5_0_1,NA,NA,skipped,NA,278196,NA,NA,278192,278196,2023-07-27T18:16:36Z,278199.3,NULL,Sympathie,mapendano,d,NA,NA,NA,NA,sdfdsf,NA,1,NA,NA,NA,NA,NA,NA,NA,NA,NA,NA,NA,NA,NA,NA,NA,NA,NA,NA,NA
3883f,"""Falsch""-Screen",canvas.Screen,3_0_1_0_5_0_2,NA,NA,timeout,4999.42,278199,278191.14,278199.3,283182.08,283184,2023-07-27T18:16:41Z,283198.72,NULL,Sympathie,mapendano,d,NA,NA,NA,NA,sdfdsf,0,1,NA,NA,NA,NA,NA,NA,NA,NA,NA,NA,NA,NA,NA,NA,NA,NA,NA,NA,NA
3883f,deep,flow.Sequence,3_0_1_0_5_0,NA,NA,completion,10582,272587,272583.42,272600.08,283182.08,283184,2023-07-27T18:16:41Z,283198.72,NULL,Sympathie,mapendano,d,NA,NA,NA,NA,sdfdsf,NA,1,NA,NA,NA,NA,NA,NA,NA,NA,NA,NA,NA,NA,NA,NA,NA,NA,NA,NA,NA
3883f,shallow,flow.Sequence,3_0_1_0_5_1,NA,NA,skipped,NA,283185,NA,NA,283182.08,283185,2023-07-27T18:16:41Z,283198.72,NULL,Sympathie,mapendano,d,NA,NA,NA,NA,sdfdsf,NA,1,NA,NA,NA,NA,NA,NA,NA,NA,NA,NA,NA,NA,NA,NA,NA,NA,NA,NA,NA
3883f,task,flow.Sequence,3_0_1_0_5,NA,NA,completion,10582,272587,272583.42,272600.08,283182.08,283186,2023-07-27T18:16:41Z,283198.72,NULL,Sympathie,mapendano,d,NA,NA,NA,NA,sdfdsf,NA,1,NA,NA,NA,NA,NA,NA,NA,NA,NA,NA,NA,NA,NA,NA,NA,NA,NA,NA,NA
3883f,Deep Question,html.Page,3_0_1_0_6_0_0,NA,NA,form submission,6075.28,283187,283182.08,283198.72,289274,289275,2023-07-27T18:16:47Z,289281.28,NULL,Toleranz,kuvumiliana,d,NA,NA,NA,kj,NA,NA,1,NA,NA,NA,NA,NA,NA,NA,NA,NA,NA,NA,NA,NA,NA,NA,NA,NA,NA,NA
3883f,"""Richtig""-Screen",canvas.Screen,3_0_1_0_6_0_1,NA,NA,skipped,NA,289277,NA,NA,289274,289277,2023-07-27T18:16:47Z,289281.28,NULL,Toleranz,kuvumiliana,d,NA,NA,NA,NA,sdfdsf,NA,1,NA,NA,NA,NA,NA,NA,NA,NA,NA,NA,NA,NA,NA,NA,NA,NA,NA,NA,NA
3883f,"""Falsch""-Screen",canvas.Screen,3_0_1_0_6_0_2,NA,NA,timeout,4999.28,289280,289272.86,289281.28,294263.98,294265,2023-07-27T18:16:52Z,294280.56,NULL,Toleranz,kuvumiliana,d,NA,NA,NA,NA,sdfdsf,0,1,NA,NA,NA,NA,NA,NA,NA,NA,NA,NA,NA,NA,NA,NA,NA,NA,NA,NA,NA
3883f,deep,flow.Sequence,3_0_1_0_6_0,NA,NA,completion,11065.26,283187,283182.08,283198.72,294263.98,294266,2023-07-27T18:16:52Z,294280.56,NULL,Toleranz,kuvumiliana,d,NA,NA,NA,NA,sdfdsf,NA,1,NA,NA,NA,NA,NA,NA,NA,NA,NA,NA,NA,NA,NA,NA,NA,NA,NA,NA,NA
3883f,shallow,flow.Sequence,3_0_1_0_6_1,NA,NA,skipped,NA,294266,NA,NA,294263.98,294266,2023-07-27T18:16:52Z,294280.56,NULL,Toleranz,kuvumiliana,d,NA,NA,NA,NA,sdfdsf,NA,1,NA,NA,NA,NA,NA,NA,NA,NA,NA,NA,NA,NA,NA,NA,NA,NA,NA,NA,NA
3883f,task,flow.Sequence,3_0_1_0_6,NA,NA,completion,11065.26,283187,283182.08,283198.72,294263.98,294267,2023-07-27T18:16:52Z,294280.56,NULL,Toleranz,kuvumiliana,d,NA,NA,NA,NA,sdfdsf,NA,1,NA,NA,NA,NA,NA,NA,NA,NA,NA,NA,NA,NA,NA,NA,NA,NA,NA,NA,NA
3883f,deep,flow.Sequence,3_0_1_0_7_0,NA,NA,skipped,NA,294268,NA,NA,294263.98,294268,2023-07-27T18:16:52Z,294280.56,NULL,Polizist,msongora,s,simanzi,mandhari,nidhamu,NA,sdfdsf,NA,1,NA,NA,NA,NA,NA,NA,NA,NA,NA,NA,NA,NA,NA,NA,NA,NA,NA,NA,NA
3883f,Shallow Question,html.Page,3_0_1_0_7_1_0,NA,NA,form submission,5771.44,294269,294263.98,294280.56,300052,300052,2023-07-27T18:16:58Z,300063.16,NULL,Polizist,msongora,s,simanzi,mandhari,nidhamu,msongora,NA,NA,1,NA,NA,NA,NA,NA,NA,NA,NA,NA,NA,NA,NA,NA,NA,NA,NA,NA,NA,NA
3883f,"""Richtig""-Screen",canvas.Screen,3_0_1_0_7_1_1,NA,NA,timeout,4999.36,300053,300049.62,300063.16,305045.84,305048,2023-07-27T18:17:03Z,305062.52,NULL,Polizist,msongora,s,simanzi,mandhari,nidhamu,NA,sdfdsf,1,1,NA,NA,NA,NA,NA,NA,NA,NA,NA,NA,NA,NA,NA,NA,NA,NA,NA,NA,NA
3883f,"""Falsch""-Screen",canvas.Screen,3_0_1_0_7_1_2,NA,NA,skipped,NA,305054,NA,NA,305045.84,305054,2023-07-27T18:17:03Z,305062.52,NULL,Polizist,msongora,s,simanzi,mandhari,nidhamu,NA,sdfdsf,NA,1,NA,NA,NA,NA,NA,NA,NA,NA,NA,NA,NA,NA,NA,NA,NA,NA,NA,NA,NA
3883f,shallow,flow.Sequence,3_0_1_0_7_1,NA,NA,completion,10765.28,294269,294263.98,294280.56,305045.84,305055,2023-07-27T18:17:03Z,305062.52,NULL,Polizist,msongora,s,simanzi,mandhari,nidhamu,NA,sdfdsf,NA,1,NA,NA,NA,NA,NA,NA,NA,NA,NA,NA,NA,NA,NA,NA,NA,NA,NA,NA,NA
3883f,task,flow.Sequence,3_0_1_0_7,NA,NA,completion,10765.28,294268,294263.98,294280.56,305045.84,305055,2023-07-27T18:17:03Z,305062.52,NULL,Polizist,msongora,s,simanzi,mandhari,nidhamu,NA,sdfdsf,NA,1,NA,NA,NA,NA,NA,NA,NA,NA,NA,NA,NA,NA,NA,NA,NA,NA,NA,NA,NA
3883f,block,flow.Loop,3_0_1_0,NA,NA,completion,88635.44,216410,216410.02,216410.4,305045.84,305056,2023-07-27T18:17:03Z,305062.52,NULL,NA,NA,NA,NA,NA,NA,NA,sdfdsf,NA,1,NA,NA,NA,NA,NA,NA,NA,NA,NA,NA,NA,NA,NA,NA,NA,NA,NA,NA,NA
3883f,weiter,canvas.Screen,3_0_1_1,sdf,keypress(Space),response,1456.48,305056,305045.84,305062.52,306519,306536,2023-07-27T18:17:05Z,306587.82,NULL,NA,NA,NA,NA,NA,NA,NA,sdfdsf,NA,1,NA,NA,NA,NA,NA,NA,NA,NA,NA,NA,NA,NA,NA,NA,NA,NA,NA,NA,NA
3883f,check continue,flow.Sequence,3_0_1,NA,NA,completion,90108.6,216410,216410.02,216410.4,306519,306536,2023-07-27T18:17:05Z,306587.82,NULL,NA,NA,NA,NA,NA,NA,NA,sdfdsf,NA,1,NA,NA,NA,NA,NA,NA,NA,NA,NA,NA,NA,NA,NA,NA,NA,NA,NA,NA,NA
3883f,Deep Question,html.Page,3_0_2_0_0_0_0,NA,NA,form submission,3274.18,306588,306587.6,306587.82,309862,309863,2023-07-27T18:17:08Z,309861.94,NULL,Sympathie,mapendano,d,NA,NA,NA,kj,NA,NA,2,NA,NA,NA,NA,NA,NA,NA,NA,NA,NA,NA,NA,NA,NA,NA,NA,NA,NA,NA
3883f,"""Richtig""-Screen",canvas.Screen,3_0_2_0_0_0_1,NA,NA,skipped,NA,309866,NA,NA,309862,309866,2023-07-27T18:17:08Z,309861.94,NULL,Sympathie,mapendano,d,NA,NA,NA,NA,sdf,NA,2,NA,NA,NA,NA,NA,NA,NA,NA,NA,NA,NA,NA,NA,NA,NA,NA,NA,NA,NA
3883f,"""Falsch""-Screen",canvas.Screen,3_0_2_0_0_0_2,NA,NA,timeout,4999.28,309868,309861.58,309861.94,314844.56,314851,2023-07-27T18:17:13Z,314861.22,NULL,Sympathie,mapendano,d,NA,NA,NA,NA,sdf,0,2,NA,NA,NA,NA,NA,NA,NA,NA,NA,NA,NA,NA,NA,NA,NA,NA,NA,NA,NA
3883f,deep,flow.Sequence,3_0_2_0_0_0,NA,NA,completion,8256.74,306588,306587.6,306587.82,314844.56,314855,2023-07-27T18:17:13Z,314861.22,NULL,Sympathie,mapendano,d,NA,NA,NA,NA,sdf,NA,2,NA,NA,NA,NA,NA,NA,NA,NA,NA,NA,NA,NA,NA,NA,NA,NA,NA,NA,NA
3883f,shallow,flow.Sequence,3_0_2_0_0_1,NA,NA,skipped,NA,314855,NA,NA,314844.56,314856,2023-07-27T18:17:13Z,314861.22,NULL,Sympathie,mapendano,d,NA,NA,NA,NA,sdf,NA,2,NA,NA,NA,NA,NA,NA,NA,NA,NA,NA,NA,NA,NA,NA,NA,NA,NA,NA,NA
3883f,task,flow.Sequence,3_0_2_0_0,NA,NA,completion,8256.74,306588,306587.6,306587.82,314844.56,314856,2023-07-27T18:17:13Z,314861.22,NULL,Sympathie,mapendano,d,NA,NA,NA,NA,sdf,NA,2,NA,NA,NA,NA,NA,NA,NA,NA,NA,NA,NA,NA,NA,NA,NA,NA,NA,NA,NA
3883f,deep,flow.Sequence,3_0_2_0_1_0,NA,NA,skipped,NA,314857,NA,NA,314844.56,314857,2023-07-27T18:17:13Z,314861.22,NULL,Inhalt,yaliyomo,s,kishawishi,hifadhi,kutembea,NA,sdf,NA,2,NA,NA,NA,NA,NA,NA,NA,NA,NA,NA,NA,NA,NA,NA,NA,NA,NA,NA,NA
3883f,Shallow Question,html.Page,3_0_2_0_1_1_0,NA,NA,form submission,5407.78,314857,314844.56,314861.22,320269,320270,2023-07-27T18:17:18Z,320277.22,NULL,Inhalt,yaliyomo,s,kishawishi,hifadhi,kutembea,yaliyomo,NA,NA,2,NA,NA,NA,NA,NA,NA,NA,NA,NA,NA,NA,NA,NA,NA,NA,NA,NA,NA,NA
3883f,"""Richtig""-Screen",canvas.Screen,3_0_2_0_1_1_1,NA,NA,timeout,4999.38,320277,320259.92,320277.22,325259.94,325262,2023-07-27T18:17:23Z,325276.6,NULL,Inhalt,yaliyomo,s,kishawishi,hifadhi,kutembea,NA,sdf,1,2,NA,NA,NA,NA,NA,NA,NA,NA,NA,NA,NA,NA,NA,NA,NA,NA,NA,NA,NA
3883f,"""Falsch""-Screen",canvas.Screen,3_0_2_0_1_1_2,NA,NA,skipped,NA,325269,NA,NA,325259.94,325270,2023-07-27T18:17:23Z,325276.6,NULL,Inhalt,yaliyomo,s,kishawishi,hifadhi,kutembea,NA,sdf,NA,2,NA,NA,NA,NA,NA,NA,NA,NA,NA,NA,NA,NA,NA,NA,NA,NA,NA,NA,NA
3883f,shallow,flow.Sequence,3_0_2_0_1_1,NA,NA,completion,10398.72,314857,314844.56,314861.22,325259.94,325270,2023-07-27T18:17:23Z,325276.6,NULL,Inhalt,yaliyomo,s,kishawishi,hifadhi,kutembea,NA,sdf,NA,2,NA,NA,NA,NA,NA,NA,NA,NA,NA,NA,NA,NA,NA,NA,NA,NA,NA,NA,NA
3883f,task,flow.Sequence,3_0_2_0_1,NA,NA,completion,10398.72,314856,314844.56,314861.22,325259.94,325271,2023-07-27T18:17:23Z,325276.6,NULL,Inhalt,yaliyomo,s,kishawishi,hifadhi,kutembea,NA,sdf,NA,2,NA,NA,NA,NA,NA,NA,NA,NA,NA,NA,NA,NA,NA,NA,NA,NA,NA,NA,NA
3883f,Deep Question,html.Page,3_0_2_0_2_0_0,NA,NA,form submission,10437.4,325272,325259.94,325276.6,335714,335715,2023-07-27T18:17:34Z,335725.12,NULL,Toleranz,kuvumiliana,d,NA,NA,NA,kuvumiliano,NA,NA,2,NA,NA,NA,NA,NA,NA,NA,NA,NA,NA,NA,NA,NA,NA,NA,NA,NA,NA,NA
3883f,"""Richtig""-Screen",canvas.Screen,3_0_2_0_2_0_1,NA,NA,skipped,NA,335719,NA,NA,335714,335720,2023-07-27T18:17:34Z,335725.12,NULL,Toleranz,kuvumiliana,d,NA,NA,NA,NA,sdf,NA,2,NA,NA,NA,NA,NA,NA,NA,NA,NA,NA,NA,NA,NA,NA,NA,NA,NA,NA,NA
3883f,"""Falsch""-Screen",canvas.Screen,3_0_2_0_2_0_2,NA,NA,timeout,4999.48,335723,335703.2,335725.12,340707.94,340710,2023-07-27T18:17:39Z,340724.6,NULL,Toleranz,kuvumiliana,d,NA,NA,NA,NA,sdf,0,2,NA,NA,NA,NA,NA,NA,NA,NA,NA,NA,NA,NA,NA,NA,NA,NA,NA,NA,NA
3883f,deep,flow.Sequence,3_0_2_0_2_0,NA,NA,completion,15431.34,325272,325259.94,325276.6,340707.94,340711,2023-07-27T18:17:39Z,340724.6,NULL,Toleranz,kuvumiliana,d,NA,NA,NA,NA,sdf,NA,2,NA,NA,NA,NA,NA,NA,NA,NA,NA,NA,NA,NA,NA,NA,NA,NA,NA,NA,NA
3883f,shallow,flow.Sequence,3_0_2_0_2_1,NA,NA,skipped,NA,340711,NA,NA,340707.94,340712,2023-07-27T18:17:39Z,340724.6,NULL,Toleranz,kuvumiliana,d,NA,NA,NA,NA,sdf,NA,2,NA,NA,NA,NA,NA,NA,NA,NA,NA,NA,NA,NA,NA,NA,NA,NA,NA,NA,NA
3883f,task,flow.Sequence,3_0_2_0_2,NA,NA,completion,15431.34,325272,325259.94,325276.6,340707.94,340713,2023-07-27T18:17:39Z,340724.6,NULL,Toleranz,kuvumiliana,d,NA,NA,NA,NA,sdf,NA,2,NA,NA,NA,NA,NA,NA,NA,NA,NA,NA,NA,NA,NA,NA,NA,NA,NA,NA,NA
3883f,deep,flow.Sequence,3_0_2_0_3_0,NA,NA,skipped,NA,340713,NA,NA,340707.94,340713,2023-07-27T18:17:39Z,340724.6,NULL,Beweis,ushahidi,s,marudio,kizuizi,mtendaji,NA,sdf,NA,2,NA,NA,NA,NA,NA,NA,NA,NA,NA,NA,NA,NA,NA,NA,NA,NA,NA,NA,NA
3883f,Shallow Question,html.Page,3_0_2_0_3_1_0,NA,NA,form submission,3996.4,340714,340707.94,340724.6,344721,344722,2023-07-27T18:17:43Z,344724.06,NULL,Beweis,ushahidi,s,marudio,kizuizi,mtendaji,ushahidi,NA,NA,2,NA,NA,NA,NA,NA,NA,NA,NA,NA,NA,NA,NA,NA,NA,NA,NA,NA,NA,NA
3883f,"""Richtig""-Screen",canvas.Screen,3_0_2_0_3_1_1,NA,NA,timeout,4999.36,344725,344719.86,344724.06,349706.76,349709,2023-07-27T18:17:48Z,349723.42,NULL,Beweis,ushahidi,s,marudio,kizuizi,mtendaji,NA,sdf,1,2,NA,NA,NA,NA,NA,NA,NA,NA,NA,NA,NA,NA,NA,NA,NA,NA,NA,NA,NA
3883f,"""Falsch""-Screen",canvas.Screen,3_0_2_0_3_1_2,NA,NA,skipped,NA,349716,NA,NA,349706.76,349717,2023-07-27T18:17:48Z,349723.42,NULL,Beweis,ushahidi,s,marudio,kizuizi,mtendaji,NA,sdf,NA,2,NA,NA,NA,NA,NA,NA,NA,NA,NA,NA,NA,NA,NA,NA,NA,NA,NA,NA,NA
3883f,shallow,flow.Sequence,3_0_2_0_3_1,NA,NA,completion,8982.16,340713,340707.94,340724.6,349706.76,349718,2023-07-27T18:17:48Z,349723.42,NULL,Beweis,ushahidi,s,marudio,kizuizi,mtendaji,NA,sdf,NA,2,NA,NA,NA,NA,NA,NA,NA,NA,NA,NA,NA,NA,NA,NA,NA,NA,NA,NA,NA
3883f,task,flow.Sequence,3_0_2_0_3,NA,NA,completion,8982.16,340713,340707.94,340724.6,349706.76,349718,2023-07-27T18:17:48Z,349723.42,NULL,Beweis,ushahidi,s,marudio,kizuizi,mtendaji,NA,sdf,NA,2,NA,NA,NA,NA,NA,NA,NA,NA,NA,NA,NA,NA,NA,NA,NA,NA,NA,NA,NA
3883f,Deep Question,html.Page,3_0_2_0_4_0_0,NA,NA,form submission,2520.58,349719,349706.76,349723.42,352244,352244,2023-07-27T18:17:50Z,352256.32,NULL,Annäherung,maegesho,d,NA,NA,NA,kj,NA,NA,2,NA,NA,NA,NA,NA,NA,NA,NA,NA,NA,NA,NA,NA,NA,NA,NA,NA,NA,NA
3883f,"""Richtig""-Screen",canvas.Screen,3_0_2_0_4_0_1,NA,NA,skipped,NA,352247,NA,NA,352244,352247,2023-07-27T18:17:50Z,352256.32,NULL,Annäherung,maegesho,d,NA,NA,NA,NA,sdf,NA,2,NA,NA,NA,NA,NA,NA,NA,NA,NA,NA,NA,NA,NA,NA,NA,NA,NA,NA,NA
3883f,"""Falsch""-Screen",canvas.Screen,3_0_2_0_4_0_2,NA,NA,timeout,4999.38,352250,352242.16,352256.32,357239.08,357240,2023-07-27T18:17:55Z,357255.7,NULL,Annäherung,maegesho,d,NA,NA,NA,NA,sdf,0,2,NA,NA,NA,NA,NA,NA,NA,NA,NA,NA,NA,NA,NA,NA,NA,NA,NA,NA,NA
3883f,deep,flow.Sequence,3_0_2_0_4_0,NA,NA,completion,7515.66,349719,349706.76,349723.42,357239.08,357241,2023-07-27T18:17:55Z,357255.7,NULL,Annäherung,maegesho,d,NA,NA,NA,NA,sdf,NA,2,NA,NA,NA,NA,NA,NA,NA,NA,NA,NA,NA,NA,NA,NA,NA,NA,NA,NA,NA
3883f,shallow,flow.Sequence,3_0_2_0_4_1,NA,NA,skipped,NA,357241,NA,NA,357239.08,357242,2023-07-27T18:17:55Z,357255.7,NULL,Annäherung,maegesho,d,NA,NA,NA,NA,sdf,NA,2,NA,NA,NA,NA,NA,NA,NA,NA,NA,NA,NA,NA,NA,NA,NA,NA,NA,NA,NA
3883f,task,flow.Sequence,3_0_2_0_4,NA,NA,completion,7515.66,349719,349706.76,349723.42,357239.08,357243,2023-07-27T18:17:55Z,357255.7,NULL,Annäherung,maegesho,d,NA,NA,NA,NA,sdf,NA,2,NA,NA,NA,NA,NA,NA,NA,NA,NA,NA,NA,NA,NA,NA,NA,NA,NA,NA,NA
3883f,Deep Question,html.Page,3_0_2_0_5_0_0,NA,NA,form submission,3359.3,357243,357239.08,357255.7,360615,360615,2023-07-27T18:17:59Z,360638.66,NULL,Schlange,foleni,d,NA,NA,NA,foleni,NA,NA,2,NA,NA,NA,NA,NA,NA,NA,NA,NA,NA,NA,NA,NA,NA,NA,NA,NA,NA,NA
3883f,"""Richtig""-Screen",canvas.Screen,3_0_2_0_5_0_1,NA,NA,timeout,4999.3,360617,360621.98,360638.66,365621.38,365623,2023-07-27T18:18:04Z,365637.96,NULL,Schlange,foleni,d,NA,NA,NA,NA,sdf,1,2,NA,NA,NA,NA,NA,NA,NA,NA,NA,NA,NA,NA,NA,NA,NA,NA,NA,NA,NA
3883f,"""Falsch""-Screen",canvas.Screen,3_0_2_0_5_0_2,NA,NA,skipped,NA,365629,NA,NA,365621.38,365629,2023-07-27T18:18:04Z,365637.96,NULL,Schlange,foleni,d,NA,NA,NA,NA,sdf,NA,2,NA,NA,NA,NA,NA,NA,NA,NA,NA,NA,NA,NA,NA,NA,NA,NA,NA,NA,NA
3883f,deep,flow.Sequence,3_0_2_0_5_0,NA,NA,completion,8365.68,357243,357239.08,357255.7,365621.38,365629,2023-07-27T18:18:04Z,365637.96,NULL,Schlange,foleni,d,NA,NA,NA,NA,sdf,NA,2,NA,NA,NA,NA,NA,NA,NA,NA,NA,NA,NA,NA,NA,NA,NA,NA,NA,NA,NA
3883f,shallow,flow.Sequence,3_0_2_0_5_1,NA,NA,skipped,NA,365629,NA,NA,365621.38,365630,2023-07-27T18:18:04Z,365637.96,NULL,Schlange,foleni,d,NA,NA,NA,NA,sdf,NA,2,NA,NA,NA,NA,NA,NA,NA,NA,NA,NA,NA,NA,NA,NA,NA,NA,NA,NA,NA
3883f,task,flow.Sequence,3_0_2_0_5,NA,NA,completion,8365.68,357243,357239.08,357255.7,365621.38,365630,2023-07-27T18:18:04Z,365637.96,NULL,Schlange,foleni,d,NA,NA,NA,NA,sdf,NA,2,NA,NA,NA,NA,NA,NA,NA,NA,NA,NA,NA,NA,NA,NA,NA,NA,NA,NA,NA
3883f,deep,flow.Sequence,3_0_2_0_6_0,NA,NA,skipped,NA,365630,NA,NA,365621.38,365630,2023-07-27T18:18:04Z,365637.96,NULL,Vermutung,udhanifu,s,haramia,tikisho,itifaki,NA,sdf,NA,2,NA,NA,NA,NA,NA,NA,NA,NA,NA,NA,NA,NA,NA,NA,NA,NA,NA,NA,NA
3883f,Shallow Question,html.Page,3_0_2_0_6_1_0,NA,NA,form submission,6581.04,365630,365621.38,365637.96,372219,372224,2023-07-27T18:18:10Z,372236.2,NULL,Vermutung,udhanifu,s,haramia,tikisho,itifaki,udhanifu,NA,NA,2,NA,NA,NA,NA,NA,NA,NA,NA,NA,NA,NA,NA,NA,NA,NA,NA,NA,NA,NA
3883f,"""Richtig""-Screen",canvas.Screen,3_0_2_0_6_1_1,NA,NA,timeout,5000.28,372234,372205.16,372236.2,377219.84,377221,2023-07-27T18:18:15Z,377236.48,NULL,Vermutung,udhanifu,s,haramia,tikisho,itifaki,NA,sdf,1,2,NA,NA,NA,NA,NA,NA,NA,NA,NA,NA,NA,NA,NA,NA,NA,NA,NA,NA,NA
3883f,"""Falsch""-Screen",canvas.Screen,3_0_2_0_6_1_2,NA,NA,skipped,NA,377226,NA,NA,377219.84,377226,2023-07-27T18:18:15Z,377236.48,NULL,Vermutung,udhanifu,s,haramia,tikisho,itifaki,NA,sdf,NA,2,NA,NA,NA,NA,NA,NA,NA,NA,NA,NA,NA,NA,NA,NA,NA,NA,NA,NA,NA
3883f,shallow,flow.Sequence,3_0_2_0_6_1,NA,NA,completion,11581.88,365630,365621.38,365637.96,377219.84,377226,2023-07-27T18:18:15Z,377236.48,NULL,Vermutung,udhanifu,s,haramia,tikisho,itifaki,NA,sdf,NA,2,NA,NA,NA,NA,NA,NA,NA,NA,NA,NA,NA,NA,NA,NA,NA,NA,NA,NA,NA
3883f,task,flow.Sequence,3_0_2_0_6,NA,NA,completion,11581.88,365630,365621.38,365637.96,377219.84,377227,2023-07-27T18:18:15Z,377236.48,NULL,Vermutung,udhanifu,s,haramia,tikisho,itifaki,NA,sdf,NA,2,NA,NA,NA,NA,NA,NA,NA,NA,NA,NA,NA,NA,NA,NA,NA,NA,NA,NA,NA
3883f,deep,flow.Sequence,3_0_2_0_7_0,NA,NA,skipped,NA,377228,NA,NA,377219.84,377228,2023-07-27T18:18:15Z,377236.48,NULL,Polizist,msongora,s,simanzi,mandhari,nidhamu,NA,sdf,NA,2,NA,NA,NA,NA,NA,NA,NA,NA,NA,NA,NA,NA,NA,NA,NA,NA,NA,NA,NA
3883f,Shallow Question,html.Page,3_0_2_0_7_1_0,NA,NA,form submission,4791.52,377228,377219.84,377236.48,382028,382028,2023-07-27T18:18:20Z,382035.88,NULL,Polizist,msongora,s,simanzi,mandhari,nidhamu,msongora,NA,NA,2,NA,NA,NA,NA,NA,NA,NA,NA,NA,NA,NA,NA,NA,NA,NA,NA,NA,NA,NA
3883f,"""Richtig""-Screen",canvas.Screen,3_0_2_0_7_1_1,NA,NA,timeout,4999.26,382035,382022.32,382035.88,387018.52,387020,2023-07-27T18:18:25Z,387035.14,NULL,Polizist,msongora,s,simanzi,mandhari,nidhamu,NA,sdf,1,2,NA,NA,NA,NA,NA,NA,NA,NA,NA,NA,NA,NA,NA,NA,NA,NA,NA,NA,NA
3883f,"""Falsch""-Screen",canvas.Screen,3_0_2_0_7_1_2,NA,NA,skipped,NA,387028,NA,NA,387018.52,387028,2023-07-27T18:18:25Z,387035.14,NULL,Polizist,msongora,s,simanzi,mandhari,nidhamu,NA,sdf,NA,2,NA,NA,NA,NA,NA,NA,NA,NA,NA,NA,NA,NA,NA,NA,NA,NA,NA,NA,NA
3883f,shallow,flow.Sequence,3_0_2_0_7_1,NA,NA,completion,9782.04,377228,377219.84,377236.48,387018.52,387029,2023-07-27T18:18:25Z,387035.14,NULL,Polizist,msongora,s,simanzi,mandhari,nidhamu,NA,sdf,NA,2,NA,NA,NA,NA,NA,NA,NA,NA,NA,NA,NA,NA,NA,NA,NA,NA,NA,NA,NA
3883f,task,flow.Sequence,3_0_2_0_7,NA,NA,completion,9782.04,377227,377219.84,377236.48,387018.52,387030,2023-07-27T18:18:25Z,387035.14,NULL,Polizist,msongora,s,simanzi,mandhari,nidhamu,NA,sdf,NA,2,NA,NA,NA,NA,NA,NA,NA,NA,NA,NA,NA,NA,NA,NA,NA,NA,NA,NA,NA
3883f,block,flow.Loop,3_0_2_0,NA,NA,completion,80430.7,306588,306587.6,306587.82,387018.52,387031,2023-07-27T18:18:25Z,387035.14,NULL,NA,NA,NA,NA,NA,NA,NA,sdf,NA,2,NA,NA,NA,NA,NA,NA,NA,NA,NA,NA,NA,NA,NA,NA,NA,NA,NA,NA,NA
3883f,weiter,canvas.Screen,3_0_2_1,sdf,keypress(Space),response,1076.86,387031,387018.52,387035.14,388112,388119,2023-07-27T18:18:26Z,388170.32,NULL,NA,NA,NA,NA,NA,NA,NA,sdf,NA,2,NA,NA,NA,NA,NA,NA,NA,NA,NA,NA,NA,NA,NA,NA,NA,NA,NA,NA,NA
3883f,check continue,flow.Sequence,3_0_2,NA,NA,completion,81524.18,306587,306587.6,306587.82,388112,388119,2023-07-27T18:18:26Z,388170.32,NULL,NA,NA,NA,NA,NA,NA,NA,sdf,NA,2,NA,NA,NA,NA,NA,NA,NA,NA,NA,NA,NA,NA,NA,NA,NA,NA,NA,NA,NA
3883f,Deep Question,html.Page,3_0_3_0_0_0_0,NA,NA,form submission,8468.68,388170,388169.98,388170.32,396639,396640,2023-07-27T18:18:35Z,396638.44,NULL,Annäherung,maegesho,d,NA,NA,NA,maegesho,NA,NA,3,NA,NA,NA,NA,NA,NA,NA,NA,NA,NA,NA,NA,NA,NA,NA,NA,NA,NA,NA
3883f,"""Richtig""-Screen",canvas.Screen,3_0_3_0_0_0_1,NA,NA,timeout,4994.8,396642,396638.06,396638.44,401616.7,401618,2023-07-27T18:18:40Z,401633.24,NULL,Annäherung,maegesho,d,NA,NA,NA,NA,qt,1,3,NA,NA,NA,NA,NA,NA,NA,NA,NA,NA,NA,NA,NA,NA,NA,NA,NA,NA,NA
3883f,"""Falsch""-Screen",canvas.Screen,3_0_3_0_0_0_2,NA,NA,skipped,NA,401624,NA,NA,401616.7,401624,2023-07-27T18:18:40Z,401633.24,NULL,Annäherung,maegesho,d,NA,NA,NA,NA,qt,NA,3,NA,NA,NA,NA,NA,NA,NA,NA,NA,NA,NA,NA,NA,NA,NA,NA,NA,NA,NA
3883f,deep,flow.Sequence,3_0_3_0_0_0,NA,NA,completion,13446.38,388170,388169.98,388170.32,401616.7,401625,2023-07-27T18:18:40Z,401633.24,NULL,Annäherung,maegesho,d,NA,NA,NA,NA,qt,NA,3,NA,NA,NA,NA,NA,NA,NA,NA,NA,NA,NA,NA,NA,NA,NA,NA,NA,NA,NA
3883f,shallow,flow.Sequence,3_0_3_0_0_1,NA,NA,skipped,NA,401625,NA,NA,401616.7,401626,2023-07-27T18:18:40Z,401633.24,NULL,Annäherung,maegesho,d,NA,NA,NA,NA,qt,NA,3,NA,NA,NA,NA,NA,NA,NA,NA,NA,NA,NA,NA,NA,NA,NA,NA,NA,NA,NA
3883f,task,flow.Sequence,3_0_3_0_0,NA,NA,completion,13446.38,388170,388169.98,388170.32,401616.7,401626,2023-07-27T18:18:40Z,401633.24,NULL,Annäherung,maegesho,d,NA,NA,NA,NA,qt,NA,3,NA,NA,NA,NA,NA,NA,NA,NA,NA,NA,NA,NA,NA,NA,NA,NA,NA,NA,NA
3883f,deep,flow.Sequence,3_0_3_0_1_0,NA,NA,skipped,NA,401626,NA,NA,401616.7,401626,2023-07-27T18:18:40Z,401633.24,NULL,Polizist,msongora,s,simanzi,mandhari,nidhamu,NA,qt,NA,3,NA,NA,NA,NA,NA,NA,NA,NA,NA,NA,NA,NA,NA,NA,NA,NA,NA,NA,NA
3883f,Shallow Question,html.Page,3_0_3_0_1_1_0,NA,NA,form submission,4444.76,401627,401616.7,401633.24,406078,406078,2023-07-27T18:18:44Z,406082.64,NULL,Polizist,msongora,s,simanzi,mandhari,nidhamu,msongora,NA,NA,3,NA,NA,NA,NA,NA,NA,NA,NA,NA,NA,NA,NA,NA,NA,NA,NA,NA,NA,NA
3883f,"""Richtig""-Screen",canvas.Screen,3_0_3_0_1_1_1,NA,NA,timeout,4999.4,406081,406074.68,406082.64,411065.36,411067,2023-07-27T18:18:49Z,411082.04,NULL,Polizist,msongora,s,simanzi,mandhari,nidhamu,NA,qt,1,3,NA,NA,NA,NA,NA,NA,NA,NA,NA,NA,NA,NA,NA,NA,NA,NA,NA,NA,NA
3883f,"""Falsch""-Screen",canvas.Screen,3_0_3_0_1_1_2,NA,NA,skipped,NA,411073,NA,NA,411065.36,411074,2023-07-27T18:18:49Z,411082.04,NULL,Polizist,msongora,s,simanzi,mandhari,nidhamu,NA,qt,NA,3,NA,NA,NA,NA,NA,NA,NA,NA,NA,NA,NA,NA,NA,NA,NA,NA,NA,NA,NA
3883f,shallow,flow.Sequence,3_0_3_0_1_1,NA,NA,completion,9432.12,401627,401616.7,401633.24,411065.36,411074,2023-07-27T18:18:49Z,411082.04,NULL,Polizist,msongora,s,simanzi,mandhari,nidhamu,NA,qt,NA,3,NA,NA,NA,NA,NA,NA,NA,NA,NA,NA,NA,NA,NA,NA,NA,NA,NA,NA,NA
3883f,task,flow.Sequence,3_0_3_0_1,NA,NA,completion,9432.12,401626,401616.7,401633.24,411065.36,411075,2023-07-27T18:18:49Z,411082.04,NULL,Polizist,msongora,s,simanzi,mandhari,nidhamu,NA,qt,NA,3,NA,NA,NA,NA,NA,NA,NA,NA,NA,NA,NA,NA,NA,NA,NA,NA,NA,NA,NA
3883f,deep,flow.Sequence,3_0_3_0_2_0,NA,NA,skipped,NA,411075,NA,NA,411065.36,411075,2023-07-27T18:18:49Z,411082.04,NULL,Vermutung,udhanifu,s,haramia,tikisho,itifaki,NA,qt,NA,3,NA,NA,NA,NA,NA,NA,NA,NA,NA,NA,NA,NA,NA,NA,NA,NA,NA,NA,NA
3883f,Shallow Question,html.Page,3_0_3_0_2_1_0,NA,NA,form submission,4645.96,411075,411065.36,411082.04,415728,415728,2023-07-27T18:18:54Z,415731.48,NULL,Vermutung,udhanifu,s,haramia,tikisho,itifaki,udhanifu,NA,NA,3,NA,NA,NA,NA,NA,NA,NA,NA,NA,NA,NA,NA,NA,NA,NA,NA,NA,NA,NA
3883f,"""Richtig""-Screen",canvas.Screen,3_0_3_0_2_1_1,NA,NA,timeout,4999.28,415732,415724.04,415731.48,420714.2,420716,2023-07-27T18:18:59Z,420730.76,NULL,Vermutung,udhanifu,s,haramia,tikisho,itifaki,NA,qt,1,3,NA,NA,NA,NA,NA,NA,NA,NA,NA,NA,NA,NA,NA,NA,NA,NA,NA,NA,NA
3883f,"""Falsch""-Screen",canvas.Screen,3_0_3_0_2_1_2,NA,NA,skipped,NA,420722,NA,NA,420714.2,420723,2023-07-27T18:18:59Z,420730.76,NULL,Vermutung,udhanifu,s,haramia,tikisho,itifaki,NA,qt,NA,3,NA,NA,NA,NA,NA,NA,NA,NA,NA,NA,NA,NA,NA,NA,NA,NA,NA,NA,NA
3883f,shallow,flow.Sequence,3_0_3_0_2_1,NA,NA,completion,9632.16,411075,411065.36,411082.04,420714.2,420723,2023-07-27T18:18:59Z,420730.76,NULL,Vermutung,udhanifu,s,haramia,tikisho,itifaki,NA,qt,NA,3,NA,NA,NA,NA,NA,NA,NA,NA,NA,NA,NA,NA,NA,NA,NA,NA,NA,NA,NA
3883f,task,flow.Sequence,3_0_3_0_2,NA,NA,completion,9632.16,411075,411065.36,411082.04,420714.2,420724,2023-07-27T18:18:59Z,420730.76,NULL,Vermutung,udhanifu,s,haramia,tikisho,itifaki,NA,qt,NA,3,NA,NA,NA,NA,NA,NA,NA,NA,NA,NA,NA,NA,NA,NA,NA,NA,NA,NA,NA
3883f,Deep Question,html.Page,3_0_3_0_3_0_0,NA,NA,form submission,3693.24,420724,420714.2,420730.76,424424,424425,2023-07-27T18:19:03Z,424422.74,NULL,Schlange,foleni,d,NA,NA,NA,foleni,NA,NA,3,NA,NA,NA,NA,NA,NA,NA,NA,NA,NA,NA,NA,NA,NA,NA,NA,NA,NA,NA
3883f,"""Richtig""-Screen",canvas.Screen,3_0_3_0_3_0_1,NA,NA,timeout,5006.98,424426,424422.4,424422.74,429413.04,429415,2023-07-27T18:19:08Z,429429.72,NULL,Schlange,foleni,d,NA,NA,NA,NA,qt,1,3,NA,NA,NA,NA,NA,NA,NA,NA,NA,NA,NA,NA,NA,NA,NA,NA,NA,NA,NA
3883f,"""Falsch""-Screen",canvas.Screen,3_0_3_0_3_0_2,NA,NA,skipped,NA,429421,NA,NA,429413.04,429421,2023-07-27T18:19:08Z,429429.72,NULL,Schlange,foleni,d,NA,NA,NA,NA,qt,NA,3,NA,NA,NA,NA,NA,NA,NA,NA,NA,NA,NA,NA,NA,NA,NA,NA,NA,NA,NA
3883f,deep,flow.Sequence,3_0_3_0_3_0,NA,NA,completion,8682.28,420724,420714.2,420730.76,429413.04,429422,2023-07-27T18:19:08Z,429429.72,NULL,Schlange,foleni,d,NA,NA,NA,NA,qt,NA,3,NA,NA,NA,NA,NA,NA,NA,NA,NA,NA,NA,NA,NA,NA,NA,NA,NA,NA,NA
3883f,shallow,flow.Sequence,3_0_3_0_3_1,NA,NA,skipped,NA,429422,NA,NA,429413.04,429422,2023-07-27T18:19:08Z,429429.72,NULL,Schlange,foleni,d,NA,NA,NA,NA,qt,NA,3,NA,NA,NA,NA,NA,NA,NA,NA,NA,NA,NA,NA,NA,NA,NA,NA,NA,NA,NA
3883f,task,flow.Sequence,3_0_3_0_3,NA,NA,completion,8682.28,420724,420714.2,420730.76,429413.04,429422,2023-07-27T18:19:08Z,429429.72,NULL,Schlange,foleni,d,NA,NA,NA,NA,qt,NA,3,NA,NA,NA,NA,NA,NA,NA,NA,NA,NA,NA,NA,NA,NA,NA,NA,NA,NA,NA
3883f,Deep Question,html.Page,3_0_3_0_4_0_0,NA,NA,form submission,6251.28,429422,429413.04,429429.72,435681,435682,2023-07-27T18:19:14Z,435680.68,NULL,Sympathie,mapendano,d,NA,NA,NA,kuvumiliana,NA,NA,3,NA,NA,NA,NA,NA,NA,NA,NA,NA,NA,NA,NA,NA,NA,NA,NA,NA,NA,NA
3883f,"""Richtig""-Screen",canvas.Screen,3_0_3_0_4_0_1,NA,NA,skipped,NA,435684,NA,NA,435681,435684,2023-07-27T18:19:14Z,435680.68,NULL,Sympathie,mapendano,d,NA,NA,NA,NA,qt,NA,3,NA,NA,NA,NA,NA,NA,NA,NA,NA,NA,NA,NA,NA,NA,NA,NA,NA,NA,NA
3883f,"""Falsch""-Screen",canvas.Screen,3_0_3_0_4_0_2,NA,NA,timeout,4997.52,435686,435680.3,435680.68,440661.54,440663,2023-07-27T18:19:19Z,440678.2,NULL,Sympathie,mapendano,d,NA,NA,NA,NA,qt,0,3,NA,NA,NA,NA,NA,NA,NA,NA,NA,NA,NA,NA,NA,NA,NA,NA,NA,NA,NA
3883f,deep,flow.Sequence,3_0_3_0_4_0,NA,NA,completion,11231.82,429422,429413.04,429429.72,440661.54,440663,2023-07-27T18:19:19Z,440678.2,NULL,Sympathie,mapendano,d,NA,NA,NA,NA,qt,NA,3,NA,NA,NA,NA,NA,NA,NA,NA,NA,NA,NA,NA,NA,NA,NA,NA,NA,NA,NA
3883f,shallow,flow.Sequence,3_0_3_0_4_1,NA,NA,skipped,NA,440663,NA,NA,440661.54,440664,2023-07-27T18:19:19Z,440678.2,NULL,Sympathie,mapendano,d,NA,NA,NA,NA,qt,NA,3,NA,NA,NA,NA,NA,NA,NA,NA,NA,NA,NA,NA,NA,NA,NA,NA,NA,NA,NA
3883f,task,flow.Sequence,3_0_3_0_4,NA,NA,completion,11231.82,429422,429413.04,429429.72,440661.54,440664,2023-07-27T18:19:19Z,440678.2,NULL,Sympathie,mapendano,d,NA,NA,NA,NA,qt,NA,3,NA,NA,NA,NA,NA,NA,NA,NA,NA,NA,NA,NA,NA,NA,NA,NA,NA,NA,NA
3883f,deep,flow.Sequence,3_0_3_0_5_0,NA,NA,skipped,NA,440664,NA,NA,440661.54,440665,2023-07-27T18:19:19Z,440678.2,NULL,Inhalt,yaliyomo,s,kishawishi,hifadhi,kutembea,NA,qt,NA,3,NA,NA,NA,NA,NA,NA,NA,NA,NA,NA,NA,NA,NA,NA,NA,NA,NA,NA,NA
3883f,Shallow Question,html.Page,3_0_3_0_5_1_0,NA,NA,form submission,8421.8,440665,440661.54,440678.2,449100,449101,2023-07-27T18:19:27Z,449110.42,NULL,Inhalt,yaliyomo,s,kishawishi,hifadhi,kutembea,yaliyomo,NA,NA,3,NA,NA,NA,NA,NA,NA,NA,NA,NA,NA,NA,NA,NA,NA,NA,NA,NA,NA,NA
3883f,"""Richtig""-Screen",canvas.Screen,3_0_3_0_5_1_1,NA,NA,timeout,4999.38,449104,449095.38,449110.42,454093.14,454101,2023-07-27T18:19:32Z,454109.8,NULL,Inhalt,yaliyomo,s,kishawishi,hifadhi,kutembea,NA,qt,1,3,NA,NA,NA,NA,NA,NA,NA,NA,NA,NA,NA,NA,NA,NA,NA,NA,NA,NA,NA
3883f,"""Falsch""-Screen",canvas.Screen,3_0_3_0_5_1_2,NA,NA,skipped,NA,454118,NA,NA,454093.14,454119,2023-07-27T18:19:32Z,454109.8,NULL,Inhalt,yaliyomo,s,kishawishi,hifadhi,kutembea,NA,qt,NA,3,NA,NA,NA,NA,NA,NA,NA,NA,NA,NA,NA,NA,NA,NA,NA,NA,NA,NA,NA
3883f,shallow,flow.Sequence,3_0_3_0_5_1,NA,NA,completion,13414.94,440665,440661.54,440678.2,454093.14,454119,2023-07-27T18:19:32Z,454109.8,NULL,Inhalt,yaliyomo,s,kishawishi,hifadhi,kutembea,NA,qt,NA,3,NA,NA,NA,NA,NA,NA,NA,NA,NA,NA,NA,NA,NA,NA,NA,NA,NA,NA,NA
3883f,task,flow.Sequence,3_0_3_0_5,NA,NA,completion,13414.94,440664,440661.54,440678.2,454093.14,454119,2023-07-27T18:19:32Z,454109.8,NULL,Inhalt,yaliyomo,s,kishawishi,hifadhi,kutembea,NA,qt,NA,3,NA,NA,NA,NA,NA,NA,NA,NA,NA,NA,NA,NA,NA,NA,NA,NA,NA,NA,NA
3883f,Deep Question,html.Page,3_0_3_0_6_0_0,NA,NA,form submission,5564.2,454119,454093.14,454109.8,459674,459674,2023-07-27T18:19:38Z,459675.74,NULL,Toleranz,kuvumiliana,d,NA,NA,NA,kuvumiliana,NA,NA,3,NA,NA,NA,NA,NA,NA,NA,NA,NA,NA,NA,NA,NA,NA,NA,NA,NA,NA,NA
3883f,"""Richtig""-Screen",canvas.Screen,3_0_3_0_6_0_1,NA,NA,timeout,4999.36,459678,459672.84,459675.74,464658.42,464660,2023-07-27T18:19:43Z,464675.1,NULL,Toleranz,kuvumiliana,d,NA,NA,NA,NA,qt,1,3,NA,NA,NA,NA,NA,NA,NA,NA,NA,NA,NA,NA,NA,NA,NA,NA,NA,NA,NA
3883f,"""Falsch""-Screen",canvas.Screen,3_0_3_0_6_0_2,NA,NA,skipped,NA,464668,NA,NA,464658.42,464668,2023-07-27T18:19:43Z,464675.1,NULL,Toleranz,kuvumiliana,d,NA,NA,NA,NA,qt,NA,3,NA,NA,NA,NA,NA,NA,NA,NA,NA,NA,NA,NA,NA,NA,NA,NA,NA,NA,NA
3883f,deep,flow.Sequence,3_0_3_0_6_0,NA,NA,completion,10548.62,454119,454093.14,454109.8,464658.42,464669,2023-07-27T18:19:43Z,464675.1,NULL,Toleranz,kuvumiliana,d,NA,NA,NA,NA,qt,NA,3,NA,NA,NA,NA,NA,NA,NA,NA,NA,NA,NA,NA,NA,NA,NA,NA,NA,NA,NA
3883f,shallow,flow.Sequence,3_0_3_0_6_1,NA,NA,skipped,NA,464670,NA,NA,464658.42,464670,2023-07-27T18:19:43Z,464675.1,NULL,Toleranz,kuvumiliana,d,NA,NA,NA,NA,qt,NA,3,NA,NA,NA,NA,NA,NA,NA,NA,NA,NA,NA,NA,NA,NA,NA,NA,NA,NA,NA
3883f,task,flow.Sequence,3_0_3_0_6,NA,NA,completion,10548.62,454119,454093.14,454109.8,464658.42,464670,2023-07-27T18:19:43Z,464675.1,NULL,Toleranz,kuvumiliana,d,NA,NA,NA,NA,qt,NA,3,NA,NA,NA,NA,NA,NA,NA,NA,NA,NA,NA,NA,NA,NA,NA,NA,NA,NA,NA
3883f,deep,flow.Sequence,3_0_3_0_7_0,NA,NA,skipped,NA,464672,NA,NA,464658.42,464673,2023-07-27T18:19:43Z,464675.1,NULL,Beweis,ushahidi,s,marudio,kizuizi,mtendaji,NA,qt,NA,3,NA,NA,NA,NA,NA,NA,NA,NA,NA,NA,NA,NA,NA,NA,NA,NA,NA,NA,NA
3883f,Shallow Question,html.Page,3_0_3_0_7_1_0,NA,NA,form submission,8382.9,464673,464658.42,464675.1,473058,473059,2023-07-27T18:19:51Z,473057.26,NULL,Beweis,ushahidi,s,marudio,kizuizi,mtendaji,ushahidi,NA,NA,3,NA,NA,NA,NA,NA,NA,NA,NA,NA,NA,NA,NA,NA,NA,NA,NA,NA,NA,NA
3883f,"""Richtig""-Screen",canvas.Screen,3_0_3_0_7_1_1,NA,NA,timeout,4999.38,473065,473052.34,473057.26,478040,478041,2023-07-27T18:19:56Z,478056.64,NULL,Beweis,ushahidi,s,marudio,kizuizi,mtendaji,NA,qt,1,3,NA,NA,NA,NA,NA,NA,NA,NA,NA,NA,NA,NA,NA,NA,NA,NA,NA,NA,NA
3883f,"""Falsch""-Screen",canvas.Screen,3_0_3_0_7_1_2,NA,NA,skipped,NA,478047,NA,NA,478040,478047,2023-07-27T18:19:56Z,478056.64,NULL,Beweis,ushahidi,s,marudio,kizuizi,mtendaji,NA,qt,NA,3,NA,NA,NA,NA,NA,NA,NA,NA,NA,NA,NA,NA,NA,NA,NA,NA,NA,NA,NA
3883f,shallow,flow.Sequence,3_0_3_0_7_1,NA,NA,completion,13364.9,464673,464658.42,464675.1,478040,478048,2023-07-27T18:19:56Z,478056.64,NULL,Beweis,ushahidi,s,marudio,kizuizi,mtendaji,NA,qt,NA,3,NA,NA,NA,NA,NA,NA,NA,NA,NA,NA,NA,NA,NA,NA,NA,NA,NA,NA,NA
3883f,task,flow.Sequence,3_0_3_0_7,NA,NA,completion,13364.9,464671,464658.42,464675.1,478040,478048,2023-07-27T18:19:56Z,478056.64,NULL,Beweis,ushahidi,s,marudio,kizuizi,mtendaji,NA,qt,NA,3,NA,NA,NA,NA,NA,NA,NA,NA,NA,NA,NA,NA,NA,NA,NA,NA,NA,NA,NA
3883f,block,flow.Loop,3_0_3_0,NA,NA,completion,89869.68,388170,388169.98,388170.32,478040,478049,2023-07-27T18:19:56Z,478056.64,NULL,NA,NA,NA,NA,NA,NA,NA,qt,NA,3,NA,NA,NA,NA,NA,NA,NA,NA,NA,NA,NA,NA,NA,NA,NA,NA,NA,NA,NA
3883f,weiter,canvas.Screen,3_0_3_1,sdf,keypress(Space),response,1133.36,478050,478040,478056.64,479190,479204,2023-07-27T18:19:57Z,479939.74,NULL,NA,NA,NA,NA,NA,NA,NA,qt,NA,3,NA,NA,NA,NA,NA,NA,NA,NA,NA,NA,NA,NA,NA,NA,NA,NA,NA,NA,NA
3883f,check continue,flow.Sequence,3_0_3,NA,NA,completion,91019.68,388169,388169.98,388170.32,479190,479205,2023-07-27T18:19:57Z,479939.74,NULL,NA,NA,NA,NA,NA,NA,NA,qt,NA,3,NA,NA,NA,NA,NA,NA,NA,NA,NA,NA,NA,NA,NA,NA,NA,NA,NA,NA,NA
3883f,check continue,flow.Sequence,3_0_4,NA,NA,skipped,NA,479273,NA,NA,479190,479273,2023-07-27T18:19:57Z,479939.74,NULL,NA,NA,NA,NA,NA,NA,NA,sd,NA,4,NA,NA,NA,NA,NA,NA,NA,NA,NA,NA,NA,NA,NA,NA,NA,NA,NA,NA,NA
3883f,check continue,flow.Sequence,3_0_5,NA,NA,skipped,NA,479305,NA,NA,479190,479305,2023-07-27T18:19:57Z,479939.74,NULL,NA,NA,NA,NA,NA,NA,NA,sdf,NA,5,NA,NA,NA,NA,NA,NA,NA,NA,NA,NA,NA,NA,NA,NA,NA,NA,NA,NA,NA
3883f,check continue,flow.Sequence,3_0_6,NA,NA,skipped,NA,479332,NA,NA,479190,479332,2023-07-27T18:19:57Z,479939.74,NULL,NA,NA,NA,NA,NA,NA,NA,dfs,NA,6,NA,NA,NA,NA,NA,NA,NA,NA,NA,NA,NA,NA,NA,NA,NA,NA,NA,NA,NA
3883f,check continue,flow.Sequence,3_0_7,NA,NA,skipped,NA,479359,NA,NA,479190,479359,2023-07-27T18:19:57Z,479939.74,NULL,NA,NA,NA,NA,NA,NA,NA,df,NA,7,NA,NA,NA,NA,NA,NA,NA,NA,NA,NA,NA,NA,NA,NA,NA,NA,NA,NA,NA
3883f,check continue,flow.Sequence,3_0_8,NA,NA,skipped,NA,479390,NA,NA,479190,479390,2023-07-27T18:19:57Z,479939.74,NULL,NA,NA,NA,NA,NA,NA,NA,dfs,NA,8,NA,NA,NA,NA,NA,NA,NA,NA,NA,NA,NA,NA,NA,NA,NA,NA,NA,NA,NA
3883f,check continue,flow.Sequence,3_0_9,NA,NA,skipped,NA,479417,NA,NA,479190,479417,2023-07-27T18:19:58Z,479939.74,NULL,NA,NA,NA,NA,NA,NA,NA,dsf,NA,9,NA,NA,NA,NA,NA,NA,NA,NA,NA,NA,NA,NA,NA,NA,NA,NA,NA,NA,NA
3883f,check continue,flow.Sequence,3_0_10,NA,NA,skipped,NA,479443,NA,NA,479190,479443,2023-07-27T18:19:58Z,479939.74,NULL,NA,NA,NA,NA,NA,NA,NA,df,NA,10,NA,NA,NA,NA,NA,NA,NA,NA,NA,NA,NA,NA,NA,NA,NA,NA,NA,NA,NA
3883f,check continue,flow.Sequence,3_0_11,NA,NA,skipped,NA,479471,NA,NA,479190,479471,2023-07-27T18:19:58Z,479939.74,NULL,NA,NA,NA,NA,NA,NA,NA,dfs,NA,11,NA,NA,NA,NA,NA,NA,NA,NA,NA,NA,NA,NA,NA,NA,NA,NA,NA,NA,NA
3883f,check continue,flow.Sequence,3_0_12,NA,NA,skipped,NA,479499,NA,NA,479190,479499,2023-07-27T18:19:58Z,479939.74,NULL,NA,NA,NA,NA,NA,NA,NA,dsf,NA,12,NA,NA,NA,NA,NA,NA,NA,NA,NA,NA,NA,NA,NA,NA,NA,NA,NA,NA,NA
3883f,check continue,flow.Sequence,3_0_13,NA,NA,skipped,NA,479524,NA,NA,479190,479524,2023-07-27T18:19:58Z,479939.74,NULL,NA,NA,NA,NA,NA,NA,NA,dsf,NA,13,NA,NA,NA,NA,NA,NA,NA,NA,NA,NA,NA,NA,NA,NA,NA,NA,NA,NA,NA
3883f,check continue,flow.Sequence,3_0_14,NA,NA,skipped,NA,479556,NA,NA,479190,479556,2023-07-27T18:19:58Z,479939.74,NULL,NA,NA,NA,NA,NA,NA,NA,NA,NA,14,NA,NA,NA,NA,NA,NA,NA,NA,NA,NA,NA,NA,NA,NA,NA,NA,NA,NA,NA
3883f,check continue,flow.Sequence,3_0_15,NA,NA,skipped,NA,479581,NA,NA,479190,479582,2023-07-27T18:19:58Z,479939.74,NULL,NA,NA,NA,NA,NA,NA,NA,NA,NA,15,NA,NA,NA,NA,NA,NA,NA,NA,NA,NA,NA,NA,NA,NA,NA,NA,NA,NA,NA
3883f,check continue,flow.Sequence,3_0_16,NA,NA,skipped,NA,479605,NA,NA,479190,479605,2023-07-27T18:19:58Z,479939.74,NULL,NA,NA,NA,NA,NA,NA,NA,NA,NA,16,NA,NA,NA,NA,NA,NA,NA,NA,NA,NA,NA,NA,NA,NA,NA,NA,NA,NA,NA
3883f,check continue,flow.Sequence,3_0_17,NA,NA,skipped,NA,479631,NA,NA,479190,479631,2023-07-27T18:19:58Z,479939.74,NULL,NA,NA,NA,NA,NA,NA,NA,NA,NA,17,NA,NA,NA,NA,NA,NA,NA,NA,NA,NA,NA,NA,NA,NA,NA,NA,NA,NA,NA
3883f,check continue,flow.Sequence,3_0_18,NA,NA,skipped,NA,479654,NA,NA,479190,479654,2023-07-27T18:19:58Z,479939.74,NULL,NA,NA,NA,NA,NA,NA,NA,NA,NA,18,NA,NA,NA,NA,NA,NA,NA,NA,NA,NA,NA,NA,NA,NA,NA,NA,NA,NA,NA
3883f,check continue,flow.Sequence,3_0_19,NA,NA,skipped,NA,479679,NA,NA,479190,479679,2023-07-27T18:19:58Z,479939.74,NULL,NA,NA,NA,NA,NA,NA,NA,NA,NA,19,NA,NA,NA,NA,NA,NA,NA,NA,NA,NA,NA,NA,NA,NA,NA,NA,NA,NA,NA
3883f,check continue,flow.Sequence,3_0_20,NA,NA,skipped,NA,479707,NA,NA,479190,479707,2023-07-27T18:19:58Z,479939.74,NULL,NA,NA,NA,NA,NA,NA,NA,NA,NA,20,NA,NA,NA,NA,NA,NA,NA,NA,NA,NA,NA,NA,NA,NA,NA,NA,NA,NA,NA
3883f,check continue,flow.Sequence,3_0_21,NA,NA,skipped,NA,479732,NA,NA,479190,479733,2023-07-27T18:19:58Z,479939.74,NULL,NA,NA,NA,NA,NA,NA,NA,NA,NA,21,NA,NA,NA,NA,NA,NA,NA,NA,NA,NA,NA,NA,NA,NA,NA,NA,NA,NA,NA
3883f,check continue,flow.Sequence,3_0_22,NA,NA,skipped,NA,479759,NA,NA,479190,479759,2023-07-27T18:19:58Z,479939.74,NULL,NA,NA,NA,NA,NA,NA,NA,NA,NA,22,NA,NA,NA,NA,NA,NA,NA,NA,NA,NA,NA,NA,NA,NA,NA,NA,NA,NA,NA
3883f,check continue,flow.Sequence,3_0_23,NA,NA,skipped,NA,479787,NA,NA,479190,479787,2023-07-27T18:19:58Z,479939.74,NULL,NA,NA,NA,NA,NA,NA,NA,NA,NA,23,NA,NA,NA,NA,NA,NA,NA,NA,NA,NA,NA,NA,NA,NA,NA,NA,NA,NA,NA
3883f,check continue,flow.Sequence,3_0_24,NA,NA,skipped,NA,479811,NA,NA,479190,479811,2023-07-27T18:19:58Z,479939.74,NULL,NA,NA,NA,NA,NA,NA,NA,NA,NA,24,NA,NA,NA,NA,NA,NA,NA,NA,NA,NA,NA,NA,NA,NA,NA,NA,NA,NA,NA
3883f,check continue,flow.Sequence,3_0_25,NA,NA,skipped,NA,479837,NA,NA,479190,479837,2023-07-27T18:19:58Z,479939.74,NULL,NA,NA,NA,NA,NA,NA,NA,NA,NA,25,NA,NA,NA,NA,NA,NA,NA,NA,NA,NA,NA,NA,NA,NA,NA,NA,NA,NA,NA
3883f,check continue,flow.Sequence,3_0_26,NA,NA,skipped,NA,479861,NA,NA,479190,479861,2023-07-27T18:19:58Z,479939.74,NULL,NA,NA,NA,NA,NA,NA,NA,NA,NA,26,NA,NA,NA,NA,NA,NA,NA,NA,NA,NA,NA,NA,NA,NA,NA,NA,NA,NA,NA
3883f,check continue,flow.Sequence,3_0_27,NA,NA,skipped,NA,479888,NA,NA,479190,479888,2023-07-27T18:19:58Z,479939.74,NULL,NA,NA,NA,NA,NA,NA,NA,NA,NA,27,NA,NA,NA,NA,NA,NA,NA,NA,NA,NA,NA,NA,NA,NA,NA,NA,NA,NA,NA
3883f,check continue,flow.Sequence,3_0_28,NA,NA,skipped,NA,479914,NA,NA,479190,479914,2023-07-27T18:19:58Z,479939.74,NULL,NA,NA,NA,NA,NA,NA,NA,NA,NA,28,NA,NA,NA,NA,NA,NA,NA,NA,NA,NA,NA,NA,NA,NA,NA,NA,NA,NA,NA
3883f,check continue,flow.Sequence,3_0_29,NA,NA,skipped,NA,479938,NA,NA,479190,479938,2023-07-27T18:19:58Z,479939.74,NULL,NA,NA,NA,NA,NA,NA,NA,NA,NA,29,NA,NA,NA,NA,NA,NA,NA,NA,NA,NA,NA,NA,NA,NA,NA,NA,NA,NA,NA
3883f,until continue,flow.Loop,3_0,NA,NA,completion,370396.12,108760,108793.52,108793.88,479190,479938,2023-07-27T18:19:58Z,479939.74,NULL,NA,NA,NA,NA,NA,NA,NA,NA,NA,NA,NA,NA,NA,NA,NA,NA,NA,NA,NA,NA,NA,NA,NA,NA,NA,NA,NA,NA,NA
3883f,block 1,flow.Sequence,3,NA,NA,completion,370396.12,108760,108793.52,108793.88,479190,479938,2023-07-27T18:19:58Z,479939.74,NULL,NA,NA,NA,NA,NA,NA,NA,NA,NA,NA,NA,NA,NA,NA,NA,NA,NA,NA,NA,NA,NA,NA,NA,NA,NA,NA,NA,NA,NA
3883f,1.Part Over,canvas.Screen,4,NA,keypress(Space),response,2845.26,479938,479938.22,479939.74,482785,482792,2023-07-27T18:20:01Z,482868.66,NULL,NA,NA,NA,NA,NA,NA,NA,NA,NA,NA,NA,NA,NA,NA,NA,NA,NA,NA,NA,NA,NA,NA,NA,NA,NA,NA,NA,NA,NA
3883f,deep,flow.Sequence,5_0_0_0_0_0,NA,NA,skipped,NA,482869,NA,NA,482785,482869,2023-07-27T18:20:01Z,482868.66,NULL,Hoffnung,matarajio,s,kutaalamika,uratibu,mvumbuzi,NA,sdf,NA,0,NA,NA,NA,NA,NA,NA,NA,NA,NA,NA,NA,NA,NA,NA,NA,NA,NA,NA,NA
3883f,Shallow Question,html.Page,5_0_0_0_0_1_0,NA,NA,form submission,7864.34,482869,482868.46,482868.66,490733,490734,2023-07-27T18:20:09Z,490738.34,NULL,Hoffnung,matarajio,s,kutaalamika,uratibu,mvumbuzi,uratibu,NA,NA,0,NA,NA,NA,NA,NA,NA,NA,NA,NA,NA,NA,NA,NA,NA,NA,NA,NA,NA,NA
3883f,"""Richtig""-Screen",canvas.Screen,5_0_0_0_0_1_1,NA,NA,skipped,NA,490735,NA,NA,490733,490736,2023-07-27T18:20:09Z,490738.34,NULL,Hoffnung,matarajio,s,kutaalamika,uratibu,mvumbuzi,NA,sdf,NA,0,NA,NA,NA,NA,NA,NA,NA,NA,NA,NA,NA,NA,NA,NA,NA,NA,NA,NA,NA
3883f,"""Falsch""-Screen",canvas.Screen,5_0_0_0_0_1_2,NA,NA,timeout,4999.3199999999,490738,490732,490738.34,495721.06,495723,2023-07-27T18:20:14Z,495737.66,NULL,Hoffnung,matarajio,s,kutaalamika,uratibu,mvumbuzi,NA,sdf,0,0,NA,NA,NA,NA,NA,NA,NA,NA,NA,NA,NA,NA,NA,NA,NA,NA,NA,NA,NA
3883f,shallow,flow.Sequence,5_0_0_0_0_1,NA,NA,completion,12852.4,482869,482868.46,482868.66,495721.06,495723,2023-07-27T18:20:14Z,495737.66,NULL,Hoffnung,matarajio,s,kutaalamika,uratibu,mvumbuzi,NA,sdf,NA,0,NA,NA,NA,NA,NA,NA,NA,NA,NA,NA,NA,NA,NA,NA,NA,NA,NA,NA,NA
3883f,task,flow.Sequence,5_0_0_0_0,NA,NA,completion,12852.4,482869,482868.46,482868.66,495721.06,495723,2023-07-27T18:20:14Z,495737.66,NULL,Hoffnung,matarajio,s,kutaalamika,uratibu,mvumbuzi,NA,sdf,NA,0,NA,NA,NA,NA,NA,NA,NA,NA,NA,NA,NA,NA,NA,NA,NA,NA,NA,NA,NA
3883f,Deep Question,html.Page,5_0_0_0_1_0_0,NA,NA,form submission,3380.34,495724,495721.06,495737.66,499118,499119,2023-07-27T18:20:17Z,499120.58,NULL,Zufall,kikuti,d,NA,NA,NA,kj,NA,NA,0,NA,NA,NA,NA,NA,NA,NA,NA,NA,NA,NA,NA,NA,NA,NA,NA,NA,NA,NA
3883f,"""Richtig""-Screen",canvas.Screen,5_0_0_0_1_0_1,NA,NA,skipped,NA,499121,NA,NA,499118,499121,2023-07-27T18:20:17Z,499120.58,NULL,Zufall,kikuti,d,NA,NA,NA,NA,sdf,NA,0,NA,NA,NA,NA,NA,NA,NA,NA,NA,NA,NA,NA,NA,NA,NA,NA,NA,NA,NA
3883f,"""Falsch""-Screen",canvas.Screen,5_0_0_0_1_0_2,NA,NA,timeout,4999.32,499123,499117.6,499120.58,504103.32,504105,2023-07-27T18:20:22Z,504119.9,NULL,Zufall,kikuti,d,NA,NA,NA,NA,sdf,0,0,NA,NA,NA,NA,NA,NA,NA,NA,NA,NA,NA,NA,NA,NA,NA,NA,NA,NA,NA
3883f,deep,flow.Sequence,5_0_0_0_1_0,NA,NA,completion,8365.66,495724,495721.06,495737.66,504103.32,504105,2023-07-27T18:20:22Z,504119.9,NULL,Zufall,kikuti,d,NA,NA,NA,NA,sdf,NA,0,NA,NA,NA,NA,NA,NA,NA,NA,NA,NA,NA,NA,NA,NA,NA,NA,NA,NA,NA
3883f,shallow,flow.Sequence,5_0_0_0_1_1,NA,NA,skipped,NA,504106,NA,NA,504103.32,504106,2023-07-27T18:20:22Z,504119.9,NULL,Zufall,kikuti,d,NA,NA,NA,NA,sdf,NA,0,NA,NA,NA,NA,NA,NA,NA,NA,NA,NA,NA,NA,NA,NA,NA,NA,NA,NA,NA
3883f,task,flow.Sequence,5_0_0_0_1,NA,NA,completion,8365.66,495724,495721.06,495737.66,504103.32,504106,2023-07-27T18:20:22Z,504119.9,NULL,Zufall,kikuti,d,NA,NA,NA,NA,sdf,NA,0,NA,NA,NA,NA,NA,NA,NA,NA,NA,NA,NA,NA,NA,NA,NA,NA,NA,NA,NA
3883f,Deep Question,html.Page,5_0_0_0_2_0_0,NA,NA,form submission,6010.1,504106,504103.32,504119.9,510130,510133,2023-07-27T18:20:28Z,510135.82,NULL,Schock,mshtuko,d,NA,NA,NA,kj,NA,NA,0,NA,NA,NA,NA,NA,NA,NA,NA,NA,NA,NA,NA,NA,NA,NA,NA,NA,NA,NA
3883f,"""Richtig""-Screen",canvas.Screen,5_0_0_0_2_0_1,NA,NA,skipped,NA,510142,NA,NA,510130,510142,2023-07-27T18:20:28Z,510135.82,NULL,Schock,mshtuko,d,NA,NA,NA,NA,sdf,NA,0,NA,NA,NA,NA,NA,NA,NA,NA,NA,NA,NA,NA,NA,NA,NA,NA,NA,NA,NA
3883f,"""Falsch""-Screen",canvas.Screen,5_0_0_0_2_0_2,NA,NA,timeout,4999.36,510146,510128.18,510135.82,515118.56,515120,2023-07-27T18:20:33Z,515135.18,NULL,Schock,mshtuko,d,NA,NA,NA,NA,sdf,0,0,NA,NA,NA,NA,NA,NA,NA,NA,NA,NA,NA,NA,NA,NA,NA,NA,NA,NA,NA
3883f,deep,flow.Sequence,5_0_0_0_2_0,NA,NA,completion,10998.66,504106,504103.32,504119.9,515118.56,515121,2023-07-27T18:20:33Z,515135.18,NULL,Schock,mshtuko,d,NA,NA,NA,NA,sdf,NA,0,NA,NA,NA,NA,NA,NA,NA,NA,NA,NA,NA,NA,NA,NA,NA,NA,NA,NA,NA
3883f,shallow,flow.Sequence,5_0_0_0_2_1,NA,NA,skipped,NA,515122,NA,NA,515118.56,515122,2023-07-27T18:20:33Z,515135.18,NULL,Schock,mshtuko,d,NA,NA,NA,NA,sdf,NA,0,NA,NA,NA,NA,NA,NA,NA,NA,NA,NA,NA,NA,NA,NA,NA,NA,NA,NA,NA
3883f,task,flow.Sequence,5_0_0_0_2,NA,NA,completion,10998.66,504106,504103.32,504119.9,515118.56,515123,2023-07-27T18:20:33Z,515135.18,NULL,Schock,mshtuko,d,NA,NA,NA,NA,sdf,NA,0,NA,NA,NA,NA,NA,NA,NA,NA,NA,NA,NA,NA,NA,NA,NA,NA,NA,NA,NA
3883f,Deep Question,html.Page,5_0_0_0_3_0_0,NA,NA,form submission,4747.82,515124,515118.56,515135.18,519883,519883,2023-07-27T18:20:38Z,519884.58,NULL,Schönheit,kirembo,d,NA,NA,NA,kj,NA,NA,0,NA,NA,NA,NA,NA,NA,NA,NA,NA,NA,NA,NA,NA,NA,NA,NA,NA,NA,NA
3883f,"""Richtig""-Screen",canvas.Screen,5_0_0_0_3_0_1,NA,NA,skipped,NA,519886,NA,NA,519883,519887,2023-07-27T18:20:38Z,519884.58,NULL,Schönheit,kirembo,d,NA,NA,NA,NA,sdf,NA,0,NA,NA,NA,NA,NA,NA,NA,NA,NA,NA,NA,NA,NA,NA,NA,NA,NA,NA,NA
3883f,"""Falsch""-Screen",canvas.Screen,5_0_0_0_3_0_2,NA,NA,timeout,4999.32,519891,519881.92,519884.58,524867.28,524869,2023-07-27T18:20:43Z,524883.9,NULL,Schönheit,kirembo,d,NA,NA,NA,NA,sdf,0,0,NA,NA,NA,NA,NA,NA,NA,NA,NA,NA,NA,NA,NA,NA,NA,NA,NA,NA,NA
3883f,deep,flow.Sequence,5_0_0_0_3_0,NA,NA,completion,9732.1,515124,515118.56,515135.18,524867.28,524870,2023-07-27T18:20:43Z,524883.9,NULL,Schönheit,kirembo,d,NA,NA,NA,NA,sdf,NA,0,NA,NA,NA,NA,NA,NA,NA,NA,NA,NA,NA,NA,NA,NA,NA,NA,NA,NA,NA
3883f,shallow,flow.Sequence,5_0_0_0_3_1,NA,NA,skipped,NA,524871,NA,NA,524867.28,524871,2023-07-27T18:20:43Z,524883.9,NULL,Schönheit,kirembo,d,NA,NA,NA,NA,sdf,NA,0,NA,NA,NA,NA,NA,NA,NA,NA,NA,NA,NA,NA,NA,NA,NA,NA,NA,NA,NA
3883f,task,flow.Sequence,5_0_0_0_3,NA,NA,completion,9732.1,515124,515118.56,515135.18,524867.28,524872,2023-07-27T18:20:43Z,524883.9,NULL,Schönheit,kirembo,d,NA,NA,NA,NA,sdf,NA,0,NA,NA,NA,NA,NA,NA,NA,NA,NA,NA,NA,NA,NA,NA,NA,NA,NA,NA,NA
3883f,deep,flow.Sequence,5_0_0_0_4_0,NA,NA,skipped,NA,524872,NA,NA,524867.28,524873,2023-07-27T18:20:43Z,524883.9,NULL,Verpackung,ufungaji,s,uhusiano,upimaji,uchunguzi,NA,sdf,NA,0,NA,NA,NA,NA,NA,NA,NA,NA,NA,NA,NA,NA,NA,NA,NA,NA,NA,NA,NA
3883f,Shallow Question,html.Page,5_0_0_0_4_1_0,NA,NA,form submission,10130.1,524873,524867.28,524883.9,535014,535014,2023-07-27T18:20:53Z,535015.84,NULL,Verpackung,ufungaji,s,uhusiano,upimaji,uchunguzi,uchunguzi,NA,NA,0,NA,NA,NA,NA,NA,NA,NA,NA,NA,NA,NA,NA,NA,NA,NA,NA,NA,NA,NA
3883f,"""Richtig""-Screen",canvas.Screen,5_0_0_0_4_1_1,NA,NA,skipped,NA,535017,NA,NA,535014,535018,2023-07-27T18:20:53Z,535015.84,NULL,Verpackung,ufungaji,s,uhusiano,upimaji,uchunguzi,NA,sdf,NA,0,NA,NA,NA,NA,NA,NA,NA,NA,NA,NA,NA,NA,NA,NA,NA,NA,NA,NA,NA
3883f,"""Falsch""-Screen",canvas.Screen,5_0_0_0_4_1_2,NA,NA,timeout,4999.4400000001,535021,535008.16,535015.84,539998.64,540000,2023-07-27T18:20:58Z,540015.28,NULL,Verpackung,ufungaji,s,uhusiano,upimaji,uchunguzi,NA,sdf,0,0,NA,NA,NA,NA,NA,NA,NA,NA,NA,NA,NA,NA,NA,NA,NA,NA,NA,NA,NA
3883f,shallow,flow.Sequence,5_0_0_0_4_1,NA,NA,completion,15114.74,524873,524867.28,524883.9,539998.64,540001,2023-07-27T18:20:58Z,540015.28,NULL,Verpackung,ufungaji,s,uhusiano,upimaji,uchunguzi,NA,sdf,NA,0,NA,NA,NA,NA,NA,NA,NA,NA,NA,NA,NA,NA,NA,NA,NA,NA,NA,NA,NA
3883f,task,flow.Sequence,5_0_0_0_4,NA,NA,completion,15114.74,524872,524867.28,524883.9,539998.64,540001,2023-07-27T18:20:58Z,540015.28,NULL,Verpackung,ufungaji,s,uhusiano,upimaji,uchunguzi,NA,sdf,NA,0,NA,NA,NA,NA,NA,NA,NA,NA,NA,NA,NA,NA,NA,NA,NA,NA,NA,NA,NA
3883f,deep,flow.Sequence,5_0_0_0_5_0,NA,NA,skipped,NA,540002,NA,NA,539998.64,540002,2023-07-27T18:20:58Z,540015.28,NULL,Auftrag,uagizaji,s,ghanima,kuzingatia,msukani,NA,sdf,NA,0,NA,NA,NA,NA,NA,NA,NA,NA,NA,NA,NA,NA,NA,NA,NA,NA,NA,NA,NA
3883f,Shallow Question,html.Page,5_0_0_0_5_1_0,NA,NA,form submission,5755.72,540003,539998.64,540015.28,545771,545772,2023-07-27T18:21:04Z,545781.16,NULL,Auftrag,uagizaji,s,ghanima,kuzingatia,msukani,msukani,NA,NA,0,NA,NA,NA,NA,NA,NA,NA,NA,NA,NA,NA,NA,NA,NA,NA,NA,NA,NA,NA
3883f,"""Richtig""-Screen",canvas.Screen,5_0_0_0_5_1_1,NA,NA,skipped,NA,545777,NA,NA,545771,545777,2023-07-27T18:21:04Z,545781.16,NULL,Auftrag,uagizaji,s,ghanima,kuzingatia,msukani,NA,sdf,NA,0,NA,NA,NA,NA,NA,NA,NA,NA,NA,NA,NA,NA,NA,NA,NA,NA,NA,NA,NA
3883f,"""Falsch""-Screen",canvas.Screen,5_0_0_0_5_1_2,NA,NA,timeout,4999.34,545781,545767.76,545781.16,550763.84,550765,2023-07-27T18:21:09Z,550780.5,NULL,Auftrag,uagizaji,s,ghanima,kuzingatia,msukani,NA,sdf,0,0,NA,NA,NA,NA,NA,NA,NA,NA,NA,NA,NA,NA,NA,NA,NA,NA,NA,NA,NA
3883f,shallow,flow.Sequence,5_0_0_0_5_1,NA,NA,completion,10748.56,540003,539998.64,540015.28,550763.84,550766,2023-07-27T18:21:09Z,550780.5,NULL,Auftrag,uagizaji,s,ghanima,kuzingatia,msukani,NA,sdf,NA,0,NA,NA,NA,NA,NA,NA,NA,NA,NA,NA,NA,NA,NA,NA,NA,NA,NA,NA,NA
3883f,task,flow.Sequence,5_0_0_0_5,NA,NA,completion,10748.56,540002,539998.64,540015.28,550763.84,550767,2023-07-27T18:21:09Z,550780.5,NULL,Auftrag,uagizaji,s,ghanima,kuzingatia,msukani,NA,sdf,NA,0,NA,NA,NA,NA,NA,NA,NA,NA,NA,NA,NA,NA,NA,NA,NA,NA,NA,NA,NA
3883f,deep,flow.Sequence,5_0_0_0_6_0,NA,NA,skipped,NA,550768,NA,NA,550763.84,550769,2023-07-27T18:21:09Z,550780.5,NULL,Wettbewerb,ushindani,s,mapendezi,kichocheo,ubaguzi,NA,sdf,NA,0,NA,NA,NA,NA,NA,NA,NA,NA,NA,NA,NA,NA,NA,NA,NA,NA,NA,NA,NA
3883f,Shallow Question,html.Page,5_0_0_0_6_1_0,NA,NA,form submission,5872.5,550769,550763.84,550780.5,556653,556653,2023-07-27T18:21:15Z,556663.06,NULL,Wettbewerb,ushindani,s,mapendezi,kichocheo,ubaguzi,ushindani,NA,NA,0,NA,NA,NA,NA,NA,NA,NA,NA,NA,NA,NA,NA,NA,NA,NA,NA,NA,NA,NA
3883f,"""Richtig""-Screen",canvas.Screen,5_0_0_0_6_1_1,NA,NA,timeout,4999.34,556660,556648.88,556663.06,561645.76,561647,2023-07-27T18:21:20Z,561662.4,NULL,Wettbewerb,ushindani,s,mapendezi,kichocheo,ubaguzi,NA,sdf,1,0,NA,NA,NA,NA,NA,NA,NA,NA,NA,NA,NA,NA,NA,NA,NA,NA,NA,NA,NA
3883f,"""Falsch""-Screen",canvas.Screen,5_0_0_0_6_1_2,NA,NA,skipped,NA,561650,NA,NA,561645.76,561651,2023-07-27T18:21:20Z,561662.4,NULL,Wettbewerb,ushindani,s,mapendezi,kichocheo,ubaguzi,NA,sdf,NA,0,NA,NA,NA,NA,NA,NA,NA,NA,NA,NA,NA,NA,NA,NA,NA,NA,NA,NA,NA
3883f,shallow,flow.Sequence,5_0_0_0_6_1,NA,NA,completion,10865.26,550769,550763.84,550780.5,561645.76,561651,2023-07-27T18:21:20Z,561662.4,NULL,Wettbewerb,ushindani,s,mapendezi,kichocheo,ubaguzi,NA,sdf,NA,0,NA,NA,NA,NA,NA,NA,NA,NA,NA,NA,NA,NA,NA,NA,NA,NA,NA,NA,NA
3883f,task,flow.Sequence,5_0_0_0_6,NA,NA,completion,10865.26,550768,550763.84,550780.5,561645.76,561651,2023-07-27T18:21:20Z,561662.4,NULL,Wettbewerb,ushindani,s,mapendezi,kichocheo,ubaguzi,NA,sdf,NA,0,NA,NA,NA,NA,NA,NA,NA,NA,NA,NA,NA,NA,NA,NA,NA,NA,NA,NA,NA
3883f,Deep Question,html.Page,5_0_0_0_7_0_0,NA,NA,form submission,3263.6,561652,561645.76,561662.4,564926,564926,2023-07-27T18:21:23Z,564928.74,NULL,Theorie,nadharia,d,NA,NA,NA,kj,NA,NA,0,NA,NA,NA,NA,NA,NA,NA,NA,NA,NA,NA,NA,NA,NA,NA,NA,NA,NA,NA
3883f,"""Richtig""-Screen",canvas.Screen,5_0_0_0_7_0_1,NA,NA,skipped,NA,564929,NA,NA,564926,564929,2023-07-27T18:21:23Z,564928.74,NULL,Theorie,nadharia,d,NA,NA,NA,NA,sdf,NA,0,NA,NA,NA,NA,NA,NA,NA,NA,NA,NA,NA,NA,NA,NA,NA,NA,NA,NA,NA
3883f,"""Falsch""-Screen",canvas.Screen,5_0_0_0_7_0_2,NA,NA,timeout,4999.34,564933,564925.36,564928.74,569911.44,569912,2023-07-27T18:21:28Z,569928.08,NULL,Theorie,nadharia,d,NA,NA,NA,NA,sdf,0,0,NA,NA,NA,NA,NA,NA,NA,NA,NA,NA,NA,NA,NA,NA,NA,NA,NA,NA,NA
3883f,deep,flow.Sequence,5_0_0_0_7_0,NA,NA,completion,8249.0399999999,561652,561645.76,561662.4,569911.44,569913,2023-07-27T18:21:28Z,569928.08,NULL,Theorie,nadharia,d,NA,NA,NA,NA,sdf,NA,0,NA,NA,NA,NA,NA,NA,NA,NA,NA,NA,NA,NA,NA,NA,NA,NA,NA,NA,NA
3883f,shallow,flow.Sequence,5_0_0_0_7_1,NA,NA,skipped,NA,569913,NA,NA,569911.44,569914,2023-07-27T18:21:28Z,569928.08,NULL,Theorie,nadharia,d,NA,NA,NA,NA,sdf,NA,0,NA,NA,NA,NA,NA,NA,NA,NA,NA,NA,NA,NA,NA,NA,NA,NA,NA,NA,NA
3883f,task,flow.Sequence,5_0_0_0_7,NA,NA,completion,8249.0399999999,561651,561645.76,561662.4,569911.44,569914,2023-07-27T18:21:28Z,569928.08,NULL,Theorie,nadharia,d,NA,NA,NA,NA,sdf,NA,0,NA,NA,NA,NA,NA,NA,NA,NA,NA,NA,NA,NA,NA,NA,NA,NA,NA,NA,NA
3883f,block,flow.Loop,5_0_0_0,NA,NA,completion,87042.78,482869,482868.46,482868.66,569911.44,569914,2023-07-27T18:21:28Z,569928.08,NULL,NA,NA,NA,NA,NA,NA,NA,sdf,NA,0,NA,NA,NA,NA,NA,NA,NA,NA,NA,NA,NA,NA,NA,NA,NA,NA,NA,NA,NA
3883f,weiter,canvas.Screen,5_0_0_1,sdf,keypress(Space),response,1200.92,569915,569911.44,569928.08,571129,571143,2023-07-27T18:21:29Z,571205.92,NULL,NA,NA,NA,NA,NA,NA,NA,sdf,NA,0,NA,NA,NA,NA,NA,NA,NA,NA,NA,NA,NA,NA,NA,NA,NA,NA,NA,NA,NA
3883f,check continue,flow.Sequence,5_0_0,NA,NA,completion,88260.34,482869,482868.46,482868.66,571129,571144,2023-07-27T18:21:29Z,571205.92,NULL,NA,NA,NA,NA,NA,NA,NA,sdf,NA,0,NA,NA,NA,NA,NA,NA,NA,NA,NA,NA,NA,NA,NA,NA,NA,NA,NA,NA,NA
3883f,deep,flow.Sequence,5_0_1_0_0_0,NA,NA,skipped,NA,571205,NA,NA,571129,571205,2023-07-27T18:21:29Z,571205.92,NULL,Wettbewerb,ushindani,s,mapendezi,kichocheo,ubaguzi,NA,sdfdsf,NA,1,NA,NA,NA,NA,NA,NA,NA,NA,NA,NA,NA,NA,NA,NA,NA,NA,NA,NA,NA
3883f,Shallow Question,html.Page,5_0_1_0_0_1_0,NA,NA,form submission,6523.08,571205,571205.56,571205.92,577729,577729,2023-07-27T18:21:36Z,577728.18,NULL,Wettbewerb,ushindani,s,mapendezi,kichocheo,ubaguzi,ushindani,NA,NA,1,NA,NA,NA,NA,NA,NA,NA,NA,NA,NA,NA,NA,NA,NA,NA,NA,NA,NA,NA
3883f,"""Richtig""-Screen",canvas.Screen,5_0_1_0_0_1_1,NA,NA,timeout,4998.2,577732,577727.94,577728.18,582709.74,582717,2023-07-27T18:21:41Z,582726.38,NULL,Wettbewerb,ushindani,s,mapendezi,kichocheo,ubaguzi,NA,sdfdsf,1,1,NA,NA,NA,NA,NA,NA,NA,NA,NA,NA,NA,NA,NA,NA,NA,NA,NA,NA,NA
3883f,"""Falsch""-Screen",canvas.Screen,5_0_1_0_0_1_2,NA,NA,skipped,NA,582733,NA,NA,582709.74,582733,2023-07-27T18:21:41Z,582726.38,NULL,Wettbewerb,ushindani,s,mapendezi,kichocheo,ubaguzi,NA,sdfdsf,NA,1,NA,NA,NA,NA,NA,NA,NA,NA,NA,NA,NA,NA,NA,NA,NA,NA,NA,NA,NA
3883f,shallow,flow.Sequence,5_0_1_0_0_1,NA,NA,completion,11503.82,571205,571205.56,571205.92,582709.74,582734,2023-07-27T18:21:41Z,582726.38,NULL,Wettbewerb,ushindani,s,mapendezi,kichocheo,ubaguzi,NA,sdfdsf,NA,1,NA,NA,NA,NA,NA,NA,NA,NA,NA,NA,NA,NA,NA,NA,NA,NA,NA,NA,NA
3883f,task,flow.Sequence,5_0_1_0_0,NA,NA,completion,11503.82,571205,571205.56,571205.92,582709.74,582734,2023-07-27T18:21:41Z,582726.38,NULL,Wettbewerb,ushindani,s,mapendezi,kichocheo,ubaguzi,NA,sdfdsf,NA,1,NA,NA,NA,NA,NA,NA,NA,NA,NA,NA,NA,NA,NA,NA,NA,NA,NA,NA,NA
3883f,Deep Question,html.Page,5_0_1_0_1_0_0,NA,NA,form submission,3874.62,582734,582709.74,582726.38,586601,586601,2023-07-27T18:21:45Z,586609.18,NULL,Theorie,nadharia,d,NA,NA,NA,jk,NA,NA,1,NA,NA,NA,NA,NA,NA,NA,NA,NA,NA,NA,NA,NA,NA,NA,NA,NA,NA,NA
3883f,"""Richtig""-Screen",canvas.Screen,5_0_1_0_1_0_1,NA,NA,skipped,NA,586605,NA,NA,586601,586605,2023-07-27T18:21:45Z,586609.18,NULL,Theorie,nadharia,d,NA,NA,NA,NA,sdfdsf,NA,1,NA,NA,NA,NA,NA,NA,NA,NA,NA,NA,NA,NA,NA,NA,NA,NA,NA,NA,NA
3883f,"""Falsch""-Screen",canvas.Screen,5_0_1_0_1_0_2,NA,NA,timeout,4999.3199999999,586608,586599.56,586609.18,591591.92,591594,2023-07-27T18:21:50Z,591608.5,NULL,Theorie,nadharia,d,NA,NA,NA,NA,sdfdsf,0,1,NA,NA,NA,NA,NA,NA,NA,NA,NA,NA,NA,NA,NA,NA,NA,NA,NA,NA,NA
3883f,deep,flow.Sequence,5_0_1_0_1_0,NA,NA,completion,8865.54,582734,582709.74,582726.38,591591.92,591594,2023-07-27T18:21:50Z,591608.5,NULL,Theorie,nadharia,d,NA,NA,NA,NA,sdfdsf,NA,1,NA,NA,NA,NA,NA,NA,NA,NA,NA,NA,NA,NA,NA,NA,NA,NA,NA,NA,NA
3883f,shallow,flow.Sequence,5_0_1_0_1_1,NA,NA,skipped,NA,591596,NA,NA,591591.92,591596,2023-07-27T18:21:50Z,591608.5,NULL,Theorie,nadharia,d,NA,NA,NA,NA,sdfdsf,NA,1,NA,NA,NA,NA,NA,NA,NA,NA,NA,NA,NA,NA,NA,NA,NA,NA,NA,NA,NA
3883f,task,flow.Sequence,5_0_1_0_1,NA,NA,completion,8865.54,582734,582709.74,582726.38,591591.92,591597,2023-07-27T18:21:50Z,591608.5,NULL,Theorie,nadharia,d,NA,NA,NA,NA,sdfdsf,NA,1,NA,NA,NA,NA,NA,NA,NA,NA,NA,NA,NA,NA,NA,NA,NA,NA,NA,NA,NA
3883f,deep,flow.Sequence,5_0_1_0_2_0,NA,NA,skipped,NA,591597,NA,NA,591591.92,591598,2023-07-27T18:21:50Z,591608.5,NULL,Hoffnung,matarajio,s,kutaalamika,uratibu,mvumbuzi,NA,sdfdsf,NA,1,NA,NA,NA,NA,NA,NA,NA,NA,NA,NA,NA,NA,NA,NA,NA,NA,NA,NA,NA
3883f,Shallow Question,html.Page,5_0_1_0_2_1_0,NA,NA,form submission,11569.5,591598,591591.92,591608.5,603178,603178,2023-07-27T18:22:01Z,603190.32,NULL,Hoffnung,matarajio,s,kutaalamika,uratibu,mvumbuzi,mvumbuzi,NA,NA,1,NA,NA,NA,NA,NA,NA,NA,NA,NA,NA,NA,NA,NA,NA,NA,NA,NA,NA,NA
3883f,"""Richtig""-Screen",canvas.Screen,5_0_1_0_2_1_1,NA,NA,skipped,NA,603183,NA,NA,603178,603183,2023-07-27T18:22:01Z,603190.32,NULL,Hoffnung,matarajio,s,kutaalamika,uratibu,mvumbuzi,NA,sdfdsf,NA,1,NA,NA,NA,NA,NA,NA,NA,NA,NA,NA,NA,NA,NA,NA,NA,NA,NA,NA,NA
3883f,"""Falsch""-Screen",canvas.Screen,5_0_1_0_2_1_2,NA,NA,timeout,4999.42,603187,603174,603190.32,608173.14,608174,2023-07-27T18:22:06Z,608189.74,NULL,Hoffnung,matarajio,s,kutaalamika,uratibu,mvumbuzi,NA,sdfdsf,0,1,NA,NA,NA,NA,NA,NA,NA,NA,NA,NA,NA,NA,NA,NA,NA,NA,NA,NA,NA
3883f,shallow,flow.Sequence,5_0_1_0_2_1,NA,NA,completion,16564.64,591598,591591.92,591608.5,608173.14,608175,2023-07-27T18:22:06Z,608189.74,NULL,Hoffnung,matarajio,s,kutaalamika,uratibu,mvumbuzi,NA,sdfdsf,NA,1,NA,NA,NA,NA,NA,NA,NA,NA,NA,NA,NA,NA,NA,NA,NA,NA,NA,NA,NA
3883f,task,flow.Sequence,5_0_1_0_2,NA,NA,completion,16564.64,591597,591591.92,591608.5,608173.14,608176,2023-07-27T18:22:06Z,608189.74,NULL,Hoffnung,matarajio,s,kutaalamika,uratibu,mvumbuzi,NA,sdfdsf,NA,1,NA,NA,NA,NA,NA,NA,NA,NA,NA,NA,NA,NA,NA,NA,NA,NA,NA,NA,NA
3883f,deep,flow.Sequence,5_0_1_0_3_0,NA,NA,skipped,NA,608177,NA,NA,608173.14,608177,2023-07-27T18:22:06Z,608189.74,NULL,Verpackung,ufungaji,s,uhusiano,upimaji,uchunguzi,NA,sdfdsf,NA,1,NA,NA,NA,NA,NA,NA,NA,NA,NA,NA,NA,NA,NA,NA,NA,NA,NA,NA,NA
3883f,Shallow Question,html.Page,5_0_1_0_3_1_0,NA,NA,form submission,8931.26,608177,608173.14,608189.74,617121,617122,2023-07-27T18:22:15Z,617121.82,NULL,Verpackung,ufungaji,s,uhusiano,upimaji,uchunguzi,ufungaji,NA,NA,1,NA,NA,NA,NA,NA,NA,NA,NA,NA,NA,NA,NA,NA,NA,NA,NA,NA,NA,NA
3883f,"""Richtig""-Screen",canvas.Screen,5_0_1_0_3_1_1,NA,NA,timeout,4999.42,617125,617117.56,617121.82,622104.64,622106,2023-07-27T18:22:20Z,622121.24,NULL,Verpackung,ufungaji,s,uhusiano,upimaji,uchunguzi,NA,sdfdsf,1,1,NA,NA,NA,NA,NA,NA,NA,NA,NA,NA,NA,NA,NA,NA,NA,NA,NA,NA,NA
3883f,"""Falsch""-Screen",canvas.Screen,5_0_1_0_3_1_2,NA,NA,skipped,NA,622114,NA,NA,622104.64,622114,2023-07-27T18:22:20Z,622121.24,NULL,Verpackung,ufungaji,s,uhusiano,upimaji,uchunguzi,NA,sdfdsf,NA,1,NA,NA,NA,NA,NA,NA,NA,NA,NA,NA,NA,NA,NA,NA,NA,NA,NA,NA,NA
3883f,shallow,flow.Sequence,5_0_1_0_3_1,NA,NA,completion,13914.9,608177,608173.14,608189.74,622104.64,622115,2023-07-27T18:22:20Z,622121.24,NULL,Verpackung,ufungaji,s,uhusiano,upimaji,uchunguzi,NA,sdfdsf,NA,1,NA,NA,NA,NA,NA,NA,NA,NA,NA,NA,NA,NA,NA,NA,NA,NA,NA,NA,NA
3883f,task,flow.Sequence,5_0_1_0_3,NA,NA,completion,13914.9,608176,608173.14,608189.74,622104.64,622116,2023-07-27T18:22:20Z,622121.24,NULL,Verpackung,ufungaji,s,uhusiano,upimaji,uchunguzi,NA,sdfdsf,NA,1,NA,NA,NA,NA,NA,NA,NA,NA,NA,NA,NA,NA,NA,NA,NA,NA,NA,NA,NA
3883f,deep,flow.Sequence,5_0_1_0_4_0,NA,NA,skipped,NA,622116,NA,NA,622104.64,622116,2023-07-27T18:22:20Z,622121.24,NULL,Auftrag,uagizaji,s,ghanima,kuzingatia,msukani,NA,sdfdsf,NA,1,NA,NA,NA,NA,NA,NA,NA,NA,NA,NA,NA,NA,NA,NA,NA,NA,NA,NA,NA
3883f,Shallow Question,html.Page,5_0_1_0_4_1_0,NA,NA,form submission,7516.76,622117,622104.64,622121.24,629638,629638,2023-07-27T18:22:28Z,629636.86,NULL,Auftrag,uagizaji,s,ghanima,kuzingatia,msukani,msukani,NA,NA,1,NA,NA,NA,NA,NA,NA,NA,NA,NA,NA,NA,NA,NA,NA,NA,NA,NA,NA,NA
3883f,"""Richtig""-Screen",canvas.Screen,5_0_1_0_4_1_1,NA,NA,skipped,NA,629641,NA,NA,629638,629641,2023-07-27T18:22:28Z,629636.86,NULL,Auftrag,uagizaji,s,ghanima,kuzingatia,msukani,NA,sdfdsf,NA,1,NA,NA,NA,NA,NA,NA,NA,NA,NA,NA,NA,NA,NA,NA,NA,NA,NA,NA,NA
3883f,"""Falsch""-Screen",canvas.Screen,5_0_1_0_4_1_2,NA,NA,timeout,4999.46,629644,629636.08,629636.86,634619.64,634620,2023-07-27T18:22:33Z,634636.32,NULL,Auftrag,uagizaji,s,ghanima,kuzingatia,msukani,NA,sdfdsf,0,1,NA,NA,NA,NA,NA,NA,NA,NA,NA,NA,NA,NA,NA,NA,NA,NA,NA,NA,NA
3883f,shallow,flow.Sequence,5_0_1_0_4_1,NA,NA,completion,12498.4,622117,622104.64,622121.24,634619.64,634621,2023-07-27T18:22:33Z,634636.32,NULL,Auftrag,uagizaji,s,ghanima,kuzingatia,msukani,NA,sdfdsf,NA,1,NA,NA,NA,NA,NA,NA,NA,NA,NA,NA,NA,NA,NA,NA,NA,NA,NA,NA,NA
3883f,task,flow.Sequence,5_0_1_0_4,NA,NA,completion,12498.4,622116,622104.64,622121.24,634619.64,634621,2023-07-27T18:22:33Z,634636.32,NULL,Auftrag,uagizaji,s,ghanima,kuzingatia,msukani,NA,sdfdsf,NA,1,NA,NA,NA,NA,NA,NA,NA,NA,NA,NA,NA,NA,NA,NA,NA,NA,NA,NA,NA
3883f,Deep Question,html.Page,5_0_1_0_5_0_0,NA,NA,form submission,3612.6800000001,634622,634619.64,634636.32,638249,638252,2023-07-27T18:22:36Z,638252.44,NULL,Zufall,kikuti,d,NA,NA,NA,kl,NA,NA,1,NA,NA,NA,NA,NA,NA,NA,NA,NA,NA,NA,NA,NA,NA,NA,NA,NA,NA,NA
3883f,"""Richtig""-Screen",canvas.Screen,5_0_1_0_5_0_1,NA,NA,skipped,NA,638259,NA,NA,638249,638259,2023-07-27T18:22:36Z,638252.44,NULL,Zufall,kikuti,d,NA,NA,NA,NA,sdfdsf,NA,1,NA,NA,NA,NA,NA,NA,NA,NA,NA,NA,NA,NA,NA,NA,NA,NA,NA,NA,NA
3883f,"""Falsch""-Screen",canvas.Screen,5_0_1_0_5_0_2,NA,NA,timeout,4999.3600000001,638261,638247.02,638252.44,643235.12,643237,2023-07-27T18:22:41Z,643251.8,NULL,Zufall,kikuti,d,NA,NA,NA,NA,sdfdsf,0,1,NA,NA,NA,NA,NA,NA,NA,NA,NA,NA,NA,NA,NA,NA,NA,NA,NA,NA,NA
3883f,deep,flow.Sequence,5_0_1_0_5_0,NA,NA,completion,8598.8,634622,634619.64,634636.32,643235.12,643238,2023-07-27T18:22:41Z,643251.8,NULL,Zufall,kikuti,d,NA,NA,NA,NA,sdfdsf,NA,1,NA,NA,NA,NA,NA,NA,NA,NA,NA,NA,NA,NA,NA,NA,NA,NA,NA,NA,NA
3883f,shallow,flow.Sequence,5_0_1_0_5_1,NA,NA,skipped,NA,643238,NA,NA,643235.12,643239,2023-07-27T18:22:41Z,643251.8,NULL,Zufall,kikuti,d,NA,NA,NA,NA,sdfdsf,NA,1,NA,NA,NA,NA,NA,NA,NA,NA,NA,NA,NA,NA,NA,NA,NA,NA,NA,NA,NA
3883f,task,flow.Sequence,5_0_1_0_5,NA,NA,completion,8598.8,634622,634619.64,634636.32,643235.12,643240,2023-07-27T18:22:41Z,643251.8,NULL,Zufall,kikuti,d,NA,NA,NA,NA,sdfdsf,NA,1,NA,NA,NA,NA,NA,NA,NA,NA,NA,NA,NA,NA,NA,NA,NA,NA,NA,NA,NA
3883f,Deep Question,html.Page,5_0_1_0_6_0_0,NA,NA,form submission,2736.2,643241,643235.12,643251.8,645988,645988,2023-07-27T18:22:44Z,646001.36,NULL,Schock,mshtuko,d,NA,NA,NA,lk,NA,NA,1,NA,NA,NA,NA,NA,NA,NA,NA,NA,NA,NA,NA,NA,NA,NA,NA,NA,NA,NA
3883f,"""Richtig""-Screen",canvas.Screen,5_0_1_0_6_0_1,NA,NA,skipped,NA,645991,NA,NA,645988,645991,2023-07-27T18:22:44Z,646001.36,NULL,Schock,mshtuko,d,NA,NA,NA,NA,sdfdsf,NA,1,NA,NA,NA,NA,NA,NA,NA,NA,NA,NA,NA,NA,NA,NA,NA,NA,NA,NA,NA
3883f,"""Falsch""-Screen",canvas.Screen,5_0_1_0_6_0_2,NA,NA,timeout,4999.5,645994,645986.44,646001.36,650984.2,650986,2023-07-27T18:22:49Z,651000.86,NULL,Schock,mshtuko,d,NA,NA,NA,NA,sdfdsf,0,1,NA,NA,NA,NA,NA,NA,NA,NA,NA,NA,NA,NA,NA,NA,NA,NA,NA,NA,NA
3883f,deep,flow.Sequence,5_0_1_0_6_0,NA,NA,completion,7732.3999999999,643240,643235.12,643251.8,650984.2,650987,2023-07-27T18:22:49Z,651000.86,NULL,Schock,mshtuko,d,NA,NA,NA,NA,sdfdsf,NA,1,NA,NA,NA,NA,NA,NA,NA,NA,NA,NA,NA,NA,NA,NA,NA,NA,NA,NA,NA
3883f,shallow,flow.Sequence,5_0_1_0_6_1,NA,NA,skipped,NA,650987,NA,NA,650984.2,650988,2023-07-27T18:22:49Z,651000.86,NULL,Schock,mshtuko,d,NA,NA,NA,NA,sdfdsf,NA,1,NA,NA,NA,NA,NA,NA,NA,NA,NA,NA,NA,NA,NA,NA,NA,NA,NA,NA,NA
3883f,task,flow.Sequence,5_0_1_0_6,NA,NA,completion,7732.3999999999,643240,643235.12,643251.8,650984.2,650989,2023-07-27T18:22:49Z,651000.86,NULL,Schock,mshtuko,d,NA,NA,NA,NA,sdfdsf,NA,1,NA,NA,NA,NA,NA,NA,NA,NA,NA,NA,NA,NA,NA,NA,NA,NA,NA,NA,NA
3883f,Deep Question,html.Page,5_0_1_0_7_0_0,NA,NA,form submission,3037.14,650990,650984.2,651000.86,654038,654039,2023-07-27T18:22:52Z,654037.04,NULL,Schönheit,kirembo,d,NA,NA,NA,kj,NA,NA,1,NA,NA,NA,NA,NA,NA,NA,NA,NA,NA,NA,NA,NA,NA,NA,NA,NA,NA,NA
3883f,"""Richtig""-Screen",canvas.Screen,5_0_1_0_7_0_1,NA,NA,skipped,NA,654041,NA,NA,654038,654041,2023-07-27T18:22:52Z,654037.04,NULL,Schönheit,kirembo,d,NA,NA,NA,NA,sdfdsf,NA,1,NA,NA,NA,NA,NA,NA,NA,NA,NA,NA,NA,NA,NA,NA,NA,NA,NA,NA,NA
3883f,"""Falsch""-Screen",canvas.Screen,5_0_1_0_7_0_2,NA,NA,timeout,4996.0599999999,654045,654036.7,654037.04,659016.44,659018,2023-07-27T18:22:57Z,659033.1,NULL,Schönheit,kirembo,d,NA,NA,NA,NA,sdfdsf,0,1,NA,NA,NA,NA,NA,NA,NA,NA,NA,NA,NA,NA,NA,NA,NA,NA,NA,NA,NA
3883f,deep,flow.Sequence,5_0_1_0_7_0,NA,NA,completion,8015.58,650990,650984.2,651000.86,659016.44,659018,2023-07-27T18:22:57Z,659033.1,NULL,Schönheit,kirembo,d,NA,NA,NA,NA,sdfdsf,NA,1,NA,NA,NA,NA,NA,NA,NA,NA,NA,NA,NA,NA,NA,NA,NA,NA,NA,NA,NA
3883f,shallow,flow.Sequence,5_0_1_0_7_1,NA,NA,skipped,NA,659019,NA,NA,659016.44,659019,2023-07-27T18:22:57Z,659033.1,NULL,Schönheit,kirembo,d,NA,NA,NA,NA,sdfdsf,NA,1,NA,NA,NA,NA,NA,NA,NA,NA,NA,NA,NA,NA,NA,NA,NA,NA,NA,NA,NA
3883f,task,flow.Sequence,5_0_1_0_7,NA,NA,completion,8015.58,650989,650984.2,651000.86,659016.44,659020,2023-07-27T18:22:57Z,659033.1,NULL,Schönheit,kirembo,d,NA,NA,NA,NA,sdfdsf,NA,1,NA,NA,NA,NA,NA,NA,NA,NA,NA,NA,NA,NA,NA,NA,NA,NA,NA,NA,NA
3883f,block,flow.Loop,5_0_1_0,NA,NA,completion,87810.52,571205,571205.56,571205.92,659016.44,659021,2023-07-27T18:22:57Z,659033.1,NULL,NA,NA,NA,NA,NA,NA,NA,sdfdsf,NA,1,NA,NA,NA,NA,NA,NA,NA,NA,NA,NA,NA,NA,NA,NA,NA,NA,NA,NA,NA
3883f,weiter,canvas.Screen,5_0_1_1,sdf,keypress(Space),response,4000.9,659021,659016.44,659033.1,663034,663047,2023-07-27T18:23:01Z,663119.62,NULL,NA,NA,NA,NA,NA,NA,NA,sdfdsf,NA,1,NA,NA,NA,NA,NA,NA,NA,NA,NA,NA,NA,NA,NA,NA,NA,NA,NA,NA,NA
3883f,check continue,flow.Sequence,5_0_1,NA,NA,completion,91828.08,571205,571205.56,571205.92,663034,663048,2023-07-27T18:23:01Z,663119.62,NULL,NA,NA,NA,NA,NA,NA,NA,sdfdsf,NA,1,NA,NA,NA,NA,NA,NA,NA,NA,NA,NA,NA,NA,NA,NA,NA,NA,NA,NA,NA
3883f,deep,flow.Sequence,5_0_2_0_0_0,NA,NA,skipped,NA,663119,NA,NA,663034,663119,2023-07-27T18:23:01Z,663119.62,NULL,Hoffnung,matarajio,s,kutaalamika,uratibu,mvumbuzi,NA,sdf,NA,2,NA,NA,NA,NA,NA,NA,NA,NA,NA,NA,NA,NA,NA,NA,NA,NA,NA,NA,NA
3883f,Shallow Question,html.Page,5_0_2_0_0_1_0,NA,NA,form submission,10867.38,663120,663119.3,663119.62,673987,673987,2023-07-27T18:23:12Z,673997.74,NULL,Hoffnung,matarajio,s,kutaalamika,uratibu,mvumbuzi,matarajio,NA,NA,2,NA,NA,NA,NA,NA,NA,NA,NA,NA,NA,NA,NA,NA,NA,NA,NA,NA,NA,NA
3883f,"""Richtig""-Screen",canvas.Screen,5_0_2_0_0_1_1,NA,NA,timeout,4999.42,673991,673983.1,673997.74,678980.52,678982,2023-07-27T18:23:17Z,678997.16,NULL,Hoffnung,matarajio,s,kutaalamika,uratibu,mvumbuzi,NA,sdf,1,2,NA,NA,NA,NA,NA,NA,NA,NA,NA,NA,NA,NA,NA,NA,NA,NA,NA,NA,NA
3883f,"""Falsch""-Screen",canvas.Screen,5_0_2_0_0_1_2,NA,NA,skipped,NA,678989,NA,NA,678980.52,678989,2023-07-27T18:23:17Z,678997.16,NULL,Hoffnung,matarajio,s,kutaalamika,uratibu,mvumbuzi,NA,sdf,NA,2,NA,NA,NA,NA,NA,NA,NA,NA,NA,NA,NA,NA,NA,NA,NA,NA,NA,NA,NA
3883f,shallow,flow.Sequence,5_0_2_0_0_1,NA,NA,completion,15860.9,663120,663119.3,663119.62,678980.52,678990,2023-07-27T18:23:17Z,678997.16,NULL,Hoffnung,matarajio,s,kutaalamika,uratibu,mvumbuzi,NA,sdf,NA,2,NA,NA,NA,NA,NA,NA,NA,NA,NA,NA,NA,NA,NA,NA,NA,NA,NA,NA,NA
3883f,task,flow.Sequence,5_0_2_0_0,NA,NA,completion,15860.9,663119,663119.3,663119.62,678980.52,678990,2023-07-27T18:23:17Z,678997.16,NULL,Hoffnung,matarajio,s,kutaalamika,uratibu,mvumbuzi,NA,sdf,NA,2,NA,NA,NA,NA,NA,NA,NA,NA,NA,NA,NA,NA,NA,NA,NA,NA,NA,NA,NA
3883f,deep,flow.Sequence,5_0_2_0_1_0,NA,NA,skipped,NA,678990,NA,NA,678980.52,678991,2023-07-27T18:23:17Z,678997.16,NULL,Verpackung,ufungaji,s,uhusiano,upimaji,uchunguzi,NA,sdf,NA,2,NA,NA,NA,NA,NA,NA,NA,NA,NA,NA,NA,NA,NA,NA,NA,NA,NA,NA,NA
3883f,Shallow Question,html.Page,5_0_2_0_1_1_0,NA,NA,form submission,6018.84,678991,678980.52,678997.16,685016,685016,2023-07-27T18:23:23Z,685013.06,NULL,Verpackung,ufungaji,s,uhusiano,upimaji,uchunguzi,ufungaji,NA,NA,2,NA,NA,NA,NA,NA,NA,NA,NA,NA,NA,NA,NA,NA,NA,NA,NA,NA,NA,NA
3883f,"""Richtig""-Screen",canvas.Screen,5_0_2_0_1_1_1,NA,NA,timeout,4999.2799999999,685019,685011.9,685013.06,689995.76,689997,2023-07-27T18:23:28Z,690012.34,NULL,Verpackung,ufungaji,s,uhusiano,upimaji,uchunguzi,NA,sdf,1,2,NA,NA,NA,NA,NA,NA,NA,NA,NA,NA,NA,NA,NA,NA,NA,NA,NA,NA,NA
3883f,"""Falsch""-Screen",canvas.Screen,5_0_2_0_1_1_2,NA,NA,skipped,NA,690004,NA,NA,689995.76,690004,2023-07-27T18:23:28Z,690012.34,NULL,Verpackung,ufungaji,s,uhusiano,upimaji,uchunguzi,NA,sdf,NA,2,NA,NA,NA,NA,NA,NA,NA,NA,NA,NA,NA,NA,NA,NA,NA,NA,NA,NA,NA
3883f,shallow,flow.Sequence,5_0_2_0_1_1,NA,NA,completion,10998.6,678991,678980.52,678997.16,689995.76,690005,2023-07-27T18:23:28Z,690012.34,NULL,Verpackung,ufungaji,s,uhusiano,upimaji,uchunguzi,NA,sdf,NA,2,NA,NA,NA,NA,NA,NA,NA,NA,NA,NA,NA,NA,NA,NA,NA,NA,NA,NA,NA
3883f,task,flow.Sequence,5_0_2_0_1,NA,NA,completion,10998.6,678990,678980.52,678997.16,689995.76,690005,2023-07-27T18:23:28Z,690012.34,NULL,Verpackung,ufungaji,s,uhusiano,upimaji,uchunguzi,NA,sdf,NA,2,NA,NA,NA,NA,NA,NA,NA,NA,NA,NA,NA,NA,NA,NA,NA,NA,NA,NA,NA
3883f,deep,flow.Sequence,5_0_2_0_2_0,NA,NA,skipped,NA,690005,NA,NA,689995.76,690006,2023-07-27T18:23:28Z,690012.34,NULL,Auftrag,uagizaji,s,ghanima,kuzingatia,msukani,NA,sdf,NA,2,NA,NA,NA,NA,NA,NA,NA,NA,NA,NA,NA,NA,NA,NA,NA,NA,NA,NA,NA
3883f,Shallow Question,html.Page,5_0_2_0_2_1_0,NA,NA,form submission,6951.66,690006,689995.76,690012.34,696964,696964,2023-07-27T18:23:35Z,696961.46,NULL,Auftrag,uagizaji,s,ghanima,kuzingatia,msukani,uagizaji,NA,NA,2,NA,NA,NA,NA,NA,NA,NA,NA,NA,NA,NA,NA,NA,NA,NA,NA,NA,NA,NA
3883f,"""Richtig""-Screen",canvas.Screen,5_0_2_0_2_1_1,NA,NA,timeout,4999.4400000001,696967,696960.9,696961.46,701944.26,701946,2023-07-27T18:23:40Z,701960.9,NULL,Auftrag,uagizaji,s,ghanima,kuzingatia,msukani,NA,sdf,1,2,NA,NA,NA,NA,NA,NA,NA,NA,NA,NA,NA,NA,NA,NA,NA,NA,NA,NA,NA
3883f,"""Falsch""-Screen",canvas.Screen,5_0_2_0_2_1_2,NA,NA,skipped,NA,701951,NA,NA,701944.26,701952,2023-07-27T18:23:40Z,701960.9,NULL,Auftrag,uagizaji,s,ghanima,kuzingatia,msukani,NA,sdf,NA,2,NA,NA,NA,NA,NA,NA,NA,NA,NA,NA,NA,NA,NA,NA,NA,NA,NA,NA,NA
3883f,shallow,flow.Sequence,5_0_2_0_2_1,NA,NA,completion,11931.92,690006,689995.76,690012.34,701944.26,701952,2023-07-27T18:23:40Z,701960.9,NULL,Auftrag,uagizaji,s,ghanima,kuzingatia,msukani,NA,sdf,NA,2,NA,NA,NA,NA,NA,NA,NA,NA,NA,NA,NA,NA,NA,NA,NA,NA,NA,NA,NA
3883f,task,flow.Sequence,5_0_2_0_2,NA,NA,completion,11931.92,690005,689995.76,690012.34,701944.26,701952,2023-07-27T18:23:40Z,701960.9,NULL,Auftrag,uagizaji,s,ghanima,kuzingatia,msukani,NA,sdf,NA,2,NA,NA,NA,NA,NA,NA,NA,NA,NA,NA,NA,NA,NA,NA,NA,NA,NA,NA,NA
3883f,Deep Question,html.Page,5_0_2_0_3_0_0,NA,NA,form submission,5037.1,701953,701944.26,701960.9,706998,706999,2023-07-27T18:23:45Z,706997.62,NULL,Schönheit,kirembo,d,NA,NA,NA,kirembo,NA,NA,2,NA,NA,NA,NA,NA,NA,NA,NA,NA,NA,NA,NA,NA,NA,NA,NA,NA,NA,NA
3883f,"""Richtig""-Screen",canvas.Screen,5_0_2_0_3_0_1,NA,NA,timeout,4995.24,707001,706997.26,706997.62,711976.2,711983,2023-07-27T18:23:50Z,711992.86,NULL,Schönheit,kirembo,d,NA,NA,NA,NA,sdf,1,2,NA,NA,NA,NA,NA,NA,NA,NA,NA,NA,NA,NA,NA,NA,NA,NA,NA,NA,NA
3883f,"""Falsch""-Screen",canvas.Screen,5_0_2_0_3_0_2,NA,NA,skipped,NA,711996,NA,NA,711976.2,711996,2023-07-27T18:23:50Z,711992.86,NULL,Schönheit,kirembo,d,NA,NA,NA,NA,sdf,NA,2,NA,NA,NA,NA,NA,NA,NA,NA,NA,NA,NA,NA,NA,NA,NA,NA,NA,NA,NA
3883f,deep,flow.Sequence,5_0_2_0_3_0,NA,NA,completion,10015.3,701953,701944.26,701960.9,711976.2,711997,2023-07-27T18:23:50Z,711992.86,NULL,Schönheit,kirembo,d,NA,NA,NA,NA,sdf,NA,2,NA,NA,NA,NA,NA,NA,NA,NA,NA,NA,NA,NA,NA,NA,NA,NA,NA,NA,NA
