observation,sender,sender_type,sender_id,response,response_action,ended_on,duration,time_run,time_render,time_show,time_end,time_commit,timestamp,time_switch,distractors,german,swahili,enc,distractor1,distractor2,distractor3,response_2,x,correct,x_2,url_vp,url_sess,meta_labjs_version,meta_location,meta_user_agent,meta_platform,meta_language,meta_locale,meta_time_zone,meta_timezone_offset,meta_screen_width,meta_screen_height,meta_scroll_width,meta_scroll_height,meta_window_inner_width,meta_window_inner_height,meta_device_pixel_ratio,meta_labjs_build_flavor,meta_labjs_build_commit
1e0cb,Introduction general,canvas.Screen,0,weiter,keypress(q),response,51891.099999952,537.89999985695,521.124,554.2,52445.299999952,52448.899999857,2024-05-12T10:30:27Z,52455.8,NULL,NA,NA,NA,NA,NA,NA,NA,NA,NA,NA,196,1,20.2.4,https://neurocog.fernuni.ch/studies/vweber/aberisha/encoding_immediate/index.html?vp=196&sess=1,"Mozilla/5.0 (Windows NT 10.0; Win64; x64) AppleWebKit/537.36 (KHTML, like Gecko) Chrome/124.0.0.0 Safari/537.36",Win32,de-DE,de,Europe/Zurich,-120,1536,864,1536,682,1536,730,1.25,production,f5b4a49f956347addd546a832a3327688c2c0fef
1e0cb,Introduction practice,canvas.Screen,1_0,NA,keypress(Space),response,3640.4000000477,52449.599999904996,52447.802,52455.8,56096.200000048,56097.399999857,2024-05-12T10:30:31Z,56103.6,NULL,NA,NA,NA,NA,NA,NA,NA,NA,NA,NA,NA,NA,NA,NA,NA,NA,NA,NA,NA,NA,NA,NA,NA,NA,NA,NA,NA,NA,NA
1e0cb,deep,flow.Sequence,1_1_0_0,NA,NA,skipped,NA,56097.899999857,NA,NA,56096.200000048,56098.299999952,2024-05-12T10:30:31Z,56103.6,"c(""distractor1"", ""distractor2"", ""distractor3"")",Rückhalt,msaada,s,muhula,auwali,kiwimbe,NA,NA,NA,NA,NA,NA,NA,NA,NA,NA,NA,NA,NA,NA,NA,NA,NA,NA,NA,NA,NA,NA,NA
1e0cb,Shallow Question,html.Page,1_1_0_1_0,NA,NA,form submission,19531.699999952,56098.599999904996,56090.8,56103.6,75635.299999952,75635.700000048,2024-05-12T10:30:51Z,75641.9,"c(""distractor1"", ""distractor2"", ""distractor3"")",Rückhalt,msaada,s,muhula,auwali,kiwimbe,muhula,NA,NA,NA,NA,NA,NA,NA,NA,NA,NA,NA,NA,NA,NA,NA,NA,NA,NA,NA,NA,NA,NA
1e0cb,"""Richtig""-Screen",canvas.Screen,1_1_0_1_1,NA,NA,skipped,NA,75637.099999905,NA,NA,75635.299999952,75637.200000048,2024-05-12T10:30:51Z,75641.9,"c(""distractor1"", ""distractor2"", ""distractor3"")",Rückhalt,msaada,s,muhula,auwali,kiwimbe,NA,NA,NA,NA,NA,NA,NA,NA,NA,NA,NA,NA,NA,NA,NA,NA,NA,NA,NA,NA,NA,NA,NA
1e0cb,"""Falsch""-Screen",canvas.Screen,1_1_0_1_2,NA,NA,timeout,4997.1,75638.099999905,75625.526,75641.9,80622.2,80627.200000048,2024-05-12T10:30:56Z,80639,"c(""distractor1"", ""distractor2"", ""distractor3"")",Rückhalt,msaada,s,muhula,auwali,kiwimbe,NA,NA,0,NA,NA,NA,NA,NA,NA,NA,NA,NA,NA,NA,NA,NA,NA,NA,NA,NA,NA,NA,NA
1e0cb,shallow,flow.Sequence,1_1_0_1,NA,NA,completion,24518.6,56098.599999904996,56090.8,56103.6,80622.2,80627.700000048,2024-05-12T10:30:56Z,80639,"c(""distractor1"", ""distractor2"", ""distractor3"")",Rückhalt,msaada,s,muhula,auwali,kiwimbe,NA,NA,NA,NA,NA,NA,NA,NA,NA,NA,NA,NA,NA,NA,NA,NA,NA,NA,NA,NA,NA,NA,NA
1e0cb,task,flow.Sequence,1_1_0,NA,NA,completion,24518.6,56097.899999857,56090.8,56103.6,80622.2,80628,2024-05-12T10:30:56Z,80639,"c(""distractor1"", ""distractor2"", ""distractor3"")",Rückhalt,msaada,s,muhula,auwali,kiwimbe,NA,NA,NA,NA,NA,NA,NA,NA,NA,NA,NA,NA,NA,NA,NA,NA,NA,NA,NA,NA,NA,NA,NA
1e0cb,Deep Question,html.Page,1_1_1_0_0,NA,NA,form submission,10804.799999952,80628.299999952,80622.2,80639,91443.799999952,91444.099999905,2024-05-12T10:31:06Z,91449.514,"c(""distractor1"", ""distractor2"", ""distractor3"")",Gesundheit,salama,d,NA,NA,NA,awsr,NA,NA,NA,NA,NA,NA,NA,NA,NA,NA,NA,NA,NA,NA,NA,NA,NA,NA,NA,NA,NA,NA
1e0cb,"""Richtig""-Screen",canvas.Screen,1_1_1_0_1,NA,NA,skipped,NA,91447.5,NA,NA,91443.799999952,91447.700000048,2024-05-12T10:31:06Z,91449.514,"c(""distractor1"", ""distractor2"", ""distractor3"")",Gesundheit,salama,d,NA,NA,NA,NA,NA,NA,NA,NA,NA,NA,NA,NA,NA,NA,NA,NA,NA,NA,NA,NA,NA,NA,NA,NA,NA,NA
1e0cb,"""Falsch""-Screen",canvas.Screen,1_1_1_0_2,NA,NA,timeout,4996.386,91448.899999857,91449.514,91449.514,96429,96430.099999905,2024-05-12T10:31:11Z,96445.9,"c(""distractor1"", ""distractor2"", ""distractor3"")",Gesundheit,salama,d,NA,NA,NA,NA,NA,0,NA,NA,NA,NA,NA,NA,NA,NA,NA,NA,NA,NA,NA,NA,NA,NA,NA,NA,NA,NA
1e0cb,deep,flow.Sequence,1_1_1_0,NA,NA,completion,15790,80628.299999952,80622.2,80639,96429,96430.5,2024-05-12T10:31:11Z,96445.9,"c(""distractor1"", ""distractor2"", ""distractor3"")",Gesundheit,salama,d,NA,NA,NA,NA,NA,NA,NA,NA,NA,NA,NA,NA,NA,NA,NA,NA,NA,NA,NA,NA,NA,NA,NA,NA,NA,NA
1e0cb,shallow,flow.Sequence,1_1_1_1,NA,NA,skipped,NA,96430.700000048,NA,NA,96429,96431,2024-05-12T10:31:11Z,96445.9,"c(""distractor1"", ""distractor2"", ""distractor3"")",Gesundheit,salama,d,NA,NA,NA,NA,NA,NA,NA,NA,NA,NA,NA,NA,NA,NA,NA,NA,NA,NA,NA,NA,NA,NA,NA,NA,NA,NA
1e0cb,task,flow.Sequence,1_1_1,NA,NA,completion,15790,80628.200000048,80622.2,80639,96429,96431.099999905,2024-05-12T10:31:11Z,96445.9,"c(""distractor1"", ""distractor2"", ""distractor3"")",Gesundheit,salama,d,NA,NA,NA,NA,NA,NA,NA,NA,NA,NA,NA,NA,NA,NA,NA,NA,NA,NA,NA,NA,NA,NA,NA,NA,NA,NA
1e0cb,Deep Question,html.Page,1_1_2_0_0,NA,NA,form submission,6446.1,96431.399999857,96429,96445.9,102892,102892.39999986,2024-05-12T10:31:18Z,102910.1,"c(""distractor1"", ""distractor2"", ""distractor3"")",Qualität,mtindo,d,NA,NA,NA,tgundd,NA,NA,NA,NA,NA,NA,NA,NA,NA,NA,NA,NA,NA,NA,NA,NA,NA,NA,NA,NA,NA,NA
1e0cb,"""Richtig""-Screen",canvas.Screen,1_1_2_0_1,NA,NA,skipped,NA,102895.5999999,NA,NA,102892,102895.70000005,2024-05-12T10:31:18Z,102910.1,"c(""distractor1"", ""distractor2"", ""distractor3"")",Qualität,mtindo,d,NA,NA,NA,NA,NA,NA,NA,NA,NA,NA,NA,NA,NA,NA,NA,NA,NA,NA,NA,NA,NA,NA,NA,NA,NA,NA
1e0cb,"""Falsch""-Screen",canvas.Screen,1_1_2_0_2,NA,NA,timeout,4995.6,102896.29999995,102892.356,102910.1,107888.8,107890.0999999,2024-05-12T10:31:23Z,107905.7,"c(""distractor1"", ""distractor2"", ""distractor3"")",Qualität,mtindo,d,NA,NA,NA,NA,NA,0,NA,NA,NA,NA,NA,NA,NA,NA,NA,NA,NA,NA,NA,NA,NA,NA,NA,NA,NA,NA
1e0cb,deep,flow.Sequence,1_1_2_0,NA,NA,completion,11442.9,96431.399999857,96429,96445.9,107888.8,107890.5,2024-05-12T10:31:23Z,107905.7,"c(""distractor1"", ""distractor2"", ""distractor3"")",Qualität,mtindo,d,NA,NA,NA,NA,NA,NA,NA,NA,NA,NA,NA,NA,NA,NA,NA,NA,NA,NA,NA,NA,NA,NA,NA,NA,NA,NA
1e0cb,shallow,flow.Sequence,1_1_2_1,NA,NA,skipped,NA,107890.5999999,NA,NA,107888.8,107890.70000005,2024-05-12T10:31:23Z,107905.7,"c(""distractor1"", ""distractor2"", ""distractor3"")",Qualität,mtindo,d,NA,NA,NA,NA,NA,NA,NA,NA,NA,NA,NA,NA,NA,NA,NA,NA,NA,NA,NA,NA,NA,NA,NA,NA,NA,NA
1e0cb,task,flow.Sequence,1_1_2,NA,NA,completion,11442.9,96431.299999952,96429,96445.9,107888.8,107891.0999999,2024-05-12T10:31:23Z,107905.7,"c(""distractor1"", ""distractor2"", ""distractor3"")",Qualität,mtindo,d,NA,NA,NA,NA,NA,NA,NA,NA,NA,NA,NA,NA,NA,NA,NA,NA,NA,NA,NA,NA,NA,NA,NA,NA,NA,NA
1e0cb,Deep Question,html.Page,1_1_3_0_0,NA,NA,form submission,6726.199999857,107891.29999995,107888.8,107905.7,114631.89999986,114632.0999999,2024-05-12T10:31:30Z,114635.248,"c(""distractor1"", ""distractor2"", ""distractor3"")",Schatten,kivuli,d,NA,NA,NA,hgdsy,NA,NA,NA,NA,NA,NA,NA,NA,NA,NA,NA,NA,NA,NA,NA,NA,NA,NA,NA,NA,NA,NA
1e0cb,"""Richtig""-Screen",canvas.Screen,1_1_3_0_1,NA,NA,skipped,NA,114635.20000005,NA,NA,114631.89999986,114635.39999986,2024-05-12T10:31:30Z,114635.248,"c(""distractor1"", ""distractor2"", ""distractor3"")",Schatten,kivuli,d,NA,NA,NA,NA,NA,NA,NA,NA,NA,NA,NA,NA,NA,NA,NA,NA,NA,NA,NA,NA,NA,NA,NA,NA,NA,NA
1e0cb,"""Falsch""-Screen",canvas.Screen,1_1_3_0_2,NA,NA,timeout,4996.652,114635.89999986,114635.248,114635.248,119614.9,119616,2024-05-12T10:31:35Z,119631.9,"c(""distractor1"", ""distractor2"", ""distractor3"")",Schatten,kivuli,d,NA,NA,NA,NA,NA,0,NA,NA,NA,NA,NA,NA,NA,NA,NA,NA,NA,NA,NA,NA,NA,NA,NA,NA,NA,NA
1e0cb,deep,flow.Sequence,1_1_3_0,NA,NA,completion,11709.2,107891.29999995,107888.8,107905.7,119614.9,119616.39999986,2024-05-12T10:31:35Z,119631.9,"c(""distractor1"", ""distractor2"", ""distractor3"")",Schatten,kivuli,d,NA,NA,NA,NA,NA,NA,NA,NA,NA,NA,NA,NA,NA,NA,NA,NA,NA,NA,NA,NA,NA,NA,NA,NA,NA,NA
1e0cb,shallow,flow.Sequence,1_1_3_1,NA,NA,skipped,NA,119616.5999999,NA,NA,119614.9,119616.70000005,2024-05-12T10:31:35Z,119631.9,"c(""distractor1"", ""distractor2"", ""distractor3"")",Schatten,kivuli,d,NA,NA,NA,NA,NA,NA,NA,NA,NA,NA,NA,NA,NA,NA,NA,NA,NA,NA,NA,NA,NA,NA,NA,NA,NA,NA
1e0cb,task,flow.Sequence,1_1_3,NA,NA,completion,11709.2,107891.20000005,107888.8,107905.7,119614.9,119617,2024-05-12T10:31:35Z,119631.9,"c(""distractor1"", ""distractor2"", ""distractor3"")",Schatten,kivuli,d,NA,NA,NA,NA,NA,NA,NA,NA,NA,NA,NA,NA,NA,NA,NA,NA,NA,NA,NA,NA,NA,NA,NA,NA,NA,NA
1e0cb,deep,flow.Sequence,1_1_4_0,NA,NA,skipped,NA,119617.0999999,NA,NA,119614.9,119617.29999995,2024-05-12T10:31:35Z,119631.9,"c(""distractor1"", ""distractor2"", ""distractor3"")",Kritik,lawama,s,dereva,nafasi,mawazo,NA,NA,NA,NA,NA,NA,NA,NA,NA,NA,NA,NA,NA,NA,NA,NA,NA,NA,NA,NA,NA,NA,NA
1e0cb,Shallow Question,html.Page,1_1_4_1_0,NA,NA,form submission,10227.999999857,119617.29999995,119614.9,119631.9,129859.89999986,129860.20000005,2024-05-12T10:31:45Z,129875.6,"c(""distractor1"", ""distractor2"", ""distractor3"")",Kritik,lawama,s,dereva,nafasi,mawazo,lawama,NA,NA,NA,NA,NA,NA,NA,NA,NA,NA,NA,NA,NA,NA,NA,NA,NA,NA,NA,NA,NA,NA
1e0cb,"""Richtig""-Screen",canvas.Screen,1_1_4_1_1,NA,NA,timeout,4997.1,129863.20000005,129859.22,129875.6,134855.6,134856.5,2024-05-12T10:31:50Z,134872.7,"c(""distractor1"", ""distractor2"", ""distractor3"")",Kritik,lawama,s,dereva,nafasi,mawazo,NA,NA,1,NA,NA,NA,NA,NA,NA,NA,NA,NA,NA,NA,NA,NA,NA,NA,NA,NA,NA,NA,NA
1e0cb,"""Falsch""-Screen",canvas.Screen,1_1_4_1_2,NA,NA,skipped,NA,134861.5999999,NA,NA,134855.6,134861.70000005,2024-05-12T10:31:50Z,134872.7,"c(""distractor1"", ""distractor2"", ""distractor3"")",Kritik,lawama,s,dereva,nafasi,mawazo,NA,NA,NA,NA,NA,NA,NA,NA,NA,NA,NA,NA,NA,NA,NA,NA,NA,NA,NA,NA,NA,NA,NA
1e0cb,shallow,flow.Sequence,1_1_4_1,NA,NA,completion,15223.7,119617.29999995,119614.9,119631.9,134855.6,134861.79999995,2024-05-12T10:31:50Z,134872.7,"c(""distractor1"", ""distractor2"", ""distractor3"")",Kritik,lawama,s,dereva,nafasi,mawazo,NA,NA,NA,NA,NA,NA,NA,NA,NA,NA,NA,NA,NA,NA,NA,NA,NA,NA,NA,NA,NA,NA,NA
1e0cb,task,flow.Sequence,1_1_4,NA,NA,completion,15223.7,119617.0999999,119614.9,119631.9,134855.6,134861.89999986,2024-05-12T10:31:50Z,134872.7,"c(""distractor1"", ""distractor2"", ""distractor3"")",Kritik,lawama,s,dereva,nafasi,mawazo,NA,NA,NA,NA,NA,NA,NA,NA,NA,NA,NA,NA,NA,NA,NA,NA,NA,NA,NA,NA,NA,NA,NA
1e0cb,deep,flow.Sequence,1_1_5_0,NA,NA,skipped,NA,134861.89999986,NA,NA,134855.6,134861.89999986,2024-05-12T10:31:50Z,134872.7,"c(""distractor1"", ""distractor2"", ""distractor3"")",Gegenwart,hadhara,s,katiba,jokofu,mikopo,NA,NA,NA,NA,NA,NA,NA,NA,NA,NA,NA,NA,NA,NA,NA,NA,NA,NA,NA,NA,NA,NA,NA
1e0cb,Shallow Question,html.Page,1_1_5_1_0,NA,NA,form submission,6678.5999999523,134862,134855.6,134872.7,141551.29999995,141551.5999999,2024-05-12T10:31:57Z,141568.5,"c(""distractor1"", ""distractor2"", ""distractor3"")",Gegenwart,hadhara,s,katiba,jokofu,mikopo,jokofu,NA,NA,NA,NA,NA,NA,NA,NA,NA,NA,NA,NA,NA,NA,NA,NA,NA,NA,NA,NA,NA,NA
1e0cb,"""Richtig""-Screen",canvas.Screen,1_1_5_1_1,NA,NA,skipped,NA,141554.39999986,NA,NA,141551.29999995,141554.5999999,2024-05-12T10:31:57Z,141568.5,"c(""distractor1"", ""distractor2"", ""distractor3"")",Gegenwart,hadhara,s,katiba,jokofu,mikopo,NA,NA,NA,NA,NA,NA,NA,NA,NA,NA,NA,NA,NA,NA,NA,NA,NA,NA,NA,NA,NA,NA,NA
1e0cb,"""Falsch""-Screen",canvas.Screen,1_1_5_1_2,NA,NA,timeout,4996.9,141555.29999995,141552.054,141568.5,146548.7,146549.5,2024-05-12T10:32:02Z,146565.4,"c(""distractor1"", ""distractor2"", ""distractor3"")",Gegenwart,hadhara,s,katiba,jokofu,mikopo,NA,NA,0,NA,NA,NA,NA,NA,NA,NA,NA,NA,NA,NA,NA,NA,NA,NA,NA,NA,NA,NA,NA
1e0cb,shallow,flow.Sequence,1_1_5_1,NA,NA,completion,11676,134862,134855.6,134872.7,146548.7,146550,2024-05-12T10:32:02Z,146565.4,"c(""distractor1"", ""distractor2"", ""distractor3"")",Gegenwart,hadhara,s,katiba,jokofu,mikopo,NA,NA,NA,NA,NA,NA,NA,NA,NA,NA,NA,NA,NA,NA,NA,NA,NA,NA,NA,NA,NA,NA,NA
1e0cb,task,flow.Sequence,1_1_5,NA,NA,completion,11676,134861.89999986,134855.6,134872.7,146548.7,146550.20000005,2024-05-12T10:32:02Z,146565.4,"c(""distractor1"", ""distractor2"", ""distractor3"")",Gegenwart,hadhara,s,katiba,jokofu,mikopo,NA,NA,NA,NA,NA,NA,NA,NA,NA,NA,NA,NA,NA,NA,NA,NA,NA,NA,NA,NA,NA,NA,NA
1e0cb,block,flow.Loop,1_1,NA,NA,completion,90445.1,56097.799999952,56090.8,56103.6,146548.7,146550.5999999,2024-05-12T10:32:02Z,146565.4,"c(""distractor1"", ""distractor2"", ""distractor3"")",NA,NA,NA,NA,NA,NA,NA,NA,NA,NA,NA,NA,NA,NA,NA,NA,NA,NA,NA,NA,NA,NA,NA,NA,NA,NA,NA,NA,NA
1e0cb,Practice,flow.Sequence,1,NA,NA,completion,94092.9,52449.5,52447.802,52455.8,146548.7,146550.79999995,2024-05-12T10:32:02Z,146565.4,NULL,NA,NA,NA,NA,NA,NA,NA,NA,NA,NA,NA,NA,NA,NA,NA,NA,NA,NA,NA,NA,NA,NA,NA,NA,NA,NA,NA,NA,NA
1e0cb,Experiment start,canvas.Screen,2,weiter,keypress(q),response,42558.399999952,146551,146548.7,146565.4,189123.79999995,189125,2024-05-12T10:32:44Z,189180.362,NULL,NA,NA,NA,NA,NA,NA,NA,NA,NA,NA,NA,NA,NA,NA,NA,NA,NA,NA,NA,NA,NA,NA,NA,NA,NA,NA,NA,NA,NA
1e0cb,Deep Question,html.Page,3_0_0_0_0_0_0,NA,NA,form submission,13295.638,189180.29999995,189180.362,189180.362,202476,202476.29999995,2024-05-12T10:32:57Z,202480.9,NULL,Vorwurf,mashtaka,d,NA,NA,NA,rtedf,NA,NA,0,NA,NA,NA,NA,NA,NA,NA,NA,NA,NA,NA,NA,NA,NA,NA,NA,NA,NA,NA
1e0cb,"""Richtig""-Screen",canvas.Screen,3_0_0_0_0_0_1,NA,NA,skipped,NA,202479.29999995,NA,NA,202476,202479.39999986,2024-05-12T10:32:57Z,202480.9,NULL,Vorwurf,mashtaka,d,NA,NA,NA,NA,sdf,NA,0,NA,NA,NA,NA,NA,NA,NA,NA,NA,NA,NA,NA,NA,NA,NA,NA,NA,NA,NA
1e0cb,"""Falsch""-Screen",canvas.Screen,3_0_0_0_0_0_2,NA,NA,timeout,4997.3,202480.0999999,202465.43,202480.9,207461.5,207462.5999999,2024-05-12T10:33:02Z,207478.2,NULL,Vorwurf,mashtaka,d,NA,NA,NA,NA,sdf,0,0,NA,NA,NA,NA,NA,NA,NA,NA,NA,NA,NA,NA,NA,NA,NA,NA,NA,NA,NA
1e0cb,deep,flow.Sequence,3_0_0_0_0_0,NA,NA,completion,18281.138,189180.29999995,189180.362,189180.362,207461.5,207463,2024-05-12T10:33:02Z,207478.2,NULL,Vorwurf,mashtaka,d,NA,NA,NA,NA,sdf,NA,0,NA,NA,NA,NA,NA,NA,NA,NA,NA,NA,NA,NA,NA,NA,NA,NA,NA,NA,NA
1e0cb,shallow,flow.Sequence,3_0_0_0_0_1,NA,NA,skipped,NA,207463.0999999,NA,NA,207461.5,207463.29999995,2024-05-12T10:33:02Z,207478.2,NULL,Vorwurf,mashtaka,d,NA,NA,NA,NA,sdf,NA,0,NA,NA,NA,NA,NA,NA,NA,NA,NA,NA,NA,NA,NA,NA,NA,NA,NA,NA,NA
1e0cb,task,flow.Sequence,3_0_0_0_0,NA,NA,completion,18281.138,189180.29999995,189180.362,189180.362,207461.5,207463.5,2024-05-12T10:33:02Z,207478.2,NULL,Vorwurf,mashtaka,d,NA,NA,NA,NA,sdf,NA,0,NA,NA,NA,NA,NA,NA,NA,NA,NA,NA,NA,NA,NA,NA,NA,NA,NA,NA,NA
1e0cb,Deep Question,html.Page,3_0_0_0_1_0_0,NA,NA,form submission,6163.3999999046,207463.5999999,207461.5,207478.2,213641.5999999,213641.79999995,2024-05-12T10:33:09Z,213658,NULL,Fenster,dirisha,d,NA,NA,NA,mashtaka,NA,NA,0,NA,NA,NA,NA,NA,NA,NA,NA,NA,NA,NA,NA,NA,NA,NA,NA,NA,NA,NA
1e0cb,"""Richtig""-Screen",canvas.Screen,3_0_0_0_1_0_1,NA,NA,skipped,NA,213644.79999995,NA,NA,213641.5999999,213644.89999986,2024-05-12T10:33:09Z,213658,NULL,Fenster,dirisha,d,NA,NA,NA,NA,sdf,NA,0,NA,NA,NA,NA,NA,NA,NA,NA,NA,NA,NA,NA,NA,NA,NA,NA,NA,NA,NA
1e0cb,"""Falsch""-Screen",canvas.Screen,3_0_0_0_1_0_2,NA,NA,timeout,4996.4,213645.70000005,213641.572,213658,218638.1,218638.89999986,2024-05-12T10:33:14Z,218654.4,NULL,Fenster,dirisha,d,NA,NA,NA,NA,sdf,0,0,NA,NA,NA,NA,NA,NA,NA,NA,NA,NA,NA,NA,NA,NA,NA,NA,NA,NA,NA
1e0cb,deep,flow.Sequence,3_0_0_0_1_0,NA,NA,completion,11159.9,207463.5999999,207461.5,207478.2,218638.1,218639.20000005,2024-05-12T10:33:14Z,218654.4,NULL,Fenster,dirisha,d,NA,NA,NA,NA,sdf,NA,0,NA,NA,NA,NA,NA,NA,NA,NA,NA,NA,NA,NA,NA,NA,NA,NA,NA,NA,NA
1e0cb,shallow,flow.Sequence,3_0_0_0_1_1,NA,NA,skipped,NA,218639.29999995,NA,NA,218638.1,218639.39999986,2024-05-12T10:33:14Z,218654.4,NULL,Fenster,dirisha,d,NA,NA,NA,NA,sdf,NA,0,NA,NA,NA,NA,NA,NA,NA,NA,NA,NA,NA,NA,NA,NA,NA,NA,NA,NA,NA
1e0cb,task,flow.Sequence,3_0_0_0_1,NA,NA,completion,11159.9,207463.5999999,207461.5,207478.2,218638.1,218639.5999999,2024-05-12T10:33:14Z,218654.4,NULL,Fenster,dirisha,d,NA,NA,NA,NA,sdf,NA,0,NA,NA,NA,NA,NA,NA,NA,NA,NA,NA,NA,NA,NA,NA,NA,NA,NA,NA,NA
1e0cb,deep,flow.Sequence,3_0_0_0_2_0,NA,NA,skipped,NA,218639.70000005,NA,NA,218638.1,218639.79999995,2024-05-12T10:33:14Z,218654.4,NULL,Schüler,mwanafunzi,s,mwekezaji,matumizi,uaminifu,NA,sdf,NA,0,NA,NA,NA,NA,NA,NA,NA,NA,NA,NA,NA,NA,NA,NA,NA,NA,NA,NA,NA
1e0cb,Shallow Question,html.Page,3_0_0_0_2_1_0,NA,NA,form submission,7709.499999857,218639.89999986,218638.1,218654.4,226363.89999986,226364.0999999,2024-05-12T10:33:21Z,226367.462,NULL,Schüler,mwanafunzi,s,mwekezaji,matumizi,uaminifu,matumizi,NA,NA,0,NA,NA,NA,NA,NA,NA,NA,NA,NA,NA,NA,NA,NA,NA,NA,NA,NA,NA,NA
1e0cb,"""Richtig""-Screen",canvas.Screen,3_0_0_0_2_1_1,NA,NA,skipped,NA,226367,NA,NA,226363.89999986,226367.20000005,2024-05-12T10:33:21Z,226367.462,NULL,Schüler,mwanafunzi,s,mwekezaji,matumizi,uaminifu,NA,sdf,NA,0,NA,NA,NA,NA,NA,NA,NA,NA,NA,NA,NA,NA,NA,NA,NA,NA,NA,NA,NA
1e0cb,"""Falsch""-Screen",canvas.Screen,3_0_0_0_2_1_2,NA,NA,timeout,4996.338,226368,226367.462,226367.462,231347.1,231348.0999999,2024-05-12T10:33:26Z,231363.8,NULL,Schüler,mwanafunzi,s,mwekezaji,matumizi,uaminifu,NA,sdf,0,0,NA,NA,NA,NA,NA,NA,NA,NA,NA,NA,NA,NA,NA,NA,NA,NA,NA,NA,NA
1e0cb,shallow,flow.Sequence,3_0_0_0_2_1,NA,NA,completion,12692.7,218639.79999995,218638.1,218654.4,231347.1,231348.39999986,2024-05-12T10:33:26Z,231363.8,NULL,Schüler,mwanafunzi,s,mwekezaji,matumizi,uaminifu,NA,sdf,NA,0,NA,NA,NA,NA,NA,NA,NA,NA,NA,NA,NA,NA,NA,NA,NA,NA,NA,NA,NA
1e0cb,task,flow.Sequence,3_0_0_0_2,NA,NA,completion,12692.7,218639.5999999,218638.1,218654.4,231347.1,231348.70000005,2024-05-12T10:33:26Z,231363.8,NULL,Schüler,mwanafunzi,s,mwekezaji,matumizi,uaminifu,NA,sdf,NA,0,NA,NA,NA,NA,NA,NA,NA,NA,NA,NA,NA,NA,NA,NA,NA,NA,NA,NA,NA
1e0cb,deep,flow.Sequence,3_0_0_0_3_0,NA,NA,skipped,NA,231348.79999995,NA,NA,231347.1,231348.89999986,2024-05-12T10:33:26Z,231363.8,NULL,Tester,wanaojaribu,s,sherti,sihiri,mlipuko,NA,sdf,NA,0,NA,NA,NA,NA,NA,NA,NA,NA,NA,NA,NA,NA,NA,NA,NA,NA,NA,NA,NA
1e0cb,Shallow Question,html.Page,3_0_0_0_3_1_0,NA,NA,form submission,7177.7,231349.0999999,231347.1,231363.8,238541.5,238541.70000005,2024-05-12T10:33:34Z,238543.228,NULL,Tester,wanaojaribu,s,sherti,sihiri,mlipuko,sihiri,NA,NA,0,NA,NA,NA,NA,NA,NA,NA,NA,NA,NA,NA,NA,NA,NA,NA,NA,NA,NA,NA
1e0cb,"""Richtig""-Screen",canvas.Screen,3_0_0_0_3_1_1,NA,NA,skipped,NA,238544.79999995,NA,NA,238541.5,238545,2024-05-12T10:33:34Z,238543.228,NULL,Tester,wanaojaribu,s,sherti,sihiri,mlipuko,NA,sdf,NA,0,NA,NA,NA,NA,NA,NA,NA,NA,NA,NA,NA,NA,NA,NA,NA,NA,NA,NA,NA
1e0cb,"""Falsch""-Screen",canvas.Screen,3_0_0_0_3_1_2,NA,NA,timeout,4995.972,238545.39999986,238543.228,238543.228,243523,243524.5999999,2024-05-12T10:33:39Z,243539.2,NULL,Tester,wanaojaribu,s,sherti,sihiri,mlipuko,NA,sdf,0,0,NA,NA,NA,NA,NA,NA,NA,NA,NA,NA,NA,NA,NA,NA,NA,NA,NA,NA,NA
1e0cb,shallow,flow.Sequence,3_0_0_0_3_1,NA,NA,completion,12159.2,231349,231347.1,231363.8,243523,243525.0999999,2024-05-12T10:33:39Z,243539.2,NULL,Tester,wanaojaribu,s,sherti,sihiri,mlipuko,NA,sdf,NA,0,NA,NA,NA,NA,NA,NA,NA,NA,NA,NA,NA,NA,NA,NA,NA,NA,NA,NA,NA
1e0cb,task,flow.Sequence,3_0_0_0_3,NA,NA,completion,12159.2,231348.79999995,231347.1,231363.8,243523,243525.20000005,2024-05-12T10:33:39Z,243539.2,NULL,Tester,wanaojaribu,s,sherti,sihiri,mlipuko,NA,sdf,NA,0,NA,NA,NA,NA,NA,NA,NA,NA,NA,NA,NA,NA,NA,NA,NA,NA,NA,NA,NA
1e0cb,Deep Question,html.Page,3_0_0_0_4_0_0,NA,NA,form submission,9144.8999999046,243525.5,243523,243539.2,252684.0999999,252684.39999986,2024-05-12T10:33:48Z,252700.7,NULL,Entwicklung,maendeleo,d,NA,NA,NA,tehgnk,NA,NA,0,NA,NA,NA,NA,NA,NA,NA,NA,NA,NA,NA,NA,NA,NA,NA,NA,NA,NA,NA
1e0cb,"""Richtig""-Screen",canvas.Screen,3_0_0_0_4_0_1,NA,NA,skipped,NA,252686,NA,NA,252684.0999999,252686.0999999,2024-05-12T10:33:48Z,252700.7,NULL,Entwicklung,maendeleo,d,NA,NA,NA,NA,sdf,NA,0,NA,NA,NA,NA,NA,NA,NA,NA,NA,NA,NA,NA,NA,NA,NA,NA,NA,NA,NA
1e0cb,"""Falsch""-Screen",canvas.Screen,3_0_0_0_4_0_2,NA,NA,timeout,4997.1,252686.5999999,252684.386,252700.7,257680.7,257681.5999999,2024-05-12T10:33:53Z,257697.8,NULL,Entwicklung,maendeleo,d,NA,NA,NA,NA,sdf,0,0,NA,NA,NA,NA,NA,NA,NA,NA,NA,NA,NA,NA,NA,NA,NA,NA,NA,NA,NA
1e0cb,deep,flow.Sequence,3_0_0_0_4_0,NA,NA,completion,14141.5,243525.5,243523,243539.2,257680.7,257681.89999986,2024-05-12T10:33:53Z,257697.8,NULL,Entwicklung,maendeleo,d,NA,NA,NA,NA,sdf,NA,0,NA,NA,NA,NA,NA,NA,NA,NA,NA,NA,NA,NA,NA,NA,NA,NA,NA,NA,NA
1e0cb,shallow,flow.Sequence,3_0_0_0_4_1,NA,NA,skipped,NA,257682,NA,NA,257680.7,257682.0999999,2024-05-12T10:33:53Z,257697.8,NULL,Entwicklung,maendeleo,d,NA,NA,NA,NA,sdf,NA,0,NA,NA,NA,NA,NA,NA,NA,NA,NA,NA,NA,NA,NA,NA,NA,NA,NA,NA,NA
1e0cb,task,flow.Sequence,3_0_0_0_4,NA,NA,completion,14141.5,243525.39999986,243523,243539.2,257680.7,257682.29999995,2024-05-12T10:33:53Z,257697.8,NULL,Entwicklung,maendeleo,d,NA,NA,NA,NA,sdf,NA,0,NA,NA,NA,NA,NA,NA,NA,NA,NA,NA,NA,NA,NA,NA,NA,NA,NA,NA,NA
1e0cb,Deep Question,html.Page,3_0_0_0_5_0_0,NA,NA,form submission,11538.400000048,257682.5,257680.7,257697.8,269236.20000005,269236.39999986,2024-05-12T10:34:04Z,269240.1,NULL,Spionage,upelelezi,d,NA,NA,NA,mkbguig,NA,NA,0,NA,NA,NA,NA,NA,NA,NA,NA,NA,NA,NA,NA,NA,NA,NA,NA,NA,NA,NA
1e0cb,"""Richtig""-Screen",canvas.Screen,3_0_0_0_5_0_1,NA,NA,skipped,NA,269239.39999986,NA,NA,269236.20000005,269239.5999999,2024-05-12T10:34:04Z,269240.1,NULL,Spionage,upelelezi,d,NA,NA,NA,NA,sdf,NA,0,NA,NA,NA,NA,NA,NA,NA,NA,NA,NA,NA,NA,NA,NA,NA,NA,NA,NA,NA
1e0cb,"""Falsch""-Screen",canvas.Screen,3_0_0_0_5_0_2,NA,NA,timeout,4997.5,269240.39999986,269235,269240.1,274220.8,274221.39999986,2024-05-12T10:34:09Z,274237.6,NULL,Spionage,upelelezi,d,NA,NA,NA,NA,sdf,0,0,NA,NA,NA,NA,NA,NA,NA,NA,NA,NA,NA,NA,NA,NA,NA,NA,NA,NA,NA
1e0cb,deep,flow.Sequence,3_0_0_0_5_0,NA,NA,completion,16523,257682.5,257680.7,257697.8,274220.8,274221.5999999,2024-05-12T10:34:09Z,274237.6,NULL,Spionage,upelelezi,d,NA,NA,NA,NA,sdf,NA,0,NA,NA,NA,NA,NA,NA,NA,NA,NA,NA,NA,NA,NA,NA,NA,NA,NA,NA,NA
1e0cb,shallow,flow.Sequence,3_0_0_0_5_1,NA,NA,skipped,NA,274221.70000005,NA,NA,274220.8,274221.79999995,2024-05-12T10:34:09Z,274237.6,NULL,Spionage,upelelezi,d,NA,NA,NA,NA,sdf,NA,0,NA,NA,NA,NA,NA,NA,NA,NA,NA,NA,NA,NA,NA,NA,NA,NA,NA,NA,NA
1e0cb,task,flow.Sequence,3_0_0_0_5,NA,NA,completion,16523,257682.29999995,257680.7,257697.8,274220.8,274221.89999986,2024-05-12T10:34:09Z,274237.6,NULL,Spionage,upelelezi,d,NA,NA,NA,NA,sdf,NA,0,NA,NA,NA,NA,NA,NA,NA,NA,NA,NA,NA,NA,NA,NA,NA,NA,NA,NA,NA
1e0cb,deep,flow.Sequence,3_0_0_0_6_0,NA,NA,skipped,NA,274222,NA,NA,274220.8,274222.0999999,2024-05-12T10:34:09Z,274237.6,NULL,Papier,karatasi,s,uchambuzi,usalama,kukataliwa,NA,sdf,NA,0,NA,NA,NA,NA,NA,NA,NA,NA,NA,NA,NA,NA,NA,NA,NA,NA,NA,NA,NA
1e0cb,Shallow Question,html.Page,3_0_0_0_6_1_0,NA,NA,form submission,12473.999999905,274222.0999999,274220.8,274237.6,286711.5999999,286711.79999995,2024-05-12T10:34:22Z,286713.028,NULL,Papier,karatasi,s,uchambuzi,usalama,kukataliwa,kukataliwa,NA,NA,0,NA,NA,NA,NA,NA,NA,NA,NA,NA,NA,NA,NA,NA,NA,NA,NA,NA,NA,NA
1e0cb,"""Richtig""-Screen",canvas.Screen,3_0_0_0_6_1_1,NA,NA,skipped,NA,286714.89999986,NA,NA,286711.5999999,286715.0999999,2024-05-12T10:34:22Z,286713.028,NULL,Papier,karatasi,s,uchambuzi,usalama,kukataliwa,NA,sdf,NA,0,NA,NA,NA,NA,NA,NA,NA,NA,NA,NA,NA,NA,NA,NA,NA,NA,NA,NA,NA
1e0cb,"""Falsch""-Screen",canvas.Screen,3_0_0_0_6_1_2,NA,NA,timeout,4997.172,286715.5999999,286713.028,286713.028,291693.4,291694.20000005,2024-05-12T10:34:27Z,291710.2,NULL,Papier,karatasi,s,uchambuzi,usalama,kukataliwa,NA,sdf,0,0,NA,NA,NA,NA,NA,NA,NA,NA,NA,NA,NA,NA,NA,NA,NA,NA,NA,NA,NA
1e0cb,shallow,flow.Sequence,3_0_0_0_6_1,NA,NA,completion,17455.8,274222.0999999,274220.8,274237.6,291693.4,291694.5999999,2024-05-12T10:34:27Z,291710.2,NULL,Papier,karatasi,s,uchambuzi,usalama,kukataliwa,NA,sdf,NA,0,NA,NA,NA,NA,NA,NA,NA,NA,NA,NA,NA,NA,NA,NA,NA,NA,NA,NA,NA
1e0cb,task,flow.Sequence,3_0_0_0_6,NA,NA,completion,17455.8,274221.89999986,274220.8,274237.6,291693.4,291694.79999995,2024-05-12T10:34:27Z,291710.2,NULL,Papier,karatasi,s,uchambuzi,usalama,kukataliwa,NA,sdf,NA,0,NA,NA,NA,NA,NA,NA,NA,NA,NA,NA,NA,NA,NA,NA,NA,NA,NA,NA,NA
1e0cb,deep,flow.Sequence,3_0_0_0_7_0,NA,NA,skipped,NA,291694.89999986,NA,NA,291693.4,291695,2024-05-12T10:34:27Z,291710.2,NULL,Niveau,kiwango,s,usimamizi,mwamali,mshairi,NA,sdf,NA,0,NA,NA,NA,NA,NA,NA,NA,NA,NA,NA,NA,NA,NA,NA,NA,NA,NA,NA,NA
1e0cb,Shallow Question,html.Page,3_0_0_0_7_1_0,NA,NA,form submission,7517.0999999523,291695.20000005,291693.4,291710.2,299227.29999995,299227.39999986,2024-05-12T10:34:34Z,299238.8,NULL,Niveau,kiwango,s,usimamizi,mwamali,mshairi,kiwango,NA,NA,0,NA,NA,NA,NA,NA,NA,NA,NA,NA,NA,NA,NA,NA,NA,NA,NA,NA,NA,NA
1e0cb,"""Richtig""-Screen",canvas.Screen,3_0_0_0_7_1_1,NA,NA,timeout,4997.1,299228.89999986,299222.488,299238.8,304218.9,304220.29999995,2024-05-12T10:34:39Z,304235.9,NULL,Niveau,kiwango,s,usimamizi,mwamali,mshairi,NA,sdf,1,0,NA,NA,NA,NA,NA,NA,NA,NA,NA,NA,NA,NA,NA,NA,NA,NA,NA,NA,NA
1e0cb,"""Falsch""-Screen",canvas.Screen,3_0_0_0_7_1_2,NA,NA,skipped,NA,304222.70000005,NA,NA,304218.9,304222.79999995,2024-05-12T10:34:39Z,304235.9,NULL,Niveau,kiwango,s,usimamizi,mwamali,mshairi,NA,sdf,NA,0,NA,NA,NA,NA,NA,NA,NA,NA,NA,NA,NA,NA,NA,NA,NA,NA,NA,NA,NA
1e0cb,shallow,flow.Sequence,3_0_0_0_7_1,NA,NA,completion,12508.7,291695.20000005,291693.4,291710.2,304218.9,304222.79999995,2024-05-12T10:34:39Z,304235.9,NULL,Niveau,kiwango,s,usimamizi,mwamali,mshairi,NA,sdf,NA,0,NA,NA,NA,NA,NA,NA,NA,NA,NA,NA,NA,NA,NA,NA,NA,NA,NA,NA,NA
1e0cb,task,flow.Sequence,3_0_0_0_7,NA,NA,completion,12508.7,291694.89999986,291693.4,291710.2,304218.9,304222.89999986,2024-05-12T10:34:39Z,304235.9,NULL,Niveau,kiwango,s,usimamizi,mwamali,mshairi,NA,sdf,NA,0,NA,NA,NA,NA,NA,NA,NA,NA,NA,NA,NA,NA,NA,NA,NA,NA,NA,NA,NA
1e0cb,block,flow.Loop,3_0_0_0,NA,NA,completion,115038.538,189180.29999995,189180.362,189180.362,304218.9,304223.0999999,2024-05-12T10:34:39Z,304235.9,NULL,NA,NA,NA,NA,NA,NA,NA,sdf,NA,0,NA,NA,NA,NA,NA,NA,NA,NA,NA,NA,NA,NA,NA,NA,NA,NA,NA,NA,NA
1e0cb,weiter,canvas.Screen,3_0_0_1,sdf,keypress(Space),response,1661.1,304223.20000005,304218.9,304235.9,305897,305897.39999986,2024-05-12T10:34:41Z,305902.5,NULL,NA,NA,NA,NA,NA,NA,NA,sdf,NA,0,NA,NA,NA,NA,NA,NA,NA,NA,NA,NA,NA,NA,NA,NA,NA,NA,NA,NA,NA
1e0cb,check continue,flow.Sequence,3_0_0,NA,NA,completion,116716.638,189180.29999995,189180.362,189180.362,305897,305897.5999999,2024-05-12T10:34:41Z,305902.5,NULL,NA,NA,NA,NA,NA,NA,NA,sdf,NA,0,NA,NA,NA,NA,NA,NA,NA,NA,NA,NA,NA,NA,NA,NA,NA,NA,NA,NA,NA
1e0cb,Deep Question,html.Page,3_0_1_0_0_0_0,NA,NA,form submission,8433.7000000477,305912.5,305902.5,305902.5,314336.20000005,314336.5,2024-05-12T10:34:49Z,314345.9,NULL,Spionage,upelelezi,d,NA,NA,NA,mashtaka,NA,NA,1,NA,NA,NA,NA,NA,NA,NA,NA,NA,NA,NA,NA,NA,NA,NA,NA,NA,NA,NA
1e0cb,"""Richtig""-Screen",canvas.Screen,3_0_1_0_0_0_1,NA,NA,skipped,NA,314339.39999986,NA,NA,314336.20000005,314339.5,2024-05-12T10:34:49Z,314345.9,NULL,Spionage,upelelezi,d,NA,NA,NA,NA,sdfdsf,NA,1,NA,NA,NA,NA,NA,NA,NA,NA,NA,NA,NA,NA,NA,NA,NA,NA,NA,NA,NA
1e0cb,"""Falsch""-Screen",canvas.Screen,3_0_1_0_0_0_2,NA,NA,timeout,4997.1,314340.5999999,314330.062,314345.9,319326.5,319327.39999986,2024-05-12T10:34:54Z,319343,NULL,Spionage,upelelezi,d,NA,NA,NA,NA,sdfdsf,0,1,NA,NA,NA,NA,NA,NA,NA,NA,NA,NA,NA,NA,NA,NA,NA,NA,NA,NA,NA
1e0cb,deep,flow.Sequence,3_0_1_0_0_0,NA,NA,completion,13424,305912.5,305902.5,305902.5,319326.5,319327.79999995,2024-05-12T10:34:54Z,319343,NULL,Spionage,upelelezi,d,NA,NA,NA,NA,sdfdsf,NA,1,NA,NA,NA,NA,NA,NA,NA,NA,NA,NA,NA,NA,NA,NA,NA,NA,NA,NA,NA
1e0cb,shallow,flow.Sequence,3_0_1_0_0_1,NA,NA,skipped,NA,319327.89999986,NA,NA,319326.5,319328,2024-05-12T10:34:54Z,319343,NULL,Spionage,upelelezi,d,NA,NA,NA,NA,sdfdsf,NA,1,NA,NA,NA,NA,NA,NA,NA,NA,NA,NA,NA,NA,NA,NA,NA,NA,NA,NA,NA
1e0cb,task,flow.Sequence,3_0_1_0_0,NA,NA,completion,13424,305912.5,305902.5,305902.5,319326.5,319328.29999995,2024-05-12T10:34:54Z,319343,NULL,Spionage,upelelezi,d,NA,NA,NA,NA,sdfdsf,NA,1,NA,NA,NA,NA,NA,NA,NA,NA,NA,NA,NA,NA,NA,NA,NA,NA,NA,NA,NA
1e0cb,Deep Question,html.Page,3_0_1_0_1_0_0,NA,NA,form submission,9575.2999999523,319328.39999986,319326.5,319343,328918.29999995,328918.39999986,2024-05-12T10:35:04Z,328920.964,NULL,Vorwurf,mashtaka,d,NA,NA,NA,mashtaka,NA,NA,1,NA,NA,NA,NA,NA,NA,NA,NA,NA,NA,NA,NA,NA,NA,NA,NA,NA,NA,NA
1e0cb,"""Richtig""-Screen",canvas.Screen,3_0_1_0_1_0_1,NA,NA,timeout,4996.836,328921.5,328920.964,328920.964,333901,333901.89999986,2024-05-12T10:35:09Z,333917.8,NULL,Vorwurf,mashtaka,d,NA,NA,NA,NA,sdfdsf,1,1,NA,NA,NA,NA,NA,NA,NA,NA,NA,NA,NA,NA,NA,NA,NA,NA,NA,NA,NA
1e0cb,"""Falsch""-Screen",canvas.Screen,3_0_1_0_1_0_2,NA,NA,skipped,NA,333906.5999999,NA,NA,333901,333906.70000005,2024-05-12T10:35:09Z,333917.8,NULL,Vorwurf,mashtaka,d,NA,NA,NA,NA,sdfdsf,NA,1,NA,NA,NA,NA,NA,NA,NA,NA,NA,NA,NA,NA,NA,NA,NA,NA,NA,NA,NA
1e0cb,deep,flow.Sequence,3_0_1_0_1_0,NA,NA,completion,14558,319328.29999995,319326.5,319343,333901,333906.79999995,2024-05-12T10:35:09Z,333917.8,NULL,Vorwurf,mashtaka,d,NA,NA,NA,NA,sdfdsf,NA,1,NA,NA,NA,NA,NA,NA,NA,NA,NA,NA,NA,NA,NA,NA,NA,NA,NA,NA,NA
1e0cb,shallow,flow.Sequence,3_0_1_0_1_1,NA,NA,skipped,NA,333906.79999995,NA,NA,333901,333906.89999986,2024-05-12T10:35:09Z,333917.8,NULL,Vorwurf,mashtaka,d,NA,NA,NA,NA,sdfdsf,NA,1,NA,NA,NA,NA,NA,NA,NA,NA,NA,NA,NA,NA,NA,NA,NA,NA,NA,NA,NA
1e0cb,task,flow.Sequence,3_0_1_0_1,NA,NA,completion,14558,319328.29999995,319326.5,319343,333901,333906.89999986,2024-05-12T10:35:09Z,333917.8,NULL,Vorwurf,mashtaka,d,NA,NA,NA,NA,sdfdsf,NA,1,NA,NA,NA,NA,NA,NA,NA,NA,NA,NA,NA,NA,NA,NA,NA,NA,NA,NA,NA
1e0cb,deep,flow.Sequence,3_0_1_0_2_0,NA,NA,skipped,NA,333907,NA,NA,333901,333907,2024-05-12T10:35:09Z,333917.8,NULL,Tester,wanaojaribu,s,sherti,sihiri,mlipuko,NA,sdfdsf,NA,1,NA,NA,NA,NA,NA,NA,NA,NA,NA,NA,NA,NA,NA,NA,NA,NA,NA,NA,NA
1e0cb,Shallow Question,html.Page,3_0_1_0_2_1_0,NA,NA,form submission,5772.099999857,333907,333901,333917.8,339689.89999986,339690.0999999,2024-05-12T10:35:15Z,339697.844,NULL,Tester,wanaojaribu,s,sherti,sihiri,mlipuko,wanaojaribu,NA,NA,1,NA,NA,NA,NA,NA,NA,NA,NA,NA,NA,NA,NA,NA,NA,NA,NA,NA,NA,NA
1e0cb,"""Richtig""-Screen",canvas.Screen,3_0_1_0_2_1_1,NA,NA,timeout,4996.856,339692.89999986,339697.844,339697.844,344677.6,344678.70000005,2024-05-12T10:35:20Z,344694.7,NULL,Tester,wanaojaribu,s,sherti,sihiri,mlipuko,NA,sdfdsf,1,1,NA,NA,NA,NA,NA,NA,NA,NA,NA,NA,NA,NA,NA,NA,NA,NA,NA,NA,NA
1e0cb,"""Falsch""-Screen",canvas.Screen,3_0_1_0_2_1_2,NA,NA,skipped,NA,344683.70000005,NA,NA,344677.6,344683.89999986,2024-05-12T10:35:20Z,344694.7,NULL,Tester,wanaojaribu,s,sherti,sihiri,mlipuko,NA,sdfdsf,NA,1,NA,NA,NA,NA,NA,NA,NA,NA,NA,NA,NA,NA,NA,NA,NA,NA,NA,NA,NA
1e0cb,shallow,flow.Sequence,3_0_1_0_2_1,NA,NA,completion,10759.8,333907,333901,333917.8,344677.6,344683.89999986,2024-05-12T10:35:20Z,344694.7,NULL,Tester,wanaojaribu,s,sherti,sihiri,mlipuko,NA,sdfdsf,NA,1,NA,NA,NA,NA,NA,NA,NA,NA,NA,NA,NA,NA,NA,NA,NA,NA,NA,NA,NA
1e0cb,task,flow.Sequence,3_0_1_0_2,NA,NA,completion,10759.8,333906.89999986,333901,333917.8,344677.6,344684,2024-05-12T10:35:20Z,344694.7,NULL,Tester,wanaojaribu,s,sherti,sihiri,mlipuko,NA,sdfdsf,NA,1,NA,NA,NA,NA,NA,NA,NA,NA,NA,NA,NA,NA,NA,NA,NA,NA,NA,NA,NA
1e0cb,Deep Question,html.Page,3_0_1_0_3_0_0,NA,NA,form submission,12900.000000048,344684,344677.6,344694.7,357594.70000005,357594.89999986,2024-05-12T10:35:33Z,357603,NULL,Fenster,dirisha,d,NA,NA,NA,salama,NA,NA,1,NA,NA,NA,NA,NA,NA,NA,NA,NA,NA,NA,NA,NA,NA,NA,NA,NA,NA,NA
1e0cb,"""Richtig""-Screen",canvas.Screen,3_0_1_0_3_0_1,NA,NA,skipped,NA,357596.70000005,NA,NA,357594.70000005,357596.79999995,2024-05-12T10:35:33Z,357603,NULL,Fenster,dirisha,d,NA,NA,NA,NA,sdfdsf,NA,1,NA,NA,NA,NA,NA,NA,NA,NA,NA,NA,NA,NA,NA,NA,NA,NA,NA,NA,NA
1e0cb,"""Falsch""-Screen",canvas.Screen,3_0_1_0_3_0_2,NA,NA,timeout,4997.1,357597.20000005,357586.492,357603,362583.8,362584.20000005,2024-05-12T10:35:38Z,362600.1,NULL,Fenster,dirisha,d,NA,NA,NA,NA,sdfdsf,0,1,NA,NA,NA,NA,NA,NA,NA,NA,NA,NA,NA,NA,NA,NA,NA,NA,NA,NA,NA
1e0cb,deep,flow.Sequence,3_0_1_0_3_0,NA,NA,completion,17889.1,344684,344677.6,344694.7,362583.8,362584.39999986,2024-05-12T10:35:38Z,362600.1,NULL,Fenster,dirisha,d,NA,NA,NA,NA,sdfdsf,NA,1,NA,NA,NA,NA,NA,NA,NA,NA,NA,NA,NA,NA,NA,NA,NA,NA,NA,NA,NA
1e0cb,shallow,flow.Sequence,3_0_1_0_3_1,NA,NA,skipped,NA,362584.39999986,NA,NA,362583.8,362584.39999986,2024-05-12T10:35:38Z,362600.1,NULL,Fenster,dirisha,d,NA,NA,NA,NA,sdfdsf,NA,1,NA,NA,NA,NA,NA,NA,NA,NA,NA,NA,NA,NA,NA,NA,NA,NA,NA,NA,NA
1e0cb,task,flow.Sequence,3_0_1_0_3,NA,NA,completion,17889.1,344684,344677.6,344694.7,362583.8,362584.5,2024-05-12T10:35:38Z,362600.1,NULL,Fenster,dirisha,d,NA,NA,NA,NA,sdfdsf,NA,1,NA,NA,NA,NA,NA,NA,NA,NA,NA,NA,NA,NA,NA,NA,NA,NA,NA,NA,NA
1e0cb,deep,flow.Sequence,3_0_1_0_4_0,NA,NA,skipped,NA,362584.5,NA,NA,362583.8,362584.5999999,2024-05-12T10:35:38Z,362600.1,NULL,Papier,karatasi,s,uchambuzi,usalama,kukataliwa,NA,sdfdsf,NA,1,NA,NA,NA,NA,NA,NA,NA,NA,NA,NA,NA,NA,NA,NA,NA,NA,NA,NA,NA
1e0cb,Shallow Question,html.Page,3_0_1_0_4_1_0,NA,NA,form submission,4827.6999999523,362584.5999999,362583.8,362600.1,367427.79999995,367428,2024-05-12T10:35:42Z,367430.914,NULL,Papier,karatasi,s,uchambuzi,usalama,kukataliwa,karatasi,NA,NA,1,NA,NA,NA,NA,NA,NA,NA,NA,NA,NA,NA,NA,NA,NA,NA,NA,NA,NA,NA
1e0cb,"""Richtig""-Screen",canvas.Screen,3_0_1_0_4_1_1,NA,NA,timeout,4996.886,367431,367430.914,367430.914,372410.9,372411.79999995,2024-05-12T10:35:47Z,372427.8,NULL,Papier,karatasi,s,uchambuzi,usalama,kukataliwa,NA,sdfdsf,1,1,NA,NA,NA,NA,NA,NA,NA,NA,NA,NA,NA,NA,NA,NA,NA,NA,NA,NA,NA
1e0cb,"""Falsch""-Screen",canvas.Screen,3_0_1_0_4_1_2,NA,NA,skipped,NA,372414.79999995,NA,NA,372410.9,372415,2024-05-12T10:35:47Z,372427.8,NULL,Papier,karatasi,s,uchambuzi,usalama,kukataliwa,NA,sdfdsf,NA,1,NA,NA,NA,NA,NA,NA,NA,NA,NA,NA,NA,NA,NA,NA,NA,NA,NA,NA,NA
1e0cb,shallow,flow.Sequence,3_0_1_0_4_1,NA,NA,completion,9810.8,362584.5999999,362583.8,362600.1,372410.9,372415.29999995,2024-05-12T10:35:47Z,372427.8,NULL,Papier,karatasi,s,uchambuzi,usalama,kukataliwa,NA,sdfdsf,NA,1,NA,NA,NA,NA,NA,NA,NA,NA,NA,NA,NA,NA,NA,NA,NA,NA,NA,NA,NA
1e0cb,task,flow.Sequence,3_0_1_0_4,NA,NA,completion,9810.8,362584.5,362583.8,362600.1,372410.9,372415.39999986,2024-05-12T10:35:47Z,372427.8,NULL,Papier,karatasi,s,uchambuzi,usalama,kukataliwa,NA,sdfdsf,NA,1,NA,NA,NA,NA,NA,NA,NA,NA,NA,NA,NA,NA,NA,NA,NA,NA,NA,NA,NA
1e0cb,deep,flow.Sequence,3_0_1_0_5_0,NA,NA,skipped,NA,372415.5,NA,NA,372410.9,372415.5,2024-05-12T10:35:47Z,372427.8,NULL,Schüler,mwanafunzi,s,mwekezaji,matumizi,uaminifu,NA,sdfdsf,NA,1,NA,NA,NA,NA,NA,NA,NA,NA,NA,NA,NA,NA,NA,NA,NA,NA,NA,NA,NA
1e0cb,Shallow Question,html.Page,3_0_1_0_5_1_0,NA,NA,form submission,6897.4999999523,372415.5999999,372410.9,372427.8,379325.29999995,379325.5,2024-05-12T10:35:54Z,379339.9,NULL,Schüler,mwanafunzi,s,mwekezaji,matumizi,uaminifu,mwanafunzi,NA,NA,1,NA,NA,NA,NA,NA,NA,NA,NA,NA,NA,NA,NA,NA,NA,NA,NA,NA,NA,NA
1e0cb,"""Richtig""-Screen",canvas.Screen,3_0_1_0_5_1_1,NA,NA,timeout,4996.7,379328.39999986,379323.838,379339.9,384320,384321.20000005,2024-05-12T10:35:59Z,384336.6,NULL,Schüler,mwanafunzi,s,mwekezaji,matumizi,uaminifu,NA,sdfdsf,1,1,NA,NA,NA,NA,NA,NA,NA,NA,NA,NA,NA,NA,NA,NA,NA,NA,NA,NA,NA
1e0cb,"""Falsch""-Screen",canvas.Screen,3_0_1_0_5_1_2,NA,NA,skipped,NA,384327.29999995,NA,NA,384320,384327.5999999,2024-05-12T10:35:59Z,384336.6,NULL,Schüler,mwanafunzi,s,mwekezaji,matumizi,uaminifu,NA,sdfdsf,NA,1,NA,NA,NA,NA,NA,NA,NA,NA,NA,NA,NA,NA,NA,NA,NA,NA,NA,NA,NA
1e0cb,shallow,flow.Sequence,3_0_1_0_5_1,NA,NA,completion,11892.2,372415.5999999,372410.9,372427.8,384320,384328,2024-05-12T10:35:59Z,384336.6,NULL,Schüler,mwanafunzi,s,mwekezaji,matumizi,uaminifu,NA,sdfdsf,NA,1,NA,NA,NA,NA,NA,NA,NA,NA,NA,NA,NA,NA,NA,NA,NA,NA,NA,NA,NA
1e0cb,task,flow.Sequence,3_0_1_0_5,NA,NA,completion,11892.2,372415.5,372410.9,372427.8,384320,384328.20000005,2024-05-12T10:35:59Z,384336.6,NULL,Schüler,mwanafunzi,s,mwekezaji,matumizi,uaminifu,NA,sdfdsf,NA,1,NA,NA,NA,NA,NA,NA,NA,NA,NA,NA,NA,NA,NA,NA,NA,NA,NA,NA,NA
1e0cb,Deep Question,html.Page,3_0_1_0_6_0_0,NA,NA,form submission,8491.1999999523,384328.5,384320,384336.6,392827.79999995,392828,2024-05-12T10:36:08Z,392832.292,NULL,Entwicklung,maendeleo,d,NA,NA,NA,upelelezi,NA,NA,1,NA,NA,NA,NA,NA,NA,NA,NA,NA,NA,NA,NA,NA,NA,NA,NA,NA,NA,NA
1e0cb,"""Richtig""-Screen",canvas.Screen,3_0_1_0_6_0_1,NA,NA,skipped,NA,392831.20000005,NA,NA,392827.79999995,392831.39999986,2024-05-12T10:36:08Z,392832.292,NULL,Entwicklung,maendeleo,d,NA,NA,NA,NA,sdfdsf,NA,1,NA,NA,NA,NA,NA,NA,NA,NA,NA,NA,NA,NA,NA,NA,NA,NA,NA,NA,NA
1e0cb,"""Falsch""-Screen",canvas.Screen,3_0_1_0_6_0_2,NA,NA,timeout,4996.108,392832.0999999,392832.292,392832.292,397811.9,397812.5999999,2024-05-12T10:36:13Z,397828.4,NULL,Entwicklung,maendeleo,d,NA,NA,NA,NA,sdfdsf,0,1,NA,NA,NA,NA,NA,NA,NA,NA,NA,NA,NA,NA,NA,NA,NA,NA,NA,NA,NA
1e0cb,deep,flow.Sequence,3_0_1_0_6_0,NA,NA,completion,13475.3,384328.39999986,384320,384336.6,397811.9,397812.89999986,2024-05-12T10:36:13Z,397828.4,NULL,Entwicklung,maendeleo,d,NA,NA,NA,NA,sdfdsf,NA,1,NA,NA,NA,NA,NA,NA,NA,NA,NA,NA,NA,NA,NA,NA,NA,NA,NA,NA,NA
1e0cb,shallow,flow.Sequence,3_0_1_0_6_1,NA,NA,skipped,NA,397813,NA,NA,397811.9,397813.0999999,2024-05-12T10:36:13Z,397828.4,NULL,Entwicklung,maendeleo,d,NA,NA,NA,NA,sdfdsf,NA,1,NA,NA,NA,NA,NA,NA,NA,NA,NA,NA,NA,NA,NA,NA,NA,NA,NA,NA,NA
1e0cb,task,flow.Sequence,3_0_1_0_6,NA,NA,completion,13475.3,384328.29999995,384320,384336.6,397811.9,397813.20000005,2024-05-12T10:36:13Z,397828.4,NULL,Entwicklung,maendeleo,d,NA,NA,NA,NA,sdfdsf,NA,1,NA,NA,NA,NA,NA,NA,NA,NA,NA,NA,NA,NA,NA,NA,NA,NA,NA,NA,NA
1e0cb,deep,flow.Sequence,3_0_1_0_7_0,NA,NA,skipped,NA,397813.29999995,NA,NA,397811.9,397813.39999986,2024-05-12T10:36:13Z,397828.4,NULL,Niveau,kiwango,s,usimamizi,mwamali,mshairi,NA,sdfdsf,NA,1,NA,NA,NA,NA,NA,NA,NA,NA,NA,NA,NA,NA,NA,NA,NA,NA,NA,NA,NA
1e0cb,Shallow Question,html.Page,3_0_1_0_7_1_0,NA,NA,form submission,3540.8000000477,397813.5,397811.9,397828.4,401369.20000005,401369.39999986,2024-05-12T10:36:16Z,401393.3,NULL,Niveau,kiwango,s,usimamizi,mwamali,mshairi,kiwango,NA,NA,1,NA,NA,NA,NA,NA,NA,NA,NA,NA,NA,NA,NA,NA,NA,NA,NA,NA,NA,NA
1e0cb,"""Richtig""-Screen",canvas.Screen,3_0_1_0_7_1_1,NA,NA,timeout,4996.9,401371.39999986,401376.824,401393.3,406373.3,406374.29999995,2024-05-12T10:36:21Z,406390.2,NULL,Niveau,kiwango,s,usimamizi,mwamali,mshairi,NA,sdfdsf,1,1,NA,NA,NA,NA,NA,NA,NA,NA,NA,NA,NA,NA,NA,NA,NA,NA,NA,NA,NA
1e0cb,"""Falsch""-Screen",canvas.Screen,3_0_1_0_7_1_2,NA,NA,skipped,NA,406379.20000005,NA,NA,406373.3,406379.39999986,2024-05-12T10:36:21Z,406390.2,NULL,Niveau,kiwango,s,usimamizi,mwamali,mshairi,NA,sdfdsf,NA,1,NA,NA,NA,NA,NA,NA,NA,NA,NA,NA,NA,NA,NA,NA,NA,NA,NA,NA,NA
1e0cb,shallow,flow.Sequence,3_0_1_0_7_1,NA,NA,completion,8544.9,397813.5,397811.9,397828.4,406373.3,406379.5999999,2024-05-12T10:36:21Z,406390.2,NULL,Niveau,kiwango,s,usimamizi,mwamali,mshairi,NA,sdfdsf,NA,1,NA,NA,NA,NA,NA,NA,NA,NA,NA,NA,NA,NA,NA,NA,NA,NA,NA,NA,NA
1e0cb,task,flow.Sequence,3_0_1_0_7,NA,NA,completion,8544.9,397813.29999995,397811.9,397828.4,406373.3,406379.70000005,2024-05-12T10:36:21Z,406390.2,NULL,Niveau,kiwango,s,usimamizi,mwamali,mshairi,NA,sdfdsf,NA,1,NA,NA,NA,NA,NA,NA,NA,NA,NA,NA,NA,NA,NA,NA,NA,NA,NA,NA,NA
1e0cb,block,flow.Loop,3_0_1_0,NA,NA,completion,100470.8,305912.5,305902.5,305902.5,406373.3,406379.79999995,2024-05-12T10:36:21Z,406390.2,NULL,NA,NA,NA,NA,NA,NA,NA,sdfdsf,NA,1,NA,NA,NA,NA,NA,NA,NA,NA,NA,NA,NA,NA,NA,NA,NA,NA,NA,NA,NA
1e0cb,weiter,canvas.Screen,3_0_1_1,sdf,keypress(Space),response,17117.099999952,406379.79999995,406373.3,406390.2,423507.29999995,423508.20000005,2024-05-12T10:36:39Z,423529.3,NULL,NA,NA,NA,NA,NA,NA,NA,sdfdsf,NA,1,NA,NA,NA,NA,NA,NA,NA,NA,NA,NA,NA,NA,NA,NA,NA,NA,NA,NA,NA
1e0cb,check continue,flow.Sequence,3_0_1,NA,NA,completion,117604.79999995,305912.5,305902.5,305902.5,423507.29999995,423508.39999986,2024-05-12T10:36:39Z,423529.3,NULL,NA,NA,NA,NA,NA,NA,NA,sdfdsf,NA,1,NA,NA,NA,NA,NA,NA,NA,NA,NA,NA,NA,NA,NA,NA,NA,NA,NA,NA,NA
1e0cb,deep,flow.Sequence,3_0_2_0_0_0,NA,NA,skipped,NA,423530.89999986,NA,NA,423507.29999995,423531,2024-05-12T10:36:39Z,423529.3,NULL,Niveau,kiwango,s,usimamizi,mwamali,mshairi,NA,sdf,NA,2,NA,NA,NA,NA,NA,NA,NA,NA,NA,NA,NA,NA,NA,NA,NA,NA,NA,NA,NA
1e0cb,Shallow Question,html.Page,3_0_2_0_0_1_0,NA,NA,form submission,4250.7,423531,423522.848,423529.3,427780,427780.20000005,2024-05-12T10:36:43Z,427793.9,NULL,Niveau,kiwango,s,usimamizi,mwamali,mshairi,kiwango,NA,NA,2,NA,NA,NA,NA,NA,NA,NA,NA,NA,NA,NA,NA,NA,NA,NA,NA,NA,NA,NA
1e0cb,"""Richtig""-Screen",canvas.Screen,3_0_2_0_0_1_1,NA,NA,timeout,4996.9,427783,427777.39,427793.9,432774.2,432774.70000005,2024-05-12T10:36:48Z,432790.8,NULL,Niveau,kiwango,s,usimamizi,mwamali,mshairi,NA,sdf,1,2,NA,NA,NA,NA,NA,NA,NA,NA,NA,NA,NA,NA,NA,NA,NA,NA,NA,NA,NA
1e0cb,"""Falsch""-Screen",canvas.Screen,3_0_2_0_0_1_2,NA,NA,skipped,NA,432776.70000005,NA,NA,432774.2,432776.70000005,2024-05-12T10:36:48Z,432790.8,NULL,Niveau,kiwango,s,usimamizi,mwamali,mshairi,NA,sdf,NA,2,NA,NA,NA,NA,NA,NA,NA,NA,NA,NA,NA,NA,NA,NA,NA,NA,NA,NA,NA
1e0cb,shallow,flow.Sequence,3_0_2_0_0_1,NA,NA,completion,9244.9,423531,423522.848,423529.3,432774.2,432776.89999986,2024-05-12T10:36:48Z,432790.8,NULL,Niveau,kiwango,s,usimamizi,mwamali,mshairi,NA,sdf,NA,2,NA,NA,NA,NA,NA,NA,NA,NA,NA,NA,NA,NA,NA,NA,NA,NA,NA,NA,NA
1e0cb,task,flow.Sequence,3_0_2_0_0,NA,NA,completion,9244.9,423530.89999986,423522.848,423529.3,432774.2,432776.89999986,2024-05-12T10:36:48Z,432790.8,NULL,Niveau,kiwango,s,usimamizi,mwamali,mshairi,NA,sdf,NA,2,NA,NA,NA,NA,NA,NA,NA,NA,NA,NA,NA,NA,NA,NA,NA,NA,NA,NA,NA
1e0cb,Deep Question,html.Page,3_0_2_0_1_0_0,NA,NA,form submission,12779.400000048,432776.89999986,432774.2,432790.8,445570.20000005,445570.5999999,2024-05-12T10:37:01Z,445582.9,NULL,Entwicklung,maendeleo,d,NA,NA,NA,maendaleo,NA,NA,2,NA,NA,NA,NA,NA,NA,NA,NA,NA,NA,NA,NA,NA,NA,NA,NA,NA,NA,NA
1e0cb,"""Richtig""-Screen",canvas.Screen,3_0_2_0_1_0_1,NA,NA,skipped,NA,445573.5,NA,NA,445570.20000005,445573.5999999,2024-05-12T10:37:01Z,445582.9,NULL,Entwicklung,maendeleo,d,NA,NA,NA,NA,sdf,NA,2,NA,NA,NA,NA,NA,NA,NA,NA,NA,NA,NA,NA,NA,NA,NA,NA,NA,NA,NA
1e0cb,"""Falsch""-Screen",canvas.Screen,3_0_2_0_1_0_2,NA,NA,timeout,4996.9,445574.29999995,445566.59,445582.9,450563.4,450563.79999995,2024-05-12T10:37:06Z,450579.8,NULL,Entwicklung,maendeleo,d,NA,NA,NA,NA,sdf,0,2,NA,NA,NA,NA,NA,NA,NA,NA,NA,NA,NA,NA,NA,NA,NA,NA,NA,NA,NA
1e0cb,deep,flow.Sequence,3_0_2_0_1_0,NA,NA,completion,17772.6,432776.89999986,432774.2,432790.8,450563.4,450563.89999986,2024-05-12T10:37:06Z,450579.8,NULL,Entwicklung,maendeleo,d,NA,NA,NA,NA,sdf,NA,2,NA,NA,NA,NA,NA,NA,NA,NA,NA,NA,NA,NA,NA,NA,NA,NA,NA,NA,NA
1e0cb,shallow,flow.Sequence,3_0_2_0_1_1,NA,NA,skipped,NA,450563.89999986,NA,NA,450563.4,450564,2024-05-12T10:37:06Z,450579.8,NULL,Entwicklung,maendeleo,d,NA,NA,NA,NA,sdf,NA,2,NA,NA,NA,NA,NA,NA,NA,NA,NA,NA,NA,NA,NA,NA,NA,NA,NA,NA,NA
1e0cb,task,flow.Sequence,3_0_2_0_1,NA,NA,completion,17772.6,432776.89999986,432774.2,432790.8,450563.4,450564,2024-05-12T10:37:06Z,450579.8,NULL,Entwicklung,maendeleo,d,NA,NA,NA,NA,sdf,NA,2,NA,NA,NA,NA,NA,NA,NA,NA,NA,NA,NA,NA,NA,NA,NA,NA,NA,NA,NA
1e0cb,Deep Question,html.Page,3_0_2_0_2_0_0,NA,NA,form submission,6694.4000000477,450564,450563.4,450579.8,457274.20000005,457274.29999995,2024-05-12T10:37:12Z,457275.994,NULL,Spionage,upelelezi,d,NA,NA,NA,upelelezi,NA,NA,2,NA,NA,NA,NA,NA,NA,NA,NA,NA,NA,NA,NA,NA,NA,NA,NA,NA,NA,NA
1e0cb,"""Richtig""-Screen",canvas.Screen,3_0_2_0_2_0_1,NA,NA,timeout,4996.906,457277.39999986,457275.994,457275.994,462256.2,462257.0999999,2024-05-12T10:37:17Z,462272.9,NULL,Spionage,upelelezi,d,NA,NA,NA,NA,sdf,1,2,NA,NA,NA,NA,NA,NA,NA,NA,NA,NA,NA,NA,NA,NA,NA,NA,NA,NA,NA
1e0cb,"""Falsch""-Screen",canvas.Screen,3_0_2_0_2_0_2,NA,NA,skipped,NA,462262,NA,NA,462256.2,462262.20000005,2024-05-12T10:37:17Z,462272.9,NULL,Spionage,upelelezi,d,NA,NA,NA,NA,sdf,NA,2,NA,NA,NA,NA,NA,NA,NA,NA,NA,NA,NA,NA,NA,NA,NA,NA,NA,NA,NA
1e0cb,deep,flow.Sequence,3_0_2_0_2_0,NA,NA,completion,11676.4,450564,450563.4,450579.8,462256.2,462262.39999986,2024-05-12T10:37:17Z,462272.9,NULL,Spionage,upelelezi,d,NA,NA,NA,NA,sdf,NA,2,NA,NA,NA,NA,NA,NA,NA,NA,NA,NA,NA,NA,NA,NA,NA,NA,NA,NA,NA
1e0cb,shallow,flow.Sequence,3_0_2_0_2_1,NA,NA,skipped,NA,462262.39999986,NA,NA,462256.2,462262.39999986,2024-05-12T10:37:17Z,462272.9,NULL,Spionage,upelelezi,d,NA,NA,NA,NA,sdf,NA,2,NA,NA,NA,NA,NA,NA,NA,NA,NA,NA,NA,NA,NA,NA,NA,NA,NA,NA,NA
1e0cb,task,flow.Sequence,3_0_2_0_2,NA,NA,completion,11676.4,450564,450563.4,450579.8,462256.2,462262.5,2024-05-12T10:37:17Z,462272.9,NULL,Spionage,upelelezi,d,NA,NA,NA,NA,sdf,NA,2,NA,NA,NA,NA,NA,NA,NA,NA,NA,NA,NA,NA,NA,NA,NA,NA,NA,NA,NA
1e0cb,deep,flow.Sequence,3_0_2_0_3_0,NA,NA,skipped,NA,462262.5,NA,NA,462256.2,462262.5,2024-05-12T10:37:17Z,462272.9,NULL,Tester,wanaojaribu,s,sherti,sihiri,mlipuko,NA,sdf,NA,2,NA,NA,NA,NA,NA,NA,NA,NA,NA,NA,NA,NA,NA,NA,NA,NA,NA,NA,NA
1e0cb,Shallow Question,html.Page,3_0_2_0_3_1_0,NA,NA,form submission,4097.3000000477,462262.5999999,462256.2,462272.9,466370.20000005,466370.39999986,2024-05-12T10:37:21Z,466387,NULL,Tester,wanaojaribu,s,sherti,sihiri,mlipuko,wanaojaribu,NA,NA,2,NA,NA,NA,NA,NA,NA,NA,NA,NA,NA,NA,NA,NA,NA,NA,NA,NA,NA,NA
1e0cb,"""Richtig""-Screen",canvas.Screen,3_0_2_0_3_1_1,NA,NA,timeout,4996.5,466373.29999995,466370.518,466387,471367,471368,2024-05-12T10:37:26Z,471383.5,NULL,Tester,wanaojaribu,s,sherti,sihiri,mlipuko,NA,sdf,1,2,NA,NA,NA,NA,NA,NA,NA,NA,NA,NA,NA,NA,NA,NA,NA,NA,NA,NA,NA
1e0cb,"""Falsch""-Screen",canvas.Screen,3_0_2_0_3_1_2,NA,NA,skipped,NA,471373.0999999,NA,NA,471367,471373.20000005,2024-05-12T10:37:26Z,471383.5,NULL,Tester,wanaojaribu,s,sherti,sihiri,mlipuko,NA,sdf,NA,2,NA,NA,NA,NA,NA,NA,NA,NA,NA,NA,NA,NA,NA,NA,NA,NA,NA,NA,NA
1e0cb,shallow,flow.Sequence,3_0_2_0_3_1,NA,NA,completion,9094.1,462262.5,462256.2,462272.9,471367,471373.29999995,2024-05-12T10:37:26Z,471383.5,NULL,Tester,wanaojaribu,s,sherti,sihiri,mlipuko,NA,sdf,NA,2,NA,NA,NA,NA,NA,NA,NA,NA,NA,NA,NA,NA,NA,NA,NA,NA,NA,NA,NA
1e0cb,task,flow.Sequence,3_0_2_0_3,NA,NA,completion,9094.1,462262.5,462256.2,462272.9,471367,471373.39999986,2024-05-12T10:37:26Z,471383.5,NULL,Tester,wanaojaribu,s,sherti,sihiri,mlipuko,NA,sdf,NA,2,NA,NA,NA,NA,NA,NA,NA,NA,NA,NA,NA,NA,NA,NA,NA,NA,NA,NA,NA
1e0cb,deep,flow.Sequence,3_0_2_0_4_0,NA,NA,skipped,NA,471373.5,NA,NA,471367,471373.5,2024-05-12T10:37:26Z,471383.5,NULL,Schüler,mwanafunzi,s,mwekezaji,matumizi,uaminifu,NA,sdf,NA,2,NA,NA,NA,NA,NA,NA,NA,NA,NA,NA,NA,NA,NA,NA,NA,NA,NA,NA,NA
1e0cb,Shallow Question,html.Page,3_0_2_0_4_1_0,NA,NA,form submission,4279,471373.5,471367,471383.5,475662.5,475662.5,2024-05-12T10:37:31Z,475664.2,NULL,Schüler,mwanafunzi,s,mwekezaji,matumizi,uaminifu,mwanafunzi,NA,NA,2,NA,NA,NA,NA,NA,NA,NA,NA,NA,NA,NA,NA,NA,NA,NA,NA,NA,NA,NA
1e0cb,"""Richtig""-Screen",canvas.Screen,3_0_2_0_4_1_1,NA,NA,timeout,4997.3,475663.89999986,475648.124,475664.2,480644.5,480645.5,2024-05-12T10:37:36Z,480661.5,NULL,Schüler,mwanafunzi,s,mwekezaji,matumizi,uaminifu,NA,sdf,1,2,NA,NA,NA,NA,NA,NA,NA,NA,NA,NA,NA,NA,NA,NA,NA,NA,NA,NA,NA
1e0cb,"""Falsch""-Screen",canvas.Screen,3_0_2_0_4_1_2,NA,NA,skipped,NA,480650.39999986,NA,NA,480644.5,480650.5,2024-05-12T10:37:36Z,480661.5,NULL,Schüler,mwanafunzi,s,mwekezaji,matumizi,uaminifu,NA,sdf,NA,2,NA,NA,NA,NA,NA,NA,NA,NA,NA,NA,NA,NA,NA,NA,NA,NA,NA,NA,NA
1e0cb,shallow,flow.Sequence,3_0_2_0_4_1,NA,NA,completion,9261,471373.5,471367,471383.5,480644.5,480650.5999999,2024-05-12T10:37:36Z,480661.5,NULL,Schüler,mwanafunzi,s,mwekezaji,matumizi,uaminifu,NA,sdf,NA,2,NA,NA,NA,NA,NA,NA,NA,NA,NA,NA,NA,NA,NA,NA,NA,NA,NA,NA,NA
1e0cb,task,flow.Sequence,3_0_2_0_4,NA,NA,completion,9261,471373.5,471367,471383.5,480644.5,480650.5999999,2024-05-12T10:37:36Z,480661.5,NULL,Schüler,mwanafunzi,s,mwekezaji,matumizi,uaminifu,NA,sdf,NA,2,NA,NA,NA,NA,NA,NA,NA,NA,NA,NA,NA,NA,NA,NA,NA,NA,NA,NA,NA
1e0cb,deep,flow.Sequence,3_0_2_0_5_0,NA,NA,skipped,NA,480650.70000005,NA,NA,480644.5,480650.70000005,2024-05-12T10:37:36Z,480661.5,NULL,Papier,karatasi,s,uchambuzi,usalama,kukataliwa,NA,sdf,NA,2,NA,NA,NA,NA,NA,NA,NA,NA,NA,NA,NA,NA,NA,NA,NA,NA,NA,NA,NA
1e0cb,Shallow Question,html.Page,3_0_2_0_5_1_0,NA,NA,form submission,4164,480650.70000005,480644.5,480661.5,484825.5,484825.70000005,2024-05-12T10:37:40Z,484842.3,NULL,Papier,karatasi,s,uchambuzi,usalama,kukataliwa,karatasi,NA,NA,2,NA,NA,NA,NA,NA,NA,NA,NA,NA,NA,NA,NA,NA,NA,NA,NA,NA,NA,NA
1e0cb,"""Richtig""-Screen",canvas.Screen,3_0_2_0_5_1_1,NA,NA,timeout,4996.8,484828.5,484826.308,484842.3,489822.5,489823.5,2024-05-12T10:37:45Z,489839.1,NULL,Papier,karatasi,s,uchambuzi,usalama,kukataliwa,NA,sdf,1,2,NA,NA,NA,NA,NA,NA,NA,NA,NA,NA,NA,NA,NA,NA,NA,NA,NA,NA,NA
1e0cb,"""Falsch""-Screen",canvas.Screen,3_0_2_0_5_1_2,NA,NA,skipped,NA,489828.5,NA,NA,489822.5,489828.70000005,2024-05-12T10:37:45Z,489839.1,NULL,Papier,karatasi,s,uchambuzi,usalama,kukataliwa,NA,sdf,NA,2,NA,NA,NA,NA,NA,NA,NA,NA,NA,NA,NA,NA,NA,NA,NA,NA,NA,NA,NA
1e0cb,shallow,flow.Sequence,3_0_2_0_5_1,NA,NA,completion,9161,480650.70000005,480644.5,480661.5,489822.5,489828.89999986,2024-05-12T10:37:45Z,489839.1,NULL,Papier,karatasi,s,uchambuzi,usalama,kukataliwa,NA,sdf,NA,2,NA,NA,NA,NA,NA,NA,NA,NA,NA,NA,NA,NA,NA,NA,NA,NA,NA,NA,NA
1e0cb,task,flow.Sequence,3_0_2_0_5,NA,NA,completion,9161,480650.70000005,480644.5,480661.5,489822.5,489828.89999986,2024-05-12T10:37:45Z,489839.1,NULL,Papier,karatasi,s,uchambuzi,usalama,kukataliwa,NA,sdf,NA,2,NA,NA,NA,NA,NA,NA,NA,NA,NA,NA,NA,NA,NA,NA,NA,NA,NA,NA,NA
1e0cb,Deep Question,html.Page,3_0_2_0_6_0_0,NA,NA,form submission,6379.299999857,489829,489822.5,489839.1,496218.39999986,496218.70000005,2024-05-12T10:37:51Z,496235.6,NULL,Fenster,dirisha,d,NA,NA,NA,mashtaka,NA,NA,2,NA,NA,NA,NA,NA,NA,NA,NA,NA,NA,NA,NA,NA,NA,NA,NA,NA,NA,NA
1e0cb,"""Richtig""-Screen",canvas.Screen,3_0_2_0_6_0_1,NA,NA,skipped,NA,496221.5999999,NA,NA,496218.39999986,496221.70000005,2024-05-12T10:37:51Z,496235.6,NULL,Fenster,dirisha,d,NA,NA,NA,NA,sdf,NA,2,NA,NA,NA,NA,NA,NA,NA,NA,NA,NA,NA,NA,NA,NA,NA,NA,NA,NA,NA
1e0cb,"""Falsch""-Screen",canvas.Screen,3_0_2_0_6_0_2,NA,NA,timeout,4996.7,496222.39999986,496219.048,496235.6,501215.8,501216.70000005,2024-05-12T10:37:56Z,501232.3,NULL,Fenster,dirisha,d,NA,NA,NA,NA,sdf,0,2,NA,NA,NA,NA,NA,NA,NA,NA,NA,NA,NA,NA,NA,NA,NA,NA,NA,NA,NA
1e0cb,deep,flow.Sequence,3_0_2_0_6_0,NA,NA,completion,11376.7,489829,489822.5,489839.1,501215.8,501217.0999999,2024-05-12T10:37:56Z,501232.3,NULL,Fenster,dirisha,d,NA,NA,NA,NA,sdf,NA,2,NA,NA,NA,NA,NA,NA,NA,NA,NA,NA,NA,NA,NA,NA,NA,NA,NA,NA,NA
1e0cb,shallow,flow.Sequence,3_0_2_0_6_1,NA,NA,skipped,NA,501217.20000005,NA,NA,501215.8,501217.39999986,2024-05-12T10:37:56Z,501232.3,NULL,Fenster,dirisha,d,NA,NA,NA,NA,sdf,NA,2,NA,NA,NA,NA,NA,NA,NA,NA,NA,NA,NA,NA,NA,NA,NA,NA,NA,NA,NA
1e0cb,task,flow.Sequence,3_0_2_0_6,NA,NA,completion,11376.7,489828.89999986,489822.5,489839.1,501215.8,501217.5999999,2024-05-12T10:37:56Z,501232.3,NULL,Fenster,dirisha,d,NA,NA,NA,NA,sdf,NA,2,NA,NA,NA,NA,NA,NA,NA,NA,NA,NA,NA,NA,NA,NA,NA,NA,NA,NA,NA
1e0cb,Deep Question,html.Page,3_0_2_0_7_0_0,NA,NA,form submission,6213.099999857,501217.70000005,501215.8,501232.3,507445.39999986,507445.5,2024-05-12T10:38:02Z,507478.4,NULL,Vorwurf,mashtaka,d,NA,NA,NA,mashtaka,NA,NA,2,NA,NA,NA,NA,NA,NA,NA,NA,NA,NA,NA,NA,NA,NA,NA,NA,NA,NA,NA
1e0cb,"""Richtig""-Screen",canvas.Screen,3_0_2_0_7_0_1,NA,NA,timeout,4997.2,507446.79999995,507462.154,507478.4,512458.9,512459.70000005,2024-05-12T10:38:07Z,512475.6,NULL,Vorwurf,mashtaka,d,NA,NA,NA,NA,sdf,1,2,NA,NA,NA,NA,NA,NA,NA,NA,NA,NA,NA,NA,NA,NA,NA,NA,NA,NA,NA
1e0cb,"""Falsch""-Screen",canvas.Screen,3_0_2_0_7_0_2,NA,NA,skipped,NA,512464.39999986,NA,NA,512458.9,512464.5,2024-05-12T10:38:07Z,512475.6,NULL,Vorwurf,mashtaka,d,NA,NA,NA,NA,sdf,NA,2,NA,NA,NA,NA,NA,NA,NA,NA,NA,NA,NA,NA,NA,NA,NA,NA,NA,NA,NA
1e0cb,deep,flow.Sequence,3_0_2_0_7_0,NA,NA,completion,11226.6,501217.70000005,501215.8,501232.3,512458.9,512464.5,2024-05-12T10:38:07Z,512475.6,NULL,Vorwurf,mashtaka,d,NA,NA,NA,NA,sdf,NA,2,NA,NA,NA,NA,NA,NA,NA,NA,NA,NA,NA,NA,NA,NA,NA,NA,NA,NA,NA
1e0cb,shallow,flow.Sequence,3_0_2_0_7_1,NA,NA,skipped,NA,512464.5999999,NA,NA,512458.9,512464.5999999,2024-05-12T10:38:07Z,512475.6,NULL,Vorwurf,mashtaka,d,NA,NA,NA,NA,sdf,NA,2,NA,NA,NA,NA,NA,NA,NA,NA,NA,NA,NA,NA,NA,NA,NA,NA,NA,NA,NA
1e0cb,task,flow.Sequence,3_0_2_0_7,NA,NA,completion,11226.6,501217.70000005,501215.8,501232.3,512458.9,512464.70000005,2024-05-12T10:38:07Z,512475.6,NULL,Vorwurf,mashtaka,d,NA,NA,NA,NA,sdf,NA,2,NA,NA,NA,NA,NA,NA,NA,NA,NA,NA,NA,NA,NA,NA,NA,NA,NA,NA,NA
1e0cb,block,flow.Loop,3_0_2_0,NA,NA,completion,88929.6,423530.89999986,423522.848,423529.3,512458.9,512464.79999995,2024-05-12T10:38:07Z,512475.6,NULL,NA,NA,NA,NA,NA,NA,NA,sdf,NA,2,NA,NA,NA,NA,NA,NA,NA,NA,NA,NA,NA,NA,NA,NA,NA,NA,NA,NA,NA
1e0cb,weiter,canvas.Screen,3_0_2_1,sdf,keypress(Space),response,1084.299999857,512464.79999995,512458.9,512475.6,513559.89999986,513560.79999995,2024-05-12T10:38:09Z,513892.21,NULL,NA,NA,NA,NA,NA,NA,NA,sdf,NA,2,NA,NA,NA,NA,NA,NA,NA,NA,NA,NA,NA,NA,NA,NA,NA,NA,NA,NA,NA
1e0cb,check continue,flow.Sequence,3_0_2,NA,NA,completion,90030.599999857,423530.89999986,423522.848,423529.3,513559.89999986,513561.0999999,2024-05-12T10:38:09Z,513892.21,NULL,NA,NA,NA,NA,NA,NA,NA,sdf,NA,2,NA,NA,NA,NA,NA,NA,NA,NA,NA,NA,NA,NA,NA,NA,NA,NA,NA,NA,NA
1e0cb,check continue,flow.Sequence,3_0_3,NA,NA,skipped,NA,513579.5,NA,NA,513559.89999986,513579.5999999,2024-05-12T10:38:09Z,513892.21,NULL,NA,NA,NA,NA,NA,NA,NA,qt,NA,3,NA,NA,NA,NA,NA,NA,NA,NA,NA,NA,NA,NA,NA,NA,NA,NA,NA,NA,NA
1e0cb,check continue,flow.Sequence,3_0_4,NA,NA,skipped,NA,513593.39999986,NA,NA,513559.89999986,513593.5,2024-05-12T10:38:09Z,513892.21,NULL,NA,NA,NA,NA,NA,NA,NA,sd,NA,4,NA,NA,NA,NA,NA,NA,NA,NA,NA,NA,NA,NA,NA,NA,NA,NA,NA,NA,NA
1e0cb,check continue,flow.Sequence,3_0_5,NA,NA,skipped,NA,513611.20000005,NA,NA,513559.89999986,513611.39999986,2024-05-12T10:38:09Z,513892.21,NULL,NA,NA,NA,NA,NA,NA,NA,sdf,NA,5,NA,NA,NA,NA,NA,NA,NA,NA,NA,NA,NA,NA,NA,NA,NA,NA,NA,NA,NA
1e0cb,check continue,flow.Sequence,3_0_6,NA,NA,skipped,NA,513625.20000005,NA,NA,513559.89999986,513625.29999995,2024-05-12T10:38:09Z,513892.21,NULL,NA,NA,NA,NA,NA,NA,NA,dfs,NA,6,NA,NA,NA,NA,NA,NA,NA,NA,NA,NA,NA,NA,NA,NA,NA,NA,NA,NA,NA
1e0cb,check continue,flow.Sequence,3_0_7,NA,NA,skipped,NA,513638.20000005,NA,NA,513559.89999986,513638.20000005,2024-05-12T10:38:09Z,513892.21,NULL,NA,NA,NA,NA,NA,NA,NA,df,NA,7,NA,NA,NA,NA,NA,NA,NA,NA,NA,NA,NA,NA,NA,NA,NA,NA,NA,NA,NA
1e0cb,check continue,flow.Sequence,3_0_8,NA,NA,skipped,NA,513651.20000005,NA,NA,513559.89999986,513651.29999995,2024-05-12T10:38:09Z,513892.21,NULL,NA,NA,NA,NA,NA,NA,NA,dfs,NA,8,NA,NA,NA,NA,NA,NA,NA,NA,NA,NA,NA,NA,NA,NA,NA,NA,NA,NA,NA
1e0cb,check continue,flow.Sequence,3_0_9,NA,NA,skipped,NA,513663.70000005,NA,NA,513559.89999986,513663.70000005,2024-05-12T10:38:09Z,513892.21,NULL,NA,NA,NA,NA,NA,NA,NA,dsf,NA,9,NA,NA,NA,NA,NA,NA,NA,NA,NA,NA,NA,NA,NA,NA,NA,NA,NA,NA,NA
1e0cb,check continue,flow.Sequence,3_0_10,NA,NA,skipped,NA,513676.0999999,NA,NA,513559.89999986,513676.20000005,2024-05-12T10:38:09Z,513892.21,NULL,NA,NA,NA,NA,NA,NA,NA,df,NA,10,NA,NA,NA,NA,NA,NA,NA,NA,NA,NA,NA,NA,NA,NA,NA,NA,NA,NA,NA
1e0cb,check continue,flow.Sequence,3_0_11,NA,NA,skipped,NA,513688.5999999,NA,NA,513559.89999986,513688.5999999,2024-05-12T10:38:09Z,513892.21,NULL,NA,NA,NA,NA,NA,NA,NA,dfs,NA,11,NA,NA,NA,NA,NA,NA,NA,NA,NA,NA,NA,NA,NA,NA,NA,NA,NA,NA,NA
1e0cb,check continue,flow.Sequence,3_0_12,NA,NA,skipped,NA,513700.5999999,NA,NA,513559.89999986,513700.70000005,2024-05-12T10:38:09Z,513892.21,NULL,NA,NA,NA,NA,NA,NA,NA,dsf,NA,12,NA,NA,NA,NA,NA,NA,NA,NA,NA,NA,NA,NA,NA,NA,NA,NA,NA,NA,NA
1e0cb,check continue,flow.Sequence,3_0_13,NA,NA,skipped,NA,513712.20000005,NA,NA,513559.89999986,513712.29999995,2024-05-12T10:38:09Z,513892.21,NULL,NA,NA,NA,NA,NA,NA,NA,dsf,NA,13,NA,NA,NA,NA,NA,NA,NA,NA,NA,NA,NA,NA,NA,NA,NA,NA,NA,NA,NA
1e0cb,check continue,flow.Sequence,3_0_14,NA,NA,skipped,NA,513724.0999999,NA,NA,513559.89999986,513724.20000005,2024-05-12T10:38:09Z,513892.21,NULL,NA,NA,NA,NA,NA,NA,NA,NA,NA,14,NA,NA,NA,NA,NA,NA,NA,NA,NA,NA,NA,NA,NA,NA,NA,NA,NA,NA,NA
1e0cb,check continue,flow.Sequence,3_0_15,NA,NA,skipped,NA,513735,NA,NA,513559.89999986,513735.20000005,2024-05-12T10:38:09Z,513892.21,NULL,NA,NA,NA,NA,NA,NA,NA,NA,NA,15,NA,NA,NA,NA,NA,NA,NA,NA,NA,NA,NA,NA,NA,NA,NA,NA,NA,NA,NA
1e0cb,check continue,flow.Sequence,3_0_16,NA,NA,skipped,NA,513746.20000005,NA,NA,513559.89999986,513746.20000005,2024-05-12T10:38:09Z,513892.21,NULL,NA,NA,NA,NA,NA,NA,NA,NA,NA,16,NA,NA,NA,NA,NA,NA,NA,NA,NA,NA,NA,NA,NA,NA,NA,NA,NA,NA,NA
1e0cb,check continue,flow.Sequence,3_0_17,NA,NA,skipped,NA,513757.39999986,NA,NA,513559.89999986,513757.5,2024-05-12T10:38:09Z,513892.21,NULL,NA,NA,NA,NA,NA,NA,NA,NA,NA,17,NA,NA,NA,NA,NA,NA,NA,NA,NA,NA,NA,NA,NA,NA,NA,NA,NA,NA,NA
1e0cb,check continue,flow.Sequence,3_0_18,NA,NA,skipped,NA,513768.5999999,NA,NA,513559.89999986,513768.5999999,2024-05-12T10:38:09Z,513892.21,NULL,NA,NA,NA,NA,NA,NA,NA,NA,NA,18,NA,NA,NA,NA,NA,NA,NA,NA,NA,NA,NA,NA,NA,NA,NA,NA,NA,NA,NA
1e0cb,check continue,flow.Sequence,3_0_19,NA,NA,skipped,NA,513781.0999999,NA,NA,513559.89999986,513781.20000005,2024-05-12T10:38:09Z,513892.21,NULL,NA,NA,NA,NA,NA,NA,NA,NA,NA,19,NA,NA,NA,NA,NA,NA,NA,NA,NA,NA,NA,NA,NA,NA,NA,NA,NA,NA,NA
1e0cb,check continue,flow.Sequence,3_0_20,NA,NA,skipped,NA,513792.0999999,NA,NA,513559.89999986,513792.20000005,2024-05-12T10:38:09Z,513892.21,NULL,NA,NA,NA,NA,NA,NA,NA,NA,NA,20,NA,NA,NA,NA,NA,NA,NA,NA,NA,NA,NA,NA,NA,NA,NA,NA,NA,NA,NA
1e0cb,check continue,flow.Sequence,3_0_21,NA,NA,skipped,NA,513805.70000005,NA,NA,513559.89999986,513805.79999995,2024-05-12T10:38:09Z,513892.21,NULL,NA,NA,NA,NA,NA,NA,NA,NA,NA,21,NA,NA,NA,NA,NA,NA,NA,NA,NA,NA,NA,NA,NA,NA,NA,NA,NA,NA,NA
1e0cb,check continue,flow.Sequence,3_0_22,NA,NA,skipped,NA,513815.89999986,NA,NA,513559.89999986,513815.89999986,2024-05-12T10:38:09Z,513892.21,NULL,NA,NA,NA,NA,NA,NA,NA,NA,NA,22,NA,NA,NA,NA,NA,NA,NA,NA,NA,NA,NA,NA,NA,NA,NA,NA,NA,NA,NA
1e0cb,check continue,flow.Sequence,3_0_23,NA,NA,skipped,NA,513826.79999995,NA,NA,513559.89999986,513827,2024-05-12T10:38:09Z,513892.21,NULL,NA,NA,NA,NA,NA,NA,NA,NA,NA,23,NA,NA,NA,NA,NA,NA,NA,NA,NA,NA,NA,NA,NA,NA,NA,NA,NA,NA,NA
1e0cb,check continue,flow.Sequence,3_0_24,NA,NA,skipped,NA,513839.0999999,NA,NA,513559.89999986,513839.20000005,2024-05-12T10:38:09Z,513892.21,NULL,NA,NA,NA,NA,NA,NA,NA,NA,NA,24,NA,NA,NA,NA,NA,NA,NA,NA,NA,NA,NA,NA,NA,NA,NA,NA,NA,NA,NA
1e0cb,check continue,flow.Sequence,3_0_25,NA,NA,skipped,NA,513850,NA,NA,513559.89999986,513850.0999999,2024-05-12T10:38:09Z,513892.21,NULL,NA,NA,NA,NA,NA,NA,NA,NA,NA,25,NA,NA,NA,NA,NA,NA,NA,NA,NA,NA,NA,NA,NA,NA,NA,NA,NA,NA,NA
1e0cb,check continue,flow.Sequence,3_0_26,NA,NA,skipped,NA,513861.5,NA,NA,513559.89999986,513861.5,2024-05-12T10:38:09Z,513892.21,NULL,NA,NA,NA,NA,NA,NA,NA,NA,NA,26,NA,NA,NA,NA,NA,NA,NA,NA,NA,NA,NA,NA,NA,NA,NA,NA,NA,NA,NA
1e0cb,check continue,flow.Sequence,3_0_27,NA,NA,skipped,NA,513871.39999986,NA,NA,513559.89999986,513871.5,2024-05-12T10:38:09Z,513892.21,NULL,NA,NA,NA,NA,NA,NA,NA,NA,NA,27,NA,NA,NA,NA,NA,NA,NA,NA,NA,NA,NA,NA,NA,NA,NA,NA,NA,NA,NA
1e0cb,check continue,flow.Sequence,3_0_28,NA,NA,skipped,NA,513883,NA,NA,513559.89999986,513883.0999999,2024-05-12T10:38:09Z,513892.21,NULL,NA,NA,NA,NA,NA,NA,NA,NA,NA,28,NA,NA,NA,NA,NA,NA,NA,NA,NA,NA,NA,NA,NA,NA,NA,NA,NA,NA,NA
1e0cb,check continue,flow.Sequence,3_0_29,NA,NA,skipped,NA,513893.5,NA,NA,513559.89999986,513893.5999999,2024-05-12T10:38:09Z,513892.21,NULL,NA,NA,NA,NA,NA,NA,NA,NA,NA,29,NA,NA,NA,NA,NA,NA,NA,NA,NA,NA,NA,NA,NA,NA,NA,NA,NA,NA,NA
1e0cb,until continue,flow.Loop,3_0,NA,NA,completion,324379.53799986,189164.79999995,189180.362,189180.362,513559.89999986,513893.70000005,2024-05-12T10:38:09Z,513892.21,NULL,NA,NA,NA,NA,NA,NA,NA,NA,NA,NA,NA,NA,NA,NA,NA,NA,NA,NA,NA,NA,NA,NA,NA,NA,NA,NA,NA,NA,NA
1e0cb,block 1,flow.Sequence,3,NA,NA,completion,324379.53799986,189164.79999995,189180.362,189180.362,513559.89999986,513893.79999995,2024-05-12T10:38:09Z,513892.21,NULL,NA,NA,NA,NA,NA,NA,NA,NA,NA,NA,NA,NA,NA,NA,NA,NA,NA,NA,NA,NA,NA,NA,NA,NA,NA,NA,NA,NA,NA
1e0cb,1.Part Over,canvas.Screen,4,NA,keypress(Space),response,2724.1899998569,513893.79999995,513892.21,513892.21,516616.39999986,516617,2024-05-12T10:38:12Z,516673.1,NULL,NA,NA,NA,NA,NA,NA,NA,NA,NA,NA,NA,NA,NA,NA,NA,NA,NA,NA,NA,NA,NA,NA,NA,NA,NA,NA,NA,NA,NA
1e0cb,deep,flow.Sequence,5_0_0_0_0_0,NA,NA,skipped,NA,516657.20000005,NA,NA,516616.39999986,516657.29999995,2024-05-12T10:38:12Z,516673.1,NULL,Integrität,uadilifu,s,muungano,mtiririko,upunguaji,NA,sdf,NA,0,NA,NA,NA,NA,NA,NA,NA,NA,NA,NA,NA,NA,NA,NA,NA,NA,NA,NA,NA
1e0cb,Shallow Question,html.Page,5_0_0_0_0_1_0,NA,NA,form submission,9990.4,516657.39999986,516657.196,516673.1,526663.5,526663.79999995,2024-05-12T10:38:22Z,526667.964,NULL,Integrität,uadilifu,s,muungano,mtiririko,upunguaji,upunguaji,NA,NA,0,NA,NA,NA,NA,NA,NA,NA,NA,NA,NA,NA,NA,NA,NA,NA,NA,NA,NA,NA
1e0cb,"""Richtig""-Screen",canvas.Screen,5_0_0_0_0_1_1,NA,NA,skipped,NA,526667.39999986,NA,NA,526663.5,526667.70000005,2024-05-12T10:38:22Z,526667.964,NULL,Integrität,uadilifu,s,muungano,mtiririko,upunguaji,NA,sdf,NA,0,NA,NA,NA,NA,NA,NA,NA,NA,NA,NA,NA,NA,NA,NA,NA,NA,NA,NA,NA
1e0cb,"""Falsch""-Screen",canvas.Screen,5_0_0_0_0_1_2,NA,NA,timeout,4995.936,526668.70000005,526667.964,526667.964,531647,531648.0999999,2024-05-12T10:38:27Z,531663.9,NULL,Integrität,uadilifu,s,muungano,mtiririko,upunguaji,NA,sdf,0,0,NA,NA,NA,NA,NA,NA,NA,NA,NA,NA,NA,NA,NA,NA,NA,NA,NA,NA,NA
1e0cb,shallow,flow.Sequence,5_0_0_0_0_1,NA,NA,completion,14973.9,516657.39999986,516657.196,516673.1,531647,531648.70000005,2024-05-12T10:38:27Z,531663.9,NULL,Integrität,uadilifu,s,muungano,mtiririko,upunguaji,NA,sdf,NA,0,NA,NA,NA,NA,NA,NA,NA,NA,NA,NA,NA,NA,NA,NA,NA,NA,NA,NA,NA
1e0cb,task,flow.Sequence,5_0_0_0_0,NA,NA,completion,14973.9,516657.20000005,516657.196,516673.1,531647,531648.89999986,2024-05-12T10:38:27Z,531663.9,NULL,Integrität,uadilifu,s,muungano,mtiririko,upunguaji,NA,sdf,NA,0,NA,NA,NA,NA,NA,NA,NA,NA,NA,NA,NA,NA,NA,NA,NA,NA,NA,NA,NA
1e0cb,deep,flow.Sequence,5_0_0_0_1_0,NA,NA,skipped,NA,531649.0999999,NA,NA,531647,531649.29999995,2024-05-12T10:38:27Z,531663.9,NULL,Fleisch,mshakiki,s,kizunguzungu,mshikamano,angusho,NA,sdf,NA,0,NA,NA,NA,NA,NA,NA,NA,NA,NA,NA,NA,NA,NA,NA,NA,NA,NA,NA,NA
1e0cb,Shallow Question,html.Page,5_0_0_0_1_1_0,NA,NA,form submission,6681.9999998569,531649.5,531647,531663.9,538345.89999986,538346.20000005,2024-05-12T10:38:33Z,538359.7,NULL,Fleisch,mshakiki,s,kizunguzungu,mshikamano,angusho,angusho,NA,NA,0,NA,NA,NA,NA,NA,NA,NA,NA,NA,NA,NA,NA,NA,NA,NA,NA,NA,NA,NA
1e0cb,"""Richtig""-Screen",canvas.Screen,5_0_0_0_1_1_1,NA,NA,skipped,NA,538349.20000005,NA,NA,538345.89999986,538349.29999995,2024-05-12T10:38:33Z,538359.7,NULL,Fleisch,mshakiki,s,kizunguzungu,mshikamano,angusho,NA,sdf,NA,0,NA,NA,NA,NA,NA,NA,NA,NA,NA,NA,NA,NA,NA,NA,NA,NA,NA,NA,NA
1e0cb,"""Falsch""-Screen",canvas.Screen,5_0_0_0_1_1_2,NA,NA,timeout,4996.8,538350.0999999,538343.572,538359.7,543339.9,543340.89999986,2024-05-12T10:38:38Z,543356.5,NULL,Fleisch,mshakiki,s,kizunguzungu,mshikamano,angusho,NA,sdf,0,0,NA,NA,NA,NA,NA,NA,NA,NA,NA,NA,NA,NA,NA,NA,NA,NA,NA,NA,NA
1e0cb,shallow,flow.Sequence,5_0_0_0_1_1,NA,NA,completion,11676,531649.39999986,531647,531663.9,543339.9,543341.29999995,2024-05-12T10:38:38Z,543356.5,NULL,Fleisch,mshakiki,s,kizunguzungu,mshikamano,angusho,NA,sdf,NA,0,NA,NA,NA,NA,NA,NA,NA,NA,NA,NA,NA,NA,NA,NA,NA,NA,NA,NA,NA
1e0cb,task,flow.Sequence,5_0_0_0_1,NA,NA,completion,11676,531649,531647,531663.9,543339.9,543341.5,2024-05-12T10:38:38Z,543356.5,NULL,Fleisch,mshakiki,s,kizunguzungu,mshikamano,angusho,NA,sdf,NA,0,NA,NA,NA,NA,NA,NA,NA,NA,NA,NA,NA,NA,NA,NA,NA,NA,NA,NA,NA
1e0cb,Deep Question,html.Page,5_0_0_0_2_0_0,NA,NA,form submission,7159.7999999523,543341.70000005,543339.9,543356.5,550516.29999995,550516.5,2024-05-12T10:38:46Z,550519.434,NULL,Begegnung,kukutana,d,NA,NA,NA,mshakiki,NA,NA,0,NA,NA,NA,NA,NA,NA,NA,NA,NA,NA,NA,NA,NA,NA,NA,NA,NA,NA,NA
1e0cb,"""Richtig""-Screen",canvas.Screen,5_0_0_0_2_0_1,NA,NA,skipped,NA,550519.5999999,NA,NA,550516.29999995,550519.89999986,2024-05-12T10:38:46Z,550519.434,NULL,Begegnung,kukutana,d,NA,NA,NA,NA,sdf,NA,0,NA,NA,NA,NA,NA,NA,NA,NA,NA,NA,NA,NA,NA,NA,NA,NA,NA,NA,NA
1e0cb,"""Falsch""-Screen",canvas.Screen,5_0_0_0_2_0_2,NA,NA,timeout,4995.966,550520.5999999,550519.434,550519.434,555498.8,555499.29999995,2024-05-12T10:38:51Z,555515.4,NULL,Begegnung,kukutana,d,NA,NA,NA,NA,sdf,0,0,NA,NA,NA,NA,NA,NA,NA,NA,NA,NA,NA,NA,NA,NA,NA,NA,NA,NA,NA
1e0cb,deep,flow.Sequence,5_0_0_0_2_0,NA,NA,completion,12142.3,543341.70000005,543339.9,543356.5,555498.8,555499.39999986,2024-05-12T10:38:51Z,555515.4,NULL,Begegnung,kukutana,d,NA,NA,NA,NA,sdf,NA,0,NA,NA,NA,NA,NA,NA,NA,NA,NA,NA,NA,NA,NA,NA,NA,NA,NA,NA,NA
1e0cb,shallow,flow.Sequence,5_0_0_0_2_1,NA,NA,skipped,NA,555499.5,NA,NA,555498.8,555499.5,2024-05-12T10:38:51Z,555515.4,NULL,Begegnung,kukutana,d,NA,NA,NA,NA,sdf,NA,0,NA,NA,NA,NA,NA,NA,NA,NA,NA,NA,NA,NA,NA,NA,NA,NA,NA,NA,NA
1e0cb,task,flow.Sequence,5_0_0_0_2,NA,NA,completion,12142.3,543341.5999999,543339.9,543356.5,555498.8,555499.5999999,2024-05-12T10:38:51Z,555515.4,NULL,Begegnung,kukutana,d,NA,NA,NA,NA,sdf,NA,0,NA,NA,NA,NA,NA,NA,NA,NA,NA,NA,NA,NA,NA,NA,NA,NA,NA,NA,NA
1e0cb,Deep Question,html.Page,5_0_0_0_3_0_0,NA,NA,form submission,6904.9999998569,555499.5999999,555498.8,555515.4,562420.39999986,562420.5999999,2024-05-12T10:38:57Z,562444.9,NULL,Genehmigung,idhini,d,NA,NA,NA,ukutatana,NA,NA,0,NA,NA,NA,NA,NA,NA,NA,NA,NA,NA,NA,NA,NA,NA,NA,NA,NA,NA,NA
1e0cb,"""Richtig""-Screen",canvas.Screen,5_0_0_0_3_0_1,NA,NA,skipped,NA,562423.70000005,NA,NA,562420.39999986,562423.89999986,2024-05-12T10:38:57Z,562444.9,NULL,Genehmigung,idhini,d,NA,NA,NA,NA,sdf,NA,0,NA,NA,NA,NA,NA,NA,NA,NA,NA,NA,NA,NA,NA,NA,NA,NA,NA,NA,NA
1e0cb,"""Falsch""-Screen",canvas.Screen,5_0_0_0_3_0_2,NA,NA,timeout,4997,562424.5,562428.56,562444.9,567425,567425.89999986,2024-05-12T10:39:02Z,567441.9,NULL,Genehmigung,idhini,d,NA,NA,NA,NA,sdf,0,0,NA,NA,NA,NA,NA,NA,NA,NA,NA,NA,NA,NA,NA,NA,NA,NA,NA,NA,NA
1e0cb,deep,flow.Sequence,5_0_0_0_3_0,NA,NA,completion,11909.6,555499.5999999,555498.8,555515.4,567425,567426.39999986,2024-05-12T10:39:02Z,567441.9,NULL,Genehmigung,idhini,d,NA,NA,NA,NA,sdf,NA,0,NA,NA,NA,NA,NA,NA,NA,NA,NA,NA,NA,NA,NA,NA,NA,NA,NA,NA,NA
1e0cb,shallow,flow.Sequence,5_0_0_0_3_1,NA,NA,skipped,NA,567426.5,NA,NA,567425,567426.5999999,2024-05-12T10:39:02Z,567441.9,NULL,Genehmigung,idhini,d,NA,NA,NA,NA,sdf,NA,0,NA,NA,NA,NA,NA,NA,NA,NA,NA,NA,NA,NA,NA,NA,NA,NA,NA,NA,NA
1e0cb,task,flow.Sequence,5_0_0_0_3,NA,NA,completion,11909.6,555499.5999999,555498.8,555515.4,567425,567426.79999995,2024-05-12T10:39:02Z,567441.9,NULL,Genehmigung,idhini,d,NA,NA,NA,NA,sdf,NA,0,NA,NA,NA,NA,NA,NA,NA,NA,NA,NA,NA,NA,NA,NA,NA,NA,NA,NA,NA
1e0cb,Deep Question,html.Page,5_0_0_0_4_0_0,NA,NA,form submission,6256.3999999523,567427,567425,567441.9,573698.29999995,573698.5,2024-05-12T10:39:09Z,573704.3,NULL,Schlange,foleni,d,NA,NA,NA,idhini,NA,NA,0,NA,NA,NA,NA,NA,NA,NA,NA,NA,NA,NA,NA,NA,NA,NA,NA,NA,NA,NA
1e0cb,"""Richtig""-Screen",canvas.Screen,5_0_0_0_4_0_1,NA,NA,skipped,NA,573701.5999999,NA,NA,573698.29999995,573701.79999995,2024-05-12T10:39:09Z,573704.3,NULL,Schlange,foleni,d,NA,NA,NA,NA,sdf,NA,0,NA,NA,NA,NA,NA,NA,NA,NA,NA,NA,NA,NA,NA,NA,NA,NA,NA,NA,NA
1e0cb,"""Falsch""-Screen",canvas.Screen,5_0_0_0_4_0_2,NA,NA,timeout,4997.5,573702.39999986,573688.326,573704.3,578684.9,578685.89999986,2024-05-12T10:39:14Z,578701.8,NULL,Schlange,foleni,d,NA,NA,NA,NA,sdf,0,0,NA,NA,NA,NA,NA,NA,NA,NA,NA,NA,NA,NA,NA,NA,NA,NA,NA,NA,NA
1e0cb,deep,flow.Sequence,5_0_0_0_4_0,NA,NA,completion,11243,567427,567425,567441.9,578684.9,578686.29999995,2024-05-12T10:39:14Z,578701.8,NULL,Schlange,foleni,d,NA,NA,NA,NA,sdf,NA,0,NA,NA,NA,NA,NA,NA,NA,NA,NA,NA,NA,NA,NA,NA,NA,NA,NA,NA,NA
1e0cb,shallow,flow.Sequence,5_0_0_0_4_1,NA,NA,skipped,NA,578686.5,NA,NA,578684.9,578686.5999999,2024-05-12T10:39:14Z,578701.8,NULL,Schlange,foleni,d,NA,NA,NA,NA,sdf,NA,0,NA,NA,NA,NA,NA,NA,NA,NA,NA,NA,NA,NA,NA,NA,NA,NA,NA,NA,NA
1e0cb,task,flow.Sequence,5_0_0_0_4,NA,NA,completion,11243,567426.89999986,567425,567441.9,578684.9,578686.89999986,2024-05-12T10:39:14Z,578701.8,NULL,Schlange,foleni,d,NA,NA,NA,NA,sdf,NA,0,NA,NA,NA,NA,NA,NA,NA,NA,NA,NA,NA,NA,NA,NA,NA,NA,NA,NA,NA
1e0cb,deep,flow.Sequence,5_0_0_0_5_0,NA,NA,skipped,NA,578687,NA,NA,578684.9,578687.0999999,2024-05-12T10:39:14Z,578701.8,NULL,Vermutung,udhanifu,s,haramia,tikisho,itifaki,NA,sdf,NA,0,NA,NA,NA,NA,NA,NA,NA,NA,NA,NA,NA,NA,NA,NA,NA,NA,NA,NA,NA
1e0cb,Shallow Question,html.Page,5_0_0_0_5_1_0,NA,NA,form submission,6129.7999999046,578687.20000005,578684.9,578701.8,584831.5999999,584831.79999995,2024-05-12T10:39:20Z,584847.6,NULL,Vermutung,udhanifu,s,haramia,tikisho,itifaki,tikisho,NA,NA,0,NA,NA,NA,NA,NA,NA,NA,NA,NA,NA,NA,NA,NA,NA,NA,NA,NA,NA,NA
1e0cb,"""Richtig""-Screen",canvas.Screen,5_0_0_0_5_1_1,NA,NA,skipped,NA,584834.89999986,NA,NA,584831.5999999,584835.0999999,2024-05-12T10:39:20Z,584847.6,NULL,Vermutung,udhanifu,s,haramia,tikisho,itifaki,NA,sdf,NA,0,NA,NA,NA,NA,NA,NA,NA,NA,NA,NA,NA,NA,NA,NA,NA,NA,NA,NA,NA
1e0cb,"""Falsch""-Screen",canvas.Screen,5_0_0_0_5_1_2,NA,NA,timeout,4997.3,584836,584831.46,584847.6,589828.2,589829.0999999,2024-05-12T10:39:25Z,589844.9,NULL,Vermutung,udhanifu,s,haramia,tikisho,itifaki,NA,sdf,0,0,NA,NA,NA,NA,NA,NA,NA,NA,NA,NA,NA,NA,NA,NA,NA,NA,NA,NA,NA
1e0cb,shallow,flow.Sequence,5_0_0_0_5_1,NA,NA,completion,11126.4,578687.20000005,578684.9,578701.8,589828.2,589829.5999999,2024-05-12T10:39:25Z,589844.9,NULL,Vermutung,udhanifu,s,haramia,tikisho,itifaki,NA,sdf,NA,0,NA,NA,NA,NA,NA,NA,NA,NA,NA,NA,NA,NA,NA,NA,NA,NA,NA,NA,NA
1e0cb,task,flow.Sequence,5_0_0_0_5,NA,NA,completion,11126.4,578686.89999986,578684.9,578701.8,589828.2,589829.79999995,2024-05-12T10:39:25Z,589844.9,NULL,Vermutung,udhanifu,s,haramia,tikisho,itifaki,NA,sdf,NA,0,NA,NA,NA,NA,NA,NA,NA,NA,NA,NA,NA,NA,NA,NA,NA,NA,NA,NA,NA
1e0cb,Deep Question,html.Page,5_0_0_0_6_0_0,NA,NA,form submission,6273.3999999523,589830,589828.2,589844.9,596118.29999995,596118.5,2024-05-12T10:39:31Z,596124.1,NULL,Toleranz,kuvumiliana,d,NA,NA,NA,idhanifu,NA,NA,0,NA,NA,NA,NA,NA,NA,NA,NA,NA,NA,NA,NA,NA,NA,NA,NA,NA,NA,NA
1e0cb,"""Richtig""-Screen",canvas.Screen,5_0_0_0_6_0_1,NA,NA,skipped,NA,596121.5999999,NA,NA,596118.29999995,596121.70000005,2024-05-12T10:39:31Z,596124.1,NULL,Toleranz,kuvumiliana,d,NA,NA,NA,NA,sdf,NA,0,NA,NA,NA,NA,NA,NA,NA,NA,NA,NA,NA,NA,NA,NA,NA,NA,NA,NA,NA
1e0cb,"""Falsch""-Screen",canvas.Screen,5_0_0_0_6_0_2,NA,NA,timeout,4997.4,596122.29999995,596108.09,596124.1,601104.4,601107.29999995,2024-05-12T10:39:36Z,601121.5,NULL,Toleranz,kuvumiliana,d,NA,NA,NA,NA,sdf,0,0,NA,NA,NA,NA,NA,NA,NA,NA,NA,NA,NA,NA,NA,NA,NA,NA,NA,NA,NA
1e0cb,deep,flow.Sequence,5_0_0_0_6_0,NA,NA,completion,11259.5,589830,589828.2,589844.9,601104.4,601107.70000005,2024-05-12T10:39:36Z,601121.5,NULL,Toleranz,kuvumiliana,d,NA,NA,NA,NA,sdf,NA,0,NA,NA,NA,NA,NA,NA,NA,NA,NA,NA,NA,NA,NA,NA,NA,NA,NA,NA,NA
1e0cb,shallow,flow.Sequence,5_0_0_0_6_1,NA,NA,skipped,NA,601107.79999995,NA,NA,601104.4,601108,2024-05-12T10:39:36Z,601121.5,NULL,Toleranz,kuvumiliana,d,NA,NA,NA,NA,sdf,NA,0,NA,NA,NA,NA,NA,NA,NA,NA,NA,NA,NA,NA,NA,NA,NA,NA,NA,NA,NA
1e0cb,task,flow.Sequence,5_0_0_0_6,NA,NA,completion,11259.5,589829.89999986,589828.2,589844.9,601104.4,601108.0999999,2024-05-12T10:39:36Z,601121.5,NULL,Toleranz,kuvumiliana,d,NA,NA,NA,NA,sdf,NA,0,NA,NA,NA,NA,NA,NA,NA,NA,NA,NA,NA,NA,NA,NA,NA,NA,NA,NA,NA
1e0cb,deep,flow.Sequence,5_0_0_0_7_0,NA,NA,skipped,NA,601108.20000005,NA,NA,601104.4,601108.29999995,2024-05-12T10:39:36Z,601121.5,NULL,Inhalt,yaliyomo,s,kishawishi,hifadhi,kutembea,NA,sdf,NA,0,NA,NA,NA,NA,NA,NA,NA,NA,NA,NA,NA,NA,NA,NA,NA,NA,NA,NA,NA
1e0cb,Shallow Question,html.Page,5_0_0_0_7_1_0,NA,NA,form submission,5730.3999998569,601108.5,601104.4,601121.5,606851.89999986,606852.0999999,2024-05-12T10:39:42Z,606867.8,NULL,Inhalt,yaliyomo,s,kishawishi,hifadhi,kutembea,kishawishi,NA,NA,0,NA,NA,NA,NA,NA,NA,NA,NA,NA,NA,NA,NA,NA,NA,NA,NA,NA,NA,NA
1e0cb,"""Richtig""-Screen",canvas.Screen,5_0_0_0_7_1_1,NA,NA,skipped,NA,606855.20000005,NA,NA,606851.89999986,606855.29999995,2024-05-12T10:39:42Z,606867.8,NULL,Inhalt,yaliyomo,s,kishawishi,hifadhi,kutembea,NA,sdf,NA,0,NA,NA,NA,NA,NA,NA,NA,NA,NA,NA,NA,NA,NA,NA,NA,NA,NA,NA,NA
1e0cb,"""Falsch""-Screen",canvas.Screen,5_0_0_0_7_1_2,NA,NA,timeout,4997.2,606856,606851.66,606867.8,611848.3,611849.5,2024-05-12T10:39:47Z,611865,NULL,Inhalt,yaliyomo,s,kishawishi,hifadhi,kutembea,NA,sdf,0,0,NA,NA,NA,NA,NA,NA,NA,NA,NA,NA,NA,NA,NA,NA,NA,NA,NA,NA,NA
1e0cb,shallow,flow.Sequence,5_0_0_0_7_1,NA,NA,completion,10726.8,601108.39999986,601104.4,601121.5,611848.3,611850,2024-05-12T10:39:47Z,611865,NULL,Inhalt,yaliyomo,s,kishawishi,hifadhi,kutembea,NA,sdf,NA,0,NA,NA,NA,NA,NA,NA,NA,NA,NA,NA,NA,NA,NA,NA,NA,NA,NA,NA,NA
1e0cb,task,flow.Sequence,5_0_0_0_7,NA,NA,completion,10726.8,601108.20000005,601104.4,601121.5,611848.3,611850.20000005,2024-05-12T10:39:47Z,611865,NULL,Inhalt,yaliyomo,s,kishawishi,hifadhi,kutembea,NA,sdf,NA,0,NA,NA,NA,NA,NA,NA,NA,NA,NA,NA,NA,NA,NA,NA,NA,NA,NA,NA,NA
1e0cb,block,flow.Loop,5_0_0_0,NA,NA,completion,95175.2,516657.20000005,516657.196,516673.1,611848.3,611850.5,2024-05-12T10:39:47Z,611865,NULL,NA,NA,NA,NA,NA,NA,NA,sdf,NA,0,NA,NA,NA,NA,NA,NA,NA,NA,NA,NA,NA,NA,NA,NA,NA,NA,NA,NA,NA
1e0cb,weiter,canvas.Screen,5_0_0_1,sdf,keypress(Space),response,1197.7999999523,611850.5999999,611848.3,611865,613062.79999995,613068.5999999,2024-05-12T10:39:48Z,613098.284,NULL,NA,NA,NA,NA,NA,NA,NA,sdf,NA,0,NA,NA,NA,NA,NA,NA,NA,NA,NA,NA,NA,NA,NA,NA,NA,NA,NA,NA,NA
1e0cb,check continue,flow.Sequence,5_0_0,NA,NA,completion,96389.699999952,516657.20000005,516657.196,516673.1,613062.79999995,613069.29999995,2024-05-12T10:39:48Z,613098.284,NULL,NA,NA,NA,NA,NA,NA,NA,sdf,NA,0,NA,NA,NA,NA,NA,NA,NA,NA,NA,NA,NA,NA,NA,NA,NA,NA,NA,NA,NA
1e0cb,deep,flow.Sequence,5_0_1_0_0_0,NA,NA,skipped,NA,613099.89999986,NA,NA,613062.79999995,613099.89999986,2024-05-12T10:39:48Z,613098.284,NULL,Integrität,uadilifu,s,muungano,mtiririko,upunguaji,NA,sdfdsf,NA,1,NA,NA,NA,NA,NA,NA,NA,NA,NA,NA,NA,NA,NA,NA,NA,NA,NA,NA,NA
1e0cb,Shallow Question,html.Page,5_0_1_0_0_1_0,NA,NA,form submission,4817.615999857,613100.20000005,613098.284,613098.284,617915.89999986,617916.0999999,2024-05-12T10:39:53Z,617927.4,NULL,Integrität,uadilifu,s,muungano,mtiririko,upunguaji,uadilifu,NA,NA,1,NA,NA,NA,NA,NA,NA,NA,NA,NA,NA,NA,NA,NA,NA,NA,NA,NA,NA,NA
1e0cb,"""Richtig""-Screen",canvas.Screen,5_0_1_0_0_1_1,NA,NA,timeout,4997.4,617919.0999999,617911.46,617927.4,622908.1,622909.5,2024-05-12T10:39:58Z,622924.8,NULL,Integrität,uadilifu,s,muungano,mtiririko,upunguaji,NA,sdfdsf,1,1,NA,NA,NA,NA,NA,NA,NA,NA,NA,NA,NA,NA,NA,NA,NA,NA,NA,NA,NA
1e0cb,"""Falsch""-Screen",canvas.Screen,5_0_1_0_0_1_2,NA,NA,skipped,NA,622914.5999999,NA,NA,622908.1,622914.70000005,2024-05-12T10:39:58Z,622924.8,NULL,Integrität,uadilifu,s,muungano,mtiririko,upunguaji,NA,sdfdsf,NA,1,NA,NA,NA,NA,NA,NA,NA,NA,NA,NA,NA,NA,NA,NA,NA,NA,NA,NA,NA
1e0cb,shallow,flow.Sequence,5_0_1_0_0_1,NA,NA,completion,9809.816,613100.20000005,613098.284,613098.284,622908.1,622914.79999995,2024-05-12T10:39:58Z,622924.8,NULL,Integrität,uadilifu,s,muungano,mtiririko,upunguaji,NA,sdfdsf,NA,1,NA,NA,NA,NA,NA,NA,NA,NA,NA,NA,NA,NA,NA,NA,NA,NA,NA,NA,NA
1e0cb,task,flow.Sequence,5_0_1_0_0,NA,NA,completion,9809.816,613099.89999986,613098.284,613098.284,622908.1,622914.79999995,2024-05-12T10:39:58Z,622924.8,NULL,Integrität,uadilifu,s,muungano,mtiririko,upunguaji,NA,sdfdsf,NA,1,NA,NA,NA,NA,NA,NA,NA,NA,NA,NA,NA,NA,NA,NA,NA,NA,NA,NA,NA
1e0cb,deep,flow.Sequence,5_0_1_0_1_0,NA,NA,skipped,NA,622914.79999995,NA,NA,622908.1,622914.89999986,2024-05-12T10:39:58Z,622924.8,NULL,Vermutung,udhanifu,s,haramia,tikisho,itifaki,NA,sdfdsf,NA,1,NA,NA,NA,NA,NA,NA,NA,NA,NA,NA,NA,NA,NA,NA,NA,NA,NA,NA,NA
1e0cb,Shallow Question,html.Page,5_0_1_0_1_1_0,NA,NA,form submission,8439.0999998569,622914.89999986,622908.1,622924.8,631363.89999986,631364.0999999,2024-05-12T10:40:06Z,631369.2,NULL,Vermutung,udhanifu,s,haramia,tikisho,itifaki,udhanifu,NA,NA,1,NA,NA,NA,NA,NA,NA,NA,NA,NA,NA,NA,NA,NA,NA,NA,NA,NA,NA,NA
1e0cb,"""Richtig""-Screen",canvas.Screen,5_0_1_0_1_1_1,NA,NA,timeout,4997.5,631367,631353.022,631369.2,636349.6,636350.5,2024-05-12T10:40:11Z,636366.7,NULL,Vermutung,udhanifu,s,haramia,tikisho,itifaki,NA,sdfdsf,1,1,NA,NA,NA,NA,NA,NA,NA,NA,NA,NA,NA,NA,NA,NA,NA,NA,NA,NA,NA
1e0cb,"""Falsch""-Screen",canvas.Screen,5_0_1_0_1_1_2,NA,NA,skipped,NA,636355.5999999,NA,NA,636349.6,636355.70000005,2024-05-12T10:40:11Z,636366.7,NULL,Vermutung,udhanifu,s,haramia,tikisho,itifaki,NA,sdfdsf,NA,1,NA,NA,NA,NA,NA,NA,NA,NA,NA,NA,NA,NA,NA,NA,NA,NA,NA,NA,NA
1e0cb,shallow,flow.Sequence,5_0_1_0_1_1,NA,NA,completion,13424.8,622914.89999986,622908.1,622924.8,636349.6,636355.79999995,2024-05-12T10:40:11Z,636366.7,NULL,Vermutung,udhanifu,s,haramia,tikisho,itifaki,NA,sdfdsf,NA,1,NA,NA,NA,NA,NA,NA,NA,NA,NA,NA,NA,NA,NA,NA,NA,NA,NA,NA,NA
1e0cb,task,flow.Sequence,5_0_1_0_1,NA,NA,completion,13424.8,622914.79999995,622908.1,622924.8,636349.6,636355.89999986,2024-05-12T10:40:11Z,636366.7,NULL,Vermutung,udhanifu,s,haramia,tikisho,itifaki,NA,sdfdsf,NA,1,NA,NA,NA,NA,NA,NA,NA,NA,NA,NA,NA,NA,NA,NA,NA,NA,NA,NA,NA
1e0cb,Deep Question,html.Page,5_0_1_0_2_0_0,NA,NA,form submission,8189.8999999047,636355.89999986,636349.6,636366.7,644556.5999999,644556.70000005,2024-05-12T10:40:20Z,644561.758,NULL,Genehmigung,idhini,d,NA,NA,NA,idihani,NA,NA,1,NA,NA,NA,NA,NA,NA,NA,NA,NA,NA,NA,NA,NA,NA,NA,NA,NA,NA,NA
1e0cb,"""Richtig""-Screen",canvas.Screen,5_0_1_0_2_0_1,NA,NA,skipped,NA,644559.70000005,NA,NA,644556.5999999,644559.79999995,2024-05-12T10:40:20Z,644561.758,NULL,Genehmigung,idhini,d,NA,NA,NA,NA,sdfdsf,NA,1,NA,NA,NA,NA,NA,NA,NA,NA,NA,NA,NA,NA,NA,NA,NA,NA,NA,NA,NA
1e0cb,"""Falsch""-Screen",canvas.Screen,5_0_1_0_2_0_2,NA,NA,timeout,4996.8419999999,644560.70000005,644561.758,644561.758,649541.7,649542.39999986,2024-05-12T10:40:25Z,649558.6,NULL,Genehmigung,idhini,d,NA,NA,NA,NA,sdfdsf,0,1,NA,NA,NA,NA,NA,NA,NA,NA,NA,NA,NA,NA,NA,NA,NA,NA,NA,NA,NA
1e0cb,deep,flow.Sequence,5_0_1_0_2_0,NA,NA,completion,13175,636355.89999986,636349.6,636366.7,649541.7,649542.70000005,2024-05-12T10:40:25Z,649558.6,NULL,Genehmigung,idhini,d,NA,NA,NA,NA,sdfdsf,NA,1,NA,NA,NA,NA,NA,NA,NA,NA,NA,NA,NA,NA,NA,NA,NA,NA,NA,NA,NA
1e0cb,shallow,flow.Sequence,5_0_1_0_2_1,NA,NA,skipped,NA,649542.79999995,NA,NA,649541.7,649542.89999986,2024-05-12T10:40:25Z,649558.6,NULL,Genehmigung,idhini,d,NA,NA,NA,NA,sdfdsf,NA,1,NA,NA,NA,NA,NA,NA,NA,NA,NA,NA,NA,NA,NA,NA,NA,NA,NA,NA,NA
1e0cb,task,flow.Sequence,5_0_1_0_2,NA,NA,completion,13175,636355.89999986,636349.6,636366.7,649541.7,649543,2024-05-12T10:40:25Z,649558.6,NULL,Genehmigung,idhini,d,NA,NA,NA,NA,sdfdsf,NA,1,NA,NA,NA,NA,NA,NA,NA,NA,NA,NA,NA,NA,NA,NA,NA,NA,NA,NA,NA
1e0cb,deep,flow.Sequence,5_0_1_0_3_0,NA,NA,skipped,NA,649543,NA,NA,649541.7,649543.0999999,2024-05-12T10:40:25Z,649558.6,NULL,Fleisch,mshakiki,s,kizunguzungu,mshikamano,angusho,NA,sdfdsf,NA,1,NA,NA,NA,NA,NA,NA,NA,NA,NA,NA,NA,NA,NA,NA,NA,NA,NA,NA,NA
1e0cb,Shallow Question,html.Page,5_0_1_0_3_1_0,NA,NA,form submission,5375.1999999523,649543.20000005,649541.7,649558.6,654933.79999995,654934,2024-05-12T10:40:30Z,654938.1,NULL,Fleisch,mshakiki,s,kizunguzungu,mshikamano,angusho,mshakiki,NA,NA,1,NA,NA,NA,NA,NA,NA,NA,NA,NA,NA,NA,NA,NA,NA,NA,NA,NA,NA,NA
1e0cb,"""Richtig""-Screen",canvas.Screen,5_0_1_0_3_1_1,NA,NA,timeout,4997.4,654936.20000005,654922.262,654938.1,659918.5,659919.5,2024-05-12T10:40:35Z,659935.5,NULL,Fleisch,mshakiki,s,kizunguzungu,mshikamano,angusho,NA,sdfdsf,1,1,NA,NA,NA,NA,NA,NA,NA,NA,NA,NA,NA,NA,NA,NA,NA,NA,NA,NA,NA
1e0cb,"""Falsch""-Screen",canvas.Screen,5_0_1_0_3_1_2,NA,NA,skipped,NA,659924.70000005,NA,NA,659918.5,659924.70000005,2024-05-12T10:40:35Z,659935.5,NULL,Fleisch,mshakiki,s,kizunguzungu,mshikamano,angusho,NA,sdfdsf,NA,1,NA,NA,NA,NA,NA,NA,NA,NA,NA,NA,NA,NA,NA,NA,NA,NA,NA,NA,NA
1e0cb,shallow,flow.Sequence,5_0_1_0_3_1,NA,NA,completion,10359.9,649543.20000005,649541.7,649558.6,659918.5,659924.79999995,2024-05-12T10:40:35Z,659935.5,NULL,Fleisch,mshakiki,s,kizunguzungu,mshikamano,angusho,NA,sdfdsf,NA,1,NA,NA,NA,NA,NA,NA,NA,NA,NA,NA,NA,NA,NA,NA,NA,NA,NA,NA,NA
1e0cb,task,flow.Sequence,5_0_1_0_3,NA,NA,completion,10359.9,649543,649541.7,649558.6,659918.5,659924.89999986,2024-05-12T10:40:35Z,659935.5,NULL,Fleisch,mshakiki,s,kizunguzungu,mshikamano,angusho,NA,sdfdsf,NA,1,NA,NA,NA,NA,NA,NA,NA,NA,NA,NA,NA,NA,NA,NA,NA,NA,NA,NA,NA
1e0cb,Deep Question,html.Page,5_0_1_0_4_0_0,NA,NA,form submission,9172.5,659925,659918.5,659935.5,669108,669108.0999999,2024-05-12T10:40:44Z,669112.8,NULL,Begegnung,kukutana,d,NA,NA,NA,idhani,NA,NA,1,NA,NA,NA,NA,NA,NA,NA,NA,NA,NA,NA,NA,NA,NA,NA,NA,NA,NA,NA
1e0cb,"""Richtig""-Screen",canvas.Screen,5_0_1_0_4_0_1,NA,NA,skipped,NA,669111.20000005,NA,NA,669108,669111.39999986,2024-05-12T10:40:44Z,669112.8,NULL,Begegnung,kukutana,d,NA,NA,NA,NA,sdfdsf,NA,1,NA,NA,NA,NA,NA,NA,NA,NA,NA,NA,NA,NA,NA,NA,NA,NA,NA,NA,NA
1e0cb,"""Falsch""-Screen",canvas.Screen,5_0_1_0_4_0_2,NA,NA,timeout,4997,669112.0999999,669096.752,669112.8,674093.1,674093.5,2024-05-12T10:40:49Z,674109.8,NULL,Begegnung,kukutana,d,NA,NA,NA,NA,sdfdsf,0,1,NA,NA,NA,NA,NA,NA,NA,NA,NA,NA,NA,NA,NA,NA,NA,NA,NA,NA,NA
1e0cb,deep,flow.Sequence,5_0_1_0_4_0,NA,NA,completion,14157.6,659925,659918.5,659935.5,674093.1,674093.5999999,2024-05-12T10:40:49Z,674109.8,NULL,Begegnung,kukutana,d,NA,NA,NA,NA,sdfdsf,NA,1,NA,NA,NA,NA,NA,NA,NA,NA,NA,NA,NA,NA,NA,NA,NA,NA,NA,NA,NA
1e0cb,shallow,flow.Sequence,5_0_1_0_4_1,NA,NA,skipped,NA,674093.70000005,NA,NA,674093.1,674093.70000005,2024-05-12T10:40:49Z,674109.8,NULL,Begegnung,kukutana,d,NA,NA,NA,NA,sdfdsf,NA,1,NA,NA,NA,NA,NA,NA,NA,NA,NA,NA,NA,NA,NA,NA,NA,NA,NA,NA,NA
1e0cb,task,flow.Sequence,5_0_1_0_4,NA,NA,completion,14157.6,659924.89999986,659918.5,659935.5,674093.1,674093.70000005,2024-05-12T10:40:49Z,674109.8,NULL,Begegnung,kukutana,d,NA,NA,NA,NA,sdfdsf,NA,1,NA,NA,NA,NA,NA,NA,NA,NA,NA,NA,NA,NA,NA,NA,NA,NA,NA,NA,NA
1e0cb,Deep Question,html.Page,5_0_1_0_5_0_0,NA,NA,form submission,5236.7,674093.70000005,674093.1,674109.8,679346.5,679346.79999995,2024-05-12T10:40:54Z,679356.8,NULL,Schlange,foleni,d,NA,NA,NA,kukutana,NA,NA,1,NA,NA,NA,NA,NA,NA,NA,NA,NA,NA,NA,NA,NA,NA,NA,NA,NA,NA,NA
1e0cb,"""Richtig""-Screen",canvas.Screen,5_0_1_0_5_0_1,NA,NA,skipped,NA,679349.79999995,NA,NA,679346.5,679349.89999986,2024-05-12T10:40:54Z,679356.8,NULL,Schlange,foleni,d,NA,NA,NA,NA,sdfdsf,NA,1,NA,NA,NA,NA,NA,NA,NA,NA,NA,NA,NA,NA,NA,NA,NA,NA,NA,NA,NA
1e0cb,"""Falsch""-Screen",canvas.Screen,5_0_1_0_5_0_2,NA,NA,timeout,4997.1,679350.79999995,679340.652,679356.8,684337.4,684338.29999995,2024-05-12T10:40:59Z,684353.9,NULL,Schlange,foleni,d,NA,NA,NA,NA,sdfdsf,0,1,NA,NA,NA,NA,NA,NA,NA,NA,NA,NA,NA,NA,NA,NA,NA,NA,NA,NA,NA
1e0cb,deep,flow.Sequence,5_0_1_0_5_0,NA,NA,completion,10227.6,674093.70000005,674093.1,674109.8,684337.4,684338.70000005,2024-05-12T10:40:59Z,684353.9,NULL,Schlange,foleni,d,NA,NA,NA,NA,sdfdsf,NA,1,NA,NA,NA,NA,NA,NA,NA,NA,NA,NA,NA,NA,NA,NA,NA,NA,NA,NA,NA
1e0cb,shallow,flow.Sequence,5_0_1_0_5_1,NA,NA,skipped,NA,684338.89999986,NA,NA,684337.4,684339,2024-05-12T10:40:59Z,684353.9,NULL,Schlange,foleni,d,NA,NA,NA,NA,sdfdsf,NA,1,NA,NA,NA,NA,NA,NA,NA,NA,NA,NA,NA,NA,NA,NA,NA,NA,NA,NA,NA
1e0cb,task,flow.Sequence,5_0_1_0_5,NA,NA,completion,10227.6,674093.70000005,674093.1,674109.8,684337.4,684339.20000005,2024-05-12T10:40:59Z,684353.9,NULL,Schlange,foleni,d,NA,NA,NA,NA,sdfdsf,NA,1,NA,NA,NA,NA,NA,NA,NA,NA,NA,NA,NA,NA,NA,NA,NA,NA,NA,NA,NA
1e0cb,deep,flow.Sequence,5_0_1_0_6_0,NA,NA,skipped,NA,684339.29999995,NA,NA,684337.4,684339.39999986,2024-05-12T10:40:59Z,684353.9,NULL,Inhalt,yaliyomo,s,kishawishi,hifadhi,kutembea,NA,sdfdsf,NA,1,NA,NA,NA,NA,NA,NA,NA,NA,NA,NA,NA,NA,NA,NA,NA,NA,NA,NA,NA
1e0cb,Shallow Question,html.Page,5_0_1_0_6_1_0,NA,NA,form submission,7852.3999999523,684339.5999999,684337.4,684353.9,692206.29999995,692206.5,2024-05-12T10:41:07Z,692215.5,NULL,Inhalt,yaliyomo,s,kishawishi,hifadhi,kutembea,hifadhi,NA,NA,1,NA,NA,NA,NA,NA,NA,NA,NA,NA,NA,NA,NA,NA,NA,NA,NA,NA,NA,NA
1e0cb,"""Richtig""-Screen",canvas.Screen,5_0_1_0_6_1_1,NA,NA,skipped,NA,692209.79999995,NA,NA,692206.29999995,692210,2024-05-12T10:41:07Z,692215.5,NULL,Inhalt,yaliyomo,s,kishawishi,hifadhi,kutembea,NA,sdfdsf,NA,1,NA,NA,NA,NA,NA,NA,NA,NA,NA,NA,NA,NA,NA,NA,NA,NA,NA,NA,NA
1e0cb,"""Falsch""-Screen",canvas.Screen,5_0_1_0_6_1_2,NA,NA,timeout,4997.4,692210.5999999,692199.286,692215.5,697196.3,697196.70000005,2024-05-12T10:41:12Z,697212.9,NULL,Inhalt,yaliyomo,s,kishawishi,hifadhi,kutembea,NA,sdfdsf,0,1,NA,NA,NA,NA,NA,NA,NA,NA,NA,NA,NA,NA,NA,NA,NA,NA,NA,NA,NA
1e0cb,shallow,flow.Sequence,5_0_1_0_6_1,NA,NA,completion,12842.4,684339.5,684337.4,684353.9,697196.3,697196.79999995,2024-05-12T10:41:12Z,697212.9,NULL,Inhalt,yaliyomo,s,kishawishi,hifadhi,kutembea,NA,sdfdsf,NA,1,NA,NA,NA,NA,NA,NA,NA,NA,NA,NA,NA,NA,NA,NA,NA,NA,NA,NA,NA
1e0cb,task,flow.Sequence,5_0_1_0_6,NA,NA,completion,12842.4,684339.29999995,684337.4,684353.9,697196.3,697196.79999995,2024-05-12T10:41:12Z,697212.9,NULL,Inhalt,yaliyomo,s,kishawishi,hifadhi,kutembea,NA,sdfdsf,NA,1,NA,NA,NA,NA,NA,NA,NA,NA,NA,NA,NA,NA,NA,NA,NA,NA,NA,NA,NA
1e0cb,Deep Question,html.Page,5_0_1_0_7_0_0,NA,NA,form submission,7247.4999998569,697196.89999986,697196.3,697212.9,704460.39999986,704460.5999999,2024-05-12T10:41:19Z,704474.6,NULL,Toleranz,kuvumiliana,d,NA,NA,NA,ghbf,NA,NA,1,NA,NA,NA,NA,NA,NA,NA,NA,NA,NA,NA,NA,NA,NA,NA,NA,NA,NA,NA
1e0cb,"""Richtig""-Screen",canvas.Screen,5_0_1_0_7_0_1,NA,NA,skipped,NA,704463.89999986,NA,NA,704460.39999986,704464,2024-05-12T10:41:19Z,704474.6,NULL,Toleranz,kuvumiliana,d,NA,NA,NA,NA,sdfdsf,NA,1,NA,NA,NA,NA,NA,NA,NA,NA,NA,NA,NA,NA,NA,NA,NA,NA,NA,NA,NA
1e0cb,"""Falsch""-Screen",canvas.Screen,5_0_1_0_7_0_2,NA,NA,timeout,4997.3,704464.79999995,704458.456,704474.6,709454.9,709455.79999995,2024-05-12T10:41:24Z,709471.9,NULL,Toleranz,kuvumiliana,d,NA,NA,NA,NA,sdfdsf,0,1,NA,NA,NA,NA,NA,NA,NA,NA,NA,NA,NA,NA,NA,NA,NA,NA,NA,NA,NA
1e0cb,deep,flow.Sequence,5_0_1_0_7_0,NA,NA,completion,12242,697196.89999986,697196.3,697212.9,709454.9,709456.20000005,2024-05-12T10:41:24Z,709471.9,NULL,Toleranz,kuvumiliana,d,NA,NA,NA,NA,sdfdsf,NA,1,NA,NA,NA,NA,NA,NA,NA,NA,NA,NA,NA,NA,NA,NA,NA,NA,NA,NA,NA
1e0cb,shallow,flow.Sequence,5_0_1_0_7_1,NA,NA,skipped,NA,709456.39999986,NA,NA,709454.9,709456.5,2024-05-12T10:41:24Z,709471.9,NULL,Toleranz,kuvumiliana,d,NA,NA,NA,NA,sdfdsf,NA,1,NA,NA,NA,NA,NA,NA,NA,NA,NA,NA,NA,NA,NA,NA,NA,NA,NA,NA,NA
1e0cb,task,flow.Sequence,5_0_1_0_7,NA,NA,completion,12242,697196.79999995,697196.3,697212.9,709454.9,709456.79999995,2024-05-12T10:41:24Z,709471.9,NULL,Toleranz,kuvumiliana,d,NA,NA,NA,NA,sdfdsf,NA,1,NA,NA,NA,NA,NA,NA,NA,NA,NA,NA,NA,NA,NA,NA,NA,NA,NA,NA,NA
1e0cb,block,flow.Loop,5_0_1_0,NA,NA,completion,96356.616,613099.89999986,613098.284,613098.284,709454.9,709457.0999999,2024-05-12T10:41:24Z,709471.9,NULL,NA,NA,NA,NA,NA,NA,NA,sdfdsf,NA,1,NA,NA,NA,NA,NA,NA,NA,NA,NA,NA,NA,NA,NA,NA,NA,NA,NA,NA,NA
1e0cb,weiter,canvas.Screen,5_0_1_1,sdf,keypress(Space),response,1170.6,709457.20000005,709454.9,709471.9,710642.5,710644.20000005,2024-05-12T10:41:26Z,710655.186,NULL,NA,NA,NA,NA,NA,NA,NA,sdfdsf,NA,1,NA,NA,NA,NA,NA,NA,NA,NA,NA,NA,NA,NA,NA,NA,NA,NA,NA,NA,NA
1e0cb,check continue,flow.Sequence,5_0_1,NA,NA,completion,97544.216,613099.79999995,613098.284,613098.284,710642.5,710644.39999986,2024-05-12T10:41:26Z,710655.186,NULL,NA,NA,NA,NA,NA,NA,NA,sdfdsf,NA,1,NA,NA,NA,NA,NA,NA,NA,NA,NA,NA,NA,NA,NA,NA,NA,NA,NA,NA,NA
1e0cb,Deep Question,html.Page,5_0_2_0_0_0_0,NA,NA,form submission,12141.113999952,710662.20000005,710655.186,710655.186,722796.29999995,722796.5999999,2024-05-12T10:41:38Z,722814,NULL,Begegnung,kukutana,d,NA,NA,NA,idhana,NA,NA,2,NA,NA,NA,NA,NA,NA,NA,NA,NA,NA,NA,NA,NA,NA,NA,NA,NA,NA,NA
1e0cb,"""Richtig""-Screen",canvas.Screen,5_0_2_0_0_0_1,NA,NA,skipped,NA,722799.5999999,NA,NA,722796.29999995,722799.70000005,2024-05-12T10:41:38Z,722814,NULL,Begegnung,kukutana,d,NA,NA,NA,NA,sdf,NA,2,NA,NA,NA,NA,NA,NA,NA,NA,NA,NA,NA,NA,NA,NA,NA,NA,NA,NA,NA
1e0cb,"""Falsch""-Screen",canvas.Screen,5_0_2_0_0_0_2,NA,NA,timeout,4996.8,722800.5999999,722797.528,722814,727794.1,727795.0999999,2024-05-12T10:41:43Z,727810.8,NULL,Begegnung,kukutana,d,NA,NA,NA,NA,sdf,0,2,NA,NA,NA,NA,NA,NA,NA,NA,NA,NA,NA,NA,NA,NA,NA,NA,NA,NA,NA
1e0cb,deep,flow.Sequence,5_0_2_0_0_0,NA,NA,completion,17138.914,710662.20000005,710655.186,710655.186,727794.1,727795.5,2024-05-12T10:41:43Z,727810.8,NULL,Begegnung,kukutana,d,NA,NA,NA,NA,sdf,NA,2,NA,NA,NA,NA,NA,NA,NA,NA,NA,NA,NA,NA,NA,NA,NA,NA,NA,NA,NA
1e0cb,shallow,flow.Sequence,5_0_2_0_0_1,NA,NA,skipped,NA,727795.5999999,NA,NA,727794.1,727795.79999995,2024-05-12T10:41:43Z,727810.8,NULL,Begegnung,kukutana,d,NA,NA,NA,NA,sdf,NA,2,NA,NA,NA,NA,NA,NA,NA,NA,NA,NA,NA,NA,NA,NA,NA,NA,NA,NA,NA
1e0cb,task,flow.Sequence,5_0_2_0_0,NA,NA,completion,17138.914,710662.20000005,710655.186,710655.186,727794.1,727796,2024-05-12T10:41:43Z,727810.8,NULL,Begegnung,kukutana,d,NA,NA,NA,NA,sdf,NA,2,NA,NA,NA,NA,NA,NA,NA,NA,NA,NA,NA,NA,NA,NA,NA,NA,NA,NA,NA
1e0cb,Deep Question,html.Page,5_0_2_0_1_0_0,NA,NA,form submission,5277.5999998569,727796.20000005,727794.1,727810.8,733088.39999986,733088.70000005,2024-05-12T10:41:48Z,733091.058,NULL,Schlange,foleni,d,NA,NA,NA,foleni,NA,NA,2,NA,NA,NA,NA,NA,NA,NA,NA,NA,NA,NA,NA,NA,NA,NA,NA,NA,NA,NA
1e0cb,"""Richtig""-Screen",canvas.Screen,5_0_2_0_1_0_1,NA,NA,timeout,4996.8420000001,733091.70000005,733091.058,733091.058,738071.1,738072,2024-05-12T10:41:53Z,738087.9,NULL,Schlange,foleni,d,NA,NA,NA,NA,sdf,1,2,NA,NA,NA,NA,NA,NA,NA,NA,NA,NA,NA,NA,NA,NA,NA,NA,NA,NA,NA
1e0cb,"""Falsch""-Screen",canvas.Screen,5_0_2_0_1_0_2,NA,NA,skipped,NA,738077.29999995,NA,NA,738071.1,738077.39999986,2024-05-12T10:41:53Z,738087.9,NULL,Schlange,foleni,d,NA,NA,NA,NA,sdf,NA,2,NA,NA,NA,NA,NA,NA,NA,NA,NA,NA,NA,NA,NA,NA,NA,NA,NA,NA,NA
1e0cb,deep,flow.Sequence,5_0_2_0_1_0,NA,NA,completion,10260.3,727796.20000005,727794.1,727810.8,738071.1,738077.5,2024-05-12T10:41:53Z,738087.9,NULL,Schlange,foleni,d,NA,NA,NA,NA,sdf,NA,2,NA,NA,NA,NA,NA,NA,NA,NA,NA,NA,NA,NA,NA,NA,NA,NA,NA,NA,NA
1e0cb,shallow,flow.Sequence,5_0_2_0_1_1,NA,NA,skipped,NA,738077.5,NA,NA,738071.1,738077.5999999,2024-05-12T10:41:53Z,738087.9,NULL,Schlange,foleni,d,NA,NA,NA,NA,sdf,NA,2,NA,NA,NA,NA,NA,NA,NA,NA,NA,NA,NA,NA,NA,NA,NA,NA,NA,NA,NA
1e0cb,task,flow.Sequence,5_0_2_0_1,NA,NA,completion,10260.3,727796.20000005,727794.1,727810.8,738071.1,738077.5999999,2024-05-12T10:41:53Z,738087.9,NULL,Schlange,foleni,d,NA,NA,NA,NA,sdf,NA,2,NA,NA,NA,NA,NA,NA,NA,NA,NA,NA,NA,NA,NA,NA,NA,NA,NA,NA,NA
1e0cb,deep,flow.Sequence,5_0_2_0_2_0,NA,NA,skipped,NA,738077.5999999,NA,NA,738071.1,738077.5999999,2024-05-12T10:41:53Z,738087.9,NULL,Inhalt,yaliyomo,s,kishawishi,hifadhi,kutembea,NA,sdf,NA,2,NA,NA,NA,NA,NA,NA,NA,NA,NA,NA,NA,NA,NA,NA,NA,NA,NA,NA,NA
1e0cb,Shallow Question,html.Page,5_0_2_0_2_1_0,NA,NA,form submission,4844.6,738077.5999999,738071.1,738087.9,742932.5,742932.70000005,2024-05-12T10:41:58Z,742934.626,NULL,Inhalt,yaliyomo,s,kishawishi,hifadhi,kutembea,yaliyomo,NA,NA,2,NA,NA,NA,NA,NA,NA,NA,NA,NA,NA,NA,NA,NA,NA,NA,NA,NA,NA,NA
1e0cb,"""Richtig""-Screen",canvas.Screen,5_0_2_0_2_1_1,NA,NA,timeout,4997.274,742934.0999999,742934.626,742934.626,747915.1,747916,2024-05-12T10:42:03Z,747931.9,NULL,Inhalt,yaliyomo,s,kishawishi,hifadhi,kutembea,NA,sdf,1,2,NA,NA,NA,NA,NA,NA,NA,NA,NA,NA,NA,NA,NA,NA,NA,NA,NA,NA,NA
1e0cb,"""Falsch""-Screen",canvas.Screen,5_0_2_0_2_1_2,NA,NA,skipped,NA,747921.39999986,NA,NA,747915.1,747921.39999986,2024-05-12T10:42:03Z,747931.9,NULL,Inhalt,yaliyomo,s,kishawishi,hifadhi,kutembea,NA,sdf,NA,2,NA,NA,NA,NA,NA,NA,NA,NA,NA,NA,NA,NA,NA,NA,NA,NA,NA,NA,NA
1e0cb,shallow,flow.Sequence,5_0_2_0_2_1,NA,NA,completion,9827.2,738077.5999999,738071.1,738087.9,747915.1,747921.5,2024-05-12T10:42:03Z,747931.9,NULL,Inhalt,yaliyomo,s,kishawishi,hifadhi,kutembea,NA,sdf,NA,2,NA,NA,NA,NA,NA,NA,NA,NA,NA,NA,NA,NA,NA,NA,NA,NA,NA,NA,NA
1e0cb,task,flow.Sequence,5_0_2_0_2,NA,NA,completion,9827.2,738077.5999999,738071.1,738087.9,747915.1,747921.5999999,2024-05-12T10:42:03Z,747931.9,NULL,Inhalt,yaliyomo,s,kishawishi,hifadhi,kutembea,NA,sdf,NA,2,NA,NA,NA,NA,NA,NA,NA,NA,NA,NA,NA,NA,NA,NA,NA,NA,NA,NA,NA
1e0cb,deep,flow.Sequence,5_0_2_0_3_0,NA,NA,skipped,NA,747921.5999999,NA,NA,747915.1,747921.5999999,2024-05-12T10:42:03Z,747931.9,NULL,Vermutung,udhanifu,s,haramia,tikisho,itifaki,NA,sdf,NA,2,NA,NA,NA,NA,NA,NA,NA,NA,NA,NA,NA,NA,NA,NA,NA,NA,NA,NA,NA
1e0cb,Shallow Question,html.Page,5_0_2_0_3_1_0,NA,NA,form submission,4632.9999998569,747921.70000005,747915.1,747931.9,752564.89999986,752565,2024-05-12T10:42:08Z,752578.6,NULL,Vermutung,udhanifu,s,haramia,tikisho,itifaki,udhanifu,NA,NA,2,NA,NA,NA,NA,NA,NA,NA,NA,NA,NA,NA,NA,NA,NA,NA,NA,NA,NA,NA
1e0cb,"""Richtig""-Screen",canvas.Screen,5_0_2_0_3_1_1,NA,NA,timeout,4997.4,752566.29999995,752562.4,752578.6,757559,757559.89999986,2024-05-12T10:42:13Z,757576,NULL,Vermutung,udhanifu,s,haramia,tikisho,itifaki,NA,sdf,1,2,NA,NA,NA,NA,NA,NA,NA,NA,NA,NA,NA,NA,NA,NA,NA,NA,NA,NA,NA
1e0cb,"""Falsch""-Screen",canvas.Screen,5_0_2_0_3_1_2,NA,NA,skipped,NA,757565.0999999,NA,NA,757559,757565.20000005,2024-05-12T10:42:13Z,757576,NULL,Vermutung,udhanifu,s,haramia,tikisho,itifaki,NA,sdf,NA,2,NA,NA,NA,NA,NA,NA,NA,NA,NA,NA,NA,NA,NA,NA,NA,NA,NA,NA,NA
1e0cb,shallow,flow.Sequence,5_0_2_0_3_1,NA,NA,completion,9627.1,747921.5999999,747915.1,747931.9,757559,757565.20000005,2024-05-12T10:42:13Z,757576,NULL,Vermutung,udhanifu,s,haramia,tikisho,itifaki,NA,sdf,NA,2,NA,NA,NA,NA,NA,NA,NA,NA,NA,NA,NA,NA,NA,NA,NA,NA,NA,NA,NA
1e0cb,task,flow.Sequence,5_0_2_0_3,NA,NA,completion,9627.1,747921.5999999,747915.1,747931.9,757559,757565.39999986,2024-05-12T10:42:13Z,757576,NULL,Vermutung,udhanifu,s,haramia,tikisho,itifaki,NA,sdf,NA,2,NA,NA,NA,NA,NA,NA,NA,NA,NA,NA,NA,NA,NA,NA,NA,NA,NA,NA,NA
1e0cb,Deep Question,html.Page,5_0_2_0_4_0_0,NA,NA,form submission,8282.0999999046,757565.39999986,757559,757576,765858.0999999,765858.29999995,2024-05-12T10:42:21Z,765870.5,NULL,Genehmigung,idhini,d,NA,NA,NA,idhana,NA,NA,2,NA,NA,NA,NA,NA,NA,NA,NA,NA,NA,NA,NA,NA,NA,NA,NA,NA,NA,NA
1e0cb,"""Richtig""-Screen",canvas.Screen,5_0_2_0_4_0_1,NA,NA,skipped,NA,765861.29999995,NA,NA,765858.0999999,765861.39999986,2024-05-12T10:42:21Z,765870.5,NULL,Genehmigung,idhini,d,NA,NA,NA,NA,sdf,NA,2,NA,NA,NA,NA,NA,NA,NA,NA,NA,NA,NA,NA,NA,NA,NA,NA,NA,NA,NA
1e0cb,"""Falsch""-Screen",canvas.Screen,5_0_2_0_4_0_2,NA,NA,timeout,4997.3,765862.0999999,765854.928,765870.5,770850.7,770851.79999995,2024-05-12T10:42:26Z,770867.8,NULL,Genehmigung,idhini,d,NA,NA,NA,NA,sdf,0,2,NA,NA,NA,NA,NA,NA,NA,NA,NA,NA,NA,NA,NA,NA,NA,NA,NA,NA,NA
1e0cb,deep,flow.Sequence,5_0_2_0_4_0,NA,NA,completion,13274.7,757565.39999986,757559,757576,770850.7,770852.0999999,2024-05-12T10:42:26Z,770867.8,NULL,Genehmigung,idhini,d,NA,NA,NA,NA,sdf,NA,2,NA,NA,NA,NA,NA,NA,NA,NA,NA,NA,NA,NA,NA,NA,NA,NA,NA,NA,NA
1e0cb,shallow,flow.Sequence,5_0_2_0_4_1,NA,NA,skipped,NA,770852.29999995,NA,NA,770850.7,770852.5,2024-05-12T10:42:26Z,770867.8,NULL,Genehmigung,idhini,d,NA,NA,NA,NA,sdf,NA,2,NA,NA,NA,NA,NA,NA,NA,NA,NA,NA,NA,NA,NA,NA,NA,NA,NA,NA,NA
1e0cb,task,flow.Sequence,5_0_2_0_4,NA,NA,completion,13274.7,757565.39999986,757559,757576,770850.7,770852.70000005,2024-05-12T10:42:26Z,770867.8,NULL,Genehmigung,idhini,d,NA,NA,NA,NA,sdf,NA,2,NA,NA,NA,NA,NA,NA,NA,NA,NA,NA,NA,NA,NA,NA,NA,NA,NA,NA,NA
1e0cb,deep,flow.Sequence,5_0_2_0_5_0,NA,NA,skipped,NA,770852.79999995,NA,NA,770850.7,770853,2024-05-12T10:42:26Z,770867.8,NULL,Integrität,uadilifu,s,muungano,mtiririko,upunguaji,NA,sdf,NA,2,NA,NA,NA,NA,NA,NA,NA,NA,NA,NA,NA,NA,NA,NA,NA,NA,NA,NA,NA
1e0cb,Shallow Question,html.Page,5_0_2_0_5_1_0,NA,NA,form submission,4586.0999998569,770853,770850.7,770867.8,775453.89999986,775454.0999999,2024-05-12T10:42:30Z,775464.8,NULL,Integrität,uadilifu,s,muungano,mtiririko,upunguaji,uadilifu,NA,NA,2,NA,NA,NA,NA,NA,NA,NA,NA,NA,NA,NA,NA,NA,NA,NA,NA,NA,NA,NA
1e0cb,"""Richtig""-Screen",canvas.Screen,5_0_2_0_5_1_1,NA,NA,timeout,4997.2,775457.39999986,775448.688,775464.8,780445.2,780446.0999999,2024-05-12T10:42:35Z,780462,NULL,Integrität,uadilifu,s,muungano,mtiririko,upunguaji,NA,sdf,1,2,NA,NA,NA,NA,NA,NA,NA,NA,NA,NA,NA,NA,NA,NA,NA,NA,NA,NA,NA
1e0cb,"""Falsch""-Screen",canvas.Screen,5_0_2_0_5_1_2,NA,NA,skipped,NA,780450.70000005,NA,NA,780445.2,780450.79999995,2024-05-12T10:42:35Z,780462,NULL,Integrität,uadilifu,s,muungano,mtiririko,upunguaji,NA,sdf,NA,2,NA,NA,NA,NA,NA,NA,NA,NA,NA,NA,NA,NA,NA,NA,NA,NA,NA,NA,NA
1e0cb,shallow,flow.Sequence,5_0_2_0_5_1,NA,NA,completion,9577.3999999999,770853,770850.7,770867.8,780445.2,780450.89999986,2024-05-12T10:42:35Z,780462,NULL,Integrität,uadilifu,s,muungano,mtiririko,upunguaji,NA,sdf,NA,2,NA,NA,NA,NA,NA,NA,NA,NA,NA,NA,NA,NA,NA,NA,NA,NA,NA,NA,NA
1e0cb,task,flow.Sequence,5_0_2_0_5,NA,NA,completion,9577.3999999999,770852.79999995,770850.7,770867.8,780445.2,780451,2024-05-12T10:42:35Z,780462,NULL,Integrität,uadilifu,s,muungano,mtiririko,upunguaji,NA,sdf,NA,2,NA,NA,NA,NA,NA,NA,NA,NA,NA,NA,NA,NA,NA,NA,NA,NA,NA,NA,NA
1e0cb,deep,flow.Sequence,5_0_2_0_6_0,NA,NA,skipped,NA,780451,NA,NA,780445.2,780451,2024-05-12T10:42:35Z,780462,NULL,Fleisch,mshakiki,s,kizunguzungu,mshikamano,angusho,NA,sdf,NA,2,NA,NA,NA,NA,NA,NA,NA,NA,NA,NA,NA,NA,NA,NA,NA,NA,NA,NA,NA
1e0cb,Shallow Question,html.Page,5_0_2_0_6_1_0,NA,NA,form submission,3542.3999998569,780451.0999999,780445.2,780462,784004.39999986,784004.70000005,2024-05-12T10:42:39Z,784026.1,NULL,Fleisch,mshakiki,s,kizunguzungu,mshikamano,angusho,mshakiki,NA,NA,2,NA,NA,NA,NA,NA,NA,NA,NA,NA,NA,NA,NA,NA,NA,NA,NA,NA,NA,NA
1e0cb,"""Richtig""-Screen",canvas.Screen,5_0_2_0_6_1_1,NA,NA,timeout,4997.3,784007.5,784009.5,784026.1,789006.3,789007.29999995,2024-05-12T10:42:44Z,789023.4,NULL,Fleisch,mshakiki,s,kizunguzungu,mshikamano,angusho,NA,sdf,1,2,NA,NA,NA,NA,NA,NA,NA,NA,NA,NA,NA,NA,NA,NA,NA,NA,NA,NA,NA
1e0cb,"""Falsch""-Screen",canvas.Screen,5_0_2_0_6_1_2,NA,NA,skipped,NA,789011.20000005,NA,NA,789006.3,789011.20000005,2024-05-12T10:42:44Z,789023.4,NULL,Fleisch,mshakiki,s,kizunguzungu,mshikamano,angusho,NA,sdf,NA,2,NA,NA,NA,NA,NA,NA,NA,NA,NA,NA,NA,NA,NA,NA,NA,NA,NA,NA,NA
1e0cb,shallow,flow.Sequence,5_0_2_0_6_1,NA,NA,completion,8544.3,780451.0999999,780445.2,780462,789006.3,789011.29999995,2024-05-12T10:42:44Z,789023.4,NULL,Fleisch,mshakiki,s,kizunguzungu,mshikamano,angusho,NA,sdf,NA,2,NA,NA,NA,NA,NA,NA,NA,NA,NA,NA,NA,NA,NA,NA,NA,NA,NA,NA,NA
1e0cb,task,flow.Sequence,5_0_2_0_6,NA,NA,completion,8544.3,780451,780445.2,780462,789006.3,789011.29999995,2024-05-12T10:42:44Z,789023.4,NULL,Fleisch,mshakiki,s,kizunguzungu,mshikamano,angusho,NA,sdf,NA,2,NA,NA,NA,NA,NA,NA,NA,NA,NA,NA,NA,NA,NA,NA,NA,NA,NA,NA,NA
1e0cb,Deep Question,html.Page,5_0_2_0_7_0_0,NA,NA,form submission,11276.6,789011.39999986,789006.3,789023.4,800300,800300.20000005,2024-05-12T10:42:55Z,800316.6,NULL,Toleranz,kuvumiliana,d,NA,NA,NA,katatana,NA,NA,2,NA,NA,NA,NA,NA,NA,NA,NA,NA,NA,NA,NA,NA,NA,NA,NA,NA,NA,NA
1e0cb,"""Richtig""-Screen",canvas.Screen,5_0_2_0_7_0_1,NA,NA,skipped,NA,800303.0999999,NA,NA,800300,800303.29999995,2024-05-12T10:42:55Z,800316.6,NULL,Toleranz,kuvumiliana,d,NA,NA,NA,NA,sdf,NA,2,NA,NA,NA,NA,NA,NA,NA,NA,NA,NA,NA,NA,NA,NA,NA,NA,NA,NA,NA
1e0cb,"""Falsch""-Screen",canvas.Screen,5_0_2_0_7_0_2,NA,NA,timeout,4996.4,800304,800299.96,800316.6,805297,805297.89999986,2024-05-12T10:43:00Z,805313,NULL,Toleranz,kuvumiliana,d,NA,NA,NA,NA,sdf,0,2,NA,NA,NA,NA,NA,NA,NA,NA,NA,NA,NA,NA,NA,NA,NA,NA,NA,NA,NA
1e0cb,deep,flow.Sequence,5_0_2_0_7_0,NA,NA,completion,16273.6,789011.39999986,789006.3,789023.4,805297,805298.20000005,2024-05-12T10:43:00Z,805313,NULL,Toleranz,kuvumiliana,d,NA,NA,NA,NA,sdf,NA,2,NA,NA,NA,NA,NA,NA,NA,NA,NA,NA,NA,NA,NA,NA,NA,NA,NA,NA,NA
1e0cb,shallow,flow.Sequence,5_0_2_0_7_1,NA,NA,skipped,NA,805298.39999986,NA,NA,805297,805298.5999999,2024-05-12T10:43:00Z,805313,NULL,Toleranz,kuvumiliana,d,NA,NA,NA,NA,sdf,NA,2,NA,NA,NA,NA,NA,NA,NA,NA,NA,NA,NA,NA,NA,NA,NA,NA,NA,NA,NA
