observation,sender,sender_type,sender_id,response,response_action,ended_on,duration,time_run,time_render,time_show,time_end,time_commit,timestamp,time_switch,german,swahili,enc,distractor1,distractor2,distractor3,response_2,x,correct,distractors,url_vp,url_sess,meta_labjs_version,meta_location,meta_user_agent,meta_platform,meta_language,meta_locale,meta_time_zone,meta_timezone_offset,meta_screen_width,meta_screen_height,meta_scroll_width,meta_scroll_height,meta_window_inner_width,meta_window_inner_height,meta_device_pixel_ratio,meta_labjs_build_flavor,meta_labjs_build_commit
4b25c,Introduction delayed retrieval,canvas.Screen,0,weiter,keypress(Space),response,2619.68,643,637.36,687.32,3307,3320,2024-05-14T07:15:25Z,3339.48,NA,NA,NA,NA,NA,NA,NA,NA,NA,NULL,196,2,20.2.4,https://neurocog.fernuni.ch/studies/vweber/aberisha/delayed/index.html?vp=196&sess=2,Mozilla/5.0 (Windows NT 10.0; Win64; x64; rv:125.0) Gecko/20100101 Firefox/125.0,Win32,de,de,Europe/Zurich,-120,1536,864,1536,691,1536,739,1.25,production,f5b4a49f956347addd546a832a3327688c2c0fef
4b25c,Deep Question,html.Page,1_0_0_0,NA,NA,form submission,15392.52,3320,3320.22,3339.48,18732,18734,2024-05-14T07:15:40Z,18739.2,Fenster,dirisha,d,walakini,tasawari,maarifa,gghh,NA,NA,NULL,NA,NA,NA,NA,NA,NA,NA,NA,NA,NA,NA,NA,NA,NA,NA,NA,NA,NA,NA
4b25c,Save data screen,canvas.Screen,1_0_0_1,NA,NA,timeout,499.56,18738,18727.42,18739.2,19222.24,19223,2024-05-14T07:15:41Z,19238.76,Fenster,dirisha,d,walakini,tasawari,maarifa,NA,NA,0,NULL,NA,NA,NA,NA,NA,NA,NA,NA,NA,NA,NA,NA,NA,NA,NA,NA,NA,NA,NA
4b25c,deep,flow.Sequence,1_0_0,NA,NA,completion,15882.76,3320,3320.22,3339.48,19222.24,19224,2024-05-14T07:15:41Z,19238.76,Fenster,dirisha,d,walakini,tasawari,maarifa,NA,NA,NA,NULL,NA,NA,NA,NA,NA,NA,NA,NA,NA,NA,NA,NA,NA,NA,NA,NA,NA,NA,NA
4b25c,task,flow.Sequence,1_0,NA,NA,completion,15882.76,3320,3320.22,3339.48,19222.24,19224,2024-05-14T07:15:41Z,19238.76,Fenster,dirisha,d,walakini,tasawari,maarifa,NA,NA,NA,NULL,NA,NA,NA,NA,NA,NA,NA,NA,NA,NA,NA,NA,NA,NA,NA,NA,NA,NA,NA
4b25c,Deep Question,html.Page,1_1_0_0,NA,NA,form submission,8847.24,19224,19222.24,19238.76,28086,28086,2024-05-14T07:15:50Z,28098,Schüler,mwanafunzi,s,mwekezaji,matumizi,uaminifu,ggg,NA,NA,NULL,NA,NA,NA,NA,NA,NA,NA,NA,NA,NA,NA,NA,NA,NA,NA,NA,NA,NA,NA
4b25c,Save data screen,canvas.Screen,1_1_0_1,NA,NA,timeout,499.76,28090,28080.3,28098,28581.12,28583,2024-05-14T07:15:50Z,28597.76,Schüler,mwanafunzi,s,mwekezaji,matumizi,uaminifu,NA,NA,0,NULL,NA,NA,NA,NA,NA,NA,NA,NA,NA,NA,NA,NA,NA,NA,NA,NA,NA,NA,NA
4b25c,deep,flow.Sequence,1_1_0,NA,NA,completion,9342.36,19224,19222.24,19238.76,28581.12,28584,2024-05-14T07:15:50Z,28597.76,Schüler,mwanafunzi,s,mwekezaji,matumizi,uaminifu,NA,NA,NA,NULL,NA,NA,NA,NA,NA,NA,NA,NA,NA,NA,NA,NA,NA,NA,NA,NA,NA,NA,NA
4b25c,task,flow.Sequence,1_1,NA,NA,completion,9342.36,19224,19222.24,19238.76,28581.12,28584,2024-05-14T07:15:50Z,28597.76,Schüler,mwanafunzi,s,mwekezaji,matumizi,uaminifu,NA,NA,NA,NULL,NA,NA,NA,NA,NA,NA,NA,NA,NA,NA,NA,NA,NA,NA,NA,NA,NA,NA,NA
4b25c,Deep Question,html.Page,1_2_0_0,NA,NA,form submission,8380.24,28585,28581.12,28597.76,36978,36979,2024-05-14T07:15:58Z,36974.22,Vergnügen,kichekesho,s,dubwana,mpanuko,mtesaji,ggg,NA,NA,NULL,NA,NA,NA,NA,NA,NA,NA,NA,NA,NA,NA,NA,NA,NA,NA,NA,NA,NA,NA
4b25c,Save data screen,canvas.Screen,1_2_0_1,NA,NA,timeout,499.58,36982,36973.02,36974.22,37457.14,37459,2024-05-14T07:15:59Z,37473.8,Vergnügen,kichekesho,s,dubwana,mpanuko,mtesaji,NA,NA,0,NULL,NA,NA,NA,NA,NA,NA,NA,NA,NA,NA,NA,NA,NA,NA,NA,NA,NA,NA,NA
4b25c,deep,flow.Sequence,1_2_0,NA,NA,completion,8859.38,28585,28581.12,28597.76,37457.14,37460,2024-05-14T07:15:59Z,37473.8,Vergnügen,kichekesho,s,dubwana,mpanuko,mtesaji,NA,NA,NA,NULL,NA,NA,NA,NA,NA,NA,NA,NA,NA,NA,NA,NA,NA,NA,NA,NA,NA,NA,NA
4b25c,task,flow.Sequence,1_2,NA,NA,completion,8859.38,28585,28581.12,28597.76,37457.14,37460,2024-05-14T07:15:59Z,37473.8,Vergnügen,kichekesho,s,dubwana,mpanuko,mtesaji,NA,NA,NA,NULL,NA,NA,NA,NA,NA,NA,NA,NA,NA,NA,NA,NA,NA,NA,NA,NA,NA,NA,NA
4b25c,Deep Question,html.Page,1_3_0_0,NA,NA,form submission,7777.2,37461,37457.14,37473.8,45251,45252,2024-05-14T07:16:07Z,45250.82,Spionage,upelelezi,d,maslahi,utokazo,magangao,hhh,NA,NA,NULL,NA,NA,NA,NA,NA,NA,NA,NA,NA,NA,NA,NA,NA,NA,NA,NA,NA,NA,NA
4b25c,Save data screen,canvas.Screen,1_3_0_1,NA,NA,timeout,499.58,45255,45246.82,45250.82,45733.76,45735,2024-05-14T07:16:07Z,45750.4,Spionage,upelelezi,d,maslahi,utokazo,magangao,NA,NA,0,NULL,NA,NA,NA,NA,NA,NA,NA,NA,NA,NA,NA,NA,NA,NA,NA,NA,NA,NA,NA
4b25c,deep,flow.Sequence,1_3_0,NA,NA,completion,8259.96,37461,37457.14,37473.8,45733.76,45736,2024-05-14T07:16:07Z,45750.4,Spionage,upelelezi,d,maslahi,utokazo,magangao,NA,NA,NA,NULL,NA,NA,NA,NA,NA,NA,NA,NA,NA,NA,NA,NA,NA,NA,NA,NA,NA,NA,NA
4b25c,task,flow.Sequence,1_3,NA,NA,completion,8259.96,37460,37457.14,37473.8,45733.76,45736,2024-05-14T07:16:07Z,45750.4,Spionage,upelelezi,d,maslahi,utokazo,magangao,NA,NA,NA,NULL,NA,NA,NA,NA,NA,NA,NA,NA,NA,NA,NA,NA,NA,NA,NA,NA,NA,NA,NA
4b25c,Deep Question,html.Page,1_4_0_0,NA,NA,form submission,5236.6,45736,45733.76,45750.4,50987,50987,2024-05-14T07:16:12Z,50995.68,Theorie,nadharia,d,ushungi,mkutano,uwakilishi,hhh,NA,NA,NULL,NA,NA,NA,NA,NA,NA,NA,NA,NA,NA,NA,NA,NA,NA,NA,NA,NA,NA,NA
4b25c,Save data screen,canvas.Screen,1_4_0_1,NA,NA,timeout,499.98,50990,50981.9,50995.68,51479,51481,2024-05-14T07:16:13Z,51495.66,Theorie,nadharia,d,ushungi,mkutano,uwakilishi,NA,NA,0,NULL,NA,NA,NA,NA,NA,NA,NA,NA,NA,NA,NA,NA,NA,NA,NA,NA,NA,NA,NA
4b25c,deep,flow.Sequence,1_4_0,NA,NA,completion,5728.6,45736,45733.76,45750.4,51479,51482,2024-05-14T07:16:13Z,51495.66,Theorie,nadharia,d,ushungi,mkutano,uwakilishi,NA,NA,NA,NULL,NA,NA,NA,NA,NA,NA,NA,NA,NA,NA,NA,NA,NA,NA,NA,NA,NA,NA,NA
4b25c,task,flow.Sequence,1_4,NA,NA,completion,5728.6,45736,45733.76,45750.4,51479,51482,2024-05-14T07:16:13Z,51495.66,Theorie,nadharia,d,ushungi,mkutano,uwakilishi,NA,NA,NA,NULL,NA,NA,NA,NA,NA,NA,NA,NA,NA,NA,NA,NA,NA,NA,NA,NA,NA,NA,NA
4b25c,Deep Question,html.Page,1_5_0_0,NA,NA,form submission,6030.34,51483,51479,51495.66,57526,57527,2024-05-14T07:16:19Z,57524.02,Wohlstand,mafanikio,d,chimbuko,kumbuko,mapwaji,hhh,NA,NA,NULL,NA,NA,NA,NA,NA,NA,NA,NA,NA,NA,NA,NA,NA,NA,NA,NA,NA,NA,NA
4b25c,Save data screen,canvas.Screen,1_5_0_1,NA,NA,timeout,499.56,57530,57521.1,57524.02,58006.92,58009,2024-05-14T07:16:19Z,58023.58,Wohlstand,mafanikio,d,chimbuko,kumbuko,mapwaji,NA,NA,0,NULL,NA,NA,NA,NA,NA,NA,NA,NA,NA,NA,NA,NA,NA,NA,NA,NA,NA,NA,NA
4b25c,deep,flow.Sequence,1_5_0,NA,NA,completion,6511.26,51482,51479,51495.66,58006.92,58010,2024-05-14T07:16:19Z,58023.58,Wohlstand,mafanikio,d,chimbuko,kumbuko,mapwaji,NA,NA,NA,NULL,NA,NA,NA,NA,NA,NA,NA,NA,NA,NA,NA,NA,NA,NA,NA,NA,NA,NA,NA
4b25c,task,flow.Sequence,1_5,NA,NA,completion,6511.26,51482,51479,51495.66,58006.92,58010,2024-05-14T07:16:19Z,58023.58,Wohlstand,mafanikio,d,chimbuko,kumbuko,mapwaji,NA,NA,NA,NULL,NA,NA,NA,NA,NA,NA,NA,NA,NA,NA,NA,NA,NA,NA,NA,NA,NA,NA,NA
4b25c,Deep Question,html.Page,1_6_0_0,NA,NA,form submission,4886.42,58010,58006.92,58023.58,62910,62911,2024-05-14T07:16:24Z,62919.56,Verpackung,ufungaji,s,uhusiano,upimaji,uchunguzi,hhh,NA,NA,NULL,NA,NA,NA,NA,NA,NA,NA,NA,NA,NA,NA,NA,NA,NA,NA,NA,NA,NA,NA
4b25c,Save data screen,canvas.Screen,1_6_0_1,NA,NA,timeout,499.66,62913,62905.84,62919.56,63402.56,63404,2024-05-14T07:16:25Z,63419.22,Verpackung,ufungaji,s,uhusiano,upimaji,uchunguzi,NA,NA,0,NULL,NA,NA,NA,NA,NA,NA,NA,NA,NA,NA,NA,NA,NA,NA,NA,NA,NA,NA,NA
4b25c,deep,flow.Sequence,1_6_0,NA,NA,completion,5378.98,58010,58006.92,58023.58,63402.56,63405,2024-05-14T07:16:25Z,63419.22,Verpackung,ufungaji,s,uhusiano,upimaji,uchunguzi,NA,NA,NA,NULL,NA,NA,NA,NA,NA,NA,NA,NA,NA,NA,NA,NA,NA,NA,NA,NA,NA,NA,NA
4b25c,task,flow.Sequence,1_6,NA,NA,completion,5378.98,58010,58006.92,58023.58,63402.56,63405,2024-05-14T07:16:25Z,63419.22,Verpackung,ufungaji,s,uhusiano,upimaji,uchunguzi,NA,NA,NA,NULL,NA,NA,NA,NA,NA,NA,NA,NA,NA,NA,NA,NA,NA,NA,NA,NA,NA,NA,NA
4b25c,Deep Question,html.Page,1_7_0_0,NA,NA,form submission,17726.78,63405,63402.56,63419.22,81146,81149,2024-05-14T07:16:43Z,81154.58,Schock,mshtuko,d,biashara,kukataza,vichekesho,mshtok,NA,NA,NULL,NA,NA,NA,NA,NA,NA,NA,NA,NA,NA,NA,NA,NA,NA,NA,NA,NA,NA,NA
4b25c,Save data screen,canvas.Screen,1_7_0_1,NA,NA,timeout,499.64,81159,81140.62,81154.58,81637.58,81639,2024-05-14T07:16:43Z,81654.22,Schock,mshtuko,d,biashara,kukataza,vichekesho,NA,NA,0,NULL,NA,NA,NA,NA,NA,NA,NA,NA,NA,NA,NA,NA,NA,NA,NA,NA,NA,NA,NA
4b25c,deep,flow.Sequence,1_7_0,NA,NA,completion,18218.36,63405,63402.56,63419.22,81637.58,81639,2024-05-14T07:16:43Z,81654.22,Schock,mshtuko,d,biashara,kukataza,vichekesho,NA,NA,NA,NULL,NA,NA,NA,NA,NA,NA,NA,NA,NA,NA,NA,NA,NA,NA,NA,NA,NA,NA,NA
4b25c,task,flow.Sequence,1_7,NA,NA,completion,18218.36,63405,63402.56,63419.22,81637.58,81639,2024-05-14T07:16:43Z,81654.22,Schock,mshtuko,d,biashara,kukataza,vichekesho,NA,NA,NA,NULL,NA,NA,NA,NA,NA,NA,NA,NA,NA,NA,NA,NA,NA,NA,NA,NA,NA,NA,NA
4b25c,Deep Question,html.Page,1_8_0_0,NA,NA,form submission,5746.78,81640,81637.58,81654.22,87401,87401,2024-05-14T07:16:49Z,87399.54,Inhalt,yaliyomo,s,kishawishi,hifadhi,kutembea,ggg,NA,NA,NULL,NA,NA,NA,NA,NA,NA,NA,NA,NA,NA,NA,NA,NA,NA,NA,NA,NA,NA,NA
4b25c,Save data screen,canvas.Screen,1_8_0_1,NA,NA,timeout,499.52,87405,87395.42,87399.54,87882.42,87884,2024-05-14T07:16:49Z,87899.06,Inhalt,yaliyomo,s,kishawishi,hifadhi,kutembea,NA,NA,0,NULL,NA,NA,NA,NA,NA,NA,NA,NA,NA,NA,NA,NA,NA,NA,NA,NA,NA,NA,NA
4b25c,deep,flow.Sequence,1_8_0,NA,NA,completion,6228.2,81640,81637.58,81654.22,87882.42,87884,2024-05-14T07:16:49Z,87899.06,Inhalt,yaliyomo,s,kishawishi,hifadhi,kutembea,NA,NA,NA,NULL,NA,NA,NA,NA,NA,NA,NA,NA,NA,NA,NA,NA,NA,NA,NA,NA,NA,NA,NA
4b25c,task,flow.Sequence,1_8,NA,NA,completion,6228.2,81639,81637.58,81654.22,87882.42,87885,2024-05-14T07:16:49Z,87899.06,Inhalt,yaliyomo,s,kishawishi,hifadhi,kutembea,NA,NA,NA,NULL,NA,NA,NA,NA,NA,NA,NA,NA,NA,NA,NA,NA,NA,NA,NA,NA,NA,NA,NA
4b25c,Deep Question,html.Page,1_9_0_0,NA,NA,form submission,5144.94,87886,87882.42,87899.06,93044,93044,2024-05-14T07:16:54Z,93044.78,Hoffnung,matarajio,s,kutaalamika,uratibu,mvumbuzi,hhh,NA,NA,NULL,NA,NA,NA,NA,NA,NA,NA,NA,NA,NA,NA,NA,NA,NA,NA,NA,NA,NA,NA
4b25c,Save data screen,canvas.Screen,1_9_0_1,NA,NA,timeout,499.62,93045,93041.76,93044.78,93527.74,93528,2024-05-14T07:16:55Z,93544.4,Hoffnung,matarajio,s,kutaalamika,uratibu,mvumbuzi,NA,NA,0,NULL,NA,NA,NA,NA,NA,NA,NA,NA,NA,NA,NA,NA,NA,NA,NA,NA,NA,NA,NA
4b25c,deep,flow.Sequence,1_9_0,NA,NA,completion,5628.68,87885,87882.42,87899.06,93527.74,93528,2024-05-14T07:16:55Z,93544.4,Hoffnung,matarajio,s,kutaalamika,uratibu,mvumbuzi,NA,NA,NA,NULL,NA,NA,NA,NA,NA,NA,NA,NA,NA,NA,NA,NA,NA,NA,NA,NA,NA,NA,NA
4b25c,task,flow.Sequence,1_9,NA,NA,completion,5628.68,87885,87882.42,87899.06,93527.74,93529,2024-05-14T07:16:55Z,93544.4,Hoffnung,matarajio,s,kutaalamika,uratibu,mvumbuzi,NA,NA,NA,NULL,NA,NA,NA,NA,NA,NA,NA,NA,NA,NA,NA,NA,NA,NA,NA,NA,NA,NA,NA
4b25c,Deep Question,html.Page,1_10_0_0,NA,NA,form submission,5057.6,93530,93527.74,93544.4,98602,98602,2024-05-14T07:17:00Z,98606.92,Tester,wanaojaribu,s,sherti,sihiri,mlipuko,ggg,NA,NA,NULL,NA,NA,NA,NA,NA,NA,NA,NA,NA,NA,NA,NA,NA,NA,NA,NA,NA,NA,NA
4b25c,Save data screen,canvas.Screen,1_10_0_1,NA,NA,timeout,499.66,98605,98596.92,98606.92,99089.92,99092,2024-05-14T07:17:01Z,99106.58,Tester,wanaojaribu,s,sherti,sihiri,mlipuko,NA,NA,0,NULL,NA,NA,NA,NA,NA,NA,NA,NA,NA,NA,NA,NA,NA,NA,NA,NA,NA,NA,NA
4b25c,deep,flow.Sequence,1_10_0,NA,NA,completion,5545.52,93530,93527.74,93544.4,99089.92,99092,2024-05-14T07:17:01Z,99106.58,Tester,wanaojaribu,s,sherti,sihiri,mlipuko,NA,NA,NA,NULL,NA,NA,NA,NA,NA,NA,NA,NA,NA,NA,NA,NA,NA,NA,NA,NA,NA,NA,NA
4b25c,task,flow.Sequence,1_10,NA,NA,completion,5545.52,93530,93527.74,93544.4,99089.92,99093,2024-05-14T07:17:01Z,99106.58,Tester,wanaojaribu,s,sherti,sihiri,mlipuko,NA,NA,NA,NULL,NA,NA,NA,NA,NA,NA,NA,NA,NA,NA,NA,NA,NA,NA,NA,NA,NA,NA,NA
4b25c,Deep Question,html.Page,1_11_0_0,NA,NA,form submission,11886.42,99094,99089.92,99106.58,110993,110994,2024-05-14T07:17:12Z,110996.8,Schlange,foleni,d,uvumilivu,uteuzi,muuzaji,foleni,NA,NA,NULL,NA,NA,NA,NA,NA,NA,NA,NA,NA,NA,NA,NA,NA,NA,NA,NA,NA,NA,NA
4b25c,Save data screen,canvas.Screen,1_11_0_1,NA,NA,timeout,499.53999999999,110996,110988.32,110996.8,111479.7,111482,2024-05-14T07:17:13Z,111496.34,Schlange,foleni,d,uvumilivu,uteuzi,muuzaji,NA,NA,1,NULL,NA,NA,NA,NA,NA,NA,NA,NA,NA,NA,NA,NA,NA,NA,NA,NA,NA,NA,NA
4b25c,deep,flow.Sequence,1_11_0,NA,NA,completion,12373.12,99093,99089.92,99106.58,111479.7,111482,2024-05-14T07:17:13Z,111496.34,Schlange,foleni,d,uvumilivu,uteuzi,muuzaji,NA,NA,NA,NULL,NA,NA,NA,NA,NA,NA,NA,NA,NA,NA,NA,NA,NA,NA,NA,NA,NA,NA,NA
4b25c,task,flow.Sequence,1_11,NA,NA,completion,12373.12,99093,99089.92,99106.58,111479.7,111483,2024-05-14T07:17:13Z,111496.34,Schlange,foleni,d,uvumilivu,uteuzi,muuzaji,NA,NA,NA,NULL,NA,NA,NA,NA,NA,NA,NA,NA,NA,NA,NA,NA,NA,NA,NA,NA,NA,NA,NA
4b25c,Deep Question,html.Page,1_12_0_0,NA,NA,form submission,4788.66,111483,111479.7,111496.34,116285,116286,2024-05-14T07:17:18Z,116292.36,Toleranz,kuvumiliana,d,maombolezo,ujasusi,mchekeshaji,ggg,NA,NA,NULL,NA,NA,NA,NA,NA,NA,NA,NA,NA,NA,NA,NA,NA,NA,NA,NA,NA,NA,NA
4b25c,Save data screen,canvas.Screen,1_12_0_1,NA,NA,timeout,499.60000000001,116287,116282.16,116292.36,116775.32,116776,2024-05-14T07:17:18Z,116791.96,Toleranz,kuvumiliana,d,maombolezo,ujasusi,mchekeshaji,NA,NA,0,NULL,NA,NA,NA,NA,NA,NA,NA,NA,NA,NA,NA,NA,NA,NA,NA,NA,NA,NA,NA
4b25c,deep,flow.Sequence,1_12_0,NA,NA,completion,5278.98,111483,111479.7,111496.34,116775.32,116776,2024-05-14T07:17:18Z,116791.96,Toleranz,kuvumiliana,d,maombolezo,ujasusi,mchekeshaji,NA,NA,NA,NULL,NA,NA,NA,NA,NA,NA,NA,NA,NA,NA,NA,NA,NA,NA,NA,NA,NA,NA,NA
4b25c,task,flow.Sequence,1_12,NA,NA,completion,5278.98,111483,111479.7,111496.34,116775.32,116776,2024-05-14T07:17:18Z,116791.96,Toleranz,kuvumiliana,d,maombolezo,ujasusi,mchekeshaji,NA,NA,NA,NULL,NA,NA,NA,NA,NA,NA,NA,NA,NA,NA,NA,NA,NA,NA,NA,NA,NA,NA,NA
4b25c,Deep Question,html.Page,1_13_0_0,NA,NA,form submission,4381.04,116776,116775.32,116791.96,121173,121173,2024-05-14T07:17:23Z,121171.68,Vermutung,udhanifu,s,haramia,tikisho,itifaki,ggg,NA,NA,NULL,NA,NA,NA,NA,NA,NA,NA,NA,NA,NA,NA,NA,NA,NA,NA,NA,NA,NA,NA
4b25c,Save data screen,canvas.Screen,1_13_0_1,NA,NA,timeout,499.60000000001,121175,121171,121171.68,121654.64,121655,2024-05-14T07:17:23Z,121671.28,Vermutung,udhanifu,s,haramia,tikisho,itifaki,NA,NA,0,NULL,NA,NA,NA,NA,NA,NA,NA,NA,NA,NA,NA,NA,NA,NA,NA,NA,NA,NA,NA
4b25c,deep,flow.Sequence,1_13_0,NA,NA,completion,4862.68,116776,116775.32,116791.96,121654.64,121656,2024-05-14T07:17:23Z,121671.28,Vermutung,udhanifu,s,haramia,tikisho,itifaki,NA,NA,NA,NULL,NA,NA,NA,NA,NA,NA,NA,NA,NA,NA,NA,NA,NA,NA,NA,NA,NA,NA,NA
4b25c,task,flow.Sequence,1_13,NA,NA,completion,4862.68,116776,116775.32,116791.96,121654.64,121656,2024-05-14T07:17:23Z,121671.28,Vermutung,udhanifu,s,haramia,tikisho,itifaki,NA,NA,NA,NULL,NA,NA,NA,NA,NA,NA,NA,NA,NA,NA,NA,NA,NA,NA,NA,NA,NA,NA,NA
4b25c,Deep Question,html.Page,1_14_0_0,NA,NA,form submission,6776.72,121656,121654.64,121671.28,128448,128448,2024-05-14T07:17:30Z,128449.06,Ergänzung,kijalizo,d,ulaghai,mustarehe,matangazo,ggg,NA,NA,NULL,NA,NA,NA,NA,NA,NA,NA,NA,NA,NA,NA,NA,NA,NA,NA,NA,NA,NA,NA
4b25c,Save data screen,canvas.Screen,1_14_0_1,NA,NA,timeout,499.58,128450,128446.86,128449.06,128931.98,128932,2024-05-14T07:17:30Z,128948.64,Ergänzung,kijalizo,d,ulaghai,mustarehe,matangazo,NA,NA,0,NULL,NA,NA,NA,NA,NA,NA,NA,NA,NA,NA,NA,NA,NA,NA,NA,NA,NA,NA,NA
4b25c,deep,flow.Sequence,1_14_0,NA,NA,completion,7260.7,121656,121654.64,121671.28,128931.98,128932,2024-05-14T07:17:30Z,128948.64,Ergänzung,kijalizo,d,ulaghai,mustarehe,matangazo,NA,NA,NA,NULL,NA,NA,NA,NA,NA,NA,NA,NA,NA,NA,NA,NA,NA,NA,NA,NA,NA,NA,NA
4b25c,task,flow.Sequence,1_14,NA,NA,completion,7260.7,121656,121654.64,121671.28,128931.98,128932,2024-05-14T07:17:30Z,128948.64,Ergänzung,kijalizo,d,ulaghai,mustarehe,matangazo,NA,NA,NA,NULL,NA,NA,NA,NA,NA,NA,NA,NA,NA,NA,NA,NA,NA,NA,NA,NA,NA,NA,NA
4b25c,Deep Question,html.Page,1_15_0_0,NA,NA,form submission,8948.36,128933,128931.98,128948.64,137897,137899,2024-05-14T07:17:39Z,137907.94,Notfall,dharura,s,rairai,malalamiko,ahueni,dhara,NA,NA,NULL,NA,NA,NA,NA,NA,NA,NA,NA,NA,NA,NA,NA,NA,NA,NA,NA,NA,NA,NA
4b25c,Save data screen,canvas.Screen,1_15_0_1,NA,NA,timeout,499.57999999999,137905,137892.8,137907.94,138390.88,138392,2024-05-14T07:17:40Z,138407.52,Notfall,dharura,s,rairai,malalamiko,ahueni,NA,NA,0,NULL,NA,NA,NA,NA,NA,NA,NA,NA,NA,NA,NA,NA,NA,NA,NA,NA,NA,NA,NA
4b25c,deep,flow.Sequence,1_15_0,NA,NA,completion,9442.24,128933,128931.98,128948.64,138390.88,138392,2024-05-14T07:17:40Z,138407.52,Notfall,dharura,s,rairai,malalamiko,ahueni,NA,NA,NA,NULL,NA,NA,NA,NA,NA,NA,NA,NA,NA,NA,NA,NA,NA,NA,NA,NA,NA,NA,NA
4b25c,task,flow.Sequence,1_15,NA,NA,completion,9442.24,128933,128931.98,128948.64,138390.88,138392,2024-05-14T07:17:40Z,138407.52,Notfall,dharura,s,rairai,malalamiko,ahueni,NA,NA,NA,NULL,NA,NA,NA,NA,NA,NA,NA,NA,NA,NA,NA,NA,NA,NA,NA,NA,NA,NA,NA
4b25c,retrieval block 1 (cued recall),flow.Loop,1,NA,NA,completion,135051.4,3320,3320.22,3339.48,138390.88,138393,2024-05-14T07:17:40Z,138407.52,NA,NA,NA,NA,NA,NA,NA,NA,NA,NULL,NA,NA,NA,NA,NA,NA,NA,NA,NA,NA,NA,NA,NA,NA,NA,NA,NA,NA,NA
4b25c,Shallow Question,html.Page,2_0_0_0,NA,NA,form submission,9842.48,138394,138390.88,138407.52,148250,148250,2024-05-14T07:17:50Z,148249.44,Ergänzung,kijalizo,d,ulaghai,mustarehe,matangazo,kijalizo,NA,NA,"c(""distractor1"", ""distractor2"", ""distractor3"")",NA,NA,NA,NA,NA,NA,NA,NA,NA,NA,NA,NA,NA,NA,NA,NA,NA,NA,NA
4b25c,Save data screen,canvas.Screen,2_0_0_1,NA,NA,timeout,499.57999999999,148252,148247.66,148249.44,148732.38,148733,2024-05-14T07:17:50Z,148749.02,Ergänzung,kijalizo,d,ulaghai,mustarehe,matangazo,NA,NA,1,"c(""distractor1"", ""distractor2"", ""distractor3"")",NA,NA,NA,NA,NA,NA,NA,NA,NA,NA,NA,NA,NA,NA,NA,NA,NA,NA,NA
4b25c,shallow,flow.Sequence,2_0_0,NA,NA,completion,10324.86,138393,138390.88,138407.52,148732.38,148733,2024-05-14T07:17:50Z,148749.02,Ergänzung,kijalizo,d,ulaghai,mustarehe,matangazo,NA,NA,NA,"c(""distractor1"", ""distractor2"", ""distractor3"")",NA,NA,NA,NA,NA,NA,NA,NA,NA,NA,NA,NA,NA,NA,NA,NA,NA,NA,NA
4b25c,task,flow.Sequence,2_0,NA,NA,completion,10324.86,138393,138390.88,138407.52,148732.38,148733,2024-05-14T07:17:50Z,148749.02,Ergänzung,kijalizo,d,ulaghai,mustarehe,matangazo,NA,NA,NA,"c(""distractor1"", ""distractor2"", ""distractor3"")",NA,NA,NA,NA,NA,NA,NA,NA,NA,NA,NA,NA,NA,NA,NA,NA,NA,NA,NA
4b25c,Shallow Question,html.Page,2_1_0_0,NA,NA,form submission,5052.98,148734,148732.38,148749.02,153802,153802,2024-05-14T07:17:55Z,153811.52,Spionage,upelelezi,d,maslahi,utokazo,magangao,upelelezi,NA,NA,"c(""distractor1"", ""distractor2"", ""distractor3"")",NA,NA,NA,NA,NA,NA,NA,NA,NA,NA,NA,NA,NA,NA,NA,NA,NA,NA,NA
4b25c,Save data screen,canvas.Screen,2_1_0_1,NA,NA,timeout,499.62000000002,153803,153799.82,153811.52,154294.5,154295,2024-05-14T07:17:56Z,154311.14,Spionage,upelelezi,d,maslahi,utokazo,magangao,NA,NA,1,"c(""distractor1"", ""distractor2"", ""distractor3"")",NA,NA,NA,NA,NA,NA,NA,NA,NA,NA,NA,NA,NA,NA,NA,NA,NA,NA,NA
4b25c,shallow,flow.Sequence,2_1_0,NA,NA,completion,5545.48,148734,148732.38,148749.02,154294.5,154296,2024-05-14T07:17:56Z,154311.14,Spionage,upelelezi,d,maslahi,utokazo,magangao,NA,NA,NA,"c(""distractor1"", ""distractor2"", ""distractor3"")",NA,NA,NA,NA,NA,NA,NA,NA,NA,NA,NA,NA,NA,NA,NA,NA,NA,NA,NA
4b25c,task,flow.Sequence,2_1,NA,NA,completion,5545.48,148734,148732.38,148749.02,154294.5,154296,2024-05-14T07:17:56Z,154311.14,Spionage,upelelezi,d,maslahi,utokazo,magangao,NA,NA,NA,"c(""distractor1"", ""distractor2"", ""distractor3"")",NA,NA,NA,NA,NA,NA,NA,NA,NA,NA,NA,NA,NA,NA,NA,NA,NA,NA,NA
4b25c,Shallow Question,html.Page,2_2_0_0,NA,NA,form submission,6726.86,154297,154294.5,154311.14,161038,161039,2024-05-14T07:18:02Z,161038.94,Toleranz,kuvumiliana,d,maombolezo,ujasusi,mchekeshaji,kuvumiliana,NA,NA,"c(""distractor1"", ""distractor2"", ""distractor3"")",NA,NA,NA,NA,NA,NA,NA,NA,NA,NA,NA,NA,NA,NA,NA,NA,NA,NA,NA
4b25c,Save data screen,canvas.Screen,2_2_0_1,NA,NA,timeout,499.57999999999,161040,161035.86,161038.94,161521.86,161523,2024-05-14T07:18:03Z,161538.52,Toleranz,kuvumiliana,d,maombolezo,ujasusi,mchekeshaji,NA,NA,1,"c(""distractor1"", ""distractor2"", ""distractor3"")",NA,NA,NA,NA,NA,NA,NA,NA,NA,NA,NA,NA,NA,NA,NA,NA,NA,NA,NA
4b25c,shallow,flow.Sequence,2_2_0,NA,NA,completion,7210.72,154296,154294.5,154311.14,161521.86,161523,2024-05-14T07:18:03Z,161538.52,Toleranz,kuvumiliana,d,maombolezo,ujasusi,mchekeshaji,NA,NA,NA,"c(""distractor1"", ""distractor2"", ""distractor3"")",NA,NA,NA,NA,NA,NA,NA,NA,NA,NA,NA,NA,NA,NA,NA,NA,NA,NA,NA
4b25c,task,flow.Sequence,2_2,NA,NA,completion,7210.72,154296,154294.5,154311.14,161521.86,161523,2024-05-14T07:18:03Z,161538.52,Toleranz,kuvumiliana,d,maombolezo,ujasusi,mchekeshaji,NA,NA,NA,"c(""distractor1"", ""distractor2"", ""distractor3"")",NA,NA,NA,NA,NA,NA,NA,NA,NA,NA,NA,NA,NA,NA,NA,NA,NA,NA,NA
4b25c,Shallow Question,html.Page,2_3_0_0,NA,NA,form submission,5468.48,161523,161521.86,161538.52,167007,167007,2024-05-14T07:18:08Z,167017.36,Vergnügen,kichekesho,s,dubwana,mpanuko,mtesaji,kichekesho,NA,NA,"c(""distractor1"", ""distractor2"", ""distractor3"")",NA,NA,NA,NA,NA,NA,NA,NA,NA,NA,NA,NA,NA,NA,NA,NA,NA,NA,NA
4b25c,Save data screen,canvas.Screen,2_3_0_1,NA,NA,timeout,499.58000000002,167009,167005.3,167017.36,167500.3,167500,2024-05-14T07:18:09Z,167516.94,Vergnügen,kichekesho,s,dubwana,mpanuko,mtesaji,NA,NA,1,"c(""distractor1"", ""distractor2"", ""distractor3"")",NA,NA,NA,NA,NA,NA,NA,NA,NA,NA,NA,NA,NA,NA,NA,NA,NA,NA,NA
4b25c,shallow,flow.Sequence,2_3_0,NA,NA,completion,5961.78,161523,161521.86,161538.52,167500.3,167501,2024-05-14T07:18:09Z,167516.94,Vergnügen,kichekesho,s,dubwana,mpanuko,mtesaji,NA,NA,NA,"c(""distractor1"", ""distractor2"", ""distractor3"")",NA,NA,NA,NA,NA,NA,NA,NA,NA,NA,NA,NA,NA,NA,NA,NA,NA,NA,NA
4b25c,task,flow.Sequence,2_3,NA,NA,completion,5961.78,161523,161521.86,161538.52,167500.3,167501,2024-05-14T07:18:09Z,167516.94,Vergnügen,kichekesho,s,dubwana,mpanuko,mtesaji,NA,NA,NA,"c(""distractor1"", ""distractor2"", ""distractor3"")",NA,NA,NA,NA,NA,NA,NA,NA,NA,NA,NA,NA,NA,NA,NA,NA,NA,NA,NA
4b25c,Shallow Question,html.Page,2_4_0_0,NA,NA,form submission,7162.06,167501,167500.3,167516.94,174679,174680,2024-05-14T07:18:16Z,174677.74,Verpackung,ufungaji,s,uhusiano,upimaji,uchunguzi,ufungaji,NA,NA,"c(""distractor1"", ""distractor2"", ""distractor3"")",NA,NA,NA,NA,NA,NA,NA,NA,NA,NA,NA,NA,NA,NA,NA,NA,NA,NA,NA
4b25c,Save data screen,canvas.Screen,2_4_0_1,NA,NA,timeout,499.58000000002,174681,174676.46,174677.74,175160.68,175161,2024-05-14T07:18:17Z,175177.32,Verpackung,ufungaji,s,uhusiano,upimaji,uchunguzi,NA,NA,1,"c(""distractor1"", ""distractor2"", ""distractor3"")",NA,NA,NA,NA,NA,NA,NA,NA,NA,NA,NA,NA,NA,NA,NA,NA,NA,NA,NA
4b25c,shallow,flow.Sequence,2_4_0,NA,NA,completion,7643.74,167501,167500.3,167516.94,175160.68,175162,2024-05-14T07:18:17Z,175177.32,Verpackung,ufungaji,s,uhusiano,upimaji,uchunguzi,NA,NA,NA,"c(""distractor1"", ""distractor2"", ""distractor3"")",NA,NA,NA,NA,NA,NA,NA,NA,NA,NA,NA,NA,NA,NA,NA,NA,NA,NA,NA
4b25c,task,flow.Sequence,2_4,NA,NA,completion,7643.74,167501,167500.3,167516.94,175160.68,175162,2024-05-14T07:18:17Z,175177.32,Verpackung,ufungaji,s,uhusiano,upimaji,uchunguzi,NA,NA,NA,"c(""distractor1"", ""distractor2"", ""distractor3"")",NA,NA,NA,NA,NA,NA,NA,NA,NA,NA,NA,NA,NA,NA,NA,NA,NA,NA,NA
4b25c,Shallow Question,html.Page,2_5_0_0,NA,NA,form submission,5265.68,175162,175160.68,175177.32,180443,180443,2024-05-14T07:18:22Z,180456.32,Tester,wanaojaribu,s,sherti,sihiri,mlipuko,wanaojaribu,NA,NA,"c(""distractor1"", ""distractor2"", ""distractor3"")",NA,NA,NA,NA,NA,NA,NA,NA,NA,NA,NA,NA,NA,NA,NA,NA,NA,NA,NA
4b25c,Save data screen,canvas.Screen,2_5_0_1,NA,NA,timeout,499.57999999999,180445,180440.58,180456.32,180939.24,180940,2024-05-14T07:18:22Z,180955.9,Tester,wanaojaribu,s,sherti,sihiri,mlipuko,NA,NA,1,"c(""distractor1"", ""distractor2"", ""distractor3"")",NA,NA,NA,NA,NA,NA,NA,NA,NA,NA,NA,NA,NA,NA,NA,NA,NA,NA,NA
4b25c,shallow,flow.Sequence,2_5_0,NA,NA,completion,5761.92,175162,175160.68,175177.32,180939.24,180940,2024-05-14T07:18:22Z,180955.9,Tester,wanaojaribu,s,sherti,sihiri,mlipuko,NA,NA,NA,"c(""distractor1"", ""distractor2"", ""distractor3"")",NA,NA,NA,NA,NA,NA,NA,NA,NA,NA,NA,NA,NA,NA,NA,NA,NA,NA,NA
4b25c,task,flow.Sequence,2_5,NA,NA,completion,5761.92,175162,175160.68,175177.32,180939.24,180940,2024-05-14T07:18:22Z,180955.9,Tester,wanaojaribu,s,sherti,sihiri,mlipuko,NA,NA,NA,"c(""distractor1"", ""distractor2"", ""distractor3"")",NA,NA,NA,NA,NA,NA,NA,NA,NA,NA,NA,NA,NA,NA,NA,NA,NA,NA,NA
4b25c,Shallow Question,html.Page,2_6_0_0,NA,NA,form submission,4711.1,180940,180939.24,180955.9,185667,185668,2024-05-14T07:18:27Z,185668.7,Fenster,dirisha,d,walakini,tasawari,maarifa,dirisha,NA,NA,"c(""distractor1"", ""distractor2"", ""distractor3"")",NA,NA,NA,NA,NA,NA,NA,NA,NA,NA,NA,NA,NA,NA,NA,NA,NA,NA,NA
4b25c,Save data screen,canvas.Screen,2_6_0_1,NA,NA,timeout,499.59999999998,185669,185665.72,185668.7,186151.64,186152,2024-05-14T07:18:28Z,186168.3,Fenster,dirisha,d,walakini,tasawari,maarifa,NA,NA,1,"c(""distractor1"", ""distractor2"", ""distractor3"")",NA,NA,NA,NA,NA,NA,NA,NA,NA,NA,NA,NA,NA,NA,NA,NA,NA,NA,NA
4b25c,shallow,flow.Sequence,2_6_0,NA,NA,completion,5195.74,180940,180939.24,180955.9,186151.64,186152,2024-05-14T07:18:28Z,186168.3,Fenster,dirisha,d,walakini,tasawari,maarifa,NA,NA,NA,"c(""distractor1"", ""distractor2"", ""distractor3"")",NA,NA,NA,NA,NA,NA,NA,NA,NA,NA,NA,NA,NA,NA,NA,NA,NA,NA,NA
4b25c,task,flow.Sequence,2_6,NA,NA,completion,5195.74,180940,180939.24,180955.9,186151.64,186152,2024-05-14T07:18:28Z,186168.3,Fenster,dirisha,d,walakini,tasawari,maarifa,NA,NA,NA,"c(""distractor1"", ""distractor2"", ""distractor3"")",NA,NA,NA,NA,NA,NA,NA,NA,NA,NA,NA,NA,NA,NA,NA,NA,NA,NA,NA
4b25c,Shallow Question,html.Page,2_7_0_0,NA,NA,form submission,5548.7,186153,186151.64,186168.3,191717,191717,2024-05-14T07:18:33Z,191730.38,Wohlstand,mafanikio,d,chimbuko,kumbuko,mapwaji,mafanikio,NA,NA,"c(""distractor1"", ""distractor2"", ""distractor3"")",NA,NA,NA,NA,NA,NA,NA,NA,NA,NA,NA,NA,NA,NA,NA,NA,NA,NA,NA
4b25c,Save data screen,canvas.Screen,2_7_0_1,NA,NA,timeout,499.60000000001,191719,191715.6,191730.38,192213.32,192214,2024-05-14T07:18:34Z,192229.98,Wohlstand,mafanikio,d,chimbuko,kumbuko,mapwaji,NA,NA,1,"c(""distractor1"", ""distractor2"", ""distractor3"")",NA,NA,NA,NA,NA,NA,NA,NA,NA,NA,NA,NA,NA,NA,NA,NA,NA,NA,NA
4b25c,shallow,flow.Sequence,2_7_0,NA,NA,completion,6045.02,186153,186151.64,186168.3,192213.32,192214,2024-05-14T07:18:34Z,192229.98,Wohlstand,mafanikio,d,chimbuko,kumbuko,mapwaji,NA,NA,NA,"c(""distractor1"", ""distractor2"", ""distractor3"")",NA,NA,NA,NA,NA,NA,NA,NA,NA,NA,NA,NA,NA,NA,NA,NA,NA,NA,NA
4b25c,task,flow.Sequence,2_7,NA,NA,completion,6045.02,186153,186151.64,186168.3,192213.32,192214,2024-05-14T07:18:34Z,192229.98,Wohlstand,mafanikio,d,chimbuko,kumbuko,mapwaji,NA,NA,NA,"c(""distractor1"", ""distractor2"", ""distractor3"")",NA,NA,NA,NA,NA,NA,NA,NA,NA,NA,NA,NA,NA,NA,NA,NA,NA,NA,NA
4b25c,Shallow Question,html.Page,2_8_0_0,NA,NA,form submission,5332.02,192214,192213.32,192229.98,197562,197564,2024-05-14T07:18:39Z,197575.64,Notfall,dharura,s,rairai,malalamiko,ahueni,dharura,NA,NA,"c(""distractor1"", ""distractor2"", ""distractor3"")",NA,NA,NA,NA,NA,NA,NA,NA,NA,NA,NA,NA,NA,NA,NA,NA,NA,NA,NA
4b25c,Save data screen,canvas.Screen,2_8_0_1,NA,NA,timeout,499.53999999998,197569,197558.88,197575.64,198058.52,198059,2024-05-14T07:18:39Z,198075.18,Notfall,dharura,s,rairai,malalamiko,ahueni,NA,NA,1,"c(""distractor1"", ""distractor2"", ""distractor3"")",NA,NA,NA,NA,NA,NA,NA,NA,NA,NA,NA,NA,NA,NA,NA,NA,NA,NA,NA
4b25c,shallow,flow.Sequence,2_8_0,NA,NA,completion,5828.54,192214,192213.32,192229.98,198058.52,198059,2024-05-14T07:18:39Z,198075.18,Notfall,dharura,s,rairai,malalamiko,ahueni,NA,NA,NA,"c(""distractor1"", ""distractor2"", ""distractor3"")",NA,NA,NA,NA,NA,NA,NA,NA,NA,NA,NA,NA,NA,NA,NA,NA,NA,NA,NA
4b25c,task,flow.Sequence,2_8,NA,NA,completion,5828.54,192214,192213.32,192229.98,198058.52,198060,2024-05-14T07:18:39Z,198075.18,Notfall,dharura,s,rairai,malalamiko,ahueni,NA,NA,NA,"c(""distractor1"", ""distractor2"", ""distractor3"")",NA,NA,NA,NA,NA,NA,NA,NA,NA,NA,NA,NA,NA,NA,NA,NA,NA,NA,NA
4b25c,Shallow Question,html.Page,2_9_0_0,NA,NA,form submission,7269.82,198060,198058.52,198075.18,205345,205346,2024-05-14T07:18:47Z,205352.52,Theorie,nadharia,d,ushungi,mkutano,uwakilishi,nadharia,NA,NA,"c(""distractor1"", ""distractor2"", ""distractor3"")",NA,NA,NA,NA,NA,NA,NA,NA,NA,NA,NA,NA,NA,NA,NA,NA,NA,NA,NA
4b25c,Save data screen,canvas.Screen,2_9_0_1,NA,NA,timeout,499.60000000001,205348,205341.78,205352.52,205835.46,205836,2024-05-14T07:18:47Z,205852.12,Theorie,nadharia,d,ushungi,mkutano,uwakilishi,NA,NA,1,"c(""distractor1"", ""distractor2"", ""distractor3"")",NA,NA,NA,NA,NA,NA,NA,NA,NA,NA,NA,NA,NA,NA,NA,NA,NA,NA,NA
4b25c,shallow,flow.Sequence,2_9_0,NA,NA,completion,7760.28,198060,198058.52,198075.18,205835.46,205836,2024-05-14T07:18:47Z,205852.12,Theorie,nadharia,d,ushungi,mkutano,uwakilishi,NA,NA,NA,"c(""distractor1"", ""distractor2"", ""distractor3"")",NA,NA,NA,NA,NA,NA,NA,NA,NA,NA,NA,NA,NA,NA,NA,NA,NA,NA,NA
4b25c,task,flow.Sequence,2_9,NA,NA,completion,7760.28,198060,198058.52,198075.18,205835.46,205837,2024-05-14T07:18:47Z,205852.12,Theorie,nadharia,d,ushungi,mkutano,uwakilishi,NA,NA,NA,"c(""distractor1"", ""distractor2"", ""distractor3"")",NA,NA,NA,NA,NA,NA,NA,NA,NA,NA,NA,NA,NA,NA,NA,NA,NA,NA,NA
4b25c,Shallow Question,html.Page,2_10_0_0,NA,NA,form submission,5449.88,205837,205835.46,205852.12,211302,211303,2024-05-14T07:18:53Z,211297.76,Schock,mshtuko,d,biashara,kukataza,vichekesho,mshtuko,NA,NA,"c(""distractor1"", ""distractor2"", ""distractor3"")",NA,NA,NA,NA,NA,NA,NA,NA,NA,NA,NA,NA,NA,NA,NA,NA,NA,NA,NA
4b25c,Save data screen,canvas.Screen,2_10_0_1,NA,NA,timeout,499.56,211306,211296.92,211297.76,211780.68,211782,2024-05-14T07:18:53Z,211797.32,Schock,mshtuko,d,biashara,kukataza,vichekesho,NA,NA,1,"c(""distractor1"", ""distractor2"", ""distractor3"")",NA,NA,NA,NA,NA,NA,NA,NA,NA,NA,NA,NA,NA,NA,NA,NA,NA,NA,NA
4b25c,shallow,flow.Sequence,2_10_0,NA,NA,completion,5928.56,205837,205835.46,205852.12,211780.68,211783,2024-05-14T07:18:53Z,211797.32,Schock,mshtuko,d,biashara,kukataza,vichekesho,NA,NA,NA,"c(""distractor1"", ""distractor2"", ""distractor3"")",NA,NA,NA,NA,NA,NA,NA,NA,NA,NA,NA,NA,NA,NA,NA,NA,NA,NA,NA
4b25c,task,flow.Sequence,2_10,NA,NA,completion,5928.56,205837,205835.46,205852.12,211780.68,211784,2024-05-14T07:18:53Z,211797.32,Schock,mshtuko,d,biashara,kukataza,vichekesho,NA,NA,NA,"c(""distractor1"", ""distractor2"", ""distractor3"")",NA,NA,NA,NA,NA,NA,NA,NA,NA,NA,NA,NA,NA,NA,NA,NA,NA,NA,NA
4b25c,Shallow Question,html.Page,2_11_0_0,NA,NA,form submission,8008.68,211784,211780.68,211797.32,219806,219807,2024-05-14T07:19:01Z,219807.44,Inhalt,yaliyomo,s,kishawishi,hifadhi,kutembea,yaliyomo,NA,NA,"c(""distractor1"", ""distractor2"", ""distractor3"")",NA,NA,NA,NA,NA,NA,NA,NA,NA,NA,NA,NA,NA,NA,NA,NA,NA,NA,NA
4b25c,Save data screen,canvas.Screen,2_11_0_1,NA,NA,timeout,499.56,219810,219802.66,219807.44,220290.34,220291,2024-05-14T07:19:02Z,220307,Inhalt,yaliyomo,s,kishawishi,hifadhi,kutembea,NA,NA,1,"c(""distractor1"", ""distractor2"", ""distractor3"")",NA,NA,NA,NA,NA,NA,NA,NA,NA,NA,NA,NA,NA,NA,NA,NA,NA,NA,NA
4b25c,shallow,flow.Sequence,2_11_0,NA,NA,completion,8493.02,211784,211780.68,211797.32,220290.34,220292,2024-05-14T07:19:02Z,220307,Inhalt,yaliyomo,s,kishawishi,hifadhi,kutembea,NA,NA,NA,"c(""distractor1"", ""distractor2"", ""distractor3"")",NA,NA,NA,NA,NA,NA,NA,NA,NA,NA,NA,NA,NA,NA,NA,NA,NA,NA,NA
4b25c,task,flow.Sequence,2_11,NA,NA,completion,8493.02,211784,211780.68,211797.32,220290.34,220292,2024-05-14T07:19:02Z,220307,Inhalt,yaliyomo,s,kishawishi,hifadhi,kutembea,NA,NA,NA,"c(""distractor1"", ""distractor2"", ""distractor3"")",NA,NA,NA,NA,NA,NA,NA,NA,NA,NA,NA,NA,NA,NA,NA,NA,NA,NA,NA
4b25c,Shallow Question,html.Page,2_12_0_0,NA,NA,form submission,4038,220292,220290.34,220307,224345,224346,2024-05-14T07:19:06Z,224353.66,Schlange,foleni,d,uvumilivu,uteuzi,muuzaji,foleni,NA,NA,"c(""distractor1"", ""distractor2"", ""distractor3"")",NA,NA,NA,NA,NA,NA,NA,NA,NA,NA,NA,NA,NA,NA,NA,NA,NA,NA,NA
4b25c,Save data screen,canvas.Screen,2_12_0_1,NA,NA,timeout,499.60000000001,224347,224340.84,224353.66,224836.6,224838,2024-05-14T07:19:06Z,224853.26,Schlange,foleni,d,uvumilivu,uteuzi,muuzaji,NA,NA,1,"c(""distractor1"", ""distractor2"", ""distractor3"")",NA,NA,NA,NA,NA,NA,NA,NA,NA,NA,NA,NA,NA,NA,NA,NA,NA,NA,NA
4b25c,shallow,flow.Sequence,2_12_0,NA,NA,completion,4529.6,220292,220290.34,220307,224836.6,224838,2024-05-14T07:19:06Z,224853.26,Schlange,foleni,d,uvumilivu,uteuzi,muuzaji,NA,NA,NA,"c(""distractor1"", ""distractor2"", ""distractor3"")",NA,NA,NA,NA,NA,NA,NA,NA,NA,NA,NA,NA,NA,NA,NA,NA,NA,NA,NA
4b25c,task,flow.Sequence,2_12,NA,NA,completion,4529.6,220292,220290.34,220307,224836.6,224839,2024-05-14T07:19:06Z,224853.26,Schlange,foleni,d,uvumilivu,uteuzi,muuzaji,NA,NA,NA,"c(""distractor1"", ""distractor2"", ""distractor3"")",NA,NA,NA,NA,NA,NA,NA,NA,NA,NA,NA,NA,NA,NA,NA,NA,NA,NA,NA
4b25c,Shallow Question,html.Page,2_13_0_0,NA,NA,form submission,5447.74,224839,224836.6,224853.26,230301,230302,2024-05-14T07:19:12Z,230298.86,Hoffnung,matarajio,s,kutaalamika,uratibu,mvumbuzi,matarajio,NA,NA,"c(""distractor1"", ""distractor2"", ""distractor3"")",NA,NA,NA,NA,NA,NA,NA,NA,NA,NA,NA,NA,NA,NA,NA,NA,NA,NA,NA
4b25c,Save data screen,canvas.Screen,2_13_0_1,NA,NA,timeout,499.62000000002,230305,230295.04,230298.86,230781.82,230783,2024-05-14T07:19:12Z,230798.48,Hoffnung,matarajio,s,kutaalamika,uratibu,mvumbuzi,NA,NA,1,"c(""distractor1"", ""distractor2"", ""distractor3"")",NA,NA,NA,NA,NA,NA,NA,NA,NA,NA,NA,NA,NA,NA,NA,NA,NA,NA,NA
4b25c,shallow,flow.Sequence,2_13_0,NA,NA,completion,5928.56,224839,224836.6,224853.26,230781.82,230783,2024-05-14T07:19:12Z,230798.48,Hoffnung,matarajio,s,kutaalamika,uratibu,mvumbuzi,NA,NA,NA,"c(""distractor1"", ""distractor2"", ""distractor3"")",NA,NA,NA,NA,NA,NA,NA,NA,NA,NA,NA,NA,NA,NA,NA,NA,NA,NA,NA
4b25c,task,flow.Sequence,2_13,NA,NA,completion,5928.56,224839,224836.6,224853.26,230781.82,230784,2024-05-14T07:19:12Z,230798.48,Hoffnung,matarajio,s,kutaalamika,uratibu,mvumbuzi,NA,NA,NA,"c(""distractor1"", ""distractor2"", ""distractor3"")",NA,NA,NA,NA,NA,NA,NA,NA,NA,NA,NA,NA,NA,NA,NA,NA,NA,NA,NA
4b25c,Shallow Question,html.Page,2_14_0_0,NA,NA,form submission,4578.52,230784,230781.82,230798.48,235377,235377,2024-05-14T07:19:17Z,235378.02,Vermutung,udhanifu,s,haramia,tikisho,itifaki,haramia,NA,NA,"c(""distractor1"", ""distractor2"", ""distractor3"")",NA,NA,NA,NA,NA,NA,NA,NA,NA,NA,NA,NA,NA,NA,NA,NA,NA,NA,NA
4b25c,Save data screen,canvas.Screen,2_14_0_1,NA,NA,timeout,499.54000000001,235382,235372.1,235378.02,235860.9,235862,2024-05-14T07:19:17Z,235877.56,Vermutung,udhanifu,s,haramia,tikisho,itifaki,NA,NA,0,"c(""distractor1"", ""distractor2"", ""distractor3"")",NA,NA,NA,NA,NA,NA,NA,NA,NA,NA,NA,NA,NA,NA,NA,NA,NA,NA,NA
4b25c,shallow,flow.Sequence,2_14_0,NA,NA,completion,5062.42,230784,230781.82,230798.48,235860.9,235863,2024-05-14T07:19:17Z,235877.56,Vermutung,udhanifu,s,haramia,tikisho,itifaki,NA,NA,NA,"c(""distractor1"", ""distractor2"", ""distractor3"")",NA,NA,NA,NA,NA,NA,NA,NA,NA,NA,NA,NA,NA,NA,NA,NA,NA,NA,NA
4b25c,task,flow.Sequence,2_14,NA,NA,completion,5062.42,230784,230781.82,230798.48,235860.9,235863,2024-05-14T07:19:17Z,235877.56,Vermutung,udhanifu,s,haramia,tikisho,itifaki,NA,NA,NA,"c(""distractor1"", ""distractor2"", ""distractor3"")",NA,NA,NA,NA,NA,NA,NA,NA,NA,NA,NA,NA,NA,NA,NA,NA,NA,NA,NA
4b25c,Shallow Question,html.Page,2_15_0_0,NA,NA,form submission,4361.44,235864,235860.9,235877.56,240239,240239,2024-05-14T07:19:22Z,240240.56,Schüler,mwanafunzi,s,mwekezaji,matumizi,uaminifu,mwanafunzi,NA,NA,"c(""distractor1"", ""distractor2"", ""distractor3"")",NA,NA,NA,NA,NA,NA,NA,NA,NA,NA,NA,NA,NA,NA,NA,NA,NA,NA,NA
4b25c,Save data screen,canvas.Screen,2_15_0_1,NA,NA,timeout,499.56,240240,240237.4,240240.56,240723.48,240725,2024-05-14T07:19:22Z,240740.12,Schüler,mwanafunzi,s,mwekezaji,matumizi,uaminifu,NA,NA,1,"c(""distractor1"", ""distractor2"", ""distractor3"")",NA,NA,NA,NA,NA,NA,NA,NA,NA,NA,NA,NA,NA,NA,NA,NA,NA,NA,NA
4b25c,shallow,flow.Sequence,2_15_0,NA,NA,completion,4845.92,235864,235860.9,235877.56,240723.48,240726,2024-05-14T07:19:22Z,240740.12,Schüler,mwanafunzi,s,mwekezaji,matumizi,uaminifu,NA,NA,NA,"c(""distractor1"", ""distractor2"", ""distractor3"")",NA,NA,NA,NA,NA,NA,NA,NA,NA,NA,NA,NA,NA,NA,NA,NA,NA,NA,NA
4b25c,task,flow.Sequence,2_15,NA,NA,completion,4845.92,235864,235860.9,235877.56,240723.48,240726,2024-05-14T07:19:22Z,240740.12,Schüler,mwanafunzi,s,mwekezaji,matumizi,uaminifu,NA,NA,NA,"c(""distractor1"", ""distractor2"", ""distractor3"")",NA,NA,NA,NA,NA,NA,NA,NA,NA,NA,NA,NA,NA,NA,NA,NA,NA,NA,NA
4b25c,retrieval block 2 (multiple choice),flow.Loop,2,NA,NA,completion,102315.96,138393,138390.88,138407.52,240723.48,240726,2024-05-14T07:19:22Z,240740.12,NA,NA,NA,NA,NA,NA,NA,NA,NA,"c(""distractor1"", ""distractor2"", ""distractor3"")",NA,NA,NA,NA,NA,NA,NA,NA,NA,NA,NA,NA,NA,NA,NA,NA,NA,NA,NA
4b25c,End,canvas.Screen,3,NA,keypress(Space),response,2191.88,240727,240723.48,240740.12,242932,242942,2024-05-14T07:19:24Z,242943.66,NA,NA,NA,NA,NA,NA,NA,NA,NA,NULL,NA,NA,NA,NA,NA,NA,NA,NA,NA,NA,NA,NA,NA,NA,NA,NA,NA,NA,NA
4b25c,root,flow.Sequence,NA,NA,NA,completion,242244.68,642,637.36,687.32,242932,242943,2024-05-14T07:19:24Z,242943.66,NA,NA,NA,NA,NA,NA,NA,NA,NA,NULL,NA,NA,NA,NA,NA,NA,NA,NA,NA,NA,NA,NA,NA,NA,NA,NA,NA,NA,NA
