observation,sender,sender_type,sender_id,response,response_action,ended_on,duration,time_run,time_render,time_show,time_end,time_commit,timestamp,time_switch,german,swahili,enc,distractor1,distractor2,distractor3,response_2,x,correct,distractors,url_vp,url_sess,meta_labjs_version,meta_location,meta_user_agent,meta_platform,meta_language,meta_locale,meta_time_zone,meta_timezone_offset,meta_screen_width,meta_screen_height,meta_scroll_width,meta_scroll_height,meta_window_inner_width,meta_window_inner_height,meta_device_pixel_ratio,meta_labjs_build_flavor,meta_labjs_build_commit
043c4,Introduction delayed retrieval,canvas.Screen,0,weiter,keypress(Space),response,1489.0389999881,10860.099999994,10815.163,10865.161,12354.199999988,12360.699999988,2023-12-04T07:48:07Z,12365.101,NA,NA,NA,NA,NA,NA,NA,NA,NA,NULL,132,4,20.2.4,https://neurocog.fernuni.ch/studies/vweber/delayed/index.html?vp=132&sess=4,"Mozilla/5.0 (Macintosh; Intel Mac OS X 10_15_7) AppleWebKit/537.36 (KHTML, like Gecko) Chrome/119.0.0.0 Safari/537.36",MacIntel,en-GB,en-GB,Europe/Zurich,-60,1728,1117,1728,866,1728,914,2,production,f5b4a49f956347addd546a832a3327688c2c0fef
043c4,Deep Question,html.Page,1_0_0_0,NA,NA,form submission,22480.698999982,12361,12356.768,12365.101,34845.799999982,34845.900000006,2023-12-04T07:48:29Z,34848.412,Angreifer,mshambulizi,s,kitengo,tasinia,usafirishaji,ntemogora,NA,NA,NULL,NA,NA,NA,NA,NA,NA,NA,NA,NA,NA,NA,NA,NA,NA,NA,NA,NA,NA,NA
043c4,Save data screen,canvas.Screen,1_0_0_1,NA,NA,timeout,499.98,34846.299999982,34840.079,34848.412,35340.059,35342.400000006,2023-12-04T07:48:30Z,35348.392,Angreifer,mshambulizi,s,kitengo,tasinia,usafirishaji,NA,NA,0,NULL,NA,NA,NA,NA,NA,NA,NA,NA,NA,NA,NA,NA,NA,NA,NA,NA,NA,NA,NA
043c4,deep,flow.Sequence,1_0_0,NA,NA,completion,22974.958,12361,12356.768,12365.101,35340.059,35342.400000006,2023-12-04T07:48:30Z,35348.392,Angreifer,mshambulizi,s,kitengo,tasinia,usafirishaji,NA,NA,NA,NULL,NA,NA,NA,NA,NA,NA,NA,NA,NA,NA,NA,NA,NA,NA,NA,NA,NA,NA,NA
043c4,task,flow.Sequence,1_0,NA,NA,completion,22974.958,12361,12356.768,12365.101,35340.059,35342.5,2023-12-04T07:48:30Z,35348.392,Angreifer,mshambulizi,s,kitengo,tasinia,usafirishaji,NA,NA,NA,NULL,NA,NA,NA,NA,NA,NA,NA,NA,NA,NA,NA,NA,NA,NA,NA,NA,NA,NA,NA
043c4,Deep Question,html.Page,1_1_0_0,NA,NA,form submission,12187.108,35342.5,35340.059,35348.392,47535.5,47536,2023-12-04T07:48:42Z,47540.001,Lawine,banguko,s,maambukizi,usuluhishi,chekechea,tawabum,NA,NA,NULL,NA,NA,NA,NA,NA,NA,NA,NA,NA,NA,NA,NA,NA,NA,NA,NA,NA,NA,NA
043c4,Save data screen,canvas.Screen,1_1_0_1,NA,NA,timeout,499.98,47536.699999988,47531.668,47540.001,48031.648,48034.299999982,2023-12-04T07:48:42Z,48039.981,Lawine,banguko,s,maambukizi,usuluhishi,chekechea,NA,NA,0,NULL,NA,NA,NA,NA,NA,NA,NA,NA,NA,NA,NA,NA,NA,NA,NA,NA,NA,NA,NA
043c4,deep,flow.Sequence,1_1_0,NA,NA,completion,12683.256,35342.5,35340.059,35348.392,48031.648,48034.5,2023-12-04T07:48:42Z,48039.981,Lawine,banguko,s,maambukizi,usuluhishi,chekechea,NA,NA,NA,NULL,NA,NA,NA,NA,NA,NA,NA,NA,NA,NA,NA,NA,NA,NA,NA,NA,NA,NA,NA
043c4,task,flow.Sequence,1_1,NA,NA,completion,12683.256,35342.5,35340.059,35348.392,48031.648,48034.599999994,2023-12-04T07:48:42Z,48039.981,Lawine,banguko,s,maambukizi,usuluhishi,chekechea,NA,NA,NA,NULL,NA,NA,NA,NA,NA,NA,NA,NA,NA,NA,NA,NA,NA,NA,NA,NA,NA,NA,NA
043c4,Deep Question,html.Page,1_2_0_0,NA,NA,form submission,7267.7189999881,48034.799999982,48031.648,48039.981,55307.699999988,55308.099999994,2023-12-04T07:48:50Z,55310.948,Kanzler,diwani,d,rasilmali,mahitaji,maabudu,j,NA,NA,NULL,NA,NA,NA,NA,NA,NA,NA,NA,NA,NA,NA,NA,NA,NA,NA,NA,NA,NA,NA
043c4,Save data screen,canvas.Screen,1_2_0_1,NA,NA,timeout,499.98,55309.099999994,55302.615,55310.948,55802.595,55805.900000006,2023-12-04T07:48:50Z,55810.928,Kanzler,diwani,d,rasilmali,mahitaji,maabudu,NA,NA,0,NULL,NA,NA,NA,NA,NA,NA,NA,NA,NA,NA,NA,NA,NA,NA,NA,NA,NA,NA,NA
043c4,deep,flow.Sequence,1_2_0,NA,NA,completion,7762.614,48034.799999982,48031.648,48039.981,55802.595,55806.400000006,2023-12-04T07:48:50Z,55810.928,Kanzler,diwani,d,rasilmali,mahitaji,maabudu,NA,NA,NA,NULL,NA,NA,NA,NA,NA,NA,NA,NA,NA,NA,NA,NA,NA,NA,NA,NA,NA,NA,NA
043c4,task,flow.Sequence,1_2,NA,NA,completion,7762.614,48034.699999988,48031.648,48039.981,55802.595,55806.699999988,2023-12-04T07:48:50Z,55810.928,Kanzler,diwani,d,rasilmali,mahitaji,maabudu,NA,NA,NA,NULL,NA,NA,NA,NA,NA,NA,NA,NA,NA,NA,NA,NA,NA,NA,NA,NA,NA,NA,NA
043c4,Deep Question,html.Page,1_3_0_0,NA,NA,form submission,8565.572,55807,55802.595,55810.928,64376.5,64376.799999982,2023-12-04T07:48:59Z,64381.835,System,maongozi,s,chokochoko,nuksani,mitaani,j,NA,NA,NULL,NA,NA,NA,NA,NA,NA,NA,NA,NA,NA,NA,NA,NA,NA,NA,NA,NA,NA,NA
043c4,Save data screen,canvas.Screen,1_3_0_1,NA,NA,timeout,499.98,64377.699999988,64373.502,64381.835,64873.482,64875.400000006,2023-12-04T07:48:59Z,64881.815,System,maongozi,s,chokochoko,nuksani,mitaani,NA,NA,0,NULL,NA,NA,NA,NA,NA,NA,NA,NA,NA,NA,NA,NA,NA,NA,NA,NA,NA,NA,NA
043c4,deep,flow.Sequence,1_3_0,NA,NA,completion,9062.554,55806.900000006,55802.595,55810.928,64873.482,64875.799999982,2023-12-04T07:48:59Z,64881.815,System,maongozi,s,chokochoko,nuksani,mitaani,NA,NA,NA,NULL,NA,NA,NA,NA,NA,NA,NA,NA,NA,NA,NA,NA,NA,NA,NA,NA,NA,NA,NA
043c4,task,flow.Sequence,1_3,NA,NA,completion,9062.554,55806.799999982,55802.595,55810.928,64873.482,64876,2023-12-04T07:48:59Z,64881.815,System,maongozi,s,chokochoko,nuksani,mitaani,NA,NA,NA,NULL,NA,NA,NA,NA,NA,NA,NA,NA,NA,NA,NA,NA,NA,NA,NA,NA,NA,NA,NA
043c4,Deep Question,html.Page,1_4_0_0,NA,NA,form submission,26836.884999988,64876.199999988,64873.482,64881.815,91718.699999988,91718.900000006,2023-12-04T07:49:26Z,91723.278,Gefährdung,kuhatarisha,d,uchokozi,udhaifu,makorowezo,tulubu,NA,NA,NULL,NA,NA,NA,NA,NA,NA,NA,NA,NA,NA,NA,NA,NA,NA,NA,NA,NA,NA,NA
043c4,Save data screen,canvas.Screen,1_4_0_1,NA,NA,timeout,499.98,91721.199999988,91714.945,91723.278,92214.925,92217.5,2023-12-04T07:49:27Z,92223.258,Gefährdung,kuhatarisha,d,uchokozi,udhaifu,makorowezo,NA,NA,0,NULL,NA,NA,NA,NA,NA,NA,NA,NA,NA,NA,NA,NA,NA,NA,NA,NA,NA,NA,NA
043c4,deep,flow.Sequence,1_4_0,NA,NA,completion,27333.11,64876.099999994,64873.482,64881.815,92214.925,92217.799999982,2023-12-04T07:49:27Z,92223.258,Gefährdung,kuhatarisha,d,uchokozi,udhaifu,makorowezo,NA,NA,NA,NULL,NA,NA,NA,NA,NA,NA,NA,NA,NA,NA,NA,NA,NA,NA,NA,NA,NA,NA,NA
043c4,task,flow.Sequence,1_4,NA,NA,completion,27333.11,64876.099999994,64873.482,64881.815,92214.925,92218,2023-12-04T07:49:27Z,92223.258,Gefährdung,kuhatarisha,d,uchokozi,udhaifu,makorowezo,NA,NA,NA,NULL,NA,NA,NA,NA,NA,NA,NA,NA,NA,NA,NA,NA,NA,NA,NA,NA,NA,NA,NA
043c4,Deep Question,html.Page,1_5_0_0,NA,NA,form submission,9414.841999994,92218,92214.925,92223.258,101638.09999999,101638.5,2023-12-04T07:49:36Z,101639.963,Übersicht,kilindo,d,mgusano,chipukizi,kulinganisha,f,NA,NA,NULL,NA,NA,NA,NA,NA,NA,NA,NA,NA,NA,NA,NA,NA,NA,NA,NA,NA,NA,NA
043c4,Save data screen,canvas.Screen,1_5_0_1,NA,NA,timeout,499.98,101640.69999999,101631.63,101639.963,102131.61,102134.29999998,2023-12-04T07:49:36Z,102139.943,Übersicht,kilindo,d,mgusano,chipukizi,kulinganisha,NA,NA,0,NULL,NA,NA,NA,NA,NA,NA,NA,NA,NA,NA,NA,NA,NA,NA,NA,NA,NA,NA,NA
043c4,deep,flow.Sequence,1_5_0,NA,NA,completion,9908.352,92218,92214.925,92223.258,102131.61,102134.59999999,2023-12-04T07:49:36Z,102139.943,Übersicht,kilindo,d,mgusano,chipukizi,kulinganisha,NA,NA,NA,NULL,NA,NA,NA,NA,NA,NA,NA,NA,NA,NA,NA,NA,NA,NA,NA,NA,NA,NA,NA
043c4,task,flow.Sequence,1_5,NA,NA,completion,9908.352,92218,92214.925,92223.258,102131.61,102134.59999999,2023-12-04T07:49:36Z,102139.943,Übersicht,kilindo,d,mgusano,chipukizi,kulinganisha,NA,NA,NA,NULL,NA,NA,NA,NA,NA,NA,NA,NA,NA,NA,NA,NA,NA,NA,NA,NA,NA,NA,NA
043c4,Deep Question,html.Page,1_6_0_0,NA,NA,form submission,10080.957000006,102134.69999999,102131.61,102139.943,112220.90000001,112221.40000001,2023-12-04T07:49:47Z,112227.48,Körper,kiwiliwili,d,mapambano,mpatanishi,kiolezo,f,NA,NA,NULL,NA,NA,NA,NA,NA,NA,NA,NA,NA,NA,NA,NA,NA,NA,NA,NA,NA,NA,NA
043c4,Save data screen,canvas.Screen,1_6_0_1,NA,NA,timeout,499.98000000001,112224.29999998,112219.147,112227.48,112719.127,112722.59999999,2023-12-04T07:49:47Z,112727.46,Körper,kiwiliwili,d,mapambano,mpatanishi,kiolezo,NA,NA,0,NULL,NA,NA,NA,NA,NA,NA,NA,NA,NA,NA,NA,NA,NA,NA,NA,NA,NA,NA,NA
043c4,deep,flow.Sequence,1_6_0,NA,NA,completion,10579.184,102134.69999999,102131.61,102139.943,112719.127,112723,2023-12-04T07:49:47Z,112727.46,Körper,kiwiliwili,d,mapambano,mpatanishi,kiolezo,NA,NA,NA,NULL,NA,NA,NA,NA,NA,NA,NA,NA,NA,NA,NA,NA,NA,NA,NA,NA,NA,NA,NA
043c4,task,flow.Sequence,1_6,NA,NA,completion,10579.184,102134.69999999,102131.61,102139.943,112719.127,112723.19999999,2023-12-04T07:49:47Z,112727.46,Körper,kiwiliwili,d,mapambano,mpatanishi,kiolezo,NA,NA,NA,NULL,NA,NA,NA,NA,NA,NA,NA,NA,NA,NA,NA,NA,NA,NA,NA,NA,NA,NA,NA
043c4,Deep Question,html.Page,1_7_0_0,NA,NA,form submission,5858.54,112723.29999998,112719.127,112727.46,118586,118586.19999999,2023-12-04T07:49:53Z,118590.161,Kreativität,ubunifu,s,mratibu,mwendelezo,makubaliano,f,NA,NA,NULL,NA,NA,NA,NA,NA,NA,NA,NA,NA,NA,NA,NA,NA,NA,NA,NA,NA,NA,NA
043c4,Save data screen,canvas.Screen,1_7_0_1,NA,NA,timeout,499.98000000001,118588.19999999,118581.828,118590.161,119081.808,119085.59999999,2023-12-04T07:49:53Z,119090.141,Kreativität,ubunifu,s,mratibu,mwendelezo,makubaliano,NA,NA,0,NULL,NA,NA,NA,NA,NA,NA,NA,NA,NA,NA,NA,NA,NA,NA,NA,NA,NA,NA,NA
043c4,deep,flow.Sequence,1_7_0,NA,NA,completion,6354.348,112723.19999999,112719.127,112727.46,119081.808,119086.19999999,2023-12-04T07:49:53Z,119090.141,Kreativität,ubunifu,s,mratibu,mwendelezo,makubaliano,NA,NA,NA,NULL,NA,NA,NA,NA,NA,NA,NA,NA,NA,NA,NA,NA,NA,NA,NA,NA,NA,NA,NA
043c4,task,flow.Sequence,1_7,NA,NA,completion,6354.348,112723.19999999,112719.127,112727.46,119081.808,119086.5,2023-12-04T07:49:53Z,119090.141,Kreativität,ubunifu,s,mratibu,mwendelezo,makubaliano,NA,NA,NA,NULL,NA,NA,NA,NA,NA,NA,NA,NA,NA,NA,NA,NA,NA,NA,NA,NA,NA,NA,NA
043c4,Deep Question,html.Page,1_8_0_0,NA,NA,form submission,1883.458999994,119086.69999999,119081.808,119090.141,120973.59999999,120974,2023-12-04T07:49:55Z,120973.399,Sänger,mwimbaji,s,msichana,shughuli,mshirika,f,NA,NA,NULL,NA,NA,NA,NA,NA,NA,NA,NA,NA,NA,NA,NA,NA,NA,NA,NA,NA,NA,NA
043c4,Save data screen,canvas.Screen,1_8_0_1,NA,NA,timeout,499.98,120975,120965.066,120973.399,121465.046,121468.19999999,2023-12-04T07:49:56Z,121473.379,Sänger,mwimbaji,s,msichana,shughuli,mshirika,NA,NA,0,NULL,NA,NA,NA,NA,NA,NA,NA,NA,NA,NA,NA,NA,NA,NA,NA,NA,NA,NA,NA
043c4,deep,flow.Sequence,1_8_0,NA,NA,completion,2374.905,119086.69999999,119081.808,119090.141,121465.046,121468.69999999,2023-12-04T07:49:56Z,121473.379,Sänger,mwimbaji,s,msichana,shughuli,mshirika,NA,NA,NA,NULL,NA,NA,NA,NA,NA,NA,NA,NA,NA,NA,NA,NA,NA,NA,NA,NA,NA,NA,NA
043c4,task,flow.Sequence,1_8,NA,NA,completion,2374.905,119086.59999999,119081.808,119090.141,121465.046,121468.90000001,2023-12-04T07:49:56Z,121473.379,Sänger,mwimbaji,s,msichana,shughuli,mshirika,NA,NA,NA,NULL,NA,NA,NA,NA,NA,NA,NA,NA,NA,NA,NA,NA,NA,NA,NA,NA,NA,NA,NA
043c4,Deep Question,html.Page,1_9_0_0,NA,NA,form submission,2682.621,121469.09999999,121465.046,121473.379,124156,124156.29999998,2023-12-04T07:49:59Z,124161.177,Aufstand,ugomaji,s,mazidio,msingi,kujieleza,f,NA,NA,NULL,NA,NA,NA,NA,NA,NA,NA,NA,NA,NA,NA,NA,NA,NA,NA,NA,NA,NA,NA
043c4,Save data screen,canvas.Screen,1_9_0_1,NA,NA,timeout,499.98000000001,124157.09999999,124152.844,124161.177,124652.824,124654.79999998,2023-12-04T07:49:59Z,124661.157,Aufstand,ugomaji,s,mazidio,msingi,kujieleza,NA,NA,0,NULL,NA,NA,NA,NA,NA,NA,NA,NA,NA,NA,NA,NA,NA,NA,NA,NA,NA,NA,NA
043c4,deep,flow.Sequence,1_9_0,NA,NA,completion,3179.445,121469,121465.046,121473.379,124652.824,124655,2023-12-04T07:49:59Z,124661.157,Aufstand,ugomaji,s,mazidio,msingi,kujieleza,NA,NA,NA,NULL,NA,NA,NA,NA,NA,NA,NA,NA,NA,NA,NA,NA,NA,NA,NA,NA,NA,NA,NA
043c4,task,flow.Sequence,1_9,NA,NA,completion,3179.445,121469,121465.046,121473.379,124652.824,124655.19999999,2023-12-04T07:49:59Z,124661.157,Aufstand,ugomaji,s,mazidio,msingi,kujieleza,NA,NA,NA,NULL,NA,NA,NA,NA,NA,NA,NA,NA,NA,NA,NA,NA,NA,NA,NA,NA,NA,NA,NA
043c4,Deep Question,html.Page,1_10_0_0,NA,NA,form submission,8134.0429999881,124655.5,124652.824,124661.157,132795.19999999,132795.69999999,2023-12-04T07:50:07Z,132802.498,Kultur,utamaduni,d,shetani,gerezani,mazingira,d,NA,NA,NULL,NA,NA,NA,NA,NA,NA,NA,NA,NA,NA,NA,NA,NA,NA,NA,NA,NA,NA,NA
043c4,Save data screen,canvas.Screen,1_10_0_1,NA,NA,timeout,499.98000000001,132797.90000001,132794.165,132802.498,133294.145,133297.69999999,2023-12-04T07:50:08Z,133302.478,Kultur,utamaduni,d,shetani,gerezani,mazingira,NA,NA,0,NULL,NA,NA,NA,NA,NA,NA,NA,NA,NA,NA,NA,NA,NA,NA,NA,NA,NA,NA,NA
043c4,deep,flow.Sequence,1_10_0,NA,NA,completion,8632.988,124655.40000001,124652.824,124661.157,133294.145,133298,2023-12-04T07:50:08Z,133302.478,Kultur,utamaduni,d,shetani,gerezani,mazingira,NA,NA,NA,NULL,NA,NA,NA,NA,NA,NA,NA,NA,NA,NA,NA,NA,NA,NA,NA,NA,NA,NA,NA
043c4,task,flow.Sequence,1_10,NA,NA,completion,8632.988,124655.29999998,124652.824,124661.157,133294.145,133298.09999999,2023-12-04T07:50:08Z,133302.478,Kultur,utamaduni,d,shetani,gerezani,mazingira,NA,NA,NA,NULL,NA,NA,NA,NA,NA,NA,NA,NA,NA,NA,NA,NA,NA,NA,NA,NA,NA,NA,NA
043c4,Deep Question,html.Page,1_11_0_0,NA,NA,form submission,1339.7219999881,133298.29999998,133294.145,133302.478,134642.19999999,134642.5,2023-12-04T07:50:09Z,134644.531,Prüfung,mtihani,s,mkulima,mtizamo,ufumbuzi,f,NA,NA,NULL,NA,NA,NA,NA,NA,NA,NA,NA,NA,NA,NA,NA,NA,NA,NA,NA,NA,NA,NA
043c4,Save data screen,canvas.Screen,1_11_0_1,NA,NA,timeout,499.98000000001,134643.29999998,134636.198,134644.531,135136.178,135139.29999998,2023-12-04T07:50:09Z,135144.511,Prüfung,mtihani,s,mkulima,mtizamo,ufumbuzi,NA,NA,0,NULL,NA,NA,NA,NA,NA,NA,NA,NA,NA,NA,NA,NA,NA,NA,NA,NA,NA,NA,NA
043c4,deep,flow.Sequence,1_11_0,NA,NA,completion,1833.7,133298.19999999,133294.145,133302.478,135136.178,135139.79999998,2023-12-04T07:50:09Z,135144.511,Prüfung,mtihani,s,mkulima,mtizamo,ufumbuzi,NA,NA,NA,NULL,NA,NA,NA,NA,NA,NA,NA,NA,NA,NA,NA,NA,NA,NA,NA,NA,NA,NA,NA
043c4,task,flow.Sequence,1_11,NA,NA,completion,1833.7,133298.09999999,133294.145,133302.478,135136.178,135139.79999998,2023-12-04T07:50:09Z,135144.511,Prüfung,mtihani,s,mkulima,mtizamo,ufumbuzi,NA,NA,NA,NULL,NA,NA,NA,NA,NA,NA,NA,NA,NA,NA,NA,NA,NA,NA,NA,NA,NA,NA,NA
043c4,Deep Question,html.Page,1_12_0_0,NA,NA,form submission,3614.088999994,135140.09999999,135136.178,135144.511,138758.59999999,138759.09999999,2023-12-04T07:50:13Z,138761.033,Abrechnung,uhasibu,d,kusahihisha,mpambano,mashambulizi,f,NA,NA,NULL,NA,NA,NA,NA,NA,NA,NA,NA,NA,NA,NA,NA,NA,NA,NA,NA,NA,NA,NA
043c4,Save data screen,canvas.Screen,1_12_0_1,NA,NA,timeout,499.98000000001,138761.19999999,138752.7,138761.033,139252.68,139255.19999999,2023-12-04T07:50:14Z,139261.013,Abrechnung,uhasibu,d,kusahihisha,mpambano,mashambulizi,NA,NA,0,NULL,NA,NA,NA,NA,NA,NA,NA,NA,NA,NA,NA,NA,NA,NA,NA,NA,NA,NA,NA
043c4,deep,flow.Sequence,1_12_0,NA,NA,completion,4108.169,135140.09999999,135136.178,135144.511,139252.68,139255.5,2023-12-04T07:50:14Z,139261.013,Abrechnung,uhasibu,d,kusahihisha,mpambano,mashambulizi,NA,NA,NA,NULL,NA,NA,NA,NA,NA,NA,NA,NA,NA,NA,NA,NA,NA,NA,NA,NA,NA,NA,NA
043c4,task,flow.Sequence,1_12,NA,NA,completion,4108.169,135140,135136.178,135144.511,139252.68,139255.59999999,2023-12-04T07:50:14Z,139261.013,Abrechnung,uhasibu,d,kusahihisha,mpambano,mashambulizi,NA,NA,NA,NULL,NA,NA,NA,NA,NA,NA,NA,NA,NA,NA,NA,NA,NA,NA,NA,NA,NA,NA,NA
043c4,Deep Question,html.Page,1_13_0_0,NA,NA,form submission,1639.1869999881,139255.69999999,139252.68,139261.013,140900.19999999,140900.5,2023-12-04T07:50:15Z,140902.614,Kontrolle,kudhibiti,d,mbinguni,kufunga,utegemezi,f,NA,NA,NULL,NA,NA,NA,NA,NA,NA,NA,NA,NA,NA,NA,NA,NA,NA,NA,NA,NA,NA,NA
043c4,Save data screen,canvas.Screen,1_13_0_1,NA,NA,timeout,499.98000000001,140903.29999998,140894.281,140902.614,141394.261,141397,2023-12-04T07:50:16Z,141402.594,Kontrolle,kudhibiti,d,mbinguni,kufunga,utegemezi,NA,NA,0,NULL,NA,NA,NA,NA,NA,NA,NA,NA,NA,NA,NA,NA,NA,NA,NA,NA,NA,NA,NA
043c4,deep,flow.Sequence,1_13_0,NA,NA,completion,2133.248,139255.69999999,139252.68,139261.013,141394.261,141397.29999998,2023-12-04T07:50:16Z,141402.594,Kontrolle,kudhibiti,d,mbinguni,kufunga,utegemezi,NA,NA,NA,NULL,NA,NA,NA,NA,NA,NA,NA,NA,NA,NA,NA,NA,NA,NA,NA,NA,NA,NA,NA
043c4,task,flow.Sequence,1_13,NA,NA,completion,2133.248,139255.59999999,139252.68,139261.013,141394.261,141397.5,2023-12-04T07:50:16Z,141402.594,Kontrolle,kudhibiti,d,mbinguni,kufunga,utegemezi,NA,NA,NA,NULL,NA,NA,NA,NA,NA,NA,NA,NA,NA,NA,NA,NA,NA,NA,NA,NA,NA,NA,NA
043c4,Deep Question,html.Page,1_14_0_0,NA,NA,form submission,1564.505999994,141397.69999999,141394.261,141402.594,142967.09999999,142967.40000001,2023-12-04T07:50:17Z,142969.198,Verzögerung,kuchelewa,d,mwakilishi,mwanauchumi,jaribio,f,NA,NA,NULL,NA,NA,NA,NA,NA,NA,NA,NA,NA,NA,NA,NA,NA,NA,NA,NA,NA,NA,NA
043c4,Save data screen,canvas.Screen,1_14_0_1,NA,NA,timeout,499.98000000001,142968.5,142960.865,142969.198,143460.845,143463.40000001,2023-12-04T07:50:18Z,143469.178,Verzögerung,kuchelewa,d,mwakilishi,mwanauchumi,jaribio,NA,NA,0,NULL,NA,NA,NA,NA,NA,NA,NA,NA,NA,NA,NA,NA,NA,NA,NA,NA,NA,NA,NA
043c4,deep,flow.Sequence,1_14_0,NA,NA,completion,2058.251,141397.69999999,141394.261,141402.594,143460.845,143463.69999999,2023-12-04T07:50:18Z,143469.178,Verzögerung,kuchelewa,d,mwakilishi,mwanauchumi,jaribio,NA,NA,NA,NULL,NA,NA,NA,NA,NA,NA,NA,NA,NA,NA,NA,NA,NA,NA,NA,NA,NA,NA,NA
043c4,task,flow.Sequence,1_14,NA,NA,completion,2058.251,141397.59999999,141394.261,141402.594,143460.845,143463.69999999,2023-12-04T07:50:18Z,143469.178,Verzögerung,kuchelewa,d,mwakilishi,mwanauchumi,jaribio,NA,NA,NA,NULL,NA,NA,NA,NA,NA,NA,NA,NA,NA,NA,NA,NA,NA,NA,NA,NA,NA,NA,NA
043c4,Deep Question,html.Page,1_15_0_0,NA,NA,form submission,1462.0219999881,143463.90000001,143460.845,143469.178,144931.19999999,144931.59999999,2023-12-04T07:50:19Z,144936.21,Können,unaweza,s,kiongozi,bustani,mienendo,f,NA,NA,NULL,NA,NA,NA,NA,NA,NA,NA,NA,NA,NA,NA,NA,NA,NA,NA,NA,NA,NA,NA
043c4,Save data screen,canvas.Screen,1_15_0_1,NA,NA,timeout,499.98000000001,144932.5,144927.877,144936.21,145427.857,145430.69999999,2023-12-04T07:50:20Z,145436.19,Können,unaweza,s,kiongozi,bustani,mienendo,NA,NA,0,NULL,NA,NA,NA,NA,NA,NA,NA,NA,NA,NA,NA,NA,NA,NA,NA,NA,NA,NA,NA
043c4,deep,flow.Sequence,1_15_0,NA,NA,completion,1958.679,143463.79999998,143460.845,143469.178,145427.857,145430.79999998,2023-12-04T07:50:20Z,145436.19,Können,unaweza,s,kiongozi,bustani,mienendo,NA,NA,NA,NULL,NA,NA,NA,NA,NA,NA,NA,NA,NA,NA,NA,NA,NA,NA,NA,NA,NA,NA,NA
043c4,task,flow.Sequence,1_15,NA,NA,completion,1958.679,143463.79999998,143460.845,143469.178,145427.857,145431,2023-12-04T07:50:20Z,145436.19,Können,unaweza,s,kiongozi,bustani,mienendo,NA,NA,NA,NULL,NA,NA,NA,NA,NA,NA,NA,NA,NA,NA,NA,NA,NA,NA,NA,NA,NA,NA,NA
043c4,retrieval block 1 (cued recall),flow.Loop,1,NA,NA,completion,133062.756,12360.900000006,12356.768,12365.101,145427.857,145431.19999999,2023-12-04T07:50:20Z,145436.19,NA,NA,NA,NA,NA,NA,NA,NA,NA,NULL,NA,NA,NA,NA,NA,NA,NA,NA,NA,NA,NA,NA,NA,NA,NA,NA,NA,NA,NA
043c4,Shallow Question,html.Page,2_0_0_0,NA,NA,form submission,11392.509999988,145431.29999998,145427.857,145436.19,156828.69999999,156829,2023-12-04T07:50:31Z,156831.991,Kanzler,diwani,d,rasilmali,mahitaji,maabudu,diwani,NA,NA,"c(""distractor1"", ""distractor2"", ""distractor3"")",NA,NA,NA,NA,NA,NA,NA,NA,NA,NA,NA,NA,NA,NA,NA,NA,NA,NA,NA
043c4,Save data screen,canvas.Screen,2_0_0_1,NA,NA,timeout,499.97999999998,156831.09999999,156823.658,156831.991,157323.638,157327.19999999,2023-12-04T07:50:32Z,157331.971,Kanzler,diwani,d,rasilmali,mahitaji,maabudu,NA,NA,1,"c(""distractor1"", ""distractor2"", ""distractor3"")",NA,NA,NA,NA,NA,NA,NA,NA,NA,NA,NA,NA,NA,NA,NA,NA,NA,NA,NA
043c4,shallow,flow.Sequence,2_0_0,NA,NA,completion,11887.448,145431.29999998,145427.857,145436.19,157323.638,157327.69999999,2023-12-04T07:50:32Z,157331.971,Kanzler,diwani,d,rasilmali,mahitaji,maabudu,NA,NA,NA,"c(""distractor1"", ""distractor2"", ""distractor3"")",NA,NA,NA,NA,NA,NA,NA,NA,NA,NA,NA,NA,NA,NA,NA,NA,NA,NA,NA
043c4,task,flow.Sequence,2_0,NA,NA,completion,11887.448,145431.29999998,145427.857,145436.19,157323.638,157328.19999999,2023-12-04T07:50:32Z,157331.971,Kanzler,diwani,d,rasilmali,mahitaji,maabudu,NA,NA,NA,"c(""distractor1"", ""distractor2"", ""distractor3"")",NA,NA,NA,NA,NA,NA,NA,NA,NA,NA,NA,NA,NA,NA,NA,NA,NA,NA,NA
043c4,Shallow Question,html.Page,2_1_0_0,NA,NA,form submission,6800.3289999821,157328.5,157323.638,157331.971,164132.29999998,164132.59999999,2023-12-04T07:50:38Z,164131.699,Aufstand,ugomaji,s,mazidio,msingi,kujieleza,ugomaji,NA,NA,"c(""distractor1"", ""distractor2"", ""distractor3"")",NA,NA,NA,NA,NA,NA,NA,NA,NA,NA,NA,NA,NA,NA,NA,NA,NA,NA,NA
043c4,Save data screen,canvas.Screen,2_1_0_1,NA,NA,timeout,496.231,164135.29999998,164123.366,164131.699,164619.597,164623.5,2023-12-04T07:50:39Z,164627.93,Aufstand,ugomaji,s,mazidio,msingi,kujieleza,NA,NA,1,"c(""distractor1"", ""distractor2"", ""distractor3"")",NA,NA,NA,NA,NA,NA,NA,NA,NA,NA,NA,NA,NA,NA,NA,NA,NA,NA,NA
043c4,shallow,flow.Sequence,2_1_0,NA,NA,completion,7287.626,157328.40000001,157323.638,157331.971,164619.597,164624,2023-12-04T07:50:39Z,164627.93,Aufstand,ugomaji,s,mazidio,msingi,kujieleza,NA,NA,NA,"c(""distractor1"", ""distractor2"", ""distractor3"")",NA,NA,NA,NA,NA,NA,NA,NA,NA,NA,NA,NA,NA,NA,NA,NA,NA,NA,NA
043c4,task,flow.Sequence,2_1,NA,NA,completion,7287.626,157328.40000001,157323.638,157331.971,164619.597,164624.09999999,2023-12-04T07:50:39Z,164627.93,Aufstand,ugomaji,s,mazidio,msingi,kujieleza,NA,NA,NA,"c(""distractor1"", ""distractor2"", ""distractor3"")",NA,NA,NA,NA,NA,NA,NA,NA,NA,NA,NA,NA,NA,NA,NA,NA,NA,NA,NA
043c4,Shallow Question,html.Page,2_2_0_0,NA,NA,form submission,8798.169999994,164624.40000001,164619.597,164627.93,173426.09999999,173426.29999998,2023-12-04T07:50:48Z,173427.578,Angreifer,mshambulizi,s,kitengo,tasinia,usafirishaji,mshambulizi,NA,NA,"c(""distractor1"", ""distractor2"", ""distractor3"")",NA,NA,NA,NA,NA,NA,NA,NA,NA,NA,NA,NA,NA,NA,NA,NA,NA,NA,NA
043c4,Save data screen,canvas.Screen,2_2_0_1,NA,NA,timeout,499.97999999998,173428,173419.245,173427.578,173919.225,173922.59999999,2023-12-04T07:50:48Z,173927.558,Angreifer,mshambulizi,s,kitengo,tasinia,usafirishaji,NA,NA,1,"c(""distractor1"", ""distractor2"", ""distractor3"")",NA,NA,NA,NA,NA,NA,NA,NA,NA,NA,NA,NA,NA,NA,NA,NA,NA,NA,NA
043c4,shallow,flow.Sequence,2_2_0,NA,NA,completion,9291.295,164624.29999998,164619.597,164627.93,173919.225,173923,2023-12-04T07:50:48Z,173927.558,Angreifer,mshambulizi,s,kitengo,tasinia,usafirishaji,NA,NA,NA,"c(""distractor1"", ""distractor2"", ""distractor3"")",NA,NA,NA,NA,NA,NA,NA,NA,NA,NA,NA,NA,NA,NA,NA,NA,NA,NA,NA
043c4,task,flow.Sequence,2_2,NA,NA,completion,9291.295,164624.29999998,164619.597,164627.93,173919.225,173923.09999999,2023-12-04T07:50:48Z,173927.558,Angreifer,mshambulizi,s,kitengo,tasinia,usafirishaji,NA,NA,NA,"c(""distractor1"", ""distractor2"", ""distractor3"")",NA,NA,NA,NA,NA,NA,NA,NA,NA,NA,NA,NA,NA,NA,NA,NA,NA,NA,NA
043c4,Shallow Question,html.Page,2_3_0_0,NA,NA,form submission,4782.842000006,173923.40000001,173919.225,173927.558,178710.40000001,178710.90000001,2023-12-04T07:50:53Z,178715.35,Verzögerung,kuchelewa,d,mwakilishi,mwanauchumi,jaribio,kuchelewa,NA,NA,"c(""distractor1"", ""distractor2"", ""distractor3"")",NA,NA,NA,NA,NA,NA,NA,NA,NA,NA,NA,NA,NA,NA,NA,NA,NA,NA,NA
043c4,Save data screen,canvas.Screen,2_3_0_1,NA,NA,timeout,499.97999999998,178713.79999998,178707.017,178715.35,179206.997,179208.29999998,2023-12-04T07:50:54Z,179215.33,Verzögerung,kuchelewa,d,mwakilishi,mwanauchumi,jaribio,NA,NA,1,"c(""distractor1"", ""distractor2"", ""distractor3"")",NA,NA,NA,NA,NA,NA,NA,NA,NA,NA,NA,NA,NA,NA,NA,NA,NA,NA,NA
043c4,shallow,flow.Sequence,2_3_0,NA,NA,completion,5279.439,173923.40000001,173919.225,173927.558,179206.997,179208.69999999,2023-12-04T07:50:54Z,179215.33,Verzögerung,kuchelewa,d,mwakilishi,mwanauchumi,jaribio,NA,NA,NA,"c(""distractor1"", ""distractor2"", ""distractor3"")",NA,NA,NA,NA,NA,NA,NA,NA,NA,NA,NA,NA,NA,NA,NA,NA,NA,NA,NA
043c4,task,flow.Sequence,2_3,NA,NA,completion,5279.439,173923.40000001,173919.225,173927.558,179206.997,179208.90000001,2023-12-04T07:50:54Z,179215.33,Verzögerung,kuchelewa,d,mwakilishi,mwanauchumi,jaribio,NA,NA,NA,"c(""distractor1"", ""distractor2"", ""distractor3"")",NA,NA,NA,NA,NA,NA,NA,NA,NA,NA,NA,NA,NA,NA,NA,NA,NA,NA,NA
043c4,Shallow Question,html.Page,2_4_0_0,NA,NA,form submission,13098.469999982,179209,179206.997,179215.33,192313.79999998,192313.90000001,2023-12-04T07:51:07Z,192315.396,Körper,kiwiliwili,d,mapambano,mpatanishi,kiolezo,kiwiliwili,NA,NA,"c(""distractor1"", ""distractor2"", ""distractor3"")",NA,NA,NA,NA,NA,NA,NA,NA,NA,NA,NA,NA,NA,NA,NA,NA,NA,NA,NA
043c4,Save data screen,canvas.Screen,2_4_0_1,NA,NA,timeout,499.97999999998,192315.19999999,192307.063,192315.396,192807.043,192808.69999999,2023-12-04T07:51:07Z,192815.376,Körper,kiwiliwili,d,mapambano,mpatanishi,kiolezo,NA,NA,1,"c(""distractor1"", ""distractor2"", ""distractor3"")",NA,NA,NA,NA,NA,NA,NA,NA,NA,NA,NA,NA,NA,NA,NA,NA,NA,NA,NA
043c4,shallow,flow.Sequence,2_4_0,NA,NA,completion,13591.713,179209,179206.997,179215.33,192807.043,192809,2023-12-04T07:51:07Z,192815.376,Körper,kiwiliwili,d,mapambano,mpatanishi,kiolezo,NA,NA,NA,"c(""distractor1"", ""distractor2"", ""distractor3"")",NA,NA,NA,NA,NA,NA,NA,NA,NA,NA,NA,NA,NA,NA,NA,NA,NA,NA,NA
043c4,task,flow.Sequence,2_4,NA,NA,completion,13591.713,179209,179206.997,179215.33,192807.043,192809.19999999,2023-12-04T07:51:07Z,192815.376,Körper,kiwiliwili,d,mapambano,mpatanishi,kiolezo,NA,NA,NA,"c(""distractor1"", ""distractor2"", ""distractor3"")",NA,NA,NA,NA,NA,NA,NA,NA,NA,NA,NA,NA,NA,NA,NA,NA,NA,NA,NA
043c4,Shallow Question,html.Page,2_5_0_0,NA,NA,form submission,10316.923999982,192809.79999998,192807.043,192815.376,203132.29999998,203132.59999999,2023-12-04T07:51:17Z,203136.258,Übersicht,kilindo,d,mgusano,chipukizi,kulinganisha,kilindo,NA,NA,"c(""distractor1"", ""distractor2"", ""distractor3"")",NA,NA,NA,NA,NA,NA,NA,NA,NA,NA,NA,NA,NA,NA,NA,NA,NA,NA,NA
043c4,Save data screen,canvas.Screen,2_5_0_1,NA,NA,timeout,499.98000000001,203134.79999998,203127.925,203136.258,203627.905,203631.29999998,2023-12-04T07:51:18Z,203636.238,Übersicht,kilindo,d,mgusano,chipukizi,kulinganisha,NA,NA,1,"c(""distractor1"", ""distractor2"", ""distractor3"")",NA,NA,NA,NA,NA,NA,NA,NA,NA,NA,NA,NA,NA,NA,NA,NA,NA,NA,NA
043c4,shallow,flow.Sequence,2_5_0,NA,NA,completion,10812.529,192809.79999998,192807.043,192815.376,203627.905,203631.59999999,2023-12-04T07:51:18Z,203636.238,Übersicht,kilindo,d,mgusano,chipukizi,kulinganisha,NA,NA,NA,"c(""distractor1"", ""distractor2"", ""distractor3"")",NA,NA,NA,NA,NA,NA,NA,NA,NA,NA,NA,NA,NA,NA,NA,NA,NA,NA,NA
043c4,task,flow.Sequence,2_5,NA,NA,completion,10812.529,192809.19999999,192807.043,192815.376,203627.905,203631.79999998,2023-12-04T07:51:18Z,203636.238,Übersicht,kilindo,d,mgusano,chipukizi,kulinganisha,NA,NA,NA,"c(""distractor1"", ""distractor2"", ""distractor3"")",NA,NA,NA,NA,NA,NA,NA,NA,NA,NA,NA,NA,NA,NA,NA,NA,NA,NA,NA
043c4,Shallow Question,html.Page,2_6_0_0,NA,NA,form submission,4744.5619999821,203632,203627.905,203636.238,208380.79999998,208381,2023-12-04T07:51:23Z,208386.048,Können,unaweza,s,kiongozi,bustani,mienendo,unaweza,NA,NA,"c(""distractor1"", ""distractor2"", ""distractor3"")",NA,NA,NA,NA,NA,NA,NA,NA,NA,NA,NA,NA,NA,NA,NA,NA,NA,NA,NA
043c4,Save data screen,canvas.Screen,2_6_0_1,NA,NA,timeout,499.97999999998,208382.79999998,208377.715,208386.048,208877.695,208880.5,2023-12-04T07:51:23Z,208886.028,Können,unaweza,s,kiongozi,bustani,mienendo,NA,NA,1,"c(""distractor1"", ""distractor2"", ""distractor3"")",NA,NA,NA,NA,NA,NA,NA,NA,NA,NA,NA,NA,NA,NA,NA,NA,NA,NA,NA
043c4,shallow,flow.Sequence,2_6_0,NA,NA,completion,5241.457,203631.90000001,203627.905,203636.238,208877.695,208881.19999999,2023-12-04T07:51:23Z,208886.028,Können,unaweza,s,kiongozi,bustani,mienendo,NA,NA,NA,"c(""distractor1"", ""distractor2"", ""distractor3"")",NA,NA,NA,NA,NA,NA,NA,NA,NA,NA,NA,NA,NA,NA,NA,NA,NA,NA,NA
043c4,task,flow.Sequence,2_6,NA,NA,completion,5241.457,203631.90000001,203627.905,203636.238,208877.695,208881.5,2023-12-04T07:51:23Z,208886.028,Können,unaweza,s,kiongozi,bustani,mienendo,NA,NA,NA,"c(""distractor1"", ""distractor2"", ""distractor3"")",NA,NA,NA,NA,NA,NA,NA,NA,NA,NA,NA,NA,NA,NA,NA,NA,NA,NA,NA
043c4,Shallow Question,html.Page,2_7_0_0,NA,NA,form submission,8866.571999994,208881.69999999,208877.695,208886.028,217752.59999999,217752.90000001,2023-12-04T07:51:32Z,217761.118,System,maongozi,s,chokochoko,nuksani,mitaani,maongozi,NA,NA,"c(""distractor1"", ""distractor2"", ""distractor3"")",NA,NA,NA,NA,NA,NA,NA,NA,NA,NA,NA,NA,NA,NA,NA,NA,NA,NA,NA
043c4,Save data screen,canvas.Screen,2_7_0_1,NA,NA,timeout,499.98000000001,217755.79999998,217744.452,217761.118,218252.765,218254.59999999,2023-12-04T07:51:33Z,218261.098,System,maongozi,s,chokochoko,nuksani,mitaani,NA,NA,1,"c(""distractor1"", ""distractor2"", ""distractor3"")",NA,NA,NA,NA,NA,NA,NA,NA,NA,NA,NA,NA,NA,NA,NA,NA,NA,NA,NA
043c4,shallow,flow.Sequence,2_7_0,NA,NA,completion,9366.737,208881.69999999,208877.695,208886.028,218252.765,218255,2023-12-04T07:51:33Z,218261.098,System,maongozi,s,chokochoko,nuksani,mitaani,NA,NA,NA,"c(""distractor1"", ""distractor2"", ""distractor3"")",NA,NA,NA,NA,NA,NA,NA,NA,NA,NA,NA,NA,NA,NA,NA,NA,NA,NA,NA
043c4,task,flow.Sequence,2_7,NA,NA,completion,9366.737,208881.59999999,208877.695,208886.028,218252.765,218255.29999998,2023-12-04T07:51:33Z,218261.098,System,maongozi,s,chokochoko,nuksani,mitaani,NA,NA,NA,"c(""distractor1"", ""distractor2"", ""distractor3"")",NA,NA,NA,NA,NA,NA,NA,NA,NA,NA,NA,NA,NA,NA,NA,NA,NA,NA,NA
043c4,Shallow Question,html.Page,2_8_0_0,NA,NA,form submission,4555.302000006,218255.5,218252.765,218261.098,222816.40000001,222816.59999999,2023-12-04T07:51:37Z,222819.249,Lawine,banguko,s,maambukizi,usuluhishi,chekechea,banguko,NA,NA,"c(""distractor1"", ""distractor2"", ""distractor3"")",NA,NA,NA,NA,NA,NA,NA,NA,NA,NA,NA,NA,NA,NA,NA,NA,NA,NA,NA
043c4,Save data screen,canvas.Screen,2_8_0_1,NA,NA,timeout,500.41099999999,222818.5,222810.916,222819.249,223311.327,223314.5,2023-12-04T07:51:38Z,223319.66,Lawine,banguko,s,maambukizi,usuluhishi,chekechea,NA,NA,1,"c(""distractor1"", ""distractor2"", ""distractor3"")",NA,NA,NA,NA,NA,NA,NA,NA,NA,NA,NA,NA,NA,NA,NA,NA,NA,NA,NA
043c4,shallow,flow.Sequence,2_8_0,NA,NA,completion,5050.229,218255.5,218252.765,218261.098,223311.327,223314.90000001,2023-12-04T07:51:38Z,223319.66,Lawine,banguko,s,maambukizi,usuluhishi,chekechea,NA,NA,NA,"c(""distractor1"", ""distractor2"", ""distractor3"")",NA,NA,NA,NA,NA,NA,NA,NA,NA,NA,NA,NA,NA,NA,NA,NA,NA,NA,NA
043c4,task,flow.Sequence,2_8,NA,NA,completion,5050.229,218255.5,218252.765,218261.098,223311.327,223315,2023-12-04T07:51:38Z,223319.66,Lawine,banguko,s,maambukizi,usuluhishi,chekechea,NA,NA,NA,"c(""distractor1"", ""distractor2"", ""distractor3"")",NA,NA,NA,NA,NA,NA,NA,NA,NA,NA,NA,NA,NA,NA,NA,NA,NA,NA,NA
043c4,Shallow Question,html.Page,2_9_0_0,NA,NA,form submission,6306.5399999881,223315.19999999,223311.327,223319.66,229626.19999999,229626.5,2023-12-04T07:51:44Z,229627.741,Abrechnung,uhasibu,d,kusahihisha,mpambano,mashambulizi,mpambano,NA,NA,"c(""distractor1"", ""distractor2"", ""distractor3"")",NA,NA,NA,NA,NA,NA,NA,NA,NA,NA,NA,NA,NA,NA,NA,NA,NA,NA,NA
043c4,Save data screen,canvas.Screen,2_9_0_1,NA,NA,timeout,499.97999999998,229628.40000001,229619.408,229627.741,230119.388,230121.29999998,2023-12-04T07:51:44Z,230127.721,Abrechnung,uhasibu,d,kusahihisha,mpambano,mashambulizi,NA,NA,0,"c(""distractor1"", ""distractor2"", ""distractor3"")",NA,NA,NA,NA,NA,NA,NA,NA,NA,NA,NA,NA,NA,NA,NA,NA,NA,NA,NA
043c4,shallow,flow.Sequence,2_9_0,NA,NA,completion,6799.728,223315.19999999,223311.327,223319.66,230119.388,230121.40000001,2023-12-04T07:51:44Z,230127.721,Abrechnung,uhasibu,d,kusahihisha,mpambano,mashambulizi,NA,NA,NA,"c(""distractor1"", ""distractor2"", ""distractor3"")",NA,NA,NA,NA,NA,NA,NA,NA,NA,NA,NA,NA,NA,NA,NA,NA,NA,NA,NA
043c4,task,flow.Sequence,2_9,NA,NA,completion,6799.728,223315.19999999,223311.327,223319.66,230119.388,230121.59999999,2023-12-04T07:51:44Z,230127.721,Abrechnung,uhasibu,d,kusahihisha,mpambano,mashambulizi,NA,NA,NA,"c(""distractor1"", ""distractor2"", ""distractor3"")",NA,NA,NA,NA,NA,NA,NA,NA,NA,NA,NA,NA,NA,NA,NA,NA,NA,NA,NA
043c4,Shallow Question,html.Page,2_10_0_0,NA,NA,form submission,10421.279,230121.69999999,230119.388,230127.721,240549,240549.40000001,2023-12-04T07:51:55Z,240548.577,Kultur,utamaduni,d,shetani,gerezani,mazingira,utamaduni,NA,NA,"c(""distractor1"", ""distractor2"", ""distractor3"")",NA,NA,NA,NA,NA,NA,NA,NA,NA,NA,NA,NA,NA,NA,NA,NA,NA,NA,NA
043c4,Save data screen,canvas.Screen,2_10_0_1,NA,NA,timeout,499.98000000001,240552.19999999,240540.244,240548.577,241040.224,241041.19999999,2023-12-04T07:51:55Z,241048.557,Kultur,utamaduni,d,shetani,gerezani,mazingira,NA,NA,1,"c(""distractor1"", ""distractor2"", ""distractor3"")",NA,NA,NA,NA,NA,NA,NA,NA,NA,NA,NA,NA,NA,NA,NA,NA,NA,NA,NA
043c4,shallow,flow.Sequence,2_10_0,NA,NA,completion,10912.503,230121.69999999,230119.388,230127.721,241040.224,241041.40000001,2023-12-04T07:51:55Z,241048.557,Kultur,utamaduni,d,shetani,gerezani,mazingira,NA,NA,NA,"c(""distractor1"", ""distractor2"", ""distractor3"")",NA,NA,NA,NA,NA,NA,NA,NA,NA,NA,NA,NA,NA,NA,NA,NA,NA,NA,NA
043c4,task,flow.Sequence,2_10,NA,NA,completion,10912.503,230121.59999999,230119.388,230127.721,241040.224,241041.59999999,2023-12-04T07:51:55Z,241048.557,Kultur,utamaduni,d,shetani,gerezani,mazingira,NA,NA,NA,"c(""distractor1"", ""distractor2"", ""distractor3"")",NA,NA,NA,NA,NA,NA,NA,NA,NA,NA,NA,NA,NA,NA,NA,NA,NA,NA,NA
043c4,Shallow Question,html.Page,2_11_0_0,NA,NA,form submission,7294.943,241041.69999999,241040.224,241048.557,248343.5,248343.90000001,2023-12-04T07:52:03Z,248344.569,Sänger,mwimbaji,s,msichana,shughuli,mshirika,mwimbaji,NA,NA,"c(""distractor1"", ""distractor2"", ""distractor3"")",NA,NA,NA,NA,NA,NA,NA,NA,NA,NA,NA,NA,NA,NA,NA,NA,NA,NA,NA
043c4,Save data screen,canvas.Screen,2_11_0_1,NA,NA,timeout,499.98000000001,248346.59999999,248336.236,248344.569,248836.216,248839.19999999,2023-12-04T07:52:03Z,248844.549,Sänger,mwimbaji,s,msichana,shughuli,mshirika,NA,NA,1,"c(""distractor1"", ""distractor2"", ""distractor3"")",NA,NA,NA,NA,NA,NA,NA,NA,NA,NA,NA,NA,NA,NA,NA,NA,NA,NA,NA
043c4,shallow,flow.Sequence,2_11_0,NA,NA,completion,7787.659,241041.59999999,241040.224,241048.557,248836.216,248839.59999999,2023-12-04T07:52:03Z,248844.549,Sänger,mwimbaji,s,msichana,shughuli,mshirika,NA,NA,NA,"c(""distractor1"", ""distractor2"", ""distractor3"")",NA,NA,NA,NA,NA,NA,NA,NA,NA,NA,NA,NA,NA,NA,NA,NA,NA,NA,NA
043c4,task,flow.Sequence,2_11,NA,NA,completion,7787.659,241041.59999999,241040.224,241048.557,248836.216,248839.69999999,2023-12-04T07:52:03Z,248844.549,Sänger,mwimbaji,s,msichana,shughuli,mshirika,NA,NA,NA,"c(""distractor1"", ""distractor2"", ""distractor3"")",NA,NA,NA,NA,NA,NA,NA,NA,NA,NA,NA,NA,NA,NA,NA,NA,NA,NA,NA
043c4,Shallow Question,html.Page,2_12_0_0,NA,NA,form submission,6314.1509999881,248839.79999998,248836.216,248844.549,255158.69999999,255159.40000001,2023-12-04T07:52:10Z,255160.963,Gefährdung,kuhatarisha,d,uchokozi,udhaifu,makorowezo,udhaifu,NA,NA,"c(""distractor1"", ""distractor2"", ""distractor3"")",NA,NA,NA,NA,NA,NA,NA,NA,NA,NA,NA,NA,NA,NA,NA,NA,NA,NA,NA
043c4,Save data screen,canvas.Screen,2_12_0_1,NA,NA,timeout,500.40600000002,255162.19999999,255152.63,255160.963,255653.036,255655.29999998,2023-12-04T07:52:10Z,255661.369,Gefährdung,kuhatarisha,d,uchokozi,udhaifu,makorowezo,NA,NA,0,"c(""distractor1"", ""distractor2"", ""distractor3"")",NA,NA,NA,NA,NA,NA,NA,NA,NA,NA,NA,NA,NA,NA,NA,NA,NA,NA,NA
043c4,shallow,flow.Sequence,2_12_0,NA,NA,completion,6808.487,248839.79999998,248836.216,248844.549,255653.036,255655.5,2023-12-04T07:52:10Z,255661.369,Gefährdung,kuhatarisha,d,uchokozi,udhaifu,makorowezo,NA,NA,NA,"c(""distractor1"", ""distractor2"", ""distractor3"")",NA,NA,NA,NA,NA,NA,NA,NA,NA,NA,NA,NA,NA,NA,NA,NA,NA,NA,NA
043c4,task,flow.Sequence,2_12,NA,NA,completion,6808.487,248839.79999998,248836.216,248844.549,255653.036,255655.59999999,2023-12-04T07:52:10Z,255661.369,Gefährdung,kuhatarisha,d,uchokozi,udhaifu,makorowezo,NA,NA,NA,"c(""distractor1"", ""distractor2"", ""distractor3"")",NA,NA,NA,NA,NA,NA,NA,NA,NA,NA,NA,NA,NA,NA,NA,NA,NA,NA,NA
043c4,Shallow Question,html.Page,2_13_0_0,NA,NA,form submission,9639.8309999881,255655.69999999,255653.036,255661.369,265301.19999999,265301.5,2023-12-04T07:52:20Z,265302.65,Kontrolle,kudhibiti,d,mbinguni,kufunga,utegemezi,kudhibiti,NA,NA,"c(""distractor1"", ""distractor2"", ""distractor3"")",NA,NA,NA,NA,NA,NA,NA,NA,NA,NA,NA,NA,NA,NA,NA,NA,NA,NA,NA
043c4,Save data screen,canvas.Screen,2_13_0_1,NA,NA,timeout,496.23099999997,265303.09999999,265294.317,265302.65,265790.548,265794.59999999,2023-12-04T07:52:20Z,265798.881,Kontrolle,kudhibiti,d,mbinguni,kufunga,utegemezi,NA,NA,1,"c(""distractor1"", ""distractor2"", ""distractor3"")",NA,NA,NA,NA,NA,NA,NA,NA,NA,NA,NA,NA,NA,NA,NA,NA,NA,NA,NA
043c4,shallow,flow.Sequence,2_13_0,NA,NA,completion,10129.179,255655.69999999,255653.036,255661.369,265790.548,265794.90000001,2023-12-04T07:52:20Z,265798.881,Kontrolle,kudhibiti,d,mbinguni,kufunga,utegemezi,NA,NA,NA,"c(""distractor1"", ""distractor2"", ""distractor3"")",NA,NA,NA,NA,NA,NA,NA,NA,NA,NA,NA,NA,NA,NA,NA,NA,NA,NA,NA
043c4,task,flow.Sequence,2_13,NA,NA,completion,10129.179,255655.59999999,255653.036,255661.369,265790.548,265795.09999999,2023-12-04T07:52:20Z,265798.881,Kontrolle,kudhibiti,d,mbinguni,kufunga,utegemezi,NA,NA,NA,"c(""distractor1"", ""distractor2"", ""distractor3"")",NA,NA,NA,NA,NA,NA,NA,NA,NA,NA,NA,NA,NA,NA,NA,NA,NA,NA,NA
043c4,Shallow Question,html.Page,2_14_0_0,NA,NA,form submission,4332.519000006,265795.40000001,265790.548,265798.881,270131.40000001,270131.69999999,2023-12-04T07:52:24Z,270132.041,Kreativität,ubunifu,s,mratibu,mwendelezo,makubaliano,ubunifu,NA,NA,"c(""distractor1"", ""distractor2"", ""distractor3"")",NA,NA,NA,NA,NA,NA,NA,NA,NA,NA,NA,NA,NA,NA,NA,NA,NA,NA,NA
043c4,Save data screen,canvas.Screen,2_14_0_1,NA,NA,timeout,499.97999999998,270134.40000001,270123.708,270132.041,270623.688,270627.29999998,2023-12-04T07:52:25Z,270632.021,Kreativität,ubunifu,s,mratibu,mwendelezo,makubaliano,NA,NA,1,"c(""distractor1"", ""distractor2"", ""distractor3"")",NA,NA,NA,NA,NA,NA,NA,NA,NA,NA,NA,NA,NA,NA,NA,NA,NA,NA,NA
043c4,shallow,flow.Sequence,2_14_0,NA,NA,completion,4824.807,265795.29999998,265790.548,265798.881,270623.688,270627.79999998,2023-12-04T07:52:25Z,270632.021,Kreativität,ubunifu,s,mratibu,mwendelezo,makubaliano,NA,NA,NA,"c(""distractor1"", ""distractor2"", ""distractor3"")",NA,NA,NA,NA,NA,NA,NA,NA,NA,NA,NA,NA,NA,NA,NA,NA,NA,NA,NA
043c4,task,flow.Sequence,2_14,NA,NA,completion,4824.807,265795.19999999,265790.548,265798.881,270623.688,270628,2023-12-04T07:52:25Z,270632.021,Kreativität,ubunifu,s,mratibu,mwendelezo,makubaliano,NA,NA,NA,"c(""distractor1"", ""distractor2"", ""distractor3"")",NA,NA,NA,NA,NA,NA,NA,NA,NA,NA,NA,NA,NA,NA,NA,NA,NA,NA,NA
043c4,Shallow Question,html.Page,2_15_0_0,NA,NA,form submission,5402.979,270628.19999999,270623.688,270632.021,276035,276035.19999999,2023-12-04T07:52:30Z,276040.138,Prüfung,mtihani,s,mkulima,mtizamo,ufumbuzi,mtihani,NA,NA,"c(""distractor1"", ""distractor2"", ""distractor3"")",NA,NA,NA,NA,NA,NA,NA,NA,NA,NA,NA,NA,NA,NA,NA,NA,NA,NA,NA
043c4,Save data screen,canvas.Screen,2_15_0_1,NA,NA,timeout,500.42500000005,276037.5,276031.805,276040.138,276532.23,276535.09999999,2023-12-04T07:52:31Z,276540.563,Prüfung,mtihani,s,mkulima,mtizamo,ufumbuzi,NA,NA,1,"c(""distractor1"", ""distractor2"", ""distractor3"")",NA,NA,NA,NA,NA,NA,NA,NA,NA,NA,NA,NA,NA,NA,NA,NA,NA,NA,NA
043c4,shallow,flow.Sequence,2_15_0,NA,NA,completion,5900.209,270628.19999999,270623.688,270632.021,276532.23,276535.19999999,2023-12-04T07:52:31Z,276540.563,Prüfung,mtihani,s,mkulima,mtizamo,ufumbuzi,NA,NA,NA,"c(""distractor1"", ""distractor2"", ""distractor3"")",NA,NA,NA,NA,NA,NA,NA,NA,NA,NA,NA,NA,NA,NA,NA,NA,NA,NA,NA
043c4,task,flow.Sequence,2_15,NA,NA,completion,5900.209,270628.19999999,270623.688,270632.021,276532.23,276535.40000001,2023-12-04T07:52:31Z,276540.563,Prüfung,mtihani,s,mkulima,mtizamo,ufumbuzi,NA,NA,NA,"c(""distractor1"", ""distractor2"", ""distractor3"")",NA,NA,NA,NA,NA,NA,NA,NA,NA,NA,NA,NA,NA,NA,NA,NA,NA,NA,NA
043c4,retrieval block 2 (multiple choice),flow.Loop,2,NA,NA,completion,131096.04,145431.29999998,145427.857,145436.19,276532.23,276535.40000001,2023-12-04T07:52:31Z,276540.563,NA,NA,NA,NA,NA,NA,NA,NA,NA,"c(""distractor1"", ""distractor2"", ""distractor3"")",NA,NA,NA,NA,NA,NA,NA,NA,NA,NA,NA,NA,NA,NA,NA,NA,NA,NA,NA
043c4,End,canvas.Screen,3,NA,keypress(Space),response,1495.036999994,276535.5,276532.23,276540.563,278035.59999999,278045.59999999,2023-12-04T07:52:32Z,278048.836,NA,NA,NA,NA,NA,NA,NA,NA,NA,NULL,NA,NA,NA,NA,NA,NA,NA,NA,NA,NA,NA,NA,NA,NA,NA,NA,NA,NA,NA
043c4,root,flow.Sequence,NA,NA,NA,completion,267170.43899999,10860,10815.163,10865.161,278035.59999999,278046,2023-12-04T07:52:32Z,278048.836,NA,NA,NA,NA,NA,NA,NA,NA,NA,NULL,NA,NA,NA,NA,NA,NA,NA,NA,NA,NA,NA,NA,NA,NA,NA,NA,NA,NA,NA
