observation,sender,sender_type,sender_id,response,response_action,ended_on,duration,time_run,time_render,time_show,time_end,time_commit,timestamp,time_switch,distractors,german,swahili,enc,distractor1,distractor2,distractor3,response_2,x,correct,x_2,url_vp,url_sess,meta_labjs_version,meta_location,meta_user_agent,meta_platform,meta_language,meta_locale,meta_time_zone,meta_timezone_offset,meta_screen_width,meta_screen_height,meta_scroll_width,meta_scroll_height,meta_window_inner_width,meta_window_inner_height,meta_device_pixel_ratio,meta_labjs_build_flavor,meta_labjs_build_commit
dbf40,Introduction general,canvas.Screen,0,weiter,keypress(q),response,48809.399,1476.400000006,1440.769,1474.101,50283.5,50313.599999994,2023-12-01T12:42:59Z,50319.614,NULL,NA,NA,NA,NA,NA,NA,NA,NA,NA,NA,132,3,20.2.4,https://neurocog.fernuni.ch/studies/vweber/encoding_immediate/index.html?vp=132&sess=3,"Mozilla/5.0 (Macintosh; Intel Mac OS X 10_15_7) AppleWebKit/537.36 (KHTML, like Gecko) Chrome/119.0.0.0 Safari/537.36",MacIntel,en-GB,en-GB,Europe/Zurich,-60,1728,1117,1728,814,1728,862,2,production,f5b4a49f956347addd546a832a3327688c2c0fef
dbf40,Introduction practice,canvas.Screen,1_0,NA,keypress(Space),response,4852.985999994,50313.900000006,50311.281,50319.614,55172.599999994,55180.200000018,2023-12-01T12:43:03Z,55186.086,NULL,NA,NA,NA,NA,NA,NA,NA,NA,NA,NA,NA,NA,NA,NA,NA,NA,NA,NA,NA,NA,NA,NA,NA,NA,NA,NA,NA,NA,NA
dbf40,deep,flow.Sequence,1_1_0_0,NA,NA,skipped,NA,55180.599999994,NA,NA,55172.599999994,55180.900000006,2023-12-01T12:43:03Z,55186.086,"c(""distractor1"", ""distractor2"", ""distractor3"")",Kritik,lawama,s,dereva,nafasi,mawazo,NA,NA,NA,NA,NA,NA,NA,NA,NA,NA,NA,NA,NA,NA,NA,NA,NA,NA,NA,NA,NA,NA,NA
dbf40,Shallow Question,html.Page,1_1_0_1_0,NA,NA,form submission,8463.1140000179,55181.099999994,55177.753,55186.086,63649.200000018,63649.599999994,2023-12-01T12:43:12Z,63653.216,"c(""distractor1"", ""distractor2"", ""distractor3"")",Kritik,lawama,s,dereva,nafasi,mawazo,nafasi,NA,NA,NA,NA,NA,NA,NA,NA,NA,NA,NA,NA,NA,NA,NA,NA,NA,NA,NA,NA,NA,NA
dbf40,"""Richtig""-Screen",canvas.Screen,1_1_0_1_1,NA,NA,skipped,NA,63651,NA,NA,63649.200000018,63651.099999994,2023-12-01T12:43:12Z,63653.216,"c(""distractor1"", ""distractor2"", ""distractor3"")",Kritik,lawama,s,dereva,nafasi,mawazo,NA,NA,NA,NA,NA,NA,NA,NA,NA,NA,NA,NA,NA,NA,NA,NA,NA,NA,NA,NA,NA,NA,NA
dbf40,"""Falsch""-Screen",canvas.Screen,1_1_0_1_2,NA,NA,timeout,4999.8,63651.800000012,63644.883,63653.216,68644.683,68650.400000006,2023-12-01T12:43:17Z,68653.016,"c(""distractor1"", ""distractor2"", ""distractor3"")",Kritik,lawama,s,dereva,nafasi,mawazo,NA,NA,0,NA,NA,NA,NA,NA,NA,NA,NA,NA,NA,NA,NA,NA,NA,NA,NA,NA,NA,NA,NA
dbf40,shallow,flow.Sequence,1_1_0_1,NA,NA,completion,13458.597,55181.099999994,55177.753,55186.086,68644.683,68651,2023-12-01T12:43:17Z,68653.016,"c(""distractor1"", ""distractor2"", ""distractor3"")",Kritik,lawama,s,dereva,nafasi,mawazo,NA,NA,NA,NA,NA,NA,NA,NA,NA,NA,NA,NA,NA,NA,NA,NA,NA,NA,NA,NA,NA,NA,NA
dbf40,task,flow.Sequence,1_1_0,NA,NA,completion,13458.597,55180.599999994,55177.753,55186.086,68644.683,68651.200000018,2023-12-01T12:43:17Z,68653.016,"c(""distractor1"", ""distractor2"", ""distractor3"")",Kritik,lawama,s,dereva,nafasi,mawazo,NA,NA,NA,NA,NA,NA,NA,NA,NA,NA,NA,NA,NA,NA,NA,NA,NA,NA,NA,NA,NA,NA,NA
dbf40,deep,flow.Sequence,1_1_1_0,NA,NA,skipped,NA,68651.400000006,NA,NA,68644.683,68651.400000006,2023-12-01T12:43:17Z,68653.016,"c(""distractor1"", ""distractor2"", ""distractor3"")",Rückhalt,msaada,s,muhula,auwali,kiwimbe,NA,NA,NA,NA,NA,NA,NA,NA,NA,NA,NA,NA,NA,NA,NA,NA,NA,NA,NA,NA,NA,NA,NA
dbf40,Shallow Question,html.Page,1_1_1_1_0,NA,NA,form submission,12494.784000012,68651.599999994,68644.683,68653.016,81147.800000012,81148.300000012,2023-12-01T12:43:29Z,81153.281,"c(""distractor1"", ""distractor2"", ""distractor3"")",Rückhalt,msaada,s,muhula,auwali,kiwimbe,msaada,NA,NA,NA,NA,NA,NA,NA,NA,NA,NA,NA,NA,NA,NA,NA,NA,NA,NA,NA,NA,NA,NA
dbf40,"""Richtig""-Screen",canvas.Screen,1_1_1_1_1,NA,NA,timeout,4999.8,81151.5,81144.948,81153.281,86144.748,86148.400000006,2023-12-01T12:43:34Z,86153.081,"c(""distractor1"", ""distractor2"", ""distractor3"")",Rückhalt,msaada,s,muhula,auwali,kiwimbe,NA,NA,1,NA,NA,NA,NA,NA,NA,NA,NA,NA,NA,NA,NA,NA,NA,NA,NA,NA,NA,NA,NA
dbf40,"""Falsch""-Screen",canvas.Screen,1_1_1_1_2,NA,NA,skipped,NA,86152.200000018,NA,NA,86144.748,86152.400000006,2023-12-01T12:43:34Z,86153.081,"c(""distractor1"", ""distractor2"", ""distractor3"")",Rückhalt,msaada,s,muhula,auwali,kiwimbe,NA,NA,NA,NA,NA,NA,NA,NA,NA,NA,NA,NA,NA,NA,NA,NA,NA,NA,NA,NA,NA,NA,NA
dbf40,shallow,flow.Sequence,1_1_1_1,NA,NA,completion,17491.732,68651.599999994,68644.683,68653.016,86144.748,86152.5,2023-12-01T12:43:34Z,86153.081,"c(""distractor1"", ""distractor2"", ""distractor3"")",Rückhalt,msaada,s,muhula,auwali,kiwimbe,NA,NA,NA,NA,NA,NA,NA,NA,NA,NA,NA,NA,NA,NA,NA,NA,NA,NA,NA,NA,NA,NA,NA
dbf40,task,flow.Sequence,1_1_1,NA,NA,completion,17491.732,68651.300000012,68644.683,68653.016,86144.748,86152.700000018,2023-12-01T12:43:34Z,86153.081,"c(""distractor1"", ""distractor2"", ""distractor3"")",Rückhalt,msaada,s,muhula,auwali,kiwimbe,NA,NA,NA,NA,NA,NA,NA,NA,NA,NA,NA,NA,NA,NA,NA,NA,NA,NA,NA,NA,NA,NA,NA
dbf40,Deep Question,html.Page,1_1_2_0_0,NA,NA,form submission,6457.419,86152.700000018,86144.748,86153.081,92610.5,92611.099999994,2023-12-01T12:43:41Z,92615.741,"c(""distractor1"", ""distractor2"", ""distractor3"")",Qualität,mtindo,d,NA,NA,NA,sdklfjslf,NA,NA,NA,NA,NA,NA,NA,NA,NA,NA,NA,NA,NA,NA,NA,NA,NA,NA,NA,NA,NA,NA
dbf40,"""Richtig""-Screen",canvas.Screen,1_1_2_0_1,NA,NA,skipped,NA,92614.300000012,NA,NA,92610.5,92614.400000006,2023-12-01T12:43:41Z,92615.741,"c(""distractor1"", ""distractor2"", ""distractor3"")",Qualität,mtindo,d,NA,NA,NA,NA,NA,NA,NA,NA,NA,NA,NA,NA,NA,NA,NA,NA,NA,NA,NA,NA,NA,NA,NA,NA,NA,NA
dbf40,"""Falsch""-Screen",canvas.Screen,1_1_2_0_2,NA,NA,timeout,4999.8,92615.300000012,92607.408,92615.741,97607.208,97609.900000006,2023-12-01T12:43:46Z,97615.541,"c(""distractor1"", ""distractor2"", ""distractor3"")",Qualität,mtindo,d,NA,NA,NA,NA,NA,0,NA,NA,NA,NA,NA,NA,NA,NA,NA,NA,NA,NA,NA,NA,NA,NA,NA,NA,NA,NA
dbf40,deep,flow.Sequence,1_1_2_0,NA,NA,completion,11454.127,86152.700000018,86144.748,86153.081,97607.208,97610.400000006,2023-12-01T12:43:46Z,97615.541,"c(""distractor1"", ""distractor2"", ""distractor3"")",Qualität,mtindo,d,NA,NA,NA,NA,NA,NA,NA,NA,NA,NA,NA,NA,NA,NA,NA,NA,NA,NA,NA,NA,NA,NA,NA,NA,NA,NA
dbf40,shallow,flow.Sequence,1_1_2_1,NA,NA,skipped,NA,97610.5,NA,NA,97607.208,97610.700000018,2023-12-01T12:43:46Z,97615.541,"c(""distractor1"", ""distractor2"", ""distractor3"")",Qualität,mtindo,d,NA,NA,NA,NA,NA,NA,NA,NA,NA,NA,NA,NA,NA,NA,NA,NA,NA,NA,NA,NA,NA,NA,NA,NA,NA,NA
dbf40,task,flow.Sequence,1_1_2,NA,NA,completion,11454.127,86152.700000018,86144.748,86153.081,97607.208,97611,2023-12-01T12:43:46Z,97615.541,"c(""distractor1"", ""distractor2"", ""distractor3"")",Qualität,mtindo,d,NA,NA,NA,NA,NA,NA,NA,NA,NA,NA,NA,NA,NA,NA,NA,NA,NA,NA,NA,NA,NA,NA,NA,NA,NA,NA
dbf40,Deep Question,html.Page,1_1_3_0_0,NA,NA,form submission,3549.2590000119,97611.200000018,97607.208,97615.541,101164.80000001,101165.59999999,2023-12-01T12:43:49Z,101174.164,"c(""distractor1"", ""distractor2"", ""distractor3"")",Schatten,kivuli,d,NA,NA,NA,sdfasf,NA,NA,NA,NA,NA,NA,NA,NA,NA,NA,NA,NA,NA,NA,NA,NA,NA,NA,NA,NA,NA,NA
dbf40,"""Richtig""-Screen",canvas.Screen,1_1_3_0_1,NA,NA,skipped,NA,101168.80000001,NA,NA,101164.80000001,101168.90000001,2023-12-01T12:43:49Z,101174.164,"c(""distractor1"", ""distractor2"", ""distractor3"")",Schatten,kivuli,d,NA,NA,NA,NA,NA,NA,NA,NA,NA,NA,NA,NA,NA,NA,NA,NA,NA,NA,NA,NA,NA,NA,NA,NA,NA,NA
dbf40,"""Falsch""-Screen",canvas.Screen,1_1_3_0_2,NA,NA,timeout,4999.8,101169.80000001,101157.498,101174.164,106165.631,106168.40000001,2023-12-01T12:43:54Z,106173.964,"c(""distractor1"", ""distractor2"", ""distractor3"")",Schatten,kivuli,d,NA,NA,NA,NA,NA,0,NA,NA,NA,NA,NA,NA,NA,NA,NA,NA,NA,NA,NA,NA,NA,NA,NA,NA,NA,NA
dbf40,deep,flow.Sequence,1_1_3_0,NA,NA,completion,8550.09,97611.099999994,97607.208,97615.541,106165.631,106168.90000001,2023-12-01T12:43:54Z,106173.964,"c(""distractor1"", ""distractor2"", ""distractor3"")",Schatten,kivuli,d,NA,NA,NA,NA,NA,NA,NA,NA,NA,NA,NA,NA,NA,NA,NA,NA,NA,NA,NA,NA,NA,NA,NA,NA,NA,NA
dbf40,shallow,flow.Sequence,1_1_3_1,NA,NA,skipped,NA,106169,NA,NA,106165.631,106169.20000002,2023-12-01T12:43:54Z,106173.964,"c(""distractor1"", ""distractor2"", ""distractor3"")",Schatten,kivuli,d,NA,NA,NA,NA,NA,NA,NA,NA,NA,NA,NA,NA,NA,NA,NA,NA,NA,NA,NA,NA,NA,NA,NA,NA,NA,NA
dbf40,task,flow.Sequence,1_1_3,NA,NA,completion,8550.09,97611.099999994,97607.208,97615.541,106165.631,106169.30000001,2023-12-01T12:43:54Z,106173.964,"c(""distractor1"", ""distractor2"", ""distractor3"")",Schatten,kivuli,d,NA,NA,NA,NA,NA,NA,NA,NA,NA,NA,NA,NA,NA,NA,NA,NA,NA,NA,NA,NA,NA,NA,NA,NA,NA,NA
dbf40,deep,flow.Sequence,1_1_4_0,NA,NA,skipped,NA,106169.5,NA,NA,106165.631,106169.59999999,2023-12-01T12:43:54Z,106173.964,"c(""distractor1"", ""distractor2"", ""distractor3"")",Gegenwart,hadhara,s,katiba,jokofu,mikopo,NA,NA,NA,NA,NA,NA,NA,NA,NA,NA,NA,NA,NA,NA,NA,NA,NA,NA,NA,NA,NA,NA,NA
dbf40,Shallow Question,html.Page,1_1_4_1_0,NA,NA,form submission,11682.236000018,106169.70000002,106165.631,106173.964,117856.20000002,117856.5,2023-12-01T12:44:06Z,117857.308,"c(""distractor1"", ""distractor2"", ""distractor3"")",Gegenwart,hadhara,s,katiba,jokofu,mikopo,mikopo,NA,NA,NA,NA,NA,NA,NA,NA,NA,NA,NA,NA,NA,NA,NA,NA,NA,NA,NA,NA,NA,NA
dbf40,"""Richtig""-Screen",canvas.Screen,1_1_4_1_1,NA,NA,skipped,NA,117859.20000002,NA,NA,117856.20000002,117859.30000001,2023-12-01T12:44:06Z,117857.308,"c(""distractor1"", ""distractor2"", ""distractor3"")",Gegenwart,hadhara,s,katiba,jokofu,mikopo,NA,NA,NA,NA,NA,NA,NA,NA,NA,NA,NA,NA,NA,NA,NA,NA,NA,NA,NA,NA,NA,NA,NA
dbf40,"""Falsch""-Screen",canvas.Screen,1_1_4_1_2,NA,NA,timeout,4996.14,117859.90000001,117848.975,117857.308,122845.115,122848.59999999,2023-12-01T12:44:11Z,122853.448,"c(""distractor1"", ""distractor2"", ""distractor3"")",Gegenwart,hadhara,s,katiba,jokofu,mikopo,NA,NA,0,NA,NA,NA,NA,NA,NA,NA,NA,NA,NA,NA,NA,NA,NA,NA,NA,NA,NA,NA,NA
dbf40,shallow,flow.Sequence,1_1_4_1,NA,NA,completion,16671.151,106169.70000002,106165.631,106173.964,122845.115,122849.20000002,2023-12-01T12:44:11Z,122853.448,"c(""distractor1"", ""distractor2"", ""distractor3"")",Gegenwart,hadhara,s,katiba,jokofu,mikopo,NA,NA,NA,NA,NA,NA,NA,NA,NA,NA,NA,NA,NA,NA,NA,NA,NA,NA,NA,NA,NA,NA,NA
dbf40,task,flow.Sequence,1_1_4,NA,NA,completion,16671.151,106169.5,106165.631,106173.964,122845.115,122849.40000001,2023-12-01T12:44:11Z,122853.448,"c(""distractor1"", ""distractor2"", ""distractor3"")",Gegenwart,hadhara,s,katiba,jokofu,mikopo,NA,NA,NA,NA,NA,NA,NA,NA,NA,NA,NA,NA,NA,NA,NA,NA,NA,NA,NA,NA,NA,NA,NA
dbf40,Deep Question,html.Page,1_1_5_0_0,NA,NA,form submission,4544.452000006,122849.70000002,122845.115,122853.448,127397.90000001,127398.59999999,2023-12-01T12:44:16Z,127403.266,"c(""distractor1"", ""distractor2"", ""distractor3"")",Gesundheit,salama,d,NA,NA,NA,sdfjlsd,NA,NA,NA,NA,NA,NA,NA,NA,NA,NA,NA,NA,NA,NA,NA,NA,NA,NA,NA,NA,NA,NA
dbf40,"""Richtig""-Screen",canvas.Screen,1_1_5_0_1,NA,NA,skipped,NA,127401.20000002,NA,NA,127397.90000001,127401.40000001,2023-12-01T12:44:16Z,127403.266,"c(""distractor1"", ""distractor2"", ""distractor3"")",Gesundheit,salama,d,NA,NA,NA,NA,NA,NA,NA,NA,NA,NA,NA,NA,NA,NA,NA,NA,NA,NA,NA,NA,NA,NA,NA,NA,NA,NA
dbf40,"""Falsch""-Screen",canvas.Screen,1_1_5_0_2,NA,NA,timeout,4999.8,127401.90000001,127394.933,127403.266,132394.733,132397.5,2023-12-01T12:44:21Z,132403.066,"c(""distractor1"", ""distractor2"", ""distractor3"")",Gesundheit,salama,d,NA,NA,NA,NA,NA,0,NA,NA,NA,NA,NA,NA,NA,NA,NA,NA,NA,NA,NA,NA,NA,NA,NA,NA,NA,NA
dbf40,deep,flow.Sequence,1_1_5_0,NA,NA,completion,9541.285,122849.59999999,122845.115,122853.448,132394.733,132398,2023-12-01T12:44:21Z,132403.066,"c(""distractor1"", ""distractor2"", ""distractor3"")",Gesundheit,salama,d,NA,NA,NA,NA,NA,NA,NA,NA,NA,NA,NA,NA,NA,NA,NA,NA,NA,NA,NA,NA,NA,NA,NA,NA,NA,NA
dbf40,shallow,flow.Sequence,1_1_5_1,NA,NA,skipped,NA,132398.09999999,NA,NA,132394.733,132398.30000001,2023-12-01T12:44:21Z,132403.066,"c(""distractor1"", ""distractor2"", ""distractor3"")",Gesundheit,salama,d,NA,NA,NA,NA,NA,NA,NA,NA,NA,NA,NA,NA,NA,NA,NA,NA,NA,NA,NA,NA,NA,NA,NA,NA,NA,NA
dbf40,task,flow.Sequence,1_1_5,NA,NA,completion,9541.285,122849.59999999,122845.115,122853.448,132394.733,132398.5,2023-12-01T12:44:21Z,132403.066,"c(""distractor1"", ""distractor2"", ""distractor3"")",Gesundheit,salama,d,NA,NA,NA,NA,NA,NA,NA,NA,NA,NA,NA,NA,NA,NA,NA,NA,NA,NA,NA,NA,NA,NA,NA,NA,NA,NA
dbf40,block,flow.Loop,1_1,NA,NA,completion,77208.647,55180.5,55177.753,55186.086,132394.733,132398.59999999,2023-12-01T12:44:21Z,132403.066,"c(""distractor1"", ""distractor2"", ""distractor3"")",NA,NA,NA,NA,NA,NA,NA,NA,NA,NA,NA,NA,NA,NA,NA,NA,NA,NA,NA,NA,NA,NA,NA,NA,NA,NA,NA,NA,NA
dbf40,Practice,flow.Sequence,1,NA,NA,completion,82075.119,50313.900000006,50311.281,50319.614,132394.733,132398.80000001,2023-12-01T12:44:21Z,132403.066,NULL,NA,NA,NA,NA,NA,NA,NA,NA,NA,NA,NA,NA,NA,NA,NA,NA,NA,NA,NA,NA,NA,NA,NA,NA,NA,NA,NA,NA,NA
dbf40,Experiment start,canvas.Screen,2,weiter,keypress(q),response,69636.434,132398.80000001,132394.733,132403.066,202039.5,202050,2023-12-01T12:45:30Z,202090.968,NULL,NA,NA,NA,NA,NA,NA,NA,NA,NA,NA,NA,NA,NA,NA,NA,NA,NA,NA,NA,NA,NA,NA,NA,NA,NA,NA,NA,NA,NA
dbf40,deep,flow.Sequence,3_0_0_0_0_0,NA,NA,skipped,NA,202092.09999999,NA,NA,202039.5,202092.20000002,2023-12-01T12:45:30Z,202090.968,NULL,Vorsorge,tahadhari,s,ufafanuzi,makini,mashambani,NA,sdf,NA,0,NA,NA,NA,NA,NA,NA,NA,NA,NA,NA,NA,NA,NA,NA,NA,NA,NA,NA,NA
dbf40,Shallow Question,html.Page,3_0_0_0_0_1_0,NA,NA,form submission,8365.2320000179,202092.20000002,202041.947,202090.968,210456.20000002,210456.70000002,2023-12-01T12:45:39Z,210457.3,NULL,Vorsorge,tahadhari,s,ufafanuzi,makini,mashambani,tahadhari,NA,NA,0,NA,NA,NA,NA,NA,NA,NA,NA,NA,NA,NA,NA,NA,NA,NA,NA,NA,NA,NA
dbf40,"""Richtig""-Screen",canvas.Screen,3_0_0_0_0_1_1,NA,NA,timeout,5000.408,210459.5,210448.967,210457.3,215449.375,215451.90000001,2023-12-01T12:45:44Z,215457.708,NULL,Vorsorge,tahadhari,s,ufafanuzi,makini,mashambani,NA,sdf,1,0,NA,NA,NA,NA,NA,NA,NA,NA,NA,NA,NA,NA,NA,NA,NA,NA,NA,NA,NA
dbf40,"""Falsch""-Screen",canvas.Screen,3_0_0_0_0_1_2,NA,NA,skipped,NA,215455.20000002,NA,NA,215449.375,215455.40000001,2023-12-01T12:45:44Z,215457.708,NULL,Vorsorge,tahadhari,s,ufafanuzi,makini,mashambani,NA,sdf,NA,0,NA,NA,NA,NA,NA,NA,NA,NA,NA,NA,NA,NA,NA,NA,NA,NA,NA,NA,NA
dbf40,shallow,flow.Sequence,3_0_0_0_0_1,NA,NA,completion,13358.407,202092.20000002,202041.947,202090.968,215449.375,215455.59999999,2023-12-01T12:45:44Z,215457.708,NULL,Vorsorge,tahadhari,s,ufafanuzi,makini,mashambani,NA,sdf,NA,0,NA,NA,NA,NA,NA,NA,NA,NA,NA,NA,NA,NA,NA,NA,NA,NA,NA,NA,NA
dbf40,task,flow.Sequence,3_0_0_0_0,NA,NA,completion,13358.407,202092.09999999,202041.947,202090.968,215449.375,215455.70000002,2023-12-01T12:45:44Z,215457.708,NULL,Vorsorge,tahadhari,s,ufafanuzi,makini,mashambani,NA,sdf,NA,0,NA,NA,NA,NA,NA,NA,NA,NA,NA,NA,NA,NA,NA,NA,NA,NA,NA,NA,NA
dbf40,Deep Question,html.Page,3_0_0_0_1_0_0,NA,NA,form submission,11848.492000018001,215455.80000001,215449.375,215457.708,227306.20000002,227306.70000002,2023-12-01T12:45:56Z,227311.818,NULL,Symbol,kielezo,d,NA,NA,NA,kjkljlk,NA,NA,0,NA,NA,NA,NA,NA,NA,NA,NA,NA,NA,NA,NA,NA,NA,NA,NA,NA,NA,NA
dbf40,"""Richtig""-Screen",canvas.Screen,3_0_0_0_1_0_1,NA,NA,skipped,NA,227309.59999999,NA,NA,227306.20000002,227309.70000002,2023-12-01T12:45:56Z,227311.818,NULL,Symbol,kielezo,d,NA,NA,NA,NA,sdf,NA,0,NA,NA,NA,NA,NA,NA,NA,NA,NA,NA,NA,NA,NA,NA,NA,NA,NA,NA,NA
dbf40,"""Falsch""-Screen",canvas.Screen,3_0_0_0_1_0_2,NA,NA,timeout,4999.8,227310.20000002,227303.485,227311.818,232303.285,232306.59999999,2023-12-01T12:46:01Z,232311.618,NULL,Symbol,kielezo,d,NA,NA,NA,NA,sdf,0,0,NA,NA,NA,NA,NA,NA,NA,NA,NA,NA,NA,NA,NA,NA,NA,NA,NA,NA,NA
dbf40,deep,flow.Sequence,3_0_0_0_1_0,NA,NA,completion,16845.577,215455.80000001,215449.375,215457.708,232303.285,232307.20000002,2023-12-01T12:46:01Z,232311.618,NULL,Symbol,kielezo,d,NA,NA,NA,NA,sdf,NA,0,NA,NA,NA,NA,NA,NA,NA,NA,NA,NA,NA,NA,NA,NA,NA,NA,NA,NA,NA
dbf40,shallow,flow.Sequence,3_0_0_0_1_1,NA,NA,skipped,NA,232307.30000001,NA,NA,232303.285,232307.40000001,2023-12-01T12:46:01Z,232311.618,NULL,Symbol,kielezo,d,NA,NA,NA,NA,sdf,NA,0,NA,NA,NA,NA,NA,NA,NA,NA,NA,NA,NA,NA,NA,NA,NA,NA,NA,NA,NA
dbf40,task,flow.Sequence,3_0_0_0_1,NA,NA,completion,16845.577,215455.70000002,215449.375,215457.708,232303.285,232307.59999999,2023-12-01T12:46:01Z,232311.618,NULL,Symbol,kielezo,d,NA,NA,NA,NA,sdf,NA,0,NA,NA,NA,NA,NA,NA,NA,NA,NA,NA,NA,NA,NA,NA,NA,NA,NA,NA,NA
dbf40,deep,flow.Sequence,3_0_0_0_2_0,NA,NA,skipped,NA,232307.70000002,NA,NA,232303.285,232307.80000001,2023-12-01T12:46:01Z,232311.618,NULL,System,maongozi,s,chokochoko,nuksani,mitaani,NA,sdf,NA,0,NA,NA,NA,NA,NA,NA,NA,NA,NA,NA,NA,NA,NA,NA,NA,NA,NA,NA,NA
dbf40,Shallow Question,html.Page,3_0_0_0_2_1_0,NA,NA,form submission,7415.9819999941,232307.90000001,232303.285,232311.618,239727.59999999,239728,2023-12-01T12:46:08Z,239728.485,NULL,System,maongozi,s,chokochoko,nuksani,mitaani,chokochoko,NA,NA,0,NA,NA,NA,NA,NA,NA,NA,NA,NA,NA,NA,NA,NA,NA,NA,NA,NA,NA,NA
dbf40,"""Richtig""-Screen",canvas.Screen,3_0_0_0_2_1_1,NA,NA,skipped,NA,239730,NA,NA,239727.59999999,239730,2023-12-01T12:46:08Z,239728.485,NULL,System,maongozi,s,chokochoko,nuksani,mitaani,NA,sdf,NA,0,NA,NA,NA,NA,NA,NA,NA,NA,NA,NA,NA,NA,NA,NA,NA,NA,NA,NA,NA
dbf40,"""Falsch""-Screen",canvas.Screen,3_0_0_0_2_1_2,NA,NA,timeout,4999.8,239730.40000001,239720.152,239728.485,244719.952,244722.5,2023-12-01T12:46:13Z,244728.285,NULL,System,maongozi,s,chokochoko,nuksani,mitaani,NA,sdf,0,0,NA,NA,NA,NA,NA,NA,NA,NA,NA,NA,NA,NA,NA,NA,NA,NA,NA,NA,NA
dbf40,shallow,flow.Sequence,3_0_0_0_2_1,NA,NA,completion,12408.334,232307.90000001,232303.285,232311.618,244719.952,244723.09999999,2023-12-01T12:46:13Z,244728.285,NULL,System,maongozi,s,chokochoko,nuksani,mitaani,NA,sdf,NA,0,NA,NA,NA,NA,NA,NA,NA,NA,NA,NA,NA,NA,NA,NA,NA,NA,NA,NA,NA
dbf40,task,flow.Sequence,3_0_0_0_2,NA,NA,completion,12408.334,232307.59999999,232303.285,232311.618,244719.952,244723.20000002,2023-12-01T12:46:13Z,244728.285,NULL,System,maongozi,s,chokochoko,nuksani,mitaani,NA,sdf,NA,0,NA,NA,NA,NA,NA,NA,NA,NA,NA,NA,NA,NA,NA,NA,NA,NA,NA,NA,NA
dbf40,deep,flow.Sequence,3_0_0_0_3_0,NA,NA,skipped,NA,244723.40000001,NA,NA,244719.952,244723.5,2023-12-01T12:46:13Z,244728.285,NULL,Konkurrent,mshindani,s,msemaji,mvutaji,kipukusa,NA,sdf,NA,0,NA,NA,NA,NA,NA,NA,NA,NA,NA,NA,NA,NA,NA,NA,NA,NA,NA,NA,NA
dbf40,Shallow Question,html.Page,3_0_0_0_3_1_0,NA,NA,form submission,6565.0150000119,244723.70000002,244719.952,244728.285,251293.30000001,251294,2023-12-01T12:46:20Z,251299.284,NULL,Konkurrent,mshindani,s,msemaji,mvutaji,kipukusa,mvutaji,NA,NA,0,NA,NA,NA,NA,NA,NA,NA,NA,NA,NA,NA,NA,NA,NA,NA,NA,NA,NA,NA
dbf40,"""Richtig""-Screen",canvas.Screen,3_0_0_0_3_1_1,NA,NA,skipped,NA,251296.80000001,NA,NA,251293.30000001,251296.80000001,2023-12-01T12:46:20Z,251299.284,NULL,Konkurrent,mshindani,s,msemaji,mvutaji,kipukusa,NA,sdf,NA,0,NA,NA,NA,NA,NA,NA,NA,NA,NA,NA,NA,NA,NA,NA,NA,NA,NA,NA,NA
dbf40,"""Falsch""-Screen",canvas.Screen,3_0_0_0_3_1_2,NA,NA,timeout,4999.8,251297.30000001,251290.951,251299.284,256290.751,256293,2023-12-01T12:46:25Z,256299.084,NULL,Konkurrent,mshindani,s,msemaji,mvutaji,kipukusa,NA,sdf,0,0,NA,NA,NA,NA,NA,NA,NA,NA,NA,NA,NA,NA,NA,NA,NA,NA,NA,NA,NA
dbf40,shallow,flow.Sequence,3_0_0_0_3_1,NA,NA,completion,11562.466,244723.70000002,244719.952,244728.285,256290.751,256293.30000001,2023-12-01T12:46:25Z,256299.084,NULL,Konkurrent,mshindani,s,msemaji,mvutaji,kipukusa,NA,sdf,NA,0,NA,NA,NA,NA,NA,NA,NA,NA,NA,NA,NA,NA,NA,NA,NA,NA,NA,NA,NA
dbf40,task,flow.Sequence,3_0_0_0_3,NA,NA,completion,11562.466,244723.30000001,244719.952,244728.285,256290.751,256293.5,2023-12-01T12:46:25Z,256299.084,NULL,Konkurrent,mshindani,s,msemaji,mvutaji,kipukusa,NA,sdf,NA,0,NA,NA,NA,NA,NA,NA,NA,NA,NA,NA,NA,NA,NA,NA,NA,NA,NA,NA,NA
dbf40,Deep Question,html.Page,3_0_0_0_4_0_0,NA,NA,form submission,6148.515999994,256293.59999999,256290.751,256299.084,262447.59999999,262448,2023-12-01T12:46:31Z,262453.428,NULL,Übersicht,kilindo,d,NA,NA,NA,dsfsdfsdf,NA,NA,0,NA,NA,NA,NA,NA,NA,NA,NA,NA,NA,NA,NA,NA,NA,NA,NA,NA,NA,NA
dbf40,"""Richtig""-Screen",canvas.Screen,3_0_0_0_4_0_1,NA,NA,skipped,NA,262451,NA,NA,262447.59999999,262451.09999999,2023-12-01T12:46:31Z,262453.428,NULL,Übersicht,kilindo,d,NA,NA,NA,NA,sdf,NA,0,NA,NA,NA,NA,NA,NA,NA,NA,NA,NA,NA,NA,NA,NA,NA,NA,NA,NA,NA
dbf40,"""Falsch""-Screen",canvas.Screen,3_0_0_0_4_0_2,NA,NA,timeout,4999.8,262451.70000002,262445.095,262453.428,267444.895,267448.70000002,2023-12-01T12:46:36Z,267453.228,NULL,Übersicht,kilindo,d,NA,NA,NA,NA,sdf,0,0,NA,NA,NA,NA,NA,NA,NA,NA,NA,NA,NA,NA,NA,NA,NA,NA,NA,NA,NA
dbf40,deep,flow.Sequence,3_0_0_0_4_0,NA,NA,completion,11145.811,256293.59999999,256290.751,256299.084,267444.895,267449.30000001,2023-12-01T12:46:36Z,267453.228,NULL,Übersicht,kilindo,d,NA,NA,NA,NA,sdf,NA,0,NA,NA,NA,NA,NA,NA,NA,NA,NA,NA,NA,NA,NA,NA,NA,NA,NA,NA,NA
dbf40,shallow,flow.Sequence,3_0_0_0_4_1,NA,NA,skipped,NA,267449.40000001,NA,NA,267444.895,267449.59999999,2023-12-01T12:46:36Z,267453.228,NULL,Übersicht,kilindo,d,NA,NA,NA,NA,sdf,NA,0,NA,NA,NA,NA,NA,NA,NA,NA,NA,NA,NA,NA,NA,NA,NA,NA,NA,NA,NA
dbf40,task,flow.Sequence,3_0_0_0_4,NA,NA,completion,11145.811,256293.59999999,256290.751,256299.084,267444.895,267449.80000001,2023-12-01T12:46:36Z,267453.228,NULL,Übersicht,kilindo,d,NA,NA,NA,NA,sdf,NA,0,NA,NA,NA,NA,NA,NA,NA,NA,NA,NA,NA,NA,NA,NA,NA,NA,NA,NA,NA
dbf40,Deep Question,html.Page,3_0_0_0_5_0_0,NA,NA,form submission,9161.672000006,267450,267444.895,267453.228,276614.90000001,276615.70000002,2023-12-01T12:46:45Z,276624.234,NULL,Körper,kiwiliwili,d,NA,NA,NA,ksldjfl,NA,NA,0,NA,NA,NA,NA,NA,NA,NA,NA,NA,NA,NA,NA,NA,NA,NA,NA,NA,NA,NA
dbf40,"""Richtig""-Screen",canvas.Screen,3_0_0_0_5_0_1,NA,NA,skipped,NA,276619.40000001,NA,NA,276614.90000001,276619.59999999,2023-12-01T12:46:45Z,276624.234,NULL,Körper,kiwiliwili,d,NA,NA,NA,NA,sdf,NA,0,NA,NA,NA,NA,NA,NA,NA,NA,NA,NA,NA,NA,NA,NA,NA,NA,NA,NA,NA
dbf40,"""Falsch""-Screen",canvas.Screen,3_0_0_0_5_0_2,NA,NA,timeout,5000.21,276620.09999999,276607.568,276624.234,281616.111,281619.90000001,2023-12-01T12:46:50Z,281624.444,NULL,Körper,kiwiliwili,d,NA,NA,NA,NA,sdf,0,0,NA,NA,NA,NA,NA,NA,NA,NA,NA,NA,NA,NA,NA,NA,NA,NA,NA,NA,NA
dbf40,deep,flow.Sequence,3_0_0_0_5_0,NA,NA,completion,14162.883,267449.90000001,267444.895,267453.228,281616.111,281620.40000001,2023-12-01T12:46:50Z,281624.444,NULL,Körper,kiwiliwili,d,NA,NA,NA,NA,sdf,NA,0,NA,NA,NA,NA,NA,NA,NA,NA,NA,NA,NA,NA,NA,NA,NA,NA,NA,NA,NA
dbf40,shallow,flow.Sequence,3_0_0_0_5_1,NA,NA,skipped,NA,281620.40000001,NA,NA,281616.111,281620.5,2023-12-01T12:46:50Z,281624.444,NULL,Körper,kiwiliwili,d,NA,NA,NA,NA,sdf,NA,0,NA,NA,NA,NA,NA,NA,NA,NA,NA,NA,NA,NA,NA,NA,NA,NA,NA,NA,NA
dbf40,task,flow.Sequence,3_0_0_0_5,NA,NA,completion,14162.883,267449.90000001,267444.895,267453.228,281616.111,281620.59999999,2023-12-01T12:46:50Z,281624.444,NULL,Körper,kiwiliwili,d,NA,NA,NA,NA,sdf,NA,0,NA,NA,NA,NA,NA,NA,NA,NA,NA,NA,NA,NA,NA,NA,NA,NA,NA,NA,NA
dbf40,deep,flow.Sequence,3_0_0_0_6_0,NA,NA,skipped,NA,281620.70000002,NA,NA,281616.111,281620.80000001,2023-12-01T12:46:50Z,281624.444,NULL,Lawine,banguko,s,maambukizi,usuluhishi,chekechea,NA,sdf,NA,0,NA,NA,NA,NA,NA,NA,NA,NA,NA,NA,NA,NA,NA,NA,NA,NA,NA,NA,NA
dbf40,Shallow Question,html.Page,3_0_0_0_6_1_0,NA,NA,form submission,9038.2560000179,281620.80000001,281616.111,281624.444,290662.70000002,290663.09999999,2023-12-01T12:46:59Z,290665.749,NULL,Lawine,banguko,s,maambukizi,usuluhishi,chekechea,chekechea,NA,NA,0,NA,NA,NA,NA,NA,NA,NA,NA,NA,NA,NA,NA,NA,NA,NA,NA,NA,NA,NA
dbf40,"""Richtig""-Screen",canvas.Screen,3_0_0_0_6_1_1,NA,NA,skipped,NA,290665.40000001,NA,NA,290662.70000002,290665.5,2023-12-01T12:46:59Z,290665.749,NULL,Lawine,banguko,s,maambukizi,usuluhishi,chekechea,NA,sdf,NA,0,NA,NA,NA,NA,NA,NA,NA,NA,NA,NA,NA,NA,NA,NA,NA,NA,NA,NA,NA
dbf40,"""Falsch""-Screen",canvas.Screen,3_0_0_0_6_1_2,NA,NA,timeout,4996.206,290666,290657.416,290665.749,295653.622,295657,2023-12-01T12:47:04Z,295661.955,NULL,Lawine,banguko,s,maambukizi,usuluhishi,chekechea,NA,sdf,0,0,NA,NA,NA,NA,NA,NA,NA,NA,NA,NA,NA,NA,NA,NA,NA,NA,NA,NA,NA
dbf40,shallow,flow.Sequence,3_0_0_0_6_1,NA,NA,completion,14029.178,281620.80000001,281616.111,281624.444,295653.622,295657.5,2023-12-01T12:47:04Z,295661.955,NULL,Lawine,banguko,s,maambukizi,usuluhishi,chekechea,NA,sdf,NA,0,NA,NA,NA,NA,NA,NA,NA,NA,NA,NA,NA,NA,NA,NA,NA,NA,NA,NA,NA
dbf40,task,flow.Sequence,3_0_0_0_6,NA,NA,completion,14029.178,281620.59999999,281616.111,281624.444,295653.622,295657.70000002,2023-12-01T12:47:04Z,295661.955,NULL,Lawine,banguko,s,maambukizi,usuluhishi,chekechea,NA,sdf,NA,0,NA,NA,NA,NA,NA,NA,NA,NA,NA,NA,NA,NA,NA,NA,NA,NA,NA,NA,NA
dbf40,Deep Question,html.Page,3_0_0_0_7_0_0,NA,NA,form submission,8323.545,295657.90000001,295653.622,295661.955,303985.5,303986.20000002,2023-12-01T12:47:12Z,303994.955,NULL,Zuwachs,nyongeza,d,NA,NA,NA,sdfljlsdf,NA,NA,0,NA,NA,NA,NA,NA,NA,NA,NA,NA,NA,NA,NA,NA,NA,NA,NA,NA,NA,NA
dbf40,"""Richtig""-Screen",canvas.Screen,3_0_0_0_7_0_1,NA,NA,skipped,NA,303990,NA,NA,303985.5,303990.30000001,2023-12-01T12:47:12Z,303994.955,NULL,Zuwachs,nyongeza,d,NA,NA,NA,NA,sdf,NA,0,NA,NA,NA,NA,NA,NA,NA,NA,NA,NA,NA,NA,NA,NA,NA,NA,NA,NA,NA
dbf40,"""Falsch""-Screen",canvas.Screen,3_0_0_0_7_0_2,NA,NA,timeout,5000.347,303990.80000001,303978.289,303994.955,308986.969,308990.09999999,2023-12-01T12:47:17Z,308995.302,NULL,Zuwachs,nyongeza,d,NA,NA,NA,NA,sdf,0,0,NA,NA,NA,NA,NA,NA,NA,NA,NA,NA,NA,NA,NA,NA,NA,NA,NA,NA,NA
dbf40,deep,flow.Sequence,3_0_0_0_7_0,NA,NA,completion,13325.014,295657.90000001,295653.622,295661.955,308986.969,308990.59999999,2023-12-01T12:47:17Z,308995.302,NULL,Zuwachs,nyongeza,d,NA,NA,NA,NA,sdf,NA,0,NA,NA,NA,NA,NA,NA,NA,NA,NA,NA,NA,NA,NA,NA,NA,NA,NA,NA,NA
dbf40,shallow,flow.Sequence,3_0_0_0_7_1,NA,NA,skipped,NA,308990.80000001,NA,NA,308986.969,308990.90000001,2023-12-01T12:47:17Z,308995.302,NULL,Zuwachs,nyongeza,d,NA,NA,NA,NA,sdf,NA,0,NA,NA,NA,NA,NA,NA,NA,NA,NA,NA,NA,NA,NA,NA,NA,NA,NA,NA,NA
dbf40,task,flow.Sequence,3_0_0_0_7,NA,NA,completion,13325.014,295657.80000001,295653.622,295661.955,308986.969,308991.09999999,2023-12-01T12:47:17Z,308995.302,NULL,Zuwachs,nyongeza,d,NA,NA,NA,NA,sdf,NA,0,NA,NA,NA,NA,NA,NA,NA,NA,NA,NA,NA,NA,NA,NA,NA,NA,NA,NA,NA
dbf40,block,flow.Loop,3_0_0_0,NA,NA,completion,106896.001,202092.09999999,202041.947,202090.968,308986.969,308991.30000001,2023-12-01T12:47:17Z,308995.302,NULL,NA,NA,NA,NA,NA,NA,NA,sdf,NA,0,NA,NA,NA,NA,NA,NA,NA,NA,NA,NA,NA,NA,NA,NA,NA,NA,NA,NA,NA
dbf40,weiter,canvas.Screen,3_0_0_1,sdf,keypress(Space),response,1828.297999994,308991.40000001,308986.969,308995.302,310823.59999999,310834.5,2023-12-01T12:47:19Z,310853.561,NULL,NA,NA,NA,NA,NA,NA,NA,sdf,NA,0,NA,NA,NA,NA,NA,NA,NA,NA,NA,NA,NA,NA,NA,NA,NA,NA,NA,NA,NA
dbf40,check continue,flow.Sequence,3_0_0,NA,NA,completion,108732.63199999,202092.09999999,202041.947,202090.968,310823.59999999,310834.80000001,2023-12-01T12:47:19Z,310853.561,NULL,NA,NA,NA,NA,NA,NA,NA,sdf,NA,0,NA,NA,NA,NA,NA,NA,NA,NA,NA,NA,NA,NA,NA,NA,NA,NA,NA,NA,NA
dbf40,Deep Question,html.Page,3_0_1_0_0_0_0,NA,NA,form submission,10214.339000006,310855.5,310828.562,310853.561,321067.90000001,321069.5,2023-12-01T12:47:29Z,321074.401,NULL,Körper,kiwiliwili,d,NA,NA,NA,kljkljlkj,NA,NA,1,NA,NA,NA,NA,NA,NA,NA,NA,NA,NA,NA,NA,NA,NA,NA,NA,NA,NA,NA
dbf40,"""Richtig""-Screen",canvas.Screen,3_0_1_0_0_0_1,NA,NA,skipped,NA,321072.70000002,NA,NA,321067.90000001,321073,2023-12-01T12:47:29Z,321074.401,NULL,Körper,kiwiliwili,d,NA,NA,NA,NA,sdfdsf,NA,1,NA,NA,NA,NA,NA,NA,NA,NA,NA,NA,NA,NA,NA,NA,NA,NA,NA,NA,NA
dbf40,"""Falsch""-Screen",canvas.Screen,3_0_1_0_0_0_2,NA,NA,timeout,4999.8,321073.5,321066.068,321074.401,326065.868,326069.20000002,2023-12-01T12:47:34Z,326074.201,NULL,Körper,kiwiliwili,d,NA,NA,NA,NA,sdfdsf,0,1,NA,NA,NA,NA,NA,NA,NA,NA,NA,NA,NA,NA,NA,NA,NA,NA,NA,NA,NA
dbf40,deep,flow.Sequence,3_0_1_0_0_0,NA,NA,completion,15212.307,310855.5,310828.562,310853.561,326065.868,326069.80000001,2023-12-01T12:47:34Z,326074.201,NULL,Körper,kiwiliwili,d,NA,NA,NA,NA,sdfdsf,NA,1,NA,NA,NA,NA,NA,NA,NA,NA,NA,NA,NA,NA,NA,NA,NA,NA,NA,NA,NA
dbf40,shallow,flow.Sequence,3_0_1_0_0_1,NA,NA,skipped,NA,326069.90000001,NA,NA,326065.868,326070,2023-12-01T12:47:34Z,326074.201,NULL,Körper,kiwiliwili,d,NA,NA,NA,NA,sdfdsf,NA,1,NA,NA,NA,NA,NA,NA,NA,NA,NA,NA,NA,NA,NA,NA,NA,NA,NA,NA,NA
dbf40,task,flow.Sequence,3_0_1_0_0,NA,NA,completion,15212.307,310855.5,310828.562,310853.561,326065.868,326070.20000002,2023-12-01T12:47:34Z,326074.201,NULL,Körper,kiwiliwili,d,NA,NA,NA,NA,sdfdsf,NA,1,NA,NA,NA,NA,NA,NA,NA,NA,NA,NA,NA,NA,NA,NA,NA,NA,NA,NA,NA
dbf40,deep,flow.Sequence,3_0_1_0_1_0,NA,NA,skipped,NA,326070.30000001,NA,NA,326065.868,326070.30000001,2023-12-01T12:47:34Z,326074.201,NULL,System,maongozi,s,chokochoko,nuksani,mitaani,NA,sdfdsf,NA,1,NA,NA,NA,NA,NA,NA,NA,NA,NA,NA,NA,NA,NA,NA,NA,NA,NA,NA,NA
dbf40,Shallow Question,html.Page,3_0_1_0_1_1_0,NA,NA,form submission,8048.898999994,326070.5,326065.868,326074.201,334123.09999999,334123.90000001,2023-12-01T12:47:42Z,334132.622,NULL,System,maongozi,s,chokochoko,nuksani,mitaani,maongozi,NA,NA,1,NA,NA,NA,NA,NA,NA,NA,NA,NA,NA,NA,NA,NA,NA,NA,NA,NA,NA,NA
dbf40,"""Richtig""-Screen",canvas.Screen,3_0_1_0_1_1_1,NA,NA,timeout,5000.21,334126.80000001,334115.956,334132.622,339124.499,339127.80000001,2023-12-01T12:47:47Z,339132.832,NULL,System,maongozi,s,chokochoko,nuksani,mitaani,NA,sdfdsf,1,1,NA,NA,NA,NA,NA,NA,NA,NA,NA,NA,NA,NA,NA,NA,NA,NA,NA,NA,NA
dbf40,"""Falsch""-Screen",canvas.Screen,3_0_1_0_1_1_2,NA,NA,skipped,NA,339132.40000001,NA,NA,339124.499,339132.59999999,2023-12-01T12:47:47Z,339132.832,NULL,System,maongozi,s,chokochoko,nuksani,mitaani,NA,sdfdsf,NA,1,NA,NA,NA,NA,NA,NA,NA,NA,NA,NA,NA,NA,NA,NA,NA,NA,NA,NA,NA
dbf40,shallow,flow.Sequence,3_0_1_0_1_1,NA,NA,completion,13050.298,326070.40000001,326065.868,326074.201,339124.499,339132.80000001,2023-12-01T12:47:47Z,339132.832,NULL,System,maongozi,s,chokochoko,nuksani,mitaani,NA,sdfdsf,NA,1,NA,NA,NA,NA,NA,NA,NA,NA,NA,NA,NA,NA,NA,NA,NA,NA,NA,NA,NA
dbf40,task,flow.Sequence,3_0_1_0_1,NA,NA,completion,13050.298,326070.30000001,326065.868,326074.201,339124.499,339132.80000001,2023-12-01T12:47:47Z,339132.832,NULL,System,maongozi,s,chokochoko,nuksani,mitaani,NA,sdfdsf,NA,1,NA,NA,NA,NA,NA,NA,NA,NA,NA,NA,NA,NA,NA,NA,NA,NA,NA,NA,NA
dbf40,deep,flow.Sequence,3_0_1_0_2_0,NA,NA,skipped,NA,339132.90000001,NA,NA,339124.499,339132.90000001,2023-12-01T12:47:47Z,339132.832,NULL,Vorsorge,tahadhari,s,ufafanuzi,makini,mashambani,NA,sdfdsf,NA,1,NA,NA,NA,NA,NA,NA,NA,NA,NA,NA,NA,NA,NA,NA,NA,NA,NA,NA,NA
dbf40,Shallow Question,html.Page,3_0_1_0_2_1_0,NA,NA,form submission,4385.3680000179,339133,339124.499,339132.832,343518.20000002,343518.59999999,2023-12-01T12:47:52Z,343524.323,NULL,Vorsorge,tahadhari,s,ufafanuzi,makini,mashambani,tahadhari,NA,NA,1,NA,NA,NA,NA,NA,NA,NA,NA,NA,NA,NA,NA,NA,NA,NA,NA,NA,NA,NA
dbf40,"""Richtig""-Screen",canvas.Screen,3_0_1_0_2_1_1,NA,NA,timeout,4999.8,343521.5,343515.99,343524.323,348515.79,348518.80000001,2023-12-01T12:47:57Z,348524.123,NULL,Vorsorge,tahadhari,s,ufafanuzi,makini,mashambani,NA,sdfdsf,1,1,NA,NA,NA,NA,NA,NA,NA,NA,NA,NA,NA,NA,NA,NA,NA,NA,NA,NA,NA
dbf40,"""Falsch""-Screen",canvas.Screen,3_0_1_0_2_1_2,NA,NA,skipped,NA,348522.5,NA,NA,348515.79,348522.70000002,2023-12-01T12:47:57Z,348524.123,NULL,Vorsorge,tahadhari,s,ufafanuzi,makini,mashambani,NA,sdfdsf,NA,1,NA,NA,NA,NA,NA,NA,NA,NA,NA,NA,NA,NA,NA,NA,NA,NA,NA,NA,NA
dbf40,shallow,flow.Sequence,3_0_1_0_2_1,NA,NA,completion,9382.958,339133,339124.499,339132.832,348515.79,348523,2023-12-01T12:47:57Z,348524.123,NULL,Vorsorge,tahadhari,s,ufafanuzi,makini,mashambani,NA,sdfdsf,NA,1,NA,NA,NA,NA,NA,NA,NA,NA,NA,NA,NA,NA,NA,NA,NA,NA,NA,NA,NA
dbf40,task,flow.Sequence,3_0_1_0_2,NA,NA,completion,9382.958,339132.90000001,339124.499,339132.832,348515.79,348523,2023-12-01T12:47:57Z,348524.123,NULL,Vorsorge,tahadhari,s,ufafanuzi,makini,mashambani,NA,sdfdsf,NA,1,NA,NA,NA,NA,NA,NA,NA,NA,NA,NA,NA,NA,NA,NA,NA,NA,NA,NA,NA
dbf40,Deep Question,html.Page,3_0_1_0_3_0_0,NA,NA,form submission,15815.077000018,348523.09999999,348515.79,348524.123,364339.20000002,364340.30000001,2023-12-01T12:48:13Z,364345.169,NULL,Übersicht,kilindo,d,NA,NA,NA,lkjklj,NA,NA,1,NA,NA,NA,NA,NA,NA,NA,NA,NA,NA,NA,NA,NA,NA,NA,NA,NA,NA,NA
dbf40,"""Richtig""-Screen",canvas.Screen,3_0_1_0_3_0_1,NA,NA,skipped,NA,364343.59999999,NA,NA,364339.20000002,364343.70000002,2023-12-01T12:48:13Z,364345.169,NULL,Übersicht,kilindo,d,NA,NA,NA,NA,sdfdsf,NA,1,NA,NA,NA,NA,NA,NA,NA,NA,NA,NA,NA,NA,NA,NA,NA,NA,NA,NA,NA
dbf40,"""Falsch""-Screen",canvas.Screen,3_0_1_0_3_0_2,NA,NA,timeout,4999.8,364344.30000001,364336.836,364345.169,369336.636,369339.80000001,2023-12-01T12:48:18Z,369344.969,NULL,Übersicht,kilindo,d,NA,NA,NA,NA,sdfdsf,0,1,NA,NA,NA,NA,NA,NA,NA,NA,NA,NA,NA,NA,NA,NA,NA,NA,NA,NA,NA
dbf40,deep,flow.Sequence,3_0_1_0_3_0,NA,NA,completion,20812.513,348523.09999999,348515.79,348524.123,369336.636,369340.20000002,2023-12-01T12:48:18Z,369344.969,NULL,Übersicht,kilindo,d,NA,NA,NA,NA,sdfdsf,NA,1,NA,NA,NA,NA,NA,NA,NA,NA,NA,NA,NA,NA,NA,NA,NA,NA,NA,NA,NA
dbf40,shallow,flow.Sequence,3_0_1_0_3_1,NA,NA,skipped,NA,369340.40000001,NA,NA,369336.636,369340.5,2023-12-01T12:48:18Z,369344.969,NULL,Übersicht,kilindo,d,NA,NA,NA,NA,sdfdsf,NA,1,NA,NA,NA,NA,NA,NA,NA,NA,NA,NA,NA,NA,NA,NA,NA,NA,NA,NA,NA
dbf40,task,flow.Sequence,3_0_1_0_3,NA,NA,completion,20812.513,348523.09999999,348515.79,348524.123,369336.636,369340.70000002,2023-12-01T12:48:18Z,369344.969,NULL,Übersicht,kilindo,d,NA,NA,NA,NA,sdfdsf,NA,1,NA,NA,NA,NA,NA,NA,NA,NA,NA,NA,NA,NA,NA,NA,NA,NA,NA,NA,NA
dbf40,Deep Question,html.Page,3_0_1_0_4_0_0,NA,NA,form submission,8360.931000006,369340.90000001,369336.636,369344.969,377705.90000001,377706.70000002,2023-12-01T12:48:26Z,377715.904,NULL,Zuwachs,nyongeza,d,NA,NA,NA,nyongaza,NA,NA,1,NA,NA,NA,NA,NA,NA,NA,NA,NA,NA,NA,NA,NA,NA,NA,NA,NA,NA,NA
dbf40,"""Richtig""-Screen",canvas.Screen,3_0_1_0_4_0_1,NA,NA,skipped,NA,377709.80000001,NA,NA,377705.90000001,377710,2023-12-01T12:48:26Z,377715.904,NULL,Zuwachs,nyongeza,d,NA,NA,NA,NA,sdfdsf,NA,1,NA,NA,NA,NA,NA,NA,NA,NA,NA,NA,NA,NA,NA,NA,NA,NA,NA,NA,NA
dbf40,"""Falsch""-Screen",canvas.Screen,3_0_1_0_4_0_2,NA,NA,timeout,4996.139,377710.5,377699.238,377715.904,382703.71,382706.59999999,2023-12-01T12:48:31Z,382712.043,NULL,Zuwachs,nyongeza,d,NA,NA,NA,NA,sdfdsf,0,1,NA,NA,NA,NA,NA,NA,NA,NA,NA,NA,NA,NA,NA,NA,NA,NA,NA,NA,NA
dbf40,deep,flow.Sequence,3_0_1_0_4_0,NA,NA,completion,13358.741,369340.80000001,369336.636,369344.969,382703.71,382707.30000001,2023-12-01T12:48:31Z,382712.043,NULL,Zuwachs,nyongeza,d,NA,NA,NA,NA,sdfdsf,NA,1,NA,NA,NA,NA,NA,NA,NA,NA,NA,NA,NA,NA,NA,NA,NA,NA,NA,NA,NA
dbf40,shallow,flow.Sequence,3_0_1_0_4_1,NA,NA,skipped,NA,382707.40000001,NA,NA,382703.71,382707.5,2023-12-01T12:48:31Z,382712.043,NULL,Zuwachs,nyongeza,d,NA,NA,NA,NA,sdfdsf,NA,1,NA,NA,NA,NA,NA,NA,NA,NA,NA,NA,NA,NA,NA,NA,NA,NA,NA,NA,NA
dbf40,task,flow.Sequence,3_0_1_0_4,NA,NA,completion,13358.741,369340.80000001,369336.636,369344.969,382703.71,382707.80000001,2023-12-01T12:48:31Z,382712.043,NULL,Zuwachs,nyongeza,d,NA,NA,NA,NA,sdfdsf,NA,1,NA,NA,NA,NA,NA,NA,NA,NA,NA,NA,NA,NA,NA,NA,NA,NA,NA,NA,NA
dbf40,deep,flow.Sequence,3_0_1_0_5_0,NA,NA,skipped,NA,382708,NA,NA,382703.71,382708.09999999,2023-12-01T12:48:31Z,382712.043,NULL,Lawine,banguko,s,maambukizi,usuluhishi,chekechea,NA,sdfdsf,NA,1,NA,NA,NA,NA,NA,NA,NA,NA,NA,NA,NA,NA,NA,NA,NA,NA,NA,NA,NA
dbf40,Shallow Question,html.Page,3_0_1_0_5_1_0,NA,NA,form submission,3593.556999994,382708.20000002,382703.71,382712.043,386305.59999999,386306.30000001,2023-12-01T12:48:35Z,386311.899,NULL,Lawine,banguko,s,maambukizi,usuluhishi,chekechea,banguko,NA,NA,1,NA,NA,NA,NA,NA,NA,NA,NA,NA,NA,NA,NA,NA,NA,NA,NA,NA,NA,NA
dbf40,"""Richtig""-Screen",canvas.Screen,3_0_1_0_5_1_1,NA,NA,timeout,4999.8,386310.30000001,386303.566,386311.899,391303.366,391306.70000002,2023-12-01T12:48:40Z,391311.699,NULL,Lawine,banguko,s,maambukizi,usuluhishi,chekechea,NA,sdfdsf,1,1,NA,NA,NA,NA,NA,NA,NA,NA,NA,NA,NA,NA,NA,NA,NA,NA,NA,NA,NA
dbf40,"""Falsch""-Screen",canvas.Screen,3_0_1_0_5_1_2,NA,NA,skipped,NA,391311.09999999,NA,NA,391303.366,391311.30000001,2023-12-01T12:48:40Z,391311.699,NULL,Lawine,banguko,s,maambukizi,usuluhishi,chekechea,NA,sdfdsf,NA,1,NA,NA,NA,NA,NA,NA,NA,NA,NA,NA,NA,NA,NA,NA,NA,NA,NA,NA,NA
dbf40,shallow,flow.Sequence,3_0_1_0_5_1,NA,NA,completion,8591.323,382708.20000002,382703.71,382712.043,391303.366,391311.5,2023-12-01T12:48:40Z,391311.699,NULL,Lawine,banguko,s,maambukizi,usuluhishi,chekechea,NA,sdfdsf,NA,1,NA,NA,NA,NA,NA,NA,NA,NA,NA,NA,NA,NA,NA,NA,NA,NA,NA,NA,NA
dbf40,task,flow.Sequence,3_0_1_0_5,NA,NA,completion,8591.323,382707.90000001,382703.71,382712.043,391303.366,391311.59999999,2023-12-01T12:48:40Z,391311.699,NULL,Lawine,banguko,s,maambukizi,usuluhishi,chekechea,NA,sdfdsf,NA,1,NA,NA,NA,NA,NA,NA,NA,NA,NA,NA,NA,NA,NA,NA,NA,NA,NA,NA,NA
dbf40,Deep Question,html.Page,3_0_1_0_6_0_0,NA,NA,form submission,5452.1010000119,391311.70000002,391303.366,391311.699,396763.80000001,396764.59999999,2023-12-01T12:48:45Z,396774.407,NULL,Symbol,kielezo,d,NA,NA,NA,kjlkjlkjl,NA,NA,1,NA,NA,NA,NA,NA,NA,NA,NA,NA,NA,NA,NA,NA,NA,NA,NA,NA,NA,NA
dbf40,"""Richtig""-Screen",canvas.Screen,3_0_1_0_6_0_1,NA,NA,skipped,NA,396768.40000001,NA,NA,396763.80000001,396768.5,2023-12-01T12:48:45Z,396774.407,NULL,Symbol,kielezo,d,NA,NA,NA,NA,sdfdsf,NA,1,NA,NA,NA,NA,NA,NA,NA,NA,NA,NA,NA,NA,NA,NA,NA,NA,NA,NA,NA
dbf40,"""Falsch""-Screen",canvas.Screen,3_0_1_0_6_0_2,NA,NA,timeout,4999.8,396769.40000001,396757.741,396774.407,401765.874,401768.09999999,2023-12-01T12:48:50Z,401774.207,NULL,Symbol,kielezo,d,NA,NA,NA,NA,sdfdsf,0,1,NA,NA,NA,NA,NA,NA,NA,NA,NA,NA,NA,NA,NA,NA,NA,NA,NA,NA,NA
dbf40,deep,flow.Sequence,3_0_1_0_6_0,NA,NA,completion,10454.175,391311.70000002,391303.366,391311.699,401765.874,401768.59999999,2023-12-01T12:48:50Z,401774.207,NULL,Symbol,kielezo,d,NA,NA,NA,NA,sdfdsf,NA,1,NA,NA,NA,NA,NA,NA,NA,NA,NA,NA,NA,NA,NA,NA,NA,NA,NA,NA,NA
dbf40,shallow,flow.Sequence,3_0_1_0_6_1,NA,NA,skipped,NA,401768.70000002,NA,NA,401765.874,401768.80000001,2023-12-01T12:48:50Z,401774.207,NULL,Symbol,kielezo,d,NA,NA,NA,NA,sdfdsf,NA,1,NA,NA,NA,NA,NA,NA,NA,NA,NA,NA,NA,NA,NA,NA,NA,NA,NA,NA,NA
dbf40,task,flow.Sequence,3_0_1_0_6,NA,NA,completion,10454.175,391311.70000002,391303.366,391311.699,401765.874,401768.90000001,2023-12-01T12:48:50Z,401774.207,NULL,Symbol,kielezo,d,NA,NA,NA,NA,sdfdsf,NA,1,NA,NA,NA,NA,NA,NA,NA,NA,NA,NA,NA,NA,NA,NA,NA,NA,NA,NA,NA
dbf40,deep,flow.Sequence,3_0_1_0_7_0,NA,NA,skipped,NA,401769.09999999,NA,NA,401765.874,401769.20000002,2023-12-01T12:48:50Z,401774.207,NULL,Konkurrent,mshindani,s,msemaji,mvutaji,kipukusa,NA,sdfdsf,NA,1,NA,NA,NA,NA,NA,NA,NA,NA,NA,NA,NA,NA,NA,NA,NA,NA,NA,NA,NA
dbf40,Shallow Question,html.Page,3_0_1_0_7_1_0,NA,NA,form submission,20399.993000018,401769.40000001,401765.874,401774.207,422174.20000002,422175,2023-12-01T12:49:10Z,422174.515,NULL,Konkurrent,mshindani,s,msemaji,mvutaji,kipukusa,mshindani,NA,NA,1,NA,NA,NA,NA,NA,NA,NA,NA,NA,NA,NA,NA,NA,NA,NA,NA,NA,NA,NA
dbf40,"""Richtig""-Screen",canvas.Screen,3_0_1_0_7_1_1,NA,NA,timeout,4999.8,422176.90000001,422166.182,422174.515,427165.982,427168.70000002,2023-12-01T12:49:15Z,427174.315,NULL,Konkurrent,mshindani,s,msemaji,mvutaji,kipukusa,NA,sdfdsf,1,1,NA,NA,NA,NA,NA,NA,NA,NA,NA,NA,NA,NA,NA,NA,NA,NA,NA,NA,NA
dbf40,"""Falsch""-Screen",canvas.Screen,3_0_1_0_7_1_2,NA,NA,skipped,NA,427172.20000002,NA,NA,427165.982,427172.40000001,2023-12-01T12:49:15Z,427174.315,NULL,Konkurrent,mshindani,s,msemaji,mvutaji,kipukusa,NA,sdfdsf,NA,1,NA,NA,NA,NA,NA,NA,NA,NA,NA,NA,NA,NA,NA,NA,NA,NA,NA,NA,NA
dbf40,shallow,flow.Sequence,3_0_1_0_7_1,NA,NA,completion,25391.775,401769.40000001,401765.874,401774.207,427165.982,427172.5,2023-12-01T12:49:15Z,427174.315,NULL,Konkurrent,mshindani,s,msemaji,mvutaji,kipukusa,NA,sdfdsf,NA,1,NA,NA,NA,NA,NA,NA,NA,NA,NA,NA,NA,NA,NA,NA,NA,NA,NA,NA,NA
dbf40,task,flow.Sequence,3_0_1_0_7,NA,NA,completion,25391.775,401769.09999999,401765.874,401774.207,427165.982,427172.59999999,2023-12-01T12:49:15Z,427174.315,NULL,Konkurrent,mshindani,s,msemaji,mvutaji,kipukusa,NA,sdfdsf,NA,1,NA,NA,NA,NA,NA,NA,NA,NA,NA,NA,NA,NA,NA,NA,NA,NA,NA,NA,NA
dbf40,block,flow.Loop,3_0_1_0,NA,NA,completion,116312.421,310855.5,310828.562,310853.561,427165.982,427172.80000001,2023-12-01T12:49:15Z,427174.315,NULL,NA,NA,NA,NA,NA,NA,NA,sdfdsf,NA,1,NA,NA,NA,NA,NA,NA,NA,NA,NA,NA,NA,NA,NA,NA,NA,NA,NA,NA,NA
dbf40,weiter,canvas.Screen,3_0_1_1,sdf,keypress(Space),response,3311.9850000119,427172.90000001,427165.982,427174.315,430486.30000001,430496.5,2023-12-01T12:49:19Z,430516.265,NULL,NA,NA,NA,NA,NA,NA,NA,sdfdsf,NA,1,NA,NA,NA,NA,NA,NA,NA,NA,NA,NA,NA,NA,NA,NA,NA,NA,NA,NA,NA
dbf40,check continue,flow.Sequence,3_0_1,NA,NA,completion,119632.73900001,310855.5,310828.562,310853.561,430486.30000001,430496.90000001,2023-12-01T12:49:19Z,430516.265,NULL,NA,NA,NA,NA,NA,NA,NA,sdfdsf,NA,1,NA,NA,NA,NA,NA,NA,NA,NA,NA,NA,NA,NA,NA,NA,NA,NA,NA,NA,NA
dbf40,Deep Question,html.Page,3_0_2_0_0_0_0,NA,NA,form submission,9231.6350000059,430517,430490.849,430516.265,439747.90000001,439748.70000002,2023-12-01T12:49:28Z,439757.562,NULL,Körper,kiwiliwili,d,NA,NA,NA,kiliwiliwili,NA,NA,2,NA,NA,NA,NA,NA,NA,NA,NA,NA,NA,NA,NA,NA,NA,NA,NA,NA,NA,NA
dbf40,"""Richtig""-Screen",canvas.Screen,3_0_2_0_0_0_1,NA,NA,skipped,NA,439752.20000002,NA,NA,439747.90000001,439752.40000001,2023-12-01T12:49:28Z,439757.562,NULL,Körper,kiwiliwili,d,NA,NA,NA,NA,sdf,NA,2,NA,NA,NA,NA,NA,NA,NA,NA,NA,NA,NA,NA,NA,NA,NA,NA,NA,NA,NA
dbf40,"""Falsch""-Screen",canvas.Screen,3_0_2_0_0_0_2,NA,NA,timeout,5000.376,439753.09999999,439740.896,439757.562,444749.605,444751.70000002,2023-12-01T12:49:33Z,444757.938,NULL,Körper,kiwiliwili,d,NA,NA,NA,NA,sdf,0,2,NA,NA,NA,NA,NA,NA,NA,NA,NA,NA,NA,NA,NA,NA,NA,NA,NA,NA,NA
dbf40,deep,flow.Sequence,3_0_2_0_0_0,NA,NA,completion,14233.34,430517,430490.849,430516.265,444749.605,444752.20000002,2023-12-01T12:49:33Z,444757.938,NULL,Körper,kiwiliwili,d,NA,NA,NA,NA,sdf,NA,2,NA,NA,NA,NA,NA,NA,NA,NA,NA,NA,NA,NA,NA,NA,NA,NA,NA,NA,NA
dbf40,shallow,flow.Sequence,3_0_2_0_0_1,NA,NA,skipped,NA,444752.30000001,NA,NA,444749.605,444752.5,2023-12-01T12:49:33Z,444757.938,NULL,Körper,kiwiliwili,d,NA,NA,NA,NA,sdf,NA,2,NA,NA,NA,NA,NA,NA,NA,NA,NA,NA,NA,NA,NA,NA,NA,NA,NA,NA,NA
dbf40,task,flow.Sequence,3_0_2_0_0,NA,NA,completion,14233.34,430517,430490.849,430516.265,444749.605,444752.59999999,2023-12-01T12:49:33Z,444757.938,NULL,Körper,kiwiliwili,d,NA,NA,NA,NA,sdf,NA,2,NA,NA,NA,NA,NA,NA,NA,NA,NA,NA,NA,NA,NA,NA,NA,NA,NA,NA,NA
dbf40,deep,flow.Sequence,3_0_2_0_1_0,NA,NA,skipped,NA,444752.80000001,NA,NA,444749.605,444752.90000001,2023-12-01T12:49:33Z,444757.938,NULL,System,maongozi,s,chokochoko,nuksani,mitaani,NA,sdf,NA,2,NA,NA,NA,NA,NA,NA,NA,NA,NA,NA,NA,NA,NA,NA,NA,NA,NA,NA,NA
dbf40,Shallow Question,html.Page,3_0_2_0_1_1_0,NA,NA,form submission,5680.9620000059,444753,444749.605,444757.938,450438.90000001,450439.40000001,2023-12-01T12:49:39Z,450441.044,NULL,System,maongozi,s,chokochoko,nuksani,mitaani,maongozi,NA,NA,2,NA,NA,NA,NA,NA,NA,NA,NA,NA,NA,NA,NA,NA,NA,NA,NA,NA,NA,NA
dbf40,"""Richtig""-Screen",canvas.Screen,3_0_2_0_1_1_1,NA,NA,timeout,5000.238,450442.30000001,450432.711,450441.044,455432.949,455436.80000001,2023-12-01T12:49:44Z,455441.282,NULL,System,maongozi,s,chokochoko,nuksani,mitaani,NA,sdf,1,2,NA,NA,NA,NA,NA,NA,NA,NA,NA,NA,NA,NA,NA,NA,NA,NA,NA,NA,NA
dbf40,"""Falsch""-Screen",canvas.Screen,3_0_2_0_1_1_2,NA,NA,skipped,NA,455441.5,NA,NA,455432.949,455441.59999999,2023-12-01T12:49:44Z,455441.282,NULL,System,maongozi,s,chokochoko,nuksani,mitaani,NA,sdf,NA,2,NA,NA,NA,NA,NA,NA,NA,NA,NA,NA,NA,NA,NA,NA,NA,NA,NA,NA,NA
dbf40,shallow,flow.Sequence,3_0_2_0_1_1,NA,NA,completion,10675.011,444753,444749.605,444757.938,455432.949,455441.80000001,2023-12-01T12:49:44Z,455441.282,NULL,System,maongozi,s,chokochoko,nuksani,mitaani,NA,sdf,NA,2,NA,NA,NA,NA,NA,NA,NA,NA,NA,NA,NA,NA,NA,NA,NA,NA,NA,NA,NA
dbf40,task,flow.Sequence,3_0_2_0_1,NA,NA,completion,10675.011,444752.70000002,444749.605,444757.938,455432.949,455441.90000001,2023-12-01T12:49:44Z,455441.282,NULL,System,maongozi,s,chokochoko,nuksani,mitaani,NA,sdf,NA,2,NA,NA,NA,NA,NA,NA,NA,NA,NA,NA,NA,NA,NA,NA,NA,NA,NA,NA,NA
dbf40,Deep Question,html.Page,3_0_2_0_2_0_0,NA,NA,form submission,8546.718,455442.09999999,455432.949,455441.282,463988,463988.30000001,2023-12-01T12:49:52Z,463990.94,NULL,Zuwachs,nyongeza,d,NA,NA,NA,nyongeza,NA,NA,2,NA,NA,NA,NA,NA,NA,NA,NA,NA,NA,NA,NA,NA,NA,NA,NA,NA,NA,NA
dbf40,"""Richtig""-Screen",canvas.Screen,3_0_2_0_2_0_1,NA,NA,timeout,4996.189,463990.90000001,463982.607,463990.94,468978.796,468982.40000001,2023-12-01T12:49:57Z,468987.129,NULL,Zuwachs,nyongeza,d,NA,NA,NA,NA,sdf,1,2,NA,NA,NA,NA,NA,NA,NA,NA,NA,NA,NA,NA,NA,NA,NA,NA,NA,NA,NA
dbf40,"""Falsch""-Screen",canvas.Screen,3_0_2_0_2_0_2,NA,NA,skipped,NA,468987,NA,NA,468978.796,468987.30000001,2023-12-01T12:49:57Z,468987.129,NULL,Zuwachs,nyongeza,d,NA,NA,NA,NA,sdf,NA,2,NA,NA,NA,NA,NA,NA,NA,NA,NA,NA,NA,NA,NA,NA,NA,NA,NA,NA,NA
dbf40,deep,flow.Sequence,3_0_2_0_2_0,NA,NA,completion,13537.514,455442.09999999,455432.949,455441.282,468978.796,468987.40000001,2023-12-01T12:49:57Z,468987.129,NULL,Zuwachs,nyongeza,d,NA,NA,NA,NA,sdf,NA,2,NA,NA,NA,NA,NA,NA,NA,NA,NA,NA,NA,NA,NA,NA,NA,NA,NA,NA,NA
dbf40,shallow,flow.Sequence,3_0_2_0_2_1,NA,NA,skipped,NA,468987.5,NA,NA,468978.796,468987.5,2023-12-01T12:49:57Z,468987.129,NULL,Zuwachs,nyongeza,d,NA,NA,NA,NA,sdf,NA,2,NA,NA,NA,NA,NA,NA,NA,NA,NA,NA,NA,NA,NA,NA,NA,NA,NA,NA,NA
dbf40,task,flow.Sequence,3_0_2_0_2,NA,NA,completion,13537.514,455442,455432.949,455441.282,468978.796,468987.59999999,2023-12-01T12:49:57Z,468987.129,NULL,Zuwachs,nyongeza,d,NA,NA,NA,NA,sdf,NA,2,NA,NA,NA,NA,NA,NA,NA,NA,NA,NA,NA,NA,NA,NA,NA,NA,NA,NA,NA
dbf40,Deep Question,html.Page,3_0_2_0_3_0_0,NA,NA,form submission,12853.771000006,468987.80000001,468978.796,468987.129,481840.90000001,481841.30000001,2023-12-01T12:50:10Z,481845.363,NULL,Übersicht,kilindo,d,NA,NA,NA,kilifjdk,NA,NA,2,NA,NA,NA,NA,NA,NA,NA,NA,NA,NA,NA,NA,NA,NA,NA,NA,NA,NA,NA
dbf40,"""Richtig""-Screen",canvas.Screen,3_0_2_0_3_0_1,NA,NA,skipped,NA,481844.09999999,NA,NA,481840.90000001,481844.30000001,2023-12-01T12:50:10Z,481845.363,NULL,Übersicht,kilindo,d,NA,NA,NA,NA,sdf,NA,2,NA,NA,NA,NA,NA,NA,NA,NA,NA,NA,NA,NA,NA,NA,NA,NA,NA,NA,NA
dbf40,"""Falsch""-Screen",canvas.Screen,3_0_2_0_3_0_2,NA,NA,timeout,4999.8,481844.80000001,481837.03,481845.363,486836.83,486840.30000001,2023-12-01T12:50:15Z,486845.163,NULL,Übersicht,kilindo,d,NA,NA,NA,NA,sdf,0,2,NA,NA,NA,NA,NA,NA,NA,NA,NA,NA,NA,NA,NA,NA,NA,NA,NA,NA,NA
dbf40,deep,flow.Sequence,3_0_2_0_3_0,NA,NA,completion,17849.701,468987.80000001,468978.796,468987.129,486836.83,486840.80000001,2023-12-01T12:50:15Z,486845.163,NULL,Übersicht,kilindo,d,NA,NA,NA,NA,sdf,NA,2,NA,NA,NA,NA,NA,NA,NA,NA,NA,NA,NA,NA,NA,NA,NA,NA,NA,NA,NA
dbf40,shallow,flow.Sequence,3_0_2_0_3_1,NA,NA,skipped,NA,486840.90000001,NA,NA,486836.83,486841.09999999,2023-12-01T12:50:15Z,486845.163,NULL,Übersicht,kilindo,d,NA,NA,NA,NA,sdf,NA,2,NA,NA,NA,NA,NA,NA,NA,NA,NA,NA,NA,NA,NA,NA,NA,NA,NA,NA,NA
dbf40,task,flow.Sequence,3_0_2_0_3,NA,NA,completion,17849.701,468987.70000002,468978.796,468987.129,486836.83,486841.20000002,2023-12-01T12:50:15Z,486845.163,NULL,Übersicht,kilindo,d,NA,NA,NA,NA,sdf,NA,2,NA,NA,NA,NA,NA,NA,NA,NA,NA,NA,NA,NA,NA,NA,NA,NA,NA,NA,NA
dbf40,deep,flow.Sequence,3_0_2_0_4_0,NA,NA,skipped,NA,486841.40000001,NA,NA,486836.83,486841.40000001,2023-12-01T12:50:15Z,486845.163,NULL,Vorsorge,tahadhari,s,ufafanuzi,makini,mashambani,NA,sdf,NA,2,NA,NA,NA,NA,NA,NA,NA,NA,NA,NA,NA,NA,NA,NA,NA,NA,NA,NA,NA
dbf40,Shallow Question,html.Page,3_0_2_0_4_1_0,NA,NA,form submission,9094.0370000179,486841.59999999,486836.83,486845.163,495939.20000002,495940.20000002,2023-12-01T12:50:24Z,495949.58,NULL,Vorsorge,tahadhari,s,ufafanuzi,makini,mashambani,tahadhari,NA,NA,2,NA,NA,NA,NA,NA,NA,NA,NA,NA,NA,NA,NA,NA,NA,NA,NA,NA,NA,NA
dbf40,"""Richtig""-Screen",canvas.Screen,3_0_2_0_4_1_1,NA,NA,timeout,4999.8,495943.40000001,495932.914,495949.58,500941.047,500944.09999999,2023-12-01T12:50:29Z,500949.38,NULL,Vorsorge,tahadhari,s,ufafanuzi,makini,mashambani,NA,sdf,1,2,NA,NA,NA,NA,NA,NA,NA,NA,NA,NA,NA,NA,NA,NA,NA,NA,NA,NA,NA
dbf40,"""Falsch""-Screen",canvas.Screen,3_0_2_0_4_1_2,NA,NA,skipped,NA,500947.5,NA,NA,500941.047,500947.90000001,2023-12-01T12:50:29Z,500949.38,NULL,Vorsorge,tahadhari,s,ufafanuzi,makini,mashambani,NA,sdf,NA,2,NA,NA,NA,NA,NA,NA,NA,NA,NA,NA,NA,NA,NA,NA,NA,NA,NA,NA,NA
dbf40,shallow,flow.Sequence,3_0_2_0_4_1,NA,NA,completion,14095.884,486841.5,486836.83,486845.163,500941.047,500948,2023-12-01T12:50:29Z,500949.38,NULL,Vorsorge,tahadhari,s,ufafanuzi,makini,mashambani,NA,sdf,NA,2,NA,NA,NA,NA,NA,NA,NA,NA,NA,NA,NA,NA,NA,NA,NA,NA,NA,NA,NA
dbf40,task,flow.Sequence,3_0_2_0_4,NA,NA,completion,14095.884,486841.30000001,486836.83,486845.163,500941.047,500948,2023-12-01T12:50:29Z,500949.38,NULL,Vorsorge,tahadhari,s,ufafanuzi,makini,mashambani,NA,sdf,NA,2,NA,NA,NA,NA,NA,NA,NA,NA,NA,NA,NA,NA,NA,NA,NA,NA,NA,NA,NA
dbf40,deep,flow.Sequence,3_0_2_0_5_0,NA,NA,skipped,NA,500948.09999999,NA,NA,500941.047,500948.20000002,2023-12-01T12:50:29Z,500949.38,NULL,Konkurrent,mshindani,s,msemaji,mvutaji,kipukusa,NA,sdf,NA,2,NA,NA,NA,NA,NA,NA,NA,NA,NA,NA,NA,NA,NA,NA,NA,NA,NA,NA,NA
dbf40,Shallow Question,html.Page,3_0_2_0_5_1_0,NA,NA,form submission,7307.219999994,500948.30000001,500941.047,500949.38,508256.59999999,508257.30000001,2023-12-01T12:50:37Z,508266.179,NULL,Konkurrent,mshindani,s,msemaji,mvutaji,kipukusa,mshindani,NA,NA,2,NA,NA,NA,NA,NA,NA,NA,NA,NA,NA,NA,NA,NA,NA,NA,NA,NA,NA,NA
dbf40,"""Richtig""-Screen",canvas.Screen,3_0_2_0_5_1_1,NA,NA,timeout,4999.8,508260.5,508249.513,508266.179,513257.646,513261.09999999,2023-12-01T12:50:42Z,513265.979,NULL,Konkurrent,mshindani,s,msemaji,mvutaji,kipukusa,NA,sdf,1,2,NA,NA,NA,NA,NA,NA,NA,NA,NA,NA,NA,NA,NA,NA,NA,NA,NA,NA,NA
dbf40,"""Falsch""-Screen",canvas.Screen,3_0_2_0_5_1_2,NA,NA,skipped,NA,513264.09999999,NA,NA,513257.646,513264.40000001,2023-12-01T12:50:42Z,513265.979,NULL,Konkurrent,mshindani,s,msemaji,mvutaji,kipukusa,NA,sdf,NA,2,NA,NA,NA,NA,NA,NA,NA,NA,NA,NA,NA,NA,NA,NA,NA,NA,NA,NA,NA
dbf40,shallow,flow.Sequence,3_0_2_0_5_1,NA,NA,completion,12308.266,500948.30000001,500941.047,500949.38,513257.646,513264.80000001,2023-12-01T12:50:42Z,513265.979,NULL,Konkurrent,mshindani,s,msemaji,mvutaji,kipukusa,NA,sdf,NA,2,NA,NA,NA,NA,NA,NA,NA,NA,NA,NA,NA,NA,NA,NA,NA,NA,NA,NA,NA
dbf40,task,flow.Sequence,3_0_2_0_5,NA,NA,completion,12308.266,500948.09999999,500941.047,500949.38,513257.646,513265,2023-12-01T12:50:42Z,513265.979,NULL,Konkurrent,mshindani,s,msemaji,mvutaji,kipukusa,NA,sdf,NA,2,NA,NA,NA,NA,NA,NA,NA,NA,NA,NA,NA,NA,NA,NA,NA,NA,NA,NA,NA
dbf40,Deep Question,html.Page,3_0_2_0_6_0_0,NA,NA,form submission,14690.620999994,513265.09999999,513257.646,513265.979,527956.59999999,527957.20000002,2023-12-01T12:50:56Z,527966.215,NULL,Symbol,kielezo,d,NA,NA,NA,klk,NA,NA,2,NA,NA,NA,NA,NA,NA,NA,NA,NA,NA,NA,NA,NA,NA,NA,NA,NA,NA,NA
dbf40,"""Richtig""-Screen",canvas.Screen,3_0_2_0_6_0_1,NA,NA,skipped,NA,527960.59999999,NA,NA,527956.59999999,527960.70000002,2023-12-01T12:50:56Z,527966.215,NULL,Symbol,kielezo,d,NA,NA,NA,NA,sdf,NA,2,NA,NA,NA,NA,NA,NA,NA,NA,NA,NA,NA,NA,NA,NA,NA,NA,NA,NA,NA
dbf40,"""Falsch""-Screen",canvas.Screen,3_0_2_0_6_0_2,NA,NA,timeout,4999.8,527961.40000001,527949.549,527966.215,532957.682,532961,2023-12-01T12:51:01Z,532966.015,NULL,Symbol,kielezo,d,NA,NA,NA,NA,sdf,0,2,NA,NA,NA,NA,NA,NA,NA,NA,NA,NA,NA,NA,NA,NA,NA,NA,NA,NA,NA
dbf40,deep,flow.Sequence,3_0_2_0_6_0,NA,NA,completion,19691.703,513265.09999999,513257.646,513265.979,532957.682,532961.59999999,2023-12-01T12:51:01Z,532966.015,NULL,Symbol,kielezo,d,NA,NA,NA,NA,sdf,NA,2,NA,NA,NA,NA,NA,NA,NA,NA,NA,NA,NA,NA,NA,NA,NA,NA,NA,NA,NA
dbf40,shallow,flow.Sequence,3_0_2_0_6_1,NA,NA,skipped,NA,532961.59999999,NA,NA,532957.682,532961.80000001,2023-12-01T12:51:01Z,532966.015,NULL,Symbol,kielezo,d,NA,NA,NA,NA,sdf,NA,2,NA,NA,NA,NA,NA,NA,NA,NA,NA,NA,NA,NA,NA,NA,NA,NA,NA,NA,NA
dbf40,task,flow.Sequence,3_0_2_0_6,NA,NA,completion,19691.703,513265,513257.646,513265.979,532957.682,532962,2023-12-01T12:51:01Z,532966.015,NULL,Symbol,kielezo,d,NA,NA,NA,NA,sdf,NA,2,NA,NA,NA,NA,NA,NA,NA,NA,NA,NA,NA,NA,NA,NA,NA,NA,NA,NA,NA
dbf40,deep,flow.Sequence,3_0_2_0_7_0,NA,NA,skipped,NA,532962.09999999,NA,NA,532957.682,532962.20000002,2023-12-01T12:51:01Z,532966.015,NULL,Lawine,banguko,s,maambukizi,usuluhishi,chekechea,NA,sdf,NA,2,NA,NA,NA,NA,NA,NA,NA,NA,NA,NA,NA,NA,NA,NA,NA,NA,NA,NA,NA
dbf40,Shallow Question,html.Page,3_0_2_0_7_1_0,NA,NA,form submission,29490.685000018,532962.30000000994,532957.682,532966.015,562456.70000002,562457.20000002,2023-12-01T12:51:31Z,562462.111,NULL,Lawine,banguko,s,maambukizi,usuluhishi,chekechea,banguko,NA,NA,2,NA,NA,NA,NA,NA,NA,NA,NA,NA,NA,NA,NA,NA,NA,NA,NA,NA,NA,NA
dbf40,"""Richtig""-Screen",canvas.Screen,3_0_2_0_7_1_1,NA,NA,timeout,4999.7999999999,562460.30000001,562453.778,562462.111,567453.578,567456.59999999,2023-12-01T12:51:36Z,567461.911,NULL,Lawine,banguko,s,maambukizi,usuluhishi,chekechea,NA,sdf,1,2,NA,NA,NA,NA,NA,NA,NA,NA,NA,NA,NA,NA,NA,NA,NA,NA,NA,NA,NA
dbf40,"""Falsch""-Screen",canvas.Screen,3_0_2_0_7_1_2,NA,NA,skipped,NA,567461,NA,NA,567453.578,567461.20000002,2023-12-01T12:51:36Z,567461.911,NULL,Lawine,banguko,s,maambukizi,usuluhishi,chekechea,NA,sdf,NA,2,NA,NA,NA,NA,NA,NA,NA,NA,NA,NA,NA,NA,NA,NA,NA,NA,NA,NA,NA
dbf40,shallow,flow.Sequence,3_0_2_0_7_1,NA,NA,completion,34487.563,532962.30000000994,532957.682,532966.015,567453.578,567461.30000001,2023-12-01T12:51:36Z,567461.911,NULL,Lawine,banguko,s,maambukizi,usuluhishi,chekechea,NA,sdf,NA,2,NA,NA,NA,NA,NA,NA,NA,NA,NA,NA,NA,NA,NA,NA,NA,NA,NA,NA,NA
dbf40,task,flow.Sequence,3_0_2_0_7,NA,NA,completion,34487.563,532962,532957.682,532966.015,567453.578,567461.5,2023-12-01T12:51:36Z,567461.911,NULL,Lawine,banguko,s,maambukizi,usuluhishi,chekechea,NA,sdf,NA,2,NA,NA,NA,NA,NA,NA,NA,NA,NA,NA,NA,NA,NA,NA,NA,NA,NA,NA,NA
dbf40,block,flow.Loop,3_0_2_0,NA,NA,completion,136937.313,430516.90000001,430490.849,430516.265,567453.578,567461.5,2023-12-01T12:51:36Z,567461.911,NULL,NA,NA,NA,NA,NA,NA,NA,sdf,NA,2,NA,NA,NA,NA,NA,NA,NA,NA,NA,NA,NA,NA,NA,NA,NA,NA,NA,NA,NA
dbf40,weiter,canvas.Screen,3_0_2_1,sdf,keypress(Space),response,1090.7890000179,567461.59999999,567453.578,567461.911,568552.70000002,568560.90000001,2023-12-01T12:51:37Z,568578.533,NULL,NA,NA,NA,NA,NA,NA,NA,sdf,NA,2,NA,NA,NA,NA,NA,NA,NA,NA,NA,NA,NA,NA,NA,NA,NA,NA,NA,NA,NA
dbf40,check continue,flow.Sequence,3_0_2,NA,NA,completion,138036.43500002,430516.90000001,430490.849,430516.265,568552.70000002,568561.30000001,2023-12-01T12:51:37Z,568578.533,NULL,NA,NA,NA,NA,NA,NA,NA,sdf,NA,2,NA,NA,NA,NA,NA,NA,NA,NA,NA,NA,NA,NA,NA,NA,NA,NA,NA,NA,NA
dbf40,Deep Question,html.Page,3_0_3_0_0_0_0,NA,NA,form submission,5307.066999994,568582.09999999,568553.534,568578.533,573885.59999999,573886.5,2023-12-01T12:51:42Z,573891.256,NULL,Zuwachs,nyongeza,d,NA,NA,NA,nyongeza,NA,NA,3,NA,NA,NA,NA,NA,NA,NA,NA,NA,NA,NA,NA,NA,NA,NA,NA,NA,NA,NA
dbf40,"""Richtig""-Screen",canvas.Screen,3_0_3_0_0_0_1,NA,NA,timeout,4999.7999999999,573889.70000002,573882.923,573891.256,578882.723,578885.90000001,2023-12-01T12:51:47Z,578891.056,NULL,Zuwachs,nyongeza,d,NA,NA,NA,NA,qt,1,3,NA,NA,NA,NA,NA,NA,NA,NA,NA,NA,NA,NA,NA,NA,NA,NA,NA,NA,NA
dbf40,"""Falsch""-Screen",canvas.Screen,3_0_3_0_0_0_2,NA,NA,skipped,NA,578890.80000001,NA,NA,578882.723,578891,2023-12-01T12:51:47Z,578891.056,NULL,Zuwachs,nyongeza,d,NA,NA,NA,NA,qt,NA,3,NA,NA,NA,NA,NA,NA,NA,NA,NA,NA,NA,NA,NA,NA,NA,NA,NA,NA,NA
dbf40,deep,flow.Sequence,3_0_3_0_0_0,NA,NA,completion,10304.19,568582.09999999,568553.534,568578.533,578882.723,578891.20000002,2023-12-01T12:51:47Z,578891.056,NULL,Zuwachs,nyongeza,d,NA,NA,NA,NA,qt,NA,3,NA,NA,NA,NA,NA,NA,NA,NA,NA,NA,NA,NA,NA,NA,NA,NA,NA,NA,NA
dbf40,shallow,flow.Sequence,3_0_3_0_0_1,NA,NA,skipped,NA,578891.20000002,NA,NA,578882.723,578891.30000001,2023-12-01T12:51:47Z,578891.056,NULL,Zuwachs,nyongeza,d,NA,NA,NA,NA,qt,NA,3,NA,NA,NA,NA,NA,NA,NA,NA,NA,NA,NA,NA,NA,NA,NA,NA,NA,NA,NA
dbf40,task,flow.Sequence,3_0_3_0_0,NA,NA,completion,10304.19,568582.09999999,568553.534,568578.533,578882.723,578891.30000001,2023-12-01T12:51:47Z,578891.056,NULL,Zuwachs,nyongeza,d,NA,NA,NA,NA,qt,NA,3,NA,NA,NA,NA,NA,NA,NA,NA,NA,NA,NA,NA,NA,NA,NA,NA,NA,NA,NA
dbf40,Deep Question,html.Page,3_0_3_0_1_0_0,NA,NA,form submission,7631.444,578891.5,578882.723,578891.056,586522.5,586523,2023-12-01T12:51:55Z,586528.661,NULL,Symbol,kielezo,d,NA,NA,NA,kielezo,NA,NA,3,NA,NA,NA,NA,NA,NA,NA,NA,NA,NA,NA,NA,NA,NA,NA,NA,NA,NA,NA
dbf40,"""Richtig""-Screen",canvas.Screen,3_0_3_0_1_0_1,NA,NA,timeout,4996.091,586525.80000000994,586520.328,586528.661,591516.419,591518.70000002,2023-12-01T12:52:00Z,591524.752,NULL,Symbol,kielezo,d,NA,NA,NA,NA,qt,1,3,NA,NA,NA,NA,NA,NA,NA,NA,NA,NA,NA,NA,NA,NA,NA,NA,NA,NA,NA
dbf40,"""Falsch""-Screen",canvas.Screen,3_0_3_0_1_0_2,NA,NA,skipped,NA,591522.30000001,NA,NA,591516.419,591522.5,2023-12-01T12:52:00Z,591524.752,NULL,Symbol,kielezo,d,NA,NA,NA,NA,qt,NA,3,NA,NA,NA,NA,NA,NA,NA,NA,NA,NA,NA,NA,NA,NA,NA,NA,NA,NA,NA
dbf40,deep,flow.Sequence,3_0_3_0_1_0,NA,NA,completion,12625.363,578891.40000001,578882.723,578891.056,591516.419,591522.70000002,2023-12-01T12:52:00Z,591524.752,NULL,Symbol,kielezo,d,NA,NA,NA,NA,qt,NA,3,NA,NA,NA,NA,NA,NA,NA,NA,NA,NA,NA,NA,NA,NA,NA,NA,NA,NA,NA
dbf40,shallow,flow.Sequence,3_0_3_0_1_1,NA,NA,skipped,NA,591522.70000002,NA,NA,591516.419,591522.80000001,2023-12-01T12:52:00Z,591524.752,NULL,Symbol,kielezo,d,NA,NA,NA,NA,qt,NA,3,NA,NA,NA,NA,NA,NA,NA,NA,NA,NA,NA,NA,NA,NA,NA,NA,NA,NA,NA
dbf40,task,flow.Sequence,3_0_3_0_1,NA,NA,completion,12625.363,578891.40000001,578882.723,578891.056,591516.419,591522.90000001,2023-12-01T12:52:00Z,591524.752,NULL,Symbol,kielezo,d,NA,NA,NA,NA,qt,NA,3,NA,NA,NA,NA,NA,NA,NA,NA,NA,NA,NA,NA,NA,NA,NA,NA,NA,NA,NA
dbf40,Deep Question,html.Page,3_0_3_0_2_0_0,NA,NA,form submission,6140.4480000179,591523,591516.419,591524.752,597665.20000002,597665.59999999,2023-12-01T12:52:06Z,597674.506,NULL,Körper,kiwiliwili,d,NA,NA,NA,kiwiliwili,NA,NA,3,NA,NA,NA,NA,NA,NA,NA,NA,NA,NA,NA,NA,NA,NA,NA,NA,NA,NA,NA
dbf40,"""Richtig""-Screen",canvas.Screen,3_0_3_0_2_0_1,NA,NA,timeout,5000.257,597668.5,597657.84,597674.506,602666.43,602670.40000001,2023-12-01T12:52:11Z,602674.763,NULL,Körper,kiwiliwili,d,NA,NA,NA,NA,qt,1,3,NA,NA,NA,NA,NA,NA,NA,NA,NA,NA,NA,NA,NA,NA,NA,NA,NA,NA,NA
dbf40,"""Falsch""-Screen",canvas.Screen,3_0_3_0_2_0_2,NA,NA,skipped,NA,602674.5,NA,NA,602666.43,602674.59999999,2023-12-01T12:52:11Z,602674.763,NULL,Körper,kiwiliwili,d,NA,NA,NA,NA,qt,NA,3,NA,NA,NA,NA,NA,NA,NA,NA,NA,NA,NA,NA,NA,NA,NA,NA,NA,NA,NA
dbf40,deep,flow.Sequence,3_0_3_0_2_0,NA,NA,completion,11141.678,591523,591516.419,591524.752,602666.43,602674.90000001,2023-12-01T12:52:11Z,602674.763,NULL,Körper,kiwiliwili,d,NA,NA,NA,NA,qt,NA,3,NA,NA,NA,NA,NA,NA,NA,NA,NA,NA,NA,NA,NA,NA,NA,NA,NA,NA,NA
dbf40,shallow,flow.Sequence,3_0_3_0_2_1,NA,NA,skipped,NA,602675,NA,NA,602666.43,602675.09999999,2023-12-01T12:52:11Z,602674.763,NULL,Körper,kiwiliwili,d,NA,NA,NA,NA,qt,NA,3,NA,NA,NA,NA,NA,NA,NA,NA,NA,NA,NA,NA,NA,NA,NA,NA,NA,NA,NA
dbf40,task,flow.Sequence,3_0_3_0_2,NA,NA,completion,11141.678,591522.90000001,591516.419,591524.752,602666.43,602675.20000002,2023-12-01T12:52:11Z,602674.763,NULL,Körper,kiwiliwili,d,NA,NA,NA,NA,qt,NA,3,NA,NA,NA,NA,NA,NA,NA,NA,NA,NA,NA,NA,NA,NA,NA,NA,NA,NA,NA
dbf40,deep,flow.Sequence,3_0_3_0_3_0,NA,NA,skipped,NA,602675.30000001,NA,NA,602666.43,602675.40000001,2023-12-01T12:52:11Z,602674.763,NULL,Lawine,banguko,s,maambukizi,usuluhishi,chekechea,NA,qt,NA,3,NA,NA,NA,NA,NA,NA,NA,NA,NA,NA,NA,NA,NA,NA,NA,NA,NA,NA,NA
dbf40,Shallow Question,html.Page,3_0_3_0_3_1_0,NA,NA,form submission,2970.6370000059,602675.5,602666.43,602674.763,605645.40000001,605646,2023-12-01T12:52:14Z,605649.644,NULL,Lawine,banguko,s,maambukizi,usuluhishi,chekechea,banguko,NA,NA,3,NA,NA,NA,NA,NA,NA,NA,NA,NA,NA,NA,NA,NA,NA,NA,NA,NA,NA,NA
dbf40,"""Richtig""-Screen",canvas.Screen,3_0_3_0_3_1_1,NA,NA,timeout,4999.8,605646.90000001,605641.311,605649.644,610641.111,610643.59999999,2023-12-01T12:52:19Z,610649.444,NULL,Lawine,banguko,s,maambukizi,usuluhishi,chekechea,NA,qt,1,3,NA,NA,NA,NA,NA,NA,NA,NA,NA,NA,NA,NA,NA,NA,NA,NA,NA,NA,NA
dbf40,"""Falsch""-Screen",canvas.Screen,3_0_3_0_3_1_2,NA,NA,skipped,NA,610648.80000000994,NA,NA,610641.111,610649,2023-12-01T12:52:19Z,610649.444,NULL,Lawine,banguko,s,maambukizi,usuluhishi,chekechea,NA,qt,NA,3,NA,NA,NA,NA,NA,NA,NA,NA,NA,NA,NA,NA,NA,NA,NA,NA,NA,NA,NA
dbf40,shallow,flow.Sequence,3_0_3_0_3_1,NA,NA,completion,7966.348,602675.5,602666.43,602674.763,610641.111,610649.09999999,2023-12-01T12:52:19Z,610649.444,NULL,Lawine,banguko,s,maambukizi,usuluhishi,chekechea,NA,qt,NA,3,NA,NA,NA,NA,NA,NA,NA,NA,NA,NA,NA,NA,NA,NA,NA,NA,NA,NA,NA
dbf40,task,flow.Sequence,3_0_3_0_3,NA,NA,completion,7966.348,602675.20000002,602666.43,602674.763,610641.111,610649.20000002,2023-12-01T12:52:19Z,610649.444,NULL,Lawine,banguko,s,maambukizi,usuluhishi,chekechea,NA,qt,NA,3,NA,NA,NA,NA,NA,NA,NA,NA,NA,NA,NA,NA,NA,NA,NA,NA,NA,NA,NA
dbf40,deep,flow.Sequence,3_0_3_0_4_0,NA,NA,skipped,NA,610649.30000001,NA,NA,610641.111,610649.30000001,2023-12-01T12:52:19Z,610649.444,NULL,Vorsorge,tahadhari,s,ufafanuzi,makini,mashambani,NA,qt,NA,3,NA,NA,NA,NA,NA,NA,NA,NA,NA,NA,NA,NA,NA,NA,NA,NA,NA,NA,NA
dbf40,Shallow Question,html.Page,3_0_3_0_4_1_0,NA,NA,form submission,7357.655999994,610649.40000001,610641.111,610649.444,618007.09999999,618007.70000002,2023-12-01T12:52:26Z,618012.074,NULL,Vorsorge,tahadhari,s,ufafanuzi,makini,mashambani,tahadhari,NA,NA,3,NA,NA,NA,NA,NA,NA,NA,NA,NA,NA,NA,NA,NA,NA,NA,NA,NA,NA,NA
dbf40,"""Richtig""-Screen",canvas.Screen,3_0_3_0_4_1_1,NA,NA,timeout,4996.0429999999,618010.40000001,618003.741,618012.074,622999.784,623002.30000001,2023-12-01T12:52:31Z,623008.117,NULL,Vorsorge,tahadhari,s,ufafanuzi,makini,mashambani,NA,qt,1,3,NA,NA,NA,NA,NA,NA,NA,NA,NA,NA,NA,NA,NA,NA,NA,NA,NA,NA,NA
dbf40,"""Falsch""-Screen",canvas.Screen,3_0_3_0_4_1_2,NA,NA,skipped,NA,623006.40000001,NA,NA,622999.784,623006.59999999,2023-12-01T12:52:31Z,623008.117,NULL,Vorsorge,tahadhari,s,ufafanuzi,makini,mashambani,NA,qt,NA,3,NA,NA,NA,NA,NA,NA,NA,NA,NA,NA,NA,NA,NA,NA,NA,NA,NA,NA,NA
dbf40,shallow,flow.Sequence,3_0_3_0_4_1,NA,NA,completion,12350.34,610649.40000001,610641.111,610649.444,622999.784,623006.70000002,2023-12-01T12:52:31Z,623008.117,NULL,Vorsorge,tahadhari,s,ufafanuzi,makini,mashambani,NA,qt,NA,3,NA,NA,NA,NA,NA,NA,NA,NA,NA,NA,NA,NA,NA,NA,NA,NA,NA,NA,NA
dbf40,task,flow.Sequence,3_0_3_0_4,NA,NA,completion,12350.34,610649.30000001,610641.111,610649.444,622999.784,623006.80000001,2023-12-01T12:52:31Z,623008.117,NULL,Vorsorge,tahadhari,s,ufafanuzi,makini,mashambani,NA,qt,NA,3,NA,NA,NA,NA,NA,NA,NA,NA,NA,NA,NA,NA,NA,NA,NA,NA,NA,NA,NA
dbf40,Deep Question,html.Page,3_0_3_0_5_0_0,NA,NA,form submission,7240.383,623006.90000001,622999.784,623008.117,630248.5,630248.90000001,2023-12-01T12:52:39Z,630257.827,NULL,Übersicht,kilindo,d,NA,NA,NA,kilindo,NA,NA,3,NA,NA,NA,NA,NA,NA,NA,NA,NA,NA,NA,NA,NA,NA,NA,NA,NA,NA,NA
dbf40,"""Richtig""-Screen",canvas.Screen,3_0_3_0_5_0_1,NA,NA,timeout,5000.303,630251.70000002,630241.161,630257.827,635249.797,635253.5,2023-12-01T12:52:44Z,635258.13,NULL,Übersicht,kilindo,d,NA,NA,NA,NA,qt,1,3,NA,NA,NA,NA,NA,NA,NA,NA,NA,NA,NA,NA,NA,NA,NA,NA,NA,NA,NA
dbf40,"""Falsch""-Screen",canvas.Screen,3_0_3_0_5_0_2,NA,NA,skipped,NA,635257.70000002,NA,NA,635249.797,635257.90000001,2023-12-01T12:52:44Z,635258.13,NULL,Übersicht,kilindo,d,NA,NA,NA,NA,qt,NA,3,NA,NA,NA,NA,NA,NA,NA,NA,NA,NA,NA,NA,NA,NA,NA,NA,NA,NA,NA
dbf40,deep,flow.Sequence,3_0_3_0_5_0,NA,NA,completion,12241.68,623006.90000001,622999.784,623008.117,635249.797,635258.09999999,2023-12-01T12:52:44Z,635258.13,NULL,Übersicht,kilindo,d,NA,NA,NA,NA,qt,NA,3,NA,NA,NA,NA,NA,NA,NA,NA,NA,NA,NA,NA,NA,NA,NA,NA,NA,NA,NA
dbf40,shallow,flow.Sequence,3_0_3_0_5_1,NA,NA,skipped,NA,635258.09999999,NA,NA,635249.797,635258.20000002,2023-12-01T12:52:44Z,635258.13,NULL,Übersicht,kilindo,d,NA,NA,NA,NA,qt,NA,3,NA,NA,NA,NA,NA,NA,NA,NA,NA,NA,NA,NA,NA,NA,NA,NA,NA,NA,NA
dbf40,task,flow.Sequence,3_0_3_0_5,NA,NA,completion,12241.68,623006.90000001,622999.784,623008.117,635249.797,635258.30000001,2023-12-01T12:52:44Z,635258.13,NULL,Übersicht,kilindo,d,NA,NA,NA,NA,qt,NA,3,NA,NA,NA,NA,NA,NA,NA,NA,NA,NA,NA,NA,NA,NA,NA,NA,NA,NA,NA
dbf40,deep,flow.Sequence,3_0_3_0_6_0,NA,NA,skipped,NA,635258.30000001,NA,NA,635249.797,635258.30000001,2023-12-01T12:52:44Z,635258.13,NULL,System,maongozi,s,chokochoko,nuksani,mitaani,NA,qt,NA,3,NA,NA,NA,NA,NA,NA,NA,NA,NA,NA,NA,NA,NA,NA,NA,NA,NA,NA,NA
dbf40,Shallow Question,html.Page,3_0_3_0_6_1_0,NA,NA,form submission,9457.6700000119,635258.40000001,635249.797,635258.13,644715.80000001,644716.09999999,2023-12-01T12:52:53Z,644724.418,NULL,System,maongozi,s,chokochoko,nuksani,mitaani,maongozi,NA,NA,3,NA,NA,NA,NA,NA,NA,NA,NA,NA,NA,NA,NA,NA,NA,NA,NA,NA,NA,NA
dbf40,"""Richtig""-Screen",canvas.Screen,3_0_3_0_6_1_1,NA,NA,timeout,5000.3940000001,644719,644707.752,644724.418,649716.479,649719.5,2023-12-01T12:52:58Z,649724.812,NULL,System,maongozi,s,chokochoko,nuksani,mitaani,NA,qt,1,3,NA,NA,NA,NA,NA,NA,NA,NA,NA,NA,NA,NA,NA,NA,NA,NA,NA,NA,NA
dbf40,"""Falsch""-Screen",canvas.Screen,3_0_3_0_6_1_2,NA,NA,skipped,NA,649723.59999999,NA,NA,649716.479,649723.80000000994,2023-12-01T12:52:58Z,649724.812,NULL,System,maongozi,s,chokochoko,nuksani,mitaani,NA,qt,NA,3,NA,NA,NA,NA,NA,NA,NA,NA,NA,NA,NA,NA,NA,NA,NA,NA,NA,NA,NA
dbf40,shallow,flow.Sequence,3_0_3_0_6_1,NA,NA,completion,14458.349,635258.40000001,635249.797,635258.13,649716.479,649724,2023-12-01T12:52:58Z,649724.812,NULL,System,maongozi,s,chokochoko,nuksani,mitaani,NA,qt,NA,3,NA,NA,NA,NA,NA,NA,NA,NA,NA,NA,NA,NA,NA,NA,NA,NA,NA,NA,NA
dbf40,task,flow.Sequence,3_0_3_0_6,NA,NA,completion,14458.349,635258.30000001,635249.797,635258.13,649716.479,649724.09999999,2023-12-01T12:52:58Z,649724.812,NULL,System,maongozi,s,chokochoko,nuksani,mitaani,NA,qt,NA,3,NA,NA,NA,NA,NA,NA,NA,NA,NA,NA,NA,NA,NA,NA,NA,NA,NA,NA,NA
dbf40,deep,flow.Sequence,3_0_3_0_7_0,NA,NA,skipped,NA,649724.20000002,NA,NA,649716.479,649724.20000002,2023-12-01T12:52:58Z,649724.812,NULL,Konkurrent,mshindani,s,msemaji,mvutaji,kipukusa,NA,qt,NA,3,NA,NA,NA,NA,NA,NA,NA,NA,NA,NA,NA,NA,NA,NA,NA,NA,NA,NA,NA
dbf40,Shallow Question,html.Page,3_0_3_0_7_1_0,NA,NA,form submission,12861.188,649724.30000001,649716.479,649724.812,662586,662586.40000001,2023-12-01T12:53:11Z,662591.495,NULL,Konkurrent,mshindani,s,msemaji,mvutaji,kipukusa,mshindani,NA,NA,3,NA,NA,NA,NA,NA,NA,NA,NA,NA,NA,NA,NA,NA,NA,NA,NA,NA,NA,NA
dbf40,"""Richtig""-Screen",canvas.Screen,3_0_3_0_7_1_1,NA,NA,timeout,4999.8,662589.30000000994,662583.162,662591.495,667582.962,667584.59999999,2023-12-01T12:53:16Z,667591.295,NULL,Konkurrent,mshindani,s,msemaji,mvutaji,kipukusa,NA,qt,1,3,NA,NA,NA,NA,NA,NA,NA,NA,NA,NA,NA,NA,NA,NA,NA,NA,NA,NA,NA
dbf40,"""Falsch""-Screen",canvas.Screen,3_0_3_0_7_1_2,NA,NA,skipped,NA,667589,NA,NA,667582.962,667589.20000002,2023-12-01T12:53:16Z,667591.295,NULL,Konkurrent,mshindani,s,msemaji,mvutaji,kipukusa,NA,qt,NA,3,NA,NA,NA,NA,NA,NA,NA,NA,NA,NA,NA,NA,NA,NA,NA,NA,NA,NA,NA
dbf40,shallow,flow.Sequence,3_0_3_0_7_1,NA,NA,completion,17858.15,649724.30000001,649716.479,649724.812,667582.962,667589.30000000994,2023-12-01T12:53:16Z,667591.295,NULL,Konkurrent,mshindani,s,msemaji,mvutaji,kipukusa,NA,qt,NA,3,NA,NA,NA,NA,NA,NA,NA,NA,NA,NA,NA,NA,NA,NA,NA,NA,NA,NA,NA
dbf40,task,flow.Sequence,3_0_3_0_7,NA,NA,completion,17858.15,649724.20000002,649716.479,649724.812,667582.962,667589.40000001,2023-12-01T12:53:16Z,667591.295,NULL,Konkurrent,mshindani,s,msemaji,mvutaji,kipukusa,NA,qt,NA,3,NA,NA,NA,NA,NA,NA,NA,NA,NA,NA,NA,NA,NA,NA,NA,NA,NA,NA,NA
dbf40,block,flow.Loop,3_0_3_0,NA,NA,completion,99004.429,568582.09999999,568553.534,568578.533,667582.962,667589.40000001,2023-12-01T12:53:16Z,667591.295,NULL,NA,NA,NA,NA,NA,NA,NA,qt,NA,3,NA,NA,NA,NA,NA,NA,NA,NA,NA,NA,NA,NA,NA,NA,NA,NA,NA,NA,NA
dbf40,weiter,canvas.Screen,3_0_3_1,sdf,keypress(Space),response,1109.9050000178,667589.5,667582.962,667591.295,668701.20000002,668708.90000001,2023-12-01T12:53:17Z,668891.243,NULL,NA,NA,NA,NA,NA,NA,NA,qt,NA,3,NA,NA,NA,NA,NA,NA,NA,NA,NA,NA,NA,NA,NA,NA,NA,NA,NA,NA,NA
dbf40,check continue,flow.Sequence,3_0_3,NA,NA,completion,100122.66700002,568582.09999999,568553.534,568578.533,668701.20000002,668709,2023-12-01T12:53:17Z,668891.243,NULL,NA,NA,NA,NA,NA,NA,NA,qt,NA,3,NA,NA,NA,NA,NA,NA,NA,NA,NA,NA,NA,NA,NA,NA,NA,NA,NA,NA,NA
dbf40,check continue,flow.Sequence,3_0_4,NA,NA,skipped,NA,668728.30000001,NA,NA,668701.20000002,668728.5,2023-12-01T12:53:17Z,668891.243,NULL,NA,NA,NA,NA,NA,NA,NA,sd,NA,4,NA,NA,NA,NA,NA,NA,NA,NA,NA,NA,NA,NA,NA,NA,NA,NA,NA,NA,NA
dbf40,check continue,flow.Sequence,3_0_5,NA,NA,skipped,NA,668739.70000002,NA,NA,668701.20000002,668739.70000002,2023-12-01T12:53:17Z,668891.243,NULL,NA,NA,NA,NA,NA,NA,NA,sdf,NA,5,NA,NA,NA,NA,NA,NA,NA,NA,NA,NA,NA,NA,NA,NA,NA,NA,NA,NA,NA
dbf40,check continue,flow.Sequence,3_0_6,NA,NA,skipped,NA,668748.90000001,NA,NA,668701.20000002,668748.90000001,2023-12-01T12:53:17Z,668891.243,NULL,NA,NA,NA,NA,NA,NA,NA,dfs,NA,6,NA,NA,NA,NA,NA,NA,NA,NA,NA,NA,NA,NA,NA,NA,NA,NA,NA,NA,NA
dbf40,check continue,flow.Sequence,3_0_7,NA,NA,skipped,NA,668756.90000001,NA,NA,668701.20000002,668757,2023-12-01T12:53:17Z,668891.243,NULL,NA,NA,NA,NA,NA,NA,NA,df,NA,7,NA,NA,NA,NA,NA,NA,NA,NA,NA,NA,NA,NA,NA,NA,NA,NA,NA,NA,NA
dbf40,check continue,flow.Sequence,3_0_8,NA,NA,skipped,NA,668764.59999999,NA,NA,668701.20000002,668764.59999999,2023-12-01T12:53:17Z,668891.243,NULL,NA,NA,NA,NA,NA,NA,NA,dfs,NA,8,NA,NA,NA,NA,NA,NA,NA,NA,NA,NA,NA,NA,NA,NA,NA,NA,NA,NA,NA
dbf40,check continue,flow.Sequence,3_0_9,NA,NA,skipped,NA,668771.80000001,NA,NA,668701.20000002,668771.80000001,2023-12-01T12:53:17Z,668891.243,NULL,NA,NA,NA,NA,NA,NA,NA,dsf,NA,9,NA,NA,NA,NA,NA,NA,NA,NA,NA,NA,NA,NA,NA,NA,NA,NA,NA,NA,NA
dbf40,check continue,flow.Sequence,3_0_10,NA,NA,skipped,NA,668778.09999999,NA,NA,668701.20000002,668778.09999999,2023-12-01T12:53:17Z,668891.243,NULL,NA,NA,NA,NA,NA,NA,NA,df,NA,10,NA,NA,NA,NA,NA,NA,NA,NA,NA,NA,NA,NA,NA,NA,NA,NA,NA,NA,NA
dbf40,check continue,flow.Sequence,3_0_11,NA,NA,skipped,NA,668784.40000001,NA,NA,668701.20000002,668784.40000001,2023-12-01T12:53:17Z,668891.243,NULL,NA,NA,NA,NA,NA,NA,NA,dfs,NA,11,NA,NA,NA,NA,NA,NA,NA,NA,NA,NA,NA,NA,NA,NA,NA,NA,NA,NA,NA
dbf40,check continue,flow.Sequence,3_0_12,NA,NA,skipped,NA,668790.80000000994,NA,NA,668701.20000002,668790.80000000994,2023-12-01T12:53:17Z,668891.243,NULL,NA,NA,NA,NA,NA,NA,NA,dsf,NA,12,NA,NA,NA,NA,NA,NA,NA,NA,NA,NA,NA,NA,NA,NA,NA,NA,NA,NA,NA
dbf40,check continue,flow.Sequence,3_0_13,NA,NA,skipped,NA,668797,NA,NA,668701.20000002,668797,2023-12-01T12:53:17Z,668891.243,NULL,NA,NA,NA,NA,NA,NA,NA,dsf,NA,13,NA,NA,NA,NA,NA,NA,NA,NA,NA,NA,NA,NA,NA,NA,NA,NA,NA,NA,NA
dbf40,check continue,flow.Sequence,3_0_14,NA,NA,skipped,NA,668803,NA,NA,668701.20000002,668803,2023-12-01T12:53:17Z,668891.243,NULL,NA,NA,NA,NA,NA,NA,NA,NA,NA,14,NA,NA,NA,NA,NA,NA,NA,NA,NA,NA,NA,NA,NA,NA,NA,NA,NA,NA,NA
dbf40,check continue,flow.Sequence,3_0_15,NA,NA,skipped,NA,668809.30000001,NA,NA,668701.20000002,668809.40000001,2023-12-01T12:53:17Z,668891.243,NULL,NA,NA,NA,NA,NA,NA,NA,NA,NA,15,NA,NA,NA,NA,NA,NA,NA,NA,NA,NA,NA,NA,NA,NA,NA,NA,NA,NA,NA
dbf40,check continue,flow.Sequence,3_0_16,NA,NA,skipped,NA,668815.09999999,NA,NA,668701.20000002,668815.09999999,2023-12-01T12:53:17Z,668891.243,NULL,NA,NA,NA,NA,NA,NA,NA,NA,NA,16,NA,NA,NA,NA,NA,NA,NA,NA,NA,NA,NA,NA,NA,NA,NA,NA,NA,NA,NA
dbf40,check continue,flow.Sequence,3_0_17,NA,NA,skipped,NA,668821.20000002,NA,NA,668701.20000002,668821.20000002,2023-12-01T12:53:17Z,668891.243,NULL,NA,NA,NA,NA,NA,NA,NA,NA,NA,17,NA,NA,NA,NA,NA,NA,NA,NA,NA,NA,NA,NA,NA,NA,NA,NA,NA,NA,NA
dbf40,check continue,flow.Sequence,3_0_18,NA,NA,skipped,NA,668826.70000002,NA,NA,668701.20000002,668826.80000000994,2023-12-01T12:53:17Z,668891.243,NULL,NA,NA,NA,NA,NA,NA,NA,NA,NA,18,NA,NA,NA,NA,NA,NA,NA,NA,NA,NA,NA,NA,NA,NA,NA,NA,NA,NA,NA
dbf40,check continue,flow.Sequence,3_0_19,NA,NA,skipped,NA,668832.90000001,NA,NA,668701.20000002,668832.90000001,2023-12-01T12:53:17Z,668891.243,NULL,NA,NA,NA,NA,NA,NA,NA,NA,NA,19,NA,NA,NA,NA,NA,NA,NA,NA,NA,NA,NA,NA,NA,NA,NA,NA,NA,NA,NA
dbf40,check continue,flow.Sequence,3_0_20,NA,NA,skipped,NA,668838.59999999,NA,NA,668701.20000002,668838.59999999,2023-12-01T12:53:17Z,668891.243,NULL,NA,NA,NA,NA,NA,NA,NA,NA,NA,20,NA,NA,NA,NA,NA,NA,NA,NA,NA,NA,NA,NA,NA,NA,NA,NA,NA,NA,NA
dbf40,check continue,flow.Sequence,3_0_21,NA,NA,skipped,NA,668844.70000002,NA,NA,668701.20000002,668844.70000002,2023-12-01T12:53:17Z,668891.243,NULL,NA,NA,NA,NA,NA,NA,NA,NA,NA,21,NA,NA,NA,NA,NA,NA,NA,NA,NA,NA,NA,NA,NA,NA,NA,NA,NA,NA,NA
dbf40,check continue,flow.Sequence,3_0_22,NA,NA,skipped,NA,668849.80000001,NA,NA,668701.20000002,668849.80000001,2023-12-01T12:53:17Z,668891.243,NULL,NA,NA,NA,NA,NA,NA,NA,NA,NA,22,NA,NA,NA,NA,NA,NA,NA,NA,NA,NA,NA,NA,NA,NA,NA,NA,NA,NA,NA
dbf40,check continue,flow.Sequence,3_0_23,NA,NA,skipped,NA,668855.90000001,NA,NA,668701.20000002,668855.90000001,2023-12-01T12:53:17Z,668891.243,NULL,NA,NA,NA,NA,NA,NA,NA,NA,NA,23,NA,NA,NA,NA,NA,NA,NA,NA,NA,NA,NA,NA,NA,NA,NA,NA,NA,NA,NA
dbf40,check continue,flow.Sequence,3_0_24,NA,NA,skipped,NA,668861.20000002,NA,NA,668701.20000002,668861.20000002,2023-12-01T12:53:17Z,668891.243,NULL,NA,NA,NA,NA,NA,NA,NA,NA,NA,24,NA,NA,NA,NA,NA,NA,NA,NA,NA,NA,NA,NA,NA,NA,NA,NA,NA,NA,NA
dbf40,check continue,flow.Sequence,3_0_25,NA,NA,skipped,NA,668866.90000001,NA,NA,668701.20000002,668866.90000001,2023-12-01T12:53:17Z,668891.243,NULL,NA,NA,NA,NA,NA,NA,NA,NA,NA,25,NA,NA,NA,NA,NA,NA,NA,NA,NA,NA,NA,NA,NA,NA,NA,NA,NA,NA,NA
dbf40,check continue,flow.Sequence,3_0_26,NA,NA,skipped,NA,668872.09999999,NA,NA,668701.20000002,668872.09999999,2023-12-01T12:53:17Z,668891.243,NULL,NA,NA,NA,NA,NA,NA,NA,NA,NA,26,NA,NA,NA,NA,NA,NA,NA,NA,NA,NA,NA,NA,NA,NA,NA,NA,NA,NA,NA
dbf40,check continue,flow.Sequence,3_0_27,NA,NA,skipped,NA,668879.59999999,NA,NA,668701.20000002,668879.70000002,2023-12-01T12:53:17Z,668891.243,NULL,NA,NA,NA,NA,NA,NA,NA,NA,NA,27,NA,NA,NA,NA,NA,NA,NA,NA,NA,NA,NA,NA,NA,NA,NA,NA,NA,NA,NA
dbf40,check continue,flow.Sequence,3_0_28,NA,NA,skipped,NA,668887.09999999,NA,NA,668701.20000002,668887.20000002,2023-12-01T12:53:17Z,668891.243,NULL,NA,NA,NA,NA,NA,NA,NA,NA,NA,28,NA,NA,NA,NA,NA,NA,NA,NA,NA,NA,NA,NA,NA,NA,NA,NA,NA,NA,NA
dbf40,check continue,flow.Sequence,3_0_29,NA,NA,skipped,NA,668892.5,NA,NA,668701.20000002,668892.5,2023-12-01T12:53:17Z,668891.243,NULL,NA,NA,NA,NA,NA,NA,NA,NA,NA,29,NA,NA,NA,NA,NA,NA,NA,NA,NA,NA,NA,NA,NA,NA,NA,NA,NA,NA,NA
dbf40,until continue,flow.Loop,3_0,NA,NA,completion,466610.23200002,202081.70000002,202041.947,202090.968,668701.20000002,668892.59999999,2023-12-01T12:53:17Z,668891.243,NULL,NA,NA,NA,NA,NA,NA,NA,NA,NA,NA,NA,NA,NA,NA,NA,NA,NA,NA,NA,NA,NA,NA,NA,NA,NA,NA,NA,NA,NA
dbf40,block 1,flow.Sequence,3,NA,NA,completion,466610.23200002,202081.59999999,202041.947,202090.968,668701.20000002,668892.59999999,2023-12-01T12:53:17Z,668891.243,NULL,NA,NA,NA,NA,NA,NA,NA,NA,NA,NA,NA,NA,NA,NA,NA,NA,NA,NA,NA,NA,NA,NA,NA,NA,NA,NA,NA,NA,NA
dbf40,1.Part Over,canvas.Screen,4,NA,keypress(Space),response,2100.0570000119,668892.59999999,668707.917,668891.243,670991.30000001,671000.09999999,2023-12-01T12:53:19Z,671041.157,NULL,NA,NA,NA,NA,NA,NA,NA,NA,NA,NA,NA,NA,NA,NA,NA,NA,NA,NA,NA,NA,NA,NA,NA,NA,NA,NA,NA,NA,NA
dbf40,Deep Question,html.Page,5_0_0_0_0_0_0,NA,NA,form submission,3002.5430000179,671037.09999999,671032.824,671041.157,674043.70000002,674044.40000001,2023-12-01T12:53:22Z,674049.799,NULL,Verzögerung,kuchelewa,d,NA,NA,NA,sdfsdf,NA,NA,0,NA,NA,NA,NA,NA,NA,NA,NA,NA,NA,NA,NA,NA,NA,NA,NA,NA,NA,NA
dbf40,"""Richtig""-Screen",canvas.Screen,5_0_0_0_0_0_1,NA,NA,skipped,NA,674045.90000001,NA,NA,674043.70000002,674046,2023-12-01T12:53:22Z,674049.799,NULL,Verzögerung,kuchelewa,d,NA,NA,NA,NA,sdf,NA,0,NA,NA,NA,NA,NA,NA,NA,NA,NA,NA,NA,NA,NA,NA,NA,NA,NA,NA,NA
dbf40,"""Falsch""-Screen",canvas.Screen,5_0_0_0_0_0_2,NA,NA,timeout,4999.8,674046.59999999,674041.466,674049.799,679041.266,679044.30000001,2023-12-01T12:53:27Z,679049.599,NULL,Verzögerung,kuchelewa,d,NA,NA,NA,NA,sdf,0,0,NA,NA,NA,NA,NA,NA,NA,NA,NA,NA,NA,NA,NA,NA,NA,NA,NA,NA,NA
dbf40,deep,flow.Sequence,5_0_0_0_0_0,NA,NA,completion,8000.1089999999,671037,671032.824,671041.157,679041.266,679044.80000001,2023-12-01T12:53:27Z,679049.599,NULL,Verzögerung,kuchelewa,d,NA,NA,NA,NA,sdf,NA,0,NA,NA,NA,NA,NA,NA,NA,NA,NA,NA,NA,NA,NA,NA,NA,NA,NA,NA,NA
dbf40,shallow,flow.Sequence,5_0_0_0_0_1,NA,NA,skipped,NA,679045,NA,NA,679041.266,679045.09999999,2023-12-01T12:53:27Z,679049.599,NULL,Verzögerung,kuchelewa,d,NA,NA,NA,NA,sdf,NA,0,NA,NA,NA,NA,NA,NA,NA,NA,NA,NA,NA,NA,NA,NA,NA,NA,NA,NA,NA
dbf40,task,flow.Sequence,5_0_0_0_0,NA,NA,completion,8000.1089999999,671037,671032.824,671041.157,679041.266,679045.30000000994,2023-12-01T12:53:27Z,679049.599,NULL,Verzögerung,kuchelewa,d,NA,NA,NA,NA,sdf,NA,0,NA,NA,NA,NA,NA,NA,NA,NA,NA,NA,NA,NA,NA,NA,NA,NA,NA,NA,NA
dbf40,deep,flow.Sequence,5_0_0_0_1_0,NA,NA,skipped,NA,679045.30000000994,NA,NA,679041.266,679045.40000001,2023-12-01T12:53:27Z,679049.599,NULL,Polizist,msongora,s,simanzi,mandhari,nidhamu,NA,sdf,NA,0,NA,NA,NA,NA,NA,NA,NA,NA,NA,NA,NA,NA,NA,NA,NA,NA,NA,NA,NA
dbf40,Shallow Question,html.Page,5_0_0_0_1_1_0,NA,NA,form submission,18928.101000018,679045.59999999,679041.266,679049.599,697977.70000002,697978.30000001,2023-12-01T12:53:46Z,697991.358,NULL,Polizist,msongora,s,simanzi,mandhari,nidhamu,mandhari,NA,NA,0,NA,NA,NA,NA,NA,NA,NA,NA,NA,NA,NA,NA,NA,NA,NA,NA,NA,NA,NA
dbf40,"""Richtig""-Screen",canvas.Screen,5_0_0_0_1_1_1,NA,NA,skipped,NA,697981.30000001,NA,NA,697977.70000002,697981.40000001,2023-12-01T12:53:46Z,697991.358,NULL,Polizist,msongora,s,simanzi,mandhari,nidhamu,NA,sdf,NA,0,NA,NA,NA,NA,NA,NA,NA,NA,NA,NA,NA,NA,NA,NA,NA,NA,NA,NA,NA
dbf40,"""Falsch""-Screen",canvas.Screen,5_0_0_0_1_1_2,NA,NA,timeout,4999.8,697982.09999999,697974.692,697991.358,702982.825,702985.80000001,2023-12-01T12:53:51Z,702991.158,NULL,Polizist,msongora,s,simanzi,mandhari,nidhamu,NA,sdf,0,0,NA,NA,NA,NA,NA,NA,NA,NA,NA,NA,NA,NA,NA,NA,NA,NA,NA,NA,NA
dbf40,shallow,flow.Sequence,5_0_0_0_1_1,NA,NA,completion,23933.226,679045.5,679041.266,679049.599,702982.825,702986.40000001,2023-12-01T12:53:51Z,702991.158,NULL,Polizist,msongora,s,simanzi,mandhari,nidhamu,NA,sdf,NA,0,NA,NA,NA,NA,NA,NA,NA,NA,NA,NA,NA,NA,NA,NA,NA,NA,NA,NA,NA
dbf40,task,flow.Sequence,5_0_0_0_1,NA,NA,completion,23933.226,679045.30000000994,679041.266,679049.599,702982.825,702986.59999999,2023-12-01T12:53:51Z,702991.158,NULL,Polizist,msongora,s,simanzi,mandhari,nidhamu,NA,sdf,NA,0,NA,NA,NA,NA,NA,NA,NA,NA,NA,NA,NA,NA,NA,NA,NA,NA,NA,NA,NA
dbf40,deep,flow.Sequence,5_0_0_0_2_0,NA,NA,skipped,NA,702986.70000002,NA,NA,702982.825,702986.90000001,2023-12-01T12:53:51Z,702991.158,NULL,Aufstand,ugomaji,s,mazidio,msingi,kujieleza,NA,sdf,NA,0,NA,NA,NA,NA,NA,NA,NA,NA,NA,NA,NA,NA,NA,NA,NA,NA,NA,NA,NA
dbf40,Shallow Question,html.Page,5_0_0_0_2_1_0,NA,NA,form submission,15023.342,702987,702982.825,702991.158,718014.5,718015.20000002,2023-12-01T12:54:06Z,718024.805,NULL,Aufstand,ugomaji,s,mazidio,msingi,kujieleza,msingi,NA,NA,0,NA,NA,NA,NA,NA,NA,NA,NA,NA,NA,NA,NA,NA,NA,NA,NA,NA,NA,NA
dbf40,"""Richtig""-Screen",canvas.Screen,5_0_0_0_2_1_1,NA,NA,skipped,NA,718018.80000001,NA,NA,718014.5,718019,2023-12-01T12:54:06Z,718024.805,NULL,Aufstand,ugomaji,s,mazidio,msingi,kujieleza,NA,sdf,NA,0,NA,NA,NA,NA,NA,NA,NA,NA,NA,NA,NA,NA,NA,NA,NA,NA,NA,NA,NA
dbf40,"""Falsch""-Screen",canvas.Screen,5_0_0_0_2_1_2,NA,NA,timeout,4999.7999999999,718019.80000001,718008.139,718024.805,723016.272,723019.80000001,2023-12-01T12:54:11Z,723024.605,NULL,Aufstand,ugomaji,s,mazidio,msingi,kujieleza,NA,sdf,0,0,NA,NA,NA,NA,NA,NA,NA,NA,NA,NA,NA,NA,NA,NA,NA,NA,NA,NA,NA
dbf40,shallow,flow.Sequence,5_0_0_0_2_1,NA,NA,completion,20025.114,702987,702982.825,702991.158,723016.272,723020.5,2023-12-01T12:54:11Z,723024.605,NULL,Aufstand,ugomaji,s,mazidio,msingi,kujieleza,NA,sdf,NA,0,NA,NA,NA,NA,NA,NA,NA,NA,NA,NA,NA,NA,NA,NA,NA,NA,NA,NA,NA
dbf40,task,flow.Sequence,5_0_0_0_2,NA,NA,completion,20025.114,702986.70000002,702982.825,702991.158,723016.272,723020.59999999,2023-12-01T12:54:11Z,723024.605,NULL,Aufstand,ugomaji,s,mazidio,msingi,kujieleza,NA,sdf,NA,0,NA,NA,NA,NA,NA,NA,NA,NA,NA,NA,NA,NA,NA,NA,NA,NA,NA,NA,NA
dbf40,Deep Question,html.Page,5_0_0_0_3_0_0,NA,NA,form submission,14478.395,723020.80000000994,723016.272,723024.605,737503,737503.40000001,2023-12-01T12:54:26Z,737516.173,NULL,Annäherung,maegesho,d,NA,NA,NA,dfsfs,NA,NA,0,NA,NA,NA,NA,NA,NA,NA,NA,NA,NA,NA,NA,NA,NA,NA,NA,NA,NA,NA
dbf40,"""Richtig""-Screen",canvas.Screen,5_0_0_0_3_0_1,NA,NA,skipped,NA,737506.5,NA,NA,737503,737506.5,2023-12-01T12:54:26Z,737516.173,NULL,Annäherung,maegesho,d,NA,NA,NA,NA,sdf,NA,0,NA,NA,NA,NA,NA,NA,NA,NA,NA,NA,NA,NA,NA,NA,NA,NA,NA,NA,NA
dbf40,"""Falsch""-Screen",canvas.Screen,5_0_0_0_3_0_2,NA,NA,timeout,4996.049,737507.30000001,737499.507,737516.173,742503.889,742507.80000001,2023-12-01T12:54:31Z,742512.222,NULL,Annäherung,maegesho,d,NA,NA,NA,NA,sdf,0,0,NA,NA,NA,NA,NA,NA,NA,NA,NA,NA,NA,NA,NA,NA,NA,NA,NA,NA,NA
dbf40,deep,flow.Sequence,5_0_0_0_3_0,NA,NA,completion,19479.284,723020.80000000994,723016.272,723024.605,742503.889,742508.40000001,2023-12-01T12:54:31Z,742512.222,NULL,Annäherung,maegesho,d,NA,NA,NA,NA,sdf,NA,0,NA,NA,NA,NA,NA,NA,NA,NA,NA,NA,NA,NA,NA,NA,NA,NA,NA,NA,NA
dbf40,shallow,flow.Sequence,5_0_0_0_3_1,NA,NA,skipped,NA,742508.40000001,NA,NA,742503.889,742508.59999999,2023-12-01T12:54:31Z,742512.222,NULL,Annäherung,maegesho,d,NA,NA,NA,NA,sdf,NA,0,NA,NA,NA,NA,NA,NA,NA,NA,NA,NA,NA,NA,NA,NA,NA,NA,NA,NA,NA
dbf40,task,flow.Sequence,5_0_0_0_3,NA,NA,completion,19479.284,723020.70000002,723016.272,723024.605,742503.889,742508.80000001,2023-12-01T12:54:31Z,742512.222,NULL,Annäherung,maegesho,d,NA,NA,NA,NA,sdf,NA,0,NA,NA,NA,NA,NA,NA,NA,NA,NA,NA,NA,NA,NA,NA,NA,NA,NA,NA,NA
dbf40,Deep Question,html.Page,5_0_0_0_4_0_0,NA,NA,form submission,13909.578000012,742509,742503.889,742512.222,756421.80000000994,756423.20000002,2023-12-01T12:54:45Z,756433.166,NULL,Sympathie,mapendano,d,NA,NA,NA,sdfs,NA,NA,0,NA,NA,NA,NA,NA,NA,NA,NA,NA,NA,NA,NA,NA,NA,NA,NA,NA,NA,NA
dbf40,"""Richtig""-Screen",canvas.Screen,5_0_0_0_4_0_1,NA,NA,skipped,NA,756426.40000001,NA,NA,756421.80000000994,756426.59999999,2023-12-01T12:54:45Z,756433.166,NULL,Sympathie,mapendano,d,NA,NA,NA,NA,sdf,NA,0,NA,NA,NA,NA,NA,NA,NA,NA,NA,NA,NA,NA,NA,NA,NA,NA,NA,NA,NA
dbf40,"""Falsch""-Screen",canvas.Screen,5_0_0_0_4_0_2,NA,NA,timeout,4999.8,756427.30000001,756416.5,756433.166,761424.633,761428.30000001,2023-12-01T12:54:50Z,761432.966,NULL,Sympathie,mapendano,d,NA,NA,NA,NA,sdf,0,0,NA,NA,NA,NA,NA,NA,NA,NA,NA,NA,NA,NA,NA,NA,NA,NA,NA,NA,NA
dbf40,deep,flow.Sequence,5_0_0_0_4_0,NA,NA,completion,18912.411,742508.90000001,742503.889,742512.222,761424.633,761429,2023-12-01T12:54:50Z,761432.966,NULL,Sympathie,mapendano,d,NA,NA,NA,NA,sdf,NA,0,NA,NA,NA,NA,NA,NA,NA,NA,NA,NA,NA,NA,NA,NA,NA,NA,NA,NA,NA
dbf40,shallow,flow.Sequence,5_0_0_0_4_1,NA,NA,skipped,NA,761429.09999999,NA,NA,761424.633,761429.30000001,2023-12-01T12:54:50Z,761432.966,NULL,Sympathie,mapendano,d,NA,NA,NA,NA,sdf,NA,0,NA,NA,NA,NA,NA,NA,NA,NA,NA,NA,NA,NA,NA,NA,NA,NA,NA,NA,NA
dbf40,task,flow.Sequence,5_0_0_0_4,NA,NA,completion,18912.411,742508.90000001,742503.889,742512.222,761424.633,761429.5,2023-12-01T12:54:50Z,761432.966,NULL,Sympathie,mapendano,d,NA,NA,NA,NA,sdf,NA,0,NA,NA,NA,NA,NA,NA,NA,NA,NA,NA,NA,NA,NA,NA,NA,NA,NA,NA,NA
dbf40,deep,flow.Sequence,5_0_0_0_5_0,NA,NA,skipped,NA,761429.70000002,NA,NA,761424.633,761429.70000002,2023-12-01T12:54:50Z,761432.966,NULL,Prüfung,mtihani,s,mkulima,mtizamo,ufumbuzi,NA,sdf,NA,0,NA,NA,NA,NA,NA,NA,NA,NA,NA,NA,NA,NA,NA,NA,NA,NA,NA,NA,NA
dbf40,Shallow Question,html.Page,5_0_0_0_5_1_0,NA,NA,form submission,20498.934000006,761429.80000001,761424.633,761432.966,781931.90000001,781932.40000001,2023-12-01T12:55:10Z,781941.49,NULL,Prüfung,mtihani,s,mkulima,mtizamo,ufumbuzi,mkulima,NA,NA,0,NA,NA,NA,NA,NA,NA,NA,NA,NA,NA,NA,NA,NA,NA,NA,NA,NA,NA,NA
dbf40,"""Richtig""-Screen",canvas.Screen,5_0_0_0_5_1_1,NA,NA,skipped,NA,781935.40000001,NA,NA,781931.90000001,781935.40000001,2023-12-01T12:55:10Z,781941.49,NULL,Prüfung,mtihani,s,mkulima,mtizamo,ufumbuzi,NA,sdf,NA,0,NA,NA,NA,NA,NA,NA,NA,NA,NA,NA,NA,NA,NA,NA,NA,NA,NA,NA,NA
dbf40,"""Falsch""-Screen",canvas.Screen,5_0_0_0_5_1_2,NA,NA,timeout,4999.8,781935.90000001,781924.824,781941.49,786932.957,786935.30000000994,2023-12-01T12:55:15Z,786941.29,NULL,Prüfung,mtihani,s,mkulima,mtizamo,ufumbuzi,NA,sdf,0,0,NA,NA,NA,NA,NA,NA,NA,NA,NA,NA,NA,NA,NA,NA,NA,NA,NA,NA,NA
dbf40,shallow,flow.Sequence,5_0_0_0_5_1,NA,NA,completion,25499.991,761429.80000001,761424.633,761432.966,786932.957,786935.80000001,2023-12-01T12:55:15Z,786941.29,NULL,Prüfung,mtihani,s,mkulima,mtizamo,ufumbuzi,NA,sdf,NA,0,NA,NA,NA,NA,NA,NA,NA,NA,NA,NA,NA,NA,NA,NA,NA,NA,NA,NA,NA
dbf40,task,flow.Sequence,5_0_0_0_5,NA,NA,completion,25499.991,761429.5,761424.633,761432.966,786932.957,786935.90000001,2023-12-01T12:55:15Z,786941.29,NULL,Prüfung,mtihani,s,mkulima,mtizamo,ufumbuzi,NA,sdf,NA,0,NA,NA,NA,NA,NA,NA,NA,NA,NA,NA,NA,NA,NA,NA,NA,NA,NA,NA,NA
dbf40,deep,flow.Sequence,5_0_0_0_6_0,NA,NA,skipped,NA,786936.09999999,NA,NA,786932.957,786936.30000001,2023-12-01T12:55:15Z,786941.29,NULL,Beweis,ushahidi,s,marudio,kizuizi,mtendaji,NA,sdf,NA,0,NA,NA,NA,NA,NA,NA,NA,NA,NA,NA,NA,NA,NA,NA,NA,NA,NA,NA,NA
dbf40,Shallow Question,html.Page,5_0_0_0_6_1_0,NA,NA,form submission,13106.610000006,786936.40000001,786932.957,786941.29,800047.90000001,800048.5,2023-12-01T12:55:28Z,800058.188,NULL,Beweis,ushahidi,s,marudio,kizuizi,mtendaji,marudio,NA,NA,0,NA,NA,NA,NA,NA,NA,NA,NA,NA,NA,NA,NA,NA,NA,NA,NA,NA,NA,NA
dbf40,"""Richtig""-Screen",canvas.Screen,5_0_0_0_6_1_1,NA,NA,skipped,NA,800051.90000001,NA,NA,800047.90000001,800051.90000001,2023-12-01T12:55:28Z,800058.188,NULL,Beweis,ushahidi,s,marudio,kizuizi,mtendaji,NA,sdf,NA,0,NA,NA,NA,NA,NA,NA,NA,NA,NA,NA,NA,NA,NA,NA,NA,NA,NA,NA,NA
dbf40,"""Falsch""-Screen",canvas.Screen,5_0_0_0_6_1_2,NA,NA,timeout,4999.8,800052.59999999,800041.522,800058.188,805049.655,805052.20000002,2023-12-01T12:55:33Z,805057.988,NULL,Beweis,ushahidi,s,marudio,kizuizi,mtendaji,NA,sdf,0,0,NA,NA,NA,NA,NA,NA,NA,NA,NA,NA,NA,NA,NA,NA,NA,NA,NA,NA,NA
dbf40,shallow,flow.Sequence,5_0_0_0_6_1,NA,NA,completion,18108.365,786936.40000001,786932.957,786941.29,805049.655,805052.80000000994,2023-12-01T12:55:33Z,805057.988,NULL,Beweis,ushahidi,s,marudio,kizuizi,mtendaji,NA,sdf,NA,0,NA,NA,NA,NA,NA,NA,NA,NA,NA,NA,NA,NA,NA,NA,NA,NA,NA,NA,NA
dbf40,task,flow.Sequence,5_0_0_0_6,NA,NA,completion,18108.365,786936.09999999,786932.957,786941.29,805049.655,805052.90000001,2023-12-01T12:55:33Z,805057.988,NULL,Beweis,ushahidi,s,marudio,kizuizi,mtendaji,NA,sdf,NA,0,NA,NA,NA,NA,NA,NA,NA,NA,NA,NA,NA,NA,NA,NA,NA,NA,NA,NA,NA
dbf40,Deep Question,html.Page,5_0_0_0_7_0_0,NA,NA,form submission,8320.3120000119,805053.20000002,805049.655,805057.988,813378.30000001,813378.59999999,2023-12-01T12:55:42Z,813391.57,NULL,Kultur,utamaduni,d,NA,NA,NA,sdfsdf,NA,NA,0,NA,NA,NA,NA,NA,NA,NA,NA,NA,NA,NA,NA,NA,NA,NA,NA,NA,NA,NA
dbf40,"""Richtig""-Screen",canvas.Screen,5_0_0_0_7_0_1,NA,NA,skipped,NA,813381.59999999,NA,NA,813378.30000001,813381.59999999,2023-12-01T12:55:42Z,813391.57,NULL,Kultur,utamaduni,d,NA,NA,NA,NA,sdf,NA,0,NA,NA,NA,NA,NA,NA,NA,NA,NA,NA,NA,NA,NA,NA,NA,NA,NA,NA,NA
dbf40,"""Falsch""-Screen",canvas.Screen,5_0_0_0_7_0_2,NA,NA,timeout,4999.8,813382.20000002,813374.904,813391.57,818383.037,818386.70000002,2023-12-01T12:55:47Z,818391.37,NULL,Kultur,utamaduni,d,NA,NA,NA,NA,sdf,0,0,NA,NA,NA,NA,NA,NA,NA,NA,NA,NA,NA,NA,NA,NA,NA,NA,NA,NA,NA
dbf40,deep,flow.Sequence,5_0_0_0_7_0,NA,NA,completion,13325.049,805053.09999999,805049.655,805057.988,818383.037,818387.20000002,2023-12-01T12:55:47Z,818391.37,NULL,Kultur,utamaduni,d,NA,NA,NA,NA,sdf,NA,0,NA,NA,NA,NA,NA,NA,NA,NA,NA,NA,NA,NA,NA,NA,NA,NA,NA,NA,NA
dbf40,shallow,flow.Sequence,5_0_0_0_7_1,NA,NA,skipped,NA,818387.40000001,NA,NA,818383.037,818387.40000001,2023-12-01T12:55:47Z,818391.37,NULL,Kultur,utamaduni,d,NA,NA,NA,NA,sdf,NA,0,NA,NA,NA,NA,NA,NA,NA,NA,NA,NA,NA,NA,NA,NA,NA,NA,NA,NA,NA
dbf40,task,flow.Sequence,5_0_0_0_7,NA,NA,completion,13325.049,805053,805049.655,805057.988,818383.037,818387.59999999,2023-12-01T12:55:47Z,818391.37,NULL,Kultur,utamaduni,d,NA,NA,NA,NA,sdf,NA,0,NA,NA,NA,NA,NA,NA,NA,NA,NA,NA,NA,NA,NA,NA,NA,NA,NA,NA,NA
dbf40,block,flow.Loop,5_0_0_0,NA,NA,completion,147341.88,671037,671032.824,671041.157,818383.037,818388,2023-12-01T12:55:47Z,818391.37,NULL,NA,NA,NA,NA,NA,NA,NA,sdf,NA,0,NA,NA,NA,NA,NA,NA,NA,NA,NA,NA,NA,NA,NA,NA,NA,NA,NA,NA,NA
dbf40,weiter,canvas.Screen,5_0_0_1,sdf,keypress(Space),response,22481.729999994,818388.09999999,818383.037,818391.37,840873.09999999,840883.20000002,2023-12-01T12:56:09Z,840899.992,NULL,NA,NA,NA,NA,NA,NA,NA,sdf,NA,0,NA,NA,NA,NA,NA,NA,NA,NA,NA,NA,NA,NA,NA,NA,NA,NA,NA,NA,NA
dbf40,check continue,flow.Sequence,5_0_0,NA,NA,completion,169831.94299999,671037,671032.824,671041.157,840873.09999999,840883.30000001,2023-12-01T12:56:09Z,840899.992,NULL,NA,NA,NA,NA,NA,NA,NA,sdf,NA,0,NA,NA,NA,NA,NA,NA,NA,NA,NA,NA,NA,NA,NA,NA,NA,NA,NA,NA,NA
dbf40,Deep Question,html.Page,5_0_1_0_0_0_0,NA,NA,form submission,8965.308000012,840902.09999999,840873.804,840899.992,849865.30000001,849866,2023-12-01T12:56:18Z,849874.633,NULL,Annäherung,maegesho,d,NA,NA,NA,klmklmkl,NA,NA,1,NA,NA,NA,NA,NA,NA,NA,NA,NA,NA,NA,NA,NA,NA,NA,NA,NA,NA,NA
dbf40,"""Richtig""-Screen",canvas.Screen,5_0_1_0_0_0_1,NA,NA,skipped,NA,849869,NA,NA,849865.30000001,849869.09999999,2023-12-01T12:56:18Z,849874.633,NULL,Annäherung,maegesho,d,NA,NA,NA,NA,sdfdsf,NA,1,NA,NA,NA,NA,NA,NA,NA,NA,NA,NA,NA,NA,NA,NA,NA,NA,NA,NA,NA
dbf40,"""Falsch""-Screen",canvas.Screen,5_0_1_0_0_0_2,NA,NA,timeout,5000.385,849869.70000002,849857.967,849874.633,854866.685,854870.09999999,2023-12-01T12:56:23Z,854875.018,NULL,Annäherung,maegesho,d,NA,NA,NA,NA,sdfdsf,0,1,NA,NA,NA,NA,NA,NA,NA,NA,NA,NA,NA,NA,NA,NA,NA,NA,NA,NA,NA
dbf40,deep,flow.Sequence,5_0_1_0_0_0,NA,NA,completion,13966.693,840902.09999999,840873.804,840899.992,854866.685,854870.5,2023-12-01T12:56:23Z,854875.018,NULL,Annäherung,maegesho,d,NA,NA,NA,NA,sdfdsf,NA,1,NA,NA,NA,NA,NA,NA,NA,NA,NA,NA,NA,NA,NA,NA,NA,NA,NA,NA,NA
dbf40,shallow,flow.Sequence,5_0_1_0_0_1,NA,NA,skipped,NA,854870.70000002,NA,NA,854866.685,854870.80000001,2023-12-01T12:56:23Z,854875.018,NULL,Annäherung,maegesho,d,NA,NA,NA,NA,sdfdsf,NA,1,NA,NA,NA,NA,NA,NA,NA,NA,NA,NA,NA,NA,NA,NA,NA,NA,NA,NA,NA
dbf40,task,flow.Sequence,5_0_1_0_0,NA,NA,completion,13966.693,840902.09999999,840873.804,840899.992,854866.685,854871,2023-12-01T12:56:23Z,854875.018,NULL,Annäherung,maegesho,d,NA,NA,NA,NA,sdfdsf,NA,1,NA,NA,NA,NA,NA,NA,NA,NA,NA,NA,NA,NA,NA,NA,NA,NA,NA,NA,NA
dbf40,Deep Question,html.Page,5_0_1_0_1_0_0,NA,NA,form submission,21173.382000006,854871.20000002,854866.685,854875.018,876048.40000001,876049.20000002,2023-12-01T12:56:44Z,876058.335,NULL,Verzögerung,kuchelewa,d,NA,NA,NA,kuchewa,NA,NA,1,NA,NA,NA,NA,NA,NA,NA,NA,NA,NA,NA,NA,NA,NA,NA,NA,NA,NA,NA
dbf40,"""Richtig""-Screen",canvas.Screen,5_0_1_0_1_0_1,NA,NA,skipped,NA,876052.30000001,NA,NA,876048.40000001,876052.40000001,2023-12-01T12:56:44Z,876058.335,NULL,Verzögerung,kuchelewa,d,NA,NA,NA,NA,sdfdsf,NA,1,NA,NA,NA,NA,NA,NA,NA,NA,NA,NA,NA,NA,NA,NA,NA,NA,NA,NA,NA
dbf40,"""Falsch""-Screen",canvas.Screen,5_0_1_0_1_0_2,NA,NA,timeout,4999.8,876052.90000001,876041.669,876058.335,881049.802,881053.30000000994,2023-12-01T12:56:49Z,881058.135,NULL,Verzögerung,kuchelewa,d,NA,NA,NA,NA,sdfdsf,0,1,NA,NA,NA,NA,NA,NA,NA,NA,NA,NA,NA,NA,NA,NA,NA,NA,NA,NA,NA
dbf40,deep,flow.Sequence,5_0_1_0_1_0,NA,NA,completion,26174.784,854871.20000002,854866.685,854875.018,881049.802,881053.80000001,2023-12-01T12:56:49Z,881058.135,NULL,Verzögerung,kuchelewa,d,NA,NA,NA,NA,sdfdsf,NA,1,NA,NA,NA,NA,NA,NA,NA,NA,NA,NA,NA,NA,NA,NA,NA,NA,NA,NA,NA
dbf40,shallow,flow.Sequence,5_0_1_0_1_1,NA,NA,skipped,NA,881053.90000001,NA,NA,881049.802,881054,2023-12-01T12:56:49Z,881058.135,NULL,Verzögerung,kuchelewa,d,NA,NA,NA,NA,sdfdsf,NA,1,NA,NA,NA,NA,NA,NA,NA,NA,NA,NA,NA,NA,NA,NA,NA,NA,NA,NA,NA
dbf40,task,flow.Sequence,5_0_1_0_1,NA,NA,completion,26174.784,854871.09999999,854866.685,854875.018,881049.802,881054.20000002,2023-12-01T12:56:49Z,881058.135,NULL,Verzögerung,kuchelewa,d,NA,NA,NA,NA,sdfdsf,NA,1,NA,NA,NA,NA,NA,NA,NA,NA,NA,NA,NA,NA,NA,NA,NA,NA,NA,NA,NA
dbf40,Deep Question,html.Page,5_0_1_0_2_0_0,NA,NA,form submission,24447.165000012,881054.40000001,881049.802,881058.135,905505.30000001,905506,2023-12-01T12:57:14Z,905512.57,NULL,Kultur,utamaduni,d,NA,NA,NA,utomage,NA,NA,1,NA,NA,NA,NA,NA,NA,NA,NA,NA,NA,NA,NA,NA,NA,NA,NA,NA,NA,NA
dbf40,"""Richtig""-Screen",canvas.Screen,5_0_1_0_2_0_1,NA,NA,skipped,NA,905509.09999999,NA,NA,905505.30000001,905509.30000001,2023-12-01T12:57:14Z,905512.57,NULL,Kultur,utamaduni,d,NA,NA,NA,NA,sdfdsf,NA,1,NA,NA,NA,NA,NA,NA,NA,NA,NA,NA,NA,NA,NA,NA,NA,NA,NA,NA,NA
dbf40,"""Falsch""-Screen",canvas.Screen,5_0_1_0_2_0_2,NA,NA,timeout,4999.8,905509.80000001,905504.237,905512.57,910504.037,910507.70000002,2023-12-01T12:57:19Z,910512.37,NULL,Kultur,utamaduni,d,NA,NA,NA,NA,sdfdsf,0,1,NA,NA,NA,NA,NA,NA,NA,NA,NA,NA,NA,NA,NA,NA,NA,NA,NA,NA,NA
dbf40,deep,flow.Sequence,5_0_1_0_2_0,NA,NA,completion,29445.902,881054.30000001,881049.802,881058.135,910504.037,910508.30000000994,2023-12-01T12:57:19Z,910512.37,NULL,Kultur,utamaduni,d,NA,NA,NA,NA,sdfdsf,NA,1,NA,NA,NA,NA,NA,NA,NA,NA,NA,NA,NA,NA,NA,NA,NA,NA,NA,NA,NA
dbf40,shallow,flow.Sequence,5_0_1_0_2_1,NA,NA,skipped,NA,910508.30000000994,NA,NA,910504.037,910508.5,2023-12-01T12:57:19Z,910512.37,NULL,Kultur,utamaduni,d,NA,NA,NA,NA,sdfdsf,NA,1,NA,NA,NA,NA,NA,NA,NA,NA,NA,NA,NA,NA,NA,NA,NA,NA,NA,NA,NA
dbf40,task,flow.Sequence,5_0_1_0_2,NA,NA,completion,29445.902,881054.30000001,881049.802,881058.135,910504.037,910508.59999999,2023-12-01T12:57:19Z,910512.37,NULL,Kultur,utamaduni,d,NA,NA,NA,NA,sdfdsf,NA,1,NA,NA,NA,NA,NA,NA,NA,NA,NA,NA,NA,NA,NA,NA,NA,NA,NA,NA,NA
dbf40,deep,flow.Sequence,5_0_1_0_3_0,NA,NA,skipped,NA,910508.80000001,NA,NA,910504.037,910508.90000001,2023-12-01T12:57:19Z,910512.37,NULL,Beweis,ushahidi,s,marudio,kizuizi,mtendaji,NA,sdfdsf,NA,1,NA,NA,NA,NA,NA,NA,NA,NA,NA,NA,NA,NA,NA,NA,NA,NA,NA,NA,NA
dbf40,Shallow Question,html.Page,5_0_1_0_3_1_0,NA,NA,form submission,13652.030000006,910509,910504.037,910512.37,924164.40000001,924164.90000001,2023-12-01T12:57:32Z,924178.961,NULL,Beweis,ushahidi,s,marudio,kizuizi,mtendaji,ushahidi,NA,NA,1,NA,NA,NA,NA,NA,NA,NA,NA,NA,NA,NA,NA,NA,NA,NA,NA,NA,NA,NA
dbf40,"""Richtig""-Screen",canvas.Screen,5_0_1_0_3_1_1,NA,NA,timeout,5000.297,924167.40000001,924162.295,924178.961,929170.925,929173.70000002,2023-12-01T12:57:37Z,929179.258,NULL,Beweis,ushahidi,s,marudio,kizuizi,mtendaji,NA,sdfdsf,1,1,NA,NA,NA,NA,NA,NA,NA,NA,NA,NA,NA,NA,NA,NA,NA,NA,NA,NA,NA
dbf40,"""Falsch""-Screen",canvas.Screen,5_0_1_0_3_1_2,NA,NA,skipped,NA,929177.70000002,NA,NA,929170.925,929178.09999999,2023-12-01T12:57:37Z,929179.258,NULL,Beweis,ushahidi,s,marudio,kizuizi,mtendaji,NA,sdfdsf,NA,1,NA,NA,NA,NA,NA,NA,NA,NA,NA,NA,NA,NA,NA,NA,NA,NA,NA,NA,NA
dbf40,shallow,flow.Sequence,5_0_1_0_3_1,NA,NA,completion,18658.555,910508.90000001,910504.037,910512.37,929170.925,929178.30000000994,2023-12-01T12:57:37Z,929179.258,NULL,Beweis,ushahidi,s,marudio,kizuizi,mtendaji,NA,sdfdsf,NA,1,NA,NA,NA,NA,NA,NA,NA,NA,NA,NA,NA,NA,NA,NA,NA,NA,NA,NA,NA
dbf40,task,flow.Sequence,5_0_1_0_3,NA,NA,completion,18658.555,910508.80000001,910504.037,910512.37,929170.925,929178.40000001,2023-12-01T12:57:37Z,929179.258,NULL,Beweis,ushahidi,s,marudio,kizuizi,mtendaji,NA,sdfdsf,NA,1,NA,NA,NA,NA,NA,NA,NA,NA,NA,NA,NA,NA,NA,NA,NA,NA,NA,NA,NA
dbf40,deep,flow.Sequence,5_0_1_0_4_0,NA,NA,skipped,NA,929178.5,NA,NA,929170.925,929178.59999999,2023-12-01T12:57:37Z,929179.258,NULL,Aufstand,ugomaji,s,mazidio,msingi,kujieleza,NA,sdfdsf,NA,1,NA,NA,NA,NA,NA,NA,NA,NA,NA,NA,NA,NA,NA,NA,NA,NA,NA,NA,NA
dbf40,Shallow Question,html.Page,5_0_1_0_4_1_0,NA,NA,form submission,16407.742,929178.59999999,929170.925,929179.258,945587,945587.40000001,2023-12-01T12:57:54Z,945599.852,NULL,Aufstand,ugomaji,s,mazidio,msingi,kujieleza,ugomaji,NA,NA,1,NA,NA,NA,NA,NA,NA,NA,NA,NA,NA,NA,NA,NA,NA,NA,NA,NA,NA,NA
dbf40,"""Richtig""-Screen",canvas.Screen,5_0_1_0_4_1_1,NA,NA,timeout,4996.094,945589.90000001,945583.186,945599.852,950587.613,950589.30000001,2023-12-01T12:57:59Z,950595.946,NULL,Aufstand,ugomaji,s,mazidio,msingi,kujieleza,NA,sdfdsf,1,1,NA,NA,NA,NA,NA,NA,NA,NA,NA,NA,NA,NA,NA,NA,NA,NA,NA,NA,NA
dbf40,"""Falsch""-Screen",canvas.Screen,5_0_1_0_4_1_2,NA,NA,skipped,NA,950594.20000002,NA,NA,950587.613,950594.30000001,2023-12-01T12:57:59Z,950595.946,NULL,Aufstand,ugomaji,s,mazidio,msingi,kujieleza,NA,sdfdsf,NA,1,NA,NA,NA,NA,NA,NA,NA,NA,NA,NA,NA,NA,NA,NA,NA,NA,NA,NA,NA
dbf40,shallow,flow.Sequence,5_0_1_0_4_1,NA,NA,completion,21408.355,929178.59999999,929170.925,929179.258,950587.613,950594.5,2023-12-01T12:57:59Z,950595.946,NULL,Aufstand,ugomaji,s,mazidio,msingi,kujieleza,NA,sdfdsf,NA,1,NA,NA,NA,NA,NA,NA,NA,NA,NA,NA,NA,NA,NA,NA,NA,NA,NA,NA,NA
dbf40,task,flow.Sequence,5_0_1_0_4,NA,NA,completion,21408.355,929178.5,929170.925,929179.258,950587.613,950594.5,2023-12-01T12:57:59Z,950595.946,NULL,Aufstand,ugomaji,s,mazidio,msingi,kujieleza,NA,sdfdsf,NA,1,NA,NA,NA,NA,NA,NA,NA,NA,NA,NA,NA,NA,NA,NA,NA,NA,NA,NA,NA
dbf40,deep,flow.Sequence,5_0_1_0_5_0,NA,NA,skipped,NA,950594.5,NA,NA,950587.613,950594.59999999,2023-12-01T12:57:59Z,950595.946,NULL,Polizist,msongora,s,simanzi,mandhari,nidhamu,NA,sdfdsf,NA,1,NA,NA,NA,NA,NA,NA,NA,NA,NA,NA,NA,NA,NA,NA,NA,NA,NA,NA,NA
dbf40,Shallow Question,html.Page,5_0_1_0_5_1_0,NA,NA,form submission,11806.854000012,950594.70000002,950587.613,950595.946,962402.80000000994,962403.5,2023-12-01T12:58:11Z,962408.461,NULL,Polizist,msongora,s,simanzi,mandhari,nidhamu,msongora,NA,NA,1,NA,NA,NA,NA,NA,NA,NA,NA,NA,NA,NA,NA,NA,NA,NA,NA,NA,NA,NA
dbf40,"""Richtig""-Screen",canvas.Screen,5_0_1_0_5_1_1,NA,NA,timeout,4999.8,962405.70000002,962400.128,962408.461,967399.928,967403.59999999,2023-12-01T12:58:16Z,967408.261,NULL,Polizist,msongora,s,simanzi,mandhari,nidhamu,NA,sdfdsf,1,1,NA,NA,NA,NA,NA,NA,NA,NA,NA,NA,NA,NA,NA,NA,NA,NA,NA,NA,NA
dbf40,"""Falsch""-Screen",canvas.Screen,5_0_1_0_5_1_2,NA,NA,skipped,NA,967407.09999999,NA,NA,967399.928,967407.40000001,2023-12-01T12:58:16Z,967408.261,NULL,Polizist,msongora,s,simanzi,mandhari,nidhamu,NA,sdfdsf,NA,1,NA,NA,NA,NA,NA,NA,NA,NA,NA,NA,NA,NA,NA,NA,NA,NA,NA,NA,NA
dbf40,shallow,flow.Sequence,5_0_1_0_5_1,NA,NA,completion,16803.982,950594.70000002,950587.613,950595.946,967399.928,967407.59999999,2023-12-01T12:58:16Z,967408.261,NULL,Polizist,msongora,s,simanzi,mandhari,nidhamu,NA,sdfdsf,NA,1,NA,NA,NA,NA,NA,NA,NA,NA,NA,NA,NA,NA,NA,NA,NA,NA,NA,NA,NA
dbf40,task,flow.Sequence,5_0_1_0_5,NA,NA,completion,16803.982,950594.5,950587.613,950595.946,967399.928,967407.59999999,2023-12-01T12:58:16Z,967408.261,NULL,Polizist,msongora,s,simanzi,mandhari,nidhamu,NA,sdfdsf,NA,1,NA,NA,NA,NA,NA,NA,NA,NA,NA,NA,NA,NA,NA,NA,NA,NA,NA,NA,NA
dbf40,Deep Question,html.Page,5_0_1_0_6_0_0,NA,NA,form submission,40537.338999994,967407.80000000994,967399.928,967408.261,1007945.6,1007946.1,2023-12-01T12:58:56Z,1007958.327,NULL,Sympathie,mapendano,d,NA,NA,NA,ljkhkkl,NA,NA,1,NA,NA,NA,NA,NA,NA,NA,NA,NA,NA,NA,NA,NA,NA,NA,NA,NA,NA,NA
dbf40,"""Richtig""-Screen",canvas.Screen,5_0_1_0_6_0_1,NA,NA,skipped,NA,1007949,NA,NA,1007945.6,1007949,2023-12-01T12:58:56Z,1007958.327,NULL,Sympathie,mapendano,d,NA,NA,NA,NA,sdfdsf,NA,1,NA,NA,NA,NA,NA,NA,NA,NA,NA,NA,NA,NA,NA,NA,NA,NA,NA,NA,NA
dbf40,"""Falsch""-Screen",canvas.Screen,5_0_1_0_6_0_2,NA,NA,timeout,4999.7999999999,1007949.6,1007941.661,1007958.327,1012949.794,1012952.4,2023-12-01T12:59:01Z,1012958.127,NULL,Sympathie,mapendano,d,NA,NA,NA,NA,sdfdsf,0,1,NA,NA,NA,NA,NA,NA,NA,NA,NA,NA,NA,NA,NA,NA,NA,NA,NA,NA,NA
