observation,sender,sender_type,sender_id,response,response_action,ended_on,duration,time_run,time_render,time_show,time_end,time_commit,timestamp,time_switch,german,swahili,enc,distractor1,distractor2,distractor3,response_2,x,correct,distractors,url_vp,url_sess,meta_labjs_version,meta_location,meta_user_agent,meta_platform,meta_language,meta_locale,meta_time_zone,meta_timezone_offset,meta_screen_width,meta_screen_height,meta_scroll_width,meta_scroll_height,meta_window_inner_width,meta_window_inner_height,meta_device_pixel_ratio,meta_labjs_build_flavor,meta_labjs_build_commit
a64c8,Introduction delayed retrieval,canvas.Screen,0,weiter,keypress(Space),response,459.22,2735,2738.12,2754.78,3214,3226,2023-05-14T04:51:04Z,3238.12,NA,NA,NA,NA,NA,NA,NA,NA,NA,NULL,207,4,20.2.4,https://neurocog.fernuni.ch/studies/vweber/sfink/delayed/index.html?vp=207&sess=4,Mozilla/5.0 (Windows NT 10.0; Win64; x64; rv:109.0) Gecko/20100101 Firefox/112.0,Win32,de,de-CH,Europe/Zurich,-120,1280,720,1280,539,1280,539,2.5,production,f5b4a49f956347addd546a832a3327688c2c0fef
a64c8,Deep Question,html.Page,1_0_0_0,NA,NA,form submission,13286.88,3226,3226.08,3238.12,16525,16527,2023-05-14T04:51:17Z,16542.48,Stimmung,kinyongo,d,kilekile,kisambo,madhehebu,mashatada,NA,NA,NULL,NA,NA,NA,NA,NA,NA,NA,NA,NA,NA,NA,NA,NA,NA,NA,NA,NA,NA,NA
a64c8,Save data screen,canvas.Screen,1_0_0_1,NA,NA,timeout,500.02,16536,16523.54,16542.48,17025.84,17027,2023-05-14T04:51:17Z,17042.5,Stimmung,kinyongo,d,kilekile,kisambo,madhehebu,NA,NA,0,NULL,NA,NA,NA,NA,NA,NA,NA,NA,NA,NA,NA,NA,NA,NA,NA,NA,NA,NA,NA
a64c8,deep,flow.Sequence,1_0_0,NA,NA,completion,13787.72,3226,3226.08,3238.12,17025.84,17027,2023-05-14T04:51:17Z,17042.5,Stimmung,kinyongo,d,kilekile,kisambo,madhehebu,NA,NA,NA,NULL,NA,NA,NA,NA,NA,NA,NA,NA,NA,NA,NA,NA,NA,NA,NA,NA,NA,NA,NA
a64c8,task,flow.Sequence,1_0,NA,NA,completion,13787.72,3226,3226.08,3238.12,17025.84,17028,2023-05-14T04:51:17Z,17042.5,Stimmung,kinyongo,d,kilekile,kisambo,madhehebu,NA,NA,NA,NULL,NA,NA,NA,NA,NA,NA,NA,NA,NA,NA,NA,NA,NA,NA,NA,NA,NA,NA,NA
a64c8,Deep Question,html.Page,1_1_0_0,NA,NA,form submission,9517.5,17029,17025.84,17042.5,26560,26560,2023-05-14T04:51:27Z,26565.92,Begegnung,kukutana,d,mmasihiya,mpiganaji,husiano,uhutana,NA,NA,NULL,NA,NA,NA,NA,NA,NA,NA,NA,NA,NA,NA,NA,NA,NA,NA,NA,NA,NA,NA
a64c8,Save data screen,canvas.Screen,1_1_0_1,NA,NA,timeout,500.02,26562,26559.12,26565.92,27049.32,27050,2023-05-14T04:51:27Z,27065.94,Begegnung,kukutana,d,mmasihiya,mpiganaji,husiano,NA,NA,0,NULL,NA,NA,NA,NA,NA,NA,NA,NA,NA,NA,NA,NA,NA,NA,NA,NA,NA,NA,NA
a64c8,deep,flow.Sequence,1_1_0,NA,NA,completion,10006.82,17029,17025.84,17042.5,27049.32,27050,2023-05-14T04:51:27Z,27065.94,Begegnung,kukutana,d,mmasihiya,mpiganaji,husiano,NA,NA,NA,NULL,NA,NA,NA,NA,NA,NA,NA,NA,NA,NA,NA,NA,NA,NA,NA,NA,NA,NA,NA
a64c8,task,flow.Sequence,1_1,NA,NA,completion,10006.82,17029,17025.84,17042.5,27049.32,27051,2023-05-14T04:51:27Z,27065.94,Begegnung,kukutana,d,mmasihiya,mpiganaji,husiano,NA,NA,NA,NULL,NA,NA,NA,NA,NA,NA,NA,NA,NA,NA,NA,NA,NA,NA,NA,NA,NA,NA,NA
a64c8,Deep Question,html.Page,1_2_0_0,NA,NA,form submission,20170.06,27051,27049.32,27065.94,47236,47236,2023-05-14T04:51:48Z,47235.66,Flexibilität,kubadilika,d,enjini,usikilivu,hesabu,kubahada,NA,NA,NULL,NA,NA,NA,NA,NA,NA,NA,NA,NA,NA,NA,NA,NA,NA,NA,NA,NA,NA,NA
a64c8,Save data screen,canvas.Screen,1_2_0_1,NA,NA,timeout,505.34,47239,47235.54,47235.66,47724.32,47725,2023-05-14T04:51:48Z,47741,Flexibilität,kubadilika,d,enjini,usikilivu,hesabu,NA,NA,0,NULL,NA,NA,NA,NA,NA,NA,NA,NA,NA,NA,NA,NA,NA,NA,NA,NA,NA,NA,NA
a64c8,deep,flow.Sequence,1_2_0,NA,NA,completion,20658.38,27051,27049.32,27065.94,47724.32,47726,2023-05-14T04:51:48Z,47741,Flexibilität,kubadilika,d,enjini,usikilivu,hesabu,NA,NA,NA,NULL,NA,NA,NA,NA,NA,NA,NA,NA,NA,NA,NA,NA,NA,NA,NA,NA,NA,NA,NA
a64c8,task,flow.Sequence,1_2,NA,NA,completion,20658.38,27051,27049.32,27065.94,47724.32,47727,2023-05-14T04:51:48Z,47741,Flexibilität,kubadilika,d,enjini,usikilivu,hesabu,NA,NA,NA,NULL,NA,NA,NA,NA,NA,NA,NA,NA,NA,NA,NA,NA,NA,NA,NA,NA,NA,NA,NA
a64c8,Deep Question,html.Page,1_3_0_0,NA,NA,form submission,8186,47727,47724.32,47741,55927,55927,2023-05-14T04:51:56Z,55929.3,Integrität,uadilifu,s,muungano,mtiririko,upunguaji,i,NA,NA,NULL,NA,NA,NA,NA,NA,NA,NA,NA,NA,NA,NA,NA,NA,NA,NA,NA,NA,NA,NA
a64c8,Save data screen,canvas.Screen,1_3_0_1,NA,NA,timeout,499.96,55929,55926.86,55929.3,56412.68,56414,2023-05-14T04:51:57Z,56429.26,Integrität,uadilifu,s,muungano,mtiririko,upunguaji,NA,NA,0,NULL,NA,NA,NA,NA,NA,NA,NA,NA,NA,NA,NA,NA,NA,NA,NA,NA,NA,NA,NA
a64c8,deep,flow.Sequence,1_3_0,NA,NA,completion,8671.68,47727,47724.32,47741,56412.68,56416,2023-05-14T04:51:57Z,56429.26,Integrität,uadilifu,s,muungano,mtiririko,upunguaji,NA,NA,NA,NULL,NA,NA,NA,NA,NA,NA,NA,NA,NA,NA,NA,NA,NA,NA,NA,NA,NA,NA,NA
a64c8,task,flow.Sequence,1_3,NA,NA,completion,8671.68,47727,47724.32,47741,56412.68,56417,2023-05-14T04:51:57Z,56429.26,Integrität,uadilifu,s,muungano,mtiririko,upunguaji,NA,NA,NA,NULL,NA,NA,NA,NA,NA,NA,NA,NA,NA,NA,NA,NA,NA,NA,NA,NA,NA,NA,NA
a64c8,Deep Question,html.Page,1_4_0_0,NA,NA,form submission,6386.74,56418,56412.68,56429.26,62816,62816,2023-05-14T04:52:03Z,62815.82,Niveau,kiwango,s,usimamizi,mwamali,mshairi,n,NA,NA,NULL,NA,NA,NA,NA,NA,NA,NA,NA,NA,NA,NA,NA,NA,NA,NA,NA,NA,NA,NA
a64c8,Save data screen,canvas.Screen,1_4_0_1,NA,NA,timeout,505.32,62820,62815.68,62815.82,63304.48,63306,2023-05-14T04:52:04Z,63321.14,Niveau,kiwango,s,usimamizi,mwamali,mshairi,NA,NA,0,NULL,NA,NA,NA,NA,NA,NA,NA,NA,NA,NA,NA,NA,NA,NA,NA,NA,NA,NA,NA
a64c8,deep,flow.Sequence,1_4_0,NA,NA,completion,6875.22,56417,56412.68,56429.26,63304.48,63306,2023-05-14T04:52:04Z,63321.14,Niveau,kiwango,s,usimamizi,mwamali,mshairi,NA,NA,NA,NULL,NA,NA,NA,NA,NA,NA,NA,NA,NA,NA,NA,NA,NA,NA,NA,NA,NA,NA,NA
a64c8,task,flow.Sequence,1_4,NA,NA,completion,6875.22,56417,56412.68,56429.26,63304.48,63307,2023-05-14T04:52:04Z,63321.14,Niveau,kiwango,s,usimamizi,mwamali,mshairi,NA,NA,NA,NULL,NA,NA,NA,NA,NA,NA,NA,NA,NA,NA,NA,NA,NA,NA,NA,NA,NA,NA,NA
a64c8,Deep Question,html.Page,1_5_0_0,NA,NA,form submission,6879.86,63307,63304.48,63321.14,70201,70201,2023-05-14T04:52:11Z,70216.06,Papier,karatasi,s,uchambuzi,usalama,kukataliwa,p,NA,NA,NULL,NA,NA,NA,NA,NA,NA,NA,NA,NA,NA,NA,NA,NA,NA,NA,NA,NA,NA,NA
a64c8,Save data screen,canvas.Screen,1_5_0_1,NA,NA,timeout,500.04000000001,70206,70199.5,70216.06,70699.44,70700,2023-05-14T04:52:11Z,70716.1,Papier,karatasi,s,uchambuzi,usalama,kukataliwa,NA,NA,0,NULL,NA,NA,NA,NA,NA,NA,NA,NA,NA,NA,NA,NA,NA,NA,NA,NA,NA,NA,NA
a64c8,deep,flow.Sequence,1_5_0,NA,NA,completion,7378.3,63307,63304.48,63321.14,70699.44,70700,2023-05-14T04:52:11Z,70716.1,Papier,karatasi,s,uchambuzi,usalama,kukataliwa,NA,NA,NA,NULL,NA,NA,NA,NA,NA,NA,NA,NA,NA,NA,NA,NA,NA,NA,NA,NA,NA,NA,NA
a64c8,task,flow.Sequence,1_5,NA,NA,completion,7378.3,63307,63304.48,63321.14,70699.44,70701,2023-05-14T04:52:11Z,70716.1,Papier,karatasi,s,uchambuzi,usalama,kukataliwa,NA,NA,NA,NULL,NA,NA,NA,NA,NA,NA,NA,NA,NA,NA,NA,NA,NA,NA,NA,NA,NA,NA,NA
a64c8,Deep Question,html.Page,1_6_0_0,NA,NA,form submission,12864.9,70702,70699.44,70716.1,83581,83582,2023-05-14T04:52:24Z,83588.78,Wechsel,ugeuzaji,s,utambulisho,kujenga,wasiwasi,w,NA,NA,NULL,NA,NA,NA,NA,NA,NA,NA,NA,NA,NA,NA,NA,NA,NA,NA,NA,NA,NA,NA
a64c8,Save data screen,canvas.Screen,1_6_0_1,NA,NA,timeout,499.08,83585,83579.86,83588.78,84071.2,84072,2023-05-14T04:52:24Z,84087.86,Wechsel,ugeuzaji,s,utambulisho,kujenga,wasiwasi,NA,NA,0,NULL,NA,NA,NA,NA,NA,NA,NA,NA,NA,NA,NA,NA,NA,NA,NA,NA,NA,NA,NA
a64c8,deep,flow.Sequence,1_6_0,NA,NA,completion,13355.1,70702,70699.44,70716.1,84071.2,84073,2023-05-14T04:52:24Z,84087.86,Wechsel,ugeuzaji,s,utambulisho,kujenga,wasiwasi,NA,NA,NA,NULL,NA,NA,NA,NA,NA,NA,NA,NA,NA,NA,NA,NA,NA,NA,NA,NA,NA,NA,NA
a64c8,task,flow.Sequence,1_6,NA,NA,completion,13355.1,70702,70699.44,70716.1,84071.2,84073,2023-05-14T04:52:24Z,84087.86,Wechsel,ugeuzaji,s,utambulisho,kujenga,wasiwasi,NA,NA,NA,NULL,NA,NA,NA,NA,NA,NA,NA,NA,NA,NA,NA,NA,NA,NA,NA,NA,NA,NA,NA
a64c8,Deep Question,html.Page,1_7_0_0,NA,NA,form submission,7573.14,84074,84071.2,84087.86,91661,91661,2023-05-14T04:52:32Z,91665.6,Betrüger,mdanganyifu,d,mwanamuziki,wastani,mahakama,maji,NA,NA,NULL,NA,NA,NA,NA,NA,NA,NA,NA,NA,NA,NA,NA,NA,NA,NA,NA,NA,NA,NA
a64c8,Save data screen,canvas.Screen,1_7_0_1,NA,NA,timeout,500.75999999999,91663,91659.8,91665.6,92149.68,92150,2023-05-14T04:52:33Z,92166.36,Betrüger,mdanganyifu,d,mwanamuziki,wastani,mahakama,NA,NA,0,NULL,NA,NA,NA,NA,NA,NA,NA,NA,NA,NA,NA,NA,NA,NA,NA,NA,NA,NA,NA
a64c8,deep,flow.Sequence,1_7_0,NA,NA,completion,8061.82,84074,84071.2,84087.86,92149.68,92151,2023-05-14T04:52:33Z,92166.36,Betrüger,mdanganyifu,d,mwanamuziki,wastani,mahakama,NA,NA,NA,NULL,NA,NA,NA,NA,NA,NA,NA,NA,NA,NA,NA,NA,NA,NA,NA,NA,NA,NA,NA
a64c8,task,flow.Sequence,1_7,NA,NA,completion,8061.82,84074,84071.2,84087.86,92149.68,92151,2023-05-14T04:52:33Z,92166.36,Betrüger,mdanganyifu,d,mwanamuziki,wastani,mahakama,NA,NA,NA,NULL,NA,NA,NA,NA,NA,NA,NA,NA,NA,NA,NA,NA,NA,NA,NA,NA,NA,NA,NA
a64c8,Deep Question,html.Page,1_8_0_0,NA,NA,form submission,9064.64,92152,92149.68,92166.36,101231,101231,2023-05-14T04:52:42Z,101230.52,Entwicklung,maendeleo,d,uangavu,mshindwa,badiliko,maendeleo,NA,NA,NULL,NA,NA,NA,NA,NA,NA,NA,NA,NA,NA,NA,NA,NA,NA,NA,NA,NA,NA,NA
a64c8,Save data screen,canvas.Screen,1_8_0_1,NA,NA,timeout,505.34,101233,101230.38,101230.52,101719.24,101720,2023-05-14T04:52:42Z,101735.86,Entwicklung,maendeleo,d,uangavu,mshindwa,badiliko,NA,NA,1,NULL,NA,NA,NA,NA,NA,NA,NA,NA,NA,NA,NA,NA,NA,NA,NA,NA,NA,NA,NA
a64c8,deep,flow.Sequence,1_8_0,NA,NA,completion,9552.88,92152,92149.68,92166.36,101719.24,101721,2023-05-14T04:52:42Z,101735.86,Entwicklung,maendeleo,d,uangavu,mshindwa,badiliko,NA,NA,NA,NULL,NA,NA,NA,NA,NA,NA,NA,NA,NA,NA,NA,NA,NA,NA,NA,NA,NA,NA,NA
a64c8,task,flow.Sequence,1_8,NA,NA,completion,9552.88,92151,92149.68,92166.36,101719.24,101722,2023-05-14T04:52:42Z,101735.86,Entwicklung,maendeleo,d,uangavu,mshindwa,badiliko,NA,NA,NA,NULL,NA,NA,NA,NA,NA,NA,NA,NA,NA,NA,NA,NA,NA,NA,NA,NA,NA,NA,NA
a64c8,Deep Question,html.Page,1_9_0_0,NA,NA,form submission,10211.14,101723,101719.24,101735.86,111947,111947,2023-05-14T04:52:52Z,111959.22,Erneuerung,ukarabati,s,ushawishi,ukalifu,unyonyaji,n,NA,NA,NULL,NA,NA,NA,NA,NA,NA,NA,NA,NA,NA,NA,NA,NA,NA,NA,NA,NA,NA,NA
a64c8,Save data screen,canvas.Screen,1_9_0_1,NA,NA,timeout,500,111949,111946.5,111959.22,112442.56,112444,2023-05-14T04:52:53Z,112459.22,Erneuerung,ukarabati,s,ushawishi,ukalifu,unyonyaji,NA,NA,0,NULL,NA,NA,NA,NA,NA,NA,NA,NA,NA,NA,NA,NA,NA,NA,NA,NA,NA,NA,NA
a64c8,deep,flow.Sequence,1_9_0,NA,NA,completion,10706.7,101723,101719.24,101735.86,112442.56,112446,2023-05-14T04:52:53Z,112459.22,Erneuerung,ukarabati,s,ushawishi,ukalifu,unyonyaji,NA,NA,NA,NULL,NA,NA,NA,NA,NA,NA,NA,NA,NA,NA,NA,NA,NA,NA,NA,NA,NA,NA,NA
a64c8,task,flow.Sequence,1_9,NA,NA,completion,10706.7,101722,101719.24,101735.86,112442.56,112448,2023-05-14T04:52:53Z,112459.22,Erneuerung,ukarabati,s,ushawishi,ukalifu,unyonyaji,NA,NA,NA,NULL,NA,NA,NA,NA,NA,NA,NA,NA,NA,NA,NA,NA,NA,NA,NA,NA,NA,NA,NA
a64c8,Deep Question,html.Page,1_10_0_0,NA,NA,form submission,15634.78,112450,112442.56,112459.22,128094,128095,2023-05-14T04:53:08Z,128108.82,Atmosphäre,angahewa,d,kuteseka,usahihi,kutoamini,a,NA,NA,NULL,NA,NA,NA,NA,NA,NA,NA,NA,NA,NA,NA,NA,NA,NA,NA,NA,NA,NA,NA
a64c8,Save data screen,canvas.Screen,1_10_0_1,NA,NA,timeout,500.06,128099,128093.6,128108.82,128592.22,128593,2023-05-14T04:53:09Z,128608.88,Atmosphäre,angahewa,d,kuteseka,usahihi,kutoamini,NA,NA,0,NULL,NA,NA,NA,NA,NA,NA,NA,NA,NA,NA,NA,NA,NA,NA,NA,NA,NA,NA,NA
a64c8,deep,flow.Sequence,1_10_0,NA,NA,completion,16133,112449,112442.56,112459.22,128592.22,128593,2023-05-14T04:53:09Z,128608.88,Atmosphäre,angahewa,d,kuteseka,usahihi,kutoamini,NA,NA,NA,NULL,NA,NA,NA,NA,NA,NA,NA,NA,NA,NA,NA,NA,NA,NA,NA,NA,NA,NA,NA
a64c8,task,flow.Sequence,1_10,NA,NA,completion,16133,112449,112442.56,112459.22,128592.22,128594,2023-05-14T04:53:09Z,128608.88,Atmosphäre,angahewa,d,kuteseka,usahihi,kutoamini,NA,NA,NA,NULL,NA,NA,NA,NA,NA,NA,NA,NA,NA,NA,NA,NA,NA,NA,NA,NA,NA,NA,NA
a64c8,Deep Question,html.Page,1_11_0_0,NA,NA,form submission,4959.12,128594,128592.22,128608.88,133568,133569,2023-05-14T04:53:14Z,133568.42,Fleisch,mshakiki,s,kizunguzungu,mshikamano,angusho,f,NA,NA,NULL,NA,NA,NA,NA,NA,NA,NA,NA,NA,NA,NA,NA,NA,NA,NA,NA,NA,NA,NA
a64c8,Save data screen,canvas.Screen,1_11_0_1,NA,NA,timeout,500.65999999997,133571,133568.28,133568.42,134052.4,134053,2023-05-14T04:53:14Z,134069.08,Fleisch,mshakiki,s,kizunguzungu,mshikamano,angusho,NA,NA,0,NULL,NA,NA,NA,NA,NA,NA,NA,NA,NA,NA,NA,NA,NA,NA,NA,NA,NA,NA,NA
a64c8,deep,flow.Sequence,1_11_0,NA,NA,completion,5443.52,128594,128592.22,128608.88,134052.4,134053,2023-05-14T04:53:14Z,134069.08,Fleisch,mshakiki,s,kizunguzungu,mshikamano,angusho,NA,NA,NA,NULL,NA,NA,NA,NA,NA,NA,NA,NA,NA,NA,NA,NA,NA,NA,NA,NA,NA,NA,NA
a64c8,task,flow.Sequence,1_11,NA,NA,completion,5443.52,128594,128592.22,128608.88,134052.4,134053,2023-05-14T04:53:14Z,134069.08,Fleisch,mshakiki,s,kizunguzungu,mshikamano,angusho,NA,NA,NA,NULL,NA,NA,NA,NA,NA,NA,NA,NA,NA,NA,NA,NA,NA,NA,NA,NA,NA,NA,NA
a64c8,Deep Question,html.Page,1_12_0_0,NA,NA,form submission,4023.92,134055,134052.4,134069.08,138093,138093,2023-05-14T04:53:18Z,138105.5,Orientierung,urekebisho,s,uelekeo,marekebisho,utunzaji,o,NA,NA,NULL,NA,NA,NA,NA,NA,NA,NA,NA,NA,NA,NA,NA,NA,NA,NA,NA,NA,NA,NA
a64c8,Save data screen,canvas.Screen,1_12_0_1,NA,NA,timeout,500,138094,138092.02,138105.5,138588.82,138590,2023-05-14T04:53:19Z,138605.5,Orientierung,urekebisho,s,uelekeo,marekebisho,utunzaji,NA,NA,0,NULL,NA,NA,NA,NA,NA,NA,NA,NA,NA,NA,NA,NA,NA,NA,NA,NA,NA,NA,NA
a64c8,deep,flow.Sequence,1_12_0,NA,NA,completion,4519.74,134055,134052.4,134069.08,138588.82,138590,2023-05-14T04:53:19Z,138605.5,Orientierung,urekebisho,s,uelekeo,marekebisho,utunzaji,NA,NA,NA,NULL,NA,NA,NA,NA,NA,NA,NA,NA,NA,NA,NA,NA,NA,NA,NA,NA,NA,NA,NA
a64c8,task,flow.Sequence,1_12,NA,NA,completion,4519.74,134054,134052.4,134069.08,138588.82,138591,2023-05-14T04:53:19Z,138605.5,Orientierung,urekebisho,s,uelekeo,marekebisho,utunzaji,NA,NA,NA,NULL,NA,NA,NA,NA,NA,NA,NA,NA,NA,NA,NA,NA,NA,NA,NA,NA,NA,NA,NA
a64c8,Deep Question,html.Page,1_13_0_0,NA,NA,form submission,5237.5,138591,138588.82,138605.5,143843,143844,2023-05-14T04:53:24Z,143848.8,Vorwurf,mashtaka,d,msukumo,mtangulizi,uenyekiti,v,NA,NA,NULL,NA,NA,NA,NA,NA,NA,NA,NA,NA,NA,NA,NA,NA,NA,NA,NA,NA,NA,NA
a64c8,Save data screen,canvas.Screen,1_13_0_1,NA,NA,timeout,500,143845,143843.02,143848.8,144332.12,144333,2023-05-14T04:53:25Z,144348.8,Vorwurf,mashtaka,d,msukumo,mtangulizi,uenyekiti,NA,NA,0,NULL,NA,NA,NA,NA,NA,NA,NA,NA,NA,NA,NA,NA,NA,NA,NA,NA,NA,NA,NA
a64c8,deep,flow.Sequence,1_13_0,NA,NA,completion,5726.62,138591,138588.82,138605.5,144332.12,144333,2023-05-14T04:53:25Z,144348.8,Vorwurf,mashtaka,d,msukumo,mtangulizi,uenyekiti,NA,NA,NA,NULL,NA,NA,NA,NA,NA,NA,NA,NA,NA,NA,NA,NA,NA,NA,NA,NA,NA,NA,NA
a64c8,task,flow.Sequence,1_13,NA,NA,completion,5726.62,138591,138588.82,138605.5,144332.12,144333,2023-05-14T04:53:25Z,144348.8,Vorwurf,mashtaka,d,msukumo,mtangulizi,uenyekiti,NA,NA,NA,NULL,NA,NA,NA,NA,NA,NA,NA,NA,NA,NA,NA,NA,NA,NA,NA,NA,NA,NA,NA
a64c8,Deep Question,html.Page,1_14_0_0,NA,NA,form submission,2647.2,144334,144332.12,144348.8,146996,146996,2023-05-14T04:53:27Z,146995.54,Respekt,heshima,s,changamnao,upinzani,ufanisi,r,NA,NA,NULL,NA,NA,NA,NA,NA,NA,NA,NA,NA,NA,NA,NA,NA,NA,NA,NA,NA,NA,NA
a64c8,Save data screen,canvas.Screen,1_14_0_1,NA,NA,timeout,505.31999999998,146998,146995.42,146995.54,147484.2,147484,2023-05-14T04:53:28Z,147500.86,Respekt,heshima,s,changamnao,upinzani,ufanisi,NA,NA,0,NULL,NA,NA,NA,NA,NA,NA,NA,NA,NA,NA,NA,NA,NA,NA,NA,NA,NA,NA,NA
a64c8,deep,flow.Sequence,1_14_0,NA,NA,completion,3135.4,144334,144332.12,144348.8,147484.2,147485,2023-05-14T04:53:28Z,147500.86,Respekt,heshima,s,changamnao,upinzani,ufanisi,NA,NA,NA,NULL,NA,NA,NA,NA,NA,NA,NA,NA,NA,NA,NA,NA,NA,NA,NA,NA,NA,NA,NA
a64c8,task,flow.Sequence,1_14,NA,NA,completion,3135.4,144334,144332.12,144348.8,147484.2,147485,2023-05-14T04:53:28Z,147500.86,Respekt,heshima,s,changamnao,upinzani,ufanisi,NA,NA,NA,NULL,NA,NA,NA,NA,NA,NA,NA,NA,NA,NA,NA,NA,NA,NA,NA,NA,NA,NA,NA
a64c8,Deep Question,html.Page,1_15_0_0,NA,NA,form submission,5733.14,147485,147484.2,147500.86,153234,153234,2023-05-14T04:53:34Z,153249.4,Genehmigung,idhini,d,mwanamke,itikadi,fedheha,g,NA,NA,NULL,NA,NA,NA,NA,NA,NA,NA,NA,NA,NA,NA,NA,NA,NA,NA,NA,NA,NA,NA
a64c8,Save data screen,canvas.Screen,1_15_0_1,NA,NA,timeout,499.98000000001,153235,153232.8,153249.4,153732.82,153734,2023-05-14T04:53:34Z,153749.38,Genehmigung,idhini,d,mwanamke,itikadi,fedheha,NA,NA,0,NULL,NA,NA,NA,NA,NA,NA,NA,NA,NA,NA,NA,NA,NA,NA,NA,NA,NA,NA,NA
a64c8,deep,flow.Sequence,1_15_0,NA,NA,completion,6231.96,147485,147484.2,147500.86,153732.82,153736,2023-05-14T04:53:34Z,153749.38,Genehmigung,idhini,d,mwanamke,itikadi,fedheha,NA,NA,NA,NULL,NA,NA,NA,NA,NA,NA,NA,NA,NA,NA,NA,NA,NA,NA,NA,NA,NA,NA,NA
a64c8,task,flow.Sequence,1_15,NA,NA,completion,6231.96,147485,147484.2,147500.86,153732.82,153737,2023-05-14T04:53:34Z,153749.38,Genehmigung,idhini,d,mwanamke,itikadi,fedheha,NA,NA,NA,NULL,NA,NA,NA,NA,NA,NA,NA,NA,NA,NA,NA,NA,NA,NA,NA,NA,NA,NA,NA
a64c8,retrieval block 1 (cued recall),flow.Loop,1,NA,NA,completion,150494.7,3226,3226.08,3238.12,153732.82,153738,2023-05-14T04:53:34Z,153749.38,NA,NA,NA,NA,NA,NA,NA,NA,NA,NULL,NA,NA,NA,NA,NA,NA,NA,NA,NA,NA,NA,NA,NA,NA,NA,NA,NA,NA,NA
a64c8,Shallow Question,html.Page,2_0_0_0,NA,NA,form submission,4738.62,153738,153732.82,153749.38,158488,158489,2023-05-14T04:53:39Z,158487.66,Genehmigung,idhini,d,mwanamke,itikadi,fedheha,idhini,NA,NA,"c(""distractor1"", ""distractor2"", ""distractor3"")",NA,NA,NA,NA,NA,NA,NA,NA,NA,NA,NA,NA,NA,NA,NA,NA,NA,NA,NA
a64c8,Save data screen,canvas.Screen,2_0_0_1,NA,NA,timeout,495.91999999998,158491,158487.5,158487.66,158966.92,158968,2023-05-14T04:53:39Z,158983.58,Genehmigung,idhini,d,mwanamke,itikadi,fedheha,NA,NA,1,"c(""distractor1"", ""distractor2"", ""distractor3"")",NA,NA,NA,NA,NA,NA,NA,NA,NA,NA,NA,NA,NA,NA,NA,NA,NA,NA,NA
a64c8,shallow,flow.Sequence,2_0_0,NA,NA,completion,5217.54,153738,153732.82,153749.38,158966.92,158968,2023-05-14T04:53:39Z,158983.58,Genehmigung,idhini,d,mwanamke,itikadi,fedheha,NA,NA,NA,"c(""distractor1"", ""distractor2"", ""distractor3"")",NA,NA,NA,NA,NA,NA,NA,NA,NA,NA,NA,NA,NA,NA,NA,NA,NA,NA,NA
a64c8,task,flow.Sequence,2_0,NA,NA,completion,5217.54,153738,153732.82,153749.38,158966.92,158968,2023-05-14T04:53:39Z,158983.58,Genehmigung,idhini,d,mwanamke,itikadi,fedheha,NA,NA,NA,"c(""distractor1"", ""distractor2"", ""distractor3"")",NA,NA,NA,NA,NA,NA,NA,NA,NA,NA,NA,NA,NA,NA,NA,NA,NA,NA,NA
a64c8,Shallow Question,html.Page,2_1_0_0,NA,NA,form submission,9600.42,158969,158966.92,158983.58,168584,168585,2023-05-14T04:53:49Z,168584.24,Orientierung,urekebisho,s,uelekeo,marekebisho,utunzaji,urekebisho,NA,NA,"c(""distractor1"", ""distractor2"", ""distractor3"")",NA,NA,NA,NA,NA,NA,NA,NA,NA,NA,NA,NA,NA,NA,NA,NA,NA,NA,NA
a64c8,Save data screen,canvas.Screen,2_1_0_1,NA,NA,timeout,505.36000000002,168587,168584.1,168584.24,169072.94,169074,2023-05-14T04:53:49Z,169089.6,Orientierung,urekebisho,s,uelekeo,marekebisho,utunzaji,NA,NA,1,"c(""distractor1"", ""distractor2"", ""distractor3"")",NA,NA,NA,NA,NA,NA,NA,NA,NA,NA,NA,NA,NA,NA,NA,NA,NA,NA,NA
a64c8,shallow,flow.Sequence,2_1_0,NA,NA,completion,10089.36,158969,158966.92,158983.58,169072.94,169074,2023-05-14T04:53:49Z,169089.6,Orientierung,urekebisho,s,uelekeo,marekebisho,utunzaji,NA,NA,NA,"c(""distractor1"", ""distractor2"", ""distractor3"")",NA,NA,NA,NA,NA,NA,NA,NA,NA,NA,NA,NA,NA,NA,NA,NA,NA,NA,NA
a64c8,task,flow.Sequence,2_1,NA,NA,completion,10089.36,158969,158966.92,158983.58,169072.94,169075,2023-05-14T04:53:49Z,169089.6,Orientierung,urekebisho,s,uelekeo,marekebisho,utunzaji,NA,NA,NA,"c(""distractor1"", ""distractor2"", ""distractor3"")",NA,NA,NA,NA,NA,NA,NA,NA,NA,NA,NA,NA,NA,NA,NA,NA,NA,NA,NA
a64c8,Shallow Question,html.Page,2_2_0_0,NA,NA,form submission,4230.4,169075,169072.94,169089.6,173320,173321,2023-05-14T04:53:54Z,173318.42,Erneuerung,ukarabati,s,ushawishi,ukalifu,unyonyaji,ukarabati,NA,NA,"c(""distractor1"", ""distractor2"", ""distractor3"")",NA,NA,NA,NA,NA,NA,NA,NA,NA,NA,NA,NA,NA,NA,NA,NA,NA,NA,NA
a64c8,Save data screen,canvas.Screen,2_2_0_1,NA,NA,timeout,505.31999999998,173324,173318.26,173318.42,173807.08,173808,2023-05-14T04:53:54Z,173823.74,Erneuerung,ukarabati,s,ushawishi,ukalifu,unyonyaji,NA,NA,1,"c(""distractor1"", ""distractor2"", ""distractor3"")",NA,NA,NA,NA,NA,NA,NA,NA,NA,NA,NA,NA,NA,NA,NA,NA,NA,NA,NA
a64c8,shallow,flow.Sequence,2_2_0,NA,NA,completion,4717.48,169075,169072.94,169089.6,173807.08,173809,2023-05-14T04:53:54Z,173823.74,Erneuerung,ukarabati,s,ushawishi,ukalifu,unyonyaji,NA,NA,NA,"c(""distractor1"", ""distractor2"", ""distractor3"")",NA,NA,NA,NA,NA,NA,NA,NA,NA,NA,NA,NA,NA,NA,NA,NA,NA,NA,NA
a64c8,task,flow.Sequence,2_2,NA,NA,completion,4717.48,169075,169072.94,169089.6,173807.08,173809,2023-05-14T04:53:54Z,173823.74,Erneuerung,ukarabati,s,ushawishi,ukalifu,unyonyaji,NA,NA,NA,"c(""distractor1"", ""distractor2"", ""distractor3"")",NA,NA,NA,NA,NA,NA,NA,NA,NA,NA,NA,NA,NA,NA,NA,NA,NA,NA,NA
a64c8,Shallow Question,html.Page,2_3_0_0,NA,NA,form submission,5992.26,173810,173807.08,173823.74,179816,179816,2023-05-14T04:54:00Z,179815.58,Papier,karatasi,s,uchambuzi,usalama,kukataliwa,karatasi,NA,NA,"c(""distractor1"", ""distractor2"", ""distractor3"")",NA,NA,NA,NA,NA,NA,NA,NA,NA,NA,NA,NA,NA,NA,NA,NA,NA,NA,NA
a64c8,Save data screen,canvas.Screen,2_3_0_1,NA,NA,timeout,496.22,179818,179815.44,179815.58,180295.12,180296,2023-05-14T04:54:01Z,180311.8,Papier,karatasi,s,uchambuzi,usalama,kukataliwa,NA,NA,1,"c(""distractor1"", ""distractor2"", ""distractor3"")",NA,NA,NA,NA,NA,NA,NA,NA,NA,NA,NA,NA,NA,NA,NA,NA,NA,NA,NA
a64c8,shallow,flow.Sequence,2_3_0,NA,NA,completion,6471.38,173810,173807.08,173823.74,180295.12,180297,2023-05-14T04:54:01Z,180311.8,Papier,karatasi,s,uchambuzi,usalama,kukataliwa,NA,NA,NA,"c(""distractor1"", ""distractor2"", ""distractor3"")",NA,NA,NA,NA,NA,NA,NA,NA,NA,NA,NA,NA,NA,NA,NA,NA,NA,NA,NA
a64c8,task,flow.Sequence,2_3,NA,NA,completion,6471.38,173809,173807.08,173823.74,180295.12,180297,2023-05-14T04:54:01Z,180311.8,Papier,karatasi,s,uchambuzi,usalama,kukataliwa,NA,NA,NA,"c(""distractor1"", ""distractor2"", ""distractor3"")",NA,NA,NA,NA,NA,NA,NA,NA,NA,NA,NA,NA,NA,NA,NA,NA,NA,NA,NA
a64c8,Shallow Question,html.Page,2_4_0_0,NA,NA,form submission,8936.2,180298,180295.12,180311.8,189248,189249,2023-05-14T04:54:10Z,189248.28,Wechsel,ugeuzaji,s,utambulisho,kujenga,wasiwasi,ugeuzaji,NA,NA,"c(""distractor1"", ""distractor2"", ""distractor3"")",NA,NA,NA,NA,NA,NA,NA,NA,NA,NA,NA,NA,NA,NA,NA,NA,NA,NA,NA
a64c8,Save data screen,canvas.Screen,2_4_0_1,NA,NA,timeout,505.32000000001,189250,189248.14,189248.28,189736.94,189738,2023-05-14T04:54:10Z,189753.6,Wechsel,ugeuzaji,s,utambulisho,kujenga,wasiwasi,NA,NA,1,"c(""distractor1"", ""distractor2"", ""distractor3"")",NA,NA,NA,NA,NA,NA,NA,NA,NA,NA,NA,NA,NA,NA,NA,NA,NA,NA,NA
a64c8,shallow,flow.Sequence,2_4_0,NA,NA,completion,9425.14,180297,180295.12,180311.8,189736.94,189738,2023-05-14T04:54:10Z,189753.6,Wechsel,ugeuzaji,s,utambulisho,kujenga,wasiwasi,NA,NA,NA,"c(""distractor1"", ""distractor2"", ""distractor3"")",NA,NA,NA,NA,NA,NA,NA,NA,NA,NA,NA,NA,NA,NA,NA,NA,NA,NA,NA
a64c8,task,flow.Sequence,2_4,NA,NA,completion,9425.14,180297,180295.12,180311.8,189736.94,189739,2023-05-14T04:54:10Z,189753.6,Wechsel,ugeuzaji,s,utambulisho,kujenga,wasiwasi,NA,NA,NA,"c(""distractor1"", ""distractor2"", ""distractor3"")",NA,NA,NA,NA,NA,NA,NA,NA,NA,NA,NA,NA,NA,NA,NA,NA,NA,NA,NA
a64c8,Shallow Question,html.Page,2_5_0_0,NA,NA,form submission,6079.4,189739,189736.94,189753.6,195833,195833,2023-05-14T04:54:16Z,195832.08,Betrüger,mdanganyifu,d,mwanamuziki,wastani,mahakama,mdanganyifu,NA,NA,"c(""distractor1"", ""distractor2"", ""distractor3"")",NA,NA,NA,NA,NA,NA,NA,NA,NA,NA,NA,NA,NA,NA,NA,NA,NA,NA,NA
a64c8,Save data screen,canvas.Screen,2_5_0_1,NA,NA,timeout,492.04000000001,195834,195831.94,195832.08,196307.44,196308,2023-05-14T04:54:17Z,196324.12,Betrüger,mdanganyifu,d,mwanamuziki,wastani,mahakama,NA,NA,1,"c(""distractor1"", ""distractor2"", ""distractor3"")",NA,NA,NA,NA,NA,NA,NA,NA,NA,NA,NA,NA,NA,NA,NA,NA,NA,NA,NA
a64c8,shallow,flow.Sequence,2_5_0,NA,NA,completion,6553.84,189739,189736.94,189753.6,196307.44,196309,2023-05-14T04:54:17Z,196324.12,Betrüger,mdanganyifu,d,mwanamuziki,wastani,mahakama,NA,NA,NA,"c(""distractor1"", ""distractor2"", ""distractor3"")",NA,NA,NA,NA,NA,NA,NA,NA,NA,NA,NA,NA,NA,NA,NA,NA,NA,NA,NA
a64c8,task,flow.Sequence,2_5,NA,NA,completion,6553.84,189739,189736.94,189753.6,196307.44,196309,2023-05-14T04:54:17Z,196324.12,Betrüger,mdanganyifu,d,mwanamuziki,wastani,mahakama,NA,NA,NA,"c(""distractor1"", ""distractor2"", ""distractor3"")",NA,NA,NA,NA,NA,NA,NA,NA,NA,NA,NA,NA,NA,NA,NA,NA,NA,NA,NA
a64c8,Shallow Question,html.Page,2_6_0_0,NA,NA,form submission,12729.88,196309,196307.44,196324.12,209054,209054,2023-05-14T04:54:29Z,209052.8,Flexibilität,kubadilika,d,enjini,usikilivu,hesabu,hesabu,NA,NA,"c(""distractor1"", ""distractor2"", ""distractor3"")",NA,NA,NA,NA,NA,NA,NA,NA,NA,NA,NA,NA,NA,NA,NA,NA,NA,NA,NA
a64c8,Save data screen,canvas.Screen,2_6_0_1,NA,NA,timeout,496.68000000002,209055,209052.66,209052.8,209532.82,209533,2023-05-14T04:54:30Z,209549.48,Flexibilität,kubadilika,d,enjini,usikilivu,hesabu,NA,NA,0,"c(""distractor1"", ""distractor2"", ""distractor3"")",NA,NA,NA,NA,NA,NA,NA,NA,NA,NA,NA,NA,NA,NA,NA,NA,NA,NA,NA
a64c8,shallow,flow.Sequence,2_6_0,NA,NA,completion,13208.7,196309,196307.44,196324.12,209532.82,209533,2023-05-14T04:54:30Z,209549.48,Flexibilität,kubadilika,d,enjini,usikilivu,hesabu,NA,NA,NA,"c(""distractor1"", ""distractor2"", ""distractor3"")",NA,NA,NA,NA,NA,NA,NA,NA,NA,NA,NA,NA,NA,NA,NA,NA,NA,NA,NA
a64c8,task,flow.Sequence,2_6,NA,NA,completion,13208.7,196309,196307.44,196324.12,209532.82,209534,2023-05-14T04:54:30Z,209549.48,Flexibilität,kubadilika,d,enjini,usikilivu,hesabu,NA,NA,NA,"c(""distractor1"", ""distractor2"", ""distractor3"")",NA,NA,NA,NA,NA,NA,NA,NA,NA,NA,NA,NA,NA,NA,NA,NA,NA,NA,NA
a64c8,Shallow Question,html.Page,2_7_0_0,NA,NA,form submission,7166.52,209534,209532.82,209549.48,216716,216717,2023-05-14T04:54:37Z,216716.04,Entwicklung,maendeleo,d,uangavu,mshindwa,badiliko,maendeleo,NA,NA,"c(""distractor1"", ""distractor2"", ""distractor3"")",NA,NA,NA,NA,NA,NA,NA,NA,NA,NA,NA,NA,NA,NA,NA,NA,NA,NA,NA
a64c8,Save data screen,canvas.Screen,2_7_0_1,NA,NA,timeout,505.34,216718,216715.92,216716.04,217204.72,217205,2023-05-14T04:54:38Z,217221.38,Entwicklung,maendeleo,d,uangavu,mshindwa,badiliko,NA,NA,1,"c(""distractor1"", ""distractor2"", ""distractor3"")",NA,NA,NA,NA,NA,NA,NA,NA,NA,NA,NA,NA,NA,NA,NA,NA,NA,NA,NA
a64c8,shallow,flow.Sequence,2_7_0,NA,NA,completion,7655.24,209534,209532.82,209549.48,217204.72,217205,2023-05-14T04:54:38Z,217221.38,Entwicklung,maendeleo,d,uangavu,mshindwa,badiliko,NA,NA,NA,"c(""distractor1"", ""distractor2"", ""distractor3"")",NA,NA,NA,NA,NA,NA,NA,NA,NA,NA,NA,NA,NA,NA,NA,NA,NA,NA,NA
a64c8,task,flow.Sequence,2_7,NA,NA,completion,7655.24,209534,209532.82,209549.48,217204.72,217206,2023-05-14T04:54:38Z,217221.38,Entwicklung,maendeleo,d,uangavu,mshindwa,badiliko,NA,NA,NA,"c(""distractor1"", ""distractor2"", ""distractor3"")",NA,NA,NA,NA,NA,NA,NA,NA,NA,NA,NA,NA,NA,NA,NA,NA,NA,NA,NA
a64c8,Shallow Question,html.Page,2_8_0_0,NA,NA,form submission,5278.62,217207,217204.72,217221.38,222500,222500,2023-05-14T04:54:43Z,222499.52,Fleisch,mshakiki,s,kizunguzungu,mshikamano,angusho,mshakiki,NA,NA,"c(""distractor1"", ""distractor2"", ""distractor3"")",NA,NA,NA,NA,NA,NA,NA,NA,NA,NA,NA,NA,NA,NA,NA,NA,NA,NA,NA
a64c8,Save data screen,canvas.Screen,2_8_0_1,NA,NA,timeout,505.38,222502,222499.38,222499.52,222988.24,222988,2023-05-14T04:54:43Z,223004.9,Fleisch,mshakiki,s,kizunguzungu,mshikamano,angusho,NA,NA,1,"c(""distractor1"", ""distractor2"", ""distractor3"")",NA,NA,NA,NA,NA,NA,NA,NA,NA,NA,NA,NA,NA,NA,NA,NA,NA,NA,NA
a64c8,shallow,flow.Sequence,2_8_0,NA,NA,completion,5766.86,217207,217204.72,217221.38,222988.24,222989,2023-05-14T04:54:43Z,223004.9,Fleisch,mshakiki,s,kizunguzungu,mshikamano,angusho,NA,NA,NA,"c(""distractor1"", ""distractor2"", ""distractor3"")",NA,NA,NA,NA,NA,NA,NA,NA,NA,NA,NA,NA,NA,NA,NA,NA,NA,NA,NA
a64c8,task,flow.Sequence,2_8,NA,NA,completion,5766.86,217206,217204.72,217221.38,222988.24,222989,2023-05-14T04:54:43Z,223004.9,Fleisch,mshakiki,s,kizunguzungu,mshikamano,angusho,NA,NA,NA,"c(""distractor1"", ""distractor2"", ""distractor3"")",NA,NA,NA,NA,NA,NA,NA,NA,NA,NA,NA,NA,NA,NA,NA,NA,NA,NA,NA
a64c8,Shallow Question,html.Page,2_9_0_0,NA,NA,form submission,6817.1,222989,222988.24,223004.9,229822,229822,2023-05-14T04:54:50Z,229821.5,Vorwurf,mashtaka,d,msukumo,mtangulizi,uenyekiti,mtangulizi,NA,NA,"c(""distractor1"", ""distractor2"", ""distractor3"")",NA,NA,NA,NA,NA,NA,NA,NA,NA,NA,NA,NA,NA,NA,NA,NA,NA,NA,NA
a64c8,Save data screen,canvas.Screen,2_9_0_1,NA,NA,timeout,505.34,229823,229821.36,229821.5,230310.18,230311,2023-05-14T04:54:51Z,230326.84,Vorwurf,mashtaka,d,msukumo,mtangulizi,uenyekiti,NA,NA,0,"c(""distractor1"", ""distractor2"", ""distractor3"")",NA,NA,NA,NA,NA,NA,NA,NA,NA,NA,NA,NA,NA,NA,NA,NA,NA,NA,NA
a64c8,shallow,flow.Sequence,2_9_0,NA,NA,completion,7305.28,222989,222988.24,223004.9,230310.18,230311,2023-05-14T04:54:51Z,230326.84,Vorwurf,mashtaka,d,msukumo,mtangulizi,uenyekiti,NA,NA,NA,"c(""distractor1"", ""distractor2"", ""distractor3"")",NA,NA,NA,NA,NA,NA,NA,NA,NA,NA,NA,NA,NA,NA,NA,NA,NA,NA,NA
a64c8,task,flow.Sequence,2_9,NA,NA,completion,7305.28,222989,222988.24,223004.9,230310.18,230312,2023-05-14T04:54:51Z,230326.84,Vorwurf,mashtaka,d,msukumo,mtangulizi,uenyekiti,NA,NA,NA,"c(""distractor1"", ""distractor2"", ""distractor3"")",NA,NA,NA,NA,NA,NA,NA,NA,NA,NA,NA,NA,NA,NA,NA,NA,NA,NA,NA
a64c8,Shallow Question,html.Page,2_10_0_0,NA,NA,form submission,7534.16,230312,230310.18,230326.84,237861,237861,2023-05-14T04:54:58Z,237860.66,Stimmung,kinyongo,d,kilekile,kisambo,madhehebu,kinyongo,NA,NA,"c(""distractor1"", ""distractor2"", ""distractor3"")",NA,NA,NA,NA,NA,NA,NA,NA,NA,NA,NA,NA,NA,NA,NA,NA,NA,NA,NA
a64c8,Save data screen,canvas.Screen,2_10_0_1,NA,NA,timeout,505.38,237862,237860.52,237860.66,238349.38,238350,2023-05-14T04:54:59Z,238366.04,Stimmung,kinyongo,d,kilekile,kisambo,madhehebu,NA,NA,1,"c(""distractor1"", ""distractor2"", ""distractor3"")",NA,NA,NA,NA,NA,NA,NA,NA,NA,NA,NA,NA,NA,NA,NA,NA,NA,NA,NA
a64c8,shallow,flow.Sequence,2_10_0,NA,NA,completion,8022.54,230312,230310.18,230326.84,238349.38,238350,2023-05-14T04:54:59Z,238366.04,Stimmung,kinyongo,d,kilekile,kisambo,madhehebu,NA,NA,NA,"c(""distractor1"", ""distractor2"", ""distractor3"")",NA,NA,NA,NA,NA,NA,NA,NA,NA,NA,NA,NA,NA,NA,NA,NA,NA,NA,NA
a64c8,task,flow.Sequence,2_10,NA,NA,completion,8022.54,230312,230310.18,230326.84,238349.38,238351,2023-05-14T04:54:59Z,238366.04,Stimmung,kinyongo,d,kilekile,kisambo,madhehebu,NA,NA,NA,"c(""distractor1"", ""distractor2"", ""distractor3"")",NA,NA,NA,NA,NA,NA,NA,NA,NA,NA,NA,NA,NA,NA,NA,NA,NA,NA,NA
a64c8,Shallow Question,html.Page,2_11_0_0,NA,NA,form submission,10959.96,238351,238349.38,238366.04,249326,249326,2023-05-14T04:55:10Z,249325.64,Begegnung,kukutana,d,mmasihiya,mpiganaji,husiano,husiano,NA,NA,"c(""distractor1"", ""distractor2"", ""distractor3"")",NA,NA,NA,NA,NA,NA,NA,NA,NA,NA,NA,NA,NA,NA,NA,NA,NA,NA,NA
a64c8,Save data screen,canvas.Screen,2_11_0_1,NA,NA,timeout,505.34,249327,249325.5,249325.64,249814.32,249816,2023-05-14T04:55:10Z,249830.98,Begegnung,kukutana,d,mmasihiya,mpiganaji,husiano,NA,NA,0,"c(""distractor1"", ""distractor2"", ""distractor3"")",NA,NA,NA,NA,NA,NA,NA,NA,NA,NA,NA,NA,NA,NA,NA,NA,NA,NA,NA
a64c8,shallow,flow.Sequence,2_11_0,NA,NA,completion,11448.28,238351,238349.38,238366.04,249814.32,249817,2023-05-14T04:55:10Z,249830.98,Begegnung,kukutana,d,mmasihiya,mpiganaji,husiano,NA,NA,NA,"c(""distractor1"", ""distractor2"", ""distractor3"")",NA,NA,NA,NA,NA,NA,NA,NA,NA,NA,NA,NA,NA,NA,NA,NA,NA,NA,NA
a64c8,task,flow.Sequence,2_11,NA,NA,completion,11448.28,238351,238349.38,238366.04,249814.32,249819,2023-05-14T04:55:10Z,249830.98,Begegnung,kukutana,d,mmasihiya,mpiganaji,husiano,NA,NA,NA,"c(""distractor1"", ""distractor2"", ""distractor3"")",NA,NA,NA,NA,NA,NA,NA,NA,NA,NA,NA,NA,NA,NA,NA,NA,NA,NA,NA
a64c8,Shallow Question,html.Page,2_12_0_0,NA,NA,form submission,7019.02,249819,249814.32,249830.98,256850,256851,2023-05-14T04:55:17Z,256848.98,Niveau,kiwango,s,usimamizi,mwamali,mshairi,mwamali,NA,NA,"c(""distractor1"", ""distractor2"", ""distractor3"")",NA,NA,NA,NA,NA,NA,NA,NA,NA,NA,NA,NA,NA,NA,NA,NA,NA,NA,NA
a64c8,Save data screen,canvas.Screen,2_12_0_1,NA,NA,timeout,492.56,256854,256848.84,256848.98,257324.86,257327,2023-05-14T04:55:18Z,257341.54,Niveau,kiwango,s,usimamizi,mwamali,mshairi,NA,NA,0,"c(""distractor1"", ""distractor2"", ""distractor3"")",NA,NA,NA,NA,NA,NA,NA,NA,NA,NA,NA,NA,NA,NA,NA,NA,NA,NA,NA
a64c8,shallow,flow.Sequence,2_12_0,NA,NA,completion,7493.88,249819,249814.32,249830.98,257324.86,257328,2023-05-14T04:55:18Z,257341.54,Niveau,kiwango,s,usimamizi,mwamali,mshairi,NA,NA,NA,"c(""distractor1"", ""distractor2"", ""distractor3"")",NA,NA,NA,NA,NA,NA,NA,NA,NA,NA,NA,NA,NA,NA,NA,NA,NA,NA,NA
a64c8,task,flow.Sequence,2_12,NA,NA,completion,7493.88,249819,249814.32,249830.98,257324.86,257330,2023-05-14T04:55:18Z,257341.54,Niveau,kiwango,s,usimamizi,mwamali,mshairi,NA,NA,NA,"c(""distractor1"", ""distractor2"", ""distractor3"")",NA,NA,NA,NA,NA,NA,NA,NA,NA,NA,NA,NA,NA,NA,NA,NA,NA,NA,NA
a64c8,Shallow Question,html.Page,2_13_0_0,NA,NA,form submission,7903.46,257332,257324.86,257341.54,265245,265245,2023-05-14T04:55:26Z,265244.76,Respekt,heshima,s,changamnao,upinzani,ufanisi,heshima,NA,NA,"c(""distractor1"", ""distractor2"", ""distractor3"")",NA,NA,NA,NA,NA,NA,NA,NA,NA,NA,NA,NA,NA,NA,NA,NA,NA,NA,NA
a64c8,Save data screen,canvas.Screen,2_13_0_1,NA,NA,timeout,505.32000000001,265247,265244.64,265244.76,265733.42,265734,2023-05-14T04:55:26Z,265750.08,Respekt,heshima,s,changamnao,upinzani,ufanisi,NA,NA,1,"c(""distractor1"", ""distractor2"", ""distractor3"")",NA,NA,NA,NA,NA,NA,NA,NA,NA,NA,NA,NA,NA,NA,NA,NA,NA,NA,NA
a64c8,shallow,flow.Sequence,2_13_0,NA,NA,completion,8391.88,257331,257324.86,257341.54,265733.42,265735,2023-05-14T04:55:26Z,265750.08,Respekt,heshima,s,changamnao,upinzani,ufanisi,NA,NA,NA,"c(""distractor1"", ""distractor2"", ""distractor3"")",NA,NA,NA,NA,NA,NA,NA,NA,NA,NA,NA,NA,NA,NA,NA,NA,NA,NA,NA
a64c8,task,flow.Sequence,2_13,NA,NA,completion,8391.88,257331,257324.86,257341.54,265733.42,265735,2023-05-14T04:55:26Z,265750.08,Respekt,heshima,s,changamnao,upinzani,ufanisi,NA,NA,NA,"c(""distractor1"", ""distractor2"", ""distractor3"")",NA,NA,NA,NA,NA,NA,NA,NA,NA,NA,NA,NA,NA,NA,NA,NA,NA,NA,NA
a64c8,Shallow Question,html.Page,2_14_0_0,NA,NA,form submission,6313.92,265736,265733.42,265750.08,272064,272064,2023-05-14T04:55:32Z,272063.32,Integrität,uadilifu,s,muungano,mtiririko,upunguaji,upunguaji,NA,NA,"c(""distractor1"", ""distractor2"", ""distractor3"")",NA,NA,NA,NA,NA,NA,NA,NA,NA,NA,NA,NA,NA,NA,NA,NA,NA,NA,NA
a64c8,Save data screen,canvas.Screen,2_14_0_1,NA,NA,timeout,505.32000000001,272066,272063.18,272063.32,272551.96,272552,2023-05-14T04:55:33Z,272568.64,Integrität,uadilifu,s,muungano,mtiririko,upunguaji,NA,NA,0,"c(""distractor1"", ""distractor2"", ""distractor3"")",NA,NA,NA,NA,NA,NA,NA,NA,NA,NA,NA,NA,NA,NA,NA,NA,NA,NA,NA
a64c8,shallow,flow.Sequence,2_14_0,NA,NA,completion,6801.88,265736,265733.42,265750.08,272551.96,272553,2023-05-14T04:55:33Z,272568.64,Integrität,uadilifu,s,muungano,mtiririko,upunguaji,NA,NA,NA,"c(""distractor1"", ""distractor2"", ""distractor3"")",NA,NA,NA,NA,NA,NA,NA,NA,NA,NA,NA,NA,NA,NA,NA,NA,NA,NA,NA
a64c8,task,flow.Sequence,2_14,NA,NA,completion,6801.88,265736,265733.42,265750.08,272551.96,272553,2023-05-14T04:55:33Z,272568.64,Integrität,uadilifu,s,muungano,mtiririko,upunguaji,NA,NA,NA,"c(""distractor1"", ""distractor2"", ""distractor3"")",NA,NA,NA,NA,NA,NA,NA,NA,NA,NA,NA,NA,NA,NA,NA,NA,NA,NA,NA
a64c8,Shallow Question,html.Page,2_15_0_0,NA,NA,form submission,14499.36,272554,272551.96,272568.64,287068,287068,2023-05-14T04:55:47Z,287068.38,Atmosphäre,angahewa,d,kuteseka,usahihi,kutoamini,angahewa,NA,NA,"c(""distractor1"", ""distractor2"", ""distractor3"")",NA,NA,NA,NA,NA,NA,NA,NA,NA,NA,NA,NA,NA,NA,NA,NA,NA,NA,NA
a64c8,Save data screen,canvas.Screen,2_15_0_1,NA,NA,timeout,500,287069,287067.2,287068.38,287551.72,287554,2023-05-14T04:55:48Z,287568.38,Atmosphäre,angahewa,d,kuteseka,usahihi,kutoamini,NA,NA,1,"c(""distractor1"", ""distractor2"", ""distractor3"")",NA,NA,NA,NA,NA,NA,NA,NA,NA,NA,NA,NA,NA,NA,NA,NA,NA,NA,NA
a64c8,shallow,flow.Sequence,2_15_0,NA,NA,completion,14983.08,272554,272551.96,272568.64,287551.72,287556,2023-05-14T04:55:48Z,287568.38,Atmosphäre,angahewa,d,kuteseka,usahihi,kutoamini,NA,NA,NA,"c(""distractor1"", ""distractor2"", ""distractor3"")",NA,NA,NA,NA,NA,NA,NA,NA,NA,NA,NA,NA,NA,NA,NA,NA,NA,NA,NA
a64c8,task,flow.Sequence,2_15,NA,NA,completion,14983.08,272554,272551.96,272568.64,287551.72,287556,2023-05-14T04:55:48Z,287568.38,Atmosphäre,angahewa,d,kuteseka,usahihi,kutoamini,NA,NA,NA,"c(""distractor1"", ""distractor2"", ""distractor3"")",NA,NA,NA,NA,NA,NA,NA,NA,NA,NA,NA,NA,NA,NA,NA,NA,NA,NA,NA
a64c8,retrieval block 2 (multiple choice),flow.Loop,2,NA,NA,completion,133802.34,153738,153732.82,153749.38,287551.72,287557,2023-05-14T04:55:48Z,287568.38,NA,NA,NA,NA,NA,NA,NA,NA,NA,"c(""distractor1"", ""distractor2"", ""distractor3"")",NA,NA,NA,NA,NA,NA,NA,NA,NA,NA,NA,NA,NA,NA,NA,NA,NA,NA,NA
a64c8,End,canvas.Screen,3,NA,keypress(Space),response,1707.62,287557,287551.72,287568.38,289276,289280,2023-05-14T04:55:50Z,289281.4,NA,NA,NA,NA,NA,NA,NA,NA,NA,NULL,NA,NA,NA,NA,NA,NA,NA,NA,NA,NA,NA,NA,NA,NA,NA,NA,NA,NA,NA
a64c8,root,flow.Sequence,NA,NA,NA,completion,286521.22,2735,2738.12,2754.78,289276,289281,2023-05-14T04:55:50Z,289281.4,NA,NA,NA,NA,NA,NA,NA,NA,NA,NULL,NA,NA,NA,NA,NA,NA,NA,NA,NA,NA,NA,NA,NA,NA,NA,NA,NA,NA,NA
