sender,sender_type,sender_id,timestamp,meta,,German,Swahili,correct,distractor1,distractor2,distractor3,distractors,duration,enc,ended_on,response,response_,response_action,time_commit,time_end,time_render,time_run,time_show,time_switch,url,x
Introduction general,canvas.Screen,0,2023-01-08T10:12:15.564Z,"{""labjs_version"":""20.2.4"",""labjs_build"":{""flavor"":""production"",""commit"":""f5b4a49f956347addd546a832a3327688c2c0fef""},""location"":""file:///Users/vincentweber/Documents/Arbeit%20Fernuni/lab_js/my_scripts/index_encoding_immediate.html?vp=105&sess=1"",""userAgent"":""Mozilla/5.0 (Macintosh; Intel Mac OS X 10_15_7) AppleWebKit/537.36 (KHTML, like Gecko) Chrome/108.0.0.0 Safari/537.36"",""platform"":""MacIntel"",""language"":""de-DE"",""locale"":""de"",""timeZone"":""Europe/Zurich"",""timezoneOffset"":-60,""screen_width"":1440,""screen_height"":900,""scroll_width"":1440,""scroll_height"":690,""window_innerWidth"":1440,""window_innerHeight"":738,""devicePixelRatio"":2}",,,,,,,,,88828.694,,response,weiter,,keypress(q),88980.20000000112,88968,122.64,113.40000000037253,139.306,88987.052,"{""vp"":""105"",""sess"":""1""}",
Introduction practice,canvas.Screen,1_0,2023-01-08T10:12:21.442Z,,,,,,,,,,5867.548000001494,,response,,,keypress(Space),94857.70000000112,94854.60000000149,88970.386,88980.60000000149,88987.052,94873.834,,
Deep Question,html.Page,1_1_0_0_0,2023-01-08T10:12:33.767Z,,,Gesundheit,salama,,,,,"[""distractor1"",""distractor2"",""distractor3""]",12308.466000000742,d,form submission,,1,,107182.5,107182.30000000075,94857.168,94858.30000000075,94873.834,107190.564,,
"""Richtig""-Screen",canvas.Screen,1_1_0_0_1,2023-01-08T10:12:33.767Z,,,Gesundheit,salama,,,,,"[""distractor1"",""distractor2"",""distractor3""]",NaN,d,skipped,,,,107183.40000000037,107182.30000000075,,107183.20000000112,,107190.564,,
"""Falsch""-Screen",canvas.Screen,1_1_0_0_2,2023-01-08T10:12:38.764Z,,,Gesundheit,salama,0,,,,"[""distractor1"",""distractor2"",""distractor3""]",4999.800000000003,d,timeout,,,,112179.70000000112,112173.698,107173.898,107183.90000000037,107190.564,112190.364,,
deep,flow.Sequence,1_1_0_0,2023-01-08T10:12:38.764Z,,,Gesundheit,salama,,,,,"[""distractor1"",""distractor2"",""distractor3""]",17299.864,d,completion,,,,112180.40000000037,112173.698,94857.168,94858.20000000112,94873.834,112190.364,,
shallow,flow.Sequence,1_1_0_1,2023-01-08T10:12:38.765Z,,,Gesundheit,salama,,,,,"[""distractor1"",""distractor2"",""distractor3""]",NaN,d,skipped,,,,112180.80000000075,112173.698,,112180.60000000149,,112190.364,,
task  ,flow.Sequence,1_1_0,2023-01-08T10:12:38.765Z,,,Gesundheit,salama,,,,,"[""distractor1"",""distractor2"",""distractor3""]",17299.864,d,completion,,,,112181,112173.698,94857.168,94858.20000000112,94873.834,112190.364,,
deep,flow.Sequence,1_1_1_0,2023-01-08T10:12:38.765Z,,,Kritik,lawama,,dereva,nafasi,mawazo,"[""distractor1"",""distractor2"",""distractor3""]",NaN,s,skipped,,,,112181.40000000037,112173.698,,112181.30000000075,,112190.364,,
Shallow Question,html.Page,1_1_1_1_0,2023-01-08T10:12:45.396Z,,,Kritik,lawama,,dereva,nafasi,mawazo,"[""distractor1"",""distractor2"",""distractor3""]",6621.436000000744,s,form submission,,mawazo,,118812.5,118811.80000000075,112173.698,112181.60000000149,112190.364,118824.095,,
"""Richtig""-Screen",canvas.Screen,1_1_1_1_1,2023-01-08T10:12:45.400Z,,,Kritik,lawama,,dereva,nafasi,mawazo,"[""distractor1"",""distractor2"",""distractor3""]",NaN,s,skipped,,,,118815.60000000149,118811.80000000075,,118815.5,,118824.095,,
"""Falsch""-Screen",canvas.Screen,1_1_1_1_2,2023-01-08T10:12:50.392Z,,,Kritik,lawama,0,dereva,nafasi,mawazo,"[""distractor1"",""distractor2"",""distractor3""]",4999.800000000003,s,timeout,,,,123808.70000000112,123807.229,118807.429,118816.90000000037,118824.095,123823.895,,
shallow,flow.Sequence,1_1_1_1,2023-01-08T10:12:50.393Z,,,Kritik,lawama,,dereva,nafasi,mawazo,"[""distractor1"",""distractor2"",""distractor3""]",11616.865000000005,s,completion,,,,123809.20000000112,123807.229,112173.698,112181.5,112190.364,123823.895,,
task  ,flow.Sequence,1_1_1,2023-01-08T10:12:50.393Z,,,Kritik,lawama,,dereva,nafasi,mawazo,"[""distractor1"",""distractor2"",""distractor3""]",11616.865000000005,s,completion,,,,123809.60000000149,123807.229,112173.698,112181.10000000149,112190.364,123823.895,,
deep,flow.Sequence,1_1_2_0,2023-01-08T10:12:50.394Z,,,Rückhalt,msaada,,muhula,auwali,kiwimbe,"[""distractor1"",""distractor2"",""distractor3""]",NaN,s,skipped,,,,123810.10000000149,123807.229,,123809.90000000037,,123823.895,,
Shallow Question,html.Page,1_1_2_1_0,2023-01-08T10:12:55.114Z,,,Rückhalt,msaada,,muhula,auwali,kiwimbe,"[""distractor1"",""distractor2"",""distractor3""]",4705.405000000741,s,form submission,,auwali,,128529.80000000075,128529.30000000075,123807.229,123810.20000000112,123823.895,128541.022,,
"""Richtig""-Screen",canvas.Screen,1_1_2_1_1,2023-01-08T10:12:55.116Z,,,Rückhalt,msaada,,muhula,auwali,kiwimbe,"[""distractor1"",""distractor2"",""distractor3""]",NaN,s,skipped,,,,128532.80000000075,128529.30000000075,,128532.70000000112,,128541.022,,
"""Falsch""-Screen",canvas.Screen,1_1_2_1_2,2023-01-08T10:13:00.110Z,,,Rückhalt,msaada,0,muhula,auwali,kiwimbe,"[""distractor1"",""distractor2"",""distractor3""]",4999.799999999988,s,timeout,,,,133526.40000000037,133524.156,128524.356,128533.60000000149,128541.022,133540.822,,
shallow,flow.Sequence,1_1_2_1,2023-01-08T10:13:00.110Z,,,Rückhalt,msaada,,muhula,auwali,kiwimbe,"[""distractor1"",""distractor2"",""distractor3""]",9700.260999999984,s,completion,,,,133526.80000000075,133524.156,123807.229,123810.20000000112,123823.895,133540.822,,
task  ,flow.Sequence,1_1_2,2023-01-08T10:13:00.111Z,,,Rückhalt,msaada,,muhula,auwali,kiwimbe,"[""distractor1"",""distractor2"",""distractor3""]",9700.260999999984,s,completion,,,,133527.1000000015,133524.156,123807.229,123809.80000000075,123823.895,133540.822,,
Deep Question,html.Page,1_1_3_0_0,2023-01-08T10:13:03.328Z,,,Qualität,mtindo,,,,,"[""distractor1"",""distractor2"",""distractor3""]",3203.1780000000144,d,form submission,,3,,136744.30000000075,136744,133524.156,133527.30000000075,133540.822,136757.957,,
"""Richtig""-Screen",canvas.Screen,1_1_3_0_1,2023-01-08T10:13:03.331Z,,,Qualität,mtindo,,,,,"[""distractor1"",""distractor2"",""distractor3""]",NaN,d,skipped,,,,136747.6000000015,136744,,136747.5,,136757.957,,
"""Falsch""-Screen",canvas.Screen,1_1_3_0_2,2023-01-08T10:13:08.327Z,,,Qualität,mtindo,0,,,,"[""distractor1"",""distractor2"",""distractor3""]",4999.8000000000175,d,timeout,,,,141743.1000000015,141741.091,136741.291,136748.30000000075,136757.957,141757.757,,
deep,flow.Sequence,1_1_3_0,2023-01-08T10:13:08.327Z,,,Qualität,mtindo,,,,,"[""distractor1"",""distractor2"",""distractor3""]",8200.269,d,completion,,,,141743.5,141741.091,133524.156,133527.20000000112,133540.822,141757.757,,
shallow,flow.Sequence,1_1_3_1,2023-01-08T10:13:08.327Z,,,Qualität,mtindo,,,,,"[""distractor1"",""distractor2"",""distractor3""]",NaN,d,skipped,,,,141743.80000000075,141741.091,,141743.70000000112,,141757.757,,
task  ,flow.Sequence,1_1_3,2023-01-08T10:13:08.328Z,,,Qualität,mtindo,,,,,"[""distractor1"",""distractor2"",""distractor3""]",8200.269,d,completion,,,,141744,141741.091,133524.156,133527.20000000112,133540.822,141757.757,,
deep,flow.Sequence,1_1_4_0,2023-01-08T10:13:08.328Z,,,Gegenwart,hadhara,,katiba,jokofu,mikopo,"[""distractor1"",""distractor2"",""distractor3""]",NaN,s,skipped,,,,141744.30000000075,141741.091,,141744.20000000112,,141757.757,,
Shallow Question,html.Page,1_1_4_1_0,2023-01-08T10:13:17.915Z,,,Gegenwart,hadhara,,katiba,jokofu,mikopo,"[""distractor1"",""distractor2"",""distractor3""]",9573.742999999988,s,form submission,,hadhara,,151331.90000000037,151331.5,141741.091,141744.5,141757.757,151341.253,,
"""Richtig""-Screen",canvas.Screen,1_1_4_1_1,2023-01-08T10:13:22.910Z,,,Gegenwart,hadhara,1,katiba,jokofu,mikopo,"[""distractor1"",""distractor2"",""distractor3""]",4999.8000000000175,s,timeout,,,,156326.80000000075,156324.387,151324.587,151334.20000000112,151341.253,156341.053,,
"""Falsch""-Screen",canvas.Screen,1_1_4_1_2,2023-01-08T10:13:22.914Z,,,Gegenwart,hadhara,,katiba,jokofu,mikopo,"[""distractor1"",""distractor2"",""distractor3""]",NaN,s,skipped,,,,156330.80000000075,156324.387,,156330.6000000015,,156341.053,,
shallow,flow.Sequence,1_1_4_1,2023-01-08T10:13:22.914Z,,,Gegenwart,hadhara,,katiba,jokofu,mikopo,"[""distractor1"",""distractor2"",""distractor3""]",14566.629999999976,s,completion,,,,156330.90000000037,156324.387,141741.091,141744.40000000037,141757.757,156341.053,,
task  ,flow.Sequence,1_1_4,2023-01-08T10:13:22.914Z,,,Gegenwart,hadhara,,katiba,jokofu,mikopo,"[""distractor1"",""distractor2"",""distractor3""]",14566.629999999976,s,completion,,,,156331.1000000015,156324.387,141741.091,141744.1000000015,141757.757,156341.053,,
Deep Question,html.Page,1_1_5_0_0,2023-01-08T10:13:25.828Z,,,Schatten,kivuli,,,,,"[""distractor1"",""distractor2"",""distractor3""]",2903.347000000358,d,form submission,,3,,159244.70000000112,159244.40000000037,156324.387,156331.20000000112,156341.053,159258.11,,
"""Richtig""-Screen",canvas.Screen,1_1_5_0_1,2023-01-08T10:13:25.829Z,,,Schatten,kivuli,,,,,"[""distractor1"",""distractor2"",""distractor3""]",NaN,d,skipped,,,,159245.6000000015,159244.40000000037,,159245.5,,159258.11,,
"""Falsch""-Screen",canvas.Screen,1_1_5_0_2,2023-01-08T10:13:30.827Z,,,Schatten,kivuli,0,,,,"[""distractor1"",""distractor2"",""distractor3""]",4999.8000000000175,d,timeout,,,,164243.6000000015,164241.244,159241.444,159246.1000000015,159258.11,164257.91,,
deep,flow.Sequence,1_1_5_0,2023-01-08T10:13:30.827Z,,,Schatten,kivuli,,,,,"[""distractor1"",""distractor2"",""distractor3""]",7900.190999999992,d,completion,,,,164244,164241.244,156324.387,156331.20000000112,156341.053,164257.91,,
shallow,flow.Sequence,1_1_5_1,2023-01-08T10:13:30.828Z,,,Schatten,kivuli,,,,,"[""distractor1"",""distractor2"",""distractor3""]",NaN,d,skipped,,,,164244.30000000075,164241.244,,164244.20000000112,,164257.91,,
task  ,flow.Sequence,1_1_5,2023-01-08T10:13:30.828Z,,,Schatten,kivuli,,,,,"[""distractor1"",""distractor2"",""distractor3""]",7900.190999999992,d,completion,,,,164244.6000000015,164241.244,156324.387,156331.1000000015,156341.053,164257.91,,
block,flow.Loop,1_1,2023-01-08T10:13:30.828Z,,,,,,,,,"[""distractor1"",""distractor2"",""distractor3""]",69367.41,,completion,,,,164244.90000000037,164241.244,94857.168,94858.20000000112,94873.834,164257.91,,
Practice,flow.Sequence,1,2023-01-08T10:13:30.828Z,,,,,,,,,,75254.19200000001,,completion,,,,164245.1000000015,164241.244,88970.386,88980.60000000149,88987.052,164257.91,,
Experiment start,canvas.Screen,2,2023-01-08T10:13:51.471Z,,,,,,,,,,20627.190000001487,,response,weiter,,keypress(q),184888.40000000037,184885.1000000015,164241.244,164245.20000000112,164257.91,184940.416,,
deep,flow.Sequence,3_0_0_0_0_0,2023-01-08T10:13:51.532Z,,sdf,Kontrolle,kudhibiti,,mbinguni,kufunga,utegemezi,,NaN,s,skipped,,,,184948.80000000075,184885.1000000015,,184948.70000000112,,184940.416,,0
Shallow Question,html.Page,3_0_0_0_0_1_0,2023-01-08T10:13:58.046Z,,,Kontrolle,kudhibiti,,mbinguni,kufunga,utegemezi,,6521.78400000112,s,form submission,,utegemezi,,191462.70000000112,191462.20000000112,184873.752,184948.80000000075,184940.416,191474.935,,0
"""Richtig""-Screen",canvas.Screen,3_0_0_0_0_1_1,2023-01-08T10:13:58.049Z,,sdf,Kontrolle,kudhibiti,,mbinguni,kufunga,utegemezi,,NaN,s,skipped,,,,191465.90000000037,191462.20000000112,,191465.80000000075,,191474.935,,0
"""Falsch""-Screen",canvas.Screen,3_0_0_0_0_1_2,2023-01-08T10:14:03.043Z,,sdf,Kontrolle,kudhibiti,0,mbinguni,kufunga,utegemezi,,4999.799999999988,s,timeout,,,,196460.6000000015,196458.069,191458.269,191466.6000000015,191474.935,196474.735,,0
shallow,flow.Sequence,3_0_0_0_0_1,2023-01-08T10:14:03.044Z,,sdf,Kontrolle,kudhibiti,,mbinguni,kufunga,utegemezi,,11517.652999999991,s,completion,,,,196461,196458.069,184873.752,184948.80000000075,184940.416,196474.735,,0
task  ,flow.Sequence,3_0_0_0_0,2023-01-08T10:14:03.044Z,,sdf,Kontrolle,kudhibiti,,mbinguni,kufunga,utegemezi,,11517.652999999991,s,completion,,,,196461.30000000075,196458.069,184873.752,184948.70000000112,184940.416,196474.735,,0
deep,flow.Sequence,3_0_0_0_1_0,2023-01-08T10:14:03.044Z,,sdf,Betrüger,mdanganyifu,,mwanamuziki,wastani,mahakama,,NaN,s,skipped,,,,196461.6000000015,196458.069,,196461.40000000037,,196474.735,,0
Shallow Question,html.Page,3_0_0_0_1_1_0,2023-01-08T10:14:09.596Z,,,Betrüger,mdanganyifu,,mwanamuziki,wastani,mahakama,,6538.1650000003865,s,form submission,,mahakama,,203013.40000000037,203012.90000000037,196458.069,196461.70000000112,196474.735,203025.195,,0
"""Richtig""-Screen",canvas.Screen,3_0_0_0_1_1_1,2023-01-08T10:14:09.599Z,,sdf,Betrüger,mdanganyifu,,mwanamuziki,wastani,mahakama,,NaN,s,skipped,,,,203016.40000000037,203012.90000000037,,203016.20000000112,,203025.195,,0
"""Falsch""-Screen",canvas.Screen,3_0_0_0_1_1_2,2023-01-08T10:14:14.593Z,,sdf,Betrüger,mdanganyifu,0,mwanamuziki,wastani,mahakama,,4999.799999999988,s,timeout,,,,208010.70000000112,208008.329,203008.529,203017.5,203025.195,208024.995,,0
shallow,flow.Sequence,3_0_0_0_1_1,2023-01-08T10:14:14.594Z,,sdf,Betrüger,mdanganyifu,,mwanamuziki,wastani,mahakama,,11533.594000000012,s,completion,,,,208011.20000000112,208008.329,196458.069,196461.70000000112,196474.735,208024.995,,0
task  ,flow.Sequence,3_0_0_0_1,2023-01-08T10:14:14.594Z,,sdf,Betrüger,mdanganyifu,,mwanamuziki,wastani,mahakama,,11533.594000000012,s,completion,,,,208011.5,208008.329,196458.069,196461.40000000037,196474.735,208024.995,,0
Deep Question,html.Page,3_0_0_0_2_0_0,2023-01-08T10:14:18.345Z,,,Kreativität,ubunifu,,,,,,3737.105000001495,d,form submission,,3,,211762.40000000037,211762.1000000015,208008.329,208011.70000000112,208024.995,211775.363,,0
"""Richtig""-Screen",canvas.Screen,3_0_0_0_2_0_1,2023-01-08T10:14:18.348Z,,sdf,Kreativität,ubunifu,,,,,,NaN,d,skipped,,,,211765.30000000075,211762.1000000015,,211765.1000000015,,211775.363,,0
"""Falsch""-Screen",canvas.Screen,3_0_0_0_2_0_2,2023-01-08T10:14:23.343Z,,sdf,Kreativität,ubunifu,0,,,,,4999.799999999988,d,timeout,,,,216760.80000000075,216758.497,211758.697,211765.70000000112,211775.363,216775.163,,0
deep,flow.Sequence,3_0_0_0_2_0,2023-01-08T10:14:23.344Z,,sdf,Kreativität,ubunifu,,,,,,8733.502000000008,d,completion,,,,216761.20000000112,216758.497,208008.329,208011.70000000112,208024.995,216775.163,,0
shallow,flow.Sequence,3_0_0_0_2_1,2023-01-08T10:14:23.344Z,,sdf,Kreativität,ubunifu,,,,,,NaN,d,skipped,,,,216761.6000000015,216758.497,,216761.40000000037,,216775.163,,0
task  ,flow.Sequence,3_0_0_0_2,2023-01-08T10:14:23.344Z,,sdf,Kreativität,ubunifu,,,,,,8733.502000000008,d,completion,,,,216761.70000000112,216758.497,208008.329,208011.5,208024.995,216775.163,,0
deep,flow.Sequence,3_0_0_0_3_0,2023-01-08T10:14:23.345Z,,sdf,Gefährdung,kuhatarisha,,uchokozi,udhaifu,makorowezo,,NaN,s,skipped,,,,216762,216758.497,,216762,,216775.163,,0
Shallow Question,html.Page,3_0_0_0_3_1_0,2023-01-08T10:14:30.079Z,,,Gefährdung,kuhatarisha,,uchokozi,udhaifu,makorowezo,,6721.237000000372,s,form submission,,uchokozi,,223496.90000000037,223496.40000000037,216758.497,216762.20000000112,216775.163,223508.855,,0
"""Richtig""-Screen",canvas.Screen,3_0_0_0_3_1_1,2023-01-08T10:14:30.082Z,,sdf,Gefährdung,kuhatarisha,,uchokozi,udhaifu,makorowezo,,NaN,s,skipped,,,,223500,223496.40000000037,,223499.80000000075,,223508.855,,0
"""Falsch""-Screen",canvas.Screen,3_0_0_0_3_1_2,2023-01-08T10:14:35.077Z,,sdf,Gefährdung,kuhatarisha,0,uchokozi,udhaifu,makorowezo,,4999.799999999988,s,timeout,,,,228494.40000000037,228491.989,223492.189,223501.1000000015,223508.855,228508.655,,0
shallow,flow.Sequence,3_0_0_0_3_1,2023-01-08T10:14:35.077Z,,sdf,Gefährdung,kuhatarisha,,uchokozi,udhaifu,makorowezo,,11716.826000000001,s,completion,,,,228494.90000000037,228491.989,216758.497,216762.20000000112,216775.163,228508.655,,0
task  ,flow.Sequence,3_0_0_0_3,2023-01-08T10:14:35.078Z,,sdf,Gefährdung,kuhatarisha,,uchokozi,udhaifu,makorowezo,,11716.826000000001,s,completion,,,,228495.1000000015,228491.989,216758.497,216761.90000000037,216775.163,228508.655,,0
Deep Question,html.Page,3_0_0_0_4_0_0,2023-01-08T10:14:38.394Z,,,Respekt,heshima,,,,,,3302.9450000014913,d,form submission,,3,,231811.80000000075,231811.6000000015,228491.989,228495.40000000037,228508.655,231825.626,,0
"""Richtig""-Screen",canvas.Screen,3_0_0_0_4_0_1,2023-01-08T10:14:38.397Z,,sdf,Respekt,heshima,,,,,,NaN,d,skipped,,,,231814.80000000075,231811.6000000015,,231814.70000000112,,231825.626,,0
"""Falsch""-Screen",canvas.Screen,3_0_0_0_4_0_2,2023-01-08T10:14:43.392Z,,sdf,Respekt,heshima,0,,,,,4999.8000000000175,d,timeout,,,,236810.1000000015,236808.76,231808.96,231815.40000000037,231825.626,236825.426,,0
deep,flow.Sequence,3_0_0_0_4_0,2023-01-08T10:14:43.393Z,,sdf,Respekt,heshima,,,,,,8300.10500000001,d,completion,,,,236810.5,236808.76,228491.989,228495.30000000075,228508.655,236825.426,,0
shallow,flow.Sequence,3_0_0_0_4_1,2023-01-08T10:14:43.393Z,,sdf,Respekt,heshima,,,,,,NaN,d,skipped,,,,236810.80000000075,236808.76,,236810.6000000015,,236825.426,,0
task  ,flow.Sequence,3_0_0_0_4,2023-01-08T10:14:43.393Z,,sdf,Respekt,heshima,,,,,,8300.10500000001,d,completion,,,,236811,236808.76,228491.989,228495.30000000075,228508.655,236825.426,,0
Deep Question,html.Page,3_0_0_0_5_0_0,2023-01-08T10:14:46.927Z,,,Orientierung,urekebisho,,,,,,3519.474000000366,d,form submission,,4,,240345.1000000015,240344.90000000037,236808.76,236811.20000000112,236825.426,240359.272,,0
"""Richtig""-Screen",canvas.Screen,3_0_0_0_5_0_1,2023-01-08T10:14:46.930Z,,sdf,Orientierung,urekebisho,,,,,,NaN,d,skipped,,,,240347.80000000075,240344.90000000037,,240347.80000000075,,240359.272,,0
"""Falsch""-Screen",canvas.Screen,3_0_0_0_5_0_2,2023-01-08T10:14:51.927Z,,sdf,Orientierung,urekebisho,0,,,,,4999.799999999988,d,timeout,,,,245344.70000000112,245342.406,240342.606,240348.40000000037,240359.272,245359.072,,0
deep,flow.Sequence,3_0_0_0_5_0,2023-01-08T10:14:51.927Z,,sdf,Orientierung,urekebisho,,,,,,8516.979999999981,d,completion,,,,245345.20000000112,245342.406,236808.76,236811.1000000015,236825.426,245359.072,,0
shallow,flow.Sequence,3_0_0_0_5_1,2023-01-08T10:14:51.928Z,,sdf,Orientierung,urekebisho,,,,,,NaN,d,skipped,,,,245345.6000000015,245342.406,,245345.40000000037,,245359.072,,0
task  ,flow.Sequence,3_0_0_0_5,2023-01-08T10:14:51.928Z,,sdf,Orientierung,urekebisho,,,,,,8516.979999999981,d,completion,,,,245345.70000000112,245342.406,236808.76,236811,236825.426,245359.072,,0
deep,flow.Sequence,3_0_0_0_6_0,2023-01-08T10:14:51.928Z,,sdf,Stimmung,kinyongo,,kilekile,kisambo,madhehebu,,NaN,s,skipped,,,,245346.1000000015,245342.406,,245346,,245359.072,,0
Shallow Question,html.Page,3_0_0_0_6_1_0,2023-01-08T10:14:56.446Z,,,Stimmung,kinyongo,,kilekile,kisambo,madhehebu,,4504.328000000387,s,form submission,,madhehebu,,249864.1000000015,249863.40000000037,245342.406,245346.20000000112,245359.072,249876.11,,0
"""Richtig""-Screen",canvas.Screen,3_0_0_0_6_1_1,2023-01-08T10:14:56.450Z,,sdf,Stimmung,kinyongo,,kilekile,kisambo,madhehebu,,NaN,s,skipped,,,,249867.5,249863.40000000037,,249867.40000000037,,249876.11,,0
"""Falsch""-Screen",canvas.Screen,3_0_0_0_6_1_2,2023-01-08T10:15:01.443Z,,sdf,Stimmung,kinyongo,0,kilekile,kisambo,madhehebu,,4999.8000000000175,s,timeout,,,,254861.30000000075,254859.244,249859.444,249868.20000000112,249876.11,254875.91,,0
shallow,flow.Sequence,3_0_0_0_6_1,2023-01-08T10:15:01.444Z,,sdf,Stimmung,kinyongo,,kilekile,kisambo,madhehebu,,9500.17200000002,s,completion,,,,254861.70000000112,254859.244,245342.406,245346.20000000112,245359.072,254875.91,,0
task  ,flow.Sequence,3_0_0_0_6,2023-01-08T10:15:01.444Z,,sdf,Stimmung,kinyongo,,kilekile,kisambo,madhehebu,,9500.17200000002,s,completion,,,,254861.90000000037,254859.244,245342.406,245345.90000000037,245359.072,254875.91,,0
Deep Question,html.Page,3_0_0_0_7_0_0,2023-01-08T10:15:05.979Z,,,Können,unaweza,,,,,,4520.390000000742,d,form submission,,2,,259396.70000000112,259396.30000000075,254859.244,254862.1000000015,254875.91,259409.062,,0
"""Richtig""-Screen",canvas.Screen,3_0_0_0_7_0_1,2023-01-08T10:15:05.981Z,,sdf,Können,unaweza,,,,,,NaN,d,skipped,,,,259399.20000000112,259396.30000000075,,259399,,259409.062,,0
"""Falsch""-Screen",canvas.Screen,3_0_0_0_7_0_2,2023-01-08T10:15:10.976Z,,sdf,Können,unaweza,0,,,,,4999.8000000000175,d,timeout,,,,264394.2000000011,264392.196,259392.396,259400,259409.062,264408.862,,0
deep,flow.Sequence,3_0_0_0_7_0,2023-01-08T10:15:10.977Z,,sdf,Können,unaweza,,,,,,9516.285999999993,d,completion,,,,264394.80000000075,264392.196,254859.244,254862.1000000015,254875.91,264408.862,,0
shallow,flow.Sequence,3_0_0_0_7_1,2023-01-08T10:15:10.977Z,,sdf,Können,unaweza,,,,,,NaN,d,skipped,,,,264395.1000000015,264392.196,,264395,,264408.862,,0
task  ,flow.Sequence,3_0_0_0_7,2023-01-08T10:15:10.977Z,,sdf,Können,unaweza,,,,,,9516.285999999993,d,completion,,,,264395.30000000075,264392.196,254859.244,254862,254875.91,264408.862,,0
block,flow.Loop,3_0_0_0,2023-01-08T10:15:10.977Z,,sdf,,,,,,,,79451.78,,completion,,,,264395.5,264392.196,184873.752,184948.70000000112,184940.416,264408.862,,0
weiter,canvas.Screen,3_0_0_1,2023-01-08T10:15:12.734Z,,sdf,,,,,,,,1740.5380000003497,,response,sdf,,keypress(Space),266152.6000000015,266149.4000000004,264392.196,264395.6000000015,264408.862,266176.118,,0
check continue,flow.Sequence,3_0_0,2023-01-08T10:15:12.735Z,,sdf,,,,,,,,81208.98400000038,,completion,,,,266153,266149.4000000004,184873.752,184948.70000000112,184940.416,266176.118,,0
Deep Question,html.Page,3_0_1_0_0_0_0,2023-01-08T10:15:22.485Z,,,Orientierung,urekebisho,,,,,,9726.881999999983,d,form submission,,uhubishwo,,275903.6000000015,275903,266142.786,266181.4000000004,266176.118,275909.61,,1
"""Richtig""-Screen",canvas.Screen,3_0_1_0_0_0_1,2023-01-08T10:15:22.489Z,,sdfdsf,Orientierung,urekebisho,,,,,,NaN,d,skipped,,,,275907.5,275903,,275907.2000000011,,275909.61,,1
"""Falsch""-Screen",canvas.Screen,3_0_1_0_0_0_2,2023-01-08T10:15:27.477Z,,sdfdsf,Orientierung,urekebisho,0,,,,,4999.799999999988,d,timeout,,,,280895.1000000015,280892.744,275892.944,275908.6000000015,275909.61,280909.41,,1
deep,flow.Sequence,3_0_1_0_0_0,2023-01-08T10:15:27.477Z,,sdfdsf,Orientierung,urekebisho,,,,,,14716.62599999999,d,completion,,,,280895.5,280892.744,266142.786,266181.4000000004,266176.118,280909.41,,1
shallow,flow.Sequence,3_0_1_0_0_1,2023-01-08T10:15:27.478Z,,sdfdsf,Orientierung,urekebisho,,,,,,NaN,d,skipped,,,,280895.9000000004,280892.744,,280895.7000000011,,280909.41,,1
task  ,flow.Sequence,3_0_1_0_0,2023-01-08T10:15:27.478Z,,sdfdsf,Orientierung,urekebisho,,,,,,14716.62599999999,d,completion,,,,280896.1000000015,280892.744,266142.786,266181.4000000004,266176.118,280909.41,,1
Deep Question,html.Page,3_0_1_0_1_0_0,2023-01-08T10:15:35.061Z,,,Respekt,heshima,,,,,,7569.690000001516,d,form submission,,da,,288479.4000000004,288479.1000000015,280892.744,280896.30000000075,280909.41,288493.096,,1
"""Richtig""-Screen",canvas.Screen,3_0_1_0_1_0_1,2023-01-08T10:15:35.064Z,,sdfdsf,Respekt,heshima,,,,,,NaN,d,skipped,,,,288482.6000000015,288479.1000000015,,288482.5,,288493.096,,1
"""Falsch""-Screen",canvas.Screen,3_0_1_0_1_0_2,2023-01-08T10:15:40.060Z,,sdfdsf,Respekt,heshima,0,,,,,4999.799999999988,d,timeout,,,,293478.2000000011,293476.23,288476.43,288483.1000000015,288493.096,293492.896,,1
deep,flow.Sequence,3_0_1_0_1_0,2023-01-08T10:15:40.060Z,,sdfdsf,Respekt,heshima,,,,,,12566.820000000007,d,completion,,,,293478.6000000015,293476.23,280892.744,280896.2000000011,280909.41,293492.896,,1
shallow,flow.Sequence,3_0_1_0_1_1,2023-01-08T10:15:40.060Z,,sdfdsf,Respekt,heshima,,,,,,NaN,d,skipped,,,,293479,293476.23,,293478.80000000075,,293492.896,,1
task  ,flow.Sequence,3_0_1_0_1,2023-01-08T10:15:40.061Z,,sdfdsf,Respekt,heshima,,,,,,12566.820000000007,d,completion,,,,293479.1000000015,293476.23,280892.744,280896.2000000011,280909.41,293492.896,,1
Deep Question,html.Page,3_0_1_0_2_0_0,2023-01-08T10:15:51.676Z,,,Können,unaweza,,,,,,11602.004000000365,d,form submission,,saa,,305095,305094.9000000004,293476.23,293479.30000000075,293492.896,305109.5,,1
"""Richtig""-Screen",canvas.Screen,3_0_1_0_2_0_1,2023-01-08T10:15:51.677Z,,sdfdsf,Können,unaweza,,,,,,NaN,d,skipped,,,,305096,305094.9000000004,,305096,,305109.5,,1
"""Falsch""-Screen",canvas.Screen,3_0_1_0_2_0_2,2023-01-08T10:15:56.676Z,,sdfdsf,Können,unaweza,0,,,,,4999.799999999988,d,timeout,,,,310094.9000000004,310092.634,305092.834,305096.2000000011,305109.5,310109.3,,1
deep,flow.Sequence,3_0_1_0_2_0,2023-01-08T10:15:56.677Z,,sdfdsf,Können,unaweza,,,,,,16599.738000000012,d,completion,,,,310095.4000000004,310092.634,293476.23,293479.30000000075,293492.896,310109.3,,1
shallow,flow.Sequence,3_0_1_0_2_1,2023-01-08T10:15:56.677Z,,sdfdsf,Können,unaweza,,,,,,NaN,d,skipped,,,,310095.7000000011,310092.634,,310095.5,,310109.3,,1
task  ,flow.Sequence,3_0_1_0_2,2023-01-08T10:15:56.677Z,,sdfdsf,Können,unaweza,,,,,,16599.738000000012,d,completion,,,,310095.9000000004,310092.634,293476.23,293479.2000000011,293492.896,310109.3,,1
deep,flow.Sequence,3_0_1_0_3_0,2023-01-08T10:15:56.677Z,,sdfdsf,Kontrolle,kudhibiti,,mbinguni,kufunga,utegemezi,,NaN,s,skipped,,,,310096.2000000011,310092.634,,310096.1000000015,,310109.3,,1
Shallow Question,html.Page,3_0_1_0_3_1_0,2023-01-08T10:16:05.112Z,,,Kontrolle,kudhibiti,,mbinguni,kufunga,utegemezi,,8421.40000000113,s,form submission,,utegemezi,,318531.2000000011,318530.7000000011,310092.634,310096.30000000075,310109.3,318543.042,,1
"""Richtig""-Screen",canvas.Screen,3_0_1_0_3_1_1,2023-01-08T10:16:05.116Z,,sdfdsf,Kontrolle,kudhibiti,,mbinguni,kufunga,utegemezi,,NaN,s,skipped,,,,318534.9000000004,318530.7000000011,,318534.6000000015,,318543.042,,1
"""Falsch""-Screen",canvas.Screen,3_0_1_0_3_1_2,2023-01-08T10:16:10.110Z,,sdfdsf,Kontrolle,kudhibiti,0,mbinguni,kufunga,utegemezi,,4999.799999999988,s,timeout,,,,323528.4000000004,323526.176,318526.376,318536,318543.042,323542.842,,1
shallow,flow.Sequence,3_0_1_0_3_1,2023-01-08T10:16:10.110Z,,sdfdsf,Kontrolle,kudhibiti,,mbinguni,kufunga,utegemezi,,13416.87599999999,s,completion,,,,323528.9000000004,323526.176,310092.634,310096.2000000011,310109.3,323542.842,,1
task  ,flow.Sequence,3_0_1_0_3,2023-01-08T10:16:10.110Z,,sdfdsf,Kontrolle,kudhibiti,,mbinguni,kufunga,utegemezi,,13416.87599999999,s,completion,,,,323529,323526.176,310092.634,310096,310109.3,323542.842,,1
deep,flow.Sequence,3_0_1_0_4_0,2023-01-08T10:16:10.111Z,,sdfdsf,Betrüger,mdanganyifu,,mwanamuziki,wastani,mahakama,,NaN,s,skipped,,,,323529.4000000004,323526.176,,323529.2000000011,,323542.842,,1
Shallow Question,html.Page,3_0_1_0_4_1_0,2023-01-08T10:16:14.546Z,,,Betrüger,mdanganyifu,,mwanamuziki,wastani,mahakama,,4421.758000001486,s,form submission,,mahakama,,327965.1000000015,327964.6000000015,323526.176,323529.6000000015,323542.842,327976.718,,1
"""Richtig""-Screen",canvas.Screen,3_0_1_0_4_1_1,2023-01-08T10:16:14.549Z,,sdfdsf,Betrüger,mdanganyifu,,mwanamuziki,wastani,mahakama,,NaN,s,skipped,,,,327967.7000000011,327964.6000000015,,327967.6000000015,,327976.718,,1
"""Falsch""-Screen",canvas.Screen,3_0_1_0_4_1_2,2023-01-08T10:16:19.543Z,,sdfdsf,Betrüger,mdanganyifu,0,mwanamuziki,wastani,mahakama,,4999.799999999988,s,timeout,,,,332961.80000000075,332959.852,327960.052,327968.30000000075,327976.718,332976.518,,1
shallow,flow.Sequence,3_0_1_0_4_1,2023-01-08T10:16:19.543Z,,sdfdsf,Betrüger,mdanganyifu,,mwanamuziki,wastani,mahakama,,9417.01000000001,s,completion,,,,332962.4000000004,332959.852,323526.176,323529.5,323542.842,332976.518,,1
task  ,flow.Sequence,3_0_1_0_4,2023-01-08T10:16:19.544Z,,sdfdsf,Betrüger,mdanganyifu,,mwanamuziki,wastani,mahakama,,9417.01000000001,s,completion,,,,332962.6000000015,332959.852,323526.176,323529.2000000011,323542.842,332976.518,,1
deep,flow.Sequence,3_0_1_0_5_0,2023-01-08T10:16:19.544Z,,sdfdsf,Stimmung,kinyongo,,kilekile,kisambo,madhehebu,,NaN,s,skipped,,,,332962.9000000004,332959.852,,332962.80000000075,,332976.518,,1
Shallow Question,html.Page,3_0_1_0_5_1_0,2023-01-08T10:16:23.863Z,,,Stimmung,kinyongo,,kilekile,kisambo,madhehebu,,4304.982000000018,s,form submission,,kinyongo,,337282.2000000011,337281.5,332959.852,332963.1000000015,332976.518,337293.472,,1
"""Richtig""-Screen",canvas.Screen,3_0_1_0_5_1_1,2023-01-08T10:16:28.859Z,,sdfdsf,Stimmung,kinyongo,1,kilekile,kisambo,madhehebu,,4999.799999999988,s,timeout,,,,342278.4000000004,342276.606,337276.806,337285.30000000075,337293.472,342293.272,,1
"""Falsch""-Screen",canvas.Screen,3_0_1_0_5_1_2,2023-01-08T10:16:28.863Z,,sdfdsf,Stimmung,kinyongo,,kilekile,kisambo,madhehebu,,NaN,s,skipped,,,,342282.1000000015,342276.606,,342282,,342293.272,,1
shallow,flow.Sequence,3_0_1_0_5_1,2023-01-08T10:16:28.863Z,,sdfdsf,Stimmung,kinyongo,,kilekile,kisambo,madhehebu,,9300.088000000047,s,completion,,,,342282.30000000075,342276.606,332959.852,332963,332976.518,342293.272,,1
task  ,flow.Sequence,3_0_1_0_5,2023-01-08T10:16:28.863Z,,sdfdsf,Stimmung,kinyongo,,kilekile,kisambo,madhehebu,,9300.088000000047,s,completion,,,,342282.30000000075,342276.606,332959.852,332962.7000000011,332976.518,342293.272,,1
deep,flow.Sequence,3_0_1_0_6_0,2023-01-08T10:16:28.863Z,,sdfdsf,Gefährdung,kuhatarisha,,uchokozi,udhaifu,makorowezo,,NaN,s,skipped,,,,342282.5,342276.606,,342282.5,,342293.272,,1
Shallow Question,html.Page,3_0_1_0_6_1_0,2023-01-08T10:16:34.930Z,,,Gefährdung,kuhatarisha,,uchokozi,udhaifu,makorowezo,,6055.328000001493,s,form submission,,kuhatarisha,,348349.1000000015,348348.6000000015,342276.606,342282.6000000015,342293.272,348360.203,,1
"""Richtig""-Screen",canvas.Screen,3_0_1_0_6_1_1,2023-01-08T10:16:39.925Z,,sdfdsf,Gefährdung,kuhatarisha,1,uchokozi,udhaifu,makorowezo,,4999.800000000047,s,timeout,,,,353344.7000000011,353343.337,348343.537,348351.7000000011,348360.203,353360.003,,1
"""Falsch""-Screen",canvas.Screen,3_0_1_0_6_1_2,2023-01-08T10:16:39.930Z,,sdfdsf,Gefährdung,kuhatarisha,,uchokozi,udhaifu,makorowezo,,NaN,s,skipped,,,,353348.80000000075,353343.337,,353348.6000000015,,353360.003,,1
shallow,flow.Sequence,3_0_1_0_6_1,2023-01-08T10:16:39.930Z,,sdfdsf,Gefährdung,kuhatarisha,,uchokozi,udhaifu,makorowezo,,11050.065000000002,s,completion,,,,353349,353343.337,342276.606,342282.6000000015,342293.272,353360.003,,1
task  ,flow.Sequence,3_0_1_0_6,2023-01-08T10:16:39.930Z,,sdfdsf,Gefährdung,kuhatarisha,,uchokozi,udhaifu,makorowezo,,11050.065000000002,s,completion,,,,353349,353343.337,342276.606,342282.4000000004,342293.272,353360.003,,1
Deep Question,html.Page,3_0_1_0_7_0_0,2023-01-08T10:16:49.060Z,,,Kreativität,ubunifu,,,,,,9118.996999999974,d,form submission,,unaweso,,362479.1000000015,362479,353343.337,353349.1000000015,353360.003,362493.524,,1
"""Richtig""-Screen",canvas.Screen,3_0_1_0_7_0_1,2023-01-08T10:16:49.061Z,,sdfdsf,Kreativität,ubunifu,,,,,,NaN,d,skipped,,,,362480.1000000015,362479,,362480.1000000015,,362493.524,,1
"""Falsch""-Screen",canvas.Screen,3_0_1_0_7_0_2,2023-01-08T10:16:54.059Z,,sdfdsf,Kreativität,ubunifu,0,,,,,4999.800000000047,d,timeout,,,,367478.4000000004,367476.658,362476.858,362480.4000000004,362493.524,367493.324,,1
deep,flow.Sequence,3_0_1_0_7_0,2023-01-08T10:16:54.059Z,,sdfdsf,Kreativität,ubunifu,,,,,,14116.65499999997,d,completion,,,,367478.80000000075,367476.658,353343.337,353349.1000000015,353360.003,367493.324,,1
shallow,flow.Sequence,3_0_1_0_7_1,2023-01-08T10:16:54.060Z,,sdfdsf,Kreativität,ubunifu,,,,,,NaN,d,skipped,,,,367479,367476.658,,367479,,367493.324,,1
task  ,flow.Sequence,3_0_1_0_7,2023-01-08T10:16:54.060Z,,sdfdsf,Kreativität,ubunifu,,,,,,14116.65499999997,d,completion,,,,367479.1000000015,367476.658,353343.337,353349.1000000015,353360.003,367493.324,,1
block,flow.Loop,3_0_1_0,2023-01-08T10:16:54.060Z,,sdfdsf,,,,,,,,101300.53999999998,,completion,,,,367479.30000000075,367476.658,266142.786,266181.4000000004,266176.118,367493.324,,1
weiter,canvas.Screen,3_0_1_1,2023-01-08T10:16:55.379Z,,sdfdsf,,,,,,,,1301.8760000010952,,response,sdf,,keypress(Space),368798.30000000075,368795.2000000011,367476.658,367479.30000000075,367493.324,368827.368,,1
check continue,flow.Sequence,3_0_1,2023-01-08T10:16:55.379Z,,sdfdsf,,,,,,,,102619.0820000011,,completion,,,,368798.9000000004,368795.2000000011,266142.786,266181.30000000075,266176.118,368827.368,,1
deep,flow.Sequence,3_0_2_0_0_0,2023-01-08T10:16:55.407Z,,sdf,Betrüger,mdanganyifu,,mwanamuziki,wastani,mahakama,,NaN,s,skipped,,,,368827,368795.2000000011,,368826.80000000075,,368827.368,,2
Shallow Question,html.Page,3_0_2_0_0_1_0,2023-01-08T10:17:00.280Z,,,Betrüger,mdanganyifu,,mwanamuziki,wastani,mahakama,,4871.432000000728,s,form submission,,mdanganyifu,,373699.4000000004,373698.80000000075,368794.036,368827,368827.368,373710.506,,2
"""Richtig""-Screen",canvas.Screen,3_0_2_0_0_1_1,2023-01-08T10:17:05.276Z,,sdf,Betrüger,mdanganyifu,1,mwanamuziki,wastani,mahakama,,4999.799999999988,s,timeout,,,,378695.4000000004,378693.64,373693.84,373702.5,373710.506,378710.306,,2
"""Falsch""-Screen",canvas.Screen,3_0_2_0_0_1_2,2023-01-08T10:17:05.280Z,,sdf,Betrüger,mdanganyifu,,mwanamuziki,wastani,mahakama,,NaN,s,skipped,,,,378699.1000000015,378693.64,,378699,,378710.306,,2
shallow,flow.Sequence,3_0_2_0_0_1,2023-01-08T10:17:05.280Z,,sdf,Betrüger,mdanganyifu,,mwanamuziki,wastani,mahakama,,9866.271999999997,s,completion,,,,378699.30000000075,378693.64,368794.036,368827,368827.368,378710.306,,2
task  ,flow.Sequence,3_0_2_0_0,2023-01-08T10:17:05.280Z,,sdf,Betrüger,mdanganyifu,,mwanamuziki,wastani,mahakama,,9866.271999999997,s,completion,,,,378699.4000000004,378693.64,368794.036,368826.80000000075,368827.368,378710.306,,2
deep,flow.Sequence,3_0_2_0_1_0,2023-01-08T10:17:05.280Z,,sdf,Gefährdung,kuhatarisha,,uchokozi,udhaifu,makorowezo,,NaN,s,skipped,,,,378699.6000000015,378693.64,,378699.5,,378710.306,,2
Shallow Question,html.Page,3_0_2_0_1_1_0,2023-01-08T10:17:12.462Z,,,Gefährdung,kuhatarisha,,uchokozi,udhaifu,makorowezo,,7170.894000001135,s,form submission,,udhaifu,,385881.7000000011,385881.2000000011,378693.64,378699.6000000015,378710.306,385893.909,,2
"""Richtig""-Screen",canvas.Screen,3_0_2_0_1_1_1,2023-01-08T10:17:12.465Z,,sdf,Gefährdung,kuhatarisha,,uchokozi,udhaifu,makorowezo,,NaN,s,skipped,,,,385885,385881.2000000011,,385884.80000000075,,385893.909,,2
"""Falsch""-Screen",canvas.Screen,3_0_2_0_1_1_2,2023-01-08T10:17:17.460Z,,sdf,Gefährdung,kuhatarisha,0,uchokozi,udhaifu,makorowezo,,4999.799999999988,s,timeout,,,,390879.80000000075,390877.043,385877.243,385885.6000000015,385893.909,390893.709,,2
shallow,flow.Sequence,3_0_2_0_1_1,2023-01-08T10:17:17.461Z,,sdf,Gefährdung,kuhatarisha,,uchokozi,udhaifu,makorowezo,,12166.737000000023,s,completion,,,,390880.30000000075,390877.043,378693.64,378699.6000000015,378710.306,390893.709,,2
task  ,flow.Sequence,3_0_2_0_1,2023-01-08T10:17:17.461Z,,sdf,Gefährdung,kuhatarisha,,uchokozi,udhaifu,makorowezo,,12166.737000000023,s,completion,,,,390880.5,390877.043,378693.64,378699.5,378710.306,390893.709,,2
Deep Question,html.Page,3_0_2_0_2_0_0,2023-01-08T10:17:21.795Z,,,Respekt,heshima,,,,,,4320.7910000000265,d,form submission,,3,,395214.7000000011,395214.5,390877.043,390880.80000000075,390893.709,395227.527,,2
"""Richtig""-Screen",canvas.Screen,3_0_2_0_2_0_1,2023-01-08T10:17:21.798Z,,sdf,Respekt,heshima,,,,,,NaN,d,skipped,,,,395217.80000000075,395214.5,,395217.7000000011,,395227.527,,2
"""Falsch""-Screen",canvas.Screen,3_0_2_0_2_0_2,2023-01-08T10:17:26.792Z,,sdf,Respekt,heshima,0,,,,,4999.799999999988,d,timeout,,,,400211.80000000075,400210.661,395210.861,395218.30000000075,395227.527,400227.327,,2
deep,flow.Sequence,3_0_2_0_2_0,2023-01-08T10:17:26.792Z,,sdf,Respekt,heshima,,,,,,9316.952000000048,d,completion,,,,400212.30000000075,400210.661,390877.043,390880.80000000075,390893.709,400227.327,,2
shallow,flow.Sequence,3_0_2_0_2_1,2023-01-08T10:17:26.793Z,,sdf,Respekt,heshima,,,,,,NaN,d,skipped,,,,400212.6000000015,400210.661,,400212.4000000004,,400227.327,,2
task  ,flow.Sequence,3_0_2_0_2,2023-01-08T10:17:26.793Z,,sdf,Respekt,heshima,,,,,,9316.952000000048,d,completion,,,,400212.80000000075,400210.661,390877.043,390880.6000000015,390893.709,400227.327,,2
Deep Question,html.Page,3_0_2_0_3_0_0,2023-01-08T10:17:35.328Z,,,Orientierung,urekebisho,,,,,,8520.373000001127,d,form submission,,undabishwo,,408747.9000000004,408747.7000000011,400210.661,400212.9000000004,400227.327,408760.825,,2
"""Richtig""-Screen",canvas.Screen,3_0_2_0_3_0_1,2023-01-08T10:17:35.331Z,,sdf,Orientierung,urekebisho,,,,,,NaN,d,skipped,,,,408750.9000000004,408747.7000000011,,408750.80000000075,,408760.825,,2
"""Falsch""-Screen",canvas.Screen,3_0_2_0_3_0_2,2023-01-08T10:17:40.326Z,,sdf,Orientierung,urekebisho,0,,,,,4999.799999999988,d,timeout,,,,413746,413743.959,408744.159,408751.4000000004,408760.825,413760.625,,2
deep,flow.Sequence,3_0_2_0_3_0,2023-01-08T10:17:40.327Z,,sdf,Orientierung,urekebisho,,,,,,13516.631999999983,d,completion,,,,413746.6000000015,413743.959,400210.661,400212.9000000004,400227.327,413760.625,,2
shallow,flow.Sequence,3_0_2_0_3_1,2023-01-08T10:17:40.327Z,,sdf,Orientierung,urekebisho,,,,,,NaN,d,skipped,,,,413746.9000000004,413743.959,,413746.80000000075,,413760.625,,2
task  ,flow.Sequence,3_0_2_0_3,2023-01-08T10:17:40.327Z,,sdf,Orientierung,urekebisho,,,,,,13516.631999999983,d,completion,,,,413747.2000000011,413743.959,400210.661,400212.80000000075,400227.327,413760.625,,2
Deep Question,html.Page,3_0_2_0_4_0_0,2023-01-08T10:17:44.695Z,,,Können,unaweza,,,,,,4354.075000001118,d,form submission,,3,,418115,418114.7000000011,413743.959,413747.30000000075,413760.625,418127.798,,2
"""Richtig""-Screen",canvas.Screen,3_0_2_0_4_0_1,2023-01-08T10:17:44.698Z,,sdf,Können,unaweza,,,,,,NaN,d,skipped,,,,418118.2000000011,418114.7000000011,,418118.1000000015,,418127.798,,2
"""Falsch""-Screen",canvas.Screen,3_0_2_0_4_0_2,2023-01-08T10:17:49.692Z,,sdf,Können,unaweza,0,,,,,4999.799999999988,d,timeout,,,,423112.1000000015,423110.932,418111.132,418118.80000000075,418127.798,423127.598,,2
deep,flow.Sequence,3_0_2_0_4_0,2023-01-08T10:17:49.692Z,,sdf,Können,unaweza,,,,,,9350.306999999972,d,completion,,,,423112.5,423110.932,413743.959,413747.30000000075,413760.625,423127.598,,2
shallow,flow.Sequence,3_0_2_0_4_1,2023-01-08T10:17:49.693Z,,sdf,Können,unaweza,,,,,,NaN,d,skipped,,,,423112.80000000075,423110.932,,423112.7000000011,,423127.598,,2
task  ,flow.Sequence,3_0_2_0_4,2023-01-08T10:17:49.693Z,,sdf,Können,unaweza,,,,,,9350.306999999972,d,completion,,,,423112.9000000004,423110.932,413743.959,413747.30000000075,413760.625,423127.598,,2
deep,flow.Sequence,3_0_2_0_5_0,2023-01-08T10:17:49.693Z,,sdf,Stimmung,kinyongo,,kilekile,kisambo,madhehebu,,NaN,s,skipped,,,,423113.2000000011,423110.932,,423113.1000000015,,423127.598,,2
Shallow Question,html.Page,3_0_2_0_5_1_0,2023-01-08T10:17:55.929Z,,,Stimmung,kinyongo,,kilekile,kisambo,madhehebu,,6221.602000001119,s,form submission,,kinyongo,,429349.6000000015,429349.2000000011,423110.932,423113.4000000004,423127.598,429361.12,,2
"""Richtig""-Screen",canvas.Screen,3_0_2_0_5_1_1,2023-01-08T10:18:00.925Z,,sdf,Stimmung,kinyongo,1,kilekile,kisambo,madhehebu,,4999.799999999988,s,timeout,,,,434345.7000000011,434344.254,429344.454,429353.2000000011,429361.12,434360.92,,2
"""Falsch""-Screen",canvas.Screen,3_0_2_0_5_1_2,2023-01-08T10:18:00.930Z,,sdf,Stimmung,kinyongo,,kilekile,kisambo,madhehebu,,NaN,s,skipped,,,,434349.9000000004,434344.254,,434349.7000000011,,434360.92,,2
shallow,flow.Sequence,3_0_2_0_5_1,2023-01-08T10:18:00.930Z,,sdf,Stimmung,kinyongo,,kilekile,kisambo,madhehebu,,11216.656000000017,s,completion,,,,434349.9000000004,434344.254,423110.932,423113.30000000075,423127.598,434360.92,,2
task  ,flow.Sequence,3_0_2_0_5,2023-01-08T10:18:00.930Z,,sdf,Stimmung,kinyongo,,kilekile,kisambo,madhehebu,,11216.656000000017,s,completion,,,,434350.1000000015,434344.254,423110.932,423113.1000000015,423127.598,434360.92,,2
deep,flow.Sequence,3_0_2_0_6_0,2023-01-08T10:18:00.930Z,,sdf,Kontrolle,kudhibiti,,mbinguni,kufunga,utegemezi,,NaN,s,skipped,,,,434350.2000000011,434344.254,,434350.1000000015,,434360.92,,2
Shallow Question,html.Page,3_0_2_0_6_1_0,2023-01-08T10:18:12.897Z,,,Kontrolle,kudhibiti,,mbinguni,kufunga,utegemezi,,11955.880000000761,s,form submission,,kudhibiti,,446317.30000000075,446316.80000000075,434344.254,434350.30000000075,434360.92,446328.324,,2
"""Richtig""-Screen",canvas.Screen,3_0_2_0_6_1_1,2023-01-08T10:18:17.893Z,,sdf,Kontrolle,kudhibiti,1,mbinguni,kufunga,utegemezi,,4999.799999999988,s,timeout,,,,451313.30000000075,451311.458,446311.658,446319.80000000075,446328.324,451328.124,,2
"""Falsch""-Screen",canvas.Screen,3_0_2_0_6_1_2,2023-01-08T10:18:17.896Z,,sdf,Kontrolle,kudhibiti,,mbinguni,kufunga,utegemezi,,NaN,s,skipped,,,,451316.80000000075,451311.458,,451316.80000000075,,451328.124,,2
shallow,flow.Sequence,3_0_2_0_6_1,2023-01-08T10:18:17.896Z,,sdf,Kontrolle,kudhibiti,,mbinguni,kufunga,utegemezi,,16950.538,s,completion,,,,451317,451311.458,434344.254,434350.30000000075,434360.92,451328.124,,2
task  ,flow.Sequence,3_0_2_0_6,2023-01-08T10:18:17.897Z,,sdf,Kontrolle,kudhibiti,,mbinguni,kufunga,utegemezi,,16950.538,s,completion,,,,451317.1000000015,451311.458,434344.254,434350.1000000015,434360.92,451328.124,,2
Deep Question,html.Page,3_0_2_0_7_0_0,2023-01-08T10:18:21.278Z,,,Kreativität,ubunifu,,,,,,3369.776000000362,d,form submission,,2,,454698.1000000015,454697.9000000004,451311.458,451317.2000000011,451328.124,454711.322,,2
"""Richtig""-Screen",canvas.Screen,3_0_2_0_7_0_1,2023-01-08T10:18:21.280Z,,sdf,Kreativität,ubunifu,,,,,,NaN,d,skipped,,,,454700.80000000075,454697.9000000004,,454700.80000000075,,454711.322,,2
"""Falsch""-Screen",canvas.Screen,3_0_2_0_7_0_2,2023-01-08T10:18:26.276Z,,sdf,Kreativität,ubunifu,0,,,,,4999.799999999988,d,timeout,,,,459697,459694.456,454694.656,454701.5,454711.322,459711.122,,2
deep,flow.Sequence,3_0_2_0_7_0,2023-01-08T10:18:26.277Z,,sdf,Kreativität,ubunifu,,,,,,8366.331999999995,d,completion,,,,459697.5,459694.456,451311.458,451317.2000000011,451328.124,459711.122,,2
shallow,flow.Sequence,3_0_2_0_7_1,2023-01-08T10:18:26.277Z,,sdf,Kreativität,ubunifu,,,,,,NaN,d,skipped,,,,459697.80000000075,459694.456,,459697.7000000011,,459711.122,,2
task  ,flow.Sequence,3_0_2_0_7,2023-01-08T10:18:26.277Z,,sdf,Kreativität,ubunifu,,,,,,8366.331999999995,d,completion,,,,459698,459694.456,451311.458,451317.2000000011,451328.124,459711.122,,2
block,flow.Loop,3_0_2_0,2023-01-08T10:18:26.278Z,,sdf,,,,,,,,90867.08799999999,,completion,,,,459698.30000000075,459694.456,368794.036,368826.80000000075,368827.368,459711.122,,2
weiter,canvas.Screen,3_0_2_1,2023-01-08T10:18:27.785Z,,sdf,,,,,,,,1492.0780000011437,,response,sdf,,keypress(Space),461206,461203.2000000011,459694.456,459698.4000000004,459711.122,461228.46,,2
check continue,flow.Sequence,3_0_2,2023-01-08T10:18:27.786Z,,sdf,,,,,,,,92375.8320000011,,completion,,,,461206.4000000004,461203.2000000011,368794.036,368826.80000000075,368827.368,461228.46,,2
deep,flow.Sequence,3_0_3_0_0_0,2023-01-08T10:18:27.811Z,,qt,Stimmung,kinyongo,,kilekile,kisambo,madhehebu,,NaN,s,skipped,,,,461232.1000000015,461203.2000000011,,461232,,461228.46,,3
Shallow Question,html.Page,3_0_3_0_0_1_0,2023-01-08T10:18:31.162Z,,,Stimmung,kinyongo,,kilekile,kisambo,madhehebu,,3353.840000000724,s,form submission,,kinyongo,,464582.80000000075,464582.30000000075,461195.128,461232.2000000011,461228.46,464594.992,,3
"""Richtig""-Screen",canvas.Screen,3_0_3_0_0_1_1,2023-01-08T10:18:36.160Z,,qt,Stimmung,kinyongo,1,kilekile,kisambo,madhehebu,,4999.799999999988,s,timeout,,,,469580.80000000075,469578.126,464578.326,464585.80000000075,464594.992,469594.792,,3
"""Falsch""-Screen",canvas.Screen,3_0_3_0_0_1_2,2023-01-08T10:18:36.165Z,,qt,Stimmung,kinyongo,,kilekile,kisambo,madhehebu,,NaN,s,skipped,,,,469586.1000000015,469578.126,,469586,,469594.792,,3
shallow,flow.Sequence,3_0_3_0_0_1,2023-01-08T10:18:36.165Z,,qt,Stimmung,kinyongo,,kilekile,kisambo,madhehebu,,8349.665999999968,s,completion,,,,469586.2000000011,469578.126,461195.128,461232.2000000011,461228.46,469594.792,,3
task  ,flow.Sequence,3_0_3_0_0,2023-01-08T10:18:36.166Z,,qt,Stimmung,kinyongo,,kilekile,kisambo,madhehebu,,8349.665999999968,s,completion,,,,469586.30000000075,469578.126,461195.128,461232,461228.46,469594.792,,3
deep,flow.Sequence,3_0_3_0_1_0,2023-01-08T10:18:36.166Z,,qt,Gefährdung,kuhatarisha,,uchokozi,udhaifu,makorowezo,,NaN,s,skipped,,,,469586.5,469578.126,,469586.4000000004,,469594.792,,3
Shallow Question,html.Page,3_0_3_0_1_1_0,2023-01-08T10:18:46.895Z,,,Gefährdung,kuhatarisha,,uchokozi,udhaifu,makorowezo,,10721.00800000073,s,form submission,,kuhatarisha,,480316.4000000004,480315.80000000075,469578.126,469586.6000000015,469594.792,480328.287,,3
"""Richtig""-Screen",canvas.Screen,3_0_3_0_1_1_1,2023-01-08T10:18:51.893Z,,qt,Gefährdung,kuhatarisha,1,uchokozi,udhaifu,makorowezo,,4999.799999999988,s,timeout,,,,485313.7000000011,485311.421,480311.621,480319.30000000075,480328.287,485328.087,,3
"""Falsch""-Screen",canvas.Screen,3_0_3_0_1_1_2,2023-01-08T10:18:51.896Z,,qt,Gefährdung,kuhatarisha,,uchokozi,udhaifu,makorowezo,,NaN,s,skipped,,,,485317.5,485311.421,,485317.4000000004,,485328.087,,3
shallow,flow.Sequence,3_0_3_0_1_1,2023-01-08T10:18:51.897Z,,qt,Gefährdung,kuhatarisha,,uchokozi,udhaifu,makorowezo,,15716.628999999957,s,completion,,,,485317.6000000015,485311.421,469578.126,469586.5,469594.792,485328.087,,3
task  ,flow.Sequence,3_0_3_0_1,2023-01-08T10:18:51.897Z,,qt,Gefährdung,kuhatarisha,,uchokozi,udhaifu,makorowezo,,15716.628999999957,s,completion,,,,485317.80000000075,485311.421,469578.126,469586.4000000004,469594.792,485328.087,,3
Deep Question,html.Page,3_0_3_0_2_0_0,2023-01-08T10:18:57.796Z,,,Kreativität,ubunifu,,,,,,5888.013000001491,d,form submission,,2,,491216.6000000015,491216.1000000015,485311.421,485317.80000000075,485328.087,491228.589,,3
"""Richtig""-Screen",canvas.Screen,3_0_3_0_2_0_1,2023-01-08T10:18:57.798Z,,qt,Kreativität,ubunifu,,,,,,NaN,d,skipped,,,,491219.30000000075,491216.1000000015,,491219.2000000011,,491228.589,,3
"""Falsch""-Screen",canvas.Screen,3_0_3_0_2_0_2,2023-01-08T10:19:02.793Z,,qt,Kreativität,ubunifu,0,,,,,4999.800000000047,d,timeout,,,,496214.30000000075,496211.723,491211.923,491219.9000000004,491228.589,496228.389,,3
deep,flow.Sequence,3_0_3_0_2_0,2023-01-08T10:19:02.794Z,,qt,Kreativität,ubunifu,,,,,,10883.635999999999,d,completion,,,,496214.80000000075,496211.723,485311.421,485317.80000000075,485328.087,496228.389,,3
shallow,flow.Sequence,3_0_3_0_2_1,2023-01-08T10:19:02.794Z,,qt,Kreativität,ubunifu,,,,,,NaN,d,skipped,,,,496215.2000000011,496211.723,,496215,,496228.389,,3
task  ,flow.Sequence,3_0_3_0_2,2023-01-08T10:19:02.794Z,,qt,Kreativität,ubunifu,,,,,,10883.635999999999,d,completion,,,,496215.30000000075,496211.723,485311.421,485317.80000000075,485328.087,496228.389,,3
Deep Question,html.Page,3_0_3_0_3_0_0,2023-01-08T10:19:16.928Z,,,Respekt,heshima,,,,,,14120.811000001093,d,form submission,,uhishma,,510349.7000000011,510349.2000000011,496211.723,496215.7000000011,496228.389,510362.261,,3
"""Richtig""-Screen",canvas.Screen,3_0_3_0_3_0_1,2023-01-08T10:19:16.932Z,,qt,Respekt,heshima,,,,,,NaN,d,skipped,,,,510353.6000000015,510349.2000000011,,510353.5,,510362.261,,3
"""Falsch""-Screen",canvas.Screen,3_0_3_0_3_0_2,2023-01-08T10:19:21.926Z,,qt,Respekt,heshima,0,,,,,4999.799999999988,d,timeout,,,,515347.80000000075,515345.395,510345.595,510354.2000000011,510362.261,515362.061,,3
deep,flow.Sequence,3_0_3_0_3_0,2023-01-08T10:19:21.927Z,,qt,Respekt,heshima,,,,,,19117.005999999994,d,completion,,,,515348.2000000011,515345.395,496211.723,496215.5,496228.389,515362.061,,3
shallow,flow.Sequence,3_0_3_0_3_1,2023-01-08T10:19:21.927Z,,qt,Respekt,heshima,,,,,,NaN,d,skipped,,,,515348.6000000015,515345.395,,515348.4000000004,,515362.061,,3
task  ,flow.Sequence,3_0_3_0_3,2023-01-08T10:19:21.927Z,,qt,Respekt,heshima,,,,,,19117.005999999994,d,completion,,,,515348.7000000011,515345.395,496211.723,496215.4000000004,496228.389,515362.061,,3
deep,flow.Sequence,3_0_3_0_4_0,2023-01-08T10:19:21.928Z,,qt,Kontrolle,kudhibiti,,mbinguni,kufunga,utegemezi,,NaN,s,skipped,,,,515349.1000000015,515345.395,,515349,,515362.061,,3
Shallow Question,html.Page,3_0_3_0_4_1_0,2023-01-08T10:19:29.779Z,,,Kontrolle,kudhibiti,,mbinguni,kufunga,utegemezi,,7838.339000000386,s,form submission,,kudhibiti,,523200.80000000075,523200.4000000004,515345.395,515349.2000000011,515362.061,523212.242,,3
"""Richtig""-Screen",canvas.Screen,3_0_3_0_4_1_1,2023-01-08T10:19:34.776Z,,qt,Kontrolle,kudhibiti,1,mbinguni,kufunga,utegemezi,,4999.799999999988,s,timeout,,,,528197.9000000004,528195.376,523195.576,523203.4000000004,523212.242,528212.042,,3
"""Falsch""-Screen",canvas.Screen,3_0_3_0_4_1_2,2023-01-08T10:19:34.781Z,,qt,Kontrolle,kudhibiti,,mbinguni,kufunga,utegemezi,,NaN,s,skipped,,,,528202.3000000007,528195.376,,528202.2000000011,,528212.042,,3
shallow,flow.Sequence,3_0_3_0_4_1,2023-01-08T10:19:34.781Z,,qt,Kontrolle,kudhibiti,,mbinguni,kufunga,utegemezi,,12833.31500000006,s,completion,,,,528202.6000000015,528195.376,515345.395,515349.1000000015,515362.061,528212.042,,3
task  ,flow.Sequence,3_0_3_0_4,2023-01-08T10:19:34.781Z,,qt,Kontrolle,kudhibiti,,mbinguni,kufunga,utegemezi,,12833.31500000006,s,completion,,,,528202.7000000011,528195.376,515345.395,515348.9000000004,515362.061,528212.042,,3
Deep Question,html.Page,3_0_3_0_5_0_0,2023-01-08T10:19:42.062Z,,,Orientierung,urekebisho,,,,,,7270.658000001102,d,form submission,,udubihwo,,535483.2000000011,535482.7000000011,528195.376,528202.9000000004,528212.042,535495.666,,3
"""Richtig""-Screen",canvas.Screen,3_0_3_0_5_0_1,2023-01-08T10:19:42.065Z,,qt,Orientierung,urekebisho,,,,,,NaN,d,skipped,,,,535486.9000000004,535482.7000000011,,535486.9000000004,,535495.666,,3
"""Falsch""-Screen",canvas.Screen,3_0_3_0_5_0_2,2023-01-08T10:19:47.058Z,,qt,Orientierung,urekebisho,0,,,,,4999.800000000047,d,timeout,,,,540480.1000000015,540478.8,535479,535487.6000000015,535495.666,540495.466,,3
deep,flow.Sequence,3_0_3_0_5_0,2023-01-08T10:19:47.059Z,,qt,Orientierung,urekebisho,,,,,,12266.75800000003,d,completion,,,,540480.6000000015,540478.8,528195.376,528202.8000000007,528212.042,540495.466,,3
shallow,flow.Sequence,3_0_3_0_5_1,2023-01-08T10:19:47.059Z,,qt,Orientierung,urekebisho,,,,,,NaN,d,skipped,,,,540480.9000000004,540478.8,,540480.7000000011,,540495.466,,3
task  ,flow.Sequence,3_0_3_0_5,2023-01-08T10:19:47.059Z,,qt,Orientierung,urekebisho,,,,,,12266.75800000003,d,completion,,,,540481.1000000015,540478.8,528195.376,528202.8000000007,528212.042,540495.466,,3
Deep Question,html.Page,3_0_3_0_6_0_0,2023-01-08T10:19:53.977Z,,,Können,unaweza,,,,,,6903.134000001475,d,form submission,,2,,547398.8000000007,547398.6000000015,540478.8,540481.3000000007,540495.466,547412.537,,3
"""Richtig""-Screen",canvas.Screen,3_0_3_0_6_0_1,2023-01-08T10:19:53.980Z,,qt,Können,unaweza,,,,,,NaN,d,skipped,,,,547401.7000000011,547398.6000000015,,547401.5,,547412.537,,3
"""Falsch""-Screen",canvas.Screen,3_0_3_0_6_0_2,2023-01-08T10:19:58.976Z,,qt,Können,unaweza,0,,,,,4999.800000000047,d,timeout,,,,552398,552395.671,547395.871,547402.2000000011,547412.537,552412.337,,3
deep,flow.Sequence,3_0_3_0_6_0,2023-01-08T10:19:58.977Z,,qt,Können,unaweza,,,,,,11900.204999999958,d,completion,,,,552398.6000000015,552395.671,540478.8,540481.3000000007,540495.466,552412.337,,3
shallow,flow.Sequence,3_0_3_0_6_1,2023-01-08T10:19:58.977Z,,qt,Können,unaweza,,,,,,NaN,d,skipped,,,,552398.9000000004,552395.671,,552398.8000000007,,552412.337,,3
task  ,flow.Sequence,3_0_3_0_6,2023-01-08T10:19:58.977Z,,qt,Können,unaweza,,,,,,11900.204999999958,d,completion,,,,552399.2000000011,552395.671,540478.8,540481.2000000011,540495.466,552412.337,,3
deep,flow.Sequence,3_0_3_0_7_0,2023-01-08T10:19:58.978Z,,qt,Betrüger,mdanganyifu,,mwanamuziki,wastani,mahakama,,NaN,s,skipped,,,,552399.4000000004,552395.671,,552399.4000000004,,552412.337,,3
Shallow Question,html.Page,3_0_3_0_7_1_0,2023-01-08T10:20:05.895Z,,,Betrüger,mdanganyifu,,mwanamuziki,wastani,mahakama,,6904.563000000315,s,form submission,,mdanganyifu,,559317.3000000007,559316.9000000004,552395.671,552399.5,552412.337,559329.256,,3
"""Richtig""-Screen",canvas.Screen,3_0_3_0_7_1_1,2023-01-08T10:20:10.893Z,,qt,Betrüger,mdanganyifu,1,mwanamuziki,wastani,mahakama,,4999.79999999993,s,timeout,,,,564314.5,564312.39,559312.59,559320.8000000007,559329.256,564329.056,,3
"""Falsch""-Screen",canvas.Screen,3_0_3_0_7_1_2,2023-01-08T10:20:10.897Z,,qt,Betrüger,mdanganyifu,,mwanamuziki,wastani,mahakama,,NaN,s,skipped,,,,564318.8000000007,564312.39,,564318.5,,564329.056,,3
shallow,flow.Sequence,3_0_3_0_7_1,2023-01-08T10:20:10.897Z,,qt,Betrüger,mdanganyifu,,mwanamuziki,wastani,mahakama,,11900.052999999956,s,completion,,,,564319,564312.39,552395.671,552399.5,552412.337,564329.056,,3
task  ,flow.Sequence,3_0_3_0_7,2023-01-08T10:20:10.897Z,,qt,Betrüger,mdanganyifu,,mwanamuziki,wastani,mahakama,,11900.052999999956,s,completion,,,,564319.1000000015,564312.39,552395.671,552399.3000000007,552412.337,564329.056,,3
block,flow.Loop,3_0_3_0,2023-01-08T10:20:10.897Z,,qt,,,,,,,,103083.93,,completion,,,,564319.3000000007,564312.39,461195.128,461232,461228.46,564329.056,,3
weiter,canvas.Screen,3_0_3_1,2023-01-08T10:20:13.461Z,,qt,,,,,,,,2550.2440000007628,,response,sdf,,keypress(Space),566882.9000000004,566879.3000000007,564312.39,564319.4000000004,564329.056,566896.328,,3
check continue,flow.Sequence,3_0_3,2023-01-08T10:20:13.461Z,,qt,,,,,,,,105650.84000000072,,completion,,,,566883.4000000004,566879.3000000007,461195.128,461232,461228.46,566896.328,,3
deep,flow.Sequence,3_0_4_0_0_0,2023-01-08T10:20:13.487Z,,sd,Stimmung,kinyongo,,kilekile,kisambo,madhehebu,,NaN,s,skipped,,,,566909.1000000015,566879.3000000007,,566909,,566896.328,,4
Shallow Question,html.Page,3_0_4_0_0_1_0,2023-01-08T10:20:20.512Z,,,Stimmung,kinyongo,,kilekile,kisambo,madhehebu,,7037.272000001511,s,form submission,,kinyongo,,573934.1000000015,573933.6000000015,566879.662,566909.1000000015,566896.328,573946.046,,4
"""Richtig""-Screen",canvas.Screen,3_0_4_0_0_1_1,2023-01-08T10:20:25.509Z,,sd,Stimmung,kinyongo,1,kilekile,kisambo,madhehebu,,4999.800000000047,s,timeout,,,,578931.1000000015,578929.18,573929.38,573936.9000000004,573946.046,578945.846,,4
"""Falsch""-Screen",canvas.Screen,3_0_4_0_0_1_2,2023-01-08T10:20:25.513Z,,sd,Stimmung,kinyongo,,kilekile,kisambo,madhehebu,,NaN,s,skipped,,,,578934.9000000004,578929.18,,578934.8000000007,,578945.846,,4
shallow,flow.Sequence,3_0_4_0_0_1,2023-01-08T10:20:25.513Z,,sd,Stimmung,kinyongo,,kilekile,kisambo,madhehebu,,12032.852000000072,s,completion,,,,578935,578929.18,566879.662,566909.1000000015,566896.328,578945.846,,4
task  ,flow.Sequence,3_0_4_0_0,2023-01-08T10:20:25.513Z,,sd,Stimmung,kinyongo,,kilekile,kisambo,madhehebu,,12032.852000000072,s,completion,,,,578935.1000000015,578929.18,566879.662,566909,566896.328,578945.846,,4
Deep Question,html.Page,3_0_4_0_1_0_0,2023-01-08T10:20:31.428Z,,,Respekt,heshima,,,,,,5903.854000001098,d,form submission,,hushima,,584849.8000000007,584849.7000000011,578929.18,578935.3000000007,578945.846,584863.034,,4
"""Richtig""-Screen",canvas.Screen,3_0_4_0_1_0_1,2023-01-08T10:20:31.430Z,,sd,Respekt,heshima,,,,,,NaN,d,skipped,,,,584852.1000000015,584849.7000000011,,584852,,584863.034,,4
"""Falsch""-Screen",canvas.Screen,3_0_4_0_1_0_2,2023-01-08T10:20:36.426Z,,sd,Respekt,heshima,0,,,,,4999.800000000047,d,timeout,,,,589848.5,589846.168,584846.368,584852.5,584863.034,589862.834,,4
deep,flow.Sequence,3_0_4_0_1_0,2023-01-08T10:20:36.427Z,,sd,Respekt,heshima,,,,,,10900.321999999927,d,completion,,,,589849,589846.168,578929.18,578935.2000000011,578945.846,589862.834,,4
shallow,flow.Sequence,3_0_4_0_1_1,2023-01-08T10:20:36.427Z,,sd,Respekt,heshima,,,,,,NaN,d,skipped,,,,589849.2000000011,589846.168,,589849.1000000015,,589862.834,,4
task  ,flow.Sequence,3_0_4_0_1,2023-01-08T10:20:36.427Z,,sd,Respekt,heshima,,,,,,10900.321999999927,d,completion,,,,589849.4000000004,589846.168,578929.18,578935.2000000011,578945.846,589862.834,,4
deep,flow.Sequence,3_0_4_0_2_0,2023-01-08T10:20:36.427Z,,sd,Betrüger,mdanganyifu,,mwanamuziki,wastani,mahakama,,NaN,s,skipped,,,,589849.8000000007,589846.168,,589849.6000000015,,589862.834,,4
Shallow Question,html.Page,3_0_4_0_2_1_0,2023-01-08T10:20:42.179Z,,,Betrüger,mdanganyifu,,mwanamuziki,wastani,mahakama,,5737.766000001458,s,form submission,,mdanganyifu,,595601.1000000015,595600.6000000015,589846.168,589849.9000000004,589862.834,595613.143,,4
"""Richtig""-Screen",canvas.Screen,3_0_4_0_2_1_1,2023-01-08T10:20:47.176Z,,sd,Betrüger,mdanganyifu,1,mwanamuziki,wastani,mahakama,,4999.79999999993,s,timeout,,,,600599,600596.277,595596.477,595604.1000000015,595613.143,600612.943,,4
"""Falsch""-Screen",canvas.Screen,3_0_4_0_2_1_2,2023-01-08T10:20:47.181Z,,sd,Betrüger,mdanganyifu,,mwanamuziki,wastani,mahakama,,NaN,s,skipped,,,,600603.4000000004,600596.277,,600603.3000000007,,600612.943,,4
shallow,flow.Sequence,3_0_4_0_2_1,2023-01-08T10:20:47.181Z,,sd,Betrüger,mdanganyifu,,mwanamuziki,wastani,mahakama,,10733.44299999997,s,completion,,,,600603.6000000015,600596.277,589846.168,589849.8000000007,589862.834,600612.943,,4
task  ,flow.Sequence,3_0_4_0_2,2023-01-08T10:20:47.181Z,,sd,Betrüger,mdanganyifu,,mwanamuziki,wastani,mahakama,,10733.44299999997,s,completion,,,,600603.7000000011,600596.277,589846.168,589849.5,589862.834,600612.943,,4
Deep Question,html.Page,3_0_4_0_3_0_0,2023-01-08T10:20:59.261Z,,,Kreativität,ubunifu,,,,,,12070.957000000402,d,form submission,,habiu,,612684.1000000015,612683.9000000004,600596.277,600603.9000000004,600612.943,612696.907,,4
"""Richtig""-Screen",canvas.Screen,3_0_4_0_3_0_1,2023-01-08T10:20:59.264Z,,sd,Kreativität,ubunifu,,,,,,NaN,d,skipped,,,,612686.8000000007,612683.9000000004,,612686.8000000007,,612696.907,,4
"""Falsch""-Screen",canvas.Screen,3_0_4_0_3_0_2,2023-01-08T10:21:04.259Z,,sd,Kreativität,ubunifu,0,,,,,4999.800000000047,d,timeout,,,,617682.2000000011,617680.041,612680.241,612687.5,612696.907,617696.707,,4
deep,flow.Sequence,3_0_4_0_3_0,2023-01-08T10:21:04.260Z,,sd,Kreativität,ubunifu,,,,,,17067.097999999998,d,completion,,,,617682.7000000011,617680.041,600596.277,600603.9000000004,600612.943,617696.707,,4
shallow,flow.Sequence,3_0_4_0_3_1,2023-01-08T10:21:04.260Z,,sd,Kreativität,ubunifu,,,,,,NaN,d,skipped,,,,617683,617680.041,,617682.9000000004,,617696.707,,4
task  ,flow.Sequence,3_0_4_0_3,2023-01-08T10:21:04.260Z,,sd,Kreativität,ubunifu,,,,,,17067.097999999998,d,completion,,,,617683.2000000011,617680.041,600596.277,600603.9000000004,600612.943,617696.707,,4
Deep Question,html.Page,3_0_4_0_4_0_0,2023-01-08T10:21:11.610Z,,,Orientierung,urekebisho,,,,,,7335.893000001437,d,form submission,,urekebisho,,625032.8000000007,625032.6000000015,617680.041,617683.4000000004,617696.707,625046.935,,4
"""Richtig""-Screen",canvas.Screen,3_0_4_0_4_0_1,2023-01-08T10:21:16.610Z,,sd,Orientierung,urekebisho,1,,,,,4999.79999999993,d,timeout,,,,630032.7000000011,630030.069,625030.269,625035.8000000007,625046.935,630046.735,,4
"""Falsch""-Screen",canvas.Screen,3_0_4_0_4_0_2,2023-01-08T10:21:16.614Z,,sd,Orientierung,urekebisho,,,,,,NaN,d,skipped,,,,630036.9000000004,630030.069,,630036.8000000007,,630046.735,,4
deep,flow.Sequence,3_0_4_0_4_0,2023-01-08T10:21:16.614Z,,sd,Orientierung,urekebisho,,,,,,12333.361999999965,d,completion,,,,630037.2000000011,630030.069,617680.041,617683.3000000007,617696.707,630046.735,,4
shallow,flow.Sequence,3_0_4_0_4_1,2023-01-08T10:21:16.614Z,,sd,Orientierung,urekebisho,,,,,,NaN,d,skipped,,,,630037.4000000004,630030.069,,630037.3000000007,,630046.735,,4
task  ,flow.Sequence,3_0_4_0_4,2023-01-08T10:21:16.615Z,,sd,Orientierung,urekebisho,,,,,,12333.361999999965,d,completion,,,,630037.5,630030.069,617680.041,617683.3000000007,617696.707,630046.735,,4
deep,flow.Sequence,3_0_4_0_5_0,2023-01-08T10:21:16.615Z,,sd,Gefährdung,kuhatarisha,,uchokozi,udhaifu,makorowezo,,NaN,s,skipped,,,,630037.7000000011,630030.069,,630037.6000000015,,630046.735,,4
Shallow Question,html.Page,3_0_4_0_5_1_0,2023-01-08T10:21:21.812Z,,,Gefährdung,kuhatarisha,,uchokozi,udhaifu,makorowezo,,5187.565000000759,s,form submission,,udhaifu,,635234.7000000011,635234.3000000007,630030.069,630037.8000000007,630046.735,635247.044,,4
"""Richtig""-Screen",canvas.Screen,3_0_4_0_5_1_1,2023-01-08T10:21:21.814Z,,sd,Gefährdung,kuhatarisha,,uchokozi,udhaifu,makorowezo,,NaN,s,skipped,,,,635237.4000000004,635234.3000000007,,635237.2000000011,,635247.044,,4
"""Falsch""-Screen",canvas.Screen,3_0_4_0_5_1_2,2023-01-08T10:21:26.810Z,,sd,Gefährdung,kuhatarisha,0,uchokozi,udhaifu,makorowezo,,4999.800000000047,s,timeout,,,,640232.8000000007,640230.178,635230.378,635238,635247.044,640246.844,,4
shallow,flow.Sequence,3_0_4_0_5_1,2023-01-08T10:21:26.810Z,,sd,Gefährdung,kuhatarisha,,uchokozi,udhaifu,makorowezo,,10183.44299999997,s,completion,,,,640233.4000000004,640230.178,630030.069,630037.7000000011,630046.735,640246.844,,4
task  ,flow.Sequence,3_0_4_0_5,2023-01-08T10:21:26.811Z,,sd,Gefährdung,kuhatarisha,,uchokozi,udhaifu,makorowezo,,10183.44299999997,s,completion,,,,640233.6000000015,640230.178,630030.069,630037.6000000015,630046.735,640246.844,,4
Deep Question,html.Page,3_0_4_0_6_0_0,2023-01-08T10:21:31.944Z,,,Können,unaweza,,,,,,5120.356000001077,d,form submission,,unawezo,,645367.5,645367.2000000011,640230.178,640233.9000000004,640246.844,645380.4,,4
"""Richtig""-Screen",canvas.Screen,3_0_4_0_6_0_1,2023-01-08T10:21:31.947Z,,sd,Können,unaweza,,,,,,NaN,d,skipped,,,,645370.3000000007,645367.2000000011,,645370.2000000011,,645380.4,,4
"""Falsch""-Screen",canvas.Screen,3_0_4_0_6_0_2,2023-01-08T10:21:36.942Z,,sd,Können,unaweza,0,,,,,4999.79999999993,d,timeout,,,,650365,650363.534,645363.734,645370.9000000004,645380.4,650380.2,,4
deep,flow.Sequence,3_0_4_0_6_0,2023-01-08T10:21:36.942Z,,sd,Können,unaweza,,,,,,10116.689999999944,d,completion,,,,650365.4000000004,650363.534,640230.178,640233.8000000007,640246.844,650380.2,,4
shallow,flow.Sequence,3_0_4_0_6_1,2023-01-08T10:21:36.942Z,,sd,Können,unaweza,,,,,,NaN,d,skipped,,,,650365.7000000011,650363.534,,650365.5,,650380.2,,4
task  ,flow.Sequence,3_0_4_0_6,2023-01-08T10:21:36.943Z,,sd,Können,unaweza,,,,,,10116.689999999944,d,completion,,,,650365.8000000007,650363.534,640230.178,640233.7000000011,640246.844,650380.2,,4
deep,flow.Sequence,3_0_4_0_7_0,2023-01-08T10:21:36.943Z,,sd,Kontrolle,kudhibiti,,mbinguni,kufunga,utegemezi,,NaN,s,skipped,,,,650366,650363.534,,650365.9000000004,,650380.2,,4
Shallow Question,html.Page,3_0_4_0_7_1_0,2023-01-08T10:21:42.496Z,,,Kontrolle,kudhibiti,,mbinguni,kufunga,utegemezi,,5538.300000000047,s,form submission,,kudhibiti,,655919.1000000015,655918.5,650363.534,650366.1000000015,650380.2,655929.978,,4
"""Richtig""-Screen",canvas.Screen,3_0_4_0_7_1_1,2023-01-08T10:21:47.492Z,,sd,Kontrolle,kudhibiti,1,mbinguni,kufunga,utegemezi,,4999.800000000047,s,timeout,,,,660915.7000000011,660913.112,655913.312,655922.7000000011,655929.978,660929.778,,4
"""Falsch""-Screen",canvas.Screen,3_0_4_0_7_1_2,2023-01-08T10:21:47.498Z,,sd,Kontrolle,kudhibiti,,mbinguni,kufunga,utegemezi,,NaN,s,skipped,,,,660920.9000000004,660913.112,,660920.6000000015,,660929.778,,4
shallow,flow.Sequence,3_0_4_0_7_1,2023-01-08T10:21:47.498Z,,sd,Kontrolle,kudhibiti,,mbinguni,kufunga,utegemezi,,10532.912000000011,s,completion,,,,660921.1000000015,660913.112,650363.534,650366.1000000015,650380.2,660929.778,,4
task  ,flow.Sequence,3_0_4_0_7,2023-01-08T10:21:47.498Z,,sd,Kontrolle,kudhibiti,,mbinguni,kufunga,utegemezi,,10532.912000000011,s,completion,,,,660921.3000000007,660913.112,650363.534,650365.8000000007,650380.2,660929.778,,4
block,flow.Loop,3_0_4_0,2023-01-08T10:21:47.498Z,,sd,,,,,,,,94016.78399999999,,completion,,,,660921.6000000015,660913.112,566879.662,566908.9000000004,566896.328,660929.778,,4
weiter,canvas.Screen,3_0_4_1,2023-01-08T10:21:48.731Z,,sd,,,,,,,,1222.2219999999506,,response,sdf,,keypress(Space),662154.8000000007,662152,660913.112,660921.6000000015,660929.778,662179.728,,4
check continue,flow.Sequence,3_0_4,2023-01-08T10:21:48.732Z,,sd,,,,,,,,95255.67200000002,,completion,,,,662155.2000000011,662152,566879.662,566908.9000000004,566896.328,662179.728,,4
deep,flow.Sequence,3_0_5_0_0_0,2023-01-08T10:21:48.755Z,,sdf,Stimmung,kinyongo,,kilekile,kisambo,madhehebu,,NaN,s,skipped,,,,662178.6000000015,662152,,662178.5,,662179.728,,5
Shallow Question,html.Page,3_0_5_0_0_1_0,2023-01-08T10:21:53.429Z,,,Stimmung,kinyongo,,kilekile,kisambo,madhehebu,,4671.771999999997,s,form submission,,kinyongo,,666852,666851.5,662163.062,662178.6000000015,662179.728,666864.066,,5
"""Richtig""-Screen",canvas.Screen,3_0_5_0_0_1_1,2023-01-08T10:21:58.426Z,,sdf,Stimmung,kinyongo,1,kilekile,kisambo,madhehebu,,4999.800000000047,s,timeout,,,,671849.7000000011,671847.2,666847.4,666855.3000000007,666864.066,671863.866,,5
"""Falsch""-Screen",canvas.Screen,3_0_5_0_0_1_2,2023-01-08T10:21:58.431Z,,sdf,Stimmung,kinyongo,,kilekile,kisambo,madhehebu,,NaN,s,skipped,,,,671854.5,671847.2,,671854.3000000007,,671863.866,,5
shallow,flow.Sequence,3_0_5_0_0_1,2023-01-08T10:21:58.431Z,,sdf,Stimmung,kinyongo,,kilekile,kisambo,madhehebu,,9667.47199999995,s,completion,,,,671854.6000000015,671847.2,662163.062,662178.6000000015,662179.728,671863.866,,5
task  ,flow.Sequence,3_0_5_0_0,2023-01-08T10:21:58.431Z,,sdf,Stimmung,kinyongo,,kilekile,kisambo,madhehebu,,9667.47199999995,s,completion,,,,671854.7000000011,671847.2,662163.062,662178.5,662179.728,671863.866,,5
Deep Question,html.Page,3_0_5_0_1_0_0,2023-01-08T10:22:04.278Z,,,Orientierung,urekebisho,,,,,,5837.034000000334,d,form submission,,urekebisho,,677701.2000000011,677700.9000000004,671847.2,671854.9000000004,671863.866,677714.154,,5
"""Richtig""-Screen",canvas.Screen,3_0_5_0_1_0_1,2023-01-08T10:22:09.275Z,,sdf,Orientierung,urekebisho,1,,,,,4999.800000000047,d,timeout,,,,682699.1000000015,682697.288,677697.488,677703.7000000011,677714.154,682713.954,,5
"""Falsch""-Screen",canvas.Screen,3_0_5_0_1_0_2,2023-01-08T10:22:09.279Z,,sdf,Orientierung,urekebisho,,,,,,NaN,d,skipped,,,,682703,682697.288,,682702.9000000004,,682713.954,,5
deep,flow.Sequence,3_0_5_0_1_0,2023-01-08T10:22:09.280Z,,sdf,Orientierung,urekebisho,,,,,,10833.421999999904,d,completion,,,,682703.2000000011,682697.288,671847.2,671854.9000000004,671863.866,682713.954,,5
shallow,flow.Sequence,3_0_5_0_1_1,2023-01-08T10:22:09.280Z,,sdf,Orientierung,urekebisho,,,,,,NaN,d,skipped,,,,682703.3000000007,682697.288,,682703.2000000011,,682713.954,,5
task  ,flow.Sequence,3_0_5_0_1,2023-01-08T10:22:09.280Z,,sdf,Orientierung,urekebisho,,,,,,10833.421999999904,d,completion,,,,682703.4000000004,682697.288,671847.2,671854.8000000007,671863.866,682713.954,,5
deep,flow.Sequence,3_0_5_0_2_0,2023-01-08T10:22:09.280Z,,sdf,Betrüger,mdanganyifu,,mwanamuziki,wastani,mahakama,,NaN,s,skipped,,,,682703.6000000015,682697.288,,682703.6000000015,,682713.954,,5
Shallow Question,html.Page,3_0_5_0_2_1_0,2023-01-08T10:22:14.195Z,,,Betrüger,mdanganyifu,,mwanamuziki,wastani,mahakama,,4904.545999999973,s,form submission,,mdanganyifu,,687619,687618.5,682697.288,682703.7000000011,682713.954,687631.002,,5
"""Richtig""-Screen",canvas.Screen,3_0_5_0_2_1_1,2023-01-08T10:22:19.193Z,,sdf,Betrüger,mdanganyifu,1,mwanamuziki,wastani,mahakama,,4999.800000000047,s,timeout,,,,692616.4000000004,692614.136,687614.336,687621.7000000011,687631.002,692630.802,,5
"""Falsch""-Screen",canvas.Screen,3_0_5_0_2_1_2,2023-01-08T10:22:19.198Z,,sdf,Betrüger,mdanganyifu,,mwanamuziki,wastani,mahakama,,NaN,s,skipped,,,,692621.3000000007,692614.136,,692621.1000000015,,692630.802,,5
shallow,flow.Sequence,3_0_5_0_2_1,2023-01-08T10:22:19.198Z,,sdf,Betrüger,mdanganyifu,,mwanamuziki,wastani,mahakama,,9900.18200000003,s,completion,,,,692621.4000000004,692614.136,682697.288,682703.6000000015,682713.954,692630.802,,5
task  ,flow.Sequence,3_0_5_0_2,2023-01-08T10:22:19.198Z,,sdf,Betrüger,mdanganyifu,,mwanamuziki,wastani,mahakama,,9900.18200000003,s,completion,,,,692621.5,692614.136,682697.288,682703.5,682713.954,692630.802,,5
Deep Question,html.Page,3_0_5_0_3_0_0,2023-01-08T10:22:24.394Z,,,Respekt,heshima,,,,,,5186.798000001465,d,form submission,,heshima,,697817.8000000007,697817.6000000015,692614.136,692621.6000000015,692630.802,697831.052,,5
"""Richtig""-Screen",canvas.Screen,3_0_5_0_3_0_1,2023-01-08T10:22:29.392Z,,sdf,Respekt,heshima,1,,,,,4999.79999999993,d,timeout,,,,702816.1000000015,702814.186,697814.386,697820.4000000004,697831.052,702830.852,,5
"""Falsch""-Screen",canvas.Screen,3_0_5_0_3_0_2,2023-01-08T10:22:29.397Z,,sdf,Respekt,heshima,,,,,,NaN,d,skipped,,,,702820.5,702814.186,,702820.3000000007,,702830.852,,5
deep,flow.Sequence,3_0_5_0_3_0,2023-01-08T10:22:29.397Z,,sdf,Respekt,heshima,,,,,,10183.383999999962,d,completion,,,,702820.7000000011,702814.186,692614.136,692621.6000000015,692630.802,702830.852,,5
shallow,flow.Sequence,3_0_5_0_3_1,2023-01-08T10:22:29.397Z,,sdf,Respekt,heshima,,,,,,NaN,d,skipped,,,,702820.9000000004,702814.186,,702820.8000000007,,702830.852,,5
task  ,flow.Sequence,3_0_5_0_3,2023-01-08T10:22:29.397Z,,sdf,Respekt,heshima,,,,,,10183.383999999962,d,completion,,,,702821,702814.186,692614.136,692621.5,692630.802,702830.852,,5
deep,flow.Sequence,3_0_5_0_4_0,2023-01-08T10:22:29.397Z,,sdf,Gefährdung,kuhatarisha,,uchokozi,udhaifu,makorowezo,,NaN,s,skipped,,,,702821.3000000007,702814.186,,702821.2000000011,,702830.852,,5
Shallow Question,html.Page,3_0_5_0_4_1_0,2023-01-08T10:22:38.813Z,,,Gefährdung,kuhatarisha,,uchokozi,udhaifu,makorowezo,,9404.848000001162,s,form submission,,kuhatarisha,,712236.5,712235.7000000011,702814.186,702821.4000000004,702830.852,712247.651,,5
"""Richtig""-Screen",canvas.Screen,3_0_5_0_4_1_1,2023-01-08T10:22:43.809Z,,sdf,Gefährdung,kuhatarisha,1,uchokozi,udhaifu,makorowezo,,4999.800000000047,s,timeout,,,,717232.8000000007,717230.785,712230.985,712239.4000000004,712247.651,717247.451,,5
"""Falsch""-Screen",canvas.Screen,3_0_5_0_4_1_2,2023-01-08T10:22:43.813Z,,sdf,Gefährdung,kuhatarisha,,uchokozi,udhaifu,makorowezo,,NaN,s,skipped,,,,717237,717230.785,,717236.8000000007,,717247.451,,5
shallow,flow.Sequence,3_0_5_0_4_1,2023-01-08T10:22:43.813Z,,sdf,Gefährdung,kuhatarisha,,uchokozi,udhaifu,makorowezo,,14399.933000000077,s,completion,,,,717237.1000000015,717230.785,702814.186,702821.3000000007,702830.852,717247.451,,5
task  ,flow.Sequence,3_0_5_0_4,2023-01-08T10:22:43.813Z,,sdf,Gefährdung,kuhatarisha,,uchokozi,udhaifu,makorowezo,,14399.933000000077,s,completion,,,,717237.2000000011,717230.785,702814.186,702821.1000000015,702830.852,717247.451,,5
Deep Question,html.Page,3_0_5_0_5_0_0,2023-01-08T10:23:01.777Z,,,Können,unaweza,,,,,,17953.64900000149,d,form submission,,udaweza,,735201.4000000004,735201.1000000015,717230.785,717237.4000000004,717247.451,735214.734,,5
"""Richtig""-Screen",canvas.Screen,3_0_5_0_5_0_1,2023-01-08T10:23:01.780Z,,sdf,Können,unaweza,,,,,,NaN,d,skipped,,,,735204.4000000004,735201.1000000015,,735204.3000000007,,735214.734,,5
"""Falsch""-Screen",canvas.Screen,3_0_5_0_5_0_2,2023-01-08T10:23:06.774Z,,sdf,Können,unaweza,0,,,,,4999.79999999993,d,timeout,,,,740198.8000000007,740197.868,735198.068,735205,735214.734,740214.534,,5
deep,flow.Sequence,3_0_5_0_5_0,2023-01-08T10:23:06.775Z,,sdf,Können,unaweza,,,,,,22950.417000000016,d,completion,,,,740199.3000000007,740197.868,717230.785,717237.4000000004,717247.451,740214.534,,5
shallow,flow.Sequence,3_0_5_0_5_1,2023-01-08T10:23:06.775Z,,sdf,Können,unaweza,,,,,,NaN,d,skipped,,,,740199.5,740197.868,,740199.4000000004,,740214.534,,5
task  ,flow.Sequence,3_0_5_0_5,2023-01-08T10:23:06.775Z,,sdf,Können,unaweza,,,,,,22950.417000000016,d,completion,,,,740199.7000000011,740197.868,717230.785,717237.3000000007,717247.451,740214.534,,5
deep,flow.Sequence,3_0_5_0_6_0,2023-01-08T10:23:06.776Z,,sdf,Kontrolle,kudhibiti,,mbinguni,kufunga,utegemezi,,NaN,s,skipped,,,,740200,740197.868,,740199.9000000004,,740214.534,,5
Shallow Question,html.Page,3_0_5_0_6_1_0,2023-01-08T10:23:14.412Z,,,Kontrolle,kudhibiti,,mbinguni,kufunga,utegemezi,,7621.566000001505,s,form submission,,kudhibiti,,747836.7000000011,747836.1000000015,740197.868,740200.2000000011,740214.534,747848.17,,5
"""Richtig""-Screen",canvas.Screen,3_0_5_0_6_1_1,2023-01-08T10:23:19.409Z,,sdf,Kontrolle,kudhibiti,1,mbinguni,kufunga,utegemezi,,4999.79999999993,s,timeout,,,,752833.8000000007,752831.304,747831.504,747840.4000000004,747848.17,752847.97,,5
"""Falsch""-Screen",canvas.Screen,3_0_5_0_6_1_2,2023-01-08T10:23:19.414Z,,sdf,Kontrolle,kudhibiti,,mbinguni,kufunga,utegemezi,,NaN,s,skipped,,,,752838.7000000011,752831.304,,752838.6000000015,,752847.97,,5
shallow,flow.Sequence,3_0_5_0_6_1,2023-01-08T10:23:19.414Z,,sdf,Kontrolle,kudhibiti,,mbinguni,kufunga,utegemezi,,12616.770000000019,s,completion,,,,752838.8000000007,752831.304,740197.868,740200.1000000015,740214.534,752847.97,,5
task  ,flow.Sequence,3_0_5_0_6,2023-01-08T10:23:19.414Z,,sdf,Kontrolle,kudhibiti,,mbinguni,kufunga,utegemezi,,12616.770000000019,s,completion,,,,752839,752831.304,740197.868,740199.9000000004,740214.534,752847.97,,5
Deep Question,html.Page,3_0_5_0_7_0_0,2023-01-08T10:23:26.994Z,,,Kreativität,ubunifu,,,,,,7570.030000000028,d,form submission,,udhaak,,760418.3000000007,760418,752831.304,752839.1000000015,752847.97,760431.686,,5
"""Richtig""-Screen",canvas.Screen,3_0_5_0_7_0_1,2023-01-08T10:23:26.996Z,,sdf,Kreativität,ubunifu,,,,,,NaN,d,skipped,,,,760421.1000000015,760418,,760421,,760431.686,,5
"""Falsch""-Screen",canvas.Screen,3_0_5_0_7_0_2,2023-01-08T10:23:31.992Z,,sdf,Kreativität,ubunifu,0,,,,,4999.800000000047,d,timeout,,,,765416.8000000007,765414.82,760415.02,760421.6000000015,760431.686,765431.486,,5
deep,flow.Sequence,3_0_5_0_7_0,2023-01-08T10:23:31.992Z,,sdf,Kreativität,ubunifu,,,,,,12566.849999999977,d,completion,,,,765417.1000000015,765414.82,752831.304,752839,752847.97,765431.486,,5
shallow,flow.Sequence,3_0_5_0_7_1,2023-01-08T10:23:31.993Z,,sdf,Kreativität,ubunifu,,,,,,NaN,d,skipped,,,,765417.2000000011,765414.82,,765417.2000000011,,765431.486,,5
task  ,flow.Sequence,3_0_5_0_7,2023-01-08T10:23:31.993Z,,sdf,Kreativität,ubunifu,,,,,,12566.849999999977,d,completion,,,,765417.4000000004,765414.82,752831.304,752839,752847.97,765431.486,,5
block,flow.Loop,3_0_5_0,2023-01-08T10:23:31.993Z,,sdf,,,,,,,,103235.09199999995,,completion,,,,765417.4000000004,765414.82,662163.062,662178.5,662179.728,765431.486,,5
weiter,canvas.Screen,3_0_5_1,2023-01-08T10:23:33.300Z,,sdf,,,,,,,,1289.6140000014566,,response,sdf,,keypress(Space),766724.4000000004,766721.1000000015,765414.82,765417.5,765431.486,766915.335,,5
check continue,flow.Sequence,3_0_5,2023-01-08T10:23:33.300Z,,sdf,,,,,,,,104541.37200000149,,completion,,,,766724.9000000004,766721.1000000015,662163.062,662178.5,662179.728,766915.335,,5
check continue,flow.Sequence,3_0_6,2023-01-08T10:23:33.326Z,,dfs,,,,,,,,NaN,,skipped,,,,766751.2000000011,766721.1000000015,,766751.1000000015,,766915.335,,6
check continue,flow.Sequence,3_0_7,2023-01-08T10:23:33.341Z,,df,,,,,,,,NaN,,skipped,,,,766765.7000000011,766721.1000000015,,766765.6000000015,,766915.335,,7
check continue,flow.Sequence,3_0_8,2023-01-08T10:23:33.353Z,,dfs,,,,,,,,NaN,,skipped,,,,766777.4000000004,766721.1000000015,,766777.3000000007,,766915.335,,8
check continue,flow.Sequence,3_0_9,2023-01-08T10:23:33.362Z,,dsf,,,,,,,,NaN,,skipped,,,,766786.9000000004,766721.1000000015,,766786.9000000004,,766915.335,,9
check continue,flow.Sequence,3_0_10,2023-01-08T10:23:33.371Z,,df,,,,,,,,NaN,,skipped,,,,766795.9000000004,766721.1000000015,,766795.9000000004,,766915.335,,10
check continue,flow.Sequence,3_0_11,2023-01-08T10:23:33.379Z,,dfs,,,,,,,,NaN,,skipped,,,,766803.8000000007,766721.1000000015,,766803.8000000007,,766915.335,,11
check continue,flow.Sequence,3_0_12,2023-01-08T10:23:33.387Z,,dsf,,,,,,,,NaN,,skipped,,,,766811.5,766721.1000000015,,766811.5,,766915.335,,12
check continue,flow.Sequence,3_0_13,2023-01-08T10:23:33.394Z,,dsf,,,,,,,,NaN,,skipped,,,,766818.4000000004,766721.1000000015,,766818.4000000004,,766915.335,,13
check continue,flow.Sequence,3_0_14,2023-01-08T10:23:33.401Z,,,,,,,,,,NaN,,skipped,,,,766825.4000000004,766721.1000000015,,766825.4000000004,,766915.335,,14
check continue,flow.Sequence,3_0_15,2023-01-08T10:23:33.407Z,,,,,,,,,,NaN,,skipped,,,,766831.9000000004,766721.1000000015,,766831.9000000004,,766915.335,,15
check continue,flow.Sequence,3_0_16,2023-01-08T10:23:33.414Z,,,,,,,,,,NaN,,skipped,,,,766838.3000000007,766721.1000000015,,766838.3000000007,,766915.335,,16
check continue,flow.Sequence,3_0_17,2023-01-08T10:23:33.421Z,,,,,,,,,,NaN,,skipped,,,,766845.5,766721.1000000015,,766845.5,,766915.335,,17
check continue,flow.Sequence,3_0_18,2023-01-08T10:23:33.427Z,,,,,,,,,,NaN,,skipped,,,,766851.6000000015,766721.1000000015,,766851.6000000015,,766915.335,,18
check continue,flow.Sequence,3_0_19,2023-01-08T10:23:33.433Z,,,,,,,,,,NaN,,skipped,,,,766857.9000000004,766721.1000000015,,766857.9000000004,,766915.335,,19
check continue,flow.Sequence,3_0_20,2023-01-08T10:23:33.440Z,,,,,,,,,,NaN,,skipped,,,,766864.3000000007,766721.1000000015,,766864.2000000011,,766915.335,,20
check continue,flow.Sequence,3_0_21,2023-01-08T10:23:33.446Z,,,,,,,,,,NaN,,skipped,,,,766870.6000000015,766721.1000000015,,766870.6000000015,,766915.335,,21
check continue,flow.Sequence,3_0_22,2023-01-08T10:23:33.452Z,,,,,,,,,,NaN,,skipped,,,,766876.5,766721.1000000015,,766876.5,,766915.335,,22
check continue,flow.Sequence,3_0_23,2023-01-08T10:23:33.458Z,,,,,,,,,,NaN,,skipped,,,,766882.9000000004,766721.1000000015,,766882.8000000007,,766915.335,,23
check continue,flow.Sequence,3_0_24,2023-01-08T10:23:33.464Z,,,,,,,,,,NaN,,skipped,,,,766888.8000000007,766721.1000000015,,766888.8000000007,,766915.335,,24
check continue,flow.Sequence,3_0_25,2023-01-08T10:23:33.471Z,,,,,,,,,,NaN,,skipped,,,,766895.8000000007,766721.1000000015,,766895.8000000007,,766915.335,,25
check continue,flow.Sequence,3_0_26,2023-01-08T10:23:33.477Z,,,,,,,,,,NaN,,skipped,,,,766902,766721.1000000015,,766902,,766915.335,,26
check continue,flow.Sequence,3_0_27,2023-01-08T10:23:33.484Z,,,,,,,,,,NaN,,skipped,,,,766908.4000000004,766721.1000000015,,766908.4000000004,,766915.335,,27
check continue,flow.Sequence,3_0_28,2023-01-08T10:23:33.490Z,,,,,,,,,,NaN,,skipped,,,,766914.2000000011,766721.1000000015,,766914.1000000015,,766915.335,,28
check continue,flow.Sequence,3_0_29,2023-01-08T10:23:33.501Z,,,,,,,,,,NaN,,skipped,,,,766925.9000000004,766721.1000000015,,766925.8000000007,,766915.335,,29
until continue,flow.Loop,3_0,2023-01-08T10:23:33.501Z,,,,,,,,,,581780.6840000015,,completion,,,,766926,766721.1000000015,184873.752,184935.40000000037,184940.416,766915.335,,
block 1,flow.Sequence,3,2023-01-08T10:23:33.501Z,,,,,,,,,,581780.6840000015,,completion,,,,766926,766721.1000000015,184873.752,184935.30000000075,184940.416,766915.335,,
1.Part Over,canvas.Screen,4,2023-01-08T10:23:35.887Z,,,,,,,,,,2393.1650000000373,,response,,,keypress(Space),769311.9000000004,769308.5,766715.343,766926,766915.335,769365.237,,
Deep Question,html.Page,5_0_0_0_0_0_0,2023-01-08T10:23:39.009Z,,,Papier,karatasi,,,,,,3067.7630000000354,d,form submission,,1,,772433.6000000015,772433,769348.571,769363.7000000011,769365.237,772448.447,,0
"""Richtig""-Screen",canvas.Screen,5_0_0_0_0_0_1,2023-01-08T10:23:39.010Z,,sdf,Papier,karatasi,,,,,,NaN,d,skipped,,,,772435.2000000011,772433,,772435.1000000015,,772448.447,,0
"""Falsch""-Screen",canvas.Screen,5_0_0_0_0_0_2,2023-01-08T10:23:44.009Z,,sdf,Papier,karatasi,0,,,,,4999.79999999993,d,timeout,,,,777434.3000000007,777431.581,772431.781,772435.9000000004,772448.447,777448.247,,0
deep,flow.Sequence,5_0_0_0_0_0,2023-01-08T10:23:44.010Z,,sdf,Papier,karatasi,,,,,,8066.344000000041,d,completion,,,,777434.9000000004,777431.581,769348.571,769363.7000000011,769365.237,777448.247,,0
shallow,flow.Sequence,5_0_0_0_0_1,2023-01-08T10:23:44.010Z,,sdf,Papier,karatasi,,,,,,NaN,d,skipped,,,,777435.1000000015,777431.581,,777435,,777448.247,,0
task  ,flow.Sequence,5_0_0_0_0,2023-01-08T10:23:44.010Z,,sdf,Papier,karatasi,,,,,,8066.344000000041,d,completion,,,,777435.4000000004,777431.581,769348.571,769363.7000000011,769365.237,777448.247,,0
deep,flow.Sequence,5_0_0_0_1_0,2023-01-08T10:23:44.011Z,,sdf,Vorwurf,mashtaka,,msukumo,mtangulizi,uenyekiti,,NaN,s,skipped,,,,777435.6000000015,777431.581,,777435.6000000015,,777448.247,,0
Shallow Question,html.Page,5_0_0_0_1_1_0,2023-01-08T10:23:48.379Z,,,Vorwurf,mashtaka,,msukumo,mtangulizi,uenyekiti,,4355.053000000771,s,form submission,,msukumo,,781803.8000000007,781803.3000000007,777431.581,777435.7000000011,777448.247,781815.34,,0
"""Richtig""-Screen",canvas.Screen,5_0_0_0_1_1_1,2023-01-08T10:23:48.383Z,,sdf,Vorwurf,mashtaka,,msukumo,mtangulizi,uenyekiti,,NaN,s,skipped,,,,781807.6000000015,781803.3000000007,,781807.4000000004,,781815.34,,0
"""Falsch""-Screen",canvas.Screen,5_0_0_0_1_1_2,2023-01-08T10:23:53.375Z,,sdf,Vorwurf,mashtaka,0,msukumo,mtangulizi,uenyekiti,,4999.800000000047,s,timeout,,,,786800.4000000004,786798.474,781798.674,781808.7000000011,781815.34,786815.14,,0
shallow,flow.Sequence,5_0_0_0_1_1,2023-01-08T10:23:53.376Z,,sdf,Vorwurf,mashtaka,,msukumo,mtangulizi,uenyekiti,,9350.227000000072,s,completion,,,,786801,786798.474,777431.581,777435.7000000011,777448.247,786815.14,,0
task  ,flow.Sequence,5_0_0_0_1,2023-01-08T10:23:53.376Z,,sdf,Vorwurf,mashtaka,,msukumo,mtangulizi,uenyekiti,,9350.227000000072,s,completion,,,,786801.2000000011,786798.474,777431.581,777435.4000000004,777448.247,786815.14,,0
Deep Question,html.Page,5_0_0_0_2_0_0,2023-01-08T10:23:56.608Z,,,Niveau,kiwango,,,,,,3217.359999999986,d,form submission,,1,,790033.1000000015,790032.5,786798.474,786801.5,786815.14,790032.212,,0
"""Richtig""-Screen",canvas.Screen,5_0_0_0_2_0_1,2023-01-08T10:23:56.611Z,,sdf,Niveau,kiwango,,,,,,NaN,d,skipped,,,,790036.1000000015,790032.5,,790035.9000000004,,790032.212,,0
"""Falsch""-Screen",canvas.Screen,5_0_0_0_2_0_2,2023-01-08T10:24:01.593Z,,sdf,Niveau,kiwango,0,,,,,4999.79999999993,d,timeout,,,,795018.1000000015,795015.346,790015.546,790036.7000000011,790032.212,795032.012,,0
deep,flow.Sequence,5_0_0_0_2_0,2023-01-08T10:24:01.594Z,,sdf,Niveau,kiwango,,,,,,8200.206000000006,d,completion,,,,795018.6000000015,795015.346,786798.474,786801.4000000004,786815.14,795032.012,,0
shallow,flow.Sequence,5_0_0_0_2_1,2023-01-08T10:24:01.594Z,,sdf,Niveau,kiwango,,,,,,NaN,d,skipped,,,,795018.9000000004,795015.346,,795018.8000000007,,795032.012,,0
task  ,flow.Sequence,5_0_0_0_2,2023-01-08T10:24:01.594Z,,sdf,Niveau,kiwango,,,,,,8200.206000000006,d,completion,,,,795019.2000000011,795015.346,786798.474,786801.4000000004,786815.14,795032.012,,0
Deep Question,html.Page,5_0_0_0_3_0_0,2023-01-08T10:24:03.919Z,,,Lawine,banguko,,,,,,2311.588000001502,d,form submission,,1,,797344.2000000011,797343.6000000015,795015.346,795019.4000000004,795032.012,797348.586,,0
"""Richtig""-Screen",canvas.Screen,5_0_0_0_3_0_1,2023-01-08T10:24:03.923Z,,sdf,Lawine,banguko,,,,,,NaN,d,skipped,,,,797348,797343.6000000015,,797347.8000000007,,797348.586,,0
"""Falsch""-Screen",canvas.Screen,5_0_0_0_3_0_2,2023-01-08T10:24:08.908Z,,sdf,Lawine,banguko,0,,,,,4999.800000000047,d,timeout,,,,802333.7000000011,802331.72,797331.92,797348.9000000004,797348.586,802348.386,,0
deep,flow.Sequence,5_0_0_0_3_0,2023-01-08T10:24:08.909Z,,sdf,Lawine,banguko,,,,,,7299.707999999984,d,completion,,,,802334.2000000011,802331.72,795015.346,795019.3000000007,795032.012,802348.386,,0
shallow,flow.Sequence,5_0_0_0_3_1,2023-01-08T10:24:08.909Z,,sdf,Lawine,banguko,,,,,,NaN,d,skipped,,,,802334.4000000004,802331.72,,802334.4000000004,,802348.386,,0
task  ,flow.Sequence,5_0_0_0_3,2023-01-08T10:24:08.909Z,,sdf,Lawine,banguko,,,,,,7299.707999999984,d,completion,,,,802334.7000000011,802331.72,795015.346,795019.2000000011,795032.012,802348.386,,0
deep,flow.Sequence,5_0_0_0_4_0,2023-01-08T10:24:08.910Z,,sdf,Körper,kiwiliwili,,mapambano,mpatanishi,kiolezo,,NaN,s,skipped,,,,802334.9000000004,802331.72,,802334.8000000007,,802348.386,,0
Shallow Question,html.Page,5_0_0_0_4_1_0,2023-01-08T10:24:15.179Z,,,Körper,kiwiliwili,,mapambano,mpatanishi,kiolezo,,6254.914000000688,s,form submission,,kiolezo,,808603.9000000004,808603.3000000007,802331.72,802335.1000000015,802348.386,808615.648,,0
"""Richtig""-Screen",canvas.Screen,5_0_0_0_4_1_1,2023-01-08T10:24:15.182Z,,sdf,Körper,kiwiliwili,,mapambano,mpatanishi,kiolezo,,NaN,s,skipped,,,,808607.4000000004,808603.3000000007,,808607.1000000015,,808615.648,,0
"""Falsch""-Screen",canvas.Screen,5_0_0_0_4_1_2,2023-01-08T10:24:20.175Z,,sdf,Körper,kiwiliwili,0,mapambano,mpatanishi,kiolezo,,4999.79999999993,s,timeout,,,,813600.3000000007,813598.782,808598.982,808608.6000000015,808615.648,813615.448,,0
shallow,flow.Sequence,5_0_0_0_4_1,2023-01-08T10:24:20.176Z,,sdf,Körper,kiwiliwili,,mapambano,mpatanishi,kiolezo,,11250.39599999995,s,completion,,,,813600.9000000004,813598.782,802331.72,802335.1000000015,802348.386,813615.448,,0
task  ,flow.Sequence,5_0_0_0_4,2023-01-08T10:24:20.176Z,,sdf,Körper,kiwiliwili,,mapambano,mpatanishi,kiolezo,,11250.39599999995,s,completion,,,,813601,813598.782,802331.72,802334.8000000007,802348.386,813615.448,,0
deep,flow.Sequence,5_0_0_0_5_0,2023-01-08T10:24:20.176Z,,sdf,Entwicklung,maendeleo,,uangavu,mshindwa,badiliko,,NaN,s,skipped,,,,813601.4000000004,813598.782,,813601.3000000007,,813615.448,,0
Shallow Question,html.Page,5_0_0_0_5_1_0,2023-01-08T10:24:26.412Z,,,Entwicklung,maendeleo,,uangavu,mshindwa,badiliko,,6221.552000000025,s,form submission,,uangavu,,819837.7000000011,819837,813598.782,813601.5,813615.448,819849.119,,0
"""Richtig""-Screen",canvas.Screen,5_0_0_0_5_1_1,2023-01-08T10:24:26.416Z,,sdf,Entwicklung,maendeleo,,uangavu,mshindwa,badiliko,,NaN,s,skipped,,,,819841.1000000015,819837,,819841,,819849.119,,0
"""Falsch""-Screen",canvas.Screen,5_0_0_0_5_1_2,2023-01-08T10:24:31.409Z,,sdf,Entwicklung,maendeleo,0,uangavu,mshindwa,badiliko,,4999.800000000047,s,timeout,,,,824834,824832.253,819832.453,819841.7000000011,819849.119,824848.919,,0
shallow,flow.Sequence,5_0_0_0_5_1,2023-01-08T10:24:31.409Z,,sdf,Entwicklung,maendeleo,,uangavu,mshindwa,badiliko,,11216.805000000051,s,completion,,,,824834.5,824832.253,813598.782,813601.5,813615.448,824848.919,,0
task  ,flow.Sequence,5_0_0_0_5,2023-01-08T10:24:31.409Z,,sdf,Entwicklung,maendeleo,,uangavu,mshindwa,badiliko,,11216.805000000051,s,completion,,,,824834.7000000011,824832.253,813598.782,813601.2000000011,813615.448,824848.919,,0
deep,flow.Sequence,5_0_0_0_6_0,2023-01-08T10:24:31.410Z,,sdf,Übersicht,kilindo,,mgusano,chipukizi,kulinganisha,,NaN,s,skipped,,,,824835.1000000015,824832.253,,824834.9000000004,,824848.919,,0
Shallow Question,html.Page,5_0_0_0_6_1_0,2023-01-08T10:24:34.795Z,,,Übersicht,kilindo,,mgusano,chipukizi,kulinganisha,,3371.0810000000056,s,form submission,,mgusano,,828220.5,828220,824832.253,824835.2000000011,824848.919,828232.698,,0
"""Richtig""-Screen",canvas.Screen,5_0_0_0_6_1_1,2023-01-08T10:24:34.798Z,,sdf,Übersicht,kilindo,,mgusano,chipukizi,kulinganisha,,NaN,s,skipped,,,,828223.5,828220,,828223.3000000007,,828232.698,,0
"""Falsch""-Screen",canvas.Screen,5_0_0_0_6_1_2,2023-01-08T10:24:39.793Z,,sdf,Übersicht,kilindo,0,mgusano,chipukizi,kulinganisha,,4999.800000000047,s,timeout,,,,833218.5,833215.832,828216.032,828224.6000000015,828232.698,833232.498,,0
shallow,flow.Sequence,5_0_0_0_6_1,2023-01-08T10:24:39.793Z,,sdf,Übersicht,kilindo,,mgusano,chipukizi,kulinganisha,,8366.913000000059,s,completion,,,,833218.9000000004,833215.832,824832.253,824835.2000000011,824848.919,833232.498,,0
task  ,flow.Sequence,5_0_0_0_6,2023-01-08T10:24:39.794Z,,sdf,Übersicht,kilindo,,mgusano,chipukizi,kulinganisha,,8366.913000000059,s,completion,,,,833219.2000000011,833215.832,824832.253,824834.8000000007,824848.919,833232.498,,0
Deep Question,html.Page,5_0_0_0_7_0_0,2023-01-08T10:24:42.308Z,,,System,maongozi,,,,,,2500.702000001096,d,form submission,,1,,835733.8000000007,835733.2000000011,833215.832,833219.4000000004,833232.498,835732.858,,0
"""Richtig""-Screen",canvas.Screen,5_0_0_0_7_0_1,2023-01-08T10:24:42.313Z,,sdf,System,maongozi,,,,,,NaN,d,skipped,,,,835738.7000000011,835733.2000000011,,835738.5,,835732.858,,0
"""Falsch""-Screen",canvas.Screen,5_0_0_0_7_0_2,2023-01-08T10:24:47.293Z,,sdf,System,maongozi,0,,,,,4999.800000000047,d,timeout,,,,840718.8000000007,840715.992,835716.192,835739.7000000011,835732.858,840732.658,,0
deep,flow.Sequence,5_0_0_0_7_0,2023-01-08T10:24:47.294Z,,sdf,System,maongozi,,,,,,7483.493999999948,d,completion,,,,840719.3000000007,840715.992,833215.832,833219.3000000007,833232.498,840732.658,,0
shallow,flow.Sequence,5_0_0_0_7_1,2023-01-08T10:24:47.294Z,,sdf,System,maongozi,,,,,,NaN,d,skipped,,,,840719.6000000015,840715.992,,840719.4000000004,,840732.658,,0
task  ,flow.Sequence,5_0_0_0_7,2023-01-08T10:24:47.294Z,,sdf,System,maongozi,,,,,,7483.493999999948,d,completion,,,,840719.8000000007,840715.992,833215.832,833219.3000000007,833232.498,840732.658,,0
block,flow.Loop,5_0_0_0,2023-01-08T10:24:47.294Z,,sdf,,,,,,,,71350.755,,completion,,,,840720,840715.992,769348.571,769363.7000000011,769365.237,840732.658,,0
weiter,canvas.Screen,5_0_0_1,2023-01-08T10:24:48.389Z,,sdf,,,,,,,,1076.7420000003185,,response,sdf,,keypress(Space),841814.6000000015,841809.4000000004,840715.992,840720.2000000011,840732.658,841849.28,,0
check continue,flow.Sequence,5_0_0,2023-01-08T10:24:48.389Z,,sdf,,,,,,,,72444.16300000041,,completion,,,,841814.9000000004,841809.4000000004,769348.571,769363.7000000011,769365.237,841849.28,,0
Deep Question,html.Page,5_0_1_0_0_0_0,2023-01-08T10:24:57.377Z,,,Lawine,banguko,,,,,,8953.620000000345,d,form submission,,banguko,,850803.2000000011,850802.9000000004,841832.614,841848.3000000007,841849.28,850816.181,,1
"""Richtig""-Screen",canvas.Screen,5_0_1_0_0_0_1,2023-01-08T10:25:02.375Z,,sdfdsf,Lawine,banguko,1,,,,,4999.800000000047,d,timeout,,,,855801.1000000015,855799.315,850799.515,850806,850816.181,855815.981,,1
"""Falsch""-Screen",canvas.Screen,5_0_1_0_0_0_2,2023-01-08T10:25:02.379Z,,sdfdsf,Lawine,banguko,,,,,,NaN,d,skipped,,,,855805.2000000011,855799.315,,855804.9000000004,,855815.981,,1
deep,flow.Sequence,5_0_1_0_0_0,2023-01-08T10:25:02.379Z,,sdfdsf,Lawine,banguko,,,,,,13950.034999999916,d,completion,,,,855805.3000000007,855799.315,841832.614,841848.3000000007,841849.28,855815.981,,1
shallow,flow.Sequence,5_0_1_0_0_1,2023-01-08T10:25:02.380Z,,sdfdsf,Lawine,banguko,,,,,,NaN,d,skipped,,,,855805.4000000004,855799.315,,855805.3000000007,,855815.981,,1
task  ,flow.Sequence,5_0_1_0_0,2023-01-08T10:25:02.380Z,,sdfdsf,Lawine,banguko,,,,,,13950.034999999916,d,completion,,,,855805.5,855799.315,841832.614,841848.3000000007,841849.28,855815.981,,1
deep,flow.Sequence,5_0_1_0_1_0,2023-01-08T10:25:02.380Z,,sdfdsf,Übersicht,kilindo,,mgusano,chipukizi,kulinganisha,,NaN,s,skipped,,,,855805.7000000011,855799.315,,855805.6000000015,,855815.981,,1
Shallow Question,html.Page,5_0_1_0_1_1_0,2023-01-08T10:25:09.529Z,,,Übersicht,kilindo,,mgusano,chipukizi,kulinganisha,,7138.719000001089,s,form submission,,kilindo,,862955.3000000007,862954.7000000011,855799.315,855805.8000000007,855815.981,862966.148,,1
"""Richtig""-Screen",canvas.Screen,5_0_1_0_1_1_1,2023-01-08T10:25:14.525Z,,sdfdsf,Übersicht,kilindo,1,mgusano,chipukizi,kulinganisha,,4999.79999999993,s,timeout,,,,867951.3000000007,867949.282,862949.482,862959.4000000004,862966.148,867965.948,,1
"""Falsch""-Screen",canvas.Screen,5_0_1_0_1_1_2,2023-01-08T10:25:14.531Z,,sdfdsf,Übersicht,kilindo,,mgusano,chipukizi,kulinganisha,,NaN,s,skipped,,,,867956.7000000011,867949.282,,867956.5,,867965.948,,1
shallow,flow.Sequence,5_0_1_0_1_1,2023-01-08T10:25:14.531Z,,sdfdsf,Übersicht,kilindo,,mgusano,chipukizi,kulinganisha,,12133.300999999978,s,completion,,,,867956.9000000004,867949.282,855799.315,855805.8000000007,855815.981,867965.948,,1
task  ,flow.Sequence,5_0_1_0_1,2023-01-08T10:25:14.531Z,,sdfdsf,Übersicht,kilindo,,mgusano,chipukizi,kulinganisha,,12133.300999999978,s,completion,,,,867957.1000000015,867949.282,855799.315,855805.6000000015,855815.981,867965.948,,1
Deep Question,html.Page,5_0_1_0_2_0_0,2023-01-08T10:25:17.727Z,,,System,maongozi,,,,,,3186.552000000025,d,form submission,,2,,871153,871152.5,867949.282,867957.2000000011,867965.948,871166.544,,1
"""Richtig""-Screen",canvas.Screen,5_0_1_0_2_0_1,2023-01-08T10:25:17.730Z,,sdfdsf,System,maongozi,,,,,,NaN,d,skipped,,,,871155.9000000004,871152.5,,871155.8000000007,,871166.544,,1
"""Falsch""-Screen",canvas.Screen,5_0_1_0_2_0_2,2023-01-08T10:25:22.725Z,,sdfdsf,System,maongozi,0,,,,,4999.800000000047,d,timeout,,,,876151.7000000011,876149.678,871149.878,871156.7000000011,871166.544,876166.344,,1
deep,flow.Sequence,5_0_1_0_2_0,2023-01-08T10:25:22.726Z,,sdfdsf,System,maongozi,,,,,,8183.729999999981,d,completion,,,,876152.1000000015,876149.678,867949.282,867957.1000000015,867965.948,876166.344,,1
shallow,flow.Sequence,5_0_1_0_2_1,2023-01-08T10:25:22.726Z,,sdfdsf,System,maongozi,,,,,,NaN,d,skipped,,,,876152.4000000004,876149.678,,876152.2000000011,,876166.344,,1
task  ,flow.Sequence,5_0_1_0_2,2023-01-08T10:25:22.726Z,,sdfdsf,System,maongozi,,,,,,8183.729999999981,d,completion,,,,876152.6000000015,876149.678,867949.282,867957.1000000015,867965.948,876166.344,,1
Deep Question,html.Page,5_0_1_0_3_0_0,2023-01-08T10:25:27.063Z,,,Papier,karatasi,,,,,,4322.256000001449,d,form submission,,1,,880489.2000000011,880488.6000000015,876149.678,876152.8000000007,876166.344,880500.039,,1
"""Richtig""-Screen",canvas.Screen,5_0_1_0_3_0_1,2023-01-08T10:25:27.067Z,,sdfdsf,Papier,karatasi,,,,,,NaN,d,skipped,,,,880493.3000000007,880488.6000000015,,880493.2000000011,,880500.039,,1
"""Falsch""-Screen",canvas.Screen,5_0_1_0_3_0_2,2023-01-08T10:25:32.059Z,,sdfdsf,Papier,karatasi,0,,,,,4999.800000000047,d,timeout,,,,885485.3000000007,885483.173,880483.373,880494.1000000015,880500.039,885499.839,,1
deep,flow.Sequence,5_0_1_0_3_0,2023-01-08T10:25:32.059Z,,sdfdsf,Papier,karatasi,,,,,,9316.82899999991,d,completion,,,,885485.6000000015,885483.173,876149.678,876152.8000000007,876166.344,885499.839,,1
shallow,flow.Sequence,5_0_1_0_3_1,2023-01-08T10:25:32.060Z,,sdfdsf,Papier,karatasi,,,,,,NaN,d,skipped,,,,885485.9000000004,885483.173,,885485.8000000007,,885499.839,,1
task  ,flow.Sequence,5_0_1_0_3,2023-01-08T10:25:32.060Z,,sdfdsf,Papier,karatasi,,,,,,9316.82899999991,d,completion,,,,885486.1000000015,885483.173,876149.678,876152.7000000011,876166.344,885499.839,,1
deep,flow.Sequence,5_0_1_0_4_0,2023-01-08T10:25:32.060Z,,sdfdsf,Körper,kiwiliwili,,mapambano,mpatanishi,kiolezo,,NaN,s,skipped,,,,885486.4000000004,885483.173,,885486.2000000011,,885499.839,,1
Shallow Question,html.Page,5_0_1_0_4_1_0,2023-01-08T10:25:36.712Z,,,Körper,kiwiliwili,,mapambano,mpatanishi,kiolezo,,4637.660999999964,s,form submission,,kiwiliwili,,890137.9000000004,890137.5,885483.173,885486.5,885499.839,890150.164,,1
"""Richtig""-Screen",canvas.Screen,5_0_1_0_4_1_1,2023-01-08T10:25:41.709Z,,sdfdsf,Körper,kiwiliwili,1,mapambano,mpatanishi,kiolezo,,4999.800000000047,s,timeout,,,,895135.8000000007,895133.298,890133.498,890141.2000000011,890150.164,895149.964,,1
"""Falsch""-Screen",canvas.Screen,5_0_1_0_4_1_2,2023-01-08T10:25:41.715Z,,sdfdsf,Körper,kiwiliwili,,mapambano,mpatanishi,kiolezo,,NaN,s,skipped,,,,895141,895133.298,,895140.9000000004,,895149.964,,1
shallow,flow.Sequence,5_0_1_0_4_1,2023-01-08T10:25:41.715Z,,sdfdsf,Körper,kiwiliwili,,mapambano,mpatanishi,kiolezo,,9633.458999999915,s,completion,,,,895141.3000000007,895133.298,885483.173,885486.5,885499.839,895149.964,,1
task  ,flow.Sequence,5_0_1_0_4,2023-01-08T10:25:41.715Z,,sdfdsf,Körper,kiwiliwili,,mapambano,mpatanishi,kiolezo,,9633.458999999915,s,completion,,,,895141.4000000004,895133.298,885483.173,885486.2000000011,885499.839,895149.964,,1
deep,flow.Sequence,5_0_1_0_5_0,2023-01-08T10:25:41.715Z,,sdfdsf,Entwicklung,maendeleo,,uangavu,mshindwa,badiliko,,NaN,s,skipped,,,,895141.7000000011,895133.298,,895141.6000000015,,895149.964,,1
Shallow Question,html.Page,5_0_1_0_5_1_0,2023-01-08T10:25:44.528Z,,,Entwicklung,maendeleo,,uangavu,mshindwa,badiliko,,2804.436000000336,s,form submission,,mshindwa,,897955,897954.4000000004,895133.298,895141.8000000007,895149.964,897966.518,,1
"""Richtig""-Screen",canvas.Screen,5_0_1_0_5_1_1,2023-01-08T10:25:44.530Z,,sdfdsf,Entwicklung,maendeleo,,uangavu,mshindwa,badiliko,,NaN,s,skipped,,,,897956.7000000011,897954.4000000004,,897956.6000000015,,897966.518,,1
"""Falsch""-Screen",canvas.Screen,5_0_1_0_5_1_2,2023-01-08T10:25:49.526Z,,sdfdsf,Entwicklung,maendeleo,0,uangavu,mshindwa,badiliko,,4999.79999999993,s,timeout,,,,902952.1000000015,902949.652,897949.852,897957.5,897966.518,902966.318,,1
shallow,flow.Sequence,5_0_1_0_5_1,2023-01-08T10:25:49.526Z,,sdfdsf,Entwicklung,maendeleo,,uangavu,mshindwa,badiliko,,7799.6879999999655,s,completion,,,,902952.6000000015,902949.652,895133.298,895141.7000000011,895149.964,902966.318,,1
task  ,flow.Sequence,5_0_1_0_5,2023-01-08T10:25:49.526Z,,sdfdsf,Entwicklung,maendeleo,,uangavu,mshindwa,badiliko,,7799.6879999999655,s,completion,,,,902952.9000000004,902949.652,895133.298,895141.5,895149.964,902966.318,,1
deep,flow.Sequence,5_0_1_0_6_0,2023-01-08T10:25:49.527Z,,sdfdsf,Vorwurf,mashtaka,,msukumo,mtangulizi,uenyekiti,,NaN,s,skipped,,,,902953.3000000007,902949.652,,902953.1000000015,,902966.318,,1
Shallow Question,html.Page,5_0_1_0_6_1_0,2023-01-08T10:25:59.996Z,,,Vorwurf,mashtaka,,msukumo,mtangulizi,uenyekiti,,10455.982000000775,s,form submission,,mashtaka,,913422.8000000007,913422.3000000007,902949.652,902953.4000000004,902966.318,913433.792,,1
"""Richtig""-Screen",canvas.Screen,5_0_1_0_6_1_1,2023-01-08T10:26:04.993Z,,sdfdsf,Vorwurf,mashtaka,1,msukumo,mtangulizi,uenyekiti,,4999.79999999993,s,timeout,,,,918419.4000000004,918416.926,913417.126,913426,913433.792,918433.592,,1
"""Falsch""-Screen",canvas.Screen,5_0_1_0_6_1_2,2023-01-08T10:26:04.997Z,,sdfdsf,Vorwurf,mashtaka,,msukumo,mtangulizi,uenyekiti,,NaN,s,skipped,,,,918423.6000000015,918416.926,,918423.5,,918433.592,,1
shallow,flow.Sequence,5_0_1_0_6_1,2023-01-08T10:26:04.997Z,,sdfdsf,Vorwurf,mashtaka,,msukumo,mtangulizi,uenyekiti,,15450.608000000007,s,completion,,,,918423.9000000004,918416.926,902949.652,902953.3000000007,902966.318,918433.592,,1
task  ,flow.Sequence,5_0_1_0_6,2023-01-08T10:26:04.997Z,,sdfdsf,Vorwurf,mashtaka,,msukumo,mtangulizi,uenyekiti,,15450.608000000007,s,completion,,,,918424,918416.926,902949.652,902953,902966.318,918433.592,,1
Deep Question,html.Page,5_0_1_0_7_0_0,2023-01-08T10:26:08.144Z,,,Niveau,kiwango,,,,,,3136.908000000054,d,form submission,,2,,921570.7000000011,921570.5,918416.926,918424.1000000015,918433.592,921583.466,,1
"""Richtig""-Screen",canvas.Screen,5_0_1_0_7_0_1,2023-01-08T10:26:08.147Z,,sdfdsf,Niveau,kiwango,,,,,,NaN,d,skipped,,,,921573.8000000007,921570.5,,921573.7000000011,,921583.466,,1
"""Falsch""-Screen",canvas.Screen,5_0_1_0_7_0_2,2023-01-08T10:26:13.142Z,,sdfdsf,Niveau,kiwango,0,,,,,4999.79999999993,d,timeout,,,,926568.9000000004,926566.6,921566.8,921574.4000000004,921583.466,926583.266,,1
deep,flow.Sequence,5_0_1_0_7_0,2023-01-08T10:26:13.143Z,,sdfdsf,Niveau,kiwango,,,,,,8133.008000000031,d,completion,,,,926569.4000000004,926566.6,918416.926,918424.1000000015,918433.592,926583.266,,1
shallow,flow.Sequence,5_0_1_0_7_1,2023-01-08T10:26:13.143Z,,sdfdsf,Niveau,kiwango,,,,,,NaN,d,skipped,,,,926569.7000000011,926566.6,,926569.5,,926583.266,,1
task  ,flow.Sequence,5_0_1_0_7,2023-01-08T10:26:13.143Z,,sdfdsf,Niveau,kiwango,,,,,,8133.008000000031,d,completion,,,,926569.9000000004,926566.6,918416.926,918424,918433.592,926583.266,,1
block,flow.Loop,5_0_1_0,2023-01-08T10:26:13.143Z,,sdfdsf,,,,,,,,84717.31999999995,,completion,,,,926570.1000000015,926566.6,841832.614,841848.3000000007,841849.28,926583.266,,1
