observation,sender,sender_type,sender_id,response,response_action,ended_on,duration,time_run,time_render,time_show,time_end,time_commit,timestamp,time_switch,german,swahili,enc,distractor1,distractor2,distractor3,response_2,x,correct,distractors,url_vp,url_sess,meta_labjs_version,meta_location,meta_user_agent,meta_platform,meta_language,meta_locale,meta_time_zone,meta_timezone_offset,meta_screen_width,meta_screen_height,meta_scroll_width,meta_scroll_height,meta_window_inner_width,meta_window_inner_height,meta_device_pixel_ratio,meta_labjs_build_flavor,meta_labjs_build_commit
3618c,Introduction delayed retrieval,canvas.Screen,0,weiter,keypress(Space),response,7674,556,560,597,8234,8229,2023-09-09T06:55:13Z,8268,NA,NA,NA,NA,NA,NA,NA,NA,NA,NULL,179,4,20.2.4,https://neurocog.fernuni.ch/studies/vweber/sliechti/delayed/index.html?vp=179&sess=4,"Mozilla/5.0 (Macintosh; Intel Mac OS X 10_15_7) AppleWebKit/605.1.15 (KHTML, like Gecko) Version/15.6.1 Safari/605.1.15",MacIntel,de,de,Europe/Zurich,-120,1440,900,1073,696,1073,744,2,production,f5b4a49f956347addd546a832a3327688c2c0fef
3618c,Deep Question,html.Page,1_0_0_0,NA,NA,form submission,3520,8229,8252,8268,11788,11788,2023-09-09T06:55:16Z,11818,Wettbewerb,ushindani,s,mapendezi,kichocheo,ubaguzi,sajh,NA,NA,NULL,NA,NA,NA,NA,NA,NA,NA,NA,NA,NA,NA,NA,NA,NA,NA,NA,NA,NA,NA
3618c,Save data screen,canvas.Screen,1_0_0_1,NA,NA,timeout,505,11789,11802,11818,12306,12306,2023-09-09T06:55:17Z,12323,Wettbewerb,ushindani,s,mapendezi,kichocheo,ubaguzi,NA,NA,0,NULL,NA,NA,NA,NA,NA,NA,NA,NA,NA,NA,NA,NA,NA,NA,NA,NA,NA,NA,NA
3618c,deep,flow.Sequence,1_0_0,NA,NA,completion,4038,8229,8252,8268,12306,12307,2023-09-09T06:55:17Z,12323,Wettbewerb,ushindani,s,mapendezi,kichocheo,ubaguzi,NA,NA,NA,NULL,NA,NA,NA,NA,NA,NA,NA,NA,NA,NA,NA,NA,NA,NA,NA,NA,NA,NA,NA
3618c,task,flow.Sequence,1_0,NA,NA,completion,4038,8229,8252,8268,12306,12307,2023-09-09T06:55:17Z,12323,Wettbewerb,ushindani,s,mapendezi,kichocheo,ubaguzi,NA,NA,NA,NULL,NA,NA,NA,NA,NA,NA,NA,NA,NA,NA,NA,NA,NA,NA,NA,NA,NA,NA,NA
3618c,Deep Question,html.Page,1_1_0_0,NA,NA,form submission,3834,12307,12306,12323,16157,16158,2023-09-09T06:55:21Z,16172,Konkurrent,mshindani,s,msemaji,mvutaji,kipukusa,kjsadh$,NA,NA,NULL,NA,NA,NA,NA,NA,NA,NA,NA,NA,NA,NA,NA,NA,NA,NA,NA,NA,NA,NA
3618c,Save data screen,canvas.Screen,1_1_0_1,NA,NA,timeout,501,16158,16160,16172,16656,16656,2023-09-09T06:55:21Z,16673,Konkurrent,mshindani,s,msemaji,mvutaji,kipukusa,NA,NA,0,NULL,NA,NA,NA,NA,NA,NA,NA,NA,NA,NA,NA,NA,NA,NA,NA,NA,NA,NA,NA
3618c,deep,flow.Sequence,1_1_0,NA,NA,completion,4333,12307,12306,12323,16656,16656,2023-09-09T06:55:21Z,16673,Konkurrent,mshindani,s,msemaji,mvutaji,kipukusa,NA,NA,NA,NULL,NA,NA,NA,NA,NA,NA,NA,NA,NA,NA,NA,NA,NA,NA,NA,NA,NA,NA,NA
3618c,task,flow.Sequence,1_1,NA,NA,completion,4333,12307,12306,12323,16656,16656,2023-09-09T06:55:21Z,16673,Konkurrent,mshindani,s,msemaji,mvutaji,kipukusa,NA,NA,NA,NULL,NA,NA,NA,NA,NA,NA,NA,NA,NA,NA,NA,NA,NA,NA,NA,NA,NA,NA,NA
3618c,Deep Question,html.Page,1_2_0_0,NA,NA,form submission,2532,16657,16656,16673,19205,19205,2023-09-09T06:55:24Z,19226,Verstand,ufahamivu,d,shakawa,hadhari,mhandisi,asdkh$,NA,NA,NULL,NA,NA,NA,NA,NA,NA,NA,NA,NA,NA,NA,NA,NA,NA,NA,NA,NA,NA,NA
3618c,Save data screen,canvas.Screen,1_2_0_1,NA,NA,timeout,500,19206,19209,19226,19709,19710,2023-09-09T06:55:24Z,19726,Verstand,ufahamivu,d,shakawa,hadhari,mhandisi,NA,NA,0,NULL,NA,NA,NA,NA,NA,NA,NA,NA,NA,NA,NA,NA,NA,NA,NA,NA,NA,NA,NA
3618c,deep,flow.Sequence,1_2_0,NA,NA,completion,3036,16657,16656,16673,19709,19710,2023-09-09T06:55:24Z,19726,Verstand,ufahamivu,d,shakawa,hadhari,mhandisi,NA,NA,NA,NULL,NA,NA,NA,NA,NA,NA,NA,NA,NA,NA,NA,NA,NA,NA,NA,NA,NA,NA,NA
3618c,task,flow.Sequence,1_2,NA,NA,completion,3036,16657,16656,16673,19709,19710,2023-09-09T06:55:24Z,19726,Verstand,ufahamivu,d,shakawa,hadhari,mhandisi,NA,NA,NA,NULL,NA,NA,NA,NA,NA,NA,NA,NA,NA,NA,NA,NA,NA,NA,NA,NA,NA,NA,NA
3618c,Deep Question,html.Page,1_3_0_0,NA,NA,form submission,1746,19711,19709,19726,21472,21472,2023-09-09T06:55:26Z,21509,Annäherung,maegesho,d,madahili,kujiamini,mapendekezo,askjdh,NA,NA,NULL,NA,NA,NA,NA,NA,NA,NA,NA,NA,NA,NA,NA,NA,NA,NA,NA,NA,NA,NA
3618c,Save data screen,canvas.Screen,1_3_0_1,NA,NA,timeout,505,21473,21493,21509,21996,21997,2023-09-09T06:55:27Z,22014,Annäherung,maegesho,d,madahili,kujiamini,mapendekezo,NA,NA,0,NULL,NA,NA,NA,NA,NA,NA,NA,NA,NA,NA,NA,NA,NA,NA,NA,NA,NA,NA,NA
3618c,deep,flow.Sequence,1_3_0,NA,NA,completion,2270,19711,19709,19726,21996,21998,2023-09-09T06:55:27Z,22014,Annäherung,maegesho,d,madahili,kujiamini,mapendekezo,NA,NA,NA,NULL,NA,NA,NA,NA,NA,NA,NA,NA,NA,NA,NA,NA,NA,NA,NA,NA,NA,NA,NA
3618c,task,flow.Sequence,1_3,NA,NA,completion,2270,19711,19709,19726,21996,21998,2023-09-09T06:55:27Z,22014,Annäherung,maegesho,d,madahili,kujiamini,mapendekezo,NA,NA,NA,NULL,NA,NA,NA,NA,NA,NA,NA,NA,NA,NA,NA,NA,NA,NA,NA,NA,NA,NA,NA
3618c,Deep Question,html.Page,1_4_0_0,NA,NA,form submission,1696,21998,21996,22014,23710,23710,2023-09-09T06:55:28Z,23729,Schönheit,kirembo,d,mahojiano,msisimko,jitihadi,skjd,NA,NA,NULL,NA,NA,NA,NA,NA,NA,NA,NA,NA,NA,NA,NA,NA,NA,NA,NA,NA,NA,NA
3618c,Save data screen,canvas.Screen,1_4_0_1,NA,NA,timeout,501,23711,23713,23729,24214,24214,2023-09-09T06:55:29Z,24230,Schönheit,kirembo,d,mahojiano,msisimko,jitihadi,NA,NA,0,NULL,NA,NA,NA,NA,NA,NA,NA,NA,NA,NA,NA,NA,NA,NA,NA,NA,NA,NA,NA
3618c,deep,flow.Sequence,1_4_0,NA,NA,completion,2200,21998,21996,22014,24214,24215,2023-09-09T06:55:29Z,24230,Schönheit,kirembo,d,mahojiano,msisimko,jitihadi,NA,NA,NA,NULL,NA,NA,NA,NA,NA,NA,NA,NA,NA,NA,NA,NA,NA,NA,NA,NA,NA,NA,NA
3618c,task,flow.Sequence,1_4,NA,NA,completion,2200,21998,21996,22014,24214,24215,2023-09-09T06:55:29Z,24230,Schönheit,kirembo,d,mahojiano,msisimko,jitihadi,NA,NA,NA,NULL,NA,NA,NA,NA,NA,NA,NA,NA,NA,NA,NA,NA,NA,NA,NA,NA,NA,NA,NA
3618c,Deep Question,html.Page,1_5_0_0,NA,NA,form submission,1983,24215,24214,24230,26213,26213,2023-09-09T06:55:31Z,26247,Auftrag,uagizaji,s,ghanima,kuzingatia,msukani,sjakdh,NA,NA,NULL,NA,NA,NA,NA,NA,NA,NA,NA,NA,NA,NA,NA,NA,NA,NA,NA,NA,NA,NA
3618c,Save data screen,canvas.Screen,1_5_0_1,NA,NA,timeout,500,26214,26230,26247,26730,26731,2023-09-09T06:55:31Z,26747,Auftrag,uagizaji,s,ghanima,kuzingatia,msukani,NA,NA,0,NULL,NA,NA,NA,NA,NA,NA,NA,NA,NA,NA,NA,NA,NA,NA,NA,NA,NA,NA,NA
3618c,deep,flow.Sequence,1_5_0,NA,NA,completion,2500,24215,24214,24230,26730,26731,2023-09-09T06:55:31Z,26747,Auftrag,uagizaji,s,ghanima,kuzingatia,msukani,NA,NA,NA,NULL,NA,NA,NA,NA,NA,NA,NA,NA,NA,NA,NA,NA,NA,NA,NA,NA,NA,NA,NA
3618c,task,flow.Sequence,1_5,NA,NA,completion,2500,24215,24214,24230,26730,26732,2023-09-09T06:55:31Z,26747,Auftrag,uagizaji,s,ghanima,kuzingatia,msukani,NA,NA,NA,NULL,NA,NA,NA,NA,NA,NA,NA,NA,NA,NA,NA,NA,NA,NA,NA,NA,NA,NA,NA
3618c,Deep Question,html.Page,1_6_0_0,NA,NA,form submission,1673,26732,26730,26747,28420,28420,2023-09-09T06:55:33Z,28450,Gelegenheit,wakati,s,mchanganyiko,kipaumbele,kushuku,idsh,NA,NA,NULL,NA,NA,NA,NA,NA,NA,NA,NA,NA,NA,NA,NA,NA,NA,NA,NA,NA,NA,NA
3618c,Save data screen,canvas.Screen,1_6_0_1,NA,NA,timeout,500,28421,28434,28450,28933,28934,2023-09-09T06:55:34Z,28950,Gelegenheit,wakati,s,mchanganyiko,kipaumbele,kushuku,NA,NA,0,NULL,NA,NA,NA,NA,NA,NA,NA,NA,NA,NA,NA,NA,NA,NA,NA,NA,NA,NA,NA
3618c,deep,flow.Sequence,1_6_0,NA,NA,completion,2186,26732,26730,26747,28933,28934,2023-09-09T06:55:34Z,28950,Gelegenheit,wakati,s,mchanganyiko,kipaumbele,kushuku,NA,NA,NA,NULL,NA,NA,NA,NA,NA,NA,NA,NA,NA,NA,NA,NA,NA,NA,NA,NA,NA,NA,NA
3618c,task,flow.Sequence,1_6,NA,NA,completion,2186,26732,26730,26747,28933,28934,2023-09-09T06:55:34Z,28950,Gelegenheit,wakati,s,mchanganyiko,kipaumbele,kushuku,NA,NA,NA,NULL,NA,NA,NA,NA,NA,NA,NA,NA,NA,NA,NA,NA,NA,NA,NA,NA,NA,NA,NA
3618c,Deep Question,html.Page,1_7_0_0,NA,NA,form submission,1628,28934,28933,28950,30578,30578,2023-09-09T06:55:35Z,30601,Vorsorge,tahadhari,s,ufafanuzi,makini,mashambani,jhsdg,NA,NA,NULL,NA,NA,NA,NA,NA,NA,NA,NA,NA,NA,NA,NA,NA,NA,NA,NA,NA,NA,NA
3618c,Save data screen,canvas.Screen,1_7_0_1,NA,NA,timeout,499,30579,30584,30601,31084,31084,2023-09-09T06:55:36Z,31100,Vorsorge,tahadhari,s,ufafanuzi,makini,mashambani,NA,NA,0,NULL,NA,NA,NA,NA,NA,NA,NA,NA,NA,NA,NA,NA,NA,NA,NA,NA,NA,NA,NA
3618c,deep,flow.Sequence,1_7_0,NA,NA,completion,2134,28934,28933,28950,31084,31085,2023-09-09T06:55:36Z,31100,Vorsorge,tahadhari,s,ufafanuzi,makini,mashambani,NA,NA,NA,NULL,NA,NA,NA,NA,NA,NA,NA,NA,NA,NA,NA,NA,NA,NA,NA,NA,NA,NA,NA
3618c,task,flow.Sequence,1_7,NA,NA,completion,2134,28934,28933,28950,31084,31085,2023-09-09T06:55:36Z,31100,Vorsorge,tahadhari,s,ufafanuzi,makini,mashambani,NA,NA,NA,NULL,NA,NA,NA,NA,NA,NA,NA,NA,NA,NA,NA,NA,NA,NA,NA,NA,NA,NA,NA
3618c,Deep Question,html.Page,1_8_0_0,NA,NA,form submission,1790,31085,31084,31100,32890,32890,2023-09-09T06:55:38Z,32919,Zuwachs,nyongeza,d,matilaba,udhibiti,hudhurio,sjdka,NA,NA,NULL,NA,NA,NA,NA,NA,NA,NA,NA,NA,NA,NA,NA,NA,NA,NA,NA,NA,NA,NA
3618c,Save data screen,canvas.Screen,1_8_0_1,NA,NA,timeout,500,32891,32903,32919,33403,33404,2023-09-09T06:55:38Z,33419,Zuwachs,nyongeza,d,matilaba,udhibiti,hudhurio,NA,NA,0,NULL,NA,NA,NA,NA,NA,NA,NA,NA,NA,NA,NA,NA,NA,NA,NA,NA,NA,NA,NA
3618c,deep,flow.Sequence,1_8_0,NA,NA,completion,2303,31085,31084,31100,33403,33404,2023-09-09T06:55:38Z,33419,Zuwachs,nyongeza,d,matilaba,udhibiti,hudhurio,NA,NA,NA,NULL,NA,NA,NA,NA,NA,NA,NA,NA,NA,NA,NA,NA,NA,NA,NA,NA,NA,NA,NA
3618c,task,flow.Sequence,1_8,NA,NA,completion,2303,31085,31084,31100,33403,33404,2023-09-09T06:55:38Z,33419,Zuwachs,nyongeza,d,matilaba,udhibiti,hudhurio,NA,NA,NA,NULL,NA,NA,NA,NA,NA,NA,NA,NA,NA,NA,NA,NA,NA,NA,NA,NA,NA,NA,NA
3618c,Deep Question,html.Page,1_9_0_0,NA,NA,form submission,1882,33404,33403,33419,35301,35301,2023-09-09T06:55:40Z,35319,Ausschluss,kutengwa,s,ununuzi,taratibu,madeni,jsdha,NA,NA,NULL,NA,NA,NA,NA,NA,NA,NA,NA,NA,NA,NA,NA,NA,NA,NA,NA,NA,NA,NA
3618c,Save data screen,canvas.Screen,1_9_0_1,NA,NA,timeout,500,35302,35303,35319,35803,35804,2023-09-09T06:55:40Z,35819,Ausschluss,kutengwa,s,ununuzi,taratibu,madeni,NA,NA,0,NULL,NA,NA,NA,NA,NA,NA,NA,NA,NA,NA,NA,NA,NA,NA,NA,NA,NA,NA,NA
3618c,deep,flow.Sequence,1_9_0,NA,NA,completion,2384,33404,33403,33419,35803,35804,2023-09-09T06:55:40Z,35819,Ausschluss,kutengwa,s,ununuzi,taratibu,madeni,NA,NA,NA,NULL,NA,NA,NA,NA,NA,NA,NA,NA,NA,NA,NA,NA,NA,NA,NA,NA,NA,NA,NA
3618c,task,flow.Sequence,1_9,NA,NA,completion,2384,33404,33403,33419,35803,35804,2023-09-09T06:55:40Z,35819,Ausschluss,kutengwa,s,ununuzi,taratibu,madeni,NA,NA,NA,NULL,NA,NA,NA,NA,NA,NA,NA,NA,NA,NA,NA,NA,NA,NA,NA,NA,NA,NA,NA
3618c,Deep Question,html.Page,1_10_0_0,NA,NA,form submission,2160,35804,35803,35819,37979,37980,2023-09-09T06:55:43Z,38006,Sympathie,mapendano,d,dhamiria,fungamano,maazimio,jhsad,NA,NA,NULL,NA,NA,NA,NA,NA,NA,NA,NA,NA,NA,NA,NA,NA,NA,NA,NA,NA,NA,NA
3618c,Save data screen,canvas.Screen,1_10_0_1,NA,NA,timeout,501,37980,37991,38006,38491,38491,2023-09-09T06:55:43Z,38507,Sympathie,mapendano,d,dhamiria,fungamano,maazimio,NA,NA,0,NULL,NA,NA,NA,NA,NA,NA,NA,NA,NA,NA,NA,NA,NA,NA,NA,NA,NA,NA,NA
3618c,deep,flow.Sequence,1_10_0,NA,NA,completion,2672,35804,35803,35819,38491,38492,2023-09-09T06:55:43Z,38507,Sympathie,mapendano,d,dhamiria,fungamano,maazimio,NA,NA,NA,NULL,NA,NA,NA,NA,NA,NA,NA,NA,NA,NA,NA,NA,NA,NA,NA,NA,NA,NA,NA
3618c,task,flow.Sequence,1_10,NA,NA,completion,2672,35804,35803,35819,38491,38492,2023-09-09T06:55:43Z,38507,Sympathie,mapendano,d,dhamiria,fungamano,maazimio,NA,NA,NA,NULL,NA,NA,NA,NA,NA,NA,NA,NA,NA,NA,NA,NA,NA,NA,NA,NA,NA,NA,NA
3618c,Deep Question,html.Page,1_11_0_0,NA,NA,form submission,2060,38492,38491,38507,40567,40567,2023-09-09T06:55:45Z,40606,Polizist,msongora,s,simanzi,mandhari,nidhamu,hjasdg,NA,NA,NULL,NA,NA,NA,NA,NA,NA,NA,NA,NA,NA,NA,NA,NA,NA,NA,NA,NA,NA,NA
3618c,Save data screen,canvas.Screen,1_11_0_1,NA,NA,timeout,501,40568,40590,40606,41091,41091,2023-09-09T06:55:46Z,41107,Polizist,msongora,s,simanzi,mandhari,nidhamu,NA,NA,0,NULL,NA,NA,NA,NA,NA,NA,NA,NA,NA,NA,NA,NA,NA,NA,NA,NA,NA,NA,NA
3618c,deep,flow.Sequence,1_11_0,NA,NA,completion,2584,38492,38491,38507,41091,41092,2023-09-09T06:55:46Z,41107,Polizist,msongora,s,simanzi,mandhari,nidhamu,NA,NA,NA,NULL,NA,NA,NA,NA,NA,NA,NA,NA,NA,NA,NA,NA,NA,NA,NA,NA,NA,NA,NA
3618c,task,flow.Sequence,1_11,NA,NA,completion,2584,38492,38491,38507,41091,41092,2023-09-09T06:55:46Z,41107,Polizist,msongora,s,simanzi,mandhari,nidhamu,NA,NA,NA,NULL,NA,NA,NA,NA,NA,NA,NA,NA,NA,NA,NA,NA,NA,NA,NA,NA,NA,NA,NA
3618c,Deep Question,html.Page,1_12_0_0,NA,NA,form submission,1900,41092,41091,41107,43007,43007,2023-09-09T06:55:48Z,43028,Zufall,kikuti,d,kukosekana,uchoraji,leseni,sjhd,NA,NA,NULL,NA,NA,NA,NA,NA,NA,NA,NA,NA,NA,NA,NA,NA,NA,NA,NA,NA,NA,NA
3618c,Save data screen,canvas.Screen,1_12_0_1,NA,NA,timeout,500,43008,43010,43028,43511,43512,2023-09-09T06:55:48Z,43528,Zufall,kikuti,d,kukosekana,uchoraji,leseni,NA,NA,0,NULL,NA,NA,NA,NA,NA,NA,NA,NA,NA,NA,NA,NA,NA,NA,NA,NA,NA,NA,NA
3618c,deep,flow.Sequence,1_12_0,NA,NA,completion,2404,41092,41091,41107,43511,43512,2023-09-09T06:55:48Z,43528,Zufall,kikuti,d,kukosekana,uchoraji,leseni,NA,NA,NA,NULL,NA,NA,NA,NA,NA,NA,NA,NA,NA,NA,NA,NA,NA,NA,NA,NA,NA,NA,NA
3618c,task,flow.Sequence,1_12,NA,NA,completion,2404,41092,41091,41107,43511,43512,2023-09-09T06:55:48Z,43528,Zufall,kikuti,d,kukosekana,uchoraji,leseni,NA,NA,NA,NULL,NA,NA,NA,NA,NA,NA,NA,NA,NA,NA,NA,NA,NA,NA,NA,NA,NA,NA,NA
3618c,Deep Question,html.Page,1_13_0_0,NA,NA,form submission,1971,43512,43511,43528,45499,45499,2023-09-09T06:55:50Z,45527,Beweis,ushahidi,s,marudio,kizuizi,mtendaji,jhasdg,NA,NA,NULL,NA,NA,NA,NA,NA,NA,NA,NA,NA,NA,NA,NA,NA,NA,NA,NA,NA,NA,NA
3618c,Save data screen,canvas.Screen,1_13_0_1,NA,NA,timeout,501,45500,45511,45527,46011,46012,2023-09-09T06:55:51Z,46028,Beweis,ushahidi,s,marudio,kizuizi,mtendaji,NA,NA,0,NULL,NA,NA,NA,NA,NA,NA,NA,NA,NA,NA,NA,NA,NA,NA,NA,NA,NA,NA,NA
3618c,deep,flow.Sequence,1_13_0,NA,NA,completion,2483,43512,43511,43528,46011,46012,2023-09-09T06:55:51Z,46028,Beweis,ushahidi,s,marudio,kizuizi,mtendaji,NA,NA,NA,NULL,NA,NA,NA,NA,NA,NA,NA,NA,NA,NA,NA,NA,NA,NA,NA,NA,NA,NA,NA
3618c,task,flow.Sequence,1_13,NA,NA,completion,2483,43512,43511,43528,46011,46012,2023-09-09T06:55:51Z,46028,Beweis,ushahidi,s,marudio,kizuizi,mtendaji,NA,NA,NA,NULL,NA,NA,NA,NA,NA,NA,NA,NA,NA,NA,NA,NA,NA,NA,NA,NA,NA,NA,NA
3618c,Deep Question,html.Page,1_14_0_0,NA,NA,form submission,1851,46012,46011,46028,47879,47879,2023-09-09T06:55:53Z,47897,Widerstand,usulubu,d,kusababisha,mwalimu,mwenendo,hjsd,NA,NA,NULL,NA,NA,NA,NA,NA,NA,NA,NA,NA,NA,NA,NA,NA,NA,NA,NA,NA,NA,NA
3618c,Save data screen,canvas.Screen,1_14_0_1,NA,NA,timeout,501,47879,47884,47897,48381,48382,2023-09-09T06:55:53Z,48398,Widerstand,usulubu,d,kusababisha,mwalimu,mwenendo,NA,NA,0,NULL,NA,NA,NA,NA,NA,NA,NA,NA,NA,NA,NA,NA,NA,NA,NA,NA,NA,NA,NA
3618c,deep,flow.Sequence,1_14_0,NA,NA,completion,2353,46012,46011,46028,48381,48382,2023-09-09T06:55:53Z,48398,Widerstand,usulubu,d,kusababisha,mwalimu,mwenendo,NA,NA,NA,NULL,NA,NA,NA,NA,NA,NA,NA,NA,NA,NA,NA,NA,NA,NA,NA,NA,NA,NA,NA
3618c,task,flow.Sequence,1_14,NA,NA,completion,2353,46012,46011,46028,48381,48382,2023-09-09T06:55:53Z,48398,Widerstand,usulubu,d,kusababisha,mwalimu,mwenendo,NA,NA,NA,NULL,NA,NA,NA,NA,NA,NA,NA,NA,NA,NA,NA,NA,NA,NA,NA,NA,NA,NA,NA
3618c,Deep Question,html.Page,1_15_0_0,NA,NA,form submission,1790,48382,48381,48398,50188,50188,2023-09-09T06:55:55Z,50231,Symbol,kielezo,d,kinyume,nderemo,utayari,hsjdbjh,NA,NA,NULL,NA,NA,NA,NA,NA,NA,NA,NA,NA,NA,NA,NA,NA,NA,NA,NA,NA,NA,NA
3618c,Save data screen,canvas.Screen,1_15_0_1,NA,NA,timeout,532,50189,50214,50231,50715,50715,2023-09-09T06:55:55Z,50763,Symbol,kielezo,d,kinyume,nderemo,utayari,NA,NA,0,NULL,NA,NA,NA,NA,NA,NA,NA,NA,NA,NA,NA,NA,NA,NA,NA,NA,NA,NA,NA
3618c,deep,flow.Sequence,1_15_0,NA,NA,completion,2317,48382,48381,48398,50715,50716,2023-09-09T06:55:55Z,50763,Symbol,kielezo,d,kinyume,nderemo,utayari,NA,NA,NA,NULL,NA,NA,NA,NA,NA,NA,NA,NA,NA,NA,NA,NA,NA,NA,NA,NA,NA,NA,NA
3618c,task,flow.Sequence,1_15,NA,NA,completion,2317,48382,48381,48398,50715,50716,2023-09-09T06:55:55Z,50763,Symbol,kielezo,d,kinyume,nderemo,utayari,NA,NA,NA,NULL,NA,NA,NA,NA,NA,NA,NA,NA,NA,NA,NA,NA,NA,NA,NA,NA,NA,NA,NA
3618c,retrieval block 1 (cued recall),flow.Loop,1,NA,NA,completion,42447,8229,8252,8268,50715,50716,2023-09-09T06:55:55Z,50763,NA,NA,NA,NA,NA,NA,NA,NA,NA,NULL,NA,NA,NA,NA,NA,NA,NA,NA,NA,NA,NA,NA,NA,NA,NA,NA,NA,NA,NA
3618c,Shallow Question,html.Page,2_0_0_0,NA,NA,form submission,8165,50716,50715,50763,58928,58928,2023-09-09T06:56:04Z,58955,Annäherung,maegesho,d,madahili,kujiamini,mapendekezo,maegesho,NA,NA,"c(""distractor1"", ""distractor2"", ""distractor3"")",NA,NA,NA,NA,NA,NA,NA,NA,NA,NA,NA,NA,NA,NA,NA,NA,NA,NA,NA
3618c,Save data screen,canvas.Screen,2_0_0_1,NA,NA,timeout,501,58929,58939,58955,59439,59440,2023-09-09T06:56:04Z,59456,Annäherung,maegesho,d,madahili,kujiamini,mapendekezo,NA,NA,1,"c(""distractor1"", ""distractor2"", ""distractor3"")",NA,NA,NA,NA,NA,NA,NA,NA,NA,NA,NA,NA,NA,NA,NA,NA,NA,NA,NA
3618c,shallow,flow.Sequence,2_0_0,NA,NA,completion,8676,50716,50715,50763,59439,59440,2023-09-09T06:56:04Z,59456,Annäherung,maegesho,d,madahili,kujiamini,mapendekezo,NA,NA,NA,"c(""distractor1"", ""distractor2"", ""distractor3"")",NA,NA,NA,NA,NA,NA,NA,NA,NA,NA,NA,NA,NA,NA,NA,NA,NA,NA,NA
3618c,task,flow.Sequence,2_0,NA,NA,completion,8676,50716,50715,50763,59439,59440,2023-09-09T06:56:04Z,59456,Annäherung,maegesho,d,madahili,kujiamini,mapendekezo,NA,NA,NA,"c(""distractor1"", ""distractor2"", ""distractor3"")",NA,NA,NA,NA,NA,NA,NA,NA,NA,NA,NA,NA,NA,NA,NA,NA,NA,NA,NA
3618c,Shallow Question,html.Page,2_1_0_0,NA,NA,form submission,5604,59441,59439,59456,65060,65061,2023-09-09T06:56:10Z,65087,Polizist,msongora,s,simanzi,mandhari,nidhamu,msongora,NA,NA,"c(""distractor1"", ""distractor2"", ""distractor3"")",NA,NA,NA,NA,NA,NA,NA,NA,NA,NA,NA,NA,NA,NA,NA,NA,NA,NA,NA
3618c,Save data screen,canvas.Screen,2_1_0_1,NA,NA,timeout,500,65061,65071,65087,65570,65570,2023-09-09T06:56:10Z,65587,Polizist,msongora,s,simanzi,mandhari,nidhamu,NA,NA,1,"c(""distractor1"", ""distractor2"", ""distractor3"")",NA,NA,NA,NA,NA,NA,NA,NA,NA,NA,NA,NA,NA,NA,NA,NA,NA,NA,NA
3618c,shallow,flow.Sequence,2_1_0,NA,NA,completion,6114,59441,59439,59456,65570,65571,2023-09-09T06:56:10Z,65587,Polizist,msongora,s,simanzi,mandhari,nidhamu,NA,NA,NA,"c(""distractor1"", ""distractor2"", ""distractor3"")",NA,NA,NA,NA,NA,NA,NA,NA,NA,NA,NA,NA,NA,NA,NA,NA,NA,NA,NA
3618c,task,flow.Sequence,2_1,NA,NA,completion,6114,59440,59439,59456,65570,65571,2023-09-09T06:56:10Z,65587,Polizist,msongora,s,simanzi,mandhari,nidhamu,NA,NA,NA,"c(""distractor1"", ""distractor2"", ""distractor3"")",NA,NA,NA,NA,NA,NA,NA,NA,NA,NA,NA,NA,NA,NA,NA,NA,NA,NA,NA
3618c,Shallow Question,html.Page,2_2_0_0,NA,NA,form submission,2653,65571,65570,65587,68240,68240,2023-09-09T06:56:13Z,68262,Konkurrent,mshindani,s,msemaji,mvutaji,kipukusa,mshindani,NA,NA,"c(""distractor1"", ""distractor2"", ""distractor3"")",NA,NA,NA,NA,NA,NA,NA,NA,NA,NA,NA,NA,NA,NA,NA,NA,NA,NA,NA
3618c,Save data screen,canvas.Screen,2_2_0_1,NA,NA,timeout,500,68241,68244,68262,68745,68745,2023-09-09T06:56:13Z,68762,Konkurrent,mshindani,s,msemaji,mvutaji,kipukusa,NA,NA,1,"c(""distractor1"", ""distractor2"", ""distractor3"")",NA,NA,NA,NA,NA,NA,NA,NA,NA,NA,NA,NA,NA,NA,NA,NA,NA,NA,NA
3618c,shallow,flow.Sequence,2_2_0,NA,NA,completion,3158,65571,65570,65587,68745,68746,2023-09-09T06:56:13Z,68762,Konkurrent,mshindani,s,msemaji,mvutaji,kipukusa,NA,NA,NA,"c(""distractor1"", ""distractor2"", ""distractor3"")",NA,NA,NA,NA,NA,NA,NA,NA,NA,NA,NA,NA,NA,NA,NA,NA,NA,NA,NA
3618c,task,flow.Sequence,2_2,NA,NA,completion,3158,65571,65570,65587,68745,68746,2023-09-09T06:56:13Z,68762,Konkurrent,mshindani,s,msemaji,mvutaji,kipukusa,NA,NA,NA,"c(""distractor1"", ""distractor2"", ""distractor3"")",NA,NA,NA,NA,NA,NA,NA,NA,NA,NA,NA,NA,NA,NA,NA,NA,NA,NA,NA
3618c,Shallow Question,html.Page,2_3_0_0,NA,NA,form submission,3805,68746,68745,68762,72567,72567,2023-09-09T06:56:17Z,72598,Gelegenheit,wakati,s,mchanganyiko,kipaumbele,kushuku,wakati,NA,NA,"c(""distractor1"", ""distractor2"", ""distractor3"")",NA,NA,NA,NA,NA,NA,NA,NA,NA,NA,NA,NA,NA,NA,NA,NA,NA,NA,NA
3618c,Save data screen,canvas.Screen,2_3_0_1,NA,NA,timeout,501,72568,72582,72598,73081,73082,2023-09-09T06:56:18Z,73099,Gelegenheit,wakati,s,mchanganyiko,kipaumbele,kushuku,NA,NA,1,"c(""distractor1"", ""distractor2"", ""distractor3"")",NA,NA,NA,NA,NA,NA,NA,NA,NA,NA,NA,NA,NA,NA,NA,NA,NA,NA,NA
3618c,shallow,flow.Sequence,2_3_0,NA,NA,completion,4319,68746,68745,68762,73081,73082,2023-09-09T06:56:18Z,73099,Gelegenheit,wakati,s,mchanganyiko,kipaumbele,kushuku,NA,NA,NA,"c(""distractor1"", ""distractor2"", ""distractor3"")",NA,NA,NA,NA,NA,NA,NA,NA,NA,NA,NA,NA,NA,NA,NA,NA,NA,NA,NA
3618c,task,flow.Sequence,2_3,NA,NA,completion,4319,68746,68745,68762,73081,73083,2023-09-09T06:56:18Z,73099,Gelegenheit,wakati,s,mchanganyiko,kipaumbele,kushuku,NA,NA,NA,"c(""distractor1"", ""distractor2"", ""distractor3"")",NA,NA,NA,NA,NA,NA,NA,NA,NA,NA,NA,NA,NA,NA,NA,NA,NA,NA,NA
3618c,Shallow Question,html.Page,2_4_0_0,NA,NA,form submission,4540,73083,73081,73099,77639,77639,2023-09-09T06:56:22Z,77657,Beweis,ushahidi,s,marudio,kizuizi,mtendaji,ushahidi,NA,NA,"c(""distractor1"", ""distractor2"", ""distractor3"")",NA,NA,NA,NA,NA,NA,NA,NA,NA,NA,NA,NA,NA,NA,NA,NA,NA,NA,NA
3618c,Save data screen,canvas.Screen,2_4_0_1,NA,NA,timeout,500,77639,77640,77657,78140,78141,2023-09-09T06:56:23Z,78157,Beweis,ushahidi,s,marudio,kizuizi,mtendaji,NA,NA,1,"c(""distractor1"", ""distractor2"", ""distractor3"")",NA,NA,NA,NA,NA,NA,NA,NA,NA,NA,NA,NA,NA,NA,NA,NA,NA,NA,NA
3618c,shallow,flow.Sequence,2_4_0,NA,NA,completion,5041,73083,73081,73099,78140,78141,2023-09-09T06:56:23Z,78157,Beweis,ushahidi,s,marudio,kizuizi,mtendaji,NA,NA,NA,"c(""distractor1"", ""distractor2"", ""distractor3"")",NA,NA,NA,NA,NA,NA,NA,NA,NA,NA,NA,NA,NA,NA,NA,NA,NA,NA,NA
3618c,task,flow.Sequence,2_4,NA,NA,completion,5041,73083,73081,73099,78140,78141,2023-09-09T06:56:23Z,78157,Beweis,ushahidi,s,marudio,kizuizi,mtendaji,NA,NA,NA,"c(""distractor1"", ""distractor2"", ""distractor3"")",NA,NA,NA,NA,NA,NA,NA,NA,NA,NA,NA,NA,NA,NA,NA,NA,NA,NA,NA
3618c,Shallow Question,html.Page,2_5_0_0,NA,NA,form submission,4082,78141,78140,78157,82239,82240,2023-09-09T06:56:27Z,82269,Vorsorge,tahadhari,s,ufafanuzi,makini,mashambani,ufafanuzi,NA,NA,"c(""distractor1"", ""distractor2"", ""distractor3"")",NA,NA,NA,NA,NA,NA,NA,NA,NA,NA,NA,NA,NA,NA,NA,NA,NA,NA,NA
3618c,Save data screen,canvas.Screen,2_5_0_1,NA,NA,timeout,500,82240,82252,82269,82752,82752,2023-09-09T06:56:27Z,82769,Vorsorge,tahadhari,s,ufafanuzi,makini,mashambani,NA,NA,0,"c(""distractor1"", ""distractor2"", ""distractor3"")",NA,NA,NA,NA,NA,NA,NA,NA,NA,NA,NA,NA,NA,NA,NA,NA,NA,NA,NA
3618c,shallow,flow.Sequence,2_5_0,NA,NA,completion,4595,78141,78140,78157,82752,82753,2023-09-09T06:56:27Z,82769,Vorsorge,tahadhari,s,ufafanuzi,makini,mashambani,NA,NA,NA,"c(""distractor1"", ""distractor2"", ""distractor3"")",NA,NA,NA,NA,NA,NA,NA,NA,NA,NA,NA,NA,NA,NA,NA,NA,NA,NA,NA
3618c,task,flow.Sequence,2_5,NA,NA,completion,4595,78141,78140,78157,82752,82753,2023-09-09T06:56:27Z,82769,Vorsorge,tahadhari,s,ufafanuzi,makini,mashambani,NA,NA,NA,"c(""distractor1"", ""distractor2"", ""distractor3"")",NA,NA,NA,NA,NA,NA,NA,NA,NA,NA,NA,NA,NA,NA,NA,NA,NA,NA,NA
3618c,Shallow Question,html.Page,2_6_0_0,NA,NA,form submission,3101,82753,82752,82769,85870,85870,2023-09-09T06:56:31Z,85902,Widerstand,usulubu,d,kusababisha,mwalimu,mwenendo,usulubu,NA,NA,"c(""distractor1"", ""distractor2"", ""distractor3"")",NA,NA,NA,NA,NA,NA,NA,NA,NA,NA,NA,NA,NA,NA,NA,NA,NA,NA,NA
3618c,Save data screen,canvas.Screen,2_6_0_1,NA,NA,timeout,500,85871,85885,85902,86385,86386,2023-09-09T06:56:31Z,86402,Widerstand,usulubu,d,kusababisha,mwalimu,mwenendo,NA,NA,1,"c(""distractor1"", ""distractor2"", ""distractor3"")",NA,NA,NA,NA,NA,NA,NA,NA,NA,NA,NA,NA,NA,NA,NA,NA,NA,NA,NA
3618c,shallow,flow.Sequence,2_6_0,NA,NA,completion,3616,82753,82752,82769,86385,86386,2023-09-09T06:56:31Z,86402,Widerstand,usulubu,d,kusababisha,mwalimu,mwenendo,NA,NA,NA,"c(""distractor1"", ""distractor2"", ""distractor3"")",NA,NA,NA,NA,NA,NA,NA,NA,NA,NA,NA,NA,NA,NA,NA,NA,NA,NA,NA
3618c,task,flow.Sequence,2_6,NA,NA,completion,3616,82753,82752,82769,86385,86387,2023-09-09T06:56:31Z,86402,Widerstand,usulubu,d,kusababisha,mwalimu,mwenendo,NA,NA,NA,"c(""distractor1"", ""distractor2"", ""distractor3"")",NA,NA,NA,NA,NA,NA,NA,NA,NA,NA,NA,NA,NA,NA,NA,NA,NA,NA,NA
3618c,Shallow Question,html.Page,2_7_0_0,NA,NA,form submission,3908,86387,86385,86402,90310,90310,2023-09-09T06:56:35Z,90338,Wettbewerb,ushindani,s,mapendezi,kichocheo,ubaguzi,ushindani,NA,NA,"c(""distractor1"", ""distractor2"", ""distractor3"")",NA,NA,NA,NA,NA,NA,NA,NA,NA,NA,NA,NA,NA,NA,NA,NA,NA,NA,NA
3618c,Save data screen,canvas.Screen,2_7_0_1,NA,NA,timeout,500,90311,90322,90338,90823,90826,2023-09-09T06:56:36Z,90838,Wettbewerb,ushindani,s,mapendezi,kichocheo,ubaguzi,NA,NA,1,"c(""distractor1"", ""distractor2"", ""distractor3"")",NA,NA,NA,NA,NA,NA,NA,NA,NA,NA,NA,NA,NA,NA,NA,NA,NA,NA,NA
3618c,shallow,flow.Sequence,2_7_0,NA,NA,completion,4421,86387,86385,86402,90823,90826,2023-09-09T06:56:36Z,90838,Wettbewerb,ushindani,s,mapendezi,kichocheo,ubaguzi,NA,NA,NA,"c(""distractor1"", ""distractor2"", ""distractor3"")",NA,NA,NA,NA,NA,NA,NA,NA,NA,NA,NA,NA,NA,NA,NA,NA,NA,NA,NA
3618c,task,flow.Sequence,2_7,NA,NA,completion,4421,86387,86385,86402,90823,90826,2023-09-09T06:56:36Z,90838,Wettbewerb,ushindani,s,mapendezi,kichocheo,ubaguzi,NA,NA,NA,"c(""distractor1"", ""distractor2"", ""distractor3"")",NA,NA,NA,NA,NA,NA,NA,NA,NA,NA,NA,NA,NA,NA,NA,NA,NA,NA,NA
3618c,Shallow Question,html.Page,2_8_0_0,NA,NA,form submission,13511,90826,90823,90838,104349,104349,2023-09-09T06:56:49Z,104368,Ausschluss,kutengwa,s,ununuzi,taratibu,madeni,kutengwa,NA,NA,"c(""distractor1"", ""distractor2"", ""distractor3"")",NA,NA,NA,NA,NA,NA,NA,NA,NA,NA,NA,NA,NA,NA,NA,NA,NA,NA,NA
3618c,Save data screen,canvas.Screen,2_8_0_1,NA,NA,timeout,500,104350,104351,104368,104851,104853,2023-09-09T06:56:50Z,104868,Ausschluss,kutengwa,s,ununuzi,taratibu,madeni,NA,NA,1,"c(""distractor1"", ""distractor2"", ""distractor3"")",NA,NA,NA,NA,NA,NA,NA,NA,NA,NA,NA,NA,NA,NA,NA,NA,NA,NA,NA
3618c,shallow,flow.Sequence,2_8_0,NA,NA,completion,14013,90826,90823,90838,104851,104854,2023-09-09T06:56:50Z,104868,Ausschluss,kutengwa,s,ununuzi,taratibu,madeni,NA,NA,NA,"c(""distractor1"", ""distractor2"", ""distractor3"")",NA,NA,NA,NA,NA,NA,NA,NA,NA,NA,NA,NA,NA,NA,NA,NA,NA,NA,NA
3618c,task,flow.Sequence,2_8,NA,NA,completion,14013,90826,90823,90838,104851,104854,2023-09-09T06:56:50Z,104868,Ausschluss,kutengwa,s,ununuzi,taratibu,madeni,NA,NA,NA,"c(""distractor1"", ""distractor2"", ""distractor3"")",NA,NA,NA,NA,NA,NA,NA,NA,NA,NA,NA,NA,NA,NA,NA,NA,NA,NA,NA
3618c,Shallow Question,html.Page,2_9_0_0,NA,NA,form submission,4769,104854,104851,104868,109637,109638,2023-09-09T06:56:54Z,109665,Sympathie,mapendano,d,dhamiria,fungamano,maazimio,mapendano,NA,NA,"c(""distractor1"", ""distractor2"", ""distractor3"")",NA,NA,NA,NA,NA,NA,NA,NA,NA,NA,NA,NA,NA,NA,NA,NA,NA,NA,NA
3618c,Save data screen,canvas.Screen,2_9_0_1,NA,NA,timeout,500,109639,109648,109665,110148,110148,2023-09-09T06:56:55Z,110165,Sympathie,mapendano,d,dhamiria,fungamano,maazimio,NA,NA,1,"c(""distractor1"", ""distractor2"", ""distractor3"")",NA,NA,NA,NA,NA,NA,NA,NA,NA,NA,NA,NA,NA,NA,NA,NA,NA,NA,NA
3618c,shallow,flow.Sequence,2_9_0,NA,NA,completion,5280,104854,104851,104868,110148,110149,2023-09-09T06:56:55Z,110165,Sympathie,mapendano,d,dhamiria,fungamano,maazimio,NA,NA,NA,"c(""distractor1"", ""distractor2"", ""distractor3"")",NA,NA,NA,NA,NA,NA,NA,NA,NA,NA,NA,NA,NA,NA,NA,NA,NA,NA,NA
3618c,task,flow.Sequence,2_9,NA,NA,completion,5280,104854,104851,104868,110148,110149,2023-09-09T06:56:55Z,110165,Sympathie,mapendano,d,dhamiria,fungamano,maazimio,NA,NA,NA,"c(""distractor1"", ""distractor2"", ""distractor3"")",NA,NA,NA,NA,NA,NA,NA,NA,NA,NA,NA,NA,NA,NA,NA,NA,NA,NA,NA
3618c,Shallow Question,html.Page,2_10_0_0,NA,NA,form submission,3383,110149,110148,110165,113548,113549,2023-09-09T06:56:58Z,113568,Zuwachs,nyongeza,d,matilaba,udhibiti,hudhurio,nyongeza,NA,NA,"c(""distractor1"", ""distractor2"", ""distractor3"")",NA,NA,NA,NA,NA,NA,NA,NA,NA,NA,NA,NA,NA,NA,NA,NA,NA,NA,NA
3618c,Save data screen,canvas.Screen,2_10_0_1,NA,NA,timeout,500,113549,113551,113568,114051,114052,2023-09-09T06:56:59Z,114068,Zuwachs,nyongeza,d,matilaba,udhibiti,hudhurio,NA,NA,1,"c(""distractor1"", ""distractor2"", ""distractor3"")",NA,NA,NA,NA,NA,NA,NA,NA,NA,NA,NA,NA,NA,NA,NA,NA,NA,NA,NA
3618c,shallow,flow.Sequence,2_10_0,NA,NA,completion,3886,110149,110148,110165,114051,114052,2023-09-09T06:56:59Z,114068,Zuwachs,nyongeza,d,matilaba,udhibiti,hudhurio,NA,NA,NA,"c(""distractor1"", ""distractor2"", ""distractor3"")",NA,NA,NA,NA,NA,NA,NA,NA,NA,NA,NA,NA,NA,NA,NA,NA,NA,NA,NA
3618c,task,flow.Sequence,2_10,NA,NA,completion,3886,110149,110148,110165,114051,114052,2023-09-09T06:56:59Z,114068,Zuwachs,nyongeza,d,matilaba,udhibiti,hudhurio,NA,NA,NA,"c(""distractor1"", ""distractor2"", ""distractor3"")",NA,NA,NA,NA,NA,NA,NA,NA,NA,NA,NA,NA,NA,NA,NA,NA,NA,NA,NA
3618c,Shallow Question,html.Page,2_11_0_0,NA,NA,form submission,3531,114052,114051,114068,117599,117599,2023-09-09T06:57:02Z,117621,Zufall,kikuti,d,kukosekana,uchoraji,leseni,kikuti,NA,NA,"c(""distractor1"", ""distractor2"", ""distractor3"")",NA,NA,NA,NA,NA,NA,NA,NA,NA,NA,NA,NA,NA,NA,NA,NA,NA,NA,NA
3618c,Save data screen,canvas.Screen,2_11_0_1,NA,NA,timeout,501,117600,117605,117621,118105,118106,2023-09-09T06:57:03Z,118122,Zufall,kikuti,d,kukosekana,uchoraji,leseni,NA,NA,1,"c(""distractor1"", ""distractor2"", ""distractor3"")",NA,NA,NA,NA,NA,NA,NA,NA,NA,NA,NA,NA,NA,NA,NA,NA,NA,NA,NA
3618c,shallow,flow.Sequence,2_11_0,NA,NA,completion,4037,114052,114051,114068,118105,118106,2023-09-09T06:57:03Z,118122,Zufall,kikuti,d,kukosekana,uchoraji,leseni,NA,NA,NA,"c(""distractor1"", ""distractor2"", ""distractor3"")",NA,NA,NA,NA,NA,NA,NA,NA,NA,NA,NA,NA,NA,NA,NA,NA,NA,NA,NA
3618c,task,flow.Sequence,2_11,NA,NA,completion,4037,114052,114051,114068,118105,118107,2023-09-09T06:57:03Z,118122,Zufall,kikuti,d,kukosekana,uchoraji,leseni,NA,NA,NA,"c(""distractor1"", ""distractor2"", ""distractor3"")",NA,NA,NA,NA,NA,NA,NA,NA,NA,NA,NA,NA,NA,NA,NA,NA,NA,NA,NA
3618c,Shallow Question,html.Page,2_12_0_0,NA,NA,form submission,5466,118107,118105,118122,123588,123588,2023-09-09T06:57:08Z,123609,Schönheit,kirembo,d,mahojiano,msisimko,jitihadi,kirembo,NA,NA,"c(""distractor1"", ""distractor2"", ""distractor3"")",NA,NA,NA,NA,NA,NA,NA,NA,NA,NA,NA,NA,NA,NA,NA,NA,NA,NA,NA
3618c,Save data screen,canvas.Screen,2_12_0_1,NA,NA,timeout,499,123589,123592,123609,124092,124092,2023-09-09T06:57:09Z,124108,Schönheit,kirembo,d,mahojiano,msisimko,jitihadi,NA,NA,1,"c(""distractor1"", ""distractor2"", ""distractor3"")",NA,NA,NA,NA,NA,NA,NA,NA,NA,NA,NA,NA,NA,NA,NA,NA,NA,NA,NA
3618c,shallow,flow.Sequence,2_12_0,NA,NA,completion,5970,118107,118105,118122,124092,124093,2023-09-09T06:57:09Z,124108,Schönheit,kirembo,d,mahojiano,msisimko,jitihadi,NA,NA,NA,"c(""distractor1"", ""distractor2"", ""distractor3"")",NA,NA,NA,NA,NA,NA,NA,NA,NA,NA,NA,NA,NA,NA,NA,NA,NA,NA,NA
3618c,task,flow.Sequence,2_12,NA,NA,completion,5970,118107,118105,118122,124092,124093,2023-09-09T06:57:09Z,124108,Schönheit,kirembo,d,mahojiano,msisimko,jitihadi,NA,NA,NA,"c(""distractor1"", ""distractor2"", ""distractor3"")",NA,NA,NA,NA,NA,NA,NA,NA,NA,NA,NA,NA,NA,NA,NA,NA,NA,NA,NA
3618c,Shallow Question,html.Page,2_13_0_0,NA,NA,form submission,2918,124093,124092,124108,127026,127026,2023-09-09T06:57:12Z,127046,Verstand,ufahamivu,d,shakawa,hadhari,mhandisi,ufahamivu,NA,NA,"c(""distractor1"", ""distractor2"", ""distractor3"")",NA,NA,NA,NA,NA,NA,NA,NA,NA,NA,NA,NA,NA,NA,NA,NA,NA,NA,NA
3618c,Save data screen,canvas.Screen,2_13_0_1,NA,NA,timeout,499,127027,127030,127046,127528,127529,2023-09-09T06:57:12Z,127545,Verstand,ufahamivu,d,shakawa,hadhari,mhandisi,NA,NA,1,"c(""distractor1"", ""distractor2"", ""distractor3"")",NA,NA,NA,NA,NA,NA,NA,NA,NA,NA,NA,NA,NA,NA,NA,NA,NA,NA,NA
3618c,shallow,flow.Sequence,2_13_0,NA,NA,completion,3420,124093,124092,124108,127528,127529,2023-09-09T06:57:12Z,127545,Verstand,ufahamivu,d,shakawa,hadhari,mhandisi,NA,NA,NA,"c(""distractor1"", ""distractor2"", ""distractor3"")",NA,NA,NA,NA,NA,NA,NA,NA,NA,NA,NA,NA,NA,NA,NA,NA,NA,NA,NA
3618c,task,flow.Sequence,2_13,NA,NA,completion,3420,124093,124092,124108,127528,127529,2023-09-09T06:57:12Z,127545,Verstand,ufahamivu,d,shakawa,hadhari,mhandisi,NA,NA,NA,"c(""distractor1"", ""distractor2"", ""distractor3"")",NA,NA,NA,NA,NA,NA,NA,NA,NA,NA,NA,NA,NA,NA,NA,NA,NA,NA,NA
3618c,Shallow Question,html.Page,2_14_0_0,NA,NA,form submission,6205,127529,127528,127545,133750,133750,2023-09-09T06:57:18Z,133766,Auftrag,uagizaji,s,ghanima,kuzingatia,msukani,uagizaji,NA,NA,"c(""distractor1"", ""distractor2"", ""distractor3"")",NA,NA,NA,NA,NA,NA,NA,NA,NA,NA,NA,NA,NA,NA,NA,NA,NA,NA,NA
3618c,Save data screen,canvas.Screen,2_14_0_1,NA,NA,timeout,500,133751,133753,133766,134249,134250,2023-09-09T06:57:19Z,134266,Auftrag,uagizaji,s,ghanima,kuzingatia,msukani,NA,NA,1,"c(""distractor1"", ""distractor2"", ""distractor3"")",NA,NA,NA,NA,NA,NA,NA,NA,NA,NA,NA,NA,NA,NA,NA,NA,NA,NA,NA
3618c,shallow,flow.Sequence,2_14_0,NA,NA,completion,6704,127529,127528,127545,134249,134250,2023-09-09T06:57:19Z,134266,Auftrag,uagizaji,s,ghanima,kuzingatia,msukani,NA,NA,NA,"c(""distractor1"", ""distractor2"", ""distractor3"")",NA,NA,NA,NA,NA,NA,NA,NA,NA,NA,NA,NA,NA,NA,NA,NA,NA,NA,NA
3618c,task,flow.Sequence,2_14,NA,NA,completion,6704,127529,127528,127545,134249,134250,2023-09-09T06:57:19Z,134266,Auftrag,uagizaji,s,ghanima,kuzingatia,msukani,NA,NA,NA,"c(""distractor1"", ""distractor2"", ""distractor3"")",NA,NA,NA,NA,NA,NA,NA,NA,NA,NA,NA,NA,NA,NA,NA,NA,NA,NA,NA
3618c,Shallow Question,html.Page,2_15_0_0,NA,NA,form submission,3010,134250,134249,134266,137276,137276,2023-09-09T06:57:22Z,137302,Symbol,kielezo,d,kinyume,nderemo,utayari,kielezo,NA,NA,"c(""distractor1"", ""distractor2"", ""distractor3"")",NA,NA,NA,NA,NA,NA,NA,NA,NA,NA,NA,NA,NA,NA,NA,NA,NA,NA,NA
3618c,Save data screen,canvas.Screen,2_15_0_1,NA,NA,timeout,501,137277,137286,137302,137786,137787,2023-09-09T06:57:22Z,137803,Symbol,kielezo,d,kinyume,nderemo,utayari,NA,NA,1,"c(""distractor1"", ""distractor2"", ""distractor3"")",NA,NA,NA,NA,NA,NA,NA,NA,NA,NA,NA,NA,NA,NA,NA,NA,NA,NA,NA
3618c,shallow,flow.Sequence,2_15_0,NA,NA,completion,3520,134250,134249,134266,137786,137787,2023-09-09T06:57:22Z,137803,Symbol,kielezo,d,kinyume,nderemo,utayari,NA,NA,NA,"c(""distractor1"", ""distractor2"", ""distractor3"")",NA,NA,NA,NA,NA,NA,NA,NA,NA,NA,NA,NA,NA,NA,NA,NA,NA,NA,NA
3618c,task,flow.Sequence,2_15,NA,NA,completion,3520,134250,134249,134266,137786,137788,2023-09-09T06:57:22Z,137803,Symbol,kielezo,d,kinyume,nderemo,utayari,NA,NA,NA,"c(""distractor1"", ""distractor2"", ""distractor3"")",NA,NA,NA,NA,NA,NA,NA,NA,NA,NA,NA,NA,NA,NA,NA,NA,NA,NA,NA
3618c,retrieval block 2 (multiple choice),flow.Loop,2,NA,NA,completion,87023,50716,50715,50763,137786,137788,2023-09-09T06:57:22Z,137803,NA,NA,NA,NA,NA,NA,NA,NA,NA,"c(""distractor1"", ""distractor2"", ""distractor3"")",NA,NA,NA,NA,NA,NA,NA,NA,NA,NA,NA,NA,NA,NA,NA,NA,NA,NA,NA
3618c,End,canvas.Screen,3,NA,keypress(Space),response,1478,137788,137786,137803,139264,139243,2023-09-09T06:57:24Z,139286,NA,NA,NA,NA,NA,NA,NA,NA,NA,NULL,NA,NA,NA,NA,NA,NA,NA,NA,NA,NA,NA,NA,NA,NA,NA,NA,NA,NA,NA
3618c,root,flow.Sequence,NA,NA,NA,completion,138667,555,560,597,139264,139243,2023-09-09T06:57:24Z,139286,NA,NA,NA,NA,NA,NA,NA,NA,NA,NULL,NA,NA,NA,NA,NA,NA,NA,NA,NA,NA,NA,NA,NA,NA,NA,NA,NA,NA,NA
