observation,sender,sender_type,sender_id,response,response_action,ended_on,duration,time_run,time_render,time_show,time_end,time_commit,timestamp,time_switch,distractors,german,swahili,enc,distractor1,distractor2,distractor3,response_2,x,correct,x_2,url_vp,url_sess,meta_labjs_version,meta_location,meta_user_agent,meta_platform,meta_language,meta_locale,meta_time_zone,meta_timezone_offset,meta_screen_width,meta_screen_height,meta_scroll_width,meta_scroll_height,meta_window_inner_width,meta_window_inner_height,meta_device_pixel_ratio,meta_labjs_build_flavor,meta_labjs_build_commit
96ef1,Introduction general,canvas.Screen,0,weiter,keypress(q),response,74047.7,6342.5,6169.6,6352.8,80400.5,80403.299999952,2024-04-24T12:52:52Z,80407.6,NULL,NA,NA,NA,NA,NA,NA,NA,NA,NA,NA,223,1,20.2.4,https://neurocog.fernuni.ch/studies/vweber/aberisha/encoding_immediate/index.html?vp=223&sess=1,"Mozilla/5.0 (Windows NT 10.0; Win64; x64) AppleWebKit/537.36 (KHTML, like Gecko) Chrome/124.0.0.0 Safari/537.36",Win32,de-DE,de,Europe/Zurich,-120,1536,864,1536,682,1536,730,1.25,production,f5b4a49f956347addd546a832a3327688c2c0fef
96ef1,Introduction practice,canvas.Screen,1_0,NA,keypress(Space),response,10108.9,80403.5,80393.426,80407.6,90516.5,90517.600000024,2024-04-24T12:53:02Z,90534.8,NULL,NA,NA,NA,NA,NA,NA,NA,NA,NA,NA,NA,NA,NA,NA,NA,NA,NA,NA,NA,NA,NA,NA,NA,NA,NA,NA,NA,NA,NA
96ef1,Deep Question,html.Page,1_1_0_0_0,NA,NA,form submission,14321.899999928,90518.100000024,90520.6,90534.8,104856.69999993,104857.10000002,2024-04-24T12:53:16Z,104859.3,"c(""distractor1"", ""distractor2"", ""distractor3"")",Schatten,kivuli,d,NA,NA,NA,hgu,NA,NA,NA,NA,NA,NA,NA,NA,NA,NA,NA,NA,NA,NA,NA,NA,NA,NA,NA,NA,NA,NA
96ef1,"""Richtig""-Screen",canvas.Screen,1_1_0_0_1,NA,NA,skipped,NA,104858.19999993,NA,NA,104856.69999993,104858.29999995,2024-04-24T12:53:16Z,104859.3,"c(""distractor1"", ""distractor2"", ""distractor3"")",Schatten,kivuli,d,NA,NA,NA,NA,NA,NA,NA,NA,NA,NA,NA,NA,NA,NA,NA,NA,NA,NA,NA,NA,NA,NA,NA,NA,NA,NA
96ef1,"""Falsch""-Screen",canvas.Screen,1_1_0_0_2,NA,NA,timeout,4996.9,104859,104845.186,104859.3,109839.6,109846.10000002,2024-04-24T12:53:21Z,109856.2,"c(""distractor1"", ""distractor2"", ""distractor3"")",Schatten,kivuli,d,NA,NA,NA,NA,NA,0,NA,NA,NA,NA,NA,NA,NA,NA,NA,NA,NA,NA,NA,NA,NA,NA,NA,NA,NA,NA
96ef1,deep,flow.Sequence,1_1_0_0,NA,NA,completion,19304.8,90518,90520.6,90534.8,109839.6,109846.60000002,2024-04-24T12:53:21Z,109856.2,"c(""distractor1"", ""distractor2"", ""distractor3"")",Schatten,kivuli,d,NA,NA,NA,NA,NA,NA,NA,NA,NA,NA,NA,NA,NA,NA,NA,NA,NA,NA,NA,NA,NA,NA,NA,NA,NA,NA
96ef1,shallow,flow.Sequence,1_1_0_1,NA,NA,skipped,NA,109846.79999995,NA,NA,109839.6,109846.89999998,2024-04-24T12:53:21Z,109856.2,"c(""distractor1"", ""distractor2"", ""distractor3"")",Schatten,kivuli,d,NA,NA,NA,NA,NA,NA,NA,NA,NA,NA,NA,NA,NA,NA,NA,NA,NA,NA,NA,NA,NA,NA,NA,NA,NA,NA
96ef1,task,flow.Sequence,1_1_0,NA,NA,completion,19304.8,90518,90520.6,90534.8,109839.6,109847.19999993,2024-04-24T12:53:21Z,109856.2,"c(""distractor1"", ""distractor2"", ""distractor3"")",Schatten,kivuli,d,NA,NA,NA,NA,NA,NA,NA,NA,NA,NA,NA,NA,NA,NA,NA,NA,NA,NA,NA,NA,NA,NA,NA,NA,NA,NA
96ef1,Deep Question,html.Page,1_1_1_0_0,NA,NA,form submission,14166.199999976,109847.29999995,109839.6,109856.2,124022.39999998,124022.79999995,2024-04-24T12:53:35Z,124030.9,"c(""distractor1"", ""distractor2"", ""distractor3"")",Gesundheit,salama,d,NA,NA,NA,gklfglk,NA,NA,NA,NA,NA,NA,NA,NA,NA,NA,NA,NA,NA,NA,NA,NA,NA,NA,NA,NA,NA,NA
96ef1,"""Richtig""-Screen",canvas.Screen,1_1_1_0_1,NA,NA,skipped,NA,124026.39999998,NA,NA,124022.39999998,124026.60000002,2024-04-24T12:53:35Z,124030.9,"c(""distractor1"", ""distractor2"", ""distractor3"")",Gesundheit,salama,d,NA,NA,NA,NA,NA,NA,NA,NA,NA,NA,NA,NA,NA,NA,NA,NA,NA,NA,NA,NA,NA,NA,NA,NA,NA,NA
96ef1,"""Falsch""-Screen",canvas.Screen,1_1_1_0_2,NA,NA,timeout,4997.3,124027.69999993,124014.914,124030.9,129011.5,129012.60000002,2024-04-24T12:53:40Z,129028.2,"c(""distractor1"", ""distractor2"", ""distractor3"")",Gesundheit,salama,d,NA,NA,NA,NA,NA,0,NA,NA,NA,NA,NA,NA,NA,NA,NA,NA,NA,NA,NA,NA,NA,NA,NA,NA,NA,NA
96ef1,deep,flow.Sequence,1_1_1_0,NA,NA,completion,19155.3,109847.29999995,109839.6,109856.2,129011.5,129013.10000002,2024-04-24T12:53:40Z,129028.2,"c(""distractor1"", ""distractor2"", ""distractor3"")",Gesundheit,salama,d,NA,NA,NA,NA,NA,NA,NA,NA,NA,NA,NA,NA,NA,NA,NA,NA,NA,NA,NA,NA,NA,NA,NA,NA,NA,NA
96ef1,shallow,flow.Sequence,1_1_1_1,NA,NA,skipped,NA,129013.19999993,NA,NA,129011.5,129013.39999998,2024-04-24T12:53:40Z,129028.2,"c(""distractor1"", ""distractor2"", ""distractor3"")",Gesundheit,salama,d,NA,NA,NA,NA,NA,NA,NA,NA,NA,NA,NA,NA,NA,NA,NA,NA,NA,NA,NA,NA,NA,NA,NA,NA,NA,NA
96ef1,task,flow.Sequence,1_1_1,NA,NA,completion,19155.3,109847.29999995,109839.6,109856.2,129011.5,129013.69999993,2024-04-24T12:53:40Z,129028.2,"c(""distractor1"", ""distractor2"", ""distractor3"")",Gesundheit,salama,d,NA,NA,NA,NA,NA,NA,NA,NA,NA,NA,NA,NA,NA,NA,NA,NA,NA,NA,NA,NA,NA,NA,NA,NA,NA,NA
96ef1,Deep Question,html.Page,1_1_2_0_0,NA,NA,form submission,9050.9000000238,129014,129011.5,129028.2,138079.10000002,138079.39999998,2024-04-24T12:53:49Z,138089,"c(""distractor1"", ""distractor2"", ""distractor3"")",Qualität,mtindo,d,NA,NA,NA,kfglksjf,NA,NA,NA,NA,NA,NA,NA,NA,NA,NA,NA,NA,NA,NA,NA,NA,NA,NA,NA,NA,NA,NA
96ef1,"""Richtig""-Screen",canvas.Screen,1_1_2_0_1,NA,NA,skipped,NA,138082.69999993,NA,NA,138079.10000002,138082.79999995,2024-04-24T12:53:49Z,138089,"c(""distractor1"", ""distractor2"", ""distractor3"")",Qualität,mtindo,d,NA,NA,NA,NA,NA,NA,NA,NA,NA,NA,NA,NA,NA,NA,NA,NA,NA,NA,NA,NA,NA,NA,NA,NA,NA,NA
96ef1,"""Falsch""-Screen",canvas.Screen,1_1_2_0_2,NA,NA,timeout,4997.4,138083.69999993,138073.242,138089,143069.5,143070.39999998,2024-04-24T12:53:54Z,143086.4,"c(""distractor1"", ""distractor2"", ""distractor3"")",Qualität,mtindo,d,NA,NA,NA,NA,NA,0,NA,NA,NA,NA,NA,NA,NA,NA,NA,NA,NA,NA,NA,NA,NA,NA,NA,NA,NA,NA
96ef1,deep,flow.Sequence,1_1_2_0,NA,NA,completion,14041.3,129014,129011.5,129028.2,143069.5,143070.79999995,2024-04-24T12:53:54Z,143086.4,"c(""distractor1"", ""distractor2"", ""distractor3"")",Qualität,mtindo,d,NA,NA,NA,NA,NA,NA,NA,NA,NA,NA,NA,NA,NA,NA,NA,NA,NA,NA,NA,NA,NA,NA,NA,NA,NA,NA
96ef1,shallow,flow.Sequence,1_1_2_1,NA,NA,skipped,NA,143071,NA,NA,143069.5,143071.10000002,2024-04-24T12:53:54Z,143086.4,"c(""distractor1"", ""distractor2"", ""distractor3"")",Qualität,mtindo,d,NA,NA,NA,NA,NA,NA,NA,NA,NA,NA,NA,NA,NA,NA,NA,NA,NA,NA,NA,NA,NA,NA,NA,NA,NA,NA
96ef1,task,flow.Sequence,1_1_2,NA,NA,completion,14041.3,129013.79999995,129011.5,129028.2,143069.5,143071.29999995,2024-04-24T12:53:54Z,143086.4,"c(""distractor1"", ""distractor2"", ""distractor3"")",Qualität,mtindo,d,NA,NA,NA,NA,NA,NA,NA,NA,NA,NA,NA,NA,NA,NA,NA,NA,NA,NA,NA,NA,NA,NA,NA,NA,NA,NA
96ef1,deep,flow.Sequence,1_1_3_0,NA,NA,skipped,NA,143071.5,NA,NA,143069.5,143071.69999993,2024-04-24T12:53:54Z,143086.4,"c(""distractor1"", ""distractor2"", ""distractor3"")",Rückhalt,msaada,s,muhula,auwali,kiwimbe,NA,NA,NA,NA,NA,NA,NA,NA,NA,NA,NA,NA,NA,NA,NA,NA,NA,NA,NA,NA,NA,NA,NA
96ef1,Shallow Question,html.Page,1_1_3_1_0,NA,NA,form submission,22292.1,143071.79999995,143069.5,143086.4,165378.5,165378.69999993,2024-04-24T12:54:17Z,165389.2,"c(""distractor1"", ""distractor2"", ""distractor3"")",Rückhalt,msaada,s,muhula,auwali,kiwimbe,muhula,NA,NA,NA,NA,NA,NA,NA,NA,NA,NA,NA,NA,NA,NA,NA,NA,NA,NA,NA,NA,NA,NA
96ef1,"""Richtig""-Screen",canvas.Screen,1_1_3_1_1,NA,NA,skipped,NA,165381.89999998,NA,NA,165378.5,165382,2024-04-24T12:54:17Z,165389.2,"c(""distractor1"", ""distractor2"", ""distractor3"")",Rückhalt,msaada,s,muhula,auwali,kiwimbe,NA,NA,NA,NA,NA,NA,NA,NA,NA,NA,NA,NA,NA,NA,NA,NA,NA,NA,NA,NA,NA,NA,NA
96ef1,"""Falsch""-Screen",canvas.Screen,1_1_3_1_2,NA,NA,timeout,4997,165382.79999995,165373.12,165389.2,170369.5,170370.39999998,2024-04-24T12:54:22Z,170386.2,"c(""distractor1"", ""distractor2"", ""distractor3"")",Rückhalt,msaada,s,muhula,auwali,kiwimbe,NA,NA,0,NA,NA,NA,NA,NA,NA,NA,NA,NA,NA,NA,NA,NA,NA,NA,NA,NA,NA,NA,NA
96ef1,shallow,flow.Sequence,1_1_3_1,NA,NA,completion,27283.1,143071.79999995,143069.5,143086.4,170369.5,170370.69999993,2024-04-24T12:54:22Z,170386.2,"c(""distractor1"", ""distractor2"", ""distractor3"")",Rückhalt,msaada,s,muhula,auwali,kiwimbe,NA,NA,NA,NA,NA,NA,NA,NA,NA,NA,NA,NA,NA,NA,NA,NA,NA,NA,NA,NA,NA,NA,NA
96ef1,task,flow.Sequence,1_1_3,NA,NA,completion,27283.1,143071.5,143069.5,143086.4,170369.5,170370.89999998,2024-04-24T12:54:22Z,170386.2,"c(""distractor1"", ""distractor2"", ""distractor3"")",Rückhalt,msaada,s,muhula,auwali,kiwimbe,NA,NA,NA,NA,NA,NA,NA,NA,NA,NA,NA,NA,NA,NA,NA,NA,NA,NA,NA,NA,NA,NA,NA
96ef1,deep,flow.Sequence,1_1_4_0,NA,NA,skipped,NA,170371.10000002,NA,NA,170369.5,170371.29999995,2024-04-24T12:54:22Z,170386.2,"c(""distractor1"", ""distractor2"", ""distractor3"")",Kritik,lawama,s,dereva,nafasi,mawazo,NA,NA,NA,NA,NA,NA,NA,NA,NA,NA,NA,NA,NA,NA,NA,NA,NA,NA,NA,NA,NA,NA,NA
96ef1,Shallow Question,html.Page,1_1_4_1_0,NA,NA,form submission,8238.0999999523,170371.39999998,170369.5,170386.2,178624.29999995,178624.5,2024-04-24T12:54:30Z,178631.742,"c(""distractor1"", ""distractor2"", ""distractor3"")",Kritik,lawama,s,dereva,nafasi,mawazo,mawazo,NA,NA,NA,NA,NA,NA,NA,NA,NA,NA,NA,NA,NA,NA,NA,NA,NA,NA,NA,NA,NA,NA
96ef1,"""Richtig""-Screen",canvas.Screen,1_1_4_1_1,NA,NA,skipped,NA,178627.5,NA,NA,178624.29999995,178627.69999993,2024-04-24T12:54:30Z,178631.742,"c(""distractor1"", ""distractor2"", ""distractor3"")",Kritik,lawama,s,dereva,nafasi,mawazo,NA,NA,NA,NA,NA,NA,NA,NA,NA,NA,NA,NA,NA,NA,NA,NA,NA,NA,NA,NA,NA,NA,NA
96ef1,"""Falsch""-Screen",canvas.Screen,1_1_4_1_2,NA,NA,timeout,4996.358,178628.5,178631.742,178631.742,183611.3,183613.29999995,2024-04-24T12:54:35Z,183628.1,"c(""distractor1"", ""distractor2"", ""distractor3"")",Kritik,lawama,s,dereva,nafasi,mawazo,NA,NA,0,NA,NA,NA,NA,NA,NA,NA,NA,NA,NA,NA,NA,NA,NA,NA,NA,NA,NA,NA,NA
96ef1,shallow,flow.Sequence,1_1_4_1,NA,NA,completion,13225.1,170371.39999998,170369.5,170386.2,183611.3,183613.60000002,2024-04-24T12:54:35Z,183628.1,"c(""distractor1"", ""distractor2"", ""distractor3"")",Kritik,lawama,s,dereva,nafasi,mawazo,NA,NA,NA,NA,NA,NA,NA,NA,NA,NA,NA,NA,NA,NA,NA,NA,NA,NA,NA,NA,NA,NA,NA
96ef1,task,flow.Sequence,1_1_4,NA,NA,completion,13225.1,170371,170369.5,170386.2,183611.3,183614,2024-04-24T12:54:35Z,183628.1,"c(""distractor1"", ""distractor2"", ""distractor3"")",Kritik,lawama,s,dereva,nafasi,mawazo,NA,NA,NA,NA,NA,NA,NA,NA,NA,NA,NA,NA,NA,NA,NA,NA,NA,NA,NA,NA,NA,NA,NA
96ef1,deep,flow.Sequence,1_1_5_0,NA,NA,skipped,NA,183614.19999993,NA,NA,183611.3,183614.29999995,2024-04-24T12:54:35Z,183628.1,"c(""distractor1"", ""distractor2"", ""distractor3"")",Gegenwart,hadhara,s,katiba,jokofu,mikopo,NA,NA,NA,NA,NA,NA,NA,NA,NA,NA,NA,NA,NA,NA,NA,NA,NA,NA,NA,NA,NA,NA,NA
96ef1,Shallow Question,html.Page,1_1_5_1_0,NA,NA,form submission,7431.9,183614.5,183611.3,183628.1,191060,191060.29999995,2024-04-24T12:54:42Z,191089.9,"c(""distractor1"", ""distractor2"", ""distractor3"")",Gegenwart,hadhara,s,katiba,jokofu,mikopo,mikopo,NA,NA,NA,NA,NA,NA,NA,NA,NA,NA,NA,NA,NA,NA,NA,NA,NA,NA,NA,NA,NA,NA
96ef1,"""Richtig""-Screen",canvas.Screen,1_1_5_1_1,NA,NA,skipped,NA,191063.39999998,NA,NA,191060,191063.5,2024-04-24T12:54:42Z,191089.9,"c(""distractor1"", ""distractor2"", ""distractor3"")",Gegenwart,hadhara,s,katiba,jokofu,mikopo,NA,NA,NA,NA,NA,NA,NA,NA,NA,NA,NA,NA,NA,NA,NA,NA,NA,NA,NA,NA,NA,NA,NA
96ef1,"""Falsch""-Screen",canvas.Screen,1_1_5_1_2,NA,NA,timeout,4997.5,191064.29999995,191074.014,191089.9,196070.6,196071.5,2024-04-24T12:54:47Z,196087.4,"c(""distractor1"", ""distractor2"", ""distractor3"")",Gegenwart,hadhara,s,katiba,jokofu,mikopo,NA,NA,0,NA,NA,NA,NA,NA,NA,NA,NA,NA,NA,NA,NA,NA,NA,NA,NA,NA,NA,NA,NA
96ef1,shallow,flow.Sequence,1_1_5_1,NA,NA,completion,12442.5,183614.5,183611.3,183628.1,196070.6,196071.79999995,2024-04-24T12:54:47Z,196087.4,"c(""distractor1"", ""distractor2"", ""distractor3"")",Gegenwart,hadhara,s,katiba,jokofu,mikopo,NA,NA,NA,NA,NA,NA,NA,NA,NA,NA,NA,NA,NA,NA,NA,NA,NA,NA,NA,NA,NA,NA,NA
96ef1,task,flow.Sequence,1_1_5,NA,NA,completion,12442.5,183614.19999993,183611.3,183628.1,196070.6,196072,2024-04-24T12:54:47Z,196087.4,"c(""distractor1"", ""distractor2"", ""distractor3"")",Gegenwart,hadhara,s,katiba,jokofu,mikopo,NA,NA,NA,NA,NA,NA,NA,NA,NA,NA,NA,NA,NA,NA,NA,NA,NA,NA,NA,NA,NA,NA,NA
96ef1,block,flow.Loop,1_1,NA,NA,completion,105535.8,90517.899999976,90520.6,90534.8,196070.6,196072.29999995,2024-04-24T12:54:47Z,196087.4,"c(""distractor1"", ""distractor2"", ""distractor3"")",NA,NA,NA,NA,NA,NA,NA,NA,NA,NA,NA,NA,NA,NA,NA,NA,NA,NA,NA,NA,NA,NA,NA,NA,NA,NA,NA,NA,NA
96ef1,Practice,flow.Sequence,1,NA,NA,completion,115663,80403.5,80393.426,80407.6,196070.6,196072.60000002,2024-04-24T12:54:47Z,196087.4,NULL,NA,NA,NA,NA,NA,NA,NA,NA,NA,NA,NA,NA,NA,NA,NA,NA,NA,NA,NA,NA,NA,NA,NA,NA,NA,NA,NA,NA,NA
96ef1,Experiment start,canvas.Screen,2,weiter,keypress(q),response,35263.700000024,196072.69999993,196070.6,196087.4,231351.10000002,231352.10000002,2024-04-24T12:55:23Z,231400.352,NULL,NA,NA,NA,NA,NA,NA,NA,NA,NA,NA,NA,NA,NA,NA,NA,NA,NA,NA,NA,NA,NA,NA,NA,NA,NA,NA,NA,NA,NA
96ef1,Deep Question,html.Page,3_0_0_0_0_0_0,NA,NA,form submission,9278.148,231410.5,231400.352,231400.352,240678.5,240678.79999995,2024-04-24T12:55:32Z,240709.9,NULL,Zufall,kikuti,d,NA,NA,NA,hfjkd,NA,NA,0,NA,NA,NA,NA,NA,NA,NA,NA,NA,NA,NA,NA,NA,NA,NA,NA,NA,NA,NA
96ef1,"""Richtig""-Screen",canvas.Screen,3_0_0_0_0_0_1,NA,NA,skipped,NA,240681.89999998,NA,NA,240678.5,240682.10000002,2024-04-24T12:55:32Z,240709.9,NULL,Zufall,kikuti,d,NA,NA,NA,NA,sdf,NA,0,NA,NA,NA,NA,NA,NA,NA,NA,NA,NA,NA,NA,NA,NA,NA,NA,NA,NA,NA
96ef1,"""Falsch""-Screen",canvas.Screen,3_0_0_0_0_0_2,NA,NA,timeout,4997.3,240682.89999998,240693.06,240709.9,245690,245691,2024-04-24T12:55:37Z,245707.2,NULL,Zufall,kikuti,d,NA,NA,NA,NA,sdf,0,0,NA,NA,NA,NA,NA,NA,NA,NA,NA,NA,NA,NA,NA,NA,NA,NA,NA,NA,NA
96ef1,deep,flow.Sequence,3_0_0_0_0_0,NA,NA,completion,14289.648,231410.5,231400.352,231400.352,245690,245691.39999998,2024-04-24T12:55:37Z,245707.2,NULL,Zufall,kikuti,d,NA,NA,NA,NA,sdf,NA,0,NA,NA,NA,NA,NA,NA,NA,NA,NA,NA,NA,NA,NA,NA,NA,NA,NA,NA,NA
96ef1,shallow,flow.Sequence,3_0_0_0_0_1,NA,NA,skipped,NA,245691.5,NA,NA,245690,245691.69999993,2024-04-24T12:55:37Z,245707.2,NULL,Zufall,kikuti,d,NA,NA,NA,NA,sdf,NA,0,NA,NA,NA,NA,NA,NA,NA,NA,NA,NA,NA,NA,NA,NA,NA,NA,NA,NA,NA
96ef1,task,flow.Sequence,3_0_0_0_0,NA,NA,completion,14289.648,231410.5,231400.352,231400.352,245690,245691.89999998,2024-04-24T12:55:37Z,245707.2,NULL,Zufall,kikuti,d,NA,NA,NA,NA,sdf,NA,0,NA,NA,NA,NA,NA,NA,NA,NA,NA,NA,NA,NA,NA,NA,NA,NA,NA,NA,NA
96ef1,deep,flow.Sequence,3_0_0_0_1_0,NA,NA,skipped,NA,245692,NA,NA,245690,245692.10000002,2024-04-24T12:55:37Z,245707.2,NULL,Sänger,mwimbaji,s,msichana,shughuli,mshirika,NA,sdf,NA,0,NA,NA,NA,NA,NA,NA,NA,NA,NA,NA,NA,NA,NA,NA,NA,NA,NA,NA,NA
96ef1,Shallow Question,html.Page,3_0_0_0_1_1_0,NA,NA,form submission,12759.3,245692.29999995,245690,245707.2,258466.5,258466.79999995,2024-04-24T12:55:50Z,258482.5,NULL,Sänger,mwimbaji,s,msichana,shughuli,mshirika,shughuli,NA,NA,0,NA,NA,NA,NA,NA,NA,NA,NA,NA,NA,NA,NA,NA,NA,NA,NA,NA,NA,NA
96ef1,"""Richtig""-Screen",canvas.Screen,3_0_0_0_1_1_1,NA,NA,skipped,NA,258469.89999998,NA,NA,258466.5,258469.89999998,2024-04-24T12:55:50Z,258482.5,NULL,Sänger,mwimbaji,s,msichana,shughuli,mshirika,NA,sdf,NA,0,NA,NA,NA,NA,NA,NA,NA,NA,NA,NA,NA,NA,NA,NA,NA,NA,NA,NA,NA
96ef1,"""Falsch""-Screen",canvas.Screen,3_0_0_0_1_1_2,NA,NA,timeout,4996.9,258470.5,258467.66,258482.5,263462.7,263463.69999993,2024-04-24T12:55:55Z,263479.4,NULL,Sänger,mwimbaji,s,msichana,shughuli,mshirika,NA,sdf,0,0,NA,NA,NA,NA,NA,NA,NA,NA,NA,NA,NA,NA,NA,NA,NA,NA,NA,NA,NA
96ef1,shallow,flow.Sequence,3_0_0_0_1_1,NA,NA,completion,17755.5,245692.19999993,245690,245707.2,263462.7,263464.10000002,2024-04-24T12:55:55Z,263479.4,NULL,Sänger,mwimbaji,s,msichana,shughuli,mshirika,NA,sdf,NA,0,NA,NA,NA,NA,NA,NA,NA,NA,NA,NA,NA,NA,NA,NA,NA,NA,NA,NA,NA
96ef1,task,flow.Sequence,3_0_0_0_1,NA,NA,completion,17755.5,245692,245690,245707.2,263462.7,263464.29999995,2024-04-24T12:55:55Z,263479.4,NULL,Sänger,mwimbaji,s,msichana,shughuli,mshirika,NA,sdf,NA,0,NA,NA,NA,NA,NA,NA,NA,NA,NA,NA,NA,NA,NA,NA,NA,NA,NA,NA,NA
96ef1,Deep Question,html.Page,3_0_0_0_2_0_0,NA,NA,form submission,5370.6,263464.5,263462.7,263479.4,268850,268850.10000002,2024-04-24T12:56:00Z,268859,NULL,Schönheit,kirembo,d,NA,NA,NA,hfadfk,NA,NA,0,NA,NA,NA,NA,NA,NA,NA,NA,NA,NA,NA,NA,NA,NA,NA,NA,NA,NA,NA
96ef1,"""Richtig""-Screen",canvas.Screen,3_0_0_0_2_0_1,NA,NA,skipped,NA,268853.19999993,NA,NA,268850,268853.29999995,2024-04-24T12:56:00Z,268859,NULL,Schönheit,kirembo,d,NA,NA,NA,NA,sdf,NA,0,NA,NA,NA,NA,NA,NA,NA,NA,NA,NA,NA,NA,NA,NA,NA,NA,NA,NA,NA
96ef1,"""Falsch""-Screen",canvas.Screen,3_0_0_0_2_0_2,NA,NA,timeout,4997.5,268854.19999993,268842.8,268859,273839.6,273840.69999993,2024-04-24T12:56:05Z,273856.5,NULL,Schönheit,kirembo,d,NA,NA,NA,NA,sdf,0,0,NA,NA,NA,NA,NA,NA,NA,NA,NA,NA,NA,NA,NA,NA,NA,NA,NA,NA,NA
96ef1,deep,flow.Sequence,3_0_0_0_2_0,NA,NA,completion,10360.2,263464.5,263462.7,263479.4,273839.6,273841,2024-04-24T12:56:05Z,273856.5,NULL,Schönheit,kirembo,d,NA,NA,NA,NA,sdf,NA,0,NA,NA,NA,NA,NA,NA,NA,NA,NA,NA,NA,NA,NA,NA,NA,NA,NA,NA,NA
96ef1,shallow,flow.Sequence,3_0_0_0_2_1,NA,NA,skipped,NA,273841.19999993,NA,NA,273839.6,273841.29999995,2024-04-24T12:56:05Z,273856.5,NULL,Schönheit,kirembo,d,NA,NA,NA,NA,sdf,NA,0,NA,NA,NA,NA,NA,NA,NA,NA,NA,NA,NA,NA,NA,NA,NA,NA,NA,NA,NA
96ef1,task,flow.Sequence,3_0_0_0_2,NA,NA,completion,10360.2,263464.39999998,263462.7,263479.4,273839.6,273841.5,2024-04-24T12:56:05Z,273856.5,NULL,Schönheit,kirembo,d,NA,NA,NA,NA,sdf,NA,0,NA,NA,NA,NA,NA,NA,NA,NA,NA,NA,NA,NA,NA,NA,NA,NA,NA,NA,NA
96ef1,Deep Question,html.Page,3_0_0_0_3_0_0,NA,NA,form submission,4916.1999999285,273841.69999993,273839.6,273856.5,278772.69999993,278772.79999995,2024-04-24T12:56:10Z,278786.5,NULL,Abrechnung,uhasibu,d,NA,NA,NA,hadfk,NA,NA,0,NA,NA,NA,NA,NA,NA,NA,NA,NA,NA,NA,NA,NA,NA,NA,NA,NA,NA,NA
96ef1,"""Richtig""-Screen",canvas.Screen,3_0_0_0_3_0_1,NA,NA,skipped,NA,278776.10000002,NA,NA,278772.69999993,278776.19999993,2024-04-24T12:56:10Z,278786.5,NULL,Abrechnung,uhasibu,d,NA,NA,NA,NA,sdf,NA,0,NA,NA,NA,NA,NA,NA,NA,NA,NA,NA,NA,NA,NA,NA,NA,NA,NA,NA,NA
96ef1,"""Falsch""-Screen",canvas.Screen,3_0_0_0_3_0_2,NA,NA,timeout,4997.1,278777.19999993,278770.7,278786.5,283767.1,283767.69999993,2024-04-24T12:56:15Z,283783.6,NULL,Abrechnung,uhasibu,d,NA,NA,NA,NA,sdf,0,0,NA,NA,NA,NA,NA,NA,NA,NA,NA,NA,NA,NA,NA,NA,NA,NA,NA,NA,NA
96ef1,deep,flow.Sequence,3_0_0_0_3_0,NA,NA,completion,9910.6,273841.60000002,273839.6,273856.5,283767.1,283767.79999995,2024-04-24T12:56:15Z,283783.6,NULL,Abrechnung,uhasibu,d,NA,NA,NA,NA,sdf,NA,0,NA,NA,NA,NA,NA,NA,NA,NA,NA,NA,NA,NA,NA,NA,NA,NA,NA,NA,NA
96ef1,shallow,flow.Sequence,3_0_0_0_3_1,NA,NA,skipped,NA,283767.79999995,NA,NA,283767.1,283767.89999998,2024-04-24T12:56:15Z,283783.6,NULL,Abrechnung,uhasibu,d,NA,NA,NA,NA,sdf,NA,0,NA,NA,NA,NA,NA,NA,NA,NA,NA,NA,NA,NA,NA,NA,NA,NA,NA,NA,NA
96ef1,task,flow.Sequence,3_0_0_0_3,NA,NA,completion,9910.6,273841.60000002,273839.6,273856.5,283767.1,283768,2024-04-24T12:56:15Z,283783.6,NULL,Abrechnung,uhasibu,d,NA,NA,NA,NA,sdf,NA,0,NA,NA,NA,NA,NA,NA,NA,NA,NA,NA,NA,NA,NA,NA,NA,NA,NA,NA,NA
96ef1,deep,flow.Sequence,3_0_0_0_4_0,NA,NA,skipped,NA,283768,NA,NA,283767.1,283768,2024-04-24T12:56:15Z,283783.6,NULL,Auftrag,uagizaji,s,ghanima,kuzingatia,msukani,NA,sdf,NA,0,NA,NA,NA,NA,NA,NA,NA,NA,NA,NA,NA,NA,NA,NA,NA,NA,NA,NA,NA
96ef1,Shallow Question,html.Page,3_0_0_0_4_1_0,NA,NA,form submission,7722.7999999762,283768.10000002,283767.1,283783.6,291506.39999998,291506.69999993,2024-04-24T12:56:23Z,291511.8,NULL,Auftrag,uagizaji,s,ghanima,kuzingatia,msukani,uagizaji,NA,NA,0,NA,NA,NA,NA,NA,NA,NA,NA,NA,NA,NA,NA,NA,NA,NA,NA,NA,NA,NA
96ef1,"""Richtig""-Screen",canvas.Screen,3_0_0_0_4_1_1,NA,NA,timeout,4997.5,291509.69999993,291495.816,291511.8,296492.3,296493.29999995,2024-04-24T12:56:28Z,296509.3,NULL,Auftrag,uagizaji,s,ghanima,kuzingatia,msukani,NA,sdf,1,0,NA,NA,NA,NA,NA,NA,NA,NA,NA,NA,NA,NA,NA,NA,NA,NA,NA,NA,NA
96ef1,"""Falsch""-Screen",canvas.Screen,3_0_0_0_4_1_2,NA,NA,skipped,NA,296498.60000002,NA,NA,296492.3,296498.69999993,2024-04-24T12:56:28Z,296509.3,NULL,Auftrag,uagizaji,s,ghanima,kuzingatia,msukani,NA,sdf,NA,0,NA,NA,NA,NA,NA,NA,NA,NA,NA,NA,NA,NA,NA,NA,NA,NA,NA,NA,NA
96ef1,shallow,flow.Sequence,3_0_0_0_4_1,NA,NA,completion,12708.7,283768.10000002,283767.1,283783.6,296492.3,296498.79999995,2024-04-24T12:56:28Z,296509.3,NULL,Auftrag,uagizaji,s,ghanima,kuzingatia,msukani,NA,sdf,NA,0,NA,NA,NA,NA,NA,NA,NA,NA,NA,NA,NA,NA,NA,NA,NA,NA,NA,NA,NA
96ef1,task,flow.Sequence,3_0_0_0_4,NA,NA,completion,12708.7,283768,283767.1,283783.6,296492.3,296498.89999998,2024-04-24T12:56:28Z,296509.3,NULL,Auftrag,uagizaji,s,ghanima,kuzingatia,msukani,NA,sdf,NA,0,NA,NA,NA,NA,NA,NA,NA,NA,NA,NA,NA,NA,NA,NA,NA,NA,NA,NA,NA
96ef1,Deep Question,html.Page,3_0_0_0_5_0_0,NA,NA,form submission,4673.0999999762,296498.89999998,296492.3,296509.3,301182.39999998,301182.5,2024-04-24T12:56:32Z,301189.4,NULL,Kanzler,diwani,d,NA,NA,NA,jfakd,NA,NA,0,NA,NA,NA,NA,NA,NA,NA,NA,NA,NA,NA,NA,NA,NA,NA,NA,NA,NA,NA
96ef1,"""Richtig""-Screen",canvas.Screen,3_0_0_0_5_0_1,NA,NA,skipped,NA,301183.89999998,NA,NA,301182.39999998,301184,2024-04-24T12:56:32Z,301189.4,NULL,Kanzler,diwani,d,NA,NA,NA,NA,sdf,NA,0,NA,NA,NA,NA,NA,NA,NA,NA,NA,NA,NA,NA,NA,NA,NA,NA,NA,NA,NA
96ef1,"""Falsch""-Screen",canvas.Screen,3_0_0_0_5_0_2,NA,NA,timeout,4997.1,301184.29999995,301176.66,301189.4,306169.9,306170.79999995,2024-04-24T12:56:37Z,306186.5,NULL,Kanzler,diwani,d,NA,NA,NA,NA,sdf,0,0,NA,NA,NA,NA,NA,NA,NA,NA,NA,NA,NA,NA,NA,NA,NA,NA,NA,NA,NA
96ef1,deep,flow.Sequence,3_0_0_0_5_0,NA,NA,completion,9660.6,296498.89999998,296492.3,296509.3,306169.9,306171.19999993,2024-04-24T12:56:37Z,306186.5,NULL,Kanzler,diwani,d,NA,NA,NA,NA,sdf,NA,0,NA,NA,NA,NA,NA,NA,NA,NA,NA,NA,NA,NA,NA,NA,NA,NA,NA,NA,NA
96ef1,shallow,flow.Sequence,3_0_0_0_5_1,NA,NA,skipped,NA,306171.29999995,NA,NA,306169.9,306171.39999998,2024-04-24T12:56:37Z,306186.5,NULL,Kanzler,diwani,d,NA,NA,NA,NA,sdf,NA,0,NA,NA,NA,NA,NA,NA,NA,NA,NA,NA,NA,NA,NA,NA,NA,NA,NA,NA,NA
96ef1,task,flow.Sequence,3_0_0_0_5,NA,NA,completion,9660.6,296498.89999998,296492.3,296509.3,306169.9,306171.60000002,2024-04-24T12:56:37Z,306186.5,NULL,Kanzler,diwani,d,NA,NA,NA,NA,sdf,NA,0,NA,NA,NA,NA,NA,NA,NA,NA,NA,NA,NA,NA,NA,NA,NA,NA,NA,NA,NA
96ef1,deep,flow.Sequence,3_0_0_0_6_0,NA,NA,skipped,NA,306171.69999993,NA,NA,306169.9,306171.79999995,2024-04-24T12:56:37Z,306186.5,NULL,Wettbewerb,ushindani,s,mapendezi,kichocheo,ubaguzi,NA,sdf,NA,0,NA,NA,NA,NA,NA,NA,NA,NA,NA,NA,NA,NA,NA,NA,NA,NA,NA,NA,NA
96ef1,Shallow Question,html.Page,3_0_0_0_6_1_0,NA,NA,form submission,8233.1000000238,306171.89999998,306169.9,306186.5,314419.60000002,314419.79999995,2024-04-24T12:56:46Z,314431.4,NULL,Wettbewerb,ushindani,s,mapendezi,kichocheo,ubaguzi,mapendezi,NA,NA,0,NA,NA,NA,NA,NA,NA,NA,NA,NA,NA,NA,NA,NA,NA,NA,NA,NA,NA,NA
96ef1,"""Richtig""-Screen",canvas.Screen,3_0_0_0_6_1_1,NA,NA,skipped,NA,314422.89999998,NA,NA,314419.60000002,314423.5,2024-04-24T12:56:46Z,314431.4,NULL,Wettbewerb,ushindani,s,mapendezi,kichocheo,ubaguzi,NA,sdf,NA,0,NA,NA,NA,NA,NA,NA,NA,NA,NA,NA,NA,NA,NA,NA,NA,NA,NA,NA,NA
96ef1,"""Falsch""-Screen",canvas.Screen,3_0_0_0_6_1_2,NA,NA,timeout,4997.1,314424.29999995,314415.284,314431.4,319411.9,319412.79999995,2024-04-24T12:56:51Z,319428.5,NULL,Wettbewerb,ushindani,s,mapendezi,kichocheo,ubaguzi,NA,sdf,0,0,NA,NA,NA,NA,NA,NA,NA,NA,NA,NA,NA,NA,NA,NA,NA,NA,NA,NA,NA
96ef1,shallow,flow.Sequence,3_0_0_0_6_1,NA,NA,completion,13225.4,306171.89999998,306169.9,306186.5,319411.9,319413.19999993,2024-04-24T12:56:51Z,319428.5,NULL,Wettbewerb,ushindani,s,mapendezi,kichocheo,ubaguzi,NA,sdf,NA,0,NA,NA,NA,NA,NA,NA,NA,NA,NA,NA,NA,NA,NA,NA,NA,NA,NA,NA,NA
96ef1,task,flow.Sequence,3_0_0_0_6,NA,NA,completion,13225.4,306171.69999993,306169.9,306186.5,319411.9,319413.5,2024-04-24T12:56:51Z,319428.5,NULL,Wettbewerb,ushindani,s,mapendezi,kichocheo,ubaguzi,NA,sdf,NA,0,NA,NA,NA,NA,NA,NA,NA,NA,NA,NA,NA,NA,NA,NA,NA,NA,NA,NA,NA
96ef1,deep,flow.Sequence,3_0_0_0_7_0,NA,NA,skipped,NA,319413.60000002,NA,NA,319411.9,319413.69999993,2024-04-24T12:56:51Z,319428.5,NULL,Angreifer,mshambulizi,s,kitengo,tasinia,usafirishaji,NA,sdf,NA,0,NA,NA,NA,NA,NA,NA,NA,NA,NA,NA,NA,NA,NA,NA,NA,NA,NA,NA,NA
96ef1,Shallow Question,html.Page,3_0_0_0_7_1_0,NA,NA,form submission,6373.6999999285,319413.89999998,319411.9,319428.5,325802.19999993,325802.29999995,2024-04-24T12:56:57Z,325807.6,NULL,Angreifer,mshambulizi,s,kitengo,tasinia,usafirishaji,kitengo,NA,NA,0,NA,NA,NA,NA,NA,NA,NA,NA,NA,NA,NA,NA,NA,NA,NA,NA,NA,NA,NA
96ef1,"""Richtig""-Screen",canvas.Screen,3_0_0_0_7_1_1,NA,NA,skipped,NA,325805.29999995,NA,NA,325802.19999993,325805.5,2024-04-24T12:56:57Z,325807.6,NULL,Angreifer,mshambulizi,s,kitengo,tasinia,usafirishaji,NA,sdf,NA,0,NA,NA,NA,NA,NA,NA,NA,NA,NA,NA,NA,NA,NA,NA,NA,NA,NA,NA,NA
96ef1,"""Falsch""-Screen",canvas.Screen,3_0_0_0_7_1_2,NA,NA,timeout,4996.9,325806.29999995,325791.746,325807.6,330788,330789.10000002,2024-04-24T12:57:02Z,330804.5,NULL,Angreifer,mshambulizi,s,kitengo,tasinia,usafirishaji,NA,sdf,0,0,NA,NA,NA,NA,NA,NA,NA,NA,NA,NA,NA,NA,NA,NA,NA,NA,NA,NA,NA
96ef1,shallow,flow.Sequence,3_0_0_0_7_1,NA,NA,completion,11359.5,319413.89999998,319411.9,319428.5,330788,330789.5,2024-04-24T12:57:02Z,330804.5,NULL,Angreifer,mshambulizi,s,kitengo,tasinia,usafirishaji,NA,sdf,NA,0,NA,NA,NA,NA,NA,NA,NA,NA,NA,NA,NA,NA,NA,NA,NA,NA,NA,NA,NA
96ef1,task,flow.Sequence,3_0_0_0_7,NA,NA,completion,11359.5,319413.60000002,319411.9,319428.5,330788,330789.69999993,2024-04-24T12:57:02Z,330804.5,NULL,Angreifer,mshambulizi,s,kitengo,tasinia,usafirishaji,NA,sdf,NA,0,NA,NA,NA,NA,NA,NA,NA,NA,NA,NA,NA,NA,NA,NA,NA,NA,NA,NA,NA
96ef1,block,flow.Loop,3_0_0_0,NA,NA,completion,99387.648,231410.5,231400.352,231400.352,330788,330789.89999998,2024-04-24T12:57:02Z,330804.5,NULL,NA,NA,NA,NA,NA,NA,NA,sdf,NA,0,NA,NA,NA,NA,NA,NA,NA,NA,NA,NA,NA,NA,NA,NA,NA,NA,NA,NA,NA
96ef1,weiter,canvas.Screen,3_0_0_1,sdf,keypress(Space),response,2037.6000000238,330790.10000002,330788,330804.5,332842.10000002,332843.29999995,2024-04-24T12:57:04Z,332854.418,NULL,NA,NA,NA,NA,NA,NA,NA,sdf,NA,0,NA,NA,NA,NA,NA,NA,NA,NA,NA,NA,NA,NA,NA,NA,NA,NA,NA,NA,NA
96ef1,check continue,flow.Sequence,3_0_0,NA,NA,completion,101441.74800002,231410.5,231400.352,231400.352,332842.10000002,332843.60000002,2024-04-24T12:57:04Z,332854.418,NULL,NA,NA,NA,NA,NA,NA,NA,sdf,NA,0,NA,NA,NA,NA,NA,NA,NA,NA,NA,NA,NA,NA,NA,NA,NA,NA,NA,NA,NA
96ef1,Deep Question,html.Page,3_0_1_0_0_0_0,NA,NA,form submission,4902.2819999285,332863.39999998,332854.418,332854.418,337756.69999993,337756.89999998,2024-04-24T12:57:09Z,337767,NULL,Kanzler,diwani,d,NA,NA,NA,hkfgh,NA,NA,1,NA,NA,NA,NA,NA,NA,NA,NA,NA,NA,NA,NA,NA,NA,NA,NA,NA,NA,NA
96ef1,"""Richtig""-Screen",canvas.Screen,3_0_1_0_0_0_1,NA,NA,skipped,NA,337759.79999995,NA,NA,337756.69999993,337760,2024-04-24T12:57:09Z,337767,NULL,Kanzler,diwani,d,NA,NA,NA,NA,sdfdsf,NA,1,NA,NA,NA,NA,NA,NA,NA,NA,NA,NA,NA,NA,NA,NA,NA,NA,NA,NA,NA
96ef1,"""Falsch""-Screen",canvas.Screen,3_0_1_0_0_0_2,NA,NA,timeout,4997.2,337760.69999993,337751.1,337767,342747.3,342748.29999995,2024-04-24T12:57:14Z,342764.2,NULL,Kanzler,diwani,d,NA,NA,NA,NA,sdfdsf,0,1,NA,NA,NA,NA,NA,NA,NA,NA,NA,NA,NA,NA,NA,NA,NA,NA,NA,NA,NA
96ef1,deep,flow.Sequence,3_0_1_0_0_0,NA,NA,completion,9892.882,332863.39999998,332854.418,332854.418,342747.3,342748.60000002,2024-04-24T12:57:14Z,342764.2,NULL,Kanzler,diwani,d,NA,NA,NA,NA,sdfdsf,NA,1,NA,NA,NA,NA,NA,NA,NA,NA,NA,NA,NA,NA,NA,NA,NA,NA,NA,NA,NA
96ef1,shallow,flow.Sequence,3_0_1_0_0_1,NA,NA,skipped,NA,342748.79999995,NA,NA,342747.3,342749,2024-04-24T12:57:14Z,342764.2,NULL,Kanzler,diwani,d,NA,NA,NA,NA,sdfdsf,NA,1,NA,NA,NA,NA,NA,NA,NA,NA,NA,NA,NA,NA,NA,NA,NA,NA,NA,NA,NA
96ef1,task,flow.Sequence,3_0_1_0_0,NA,NA,completion,9892.882,332863.39999998,332854.418,332854.418,342747.3,342749.10000002,2024-04-24T12:57:14Z,342764.2,NULL,Kanzler,diwani,d,NA,NA,NA,NA,sdfdsf,NA,1,NA,NA,NA,NA,NA,NA,NA,NA,NA,NA,NA,NA,NA,NA,NA,NA,NA,NA,NA
96ef1,Deep Question,html.Page,3_0_1_0_1_0_0,NA,NA,form submission,5591.9000000238,342749.29999995,342747.3,342764.2,348356.10000002,348356.29999995,2024-04-24T12:57:20Z,348360.5,NULL,Abrechnung,uhasibu,d,NA,NA,NA,hgadf,NA,NA,1,NA,NA,NA,NA,NA,NA,NA,NA,NA,NA,NA,NA,NA,NA,NA,NA,NA,NA,NA
96ef1,"""Richtig""-Screen",canvas.Screen,3_0_1_0_1_0_1,NA,NA,skipped,NA,348359.29999995,NA,NA,348356.10000002,348359.5,2024-04-24T12:57:20Z,348360.5,NULL,Abrechnung,uhasibu,d,NA,NA,NA,NA,sdfdsf,NA,1,NA,NA,NA,NA,NA,NA,NA,NA,NA,NA,NA,NA,NA,NA,NA,NA,NA,NA,NA
96ef1,"""Falsch""-Screen",canvas.Screen,3_0_1_0_1_0_2,NA,NA,timeout,4997,348360.19999993,348344.514,348360.5,353340.7,353341.19999993,2024-04-24T12:57:25Z,353357.5,NULL,Abrechnung,uhasibu,d,NA,NA,NA,NA,sdfdsf,0,1,NA,NA,NA,NA,NA,NA,NA,NA,NA,NA,NA,NA,NA,NA,NA,NA,NA,NA,NA
96ef1,deep,flow.Sequence,3_0_1_0_1_0,NA,NA,completion,10576.5,342749.29999995,342747.3,342764.2,353340.7,353341.29999995,2024-04-24T12:57:25Z,353357.5,NULL,Abrechnung,uhasibu,d,NA,NA,NA,NA,sdfdsf,NA,1,NA,NA,NA,NA,NA,NA,NA,NA,NA,NA,NA,NA,NA,NA,NA,NA,NA,NA,NA
96ef1,shallow,flow.Sequence,3_0_1_0_1_1,NA,NA,skipped,NA,353341.29999995,NA,NA,353340.7,353341.39999998,2024-04-24T12:57:25Z,353357.5,NULL,Abrechnung,uhasibu,d,NA,NA,NA,NA,sdfdsf,NA,1,NA,NA,NA,NA,NA,NA,NA,NA,NA,NA,NA,NA,NA,NA,NA,NA,NA,NA,NA
96ef1,task,flow.Sequence,3_0_1_0_1,NA,NA,completion,10576.5,342749.29999995,342747.3,342764.2,353340.7,353341.39999998,2024-04-24T12:57:25Z,353357.5,NULL,Abrechnung,uhasibu,d,NA,NA,NA,NA,sdfdsf,NA,1,NA,NA,NA,NA,NA,NA,NA,NA,NA,NA,NA,NA,NA,NA,NA,NA,NA,NA,NA
96ef1,deep,flow.Sequence,3_0_1_0_2_0,NA,NA,skipped,NA,353341.39999998,NA,NA,353340.7,353341.5,2024-04-24T12:57:25Z,353357.5,NULL,Angreifer,mshambulizi,s,kitengo,tasinia,usafirishaji,NA,sdfdsf,NA,1,NA,NA,NA,NA,NA,NA,NA,NA,NA,NA,NA,NA,NA,NA,NA,NA,NA,NA,NA
96ef1,Shallow Question,html.Page,3_0_1_0_2_1_0,NA,NA,form submission,5450.6999999285,353341.60000002,353340.7,353357.5,358808.19999993,358808.5,2024-04-24T12:57:30Z,358820.9,NULL,Angreifer,mshambulizi,s,kitengo,tasinia,usafirishaji,mshambulizi,NA,NA,1,NA,NA,NA,NA,NA,NA,NA,NA,NA,NA,NA,NA,NA,NA,NA,NA,NA,NA,NA
96ef1,"""Richtig""-Screen",canvas.Screen,3_0_1_0_2_1_1,NA,NA,timeout,4996.8,358811.39999998,358805.228,358820.9,363801.2,363802.29999995,2024-04-24T12:57:35Z,363817.7,NULL,Angreifer,mshambulizi,s,kitengo,tasinia,usafirishaji,NA,sdfdsf,1,1,NA,NA,NA,NA,NA,NA,NA,NA,NA,NA,NA,NA,NA,NA,NA,NA,NA,NA,NA
96ef1,"""Falsch""-Screen",canvas.Screen,3_0_1_0_2_1_2,NA,NA,skipped,NA,363807.10000002,NA,NA,363801.2,363807.19999993,2024-04-24T12:57:35Z,363817.7,NULL,Angreifer,mshambulizi,s,kitengo,tasinia,usafirishaji,NA,sdfdsf,NA,1,NA,NA,NA,NA,NA,NA,NA,NA,NA,NA,NA,NA,NA,NA,NA,NA,NA,NA,NA
96ef1,shallow,flow.Sequence,3_0_1_0_2_1,NA,NA,completion,10443.7,353341.5,353340.7,353357.5,363801.2,363807.19999993,2024-04-24T12:57:35Z,363817.7,NULL,Angreifer,mshambulizi,s,kitengo,tasinia,usafirishaji,NA,sdfdsf,NA,1,NA,NA,NA,NA,NA,NA,NA,NA,NA,NA,NA,NA,NA,NA,NA,NA,NA,NA,NA
96ef1,task,flow.Sequence,3_0_1_0_2,NA,NA,completion,10443.7,353341.39999998,353340.7,353357.5,363801.2,363807.29999995,2024-04-24T12:57:35Z,363817.7,NULL,Angreifer,mshambulizi,s,kitengo,tasinia,usafirishaji,NA,sdfdsf,NA,1,NA,NA,NA,NA,NA,NA,NA,NA,NA,NA,NA,NA,NA,NA,NA,NA,NA,NA,NA
96ef1,Deep Question,html.Page,3_0_1_0_3_0_0,NA,NA,form submission,6020.3,363807.39999998,363801.2,363817.7,369838,369838.29999995,2024-04-24T12:57:41Z,369847.5,NULL,Schönheit,kirembo,d,NA,NA,NA,uhfffg,NA,NA,1,NA,NA,NA,NA,NA,NA,NA,NA,NA,NA,NA,NA,NA,NA,NA,NA,NA,NA,NA
96ef1,"""Richtig""-Screen",canvas.Screen,3_0_1_0_3_0_1,NA,NA,skipped,NA,369841.10000002,NA,NA,369838,369841.19999993,2024-04-24T12:57:41Z,369847.5,NULL,Schönheit,kirembo,d,NA,NA,NA,NA,sdfdsf,NA,1,NA,NA,NA,NA,NA,NA,NA,NA,NA,NA,NA,NA,NA,NA,NA,NA,NA,NA,NA
96ef1,"""Falsch""-Screen",canvas.Screen,3_0_1_0_3_0_2,NA,NA,timeout,4996.9,369842,369831.444,369847.5,374827.9,374828.69999993,2024-04-24T12:57:46Z,374844.4,NULL,Schönheit,kirembo,d,NA,NA,NA,NA,sdfdsf,0,1,NA,NA,NA,NA,NA,NA,NA,NA,NA,NA,NA,NA,NA,NA,NA,NA,NA,NA,NA
96ef1,deep,flow.Sequence,3_0_1_0_3_0,NA,NA,completion,11010.2,363807.39999998,363801.2,363817.7,374827.9,374829.10000002,2024-04-24T12:57:46Z,374844.4,NULL,Schönheit,kirembo,d,NA,NA,NA,NA,sdfdsf,NA,1,NA,NA,NA,NA,NA,NA,NA,NA,NA,NA,NA,NA,NA,NA,NA,NA,NA,NA,NA
96ef1,shallow,flow.Sequence,3_0_1_0_3_1,NA,NA,skipped,NA,374829.19999993,NA,NA,374827.9,374829.29999995,2024-04-24T12:57:46Z,374844.4,NULL,Schönheit,kirembo,d,NA,NA,NA,NA,sdfdsf,NA,1,NA,NA,NA,NA,NA,NA,NA,NA,NA,NA,NA,NA,NA,NA,NA,NA,NA,NA,NA
96ef1,task,flow.Sequence,3_0_1_0_3,NA,NA,completion,11010.2,363807.29999995,363801.2,363817.7,374827.9,374829.5,2024-04-24T12:57:46Z,374844.4,NULL,Schönheit,kirembo,d,NA,NA,NA,NA,sdfdsf,NA,1,NA,NA,NA,NA,NA,NA,NA,NA,NA,NA,NA,NA,NA,NA,NA,NA,NA,NA,NA
96ef1,deep,flow.Sequence,3_0_1_0_4_0,NA,NA,skipped,NA,374829.60000002,NA,NA,374827.9,374829.69999993,2024-04-24T12:57:46Z,374844.4,NULL,Auftrag,uagizaji,s,ghanima,kuzingatia,msukani,NA,sdfdsf,NA,1,NA,NA,NA,NA,NA,NA,NA,NA,NA,NA,NA,NA,NA,NA,NA,NA,NA,NA,NA
96ef1,Shallow Question,html.Page,3_0_1_0_4_1_0,NA,NA,form submission,7957.8999999523,374829.79999995,374827.9,374844.4,382802.29999995,382802.5,2024-04-24T12:57:54Z,382806.692,NULL,Auftrag,uagizaji,s,ghanima,kuzingatia,msukani,uagizaji,NA,NA,1,NA,NA,NA,NA,NA,NA,NA,NA,NA,NA,NA,NA,NA,NA,NA,NA,NA,NA,NA
96ef1,"""Richtig""-Screen",canvas.Screen,3_0_1_0_4_1_1,NA,NA,timeout,4996.908,382805.5,382806.692,382806.692,387786.6,387787.60000002,2024-04-24T12:57:59Z,387803.6,NULL,Auftrag,uagizaji,s,ghanima,kuzingatia,msukani,NA,sdfdsf,1,1,NA,NA,NA,NA,NA,NA,NA,NA,NA,NA,NA,NA,NA,NA,NA,NA,NA,NA,NA
96ef1,"""Falsch""-Screen",canvas.Screen,3_0_1_0_4_1_2,NA,NA,skipped,NA,387792.29999995,NA,NA,387786.6,387792.5,2024-04-24T12:57:59Z,387803.6,NULL,Auftrag,uagizaji,s,ghanima,kuzingatia,msukani,NA,sdfdsf,NA,1,NA,NA,NA,NA,NA,NA,NA,NA,NA,NA,NA,NA,NA,NA,NA,NA,NA,NA,NA
96ef1,shallow,flow.Sequence,3_0_1_0_4_1,NA,NA,completion,12942.2,374829.79999995,374827.9,374844.4,387786.6,387792.60000002,2024-04-24T12:57:59Z,387803.6,NULL,Auftrag,uagizaji,s,ghanima,kuzingatia,msukani,NA,sdfdsf,NA,1,NA,NA,NA,NA,NA,NA,NA,NA,NA,NA,NA,NA,NA,NA,NA,NA,NA,NA,NA
96ef1,task,flow.Sequence,3_0_1_0_4,NA,NA,completion,12942.2,374829.60000002,374827.9,374844.4,387786.6,387792.69999993,2024-04-24T12:57:59Z,387803.6,NULL,Auftrag,uagizaji,s,ghanima,kuzingatia,msukani,NA,sdfdsf,NA,1,NA,NA,NA,NA,NA,NA,NA,NA,NA,NA,NA,NA,NA,NA,NA,NA,NA,NA,NA
96ef1,deep,flow.Sequence,3_0_1_0_5_0,NA,NA,skipped,NA,387792.69999993,NA,NA,387786.6,387792.69999993,2024-04-24T12:57:59Z,387803.6,NULL,Sänger,mwimbaji,s,msichana,shughuli,mshirika,NA,sdfdsf,NA,1,NA,NA,NA,NA,NA,NA,NA,NA,NA,NA,NA,NA,NA,NA,NA,NA,NA,NA,NA
96ef1,Shallow Question,html.Page,3_0_1_0_5_1_0,NA,NA,form submission,6678.6999999523,387792.69999993,387786.6,387803.6,394482.29999995,394482.5,2024-04-24T12:58:06Z,394499.7,NULL,Sänger,mwimbaji,s,msichana,shughuli,mshirika,mwimbaji,NA,NA,1,NA,NA,NA,NA,NA,NA,NA,NA,NA,NA,NA,NA,NA,NA,NA,NA,NA,NA,NA
96ef1,"""Richtig""-Screen",canvas.Screen,3_0_1_0_5_1_1,NA,NA,timeout,4996.4,394485.5,394483.046,394499.7,399479.3,399481,2024-04-24T12:58:11Z,399496.1,NULL,Sänger,mwimbaji,s,msichana,shughuli,mshirika,NA,sdfdsf,1,1,NA,NA,NA,NA,NA,NA,NA,NA,NA,NA,NA,NA,NA,NA,NA,NA,NA,NA,NA
96ef1,"""Falsch""-Screen",canvas.Screen,3_0_1_0_5_1_2,NA,NA,skipped,NA,399485.89999998,NA,NA,399479.3,399486.10000002,2024-04-24T12:58:11Z,399496.1,NULL,Sänger,mwimbaji,s,msichana,shughuli,mshirika,NA,sdfdsf,NA,1,NA,NA,NA,NA,NA,NA,NA,NA,NA,NA,NA,NA,NA,NA,NA,NA,NA,NA,NA
96ef1,shallow,flow.Sequence,3_0_1_0_5_1,NA,NA,completion,11675.7,387792.69999993,387786.6,387803.6,399479.3,399486.39999998,2024-04-24T12:58:11Z,399496.1,NULL,Sänger,mwimbaji,s,msichana,shughuli,mshirika,NA,sdfdsf,NA,1,NA,NA,NA,NA,NA,NA,NA,NA,NA,NA,NA,NA,NA,NA,NA,NA,NA,NA,NA
96ef1,task,flow.Sequence,3_0_1_0_5,NA,NA,completion,11675.7,387792.69999993,387786.6,387803.6,399479.3,399486.60000002,2024-04-24T12:58:11Z,399496.1,NULL,Sänger,mwimbaji,s,msichana,shughuli,mshirika,NA,sdfdsf,NA,1,NA,NA,NA,NA,NA,NA,NA,NA,NA,NA,NA,NA,NA,NA,NA,NA,NA,NA,NA
96ef1,Deep Question,html.Page,3_0_1_0_6_0_0,NA,NA,form submission,4476.4,399486.69999993,399479.3,399496.1,403972.5,403972.69999993,2024-04-24T12:58:15Z,403977.022,NULL,Zufall,kikuti,d,NA,NA,NA,fgsgg,NA,NA,1,NA,NA,NA,NA,NA,NA,NA,NA,NA,NA,NA,NA,NA,NA,NA,NA,NA,NA,NA
96ef1,"""Richtig""-Screen",canvas.Screen,3_0_1_0_6_0_1,NA,NA,skipped,NA,403975.60000002,NA,NA,403972.5,403975.69999993,2024-04-24T12:58:15Z,403977.022,NULL,Zufall,kikuti,d,NA,NA,NA,NA,sdfdsf,NA,1,NA,NA,NA,NA,NA,NA,NA,NA,NA,NA,NA,NA,NA,NA,NA,NA,NA,NA,NA
96ef1,"""Falsch""-Screen",canvas.Screen,3_0_1_0_6_0_2,NA,NA,timeout,4996.878,403976.39999998,403977.022,403977.022,408957.1,408958.29999995,2024-04-24T12:58:20Z,408973.9,NULL,Zufall,kikuti,d,NA,NA,NA,NA,sdfdsf,0,1,NA,NA,NA,NA,NA,NA,NA,NA,NA,NA,NA,NA,NA,NA,NA,NA,NA,NA,NA
96ef1,deep,flow.Sequence,3_0_1_0_6_0,NA,NA,completion,9461,399486.69999993,399479.3,399496.1,408957.1,408958.79999995,2024-04-24T12:58:20Z,408973.9,NULL,Zufall,kikuti,d,NA,NA,NA,NA,sdfdsf,NA,1,NA,NA,NA,NA,NA,NA,NA,NA,NA,NA,NA,NA,NA,NA,NA,NA,NA,NA,NA
96ef1,shallow,flow.Sequence,3_0_1_0_6_1,NA,NA,skipped,NA,408958.89999998,NA,NA,408957.1,408959.10000002,2024-04-24T12:58:20Z,408973.9,NULL,Zufall,kikuti,d,NA,NA,NA,NA,sdfdsf,NA,1,NA,NA,NA,NA,NA,NA,NA,NA,NA,NA,NA,NA,NA,NA,NA,NA,NA,NA,NA
96ef1,task,flow.Sequence,3_0_1_0_6,NA,NA,completion,9461,399486.69999993,399479.3,399496.1,408957.1,408959.19999993,2024-04-24T12:58:20Z,408973.9,NULL,Zufall,kikuti,d,NA,NA,NA,NA,sdfdsf,NA,1,NA,NA,NA,NA,NA,NA,NA,NA,NA,NA,NA,NA,NA,NA,NA,NA,NA,NA,NA
96ef1,deep,flow.Sequence,3_0_1_0_7_0,NA,NA,skipped,NA,408959.39999998,NA,NA,408957.1,408959.5,2024-04-24T12:58:20Z,408973.9,NULL,Wettbewerb,ushindani,s,mapendezi,kichocheo,ubaguzi,NA,sdfdsf,NA,1,NA,NA,NA,NA,NA,NA,NA,NA,NA,NA,NA,NA,NA,NA,NA,NA,NA,NA,NA
96ef1,Shallow Question,html.Page,3_0_1_0_7_1_0,NA,NA,form submission,7095.3999999523,408959.60000002,408957.1,408973.9,416069.29999995,416069.39999998,2024-04-24T12:58:27Z,416086.2,NULL,Wettbewerb,ushindani,s,mapendezi,kichocheo,ubaguzi,ushindani,NA,NA,1,NA,NA,NA,NA,NA,NA,NA,NA,NA,NA,NA,NA,NA,NA,NA,NA,NA,NA,NA
96ef1,"""Richtig""-Screen",canvas.Screen,3_0_1_0_7_1_1,NA,NA,timeout,4996.9,416071,416069.856,416086.2,421066.4,421066.79999995,2024-04-24T12:58:32Z,421083.1,NULL,Wettbewerb,ushindani,s,mapendezi,kichocheo,ubaguzi,NA,sdfdsf,1,1,NA,NA,NA,NA,NA,NA,NA,NA,NA,NA,NA,NA,NA,NA,NA,NA,NA,NA,NA
96ef1,"""Falsch""-Screen",canvas.Screen,3_0_1_0_7_1_2,NA,NA,skipped,NA,421068.39999998,NA,NA,421066.4,421068.5,2024-04-24T12:58:32Z,421083.1,NULL,Wettbewerb,ushindani,s,mapendezi,kichocheo,ubaguzi,NA,sdfdsf,NA,1,NA,NA,NA,NA,NA,NA,NA,NA,NA,NA,NA,NA,NA,NA,NA,NA,NA,NA,NA
96ef1,shallow,flow.Sequence,3_0_1_0_7_1,NA,NA,completion,12092.5,408959.60000002,408957.1,408973.9,421066.4,421068.5,2024-04-24T12:58:32Z,421083.1,NULL,Wettbewerb,ushindani,s,mapendezi,kichocheo,ubaguzi,NA,sdfdsf,NA,1,NA,NA,NA,NA,NA,NA,NA,NA,NA,NA,NA,NA,NA,NA,NA,NA,NA,NA,NA
96ef1,task,flow.Sequence,3_0_1_0_7,NA,NA,completion,12092.5,408959.29999995,408957.1,408973.9,421066.4,421068.60000002,2024-04-24T12:58:32Z,421083.1,NULL,Wettbewerb,ushindani,s,mapendezi,kichocheo,ubaguzi,NA,sdfdsf,NA,1,NA,NA,NA,NA,NA,NA,NA,NA,NA,NA,NA,NA,NA,NA,NA,NA,NA,NA,NA
96ef1,block,flow.Loop,3_0_1_0,NA,NA,completion,88211.982,332863.39999998,332854.418,332854.418,421066.4,421068.69999993,2024-04-24T12:58:32Z,421083.1,NULL,NA,NA,NA,NA,NA,NA,NA,sdfdsf,NA,1,NA,NA,NA,NA,NA,NA,NA,NA,NA,NA,NA,NA,NA,NA,NA,NA,NA,NA,NA
96ef1,weiter,canvas.Screen,3_0_1_1,sdf,keypress(Space),response,1492.1999999523,421068.69999993,421066.4,421083.1,422575.29999995,422576.19999993,2024-04-24T12:58:34Z,422598.4,NULL,NA,NA,NA,NA,NA,NA,NA,sdfdsf,NA,1,NA,NA,NA,NA,NA,NA,NA,NA,NA,NA,NA,NA,NA,NA,NA,NA,NA,NA,NA
96ef1,check continue,flow.Sequence,3_0_1,NA,NA,completion,89720.881999952,332863.29999995,332854.418,332854.418,422575.29999995,422576.60000002,2024-04-24T12:58:34Z,422598.4,NULL,NA,NA,NA,NA,NA,NA,NA,sdfdsf,NA,1,NA,NA,NA,NA,NA,NA,NA,NA,NA,NA,NA,NA,NA,NA,NA,NA,NA,NA,NA
96ef1,deep,flow.Sequence,3_0_2_0_0_0,NA,NA,skipped,NA,422594.60000002,NA,NA,422575.29999995,422594.69999993,2024-04-24T12:58:34Z,422598.4,NULL,Wettbewerb,ushindani,s,mapendezi,kichocheo,ubaguzi,NA,sdf,NA,2,NA,NA,NA,NA,NA,NA,NA,NA,NA,NA,NA,NA,NA,NA,NA,NA,NA,NA,NA
96ef1,Shallow Question,html.Page,3_0_2_0_0_1_0,NA,NA,form submission,8425.7000000238,422594.69999993,422582.292,422598.4,431024.10000002,431024.29999995,2024-04-24T12:58:42Z,431027.226,NULL,Wettbewerb,ushindani,s,mapendezi,kichocheo,ubaguzi,mapendezi,NA,NA,2,NA,NA,NA,NA,NA,NA,NA,NA,NA,NA,NA,NA,NA,NA,NA,NA,NA,NA,NA
96ef1,"""Richtig""-Screen",canvas.Screen,3_0_2_0_0_1_1,NA,NA,skipped,NA,431027.39999998,NA,NA,431024.10000002,431027.5,2024-04-24T12:58:42Z,431027.226,NULL,Wettbewerb,ushindani,s,mapendezi,kichocheo,ubaguzi,NA,sdf,NA,2,NA,NA,NA,NA,NA,NA,NA,NA,NA,NA,NA,NA,NA,NA,NA,NA,NA,NA,NA
96ef1,"""Falsch""-Screen",canvas.Screen,3_0_2_0_0_1_2,NA,NA,timeout,4996.874,431028.39999998,431027.226,431027.226,436007,436008,2024-04-24T12:58:47Z,436024.1,NULL,Wettbewerb,ushindani,s,mapendezi,kichocheo,ubaguzi,NA,sdf,0,2,NA,NA,NA,NA,NA,NA,NA,NA,NA,NA,NA,NA,NA,NA,NA,NA,NA,NA,NA
96ef1,shallow,flow.Sequence,3_0_2_0_0_1,NA,NA,completion,13408.6,422594.69999993,422582.292,422598.4,436007,436008.19999993,2024-04-24T12:58:47Z,436024.1,NULL,Wettbewerb,ushindani,s,mapendezi,kichocheo,ubaguzi,NA,sdf,NA,2,NA,NA,NA,NA,NA,NA,NA,NA,NA,NA,NA,NA,NA,NA,NA,NA,NA,NA,NA
96ef1,task,flow.Sequence,3_0_2_0_0,NA,NA,completion,13408.6,422594.60000002,422582.292,422598.4,436007,436008.5,2024-04-24T12:58:47Z,436024.1,NULL,Wettbewerb,ushindani,s,mapendezi,kichocheo,ubaguzi,NA,sdf,NA,2,NA,NA,NA,NA,NA,NA,NA,NA,NA,NA,NA,NA,NA,NA,NA,NA,NA,NA,NA
96ef1,Deep Question,html.Page,3_0_2_0_1_0_0,NA,NA,form submission,6447.7999999762,436008.69999993,436007,436024.1,442471.89999998,442472.10000002,2024-04-24T12:58:54Z,442486.4,NULL,Kanzler,diwani,d,NA,NA,NA,kiteko,NA,NA,2,NA,NA,NA,NA,NA,NA,NA,NA,NA,NA,NA,NA,NA,NA,NA,NA,NA,NA,NA
96ef1,"""Richtig""-Screen",canvas.Screen,3_0_2_0_1_0_1,NA,NA,skipped,NA,442475.10000002,NA,NA,442471.89999998,442475.29999995,2024-04-24T12:58:54Z,442486.4,NULL,Kanzler,diwani,d,NA,NA,NA,NA,sdf,NA,2,NA,NA,NA,NA,NA,NA,NA,NA,NA,NA,NA,NA,NA,NA,NA,NA,NA,NA,NA
96ef1,"""Falsch""-Screen",canvas.Screen,3_0_2_0_1_0_2,NA,NA,timeout,4997.2,442475.89999998,442470.36,442486.4,447466.7,447467.69999993,2024-04-24T12:58:59Z,447483.6,NULL,Kanzler,diwani,d,NA,NA,NA,NA,sdf,0,2,NA,NA,NA,NA,NA,NA,NA,NA,NA,NA,NA,NA,NA,NA,NA,NA,NA,NA,NA
96ef1,deep,flow.Sequence,3_0_2_0_1_0,NA,NA,completion,11442.6,436008.60000002,436007,436024.1,447466.7,447468.19999993,2024-04-24T12:58:59Z,447483.6,NULL,Kanzler,diwani,d,NA,NA,NA,NA,sdf,NA,2,NA,NA,NA,NA,NA,NA,NA,NA,NA,NA,NA,NA,NA,NA,NA,NA,NA,NA,NA
96ef1,shallow,flow.Sequence,3_0_2_0_1_1,NA,NA,skipped,NA,447468.29999995,NA,NA,447466.7,447468.39999998,2024-04-24T12:58:59Z,447483.6,NULL,Kanzler,diwani,d,NA,NA,NA,NA,sdf,NA,2,NA,NA,NA,NA,NA,NA,NA,NA,NA,NA,NA,NA,NA,NA,NA,NA,NA,NA,NA
96ef1,task,flow.Sequence,3_0_2_0_1,NA,NA,completion,11442.6,436008.60000002,436007,436024.1,447466.7,447468.60000002,2024-04-24T12:58:59Z,447483.6,NULL,Kanzler,diwani,d,NA,NA,NA,NA,sdf,NA,2,NA,NA,NA,NA,NA,NA,NA,NA,NA,NA,NA,NA,NA,NA,NA,NA,NA,NA,NA
96ef1,deep,flow.Sequence,3_0_2_0_2_0,NA,NA,skipped,NA,447468.79999995,NA,NA,447466.7,447468.89999998,2024-04-24T12:58:59Z,447483.6,NULL,Sänger,mwimbaji,s,msichana,shughuli,mshirika,NA,sdf,NA,2,NA,NA,NA,NA,NA,NA,NA,NA,NA,NA,NA,NA,NA,NA,NA,NA,NA,NA,NA
96ef1,Shallow Question,html.Page,3_0_2_0_2_1_0,NA,NA,form submission,7288.2999999762,447469,447466.7,447483.6,454771.89999998,454772.10000002,2024-04-24T12:59:06Z,454778.8,NULL,Sänger,mwimbaji,s,msichana,shughuli,mshirika,mwimbaji,NA,NA,2,NA,NA,NA,NA,NA,NA,NA,NA,NA,NA,NA,NA,NA,NA,NA,NA,NA,NA,NA
96ef1,"""Richtig""-Screen",canvas.Screen,3_0_2_0_2_1_1,NA,NA,timeout,4997.5,454775.19999993,454762.6,454778.8,459759.3,459760.19999993,2024-04-24T12:59:11Z,459776.3,NULL,Sänger,mwimbaji,s,msichana,shughuli,mshirika,NA,sdf,1,2,NA,NA,NA,NA,NA,NA,NA,NA,NA,NA,NA,NA,NA,NA,NA,NA,NA,NA,NA
96ef1,"""Falsch""-Screen",canvas.Screen,3_0_2_0_2_1_2,NA,NA,skipped,NA,459765.29999995,NA,NA,459759.3,459765.39999998,2024-04-24T12:59:11Z,459776.3,NULL,Sänger,mwimbaji,s,msichana,shughuli,mshirika,NA,sdf,NA,2,NA,NA,NA,NA,NA,NA,NA,NA,NA,NA,NA,NA,NA,NA,NA,NA,NA,NA,NA
96ef1,shallow,flow.Sequence,3_0_2_0_2_1,NA,NA,completion,12275.7,447468.89999998,447466.7,447483.6,459759.3,459765.5,2024-04-24T12:59:11Z,459776.3,NULL,Sänger,mwimbaji,s,msichana,shughuli,mshirika,NA,sdf,NA,2,NA,NA,NA,NA,NA,NA,NA,NA,NA,NA,NA,NA,NA,NA,NA,NA,NA,NA,NA
96ef1,task,flow.Sequence,3_0_2_0_2,NA,NA,completion,12275.7,447468.69999993,447466.7,447483.6,459759.3,459765.60000002,2024-04-24T12:59:11Z,459776.3,NULL,Sänger,mwimbaji,s,msichana,shughuli,mshirika,NA,sdf,NA,2,NA,NA,NA,NA,NA,NA,NA,NA,NA,NA,NA,NA,NA,NA,NA,NA,NA,NA,NA
96ef1,deep,flow.Sequence,3_0_2_0_3_0,NA,NA,skipped,NA,459765.60000002,NA,NA,459759.3,459765.69999993,2024-04-24T12:59:11Z,459776.3,NULL,Angreifer,mshambulizi,s,kitengo,tasinia,usafirishaji,NA,sdf,NA,2,NA,NA,NA,NA,NA,NA,NA,NA,NA,NA,NA,NA,NA,NA,NA,NA,NA,NA,NA
96ef1,Shallow Question,html.Page,3_0_2_0_3_1_0,NA,NA,form submission,7845.8000000239,459765.69999993,459759.3,459776.3,467622.10000002,467622.39999998,2024-04-24T12:59:19Z,467637.9,NULL,Angreifer,mshambulizi,s,kitengo,tasinia,usafirishaji,kitengo,NA,NA,2,NA,NA,NA,NA,NA,NA,NA,NA,NA,NA,NA,NA,NA,NA,NA,NA,NA,NA,NA
96ef1,"""Richtig""-Screen",canvas.Screen,3_0_2_0_3_1_1,NA,NA,skipped,NA,467625.39999998,NA,NA,467622.10000002,467625.60000002,2024-04-24T12:59:19Z,467637.9,NULL,Angreifer,mshambulizi,s,kitengo,tasinia,usafirishaji,NA,sdf,NA,2,NA,NA,NA,NA,NA,NA,NA,NA,NA,NA,NA,NA,NA,NA,NA,NA,NA,NA,NA
96ef1,"""Falsch""-Screen",canvas.Screen,3_0_2_0_3_1_2,NA,NA,timeout,4997.2,467626.19999993,467621.396,467637.9,472618.1,472619,2024-04-24T12:59:24Z,472635.1,NULL,Angreifer,mshambulizi,s,kitengo,tasinia,usafirishaji,NA,sdf,0,2,NA,NA,NA,NA,NA,NA,NA,NA,NA,NA,NA,NA,NA,NA,NA,NA,NA,NA,NA
96ef1,shallow,flow.Sequence,3_0_2_0_3_1,NA,NA,completion,12841.8,459765.69999993,459759.3,459776.3,472618.1,472619.39999998,2024-04-24T12:59:24Z,472635.1,NULL,Angreifer,mshambulizi,s,kitengo,tasinia,usafirishaji,NA,sdf,NA,2,NA,NA,NA,NA,NA,NA,NA,NA,NA,NA,NA,NA,NA,NA,NA,NA,NA,NA,NA
96ef1,task,flow.Sequence,3_0_2_0_3,NA,NA,completion,12841.8,459765.60000002,459759.3,459776.3,472618.1,472619.60000002,2024-04-24T12:59:24Z,472635.1,NULL,Angreifer,mshambulizi,s,kitengo,tasinia,usafirishaji,NA,sdf,NA,2,NA,NA,NA,NA,NA,NA,NA,NA,NA,NA,NA,NA,NA,NA,NA,NA,NA,NA,NA
96ef1,Deep Question,html.Page,3_0_2_0_4_0_0,NA,NA,form submission,7884.7999999762,472619.79999995,472618.1,472635.1,480519.89999998,480520.19999993,2024-04-24T12:59:32Z,480529.7,NULL,Zufall,kikuti,d,NA,NA,NA,kitemo,NA,NA,2,NA,NA,NA,NA,NA,NA,NA,NA,NA,NA,NA,NA,NA,NA,NA,NA,NA,NA,NA
96ef1,"""Richtig""-Screen",canvas.Screen,3_0_2_0_4_0_1,NA,NA,skipped,NA,480523.10000002,NA,NA,480519.89999998,480523.19999993,2024-04-24T12:59:32Z,480529.7,NULL,Zufall,kikuti,d,NA,NA,NA,NA,sdf,NA,2,NA,NA,NA,NA,NA,NA,NA,NA,NA,NA,NA,NA,NA,NA,NA,NA,NA,NA,NA
96ef1,"""Falsch""-Screen",canvas.Screen,3_0_2_0_4_0_2,NA,NA,timeout,4996.9,480524,480513.854,480529.7,485510.3,485511.19999993,2024-04-24T12:59:37Z,485526.6,NULL,Zufall,kikuti,d,NA,NA,NA,NA,sdf,0,2,NA,NA,NA,NA,NA,NA,NA,NA,NA,NA,NA,NA,NA,NA,NA,NA,NA,NA,NA
96ef1,deep,flow.Sequence,3_0_2_0_4_0,NA,NA,completion,12875.2,472619.79999995,472618.1,472635.1,485510.3,485511.5,2024-04-24T12:59:37Z,485526.6,NULL,Zufall,kikuti,d,NA,NA,NA,NA,sdf,NA,2,NA,NA,NA,NA,NA,NA,NA,NA,NA,NA,NA,NA,NA,NA,NA,NA,NA,NA,NA
96ef1,shallow,flow.Sequence,3_0_2_0_4_1,NA,NA,skipped,NA,485511.69999993,NA,NA,485510.3,485511.79999995,2024-04-24T12:59:37Z,485526.6,NULL,Zufall,kikuti,d,NA,NA,NA,NA,sdf,NA,2,NA,NA,NA,NA,NA,NA,NA,NA,NA,NA,NA,NA,NA,NA,NA,NA,NA,NA,NA
96ef1,task,flow.Sequence,3_0_2_0_4,NA,NA,completion,12875.2,472619.69999993,472618.1,472635.1,485510.3,485512,2024-04-24T12:59:37Z,485526.6,NULL,Zufall,kikuti,d,NA,NA,NA,NA,sdf,NA,2,NA,NA,NA,NA,NA,NA,NA,NA,NA,NA,NA,NA,NA,NA,NA,NA,NA,NA,NA
96ef1,Deep Question,html.Page,3_0_2_0_5_0_0,NA,NA,form submission,4833.1999999523,485512.19999993,485510.3,485526.6,490359.79999995,490360,2024-04-24T12:59:42Z,490373.8,NULL,Abrechnung,uhasibu,d,NA,NA,NA,fagfg,NA,NA,2,NA,NA,NA,NA,NA,NA,NA,NA,NA,NA,NA,NA,NA,NA,NA,NA,NA,NA,NA
96ef1,"""Richtig""-Screen",canvas.Screen,3_0_2_0_5_0_1,NA,NA,skipped,NA,490363.19999993,NA,NA,490359.79999995,490363.29999995,2024-04-24T12:59:42Z,490373.8,NULL,Abrechnung,uhasibu,d,NA,NA,NA,NA,sdf,NA,2,NA,NA,NA,NA,NA,NA,NA,NA,NA,NA,NA,NA,NA,NA,NA,NA,NA,NA,NA
96ef1,"""Falsch""-Screen",canvas.Screen,3_0_2_0_5_0_2,NA,NA,timeout,4997.1,490364.19999993,490357.616,490373.8,495354.4,495355.39999998,2024-04-24T12:59:47Z,495370.9,NULL,Abrechnung,uhasibu,d,NA,NA,NA,NA,sdf,0,2,NA,NA,NA,NA,NA,NA,NA,NA,NA,NA,NA,NA,NA,NA,NA,NA,NA,NA,NA
96ef1,deep,flow.Sequence,3_0_2_0_5_0,NA,NA,completion,9827.8,485512.19999993,485510.3,485526.6,495354.4,495355.79999995,2024-04-24T12:59:47Z,495370.9,NULL,Abrechnung,uhasibu,d,NA,NA,NA,NA,sdf,NA,2,NA,NA,NA,NA,NA,NA,NA,NA,NA,NA,NA,NA,NA,NA,NA,NA,NA,NA,NA
96ef1,shallow,flow.Sequence,3_0_2_0_5_1,NA,NA,skipped,NA,495356,NA,NA,495354.4,495356.10000002,2024-04-24T12:59:47Z,495370.9,NULL,Abrechnung,uhasibu,d,NA,NA,NA,NA,sdf,NA,2,NA,NA,NA,NA,NA,NA,NA,NA,NA,NA,NA,NA,NA,NA,NA,NA,NA,NA,NA
96ef1,task,flow.Sequence,3_0_2_0_5,NA,NA,completion,9827.8,485512.10000002,485510.3,485526.6,495354.4,495356.29999995,2024-04-24T12:59:47Z,495370.9,NULL,Abrechnung,uhasibu,d,NA,NA,NA,NA,sdf,NA,2,NA,NA,NA,NA,NA,NA,NA,NA,NA,NA,NA,NA,NA,NA,NA,NA,NA,NA,NA
96ef1,Deep Question,html.Page,3_0_2_0_6_0_0,NA,NA,form submission,5025.7000000238,495356.39999998,495354.4,495370.9,500396.60000002,500396.79999995,2024-04-24T12:59:52Z,500401.358,NULL,Schönheit,kirembo,d,NA,NA,NA,mudaf,NA,NA,2,NA,NA,NA,NA,NA,NA,NA,NA,NA,NA,NA,NA,NA,NA,NA,NA,NA,NA,NA
96ef1,"""Richtig""-Screen",canvas.Screen,3_0_2_0_6_0_1,NA,NA,skipped,NA,500399.89999998,NA,NA,500396.60000002,500400,2024-04-24T12:59:52Z,500401.358,NULL,Schönheit,kirembo,d,NA,NA,NA,NA,sdf,NA,2,NA,NA,NA,NA,NA,NA,NA,NA,NA,NA,NA,NA,NA,NA,NA,NA,NA,NA,NA
96ef1,"""Falsch""-Screen",canvas.Screen,3_0_2_0_6_0_2,NA,NA,timeout,4996.742,500400.79999995,500401.358,500401.358,505381.5,505382,2024-04-24T12:59:57Z,505398.1,NULL,Schönheit,kirembo,d,NA,NA,NA,NA,sdf,0,2,NA,NA,NA,NA,NA,NA,NA,NA,NA,NA,NA,NA,NA,NA,NA,NA,NA,NA,NA
96ef1,deep,flow.Sequence,3_0_2_0_6_0,NA,NA,completion,10010.6,495356.39999998,495354.4,495370.9,505381.5,505382.10000002,2024-04-24T12:59:57Z,505398.1,NULL,Schönheit,kirembo,d,NA,NA,NA,NA,sdf,NA,2,NA,NA,NA,NA,NA,NA,NA,NA,NA,NA,NA,NA,NA,NA,NA,NA,NA,NA,NA
96ef1,shallow,flow.Sequence,3_0_2_0_6_1,NA,NA,skipped,NA,505382.10000002,NA,NA,505381.5,505382.19999993,2024-04-24T12:59:57Z,505398.1,NULL,Schönheit,kirembo,d,NA,NA,NA,NA,sdf,NA,2,NA,NA,NA,NA,NA,NA,NA,NA,NA,NA,NA,NA,NA,NA,NA,NA,NA,NA,NA
96ef1,task,flow.Sequence,3_0_2_0_6,NA,NA,completion,10010.6,495356.39999998,495354.4,495370.9,505381.5,505382.19999993,2024-04-24T12:59:57Z,505398.1,NULL,Schönheit,kirembo,d,NA,NA,NA,NA,sdf,NA,2,NA,NA,NA,NA,NA,NA,NA,NA,NA,NA,NA,NA,NA,NA,NA,NA,NA,NA,NA
96ef1,deep,flow.Sequence,3_0_2_0_7_0,NA,NA,skipped,NA,505382.19999993,NA,NA,505381.5,505382.19999993,2024-04-24T12:59:57Z,505398.1,NULL,Auftrag,uagizaji,s,ghanima,kuzingatia,msukani,NA,sdf,NA,2,NA,NA,NA,NA,NA,NA,NA,NA,NA,NA,NA,NA,NA,NA,NA,NA,NA,NA,NA
96ef1,Shallow Question,html.Page,3_0_2_0_7_1_0,NA,NA,form submission,5491.6999999523,505382.29999995,505381.5,505398.1,510889.79999995,510890,2024-04-24T13:00:02Z,510894.5,NULL,Auftrag,uagizaji,s,ghanima,kuzingatia,msukani,uagizaji,NA,NA,2,NA,NA,NA,NA,NA,NA,NA,NA,NA,NA,NA,NA,NA,NA,NA,NA,NA,NA,NA
96ef1,"""Richtig""-Screen",canvas.Screen,3_0_2_0_7_1_1,NA,NA,timeout,4997.5,510893.10000002,510878.358,510894.5,515875.3,515876.60000002,2024-04-24T13:00:07Z,515892,NULL,Auftrag,uagizaji,s,ghanima,kuzingatia,msukani,NA,sdf,1,2,NA,NA,NA,NA,NA,NA,NA,NA,NA,NA,NA,NA,NA,NA,NA,NA,NA,NA,NA
96ef1,"""Falsch""-Screen",canvas.Screen,3_0_2_0_7_1_2,NA,NA,skipped,NA,515880.89999998,NA,NA,515875.3,515881,2024-04-24T13:00:07Z,515892,NULL,Auftrag,uagizaji,s,ghanima,kuzingatia,msukani,NA,sdf,NA,2,NA,NA,NA,NA,NA,NA,NA,NA,NA,NA,NA,NA,NA,NA,NA,NA,NA,NA,NA
96ef1,shallow,flow.Sequence,3_0_2_0_7_1,NA,NA,completion,10477.2,505382.19999993,505381.5,505398.1,515875.3,515881.10000002,2024-04-24T13:00:07Z,515892,NULL,Auftrag,uagizaji,s,ghanima,kuzingatia,msukani,NA,sdf,NA,2,NA,NA,NA,NA,NA,NA,NA,NA,NA,NA,NA,NA,NA,NA,NA,NA,NA,NA,NA
96ef1,task,flow.Sequence,3_0_2_0_7,NA,NA,completion,10477.2,505382.19999993,505381.5,505398.1,515875.3,515881.10000002,2024-04-24T13:00:07Z,515892,NULL,Auftrag,uagizaji,s,ghanima,kuzingatia,msukani,NA,sdf,NA,2,NA,NA,NA,NA,NA,NA,NA,NA,NA,NA,NA,NA,NA,NA,NA,NA,NA,NA,NA
96ef1,block,flow.Loop,3_0_2_0,NA,NA,completion,93276.9,422594.60000002,422582.292,422598.4,515875.3,515881.10000002,2024-04-24T13:00:07Z,515892,NULL,NA,NA,NA,NA,NA,NA,NA,sdf,NA,2,NA,NA,NA,NA,NA,NA,NA,NA,NA,NA,NA,NA,NA,NA,NA,NA,NA,NA,NA
96ef1,weiter,canvas.Screen,3_0_2_1,sdf,keypress(Space),response,1914.7999999523,515881.19999993,515875.3,515892,517806.79999995,517807.79999995,2024-04-24T13:00:09Z,517824.752,NULL,NA,NA,NA,NA,NA,NA,NA,sdf,NA,2,NA,NA,NA,NA,NA,NA,NA,NA,NA,NA,NA,NA,NA,NA,NA,NA,NA,NA,NA
96ef1,check continue,flow.Sequence,3_0_2,NA,NA,completion,95208.399999952,422594.60000002,422582.292,422598.4,517806.79999995,517808.10000002,2024-04-24T13:00:09Z,517824.752,NULL,NA,NA,NA,NA,NA,NA,NA,sdf,NA,2,NA,NA,NA,NA,NA,NA,NA,NA,NA,NA,NA,NA,NA,NA,NA,NA,NA,NA,NA
96ef1,deep,flow.Sequence,3_0_3_0_0_0,NA,NA,skipped,NA,517826.19999993,NA,NA,517806.79999995,517826.29999995,2024-04-24T13:00:09Z,517824.752,NULL,Angreifer,mshambulizi,s,kitengo,tasinia,usafirishaji,NA,qt,NA,3,NA,NA,NA,NA,NA,NA,NA,NA,NA,NA,NA,NA,NA,NA,NA,NA,NA,NA,NA
96ef1,Shallow Question,html.Page,3_0_3_0_0_1_0,NA,NA,form submission,5431.3480000239,517826.39999998,517824.752,517824.752,523256.10000002,523256.29999995,2024-04-24T13:00:14Z,523270.2,NULL,Angreifer,mshambulizi,s,kitengo,tasinia,usafirishaji,mshambulizi,NA,NA,3,NA,NA,NA,NA,NA,NA,NA,NA,NA,NA,NA,NA,NA,NA,NA,NA,NA,NA,NA
96ef1,"""Richtig""-Screen",canvas.Screen,3_0_3_0_0_1_1,NA,NA,timeout,4997.1,523259.19999993,523254.286,523270.2,528250.6,528251.69999993,2024-04-24T13:00:19Z,528267.3,NULL,Angreifer,mshambulizi,s,kitengo,tasinia,usafirishaji,NA,qt,1,3,NA,NA,NA,NA,NA,NA,NA,NA,NA,NA,NA,NA,NA,NA,NA,NA,NA,NA,NA
96ef1,"""Falsch""-Screen",canvas.Screen,3_0_3_0_0_1_2,NA,NA,skipped,NA,528256.60000002,NA,NA,528250.6,528256.60000002,2024-04-24T13:00:19Z,528267.3,NULL,Angreifer,mshambulizi,s,kitengo,tasinia,usafirishaji,NA,qt,NA,3,NA,NA,NA,NA,NA,NA,NA,NA,NA,NA,NA,NA,NA,NA,NA,NA,NA,NA,NA
96ef1,shallow,flow.Sequence,3_0_3_0_0_1,NA,NA,completion,10425.848,517826.39999998,517824.752,517824.752,528250.6,528256.69999993,2024-04-24T13:00:19Z,528267.3,NULL,Angreifer,mshambulizi,s,kitengo,tasinia,usafirishaji,NA,qt,NA,3,NA,NA,NA,NA,NA,NA,NA,NA,NA,NA,NA,NA,NA,NA,NA,NA,NA,NA,NA
96ef1,task,flow.Sequence,3_0_3_0_0,NA,NA,completion,10425.848,517826.19999993,517824.752,517824.752,528250.6,528256.79999995,2024-04-24T13:00:19Z,528267.3,NULL,Angreifer,mshambulizi,s,kitengo,tasinia,usafirishaji,NA,qt,NA,3,NA,NA,NA,NA,NA,NA,NA,NA,NA,NA,NA,NA,NA,NA,NA,NA,NA,NA,NA
96ef1,deep,flow.Sequence,3_0_3_0_1_0,NA,NA,skipped,NA,528256.79999995,NA,NA,528250.6,528256.89999998,2024-04-24T13:00:19Z,528267.3,NULL,Wettbewerb,ushindani,s,mapendezi,kichocheo,ubaguzi,NA,qt,NA,3,NA,NA,NA,NA,NA,NA,NA,NA,NA,NA,NA,NA,NA,NA,NA,NA,NA,NA,NA
96ef1,Shallow Question,html.Page,3_0_3_0_1_1_0,NA,NA,form submission,6322.2,528256.89999998,528250.6,528267.3,534589.5,534589.79999995,2024-04-24T13:00:26Z,534596.9,NULL,Wettbewerb,ushindani,s,mapendezi,kichocheo,ubaguzi,ushindani,NA,NA,3,NA,NA,NA,NA,NA,NA,NA,NA,NA,NA,NA,NA,NA,NA,NA,NA,NA,NA,NA
96ef1,"""Richtig""-Screen",canvas.Screen,3_0_3_0_1_1_1,NA,NA,timeout,4997.1,534592.79999995,534580.4,534596.9,539577.2,539577.60000002,2024-04-24T13:00:31Z,539594,NULL,Wettbewerb,ushindani,s,mapendezi,kichocheo,ubaguzi,NA,qt,1,3,NA,NA,NA,NA,NA,NA,NA,NA,NA,NA,NA,NA,NA,NA,NA,NA,NA,NA,NA
96ef1,"""Falsch""-Screen",canvas.Screen,3_0_3_0_1_1_2,NA,NA,skipped,NA,539579.10000002,NA,NA,539577.2,539579.19999993,2024-04-24T13:00:31Z,539594,NULL,Wettbewerb,ushindani,s,mapendezi,kichocheo,ubaguzi,NA,qt,NA,3,NA,NA,NA,NA,NA,NA,NA,NA,NA,NA,NA,NA,NA,NA,NA,NA,NA,NA,NA
96ef1,shallow,flow.Sequence,3_0_3_0_1_1,NA,NA,completion,11309.9,528256.89999998,528250.6,528267.3,539577.2,539579.29999995,2024-04-24T13:00:31Z,539594,NULL,Wettbewerb,ushindani,s,mapendezi,kichocheo,ubaguzi,NA,qt,NA,3,NA,NA,NA,NA,NA,NA,NA,NA,NA,NA,NA,NA,NA,NA,NA,NA,NA,NA,NA
96ef1,task,flow.Sequence,3_0_3_0_1,NA,NA,completion,11309.9,528256.79999995,528250.6,528267.3,539577.2,539579.29999995,2024-04-24T13:00:31Z,539594,NULL,Wettbewerb,ushindani,s,mapendezi,kichocheo,ubaguzi,NA,qt,NA,3,NA,NA,NA,NA,NA,NA,NA,NA,NA,NA,NA,NA,NA,NA,NA,NA,NA,NA,NA
96ef1,Deep Question,html.Page,3_0_3_0_2_0_0,NA,NA,form submission,6719.2999999523,539579.39999998,539577.2,539594,546313.29999995,546313.39999998,2024-04-24T13:00:38Z,546339.9,NULL,Zufall,kikuti,d,NA,NA,NA,kituwai,NA,NA,3,NA,NA,NA,NA,NA,NA,NA,NA,NA,NA,NA,NA,NA,NA,NA,NA,NA,NA,NA
96ef1,"""Richtig""-Screen",canvas.Screen,3_0_3_0_2_0_1,NA,NA,skipped,NA,546315.29999995,NA,NA,546313.29999995,546315.39999998,2024-04-24T13:00:38Z,546339.9,NULL,Zufall,kikuti,d,NA,NA,NA,NA,qt,NA,3,NA,NA,NA,NA,NA,NA,NA,NA,NA,NA,NA,NA,NA,NA,NA,NA,NA,NA,NA
96ef1,"""Falsch""-Screen",canvas.Screen,3_0_3_0_2_0_2,NA,NA,timeout,4997.1,546315.89999998,546322.8,546339.9,551320.2,551321.10000002,2024-04-24T13:00:43Z,551337,NULL,Zufall,kikuti,d,NA,NA,NA,NA,qt,0,3,NA,NA,NA,NA,NA,NA,NA,NA,NA,NA,NA,NA,NA,NA,NA,NA,NA,NA,NA
96ef1,deep,flow.Sequence,3_0_3_0_2_0,NA,NA,completion,11726.2,539579.39999998,539577.2,539594,551320.2,551321.39999998,2024-04-24T13:00:43Z,551337,NULL,Zufall,kikuti,d,NA,NA,NA,NA,qt,NA,3,NA,NA,NA,NA,NA,NA,NA,NA,NA,NA,NA,NA,NA,NA,NA,NA,NA,NA,NA
96ef1,shallow,flow.Sequence,3_0_3_0_2_1,NA,NA,skipped,NA,551321.60000002,NA,NA,551320.2,551321.69999993,2024-04-24T13:00:43Z,551337,NULL,Zufall,kikuti,d,NA,NA,NA,NA,qt,NA,3,NA,NA,NA,NA,NA,NA,NA,NA,NA,NA,NA,NA,NA,NA,NA,NA,NA,NA,NA
96ef1,task,flow.Sequence,3_0_3_0_2,NA,NA,completion,11726.2,539579.29999995,539577.2,539594,551320.2,551321.89999998,2024-04-24T13:00:43Z,551337,NULL,Zufall,kikuti,d,NA,NA,NA,NA,qt,NA,3,NA,NA,NA,NA,NA,NA,NA,NA,NA,NA,NA,NA,NA,NA,NA,NA,NA,NA,NA
96ef1,Deep Question,html.Page,3_0_3_0_3_0_0,NA,NA,form submission,11055.399999976,551322.10000002,551320.2,551337,562392.39999998,562392.60000002,2024-04-24T13:00:54Z,562397.026,NULL,Schönheit,kirembo,d,NA,NA,NA,kukut,NA,NA,3,NA,NA,NA,NA,NA,NA,NA,NA,NA,NA,NA,NA,NA,NA,NA,NA,NA,NA,NA
96ef1,"""Richtig""-Screen",canvas.Screen,3_0_3_0_3_0_1,NA,NA,skipped,NA,562395.60000002,NA,NA,562392.39999998,562395.69999993,2024-04-24T13:00:54Z,562397.026,NULL,Schönheit,kirembo,d,NA,NA,NA,NA,qt,NA,3,NA,NA,NA,NA,NA,NA,NA,NA,NA,NA,NA,NA,NA,NA,NA,NA,NA,NA,NA
96ef1,"""Falsch""-Screen",canvas.Screen,3_0_3_0_3_0_2,NA,NA,timeout,4996.8740000001,562396.5,562397.026,562397.026,567376.7,567377.69999993,2024-04-24T13:00:59Z,567393.9,NULL,Schönheit,kirembo,d,NA,NA,NA,NA,qt,0,3,NA,NA,NA,NA,NA,NA,NA,NA,NA,NA,NA,NA,NA,NA,NA,NA,NA,NA,NA
96ef1,deep,flow.Sequence,3_0_3_0_3_0,NA,NA,completion,16039.7,551322.10000002,551320.2,551337,567376.7,567378.10000002,2024-04-24T13:00:59Z,567393.9,NULL,Schönheit,kirembo,d,NA,NA,NA,NA,qt,NA,3,NA,NA,NA,NA,NA,NA,NA,NA,NA,NA,NA,NA,NA,NA,NA,NA,NA,NA,NA
96ef1,shallow,flow.Sequence,3_0_3_0_3_1,NA,NA,skipped,NA,567378.19999993,NA,NA,567376.7,567378.39999998,2024-04-24T13:00:59Z,567393.9,NULL,Schönheit,kirembo,d,NA,NA,NA,NA,qt,NA,3,NA,NA,NA,NA,NA,NA,NA,NA,NA,NA,NA,NA,NA,NA,NA,NA,NA,NA,NA
96ef1,task,flow.Sequence,3_0_3_0_3,NA,NA,completion,16039.7,551322.10000002,551320.2,551337,567376.7,567378.60000002,2024-04-24T13:00:59Z,567393.9,NULL,Schönheit,kirembo,d,NA,NA,NA,NA,qt,NA,3,NA,NA,NA,NA,NA,NA,NA,NA,NA,NA,NA,NA,NA,NA,NA,NA,NA,NA,NA
96ef1,Deep Question,html.Page,3_0_3_0_4_0_0,NA,NA,form submission,4850.3999999523,567378.69999993,567376.7,567393.9,572244.29999995,572244.5,2024-04-24T13:01:03Z,572257.5,NULL,Kanzler,diwani,d,NA,NA,NA,hdff,NA,NA,3,NA,NA,NA,NA,NA,NA,NA,NA,NA,NA,NA,NA,NA,NA,NA,NA,NA,NA,NA
96ef1,"""Richtig""-Screen",canvas.Screen,3_0_3_0_4_0_1,NA,NA,skipped,NA,572247.5,NA,NA,572244.29999995,572247.69999993,2024-04-24T13:01:03Z,572257.5,NULL,Kanzler,diwani,d,NA,NA,NA,NA,qt,NA,3,NA,NA,NA,NA,NA,NA,NA,NA,NA,NA,NA,NA,NA,NA,NA,NA,NA,NA,NA
96ef1,"""Falsch""-Screen",canvas.Screen,3_0_3_0_4_0_2,NA,NA,timeout,4996.8,572248.29999995,572240.894,572257.5,577237.4,577238.29999995,2024-04-24T13:01:08Z,577254.3,NULL,Kanzler,diwani,d,NA,NA,NA,NA,qt,0,3,NA,NA,NA,NA,NA,NA,NA,NA,NA,NA,NA,NA,NA,NA,NA,NA,NA,NA,NA
96ef1,deep,flow.Sequence,3_0_3_0_4_0,NA,NA,completion,9843.5,567378.69999993,567376.7,567393.9,577237.4,577238.79999995,2024-04-24T13:01:08Z,577254.3,NULL,Kanzler,diwani,d,NA,NA,NA,NA,qt,NA,3,NA,NA,NA,NA,NA,NA,NA,NA,NA,NA,NA,NA,NA,NA,NA,NA,NA,NA,NA
96ef1,shallow,flow.Sequence,3_0_3_0_4_1,NA,NA,skipped,NA,577239,NA,NA,577237.4,577239.10000002,2024-04-24T13:01:08Z,577254.3,NULL,Kanzler,diwani,d,NA,NA,NA,NA,qt,NA,3,NA,NA,NA,NA,NA,NA,NA,NA,NA,NA,NA,NA,NA,NA,NA,NA,NA,NA,NA
96ef1,task,flow.Sequence,3_0_3_0_4,NA,NA,completion,9843.5,567378.69999993,567376.7,567393.9,577237.4,577239.19999993,2024-04-24T13:01:08Z,577254.3,NULL,Kanzler,diwani,d,NA,NA,NA,NA,qt,NA,3,NA,NA,NA,NA,NA,NA,NA,NA,NA,NA,NA,NA,NA,NA,NA,NA,NA,NA,NA
96ef1,deep,flow.Sequence,3_0_3_0_5_0,NA,NA,skipped,NA,577239.29999995,NA,NA,577237.4,577239.39999998,2024-04-24T13:01:08Z,577254.3,NULL,Auftrag,uagizaji,s,ghanima,kuzingatia,msukani,NA,qt,NA,3,NA,NA,NA,NA,NA,NA,NA,NA,NA,NA,NA,NA,NA,NA,NA,NA,NA,NA,NA
96ef1,Shallow Question,html.Page,3_0_3_0_5_1_0,NA,NA,form submission,4262.2,577239.60000002,577237.4,577254.3,581516.5,581516.69999993,2024-04-24T13:01:13Z,581518.712,NULL,Auftrag,uagizaji,s,ghanima,kuzingatia,msukani,uagizaji,NA,NA,3,NA,NA,NA,NA,NA,NA,NA,NA,NA,NA,NA,NA,NA,NA,NA,NA,NA,NA,NA
96ef1,"""Richtig""-Screen",canvas.Screen,3_0_3_0_5_1_1,NA,NA,timeout,4996.4879999999,581519.89999998,581518.712,581518.712,586498.5,586499.5,2024-04-24T13:01:18Z,586515.2,NULL,Auftrag,uagizaji,s,ghanima,kuzingatia,msukani,NA,qt,1,3,NA,NA,NA,NA,NA,NA,NA,NA,NA,NA,NA,NA,NA,NA,NA,NA,NA,NA,NA
96ef1,"""Falsch""-Screen",canvas.Screen,3_0_3_0_5_1_2,NA,NA,skipped,NA,586504.69999993,NA,NA,586498.5,586504.79999995,2024-04-24T13:01:18Z,586515.2,NULL,Auftrag,uagizaji,s,ghanima,kuzingatia,msukani,NA,qt,NA,3,NA,NA,NA,NA,NA,NA,NA,NA,NA,NA,NA,NA,NA,NA,NA,NA,NA,NA,NA
96ef1,shallow,flow.Sequence,3_0_3_0_5_1,NA,NA,completion,9244.2,577239.5,577237.4,577254.3,586498.5,586505.10000002,2024-04-24T13:01:18Z,586515.2,NULL,Auftrag,uagizaji,s,ghanima,kuzingatia,msukani,NA,qt,NA,3,NA,NA,NA,NA,NA,NA,NA,NA,NA,NA,NA,NA,NA,NA,NA,NA,NA,NA,NA
96ef1,task,flow.Sequence,3_0_3_0_5,NA,NA,completion,9244.2,577239.29999995,577237.4,577254.3,586498.5,586505.29999995,2024-04-24T13:01:18Z,586515.2,NULL,Auftrag,uagizaji,s,ghanima,kuzingatia,msukani,NA,qt,NA,3,NA,NA,NA,NA,NA,NA,NA,NA,NA,NA,NA,NA,NA,NA,NA,NA,NA,NA,NA
96ef1,Deep Question,html.Page,3_0_3_0_6_0_0,NA,NA,form submission,12706.499999929,586505.39999998,586498.5,586515.2,599221.69999993,599221.89999998,2024-04-24T13:01:30Z,599224.576,NULL,Abrechnung,uhasibu,d,NA,NA,NA,kikuti,NA,NA,3,NA,NA,NA,NA,NA,NA,NA,NA,NA,NA,NA,NA,NA,NA,NA,NA,NA,NA,NA
96ef1,"""Richtig""-Screen",canvas.Screen,3_0_3_0_6_0_1,NA,NA,skipped,NA,599223.89999998,NA,NA,599221.69999993,599224,2024-04-24T13:01:30Z,599224.576,NULL,Abrechnung,uhasibu,d,NA,NA,NA,NA,qt,NA,3,NA,NA,NA,NA,NA,NA,NA,NA,NA,NA,NA,NA,NA,NA,NA,NA,NA,NA,NA
96ef1,"""Falsch""-Screen",canvas.Screen,3_0_3_0_6_0_2,NA,NA,timeout,4996.724,599224.5,599224.576,599224.576,604204.2,604205.19999993,2024-04-24T13:01:35Z,604221.3,NULL,Abrechnung,uhasibu,d,NA,NA,NA,NA,qt,0,3,NA,NA,NA,NA,NA,NA,NA,NA,NA,NA,NA,NA,NA,NA,NA,NA,NA,NA,NA
96ef1,deep,flow.Sequence,3_0_3_0_6_0,NA,NA,completion,17689,586505.39999998,586498.5,586515.2,604204.2,604205.60000002,2024-04-24T13:01:35Z,604221.3,NULL,Abrechnung,uhasibu,d,NA,NA,NA,NA,qt,NA,3,NA,NA,NA,NA,NA,NA,NA,NA,NA,NA,NA,NA,NA,NA,NA,NA,NA,NA,NA
96ef1,shallow,flow.Sequence,3_0_3_0_6_1,NA,NA,skipped,NA,604205.69999993,NA,NA,604204.2,604205.79999995,2024-04-24T13:01:35Z,604221.3,NULL,Abrechnung,uhasibu,d,NA,NA,NA,NA,qt,NA,3,NA,NA,NA,NA,NA,NA,NA,NA,NA,NA,NA,NA,NA,NA,NA,NA,NA,NA,NA
96ef1,task,flow.Sequence,3_0_3_0_6,NA,NA,completion,17689,586505.39999998,586498.5,586515.2,604204.2,604206,2024-04-24T13:01:35Z,604221.3,NULL,Abrechnung,uhasibu,d,NA,NA,NA,NA,qt,NA,3,NA,NA,NA,NA,NA,NA,NA,NA,NA,NA,NA,NA,NA,NA,NA,NA,NA,NA,NA
96ef1,deep,flow.Sequence,3_0_3_0_7_0,NA,NA,skipped,NA,604206.10000002,NA,NA,604204.2,604206.19999993,2024-04-24T13:01:35Z,604221.3,NULL,Sänger,mwimbaji,s,msichana,shughuli,mshirika,NA,qt,NA,3,NA,NA,NA,NA,NA,NA,NA,NA,NA,NA,NA,NA,NA,NA,NA,NA,NA,NA,NA
96ef1,Shallow Question,html.Page,3_0_3_0_7_1_0,NA,NA,form submission,6194.8000000238,604206.39999998,604204.2,604221.3,610416.10000002,610416.29999995,2024-04-24T13:01:42Z,610417.46,NULL,Sänger,mwimbaji,s,msichana,shughuli,mshirika,mwimbaji,NA,NA,3,NA,NA,NA,NA,NA,NA,NA,NA,NA,NA,NA,NA,NA,NA,NA,NA,NA,NA,NA
96ef1,"""Richtig""-Screen",canvas.Screen,3_0_3_0_7_1_1,NA,NA,timeout,4996.9400000001,610419.10000002,610417.46,610417.46,615397.3,615398.19999993,2024-04-24T13:01:47Z,615414.4,NULL,Sänger,mwimbaji,s,msichana,shughuli,mshirika,NA,qt,1,3,NA,NA,NA,NA,NA,NA,NA,NA,NA,NA,NA,NA,NA,NA,NA,NA,NA,NA,NA
96ef1,"""Falsch""-Screen",canvas.Screen,3_0_3_0_7_1_2,NA,NA,skipped,NA,615402.89999998,NA,NA,615397.3,615403,2024-04-24T13:01:47Z,615414.4,NULL,Sänger,mwimbaji,s,msichana,shughuli,mshirika,NA,qt,NA,3,NA,NA,NA,NA,NA,NA,NA,NA,NA,NA,NA,NA,NA,NA,NA,NA,NA,NA,NA
96ef1,shallow,flow.Sequence,3_0_3_0_7_1,NA,NA,completion,11176,604206.29999995,604204.2,604221.3,615397.3,615403.10000002,2024-04-24T13:01:47Z,615414.4,NULL,Sänger,mwimbaji,s,msichana,shughuli,mshirika,NA,qt,NA,3,NA,NA,NA,NA,NA,NA,NA,NA,NA,NA,NA,NA,NA,NA,NA,NA,NA,NA,NA
96ef1,task,flow.Sequence,3_0_3_0_7,NA,NA,completion,11176,604206,604204.2,604221.3,615397.3,615403.10000002,2024-04-24T13:01:47Z,615414.4,NULL,Sänger,mwimbaji,s,msichana,shughuli,mshirika,NA,qt,NA,3,NA,NA,NA,NA,NA,NA,NA,NA,NA,NA,NA,NA,NA,NA,NA,NA,NA,NA,NA
96ef1,block,flow.Loop,3_0_3_0,NA,NA,completion,97572.548,517826.19999993,517824.752,517824.752,615397.3,615403.19999993,2024-04-24T13:01:47Z,615414.4,NULL,NA,NA,NA,NA,NA,NA,NA,qt,NA,3,NA,NA,NA,NA,NA,NA,NA,NA,NA,NA,NA,NA,NA,NA,NA,NA,NA,NA,NA
96ef1,weiter,canvas.Screen,3_0_3_1,sdf,keypress(Space),response,1413.1,615403.19999993,615397.3,615414.4,616827.5,616828.5,2024-04-24T13:01:48Z,616846.4,NULL,NA,NA,NA,NA,NA,NA,NA,qt,NA,3,NA,NA,NA,NA,NA,NA,NA,NA,NA,NA,NA,NA,NA,NA,NA,NA,NA,NA,NA
96ef1,check continue,flow.Sequence,3_0_3,NA,NA,completion,99002.748,517826.19999993,517824.752,517824.752,616827.5,616828.79999995,2024-04-24T13:01:48Z,616846.4,NULL,NA,NA,NA,NA,NA,NA,NA,qt,NA,3,NA,NA,NA,NA,NA,NA,NA,NA,NA,NA,NA,NA,NA,NA,NA,NA,NA,NA,NA
96ef1,deep,flow.Sequence,3_0_4_0_0_0,NA,NA,skipped,NA,616847.10000002,NA,NA,616827.5,616847.29999995,2024-04-24T13:01:48Z,616846.4,NULL,Sänger,mwimbaji,s,msichana,shughuli,mshirika,NA,sd,NA,4,NA,NA,NA,NA,NA,NA,NA,NA,NA,NA,NA,NA,NA,NA,NA,NA,NA,NA,NA
96ef1,Shallow Question,html.Page,3_0_4_0_0_1_0,NA,NA,form submission,4659.6,616847.29999995,616831.014,616846.4,621506,621506.29999995,2024-04-24T13:01:53Z,621510.3,NULL,Sänger,mwimbaji,s,msichana,shughuli,mshirika,mwimbaji,NA,NA,4,NA,NA,NA,NA,NA,NA,NA,NA,NA,NA,NA,NA,NA,NA,NA,NA,NA,NA,NA
96ef1,"""Richtig""-Screen",canvas.Screen,3_0_4_0_0_1_1,NA,NA,timeout,4997,621509.10000002,621496.328,621510.3,626490.9,626491.79999995,2024-04-24T13:01:58Z,626507.3,NULL,Sänger,mwimbaji,s,msichana,shughuli,mshirika,NA,sd,1,4,NA,NA,NA,NA,NA,NA,NA,NA,NA,NA,NA,NA,NA,NA,NA,NA,NA,NA,NA
96ef1,"""Falsch""-Screen",canvas.Screen,3_0_4_0_0_1_2,NA,NA,skipped,NA,626497.10000002,NA,NA,626490.9,626497.39999998,2024-04-24T13:01:58Z,626507.3,NULL,Sänger,mwimbaji,s,msichana,shughuli,mshirika,NA,sd,NA,4,NA,NA,NA,NA,NA,NA,NA,NA,NA,NA,NA,NA,NA,NA,NA,NA,NA,NA,NA
96ef1,shallow,flow.Sequence,3_0_4_0_0_1,NA,NA,completion,9644.5,616847.29999995,616831.014,616846.4,626490.9,626497.60000002,2024-04-24T13:01:58Z,626507.3,NULL,Sänger,mwimbaji,s,msichana,shughuli,mshirika,NA,sd,NA,4,NA,NA,NA,NA,NA,NA,NA,NA,NA,NA,NA,NA,NA,NA,NA,NA,NA,NA,NA
96ef1,task,flow.Sequence,3_0_4_0_0,NA,NA,completion,9644.5,616847.10000002,616831.014,616846.4,626490.9,626497.79999995,2024-04-24T13:01:58Z,626507.3,NULL,Sänger,mwimbaji,s,msichana,shughuli,mshirika,NA,sd,NA,4,NA,NA,NA,NA,NA,NA,NA,NA,NA,NA,NA,NA,NA,NA,NA,NA,NA,NA,NA
96ef1,Deep Question,html.Page,3_0_4_0_1_0_0,NA,NA,form submission,5906.4999999523,626498,626490.9,626507.3,632413.79999995,632414.10000002,2024-04-24T13:02:04Z,632420.2,NULL,Zufall,kikuti,d,NA,NA,NA,kitemo,NA,NA,4,NA,NA,NA,NA,NA,NA,NA,NA,NA,NA,NA,NA,NA,NA,NA,NA,NA,NA,NA
96ef1,"""Richtig""-Screen",canvas.Screen,3_0_4_0_1_0_1,NA,NA,skipped,NA,632417,NA,NA,632413.79999995,632417,2024-04-24T13:02:04Z,632420.2,NULL,Zufall,kikuti,d,NA,NA,NA,NA,sd,NA,4,NA,NA,NA,NA,NA,NA,NA,NA,NA,NA,NA,NA,NA,NA,NA,NA,NA,NA,NA
96ef1,"""Falsch""-Screen",canvas.Screen,3_0_4_0_1_0_2,NA,NA,timeout,4997.5,632417.79999995,632403.9,632420.2,637400.9,637401.39999998,2024-04-24T13:02:09Z,637417.7,NULL,Zufall,kikuti,d,NA,NA,NA,NA,sd,0,4,NA,NA,NA,NA,NA,NA,NA,NA,NA,NA,NA,NA,NA,NA,NA,NA,NA,NA,NA
96ef1,deep,flow.Sequence,3_0_4_0_1_0,NA,NA,completion,10893.6,626497.89999998,626490.9,626507.3,637400.9,637401.5,2024-04-24T13:02:09Z,637417.7,NULL,Zufall,kikuti,d,NA,NA,NA,NA,sd,NA,4,NA,NA,NA,NA,NA,NA,NA,NA,NA,NA,NA,NA,NA,NA,NA,NA,NA,NA,NA
96ef1,shallow,flow.Sequence,3_0_4_0_1_1,NA,NA,skipped,NA,637401.5,NA,NA,637400.9,637401.5,2024-04-24T13:02:09Z,637417.7,NULL,Zufall,kikuti,d,NA,NA,NA,NA,sd,NA,4,NA,NA,NA,NA,NA,NA,NA,NA,NA,NA,NA,NA,NA,NA,NA,NA,NA,NA,NA
96ef1,task,flow.Sequence,3_0_4_0_1,NA,NA,completion,10893.6,626497.89999998,626490.9,626507.3,637400.9,637401.60000002,2024-04-24T13:02:09Z,637417.7,NULL,Zufall,kikuti,d,NA,NA,NA,NA,sd,NA,4,NA,NA,NA,NA,NA,NA,NA,NA,NA,NA,NA,NA,NA,NA,NA,NA,NA,NA,NA
96ef1,deep,flow.Sequence,3_0_4_0_2_0,NA,NA,skipped,NA,637401.60000002,NA,NA,637400.9,637401.60000002,2024-04-24T13:02:09Z,637417.7,NULL,Wettbewerb,ushindani,s,mapendezi,kichocheo,ubaguzi,NA,sd,NA,4,NA,NA,NA,NA,NA,NA,NA,NA,NA,NA,NA,NA,NA,NA,NA,NA,NA,NA,NA
96ef1,Shallow Question,html.Page,3_0_4_0_2_1_0,NA,NA,form submission,6335.9999999285,637401.69999993,637400.9,637417.7,643753.69999993,643753.89999998,2024-04-24T13:02:15Z,643763.3,NULL,Wettbewerb,ushindani,s,mapendezi,kichocheo,ubaguzi,ushindani,NA,NA,4,NA,NA,NA,NA,NA,NA,NA,NA,NA,NA,NA,NA,NA,NA,NA,NA,NA,NA,NA
96ef1,"""Richtig""-Screen",canvas.Screen,3_0_4_0_2_1_1,NA,NA,timeout,4997.2,643756.5,643747.12,643763.3,648744,648745,2024-04-24T13:02:20Z,648760.5,NULL,Wettbewerb,ushindani,s,mapendezi,kichocheo,ubaguzi,NA,sd,1,4,NA,NA,NA,NA,NA,NA,NA,NA,NA,NA,NA,NA,NA,NA,NA,NA,NA,NA,NA
96ef1,"""Falsch""-Screen",canvas.Screen,3_0_4_0_2_1_2,NA,NA,skipped,NA,648749.89999998,NA,NA,648744,648750.19999993,2024-04-24T13:02:20Z,648760.5,NULL,Wettbewerb,ushindani,s,mapendezi,kichocheo,ubaguzi,NA,sd,NA,4,NA,NA,NA,NA,NA,NA,NA,NA,NA,NA,NA,NA,NA,NA,NA,NA,NA,NA,NA
96ef1,shallow,flow.Sequence,3_0_4_0_2_1,NA,NA,completion,11326.3,637401.69999993,637400.9,637417.7,648744,648750.29999995,2024-04-24T13:02:20Z,648760.5,NULL,Wettbewerb,ushindani,s,mapendezi,kichocheo,ubaguzi,NA,sd,NA,4,NA,NA,NA,NA,NA,NA,NA,NA,NA,NA,NA,NA,NA,NA,NA,NA,NA,NA,NA
96ef1,task,flow.Sequence,3_0_4_0_2,NA,NA,completion,11326.3,637401.60000002,637400.9,637417.7,648744,648750.39999998,2024-04-24T13:02:20Z,648760.5,NULL,Wettbewerb,ushindani,s,mapendezi,kichocheo,ubaguzi,NA,sd,NA,4,NA,NA,NA,NA,NA,NA,NA,NA,NA,NA,NA,NA,NA,NA,NA,NA,NA,NA,NA
96ef1,deep,flow.Sequence,3_0_4_0_3_0,NA,NA,skipped,NA,648750.5,NA,NA,648744,648750.5,2024-04-24T13:02:20Z,648760.5,NULL,Auftrag,uagizaji,s,ghanima,kuzingatia,msukani,NA,sd,NA,4,NA,NA,NA,NA,NA,NA,NA,NA,NA,NA,NA,NA,NA,NA,NA,NA,NA,NA,NA
96ef1,Shallow Question,html.Page,3_0_4_0_3_1_0,NA,NA,form submission,6133.7999999523,648750.60000002,648744,648760.5,654894.29999995,654894.5,2024-04-24T13:02:26Z,654906.6,NULL,Auftrag,uagizaji,s,ghanima,kuzingatia,msukani,uagizaji,NA,NA,4,NA,NA,NA,NA,NA,NA,NA,NA,NA,NA,NA,NA,NA,NA,NA,NA,NA,NA,NA
96ef1,"""Richtig""-Screen",canvas.Screen,3_0_4_0_3_1_1,NA,NA,timeout,4997.1,654897.39999998,654890.734,654906.6,659887.2,659888.10000002,2024-04-24T13:02:31Z,659903.7,NULL,Auftrag,uagizaji,s,ghanima,kuzingatia,msukani,NA,sd,1,4,NA,NA,NA,NA,NA,NA,NA,NA,NA,NA,NA,NA,NA,NA,NA,NA,NA,NA,NA
96ef1,"""Falsch""-Screen",canvas.Screen,3_0_4_0_3_1_2,NA,NA,skipped,NA,659893.5,NA,NA,659887.2,659893.69999993,2024-04-24T13:02:31Z,659903.7,NULL,Auftrag,uagizaji,s,ghanima,kuzingatia,msukani,NA,sd,NA,4,NA,NA,NA,NA,NA,NA,NA,NA,NA,NA,NA,NA,NA,NA,NA,NA,NA,NA,NA
96ef1,shallow,flow.Sequence,3_0_4_0_3_1,NA,NA,completion,11126.7,648750.5,648744,648760.5,659887.2,659894,2024-04-24T13:02:31Z,659903.7,NULL,Auftrag,uagizaji,s,ghanima,kuzingatia,msukani,NA,sd,NA,4,NA,NA,NA,NA,NA,NA,NA,NA,NA,NA,NA,NA,NA,NA,NA,NA,NA,NA,NA
96ef1,task,flow.Sequence,3_0_4_0_3,NA,NA,completion,11126.7,648750.39999998,648744,648760.5,659887.2,659894.10000002,2024-04-24T13:02:31Z,659903.7,NULL,Auftrag,uagizaji,s,ghanima,kuzingatia,msukani,NA,sd,NA,4,NA,NA,NA,NA,NA,NA,NA,NA,NA,NA,NA,NA,NA,NA,NA,NA,NA,NA,NA
96ef1,Deep Question,html.Page,3_0_4_0_4_0_0,NA,NA,form submission,5799.9999999285,659894.29999995,659887.2,659903.7,665703.69999993,665703.89999998,2024-04-24T13:02:37Z,665716.8,NULL,Abrechnung,uhasibu,d,NA,NA,NA,kikuti,NA,NA,4,NA,NA,NA,NA,NA,NA,NA,NA,NA,NA,NA,NA,NA,NA,NA,NA,NA,NA,NA
96ef1,"""Richtig""-Screen",canvas.Screen,3_0_4_0_4_0_1,NA,NA,skipped,NA,665706.89999998,NA,NA,665703.69999993,665707,2024-04-24T13:02:37Z,665716.8,NULL,Abrechnung,uhasibu,d,NA,NA,NA,NA,sd,NA,4,NA,NA,NA,NA,NA,NA,NA,NA,NA,NA,NA,NA,NA,NA,NA,NA,NA,NA,NA
96ef1,"""Falsch""-Screen",canvas.Screen,3_0_4_0_4_0_2,NA,NA,timeout,4997,665707.69999993,665701.462,665716.8,670697.2,670697.69999993,2024-04-24T13:02:42Z,670713.8,NULL,Abrechnung,uhasibu,d,NA,NA,NA,NA,sd,0,4,NA,NA,NA,NA,NA,NA,NA,NA,NA,NA,NA,NA,NA,NA,NA,NA,NA,NA,NA
96ef1,deep,flow.Sequence,3_0_4_0_4_0,NA,NA,completion,10793.5,659894.29999995,659887.2,659903.7,670697.2,670697.89999998,2024-04-24T13:02:42Z,670713.8,NULL,Abrechnung,uhasibu,d,NA,NA,NA,NA,sd,NA,4,NA,NA,NA,NA,NA,NA,NA,NA,NA,NA,NA,NA,NA,NA,NA,NA,NA,NA,NA
96ef1,shallow,flow.Sequence,3_0_4_0_4_1,NA,NA,skipped,NA,670697.89999998,NA,NA,670697.2,670697.89999998,2024-04-24T13:02:42Z,670713.8,NULL,Abrechnung,uhasibu,d,NA,NA,NA,NA,sd,NA,4,NA,NA,NA,NA,NA,NA,NA,NA,NA,NA,NA,NA,NA,NA,NA,NA,NA,NA,NA
96ef1,task,flow.Sequence,3_0_4_0_4,NA,NA,completion,10793.5,659894.29999995,659887.2,659903.7,670697.2,670698,2024-04-24T13:02:42Z,670713.8,NULL,Abrechnung,uhasibu,d,NA,NA,NA,NA,sd,NA,4,NA,NA,NA,NA,NA,NA,NA,NA,NA,NA,NA,NA,NA,NA,NA,NA,NA,NA,NA
96ef1,Deep Question,html.Page,3_0_4_0_5_0_0,NA,NA,form submission,5075.9999999523,670698,670697.2,670713.8,675789.79999995,675789.89999998,2024-04-24T13:02:47Z,675793.994,NULL,Schönheit,kirembo,d,NA,NA,NA,diwani,NA,NA,4,NA,NA,NA,NA,NA,NA,NA,NA,NA,NA,NA,NA,NA,NA,NA,NA,NA,NA,NA
96ef1,"""Richtig""-Screen",canvas.Screen,3_0_4_0_5_0_1,NA,NA,skipped,NA,675793,NA,NA,675789.79999995,675793.10000002,2024-04-24T13:02:47Z,675793.994,NULL,Schönheit,kirembo,d,NA,NA,NA,NA,sd,NA,4,NA,NA,NA,NA,NA,NA,NA,NA,NA,NA,NA,NA,NA,NA,NA,NA,NA,NA,NA
96ef1,"""Falsch""-Screen",canvas.Screen,3_0_4_0_5_0_2,NA,NA,timeout,4997.106,675793.79999995,675793.994,675793.994,680774.5,680775.39999998,2024-04-24T13:02:52Z,680791.1,NULL,Schönheit,kirembo,d,NA,NA,NA,NA,sd,0,4,NA,NA,NA,NA,NA,NA,NA,NA,NA,NA,NA,NA,NA,NA,NA,NA,NA,NA,NA
96ef1,deep,flow.Sequence,3_0_4_0_5_0,NA,NA,completion,10060.7,670698,670697.2,670713.8,680774.5,680775.79999995,2024-04-24T13:02:52Z,680791.1,NULL,Schönheit,kirembo,d,NA,NA,NA,NA,sd,NA,4,NA,NA,NA,NA,NA,NA,NA,NA,NA,NA,NA,NA,NA,NA,NA,NA,NA,NA,NA
96ef1,shallow,flow.Sequence,3_0_4_0_5_1,NA,NA,skipped,NA,680775.89999998,NA,NA,680774.5,680776.10000002,2024-04-24T13:02:52Z,680791.1,NULL,Schönheit,kirembo,d,NA,NA,NA,NA,sd,NA,4,NA,NA,NA,NA,NA,NA,NA,NA,NA,NA,NA,NA,NA,NA,NA,NA,NA,NA,NA
96ef1,task,flow.Sequence,3_0_4_0_5,NA,NA,completion,10060.7,670698,670697.2,670713.8,680774.5,680776.29999995,2024-04-24T13:02:52Z,680791.1,NULL,Schönheit,kirembo,d,NA,NA,NA,NA,sd,NA,4,NA,NA,NA,NA,NA,NA,NA,NA,NA,NA,NA,NA,NA,NA,NA,NA,NA,NA,NA
96ef1,deep,flow.Sequence,3_0_4_0_6_0,NA,NA,skipped,NA,680776.39999998,NA,NA,680774.5,680776.5,2024-04-24T13:02:52Z,680791.1,NULL,Angreifer,mshambulizi,s,kitengo,tasinia,usafirishaji,NA,sd,NA,4,NA,NA,NA,NA,NA,NA,NA,NA,NA,NA,NA,NA,NA,NA,NA,NA,NA,NA,NA
96ef1,Shallow Question,html.Page,3_0_4_0_6_1_0,NA,NA,form submission,7559.9,680776.69999993,680774.5,680791.1,688351,688351.10000002,2024-04-24T13:03:00Z,688353.224,NULL,Angreifer,mshambulizi,s,kitengo,tasinia,usafirishaji,kitengo,NA,NA,4,NA,NA,NA,NA,NA,NA,NA,NA,NA,NA,NA,NA,NA,NA,NA,NA,NA,NA,NA
96ef1,"""Richtig""-Screen",canvas.Screen,3_0_4_0_6_1_1,NA,NA,skipped,NA,688353.10000002,NA,NA,688351,688353.19999993,2024-04-24T13:03:00Z,688353.224,NULL,Angreifer,mshambulizi,s,kitengo,tasinia,usafirishaji,NA,sd,NA,4,NA,NA,NA,NA,NA,NA,NA,NA,NA,NA,NA,NA,NA,NA,NA,NA,NA,NA,NA
96ef1,"""Falsch""-Screen",canvas.Screen,3_0_4_0_6_1_2,NA,NA,timeout,4996.776,688353.69999993,688353.224,688353.224,693333,693334,2024-04-24T13:03:05Z,693350,NULL,Angreifer,mshambulizi,s,kitengo,tasinia,usafirishaji,NA,sd,0,4,NA,NA,NA,NA,NA,NA,NA,NA,NA,NA,NA,NA,NA,NA,NA,NA,NA,NA,NA
96ef1,shallow,flow.Sequence,3_0_4_0_6_1,NA,NA,completion,12541.9,680776.60000002,680774.5,680791.1,693333,693334.29999995,2024-04-24T13:03:05Z,693350,NULL,Angreifer,mshambulizi,s,kitengo,tasinia,usafirishaji,NA,sd,NA,4,NA,NA,NA,NA,NA,NA,NA,NA,NA,NA,NA,NA,NA,NA,NA,NA,NA,NA,NA
96ef1,task,flow.Sequence,3_0_4_0_6,NA,NA,completion,12541.9,680776.39999998,680774.5,680791.1,693333,693334.5,2024-04-24T13:03:05Z,693350,NULL,Angreifer,mshambulizi,s,kitengo,tasinia,usafirishaji,NA,sd,NA,4,NA,NA,NA,NA,NA,NA,NA,NA,NA,NA,NA,NA,NA,NA,NA,NA,NA,NA,NA
96ef1,Deep Question,html.Page,3_0_4_0_7_0_0,NA,NA,form submission,5664.5,693334.69999993,693333,693350,699014.5,699014.69999993,2024-04-24T13:03:10Z,699029.7,NULL,Kanzler,diwani,d,NA,NA,NA,diwani,NA,NA,4,NA,NA,NA,NA,NA,NA,NA,NA,NA,NA,NA,NA,NA,NA,NA,NA,NA,NA,NA
96ef1,"""Richtig""-Screen",canvas.Screen,3_0_4_0_7_0_1,NA,NA,timeout,4997.1000000001,699017.69999993,699013.492,699029.7,704010.1,704010.60000002,2024-04-24T13:03:15Z,704026.8,NULL,Kanzler,diwani,d,NA,NA,NA,NA,sd,1,4,NA,NA,NA,NA,NA,NA,NA,NA,NA,NA,NA,NA,NA,NA,NA,NA,NA,NA,NA
96ef1,"""Falsch""-Screen",canvas.Screen,3_0_4_0_7_0_2,NA,NA,skipped,NA,704013.19999993,NA,NA,704010.1,704013.19999993,2024-04-24T13:03:15Z,704026.8,NULL,Kanzler,diwani,d,NA,NA,NA,NA,sd,NA,4,NA,NA,NA,NA,NA,NA,NA,NA,NA,NA,NA,NA,NA,NA,NA,NA,NA,NA,NA
96ef1,deep,flow.Sequence,3_0_4_0_7_0,NA,NA,completion,10660.1,693334.69999993,693333,693350,704010.1,704013.39999998,2024-04-24T13:03:15Z,704026.8,NULL,Kanzler,diwani,d,NA,NA,NA,NA,sd,NA,4,NA,NA,NA,NA,NA,NA,NA,NA,NA,NA,NA,NA,NA,NA,NA,NA,NA,NA,NA
96ef1,shallow,flow.Sequence,3_0_4_0_7_1,NA,NA,skipped,NA,704013.5,NA,NA,704010.1,704013.60000002,2024-04-24T13:03:15Z,704026.8,NULL,Kanzler,diwani,d,NA,NA,NA,NA,sd,NA,4,NA,NA,NA,NA,NA,NA,NA,NA,NA,NA,NA,NA,NA,NA,NA,NA,NA,NA,NA
96ef1,task,flow.Sequence,3_0_4_0_7,NA,NA,completion,10660.1,693334.69999993,693333,693350,704010.1,704013.60000002,2024-04-24T13:03:15Z,704026.8,NULL,Kanzler,diwani,d,NA,NA,NA,NA,sd,NA,4,NA,NA,NA,NA,NA,NA,NA,NA,NA,NA,NA,NA,NA,NA,NA,NA,NA,NA,NA
96ef1,block,flow.Loop,3_0_4_0,NA,NA,completion,87163.7,616847.10000002,616831.014,616846.4,704010.1,704013.69999993,2024-04-24T13:03:15Z,704026.8,NULL,NA,NA,NA,NA,NA,NA,NA,sd,NA,4,NA,NA,NA,NA,NA,NA,NA,NA,NA,NA,NA,NA,NA,NA,NA,NA,NA,NA,NA
96ef1,weiter,canvas.Screen,3_0_4_1,sdf,keypress(Space),response,1151.3999999284,704013.79999995,704010.1,704026.8,705178.19999993,705179.10000002,2024-04-24T13:03:16Z,705193.42,NULL,NA,NA,NA,NA,NA,NA,NA,sd,NA,4,NA,NA,NA,NA,NA,NA,NA,NA,NA,NA,NA,NA,NA,NA,NA,NA,NA,NA,NA
96ef1,check continue,flow.Sequence,3_0_4,NA,NA,completion,88331.799999928,616847.10000002,616831.014,616846.4,705178.19999993,705179.29999995,2024-04-24T13:03:16Z,705193.42,NULL,NA,NA,NA,NA,NA,NA,NA,sd,NA,4,NA,NA,NA,NA,NA,NA,NA,NA,NA,NA,NA,NA,NA,NA,NA,NA,NA,NA,NA
96ef1,deep,flow.Sequence,3_0_5_0_0_0,NA,NA,skipped,NA,705197,NA,NA,705178.19999993,705197.10000002,2024-04-24T13:03:16Z,705193.42,NULL,Sänger,mwimbaji,s,msichana,shughuli,mshirika,NA,sdf,NA,5,NA,NA,NA,NA,NA,NA,NA,NA,NA,NA,NA,NA,NA,NA,NA,NA,NA,NA,NA
96ef1,Shallow Question,html.Page,3_0_5_0_0_1_0,NA,NA,form submission,6068.4799999761,705197.19999993,705193.42,705193.42,711261.89999998,711262.10000002,2024-04-24T13:03:22Z,711272,NULL,Sänger,mwimbaji,s,msichana,shughuli,mshirika,mwimbaji,NA,NA,5,NA,NA,NA,NA,NA,NA,NA,NA,NA,NA,NA,NA,NA,NA,NA,NA,NA,NA,NA
96ef1,"""Richtig""-Screen",canvas.Screen,3_0_5_0_0_1_1,NA,NA,timeout,4997.3,711265,711256.078,711272,716252.5,716253.29999995,2024-04-24T13:03:27Z,716269.3,NULL,Sänger,mwimbaji,s,msichana,shughuli,mshirika,NA,sdf,1,5,NA,NA,NA,NA,NA,NA,NA,NA,NA,NA,NA,NA,NA,NA,NA,NA,NA,NA,NA
96ef1,"""Falsch""-Screen",canvas.Screen,3_0_5_0_0_1_2,NA,NA,skipped,NA,716258,NA,NA,716252.5,716258,2024-04-24T13:03:27Z,716269.3,NULL,Sänger,mwimbaji,s,msichana,shughuli,mshirika,NA,sdf,NA,5,NA,NA,NA,NA,NA,NA,NA,NA,NA,NA,NA,NA,NA,NA,NA,NA,NA,NA,NA
96ef1,shallow,flow.Sequence,3_0_5_0_0_1,NA,NA,completion,11059.08,705197.19999993,705193.42,705193.42,716252.5,716258.10000002,2024-04-24T13:03:27Z,716269.3,NULL,Sänger,mwimbaji,s,msichana,shughuli,mshirika,NA,sdf,NA,5,NA,NA,NA,NA,NA,NA,NA,NA,NA,NA,NA,NA,NA,NA,NA,NA,NA,NA,NA
96ef1,task,flow.Sequence,3_0_5_0_0,NA,NA,completion,11059.08,705197,705193.42,705193.42,716252.5,716258.29999995,2024-04-24T13:03:27Z,716269.3,NULL,Sänger,mwimbaji,s,msichana,shughuli,mshirika,NA,sdf,NA,5,NA,NA,NA,NA,NA,NA,NA,NA,NA,NA,NA,NA,NA,NA,NA,NA,NA,NA,NA
96ef1,Deep Question,html.Page,3_0_5_0_1_0_0,NA,NA,form submission,5420.8000000238,716258.29999995,716252.5,716269.3,721690.10000002,721690.19999993,2024-04-24T13:03:33Z,721699,NULL,Kanzler,diwani,d,NA,NA,NA,diwani,NA,NA,5,NA,NA,NA,NA,NA,NA,NA,NA,NA,NA,NA,NA,NA,NA,NA,NA,NA,NA,NA
96ef1,"""Richtig""-Screen",canvas.Screen,3_0_5_0_1_0_1,NA,NA,timeout,4997.3,721692.69999993,721682.8,721699,726679.6,726680.39999998,2024-04-24T13:03:38Z,726696.3,NULL,Kanzler,diwani,d,NA,NA,NA,NA,sdf,1,5,NA,NA,NA,NA,NA,NA,NA,NA,NA,NA,NA,NA,NA,NA,NA,NA,NA,NA,NA
96ef1,"""Falsch""-Screen",canvas.Screen,3_0_5_0_1_0_2,NA,NA,skipped,NA,726685.19999993,NA,NA,726679.6,726685.39999998,2024-04-24T13:03:38Z,726696.3,NULL,Kanzler,diwani,d,NA,NA,NA,NA,sdf,NA,5,NA,NA,NA,NA,NA,NA,NA,NA,NA,NA,NA,NA,NA,NA,NA,NA,NA,NA,NA
96ef1,deep,flow.Sequence,3_0_5_0_1_0,NA,NA,completion,10410.3,716258.29999995,716252.5,716269.3,726679.6,726685.69999993,2024-04-24T13:03:38Z,726696.3,NULL,Kanzler,diwani,d,NA,NA,NA,NA,sdf,NA,5,NA,NA,NA,NA,NA,NA,NA,NA,NA,NA,NA,NA,NA,NA,NA,NA,NA,NA,NA
96ef1,shallow,flow.Sequence,3_0_5_0_1_1,NA,NA,skipped,NA,726685.69999993,NA,NA,726679.6,726685.79999995,2024-04-24T13:03:38Z,726696.3,NULL,Kanzler,diwani,d,NA,NA,NA,NA,sdf,NA,5,NA,NA,NA,NA,NA,NA,NA,NA,NA,NA,NA,NA,NA,NA,NA,NA,NA,NA,NA
96ef1,task,flow.Sequence,3_0_5_0_1,NA,NA,completion,10410.3,716258.29999995,716252.5,716269.3,726679.6,726685.89999998,2024-04-24T13:03:38Z,726696.3,NULL,Kanzler,diwani,d,NA,NA,NA,NA,sdf,NA,5,NA,NA,NA,NA,NA,NA,NA,NA,NA,NA,NA,NA,NA,NA,NA,NA,NA,NA,NA
96ef1,Deep Question,html.Page,3_0_5_0_2_0_0,NA,NA,form submission,6255.8999999284,726686,726679.6,726696.3,732952.19999993,732952.39999998,2024-04-24T13:03:44Z,732975.8,NULL,Zufall,kikuti,d,NA,NA,NA,kitemo,NA,NA,5,NA,NA,NA,NA,NA,NA,NA,NA,NA,NA,NA,NA,NA,NA,NA,NA,NA,NA,NA
96ef1,"""Richtig""-Screen",canvas.Screen,3_0_5_0_2_0_1,NA,NA,skipped,NA,732955.29999995,NA,NA,732952.19999993,732955.39999998,2024-04-24T13:03:44Z,732975.8,NULL,Zufall,kikuti,d,NA,NA,NA,NA,sdf,NA,5,NA,NA,NA,NA,NA,NA,NA,NA,NA,NA,NA,NA,NA,NA,NA,NA,NA,NA,NA
96ef1,"""Falsch""-Screen",canvas.Screen,3_0_5_0_2_0_2,NA,NA,timeout,4997.1,732956.29999995,732959.232,732975.8,737956.1,737956.69999993,2024-04-24T13:03:49Z,737972.9,NULL,Zufall,kikuti,d,NA,NA,NA,NA,sdf,0,5,NA,NA,NA,NA,NA,NA,NA,NA,NA,NA,NA,NA,NA,NA,NA,NA,NA,NA,NA
96ef1,deep,flow.Sequence,3_0_5_0_2_0,NA,NA,completion,11259.8,726686,726679.6,726696.3,737956.1,737956.79999995,2024-04-24T13:03:49Z,737972.9,NULL,Zufall,kikuti,d,NA,NA,NA,NA,sdf,NA,5,NA,NA,NA,NA,NA,NA,NA,NA,NA,NA,NA,NA,NA,NA,NA,NA,NA,NA,NA
96ef1,shallow,flow.Sequence,3_0_5_0_2_1,NA,NA,skipped,NA,737956.79999995,NA,NA,737956.1,737956.79999995,2024-04-24T13:03:49Z,737972.9,NULL,Zufall,kikuti,d,NA,NA,NA,NA,sdf,NA,5,NA,NA,NA,NA,NA,NA,NA,NA,NA,NA,NA,NA,NA,NA,NA,NA,NA,NA,NA
96ef1,task,flow.Sequence,3_0_5_0_2,NA,NA,completion,11259.8,726686,726679.6,726696.3,737956.1,737956.89999998,2024-04-24T13:03:49Z,737972.9,NULL,Zufall,kikuti,d,NA,NA,NA,NA,sdf,NA,5,NA,NA,NA,NA,NA,NA,NA,NA,NA,NA,NA,NA,NA,NA,NA,NA,NA,NA,NA
96ef1,Deep Question,html.Page,3_0_5_0_3_0_0,NA,NA,form submission,11515.299999928,737956.89999998,737956.1,737972.9,749488.19999993,749488.29999995,2024-04-24T13:04:01Z,749498.6,NULL,Schönheit,kirembo,d,NA,NA,NA,diwani,NA,NA,5,NA,NA,NA,NA,NA,NA,NA,NA,NA,NA,NA,NA,NA,NA,NA,NA,NA,NA,NA
96ef1,"""Richtig""-Screen",canvas.Screen,3_0_5_0_3_0_1,NA,NA,skipped,NA,749491.60000002,NA,NA,749488.19999993,749491.69999993,2024-04-24T13:04:01Z,749498.6,NULL,Schönheit,kirembo,d,NA,NA,NA,NA,sdf,NA,5,NA,NA,NA,NA,NA,NA,NA,NA,NA,NA,NA,NA,NA,NA,NA,NA,NA,NA,NA
96ef1,"""Falsch""-Screen",canvas.Screen,3_0_5_0_3_0_2,NA,NA,timeout,4997.3,749492.5,749482.676,749498.6,754478.9,754480,2024-04-24T13:04:06Z,754495.9,NULL,Schönheit,kirembo,d,NA,NA,NA,NA,sdf,0,5,NA,NA,NA,NA,NA,NA,NA,NA,NA,NA,NA,NA,NA,NA,NA,NA,NA,NA,NA
96ef1,deep,flow.Sequence,3_0_5_0_3_0,NA,NA,completion,16506,737956.89999998,737956.1,737972.9,754478.9,754480.29999995,2024-04-24T13:04:06Z,754495.9,NULL,Schönheit,kirembo,d,NA,NA,NA,NA,sdf,NA,5,NA,NA,NA,NA,NA,NA,NA,NA,NA,NA,NA,NA,NA,NA,NA,NA,NA,NA,NA
96ef1,shallow,flow.Sequence,3_0_5_0_3_1,NA,NA,skipped,NA,754480.39999998,NA,NA,754478.9,754480.5,2024-04-24T13:04:06Z,754495.9,NULL,Schönheit,kirembo,d,NA,NA,NA,NA,sdf,NA,5,NA,NA,NA,NA,NA,NA,NA,NA,NA,NA,NA,NA,NA,NA,NA,NA,NA,NA,NA
96ef1,task,flow.Sequence,3_0_5_0_3,NA,NA,completion,16506,737956.89999998,737956.1,737972.9,754478.9,754480.79999995,2024-04-24T13:04:06Z,754495.9,NULL,Schönheit,kirembo,d,NA,NA,NA,NA,sdf,NA,5,NA,NA,NA,NA,NA,NA,NA,NA,NA,NA,NA,NA,NA,NA,NA,NA,NA,NA,NA
96ef1,deep,flow.Sequence,3_0_5_0_4_0,NA,NA,skipped,NA,754480.89999998,NA,NA,754478.9,754481,2024-04-24T13:04:06Z,754495.9,NULL,Angreifer,mshambulizi,s,kitengo,tasinia,usafirishaji,NA,sdf,NA,5,NA,NA,NA,NA,NA,NA,NA,NA,NA,NA,NA,NA,NA,NA,NA,NA,NA,NA,NA
96ef1,Shallow Question,html.Page,3_0_5_0_4_1_0,NA,NA,form submission,5745.6,754481.19999993,754478.9,754495.9,760241.5,760241.69999993,2024-04-24T13:04:11Z,760260.3,NULL,Angreifer,mshambulizi,s,kitengo,tasinia,usafirishaji,mshambulizi,NA,NA,5,NA,NA,NA,NA,NA,NA,NA,NA,NA,NA,NA,NA,NA,NA,NA,NA,NA,NA,NA
96ef1,"""Richtig""-Screen",canvas.Screen,3_0_5_0_4_1_1,NA,NA,timeout,4995.8999999999,760243.39999998,760242.912,760260.3,765239,765240.10000002,2024-04-24T13:04:16Z,765256.2,NULL,Angreifer,mshambulizi,s,kitengo,tasinia,usafirishaji,NA,sdf,1,5,NA,NA,NA,NA,NA,NA,NA,NA,NA,NA,NA,NA,NA,NA,NA,NA,NA,NA,NA
96ef1,"""Falsch""-Screen",canvas.Screen,3_0_5_0_4_1_2,NA,NA,skipped,NA,765245,NA,NA,765239,765245.29999995,2024-04-24T13:04:16Z,765256.2,NULL,Angreifer,mshambulizi,s,kitengo,tasinia,usafirishaji,NA,sdf,NA,5,NA,NA,NA,NA,NA,NA,NA,NA,NA,NA,NA,NA,NA,NA,NA,NA,NA,NA,NA
96ef1,shallow,flow.Sequence,3_0_5_0_4_1,NA,NA,completion,10743.1,754481.19999993,754478.9,754495.9,765239,765245.39999998,2024-04-24T13:04:16Z,765256.2,NULL,Angreifer,mshambulizi,s,kitengo,tasinia,usafirishaji,NA,sdf,NA,5,NA,NA,NA,NA,NA,NA,NA,NA,NA,NA,NA,NA,NA,NA,NA,NA,NA,NA,NA
96ef1,task,flow.Sequence,3_0_5_0_4,NA,NA,completion,10743.1,754480.89999998,754478.9,754495.9,765239,765245.5,2024-04-24T13:04:16Z,765256.2,NULL,Angreifer,mshambulizi,s,kitengo,tasinia,usafirishaji,NA,sdf,NA,5,NA,NA,NA,NA,NA,NA,NA,NA,NA,NA,NA,NA,NA,NA,NA,NA,NA,NA,NA
96ef1,deep,flow.Sequence,3_0_5_0_5_0,NA,NA,skipped,NA,765245.5,NA,NA,765239,765245.5,2024-04-24T13:04:16Z,765256.2,NULL,Wettbewerb,ushindani,s,mapendezi,kichocheo,ubaguzi,NA,sdf,NA,5,NA,NA,NA,NA,NA,NA,NA,NA,NA,NA,NA,NA,NA,NA,NA,NA,NA,NA,NA
96ef1,Shallow Question,html.Page,3_0_5_0_5_1_0,NA,NA,form submission,4919.1999999762,765245.5,765239,765256.2,770175.39999998,770175.60000002,2024-04-24T13:04:21Z,770186,NULL,Wettbewerb,ushindani,s,mapendezi,kichocheo,ubaguzi,ushindani,NA,NA,5,NA,NA,NA,NA,NA,NA,NA,NA,NA,NA,NA,NA,NA,NA,NA,NA,NA,NA,NA
96ef1,"""Richtig""-Screen",canvas.Screen,3_0_5_0_5_1_1,NA,NA,timeout,4997,770178.39999998,770169.724,770186,775166.7,775167.60000002,2024-04-24T13:04:26Z,775183,NULL,Wettbewerb,ushindani,s,mapendezi,kichocheo,ubaguzi,NA,sdf,1,5,NA,NA,NA,NA,NA,NA,NA,NA,NA,NA,NA,NA,NA,NA,NA,NA,NA,NA,NA
96ef1,"""Falsch""-Screen",canvas.Screen,3_0_5_0_5_1_2,NA,NA,skipped,NA,775172.29999995,NA,NA,775166.7,775172.5,2024-04-24T13:04:26Z,775183,NULL,Wettbewerb,ushindani,s,mapendezi,kichocheo,ubaguzi,NA,sdf,NA,5,NA,NA,NA,NA,NA,NA,NA,NA,NA,NA,NA,NA,NA,NA,NA,NA,NA,NA,NA
96ef1,shallow,flow.Sequence,3_0_5_0_5_1,NA,NA,completion,9910.5,765245.5,765239,765256.2,775166.7,775172.69999993,2024-04-24T13:04:26Z,775183,NULL,Wettbewerb,ushindani,s,mapendezi,kichocheo,ubaguzi,NA,sdf,NA,5,NA,NA,NA,NA,NA,NA,NA,NA,NA,NA,NA,NA,NA,NA,NA,NA,NA,NA,NA
96ef1,task,flow.Sequence,3_0_5_0_5,NA,NA,completion,9910.5,765245.5,765239,765256.2,775166.7,775172.89999998,2024-04-24T13:04:26Z,775183,NULL,Wettbewerb,ushindani,s,mapendezi,kichocheo,ubaguzi,NA,sdf,NA,5,NA,NA,NA,NA,NA,NA,NA,NA,NA,NA,NA,NA,NA,NA,NA,NA,NA,NA,NA
96ef1,deep,flow.Sequence,3_0_5_0_6_0,NA,NA,skipped,NA,775173.10000002,NA,NA,775166.7,775173.29999995,2024-04-24T13:04:26Z,775183,NULL,Auftrag,uagizaji,s,ghanima,kuzingatia,msukani,NA,sdf,NA,5,NA,NA,NA,NA,NA,NA,NA,NA,NA,NA,NA,NA,NA,NA,NA,NA,NA,NA,NA
96ef1,Shallow Question,html.Page,3_0_5_0_6_1_0,NA,NA,form submission,5143.1999999285,775173.5,775166.7,775183,780326.19999993,780326.39999998,2024-04-24T13:04:32Z,780330.552,NULL,Auftrag,uagizaji,s,ghanima,kuzingatia,msukani,uagizaji,NA,NA,5,NA,NA,NA,NA,NA,NA,NA,NA,NA,NA,NA,NA,NA,NA,NA,NA,NA,NA,NA
96ef1,"""Richtig""-Screen",canvas.Screen,3_0_5_0_6_1_1,NA,NA,timeout,4996.6479999999,780329.29999995,780330.552,780330.552,785310.1,785312,2024-04-24T13:04:37Z,785327.2,NULL,Auftrag,uagizaji,s,ghanima,kuzingatia,msukani,NA,sdf,1,5,NA,NA,NA,NA,NA,NA,NA,NA,NA,NA,NA,NA,NA,NA,NA,NA,NA,NA,NA
96ef1,"""Falsch""-Screen",canvas.Screen,3_0_5_0_6_1_2,NA,NA,skipped,NA,785316.79999995,NA,NA,785310.1,785317,2024-04-24T13:04:37Z,785327.2,NULL,Auftrag,uagizaji,s,ghanima,kuzingatia,msukani,NA,sdf,NA,5,NA,NA,NA,NA,NA,NA,NA,NA,NA,NA,NA,NA,NA,NA,NA,NA,NA,NA,NA
96ef1,shallow,flow.Sequence,3_0_5_0_6_1,NA,NA,completion,10127.1,775173.39999998,775166.7,775183,785310.1,785317,2024-04-24T13:04:37Z,785327.2,NULL,Auftrag,uagizaji,s,ghanima,kuzingatia,msukani,NA,sdf,NA,5,NA,NA,NA,NA,NA,NA,NA,NA,NA,NA,NA,NA,NA,NA,NA,NA,NA,NA,NA
96ef1,task,flow.Sequence,3_0_5_0_6,NA,NA,completion,10127.1,775173,775166.7,775183,785310.1,785317.10000002,2024-04-24T13:04:37Z,785327.2,NULL,Auftrag,uagizaji,s,ghanima,kuzingatia,msukani,NA,sdf,NA,5,NA,NA,NA,NA,NA,NA,NA,NA,NA,NA,NA,NA,NA,NA,NA,NA,NA,NA,NA
96ef1,Deep Question,html.Page,3_0_5_0_7_0_0,NA,NA,form submission,11298.999999929,785317.10000002,785310.1,785327.2,796626.19999993,796626.5,2024-04-24T13:04:48Z,796636.7,NULL,Abrechnung,uhasibu,d,NA,NA,NA,usahabu,NA,NA,5,NA,NA,NA,NA,NA,NA,NA,NA,NA,NA,NA,NA,NA,NA,NA,NA,NA,NA,NA
96ef1,"""Richtig""-Screen",canvas.Screen,3_0_5_0_7_0_1,NA,NA,skipped,NA,796629.5,NA,NA,796626.19999993,796629.60000002,2024-04-24T13:04:48Z,796636.7,NULL,Abrechnung,uhasibu,d,NA,NA,NA,NA,sdf,NA,5,NA,NA,NA,NA,NA,NA,NA,NA,NA,NA,NA,NA,NA,NA,NA,NA,NA,NA,NA
96ef1,"""Falsch""-Screen",canvas.Screen,3_0_5_0_7_0_2,NA,NA,timeout,4996.8,796630.19999993,796620.358,796636.7,801616.9,801617.89999998,2024-04-24T13:04:53Z,801633.5,NULL,Abrechnung,uhasibu,d,NA,NA,NA,NA,sdf,0,5,NA,NA,NA,NA,NA,NA,NA,NA,NA,NA,NA,NA,NA,NA,NA,NA,NA,NA,NA
96ef1,deep,flow.Sequence,3_0_5_0_7_0,NA,NA,completion,16289.7,785317.10000002,785310.1,785327.2,801616.9,801618.19999993,2024-04-24T13:04:53Z,801633.5,NULL,Abrechnung,uhasibu,d,NA,NA,NA,NA,sdf,NA,5,NA,NA,NA,NA,NA,NA,NA,NA,NA,NA,NA,NA,NA,NA,NA,NA,NA,NA,NA
96ef1,shallow,flow.Sequence,3_0_5_0_7_1,NA,NA,skipped,NA,801618.39999998,NA,NA,801616.9,801618.5,2024-04-24T13:04:53Z,801633.5,NULL,Abrechnung,uhasibu,d,NA,NA,NA,NA,sdf,NA,5,NA,NA,NA,NA,NA,NA,NA,NA,NA,NA,NA,NA,NA,NA,NA,NA,NA,NA,NA
96ef1,task,flow.Sequence,3_0_5_0_7,NA,NA,completion,16289.7,785317.10000002,785310.1,785327.2,801616.9,801618.69999993,2024-04-24T13:04:53Z,801633.5,NULL,Abrechnung,uhasibu,d,NA,NA,NA,NA,sdf,NA,5,NA,NA,NA,NA,NA,NA,NA,NA,NA,NA,NA,NA,NA,NA,NA,NA,NA,NA,NA
96ef1,block,flow.Loop,3_0_5_0,NA,NA,completion,96423.48,705197,705193.42,705193.42,801616.9,801619,2024-04-24T13:04:53Z,801633.5,NULL,NA,NA,NA,NA,NA,NA,NA,sdf,NA,5,NA,NA,NA,NA,NA,NA,NA,NA,NA,NA,NA,NA,NA,NA,NA,NA,NA,NA,NA
96ef1,weiter,canvas.Screen,3_0_5_1,sdf,keypress(Space),response,1271.7999999523,801619.10000002,801616.9,801633.5,802905.29999995,802906.29999995,2024-04-24T13:04:54Z,802933,NULL,NA,NA,NA,NA,NA,NA,NA,sdf,NA,5,NA,NA,NA,NA,NA,NA,NA,NA,NA,NA,NA,NA,NA,NA,NA,NA,NA,NA,NA
96ef1,check continue,flow.Sequence,3_0_5,NA,NA,completion,97711.879999952,705197,705193.42,705193.42,802905.29999995,802906.60000002,2024-04-24T13:04:54Z,802933,NULL,NA,NA,NA,NA,NA,NA,NA,sdf,NA,5,NA,NA,NA,NA,NA,NA,NA,NA,NA,NA,NA,NA,NA,NA,NA,NA,NA,NA,NA
96ef1,Deep Question,html.Page,3_0_6_0_0_0_0,NA,NA,form submission,5157.1999999285,802925,802916.53,802933,808090.19999993,808090.5,2024-04-24T13:04:59Z,808096.2,NULL,Schönheit,kirembo,d,NA,NA,NA,kirembo,NA,NA,6,NA,NA,NA,NA,NA,NA,NA,NA,NA,NA,NA,NA,NA,NA,NA,NA,NA,NA,NA
96ef1,"""Richtig""-Screen",canvas.Screen,3_0_6_0_0_0_1,NA,NA,timeout,4997.5,808093.5,808080.124,808096.2,813076.5,813077.5,2024-04-24T13:05:04Z,813093.7,NULL,Schönheit,kirembo,d,NA,NA,NA,NA,dfs,1,6,NA,NA,NA,NA,NA,NA,NA,NA,NA,NA,NA,NA,NA,NA,NA,NA,NA,NA,NA
96ef1,"""Falsch""-Screen",canvas.Screen,3_0_6_0_0_0_2,NA,NA,skipped,NA,813082.89999998,NA,NA,813076.5,813083,2024-04-24T13:05:04Z,813093.7,NULL,Schönheit,kirembo,d,NA,NA,NA,NA,dfs,NA,6,NA,NA,NA,NA,NA,NA,NA,NA,NA,NA,NA,NA,NA,NA,NA,NA,NA,NA,NA
96ef1,deep,flow.Sequence,3_0_6_0_0_0,NA,NA,completion,10143.5,802924.89999998,802916.53,802933,813076.5,813083,2024-04-24T13:05:04Z,813093.7,NULL,Schönheit,kirembo,d,NA,NA,NA,NA,dfs,NA,6,NA,NA,NA,NA,NA,NA,NA,NA,NA,NA,NA,NA,NA,NA,NA,NA,NA,NA,NA
96ef1,shallow,flow.Sequence,3_0_6_0_0_1,NA,NA,skipped,NA,813083,NA,NA,813076.5,813083.10000002,2024-04-24T13:05:04Z,813093.7,NULL,Schönheit,kirembo,d,NA,NA,NA,NA,dfs,NA,6,NA,NA,NA,NA,NA,NA,NA,NA,NA,NA,NA,NA,NA,NA,NA,NA,NA,NA,NA
96ef1,task,flow.Sequence,3_0_6_0_0,NA,NA,completion,10143.5,802924.89999998,802916.53,802933,813076.5,813083.19999993,2024-04-24T13:05:04Z,813093.7,NULL,Schönheit,kirembo,d,NA,NA,NA,NA,dfs,NA,6,NA,NA,NA,NA,NA,NA,NA,NA,NA,NA,NA,NA,NA,NA,NA,NA,NA,NA,NA
96ef1,Deep Question,html.Page,3_0_6_0_1_0_0,NA,NA,form submission,5172.9000000239,813083.19999993,813076.5,813093.7,818266.60000002,818266.79999995,2024-04-24T13:05:09Z,818274.054,NULL,Kanzler,diwani,d,NA,NA,NA,diwani,NA,NA,6,NA,NA,NA,NA,NA,NA,NA,NA,NA,NA,NA,NA,NA,NA,NA,NA,NA,NA,NA
96ef1,"""Richtig""-Screen",canvas.Screen,3_0_6_0_1_0_1,NA,NA,timeout,4996.1459999999,818269.89999998,818274.054,818274.054,823254,823254.89999998,2024-04-24T13:05:14Z,823270.2,NULL,Kanzler,diwani,d,NA,NA,NA,NA,dfs,1,6,NA,NA,NA,NA,NA,NA,NA,NA,NA,NA,NA,NA,NA,NA,NA,NA,NA,NA,NA
96ef1,"""Falsch""-Screen",canvas.Screen,3_0_6_0_1_0_2,NA,NA,skipped,NA,823259.79999995,NA,NA,823254,823260,2024-04-24T13:05:14Z,823270.2,NULL,Kanzler,diwani,d,NA,NA,NA,NA,dfs,NA,6,NA,NA,NA,NA,NA,NA,NA,NA,NA,NA,NA,NA,NA,NA,NA,NA,NA,NA,NA
96ef1,deep,flow.Sequence,3_0_6_0_1_0,NA,NA,completion,10160.3,813083.19999993,813076.5,813093.7,823254,823260.29999995,2024-04-24T13:05:14Z,823270.2,NULL,Kanzler,diwani,d,NA,NA,NA,NA,dfs,NA,6,NA,NA,NA,NA,NA,NA,NA,NA,NA,NA,NA,NA,NA,NA,NA,NA,NA,NA,NA
96ef1,shallow,flow.Sequence,3_0_6_0_1_1,NA,NA,skipped,NA,823260.39999998,NA,NA,823254,823260.5,2024-04-24T13:05:14Z,823270.2,NULL,Kanzler,diwani,d,NA,NA,NA,NA,dfs,NA,6,NA,NA,NA,NA,NA,NA,NA,NA,NA,NA,NA,NA,NA,NA,NA,NA,NA,NA,NA
96ef1,task,flow.Sequence,3_0_6_0_1,NA,NA,completion,10160.3,813083.19999993,813076.5,813093.7,823254,823260.60000002,2024-04-24T13:05:14Z,823270.2,NULL,Kanzler,diwani,d,NA,NA,NA,NA,dfs,NA,6,NA,NA,NA,NA,NA,NA,NA,NA,NA,NA,NA,NA,NA,NA,NA,NA,NA,NA,NA
96ef1,deep,flow.Sequence,3_0_6_0_2_0,NA,NA,skipped,NA,823260.69999993,NA,NA,823254,823260.79999995,2024-04-24T13:05:14Z,823270.2,NULL,Sänger,mwimbaji,s,msichana,shughuli,mshirika,NA,dfs,NA,6,NA,NA,NA,NA,NA,NA,NA,NA,NA,NA,NA,NA,NA,NA,NA,NA,NA,NA,NA
96ef1,Shallow Question,html.Page,3_0_6_0_2_1_0,NA,NA,form submission,3733.5999999524,823260.89999998,823254,823270.2,827003.79999995,827004,2024-04-24T13:05:18Z,827018,NULL,Sänger,mwimbaji,s,msichana,shughuli,mshirika,mwimbaji,NA,NA,6,NA,NA,NA,NA,NA,NA,NA,NA,NA,NA,NA,NA,NA,NA,NA,NA,NA,NA,NA
96ef1,"""Richtig""-Screen",canvas.Screen,3_0_6_0_2_1_1,NA,NA,timeout,4997.5,827006.19999993,827001.894,827018,831998.4,831999.39999998,2024-04-24T13:05:23Z,832015.5,NULL,Sänger,mwimbaji,s,msichana,shughuli,mshirika,NA,dfs,1,6,NA,NA,NA,NA,NA,NA,NA,NA,NA,NA,NA,NA,NA,NA,NA,NA,NA,NA,NA
96ef1,"""Falsch""-Screen",canvas.Screen,3_0_6_0_2_1_2,NA,NA,skipped,NA,832004.19999993,NA,NA,831998.4,832004.29999995,2024-04-24T13:05:23Z,832015.5,NULL,Sänger,mwimbaji,s,msichana,shughuli,mshirika,NA,dfs,NA,6,NA,NA,NA,NA,NA,NA,NA,NA,NA,NA,NA,NA,NA,NA,NA,NA,NA,NA,NA
96ef1,shallow,flow.Sequence,3_0_6_0_2_1,NA,NA,completion,8728.2000000001,823260.89999998,823254,823270.2,831998.4,832004.39999998,2024-04-24T13:05:23Z,832015.5,NULL,Sänger,mwimbaji,s,msichana,shughuli,mshirika,NA,dfs,NA,6,NA,NA,NA,NA,NA,NA,NA,NA,NA,NA,NA,NA,NA,NA,NA,NA,NA,NA,NA
96ef1,task,flow.Sequence,3_0_6_0_2,NA,NA,completion,8728.2000000001,823260.69999993,823254,823270.2,831998.4,832004.5,2024-04-24T13:05:23Z,832015.5,NULL,Sänger,mwimbaji,s,msichana,shughuli,mshirika,NA,dfs,NA,6,NA,NA,NA,NA,NA,NA,NA,NA,NA,NA,NA,NA,NA,NA,NA,NA,NA,NA,NA
96ef1,Deep Question,html.Page,3_0_6_0_3_0_0,NA,NA,form submission,11269,832004.5,831998.4,832015.5,843284.5,843284.69999993,2024-04-24T13:05:34Z,843308.3,NULL,Abrechnung,uhasibu,d,NA,NA,NA,ushabiu,NA,NA,6,NA,NA,NA,NA,NA,NA,NA,NA,NA,NA,NA,NA,NA,NA,NA,NA,NA,NA,NA
96ef1,"""Richtig""-Screen",canvas.Screen,3_0_6_0_3_0_1,NA,NA,skipped,NA,843286.19999993,NA,NA,843284.5,843286.29999995,2024-04-24T13:05:34Z,843308.3,NULL,Abrechnung,uhasibu,d,NA,NA,NA,NA,dfs,NA,6,NA,NA,NA,NA,NA,NA,NA,NA,NA,NA,NA,NA,NA,NA,NA,NA,NA,NA,NA
96ef1,"""Falsch""-Screen",canvas.Screen,3_0_6_0_3_0_2,NA,NA,timeout,4996.7999999999,843286.69999993,843292.066,843308.3,848288.3,848289.19999993,2024-04-24T13:05:39Z,848305.1,NULL,Abrechnung,uhasibu,d,NA,NA,NA,NA,dfs,0,6,NA,NA,NA,NA,NA,NA,NA,NA,NA,NA,NA,NA,NA,NA,NA,NA,NA,NA,NA
96ef1,deep,flow.Sequence,3_0_6_0_3_0,NA,NA,completion,16272.8,832004.5,831998.4,832015.5,848288.3,848289.5,2024-04-24T13:05:39Z,848305.1,NULL,Abrechnung,uhasibu,d,NA,NA,NA,NA,dfs,NA,6,NA,NA,NA,NA,NA,NA,NA,NA,NA,NA,NA,NA,NA,NA,NA,NA,NA,NA,NA
96ef1,shallow,flow.Sequence,3_0_6_0_3_1,NA,NA,skipped,NA,848289.69999993,NA,NA,848288.3,848289.89999998,2024-04-24T13:05:39Z,848305.1,NULL,Abrechnung,uhasibu,d,NA,NA,NA,NA,dfs,NA,6,NA,NA,NA,NA,NA,NA,NA,NA,NA,NA,NA,NA,NA,NA,NA,NA,NA,NA,NA
96ef1,task,flow.Sequence,3_0_6_0_3,NA,NA,completion,16272.8,832004.5,831998.4,832015.5,848288.3,848290,2024-04-24T13:05:39Z,848305.1,NULL,Abrechnung,uhasibu,d,NA,NA,NA,NA,dfs,NA,6,NA,NA,NA,NA,NA,NA,NA,NA,NA,NA,NA,NA,NA,NA,NA,NA,NA,NA,NA
