observation,sender,sender_type,sender_id,response,response_action,ended_on,duration,time_run,time_render,time_show,time_end,time_commit,timestamp,time_switch,distractors,german,swahili,enc,distractor1,distractor2,distractor3,response_2,x,correct,x_2,url_vp,url_sess,meta_labjs_version,meta_location,meta_user_agent,meta_platform,meta_language,meta_locale,meta_time_zone,meta_timezone_offset,meta_screen_width,meta_screen_height,meta_scroll_width,meta_scroll_height,meta_window_inner_width,meta_window_inner_height,meta_device_pixel_ratio,meta_labjs_build_flavor,meta_labjs_build_commit
76219,Introduction general,canvas.Screen,0,weiter,keypress(q),response,32749.400000095,509.09999990463,500.622,517,33266.400000095004,33268.400000095004,2024-05-22T08:47:28Z,33280.5,NULL,NA,NA,NA,NA,NA,NA,NA,NA,NA,NA,223,3,20.2.4,https://neurocog.fernuni.ch/studies/vweber/aberisha/encoding_immediate/index.html?vp=223&sess=3,"Mozilla/5.0 (Windows NT 10.0; Win64; x64) AppleWebKit/537.36 (KHTML, like Gecko) Chrome/124.0.0.0 Safari/537.36",Win32,de-DE,de,Europe/Zurich,-120,1536,864,1536,682,1536,730,1.25,production,f5b4a49f956347addd546a832a3327688c2c0fef
76219,Introduction practice,canvas.Screen,1_0,NA,keypress(Space),response,9725,33268.699999809,33265.724,33280.5,43005.5,43006.699999809,2024-05-22T08:47:37Z,43024.6,NULL,NA,NA,NA,NA,NA,NA,NA,NA,NA,NA,NA,NA,NA,NA,NA,NA,NA,NA,NA,NA,NA,NA,NA,NA,NA,NA,NA,NA,NA
76219,Deep Question,html.Page,1_1_0_0_0,NA,NA,form submission,9727.1999997139,43007.299999714,42997.7,43024.6,52751.799999714,52752.199999809,2024-05-22T08:47:47Z,52768.5,"c(""distractor1"", ""distractor2"", ""distractor3"")",Schatten,kivuli,d,NA,NA,NA,dfdg,NA,NA,NA,NA,NA,NA,NA,NA,NA,NA,NA,NA,NA,NA,NA,NA,NA,NA,NA,NA,NA,NA
76219,"""Richtig""-Screen",canvas.Screen,1_1_0_0_1,NA,NA,skipped,NA,52754,NA,NA,52751.799999714,52754.299999714,2024-05-22T08:47:47Z,52768.5,"c(""distractor1"", ""distractor2"", ""distractor3"")",Schatten,kivuli,d,NA,NA,NA,NA,NA,NA,NA,NA,NA,NA,NA,NA,NA,NA,NA,NA,NA,NA,NA,NA,NA,NA,NA,NA,NA,NA
76219,"""Falsch""-Screen",canvas.Screen,1_1_0_0_2,NA,NA,timeout,4996.9,52755.799999714,52752.736,52768.5,57749,57750.699999809,2024-05-22T08:47:52Z,57765.4,"c(""distractor1"", ""distractor2"", ""distractor3"")",Schatten,kivuli,d,NA,NA,NA,NA,NA,0,NA,NA,NA,NA,NA,NA,NA,NA,NA,NA,NA,NA,NA,NA,NA,NA,NA,NA,NA,NA
76219,deep,flow.Sequence,1_1_0_0,NA,NA,completion,14724.4,43007.199999809,42997.7,43024.6,57749,57751.400000095004,2024-05-22T08:47:52Z,57765.4,"c(""distractor1"", ""distractor2"", ""distractor3"")",Schatten,kivuli,d,NA,NA,NA,NA,NA,NA,NA,NA,NA,NA,NA,NA,NA,NA,NA,NA,NA,NA,NA,NA,NA,NA,NA,NA,NA,NA
76219,shallow,flow.Sequence,1_1_0_1,NA,NA,skipped,NA,57751.699999809,NA,NA,57749,57752.099999904996,2024-05-22T08:47:52Z,57765.4,"c(""distractor1"", ""distractor2"", ""distractor3"")",Schatten,kivuli,d,NA,NA,NA,NA,NA,NA,NA,NA,NA,NA,NA,NA,NA,NA,NA,NA,NA,NA,NA,NA,NA,NA,NA,NA,NA,NA
76219,task,flow.Sequence,1_1_0,NA,NA,completion,14724.4,43007.199999809,42997.7,43024.6,57749,57752.400000095004,2024-05-22T08:47:52Z,57765.4,"c(""distractor1"", ""distractor2"", ""distractor3"")",Schatten,kivuli,d,NA,NA,NA,NA,NA,NA,NA,NA,NA,NA,NA,NA,NA,NA,NA,NA,NA,NA,NA,NA,NA,NA,NA,NA,NA,NA
76219,deep,flow.Sequence,1_1_1_0,NA,NA,skipped,NA,57752.699999809,NA,NA,57749,57752.900000095004,2024-05-22T08:47:52Z,57765.4,"c(""distractor1"", ""distractor2"", ""distractor3"")",Rückhalt,msaada,s,muhula,auwali,kiwimbe,NA,NA,NA,NA,NA,NA,NA,NA,NA,NA,NA,NA,NA,NA,NA,NA,NA,NA,NA,NA,NA,NA,NA
76219,Shallow Question,html.Page,1_1_1_1_0,NA,NA,form submission,9245.3999997139,57753.199999809,57749,57765.4,67010.799999714,67011.099999905,2024-05-22T08:48:01Z,67027.1,"c(""distractor1"", ""distractor2"", ""distractor3"")",Rückhalt,msaada,s,muhula,auwali,kiwimbe,auwali,NA,NA,NA,NA,NA,NA,NA,NA,NA,NA,NA,NA,NA,NA,NA,NA,NA,NA,NA,NA,NA,NA
76219,"""Richtig""-Screen",canvas.Screen,1_1_1_1_1,NA,NA,skipped,NA,67014.699999809,NA,NA,67010.799999714,67014.900000095,2024-05-22T08:48:01Z,67027.1,"c(""distractor1"", ""distractor2"", ""distractor3"")",Rückhalt,msaada,s,muhula,auwali,kiwimbe,NA,NA,NA,NA,NA,NA,NA,NA,NA,NA,NA,NA,NA,NA,NA,NA,NA,NA,NA,NA,NA,NA,NA
76219,"""Falsch""-Screen",canvas.Screen,1_1_1_1_2,NA,NA,timeout,4996.6,67015.5,67010.452,67027.1,72007.2,72007.900000095,2024-05-22T08:48:06Z,72023.7,"c(""distractor1"", ""distractor2"", ""distractor3"")",Rückhalt,msaada,s,muhula,auwali,kiwimbe,NA,NA,0,NA,NA,NA,NA,NA,NA,NA,NA,NA,NA,NA,NA,NA,NA,NA,NA,NA,NA,NA,NA
76219,shallow,flow.Sequence,1_1_1_1,NA,NA,completion,14241.8,57753.099999904996,57749,57765.4,72007.2,72008,2024-05-22T08:48:06Z,72023.7,"c(""distractor1"", ""distractor2"", ""distractor3"")",Rückhalt,msaada,s,muhula,auwali,kiwimbe,NA,NA,NA,NA,NA,NA,NA,NA,NA,NA,NA,NA,NA,NA,NA,NA,NA,NA,NA,NA,NA,NA,NA
76219,task,flow.Sequence,1_1_1,NA,NA,completion,14241.8,57752.599999904996,57749,57765.4,72007.2,72008.199999809,2024-05-22T08:48:06Z,72023.7,"c(""distractor1"", ""distractor2"", ""distractor3"")",Rückhalt,msaada,s,muhula,auwali,kiwimbe,NA,NA,NA,NA,NA,NA,NA,NA,NA,NA,NA,NA,NA,NA,NA,NA,NA,NA,NA,NA,NA,NA,NA
76219,Deep Question,html.Page,1_1_2_0_0,NA,NA,form submission,3787.4999998093,72008.299999714,72007.2,72023.7,75811.199999809,75811.400000095,2024-05-22T08:48:10Z,75821.3,"c(""distractor1"", ""distractor2"", ""distractor3"")",Qualität,mtindo,d,NA,NA,NA,fdgsg,NA,NA,NA,NA,NA,NA,NA,NA,NA,NA,NA,NA,NA,NA,NA,NA,NA,NA,NA,NA,NA,NA
76219,"""Richtig""-Screen",canvas.Screen,1_1_2_0_1,NA,NA,skipped,NA,75814.699999809,NA,NA,75811.199999809,75814.699999809,2024-05-22T08:48:10Z,75821.3,"c(""distractor1"", ""distractor2"", ""distractor3"")",Qualität,mtindo,d,NA,NA,NA,NA,NA,NA,NA,NA,NA,NA,NA,NA,NA,NA,NA,NA,NA,NA,NA,NA,NA,NA,NA,NA,NA,NA
76219,"""Falsch""-Screen",canvas.Screen,1_1_2_0_2,NA,NA,timeout,4997.1,75815.799999714,75805.09,75821.3,80801.8,80802.799999714,2024-05-22T08:48:15Z,80818.4,"c(""distractor1"", ""distractor2"", ""distractor3"")",Qualität,mtindo,d,NA,NA,NA,NA,NA,0,NA,NA,NA,NA,NA,NA,NA,NA,NA,NA,NA,NA,NA,NA,NA,NA,NA,NA,NA,NA
76219,deep,flow.Sequence,1_1_2_0,NA,NA,completion,8778.1,72008.299999714,72007.2,72023.7,80801.8,80803.099999905,2024-05-22T08:48:15Z,80818.4,"c(""distractor1"", ""distractor2"", ""distractor3"")",Qualität,mtindo,d,NA,NA,NA,NA,NA,NA,NA,NA,NA,NA,NA,NA,NA,NA,NA,NA,NA,NA,NA,NA,NA,NA,NA,NA,NA,NA
76219,shallow,flow.Sequence,1_1_2_1,NA,NA,skipped,NA,80803.299999714,NA,NA,80801.8,80803.5,2024-05-22T08:48:15Z,80818.4,"c(""distractor1"", ""distractor2"", ""distractor3"")",Qualität,mtindo,d,NA,NA,NA,NA,NA,NA,NA,NA,NA,NA,NA,NA,NA,NA,NA,NA,NA,NA,NA,NA,NA,NA,NA,NA,NA,NA
76219,task,flow.Sequence,1_1_2,NA,NA,completion,8778.1,72008.299999714,72007.2,72023.7,80801.8,80803.799999714,2024-05-22T08:48:15Z,80818.4,"c(""distractor1"", ""distractor2"", ""distractor3"")",Qualität,mtindo,d,NA,NA,NA,NA,NA,NA,NA,NA,NA,NA,NA,NA,NA,NA,NA,NA,NA,NA,NA,NA,NA,NA,NA,NA,NA,NA
76219,Deep Question,html.Page,1_1_3_0_0,NA,NA,form submission,3614.6999999046,80804,80801.8,80818.4,84433.099999905,84433.299999714,2024-05-22T08:48:19Z,84450.5,"c(""distractor1"", ""distractor2"", ""distractor3"")",Gesundheit,salama,d,NA,NA,NA,fgsg,NA,NA,NA,NA,NA,NA,NA,NA,NA,NA,NA,NA,NA,NA,NA,NA,NA,NA,NA,NA,NA,NA
76219,"""Richtig""-Screen",canvas.Screen,1_1_3_0_1,NA,NA,skipped,NA,84436.5,NA,NA,84433.099999905,84436.699999809,2024-05-22T08:48:19Z,84450.5,"c(""distractor1"", ""distractor2"", ""distractor3"")",Gesundheit,salama,d,NA,NA,NA,NA,NA,NA,NA,NA,NA,NA,NA,NA,NA,NA,NA,NA,NA,NA,NA,NA,NA,NA,NA,NA,NA,NA
76219,"""Falsch""-Screen",canvas.Screen,1_1_3_0_2,NA,NA,timeout,4996,84437.299999714,84434.126,84450.5,89429.7,89430.699999809,2024-05-22T08:48:24Z,89446.5,"c(""distractor1"", ""distractor2"", ""distractor3"")",Gesundheit,salama,d,NA,NA,NA,NA,NA,0,NA,NA,NA,NA,NA,NA,NA,NA,NA,NA,NA,NA,NA,NA,NA,NA,NA,NA,NA,NA
76219,deep,flow.Sequence,1_1_3_0,NA,NA,completion,8611.3,80804,80801.8,80818.4,89429.7,89431.199999809,2024-05-22T08:48:24Z,89446.5,"c(""distractor1"", ""distractor2"", ""distractor3"")",Gesundheit,salama,d,NA,NA,NA,NA,NA,NA,NA,NA,NA,NA,NA,NA,NA,NA,NA,NA,NA,NA,NA,NA,NA,NA,NA,NA,NA,NA
76219,shallow,flow.Sequence,1_1_3_1,NA,NA,skipped,NA,89431.299999714,NA,NA,89429.7,89431.5,2024-05-22T08:48:24Z,89446.5,"c(""distractor1"", ""distractor2"", ""distractor3"")",Gesundheit,salama,d,NA,NA,NA,NA,NA,NA,NA,NA,NA,NA,NA,NA,NA,NA,NA,NA,NA,NA,NA,NA,NA,NA,NA,NA,NA,NA
76219,task,flow.Sequence,1_1_3,NA,NA,completion,8611.3,80803.900000095,80801.8,80818.4,89429.7,89431.699999809,2024-05-22T08:48:24Z,89446.5,"c(""distractor1"", ""distractor2"", ""distractor3"")",Gesundheit,salama,d,NA,NA,NA,NA,NA,NA,NA,NA,NA,NA,NA,NA,NA,NA,NA,NA,NA,NA,NA,NA,NA,NA,NA,NA,NA,NA
76219,deep,flow.Sequence,1_1_4_0,NA,NA,skipped,NA,89431.900000095,NA,NA,89429.7,89432,2024-05-22T08:48:24Z,89446.5,"c(""distractor1"", ""distractor2"", ""distractor3"")",Gegenwart,hadhara,s,katiba,jokofu,mikopo,NA,NA,NA,NA,NA,NA,NA,NA,NA,NA,NA,NA,NA,NA,NA,NA,NA,NA,NA,NA,NA,NA,NA
76219,Shallow Question,html.Page,1_1_4_1_0,NA,NA,form submission,6050.5999999046,89432.199999809,89429.7,89446.5,95497.099999905,95497.400000095,2024-05-22T08:48:30Z,95509.3,"c(""distractor1"", ""distractor2"", ""distractor3"")",Gegenwart,hadhara,s,katiba,jokofu,mikopo,mikopo,NA,NA,NA,NA,NA,NA,NA,NA,NA,NA,NA,NA,NA,NA,NA,NA,NA,NA,NA,NA,NA,NA
76219,"""Richtig""-Screen",canvas.Screen,1_1_4_1_1,NA,NA,skipped,NA,95500.5,NA,NA,95497.099999905,95500.699999809,2024-05-22T08:48:30Z,95509.3,"c(""distractor1"", ""distractor2"", ""distractor3"")",Gegenwart,hadhara,s,katiba,jokofu,mikopo,NA,NA,NA,NA,NA,NA,NA,NA,NA,NA,NA,NA,NA,NA,NA,NA,NA,NA,NA,NA,NA,NA,NA
76219,"""Falsch""-Screen",canvas.Screen,1_1_4_1_2,NA,NA,timeout,4996.8,95501.699999809,95493.176,95509.3,100489.6,100490.5999999,2024-05-22T08:48:35Z,100506.1,"c(""distractor1"", ""distractor2"", ""distractor3"")",Gegenwart,hadhara,s,katiba,jokofu,mikopo,NA,NA,0,NA,NA,NA,NA,NA,NA,NA,NA,NA,NA,NA,NA,NA,NA,NA,NA,NA,NA,NA,NA
76219,shallow,flow.Sequence,1_1_4_1,NA,NA,completion,11043.1,89432.099999905,89429.7,89446.5,100489.6,100491,2024-05-22T08:48:35Z,100506.1,"c(""distractor1"", ""distractor2"", ""distractor3"")",Gegenwart,hadhara,s,katiba,jokofu,mikopo,NA,NA,NA,NA,NA,NA,NA,NA,NA,NA,NA,NA,NA,NA,NA,NA,NA,NA,NA,NA,NA,NA,NA
76219,task,flow.Sequence,1_1_4,NA,NA,completion,11043.1,89431.799999714,89429.7,89446.5,100489.6,100491.29999971,2024-05-22T08:48:35Z,100506.1,"c(""distractor1"", ""distractor2"", ""distractor3"")",Gegenwart,hadhara,s,katiba,jokofu,mikopo,NA,NA,NA,NA,NA,NA,NA,NA,NA,NA,NA,NA,NA,NA,NA,NA,NA,NA,NA,NA,NA,NA,NA
76219,deep,flow.Sequence,1_1_5_0,NA,NA,skipped,NA,100491.5,NA,NA,100489.6,100491.5999999,2024-05-22T08:48:35Z,100506.1,"c(""distractor1"", ""distractor2"", ""distractor3"")",Kritik,lawama,s,dereva,nafasi,mawazo,NA,NA,NA,NA,NA,NA,NA,NA,NA,NA,NA,NA,NA,NA,NA,NA,NA,NA,NA,NA,NA,NA,NA
76219,Shallow Question,html.Page,1_1_5_1_0,NA,NA,form submission,6416.4999999046,100491.79999971,100489.6,100506.1,106922.5999999,106922.9000001,2024-05-22T08:48:41Z,106935.8,"c(""distractor1"", ""distractor2"", ""distractor3"")",Kritik,lawama,s,dereva,nafasi,mawazo,mawazo,NA,NA,NA,NA,NA,NA,NA,NA,NA,NA,NA,NA,NA,NA,NA,NA,NA,NA,NA,NA,NA,NA
76219,"""Richtig""-Screen",canvas.Screen,1_1_5_1_1,NA,NA,skipped,NA,106925.9000001,NA,NA,106922.5999999,106926,2024-05-22T08:48:41Z,106935.8,"c(""distractor1"", ""distractor2"", ""distractor3"")",Kritik,lawama,s,dereva,nafasi,mawazo,NA,NA,NA,NA,NA,NA,NA,NA,NA,NA,NA,NA,NA,NA,NA,NA,NA,NA,NA,NA,NA,NA,NA
76219,"""Falsch""-Screen",canvas.Screen,1_1_5_1_2,NA,NA,timeout,4997.1,106926.79999971,106919.2,106935.8,111916.3,111917.0999999,2024-05-22T08:48:46Z,111932.9,"c(""distractor1"", ""distractor2"", ""distractor3"")",Kritik,lawama,s,dereva,nafasi,mawazo,NA,NA,0,NA,NA,NA,NA,NA,NA,NA,NA,NA,NA,NA,NA,NA,NA,NA,NA,NA,NA,NA,NA
76219,shallow,flow.Sequence,1_1_5_1,NA,NA,completion,11410.2,100491.69999980999,100489.6,100506.1,111916.3,111917.5,2024-05-22T08:48:46Z,111932.9,"c(""distractor1"", ""distractor2"", ""distractor3"")",Kritik,lawama,s,dereva,nafasi,mawazo,NA,NA,NA,NA,NA,NA,NA,NA,NA,NA,NA,NA,NA,NA,NA,NA,NA,NA,NA,NA,NA,NA,NA
76219,task,flow.Sequence,1_1_5,NA,NA,completion,11410.2,100491.4000001,100489.6,100506.1,111916.3,111917.69999981,2024-05-22T08:48:46Z,111932.9,"c(""distractor1"", ""distractor2"", ""distractor3"")",Kritik,lawama,s,dereva,nafasi,mawazo,NA,NA,NA,NA,NA,NA,NA,NA,NA,NA,NA,NA,NA,NA,NA,NA,NA,NA,NA,NA,NA,NA,NA
76219,block,flow.Loop,1_1,NA,NA,completion,68891.7,43007.099999904996,42997.7,43024.6,111916.3,111918.19999980999,2024-05-22T08:48:46Z,111932.9,"c(""distractor1"", ""distractor2"", ""distractor3"")",NA,NA,NA,NA,NA,NA,NA,NA,NA,NA,NA,NA,NA,NA,NA,NA,NA,NA,NA,NA,NA,NA,NA,NA,NA,NA,NA,NA,NA
76219,Practice,flow.Sequence,1,NA,NA,completion,78635.8,33268.699999809,33265.724,33280.5,111916.3,111918.4000001,2024-05-22T08:48:46Z,111932.9,NULL,NA,NA,NA,NA,NA,NA,NA,NA,NA,NA,NA,NA,NA,NA,NA,NA,NA,NA,NA,NA,NA,NA,NA,NA,NA,NA,NA,NA,NA
76219,Experiment start,canvas.Screen,2,weiter,keypress(q),response,15181.500000095,111918.5,111916.3,111932.9,127114.4000001,127115.69999980999,2024-05-22T08:49:01Z,127173,NULL,NA,NA,NA,NA,NA,NA,NA,NA,NA,NA,NA,NA,NA,NA,NA,NA,NA,NA,NA,NA,NA,NA,NA,NA,NA,NA,NA,NA,NA
76219,Deep Question,html.Page,3_0_0_0_0_0_0,NA,NA,form submission,6909.9000000954,127173.79999971,127160.782,127173,134082.9000001,134083.0999999,2024-05-22T08:49:08Z,134085.626,NULL,Atmosphäre,angahewa,d,NA,NA,NA,sdfsdf,NA,NA,0,NA,NA,NA,NA,NA,NA,NA,NA,NA,NA,NA,NA,NA,NA,NA,NA,NA,NA,NA
76219,"""Richtig""-Screen",canvas.Screen,3_0_0_0_0_0_1,NA,NA,skipped,NA,134086.19999981,NA,NA,134082.9000001,134086.4000001,2024-05-22T08:49:08Z,134085.626,NULL,Atmosphäre,angahewa,d,NA,NA,NA,NA,sdf,NA,0,NA,NA,NA,NA,NA,NA,NA,NA,NA,NA,NA,NA,NA,NA,NA,NA,NA,NA,NA
76219,"""Falsch""-Screen",canvas.Screen,3_0_0_0_0_0_2,NA,NA,timeout,4997.374,134087.19999981,134085.626,134085.626,139066,139067,2024-05-22T08:49:13Z,139083,NULL,Atmosphäre,angahewa,d,NA,NA,NA,NA,sdf,0,0,NA,NA,NA,NA,NA,NA,NA,NA,NA,NA,NA,NA,NA,NA,NA,NA,NA,NA,NA
76219,deep,flow.Sequence,3_0_0_0_0_0,NA,NA,completion,11893,127173.79999971,127160.782,127173,139066,139067.4000001,2024-05-22T08:49:13Z,139083,NULL,Atmosphäre,angahewa,d,NA,NA,NA,NA,sdf,NA,0,NA,NA,NA,NA,NA,NA,NA,NA,NA,NA,NA,NA,NA,NA,NA,NA,NA,NA,NA
76219,shallow,flow.Sequence,3_0_0_0_0_1,NA,NA,skipped,NA,139067.5,NA,NA,139066,139067.5999999,2024-05-22T08:49:13Z,139083,NULL,Atmosphäre,angahewa,d,NA,NA,NA,NA,sdf,NA,0,NA,NA,NA,NA,NA,NA,NA,NA,NA,NA,NA,NA,NA,NA,NA,NA,NA,NA,NA
76219,task,flow.Sequence,3_0_0_0_0,NA,NA,completion,11893,127173.79999971,127160.782,127173,139066,139067.79999971,2024-05-22T08:49:13Z,139083,NULL,Atmosphäre,angahewa,d,NA,NA,NA,NA,sdf,NA,0,NA,NA,NA,NA,NA,NA,NA,NA,NA,NA,NA,NA,NA,NA,NA,NA,NA,NA,NA
76219,Deep Question,html.Page,3_0_0_0_1_0_0,NA,NA,form submission,6240.0999999046,139068.0999999,139066,139083,145323.0999999,145323.29999971,2024-05-22T08:49:20Z,145345.4,NULL,Schock,mshtuko,d,NA,NA,NA,hhgkj,NA,NA,0,NA,NA,NA,NA,NA,NA,NA,NA,NA,NA,NA,NA,NA,NA,NA,NA,NA,NA,NA
76219,"""Richtig""-Screen",canvas.Screen,3_0_0_0_1_0_1,NA,NA,skipped,NA,145326.29999971,NA,NA,145323.0999999,145326.4000001,2024-05-22T08:49:20Z,145345.4,NULL,Schock,mshtuko,d,NA,NA,NA,NA,sdf,NA,0,NA,NA,NA,NA,NA,NA,NA,NA,NA,NA,NA,NA,NA,NA,NA,NA,NA,NA,NA
76219,"""Falsch""-Screen",canvas.Screen,3_0_0_0_1_0_2,NA,NA,timeout,4997,145327.19999981,145329,145345.4,150326.1,150327.19999981,2024-05-22T08:49:25Z,150342.4,NULL,Schock,mshtuko,d,NA,NA,NA,NA,sdf,0,0,NA,NA,NA,NA,NA,NA,NA,NA,NA,NA,NA,NA,NA,NA,NA,NA,NA,NA,NA
76219,deep,flow.Sequence,3_0_0_0_1_0,NA,NA,completion,11243.1,139068,139066,139083,150326.1,150327.5999999,2024-05-22T08:49:25Z,150342.4,NULL,Schock,mshtuko,d,NA,NA,NA,NA,sdf,NA,0,NA,NA,NA,NA,NA,NA,NA,NA,NA,NA,NA,NA,NA,NA,NA,NA,NA,NA,NA
76219,shallow,flow.Sequence,3_0_0_0_1_1,NA,NA,skipped,NA,150327.69999981,NA,NA,150326.1,150327.9000001,2024-05-22T08:49:25Z,150342.4,NULL,Schock,mshtuko,d,NA,NA,NA,NA,sdf,NA,0,NA,NA,NA,NA,NA,NA,NA,NA,NA,NA,NA,NA,NA,NA,NA,NA,NA,NA,NA
76219,task,flow.Sequence,3_0_0_0_1,NA,NA,completion,11243.1,139068,139066,139083,150326.1,150328.19999981,2024-05-22T08:49:25Z,150342.4,NULL,Schock,mshtuko,d,NA,NA,NA,NA,sdf,NA,0,NA,NA,NA,NA,NA,NA,NA,NA,NA,NA,NA,NA,NA,NA,NA,NA,NA,NA,NA
76219,deep,flow.Sequence,3_0_0_0_2_0,NA,NA,skipped,NA,150328.4000001,NA,NA,150326.1,150328.4000001,2024-05-22T08:49:25Z,150342.4,NULL,Hoffnung,matarajio,s,kutaalamika,uratibu,mvumbuzi,NA,sdf,NA,0,NA,NA,NA,NA,NA,NA,NA,NA,NA,NA,NA,NA,NA,NA,NA,NA,NA,NA,NA
76219,Shallow Question,html.Page,3_0_0_0_2_1_0,NA,NA,form submission,7882.5000000954,150328.5999999,150326.1,150342.4,158224.9000001,158225.29999971,2024-05-22T08:49:33Z,158237.4,NULL,Hoffnung,matarajio,s,kutaalamika,uratibu,mvumbuzi,matarajio,NA,NA,0,NA,NA,NA,NA,NA,NA,NA,NA,NA,NA,NA,NA,NA,NA,NA,NA,NA,NA,NA
76219,"""Richtig""-Screen",canvas.Screen,3_0_0_0_2_1_1,NA,NA,timeout,4997.4,158228.29999971,158221.482,158237.4,163218.1,163219.0999999,2024-05-22T08:49:38Z,163234.8,NULL,Hoffnung,matarajio,s,kutaalamika,uratibu,mvumbuzi,NA,sdf,1,0,NA,NA,NA,NA,NA,NA,NA,NA,NA,NA,NA,NA,NA,NA,NA,NA,NA,NA,NA
76219,"""Falsch""-Screen",canvas.Screen,3_0_0_0_2_1_2,NA,NA,skipped,NA,163224,NA,NA,163218.1,163224.0999999,2024-05-22T08:49:38Z,163234.8,NULL,Hoffnung,matarajio,s,kutaalamika,uratibu,mvumbuzi,NA,sdf,NA,0,NA,NA,NA,NA,NA,NA,NA,NA,NA,NA,NA,NA,NA,NA,NA,NA,NA,NA,NA
76219,shallow,flow.Sequence,3_0_0_0_2_1,NA,NA,completion,12875.7,150328.5,150326.1,150342.4,163218.1,163224.19999981,2024-05-22T08:49:38Z,163234.8,NULL,Hoffnung,matarajio,s,kutaalamika,uratibu,mvumbuzi,NA,sdf,NA,0,NA,NA,NA,NA,NA,NA,NA,NA,NA,NA,NA,NA,NA,NA,NA,NA,NA,NA,NA
76219,task,flow.Sequence,3_0_0_0_2,NA,NA,completion,12875.7,150328.29999971,150326.1,150342.4,163218.1,163224.19999981,2024-05-22T08:49:38Z,163234.8,NULL,Hoffnung,matarajio,s,kutaalamika,uratibu,mvumbuzi,NA,sdf,NA,0,NA,NA,NA,NA,NA,NA,NA,NA,NA,NA,NA,NA,NA,NA,NA,NA,NA,NA,NA
76219,deep,flow.Sequence,3_0_0_0_3_0,NA,NA,skipped,NA,163224.19999981,NA,NA,163218.1,163224.29999971,2024-05-22T08:49:38Z,163234.8,NULL,Erneuerung,ukarabati,s,ushawishi,ukalifu,unyonyaji,NA,sdf,NA,0,NA,NA,NA,NA,NA,NA,NA,NA,NA,NA,NA,NA,NA,NA,NA,NA,NA,NA,NA
76219,Shallow Question,html.Page,3_0_0_0_3_1_0,NA,NA,form submission,8625.7999999046,163224.29999971,163218.1,163234.8,171860.5999999,171860.79999971,2024-05-22T08:49:46Z,171862.528,NULL,Erneuerung,ukarabati,s,ushawishi,ukalifu,unyonyaji,ukarabati,NA,NA,0,NA,NA,NA,NA,NA,NA,NA,NA,NA,NA,NA,NA,NA,NA,NA,NA,NA,NA,NA
76219,"""Richtig""-Screen",canvas.Screen,3_0_0_0_3_1_1,NA,NA,timeout,4997.272,171861.69999981,171862.528,171862.528,176843.2,176844.19999981,2024-05-22T08:49:51Z,176859.8,NULL,Erneuerung,ukarabati,s,ushawishi,ukalifu,unyonyaji,NA,sdf,1,0,NA,NA,NA,NA,NA,NA,NA,NA,NA,NA,NA,NA,NA,NA,NA,NA,NA,NA,NA
76219,"""Falsch""-Screen",canvas.Screen,3_0_0_0_3_1_2,NA,NA,skipped,NA,176849.19999981,NA,NA,176843.2,176849.29999971,2024-05-22T08:49:51Z,176859.8,NULL,Erneuerung,ukarabati,s,ushawishi,ukalifu,unyonyaji,NA,sdf,NA,0,NA,NA,NA,NA,NA,NA,NA,NA,NA,NA,NA,NA,NA,NA,NA,NA,NA,NA,NA
76219,shallow,flow.Sequence,3_0_0_0_3_1,NA,NA,completion,13608.4,163224.29999971,163218.1,163234.8,176843.2,176849.4000001,2024-05-22T08:49:51Z,176859.8,NULL,Erneuerung,ukarabati,s,ushawishi,ukalifu,unyonyaji,NA,sdf,NA,0,NA,NA,NA,NA,NA,NA,NA,NA,NA,NA,NA,NA,NA,NA,NA,NA,NA,NA,NA
76219,task,flow.Sequence,3_0_0_0_3,NA,NA,completion,13608.4,163224.19999981,163218.1,163234.8,176843.2,176849.5,2024-05-22T08:49:51Z,176859.8,NULL,Erneuerung,ukarabati,s,ushawishi,ukalifu,unyonyaji,NA,sdf,NA,0,NA,NA,NA,NA,NA,NA,NA,NA,NA,NA,NA,NA,NA,NA,NA,NA,NA,NA,NA
76219,deep,flow.Sequence,3_0_0_0_4_0,NA,NA,skipped,NA,176849.5,NA,NA,176843.2,176849.5,2024-05-22T08:49:51Z,176859.8,NULL,Verpackung,ufungaji,s,uhusiano,upimaji,uchunguzi,NA,sdf,NA,0,NA,NA,NA,NA,NA,NA,NA,NA,NA,NA,NA,NA,NA,NA,NA,NA,NA,NA,NA
76219,Shallow Question,html.Page,3_0_0_0_4_1_0,NA,NA,form submission,8403.8999998093,176849.5999999,176843.2,176859.8,185263.69999981,185263.9000001,2024-05-22T08:50:00Z,185271,NULL,Verpackung,ufungaji,s,uhusiano,upimaji,uchunguzi,uchunguzi,NA,NA,0,NA,NA,NA,NA,NA,NA,NA,NA,NA,NA,NA,NA,NA,NA,NA,NA,NA,NA,NA
76219,"""Richtig""-Screen",canvas.Screen,3_0_0_0_4_1_1,NA,NA,skipped,NA,185265.4000001,NA,NA,185263.69999981,185265.5,2024-05-22T08:50:00Z,185271,NULL,Verpackung,ufungaji,s,uhusiano,upimaji,uchunguzi,NA,sdf,NA,0,NA,NA,NA,NA,NA,NA,NA,NA,NA,NA,NA,NA,NA,NA,NA,NA,NA,NA,NA
76219,"""Falsch""-Screen",canvas.Screen,3_0_0_0_4_1_2,NA,NA,timeout,4997.1,185265.9000001,185255,185271,190251.3,190251.79999971,2024-05-22T08:50:05Z,190268.1,NULL,Verpackung,ufungaji,s,uhusiano,upimaji,uchunguzi,NA,sdf,0,0,NA,NA,NA,NA,NA,NA,NA,NA,NA,NA,NA,NA,NA,NA,NA,NA,NA,NA,NA
76219,shallow,flow.Sequence,3_0_0_0_4_1,NA,NA,completion,13391.5,176849.5999999,176843.2,176859.8,190251.3,190251.79999971,2024-05-22T08:50:05Z,190268.1,NULL,Verpackung,ufungaji,s,uhusiano,upimaji,uchunguzi,NA,sdf,NA,0,NA,NA,NA,NA,NA,NA,NA,NA,NA,NA,NA,NA,NA,NA,NA,NA,NA,NA,NA
76219,task,flow.Sequence,3_0_0_0_4,NA,NA,completion,13391.5,176849.5,176843.2,176859.8,190251.3,190251.9000001,2024-05-22T08:50:05Z,190268.1,NULL,Verpackung,ufungaji,s,uhusiano,upimaji,uchunguzi,NA,sdf,NA,0,NA,NA,NA,NA,NA,NA,NA,NA,NA,NA,NA,NA,NA,NA,NA,NA,NA,NA,NA
76219,deep,flow.Sequence,3_0_0_0_5_0,NA,NA,skipped,NA,190251.9000001,NA,NA,190251.3,190251.9000001,2024-05-22T08:50:05Z,190268.1,NULL,Wechsel,ugeuzaji,s,utambulisho,kujenga,wasiwasi,NA,sdf,NA,0,NA,NA,NA,NA,NA,NA,NA,NA,NA,NA,NA,NA,NA,NA,NA,NA,NA,NA,NA
76219,Shallow Question,html.Page,3_0_0_0_5_1_0,NA,NA,form submission,7524.4999999046,190252,190251.3,190268.1,197792.5999999,197792.9000001,2024-05-22T08:50:12Z,197796.6,NULL,Wechsel,ugeuzaji,s,utambulisho,kujenga,wasiwasi,wasiwasi,NA,NA,0,NA,NA,NA,NA,NA,NA,NA,NA,NA,NA,NA,NA,NA,NA,NA,NA,NA,NA,NA
76219,"""Richtig""-Screen",canvas.Screen,3_0_0_0_5_1_1,NA,NA,skipped,NA,197796.0999999,NA,NA,197792.5999999,197796.19999981,2024-05-22T08:50:12Z,197796.6,NULL,Wechsel,ugeuzaji,s,utambulisho,kujenga,wasiwasi,NA,sdf,NA,0,NA,NA,NA,NA,NA,NA,NA,NA,NA,NA,NA,NA,NA,NA,NA,NA,NA,NA,NA
76219,"""Falsch""-Screen",canvas.Screen,3_0_0_0_5_1_2,NA,NA,timeout,4997.5,197796.69999981,197780.72,197796.6,202777.2,202778.69999981,2024-05-22T08:50:17Z,202794.1,NULL,Wechsel,ugeuzaji,s,utambulisho,kujenga,wasiwasi,NA,sdf,0,0,NA,NA,NA,NA,NA,NA,NA,NA,NA,NA,NA,NA,NA,NA,NA,NA,NA,NA,NA
76219,shallow,flow.Sequence,3_0_0_0_5_1,NA,NA,completion,12509.1,190252,190251.3,190268.1,202777.2,202779,2024-05-22T08:50:17Z,202794.1,NULL,Wechsel,ugeuzaji,s,utambulisho,kujenga,wasiwasi,NA,sdf,NA,0,NA,NA,NA,NA,NA,NA,NA,NA,NA,NA,NA,NA,NA,NA,NA,NA,NA,NA,NA
76219,task,flow.Sequence,3_0_0_0_5,NA,NA,completion,12509.1,190251.9000001,190251.3,190268.1,202777.2,202779.4000001,2024-05-22T08:50:17Z,202794.1,NULL,Wechsel,ugeuzaji,s,utambulisho,kujenga,wasiwasi,NA,sdf,NA,0,NA,NA,NA,NA,NA,NA,NA,NA,NA,NA,NA,NA,NA,NA,NA,NA,NA,NA,NA
76219,Deep Question,html.Page,3_0_0_0_6_0_0,NA,NA,form submission,4934.9,202779.5,202777.2,202794.1,207729,207729.29999971,2024-05-22T08:50:22Z,207740.7,NULL,Flexibilität,kubadilika,d,NA,NA,NA,dfaff,NA,NA,0,NA,NA,NA,NA,NA,NA,NA,NA,NA,NA,NA,NA,NA,NA,NA,NA,NA,NA,NA
76219,"""Richtig""-Screen",canvas.Screen,3_0_0_0_6_0_1,NA,NA,skipped,NA,207732.4000001,NA,NA,207729,207732.5999999,2024-05-22T08:50:22Z,207740.7,NULL,Flexibilität,kubadilika,d,NA,NA,NA,NA,sdf,NA,0,NA,NA,NA,NA,NA,NA,NA,NA,NA,NA,NA,NA,NA,NA,NA,NA,NA,NA,NA
76219,"""Falsch""-Screen",canvas.Screen,3_0_0_0_6_0_2,NA,NA,timeout,4996.9,207733.9000001,207724.554,207740.7,212721.3,212721.69999981,2024-05-22T08:50:27Z,212737.6,NULL,Flexibilität,kubadilika,d,NA,NA,NA,NA,sdf,0,0,NA,NA,NA,NA,NA,NA,NA,NA,NA,NA,NA,NA,NA,NA,NA,NA,NA,NA,NA
76219,deep,flow.Sequence,3_0_0_0_6_0,NA,NA,completion,9927.2,202779.5,202777.2,202794.1,212721.3,212721.9000001,2024-05-22T08:50:27Z,212737.6,NULL,Flexibilität,kubadilika,d,NA,NA,NA,NA,sdf,NA,0,NA,NA,NA,NA,NA,NA,NA,NA,NA,NA,NA,NA,NA,NA,NA,NA,NA,NA,NA
76219,shallow,flow.Sequence,3_0_0_0_6_1,NA,NA,skipped,NA,212721.9000001,NA,NA,212721.3,212721.9000001,2024-05-22T08:50:27Z,212737.6,NULL,Flexibilität,kubadilika,d,NA,NA,NA,NA,sdf,NA,0,NA,NA,NA,NA,NA,NA,NA,NA,NA,NA,NA,NA,NA,NA,NA,NA,NA,NA,NA
76219,task,flow.Sequence,3_0_0_0_6,NA,NA,completion,9927.2,202779.4000001,202777.2,202794.1,212721.3,212721.9000001,2024-05-22T08:50:27Z,212737.6,NULL,Flexibilität,kubadilika,d,NA,NA,NA,NA,sdf,NA,0,NA,NA,NA,NA,NA,NA,NA,NA,NA,NA,NA,NA,NA,NA,NA,NA,NA,NA,NA
76219,Deep Question,html.Page,3_0_0_0_7_0_0,NA,NA,form submission,3779.3000000954,212722,212721.3,212737.6,216516.9000001,216517.19999981,2024-05-22T08:50:31Z,216519.094,NULL,Theorie,nadharia,d,NA,NA,NA,fgsg,NA,NA,0,NA,NA,NA,NA,NA,NA,NA,NA,NA,NA,NA,NA,NA,NA,NA,NA,NA,NA,NA
76219,"""Richtig""-Screen",canvas.Screen,3_0_0_0_7_0_1,NA,NA,skipped,NA,216520.69999981,NA,NA,216516.9000001,216520.9000001,2024-05-22T08:50:31Z,216519.094,NULL,Theorie,nadharia,d,NA,NA,NA,NA,sdf,NA,0,NA,NA,NA,NA,NA,NA,NA,NA,NA,NA,NA,NA,NA,NA,NA,NA,NA,NA,NA
76219,"""Falsch""-Screen",canvas.Screen,3_0_0_0_7_0_2,NA,NA,timeout,4996.906,216521.69999981,216519.094,216519.094,221499.1,221500.29999971,2024-05-22T08:50:36Z,221516,NULL,Theorie,nadharia,d,NA,NA,NA,NA,sdf,0,0,NA,NA,NA,NA,NA,NA,NA,NA,NA,NA,NA,NA,NA,NA,NA,NA,NA,NA,NA
76219,deep,flow.Sequence,3_0_0_0_7_0,NA,NA,completion,8761.5,212722,212721.3,212737.6,221499.1,221500.69999981,2024-05-22T08:50:36Z,221516,NULL,Theorie,nadharia,d,NA,NA,NA,NA,sdf,NA,0,NA,NA,NA,NA,NA,NA,NA,NA,NA,NA,NA,NA,NA,NA,NA,NA,NA,NA,NA
76219,shallow,flow.Sequence,3_0_0_0_7_1,NA,NA,skipped,NA,221501,NA,NA,221499.1,221501.0999999,2024-05-22T08:50:36Z,221516,NULL,Theorie,nadharia,d,NA,NA,NA,NA,sdf,NA,0,NA,NA,NA,NA,NA,NA,NA,NA,NA,NA,NA,NA,NA,NA,NA,NA,NA,NA,NA
76219,task,flow.Sequence,3_0_0_0_7,NA,NA,completion,8761.5,212722,212721.3,212737.6,221499.1,221501.29999971,2024-05-22T08:50:36Z,221516,NULL,Theorie,nadharia,d,NA,NA,NA,NA,sdf,NA,0,NA,NA,NA,NA,NA,NA,NA,NA,NA,NA,NA,NA,NA,NA,NA,NA,NA,NA,NA
76219,block,flow.Loop,3_0_0_0,NA,NA,completion,94326.1,127173.79999971,127160.782,127173,221499.1,221501.5,2024-05-22T08:50:36Z,221516,NULL,NA,NA,NA,NA,NA,NA,NA,sdf,NA,0,NA,NA,NA,NA,NA,NA,NA,NA,NA,NA,NA,NA,NA,NA,NA,NA,NA,NA,NA
76219,weiter,canvas.Screen,3_0_0_1,sdf,keypress(Space),response,1457.5,221501.69999981,221499.1,221516,222973.5,222974.69999981,2024-05-22T08:50:37Z,222982.26,NULL,NA,NA,NA,NA,NA,NA,NA,sdf,NA,0,NA,NA,NA,NA,NA,NA,NA,NA,NA,NA,NA,NA,NA,NA,NA,NA,NA,NA,NA
76219,check continue,flow.Sequence,3_0_0,NA,NA,completion,95800.5,127173.79999971,127160.782,127173,222973.5,222975,2024-05-22T08:50:37Z,222982.26,NULL,NA,NA,NA,NA,NA,NA,NA,sdf,NA,0,NA,NA,NA,NA,NA,NA,NA,NA,NA,NA,NA,NA,NA,NA,NA,NA,NA,NA,NA
76219,Deep Question,html.Page,3_0_1_0_0_0_0,NA,NA,form submission,3710.0399997139,222994,222982.26,222982.26,226692.29999971,226692.5,2024-05-22T08:50:41Z,226712.6,NULL,Atmosphäre,angahewa,d,NA,NA,NA,sgfgs,NA,NA,1,NA,NA,NA,NA,NA,NA,NA,NA,NA,NA,NA,NA,NA,NA,NA,NA,NA,NA,NA
76219,"""Richtig""-Screen",canvas.Screen,3_0_1_0_0_0_1,NA,NA,skipped,NA,226695.79999971,NA,NA,226692.29999971,226696,2024-05-22T08:50:41Z,226712.6,NULL,Atmosphäre,angahewa,d,NA,NA,NA,NA,sdfdsf,NA,1,NA,NA,NA,NA,NA,NA,NA,NA,NA,NA,NA,NA,NA,NA,NA,NA,NA,NA,NA
76219,"""Falsch""-Screen",canvas.Screen,3_0_1_0_0_0_2,NA,NA,timeout,4997,226697.69999981,226696.16,226712.6,231692.8,231694.69999981,2024-05-22T08:50:46Z,231709.6,NULL,Atmosphäre,angahewa,d,NA,NA,NA,NA,sdfdsf,0,1,NA,NA,NA,NA,NA,NA,NA,NA,NA,NA,NA,NA,NA,NA,NA,NA,NA,NA,NA
76219,deep,flow.Sequence,3_0_1_0_0_0,NA,NA,completion,8710.54,222994,222982.26,222982.26,231692.8,231694.9000001,2024-05-22T08:50:46Z,231709.6,NULL,Atmosphäre,angahewa,d,NA,NA,NA,NA,sdfdsf,NA,1,NA,NA,NA,NA,NA,NA,NA,NA,NA,NA,NA,NA,NA,NA,NA,NA,NA,NA,NA
76219,shallow,flow.Sequence,3_0_1_0_0_1,NA,NA,skipped,NA,231694.9000001,NA,NA,231692.8,231694.9000001,2024-05-22T08:50:46Z,231709.6,NULL,Atmosphäre,angahewa,d,NA,NA,NA,NA,sdfdsf,NA,1,NA,NA,NA,NA,NA,NA,NA,NA,NA,NA,NA,NA,NA,NA,NA,NA,NA,NA,NA
76219,task,flow.Sequence,3_0_1_0_0,NA,NA,completion,8710.54,222994,222982.26,222982.26,231692.8,231695,2024-05-22T08:50:46Z,231709.6,NULL,Atmosphäre,angahewa,d,NA,NA,NA,NA,sdfdsf,NA,1,NA,NA,NA,NA,NA,NA,NA,NA,NA,NA,NA,NA,NA,NA,NA,NA,NA,NA,NA
76219,Deep Question,html.Page,3_0_1_0_1_0_0,NA,NA,form submission,4509.5999998093,231695,231692.8,231709.6,236219.19999981,236219.4000001,2024-05-22T08:50:51Z,236223.658,NULL,Theorie,nadharia,d,NA,NA,NA,dfasf,NA,NA,1,NA,NA,NA,NA,NA,NA,NA,NA,NA,NA,NA,NA,NA,NA,NA,NA,NA,NA,NA
76219,"""Richtig""-Screen",canvas.Screen,3_0_1_0_1_0_1,NA,NA,skipped,NA,236222.5,NA,NA,236219.19999981,236222.5999999,2024-05-22T08:50:51Z,236223.658,NULL,Theorie,nadharia,d,NA,NA,NA,NA,sdfdsf,NA,1,NA,NA,NA,NA,NA,NA,NA,NA,NA,NA,NA,NA,NA,NA,NA,NA,NA,NA,NA
76219,"""Falsch""-Screen",canvas.Screen,3_0_1_0_1_0_2,NA,NA,timeout,4996.942,236223.19999981,236223.658,236223.658,241204,241205,2024-05-22T08:50:56Z,241220.6,NULL,Theorie,nadharia,d,NA,NA,NA,NA,sdfdsf,0,1,NA,NA,NA,NA,NA,NA,NA,NA,NA,NA,NA,NA,NA,NA,NA,NA,NA,NA,NA
76219,deep,flow.Sequence,3_0_1_0_1_0,NA,NA,completion,9494.4,231695,231692.8,231709.6,241204,241205.4000001,2024-05-22T08:50:56Z,241220.6,NULL,Theorie,nadharia,d,NA,NA,NA,NA,sdfdsf,NA,1,NA,NA,NA,NA,NA,NA,NA,NA,NA,NA,NA,NA,NA,NA,NA,NA,NA,NA,NA
76219,shallow,flow.Sequence,3_0_1_0_1_1,NA,NA,skipped,NA,241205.5999999,NA,NA,241204,241205.79999971,2024-05-22T08:50:56Z,241220.6,NULL,Theorie,nadharia,d,NA,NA,NA,NA,sdfdsf,NA,1,NA,NA,NA,NA,NA,NA,NA,NA,NA,NA,NA,NA,NA,NA,NA,NA,NA,NA,NA
76219,task,flow.Sequence,3_0_1_0_1,NA,NA,completion,9494.4,231695,231692.8,231709.6,241204,241206,2024-05-22T08:50:56Z,241220.6,NULL,Theorie,nadharia,d,NA,NA,NA,NA,sdfdsf,NA,1,NA,NA,NA,NA,NA,NA,NA,NA,NA,NA,NA,NA,NA,NA,NA,NA,NA,NA,NA
76219,Deep Question,html.Page,3_0_1_0_2_0_0,NA,NA,form submission,3109.3000000954,241206.29999971,241204,241220.6,244329.9000001,244330,2024-05-22T08:50:59Z,244335.684,NULL,Schock,mshtuko,d,NA,NA,NA,dfsdg,NA,NA,1,NA,NA,NA,NA,NA,NA,NA,NA,NA,NA,NA,NA,NA,NA,NA,NA,NA,NA,NA
76219,"""Richtig""-Screen",canvas.Screen,3_0_1_0_2_0_1,NA,NA,skipped,NA,244331.79999971,NA,NA,244329.9000001,244331.9000001,2024-05-22T08:50:59Z,244335.684,NULL,Schock,mshtuko,d,NA,NA,NA,NA,sdfdsf,NA,1,NA,NA,NA,NA,NA,NA,NA,NA,NA,NA,NA,NA,NA,NA,NA,NA,NA,NA,NA
76219,"""Falsch""-Screen",canvas.Screen,3_0_1_0_2_0_2,NA,NA,timeout,4996.216,244332.4000001,244335.684,244335.684,249315.7,249316.9000001,2024-05-22T08:51:04Z,249331.9,NULL,Schock,mshtuko,d,NA,NA,NA,NA,sdfdsf,0,1,NA,NA,NA,NA,NA,NA,NA,NA,NA,NA,NA,NA,NA,NA,NA,NA,NA,NA,NA
76219,deep,flow.Sequence,3_0_1_0_2_0,NA,NA,completion,8095.1,241206.19999981,241204,241220.6,249315.7,249317.29999971,2024-05-22T08:51:04Z,249331.9,NULL,Schock,mshtuko,d,NA,NA,NA,NA,sdfdsf,NA,1,NA,NA,NA,NA,NA,NA,NA,NA,NA,NA,NA,NA,NA,NA,NA,NA,NA,NA,NA
76219,shallow,flow.Sequence,3_0_1_0_2_1,NA,NA,skipped,NA,249317.5,NA,NA,249315.7,249317.69999981,2024-05-22T08:51:04Z,249331.9,NULL,Schock,mshtuko,d,NA,NA,NA,NA,sdfdsf,NA,1,NA,NA,NA,NA,NA,NA,NA,NA,NA,NA,NA,NA,NA,NA,NA,NA,NA,NA,NA
76219,task,flow.Sequence,3_0_1_0_2,NA,NA,completion,8095.1,241206.0999999,241204,241220.6,249315.7,249318,2024-05-22T08:51:04Z,249331.9,NULL,Schock,mshtuko,d,NA,NA,NA,NA,sdfdsf,NA,1,NA,NA,NA,NA,NA,NA,NA,NA,NA,NA,NA,NA,NA,NA,NA,NA,NA,NA,NA
76219,deep,flow.Sequence,3_0_1_0_3_0,NA,NA,skipped,NA,249318.0999999,NA,NA,249315.7,249318.19999981,2024-05-22T08:51:04Z,249331.9,NULL,Verpackung,ufungaji,s,uhusiano,upimaji,uchunguzi,NA,sdfdsf,NA,1,NA,NA,NA,NA,NA,NA,NA,NA,NA,NA,NA,NA,NA,NA,NA,NA,NA,NA,NA
76219,Shallow Question,html.Page,3_0_1_0_3_1_0,NA,NA,form submission,8424.6,249318.4000001,249315.7,249331.9,257756.5,257756.69999981,2024-05-22T08:51:12Z,257760.2,NULL,Verpackung,ufungaji,s,uhusiano,upimaji,uchunguzi,ufungaji,NA,NA,1,NA,NA,NA,NA,NA,NA,NA,NA,NA,NA,NA,NA,NA,NA,NA,NA,NA,NA,NA
76219,"""Richtig""-Screen",canvas.Screen,3_0_1_0_3_1_1,NA,NA,timeout,4997.4,257759.79999971,257743.99,257760.2,262740.4,262741.29999971,2024-05-22T08:51:17Z,262757.6,NULL,Verpackung,ufungaji,s,uhusiano,upimaji,uchunguzi,NA,sdfdsf,1,1,NA,NA,NA,NA,NA,NA,NA,NA,NA,NA,NA,NA,NA,NA,NA,NA,NA,NA,NA
76219,"""Falsch""-Screen",canvas.Screen,3_0_1_0_3_1_2,NA,NA,skipped,NA,262746.19999981,NA,NA,262740.4,262746.29999971,2024-05-22T08:51:17Z,262757.6,NULL,Verpackung,ufungaji,s,uhusiano,upimaji,uchunguzi,NA,sdfdsf,NA,1,NA,NA,NA,NA,NA,NA,NA,NA,NA,NA,NA,NA,NA,NA,NA,NA,NA,NA,NA
76219,shallow,flow.Sequence,3_0_1_0_3_1,NA,NA,completion,13408.5,249318.29999971,249315.7,249331.9,262740.4,262746.29999971,2024-05-22T08:51:17Z,262757.6,NULL,Verpackung,ufungaji,s,uhusiano,upimaji,uchunguzi,NA,sdfdsf,NA,1,NA,NA,NA,NA,NA,NA,NA,NA,NA,NA,NA,NA,NA,NA,NA,NA,NA,NA,NA
76219,task,flow.Sequence,3_0_1_0_3,NA,NA,completion,13408.5,249318.0999999,249315.7,249331.9,262740.4,262746.4000001,2024-05-22T08:51:17Z,262757.6,NULL,Verpackung,ufungaji,s,uhusiano,upimaji,uchunguzi,NA,sdfdsf,NA,1,NA,NA,NA,NA,NA,NA,NA,NA,NA,NA,NA,NA,NA,NA,NA,NA,NA,NA,NA
76219,deep,flow.Sequence,3_0_1_0_4_0,NA,NA,skipped,NA,262746.5,NA,NA,262740.4,262746.5999999,2024-05-22T08:51:17Z,262757.6,NULL,Wechsel,ugeuzaji,s,utambulisho,kujenga,wasiwasi,NA,sdfdsf,NA,1,NA,NA,NA,NA,NA,NA,NA,NA,NA,NA,NA,NA,NA,NA,NA,NA,NA,NA,NA
76219,Shallow Question,html.Page,3_0_1_0_4_1_0,NA,NA,form submission,5238.1999997139,262746.5999999,262740.4,262757.6,267995.79999971,267996,2024-05-22T08:51:22Z,268004,NULL,Wechsel,ugeuzaji,s,utambulisho,kujenga,wasiwasi,ugeuzaji,NA,NA,1,NA,NA,NA,NA,NA,NA,NA,NA,NA,NA,NA,NA,NA,NA,NA,NA,NA,NA,NA
76219,"""Richtig""-Screen",canvas.Screen,3_0_1_0_4_1_1,NA,NA,timeout,4996.7,267998.4000001,267987.82,268004,272984.6,272985.5,2024-05-22T08:51:27Z,273000.7,NULL,Wechsel,ugeuzaji,s,utambulisho,kujenga,wasiwasi,NA,sdfdsf,1,1,NA,NA,NA,NA,NA,NA,NA,NA,NA,NA,NA,NA,NA,NA,NA,NA,NA,NA,NA
76219,"""Falsch""-Screen",canvas.Screen,3_0_1_0_4_1_2,NA,NA,skipped,NA,272990.9000001,NA,NA,272984.6,272991.29999971,2024-05-22T08:51:27Z,273000.7,NULL,Wechsel,ugeuzaji,s,utambulisho,kujenga,wasiwasi,NA,sdfdsf,NA,1,NA,NA,NA,NA,NA,NA,NA,NA,NA,NA,NA,NA,NA,NA,NA,NA,NA,NA,NA
76219,shallow,flow.Sequence,3_0_1_0_4_1,NA,NA,completion,10227,262746.5999999,262740.4,262757.6,272984.6,272991.5,2024-05-22T08:51:27Z,273000.7,NULL,Wechsel,ugeuzaji,s,utambulisho,kujenga,wasiwasi,NA,sdfdsf,NA,1,NA,NA,NA,NA,NA,NA,NA,NA,NA,NA,NA,NA,NA,NA,NA,NA,NA,NA,NA
76219,task,flow.Sequence,3_0_1_0_4,NA,NA,completion,10227,262746.5,262740.4,262757.6,272984.6,272991.69999981,2024-05-22T08:51:27Z,273000.7,NULL,Wechsel,ugeuzaji,s,utambulisho,kujenga,wasiwasi,NA,sdfdsf,NA,1,NA,NA,NA,NA,NA,NA,NA,NA,NA,NA,NA,NA,NA,NA,NA,NA,NA,NA,NA
76219,deep,flow.Sequence,3_0_1_0_5_0,NA,NA,skipped,NA,272991.9000001,NA,NA,272984.6,272992,2024-05-22T08:51:27Z,273000.7,NULL,Erneuerung,ukarabati,s,ushawishi,ukalifu,unyonyaji,NA,sdfdsf,NA,1,NA,NA,NA,NA,NA,NA,NA,NA,NA,NA,NA,NA,NA,NA,NA,NA,NA,NA,NA
76219,Shallow Question,html.Page,3_0_1_0_5_1_0,NA,NA,form submission,6845.4999998093,272992.0999999,272984.6,273000.7,279846.19999981,279846.4000001,2024-05-22T08:51:34Z,279847.316,NULL,Erneuerung,ukarabati,s,ushawishi,ukalifu,unyonyaji,unyonyaji,NA,NA,1,NA,NA,NA,NA,NA,NA,NA,NA,NA,NA,NA,NA,NA,NA,NA,NA,NA,NA,NA
76219,"""Richtig""-Screen",canvas.Screen,3_0_1_0_5_1_1,NA,NA,skipped,NA,279849.69999981,NA,NA,279846.19999981,279849.79999971,2024-05-22T08:51:34Z,279847.316,NULL,Erneuerung,ukarabati,s,ushawishi,ukalifu,unyonyaji,NA,sdfdsf,NA,1,NA,NA,NA,NA,NA,NA,NA,NA,NA,NA,NA,NA,NA,NA,NA,NA,NA,NA,NA
76219,"""Falsch""-Screen",canvas.Screen,3_0_1_0_5_1_2,NA,NA,timeout,4996.684,279850.4000001,279847.316,279847.316,284827.6,284828.5999999,2024-05-22T08:51:39Z,284844,NULL,Erneuerung,ukarabati,s,ushawishi,ukalifu,unyonyaji,NA,sdfdsf,0,1,NA,NA,NA,NA,NA,NA,NA,NA,NA,NA,NA,NA,NA,NA,NA,NA,NA,NA,NA
76219,shallow,flow.Sequence,3_0_1_0_5_1,NA,NA,completion,11826.9,272992.0999999,272984.6,273000.7,284827.6,284828.9000001,2024-05-22T08:51:39Z,284844,NULL,Erneuerung,ukarabati,s,ushawishi,ukalifu,unyonyaji,NA,sdfdsf,NA,1,NA,NA,NA,NA,NA,NA,NA,NA,NA,NA,NA,NA,NA,NA,NA,NA,NA,NA,NA
76219,task,flow.Sequence,3_0_1_0_5,NA,NA,completion,11826.9,272991.79999971,272984.6,273000.7,284827.6,284829.19999981,2024-05-22T08:51:39Z,284844,NULL,Erneuerung,ukarabati,s,ushawishi,ukalifu,unyonyaji,NA,sdfdsf,NA,1,NA,NA,NA,NA,NA,NA,NA,NA,NA,NA,NA,NA,NA,NA,NA,NA,NA,NA,NA
76219,Deep Question,html.Page,3_0_1_0_6_0_0,NA,NA,form submission,3278.7999997139,284829.5,284827.6,284844,288122.79999971,288122.9000001,2024-05-22T08:51:42Z,288125.59,NULL,Flexibilität,kubadilika,d,NA,NA,NA,dff,NA,NA,1,NA,NA,NA,NA,NA,NA,NA,NA,NA,NA,NA,NA,NA,NA,NA,NA,NA,NA,NA
76219,"""Richtig""-Screen",canvas.Screen,3_0_1_0_6_0_1,NA,NA,skipped,NA,288126.0999999,NA,NA,288122.79999971,288126.29999971,2024-05-22T08:51:42Z,288125.59,NULL,Flexibilität,kubadilika,d,NA,NA,NA,NA,sdfdsf,NA,1,NA,NA,NA,NA,NA,NA,NA,NA,NA,NA,NA,NA,NA,NA,NA,NA,NA,NA,NA
76219,"""Falsch""-Screen",canvas.Screen,3_0_1_0_6_0_2,NA,NA,timeout,4996.71,288127.19999981,288125.59,288125.59,293105.7,293106.69999981,2024-05-22T08:51:47Z,293122.3,NULL,Flexibilität,kubadilika,d,NA,NA,NA,NA,sdfdsf,0,1,NA,NA,NA,NA,NA,NA,NA,NA,NA,NA,NA,NA,NA,NA,NA,NA,NA,NA,NA
76219,deep,flow.Sequence,3_0_1_0_6_0,NA,NA,completion,8261.7,284829.29999971,284827.6,284844,293105.7,293107.0999999,2024-05-22T08:51:47Z,293122.3,NULL,Flexibilität,kubadilika,d,NA,NA,NA,NA,sdfdsf,NA,1,NA,NA,NA,NA,NA,NA,NA,NA,NA,NA,NA,NA,NA,NA,NA,NA,NA,NA,NA
76219,shallow,flow.Sequence,3_0_1_0_6_1,NA,NA,skipped,NA,293107.19999981,NA,NA,293105.7,293107.4000001,2024-05-22T08:51:47Z,293122.3,NULL,Flexibilität,kubadilika,d,NA,NA,NA,NA,sdfdsf,NA,1,NA,NA,NA,NA,NA,NA,NA,NA,NA,NA,NA,NA,NA,NA,NA,NA,NA,NA,NA
76219,task,flow.Sequence,3_0_1_0_6,NA,NA,completion,8261.7,284829.29999971,284827.6,284844,293105.7,293107.5999999,2024-05-22T08:51:47Z,293122.3,NULL,Flexibilität,kubadilika,d,NA,NA,NA,NA,sdfdsf,NA,1,NA,NA,NA,NA,NA,NA,NA,NA,NA,NA,NA,NA,NA,NA,NA,NA,NA,NA,NA
76219,deep,flow.Sequence,3_0_1_0_7_0,NA,NA,skipped,NA,293107.79999971,NA,NA,293105.7,293107.9000001,2024-05-22T08:51:47Z,293122.3,NULL,Hoffnung,matarajio,s,kutaalamika,uratibu,mvumbuzi,NA,sdfdsf,NA,1,NA,NA,NA,NA,NA,NA,NA,NA,NA,NA,NA,NA,NA,NA,NA,NA,NA,NA,NA
76219,Shallow Question,html.Page,3_0_1_0_7_1_0,NA,NA,form submission,6362.1000000954,293108,293105.7,293122.3,299484.4000001,299484.5999999,2024-05-22T08:51:54Z,299501.8,NULL,Hoffnung,matarajio,s,kutaalamika,uratibu,mvumbuzi,uratibu,NA,NA,1,NA,NA,NA,NA,NA,NA,NA,NA,NA,NA,NA,NA,NA,NA,NA,NA,NA,NA,NA
76219,"""Richtig""-Screen",canvas.Screen,3_0_1_0_7_1_1,NA,NA,skipped,NA,299487.69999981,NA,NA,299484.4000001,299487.9000001,2024-05-22T08:51:54Z,299501.8,NULL,Hoffnung,matarajio,s,kutaalamika,uratibu,mvumbuzi,NA,sdfdsf,NA,1,NA,NA,NA,NA,NA,NA,NA,NA,NA,NA,NA,NA,NA,NA,NA,NA,NA,NA,NA
76219,"""Falsch""-Screen",canvas.Screen,3_0_1_0_7_1_2,NA,NA,timeout,4996.8,299488.5999999,299485.216,299501.8,304481.7,304483,2024-05-22T08:51:59Z,304498.6,NULL,Hoffnung,matarajio,s,kutaalamika,uratibu,mvumbuzi,NA,sdfdsf,0,1,NA,NA,NA,NA,NA,NA,NA,NA,NA,NA,NA,NA,NA,NA,NA,NA,NA,NA,NA
76219,shallow,flow.Sequence,3_0_1_0_7_1,NA,NA,completion,11359.4,293108,293105.7,293122.3,304481.7,304483.4000001,2024-05-22T08:51:59Z,304498.6,NULL,Hoffnung,matarajio,s,kutaalamika,uratibu,mvumbuzi,NA,sdfdsf,NA,1,NA,NA,NA,NA,NA,NA,NA,NA,NA,NA,NA,NA,NA,NA,NA,NA,NA,NA,NA
76219,task,flow.Sequence,3_0_1_0_7,NA,NA,completion,11359.4,293107.69999981,293105.7,293122.3,304481.7,304483.5999999,2024-05-22T08:51:59Z,304498.6,NULL,Hoffnung,matarajio,s,kutaalamika,uratibu,mvumbuzi,NA,sdfdsf,NA,1,NA,NA,NA,NA,NA,NA,NA,NA,NA,NA,NA,NA,NA,NA,NA,NA,NA,NA,NA
76219,block,flow.Loop,3_0_1_0,NA,NA,completion,81499.44,222993.9000001,222982.26,222982.26,304481.7,304483.9000001,2024-05-22T08:51:59Z,304498.6,NULL,NA,NA,NA,NA,NA,NA,NA,sdfdsf,NA,1,NA,NA,NA,NA,NA,NA,NA,NA,NA,NA,NA,NA,NA,NA,NA,NA,NA,NA,NA
76219,weiter,canvas.Screen,3_0_1_1,sdf,keypress(Space),response,1360.1999997139,304484,304481.7,304498.6,305858.79999971,305859.29999971,2024-05-22T08:52:00Z,305864.686,NULL,NA,NA,NA,NA,NA,NA,NA,sdfdsf,NA,1,NA,NA,NA,NA,NA,NA,NA,NA,NA,NA,NA,NA,NA,NA,NA,NA,NA,NA,NA
76219,check continue,flow.Sequence,3_0_1,NA,NA,completion,82876.539999714,222993.9000001,222982.26,222982.26,305858.79999971,305859.4000001,2024-05-22T08:52:00Z,305864.686,NULL,NA,NA,NA,NA,NA,NA,NA,sdfdsf,NA,1,NA,NA,NA,NA,NA,NA,NA,NA,NA,NA,NA,NA,NA,NA,NA,NA,NA,NA,NA
76219,deep,flow.Sequence,3_0_2_0_0_0,NA,NA,skipped,NA,305874.9000001,NA,NA,305858.79999971,305874.9000001,2024-05-22T08:52:00Z,305864.686,NULL,Verpackung,ufungaji,s,uhusiano,upimaji,uchunguzi,NA,sdf,NA,2,NA,NA,NA,NA,NA,NA,NA,NA,NA,NA,NA,NA,NA,NA,NA,NA,NA,NA,NA
76219,Shallow Question,html.Page,3_0_2_0_0_1_0,NA,NA,form submission,6736.1139997139,305875,305864.686,305864.686,312600.79999971,312600.9000001,2024-05-22T08:52:07Z,312610.1,NULL,Verpackung,ufungaji,s,uhusiano,upimaji,uchunguzi,ufungaji,NA,NA,2,NA,NA,NA,NA,NA,NA,NA,NA,NA,NA,NA,NA,NA,NA,NA,NA,NA,NA,NA
76219,"""Richtig""-Screen",canvas.Screen,3_0_2_0_0_1_1,NA,NA,timeout,4997,312603.79999971,312594.106,312610.1,317590.5,317592.0999999,2024-05-22T08:52:12Z,317607.1,NULL,Verpackung,ufungaji,s,uhusiano,upimaji,uchunguzi,NA,sdf,1,2,NA,NA,NA,NA,NA,NA,NA,NA,NA,NA,NA,NA,NA,NA,NA,NA,NA,NA,NA
76219,"""Falsch""-Screen",canvas.Screen,3_0_2_0_0_1_2,NA,NA,skipped,NA,317596,NA,NA,317590.5,317596.0999999,2024-05-22T08:52:12Z,317607.1,NULL,Verpackung,ufungaji,s,uhusiano,upimaji,uchunguzi,NA,sdf,NA,2,NA,NA,NA,NA,NA,NA,NA,NA,NA,NA,NA,NA,NA,NA,NA,NA,NA,NA,NA
76219,shallow,flow.Sequence,3_0_2_0_0_1,NA,NA,completion,11725.814,305875,305864.686,305864.686,317590.5,317596.29999971,2024-05-22T08:52:12Z,317607.1,NULL,Verpackung,ufungaji,s,uhusiano,upimaji,uchunguzi,NA,sdf,NA,2,NA,NA,NA,NA,NA,NA,NA,NA,NA,NA,NA,NA,NA,NA,NA,NA,NA,NA,NA
76219,task,flow.Sequence,3_0_2_0_0,NA,NA,completion,11725.814,305874.9000001,305864.686,305864.686,317590.5,317596.5,2024-05-22T08:52:12Z,317607.1,NULL,Verpackung,ufungaji,s,uhusiano,upimaji,uchunguzi,NA,sdf,NA,2,NA,NA,NA,NA,NA,NA,NA,NA,NA,NA,NA,NA,NA,NA,NA,NA,NA,NA,NA
76219,Deep Question,html.Page,3_0_2_0_1_0_0,NA,NA,form submission,3933.8000000954,317596.5999999,317590.5,317607.1,321540.9000001,321541,2024-05-22T08:52:16Z,321554.8,NULL,Theorie,nadharia,d,NA,NA,NA,dfdf,NA,NA,2,NA,NA,NA,NA,NA,NA,NA,NA,NA,NA,NA,NA,NA,NA,NA,NA,NA,NA,NA
76219,"""Richtig""-Screen",canvas.Screen,3_0_2_0_1_0_1,NA,NA,skipped,NA,321542.29999971,NA,NA,321540.9000001,321542.5,2024-05-22T08:52:16Z,321554.8,NULL,Theorie,nadharia,d,NA,NA,NA,NA,sdf,NA,2,NA,NA,NA,NA,NA,NA,NA,NA,NA,NA,NA,NA,NA,NA,NA,NA,NA,NA,NA
76219,"""Falsch""-Screen",canvas.Screen,3_0_2_0_1_0_2,NA,NA,timeout,4997.1,321542.79999971,321538.522,321554.8,326535.3,326536.19999981,2024-05-22T08:52:21Z,326551.9,NULL,Theorie,nadharia,d,NA,NA,NA,NA,sdf,0,2,NA,NA,NA,NA,NA,NA,NA,NA,NA,NA,NA,NA,NA,NA,NA,NA,NA,NA,NA
76219,deep,flow.Sequence,3_0_2_0_1_0,NA,NA,completion,8928.2,317596.5999999,317590.5,317607.1,326535.3,326536.69999981,2024-05-22T08:52:21Z,326551.9,NULL,Theorie,nadharia,d,NA,NA,NA,NA,sdf,NA,2,NA,NA,NA,NA,NA,NA,NA,NA,NA,NA,NA,NA,NA,NA,NA,NA,NA,NA,NA
76219,shallow,flow.Sequence,3_0_2_0_1_1,NA,NA,skipped,NA,326536.9000001,NA,NA,326535.3,326536.9000001,2024-05-22T08:52:21Z,326551.9,NULL,Theorie,nadharia,d,NA,NA,NA,NA,sdf,NA,2,NA,NA,NA,NA,NA,NA,NA,NA,NA,NA,NA,NA,NA,NA,NA,NA,NA,NA,NA
76219,task,flow.Sequence,3_0_2_0_1,NA,NA,completion,8928.2,317596.5,317590.5,317607.1,326535.3,326537.19999981,2024-05-22T08:52:21Z,326551.9,NULL,Theorie,nadharia,d,NA,NA,NA,NA,sdf,NA,2,NA,NA,NA,NA,NA,NA,NA,NA,NA,NA,NA,NA,NA,NA,NA,NA,NA,NA,NA
76219,Deep Question,html.Page,3_0_2_0_2_0_0,NA,NA,form submission,3802.8999997139,326537.4000001,326535.3,326551.9,330354.79999971,330355,2024-05-22T08:52:25Z,330365.8,NULL,Schock,mshtuko,d,NA,NA,NA,dfsd,NA,NA,2,NA,NA,NA,NA,NA,NA,NA,NA,NA,NA,NA,NA,NA,NA,NA,NA,NA,NA,NA
76219,"""Richtig""-Screen",canvas.Screen,3_0_2_0_2_0_1,NA,NA,skipped,NA,330358.0999999,NA,NA,330354.79999971,330358.19999981,2024-05-22T08:52:25Z,330365.8,NULL,Schock,mshtuko,d,NA,NA,NA,NA,sdf,NA,2,NA,NA,NA,NA,NA,NA,NA,NA,NA,NA,NA,NA,NA,NA,NA,NA,NA,NA,NA
76219,"""Falsch""-Screen",canvas.Screen,3_0_2_0_2_0_2,NA,NA,timeout,4996.9,330358.79999971,330349.43,330365.8,335346.4,335347.4000001,2024-05-22T08:52:30Z,335362.7,NULL,Schock,mshtuko,d,NA,NA,NA,NA,sdf,0,2,NA,NA,NA,NA,NA,NA,NA,NA,NA,NA,NA,NA,NA,NA,NA,NA,NA,NA,NA
76219,deep,flow.Sequence,3_0_2_0_2_0,NA,NA,completion,8794.5,326537.4000001,326535.3,326551.9,335346.4,335347.69999981,2024-05-22T08:52:30Z,335362.7,NULL,Schock,mshtuko,d,NA,NA,NA,NA,sdf,NA,2,NA,NA,NA,NA,NA,NA,NA,NA,NA,NA,NA,NA,NA,NA,NA,NA,NA,NA,NA
76219,shallow,flow.Sequence,3_0_2_0_2_1,NA,NA,skipped,NA,335347.79999971,NA,NA,335346.4,335348,2024-05-22T08:52:30Z,335362.7,NULL,Schock,mshtuko,d,NA,NA,NA,NA,sdf,NA,2,NA,NA,NA,NA,NA,NA,NA,NA,NA,NA,NA,NA,NA,NA,NA,NA,NA,NA,NA
76219,task,flow.Sequence,3_0_2_0_2,NA,NA,completion,8794.5,326537.29999971,326535.3,326551.9,335346.4,335348.0999999,2024-05-22T08:52:30Z,335362.7,NULL,Schock,mshtuko,d,NA,NA,NA,NA,sdf,NA,2,NA,NA,NA,NA,NA,NA,NA,NA,NA,NA,NA,NA,NA,NA,NA,NA,NA,NA,NA
76219,deep,flow.Sequence,3_0_2_0_3_0,NA,NA,skipped,NA,335348.19999981,NA,NA,335346.4,335348.4000001,2024-05-22T08:52:30Z,335362.7,NULL,Hoffnung,matarajio,s,kutaalamika,uratibu,mvumbuzi,NA,sdf,NA,2,NA,NA,NA,NA,NA,NA,NA,NA,NA,NA,NA,NA,NA,NA,NA,NA,NA,NA,NA
76219,Shallow Question,html.Page,3_0_2_0_3_1_0,NA,NA,form submission,9012.8999999046,335348.5,335346.4,335362.7,344375.5999999,344375.69999981,2024-05-22T08:52:39Z,344390.9,NULL,Hoffnung,matarajio,s,kutaalamika,uratibu,mvumbuzi,matarajio,NA,NA,2,NA,NA,NA,NA,NA,NA,NA,NA,NA,NA,NA,NA,NA,NA,NA,NA,NA,NA,NA
76219,"""Richtig""-Screen",canvas.Screen,3_0_2_0_3_1_1,NA,NA,timeout,4997.1,344377.0999999,344374.588,344390.9,349371.2,349372.19999981,2024-05-22T08:52:44Z,349388,NULL,Hoffnung,matarajio,s,kutaalamika,uratibu,mvumbuzi,NA,sdf,1,2,NA,NA,NA,NA,NA,NA,NA,NA,NA,NA,NA,NA,NA,NA,NA,NA,NA,NA,NA
76219,"""Falsch""-Screen",canvas.Screen,3_0_2_0_3_1_2,NA,NA,skipped,NA,349377.19999981,NA,NA,349371.2,349377.19999981,2024-05-22T08:52:44Z,349388,NULL,Hoffnung,matarajio,s,kutaalamika,uratibu,mvumbuzi,NA,sdf,NA,2,NA,NA,NA,NA,NA,NA,NA,NA,NA,NA,NA,NA,NA,NA,NA,NA,NA,NA,NA
76219,shallow,flow.Sequence,3_0_2_0_3_1,NA,NA,completion,14008.5,335348.4000001,335346.4,335362.7,349371.2,349377.4000001,2024-05-22T08:52:44Z,349388,NULL,Hoffnung,matarajio,s,kutaalamika,uratibu,mvumbuzi,NA,sdf,NA,2,NA,NA,NA,NA,NA,NA,NA,NA,NA,NA,NA,NA,NA,NA,NA,NA,NA,NA,NA
76219,task,flow.Sequence,3_0_2_0_3,NA,NA,completion,14008.5,335348.19999981,335346.4,335362.7,349371.2,349377.4000001,2024-05-22T08:52:44Z,349388,NULL,Hoffnung,matarajio,s,kutaalamika,uratibu,mvumbuzi,NA,sdf,NA,2,NA,NA,NA,NA,NA,NA,NA,NA,NA,NA,NA,NA,NA,NA,NA,NA,NA,NA,NA
76219,deep,flow.Sequence,3_0_2_0_4_0,NA,NA,skipped,NA,349377.5,NA,NA,349371.2,349377.5,2024-05-22T08:52:44Z,349388,NULL,Erneuerung,ukarabati,s,ushawishi,ukalifu,unyonyaji,NA,sdf,NA,2,NA,NA,NA,NA,NA,NA,NA,NA,NA,NA,NA,NA,NA,NA,NA,NA,NA,NA,NA
76219,Shallow Question,html.Page,3_0_2_0_4_1_0,NA,NA,form submission,6592.5,349377.5,349371.2,349388,355980.5,355980.69999981,2024-05-22T08:52:50Z,355983.4,NULL,Erneuerung,ukarabati,s,ushawishi,ukalifu,unyonyaji,ukarabati,NA,NA,2,NA,NA,NA,NA,NA,NA,NA,NA,NA,NA,NA,NA,NA,NA,NA,NA,NA,NA,NA
76219,"""Richtig""-Screen",canvas.Screen,3_0_2_0_4_1_1,NA,NA,timeout,4997.5,355983.5999999,355968.7,355983.4,360964.2,360965.4000001,2024-05-22T08:52:55Z,360980.9,NULL,Erneuerung,ukarabati,s,ushawishi,ukalifu,unyonyaji,NA,sdf,1,2,NA,NA,NA,NA,NA,NA,NA,NA,NA,NA,NA,NA,NA,NA,NA,NA,NA,NA,NA
76219,"""Falsch""-Screen",canvas.Screen,3_0_2_0_4_1_2,NA,NA,skipped,NA,360970.79999971,NA,NA,360964.2,360970.9000001,2024-05-22T08:52:55Z,360980.9,NULL,Erneuerung,ukarabati,s,ushawishi,ukalifu,unyonyaji,NA,sdf,NA,2,NA,NA,NA,NA,NA,NA,NA,NA,NA,NA,NA,NA,NA,NA,NA,NA,NA,NA,NA
76219,shallow,flow.Sequence,3_0_2_0_4_1,NA,NA,completion,11576.2,349377.5,349371.2,349388,360964.2,360970.9000001,2024-05-22T08:52:55Z,360980.9,NULL,Erneuerung,ukarabati,s,ushawishi,ukalifu,unyonyaji,NA,sdf,NA,2,NA,NA,NA,NA,NA,NA,NA,NA,NA,NA,NA,NA,NA,NA,NA,NA,NA,NA,NA
76219,task,flow.Sequence,3_0_2_0_4,NA,NA,completion,11576.2,349377.5,349371.2,349388,360964.2,360971,2024-05-22T08:52:55Z,360980.9,NULL,Erneuerung,ukarabati,s,ushawishi,ukalifu,unyonyaji,NA,sdf,NA,2,NA,NA,NA,NA,NA,NA,NA,NA,NA,NA,NA,NA,NA,NA,NA,NA,NA,NA,NA
76219,Deep Question,html.Page,3_0_2_0_5_0_0,NA,NA,form submission,2924.1,360971.0999999,360964.2,360980.9,363905,363905.0999999,2024-05-22T08:52:58Z,363912,NULL,Flexibilität,kubadilika,d,NA,NA,NA,dfdsf,NA,NA,2,NA,NA,NA,NA,NA,NA,NA,NA,NA,NA,NA,NA,NA,NA,NA,NA,NA,NA,NA
76219,"""Richtig""-Screen",canvas.Screen,3_0_2_0_5_0_1,NA,NA,skipped,NA,363905.9000001,NA,NA,363905,363906.0999999,2024-05-22T08:52:58Z,363912,NULL,Flexibilität,kubadilika,d,NA,NA,NA,NA,sdf,NA,2,NA,NA,NA,NA,NA,NA,NA,NA,NA,NA,NA,NA,NA,NA,NA,NA,NA,NA,NA
76219,"""Falsch""-Screen",canvas.Screen,3_0_2_0_5_0_2,NA,NA,timeout,4996.9,363906.79999971,363895.492,363912,368892.6,368893.79999971,2024-05-22T08:53:03Z,368908.9,NULL,Flexibilität,kubadilika,d,NA,NA,NA,NA,sdf,0,2,NA,NA,NA,NA,NA,NA,NA,NA,NA,NA,NA,NA,NA,NA,NA,NA,NA,NA,NA
76219,deep,flow.Sequence,3_0_2_0_5_0,NA,NA,completion,7911.7,360971.0999999,360964.2,360980.9,368892.6,368894.19999981,2024-05-22T08:53:03Z,368908.9,NULL,Flexibilität,kubadilika,d,NA,NA,NA,NA,sdf,NA,2,NA,NA,NA,NA,NA,NA,NA,NA,NA,NA,NA,NA,NA,NA,NA,NA,NA,NA,NA
76219,shallow,flow.Sequence,3_0_2_0_5_1,NA,NA,skipped,NA,368894.4000001,NA,NA,368892.6,368894.5999999,2024-05-22T08:53:03Z,368908.9,NULL,Flexibilität,kubadilika,d,NA,NA,NA,NA,sdf,NA,2,NA,NA,NA,NA,NA,NA,NA,NA,NA,NA,NA,NA,NA,NA,NA,NA,NA,NA,NA
76219,task,flow.Sequence,3_0_2_0_5,NA,NA,completion,7911.7,360971.0999999,360964.2,360980.9,368892.6,368894.9000001,2024-05-22T08:53:03Z,368908.9,NULL,Flexibilität,kubadilika,d,NA,NA,NA,NA,sdf,NA,2,NA,NA,NA,NA,NA,NA,NA,NA,NA,NA,NA,NA,NA,NA,NA,NA,NA,NA,NA
76219,deep,flow.Sequence,3_0_2_0_6_0,NA,NA,skipped,NA,368895,NA,NA,368892.6,368895.19999981,2024-05-22T08:53:03Z,368908.9,NULL,Wechsel,ugeuzaji,s,utambulisho,kujenga,wasiwasi,NA,sdf,NA,2,NA,NA,NA,NA,NA,NA,NA,NA,NA,NA,NA,NA,NA,NA,NA,NA,NA,NA,NA
76219,Shallow Question,html.Page,3_0_2_0_6_1_0,NA,NA,form submission,7301.8999997139,368895.29999971,368892.6,368908.9,376210.79999971,376211,2024-05-22T08:53:11Z,376221.4,NULL,Wechsel,ugeuzaji,s,utambulisho,kujenga,wasiwasi,ugeuzaji,NA,NA,2,NA,NA,NA,NA,NA,NA,NA,NA,NA,NA,NA,NA,NA,NA,NA,NA,NA,NA,NA
76219,"""Richtig""-Screen",canvas.Screen,3_0_2_0_6_1_1,NA,NA,timeout,4996.7,376214.0999999,376205.158,376221.4,381201.5,381202.5,2024-05-22T08:53:16Z,381218.1,NULL,Wechsel,ugeuzaji,s,utambulisho,kujenga,wasiwasi,NA,sdf,1,2,NA,NA,NA,NA,NA,NA,NA,NA,NA,NA,NA,NA,NA,NA,NA,NA,NA,NA,NA
76219,"""Falsch""-Screen",canvas.Screen,3_0_2_0_6_1_2,NA,NA,skipped,NA,381208.5,NA,NA,381201.5,381208.79999971,2024-05-22T08:53:16Z,381218.1,NULL,Wechsel,ugeuzaji,s,utambulisho,kujenga,wasiwasi,NA,sdf,NA,2,NA,NA,NA,NA,NA,NA,NA,NA,NA,NA,NA,NA,NA,NA,NA,NA,NA,NA,NA
76219,shallow,flow.Sequence,3_0_2_0_6_1,NA,NA,completion,12292.6,368895.29999971,368892.6,368908.9,381201.5,381209.19999981,2024-05-22T08:53:16Z,381218.1,NULL,Wechsel,ugeuzaji,s,utambulisho,kujenga,wasiwasi,NA,sdf,NA,2,NA,NA,NA,NA,NA,NA,NA,NA,NA,NA,NA,NA,NA,NA,NA,NA,NA,NA,NA
76219,task,flow.Sequence,3_0_2_0_6,NA,NA,completion,12292.6,368895,368892.6,368908.9,381201.5,381209.4000001,2024-05-22T08:53:16Z,381218.1,NULL,Wechsel,ugeuzaji,s,utambulisho,kujenga,wasiwasi,NA,sdf,NA,2,NA,NA,NA,NA,NA,NA,NA,NA,NA,NA,NA,NA,NA,NA,NA,NA,NA,NA,NA
76219,Deep Question,html.Page,3_0_2_0_7_0_0,NA,NA,form submission,10889.800000095,381209.5999999,381201.5,381218.1,392107.9000001,392108,2024-05-22T08:53:26Z,392111.4,NULL,Atmosphäre,angahewa,d,NA,NA,NA,ukabatiti,NA,NA,2,NA,NA,NA,NA,NA,NA,NA,NA,NA,NA,NA,NA,NA,NA,NA,NA,NA,NA,NA
76219,"""Richtig""-Screen",canvas.Screen,3_0_2_0_7_0_1,NA,NA,skipped,NA,392109.79999971,NA,NA,392107.9000001,392109.9000001,2024-05-22T08:53:26Z,392111.4,NULL,Atmosphäre,angahewa,d,NA,NA,NA,NA,sdf,NA,2,NA,NA,NA,NA,NA,NA,NA,NA,NA,NA,NA,NA,NA,NA,NA,NA,NA,NA,NA
76219,"""Falsch""-Screen",canvas.Screen,3_0_2_0_7_0_2,NA,NA,timeout,4996.9,392110.29999971,392095.322,392111.4,397091.7,397092.0999999,2024-05-22T08:53:31Z,397108.3,NULL,Atmosphäre,angahewa,d,NA,NA,NA,NA,sdf,0,2,NA,NA,NA,NA,NA,NA,NA,NA,NA,NA,NA,NA,NA,NA,NA,NA,NA,NA,NA
76219,deep,flow.Sequence,3_0_2_0_7_0,NA,NA,completion,15873.6,381209.5999999,381201.5,381218.1,397091.7,397092.19999981,2024-05-22T08:53:31Z,397108.3,NULL,Atmosphäre,angahewa,d,NA,NA,NA,NA,sdf,NA,2,NA,NA,NA,NA,NA,NA,NA,NA,NA,NA,NA,NA,NA,NA,NA,NA,NA,NA,NA
76219,shallow,flow.Sequence,3_0_2_0_7_1,NA,NA,skipped,NA,397092.29999971,NA,NA,397091.7,397092.29999971,2024-05-22T08:53:31Z,397108.3,NULL,Atmosphäre,angahewa,d,NA,NA,NA,NA,sdf,NA,2,NA,NA,NA,NA,NA,NA,NA,NA,NA,NA,NA,NA,NA,NA,NA,NA,NA,NA,NA
76219,task,flow.Sequence,3_0_2_0_7,NA,NA,completion,15873.6,381209.5,381201.5,381218.1,397091.7,397092.4000001,2024-05-22T08:53:31Z,397108.3,NULL,Atmosphäre,angahewa,d,NA,NA,NA,NA,sdf,NA,2,NA,NA,NA,NA,NA,NA,NA,NA,NA,NA,NA,NA,NA,NA,NA,NA,NA,NA,NA
76219,block,flow.Loop,3_0_2_0,NA,NA,completion,91227.014,305874.9000001,305864.686,305864.686,397091.7,397092.4000001,2024-05-22T08:53:31Z,397108.3,NULL,NA,NA,NA,NA,NA,NA,NA,sdf,NA,2,NA,NA,NA,NA,NA,NA,NA,NA,NA,NA,NA,NA,NA,NA,NA,NA,NA,NA,NA
76219,weiter,canvas.Screen,3_0_2_1,sdf,keypress(Space),response,1153.2,397092.4000001,397091.7,397108.3,398261.5,398261.9000001,2024-05-22T08:53:33Z,398274.92,NULL,NA,NA,NA,NA,NA,NA,NA,sdf,NA,2,NA,NA,NA,NA,NA,NA,NA,NA,NA,NA,NA,NA,NA,NA,NA,NA,NA,NA,NA
76219,check continue,flow.Sequence,3_0_2,NA,NA,completion,92396.814,305874.9000001,305864.686,305864.686,398261.5,398262,2024-05-22T08:53:33Z,398274.92,NULL,NA,NA,NA,NA,NA,NA,NA,sdf,NA,2,NA,NA,NA,NA,NA,NA,NA,NA,NA,NA,NA,NA,NA,NA,NA,NA,NA,NA,NA
76219,deep,flow.Sequence,3_0_3_0_0_0,NA,NA,skipped,NA,398285.5,NA,NA,398261.5,398285.69999981,2024-05-22T08:53:33Z,398274.92,NULL,Verpackung,ufungaji,s,uhusiano,upimaji,uchunguzi,NA,qt,NA,3,NA,NA,NA,NA,NA,NA,NA,NA,NA,NA,NA,NA,NA,NA,NA,NA,NA,NA,NA
76219,Shallow Question,html.Page,3_0_3_0_0_1_0,NA,NA,form submission,6411.8799997139,398285.69999981,398274.92,398274.92,404686.79999971,404687.0999999,2024-05-22T08:53:39Z,404704.4,NULL,Verpackung,ufungaji,s,uhusiano,upimaji,uchunguzi,ufungaji,NA,NA,3,NA,NA,NA,NA,NA,NA,NA,NA,NA,NA,NA,NA,NA,NA,NA,NA,NA,NA,NA
76219,"""Richtig""-Screen",canvas.Screen,3_0_3_0_0_1_1,NA,NA,timeout,4996.7,404690,404687.788,404704.4,409684.5,409685.69999981,2024-05-22T08:53:44Z,409701.1,NULL,Verpackung,ufungaji,s,uhusiano,upimaji,uchunguzi,NA,qt,1,3,NA,NA,NA,NA,NA,NA,NA,NA,NA,NA,NA,NA,NA,NA,NA,NA,NA,NA,NA
76219,"""Falsch""-Screen",canvas.Screen,3_0_3_0_0_1_2,NA,NA,skipped,NA,409690.9000001,NA,NA,409684.5,409691,2024-05-22T08:53:44Z,409701.1,NULL,Verpackung,ufungaji,s,uhusiano,upimaji,uchunguzi,NA,qt,NA,3,NA,NA,NA,NA,NA,NA,NA,NA,NA,NA,NA,NA,NA,NA,NA,NA,NA,NA,NA
76219,shallow,flow.Sequence,3_0_3_0_0_1,NA,NA,completion,11409.58,398285.69999981,398274.92,398274.92,409684.5,409691.0999999,2024-05-22T08:53:44Z,409701.1,NULL,Verpackung,ufungaji,s,uhusiano,upimaji,uchunguzi,NA,qt,NA,3,NA,NA,NA,NA,NA,NA,NA,NA,NA,NA,NA,NA,NA,NA,NA,NA,NA,NA,NA
76219,task,flow.Sequence,3_0_3_0_0,NA,NA,completion,11409.58,398285.5,398274.92,398274.92,409684.5,409691.19999981,2024-05-22T08:53:44Z,409701.1,NULL,Verpackung,ufungaji,s,uhusiano,upimaji,uchunguzi,NA,qt,NA,3,NA,NA,NA,NA,NA,NA,NA,NA,NA,NA,NA,NA,NA,NA,NA,NA,NA,NA,NA
76219,deep,flow.Sequence,3_0_3_0_1_0,NA,NA,skipped,NA,409691.19999981,NA,NA,409684.5,409691.29999971,2024-05-22T08:53:44Z,409701.1,NULL,Wechsel,ugeuzaji,s,utambulisho,kujenga,wasiwasi,NA,qt,NA,3,NA,NA,NA,NA,NA,NA,NA,NA,NA,NA,NA,NA,NA,NA,NA,NA,NA,NA,NA
76219,Shallow Question,html.Page,3_0_3_0_1_1_0,NA,NA,form submission,5403.0999998093,409691.29999971,409684.5,409701.1,415104.19999981,415104.29999971,2024-05-22T08:53:49Z,415114.4,NULL,Wechsel,ugeuzaji,s,utambulisho,kujenga,wasiwasi,ugeuzaji,NA,NA,3,NA,NA,NA,NA,NA,NA,NA,NA,NA,NA,NA,NA,NA,NA,NA,NA,NA,NA,NA
76219,"""Richtig""-Screen",canvas.Screen,3_0_3_0_1_1_1,NA,NA,timeout,4996.7,415105.79999971,415098.228,415114.4,420094.3,420094.79999971,2024-05-22T08:53:54Z,420111.1,NULL,Wechsel,ugeuzaji,s,utambulisho,kujenga,wasiwasi,NA,qt,1,3,NA,NA,NA,NA,NA,NA,NA,NA,NA,NA,NA,NA,NA,NA,NA,NA,NA,NA,NA
76219,"""Falsch""-Screen",canvas.Screen,3_0_3_0_1_1_2,NA,NA,skipped,NA,420097.0999999,NA,NA,420094.3,420097.19999981,2024-05-22T08:53:54Z,420111.1,NULL,Wechsel,ugeuzaji,s,utambulisho,kujenga,wasiwasi,NA,qt,NA,3,NA,NA,NA,NA,NA,NA,NA,NA,NA,NA,NA,NA,NA,NA,NA,NA,NA,NA,NA
76219,shallow,flow.Sequence,3_0_3_0_1_1,NA,NA,completion,10393.2,409691.29999971,409684.5,409701.1,420094.3,420097.4000001,2024-05-22T08:53:54Z,420111.1,NULL,Wechsel,ugeuzaji,s,utambulisho,kujenga,wasiwasi,NA,qt,NA,3,NA,NA,NA,NA,NA,NA,NA,NA,NA,NA,NA,NA,NA,NA,NA,NA,NA,NA,NA
76219,task,flow.Sequence,3_0_3_0_1,NA,NA,completion,10393.2,409691.19999981,409684.5,409701.1,420094.3,420097.4000001,2024-05-22T08:53:54Z,420111.1,NULL,Wechsel,ugeuzaji,s,utambulisho,kujenga,wasiwasi,NA,qt,NA,3,NA,NA,NA,NA,NA,NA,NA,NA,NA,NA,NA,NA,NA,NA,NA,NA,NA,NA,NA
76219,deep,flow.Sequence,3_0_3_0_2_0,NA,NA,skipped,NA,420097.4000001,NA,NA,420094.3,420097.5999999,2024-05-22T08:53:54Z,420111.1,NULL,Erneuerung,ukarabati,s,ushawishi,ukalifu,unyonyaji,NA,qt,NA,3,NA,NA,NA,NA,NA,NA,NA,NA,NA,NA,NA,NA,NA,NA,NA,NA,NA,NA,NA
76219,Shallow Question,html.Page,3_0_3_0_2_1_0,NA,NA,form submission,7528.3000000954,420097.5999999,420094.3,420111.1,427639.4000001,427639.5999999,2024-05-22T08:54:02Z,427640.446,NULL,Erneuerung,ukarabati,s,ushawishi,ukalifu,unyonyaji,ukarabati,NA,NA,3,NA,NA,NA,NA,NA,NA,NA,NA,NA,NA,NA,NA,NA,NA,NA,NA,NA,NA,NA
76219,"""Richtig""-Screen",canvas.Screen,3_0_3_0_2_1_1,NA,NA,timeout,4996.854,427642.5999999,427640.446,427640.446,432620.3,432621.4000001,2024-05-22T08:54:07Z,432637.3,NULL,Erneuerung,ukarabati,s,ushawishi,ukalifu,unyonyaji,NA,qt,1,3,NA,NA,NA,NA,NA,NA,NA,NA,NA,NA,NA,NA,NA,NA,NA,NA,NA,NA,NA
76219,"""Falsch""-Screen",canvas.Screen,3_0_3_0_2_1_2,NA,NA,skipped,NA,432627.19999981,NA,NA,432620.3,432627.29999971,2024-05-22T08:54:07Z,432637.3,NULL,Erneuerung,ukarabati,s,ushawishi,ukalifu,unyonyaji,NA,qt,NA,3,NA,NA,NA,NA,NA,NA,NA,NA,NA,NA,NA,NA,NA,NA,NA,NA,NA,NA,NA
76219,shallow,flow.Sequence,3_0_3_0_2_1,NA,NA,completion,12509.2,420097.5999999,420094.3,420111.1,432620.3,432627.4000001,2024-05-22T08:54:07Z,432637.3,NULL,Erneuerung,ukarabati,s,ushawishi,ukalifu,unyonyaji,NA,qt,NA,3,NA,NA,NA,NA,NA,NA,NA,NA,NA,NA,NA,NA,NA,NA,NA,NA,NA,NA,NA
76219,task,flow.Sequence,3_0_3_0_2,NA,NA,completion,12509.2,420097.4000001,420094.3,420111.1,432620.3,432627.4000001,2024-05-22T08:54:07Z,432637.3,NULL,Erneuerung,ukarabati,s,ushawishi,ukalifu,unyonyaji,NA,qt,NA,3,NA,NA,NA,NA,NA,NA,NA,NA,NA,NA,NA,NA,NA,NA,NA,NA,NA,NA,NA
76219,Deep Question,html.Page,3_0_3_0_3_0_0,NA,NA,form submission,4813.7,432627.4000001,432620.3,432637.3,437451,437451.19999981,2024-05-22T08:54:12Z,437467.6,NULL,Schock,mshtuko,d,NA,NA,NA,dfdf,NA,NA,3,NA,NA,NA,NA,NA,NA,NA,NA,NA,NA,NA,NA,NA,NA,NA,NA,NA,NA,NA
76219,"""Richtig""-Screen",canvas.Screen,3_0_3_0_3_0_1,NA,NA,skipped,NA,437454.0999999,NA,NA,437451,437454.19999981,2024-05-22T08:54:12Z,437467.6,NULL,Schock,mshtuko,d,NA,NA,NA,NA,qt,NA,3,NA,NA,NA,NA,NA,NA,NA,NA,NA,NA,NA,NA,NA,NA,NA,NA,NA,NA,NA
76219,"""Falsch""-Screen",canvas.Screen,3_0_3_0_3_0_2,NA,NA,timeout,4997,437454.9000001,437451.16,437467.6,442447.5,442448.5,2024-05-22T08:54:17Z,442464.6,NULL,Schock,mshtuko,d,NA,NA,NA,NA,qt,0,3,NA,NA,NA,NA,NA,NA,NA,NA,NA,NA,NA,NA,NA,NA,NA,NA,NA,NA,NA
76219,deep,flow.Sequence,3_0_3_0_3_0,NA,NA,completion,9810.2,432627.4000001,432620.3,432637.3,442447.5,442449,2024-05-22T08:54:17Z,442464.6,NULL,Schock,mshtuko,d,NA,NA,NA,NA,qt,NA,3,NA,NA,NA,NA,NA,NA,NA,NA,NA,NA,NA,NA,NA,NA,NA,NA,NA,NA,NA
76219,shallow,flow.Sequence,3_0_3_0_3_1,NA,NA,skipped,NA,442449.19999981,NA,NA,442447.5,442449.4000001,2024-05-22T08:54:17Z,442464.6,NULL,Schock,mshtuko,d,NA,NA,NA,NA,qt,NA,3,NA,NA,NA,NA,NA,NA,NA,NA,NA,NA,NA,NA,NA,NA,NA,NA,NA,NA,NA
76219,task,flow.Sequence,3_0_3_0_3,NA,NA,completion,9810.2,432627.4000001,432620.3,432637.3,442447.5,442449.69999981,2024-05-22T08:54:17Z,442464.6,NULL,Schock,mshtuko,d,NA,NA,NA,NA,qt,NA,3,NA,NA,NA,NA,NA,NA,NA,NA,NA,NA,NA,NA,NA,NA,NA,NA,NA,NA,NA
76219,Deep Question,html.Page,3_0_3_0_4_0_0,NA,NA,form submission,3350.4,442449.9000001,442447.5,442464.6,445815,445815.19999981,2024-05-22T08:54:20Z,445828.7,NULL,Atmosphäre,angahewa,d,NA,NA,NA,dffd,NA,NA,3,NA,NA,NA,NA,NA,NA,NA,NA,NA,NA,NA,NA,NA,NA,NA,NA,NA,NA,NA
76219,"""Richtig""-Screen",canvas.Screen,3_0_3_0_4_0_1,NA,NA,skipped,NA,445818.4000001,NA,NA,445815,445818.5,2024-05-22T08:54:20Z,445828.7,NULL,Atmosphäre,angahewa,d,NA,NA,NA,NA,qt,NA,3,NA,NA,NA,NA,NA,NA,NA,NA,NA,NA,NA,NA,NA,NA,NA,NA,NA,NA,NA
76219,"""Falsch""-Screen",canvas.Screen,3_0_3_0_4_0_2,NA,NA,timeout,4997.3,445819,445812.9,445828.7,450808.9,450811,2024-05-22T08:54:25Z,450826,NULL,Atmosphäre,angahewa,d,NA,NA,NA,NA,qt,0,3,NA,NA,NA,NA,NA,NA,NA,NA,NA,NA,NA,NA,NA,NA,NA,NA,NA,NA,NA
76219,deep,flow.Sequence,3_0_3_0_4_0,NA,NA,completion,8344.3,442449.79999971,442447.5,442464.6,450808.9,450811.0999999,2024-05-22T08:54:25Z,450826,NULL,Atmosphäre,angahewa,d,NA,NA,NA,NA,qt,NA,3,NA,NA,NA,NA,NA,NA,NA,NA,NA,NA,NA,NA,NA,NA,NA,NA,NA,NA,NA
76219,shallow,flow.Sequence,3_0_3_0_4_1,NA,NA,skipped,NA,450811.19999981,NA,NA,450808.9,450811.29999971,2024-05-22T08:54:25Z,450826,NULL,Atmosphäre,angahewa,d,NA,NA,NA,NA,qt,NA,3,NA,NA,NA,NA,NA,NA,NA,NA,NA,NA,NA,NA,NA,NA,NA,NA,NA,NA,NA
76219,task,flow.Sequence,3_0_3_0_4,NA,NA,completion,8344.3,442449.79999971,442447.5,442464.6,450808.9,450811.4000001,2024-05-22T08:54:25Z,450826,NULL,Atmosphäre,angahewa,d,NA,NA,NA,NA,qt,NA,3,NA,NA,NA,NA,NA,NA,NA,NA,NA,NA,NA,NA,NA,NA,NA,NA,NA,NA,NA
76219,Deep Question,html.Page,3_0_3_0_5_0_0,NA,NA,form submission,3747,450811.4000001,450808.9,450826,454573,454573.29999971,2024-05-22T08:54:29Z,454590.4,NULL,Flexibilität,kubadilika,d,NA,NA,NA,fgsdfg,NA,NA,3,NA,NA,NA,NA,NA,NA,NA,NA,NA,NA,NA,NA,NA,NA,NA,NA,NA,NA,NA
76219,"""Richtig""-Screen",canvas.Screen,3_0_3_0_5_0_1,NA,NA,skipped,NA,454576.4000001,NA,NA,454573,454576.5,2024-05-22T08:54:29Z,454590.4,NULL,Flexibilität,kubadilika,d,NA,NA,NA,NA,qt,NA,3,NA,NA,NA,NA,NA,NA,NA,NA,NA,NA,NA,NA,NA,NA,NA,NA,NA,NA,NA
76219,"""Falsch""-Screen",canvas.Screen,3_0_3_0_5_0_2,NA,NA,timeout,4997,454577.29999971,454573.728,454590.4,459570.6,459571.69999981,2024-05-22T08:54:34Z,459587.4,NULL,Flexibilität,kubadilika,d,NA,NA,NA,NA,qt,0,3,NA,NA,NA,NA,NA,NA,NA,NA,NA,NA,NA,NA,NA,NA,NA,NA,NA,NA,NA
76219,deep,flow.Sequence,3_0_3_0_5_0,NA,NA,completion,8744.6,450811.4000001,450808.9,450826,459570.6,459572.0999999,2024-05-22T08:54:34Z,459587.4,NULL,Flexibilität,kubadilika,d,NA,NA,NA,NA,qt,NA,3,NA,NA,NA,NA,NA,NA,NA,NA,NA,NA,NA,NA,NA,NA,NA,NA,NA,NA,NA
76219,shallow,flow.Sequence,3_0_3_0_5_1,NA,NA,skipped,NA,459572.29999971,NA,NA,459570.6,459572.4000001,2024-05-22T08:54:34Z,459587.4,NULL,Flexibilität,kubadilika,d,NA,NA,NA,NA,qt,NA,3,NA,NA,NA,NA,NA,NA,NA,NA,NA,NA,NA,NA,NA,NA,NA,NA,NA,NA,NA
76219,task,flow.Sequence,3_0_3_0_5,NA,NA,completion,8744.6,450811.4000001,450808.9,450826,459570.6,459572.5999999,2024-05-22T08:54:34Z,459587.4,NULL,Flexibilität,kubadilika,d,NA,NA,NA,NA,qt,NA,3,NA,NA,NA,NA,NA,NA,NA,NA,NA,NA,NA,NA,NA,NA,NA,NA,NA,NA,NA
76219,Deep Question,html.Page,3_0_3_0_6_0_0,NA,NA,form submission,4167.7999998092,459572.79999971,459570.6,459587.4,463755.19999981,463755.4000001,2024-05-22T08:54:38Z,463768.1,NULL,Theorie,nadharia,d,NA,NA,NA,gdgg,NA,NA,3,NA,NA,NA,NA,NA,NA,NA,NA,NA,NA,NA,NA,NA,NA,NA,NA,NA,NA,NA
76219,"""Richtig""-Screen",canvas.Screen,3_0_3_0_6_0_1,NA,NA,skipped,NA,463758.5,NA,NA,463755.19999981,463758.5999999,2024-05-22T08:54:38Z,463768.1,NULL,Theorie,nadharia,d,NA,NA,NA,NA,qt,NA,3,NA,NA,NA,NA,NA,NA,NA,NA,NA,NA,NA,NA,NA,NA,NA,NA,NA,NA,NA
76219,"""Falsch""-Screen",canvas.Screen,3_0_3_0_6_0_2,NA,NA,timeout,4997,463759.29999971,463751.786,463768.1,468748.2,468749.19999981,2024-05-22T08:54:43Z,468765.1,NULL,Theorie,nadharia,d,NA,NA,NA,NA,qt,0,3,NA,NA,NA,NA,NA,NA,NA,NA,NA,NA,NA,NA,NA,NA,NA,NA,NA,NA,NA
76219,deep,flow.Sequence,3_0_3_0_6_0,NA,NA,completion,9160.8,459572.79999971,459570.6,459587.4,468748.2,468749.5,2024-05-22T08:54:43Z,468765.1,NULL,Theorie,nadharia,d,NA,NA,NA,NA,qt,NA,3,NA,NA,NA,NA,NA,NA,NA,NA,NA,NA,NA,NA,NA,NA,NA,NA,NA,NA,NA
76219,shallow,flow.Sequence,3_0_3_0_6_1,NA,NA,skipped,NA,468749.5999999,NA,NA,468748.2,468749.79999971,2024-05-22T08:54:43Z,468765.1,NULL,Theorie,nadharia,d,NA,NA,NA,NA,qt,NA,3,NA,NA,NA,NA,NA,NA,NA,NA,NA,NA,NA,NA,NA,NA,NA,NA,NA,NA,NA
76219,task,flow.Sequence,3_0_3_0_6,NA,NA,completion,9160.8,459572.69999981,459570.6,459587.4,468748.2,468749.9000001,2024-05-22T08:54:43Z,468765.1,NULL,Theorie,nadharia,d,NA,NA,NA,NA,qt,NA,3,NA,NA,NA,NA,NA,NA,NA,NA,NA,NA,NA,NA,NA,NA,NA,NA,NA,NA,NA
76219,deep,flow.Sequence,3_0_3_0_7_0,NA,NA,skipped,NA,468750.0999999,NA,NA,468748.2,468750.19999981,2024-05-22T08:54:43Z,468765.1,NULL,Hoffnung,matarajio,s,kutaalamika,uratibu,mvumbuzi,NA,qt,NA,3,NA,NA,NA,NA,NA,NA,NA,NA,NA,NA,NA,NA,NA,NA,NA,NA,NA,NA,NA
76219,Shallow Question,html.Page,3_0_3_0_7_1_0,NA,NA,form submission,19781.9,468750.29999971,468748.2,468765.1,488547,488547.29999971,2024-05-22T08:55:03Z,488553.378,NULL,Hoffnung,matarajio,s,kutaalamika,uratibu,mvumbuzi,uratibu,NA,NA,3,NA,NA,NA,NA,NA,NA,NA,NA,NA,NA,NA,NA,NA,NA,NA,NA,NA,NA,NA
76219,"""Richtig""-Screen",canvas.Screen,3_0_3_0_7_1_1,NA,NA,skipped,NA,488550.29999971,NA,NA,488547,488550.4000001,2024-05-22T08:55:03Z,488553.378,NULL,Hoffnung,matarajio,s,kutaalamika,uratibu,mvumbuzi,NA,qt,NA,3,NA,NA,NA,NA,NA,NA,NA,NA,NA,NA,NA,NA,NA,NA,NA,NA,NA,NA,NA
76219,"""Falsch""-Screen",canvas.Screen,3_0_3_0_7_1_2,NA,NA,timeout,4996.222,488551.0999999,488553.378,488553.378,493532.9,493534,2024-05-22T08:55:08Z,493549.6,NULL,Hoffnung,matarajio,s,kutaalamika,uratibu,mvumbuzi,NA,qt,0,3,NA,NA,NA,NA,NA,NA,NA,NA,NA,NA,NA,NA,NA,NA,NA,NA,NA,NA,NA
76219,shallow,flow.Sequence,3_0_3_0_7_1,NA,NA,completion,24767.8,468750.29999971,468748.2,468765.1,493532.9,493534.29999971,2024-05-22T08:55:08Z,493549.6,NULL,Hoffnung,matarajio,s,kutaalamika,uratibu,mvumbuzi,NA,qt,NA,3,NA,NA,NA,NA,NA,NA,NA,NA,NA,NA,NA,NA,NA,NA,NA,NA,NA,NA,NA
76219,task,flow.Sequence,3_0_3_0_7,NA,NA,completion,24767.8,468750.0999999,468748.2,468765.1,493532.9,493534.5999999,2024-05-22T08:55:08Z,493549.6,NULL,Hoffnung,matarajio,s,kutaalamika,uratibu,mvumbuzi,NA,qt,NA,3,NA,NA,NA,NA,NA,NA,NA,NA,NA,NA,NA,NA,NA,NA,NA,NA,NA,NA,NA
76219,block,flow.Loop,3_0_3_0,NA,NA,completion,95257.98,398285.5,398274.92,398274.92,493532.9,493534.79999971,2024-05-22T08:55:08Z,493549.6,NULL,NA,NA,NA,NA,NA,NA,NA,qt,NA,3,NA,NA,NA,NA,NA,NA,NA,NA,NA,NA,NA,NA,NA,NA,NA,NA,NA,NA,NA
76219,weiter,canvas.Screen,3_0_3_1,sdf,keypress(Space),response,4307.6999997139,493535,493532.9,493549.6,497857.29999971,497858.4000001,2024-05-22T08:55:12Z,497867.086,NULL,NA,NA,NA,NA,NA,NA,NA,qt,NA,3,NA,NA,NA,NA,NA,NA,NA,NA,NA,NA,NA,NA,NA,NA,NA,NA,NA,NA,NA
76219,check continue,flow.Sequence,3_0_3,NA,NA,completion,99582.379999714,398285.4000001,398274.92,398274.92,497857.29999971,497858.5999999,2024-05-22T08:55:12Z,497867.086,NULL,NA,NA,NA,NA,NA,NA,NA,qt,NA,3,NA,NA,NA,NA,NA,NA,NA,NA,NA,NA,NA,NA,NA,NA,NA,NA,NA,NA,NA
76219,deep,flow.Sequence,3_0_4_0_0_0,NA,NA,skipped,NA,497877.19999981,NA,NA,497857.29999971,497877.29999971,2024-05-22T08:55:12Z,497867.086,NULL,Erneuerung,ukarabati,s,ushawishi,ukalifu,unyonyaji,NA,sd,NA,4,NA,NA,NA,NA,NA,NA,NA,NA,NA,NA,NA,NA,NA,NA,NA,NA,NA,NA,NA
76219,Shallow Question,html.Page,3_0_4_0_0_1_0,NA,NA,form submission,4978.1139998093,497877.5,497867.086,497867.086,502845.19999981,502845.4000001,2024-05-22T08:55:17Z,502860.9,NULL,Erneuerung,ukarabati,s,ushawishi,ukalifu,unyonyaji,ukarabati,NA,NA,4,NA,NA,NA,NA,NA,NA,NA,NA,NA,NA,NA,NA,NA,NA,NA,NA,NA,NA,NA
76219,"""Richtig""-Screen",canvas.Screen,3_0_4_0_0_1_1,NA,NA,timeout,4996.6,502848.29999971,502844.644,502860.9,507841,507842,2024-05-22T08:55:22Z,507857.5,NULL,Erneuerung,ukarabati,s,ushawishi,ukalifu,unyonyaji,NA,sd,1,4,NA,NA,NA,NA,NA,NA,NA,NA,NA,NA,NA,NA,NA,NA,NA,NA,NA,NA,NA
76219,"""Falsch""-Screen",canvas.Screen,3_0_4_0_0_1_2,NA,NA,skipped,NA,507846.69999981,NA,NA,507841,507846.79999971,2024-05-22T08:55:22Z,507857.5,NULL,Erneuerung,ukarabati,s,ushawishi,ukalifu,unyonyaji,NA,sd,NA,4,NA,NA,NA,NA,NA,NA,NA,NA,NA,NA,NA,NA,NA,NA,NA,NA,NA,NA,NA
76219,shallow,flow.Sequence,3_0_4_0_0_1,NA,NA,completion,9973.914,497877.5,497867.086,497867.086,507841,507846.9000001,2024-05-22T08:55:22Z,507857.5,NULL,Erneuerung,ukarabati,s,ushawishi,ukalifu,unyonyaji,NA,sd,NA,4,NA,NA,NA,NA,NA,NA,NA,NA,NA,NA,NA,NA,NA,NA,NA,NA,NA,NA,NA
76219,task,flow.Sequence,3_0_4_0_0,NA,NA,completion,9973.914,497877.19999981,497867.086,497867.086,507841,507847,2024-05-22T08:55:22Z,507857.5,NULL,Erneuerung,ukarabati,s,ushawishi,ukalifu,unyonyaji,NA,sd,NA,4,NA,NA,NA,NA,NA,NA,NA,NA,NA,NA,NA,NA,NA,NA,NA,NA,NA,NA,NA
76219,Deep Question,html.Page,3_0_4_0_1_0_0,NA,NA,form submission,4875.5999999046,507847,507841,507857.5,512733.0999999,512733.29999971,2024-05-22T08:55:27Z,512737.8,NULL,Theorie,nadharia,d,NA,NA,NA,hjfgh,NA,NA,4,NA,NA,NA,NA,NA,NA,NA,NA,NA,NA,NA,NA,NA,NA,NA,NA,NA,NA,NA
76219,"""Richtig""-Screen",canvas.Screen,3_0_4_0_1_0_1,NA,NA,skipped,NA,512736.19999981,NA,NA,512733.0999999,512736.4000001,2024-05-22T08:55:27Z,512737.8,NULL,Theorie,nadharia,d,NA,NA,NA,NA,sd,NA,4,NA,NA,NA,NA,NA,NA,NA,NA,NA,NA,NA,NA,NA,NA,NA,NA,NA,NA,NA
76219,"""Falsch""-Screen",canvas.Screen,3_0_4_0_1_0_2,NA,NA,timeout,4997.6,512737.0999999,512721.856,512737.8,517718.4,517719.4000001,2024-05-22T08:55:32Z,517735.4,NULL,Theorie,nadharia,d,NA,NA,NA,NA,sd,0,4,NA,NA,NA,NA,NA,NA,NA,NA,NA,NA,NA,NA,NA,NA,NA,NA,NA,NA,NA
76219,deep,flow.Sequence,3_0_4_0_1_0,NA,NA,completion,9860.9,507847,507841,507857.5,517718.4,517719.69999981,2024-05-22T08:55:32Z,517735.4,NULL,Theorie,nadharia,d,NA,NA,NA,NA,sd,NA,4,NA,NA,NA,NA,NA,NA,NA,NA,NA,NA,NA,NA,NA,NA,NA,NA,NA,NA,NA
76219,shallow,flow.Sequence,3_0_4_0_1_1,NA,NA,skipped,NA,517719.9000001,NA,NA,517718.4,517720,2024-05-22T08:55:32Z,517735.4,NULL,Theorie,nadharia,d,NA,NA,NA,NA,sd,NA,4,NA,NA,NA,NA,NA,NA,NA,NA,NA,NA,NA,NA,NA,NA,NA,NA,NA,NA,NA
76219,task,flow.Sequence,3_0_4_0_1,NA,NA,completion,9860.9,507847,507841,507857.5,517718.4,517720.19999981,2024-05-22T08:55:32Z,517735.4,NULL,Theorie,nadharia,d,NA,NA,NA,NA,sd,NA,4,NA,NA,NA,NA,NA,NA,NA,NA,NA,NA,NA,NA,NA,NA,NA,NA,NA,NA,NA
76219,Deep Question,html.Page,3_0_4_0_2_0_0,NA,NA,form submission,3835.7999998092,517720.29999971,517718.4,517735.4,521571.19999981,521571.4000001,2024-05-22T08:55:36Z,521582.4,NULL,Flexibilität,kubadilika,d,NA,NA,NA,gfgg,NA,NA,4,NA,NA,NA,NA,NA,NA,NA,NA,NA,NA,NA,NA,NA,NA,NA,NA,NA,NA,NA
76219,"""Richtig""-Screen",canvas.Screen,3_0_4_0_2_0_1,NA,NA,skipped,NA,521574.4000001,NA,NA,521571.19999981,521574.5,2024-05-22T08:55:36Z,521582.4,NULL,Flexibilität,kubadilika,d,NA,NA,NA,NA,sd,NA,4,NA,NA,NA,NA,NA,NA,NA,NA,NA,NA,NA,NA,NA,NA,NA,NA,NA,NA,NA
76219,"""Falsch""-Screen",canvas.Screen,3_0_4_0_2_0_2,NA,NA,timeout,4997.2999999999,521575.19999981,521566.482,521582.4,526562.7,526563.79999971,2024-05-22T08:55:41Z,526579.7,NULL,Flexibilität,kubadilika,d,NA,NA,NA,NA,sd,0,4,NA,NA,NA,NA,NA,NA,NA,NA,NA,NA,NA,NA,NA,NA,NA,NA,NA,NA,NA
76219,deep,flow.Sequence,3_0_4_0_2_0,NA,NA,completion,8827.2999999999,517720.29999971,517718.4,517735.4,526562.7,526564.29999971,2024-05-22T08:55:41Z,526579.7,NULL,Flexibilität,kubadilika,d,NA,NA,NA,NA,sd,NA,4,NA,NA,NA,NA,NA,NA,NA,NA,NA,NA,NA,NA,NA,NA,NA,NA,NA,NA,NA
76219,shallow,flow.Sequence,3_0_4_0_2_1,NA,NA,skipped,NA,526564.4000001,NA,NA,526562.7,526564.5999999,2024-05-22T08:55:41Z,526579.7,NULL,Flexibilität,kubadilika,d,NA,NA,NA,NA,sd,NA,4,NA,NA,NA,NA,NA,NA,NA,NA,NA,NA,NA,NA,NA,NA,NA,NA,NA,NA,NA
76219,task,flow.Sequence,3_0_4_0_2,NA,NA,completion,8827.2999999999,517720.29999971,517718.4,517735.4,526562.7,526564.79999971,2024-05-22T08:55:41Z,526579.7,NULL,Flexibilität,kubadilika,d,NA,NA,NA,NA,sd,NA,4,NA,NA,NA,NA,NA,NA,NA,NA,NA,NA,NA,NA,NA,NA,NA,NA,NA,NA,NA
76219,Deep Question,html.Page,3_0_4_0_3_0_0,NA,NA,form submission,6421.8,526565,526562.7,526579.7,533001.5,533001.69999981,2024-05-22T08:55:47Z,533008.8,NULL,Schock,mshtuko,d,NA,NA,NA,muda,NA,NA,4,NA,NA,NA,NA,NA,NA,NA,NA,NA,NA,NA,NA,NA,NA,NA,NA,NA,NA,NA
76219,"""Richtig""-Screen",canvas.Screen,3_0_4_0_3_0_1,NA,NA,skipped,NA,533004.9000001,NA,NA,533001.5,533005,2024-05-22T08:55:47Z,533008.8,NULL,Schock,mshtuko,d,NA,NA,NA,NA,sd,NA,4,NA,NA,NA,NA,NA,NA,NA,NA,NA,NA,NA,NA,NA,NA,NA,NA,NA,NA,NA
76219,"""Falsch""-Screen",canvas.Screen,3_0_4_0_3_0_2,NA,NA,timeout,4997.5,533005.79999971,532992.522,533008.8,537989.2,537991.79999971,2024-05-22T08:55:52Z,538006.3,NULL,Schock,mshtuko,d,NA,NA,NA,NA,sd,0,4,NA,NA,NA,NA,NA,NA,NA,NA,NA,NA,NA,NA,NA,NA,NA,NA,NA,NA,NA
76219,deep,flow.Sequence,3_0_4_0_3_0,NA,NA,completion,11409.5,526564.9000001,526562.7,526579.7,537989.2,537992.29999971,2024-05-22T08:55:52Z,538006.3,NULL,Schock,mshtuko,d,NA,NA,NA,NA,sd,NA,4,NA,NA,NA,NA,NA,NA,NA,NA,NA,NA,NA,NA,NA,NA,NA,NA,NA,NA,NA
76219,shallow,flow.Sequence,3_0_4_0_3_1,NA,NA,skipped,NA,537992.5,NA,NA,537989.2,537992.69999981,2024-05-22T08:55:52Z,538006.3,NULL,Schock,mshtuko,d,NA,NA,NA,NA,sd,NA,4,NA,NA,NA,NA,NA,NA,NA,NA,NA,NA,NA,NA,NA,NA,NA,NA,NA,NA,NA
76219,task,flow.Sequence,3_0_4_0_3,NA,NA,completion,11409.5,526564.9000001,526562.7,526579.7,537989.2,537992.9000001,2024-05-22T08:55:52Z,538006.3,NULL,Schock,mshtuko,d,NA,NA,NA,NA,sd,NA,4,NA,NA,NA,NA,NA,NA,NA,NA,NA,NA,NA,NA,NA,NA,NA,NA,NA,NA,NA
76219,deep,flow.Sequence,3_0_4_0_4_0,NA,NA,skipped,NA,537993.0999999,NA,NA,537989.2,537993.19999981,2024-05-22T08:55:52Z,538006.3,NULL,Wechsel,ugeuzaji,s,utambulisho,kujenga,wasiwasi,NA,sd,NA,4,NA,NA,NA,NA,NA,NA,NA,NA,NA,NA,NA,NA,NA,NA,NA,NA,NA,NA,NA
76219,Shallow Question,html.Page,3_0_4_0_4_1_0,NA,NA,form submission,3646.3999998092,537993.29999971,537989.2,538006.3,541652.69999981,541653,2024-05-22T08:55:56Z,541653.992,NULL,Wechsel,ugeuzaji,s,utambulisho,kujenga,wasiwasi,ugeuzaji,NA,NA,4,NA,NA,NA,NA,NA,NA,NA,NA,NA,NA,NA,NA,NA,NA,NA,NA,NA,NA,NA
76219,"""Richtig""-Screen",canvas.Screen,3_0_4_0_4_1_1,NA,NA,timeout,4996.508,541656.0999999,541653.992,541653.992,546634.3,546635.4000001,2024-05-22T08:56:01Z,546650.5,NULL,Wechsel,ugeuzaji,s,utambulisho,kujenga,wasiwasi,NA,sd,1,4,NA,NA,NA,NA,NA,NA,NA,NA,NA,NA,NA,NA,NA,NA,NA,NA,NA,NA,NA
76219,"""Falsch""-Screen",canvas.Screen,3_0_4_0_4_1_2,NA,NA,skipped,NA,546641.5999999,NA,NA,546634.3,546641.9000001,2024-05-22T08:56:01Z,546650.5,NULL,Wechsel,ugeuzaji,s,utambulisho,kujenga,wasiwasi,NA,sd,NA,4,NA,NA,NA,NA,NA,NA,NA,NA,NA,NA,NA,NA,NA,NA,NA,NA,NA,NA,NA
76219,shallow,flow.Sequence,3_0_4_0_4_1,NA,NA,completion,8628,537993.29999971,537989.2,538006.3,546634.3,546642.19999981,2024-05-22T08:56:01Z,546650.5,NULL,Wechsel,ugeuzaji,s,utambulisho,kujenga,wasiwasi,NA,sd,NA,4,NA,NA,NA,NA,NA,NA,NA,NA,NA,NA,NA,NA,NA,NA,NA,NA,NA,NA,NA
76219,task,flow.Sequence,3_0_4_0_4,NA,NA,completion,8628,537993.0999999,537989.2,538006.3,546634.3,546642.4000001,2024-05-22T08:56:01Z,546650.5,NULL,Wechsel,ugeuzaji,s,utambulisho,kujenga,wasiwasi,NA,sd,NA,4,NA,NA,NA,NA,NA,NA,NA,NA,NA,NA,NA,NA,NA,NA,NA,NA,NA,NA,NA
76219,deep,flow.Sequence,3_0_4_0_5_0,NA,NA,skipped,NA,546642.5999999,NA,NA,546634.3,546642.69999981,2024-05-22T08:56:01Z,546650.5,NULL,Hoffnung,matarajio,s,kutaalamika,uratibu,mvumbuzi,NA,sd,NA,4,NA,NA,NA,NA,NA,NA,NA,NA,NA,NA,NA,NA,NA,NA,NA,NA,NA,NA,NA
76219,Shallow Question,html.Page,3_0_4_0_5_1_0,NA,NA,form submission,10316.5,546642.79999971,546634.3,546650.5,556967,556967.19999981,2024-05-22T08:56:11Z,556977.5,NULL,Hoffnung,matarajio,s,kutaalamika,uratibu,mvumbuzi,matarajio,NA,NA,4,NA,NA,NA,NA,NA,NA,NA,NA,NA,NA,NA,NA,NA,NA,NA,NA,NA,NA,NA
76219,"""Richtig""-Screen",canvas.Screen,3_0_4_0_5_1_1,NA,NA,timeout,4996.9,556970.29999971,556961.478,556977.5,561957.8,561958.79999971,2024-05-22T08:56:16Z,561974.4,NULL,Hoffnung,matarajio,s,kutaalamika,uratibu,mvumbuzi,NA,sd,1,4,NA,NA,NA,NA,NA,NA,NA,NA,NA,NA,NA,NA,NA,NA,NA,NA,NA,NA,NA
76219,"""Falsch""-Screen",canvas.Screen,3_0_4_0_5_1_2,NA,NA,skipped,NA,561964.19999981,NA,NA,561957.8,561964.29999971,2024-05-22T08:56:16Z,561974.4,NULL,Hoffnung,matarajio,s,kutaalamika,uratibu,mvumbuzi,NA,sd,NA,4,NA,NA,NA,NA,NA,NA,NA,NA,NA,NA,NA,NA,NA,NA,NA,NA,NA,NA,NA
76219,shallow,flow.Sequence,3_0_4_0_5_1,NA,NA,completion,15307.3,546642.79999971,546634.3,546650.5,561957.8,561964.69999981,2024-05-22T08:56:16Z,561974.4,NULL,Hoffnung,matarajio,s,kutaalamika,uratibu,mvumbuzi,NA,sd,NA,4,NA,NA,NA,NA,NA,NA,NA,NA,NA,NA,NA,NA,NA,NA,NA,NA,NA,NA,NA
76219,task,flow.Sequence,3_0_4_0_5,NA,NA,completion,15307.3,546642.5999999,546634.3,546650.5,561957.8,561964.79999971,2024-05-22T08:56:16Z,561974.4,NULL,Hoffnung,matarajio,s,kutaalamika,uratibu,mvumbuzi,NA,sd,NA,4,NA,NA,NA,NA,NA,NA,NA,NA,NA,NA,NA,NA,NA,NA,NA,NA,NA,NA,NA
76219,deep,flow.Sequence,3_0_4_0_6_0,NA,NA,skipped,NA,561965,NA,NA,561957.8,561965.0999999,2024-05-22T08:56:16Z,561974.4,NULL,Verpackung,ufungaji,s,uhusiano,upimaji,uchunguzi,NA,sd,NA,4,NA,NA,NA,NA,NA,NA,NA,NA,NA,NA,NA,NA,NA,NA,NA,NA,NA,NA,NA
76219,Shallow Question,html.Page,3_0_4_0_6_1_0,NA,NA,form submission,4336.8999997139,561965.19999981,561957.8,561974.4,566311.29999971,566311.5,2024-05-22T08:56:21Z,566321.9,NULL,Verpackung,ufungaji,s,uhusiano,upimaji,uchunguzi,ufungaji,NA,NA,4,NA,NA,NA,NA,NA,NA,NA,NA,NA,NA,NA,NA,NA,NA,NA,NA,NA,NA,NA
76219,"""Richtig""-Screen",canvas.Screen,3_0_4_0_6_1_1,NA,NA,timeout,4996.7999999999,566314.5,566305.75,566321.9,571302.2,571303.0999999,2024-05-22T08:56:26Z,571318.7,NULL,Verpackung,ufungaji,s,uhusiano,upimaji,uchunguzi,NA,sd,1,4,NA,NA,NA,NA,NA,NA,NA,NA,NA,NA,NA,NA,NA,NA,NA,NA,NA,NA,NA
76219,"""Falsch""-Screen",canvas.Screen,3_0_4_0_6_1_2,NA,NA,skipped,NA,571308.4000001,NA,NA,571302.2,571308.5,2024-05-22T08:56:26Z,571318.7,NULL,Verpackung,ufungaji,s,uhusiano,upimaji,uchunguzi,NA,sd,NA,4,NA,NA,NA,NA,NA,NA,NA,NA,NA,NA,NA,NA,NA,NA,NA,NA,NA,NA,NA
76219,shallow,flow.Sequence,3_0_4_0_6_1,NA,NA,completion,9327.7999999999,561965.0999999,561957.8,561974.4,571302.2,571308.5,2024-05-22T08:56:26Z,571318.7,NULL,Verpackung,ufungaji,s,uhusiano,upimaji,uchunguzi,NA,sd,NA,4,NA,NA,NA,NA,NA,NA,NA,NA,NA,NA,NA,NA,NA,NA,NA,NA,NA,NA,NA
76219,task,flow.Sequence,3_0_4_0_6,NA,NA,completion,9327.7999999999,561964.9000001,561957.8,561974.4,571302.2,571308.5999999,2024-05-22T08:56:26Z,571318.7,NULL,Verpackung,ufungaji,s,uhusiano,upimaji,uchunguzi,NA,sd,NA,4,NA,NA,NA,NA,NA,NA,NA,NA,NA,NA,NA,NA,NA,NA,NA,NA,NA,NA,NA
76219,Deep Question,html.Page,3_0_4_0_7_0_0,NA,NA,form submission,5776.8,571308.5999999,571302.2,571318.7,577095.5,577095.69999981,2024-05-22T08:56:31Z,577115.6,NULL,Atmosphäre,angahewa,d,NA,NA,NA,mdf,NA,NA,4,NA,NA,NA,NA,NA,NA,NA,NA,NA,NA,NA,NA,NA,NA,NA,NA,NA,NA,NA
76219,"""Richtig""-Screen",canvas.Screen,3_0_4_0_7_0_1,NA,NA,skipped,NA,577098.5999999,NA,NA,577095.5,577098.79999971,2024-05-22T08:56:31Z,577115.6,NULL,Atmosphäre,angahewa,d,NA,NA,NA,NA,sd,NA,4,NA,NA,NA,NA,NA,NA,NA,NA,NA,NA,NA,NA,NA,NA,NA,NA,NA,NA,NA
76219,"""Falsch""-Screen",canvas.Screen,3_0_4_0_7_0_2,NA,NA,timeout,4997.1,577099.5999999,577099.212,577115.6,582095.6,582096.5999999,2024-05-22T08:56:36Z,582112.7,NULL,Atmosphäre,angahewa,d,NA,NA,NA,NA,sd,0,4,NA,NA,NA,NA,NA,NA,NA,NA,NA,NA,NA,NA,NA,NA,NA,NA,NA,NA,NA
76219,deep,flow.Sequence,3_0_4_0_7_0,NA,NA,completion,10776.9,571308.5999999,571302.2,571318.7,582095.6,582096.79999971,2024-05-22T08:56:36Z,582112.7,NULL,Atmosphäre,angahewa,d,NA,NA,NA,NA,sd,NA,4,NA,NA,NA,NA,NA,NA,NA,NA,NA,NA,NA,NA,NA,NA,NA,NA,NA,NA,NA
76219,shallow,flow.Sequence,3_0_4_0_7_1,NA,NA,skipped,NA,582097,NA,NA,582095.6,582097.0999999,2024-05-22T08:56:36Z,582112.7,NULL,Atmosphäre,angahewa,d,NA,NA,NA,NA,sd,NA,4,NA,NA,NA,NA,NA,NA,NA,NA,NA,NA,NA,NA,NA,NA,NA,NA,NA,NA,NA
76219,task,flow.Sequence,3_0_4_0_7,NA,NA,completion,10776.9,571308.5999999,571302.2,571318.7,582095.6,582097.4000001,2024-05-22T08:56:36Z,582112.7,NULL,Atmosphäre,angahewa,d,NA,NA,NA,NA,sd,NA,4,NA,NA,NA,NA,NA,NA,NA,NA,NA,NA,NA,NA,NA,NA,NA,NA,NA,NA,NA
76219,block,flow.Loop,3_0_4_0,NA,NA,completion,84228.514,497877.19999981,497867.086,497867.086,582095.6,582097.5999999,2024-05-22T08:56:36Z,582112.7,NULL,NA,NA,NA,NA,NA,NA,NA,sd,NA,4,NA,NA,NA,NA,NA,NA,NA,NA,NA,NA,NA,NA,NA,NA,NA,NA,NA,NA,NA
76219,weiter,canvas.Screen,3_0_4_1,sdf,keypress(Space),response,1278.4999998093,582097.69999981,582095.6,582112.7,583391.19999981,583392.0999999,2024-05-22T08:56:38Z,583411.4,NULL,NA,NA,NA,NA,NA,NA,NA,sd,NA,4,NA,NA,NA,NA,NA,NA,NA,NA,NA,NA,NA,NA,NA,NA,NA,NA,NA,NA,NA
76219,check continue,flow.Sequence,3_0_4,NA,NA,completion,85524.113999809,497877.19999981,497867.086,497867.086,583391.19999981,583392.29999971,2024-05-22T08:56:38Z,583411.4,NULL,NA,NA,NA,NA,NA,NA,NA,sd,NA,4,NA,NA,NA,NA,NA,NA,NA,NA,NA,NA,NA,NA,NA,NA,NA,NA,NA,NA,NA
76219,deep,flow.Sequence,3_0_5_0_0_0,NA,NA,skipped,NA,583410.4000001,NA,NA,583391.19999981,583410.5,2024-05-22T08:56:38Z,583411.4,NULL,Hoffnung,matarajio,s,kutaalamika,uratibu,mvumbuzi,NA,sdf,NA,5,NA,NA,NA,NA,NA,NA,NA,NA,NA,NA,NA,NA,NA,NA,NA,NA,NA,NA,NA
76219,Shallow Question,html.Page,3_0_5_0_0_1_0,NA,NA,form submission,5443.3999997139,583410.5999999,583395.982,583411.4,588854.79999971,588855,2024-05-22T08:56:43Z,588858.458,NULL,Hoffnung,matarajio,s,kutaalamika,uratibu,mvumbuzi,matarajio,NA,NA,5,NA,NA,NA,NA,NA,NA,NA,NA,NA,NA,NA,NA,NA,NA,NA,NA,NA,NA,NA
76219,"""Richtig""-Screen",canvas.Screen,3_0_5_0_0_1_1,NA,NA,timeout,4997.142,588857.79999971,588858.458,588858.458,593838.5,593839.4000001,2024-05-22T08:56:48Z,593855.6,NULL,Hoffnung,matarajio,s,kutaalamika,uratibu,mvumbuzi,NA,sdf,1,5,NA,NA,NA,NA,NA,NA,NA,NA,NA,NA,NA,NA,NA,NA,NA,NA,NA,NA,NA
76219,"""Falsch""-Screen",canvas.Screen,3_0_5_0_0_1_2,NA,NA,skipped,NA,593844.4000001,NA,NA,593838.5,593844.5,2024-05-22T08:56:48Z,593855.6,NULL,Hoffnung,matarajio,s,kutaalamika,uratibu,mvumbuzi,NA,sdf,NA,5,NA,NA,NA,NA,NA,NA,NA,NA,NA,NA,NA,NA,NA,NA,NA,NA,NA,NA,NA
76219,shallow,flow.Sequence,3_0_5_0_0_1,NA,NA,completion,10427.1,583410.5,583395.982,583411.4,593838.5,593844.5999999,2024-05-22T08:56:48Z,593855.6,NULL,Hoffnung,matarajio,s,kutaalamika,uratibu,mvumbuzi,NA,sdf,NA,5,NA,NA,NA,NA,NA,NA,NA,NA,NA,NA,NA,NA,NA,NA,NA,NA,NA,NA,NA
76219,task,flow.Sequence,3_0_5_0_0,NA,NA,completion,10427.1,583410.4000001,583395.982,583411.4,593838.5,593844.69999981,2024-05-22T08:56:48Z,593855.6,NULL,Hoffnung,matarajio,s,kutaalamika,uratibu,mvumbuzi,NA,sdf,NA,5,NA,NA,NA,NA,NA,NA,NA,NA,NA,NA,NA,NA,NA,NA,NA,NA,NA,NA,NA
76219,Deep Question,html.Page,3_0_5_0_1_0_0,NA,NA,form submission,7089.8000000954,593844.69999981,593838.5,593855.6,600945.4000001,600945.5999999,2024-05-22T08:56:55Z,600950.72,NULL,Schock,mshtuko,d,NA,NA,NA,mshtuko,NA,NA,5,NA,NA,NA,NA,NA,NA,NA,NA,NA,NA,NA,NA,NA,NA,NA,NA,NA,NA,NA
76219,"""Richtig""-Screen",canvas.Screen,3_0_5_0_1_0_1,NA,NA,timeout,4997.48,600948.5,600950.72,600950.72,605931.3,605931.79999971,2024-05-22T08:57:00Z,605948.2,NULL,Schock,mshtuko,d,NA,NA,NA,NA,sdf,1,5,NA,NA,NA,NA,NA,NA,NA,NA,NA,NA,NA,NA,NA,NA,NA,NA,NA,NA,NA
76219,"""Falsch""-Screen",canvas.Screen,3_0_5_0_1_0_2,NA,NA,skipped,NA,605933.69999981,NA,NA,605931.3,605933.79999971,2024-05-22T08:57:00Z,605948.2,NULL,Schock,mshtuko,d,NA,NA,NA,NA,sdf,NA,5,NA,NA,NA,NA,NA,NA,NA,NA,NA,NA,NA,NA,NA,NA,NA,NA,NA,NA,NA
76219,deep,flow.Sequence,3_0_5_0_1_0,NA,NA,completion,12075.7,593844.69999981,593838.5,593855.6,605931.3,605933.9000001,2024-05-22T08:57:00Z,605948.2,NULL,Schock,mshtuko,d,NA,NA,NA,NA,sdf,NA,5,NA,NA,NA,NA,NA,NA,NA,NA,NA,NA,NA,NA,NA,NA,NA,NA,NA,NA,NA
76219,shallow,flow.Sequence,3_0_5_0_1_1,NA,NA,skipped,NA,605934,NA,NA,605931.3,605934,2024-05-22T08:57:00Z,605948.2,NULL,Schock,mshtuko,d,NA,NA,NA,NA,sdf,NA,5,NA,NA,NA,NA,NA,NA,NA,NA,NA,NA,NA,NA,NA,NA,NA,NA,NA,NA,NA
76219,task,flow.Sequence,3_0_5_0_1,NA,NA,completion,12075.7,593844.69999981,593838.5,593855.6,605931.3,605934,2024-05-22T08:57:00Z,605948.2,NULL,Schock,mshtuko,d,NA,NA,NA,NA,sdf,NA,5,NA,NA,NA,NA,NA,NA,NA,NA,NA,NA,NA,NA,NA,NA,NA,NA,NA,NA,NA
76219,Deep Question,html.Page,3_0_5_0_2_0_0,NA,NA,form submission,6063.5999997139,605934.0999999,605931.3,605948.2,612011.79999971,612012,2024-05-22T08:57:06Z,612027.8,NULL,Atmosphäre,angahewa,d,NA,NA,NA,angahewa,NA,NA,5,NA,NA,NA,NA,NA,NA,NA,NA,NA,NA,NA,NA,NA,NA,NA,NA,NA,NA,NA
76219,"""Richtig""-Screen",canvas.Screen,3_0_5_0_2_0_1,NA,NA,timeout,4996.7999999999,612014.9000001,612010.896,612027.8,617007.8,617008.79999971,2024-05-22T08:57:11Z,617024.6,NULL,Atmosphäre,angahewa,d,NA,NA,NA,NA,sdf,1,5,NA,NA,NA,NA,NA,NA,NA,NA,NA,NA,NA,NA,NA,NA,NA,NA,NA,NA,NA
76219,"""Falsch""-Screen",canvas.Screen,3_0_5_0_2_0_2,NA,NA,skipped,NA,617013.69999981,NA,NA,617007.8,617013.79999971,2024-05-22T08:57:11Z,617024.6,NULL,Atmosphäre,angahewa,d,NA,NA,NA,NA,sdf,NA,5,NA,NA,NA,NA,NA,NA,NA,NA,NA,NA,NA,NA,NA,NA,NA,NA,NA,NA,NA
76219,deep,flow.Sequence,3_0_5_0_2_0,NA,NA,completion,11059.6,605934.0999999,605931.3,605948.2,617007.8,617013.9000001,2024-05-22T08:57:11Z,617024.6,NULL,Atmosphäre,angahewa,d,NA,NA,NA,NA,sdf,NA,5,NA,NA,NA,NA,NA,NA,NA,NA,NA,NA,NA,NA,NA,NA,NA,NA,NA,NA,NA
76219,shallow,flow.Sequence,3_0_5_0_2_1,NA,NA,skipped,NA,617013.9000001,NA,NA,617007.8,617013.9000001,2024-05-22T08:57:11Z,617024.6,NULL,Atmosphäre,angahewa,d,NA,NA,NA,NA,sdf,NA,5,NA,NA,NA,NA,NA,NA,NA,NA,NA,NA,NA,NA,NA,NA,NA,NA,NA,NA,NA
76219,task,flow.Sequence,3_0_5_0_2,NA,NA,completion,11059.6,605934.0999999,605931.3,605948.2,617007.8,617013.9000001,2024-05-22T08:57:11Z,617024.6,NULL,Atmosphäre,angahewa,d,NA,NA,NA,NA,sdf,NA,5,NA,NA,NA,NA,NA,NA,NA,NA,NA,NA,NA,NA,NA,NA,NA,NA,NA,NA,NA
76219,deep,flow.Sequence,3_0_5_0_3_0,NA,NA,skipped,NA,617014,NA,NA,617007.8,617014,2024-05-22T08:57:11Z,617024.6,NULL,Erneuerung,ukarabati,s,ushawishi,ukalifu,unyonyaji,NA,sdf,NA,5,NA,NA,NA,NA,NA,NA,NA,NA,NA,NA,NA,NA,NA,NA,NA,NA,NA,NA,NA
76219,Shallow Question,html.Page,3_0_5_0_3_1_0,NA,NA,form submission,5696.0999998093,617014.0999999,617007.8,617024.6,622720.69999981,622720.9000001,2024-05-22T08:57:17Z,622738,NULL,Erneuerung,ukarabati,s,ushawishi,ukalifu,unyonyaji,unyonyaji,NA,NA,5,NA,NA,NA,NA,NA,NA,NA,NA,NA,NA,NA,NA,NA,NA,NA,NA,NA,NA,NA
76219,"""Richtig""-Screen",canvas.Screen,3_0_5_0_3_1_1,NA,NA,skipped,NA,622723.9000001,NA,NA,622720.69999981,622724,2024-05-22T08:57:17Z,622738,NULL,Erneuerung,ukarabati,s,ushawishi,ukalifu,unyonyaji,NA,sdf,NA,5,NA,NA,NA,NA,NA,NA,NA,NA,NA,NA,NA,NA,NA,NA,NA,NA,NA,NA,NA
76219,"""Falsch""-Screen",canvas.Screen,3_0_5_0_3_1_2,NA,NA,timeout,4996.6,622724.69999981,622721.23,622738,627717.7,627718.5999999,2024-05-22T08:57:22Z,627734.6,NULL,Erneuerung,ukarabati,s,ushawishi,ukalifu,unyonyaji,NA,sdf,0,5,NA,NA,NA,NA,NA,NA,NA,NA,NA,NA,NA,NA,NA,NA,NA,NA,NA,NA,NA
76219,shallow,flow.Sequence,3_0_5_0_3_1,NA,NA,completion,10693.1,617014,617007.8,617024.6,627717.7,627719,2024-05-22T08:57:22Z,627734.6,NULL,Erneuerung,ukarabati,s,ushawishi,ukalifu,unyonyaji,NA,sdf,NA,5,NA,NA,NA,NA,NA,NA,NA,NA,NA,NA,NA,NA,NA,NA,NA,NA,NA,NA,NA
76219,task,flow.Sequence,3_0_5_0_3,NA,NA,completion,10693.1,617014,617007.8,617024.6,627717.7,627719.0999999,2024-05-22T08:57:22Z,627734.6,NULL,Erneuerung,ukarabati,s,ushawishi,ukalifu,unyonyaji,NA,sdf,NA,5,NA,NA,NA,NA,NA,NA,NA,NA,NA,NA,NA,NA,NA,NA,NA,NA,NA,NA,NA
76219,Deep Question,html.Page,3_0_5_0_4_0_0,NA,NA,form submission,3138.1999997139,627719.29999971,627717.7,627734.6,630872.79999971,630872.9000001,2024-05-22T08:57:25Z,630882.5,NULL,Flexibilität,kubadilika,d,NA,NA,NA,dfdf,NA,NA,5,NA,NA,NA,NA,NA,NA,NA,NA,NA,NA,NA,NA,NA,NA,NA,NA,NA,NA,NA
76219,"""Richtig""-Screen",canvas.Screen,3_0_5_0_4_0_1,NA,NA,skipped,NA,630876.0999999,NA,NA,630872.79999971,630876.19999981,2024-05-22T08:57:25Z,630882.5,NULL,Flexibilität,kubadilika,d,NA,NA,NA,NA,sdf,NA,5,NA,NA,NA,NA,NA,NA,NA,NA,NA,NA,NA,NA,NA,NA,NA,NA,NA,NA,NA
76219,"""Falsch""-Screen",canvas.Screen,3_0_5_0_4_0_2,NA,NA,timeout,4996.8,630876.9000001,630865.864,630882.5,635863.2,635864.0999999,2024-05-22T08:57:30Z,635879.3,NULL,Flexibilität,kubadilika,d,NA,NA,NA,NA,sdf,0,5,NA,NA,NA,NA,NA,NA,NA,NA,NA,NA,NA,NA,NA,NA,NA,NA,NA,NA,NA
76219,deep,flow.Sequence,3_0_5_0_4_0,NA,NA,completion,8128.6,627719.29999971,627717.7,627734.6,635863.2,635864.4000001,2024-05-22T08:57:30Z,635879.3,NULL,Flexibilität,kubadilika,d,NA,NA,NA,NA,sdf,NA,5,NA,NA,NA,NA,NA,NA,NA,NA,NA,NA,NA,NA,NA,NA,NA,NA,NA,NA,NA
76219,shallow,flow.Sequence,3_0_5_0_4_1,NA,NA,skipped,NA,635864.5,NA,NA,635863.2,635864.69999981,2024-05-22T08:57:30Z,635879.3,NULL,Flexibilität,kubadilika,d,NA,NA,NA,NA,sdf,NA,5,NA,NA,NA,NA,NA,NA,NA,NA,NA,NA,NA,NA,NA,NA,NA,NA,NA,NA,NA
76219,task,flow.Sequence,3_0_5_0_4,NA,NA,completion,8128.6,627719.29999971,627717.7,627734.6,635863.2,635864.9000001,2024-05-22T08:57:30Z,635879.3,NULL,Flexibilität,kubadilika,d,NA,NA,NA,NA,sdf,NA,5,NA,NA,NA,NA,NA,NA,NA,NA,NA,NA,NA,NA,NA,NA,NA,NA,NA,NA,NA
76219,Deep Question,html.Page,3_0_5_0_5_0_0,NA,NA,form submission,3608.2,635865,635863.2,635879.3,639487.5,639487.5999999,2024-05-22T08:57:34Z,639494.454,NULL,Theorie,nadharia,d,NA,NA,NA,dsd,NA,NA,5,NA,NA,NA,NA,NA,NA,NA,NA,NA,NA,NA,NA,NA,NA,NA,NA,NA,NA,NA
76219,"""Richtig""-Screen",canvas.Screen,3_0_5_0_5_0_1,NA,NA,skipped,NA,639490.5999999,NA,NA,639487.5,639490.69999981,2024-05-22T08:57:34Z,639494.454,NULL,Theorie,nadharia,d,NA,NA,NA,NA,sdf,NA,5,NA,NA,NA,NA,NA,NA,NA,NA,NA,NA,NA,NA,NA,NA,NA,NA,NA,NA,NA
76219,"""Falsch""-Screen",canvas.Screen,3_0_5_0_5_0_2,NA,NA,timeout,4996.7459999999,639491.5,639494.454,639494.454,644474.2,644475.19999981,2024-05-22T08:57:39Z,644491.2,NULL,Theorie,nadharia,d,NA,NA,NA,NA,sdf,0,5,NA,NA,NA,NA,NA,NA,NA,NA,NA,NA,NA,NA,NA,NA,NA,NA,NA,NA,NA
76219,deep,flow.Sequence,3_0_5_0_5_0,NA,NA,completion,8594.8999999999,635865,635863.2,635879.3,644474.2,644475.5,2024-05-22T08:57:39Z,644491.2,NULL,Theorie,nadharia,d,NA,NA,NA,NA,sdf,NA,5,NA,NA,NA,NA,NA,NA,NA,NA,NA,NA,NA,NA,NA,NA,NA,NA,NA,NA,NA
76219,shallow,flow.Sequence,3_0_5_0_5_1,NA,NA,skipped,NA,644475.69999981,NA,NA,644474.2,644475.79999971,2024-05-22T08:57:39Z,644491.2,NULL,Theorie,nadharia,d,NA,NA,NA,NA,sdf,NA,5,NA,NA,NA,NA,NA,NA,NA,NA,NA,NA,NA,NA,NA,NA,NA,NA,NA,NA,NA
76219,task,flow.Sequence,3_0_5_0_5,NA,NA,completion,8594.8999999999,635865,635863.2,635879.3,644474.2,644476,2024-05-22T08:57:39Z,644491.2,NULL,Theorie,nadharia,d,NA,NA,NA,NA,sdf,NA,5,NA,NA,NA,NA,NA,NA,NA,NA,NA,NA,NA,NA,NA,NA,NA,NA,NA,NA,NA
76219,deep,flow.Sequence,3_0_5_0_6_0,NA,NA,skipped,NA,644476.19999981,NA,NA,644474.2,644476.29999971,2024-05-22T08:57:39Z,644491.2,NULL,Wechsel,ugeuzaji,s,utambulisho,kujenga,wasiwasi,NA,sdf,NA,5,NA,NA,NA,NA,NA,NA,NA,NA,NA,NA,NA,NA,NA,NA,NA,NA,NA,NA,NA
76219,Shallow Question,html.Page,3_0_5_0_6_1_0,NA,NA,form submission,3533.8,644476.5,644474.2,644491.2,648025,648025.19999981,2024-05-22T08:57:42Z,648038.5,NULL,Wechsel,ugeuzaji,s,utambulisho,kujenga,wasiwasi,ugeuzaji,NA,NA,5,NA,NA,NA,NA,NA,NA,NA,NA,NA,NA,NA,NA,NA,NA,NA,NA,NA,NA,NA
76219,"""Richtig""-Screen",canvas.Screen,3_0_5_0_6_1_1,NA,NA,timeout,4997.6,648028.4000001,648022.514,648038.5,653018.9,653019.9000001,2024-05-22T08:57:47Z,653036.1,NULL,Wechsel,ugeuzaji,s,utambulisho,kujenga,wasiwasi,NA,sdf,1,5,NA,NA,NA,NA,NA,NA,NA,NA,NA,NA,NA,NA,NA,NA,NA,NA,NA,NA,NA
76219,"""Falsch""-Screen",canvas.Screen,3_0_5_0_6_1_2,NA,NA,skipped,NA,653024.9000001,NA,NA,653018.9,653025,2024-05-22T08:57:47Z,653036.1,NULL,Wechsel,ugeuzaji,s,utambulisho,kujenga,wasiwasi,NA,sdf,NA,5,NA,NA,NA,NA,NA,NA,NA,NA,NA,NA,NA,NA,NA,NA,NA,NA,NA,NA,NA
76219,shallow,flow.Sequence,3_0_5_0_6_1,NA,NA,completion,8527.7000000001,644476.5,644474.2,644491.2,653018.9,653025.0999999,2024-05-22T08:57:47Z,653036.1,NULL,Wechsel,ugeuzaji,s,utambulisho,kujenga,wasiwasi,NA,sdf,NA,5,NA,NA,NA,NA,NA,NA,NA,NA,NA,NA,NA,NA,NA,NA,NA,NA,NA,NA,NA
76219,task,flow.Sequence,3_0_5_0_6,NA,NA,completion,8527.7000000001,644476.19999981,644474.2,644491.2,653018.9,653025.0999999,2024-05-22T08:57:47Z,653036.1,NULL,Wechsel,ugeuzaji,s,utambulisho,kujenga,wasiwasi,NA,sdf,NA,5,NA,NA,NA,NA,NA,NA,NA,NA,NA,NA,NA,NA,NA,NA,NA,NA,NA,NA,NA
76219,deep,flow.Sequence,3_0_5_0_7_0,NA,NA,skipped,NA,653025.0999999,NA,NA,653018.9,653025.0999999,2024-05-22T08:57:47Z,653036.1,NULL,Verpackung,ufungaji,s,uhusiano,upimaji,uchunguzi,NA,sdf,NA,5,NA,NA,NA,NA,NA,NA,NA,NA,NA,NA,NA,NA,NA,NA,NA,NA,NA,NA,NA
76219,Shallow Question,html.Page,3_0_5_0_7_1_0,NA,NA,form submission,4614.8000000954,653025.19999981,653018.9,653036.1,657650.9000001,657651.19999981,2024-05-22T08:57:52Z,657666.6,NULL,Verpackung,ufungaji,s,uhusiano,upimaji,uchunguzi,ufungaji,NA,NA,5,NA,NA,NA,NA,NA,NA,NA,NA,NA,NA,NA,NA,NA,NA,NA,NA,NA,NA,NA
76219,"""Richtig""-Screen",canvas.Screen,3_0_5_0_7_1_1,NA,NA,timeout,4996.4,657654.0999999,657650.02,657666.6,662646.6,662647.5,2024-05-22T08:57:57Z,662663,NULL,Verpackung,ufungaji,s,uhusiano,upimaji,uchunguzi,NA,sdf,1,5,NA,NA,NA,NA,NA,NA,NA,NA,NA,NA,NA,NA,NA,NA,NA,NA,NA,NA,NA
76219,"""Falsch""-Screen",canvas.Screen,3_0_5_0_7_1_2,NA,NA,skipped,NA,662652.29999971,NA,NA,662646.6,662652.4000001,2024-05-22T08:57:57Z,662663,NULL,Verpackung,ufungaji,s,uhusiano,upimaji,uchunguzi,NA,sdf,NA,5,NA,NA,NA,NA,NA,NA,NA,NA,NA,NA,NA,NA,NA,NA,NA,NA,NA,NA,NA
76219,shallow,flow.Sequence,3_0_5_0_7_1,NA,NA,completion,9610.5,653025.19999981,653018.9,653036.1,662646.6,662652.69999981,2024-05-22T08:57:57Z,662663,NULL,Verpackung,ufungaji,s,uhusiano,upimaji,uchunguzi,NA,sdf,NA,5,NA,NA,NA,NA,NA,NA,NA,NA,NA,NA,NA,NA,NA,NA,NA,NA,NA,NA,NA
76219,task,flow.Sequence,3_0_5_0_7,NA,NA,completion,9610.5,653025.0999999,653018.9,653036.1,662646.6,662652.9000001,2024-05-22T08:57:57Z,662663,NULL,Verpackung,ufungaji,s,uhusiano,upimaji,uchunguzi,NA,sdf,NA,5,NA,NA,NA,NA,NA,NA,NA,NA,NA,NA,NA,NA,NA,NA,NA,NA,NA,NA,NA
76219,block,flow.Loop,3_0_5_0,NA,NA,completion,79235.2,583410.4000001,583395.982,583411.4,662646.6,662653.0999999,2024-05-22T08:57:57Z,662663,NULL,NA,NA,NA,NA,NA,NA,NA,sdf,NA,5,NA,NA,NA,NA,NA,NA,NA,NA,NA,NA,NA,NA,NA,NA,NA,NA,NA,NA,NA
76219,weiter,canvas.Screen,3_0_5_1,sdf,keypress(Space),response,1314.9000000954,662653.19999981,662646.6,662663,663977.9000001,663979,2024-05-22T08:57:58Z,663996.7,NULL,NA,NA,NA,NA,NA,NA,NA,sdf,NA,5,NA,NA,NA,NA,NA,NA,NA,NA,NA,NA,NA,NA,NA,NA,NA,NA,NA,NA,NA
76219,check continue,flow.Sequence,3_0_5,NA,NA,completion,80566.500000095,583410.4000001,583395.982,583411.4,663977.9000001,663979.29999971,2024-05-22T08:57:58Z,663996.7,NULL,NA,NA,NA,NA,NA,NA,NA,sdf,NA,5,NA,NA,NA,NA,NA,NA,NA,NA,NA,NA,NA,NA,NA,NA,NA,NA,NA,NA,NA
76219,deep,flow.Sequence,3_0_6_0_0_0,NA,NA,skipped,NA,663995.9000001,NA,NA,663977.9000001,663996,2024-05-22T08:57:58Z,663996.7,NULL,Erneuerung,ukarabati,s,ushawishi,ukalifu,unyonyaji,NA,dfs,NA,6,NA,NA,NA,NA,NA,NA,NA,NA,NA,NA,NA,NA,NA,NA,NA,NA,NA,NA,NA
76219,Shallow Question,html.Page,3_0_6_0_0_1_0,NA,NA,form submission,5018.9999998093,663996.29999971,663996.28,663996.7,669015.69999981,669015.9000001,2024-05-22T08:58:03Z,669025.7,NULL,Erneuerung,ukarabati,s,ushawishi,ukalifu,unyonyaji,ukarabati,NA,NA,6,NA,NA,NA,NA,NA,NA,NA,NA,NA,NA,NA,NA,NA,NA,NA,NA,NA,NA,NA
76219,"""Richtig""-Screen",canvas.Screen,3_0_6_0_0_1_1,NA,NA,timeout,4997.4,669017.5,669009.7,669025.7,674006.1,674007,2024-05-22T08:58:08Z,674023.1,NULL,Erneuerung,ukarabati,s,ushawishi,ukalifu,unyonyaji,NA,dfs,1,6,NA,NA,NA,NA,NA,NA,NA,NA,NA,NA,NA,NA,NA,NA,NA,NA,NA,NA,NA
76219,"""Falsch""-Screen",canvas.Screen,3_0_6_0_0_1_2,NA,NA,skipped,NA,674012,NA,NA,674006.1,674012.19999981,2024-05-22T08:58:08Z,674023.1,NULL,Erneuerung,ukarabati,s,ushawishi,ukalifu,unyonyaji,NA,dfs,NA,6,NA,NA,NA,NA,NA,NA,NA,NA,NA,NA,NA,NA,NA,NA,NA,NA,NA,NA,NA
76219,shallow,flow.Sequence,3_0_6_0_0_1,NA,NA,completion,10009.4,663996.29999971,663996.28,663996.7,674006.1,674012.29999971,2024-05-22T08:58:08Z,674023.1,NULL,Erneuerung,ukarabati,s,ushawishi,ukalifu,unyonyaji,NA,dfs,NA,6,NA,NA,NA,NA,NA,NA,NA,NA,NA,NA,NA,NA,NA,NA,NA,NA,NA,NA,NA
76219,task,flow.Sequence,3_0_6_0_0,NA,NA,completion,10009.4,663995.9000001,663996.28,663996.7,674006.1,674012.29999971,2024-05-22T08:58:08Z,674023.1,NULL,Erneuerung,ukarabati,s,ushawishi,ukalifu,unyonyaji,NA,dfs,NA,6,NA,NA,NA,NA,NA,NA,NA,NA,NA,NA,NA,NA,NA,NA,NA,NA,NA,NA,NA
76219,deep,flow.Sequence,3_0_6_0_1_0,NA,NA,skipped,NA,674012.29999971,NA,NA,674006.1,674012.29999971,2024-05-22T08:58:08Z,674023.1,NULL,Wechsel,ugeuzaji,s,utambulisho,kujenga,wasiwasi,NA,dfs,NA,6,NA,NA,NA,NA,NA,NA,NA,NA,NA,NA,NA,NA,NA,NA,NA,NA,NA,NA,NA
76219,Shallow Question,html.Page,3_0_6_0_1_1_0,NA,NA,form submission,3595.9999999047,674012.5,674006.1,674023.1,677619.0999999,677619.4000001,2024-05-22T08:58:12Z,677621.34,NULL,Wechsel,ugeuzaji,s,utambulisho,kujenga,wasiwasi,ugeuzaji,NA,NA,6,NA,NA,NA,NA,NA,NA,NA,NA,NA,NA,NA,NA,NA,NA,NA,NA,NA,NA,NA
76219,"""Richtig""-Screen",canvas.Screen,3_0_6_0_1_1_1,NA,NA,timeout,4996.66,677622.5,677621.34,677621.34,682601.2,682602,2024-05-22T08:58:17Z,682618,NULL,Wechsel,ugeuzaji,s,utambulisho,kujenga,wasiwasi,NA,dfs,1,6,NA,NA,NA,NA,NA,NA,NA,NA,NA,NA,NA,NA,NA,NA,NA,NA,NA,NA,NA
76219,"""Falsch""-Screen",canvas.Screen,3_0_6_0_1_1_2,NA,NA,skipped,NA,682606.5999999,NA,NA,682601.2,682606.79999971,2024-05-22T08:58:17Z,682618,NULL,Wechsel,ugeuzaji,s,utambulisho,kujenga,wasiwasi,NA,dfs,NA,6,NA,NA,NA,NA,NA,NA,NA,NA,NA,NA,NA,NA,NA,NA,NA,NA,NA,NA,NA
76219,shallow,flow.Sequence,3_0_6_0_1_1,NA,NA,completion,8578.1,674012.4000001,674006.1,674023.1,682601.2,682606.79999971,2024-05-22T08:58:17Z,682618,NULL,Wechsel,ugeuzaji,s,utambulisho,kujenga,wasiwasi,NA,dfs,NA,6,NA,NA,NA,NA,NA,NA,NA,NA,NA,NA,NA,NA,NA,NA,NA,NA,NA,NA,NA
76219,task,flow.Sequence,3_0_6_0_1,NA,NA,completion,8578.1,674012.29999971,674006.1,674023.1,682601.2,682606.9000001,2024-05-22T08:58:17Z,682618,NULL,Wechsel,ugeuzaji,s,utambulisho,kujenga,wasiwasi,NA,dfs,NA,6,NA,NA,NA,NA,NA,NA,NA,NA,NA,NA,NA,NA,NA,NA,NA,NA,NA,NA,NA
76219,Deep Question,html.Page,3_0_6_0_2_0_0,NA,NA,form submission,6447.5,682607,682601.2,682618,689065.5,689065.5999999,2024-05-22T08:58:23Z,689080.6,NULL,Schock,mshtuko,d,NA,NA,NA,mshtuko,NA,NA,6,NA,NA,NA,NA,NA,NA,NA,NA,NA,NA,NA,NA,NA,NA,NA,NA,NA,NA,NA
76219,"""Richtig""-Screen",canvas.Screen,3_0_6_0_2_0_1,NA,NA,timeout,4997.1,689068.5,689064.2,689080.6,694060.8,694061.69999981,2024-05-22T08:58:28Z,694077.7,NULL,Schock,mshtuko,d,NA,NA,NA,NA,dfs,1,6,NA,NA,NA,NA,NA,NA,NA,NA,NA,NA,NA,NA,NA,NA,NA,NA,NA,NA,NA
76219,"""Falsch""-Screen",canvas.Screen,3_0_6_0_2_0_2,NA,NA,skipped,NA,694067.0999999,NA,NA,694060.8,694067.29999971,2024-05-22T08:58:28Z,694077.7,NULL,Schock,mshtuko,d,NA,NA,NA,NA,dfs,NA,6,NA,NA,NA,NA,NA,NA,NA,NA,NA,NA,NA,NA,NA,NA,NA,NA,NA,NA,NA
76219,deep,flow.Sequence,3_0_6_0_2_0,NA,NA,completion,11442.8,682607,682601.2,682618,694060.8,694067.4000001,2024-05-22T08:58:28Z,694077.7,NULL,Schock,mshtuko,d,NA,NA,NA,NA,dfs,NA,6,NA,NA,NA,NA,NA,NA,NA,NA,NA,NA,NA,NA,NA,NA,NA,NA,NA,NA,NA
76219,shallow,flow.Sequence,3_0_6_0_2_1,NA,NA,skipped,NA,694067.4000001,NA,NA,694060.8,694067.5,2024-05-22T08:58:28Z,694077.7,NULL,Schock,mshtuko,d,NA,NA,NA,NA,dfs,NA,6,NA,NA,NA,NA,NA,NA,NA,NA,NA,NA,NA,NA,NA,NA,NA,NA,NA,NA,NA
76219,task,flow.Sequence,3_0_6_0_2,NA,NA,completion,11442.8,682607,682601.2,682618,694060.8,694067.5,2024-05-22T08:58:28Z,694077.7,NULL,Schock,mshtuko,d,NA,NA,NA,NA,dfs,NA,6,NA,NA,NA,NA,NA,NA,NA,NA,NA,NA,NA,NA,NA,NA,NA,NA,NA,NA,NA
76219,Deep Question,html.Page,3_0_6_0_3_0_0,NA,NA,form submission,10670.999999809,694067.5999999,694060.8,694077.7,704748.69999981,704748.79999971,2024-05-22T08:58:39Z,704754.1,NULL,Flexibilität,kubadilika,d,NA,NA,NA,nadharia,NA,NA,6,NA,NA,NA,NA,NA,NA,NA,NA,NA,NA,NA,NA,NA,NA,NA,NA,NA,NA,NA
76219,"""Richtig""-Screen",canvas.Screen,3_0_6_0_3_0_1,NA,NA,skipped,NA,704750.19999981,NA,NA,704748.69999981,704750.29999971,2024-05-22T08:58:39Z,704754.1,NULL,Flexibilität,kubadilika,d,NA,NA,NA,NA,dfs,NA,6,NA,NA,NA,NA,NA,NA,NA,NA,NA,NA,NA,NA,NA,NA,NA,NA,NA,NA,NA
76219,"""Falsch""-Screen",canvas.Screen,3_0_6_0_3_0_2,NA,NA,timeout,4997.3,704750.5999999,704737.9,704754.1,709734.8,709735.69999981,2024-05-22T08:58:44Z,709751.4,NULL,Flexibilität,kubadilika,d,NA,NA,NA,NA,dfs,0,6,NA,NA,NA,NA,NA,NA,NA,NA,NA,NA,NA,NA,NA,NA,NA,NA,NA,NA,NA
76219,deep,flow.Sequence,3_0_6_0_3_0,NA,NA,completion,15657.1,694067.5999999,694060.8,694077.7,709734.8,709736.0999999,2024-05-22T08:58:44Z,709751.4,NULL,Flexibilität,kubadilika,d,NA,NA,NA,NA,dfs,NA,6,NA,NA,NA,NA,NA,NA,NA,NA,NA,NA,NA,NA,NA,NA,NA,NA,NA,NA,NA
76219,shallow,flow.Sequence,3_0_6_0_3_1,NA,NA,skipped,NA,709736.19999981,NA,NA,709734.8,709736.4000001,2024-05-22T08:58:44Z,709751.4,NULL,Flexibilität,kubadilika,d,NA,NA,NA,NA,dfs,NA,6,NA,NA,NA,NA,NA,NA,NA,NA,NA,NA,NA,NA,NA,NA,NA,NA,NA,NA,NA
