observation,sender,sender_type,sender_id,response,response_action,ended_on,duration,time_run,time_render,time_show,time_end,time_commit,timestamp,time_switch,distractors,german,swahili,enc,distractor1,distractor2,distractor3,response_2,x,correct,x_2,url_vp,url_sess,meta_labjs_version,meta_location,meta_user_agent,meta_platform,meta_language,meta_locale,meta_time_zone,meta_timezone_offset,meta_screen_width,meta_screen_height,meta_scroll_width,meta_scroll_height,meta_window_inner_width,meta_window_inner_height,meta_device_pixel_ratio,meta_labjs_build_flavor,meta_labjs_build_commit
a753a,Introduction general,canvas.Screen,0,weiter,keypress(q),response,2467164.701,1199.7999999523,417.669,1216.999,2468381.7,2468392.8,2023-04-18T16:02:32Z,2468387.034,NULL,NA,NA,NA,NA,NA,NA,NA,NA,NA,NA,210,1,20.2.4,https://neurocog.fernuni.ch/studies/vweber/sfink/encoding_immediate/index.html?vp=210&sess=1,"Mozilla/5.0 (Windows NT 10.0; Win64; x64) AppleWebKit/537.36 (KHTML, like Gecko) Chrome/111.0.0.0 Safari/537.36",Win32,de-CH,de,Europe/Zurich,-120,1536,864,1536,706,1536,754,1.25,production,f5b4a49f956347addd546a832a3327688c2c0fef
a753a,Introduction practice,canvas.Screen,1_0,NA,keypress(Space),response,15050.365999857,2468393.0999999,2468367.18,2468387.034,2483437.3999999,2483438.7,2023-04-18T16:02:47Z,2483458.66,NULL,NA,NA,NA,NA,NA,NA,NA,NA,NA,NA,NA,NA,NA,NA,NA,NA,NA,NA,NA,NA,NA,NA,NA,NA,NA,NA,NA,NA,NA
a753a,deep,flow.Sequence,1_1_0_0,NA,NA,skipped,NA,2483439.2,NA,NA,2483437.3999999,2483442.8999999,2023-04-18T16:02:47Z,2483458.66,"c(""distractor1"", ""distractor2"", ""distractor3"")",Kritik,lawama,s,dereva,nafasi,mawazo,NA,NA,NA,NA,NA,NA,NA,NA,NA,NA,NA,NA,NA,NA,NA,NA,NA,NA,NA,NA,NA,NA,NA
a753a,Shallow Question,html.Page,1_1_0_1_0,NA,NA,form submission,11702.939999904,2483443,2483440.429,2483458.66,2495161.5999999,2495161.8,2023-04-18T16:02:59Z,2495165.01,"c(""distractor1"", ""distractor2"", ""distractor3"")",Kritik,lawama,s,dereva,nafasi,mawazo,nafasi,NA,NA,NA,NA,NA,NA,NA,NA,NA,NA,NA,NA,NA,NA,NA,NA,NA,NA,NA,NA,NA,NA
a753a,"""Richtig""-Screen",canvas.Screen,1_1_0_1_1,NA,NA,skipped,NA,2495163,NA,NA,2495161.5999999,2495163.2,2023-04-18T16:02:59Z,2495165.01,"c(""distractor1"", ""distractor2"", ""distractor3"")",Kritik,lawama,s,dereva,nafasi,mawazo,NA,NA,NA,NA,NA,NA,NA,NA,NA,NA,NA,NA,NA,NA,NA,NA,NA,NA,NA,NA,NA,NA,NA
a753a,"""Falsch""-Screen",canvas.Screen,1_1_0_1_2,NA,NA,timeout,4996.7140000002,2495163.8999999,2495148.991,2495165.01,2500144.725,2500149.5999999,2023-04-18T16:03:04Z,2500161.724,"c(""distractor1"", ""distractor2"", ""distractor3"")",Kritik,lawama,s,dereva,nafasi,mawazo,NA,NA,0,NA,NA,NA,NA,NA,NA,NA,NA,NA,NA,NA,NA,NA,NA,NA,NA,NA,NA,NA,NA
a753a,shallow,flow.Sequence,1_1_0_1,NA,NA,completion,16686.065,2483443,2483440.429,2483458.66,2500144.725,2500150,2023-04-18T16:03:04Z,2500161.724,"c(""distractor1"", ""distractor2"", ""distractor3"")",Kritik,lawama,s,dereva,nafasi,mawazo,NA,NA,NA,NA,NA,NA,NA,NA,NA,NA,NA,NA,NA,NA,NA,NA,NA,NA,NA,NA,NA,NA,NA
a753a,task,flow.Sequence,1_1_0,NA,NA,completion,16686.065,2483439.0999999,2483440.429,2483458.66,2500144.725,2500150.3,2023-04-18T16:03:04Z,2500161.724,"c(""distractor1"", ""distractor2"", ""distractor3"")",Kritik,lawama,s,dereva,nafasi,mawazo,NA,NA,NA,NA,NA,NA,NA,NA,NA,NA,NA,NA,NA,NA,NA,NA,NA,NA,NA,NA,NA,NA,NA
a753a,Deep Question,html.Page,1_1_1_0_0,NA,NA,form submission,10222.175999857,2500150.8999999,2500144.725,2500161.724,2510383.8999999,2510384.3,2023-04-18T16:03:14Z,2510385.821,"c(""distractor1"", ""distractor2"", ""distractor3"")",Qualität,mtindo,d,NA,NA,NA,nafasi,NA,NA,NA,NA,NA,NA,NA,NA,NA,NA,NA,NA,NA,NA,NA,NA,NA,NA,NA,NA,NA,NA
a753a,"""Richtig""-Screen",canvas.Screen,1_1_1_0_1,NA,NA,skipped,NA,2510386.8999999,NA,NA,2510383.8999999,2510387.2,2023-04-18T16:03:14Z,2510385.821,"c(""distractor1"", ""distractor2"", ""distractor3"")",Qualität,mtindo,d,NA,NA,NA,NA,NA,NA,NA,NA,NA,NA,NA,NA,NA,NA,NA,NA,NA,NA,NA,NA,NA,NA,NA,NA,NA,NA
a753a,"""Falsch""-Screen",canvas.Screen,1_1_1_0_2,NA,NA,timeout,4996.4199999999,2510388.5,2510369.242,2510385.821,2515365.489,2515366.8,2023-04-18T16:03:19Z,2515382.241,"c(""distractor1"", ""distractor2"", ""distractor3"")",Qualität,mtindo,d,NA,NA,NA,NA,NA,0,NA,NA,NA,NA,NA,NA,NA,NA,NA,NA,NA,NA,NA,NA,NA,NA,NA,NA,NA,NA
a753a,deep,flow.Sequence,1_1_1_0,NA,NA,completion,15203.765,2500150.7,2500144.725,2500161.724,2515365.489,2515367.3999999,2023-04-18T16:03:19Z,2515382.241,"c(""distractor1"", ""distractor2"", ""distractor3"")",Qualität,mtindo,d,NA,NA,NA,NA,NA,NA,NA,NA,NA,NA,NA,NA,NA,NA,NA,NA,NA,NA,NA,NA,NA,NA,NA,NA,NA,NA
a753a,shallow,flow.Sequence,1_1_1_1,NA,NA,skipped,NA,2515367.7,NA,NA,2515365.489,2515368,2023-04-18T16:03:19Z,2515382.241,"c(""distractor1"", ""distractor2"", ""distractor3"")",Qualität,mtindo,d,NA,NA,NA,NA,NA,NA,NA,NA,NA,NA,NA,NA,NA,NA,NA,NA,NA,NA,NA,NA,NA,NA,NA,NA,NA,NA
a753a,task,flow.Sequence,1_1_1,NA,NA,completion,15203.765,2500150.5999999,2500144.725,2500161.724,2515365.489,2515368.3,2023-04-18T16:03:19Z,2515382.241,"c(""distractor1"", ""distractor2"", ""distractor3"")",Qualität,mtindo,d,NA,NA,NA,NA,NA,NA,NA,NA,NA,NA,NA,NA,NA,NA,NA,NA,NA,NA,NA,NA,NA,NA,NA,NA,NA,NA
a753a,deep,flow.Sequence,1_1_2_0,NA,NA,skipped,NA,2515368.7,NA,NA,2515365.489,2515368.8999999,2023-04-18T16:03:19Z,2515382.241,"c(""distractor1"", ""distractor2"", ""distractor3"")",Rückhalt,msaada,s,muhula,auwali,kiwimbe,NA,NA,NA,NA,NA,NA,NA,NA,NA,NA,NA,NA,NA,NA,NA,NA,NA,NA,NA,NA,NA,NA,NA
a753a,Shallow Question,html.Page,1_1_2_1_0,NA,NA,form submission,10331.759,2515369.2,2515365.489,2515382.241,2525714,2525714.2,2023-04-18T16:03:30Z,2525723.444,"c(""distractor1"", ""distractor2"", ""distractor3"")",Rückhalt,msaada,s,muhula,auwali,kiwimbe,muhula,NA,NA,NA,NA,NA,NA,NA,NA,NA,NA,NA,NA,NA,NA,NA,NA,NA,NA,NA,NA,NA,NA
a753a,"""Richtig""-Screen",canvas.Screen,1_1_2_1_1,NA,NA,skipped,NA,2525716.0999999,NA,NA,2525714,2525716.3,2023-04-18T16:03:30Z,2525723.444,"c(""distractor1"", ""distractor2"", ""distractor3"")",Rückhalt,msaada,s,muhula,auwali,kiwimbe,NA,NA,NA,NA,NA,NA,NA,NA,NA,NA,NA,NA,NA,NA,NA,NA,NA,NA,NA,NA,NA,NA,NA
a753a,"""Falsch""-Screen",canvas.Screen,1_1_2_1_2,NA,NA,timeout,4996.2390000001,2525717.0999999,2525706.88,2525723.444,2530702.796,2530703.8,2023-04-18T16:03:35Z,2530719.683,"c(""distractor1"", ""distractor2"", ""distractor3"")",Rückhalt,msaada,s,muhula,auwali,kiwimbe,NA,NA,0,NA,NA,NA,NA,NA,NA,NA,NA,NA,NA,NA,NA,NA,NA,NA,NA,NA,NA,NA,NA
a753a,shallow,flow.Sequence,1_1_2_1,NA,NA,completion,15320.555,2515369,2515365.489,2515382.241,2530702.796,2530704.3,2023-04-18T16:03:35Z,2530719.683,"c(""distractor1"", ""distractor2"", ""distractor3"")",Rückhalt,msaada,s,muhula,auwali,kiwimbe,NA,NA,NA,NA,NA,NA,NA,NA,NA,NA,NA,NA,NA,NA,NA,NA,NA,NA,NA,NA,NA,NA,NA
a753a,task,flow.Sequence,1_1_2,NA,NA,completion,15320.555,2515368.5,2515365.489,2515382.241,2530702.796,2530704.5999999,2023-04-18T16:03:35Z,2530719.683,"c(""distractor1"", ""distractor2"", ""distractor3"")",Rückhalt,msaada,s,muhula,auwali,kiwimbe,NA,NA,NA,NA,NA,NA,NA,NA,NA,NA,NA,NA,NA,NA,NA,NA,NA,NA,NA,NA,NA,NA,NA
a753a,deep,flow.Sequence,1_1_3_0,NA,NA,skipped,NA,2530704.8,NA,NA,2530702.796,2530705.0999999,2023-04-18T16:03:35Z,2530719.683,"c(""distractor1"", ""distractor2"", ""distractor3"")",Gegenwart,hadhara,s,katiba,jokofu,mikopo,NA,NA,NA,NA,NA,NA,NA,NA,NA,NA,NA,NA,NA,NA,NA,NA,NA,NA,NA,NA,NA,NA,NA
a753a,Shallow Question,html.Page,1_1_3_1_0,NA,NA,form submission,8944.6169999521,2530705.3,2530702.796,2530719.683,2539664.3,2539664.3999999,2023-04-18T16:03:44Z,2539678.545,"c(""distractor1"", ""distractor2"", ""distractor3"")",Gegenwart,hadhara,s,katiba,jokofu,mikopo,jokofu,NA,NA,NA,NA,NA,NA,NA,NA,NA,NA,NA,NA,NA,NA,NA,NA,NA,NA,NA,NA,NA,NA
a753a,"""Richtig""-Screen",canvas.Screen,1_1_3_1_1,NA,NA,skipped,NA,2539666.5,NA,NA,2539664.3,2539666.5999999,2023-04-18T16:03:44Z,2539678.545,"c(""distractor1"", ""distractor2"", ""distractor3"")",Gegenwart,hadhara,s,katiba,jokofu,mikopo,NA,NA,NA,NA,NA,NA,NA,NA,NA,NA,NA,NA,NA,NA,NA,NA,NA,NA,NA,NA,NA,NA,NA
a753a,"""Falsch""-Screen",canvas.Screen,1_1_3_1_2,NA,NA,timeout,4996.389,2539667.2,2539662.292,2539678.545,2544658.309,2544659.3,2023-04-18T16:03:49Z,2544674.934,"c(""distractor1"", ""distractor2"", ""distractor3"")",Gegenwart,hadhara,s,katiba,jokofu,mikopo,NA,NA,0,NA,NA,NA,NA,NA,NA,NA,NA,NA,NA,NA,NA,NA,NA,NA,NA,NA,NA,NA,NA
a753a,shallow,flow.Sequence,1_1_3_1,NA,NA,completion,13938.626,2530705.0999999,2530702.796,2530719.683,2544658.309,2544659.5999999,2023-04-18T16:03:49Z,2544674.934,"c(""distractor1"", ""distractor2"", ""distractor3"")",Gegenwart,hadhara,s,katiba,jokofu,mikopo,NA,NA,NA,NA,NA,NA,NA,NA,NA,NA,NA,NA,NA,NA,NA,NA,NA,NA,NA,NA,NA,NA,NA
a753a,task,flow.Sequence,1_1_3,NA,NA,completion,13938.626,2530704.7,2530702.796,2530719.683,2544658.309,2544659.8,2023-04-18T16:03:49Z,2544674.934,"c(""distractor1"", ""distractor2"", ""distractor3"")",Gegenwart,hadhara,s,katiba,jokofu,mikopo,NA,NA,NA,NA,NA,NA,NA,NA,NA,NA,NA,NA,NA,NA,NA,NA,NA,NA,NA,NA,NA,NA,NA
a753a,Deep Question,html.Page,1_1_4_0_0,NA,NA,form submission,10282.465999857,2544660.0999999,2544658.309,2544674.934,2554957.3999999,2554957.5999999,2023-04-18T16:03:59Z,2554965.898,"c(""distractor1"", ""distractor2"", ""distractor3"")",Schatten,kivuli,d,NA,NA,NA,nafasi,NA,NA,NA,NA,NA,NA,NA,NA,NA,NA,NA,NA,NA,NA,NA,NA,NA,NA,NA,NA,NA,NA
a753a,"""Richtig""-Screen",canvas.Screen,1_1_4_0_1,NA,NA,skipped,NA,2554960.3,NA,NA,2554957.3999999,2554960.3999999,2023-04-18T16:03:59Z,2554965.898,"c(""distractor1"", ""distractor2"", ""distractor3"")",Schatten,kivuli,d,NA,NA,NA,NA,NA,NA,NA,NA,NA,NA,NA,NA,NA,NA,NA,NA,NA,NA,NA,NA,NA,NA,NA,NA,NA,NA
a753a,"""Falsch""-Screen",canvas.Screen,1_1_4_0_2,NA,NA,timeout,4995.9950000001,2554961.5,2554949.988,2554965.898,2559945.812,2559946.8,2023-04-18T16:04:04Z,2559961.893,"c(""distractor1"", ""distractor2"", ""distractor3"")",Schatten,kivuli,d,NA,NA,NA,NA,NA,0,NA,NA,NA,NA,NA,NA,NA,NA,NA,NA,NA,NA,NA,NA,NA,NA,NA,NA,NA,NA
a753a,deep,flow.Sequence,1_1_4_0,NA,NA,completion,15270.878,2544660.0999999,2544658.309,2544674.934,2559945.812,2559947.2,2023-04-18T16:04:04Z,2559961.893,"c(""distractor1"", ""distractor2"", ""distractor3"")",Schatten,kivuli,d,NA,NA,NA,NA,NA,NA,NA,NA,NA,NA,NA,NA,NA,NA,NA,NA,NA,NA,NA,NA,NA,NA,NA,NA,NA,NA
a753a,shallow,flow.Sequence,1_1_4_1,NA,NA,skipped,NA,2559947.3999999,NA,NA,2559945.812,2559947.5999999,2023-04-18T16:04:04Z,2559961.893,"c(""distractor1"", ""distractor2"", ""distractor3"")",Schatten,kivuli,d,NA,NA,NA,NA,NA,NA,NA,NA,NA,NA,NA,NA,NA,NA,NA,NA,NA,NA,NA,NA,NA,NA,NA,NA,NA,NA
a753a,task,flow.Sequence,1_1_4,NA,NA,completion,15270.878,2544660,2544658.309,2544674.934,2559945.812,2559947.8999999,2023-04-18T16:04:04Z,2559961.893,"c(""distractor1"", ""distractor2"", ""distractor3"")",Schatten,kivuli,d,NA,NA,NA,NA,NA,NA,NA,NA,NA,NA,NA,NA,NA,NA,NA,NA,NA,NA,NA,NA,NA,NA,NA,NA,NA,NA
a753a,Deep Question,html.Page,1_1_5_0_0,NA,NA,form submission,9266.9069999522,2559948.0999999,2559945.812,2559961.893,2569228.8,2569229,2023-04-18T16:04:13Z,2569237.584,"c(""distractor1"", ""distractor2"", ""distractor3"")",Gesundheit,salama,d,NA,NA,NA,kivuli,NA,NA,NA,NA,NA,NA,NA,NA,NA,NA,NA,NA,NA,NA,NA,NA,NA,NA,NA,NA,NA,NA
a753a,"""Richtig""-Screen",canvas.Screen,1_1_5_0_1,NA,NA,skipped,NA,2569231.2,NA,NA,2569228.8,2569231.3999999,2023-04-18T16:04:13Z,2569237.584,"c(""distractor1"", ""distractor2"", ""distractor3"")",Gesundheit,salama,d,NA,NA,NA,NA,NA,NA,NA,NA,NA,NA,NA,NA,NA,NA,NA,NA,NA,NA,NA,NA,NA,NA,NA,NA,NA,NA
a753a,"""Falsch""-Screen",canvas.Screen,1_1_5_0_2,NA,NA,timeout,4995.8700000001,2569232.0999999,2569221.443,2569237.584,2574217.368,2574218.3,2023-04-18T16:04:18Z,2574233.454,"c(""distractor1"", ""distractor2"", ""distractor3"")",Gesundheit,salama,d,NA,NA,NA,NA,NA,0,NA,NA,NA,NA,NA,NA,NA,NA,NA,NA,NA,NA,NA,NA,NA,NA,NA,NA,NA,NA
a753a,deep,flow.Sequence,1_1_5_0,NA,NA,completion,14255.475,2559948,2559945.812,2559961.893,2574217.368,2574218.7,2023-04-18T16:04:18Z,2574233.454,"c(""distractor1"", ""distractor2"", ""distractor3"")",Gesundheit,salama,d,NA,NA,NA,NA,NA,NA,NA,NA,NA,NA,NA,NA,NA,NA,NA,NA,NA,NA,NA,NA,NA,NA,NA,NA,NA,NA
a753a,shallow,flow.Sequence,1_1_5_1,NA,NA,skipped,NA,2574218.8999999,NA,NA,2574217.368,2574219.0999999,2023-04-18T16:04:18Z,2574233.454,"c(""distractor1"", ""distractor2"", ""distractor3"")",Gesundheit,salama,d,NA,NA,NA,NA,NA,NA,NA,NA,NA,NA,NA,NA,NA,NA,NA,NA,NA,NA,NA,NA,NA,NA,NA,NA,NA,NA
a753a,task,flow.Sequence,1_1_5,NA,NA,completion,14255.475,2559948,2559945.812,2559961.893,2574217.368,2574219.3999999,2023-04-18T16:04:18Z,2574233.454,"c(""distractor1"", ""distractor2"", ""distractor3"")",Gesundheit,salama,d,NA,NA,NA,NA,NA,NA,NA,NA,NA,NA,NA,NA,NA,NA,NA,NA,NA,NA,NA,NA,NA,NA,NA,NA,NA,NA
a753a,block,flow.Loop,1_1,NA,NA,completion,90758.708,2483439.0999999,2483440.429,2483458.66,2574217.368,2574220,2023-04-18T16:04:18Z,2574233.454,"c(""distractor1"", ""distractor2"", ""distractor3"")",NA,NA,NA,NA,NA,NA,NA,NA,NA,NA,NA,NA,NA,NA,NA,NA,NA,NA,NA,NA,NA,NA,NA,NA,NA,NA,NA,NA,NA
a753a,Practice,flow.Sequence,1,NA,NA,completion,105830.334,2468393,2468367.18,2468387.034,2574217.368,2574220.3,2023-04-18T16:04:18Z,2574233.454,NULL,NA,NA,NA,NA,NA,NA,NA,NA,NA,NA,NA,NA,NA,NA,NA,NA,NA,NA,NA,NA,NA,NA,NA,NA,NA,NA,NA,NA,NA
a753a,Experiment start,canvas.Screen,2,weiter,keypress(q),response,21361.546,2574220.3999999,2574217.368,2574233.454,2595595,2595596.2,2023-04-18T16:04:40Z,2595682.48,NULL,NA,NA,NA,NA,NA,NA,NA,NA,NA,NA,NA,NA,NA,NA,NA,NA,NA,NA,NA,NA,NA,NA,NA,NA,NA,NA,NA,NA,NA
a753a,Deep Question,html.Page,3_0_0_0_0_0_0,NA,NA,form submission,9820.8199999523,2595679.8,2595665.46,2595682.48,2605503.3,2605503.5999999,2023-04-18T16:04:50Z,2605507.8,NULL,Wohlstand,mafanikio,d,NA,NA,NA,naasi,NA,NA,0,NA,NA,NA,NA,NA,NA,NA,NA,NA,NA,NA,NA,NA,NA,NA,NA,NA,NA,NA
a753a,"""Richtig""-Screen",canvas.Screen,3_0_0_0_0_0_1,NA,NA,skipped,NA,2605505.7,NA,NA,2605503.3,2605505.8,2023-04-18T16:04:50Z,2605507.8,NULL,Wohlstand,mafanikio,d,NA,NA,NA,NA,sdf,NA,0,NA,NA,NA,NA,NA,NA,NA,NA,NA,NA,NA,NA,NA,NA,NA,NA,NA,NA,NA
a753a,"""Falsch""-Screen",canvas.Screen,3_0_0_0_0_0_2,NA,NA,timeout,4996.5620000004,2605506.3,2605491.6,2605507.8,2610487.308,2610488.2,2023-04-18T16:04:54Z,2610504.362,NULL,Wohlstand,mafanikio,d,NA,NA,NA,NA,sdf,0,0,NA,NA,NA,NA,NA,NA,NA,NA,NA,NA,NA,NA,NA,NA,NA,NA,NA,NA,NA
a753a,deep,flow.Sequence,3_0_0_0_0_0,NA,NA,completion,14804.828,2595679.8,2595665.46,2595682.48,2610487.308,2610488.7,2023-04-18T16:04:54Z,2610504.362,NULL,Wohlstand,mafanikio,d,NA,NA,NA,NA,sdf,NA,0,NA,NA,NA,NA,NA,NA,NA,NA,NA,NA,NA,NA,NA,NA,NA,NA,NA,NA,NA
a753a,shallow,flow.Sequence,3_0_0_0_0_1,NA,NA,skipped,NA,2610488.7,NA,NA,2610487.308,2610489,2023-04-18T16:04:54Z,2610504.362,NULL,Wohlstand,mafanikio,d,NA,NA,NA,NA,sdf,NA,0,NA,NA,NA,NA,NA,NA,NA,NA,NA,NA,NA,NA,NA,NA,NA,NA,NA,NA,NA
a753a,task,flow.Sequence,3_0_0_0_0,NA,NA,completion,14804.828,2595679.8,2595665.46,2595682.48,2610487.308,2610489.0999999,2023-04-18T16:04:54Z,2610504.362,NULL,Wohlstand,mafanikio,d,NA,NA,NA,NA,sdf,NA,0,NA,NA,NA,NA,NA,NA,NA,NA,NA,NA,NA,NA,NA,NA,NA,NA,NA,NA,NA
a753a,deep,flow.Sequence,3_0_0_0_1_0,NA,NA,skipped,NA,2610489.3,NA,NA,2610487.308,2610489.5,2023-04-18T16:04:54Z,2610504.362,NULL,Vergnügen,kichekesho,s,dubwana,mpanuko,mtesaji,NA,sdf,NA,0,NA,NA,NA,NA,NA,NA,NA,NA,NA,NA,NA,NA,NA,NA,NA,NA,NA,NA,NA
a753a,Shallow Question,html.Page,3_0_0_0_1_1_0,NA,NA,form submission,7935.9379999521,2610489.7,2610487.308,2610504.362,2618440.3,2618440.5,2023-04-18T16:05:02Z,2618447.133,NULL,Vergnügen,kichekesho,s,dubwana,mpanuko,mtesaji,mpanuko,NA,NA,0,NA,NA,NA,NA,NA,NA,NA,NA,NA,NA,NA,NA,NA,NA,NA,NA,NA,NA,NA
a753a,"""Richtig""-Screen",canvas.Screen,3_0_0_0_1_1_1,NA,NA,skipped,NA,2618442.3,NA,NA,2618440.3,2618442.5,2023-04-18T16:05:02Z,2618447.133,NULL,Vergnügen,kichekesho,s,dubwana,mpanuko,mtesaji,NA,sdf,NA,0,NA,NA,NA,NA,NA,NA,NA,NA,NA,NA,NA,NA,NA,NA,NA,NA,NA,NA,NA
a753a,"""Falsch""-Screen",canvas.Screen,3_0_0_0_1_1_2,NA,NA,timeout,4996.389,2618443,2618430.853,2618447.133,2623426.509,2623427.7,2023-04-18T16:05:07Z,2623443.522,NULL,Vergnügen,kichekesho,s,dubwana,mpanuko,mtesaji,NA,sdf,0,0,NA,NA,NA,NA,NA,NA,NA,NA,NA,NA,NA,NA,NA,NA,NA,NA,NA,NA,NA
a753a,shallow,flow.Sequence,3_0_0_0_1_1,NA,NA,completion,12922.147,2610489.5999999,2610487.308,2610504.362,2623426.509,2623428,2023-04-18T16:05:07Z,2623443.522,NULL,Vergnügen,kichekesho,s,dubwana,mpanuko,mtesaji,NA,sdf,NA,0,NA,NA,NA,NA,NA,NA,NA,NA,NA,NA,NA,NA,NA,NA,NA,NA,NA,NA,NA
a753a,task,flow.Sequence,3_0_0_0_1,NA,NA,completion,12922.147,2610489.3,2610487.308,2610504.362,2623426.509,2623428.3,2023-04-18T16:05:07Z,2623443.522,NULL,Vergnügen,kichekesho,s,dubwana,mpanuko,mtesaji,NA,sdf,NA,0,NA,NA,NA,NA,NA,NA,NA,NA,NA,NA,NA,NA,NA,NA,NA,NA,NA,NA,NA
a753a,Deep Question,html.Page,3_0_0_0_2_0_0,NA,NA,form submission,9998.4780000001,2623428.5999999,2623426.509,2623443.522,2633442,2633442.3,2023-04-18T16:05:17Z,2633451.561,NULL,Verstand,ufahamivu,d,NA,NA,NA,mafanikio,NA,NA,0,NA,NA,NA,NA,NA,NA,NA,NA,NA,NA,NA,NA,NA,NA,NA,NA,NA,NA,NA
a753a,"""Richtig""-Screen",canvas.Screen,3_0_0_0_2_0_1,NA,NA,skipped,NA,2633444.8999999,NA,NA,2633442,2633445.0999999,2023-04-18T16:05:17Z,2633451.561,NULL,Verstand,ufahamivu,d,NA,NA,NA,NA,sdf,NA,0,NA,NA,NA,NA,NA,NA,NA,NA,NA,NA,NA,NA,NA,NA,NA,NA,NA,NA,NA
a753a,"""Falsch""-Screen",canvas.Screen,3_0_0_0_2_0_2,NA,NA,timeout,4995.8689999999,2633445.8999999,2633435.34,2633451.561,2638431.318,2638432.2,2023-04-18T16:05:22Z,2638447.43,NULL,Verstand,ufahamivu,d,NA,NA,NA,NA,sdf,0,0,NA,NA,NA,NA,NA,NA,NA,NA,NA,NA,NA,NA,NA,NA,NA,NA,NA,NA,NA
a753a,deep,flow.Sequence,3_0_0_0_2_0,NA,NA,completion,14987.796,2623428.5999999,2623426.509,2623443.522,2638431.318,2638432.7,2023-04-18T16:05:22Z,2638447.43,NULL,Verstand,ufahamivu,d,NA,NA,NA,NA,sdf,NA,0,NA,NA,NA,NA,NA,NA,NA,NA,NA,NA,NA,NA,NA,NA,NA,NA,NA,NA,NA
a753a,shallow,flow.Sequence,3_0_0_0_2_1,NA,NA,skipped,NA,2638432.8999999,NA,NA,2638431.318,2638433,2023-04-18T16:05:22Z,2638447.43,NULL,Verstand,ufahamivu,d,NA,NA,NA,NA,sdf,NA,0,NA,NA,NA,NA,NA,NA,NA,NA,NA,NA,NA,NA,NA,NA,NA,NA,NA,NA,NA
a753a,task,flow.Sequence,3_0_0_0_2,NA,NA,completion,14987.796,2623428.5,2623426.509,2623443.522,2638431.318,2638433.3,2023-04-18T16:05:22Z,2638447.43,NULL,Verstand,ufahamivu,d,NA,NA,NA,NA,sdf,NA,0,NA,NA,NA,NA,NA,NA,NA,NA,NA,NA,NA,NA,NA,NA,NA,NA,NA,NA,NA
a753a,deep,flow.Sequence,3_0_0_0_3_0,NA,NA,skipped,NA,2638433.3999999,NA,NA,2638431.318,2638433.5,2023-04-18T16:05:22Z,2638447.43,NULL,Ausschluss,kutengwa,s,ununuzi,taratibu,madeni,NA,sdf,NA,0,NA,NA,NA,NA,NA,NA,NA,NA,NA,NA,NA,NA,NA,NA,NA,NA,NA,NA,NA
a753a,Shallow Question,html.Page,3_0_0_0_3_1_0,NA,NA,form submission,7396.1699999045,2638433.7,2638431.318,2638447.43,2645843.5999999,2645843.8,2023-04-18T16:05:30Z,2645858.49,NULL,Ausschluss,kutengwa,s,ununuzi,taratibu,madeni,kutengwa,NA,NA,0,NA,NA,NA,NA,NA,NA,NA,NA,NA,NA,NA,NA,NA,NA,NA,NA,NA,NA,NA
a753a,"""Richtig""-Screen",canvas.Screen,3_0_0_0_3_1_1,NA,NA,timeout,4995.4849999999,2645845.8,2645841.752,2645858.49,2650837.662,2650838.7,2023-04-18T16:05:35Z,2650853.975,NULL,Ausschluss,kutengwa,s,ununuzi,taratibu,madeni,NA,sdf,1,0,NA,NA,NA,NA,NA,NA,NA,NA,NA,NA,NA,NA,NA,NA,NA,NA,NA,NA,NA
a753a,"""Falsch""-Screen",canvas.Screen,3_0_0_0_3_1_2,NA,NA,skipped,NA,2650844.0999999,NA,NA,2650837.662,2650844.3999999,2023-04-18T16:05:35Z,2650853.975,NULL,Ausschluss,kutengwa,s,ununuzi,taratibu,madeni,NA,sdf,NA,0,NA,NA,NA,NA,NA,NA,NA,NA,NA,NA,NA,NA,NA,NA,NA,NA,NA,NA,NA
a753a,shallow,flow.Sequence,3_0_0_0_3_1,NA,NA,completion,12390.232,2638433.7,2638431.318,2638447.43,2650837.662,2650844.8999999,2023-04-18T16:05:35Z,2650853.975,NULL,Ausschluss,kutengwa,s,ununuzi,taratibu,madeni,NA,sdf,NA,0,NA,NA,NA,NA,NA,NA,NA,NA,NA,NA,NA,NA,NA,NA,NA,NA,NA,NA,NA
a753a,task,flow.Sequence,3_0_0_0_3,NA,NA,completion,12390.232,2638433.3999999,2638431.318,2638447.43,2650837.662,2650845.2,2023-04-18T16:05:35Z,2650853.975,NULL,Ausschluss,kutengwa,s,ununuzi,taratibu,madeni,NA,sdf,NA,0,NA,NA,NA,NA,NA,NA,NA,NA,NA,NA,NA,NA,NA,NA,NA,NA,NA,NA,NA
a753a,Deep Question,html.Page,3_0_0_0_4_0_0,NA,NA,form submission,5647.1249999045,2650845.5,2650837.662,2650853.975,2656501.0999999,2656501.3,2023-04-18T16:05:41Z,2656516.367,NULL,Ergänzung,kijalizo,d,NA,NA,NA,kutengwa,NA,NA,0,NA,NA,NA,NA,NA,NA,NA,NA,NA,NA,NA,NA,NA,NA,NA,NA,NA,NA,NA
a753a,"""Richtig""-Screen",canvas.Screen,3_0_0_0_4_0_1,NA,NA,skipped,NA,2656503.3999999,NA,NA,2656501.0999999,2656503.5,2023-04-18T16:05:41Z,2656516.367,NULL,Ergänzung,kijalizo,d,NA,NA,NA,NA,sdf,NA,0,NA,NA,NA,NA,NA,NA,NA,NA,NA,NA,NA,NA,NA,NA,NA,NA,NA,NA,NA
a753a,"""Falsch""-Screen",canvas.Screen,3_0_0_0_4_0_2,NA,NA,timeout,4996.0049999999,2656504.0999999,2656499.832,2656516.367,2661495.712,2661496.7,2023-04-18T16:05:46Z,2661512.372,NULL,Ergänzung,kijalizo,d,NA,NA,NA,NA,sdf,0,0,NA,NA,NA,NA,NA,NA,NA,NA,NA,NA,NA,NA,NA,NA,NA,NA,NA,NA,NA
a753a,deep,flow.Sequence,3_0_0_0_4_0,NA,NA,completion,10641.737,2650845.5,2650837.662,2650853.975,2661495.712,2661497.0999999,2023-04-18T16:05:46Z,2661512.372,NULL,Ergänzung,kijalizo,d,NA,NA,NA,NA,sdf,NA,0,NA,NA,NA,NA,NA,NA,NA,NA,NA,NA,NA,NA,NA,NA,NA,NA,NA,NA,NA
a753a,shallow,flow.Sequence,3_0_0_0_4_1,NA,NA,skipped,NA,2661497.3,NA,NA,2661495.712,2661497.5,2023-04-18T16:05:46Z,2661512.372,NULL,Ergänzung,kijalizo,d,NA,NA,NA,NA,sdf,NA,0,NA,NA,NA,NA,NA,NA,NA,NA,NA,NA,NA,NA,NA,NA,NA,NA,NA,NA,NA
a753a,task,flow.Sequence,3_0_0_0_4,NA,NA,completion,10641.737,2650845.3999999,2650837.662,2650853.975,2661495.712,2661497.7,2023-04-18T16:05:46Z,2661512.372,NULL,Ergänzung,kijalizo,d,NA,NA,NA,NA,sdf,NA,0,NA,NA,NA,NA,NA,NA,NA,NA,NA,NA,NA,NA,NA,NA,NA,NA,NA,NA,NA
a753a,deep,flow.Sequence,3_0_0_0_5_0,NA,NA,skipped,NA,2661497.8999999,NA,NA,2661495.712,2661498.0999999,2023-04-18T16:05:46Z,2661512.372,NULL,Gelegenheit,wakati,s,mchanganyiko,kipaumbele,kushuku,NA,sdf,NA,0,NA,NA,NA,NA,NA,NA,NA,NA,NA,NA,NA,NA,NA,NA,NA,NA,NA,NA,NA
a753a,Shallow Question,html.Page,3_0_0_0_5_1_0,NA,NA,form submission,9628.128,2661498.3,2661495.712,2661512.372,2671140.5,2671140.7,2023-04-18T16:05:55Z,2671154.352,NULL,Gelegenheit,wakati,s,mchanganyiko,kipaumbele,kushuku,kipaumbele,NA,NA,0,NA,NA,NA,NA,NA,NA,NA,NA,NA,NA,NA,NA,NA,NA,NA,NA,NA,NA,NA
a753a,"""Richtig""-Screen",canvas.Screen,3_0_0_0_5_1_1,NA,NA,skipped,NA,2671142.7,NA,NA,2671140.5,2671142.8,2023-04-18T16:05:55Z,2671154.352,NULL,Gelegenheit,wakati,s,mchanganyiko,kipaumbele,kushuku,NA,sdf,NA,0,NA,NA,NA,NA,NA,NA,NA,NA,NA,NA,NA,NA,NA,NA,NA,NA,NA,NA,NA
a753a,"""Falsch""-Screen",canvas.Screen,3_0_0_0_5_1_2,NA,NA,timeout,4995.9760000003,2671143.3,2671137.416,2671154.352,2676133.528,2676134.5999999,2023-04-18T16:06:00Z,2676150.328,NULL,Gelegenheit,wakati,s,mchanganyiko,kipaumbele,kushuku,NA,sdf,0,0,NA,NA,NA,NA,NA,NA,NA,NA,NA,NA,NA,NA,NA,NA,NA,NA,NA,NA,NA
a753a,shallow,flow.Sequence,3_0_0_0_5_1,NA,NA,completion,14621.156,2661498.0999999,2661495.712,2661512.372,2676133.528,2676135.0999999,2023-04-18T16:06:00Z,2676150.328,NULL,Gelegenheit,wakati,s,mchanganyiko,kipaumbele,kushuku,NA,sdf,NA,0,NA,NA,NA,NA,NA,NA,NA,NA,NA,NA,NA,NA,NA,NA,NA,NA,NA,NA,NA
a753a,task,flow.Sequence,3_0_0_0_5,NA,NA,completion,14621.156,2661497.8999999,2661495.712,2661512.372,2676133.528,2676135.3,2023-04-18T16:06:00Z,2676150.328,NULL,Gelegenheit,wakati,s,mchanganyiko,kipaumbele,kushuku,NA,sdf,NA,0,NA,NA,NA,NA,NA,NA,NA,NA,NA,NA,NA,NA,NA,NA,NA,NA,NA,NA,NA
a753a,deep,flow.Sequence,3_0_0_0_6_0,NA,NA,skipped,NA,2676135.5,NA,NA,2676133.528,2676135.8,2023-04-18T16:06:00Z,2676150.328,NULL,Notfall,dharura,s,rairai,malalamiko,ahueni,NA,sdf,NA,0,NA,NA,NA,NA,NA,NA,NA,NA,NA,NA,NA,NA,NA,NA,NA,NA,NA,NA,NA
a753a,Shallow Question,html.Page,3_0_0_0_6_1_0,NA,NA,form submission,6483.6719999998,2676136,2676133.528,2676150.328,2682634,2682634.3,2023-04-18T16:06:07Z,2682644.731,NULL,Notfall,dharura,s,rairai,malalamiko,ahueni,rairai,NA,NA,0,NA,NA,NA,NA,NA,NA,NA,NA,NA,NA,NA,NA,NA,NA,NA,NA,NA,NA,NA
a753a,"""Richtig""-Screen",canvas.Screen,3_0_0_0_6_1_1,NA,NA,skipped,NA,2682636.2,NA,NA,2682634,2682636.3999999,2023-04-18T16:06:07Z,2682644.731,NULL,Notfall,dharura,s,rairai,malalamiko,ahueni,NA,sdf,NA,0,NA,NA,NA,NA,NA,NA,NA,NA,NA,NA,NA,NA,NA,NA,NA,NA,NA,NA,NA
a753a,"""Falsch""-Screen",canvas.Screen,3_0_0_0_6_1_2,NA,NA,timeout,4995.9309999999,2682636.8999999,2682628.272,2682644.731,2687624.233,2687624.8,2023-04-18T16:06:12Z,2687640.662,NULL,Notfall,dharura,s,rairai,malalamiko,ahueni,NA,sdf,0,0,NA,NA,NA,NA,NA,NA,NA,NA,NA,NA,NA,NA,NA,NA,NA,NA,NA,NA,NA
a753a,shallow,flow.Sequence,3_0_0_0_6_1,NA,NA,completion,11473.905,2676135.8999999,2676133.528,2676150.328,2687624.233,2687624.8999999,2023-04-18T16:06:12Z,2687640.662,NULL,Notfall,dharura,s,rairai,malalamiko,ahueni,NA,sdf,NA,0,NA,NA,NA,NA,NA,NA,NA,NA,NA,NA,NA,NA,NA,NA,NA,NA,NA,NA,NA
a753a,task,flow.Sequence,3_0_0_0_6,NA,NA,completion,11473.905,2676135.5,2676133.528,2676150.328,2687624.233,2687625,2023-04-18T16:06:12Z,2687640.662,NULL,Notfall,dharura,s,rairai,malalamiko,ahueni,NA,sdf,NA,0,NA,NA,NA,NA,NA,NA,NA,NA,NA,NA,NA,NA,NA,NA,NA,NA,NA,NA,NA
a753a,Deep Question,html.Page,3_0_0_0_7_0_0,NA,NA,form submission,8222.1379999523,2687625.0999999,2687624.233,2687640.662,2695862.8,2695863,2023-04-18T16:06:20Z,2695866.925,NULL,Widerstand,usulubu,d,NA,NA,NA,mafanikio,NA,NA,0,NA,NA,NA,NA,NA,NA,NA,NA,NA,NA,NA,NA,NA,NA,NA,NA,NA,NA,NA
a753a,"""Richtig""-Screen",canvas.Screen,3_0_0_0_7_0_1,NA,NA,skipped,NA,2695864.8999999,NA,NA,2695862.8,2695865,2023-04-18T16:06:20Z,2695866.925,NULL,Widerstand,usulubu,d,NA,NA,NA,NA,sdf,NA,0,NA,NA,NA,NA,NA,NA,NA,NA,NA,NA,NA,NA,NA,NA,NA,NA,NA,NA,NA
a753a,"""Falsch""-Screen",canvas.Screen,3_0_0_0_7_0_2,NA,NA,timeout,4996.233,2695865.7,2695850.694,2695866.925,2700846.515,2700847.5,2023-04-18T16:06:25Z,2700863.158,NULL,Widerstand,usulubu,d,NA,NA,NA,NA,sdf,0,0,NA,NA,NA,NA,NA,NA,NA,NA,NA,NA,NA,NA,NA,NA,NA,NA,NA,NA,NA
a753a,deep,flow.Sequence,3_0_0_0_7_0,NA,NA,completion,13205.853,2687625.0999999,2687624.233,2687640.662,2700846.515,2700848,2023-04-18T16:06:25Z,2700863.158,NULL,Widerstand,usulubu,d,NA,NA,NA,NA,sdf,NA,0,NA,NA,NA,NA,NA,NA,NA,NA,NA,NA,NA,NA,NA,NA,NA,NA,NA,NA,NA
a753a,shallow,flow.Sequence,3_0_0_0_7_1,NA,NA,skipped,NA,2700848.2,NA,NA,2700846.515,2700848.3,2023-04-18T16:06:25Z,2700863.158,NULL,Widerstand,usulubu,d,NA,NA,NA,NA,sdf,NA,0,NA,NA,NA,NA,NA,NA,NA,NA,NA,NA,NA,NA,NA,NA,NA,NA,NA,NA,NA
a753a,task,flow.Sequence,3_0_0_0_7,NA,NA,completion,13205.853,2687625.0999999,2687624.233,2687640.662,2700846.515,2700848.5999999,2023-04-18T16:06:25Z,2700863.158,NULL,Widerstand,usulubu,d,NA,NA,NA,NA,sdf,NA,0,NA,NA,NA,NA,NA,NA,NA,NA,NA,NA,NA,NA,NA,NA,NA,NA,NA,NA,NA
a753a,block,flow.Loop,3_0_0_0,NA,NA,completion,105164.035,2595679.7,2595665.46,2595682.48,2700846.515,2700848.8999999,2023-04-18T16:06:25Z,2700863.158,NULL,NA,NA,NA,NA,NA,NA,NA,sdf,NA,0,NA,NA,NA,NA,NA,NA,NA,NA,NA,NA,NA,NA,NA,NA,NA,NA,NA,NA,NA
a753a,weiter,canvas.Screen,3_0_0_1,sdf,keypress(Space),response,1710.6419999525,2700849.0999999,2700846.515,2700863.158,2702573.8,2702574.8999999,2023-04-18T16:06:27Z,2702611.747,NULL,NA,NA,NA,NA,NA,NA,NA,sdf,NA,0,NA,NA,NA,NA,NA,NA,NA,NA,NA,NA,NA,NA,NA,NA,NA,NA,NA,NA,NA
a753a,check continue,flow.Sequence,3_0_0,NA,NA,completion,106891.31999995,2595679.7,2595665.46,2595682.48,2702573.8,2702575.3999999,2023-04-18T16:06:27Z,2702611.747,NULL,NA,NA,NA,NA,NA,NA,NA,sdf,NA,0,NA,NA,NA,NA,NA,NA,NA,NA,NA,NA,NA,NA,NA,NA,NA,NA,NA,NA,NA
a753a,Deep Question,html.Page,3_0_1_0_0_0_0,NA,NA,form submission,10641.552999952,2702602.5,2702595.387,2702611.747,2713253.3,2713253.7,2023-04-18T16:06:37Z,2713252.68,NULL,Verstand,ufahamivu,d,NA,NA,NA,mafanikio,NA,NA,1,NA,NA,NA,NA,NA,NA,NA,NA,NA,NA,NA,NA,NA,NA,NA,NA,NA,NA,NA
a753a,"""Richtig""-Screen",canvas.Screen,3_0_1_0_0_0_1,NA,NA,skipped,NA,2713255.7,NA,NA,2713253.3,2713255.8999999,2023-04-18T16:06:37Z,2713252.68,NULL,Verstand,ufahamivu,d,NA,NA,NA,NA,sdfdsf,NA,1,NA,NA,NA,NA,NA,NA,NA,NA,NA,NA,NA,NA,NA,NA,NA,NA,NA,NA,NA
a753a,"""Falsch""-Screen",canvas.Screen,3_0_1_0_0_0_2,NA,NA,timeout,4995.9239999996,2713256.5,2713236.65,2713252.68,2718232.016,2718233.0999999,2023-04-18T16:06:42Z,2718248.604,NULL,Verstand,ufahamivu,d,NA,NA,NA,NA,sdfdsf,0,1,NA,NA,NA,NA,NA,NA,NA,NA,NA,NA,NA,NA,NA,NA,NA,NA,NA,NA,NA
a753a,deep,flow.Sequence,3_0_1_0_0_0,NA,NA,completion,15620.269,2702602.5,2702595.387,2702611.747,2718232.016,2718233.3999999,2023-04-18T16:06:42Z,2718248.604,NULL,Verstand,ufahamivu,d,NA,NA,NA,NA,sdfdsf,NA,1,NA,NA,NA,NA,NA,NA,NA,NA,NA,NA,NA,NA,NA,NA,NA,NA,NA,NA,NA
a753a,shallow,flow.Sequence,3_0_1_0_0_1,NA,NA,skipped,NA,2718233.5999999,NA,NA,2718232.016,2718233.8,2023-04-18T16:06:42Z,2718248.604,NULL,Verstand,ufahamivu,d,NA,NA,NA,NA,sdfdsf,NA,1,NA,NA,NA,NA,NA,NA,NA,NA,NA,NA,NA,NA,NA,NA,NA,NA,NA,NA,NA
a753a,task,flow.Sequence,3_0_1_0_0,NA,NA,completion,15620.269,2702602.3999999,2702595.387,2702611.747,2718232.016,2718234.0999999,2023-04-18T16:06:42Z,2718248.604,NULL,Verstand,ufahamivu,d,NA,NA,NA,NA,sdfdsf,NA,1,NA,NA,NA,NA,NA,NA,NA,NA,NA,NA,NA,NA,NA,NA,NA,NA,NA,NA,NA
a753a,deep,flow.Sequence,3_0_1_0_1_0,NA,NA,skipped,NA,2718234.2,NA,NA,2718232.016,2718234.3,2023-04-18T16:06:42Z,2718248.604,NULL,Gelegenheit,wakati,s,mchanganyiko,kipaumbele,kushuku,NA,sdfdsf,NA,1,NA,NA,NA,NA,NA,NA,NA,NA,NA,NA,NA,NA,NA,NA,NA,NA,NA,NA,NA
a753a,Shallow Question,html.Page,3_0_1_0_1_1_0,NA,NA,form submission,5530.5960000479,2718234.5999999,2718232.016,2718248.604,2723779.2,2723779.3999999,2023-04-18T16:06:48Z,2723794.658,NULL,Gelegenheit,wakati,s,mchanganyiko,kipaumbele,kushuku,wakati,NA,NA,1,NA,NA,NA,NA,NA,NA,NA,NA,NA,NA,NA,NA,NA,NA,NA,NA,NA,NA,NA
a753a,"""Richtig""-Screen",canvas.Screen,3_0_1_0_1_1_1,NA,NA,timeout,4995.2590000001,2723781.3,2723777.857,2723794.658,2728773.542,2728774.5,2023-04-18T16:06:53Z,2728789.917,NULL,Gelegenheit,wakati,s,mchanganyiko,kipaumbele,kushuku,NA,sdfdsf,1,1,NA,NA,NA,NA,NA,NA,NA,NA,NA,NA,NA,NA,NA,NA,NA,NA,NA,NA,NA
a753a,"""Falsch""-Screen",canvas.Screen,3_0_1_0_1_1_2,NA,NA,skipped,NA,2728779.8999999,NA,NA,2728773.542,2728780.3,2023-04-18T16:06:53Z,2728789.917,NULL,Gelegenheit,wakati,s,mchanganyiko,kipaumbele,kushuku,NA,sdfdsf,NA,1,NA,NA,NA,NA,NA,NA,NA,NA,NA,NA,NA,NA,NA,NA,NA,NA,NA,NA,NA
a753a,shallow,flow.Sequence,3_0_1_0_1_1,NA,NA,completion,10524.938,2718234.5,2718232.016,2718248.604,2728773.542,2728780.7,2023-04-18T16:06:53Z,2728789.917,NULL,Gelegenheit,wakati,s,mchanganyiko,kipaumbele,kushuku,NA,sdfdsf,NA,1,NA,NA,NA,NA,NA,NA,NA,NA,NA,NA,NA,NA,NA,NA,NA,NA,NA,NA,NA
a753a,task,flow.Sequence,3_0_1_0_1,NA,NA,completion,10524.938,2718234.2,2718232.016,2718248.604,2728773.542,2728781,2023-04-18T16:06:53Z,2728789.917,NULL,Gelegenheit,wakati,s,mchanganyiko,kipaumbele,kushuku,NA,sdfdsf,NA,1,NA,NA,NA,NA,NA,NA,NA,NA,NA,NA,NA,NA,NA,NA,NA,NA,NA,NA,NA
a753a,deep,flow.Sequence,3_0_1_0_2_0,NA,NA,skipped,NA,2728781.0999999,NA,NA,2728773.542,2728781.3,2023-04-18T16:06:53Z,2728789.917,NULL,Vergnügen,kichekesho,s,dubwana,mpanuko,mtesaji,NA,sdfdsf,NA,1,NA,NA,NA,NA,NA,NA,NA,NA,NA,NA,NA,NA,NA,NA,NA,NA,NA,NA,NA
a753a,Shallow Question,html.Page,3_0_1_0_2_1_0,NA,NA,form submission,6289.0830000001,2728781.7,2728773.542,2728789.917,2735079,2735079.3,2023-04-18T16:06:59Z,2735084.729,NULL,Vergnügen,kichekesho,s,dubwana,mpanuko,mtesaji,kichekesho,NA,NA,1,NA,NA,NA,NA,NA,NA,NA,NA,NA,NA,NA,NA,NA,NA,NA,NA,NA,NA,NA
a753a,"""Richtig""-Screen",canvas.Screen,3_0_1_0_2_1_1,NA,NA,timeout,4996.0460000001,2735081,2735068.568,2735084.729,2740064.321,2740065.2,2023-04-18T16:07:04Z,2740080.775,NULL,Vergnügen,kichekesho,s,dubwana,mpanuko,mtesaji,NA,sdfdsf,1,1,NA,NA,NA,NA,NA,NA,NA,NA,NA,NA,NA,NA,NA,NA,NA,NA,NA,NA,NA
a753a,"""Falsch""-Screen",canvas.Screen,3_0_1_0_2_1_2,NA,NA,skipped,NA,2740069.2,NA,NA,2740064.321,2740069.3,2023-04-18T16:07:04Z,2740080.775,NULL,Vergnügen,kichekesho,s,dubwana,mpanuko,mtesaji,NA,sdfdsf,NA,1,NA,NA,NA,NA,NA,NA,NA,NA,NA,NA,NA,NA,NA,NA,NA,NA,NA,NA,NA
a753a,shallow,flow.Sequence,3_0_1_0_2_1,NA,NA,completion,11274.404,2728781.5999999,2728773.542,2728789.917,2740064.321,2740069.5,2023-04-18T16:07:04Z,2740080.775,NULL,Vergnügen,kichekesho,s,dubwana,mpanuko,mtesaji,NA,sdfdsf,NA,1,NA,NA,NA,NA,NA,NA,NA,NA,NA,NA,NA,NA,NA,NA,NA,NA,NA,NA,NA
a753a,task,flow.Sequence,3_0_1_0_2,NA,NA,completion,11274.404,2728781.0999999,2728773.542,2728789.917,2740064.321,2740069.5,2023-04-18T16:07:04Z,2740080.775,NULL,Vergnügen,kichekesho,s,dubwana,mpanuko,mtesaji,NA,sdfdsf,NA,1,NA,NA,NA,NA,NA,NA,NA,NA,NA,NA,NA,NA,NA,NA,NA,NA,NA,NA,NA
a753a,deep,flow.Sequence,3_0_1_0_3_0,NA,NA,skipped,NA,2740069.5,NA,NA,2740064.321,2740069.5999999,2023-04-18T16:07:04Z,2740080.775,NULL,Ausschluss,kutengwa,s,ununuzi,taratibu,madeni,NA,sdfdsf,NA,1,NA,NA,NA,NA,NA,NA,NA,NA,NA,NA,NA,NA,NA,NA,NA,NA,NA,NA,NA
a753a,Shallow Question,html.Page,3_0_1_0_3_1_0,NA,NA,form submission,5729.7250000001,2740069.7,2740064.321,2740080.775,2745810.5,2745810.5999999,2023-04-18T16:07:10Z,2745826.575,NULL,Ausschluss,kutengwa,s,ununuzi,taratibu,madeni,kutengwa,NA,NA,1,NA,NA,NA,NA,NA,NA,NA,NA,NA,NA,NA,NA,NA,NA,NA,NA,NA,NA,NA
a753a,"""Richtig""-Screen",canvas.Screen,3_0_1_0_3_1_1,NA,NA,timeout,4995.2949999999,2745812.5,2745809.52,2745826.575,2750805.682,2750806.8999999,2023-04-18T16:07:15Z,2750821.87,NULL,Ausschluss,kutengwa,s,ununuzi,taratibu,madeni,NA,sdfdsf,1,1,NA,NA,NA,NA,NA,NA,NA,NA,NA,NA,NA,NA,NA,NA,NA,NA,NA,NA,NA
a753a,"""Falsch""-Screen",canvas.Screen,3_0_1_0_3_1_2,NA,NA,skipped,NA,2750812.5999999,NA,NA,2750805.682,2750812.8999999,2023-04-18T16:07:15Z,2750821.87,NULL,Ausschluss,kutengwa,s,ununuzi,taratibu,madeni,NA,sdfdsf,NA,1,NA,NA,NA,NA,NA,NA,NA,NA,NA,NA,NA,NA,NA,NA,NA,NA,NA,NA,NA
a753a,shallow,flow.Sequence,3_0_1_0_3_1,NA,NA,completion,10724.907,2740069.7,2740064.321,2740080.775,2750805.682,2750813.3999999,2023-04-18T16:07:15Z,2750821.87,NULL,Ausschluss,kutengwa,s,ununuzi,taratibu,madeni,NA,sdfdsf,NA,1,NA,NA,NA,NA,NA,NA,NA,NA,NA,NA,NA,NA,NA,NA,NA,NA,NA,NA,NA
a753a,task,flow.Sequence,3_0_1_0_3,NA,NA,completion,10724.907,2740069.5,2740064.321,2740080.775,2750805.682,2750813.7,2023-04-18T16:07:15Z,2750821.87,NULL,Ausschluss,kutengwa,s,ununuzi,taratibu,madeni,NA,sdfdsf,NA,1,NA,NA,NA,NA,NA,NA,NA,NA,NA,NA,NA,NA,NA,NA,NA,NA,NA,NA,NA
a753a,Deep Question,html.Page,3_0_1_0_4_0_0,NA,NA,form submission,5491.1299999999,2750813.8999999,2750805.682,2750821.87,2756313,2756313.2,2023-04-18T16:07:20Z,2756317.3,NULL,Wohlstand,mafanikio,d,NA,NA,NA,mafanikio,NA,NA,1,NA,NA,NA,NA,NA,NA,NA,NA,NA,NA,NA,NA,NA,NA,NA,NA,NA,NA,NA
a753a,"""Richtig""-Screen",canvas.Screen,3_0_1_0_4_0_1,NA,NA,timeout,4996.3760000002,2756315.0999999,2756301.18,2756317.3,2761297.137,2761297.8999999,2023-04-18T16:07:25Z,2761313.676,NULL,Wohlstand,mafanikio,d,NA,NA,NA,NA,sdfdsf,1,1,NA,NA,NA,NA,NA,NA,NA,NA,NA,NA,NA,NA,NA,NA,NA,NA,NA,NA,NA
a753a,"""Falsch""-Screen",canvas.Screen,3_0_1_0_4_0_2,NA,NA,skipped,NA,2761302.7,NA,NA,2761297.137,2761302.7,2023-04-18T16:07:25Z,2761313.676,NULL,Wohlstand,mafanikio,d,NA,NA,NA,NA,sdfdsf,NA,1,NA,NA,NA,NA,NA,NA,NA,NA,NA,NA,NA,NA,NA,NA,NA,NA,NA,NA,NA
a753a,deep,flow.Sequence,3_0_1_0_4_0,NA,NA,completion,10475.267,2750813.8,2750805.682,2750821.87,2761297.137,2761303,2023-04-18T16:07:25Z,2761313.676,NULL,Wohlstand,mafanikio,d,NA,NA,NA,NA,sdfdsf,NA,1,NA,NA,NA,NA,NA,NA,NA,NA,NA,NA,NA,NA,NA,NA,NA,NA,NA,NA,NA
a753a,shallow,flow.Sequence,3_0_1_0_4_1,NA,NA,skipped,NA,2761303,NA,NA,2761297.137,2761303,2023-04-18T16:07:25Z,2761313.676,NULL,Wohlstand,mafanikio,d,NA,NA,NA,NA,sdfdsf,NA,1,NA,NA,NA,NA,NA,NA,NA,NA,NA,NA,NA,NA,NA,NA,NA,NA,NA,NA,NA
a753a,task,flow.Sequence,3_0_1_0_4,NA,NA,completion,10475.267,2750813.8,2750805.682,2750821.87,2761297.137,2761303,2023-04-18T16:07:25Z,2761313.676,NULL,Wohlstand,mafanikio,d,NA,NA,NA,NA,sdfdsf,NA,1,NA,NA,NA,NA,NA,NA,NA,NA,NA,NA,NA,NA,NA,NA,NA,NA,NA,NA,NA
a753a,Deep Question,html.Page,3_0_1_0_5_0_0,NA,NA,form submission,8804.324,2761303.0999999,2761297.137,2761313.676,2770118,2770118.2,2023-04-18T16:07:34Z,2770122.631,NULL,Ergänzung,kijalizo,d,NA,NA,NA,kutenga,NA,NA,1,NA,NA,NA,NA,NA,NA,NA,NA,NA,NA,NA,NA,NA,NA,NA,NA,NA,NA,NA
a753a,"""Richtig""-Screen",canvas.Screen,3_0_1_0_5_0_1,NA,NA,skipped,NA,2770120.3,NA,NA,2770118,2770120.3999999,2023-04-18T16:07:34Z,2770122.631,NULL,Ergänzung,kijalizo,d,NA,NA,NA,NA,sdfdsf,NA,1,NA,NA,NA,NA,NA,NA,NA,NA,NA,NA,NA,NA,NA,NA,NA,NA,NA,NA,NA
a753a,"""Falsch""-Screen",canvas.Screen,3_0_1_0_5_0_2,NA,NA,timeout,4996.0800000001,2770121.0999999,2770106.57,2770122.631,2775101.968,2775104.3,2023-04-18T16:07:39Z,2775118.711,NULL,Ergänzung,kijalizo,d,NA,NA,NA,NA,sdfdsf,0,1,NA,NA,NA,NA,NA,NA,NA,NA,NA,NA,NA,NA,NA,NA,NA,NA,NA,NA,NA
a753a,deep,flow.Sequence,3_0_1_0_5_0,NA,NA,completion,13788.292,2761303.0999999,2761297.137,2761313.676,2775101.968,2775104.8,2023-04-18T16:07:39Z,2775118.711,NULL,Ergänzung,kijalizo,d,NA,NA,NA,NA,sdfdsf,NA,1,NA,NA,NA,NA,NA,NA,NA,NA,NA,NA,NA,NA,NA,NA,NA,NA,NA,NA,NA
a753a,shallow,flow.Sequence,3_0_1_0_5_1,NA,NA,skipped,NA,2775104.8,NA,NA,2775101.968,2775104.8999999,2023-04-18T16:07:39Z,2775118.711,NULL,Ergänzung,kijalizo,d,NA,NA,NA,NA,sdfdsf,NA,1,NA,NA,NA,NA,NA,NA,NA,NA,NA,NA,NA,NA,NA,NA,NA,NA,NA,NA,NA
a753a,task,flow.Sequence,3_0_1_0_5,NA,NA,completion,13788.292,2761303.0999999,2761297.137,2761313.676,2775101.968,2775105,2023-04-18T16:07:39Z,2775118.711,NULL,Ergänzung,kijalizo,d,NA,NA,NA,NA,sdfdsf,NA,1,NA,NA,NA,NA,NA,NA,NA,NA,NA,NA,NA,NA,NA,NA,NA,NA,NA,NA,NA
a753a,deep,flow.Sequence,3_0_1_0_6_0,NA,NA,skipped,NA,2775105.0999999,NA,NA,2775101.968,2775105.0999999,2023-04-18T16:07:39Z,2775118.711,NULL,Notfall,dharura,s,rairai,malalamiko,ahueni,NA,sdfdsf,NA,1,NA,NA,NA,NA,NA,NA,NA,NA,NA,NA,NA,NA,NA,NA,NA,NA,NA,NA,NA
a753a,Shallow Question,html.Page,3_0_1_0_6_1_0,NA,NA,form submission,9027.1889998568,2775105.2,2775101.968,2775118.711,2784145.8999999,2784146.0999999,2023-04-18T16:07:48Z,2784161.5,NULL,Notfall,dharura,s,rairai,malalamiko,ahueni,dharura,NA,NA,1,NA,NA,NA,NA,NA,NA,NA,NA,NA,NA,NA,NA,NA,NA,NA,NA,NA,NA,NA
a753a,"""Richtig""-Screen",canvas.Screen,3_0_1_0_6_1_1,NA,NA,timeout,4995.6510000001,2784148,2784144.519,2784161.5,2789141.004,2789141.3999999,2023-04-18T16:07:53Z,2789157.151,NULL,Notfall,dharura,s,rairai,malalamiko,ahueni,NA,sdfdsf,1,1,NA,NA,NA,NA,NA,NA,NA,NA,NA,NA,NA,NA,NA,NA,NA,NA,NA,NA,NA
a753a,"""Falsch""-Screen",canvas.Screen,3_0_1_0_6_1_2,NA,NA,skipped,NA,2789143.3,NA,NA,2789141.004,2789143.3999999,2023-04-18T16:07:53Z,2789157.151,NULL,Notfall,dharura,s,rairai,malalamiko,ahueni,NA,sdfdsf,NA,1,NA,NA,NA,NA,NA,NA,NA,NA,NA,NA,NA,NA,NA,NA,NA,NA,NA,NA,NA
a753a,shallow,flow.Sequence,3_0_1_0_6_1,NA,NA,completion,14022.293,2775105.0999999,2775101.968,2775118.711,2789141.004,2789143.5999999,2023-04-18T16:07:53Z,2789157.151,NULL,Notfall,dharura,s,rairai,malalamiko,ahueni,NA,sdfdsf,NA,1,NA,NA,NA,NA,NA,NA,NA,NA,NA,NA,NA,NA,NA,NA,NA,NA,NA,NA,NA
a753a,task,flow.Sequence,3_0_1_0_6,NA,NA,completion,14022.293,2775105.0999999,2775101.968,2775118.711,2789141.004,2789143.5999999,2023-04-18T16:07:53Z,2789157.151,NULL,Notfall,dharura,s,rairai,malalamiko,ahueni,NA,sdfdsf,NA,1,NA,NA,NA,NA,NA,NA,NA,NA,NA,NA,NA,NA,NA,NA,NA,NA,NA,NA,NA
a753a,Deep Question,html.Page,3_0_1_0_7_0_0,NA,NA,form submission,5942.5490000476,2789143.5999999,2789141.004,2789157.151,2795099.7,2795099.8999999,2023-04-18T16:07:59Z,2795102.131,NULL,Widerstand,usulubu,d,NA,NA,NA,ufumaviu,NA,NA,1,NA,NA,NA,NA,NA,NA,NA,NA,NA,NA,NA,NA,NA,NA,NA,NA,NA,NA,NA
a753a,"""Richtig""-Screen",canvas.Screen,3_0_1_0_7_0_1,NA,NA,skipped,NA,2795101.8999999,NA,NA,2795099.7,2795102,2023-04-18T16:07:59Z,2795102.131,NULL,Widerstand,usulubu,d,NA,NA,NA,NA,sdfdsf,NA,1,NA,NA,NA,NA,NA,NA,NA,NA,NA,NA,NA,NA,NA,NA,NA,NA,NA,NA,NA
a753a,"""Falsch""-Screen",canvas.Screen,3_0_1_0_7_0_2,NA,NA,timeout,4996.6319999998,2795102.8999999,2795085.581,2795102.131,2800081.992,2800082.8999999,2023-04-18T16:08:04Z,2800098.763,NULL,Widerstand,usulubu,d,NA,NA,NA,NA,sdfdsf,0,1,NA,NA,NA,NA,NA,NA,NA,NA,NA,NA,NA,NA,NA,NA,NA,NA,NA,NA,NA
a753a,deep,flow.Sequence,3_0_1_0_7_0,NA,NA,completion,10924.841,2789143.5999999,2789141.004,2789157.151,2800081.992,2800083.3,2023-04-18T16:08:04Z,2800098.763,NULL,Widerstand,usulubu,d,NA,NA,NA,NA,sdfdsf,NA,1,NA,NA,NA,NA,NA,NA,NA,NA,NA,NA,NA,NA,NA,NA,NA,NA,NA,NA,NA
a753a,shallow,flow.Sequence,3_0_1_0_7_1,NA,NA,skipped,NA,2800083.5,NA,NA,2800081.992,2800083.7,2023-04-18T16:08:04Z,2800098.763,NULL,Widerstand,usulubu,d,NA,NA,NA,NA,sdfdsf,NA,1,NA,NA,NA,NA,NA,NA,NA,NA,NA,NA,NA,NA,NA,NA,NA,NA,NA,NA,NA
a753a,task,flow.Sequence,3_0_1_0_7,NA,NA,completion,10924.841,2789143.5999999,2789141.004,2789157.151,2800081.992,2800084,2023-04-18T16:08:04Z,2800098.763,NULL,Widerstand,usulubu,d,NA,NA,NA,NA,sdfdsf,NA,1,NA,NA,NA,NA,NA,NA,NA,NA,NA,NA,NA,NA,NA,NA,NA,NA,NA,NA,NA
a753a,block,flow.Loop,3_0_1_0,NA,NA,completion,97470.245,2702602.3999999,2702595.387,2702611.747,2800081.992,2800084.3,2023-04-18T16:08:04Z,2800098.763,NULL,NA,NA,NA,NA,NA,NA,NA,sdfdsf,NA,1,NA,NA,NA,NA,NA,NA,NA,NA,NA,NA,NA,NA,NA,NA,NA,NA,NA,NA,NA
a753a,weiter,canvas.Screen,3_0_1_1,sdf,keypress(Space),response,1075.8369999048,2800084.3999999,2800081.992,2800098.763,2801174.5999999,2801175.7,2023-04-18T16:08:05Z,2801247.863,NULL,NA,NA,NA,NA,NA,NA,NA,sdfdsf,NA,1,NA,NA,NA,NA,NA,NA,NA,NA,NA,NA,NA,NA,NA,NA,NA,NA,NA,NA,NA
a753a,check continue,flow.Sequence,3_0_1,NA,NA,completion,98562.852999905,2702602.3999999,2702595.387,2702611.747,2801174.5999999,2801176.0999999,2023-04-18T16:08:05Z,2801247.863,NULL,NA,NA,NA,NA,NA,NA,NA,sdfdsf,NA,1,NA,NA,NA,NA,NA,NA,NA,NA,NA,NA,NA,NA,NA,NA,NA,NA,NA,NA,NA
a753a,Deep Question,html.Page,3_0_2_0_0_0_0,NA,NA,form submission,8416.6370000001,2801214,2801231.217,2801247.863,2809664.5,2809664.7,2023-04-18T16:08:14Z,2809673.54,NULL,Wohlstand,mafanikio,d,NA,NA,NA,usulubu,NA,NA,2,NA,NA,NA,NA,NA,NA,NA,NA,NA,NA,NA,NA,NA,NA,NA,NA,NA,NA,NA
a753a,"""Richtig""-Screen",canvas.Screen,3_0_2_0_0_0_1,NA,NA,skipped,NA,2809667.5,NA,NA,2809664.5,2809667.5999999,2023-04-18T16:08:14Z,2809673.54,NULL,Wohlstand,mafanikio,d,NA,NA,NA,NA,sdf,NA,2,NA,NA,NA,NA,NA,NA,NA,NA,NA,NA,NA,NA,NA,NA,NA,NA,NA,NA,NA
a753a,"""Falsch""-Screen",canvas.Screen,3_0_2_0_0_0_2,NA,NA,timeout,4996.344,2809668.5,2809657.444,2809673.54,2814652.906,2814654,2023-04-18T16:08:19Z,2814669.884,NULL,Wohlstand,mafanikio,d,NA,NA,NA,NA,sdf,0,2,NA,NA,NA,NA,NA,NA,NA,NA,NA,NA,NA,NA,NA,NA,NA,NA,NA,NA,NA
a753a,deep,flow.Sequence,3_0_2_0_0_0,NA,NA,completion,13405.043,2801213.8999999,2801231.217,2801247.863,2814652.906,2814654.3,2023-04-18T16:08:19Z,2814669.884,NULL,Wohlstand,mafanikio,d,NA,NA,NA,NA,sdf,NA,2,NA,NA,NA,NA,NA,NA,NA,NA,NA,NA,NA,NA,NA,NA,NA,NA,NA,NA,NA
a753a,shallow,flow.Sequence,3_0_2_0_0_1,NA,NA,skipped,NA,2814654.5,NA,NA,2814652.906,2814654.8,2023-04-18T16:08:19Z,2814669.884,NULL,Wohlstand,mafanikio,d,NA,NA,NA,NA,sdf,NA,2,NA,NA,NA,NA,NA,NA,NA,NA,NA,NA,NA,NA,NA,NA,NA,NA,NA,NA,NA
a753a,task,flow.Sequence,3_0_2_0_0,NA,NA,completion,13405.043,2801213.8999999,2801231.217,2801247.863,2814652.906,2814655,2023-04-18T16:08:19Z,2814669.884,NULL,Wohlstand,mafanikio,d,NA,NA,NA,NA,sdf,NA,2,NA,NA,NA,NA,NA,NA,NA,NA,NA,NA,NA,NA,NA,NA,NA,NA,NA,NA,NA
a753a,Deep Question,html.Page,3_0_2_0_1_0_0,NA,NA,form submission,7374.4159999522,2814655.2,2814652.906,2814669.884,2822044.3,2822044.5,2023-04-18T16:08:26Z,2822063.895,NULL,Widerstand,usulubu,d,NA,NA,NA,usulubu,NA,NA,2,NA,NA,NA,NA,NA,NA,NA,NA,NA,NA,NA,NA,NA,NA,NA,NA,NA,NA,NA
a753a,"""Richtig""-Screen",canvas.Screen,3_0_2_0_1_0_1,NA,NA,timeout,4996.1179999998,2822046.2,2822046.709,2822063.895,2827042.8,2827043.8,2023-04-18T16:08:31Z,2827060.013,NULL,Widerstand,usulubu,d,NA,NA,NA,NA,sdf,1,2,NA,NA,NA,NA,NA,NA,NA,NA,NA,NA,NA,NA,NA,NA,NA,NA,NA,NA,NA
a753a,"""Falsch""-Screen",canvas.Screen,3_0_2_0_1_0_2,NA,NA,skipped,NA,2827048.3999999,NA,NA,2827042.8,2827048.5,2023-04-18T16:08:31Z,2827060.013,NULL,Widerstand,usulubu,d,NA,NA,NA,NA,sdf,NA,2,NA,NA,NA,NA,NA,NA,NA,NA,NA,NA,NA,NA,NA,NA,NA,NA,NA,NA,NA
a753a,deep,flow.Sequence,3_0_2_0_1_0,NA,NA,completion,12372.916,2814655.2,2814652.906,2814669.884,2827042.8,2827048.5999999,2023-04-18T16:08:31Z,2827060.013,NULL,Widerstand,usulubu,d,NA,NA,NA,NA,sdf,NA,2,NA,NA,NA,NA,NA,NA,NA,NA,NA,NA,NA,NA,NA,NA,NA,NA,NA,NA,NA
a753a,shallow,flow.Sequence,3_0_2_0_1_1,NA,NA,skipped,NA,2827048.5999999,NA,NA,2827042.8,2827048.7,2023-04-18T16:08:31Z,2827060.013,NULL,Widerstand,usulubu,d,NA,NA,NA,NA,sdf,NA,2,NA,NA,NA,NA,NA,NA,NA,NA,NA,NA,NA,NA,NA,NA,NA,NA,NA,NA,NA
a753a,task,flow.Sequence,3_0_2_0_1,NA,NA,completion,12372.916,2814655.0999999,2814652.906,2814669.884,2827042.8,2827048.7,2023-04-18T16:08:31Z,2827060.013,NULL,Widerstand,usulubu,d,NA,NA,NA,NA,sdf,NA,2,NA,NA,NA,NA,NA,NA,NA,NA,NA,NA,NA,NA,NA,NA,NA,NA,NA,NA,NA
a753a,deep,flow.Sequence,3_0_2_0_2_0,NA,NA,skipped,NA,2827048.8,NA,NA,2827042.8,2827048.8,2023-04-18T16:08:31Z,2827060.013,NULL,Vergnügen,kichekesho,s,dubwana,mpanuko,mtesaji,NA,sdf,NA,2,NA,NA,NA,NA,NA,NA,NA,NA,NA,NA,NA,NA,NA,NA,NA,NA,NA,NA,NA
a753a,Shallow Question,html.Page,3_0_2_0_2_1_0,NA,NA,form submission,10855.487,2827048.8999999,2827042.8,2827060.013,2837915.5,2837915.5999999,2023-04-18T16:08:42Z,2837917.029,NULL,Vergnügen,kichekesho,s,dubwana,mpanuko,mtesaji,kichekesho,NA,NA,2,NA,NA,NA,NA,NA,NA,NA,NA,NA,NA,NA,NA,NA,NA,NA,NA,NA,NA,NA
a753a,"""Richtig""-Screen",canvas.Screen,3_0_2_0_2_1_1,NA,NA,timeout,4996.2579999999,2837917.5999999,2837900.172,2837917.029,2842896.88,2842897.5,2023-04-18T16:08:47Z,2842913.287,NULL,Vergnügen,kichekesho,s,dubwana,mpanuko,mtesaji,NA,sdf,1,2,NA,NA,NA,NA,NA,NA,NA,NA,NA,NA,NA,NA,NA,NA,NA,NA,NA,NA,NA
a753a,"""Falsch""-Screen",canvas.Screen,3_0_2_0_2_1_2,NA,NA,skipped,NA,2842900,NA,NA,2842896.88,2842900.0999999,2023-04-18T16:08:47Z,2842913.287,NULL,Vergnügen,kichekesho,s,dubwana,mpanuko,mtesaji,NA,sdf,NA,2,NA,NA,NA,NA,NA,NA,NA,NA,NA,NA,NA,NA,NA,NA,NA,NA,NA,NA,NA
a753a,shallow,flow.Sequence,3_0_2_0_2_1,NA,NA,completion,15836.867,2827048.8999999,2827042.8,2827060.013,2842896.88,2842900.3,2023-04-18T16:08:47Z,2842913.287,NULL,Vergnügen,kichekesho,s,dubwana,mpanuko,mtesaji,NA,sdf,NA,2,NA,NA,NA,NA,NA,NA,NA,NA,NA,NA,NA,NA,NA,NA,NA,NA,NA,NA,NA
a753a,task,flow.Sequence,3_0_2_0_2,NA,NA,completion,15836.867,2827048.8,2827042.8,2827060.013,2842896.88,2842900.5,2023-04-18T16:08:47Z,2842913.287,NULL,Vergnügen,kichekesho,s,dubwana,mpanuko,mtesaji,NA,sdf,NA,2,NA,NA,NA,NA,NA,NA,NA,NA,NA,NA,NA,NA,NA,NA,NA,NA,NA,NA,NA
a753a,Deep Question,html.Page,3_0_2_0_3_0_0,NA,NA,form submission,11450.312999905,2842900.5999999,2842896.88,2842913.287,2854363.5999999,2854363.8,2023-04-18T16:08:58Z,2854370.147,NULL,Ergänzung,kijalizo,d,NA,NA,NA,dhara,NA,NA,2,NA,NA,NA,NA,NA,NA,NA,NA,NA,NA,NA,NA,NA,NA,NA,NA,NA,NA,NA
a753a,"""Richtig""-Screen",canvas.Screen,3_0_2_0_3_0_1,NA,NA,skipped,NA,2854365.5999999,NA,NA,2854363.5999999,2854365.7,2023-04-18T16:08:58Z,2854370.147,NULL,Ergänzung,kijalizo,d,NA,NA,NA,NA,sdf,NA,2,NA,NA,NA,NA,NA,NA,NA,NA,NA,NA,NA,NA,NA,NA,NA,NA,NA,NA,NA
a753a,"""Falsch""-Screen",canvas.Screen,3_0_2_0_3_0_2,NA,NA,timeout,4996.682,2854366.3,2854354.111,2854370.147,2859349.957,2859350.8999999,2023-04-18T16:09:03Z,2859366.829,NULL,Ergänzung,kijalizo,d,NA,NA,NA,NA,sdf,0,2,NA,NA,NA,NA,NA,NA,NA,NA,NA,NA,NA,NA,NA,NA,NA,NA,NA,NA,NA
a753a,deep,flow.Sequence,3_0_2_0_3_0,NA,NA,completion,16436.67,2842900.5999999,2842896.88,2842913.287,2859349.957,2859351.3999999,2023-04-18T16:09:03Z,2859366.829,NULL,Ergänzung,kijalizo,d,NA,NA,NA,NA,sdf,NA,2,NA,NA,NA,NA,NA,NA,NA,NA,NA,NA,NA,NA,NA,NA,NA,NA,NA,NA,NA
a753a,shallow,flow.Sequence,3_0_2_0_3_1,NA,NA,skipped,NA,2859351.5999999,NA,NA,2859349.957,2859351.8,2023-04-18T16:09:03Z,2859366.829,NULL,Ergänzung,kijalizo,d,NA,NA,NA,NA,sdf,NA,2,NA,NA,NA,NA,NA,NA,NA,NA,NA,NA,NA,NA,NA,NA,NA,NA,NA,NA,NA
a753a,task,flow.Sequence,3_0_2_0_3,NA,NA,completion,16436.67,2842900.5999999,2842896.88,2842913.287,2859349.957,2859352.0999999,2023-04-18T16:09:03Z,2859366.829,NULL,Ergänzung,kijalizo,d,NA,NA,NA,NA,sdf,NA,2,NA,NA,NA,NA,NA,NA,NA,NA,NA,NA,NA,NA,NA,NA,NA,NA,NA,NA,NA
a753a,deep,flow.Sequence,3_0_2_0_4_0,NA,NA,skipped,NA,2859352.3999999,NA,NA,2859349.957,2859352.5,2023-04-18T16:09:03Z,2859366.829,NULL,Notfall,dharura,s,rairai,malalamiko,ahueni,NA,sdf,NA,2,NA,NA,NA,NA,NA,NA,NA,NA,NA,NA,NA,NA,NA,NA,NA,NA,NA,NA,NA
a753a,Shallow Question,html.Page,3_0_2_0_4_1_0,NA,NA,form submission,5666.1710000001,2859352.7,2859349.957,2859366.829,2865033,2865033.2,2023-04-18T16:09:09Z,2865044.798,NULL,Notfall,dharura,s,rairai,malalamiko,ahueni,dharura,NA,NA,2,NA,NA,NA,NA,NA,NA,NA,NA,NA,NA,NA,NA,NA,NA,NA,NA,NA,NA,NA
a753a,"""Richtig""-Screen",canvas.Screen,3_0_2_0_4_1_1,NA,NA,timeout,4996.6030000001,2865035,2865028.146,2865044.798,2870024.348,2870025.3,2023-04-18T16:09:14Z,2870041.401,NULL,Notfall,dharura,s,rairai,malalamiko,ahueni,NA,sdf,1,2,NA,NA,NA,NA,NA,NA,NA,NA,NA,NA,NA,NA,NA,NA,NA,NA,NA,NA,NA
a753a,"""Falsch""-Screen",canvas.Screen,3_0_2_0_4_1_2,NA,NA,skipped,NA,2870030.3,NA,NA,2870024.348,2870030.3999999,2023-04-18T16:09:14Z,2870041.401,NULL,Notfall,dharura,s,rairai,malalamiko,ahueni,NA,sdf,NA,2,NA,NA,NA,NA,NA,NA,NA,NA,NA,NA,NA,NA,NA,NA,NA,NA,NA,NA,NA
a753a,shallow,flow.Sequence,3_0_2_0_4_1,NA,NA,completion,10657.519,2859352.7,2859349.957,2859366.829,2870024.348,2870030.5,2023-04-18T16:09:14Z,2870041.401,NULL,Notfall,dharura,s,rairai,malalamiko,ahueni,NA,sdf,NA,2,NA,NA,NA,NA,NA,NA,NA,NA,NA,NA,NA,NA,NA,NA,NA,NA,NA,NA,NA
a753a,task,flow.Sequence,3_0_2_0_4,NA,NA,completion,10657.519,2859352.3,2859349.957,2859366.829,2870024.348,2870030.7,2023-04-18T16:09:14Z,2870041.401,NULL,Notfall,dharura,s,rairai,malalamiko,ahueni,NA,sdf,NA,2,NA,NA,NA,NA,NA,NA,NA,NA,NA,NA,NA,NA,NA,NA,NA,NA,NA,NA,NA
a753a,deep,flow.Sequence,3_0_2_0_5_0,NA,NA,skipped,NA,2870030.7,NA,NA,2870024.348,2870030.7,2023-04-18T16:09:14Z,2870041.401,NULL,Ausschluss,kutengwa,s,ununuzi,taratibu,madeni,NA,sdf,NA,2,NA,NA,NA,NA,NA,NA,NA,NA,NA,NA,NA,NA,NA,NA,NA,NA,NA,NA,NA
a753a,Shallow Question,html.Page,3_0_2_0_5_1_0,NA,NA,form submission,7237.7990000476,2870030.8,2870024.348,2870041.401,2877279.2,2877279.3999999,2023-04-18T16:09:21Z,2877284.678,NULL,Ausschluss,kutengwa,s,ununuzi,taratibu,madeni,kutengwa,NA,NA,2,NA,NA,NA,NA,NA,NA,NA,NA,NA,NA,NA,NA,NA,NA,NA,NA,NA,NA,NA
a753a,"""Richtig""-Screen",canvas.Screen,3_0_2_0_5_1_1,NA,NA,timeout,4996.159,2877281.2,2877268.484,2877284.678,2882264.407,2882265.5,2023-04-18T16:09:26Z,2882280.837,NULL,Ausschluss,kutengwa,s,ununuzi,taratibu,madeni,NA,sdf,1,2,NA,NA,NA,NA,NA,NA,NA,NA,NA,NA,NA,NA,NA,NA,NA,NA,NA,NA,NA
a753a,"""Falsch""-Screen",canvas.Screen,3_0_2_0_5_1_2,NA,NA,skipped,NA,2882270.3,NA,NA,2882264.407,2882270.5,2023-04-18T16:09:26Z,2882280.837,NULL,Ausschluss,kutengwa,s,ununuzi,taratibu,madeni,NA,sdf,NA,2,NA,NA,NA,NA,NA,NA,NA,NA,NA,NA,NA,NA,NA,NA,NA,NA,NA,NA,NA
a753a,shallow,flow.Sequence,3_0_2_0_5_1,NA,NA,completion,12223.006,2870030.8,2870024.348,2870041.401,2882264.407,2882270.5,2023-04-18T16:09:26Z,2882280.837,NULL,Ausschluss,kutengwa,s,ununuzi,taratibu,madeni,NA,sdf,NA,2,NA,NA,NA,NA,NA,NA,NA,NA,NA,NA,NA,NA,NA,NA,NA,NA,NA,NA,NA
a753a,task,flow.Sequence,3_0_2_0_5,NA,NA,completion,12223.006,2870030.7,2870024.348,2870041.401,2882264.407,2882270.5999999,2023-04-18T16:09:26Z,2882280.837,NULL,Ausschluss,kutengwa,s,ununuzi,taratibu,madeni,NA,sdf,NA,2,NA,NA,NA,NA,NA,NA,NA,NA,NA,NA,NA,NA,NA,NA,NA,NA,NA,NA,NA
a753a,Deep Question,html.Page,3_0_2_0_6_0_0,NA,NA,form submission,6902.4629999525,2882270.7,2882264.407,2882280.837,2889183.3,2889183.5999999,2023-04-18T16:09:33Z,2889191.606,NULL,Verstand,ufahamivu,d,NA,NA,NA,usulubu,NA,NA,2,NA,NA,NA,NA,NA,NA,NA,NA,NA,NA,NA,NA,NA,NA,NA,NA,NA,NA,NA
a753a,"""Richtig""-Screen",canvas.Screen,3_0_2_0_6_0_1,NA,NA,skipped,NA,2889185.7,NA,NA,2889183.3,2889185.8999999,2023-04-18T16:09:33Z,2889191.606,NULL,Verstand,ufahamivu,d,NA,NA,NA,NA,sdf,NA,2,NA,NA,NA,NA,NA,NA,NA,NA,NA,NA,NA,NA,NA,NA,NA,NA,NA,NA,NA
a753a,"""Falsch""-Screen",canvas.Screen,3_0_2_0_6_0_2,NA,NA,timeout,4996.5659999996,2889186.7,2889175.548,2889191.606,2894171.385,2894172.3,2023-04-18T16:09:38Z,2894188.172,NULL,Verstand,ufahamivu,d,NA,NA,NA,NA,sdf,0,2,NA,NA,NA,NA,NA,NA,NA,NA,NA,NA,NA,NA,NA,NA,NA,NA,NA,NA,NA
a753a,deep,flow.Sequence,3_0_2_0_6_0,NA,NA,completion,11890.548,2882270.7,2882264.407,2882280.837,2894171.385,2894172.7,2023-04-18T16:09:38Z,2894188.172,NULL,Verstand,ufahamivu,d,NA,NA,NA,NA,sdf,NA,2,NA,NA,NA,NA,NA,NA,NA,NA,NA,NA,NA,NA,NA,NA,NA,NA,NA,NA,NA
a753a,shallow,flow.Sequence,3_0_2_0_6_1,NA,NA,skipped,NA,2894172.8999999,NA,NA,2894171.385,2894173,2023-04-18T16:09:38Z,2894188.172,NULL,Verstand,ufahamivu,d,NA,NA,NA,NA,sdf,NA,2,NA,NA,NA,NA,NA,NA,NA,NA,NA,NA,NA,NA,NA,NA,NA,NA,NA,NA,NA
a753a,task,flow.Sequence,3_0_2_0_6,NA,NA,completion,11890.548,2882270.7,2882264.407,2882280.837,2894171.385,2894173.3,2023-04-18T16:09:38Z,2894188.172,NULL,Verstand,ufahamivu,d,NA,NA,NA,NA,sdf,NA,2,NA,NA,NA,NA,NA,NA,NA,NA,NA,NA,NA,NA,NA,NA,NA,NA,NA,NA,NA
a753a,deep,flow.Sequence,3_0_2_0_7_0,NA,NA,skipped,NA,2894173.5,NA,NA,2894171.385,2894173.5999999,2023-04-18T16:09:38Z,2894188.172,NULL,Gelegenheit,wakati,s,mchanganyiko,kipaumbele,kushuku,NA,sdf,NA,2,NA,NA,NA,NA,NA,NA,NA,NA,NA,NA,NA,NA,NA,NA,NA,NA,NA,NA,NA
a753a,Shallow Question,html.Page,3_0_2_0_7_1_0,NA,NA,form submission,7711.1279999525,2894173.8,2894171.385,2894188.172,2901899.3,2901899.3999999,2023-04-18T16:09:46Z,2901914.903,NULL,Gelegenheit,wakati,s,mchanganyiko,kipaumbele,kushuku,wakati,NA,NA,2,NA,NA,NA,NA,NA,NA,NA,NA,NA,NA,NA,NA,NA,NA,NA,NA,NA,NA,NA
a753a,"""Richtig""-Screen",canvas.Screen,3_0_2_0_7_1_1,NA,NA,timeout,4996.1779999998,2901901.3999999,2901897.823,2901914.903,2906893.843,2906894.8,2023-04-18T16:09:51Z,2906911.081,NULL,Gelegenheit,wakati,s,mchanganyiko,kipaumbele,kushuku,NA,sdf,1,2,NA,NA,NA,NA,NA,NA,NA,NA,NA,NA,NA,NA,NA,NA,NA,NA,NA,NA,NA
a753a,"""Falsch""-Screen",canvas.Screen,3_0_2_0_7_1_2,NA,NA,skipped,NA,2906899.5999999,NA,NA,2906893.843,2906899.7,2023-04-18T16:09:51Z,2906911.081,NULL,Gelegenheit,wakati,s,mchanganyiko,kipaumbele,kushuku,NA,sdf,NA,2,NA,NA,NA,NA,NA,NA,NA,NA,NA,NA,NA,NA,NA,NA,NA,NA,NA,NA,NA
a753a,shallow,flow.Sequence,3_0_2_0_7_1,NA,NA,completion,12705.671,2894173.8,2894171.385,2894188.172,2906893.843,2906899.8999999,2023-04-18T16:09:51Z,2906911.081,NULL,Gelegenheit,wakati,s,mchanganyiko,kipaumbele,kushuku,NA,sdf,NA,2,NA,NA,NA,NA,NA,NA,NA,NA,NA,NA,NA,NA,NA,NA,NA,NA,NA,NA,NA
a753a,task,flow.Sequence,3_0_2_0_7,NA,NA,completion,12705.671,2894173.5,2894171.385,2894188.172,2906893.843,2906899.8999999,2023-04-18T16:09:51Z,2906911.081,NULL,Gelegenheit,wakati,s,mchanganyiko,kipaumbele,kushuku,NA,sdf,NA,2,NA,NA,NA,NA,NA,NA,NA,NA,NA,NA,NA,NA,NA,NA,NA,NA,NA,NA,NA
a753a,block,flow.Loop,3_0_2_0,NA,NA,completion,105645.98,2801213.8999999,2801231.217,2801247.863,2906893.843,2906900.0999999,2023-04-18T16:09:51Z,2906911.081,NULL,NA,NA,NA,NA,NA,NA,NA,sdf,NA,2,NA,NA,NA,NA,NA,NA,NA,NA,NA,NA,NA,NA,NA,NA,NA,NA,NA,NA,NA
a753a,weiter,canvas.Screen,3_0_2_1,sdf,keypress(Space),response,1173.2189999525,2906900.0999999,2906893.843,2906911.081,2908084.3,2908085.5,2023-04-18T16:09:52Z,2908142.784,NULL,NA,NA,NA,NA,NA,NA,NA,sdf,NA,2,NA,NA,NA,NA,NA,NA,NA,NA,NA,NA,NA,NA,NA,NA,NA,NA,NA,NA,NA
a753a,check continue,flow.Sequence,3_0_2,NA,NA,completion,106836.43699995,2801213.8999999,2801231.217,2801247.863,2908084.3,2908085.8,2023-04-18T16:09:52Z,2908142.784,NULL,NA,NA,NA,NA,NA,NA,NA,sdf,NA,2,NA,NA,NA,NA,NA,NA,NA,NA,NA,NA,NA,NA,NA,NA,NA,NA,NA,NA,NA
a753a,Deep Question,html.Page,3_0_3_0_0_0_0,NA,NA,form submission,9351.3159999046,2908136,2908126.039,2908142.784,2917494.0999999,2917494.3,2023-04-18T16:10:01Z,2917501.664,NULL,Verstand,ufahamivu,d,NA,NA,NA,ufahimuvu,NA,NA,3,NA,NA,NA,NA,NA,NA,NA,NA,NA,NA,NA,NA,NA,NA,NA,NA,NA,NA,NA
a753a,"""Richtig""-Screen",canvas.Screen,3_0_3_0_0_0_1,NA,NA,skipped,NA,2917496.2,NA,NA,2917494.0999999,2917496.3,2023-04-18T16:10:02Z,2917501.664,NULL,Verstand,ufahamivu,d,NA,NA,NA,NA,qt,NA,3,NA,NA,NA,NA,NA,NA,NA,NA,NA,NA,NA,NA,NA,NA,NA,NA,NA,NA,NA
a753a,"""Falsch""-Screen",canvas.Screen,3_0_3_0_0_0_2,NA,NA,timeout,4996.4739999999,2917496.8999999,2917485.123,2917501.664,2922480.984,2922482,2023-04-18T16:10:06Z,2922498.138,NULL,Verstand,ufahamivu,d,NA,NA,NA,NA,qt,0,3,NA,NA,NA,NA,NA,NA,NA,NA,NA,NA,NA,NA,NA,NA,NA,NA,NA,NA,NA
a753a,deep,flow.Sequence,3_0_3_0_0_0,NA,NA,completion,14338.2,2908136,2908126.039,2908142.784,2922480.984,2922482.3999999,2023-04-18T16:10:06Z,2922498.138,NULL,Verstand,ufahamivu,d,NA,NA,NA,NA,qt,NA,3,NA,NA,NA,NA,NA,NA,NA,NA,NA,NA,NA,NA,NA,NA,NA,NA,NA,NA,NA
a753a,shallow,flow.Sequence,3_0_3_0_0_1,NA,NA,skipped,NA,2922482.5999999,NA,NA,2922480.984,2922482.7,2023-04-18T16:10:06Z,2922498.138,NULL,Verstand,ufahamivu,d,NA,NA,NA,NA,qt,NA,3,NA,NA,NA,NA,NA,NA,NA,NA,NA,NA,NA,NA,NA,NA,NA,NA,NA,NA,NA
a753a,task,flow.Sequence,3_0_3_0_0,NA,NA,completion,14338.2,2908136,2908126.039,2908142.784,2922480.984,2922483,2023-04-18T16:10:06Z,2922498.138,NULL,Verstand,ufahamivu,d,NA,NA,NA,NA,qt,NA,3,NA,NA,NA,NA,NA,NA,NA,NA,NA,NA,NA,NA,NA,NA,NA,NA,NA,NA,NA
a753a,Deep Question,html.Page,3_0_3_0_1_0_0,NA,NA,form submission,9490.4619999048,2922483.2,2922480.984,2922498.138,2931988.5999999,2931988.8,2023-04-18T16:10:16Z,2931989.785,NULL,Ergänzung,kijalizo,d,NA,NA,NA,wakati,NA,NA,3,NA,NA,NA,NA,NA,NA,NA,NA,NA,NA,NA,NA,NA,NA,NA,NA,NA,NA,NA
a753a,"""Richtig""-Screen",canvas.Screen,3_0_3_0_1_0_1,NA,NA,skipped,NA,2931991.3999999,NA,NA,2931988.5999999,2931991.5999999,2023-04-18T16:10:16Z,2931989.785,NULL,Ergänzung,kijalizo,d,NA,NA,NA,NA,qt,NA,3,NA,NA,NA,NA,NA,NA,NA,NA,NA,NA,NA,NA,NA,NA,NA,NA,NA,NA,NA
a753a,"""Falsch""-Screen",canvas.Screen,3_0_3_0_1_0_2,NA,NA,timeout,4996.4819999998,2931992.2,2931973.728,2931989.785,2936969.594,2936970.5999999,2023-04-18T16:10:21Z,2936986.267,NULL,Ergänzung,kijalizo,d,NA,NA,NA,NA,qt,0,3,NA,NA,NA,NA,NA,NA,NA,NA,NA,NA,NA,NA,NA,NA,NA,NA,NA,NA,NA
a753a,deep,flow.Sequence,3_0_3_0_1_0,NA,NA,completion,14471.456,2922483.0999999,2922480.984,2922498.138,2936969.594,2936970.8999999,2023-04-18T16:10:21Z,2936986.267,NULL,Ergänzung,kijalizo,d,NA,NA,NA,NA,qt,NA,3,NA,NA,NA,NA,NA,NA,NA,NA,NA,NA,NA,NA,NA,NA,NA,NA,NA,NA,NA
a753a,shallow,flow.Sequence,3_0_3_0_1_1,NA,NA,skipped,NA,2936971.0999999,NA,NA,2936969.594,2936971.2,2023-04-18T16:10:21Z,2936986.267,NULL,Ergänzung,kijalizo,d,NA,NA,NA,NA,qt,NA,3,NA,NA,NA,NA,NA,NA,NA,NA,NA,NA,NA,NA,NA,NA,NA,NA,NA,NA,NA
a753a,task,flow.Sequence,3_0_3_0_1,NA,NA,completion,14471.456,2922483.0999999,2922480.984,2922498.138,2936969.594,2936971.5,2023-04-18T16:10:21Z,2936986.267,NULL,Ergänzung,kijalizo,d,NA,NA,NA,NA,qt,NA,3,NA,NA,NA,NA,NA,NA,NA,NA,NA,NA,NA,NA,NA,NA,NA,NA,NA,NA,NA
a753a,Deep Question,html.Page,3_0_3_0_2_0_0,NA,NA,form submission,21304.332999905,2936971.7,2936969.594,2936986.267,2958290.5999999,2958290.8,2023-04-18T16:10:42Z,2958301.811,NULL,Wohlstand,mafanikio,d,NA,NA,NA,kitegnwa,NA,NA,3,NA,NA,NA,NA,NA,NA,NA,NA,NA,NA,NA,NA,NA,NA,NA,NA,NA,NA,NA
a753a,"""Richtig""-Screen",canvas.Screen,3_0_3_0_2_0_1,NA,NA,skipped,NA,2958292.8999999,NA,NA,2958290.5999999,2958293,2023-04-18T16:10:42Z,2958301.811,NULL,Wohlstand,mafanikio,d,NA,NA,NA,NA,qt,NA,3,NA,NA,NA,NA,NA,NA,NA,NA,NA,NA,NA,NA,NA,NA,NA,NA,NA,NA,NA
a753a,"""Falsch""-Screen",canvas.Screen,3_0_3_0_2_0_2,NA,NA,timeout,4996.179,2958293.5999999,2958285.439,2958301.811,2963280.856,2963281.8999999,2023-04-18T16:10:47Z,2963297.99,NULL,Wohlstand,mafanikio,d,NA,NA,NA,NA,qt,0,3,NA,NA,NA,NA,NA,NA,NA,NA,NA,NA,NA,NA,NA,NA,NA,NA,NA,NA,NA
a753a,deep,flow.Sequence,3_0_3_0_2_0,NA,NA,completion,26294.589,2936971.7,2936969.594,2936986.267,2963280.856,2963282.3999999,2023-04-18T16:10:47Z,2963297.99,NULL,Wohlstand,mafanikio,d,NA,NA,NA,NA,qt,NA,3,NA,NA,NA,NA,NA,NA,NA,NA,NA,NA,NA,NA,NA,NA,NA,NA,NA,NA,NA
a753a,shallow,flow.Sequence,3_0_3_0_2_1,NA,NA,skipped,NA,2963282.5,NA,NA,2963280.856,2963282.7,2023-04-18T16:10:47Z,2963297.99,NULL,Wohlstand,mafanikio,d,NA,NA,NA,NA,qt,NA,3,NA,NA,NA,NA,NA,NA,NA,NA,NA,NA,NA,NA,NA,NA,NA,NA,NA,NA,NA
a753a,task,flow.Sequence,3_0_3_0_2,NA,NA,completion,26294.589,2936971.7,2936969.594,2936986.267,2963280.856,2963282.8999999,2023-04-18T16:10:47Z,2963297.99,NULL,Wohlstand,mafanikio,d,NA,NA,NA,NA,qt,NA,3,NA,NA,NA,NA,NA,NA,NA,NA,NA,NA,NA,NA,NA,NA,NA,NA,NA,NA,NA
a753a,Deep Question,html.Page,3_0_3_0_3_0_0,NA,NA,form submission,9598.5099999998,2963283.2,2963280.856,2963297.99,2972896.5,2972896.7,2023-04-18T16:10:57Z,2972906.459,NULL,Widerstand,usulubu,d,NA,NA,NA,kitengwa,NA,NA,3,NA,NA,NA,NA,NA,NA,NA,NA,NA,NA,NA,NA,NA,NA,NA,NA,NA,NA,NA
a753a,"""Richtig""-Screen",canvas.Screen,3_0_3_0_3_0_1,NA,NA,skipped,NA,2972898.5,NA,NA,2972896.5,2972898.5999999,2023-04-18T16:10:57Z,2972906.459,NULL,Widerstand,usulubu,d,NA,NA,NA,NA,qt,NA,3,NA,NA,NA,NA,NA,NA,NA,NA,NA,NA,NA,NA,NA,NA,NA,NA,NA,NA,NA
a753a,"""Falsch""-Screen",canvas.Screen,3_0_3_0_3_0_2,NA,NA,timeout,4995.9230000004,2972899.0999999,2972889.9,2972906.459,2977886.012,2977886.8999999,2023-04-18T16:11:02Z,2977902.382,NULL,Widerstand,usulubu,d,NA,NA,NA,NA,qt,0,3,NA,NA,NA,NA,NA,NA,NA,NA,NA,NA,NA,NA,NA,NA,NA,NA,NA,NA,NA
a753a,deep,flow.Sequence,3_0_3_0_3_0,NA,NA,completion,14588.022,2963283.0999999,2963280.856,2963297.99,2977886.012,2977887.3999999,2023-04-18T16:11:02Z,2977902.382,NULL,Widerstand,usulubu,d,NA,NA,NA,NA,qt,NA,3,NA,NA,NA,NA,NA,NA,NA,NA,NA,NA,NA,NA,NA,NA,NA,NA,NA,NA,NA
a753a,shallow,flow.Sequence,3_0_3_0_3_1,NA,NA,skipped,NA,2977887.5,NA,NA,2977886.012,2977887.7,2023-04-18T16:11:02Z,2977902.382,NULL,Widerstand,usulubu,d,NA,NA,NA,NA,qt,NA,3,NA,NA,NA,NA,NA,NA,NA,NA,NA,NA,NA,NA,NA,NA,NA,NA,NA,NA,NA
a753a,task,flow.Sequence,3_0_3_0_3,NA,NA,completion,14588.022,2963283.0999999,2963280.856,2963297.99,2977886.012,2977888,2023-04-18T16:11:02Z,2977902.382,NULL,Widerstand,usulubu,d,NA,NA,NA,NA,qt,NA,3,NA,NA,NA,NA,NA,NA,NA,NA,NA,NA,NA,NA,NA,NA,NA,NA,NA,NA,NA
a753a,deep,flow.Sequence,3_0_3_0_4_0,NA,NA,skipped,NA,2977888.2,NA,NA,2977886.012,2977888.3999999,2023-04-18T16:11:02Z,2977902.382,NULL,Ausschluss,kutengwa,s,ununuzi,taratibu,madeni,NA,qt,NA,3,NA,NA,NA,NA,NA,NA,NA,NA,NA,NA,NA,NA,NA,NA,NA,NA,NA,NA,NA
a753a,Shallow Question,html.Page,3_0_3_0_4_1_0,NA,NA,form submission,9653.5179998567,2977888.5,2977886.012,2977902.382,2987555.8999999,2987556.0999999,2023-04-18T16:11:12Z,2987560.834,NULL,Ausschluss,kutengwa,s,ununuzi,taratibu,madeni,kutengwa,NA,NA,3,NA,NA,NA,NA,NA,NA,NA,NA,NA,NA,NA,NA,NA,NA,NA,NA,NA,NA,NA
a753a,"""Richtig""-Screen",canvas.Screen,3_0_3_0_4_1_1,NA,NA,timeout,4996.4960000003,2987558,2987544.494,2987560.834,2992540.428,2992541.0999999,2023-04-18T16:11:17Z,2992557.33,NULL,Ausschluss,kutengwa,s,ununuzi,taratibu,madeni,NA,qt,1,3,NA,NA,NA,NA,NA,NA,NA,NA,NA,NA,NA,NA,NA,NA,NA,NA,NA,NA,NA
a753a,"""Falsch""-Screen",canvas.Screen,3_0_3_0_4_1_2,NA,NA,skipped,NA,2992544,NA,NA,2992540.428,2992544.2,2023-04-18T16:11:17Z,2992557.33,NULL,Ausschluss,kutengwa,s,ununuzi,taratibu,madeni,NA,qt,NA,3,NA,NA,NA,NA,NA,NA,NA,NA,NA,NA,NA,NA,NA,NA,NA,NA,NA,NA,NA
a753a,shallow,flow.Sequence,3_0_3_0_4_1,NA,NA,completion,14638.046,2977888.5,2977886.012,2977902.382,2992540.428,2992544.5,2023-04-18T16:11:17Z,2992557.33,NULL,Ausschluss,kutengwa,s,ununuzi,taratibu,madeni,NA,qt,NA,3,NA,NA,NA,NA,NA,NA,NA,NA,NA,NA,NA,NA,NA,NA,NA,NA,NA,NA,NA
a753a,task,flow.Sequence,3_0_3_0_4,NA,NA,completion,14638.046,2977888.0999999,2977886.012,2977902.382,2992540.428,2992544.7,2023-04-18T16:11:17Z,2992557.33,NULL,Ausschluss,kutengwa,s,ununuzi,taratibu,madeni,NA,qt,NA,3,NA,NA,NA,NA,NA,NA,NA,NA,NA,NA,NA,NA,NA,NA,NA,NA,NA,NA,NA
a753a,deep,flow.Sequence,3_0_3_0_5_0,NA,NA,skipped,NA,2992544.8,NA,NA,2992540.428,2992544.8999999,2023-04-18T16:11:17Z,2992557.33,NULL,Vergnügen,kichekesho,s,dubwana,mpanuko,mtesaji,NA,qt,NA,3,NA,NA,NA,NA,NA,NA,NA,NA,NA,NA,NA,NA,NA,NA,NA,NA,NA,NA,NA
a753a,Shallow Question,html.Page,3_0_3_0_5_1_0,NA,NA,form submission,8055.5699998569,2992545,2992540.428,2992557.33,3000612.8999999,3000613.0999999,2023-04-18T16:11:25Z,3000616.783,NULL,Vergnügen,kichekesho,s,dubwana,mpanuko,mtesaji,kichekesho,NA,NA,3,NA,NA,NA,NA,NA,NA,NA,NA,NA,NA,NA,NA,NA,NA,NA,NA,NA,NA,NA
a753a,"""Richtig""-Screen",canvas.Screen,3_0_3_0_5_1_1,NA,NA,timeout,4996.0990000004,3000615,3000600.543,3000616.783,3005596.026,3005597.5,2023-04-18T16:11:30Z,3005612.882,NULL,Vergnügen,kichekesho,s,dubwana,mpanuko,mtesaji,NA,qt,1,3,NA,NA,NA,NA,NA,NA,NA,NA,NA,NA,NA,NA,NA,NA,NA,NA,NA,NA,NA
a753a,"""Falsch""-Screen",canvas.Screen,3_0_3_0_5_1_2,NA,NA,skipped,NA,3005599.3999999,NA,NA,3005596.026,3005599.5,2023-04-18T16:11:30Z,3005612.882,NULL,Vergnügen,kichekesho,s,dubwana,mpanuko,mtesaji,NA,qt,NA,3,NA,NA,NA,NA,NA,NA,NA,NA,NA,NA,NA,NA,NA,NA,NA,NA,NA,NA,NA
a753a,shallow,flow.Sequence,3_0_3_0_5_1,NA,NA,completion,13038.696,2992545,2992540.428,2992557.33,3005596.026,3005599.7,2023-04-18T16:11:30Z,3005612.882,NULL,Vergnügen,kichekesho,s,dubwana,mpanuko,mtesaji,NA,qt,NA,3,NA,NA,NA,NA,NA,NA,NA,NA,NA,NA,NA,NA,NA,NA,NA,NA,NA,NA,NA
a753a,task,flow.Sequence,3_0_3_0_5,NA,NA,completion,13038.696,2992544.7,2992540.428,2992557.33,3005596.026,3005599.7,2023-04-18T16:11:30Z,3005612.882,NULL,Vergnügen,kichekesho,s,dubwana,mpanuko,mtesaji,NA,qt,NA,3,NA,NA,NA,NA,NA,NA,NA,NA,NA,NA,NA,NA,NA,NA,NA,NA,NA,NA,NA
a753a,deep,flow.Sequence,3_0_3_0_6_0,NA,NA,skipped,NA,3005599.8,NA,NA,3005596.026,3005599.8,2023-04-18T16:11:30Z,3005612.882,NULL,Notfall,dharura,s,rairai,malalamiko,ahueni,NA,qt,NA,3,NA,NA,NA,NA,NA,NA,NA,NA,NA,NA,NA,NA,NA,NA,NA,NA,NA,NA,NA
a753a,Shallow Question,html.Page,3_0_3_0_6_1_0,NA,NA,form submission,7805.5179998567,3005599.8999999,3005596.026,3005612.882,3013418.3999999,3013418.5999999,2023-04-18T16:11:37Z,3013422.962,NULL,Notfall,dharura,s,rairai,malalamiko,ahueni,dharura,NA,NA,3,NA,NA,NA,NA,NA,NA,NA,NA,NA,NA,NA,NA,NA,NA,NA,NA,NA,NA,NA
a753a,"""Richtig""-Screen",canvas.Screen,3_0_3_0_6_1_1,NA,NA,timeout,4996.0360000003,3013420.3999999,3013406.192,3013422.962,3018402.992,3018403.3999999,2023-04-18T16:11:42Z,3018418.998,NULL,Notfall,dharura,s,rairai,malalamiko,ahueni,NA,qt,1,3,NA,NA,NA,NA,NA,NA,NA,NA,NA,NA,NA,NA,NA,NA,NA,NA,NA,NA,NA
a753a,"""Falsch""-Screen",canvas.Screen,3_0_3_0_6_1_2,NA,NA,skipped,NA,3018405.3,NA,NA,3018402.992,3018405.3999999,2023-04-18T16:11:42Z,3018418.998,NULL,Notfall,dharura,s,rairai,malalamiko,ahueni,NA,qt,NA,3,NA,NA,NA,NA,NA,NA,NA,NA,NA,NA,NA,NA,NA,NA,NA,NA,NA,NA,NA
a753a,shallow,flow.Sequence,3_0_3_0_6_1,NA,NA,completion,12790.11,3005599.8,3005596.026,3005612.882,3018402.992,3018405.5,2023-04-18T16:11:42Z,3018418.998,NULL,Notfall,dharura,s,rairai,malalamiko,ahueni,NA,qt,NA,3,NA,NA,NA,NA,NA,NA,NA,NA,NA,NA,NA,NA,NA,NA,NA,NA,NA,NA,NA
a753a,task,flow.Sequence,3_0_3_0_6,NA,NA,completion,12790.11,3005599.8,3005596.026,3005612.882,3018402.992,3018405.5999999,2023-04-18T16:11:42Z,3018418.998,NULL,Notfall,dharura,s,rairai,malalamiko,ahueni,NA,qt,NA,3,NA,NA,NA,NA,NA,NA,NA,NA,NA,NA,NA,NA,NA,NA,NA,NA,NA,NA,NA
a753a,deep,flow.Sequence,3_0_3_0_7_0,NA,NA,skipped,NA,3018405.7,NA,NA,3018402.992,3018405.7,2023-04-18T16:11:42Z,3018418.998,NULL,Gelegenheit,wakati,s,mchanganyiko,kipaumbele,kushuku,NA,qt,NA,3,NA,NA,NA,NA,NA,NA,NA,NA,NA,NA,NA,NA,NA,NA,NA,NA,NA,NA,NA
a753a,Shallow Question,html.Page,3_0_3_0_7_1_0,NA,NA,form submission,5378.7020000475,3018405.7,3018402.992,3018418.998,3023797.7,3023797.8999999,2023-04-18T16:11:48Z,3023818.674,NULL,Gelegenheit,wakati,s,mchanganyiko,kipaumbele,kushuku,wakati,NA,NA,3,NA,NA,NA,NA,NA,NA,NA,NA,NA,NA,NA,NA,NA,NA,NA,NA,NA,NA,NA
a753a,"""Richtig""-Screen",canvas.Screen,3_0_3_0_7_1_1,NA,NA,timeout,4991.79,3023799.5,3023781.531,3023818.674,3028794.188,3028795.0999999,2023-04-18T16:11:53Z,3028810.464,NULL,Gelegenheit,wakati,s,mchanganyiko,kipaumbele,kushuku,NA,qt,1,3,NA,NA,NA,NA,NA,NA,NA,NA,NA,NA,NA,NA,NA,NA,NA,NA,NA,NA,NA
a753a,"""Falsch""-Screen",canvas.Screen,3_0_3_0_7_1_2,NA,NA,skipped,NA,3028798.8,NA,NA,3028794.188,3028799,2023-04-18T16:11:53Z,3028810.464,NULL,Gelegenheit,wakati,s,mchanganyiko,kipaumbele,kushuku,NA,qt,NA,3,NA,NA,NA,NA,NA,NA,NA,NA,NA,NA,NA,NA,NA,NA,NA,NA,NA,NA,NA
a753a,shallow,flow.Sequence,3_0_3_0_7_1,NA,NA,completion,10375.19,3018405.7,3018402.992,3018418.998,3028794.188,3028799.0999999,2023-04-18T16:11:53Z,3028810.464,NULL,Gelegenheit,wakati,s,mchanganyiko,kipaumbele,kushuku,NA,qt,NA,3,NA,NA,NA,NA,NA,NA,NA,NA,NA,NA,NA,NA,NA,NA,NA,NA,NA,NA,NA
a753a,task,flow.Sequence,3_0_3_0_7,NA,NA,completion,10375.19,3018405.7,3018402.992,3018418.998,3028794.188,3028799.0999999,2023-04-18T16:11:53Z,3028810.464,NULL,Gelegenheit,wakati,s,mchanganyiko,kipaumbele,kushuku,NA,qt,NA,3,NA,NA,NA,NA,NA,NA,NA,NA,NA,NA,NA,NA,NA,NA,NA,NA,NA,NA,NA
a753a,block,flow.Loop,3_0_3_0,NA,NA,completion,120651.404,2908136,2908126.039,2908142.784,3028794.188,3028799.3,2023-04-18T16:11:53Z,3028810.464,NULL,NA,NA,NA,NA,NA,NA,NA,qt,NA,3,NA,NA,NA,NA,NA,NA,NA,NA,NA,NA,NA,NA,NA,NA,NA,NA,NA,NA,NA
a753a,weiter,canvas.Screen,3_0_3_1,sdf,keypress(Space),response,942.03599999985,3028799.3,3028794.188,3028810.464,3029752.5,3029753.7,2023-04-18T16:11:54Z,3029810.272,NULL,NA,NA,NA,NA,NA,NA,NA,qt,NA,3,NA,NA,NA,NA,NA,NA,NA,NA,NA,NA,NA,NA,NA,NA,NA,NA,NA,NA,NA
a753a,check continue,flow.Sequence,3_0_3,NA,NA,completion,121609.716,2908135.8999999,2908126.039,2908142.784,3029752.5,3029754,2023-04-18T16:11:54Z,3029810.272,NULL,NA,NA,NA,NA,NA,NA,NA,qt,NA,3,NA,NA,NA,NA,NA,NA,NA,NA,NA,NA,NA,NA,NA,NA,NA,NA,NA,NA,NA
a753a,deep,flow.Sequence,3_0_4_0_0_0,NA,NA,skipped,NA,3029792.3999999,NA,NA,3029752.5,3029792.5,2023-04-18T16:11:54Z,3029810.272,NULL,Ausschluss,kutengwa,s,ununuzi,taratibu,madeni,NA,sd,NA,4,NA,NA,NA,NA,NA,NA,NA,NA,NA,NA,NA,NA,NA,NA,NA,NA,NA,NA,NA
a753a,Shallow Question,html.Page,3_0_4_0_0_1_0,NA,NA,form submission,6385.3279999048,3029792.7,3029776.424,3029810.272,3036195.5999999,3036195.8,2023-04-18T16:12:00Z,3036204.301,NULL,Ausschluss,kutengwa,s,ununuzi,taratibu,madeni,kutengwa,NA,NA,4,NA,NA,NA,NA,NA,NA,NA,NA,NA,NA,NA,NA,NA,NA,NA,NA,NA,NA,NA
a753a,"""Richtig""-Screen",canvas.Screen,3_0_4_0_0_1_1,NA,NA,timeout,4995.98,3036197.7,3036187.999,3036204.301,3041183.956,3041184.7,2023-04-18T16:12:05Z,3041200.281,NULL,Ausschluss,kutengwa,s,ununuzi,taratibu,madeni,NA,sd,1,4,NA,NA,NA,NA,NA,NA,NA,NA,NA,NA,NA,NA,NA,NA,NA,NA,NA,NA,NA
a753a,"""Falsch""-Screen",canvas.Screen,3_0_4_0_0_1_2,NA,NA,skipped,NA,3041190,NA,NA,3041183.956,3041190.3999999,2023-04-18T16:12:05Z,3041200.281,NULL,Ausschluss,kutengwa,s,ununuzi,taratibu,madeni,NA,sd,NA,4,NA,NA,NA,NA,NA,NA,NA,NA,NA,NA,NA,NA,NA,NA,NA,NA,NA,NA,NA
a753a,shallow,flow.Sequence,3_0_4_0_0_1,NA,NA,completion,11373.684,3029792.7,3029776.424,3029810.272,3041183.956,3041190.8,2023-04-18T16:12:05Z,3041200.281,NULL,Ausschluss,kutengwa,s,ununuzi,taratibu,madeni,NA,sd,NA,4,NA,NA,NA,NA,NA,NA,NA,NA,NA,NA,NA,NA,NA,NA,NA,NA,NA,NA,NA
a753a,task,flow.Sequence,3_0_4_0_0,NA,NA,completion,11373.684,3029792.3999999,3029776.424,3029810.272,3041183.956,3041191,2023-04-18T16:12:05Z,3041200.281,NULL,Ausschluss,kutengwa,s,ununuzi,taratibu,madeni,NA,sd,NA,4,NA,NA,NA,NA,NA,NA,NA,NA,NA,NA,NA,NA,NA,NA,NA,NA,NA,NA,NA
a753a,Deep Question,html.Page,3_0_4_0_1_0_0,NA,NA,form submission,4767.4190000477,3041191.3,3041183.956,3041200.281,3045967.7,3045967.8,2023-04-18T16:12:10Z,3045980.032,NULL,Ergänzung,kijalizo,d,NA,NA,NA,kijazo,NA,NA,4,NA,NA,NA,NA,NA,NA,NA,NA,NA,NA,NA,NA,NA,NA,NA,NA,NA,NA,NA
a753a,"""Richtig""-Screen",canvas.Screen,3_0_4_0_1_0_1,NA,NA,skipped,NA,3045969.5999999,NA,NA,3045967.7,3045969.7,2023-04-18T16:12:10Z,3045980.032,NULL,Ergänzung,kijalizo,d,NA,NA,NA,NA,sd,NA,4,NA,NA,NA,NA,NA,NA,NA,NA,NA,NA,NA,NA,NA,NA,NA,NA,NA,NA,NA
a753a,"""Falsch""-Screen",canvas.Screen,3_0_4_0_1_0_2,NA,NA,timeout,4996.128,3045970.3999999,3045963.667,3045980.032,3050959.188,3050960.0999999,2023-04-18T16:12:15Z,3050976.16,NULL,Ergänzung,kijalizo,d,NA,NA,NA,NA,sd,0,4,NA,NA,NA,NA,NA,NA,NA,NA,NA,NA,NA,NA,NA,NA,NA,NA,NA,NA,NA
a753a,deep,flow.Sequence,3_0_4_0_1_0,NA,NA,completion,9758.9070000001,3041191.3,3041183.956,3041200.281,3050959.188,3050960.5999999,2023-04-18T16:12:15Z,3050976.16,NULL,Ergänzung,kijalizo,d,NA,NA,NA,NA,sd,NA,4,NA,NA,NA,NA,NA,NA,NA,NA,NA,NA,NA,NA,NA,NA,NA,NA,NA,NA,NA
a753a,shallow,flow.Sequence,3_0_4_0_1_1,NA,NA,skipped,NA,3050960.7,NA,NA,3050959.188,3050960.8999999,2023-04-18T16:12:15Z,3050976.16,NULL,Ergänzung,kijalizo,d,NA,NA,NA,NA,sd,NA,4,NA,NA,NA,NA,NA,NA,NA,NA,NA,NA,NA,NA,NA,NA,NA,NA,NA,NA,NA
a753a,task,flow.Sequence,3_0_4_0_1,NA,NA,completion,9758.9070000001,3041191.2,3041183.956,3041200.281,3050959.188,3050961.0999999,2023-04-18T16:12:15Z,3050976.16,NULL,Ergänzung,kijalizo,d,NA,NA,NA,NA,sd,NA,4,NA,NA,NA,NA,NA,NA,NA,NA,NA,NA,NA,NA,NA,NA,NA,NA,NA,NA,NA
a753a,deep,flow.Sequence,3_0_4_0_2_0,NA,NA,skipped,NA,3050961.2,NA,NA,3050959.188,3050961.3,2023-04-18T16:12:15Z,3050976.16,NULL,Vergnügen,kichekesho,s,dubwana,mpanuko,mtesaji,NA,sd,NA,4,NA,NA,NA,NA,NA,NA,NA,NA,NA,NA,NA,NA,NA,NA,NA,NA,NA,NA,NA
a753a,Shallow Question,html.Page,3_0_4_0_2_1_0,NA,NA,form submission,9213.8399999999,3050961.5999999,3050959.188,3050976.16,3060190,3060190.2,2023-04-18T16:12:24Z,3060201.562,NULL,Vergnügen,kichekesho,s,dubwana,mpanuko,mtesaji,kichekesho,NA,NA,4,NA,NA,NA,NA,NA,NA,NA,NA,NA,NA,NA,NA,NA,NA,NA,NA,NA,NA,NA
a753a,"""Richtig""-Screen",canvas.Screen,3_0_4_0_2_1_1,NA,NA,timeout,4995.574,3060192,3060184.809,3060201.562,3065181.045,3065181.8999999,2023-04-18T16:12:29Z,3065197.136,NULL,Vergnügen,kichekesho,s,dubwana,mpanuko,mtesaji,NA,sd,1,4,NA,NA,NA,NA,NA,NA,NA,NA,NA,NA,NA,NA,NA,NA,NA,NA,NA,NA,NA
a753a,"""Falsch""-Screen",canvas.Screen,3_0_4_0_2_1_2,NA,NA,skipped,NA,3065186.0999999,NA,NA,3065181.045,3065186.3,2023-04-18T16:12:29Z,3065197.136,NULL,Vergnügen,kichekesho,s,dubwana,mpanuko,mtesaji,NA,sd,NA,4,NA,NA,NA,NA,NA,NA,NA,NA,NA,NA,NA,NA,NA,NA,NA,NA,NA,NA,NA
a753a,shallow,flow.Sequence,3_0_4_0_2_1,NA,NA,completion,14204.885,3050961.5,3050959.188,3050976.16,3065181.045,3065186.5,2023-04-18T16:12:29Z,3065197.136,NULL,Vergnügen,kichekesho,s,dubwana,mpanuko,mtesaji,NA,sd,NA,4,NA,NA,NA,NA,NA,NA,NA,NA,NA,NA,NA,NA,NA,NA,NA,NA,NA,NA,NA
a753a,task,flow.Sequence,3_0_4_0_2,NA,NA,completion,14204.885,3050961.2,3050959.188,3050976.16,3065181.045,3065186.5,2023-04-18T16:12:29Z,3065197.136,NULL,Vergnügen,kichekesho,s,dubwana,mpanuko,mtesaji,NA,sd,NA,4,NA,NA,NA,NA,NA,NA,NA,NA,NA,NA,NA,NA,NA,NA,NA,NA,NA,NA,NA
a753a,Deep Question,html.Page,3_0_4_0_3_0_0,NA,NA,form submission,5131.3640000001,3065186.5999999,3065181.045,3065197.136,3070328.5,3070328.5999999,2023-04-18T16:12:34Z,3070343.374,NULL,Widerstand,usulubu,d,NA,NA,NA,usulubu,NA,NA,4,NA,NA,NA,NA,NA,NA,NA,NA,NA,NA,NA,NA,NA,NA,NA,NA,NA,NA,NA
a753a,"""Richtig""-Screen",canvas.Screen,3_0_4_0_3_0_1,NA,NA,timeout,4995.693,3070330.5,3070326.275,3070343.374,3075322.266,3075323.2,2023-04-18T16:12:39Z,3075339.067,NULL,Widerstand,usulubu,d,NA,NA,NA,NA,sd,1,4,NA,NA,NA,NA,NA,NA,NA,NA,NA,NA,NA,NA,NA,NA,NA,NA,NA,NA,NA
a753a,"""Falsch""-Screen",canvas.Screen,3_0_4_0_3_0_2,NA,NA,skipped,NA,3075328.5999999,NA,NA,3075322.266,3075328.8999999,2023-04-18T16:12:39Z,3075339.067,NULL,Widerstand,usulubu,d,NA,NA,NA,NA,sd,NA,4,NA,NA,NA,NA,NA,NA,NA,NA,NA,NA,NA,NA,NA,NA,NA,NA,NA,NA,NA
a753a,deep,flow.Sequence,3_0_4_0_3_0,NA,NA,completion,10125.13,3065186.5,3065181.045,3065197.136,3075322.266,3075329.3999999,2023-04-18T16:12:39Z,3075339.067,NULL,Widerstand,usulubu,d,NA,NA,NA,NA,sd,NA,4,NA,NA,NA,NA,NA,NA,NA,NA,NA,NA,NA,NA,NA,NA,NA,NA,NA,NA,NA
a753a,shallow,flow.Sequence,3_0_4_0_3_1,NA,NA,skipped,NA,3075329.5,NA,NA,3075322.266,3075329.7,2023-04-18T16:12:39Z,3075339.067,NULL,Widerstand,usulubu,d,NA,NA,NA,NA,sd,NA,4,NA,NA,NA,NA,NA,NA,NA,NA,NA,NA,NA,NA,NA,NA,NA,NA,NA,NA,NA
a753a,task,flow.Sequence,3_0_4_0_3,NA,NA,completion,10125.13,3065186.5,3065181.045,3065197.136,3075322.266,3075330,2023-04-18T16:12:39Z,3075339.067,NULL,Widerstand,usulubu,d,NA,NA,NA,NA,sd,NA,4,NA,NA,NA,NA,NA,NA,NA,NA,NA,NA,NA,NA,NA,NA,NA,NA,NA,NA,NA
a753a,Deep Question,html.Page,3_0_4_0_4_0_0,NA,NA,form submission,6900.6330000479,3075330.2,3075322.266,3075339.067,3082239.7,3082239.8999999,2023-04-18T16:12:46Z,3082249.82,NULL,Verstand,ufahamivu,d,NA,NA,NA,mafanikio,NA,NA,4,NA,NA,NA,NA,NA,NA,NA,NA,NA,NA,NA,NA,NA,NA,NA,NA,NA,NA,NA
a753a,"""Richtig""-Screen",canvas.Screen,3_0_4_0_4_0_1,NA,NA,skipped,NA,3082242.5999999,NA,NA,3082239.7,3082242.8,2023-04-18T16:12:46Z,3082249.82,NULL,Verstand,ufahamivu,d,NA,NA,NA,NA,sd,NA,4,NA,NA,NA,NA,NA,NA,NA,NA,NA,NA,NA,NA,NA,NA,NA,NA,NA,NA,NA
a753a,"""Falsch""-Screen",canvas.Screen,3_0_4_0_4_0_2,NA,NA,timeout,4996.3900000001,3082243.7,3082233.848,3082249.82,3087229.676,3087230.5,2023-04-18T16:12:51Z,3087246.21,NULL,Verstand,ufahamivu,d,NA,NA,NA,NA,sd,0,4,NA,NA,NA,NA,NA,NA,NA,NA,NA,NA,NA,NA,NA,NA,NA,NA,NA,NA,NA
a753a,deep,flow.Sequence,3_0_4_0_4_0,NA,NA,completion,11890.609,3075330.2,3075322.266,3075339.067,3087229.676,3087230.8999999,2023-04-18T16:12:51Z,3087246.21,NULL,Verstand,ufahamivu,d,NA,NA,NA,NA,sd,NA,4,NA,NA,NA,NA,NA,NA,NA,NA,NA,NA,NA,NA,NA,NA,NA,NA,NA,NA,NA
a753a,shallow,flow.Sequence,3_0_4_0_4_1,NA,NA,skipped,NA,3087231.0999999,NA,NA,3087229.676,3087231.3,2023-04-18T16:12:51Z,3087246.21,NULL,Verstand,ufahamivu,d,NA,NA,NA,NA,sd,NA,4,NA,NA,NA,NA,NA,NA,NA,NA,NA,NA,NA,NA,NA,NA,NA,NA,NA,NA,NA
a753a,task,flow.Sequence,3_0_4_0_4,NA,NA,completion,11890.609,3075330.0999999,3075322.266,3075339.067,3087229.676,3087231.5,2023-04-18T16:12:51Z,3087246.21,NULL,Verstand,ufahamivu,d,NA,NA,NA,NA,sd,NA,4,NA,NA,NA,NA,NA,NA,NA,NA,NA,NA,NA,NA,NA,NA,NA,NA,NA,NA,NA
a753a,Deep Question,html.Page,3_0_4_0_5_0_0,NA,NA,form submission,7405.189999857,3087231.7,3087229.676,3087246.21,3094651.3999999,3094651.5999999,2023-04-18T16:12:59Z,3094656.266,NULL,Wohlstand,mafanikio,d,NA,NA,NA,mafanikio,NA,NA,4,NA,NA,NA,NA,NA,NA,NA,NA,NA,NA,NA,NA,NA,NA,NA,NA,NA,NA,NA
a753a,"""Richtig""-Screen",canvas.Screen,3_0_4_0_5_0_1,NA,NA,timeout,4996.2720000003,3094653.7,3094639.987,3094656.266,3099636.106,3099637.2,2023-04-18T16:13:04Z,3099652.538,NULL,Wohlstand,mafanikio,d,NA,NA,NA,NA,sd,1,4,NA,NA,NA,NA,NA,NA,NA,NA,NA,NA,NA,NA,NA,NA,NA,NA,NA,NA,NA
a753a,"""Falsch""-Screen",canvas.Screen,3_0_4_0_5_0_2,NA,NA,skipped,NA,3099642.5999999,NA,NA,3099636.106,3099642.7,2023-04-18T16:13:04Z,3099652.538,NULL,Wohlstand,mafanikio,d,NA,NA,NA,NA,sd,NA,4,NA,NA,NA,NA,NA,NA,NA,NA,NA,NA,NA,NA,NA,NA,NA,NA,NA,NA,NA
a753a,deep,flow.Sequence,3_0_4_0_5_0,NA,NA,completion,12389.896,3087231.7,3087229.676,3087246.21,3099636.106,3099642.8999999,2023-04-18T16:13:04Z,3099652.538,NULL,Wohlstand,mafanikio,d,NA,NA,NA,NA,sd,NA,4,NA,NA,NA,NA,NA,NA,NA,NA,NA,NA,NA,NA,NA,NA,NA,NA,NA,NA,NA
a753a,shallow,flow.Sequence,3_0_4_0_5_1,NA,NA,skipped,NA,3099642.8999999,NA,NA,3099636.106,3099642.8999999,2023-04-18T16:13:04Z,3099652.538,NULL,Wohlstand,mafanikio,d,NA,NA,NA,NA,sd,NA,4,NA,NA,NA,NA,NA,NA,NA,NA,NA,NA,NA,NA,NA,NA,NA,NA,NA,NA,NA
a753a,task,flow.Sequence,3_0_4_0_5,NA,NA,completion,12389.896,3087231.5999999,3087229.676,3087246.21,3099636.106,3099643,2023-04-18T16:13:04Z,3099652.538,NULL,Wohlstand,mafanikio,d,NA,NA,NA,NA,sd,NA,4,NA,NA,NA,NA,NA,NA,NA,NA,NA,NA,NA,NA,NA,NA,NA,NA,NA,NA,NA
a753a,deep,flow.Sequence,3_0_4_0_6_0,NA,NA,skipped,NA,3099643.0999999,NA,NA,3099636.106,3099643.2,2023-04-18T16:13:04Z,3099652.538,NULL,Gelegenheit,wakati,s,mchanganyiko,kipaumbele,kushuku,NA,sd,NA,4,NA,NA,NA,NA,NA,NA,NA,NA,NA,NA,NA,NA,NA,NA,NA,NA,NA,NA,NA
a753a,Shallow Question,html.Page,3_0_4_0_6_1_0,NA,NA,form submission,4106.6620000475,3099643.2,3099636.106,3099652.538,3103759.2,3103759.3,2023-04-18T16:13:08Z,3103765.654,NULL,Gelegenheit,wakati,s,mchanganyiko,kipaumbele,kushuku,wakati,NA,NA,4,NA,NA,NA,NA,NA,NA,NA,NA,NA,NA,NA,NA,NA,NA,NA,NA,NA,NA,NA
a753a,"""Richtig""-Screen",canvas.Screen,3_0_4_0_6_1_1,NA,NA,timeout,4995.767,3103761.0999999,3103749.234,3103765.654,3108744.958,3108746,2023-04-18T16:13:13Z,3108761.421,NULL,Gelegenheit,wakati,s,mchanganyiko,kipaumbele,kushuku,NA,sd,1,4,NA,NA,NA,NA,NA,NA,NA,NA,NA,NA,NA,NA,NA,NA,NA,NA,NA,NA,NA
a753a,"""Falsch""-Screen",canvas.Screen,3_0_4_0_6_1_2,NA,NA,skipped,NA,3108750.7,NA,NA,3108744.958,3108750.8,2023-04-18T16:13:13Z,3108761.421,NULL,Gelegenheit,wakati,s,mchanganyiko,kipaumbele,kushuku,NA,sd,NA,4,NA,NA,NA,NA,NA,NA,NA,NA,NA,NA,NA,NA,NA,NA,NA,NA,NA,NA,NA
a753a,shallow,flow.Sequence,3_0_4_0_6_1,NA,NA,completion,9092.4199999999,3099643.2,3099636.106,3099652.538,3108744.958,3108751,2023-04-18T16:13:13Z,3108761.421,NULL,Gelegenheit,wakati,s,mchanganyiko,kipaumbele,kushuku,NA,sd,NA,4,NA,NA,NA,NA,NA,NA,NA,NA,NA,NA,NA,NA,NA,NA,NA,NA,NA,NA,NA
a753a,task,flow.Sequence,3_0_4_0_6,NA,NA,completion,9092.4199999999,3099643.0999999,3099636.106,3099652.538,3108744.958,3108751.0999999,2023-04-18T16:13:13Z,3108761.421,NULL,Gelegenheit,wakati,s,mchanganyiko,kipaumbele,kushuku,NA,sd,NA,4,NA,NA,NA,NA,NA,NA,NA,NA,NA,NA,NA,NA,NA,NA,NA,NA,NA,NA,NA
a753a,deep,flow.Sequence,3_0_4_0_7_0,NA,NA,skipped,NA,3108751.0999999,NA,NA,3108744.958,3108751.0999999,2023-04-18T16:13:13Z,3108761.421,NULL,Notfall,dharura,s,rairai,malalamiko,ahueni,NA,sd,NA,4,NA,NA,NA,NA,NA,NA,NA,NA,NA,NA,NA,NA,NA,NA,NA,NA,NA,NA,NA
a753a,Shallow Question,html.Page,3_0_4_0_7_1_0,NA,NA,form submission,6391.2790000476,3108751.2,3108744.958,3108761.421,3115152.7,3115152.8,2023-04-18T16:13:19Z,3115156.101,NULL,Notfall,dharura,s,rairai,malalamiko,ahueni,dharura,NA,NA,4,NA,NA,NA,NA,NA,NA,NA,NA,NA,NA,NA,NA,NA,NA,NA,NA,NA,NA,NA
a753a,"""Richtig""-Screen",canvas.Screen,3_0_4_0_7_1_1,NA,NA,timeout,4995.9450000003,3115154.3999999,3115139.972,3115156.101,3120136.055,3120137.2,2023-04-18T16:13:24Z,3120152.046,NULL,Notfall,dharura,s,rairai,malalamiko,ahueni,NA,sd,1,4,NA,NA,NA,NA,NA,NA,NA,NA,NA,NA,NA,NA,NA,NA,NA,NA,NA,NA,NA
a753a,"""Falsch""-Screen",canvas.Screen,3_0_4_0_7_1_2,NA,NA,skipped,NA,3120142.5999999,NA,NA,3120136.055,3120142.8999999,2023-04-18T16:13:24Z,3120152.046,NULL,Notfall,dharura,s,rairai,malalamiko,ahueni,NA,sd,NA,4,NA,NA,NA,NA,NA,NA,NA,NA,NA,NA,NA,NA,NA,NA,NA,NA,NA,NA,NA
a753a,shallow,flow.Sequence,3_0_4_0_7_1,NA,NA,completion,11374.634,3108751.2,3108744.958,3108761.421,3120136.055,3120143.3999999,2023-04-18T16:13:24Z,3120152.046,NULL,Notfall,dharura,s,rairai,malalamiko,ahueni,NA,sd,NA,4,NA,NA,NA,NA,NA,NA,NA,NA,NA,NA,NA,NA,NA,NA,NA,NA,NA,NA,NA
a753a,task,flow.Sequence,3_0_4_0_7,NA,NA,completion,11374.634,3108751.0999999,3108744.958,3108761.421,3120136.055,3120143.5999999,2023-04-18T16:13:24Z,3120152.046,NULL,Notfall,dharura,s,rairai,malalamiko,ahueni,NA,sd,NA,4,NA,NA,NA,NA,NA,NA,NA,NA,NA,NA,NA,NA,NA,NA,NA,NA,NA,NA,NA
a753a,block,flow.Loop,3_0_4_0,NA,NA,completion,90325.783,3029792.3999999,3029776.424,3029810.272,3120136.055,3120143.8999999,2023-04-18T16:13:24Z,3120152.046,NULL,NA,NA,NA,NA,NA,NA,NA,sd,NA,4,NA,NA,NA,NA,NA,NA,NA,NA,NA,NA,NA,NA,NA,NA,NA,NA,NA,NA,NA
a753a,weiter,canvas.Screen,3_0_4_1,sdf,keypress(Space),response,1210.8539998569,3120144.0999999,3120136.055,3120152.046,3121362.8999999,3121364.2,2023-04-18T16:13:25Z,3121859.794,NULL,NA,NA,NA,NA,NA,NA,NA,sd,NA,4,NA,NA,NA,NA,NA,NA,NA,NA,NA,NA,NA,NA,NA,NA,NA,NA,NA,NA,NA
a753a,check continue,flow.Sequence,3_0_4,NA,NA,completion,91552.627999857,3029792.3999999,3029776.424,3029810.272,3121362.8999999,3121364.5,2023-04-18T16:13:25Z,3121859.794,NULL,NA,NA,NA,NA,NA,NA,NA,sd,NA,4,NA,NA,NA,NA,NA,NA,NA,NA,NA,NA,NA,NA,NA,NA,NA,NA,NA,NA,NA
a753a,check continue,flow.Sequence,3_0_5,NA,NA,skipped,NA,3121403.3,NA,NA,3121362.8999999,3121403.3,2023-04-18T16:13:25Z,3121859.794,NULL,NA,NA,NA,NA,NA,NA,NA,sdf,NA,5,NA,NA,NA,NA,NA,NA,NA,NA,NA,NA,NA,NA,NA,NA,NA,NA,NA,NA,NA
a753a,check continue,flow.Sequence,3_0_6,NA,NA,skipped,NA,3121421.8,NA,NA,3121362.8999999,3121421.8999999,2023-04-18T16:13:25Z,3121859.794,NULL,NA,NA,NA,NA,NA,NA,NA,dfs,NA,6,NA,NA,NA,NA,NA,NA,NA,NA,NA,NA,NA,NA,NA,NA,NA,NA,NA,NA,NA
a753a,check continue,flow.Sequence,3_0_7,NA,NA,skipped,NA,3121443.3999999,NA,NA,3121362.8999999,3121443.5999999,2023-04-18T16:13:25Z,3121859.794,NULL,NA,NA,NA,NA,NA,NA,NA,df,NA,7,NA,NA,NA,NA,NA,NA,NA,NA,NA,NA,NA,NA,NA,NA,NA,NA,NA,NA,NA
a753a,check continue,flow.Sequence,3_0_8,NA,NA,skipped,NA,3121460.7,NA,NA,3121362.8999999,3121460.8,2023-04-18T16:13:25Z,3121859.794,NULL,NA,NA,NA,NA,NA,NA,NA,dfs,NA,8,NA,NA,NA,NA,NA,NA,NA,NA,NA,NA,NA,NA,NA,NA,NA,NA,NA,NA,NA
a753a,check continue,flow.Sequence,3_0_9,NA,NA,skipped,NA,3121490.5,NA,NA,3121362.8999999,3121490.7,2023-04-18T16:13:25Z,3121859.794,NULL,NA,NA,NA,NA,NA,NA,NA,dsf,NA,9,NA,NA,NA,NA,NA,NA,NA,NA,NA,NA,NA,NA,NA,NA,NA,NA,NA,NA,NA
a753a,check continue,flow.Sequence,3_0_10,NA,NA,skipped,NA,3121507.0999999,NA,NA,3121362.8999999,3121507.2,2023-04-18T16:13:26Z,3121859.794,NULL,NA,NA,NA,NA,NA,NA,NA,df,NA,10,NA,NA,NA,NA,NA,NA,NA,NA,NA,NA,NA,NA,NA,NA,NA,NA,NA,NA,NA
a753a,check continue,flow.Sequence,3_0_11,NA,NA,skipped,NA,3121522.3999999,NA,NA,3121362.8999999,3121522.5,2023-04-18T16:13:26Z,3121859.794,NULL,NA,NA,NA,NA,NA,NA,NA,dfs,NA,11,NA,NA,NA,NA,NA,NA,NA,NA,NA,NA,NA,NA,NA,NA,NA,NA,NA,NA,NA
a753a,check continue,flow.Sequence,3_0_12,NA,NA,skipped,NA,3121544.8999999,NA,NA,3121362.8999999,3121545.0999999,2023-04-18T16:13:26Z,3121859.794,NULL,NA,NA,NA,NA,NA,NA,NA,dsf,NA,12,NA,NA,NA,NA,NA,NA,NA,NA,NA,NA,NA,NA,NA,NA,NA,NA,NA,NA,NA
a753a,check continue,flow.Sequence,3_0_13,NA,NA,skipped,NA,3121566.7,NA,NA,3121362.8999999,3121566.8,2023-04-18T16:13:26Z,3121859.794,NULL,NA,NA,NA,NA,NA,NA,NA,dsf,NA,13,NA,NA,NA,NA,NA,NA,NA,NA,NA,NA,NA,NA,NA,NA,NA,NA,NA,NA,NA
a753a,check continue,flow.Sequence,3_0_14,NA,NA,skipped,NA,3121583.7,NA,NA,3121362.8999999,3121583.8999999,2023-04-18T16:13:26Z,3121859.794,NULL,NA,NA,NA,NA,NA,NA,NA,NA,NA,14,NA,NA,NA,NA,NA,NA,NA,NA,NA,NA,NA,NA,NA,NA,NA,NA,NA,NA,NA
a753a,check continue,flow.Sequence,3_0_15,NA,NA,skipped,NA,3121604,NA,NA,3121362.8999999,3121604.0999999,2023-04-18T16:13:26Z,3121859.794,NULL,NA,NA,NA,NA,NA,NA,NA,NA,NA,15,NA,NA,NA,NA,NA,NA,NA,NA,NA,NA,NA,NA,NA,NA,NA,NA,NA,NA,NA
a753a,check continue,flow.Sequence,3_0_16,NA,NA,skipped,NA,3121620.8,NA,NA,3121362.8999999,3121620.8999999,2023-04-18T16:13:26Z,3121859.794,NULL,NA,NA,NA,NA,NA,NA,NA,NA,NA,16,NA,NA,NA,NA,NA,NA,NA,NA,NA,NA,NA,NA,NA,NA,NA,NA,NA,NA,NA
a753a,check continue,flow.Sequence,3_0_17,NA,NA,skipped,NA,3121635.8999999,NA,NA,3121362.8999999,3121635.8999999,2023-04-18T16:13:26Z,3121859.794,NULL,NA,NA,NA,NA,NA,NA,NA,NA,NA,17,NA,NA,NA,NA,NA,NA,NA,NA,NA,NA,NA,NA,NA,NA,NA,NA,NA,NA,NA
a753a,check continue,flow.Sequence,3_0_18,NA,NA,skipped,NA,3121651.3999999,NA,NA,3121362.8999999,3121651.5999999,2023-04-18T16:13:26Z,3121859.794,NULL,NA,NA,NA,NA,NA,NA,NA,NA,NA,18,NA,NA,NA,NA,NA,NA,NA,NA,NA,NA,NA,NA,NA,NA,NA,NA,NA,NA,NA
a753a,check continue,flow.Sequence,3_0_19,NA,NA,skipped,NA,3121668.3999999,NA,NA,3121362.8999999,3121668.5999999,2023-04-18T16:13:26Z,3121859.794,NULL,NA,NA,NA,NA,NA,NA,NA,NA,NA,19,NA,NA,NA,NA,NA,NA,NA,NA,NA,NA,NA,NA,NA,NA,NA,NA,NA,NA,NA
a753a,check continue,flow.Sequence,3_0_20,NA,NA,skipped,NA,3121687.0999999,NA,NA,3121362.8999999,3121687.2,2023-04-18T16:13:26Z,3121859.794,NULL,NA,NA,NA,NA,NA,NA,NA,NA,NA,20,NA,NA,NA,NA,NA,NA,NA,NA,NA,NA,NA,NA,NA,NA,NA,NA,NA,NA,NA
a753a,check continue,flow.Sequence,3_0_21,NA,NA,skipped,NA,3121701.7,NA,NA,3121362.8999999,3121701.8,2023-04-18T16:13:26Z,3121859.794,NULL,NA,NA,NA,NA,NA,NA,NA,NA,NA,21,NA,NA,NA,NA,NA,NA,NA,NA,NA,NA,NA,NA,NA,NA,NA,NA,NA,NA,NA
a753a,check continue,flow.Sequence,3_0_22,NA,NA,skipped,NA,3121719.7,NA,NA,3121362.8999999,3121719.8,2023-04-18T16:13:26Z,3121859.794,NULL,NA,NA,NA,NA,NA,NA,NA,NA,NA,22,NA,NA,NA,NA,NA,NA,NA,NA,NA,NA,NA,NA,NA,NA,NA,NA,NA,NA,NA
a753a,check continue,flow.Sequence,3_0_23,NA,NA,skipped,NA,3121734.5,NA,NA,3121362.8999999,3121734.7,2023-04-18T16:13:26Z,3121859.794,NULL,NA,NA,NA,NA,NA,NA,NA,NA,NA,23,NA,NA,NA,NA,NA,NA,NA,NA,NA,NA,NA,NA,NA,NA,NA,NA,NA,NA,NA
a753a,check continue,flow.Sequence,3_0_24,NA,NA,skipped,NA,3121750.3,NA,NA,3121362.8999999,3121750.3999999,2023-04-18T16:13:26Z,3121859.794,NULL,NA,NA,NA,NA,NA,NA,NA,NA,NA,24,NA,NA,NA,NA,NA,NA,NA,NA,NA,NA,NA,NA,NA,NA,NA,NA,NA,NA,NA
a753a,check continue,flow.Sequence,3_0_25,NA,NA,skipped,NA,3121764.5999999,NA,NA,3121362.8999999,3121764.8,2023-04-18T16:13:26Z,3121859.794,NULL,NA,NA,NA,NA,NA,NA,NA,NA,NA,25,NA,NA,NA,NA,NA,NA,NA,NA,NA,NA,NA,NA,NA,NA,NA,NA,NA,NA,NA
a753a,check continue,flow.Sequence,3_0_26,NA,NA,skipped,NA,3121781.3999999,NA,NA,3121362.8999999,3121781.5999999,2023-04-18T16:13:26Z,3121859.794,NULL,NA,NA,NA,NA,NA,NA,NA,NA,NA,26,NA,NA,NA,NA,NA,NA,NA,NA,NA,NA,NA,NA,NA,NA,NA,NA,NA,NA,NA
a753a,check continue,flow.Sequence,3_0_27,NA,NA,skipped,NA,3121800.7,NA,NA,3121362.8999999,3121800.8,2023-04-18T16:13:26Z,3121859.794,NULL,NA,NA,NA,NA,NA,NA,NA,NA,NA,27,NA,NA,NA,NA,NA,NA,NA,NA,NA,NA,NA,NA,NA,NA,NA,NA,NA,NA,NA
a753a,check continue,flow.Sequence,3_0_28,NA,NA,skipped,NA,3121815.2,NA,NA,3121362.8999999,3121815.3,2023-04-18T16:13:26Z,3121859.794,NULL,NA,NA,NA,NA,NA,NA,NA,NA,NA,28,NA,NA,NA,NA,NA,NA,NA,NA,NA,NA,NA,NA,NA,NA,NA,NA,NA,NA,NA
a753a,check continue,flow.Sequence,3_0_29,NA,NA,skipped,NA,3121832.8,NA,NA,3121362.8999999,3121832.8999999,2023-04-18T16:13:26Z,3121859.794,NULL,NA,NA,NA,NA,NA,NA,NA,NA,NA,29,NA,NA,NA,NA,NA,NA,NA,NA,NA,NA,NA,NA,NA,NA,NA,NA,NA,NA,NA
a753a,until continue,flow.Loop,3_0,NA,NA,completion,525680.41999986,2595650.7,2595665.46,2595682.48,3121362.8999999,3121833,2023-04-18T16:13:26Z,3121859.794,NULL,NA,NA,NA,NA,NA,NA,NA,NA,NA,NA,NA,NA,NA,NA,NA,NA,NA,NA,NA,NA,NA,NA,NA,NA,NA,NA,NA,NA,NA
a753a,block 1,flow.Sequence,3,NA,NA,completion,525680.41999986,2595650.7,2595665.46,2595682.48,3121362.8999999,3121833,2023-04-18T16:13:26Z,3121859.794,NULL,NA,NA,NA,NA,NA,NA,NA,NA,NA,NA,NA,NA,NA,NA,NA,NA,NA,NA,NA,NA,NA,NA,NA,NA,NA,NA,NA,NA,NA
a753a,1.Part Over,canvas.Screen,4,NA,keypress(Space),response,3386.0059999521,3121833.0999999,3121817.798,3121859.794,3125245.8,3125246.8999999,2023-04-18T16:13:29Z,3125314.476,NULL,NA,NA,NA,NA,NA,NA,NA,NA,NA,NA,NA,NA,NA,NA,NA,NA,NA,NA,NA,NA,NA,NA,NA,NA,NA,NA,NA,NA,NA
a753a,Deep Question,html.Page,5_0_0_0_0_0_0,NA,NA,form submission,7752.5240000002,3125308.8,3125297.729,3125314.476,3133067,3133067.2,2023-04-18T16:13:37Z,3133074.725,NULL,Symbol,kielezo,d,NA,NA,NA,dharura,NA,NA,0,NA,NA,NA,NA,NA,NA,NA,NA,NA,NA,NA,NA,NA,NA,NA,NA,NA,NA,NA
a753a,"""Richtig""-Screen",canvas.Screen,5_0_0_0_0_0_1,NA,NA,skipped,NA,3133069.3,NA,NA,3133067,3133069.5,2023-04-18T16:13:37Z,3133074.725,NULL,Symbol,kielezo,d,NA,NA,NA,NA,sdf,NA,0,NA,NA,NA,NA,NA,NA,NA,NA,NA,NA,NA,NA,NA,NA,NA,NA,NA,NA,NA
a753a,"""Falsch""-Screen",canvas.Screen,5_0_0_0_0_0_2,NA,NA,timeout,4995.912,3133069.8999999,3133058.579,3133074.725,3138054.042,3138056.2,2023-04-18T16:13:42Z,3138070.637,NULL,Symbol,kielezo,d,NA,NA,NA,NA,sdf,0,0,NA,NA,NA,NA,NA,NA,NA,NA,NA,NA,NA,NA,NA,NA,NA,NA,NA,NA,NA
a753a,deep,flow.Sequence,5_0_0_0_0_0,NA,NA,completion,12739.566,3125308.8,3125297.729,3125314.476,3138054.042,3138056.3,2023-04-18T16:13:42Z,3138070.637,NULL,Symbol,kielezo,d,NA,NA,NA,NA,sdf,NA,0,NA,NA,NA,NA,NA,NA,NA,NA,NA,NA,NA,NA,NA,NA,NA,NA,NA,NA,NA
a753a,shallow,flow.Sequence,5_0_0_0_0_1,NA,NA,skipped,NA,3138056.3999999,NA,NA,3138054.042,3138056.3999999,2023-04-18T16:13:42Z,3138070.637,NULL,Symbol,kielezo,d,NA,NA,NA,NA,sdf,NA,0,NA,NA,NA,NA,NA,NA,NA,NA,NA,NA,NA,NA,NA,NA,NA,NA,NA,NA,NA
a753a,task,flow.Sequence,5_0_0_0_0,NA,NA,completion,12739.566,3125308.8,3125297.729,3125314.476,3138054.042,3138056.5999999,2023-04-18T16:13:42Z,3138070.637,NULL,Symbol,kielezo,d,NA,NA,NA,NA,sdf,NA,0,NA,NA,NA,NA,NA,NA,NA,NA,NA,NA,NA,NA,NA,NA,NA,NA,NA,NA,NA
a753a,deep,flow.Sequence,5_0_0_0_1_0,NA,NA,skipped,NA,3138056.5999999,NA,NA,3138054.042,3138056.7,2023-04-18T16:13:42Z,3138070.637,NULL,Tester,wanaojaribu,s,sherti,sihiri,mlipuko,NA,sdf,NA,0,NA,NA,NA,NA,NA,NA,NA,NA,NA,NA,NA,NA,NA,NA,NA,NA,NA,NA,NA
a753a,Shallow Question,html.Page,5_0_0_0_1_1_0,NA,NA,form submission,6412.6629999522,3138057,3138054.042,3138070.637,3144483.3,3144483.5,2023-04-18T16:13:48Z,3144498.687,NULL,Tester,wanaojaribu,s,sherti,sihiri,mlipuko,sihiri,NA,NA,0,NA,NA,NA,NA,NA,NA,NA,NA,NA,NA,NA,NA,NA,NA,NA,NA,NA,NA,NA
a753a,"""Richtig""-Screen",canvas.Screen,5_0_0_0_1_1_1,NA,NA,skipped,NA,3144485.5999999,NA,NA,3144483.3,3144485.5999999,2023-04-18T16:13:48Z,3144498.687,NULL,Tester,wanaojaribu,s,sherti,sihiri,mlipuko,NA,sdf,NA,0,NA,NA,NA,NA,NA,NA,NA,NA,NA,NA,NA,NA,NA,NA,NA,NA,NA,NA,NA
a753a,"""Falsch""-Screen",canvas.Screen,5_0_0_0_1_1_2,NA,NA,timeout,4996.4870000002,3144486.2,3144482.011,3144498.687,3149478.402,3149479.3999999,2023-04-18T16:13:53Z,3149495.174,NULL,Tester,wanaojaribu,s,sherti,sihiri,mlipuko,NA,sdf,0,0,NA,NA,NA,NA,NA,NA,NA,NA,NA,NA,NA,NA,NA,NA,NA,NA,NA,NA,NA
a753a,shallow,flow.Sequence,5_0_0_0_1_1,NA,NA,completion,11407.765,3138057,3138054.042,3138070.637,3149478.402,3149479.8999999,2023-04-18T16:13:53Z,3149495.174,NULL,Tester,wanaojaribu,s,sherti,sihiri,mlipuko,NA,sdf,NA,0,NA,NA,NA,NA,NA,NA,NA,NA,NA,NA,NA,NA,NA,NA,NA,NA,NA,NA,NA
a753a,task,flow.Sequence,5_0_0_0_1,NA,NA,completion,11407.765,3138056.5999999,3138054.042,3138070.637,3149478.402,3149480.2,2023-04-18T16:13:53Z,3149495.174,NULL,Tester,wanaojaribu,s,sherti,sihiri,mlipuko,NA,sdf,NA,0,NA,NA,NA,NA,NA,NA,NA,NA,NA,NA,NA,NA,NA,NA,NA,NA,NA,NA,NA
a753a,Deep Question,html.Page,5_0_0_0_2_0_0,NA,NA,form submission,5253.3259999999,3149480.3999999,3149478.402,3149495.174,3154748.5,3154748.7,2023-04-18T16:13:59Z,3154756.961,NULL,Fenster,dirisha,d,NA,NA,NA,wanairi,NA,NA,0,NA,NA,NA,NA,NA,NA,NA,NA,NA,NA,NA,NA,NA,NA,NA,NA,NA,NA,NA
a753a,"""Richtig""-Screen",canvas.Screen,5_0_0_0_2_0_1,NA,NA,skipped,NA,3154750.8,NA,NA,3154748.5,3154751,2023-04-18T16:13:59Z,3154756.961,NULL,Fenster,dirisha,d,NA,NA,NA,NA,sdf,NA,0,NA,NA,NA,NA,NA,NA,NA,NA,NA,NA,NA,NA,NA,NA,NA,NA,NA,NA,NA
a753a,"""Falsch""-Screen",canvas.Screen,5_0_0_0_2_0_2,NA,NA,timeout,4996.3470000001,3154751.5,3154740.889,3154756.961,3159736.249,3159737.3999999,2023-04-18T16:14:04Z,3159753.308,NULL,Fenster,dirisha,d,NA,NA,NA,NA,sdf,0,0,NA,NA,NA,NA,NA,NA,NA,NA,NA,NA,NA,NA,NA,NA,NA,NA,NA,NA,NA
a753a,deep,flow.Sequence,5_0_0_0_2_0,NA,NA,completion,10241.075,3149480.3999999,3149478.402,3149495.174,3159736.249,3159737.5999999,2023-04-18T16:14:04Z,3159753.308,NULL,Fenster,dirisha,d,NA,NA,NA,NA,sdf,NA,0,NA,NA,NA,NA,NA,NA,NA,NA,NA,NA,NA,NA,NA,NA,NA,NA,NA,NA,NA
a753a,shallow,flow.Sequence,5_0_0_0_2_1,NA,NA,skipped,NA,3159737.7,NA,NA,3159736.249,3159737.8,2023-04-18T16:14:04Z,3159753.308,NULL,Fenster,dirisha,d,NA,NA,NA,NA,sdf,NA,0,NA,NA,NA,NA,NA,NA,NA,NA,NA,NA,NA,NA,NA,NA,NA,NA,NA,NA,NA
a753a,task,flow.Sequence,5_0_0_0_2,NA,NA,completion,10241.075,3149480.3999999,3149478.402,3149495.174,3159736.249,3159737.8999999,2023-04-18T16:14:04Z,3159753.308,NULL,Fenster,dirisha,d,NA,NA,NA,NA,sdf,NA,0,NA,NA,NA,NA,NA,NA,NA,NA,NA,NA,NA,NA,NA,NA,NA,NA,NA,NA,NA
a753a,Deep Question,html.Page,5_0_0_0_3_0_0,NA,NA,form submission,4020.9919999521,3159738.2,3159736.249,3159753.308,3163774.3,3163774.5,2023-04-18T16:14:08Z,3163782.891,NULL,Spionage,upelelezi,d,NA,NA,NA,ko,NA,NA,0,NA,NA,NA,NA,NA,NA,NA,NA,NA,NA,NA,NA,NA,NA,NA,NA,NA,NA,NA
a753a,"""Richtig""-Screen",canvas.Screen,5_0_0_0_3_0_1,NA,NA,skipped,NA,3163776.3999999,NA,NA,3163774.3,3163776.5999999,2023-04-18T16:14:08Z,3163782.891,NULL,Spionage,upelelezi,d,NA,NA,NA,NA,sdf,NA,0,NA,NA,NA,NA,NA,NA,NA,NA,NA,NA,NA,NA,NA,NA,NA,NA,NA,NA,NA
a753a,"""Falsch""-Screen",canvas.Screen,5_0_0_0_3_0_2,NA,NA,timeout,4996.2200000002,3163777.0999999,3163766.612,3163782.891,3168762.337,3168763.3999999,2023-04-18T16:14:13Z,3168779.111,NULL,Spionage,upelelezi,d,NA,NA,NA,NA,sdf,0,0,NA,NA,NA,NA,NA,NA,NA,NA,NA,NA,NA,NA,NA,NA,NA,NA,NA,NA,NA
a753a,deep,flow.Sequence,5_0_0_0_3_0,NA,NA,completion,9009.0289999996,3159738.0999999,3159736.249,3159753.308,3168762.337,3168763.8999999,2023-04-18T16:14:13Z,3168779.111,NULL,Spionage,upelelezi,d,NA,NA,NA,NA,sdf,NA,0,NA,NA,NA,NA,NA,NA,NA,NA,NA,NA,NA,NA,NA,NA,NA,NA,NA,NA,NA
a753a,shallow,flow.Sequence,5_0_0_0_3_1,NA,NA,skipped,NA,3168764.0999999,NA,NA,3168762.337,3168764.2,2023-04-18T16:14:13Z,3168779.111,NULL,Spionage,upelelezi,d,NA,NA,NA,NA,sdf,NA,0,NA,NA,NA,NA,NA,NA,NA,NA,NA,NA,NA,NA,NA,NA,NA,NA,NA,NA,NA
a753a,task,flow.Sequence,5_0_0_0_3,NA,NA,completion,9009.0289999996,3159738,3159736.249,3159753.308,3168762.337,3168764.3999999,2023-04-18T16:14:13Z,3168779.111,NULL,Spionage,upelelezi,d,NA,NA,NA,NA,sdf,NA,0,NA,NA,NA,NA,NA,NA,NA,NA,NA,NA,NA,NA,NA,NA,NA,NA,NA,NA,NA
a753a,deep,flow.Sequence,5_0_0_0_4_0,NA,NA,skipped,NA,3168764.7,NA,NA,3168762.337,3168764.7,2023-04-18T16:14:13Z,3168779.111,NULL,Konkurrent,mshindani,s,msemaji,mvutaji,kipukusa,NA,sdf,NA,0,NA,NA,NA,NA,NA,NA,NA,NA,NA,NA,NA,NA,NA,NA,NA,NA,NA,NA,NA
a753a,Shallow Question,html.Page,5_0_0_0_4_1_0,NA,NA,form submission,4328.5890000477,3168764.8999999,3168762.337,3168779.111,3173107.7,3173107.8999999,2023-04-18T16:14:17Z,3173108.556,NULL,Konkurrent,mshindani,s,msemaji,mvutaji,kipukusa,kipukusa,NA,NA,0,NA,NA,NA,NA,NA,NA,NA,NA,NA,NA,NA,NA,NA,NA,NA,NA,NA,NA,NA
a753a,"""Richtig""-Screen",canvas.Screen,5_0_0_0_4_1_1,NA,NA,skipped,NA,3173109.7,NA,NA,3173107.7,3173109.8999999,2023-04-18T16:14:17Z,3173108.556,NULL,Konkurrent,mshindani,s,msemaji,mvutaji,kipukusa,NA,sdf,NA,0,NA,NA,NA,NA,NA,NA,NA,NA,NA,NA,NA,NA,NA,NA,NA,NA,NA,NA,NA
a753a,"""Falsch""-Screen",canvas.Screen,5_0_0_0_4_1_2,NA,NA,timeout,4996.2680000002,3173110.3,3173092.52,3173108.556,3178088.372,3178089.5,2023-04-18T16:14:22Z,3178104.824,NULL,Konkurrent,mshindani,s,msemaji,mvutaji,kipukusa,NA,sdf,0,0,NA,NA,NA,NA,NA,NA,NA,NA,NA,NA,NA,NA,NA,NA,NA,NA,NA,NA,NA
a753a,shallow,flow.Sequence,5_0_0_0_4_1,NA,NA,completion,9309.2609999999,3168764.8,3168762.337,3168779.111,3178088.372,3178090,2023-04-18T16:14:22Z,3178104.824,NULL,Konkurrent,mshindani,s,msemaji,mvutaji,kipukusa,NA,sdf,NA,0,NA,NA,NA,NA,NA,NA,NA,NA,NA,NA,NA,NA,NA,NA,NA,NA,NA,NA,NA
a753a,task,flow.Sequence,5_0_0_0_4,NA,NA,completion,9309.2609999999,3168764.5,3168762.337,3168779.111,3178088.372,3178090.3,2023-04-18T16:14:22Z,3178104.824,NULL,Konkurrent,mshindani,s,msemaji,mvutaji,kipukusa,NA,sdf,NA,0,NA,NA,NA,NA,NA,NA,NA,NA,NA,NA,NA,NA,NA,NA,NA,NA,NA,NA,NA
a753a,deep,flow.Sequence,5_0_0_0_5_0,NA,NA,skipped,NA,3178090.5,NA,NA,3178088.372,3178090.7,2023-04-18T16:14:22Z,3178104.824,NULL,Schüler,mwanafunzi,s,mwekezaji,matumizi,uaminifu,NA,sdf,NA,0,NA,NA,NA,NA,NA,NA,NA,NA,NA,NA,NA,NA,NA,NA,NA,NA,NA,NA,NA
a753a,Shallow Question,html.Page,5_0_0_0_5_1_0,NA,NA,form submission,2963.9759999523,3178090.8,3178088.372,3178104.824,3181068.8,3181069.0999999,2023-04-18T16:14:25Z,3181091.625,NULL,Schüler,mwanafunzi,s,mwekezaji,matumizi,uaminifu,matumizi,NA,NA,0,NA,NA,NA,NA,NA,NA,NA,NA,NA,NA,NA,NA,NA,NA,NA,NA,NA,NA,NA
a753a,"""Richtig""-Screen",canvas.Screen,5_0_0_0_5_1_1,NA,NA,skipped,NA,3181071.0999999,NA,NA,3181068.8,3181071.2,2023-04-18T16:14:25Z,3181091.625,NULL,Schüler,mwanafunzi,s,mwekezaji,matumizi,uaminifu,NA,sdf,NA,0,NA,NA,NA,NA,NA,NA,NA,NA,NA,NA,NA,NA,NA,NA,NA,NA,NA,NA,NA
a753a,"""Falsch""-Screen",canvas.Screen,5_0_0_0_5_1_2,NA,NA,timeout,5006.2549999999,3181071.8,3181052.454,3181091.625,3186081.812,3186082.8,2023-04-18T16:14:30Z,3186097.88,NULL,Schüler,mwanafunzi,s,mwekezaji,matumizi,uaminifu,NA,sdf,0,0,NA,NA,NA,NA,NA,NA,NA,NA,NA,NA,NA,NA,NA,NA,NA,NA,NA,NA,NA
a753a,shallow,flow.Sequence,5_0_0_0_5_1,NA,NA,completion,7976.9879999999,3178090.8,3178088.372,3178104.824,3186081.812,3186083.0999999,2023-04-18T16:14:30Z,3186097.88,NULL,Schüler,mwanafunzi,s,mwekezaji,matumizi,uaminifu,NA,sdf,NA,0,NA,NA,NA,NA,NA,NA,NA,NA,NA,NA,NA,NA,NA,NA,NA,NA,NA,NA,NA
a753a,task,flow.Sequence,5_0_0_0_5,NA,NA,completion,7976.9879999999,3178090.3999999,3178088.372,3178104.824,3186081.812,3186083.5,2023-04-18T16:14:30Z,3186097.88,NULL,Schüler,mwanafunzi,s,mwekezaji,matumizi,uaminifu,NA,sdf,NA,0,NA,NA,NA,NA,NA,NA,NA,NA,NA,NA,NA,NA,NA,NA,NA,NA,NA,NA,NA
a753a,Deep Question,html.Page,5_0_0_0_6_0_0,NA,NA,form submission,4305.0199998571,3186083.7,3186081.812,3186097.88,3190402.8999999,3190403.2,2023-04-18T16:14:34Z,3190411.023,NULL,Zuwachs,nyongeza,d,NA,NA,NA,lol,NA,NA,0,NA,NA,NA,NA,NA,NA,NA,NA,NA,NA,NA,NA,NA,NA,NA,NA,NA,NA,NA
a753a,"""Richtig""-Screen",canvas.Screen,5_0_0_0_6_0_1,NA,NA,skipped,NA,3190405.3999999,NA,NA,3190402.8999999,3190405.5,2023-04-18T16:14:34Z,3190411.023,NULL,Zuwachs,nyongeza,d,NA,NA,NA,NA,sdf,NA,0,NA,NA,NA,NA,NA,NA,NA,NA,NA,NA,NA,NA,NA,NA,NA,NA,NA,NA,NA
a753a,"""Falsch""-Screen",canvas.Screen,5_0_0_0_6_0_2,NA,NA,timeout,4995.8799999999,3190406.0999999,3190394.738,3190411.023,3195390.522,3195391.3,2023-04-18T16:14:39Z,3195406.903,NULL,Zuwachs,nyongeza,d,NA,NA,NA,NA,sdf,0,0,NA,NA,NA,NA,NA,NA,NA,NA,NA,NA,NA,NA,NA,NA,NA,NA,NA,NA,NA
a753a,deep,flow.Sequence,5_0_0_0_6_0,NA,NA,completion,9292.642,3186083.7,3186081.812,3186097.88,3195390.522,3195391.8,2023-04-18T16:14:39Z,3195406.903,NULL,Zuwachs,nyongeza,d,NA,NA,NA,NA,sdf,NA,0,NA,NA,NA,NA,NA,NA,NA,NA,NA,NA,NA,NA,NA,NA,NA,NA,NA,NA,NA
a753a,shallow,flow.Sequence,5_0_0_0_6_1,NA,NA,skipped,NA,3195391.8999999,NA,NA,3195390.522,3195392.0999999,2023-04-18T16:14:39Z,3195406.903,NULL,Zuwachs,nyongeza,d,NA,NA,NA,NA,sdf,NA,0,NA,NA,NA,NA,NA,NA,NA,NA,NA,NA,NA,NA,NA,NA,NA,NA,NA,NA,NA
a753a,task,flow.Sequence,5_0_0_0_6,NA,NA,completion,9292.642,3186083.5999999,3186081.812,3186097.88,3195390.522,3195392.3,2023-04-18T16:14:39Z,3195406.903,NULL,Zuwachs,nyongeza,d,NA,NA,NA,NA,sdf,NA,0,NA,NA,NA,NA,NA,NA,NA,NA,NA,NA,NA,NA,NA,NA,NA,NA,NA,NA,NA
