observation,sender,sender_type,sender_id,response,response_action,ended_on,duration,time_run,time_render,time_show,time_end,time_commit,timestamp,time_switch,distractors,german,swahili,enc,distractor1,distractor2,distractor3,response_2,x,correct,x_2,url_vp,url_sess,meta_labjs_version,meta_location,meta_user_agent,meta_platform,meta_language,meta_locale,meta_time_zone,meta_timezone_offset,meta_screen_width,meta_screen_height,meta_scroll_width,meta_scroll_height,meta_window_inner_width,meta_window_inner_height,meta_device_pixel_ratio,meta_labjs_build_flavor,meta_labjs_build_commit
9df3d,Introduction general,canvas.Screen,0,weiter,keypress(q),response,575163.8,511.20000000112,507.4,524.1,575687.9,575693.6,2025-01-29T17:18:23Z,575713.6,NULL,NA,NA,NA,NA,NA,NA,NA,NA,NA,NA,166,3,20.2.4,https://neurocog.fernuni.ch/studies/vweber/encoding_immediate/index.html?vp=166&sess=3,"Mozilla/5.0 (Macintosh; Intel Mac OS X 10_15_7) AppleWebKit/537.36 (KHTML, like Gecko) Chrome/132.0.0.0 Safari/537.36",MacIntel,de-DE,de,Europe/Zurich,-60,1440,900,1440,557,1440,605,2,production,f5b4a49f956347addd546a832a3327688c2c0fef
9df3d,Introduction practice,canvas.Screen,1_0,NA,keypress(Space),response,2450.4,575694.1,575680.244,575713.6,578164,578166.5,2025-01-29T17:18:25Z,578180.2,NULL,NA,NA,NA,NA,NA,NA,NA,NA,NA,NA,NA,NA,NA,NA,NA,NA,NA,NA,NA,NA,NA,NA,NA,NA,NA,NA,NA,NA,NA
9df3d,Deep Question,html.Page,1_1_0_0_0,NA,NA,form submission,1659.4000000015,578166.8,578163.624,578180.2,579839.6,579840.1,2025-01-29T17:18:27Z,579846.9,"c(""distractor1"", ""distractor2"", ""distractor3"")",Schatten,kivuli,d,NA,NA,NA,f,NA,NA,NA,NA,NA,NA,NA,NA,NA,NA,NA,NA,NA,NA,NA,NA,NA,NA,NA,NA,NA,NA
9df3d,"""Richtig""-Screen",canvas.Screen,1_1_0_0_1,NA,NA,skipped,NA,579841.9,NA,NA,579839.6,579842.1,2025-01-29T17:18:27Z,579846.9,"c(""distractor1"", ""distractor2"", ""distractor3"")",Schatten,kivuli,d,NA,NA,NA,NA,NA,NA,NA,NA,NA,NA,NA,NA,NA,NA,NA,NA,NA,NA,NA,NA,NA,NA,NA,NA,NA,NA
9df3d,"""Falsch""-Screen",canvas.Screen,1_1_0_0_2,NA,NA,timeout,4999.9,579843.1,579830.3,579846.9,584830.1,584831.4,2025-01-29T17:18:32Z,584846.8,"c(""distractor1"", ""distractor2"", ""distractor3"")",Schatten,kivuli,d,NA,NA,NA,NA,NA,0,NA,NA,NA,NA,NA,NA,NA,NA,NA,NA,NA,NA,NA,NA,NA,NA,NA,NA,NA,NA
9df3d,deep,flow.Sequence,1_1_0_0,NA,NA,completion,6649.9,578166.8,578163.624,578180.2,584830.1,584831.9,2025-01-29T17:18:32Z,584846.8,"c(""distractor1"", ""distractor2"", ""distractor3"")",Schatten,kivuli,d,NA,NA,NA,NA,NA,NA,NA,NA,NA,NA,NA,NA,NA,NA,NA,NA,NA,NA,NA,NA,NA,NA,NA,NA,NA,NA
9df3d,shallow,flow.Sequence,1_1_0_1,NA,NA,skipped,NA,584832,NA,NA,584830.1,584832.1,2025-01-29T17:18:32Z,584846.8,"c(""distractor1"", ""distractor2"", ""distractor3"")",Schatten,kivuli,d,NA,NA,NA,NA,NA,NA,NA,NA,NA,NA,NA,NA,NA,NA,NA,NA,NA,NA,NA,NA,NA,NA,NA,NA,NA,NA
9df3d,task,flow.Sequence,1_1_0,NA,NA,completion,6649.9,578166.7,578163.624,578180.2,584830.1,584832.4,2025-01-29T17:18:32Z,584846.8,"c(""distractor1"", ""distractor2"", ""distractor3"")",Schatten,kivuli,d,NA,NA,NA,NA,NA,NA,NA,NA,NA,NA,NA,NA,NA,NA,NA,NA,NA,NA,NA,NA,NA,NA,NA,NA,NA,NA
9df3d,deep,flow.Sequence,1_1_1_0,NA,NA,skipped,NA,584832.5,NA,NA,584830.1,584832.6,2025-01-29T17:18:32Z,584846.8,"c(""distractor1"", ""distractor2"", ""distractor3"")",Gegenwart,hadhara,s,katiba,jokofu,mikopo,NA,NA,NA,NA,NA,NA,NA,NA,NA,NA,NA,NA,NA,NA,NA,NA,NA,NA,NA,NA,NA,NA,NA
9df3d,Shallow Question,html.Page,1_1_1_1_0,NA,NA,form submission,1622.5000000007,584832.8,584830.1,584846.8,586469.3,586469.9,2025-01-29T17:18:33Z,586480.3,"c(""distractor1"", ""distractor2"", ""distractor3"")",Gegenwart,hadhara,s,katiba,jokofu,mikopo,hadhara,NA,NA,NA,NA,NA,NA,NA,NA,NA,NA,NA,NA,NA,NA,NA,NA,NA,NA,NA,NA,NA,NA
9df3d,"""Richtig""-Screen",canvas.Screen,1_1_1_1_1,NA,NA,timeout,4999.8999999999,586471.7,586463.752,586480.3,591463.4,591464.5,2025-01-29T17:18:38Z,591480.2,"c(""distractor1"", ""distractor2"", ""distractor3"")",Gegenwart,hadhara,s,katiba,jokofu,mikopo,NA,NA,1,NA,NA,NA,NA,NA,NA,NA,NA,NA,NA,NA,NA,NA,NA,NA,NA,NA,NA,NA,NA
9df3d,"""Falsch""-Screen",canvas.Screen,1_1_1_1_2,NA,NA,skipped,NA,591466.2,NA,NA,591463.4,591466.5,2025-01-29T17:18:38Z,591480.2,"c(""distractor1"", ""distractor2"", ""distractor3"")",Gegenwart,hadhara,s,katiba,jokofu,mikopo,NA,NA,NA,NA,NA,NA,NA,NA,NA,NA,NA,NA,NA,NA,NA,NA,NA,NA,NA,NA,NA,NA,NA
9df3d,shallow,flow.Sequence,1_1_1_1,NA,NA,completion,6616.6,584832.7,584830.1,584846.8,591463.4,591466.7,2025-01-29T17:18:38Z,591480.2,"c(""distractor1"", ""distractor2"", ""distractor3"")",Gegenwart,hadhara,s,katiba,jokofu,mikopo,NA,NA,NA,NA,NA,NA,NA,NA,NA,NA,NA,NA,NA,NA,NA,NA,NA,NA,NA,NA,NA,NA,NA
9df3d,task,flow.Sequence,1_1_1,NA,NA,completion,6616.6,584832.5,584830.1,584846.8,591463.4,591466.7,2025-01-29T17:18:38Z,591480.2,"c(""distractor1"", ""distractor2"", ""distractor3"")",Gegenwart,hadhara,s,katiba,jokofu,mikopo,NA,NA,NA,NA,NA,NA,NA,NA,NA,NA,NA,NA,NA,NA,NA,NA,NA,NA,NA,NA,NA,NA,NA
9df3d,deep,flow.Sequence,1_1_2_0,NA,NA,skipped,NA,591466.8,NA,NA,591463.4,591467,2025-01-29T17:18:38Z,591480.2,"c(""distractor1"", ""distractor2"", ""distractor3"")",Rückhalt,msaada,s,muhula,auwali,kiwimbe,NA,NA,NA,NA,NA,NA,NA,NA,NA,NA,NA,NA,NA,NA,NA,NA,NA,NA,NA,NA,NA,NA,NA
9df3d,Shallow Question,html.Page,1_1_2_1_0,NA,NA,form submission,2604.5000000012,591467,591463.4,591480.2,594084.7,594085,2025-01-29T17:18:41Z,594096.7,"c(""distractor1"", ""distractor2"", ""distractor3"")",Rückhalt,msaada,s,muhula,auwali,kiwimbe,msaada,NA,NA,NA,NA,NA,NA,NA,NA,NA,NA,NA,NA,NA,NA,NA,NA,NA,NA,NA,NA,NA,NA
9df3d,"""Richtig""-Screen",canvas.Screen,1_1_2_1_1,NA,NA,timeout,4999.2000000001,594086.1,594080.49,594096.7,599080.3,599081.2,2025-01-29T17:18:46Z,599095.9,"c(""distractor1"", ""distractor2"", ""distractor3"")",Rückhalt,msaada,s,muhula,auwali,kiwimbe,NA,NA,1,NA,NA,NA,NA,NA,NA,NA,NA,NA,NA,NA,NA,NA,NA,NA,NA,NA,NA,NA,NA
9df3d,"""Falsch""-Screen",canvas.Screen,1_1_2_1_2,NA,NA,skipped,NA,599083.7,NA,NA,599080.3,599083.8,2025-01-29T17:18:46Z,599095.9,"c(""distractor1"", ""distractor2"", ""distractor3"")",Rückhalt,msaada,s,muhula,auwali,kiwimbe,NA,NA,NA,NA,NA,NA,NA,NA,NA,NA,NA,NA,NA,NA,NA,NA,NA,NA,NA,NA,NA,NA,NA
9df3d,shallow,flow.Sequence,1_1_2_1,NA,NA,completion,7600.1000000001,591467,591463.4,591480.2,599080.3,599084,2025-01-29T17:18:46Z,599095.9,"c(""distractor1"", ""distractor2"", ""distractor3"")",Rückhalt,msaada,s,muhula,auwali,kiwimbe,NA,NA,NA,NA,NA,NA,NA,NA,NA,NA,NA,NA,NA,NA,NA,NA,NA,NA,NA,NA,NA,NA,NA
9df3d,task,flow.Sequence,1_1_2,NA,NA,completion,7600.1000000001,591466.8,591463.4,591480.2,599080.3,599084.1,2025-01-29T17:18:46Z,599095.9,"c(""distractor1"", ""distractor2"", ""distractor3"")",Rückhalt,msaada,s,muhula,auwali,kiwimbe,NA,NA,NA,NA,NA,NA,NA,NA,NA,NA,NA,NA,NA,NA,NA,NA,NA,NA,NA,NA,NA,NA,NA
9df3d,deep,flow.Sequence,1_1_3_0,NA,NA,skipped,NA,599084.3,NA,NA,599080.3,599084.4,2025-01-29T17:18:46Z,599095.9,"c(""distractor1"", ""distractor2"", ""distractor3"")",Kritik,lawama,s,dereva,nafasi,mawazo,NA,NA,NA,NA,NA,NA,NA,NA,NA,NA,NA,NA,NA,NA,NA,NA,NA,NA,NA,NA,NA,NA,NA
9df3d,Shallow Question,html.Page,1_1_3_1_0,NA,NA,form submission,1137.8000000011,599084.5,599080.3,599095.9,600233.7,600234.1,2025-01-29T17:18:47Z,600247.1,"c(""distractor1"", ""distractor2"", ""distractor3"")",Kritik,lawama,s,dereva,nafasi,mawazo,lawama,NA,NA,NA,NA,NA,NA,NA,NA,NA,NA,NA,NA,NA,NA,NA,NA,NA,NA,NA,NA,NA,NA
9df3d,"""Richtig""-Screen",canvas.Screen,1_1_3_1_1,NA,NA,timeout,4999.7000000001,600235.8,600230.496,600247.1,605230.3,605231.4,2025-01-29T17:18:52Z,605246.8,"c(""distractor1"", ""distractor2"", ""distractor3"")",Kritik,lawama,s,dereva,nafasi,mawazo,NA,NA,1,NA,NA,NA,NA,NA,NA,NA,NA,NA,NA,NA,NA,NA,NA,NA,NA,NA,NA,NA,NA
9df3d,"""Falsch""-Screen",canvas.Screen,1_1_3_1_2,NA,NA,skipped,NA,605233.2,NA,NA,605230.3,605233.3,2025-01-29T17:18:52Z,605246.8,"c(""distractor1"", ""distractor2"", ""distractor3"")",Kritik,lawama,s,dereva,nafasi,mawazo,NA,NA,NA,NA,NA,NA,NA,NA,NA,NA,NA,NA,NA,NA,NA,NA,NA,NA,NA,NA,NA,NA,NA
9df3d,shallow,flow.Sequence,1_1_3_1,NA,NA,completion,6134.4,599084.5,599080.3,599095.9,605230.3,605233.5,2025-01-29T17:18:52Z,605246.8,"c(""distractor1"", ""distractor2"", ""distractor3"")",Kritik,lawama,s,dereva,nafasi,mawazo,NA,NA,NA,NA,NA,NA,NA,NA,NA,NA,NA,NA,NA,NA,NA,NA,NA,NA,NA,NA,NA,NA,NA
9df3d,task,flow.Sequence,1_1_3,NA,NA,completion,6134.4,599084.3,599080.3,599095.9,605230.3,605233.6,2025-01-29T17:18:52Z,605246.8,"c(""distractor1"", ""distractor2"", ""distractor3"")",Kritik,lawama,s,dereva,nafasi,mawazo,NA,NA,NA,NA,NA,NA,NA,NA,NA,NA,NA,NA,NA,NA,NA,NA,NA,NA,NA,NA,NA,NA,NA
9df3d,Deep Question,html.Page,1_1_4_0_0,NA,NA,form submission,1580.8000000014,605233.7,605230.3,605246.8,606827.6,606828,2025-01-29T17:18:54Z,606830.6,"c(""distractor1"", ""distractor2"", ""distractor3"")",Gesundheit,salama,d,NA,NA,NA,sdf,NA,NA,NA,NA,NA,NA,NA,NA,NA,NA,NA,NA,NA,NA,NA,NA,NA,NA,NA,NA,NA,NA
9df3d,"""Richtig""-Screen",canvas.Screen,1_1_4_0_1,NA,NA,skipped,NA,606829.4,NA,NA,606827.6,606829.4,2025-01-29T17:18:54Z,606830.6,"c(""distractor1"", ""distractor2"", ""distractor3"")",Gesundheit,salama,d,NA,NA,NA,NA,NA,NA,NA,NA,NA,NA,NA,NA,NA,NA,NA,NA,NA,NA,NA,NA,NA,NA,NA,NA,NA,NA
9df3d,"""Falsch""-Screen",canvas.Screen,1_1_4_0_2,NA,NA,timeout,4998.9,606830.2,606830.564,606830.6,611813.7,611814.7,2025-01-29T17:18:59Z,611829.5,"c(""distractor1"", ""distractor2"", ""distractor3"")",Gesundheit,salama,d,NA,NA,NA,NA,NA,0,NA,NA,NA,NA,NA,NA,NA,NA,NA,NA,NA,NA,NA,NA,NA,NA,NA,NA,NA,NA
9df3d,deep,flow.Sequence,1_1_4_0,NA,NA,completion,6566.8999999999,605233.6,605230.3,605246.8,611813.7,611815.1,2025-01-29T17:18:59Z,611829.5,"c(""distractor1"", ""distractor2"", ""distractor3"")",Gesundheit,salama,d,NA,NA,NA,NA,NA,NA,NA,NA,NA,NA,NA,NA,NA,NA,NA,NA,NA,NA,NA,NA,NA,NA,NA,NA,NA,NA
9df3d,shallow,flow.Sequence,1_1_4_1,NA,NA,skipped,NA,611815.2,NA,NA,611813.7,611815.4,2025-01-29T17:18:59Z,611829.5,"c(""distractor1"", ""distractor2"", ""distractor3"")",Gesundheit,salama,d,NA,NA,NA,NA,NA,NA,NA,NA,NA,NA,NA,NA,NA,NA,NA,NA,NA,NA,NA,NA,NA,NA,NA,NA,NA,NA
9df3d,task,flow.Sequence,1_1_4,NA,NA,completion,6566.8999999999,605233.6,605230.3,605246.8,611813.7,611815.5,2025-01-29T17:18:59Z,611829.5,"c(""distractor1"", ""distractor2"", ""distractor3"")",Gesundheit,salama,d,NA,NA,NA,NA,NA,NA,NA,NA,NA,NA,NA,NA,NA,NA,NA,NA,NA,NA,NA,NA,NA,NA,NA,NA,NA,NA
9df3d,Deep Question,html.Page,1_1_5_0_0,NA,NA,form submission,905,611815.6,611813.7,611829.5,612734.5,612734.9,2025-01-29T17:19:00Z,612747.3,"c(""distractor1"", ""distractor2"", ""distractor3"")",Qualität,mtindo,d,NA,NA,NA,sdf,NA,NA,NA,NA,NA,NA,NA,NA,NA,NA,NA,NA,NA,NA,NA,NA,NA,NA,NA,NA,NA,NA
9df3d,"""Richtig""-Screen",canvas.Screen,1_1_5_0_1,NA,NA,skipped,NA,612735.9,NA,NA,612734.5,612736,2025-01-29T17:19:00Z,612747.3,"c(""distractor1"", ""distractor2"", ""distractor3"")",Qualität,mtindo,d,NA,NA,NA,NA,NA,NA,NA,NA,NA,NA,NA,NA,NA,NA,NA,NA,NA,NA,NA,NA,NA,NA,NA,NA,NA,NA
9df3d,"""Falsch""-Screen",canvas.Screen,1_1_5_0_2,NA,NA,timeout,4999.7999999999,612736.6,612730.696,612747.3,617730.4,617731.5,2025-01-29T17:19:05Z,617747.1,"c(""distractor1"", ""distractor2"", ""distractor3"")",Qualität,mtindo,d,NA,NA,NA,NA,NA,0,NA,NA,NA,NA,NA,NA,NA,NA,NA,NA,NA,NA,NA,NA,NA,NA,NA,NA,NA,NA
9df3d,deep,flow.Sequence,1_1_5_0,NA,NA,completion,5900.9,611815.6,611813.7,611829.5,617730.4,617731.8,2025-01-29T17:19:05Z,617747.1,"c(""distractor1"", ""distractor2"", ""distractor3"")",Qualität,mtindo,d,NA,NA,NA,NA,NA,NA,NA,NA,NA,NA,NA,NA,NA,NA,NA,NA,NA,NA,NA,NA,NA,NA,NA,NA,NA,NA
9df3d,shallow,flow.Sequence,1_1_5_1,NA,NA,skipped,NA,617732,NA,NA,617730.4,617732.1,2025-01-29T17:19:05Z,617747.1,"c(""distractor1"", ""distractor2"", ""distractor3"")",Qualität,mtindo,d,NA,NA,NA,NA,NA,NA,NA,NA,NA,NA,NA,NA,NA,NA,NA,NA,NA,NA,NA,NA,NA,NA,NA,NA,NA,NA
9df3d,task,flow.Sequence,1_1_5,NA,NA,completion,5900.9,611815.6,611813.7,611829.5,617730.4,617732.2,2025-01-29T17:19:05Z,617747.1,"c(""distractor1"", ""distractor2"", ""distractor3"")",Qualität,mtindo,d,NA,NA,NA,NA,NA,NA,NA,NA,NA,NA,NA,NA,NA,NA,NA,NA,NA,NA,NA,NA,NA,NA,NA,NA,NA,NA
9df3d,block,flow.Loop,1_1,NA,NA,completion,39550.2,578166.7,578163.624,578180.2,617730.4,617732.5,2025-01-29T17:19:05Z,617747.1,"c(""distractor1"", ""distractor2"", ""distractor3"")",NA,NA,NA,NA,NA,NA,NA,NA,NA,NA,NA,NA,NA,NA,NA,NA,NA,NA,NA,NA,NA,NA,NA,NA,NA,NA,NA,NA,NA
9df3d,Practice,flow.Sequence,1,NA,NA,completion,42016.8,575694.1,575680.244,575713.6,617730.4,617732.8,2025-01-29T17:19:05Z,617747.1,NULL,NA,NA,NA,NA,NA,NA,NA,NA,NA,NA,NA,NA,NA,NA,NA,NA,NA,NA,NA,NA,NA,NA,NA,NA,NA,NA,NA,NA,NA
9df3d,Experiment start,canvas.Screen,2,weiter,keypress(q),response,1937.8000000004,617732.9,617730.4,617747.1,619684.9,619688.2,2025-01-29T17:19:07Z,619747.2,NULL,NA,NA,NA,NA,NA,NA,NA,NA,NA,NA,NA,NA,NA,NA,NA,NA,NA,NA,NA,NA,NA,NA,NA,NA,NA,NA,NA,NA,NA
9df3d,Deep Question,html.Page,3_0_0_0_0_0_0,NA,NA,form submission,1155.4000000015,619723.2,619713.9,619747.2,620902.6,620903.1,2025-01-29T17:19:08Z,620914,NULL,Vermutung,udhanifu,d,NA,NA,NA,df,NA,NA,0,NA,NA,NA,NA,NA,NA,NA,NA,NA,NA,NA,NA,NA,NA,NA,NA,NA,NA,NA
9df3d,"""Richtig""-Screen",canvas.Screen,3_0_0_0_0_0_1,NA,NA,skipped,NA,620904.6,NA,NA,620902.6,620904.7,2025-01-29T17:19:08Z,620914,NULL,Vermutung,udhanifu,d,NA,NA,NA,NA,sdf,NA,0,NA,NA,NA,NA,NA,NA,NA,NA,NA,NA,NA,NA,NA,NA,NA,NA,NA,NA,NA
9df3d,"""Falsch""-Screen",canvas.Screen,3_0_0_0_0_0_2,NA,NA,timeout,4999.9,620905.4,620897.424,620914,625897.2,625898.2,2025-01-29T17:19:13Z,625913.9,NULL,Vermutung,udhanifu,d,NA,NA,NA,NA,sdf,0,0,NA,NA,NA,NA,NA,NA,NA,NA,NA,NA,NA,NA,NA,NA,NA,NA,NA,NA,NA
9df3d,deep,flow.Sequence,3_0_0_0_0_0,NA,NA,completion,6150,619723.2,619713.9,619747.2,625897.2,625898.5,2025-01-29T17:19:13Z,625913.9,NULL,Vermutung,udhanifu,d,NA,NA,NA,NA,sdf,NA,0,NA,NA,NA,NA,NA,NA,NA,NA,NA,NA,NA,NA,NA,NA,NA,NA,NA,NA,NA
9df3d,shallow,flow.Sequence,3_0_0_0_0_1,NA,NA,skipped,NA,625898.7,NA,NA,625897.2,625898.7,2025-01-29T17:19:13Z,625913.9,NULL,Vermutung,udhanifu,d,NA,NA,NA,NA,sdf,NA,0,NA,NA,NA,NA,NA,NA,NA,NA,NA,NA,NA,NA,NA,NA,NA,NA,NA,NA,NA
9df3d,task,flow.Sequence,3_0_0_0_0,NA,NA,completion,6150,619723.2,619713.9,619747.2,625897.2,625899,2025-01-29T17:19:13Z,625913.9,NULL,Vermutung,udhanifu,d,NA,NA,NA,NA,sdf,NA,0,NA,NA,NA,NA,NA,NA,NA,NA,NA,NA,NA,NA,NA,NA,NA,NA,NA,NA,NA
9df3d,Deep Question,html.Page,3_0_0_0_1_0_0,NA,NA,form submission,1317.2000000015,625899.1,625897.2,625913.9,627231.1,627231.5,2025-01-29T17:19:14Z,627247.5,NULL,Beweis,ushahidi,d,NA,NA,NA,dsf,NA,NA,0,NA,NA,NA,NA,NA,NA,NA,NA,NA,NA,NA,NA,NA,NA,NA,NA,NA,NA,NA
9df3d,"""Richtig""-Screen",canvas.Screen,3_0_0_0_1_0_1,NA,NA,skipped,NA,627232.6,NA,NA,627231.1,627232.7,2025-01-29T17:19:14Z,627247.5,NULL,Beweis,ushahidi,d,NA,NA,NA,NA,sdf,NA,0,NA,NA,NA,NA,NA,NA,NA,NA,NA,NA,NA,NA,NA,NA,NA,NA,NA,NA,NA
9df3d,"""Falsch""-Screen",canvas.Screen,3_0_0_0_1_0_2,NA,NA,timeout,4999.7,627233.3,627230.784,627247.5,632230.6,632231.2,2025-01-29T17:19:19Z,632247.2,NULL,Beweis,ushahidi,d,NA,NA,NA,NA,sdf,0,0,NA,NA,NA,NA,NA,NA,NA,NA,NA,NA,NA,NA,NA,NA,NA,NA,NA,NA,NA
9df3d,deep,flow.Sequence,3_0_0_0_1_0,NA,NA,completion,6316.7,625899.1,625897.2,625913.9,632230.6,632231.5,2025-01-29T17:19:19Z,632247.2,NULL,Beweis,ushahidi,d,NA,NA,NA,NA,sdf,NA,0,NA,NA,NA,NA,NA,NA,NA,NA,NA,NA,NA,NA,NA,NA,NA,NA,NA,NA,NA
9df3d,shallow,flow.Sequence,3_0_0_0_1_1,NA,NA,skipped,NA,632231.6,NA,NA,632230.6,632231.6,2025-01-29T17:19:19Z,632247.2,NULL,Beweis,ushahidi,d,NA,NA,NA,NA,sdf,NA,0,NA,NA,NA,NA,NA,NA,NA,NA,NA,NA,NA,NA,NA,NA,NA,NA,NA,NA,NA
9df3d,task,flow.Sequence,3_0_0_0_1,NA,NA,completion,6316.7,625899.1,625897.2,625913.9,632230.6,632231.7,2025-01-29T17:19:19Z,632247.2,NULL,Beweis,ushahidi,d,NA,NA,NA,NA,sdf,NA,0,NA,NA,NA,NA,NA,NA,NA,NA,NA,NA,NA,NA,NA,NA,NA,NA,NA,NA,NA
9df3d,Deep Question,html.Page,3_0_0_0_2_0_0,NA,NA,form submission,1959.8,632231.9,632230.6,632247.2,634207,634207.4,2025-01-29T17:19:21Z,634214.2,NULL,Polizist,msongora,d,NA,NA,NA,sdf,NA,NA,0,NA,NA,NA,NA,NA,NA,NA,NA,NA,NA,NA,NA,NA,NA,NA,NA,NA,NA,NA
9df3d,"""Richtig""-Screen",canvas.Screen,3_0_0_0_2_0_1,NA,NA,skipped,NA,634208.5,NA,NA,634207,634208.6,2025-01-29T17:19:21Z,634214.2,NULL,Polizist,msongora,d,NA,NA,NA,NA,sdf,NA,0,NA,NA,NA,NA,NA,NA,NA,NA,NA,NA,NA,NA,NA,NA,NA,NA,NA,NA,NA
9df3d,"""Falsch""-Screen",canvas.Screen,3_0_0_0_2_0_2,NA,NA,timeout,4999.6000000001,634209.3,634197.526,634214.2,639197.3,639198.2,2025-01-29T17:19:26Z,639213.8,NULL,Polizist,msongora,d,NA,NA,NA,NA,sdf,0,0,NA,NA,NA,NA,NA,NA,NA,NA,NA,NA,NA,NA,NA,NA,NA,NA,NA,NA,NA
9df3d,deep,flow.Sequence,3_0_0_0_2_0,NA,NA,completion,6950.1000000001,632231.8,632230.6,632247.2,639197.3,639198.4,2025-01-29T17:19:26Z,639213.8,NULL,Polizist,msongora,d,NA,NA,NA,NA,sdf,NA,0,NA,NA,NA,NA,NA,NA,NA,NA,NA,NA,NA,NA,NA,NA,NA,NA,NA,NA,NA
9df3d,shallow,flow.Sequence,3_0_0_0_2_1,NA,NA,skipped,NA,639198.6,NA,NA,639197.3,639198.7,2025-01-29T17:19:26Z,639213.8,NULL,Polizist,msongora,d,NA,NA,NA,NA,sdf,NA,0,NA,NA,NA,NA,NA,NA,NA,NA,NA,NA,NA,NA,NA,NA,NA,NA,NA,NA,NA
9df3d,task,flow.Sequence,3_0_0_0_2,NA,NA,completion,6950.1000000001,632231.7,632230.6,632247.2,639197.3,639198.8,2025-01-29T17:19:26Z,639213.8,NULL,Polizist,msongora,d,NA,NA,NA,NA,sdf,NA,0,NA,NA,NA,NA,NA,NA,NA,NA,NA,NA,NA,NA,NA,NA,NA,NA,NA,NA,NA
9df3d,deep,flow.Sequence,3_0_0_0_3_0,NA,NA,skipped,NA,639198.9,NA,NA,639197.3,639199,2025-01-29T17:19:26Z,639213.8,NULL,Schlange,foleni,s,uvumilivu,uteuzi,muuzaji,NA,sdf,NA,0,NA,NA,NA,NA,NA,NA,NA,NA,NA,NA,NA,NA,NA,NA,NA,NA,NA,NA,NA
9df3d,Shallow Question,html.Page,3_0_0_0_3_1_0,NA,NA,form submission,2040.2,639199.2,639197.3,639213.8,641254,641254.5,2025-01-29T17:19:28Z,641263.6,NULL,Schlange,foleni,s,uvumilivu,uteuzi,muuzaji,foleni,NA,NA,0,NA,NA,NA,NA,NA,NA,NA,NA,NA,NA,NA,NA,NA,NA,NA,NA,NA,NA,NA
9df3d,"""Richtig""-Screen",canvas.Screen,3_0_0_0_3_1_1,NA,NA,timeout,5000.4,641255.8,641247.6,641263.6,646246.5,646247.5,2025-01-29T17:19:33Z,646264,NULL,Schlange,foleni,s,uvumilivu,uteuzi,muuzaji,NA,sdf,1,0,NA,NA,NA,NA,NA,NA,NA,NA,NA,NA,NA,NA,NA,NA,NA,NA,NA,NA,NA
9df3d,"""Falsch""-Screen",canvas.Screen,3_0_0_0_3_1_2,NA,NA,skipped,NA,646249.4,NA,NA,646246.5,646249.5,2025-01-29T17:19:33Z,646264,NULL,Schlange,foleni,s,uvumilivu,uteuzi,muuzaji,NA,sdf,NA,0,NA,NA,NA,NA,NA,NA,NA,NA,NA,NA,NA,NA,NA,NA,NA,NA,NA,NA,NA
9df3d,shallow,flow.Sequence,3_0_0_0_3_1,NA,NA,completion,7032.7,639199.1,639197.3,639213.8,646246.5,646249.7,2025-01-29T17:19:33Z,646264,NULL,Schlange,foleni,s,uvumilivu,uteuzi,muuzaji,NA,sdf,NA,0,NA,NA,NA,NA,NA,NA,NA,NA,NA,NA,NA,NA,NA,NA,NA,NA,NA,NA,NA
9df3d,task,flow.Sequence,3_0_0_0_3,NA,NA,completion,7032.7,639198.9,639197.3,639213.8,646246.5,646249.8,2025-01-29T17:19:33Z,646264,NULL,Schlange,foleni,s,uvumilivu,uteuzi,muuzaji,NA,sdf,NA,0,NA,NA,NA,NA,NA,NA,NA,NA,NA,NA,NA,NA,NA,NA,NA,NA,NA,NA,NA
9df3d,deep,flow.Sequence,3_0_0_0_4_0,NA,NA,skipped,NA,646249.9,NA,NA,646246.5,646250,2025-01-29T17:19:33Z,646264,NULL,Toleranz,kuvumiliana,s,maombolezo,ujasusi,mchekeshaji,NA,sdf,NA,0,NA,NA,NA,NA,NA,NA,NA,NA,NA,NA,NA,NA,NA,NA,NA,NA,NA,NA,NA
9df3d,Shallow Question,html.Page,3_0_0_0_4_1_0,NA,NA,form submission,2031.7000000011,646250.1,646246.5,646264,648295.7,648296.3,2025-01-29T17:19:35Z,648314.3,NULL,Toleranz,kuvumiliana,s,maombolezo,ujasusi,mchekeshaji,mchekeshaji,NA,NA,0,NA,NA,NA,NA,NA,NA,NA,NA,NA,NA,NA,NA,NA,NA,NA,NA,NA,NA,NA
9df3d,"""Richtig""-Screen",canvas.Screen,3_0_0_0_4_1_1,NA,NA,skipped,NA,648297.4,NA,NA,648295.7,648297.5,2025-01-29T17:19:35Z,648314.3,NULL,Toleranz,kuvumiliana,s,maombolezo,ujasusi,mchekeshaji,NA,sdf,NA,0,NA,NA,NA,NA,NA,NA,NA,NA,NA,NA,NA,NA,NA,NA,NA,NA,NA,NA,NA
9df3d,"""Falsch""-Screen",canvas.Screen,3_0_0_0_4_1_2,NA,NA,timeout,4999,648298.6,648297.658,648314.3,653297.4,653298.4,2025-01-29T17:19:40Z,653313.3,NULL,Toleranz,kuvumiliana,s,maombolezo,ujasusi,mchekeshaji,NA,sdf,0,0,NA,NA,NA,NA,NA,NA,NA,NA,NA,NA,NA,NA,NA,NA,NA,NA,NA,NA,NA
9df3d,shallow,flow.Sequence,3_0_0_0_4_1,NA,NA,completion,7033.4,646250.1,646246.5,646264,653297.4,653298.7,2025-01-29T17:19:40Z,653313.3,NULL,Toleranz,kuvumiliana,s,maombolezo,ujasusi,mchekeshaji,NA,sdf,NA,0,NA,NA,NA,NA,NA,NA,NA,NA,NA,NA,NA,NA,NA,NA,NA,NA,NA,NA,NA
9df3d,task,flow.Sequence,3_0_0_0_4,NA,NA,completion,7033.4,646249.9,646246.5,646264,653297.4,653298.9,2025-01-29T17:19:40Z,653313.3,NULL,Toleranz,kuvumiliana,s,maombolezo,ujasusi,mchekeshaji,NA,sdf,NA,0,NA,NA,NA,NA,NA,NA,NA,NA,NA,NA,NA,NA,NA,NA,NA,NA,NA,NA,NA
9df3d,deep,flow.Sequence,3_0_0_0_5_0,NA,NA,skipped,NA,653299.1,NA,NA,653297.4,653299.1,2025-01-29T17:19:40Z,653313.3,NULL,Annäherung,maegesho,s,madahili,kujiamini,mapendekezo,NA,sdf,NA,0,NA,NA,NA,NA,NA,NA,NA,NA,NA,NA,NA,NA,NA,NA,NA,NA,NA,NA,NA
9df3d,Shallow Question,html.Page,3_0_0_0_5_1_0,NA,NA,form submission,1556.1000000003,653299.3,653297.4,653313.3,654869.4,654869.8,2025-01-29T17:19:42Z,654881.1,NULL,Annäherung,maegesho,s,madahili,kujiamini,mapendekezo,madahili,NA,NA,0,NA,NA,NA,NA,NA,NA,NA,NA,NA,NA,NA,NA,NA,NA,NA,NA,NA,NA,NA
9df3d,"""Richtig""-Screen",canvas.Screen,3_0_0_0_5_1_1,NA,NA,skipped,NA,654871.2,NA,NA,654869.4,654871.3,2025-01-29T17:19:42Z,654881.1,NULL,Annäherung,maegesho,s,madahili,kujiamini,mapendekezo,NA,sdf,NA,0,NA,NA,NA,NA,NA,NA,NA,NA,NA,NA,NA,NA,NA,NA,NA,NA,NA,NA,NA
9df3d,"""Falsch""-Screen",canvas.Screen,3_0_0_0_5_1_2,NA,NA,timeout,4999.8,654871.8,654864.43,654881.1,659863.3,659865.4,2025-01-29T17:19:47Z,659880.9,NULL,Annäherung,maegesho,s,madahili,kujiamini,mapendekezo,NA,sdf,0,0,NA,NA,NA,NA,NA,NA,NA,NA,NA,NA,NA,NA,NA,NA,NA,NA,NA,NA,NA
9df3d,shallow,flow.Sequence,3_0_0_0_5_1,NA,NA,completion,6550,653299.3,653297.4,653313.3,659863.3,659865.7,2025-01-29T17:19:47Z,659880.9,NULL,Annäherung,maegesho,s,madahili,kujiamini,mapendekezo,NA,sdf,NA,0,NA,NA,NA,NA,NA,NA,NA,NA,NA,NA,NA,NA,NA,NA,NA,NA,NA,NA,NA
9df3d,task,flow.Sequence,3_0_0_0_5,NA,NA,completion,6550,653299.1,653297.4,653313.3,659863.3,659866,2025-01-29T17:19:47Z,659880.9,NULL,Annäherung,maegesho,s,madahili,kujiamini,mapendekezo,NA,sdf,NA,0,NA,NA,NA,NA,NA,NA,NA,NA,NA,NA,NA,NA,NA,NA,NA,NA,NA,NA,NA
9df3d,Deep Question,html.Page,3_0_0_0_6_0_0,NA,NA,form submission,1391.8000000011,659866.1,659863.3,659880.9,661272.7,661273.2,2025-01-29T17:19:48Z,661280.5,NULL,Inhalt,yaliyomo,d,NA,NA,NA,sdf,NA,NA,0,NA,NA,NA,NA,NA,NA,NA,NA,NA,NA,NA,NA,NA,NA,NA,NA,NA,NA,NA
9df3d,"""Richtig""-Screen",canvas.Screen,3_0_0_0_6_0_1,NA,NA,skipped,NA,661274.5,NA,NA,661272.7,661274.6,2025-01-29T17:19:48Z,661280.5,NULL,Inhalt,yaliyomo,d,NA,NA,NA,NA,sdf,NA,0,NA,NA,NA,NA,NA,NA,NA,NA,NA,NA,NA,NA,NA,NA,NA,NA,NA,NA,NA
9df3d,"""Falsch""-Screen",canvas.Screen,3_0_0_0_6_0_2,NA,NA,timeout,5000.4,661275.3,661264.494,661280.5,666263.4,666265.5,2025-01-29T17:19:53Z,666280.9,NULL,Inhalt,yaliyomo,d,NA,NA,NA,NA,sdf,0,0,NA,NA,NA,NA,NA,NA,NA,NA,NA,NA,NA,NA,NA,NA,NA,NA,NA,NA,NA
9df3d,deep,flow.Sequence,3_0_0_0_6_0,NA,NA,completion,6382.5,659866.1,659863.3,659880.9,666263.4,666265.9,2025-01-29T17:19:53Z,666280.9,NULL,Inhalt,yaliyomo,d,NA,NA,NA,NA,sdf,NA,0,NA,NA,NA,NA,NA,NA,NA,NA,NA,NA,NA,NA,NA,NA,NA,NA,NA,NA,NA
9df3d,shallow,flow.Sequence,3_0_0_0_6_1,NA,NA,skipped,NA,666266.1,NA,NA,666263.4,666266.1,2025-01-29T17:19:53Z,666280.9,NULL,Inhalt,yaliyomo,d,NA,NA,NA,NA,sdf,NA,0,NA,NA,NA,NA,NA,NA,NA,NA,NA,NA,NA,NA,NA,NA,NA,NA,NA,NA,NA
9df3d,task,flow.Sequence,3_0_0_0_6,NA,NA,completion,6382.5,659866,659863.3,659880.9,666263.4,666266.3,2025-01-29T17:19:53Z,666280.9,NULL,Inhalt,yaliyomo,d,NA,NA,NA,NA,sdf,NA,0,NA,NA,NA,NA,NA,NA,NA,NA,NA,NA,NA,NA,NA,NA,NA,NA,NA,NA,NA
9df3d,deep,flow.Sequence,3_0_0_0_7_0,NA,NA,skipped,NA,666266.4,NA,NA,666263.4,666266.5,2025-01-29T17:19:53Z,666280.9,NULL,Sympathie,mapendano,s,dhamiria,fungamano,maazimio,NA,sdf,NA,0,NA,NA,NA,NA,NA,NA,NA,NA,NA,NA,NA,NA,NA,NA,NA,NA,NA,NA,NA
9df3d,Shallow Question,html.Page,3_0_0_0_7_1_0,NA,NA,form submission,1931.6,666266.6,666263.4,666280.9,668212.5,668212.9,2025-01-29T17:19:55Z,668214.548,NULL,Sympathie,mapendano,s,dhamiria,fungamano,maazimio,fungamano,NA,NA,0,NA,NA,NA,NA,NA,NA,NA,NA,NA,NA,NA,NA,NA,NA,NA,NA,NA,NA,NA
9df3d,"""Richtig""-Screen",canvas.Screen,3_0_0_0_7_1_1,NA,NA,skipped,NA,668214.2,NA,NA,668212.5,668214.4,2025-01-29T17:19:55Z,668214.548,NULL,Sympathie,mapendano,s,dhamiria,fungamano,maazimio,NA,sdf,NA,0,NA,NA,NA,NA,NA,NA,NA,NA,NA,NA,NA,NA,NA,NA,NA,NA,NA,NA,NA
9df3d,"""Falsch""-Screen",canvas.Screen,3_0_0_0_7_1_2,NA,NA,timeout,4999.952,668214.9,668214.548,668214.548,673197.9,673198.8,2025-01-29T17:20:00Z,673214.5,NULL,Sympathie,mapendano,s,dhamiria,fungamano,maazimio,NA,sdf,0,0,NA,NA,NA,NA,NA,NA,NA,NA,NA,NA,NA,NA,NA,NA,NA,NA,NA,NA,NA
9df3d,shallow,flow.Sequence,3_0_0_0_7_1,NA,NA,completion,6917,666266.6,666263.4,666280.9,673197.9,673199.1,2025-01-29T17:20:00Z,673214.5,NULL,Sympathie,mapendano,s,dhamiria,fungamano,maazimio,NA,sdf,NA,0,NA,NA,NA,NA,NA,NA,NA,NA,NA,NA,NA,NA,NA,NA,NA,NA,NA,NA,NA
9df3d,task,flow.Sequence,3_0_0_0_7,NA,NA,completion,6917,666266.4,666263.4,666280.9,673197.9,673199.3,2025-01-29T17:20:00Z,673214.5,NULL,Sympathie,mapendano,s,dhamiria,fungamano,maazimio,NA,sdf,NA,0,NA,NA,NA,NA,NA,NA,NA,NA,NA,NA,NA,NA,NA,NA,NA,NA,NA,NA,NA
9df3d,block,flow.Loop,3_0_0_0,NA,NA,completion,53450.7,619723.2,619713.9,619747.2,673197.9,673199.5,2025-01-29T17:20:00Z,673214.5,NULL,NA,NA,NA,NA,NA,NA,NA,sdf,NA,0,NA,NA,NA,NA,NA,NA,NA,NA,NA,NA,NA,NA,NA,NA,NA,NA,NA,NA,NA
9df3d,weiter,canvas.Screen,3_0_0_1,sdf,keypress(Space),response,1846.1000000015,673199.6,673197.9,673214.5,675060.6,675064.2,2025-01-29T17:20:02Z,675097.8,NULL,NA,NA,NA,NA,NA,NA,NA,sdf,NA,0,NA,NA,NA,NA,NA,NA,NA,NA,NA,NA,NA,NA,NA,NA,NA,NA,NA,NA,NA
9df3d,check continue,flow.Sequence,3_0_0,NA,NA,completion,55313.400000002,619723.2,619713.9,619747.2,675060.6,675064.4,2025-01-29T17:20:02Z,675097.8,NULL,NA,NA,NA,NA,NA,NA,NA,sdf,NA,0,NA,NA,NA,NA,NA,NA,NA,NA,NA,NA,NA,NA,NA,NA,NA,NA,NA,NA,NA
9df3d,deep,flow.Sequence,3_0_1_0_0_0,NA,NA,skipped,NA,675081.4,NA,NA,675060.6,675081.5,2025-01-29T17:20:02Z,675097.8,NULL,Toleranz,kuvumiliana,s,maombolezo,ujasusi,mchekeshaji,NA,sdfdsf,NA,1,NA,NA,NA,NA,NA,NA,NA,NA,NA,NA,NA,NA,NA,NA,NA,NA,NA,NA,NA
9df3d,Shallow Question,html.Page,3_0_1_0_0_1_0,NA,NA,form submission,6491.3000000014,675081.5,675081.248,675097.8,681589.1,681589.7,2025-01-29T17:20:09Z,681597.9,NULL,Toleranz,kuvumiliana,s,maombolezo,ujasusi,mchekeshaji,ujasusi,NA,NA,1,NA,NA,NA,NA,NA,NA,NA,NA,NA,NA,NA,NA,NA,NA,NA,NA,NA,NA,NA
9df3d,"""Richtig""-Screen",canvas.Screen,3_0_1_0_0_1_1,NA,NA,skipped,NA,681591,NA,NA,681589.1,681591.1,2025-01-29T17:20:09Z,681597.9,NULL,Toleranz,kuvumiliana,s,maombolezo,ujasusi,mchekeshaji,NA,sdfdsf,NA,1,NA,NA,NA,NA,NA,NA,NA,NA,NA,NA,NA,NA,NA,NA,NA,NA,NA,NA,NA
9df3d,"""Falsch""-Screen",canvas.Screen,3_0_1_0_0_1_2,NA,NA,timeout,5000.1,681591.7,681581.3,681597.9,686581.4,686582.2,2025-01-29T17:20:13Z,686598,NULL,Toleranz,kuvumiliana,s,maombolezo,ujasusi,mchekeshaji,NA,sdfdsf,0,1,NA,NA,NA,NA,NA,NA,NA,NA,NA,NA,NA,NA,NA,NA,NA,NA,NA,NA,NA
9df3d,shallow,flow.Sequence,3_0_1_0_0_1,NA,NA,completion,11483.6,675081.5,675081.248,675097.8,686581.4,686582.4,2025-01-29T17:20:13Z,686598,NULL,Toleranz,kuvumiliana,s,maombolezo,ujasusi,mchekeshaji,NA,sdfdsf,NA,1,NA,NA,NA,NA,NA,NA,NA,NA,NA,NA,NA,NA,NA,NA,NA,NA,NA,NA,NA
9df3d,task,flow.Sequence,3_0_1_0_0,NA,NA,completion,11483.6,675081.4,675081.248,675097.8,686581.4,686582.5,2025-01-29T17:20:13Z,686598,NULL,Toleranz,kuvumiliana,s,maombolezo,ujasusi,mchekeshaji,NA,sdfdsf,NA,1,NA,NA,NA,NA,NA,NA,NA,NA,NA,NA,NA,NA,NA,NA,NA,NA,NA,NA,NA
9df3d,Deep Question,html.Page,3_0_1_0_1_0_0,NA,NA,form submission,6491.4000000004,686582.6,686581.4,686598,693089.4,693089.9,2025-01-29T17:20:20Z,693114.8,NULL,Vermutung,udhanifu,d,NA,NA,NA,sdf,NA,NA,1,NA,NA,NA,NA,NA,NA,NA,NA,NA,NA,NA,NA,NA,NA,NA,NA,NA,NA,NA
9df3d,"""Richtig""-Screen",canvas.Screen,3_0_1_0_1_0_1,NA,NA,skipped,NA,693091.2,NA,NA,693089.4,693091.3,2025-01-29T17:20:20Z,693114.8,NULL,Vermutung,udhanifu,d,NA,NA,NA,NA,sdfdsf,NA,1,NA,NA,NA,NA,NA,NA,NA,NA,NA,NA,NA,NA,NA,NA,NA,NA,NA,NA,NA
9df3d,"""Falsch""-Screen",canvas.Screen,3_0_1_0_1_0_2,NA,NA,timeout,5000,693092,693098.2,693114.8,698098.2,698099,2025-01-29T17:20:25Z,698114.8,NULL,Vermutung,udhanifu,d,NA,NA,NA,NA,sdfdsf,0,1,NA,NA,NA,NA,NA,NA,NA,NA,NA,NA,NA,NA,NA,NA,NA,NA,NA,NA,NA
9df3d,deep,flow.Sequence,3_0_1_0_1_0,NA,NA,completion,11500.2,686582.6,686581.4,686598,698098.2,698099.4,2025-01-29T17:20:25Z,698114.8,NULL,Vermutung,udhanifu,d,NA,NA,NA,NA,sdfdsf,NA,1,NA,NA,NA,NA,NA,NA,NA,NA,NA,NA,NA,NA,NA,NA,NA,NA,NA,NA,NA
9df3d,shallow,flow.Sequence,3_0_1_0_1_1,NA,NA,skipped,NA,698099.6,NA,NA,698098.2,698099.7,2025-01-29T17:20:25Z,698114.8,NULL,Vermutung,udhanifu,d,NA,NA,NA,NA,sdfdsf,NA,1,NA,NA,NA,NA,NA,NA,NA,NA,NA,NA,NA,NA,NA,NA,NA,NA,NA,NA,NA
9df3d,task,flow.Sequence,3_0_1_0_1,NA,NA,completion,11500.2,686582.6,686581.4,686598,698098.2,698099.8,2025-01-29T17:20:25Z,698114.8,NULL,Vermutung,udhanifu,d,NA,NA,NA,NA,sdfdsf,NA,1,NA,NA,NA,NA,NA,NA,NA,NA,NA,NA,NA,NA,NA,NA,NA,NA,NA,NA,NA
9df3d,deep,flow.Sequence,3_0_1_0_2_0,NA,NA,skipped,NA,698100,NA,NA,698098.2,698100,2025-01-29T17:20:25Z,698114.8,NULL,Annäherung,maegesho,s,madahili,kujiamini,mapendekezo,NA,sdfdsf,NA,1,NA,NA,NA,NA,NA,NA,NA,NA,NA,NA,NA,NA,NA,NA,NA,NA,NA,NA,NA
9df3d,Shallow Question,html.Page,3_0_1_0_2_1_0,NA,NA,form submission,3675.0000000007,698100.2,698098.2,698114.8,701789.8,701790.3,2025-01-29T17:20:29Z,701798.1,NULL,Annäherung,maegesho,s,madahili,kujiamini,mapendekezo,maegesho,NA,NA,1,NA,NA,NA,NA,NA,NA,NA,NA,NA,NA,NA,NA,NA,NA,NA,NA,NA,NA,NA
9df3d,"""Richtig""-Screen",canvas.Screen,3_0_1_0_2_1_1,NA,NA,timeout,4999.9,701791.7,701781.5,701798.1,706781,706783,2025-01-29T17:20:34Z,706798,NULL,Annäherung,maegesho,s,madahili,kujiamini,mapendekezo,NA,sdfdsf,1,1,NA,NA,NA,NA,NA,NA,NA,NA,NA,NA,NA,NA,NA,NA,NA,NA,NA,NA,NA
9df3d,"""Falsch""-Screen",canvas.Screen,3_0_1_0_2_1_2,NA,NA,skipped,NA,706784.9,NA,NA,706781,706785,2025-01-29T17:20:34Z,706798,NULL,Annäherung,maegesho,s,madahili,kujiamini,mapendekezo,NA,sdfdsf,NA,1,NA,NA,NA,NA,NA,NA,NA,NA,NA,NA,NA,NA,NA,NA,NA,NA,NA,NA,NA
9df3d,shallow,flow.Sequence,3_0_1_0_2_1,NA,NA,completion,8666.2,698100.1,698098.2,698114.8,706781,706785.2,2025-01-29T17:20:34Z,706798,NULL,Annäherung,maegesho,s,madahili,kujiamini,mapendekezo,NA,sdfdsf,NA,1,NA,NA,NA,NA,NA,NA,NA,NA,NA,NA,NA,NA,NA,NA,NA,NA,NA,NA,NA
9df3d,task,flow.Sequence,3_0_1_0_2,NA,NA,completion,8666.2,698100,698098.2,698114.8,706781,706785.3,2025-01-29T17:20:34Z,706798,NULL,Annäherung,maegesho,s,madahili,kujiamini,mapendekezo,NA,sdfdsf,NA,1,NA,NA,NA,NA,NA,NA,NA,NA,NA,NA,NA,NA,NA,NA,NA,NA,NA,NA,NA
9df3d,deep,flow.Sequence,3_0_1_0_3_0,NA,NA,skipped,NA,706785.4,NA,NA,706781,706785.5,2025-01-29T17:20:34Z,706798,NULL,Sympathie,mapendano,s,dhamiria,fungamano,maazimio,NA,sdfdsf,NA,1,NA,NA,NA,NA,NA,NA,NA,NA,NA,NA,NA,NA,NA,NA,NA,NA,NA,NA,NA
9df3d,Shallow Question,html.Page,3_0_1_0_3_1_0,NA,NA,form submission,1360.5,706785.6,706781,706798,708158.5,708159,2025-01-29T17:20:35Z,708181.6,NULL,Sympathie,mapendano,s,dhamiria,fungamano,maazimio,mapendano,NA,NA,1,NA,NA,NA,NA,NA,NA,NA,NA,NA,NA,NA,NA,NA,NA,NA,NA,NA,NA,NA
9df3d,"""Richtig""-Screen",canvas.Screen,3_0_1_0_3_1_1,NA,NA,timeout,4999.9,708160.3,708148.3,708181.6,713164.7,713165.9,2025-01-29T17:20:40Z,713181.5,NULL,Sympathie,mapendano,s,dhamiria,fungamano,maazimio,NA,sdfdsf,1,1,NA,NA,NA,NA,NA,NA,NA,NA,NA,NA,NA,NA,NA,NA,NA,NA,NA,NA,NA
9df3d,"""Falsch""-Screen",canvas.Screen,3_0_1_0_3_1_2,NA,NA,skipped,NA,713167.6,NA,NA,713164.7,713167.7,2025-01-29T17:20:40Z,713181.5,NULL,Sympathie,mapendano,s,dhamiria,fungamano,maazimio,NA,sdfdsf,NA,1,NA,NA,NA,NA,NA,NA,NA,NA,NA,NA,NA,NA,NA,NA,NA,NA,NA,NA,NA
9df3d,shallow,flow.Sequence,3_0_1_0_3_1,NA,NA,completion,6366.7,706785.5,706781,706798,713164.7,713168,2025-01-29T17:20:40Z,713181.5,NULL,Sympathie,mapendano,s,dhamiria,fungamano,maazimio,NA,sdfdsf,NA,1,NA,NA,NA,NA,NA,NA,NA,NA,NA,NA,NA,NA,NA,NA,NA,NA,NA,NA,NA
9df3d,task,flow.Sequence,3_0_1_0_3,NA,NA,completion,6366.7,706785.4,706781,706798,713164.7,713168.1,2025-01-29T17:20:40Z,713181.5,NULL,Sympathie,mapendano,s,dhamiria,fungamano,maazimio,NA,sdfdsf,NA,1,NA,NA,NA,NA,NA,NA,NA,NA,NA,NA,NA,NA,NA,NA,NA,NA,NA,NA,NA
9df3d,Deep Question,html.Page,3_0_1_0_4_0_0,NA,NA,form submission,1928.3000000007,713168.2,713164.7,713181.5,715109.8,715110.2,2025-01-29T17:20:42Z,715115,NULL,Polizist,msongora,d,NA,NA,NA,sdf,NA,NA,1,NA,NA,NA,NA,NA,NA,NA,NA,NA,NA,NA,NA,NA,NA,NA,NA,NA,NA,NA
9df3d,"""Richtig""-Screen",canvas.Screen,3_0_1_0_4_0_1,NA,NA,skipped,NA,715111.3,NA,NA,715109.8,715111.4,2025-01-29T17:20:42Z,715115,NULL,Polizist,msongora,d,NA,NA,NA,NA,sdfdsf,NA,1,NA,NA,NA,NA,NA,NA,NA,NA,NA,NA,NA,NA,NA,NA,NA,NA,NA,NA,NA
9df3d,"""Falsch""-Screen",canvas.Screen,3_0_1_0_4_0_2,NA,NA,timeout,5000.1,715112.1,715098.346,715115,720098.4,720099.2,2025-01-29T17:20:47Z,720115.1,NULL,Polizist,msongora,d,NA,NA,NA,NA,sdfdsf,0,1,NA,NA,NA,NA,NA,NA,NA,NA,NA,NA,NA,NA,NA,NA,NA,NA,NA,NA,NA
9df3d,deep,flow.Sequence,3_0_1_0_4_0,NA,NA,completion,6916.9,713168.2,713164.7,713181.5,720098.4,720099.6,2025-01-29T17:20:47Z,720115.1,NULL,Polizist,msongora,d,NA,NA,NA,NA,sdfdsf,NA,1,NA,NA,NA,NA,NA,NA,NA,NA,NA,NA,NA,NA,NA,NA,NA,NA,NA,NA,NA
9df3d,shallow,flow.Sequence,3_0_1_0_4_1,NA,NA,skipped,NA,720099.8,NA,NA,720098.4,720100,2025-01-29T17:20:47Z,720115.1,NULL,Polizist,msongora,d,NA,NA,NA,NA,sdfdsf,NA,1,NA,NA,NA,NA,NA,NA,NA,NA,NA,NA,NA,NA,NA,NA,NA,NA,NA,NA,NA
9df3d,task,flow.Sequence,3_0_1_0_4,NA,NA,completion,6916.9,713168.1,713164.7,713181.5,720098.4,720100.1,2025-01-29T17:20:47Z,720115.1,NULL,Polizist,msongora,d,NA,NA,NA,NA,sdfdsf,NA,1,NA,NA,NA,NA,NA,NA,NA,NA,NA,NA,NA,NA,NA,NA,NA,NA,NA,NA,NA
9df3d,Deep Question,html.Page,3_0_1_0_5_0_0,NA,NA,form submission,1122.5000000015,720100.3,720098.4,720115.1,721237.6,721238,2025-01-29T17:20:48Z,721248.4,NULL,Beweis,ushahidi,d,NA,NA,NA,sdf,NA,NA,1,NA,NA,NA,NA,NA,NA,NA,NA,NA,NA,NA,NA,NA,NA,NA,NA,NA,NA,NA
9df3d,"""Richtig""-Screen",canvas.Screen,3_0_1_0_5_0_1,NA,NA,skipped,NA,721239,NA,NA,721237.6,721239.1,2025-01-29T17:20:48Z,721248.4,NULL,Beweis,ushahidi,d,NA,NA,NA,NA,sdfdsf,NA,1,NA,NA,NA,NA,NA,NA,NA,NA,NA,NA,NA,NA,NA,NA,NA,NA,NA,NA,NA
9df3d,"""Falsch""-Screen",canvas.Screen,3_0_1_0_5_0_2,NA,NA,timeout,4999.1,721239.8,721231.728,721248.4,726230.8,726231.7,2025-01-29T17:20:53Z,726247.5,NULL,Beweis,ushahidi,d,NA,NA,NA,NA,sdfdsf,0,1,NA,NA,NA,NA,NA,NA,NA,NA,NA,NA,NA,NA,NA,NA,NA,NA,NA,NA,NA
9df3d,deep,flow.Sequence,3_0_1_0_5_0,NA,NA,completion,6115.7000000001,720100.3,720098.4,720115.1,726230.8,726232,2025-01-29T17:20:53Z,726247.5,NULL,Beweis,ushahidi,d,NA,NA,NA,NA,sdfdsf,NA,1,NA,NA,NA,NA,NA,NA,NA,NA,NA,NA,NA,NA,NA,NA,NA,NA,NA,NA,NA
9df3d,shallow,flow.Sequence,3_0_1_0_5_1,NA,NA,skipped,NA,726232.2,NA,NA,726230.8,726232.3,2025-01-29T17:20:53Z,726247.5,NULL,Beweis,ushahidi,d,NA,NA,NA,NA,sdfdsf,NA,1,NA,NA,NA,NA,NA,NA,NA,NA,NA,NA,NA,NA,NA,NA,NA,NA,NA,NA,NA
9df3d,task,flow.Sequence,3_0_1_0_5,NA,NA,completion,6115.7000000001,720100.2,720098.4,720115.1,726230.8,726232.5,2025-01-29T17:20:53Z,726247.5,NULL,Beweis,ushahidi,d,NA,NA,NA,NA,sdfdsf,NA,1,NA,NA,NA,NA,NA,NA,NA,NA,NA,NA,NA,NA,NA,NA,NA,NA,NA,NA,NA
9df3d,deep,flow.Sequence,3_0_1_0_6_0,NA,NA,skipped,NA,726232.6,NA,NA,726230.8,726232.7,2025-01-29T17:20:53Z,726247.5,NULL,Schlange,foleni,s,uvumilivu,uteuzi,muuzaji,NA,sdfdsf,NA,1,NA,NA,NA,NA,NA,NA,NA,NA,NA,NA,NA,NA,NA,NA,NA,NA,NA,NA,NA
9df3d,Shallow Question,html.Page,3_0_1_0_6_1_0,NA,NA,form submission,1908.9000000004,726232.7,726230.8,726247.5,728156.4,728156.8,2025-01-29T17:20:55Z,728165.1,NULL,Schlange,foleni,s,uvumilivu,uteuzi,muuzaji,uteuzi,NA,NA,1,NA,NA,NA,NA,NA,NA,NA,NA,NA,NA,NA,NA,NA,NA,NA,NA,NA,NA,NA
9df3d,"""Richtig""-Screen",canvas.Screen,3_0_1_0_6_1_1,NA,NA,skipped,NA,728158.2,NA,NA,728156.4,728158.3,2025-01-29T17:20:55Z,728165.1,NULL,Schlange,foleni,s,uvumilivu,uteuzi,muuzaji,NA,sdfdsf,NA,1,NA,NA,NA,NA,NA,NA,NA,NA,NA,NA,NA,NA,NA,NA,NA,NA,NA,NA,NA
9df3d,"""Falsch""-Screen",canvas.Screen,3_0_1_0_6_1_2,NA,NA,timeout,5000.1,728159.1,728148.4,728165.1,733147.5,733148.3,2025-01-29T17:21:00Z,733165.2,NULL,Schlange,foleni,s,uvumilivu,uteuzi,muuzaji,NA,sdfdsf,0,1,NA,NA,NA,NA,NA,NA,NA,NA,NA,NA,NA,NA,NA,NA,NA,NA,NA,NA,NA
9df3d,shallow,flow.Sequence,3_0_1_0_6_1,NA,NA,completion,6900,726232.7,726230.8,726247.5,733147.5,733148.7,2025-01-29T17:21:00Z,733165.2,NULL,Schlange,foleni,s,uvumilivu,uteuzi,muuzaji,NA,sdfdsf,NA,1,NA,NA,NA,NA,NA,NA,NA,NA,NA,NA,NA,NA,NA,NA,NA,NA,NA,NA,NA
9df3d,task,flow.Sequence,3_0_1_0_6,NA,NA,completion,6900,726232.6,726230.8,726247.5,733147.5,733148.9,2025-01-29T17:21:00Z,733165.2,NULL,Schlange,foleni,s,uvumilivu,uteuzi,muuzaji,NA,sdfdsf,NA,1,NA,NA,NA,NA,NA,NA,NA,NA,NA,NA,NA,NA,NA,NA,NA,NA,NA,NA,NA
9df3d,Deep Question,html.Page,3_0_1_0_7_0_0,NA,NA,form submission,1411.0000000012,733149.1,733147.5,733165.2,734576.2,734576.7,2025-01-29T17:21:01Z,734581.9,NULL,Inhalt,yaliyomo,d,NA,NA,NA,sdf,NA,NA,1,NA,NA,NA,NA,NA,NA,NA,NA,NA,NA,NA,NA,NA,NA,NA,NA,NA,NA,NA
9df3d,"""Richtig""-Screen",canvas.Screen,3_0_1_0_7_0_1,NA,NA,skipped,NA,734578,NA,NA,734576.2,734578.1,2025-01-29T17:21:01Z,734581.9,NULL,Inhalt,yaliyomo,d,NA,NA,NA,NA,sdfdsf,NA,1,NA,NA,NA,NA,NA,NA,NA,NA,NA,NA,NA,NA,NA,NA,NA,NA,NA,NA,NA
9df3d,"""Falsch""-Screen",canvas.Screen,3_0_1_0_7_0_2,NA,NA,timeout,4999.9,734578.8,734565.2,734581.9,739564.3,739566.3,2025-01-29T17:21:06Z,739581.8,NULL,Inhalt,yaliyomo,d,NA,NA,NA,NA,sdfdsf,0,1,NA,NA,NA,NA,NA,NA,NA,NA,NA,NA,NA,NA,NA,NA,NA,NA,NA,NA,NA
9df3d,deep,flow.Sequence,3_0_1_0_7_0,NA,NA,completion,6399.1000000001,733149.1,733147.5,733165.2,739564.3,739566.7,2025-01-29T17:21:06Z,739581.8,NULL,Inhalt,yaliyomo,d,NA,NA,NA,NA,sdfdsf,NA,1,NA,NA,NA,NA,NA,NA,NA,NA,NA,NA,NA,NA,NA,NA,NA,NA,NA,NA,NA
9df3d,shallow,flow.Sequence,3_0_1_0_7_1,NA,NA,skipped,NA,739566.9,NA,NA,739564.3,739567,2025-01-29T17:21:06Z,739581.8,NULL,Inhalt,yaliyomo,d,NA,NA,NA,NA,sdfdsf,NA,1,NA,NA,NA,NA,NA,NA,NA,NA,NA,NA,NA,NA,NA,NA,NA,NA,NA,NA,NA
9df3d,task,flow.Sequence,3_0_1_0_7,NA,NA,completion,6399.1000000001,733149,733147.5,733165.2,739564.3,739567.1,2025-01-29T17:21:06Z,739581.8,NULL,Inhalt,yaliyomo,d,NA,NA,NA,NA,sdfdsf,NA,1,NA,NA,NA,NA,NA,NA,NA,NA,NA,NA,NA,NA,NA,NA,NA,NA,NA,NA,NA
9df3d,block,flow.Loop,3_0_1_0,NA,NA,completion,64466.5,675081.4,675081.248,675097.8,739564.3,739567.3,2025-01-29T17:21:06Z,739581.8,NULL,NA,NA,NA,NA,NA,NA,NA,sdfdsf,NA,1,NA,NA,NA,NA,NA,NA,NA,NA,NA,NA,NA,NA,NA,NA,NA,NA,NA,NA,NA
9df3d,weiter,canvas.Screen,3_0_1_1,sdf,keypress(Space),response,780.90000000107,739567.4,739564.3,739581.8,740362.7,740367,2025-01-29T17:21:07Z,740381.7,NULL,NA,NA,NA,NA,NA,NA,NA,sdfdsf,NA,1,NA,NA,NA,NA,NA,NA,NA,NA,NA,NA,NA,NA,NA,NA,NA,NA,NA,NA,NA
9df3d,check continue,flow.Sequence,3_0_1,NA,NA,completion,65264.900000001,675081.4,675081.248,675097.8,740362.7,740367.3,2025-01-29T17:21:07Z,740381.7,NULL,NA,NA,NA,NA,NA,NA,NA,sdfdsf,NA,1,NA,NA,NA,NA,NA,NA,NA,NA,NA,NA,NA,NA,NA,NA,NA,NA,NA,NA,NA
9df3d,Deep Question,html.Page,3_0_2_0_0_0_0,NA,NA,form submission,996.70000000042,740380.5,740365.092,740381.7,741378.4,741378.9,2025-01-29T17:21:08Z,741381.962,NULL,Vermutung,udhanifu,d,NA,NA,NA,sfd,NA,NA,2,NA,NA,NA,NA,NA,NA,NA,NA,NA,NA,NA,NA,NA,NA,NA,NA,NA,NA,NA
9df3d,"""Richtig""-Screen",canvas.Screen,3_0_2_0_0_0_1,NA,NA,skipped,NA,741380.5,NA,NA,741378.4,741380.6,2025-01-29T17:21:08Z,741381.962,NULL,Vermutung,udhanifu,d,NA,NA,NA,NA,sdf,NA,2,NA,NA,NA,NA,NA,NA,NA,NA,NA,NA,NA,NA,NA,NA,NA,NA,NA,NA,NA
9df3d,"""Falsch""-Screen",canvas.Screen,3_0_2_0_0_0_2,NA,NA,timeout,4999.838,741381.3,741381.962,741381.962,746364.3,746366.3,2025-01-29T17:21:13Z,746381.8,NULL,Vermutung,udhanifu,d,NA,NA,NA,NA,sdf,0,2,NA,NA,NA,NA,NA,NA,NA,NA,NA,NA,NA,NA,NA,NA,NA,NA,NA,NA,NA
9df3d,deep,flow.Sequence,3_0_2_0_0_0,NA,NA,completion,5982.6000000001,740380.5,740365.092,740381.7,746364.3,746366.6,2025-01-29T17:21:13Z,746381.8,NULL,Vermutung,udhanifu,d,NA,NA,NA,NA,sdf,NA,2,NA,NA,NA,NA,NA,NA,NA,NA,NA,NA,NA,NA,NA,NA,NA,NA,NA,NA,NA
9df3d,shallow,flow.Sequence,3_0_2_0_0_1,NA,NA,skipped,NA,746366.8,NA,NA,746364.3,746367,2025-01-29T17:21:13Z,746381.8,NULL,Vermutung,udhanifu,d,NA,NA,NA,NA,sdf,NA,2,NA,NA,NA,NA,NA,NA,NA,NA,NA,NA,NA,NA,NA,NA,NA,NA,NA,NA,NA
9df3d,task,flow.Sequence,3_0_2_0_0,NA,NA,completion,5982.6000000001,740380.5,740365.092,740381.7,746364.3,746367.1,2025-01-29T17:21:13Z,746381.8,NULL,Vermutung,udhanifu,d,NA,NA,NA,NA,sdf,NA,2,NA,NA,NA,NA,NA,NA,NA,NA,NA,NA,NA,NA,NA,NA,NA,NA,NA,NA,NA
9df3d,deep,flow.Sequence,3_0_2_0_1_0,NA,NA,skipped,NA,746367.3,NA,NA,746364.3,746367.4,2025-01-29T17:21:13Z,746381.8,NULL,Schlange,foleni,s,uvumilivu,uteuzi,muuzaji,NA,sdf,NA,2,NA,NA,NA,NA,NA,NA,NA,NA,NA,NA,NA,NA,NA,NA,NA,NA,NA,NA,NA
9df3d,Shallow Question,html.Page,3_0_2_0_1_1_0,NA,NA,form submission,1785.9000000011,746367.5,746364.3,746381.8,748167.7,748168.2,2025-01-29T17:21:15Z,748182,NULL,Schlange,foleni,s,uvumilivu,uteuzi,muuzaji,foleni,NA,NA,2,NA,NA,NA,NA,NA,NA,NA,NA,NA,NA,NA,NA,NA,NA,NA,NA,NA,NA,NA
9df3d,"""Richtig""-Screen",canvas.Screen,3_0_2_0_1_1_1,NA,NA,timeout,4999.8,748169.7,748165.342,748182,753165.3,753166.1,2025-01-29T17:21:20Z,753181.8,NULL,Schlange,foleni,s,uvumilivu,uteuzi,muuzaji,NA,sdf,1,2,NA,NA,NA,NA,NA,NA,NA,NA,NA,NA,NA,NA,NA,NA,NA,NA,NA,NA,NA
9df3d,"""Falsch""-Screen",canvas.Screen,3_0_2_0_1_1_2,NA,NA,skipped,NA,753168,NA,NA,753165.3,753168.2,2025-01-29T17:21:20Z,753181.8,NULL,Schlange,foleni,s,uvumilivu,uteuzi,muuzaji,NA,sdf,NA,2,NA,NA,NA,NA,NA,NA,NA,NA,NA,NA,NA,NA,NA,NA,NA,NA,NA,NA,NA
9df3d,shallow,flow.Sequence,3_0_2_0_1_1,NA,NA,completion,6783.5,746367.4,746364.3,746381.8,753165.3,753168.3,2025-01-29T17:21:20Z,753181.8,NULL,Schlange,foleni,s,uvumilivu,uteuzi,muuzaji,NA,sdf,NA,2,NA,NA,NA,NA,NA,NA,NA,NA,NA,NA,NA,NA,NA,NA,NA,NA,NA,NA,NA
9df3d,task,flow.Sequence,3_0_2_0_1,NA,NA,completion,6783.5,746367.2,746364.3,746381.8,753165.3,753168.5,2025-01-29T17:21:20Z,753181.8,NULL,Schlange,foleni,s,uvumilivu,uteuzi,muuzaji,NA,sdf,NA,2,NA,NA,NA,NA,NA,NA,NA,NA,NA,NA,NA,NA,NA,NA,NA,NA,NA,NA,NA
9df3d,Deep Question,html.Page,3_0_2_0_2_0_0,NA,NA,form submission,1209.1000000003,753168.6,753165.3,753181.8,754390.9,754391.4,2025-01-29T17:21:21Z,754398.8,NULL,Beweis,ushahidi,d,NA,NA,NA,sdf,NA,NA,2,NA,NA,NA,NA,NA,NA,NA,NA,NA,NA,NA,NA,NA,NA,NA,NA,NA,NA,NA
9df3d,"""Richtig""-Screen",canvas.Screen,3_0_2_0_2_0_1,NA,NA,skipped,NA,754392.6,NA,NA,754390.9,754392.7,2025-01-29T17:21:21Z,754398.8,NULL,Beweis,ushahidi,d,NA,NA,NA,NA,sdf,NA,2,NA,NA,NA,NA,NA,NA,NA,NA,NA,NA,NA,NA,NA,NA,NA,NA,NA,NA,NA
9df3d,"""Falsch""-Screen",canvas.Screen,3_0_2_0_2_0_2,NA,NA,timeout,4999,754393.5,754382.162,754398.8,759382.2,759383.2,2025-01-29T17:21:26Z,759397.8,NULL,Beweis,ushahidi,d,NA,NA,NA,NA,sdf,0,2,NA,NA,NA,NA,NA,NA,NA,NA,NA,NA,NA,NA,NA,NA,NA,NA,NA,NA,NA
9df3d,deep,flow.Sequence,3_0_2_0_2_0,NA,NA,completion,6200.3999999999,753168.6,753165.3,753181.8,759382.2,759383.4,2025-01-29T17:21:26Z,759397.8,NULL,Beweis,ushahidi,d,NA,NA,NA,NA,sdf,NA,2,NA,NA,NA,NA,NA,NA,NA,NA,NA,NA,NA,NA,NA,NA,NA,NA,NA,NA,NA
9df3d,shallow,flow.Sequence,3_0_2_0_2_1,NA,NA,skipped,NA,759383.5,NA,NA,759382.2,759383.6,2025-01-29T17:21:26Z,759397.8,NULL,Beweis,ushahidi,d,NA,NA,NA,NA,sdf,NA,2,NA,NA,NA,NA,NA,NA,NA,NA,NA,NA,NA,NA,NA,NA,NA,NA,NA,NA,NA
9df3d,task,flow.Sequence,3_0_2_0_2,NA,NA,completion,6200.3999999999,753168.6,753165.3,753181.8,759382.2,759383.6,2025-01-29T17:21:26Z,759397.8,NULL,Beweis,ushahidi,d,NA,NA,NA,NA,sdf,NA,2,NA,NA,NA,NA,NA,NA,NA,NA,NA,NA,NA,NA,NA,NA,NA,NA,NA,NA,NA
9df3d,deep,flow.Sequence,3_0_2_0_3_0,NA,NA,skipped,NA,759383.7,NA,NA,759382.2,759383.8,2025-01-29T17:21:26Z,759397.8,NULL,Sympathie,mapendano,s,dhamiria,fungamano,maazimio,NA,sdf,NA,2,NA,NA,NA,NA,NA,NA,NA,NA,NA,NA,NA,NA,NA,NA,NA,NA,NA,NA,NA
9df3d,Shallow Question,html.Page,3_0_2_0_3_1_0,NA,NA,form submission,1437.3000000014,759383.8,759382.2,759397.8,760835.1,760835.5,2025-01-29T17:21:28Z,760848.8,NULL,Sympathie,mapendano,s,dhamiria,fungamano,maazimio,dhamiria,NA,NA,2,NA,NA,NA,NA,NA,NA,NA,NA,NA,NA,NA,NA,NA,NA,NA,NA,NA,NA,NA
9df3d,"""Richtig""-Screen",canvas.Screen,3_0_2_0_3_1_1,NA,NA,skipped,NA,760836.6,NA,NA,760835.1,760836.8,2025-01-29T17:21:28Z,760848.8,NULL,Sympathie,mapendano,s,dhamiria,fungamano,maazimio,NA,sdf,NA,2,NA,NA,NA,NA,NA,NA,NA,NA,NA,NA,NA,NA,NA,NA,NA,NA,NA,NA,NA
9df3d,"""Falsch""-Screen",canvas.Screen,3_0_2_0_3_1_2,NA,NA,timeout,4999.8999999999,760837.4,760832.2,760848.8,765832,765832.8,2025-01-29T17:21:33Z,765848.7,NULL,Sympathie,mapendano,s,dhamiria,fungamano,maazimio,NA,sdf,0,2,NA,NA,NA,NA,NA,NA,NA,NA,NA,NA,NA,NA,NA,NA,NA,NA,NA,NA,NA
9df3d,shallow,flow.Sequence,3_0_2_0_3_1,NA,NA,completion,6434.2,759383.8,759382.2,759397.8,765832,765833.2,2025-01-29T17:21:33Z,765848.7,NULL,Sympathie,mapendano,s,dhamiria,fungamano,maazimio,NA,sdf,NA,2,NA,NA,NA,NA,NA,NA,NA,NA,NA,NA,NA,NA,NA,NA,NA,NA,NA,NA,NA
9df3d,task,flow.Sequence,3_0_2_0_3,NA,NA,completion,6434.2,759383.7,759382.2,759397.8,765832,765833.4,2025-01-29T17:21:33Z,765848.7,NULL,Sympathie,mapendano,s,dhamiria,fungamano,maazimio,NA,sdf,NA,2,NA,NA,NA,NA,NA,NA,NA,NA,NA,NA,NA,NA,NA,NA,NA,NA,NA,NA,NA
9df3d,Deep Question,html.Page,3_0_2_0_4_0_0,NA,NA,form submission,2942.9000000015,765833.7,765832,765848.7,768791.6,768791.9,2025-01-29T17:21:36Z,768798.9,NULL,Inhalt,yaliyomo,d,NA,NA,NA,sdf,NA,NA,2,NA,NA,NA,NA,NA,NA,NA,NA,NA,NA,NA,NA,NA,NA,NA,NA,NA,NA,NA
9df3d,"""Richtig""-Screen",canvas.Screen,3_0_2_0_4_0_1,NA,NA,skipped,NA,768792.9,NA,NA,768791.6,768793.1,2025-01-29T17:21:36Z,768798.9,NULL,Inhalt,yaliyomo,d,NA,NA,NA,NA,sdf,NA,2,NA,NA,NA,NA,NA,NA,NA,NA,NA,NA,NA,NA,NA,NA,NA,NA,NA,NA,NA
9df3d,"""Falsch""-Screen",canvas.Screen,3_0_2_0_4_0_2,NA,NA,timeout,5000.1,768793.8,768782.328,768798.9,773782.3,773783.1,2025-01-29T17:21:41Z,773799,NULL,Inhalt,yaliyomo,d,NA,NA,NA,NA,sdf,0,2,NA,NA,NA,NA,NA,NA,NA,NA,NA,NA,NA,NA,NA,NA,NA,NA,NA,NA,NA
9df3d,deep,flow.Sequence,3_0_2_0_4_0,NA,NA,completion,7933.6000000001,765833.6,765832,765848.7,773782.3,773783.4,2025-01-29T17:21:41Z,773799,NULL,Inhalt,yaliyomo,d,NA,NA,NA,NA,sdf,NA,2,NA,NA,NA,NA,NA,NA,NA,NA,NA,NA,NA,NA,NA,NA,NA,NA,NA,NA,NA
9df3d,shallow,flow.Sequence,3_0_2_0_4_1,NA,NA,skipped,NA,773783.6,NA,NA,773782.3,773783.6,2025-01-29T17:21:41Z,773799,NULL,Inhalt,yaliyomo,d,NA,NA,NA,NA,sdf,NA,2,NA,NA,NA,NA,NA,NA,NA,NA,NA,NA,NA,NA,NA,NA,NA,NA,NA,NA,NA
9df3d,task,flow.Sequence,3_0_2_0_4,NA,NA,completion,7933.6000000001,765833.5,765832,765848.7,773782.3,773783.9,2025-01-29T17:21:41Z,773799,NULL,Inhalt,yaliyomo,d,NA,NA,NA,NA,sdf,NA,2,NA,NA,NA,NA,NA,NA,NA,NA,NA,NA,NA,NA,NA,NA,NA,NA,NA,NA,NA
9df3d,deep,flow.Sequence,3_0_2_0_5_0,NA,NA,skipped,NA,773784,NA,NA,773782.3,773784,2025-01-29T17:21:41Z,773799,NULL,Annäherung,maegesho,s,madahili,kujiamini,mapendekezo,NA,sdf,NA,2,NA,NA,NA,NA,NA,NA,NA,NA,NA,NA,NA,NA,NA,NA,NA,NA,NA,NA,NA
9df3d,Shallow Question,html.Page,3_0_2_0_5_1_0,NA,NA,form submission,6565,773784.1,773782.3,773799,780364,780364.3,2025-01-29T17:21:47Z,780382.3,NULL,Annäherung,maegesho,s,madahili,kujiamini,mapendekezo,maegesho,NA,NA,2,NA,NA,NA,NA,NA,NA,NA,NA,NA,NA,NA,NA,NA,NA,NA,NA,NA,NA,NA
9df3d,"""Richtig""-Screen",canvas.Screen,3_0_2_0_5_1_1,NA,NA,timeout,4999.7999999999,780365.1,780365.71,780382.3,785365.5,785366.4,2025-01-29T17:21:52Z,785382.1,NULL,Annäherung,maegesho,s,madahili,kujiamini,mapendekezo,NA,sdf,1,2,NA,NA,NA,NA,NA,NA,NA,NA,NA,NA,NA,NA,NA,NA,NA,NA,NA,NA,NA
9df3d,"""Falsch""-Screen",canvas.Screen,3_0_2_0_5_1_2,NA,NA,skipped,NA,785368.3,NA,NA,785365.5,785368.5,2025-01-29T17:21:52Z,785382.1,NULL,Annäherung,maegesho,s,madahili,kujiamini,mapendekezo,NA,sdf,NA,2,NA,NA,NA,NA,NA,NA,NA,NA,NA,NA,NA,NA,NA,NA,NA,NA,NA,NA,NA
9df3d,shallow,flow.Sequence,3_0_2_0_5_1,NA,NA,completion,11566.5,773784.1,773782.3,773799,785365.5,785368.7,2025-01-29T17:21:52Z,785382.1,NULL,Annäherung,maegesho,s,madahili,kujiamini,mapendekezo,NA,sdf,NA,2,NA,NA,NA,NA,NA,NA,NA,NA,NA,NA,NA,NA,NA,NA,NA,NA,NA,NA,NA
9df3d,task,flow.Sequence,3_0_2_0_5,NA,NA,completion,11566.5,773783.9,773782.3,773799,785365.5,785368.9,2025-01-29T17:21:52Z,785382.1,NULL,Annäherung,maegesho,s,madahili,kujiamini,mapendekezo,NA,sdf,NA,2,NA,NA,NA,NA,NA,NA,NA,NA,NA,NA,NA,NA,NA,NA,NA,NA,NA,NA,NA
9df3d,deep,flow.Sequence,3_0_2_0_6_0,NA,NA,skipped,NA,785369,NA,NA,785365.5,785369.1,2025-01-29T17:21:52Z,785382.1,NULL,Toleranz,kuvumiliana,s,maombolezo,ujasusi,mchekeshaji,NA,sdf,NA,2,NA,NA,NA,NA,NA,NA,NA,NA,NA,NA,NA,NA,NA,NA,NA,NA,NA,NA,NA
9df3d,Shallow Question,html.Page,3_0_2_0_6_1_0,NA,NA,form submission,2210.9,785369.2,785365.5,785382.1,787593,787593.4,2025-01-29T17:21:55Z,787599.1,NULL,Toleranz,kuvumiliana,s,maombolezo,ujasusi,mchekeshaji,kuvumiliana,NA,NA,2,NA,NA,NA,NA,NA,NA,NA,NA,NA,NA,NA,NA,NA,NA,NA,NA,NA,NA,NA
9df3d,"""Richtig""-Screen",canvas.Screen,3_0_2_0_6_1_1,NA,NA,timeout,5000,787594.5,787582.48,787599.1,792581.5,792582.3,2025-01-29T17:21:59Z,792599.1,NULL,Toleranz,kuvumiliana,s,maombolezo,ujasusi,mchekeshaji,NA,sdf,1,2,NA,NA,NA,NA,NA,NA,NA,NA,NA,NA,NA,NA,NA,NA,NA,NA,NA,NA,NA
9df3d,"""Falsch""-Screen",canvas.Screen,3_0_2_0_6_1_2,NA,NA,skipped,NA,792584.1,NA,NA,792581.5,792584.2,2025-01-29T17:21:59Z,792599.1,NULL,Toleranz,kuvumiliana,s,maombolezo,ujasusi,mchekeshaji,NA,sdf,NA,2,NA,NA,NA,NA,NA,NA,NA,NA,NA,NA,NA,NA,NA,NA,NA,NA,NA,NA,NA
9df3d,shallow,flow.Sequence,3_0_2_0_6_1,NA,NA,completion,7199.4,785369.2,785365.5,785382.1,792581.5,792584.4,2025-01-29T17:21:59Z,792599.1,NULL,Toleranz,kuvumiliana,s,maombolezo,ujasusi,mchekeshaji,NA,sdf,NA,2,NA,NA,NA,NA,NA,NA,NA,NA,NA,NA,NA,NA,NA,NA,NA,NA,NA,NA,NA
9df3d,task,flow.Sequence,3_0_2_0_6,NA,NA,completion,7199.4,785368.9,785365.5,785382.1,792581.5,792584.5,2025-01-29T17:21:59Z,792599.1,NULL,Toleranz,kuvumiliana,s,maombolezo,ujasusi,mchekeshaji,NA,sdf,NA,2,NA,NA,NA,NA,NA,NA,NA,NA,NA,NA,NA,NA,NA,NA,NA,NA,NA,NA,NA
9df3d,Deep Question,html.Page,3_0_2_0_7_0_0,NA,NA,form submission,4697.3000000004,792584.7,792581.5,792599.1,797296.4,797296.8,2025-01-29T17:22:04Z,797299.226,NULL,Polizist,msongora,d,NA,NA,NA,udhanifu,NA,NA,2,NA,NA,NA,NA,NA,NA,NA,NA,NA,NA,NA,NA,NA,NA,NA,NA,NA,NA,NA
9df3d,"""Richtig""-Screen",canvas.Screen,3_0_2_0_7_0_1,NA,NA,skipped,NA,797297.9,NA,NA,797296.4,797297.9,2025-01-29T17:22:04Z,797299.226,NULL,Polizist,msongora,d,NA,NA,NA,NA,sdf,NA,2,NA,NA,NA,NA,NA,NA,NA,NA,NA,NA,NA,NA,NA,NA,NA,NA,NA,NA,NA
9df3d,"""Falsch""-Screen",canvas.Screen,3_0_2_0_7_0_2,NA,NA,timeout,4999.9739999999,797298.5,797299.226,797299.226,802282.7,802283.3,2025-01-29T17:22:09Z,802299.2,NULL,Polizist,msongora,d,NA,NA,NA,NA,sdf,0,2,NA,NA,NA,NA,NA,NA,NA,NA,NA,NA,NA,NA,NA,NA,NA,NA,NA,NA,NA
9df3d,deep,flow.Sequence,3_0_2_0_7_0,NA,NA,completion,9683.6,792584.6,792581.5,792599.1,802282.7,802283.5,2025-01-29T17:22:09Z,802299.2,NULL,Polizist,msongora,d,NA,NA,NA,NA,sdf,NA,2,NA,NA,NA,NA,NA,NA,NA,NA,NA,NA,NA,NA,NA,NA,NA,NA,NA,NA,NA
9df3d,shallow,flow.Sequence,3_0_2_0_7_1,NA,NA,skipped,NA,802283.6,NA,NA,802282.7,802283.6,2025-01-29T17:22:09Z,802299.2,NULL,Polizist,msongora,d,NA,NA,NA,NA,sdf,NA,2,NA,NA,NA,NA,NA,NA,NA,NA,NA,NA,NA,NA,NA,NA,NA,NA,NA,NA,NA
9df3d,task,flow.Sequence,3_0_2_0_7,NA,NA,completion,9683.6,792584.5,792581.5,792599.1,802282.7,802283.7,2025-01-29T17:22:09Z,802299.2,NULL,Polizist,msongora,d,NA,NA,NA,NA,sdf,NA,2,NA,NA,NA,NA,NA,NA,NA,NA,NA,NA,NA,NA,NA,NA,NA,NA,NA,NA,NA
9df3d,block,flow.Loop,3_0_2_0,NA,NA,completion,61901,740380.4,740365.092,740381.7,802282.7,802283.8,2025-01-29T17:22:09Z,802299.2,NULL,NA,NA,NA,NA,NA,NA,NA,sdf,NA,2,NA,NA,NA,NA,NA,NA,NA,NA,NA,NA,NA,NA,NA,NA,NA,NA,NA,NA,NA
9df3d,weiter,canvas.Screen,3_0_2_1,sdf,keypress(Space),response,726.70000000042,802283.8,802282.7,802299.2,803025.9,803030.6,2025-01-29T17:22:10Z,803065.9,NULL,NA,NA,NA,NA,NA,NA,NA,sdf,NA,2,NA,NA,NA,NA,NA,NA,NA,NA,NA,NA,NA,NA,NA,NA,NA,NA,NA,NA,NA
9df3d,check continue,flow.Sequence,3_0_2,NA,NA,completion,62644.2,740380.4,740365.092,740381.7,803025.9,803030.8,2025-01-29T17:22:10Z,803065.9,NULL,NA,NA,NA,NA,NA,NA,NA,sdf,NA,2,NA,NA,NA,NA,NA,NA,NA,NA,NA,NA,NA,NA,NA,NA,NA,NA,NA,NA,NA
9df3d,Deep Question,html.Page,3_0_3_0_0_0_0,NA,NA,form submission,4123.2000000015,803044.8,803032.648,803065.9,807189.1,807189.5,2025-01-29T17:22:14Z,807199.3,NULL,Inhalt,yaliyomo,d,NA,NA,NA,udhanifu,NA,NA,3,NA,NA,NA,NA,NA,NA,NA,NA,NA,NA,NA,NA,NA,NA,NA,NA,NA,NA,NA
9df3d,"""Richtig""-Screen",canvas.Screen,3_0_3_0_0_0_1,NA,NA,skipped,NA,807190.8,NA,NA,807189.1,807190.9,2025-01-29T17:22:14Z,807199.3,NULL,Inhalt,yaliyomo,d,NA,NA,NA,NA,qt,NA,3,NA,NA,NA,NA,NA,NA,NA,NA,NA,NA,NA,NA,NA,NA,NA,NA,NA,NA,NA
9df3d,"""Falsch""-Screen",canvas.Screen,3_0_3_0_0_0_2,NA,NA,timeout,4999.1,807191.2,807182.694,807199.3,812181.7,812183.6,2025-01-29T17:22:19Z,812198.4,NULL,Inhalt,yaliyomo,d,NA,NA,NA,NA,qt,0,3,NA,NA,NA,NA,NA,NA,NA,NA,NA,NA,NA,NA,NA,NA,NA,NA,NA,NA,NA
9df3d,deep,flow.Sequence,3_0_3_0_0_0,NA,NA,completion,9115.7999999999,803044.8,803032.648,803065.9,812181.7,812183.8,2025-01-29T17:22:19Z,812198.4,NULL,Inhalt,yaliyomo,d,NA,NA,NA,NA,qt,NA,3,NA,NA,NA,NA,NA,NA,NA,NA,NA,NA,NA,NA,NA,NA,NA,NA,NA,NA,NA
9df3d,shallow,flow.Sequence,3_0_3_0_0_1,NA,NA,skipped,NA,812184,NA,NA,812181.7,812184.1,2025-01-29T17:22:19Z,812198.4,NULL,Inhalt,yaliyomo,d,NA,NA,NA,NA,qt,NA,3,NA,NA,NA,NA,NA,NA,NA,NA,NA,NA,NA,NA,NA,NA,NA,NA,NA,NA,NA
9df3d,task,flow.Sequence,3_0_3_0_0,NA,NA,completion,9115.7999999999,803044.8,803032.648,803065.9,812181.7,812184.1,2025-01-29T17:22:19Z,812198.4,NULL,Inhalt,yaliyomo,d,NA,NA,NA,NA,qt,NA,3,NA,NA,NA,NA,NA,NA,NA,NA,NA,NA,NA,NA,NA,NA,NA,NA,NA,NA,NA
9df3d,deep,flow.Sequence,3_0_3_0_1_0,NA,NA,skipped,NA,812184.2,NA,NA,812181.7,812184.2,2025-01-29T17:22:19Z,812198.4,NULL,Annäherung,maegesho,s,madahili,kujiamini,mapendekezo,NA,qt,NA,3,NA,NA,NA,NA,NA,NA,NA,NA,NA,NA,NA,NA,NA,NA,NA,NA,NA,NA,NA
9df3d,Shallow Question,html.Page,3_0_3_0_1_1_0,NA,NA,form submission,1712.8000000011,812184.4,812181.7,812198.4,813911.2,813911.6,2025-01-29T17:22:21Z,813916.1,NULL,Annäherung,maegesho,s,madahili,kujiamini,mapendekezo,maegesho,NA,NA,3,NA,NA,NA,NA,NA,NA,NA,NA,NA,NA,NA,NA,NA,NA,NA,NA,NA,NA,NA
9df3d,"""Richtig""-Screen",canvas.Screen,3_0_3_0_1_1_1,NA,NA,timeout,4999.8,813912.9,813899.428,813916.1,818899.1,818900.1,2025-01-29T17:22:26Z,818915.9,NULL,Annäherung,maegesho,s,madahili,kujiamini,mapendekezo,NA,qt,1,3,NA,NA,NA,NA,NA,NA,NA,NA,NA,NA,NA,NA,NA,NA,NA,NA,NA,NA,NA
9df3d,"""Falsch""-Screen",canvas.Screen,3_0_3_0_1_1_2,NA,NA,skipped,NA,818902,NA,NA,818899.1,818902.1,2025-01-29T17:22:26Z,818915.9,NULL,Annäherung,maegesho,s,madahili,kujiamini,mapendekezo,NA,qt,NA,3,NA,NA,NA,NA,NA,NA,NA,NA,NA,NA,NA,NA,NA,NA,NA,NA,NA,NA,NA
9df3d,shallow,flow.Sequence,3_0_3_0_1_1,NA,NA,completion,6700.7,812184.3,812181.7,812198.4,818899.1,818902.2,2025-01-29T17:22:26Z,818915.9,NULL,Annäherung,maegesho,s,madahili,kujiamini,mapendekezo,NA,qt,NA,3,NA,NA,NA,NA,NA,NA,NA,NA,NA,NA,NA,NA,NA,NA,NA,NA,NA,NA,NA
9df3d,task,flow.Sequence,3_0_3_0_1,NA,NA,completion,6700.7,812184.2,812181.7,812198.4,818899.1,818902.4,2025-01-29T17:22:26Z,818915.9,NULL,Annäherung,maegesho,s,madahili,kujiamini,mapendekezo,NA,qt,NA,3,NA,NA,NA,NA,NA,NA,NA,NA,NA,NA,NA,NA,NA,NA,NA,NA,NA,NA,NA
9df3d,deep,flow.Sequence,3_0_3_0_2_0,NA,NA,skipped,NA,818902.5,NA,NA,818899.1,818902.6,2025-01-29T17:22:26Z,818915.9,NULL,Toleranz,kuvumiliana,s,maombolezo,ujasusi,mchekeshaji,NA,qt,NA,3,NA,NA,NA,NA,NA,NA,NA,NA,NA,NA,NA,NA,NA,NA,NA,NA,NA,NA,NA
9df3d,Shallow Question,html.Page,3_0_3_0_2_1_0,NA,NA,form submission,2065.4000000007,818902.6,818899.1,818915.9,820981.3,820981.8,2025-01-29T17:22:28Z,820982.858,NULL,Toleranz,kuvumiliana,s,maombolezo,ujasusi,mchekeshaji,kuvumiliana,NA,NA,3,NA,NA,NA,NA,NA,NA,NA,NA,NA,NA,NA,NA,NA,NA,NA,NA,NA,NA,NA
9df3d,"""Richtig""-Screen",canvas.Screen,3_0_3_0_2_1_1,NA,NA,timeout,4998.942,820982.8,820982.858,820982.858,825966,825966.8,2025-01-29T17:22:33Z,825981.8,NULL,Toleranz,kuvumiliana,s,maombolezo,ujasusi,mchekeshaji,NA,qt,1,3,NA,NA,NA,NA,NA,NA,NA,NA,NA,NA,NA,NA,NA,NA,NA,NA,NA,NA,NA
9df3d,"""Falsch""-Screen",canvas.Screen,3_0_3_0_2_1_2,NA,NA,skipped,NA,825968.7,NA,NA,825966,825968.7,2025-01-29T17:22:33Z,825981.8,NULL,Toleranz,kuvumiliana,s,maombolezo,ujasusi,mchekeshaji,NA,qt,NA,3,NA,NA,NA,NA,NA,NA,NA,NA,NA,NA,NA,NA,NA,NA,NA,NA,NA,NA,NA
9df3d,shallow,flow.Sequence,3_0_3_0_2_1,NA,NA,completion,7050.1,818902.6,818899.1,818915.9,825966,825969,2025-01-29T17:22:33Z,825981.8,NULL,Toleranz,kuvumiliana,s,maombolezo,ujasusi,mchekeshaji,NA,qt,NA,3,NA,NA,NA,NA,NA,NA,NA,NA,NA,NA,NA,NA,NA,NA,NA,NA,NA,NA,NA
9df3d,task,flow.Sequence,3_0_3_0_2,NA,NA,completion,7050.1,818902.5,818899.1,818915.9,825966,825969.1,2025-01-29T17:22:33Z,825981.8,NULL,Toleranz,kuvumiliana,s,maombolezo,ujasusi,mchekeshaji,NA,qt,NA,3,NA,NA,NA,NA,NA,NA,NA,NA,NA,NA,NA,NA,NA,NA,NA,NA,NA,NA,NA
9df3d,Deep Question,html.Page,3_0_3_0_3_0_0,NA,NA,form submission,9554.8000000014,825969.2,825966,825981.8,835536.6,835537,2025-01-29T17:22:42Z,835549.6,NULL,Beweis,ushahidi,d,NA,NA,NA,udhanifu,NA,NA,3,NA,NA,NA,NA,NA,NA,NA,NA,NA,NA,NA,NA,NA,NA,NA,NA,NA,NA,NA
9df3d,"""Richtig""-Screen",canvas.Screen,3_0_3_0_3_0_1,NA,NA,skipped,NA,835538.1,NA,NA,835536.6,835538.1,2025-01-29T17:22:42Z,835549.6,NULL,Beweis,ushahidi,d,NA,NA,NA,NA,qt,NA,3,NA,NA,NA,NA,NA,NA,NA,NA,NA,NA,NA,NA,NA,NA,NA,NA,NA,NA,NA
9df3d,"""Falsch""-Screen",canvas.Screen,3_0_3_0_3_0_2,NA,NA,timeout,5000,835538.8,835533.024,835549.6,840532.5,840533.4,2025-01-29T17:22:47Z,840549.6,NULL,Beweis,ushahidi,d,NA,NA,NA,NA,qt,0,3,NA,NA,NA,NA,NA,NA,NA,NA,NA,NA,NA,NA,NA,NA,NA,NA,NA,NA,NA
9df3d,deep,flow.Sequence,3_0_3_0_3_0,NA,NA,completion,14550.7,825969.2,825966,825981.8,840532.5,840533.7,2025-01-29T17:22:47Z,840549.6,NULL,Beweis,ushahidi,d,NA,NA,NA,NA,qt,NA,3,NA,NA,NA,NA,NA,NA,NA,NA,NA,NA,NA,NA,NA,NA,NA,NA,NA,NA,NA
9df3d,shallow,flow.Sequence,3_0_3_0_3_1,NA,NA,skipped,NA,840533.7,NA,NA,840532.5,840533.8,2025-01-29T17:22:47Z,840549.6,NULL,Beweis,ushahidi,d,NA,NA,NA,NA,qt,NA,3,NA,NA,NA,NA,NA,NA,NA,NA,NA,NA,NA,NA,NA,NA,NA,NA,NA,NA,NA
9df3d,task,flow.Sequence,3_0_3_0_3,NA,NA,completion,14550.7,825969.1,825966,825981.8,840532.5,840534,2025-01-29T17:22:47Z,840549.6,NULL,Beweis,ushahidi,d,NA,NA,NA,NA,qt,NA,3,NA,NA,NA,NA,NA,NA,NA,NA,NA,NA,NA,NA,NA,NA,NA,NA,NA,NA,NA
9df3d,Deep Question,html.Page,3_0_3_0_4_0_0,NA,NA,form submission,5935.0000000015,840534.1,840532.5,840549.6,846484.6,846485.1,2025-01-29T17:22:53Z,846499.7,NULL,Polizist,msongora,d,NA,NA,NA,msongor,NA,NA,3,NA,NA,NA,NA,NA,NA,NA,NA,NA,NA,NA,NA,NA,NA,NA,NA,NA,NA,NA
9df3d,"""Richtig""-Screen",canvas.Screen,3_0_3_0_4_0_1,NA,NA,skipped,NA,846485.9,NA,NA,846484.6,846486,2025-01-29T17:22:53Z,846499.7,NULL,Polizist,msongora,d,NA,NA,NA,NA,qt,NA,3,NA,NA,NA,NA,NA,NA,NA,NA,NA,NA,NA,NA,NA,NA,NA,NA,NA,NA,NA
9df3d,"""Falsch""-Screen",canvas.Screen,3_0_3_0_4_0_2,NA,NA,timeout,4999.8,846486.5,846483.1,846499.7,851482.8,851483.7,2025-01-29T17:22:58Z,851499.5,NULL,Polizist,msongora,d,NA,NA,NA,NA,qt,0,3,NA,NA,NA,NA,NA,NA,NA,NA,NA,NA,NA,NA,NA,NA,NA,NA,NA,NA,NA
9df3d,deep,flow.Sequence,3_0_3_0_4_0,NA,NA,completion,10933.2,840534.1,840532.5,840549.6,851482.8,851484,2025-01-29T17:22:58Z,851499.5,NULL,Polizist,msongora,d,NA,NA,NA,NA,qt,NA,3,NA,NA,NA,NA,NA,NA,NA,NA,NA,NA,NA,NA,NA,NA,NA,NA,NA,NA,NA
9df3d,shallow,flow.Sequence,3_0_3_0_4_1,NA,NA,skipped,NA,851484.3,NA,NA,851482.8,851484.3,2025-01-29T17:22:58Z,851499.5,NULL,Polizist,msongora,d,NA,NA,NA,NA,qt,NA,3,NA,NA,NA,NA,NA,NA,NA,NA,NA,NA,NA,NA,NA,NA,NA,NA,NA,NA,NA
9df3d,task,flow.Sequence,3_0_3_0_4,NA,NA,completion,10933.2,840534.1,840532.5,840549.6,851482.8,851484.4,2025-01-29T17:22:58Z,851499.5,NULL,Polizist,msongora,d,NA,NA,NA,NA,qt,NA,3,NA,NA,NA,NA,NA,NA,NA,NA,NA,NA,NA,NA,NA,NA,NA,NA,NA,NA,NA
9df3d,deep,flow.Sequence,3_0_3_0_5_0,NA,NA,skipped,NA,851484.7,NA,NA,851482.8,851484.7,2025-01-29T17:22:58Z,851499.5,NULL,Sympathie,mapendano,s,dhamiria,fungamano,maazimio,NA,qt,NA,3,NA,NA,NA,NA,NA,NA,NA,NA,NA,NA,NA,NA,NA,NA,NA,NA,NA,NA,NA
9df3d,Shallow Question,html.Page,3_0_3_0_5_1_0,NA,NA,form submission,3139.7000000011,851484.9,851482.8,851499.5,854639.2,854639.7,2025-01-29T17:23:02Z,854649.8,NULL,Sympathie,mapendano,s,dhamiria,fungamano,maazimio,mapendano,NA,NA,3,NA,NA,NA,NA,NA,NA,NA,NA,NA,NA,NA,NA,NA,NA,NA,NA,NA,NA,NA
9df3d,"""Richtig""-Screen",canvas.Screen,3_0_3_0_5_1_1,NA,NA,timeout,4999.8999999999,854640.8,854633.186,854649.8,859633,859634,2025-01-29T17:23:07Z,859649.7,NULL,Sympathie,mapendano,s,dhamiria,fungamano,maazimio,NA,qt,1,3,NA,NA,NA,NA,NA,NA,NA,NA,NA,NA,NA,NA,NA,NA,NA,NA,NA,NA,NA
9df3d,"""Falsch""-Screen",canvas.Screen,3_0_3_0_5_1_2,NA,NA,skipped,NA,859635.6,NA,NA,859633,859635.8,2025-01-29T17:23:07Z,859649.7,NULL,Sympathie,mapendano,s,dhamiria,fungamano,maazimio,NA,qt,NA,3,NA,NA,NA,NA,NA,NA,NA,NA,NA,NA,NA,NA,NA,NA,NA,NA,NA,NA,NA
9df3d,shallow,flow.Sequence,3_0_3_0_5_1,NA,NA,completion,8133.5,851484.8,851482.8,851499.5,859633,859635.9,2025-01-29T17:23:07Z,859649.7,NULL,Sympathie,mapendano,s,dhamiria,fungamano,maazimio,NA,qt,NA,3,NA,NA,NA,NA,NA,NA,NA,NA,NA,NA,NA,NA,NA,NA,NA,NA,NA,NA,NA
9df3d,task,flow.Sequence,3_0_3_0_5,NA,NA,completion,8133.5,851484.6,851482.8,851499.5,859633,859635.9,2025-01-29T17:23:07Z,859649.7,NULL,Sympathie,mapendano,s,dhamiria,fungamano,maazimio,NA,qt,NA,3,NA,NA,NA,NA,NA,NA,NA,NA,NA,NA,NA,NA,NA,NA,NA,NA,NA,NA,NA
9df3d,deep,flow.Sequence,3_0_3_0_6_0,NA,NA,skipped,NA,859636,NA,NA,859633,859636.1,2025-01-29T17:23:07Z,859649.7,NULL,Schlange,foleni,s,uvumilivu,uteuzi,muuzaji,NA,qt,NA,3,NA,NA,NA,NA,NA,NA,NA,NA,NA,NA,NA,NA,NA,NA,NA,NA,NA,NA,NA
9df3d,Shallow Question,html.Page,3_0_3_0_6_1_0,NA,NA,form submission,2417.2000000004,859636.1,859633,859649.7,862066.9,862067.4,2025-01-29T17:23:09Z,862066.6,NULL,Schlange,foleni,s,uvumilivu,uteuzi,muuzaji,foleni,NA,NA,3,NA,NA,NA,NA,NA,NA,NA,NA,NA,NA,NA,NA,NA,NA,NA,NA,NA,NA,NA
9df3d,"""Richtig""-Screen",canvas.Screen,3_0_3_0_6_1_1,NA,NA,timeout,4999.6,862068.5,862066.562,862066.6,867049.7,867050.5,2025-01-29T17:23:14Z,867066.2,NULL,Schlange,foleni,s,uvumilivu,uteuzi,muuzaji,NA,qt,1,3,NA,NA,NA,NA,NA,NA,NA,NA,NA,NA,NA,NA,NA,NA,NA,NA,NA,NA,NA
9df3d,"""Falsch""-Screen",canvas.Screen,3_0_3_0_6_1_2,NA,NA,skipped,NA,867052.6,NA,NA,867049.7,867052.7,2025-01-29T17:23:14Z,867066.2,NULL,Schlange,foleni,s,uvumilivu,uteuzi,muuzaji,NA,qt,NA,3,NA,NA,NA,NA,NA,NA,NA,NA,NA,NA,NA,NA,NA,NA,NA,NA,NA,NA,NA
9df3d,shallow,flow.Sequence,3_0_3_0_6_1,NA,NA,completion,7400,859636.1,859633,859649.7,867049.7,867052.9,2025-01-29T17:23:14Z,867066.2,NULL,Schlange,foleni,s,uvumilivu,uteuzi,muuzaji,NA,qt,NA,3,NA,NA,NA,NA,NA,NA,NA,NA,NA,NA,NA,NA,NA,NA,NA,NA,NA,NA,NA
9df3d,task,flow.Sequence,3_0_3_0_6,NA,NA,completion,7400,859636,859633,859649.7,867049.7,867053.1,2025-01-29T17:23:14Z,867066.2,NULL,Schlange,foleni,s,uvumilivu,uteuzi,muuzaji,NA,qt,NA,3,NA,NA,NA,NA,NA,NA,NA,NA,NA,NA,NA,NA,NA,NA,NA,NA,NA,NA,NA
9df3d,Deep Question,html.Page,3_0_3_0_7_0_0,NA,NA,form submission,4581.8,867053.2,867049.7,867066.2,871648,871648.4,2025-01-29T17:23:19Z,871650.026,NULL,Vermutung,udhanifu,d,NA,NA,NA,udhanifu,NA,NA,3,NA,NA,NA,NA,NA,NA,NA,NA,NA,NA,NA,NA,NA,NA,NA,NA,NA,NA,NA
9df3d,"""Richtig""-Screen",canvas.Screen,3_0_3_0_7_0_1,NA,NA,timeout,4999.974,871649.2,871650.026,871650.026,876633.3,876634.2,2025-01-29T17:23:24Z,876650,NULL,Vermutung,udhanifu,d,NA,NA,NA,NA,qt,1,3,NA,NA,NA,NA,NA,NA,NA,NA,NA,NA,NA,NA,NA,NA,NA,NA,NA,NA,NA
9df3d,"""Falsch""-Screen",canvas.Screen,3_0_3_0_7_0_2,NA,NA,skipped,NA,876636.2,NA,NA,876633.3,876636.3,2025-01-29T17:23:24Z,876650,NULL,Vermutung,udhanifu,d,NA,NA,NA,NA,qt,NA,3,NA,NA,NA,NA,NA,NA,NA,NA,NA,NA,NA,NA,NA,NA,NA,NA,NA,NA,NA
9df3d,deep,flow.Sequence,3_0_3_0_7_0,NA,NA,completion,9567.1000000001,867053.2,867049.7,867066.2,876633.3,876636.4,2025-01-29T17:23:24Z,876650,NULL,Vermutung,udhanifu,d,NA,NA,NA,NA,qt,NA,3,NA,NA,NA,NA,NA,NA,NA,NA,NA,NA,NA,NA,NA,NA,NA,NA,NA,NA,NA
9df3d,shallow,flow.Sequence,3_0_3_0_7_1,NA,NA,skipped,NA,876636.5,NA,NA,876633.3,876636.5,2025-01-29T17:23:24Z,876650,NULL,Vermutung,udhanifu,d,NA,NA,NA,NA,qt,NA,3,NA,NA,NA,NA,NA,NA,NA,NA,NA,NA,NA,NA,NA,NA,NA,NA,NA,NA,NA
9df3d,task,flow.Sequence,3_0_3_0_7,NA,NA,completion,9567.1000000001,867053.2,867049.7,867066.2,876633.3,876636.7,2025-01-29T17:23:24Z,876650,NULL,Vermutung,udhanifu,d,NA,NA,NA,NA,qt,NA,3,NA,NA,NA,NA,NA,NA,NA,NA,NA,NA,NA,NA,NA,NA,NA,NA,NA,NA,NA
9df3d,block,flow.Loop,3_0_3_0,NA,NA,completion,73567.4,803044.8,803032.648,803065.9,876633.3,876636.8,2025-01-29T17:23:24Z,876650,NULL,NA,NA,NA,NA,NA,NA,NA,qt,NA,3,NA,NA,NA,NA,NA,NA,NA,NA,NA,NA,NA,NA,NA,NA,NA,NA,NA,NA,NA
9df3d,weiter,canvas.Screen,3_0_3_1,sdf,keypress(Space),response,1020.8000000007,876636.8,876633.3,876650,877670.8,877675.1,2025-01-29T17:23:25Z,877700,NULL,NA,NA,NA,NA,NA,NA,NA,qt,NA,3,NA,NA,NA,NA,NA,NA,NA,NA,NA,NA,NA,NA,NA,NA,NA,NA,NA,NA,NA
9df3d,check continue,flow.Sequence,3_0_3,NA,NA,completion,74604.900000001,803044.8,803032.648,803065.9,877670.8,877675.3,2025-01-29T17:23:25Z,877700,NULL,NA,NA,NA,NA,NA,NA,NA,qt,NA,3,NA,NA,NA,NA,NA,NA,NA,NA,NA,NA,NA,NA,NA,NA,NA,NA,NA,NA,NA
9df3d,deep,flow.Sequence,3_0_4_0_0_0,NA,NA,skipped,NA,877690.2,NA,NA,877670.8,877690.3,2025-01-29T17:23:25Z,877700,NULL,Sympathie,mapendano,s,dhamiria,fungamano,maazimio,NA,sd,NA,4,NA,NA,NA,NA,NA,NA,NA,NA,NA,NA,NA,NA,NA,NA,NA,NA,NA,NA,NA
9df3d,Shallow Question,html.Page,3_0_4_0_0_1_0,NA,NA,form submission,2512.9000000004,877690.3,877683.328,877700,880212.9,880213.1,2025-01-29T17:23:27Z,880216.3,NULL,Sympathie,mapendano,s,dhamiria,fungamano,maazimio,mapendano,NA,NA,4,NA,NA,NA,NA,NA,NA,NA,NA,NA,NA,NA,NA,NA,NA,NA,NA,NA,NA,NA
9df3d,"""Richtig""-Screen",canvas.Screen,3_0_4_0_0_1_1,NA,NA,timeout,5000.2,880213.5,880200.146,880216.3,885199.8,885200.7,2025-01-29T17:23:32Z,885216.5,NULL,Sympathie,mapendano,s,dhamiria,fungamano,maazimio,NA,sd,1,4,NA,NA,NA,NA,NA,NA,NA,NA,NA,NA,NA,NA,NA,NA,NA,NA,NA,NA,NA
9df3d,"""Falsch""-Screen",canvas.Screen,3_0_4_0_0_1_2,NA,NA,skipped,NA,885201.9,NA,NA,885199.8,885202,2025-01-29T17:23:32Z,885216.5,NULL,Sympathie,mapendano,s,dhamiria,fungamano,maazimio,NA,sd,NA,4,NA,NA,NA,NA,NA,NA,NA,NA,NA,NA,NA,NA,NA,NA,NA,NA,NA,NA,NA
9df3d,shallow,flow.Sequence,3_0_4_0_0_1,NA,NA,completion,7499.8,877690.3,877683.328,877700,885199.8,885202,2025-01-29T17:23:32Z,885216.5,NULL,Sympathie,mapendano,s,dhamiria,fungamano,maazimio,NA,sd,NA,4,NA,NA,NA,NA,NA,NA,NA,NA,NA,NA,NA,NA,NA,NA,NA,NA,NA,NA,NA
9df3d,task,flow.Sequence,3_0_4_0_0,NA,NA,completion,7499.8,877690.2,877683.328,877700,885199.8,885202.2,2025-01-29T17:23:32Z,885216.5,NULL,Sympathie,mapendano,s,dhamiria,fungamano,maazimio,NA,sd,NA,4,NA,NA,NA,NA,NA,NA,NA,NA,NA,NA,NA,NA,NA,NA,NA,NA,NA,NA,NA
9df3d,Deep Question,html.Page,3_0_4_0_1_0_0,NA,NA,form submission,3742,885202.2,885199.8,885216.5,888958.5,888959,2025-01-29T17:23:36Z,888966.8,NULL,Polizist,msongora,d,NA,NA,NA,msongora,NA,NA,4,NA,NA,NA,NA,NA,NA,NA,NA,NA,NA,NA,NA,NA,NA,NA,NA,NA,NA,NA
9df3d,"""Richtig""-Screen",canvas.Screen,3_0_4_0_1_0_1,NA,NA,timeout,4999.7999999999,888959.9,888950.198,888966.8,893950.1,893951.1,2025-01-29T17:23:41Z,893966.6,NULL,Polizist,msongora,d,NA,NA,NA,NA,sd,1,4,NA,NA,NA,NA,NA,NA,NA,NA,NA,NA,NA,NA,NA,NA,NA,NA,NA,NA,NA
9df3d,"""Falsch""-Screen",canvas.Screen,3_0_4_0_1_0_2,NA,NA,skipped,NA,893952.5,NA,NA,893950.1,893952.5,2025-01-29T17:23:41Z,893966.6,NULL,Polizist,msongora,d,NA,NA,NA,NA,sd,NA,4,NA,NA,NA,NA,NA,NA,NA,NA,NA,NA,NA,NA,NA,NA,NA,NA,NA,NA,NA
9df3d,deep,flow.Sequence,3_0_4_0_1_0,NA,NA,completion,8733.6,885202.2,885199.8,885216.5,893950.1,893952.7,2025-01-29T17:23:41Z,893966.6,NULL,Polizist,msongora,d,NA,NA,NA,NA,sd,NA,4,NA,NA,NA,NA,NA,NA,NA,NA,NA,NA,NA,NA,NA,NA,NA,NA,NA,NA,NA
9df3d,shallow,flow.Sequence,3_0_4_0_1_1,NA,NA,skipped,NA,893952.8,NA,NA,893950.1,893952.8,2025-01-29T17:23:41Z,893966.6,NULL,Polizist,msongora,d,NA,NA,NA,NA,sd,NA,4,NA,NA,NA,NA,NA,NA,NA,NA,NA,NA,NA,NA,NA,NA,NA,NA,NA,NA,NA
9df3d,task,flow.Sequence,3_0_4_0_1,NA,NA,completion,8733.6,885202.2,885199.8,885216.5,893950.1,893952.9,2025-01-29T17:23:41Z,893966.6,NULL,Polizist,msongora,d,NA,NA,NA,NA,sd,NA,4,NA,NA,NA,NA,NA,NA,NA,NA,NA,NA,NA,NA,NA,NA,NA,NA,NA,NA,NA
9df3d,deep,flow.Sequence,3_0_4_0_2_0,NA,NA,skipped,NA,893952.9,NA,NA,893950.1,893953,2025-01-29T17:23:41Z,893966.6,NULL,Annäherung,maegesho,s,madahili,kujiamini,mapendekezo,NA,sd,NA,4,NA,NA,NA,NA,NA,NA,NA,NA,NA,NA,NA,NA,NA,NA,NA,NA,NA,NA,NA
9df3d,Shallow Question,html.Page,3_0_4_0_2_1_0,NA,NA,form submission,5893.3000000004,893953.1,893950.1,893966.6,899859.9,899860.4,2025-01-29T17:23:47Z,899866.9,NULL,Annäherung,maegesho,s,madahili,kujiamini,mapendekezo,maegesho,NA,NA,4,NA,NA,NA,NA,NA,NA,NA,NA,NA,NA,NA,NA,NA,NA,NA,NA,NA,NA,NA
9df3d,"""Richtig""-Screen",canvas.Screen,3_0_4_0_2_1_1,NA,NA,timeout,5000,899861.4,899850.3,899866.9,904850.2,904851.1,2025-01-29T17:23:52Z,904866.9,NULL,Annäherung,maegesho,s,madahili,kujiamini,mapendekezo,NA,sd,1,4,NA,NA,NA,NA,NA,NA,NA,NA,NA,NA,NA,NA,NA,NA,NA,NA,NA,NA,NA
9df3d,"""Falsch""-Screen",canvas.Screen,3_0_4_0_2_1_2,NA,NA,skipped,NA,904853.3,NA,NA,904850.2,904853.4,2025-01-29T17:23:52Z,904866.9,NULL,Annäherung,maegesho,s,madahili,kujiamini,mapendekezo,NA,sd,NA,4,NA,NA,NA,NA,NA,NA,NA,NA,NA,NA,NA,NA,NA,NA,NA,NA,NA,NA,NA
9df3d,shallow,flow.Sequence,3_0_4_0_2_1,NA,NA,completion,10883.6,893953.1,893950.1,893966.6,904850.2,904853.6,2025-01-29T17:23:52Z,904866.9,NULL,Annäherung,maegesho,s,madahili,kujiamini,mapendekezo,NA,sd,NA,4,NA,NA,NA,NA,NA,NA,NA,NA,NA,NA,NA,NA,NA,NA,NA,NA,NA,NA,NA
9df3d,task,flow.Sequence,3_0_4_0_2,NA,NA,completion,10883.6,893952.9,893950.1,893966.6,904850.2,904853.8,2025-01-29T17:23:52Z,904866.9,NULL,Annäherung,maegesho,s,madahili,kujiamini,mapendekezo,NA,sd,NA,4,NA,NA,NA,NA,NA,NA,NA,NA,NA,NA,NA,NA,NA,NA,NA,NA,NA,NA,NA
9df3d,deep,flow.Sequence,3_0_4_0_3_0,NA,NA,skipped,NA,904853.9,NA,NA,904850.2,904854,2025-01-29T17:23:52Z,904866.9,NULL,Toleranz,kuvumiliana,s,maombolezo,ujasusi,mchekeshaji,NA,sd,NA,4,NA,NA,NA,NA,NA,NA,NA,NA,NA,NA,NA,NA,NA,NA,NA,NA,NA,NA,NA
9df3d,Shallow Question,html.Page,3_0_4_0_3_1_0,NA,NA,form submission,1724.4000000007,904854.1,904850.2,904866.9,906591.3,906591.6,2025-01-29T17:23:54Z,906600.3,NULL,Toleranz,kuvumiliana,s,maombolezo,ujasusi,mchekeshaji,kuvumiliana,NA,NA,4,NA,NA,NA,NA,NA,NA,NA,NA,NA,NA,NA,NA,NA,NA,NA,NA,NA,NA,NA
9df3d,"""Richtig""-Screen",canvas.Screen,3_0_4_0_3_1_1,NA,NA,timeout,4999.8999999999,906592.5,906583.7,906600.3,911583.4,911584.3,2025-01-29T17:23:58Z,911600.2,NULL,Toleranz,kuvumiliana,s,maombolezo,ujasusi,mchekeshaji,NA,sd,1,4,NA,NA,NA,NA,NA,NA,NA,NA,NA,NA,NA,NA,NA,NA,NA,NA,NA,NA,NA
9df3d,"""Falsch""-Screen",canvas.Screen,3_0_4_0_3_1_2,NA,NA,skipped,NA,911586.2,NA,NA,911583.4,911586.3,2025-01-29T17:23:58Z,911600.2,NULL,Toleranz,kuvumiliana,s,maombolezo,ujasusi,mchekeshaji,NA,sd,NA,4,NA,NA,NA,NA,NA,NA,NA,NA,NA,NA,NA,NA,NA,NA,NA,NA,NA,NA,NA
9df3d,shallow,flow.Sequence,3_0_4_0_3_1,NA,NA,completion,6716.5,904854.1,904850.2,904866.9,911583.4,911586.6,2025-01-29T17:23:58Z,911600.2,NULL,Toleranz,kuvumiliana,s,maombolezo,ujasusi,mchekeshaji,NA,sd,NA,4,NA,NA,NA,NA,NA,NA,NA,NA,NA,NA,NA,NA,NA,NA,NA,NA,NA,NA,NA
9df3d,task,flow.Sequence,3_0_4_0_3,NA,NA,completion,6716.5,904853.8,904850.2,904866.9,911583.4,911586.7,2025-01-29T17:23:58Z,911600.2,NULL,Toleranz,kuvumiliana,s,maombolezo,ujasusi,mchekeshaji,NA,sd,NA,4,NA,NA,NA,NA,NA,NA,NA,NA,NA,NA,NA,NA,NA,NA,NA,NA,NA,NA,NA
9df3d,Deep Question,html.Page,3_0_4_0_4_0_0,NA,NA,form submission,4425.6000000008,911586.9,911583.4,911600.2,916025.8,916026.1,2025-01-29T17:24:03Z,916033.8,NULL,Vermutung,udhanifu,d,NA,NA,NA,udhanifu,NA,NA,4,NA,NA,NA,NA,NA,NA,NA,NA,NA,NA,NA,NA,NA,NA,NA,NA,NA,NA,NA
9df3d,"""Richtig""-Screen",canvas.Screen,3_0_4_0_4_0_1,NA,NA,timeout,4999.7999999999,916027,916017.162,916033.8,921016.9,921017.8,2025-01-29T17:24:08Z,921033.6,NULL,Vermutung,udhanifu,d,NA,NA,NA,NA,sd,1,4,NA,NA,NA,NA,NA,NA,NA,NA,NA,NA,NA,NA,NA,NA,NA,NA,NA,NA,NA
9df3d,"""Falsch""-Screen",canvas.Screen,3_0_4_0_4_0_2,NA,NA,skipped,NA,921019.7,NA,NA,921016.9,921019.9,2025-01-29T17:24:08Z,921033.6,NULL,Vermutung,udhanifu,d,NA,NA,NA,NA,sd,NA,4,NA,NA,NA,NA,NA,NA,NA,NA,NA,NA,NA,NA,NA,NA,NA,NA,NA,NA,NA
9df3d,deep,flow.Sequence,3_0_4_0_4_0,NA,NA,completion,9416.7000000001,911586.9,911583.4,911600.2,921016.9,921020.1,2025-01-29T17:24:08Z,921033.6,NULL,Vermutung,udhanifu,d,NA,NA,NA,NA,sd,NA,4,NA,NA,NA,NA,NA,NA,NA,NA,NA,NA,NA,NA,NA,NA,NA,NA,NA,NA,NA
9df3d,shallow,flow.Sequence,3_0_4_0_4_1,NA,NA,skipped,NA,921020.2,NA,NA,921016.9,921020.3,2025-01-29T17:24:08Z,921033.6,NULL,Vermutung,udhanifu,d,NA,NA,NA,NA,sd,NA,4,NA,NA,NA,NA,NA,NA,NA,NA,NA,NA,NA,NA,NA,NA,NA,NA,NA,NA,NA
9df3d,task,flow.Sequence,3_0_4_0_4,NA,NA,completion,9416.7000000001,911586.8,911583.4,911600.2,921016.9,921020.4,2025-01-29T17:24:08Z,921033.6,NULL,Vermutung,udhanifu,d,NA,NA,NA,NA,sd,NA,4,NA,NA,NA,NA,NA,NA,NA,NA,NA,NA,NA,NA,NA,NA,NA,NA,NA,NA,NA
9df3d,deep,flow.Sequence,3_0_4_0_5_0,NA,NA,skipped,NA,921020.6,NA,NA,921016.9,921020.7,2025-01-29T17:24:08Z,921033.6,NULL,Schlange,foleni,s,uvumilivu,uteuzi,muuzaji,NA,sd,NA,4,NA,NA,NA,NA,NA,NA,NA,NA,NA,NA,NA,NA,NA,NA,NA,NA,NA,NA,NA
9df3d,Shallow Question,html.Page,3_0_4_0_5_1_0,NA,NA,form submission,2130.5000000015,921020.7,921016.9,921033.6,923164.1,923164.6,2025-01-29T17:24:10Z,923183.9,NULL,Schlange,foleni,s,uvumilivu,uteuzi,muuzaji,foleni,NA,NA,4,NA,NA,NA,NA,NA,NA,NA,NA,NA,NA,NA,NA,NA,NA,NA,NA,NA,NA,NA
9df3d,"""Richtig""-Screen",canvas.Screen,3_0_4_0_5_1_1,NA,NA,timeout,4999.9,923165.6,923167.2,923183.9,928166.1,928168.2,2025-01-29T17:24:15Z,928183.8,NULL,Schlange,foleni,s,uvumilivu,uteuzi,muuzaji,NA,sd,1,4,NA,NA,NA,NA,NA,NA,NA,NA,NA,NA,NA,NA,NA,NA,NA,NA,NA,NA,NA
9df3d,"""Falsch""-Screen",canvas.Screen,3_0_4_0_5_1_2,NA,NA,skipped,NA,928170,NA,NA,928166.1,928170.2,2025-01-29T17:24:15Z,928183.8,NULL,Schlange,foleni,s,uvumilivu,uteuzi,muuzaji,NA,sd,NA,4,NA,NA,NA,NA,NA,NA,NA,NA,NA,NA,NA,NA,NA,NA,NA,NA,NA,NA,NA
9df3d,shallow,flow.Sequence,3_0_4_0_5_1,NA,NA,completion,7132.5,921020.7,921016.9,921033.6,928166.1,928170.4,2025-01-29T17:24:15Z,928183.8,NULL,Schlange,foleni,s,uvumilivu,uteuzi,muuzaji,NA,sd,NA,4,NA,NA,NA,NA,NA,NA,NA,NA,NA,NA,NA,NA,NA,NA,NA,NA,NA,NA,NA
9df3d,task,flow.Sequence,3_0_4_0_5,NA,NA,completion,7132.5,921020.6,921016.9,921033.6,928166.1,928170.4,2025-01-29T17:24:15Z,928183.8,NULL,Schlange,foleni,s,uvumilivu,uteuzi,muuzaji,NA,sd,NA,4,NA,NA,NA,NA,NA,NA,NA,NA,NA,NA,NA,NA,NA,NA,NA,NA,NA,NA,NA
9df3d,Deep Question,html.Page,3_0_4_0_6_0_0,NA,NA,form submission,7946.9000000011,928170.6,928166.1,928183.8,936130.7,936131.1,2025-01-29T17:24:23Z,936133.9,NULL,Beweis,ushahidi,d,NA,NA,NA,udhanifu,NA,NA,4,NA,NA,NA,NA,NA,NA,NA,NA,NA,NA,NA,NA,NA,NA,NA,NA,NA,NA,NA
9df3d,"""Richtig""-Screen",canvas.Screen,3_0_4_0_6_0_1,NA,NA,skipped,NA,936132.1,NA,NA,936130.7,936132.2,2025-01-29T17:24:23Z,936133.9,NULL,Beweis,ushahidi,d,NA,NA,NA,NA,sd,NA,4,NA,NA,NA,NA,NA,NA,NA,NA,NA,NA,NA,NA,NA,NA,NA,NA,NA,NA,NA
9df3d,"""Falsch""-Screen",canvas.Screen,3_0_4_0_6_0_2,NA,NA,timeout,5000.1,936132.6,936117.4,936133.9,941117.3,941118.1,2025-01-29T17:24:28Z,941134,NULL,Beweis,ushahidi,d,NA,NA,NA,NA,sd,0,4,NA,NA,NA,NA,NA,NA,NA,NA,NA,NA,NA,NA,NA,NA,NA,NA,NA,NA,NA
9df3d,deep,flow.Sequence,3_0_4_0_6_0,NA,NA,completion,12933.5,928170.6,928166.1,928183.8,941117.3,941118.5,2025-01-29T17:24:28Z,941134,NULL,Beweis,ushahidi,d,NA,NA,NA,NA,sd,NA,4,NA,NA,NA,NA,NA,NA,NA,NA,NA,NA,NA,NA,NA,NA,NA,NA,NA,NA,NA
9df3d,shallow,flow.Sequence,3_0_4_0_6_1,NA,NA,skipped,NA,941118.7,NA,NA,941117.3,941118.8,2025-01-29T17:24:28Z,941134,NULL,Beweis,ushahidi,d,NA,NA,NA,NA,sd,NA,4,NA,NA,NA,NA,NA,NA,NA,NA,NA,NA,NA,NA,NA,NA,NA,NA,NA,NA,NA
9df3d,task,flow.Sequence,3_0_4_0_6,NA,NA,completion,12933.5,928170.4,928166.1,928183.8,941117.3,941118.9,2025-01-29T17:24:28Z,941134,NULL,Beweis,ushahidi,d,NA,NA,NA,NA,sd,NA,4,NA,NA,NA,NA,NA,NA,NA,NA,NA,NA,NA,NA,NA,NA,NA,NA,NA,NA,NA
9df3d,Deep Question,html.Page,3_0_4_0_7_0_0,NA,NA,form submission,4969.2000000011,941119.2,941117.3,941134,946103.2,946103.7,2025-01-29T17:24:33Z,946116.5,NULL,Inhalt,yaliyomo,d,NA,NA,NA,yaliyomo,NA,NA,4,NA,NA,NA,NA,NA,NA,NA,NA,NA,NA,NA,NA,NA,NA,NA,NA,NA,NA,NA
9df3d,"""Richtig""-Screen",canvas.Screen,3_0_4_0_7_0_1,NA,NA,timeout,5000.8,946104.8,946100.8,946116.5,951100.6,951101.3,2025-01-29T17:24:38Z,951117.3,NULL,Inhalt,yaliyomo,d,NA,NA,NA,NA,sd,1,4,NA,NA,NA,NA,NA,NA,NA,NA,NA,NA,NA,NA,NA,NA,NA,NA,NA,NA,NA
9df3d,"""Falsch""-Screen",canvas.Screen,3_0_4_0_7_0_2,NA,NA,skipped,NA,951103.6,NA,NA,951100.6,951103.8,2025-01-29T17:24:38Z,951117.3,NULL,Inhalt,yaliyomo,d,NA,NA,NA,NA,sd,NA,4,NA,NA,NA,NA,NA,NA,NA,NA,NA,NA,NA,NA,NA,NA,NA,NA,NA,NA,NA
9df3d,deep,flow.Sequence,3_0_4_0_7_0,NA,NA,completion,9966.6,941119.1,941117.3,941134,951100.6,951104,2025-01-29T17:24:38Z,951117.3,NULL,Inhalt,yaliyomo,d,NA,NA,NA,NA,sd,NA,4,NA,NA,NA,NA,NA,NA,NA,NA,NA,NA,NA,NA,NA,NA,NA,NA,NA,NA,NA
9df3d,shallow,flow.Sequence,3_0_4_0_7_1,NA,NA,skipped,NA,951104,NA,NA,951100.6,951104,2025-01-29T17:24:38Z,951117.3,NULL,Inhalt,yaliyomo,d,NA,NA,NA,NA,sd,NA,4,NA,NA,NA,NA,NA,NA,NA,NA,NA,NA,NA,NA,NA,NA,NA,NA,NA,NA,NA
9df3d,task,flow.Sequence,3_0_4_0_7,NA,NA,completion,9966.6,941119.1,941117.3,941134,951100.6,951104.1,2025-01-29T17:24:38Z,951117.3,NULL,Inhalt,yaliyomo,d,NA,NA,NA,NA,sd,NA,4,NA,NA,NA,NA,NA,NA,NA,NA,NA,NA,NA,NA,NA,NA,NA,NA,NA,NA,NA
9df3d,block,flow.Loop,3_0_4_0,NA,NA,completion,73400.6,877690.2,877683.328,877700,951100.6,951104.3,2025-01-29T17:24:38Z,951117.3,NULL,NA,NA,NA,NA,NA,NA,NA,sd,NA,4,NA,NA,NA,NA,NA,NA,NA,NA,NA,NA,NA,NA,NA,NA,NA,NA,NA,NA,NA
9df3d,weiter,canvas.Screen,3_0_4_1,sdf,keypress(Space),response,709.0000000007,951104.4,951100.6,951117.3,951826.3,951830.8,2025-01-29T17:24:39Z,952017.4,NULL,NA,NA,NA,NA,NA,NA,NA,sd,NA,4,NA,NA,NA,NA,NA,NA,NA,NA,NA,NA,NA,NA,NA,NA,NA,NA,NA,NA,NA
9df3d,check continue,flow.Sequence,3_0_4,NA,NA,completion,74126.300000001,877690.2,877683.328,877700,951826.3,951831.1,2025-01-29T17:24:39Z,952017.4,NULL,NA,NA,NA,NA,NA,NA,NA,sd,NA,4,NA,NA,NA,NA,NA,NA,NA,NA,NA,NA,NA,NA,NA,NA,NA,NA,NA,NA,NA
9df3d,check continue,flow.Sequence,3_0_5,NA,NA,skipped,NA,951844.6,NA,NA,951826.3,951844.7,2025-01-29T17:24:39Z,952017.4,NULL,NA,NA,NA,NA,NA,NA,NA,sdf,NA,5,NA,NA,NA,NA,NA,NA,NA,NA,NA,NA,NA,NA,NA,NA,NA,NA,NA,NA,NA
9df3d,check continue,flow.Sequence,3_0_6,NA,NA,skipped,NA,951853.3,NA,NA,951826.3,951853.4,2025-01-29T17:24:39Z,952017.4,NULL,NA,NA,NA,NA,NA,NA,NA,dfs,NA,6,NA,NA,NA,NA,NA,NA,NA,NA,NA,NA,NA,NA,NA,NA,NA,NA,NA,NA,NA
9df3d,check continue,flow.Sequence,3_0_7,NA,NA,skipped,NA,951861.7,NA,NA,951826.3,951861.7,2025-01-29T17:24:39Z,952017.4,NULL,NA,NA,NA,NA,NA,NA,NA,df,NA,7,NA,NA,NA,NA,NA,NA,NA,NA,NA,NA,NA,NA,NA,NA,NA,NA,NA,NA,NA
9df3d,check continue,flow.Sequence,3_0_8,NA,NA,skipped,NA,951869.8,NA,NA,951826.3,951869.8,2025-01-29T17:24:39Z,952017.4,NULL,NA,NA,NA,NA,NA,NA,NA,dfs,NA,8,NA,NA,NA,NA,NA,NA,NA,NA,NA,NA,NA,NA,NA,NA,NA,NA,NA,NA,NA
9df3d,check continue,flow.Sequence,3_0_9,NA,NA,skipped,NA,951877.9,NA,NA,951826.3,951878,2025-01-29T17:24:39Z,952017.4,NULL,NA,NA,NA,NA,NA,NA,NA,dsf,NA,9,NA,NA,NA,NA,NA,NA,NA,NA,NA,NA,NA,NA,NA,NA,NA,NA,NA,NA,NA
9df3d,check continue,flow.Sequence,3_0_10,NA,NA,skipped,NA,951886.5,NA,NA,951826.3,951886.5,2025-01-29T17:24:39Z,952017.4,NULL,NA,NA,NA,NA,NA,NA,NA,df,NA,10,NA,NA,NA,NA,NA,NA,NA,NA,NA,NA,NA,NA,NA,NA,NA,NA,NA,NA,NA
9df3d,check continue,flow.Sequence,3_0_11,NA,NA,skipped,NA,951894.7,NA,NA,951826.3,951894.7,2025-01-29T17:24:39Z,952017.4,NULL,NA,NA,NA,NA,NA,NA,NA,dfs,NA,11,NA,NA,NA,NA,NA,NA,NA,NA,NA,NA,NA,NA,NA,NA,NA,NA,NA,NA,NA
9df3d,check continue,flow.Sequence,3_0_12,NA,NA,skipped,NA,951902.5,NA,NA,951826.3,951902.5,2025-01-29T17:24:39Z,952017.4,NULL,NA,NA,NA,NA,NA,NA,NA,dsf,NA,12,NA,NA,NA,NA,NA,NA,NA,NA,NA,NA,NA,NA,NA,NA,NA,NA,NA,NA,NA
9df3d,check continue,flow.Sequence,3_0_13,NA,NA,skipped,NA,951909.9,NA,NA,951826.3,951910,2025-01-29T17:24:39Z,952017.4,NULL,NA,NA,NA,NA,NA,NA,NA,dsf,NA,13,NA,NA,NA,NA,NA,NA,NA,NA,NA,NA,NA,NA,NA,NA,NA,NA,NA,NA,NA
9df3d,check continue,flow.Sequence,3_0_14,NA,NA,skipped,NA,951916.5,NA,NA,951826.3,951916.5,2025-01-29T17:24:39Z,952017.4,NULL,NA,NA,NA,NA,NA,NA,NA,NA,NA,14,NA,NA,NA,NA,NA,NA,NA,NA,NA,NA,NA,NA,NA,NA,NA,NA,NA,NA,NA
9df3d,check continue,flow.Sequence,3_0_15,NA,NA,skipped,NA,951922.9,NA,NA,951826.3,951922.9,2025-01-29T17:24:39Z,952017.4,NULL,NA,NA,NA,NA,NA,NA,NA,NA,NA,15,NA,NA,NA,NA,NA,NA,NA,NA,NA,NA,NA,NA,NA,NA,NA,NA,NA,NA,NA
9df3d,check continue,flow.Sequence,3_0_16,NA,NA,skipped,NA,951928.8,NA,NA,951826.3,951928.9,2025-01-29T17:24:39Z,952017.4,NULL,NA,NA,NA,NA,NA,NA,NA,NA,NA,16,NA,NA,NA,NA,NA,NA,NA,NA,NA,NA,NA,NA,NA,NA,NA,NA,NA,NA,NA
9df3d,check continue,flow.Sequence,3_0_17,NA,NA,skipped,NA,951935.3,NA,NA,951826.3,951935.3,2025-01-29T17:24:39Z,952017.4,NULL,NA,NA,NA,NA,NA,NA,NA,NA,NA,17,NA,NA,NA,NA,NA,NA,NA,NA,NA,NA,NA,NA,NA,NA,NA,NA,NA,NA,NA
9df3d,check continue,flow.Sequence,3_0_18,NA,NA,skipped,NA,951941,NA,NA,951826.3,951941.1,2025-01-29T17:24:39Z,952017.4,NULL,NA,NA,NA,NA,NA,NA,NA,NA,NA,18,NA,NA,NA,NA,NA,NA,NA,NA,NA,NA,NA,NA,NA,NA,NA,NA,NA,NA,NA
9df3d,check continue,flow.Sequence,3_0_19,NA,NA,skipped,NA,951947,NA,NA,951826.3,951947,2025-01-29T17:24:39Z,952017.4,NULL,NA,NA,NA,NA,NA,NA,NA,NA,NA,19,NA,NA,NA,NA,NA,NA,NA,NA,NA,NA,NA,NA,NA,NA,NA,NA,NA,NA,NA
9df3d,check continue,flow.Sequence,3_0_20,NA,NA,skipped,NA,951952.6,NA,NA,951826.3,951952.6,2025-01-29T17:24:39Z,952017.4,NULL,NA,NA,NA,NA,NA,NA,NA,NA,NA,20,NA,NA,NA,NA,NA,NA,NA,NA,NA,NA,NA,NA,NA,NA,NA,NA,NA,NA,NA
9df3d,check continue,flow.Sequence,3_0_21,NA,NA,skipped,NA,951958.6,NA,NA,951826.3,951958.6,2025-01-29T17:24:39Z,952017.4,NULL,NA,NA,NA,NA,NA,NA,NA,NA,NA,21,NA,NA,NA,NA,NA,NA,NA,NA,NA,NA,NA,NA,NA,NA,NA,NA,NA,NA,NA
9df3d,check continue,flow.Sequence,3_0_22,NA,NA,skipped,NA,951963.8,NA,NA,951826.3,951963.8,2025-01-29T17:24:39Z,952017.4,NULL,NA,NA,NA,NA,NA,NA,NA,NA,NA,22,NA,NA,NA,NA,NA,NA,NA,NA,NA,NA,NA,NA,NA,NA,NA,NA,NA,NA,NA
9df3d,check continue,flow.Sequence,3_0_23,NA,NA,skipped,NA,951969.7,NA,NA,951826.3,951969.7,2025-01-29T17:24:39Z,952017.4,NULL,NA,NA,NA,NA,NA,NA,NA,NA,NA,23,NA,NA,NA,NA,NA,NA,NA,NA,NA,NA,NA,NA,NA,NA,NA,NA,NA,NA,NA
9df3d,check continue,flow.Sequence,3_0_24,NA,NA,skipped,NA,951975.3,NA,NA,951826.3,951975.4,2025-01-29T17:24:39Z,952017.4,NULL,NA,NA,NA,NA,NA,NA,NA,NA,NA,24,NA,NA,NA,NA,NA,NA,NA,NA,NA,NA,NA,NA,NA,NA,NA,NA,NA,NA,NA
9df3d,check continue,flow.Sequence,3_0_25,NA,NA,skipped,NA,951981.2,NA,NA,951826.3,951981.2,2025-01-29T17:24:39Z,952017.4,NULL,NA,NA,NA,NA,NA,NA,NA,NA,NA,25,NA,NA,NA,NA,NA,NA,NA,NA,NA,NA,NA,NA,NA,NA,NA,NA,NA,NA,NA
9df3d,check continue,flow.Sequence,3_0_26,NA,NA,skipped,NA,951986.4,NA,NA,951826.3,951986.4,2025-01-29T17:24:39Z,952017.4,NULL,NA,NA,NA,NA,NA,NA,NA,NA,NA,26,NA,NA,NA,NA,NA,NA,NA,NA,NA,NA,NA,NA,NA,NA,NA,NA,NA,NA,NA
9df3d,check continue,flow.Sequence,3_0_27,NA,NA,skipped,NA,951992.3,NA,NA,951826.3,951992.4,2025-01-29T17:24:39Z,952017.4,NULL,NA,NA,NA,NA,NA,NA,NA,NA,NA,27,NA,NA,NA,NA,NA,NA,NA,NA,NA,NA,NA,NA,NA,NA,NA,NA,NA,NA,NA
9df3d,check continue,flow.Sequence,3_0_28,NA,NA,skipped,NA,951997.7,NA,NA,951826.3,951997.7,2025-01-29T17:24:39Z,952017.4,NULL,NA,NA,NA,NA,NA,NA,NA,NA,NA,28,NA,NA,NA,NA,NA,NA,NA,NA,NA,NA,NA,NA,NA,NA,NA,NA,NA,NA,NA
9df3d,check continue,flow.Sequence,3_0_29,NA,NA,skipped,NA,952003.9,NA,NA,951826.3,952004,2025-01-29T17:24:39Z,952017.4,NULL,NA,NA,NA,NA,NA,NA,NA,NA,NA,29,NA,NA,NA,NA,NA,NA,NA,NA,NA,NA,NA,NA,NA,NA,NA,NA,NA,NA,NA
9df3d,until continue,flow.Loop,3_0,NA,NA,completion,332079.1,619712.2,619713.9,619747.2,951826.3,952004,2025-01-29T17:24:39Z,952017.4,NULL,NA,NA,NA,NA,NA,NA,NA,NA,NA,NA,NA,NA,NA,NA,NA,NA,NA,NA,NA,NA,NA,NA,NA,NA,NA,NA,NA,NA,NA
9df3d,block 1,flow.Sequence,3,NA,NA,completion,332079.1,619712.2,619713.9,619747.2,951826.3,952004,2025-01-29T17:24:39Z,952017.4,NULL,NA,NA,NA,NA,NA,NA,NA,NA,NA,NA,NA,NA,NA,NA,NA,NA,NA,NA,NA,NA,NA,NA,NA,NA,NA,NA,NA,NA,NA
9df3d,1.Part Over,canvas.Screen,4,NA,keypress(Space),response,1119.8000000011,952004,952000.6,952017.4,953137.2,953142,2025-01-29T17:24:40Z,953183.5,NULL,NA,NA,NA,NA,NA,NA,NA,NA,NA,NA,NA,NA,NA,NA,NA,NA,NA,NA,NA,NA,NA,NA,NA,NA,NA,NA,NA,NA,NA
9df3d,deep,flow.Sequence,5_0_0_0_0_0,NA,NA,skipped,NA,953171.5,NA,NA,953137.2,953171.5,2025-01-29T17:24:40Z,953183.5,NULL,Theorie,nadharia,s,ushungi,mkutano,uwakilishi,NA,sdf,NA,0,NA,NA,NA,NA,NA,NA,NA,NA,NA,NA,NA,NA,NA,NA,NA,NA,NA,NA,NA
9df3d,Shallow Question,html.Page,5_0_0_0_0_1_0,NA,NA,form submission,2958.2000000011,953171.6,953167.512,953183.5,956141.7,956142.2,2025-01-29T17:24:43Z,956150.7,NULL,Theorie,nadharia,s,ushungi,mkutano,uwakilishi,mkutano,NA,NA,0,NA,NA,NA,NA,NA,NA,NA,NA,NA,NA,NA,NA,NA,NA,NA,NA,NA,NA,NA
9df3d,"""Richtig""-Screen",canvas.Screen,5_0_0_0_0_1_1,NA,NA,skipped,NA,956143.4,NA,NA,956141.7,956143.6,2025-01-29T17:24:43Z,956150.7,NULL,Theorie,nadharia,s,ushungi,mkutano,uwakilishi,NA,sdf,NA,0,NA,NA,NA,NA,NA,NA,NA,NA,NA,NA,NA,NA,NA,NA,NA,NA,NA,NA,NA
9df3d,"""Falsch""-Screen",canvas.Screen,5_0_0_0_0_1_2,NA,NA,timeout,5000,956144.1,956134.194,956150.7,961133.5,961134.3,2025-01-29T17:24:48Z,961150.7,NULL,Theorie,nadharia,s,ushungi,mkutano,uwakilishi,NA,sdf,0,0,NA,NA,NA,NA,NA,NA,NA,NA,NA,NA,NA,NA,NA,NA,NA,NA,NA,NA,NA
9df3d,shallow,flow.Sequence,5_0_0_0_0_1,NA,NA,completion,7950,953171.5,953167.512,953183.5,961133.5,961134.6,2025-01-29T17:24:48Z,961150.7,NULL,Theorie,nadharia,s,ushungi,mkutano,uwakilishi,NA,sdf,NA,0,NA,NA,NA,NA,NA,NA,NA,NA,NA,NA,NA,NA,NA,NA,NA,NA,NA,NA,NA
9df3d,task,flow.Sequence,5_0_0_0_0,NA,NA,completion,7950,953171.5,953167.512,953183.5,961133.5,961134.8,2025-01-29T17:24:48Z,961150.7,NULL,Theorie,nadharia,s,ushungi,mkutano,uwakilishi,NA,sdf,NA,0,NA,NA,NA,NA,NA,NA,NA,NA,NA,NA,NA,NA,NA,NA,NA,NA,NA,NA,NA
9df3d,Deep Question,html.Page,5_0_0_0_1_0_0,NA,NA,form submission,1707.9000000015,961135.1,961133.5,961150.7,962858.6,962859,2025-01-29T17:24:50Z,962867.5,NULL,Verpackung,ufungaji,d,NA,NA,NA,sdf,NA,NA,0,NA,NA,NA,NA,NA,NA,NA,NA,NA,NA,NA,NA,NA,NA,NA,NA,NA,NA,NA
9df3d,"""Richtig""-Screen",canvas.Screen,5_0_0_0_1_0_1,NA,NA,skipped,NA,962859.8,NA,NA,962858.6,962860,2025-01-29T17:24:50Z,962867.5,NULL,Verpackung,ufungaji,d,NA,NA,NA,NA,sdf,NA,0,NA,NA,NA,NA,NA,NA,NA,NA,NA,NA,NA,NA,NA,NA,NA,NA,NA,NA,NA
9df3d,"""Falsch""-Screen",canvas.Screen,5_0_0_0_1_0_2,NA,NA,timeout,5000.1,962860.5,962850.96,962867.5,967851,967851.6,2025-01-29T17:24:55Z,967867.6,NULL,Verpackung,ufungaji,d,NA,NA,NA,NA,sdf,0,0,NA,NA,NA,NA,NA,NA,NA,NA,NA,NA,NA,NA,NA,NA,NA,NA,NA,NA,NA
9df3d,deep,flow.Sequence,5_0_0_0_1_0,NA,NA,completion,6700.3,961135.1,961133.5,961150.7,967851,967851.7,2025-01-29T17:24:55Z,967867.6,NULL,Verpackung,ufungaji,d,NA,NA,NA,NA,sdf,NA,0,NA,NA,NA,NA,NA,NA,NA,NA,NA,NA,NA,NA,NA,NA,NA,NA,NA,NA,NA
9df3d,shallow,flow.Sequence,5_0_0_0_1_1,NA,NA,skipped,NA,967851.8,NA,NA,967851,967851.9,2025-01-29T17:24:55Z,967867.6,NULL,Verpackung,ufungaji,d,NA,NA,NA,NA,sdf,NA,0,NA,NA,NA,NA,NA,NA,NA,NA,NA,NA,NA,NA,NA,NA,NA,NA,NA,NA,NA
9df3d,task,flow.Sequence,5_0_0_0_1,NA,NA,completion,6700.3,961135,961133.5,961150.7,967851,967851.9,2025-01-29T17:24:55Z,967867.6,NULL,Verpackung,ufungaji,d,NA,NA,NA,NA,sdf,NA,0,NA,NA,NA,NA,NA,NA,NA,NA,NA,NA,NA,NA,NA,NA,NA,NA,NA,NA,NA
9df3d,Deep Question,html.Page,5_0_0_0_2_0_0,NA,NA,form submission,2159.1000000011,967852,967851,967867.6,970026.7,970026.9,2025-01-29T17:24:57Z,970033.4,NULL,Auftrag,uagizaji,d,NA,NA,NA,sdf,NA,NA,0,NA,NA,NA,NA,NA,NA,NA,NA,NA,NA,NA,NA,NA,NA,NA,NA,NA,NA,NA
9df3d,"""Richtig""-Screen",canvas.Screen,5_0_0_0_2_0_1,NA,NA,skipped,NA,970027.8,NA,NA,970026.7,970027.8,2025-01-29T17:24:57Z,970033.4,NULL,Auftrag,uagizaji,d,NA,NA,NA,NA,sdf,NA,0,NA,NA,NA,NA,NA,NA,NA,NA,NA,NA,NA,NA,NA,NA,NA,NA,NA,NA,NA
9df3d,"""Falsch""-Screen",canvas.Screen,5_0_0_0_2_0_2,NA,NA,timeout,5001,970028.4,970017.7,970033.4,975017.8,975018.9,2025-01-29T17:25:02Z,975034.4,NULL,Auftrag,uagizaji,d,NA,NA,NA,NA,sdf,0,0,NA,NA,NA,NA,NA,NA,NA,NA,NA,NA,NA,NA,NA,NA,NA,NA,NA,NA,NA
9df3d,deep,flow.Sequence,5_0_0_0_2_0,NA,NA,completion,7150.2000000001,967852,967851,967867.6,975017.8,975019.2,2025-01-29T17:25:02Z,975034.4,NULL,Auftrag,uagizaji,d,NA,NA,NA,NA,sdf,NA,0,NA,NA,NA,NA,NA,NA,NA,NA,NA,NA,NA,NA,NA,NA,NA,NA,NA,NA,NA
9df3d,shallow,flow.Sequence,5_0_0_0_2_1,NA,NA,skipped,NA,975019.4,NA,NA,975017.8,975019.4,2025-01-29T17:25:02Z,975034.4,NULL,Auftrag,uagizaji,d,NA,NA,NA,NA,sdf,NA,0,NA,NA,NA,NA,NA,NA,NA,NA,NA,NA,NA,NA,NA,NA,NA,NA,NA,NA,NA
9df3d,task,flow.Sequence,5_0_0_0_2,NA,NA,completion,7150.2000000001,967851.9,967851,967867.6,975017.8,975019.6,2025-01-29T17:25:02Z,975034.4,NULL,Auftrag,uagizaji,d,NA,NA,NA,NA,sdf,NA,0,NA,NA,NA,NA,NA,NA,NA,NA,NA,NA,NA,NA,NA,NA,NA,NA,NA,NA,NA
9df3d,deep,flow.Sequence,5_0_0_0_3_0,NA,NA,skipped,NA,975019.7,NA,NA,975017.8,975020,2025-01-29T17:25:02Z,975034.4,NULL,Schönheit,kirembo,s,mahojiano,msisimko,jitihadi,NA,sdf,NA,0,NA,NA,NA,NA,NA,NA,NA,NA,NA,NA,NA,NA,NA,NA,NA,NA,NA,NA,NA
9df3d,Shallow Question,html.Page,5_0_0_0_3_1_0,NA,NA,form submission,2876.9000000007,975020,975017.8,975034.4,977911.3,977911.7,2025-01-29T17:25:05Z,977917.8,NULL,Schönheit,kirembo,s,mahojiano,msisimko,jitihadi,mahojiano,NA,NA,0,NA,NA,NA,NA,NA,NA,NA,NA,NA,NA,NA,NA,NA,NA,NA,NA,NA,NA,NA
9df3d,"""Richtig""-Screen",canvas.Screen,5_0_0_0_3_1_1,NA,NA,skipped,NA,977913.3,NA,NA,977911.3,977913.4,2025-01-29T17:25:05Z,977917.8,NULL,Schönheit,kirembo,s,mahojiano,msisimko,jitihadi,NA,sdf,NA,0,NA,NA,NA,NA,NA,NA,NA,NA,NA,NA,NA,NA,NA,NA,NA,NA,NA,NA,NA
9df3d,"""Falsch""-Screen",canvas.Screen,5_0_0_0_3_1_2,NA,NA,timeout,4999.7,977913.9,977901.124,977917.8,982900.9,982901.7,2025-01-29T17:25:10Z,982917.5,NULL,Schönheit,kirembo,s,mahojiano,msisimko,jitihadi,NA,sdf,0,0,NA,NA,NA,NA,NA,NA,NA,NA,NA,NA,NA,NA,NA,NA,NA,NA,NA,NA,NA
9df3d,shallow,flow.Sequence,5_0_0_0_3_1,NA,NA,completion,7866.5,975020,975017.8,975034.4,982900.9,982902.1,2025-01-29T17:25:10Z,982917.5,NULL,Schönheit,kirembo,s,mahojiano,msisimko,jitihadi,NA,sdf,NA,0,NA,NA,NA,NA,NA,NA,NA,NA,NA,NA,NA,NA,NA,NA,NA,NA,NA,NA,NA
9df3d,task,flow.Sequence,5_0_0_0_3,NA,NA,completion,7866.5,975019.7,975017.8,975034.4,982900.9,982902.3,2025-01-29T17:25:10Z,982917.5,NULL,Schönheit,kirembo,s,mahojiano,msisimko,jitihadi,NA,sdf,NA,0,NA,NA,NA,NA,NA,NA,NA,NA,NA,NA,NA,NA,NA,NA,NA,NA,NA,NA,NA
9df3d,deep,flow.Sequence,5_0_0_0_4_0,NA,NA,skipped,NA,982902.5,NA,NA,982900.9,982902.7,2025-01-29T17:25:10Z,982917.5,NULL,Zufall,kikuti,s,kukosekana,uchoraji,leseni,NA,sdf,NA,0,NA,NA,NA,NA,NA,NA,NA,NA,NA,NA,NA,NA,NA,NA,NA,NA,NA,NA,NA
9df3d,Shallow Question,html.Page,5_0_0_0_4_1_0,NA,NA,form submission,3044.7000000011,982902.8,982900.9,982917.5,985962.2,985962.7,2025-01-29T17:25:13Z,985967.6,NULL,Zufall,kikuti,s,kukosekana,uchoraji,leseni,kikuti,NA,NA,0,NA,NA,NA,NA,NA,NA,NA,NA,NA,NA,NA,NA,NA,NA,NA,NA,NA,NA,NA
9df3d,"""Richtig""-Screen",canvas.Screen,5_0_0_0_4_1_1,NA,NA,timeout,5000.1,985964.5,985951.2,985967.6,990951,990951.8,2025-01-29T17:25:18Z,990967.7,NULL,Zufall,kikuti,s,kukosekana,uchoraji,leseni,NA,sdf,1,0,NA,NA,NA,NA,NA,NA,NA,NA,NA,NA,NA,NA,NA,NA,NA,NA,NA,NA,NA
9df3d,"""Falsch""-Screen",canvas.Screen,5_0_0_0_4_1_2,NA,NA,skipped,NA,990953.7,NA,NA,990951,990953.9,2025-01-29T17:25:18Z,990967.7,NULL,Zufall,kikuti,s,kukosekana,uchoraji,leseni,NA,sdf,NA,0,NA,NA,NA,NA,NA,NA,NA,NA,NA,NA,NA,NA,NA,NA,NA,NA,NA,NA,NA
9df3d,shallow,flow.Sequence,5_0_0_0_4_1,NA,NA,completion,8033.5,982902.8,982900.9,982917.5,990951,990954,2025-01-29T17:25:18Z,990967.7,NULL,Zufall,kikuti,s,kukosekana,uchoraji,leseni,NA,sdf,NA,0,NA,NA,NA,NA,NA,NA,NA,NA,NA,NA,NA,NA,NA,NA,NA,NA,NA,NA,NA
9df3d,task,flow.Sequence,5_0_0_0_4,NA,NA,completion,8033.5,982902.4,982900.9,982917.5,990951,990954.1,2025-01-29T17:25:18Z,990967.7,NULL,Zufall,kikuti,s,kukosekana,uchoraji,leseni,NA,sdf,NA,0,NA,NA,NA,NA,NA,NA,NA,NA,NA,NA,NA,NA,NA,NA,NA,NA,NA,NA,NA
9df3d,Deep Question,html.Page,5_0_0_0_5_0_0,NA,NA,form submission,1041.5000000012,990954.3,990951,990967.7,992009.2,992009.6,2025-01-29T17:25:19Z,992017.9,NULL,Wettbewerb,ushindani,d,NA,NA,NA,sdf,NA,NA,0,NA,NA,NA,NA,NA,NA,NA,NA,NA,NA,NA,NA,NA,NA,NA,NA,NA,NA,NA
9df3d,"""Richtig""-Screen",canvas.Screen,5_0_0_0_5_0_1,NA,NA,skipped,NA,992010.7,NA,NA,992009.2,992010.8,2025-01-29T17:25:19Z,992017.9,NULL,Wettbewerb,ushindani,d,NA,NA,NA,NA,sdf,NA,0,NA,NA,NA,NA,NA,NA,NA,NA,NA,NA,NA,NA,NA,NA,NA,NA,NA,NA,NA
9df3d,"""Falsch""-Screen",canvas.Screen,5_0_0_0_5_0_2,NA,NA,timeout,5000,992011.2,992001.258,992017.9,997001.2,997001.6,2025-01-29T17:25:24Z,997017.9,NULL,Wettbewerb,ushindani,d,NA,NA,NA,NA,sdf,0,0,NA,NA,NA,NA,NA,NA,NA,NA,NA,NA,NA,NA,NA,NA,NA,NA,NA,NA,NA
9df3d,deep,flow.Sequence,5_0_0_0_5_0,NA,NA,completion,6033.5,990954.3,990951,990967.7,997001.2,997001.9,2025-01-29T17:25:24Z,997017.9,NULL,Wettbewerb,ushindani,d,NA,NA,NA,NA,sdf,NA,0,NA,NA,NA,NA,NA,NA,NA,NA,NA,NA,NA,NA,NA,NA,NA,NA,NA,NA,NA
9df3d,shallow,flow.Sequence,5_0_0_0_5_1,NA,NA,skipped,NA,997002,NA,NA,997001.2,997002.1,2025-01-29T17:25:24Z,997017.9,NULL,Wettbewerb,ushindani,d,NA,NA,NA,NA,sdf,NA,0,NA,NA,NA,NA,NA,NA,NA,NA,NA,NA,NA,NA,NA,NA,NA,NA,NA,NA,NA
9df3d,task,flow.Sequence,5_0_0_0_5,NA,NA,completion,6033.5,990954.2,990951,990967.7,997001.2,997002.2,2025-01-29T17:25:24Z,997017.9,NULL,Wettbewerb,ushindani,d,NA,NA,NA,NA,sdf,NA,0,NA,NA,NA,NA,NA,NA,NA,NA,NA,NA,NA,NA,NA,NA,NA,NA,NA,NA,NA
9df3d,Deep Question,html.Page,5_0_0_0_6_0_0,NA,NA,form submission,3225.4000000007,997002.4,997001.2,997017.9,1000243.3,1000243.6,2025-01-29T17:25:27Z,1000251.3,NULL,Hoffnung,matarajio,d,NA,NA,NA,sdf,NA,NA,0,NA,NA,NA,NA,NA,NA,NA,NA,NA,NA,NA,NA,NA,NA,NA,NA,NA,NA,NA
9df3d,"""Richtig""-Screen",canvas.Screen,5_0_0_0_6_0_1,NA,NA,skipped,NA,1000244.6,NA,NA,1000243.3,1000244.7,2025-01-29T17:25:27Z,1000251.3,NULL,Hoffnung,matarajio,d,NA,NA,NA,NA,sdf,NA,0,NA,NA,NA,NA,NA,NA,NA,NA,NA,NA,NA,NA,NA,NA,NA,NA,NA,NA,NA
9df3d,"""Falsch""-Screen",canvas.Screen,5_0_0_0_6_0_2,NA,NA,timeout,5000.1,1000245.2,1000234.728,1000251.3,1005234.7,1005235.5,2025-01-29T17:25:32Z,1005251.4,NULL,Hoffnung,matarajio,d,NA,NA,NA,NA,sdf,0,0,NA,NA,NA,NA,NA,NA,NA,NA,NA,NA,NA,NA,NA,NA,NA,NA,NA,NA,NA
9df3d,deep,flow.Sequence,5_0_0_0_6_0,NA,NA,completion,8216.7999999999,997002.4,997001.2,997017.9,1005234.7,1005236,2025-01-29T17:25:32Z,1005251.4,NULL,Hoffnung,matarajio,d,NA,NA,NA,NA,sdf,NA,0,NA,NA,NA,NA,NA,NA,NA,NA,NA,NA,NA,NA,NA,NA,NA,NA,NA,NA,NA
9df3d,shallow,flow.Sequence,5_0_0_0_6_1,NA,NA,skipped,NA,1005236.2,NA,NA,1005234.7,1005236.2,2025-01-29T17:25:32Z,1005251.4,NULL,Hoffnung,matarajio,d,NA,NA,NA,NA,sdf,NA,0,NA,NA,NA,NA,NA,NA,NA,NA,NA,NA,NA,NA,NA,NA,NA,NA,NA,NA,NA
9df3d,task,flow.Sequence,5_0_0_0_6,NA,NA,completion,8216.7999999999,997002.4,997001.2,997017.9,1005234.7,1005236.4,2025-01-29T17:25:32Z,1005251.4,NULL,Hoffnung,matarajio,d,NA,NA,NA,NA,sdf,NA,0,NA,NA,NA,NA,NA,NA,NA,NA,NA,NA,NA,NA,NA,NA,NA,NA,NA,NA,NA
9df3d,deep,flow.Sequence,5_0_0_0_7_0,NA,NA,skipped,NA,1005236.6,NA,NA,1005234.7,1005236.6,2025-01-29T17:25:32Z,1005251.4,NULL,Schock,mshtuko,s,biashara,kukataza,vichekesho,NA,sdf,NA,0,NA,NA,NA,NA,NA,NA,NA,NA,NA,NA,NA,NA,NA,NA,NA,NA,NA,NA,NA
9df3d,Shallow Question,html.Page,5_0_0_0_7_1_0,NA,NA,form submission,3340.0000000003,1005236.7,1005234.7,1005251.4,1008591.4,1008591.9,2025-01-29T17:25:36Z,1008601.4,NULL,Schock,mshtuko,s,biashara,kukataza,vichekesho,biashara,NA,NA,0,NA,NA,NA,NA,NA,NA,NA,NA,NA,NA,NA,NA,NA,NA,NA,NA,NA,NA,NA
9df3d,"""Richtig""-Screen",canvas.Screen,5_0_0_0_7_1_1,NA,NA,skipped,NA,1008593,NA,NA,1008591.4,1008593,2025-01-29T17:25:36Z,1008601.4,NULL,Schock,mshtuko,s,biashara,kukataza,vichekesho,NA,sdf,NA,0,NA,NA,NA,NA,NA,NA,NA,NA,NA,NA,NA,NA,NA,NA,NA,NA,NA,NA,NA
9df3d,"""Falsch""-Screen",canvas.Screen,5_0_0_0_7_1_2,NA,NA,timeout,4998.9,1008593.6,1008584.764,1008601.4,1013584.6,1013585.4,2025-01-29T17:25:40Z,1013600.3,NULL,Schock,mshtuko,s,biashara,kukataza,vichekesho,NA,sdf,0,0,NA,NA,NA,NA,NA,NA,NA,NA,NA,NA,NA,NA,NA,NA,NA,NA,NA,NA,NA
9df3d,shallow,flow.Sequence,5_0_0_0_7_1,NA,NA,completion,8333.2,1005236.7,1005234.7,1005251.4,1013584.6,1013585.8,2025-01-29T17:25:40Z,1013600.3,NULL,Schock,mshtuko,s,biashara,kukataza,vichekesho,NA,sdf,NA,0,NA,NA,NA,NA,NA,NA,NA,NA,NA,NA,NA,NA,NA,NA,NA,NA,NA,NA,NA
9df3d,task,flow.Sequence,5_0_0_0_7,NA,NA,completion,8333.2,1005236.5,1005234.7,1005251.4,1013584.6,1013585.9,2025-01-29T17:25:40Z,1013600.3,NULL,Schock,mshtuko,s,biashara,kukataza,vichekesho,NA,sdf,NA,0,NA,NA,NA,NA,NA,NA,NA,NA,NA,NA,NA,NA,NA,NA,NA,NA,NA,NA,NA
9df3d,block,flow.Loop,5_0_0_0,NA,NA,completion,60401.1,953171.5,953167.512,953183.5,1013584.6,1013586,2025-01-29T17:25:40Z,1013600.3,NULL,NA,NA,NA,NA,NA,NA,NA,sdf,NA,0,NA,NA,NA,NA,NA,NA,NA,NA,NA,NA,NA,NA,NA,NA,NA,NA,NA,NA,NA
9df3d,weiter,canvas.Screen,5_0_0_1,sdf,keypress(Space),response,801.40000000107,1013586.1,1013584.6,1013600.3,1014401.7,1014404.8,2025-01-29T17:25:41Z,1014434.7,NULL,NA,NA,NA,NA,NA,NA,NA,sdf,NA,0,NA,NA,NA,NA,NA,NA,NA,NA,NA,NA,NA,NA,NA,NA,NA,NA,NA,NA,NA
9df3d,check continue,flow.Sequence,5_0_0,NA,NA,completion,61218.200000001,953171.5,953167.512,953183.5,1014401.7,1014404.9,2025-01-29T17:25:41Z,1014434.7,NULL,NA,NA,NA,NA,NA,NA,NA,sdf,NA,0,NA,NA,NA,NA,NA,NA,NA,NA,NA,NA,NA,NA,NA,NA,NA,NA,NA,NA,NA
9df3d,Deep Question,html.Page,5_0_1_0_0_0_0,NA,NA,form submission,5840.4000000015,1014418.3,1014418.124,1014434.7,1020275.1,1020275.4,2025-01-29T17:25:47Z,1020284.5,NULL,Hoffnung,matarajio,d,NA,NA,NA,uagiui,NA,NA,1,NA,NA,NA,NA,NA,NA,NA,NA,NA,NA,NA,NA,NA,NA,NA,NA,NA,NA,NA
9df3d,"""Richtig""-Screen",canvas.Screen,5_0_1_0_0_0_1,NA,NA,skipped,NA,1020276.9,NA,NA,1020275.1,1020276.9,2025-01-29T17:25:47Z,1020284.5,NULL,Hoffnung,matarajio,d,NA,NA,NA,NA,sdfdsf,NA,1,NA,NA,NA,NA,NA,NA,NA,NA,NA,NA,NA,NA,NA,NA,NA,NA,NA,NA,NA
9df3d,"""Falsch""-Screen",canvas.Screen,5_0_1_0_0_0_2,NA,NA,timeout,5000.4,1020277.2,1020268.254,1020284.5,1025268.3,1025269.1,2025-01-29T17:25:52Z,1025284.9,NULL,Hoffnung,matarajio,d,NA,NA,NA,NA,sdfdsf,0,1,NA,NA,NA,NA,NA,NA,NA,NA,NA,NA,NA,NA,NA,NA,NA,NA,NA,NA,NA
9df3d,deep,flow.Sequence,5_0_1_0_0_0,NA,NA,completion,10833.6,1014418.3,1014418.124,1014434.7,1025268.3,1025269.4,2025-01-29T17:25:52Z,1025284.9,NULL,Hoffnung,matarajio,d,NA,NA,NA,NA,sdfdsf,NA,1,NA,NA,NA,NA,NA,NA,NA,NA,NA,NA,NA,NA,NA,NA,NA,NA,NA,NA,NA
9df3d,shallow,flow.Sequence,5_0_1_0_0_1,NA,NA,skipped,NA,1025269.7,NA,NA,1025268.3,1025269.8,2025-01-29T17:25:52Z,1025284.9,NULL,Hoffnung,matarajio,d,NA,NA,NA,NA,sdfdsf,NA,1,NA,NA,NA,NA,NA,NA,NA,NA,NA,NA,NA,NA,NA,NA,NA,NA,NA,NA,NA
9df3d,task,flow.Sequence,5_0_1_0_0,NA,NA,completion,10833.6,1014418.3,1014418.124,1014434.7,1025268.3,1025269.9,2025-01-29T17:25:52Z,1025284.9,NULL,Hoffnung,matarajio,d,NA,NA,NA,NA,sdfdsf,NA,1,NA,NA,NA,NA,NA,NA,NA,NA,NA,NA,NA,NA,NA,NA,NA,NA,NA,NA,NA
9df3d,deep,flow.Sequence,5_0_1_0_1_0,NA,NA,skipped,NA,1025270,NA,NA,1025268.3,1025270.1,2025-01-29T17:25:52Z,1025284.9,NULL,Schönheit,kirembo,s,mahojiano,msisimko,jitihadi,NA,sdfdsf,NA,1,NA,NA,NA,NA,NA,NA,NA,NA,NA,NA,NA,NA,NA,NA,NA,NA,NA,NA,NA
9df3d,Shallow Question,html.Page,5_0_1_0_1_1_0,NA,NA,form submission,4919.3000000011,1025270.2,1025268.3,1025284.9,1030204.2,1030204.6,2025-01-29T17:25:57Z,1030218.2,NULL,Schönheit,kirembo,s,mahojiano,msisimko,jitihadi,kirembo,NA,NA,1,NA,NA,NA,NA,NA,NA,NA,NA,NA,NA,NA,NA,NA,NA,NA,NA,NA,NA,NA
9df3d,"""Richtig""-Screen",canvas.Screen,5_0_1_0_1_1_1,NA,NA,timeout,5000.1000000001,1030206,1030201.63,1030218.2,1035201.4,1035202.4,2025-01-29T17:26:02Z,1035218.3,NULL,Schönheit,kirembo,s,mahojiano,msisimko,jitihadi,NA,sdfdsf,1,1,NA,NA,NA,NA,NA,NA,NA,NA,NA,NA,NA,NA,NA,NA,NA,NA,NA,NA,NA
9df3d,"""Falsch""-Screen",canvas.Screen,5_0_1_0_1_1_2,NA,NA,skipped,NA,1035204.3,NA,NA,1035201.4,1035204.3,2025-01-29T17:26:02Z,1035218.3,NULL,Schönheit,kirembo,s,mahojiano,msisimko,jitihadi,NA,sdfdsf,NA,1,NA,NA,NA,NA,NA,NA,NA,NA,NA,NA,NA,NA,NA,NA,NA,NA,NA,NA,NA
9df3d,shallow,flow.Sequence,5_0_1_0_1_1,NA,NA,completion,9916.5,1025270.1,1025268.3,1025284.9,1035201.4,1035204.5,2025-01-29T17:26:02Z,1035218.3,NULL,Schönheit,kirembo,s,mahojiano,msisimko,jitihadi,NA,sdfdsf,NA,1,NA,NA,NA,NA,NA,NA,NA,NA,NA,NA,NA,NA,NA,NA,NA,NA,NA,NA,NA
9df3d,task,flow.Sequence,5_0_1_0_1,NA,NA,completion,9916.5,1025269.9,1025268.3,1025284.9,1035201.4,1035204.7,2025-01-29T17:26:02Z,1035218.3,NULL,Schönheit,kirembo,s,mahojiano,msisimko,jitihadi,NA,sdfdsf,NA,1,NA,NA,NA,NA,NA,NA,NA,NA,NA,NA,NA,NA,NA,NA,NA,NA,NA,NA,NA
9df3d,Deep Question,html.Page,5_0_1_0_2_0_0,NA,NA,form submission,1641.2,1035204.7,1035201.4,1035218.3,1036859.5,1036859.9,2025-01-29T17:26:04Z,1036885,NULL,Auftrag,uagizaji,d,NA,NA,NA,sf,NA,NA,1,NA,NA,NA,NA,NA,NA,NA,NA,NA,NA,NA,NA,NA,NA,NA,NA,NA,NA,NA
9df3d,"""Richtig""-Screen",canvas.Screen,5_0_1_0_2_0_1,NA,NA,skipped,NA,1036860.9,NA,NA,1036859.5,1036860.9,2025-01-29T17:26:04Z,1036885,NULL,Auftrag,uagizaji,d,NA,NA,NA,NA,sdfdsf,NA,1,NA,NA,NA,NA,NA,NA,NA,NA,NA,NA,NA,NA,NA,NA,NA,NA,NA,NA,NA
9df3d,"""Falsch""-Screen",canvas.Screen,5_0_1_0_2_0_2,NA,NA,timeout,5000.1,1036861.8,1036868.4,1036885,1041868.4,1041868.9,2025-01-29T17:26:09Z,1041885.1,NULL,Auftrag,uagizaji,d,NA,NA,NA,NA,sdfdsf,0,1,NA,NA,NA,NA,NA,NA,NA,NA,NA,NA,NA,NA,NA,NA,NA,NA,NA,NA,NA
