observation,sender,sender_type,sender_id,response,response_action,ended_on,duration,time_run,time_render,time_show,time_end,time_commit,timestamp,time_switch,distractors,german,swahili,enc,distractor1,distractor2,distractor3,response_2,x,correct,x_2,url_vp,url_sess,meta_labjs_version,meta_location,meta_user_agent,meta_platform,meta_language,meta_locale,meta_time_zone,meta_timezone_offset,meta_screen_width,meta_screen_height,meta_scroll_width,meta_scroll_height,meta_window_inner_width,meta_window_inner_height,meta_device_pixel_ratio,meta_labjs_build_flavor,meta_labjs_build_commit
1adfd,Introduction general,canvas.Screen,0,weiter,keypress(q),response,16602.44,335,334.88,351.56,16954,16963,2023-09-27T16:58:30Z,16966.2,NULL,NA,NA,NA,NA,NA,NA,NA,NA,NA,NA,178,3,20.2.4,https://neurocog.fernuni.ch/studies/vweber/sliechti/encoding_immediate/index.html?vp=178&sess=3,Mozilla/5.0 (Windows NT 10.0; Win64; x64; rv:109.0) Gecko/20100101 Firefox/118.0,Win32,de,de-CH,Europe/Zurich,-120,1280,720,1280,587,1280,587,1.5,production,f5b4a49f956347addd546a832a3327688c2c0fef
1adfd,Introduction practice,canvas.Screen,1_0,NA,keypress(Space),response,4082.8,16964,16964.14,16966.2,21049,21060,2023-09-27T16:58:34Z,21065.72,NULL,NA,NA,NA,NA,NA,NA,NA,NA,NA,NA,NA,NA,NA,NA,NA,NA,NA,NA,NA,NA,NA,NA,NA,NA,NA,NA,NA,NA,NA
1adfd,deep,flow.Sequence,1_1_0_0,NA,NA,skipped,NA,21061,NA,NA,21049,21062,2023-09-27T16:58:34Z,21065.72,"c(""distractor1"", ""distractor2"", ""distractor3"")",Gegenwart,hadhara,s,katiba,jokofu,mikopo,NA,NA,NA,NA,NA,NA,NA,NA,NA,NA,NA,NA,NA,NA,NA,NA,NA,NA,NA,NA,NA,NA,NA
1adfd,Shallow Question,html.Page,1_1_0_1_0,NA,NA,form submission,4626.28,21063,21063.14,21065.72,25692,25693,2023-09-27T16:58:39Z,25698.46,"c(""distractor1"", ""distractor2"", ""distractor3"")",Gegenwart,hadhara,s,katiba,jokofu,mikopo,katiba,NA,NA,NA,NA,NA,NA,NA,NA,NA,NA,NA,NA,NA,NA,NA,NA,NA,NA,NA,NA,NA,NA
1adfd,"""Richtig""-Screen",canvas.Screen,1_1_0_1_1,NA,NA,skipped,NA,25703,NA,NA,25692,25703,2023-09-27T16:58:39Z,25698.46,"c(""distractor1"", ""distractor2"", ""distractor3"")",Gegenwart,hadhara,s,katiba,jokofu,mikopo,NA,NA,NA,NA,NA,NA,NA,NA,NA,NA,NA,NA,NA,NA,NA,NA,NA,NA,NA,NA,NA,NA,NA
1adfd,"""Falsch""-Screen",canvas.Screen,1_1_0_1_2,NA,NA,timeout,4999.42,25706,25684.66,25698.46,30681.12,30682,2023-09-27T16:58:44Z,30697.88,"c(""distractor1"", ""distractor2"", ""distractor3"")",Gegenwart,hadhara,s,katiba,jokofu,mikopo,NA,NA,0,NA,NA,NA,NA,NA,NA,NA,NA,NA,NA,NA,NA,NA,NA,NA,NA,NA,NA,NA,NA
1adfd,shallow,flow.Sequence,1_1_0_1,NA,NA,completion,9615.4,21063,21063.14,21065.72,30681.12,30683,2023-09-27T16:58:44Z,30697.88,"c(""distractor1"", ""distractor2"", ""distractor3"")",Gegenwart,hadhara,s,katiba,jokofu,mikopo,NA,NA,NA,NA,NA,NA,NA,NA,NA,NA,NA,NA,NA,NA,NA,NA,NA,NA,NA,NA,NA,NA,NA
1adfd,task,flow.Sequence,1_1_0,NA,NA,completion,9615.4,21061,21063.14,21065.72,30681.12,30683,2023-09-27T16:58:44Z,30697.88,"c(""distractor1"", ""distractor2"", ""distractor3"")",Gegenwart,hadhara,s,katiba,jokofu,mikopo,NA,NA,NA,NA,NA,NA,NA,NA,NA,NA,NA,NA,NA,NA,NA,NA,NA,NA,NA,NA,NA,NA,NA
1adfd,deep,flow.Sequence,1_1_1_0,NA,NA,skipped,NA,30683,NA,NA,30681.12,30683,2023-09-27T16:58:44Z,30697.88,"c(""distractor1"", ""distractor2"", ""distractor3"")",Rückhalt,msaada,s,muhula,auwali,kiwimbe,NA,NA,NA,NA,NA,NA,NA,NA,NA,NA,NA,NA,NA,NA,NA,NA,NA,NA,NA,NA,NA,NA,NA
1adfd,Shallow Question,html.Page,1_1_1_1_0,NA,NA,form submission,3920.12,30684,30681.12,30697.88,34618,34619,2023-09-27T16:58:48Z,34614,"c(""distractor1"", ""distractor2"", ""distractor3"")",Rückhalt,msaada,s,muhula,auwali,kiwimbe,msaada,NA,NA,NA,NA,NA,NA,NA,NA,NA,NA,NA,NA,NA,NA,NA,NA,NA,NA,NA,NA,NA,NA
1adfd,"""Richtig""-Screen",canvas.Screen,1_1_1_1_1,NA,NA,timeout,4999.28,34624,34611.92,34614,39596.96,39599,2023-09-27T16:58:53Z,39613.28,"c(""distractor1"", ""distractor2"", ""distractor3"")",Rückhalt,msaada,s,muhula,auwali,kiwimbe,NA,NA,1,NA,NA,NA,NA,NA,NA,NA,NA,NA,NA,NA,NA,NA,NA,NA,NA,NA,NA,NA,NA
1adfd,"""Falsch""-Screen",canvas.Screen,1_1_1_1_2,NA,NA,skipped,NA,39606,NA,NA,39596.96,39607,2023-09-27T16:58:53Z,39613.28,"c(""distractor1"", ""distractor2"", ""distractor3"")",Rückhalt,msaada,s,muhula,auwali,kiwimbe,NA,NA,NA,NA,NA,NA,NA,NA,NA,NA,NA,NA,NA,NA,NA,NA,NA,NA,NA,NA,NA,NA,NA
1adfd,shallow,flow.Sequence,1_1_1_1,NA,NA,completion,8899.08,30683,30681.12,30697.88,39596.96,39607,2023-09-27T16:58:53Z,39613.28,"c(""distractor1"", ""distractor2"", ""distractor3"")",Rückhalt,msaada,s,muhula,auwali,kiwimbe,NA,NA,NA,NA,NA,NA,NA,NA,NA,NA,NA,NA,NA,NA,NA,NA,NA,NA,NA,NA,NA,NA,NA
1adfd,task,flow.Sequence,1_1_1,NA,NA,completion,8899.08,30683,30681.12,30697.88,39596.96,39608,2023-09-27T16:58:53Z,39613.28,"c(""distractor1"", ""distractor2"", ""distractor3"")",Rückhalt,msaada,s,muhula,auwali,kiwimbe,NA,NA,NA,NA,NA,NA,NA,NA,NA,NA,NA,NA,NA,NA,NA,NA,NA,NA,NA,NA,NA,NA,NA
1adfd,Deep Question,html.Page,1_1_2_0_0,NA,NA,form submission,4681.72,39608,39596.96,39613.28,44295,44296,2023-09-27T16:58:57Z,44296.02,"c(""distractor1"", ""distractor2"", ""distractor3"")",Gesundheit,salama,d,NA,NA,NA,bufundi,NA,NA,NA,NA,NA,NA,NA,NA,NA,NA,NA,NA,NA,NA,NA,NA,NA,NA,NA,NA,NA,NA
1adfd,"""Richtig""-Screen",canvas.Screen,1_1_2_0_1,NA,NA,skipped,NA,44298,NA,NA,44295,44298,2023-09-27T16:58:57Z,44296.02,"c(""distractor1"", ""distractor2"", ""distractor3"")",Gesundheit,salama,d,NA,NA,NA,NA,NA,NA,NA,NA,NA,NA,NA,NA,NA,NA,NA,NA,NA,NA,NA,NA,NA,NA,NA,NA,NA,NA
1adfd,"""Falsch""-Screen",canvas.Screen,1_1_2_0_2,NA,NA,timeout,4999.4,44301,44294.08,44296.02,49279.22,49281,2023-09-27T16:59:02Z,49295.42,"c(""distractor1"", ""distractor2"", ""distractor3"")",Gesundheit,salama,d,NA,NA,NA,NA,NA,0,NA,NA,NA,NA,NA,NA,NA,NA,NA,NA,NA,NA,NA,NA,NA,NA,NA,NA,NA,NA
1adfd,deep,flow.Sequence,1_1_2_0,NA,NA,completion,9665.94,39608,39596.96,39613.28,49279.22,49282,2023-09-27T16:59:02Z,49295.42,"c(""distractor1"", ""distractor2"", ""distractor3"")",Gesundheit,salama,d,NA,NA,NA,NA,NA,NA,NA,NA,NA,NA,NA,NA,NA,NA,NA,NA,NA,NA,NA,NA,NA,NA,NA,NA,NA,NA
1adfd,shallow,flow.Sequence,1_1_2_1,NA,NA,skipped,NA,49282,NA,NA,49279.22,49283,2023-09-27T16:59:02Z,49295.42,"c(""distractor1"", ""distractor2"", ""distractor3"")",Gesundheit,salama,d,NA,NA,NA,NA,NA,NA,NA,NA,NA,NA,NA,NA,NA,NA,NA,NA,NA,NA,NA,NA,NA,NA,NA,NA,NA,NA
1adfd,task,flow.Sequence,1_1_2,NA,NA,completion,9665.94,39608,39596.96,39613.28,49279.22,49284,2023-09-27T16:59:02Z,49295.42,"c(""distractor1"", ""distractor2"", ""distractor3"")",Gesundheit,salama,d,NA,NA,NA,NA,NA,NA,NA,NA,NA,NA,NA,NA,NA,NA,NA,NA,NA,NA,NA,NA,NA,NA,NA,NA,NA,NA
1adfd,Deep Question,html.Page,1_1_3_0_0,NA,NA,form submission,2792.58,49285,49279.22,49295.42,52088,52089,2023-09-27T16:59:05Z,52095.04,"c(""distractor1"", ""distractor2"", ""distractor3"")",Schatten,kivuli,d,NA,NA,NA,kageko,NA,NA,NA,NA,NA,NA,NA,NA,NA,NA,NA,NA,NA,NA,NA,NA,NA,NA,NA,NA,NA,NA
1adfd,"""Richtig""-Screen",canvas.Screen,1_1_3_0_1,NA,NA,skipped,NA,52092,NA,NA,52088,52092,2023-09-27T16:59:05Z,52095.04,"c(""distractor1"", ""distractor2"", ""distractor3"")",Schatten,kivuli,d,NA,NA,NA,NA,NA,NA,NA,NA,NA,NA,NA,NA,NA,NA,NA,NA,NA,NA,NA,NA,NA,NA,NA,NA,NA,NA
1adfd,"""Falsch""-Screen",canvas.Screen,1_1_3_0_2,NA,NA,timeout,4999.38,52095,52086.62,52095.04,57078,57079,2023-09-27T16:59:10Z,57094.42,"c(""distractor1"", ""distractor2"", ""distractor3"")",Schatten,kivuli,d,NA,NA,NA,NA,NA,0,NA,NA,NA,NA,NA,NA,NA,NA,NA,NA,NA,NA,NA,NA,NA,NA,NA,NA,NA,NA
1adfd,deep,flow.Sequence,1_1_3_0,NA,NA,completion,7782.58,49285,49279.22,49295.42,57078,57080,2023-09-27T16:59:10Z,57094.42,"c(""distractor1"", ""distractor2"", ""distractor3"")",Schatten,kivuli,d,NA,NA,NA,NA,NA,NA,NA,NA,NA,NA,NA,NA,NA,NA,NA,NA,NA,NA,NA,NA,NA,NA,NA,NA,NA,NA
1adfd,shallow,flow.Sequence,1_1_3_1,NA,NA,skipped,NA,57080,NA,NA,57078,57080,2023-09-27T16:59:10Z,57094.42,"c(""distractor1"", ""distractor2"", ""distractor3"")",Schatten,kivuli,d,NA,NA,NA,NA,NA,NA,NA,NA,NA,NA,NA,NA,NA,NA,NA,NA,NA,NA,NA,NA,NA,NA,NA,NA,NA,NA
1adfd,task,flow.Sequence,1_1_3,NA,NA,completion,7782.58,49284,49279.22,49295.42,57078,57081,2023-09-27T16:59:10Z,57094.42,"c(""distractor1"", ""distractor2"", ""distractor3"")",Schatten,kivuli,d,NA,NA,NA,NA,NA,NA,NA,NA,NA,NA,NA,NA,NA,NA,NA,NA,NA,NA,NA,NA,NA,NA,NA,NA,NA,NA
1adfd,Deep Question,html.Page,1_1_4_0_0,NA,NA,form submission,3961.58,57081,57078,57094.42,61056,61056,2023-09-27T16:59:14Z,61060.58,"c(""distractor1"", ""distractor2"", ""distractor3"")",Qualität,mtindo,d,NA,NA,NA,saralifu,NA,NA,NA,NA,NA,NA,NA,NA,NA,NA,NA,NA,NA,NA,NA,NA,NA,NA,NA,NA,NA,NA
1adfd,"""Richtig""-Screen",canvas.Screen,1_1_4_0_1,NA,NA,skipped,NA,61059,NA,NA,61056,61059,2023-09-27T16:59:14Z,61060.58,"c(""distractor1"", ""distractor2"", ""distractor3"")",Qualität,mtindo,d,NA,NA,NA,NA,NA,NA,NA,NA,NA,NA,NA,NA,NA,NA,NA,NA,NA,NA,NA,NA,NA,NA,NA,NA,NA,NA
1adfd,"""Falsch""-Screen",canvas.Screen,1_1_4_0_2,NA,NA,timeout,4999.44,61062,61055.1,61060.58,66043.5,66048,2023-09-27T16:59:19Z,66060.02,"c(""distractor1"", ""distractor2"", ""distractor3"")",Qualität,mtindo,d,NA,NA,NA,NA,NA,0,NA,NA,NA,NA,NA,NA,NA,NA,NA,NA,NA,NA,NA,NA,NA,NA,NA,NA,NA,NA
1adfd,deep,flow.Sequence,1_1_4_0,NA,NA,completion,8949.08,57081,57078,57094.42,66043.5,66051,2023-09-27T16:59:19Z,66060.02,"c(""distractor1"", ""distractor2"", ""distractor3"")",Qualität,mtindo,d,NA,NA,NA,NA,NA,NA,NA,NA,NA,NA,NA,NA,NA,NA,NA,NA,NA,NA,NA,NA,NA,NA,NA,NA,NA,NA
1adfd,shallow,flow.Sequence,1_1_4_1,NA,NA,skipped,NA,66052,NA,NA,66043.5,66052,2023-09-27T16:59:19Z,66060.02,"c(""distractor1"", ""distractor2"", ""distractor3"")",Qualität,mtindo,d,NA,NA,NA,NA,NA,NA,NA,NA,NA,NA,NA,NA,NA,NA,NA,NA,NA,NA,NA,NA,NA,NA,NA,NA,NA,NA
1adfd,task,flow.Sequence,1_1_4,NA,NA,completion,8949.08,57081,57078,57094.42,66043.5,66053,2023-09-27T16:59:19Z,66060.02,"c(""distractor1"", ""distractor2"", ""distractor3"")",Qualität,mtindo,d,NA,NA,NA,NA,NA,NA,NA,NA,NA,NA,NA,NA,NA,NA,NA,NA,NA,NA,NA,NA,NA,NA,NA,NA,NA,NA
1adfd,deep,flow.Sequence,1_1_5_0,NA,NA,skipped,NA,66055,NA,NA,66043.5,66055,2023-09-27T16:59:19Z,66060.02,"c(""distractor1"", ""distractor2"", ""distractor3"")",Kritik,lawama,s,dereva,nafasi,mawazo,NA,NA,NA,NA,NA,NA,NA,NA,NA,NA,NA,NA,NA,NA,NA,NA,NA,NA,NA,NA,NA,NA,NA
1adfd,Shallow Question,html.Page,1_1_5_1_0,NA,NA,form submission,5865.98,66056,66043.5,66060.02,71926,71930,2023-09-27T16:59:25Z,71942.56,"c(""distractor1"", ""distractor2"", ""distractor3"")",Kritik,lawama,s,dereva,nafasi,mawazo,lawama,NA,NA,NA,NA,NA,NA,NA,NA,NA,NA,NA,NA,NA,NA,NA,NA,NA,NA,NA,NA,NA,NA
1adfd,"""Richtig""-Screen",canvas.Screen,1_1_5_1_1,NA,NA,timeout,4999.36,71942,71916.52,71942.56,76925.3,76927,2023-09-27T16:59:30Z,76941.92,"c(""distractor1"", ""distractor2"", ""distractor3"")",Kritik,lawama,s,dereva,nafasi,mawazo,NA,NA,1,NA,NA,NA,NA,NA,NA,NA,NA,NA,NA,NA,NA,NA,NA,NA,NA,NA,NA,NA,NA
1adfd,"""Falsch""-Screen",canvas.Screen,1_1_5_1_2,NA,NA,skipped,NA,76934,NA,NA,76925.3,76935,2023-09-27T16:59:30Z,76941.92,"c(""distractor1"", ""distractor2"", ""distractor3"")",Kritik,lawama,s,dereva,nafasi,mawazo,NA,NA,NA,NA,NA,NA,NA,NA,NA,NA,NA,NA,NA,NA,NA,NA,NA,NA,NA,NA,NA,NA,NA
1adfd,shallow,flow.Sequence,1_1_5_1,NA,NA,completion,10865.28,66055,66043.5,66060.02,76925.3,76935,2023-09-27T16:59:30Z,76941.92,"c(""distractor1"", ""distractor2"", ""distractor3"")",Kritik,lawama,s,dereva,nafasi,mawazo,NA,NA,NA,NA,NA,NA,NA,NA,NA,NA,NA,NA,NA,NA,NA,NA,NA,NA,NA,NA,NA,NA,NA
1adfd,task,flow.Sequence,1_1_5,NA,NA,completion,10865.28,66053,66043.5,66060.02,76925.3,76937,2023-09-27T16:59:30Z,76941.92,"c(""distractor1"", ""distractor2"", ""distractor3"")",Kritik,lawama,s,dereva,nafasi,mawazo,NA,NA,NA,NA,NA,NA,NA,NA,NA,NA,NA,NA,NA,NA,NA,NA,NA,NA,NA,NA,NA,NA,NA
1adfd,block,flow.Loop,1_1,NA,NA,completion,55859.58,21061,21063.14,21065.72,76925.3,76938,2023-09-27T16:59:30Z,76941.92,"c(""distractor1"", ""distractor2"", ""distractor3"")",NA,NA,NA,NA,NA,NA,NA,NA,NA,NA,NA,NA,NA,NA,NA,NA,NA,NA,NA,NA,NA,NA,NA,NA,NA,NA,NA,NA,NA
1adfd,Practice,flow.Sequence,1,NA,NA,completion,59959.1,16964,16964.14,16966.2,76925.3,76939,2023-09-27T16:59:30Z,76941.92,NULL,NA,NA,NA,NA,NA,NA,NA,NA,NA,NA,NA,NA,NA,NA,NA,NA,NA,NA,NA,NA,NA,NA,NA,NA,NA,NA,NA,NA,NA
1adfd,Experiment start,canvas.Screen,2,weiter,keypress(q),response,15544.08,76939,76925.3,76941.92,92486,92491,2023-09-27T16:59:46Z,92590,NULL,NA,NA,NA,NA,NA,NA,NA,NA,NA,NA,NA,NA,NA,NA,NA,NA,NA,NA,NA,NA,NA,NA,NA,NA,NA,NA,NA,NA,NA
1adfd,Deep Question,html.Page,3_0_0_0_0_0_0,NA,NA,form submission,11523,92579,92579.06,92590,104113,104114,2023-09-27T16:59:57Z,104121.68,NULL,Verstand,ufahamivu,d,NA,NA,NA,kiwali,NA,NA,0,NA,NA,NA,NA,NA,NA,NA,NA,NA,NA,NA,NA,NA,NA,NA,NA,NA,NA,NA
1adfd,"""Richtig""-Screen",canvas.Screen,3_0_0_0_0_0_1,NA,NA,skipped,NA,104117,NA,NA,104113,104117,2023-09-27T16:59:57Z,104121.68,NULL,Verstand,ufahamivu,d,NA,NA,NA,NA,sdf,NA,0,NA,NA,NA,NA,NA,NA,NA,NA,NA,NA,NA,NA,NA,NA,NA,NA,NA,NA,NA
1adfd,"""Falsch""-Screen",canvas.Screen,3_0_0_0_0_0_2,NA,NA,timeout,4999.54,104119,104112.74,104121.68,109104.48,109106,2023-09-27T17:00:02Z,109121.22,NULL,Verstand,ufahamivu,d,NA,NA,NA,NA,sdf,0,0,NA,NA,NA,NA,NA,NA,NA,NA,NA,NA,NA,NA,NA,NA,NA,NA,NA,NA,NA
1adfd,deep,flow.Sequence,3_0_0_0_0_0,NA,NA,completion,16514.48,92579,92579.06,92590,109104.48,109107,2023-09-27T17:00:02Z,109121.22,NULL,Verstand,ufahamivu,d,NA,NA,NA,NA,sdf,NA,0,NA,NA,NA,NA,NA,NA,NA,NA,NA,NA,NA,NA,NA,NA,NA,NA,NA,NA,NA
1adfd,shallow,flow.Sequence,3_0_0_0_0_1,NA,NA,skipped,NA,109107,NA,NA,109104.48,109107,2023-09-27T17:00:02Z,109121.22,NULL,Verstand,ufahamivu,d,NA,NA,NA,NA,sdf,NA,0,NA,NA,NA,NA,NA,NA,NA,NA,NA,NA,NA,NA,NA,NA,NA,NA,NA,NA,NA
1adfd,task,flow.Sequence,3_0_0_0_0,NA,NA,completion,16514.48,92579,92579.06,92590,109104.48,109108,2023-09-27T17:00:02Z,109121.22,NULL,Verstand,ufahamivu,d,NA,NA,NA,NA,sdf,NA,0,NA,NA,NA,NA,NA,NA,NA,NA,NA,NA,NA,NA,NA,NA,NA,NA,NA,NA,NA
1adfd,deep,flow.Sequence,3_0_0_0_1_0,NA,NA,skipped,NA,109108,NA,NA,109104.48,109108,2023-09-27T17:00:02Z,109121.22,NULL,Gelegenheit,wakati,s,mchanganyiko,kipaumbele,kushuku,NA,sdf,NA,0,NA,NA,NA,NA,NA,NA,NA,NA,NA,NA,NA,NA,NA,NA,NA,NA,NA,NA,NA
1adfd,Shallow Question,html.Page,3_0_0_0_1_1_0,NA,NA,form submission,7326.78,109109,109104.48,109121.22,116448,116449,2023-09-27T17:00:09Z,116453.46,NULL,Gelegenheit,wakati,s,mchanganyiko,kipaumbele,kushuku,wakati,NA,NA,0,NA,NA,NA,NA,NA,NA,NA,NA,NA,NA,NA,NA,NA,NA,NA,NA,NA,NA,NA
1adfd,"""Richtig""-Screen",canvas.Screen,3_0_0_0_1_1_1,NA,NA,timeout,4999.36,116452,116444.04,116453.46,121436.2,121437,2023-09-27T17:00:14Z,121452.82,NULL,Gelegenheit,wakati,s,mchanganyiko,kipaumbele,kushuku,NA,sdf,1,0,NA,NA,NA,NA,NA,NA,NA,NA,NA,NA,NA,NA,NA,NA,NA,NA,NA,NA,NA
1adfd,"""Falsch""-Screen",canvas.Screen,3_0_0_0_1_1_2,NA,NA,skipped,NA,121441,NA,NA,121436.2,121442,2023-09-27T17:00:14Z,121452.82,NULL,Gelegenheit,wakati,s,mchanganyiko,kipaumbele,kushuku,NA,sdf,NA,0,NA,NA,NA,NA,NA,NA,NA,NA,NA,NA,NA,NA,NA,NA,NA,NA,NA,NA,NA
1adfd,shallow,flow.Sequence,3_0_0_0_1_1,NA,NA,completion,12314.98,109109,109104.48,109121.22,121436.2,121442,2023-09-27T17:00:14Z,121452.82,NULL,Gelegenheit,wakati,s,mchanganyiko,kipaumbele,kushuku,NA,sdf,NA,0,NA,NA,NA,NA,NA,NA,NA,NA,NA,NA,NA,NA,NA,NA,NA,NA,NA,NA,NA
1adfd,task,flow.Sequence,3_0_0_0_1,NA,NA,completion,12314.98,109108,109104.48,109121.22,121436.2,121443,2023-09-27T17:00:14Z,121452.82,NULL,Gelegenheit,wakati,s,mchanganyiko,kipaumbele,kushuku,NA,sdf,NA,0,NA,NA,NA,NA,NA,NA,NA,NA,NA,NA,NA,NA,NA,NA,NA,NA,NA,NA,NA
1adfd,Deep Question,html.Page,3_0_0_0_2_0_0,NA,NA,form submission,3395.18,121443,121436.2,121452.82,124848,124849,2023-09-27T17:00:18Z,124869.16,NULL,Widerstand,usulubu,d,NA,NA,NA,selenyifu,NA,NA,0,NA,NA,NA,NA,NA,NA,NA,NA,NA,NA,NA,NA,NA,NA,NA,NA,NA,NA,NA
1adfd,"""Richtig""-Screen",canvas.Screen,3_0_0_0_2_0_1,NA,NA,skipped,NA,124852,NA,NA,124848,124852,2023-09-27T17:00:18Z,124869.16,NULL,Widerstand,usulubu,d,NA,NA,NA,NA,sdf,NA,0,NA,NA,NA,NA,NA,NA,NA,NA,NA,NA,NA,NA,NA,NA,NA,NA,NA,NA,NA
1adfd,"""Falsch""-Screen",canvas.Screen,3_0_0_0_2_0_2,NA,NA,timeout,4999.34,124854,124852.44,124869.16,129851.9,129857,2023-09-27T17:00:23Z,129868.5,NULL,Widerstand,usulubu,d,NA,NA,NA,NA,sdf,0,0,NA,NA,NA,NA,NA,NA,NA,NA,NA,NA,NA,NA,NA,NA,NA,NA,NA,NA,NA
1adfd,deep,flow.Sequence,3_0_0_0_2_0,NA,NA,completion,8399.08,121443,121436.2,121452.82,129851.9,129861,2023-09-27T17:00:23Z,129868.5,NULL,Widerstand,usulubu,d,NA,NA,NA,NA,sdf,NA,0,NA,NA,NA,NA,NA,NA,NA,NA,NA,NA,NA,NA,NA,NA,NA,NA,NA,NA,NA
1adfd,shallow,flow.Sequence,3_0_0_0_2_1,NA,NA,skipped,NA,129862,NA,NA,129851.9,129862,2023-09-27T17:00:23Z,129868.5,NULL,Widerstand,usulubu,d,NA,NA,NA,NA,sdf,NA,0,NA,NA,NA,NA,NA,NA,NA,NA,NA,NA,NA,NA,NA,NA,NA,NA,NA,NA,NA
1adfd,task,flow.Sequence,3_0_0_0_2,NA,NA,completion,8399.08,121443,121436.2,121452.82,129851.9,129863,2023-09-27T17:00:23Z,129868.5,NULL,Widerstand,usulubu,d,NA,NA,NA,NA,sdf,NA,0,NA,NA,NA,NA,NA,NA,NA,NA,NA,NA,NA,NA,NA,NA,NA,NA,NA,NA,NA
1adfd,deep,flow.Sequence,3_0_0_0_3_0,NA,NA,skipped,NA,129863,NA,NA,129851.9,129864,2023-09-27T17:00:23Z,129868.5,NULL,Vergnügen,kichekesho,s,dubwana,mpanuko,mtesaji,NA,sdf,NA,0,NA,NA,NA,NA,NA,NA,NA,NA,NA,NA,NA,NA,NA,NA,NA,NA,NA,NA,NA
1adfd,Shallow Question,html.Page,3_0_0_0_3_1_0,NA,NA,form submission,6174.5,129864,129851.9,129868.5,136043,136044,2023-09-27T17:00:29Z,136051.04,NULL,Vergnügen,kichekesho,s,dubwana,mpanuko,mtesaji,dubwana,NA,NA,0,NA,NA,NA,NA,NA,NA,NA,NA,NA,NA,NA,NA,NA,NA,NA,NA,NA,NA,NA
1adfd,"""Richtig""-Screen",canvas.Screen,3_0_0_0_3_1_1,NA,NA,skipped,NA,136055,NA,NA,136043,136055,2023-09-27T17:00:29Z,136051.04,NULL,Vergnügen,kichekesho,s,dubwana,mpanuko,mtesaji,NA,sdf,NA,0,NA,NA,NA,NA,NA,NA,NA,NA,NA,NA,NA,NA,NA,NA,NA,NA,NA,NA,NA
1adfd,"""Falsch""-Screen",canvas.Screen,3_0_0_0_3_1_2,NA,NA,timeout,4999.26,136060,136035.48,136051.04,141033.76,141036,2023-09-27T17:00:34Z,141050.3,NULL,Vergnügen,kichekesho,s,dubwana,mpanuko,mtesaji,NA,sdf,0,0,NA,NA,NA,NA,NA,NA,NA,NA,NA,NA,NA,NA,NA,NA,NA,NA,NA,NA,NA
1adfd,shallow,flow.Sequence,3_0_0_0_3_1,NA,NA,completion,11165.26,129864,129851.9,129868.5,141033.76,141037,2023-09-27T17:00:34Z,141050.3,NULL,Vergnügen,kichekesho,s,dubwana,mpanuko,mtesaji,NA,sdf,NA,0,NA,NA,NA,NA,NA,NA,NA,NA,NA,NA,NA,NA,NA,NA,NA,NA,NA,NA,NA
1adfd,task,flow.Sequence,3_0_0_0_3,NA,NA,completion,11165.26,129863,129851.9,129868.5,141033.76,141037,2023-09-27T17:00:34Z,141050.3,NULL,Vergnügen,kichekesho,s,dubwana,mpanuko,mtesaji,NA,sdf,NA,0,NA,NA,NA,NA,NA,NA,NA,NA,NA,NA,NA,NA,NA,NA,NA,NA,NA,NA,NA
1adfd,Deep Question,html.Page,3_0_0_0_4_0_0,NA,NA,form submission,3481.7,141038,141033.76,141050.3,144532,144533,2023-09-27T17:00:38Z,144533.24,NULL,Ergänzung,kijalizo,d,NA,NA,NA,solati,NA,NA,0,NA,NA,NA,NA,NA,NA,NA,NA,NA,NA,NA,NA,NA,NA,NA,NA,NA,NA,NA
1adfd,"""Richtig""-Screen",canvas.Screen,3_0_0_0_4_0_1,NA,NA,skipped,NA,144536,NA,NA,144532,144536,2023-09-27T17:00:38Z,144533.24,NULL,Ergänzung,kijalizo,d,NA,NA,NA,NA,sdf,NA,0,NA,NA,NA,NA,NA,NA,NA,NA,NA,NA,NA,NA,NA,NA,NA,NA,NA,NA,NA
1adfd,"""Falsch""-Screen",canvas.Screen,3_0_0_0_4_0_2,NA,NA,timeout,4999.32,144539,144530.9,144533.24,149516.24,149517,2023-09-27T17:00:43Z,149532.56,NULL,Ergänzung,kijalizo,d,NA,NA,NA,NA,sdf,0,0,NA,NA,NA,NA,NA,NA,NA,NA,NA,NA,NA,NA,NA,NA,NA,NA,NA,NA,NA
1adfd,deep,flow.Sequence,3_0_0_0_4_0,NA,NA,completion,8465.94,141038,141033.76,141050.3,149516.24,149518,2023-09-27T17:00:43Z,149532.56,NULL,Ergänzung,kijalizo,d,NA,NA,NA,NA,sdf,NA,0,NA,NA,NA,NA,NA,NA,NA,NA,NA,NA,NA,NA,NA,NA,NA,NA,NA,NA,NA
1adfd,shallow,flow.Sequence,3_0_0_0_4_1,NA,NA,skipped,NA,149518,NA,NA,149516.24,149519,2023-09-27T17:00:43Z,149532.56,NULL,Ergänzung,kijalizo,d,NA,NA,NA,NA,sdf,NA,0,NA,NA,NA,NA,NA,NA,NA,NA,NA,NA,NA,NA,NA,NA,NA,NA,NA,NA,NA
1adfd,task,flow.Sequence,3_0_0_0_4,NA,NA,completion,8465.94,141038,141033.76,141050.3,149516.24,149519,2023-09-27T17:00:43Z,149532.56,NULL,Ergänzung,kijalizo,d,NA,NA,NA,NA,sdf,NA,0,NA,NA,NA,NA,NA,NA,NA,NA,NA,NA,NA,NA,NA,NA,NA,NA,NA,NA,NA
1adfd,deep,flow.Sequence,3_0_0_0_5_0,NA,NA,skipped,NA,149520,NA,NA,149516.24,149520,2023-09-27T17:00:43Z,149532.56,NULL,Notfall,dharura,s,rairai,malalamiko,ahueni,NA,sdf,NA,0,NA,NA,NA,NA,NA,NA,NA,NA,NA,NA,NA,NA,NA,NA,NA,NA,NA,NA,NA
1adfd,Shallow Question,html.Page,3_0_0_0_5_1_0,NA,NA,form submission,3916.44,149521,149516.24,149532.56,153449,153450,2023-09-27T17:00:46Z,153448.74,NULL,Notfall,dharura,s,rairai,malalamiko,ahueni,ahueni,NA,NA,0,NA,NA,NA,NA,NA,NA,NA,NA,NA,NA,NA,NA,NA,NA,NA,NA,NA,NA,NA
1adfd,"""Richtig""-Screen",canvas.Screen,3_0_0_0_5_1_1,NA,NA,skipped,NA,153453,NA,NA,153449,153454,2023-09-27T17:00:46Z,153448.74,NULL,Notfall,dharura,s,rairai,malalamiko,ahueni,NA,sdf,NA,0,NA,NA,NA,NA,NA,NA,NA,NA,NA,NA,NA,NA,NA,NA,NA,NA,NA,NA,NA
1adfd,"""Falsch""-Screen",canvas.Screen,3_0_0_0_5_1_2,NA,NA,timeout,4999.34,153457,153445.58,153448.74,158431.56,158433,2023-09-27T17:00:51Z,158448.08,NULL,Notfall,dharura,s,rairai,malalamiko,ahueni,NA,sdf,0,0,NA,NA,NA,NA,NA,NA,NA,NA,NA,NA,NA,NA,NA,NA,NA,NA,NA,NA,NA
1adfd,shallow,flow.Sequence,3_0_0_0_5_1,NA,NA,completion,8899,149520,149516.24,149532.56,158431.56,158433,2023-09-27T17:00:51Z,158448.08,NULL,Notfall,dharura,s,rairai,malalamiko,ahueni,NA,sdf,NA,0,NA,NA,NA,NA,NA,NA,NA,NA,NA,NA,NA,NA,NA,NA,NA,NA,NA,NA,NA
1adfd,task,flow.Sequence,3_0_0_0_5,NA,NA,completion,8899,149520,149516.24,149532.56,158431.56,158434,2023-09-27T17:00:51Z,158448.08,NULL,Notfall,dharura,s,rairai,malalamiko,ahueni,NA,sdf,NA,0,NA,NA,NA,NA,NA,NA,NA,NA,NA,NA,NA,NA,NA,NA,NA,NA,NA,NA,NA
1adfd,Deep Question,html.Page,3_0_0_0_6_0_0,NA,NA,form submission,3318.92,158435,158431.56,158448.08,161767,161767,2023-09-27T17:00:55Z,161780.96,NULL,Wohlstand,mafanikio,d,NA,NA,NA,seleti,NA,NA,0,NA,NA,NA,NA,NA,NA,NA,NA,NA,NA,NA,NA,NA,NA,NA,NA,NA,NA,NA
1adfd,"""Richtig""-Screen",canvas.Screen,3_0_0_0_6_0_1,NA,NA,skipped,NA,161770,NA,NA,161767,161770,2023-09-27T17:00:55Z,161780.96,NULL,Wohlstand,mafanikio,d,NA,NA,NA,NA,sdf,NA,0,NA,NA,NA,NA,NA,NA,NA,NA,NA,NA,NA,NA,NA,NA,NA,NA,NA,NA,NA
1adfd,"""Falsch""-Screen",canvas.Screen,3_0_0_0_6_0_2,NA,NA,timeout,4999.56,161773,161766.02,161780.96,166763.82,166765,2023-09-27T17:01:00Z,166780.52,NULL,Wohlstand,mafanikio,d,NA,NA,NA,NA,sdf,0,0,NA,NA,NA,NA,NA,NA,NA,NA,NA,NA,NA,NA,NA,NA,NA,NA,NA,NA,NA
1adfd,deep,flow.Sequence,3_0_0_0_6_0,NA,NA,completion,8315.74,158435,158431.56,158448.08,166763.82,166766,2023-09-27T17:01:00Z,166780.52,NULL,Wohlstand,mafanikio,d,NA,NA,NA,NA,sdf,NA,0,NA,NA,NA,NA,NA,NA,NA,NA,NA,NA,NA,NA,NA,NA,NA,NA,NA,NA,NA
1adfd,shallow,flow.Sequence,3_0_0_0_6_1,NA,NA,skipped,NA,166766,NA,NA,166763.82,166766,2023-09-27T17:01:00Z,166780.52,NULL,Wohlstand,mafanikio,d,NA,NA,NA,NA,sdf,NA,0,NA,NA,NA,NA,NA,NA,NA,NA,NA,NA,NA,NA,NA,NA,NA,NA,NA,NA,NA
1adfd,task,flow.Sequence,3_0_0_0_6,NA,NA,completion,8315.74,158435,158431.56,158448.08,166763.82,166767,2023-09-27T17:01:00Z,166780.52,NULL,Wohlstand,mafanikio,d,NA,NA,NA,NA,sdf,NA,0,NA,NA,NA,NA,NA,NA,NA,NA,NA,NA,NA,NA,NA,NA,NA,NA,NA,NA,NA
1adfd,deep,flow.Sequence,3_0_0_0_7_0,NA,NA,skipped,NA,166767,NA,NA,166763.82,166768,2023-09-27T17:01:00Z,166780.52,NULL,Ausschluss,kutengwa,s,ununuzi,taratibu,madeni,NA,sdf,NA,0,NA,NA,NA,NA,NA,NA,NA,NA,NA,NA,NA,NA,NA,NA,NA,NA,NA,NA,NA
1adfd,Shallow Question,html.Page,3_0_0_0_7_1_0,NA,NA,form submission,6373.48,166768,166763.82,166780.52,173154,173155,2023-09-27T17:01:06Z,173162.96,NULL,Ausschluss,kutengwa,s,ununuzi,taratibu,madeni,taratibu,NA,NA,0,NA,NA,NA,NA,NA,NA,NA,NA,NA,NA,NA,NA,NA,NA,NA,NA,NA,NA,NA
1adfd,"""Richtig""-Screen",canvas.Screen,3_0_0_0_7_1_1,NA,NA,skipped,NA,173160,NA,NA,173154,173161,2023-09-27T17:01:06Z,173162.96,NULL,Ausschluss,kutengwa,s,ununuzi,taratibu,madeni,NA,sdf,NA,0,NA,NA,NA,NA,NA,NA,NA,NA,NA,NA,NA,NA,NA,NA,NA,NA,NA,NA,NA
1adfd,"""Falsch""-Screen",canvas.Screen,3_0_0_0_7_1_2,NA,NA,timeout,4999.36,173167,173149.24,173162.96,178145.66,178147,2023-09-27T17:01:11Z,178162.32,NULL,Ausschluss,kutengwa,s,ununuzi,taratibu,madeni,NA,sdf,0,0,NA,NA,NA,NA,NA,NA,NA,NA,NA,NA,NA,NA,NA,NA,NA,NA,NA,NA,NA
1adfd,shallow,flow.Sequence,3_0_0_0_7_1,NA,NA,completion,11365.14,166768,166763.82,166780.52,178145.66,178147,2023-09-27T17:01:11Z,178162.32,NULL,Ausschluss,kutengwa,s,ununuzi,taratibu,madeni,NA,sdf,NA,0,NA,NA,NA,NA,NA,NA,NA,NA,NA,NA,NA,NA,NA,NA,NA,NA,NA,NA,NA
1adfd,task,flow.Sequence,3_0_0_0_7,NA,NA,completion,11365.14,166767,166763.82,166780.52,178145.66,178149,2023-09-27T17:01:11Z,178162.32,NULL,Ausschluss,kutengwa,s,ununuzi,taratibu,madeni,NA,sdf,NA,0,NA,NA,NA,NA,NA,NA,NA,NA,NA,NA,NA,NA,NA,NA,NA,NA,NA,NA,NA
1adfd,block,flow.Loop,3_0_0_0,NA,NA,completion,85555.66,92579,92579.06,92590,178145.66,178149,2023-09-27T17:01:11Z,178162.32,NULL,NA,NA,NA,NA,NA,NA,NA,sdf,NA,0,NA,NA,NA,NA,NA,NA,NA,NA,NA,NA,NA,NA,NA,NA,NA,NA,NA,NA,NA
1adfd,weiter,canvas.Screen,3_0_0_1,sdf,keypress(Space),response,994.67999999999,178150,178145.66,178162.32,179157,179165,2023-09-27T17:01:12Z,179228.7,NULL,NA,NA,NA,NA,NA,NA,NA,sdf,NA,0,NA,NA,NA,NA,NA,NA,NA,NA,NA,NA,NA,NA,NA,NA,NA,NA,NA,NA,NA
1adfd,check continue,flow.Sequence,3_0_0,NA,NA,completion,86567,92579,92579.06,92590,179157,179165,2023-09-27T17:01:12Z,179228.7,NULL,NA,NA,NA,NA,NA,NA,NA,sdf,NA,0,NA,NA,NA,NA,NA,NA,NA,NA,NA,NA,NA,NA,NA,NA,NA,NA,NA,NA,NA
1adfd,Deep Question,html.Page,3_0_1_0_0_0_0,NA,NA,form submission,3992.3,179215,179214.24,179228.7,183221,183221,2023-09-27T17:01:16Z,183228.28,NULL,Widerstand,usulubu,d,NA,NA,NA,usulubu,NA,NA,1,NA,NA,NA,NA,NA,NA,NA,NA,NA,NA,NA,NA,NA,NA,NA,NA,NA,NA,NA
1adfd,"""Richtig""-Screen",canvas.Screen,3_0_1_0_0_0_1,NA,NA,timeout,4999.34,183224,183220.46,183228.28,188211.28,188212,2023-09-27T17:01:21Z,188227.62,NULL,Widerstand,usulubu,d,NA,NA,NA,NA,sdfdsf,1,1,NA,NA,NA,NA,NA,NA,NA,NA,NA,NA,NA,NA,NA,NA,NA,NA,NA,NA,NA
1adfd,"""Falsch""-Screen",canvas.Screen,3_0_1_0_0_0_2,NA,NA,skipped,NA,188219,NA,NA,188211.28,188219,2023-09-27T17:01:21Z,188227.62,NULL,Widerstand,usulubu,d,NA,NA,NA,NA,sdfdsf,NA,1,NA,NA,NA,NA,NA,NA,NA,NA,NA,NA,NA,NA,NA,NA,NA,NA,NA,NA,NA
1adfd,deep,flow.Sequence,3_0_1_0_0_0,NA,NA,completion,8982.58,179215,179214.24,179228.7,188211.28,188220,2023-09-27T17:01:21Z,188227.62,NULL,Widerstand,usulubu,d,NA,NA,NA,NA,sdfdsf,NA,1,NA,NA,NA,NA,NA,NA,NA,NA,NA,NA,NA,NA,NA,NA,NA,NA,NA,NA,NA
1adfd,shallow,flow.Sequence,3_0_1_0_0_1,NA,NA,skipped,NA,188220,NA,NA,188211.28,188220,2023-09-27T17:01:21Z,188227.62,NULL,Widerstand,usulubu,d,NA,NA,NA,NA,sdfdsf,NA,1,NA,NA,NA,NA,NA,NA,NA,NA,NA,NA,NA,NA,NA,NA,NA,NA,NA,NA,NA
1adfd,task,flow.Sequence,3_0_1_0_0,NA,NA,completion,8982.58,179215,179214.24,179228.7,188211.28,188221,2023-09-27T17:01:21Z,188227.62,NULL,Widerstand,usulubu,d,NA,NA,NA,NA,sdfdsf,NA,1,NA,NA,NA,NA,NA,NA,NA,NA,NA,NA,NA,NA,NA,NA,NA,NA,NA,NA,NA
1adfd,deep,flow.Sequence,3_0_1_0_1_0,NA,NA,skipped,NA,188221,NA,NA,188211.28,188222,2023-09-27T17:01:21Z,188227.62,NULL,Gelegenheit,wakati,s,mchanganyiko,kipaumbele,kushuku,NA,sdfdsf,NA,1,NA,NA,NA,NA,NA,NA,NA,NA,NA,NA,NA,NA,NA,NA,NA,NA,NA,NA,NA
1adfd,Shallow Question,html.Page,3_0_1_0_1_1_0,NA,NA,form submission,4625.38,188222,188211.28,188227.62,192853,192853,2023-09-27T17:01:26Z,192860.34,NULL,Gelegenheit,wakati,s,mchanganyiko,kipaumbele,kushuku,wakati,NA,NA,1,NA,NA,NA,NA,NA,NA,NA,NA,NA,NA,NA,NA,NA,NA,NA,NA,NA,NA,NA
1adfd,"""Richtig""-Screen",canvas.Screen,3_0_1_0_1_1_1,NA,NA,timeout,4999.42,192855,192850.32,192860.34,197843.06,197845,2023-09-27T17:01:31Z,197859.76,NULL,Gelegenheit,wakati,s,mchanganyiko,kipaumbele,kushuku,NA,sdfdsf,1,1,NA,NA,NA,NA,NA,NA,NA,NA,NA,NA,NA,NA,NA,NA,NA,NA,NA,NA,NA
1adfd,"""Falsch""-Screen",canvas.Screen,3_0_1_0_1_1_2,NA,NA,skipped,NA,197849,NA,NA,197843.06,197849,2023-09-27T17:01:31Z,197859.76,NULL,Gelegenheit,wakati,s,mchanganyiko,kipaumbele,kushuku,NA,sdfdsf,NA,1,NA,NA,NA,NA,NA,NA,NA,NA,NA,NA,NA,NA,NA,NA,NA,NA,NA,NA,NA
1adfd,shallow,flow.Sequence,3_0_1_0_1_1,NA,NA,completion,9615.44,188222,188211.28,188227.62,197843.06,197849,2023-09-27T17:01:31Z,197859.76,NULL,Gelegenheit,wakati,s,mchanganyiko,kipaumbele,kushuku,NA,sdfdsf,NA,1,NA,NA,NA,NA,NA,NA,NA,NA,NA,NA,NA,NA,NA,NA,NA,NA,NA,NA,NA
1adfd,task,flow.Sequence,3_0_1_0_1,NA,NA,completion,9615.44,188221,188211.28,188227.62,197843.06,197849,2023-09-27T17:01:31Z,197859.76,NULL,Gelegenheit,wakati,s,mchanganyiko,kipaumbele,kushuku,NA,sdfdsf,NA,1,NA,NA,NA,NA,NA,NA,NA,NA,NA,NA,NA,NA,NA,NA,NA,NA,NA,NA,NA
1adfd,deep,flow.Sequence,3_0_1_0_2_0,NA,NA,skipped,NA,197849,NA,NA,197843.06,197849,2023-09-27T17:01:31Z,197859.76,NULL,Ausschluss,kutengwa,s,ununuzi,taratibu,madeni,NA,sdfdsf,NA,1,NA,NA,NA,NA,NA,NA,NA,NA,NA,NA,NA,NA,NA,NA,NA,NA,NA,NA,NA
1adfd,Shallow Question,html.Page,3_0_1_0_2_1_0,NA,NA,form submission,9378.24,197849,197843.06,197859.76,207238,207239,2023-09-27T17:01:40Z,207241.88,NULL,Ausschluss,kutengwa,s,ununuzi,taratibu,madeni,taratibu,NA,NA,1,NA,NA,NA,NA,NA,NA,NA,NA,NA,NA,NA,NA,NA,NA,NA,NA,NA,NA,NA
1adfd,"""Richtig""-Screen",canvas.Screen,3_0_1_0_2_1_1,NA,NA,skipped,NA,207243,NA,NA,207238,207243,2023-09-27T17:01:40Z,207241.88,NULL,Ausschluss,kutengwa,s,ununuzi,taratibu,madeni,NA,sdfdsf,NA,1,NA,NA,NA,NA,NA,NA,NA,NA,NA,NA,NA,NA,NA,NA,NA,NA,NA,NA,NA
1adfd,"""Falsch""-Screen",canvas.Screen,3_0_1_0_2_1_2,NA,NA,timeout,4999.44,207246,207231.48,207241.88,212224.64,212226,2023-09-27T17:01:45Z,212241.32,NULL,Ausschluss,kutengwa,s,ununuzi,taratibu,madeni,NA,sdfdsf,0,1,NA,NA,NA,NA,NA,NA,NA,NA,NA,NA,NA,NA,NA,NA,NA,NA,NA,NA,NA
1adfd,shallow,flow.Sequence,3_0_1_0_2_1,NA,NA,completion,14364.88,197849,197843.06,197859.76,212224.64,212228,2023-09-27T17:01:45Z,212241.32,NULL,Ausschluss,kutengwa,s,ununuzi,taratibu,madeni,NA,sdfdsf,NA,1,NA,NA,NA,NA,NA,NA,NA,NA,NA,NA,NA,NA,NA,NA,NA,NA,NA,NA,NA
1adfd,task,flow.Sequence,3_0_1_0_2,NA,NA,completion,14364.88,197849,197843.06,197859.76,212224.64,212228,2023-09-27T17:01:45Z,212241.32,NULL,Ausschluss,kutengwa,s,ununuzi,taratibu,madeni,NA,sdfdsf,NA,1,NA,NA,NA,NA,NA,NA,NA,NA,NA,NA,NA,NA,NA,NA,NA,NA,NA,NA,NA
1adfd,Deep Question,html.Page,3_0_1_0_3_0_0,NA,NA,form submission,5062.68,212229,212224.64,212241.32,217304,217304,2023-09-27T17:01:50Z,217307.3,NULL,Verstand,ufahamivu,d,NA,NA,NA,salama,NA,NA,1,NA,NA,NA,NA,NA,NA,NA,NA,NA,NA,NA,NA,NA,NA,NA,NA,NA,NA,NA
1adfd,"""Richtig""-Screen",canvas.Screen,3_0_1_0_3_0_1,NA,NA,skipped,NA,217307,NA,NA,217304,217307,2023-09-27T17:01:50Z,217307.3,NULL,Verstand,ufahamivu,d,NA,NA,NA,NA,sdfdsf,NA,1,NA,NA,NA,NA,NA,NA,NA,NA,NA,NA,NA,NA,NA,NA,NA,NA,NA,NA,NA
1adfd,"""Falsch""-Screen",canvas.Screen,3_0_1_0_3_0_2,NA,NA,timeout,4999.32,217310,217302.38,217307.3,222290.52,222292,2023-09-27T17:01:55Z,222306.62,NULL,Verstand,ufahamivu,d,NA,NA,NA,NA,sdfdsf,0,1,NA,NA,NA,NA,NA,NA,NA,NA,NA,NA,NA,NA,NA,NA,NA,NA,NA,NA,NA
1adfd,deep,flow.Sequence,3_0_1_0_3_0,NA,NA,completion,10049.2,212229,212224.64,212241.32,222290.52,222293,2023-09-27T17:01:55Z,222306.62,NULL,Verstand,ufahamivu,d,NA,NA,NA,NA,sdfdsf,NA,1,NA,NA,NA,NA,NA,NA,NA,NA,NA,NA,NA,NA,NA,NA,NA,NA,NA,NA,NA
1adfd,shallow,flow.Sequence,3_0_1_0_3_1,NA,NA,skipped,NA,222293,NA,NA,222290.52,222294,2023-09-27T17:01:55Z,222306.62,NULL,Verstand,ufahamivu,d,NA,NA,NA,NA,sdfdsf,NA,1,NA,NA,NA,NA,NA,NA,NA,NA,NA,NA,NA,NA,NA,NA,NA,NA,NA,NA,NA
1adfd,task,flow.Sequence,3_0_1_0_3,NA,NA,completion,10049.2,212229,212224.64,212241.32,222290.52,222294,2023-09-27T17:01:55Z,222306.62,NULL,Verstand,ufahamivu,d,NA,NA,NA,NA,sdfdsf,NA,1,NA,NA,NA,NA,NA,NA,NA,NA,NA,NA,NA,NA,NA,NA,NA,NA,NA,NA,NA
1adfd,deep,flow.Sequence,3_0_1_0_4_0,NA,NA,skipped,NA,222294,NA,NA,222290.52,222294,2023-09-27T17:01:55Z,222306.62,NULL,Notfall,dharura,s,rairai,malalamiko,ahueni,NA,sdfdsf,NA,1,NA,NA,NA,NA,NA,NA,NA,NA,NA,NA,NA,NA,NA,NA,NA,NA,NA,NA,NA
1adfd,Shallow Question,html.Page,3_0_1_0_4_1_0,NA,NA,form submission,3684.38,222296,222290.52,222306.62,225991,225992,2023-09-27T17:01:59Z,225989.44,NULL,Notfall,dharura,s,rairai,malalamiko,ahueni,dharura,NA,NA,1,NA,NA,NA,NA,NA,NA,NA,NA,NA,NA,NA,NA,NA,NA,NA,NA,NA,NA,NA
1adfd,"""Richtig""-Screen",canvas.Screen,3_0_1_0_4_1_1,NA,NA,timeout,4999.4,225995,225986.44,225989.44,230972.26,230974,2023-09-27T17:02:04Z,230988.84,NULL,Notfall,dharura,s,rairai,malalamiko,ahueni,NA,sdfdsf,1,1,NA,NA,NA,NA,NA,NA,NA,NA,NA,NA,NA,NA,NA,NA,NA,NA,NA,NA,NA
1adfd,"""Falsch""-Screen",canvas.Screen,3_0_1_0_4_1_2,NA,NA,skipped,NA,230980,NA,NA,230972.26,230980,2023-09-27T17:02:04Z,230988.84,NULL,Notfall,dharura,s,rairai,malalamiko,ahueni,NA,sdfdsf,NA,1,NA,NA,NA,NA,NA,NA,NA,NA,NA,NA,NA,NA,NA,NA,NA,NA,NA,NA,NA
1adfd,shallow,flow.Sequence,3_0_1_0_4_1,NA,NA,completion,8665.64,222296,222290.52,222306.62,230972.26,230980,2023-09-27T17:02:04Z,230988.84,NULL,Notfall,dharura,s,rairai,malalamiko,ahueni,NA,sdfdsf,NA,1,NA,NA,NA,NA,NA,NA,NA,NA,NA,NA,NA,NA,NA,NA,NA,NA,NA,NA,NA
1adfd,task,flow.Sequence,3_0_1_0_4,NA,NA,completion,8665.64,222294,222290.52,222306.62,230972.26,230980,2023-09-27T17:02:04Z,230988.84,NULL,Notfall,dharura,s,rairai,malalamiko,ahueni,NA,sdfdsf,NA,1,NA,NA,NA,NA,NA,NA,NA,NA,NA,NA,NA,NA,NA,NA,NA,NA,NA,NA,NA
1adfd,deep,flow.Sequence,3_0_1_0_5_0,NA,NA,skipped,NA,230981,NA,NA,230972.26,230981,2023-09-27T17:02:04Z,230988.84,NULL,Vergnügen,kichekesho,s,dubwana,mpanuko,mtesaji,NA,sdfdsf,NA,1,NA,NA,NA,NA,NA,NA,NA,NA,NA,NA,NA,NA,NA,NA,NA,NA,NA,NA,NA
1adfd,Shallow Question,html.Page,3_0_1_0_5_1_0,NA,NA,form submission,7979.16,230981,230972.26,230988.84,238968,238968,2023-09-27T17:02:12Z,238971.16,NULL,Vergnügen,kichekesho,s,dubwana,mpanuko,mtesaji,kichekesho,NA,NA,1,NA,NA,NA,NA,NA,NA,NA,NA,NA,NA,NA,NA,NA,NA,NA,NA,NA,NA,NA
1adfd,"""Richtig""-Screen",canvas.Screen,3_0_1_0_5_1_1,NA,NA,timeout,4999.36,238971,238963.2,238971.16,243953.96,243956,2023-09-27T17:02:17Z,243970.52,NULL,Vergnügen,kichekesho,s,dubwana,mpanuko,mtesaji,NA,sdfdsf,1,1,NA,NA,NA,NA,NA,NA,NA,NA,NA,NA,NA,NA,NA,NA,NA,NA,NA,NA,NA
1adfd,"""Falsch""-Screen",canvas.Screen,3_0_1_0_5_1_2,NA,NA,skipped,NA,243962,NA,NA,243953.96,243962,2023-09-27T17:02:17Z,243970.52,NULL,Vergnügen,kichekesho,s,dubwana,mpanuko,mtesaji,NA,sdfdsf,NA,1,NA,NA,NA,NA,NA,NA,NA,NA,NA,NA,NA,NA,NA,NA,NA,NA,NA,NA,NA
1adfd,shallow,flow.Sequence,3_0_1_0_5_1,NA,NA,completion,12965.12,230981,230972.26,230988.84,243953.96,243963,2023-09-27T17:02:17Z,243970.52,NULL,Vergnügen,kichekesho,s,dubwana,mpanuko,mtesaji,NA,sdfdsf,NA,1,NA,NA,NA,NA,NA,NA,NA,NA,NA,NA,NA,NA,NA,NA,NA,NA,NA,NA,NA
1adfd,task,flow.Sequence,3_0_1_0_5,NA,NA,completion,12965.12,230981,230972.26,230988.84,243953.96,243964,2023-09-27T17:02:17Z,243970.52,NULL,Vergnügen,kichekesho,s,dubwana,mpanuko,mtesaji,NA,sdfdsf,NA,1,NA,NA,NA,NA,NA,NA,NA,NA,NA,NA,NA,NA,NA,NA,NA,NA,NA,NA,NA
1adfd,Deep Question,html.Page,3_0_1_0_6_0_0,NA,NA,form submission,5010.48,243964,243953.96,243970.52,248981,248982,2023-09-27T17:02:22Z,248986.58,NULL,Ergänzung,kijalizo,d,NA,NA,NA,asalama,NA,NA,1,NA,NA,NA,NA,NA,NA,NA,NA,NA,NA,NA,NA,NA,NA,NA,NA,NA,NA,NA
1adfd,"""Richtig""-Screen",canvas.Screen,3_0_1_0_6_0_1,NA,NA,skipped,NA,248984,NA,NA,248981,248985,2023-09-27T17:02:22Z,248986.58,NULL,Ergänzung,kijalizo,d,NA,NA,NA,NA,sdfdsf,NA,1,NA,NA,NA,NA,NA,NA,NA,NA,NA,NA,NA,NA,NA,NA,NA,NA,NA,NA,NA
1adfd,"""Falsch""-Screen",canvas.Screen,3_0_1_0_6_0_2,NA,NA,timeout,4999.32,248987,248980.18,248986.58,253969.58,253975,2023-09-27T17:02:27Z,253985.9,NULL,Ergänzung,kijalizo,d,NA,NA,NA,NA,sdfdsf,0,1,NA,NA,NA,NA,NA,NA,NA,NA,NA,NA,NA,NA,NA,NA,NA,NA,NA,NA,NA
1adfd,deep,flow.Sequence,3_0_1_0_6_0,NA,NA,completion,9999.06,243964,243953.96,243970.52,253969.58,253977,2023-09-27T17:02:27Z,253985.9,NULL,Ergänzung,kijalizo,d,NA,NA,NA,NA,sdfdsf,NA,1,NA,NA,NA,NA,NA,NA,NA,NA,NA,NA,NA,NA,NA,NA,NA,NA,NA,NA,NA
1adfd,shallow,flow.Sequence,3_0_1_0_6_1,NA,NA,skipped,NA,253980,NA,NA,253969.58,253980,2023-09-27T17:02:27Z,253985.9,NULL,Ergänzung,kijalizo,d,NA,NA,NA,NA,sdfdsf,NA,1,NA,NA,NA,NA,NA,NA,NA,NA,NA,NA,NA,NA,NA,NA,NA,NA,NA,NA,NA
1adfd,task,flow.Sequence,3_0_1_0_6,NA,NA,completion,9999.06,243964,243953.96,243970.52,253969.58,253981,2023-09-27T17:02:27Z,253985.9,NULL,Ergänzung,kijalizo,d,NA,NA,NA,NA,sdfdsf,NA,1,NA,NA,NA,NA,NA,NA,NA,NA,NA,NA,NA,NA,NA,NA,NA,NA,NA,NA,NA
1adfd,Deep Question,html.Page,3_0_1_0_7_0_0,NA,NA,form submission,7463.1,253981,253969.58,253985.9,261449,261449,2023-09-27T17:02:34Z,261451.68,NULL,Wohlstand,mafanikio,d,NA,NA,NA,kujiki,NA,NA,1,NA,NA,NA,NA,NA,NA,NA,NA,NA,NA,NA,NA,NA,NA,NA,NA,NA,NA,NA
1adfd,"""Richtig""-Screen",canvas.Screen,3_0_1_0_7_0_1,NA,NA,skipped,NA,261456,NA,NA,261449,261456,2023-09-27T17:02:35Z,261451.68,NULL,Wohlstand,mafanikio,d,NA,NA,NA,NA,sdfdsf,NA,1,NA,NA,NA,NA,NA,NA,NA,NA,NA,NA,NA,NA,NA,NA,NA,NA,NA,NA,NA
1adfd,"""Falsch""-Screen",canvas.Screen,3_0_1_0_7_0_2,NA,NA,timeout,4999.36,261459,261447.4,261451.68,266434.36,266435,2023-09-27T17:02:39Z,266451.04,NULL,Wohlstand,mafanikio,d,NA,NA,NA,NA,sdfdsf,0,1,NA,NA,NA,NA,NA,NA,NA,NA,NA,NA,NA,NA,NA,NA,NA,NA,NA,NA,NA
1adfd,deep,flow.Sequence,3_0_1_0_7_0,NA,NA,completion,12448.46,253981,253969.58,253985.9,266434.36,266435,2023-09-27T17:02:39Z,266451.04,NULL,Wohlstand,mafanikio,d,NA,NA,NA,NA,sdfdsf,NA,1,NA,NA,NA,NA,NA,NA,NA,NA,NA,NA,NA,NA,NA,NA,NA,NA,NA,NA,NA
1adfd,shallow,flow.Sequence,3_0_1_0_7_1,NA,NA,skipped,NA,266436,NA,NA,266434.36,266436,2023-09-27T17:02:39Z,266451.04,NULL,Wohlstand,mafanikio,d,NA,NA,NA,NA,sdfdsf,NA,1,NA,NA,NA,NA,NA,NA,NA,NA,NA,NA,NA,NA,NA,NA,NA,NA,NA,NA,NA
1adfd,task,flow.Sequence,3_0_1_0_7,NA,NA,completion,12448.46,253981,253969.58,253985.9,266434.36,266436,2023-09-27T17:02:39Z,266451.04,NULL,Wohlstand,mafanikio,d,NA,NA,NA,NA,sdfdsf,NA,1,NA,NA,NA,NA,NA,NA,NA,NA,NA,NA,NA,NA,NA,NA,NA,NA,NA,NA,NA
1adfd,block,flow.Loop,3_0_1_0,NA,NA,completion,87205.66,179215,179214.24,179228.7,266434.36,266437,2023-09-27T17:02:39Z,266451.04,NULL,NA,NA,NA,NA,NA,NA,NA,sdfdsf,NA,1,NA,NA,NA,NA,NA,NA,NA,NA,NA,NA,NA,NA,NA,NA,NA,NA,NA,NA,NA
1adfd,weiter,canvas.Screen,3_0_1_1,sdf,keypress(Space),response,909.96000000002,266437,266434.36,266451.04,267361,267374,2023-09-27T17:02:40Z,267450.84,NULL,NA,NA,NA,NA,NA,NA,NA,sdfdsf,NA,1,NA,NA,NA,NA,NA,NA,NA,NA,NA,NA,NA,NA,NA,NA,NA,NA,NA,NA,NA
1adfd,check continue,flow.Sequence,3_0_1,NA,NA,completion,88132.3,179214,179214.24,179228.7,267361,267375,2023-09-27T17:02:40Z,267450.84,NULL,NA,NA,NA,NA,NA,NA,NA,sdfdsf,NA,1,NA,NA,NA,NA,NA,NA,NA,NA,NA,NA,NA,NA,NA,NA,NA,NA,NA,NA,NA
1adfd,deep,flow.Sequence,3_0_2_0_0_0,NA,NA,skipped,NA,267437,NA,NA,267361,267437,2023-09-27T17:02:40Z,267450.84,NULL,Vergnügen,kichekesho,s,dubwana,mpanuko,mtesaji,NA,sdf,NA,2,NA,NA,NA,NA,NA,NA,NA,NA,NA,NA,NA,NA,NA,NA,NA,NA,NA,NA,NA
1adfd,Shallow Question,html.Page,3_0_2_0_0_1_0,NA,NA,form submission,3939.16,267437,267436.78,267450.84,271390,271391,2023-09-27T17:02:44Z,271400.3,NULL,Vergnügen,kichekesho,s,dubwana,mpanuko,mtesaji,kichekesho,NA,NA,2,NA,NA,NA,NA,NA,NA,NA,NA,NA,NA,NA,NA,NA,NA,NA,NA,NA,NA,NA
1adfd,"""Richtig""-Screen",canvas.Screen,3_0_2_0_0_1_1,NA,NA,timeout,4999.54,271392,271388.44,271400.3,276383.18,276385,2023-09-27T17:02:49Z,276399.84,NULL,Vergnügen,kichekesho,s,dubwana,mpanuko,mtesaji,NA,sdf,1,2,NA,NA,NA,NA,NA,NA,NA,NA,NA,NA,NA,NA,NA,NA,NA,NA,NA,NA,NA
1adfd,"""Falsch""-Screen",canvas.Screen,3_0_2_0_0_1_2,NA,NA,skipped,NA,276389,NA,NA,276383.18,276389,2023-09-27T17:02:49Z,276399.84,NULL,Vergnügen,kichekesho,s,dubwana,mpanuko,mtesaji,NA,sdf,NA,2,NA,NA,NA,NA,NA,NA,NA,NA,NA,NA,NA,NA,NA,NA,NA,NA,NA,NA,NA
1adfd,shallow,flow.Sequence,3_0_2_0_0_1,NA,NA,completion,8932.34,267437,267436.78,267450.84,276383.18,276390,2023-09-27T17:02:49Z,276399.84,NULL,Vergnügen,kichekesho,s,dubwana,mpanuko,mtesaji,NA,sdf,NA,2,NA,NA,NA,NA,NA,NA,NA,NA,NA,NA,NA,NA,NA,NA,NA,NA,NA,NA,NA
1adfd,task,flow.Sequence,3_0_2_0_0,NA,NA,completion,8932.34,267437,267436.78,267450.84,276383.18,276390,2023-09-27T17:02:49Z,276399.84,NULL,Vergnügen,kichekesho,s,dubwana,mpanuko,mtesaji,NA,sdf,NA,2,NA,NA,NA,NA,NA,NA,NA,NA,NA,NA,NA,NA,NA,NA,NA,NA,NA,NA,NA
1adfd,Deep Question,html.Page,3_0_2_0_1_0_0,NA,NA,form submission,3410.16,276390,276383.18,276399.84,279810,279810,2023-09-27T17:02:53Z,279815.92,NULL,Widerstand,usulubu,d,NA,NA,NA,usulubu,NA,NA,2,NA,NA,NA,NA,NA,NA,NA,NA,NA,NA,NA,NA,NA,NA,NA,NA,NA,NA,NA
1adfd,"""Richtig""-Screen",canvas.Screen,3_0_2_0_1_0_1,NA,NA,timeout,4999.36,279813,279809.08,279815.92,284798.76,284800,2023-09-27T17:02:58Z,284815.28,NULL,Widerstand,usulubu,d,NA,NA,NA,NA,sdf,1,2,NA,NA,NA,NA,NA,NA,NA,NA,NA,NA,NA,NA,NA,NA,NA,NA,NA,NA,NA
1adfd,"""Falsch""-Screen",canvas.Screen,3_0_2_0_1_0_2,NA,NA,skipped,NA,284807,NA,NA,284798.76,284807,2023-09-27T17:02:58Z,284815.28,NULL,Widerstand,usulubu,d,NA,NA,NA,NA,sdf,NA,2,NA,NA,NA,NA,NA,NA,NA,NA,NA,NA,NA,NA,NA,NA,NA,NA,NA,NA,NA
1adfd,deep,flow.Sequence,3_0_2_0_1_0,NA,NA,completion,8398.92,276390,276383.18,276399.84,284798.76,284807,2023-09-27T17:02:58Z,284815.28,NULL,Widerstand,usulubu,d,NA,NA,NA,NA,sdf,NA,2,NA,NA,NA,NA,NA,NA,NA,NA,NA,NA,NA,NA,NA,NA,NA,NA,NA,NA,NA
1adfd,shallow,flow.Sequence,3_0_2_0_1_1,NA,NA,skipped,NA,284807,NA,NA,284798.76,284808,2023-09-27T17:02:58Z,284815.28,NULL,Widerstand,usulubu,d,NA,NA,NA,NA,sdf,NA,2,NA,NA,NA,NA,NA,NA,NA,NA,NA,NA,NA,NA,NA,NA,NA,NA,NA,NA,NA
1adfd,task,flow.Sequence,3_0_2_0_1,NA,NA,completion,8398.92,276390,276383.18,276399.84,284798.76,284808,2023-09-27T17:02:58Z,284815.28,NULL,Widerstand,usulubu,d,NA,NA,NA,NA,sdf,NA,2,NA,NA,NA,NA,NA,NA,NA,NA,NA,NA,NA,NA,NA,NA,NA,NA,NA,NA,NA
1adfd,deep,flow.Sequence,3_0_2_0_2_0,NA,NA,skipped,NA,284808,NA,NA,284798.76,284808,2023-09-27T17:02:58Z,284815.28,NULL,Ausschluss,kutengwa,s,ununuzi,taratibu,madeni,NA,sdf,NA,2,NA,NA,NA,NA,NA,NA,NA,NA,NA,NA,NA,NA,NA,NA,NA,NA,NA,NA,NA
1adfd,Shallow Question,html.Page,3_0_2_0_2_1_0,NA,NA,form submission,4316.72,284808,284798.76,284815.28,289132,289133,2023-09-27T17:03:02Z,289131.36,NULL,Ausschluss,kutengwa,s,ununuzi,taratibu,madeni,kutengwa,NA,NA,2,NA,NA,NA,NA,NA,NA,NA,NA,NA,NA,NA,NA,NA,NA,NA,NA,NA,NA,NA
1adfd,"""Richtig""-Screen",canvas.Screen,3_0_2_0_2_1_1,NA,NA,timeout,4999.42,289134,289130.34,289131.36,294114.22,294116,2023-09-27T17:03:07Z,294130.78,NULL,Ausschluss,kutengwa,s,ununuzi,taratibu,madeni,NA,sdf,1,2,NA,NA,NA,NA,NA,NA,NA,NA,NA,NA,NA,NA,NA,NA,NA,NA,NA,NA,NA
1adfd,"""Falsch""-Screen",canvas.Screen,3_0_2_0_2_1_2,NA,NA,skipped,NA,294121,NA,NA,294114.22,294122,2023-09-27T17:03:07Z,294130.78,NULL,Ausschluss,kutengwa,s,ununuzi,taratibu,madeni,NA,sdf,NA,2,NA,NA,NA,NA,NA,NA,NA,NA,NA,NA,NA,NA,NA,NA,NA,NA,NA,NA,NA
1adfd,shallow,flow.Sequence,3_0_2_0_2_1,NA,NA,completion,9298.9399999999,284808,284798.76,284815.28,294114.22,294122,2023-09-27T17:03:07Z,294130.78,NULL,Ausschluss,kutengwa,s,ununuzi,taratibu,madeni,NA,sdf,NA,2,NA,NA,NA,NA,NA,NA,NA,NA,NA,NA,NA,NA,NA,NA,NA,NA,NA,NA,NA
1adfd,task,flow.Sequence,3_0_2_0_2,NA,NA,completion,9298.9399999999,284808,284798.76,284815.28,294114.22,294123,2023-09-27T17:03:07Z,294130.78,NULL,Ausschluss,kutengwa,s,ununuzi,taratibu,madeni,NA,sdf,NA,2,NA,NA,NA,NA,NA,NA,NA,NA,NA,NA,NA,NA,NA,NA,NA,NA,NA,NA,NA
1adfd,Deep Question,html.Page,3_0_2_0_3_0_0,NA,NA,form submission,4890.22,294123,294114.22,294130.78,299021,299022,2023-09-27T17:03:12Z,299030.2,NULL,Wohlstand,mafanikio,d,NA,NA,NA,usholowili,NA,NA,2,NA,NA,NA,NA,NA,NA,NA,NA,NA,NA,NA,NA,NA,NA,NA,NA,NA,NA,NA
1adfd,"""Richtig""-Screen",canvas.Screen,3_0_2_0_3_0_1,NA,NA,skipped,NA,299024,NA,NA,299021,299024,2023-09-27T17:03:12Z,299030.2,NULL,Wohlstand,mafanikio,d,NA,NA,NA,NA,sdf,NA,2,NA,NA,NA,NA,NA,NA,NA,NA,NA,NA,NA,NA,NA,NA,NA,NA,NA,NA,NA
1adfd,"""Falsch""-Screen",canvas.Screen,3_0_2_0_3_0_2,NA,NA,timeout,4997.56,299027,299020.28,299030.2,304012.94,304015,2023-09-27T17:03:17Z,304027.76,NULL,Wohlstand,mafanikio,d,NA,NA,NA,NA,sdf,0,2,NA,NA,NA,NA,NA,NA,NA,NA,NA,NA,NA,NA,NA,NA,NA,NA,NA,NA,NA
1adfd,deep,flow.Sequence,3_0_2_0_3_0,NA,NA,completion,9882.16,294123,294114.22,294130.78,304012.94,304015,2023-09-27T17:03:17Z,304027.76,NULL,Wohlstand,mafanikio,d,NA,NA,NA,NA,sdf,NA,2,NA,NA,NA,NA,NA,NA,NA,NA,NA,NA,NA,NA,NA,NA,NA,NA,NA,NA,NA
1adfd,shallow,flow.Sequence,3_0_2_0_3_1,NA,NA,skipped,NA,304015,NA,NA,304012.94,304016,2023-09-27T17:03:17Z,304027.76,NULL,Wohlstand,mafanikio,d,NA,NA,NA,NA,sdf,NA,2,NA,NA,NA,NA,NA,NA,NA,NA,NA,NA,NA,NA,NA,NA,NA,NA,NA,NA,NA
1adfd,task,flow.Sequence,3_0_2_0_3,NA,NA,completion,9882.16,294123,294114.22,294130.78,304012.94,304016,2023-09-27T17:03:17Z,304027.76,NULL,Wohlstand,mafanikio,d,NA,NA,NA,NA,sdf,NA,2,NA,NA,NA,NA,NA,NA,NA,NA,NA,NA,NA,NA,NA,NA,NA,NA,NA,NA,NA
1adfd,deep,flow.Sequence,3_0_2_0_4_0,NA,NA,skipped,NA,304017,NA,NA,304012.94,304017,2023-09-27T17:03:17Z,304027.76,NULL,Gelegenheit,wakati,s,mchanganyiko,kipaumbele,kushuku,NA,sdf,NA,2,NA,NA,NA,NA,NA,NA,NA,NA,NA,NA,NA,NA,NA,NA,NA,NA,NA,NA,NA
1adfd,Shallow Question,html.Page,3_0_2_0_4_1_0,NA,NA,form submission,3734.24,304017,304012.94,304027.76,307762,307762,2023-09-27T17:03:21Z,307762.34,NULL,Gelegenheit,wakati,s,mchanganyiko,kipaumbele,kushuku,wakati,NA,NA,2,NA,NA,NA,NA,NA,NA,NA,NA,NA,NA,NA,NA,NA,NA,NA,NA,NA,NA,NA
1adfd,"""Richtig""-Screen",canvas.Screen,3_0_2_0_4_1_1,NA,NA,timeout,4999.4,307764,307760.54,307762.34,312745.2,312746,2023-09-27T17:03:26Z,312761.74,NULL,Gelegenheit,wakati,s,mchanganyiko,kipaumbele,kushuku,NA,sdf,1,2,NA,NA,NA,NA,NA,NA,NA,NA,NA,NA,NA,NA,NA,NA,NA,NA,NA,NA,NA
1adfd,"""Falsch""-Screen",canvas.Screen,3_0_2_0_4_1_2,NA,NA,skipped,NA,312752,NA,NA,312745.2,312752,2023-09-27T17:03:26Z,312761.74,NULL,Gelegenheit,wakati,s,mchanganyiko,kipaumbele,kushuku,NA,sdf,NA,2,NA,NA,NA,NA,NA,NA,NA,NA,NA,NA,NA,NA,NA,NA,NA,NA,NA,NA,NA
1adfd,shallow,flow.Sequence,3_0_2_0_4_1,NA,NA,completion,8717.44,304017,304012.94,304027.76,312745.2,312752,2023-09-27T17:03:26Z,312761.74,NULL,Gelegenheit,wakati,s,mchanganyiko,kipaumbele,kushuku,NA,sdf,NA,2,NA,NA,NA,NA,NA,NA,NA,NA,NA,NA,NA,NA,NA,NA,NA,NA,NA,NA,NA
1adfd,task,flow.Sequence,3_0_2_0_4,NA,NA,completion,8717.44,304016,304012.94,304027.76,312745.2,312753,2023-09-27T17:03:26Z,312761.74,NULL,Gelegenheit,wakati,s,mchanganyiko,kipaumbele,kushuku,NA,sdf,NA,2,NA,NA,NA,NA,NA,NA,NA,NA,NA,NA,NA,NA,NA,NA,NA,NA,NA,NA,NA
1adfd,Deep Question,html.Page,3_0_2_0_5_0_0,NA,NA,form submission,4815.26,312753,312745.2,312761.74,317577,317577,2023-09-27T17:03:31Z,317577.76,NULL,Verstand,ufahamivu,d,NA,NA,NA,ushili,NA,NA,2,NA,NA,NA,NA,NA,NA,NA,NA,NA,NA,NA,NA,NA,NA,NA,NA,NA,NA,NA
1adfd,"""Richtig""-Screen",canvas.Screen,3_0_2_0_5_0_1,NA,NA,skipped,NA,317579,NA,NA,317577,317579,2023-09-27T17:03:31Z,317577.76,NULL,Verstand,ufahamivu,d,NA,NA,NA,NA,sdf,NA,2,NA,NA,NA,NA,NA,NA,NA,NA,NA,NA,NA,NA,NA,NA,NA,NA,NA,NA,NA
1adfd,"""Falsch""-Screen",canvas.Screen,3_0_2_0_5_0_2,NA,NA,timeout,4999.38,317580,317576.78,317577.76,322561,322564,2023-09-27T17:03:36Z,322577.14,NULL,Verstand,ufahamivu,d,NA,NA,NA,NA,sdf,0,2,NA,NA,NA,NA,NA,NA,NA,NA,NA,NA,NA,NA,NA,NA,NA,NA,NA,NA,NA
1adfd,deep,flow.Sequence,3_0_2_0_5_0,NA,NA,completion,9799.26,312753,312745.2,312761.74,322561,322566,2023-09-27T17:03:36Z,322577.14,NULL,Verstand,ufahamivu,d,NA,NA,NA,NA,sdf,NA,2,NA,NA,NA,NA,NA,NA,NA,NA,NA,NA,NA,NA,NA,NA,NA,NA,NA,NA,NA
1adfd,shallow,flow.Sequence,3_0_2_0_5_1,NA,NA,skipped,NA,322567,NA,NA,322561,322568,2023-09-27T17:03:36Z,322577.14,NULL,Verstand,ufahamivu,d,NA,NA,NA,NA,sdf,NA,2,NA,NA,NA,NA,NA,NA,NA,NA,NA,NA,NA,NA,NA,NA,NA,NA,NA,NA,NA
1adfd,task,flow.Sequence,3_0_2_0_5,NA,NA,completion,9799.26,312753,312745.2,312761.74,322561,322569,2023-09-27T17:03:36Z,322577.14,NULL,Verstand,ufahamivu,d,NA,NA,NA,NA,sdf,NA,2,NA,NA,NA,NA,NA,NA,NA,NA,NA,NA,NA,NA,NA,NA,NA,NA,NA,NA,NA
1adfd,Deep Question,html.Page,3_0_2_0_6_0_0,NA,NA,form submission,5012.86,322570,322561,322577.14,327590,327591,2023-09-27T17:03:41Z,327593.18,NULL,Ergänzung,kijalizo,d,NA,NA,NA,aslama,NA,NA,2,NA,NA,NA,NA,NA,NA,NA,NA,NA,NA,NA,NA,NA,NA,NA,NA,NA,NA,NA
1adfd,"""Richtig""-Screen",canvas.Screen,3_0_2_0_6_0_1,NA,NA,skipped,NA,327598,NA,NA,327590,327598,2023-09-27T17:03:41Z,327593.18,NULL,Ergänzung,kijalizo,d,NA,NA,NA,NA,sdf,NA,2,NA,NA,NA,NA,NA,NA,NA,NA,NA,NA,NA,NA,NA,NA,NA,NA,NA,NA,NA
1adfd,"""Falsch""-Screen",canvas.Screen,3_0_2_0_6_0_2,NA,NA,timeout,4999.54,327600,327589.02,327593.18,332576.02,332577,2023-09-27T17:03:46Z,332592.72,NULL,Ergänzung,kijalizo,d,NA,NA,NA,NA,sdf,0,2,NA,NA,NA,NA,NA,NA,NA,NA,NA,NA,NA,NA,NA,NA,NA,NA,NA,NA,NA
1adfd,deep,flow.Sequence,3_0_2_0_6_0,NA,NA,completion,9998.88,322570,322561,322577.14,332576.02,332578,2023-09-27T17:03:46Z,332592.72,NULL,Ergänzung,kijalizo,d,NA,NA,NA,NA,sdf,NA,2,NA,NA,NA,NA,NA,NA,NA,NA,NA,NA,NA,NA,NA,NA,NA,NA,NA,NA,NA
1adfd,shallow,flow.Sequence,3_0_2_0_6_1,NA,NA,skipped,NA,332578,NA,NA,332576.02,332578,2023-09-27T17:03:46Z,332592.72,NULL,Ergänzung,kijalizo,d,NA,NA,NA,NA,sdf,NA,2,NA,NA,NA,NA,NA,NA,NA,NA,NA,NA,NA,NA,NA,NA,NA,NA,NA,NA,NA
1adfd,task,flow.Sequence,3_0_2_0_6,NA,NA,completion,9998.88,322569,322561,322577.14,332576.02,332580,2023-09-27T17:03:46Z,332592.72,NULL,Ergänzung,kijalizo,d,NA,NA,NA,NA,sdf,NA,2,NA,NA,NA,NA,NA,NA,NA,NA,NA,NA,NA,NA,NA,NA,NA,NA,NA,NA,NA
1adfd,deep,flow.Sequence,3_0_2_0_7_0,NA,NA,skipped,NA,332580,NA,NA,332576.02,332581,2023-09-27T17:03:46Z,332592.72,NULL,Notfall,dharura,s,rairai,malalamiko,ahueni,NA,sdf,NA,2,NA,NA,NA,NA,NA,NA,NA,NA,NA,NA,NA,NA,NA,NA,NA,NA,NA,NA,NA
1adfd,Shallow Question,html.Page,3_0_2_0_7_1_0,NA,NA,form submission,3177.28,332582,332576.02,332592.72,335770,335771,2023-09-27T17:03:49Z,335775.44,NULL,Notfall,dharura,s,rairai,malalamiko,ahueni,dharura,NA,NA,2,NA,NA,NA,NA,NA,NA,NA,NA,NA,NA,NA,NA,NA,NA,NA,NA,NA,NA,NA
1adfd,"""Richtig""-Screen",canvas.Screen,3_0_2_0_7_1_1,NA,NA,timeout,4999.6,335773,335766.32,335775.44,340758.32,340760,2023-09-27T17:03:54Z,340775.04,NULL,Notfall,dharura,s,rairai,malalamiko,ahueni,NA,sdf,1,2,NA,NA,NA,NA,NA,NA,NA,NA,NA,NA,NA,NA,NA,NA,NA,NA,NA,NA,NA
1adfd,"""Falsch""-Screen",canvas.Screen,3_0_2_0_7_1_2,NA,NA,skipped,NA,340766,NA,NA,340758.32,340767,2023-09-27T17:03:54Z,340775.04,NULL,Notfall,dharura,s,rairai,malalamiko,ahueni,NA,sdf,NA,2,NA,NA,NA,NA,NA,NA,NA,NA,NA,NA,NA,NA,NA,NA,NA,NA,NA,NA,NA
1adfd,shallow,flow.Sequence,3_0_2_0_7_1,NA,NA,completion,8165.6,332581,332576.02,332592.72,340758.32,340768,2023-09-27T17:03:54Z,340775.04,NULL,Notfall,dharura,s,rairai,malalamiko,ahueni,NA,sdf,NA,2,NA,NA,NA,NA,NA,NA,NA,NA,NA,NA,NA,NA,NA,NA,NA,NA,NA,NA,NA
1adfd,task,flow.Sequence,3_0_2_0_7,NA,NA,completion,8165.6,332580,332576.02,332592.72,340758.32,340769,2023-09-27T17:03:54Z,340775.04,NULL,Notfall,dharura,s,rairai,malalamiko,ahueni,NA,sdf,NA,2,NA,NA,NA,NA,NA,NA,NA,NA,NA,NA,NA,NA,NA,NA,NA,NA,NA,NA,NA
1adfd,block,flow.Loop,3_0_2_0,NA,NA,completion,73307.48,267437,267436.78,267450.84,340758.32,340769,2023-09-27T17:03:54Z,340775.04,NULL,NA,NA,NA,NA,NA,NA,NA,sdf,NA,2,NA,NA,NA,NA,NA,NA,NA,NA,NA,NA,NA,NA,NA,NA,NA,NA,NA,NA,NA
1adfd,weiter,canvas.Screen,3_0_2_1,sdf,keypress(Space),response,773.96000000002,340769,340758.32,340775.04,341549,341557,2023-09-27T17:03:55Z,341624.82,NULL,NA,NA,NA,NA,NA,NA,NA,sdf,NA,2,NA,NA,NA,NA,NA,NA,NA,NA,NA,NA,NA,NA,NA,NA,NA,NA,NA,NA,NA
1adfd,check continue,flow.Sequence,3_0_2,NA,NA,completion,74098.16,267437,267436.78,267450.84,341549,341558,2023-09-27T17:03:55Z,341624.82,NULL,NA,NA,NA,NA,NA,NA,NA,sdf,NA,2,NA,NA,NA,NA,NA,NA,NA,NA,NA,NA,NA,NA,NA,NA,NA,NA,NA,NA,NA
1adfd,Deep Question,html.Page,3_0_3_0_0_0_0,NA,NA,form submission,7650.18,341615,341614.16,341624.82,349275,349276,2023-09-27T17:04:02Z,349290.38,NULL,Wohlstand,mafanikio,d,NA,NA,NA,ushiliniki,NA,NA,3,NA,NA,NA,NA,NA,NA,NA,NA,NA,NA,NA,NA,NA,NA,NA,NA,NA,NA,NA
1adfd,"""Richtig""-Screen",canvas.Screen,3_0_3_0_0_0_1,NA,NA,skipped,NA,349278,NA,NA,349275,349278,2023-09-27T17:04:02Z,349290.38,NULL,Wohlstand,mafanikio,d,NA,NA,NA,NA,qt,NA,3,NA,NA,NA,NA,NA,NA,NA,NA,NA,NA,NA,NA,NA,NA,NA,NA,NA,NA,NA
1adfd,"""Falsch""-Screen",canvas.Screen,3_0_3_0_0_0_2,NA,NA,timeout,4999.36,349280,349274.02,349290.38,354273.28,354274,2023-09-27T17:04:07Z,354289.74,NULL,Wohlstand,mafanikio,d,NA,NA,NA,NA,qt,0,3,NA,NA,NA,NA,NA,NA,NA,NA,NA,NA,NA,NA,NA,NA,NA,NA,NA,NA,NA
1adfd,deep,flow.Sequence,3_0_3_0_0_0,NA,NA,completion,12648.46,341615,341614.16,341624.82,354273.28,354275,2023-09-27T17:04:07Z,354289.74,NULL,Wohlstand,mafanikio,d,NA,NA,NA,NA,qt,NA,3,NA,NA,NA,NA,NA,NA,NA,NA,NA,NA,NA,NA,NA,NA,NA,NA,NA,NA,NA
1adfd,shallow,flow.Sequence,3_0_3_0_0_1,NA,NA,skipped,NA,354275,NA,NA,354273.28,354275,2023-09-27T17:04:07Z,354289.74,NULL,Wohlstand,mafanikio,d,NA,NA,NA,NA,qt,NA,3,NA,NA,NA,NA,NA,NA,NA,NA,NA,NA,NA,NA,NA,NA,NA,NA,NA,NA,NA
1adfd,task,flow.Sequence,3_0_3_0_0,NA,NA,completion,12648.46,341614,341614.16,341624.82,354273.28,354276,2023-09-27T17:04:07Z,354289.74,NULL,Wohlstand,mafanikio,d,NA,NA,NA,NA,qt,NA,3,NA,NA,NA,NA,NA,NA,NA,NA,NA,NA,NA,NA,NA,NA,NA,NA,NA,NA,NA
1adfd,Deep Question,html.Page,3_0_3_0_1_0_0,NA,NA,form submission,4752.26,354277,354273.28,354289.74,359042,359043,2023-09-27T17:04:12Z,359055.84,NULL,Verstand,ufahamivu,d,NA,NA,NA,kinjizo,NA,NA,3,NA,NA,NA,NA,NA,NA,NA,NA,NA,NA,NA,NA,NA,NA,NA,NA,NA,NA,NA
1adfd,"""Richtig""-Screen",canvas.Screen,3_0_3_0_1_0_1,NA,NA,skipped,NA,359046,NA,NA,359042,359046,2023-09-27T17:04:12Z,359055.84,NULL,Verstand,ufahamivu,d,NA,NA,NA,NA,qt,NA,3,NA,NA,NA,NA,NA,NA,NA,NA,NA,NA,NA,NA,NA,NA,NA,NA,NA,NA,NA
1adfd,"""Falsch""-Screen",canvas.Screen,3_0_3_0_1_0_2,NA,NA,timeout,4999.4,359048,359041.46,359055.84,364038.56,364040,2023-09-27T17:04:17Z,364055.24,NULL,Verstand,ufahamivu,d,NA,NA,NA,NA,qt,0,3,NA,NA,NA,NA,NA,NA,NA,NA,NA,NA,NA,NA,NA,NA,NA,NA,NA,NA,NA
1adfd,deep,flow.Sequence,3_0_3_0_1_0,NA,NA,completion,9748.82,354277,354273.28,354289.74,364038.56,364040,2023-09-27T17:04:17Z,364055.24,NULL,Verstand,ufahamivu,d,NA,NA,NA,NA,qt,NA,3,NA,NA,NA,NA,NA,NA,NA,NA,NA,NA,NA,NA,NA,NA,NA,NA,NA,NA,NA
1adfd,shallow,flow.Sequence,3_0_3_0_1_1,NA,NA,skipped,NA,364040,NA,NA,364038.56,364040,2023-09-27T17:04:17Z,364055.24,NULL,Verstand,ufahamivu,d,NA,NA,NA,NA,qt,NA,3,NA,NA,NA,NA,NA,NA,NA,NA,NA,NA,NA,NA,NA,NA,NA,NA,NA,NA,NA
1adfd,task,flow.Sequence,3_0_3_0_1,NA,NA,completion,9748.82,354277,354273.28,354289.74,364038.56,364041,2023-09-27T17:04:17Z,364055.24,NULL,Verstand,ufahamivu,d,NA,NA,NA,NA,qt,NA,3,NA,NA,NA,NA,NA,NA,NA,NA,NA,NA,NA,NA,NA,NA,NA,NA,NA,NA,NA
1adfd,deep,flow.Sequence,3_0_3_0_2_0,NA,NA,skipped,NA,364041,NA,NA,364038.56,364041,2023-09-27T17:04:17Z,364055.24,NULL,Ausschluss,kutengwa,s,ununuzi,taratibu,madeni,NA,qt,NA,3,NA,NA,NA,NA,NA,NA,NA,NA,NA,NA,NA,NA,NA,NA,NA,NA,NA,NA,NA
1adfd,Shallow Question,html.Page,3_0_3_0_2_1_0,NA,NA,form submission,6450.76,364041,364038.56,364055.24,370506,370506,2023-09-27T17:04:24Z,370503.96,NULL,Ausschluss,kutengwa,s,ununuzi,taratibu,madeni,kutengwa,NA,NA,3,NA,NA,NA,NA,NA,NA,NA,NA,NA,NA,NA,NA,NA,NA,NA,NA,NA,NA,NA
1adfd,"""Richtig""-Screen",canvas.Screen,3_0_3_0_2_1_1,NA,NA,timeout,4999.74,370509,370499.84,370503.96,375487.16,375488,2023-09-27T17:04:29Z,375503.7,NULL,Ausschluss,kutengwa,s,ununuzi,taratibu,madeni,NA,qt,1,3,NA,NA,NA,NA,NA,NA,NA,NA,NA,NA,NA,NA,NA,NA,NA,NA,NA,NA,NA
1adfd,"""Falsch""-Screen",canvas.Screen,3_0_3_0_2_1_2,NA,NA,skipped,NA,375494,NA,NA,375487.16,375495,2023-09-27T17:04:29Z,375503.7,NULL,Ausschluss,kutengwa,s,ununuzi,taratibu,madeni,NA,qt,NA,3,NA,NA,NA,NA,NA,NA,NA,NA,NA,NA,NA,NA,NA,NA,NA,NA,NA,NA,NA
1adfd,shallow,flow.Sequence,3_0_3_0_2_1,NA,NA,completion,11431.92,364041,364038.56,364055.24,375487.16,375495,2023-09-27T17:04:29Z,375503.7,NULL,Ausschluss,kutengwa,s,ununuzi,taratibu,madeni,NA,qt,NA,3,NA,NA,NA,NA,NA,NA,NA,NA,NA,NA,NA,NA,NA,NA,NA,NA,NA,NA,NA
1adfd,task,flow.Sequence,3_0_3_0_2,NA,NA,completion,11431.92,364041,364038.56,364055.24,375487.16,375495,2023-09-27T17:04:29Z,375503.7,NULL,Ausschluss,kutengwa,s,ununuzi,taratibu,madeni,NA,qt,NA,3,NA,NA,NA,NA,NA,NA,NA,NA,NA,NA,NA,NA,NA,NA,NA,NA,NA,NA,NA
1adfd,Deep Question,html.Page,3_0_3_0_3_0_0,NA,NA,form submission,7029.3,375496,375487.16,375503.7,382533,382535,2023-09-27T17:04:36Z,382536.22,NULL,Ergänzung,kijalizo,d,NA,NA,NA,kinjizo,NA,NA,3,NA,NA,NA,NA,NA,NA,NA,NA,NA,NA,NA,NA,NA,NA,NA,NA,NA,NA,NA
1adfd,"""Richtig""-Screen",canvas.Screen,3_0_3_0_3_0_1,NA,NA,skipped,NA,382542,NA,NA,382533,382542,2023-09-27T17:04:36Z,382536.22,NULL,Ergänzung,kijalizo,d,NA,NA,NA,NA,qt,NA,3,NA,NA,NA,NA,NA,NA,NA,NA,NA,NA,NA,NA,NA,NA,NA,NA,NA,NA,NA
1adfd,"""Falsch""-Screen",canvas.Screen,3_0_3_0_3_0_2,NA,NA,timeout,4999.36,382546,382532.04,382536.22,387519.36,387521,2023-09-27T17:04:41Z,387535.58,NULL,Ergänzung,kijalizo,d,NA,NA,NA,NA,qt,0,3,NA,NA,NA,NA,NA,NA,NA,NA,NA,NA,NA,NA,NA,NA,NA,NA,NA,NA,NA
1adfd,deep,flow.Sequence,3_0_3_0_3_0,NA,NA,completion,12015.66,375496,375487.16,375503.7,387519.36,387521,2023-09-27T17:04:41Z,387535.58,NULL,Ergänzung,kijalizo,d,NA,NA,NA,NA,qt,NA,3,NA,NA,NA,NA,NA,NA,NA,NA,NA,NA,NA,NA,NA,NA,NA,NA,NA,NA,NA
1adfd,shallow,flow.Sequence,3_0_3_0_3_1,NA,NA,skipped,NA,387522,NA,NA,387519.36,387522,2023-09-27T17:04:41Z,387535.58,NULL,Ergänzung,kijalizo,d,NA,NA,NA,NA,qt,NA,3,NA,NA,NA,NA,NA,NA,NA,NA,NA,NA,NA,NA,NA,NA,NA,NA,NA,NA,NA
1adfd,task,flow.Sequence,3_0_3_0_3,NA,NA,completion,12015.66,375496,375487.16,375503.7,387519.36,387523,2023-09-27T17:04:41Z,387535.58,NULL,Ergänzung,kijalizo,d,NA,NA,NA,NA,qt,NA,3,NA,NA,NA,NA,NA,NA,NA,NA,NA,NA,NA,NA,NA,NA,NA,NA,NA,NA,NA
1adfd,Deep Question,html.Page,3_0_3_0_4_0_0,NA,NA,form submission,2782.42,387524,387519.36,387535.58,390318,390319,2023-09-27T17:04:43Z,390318.52,NULL,Widerstand,usulubu,d,NA,NA,NA,usulubu,NA,NA,3,NA,NA,NA,NA,NA,NA,NA,NA,NA,NA,NA,NA,NA,NA,NA,NA,NA,NA,NA
1adfd,"""Richtig""-Screen",canvas.Screen,3_0_3_0_4_0_1,NA,NA,timeout,4999.36,390321,390317.18,390318.52,395301.26,395303,2023-09-27T17:04:48Z,395317.88,NULL,Widerstand,usulubu,d,NA,NA,NA,NA,qt,1,3,NA,NA,NA,NA,NA,NA,NA,NA,NA,NA,NA,NA,NA,NA,NA,NA,NA,NA,NA
1adfd,"""Falsch""-Screen",canvas.Screen,3_0_3_0_4_0_2,NA,NA,skipped,NA,395310,NA,NA,395301.26,395310,2023-09-27T17:04:48Z,395317.88,NULL,Widerstand,usulubu,d,NA,NA,NA,NA,qt,NA,3,NA,NA,NA,NA,NA,NA,NA,NA,NA,NA,NA,NA,NA,NA,NA,NA,NA,NA,NA
1adfd,deep,flow.Sequence,3_0_3_0_4_0,NA,NA,completion,7765.68,387524,387519.36,387535.58,395301.26,395310,2023-09-27T17:04:48Z,395317.88,NULL,Widerstand,usulubu,d,NA,NA,NA,NA,qt,NA,3,NA,NA,NA,NA,NA,NA,NA,NA,NA,NA,NA,NA,NA,NA,NA,NA,NA,NA,NA
1adfd,shallow,flow.Sequence,3_0_3_0_4_1,NA,NA,skipped,NA,395310,NA,NA,395301.26,395311,2023-09-27T17:04:48Z,395317.88,NULL,Widerstand,usulubu,d,NA,NA,NA,NA,qt,NA,3,NA,NA,NA,NA,NA,NA,NA,NA,NA,NA,NA,NA,NA,NA,NA,NA,NA,NA,NA
1adfd,task,flow.Sequence,3_0_3_0_4,NA,NA,completion,7765.68,387523,387519.36,387535.58,395301.26,395311,2023-09-27T17:04:48Z,395317.88,NULL,Widerstand,usulubu,d,NA,NA,NA,NA,qt,NA,3,NA,NA,NA,NA,NA,NA,NA,NA,NA,NA,NA,NA,NA,NA,NA,NA,NA,NA,NA
1adfd,deep,flow.Sequence,3_0_3_0_5_0,NA,NA,skipped,NA,395312,NA,NA,395301.26,395312,2023-09-27T17:04:48Z,395317.88,NULL,Notfall,dharura,s,rairai,malalamiko,ahueni,NA,qt,NA,3,NA,NA,NA,NA,NA,NA,NA,NA,NA,NA,NA,NA,NA,NA,NA,NA,NA,NA,NA
1adfd,Shallow Question,html.Page,3_0_3_0_5_1_0,NA,NA,form submission,2673.12,395312,395301.26,395317.88,397991,397991,2023-09-27T17:04:51Z,398000.82,NULL,Notfall,dharura,s,rairai,malalamiko,ahueni,dharura,NA,NA,3,NA,NA,NA,NA,NA,NA,NA,NA,NA,NA,NA,NA,NA,NA,NA,NA,NA,NA,NA
1adfd,"""Richtig""-Screen",canvas.Screen,3_0_3_0_5_1_1,NA,NA,timeout,4999.34,397996,397986.76,398000.82,402983.56,402985,2023-09-27T17:04:56Z,403000.16,NULL,Notfall,dharura,s,rairai,malalamiko,ahueni,NA,qt,1,3,NA,NA,NA,NA,NA,NA,NA,NA,NA,NA,NA,NA,NA,NA,NA,NA,NA,NA,NA
1adfd,"""Falsch""-Screen",canvas.Screen,3_0_3_0_5_1_2,NA,NA,skipped,NA,402991,NA,NA,402983.56,402992,2023-09-27T17:04:56Z,403000.16,NULL,Notfall,dharura,s,rairai,malalamiko,ahueni,NA,qt,NA,3,NA,NA,NA,NA,NA,NA,NA,NA,NA,NA,NA,NA,NA,NA,NA,NA,NA,NA,NA
1adfd,shallow,flow.Sequence,3_0_3_0_5_1,NA,NA,completion,7665.68,395312,395301.26,395317.88,402983.56,402992,2023-09-27T17:04:56Z,403000.16,NULL,Notfall,dharura,s,rairai,malalamiko,ahueni,NA,qt,NA,3,NA,NA,NA,NA,NA,NA,NA,NA,NA,NA,NA,NA,NA,NA,NA,NA,NA,NA,NA
1adfd,task,flow.Sequence,3_0_3_0_5,NA,NA,completion,7665.68,395312,395301.26,395317.88,402983.56,402992,2023-09-27T17:04:56Z,403000.16,NULL,Notfall,dharura,s,rairai,malalamiko,ahueni,NA,qt,NA,3,NA,NA,NA,NA,NA,NA,NA,NA,NA,NA,NA,NA,NA,NA,NA,NA,NA,NA,NA
1adfd,deep,flow.Sequence,3_0_3_0_6_0,NA,NA,skipped,NA,402993,NA,NA,402983.56,402993,2023-09-27T17:04:56Z,403000.16,NULL,Gelegenheit,wakati,s,mchanganyiko,kipaumbele,kushuku,NA,qt,NA,3,NA,NA,NA,NA,NA,NA,NA,NA,NA,NA,NA,NA,NA,NA,NA,NA,NA,NA,NA
1adfd,Shallow Question,html.Page,3_0_3_0_6_1_0,NA,NA,form submission,3820.84,402993,402983.56,403000.16,406821,406821,2023-09-27T17:05:00Z,406816.42,NULL,Gelegenheit,wakati,s,mchanganyiko,kipaumbele,kushuku,wakati,NA,NA,3,NA,NA,NA,NA,NA,NA,NA,NA,NA,NA,NA,NA,NA,NA,NA,NA,NA,NA,NA
1adfd,"""Richtig""-Screen",canvas.Screen,3_0_3_0_6_1_1,NA,NA,timeout,4999.32,406824,406816.2,406816.42,411799.28,411801,2023-09-27T17:05:05Z,411815.74,NULL,Gelegenheit,wakati,s,mchanganyiko,kipaumbele,kushuku,NA,qt,1,3,NA,NA,NA,NA,NA,NA,NA,NA,NA,NA,NA,NA,NA,NA,NA,NA,NA,NA,NA
1adfd,"""Falsch""-Screen",canvas.Screen,3_0_3_0_6_1_2,NA,NA,skipped,NA,411806,NA,NA,411799.28,411807,2023-09-27T17:05:05Z,411815.74,NULL,Gelegenheit,wakati,s,mchanganyiko,kipaumbele,kushuku,NA,qt,NA,3,NA,NA,NA,NA,NA,NA,NA,NA,NA,NA,NA,NA,NA,NA,NA,NA,NA,NA,NA
1adfd,shallow,flow.Sequence,3_0_3_0_6_1,NA,NA,completion,8799.1200000001,402993,402983.56,403000.16,411799.28,411808,2023-09-27T17:05:05Z,411815.74,NULL,Gelegenheit,wakati,s,mchanganyiko,kipaumbele,kushuku,NA,qt,NA,3,NA,NA,NA,NA,NA,NA,NA,NA,NA,NA,NA,NA,NA,NA,NA,NA,NA,NA,NA
1adfd,task,flow.Sequence,3_0_3_0_6,NA,NA,completion,8799.1200000001,402993,402983.56,403000.16,411799.28,411809,2023-09-27T17:05:05Z,411815.74,NULL,Gelegenheit,wakati,s,mchanganyiko,kipaumbele,kushuku,NA,qt,NA,3,NA,NA,NA,NA,NA,NA,NA,NA,NA,NA,NA,NA,NA,NA,NA,NA,NA,NA,NA
1adfd,deep,flow.Sequence,3_0_3_0_7_0,NA,NA,skipped,NA,411809,NA,NA,411799.28,411809,2023-09-27T17:05:05Z,411815.74,NULL,Vergnügen,kichekesho,s,dubwana,mpanuko,mtesaji,NA,qt,NA,3,NA,NA,NA,NA,NA,NA,NA,NA,NA,NA,NA,NA,NA,NA,NA,NA,NA,NA,NA
1adfd,Shallow Question,html.Page,3_0_3_0_7_1_0,NA,NA,form submission,4033.26,411810,411799.28,411815.74,415849,415849,2023-09-27T17:05:09Z,415848.62,NULL,Vergnügen,kichekesho,s,dubwana,mpanuko,mtesaji,kichekesho,NA,NA,3,NA,NA,NA,NA,NA,NA,NA,NA,NA,NA,NA,NA,NA,NA,NA,NA,NA,NA,NA
1adfd,"""Richtig""-Screen",canvas.Screen,3_0_3_0_7_1_1,NA,NA,timeout,4999.32,415853,415844.98,415848.62,420831.64,420833,2023-09-27T17:05:14Z,420847.94,NULL,Vergnügen,kichekesho,s,dubwana,mpanuko,mtesaji,NA,qt,1,3,NA,NA,NA,NA,NA,NA,NA,NA,NA,NA,NA,NA,NA,NA,NA,NA,NA,NA,NA
1adfd,"""Falsch""-Screen",canvas.Screen,3_0_3_0_7_1_2,NA,NA,skipped,NA,420841,NA,NA,420831.64,420841,2023-09-27T17:05:14Z,420847.94,NULL,Vergnügen,kichekesho,s,dubwana,mpanuko,mtesaji,NA,qt,NA,3,NA,NA,NA,NA,NA,NA,NA,NA,NA,NA,NA,NA,NA,NA,NA,NA,NA,NA,NA
1adfd,shallow,flow.Sequence,3_0_3_0_7_1,NA,NA,completion,9015.9,411809,411799.28,411815.74,420831.64,420841,2023-09-27T17:05:14Z,420847.94,NULL,Vergnügen,kichekesho,s,dubwana,mpanuko,mtesaji,NA,qt,NA,3,NA,NA,NA,NA,NA,NA,NA,NA,NA,NA,NA,NA,NA,NA,NA,NA,NA,NA,NA
1adfd,task,flow.Sequence,3_0_3_0_7,NA,NA,completion,9015.9,411809,411799.28,411815.74,420831.64,420841,2023-09-27T17:05:14Z,420847.94,NULL,Vergnügen,kichekesho,s,dubwana,mpanuko,mtesaji,NA,qt,NA,3,NA,NA,NA,NA,NA,NA,NA,NA,NA,NA,NA,NA,NA,NA,NA,NA,NA,NA,NA
1adfd,block,flow.Loop,3_0_3_0,NA,NA,completion,79206.82,341614,341614.16,341624.82,420831.64,420842,2023-09-27T17:05:14Z,420847.94,NULL,NA,NA,NA,NA,NA,NA,NA,qt,NA,3,NA,NA,NA,NA,NA,NA,NA,NA,NA,NA,NA,NA,NA,NA,NA,NA,NA,NA,NA
1adfd,weiter,canvas.Screen,3_0_3_1,sdf,keypress(Space),response,637.06,420842,420831.64,420847.94,421485,421494,2023-09-27T17:05:15Z,422230.88,NULL,NA,NA,NA,NA,NA,NA,NA,qt,NA,3,NA,NA,NA,NA,NA,NA,NA,NA,NA,NA,NA,NA,NA,NA,NA,NA,NA,NA,NA
1adfd,check continue,flow.Sequence,3_0_3,NA,NA,completion,79860.18,341614,341614.16,341624.82,421485,421495,2023-09-27T17:05:15Z,422230.88,NULL,NA,NA,NA,NA,NA,NA,NA,qt,NA,3,NA,NA,NA,NA,NA,NA,NA,NA,NA,NA,NA,NA,NA,NA,NA,NA,NA,NA,NA
1adfd,check continue,flow.Sequence,3_0_4,NA,NA,skipped,NA,421550,NA,NA,421485,421550,2023-09-27T17:05:15Z,422230.88,NULL,NA,NA,NA,NA,NA,NA,NA,sd,NA,4,NA,NA,NA,NA,NA,NA,NA,NA,NA,NA,NA,NA,NA,NA,NA,NA,NA,NA,NA
1adfd,check continue,flow.Sequence,3_0_5,NA,NA,skipped,NA,421580,NA,NA,421485,421580,2023-09-27T17:05:15Z,422230.88,NULL,NA,NA,NA,NA,NA,NA,NA,sdf,NA,5,NA,NA,NA,NA,NA,NA,NA,NA,NA,NA,NA,NA,NA,NA,NA,NA,NA,NA,NA
1adfd,check continue,flow.Sequence,3_0_6,NA,NA,skipped,NA,421609,NA,NA,421485,421610,2023-09-27T17:05:15Z,422230.88,NULL,NA,NA,NA,NA,NA,NA,NA,dfs,NA,6,NA,NA,NA,NA,NA,NA,NA,NA,NA,NA,NA,NA,NA,NA,NA,NA,NA,NA,NA
1adfd,check continue,flow.Sequence,3_0_7,NA,NA,skipped,NA,421638,NA,NA,421485,421638,2023-09-27T17:05:15Z,422230.88,NULL,NA,NA,NA,NA,NA,NA,NA,df,NA,7,NA,NA,NA,NA,NA,NA,NA,NA,NA,NA,NA,NA,NA,NA,NA,NA,NA,NA,NA
1adfd,check continue,flow.Sequence,3_0_8,NA,NA,skipped,NA,421669,NA,NA,421485,421669,2023-09-27T17:05:15Z,422230.88,NULL,NA,NA,NA,NA,NA,NA,NA,dfs,NA,8,NA,NA,NA,NA,NA,NA,NA,NA,NA,NA,NA,NA,NA,NA,NA,NA,NA,NA,NA
1adfd,check continue,flow.Sequence,3_0_9,NA,NA,skipped,NA,421697,NA,NA,421485,421697,2023-09-27T17:05:15Z,422230.88,NULL,NA,NA,NA,NA,NA,NA,NA,dsf,NA,9,NA,NA,NA,NA,NA,NA,NA,NA,NA,NA,NA,NA,NA,NA,NA,NA,NA,NA,NA
1adfd,check continue,flow.Sequence,3_0_10,NA,NA,skipped,NA,421725,NA,NA,421485,421725,2023-09-27T17:05:15Z,422230.88,NULL,NA,NA,NA,NA,NA,NA,NA,df,NA,10,NA,NA,NA,NA,NA,NA,NA,NA,NA,NA,NA,NA,NA,NA,NA,NA,NA,NA,NA
1adfd,check continue,flow.Sequence,3_0_11,NA,NA,skipped,NA,421750,NA,NA,421485,421750,2023-09-27T17:05:15Z,422230.88,NULL,NA,NA,NA,NA,NA,NA,NA,dfs,NA,11,NA,NA,NA,NA,NA,NA,NA,NA,NA,NA,NA,NA,NA,NA,NA,NA,NA,NA,NA
1adfd,check continue,flow.Sequence,3_0_12,NA,NA,skipped,NA,421780,NA,NA,421485,421780,2023-09-27T17:05:15Z,422230.88,NULL,NA,NA,NA,NA,NA,NA,NA,dsf,NA,12,NA,NA,NA,NA,NA,NA,NA,NA,NA,NA,NA,NA,NA,NA,NA,NA,NA,NA,NA
1adfd,check continue,flow.Sequence,3_0_13,NA,NA,skipped,NA,421805,NA,NA,421485,421805,2023-09-27T17:05:15Z,422230.88,NULL,NA,NA,NA,NA,NA,NA,NA,dsf,NA,13,NA,NA,NA,NA,NA,NA,NA,NA,NA,NA,NA,NA,NA,NA,NA,NA,NA,NA,NA
1adfd,check continue,flow.Sequence,3_0_14,NA,NA,skipped,NA,421829,NA,NA,421485,421829,2023-09-27T17:05:15Z,422230.88,NULL,NA,NA,NA,NA,NA,NA,NA,NA,NA,14,NA,NA,NA,NA,NA,NA,NA,NA,NA,NA,NA,NA,NA,NA,NA,NA,NA,NA,NA
1adfd,check continue,flow.Sequence,3_0_15,NA,NA,skipped,NA,421858,NA,NA,421485,421858,2023-09-27T17:05:15Z,422230.88,NULL,NA,NA,NA,NA,NA,NA,NA,NA,NA,15,NA,NA,NA,NA,NA,NA,NA,NA,NA,NA,NA,NA,NA,NA,NA,NA,NA,NA,NA
1adfd,check continue,flow.Sequence,3_0_16,NA,NA,skipped,NA,421884,NA,NA,421485,421884,2023-09-27T17:05:15Z,422230.88,NULL,NA,NA,NA,NA,NA,NA,NA,NA,NA,16,NA,NA,NA,NA,NA,NA,NA,NA,NA,NA,NA,NA,NA,NA,NA,NA,NA,NA,NA
1adfd,check continue,flow.Sequence,3_0_17,NA,NA,skipped,NA,421909,NA,NA,421485,421909,2023-09-27T17:05:15Z,422230.88,NULL,NA,NA,NA,NA,NA,NA,NA,NA,NA,17,NA,NA,NA,NA,NA,NA,NA,NA,NA,NA,NA,NA,NA,NA,NA,NA,NA,NA,NA
1adfd,check continue,flow.Sequence,3_0_18,NA,NA,skipped,NA,421936,NA,NA,421485,421936,2023-09-27T17:05:15Z,422230.88,NULL,NA,NA,NA,NA,NA,NA,NA,NA,NA,18,NA,NA,NA,NA,NA,NA,NA,NA,NA,NA,NA,NA,NA,NA,NA,NA,NA,NA,NA
1adfd,check continue,flow.Sequence,3_0_19,NA,NA,skipped,NA,421961,NA,NA,421485,421961,2023-09-27T17:05:15Z,422230.88,NULL,NA,NA,NA,NA,NA,NA,NA,NA,NA,19,NA,NA,NA,NA,NA,NA,NA,NA,NA,NA,NA,NA,NA,NA,NA,NA,NA,NA,NA
1adfd,check continue,flow.Sequence,3_0_20,NA,NA,skipped,NA,421987,NA,NA,421485,421987,2023-09-27T17:05:15Z,422230.88,NULL,NA,NA,NA,NA,NA,NA,NA,NA,NA,20,NA,NA,NA,NA,NA,NA,NA,NA,NA,NA,NA,NA,NA,NA,NA,NA,NA,NA,NA
1adfd,check continue,flow.Sequence,3_0_21,NA,NA,skipped,NA,422015,NA,NA,421485,422015,2023-09-27T17:05:15Z,422230.88,NULL,NA,NA,NA,NA,NA,NA,NA,NA,NA,21,NA,NA,NA,NA,NA,NA,NA,NA,NA,NA,NA,NA,NA,NA,NA,NA,NA,NA,NA
1adfd,check continue,flow.Sequence,3_0_22,NA,NA,skipped,NA,422039,NA,NA,421485,422040,2023-09-27T17:05:15Z,422230.88,NULL,NA,NA,NA,NA,NA,NA,NA,NA,NA,22,NA,NA,NA,NA,NA,NA,NA,NA,NA,NA,NA,NA,NA,NA,NA,NA,NA,NA,NA
1adfd,check continue,flow.Sequence,3_0_23,NA,NA,skipped,NA,422069,NA,NA,421485,422069,2023-09-27T17:05:15Z,422230.88,NULL,NA,NA,NA,NA,NA,NA,NA,NA,NA,23,NA,NA,NA,NA,NA,NA,NA,NA,NA,NA,NA,NA,NA,NA,NA,NA,NA,NA,NA
1adfd,check continue,flow.Sequence,3_0_24,NA,NA,skipped,NA,422095,NA,NA,421485,422095,2023-09-27T17:05:15Z,422230.88,NULL,NA,NA,NA,NA,NA,NA,NA,NA,NA,24,NA,NA,NA,NA,NA,NA,NA,NA,NA,NA,NA,NA,NA,NA,NA,NA,NA,NA,NA
1adfd,check continue,flow.Sequence,3_0_25,NA,NA,skipped,NA,422119,NA,NA,421485,422119,2023-09-27T17:05:15Z,422230.88,NULL,NA,NA,NA,NA,NA,NA,NA,NA,NA,25,NA,NA,NA,NA,NA,NA,NA,NA,NA,NA,NA,NA,NA,NA,NA,NA,NA,NA,NA
1adfd,check continue,flow.Sequence,3_0_26,NA,NA,skipped,NA,422145,NA,NA,421485,422145,2023-09-27T17:05:15Z,422230.88,NULL,NA,NA,NA,NA,NA,NA,NA,NA,NA,26,NA,NA,NA,NA,NA,NA,NA,NA,NA,NA,NA,NA,NA,NA,NA,NA,NA,NA,NA
1adfd,check continue,flow.Sequence,3_0_27,NA,NA,skipped,NA,422169,NA,NA,421485,422169,2023-09-27T17:05:15Z,422230.88,NULL,NA,NA,NA,NA,NA,NA,NA,NA,NA,27,NA,NA,NA,NA,NA,NA,NA,NA,NA,NA,NA,NA,NA,NA,NA,NA,NA,NA,NA
1adfd,check continue,flow.Sequence,3_0_28,NA,NA,skipped,NA,422194,NA,NA,421485,422194,2023-09-27T17:05:15Z,422230.88,NULL,NA,NA,NA,NA,NA,NA,NA,NA,NA,28,NA,NA,NA,NA,NA,NA,NA,NA,NA,NA,NA,NA,NA,NA,NA,NA,NA,NA,NA
1adfd,check continue,flow.Sequence,3_0_29,NA,NA,skipped,NA,422220,NA,NA,421485,422220,2023-09-27T17:05:15Z,422230.88,NULL,NA,NA,NA,NA,NA,NA,NA,NA,NA,29,NA,NA,NA,NA,NA,NA,NA,NA,NA,NA,NA,NA,NA,NA,NA,NA,NA,NA,NA
1adfd,until continue,flow.Loop,3_0,NA,NA,completion,328895,92545,92579.06,92590,421485,422220,2023-09-27T17:05:15Z,422230.88,NULL,NA,NA,NA,NA,NA,NA,NA,NA,NA,NA,NA,NA,NA,NA,NA,NA,NA,NA,NA,NA,NA,NA,NA,NA,NA,NA,NA,NA,NA
1adfd,block 1,flow.Sequence,3,NA,NA,completion,328895,92545,92579.06,92590,421485,422220,2023-09-27T17:05:15Z,422230.88,NULL,NA,NA,NA,NA,NA,NA,NA,NA,NA,NA,NA,NA,NA,NA,NA,NA,NA,NA,NA,NA,NA,NA,NA,NA,NA,NA,NA,NA,NA
1adfd,1.Part Over,canvas.Screen,4,NA,keypress(Space),response,1318.12,422220,422220.7,422230.88,423549,423562,2023-09-27T17:05:17Z,423647.82,NULL,NA,NA,NA,NA,NA,NA,NA,NA,NA,NA,NA,NA,NA,NA,NA,NA,NA,NA,NA,NA,NA,NA,NA,NA,NA,NA,NA,NA,NA
1adfd,Deep Question,html.Page,5_0_0_0_0_0_0,NA,NA,form submission,2959.18,423633,423633.56,423647.82,426607,426607,2023-09-27T17:05:20Z,426613.82,NULL,Spionage,upelelezi,d,NA,NA,NA,salamiku,NA,NA,0,NA,NA,NA,NA,NA,NA,NA,NA,NA,NA,NA,NA,NA,NA,NA,NA,NA,NA,NA
1adfd,"""Richtig""-Screen",canvas.Screen,5_0_0_0_0_0_1,NA,NA,skipped,NA,426609,NA,NA,426607,426609,2023-09-27T17:05:20Z,426613.82,NULL,Spionage,upelelezi,d,NA,NA,NA,NA,sdf,NA,0,NA,NA,NA,NA,NA,NA,NA,NA,NA,NA,NA,NA,NA,NA,NA,NA,NA,NA,NA
1adfd,"""Falsch""-Screen",canvas.Screen,5_0_0_0_0_0_2,NA,NA,timeout,4999.36,426610,426606.16,426613.82,431596.66,431600,2023-09-27T17:05:25Z,431613.18,NULL,Spionage,upelelezi,d,NA,NA,NA,NA,sdf,0,0,NA,NA,NA,NA,NA,NA,NA,NA,NA,NA,NA,NA,NA,NA,NA,NA,NA,NA,NA
1adfd,deep,flow.Sequence,5_0_0_0_0_0,NA,NA,completion,7948.84,423633,423633.56,423647.82,431596.66,431602,2023-09-27T17:05:25Z,431613.18,NULL,Spionage,upelelezi,d,NA,NA,NA,NA,sdf,NA,0,NA,NA,NA,NA,NA,NA,NA,NA,NA,NA,NA,NA,NA,NA,NA,NA,NA,NA,NA
1adfd,shallow,flow.Sequence,5_0_0_0_0_1,NA,NA,skipped,NA,431603,NA,NA,431596.66,431603,2023-09-27T17:05:25Z,431613.18,NULL,Spionage,upelelezi,d,NA,NA,NA,NA,sdf,NA,0,NA,NA,NA,NA,NA,NA,NA,NA,NA,NA,NA,NA,NA,NA,NA,NA,NA,NA,NA
1adfd,task,flow.Sequence,5_0_0_0_0,NA,NA,completion,7948.84,423633,423633.56,423647.82,431596.66,431605,2023-09-27T17:05:25Z,431613.18,NULL,Spionage,upelelezi,d,NA,NA,NA,NA,sdf,NA,0,NA,NA,NA,NA,NA,NA,NA,NA,NA,NA,NA,NA,NA,NA,NA,NA,NA,NA,NA
1adfd,Deep Question,html.Page,5_0_0_0_1_0_0,NA,NA,form submission,2574.82,431606,431596.66,431613.18,434188,434189,2023-09-27T17:05:27Z,434196.28,NULL,Fenster,dirisha,d,NA,NA,NA,salami,NA,NA,0,NA,NA,NA,NA,NA,NA,NA,NA,NA,NA,NA,NA,NA,NA,NA,NA,NA,NA,NA
1adfd,"""Richtig""-Screen",canvas.Screen,5_0_0_0_1_0_1,NA,NA,skipped,NA,434195,NA,NA,434188,434195,2023-09-27T17:05:27Z,434196.28,NULL,Fenster,dirisha,d,NA,NA,NA,NA,sdf,NA,0,NA,NA,NA,NA,NA,NA,NA,NA,NA,NA,NA,NA,NA,NA,NA,NA,NA,NA,NA
1adfd,"""Falsch""-Screen",canvas.Screen,5_0_0_0_1_0_2,NA,NA,timeout,4999.26,434199,434186.56,434196.28,439178.96,439180,2023-09-27T17:05:32Z,439195.54,NULL,Fenster,dirisha,d,NA,NA,NA,NA,sdf,0,0,NA,NA,NA,NA,NA,NA,NA,NA,NA,NA,NA,NA,NA,NA,NA,NA,NA,NA,NA
1adfd,deep,flow.Sequence,5_0_0_0_1_0,NA,NA,completion,7565.78,431606,431596.66,431613.18,439178.96,439181,2023-09-27T17:05:32Z,439195.54,NULL,Fenster,dirisha,d,NA,NA,NA,NA,sdf,NA,0,NA,NA,NA,NA,NA,NA,NA,NA,NA,NA,NA,NA,NA,NA,NA,NA,NA,NA,NA
1adfd,shallow,flow.Sequence,5_0_0_0_1_1,NA,NA,skipped,NA,439182,NA,NA,439178.96,439182,2023-09-27T17:05:32Z,439195.54,NULL,Fenster,dirisha,d,NA,NA,NA,NA,sdf,NA,0,NA,NA,NA,NA,NA,NA,NA,NA,NA,NA,NA,NA,NA,NA,NA,NA,NA,NA,NA
1adfd,task,flow.Sequence,5_0_0_0_1,NA,NA,completion,7565.78,431605,431596.66,431613.18,439178.96,439183,2023-09-27T17:05:32Z,439195.54,NULL,Fenster,dirisha,d,NA,NA,NA,NA,sdf,NA,0,NA,NA,NA,NA,NA,NA,NA,NA,NA,NA,NA,NA,NA,NA,NA,NA,NA,NA,NA
1adfd,deep,flow.Sequence,5_0_0_0_2_0,NA,NA,skipped,NA,439184,NA,NA,439178.96,439185,2023-09-27T17:05:32Z,439195.54,NULL,Schüler,mwanafunzi,s,mwekezaji,matumizi,uaminifu,NA,sdf,NA,0,NA,NA,NA,NA,NA,NA,NA,NA,NA,NA,NA,NA,NA,NA,NA,NA,NA,NA,NA
1adfd,Shallow Question,html.Page,5_0_0_0_2_1_0,NA,NA,form submission,6301.46,439185,439178.96,439195.54,445497,445497,2023-09-27T17:05:39Z,445494.82,NULL,Schüler,mwanafunzi,s,mwekezaji,matumizi,uaminifu,mwanafunzi,NA,NA,0,NA,NA,NA,NA,NA,NA,NA,NA,NA,NA,NA,NA,NA,NA,NA,NA,NA,NA,NA
1adfd,"""Richtig""-Screen",canvas.Screen,5_0_0_0_2_1_1,NA,NA,timeout,4999.32,445503,445491.16,445494.82,450477.92,450480,2023-09-27T17:05:44Z,450494.14,NULL,Schüler,mwanafunzi,s,mwekezaji,matumizi,uaminifu,NA,sdf,1,0,NA,NA,NA,NA,NA,NA,NA,NA,NA,NA,NA,NA,NA,NA,NA,NA,NA,NA,NA
1adfd,"""Falsch""-Screen",canvas.Screen,5_0_0_0_2_1_2,NA,NA,skipped,NA,450487,NA,NA,450477.92,450487,2023-09-27T17:05:44Z,450494.14,NULL,Schüler,mwanafunzi,s,mwekezaji,matumizi,uaminifu,NA,sdf,NA,0,NA,NA,NA,NA,NA,NA,NA,NA,NA,NA,NA,NA,NA,NA,NA,NA,NA,NA,NA
1adfd,shallow,flow.Sequence,5_0_0_0_2_1,NA,NA,completion,11282.38,439185,439178.96,439195.54,450477.92,450487,2023-09-27T17:05:44Z,450494.14,NULL,Schüler,mwanafunzi,s,mwekezaji,matumizi,uaminifu,NA,sdf,NA,0,NA,NA,NA,NA,NA,NA,NA,NA,NA,NA,NA,NA,NA,NA,NA,NA,NA,NA,NA
1adfd,task,flow.Sequence,5_0_0_0_2,NA,NA,completion,11282.38,439184,439178.96,439195.54,450477.92,450488,2023-09-27T17:05:44Z,450494.14,NULL,Schüler,mwanafunzi,s,mwekezaji,matumizi,uaminifu,NA,sdf,NA,0,NA,NA,NA,NA,NA,NA,NA,NA,NA,NA,NA,NA,NA,NA,NA,NA,NA,NA,NA
1adfd,deep,flow.Sequence,5_0_0_0_3_0,NA,NA,skipped,NA,450488,NA,NA,450477.92,450489,2023-09-27T17:05:44Z,450494.14,NULL,Vorsorge,tahadhari,s,ufafanuzi,makini,mashambani,NA,sdf,NA,0,NA,NA,NA,NA,NA,NA,NA,NA,NA,NA,NA,NA,NA,NA,NA,NA,NA,NA,NA
1adfd,Shallow Question,html.Page,5_0_0_0_3_1_0,NA,NA,form submission,5610.86,450489,450477.92,450494.14,456105,456106,2023-09-27T17:05:49Z,456110.16,NULL,Vorsorge,tahadhari,s,ufafanuzi,makini,mashambani,tahadhari,NA,NA,0,NA,NA,NA,NA,NA,NA,NA,NA,NA,NA,NA,NA,NA,NA,NA,NA,NA,NA,NA
1adfd,"""Richtig""-Screen",canvas.Screen,5_0_0_0_3_1_1,NA,NA,timeout,4999.28,456110,456100.42,456110.16,461092.84,461094,2023-09-27T17:05:54Z,461109.44,NULL,Vorsorge,tahadhari,s,ufafanuzi,makini,mashambani,NA,sdf,1,0,NA,NA,NA,NA,NA,NA,NA,NA,NA,NA,NA,NA,NA,NA,NA,NA,NA,NA,NA
1adfd,"""Falsch""-Screen",canvas.Screen,5_0_0_0_3_1_2,NA,NA,skipped,NA,461100,NA,NA,461092.84,461101,2023-09-27T17:05:54Z,461109.44,NULL,Vorsorge,tahadhari,s,ufafanuzi,makini,mashambani,NA,sdf,NA,0,NA,NA,NA,NA,NA,NA,NA,NA,NA,NA,NA,NA,NA,NA,NA,NA,NA,NA,NA
1adfd,shallow,flow.Sequence,5_0_0_0_3_1,NA,NA,completion,10598.7,450489,450477.92,450494.14,461092.84,461101,2023-09-27T17:05:54Z,461109.44,NULL,Vorsorge,tahadhari,s,ufafanuzi,makini,mashambani,NA,sdf,NA,0,NA,NA,NA,NA,NA,NA,NA,NA,NA,NA,NA,NA,NA,NA,NA,NA,NA,NA,NA
1adfd,task,flow.Sequence,5_0_0_0_3,NA,NA,completion,10598.7,450488,450477.92,450494.14,461092.84,461102,2023-09-27T17:05:54Z,461109.44,NULL,Vorsorge,tahadhari,s,ufafanuzi,makini,mashambani,NA,sdf,NA,0,NA,NA,NA,NA,NA,NA,NA,NA,NA,NA,NA,NA,NA,NA,NA,NA,NA,NA,NA
1adfd,deep,flow.Sequence,5_0_0_0_4_0,NA,NA,skipped,NA,461102,NA,NA,461092.84,461102,2023-09-27T17:05:54Z,461109.44,NULL,Konkurrent,mshindani,s,msemaji,mvutaji,kipukusa,NA,sdf,NA,0,NA,NA,NA,NA,NA,NA,NA,NA,NA,NA,NA,NA,NA,NA,NA,NA,NA,NA,NA
1adfd,Shallow Question,html.Page,5_0_0_0_4_1_0,NA,NA,form submission,3962.56,461103,461092.84,461109.44,465072,465073,2023-09-27T17:05:58Z,465075.64,NULL,Konkurrent,mshindani,s,msemaji,mvutaji,kipukusa,mshindani,NA,NA,0,NA,NA,NA,NA,NA,NA,NA,NA,NA,NA,NA,NA,NA,NA,NA,NA,NA,NA,NA
1adfd,"""Richtig""-Screen",canvas.Screen,5_0_0_0_4_1_1,NA,NA,timeout,4999.4,465078,465067.42,465075.64,470058.64,470060,2023-09-27T17:06:03Z,470075.04,NULL,Konkurrent,mshindani,s,msemaji,mvutaji,kipukusa,NA,sdf,1,0,NA,NA,NA,NA,NA,NA,NA,NA,NA,NA,NA,NA,NA,NA,NA,NA,NA,NA,NA
1adfd,"""Falsch""-Screen",canvas.Screen,5_0_0_0_4_1_2,NA,NA,skipped,NA,470068,NA,NA,470058.64,470068,2023-09-27T17:06:03Z,470075.04,NULL,Konkurrent,mshindani,s,msemaji,mvutaji,kipukusa,NA,sdf,NA,0,NA,NA,NA,NA,NA,NA,NA,NA,NA,NA,NA,NA,NA,NA,NA,NA,NA,NA,NA
1adfd,shallow,flow.Sequence,5_0_0_0_4_1,NA,NA,completion,8949.2,461103,461092.84,461109.44,470058.64,470068,2023-09-27T17:06:03Z,470075.04,NULL,Konkurrent,mshindani,s,msemaji,mvutaji,kipukusa,NA,sdf,NA,0,NA,NA,NA,NA,NA,NA,NA,NA,NA,NA,NA,NA,NA,NA,NA,NA,NA,NA,NA
1adfd,task,flow.Sequence,5_0_0_0_4,NA,NA,completion,8949.2,461102,461092.84,461109.44,470058.64,470069,2023-09-27T17:06:03Z,470075.04,NULL,Konkurrent,mshindani,s,msemaji,mvutaji,kipukusa,NA,sdf,NA,0,NA,NA,NA,NA,NA,NA,NA,NA,NA,NA,NA,NA,NA,NA,NA,NA,NA,NA,NA
1adfd,Deep Question,html.Page,5_0_0_0_5_0_0,NA,NA,form submission,4136.96,470069,470058.64,470075.04,474212,474212,2023-09-27T17:06:07Z,474224.48,NULL,Zuwachs,nyongeza,d,NA,NA,NA,seriyifu,NA,NA,0,NA,NA,NA,NA,NA,NA,NA,NA,NA,NA,NA,NA,NA,NA,NA,NA,NA,NA,NA
1adfd,"""Richtig""-Screen",canvas.Screen,5_0_0_0_5_0_1,NA,NA,skipped,NA,474214,NA,NA,474212,474214,2023-09-27T17:06:07Z,474224.48,NULL,Zuwachs,nyongeza,d,NA,NA,NA,NA,sdf,NA,0,NA,NA,NA,NA,NA,NA,NA,NA,NA,NA,NA,NA,NA,NA,NA,NA,NA,NA,NA
1adfd,"""Falsch""-Screen",canvas.Screen,5_0_0_0_5_0_2,NA,NA,timeout,4999.38,474216,474207.78,474224.48,479207.22,479208,2023-09-27T17:06:12Z,479223.86,NULL,Zuwachs,nyongeza,d,NA,NA,NA,NA,sdf,0,0,NA,NA,NA,NA,NA,NA,NA,NA,NA,NA,NA,NA,NA,NA,NA,NA,NA,NA,NA
1adfd,deep,flow.Sequence,5_0_0_0_5_0,NA,NA,completion,9132.18,470069,470058.64,470075.04,479207.22,479210,2023-09-27T17:06:12Z,479223.86,NULL,Zuwachs,nyongeza,d,NA,NA,NA,NA,sdf,NA,0,NA,NA,NA,NA,NA,NA,NA,NA,NA,NA,NA,NA,NA,NA,NA,NA,NA,NA,NA
1adfd,shallow,flow.Sequence,5_0_0_0_5_1,NA,NA,skipped,NA,479210,NA,NA,479207.22,479210,2023-09-27T17:06:12Z,479223.86,NULL,Zuwachs,nyongeza,d,NA,NA,NA,NA,sdf,NA,0,NA,NA,NA,NA,NA,NA,NA,NA,NA,NA,NA,NA,NA,NA,NA,NA,NA,NA,NA
1adfd,task,flow.Sequence,5_0_0_0_5,NA,NA,completion,9132.18,470069,470058.64,470075.04,479207.22,479210,2023-09-27T17:06:12Z,479223.86,NULL,Zuwachs,nyongeza,d,NA,NA,NA,NA,sdf,NA,0,NA,NA,NA,NA,NA,NA,NA,NA,NA,NA,NA,NA,NA,NA,NA,NA,NA,NA,NA
1adfd,Deep Question,html.Page,5_0_0_0_6_0_0,NA,NA,form submission,7211.14,479211,479207.22,479223.86,486435,486436,2023-09-27T17:06:19Z,486439.6,NULL,Symbol,kielezo,d,NA,NA,NA,kinjizo,NA,NA,0,NA,NA,NA,NA,NA,NA,NA,NA,NA,NA,NA,NA,NA,NA,NA,NA,NA,NA,NA
1adfd,"""Richtig""-Screen",canvas.Screen,5_0_0_0_6_0_1,NA,NA,skipped,NA,486438,NA,NA,486435,486438,2023-09-27T17:06:19Z,486439.6,NULL,Symbol,kielezo,d,NA,NA,NA,NA,sdf,NA,0,NA,NA,NA,NA,NA,NA,NA,NA,NA,NA,NA,NA,NA,NA,NA,NA,NA,NA,NA
1adfd,"""Falsch""-Screen",canvas.Screen,5_0_0_0_6_0_2,NA,NA,timeout,4999.34,486441,486433.76,486439.6,491422.88,491426,2023-09-27T17:06:24Z,491438.94,NULL,Symbol,kielezo,d,NA,NA,NA,NA,sdf,0,0,NA,NA,NA,NA,NA,NA,NA,NA,NA,NA,NA,NA,NA,NA,NA,NA,NA,NA,NA
1adfd,deep,flow.Sequence,5_0_0_0_6_0,NA,NA,completion,12199.02,479211,479207.22,479223.86,491422.88,491427,2023-09-27T17:06:24Z,491438.94,NULL,Symbol,kielezo,d,NA,NA,NA,NA,sdf,NA,0,NA,NA,NA,NA,NA,NA,NA,NA,NA,NA,NA,NA,NA,NA,NA,NA,NA,NA,NA
1adfd,shallow,flow.Sequence,5_0_0_0_6_1,NA,NA,skipped,NA,491428,NA,NA,491422.88,491428,2023-09-27T17:06:24Z,491438.94,NULL,Symbol,kielezo,d,NA,NA,NA,NA,sdf,NA,0,NA,NA,NA,NA,NA,NA,NA,NA,NA,NA,NA,NA,NA,NA,NA,NA,NA,NA,NA
1adfd,task,flow.Sequence,5_0_0_0_6,NA,NA,completion,12199.02,479211,479207.22,479223.86,491422.88,491429,2023-09-27T17:06:24Z,491438.94,NULL,Symbol,kielezo,d,NA,NA,NA,NA,sdf,NA,0,NA,NA,NA,NA,NA,NA,NA,NA,NA,NA,NA,NA,NA,NA,NA,NA,NA,NA,NA
1adfd,deep,flow.Sequence,5_0_0_0_7_0,NA,NA,skipped,NA,491430,NA,NA,491422.88,491431,2023-09-27T17:06:24Z,491438.94,NULL,Tester,wanaojaribu,s,sherti,sihiri,mlipuko,NA,sdf,NA,0,NA,NA,NA,NA,NA,NA,NA,NA,NA,NA,NA,NA,NA,NA,NA,NA,NA,NA,NA
1adfd,Shallow Question,html.Page,5_0_0_0_7_1_0,NA,NA,form submission,11399.06,491431,491422.88,491438.94,502838,502839,2023-09-27T17:06:36Z,502837.48,NULL,Tester,wanaojaribu,s,sherti,sihiri,mlipuko,wanaojaribu,NA,NA,0,NA,NA,NA,NA,NA,NA,NA,NA,NA,NA,NA,NA,NA,NA,NA,NA,NA,NA,NA
1adfd,"""Richtig""-Screen",canvas.Screen,5_0_0_0_7_1_1,NA,NA,timeout,4999.44,502848,502830.12,502837.48,507820.32,507822,2023-09-27T17:06:41Z,507836.92,NULL,Tester,wanaojaribu,s,sherti,sihiri,mlipuko,NA,sdf,1,0,NA,NA,NA,NA,NA,NA,NA,NA,NA,NA,NA,NA,NA,NA,NA,NA,NA,NA,NA
1adfd,"""Falsch""-Screen",canvas.Screen,5_0_0_0_7_1_2,NA,NA,skipped,NA,507830,NA,NA,507820.32,507830,2023-09-27T17:06:41Z,507836.92,NULL,Tester,wanaojaribu,s,sherti,sihiri,mlipuko,NA,sdf,NA,0,NA,NA,NA,NA,NA,NA,NA,NA,NA,NA,NA,NA,NA,NA,NA,NA,NA,NA,NA
1adfd,shallow,flow.Sequence,5_0_0_0_7_1,NA,NA,completion,16381.38,491431,491422.88,491438.94,507820.32,507830,2023-09-27T17:06:41Z,507836.92,NULL,Tester,wanaojaribu,s,sherti,sihiri,mlipuko,NA,sdf,NA,0,NA,NA,NA,NA,NA,NA,NA,NA,NA,NA,NA,NA,NA,NA,NA,NA,NA,NA,NA
1adfd,task,flow.Sequence,5_0_0_0_7,NA,NA,completion,16381.38,491429,491422.88,491438.94,507820.32,507831,2023-09-27T17:06:41Z,507836.92,NULL,Tester,wanaojaribu,s,sherti,sihiri,mlipuko,NA,sdf,NA,0,NA,NA,NA,NA,NA,NA,NA,NA,NA,NA,NA,NA,NA,NA,NA,NA,NA,NA,NA
1adfd,block,flow.Loop,5_0_0_0,NA,NA,completion,84172.5,423633,423633.56,423647.82,507820.32,507832,2023-09-27T17:06:41Z,507836.92,NULL,NA,NA,NA,NA,NA,NA,NA,sdf,NA,0,NA,NA,NA,NA,NA,NA,NA,NA,NA,NA,NA,NA,NA,NA,NA,NA,NA,NA,NA
1adfd,weiter,canvas.Screen,5_0_0_1,sdf,keypress(Space),response,634.08000000002,507833,507820.32,507836.92,508471,508478,2023-09-27T17:06:42Z,508553.7,NULL,NA,NA,NA,NA,NA,NA,NA,sdf,NA,0,NA,NA,NA,NA,NA,NA,NA,NA,NA,NA,NA,NA,NA,NA,NA,NA,NA,NA,NA
1adfd,check continue,flow.Sequence,5_0_0,NA,NA,completion,84823.18,423633,423633.56,423647.82,508471,508479,2023-09-27T17:06:42Z,508553.7,NULL,NA,NA,NA,NA,NA,NA,NA,sdf,NA,0,NA,NA,NA,NA,NA,NA,NA,NA,NA,NA,NA,NA,NA,NA,NA,NA,NA,NA,NA
1adfd,Deep Question,html.Page,5_0_1_0_0_0_0,NA,NA,form submission,4567.3,508539,508538.34,508553.7,513121,513121,2023-09-27T17:06:46Z,513136.1,NULL,Spionage,upelelezi,d,NA,NA,NA,msanganyifu,NA,NA,1,NA,NA,NA,NA,NA,NA,NA,NA,NA,NA,NA,NA,NA,NA,NA,NA,NA,NA,NA
1adfd,"""Richtig""-Screen",canvas.Screen,5_0_1_0_0_0_1,NA,NA,skipped,NA,513124,NA,NA,513121,513125,2023-09-27T17:06:46Z,513136.1,NULL,Spionage,upelelezi,d,NA,NA,NA,NA,sdfdsf,NA,1,NA,NA,NA,NA,NA,NA,NA,NA,NA,NA,NA,NA,NA,NA,NA,NA,NA,NA,NA
1adfd,"""Falsch""-Screen",canvas.Screen,5_0_1_0_0_0_2,NA,NA,timeout,4999.4,513127,513120.12,513136.1,518118.96,518120,2023-09-27T17:06:51Z,518135.5,NULL,Spionage,upelelezi,d,NA,NA,NA,NA,sdfdsf,0,1,NA,NA,NA,NA,NA,NA,NA,NA,NA,NA,NA,NA,NA,NA,NA,NA,NA,NA,NA
1adfd,deep,flow.Sequence,5_0_1_0_0_0,NA,NA,completion,9565.26,508539,508538.34,508553.7,518118.96,518121,2023-09-27T17:06:51Z,518135.5,NULL,Spionage,upelelezi,d,NA,NA,NA,NA,sdfdsf,NA,1,NA,NA,NA,NA,NA,NA,NA,NA,NA,NA,NA,NA,NA,NA,NA,NA,NA,NA,NA
1adfd,shallow,flow.Sequence,5_0_1_0_0_1,NA,NA,skipped,NA,518121,NA,NA,518118.96,518121,2023-09-27T17:06:51Z,518135.5,NULL,Spionage,upelelezi,d,NA,NA,NA,NA,sdfdsf,NA,1,NA,NA,NA,NA,NA,NA,NA,NA,NA,NA,NA,NA,NA,NA,NA,NA,NA,NA,NA
1adfd,task,flow.Sequence,5_0_1_0_0,NA,NA,completion,9565.26,508539,508538.34,508553.7,518118.96,518122,2023-09-27T17:06:51Z,518135.5,NULL,Spionage,upelelezi,d,NA,NA,NA,NA,sdfdsf,NA,1,NA,NA,NA,NA,NA,NA,NA,NA,NA,NA,NA,NA,NA,NA,NA,NA,NA,NA,NA
1adfd,deep,flow.Sequence,5_0_1_0_1_0,NA,NA,skipped,NA,518122,NA,NA,518118.96,518122,2023-09-27T17:06:51Z,518135.5,NULL,Tester,wanaojaribu,s,sherti,sihiri,mlipuko,NA,sdfdsf,NA,1,NA,NA,NA,NA,NA,NA,NA,NA,NA,NA,NA,NA,NA,NA,NA,NA,NA,NA,NA
1adfd,Shallow Question,html.Page,5_0_1_0_1_1_0,NA,NA,form submission,3274.5,518123,518118.96,518135.5,521410,521411,2023-09-27T17:06:54Z,521418.44,NULL,Tester,wanaojaribu,s,sherti,sihiri,mlipuko,wanaojaribu,NA,NA,1,NA,NA,NA,NA,NA,NA,NA,NA,NA,NA,NA,NA,NA,NA,NA,NA,NA,NA,NA
1adfd,"""Richtig""-Screen",canvas.Screen,5_0_1_0_1_1_1,NA,NA,timeout,4999.4,521416,521404.78,521418.44,526401.66,526403,2023-09-27T17:06:59Z,526417.84,NULL,Tester,wanaojaribu,s,sherti,sihiri,mlipuko,NA,sdfdsf,1,1,NA,NA,NA,NA,NA,NA,NA,NA,NA,NA,NA,NA,NA,NA,NA,NA,NA,NA,NA
1adfd,"""Falsch""-Screen",canvas.Screen,5_0_1_0_1_1_2,NA,NA,skipped,NA,526409,NA,NA,526401.66,526410,2023-09-27T17:06:59Z,526417.84,NULL,Tester,wanaojaribu,s,sherti,sihiri,mlipuko,NA,sdfdsf,NA,1,NA,NA,NA,NA,NA,NA,NA,NA,NA,NA,NA,NA,NA,NA,NA,NA,NA,NA,NA
1adfd,shallow,flow.Sequence,5_0_1_0_1_1,NA,NA,completion,8266.16,518123,518118.96,518135.5,526401.66,526410,2023-09-27T17:06:59Z,526417.84,NULL,Tester,wanaojaribu,s,sherti,sihiri,mlipuko,NA,sdfdsf,NA,1,NA,NA,NA,NA,NA,NA,NA,NA,NA,NA,NA,NA,NA,NA,NA,NA,NA,NA,NA
1adfd,task,flow.Sequence,5_0_1_0_1,NA,NA,completion,8266.16,518122,518118.96,518135.5,526401.66,526410,2023-09-27T17:06:59Z,526417.84,NULL,Tester,wanaojaribu,s,sherti,sihiri,mlipuko,NA,sdfdsf,NA,1,NA,NA,NA,NA,NA,NA,NA,NA,NA,NA,NA,NA,NA,NA,NA,NA,NA,NA,NA
1adfd,Deep Question,html.Page,5_0_1_0_2_0_0,NA,NA,form submission,3314.16,526411,526401.66,526417.84,529732,529732,2023-09-27T17:07:03Z,529734.06,NULL,Symbol,kielezo,d,NA,NA,NA,kinyifu,NA,NA,1,NA,NA,NA,NA,NA,NA,NA,NA,NA,NA,NA,NA,NA,NA,NA,NA,NA,NA,NA
1adfd,"""Richtig""-Screen",canvas.Screen,5_0_1_0_2_0_1,NA,NA,skipped,NA,529735,NA,NA,529732,529735,2023-09-27T17:07:03Z,529734.06,NULL,Symbol,kielezo,d,NA,NA,NA,NA,sdfdsf,NA,1,NA,NA,NA,NA,NA,NA,NA,NA,NA,NA,NA,NA,NA,NA,NA,NA,NA,NA,NA
1adfd,"""Falsch""-Screen",canvas.Screen,5_0_1_0_2_0_2,NA,NA,timeout,4999.3199999999,529738,529731.24,529734.06,534716.8,534718,2023-09-27T17:07:08Z,534733.38,NULL,Symbol,kielezo,d,NA,NA,NA,NA,sdfdsf,0,1,NA,NA,NA,NA,NA,NA,NA,NA,NA,NA,NA,NA,NA,NA,NA,NA,NA,NA,NA
1adfd,deep,flow.Sequence,5_0_1_0_2_0,NA,NA,completion,8298.9600000001,526411,526401.66,526417.84,534716.8,534718,2023-09-27T17:07:08Z,534733.38,NULL,Symbol,kielezo,d,NA,NA,NA,NA,sdfdsf,NA,1,NA,NA,NA,NA,NA,NA,NA,NA,NA,NA,NA,NA,NA,NA,NA,NA,NA,NA,NA
1adfd,shallow,flow.Sequence,5_0_1_0_2_1,NA,NA,skipped,NA,534719,NA,NA,534716.8,534719,2023-09-27T17:07:08Z,534733.38,NULL,Symbol,kielezo,d,NA,NA,NA,NA,sdfdsf,NA,1,NA,NA,NA,NA,NA,NA,NA,NA,NA,NA,NA,NA,NA,NA,NA,NA,NA,NA,NA
1adfd,task,flow.Sequence,5_0_1_0_2,NA,NA,completion,8298.9600000001,526411,526401.66,526417.84,534716.8,534719,2023-09-27T17:07:08Z,534733.38,NULL,Symbol,kielezo,d,NA,NA,NA,NA,sdfdsf,NA,1,NA,NA,NA,NA,NA,NA,NA,NA,NA,NA,NA,NA,NA,NA,NA,NA,NA,NA,NA
1adfd,deep,flow.Sequence,5_0_1_0_3_0,NA,NA,skipped,NA,534720,NA,NA,534716.8,534720,2023-09-27T17:07:08Z,534733.38,NULL,Vorsorge,tahadhari,s,ufafanuzi,makini,mashambani,NA,sdfdsf,NA,1,NA,NA,NA,NA,NA,NA,NA,NA,NA,NA,NA,NA,NA,NA,NA,NA,NA,NA,NA
1adfd,Shallow Question,html.Page,5_0_1_0_3_1_0,NA,NA,form submission,4804.62,534720,534716.8,534733.38,539538,539538,2023-09-27T17:07:13Z,539532.72,NULL,Vorsorge,tahadhari,s,ufafanuzi,makini,mashambani,tahadhari,NA,NA,1,NA,NA,NA,NA,NA,NA,NA,NA,NA,NA,NA,NA,NA,NA,NA,NA,NA,NA,NA
1adfd,"""Richtig""-Screen",canvas.Screen,5_0_1_0_3_1_1,NA,NA,timeout,4999.4,539542,539531.62,539532.72,544515.72,544517,2023-09-27T17:07:18Z,544532.12,NULL,Vorsorge,tahadhari,s,ufafanuzi,makini,mashambani,NA,sdfdsf,1,1,NA,NA,NA,NA,NA,NA,NA,NA,NA,NA,NA,NA,NA,NA,NA,NA,NA,NA,NA
1adfd,"""Falsch""-Screen",canvas.Screen,5_0_1_0_3_1_2,NA,NA,skipped,NA,544520,NA,NA,544515.72,544520,2023-09-27T17:07:18Z,544532.12,NULL,Vorsorge,tahadhari,s,ufafanuzi,makini,mashambani,NA,sdfdsf,NA,1,NA,NA,NA,NA,NA,NA,NA,NA,NA,NA,NA,NA,NA,NA,NA,NA,NA,NA,NA
1adfd,shallow,flow.Sequence,5_0_1_0_3_1,NA,NA,completion,9782.34,534720,534716.8,534733.38,544515.72,544521,2023-09-27T17:07:18Z,544532.12,NULL,Vorsorge,tahadhari,s,ufafanuzi,makini,mashambani,NA,sdfdsf,NA,1,NA,NA,NA,NA,NA,NA,NA,NA,NA,NA,NA,NA,NA,NA,NA,NA,NA,NA,NA
1adfd,task,flow.Sequence,5_0_1_0_3,NA,NA,completion,9782.34,534720,534716.8,534733.38,544515.72,544521,2023-09-27T17:07:18Z,544532.12,NULL,Vorsorge,tahadhari,s,ufafanuzi,makini,mashambani,NA,sdfdsf,NA,1,NA,NA,NA,NA,NA,NA,NA,NA,NA,NA,NA,NA,NA,NA,NA,NA,NA,NA,NA
1adfd,Deep Question,html.Page,5_0_1_0_4_0_0,NA,NA,form submission,4022.88,544521,544515.72,544532.12,548555,548555,2023-09-27T17:07:22Z,548564.98,NULL,Zuwachs,nyongeza,d,NA,NA,NA,keleyifu,NA,NA,1,NA,NA,NA,NA,NA,NA,NA,NA,NA,NA,NA,NA,NA,NA,NA,NA,NA,NA,NA
1adfd,"""Richtig""-Screen",canvas.Screen,5_0_1_0_4_0_1,NA,NA,skipped,NA,548559,NA,NA,548555,548559,2023-09-27T17:07:22Z,548564.98,NULL,Zuwachs,nyongeza,d,NA,NA,NA,NA,sdfdsf,NA,1,NA,NA,NA,NA,NA,NA,NA,NA,NA,NA,NA,NA,NA,NA,NA,NA,NA,NA,NA
1adfd,"""Falsch""-Screen",canvas.Screen,5_0_1_0_4_0_2,NA,NA,timeout,4999.38,548561,548554.46,548564.98,553547.76,553551,2023-09-27T17:07:27Z,553564.36,NULL,Zuwachs,nyongeza,d,NA,NA,NA,NA,sdfdsf,0,1,NA,NA,NA,NA,NA,NA,NA,NA,NA,NA,NA,NA,NA,NA,NA,NA,NA,NA,NA
1adfd,deep,flow.Sequence,5_0_1_0_4_0,NA,NA,completion,9015.64,544521,544515.72,544532.12,553547.76,553552,2023-09-27T17:07:27Z,553564.36,NULL,Zuwachs,nyongeza,d,NA,NA,NA,NA,sdfdsf,NA,1,NA,NA,NA,NA,NA,NA,NA,NA,NA,NA,NA,NA,NA,NA,NA,NA,NA,NA,NA
1adfd,shallow,flow.Sequence,5_0_1_0_4_1,NA,NA,skipped,NA,553553,NA,NA,553547.76,553554,2023-09-27T17:07:27Z,553564.36,NULL,Zuwachs,nyongeza,d,NA,NA,NA,NA,sdfdsf,NA,1,NA,NA,NA,NA,NA,NA,NA,NA,NA,NA,NA,NA,NA,NA,NA,NA,NA,NA,NA
1adfd,task,flow.Sequence,5_0_1_0_4,NA,NA,completion,9015.64,544521,544515.72,544532.12,553547.76,553555,2023-09-27T17:07:27Z,553564.36,NULL,Zuwachs,nyongeza,d,NA,NA,NA,NA,sdfdsf,NA,1,NA,NA,NA,NA,NA,NA,NA,NA,NA,NA,NA,NA,NA,NA,NA,NA,NA,NA,NA
1adfd,deep,flow.Sequence,5_0_1_0_5_0,NA,NA,skipped,NA,553556,NA,NA,553547.76,553556,2023-09-27T17:07:27Z,553564.36,NULL,Konkurrent,mshindani,s,msemaji,mvutaji,kipukusa,NA,sdfdsf,NA,1,NA,NA,NA,NA,NA,NA,NA,NA,NA,NA,NA,NA,NA,NA,NA,NA,NA,NA,NA
1adfd,Shallow Question,html.Page,5_0_1_0_5_1_0,NA,NA,form submission,3294.64,553557,553547.76,553564.36,556859,556860,2023-09-27T17:07:30Z,556863.9,NULL,Konkurrent,mshindani,s,msemaji,mvutaji,kipukusa,mshindani,NA,NA,1,NA,NA,NA,NA,NA,NA,NA,NA,NA,NA,NA,NA,NA,NA,NA,NA,NA,NA,NA
1adfd,"""Richtig""-Screen",canvas.Screen,5_0_1_0_5_1_1,NA,NA,timeout,4999.4,556869,556852.64,556863.9,561846.94,561848,2023-09-27T17:07:35Z,561863.3,NULL,Konkurrent,mshindani,s,msemaji,mvutaji,kipukusa,NA,sdfdsf,1,1,NA,NA,NA,NA,NA,NA,NA,NA,NA,NA,NA,NA,NA,NA,NA,NA,NA,NA,NA
1adfd,"""Falsch""-Screen",canvas.Screen,5_0_1_0_5_1_2,NA,NA,skipped,NA,561856,NA,NA,561846.94,561856,2023-09-27T17:07:35Z,561863.3,NULL,Konkurrent,mshindani,s,msemaji,mvutaji,kipukusa,NA,sdfdsf,NA,1,NA,NA,NA,NA,NA,NA,NA,NA,NA,NA,NA,NA,NA,NA,NA,NA,NA,NA,NA
1adfd,shallow,flow.Sequence,5_0_1_0_5_1,NA,NA,completion,8282.58,553557,553547.76,553564.36,561846.94,561857,2023-09-27T17:07:35Z,561863.3,NULL,Konkurrent,mshindani,s,msemaji,mvutaji,kipukusa,NA,sdfdsf,NA,1,NA,NA,NA,NA,NA,NA,NA,NA,NA,NA,NA,NA,NA,NA,NA,NA,NA,NA,NA
1adfd,task,flow.Sequence,5_0_1_0_5,NA,NA,completion,8282.58,553556,553547.76,553564.36,561846.94,561858,2023-09-27T17:07:35Z,561863.3,NULL,Konkurrent,mshindani,s,msemaji,mvutaji,kipukusa,NA,sdfdsf,NA,1,NA,NA,NA,NA,NA,NA,NA,NA,NA,NA,NA,NA,NA,NA,NA,NA,NA,NA,NA
1adfd,Deep Question,html.Page,5_0_1_0_6_0_0,NA,NA,form submission,4495.7,561859,561846.94,561863.3,566359,566359,2023-09-27T17:07:39Z,566362.68,NULL,Fenster,dirisha,d,NA,NA,NA,kinyongo,NA,NA,1,NA,NA,NA,NA,NA,NA,NA,NA,NA,NA,NA,NA,NA,NA,NA,NA,NA,NA,NA
1adfd,"""Richtig""-Screen",canvas.Screen,5_0_1_0_6_0_1,NA,NA,skipped,NA,566362,NA,NA,566359,566362,2023-09-27T17:07:39Z,566362.68,NULL,Fenster,dirisha,d,NA,NA,NA,NA,sdfdsf,NA,1,NA,NA,NA,NA,NA,NA,NA,NA,NA,NA,NA,NA,NA,NA,NA,NA,NA,NA,NA
1adfd,"""Falsch""-Screen",canvas.Screen,5_0_1_0_6_0_2,NA,NA,timeout,4999.4199999999,566365,566357.04,566362.68,571345.42,571347,2023-09-27T17:07:44Z,571362.1,NULL,Fenster,dirisha,d,NA,NA,NA,NA,sdfdsf,0,1,NA,NA,NA,NA,NA,NA,NA,NA,NA,NA,NA,NA,NA,NA,NA,NA,NA,NA,NA
1adfd,deep,flow.Sequence,5_0_1_0_6_0,NA,NA,completion,9482.12,561859,561846.94,561863.3,571345.42,571348,2023-09-27T17:07:44Z,571362.1,NULL,Fenster,dirisha,d,NA,NA,NA,NA,sdfdsf,NA,1,NA,NA,NA,NA,NA,NA,NA,NA,NA,NA,NA,NA,NA,NA,NA,NA,NA,NA,NA
1adfd,shallow,flow.Sequence,5_0_1_0_6_1,NA,NA,skipped,NA,571348,NA,NA,571345.42,571349,2023-09-27T17:07:44Z,571362.1,NULL,Fenster,dirisha,d,NA,NA,NA,NA,sdfdsf,NA,1,NA,NA,NA,NA,NA,NA,NA,NA,NA,NA,NA,NA,NA,NA,NA,NA,NA,NA,NA
1adfd,task,flow.Sequence,5_0_1_0_6,NA,NA,completion,9482.12,561859,561846.94,561863.3,571345.42,571349,2023-09-27T17:07:44Z,571362.1,NULL,Fenster,dirisha,d,NA,NA,NA,NA,sdfdsf,NA,1,NA,NA,NA,NA,NA,NA,NA,NA,NA,NA,NA,NA,NA,NA,NA,NA,NA,NA,NA
1adfd,deep,flow.Sequence,5_0_1_0_7_0,NA,NA,skipped,NA,571350,NA,NA,571345.42,571350,2023-09-27T17:07:44Z,571362.1,NULL,Schüler,mwanafunzi,s,mwekezaji,matumizi,uaminifu,NA,sdfdsf,NA,1,NA,NA,NA,NA,NA,NA,NA,NA,NA,NA,NA,NA,NA,NA,NA,NA,NA,NA,NA
1adfd,Shallow Question,html.Page,5_0_1_0_7_1_0,NA,NA,form submission,4264.9,571351,571345.42,571362.1,575627,575627,2023-09-27T17:07:49Z,575628.22,NULL,Schüler,mwanafunzi,s,mwekezaji,matumizi,uaminifu,mwanafunzi,NA,NA,1,NA,NA,NA,NA,NA,NA,NA,NA,NA,NA,NA,NA,NA,NA,NA,NA,NA,NA,NA
1adfd,"""Richtig""-Screen",canvas.Screen,5_0_1_0_7_1_1,NA,NA,timeout,4999.28,575633,575622.68,575628.22,580610.92,580612,2023-09-27T17:07:54Z,580627.5,NULL,Schüler,mwanafunzi,s,mwekezaji,matumizi,uaminifu,NA,sdfdsf,1,1,NA,NA,NA,NA,NA,NA,NA,NA,NA,NA,NA,NA,NA,NA,NA,NA,NA,NA,NA
1adfd,"""Falsch""-Screen",canvas.Screen,5_0_1_0_7_1_2,NA,NA,skipped,NA,580621,NA,NA,580610.92,580621,2023-09-27T17:07:54Z,580627.5,NULL,Schüler,mwanafunzi,s,mwekezaji,matumizi,uaminifu,NA,sdfdsf,NA,1,NA,NA,NA,NA,NA,NA,NA,NA,NA,NA,NA,NA,NA,NA,NA,NA,NA,NA,NA
1adfd,shallow,flow.Sequence,5_0_1_0_7_1,NA,NA,completion,9248.8200000001,571351,571345.42,571362.1,580610.92,580621,2023-09-27T17:07:54Z,580627.5,NULL,Schüler,mwanafunzi,s,mwekezaji,matumizi,uaminifu,NA,sdfdsf,NA,1,NA,NA,NA,NA,NA,NA,NA,NA,NA,NA,NA,NA,NA,NA,NA,NA,NA,NA,NA
1adfd,task,flow.Sequence,5_0_1_0_7,NA,NA,completion,9248.8200000001,571350,571345.42,571362.1,580610.92,580622,2023-09-27T17:07:54Z,580627.5,NULL,Schüler,mwanafunzi,s,mwekezaji,matumizi,uaminifu,NA,sdfdsf,NA,1,NA,NA,NA,NA,NA,NA,NA,NA,NA,NA,NA,NA,NA,NA,NA,NA,NA,NA,NA
1adfd,block,flow.Loop,5_0_1_0,NA,NA,completion,72057.22,508538,508538.34,508553.7,580610.92,580622,2023-09-27T17:07:54Z,580627.5,NULL,NA,NA,NA,NA,NA,NA,NA,sdfdsf,NA,1,NA,NA,NA,NA,NA,NA,NA,NA,NA,NA,NA,NA,NA,NA,NA,NA,NA,NA,NA
1adfd,weiter,canvas.Screen,5_0_1_1,sdf,keypress(Space),response,1436.5,580623,580610.92,580627.5,582064,582077,2023-09-27T17:07:55Z,582160.62,NULL,NA,NA,NA,NA,NA,NA,NA,sdfdsf,NA,1,NA,NA,NA,NA,NA,NA,NA,NA,NA,NA,NA,NA,NA,NA,NA,NA,NA,NA,NA
1adfd,check continue,flow.Sequence,5_0_1,NA,NA,completion,73510.3,508538,508538.34,508553.7,582064,582078,2023-09-27T17:07:55Z,582160.62,NULL,NA,NA,NA,NA,NA,NA,NA,sdfdsf,NA,1,NA,NA,NA,NA,NA,NA,NA,NA,NA,NA,NA,NA,NA,NA,NA,NA,NA,NA,NA
1adfd,Deep Question,html.Page,5_0_2_0_0_0_0,NA,NA,form submission,12673.38,582145,582144.64,582160.62,594834,594834,2023-09-27T17:08:08Z,594842.36,NULL,Symbol,kielezo,d,NA,NA,NA,uwaleleleyi,NA,NA,2,NA,NA,NA,NA,NA,NA,NA,NA,NA,NA,NA,NA,NA,NA,NA,NA,NA,NA,NA
1adfd,"""Richtig""-Screen",canvas.Screen,5_0_2_0_0_0_1,NA,NA,skipped,NA,594837,NA,NA,594834,594837,2023-09-27T17:08:08Z,594842.36,NULL,Symbol,kielezo,d,NA,NA,NA,NA,sdf,NA,2,NA,NA,NA,NA,NA,NA,NA,NA,NA,NA,NA,NA,NA,NA,NA,NA,NA,NA,NA
1adfd,"""Falsch""-Screen",canvas.Screen,5_0_2_0_0_0_2,NA,NA,timeout,4999.38,594839,594832.72,594842.36,599825.16,599827,2023-09-27T17:08:13Z,599841.74,NULL,Symbol,kielezo,d,NA,NA,NA,NA,sdf,0,2,NA,NA,NA,NA,NA,NA,NA,NA,NA,NA,NA,NA,NA,NA,NA,NA,NA,NA,NA
1adfd,deep,flow.Sequence,5_0_2_0_0_0,NA,NA,completion,17664.54,582145,582144.64,582160.62,599825.16,599827,2023-09-27T17:08:13Z,599841.74,NULL,Symbol,kielezo,d,NA,NA,NA,NA,sdf,NA,2,NA,NA,NA,NA,NA,NA,NA,NA,NA,NA,NA,NA,NA,NA,NA,NA,NA,NA,NA
1adfd,shallow,flow.Sequence,5_0_2_0_0_1,NA,NA,skipped,NA,599827,NA,NA,599825.16,599827,2023-09-27T17:08:13Z,599841.74,NULL,Symbol,kielezo,d,NA,NA,NA,NA,sdf,NA,2,NA,NA,NA,NA,NA,NA,NA,NA,NA,NA,NA,NA,NA,NA,NA,NA,NA,NA,NA
1adfd,task,flow.Sequence,5_0_2_0_0,NA,NA,completion,17664.54,582145,582144.64,582160.62,599825.16,599827,2023-09-27T17:08:13Z,599841.74,NULL,Symbol,kielezo,d,NA,NA,NA,NA,sdf,NA,2,NA,NA,NA,NA,NA,NA,NA,NA,NA,NA,NA,NA,NA,NA,NA,NA,NA,NA,NA
1adfd,Deep Question,html.Page,5_0_2_0_1_0_0,NA,NA,form submission,2196.26,599828,599825.16,599841.74,602038,602038,2023-09-27T17:08:15Z,602041.5,NULL,Fenster,dirisha,d,NA,NA,NA,dirishi,NA,NA,2,NA,NA,NA,NA,NA,NA,NA,NA,NA,NA,NA,NA,NA,NA,NA,NA,NA,NA,NA
1adfd,"""Richtig""-Screen",canvas.Screen,5_0_2_0_1_0_1,NA,NA,skipped,NA,602040,NA,NA,602038,602040,2023-09-27T17:08:15Z,602041.5,NULL,Fenster,dirisha,d,NA,NA,NA,NA,sdf,NA,2,NA,NA,NA,NA,NA,NA,NA,NA,NA,NA,NA,NA,NA,NA,NA,NA,NA,NA,NA
1adfd,"""Falsch""-Screen",canvas.Screen,5_0_2_0_1_0_2,NA,NA,timeout,4999.3,602044,602036.54,602041.5,607024.26,607025,2023-09-27T17:08:20Z,607040.8,NULL,Fenster,dirisha,d,NA,NA,NA,NA,sdf,0,2,NA,NA,NA,NA,NA,NA,NA,NA,NA,NA,NA,NA,NA,NA,NA,NA,NA,NA,NA
1adfd,deep,flow.Sequence,5_0_2_0_1_0,NA,NA,completion,7182.52,599828,599825.16,599841.74,607024.26,607026,2023-09-27T17:08:20Z,607040.8,NULL,Fenster,dirisha,d,NA,NA,NA,NA,sdf,NA,2,NA,NA,NA,NA,NA,NA,NA,NA,NA,NA,NA,NA,NA,NA,NA,NA,NA,NA,NA
1adfd,shallow,flow.Sequence,5_0_2_0_1_1,NA,NA,skipped,NA,607027,NA,NA,607024.26,607028,2023-09-27T17:08:20Z,607040.8,NULL,Fenster,dirisha,d,NA,NA,NA,NA,sdf,NA,2,NA,NA,NA,NA,NA,NA,NA,NA,NA,NA,NA,NA,NA,NA,NA,NA,NA,NA,NA
1adfd,task,flow.Sequence,5_0_2_0_1,NA,NA,completion,7182.52,599828,599825.16,599841.74,607024.26,607028,2023-09-27T17:08:20Z,607040.8,NULL,Fenster,dirisha,d,NA,NA,NA,NA,sdf,NA,2,NA,NA,NA,NA,NA,NA,NA,NA,NA,NA,NA,NA,NA,NA,NA,NA,NA,NA,NA
1adfd,deep,flow.Sequence,5_0_2_0_2_0,NA,NA,skipped,NA,607028,NA,NA,607024.26,607028,2023-09-27T17:08:20Z,607040.8,NULL,Vorsorge,tahadhari,s,ufafanuzi,makini,mashambani,NA,sdf,NA,2,NA,NA,NA,NA,NA,NA,NA,NA,NA,NA,NA,NA,NA,NA,NA,NA,NA,NA,NA
1adfd,Shallow Question,html.Page,5_0_2_0_2_1_0,NA,NA,form submission,3042.2,607029,607024.26,607040.8,610083,610084,2023-09-27T17:08:23Z,610090.4,NULL,Vorsorge,tahadhari,s,ufafanuzi,makini,mashambani,tahadhari,NA,NA,2,NA,NA,NA,NA,NA,NA,NA,NA,NA,NA,NA,NA,NA,NA,NA,NA,NA,NA,NA
1adfd,"""Richtig""-Screen",canvas.Screen,5_0_2_0_2_1_1,NA,NA,timeout,4999.38,610090,610079.32,610090.4,615073.42,615075,2023-09-27T17:08:28Z,615089.78,NULL,Vorsorge,tahadhari,s,ufafanuzi,makini,mashambani,NA,sdf,1,2,NA,NA,NA,NA,NA,NA,NA,NA,NA,NA,NA,NA,NA,NA,NA,NA,NA,NA,NA
1adfd,"""Falsch""-Screen",canvas.Screen,5_0_2_0_2_1_2,NA,NA,skipped,NA,615081,NA,NA,615073.42,615082,2023-09-27T17:08:28Z,615089.78,NULL,Vorsorge,tahadhari,s,ufafanuzi,makini,mashambani,NA,sdf,NA,2,NA,NA,NA,NA,NA,NA,NA,NA,NA,NA,NA,NA,NA,NA,NA,NA,NA,NA,NA
1adfd,shallow,flow.Sequence,5_0_2_0_2_1,NA,NA,completion,8032.62,607029,607024.26,607040.8,615073.42,615082,2023-09-27T17:08:28Z,615089.78,NULL,Vorsorge,tahadhari,s,ufafanuzi,makini,mashambani,NA,sdf,NA,2,NA,NA,NA,NA,NA,NA,NA,NA,NA,NA,NA,NA,NA,NA,NA,NA,NA,NA,NA
1adfd,task,flow.Sequence,5_0_2_0_2,NA,NA,completion,8032.62,607028,607024.26,607040.8,615073.42,615083,2023-09-27T17:08:28Z,615089.78,NULL,Vorsorge,tahadhari,s,ufafanuzi,makini,mashambani,NA,sdf,NA,2,NA,NA,NA,NA,NA,NA,NA,NA,NA,NA,NA,NA,NA,NA,NA,NA,NA,NA,NA
1adfd,deep,flow.Sequence,5_0_2_0_3_0,NA,NA,skipped,NA,615083,NA,NA,615073.42,615084,2023-09-27T17:08:28Z,615089.78,NULL,Schüler,mwanafunzi,s,mwekezaji,matumizi,uaminifu,NA,sdf,NA,2,NA,NA,NA,NA,NA,NA,NA,NA,NA,NA,NA,NA,NA,NA,NA,NA,NA,NA,NA
1adfd,Shallow Question,html.Page,5_0_2_0_3_1_0,NA,NA,form submission,4508.22,615084,615073.42,615089.78,619598,619598,2023-09-27T17:08:33Z,619605.78,NULL,Schüler,mwanafunzi,s,mwekezaji,matumizi,uaminifu,mwanafunzi,NA,NA,2,NA,NA,NA,NA,NA,NA,NA,NA,NA,NA,NA,NA,NA,NA,NA,NA,NA,NA,NA
1adfd,"""Richtig""-Screen",canvas.Screen,5_0_2_0_3_1_1,NA,NA,timeout,4999.52,619600,619596.52,619605.78,624588.98,624590,2023-09-27T17:08:38Z,624605.3,NULL,Schüler,mwanafunzi,s,mwekezaji,matumizi,uaminifu,NA,sdf,1,2,NA,NA,NA,NA,NA,NA,NA,NA,NA,NA,NA,NA,NA,NA,NA,NA,NA,NA,NA
1adfd,"""Falsch""-Screen",canvas.Screen,5_0_2_0_3_1_2,NA,NA,skipped,NA,624598,NA,NA,624588.98,624598,2023-09-27T17:08:38Z,624605.3,NULL,Schüler,mwanafunzi,s,mwekezaji,matumizi,uaminifu,NA,sdf,NA,2,NA,NA,NA,NA,NA,NA,NA,NA,NA,NA,NA,NA,NA,NA,NA,NA,NA,NA,NA
