observation,sender,sender_type,sender_id,response,response_action,ended_on,duration,time_run,time_render,time_show,time_end,time_commit,timestamp,time_switch,german,swahili,enc,distractor1,distractor2,distractor3,response_2,x,correct,distractors,url_vp,url_sess,meta_labjs_version,meta_location,meta_user_agent,meta_platform,meta_language,meta_locale,meta_time_zone,meta_timezone_offset,meta_screen_width,meta_screen_height,meta_scroll_width,meta_scroll_height,meta_window_inner_width,meta_window_inner_height,meta_device_pixel_ratio,meta_labjs_build_flavor,meta_labjs_build_commit
a2475,Introduction delayed retrieval,canvas.Screen,0,weiter,keypress(Space),response,2129.2020000015,125.30000000075,88.066,121.398,2250.6000000015,2255,2023-09-04T05:46:37Z,2254.646,NA,NA,NA,NA,NA,NA,NA,NA,NA,NULL,178,2,20.2.4,https://neurocog.fernuni.ch/studies/vweber/sliechti/delayed/index.html?vp=178&sess=2,"Mozilla/5.0 (Macintosh; Intel Mac OS X 10_15_7) AppleWebKit/537.36 (KHTML, like Gecko) Chrome/116.0.0.0 Safari/537.36",MacIntel,de-DE,de,Europe/Zurich,-120,1440,900,1347,654,1347,702,2,production,f5b4a49f956347addd546a832a3327688c2c0fef
a2475,Deep Question,html.Page,1_0_0_0,NA,NA,form submission,1191.0539999993,2255.3999999985,2237.98,2254.646,3445.6999999993,3446.1999999993,2023-09-04T05:46:38Z,3454.598,Entwicklung,maendeleo,d,uangavu,mshindwa,badiliko,sdf,NA,NA,NULL,NA,NA,NA,NA,NA,NA,NA,NA,NA,NA,NA,NA,NA,NA,NA,NA,NA,NA,NA
a2475,Save data screen,canvas.Screen,1_0_0_1,NA,NA,timeout,499.98,3447.3999999985,3437.932,3454.598,3937.912,3941.3999999985,2023-09-04T05:46:39Z,3954.578,Entwicklung,maendeleo,d,uangavu,mshindwa,badiliko,NA,NA,0,NULL,NA,NA,NA,NA,NA,NA,NA,NA,NA,NA,NA,NA,NA,NA,NA,NA,NA,NA,NA
a2475,deep,flow.Sequence,1_0_0,NA,NA,completion,1683.266,2255.3999999985,2237.98,2254.646,3937.912,3941.8999999985,2023-09-04T05:46:39Z,3954.578,Entwicklung,maendeleo,d,uangavu,mshindwa,badiliko,NA,NA,NA,NULL,NA,NA,NA,NA,NA,NA,NA,NA,NA,NA,NA,NA,NA,NA,NA,NA,NA,NA,NA
a2475,task,flow.Sequence,1_0,NA,NA,completion,1683.266,2255.3000000007,2237.98,2254.646,3937.912,3942.1999999993,2023-09-04T05:46:39Z,3954.578,Entwicklung,maendeleo,d,uangavu,mshindwa,badiliko,NA,NA,NA,NULL,NA,NA,NA,NA,NA,NA,NA,NA,NA,NA,NA,NA,NA,NA,NA,NA,NA,NA,NA
a2475,Deep Question,html.Page,1_1_0_0,NA,NA,form submission,468.02200000149,3942.5,3937.912,3954.578,4422.6000000015,4423.1000000015,2023-09-04T05:46:39Z,4437.892,Flexibilität,kubadilika,d,enjini,usikilivu,hesabu,sdf,NA,NA,NULL,NA,NA,NA,NA,NA,NA,NA,NA,NA,NA,NA,NA,NA,NA,NA,NA,NA,NA,NA
a2475,Save data screen,canvas.Screen,1_1_0_1,NA,NA,timeout,499.98,4424.1999999993,4421.226,4437.892,4921.206,4925.3999999985,2023-09-04T05:46:39Z,4937.872,Flexibilität,kubadilika,d,enjini,usikilivu,hesabu,NA,NA,0,NULL,NA,NA,NA,NA,NA,NA,NA,NA,NA,NA,NA,NA,NA,NA,NA,NA,NA,NA,NA
a2475,deep,flow.Sequence,1_1_0,NA,NA,completion,966.628,3942.3999999985,3937.912,3954.578,4921.206,4925.6999999993,2023-09-04T05:46:39Z,4937.872,Flexibilität,kubadilika,d,enjini,usikilivu,hesabu,NA,NA,NA,NULL,NA,NA,NA,NA,NA,NA,NA,NA,NA,NA,NA,NA,NA,NA,NA,NA,NA,NA,NA
a2475,task,flow.Sequence,1_1,NA,NA,completion,966.628,3942.3000000007,3937.912,3954.578,4921.206,4925.8999999985,2023-09-04T05:46:39Z,4937.872,Flexibilität,kubadilika,d,enjini,usikilivu,hesabu,NA,NA,NA,NULL,NA,NA,NA,NA,NA,NA,NA,NA,NA,NA,NA,NA,NA,NA,NA,NA,NA,NA,NA
a2475,Deep Question,html.Page,1_2_0_0,NA,NA,form submission,496.22800000149,4926.1999999993,4921.206,4937.872,5434.1000000015,5434.6999999993,2023-09-04T05:46:40Z,5437.852,Orientierung,urekebisho,s,uelekeo,marekebisho,utunzaji,sdf,NA,NA,NULL,NA,NA,NA,NA,NA,NA,NA,NA,NA,NA,NA,NA,NA,NA,NA,NA,NA,NA,NA
a2475,Save data screen,canvas.Screen,1_2_0_1,NA,NA,timeout,499.98,5435.6999999993,5421.186,5437.852,5921.166,5925.6999999993,2023-09-04T05:46:40Z,5937.832,Orientierung,urekebisho,s,uelekeo,marekebisho,utunzaji,NA,NA,0,NULL,NA,NA,NA,NA,NA,NA,NA,NA,NA,NA,NA,NA,NA,NA,NA,NA,NA,NA,NA
a2475,deep,flow.Sequence,1_2_0,NA,NA,completion,983.294,4926.1000000015,4921.206,4937.872,5921.166,5926.1000000015,2023-09-04T05:46:40Z,5937.832,Orientierung,urekebisho,s,uelekeo,marekebisho,utunzaji,NA,NA,NA,NULL,NA,NA,NA,NA,NA,NA,NA,NA,NA,NA,NA,NA,NA,NA,NA,NA,NA,NA,NA
a2475,task,flow.Sequence,1_2,NA,NA,completion,983.294,4926,4921.206,4937.872,5921.166,5926.3000000007,2023-09-04T05:46:40Z,5937.832,Orientierung,urekebisho,s,uelekeo,marekebisho,utunzaji,NA,NA,NA,NULL,NA,NA,NA,NA,NA,NA,NA,NA,NA,NA,NA,NA,NA,NA,NA,NA,NA,NA,NA
a2475,Deep Question,html.Page,1_3_0_0,NA,NA,form submission,369.168,5926.6000000015,5921.166,5937.832,6307,6307.6000000015,2023-09-04T05:46:41Z,6321.15,Erneuerung,ukarabati,s,ushawishi,ukalifu,unyonyaji,sdf,NA,NA,NULL,NA,NA,NA,NA,NA,NA,NA,NA,NA,NA,NA,NA,NA,NA,NA,NA,NA,NA,NA
a2475,Save data screen,canvas.Screen,1_3_0_1,NA,NA,timeout,499.98,6308.6000000015,6304.484,6321.15,6804.464,6808.3999999985,2023-09-04T05:46:41Z,6821.13,Erneuerung,ukarabati,s,ushawishi,ukalifu,unyonyaji,NA,NA,0,NULL,NA,NA,NA,NA,NA,NA,NA,NA,NA,NA,NA,NA,NA,NA,NA,NA,NA,NA,NA
a2475,deep,flow.Sequence,1_3_0,NA,NA,completion,866.632,5926.5,5921.166,5937.832,6804.464,6808.6999999993,2023-09-04T05:46:41Z,6821.13,Erneuerung,ukarabati,s,ushawishi,ukalifu,unyonyaji,NA,NA,NA,NULL,NA,NA,NA,NA,NA,NA,NA,NA,NA,NA,NA,NA,NA,NA,NA,NA,NA,NA,NA
a2475,task,flow.Sequence,1_3,NA,NA,completion,866.632,5926.3999999985,5921.166,5937.832,6804.464,6808.8000000007,2023-09-04T05:46:41Z,6821.13,Erneuerung,ukarabati,s,ushawishi,ukalifu,unyonyaji,NA,NA,NA,NULL,NA,NA,NA,NA,NA,NA,NA,NA,NA,NA,NA,NA,NA,NA,NA,NA,NA,NA,NA
a2475,Deep Question,html.Page,1_4_0_0,NA,NA,form submission,451.47000000149,6808.8999999985,6804.464,6821.13,7272.6000000015,7273.1000000015,2023-09-04T05:46:42Z,7287.778,Genehmigung,idhini,d,mwanamke,itikadi,fedheha,sdf,NA,NA,NULL,NA,NA,NA,NA,NA,NA,NA,NA,NA,NA,NA,NA,NA,NA,NA,NA,NA,NA,NA
a2475,Save data screen,canvas.Screen,1_4_0_1,NA,NA,timeout,499.98,7274.1999999993,7271.112,7287.778,7771.092,7772.3999999985,2023-09-04T05:46:42Z,7787.758,Genehmigung,idhini,d,mwanamke,itikadi,fedheha,NA,NA,0,NULL,NA,NA,NA,NA,NA,NA,NA,NA,NA,NA,NA,NA,NA,NA,NA,NA,NA,NA,NA
a2475,deep,flow.Sequence,1_4_0,NA,NA,completion,949.962,6808.8000000007,6804.464,6821.13,7771.092,7772.6999999993,2023-09-04T05:46:42Z,7787.758,Genehmigung,idhini,d,mwanamke,itikadi,fedheha,NA,NA,NA,NULL,NA,NA,NA,NA,NA,NA,NA,NA,NA,NA,NA,NA,NA,NA,NA,NA,NA,NA,NA
a2475,task,flow.Sequence,1_4,NA,NA,completion,949.962,6808.8000000007,6804.464,6821.13,7771.092,7772.8999999985,2023-09-04T05:46:42Z,7787.758,Genehmigung,idhini,d,mwanamke,itikadi,fedheha,NA,NA,NA,NULL,NA,NA,NA,NA,NA,NA,NA,NA,NA,NA,NA,NA,NA,NA,NA,NA,NA,NA,NA
a2475,Deep Question,html.Page,1_5_0_0,NA,NA,form submission,450.44199999926,7773.3000000007,7771.092,7787.758,8238.1999999993,8238.6000000015,2023-09-04T05:46:43Z,8238.225,Atmosphäre,angahewa,d,kuteseka,usahihi,kutoamini,sdf,NA,NA,NULL,NA,NA,NA,NA,NA,NA,NA,NA,NA,NA,NA,NA,NA,NA,NA,NA,NA,NA,NA
a2475,Save data screen,canvas.Screen,1_5_0_1,NA,NA,timeout,499.98,8239.6000000015,8221.559,8238.225,8721.539,8726.8999999985,2023-09-04T05:46:43Z,8738.205,Atmosphäre,angahewa,d,kuteseka,usahihi,kutoamini,NA,NA,0,NULL,NA,NA,NA,NA,NA,NA,NA,NA,NA,NA,NA,NA,NA,NA,NA,NA,NA,NA,NA
a2475,deep,flow.Sequence,1_5_0,NA,NA,completion,933.781,7773.1000000015,7771.092,7787.758,8721.539,8727.1999999993,2023-09-04T05:46:43Z,8738.205,Atmosphäre,angahewa,d,kuteseka,usahihi,kutoamini,NA,NA,NA,NULL,NA,NA,NA,NA,NA,NA,NA,NA,NA,NA,NA,NA,NA,NA,NA,NA,NA,NA,NA
a2475,task,flow.Sequence,1_5,NA,NA,completion,933.781,7773.1000000015,7771.092,7787.758,8721.539,8727.3999999985,2023-09-04T05:46:43Z,8738.205,Atmosphäre,angahewa,d,kuteseka,usahihi,kutoamini,NA,NA,NA,NULL,NA,NA,NA,NA,NA,NA,NA,NA,NA,NA,NA,NA,NA,NA,NA,NA,NA,NA,NA
a2475,Deep Question,html.Page,1_6_0_0,NA,NA,form submission,382.49499999926,8727.5,8721.539,8738.205,9120.6999999993,9121.1000000015,2023-09-04T05:46:44Z,9121.523,Papier,karatasi,s,uchambuzi,usalama,kukataliwa,sdf,NA,NA,NULL,NA,NA,NA,NA,NA,NA,NA,NA,NA,NA,NA,NA,NA,NA,NA,NA,NA,NA,NA
a2475,Save data screen,canvas.Screen,1_6_0_1,NA,NA,timeout,499.98,9122.1999999993,9104.857,9121.523,9604.837,9609.8000000007,2023-09-04T05:46:44Z,9621.503,Papier,karatasi,s,uchambuzi,usalama,kukataliwa,NA,NA,0,NULL,NA,NA,NA,NA,NA,NA,NA,NA,NA,NA,NA,NA,NA,NA,NA,NA,NA,NA,NA
a2475,deep,flow.Sequence,1_6_0,NA,NA,completion,866.632,8727.5,8721.539,8738.205,9604.837,9610,2023-09-04T05:46:44Z,9621.503,Papier,karatasi,s,uchambuzi,usalama,kukataliwa,NA,NA,NA,NULL,NA,NA,NA,NA,NA,NA,NA,NA,NA,NA,NA,NA,NA,NA,NA,NA,NA,NA,NA
a2475,task,flow.Sequence,1_6,NA,NA,completion,866.632,8727.3999999985,8721.539,8738.205,9604.837,9610.1999999993,2023-09-04T05:46:44Z,9621.503,Papier,karatasi,s,uchambuzi,usalama,kukataliwa,NA,NA,NA,NULL,NA,NA,NA,NA,NA,NA,NA,NA,NA,NA,NA,NA,NA,NA,NA,NA,NA,NA,NA
a2475,Deep Question,html.Page,1_7_0_0,NA,NA,form submission,458.09700000149,9610.5,9604.837,9621.503,10079.600000001,10080,2023-09-04T05:46:45Z,10088.151,Integrität,uadilifu,s,muungano,mtiririko,upunguaji,sdf,NA,NA,NULL,NA,NA,NA,NA,NA,NA,NA,NA,NA,NA,NA,NA,NA,NA,NA,NA,NA,NA,NA
a2475,Save data screen,canvas.Screen,1_7_0_1,NA,NA,timeout,499.98,10081.199999999,10071.485,10088.151,10571.465,10574.300000001,2023-09-04T05:46:45Z,10588.131,Integrität,uadilifu,s,muungano,mtiririko,upunguaji,NA,NA,0,NULL,NA,NA,NA,NA,NA,NA,NA,NA,NA,NA,NA,NA,NA,NA,NA,NA,NA,NA,NA
a2475,deep,flow.Sequence,1_7_0,NA,NA,completion,949.962,9610.5,9604.837,9621.503,10571.465,10574.600000001,2023-09-04T05:46:45Z,10588.131,Integrität,uadilifu,s,muungano,mtiririko,upunguaji,NA,NA,NA,NULL,NA,NA,NA,NA,NA,NA,NA,NA,NA,NA,NA,NA,NA,NA,NA,NA,NA,NA,NA
a2475,task,flow.Sequence,1_7,NA,NA,completion,949.962,9610.3999999985,9604.837,9621.503,10571.465,10574.800000001,2023-09-04T05:46:45Z,10588.131,Integrität,uadilifu,s,muungano,mtiririko,upunguaji,NA,NA,NA,NULL,NA,NA,NA,NA,NA,NA,NA,NA,NA,NA,NA,NA,NA,NA,NA,NA,NA,NA,NA
a2475,Deep Question,html.Page,1_8_0_0,NA,NA,form submission,495.96900000149,10575,10571.465,10588.131,11084.100000001,11084.600000001,2023-09-04T05:46:46Z,11088.111,Stimmung,kinyongo,d,kilekile,kisambo,madhehebu,sdf,NA,NA,NULL,NA,NA,NA,NA,NA,NA,NA,NA,NA,NA,NA,NA,NA,NA,NA,NA,NA,NA,NA
a2475,Save data screen,canvas.Screen,1_8_0_1,NA,NA,timeout,499.98,11085.699999999,11071.445,11088.111,11571.425,11575.300000001,2023-09-04T05:46:46Z,11588.091,Stimmung,kinyongo,d,kilekile,kisambo,madhehebu,NA,NA,0,NULL,NA,NA,NA,NA,NA,NA,NA,NA,NA,NA,NA,NA,NA,NA,NA,NA,NA,NA,NA
a2475,deep,flow.Sequence,1_8_0,NA,NA,completion,983.294,10575,10571.465,10588.131,11571.425,11575.600000001,2023-09-04T05:46:46Z,11588.091,Stimmung,kinyongo,d,kilekile,kisambo,madhehebu,NA,NA,NA,NULL,NA,NA,NA,NA,NA,NA,NA,NA,NA,NA,NA,NA,NA,NA,NA,NA,NA,NA,NA
a2475,task,flow.Sequence,1_8,NA,NA,completion,983.294,10575,10571.465,10588.131,11571.425,11575.800000001,2023-09-04T05:46:46Z,11588.091,Stimmung,kinyongo,d,kilekile,kisambo,madhehebu,NA,NA,NA,NULL,NA,NA,NA,NA,NA,NA,NA,NA,NA,NA,NA,NA,NA,NA,NA,NA,NA,NA,NA
a2475,Deep Question,html.Page,1_9_0_0,NA,NA,form submission,590.50900000149,11576,11571.425,11588.091,12178.600000001,12179,2023-09-04T05:46:47Z,12188.067,Fleisch,mshakiki,s,kizunguzungu,mshikamano,angusho,sdf,NA,NA,NULL,NA,NA,NA,NA,NA,NA,NA,NA,NA,NA,NA,NA,NA,NA,NA,NA,NA,NA,NA
a2475,Save data screen,canvas.Screen,1_9_0_1,NA,NA,timeout,499.98,12180,12171.401,12188.067,12671.381,12675.100000001,2023-09-04T05:46:47Z,12688.047,Fleisch,mshakiki,s,kizunguzungu,mshikamano,angusho,NA,NA,0,NULL,NA,NA,NA,NA,NA,NA,NA,NA,NA,NA,NA,NA,NA,NA,NA,NA,NA,NA,NA
a2475,deep,flow.Sequence,1_9_0,NA,NA,completion,1083.29,11575.899999999,11571.425,11588.091,12671.381,12675.600000001,2023-09-04T05:46:47Z,12688.047,Fleisch,mshakiki,s,kizunguzungu,mshikamano,angusho,NA,NA,NA,NULL,NA,NA,NA,NA,NA,NA,NA,NA,NA,NA,NA,NA,NA,NA,NA,NA,NA,NA,NA
a2475,task,flow.Sequence,1_9,NA,NA,completion,1083.29,11575.899999999,11571.425,11588.091,12671.381,12675.800000001,2023-09-04T05:46:47Z,12688.047,Fleisch,mshakiki,s,kizunguzungu,mshikamano,angusho,NA,NA,NA,NULL,NA,NA,NA,NA,NA,NA,NA,NA,NA,NA,NA,NA,NA,NA,NA,NA,NA,NA,NA
a2475,Deep Question,html.Page,1_10_0_0,NA,NA,form submission,482.55300000149,12676,12671.381,12688.047,13170.600000001,13171,2023-09-04T05:46:48Z,13171.361,Niveau,kiwango,s,usimamizi,mwamali,mshairi,sdf,NA,NA,NULL,NA,NA,NA,NA,NA,NA,NA,NA,NA,NA,NA,NA,NA,NA,NA,NA,NA,NA,NA
a2475,Save data screen,canvas.Screen,1_10_0_1,NA,NA,timeout,499.98,13172.199999999,13154.695,13171.361,13654.675,13658.899999999,2023-09-04T05:46:48Z,13671.341,Niveau,kiwango,s,usimamizi,mwamali,mshairi,NA,NA,0,NULL,NA,NA,NA,NA,NA,NA,NA,NA,NA,NA,NA,NA,NA,NA,NA,NA,NA,NA,NA
a2475,deep,flow.Sequence,1_10_0,NA,NA,completion,966.628,12676,12671.381,12688.047,13654.675,13659.199999999,2023-09-04T05:46:48Z,13671.341,Niveau,kiwango,s,usimamizi,mwamali,mshairi,NA,NA,NA,NULL,NA,NA,NA,NA,NA,NA,NA,NA,NA,NA,NA,NA,NA,NA,NA,NA,NA,NA,NA
a2475,task,flow.Sequence,1_10,NA,NA,completion,966.628,12676,12671.381,12688.047,13654.675,13659.399999999,2023-09-04T05:46:48Z,13671.341,Niveau,kiwango,s,usimamizi,mwamali,mshairi,NA,NA,NA,NULL,NA,NA,NA,NA,NA,NA,NA,NA,NA,NA,NA,NA,NA,NA,NA,NA,NA,NA,NA
a2475,Deep Question,html.Page,1_11_0_0,NA,NA,form submission,490.85899999925,13659.600000001,13654.675,13671.341,14162.199999999,14162.600000001,2023-09-04T05:46:49Z,14171.321,Respekt,heshima,s,changamnao,upinzani,ufanisi,sdf,NA,NA,NULL,NA,NA,NA,NA,NA,NA,NA,NA,NA,NA,NA,NA,NA,NA,NA,NA,NA,NA,NA
a2475,Save data screen,canvas.Screen,1_11_0_1,NA,NA,timeout,499.98,14163.600000001,14154.655,14171.321,14654.635,14659,2023-09-04T05:46:49Z,14671.301,Respekt,heshima,s,changamnao,upinzani,ufanisi,NA,NA,0,NULL,NA,NA,NA,NA,NA,NA,NA,NA,NA,NA,NA,NA,NA,NA,NA,NA,NA,NA,NA
a2475,deep,flow.Sequence,1_11_0,NA,NA,completion,983.294,13659.600000001,13654.675,13671.341,14654.635,14659.5,2023-09-04T05:46:49Z,14671.301,Respekt,heshima,s,changamnao,upinzani,ufanisi,NA,NA,NA,NULL,NA,NA,NA,NA,NA,NA,NA,NA,NA,NA,NA,NA,NA,NA,NA,NA,NA,NA,NA
a2475,task,flow.Sequence,1_11,NA,NA,completion,983.294,13659.5,13654.675,13671.341,14654.635,14659.600000001,2023-09-04T05:46:49Z,14671.301,Respekt,heshima,s,changamnao,upinzani,ufanisi,NA,NA,NA,NULL,NA,NA,NA,NA,NA,NA,NA,NA,NA,NA,NA,NA,NA,NA,NA,NA,NA,NA,NA
a2475,Deep Question,html.Page,1_12_0_0,NA,NA,form submission,478.79900000149,14659.899999999,14654.635,14671.301,15150.100000001,15150.600000001,2023-09-04T05:46:50Z,15154.615,Begegnung,kukutana,d,mmasihiya,mpiganaji,husiano,sdf,NA,NA,NULL,NA,NA,NA,NA,NA,NA,NA,NA,NA,NA,NA,NA,NA,NA,NA,NA,NA,NA,NA
a2475,Save data screen,canvas.Screen,1_12_0_1,NA,NA,timeout,499.98,15151.800000001,15137.949,15154.615,15637.929,15642.600000001,2023-09-04T05:46:50Z,15654.595,Begegnung,kukutana,d,mmasihiya,mpiganaji,husiano,NA,NA,0,NULL,NA,NA,NA,NA,NA,NA,NA,NA,NA,NA,NA,NA,NA,NA,NA,NA,NA,NA,NA
a2475,deep,flow.Sequence,1_12_0,NA,NA,completion,966.628,14659.800000001,14654.635,14671.301,15637.929,15642.899999999,2023-09-04T05:46:50Z,15654.595,Begegnung,kukutana,d,mmasihiya,mpiganaji,husiano,NA,NA,NA,NULL,NA,NA,NA,NA,NA,NA,NA,NA,NA,NA,NA,NA,NA,NA,NA,NA,NA,NA,NA
a2475,task,flow.Sequence,1_12,NA,NA,completion,966.628,14659.699999999,14654.635,14671.301,15637.929,15643.100000001,2023-09-04T05:46:50Z,15654.595,Begegnung,kukutana,d,mmasihiya,mpiganaji,husiano,NA,NA,NA,NULL,NA,NA,NA,NA,NA,NA,NA,NA,NA,NA,NA,NA,NA,NA,NA,NA,NA,NA,NA
a2475,Deep Question,html.Page,1_13_0_0,NA,NA,form submission,483.00500000149,15643.300000001,15637.929,15654.595,16137.600000001,16138,2023-09-04T05:46:51Z,16137.909,Wechsel,ugeuzaji,s,utambulisho,kujenga,wasiwasi,sdf,NA,NA,NULL,NA,NA,NA,NA,NA,NA,NA,NA,NA,NA,NA,NA,NA,NA,NA,NA,NA,NA,NA
a2475,Save data screen,canvas.Screen,1_13_0_1,NA,NA,timeout,499.98,16138.899999999,16121.243,16137.909,16621.223,16626.399999999,2023-09-04T05:46:51Z,16637.889,Wechsel,ugeuzaji,s,utambulisho,kujenga,wasiwasi,NA,NA,0,NULL,NA,NA,NA,NA,NA,NA,NA,NA,NA,NA,NA,NA,NA,NA,NA,NA,NA,NA,NA
a2475,deep,flow.Sequence,1_13_0,NA,NA,completion,966.628,15643.199999999,15637.929,15654.595,16621.223,16626.699999999,2023-09-04T05:46:51Z,16637.889,Wechsel,ugeuzaji,s,utambulisho,kujenga,wasiwasi,NA,NA,NA,NULL,NA,NA,NA,NA,NA,NA,NA,NA,NA,NA,NA,NA,NA,NA,NA,NA,NA,NA,NA
a2475,task,flow.Sequence,1_13,NA,NA,completion,966.628,15643.199999999,15637.929,15654.595,16621.223,16627,2023-09-04T05:46:51Z,16637.889,Wechsel,ugeuzaji,s,utambulisho,kujenga,wasiwasi,NA,NA,NA,NULL,NA,NA,NA,NA,NA,NA,NA,NA,NA,NA,NA,NA,NA,NA,NA,NA,NA,NA,NA
a2475,Deep Question,html.Page,1_14_0_0,NA,NA,form submission,498.71100000149,16627.199999999,16621.223,16637.889,17136.600000001,17137,2023-09-04T05:46:52Z,17137.869,Vorwurf,mashtaka,d,msukumo,mtangulizi,uenyekiti,sdf,NA,NA,NULL,NA,NA,NA,NA,NA,NA,NA,NA,NA,NA,NA,NA,NA,NA,NA,NA,NA,NA,NA
a2475,Save data screen,canvas.Screen,1_14_0_1,NA,NA,timeout,499.98,17138.100000001,17121.203,17137.869,17621.183,17624.199999999,2023-09-04T05:46:52Z,17637.849,Vorwurf,mashtaka,d,msukumo,mtangulizi,uenyekiti,NA,NA,0,NULL,NA,NA,NA,NA,NA,NA,NA,NA,NA,NA,NA,NA,NA,NA,NA,NA,NA,NA,NA
a2475,deep,flow.Sequence,1_14_0,NA,NA,completion,983.294,16627.100000001,16621.223,16637.889,17621.183,17624.600000001,2023-09-04T05:46:52Z,17637.849,Vorwurf,mashtaka,d,msukumo,mtangulizi,uenyekiti,NA,NA,NA,NULL,NA,NA,NA,NA,NA,NA,NA,NA,NA,NA,NA,NA,NA,NA,NA,NA,NA,NA,NA
a2475,task,flow.Sequence,1_14,NA,NA,completion,983.294,16627.100000001,16621.223,16637.889,17621.183,17624.800000001,2023-09-04T05:46:52Z,17637.849,Vorwurf,mashtaka,d,msukumo,mtangulizi,uenyekiti,NA,NA,NA,NULL,NA,NA,NA,NA,NA,NA,NA,NA,NA,NA,NA,NA,NA,NA,NA,NA,NA,NA,NA
a2475,Deep Question,html.Page,1_15_0_0,NA,NA,form submission,412.651,17625,17621.183,17637.849,18050.5,18050.899999999,2023-09-04T05:46:53Z,18054.499,Betrüger,mdanganyifu,d,mwanamuziki,wastani,mahakama,sdf,NA,NA,NULL,NA,NA,NA,NA,NA,NA,NA,NA,NA,NA,NA,NA,NA,NA,NA,NA,NA,NA,NA
a2475,Save data screen,canvas.Screen,1_15_0_1,NA,NA,timeout,500.479,18051.800000001,18037.833,18054.499,18538.312,18542.800000001,2023-09-04T05:46:53Z,18554.978,Betrüger,mdanganyifu,d,mwanamuziki,wastani,mahakama,NA,NA,0,NULL,NA,NA,NA,NA,NA,NA,NA,NA,NA,NA,NA,NA,NA,NA,NA,NA,NA,NA,NA
a2475,deep,flow.Sequence,1_15_0,NA,NA,completion,900.463,17624.899999999,17621.183,17637.849,18538.312,18543.199999999,2023-09-04T05:46:53Z,18554.978,Betrüger,mdanganyifu,d,mwanamuziki,wastani,mahakama,NA,NA,NA,NULL,NA,NA,NA,NA,NA,NA,NA,NA,NA,NA,NA,NA,NA,NA,NA,NA,NA,NA,NA
a2475,task,flow.Sequence,1_15,NA,NA,completion,900.463,17624.899999999,17621.183,17637.849,18538.312,18543.399999999,2023-09-04T05:46:53Z,18554.978,Betrüger,mdanganyifu,d,mwanamuziki,wastani,mahakama,NA,NA,NA,NULL,NA,NA,NA,NA,NA,NA,NA,NA,NA,NA,NA,NA,NA,NA,NA,NA,NA,NA,NA
a2475,retrieval block 1 (cued recall),flow.Loop,1,NA,NA,completion,16283.666,2255.3000000007,2237.98,2254.646,18538.312,18543.600000001,2023-09-04T05:46:53Z,18554.978,NA,NA,NA,NA,NA,NA,NA,NA,NA,NULL,NA,NA,NA,NA,NA,NA,NA,NA,NA,NA,NA,NA,NA,NA,NA,NA,NA,NA,NA
a2475,Shallow Question,html.Page,2_0_0_0,NA,NA,form submission,2744.8220000007,18544,18538.312,18554.978,21299.800000001,21300.300000001,2023-09-04T05:46:56Z,21304.868,Integrität,uadilifu,s,muungano,mtiririko,upunguaji,uadilifu,NA,NA,"c(""distractor1"", ""distractor2"", ""distractor3"")",NA,NA,NA,NA,NA,NA,NA,NA,NA,NA,NA,NA,NA,NA,NA,NA,NA,NA,NA
a2475,Save data screen,canvas.Screen,2_0_0_1,NA,NA,timeout,499.98,21301.399999999,21288.202,21304.868,21788.182,21790.100000001,2023-09-04T05:46:56Z,21804.848,Integrität,uadilifu,s,muungano,mtiririko,upunguaji,NA,NA,1,"c(""distractor1"", ""distractor2"", ""distractor3"")",NA,NA,NA,NA,NA,NA,NA,NA,NA,NA,NA,NA,NA,NA,NA,NA,NA,NA,NA
a2475,shallow,flow.Sequence,2_0_0,NA,NA,completion,3233.204,18543.899999999,18538.312,18554.978,21788.182,21790.600000001,2023-09-04T05:46:56Z,21804.848,Integrität,uadilifu,s,muungano,mtiririko,upunguaji,NA,NA,NA,"c(""distractor1"", ""distractor2"", ""distractor3"")",NA,NA,NA,NA,NA,NA,NA,NA,NA,NA,NA,NA,NA,NA,NA,NA,NA,NA,NA
a2475,task,flow.Sequence,2_0,NA,NA,completion,3233.204,18543.899999999,18538.312,18554.978,21788.182,21790.800000001,2023-09-04T05:46:56Z,21804.848,Integrität,uadilifu,s,muungano,mtiririko,upunguaji,NA,NA,NA,"c(""distractor1"", ""distractor2"", ""distractor3"")",NA,NA,NA,NA,NA,NA,NA,NA,NA,NA,NA,NA,NA,NA,NA,NA,NA,NA,NA
a2475,Shallow Question,html.Page,2_1_0_0,NA,NA,form submission,548.45200000074,21791,21788.182,21804.848,22353.300000001,22353.800000001,2023-09-04T05:46:57Z,22354.826,Erneuerung,ukarabati,s,ushawishi,ukalifu,unyonyaji,ushawishi,NA,NA,"c(""distractor1"", ""distractor2"", ""distractor3"")",NA,NA,NA,NA,NA,NA,NA,NA,NA,NA,NA,NA,NA,NA,NA,NA,NA,NA,NA
a2475,Save data screen,canvas.Screen,2_1_0_1,NA,NA,timeout,499.98,22354.699999999,22338.16,22354.826,22838.14,22842.699999999,2023-09-04T05:46:57Z,22854.806,Erneuerung,ukarabati,s,ushawishi,ukalifu,unyonyaji,NA,NA,0,"c(""distractor1"", ""distractor2"", ""distractor3"")",NA,NA,NA,NA,NA,NA,NA,NA,NA,NA,NA,NA,NA,NA,NA,NA,NA,NA,NA
a2475,shallow,flow.Sequence,2_1_0,NA,NA,completion,1033.292,21790.899999999,21788.182,21804.848,22838.14,22843.199999999,2023-09-04T05:46:57Z,22854.806,Erneuerung,ukarabati,s,ushawishi,ukalifu,unyonyaji,NA,NA,NA,"c(""distractor1"", ""distractor2"", ""distractor3"")",NA,NA,NA,NA,NA,NA,NA,NA,NA,NA,NA,NA,NA,NA,NA,NA,NA,NA,NA
a2475,task,flow.Sequence,2_1,NA,NA,completion,1033.292,21790.899999999,21788.182,21804.848,22838.14,22843.300000001,2023-09-04T05:46:57Z,22854.806,Erneuerung,ukarabati,s,ushawishi,ukalifu,unyonyaji,NA,NA,NA,"c(""distractor1"", ""distractor2"", ""distractor3"")",NA,NA,NA,NA,NA,NA,NA,NA,NA,NA,NA,NA,NA,NA,NA,NA,NA,NA,NA
a2475,Shallow Question,html.Page,2_2_0_0,NA,NA,form submission,321.79400000149,22843.5,22838.14,22854.806,23176.600000001,23177.100000001,2023-09-04T05:46:58Z,23188.126,Wechsel,ugeuzaji,s,utambulisho,kujenga,wasiwasi,utambulisho,NA,NA,"c(""distractor1"", ""distractor2"", ""distractor3"")",NA,NA,NA,NA,NA,NA,NA,NA,NA,NA,NA,NA,NA,NA,NA,NA,NA,NA,NA
a2475,Save data screen,canvas.Screen,2_2_0_1,NA,NA,timeout,499.98,23177.899999999,23171.46,23188.126,23671.44,23676.199999999,2023-09-04T05:46:58Z,23688.106,Wechsel,ugeuzaji,s,utambulisho,kujenga,wasiwasi,NA,NA,0,"c(""distractor1"", ""distractor2"", ""distractor3"")",NA,NA,NA,NA,NA,NA,NA,NA,NA,NA,NA,NA,NA,NA,NA,NA,NA,NA,NA
a2475,shallow,flow.Sequence,2_2_0,NA,NA,completion,816.634,22843.5,22838.14,22854.806,23671.44,23676.699999999,2023-09-04T05:46:58Z,23688.106,Wechsel,ugeuzaji,s,utambulisho,kujenga,wasiwasi,NA,NA,NA,"c(""distractor1"", ""distractor2"", ""distractor3"")",NA,NA,NA,NA,NA,NA,NA,NA,NA,NA,NA,NA,NA,NA,NA,NA,NA,NA,NA
a2475,task,flow.Sequence,2_2,NA,NA,completion,816.634,22843.399999999,22838.14,22854.806,23671.44,23676.899999999,2023-09-04T05:46:58Z,23688.106,Wechsel,ugeuzaji,s,utambulisho,kujenga,wasiwasi,NA,NA,NA,"c(""distractor1"", ""distractor2"", ""distractor3"")",NA,NA,NA,NA,NA,NA,NA,NA,NA,NA,NA,NA,NA,NA,NA,NA,NA,NA,NA
a2475,Shallow Question,html.Page,2_3_0_0,NA,NA,form submission,324.09399999926,23677.100000001,23671.44,23688.106,24012.199999999,24012.800000001,2023-09-04T05:46:59Z,24021.426,Stimmung,kinyongo,d,kilekile,kisambo,madhehebu,kisambo,NA,NA,"c(""distractor1"", ""distractor2"", ""distractor3"")",NA,NA,NA,NA,NA,NA,NA,NA,NA,NA,NA,NA,NA,NA,NA,NA,NA,NA,NA
a2475,Save data screen,canvas.Screen,2_3_0_1,NA,NA,timeout,499.98,24013.800000001,24004.76,24021.426,24504.74,24509.399999999,2023-09-04T05:46:59Z,24521.406,Stimmung,kinyongo,d,kilekile,kisambo,madhehebu,NA,NA,0,"c(""distractor1"", ""distractor2"", ""distractor3"")",NA,NA,NA,NA,NA,NA,NA,NA,NA,NA,NA,NA,NA,NA,NA,NA,NA,NA,NA
a2475,shallow,flow.Sequence,2_3_0,NA,NA,completion,816.634,23677.100000001,23671.44,23688.106,24504.74,24509.800000001,2023-09-04T05:46:59Z,24521.406,Stimmung,kinyongo,d,kilekile,kisambo,madhehebu,NA,NA,NA,"c(""distractor1"", ""distractor2"", ""distractor3"")",NA,NA,NA,NA,NA,NA,NA,NA,NA,NA,NA,NA,NA,NA,NA,NA,NA,NA,NA
a2475,task,flow.Sequence,2_3,NA,NA,completion,816.634,23677,23671.44,23688.106,24504.74,24510,2023-09-04T05:46:59Z,24521.406,Stimmung,kinyongo,d,kilekile,kisambo,madhehebu,NA,NA,NA,"c(""distractor1"", ""distractor2"", ""distractor3"")",NA,NA,NA,NA,NA,NA,NA,NA,NA,NA,NA,NA,NA,NA,NA,NA,NA,NA,NA
a2475,Shallow Question,html.Page,2_4_0_0,NA,NA,form submission,665.39400000075,24510.199999999,24504.74,24521.406,25186.800000001,25187.300000001,2023-09-04T05:47:00Z,25188.046,Genehmigung,idhini,d,mwanamke,itikadi,fedheha,fedheha,NA,NA,"c(""distractor1"", ""distractor2"", ""distractor3"")",NA,NA,NA,NA,NA,NA,NA,NA,NA,NA,NA,NA,NA,NA,NA,NA,NA,NA,NA
a2475,Save data screen,canvas.Screen,2_4_0_1,NA,NA,timeout,499.98,25188.300000001,25171.38,25188.046,25671.36,25674.600000001,2023-09-04T05:47:00Z,25688.026,Genehmigung,idhini,d,mwanamke,itikadi,fedheha,NA,NA,0,"c(""distractor1"", ""distractor2"", ""distractor3"")",NA,NA,NA,NA,NA,NA,NA,NA,NA,NA,NA,NA,NA,NA,NA,NA,NA,NA,NA
a2475,shallow,flow.Sequence,2_4_0,NA,NA,completion,1149.954,24510.199999999,24504.74,24521.406,25671.36,25674.899999999,2023-09-04T05:47:00Z,25688.026,Genehmigung,idhini,d,mwanamke,itikadi,fedheha,NA,NA,NA,"c(""distractor1"", ""distractor2"", ""distractor3"")",NA,NA,NA,NA,NA,NA,NA,NA,NA,NA,NA,NA,NA,NA,NA,NA,NA,NA,NA
a2475,task,flow.Sequence,2_4,NA,NA,completion,1149.954,24510.199999999,24504.74,24521.406,25671.36,25675.199999999,2023-09-04T05:47:00Z,25688.026,Genehmigung,idhini,d,mwanamke,itikadi,fedheha,NA,NA,NA,"c(""distractor1"", ""distractor2"", ""distractor3"")",NA,NA,NA,NA,NA,NA,NA,NA,NA,NA,NA,NA,NA,NA,NA,NA,NA,NA,NA
a2475,Shallow Question,html.Page,2_5_0_0,NA,NA,form submission,474.27400000074,25675.399999999,25671.36,25688.026,26162.300000001,26162.699999999,2023-09-04T05:47:01Z,26171.34,Fleisch,mshakiki,s,kizunguzungu,mshikamano,angusho,mshikamano,NA,NA,"c(""distractor1"", ""distractor2"", ""distractor3"")",NA,NA,NA,NA,NA,NA,NA,NA,NA,NA,NA,NA,NA,NA,NA,NA,NA,NA,NA
a2475,Save data screen,canvas.Screen,2_5_0_1,NA,NA,timeout,499.98,26163.699999999,26154.674,26171.34,26654.654,26659.600000001,2023-09-04T05:47:01Z,26671.32,Fleisch,mshakiki,s,kizunguzungu,mshikamano,angusho,NA,NA,0,"c(""distractor1"", ""distractor2"", ""distractor3"")",NA,NA,NA,NA,NA,NA,NA,NA,NA,NA,NA,NA,NA,NA,NA,NA,NA,NA,NA
a2475,shallow,flow.Sequence,2_5_0,NA,NA,completion,966.628,25675.399999999,25671.36,25688.026,26654.654,26660,2023-09-04T05:47:01Z,26671.32,Fleisch,mshakiki,s,kizunguzungu,mshikamano,angusho,NA,NA,NA,"c(""distractor1"", ""distractor2"", ""distractor3"")",NA,NA,NA,NA,NA,NA,NA,NA,NA,NA,NA,NA,NA,NA,NA,NA,NA,NA,NA
a2475,task,flow.Sequence,2_5,NA,NA,completion,966.628,25675.300000001,25671.36,25688.026,26654.654,26660.199999999,2023-09-04T05:47:01Z,26671.32,Fleisch,mshakiki,s,kizunguzungu,mshikamano,angusho,NA,NA,NA,"c(""distractor1"", ""distractor2"", ""distractor3"")",NA,NA,NA,NA,NA,NA,NA,NA,NA,NA,NA,NA,NA,NA,NA,NA,NA,NA,NA
a2475,Shallow Question,html.Page,2_6_0_0,NA,NA,form submission,391.57999999851,26660.5,26654.654,26671.32,27062.899999999,27063.5,2023-09-04T05:47:02Z,27071.304,Niveau,kiwango,s,usimamizi,mwamali,mshairi,mwamali,NA,NA,"c(""distractor1"", ""distractor2"", ""distractor3"")",NA,NA,NA,NA,NA,NA,NA,NA,NA,NA,NA,NA,NA,NA,NA,NA,NA,NA,NA
a2475,Save data screen,canvas.Screen,2_6_0_1,NA,NA,timeout,499.98,27064.5,27054.638,27071.304,27554.618,27557.100000001,2023-09-04T05:47:02Z,27571.284,Niveau,kiwango,s,usimamizi,mwamali,mshairi,NA,NA,0,"c(""distractor1"", ""distractor2"", ""distractor3"")",NA,NA,NA,NA,NA,NA,NA,NA,NA,NA,NA,NA,NA,NA,NA,NA,NA,NA,NA
a2475,shallow,flow.Sequence,2_6_0,NA,NA,completion,883.298,26660.399999999,26654.654,26671.32,27554.618,27557.5,2023-09-04T05:47:02Z,27571.284,Niveau,kiwango,s,usimamizi,mwamali,mshairi,NA,NA,NA,"c(""distractor1"", ""distractor2"", ""distractor3"")",NA,NA,NA,NA,NA,NA,NA,NA,NA,NA,NA,NA,NA,NA,NA,NA,NA,NA,NA
a2475,task,flow.Sequence,2_6,NA,NA,completion,883.298,26660.399999999,26654.654,26671.32,27554.618,27557.699999999,2023-09-04T05:47:02Z,27571.284,Niveau,kiwango,s,usimamizi,mwamali,mshairi,NA,NA,NA,"c(""distractor1"", ""distractor2"", ""distractor3"")",NA,NA,NA,NA,NA,NA,NA,NA,NA,NA,NA,NA,NA,NA,NA,NA,NA,NA,NA
a2475,Shallow Question,html.Page,2_7_0_0,NA,NA,form submission,320.716,27558.100000001,27554.618,27571.284,27892,27892.399999999,2023-09-04T05:47:02Z,27904.604,Begegnung,kukutana,d,mmasihiya,mpiganaji,husiano,kukutana,NA,NA,"c(""distractor1"", ""distractor2"", ""distractor3"")",NA,NA,NA,NA,NA,NA,NA,NA,NA,NA,NA,NA,NA,NA,NA,NA,NA,NA,NA
a2475,Save data screen,canvas.Screen,2_7_0_1,NA,NA,timeout,499.98,27893.300000001,27887.938,27904.604,28387.918,28393.199999999,2023-09-04T05:47:03Z,28404.584,Begegnung,kukutana,d,mmasihiya,mpiganaji,husiano,NA,NA,1,"c(""distractor1"", ""distractor2"", ""distractor3"")",NA,NA,NA,NA,NA,NA,NA,NA,NA,NA,NA,NA,NA,NA,NA,NA,NA,NA,NA
a2475,shallow,flow.Sequence,2_7_0,NA,NA,completion,816.634,27558.100000001,27554.618,27571.284,28387.918,28393.600000001,2023-09-04T05:47:03Z,28404.584,Begegnung,kukutana,d,mmasihiya,mpiganaji,husiano,NA,NA,NA,"c(""distractor1"", ""distractor2"", ""distractor3"")",NA,NA,NA,NA,NA,NA,NA,NA,NA,NA,NA,NA,NA,NA,NA,NA,NA,NA,NA
a2475,task,flow.Sequence,2_7,NA,NA,completion,816.634,27558,27554.618,27571.284,28387.918,28393.800000001,2023-09-04T05:47:03Z,28404.584,Begegnung,kukutana,d,mmasihiya,mpiganaji,husiano,NA,NA,NA,"c(""distractor1"", ""distractor2"", ""distractor3"")",NA,NA,NA,NA,NA,NA,NA,NA,NA,NA,NA,NA,NA,NA,NA,NA,NA,NA,NA
a2475,Shallow Question,html.Page,2_8_0_0,NA,NA,form submission,328.61599999926,28394.100000001,28387.918,28404.584,28733.199999999,28733.800000001,2023-09-04T05:47:03Z,28738.391,Flexibilität,kubadilika,d,enjini,usikilivu,hesabu,hesabu,NA,NA,"c(""distractor1"", ""distractor2"", ""distractor3"")",NA,NA,NA,NA,NA,NA,NA,NA,NA,NA,NA,NA,NA,NA,NA,NA,NA,NA,NA
a2475,Save data screen,canvas.Screen,2_8_0_1,NA,NA,timeout,499.98,28734.800000001,28721.725,28738.391,29221.705,29226.199999999,2023-09-04T05:47:04Z,29238.371,Flexibilität,kubadilika,d,enjini,usikilivu,hesabu,NA,NA,0,"c(""distractor1"", ""distractor2"", ""distractor3"")",NA,NA,NA,NA,NA,NA,NA,NA,NA,NA,NA,NA,NA,NA,NA,NA,NA,NA,NA
a2475,shallow,flow.Sequence,2_8_0,NA,NA,completion,817.121,28394,28387.918,28404.584,29221.705,29226.5,2023-09-04T05:47:04Z,29238.371,Flexibilität,kubadilika,d,enjini,usikilivu,hesabu,NA,NA,NA,"c(""distractor1"", ""distractor2"", ""distractor3"")",NA,NA,NA,NA,NA,NA,NA,NA,NA,NA,NA,NA,NA,NA,NA,NA,NA,NA,NA
a2475,task,flow.Sequence,2_8,NA,NA,completion,817.121,28393.899999999,28387.918,28404.584,29221.705,29226.699999999,2023-09-04T05:47:04Z,29238.371,Flexibilität,kubadilika,d,enjini,usikilivu,hesabu,NA,NA,NA,"c(""distractor1"", ""distractor2"", ""distractor3"")",NA,NA,NA,NA,NA,NA,NA,NA,NA,NA,NA,NA,NA,NA,NA,NA,NA,NA,NA
a2475,Shallow Question,html.Page,2_9_0_0,NA,NA,form submission,294.02899999851,29226.899999999,29221.705,29238.371,29532.399999999,29532.800000001,2023-09-04T05:47:04Z,29555.025,Papier,karatasi,s,uchambuzi,usalama,kukataliwa,karatasi,NA,NA,"c(""distractor1"", ""distractor2"", ""distractor3"")",NA,NA,NA,NA,NA,NA,NA,NA,NA,NA,NA,NA,NA,NA,NA,NA,NA,NA,NA
a2475,Save data screen,canvas.Screen,2_9_0_1,NA,NA,timeout,499.98,29533.699999999,29538.359,29555.025,30038.339,30042.899999999,2023-09-04T05:47:05Z,30055.005,Papier,karatasi,s,uchambuzi,usalama,kukataliwa,NA,NA,1,"c(""distractor1"", ""distractor2"", ""distractor3"")",NA,NA,NA,NA,NA,NA,NA,NA,NA,NA,NA,NA,NA,NA,NA,NA,NA,NA,NA
a2475,shallow,flow.Sequence,2_9_0,NA,NA,completion,799.968,29226.899999999,29221.705,29238.371,30038.339,30043.399999999,2023-09-04T05:47:05Z,30055.005,Papier,karatasi,s,uchambuzi,usalama,kukataliwa,NA,NA,NA,"c(""distractor1"", ""distractor2"", ""distractor3"")",NA,NA,NA,NA,NA,NA,NA,NA,NA,NA,NA,NA,NA,NA,NA,NA,NA,NA,NA
a2475,task,flow.Sequence,2_9,NA,NA,completion,799.968,29226.800000001,29221.705,29238.371,30038.339,30043.600000001,2023-09-04T05:47:05Z,30055.005,Papier,karatasi,s,uchambuzi,usalama,kukataliwa,NA,NA,NA,"c(""distractor1"", ""distractor2"", ""distractor3"")",NA,NA,NA,NA,NA,NA,NA,NA,NA,NA,NA,NA,NA,NA,NA,NA,NA,NA,NA
a2475,Shallow Question,html.Page,2_10_0_0,NA,NA,form submission,433.995,30043.899999999,30038.339,30055.005,30489,30489.300000001,2023-09-04T05:47:05Z,30488.321,Atmosphäre,angahewa,d,kuteseka,usahihi,kutoamini,angahewa,NA,NA,"c(""distractor1"", ""distractor2"", ""distractor3"")",NA,NA,NA,NA,NA,NA,NA,NA,NA,NA,NA,NA,NA,NA,NA,NA,NA,NA,NA
a2475,Save data screen,canvas.Screen,2_10_0_1,NA,NA,timeout,499.98,30490.300000001,30471.655,30488.321,30971.635,30975.399999999,2023-09-04T05:47:06Z,30988.301,Atmosphäre,angahewa,d,kuteseka,usahihi,kutoamini,NA,NA,1,"c(""distractor1"", ""distractor2"", ""distractor3"")",NA,NA,NA,NA,NA,NA,NA,NA,NA,NA,NA,NA,NA,NA,NA,NA,NA,NA,NA
a2475,shallow,flow.Sequence,2_10_0,NA,NA,completion,916.63,30043.800000001,30038.339,30055.005,30971.635,30975.800000001,2023-09-04T05:47:06Z,30988.301,Atmosphäre,angahewa,d,kuteseka,usahihi,kutoamini,NA,NA,NA,"c(""distractor1"", ""distractor2"", ""distractor3"")",NA,NA,NA,NA,NA,NA,NA,NA,NA,NA,NA,NA,NA,NA,NA,NA,NA,NA,NA
a2475,task,flow.Sequence,2_10,NA,NA,completion,916.63,30043.800000001,30038.339,30055.005,30971.635,30976,2023-09-04T05:47:06Z,30988.301,Atmosphäre,angahewa,d,kuteseka,usahihi,kutoamini,NA,NA,NA,"c(""distractor1"", ""distractor2"", ""distractor3"")",NA,NA,NA,NA,NA,NA,NA,NA,NA,NA,NA,NA,NA,NA,NA,NA,NA,NA,NA
a2475,Shallow Question,html.Page,2_11_0_0,NA,NA,form submission,307.79900000149,30976.199999999,30971.635,30988.301,31296.100000001,31296.5,2023-09-04T05:47:06Z,31304.955,Orientierung,urekebisho,s,uelekeo,marekebisho,utunzaji,uelekeo,NA,NA,"c(""distractor1"", ""distractor2"", ""distractor3"")",NA,NA,NA,NA,NA,NA,NA,NA,NA,NA,NA,NA,NA,NA,NA,NA,NA,NA,NA
a2475,Save data screen,canvas.Screen,2_11_0_1,NA,NA,timeout,499.98,31297.399999999,31288.289,31304.955,31788.269,31792.600000001,2023-09-04T05:47:06Z,31804.935,Orientierung,urekebisho,s,uelekeo,marekebisho,utunzaji,NA,NA,0,"c(""distractor1"", ""distractor2"", ""distractor3"")",NA,NA,NA,NA,NA,NA,NA,NA,NA,NA,NA,NA,NA,NA,NA,NA,NA,NA,NA
a2475,shallow,flow.Sequence,2_11_0,NA,NA,completion,799.968,30976.100000001,30971.635,30988.301,31788.269,31793.100000001,2023-09-04T05:47:06Z,31804.935,Orientierung,urekebisho,s,uelekeo,marekebisho,utunzaji,NA,NA,NA,"c(""distractor1"", ""distractor2"", ""distractor3"")",NA,NA,NA,NA,NA,NA,NA,NA,NA,NA,NA,NA,NA,NA,NA,NA,NA,NA,NA
a2475,task,flow.Sequence,2_11,NA,NA,completion,799.968,30976.100000001,30971.635,30988.301,31788.269,31793.199999999,2023-09-04T05:47:06Z,31804.935,Orientierung,urekebisho,s,uelekeo,marekebisho,utunzaji,NA,NA,NA,"c(""distractor1"", ""distractor2"", ""distractor3"")",NA,NA,NA,NA,NA,NA,NA,NA,NA,NA,NA,NA,NA,NA,NA,NA,NA,NA,NA
a2475,Shallow Question,html.Page,2_12_0_0,NA,NA,form submission,281.46499999851,31793.5,31788.269,31804.935,32086.399999999,32086.899999999,2023-09-04T05:47:07Z,32088.257,Betrüger,mdanganyifu,d,mwanamuziki,wastani,mahakama,mwanamuziki,NA,NA,"c(""distractor1"", ""distractor2"", ""distractor3"")",NA,NA,NA,NA,NA,NA,NA,NA,NA,NA,NA,NA,NA,NA,NA,NA,NA,NA,NA
a2475,Save data screen,canvas.Screen,2_12_0_1,NA,NA,timeout,499.98,32088,32071.591,32088.257,32571.571,32576.600000001,2023-09-04T05:47:07Z,32588.237,Betrüger,mdanganyifu,d,mwanamuziki,wastani,mahakama,NA,NA,0,"c(""distractor1"", ""distractor2"", ""distractor3"")",NA,NA,NA,NA,NA,NA,NA,NA,NA,NA,NA,NA,NA,NA,NA,NA,NA,NA,NA
a2475,shallow,flow.Sequence,2_12_0,NA,NA,completion,766.636,31793.399999999,31788.269,31804.935,32571.571,32577,2023-09-04T05:47:07Z,32588.237,Betrüger,mdanganyifu,d,mwanamuziki,wastani,mahakama,NA,NA,NA,"c(""distractor1"", ""distractor2"", ""distractor3"")",NA,NA,NA,NA,NA,NA,NA,NA,NA,NA,NA,NA,NA,NA,NA,NA,NA,NA,NA
a2475,task,flow.Sequence,2_12,NA,NA,completion,766.636,31793.399999999,31788.269,31804.935,32571.571,32577.199999999,2023-09-04T05:47:07Z,32588.237,Betrüger,mdanganyifu,d,mwanamuziki,wastani,mahakama,NA,NA,NA,"c(""distractor1"", ""distractor2"", ""distractor3"")",NA,NA,NA,NA,NA,NA,NA,NA,NA,NA,NA,NA,NA,NA,NA,NA,NA,NA,NA
a2475,Shallow Question,html.Page,2_13_0_0,NA,NA,form submission,395.16299999851,32577.399999999,32571.571,32588.237,32983.399999999,32983.699999999,2023-09-04T05:47:08Z,32988.221,Entwicklung,maendeleo,d,uangavu,mshindwa,badiliko,mshindwa,NA,NA,"c(""distractor1"", ""distractor2"", ""distractor3"")",NA,NA,NA,NA,NA,NA,NA,NA,NA,NA,NA,NA,NA,NA,NA,NA,NA,NA,NA
a2475,Save data screen,canvas.Screen,2_13_0_1,NA,NA,timeout,499.98,32984.5,32971.555,32988.221,33471.535,33476.699999999,2023-09-04T05:47:08Z,33488.201,Entwicklung,maendeleo,d,uangavu,mshindwa,badiliko,NA,NA,0,"c(""distractor1"", ""distractor2"", ""distractor3"")",NA,NA,NA,NA,NA,NA,NA,NA,NA,NA,NA,NA,NA,NA,NA,NA,NA,NA,NA
a2475,shallow,flow.Sequence,2_13_0,NA,NA,completion,883.298,32577.300000001,32571.571,32588.237,33471.535,33477.199999999,2023-09-04T05:47:08Z,33488.201,Entwicklung,maendeleo,d,uangavu,mshindwa,badiliko,NA,NA,NA,"c(""distractor1"", ""distractor2"", ""distractor3"")",NA,NA,NA,NA,NA,NA,NA,NA,NA,NA,NA,NA,NA,NA,NA,NA,NA,NA,NA
a2475,task,flow.Sequence,2_13,NA,NA,completion,883.298,32577.300000001,32571.571,32588.237,33471.535,33477.399999999,2023-09-04T05:47:08Z,33488.201,Entwicklung,maendeleo,d,uangavu,mshindwa,badiliko,NA,NA,NA,"c(""distractor1"", ""distractor2"", ""distractor3"")",NA,NA,NA,NA,NA,NA,NA,NA,NA,NA,NA,NA,NA,NA,NA,NA,NA,NA,NA
a2475,Shallow Question,html.Page,2_14_0_0,NA,NA,form submission,874.09900000074,33477.600000001,33471.535,33488.201,34362.300000001,34362.800000001,2023-09-04T05:47:09Z,34371.499,Respekt,heshima,s,changamnao,upinzani,ufanisi,ufanisi,NA,NA,"c(""distractor1"", ""distractor2"", ""distractor3"")",NA,NA,NA,NA,NA,NA,NA,NA,NA,NA,NA,NA,NA,NA,NA,NA,NA,NA,NA
a2475,Save data screen,canvas.Screen,2_14_0_1,NA,NA,timeout,499.98,34363.800000001,34354.833,34371.499,34854.813,34860.199999999,2023-09-04T05:47:09Z,34871.479,Respekt,heshima,s,changamnao,upinzani,ufanisi,NA,NA,0,"c(""distractor1"", ""distractor2"", ""distractor3"")",NA,NA,NA,NA,NA,NA,NA,NA,NA,NA,NA,NA,NA,NA,NA,NA,NA,NA,NA
a2475,shallow,flow.Sequence,2_14_0,NA,NA,completion,1366.612,33477.600000001,33471.535,33488.201,34854.813,34860.600000001,2023-09-04T05:47:09Z,34871.479,Respekt,heshima,s,changamnao,upinzani,ufanisi,NA,NA,NA,"c(""distractor1"", ""distractor2"", ""distractor3"")",NA,NA,NA,NA,NA,NA,NA,NA,NA,NA,NA,NA,NA,NA,NA,NA,NA,NA,NA
a2475,task,flow.Sequence,2_14,NA,NA,completion,1366.612,33477.5,33471.535,33488.201,34854.813,34860.699999999,2023-09-04T05:47:09Z,34871.479,Respekt,heshima,s,changamnao,upinzani,ufanisi,NA,NA,NA,"c(""distractor1"", ""distractor2"", ""distractor3"")",NA,NA,NA,NA,NA,NA,NA,NA,NA,NA,NA,NA,NA,NA,NA,NA,NA,NA,NA
a2475,Shallow Question,html.Page,2_15_0_0,NA,NA,form submission,306.72099999926,34861,34854.813,34871.479,35178.199999999,35178.600000001,2023-09-04T05:47:10Z,35188.133,Vorwurf,mashtaka,d,msukumo,mtangulizi,uenyekiti,uenyekiti,NA,NA,"c(""distractor1"", ""distractor2"", ""distractor3"")",NA,NA,NA,NA,NA,NA,NA,NA,NA,NA,NA,NA,NA,NA,NA,NA,NA,NA,NA
a2475,Save data screen,canvas.Screen,2_15_0_1,NA,NA,timeout,499.98,35179.5,35171.467,35188.133,35671.447,35675.199999999,2023-09-04T05:47:10Z,35688.113,Vorwurf,mashtaka,d,msukumo,mtangulizi,uenyekiti,NA,NA,0,"c(""distractor1"", ""distractor2"", ""distractor3"")",NA,NA,NA,NA,NA,NA,NA,NA,NA,NA,NA,NA,NA,NA,NA,NA,NA,NA,NA
a2475,shallow,flow.Sequence,2_15_0,NA,NA,completion,799.968,34861,34854.813,34871.479,35671.447,35675.5,2023-09-04T05:47:10Z,35688.113,Vorwurf,mashtaka,d,msukumo,mtangulizi,uenyekiti,NA,NA,NA,"c(""distractor1"", ""distractor2"", ""distractor3"")",NA,NA,NA,NA,NA,NA,NA,NA,NA,NA,NA,NA,NA,NA,NA,NA,NA,NA,NA
a2475,task,flow.Sequence,2_15,NA,NA,completion,799.968,34860.899999999,34854.813,34871.479,35671.447,35675.800000001,2023-09-04T05:47:10Z,35688.113,Vorwurf,mashtaka,d,msukumo,mtangulizi,uenyekiti,NA,NA,NA,"c(""distractor1"", ""distractor2"", ""distractor3"")",NA,NA,NA,NA,NA,NA,NA,NA,NA,NA,NA,NA,NA,NA,NA,NA,NA,NA,NA
a2475,retrieval block 2 (multiple choice),flow.Loop,2,NA,NA,completion,17116.469,18543.699999999,18538.312,18554.978,35671.447,35676,2023-09-04T05:47:10Z,35688.113,NA,NA,NA,NA,NA,NA,NA,NA,NA,"c(""distractor1"", ""distractor2"", ""distractor3"")",NA,NA,NA,NA,NA,NA,NA,NA,NA,NA,NA,NA,NA,NA,NA,NA,NA,NA,NA
a2475,End,canvas.Screen,3,NA,keypress(Space),response,1162.387,35676.100000001,35671.447,35688.113,36850.5,36853.899999999,2023-09-04T05:47:11Z,36854.733,NA,NA,NA,NA,NA,NA,NA,NA,NA,NULL,NA,NA,NA,NA,NA,NA,NA,NA,NA,NA,NA,NA,NA,NA,NA,NA,NA,NA,NA
a2475,root,flow.Sequence,NA,NA,NA,completion,36729.102,125.19999999925,88.066,121.398,36850.5,36854.399999999,2023-09-04T05:47:11Z,36854.733,NA,NA,NA,NA,NA,NA,NA,NA,NA,NULL,NA,NA,NA,NA,NA,NA,NA,NA,NA,NA,NA,NA,NA,NA,NA,NA,NA,NA,NA
