observation,sender,sender_type,sender_id,response,response_action,ended_on,duration,time_run,time_render,time_show,time_end,time_commit,timestamp,time_switch,distractors,german,swahili,enc,distractor1,distractor2,distractor3,response_2,x,correct,x_2,url_vp,url_sess,meta_labjs_version,meta_location,meta_user_agent,meta_platform,meta_language,meta_locale,meta_time_zone,meta_timezone_offset,meta_screen_width,meta_screen_height,meta_scroll_width,meta_scroll_height,meta_window_inner_width,meta_window_inner_height,meta_device_pixel_ratio,meta_labjs_build_flavor,meta_labjs_build_commit
a3a71,Introduction general,canvas.Screen,0,weiter,keypress(q),response,867.291,121.40000000224,106.543,123.209,990.5,993.60000000149,2023-02-28T13:49:16Z,1006.507,NULL,NA,NA,NA,NA,NA,NA,NA,NA,NA,NA,115,1,20.2.4,https://neurocog.fernuni.ch/studies/vweber/encoding_immediate/index.html?vp=115&sess=1,"Mozilla/5.0 (Macintosh; Intel Mac OS X 10_15_7) AppleWebKit/537.36 (KHTML, like Gecko) Chrome/110.0.0.0 Safari/537.36",MacIntel,de-DE,de,Europe/Zurich,-60,1440,900,1426,692,1426,740,2,production,f5b4a49f956347addd546a832a3327688c2c0fef
a3a71,Introduction practice,canvas.Screen,1_0,NA,keypress(Space),response,994.59300000149,994,989.841,1006.507,2001.1000000015,2004.4000000022,2023-02-28T13:49:17Z,2006.467,NULL,NA,NA,NA,NA,NA,NA,NA,NA,NA,NA,NA,NA,NA,NA,NA,NA,NA,NA,NA,NA,NA,NA,NA,NA,NA,NA,NA,NA,NA
a3a71,Deep Question,html.Page,1_1_0_0_0,NA,NA,form submission,1128.033,2004.8000000007,1989.801,2006.467,3134.5,3134.700000003,2023-02-28T13:49:18Z,3139.755,"c(""distractor1"", ""distractor2"", ""distractor3"")",Gesundheit,salama,d,NA,NA,NA,sdf,NA,NA,NA,NA,NA,NA,NA,NA,NA,NA,NA,NA,NA,NA,NA,NA,NA,NA,NA,NA,NA,NA
a3a71,"""Richtig""-Screen",canvas.Screen,1_1_0_0_1,NA,NA,skipped,NA,3135.5,NA,NA,3134.5,3135.6000000015,2023-02-28T13:49:18Z,3139.755,"c(""distractor1"", ""distractor2"", ""distractor3"")",Gesundheit,salama,d,NA,NA,NA,NA,NA,NA,NA,NA,NA,NA,NA,NA,NA,NA,NA,NA,NA,NA,NA,NA,NA,NA,NA,NA,NA,NA
a3a71,"""Falsch""-Screen",canvas.Screen,1_1_0_0_2,NA,NA,timeout,4999.8,3136,3123.089,3139.755,8122.889,8124.3000000007,2023-02-28T13:49:23Z,8139.555,"c(""distractor1"", ""distractor2"", ""distractor3"")",Gesundheit,salama,d,NA,NA,NA,NA,NA,0,NA,NA,NA,NA,NA,NA,NA,NA,NA,NA,NA,NA,NA,NA,NA,NA,NA,NA,NA,NA
a3a71,deep,flow.Sequence,1_1_0_0,NA,NA,completion,6116.422,2004.8000000007,1989.801,2006.467,8122.889,8124.700000003,2023-02-28T13:49:23Z,8139.555,"c(""distractor1"", ""distractor2"", ""distractor3"")",Gesundheit,salama,d,NA,NA,NA,NA,NA,NA,NA,NA,NA,NA,NA,NA,NA,NA,NA,NA,NA,NA,NA,NA,NA,NA,NA,NA,NA,NA
a3a71,shallow,flow.Sequence,1_1_0_1,NA,NA,skipped,NA,8124.8000000007,NA,NA,8122.889,8124.9000000022,2023-02-28T13:49:23Z,8139.555,"c(""distractor1"", ""distractor2"", ""distractor3"")",Gesundheit,salama,d,NA,NA,NA,NA,NA,NA,NA,NA,NA,NA,NA,NA,NA,NA,NA,NA,NA,NA,NA,NA,NA,NA,NA,NA,NA,NA
a3a71,task,flow.Sequence,1_1_0,NA,NA,completion,6116.422,2004.700000003,1989.801,2006.467,8122.889,8125.1000000015,2023-02-28T13:49:23Z,8139.555,"c(""distractor1"", ""distractor2"", ""distractor3"")",Gesundheit,salama,d,NA,NA,NA,NA,NA,NA,NA,NA,NA,NA,NA,NA,NA,NA,NA,NA,NA,NA,NA,NA,NA,NA,NA,NA,NA,NA
a3a71,deep,flow.Sequence,1_1_1_0,NA,NA,skipped,NA,8125.3000000007,NA,NA,8122.889,8125.4000000022,2023-02-28T13:49:23Z,8139.555,"c(""distractor1"", ""distractor2"", ""distractor3"")",Rückhalt,msaada,s,muhula,auwali,kiwimbe,NA,NA,NA,NA,NA,NA,NA,NA,NA,NA,NA,NA,NA,NA,NA,NA,NA,NA,NA,NA,NA,NA,NA
a3a71,Shallow Question,html.Page,1_1_1_1_0,NA,NA,form submission,2173.2450000007,8125.6000000015,8122.889,8139.555,10312.800000001,10313.300000001,2023-02-28T13:49:25Z,10322.801,"c(""distractor1"", ""distractor2"", ""distractor3"")",Rückhalt,msaada,s,muhula,auwali,kiwimbe,kiwimbe,NA,NA,NA,NA,NA,NA,NA,NA,NA,NA,NA,NA,NA,NA,NA,NA,NA,NA,NA,NA,NA,NA
a3a71,"""Richtig""-Screen",canvas.Screen,1_1_1_1_1,NA,NA,skipped,NA,10316,NA,NA,10312.800000001,10316.100000001,2023-02-28T13:49:25Z,10322.801,"c(""distractor1"", ""distractor2"", ""distractor3"")",Rückhalt,msaada,s,muhula,auwali,kiwimbe,NA,NA,NA,NA,NA,NA,NA,NA,NA,NA,NA,NA,NA,NA,NA,NA,NA,NA,NA,NA,NA,NA,NA
a3a71,"""Falsch""-Screen",canvas.Screen,1_1_1_1_2,NA,NA,timeout,5000.336,10316.900000002,10306.135,10322.801,15306.471,15308.700000003,2023-02-28T13:49:30Z,15323.137,"c(""distractor1"", ""distractor2"", ""distractor3"")",Rückhalt,msaada,s,muhula,auwali,kiwimbe,NA,NA,0,NA,NA,NA,NA,NA,NA,NA,NA,NA,NA,NA,NA,NA,NA,NA,NA,NA,NA,NA,NA
a3a71,shallow,flow.Sequence,1_1_1_1,NA,NA,completion,7166.916,8125.5,8122.889,8139.555,15306.471,15309.100000001,2023-02-28T13:49:30Z,15323.137,"c(""distractor1"", ""distractor2"", ""distractor3"")",Rückhalt,msaada,s,muhula,auwali,kiwimbe,NA,NA,NA,NA,NA,NA,NA,NA,NA,NA,NA,NA,NA,NA,NA,NA,NA,NA,NA,NA,NA,NA,NA
a3a71,task,flow.Sequence,1_1_1,NA,NA,completion,7166.916,8125.200000003,8122.889,8139.555,15306.471,15309.300000001,2023-02-28T13:49:30Z,15323.137,"c(""distractor1"", ""distractor2"", ""distractor3"")",Rückhalt,msaada,s,muhula,auwali,kiwimbe,NA,NA,NA,NA,NA,NA,NA,NA,NA,NA,NA,NA,NA,NA,NA,NA,NA,NA,NA,NA,NA,NA,NA
a3a71,deep,flow.Sequence,1_1_2_0,NA,NA,skipped,NA,15309.600000001,NA,NA,15306.471,15309.800000001,2023-02-28T13:49:30Z,15323.137,"c(""distractor1"", ""distractor2"", ""distractor3"")",Gegenwart,hadhara,s,katiba,jokofu,mikopo,NA,NA,NA,NA,NA,NA,NA,NA,NA,NA,NA,NA,NA,NA,NA,NA,NA,NA,NA,NA,NA,NA,NA
a3a71,Shallow Question,html.Page,1_1_2_1_0,NA,NA,form submission,1700.2630000022,15309.900000002,15306.471,15323.137,17023.400000002,17023.900000002,2023-02-28T13:49:32Z,17023.069,"c(""distractor1"", ""distractor2"", ""distractor3"")",Gegenwart,hadhara,s,katiba,jokofu,mikopo,jokofu,NA,NA,NA,NA,NA,NA,NA,NA,NA,NA,NA,NA,NA,NA,NA,NA,NA,NA,NA,NA,NA,NA
a3a71,"""Richtig""-Screen",canvas.Screen,1_1_2_1_1,NA,NA,skipped,NA,17026.800000001,NA,NA,17023.400000002,17027,2023-02-28T13:49:32Z,17023.069,"c(""distractor1"", ""distractor2"", ""distractor3"")",Gegenwart,hadhara,s,katiba,jokofu,mikopo,NA,NA,NA,NA,NA,NA,NA,NA,NA,NA,NA,NA,NA,NA,NA,NA,NA,NA,NA,NA,NA,NA,NA
a3a71,"""Falsch""-Screen",canvas.Screen,1_1_2_1_2,NA,NA,timeout,4999.8,17027.700000003,17006.403,17023.069,22006.203,22009,2023-02-28T13:49:37Z,22022.869,"c(""distractor1"", ""distractor2"", ""distractor3"")",Gegenwart,hadhara,s,katiba,jokofu,mikopo,NA,NA,0,NA,NA,NA,NA,NA,NA,NA,NA,NA,NA,NA,NA,NA,NA,NA,NA,NA,NA,NA,NA
a3a71,shallow,flow.Sequence,1_1_2_1,NA,NA,completion,6683.066,15309.800000001,15306.471,15323.137,22006.203,22009.400000002,2023-02-28T13:49:37Z,22022.869,"c(""distractor1"", ""distractor2"", ""distractor3"")",Gegenwart,hadhara,s,katiba,jokofu,mikopo,NA,NA,NA,NA,NA,NA,NA,NA,NA,NA,NA,NA,NA,NA,NA,NA,NA,NA,NA,NA,NA,NA,NA
a3a71,task,flow.Sequence,1_1_2,NA,NA,completion,6683.066,15309.5,15306.471,15323.137,22006.203,22009.5,2023-02-28T13:49:37Z,22022.869,"c(""distractor1"", ""distractor2"", ""distractor3"")",Gegenwart,hadhara,s,katiba,jokofu,mikopo,NA,NA,NA,NA,NA,NA,NA,NA,NA,NA,NA,NA,NA,NA,NA,NA,NA,NA,NA,NA,NA,NA,NA
a3a71,deep,flow.Sequence,1_1_3_0,NA,NA,skipped,NA,22009.800000001,NA,NA,22006.203,22009.900000002,2023-02-28T13:49:37Z,22022.869,"c(""distractor1"", ""distractor2"", ""distractor3"")",Kritik,lawama,s,dereva,nafasi,mawazo,NA,NA,NA,NA,NA,NA,NA,NA,NA,NA,NA,NA,NA,NA,NA,NA,NA,NA,NA,NA,NA,NA,NA
a3a71,Shallow Question,html.Page,1_1_3_1_0,NA,NA,form submission,1425.5310000022,22010,22006.203,22022.869,23448.400000002,23448.900000002,2023-02-28T13:49:38Z,23456.743,"c(""distractor1"", ""distractor2"", ""distractor3"")",Kritik,lawama,s,dereva,nafasi,mawazo,mawazo,NA,NA,NA,NA,NA,NA,NA,NA,NA,NA,NA,NA,NA,NA,NA,NA,NA,NA,NA,NA,NA,NA
a3a71,"""Richtig""-Screen",canvas.Screen,1_1_3_1_1,NA,NA,skipped,NA,23451.400000002,NA,NA,23448.400000002,23451.5,2023-02-28T13:49:38Z,23456.743,"c(""distractor1"", ""distractor2"", ""distractor3"")",Kritik,lawama,s,dereva,nafasi,mawazo,NA,NA,NA,NA,NA,NA,NA,NA,NA,NA,NA,NA,NA,NA,NA,NA,NA,NA,NA,NA,NA,NA,NA
a3a71,"""Falsch""-Screen",canvas.Screen,1_1_3_1_2,NA,NA,timeout,4999.8,23452,23440.077,23456.743,28439.877,28441.900000002,2023-02-28T13:49:43Z,28456.543,"c(""distractor1"", ""distractor2"", ""distractor3"")",Kritik,lawama,s,dereva,nafasi,mawazo,NA,NA,0,NA,NA,NA,NA,NA,NA,NA,NA,NA,NA,NA,NA,NA,NA,NA,NA,NA,NA,NA,NA
a3a71,shallow,flow.Sequence,1_1_3_1,NA,NA,completion,6417.008,22009.900000002,22006.203,22022.869,28439.877,28442.300000001,2023-02-28T13:49:43Z,28456.543,"c(""distractor1"", ""distractor2"", ""distractor3"")",Kritik,lawama,s,dereva,nafasi,mawazo,NA,NA,NA,NA,NA,NA,NA,NA,NA,NA,NA,NA,NA,NA,NA,NA,NA,NA,NA,NA,NA,NA,NA
a3a71,task,flow.Sequence,1_1_3,NA,NA,completion,6417.008,22009.700000003,22006.203,22022.869,28439.877,28442.600000001,2023-02-28T13:49:43Z,28456.543,"c(""distractor1"", ""distractor2"", ""distractor3"")",Kritik,lawama,s,dereva,nafasi,mawazo,NA,NA,NA,NA,NA,NA,NA,NA,NA,NA,NA,NA,NA,NA,NA,NA,NA,NA,NA,NA,NA,NA,NA
a3a71,Deep Question,html.Page,1_1_4_0_0,NA,NA,form submission,1185.7570000007,28442.800000001,28439.877,28456.543,29642.300000001,29642.400000002,2023-02-28T13:49:44Z,29656.495,"c(""distractor1"", ""distractor2"", ""distractor3"")",Qualität,mtindo,d,NA,NA,NA,sadf,NA,NA,NA,NA,NA,NA,NA,NA,NA,NA,NA,NA,NA,NA,NA,NA,NA,NA,NA,NA,NA,NA
a3a71,"""Richtig""-Screen",canvas.Screen,1_1_4_0_1,NA,NA,skipped,NA,29644.100000001,NA,NA,29642.300000001,29644.200000003,2023-02-28T13:49:44Z,29656.495,"c(""distractor1"", ""distractor2"", ""distractor3"")",Qualität,mtindo,d,NA,NA,NA,NA,NA,NA,NA,NA,NA,NA,NA,NA,NA,NA,NA,NA,NA,NA,NA,NA,NA,NA,NA,NA,NA,NA
a3a71,"""Falsch""-Screen",canvas.Screen,1_1_4_0_2,NA,NA,timeout,4999.8,29644.700000003,29639.829,29656.495,34639.629,34642,2023-02-28T13:49:49Z,34656.295,"c(""distractor1"", ""distractor2"", ""distractor3"")",Qualität,mtindo,d,NA,NA,NA,NA,NA,0,NA,NA,NA,NA,NA,NA,NA,NA,NA,NA,NA,NA,NA,NA,NA,NA,NA,NA,NA,NA
a3a71,deep,flow.Sequence,1_1_4_0,NA,NA,completion,6183.086,28442.800000001,28439.877,28456.543,34639.629,34642.400000002,2023-02-28T13:49:49Z,34656.295,"c(""distractor1"", ""distractor2"", ""distractor3"")",Qualität,mtindo,d,NA,NA,NA,NA,NA,NA,NA,NA,NA,NA,NA,NA,NA,NA,NA,NA,NA,NA,NA,NA,NA,NA,NA,NA,NA,NA
a3a71,shallow,flow.Sequence,1_1_4_1,NA,NA,skipped,NA,34642.600000001,NA,NA,34639.629,34642.800000001,2023-02-28T13:49:49Z,34656.295,"c(""distractor1"", ""distractor2"", ""distractor3"")",Qualität,mtindo,d,NA,NA,NA,NA,NA,NA,NA,NA,NA,NA,NA,NA,NA,NA,NA,NA,NA,NA,NA,NA,NA,NA,NA,NA,NA,NA
a3a71,task,flow.Sequence,1_1_4,NA,NA,completion,6183.086,28442.700000003,28439.877,28456.543,34639.629,34643,2023-02-28T13:49:49Z,34656.295,"c(""distractor1"", ""distractor2"", ""distractor3"")",Qualität,mtindo,d,NA,NA,NA,NA,NA,NA,NA,NA,NA,NA,NA,NA,NA,NA,NA,NA,NA,NA,NA,NA,NA,NA,NA,NA,NA,NA
a3a71,Deep Question,html.Page,1_1_5_0_0,NA,NA,form submission,1182.5050000007,34643.300000001,34639.629,34656.295,35838.800000001,35839,2023-02-28T13:49:50Z,35840.184,"c(""distractor1"", ""distractor2"", ""distractor3"")",Schatten,kivuli,d,NA,NA,NA,sadf,NA,NA,NA,NA,NA,NA,NA,NA,NA,NA,NA,NA,NA,NA,NA,NA,NA,NA,NA,NA,NA,NA
a3a71,"""Richtig""-Screen",canvas.Screen,1_1_5_0_1,NA,NA,skipped,NA,35842,NA,NA,35838.800000001,35842.100000001,2023-02-28T13:49:50Z,35840.184,"c(""distractor1"", ""distractor2"", ""distractor3"")",Schatten,kivuli,d,NA,NA,NA,NA,NA,NA,NA,NA,NA,NA,NA,NA,NA,NA,NA,NA,NA,NA,NA,NA,NA,NA,NA,NA,NA,NA
a3a71,"""Falsch""-Screen",canvas.Screen,1_1_5_0_2,NA,NA,timeout,4999.8,35842.700000003,35823.518,35840.184,40823.318,40824.5,2023-02-28T13:49:55Z,40839.984,"c(""distractor1"", ""distractor2"", ""distractor3"")",Schatten,kivuli,d,NA,NA,NA,NA,NA,0,NA,NA,NA,NA,NA,NA,NA,NA,NA,NA,NA,NA,NA,NA,NA,NA,NA,NA,NA,NA
a3a71,deep,flow.Sequence,1_1_5_0,NA,NA,completion,6167.023,34643.100000001,34639.629,34656.295,40823.318,40824.800000001,2023-02-28T13:49:55Z,40839.984,"c(""distractor1"", ""distractor2"", ""distractor3"")",Schatten,kivuli,d,NA,NA,NA,NA,NA,NA,NA,NA,NA,NA,NA,NA,NA,NA,NA,NA,NA,NA,NA,NA,NA,NA,NA,NA,NA,NA
a3a71,shallow,flow.Sequence,1_1_5_1,NA,NA,skipped,NA,40824.900000002,NA,NA,40823.318,40825,2023-02-28T13:49:55Z,40839.984,"c(""distractor1"", ""distractor2"", ""distractor3"")",Schatten,kivuli,d,NA,NA,NA,NA,NA,NA,NA,NA,NA,NA,NA,NA,NA,NA,NA,NA,NA,NA,NA,NA,NA,NA,NA,NA,NA,NA
a3a71,task,flow.Sequence,1_1_5,NA,NA,completion,6167.023,34643.100000001,34639.629,34656.295,40823.318,40825.100000001,2023-02-28T13:49:55Z,40839.984,"c(""distractor1"", ""distractor2"", ""distractor3"")",Schatten,kivuli,d,NA,NA,NA,NA,NA,NA,NA,NA,NA,NA,NA,NA,NA,NA,NA,NA,NA,NA,NA,NA,NA,NA,NA,NA,NA,NA
a3a71,block,flow.Loop,1_1,NA,NA,completion,38816.851,2004.6000000015,1989.801,2006.467,40823.318,40825.200000003,2023-02-28T13:49:55Z,40839.984,"c(""distractor1"", ""distractor2"", ""distractor3"")",NA,NA,NA,NA,NA,NA,NA,NA,NA,NA,NA,NA,NA,NA,NA,NA,NA,NA,NA,NA,NA,NA,NA,NA,NA,NA,NA,NA,NA
a3a71,Practice,flow.Sequence,1,NA,NA,completion,39816.811,993.90000000224,989.841,1006.507,40823.318,40825.400000002,2023-02-28T13:49:55Z,40839.984,NULL,NA,NA,NA,NA,NA,NA,NA,NA,NA,NA,NA,NA,NA,NA,NA,NA,NA,NA,NA,NA,NA,NA,NA,NA,NA,NA,NA,NA,NA
a3a71,Experiment start,canvas.Screen,2,weiter,keypress(q),response,1428.3160000007,40825.400000002,40823.318,40839.984,42268.300000001,42271.100000001,2023-02-28T13:49:57Z,42339.924,NULL,NA,NA,NA,NA,NA,NA,NA,NA,NA,NA,NA,NA,NA,NA,NA,NA,NA,NA,NA,NA,NA,NA,NA,NA,NA,NA,NA,NA,NA
a3a71,deep,flow.Sequence,3_0_0_0_0_0,NA,NA,skipped,NA,42329.400000002,NA,NA,42268.300000001,42329.600000001,2023-02-28T13:49:57Z,42339.924,NULL,Lawine,banguko,s,maambukizi,usuluhishi,chekechea,NA,sdf,NA,0,NA,NA,NA,NA,NA,NA,NA,NA,NA,NA,NA,NA,NA,NA,NA,NA,NA,NA,NA
a3a71,Shallow Question,html.Page,3_0_0_0_0_1_0,NA,NA,form submission,17541.976000002,42329.600000001,42323.258,42339.924,59881.900000002,59882.400000002,2023-02-28T13:50:14Z,59890.389,NULL,Lawine,banguko,s,maambukizi,usuluhishi,chekechea,banguko,NA,NA,0,NA,NA,NA,NA,NA,NA,NA,NA,NA,NA,NA,NA,NA,NA,NA,NA,NA,NA,NA
a3a71,"""Richtig""-Screen",canvas.Screen,3_0_0_0_0_1_1,NA,NA,timeout,4999.8,59885.400000002,59873.723,59890.389,64873.523,64876.200000003,2023-02-28T13:50:19Z,64890.189,NULL,Lawine,banguko,s,maambukizi,usuluhishi,chekechea,NA,sdf,1,0,NA,NA,NA,NA,NA,NA,NA,NA,NA,NA,NA,NA,NA,NA,NA,NA,NA,NA,NA
a3a71,"""Falsch""-Screen",canvas.Screen,3_0_0_0_0_1_2,NA,NA,skipped,NA,64880.200000003,NA,NA,64873.523,64880.400000002,2023-02-28T13:50:19Z,64890.189,NULL,Lawine,banguko,s,maambukizi,usuluhishi,chekechea,NA,sdf,NA,0,NA,NA,NA,NA,NA,NA,NA,NA,NA,NA,NA,NA,NA,NA,NA,NA,NA,NA,NA
a3a71,shallow,flow.Sequence,3_0_0_0_0_1,NA,NA,completion,22533.599,42329.600000001,42323.258,42339.924,64873.523,64880.600000001,2023-02-28T13:50:19Z,64890.189,NULL,Lawine,banguko,s,maambukizi,usuluhishi,chekechea,NA,sdf,NA,0,NA,NA,NA,NA,NA,NA,NA,NA,NA,NA,NA,NA,NA,NA,NA,NA,NA,NA,NA
a3a71,task,flow.Sequence,3_0_0_0_0,NA,NA,completion,22533.599,42329.400000002,42323.258,42339.924,64873.523,64880.700000003,2023-02-28T13:50:19Z,64890.189,NULL,Lawine,banguko,s,maambukizi,usuluhishi,chekechea,NA,sdf,NA,0,NA,NA,NA,NA,NA,NA,NA,NA,NA,NA,NA,NA,NA,NA,NA,NA,NA,NA,NA
a3a71,deep,flow.Sequence,3_0_0_0_1_0,NA,NA,skipped,NA,64880.800000001,NA,NA,64873.523,64880.900000002,2023-02-28T13:50:19Z,64890.189,NULL,Papier,karatasi,s,uchambuzi,usalama,kukataliwa,NA,sdf,NA,0,NA,NA,NA,NA,NA,NA,NA,NA,NA,NA,NA,NA,NA,NA,NA,NA,NA,NA,NA
a3a71,Shallow Question,html.Page,3_0_0_0_1_1_0,NA,NA,form submission,8436.511000003,64881,64873.523,64890.189,73326.700000003,73327.100000001,2023-02-28T13:50:28Z,73340.664,NULL,Papier,karatasi,s,uchambuzi,usalama,kukataliwa,karatasi,NA,NA,0,NA,NA,NA,NA,NA,NA,NA,NA,NA,NA,NA,NA,NA,NA,NA,NA,NA,NA,NA
a3a71,"""Richtig""-Screen",canvas.Screen,3_0_0_0_1_1_1,NA,NA,timeout,4999.8,73329.600000001,73323.998,73340.664,78323.798,78326.400000002,2023-02-28T13:50:33Z,78340.464,NULL,Papier,karatasi,s,uchambuzi,usalama,kukataliwa,NA,sdf,1,0,NA,NA,NA,NA,NA,NA,NA,NA,NA,NA,NA,NA,NA,NA,NA,NA,NA,NA,NA
a3a71,"""Falsch""-Screen",canvas.Screen,3_0_0_0_1_1_2,NA,NA,skipped,NA,78330.700000003,NA,NA,78323.798,78330.800000001,2023-02-28T13:50:33Z,78340.464,NULL,Papier,karatasi,s,uchambuzi,usalama,kukataliwa,NA,sdf,NA,0,NA,NA,NA,NA,NA,NA,NA,NA,NA,NA,NA,NA,NA,NA,NA,NA,NA,NA,NA
a3a71,shallow,flow.Sequence,3_0_0_0_1_1,NA,NA,completion,13433.609,64881,64873.523,64890.189,78323.798,78331.100000001,2023-02-28T13:50:33Z,78340.464,NULL,Papier,karatasi,s,uchambuzi,usalama,kukataliwa,NA,sdf,NA,0,NA,NA,NA,NA,NA,NA,NA,NA,NA,NA,NA,NA,NA,NA,NA,NA,NA,NA,NA
a3a71,task,flow.Sequence,3_0_0_0_1,NA,NA,completion,13433.609,64880.800000001,64873.523,64890.189,78323.798,78331.200000003,2023-02-28T13:50:33Z,78340.464,NULL,Papier,karatasi,s,uchambuzi,usalama,kukataliwa,NA,sdf,NA,0,NA,NA,NA,NA,NA,NA,NA,NA,NA,NA,NA,NA,NA,NA,NA,NA,NA,NA,NA
a3a71,deep,flow.Sequence,3_0_0_0_2_0,NA,NA,skipped,NA,78331.400000002,NA,NA,78323.798,78331.5,2023-02-28T13:50:33Z,78340.464,NULL,System,maongozi,s,chokochoko,nuksani,mitaani,NA,sdf,NA,0,NA,NA,NA,NA,NA,NA,NA,NA,NA,NA,NA,NA,NA,NA,NA,NA,NA,NA,NA
a3a71,Shallow Question,html.Page,3_0_0_0_2_1_0,NA,NA,form submission,10812.336000001,78331.700000003,78323.798,78340.464,89152.800000001,89153.400000002,2023-02-28T13:50:44Z,89157.248,NULL,System,maongozi,s,chokochoko,nuksani,mitaani,maongozi,NA,NA,0,NA,NA,NA,NA,NA,NA,NA,NA,NA,NA,NA,NA,NA,NA,NA,NA,NA,NA,NA
a3a71,"""Richtig""-Screen",canvas.Screen,3_0_0_0_2_1_1,NA,NA,timeout,4999.8,89156.100000001,89140.582,89157.248,94140.382,94143.200000003,2023-02-28T13:50:49Z,94157.048,NULL,System,maongozi,s,chokochoko,nuksani,mitaani,NA,sdf,1,0,NA,NA,NA,NA,NA,NA,NA,NA,NA,NA,NA,NA,NA,NA,NA,NA,NA,NA,NA
a3a71,"""Falsch""-Screen",canvas.Screen,3_0_0_0_2_1_2,NA,NA,skipped,NA,94147.400000002,NA,NA,94140.382,94147.600000001,2023-02-28T13:50:49Z,94157.048,NULL,System,maongozi,s,chokochoko,nuksani,mitaani,NA,sdf,NA,0,NA,NA,NA,NA,NA,NA,NA,NA,NA,NA,NA,NA,NA,NA,NA,NA,NA,NA,NA
a3a71,shallow,flow.Sequence,3_0_0_0_2_1,NA,NA,completion,15799.918,78331.700000003,78323.798,78340.464,94140.382,94147.800000001,2023-02-28T13:50:49Z,94157.048,NULL,System,maongozi,s,chokochoko,nuksani,mitaani,NA,sdf,NA,0,NA,NA,NA,NA,NA,NA,NA,NA,NA,NA,NA,NA,NA,NA,NA,NA,NA,NA,NA
a3a71,task,flow.Sequence,3_0_0_0_2,NA,NA,completion,15799.918,78331.400000002,78323.798,78340.464,94140.382,94148,2023-02-28T13:50:49Z,94157.048,NULL,System,maongozi,s,chokochoko,nuksani,mitaani,NA,sdf,NA,0,NA,NA,NA,NA,NA,NA,NA,NA,NA,NA,NA,NA,NA,NA,NA,NA,NA,NA,NA
a3a71,deep,flow.Sequence,3_0_0_0_3_0,NA,NA,skipped,NA,94148.100000001,NA,NA,94140.382,94148.200000003,2023-02-28T13:50:49Z,94157.048,NULL,Niveau,kiwango,s,usimamizi,mwamali,mshairi,NA,sdf,NA,0,NA,NA,NA,NA,NA,NA,NA,NA,NA,NA,NA,NA,NA,NA,NA,NA,NA,NA,NA
a3a71,Shallow Question,html.Page,3_0_0_0_3_1_0,NA,NA,form submission,7397.452,94148.400000002,94140.382,94157.048,101554.5,101555.1,2023-02-28T13:50:56Z,101557.328,NULL,Niveau,kiwango,s,usimamizi,mwamali,mshairi,kiwango,NA,NA,0,NA,NA,NA,NA,NA,NA,NA,NA,NA,NA,NA,NA,NA,NA,NA,NA,NA,NA,NA
a3a71,"""Richtig""-Screen",canvas.Screen,3_0_0_0_3_1_1,NA,NA,timeout,4999.8,101558.5,101540.662,101557.328,106540.462,106542.4,2023-02-28T13:51:01Z,106557.128,NULL,Niveau,kiwango,s,usimamizi,mwamali,mshairi,NA,sdf,1,0,NA,NA,NA,NA,NA,NA,NA,NA,NA,NA,NA,NA,NA,NA,NA,NA,NA,NA,NA
a3a71,"""Falsch""-Screen",canvas.Screen,3_0_0_0_3_1_2,NA,NA,skipped,NA,106547,NA,NA,106540.462,106547.4,2023-02-28T13:51:01Z,106557.128,NULL,Niveau,kiwango,s,usimamizi,mwamali,mshairi,NA,sdf,NA,0,NA,NA,NA,NA,NA,NA,NA,NA,NA,NA,NA,NA,NA,NA,NA,NA,NA,NA,NA
a3a71,shallow,flow.Sequence,3_0_0_0_3_1,NA,NA,completion,12383.414,94148.300000001,94140.382,94157.048,106540.462,106547.6,2023-02-28T13:51:01Z,106557.128,NULL,Niveau,kiwango,s,usimamizi,mwamali,mshairi,NA,sdf,NA,0,NA,NA,NA,NA,NA,NA,NA,NA,NA,NA,NA,NA,NA,NA,NA,NA,NA,NA,NA
a3a71,task,flow.Sequence,3_0_0_0_3,NA,NA,completion,12383.414,94148.100000001,94140.382,94157.048,106540.462,106547.7,2023-02-28T13:51:01Z,106557.128,NULL,Niveau,kiwango,s,usimamizi,mwamali,mshairi,NA,sdf,NA,0,NA,NA,NA,NA,NA,NA,NA,NA,NA,NA,NA,NA,NA,NA,NA,NA,NA,NA,NA
a3a71,Deep Question,html.Page,3_0_0_0_4_0_0,NA,NA,form submission,10239.072000003,106547.8,106540.462,106557.128,116796.2,116796.7,2023-02-28T13:51:11Z,116807.337,NULL,Körper,kiwiliwili,d,NA,NA,NA,kiwiliwili,NA,NA,0,NA,NA,NA,NA,NA,NA,NA,NA,NA,NA,NA,NA,NA,NA,NA,NA,NA,NA,NA
a3a71,"""Richtig""-Screen",canvas.Screen,3_0_0_0_4_0_1,NA,NA,timeout,4999.8,116799,116790.671,116807.337,121790.471,121793.2,2023-02-28T13:51:16Z,121807.137,NULL,Körper,kiwiliwili,d,NA,NA,NA,NA,sdf,1,0,NA,NA,NA,NA,NA,NA,NA,NA,NA,NA,NA,NA,NA,NA,NA,NA,NA,NA,NA
a3a71,"""Falsch""-Screen",canvas.Screen,3_0_0_0_4_0_2,NA,NA,skipped,NA,121798,NA,NA,121790.471,121798.1,2023-02-28T13:51:16Z,121807.137,NULL,Körper,kiwiliwili,d,NA,NA,NA,NA,sdf,NA,0,NA,NA,NA,NA,NA,NA,NA,NA,NA,NA,NA,NA,NA,NA,NA,NA,NA,NA,NA
a3a71,deep,flow.Sequence,3_0_0_0_4_0,NA,NA,completion,15233.343,106547.8,106540.462,106557.128,121790.471,121798.3,2023-02-28T13:51:16Z,121807.137,NULL,Körper,kiwiliwili,d,NA,NA,NA,NA,sdf,NA,0,NA,NA,NA,NA,NA,NA,NA,NA,NA,NA,NA,NA,NA,NA,NA,NA,NA,NA,NA
a3a71,shallow,flow.Sequence,3_0_0_0_4_1,NA,NA,skipped,NA,121798.4,NA,NA,121790.471,121798.6,2023-02-28T13:51:16Z,121807.137,NULL,Körper,kiwiliwili,d,NA,NA,NA,NA,sdf,NA,0,NA,NA,NA,NA,NA,NA,NA,NA,NA,NA,NA,NA,NA,NA,NA,NA,NA,NA,NA
a3a71,task,flow.Sequence,3_0_0_0_4,NA,NA,completion,15233.343,106547.7,106540.462,106557.128,121790.471,121798.6,2023-02-28T13:51:16Z,121807.137,NULL,Körper,kiwiliwili,d,NA,NA,NA,NA,sdf,NA,0,NA,NA,NA,NA,NA,NA,NA,NA,NA,NA,NA,NA,NA,NA,NA,NA,NA,NA,NA
a3a71,Deep Question,html.Page,3_0_0_0_5_0_0,NA,NA,form submission,6621.1630000007,121798.8,121790.471,121807.137,128428.3,128429,2023-02-28T13:51:23Z,128441.214,NULL,Übersicht,kilindo,d,NA,NA,NA,kilindo,NA,NA,0,NA,NA,NA,NA,NA,NA,NA,NA,NA,NA,NA,NA,NA,NA,NA,NA,NA,NA,NA
a3a71,"""Richtig""-Screen",canvas.Screen,3_0_0_0_5_0_1,NA,NA,timeout,4999.8,128433,128424.548,128441.214,133424.348,133425.5,2023-02-28T13:51:28Z,133441.014,NULL,Übersicht,kilindo,d,NA,NA,NA,NA,sdf,1,0,NA,NA,NA,NA,NA,NA,NA,NA,NA,NA,NA,NA,NA,NA,NA,NA,NA,NA,NA
a3a71,"""Falsch""-Screen",canvas.Screen,3_0_0_0_5_0_2,NA,NA,skipped,NA,133429.2,NA,NA,133424.348,133429.4,2023-02-28T13:51:28Z,133441.014,NULL,Übersicht,kilindo,d,NA,NA,NA,NA,sdf,NA,0,NA,NA,NA,NA,NA,NA,NA,NA,NA,NA,NA,NA,NA,NA,NA,NA,NA,NA,NA
a3a71,deep,flow.Sequence,3_0_0_0_5_0,NA,NA,completion,11617.211,121798.8,121790.471,121807.137,133424.348,133429.5,2023-02-28T13:51:28Z,133441.014,NULL,Übersicht,kilindo,d,NA,NA,NA,NA,sdf,NA,0,NA,NA,NA,NA,NA,NA,NA,NA,NA,NA,NA,NA,NA,NA,NA,NA,NA,NA,NA
a3a71,shallow,flow.Sequence,3_0_0_0_5_1,NA,NA,skipped,NA,133429.6,NA,NA,133424.348,133429.6,2023-02-28T13:51:28Z,133441.014,NULL,Übersicht,kilindo,d,NA,NA,NA,NA,sdf,NA,0,NA,NA,NA,NA,NA,NA,NA,NA,NA,NA,NA,NA,NA,NA,NA,NA,NA,NA,NA
a3a71,task,flow.Sequence,3_0_0_0_5,NA,NA,completion,11617.211,121798.7,121790.471,121807.137,133424.348,133429.7,2023-02-28T13:51:28Z,133441.014,NULL,Übersicht,kilindo,d,NA,NA,NA,NA,sdf,NA,0,NA,NA,NA,NA,NA,NA,NA,NA,NA,NA,NA,NA,NA,NA,NA,NA,NA,NA,NA
a3a71,Deep Question,html.Page,3_0_0_0_6_0_0,NA,NA,form submission,9069.186000003,133429.9,133424.348,133441.014,142510.2,142510.6,2023-02-28T13:51:37Z,142524.697,NULL,Vorwurf,mashtaka,d,NA,NA,NA,mashtaka,NA,NA,0,NA,NA,NA,NA,NA,NA,NA,NA,NA,NA,NA,NA,NA,NA,NA,NA,NA,NA,NA
a3a71,"""Richtig""-Screen",canvas.Screen,3_0_0_0_6_0_1,NA,NA,timeout,4999.8,142513.5,142508.031,142524.697,147507.831,147509.8,2023-02-28T13:51:42Z,147524.497,NULL,Vorwurf,mashtaka,d,NA,NA,NA,NA,sdf,1,0,NA,NA,NA,NA,NA,NA,NA,NA,NA,NA,NA,NA,NA,NA,NA,NA,NA,NA,NA
a3a71,"""Falsch""-Screen",canvas.Screen,3_0_0_0_6_0_2,NA,NA,skipped,NA,147514.3,NA,NA,147507.831,147514.4,2023-02-28T13:51:42Z,147524.497,NULL,Vorwurf,mashtaka,d,NA,NA,NA,NA,sdf,NA,0,NA,NA,NA,NA,NA,NA,NA,NA,NA,NA,NA,NA,NA,NA,NA,NA,NA,NA,NA
a3a71,deep,flow.Sequence,3_0_0_0_6_0,NA,NA,completion,14066.817,133429.8,133424.348,133441.014,147507.831,147514.6,2023-02-28T13:51:42Z,147524.497,NULL,Vorwurf,mashtaka,d,NA,NA,NA,NA,sdf,NA,0,NA,NA,NA,NA,NA,NA,NA,NA,NA,NA,NA,NA,NA,NA,NA,NA,NA,NA,NA
a3a71,shallow,flow.Sequence,3_0_0_0_6_1,NA,NA,skipped,NA,147514.7,NA,NA,147507.831,147514.9,2023-02-28T13:51:42Z,147524.497,NULL,Vorwurf,mashtaka,d,NA,NA,NA,NA,sdf,NA,0,NA,NA,NA,NA,NA,NA,NA,NA,NA,NA,NA,NA,NA,NA,NA,NA,NA,NA,NA
a3a71,task,flow.Sequence,3_0_0_0_6,NA,NA,completion,14066.817,133429.8,133424.348,133441.014,147507.831,147515,2023-02-28T13:51:42Z,147524.497,NULL,Vorwurf,mashtaka,d,NA,NA,NA,NA,sdf,NA,0,NA,NA,NA,NA,NA,NA,NA,NA,NA,NA,NA,NA,NA,NA,NA,NA,NA,NA,NA
a3a71,Deep Question,html.Page,3_0_0_0_7_0_0,NA,NA,form submission,7409.1030000015,147515.1,147507.831,147524.497,154933.6,154934.1,2023-02-28T13:51:50Z,154941.379,NULL,Entwicklung,maendeleo,d,NA,NA,NA,maendeleo,NA,NA,0,NA,NA,NA,NA,NA,NA,NA,NA,NA,NA,NA,NA,NA,NA,NA,NA,NA,NA,NA
a3a71,"""Richtig""-Screen",canvas.Screen,3_0_0_0_7_0_1,NA,NA,timeout,4999.8,154937.4,154924.713,154941.379,159924.513,159927,2023-02-28T13:51:55Z,159941.179,NULL,Entwicklung,maendeleo,d,NA,NA,NA,NA,sdf,1,0,NA,NA,NA,NA,NA,NA,NA,NA,NA,NA,NA,NA,NA,NA,NA,NA,NA,NA,NA
a3a71,"""Falsch""-Screen",canvas.Screen,3_0_0_0_7_0_2,NA,NA,skipped,NA,159931.4,NA,NA,159924.513,159931.5,2023-02-28T13:51:55Z,159941.179,NULL,Entwicklung,maendeleo,d,NA,NA,NA,NA,sdf,NA,0,NA,NA,NA,NA,NA,NA,NA,NA,NA,NA,NA,NA,NA,NA,NA,NA,NA,NA,NA
a3a71,deep,flow.Sequence,3_0_0_0_7_0,NA,NA,completion,12400.016,147515.1,147507.831,147524.497,159924.513,159931.7,2023-02-28T13:51:55Z,159941.179,NULL,Entwicklung,maendeleo,d,NA,NA,NA,NA,sdf,NA,0,NA,NA,NA,NA,NA,NA,NA,NA,NA,NA,NA,NA,NA,NA,NA,NA,NA,NA,NA
a3a71,shallow,flow.Sequence,3_0_0_0_7_1,NA,NA,skipped,NA,159931.8,NA,NA,159924.513,159931.9,2023-02-28T13:51:55Z,159941.179,NULL,Entwicklung,maendeleo,d,NA,NA,NA,NA,sdf,NA,0,NA,NA,NA,NA,NA,NA,NA,NA,NA,NA,NA,NA,NA,NA,NA,NA,NA,NA,NA
a3a71,task,flow.Sequence,3_0_0_0_7,NA,NA,completion,12400.016,147515.1,147507.831,147524.497,159924.513,159932,2023-02-28T13:51:55Z,159941.179,NULL,Entwicklung,maendeleo,d,NA,NA,NA,NA,sdf,NA,0,NA,NA,NA,NA,NA,NA,NA,NA,NA,NA,NA,NA,NA,NA,NA,NA,NA,NA,NA
a3a71,block,flow.Loop,3_0_0_0,NA,NA,completion,117584.589,42329.400000002,42323.258,42339.924,159924.513,159932.2,2023-02-28T13:51:55Z,159941.179,NULL,NA,NA,NA,NA,NA,NA,NA,sdf,NA,0,NA,NA,NA,NA,NA,NA,NA,NA,NA,NA,NA,NA,NA,NA,NA,NA,NA,NA,NA
a3a71,weiter,canvas.Screen,3_0_0_1,sdf,keypress(Space),response,940.321,159932.3,159924.513,159941.179,160881.5,160885.3,2023-02-28T13:51:55Z,161125.031,NULL,NA,NA,NA,NA,NA,NA,NA,sdf,NA,0,NA,NA,NA,NA,NA,NA,NA,NA,NA,NA,NA,NA,NA,NA,NA,NA,NA,NA,NA
a3a71,check continue,flow.Sequence,3_0_0,NA,NA,completion,118541.576,42329.400000002,42323.258,42339.924,160881.5,160885.6,2023-02-28T13:51:55Z,161125.031,NULL,NA,NA,NA,NA,NA,NA,NA,sdf,NA,0,NA,NA,NA,NA,NA,NA,NA,NA,NA,NA,NA,NA,NA,NA,NA,NA,NA,NA,NA
a3a71,check continue,flow.Sequence,3_0_1,NA,NA,skipped,NA,160913.1,NA,NA,160881.5,160913.1,2023-02-28T13:51:56Z,161125.031,NULL,NA,NA,NA,NA,NA,NA,NA,sdfdsf,NA,1,NA,NA,NA,NA,NA,NA,NA,NA,NA,NA,NA,NA,NA,NA,NA,NA,NA,NA,NA
a3a71,check continue,flow.Sequence,3_0_2,NA,NA,skipped,NA,160927.6,NA,NA,160881.5,160927.6,2023-02-28T13:51:56Z,161125.031,NULL,NA,NA,NA,NA,NA,NA,NA,sdf,NA,2,NA,NA,NA,NA,NA,NA,NA,NA,NA,NA,NA,NA,NA,NA,NA,NA,NA,NA,NA
a3a71,check continue,flow.Sequence,3_0_3,NA,NA,skipped,NA,160939.6,NA,NA,160881.5,160939.6,2023-02-28T13:51:56Z,161125.031,NULL,NA,NA,NA,NA,NA,NA,NA,qt,NA,3,NA,NA,NA,NA,NA,NA,NA,NA,NA,NA,NA,NA,NA,NA,NA,NA,NA,NA,NA
a3a71,check continue,flow.Sequence,3_0_4,NA,NA,skipped,NA,160949.7,NA,NA,160881.5,160949.8,2023-02-28T13:51:56Z,161125.031,NULL,NA,NA,NA,NA,NA,NA,NA,sd,NA,4,NA,NA,NA,NA,NA,NA,NA,NA,NA,NA,NA,NA,NA,NA,NA,NA,NA,NA,NA
a3a71,check continue,flow.Sequence,3_0_5,NA,NA,skipped,NA,160958.5,NA,NA,160881.5,160958.6,2023-02-28T13:51:56Z,161125.031,NULL,NA,NA,NA,NA,NA,NA,NA,sdf,NA,5,NA,NA,NA,NA,NA,NA,NA,NA,NA,NA,NA,NA,NA,NA,NA,NA,NA,NA,NA
a3a71,check continue,flow.Sequence,3_0_6,NA,NA,skipped,NA,160966.1,NA,NA,160881.5,160966.1,2023-02-28T13:51:56Z,161125.031,NULL,NA,NA,NA,NA,NA,NA,NA,dfs,NA,6,NA,NA,NA,NA,NA,NA,NA,NA,NA,NA,NA,NA,NA,NA,NA,NA,NA,NA,NA
a3a71,check continue,flow.Sequence,3_0_7,NA,NA,skipped,NA,160973.3,NA,NA,160881.5,160973.3,2023-02-28T13:51:56Z,161125.031,NULL,NA,NA,NA,NA,NA,NA,NA,df,NA,7,NA,NA,NA,NA,NA,NA,NA,NA,NA,NA,NA,NA,NA,NA,NA,NA,NA,NA,NA
a3a71,check continue,flow.Sequence,3_0_8,NA,NA,skipped,NA,160980,NA,NA,160881.5,160980,2023-02-28T13:51:56Z,161125.031,NULL,NA,NA,NA,NA,NA,NA,NA,dfs,NA,8,NA,NA,NA,NA,NA,NA,NA,NA,NA,NA,NA,NA,NA,NA,NA,NA,NA,NA,NA
a3a71,check continue,flow.Sequence,3_0_9,NA,NA,skipped,NA,160986.5,NA,NA,160881.5,160986.5,2023-02-28T13:51:56Z,161125.031,NULL,NA,NA,NA,NA,NA,NA,NA,dsf,NA,9,NA,NA,NA,NA,NA,NA,NA,NA,NA,NA,NA,NA,NA,NA,NA,NA,NA,NA,NA
a3a71,check continue,flow.Sequence,3_0_10,NA,NA,skipped,NA,160993.6,NA,NA,160881.5,160993.6,2023-02-28T13:51:56Z,161125.031,NULL,NA,NA,NA,NA,NA,NA,NA,df,NA,10,NA,NA,NA,NA,NA,NA,NA,NA,NA,NA,NA,NA,NA,NA,NA,NA,NA,NA,NA
a3a71,check continue,flow.Sequence,3_0_11,NA,NA,skipped,NA,161000.1,NA,NA,160881.5,161000.1,2023-02-28T13:51:56Z,161125.031,NULL,NA,NA,NA,NA,NA,NA,NA,dfs,NA,11,NA,NA,NA,NA,NA,NA,NA,NA,NA,NA,NA,NA,NA,NA,NA,NA,NA,NA,NA
a3a71,check continue,flow.Sequence,3_0_12,NA,NA,skipped,NA,161006.4,NA,NA,160881.5,161006.4,2023-02-28T13:51:56Z,161125.031,NULL,NA,NA,NA,NA,NA,NA,NA,dsf,NA,12,NA,NA,NA,NA,NA,NA,NA,NA,NA,NA,NA,NA,NA,NA,NA,NA,NA,NA,NA
a3a71,check continue,flow.Sequence,3_0_13,NA,NA,skipped,NA,161012.9,NA,NA,160881.5,161013,2023-02-28T13:51:56Z,161125.031,NULL,NA,NA,NA,NA,NA,NA,NA,dsf,NA,13,NA,NA,NA,NA,NA,NA,NA,NA,NA,NA,NA,NA,NA,NA,NA,NA,NA,NA,NA
a3a71,check continue,flow.Sequence,3_0_14,NA,NA,skipped,NA,161019,NA,NA,160881.5,161019,2023-02-28T13:51:56Z,161125.031,NULL,NA,NA,NA,NA,NA,NA,NA,NA,NA,14,NA,NA,NA,NA,NA,NA,NA,NA,NA,NA,NA,NA,NA,NA,NA,NA,NA,NA,NA
a3a71,check continue,flow.Sequence,3_0_15,NA,NA,skipped,NA,161025,NA,NA,160881.5,161025,2023-02-28T13:51:56Z,161125.031,NULL,NA,NA,NA,NA,NA,NA,NA,NA,NA,15,NA,NA,NA,NA,NA,NA,NA,NA,NA,NA,NA,NA,NA,NA,NA,NA,NA,NA,NA
a3a71,check continue,flow.Sequence,3_0_16,NA,NA,skipped,NA,161031.5,NA,NA,160881.5,161031.5,2023-02-28T13:51:56Z,161125.031,NULL,NA,NA,NA,NA,NA,NA,NA,NA,NA,16,NA,NA,NA,NA,NA,NA,NA,NA,NA,NA,NA,NA,NA,NA,NA,NA,NA,NA,NA
a3a71,check continue,flow.Sequence,3_0_17,NA,NA,skipped,NA,161037.5,NA,NA,160881.5,161037.5,2023-02-28T13:51:56Z,161125.031,NULL,NA,NA,NA,NA,NA,NA,NA,NA,NA,17,NA,NA,NA,NA,NA,NA,NA,NA,NA,NA,NA,NA,NA,NA,NA,NA,NA,NA,NA
a3a71,check continue,flow.Sequence,3_0_18,NA,NA,skipped,NA,161043.8,NA,NA,160881.5,161043.8,2023-02-28T13:51:56Z,161125.031,NULL,NA,NA,NA,NA,NA,NA,NA,NA,NA,18,NA,NA,NA,NA,NA,NA,NA,NA,NA,NA,NA,NA,NA,NA,NA,NA,NA,NA,NA
a3a71,check continue,flow.Sequence,3_0_19,NA,NA,skipped,NA,161049.8,NA,NA,160881.5,161049.8,2023-02-28T13:51:56Z,161125.031,NULL,NA,NA,NA,NA,NA,NA,NA,NA,NA,19,NA,NA,NA,NA,NA,NA,NA,NA,NA,NA,NA,NA,NA,NA,NA,NA,NA,NA,NA
a3a71,check continue,flow.Sequence,3_0_20,NA,NA,skipped,NA,161056.4,NA,NA,160881.5,161056.5,2023-02-28T13:51:56Z,161125.031,NULL,NA,NA,NA,NA,NA,NA,NA,NA,NA,20,NA,NA,NA,NA,NA,NA,NA,NA,NA,NA,NA,NA,NA,NA,NA,NA,NA,NA,NA
a3a71,check continue,flow.Sequence,3_0_21,NA,NA,skipped,NA,161062.2,NA,NA,160881.5,161062.2,2023-02-28T13:51:56Z,161125.031,NULL,NA,NA,NA,NA,NA,NA,NA,NA,NA,21,NA,NA,NA,NA,NA,NA,NA,NA,NA,NA,NA,NA,NA,NA,NA,NA,NA,NA,NA
a3a71,check continue,flow.Sequence,3_0_22,NA,NA,skipped,NA,161068.3,NA,NA,160881.5,161068.3,2023-02-28T13:51:56Z,161125.031,NULL,NA,NA,NA,NA,NA,NA,NA,NA,NA,22,NA,NA,NA,NA,NA,NA,NA,NA,NA,NA,NA,NA,NA,NA,NA,NA,NA,NA,NA
a3a71,check continue,flow.Sequence,3_0_23,NA,NA,skipped,NA,161073.9,NA,NA,160881.5,161074,2023-02-28T13:51:56Z,161125.031,NULL,NA,NA,NA,NA,NA,NA,NA,NA,NA,23,NA,NA,NA,NA,NA,NA,NA,NA,NA,NA,NA,NA,NA,NA,NA,NA,NA,NA,NA
a3a71,check continue,flow.Sequence,3_0_24,NA,NA,skipped,NA,161085.1,NA,NA,160881.5,161085.2,2023-02-28T13:51:56Z,161125.031,NULL,NA,NA,NA,NA,NA,NA,NA,NA,NA,24,NA,NA,NA,NA,NA,NA,NA,NA,NA,NA,NA,NA,NA,NA,NA,NA,NA,NA,NA
a3a71,check continue,flow.Sequence,3_0_25,NA,NA,skipped,NA,161091.6,NA,NA,160881.5,161091.6,2023-02-28T13:51:56Z,161125.031,NULL,NA,NA,NA,NA,NA,NA,NA,NA,NA,25,NA,NA,NA,NA,NA,NA,NA,NA,NA,NA,NA,NA,NA,NA,NA,NA,NA,NA,NA
a3a71,check continue,flow.Sequence,3_0_26,NA,NA,skipped,NA,161097.4,NA,NA,160881.5,161097.5,2023-02-28T13:51:56Z,161125.031,NULL,NA,NA,NA,NA,NA,NA,NA,NA,NA,26,NA,NA,NA,NA,NA,NA,NA,NA,NA,NA,NA,NA,NA,NA,NA,NA,NA,NA,NA
a3a71,check continue,flow.Sequence,3_0_27,NA,NA,skipped,NA,161103.9,NA,NA,160881.5,161103.9,2023-02-28T13:51:56Z,161125.031,NULL,NA,NA,NA,NA,NA,NA,NA,NA,NA,27,NA,NA,NA,NA,NA,NA,NA,NA,NA,NA,NA,NA,NA,NA,NA,NA,NA,NA,NA
a3a71,check continue,flow.Sequence,3_0_28,NA,NA,skipped,NA,161110,NA,NA,160881.5,161110,2023-02-28T13:51:56Z,161125.031,NULL,NA,NA,NA,NA,NA,NA,NA,NA,NA,28,NA,NA,NA,NA,NA,NA,NA,NA,NA,NA,NA,NA,NA,NA,NA,NA,NA,NA,NA
a3a71,check continue,flow.Sequence,3_0_29,NA,NA,skipped,NA,161116.8,NA,NA,160881.5,161116.9,2023-02-28T13:51:56Z,161125.031,NULL,NA,NA,NA,NA,NA,NA,NA,NA,NA,29,NA,NA,NA,NA,NA,NA,NA,NA,NA,NA,NA,NA,NA,NA,NA,NA,NA,NA,NA
a3a71,until continue,flow.Loop,3_0,NA,NA,completion,118541.576,42316.700000003,42323.258,42339.924,160881.5,161116.9,2023-02-28T13:51:56Z,161125.031,NULL,NA,NA,NA,NA,NA,NA,NA,NA,NA,NA,NA,NA,NA,NA,NA,NA,NA,NA,NA,NA,NA,NA,NA,NA,NA,NA,NA,NA,NA
a3a71,block 1,flow.Sequence,3,NA,NA,completion,118541.576,42316.700000003,42323.258,42339.924,160881.5,161117,2023-02-28T13:51:56Z,161125.031,NULL,NA,NA,NA,NA,NA,NA,NA,NA,NA,NA,NA,NA,NA,NA,NA,NA,NA,NA,NA,NA,NA,NA,NA,NA,NA,NA,NA,NA,NA
a3a71,1.Part Over,canvas.Screen,4,NA,keypress(Space),response,1543.469,161117,161108.365,161125.031,162668.5,162671.6,2023-02-28T13:51:57Z,162724.967,NULL,NA,NA,NA,NA,NA,NA,NA,NA,NA,NA,NA,NA,NA,NA,NA,NA,NA,NA,NA,NA,NA,NA,NA,NA,NA,NA,NA,NA,NA
a3a71,deep,flow.Sequence,5_0_0_0_0_0,NA,NA,skipped,NA,162721,NA,NA,162668.5,162721,2023-02-28T13:51:57Z,162724.967,NULL,Integrität,uadilifu,s,muungano,mtiririko,upunguaji,NA,sdf,NA,0,NA,NA,NA,NA,NA,NA,NA,NA,NA,NA,NA,NA,NA,NA,NA,NA,NA,NA,NA
a3a71,Shallow Question,html.Page,5_0_0_0_0_1_0,NA,NA,form submission,7487.733000003,162721,162708.301,162724.967,170212.7,170213.3,2023-02-28T13:52:05Z,170224.667,NULL,Integrität,uadilifu,s,muungano,mtiririko,upunguaji,uadilifu,NA,NA,0,NA,NA,NA,NA,NA,NA,NA,NA,NA,NA,NA,NA,NA,NA,NA,NA,NA,NA,NA
a3a71,"""Richtig""-Screen",canvas.Screen,5_0_0_0_0_1_1,NA,NA,timeout,5000.315,170217.9,170208.001,170224.667,175208.316,175210.9,2023-02-28T13:52:10Z,175224.982,NULL,Integrität,uadilifu,s,muungano,mtiririko,upunguaji,NA,sdf,1,0,NA,NA,NA,NA,NA,NA,NA,NA,NA,NA,NA,NA,NA,NA,NA,NA,NA,NA,NA
a3a71,"""Falsch""-Screen",canvas.Screen,5_0_0_0_0_1_2,NA,NA,skipped,NA,175215.2,NA,NA,175208.316,175215.3,2023-02-28T13:52:10Z,175224.982,NULL,Integrität,uadilifu,s,muungano,mtiririko,upunguaji,NA,sdf,NA,0,NA,NA,NA,NA,NA,NA,NA,NA,NA,NA,NA,NA,NA,NA,NA,NA,NA,NA,NA
a3a71,shallow,flow.Sequence,5_0_0_0_0_1,NA,NA,completion,12483.349,162721,162708.301,162724.967,175208.316,175215.5,2023-02-28T13:52:10Z,175224.982,NULL,Integrität,uadilifu,s,muungano,mtiririko,upunguaji,NA,sdf,NA,0,NA,NA,NA,NA,NA,NA,NA,NA,NA,NA,NA,NA,NA,NA,NA,NA,NA,NA,NA
a3a71,task,flow.Sequence,5_0_0_0_0,NA,NA,completion,12483.349,162721,162708.301,162724.967,175208.316,175215.6,2023-02-28T13:52:10Z,175224.982,NULL,Integrität,uadilifu,s,muungano,mtiririko,upunguaji,NA,sdf,NA,0,NA,NA,NA,NA,NA,NA,NA,NA,NA,NA,NA,NA,NA,NA,NA,NA,NA,NA,NA
a3a71,Deep Question,html.Page,5_0_0_0_1_0_0,NA,NA,form submission,7399.8180000008,175215.7,175208.316,175224.982,182624.8,182625,2023-02-28T13:52:17Z,182625.199,NULL,Verzögerung,kuchelewa,d,NA,NA,NA,kuchelewa,NA,NA,0,NA,NA,NA,NA,NA,NA,NA,NA,NA,NA,NA,NA,NA,NA,NA,NA,NA,NA,NA
a3a71,"""Richtig""-Screen",canvas.Screen,5_0_0_0_1_0_1,NA,NA,timeout,4999.8,182627.6,182608.533,182625.199,187608.333,187610.6,2023-02-28T13:52:22Z,187624.999,NULL,Verzögerung,kuchelewa,d,NA,NA,NA,NA,sdf,1,0,NA,NA,NA,NA,NA,NA,NA,NA,NA,NA,NA,NA,NA,NA,NA,NA,NA,NA,NA
a3a71,"""Falsch""-Screen",canvas.Screen,5_0_0_0_1_0_2,NA,NA,skipped,NA,187615.9,NA,NA,187608.333,187616,2023-02-28T13:52:22Z,187624.999,NULL,Verzögerung,kuchelewa,d,NA,NA,NA,NA,sdf,NA,0,NA,NA,NA,NA,NA,NA,NA,NA,NA,NA,NA,NA,NA,NA,NA,NA,NA,NA,NA
a3a71,deep,flow.Sequence,5_0_0_0_1_0,NA,NA,completion,12383.351,175215.6,175208.316,175224.982,187608.333,187616.2,2023-02-28T13:52:22Z,187624.999,NULL,Verzögerung,kuchelewa,d,NA,NA,NA,NA,sdf,NA,0,NA,NA,NA,NA,NA,NA,NA,NA,NA,NA,NA,NA,NA,NA,NA,NA,NA,NA,NA
a3a71,shallow,flow.Sequence,5_0_0_0_1_1,NA,NA,skipped,NA,187616.3,NA,NA,187608.333,187616.3,2023-02-28T13:52:22Z,187624.999,NULL,Verzögerung,kuchelewa,d,NA,NA,NA,NA,sdf,NA,0,NA,NA,NA,NA,NA,NA,NA,NA,NA,NA,NA,NA,NA,NA,NA,NA,NA,NA,NA
a3a71,task,flow.Sequence,5_0_0_0_1,NA,NA,completion,12383.351,175215.6,175208.316,175224.982,187608.333,187616.5,2023-02-28T13:52:22Z,187624.999,NULL,Verzögerung,kuchelewa,d,NA,NA,NA,NA,sdf,NA,0,NA,NA,NA,NA,NA,NA,NA,NA,NA,NA,NA,NA,NA,NA,NA,NA,NA,NA,NA
a3a71,Deep Question,html.Page,5_0_0_0_2_0_0,NA,NA,form submission,6480.9010000022,187616.7,187608.333,187624.999,194105.9,194106.4,2023-02-28T13:52:29Z,194108.666,NULL,Genehmigung,idhini,d,NA,NA,NA,idhini,NA,NA,0,NA,NA,NA,NA,NA,NA,NA,NA,NA,NA,NA,NA,NA,NA,NA,NA,NA,NA,NA
a3a71,"""Richtig""-Screen",canvas.Screen,5_0_0_0_2_0_1,NA,NA,timeout,4999.8,194108.8,194092,194108.666,199091.8,199094.3,2023-02-28T13:52:34Z,199108.466,NULL,Genehmigung,idhini,d,NA,NA,NA,NA,sdf,1,0,NA,NA,NA,NA,NA,NA,NA,NA,NA,NA,NA,NA,NA,NA,NA,NA,NA,NA,NA
a3a71,"""Falsch""-Screen",canvas.Screen,5_0_0_0_2_0_2,NA,NA,skipped,NA,199098.2,NA,NA,199091.8,199098.4,2023-02-28T13:52:34Z,199108.466,NULL,Genehmigung,idhini,d,NA,NA,NA,NA,sdf,NA,0,NA,NA,NA,NA,NA,NA,NA,NA,NA,NA,NA,NA,NA,NA,NA,NA,NA,NA,NA
a3a71,deep,flow.Sequence,5_0_0_0_2_0,NA,NA,completion,11466.801,187616.6,187608.333,187624.999,199091.8,199098.6,2023-02-28T13:52:34Z,199108.466,NULL,Genehmigung,idhini,d,NA,NA,NA,NA,sdf,NA,0,NA,NA,NA,NA,NA,NA,NA,NA,NA,NA,NA,NA,NA,NA,NA,NA,NA,NA,NA
a3a71,shallow,flow.Sequence,5_0_0_0_2_1,NA,NA,skipped,NA,199098.6,NA,NA,199091.8,199098.7,2023-02-28T13:52:34Z,199108.466,NULL,Genehmigung,idhini,d,NA,NA,NA,NA,sdf,NA,0,NA,NA,NA,NA,NA,NA,NA,NA,NA,NA,NA,NA,NA,NA,NA,NA,NA,NA,NA
a3a71,task,flow.Sequence,5_0_0_0_2,NA,NA,completion,11466.801,187616.6,187608.333,187624.999,199091.8,199098.8,2023-02-28T13:52:34Z,199108.466,NULL,Genehmigung,idhini,d,NA,NA,NA,NA,sdf,NA,0,NA,NA,NA,NA,NA,NA,NA,NA,NA,NA,NA,NA,NA,NA,NA,NA,NA,NA,NA
a3a71,deep,flow.Sequence,5_0_0_0_3_0,NA,NA,skipped,NA,199098.9,NA,NA,199091.8,199098.9,2023-02-28T13:52:34Z,199108.466,NULL,Prüfung,mtihani,s,mkulima,mtizamo,ufumbuzi,NA,sdf,NA,0,NA,NA,NA,NA,NA,NA,NA,NA,NA,NA,NA,NA,NA,NA,NA,NA,NA,NA,NA
a3a71,Shallow Question,html.Page,5_0_0_0_3_1_0,NA,NA,form submission,2427.6340000015,199099,199091.8,199108.466,201536.1,201536.5,2023-02-28T13:52:36Z,201541.702,NULL,Prüfung,mtihani,s,mkulima,mtizamo,ufumbuzi,mtihani,NA,NA,0,NA,NA,NA,NA,NA,NA,NA,NA,NA,NA,NA,NA,NA,NA,NA,NA,NA,NA,NA
a3a71,"""Richtig""-Screen",canvas.Screen,5_0_0_0_3_1_1,NA,NA,timeout,4999.8,201537.7,201525.036,201541.702,206524.836,206527.4,2023-02-28T13:52:41Z,206541.502,NULL,Prüfung,mtihani,s,mkulima,mtizamo,ufumbuzi,NA,sdf,1,0,NA,NA,NA,NA,NA,NA,NA,NA,NA,NA,NA,NA,NA,NA,NA,NA,NA,NA,NA
a3a71,"""Falsch""-Screen",canvas.Screen,5_0_0_0_3_1_2,NA,NA,skipped,NA,206532.3,NA,NA,206524.836,206532.6,2023-02-28T13:52:41Z,206541.502,NULL,Prüfung,mtihani,s,mkulima,mtizamo,ufumbuzi,NA,sdf,NA,0,NA,NA,NA,NA,NA,NA,NA,NA,NA,NA,NA,NA,NA,NA,NA,NA,NA,NA,NA
a3a71,shallow,flow.Sequence,5_0_0_0_3_1,NA,NA,completion,7416.37,199099,199091.8,199108.466,206524.836,206532.7,2023-02-28T13:52:41Z,206541.502,NULL,Prüfung,mtihani,s,mkulima,mtizamo,ufumbuzi,NA,sdf,NA,0,NA,NA,NA,NA,NA,NA,NA,NA,NA,NA,NA,NA,NA,NA,NA,NA,NA,NA,NA
a3a71,task,flow.Sequence,5_0_0_0_3,NA,NA,completion,7416.37,199098.9,199091.8,199108.466,206524.836,206532.8,2023-02-28T13:52:41Z,206541.502,NULL,Prüfung,mtihani,s,mkulima,mtizamo,ufumbuzi,NA,sdf,NA,0,NA,NA,NA,NA,NA,NA,NA,NA,NA,NA,NA,NA,NA,NA,NA,NA,NA,NA,NA
a3a71,deep,flow.Sequence,5_0_0_0_4_0,NA,NA,skipped,NA,206533,NA,NA,206524.836,206533.1,2023-02-28T13:52:41Z,206541.502,NULL,Fleisch,mshakiki,s,kizunguzungu,mshikamano,angusho,NA,sdf,NA,0,NA,NA,NA,NA,NA,NA,NA,NA,NA,NA,NA,NA,NA,NA,NA,NA,NA,NA,NA
a3a71,Shallow Question,html.Page,5_0_0_0_4_1_0,NA,NA,form submission,4322.0980000015,206533.1,206524.836,206541.502,210863.6,210864.2,2023-02-28T13:52:45Z,210875.371,NULL,Fleisch,mshakiki,s,kizunguzungu,mshikamano,angusho,mshakiki,NA,NA,0,NA,NA,NA,NA,NA,NA,NA,NA,NA,NA,NA,NA,NA,NA,NA,NA,NA,NA,NA
a3a71,"""Richtig""-Screen",canvas.Screen,5_0_0_0_4_1_1,NA,NA,timeout,4999.8,210867.1,210858.705,210875.371,215858.505,215860.9,2023-02-28T13:52:50Z,215875.171,NULL,Fleisch,mshakiki,s,kizunguzungu,mshikamano,angusho,NA,sdf,1,0,NA,NA,NA,NA,NA,NA,NA,NA,NA,NA,NA,NA,NA,NA,NA,NA,NA,NA,NA
a3a71,"""Falsch""-Screen",canvas.Screen,5_0_0_0_4_1_2,NA,NA,skipped,NA,215865.5,NA,NA,215858.505,215865.6,2023-02-28T13:52:50Z,215875.171,NULL,Fleisch,mshakiki,s,kizunguzungu,mshikamano,angusho,NA,sdf,NA,0,NA,NA,NA,NA,NA,NA,NA,NA,NA,NA,NA,NA,NA,NA,NA,NA,NA,NA,NA
a3a71,shallow,flow.Sequence,5_0_0_0_4_1,NA,NA,completion,9317.003,206533.1,206524.836,206541.502,215858.505,215865.7,2023-02-28T13:52:50Z,215875.171,NULL,Fleisch,mshakiki,s,kizunguzungu,mshikamano,angusho,NA,sdf,NA,0,NA,NA,NA,NA,NA,NA,NA,NA,NA,NA,NA,NA,NA,NA,NA,NA,NA,NA,NA
a3a71,task,flow.Sequence,5_0_0_0_4,NA,NA,completion,9317.003,206533,206524.836,206541.502,215858.505,215865.8,2023-02-28T13:52:50Z,215875.171,NULL,Fleisch,mshakiki,s,kizunguzungu,mshikamano,angusho,NA,sdf,NA,0,NA,NA,NA,NA,NA,NA,NA,NA,NA,NA,NA,NA,NA,NA,NA,NA,NA,NA,NA
a3a71,deep,flow.Sequence,5_0_0_0_5_0,NA,NA,skipped,NA,215865.9,NA,NA,215858.505,215866,2023-02-28T13:52:50Z,215875.171,NULL,Aufstand,ugomaji,s,mazidio,msingi,kujieleza,NA,sdf,NA,0,NA,NA,NA,NA,NA,NA,NA,NA,NA,NA,NA,NA,NA,NA,NA,NA,NA,NA,NA
a3a71,Shallow Question,html.Page,5_0_0_0_5_1_0,NA,NA,form submission,2996.9290000015,215866.1,215858.505,215875.171,218872.1,218872.5,2023-02-28T13:52:53Z,218875.697,NULL,Aufstand,ugomaji,s,mazidio,msingi,kujieleza,ugomaji,NA,NA,0,NA,NA,NA,NA,NA,NA,NA,NA,NA,NA,NA,NA,NA,NA,NA,NA,NA,NA,NA
a3a71,"""Richtig""-Screen",canvas.Screen,5_0_0_0_5_1_1,NA,NA,timeout,4999.8,218875.3,218859.031,218875.697,223858.831,223860.7,2023-02-28T13:52:58Z,223875.497,NULL,Aufstand,ugomaji,s,mazidio,msingi,kujieleza,NA,sdf,1,0,NA,NA,NA,NA,NA,NA,NA,NA,NA,NA,NA,NA,NA,NA,NA,NA,NA,NA,NA
a3a71,"""Falsch""-Screen",canvas.Screen,5_0_0_0_5_1_2,NA,NA,skipped,NA,223865.4,NA,NA,223858.831,223865.5,2023-02-28T13:52:58Z,223875.497,NULL,Aufstand,ugomaji,s,mazidio,msingi,kujieleza,NA,sdf,NA,0,NA,NA,NA,NA,NA,NA,NA,NA,NA,NA,NA,NA,NA,NA,NA,NA,NA,NA,NA
a3a71,shallow,flow.Sequence,5_0_0_0_5_1,NA,NA,completion,7983.66,215866,215858.505,215875.171,223858.831,223865.7,2023-02-28T13:52:58Z,223875.497,NULL,Aufstand,ugomaji,s,mazidio,msingi,kujieleza,NA,sdf,NA,0,NA,NA,NA,NA,NA,NA,NA,NA,NA,NA,NA,NA,NA,NA,NA,NA,NA,NA,NA
a3a71,task,flow.Sequence,5_0_0_0_5,NA,NA,completion,7983.66,215865.8,215858.505,215875.171,223858.831,223865.8,2023-02-28T13:52:58Z,223875.497,NULL,Aufstand,ugomaji,s,mazidio,msingi,kujieleza,NA,sdf,NA,0,NA,NA,NA,NA,NA,NA,NA,NA,NA,NA,NA,NA,NA,NA,NA,NA,NA,NA,NA
a3a71,Deep Question,html.Page,5_0_0_0_6_0_0,NA,NA,form submission,8568.703000003,223865.9,223858.831,223875.497,232444.2,232444.7,2023-02-28T13:53:07Z,232459.116,NULL,Kultur,utamaduni,d,NA,NA,NA,utamaduni,NA,NA,0,NA,NA,NA,NA,NA,NA,NA,NA,NA,NA,NA,NA,NA,NA,NA,NA,NA,NA,NA
a3a71,"""Richtig""-Screen",canvas.Screen,5_0_0_0_6_0_1,NA,NA,timeout,4999.8,232447.9,232442.45,232459.116,237442.25,237444.1,2023-02-28T13:53:12Z,237458.916,NULL,Kultur,utamaduni,d,NA,NA,NA,NA,sdf,1,0,NA,NA,NA,NA,NA,NA,NA,NA,NA,NA,NA,NA,NA,NA,NA,NA,NA,NA,NA
a3a71,"""Falsch""-Screen",canvas.Screen,5_0_0_0_6_0_2,NA,NA,skipped,NA,237447.7,NA,NA,237442.25,237447.9,2023-02-28T13:53:12Z,237458.916,NULL,Kultur,utamaduni,d,NA,NA,NA,NA,sdf,NA,0,NA,NA,NA,NA,NA,NA,NA,NA,NA,NA,NA,NA,NA,NA,NA,NA,NA,NA,NA
a3a71,deep,flow.Sequence,5_0_0_0_6_0,NA,NA,completion,13566.753,223865.9,223858.831,223875.497,237442.25,237448,2023-02-28T13:53:12Z,237458.916,NULL,Kultur,utamaduni,d,NA,NA,NA,NA,sdf,NA,0,NA,NA,NA,NA,NA,NA,NA,NA,NA,NA,NA,NA,NA,NA,NA,NA,NA,NA,NA
a3a71,shallow,flow.Sequence,5_0_0_0_6_1,NA,NA,skipped,NA,237448,NA,NA,237442.25,237448.2,2023-02-28T13:53:12Z,237458.916,NULL,Kultur,utamaduni,d,NA,NA,NA,NA,sdf,NA,0,NA,NA,NA,NA,NA,NA,NA,NA,NA,NA,NA,NA,NA,NA,NA,NA,NA,NA,NA
a3a71,task,flow.Sequence,5_0_0_0_6,NA,NA,completion,13566.753,223865.8,223858.831,223875.497,237442.25,237448.2,2023-02-28T13:53:12Z,237458.916,NULL,Kultur,utamaduni,d,NA,NA,NA,NA,sdf,NA,0,NA,NA,NA,NA,NA,NA,NA,NA,NA,NA,NA,NA,NA,NA,NA,NA,NA,NA,NA
a3a71,Deep Question,html.Page,5_0_0_0_7_0_0,NA,NA,form submission,8517.8840000007,237448.4,237442.25,237458.916,245976.8,245977.4,2023-02-28T13:53:21Z,245992.634,NULL,Begegnung,kukutana,d,NA,NA,NA,kukutana,NA,NA,0,NA,NA,NA,NA,NA,NA,NA,NA,NA,NA,NA,NA,NA,NA,NA,NA,NA,NA,NA
a3a71,"""Richtig""-Screen",canvas.Screen,5_0_0_0_7_0_1,NA,NA,timeout,4999.8,245980.2,245975.968,245992.634,250975.768,250978.8,2023-02-28T13:53:26Z,250992.434,NULL,Begegnung,kukutana,d,NA,NA,NA,NA,sdf,1,0,NA,NA,NA,NA,NA,NA,NA,NA,NA,NA,NA,NA,NA,NA,NA,NA,NA,NA,NA
a3a71,"""Falsch""-Screen",canvas.Screen,5_0_0_0_7_0_2,NA,NA,skipped,NA,250982.7,NA,NA,250975.768,250982.9,2023-02-28T13:53:26Z,250992.434,NULL,Begegnung,kukutana,d,NA,NA,NA,NA,sdf,NA,0,NA,NA,NA,NA,NA,NA,NA,NA,NA,NA,NA,NA,NA,NA,NA,NA,NA,NA,NA
a3a71,deep,flow.Sequence,5_0_0_0_7_0,NA,NA,completion,13516.852,237448.4,237442.25,237458.916,250975.768,250983,2023-02-28T13:53:26Z,250992.434,NULL,Begegnung,kukutana,d,NA,NA,NA,NA,sdf,NA,0,NA,NA,NA,NA,NA,NA,NA,NA,NA,NA,NA,NA,NA,NA,NA,NA,NA,NA,NA
a3a71,shallow,flow.Sequence,5_0_0_0_7_1,NA,NA,skipped,NA,250983,NA,NA,250975.768,250983.1,2023-02-28T13:53:26Z,250992.434,NULL,Begegnung,kukutana,d,NA,NA,NA,NA,sdf,NA,0,NA,NA,NA,NA,NA,NA,NA,NA,NA,NA,NA,NA,NA,NA,NA,NA,NA,NA,NA
a3a71,task,flow.Sequence,5_0_0_0_7,NA,NA,completion,13516.852,237448.3,237442.25,237458.916,250975.768,250983.2,2023-02-28T13:53:26Z,250992.434,NULL,Begegnung,kukutana,d,NA,NA,NA,NA,sdf,NA,0,NA,NA,NA,NA,NA,NA,NA,NA,NA,NA,NA,NA,NA,NA,NA,NA,NA,NA,NA
a3a71,block,flow.Loop,5_0_0_0,NA,NA,completion,88250.801,162721,162708.301,162724.967,250975.768,250983.3,2023-02-28T13:53:26Z,250992.434,NULL,NA,NA,NA,NA,NA,NA,NA,sdf,NA,0,NA,NA,NA,NA,NA,NA,NA,NA,NA,NA,NA,NA,NA,NA,NA,NA,NA,NA,NA
a3a71,weiter,canvas.Screen,5_0_0_1,sdf,keypress(Space),response,957.06599999999,250983.4,250975.768,250992.434,251949.5,251952.9,2023-02-28T13:53:27Z,252192.386,NULL,NA,NA,NA,NA,NA,NA,NA,sdf,NA,0,NA,NA,NA,NA,NA,NA,NA,NA,NA,NA,NA,NA,NA,NA,NA,NA,NA,NA,NA
a3a71,check continue,flow.Sequence,5_0_0,NA,NA,completion,89224.533,162721,162708.301,162724.967,251949.5,251953.3,2023-02-28T13:53:27Z,252192.386,NULL,NA,NA,NA,NA,NA,NA,NA,sdf,NA,0,NA,NA,NA,NA,NA,NA,NA,NA,NA,NA,NA,NA,NA,NA,NA,NA,NA,NA,NA
a3a71,check continue,flow.Sequence,5_0_1,NA,NA,skipped,NA,251980.3,NA,NA,251949.5,251980.4,2023-02-28T13:53:27Z,252192.386,NULL,NA,NA,NA,NA,NA,NA,NA,sdfdsf,NA,1,NA,NA,NA,NA,NA,NA,NA,NA,NA,NA,NA,NA,NA,NA,NA,NA,NA,NA,NA
a3a71,check continue,flow.Sequence,5_0_2,NA,NA,skipped,NA,251994.4,NA,NA,251949.5,251994.5,2023-02-28T13:53:27Z,252192.386,NULL,NA,NA,NA,NA,NA,NA,NA,sdf,NA,2,NA,NA,NA,NA,NA,NA,NA,NA,NA,NA,NA,NA,NA,NA,NA,NA,NA,NA,NA
a3a71,check continue,flow.Sequence,5_0_3,NA,NA,skipped,NA,252006.4,NA,NA,251949.5,252006.5,2023-02-28T13:53:27Z,252192.386,NULL,NA,NA,NA,NA,NA,NA,NA,qt,NA,3,NA,NA,NA,NA,NA,NA,NA,NA,NA,NA,NA,NA,NA,NA,NA,NA,NA,NA,NA
a3a71,check continue,flow.Sequence,5_0_4,NA,NA,skipped,NA,252015.9,NA,NA,251949.5,252016,2023-02-28T13:53:27Z,252192.386,NULL,NA,NA,NA,NA,NA,NA,NA,sd,NA,4,NA,NA,NA,NA,NA,NA,NA,NA,NA,NA,NA,NA,NA,NA,NA,NA,NA,NA,NA
a3a71,check continue,flow.Sequence,5_0_5,NA,NA,skipped,NA,252024.3,NA,NA,251949.5,252024.3,2023-02-28T13:53:27Z,252192.386,NULL,NA,NA,NA,NA,NA,NA,NA,sdf,NA,5,NA,NA,NA,NA,NA,NA,NA,NA,NA,NA,NA,NA,NA,NA,NA,NA,NA,NA,NA
a3a71,check continue,flow.Sequence,5_0_6,NA,NA,skipped,NA,252032.1,NA,NA,251949.5,252032.1,2023-02-28T13:53:27Z,252192.386,NULL,NA,NA,NA,NA,NA,NA,NA,dfs,NA,6,NA,NA,NA,NA,NA,NA,NA,NA,NA,NA,NA,NA,NA,NA,NA,NA,NA,NA,NA
a3a71,check continue,flow.Sequence,5_0_7,NA,NA,skipped,NA,252039.1,NA,NA,251949.5,252039.2,2023-02-28T13:53:27Z,252192.386,NULL,NA,NA,NA,NA,NA,NA,NA,df,NA,7,NA,NA,NA,NA,NA,NA,NA,NA,NA,NA,NA,NA,NA,NA,NA,NA,NA,NA,NA
a3a71,check continue,flow.Sequence,5_0_8,NA,NA,skipped,NA,252046.2,NA,NA,251949.5,252046.2,2023-02-28T13:53:27Z,252192.386,NULL,NA,NA,NA,NA,NA,NA,NA,dfs,NA,8,NA,NA,NA,NA,NA,NA,NA,NA,NA,NA,NA,NA,NA,NA,NA,NA,NA,NA,NA
a3a71,check continue,flow.Sequence,5_0_9,NA,NA,skipped,NA,252053,NA,NA,251949.5,252053,2023-02-28T13:53:27Z,252192.386,NULL,NA,NA,NA,NA,NA,NA,NA,dsf,NA,9,NA,NA,NA,NA,NA,NA,NA,NA,NA,NA,NA,NA,NA,NA,NA,NA,NA,NA,NA
a3a71,check continue,flow.Sequence,5_0_10,NA,NA,skipped,NA,252059.3,NA,NA,251949.5,252059.3,2023-02-28T13:53:27Z,252192.386,NULL,NA,NA,NA,NA,NA,NA,NA,df,NA,10,NA,NA,NA,NA,NA,NA,NA,NA,NA,NA,NA,NA,NA,NA,NA,NA,NA,NA,NA
a3a71,check continue,flow.Sequence,5_0_11,NA,NA,skipped,NA,252065.3,NA,NA,251949.5,252065.4,2023-02-28T13:53:27Z,252192.386,NULL,NA,NA,NA,NA,NA,NA,NA,dfs,NA,11,NA,NA,NA,NA,NA,NA,NA,NA,NA,NA,NA,NA,NA,NA,NA,NA,NA,NA,NA
a3a71,check continue,flow.Sequence,5_0_12,NA,NA,skipped,NA,252071.3,NA,NA,251949.5,252071.4,2023-02-28T13:53:27Z,252192.386,NULL,NA,NA,NA,NA,NA,NA,NA,dsf,NA,12,NA,NA,NA,NA,NA,NA,NA,NA,NA,NA,NA,NA,NA,NA,NA,NA,NA,NA,NA
a3a71,check continue,flow.Sequence,5_0_13,NA,NA,skipped,NA,252077.2,NA,NA,251949.5,252077.2,2023-02-28T13:53:27Z,252192.386,NULL,NA,NA,NA,NA,NA,NA,NA,dsf,NA,13,NA,NA,NA,NA,NA,NA,NA,NA,NA,NA,NA,NA,NA,NA,NA,NA,NA,NA,NA
a3a71,check continue,flow.Sequence,5_0_14,NA,NA,skipped,NA,252083.2,NA,NA,251949.5,252083.2,2023-02-28T13:53:27Z,252192.386,NULL,NA,NA,NA,NA,NA,NA,NA,NA,NA,14,NA,NA,NA,NA,NA,NA,NA,NA,NA,NA,NA,NA,NA,NA,NA,NA,NA,NA,NA
a3a71,check continue,flow.Sequence,5_0_15,NA,NA,skipped,NA,252089.3,NA,NA,251949.5,252089.3,2023-02-28T13:53:27Z,252192.386,NULL,NA,NA,NA,NA,NA,NA,NA,NA,NA,15,NA,NA,NA,NA,NA,NA,NA,NA,NA,NA,NA,NA,NA,NA,NA,NA,NA,NA,NA
a3a71,check continue,flow.Sequence,5_0_16,NA,NA,skipped,NA,252095.5,NA,NA,251949.5,252095.6,2023-02-28T13:53:27Z,252192.386,NULL,NA,NA,NA,NA,NA,NA,NA,NA,NA,16,NA,NA,NA,NA,NA,NA,NA,NA,NA,NA,NA,NA,NA,NA,NA,NA,NA,NA,NA
a3a71,check continue,flow.Sequence,5_0_17,NA,NA,skipped,NA,252101.3,NA,NA,251949.5,252101.3,2023-02-28T13:53:27Z,252192.386,NULL,NA,NA,NA,NA,NA,NA,NA,NA,NA,17,NA,NA,NA,NA,NA,NA,NA,NA,NA,NA,NA,NA,NA,NA,NA,NA,NA,NA,NA
a3a71,check continue,flow.Sequence,5_0_18,NA,NA,skipped,NA,252107.5,NA,NA,251949.5,252107.5,2023-02-28T13:53:27Z,252192.386,NULL,NA,NA,NA,NA,NA,NA,NA,NA,NA,18,NA,NA,NA,NA,NA,NA,NA,NA,NA,NA,NA,NA,NA,NA,NA,NA,NA,NA,NA
a3a71,check continue,flow.Sequence,5_0_19,NA,NA,skipped,NA,252113.1,NA,NA,251949.5,252113.2,2023-02-28T13:53:27Z,252192.386,NULL,NA,NA,NA,NA,NA,NA,NA,NA,NA,19,NA,NA,NA,NA,NA,NA,NA,NA,NA,NA,NA,NA,NA,NA,NA,NA,NA,NA,NA
a3a71,check continue,flow.Sequence,5_0_20,NA,NA,skipped,NA,252119.2,NA,NA,251949.5,252119.2,2023-02-28T13:53:27Z,252192.386,NULL,NA,NA,NA,NA,NA,NA,NA,NA,NA,20,NA,NA,NA,NA,NA,NA,NA,NA,NA,NA,NA,NA,NA,NA,NA,NA,NA,NA,NA
a3a71,check continue,flow.Sequence,5_0_21,NA,NA,skipped,NA,252124.7,NA,NA,251949.5,252124.7,2023-02-28T13:53:27Z,252192.386,NULL,NA,NA,NA,NA,NA,NA,NA,NA,NA,21,NA,NA,NA,NA,NA,NA,NA,NA,NA,NA,NA,NA,NA,NA,NA,NA,NA,NA,NA
a3a71,check continue,flow.Sequence,5_0_22,NA,NA,skipped,NA,252130.6,NA,NA,251949.5,252130.6,2023-02-28T13:53:27Z,252192.386,NULL,NA,NA,NA,NA,NA,NA,NA,NA,NA,22,NA,NA,NA,NA,NA,NA,NA,NA,NA,NA,NA,NA,NA,NA,NA,NA,NA,NA,NA
a3a71,check continue,flow.Sequence,5_0_23,NA,NA,skipped,NA,252136.1,NA,NA,251949.5,252136.1,2023-02-28T13:53:27Z,252192.386,NULL,NA,NA,NA,NA,NA,NA,NA,NA,NA,23,NA,NA,NA,NA,NA,NA,NA,NA,NA,NA,NA,NA,NA,NA,NA,NA,NA,NA,NA
a3a71,check continue,flow.Sequence,5_0_24,NA,NA,skipped,NA,252145.2,NA,NA,251949.5,252145.3,2023-02-28T13:53:27Z,252192.386,NULL,NA,NA,NA,NA,NA,NA,NA,NA,NA,24,NA,NA,NA,NA,NA,NA,NA,NA,NA,NA,NA,NA,NA,NA,NA,NA,NA,NA,NA
a3a71,check continue,flow.Sequence,5_0_25,NA,NA,skipped,NA,252155.7,NA,NA,251949.5,252155.8,2023-02-28T13:53:27Z,252192.386,NULL,NA,NA,NA,NA,NA,NA,NA,NA,NA,25,NA,NA,NA,NA,NA,NA,NA,NA,NA,NA,NA,NA,NA,NA,NA,NA,NA,NA,NA
a3a71,check continue,flow.Sequence,5_0_26,NA,NA,skipped,NA,252161.5,NA,NA,251949.5,252161.5,2023-02-28T13:53:27Z,252192.386,NULL,NA,NA,NA,NA,NA,NA,NA,NA,NA,26,NA,NA,NA,NA,NA,NA,NA,NA,NA,NA,NA,NA,NA,NA,NA,NA,NA,NA,NA
a3a71,check continue,flow.Sequence,5_0_27,NA,NA,skipped,NA,252167.6,NA,NA,251949.5,252167.6,2023-02-28T13:53:27Z,252192.386,NULL,NA,NA,NA,NA,NA,NA,NA,NA,NA,27,NA,NA,NA,NA,NA,NA,NA,NA,NA,NA,NA,NA,NA,NA,NA,NA,NA,NA,NA
a3a71,check continue,flow.Sequence,5_0_28,NA,NA,skipped,NA,252172.9,NA,NA,251949.5,252172.9,2023-02-28T13:53:27Z,252192.386,NULL,NA,NA,NA,NA,NA,NA,NA,NA,NA,28,NA,NA,NA,NA,NA,NA,NA,NA,NA,NA,NA,NA,NA,NA,NA,NA,NA,NA,NA
a3a71,check continue,flow.Sequence,5_0_29,NA,NA,skipped,NA,252179.3,NA,NA,251949.5,252179.3,2023-02-28T13:53:27Z,252192.386,NULL,NA,NA,NA,NA,NA,NA,NA,NA,NA,29,NA,NA,NA,NA,NA,NA,NA,NA,NA,NA,NA,NA,NA,NA,NA,NA,NA,NA,NA
a3a71,until continue,flow.Loop,5_0,NA,NA,completion,89224.533,162709.5,162708.301,162724.967,251949.5,252179.4,2023-02-28T13:53:27Z,252192.386,NULL,NA,NA,NA,NA,NA,NA,NA,NA,NA,NA,NA,NA,NA,NA,NA,NA,NA,NA,NA,NA,NA,NA,NA,NA,NA,NA,NA,NA,NA
a3a71,block 2,flow.Sequence,5,NA,NA,completion,89224.533,162709.5,162708.301,162724.967,251949.5,252179.4,2023-02-28T13:53:27Z,252192.386,NULL,NA,NA,NA,NA,NA,NA,NA,NA,NA,NA,NA,NA,NA,NA,NA,NA,NA,NA,NA,NA,NA,NA,NA,NA,NA,NA,NA,NA,NA
a3a71,2.Part Over,canvas.Screen,6,NA,keypress(Space),response,1104.0140000022,252179.4,252175.72,252192.386,253296.4,253299.5,2023-02-28T13:53:28Z,253359.006,NULL,NA,NA,NA,NA,NA,NA,NA,NA,NA,NA,NA,NA,NA,NA,NA,NA,NA,NA,NA,NA,NA,NA,NA,NA,NA,NA,NA,NA,NA
a3a71,Deep Question,html.Page,7_0_0_0_0_0_0,NA,NA,form submission,18678.694000003,253350.2,253342.34,253359.006,272037.7,272038.2,2023-02-28T13:53:47Z,272042.642,NULL,Flexibilität,kubadilika,d,NA,NA,NA,l,NA,NA,0,NA,NA,NA,NA,NA,NA,NA,NA,NA,NA,NA,NA,NA,NA,NA,NA,NA,NA,NA
a3a71,"""Richtig""-Screen",canvas.Screen,7_0_0_0_0_0_1,NA,NA,skipped,NA,272041.7,NA,NA,272037.7,272041.9,2023-02-28T13:53:47Z,272042.642,NULL,Flexibilität,kubadilika,d,NA,NA,NA,NA,sdf,NA,0,NA,NA,NA,NA,NA,NA,NA,NA,NA,NA,NA,NA,NA,NA,NA,NA,NA,NA,NA
a3a71,"""Falsch""-Screen",canvas.Screen,7_0_0_0_0_0_2,NA,NA,timeout,4999.8,272042.8,272025.976,272042.642,277025.776,277028,2023-02-28T13:53:52Z,277042.442,NULL,Flexibilität,kubadilika,d,NA,NA,NA,NA,sdf,0,0,NA,NA,NA,NA,NA,NA,NA,NA,NA,NA,NA,NA,NA,NA,NA,NA,NA,NA,NA
a3a71,deep,flow.Sequence,7_0_0_0_0_0,NA,NA,completion,23666.77,253350.2,253342.34,253359.006,277025.776,277028.4,2023-02-28T13:53:52Z,277042.442,NULL,Flexibilität,kubadilika,d,NA,NA,NA,NA,sdf,NA,0,NA,NA,NA,NA,NA,NA,NA,NA,NA,NA,NA,NA,NA,NA,NA,NA,NA,NA,NA
a3a71,shallow,flow.Sequence,7_0_0_0_0_1,NA,NA,skipped,NA,277028.6,NA,NA,277025.776,277028.7,2023-02-28T13:53:52Z,277042.442,NULL,Flexibilität,kubadilika,d,NA,NA,NA,NA,sdf,NA,0,NA,NA,NA,NA,NA,NA,NA,NA,NA,NA,NA,NA,NA,NA,NA,NA,NA,NA,NA
a3a71,task,flow.Sequence,7_0_0_0_0,NA,NA,completion,23666.77,253350.1,253342.34,253359.006,277025.776,277028.9,2023-02-28T13:53:52Z,277042.442,NULL,Flexibilität,kubadilika,d,NA,NA,NA,NA,sdf,NA,0,NA,NA,NA,NA,NA,NA,NA,NA,NA,NA,NA,NA,NA,NA,NA,NA,NA,NA,NA
a3a71,Deep Question,html.Page,7_0_0_0_1_0_0,NA,NA,form submission,6362.3580000008,277029.1,277025.776,277042.442,283404.8,283405.3,2023-02-28T13:53:58Z,283426.261,NULL,Kanzler,diwani,d,NA,NA,NA,diwani,NA,NA,0,NA,NA,NA,NA,NA,NA,NA,NA,NA,NA,NA,NA,NA,NA,NA,NA,NA,NA,NA
a3a71,"""Richtig""-Screen",canvas.Screen,7_0_0_0_1_0_1,NA,NA,timeout,4999.8,283409,283392.929,283426.261,288409.395,288412.1,2023-02-28T13:54:03Z,288426.061,NULL,Kanzler,diwani,d,NA,NA,NA,NA,sdf,1,0,NA,NA,NA,NA,NA,NA,NA,NA,NA,NA,NA,NA,NA,NA,NA,NA,NA,NA,NA
a3a71,"""Falsch""-Screen",canvas.Screen,7_0_0_0_1_0_2,NA,NA,skipped,NA,288417,NA,NA,288409.395,288417.2,2023-02-28T13:54:03Z,288426.061,NULL,Kanzler,diwani,d,NA,NA,NA,NA,sdf,NA,0,NA,NA,NA,NA,NA,NA,NA,NA,NA,NA,NA,NA,NA,NA,NA,NA,NA,NA,NA
a3a71,deep,flow.Sequence,7_0_0_0_1_0,NA,NA,completion,11366.953,277029.1,277025.776,277042.442,288409.395,288417.4,2023-02-28T13:54:03Z,288426.061,NULL,Kanzler,diwani,d,NA,NA,NA,NA,sdf,NA,0,NA,NA,NA,NA,NA,NA,NA,NA,NA,NA,NA,NA,NA,NA,NA,NA,NA,NA,NA
a3a71,shallow,flow.Sequence,7_0_0_0_1_1,NA,NA,skipped,NA,288417.5,NA,NA,288409.395,288417.6,2023-02-28T13:54:03Z,288426.061,NULL,Kanzler,diwani,d,NA,NA,NA,NA,sdf,NA,0,NA,NA,NA,NA,NA,NA,NA,NA,NA,NA,NA,NA,NA,NA,NA,NA,NA,NA,NA
a3a71,task,flow.Sequence,7_0_0_0_1,NA,NA,completion,11366.953,277029,277025.776,277042.442,288409.395,288417.7,2023-02-28T13:54:03Z,288426.061,NULL,Kanzler,diwani,d,NA,NA,NA,NA,sdf,NA,0,NA,NA,NA,NA,NA,NA,NA,NA,NA,NA,NA,NA,NA,NA,NA,NA,NA,NA,NA
a3a71,deep,flow.Sequence,7_0_0_0_2_0,NA,NA,skipped,NA,288417.8,NA,NA,288409.395,288417.8,2023-02-28T13:54:03Z,288426.061,NULL,Angreifer,mshambulizi,s,kitengo,tasinia,usafirishaji,NA,sdf,NA,0,NA,NA,NA,NA,NA,NA,NA,NA,NA,NA,NA,NA,NA,NA,NA,NA,NA,NA,NA
a3a71,Shallow Question,html.Page,7_0_0_0_2_1_0,NA,NA,form submission,3789.139000003,288418,288409.395,288426.061,292215.2,292215.7,2023-02-28T13:54:07Z,292226.505,NULL,Angreifer,mshambulizi,s,kitengo,tasinia,usafirishaji,mshambulizi,NA,NA,0,NA,NA,NA,NA,NA,NA,NA,NA,NA,NA,NA,NA,NA,NA,NA,NA,NA,NA,NA
a3a71,"""Richtig""-Screen",canvas.Screen,7_0_0_0_2_1_1,NA,NA,timeout,4999.8,292219.3,292209.839,292226.505,297209.639,297212.3,2023-02-28T13:54:12Z,297226.305,NULL,Angreifer,mshambulizi,s,kitengo,tasinia,usafirishaji,NA,sdf,1,0,NA,NA,NA,NA,NA,NA,NA,NA,NA,NA,NA,NA,NA,NA,NA,NA,NA,NA,NA
a3a71,"""Falsch""-Screen",canvas.Screen,7_0_0_0_2_1_2,NA,NA,skipped,NA,297216.3,NA,NA,297209.639,297216.5,2023-02-28T13:54:12Z,297226.305,NULL,Angreifer,mshambulizi,s,kitengo,tasinia,usafirishaji,NA,sdf,NA,0,NA,NA,NA,NA,NA,NA,NA,NA,NA,NA,NA,NA,NA,NA,NA,NA,NA,NA,NA
a3a71,shallow,flow.Sequence,7_0_0_0_2_1,NA,NA,completion,8783.578,288418,288409.395,288426.061,297209.639,297216.6,2023-02-28T13:54:12Z,297226.305,NULL,Angreifer,mshambulizi,s,kitengo,tasinia,usafirishaji,NA,sdf,NA,0,NA,NA,NA,NA,NA,NA,NA,NA,NA,NA,NA,NA,NA,NA,NA,NA,NA,NA,NA
a3a71,task,flow.Sequence,7_0_0_0_2,NA,NA,completion,8783.578,288417.8,288409.395,288426.061,297209.639,297216.7,2023-02-28T13:54:12Z,297226.305,NULL,Angreifer,mshambulizi,s,kitengo,tasinia,usafirishaji,NA,sdf,NA,0,NA,NA,NA,NA,NA,NA,NA,NA,NA,NA,NA,NA,NA,NA,NA,NA,NA,NA,NA
a3a71,deep,flow.Sequence,7_0_0_0_3_0,NA,NA,skipped,NA,297216.8,NA,NA,297209.639,297216.9,2023-02-28T13:54:12Z,297226.305,NULL,Wechsel,ugeuzaji,s,utambulisho,kujenga,wasiwasi,NA,sdf,NA,0,NA,NA,NA,NA,NA,NA,NA,NA,NA,NA,NA,NA,NA,NA,NA,NA,NA,NA,NA
a3a71,Shallow Question,html.Page,7_0_0_0_3_1_0,NA,NA,form submission,8822.395000003,297216.9,297209.639,297226.305,306048.7,306049,2023-02-28T13:54:21Z,306059.934,NULL,Wechsel,ugeuzaji,s,utambulisho,kujenga,wasiwasi,ugeuzaji,NA,NA,0,NA,NA,NA,NA,NA,NA,NA,NA,NA,NA,NA,NA,NA,NA,NA,NA,NA,NA,NA
a3a71,"""Richtig""-Screen",canvas.Screen,7_0_0_0_3_1_1,NA,NA,timeout,4999.8,306051.4,306043.268,306059.934,311043.068,311045.7,2023-02-28T13:54:26Z,311059.734,NULL,Wechsel,ugeuzaji,s,utambulisho,kujenga,wasiwasi,NA,sdf,1,0,NA,NA,NA,NA,NA,NA,NA,NA,NA,NA,NA,NA,NA,NA,NA,NA,NA,NA,NA
a3a71,"""Falsch""-Screen",canvas.Screen,7_0_0_0_3_1_2,NA,NA,skipped,NA,311048.7,NA,NA,311043.068,311048.9,2023-02-28T13:54:26Z,311059.734,NULL,Wechsel,ugeuzaji,s,utambulisho,kujenga,wasiwasi,NA,sdf,NA,0,NA,NA,NA,NA,NA,NA,NA,NA,NA,NA,NA,NA,NA,NA,NA,NA,NA,NA,NA
a3a71,shallow,flow.Sequence,7_0_0_0_3_1,NA,NA,completion,13816.763,297216.9,297209.639,297226.305,311043.068,311048.9,2023-02-28T13:54:26Z,311059.734,NULL,Wechsel,ugeuzaji,s,utambulisho,kujenga,wasiwasi,NA,sdf,NA,0,NA,NA,NA,NA,NA,NA,NA,NA,NA,NA,NA,NA,NA,NA,NA,NA,NA,NA,NA
a3a71,task,flow.Sequence,7_0_0_0_3,NA,NA,completion,13816.763,297216.7,297209.639,297226.305,311043.068,311049.1,2023-02-28T13:54:26Z,311059.734,NULL,Wechsel,ugeuzaji,s,utambulisho,kujenga,wasiwasi,NA,sdf,NA,0,NA,NA,NA,NA,NA,NA,NA,NA,NA,NA,NA,NA,NA,NA,NA,NA,NA,NA,NA
a3a71,Deep Question,html.Page,7_0_0_0_4_0_0,NA,NA,form submission,8144.6660000022,311049.2,311043.068,311059.734,319204.4,319205,2023-02-28T13:54:34Z,319209.941,NULL,Atmosphäre,angahewa,d,NA,NA,NA,anghara,NA,NA,0,NA,NA,NA,NA,NA,NA,NA,NA,NA,NA,NA,NA,NA,NA,NA,NA,NA,NA,NA
a3a71,"""Richtig""-Screen",canvas.Screen,7_0_0_0_4_0_1,NA,NA,skipped,NA,319209.7,NA,NA,319204.4,319209.9,2023-02-28T13:54:34Z,319209.941,NULL,Atmosphäre,angahewa,d,NA,NA,NA,NA,sdf,NA,0,NA,NA,NA,NA,NA,NA,NA,NA,NA,NA,NA,NA,NA,NA,NA,NA,NA,NA,NA
a3a71,"""Falsch""-Screen",canvas.Screen,7_0_0_0_4_0_2,NA,NA,timeout,4999.8,319210.7,319193.275,319209.941,324193.075,324195.2,2023-02-28T13:54:39Z,324209.741,NULL,Atmosphäre,angahewa,d,NA,NA,NA,NA,sdf,0,0,NA,NA,NA,NA,NA,NA,NA,NA,NA,NA,NA,NA,NA,NA,NA,NA,NA,NA,NA
a3a71,deep,flow.Sequence,7_0_0_0_4_0,NA,NA,completion,13133.341,311049.2,311043.068,311059.734,324193.075,324195.6,2023-02-28T13:54:39Z,324209.741,NULL,Atmosphäre,angahewa,d,NA,NA,NA,NA,sdf,NA,0,NA,NA,NA,NA,NA,NA,NA,NA,NA,NA,NA,NA,NA,NA,NA,NA,NA,NA,NA
a3a71,shallow,flow.Sequence,7_0_0_0_4_1,NA,NA,skipped,NA,324195.8,NA,NA,324193.075,324196.1,2023-02-28T13:54:39Z,324209.741,NULL,Atmosphäre,angahewa,d,NA,NA,NA,NA,sdf,NA,0,NA,NA,NA,NA,NA,NA,NA,NA,NA,NA,NA,NA,NA,NA,NA,NA,NA,NA,NA
a3a71,task,flow.Sequence,7_0_0_0_4,NA,NA,completion,13133.341,311049.1,311043.068,311059.734,324193.075,324196.3,2023-02-28T13:54:39Z,324209.741,NULL,Atmosphäre,angahewa,d,NA,NA,NA,NA,sdf,NA,0,NA,NA,NA,NA,NA,NA,NA,NA,NA,NA,NA,NA,NA,NA,NA,NA,NA,NA,NA
a3a71,Deep Question,html.Page,7_0_0_0_5_0_0,NA,NA,form submission,3452.1590000023,324196.6,324193.075,324209.741,327661.9,327662.3,2023-02-28T13:54:42Z,327676.969,NULL,Abrechnung,uhasibu,d,NA,NA,NA,g,NA,NA,0,NA,NA,NA,NA,NA,NA,NA,NA,NA,NA,NA,NA,NA,NA,NA,NA,NA,NA,NA
a3a71,"""Richtig""-Screen",canvas.Screen,7_0_0_0_5_0_1,NA,NA,skipped,NA,327666.2,NA,NA,327661.9,327666.4,2023-02-28T13:54:42Z,327676.969,NULL,Abrechnung,uhasibu,d,NA,NA,NA,NA,sdf,NA,0,NA,NA,NA,NA,NA,NA,NA,NA,NA,NA,NA,NA,NA,NA,NA,NA,NA,NA,NA
a3a71,"""Falsch""-Screen",canvas.Screen,7_0_0_0_5_0_2,NA,NA,timeout,4999.8,327667.2,327660.303,327676.969,332660.103,332661.4,2023-02-28T13:54:47Z,332676.769,NULL,Abrechnung,uhasibu,d,NA,NA,NA,NA,sdf,0,0,NA,NA,NA,NA,NA,NA,NA,NA,NA,NA,NA,NA,NA,NA,NA,NA,NA,NA,NA
a3a71,deep,flow.Sequence,7_0_0_0_5_0,NA,NA,completion,8450.362,324196.6,324193.075,324209.741,332660.103,332661.9,2023-02-28T13:54:47Z,332676.769,NULL,Abrechnung,uhasibu,d,NA,NA,NA,NA,sdf,NA,0,NA,NA,NA,NA,NA,NA,NA,NA,NA,NA,NA,NA,NA,NA,NA,NA,NA,NA,NA
a3a71,shallow,flow.Sequence,7_0_0_0_5_1,NA,NA,skipped,NA,332662,NA,NA,332660.103,332662.2,2023-02-28T13:54:47Z,332676.769,NULL,Abrechnung,uhasibu,d,NA,NA,NA,NA,sdf,NA,0,NA,NA,NA,NA,NA,NA,NA,NA,NA,NA,NA,NA,NA,NA,NA,NA,NA,NA,NA
a3a71,task,flow.Sequence,7_0_0_0_5,NA,NA,completion,8450.362,324196.5,324193.075,324209.741,332660.103,332662.3,2023-02-28T13:54:47Z,332676.769,NULL,Abrechnung,uhasibu,d,NA,NA,NA,NA,sdf,NA,0,NA,NA,NA,NA,NA,NA,NA,NA,NA,NA,NA,NA,NA,NA,NA,NA,NA,NA,NA
a3a71,deep,flow.Sequence,7_0_0_0_6_0,NA,NA,skipped,NA,332662.4,NA,NA,332660.103,332662.6,2023-02-28T13:54:47Z,332676.769,NULL,Sänger,mwimbaji,s,msichana,shughuli,mshirika,NA,sdf,NA,0,NA,NA,NA,NA,NA,NA,NA,NA,NA,NA,NA,NA,NA,NA,NA,NA,NA,NA,NA
a3a71,Shallow Question,html.Page,7_0_0_0_6_1_0,NA,NA,form submission,7705.731,332662.7,332660.103,332676.769,340382.5,340382.9,2023-02-28T13:54:55Z,340393.127,NULL,Sänger,mwimbaji,s,msichana,shughuli,mshirika,mwimbaji,NA,NA,0,NA,NA,NA,NA,NA,NA,NA,NA,NA,NA,NA,NA,NA,NA,NA,NA,NA,NA,NA
a3a71,"""Richtig""-Screen",canvas.Screen,7_0_0_0_6_1_1,NA,NA,timeout,4999.8,340385.8,340376.461,340393.127,345376.261,345378.7,2023-02-28T13:55:00Z,345392.927,NULL,Sänger,mwimbaji,s,msichana,shughuli,mshirika,NA,sdf,1,0,NA,NA,NA,NA,NA,NA,NA,NA,NA,NA,NA,NA,NA,NA,NA,NA,NA,NA,NA
a3a71,"""Falsch""-Screen",canvas.Screen,7_0_0_0_6_1_2,NA,NA,skipped,NA,345382.9,NA,NA,345376.261,345383,2023-02-28T13:55:00Z,345392.927,NULL,Sänger,mwimbaji,s,msichana,shughuli,mshirika,NA,sdf,NA,0,NA,NA,NA,NA,NA,NA,NA,NA,NA,NA,NA,NA,NA,NA,NA,NA,NA,NA,NA
a3a71,shallow,flow.Sequence,7_0_0_0_6_1,NA,NA,completion,12699.492,332662.7,332660.103,332676.769,345376.261,345383.2,2023-02-28T13:55:00Z,345392.927,NULL,Sänger,mwimbaji,s,msichana,shughuli,mshirika,NA,sdf,NA,0,NA,NA,NA,NA,NA,NA,NA,NA,NA,NA,NA,NA,NA,NA,NA,NA,NA,NA,NA
a3a71,task,flow.Sequence,7_0_0_0_6,NA,NA,completion,12699.492,332662.4,332660.103,332676.769,345376.261,345383.2,2023-02-28T13:55:00Z,345392.927,NULL,Sänger,mwimbaji,s,msichana,shughuli,mshirika,NA,sdf,NA,0,NA,NA,NA,NA,NA,NA,NA,NA,NA,NA,NA,NA,NA,NA,NA,NA,NA,NA,NA
a3a71,deep,flow.Sequence,7_0_0_0_7_0,NA,NA,skipped,NA,345383.3,NA,NA,345376.261,345383.4,2023-02-28T13:55:00Z,345392.927,NULL,Erneuerung,ukarabati,s,ushawishi,ukalifu,unyonyaji,NA,sdf,NA,0,NA,NA,NA,NA,NA,NA,NA,NA,NA,NA,NA,NA,NA,NA,NA,NA,NA,NA,NA
a3a71,Shallow Question,html.Page,7_0_0_0_7_1_0,NA,NA,form submission,8774.9730000022,345383.5,345376.261,345392.927,354167.9,354168.2,2023-02-28T13:55:09Z,354177.023,NULL,Erneuerung,ukarabati,s,ushawishi,ukalifu,unyonyaji,ukalifu,NA,NA,0,NA,NA,NA,NA,NA,NA,NA,NA,NA,NA,NA,NA,NA,NA,NA,NA,NA,NA,NA
a3a71,"""Richtig""-Screen",canvas.Screen,7_0_0_0_7_1_1,NA,NA,skipped,NA,354171.1,NA,NA,354167.9,354171.2,2023-02-28T13:55:09Z,354177.023,NULL,Erneuerung,ukarabati,s,ushawishi,ukalifu,unyonyaji,NA,sdf,NA,0,NA,NA,NA,NA,NA,NA,NA,NA,NA,NA,NA,NA,NA,NA,NA,NA,NA,NA,NA
a3a71,"""Falsch""-Screen",canvas.Screen,7_0_0_0_7_1_2,NA,NA,timeout,4999.8,354171.8,354160.357,354177.023,359160.157,359162.1,2023-02-28T13:55:14Z,359176.823,NULL,Erneuerung,ukarabati,s,ushawishi,ukalifu,unyonyaji,NA,sdf,0,0,NA,NA,NA,NA,NA,NA,NA,NA,NA,NA,NA,NA,NA,NA,NA,NA,NA,NA,NA
a3a71,shallow,flow.Sequence,7_0_0_0_7_1,NA,NA,completion,13767.23,345383.4,345376.261,345392.927,359160.157,359162.6,2023-02-28T13:55:14Z,359176.823,NULL,Erneuerung,ukarabati,s,ushawishi,ukalifu,unyonyaji,NA,sdf,NA,0,NA,NA,NA,NA,NA,NA,NA,NA,NA,NA,NA,NA,NA,NA,NA,NA,NA,NA,NA
a3a71,task,flow.Sequence,7_0_0_0_7,NA,NA,completion,13767.23,345383.3,345376.261,345392.927,359160.157,359162.7,2023-02-28T13:55:14Z,359176.823,NULL,Erneuerung,ukarabati,s,ushawishi,ukalifu,unyonyaji,NA,sdf,NA,0,NA,NA,NA,NA,NA,NA,NA,NA,NA,NA,NA,NA,NA,NA,NA,NA,NA,NA,NA
a3a71,block,flow.Loop,7_0_0_0,NA,NA,completion,105801.151,253350.1,253342.34,253359.006,359160.157,359163,2023-02-28T13:55:14Z,359176.823,NULL,NA,NA,NA,NA,NA,NA,NA,sdf,NA,0,NA,NA,NA,NA,NA,NA,NA,NA,NA,NA,NA,NA,NA,NA,NA,NA,NA,NA,NA
a3a71,weiter,canvas.Screen,7_0_0_1,sdf,keypress(Space),response,1241.177,359163.1,359160.157,359176.823,360418,360421.8,2023-02-28T13:55:15Z,360444.117,NULL,NA,NA,NA,NA,NA,NA,NA,sdf,NA,0,NA,NA,NA,NA,NA,NA,NA,NA,NA,NA,NA,NA,NA,NA,NA,NA,NA,NA,NA
a3a71,check continue,flow.Sequence,7_0_0,NA,NA,completion,107058.994,253350.1,253342.34,253359.006,360418,360422,2023-02-28T13:55:15Z,360444.117,NULL,NA,NA,NA,NA,NA,NA,NA,sdf,NA,0,NA,NA,NA,NA,NA,NA,NA,NA,NA,NA,NA,NA,NA,NA,NA,NA,NA,NA,NA
a3a71,deep,flow.Sequence,7_0_1_0_0_0,NA,NA,skipped,NA,360447.4,NA,NA,360418,360447.6,2023-02-28T13:55:15Z,360444.117,NULL,Erneuerung,ukarabati,s,ushawishi,ukalifu,unyonyaji,NA,sdfdsf,NA,1,NA,NA,NA,NA,NA,NA,NA,NA,NA,NA,NA,NA,NA,NA,NA,NA,NA,NA,NA
a3a71,Shallow Question,html.Page,7_0_1_0_0_1_0,NA,NA,form submission,4773.383,360447.6,360410.785,360444.117,365217.5,365218,2023-02-28T13:55:20Z,365227.259,NULL,Erneuerung,ukarabati,s,ushawishi,ukalifu,unyonyaji,ukarabati,NA,NA,1,NA,NA,NA,NA,NA,NA,NA,NA,NA,NA,NA,NA,NA,NA,NA,NA,NA,NA,NA
a3a71,"""Richtig""-Screen",canvas.Screen,7_0_1_0_0_1_1,NA,NA,timeout,4999.8,365220.7,365210.593,365227.259,370210.393,370212.3,2023-02-28T13:55:25Z,370227.059,NULL,Erneuerung,ukarabati,s,ushawishi,ukalifu,unyonyaji,NA,sdfdsf,1,1,NA,NA,NA,NA,NA,NA,NA,NA,NA,NA,NA,NA,NA,NA,NA,NA,NA,NA,NA
a3a71,"""Falsch""-Screen",canvas.Screen,7_0_1_0_0_1_2,NA,NA,skipped,NA,370217.4,NA,NA,370210.393,370217.6,2023-02-28T13:55:25Z,370227.059,NULL,Erneuerung,ukarabati,s,ushawishi,ukalifu,unyonyaji,NA,sdfdsf,NA,1,NA,NA,NA,NA,NA,NA,NA,NA,NA,NA,NA,NA,NA,NA,NA,NA,NA,NA,NA
a3a71,shallow,flow.Sequence,7_0_1_0_0_1,NA,NA,completion,9766.276,360447.6,360410.785,360444.117,370210.393,370217.8,2023-02-28T13:55:25Z,370227.059,NULL,Erneuerung,ukarabati,s,ushawishi,ukalifu,unyonyaji,NA,sdfdsf,NA,1,NA,NA,NA,NA,NA,NA,NA,NA,NA,NA,NA,NA,NA,NA,NA,NA,NA,NA,NA
a3a71,task,flow.Sequence,7_0_1_0_0,NA,NA,completion,9766.276,360447.4,360410.785,360444.117,370210.393,370218,2023-02-28T13:55:25Z,370227.059,NULL,Erneuerung,ukarabati,s,ushawishi,ukalifu,unyonyaji,NA,sdfdsf,NA,1,NA,NA,NA,NA,NA,NA,NA,NA,NA,NA,NA,NA,NA,NA,NA,NA,NA,NA,NA
a3a71,deep,flow.Sequence,7_0_1_0_1_0,NA,NA,skipped,NA,370218.1,NA,NA,370210.393,370218.2,2023-02-28T13:55:25Z,370227.059,NULL,Sänger,mwimbaji,s,msichana,shughuli,mshirika,NA,sdfdsf,NA,1,NA,NA,NA,NA,NA,NA,NA,NA,NA,NA,NA,NA,NA,NA,NA,NA,NA,NA,NA
a3a71,Shallow Question,html.Page,7_0_1_0_1_1_0,NA,NA,form submission,3489.7410000007,370218.4,370210.393,370227.059,373716.8,373717.2,2023-02-28T13:55:28Z,373727.534,NULL,Sänger,mwimbaji,s,msichana,shughuli,mshirika,mwimbaji,NA,NA,1,NA,NA,NA,NA,NA,NA,NA,NA,NA,NA,NA,NA,NA,NA,NA,NA,NA,NA,NA
a3a71,"""Richtig""-Screen",canvas.Screen,7_0_1_0_1_1_1,NA,NA,timeout,4999.8,373719.6,373710.868,373727.534,378710.668,378713.5,2023-02-28T13:55:33Z,378727.334,NULL,Sänger,mwimbaji,s,msichana,shughuli,mshirika,NA,sdfdsf,1,1,NA,NA,NA,NA,NA,NA,NA,NA,NA,NA,NA,NA,NA,NA,NA,NA,NA,NA,NA
a3a71,"""Falsch""-Screen",canvas.Screen,7_0_1_0_1_1_2,NA,NA,skipped,NA,378718.6,NA,NA,378710.668,378718.8,2023-02-28T13:55:33Z,378727.334,NULL,Sänger,mwimbaji,s,msichana,shughuli,mshirika,NA,sdfdsf,NA,1,NA,NA,NA,NA,NA,NA,NA,NA,NA,NA,NA,NA,NA,NA,NA,NA,NA,NA,NA
a3a71,shallow,flow.Sequence,7_0_1_0_1_1,NA,NA,completion,8483.609,370218.3,370210.393,370227.059,378710.668,378719,2023-02-28T13:55:33Z,378727.334,NULL,Sänger,mwimbaji,s,msichana,shughuli,mshirika,NA,sdfdsf,NA,1,NA,NA,NA,NA,NA,NA,NA,NA,NA,NA,NA,NA,NA,NA,NA,NA,NA,NA,NA
a3a71,task,flow.Sequence,7_0_1_0_1,NA,NA,completion,8483.609,370218.1,370210.393,370227.059,378710.668,378719.1,2023-02-28T13:55:33Z,378727.334,NULL,Sänger,mwimbaji,s,msichana,shughuli,mshirika,NA,sdfdsf,NA,1,NA,NA,NA,NA,NA,NA,NA,NA,NA,NA,NA,NA,NA,NA,NA,NA,NA,NA,NA
a3a71,Deep Question,html.Page,7_0_1_0_2_0_0,NA,NA,form submission,6389.4660000008,378719.2,378710.668,378727.334,385116.8,385117.2,2023-02-28T13:55:40Z,385127.575,NULL,Flexibilität,kubadilika,d,NA,NA,NA,kubadilika,NA,NA,1,NA,NA,NA,NA,NA,NA,NA,NA,NA,NA,NA,NA,NA,NA,NA,NA,NA,NA,NA
a3a71,"""Richtig""-Screen",canvas.Screen,7_0_1_0_2_0_1,NA,NA,timeout,4999.8,385119.9,385110.909,385127.575,390110.709,390113.2,2023-02-28T13:55:45Z,390127.375,NULL,Flexibilität,kubadilika,d,NA,NA,NA,NA,sdfdsf,1,1,NA,NA,NA,NA,NA,NA,NA,NA,NA,NA,NA,NA,NA,NA,NA,NA,NA,NA,NA
a3a71,"""Falsch""-Screen",canvas.Screen,7_0_1_0_2_0_2,NA,NA,skipped,NA,390117.8,NA,NA,390110.709,390117.9,2023-02-28T13:55:45Z,390127.375,NULL,Flexibilität,kubadilika,d,NA,NA,NA,NA,sdfdsf,NA,1,NA,NA,NA,NA,NA,NA,NA,NA,NA,NA,NA,NA,NA,NA,NA,NA,NA,NA,NA
a3a71,deep,flow.Sequence,7_0_1_0_2_0,NA,NA,completion,11383.375,378719.1,378710.668,378727.334,390110.709,390118.1,2023-02-28T13:55:45Z,390127.375,NULL,Flexibilität,kubadilika,d,NA,NA,NA,NA,sdfdsf,NA,1,NA,NA,NA,NA,NA,NA,NA,NA,NA,NA,NA,NA,NA,NA,NA,NA,NA,NA,NA
a3a71,shallow,flow.Sequence,7_0_1_0_2_1,NA,NA,skipped,NA,390118.2,NA,NA,390110.709,390118.3,2023-02-28T13:55:45Z,390127.375,NULL,Flexibilität,kubadilika,d,NA,NA,NA,NA,sdfdsf,NA,1,NA,NA,NA,NA,NA,NA,NA,NA,NA,NA,NA,NA,NA,NA,NA,NA,NA,NA,NA
a3a71,task,flow.Sequence,7_0_1_0_2,NA,NA,completion,11383.375,378719.1,378710.668,378727.334,390110.709,390118.4,2023-02-28T13:55:45Z,390127.375,NULL,Flexibilität,kubadilika,d,NA,NA,NA,NA,sdfdsf,NA,1,NA,NA,NA,NA,NA,NA,NA,NA,NA,NA,NA,NA,NA,NA,NA,NA,NA,NA,NA
a3a71,Deep Question,html.Page,7_0_1_0_3_0_0,NA,NA,form submission,10690.525000002,390118.5,390110.709,390127.375,400817.9,400818.4,2023-02-28T13:55:55Z,400827.605,NULL,Abrechnung,uhasibu,d,NA,NA,NA,ubahali,NA,NA,1,NA,NA,NA,NA,NA,NA,NA,NA,NA,NA,NA,NA,NA,NA,NA,NA,NA,NA,NA
a3a71,"""Richtig""-Screen",canvas.Screen,7_0_1_0_3_0_1,NA,NA,skipped,NA,400821.6,NA,NA,400817.9,400821.8,2023-02-28T13:55:55Z,400827.605,NULL,Abrechnung,uhasibu,d,NA,NA,NA,NA,sdfdsf,NA,1,NA,NA,NA,NA,NA,NA,NA,NA,NA,NA,NA,NA,NA,NA,NA,NA,NA,NA,NA
a3a71,"""Falsch""-Screen",canvas.Screen,7_0_1_0_3_0_2,NA,NA,timeout,4999.8,400822.7,400810.939,400827.605,405810.739,405812.8,2023-02-28T13:56:00Z,405827.405,NULL,Abrechnung,uhasibu,d,NA,NA,NA,NA,sdfdsf,0,1,NA,NA,NA,NA,NA,NA,NA,NA,NA,NA,NA,NA,NA,NA,NA,NA,NA,NA,NA
a3a71,deep,flow.Sequence,7_0_1_0_3_0,NA,NA,completion,15683.364,390118.5,390110.709,390127.375,405810.739,405813.1,2023-02-28T13:56:00Z,405827.405,NULL,Abrechnung,uhasibu,d,NA,NA,NA,NA,sdfdsf,NA,1,NA,NA,NA,NA,NA,NA,NA,NA,NA,NA,NA,NA,NA,NA,NA,NA,NA,NA,NA
a3a71,shallow,flow.Sequence,7_0_1_0_3_1,NA,NA,skipped,NA,405813.3,NA,NA,405810.739,405813.5,2023-02-28T13:56:00Z,405827.405,NULL,Abrechnung,uhasibu,d,NA,NA,NA,NA,sdfdsf,NA,1,NA,NA,NA,NA,NA,NA,NA,NA,NA,NA,NA,NA,NA,NA,NA,NA,NA,NA,NA
a3a71,task,flow.Sequence,7_0_1_0_3,NA,NA,completion,15683.364,390118.4,390110.709,390127.375,405810.739,405813.6,2023-02-28T13:56:00Z,405827.405,NULL,Abrechnung,uhasibu,d,NA,NA,NA,NA,sdfdsf,NA,1,NA,NA,NA,NA,NA,NA,NA,NA,NA,NA,NA,NA,NA,NA,NA,NA,NA,NA,NA
a3a71,Deep Question,html.Page,7_0_1_0_4_0_0,NA,NA,form submission,3474.8950000007,405813.8,405810.739,405827.405,409302.3,409302.8,2023-02-28T13:56:04Z,409311.323,NULL,Kanzler,diwani,d,NA,NA,NA,diwani,NA,NA,1,NA,NA,NA,NA,NA,NA,NA,NA,NA,NA,NA,NA,NA,NA,NA,NA,NA,NA,NA
a3a71,"""Richtig""-Screen",canvas.Screen,7_0_1_0_4_0_1,NA,NA,timeout,4999.8,409305.7,409294.657,409311.323,414294.457,414297,2023-02-28T13:56:09Z,414311.123,NULL,Kanzler,diwani,d,NA,NA,NA,NA,sdfdsf,1,1,NA,NA,NA,NA,NA,NA,NA,NA,NA,NA,NA,NA,NA,NA,NA,NA,NA,NA,NA
a3a71,"""Falsch""-Screen",canvas.Screen,7_0_1_0_4_0_2,NA,NA,skipped,NA,414301.7,NA,NA,414294.457,414301.9,2023-02-28T13:56:09Z,414311.123,NULL,Kanzler,diwani,d,NA,NA,NA,NA,sdfdsf,NA,1,NA,NA,NA,NA,NA,NA,NA,NA,NA,NA,NA,NA,NA,NA,NA,NA,NA,NA,NA
a3a71,deep,flow.Sequence,7_0_1_0_4_0,NA,NA,completion,8467.052,405813.8,405810.739,405827.405,414294.457,414302.2,2023-02-28T13:56:09Z,414311.123,NULL,Kanzler,diwani,d,NA,NA,NA,NA,sdfdsf,NA,1,NA,NA,NA,NA,NA,NA,NA,NA,NA,NA,NA,NA,NA,NA,NA,NA,NA,NA,NA
a3a71,shallow,flow.Sequence,7_0_1_0_4_1,NA,NA,skipped,NA,414302.2,NA,NA,414294.457,414302.4,2023-02-28T13:56:09Z,414311.123,NULL,Kanzler,diwani,d,NA,NA,NA,NA,sdfdsf,NA,1,NA,NA,NA,NA,NA,NA,NA,NA,NA,NA,NA,NA,NA,NA,NA,NA,NA,NA,NA
a3a71,task,flow.Sequence,7_0_1_0_4,NA,NA,completion,8467.052,405813.7,405810.739,405827.405,414294.457,414302.5,2023-02-28T13:56:09Z,414311.123,NULL,Kanzler,diwani,d,NA,NA,NA,NA,sdfdsf,NA,1,NA,NA,NA,NA,NA,NA,NA,NA,NA,NA,NA,NA,NA,NA,NA,NA,NA,NA,NA
a3a71,deep,flow.Sequence,7_0_1_0_5_0,NA,NA,skipped,NA,414302.5,NA,NA,414294.457,414302.5,2023-02-28T13:56:09Z,414311.123,NULL,Angreifer,mshambulizi,s,kitengo,tasinia,usafirishaji,NA,sdfdsf,NA,1,NA,NA,NA,NA,NA,NA,NA,NA,NA,NA,NA,NA,NA,NA,NA,NA,NA,NA,NA
a3a71,Shallow Question,html.Page,7_0_1_0_5_1_0,NA,NA,form submission,3222.7770000022,414302.6,414294.457,414311.123,417533.9,417534.1,2023-02-28T13:56:12Z,417544.87,NULL,Angreifer,mshambulizi,s,kitengo,tasinia,usafirishaji,mshambulizi,NA,NA,1,NA,NA,NA,NA,NA,NA,NA,NA,NA,NA,NA,NA,NA,NA,NA,NA,NA,NA,NA
a3a71,"""Richtig""-Screen",canvas.Screen,7_0_1_0_5_1_1,NA,NA,timeout,4999.8,417537.3,417528.204,417544.87,422528.004,422530.5,2023-02-28T13:56:17Z,422544.67,NULL,Angreifer,mshambulizi,s,kitengo,tasinia,usafirishaji,NA,sdfdsf,1,1,NA,NA,NA,NA,NA,NA,NA,NA,NA,NA,NA,NA,NA,NA,NA,NA,NA,NA,NA
a3a71,"""Falsch""-Screen",canvas.Screen,7_0_1_0_5_1_2,NA,NA,skipped,NA,422534.6,NA,NA,422528.004,422534.7,2023-02-28T13:56:17Z,422544.67,NULL,Angreifer,mshambulizi,s,kitengo,tasinia,usafirishaji,NA,sdfdsf,NA,1,NA,NA,NA,NA,NA,NA,NA,NA,NA,NA,NA,NA,NA,NA,NA,NA,NA,NA,NA
a3a71,shallow,flow.Sequence,7_0_1_0_5_1,NA,NA,completion,8216.881,414302.6,414294.457,414311.123,422528.004,422534.9,2023-02-28T13:56:17Z,422544.67,NULL,Angreifer,mshambulizi,s,kitengo,tasinia,usafirishaji,NA,sdfdsf,NA,1,NA,NA,NA,NA,NA,NA,NA,NA,NA,NA,NA,NA,NA,NA,NA,NA,NA,NA,NA
a3a71,task,flow.Sequence,7_0_1_0_5,NA,NA,completion,8216.881,414302.5,414294.457,414311.123,422528.004,422534.9,2023-02-28T13:56:17Z,422544.67,NULL,Angreifer,mshambulizi,s,kitengo,tasinia,usafirishaji,NA,sdfdsf,NA,1,NA,NA,NA,NA,NA,NA,NA,NA,NA,NA,NA,NA,NA,NA,NA,NA,NA,NA,NA
a3a71,Deep Question,html.Page,7_0_1_0_6_0_0,NA,NA,form submission,4447.9300000015,422535,422528.004,422544.67,426992.6,426993.2,2023-02-28T13:56:22Z,426994.98,NULL,Atmosphäre,angahewa,d,NA,NA,NA,angahewa,NA,NA,1,NA,NA,NA,NA,NA,NA,NA,NA,NA,NA,NA,NA,NA,NA,NA,NA,NA,NA,NA
a3a71,"""Richtig""-Screen",canvas.Screen,7_0_1_0_6_0_1,NA,NA,timeout,4999.8,426996.3,426978.314,426994.98,431978.114,431980,2023-02-28T13:56:27Z,431994.78,NULL,Atmosphäre,angahewa,d,NA,NA,NA,NA,sdfdsf,1,1,NA,NA,NA,NA,NA,NA,NA,NA,NA,NA,NA,NA,NA,NA,NA,NA,NA,NA,NA
a3a71,"""Falsch""-Screen",canvas.Screen,7_0_1_0_6_0_2,NA,NA,skipped,NA,431984.2,NA,NA,431978.114,431984.3,2023-02-28T13:56:27Z,431994.78,NULL,Atmosphäre,angahewa,d,NA,NA,NA,NA,sdfdsf,NA,1,NA,NA,NA,NA,NA,NA,NA,NA,NA,NA,NA,NA,NA,NA,NA,NA,NA,NA,NA
a3a71,deep,flow.Sequence,7_0_1_0_6_0,NA,NA,completion,9433.444,422535,422528.004,422544.67,431978.114,431984.5,2023-02-28T13:56:27Z,431994.78,NULL,Atmosphäre,angahewa,d,NA,NA,NA,NA,sdfdsf,NA,1,NA,NA,NA,NA,NA,NA,NA,NA,NA,NA,NA,NA,NA,NA,NA,NA,NA,NA,NA
a3a71,shallow,flow.Sequence,7_0_1_0_6_1,NA,NA,skipped,NA,431984.6,NA,NA,431978.114,431984.6,2023-02-28T13:56:27Z,431994.78,NULL,Atmosphäre,angahewa,d,NA,NA,NA,NA,sdfdsf,NA,1,NA,NA,NA,NA,NA,NA,NA,NA,NA,NA,NA,NA,NA,NA,NA,NA,NA,NA,NA
a3a71,task,flow.Sequence,7_0_1_0_6,NA,NA,completion,9433.444,422534.9,422528.004,422544.67,431978.114,431984.7,2023-02-28T13:56:27Z,431994.78,NULL,Atmosphäre,angahewa,d,NA,NA,NA,NA,sdfdsf,NA,1,NA,NA,NA,NA,NA,NA,NA,NA,NA,NA,NA,NA,NA,NA,NA,NA,NA,NA,NA
a3a71,deep,flow.Sequence,7_0_1_0_7_0,NA,NA,skipped,NA,431984.8,NA,NA,431978.114,431984.9,2023-02-28T13:56:27Z,431994.78,NULL,Wechsel,ugeuzaji,s,utambulisho,kujenga,wasiwasi,NA,sdfdsf,NA,1,NA,NA,NA,NA,NA,NA,NA,NA,NA,NA,NA,NA,NA,NA,NA,NA,NA,NA,NA
a3a71,Shallow Question,html.Page,7_0_1_0_7_1_0,NA,NA,form submission,3638.8200000015,431985,431978.114,431994.78,435633.6,435634.1,2023-02-28T13:56:30Z,435644.634,NULL,Wechsel,ugeuzaji,s,utambulisho,kujenga,wasiwasi,ugeuzaji,NA,NA,1,NA,NA,NA,NA,NA,NA,NA,NA,NA,NA,NA,NA,NA,NA,NA,NA,NA,NA,NA
a3a71,"""Richtig""-Screen",canvas.Screen,7_0_1_0_7_1_1,NA,NA,timeout,4999.8,435637.2,435627.968,435644.634,440627.768,440630.2,2023-02-28T13:56:35Z,440644.434,NULL,Wechsel,ugeuzaji,s,utambulisho,kujenga,wasiwasi,NA,sdfdsf,1,1,NA,NA,NA,NA,NA,NA,NA,NA,NA,NA,NA,NA,NA,NA,NA,NA,NA,NA,NA
a3a71,"""Falsch""-Screen",canvas.Screen,7_0_1_0_7_1_2,NA,NA,skipped,NA,440634.8,NA,NA,440627.768,440635,2023-02-28T13:56:35Z,440644.434,NULL,Wechsel,ugeuzaji,s,utambulisho,kujenga,wasiwasi,NA,sdfdsf,NA,1,NA,NA,NA,NA,NA,NA,NA,NA,NA,NA,NA,NA,NA,NA,NA,NA,NA,NA,NA
a3a71,shallow,flow.Sequence,7_0_1_0_7_1,NA,NA,completion,8632.988,431985,431978.114,431994.78,440627.768,440635.2,2023-02-28T13:56:35Z,440644.434,NULL,Wechsel,ugeuzaji,s,utambulisho,kujenga,wasiwasi,NA,sdfdsf,NA,1,NA,NA,NA,NA,NA,NA,NA,NA,NA,NA,NA,NA,NA,NA,NA,NA,NA,NA,NA
a3a71,task,flow.Sequence,7_0_1_0_7,NA,NA,completion,8632.988,431984.8,431978.114,431994.78,440627.768,440635.4,2023-02-28T13:56:35Z,440644.434,NULL,Wechsel,ugeuzaji,s,utambulisho,kujenga,wasiwasi,NA,sdfdsf,NA,1,NA,NA,NA,NA,NA,NA,NA,NA,NA,NA,NA,NA,NA,NA,NA,NA,NA,NA,NA
a3a71,block,flow.Loop,7_0_1_0,NA,NA,completion,80183.651,360447.4,360410.785,360444.117,440627.768,440635.6,2023-02-28T13:56:35Z,440644.434,NULL,NA,NA,NA,NA,NA,NA,NA,sdfdsf,NA,1,NA,NA,NA,NA,NA,NA,NA,NA,NA,NA,NA,NA,NA,NA,NA,NA,NA,NA,NA
a3a71,weiter,canvas.Screen,7_0_1_1,sdf,keypress(Space),response,1110.9660000022,440635.7,440627.768,440644.434,441755.4,441759.2,2023-02-28T13:56:36Z,441978.5,NULL,NA,NA,NA,NA,NA,NA,NA,sdfdsf,NA,1,NA,NA,NA,NA,NA,NA,NA,NA,NA,NA,NA,NA,NA,NA,NA,NA,NA,NA,NA
a3a71,check continue,flow.Sequence,7_0_1,NA,NA,completion,81311.283000002,360447.4,360410.785,360444.117,441755.4,441759.6,2023-02-28T13:56:36Z,441978.5,NULL,NA,NA,NA,NA,NA,NA,NA,sdfdsf,NA,1,NA,NA,NA,NA,NA,NA,NA,NA,NA,NA,NA,NA,NA,NA,NA,NA,NA,NA,NA
a3a71,check continue,flow.Sequence,7_0_2,NA,NA,skipped,NA,441784.4,NA,NA,441755.4,441784.5,2023-02-28T13:56:36Z,441978.5,NULL,NA,NA,NA,NA,NA,NA,NA,sdf,NA,2,NA,NA,NA,NA,NA,NA,NA,NA,NA,NA,NA,NA,NA,NA,NA,NA,NA,NA,NA
a3a71,check continue,flow.Sequence,7_0_3,NA,NA,skipped,NA,441798.1,NA,NA,441755.4,441798.2,2023-02-28T13:56:36Z,441978.5,NULL,NA,NA,NA,NA,NA,NA,NA,qt,NA,3,NA,NA,NA,NA,NA,NA,NA,NA,NA,NA,NA,NA,NA,NA,NA,NA,NA,NA,NA
a3a71,check continue,flow.Sequence,7_0_4,NA,NA,skipped,NA,441808.5,NA,NA,441755.4,441808.5,2023-02-28T13:56:36Z,441978.5,NULL,NA,NA,NA,NA,NA,NA,NA,sd,NA,4,NA,NA,NA,NA,NA,NA,NA,NA,NA,NA,NA,NA,NA,NA,NA,NA,NA,NA,NA
a3a71,check continue,flow.Sequence,7_0_5,NA,NA,skipped,NA,441817.6,NA,NA,441755.4,441817.7,2023-02-28T13:56:36Z,441978.5,NULL,NA,NA,NA,NA,NA,NA,NA,sdf,NA,5,NA,NA,NA,NA,NA,NA,NA,NA,NA,NA,NA,NA,NA,NA,NA,NA,NA,NA,NA
a3a71,check continue,flow.Sequence,7_0_6,NA,NA,skipped,NA,441825.8,NA,NA,441755.4,441825.8,2023-02-28T13:56:36Z,441978.5,NULL,NA,NA,NA,NA,NA,NA,NA,dfs,NA,6,NA,NA,NA,NA,NA,NA,NA,NA,NA,NA,NA,NA,NA,NA,NA,NA,NA,NA,NA
a3a71,check continue,flow.Sequence,7_0_7,NA,NA,skipped,NA,441833.3,NA,NA,441755.4,441833.3,2023-02-28T13:56:36Z,441978.5,NULL,NA,NA,NA,NA,NA,NA,NA,df,NA,7,NA,NA,NA,NA,NA,NA,NA,NA,NA,NA,NA,NA,NA,NA,NA,NA,NA,NA,NA
a3a71,check continue,flow.Sequence,7_0_8,NA,NA,skipped,NA,441840.6,NA,NA,441755.4,441840.6,2023-02-28T13:56:36Z,441978.5,NULL,NA,NA,NA,NA,NA,NA,NA,dfs,NA,8,NA,NA,NA,NA,NA,NA,NA,NA,NA,NA,NA,NA,NA,NA,NA,NA,NA,NA,NA
a3a71,check continue,flow.Sequence,7_0_9,NA,NA,skipped,NA,441847.3,NA,NA,441755.4,441847.3,2023-02-28T13:56:36Z,441978.5,NULL,NA,NA,NA,NA,NA,NA,NA,dsf,NA,9,NA,NA,NA,NA,NA,NA,NA,NA,NA,NA,NA,NA,NA,NA,NA,NA,NA,NA,NA
a3a71,check continue,flow.Sequence,7_0_10,NA,NA,skipped,NA,441853.6,NA,NA,441755.4,441853.6,2023-02-28T13:56:36Z,441978.5,NULL,NA,NA,NA,NA,NA,NA,NA,df,NA,10,NA,NA,NA,NA,NA,NA,NA,NA,NA,NA,NA,NA,NA,NA,NA,NA,NA,NA,NA
a3a71,check continue,flow.Sequence,7_0_11,NA,NA,skipped,NA,441859.7,NA,NA,441755.4,441859.7,2023-02-28T13:56:36Z,441978.5,NULL,NA,NA,NA,NA,NA,NA,NA,dfs,NA,11,NA,NA,NA,NA,NA,NA,NA,NA,NA,NA,NA,NA,NA,NA,NA,NA,NA,NA,NA
a3a71,check continue,flow.Sequence,7_0_12,NA,NA,skipped,NA,441865.7,NA,NA,441755.4,441865.8,2023-02-28T13:56:36Z,441978.5,NULL,NA,NA,NA,NA,NA,NA,NA,dsf,NA,12,NA,NA,NA,NA,NA,NA,NA,NA,NA,NA,NA,NA,NA,NA,NA,NA,NA,NA,NA
a3a71,check continue,flow.Sequence,7_0_13,NA,NA,skipped,NA,441871.5,NA,NA,441755.4,441871.5,2023-02-28T13:56:36Z,441978.5,NULL,NA,NA,NA,NA,NA,NA,NA,dsf,NA,13,NA,NA,NA,NA,NA,NA,NA,NA,NA,NA,NA,NA,NA,NA,NA,NA,NA,NA,NA
a3a71,check continue,flow.Sequence,7_0_14,NA,NA,skipped,NA,441877.2,NA,NA,441755.4,441877.3,2023-02-28T13:56:36Z,441978.5,NULL,NA,NA,NA,NA,NA,NA,NA,NA,NA,14,NA,NA,NA,NA,NA,NA,NA,NA,NA,NA,NA,NA,NA,NA,NA,NA,NA,NA,NA
a3a71,check continue,flow.Sequence,7_0_15,NA,NA,skipped,NA,441883,NA,NA,441755.4,441883,2023-02-28T13:56:36Z,441978.5,NULL,NA,NA,NA,NA,NA,NA,NA,NA,NA,15,NA,NA,NA,NA,NA,NA,NA,NA,NA,NA,NA,NA,NA,NA,NA,NA,NA,NA,NA
a3a71,check continue,flow.Sequence,7_0_16,NA,NA,skipped,NA,441889.6,NA,NA,441755.4,441889.6,2023-02-28T13:56:36Z,441978.5,NULL,NA,NA,NA,NA,NA,NA,NA,NA,NA,16,NA,NA,NA,NA,NA,NA,NA,NA,NA,NA,NA,NA,NA,NA,NA,NA,NA,NA,NA
a3a71,check continue,flow.Sequence,7_0_17,NA,NA,skipped,NA,441895.4,NA,NA,441755.4,441895.4,2023-02-28T13:56:36Z,441978.5,NULL,NA,NA,NA,NA,NA,NA,NA,NA,NA,17,NA,NA,NA,NA,NA,NA,NA,NA,NA,NA,NA,NA,NA,NA,NA,NA,NA,NA,NA
a3a71,check continue,flow.Sequence,7_0_18,NA,NA,skipped,NA,441901.6,NA,NA,441755.4,441901.6,2023-02-28T13:56:36Z,441978.5,NULL,NA,NA,NA,NA,NA,NA,NA,NA,NA,18,NA,NA,NA,NA,NA,NA,NA,NA,NA,NA,NA,NA,NA,NA,NA,NA,NA,NA,NA
a3a71,check continue,flow.Sequence,7_0_19,NA,NA,skipped,NA,441907.2,NA,NA,441755.4,441907.2,2023-02-28T13:56:37Z,441978.5,NULL,NA,NA,NA,NA,NA,NA,NA,NA,NA,19,NA,NA,NA,NA,NA,NA,NA,NA,NA,NA,NA,NA,NA,NA,NA,NA,NA,NA,NA
a3a71,check continue,flow.Sequence,7_0_20,NA,NA,skipped,NA,441913.3,NA,NA,441755.4,441913.3,2023-02-28T13:56:37Z,441978.5,NULL,NA,NA,NA,NA,NA,NA,NA,NA,NA,20,NA,NA,NA,NA,NA,NA,NA,NA,NA,NA,NA,NA,NA,NA,NA,NA,NA,NA,NA
a3a71,check continue,flow.Sequence,7_0_21,NA,NA,skipped,NA,441918.8,NA,NA,441755.4,441918.8,2023-02-28T13:56:37Z,441978.5,NULL,NA,NA,NA,NA,NA,NA,NA,NA,NA,21,NA,NA,NA,NA,NA,NA,NA,NA,NA,NA,NA,NA,NA,NA,NA,NA,NA,NA,NA
a3a71,check continue,flow.Sequence,7_0_22,NA,NA,skipped,NA,441924.9,NA,NA,441755.4,441925,2023-02-28T13:56:37Z,441978.5,NULL,NA,NA,NA,NA,NA,NA,NA,NA,NA,22,NA,NA,NA,NA,NA,NA,NA,NA,NA,NA,NA,NA,NA,NA,NA,NA,NA,NA,NA
a3a71,check continue,flow.Sequence,7_0_23,NA,NA,skipped,NA,441930.4,NA,NA,441755.4,441930.4,2023-02-28T13:56:37Z,441978.5,NULL,NA,NA,NA,NA,NA,NA,NA,NA,NA,23,NA,NA,NA,NA,NA,NA,NA,NA,NA,NA,NA,NA,NA,NA,NA,NA,NA,NA,NA
a3a71,check continue,flow.Sequence,7_0_24,NA,NA,skipped,NA,441936.4,NA,NA,441755.4,441936.4,2023-02-28T13:56:37Z,441978.5,NULL,NA,NA,NA,NA,NA,NA,NA,NA,NA,24,NA,NA,NA,NA,NA,NA,NA,NA,NA,NA,NA,NA,NA,NA,NA,NA,NA,NA,NA
a3a71,check continue,flow.Sequence,7_0_25,NA,NA,skipped,NA,441941.8,NA,NA,441755.4,441941.9,2023-02-28T13:56:37Z,441978.5,NULL,NA,NA,NA,NA,NA,NA,NA,NA,NA,25,NA,NA,NA,NA,NA,NA,NA,NA,NA,NA,NA,NA,NA,NA,NA,NA,NA,NA,NA
a3a71,check continue,flow.Sequence,7_0_26,NA,NA,skipped,NA,441949.1,NA,NA,441755.4,441949.2,2023-02-28T13:56:37Z,441978.5,NULL,NA,NA,NA,NA,NA,NA,NA,NA,NA,26,NA,NA,NA,NA,NA,NA,NA,NA,NA,NA,NA,NA,NA,NA,NA,NA,NA,NA,NA
a3a71,check continue,flow.Sequence,7_0_27,NA,NA,skipped,NA,441964.6,NA,NA,441755.4,441964.7,2023-02-28T13:56:37Z,441978.5,NULL,NA,NA,NA,NA,NA,NA,NA,NA,NA,27,NA,NA,NA,NA,NA,NA,NA,NA,NA,NA,NA,NA,NA,NA,NA,NA,NA,NA,NA
a3a71,check continue,flow.Sequence,7_0_28,NA,NA,skipped,NA,441970.5,NA,NA,441755.4,441970.5,2023-02-28T13:56:37Z,441978.5,NULL,NA,NA,NA,NA,NA,NA,NA,NA,NA,28,NA,NA,NA,NA,NA,NA,NA,NA,NA,NA,NA,NA,NA,NA,NA,NA,NA,NA,NA
a3a71,check continue,flow.Sequence,7_0_29,NA,NA,skipped,NA,441976.5,NA,NA,441755.4,441976.5,2023-02-28T13:56:37Z,441978.5,NULL,NA,NA,NA,NA,NA,NA,NA,NA,NA,29,NA,NA,NA,NA,NA,NA,NA,NA,NA,NA,NA,NA,NA,NA,NA,NA,NA,NA,NA
a3a71,until continue,flow.Loop,7_0,NA,NA,completion,188396.394,253338.9,253342.34,253359.006,441755.4,441976.6,2023-02-28T13:56:37Z,441978.5,NULL,NA,NA,NA,NA,NA,NA,NA,NA,NA,NA,NA,NA,NA,NA,NA,NA,NA,NA,NA,NA,NA,NA,NA,NA,NA,NA,NA,NA,NA
a3a71,block 3,flow.Sequence,7,NA,NA,completion,188396.394,253338.9,253342.34,253359.006,441755.4,441976.6,2023-02-28T13:56:37Z,441978.5,NULL,NA,NA,NA,NA,NA,NA,NA,NA,NA,NA,NA,NA,NA,NA,NA,NA,NA,NA,NA,NA,NA,NA,NA,NA,NA,NA,NA,NA,NA
a3a71,3.Part Over,canvas.Screen,8,NA,keypress(Space),response,2541,441976.6,441961.834,441978.5,444519.5,444522.9,2023-02-28T13:56:39Z,444578.396,NULL,NA,NA,NA,NA,NA,NA,NA,NA,NA,NA,NA,NA,NA,NA,NA,NA,NA,NA,NA,NA,NA,NA,NA,NA,NA,NA,NA,NA,NA
a3a71,Deep Question,html.Page,9_0_0_0_0_0_0,NA,NA,form submission,3276.304000003,444572.3,444561.73,444578.396,447854.7,447855.1,2023-02-28T13:56:42Z,447861.598,NULL,Stimmung,kinyongo,d,NA,NA,NA,s,NA,NA,0,NA,NA,NA,NA,NA,NA,NA,NA,NA,NA,NA,NA,NA,NA,NA,NA,NA,NA,NA
a3a71,"""Richtig""-Screen",canvas.Screen,9_0_0_0_0_0_1,NA,NA,skipped,NA,447857.6,NA,NA,447854.7,447857.7,2023-02-28T13:56:42Z,447861.598,NULL,Stimmung,kinyongo,d,NA,NA,NA,NA,sdf,NA,0,NA,NA,NA,NA,NA,NA,NA,NA,NA,NA,NA,NA,NA,NA,NA,NA,NA,NA,NA
a3a71,"""Falsch""-Screen",canvas.Screen,9_0_0_0_0_0_2,NA,NA,timeout,4999.8,447858.5,447844.932,447861.598,452844.732,452846.8,2023-02-28T13:56:47Z,452861.398,NULL,Stimmung,kinyongo,d,NA,NA,NA,NA,sdf,0,0,NA,NA,NA,NA,NA,NA,NA,NA,NA,NA,NA,NA,NA,NA,NA,NA,NA,NA,NA
a3a71,deep,flow.Sequence,9_0_0_0_0_0,NA,NA,completion,8266.336,444572.3,444561.73,444578.396,452844.732,452847.3,2023-02-28T13:56:47Z,452861.398,NULL,Stimmung,kinyongo,d,NA,NA,NA,NA,sdf,NA,0,NA,NA,NA,NA,NA,NA,NA,NA,NA,NA,NA,NA,NA,NA,NA,NA,NA,NA,NA
a3a71,shallow,flow.Sequence,9_0_0_0_0_1,NA,NA,skipped,NA,452847.4,NA,NA,452844.732,452847.6,2023-02-28T13:56:47Z,452861.398,NULL,Stimmung,kinyongo,d,NA,NA,NA,NA,sdf,NA,0,NA,NA,NA,NA,NA,NA,NA,NA,NA,NA,NA,NA,NA,NA,NA,NA,NA,NA,NA
a3a71,task,flow.Sequence,9_0_0_0_0,NA,NA,completion,8266.336,444572.3,444561.73,444578.396,452844.732,452847.8,2023-02-28T13:56:47Z,452861.398,NULL,Stimmung,kinyongo,d,NA,NA,NA,NA,sdf,NA,0,NA,NA,NA,NA,NA,NA,NA,NA,NA,NA,NA,NA,NA,NA,NA,NA,NA,NA,NA
a3a71,Deep Question,html.Page,9_0_0_0_1_0_0,NA,NA,form submission,11632.202000002,452848.1,452844.732,452861.398,464493.6,464494.2,2023-02-28T13:56:59Z,464495.394,NULL,Betrüger,mdanganyifu,d,NA,NA,NA,f,NA,NA,0,NA,NA,NA,NA,NA,NA,NA,NA,NA,NA,NA,NA,NA,NA,NA,NA,NA,NA,NA
a3a71,"""Richtig""-Screen",canvas.Screen,9_0_0_0_1_0_1,NA,NA,skipped,NA,464497.1,NA,NA,464493.6,464497.2,2023-02-28T13:56:59Z,464495.394,NULL,Betrüger,mdanganyifu,d,NA,NA,NA,NA,sdf,NA,0,NA,NA,NA,NA,NA,NA,NA,NA,NA,NA,NA,NA,NA,NA,NA,NA,NA,NA,NA
a3a71,"""Falsch""-Screen",canvas.Screen,9_0_0_0_1_0_2,NA,NA,timeout,4999.8,464498,464478.728,464495.394,469478.528,469481.2,2023-02-28T13:57:04Z,469495.194,NULL,Betrüger,mdanganyifu,d,NA,NA,NA,NA,sdf,0,0,NA,NA,NA,NA,NA,NA,NA,NA,NA,NA,NA,NA,NA,NA,NA,NA,NA,NA,NA
a3a71,deep,flow.Sequence,9_0_0_0_1_0,NA,NA,completion,16617.13,452848,452844.732,452861.398,469478.528,469481.5,2023-02-28T13:57:04Z,469495.194,NULL,Betrüger,mdanganyifu,d,NA,NA,NA,NA,sdf,NA,0,NA,NA,NA,NA,NA,NA,NA,NA,NA,NA,NA,NA,NA,NA,NA,NA,NA,NA,NA
a3a71,shallow,flow.Sequence,9_0_0_0_1_1,NA,NA,skipped,NA,469481.7,NA,NA,469478.528,469481.9,2023-02-28T13:57:04Z,469495.194,NULL,Betrüger,mdanganyifu,d,NA,NA,NA,NA,sdf,NA,0,NA,NA,NA,NA,NA,NA,NA,NA,NA,NA,NA,NA,NA,NA,NA,NA,NA,NA,NA
a3a71,task,flow.Sequence,9_0_0_0_1,NA,NA,completion,16617.13,452848,452844.732,452861.398,469478.528,469482,2023-02-28T13:57:04Z,469495.194,NULL,Betrüger,mdanganyifu,d,NA,NA,NA,NA,sdf,NA,0,NA,NA,NA,NA,NA,NA,NA,NA,NA,NA,NA,NA,NA,NA,NA,NA,NA,NA,NA
a3a71,deep,flow.Sequence,9_0_0_0_2_0,NA,NA,skipped,NA,469482.2,NA,NA,469478.528,469482.3,2023-02-28T13:57:04Z,469495.194,NULL,Kreativität,ubunifu,s,mratibu,mwendelezo,makubaliano,NA,sdf,NA,0,NA,NA,NA,NA,NA,NA,NA,NA,NA,NA,NA,NA,NA,NA,NA,NA,NA,NA,NA
a3a71,Shallow Question,html.Page,9_0_0_0_2_1_0,NA,NA,form submission,4856.9060000015,469482.4,469478.528,469495.194,474352.1,474352.4,2023-02-28T13:57:09Z,474378.332,NULL,Kreativität,ubunifu,s,mratibu,mwendelezo,makubaliano,mratibu,NA,NA,0,NA,NA,NA,NA,NA,NA,NA,NA,NA,NA,NA,NA,NA,NA,NA,NA,NA,NA,NA
a3a71,"""Richtig""-Screen",canvas.Screen,9_0_0_0_2_1_1,NA,NA,skipped,NA,474355.1,NA,NA,474352.1,474355.3,2023-02-28T13:57:09Z,474378.332,NULL,Kreativität,ubunifu,s,mratibu,mwendelezo,makubaliano,NA,sdf,NA,0,NA,NA,NA,NA,NA,NA,NA,NA,NA,NA,NA,NA,NA,NA,NA,NA,NA,NA,NA
a3a71,"""Falsch""-Screen",canvas.Screen,9_0_0_0_2_1_2,NA,NA,timeout,4999.8,474356.7,474345,474378.332,479361.466,479363.5,2023-02-28T13:57:14Z,479378.132,NULL,Kreativität,ubunifu,s,mratibu,mwendelezo,makubaliano,NA,sdf,0,0,NA,NA,NA,NA,NA,NA,NA,NA,NA,NA,NA,NA,NA,NA,NA,NA,NA,NA,NA
a3a71,shallow,flow.Sequence,9_0_0_0_2_1,NA,NA,completion,9866.272,469482.4,469478.528,469495.194,479361.466,479364,2023-02-28T13:57:14Z,479378.132,NULL,Kreativität,ubunifu,s,mratibu,mwendelezo,makubaliano,NA,sdf,NA,0,NA,NA,NA,NA,NA,NA,NA,NA,NA,NA,NA,NA,NA,NA,NA,NA,NA,NA,NA
a3a71,task,flow.Sequence,9_0_0_0_2,NA,NA,completion,9866.272,469482.2,469478.528,469495.194,479361.466,479364.1,2023-02-28T13:57:14Z,479378.132,NULL,Kreativität,ubunifu,s,mratibu,mwendelezo,makubaliano,NA,sdf,NA,0,NA,NA,NA,NA,NA,NA,NA,NA,NA,NA,NA,NA,NA,NA,NA,NA,NA,NA,NA
a3a71,deep,flow.Sequence,9_0_0_0_3_0,NA,NA,skipped,NA,479364.3,NA,NA,479361.466,479364.4,2023-02-28T13:57:14Z,479378.132,NULL,Orientierung,urekebisho,s,uelekeo,marekebisho,utunzaji,NA,sdf,NA,0,NA,NA,NA,NA,NA,NA,NA,NA,NA,NA,NA,NA,NA,NA,NA,NA,NA,NA,NA
a3a71,Shallow Question,html.Page,9_0_0_0_3_1_0,NA,NA,form submission,5289.868,479364.6,479361.466,479378.132,484668,484668.4,2023-02-28T13:57:19Z,484679.055,NULL,Orientierung,urekebisho,s,uelekeo,marekebisho,utunzaji,uelekeo,NA,NA,0,NA,NA,NA,NA,NA,NA,NA,NA,NA,NA,NA,NA,NA,NA,NA,NA,NA,NA,NA
a3a71,"""Richtig""-Screen",canvas.Screen,9_0_0_0_3_1_1,NA,NA,skipped,NA,484672.6,NA,NA,484668,484672.8,2023-02-28T13:57:19Z,484679.055,NULL,Orientierung,urekebisho,s,uelekeo,marekebisho,utunzaji,NA,sdf,NA,0,NA,NA,NA,NA,NA,NA,NA,NA,NA,NA,NA,NA,NA,NA,NA,NA,NA,NA,NA
a3a71,"""Falsch""-Screen",canvas.Screen,9_0_0_0_3_1_2,NA,NA,timeout,4999.8,484674,484662.389,484679.055,489662.189,489664.7,2023-02-28T13:57:24Z,489678.855,NULL,Orientierung,urekebisho,s,uelekeo,marekebisho,utunzaji,NA,sdf,0,0,NA,NA,NA,NA,NA,NA,NA,NA,NA,NA,NA,NA,NA,NA,NA,NA,NA,NA,NA
a3a71,shallow,flow.Sequence,9_0_0_0_3_1,NA,NA,completion,10284.057,479364.6,479361.466,479378.132,489662.189,489665,2023-02-28T13:57:24Z,489678.855,NULL,Orientierung,urekebisho,s,uelekeo,marekebisho,utunzaji,NA,sdf,NA,0,NA,NA,NA,NA,NA,NA,NA,NA,NA,NA,NA,NA,NA,NA,NA,NA,NA,NA,NA
a3a71,task,flow.Sequence,9_0_0_0_3,NA,NA,completion,10284.057,479364.3,479361.466,479378.132,489662.189,489665.3,2023-02-28T13:57:24Z,489678.855,NULL,Orientierung,urekebisho,s,uelekeo,marekebisho,utunzaji,NA,sdf,NA,0,NA,NA,NA,NA,NA,NA,NA,NA,NA,NA,NA,NA,NA,NA,NA,NA,NA,NA,NA
a3a71,Deep Question,html.Page,9_0_0_0_4_0_0,NA,NA,form submission,4269.4450000008,489665.5,489662.189,489678.855,493948.3,493948.8,2023-02-28T13:57:29Z,493962.017,NULL,Kontrolle,kudhibiti,d,NA,NA,NA,j,NA,NA,0,NA,NA,NA,NA,NA,NA,NA,NA,NA,NA,NA,NA,NA,NA,NA,NA,NA,NA,NA
a3a71,"""Richtig""-Screen",canvas.Screen,9_0_0_0_4_0_1,NA,NA,skipped,NA,493951.8,NA,NA,493948.3,493952,2023-02-28T13:57:29Z,493962.017,NULL,Kontrolle,kudhibiti,d,NA,NA,NA,NA,sdf,NA,0,NA,NA,NA,NA,NA,NA,NA,NA,NA,NA,NA,NA,NA,NA,NA,NA,NA,NA,NA
a3a71,"""Falsch""-Screen",canvas.Screen,9_0_0_0_4_0_2,NA,NA,timeout,5000.262,493953.2,493945.351,493962.017,498945.613,498947.9,2023-02-28T13:57:34Z,498962.279,NULL,Kontrolle,kudhibiti,d,NA,NA,NA,NA,sdf,0,0,NA,NA,NA,NA,NA,NA,NA,NA,NA,NA,NA,NA,NA,NA,NA,NA,NA,NA,NA
a3a71,deep,flow.Sequence,9_0_0_0_4_0,NA,NA,completion,9266.758,489665.4,489662.189,489678.855,498945.613,498948.4,2023-02-28T13:57:34Z,498962.279,NULL,Kontrolle,kudhibiti,d,NA,NA,NA,NA,sdf,NA,0,NA,NA,NA,NA,NA,NA,NA,NA,NA,NA,NA,NA,NA,NA,NA,NA,NA,NA,NA
a3a71,shallow,flow.Sequence,9_0_0_0_4_1,NA,NA,skipped,NA,498948.4,NA,NA,498945.613,498948.6,2023-02-28T13:57:34Z,498962.279,NULL,Kontrolle,kudhibiti,d,NA,NA,NA,NA,sdf,NA,0,NA,NA,NA,NA,NA,NA,NA,NA,NA,NA,NA,NA,NA,NA,NA,NA,NA,NA,NA
a3a71,task,flow.Sequence,9_0_0_0_4,NA,NA,completion,9266.758,489665.4,489662.189,489678.855,498945.613,498948.8,2023-02-28T13:57:34Z,498962.279,NULL,Kontrolle,kudhibiti,d,NA,NA,NA,NA,sdf,NA,0,NA,NA,NA,NA,NA,NA,NA,NA,NA,NA,NA,NA,NA,NA,NA,NA,NA,NA,NA
a3a71,deep,flow.Sequence,9_0_0_0_5_0,NA,NA,skipped,NA,498948.9,NA,NA,498945.613,498949,2023-02-28T13:57:34Z,498962.279,NULL,Können,unaweza,s,kiongozi,bustani,mienendo,NA,sdf,NA,0,NA,NA,NA,NA,NA,NA,NA,NA,NA,NA,NA,NA,NA,NA,NA,NA,NA,NA,NA
a3a71,Shallow Question,html.Page,9_0_0_0_5_1_0,NA,NA,form submission,6452.721,498949.2,498945.613,498962.279,505415,505415.5,2023-02-28T13:57:40Z,505429.311,NULL,Können,unaweza,s,kiongozi,bustani,mienendo,unaweza,NA,NA,0,NA,NA,NA,NA,NA,NA,NA,NA,NA,NA,NA,NA,NA,NA,NA,NA,NA,NA,NA
a3a71,"""Richtig""-Screen",canvas.Screen,9_0_0_0_5_1_1,NA,NA,timeout,4999.8,505419.7,505412.645,505429.311,510412.445,510414.5,2023-02-28T13:57:45Z,510429.111,NULL,Können,unaweza,s,kiongozi,bustani,mienendo,NA,sdf,1,0,NA,NA,NA,NA,NA,NA,NA,NA,NA,NA,NA,NA,NA,NA,NA,NA,NA,NA,NA
a3a71,"""Falsch""-Screen",canvas.Screen,9_0_0_0_5_1_2,NA,NA,skipped,NA,510419.5,NA,NA,510412.445,510419.8,2023-02-28T13:57:45Z,510429.111,NULL,Können,unaweza,s,kiongozi,bustani,mienendo,NA,sdf,NA,0,NA,NA,NA,NA,NA,NA,NA,NA,NA,NA,NA,NA,NA,NA,NA,NA,NA,NA,NA
a3a71,shallow,flow.Sequence,9_0_0_0_5_1,NA,NA,completion,11450.166,498949.2,498945.613,498962.279,510412.445,510420,2023-02-28T13:57:45Z,510429.111,NULL,Können,unaweza,s,kiongozi,bustani,mienendo,NA,sdf,NA,0,NA,NA,NA,NA,NA,NA,NA,NA,NA,NA,NA,NA,NA,NA,NA,NA,NA,NA,NA
a3a71,task,flow.Sequence,9_0_0_0_5,NA,NA,completion,11450.166,498948.8,498945.613,498962.279,510412.445,510420,2023-02-28T13:57:45Z,510429.111,NULL,Können,unaweza,s,kiongozi,bustani,mienendo,NA,sdf,NA,0,NA,NA,NA,NA,NA,NA,NA,NA,NA,NA,NA,NA,NA,NA,NA,NA,NA,NA,NA
a3a71,Deep Question,html.Page,9_0_0_0_6_0_0,NA,NA,form submission,3454.1890000008,510420.2,510412.445,510429.111,513883.3,513883.9,2023-02-28T13:57:48Z,513895.639,NULL,Gefährdung,kuhatarisha,d,NA,NA,NA,d,NA,NA,0,NA,NA,NA,NA,NA,NA,NA,NA,NA,NA,NA,NA,NA,NA,NA,NA,NA,NA,NA
a3a71,"""Richtig""-Screen",canvas.Screen,9_0_0_0_6_0_1,NA,NA,skipped,NA,513886.6,NA,NA,513883.3,513886.8,2023-02-28T13:57:48Z,513895.639,NULL,Gefährdung,kuhatarisha,d,NA,NA,NA,NA,sdf,NA,0,NA,NA,NA,NA,NA,NA,NA,NA,NA,NA,NA,NA,NA,NA,NA,NA,NA,NA,NA
a3a71,"""Falsch""-Screen",canvas.Screen,9_0_0_0_6_0_2,NA,NA,timeout,4999.8,513887.3,513878.973,513895.639,518878.773,518881.6,2023-02-28T13:57:53Z,518895.439,NULL,Gefährdung,kuhatarisha,d,NA,NA,NA,NA,sdf,0,0,NA,NA,NA,NA,NA,NA,NA,NA,NA,NA,NA,NA,NA,NA,NA,NA,NA,NA,NA
a3a71,deep,flow.Sequence,9_0_0_0_6_0,NA,NA,completion,8449.662,510420.2,510412.445,510429.111,518878.773,518882,2023-02-28T13:57:53Z,518895.439,NULL,Gefährdung,kuhatarisha,d,NA,NA,NA,NA,sdf,NA,0,NA,NA,NA,NA,NA,NA,NA,NA,NA,NA,NA,NA,NA,NA,NA,NA,NA,NA,NA
a3a71,shallow,flow.Sequence,9_0_0_0_6_1,NA,NA,skipped,NA,518882.2,NA,NA,518878.773,518882.3,2023-02-28T13:57:53Z,518895.439,NULL,Gefährdung,kuhatarisha,d,NA,NA,NA,NA,sdf,NA,0,NA,NA,NA,NA,NA,NA,NA,NA,NA,NA,NA,NA,NA,NA,NA,NA,NA,NA,NA
a3a71,task,flow.Sequence,9_0_0_0_6,NA,NA,completion,8449.662,510420.1,510412.445,510429.111,518878.773,518882.5,2023-02-28T13:57:53Z,518895.439,NULL,Gefährdung,kuhatarisha,d,NA,NA,NA,NA,sdf,NA,0,NA,NA,NA,NA,NA,NA,NA,NA,NA,NA,NA,NA,NA,NA,NA,NA,NA,NA,NA
a3a71,deep,flow.Sequence,9_0_0_0_7_0,NA,NA,skipped,NA,518882.6,NA,NA,518878.773,518882.9,2023-02-28T13:57:53Z,518895.439,NULL,Respekt,heshima,s,changamnao,upinzani,ufanisi,NA,sdf,NA,0,NA,NA,NA,NA,NA,NA,NA,NA,NA,NA,NA,NA,NA,NA,NA,NA,NA,NA,NA
a3a71,Shallow Question,html.Page,9_0_0_0_7_1_0,NA,NA,form submission,7271.1610000015,518882.9,518878.773,518895.439,526166.6,526167.1,2023-02-28T13:58:01Z,526179.246,NULL,Respekt,heshima,s,changamnao,upinzani,ufanisi,ufanisi,NA,NA,0,NA,NA,NA,NA,NA,NA,NA,NA,NA,NA,NA,NA,NA,NA,NA,NA,NA,NA,NA
a3a71,"""Richtig""-Screen",canvas.Screen,9_0_0_0_7_1_1,NA,NA,skipped,NA,526170,NA,NA,526166.6,526170.1,2023-02-28T13:58:01Z,526179.246,NULL,Respekt,heshima,s,changamnao,upinzani,ufanisi,NA,sdf,NA,0,NA,NA,NA,NA,NA,NA,NA,NA,NA,NA,NA,NA,NA,NA,NA,NA,NA,NA,NA
a3a71,"""Falsch""-Screen",canvas.Screen,9_0_0_0_7_1_2,NA,NA,timeout,4999.7999999999,526171.2,526162.58,526179.246,531162.38,531164.7,2023-02-28T13:58:06Z,531179.046,NULL,Respekt,heshima,s,changamnao,upinzani,ufanisi,NA,sdf,0,0,NA,NA,NA,NA,NA,NA,NA,NA,NA,NA,NA,NA,NA,NA,NA,NA,NA,NA,NA
a3a71,shallow,flow.Sequence,9_0_0_0_7_1,NA,NA,completion,12266.941,518882.9,518878.773,518895.439,531162.38,531165.2,2023-02-28T13:58:06Z,531179.046,NULL,Respekt,heshima,s,changamnao,upinzani,ufanisi,NA,sdf,NA,0,NA,NA,NA,NA,NA,NA,NA,NA,NA,NA,NA,NA,NA,NA,NA,NA,NA,NA,NA
a3a71,task,flow.Sequence,9_0_0_0_7,NA,NA,completion,12266.941,518882.6,518878.773,518895.439,531162.38,531165.4,2023-02-28T13:58:06Z,531179.046,NULL,Respekt,heshima,s,changamnao,upinzani,ufanisi,NA,sdf,NA,0,NA,NA,NA,NA,NA,NA,NA,NA,NA,NA,NA,NA,NA,NA,NA,NA,NA,NA,NA
a3a71,block,flow.Loop,9_0_0_0,NA,NA,completion,86583.984,444572.3,444561.73,444578.396,531162.38,531165.5,2023-02-28T13:58:06Z,531179.046,NULL,NA,NA,NA,NA,NA,NA,NA,sdf,NA,0,NA,NA,NA,NA,NA,NA,NA,NA,NA,NA,NA,NA,NA,NA,NA,NA,NA,NA,NA
