observation,sender,sender_type,sender_id,response,response_action,ended_on,duration,time_run,time_render,time_show,time_end,time_commit,timestamp,time_switch,german,swahili,enc,distractor1,distractor2,distractor3,response_2,x,correct,distractors,url_vp,url_sess,meta_labjs_version,meta_location,meta_user_agent,meta_platform,meta_language,meta_locale,meta_time_zone,meta_timezone_offset,meta_screen_width,meta_screen_height,meta_scroll_width,meta_scroll_height,meta_window_inner_width,meta_window_inner_height,meta_device_pixel_ratio,meta_labjs_build_flavor,meta_labjs_build_commit
2503b,Introduction delayed retrieval,canvas.Screen,0,weiter,keypress(Space),response,1703,1138,1139,1146,2842,2874,2023-06-15T13:39:52Z,2902,NA,NA,NA,NA,NA,NA,NA,NA,NA,NULL,125,4,20.2.4,https://neurocog.fernuni.ch/studies/vweber/delayed/index.html?vp=125&sess=4,"Mozilla/5.0 (Macintosh; Intel Mac OS X 10_15_7) AppleWebKit/605.1.15 (KHTML, like Gecko) Version/16.3 Safari/605.1.15",MacIntel,de-DE,de-DE,Europe/Zurich,-120,1470,956,1458,681,1458,729,2,production,f5b4a49f956347addd546a832a3327688c2c0fef
2503b,Deep Question,html.Page,1_0_0_0,NA,NA,form submission,15293,2874,2885,2902,18195,18196,2023-06-15T13:40:08Z,18219,Abrechnung,uhasibu,d,kusahihisha,mpambano,mashambulizi,ntoko,NA,NA,NULL,NA,NA,NA,NA,NA,NA,NA,NA,NA,NA,NA,NA,NA,NA,NA,NA,NA,NA,NA
2503b,Save data screen,canvas.Screen,1_0_0_1,NA,NA,timeout,499,18198,18202,18219,18702,18703,2023-06-15T13:40:08Z,18718,Abrechnung,uhasibu,d,kusahihisha,mpambano,mashambulizi,NA,NA,0,NULL,NA,NA,NA,NA,NA,NA,NA,NA,NA,NA,NA,NA,NA,NA,NA,NA,NA,NA,NA
2503b,deep,flow.Sequence,1_0_0,NA,NA,completion,15800,2874,2885,2902,18702,18703,2023-06-15T13:40:08Z,18718,Abrechnung,uhasibu,d,kusahihisha,mpambano,mashambulizi,NA,NA,NA,NULL,NA,NA,NA,NA,NA,NA,NA,NA,NA,NA,NA,NA,NA,NA,NA,NA,NA,NA,NA
2503b,task,flow.Sequence,1_0,NA,NA,completion,15800,2874,2885,2902,18702,18704,2023-06-15T13:40:08Z,18718,Abrechnung,uhasibu,d,kusahihisha,mpambano,mashambulizi,NA,NA,NA,NULL,NA,NA,NA,NA,NA,NA,NA,NA,NA,NA,NA,NA,NA,NA,NA,NA,NA,NA,NA
2503b,Deep Question,html.Page,1_1_0_0,NA,NA,form submission,3403,18704,18702,18718,22121,22121,2023-06-15T13:40:12Z,22152,Kontrolle,kudhibiti,d,mbinguni,kufunga,utegemezi,bla,NA,NA,NULL,NA,NA,NA,NA,NA,NA,NA,NA,NA,NA,NA,NA,NA,NA,NA,NA,NA,NA,NA
2503b,Save data screen,canvas.Screen,1_1_0_1,NA,NA,timeout,500,22123,22135,22152,22635,22636,2023-06-15T13:40:12Z,22652,Kontrolle,kudhibiti,d,mbinguni,kufunga,utegemezi,NA,NA,0,NULL,NA,NA,NA,NA,NA,NA,NA,NA,NA,NA,NA,NA,NA,NA,NA,NA,NA,NA,NA
2503b,deep,flow.Sequence,1_1_0,NA,NA,completion,3917,18704,18702,18718,22635,22637,2023-06-15T13:40:12Z,22652,Kontrolle,kudhibiti,d,mbinguni,kufunga,utegemezi,NA,NA,NA,NULL,NA,NA,NA,NA,NA,NA,NA,NA,NA,NA,NA,NA,NA,NA,NA,NA,NA,NA,NA
2503b,task,flow.Sequence,1_1,NA,NA,completion,3917,18704,18702,18718,22635,22637,2023-06-15T13:40:12Z,22652,Kontrolle,kudhibiti,d,mbinguni,kufunga,utegemezi,NA,NA,NA,NULL,NA,NA,NA,NA,NA,NA,NA,NA,NA,NA,NA,NA,NA,NA,NA,NA,NA,NA,NA
2503b,Deep Question,html.Page,1_2_0_0,NA,NA,form submission,5758,22637,22635,22652,28410,28410,2023-06-15T13:40:18Z,28451,Lawine,banguko,s,maambukizi,usuluhishi,chekechea,blu,NA,NA,NULL,NA,NA,NA,NA,NA,NA,NA,NA,NA,NA,NA,NA,NA,NA,NA,NA,NA,NA,NA
2503b,Save data screen,canvas.Screen,1_2_0_1,NA,NA,timeout,501,28412,28435,28451,28935,28936,2023-06-15T13:40:19Z,28952,Lawine,banguko,s,maambukizi,usuluhishi,chekechea,NA,NA,0,NULL,NA,NA,NA,NA,NA,NA,NA,NA,NA,NA,NA,NA,NA,NA,NA,NA,NA,NA,NA
2503b,deep,flow.Sequence,1_2_0,NA,NA,completion,6283,22637,22635,22652,28935,28936,2023-06-15T13:40:19Z,28952,Lawine,banguko,s,maambukizi,usuluhishi,chekechea,NA,NA,NA,NULL,NA,NA,NA,NA,NA,NA,NA,NA,NA,NA,NA,NA,NA,NA,NA,NA,NA,NA,NA
2503b,task,flow.Sequence,1_2,NA,NA,completion,6283,22637,22635,22652,28935,28936,2023-06-15T13:40:19Z,28952,Lawine,banguko,s,maambukizi,usuluhishi,chekechea,NA,NA,NA,NULL,NA,NA,NA,NA,NA,NA,NA,NA,NA,NA,NA,NA,NA,NA,NA,NA,NA,NA,NA
2503b,Deep Question,html.Page,1_3_0_0,NA,NA,form submission,4492,28936,28935,28952,33444,33445,2023-06-15T13:40:23Z,33468,Prüfung,mtihani,s,mkulima,mtizamo,ufumbuzi,koro,NA,NA,NULL,NA,NA,NA,NA,NA,NA,NA,NA,NA,NA,NA,NA,NA,NA,NA,NA,NA,NA,NA
2503b,Save data screen,canvas.Screen,1_3_0_1,NA,NA,timeout,500,33447,33452,33468,33952,33953,2023-06-15T13:40:24Z,33968,Prüfung,mtihani,s,mkulima,mtizamo,ufumbuzi,NA,NA,0,NULL,NA,NA,NA,NA,NA,NA,NA,NA,NA,NA,NA,NA,NA,NA,NA,NA,NA,NA,NA
2503b,deep,flow.Sequence,1_3_0,NA,NA,completion,5000,28936,28935,28952,33952,33953,2023-06-15T13:40:24Z,33968,Prüfung,mtihani,s,mkulima,mtizamo,ufumbuzi,NA,NA,NA,NULL,NA,NA,NA,NA,NA,NA,NA,NA,NA,NA,NA,NA,NA,NA,NA,NA,NA,NA,NA
2503b,task,flow.Sequence,1_3,NA,NA,completion,5000,28936,28935,28952,33952,33954,2023-06-15T13:40:24Z,33968,Prüfung,mtihani,s,mkulima,mtizamo,ufumbuzi,NA,NA,NA,NULL,NA,NA,NA,NA,NA,NA,NA,NA,NA,NA,NA,NA,NA,NA,NA,NA,NA,NA,NA
2503b,Deep Question,html.Page,1_4_0_0,NA,NA,form submission,5272,33954,33952,33968,39240,39241,2023-06-15T13:40:29Z,39268,System,maongozi,s,chokochoko,nuksani,mitaani,nidea,NA,NA,NULL,NA,NA,NA,NA,NA,NA,NA,NA,NA,NA,NA,NA,NA,NA,NA,NA,NA,NA,NA
2503b,Save data screen,canvas.Screen,1_4_0_1,NA,NA,timeout,500,39243,39252,39268,39752,39752,2023-06-15T13:40:29Z,39768,System,maongozi,s,chokochoko,nuksani,mitaani,NA,NA,0,NULL,NA,NA,NA,NA,NA,NA,NA,NA,NA,NA,NA,NA,NA,NA,NA,NA,NA,NA,NA
2503b,deep,flow.Sequence,1_4_0,NA,NA,completion,5784,33954,33952,33968,39752,39753,2023-06-15T13:40:29Z,39768,System,maongozi,s,chokochoko,nuksani,mitaani,NA,NA,NA,NULL,NA,NA,NA,NA,NA,NA,NA,NA,NA,NA,NA,NA,NA,NA,NA,NA,NA,NA,NA
2503b,task,flow.Sequence,1_4,NA,NA,completion,5784,33954,33952,33968,39752,39753,2023-06-15T13:40:29Z,39768,System,maongozi,s,chokochoko,nuksani,mitaani,NA,NA,NA,NULL,NA,NA,NA,NA,NA,NA,NA,NA,NA,NA,NA,NA,NA,NA,NA,NA,NA,NA,NA
2503b,Deep Question,html.Page,1_5_0_0,NA,NA,form submission,5689,39753,39752,39768,45457,45457,2023-06-15T13:40:35Z,45484,Kanzler,diwani,d,rasilmali,mahitaji,maabudu,noidea,NA,NA,NULL,NA,NA,NA,NA,NA,NA,NA,NA,NA,NA,NA,NA,NA,NA,NA,NA,NA,NA,NA
2503b,Save data screen,canvas.Screen,1_5_0_1,NA,NA,timeout,501,45459,45468,45484,45968,45969,2023-06-15T13:40:36Z,45985,Kanzler,diwani,d,rasilmali,mahitaji,maabudu,NA,NA,0,NULL,NA,NA,NA,NA,NA,NA,NA,NA,NA,NA,NA,NA,NA,NA,NA,NA,NA,NA,NA
2503b,deep,flow.Sequence,1_5_0,NA,NA,completion,6200,39753,39752,39768,45968,45970,2023-06-15T13:40:36Z,45985,Kanzler,diwani,d,rasilmali,mahitaji,maabudu,NA,NA,NA,NULL,NA,NA,NA,NA,NA,NA,NA,NA,NA,NA,NA,NA,NA,NA,NA,NA,NA,NA,NA
2503b,task,flow.Sequence,1_5,NA,NA,completion,6200,39753,39752,39768,45968,45970,2023-06-15T13:40:36Z,45985,Kanzler,diwani,d,rasilmali,mahitaji,maabudu,NA,NA,NA,NULL,NA,NA,NA,NA,NA,NA,NA,NA,NA,NA,NA,NA,NA,NA,NA,NA,NA,NA,NA
2503b,Deep Question,html.Page,1_6_0_0,NA,NA,form submission,4081,45971,45968,45985,50066,50067,2023-06-15T13:40:40Z,50101,Aufstand,ugomaji,s,mazidio,msingi,kujieleza,noidea,NA,NA,NULL,NA,NA,NA,NA,NA,NA,NA,NA,NA,NA,NA,NA,NA,NA,NA,NA,NA,NA,NA
2503b,Save data screen,canvas.Screen,1_6_0_1,NA,NA,timeout,500,50068,50084,50101,50585,50586,2023-06-15T13:40:40Z,50601,Aufstand,ugomaji,s,mazidio,msingi,kujieleza,NA,NA,0,NULL,NA,NA,NA,NA,NA,NA,NA,NA,NA,NA,NA,NA,NA,NA,NA,NA,NA,NA,NA
2503b,deep,flow.Sequence,1_6_0,NA,NA,completion,4600,45971,45968,45985,50585,50587,2023-06-15T13:40:40Z,50601,Aufstand,ugomaji,s,mazidio,msingi,kujieleza,NA,NA,NA,NULL,NA,NA,NA,NA,NA,NA,NA,NA,NA,NA,NA,NA,NA,NA,NA,NA,NA,NA,NA
2503b,task,flow.Sequence,1_6,NA,NA,completion,4600,45970,45968,45985,50585,50588,2023-06-15T13:40:40Z,50601,Aufstand,ugomaji,s,mazidio,msingi,kujieleza,NA,NA,NA,NULL,NA,NA,NA,NA,NA,NA,NA,NA,NA,NA,NA,NA,NA,NA,NA,NA,NA,NA,NA
2503b,Deep Question,html.Page,1_7_0_0,NA,NA,form submission,5410,50588,50585,50601,56011,56012,2023-06-15T13:40:46Z,56035,Körper,kiwiliwili,d,mapambano,mpatanishi,kiolezo,noidea,NA,NA,NULL,NA,NA,NA,NA,NA,NA,NA,NA,NA,NA,NA,NA,NA,NA,NA,NA,NA,NA,NA
2503b,Save data screen,canvas.Screen,1_7_0_1,NA,NA,timeout,500,56013,56018,56035,56517,56518,2023-06-15T13:40:46Z,56535,Körper,kiwiliwili,d,mapambano,mpatanishi,kiolezo,NA,NA,0,NULL,NA,NA,NA,NA,NA,NA,NA,NA,NA,NA,NA,NA,NA,NA,NA,NA,NA,NA,NA
2503b,deep,flow.Sequence,1_7_0,NA,NA,completion,5916,50588,50585,50601,56517,56519,2023-06-15T13:40:46Z,56535,Körper,kiwiliwili,d,mapambano,mpatanishi,kiolezo,NA,NA,NA,NULL,NA,NA,NA,NA,NA,NA,NA,NA,NA,NA,NA,NA,NA,NA,NA,NA,NA,NA,NA
2503b,task,flow.Sequence,1_7,NA,NA,completion,5916,50588,50585,50601,56517,56519,2023-06-15T13:40:46Z,56535,Körper,kiwiliwili,d,mapambano,mpatanishi,kiolezo,NA,NA,NA,NULL,NA,NA,NA,NA,NA,NA,NA,NA,NA,NA,NA,NA,NA,NA,NA,NA,NA,NA,NA
2503b,Deep Question,html.Page,1_8_0_0,NA,NA,form submission,4092,56519,56517,56535,60627,60628,2023-06-15T13:40:50Z,60651,Gefährdung,kuhatarisha,d,uchokozi,udhaifu,makorowezo,noidea,NA,NA,NULL,NA,NA,NA,NA,NA,NA,NA,NA,NA,NA,NA,NA,NA,NA,NA,NA,NA,NA,NA
2503b,Save data screen,canvas.Screen,1_8_0_1,NA,NA,timeout,500,60630,60635,60651,61135,61136,2023-06-15T13:40:51Z,61151,Gefährdung,kuhatarisha,d,uchokozi,udhaifu,makorowezo,NA,NA,0,NULL,NA,NA,NA,NA,NA,NA,NA,NA,NA,NA,NA,NA,NA,NA,NA,NA,NA,NA,NA
2503b,deep,flow.Sequence,1_8_0,NA,NA,completion,4600,56519,56517,56535,61135,61136,2023-06-15T13:40:51Z,61151,Gefährdung,kuhatarisha,d,uchokozi,udhaifu,makorowezo,NA,NA,NA,NULL,NA,NA,NA,NA,NA,NA,NA,NA,NA,NA,NA,NA,NA,NA,NA,NA,NA,NA,NA
2503b,task,flow.Sequence,1_8,NA,NA,completion,4600,56519,56517,56535,61135,61137,2023-06-15T13:40:51Z,61151,Gefährdung,kuhatarisha,d,uchokozi,udhaifu,makorowezo,NA,NA,NA,NULL,NA,NA,NA,NA,NA,NA,NA,NA,NA,NA,NA,NA,NA,NA,NA,NA,NA,NA,NA
2503b,Deep Question,html.Page,1_9_0_0,NA,NA,form submission,6151,61137,61135,61151,67302,67303,2023-06-15T13:40:57Z,67334,Kreativität,ubunifu,s,mratibu,mwendelezo,makubaliano,kalenko,NA,NA,NULL,NA,NA,NA,NA,NA,NA,NA,NA,NA,NA,NA,NA,NA,NA,NA,NA,NA,NA,NA
2503b,Save data screen,canvas.Screen,1_9_0_1,NA,NA,timeout,501,67305,67318,67334,67818,67819,2023-06-15T13:40:57Z,67835,Kreativität,ubunifu,s,mratibu,mwendelezo,makubaliano,NA,NA,0,NULL,NA,NA,NA,NA,NA,NA,NA,NA,NA,NA,NA,NA,NA,NA,NA,NA,NA,NA,NA
2503b,deep,flow.Sequence,1_9_0,NA,NA,completion,6667,61137,61135,61151,67818,67820,2023-06-15T13:40:57Z,67835,Kreativität,ubunifu,s,mratibu,mwendelezo,makubaliano,NA,NA,NA,NULL,NA,NA,NA,NA,NA,NA,NA,NA,NA,NA,NA,NA,NA,NA,NA,NA,NA,NA,NA
2503b,task,flow.Sequence,1_9,NA,NA,completion,6667,61137,61135,61151,67818,67820,2023-06-15T13:40:57Z,67835,Kreativität,ubunifu,s,mratibu,mwendelezo,makubaliano,NA,NA,NA,NULL,NA,NA,NA,NA,NA,NA,NA,NA,NA,NA,NA,NA,NA,NA,NA,NA,NA,NA,NA
2503b,Deep Question,html.Page,1_10_0_0,NA,NA,form submission,4920,67820,67818,67835,72755,72756,2023-06-15T13:41:02Z,72784,Verzögerung,kuchelewa,d,mwakilishi,mwanauchumi,jaribio,kulami,NA,NA,NULL,NA,NA,NA,NA,NA,NA,NA,NA,NA,NA,NA,NA,NA,NA,NA,NA,NA,NA,NA
2503b,Save data screen,canvas.Screen,1_10_0_1,NA,NA,timeout,501,72758,72768,72784,73268,73268,2023-06-15T13:41:03Z,73285,Verzögerung,kuchelewa,d,mwakilishi,mwanauchumi,jaribio,NA,NA,0,NULL,NA,NA,NA,NA,NA,NA,NA,NA,NA,NA,NA,NA,NA,NA,NA,NA,NA,NA,NA
2503b,deep,flow.Sequence,1_10_0,NA,NA,completion,5433,67820,67818,67835,73268,73269,2023-06-15T13:41:03Z,73285,Verzögerung,kuchelewa,d,mwakilishi,mwanauchumi,jaribio,NA,NA,NA,NULL,NA,NA,NA,NA,NA,NA,NA,NA,NA,NA,NA,NA,NA,NA,NA,NA,NA,NA,NA
2503b,task,flow.Sequence,1_10,NA,NA,completion,5433,67820,67818,67835,73268,73269,2023-06-15T13:41:03Z,73285,Verzögerung,kuchelewa,d,mwakilishi,mwanauchumi,jaribio,NA,NA,NA,NULL,NA,NA,NA,NA,NA,NA,NA,NA,NA,NA,NA,NA,NA,NA,NA,NA,NA,NA,NA
2503b,Deep Question,html.Page,1_11_0_0,NA,NA,form submission,4027,73269,73268,73285,77312,77312,2023-06-15T13:41:07Z,77334,Übersicht,kilindo,d,mgusano,chipukizi,kulinganisha,usubulu,NA,NA,NULL,NA,NA,NA,NA,NA,NA,NA,NA,NA,NA,NA,NA,NA,NA,NA,NA,NA,NA,NA
2503b,Save data screen,canvas.Screen,1_11_0_1,NA,NA,timeout,500,77315,77321,77334,77818,77819,2023-06-15T13:41:07Z,77834,Übersicht,kilindo,d,mgusano,chipukizi,kulinganisha,NA,NA,0,NULL,NA,NA,NA,NA,NA,NA,NA,NA,NA,NA,NA,NA,NA,NA,NA,NA,NA,NA,NA
2503b,deep,flow.Sequence,1_11_0,NA,NA,completion,4533,73269,73268,73285,77818,77820,2023-06-15T13:41:07Z,77834,Übersicht,kilindo,d,mgusano,chipukizi,kulinganisha,NA,NA,NA,NULL,NA,NA,NA,NA,NA,NA,NA,NA,NA,NA,NA,NA,NA,NA,NA,NA,NA,NA,NA
2503b,task,flow.Sequence,1_11,NA,NA,completion,4533,73269,73268,73285,77818,77820,2023-06-15T13:41:07Z,77834,Übersicht,kilindo,d,mgusano,chipukizi,kulinganisha,NA,NA,NA,NULL,NA,NA,NA,NA,NA,NA,NA,NA,NA,NA,NA,NA,NA,NA,NA,NA,NA,NA,NA
2503b,Deep Question,html.Page,1_12_0_0,NA,NA,form submission,4321,77821,77818,77834,82155,82155,2023-06-15T13:41:12Z,82184,Angreifer,mshambulizi,s,kitengo,tasinia,usafirishaji,usubulu,NA,NA,NULL,NA,NA,NA,NA,NA,NA,NA,NA,NA,NA,NA,NA,NA,NA,NA,NA,NA,NA,NA
2503b,Save data screen,canvas.Screen,1_12_0_1,NA,NA,timeout,500,82157,82167,82184,82668,82669,2023-06-15T13:41:12Z,82684,Angreifer,mshambulizi,s,kitengo,tasinia,usafirishaji,NA,NA,0,NULL,NA,NA,NA,NA,NA,NA,NA,NA,NA,NA,NA,NA,NA,NA,NA,NA,NA,NA,NA
2503b,deep,flow.Sequence,1_12_0,NA,NA,completion,4834,77821,77818,77834,82668,82669,2023-06-15T13:41:12Z,82684,Angreifer,mshambulizi,s,kitengo,tasinia,usafirishaji,NA,NA,NA,NULL,NA,NA,NA,NA,NA,NA,NA,NA,NA,NA,NA,NA,NA,NA,NA,NA,NA,NA,NA
2503b,task,flow.Sequence,1_12,NA,NA,completion,4834,77821,77818,77834,82668,82669,2023-06-15T13:41:12Z,82684,Angreifer,mshambulizi,s,kitengo,tasinia,usafirishaji,NA,NA,NA,NULL,NA,NA,NA,NA,NA,NA,NA,NA,NA,NA,NA,NA,NA,NA,NA,NA,NA,NA,NA
2503b,Deep Question,html.Page,1_13_0_0,NA,NA,form submission,3862,82670,82668,82684,86546,86546,2023-06-15T13:41:16Z,86567,Kultur,utamaduni,d,shetani,gerezani,mazingira,ubulusu,NA,NA,NULL,NA,NA,NA,NA,NA,NA,NA,NA,NA,NA,NA,NA,NA,NA,NA,NA,NA,NA,NA
2503b,Save data screen,canvas.Screen,1_13_0_1,NA,NA,timeout,501,86548,86551,86567,87051,87052,2023-06-15T13:41:17Z,87068,Kultur,utamaduni,d,shetani,gerezani,mazingira,NA,NA,0,NULL,NA,NA,NA,NA,NA,NA,NA,NA,NA,NA,NA,NA,NA,NA,NA,NA,NA,NA,NA
2503b,deep,flow.Sequence,1_13_0,NA,NA,completion,4367,82670,82668,82684,87051,87053,2023-06-15T13:41:17Z,87068,Kultur,utamaduni,d,shetani,gerezani,mazingira,NA,NA,NA,NULL,NA,NA,NA,NA,NA,NA,NA,NA,NA,NA,NA,NA,NA,NA,NA,NA,NA,NA,NA
2503b,task,flow.Sequence,1_13,NA,NA,completion,4367,82670,82668,82684,87051,87054,2023-06-15T13:41:17Z,87068,Kultur,utamaduni,d,shetani,gerezani,mazingira,NA,NA,NA,NULL,NA,NA,NA,NA,NA,NA,NA,NA,NA,NA,NA,NA,NA,NA,NA,NA,NA,NA,NA
2503b,Deep Question,html.Page,1_14_0_0,NA,NA,form submission,4531,87054,87051,87068,91599,91599,2023-06-15T13:41:21Z,91634,Sänger,mwimbaji,s,msichana,shughuli,mshirika,ubulusu,NA,NA,NULL,NA,NA,NA,NA,NA,NA,NA,NA,NA,NA,NA,NA,NA,NA,NA,NA,NA,NA,NA
2503b,Save data screen,canvas.Screen,1_14_0_1,NA,NA,timeout,500,91602,91618,91634,92118,92119,2023-06-15T13:41:22Z,92134,Sänger,mwimbaji,s,msichana,shughuli,mshirika,NA,NA,0,NULL,NA,NA,NA,NA,NA,NA,NA,NA,NA,NA,NA,NA,NA,NA,NA,NA,NA,NA,NA
2503b,deep,flow.Sequence,1_14_0,NA,NA,completion,5050,87054,87051,87068,92118,92119,2023-06-15T13:41:22Z,92134,Sänger,mwimbaji,s,msichana,shughuli,mshirika,NA,NA,NA,NULL,NA,NA,NA,NA,NA,NA,NA,NA,NA,NA,NA,NA,NA,NA,NA,NA,NA,NA,NA
2503b,task,flow.Sequence,1_14,NA,NA,completion,5050,87054,87051,87068,92118,92120,2023-06-15T13:41:22Z,92134,Sänger,mwimbaji,s,msichana,shughuli,mshirika,NA,NA,NA,NULL,NA,NA,NA,NA,NA,NA,NA,NA,NA,NA,NA,NA,NA,NA,NA,NA,NA,NA,NA
2503b,Deep Question,html.Page,1_15_0_0,NA,NA,form submission,3994,92120,92118,92134,96128,96129,2023-06-15T13:41:26Z,96150,Können,unaweza,s,kiongozi,bustani,mienendo,ubulusu,NA,NA,NULL,NA,NA,NA,NA,NA,NA,NA,NA,NA,NA,NA,NA,NA,NA,NA,NA,NA,NA,NA
2503b,Save data screen,canvas.Screen,1_15_0_1,NA,NA,timeout,506,96131,96137,96150,96634,96635,2023-06-15T13:41:26Z,96656,Können,unaweza,s,kiongozi,bustani,mienendo,NA,NA,0,NULL,NA,NA,NA,NA,NA,NA,NA,NA,NA,NA,NA,NA,NA,NA,NA,NA,NA,NA,NA
2503b,deep,flow.Sequence,1_15_0,NA,NA,completion,4500,92120,92118,92134,96634,96636,2023-06-15T13:41:26Z,96656,Können,unaweza,s,kiongozi,bustani,mienendo,NA,NA,NA,NULL,NA,NA,NA,NA,NA,NA,NA,NA,NA,NA,NA,NA,NA,NA,NA,NA,NA,NA,NA
2503b,task,flow.Sequence,1_15,NA,NA,completion,4500,92120,92118,92134,96634,96637,2023-06-15T13:41:26Z,96656,Können,unaweza,s,kiongozi,bustani,mienendo,NA,NA,NA,NULL,NA,NA,NA,NA,NA,NA,NA,NA,NA,NA,NA,NA,NA,NA,NA,NA,NA,NA,NA
2503b,retrieval block 1 (cued recall),flow.Loop,1,NA,NA,completion,93732,2874,2885,2902,96634,96637,2023-06-15T13:41:26Z,96656,NA,NA,NA,NA,NA,NA,NA,NA,NA,NULL,NA,NA,NA,NA,NA,NA,NA,NA,NA,NA,NA,NA,NA,NA,NA,NA,NA,NA,NA
2503b,Shallow Question,html.Page,2_0_0_0,NA,NA,form submission,5097,96638,96634,96656,101753,101753,2023-06-15T13:41:31Z,101784,Lawine,banguko,s,maambukizi,usuluhishi,chekechea,chekechea,NA,NA,"c(""distractor1"", ""distractor2"", ""distractor3"")",NA,NA,NA,NA,NA,NA,NA,NA,NA,NA,NA,NA,NA,NA,NA,NA,NA,NA,NA
2503b,Save data screen,canvas.Screen,2_0_0_1,NA,NA,timeout,500,101756,101767,101784,102267,102268,2023-06-15T13:41:32Z,102284,Lawine,banguko,s,maambukizi,usuluhishi,chekechea,NA,NA,0,"c(""distractor1"", ""distractor2"", ""distractor3"")",NA,NA,NA,NA,NA,NA,NA,NA,NA,NA,NA,NA,NA,NA,NA,NA,NA,NA,NA
2503b,shallow,flow.Sequence,2_0_0,NA,NA,completion,5611,96638,96634,96656,102267,102268,2023-06-15T13:41:32Z,102284,Lawine,banguko,s,maambukizi,usuluhishi,chekechea,NA,NA,NA,"c(""distractor1"", ""distractor2"", ""distractor3"")",NA,NA,NA,NA,NA,NA,NA,NA,NA,NA,NA,NA,NA,NA,NA,NA,NA,NA,NA
2503b,task,flow.Sequence,2_0,NA,NA,completion,5611,96638,96634,96656,102267,102268,2023-06-15T13:41:32Z,102284,Lawine,banguko,s,maambukizi,usuluhishi,chekechea,NA,NA,NA,"c(""distractor1"", ""distractor2"", ""distractor3"")",NA,NA,NA,NA,NA,NA,NA,NA,NA,NA,NA,NA,NA,NA,NA,NA,NA,NA,NA
2503b,Shallow Question,html.Page,2_1_0_0,NA,NA,form submission,5400,102268,102267,102284,107684,107685,2023-06-15T13:41:37Z,107717,Angreifer,mshambulizi,s,kitengo,tasinia,usafirishaji,usafirishaji,NA,NA,"c(""distractor1"", ""distractor2"", ""distractor3"")",NA,NA,NA,NA,NA,NA,NA,NA,NA,NA,NA,NA,NA,NA,NA,NA,NA,NA,NA
2503b,Save data screen,canvas.Screen,2_1_0_1,NA,NA,timeout,500,107687,107701,107717,108201,108202,2023-06-15T13:41:38Z,108217,Angreifer,mshambulizi,s,kitengo,tasinia,usafirishaji,NA,NA,0,"c(""distractor1"", ""distractor2"", ""distractor3"")",NA,NA,NA,NA,NA,NA,NA,NA,NA,NA,NA,NA,NA,NA,NA,NA,NA,NA,NA
2503b,shallow,flow.Sequence,2_1_0,NA,NA,completion,5917,102268,102267,102284,108201,108202,2023-06-15T13:41:38Z,108217,Angreifer,mshambulizi,s,kitengo,tasinia,usafirishaji,NA,NA,NA,"c(""distractor1"", ""distractor2"", ""distractor3"")",NA,NA,NA,NA,NA,NA,NA,NA,NA,NA,NA,NA,NA,NA,NA,NA,NA,NA,NA
2503b,task,flow.Sequence,2_1,NA,NA,completion,5917,102268,102267,102284,108201,108203,2023-06-15T13:41:38Z,108217,Angreifer,mshambulizi,s,kitengo,tasinia,usafirishaji,NA,NA,NA,"c(""distractor1"", ""distractor2"", ""distractor3"")",NA,NA,NA,NA,NA,NA,NA,NA,NA,NA,NA,NA,NA,NA,NA,NA,NA,NA,NA
2503b,Shallow Question,html.Page,2_2_0_0,NA,NA,form submission,3603,108203,108201,108217,111820,111821,2023-06-15T13:41:41Z,111851,Verzögerung,kuchelewa,d,mwakilishi,mwanauchumi,jaribio,kuchelewa,NA,NA,"c(""distractor1"", ""distractor2"", ""distractor3"")",NA,NA,NA,NA,NA,NA,NA,NA,NA,NA,NA,NA,NA,NA,NA,NA,NA,NA,NA
2503b,Save data screen,canvas.Screen,2_2_0_1,NA,NA,timeout,500,111824,111834,111851,112334,112335,2023-06-15T13:41:42Z,112351,Verzögerung,kuchelewa,d,mwakilishi,mwanauchumi,jaribio,NA,NA,1,"c(""distractor1"", ""distractor2"", ""distractor3"")",NA,NA,NA,NA,NA,NA,NA,NA,NA,NA,NA,NA,NA,NA,NA,NA,NA,NA,NA
2503b,shallow,flow.Sequence,2_2_0,NA,NA,completion,4117,108203,108201,108217,112334,112336,2023-06-15T13:41:42Z,112351,Verzögerung,kuchelewa,d,mwakilishi,mwanauchumi,jaribio,NA,NA,NA,"c(""distractor1"", ""distractor2"", ""distractor3"")",NA,NA,NA,NA,NA,NA,NA,NA,NA,NA,NA,NA,NA,NA,NA,NA,NA,NA,NA
2503b,task,flow.Sequence,2_2,NA,NA,completion,4117,108203,108201,108217,112334,112336,2023-06-15T13:41:42Z,112351,Verzögerung,kuchelewa,d,mwakilishi,mwanauchumi,jaribio,NA,NA,NA,"c(""distractor1"", ""distractor2"", ""distractor3"")",NA,NA,NA,NA,NA,NA,NA,NA,NA,NA,NA,NA,NA,NA,NA,NA,NA,NA,NA
2503b,Shallow Question,html.Page,2_3_0_0,NA,NA,form submission,5454,112336,112334,112351,117805,117806,2023-06-15T13:41:47Z,117834,Kreativität,ubunifu,s,mratibu,mwendelezo,makubaliano,ubunifu,NA,NA,"c(""distractor1"", ""distractor2"", ""distractor3"")",NA,NA,NA,NA,NA,NA,NA,NA,NA,NA,NA,NA,NA,NA,NA,NA,NA,NA,NA
2503b,Save data screen,canvas.Screen,2_3_0_1,NA,NA,timeout,500,117808,117817,117834,118317,118317,2023-06-15T13:41:48Z,118334,Kreativität,ubunifu,s,mratibu,mwendelezo,makubaliano,NA,NA,1,"c(""distractor1"", ""distractor2"", ""distractor3"")",NA,NA,NA,NA,NA,NA,NA,NA,NA,NA,NA,NA,NA,NA,NA,NA,NA,NA,NA
2503b,shallow,flow.Sequence,2_3_0,NA,NA,completion,5966,112336,112334,112351,118317,118318,2023-06-15T13:41:48Z,118334,Kreativität,ubunifu,s,mratibu,mwendelezo,makubaliano,NA,NA,NA,"c(""distractor1"", ""distractor2"", ""distractor3"")",NA,NA,NA,NA,NA,NA,NA,NA,NA,NA,NA,NA,NA,NA,NA,NA,NA,NA,NA
2503b,task,flow.Sequence,2_3,NA,NA,completion,5966,112336,112334,112351,118317,118318,2023-06-15T13:41:48Z,118334,Kreativität,ubunifu,s,mratibu,mwendelezo,makubaliano,NA,NA,NA,"c(""distractor1"", ""distractor2"", ""distractor3"")",NA,NA,NA,NA,NA,NA,NA,NA,NA,NA,NA,NA,NA,NA,NA,NA,NA,NA,NA
2503b,Shallow Question,html.Page,2_4_0_0,NA,NA,form submission,5873,118318,118317,118334,124207,124208,2023-06-15T13:41:54Z,124234,Aufstand,ugomaji,s,mazidio,msingi,kujieleza,ugomaji,NA,NA,"c(""distractor1"", ""distractor2"", ""distractor3"")",NA,NA,NA,NA,NA,NA,NA,NA,NA,NA,NA,NA,NA,NA,NA,NA,NA,NA,NA
2503b,Save data screen,canvas.Screen,2_4_0_1,NA,NA,timeout,500,124210,124217,124234,124717,124719,2023-06-15T13:41:54Z,124734,Aufstand,ugomaji,s,mazidio,msingi,kujieleza,NA,NA,1,"c(""distractor1"", ""distractor2"", ""distractor3"")",NA,NA,NA,NA,NA,NA,NA,NA,NA,NA,NA,NA,NA,NA,NA,NA,NA,NA,NA
2503b,shallow,flow.Sequence,2_4_0,NA,NA,completion,6383,118318,118317,118334,124717,124719,2023-06-15T13:41:54Z,124734,Aufstand,ugomaji,s,mazidio,msingi,kujieleza,NA,NA,NA,"c(""distractor1"", ""distractor2"", ""distractor3"")",NA,NA,NA,NA,NA,NA,NA,NA,NA,NA,NA,NA,NA,NA,NA,NA,NA,NA,NA
2503b,task,flow.Sequence,2_4,NA,NA,completion,6383,118318,118317,118334,124717,124720,2023-06-15T13:41:54Z,124734,Aufstand,ugomaji,s,mazidio,msingi,kujieleza,NA,NA,NA,"c(""distractor1"", ""distractor2"", ""distractor3"")",NA,NA,NA,NA,NA,NA,NA,NA,NA,NA,NA,NA,NA,NA,NA,NA,NA,NA,NA
2503b,Shallow Question,html.Page,2_5_0_0,NA,NA,form submission,4304,124721,124717,124734,129038,129039,2023-06-15T13:41:59Z,129067,Können,unaweza,s,kiongozi,bustani,mienendo,unaweza,NA,NA,"c(""distractor1"", ""distractor2"", ""distractor3"")",NA,NA,NA,NA,NA,NA,NA,NA,NA,NA,NA,NA,NA,NA,NA,NA,NA,NA,NA
2503b,Save data screen,canvas.Screen,2_5_0_1,NA,NA,timeout,500,129042,129050,129067,129549,129550,2023-06-15T13:41:59Z,129567,Können,unaweza,s,kiongozi,bustani,mienendo,NA,NA,1,"c(""distractor1"", ""distractor2"", ""distractor3"")",NA,NA,NA,NA,NA,NA,NA,NA,NA,NA,NA,NA,NA,NA,NA,NA,NA,NA,NA
2503b,shallow,flow.Sequence,2_5_0,NA,NA,completion,4815,124720,124717,124734,129549,129551,2023-06-15T13:41:59Z,129567,Können,unaweza,s,kiongozi,bustani,mienendo,NA,NA,NA,"c(""distractor1"", ""distractor2"", ""distractor3"")",NA,NA,NA,NA,NA,NA,NA,NA,NA,NA,NA,NA,NA,NA,NA,NA,NA,NA,NA
2503b,task,flow.Sequence,2_5,NA,NA,completion,4815,124720,124717,124734,129549,129551,2023-06-15T13:41:59Z,129567,Können,unaweza,s,kiongozi,bustani,mienendo,NA,NA,NA,"c(""distractor1"", ""distractor2"", ""distractor3"")",NA,NA,NA,NA,NA,NA,NA,NA,NA,NA,NA,NA,NA,NA,NA,NA,NA,NA,NA
2503b,Shallow Question,html.Page,2_6_0_0,NA,NA,form submission,3062,129551,129549,129567,132629,132630,2023-06-15T13:42:02Z,132650,Kanzler,diwani,d,rasilmali,mahitaji,maabudu,diwani,NA,NA,"c(""distractor1"", ""distractor2"", ""distractor3"")",NA,NA,NA,NA,NA,NA,NA,NA,NA,NA,NA,NA,NA,NA,NA,NA,NA,NA,NA
2503b,Save data screen,canvas.Screen,2_6_0_1,NA,NA,timeout,500,132632,132638,132650,133134,133134,2023-06-15T13:42:03Z,133150,Kanzler,diwani,d,rasilmali,mahitaji,maabudu,NA,NA,1,"c(""distractor1"", ""distractor2"", ""distractor3"")",NA,NA,NA,NA,NA,NA,NA,NA,NA,NA,NA,NA,NA,NA,NA,NA,NA,NA,NA
2503b,shallow,flow.Sequence,2_6_0,NA,NA,completion,3567,129551,129549,129567,133134,133135,2023-06-15T13:42:03Z,133150,Kanzler,diwani,d,rasilmali,mahitaji,maabudu,NA,NA,NA,"c(""distractor1"", ""distractor2"", ""distractor3"")",NA,NA,NA,NA,NA,NA,NA,NA,NA,NA,NA,NA,NA,NA,NA,NA,NA,NA,NA
2503b,task,flow.Sequence,2_6,NA,NA,completion,3567,129551,129549,129567,133134,133135,2023-06-15T13:42:03Z,133150,Kanzler,diwani,d,rasilmali,mahitaji,maabudu,NA,NA,NA,"c(""distractor1"", ""distractor2"", ""distractor3"")",NA,NA,NA,NA,NA,NA,NA,NA,NA,NA,NA,NA,NA,NA,NA,NA,NA,NA,NA
2503b,Shallow Question,html.Page,2_7_0_0,NA,NA,form submission,3493,133135,133134,133150,136643,136643,2023-06-15T13:42:06Z,136667,Prüfung,mtihani,s,mkulima,mtizamo,ufumbuzi,mtihani,NA,NA,"c(""distractor1"", ""distractor2"", ""distractor3"")",NA,NA,NA,NA,NA,NA,NA,NA,NA,NA,NA,NA,NA,NA,NA,NA,NA,NA,NA
2503b,Save data screen,canvas.Screen,2_7_0_1,NA,NA,timeout,500,136644,136650,136667,137150,137151,2023-06-15T13:42:07Z,137167,Prüfung,mtihani,s,mkulima,mtizamo,ufumbuzi,NA,NA,1,"c(""distractor1"", ""distractor2"", ""distractor3"")",NA,NA,NA,NA,NA,NA,NA,NA,NA,NA,NA,NA,NA,NA,NA,NA,NA,NA,NA
2503b,shallow,flow.Sequence,2_7_0,NA,NA,completion,4000,133135,133134,133150,137150,137151,2023-06-15T13:42:07Z,137167,Prüfung,mtihani,s,mkulima,mtizamo,ufumbuzi,NA,NA,NA,"c(""distractor1"", ""distractor2"", ""distractor3"")",NA,NA,NA,NA,NA,NA,NA,NA,NA,NA,NA,NA,NA,NA,NA,NA,NA,NA,NA
2503b,task,flow.Sequence,2_7,NA,NA,completion,4000,133135,133134,133150,137150,137152,2023-06-15T13:42:07Z,137167,Prüfung,mtihani,s,mkulima,mtizamo,ufumbuzi,NA,NA,NA,"c(""distractor1"", ""distractor2"", ""distractor3"")",NA,NA,NA,NA,NA,NA,NA,NA,NA,NA,NA,NA,NA,NA,NA,NA,NA,NA,NA
2503b,Shallow Question,html.Page,2_8_0_0,NA,NA,form submission,3031,137152,137150,137167,140198,140199,2023-06-15T13:42:10Z,140234,Sänger,mwimbaji,s,msichana,shughuli,mshirika,mshirika,NA,NA,"c(""distractor1"", ""distractor2"", ""distractor3"")",NA,NA,NA,NA,NA,NA,NA,NA,NA,NA,NA,NA,NA,NA,NA,NA,NA,NA,NA
2503b,Save data screen,canvas.Screen,2_8_0_1,NA,NA,timeout,500,140200,140217,140234,140716,140717,2023-06-15T13:42:10Z,140734,Sänger,mwimbaji,s,msichana,shughuli,mshirika,NA,NA,0,"c(""distractor1"", ""distractor2"", ""distractor3"")",NA,NA,NA,NA,NA,NA,NA,NA,NA,NA,NA,NA,NA,NA,NA,NA,NA,NA,NA
2503b,shallow,flow.Sequence,2_8_0,NA,NA,completion,3549,137152,137150,137167,140716,140717,2023-06-15T13:42:10Z,140734,Sänger,mwimbaji,s,msichana,shughuli,mshirika,NA,NA,NA,"c(""distractor1"", ""distractor2"", ""distractor3"")",NA,NA,NA,NA,NA,NA,NA,NA,NA,NA,NA,NA,NA,NA,NA,NA,NA,NA,NA
2503b,task,flow.Sequence,2_8,NA,NA,completion,3549,137152,137150,137167,140716,140718,2023-06-15T13:42:10Z,140734,Sänger,mwimbaji,s,msichana,shughuli,mshirika,NA,NA,NA,"c(""distractor1"", ""distractor2"", ""distractor3"")",NA,NA,NA,NA,NA,NA,NA,NA,NA,NA,NA,NA,NA,NA,NA,NA,NA,NA,NA
2503b,Shallow Question,html.Page,2_9_0_0,NA,NA,form submission,3969,140718,140716,140734,144703,144704,2023-06-15T13:42:14Z,144734,Körper,kiwiliwili,d,mapambano,mpatanishi,kiolezo,mpatanishi,NA,NA,"c(""distractor1"", ""distractor2"", ""distractor3"")",NA,NA,NA,NA,NA,NA,NA,NA,NA,NA,NA,NA,NA,NA,NA,NA,NA,NA,NA
2503b,Save data screen,canvas.Screen,2_9_0_1,NA,NA,timeout,500,144705,144717,144734,145217,145217,2023-06-15T13:42:15Z,145234,Körper,kiwiliwili,d,mapambano,mpatanishi,kiolezo,NA,NA,0,"c(""distractor1"", ""distractor2"", ""distractor3"")",NA,NA,NA,NA,NA,NA,NA,NA,NA,NA,NA,NA,NA,NA,NA,NA,NA,NA,NA
2503b,shallow,flow.Sequence,2_9_0,NA,NA,completion,4483,140718,140716,140734,145217,145218,2023-06-15T13:42:15Z,145234,Körper,kiwiliwili,d,mapambano,mpatanishi,kiolezo,NA,NA,NA,"c(""distractor1"", ""distractor2"", ""distractor3"")",NA,NA,NA,NA,NA,NA,NA,NA,NA,NA,NA,NA,NA,NA,NA,NA,NA,NA,NA
2503b,task,flow.Sequence,2_9,NA,NA,completion,4483,140718,140716,140734,145217,145218,2023-06-15T13:42:15Z,145234,Körper,kiwiliwili,d,mapambano,mpatanishi,kiolezo,NA,NA,NA,"c(""distractor1"", ""distractor2"", ""distractor3"")",NA,NA,NA,NA,NA,NA,NA,NA,NA,NA,NA,NA,NA,NA,NA,NA,NA,NA,NA
2503b,Shallow Question,html.Page,2_10_0_0,NA,NA,form submission,5177,145218,145217,145234,150411,150412,2023-06-15T13:42:20Z,150433,Gefährdung,kuhatarisha,d,uchokozi,udhaifu,makorowezo,udhaifu,NA,NA,"c(""distractor1"", ""distractor2"", ""distractor3"")",NA,NA,NA,NA,NA,NA,NA,NA,NA,NA,NA,NA,NA,NA,NA,NA,NA,NA,NA
2503b,Save data screen,canvas.Screen,2_10_0_1,NA,NA,timeout,500,150415,150417,150433,150917,150918,2023-06-15T13:42:21Z,150933,Gefährdung,kuhatarisha,d,uchokozi,udhaifu,makorowezo,NA,NA,0,"c(""distractor1"", ""distractor2"", ""distractor3"")",NA,NA,NA,NA,NA,NA,NA,NA,NA,NA,NA,NA,NA,NA,NA,NA,NA,NA,NA
2503b,shallow,flow.Sequence,2_10_0,NA,NA,completion,5683,145218,145217,145234,150917,150918,2023-06-15T13:42:21Z,150933,Gefährdung,kuhatarisha,d,uchokozi,udhaifu,makorowezo,NA,NA,NA,"c(""distractor1"", ""distractor2"", ""distractor3"")",NA,NA,NA,NA,NA,NA,NA,NA,NA,NA,NA,NA,NA,NA,NA,NA,NA,NA,NA
2503b,task,flow.Sequence,2_10,NA,NA,completion,5683,145218,145217,145234,150917,150918,2023-06-15T13:42:21Z,150933,Gefährdung,kuhatarisha,d,uchokozi,udhaifu,makorowezo,NA,NA,NA,"c(""distractor1"", ""distractor2"", ""distractor3"")",NA,NA,NA,NA,NA,NA,NA,NA,NA,NA,NA,NA,NA,NA,NA,NA,NA,NA,NA
2503b,Shallow Question,html.Page,2_11_0_0,NA,NA,form submission,3605,150919,150917,150933,154538,154539,2023-06-15T13:42:24Z,154567,Übersicht,kilindo,d,mgusano,chipukizi,kulinganisha,mgusano,NA,NA,"c(""distractor1"", ""distractor2"", ""distractor3"")",NA,NA,NA,NA,NA,NA,NA,NA,NA,NA,NA,NA,NA,NA,NA,NA,NA,NA,NA
2503b,Save data screen,canvas.Screen,2_11_0_1,NA,NA,timeout,500,154541,154550,154567,155050,155051,2023-06-15T13:42:25Z,155067,Übersicht,kilindo,d,mgusano,chipukizi,kulinganisha,NA,NA,0,"c(""distractor1"", ""distractor2"", ""distractor3"")",NA,NA,NA,NA,NA,NA,NA,NA,NA,NA,NA,NA,NA,NA,NA,NA,NA,NA,NA
2503b,shallow,flow.Sequence,2_11_0,NA,NA,completion,4117,150919,150917,150933,155050,155052,2023-06-15T13:42:25Z,155067,Übersicht,kilindo,d,mgusano,chipukizi,kulinganisha,NA,NA,NA,"c(""distractor1"", ""distractor2"", ""distractor3"")",NA,NA,NA,NA,NA,NA,NA,NA,NA,NA,NA,NA,NA,NA,NA,NA,NA,NA,NA
2503b,task,flow.Sequence,2_11,NA,NA,completion,4117,150919,150917,150933,155050,155052,2023-06-15T13:42:25Z,155067,Übersicht,kilindo,d,mgusano,chipukizi,kulinganisha,NA,NA,NA,"c(""distractor1"", ""distractor2"", ""distractor3"")",NA,NA,NA,NA,NA,NA,NA,NA,NA,NA,NA,NA,NA,NA,NA,NA,NA,NA,NA
2503b,Shallow Question,html.Page,2_12_0_0,NA,NA,form submission,3521,155052,155050,155067,158588,158589,2023-06-15T13:42:28Z,158617,Kontrolle,kudhibiti,d,mbinguni,kufunga,utegemezi,utegemezi,NA,NA,"c(""distractor1"", ""distractor2"", ""distractor3"")",NA,NA,NA,NA,NA,NA,NA,NA,NA,NA,NA,NA,NA,NA,NA,NA,NA,NA,NA
2503b,Save data screen,canvas.Screen,2_12_0_1,NA,NA,timeout,500,158591,158600,158617,159100,159101,2023-06-15T13:42:29Z,159117,Kontrolle,kudhibiti,d,mbinguni,kufunga,utegemezi,NA,NA,0,"c(""distractor1"", ""distractor2"", ""distractor3"")",NA,NA,NA,NA,NA,NA,NA,NA,NA,NA,NA,NA,NA,NA,NA,NA,NA,NA,NA
2503b,shallow,flow.Sequence,2_12_0,NA,NA,completion,4033,155052,155050,155067,159100,159102,2023-06-15T13:42:29Z,159117,Kontrolle,kudhibiti,d,mbinguni,kufunga,utegemezi,NA,NA,NA,"c(""distractor1"", ""distractor2"", ""distractor3"")",NA,NA,NA,NA,NA,NA,NA,NA,NA,NA,NA,NA,NA,NA,NA,NA,NA,NA,NA
2503b,task,flow.Sequence,2_12,NA,NA,completion,4033,155052,155050,155067,159100,159103,2023-06-15T13:42:29Z,159117,Kontrolle,kudhibiti,d,mbinguni,kufunga,utegemezi,NA,NA,NA,"c(""distractor1"", ""distractor2"", ""distractor3"")",NA,NA,NA,NA,NA,NA,NA,NA,NA,NA,NA,NA,NA,NA,NA,NA,NA,NA,NA
2503b,Shallow Question,html.Page,2_13_0_0,NA,NA,form submission,4712,159103,159100,159117,163829,163829,2023-06-15T13:42:33Z,163850,Kultur,utamaduni,d,shetani,gerezani,mazingira,utamaduni,NA,NA,"c(""distractor1"", ""distractor2"", ""distractor3"")",NA,NA,NA,NA,NA,NA,NA,NA,NA,NA,NA,NA,NA,NA,NA,NA,NA,NA,NA
2503b,Save data screen,canvas.Screen,2_13_0_1,NA,NA,timeout,500,163831,163833,163850,164333,164334,2023-06-15T13:42:34Z,164350,Kultur,utamaduni,d,shetani,gerezani,mazingira,NA,NA,1,"c(""distractor1"", ""distractor2"", ""distractor3"")",NA,NA,NA,NA,NA,NA,NA,NA,NA,NA,NA,NA,NA,NA,NA,NA,NA,NA,NA
2503b,shallow,flow.Sequence,2_13_0,NA,NA,completion,5216,159103,159100,159117,164333,164334,2023-06-15T13:42:34Z,164350,Kultur,utamaduni,d,shetani,gerezani,mazingira,NA,NA,NA,"c(""distractor1"", ""distractor2"", ""distractor3"")",NA,NA,NA,NA,NA,NA,NA,NA,NA,NA,NA,NA,NA,NA,NA,NA,NA,NA,NA
2503b,task,flow.Sequence,2_13,NA,NA,completion,5216,159103,159100,159117,164333,164335,2023-06-15T13:42:34Z,164350,Kultur,utamaduni,d,shetani,gerezani,mazingira,NA,NA,NA,"c(""distractor1"", ""distractor2"", ""distractor3"")",NA,NA,NA,NA,NA,NA,NA,NA,NA,NA,NA,NA,NA,NA,NA,NA,NA,NA,NA
2503b,Shallow Question,html.Page,2_14_0_0,NA,NA,form submission,3985,164335,164333,164350,168335,168336,2023-06-15T13:42:38Z,168367,System,maongozi,s,chokochoko,nuksani,mitaani,maongozi,NA,NA,"c(""distractor1"", ""distractor2"", ""distractor3"")",NA,NA,NA,NA,NA,NA,NA,NA,NA,NA,NA,NA,NA,NA,NA,NA,NA,NA,NA
2503b,Save data screen,canvas.Screen,2_14_0_1,NA,NA,timeout,500,168337,168350,168367,168850,168851,2023-06-15T13:42:38Z,168867,System,maongozi,s,chokochoko,nuksani,mitaani,NA,NA,1,"c(""distractor1"", ""distractor2"", ""distractor3"")",NA,NA,NA,NA,NA,NA,NA,NA,NA,NA,NA,NA,NA,NA,NA,NA,NA,NA,NA
2503b,shallow,flow.Sequence,2_14_0,NA,NA,completion,4500,164335,164333,164350,168850,168851,2023-06-15T13:42:38Z,168867,System,maongozi,s,chokochoko,nuksani,mitaani,NA,NA,NA,"c(""distractor1"", ""distractor2"", ""distractor3"")",NA,NA,NA,NA,NA,NA,NA,NA,NA,NA,NA,NA,NA,NA,NA,NA,NA,NA,NA
2503b,task,flow.Sequence,2_14,NA,NA,completion,4500,164335,164333,164350,168850,168851,2023-06-15T13:42:38Z,168867,System,maongozi,s,chokochoko,nuksani,mitaani,NA,NA,NA,"c(""distractor1"", ""distractor2"", ""distractor3"")",NA,NA,NA,NA,NA,NA,NA,NA,NA,NA,NA,NA,NA,NA,NA,NA,NA,NA,NA
2503b,Shallow Question,html.Page,2_15_0_0,NA,NA,form submission,2614,168852,168850,168867,171481,171482,2023-06-15T13:42:41Z,171517,Abrechnung,uhasibu,d,kusahihisha,mpambano,mashambulizi,kusahihisha,NA,NA,"c(""distractor1"", ""distractor2"", ""distractor3"")",NA,NA,NA,NA,NA,NA,NA,NA,NA,NA,NA,NA,NA,NA,NA,NA,NA,NA,NA
2503b,Save data screen,canvas.Screen,2_15_0_1,NA,NA,timeout,500,171485,171500,171517,172000,172001,2023-06-15T13:42:42Z,172017,Abrechnung,uhasibu,d,kusahihisha,mpambano,mashambulizi,NA,NA,0,"c(""distractor1"", ""distractor2"", ""distractor3"")",NA,NA,NA,NA,NA,NA,NA,NA,NA,NA,NA,NA,NA,NA,NA,NA,NA,NA,NA
2503b,shallow,flow.Sequence,2_15_0,NA,NA,completion,3133,168852,168850,168867,172000,172001,2023-06-15T13:42:42Z,172017,Abrechnung,uhasibu,d,kusahihisha,mpambano,mashambulizi,NA,NA,NA,"c(""distractor1"", ""distractor2"", ""distractor3"")",NA,NA,NA,NA,NA,NA,NA,NA,NA,NA,NA,NA,NA,NA,NA,NA,NA,NA,NA
2503b,task,flow.Sequence,2_15,NA,NA,completion,3133,168852,168850,168867,172000,172001,2023-06-15T13:42:42Z,172017,Abrechnung,uhasibu,d,kusahihisha,mpambano,mashambulizi,NA,NA,NA,"c(""distractor1"", ""distractor2"", ""distractor3"")",NA,NA,NA,NA,NA,NA,NA,NA,NA,NA,NA,NA,NA,NA,NA,NA,NA,NA,NA
2503b,retrieval block 2 (multiple choice),flow.Loop,2,NA,NA,completion,75344,96637,96634,96656,172000,172002,2023-06-15T13:42:42Z,172017,NA,NA,NA,NA,NA,NA,NA,NA,NA,"c(""distractor1"", ""distractor2"", ""distractor3"")",NA,NA,NA,NA,NA,NA,NA,NA,NA,NA,NA,NA,NA,NA,NA,NA,NA,NA,NA
2503b,End,canvas.Screen,3,NA,keypress(Space),response,1368,172002,172000,172017,173368,173383,2023-06-15T13:42:43Z,173416,NA,NA,NA,NA,NA,NA,NA,NA,NA,NULL,NA,NA,NA,NA,NA,NA,NA,NA,NA,NA,NA,NA,NA,NA,NA,NA,NA,NA,NA
2503b,root,flow.Sequence,NA,NA,NA,completion,172222,1138,1139,1146,173368,173384,2023-06-15T13:42:43Z,173416,NA,NA,NA,NA,NA,NA,NA,NA,NA,NULL,NA,NA,NA,NA,NA,NA,NA,NA,NA,NA,NA,NA,NA,NA,NA,NA,NA,NA,NA
76153,Introduction delayed retrieval,canvas.Screen,0,weiter,keypress(Space),response,79271.467,395.70000004768,269.575,401.533,79673,79674.800000072,2023-06-29T06:30:31Z,79675.525,NA,NA,NA,NA,NA,NA,NA,NA,NA,NULL,126,4,20.2.4,https://neurocog.fernuni.ch/studies/vweber/delayed/index.html?vp=126&sess=4,"Mozilla/5.0 (Windows NT 10.0; Win64; x64) AppleWebKit/537.36 (KHTML, like Gecko) Chrome/114.0.0.0 Safari/537.36",Win32,de-DE,de,Europe/Zurich,-120,2560,1440,2560,1249,2560,1297,1,production,f5b4a49f956347addd546a832a3327688c2c0fef
76153,Deep Question,html.Page,1_0_0_0,NA,NA,form submission,10136.075000024,79675,79668.405,79675.525,89811.600000024,89811.700000048,2023-06-29T06:30:42Z,89814.782,Prüfung,mtihani,s,mkulima,mtizamo,ufumbuzi,huhe,NA,NA,NULL,NA,NA,NA,NA,NA,NA,NA,NA,NA,NA,NA,NA,NA,NA,NA,NA,NA,NA,NA
76153,Save data screen,canvas.Screen,1_0_0_1,NA,NA,timeout,499.875,89812.200000048,89807.823,89814.782,90307.847,90308.200000048,2023-06-29T06:30:42Z,90314.657,Prüfung,mtihani,s,mkulima,mtizamo,ufumbuzi,NA,NA,0,NULL,NA,NA,NA,NA,NA,NA,NA,NA,NA,NA,NA,NA,NA,NA,NA,NA,NA,NA,NA
76153,deep,flow.Sequence,1_0_0,NA,NA,completion,10632.322,79674.899999976,79668.405,79675.525,90307.847,90308.300000072,2023-06-29T06:30:42Z,90314.657,Prüfung,mtihani,s,mkulima,mtizamo,ufumbuzi,NA,NA,NA,NULL,NA,NA,NA,NA,NA,NA,NA,NA,NA,NA,NA,NA,NA,NA,NA,NA,NA,NA,NA
76153,task,flow.Sequence,1_0,NA,NA,completion,10632.322,79674.899999976,79668.405,79675.525,90307.847,90308.5,2023-06-29T06:30:42Z,90314.657,Prüfung,mtihani,s,mkulima,mtizamo,ufumbuzi,NA,NA,NA,NULL,NA,NA,NA,NA,NA,NA,NA,NA,NA,NA,NA,NA,NA,NA,NA,NA,NA,NA,NA
76153,Deep Question,html.Page,1_1_0_0,NA,NA,form submission,5678.6430000715,90308.5,90307.847,90314.657,95993.300000072,95993.399999976,2023-06-29T06:30:48Z,95995.666,Übersicht,kilindo,d,mgusano,chipukizi,kulinganisha,ofas,NA,NA,NULL,NA,NA,NA,NA,NA,NA,NA,NA,NA,NA,NA,NA,NA,NA,NA,NA,NA,NA,NA
76153,Save data screen,canvas.Screen,1_1_0_1,NA,NA,timeout,499.781,95994.600000024,95988.605,95995.666,96488.627,96488.800000072,2023-06-29T06:30:48Z,96495.447,Übersicht,kilindo,d,mgusano,chipukizi,kulinganisha,NA,NA,0,NULL,NA,NA,NA,NA,NA,NA,NA,NA,NA,NA,NA,NA,NA,NA,NA,NA,NA,NA,NA
76153,deep,flow.Sequence,1_1_0,NA,NA,completion,6173.97,90308.5,90307.847,90314.657,96488.627,96488.899999976,2023-06-29T06:30:48Z,96495.447,Übersicht,kilindo,d,mgusano,chipukizi,kulinganisha,NA,NA,NA,NULL,NA,NA,NA,NA,NA,NA,NA,NA,NA,NA,NA,NA,NA,NA,NA,NA,NA,NA,NA
76153,task,flow.Sequence,1_1,NA,NA,completion,6173.97,90308.5,90307.847,90314.657,96488.627,96489,2023-06-29T06:30:48Z,96495.447,Übersicht,kilindo,d,mgusano,chipukizi,kulinganisha,NA,NA,NA,NULL,NA,NA,NA,NA,NA,NA,NA,NA,NA,NA,NA,NA,NA,NA,NA,NA,NA,NA,NA
76153,Deep Question,html.Page,1_2_0_0,NA,NA,form submission,24436.853000072,96490.600000024,96488.627,96495.447,120932.30000007,120932.39999998,2023-06-29T06:31:13Z,120934.017,Können,unaweza,s,kiongozi,bustani,mienendo,unaweza,NA,NA,NULL,NA,NA,NA,NA,NA,NA,NA,NA,NA,NA,NA,NA,NA,NA,NA,NA,NA,NA,NA
76153,Save data screen,canvas.Screen,1_2_0_1,NA,NA,timeout,499.86499999999,120933.60000002,120926.876,120934.017,121427.065,121427.30000007,2023-06-29T06:31:13Z,121433.882,Können,unaweza,s,kiongozi,bustani,mienendo,NA,NA,1,NULL,NA,NA,NA,NA,NA,NA,NA,NA,NA,NA,NA,NA,NA,NA,NA,NA,NA,NA,NA
76153,deep,flow.Sequence,1_2_0,NA,NA,completion,24931.618,96490.5,96488.627,96495.447,121427.065,121427.39999998,2023-06-29T06:31:13Z,121433.882,Können,unaweza,s,kiongozi,bustani,mienendo,NA,NA,NA,NULL,NA,NA,NA,NA,NA,NA,NA,NA,NA,NA,NA,NA,NA,NA,NA,NA,NA,NA,NA
76153,task,flow.Sequence,1_2,NA,NA,completion,24931.618,96490.399999976,96488.627,96495.447,121427.065,121427.5,2023-06-29T06:31:13Z,121433.882,Können,unaweza,s,kiongozi,bustani,mienendo,NA,NA,NA,NULL,NA,NA,NA,NA,NA,NA,NA,NA,NA,NA,NA,NA,NA,NA,NA,NA,NA,NA,NA
76153,Deep Question,html.Page,1_3_0_0,NA,NA,form submission,11511.218000024,121427.5,121427.065,121433.882,132945.10000002,132945.30000007,2023-06-29T06:31:25Z,132948.346,Verzögerung,kuchelewa,d,mwakilishi,mwanauchumi,jaribio,kuchelewa,NA,NA,NULL,NA,NA,NA,NA,NA,NA,NA,NA,NA,NA,NA,NA,NA,NA,NA,NA,NA,NA,NA
76153,Save data screen,canvas.Screen,1_3_0_1,NA,NA,timeout,499.878,132946.5,132941.376,132948.346,133441.415,133441.60000002,2023-06-29T06:31:25Z,133448.224,Verzögerung,kuchelewa,d,mwakilishi,mwanauchumi,jaribio,NA,NA,1,NULL,NA,NA,NA,NA,NA,NA,NA,NA,NA,NA,NA,NA,NA,NA,NA,NA,NA,NA,NA
76153,deep,flow.Sequence,1_3_0,NA,NA,completion,12007.533,121427.5,121427.065,121433.882,133441.415,133441.70000005,2023-06-29T06:31:25Z,133448.224,Verzögerung,kuchelewa,d,mwakilishi,mwanauchumi,jaribio,NA,NA,NA,NULL,NA,NA,NA,NA,NA,NA,NA,NA,NA,NA,NA,NA,NA,NA,NA,NA,NA,NA,NA
76153,task,flow.Sequence,1_3,NA,NA,completion,12007.533,121427.5,121427.065,121433.882,133441.415,133441.80000007,2023-06-29T06:31:25Z,133448.224,Verzögerung,kuchelewa,d,mwakilishi,mwanauchumi,jaribio,NA,NA,NA,NULL,NA,NA,NA,NA,NA,NA,NA,NA,NA,NA,NA,NA,NA,NA,NA,NA,NA,NA,NA
76153,Deep Question,html.Page,1_4_0_0,NA,NA,form submission,3313.9760000477,133441.89999998,133441.415,133448.224,136762.20000005,136762.39999998,2023-06-29T06:31:29Z,136767.804,Angreifer,mshambulizi,s,kitengo,tasinia,usafirishaji,NA,NA,NA,NULL,NA,NA,NA,NA,NA,NA,NA,NA,NA,NA,NA,NA,NA,NA,NA,NA,NA,NA,NA
76153,Save data screen,canvas.Screen,1_4_0_1,NA,NA,timeout,500.00599999999,136762.80000007,136760.982,136767.804,137260.863,137262.39999998,2023-06-29T06:31:29Z,137267.81,Angreifer,mshambulizi,s,kitengo,tasinia,usafirishaji,NA,NA,0,NULL,NA,NA,NA,NA,NA,NA,NA,NA,NA,NA,NA,NA,NA,NA,NA,NA,NA,NA,NA
76153,deep,flow.Sequence,1_4_0,NA,NA,completion,3812.639,133441.80000007,133441.415,133448.224,137260.863,137262.5,2023-06-29T06:31:29Z,137267.81,Angreifer,mshambulizi,s,kitengo,tasinia,usafirishaji,NA,NA,NA,NULL,NA,NA,NA,NA,NA,NA,NA,NA,NA,NA,NA,NA,NA,NA,NA,NA,NA,NA,NA
76153,task,flow.Sequence,1_4,NA,NA,completion,3812.639,133441.80000007,133441.415,133448.224,137260.863,137262.60000002,2023-06-29T06:31:29Z,137267.81,Angreifer,mshambulizi,s,kitengo,tasinia,usafirishaji,NA,NA,NA,NULL,NA,NA,NA,NA,NA,NA,NA,NA,NA,NA,NA,NA,NA,NA,NA,NA,NA,NA,NA
76153,Deep Question,html.Page,1_5_0_0,NA,NA,form submission,1512.2900000238,137262.60000002,137260.863,137267.81,138780.10000002,138780.30000007,2023-06-29T06:31:31Z,138781.916,Kontrolle,kudhibiti,d,mbinguni,kufunga,utegemezi,NA,NA,NA,NULL,NA,NA,NA,NA,NA,NA,NA,NA,NA,NA,NA,NA,NA,NA,NA,NA,NA,NA,NA
76153,Save data screen,canvas.Screen,1_5_0_1,NA,NA,timeout,499.861,138780.60000002,138774.93,138781.916,139274.96,139275.20000005,2023-06-29T06:31:31Z,139281.777,Kontrolle,kudhibiti,d,mbinguni,kufunga,utegemezi,NA,NA,0,NULL,NA,NA,NA,NA,NA,NA,NA,NA,NA,NA,NA,NA,NA,NA,NA,NA,NA,NA,NA
76153,deep,flow.Sequence,1_5_0,NA,NA,completion,2007.15,137262.60000002,137260.863,137267.81,139274.96,139275.30000007,2023-06-29T06:31:31Z,139281.777,Kontrolle,kudhibiti,d,mbinguni,kufunga,utegemezi,NA,NA,NA,NULL,NA,NA,NA,NA,NA,NA,NA,NA,NA,NA,NA,NA,NA,NA,NA,NA,NA,NA,NA
76153,task,flow.Sequence,1_5,NA,NA,completion,2007.15,137262.60000002,137260.863,137267.81,139274.96,139275.30000007,2023-06-29T06:31:31Z,139281.777,Kontrolle,kudhibiti,d,mbinguni,kufunga,utegemezi,NA,NA,NA,NULL,NA,NA,NA,NA,NA,NA,NA,NA,NA,NA,NA,NA,NA,NA,NA,NA,NA,NA,NA
76153,Deep Question,html.Page,1_6_0_0,NA,NA,form submission,13302.423000048,139275.39999998,139274.96,139281.777,152584.20000005,152584.39999998,2023-06-29T06:31:44Z,152587.847,Kreativität,ubunifu,s,mratibu,mwendelezo,makubaliano,ubunifu,NA,NA,NULL,NA,NA,NA,NA,NA,NA,NA,NA,NA,NA,NA,NA,NA,NA,NA,NA,NA,NA,NA
76153,Save data screen,canvas.Screen,1_6_0_1,NA,NA,timeout,500.00399999999,152585.60000002,152580.991,152587.847,153081.041,153081.20000005,2023-06-29T06:31:45Z,153087.851,Kreativität,ubunifu,s,mratibu,mwendelezo,makubaliano,NA,NA,1,NULL,NA,NA,NA,NA,NA,NA,NA,NA,NA,NA,NA,NA,NA,NA,NA,NA,NA,NA,NA
76153,deep,flow.Sequence,1_6_0,NA,NA,completion,13799.264,139275.39999998,139274.96,139281.777,153081.041,153081.30000007,2023-06-29T06:31:45Z,153087.851,Kreativität,ubunifu,s,mratibu,mwendelezo,makubaliano,NA,NA,NA,NULL,NA,NA,NA,NA,NA,NA,NA,NA,NA,NA,NA,NA,NA,NA,NA,NA,NA,NA,NA
76153,task,flow.Sequence,1_6,NA,NA,completion,13799.264,139275.39999998,139274.96,139281.777,153081.041,153081.39999998,2023-06-29T06:31:45Z,153087.851,Kreativität,ubunifu,s,mratibu,mwendelezo,makubaliano,NA,NA,NA,NULL,NA,NA,NA,NA,NA,NA,NA,NA,NA,NA,NA,NA,NA,NA,NA,NA,NA,NA,NA
76153,Deep Question,html.Page,1_7_0_0,NA,NA,form submission,2334.3490000477,153081.5,153081.041,153087.851,155422.20000005,155422.30000007,2023-06-29T06:31:47Z,155428.226,Sänger,mwimbaji,s,msichana,shughuli,mshirika,NA,NA,NA,NULL,NA,NA,NA,NA,NA,NA,NA,NA,NA,NA,NA,NA,NA,NA,NA,NA,NA,NA,NA
76153,Save data screen,canvas.Screen,1_7_0_1,NA,NA,timeout,500.00700000001,155422.60000002,155421.358,155428.226,155921.425,155921.60000002,2023-06-29T06:31:48Z,155928.233,Sänger,mwimbaji,s,msichana,shughuli,mshirika,NA,NA,0,NULL,NA,NA,NA,NA,NA,NA,NA,NA,NA,NA,NA,NA,NA,NA,NA,NA,NA,NA,NA
76153,deep,flow.Sequence,1_7_0,NA,NA,completion,2833.574,153081.39999998,153081.041,153087.851,155921.425,155921.80000007,2023-06-29T06:31:48Z,155928.233,Sänger,mwimbaji,s,msichana,shughuli,mshirika,NA,NA,NA,NULL,NA,NA,NA,NA,NA,NA,NA,NA,NA,NA,NA,NA,NA,NA,NA,NA,NA,NA,NA
76153,task,flow.Sequence,1_7,NA,NA,completion,2833.574,153081.39999998,153081.041,153087.851,155921.425,155921.80000007,2023-06-29T06:31:48Z,155928.233,Sänger,mwimbaji,s,msichana,shughuli,mshirika,NA,NA,NA,NULL,NA,NA,NA,NA,NA,NA,NA,NA,NA,NA,NA,NA,NA,NA,NA,NA,NA,NA,NA
76153,Deep Question,html.Page,1_8_0_0,NA,NA,form submission,23578.166999976,155921.80000007,155921.425,155928.233,179506.39999998,179506.5,2023-06-29T06:32:11Z,179512.46,Gefährdung,kuhatarisha,d,uchokozi,udhaifu,makorowezo,kukuhutarisha,NA,NA,NULL,NA,NA,NA,NA,NA,NA,NA,NA,NA,NA,NA,NA,NA,NA,NA,NA,NA,NA,NA
76153,Save data screen,canvas.Screen,1_8_0_1,NA,NA,timeout,500.019,179507.80000007,179505.601,179512.46,180005.682,180005.89999998,2023-06-29T06:32:12Z,180012.479,Gefährdung,kuhatarisha,d,uchokozi,udhaifu,makorowezo,NA,NA,0,NULL,NA,NA,NA,NA,NA,NA,NA,NA,NA,NA,NA,NA,NA,NA,NA,NA,NA,NA,NA
76153,deep,flow.Sequence,1_8_0,NA,NA,completion,24077.449,155921.80000007,155921.425,155928.233,180005.682,180006,2023-06-29T06:32:12Z,180012.479,Gefährdung,kuhatarisha,d,uchokozi,udhaifu,makorowezo,NA,NA,NA,NULL,NA,NA,NA,NA,NA,NA,NA,NA,NA,NA,NA,NA,NA,NA,NA,NA,NA,NA,NA
76153,task,flow.Sequence,1_8,NA,NA,completion,24077.449,155921.80000007,155921.425,155928.233,180005.682,180006,2023-06-29T06:32:12Z,180012.479,Gefährdung,kuhatarisha,d,uchokozi,udhaifu,makorowezo,NA,NA,NA,NULL,NA,NA,NA,NA,NA,NA,NA,NA,NA,NA,NA,NA,NA,NA,NA,NA,NA,NA,NA
76153,Deep Question,html.Page,1_9_0_0,NA,NA,form submission,2148.6210000238,180006.10000002,180005.682,180012.479,182161.10000002,182161.20000005,2023-06-29T06:32:14Z,182165.374,System,maongozi,s,chokochoko,nuksani,mitaani,NA,NA,NA,NULL,NA,NA,NA,NA,NA,NA,NA,NA,NA,NA,NA,NA,NA,NA,NA,NA,NA,NA,NA
76153,Save data screen,canvas.Screen,1_9_0_1,NA,NA,timeout,499.97499999998,182161.60000002,182158.343,182165.374,182658.534,182658.70000005,2023-06-29T06:32:14Z,182665.349,System,maongozi,s,chokochoko,nuksani,mitaani,NA,NA,0,NULL,NA,NA,NA,NA,NA,NA,NA,NA,NA,NA,NA,NA,NA,NA,NA,NA,NA,NA,NA
76153,deep,flow.Sequence,1_9_0,NA,NA,completion,2646.055,180006.10000002,180005.682,180012.479,182658.534,182658.80000007,2023-06-29T06:32:14Z,182665.349,System,maongozi,s,chokochoko,nuksani,mitaani,NA,NA,NA,NULL,NA,NA,NA,NA,NA,NA,NA,NA,NA,NA,NA,NA,NA,NA,NA,NA,NA,NA,NA
76153,task,flow.Sequence,1_9,NA,NA,completion,2646.055,180006.10000002,180005.682,180012.479,182658.534,182658.89999998,2023-06-29T06:32:14Z,182665.349,System,maongozi,s,chokochoko,nuksani,mitaani,NA,NA,NA,NULL,NA,NA,NA,NA,NA,NA,NA,NA,NA,NA,NA,NA,NA,NA,NA,NA,NA,NA,NA
76153,Deep Question,html.Page,1_10_0_0,NA,NA,form submission,12562.751000024,182659,182658.534,182665.349,195228.10000002,195228.10000002,2023-06-29T06:32:27Z,195235.594,Aufstand,ugomaji,s,mazidio,msingi,kujieleza,NA,NA,NA,NULL,NA,NA,NA,NA,NA,NA,NA,NA,NA,NA,NA,NA,NA,NA,NA,NA,NA,NA,NA
76153,Save data screen,canvas.Screen,1_10_0_1,NA,NA,timeout,499.69099999999,195229.5,195221.501,195235.594,195728.473,195728.60000002,2023-06-29T06:32:28Z,195735.285,Aufstand,ugomaji,s,mazidio,msingi,kujieleza,NA,NA,0,NULL,NA,NA,NA,NA,NA,NA,NA,NA,NA,NA,NA,NA,NA,NA,NA,NA,NA,NA,NA
76153,deep,flow.Sequence,1_10_0,NA,NA,completion,13063.124,182659,182658.534,182665.349,195728.473,195728.70000005,2023-06-29T06:32:28Z,195735.285,Aufstand,ugomaji,s,mazidio,msingi,kujieleza,NA,NA,NA,NULL,NA,NA,NA,NA,NA,NA,NA,NA,NA,NA,NA,NA,NA,NA,NA,NA,NA,NA,NA
76153,task,flow.Sequence,1_10,NA,NA,completion,13063.124,182659,182658.534,182665.349,195728.473,195728.80000007,2023-06-29T06:32:28Z,195735.285,Aufstand,ugomaji,s,mazidio,msingi,kujieleza,NA,NA,NA,NULL,NA,NA,NA,NA,NA,NA,NA,NA,NA,NA,NA,NA,NA,NA,NA,NA,NA,NA,NA
76153,Deep Question,html.Page,1_11_0_0,NA,NA,form submission,8653.715,195728.89999998,195728.473,195735.285,204389,204389.10000002,2023-06-29T06:32:36Z,204395.34,Abrechnung,uhasibu,d,kusahihisha,mpambano,mashambulizi,NA,NA,NA,NULL,NA,NA,NA,NA,NA,NA,NA,NA,NA,NA,NA,NA,NA,NA,NA,NA,NA,NA,NA
76153,Save data screen,canvas.Screen,1_11_0_1,NA,NA,timeout,500.01000000001,204390.20000005,204388.476,204395.34,204888.532,204888.70000005,2023-06-29T06:32:37Z,204895.35,Abrechnung,uhasibu,d,kusahihisha,mpambano,mashambulizi,NA,NA,0,NULL,NA,NA,NA,NA,NA,NA,NA,NA,NA,NA,NA,NA,NA,NA,NA,NA,NA,NA,NA
76153,deep,flow.Sequence,1_11_0,NA,NA,completion,9153.247,195728.89999998,195728.473,195735.285,204888.532,204888.80000007,2023-06-29T06:32:37Z,204895.35,Abrechnung,uhasibu,d,kusahihisha,mpambano,mashambulizi,NA,NA,NA,NULL,NA,NA,NA,NA,NA,NA,NA,NA,NA,NA,NA,NA,NA,NA,NA,NA,NA,NA,NA
76153,task,flow.Sequence,1_11,NA,NA,completion,9153.247,195728.89999998,195728.473,195735.285,204888.532,204888.89999998,2023-06-29T06:32:37Z,204895.35,Abrechnung,uhasibu,d,kusahihisha,mpambano,mashambulizi,NA,NA,NA,NULL,NA,NA,NA,NA,NA,NA,NA,NA,NA,NA,NA,NA,NA,NA,NA,NA,NA,NA,NA
76153,Deep Question,html.Page,1_12_0_0,NA,NA,form submission,6397.65,204889,204888.532,204895.35,211293,211293.20000005,2023-06-29T06:32:43Z,211298.372,Kanzler,diwani,d,rasilmali,mahitaji,maabudu,duwani,NA,NA,NULL,NA,NA,NA,NA,NA,NA,NA,NA,NA,NA,NA,NA,NA,NA,NA,NA,NA,NA,NA
76153,Save data screen,canvas.Screen,1_12_0_1,NA,NA,timeout,500.00899999999,211294.39999998,211291.396,211298.372,211791.571,211791.70000005,2023-06-29T06:32:44Z,211798.381,Kanzler,diwani,d,rasilmali,mahitaji,maabudu,NA,NA,0,NULL,NA,NA,NA,NA,NA,NA,NA,NA,NA,NA,NA,NA,NA,NA,NA,NA,NA,NA,NA
76153,deep,flow.Sequence,1_12_0,NA,NA,completion,6896.221,204889,204888.532,204895.35,211791.571,211791.80000007,2023-06-29T06:32:44Z,211798.381,Kanzler,diwani,d,rasilmali,mahitaji,maabudu,NA,NA,NA,NULL,NA,NA,NA,NA,NA,NA,NA,NA,NA,NA,NA,NA,NA,NA,NA,NA,NA,NA,NA
76153,task,flow.Sequence,1_12,NA,NA,completion,6896.221,204888.89999998,204888.532,204895.35,211791.571,211791.89999998,2023-06-29T06:32:44Z,211798.381,Kanzler,diwani,d,rasilmali,mahitaji,maabudu,NA,NA,NA,NULL,NA,NA,NA,NA,NA,NA,NA,NA,NA,NA,NA,NA,NA,NA,NA,NA,NA,NA,NA
76153,Deep Question,html.Page,1_13_0_0,NA,NA,form submission,2534.7190000238,211792,211791.571,211798.381,214333.10000002,214333.10000002,2023-06-29T06:32:46Z,214340.641,Lawine,banguko,s,maambukizi,usuluhishi,chekechea,NA,NA,NA,NULL,NA,NA,NA,NA,NA,NA,NA,NA,NA,NA,NA,NA,NA,NA,NA,NA,NA,NA,NA
76153,Save data screen,canvas.Screen,1_13_0_1,NA,NA,timeout,499.519,214333.5,214326.373,214340.641,214833.347,214833.60000002,2023-06-29T06:32:47Z,214840.16,Lawine,banguko,s,maambukizi,usuluhishi,chekechea,NA,NA,0,NULL,NA,NA,NA,NA,NA,NA,NA,NA,NA,NA,NA,NA,NA,NA,NA,NA,NA,NA,NA
76153,deep,flow.Sequence,1_13_0,NA,NA,completion,3034.966,211792,211791.571,211798.381,214833.347,214833.60000002,2023-06-29T06:32:47Z,214840.16,Lawine,banguko,s,maambukizi,usuluhishi,chekechea,NA,NA,NA,NULL,NA,NA,NA,NA,NA,NA,NA,NA,NA,NA,NA,NA,NA,NA,NA,NA,NA,NA,NA
76153,task,flow.Sequence,1_13,NA,NA,completion,3034.966,211792,211791.571,211798.381,214833.347,214833.70000005,2023-06-29T06:32:47Z,214840.16,Lawine,banguko,s,maambukizi,usuluhishi,chekechea,NA,NA,NA,NULL,NA,NA,NA,NA,NA,NA,NA,NA,NA,NA,NA,NA,NA,NA,NA,NA,NA,NA,NA
76153,Deep Question,html.Page,1_14_0_0,NA,NA,form submission,15693.84,214833.70000005,214833.347,214840.16,230534,230534.10000002,2023-06-29T06:33:02Z,230535.346,Körper,kiwiliwili,d,mapambano,mpatanishi,kiolezo,kiwiliwili,NA,NA,NULL,NA,NA,NA,NA,NA,NA,NA,NA,NA,NA,NA,NA,NA,NA,NA,NA,NA,NA,NA
76153,Save data screen,canvas.Screen,1_14_0_1,NA,NA,timeout,499.86800000002,230535.39999998,230528.26,230535.346,231028.399,231028.60000002,2023-06-29T06:33:03Z,231035.214,Körper,kiwiliwili,d,mapambano,mpatanishi,kiolezo,NA,NA,1,NULL,NA,NA,NA,NA,NA,NA,NA,NA,NA,NA,NA,NA,NA,NA,NA,NA,NA,NA,NA
76153,deep,flow.Sequence,1_14_0,NA,NA,completion,16188.239,214833.70000005,214833.347,214840.16,231028.399,231028.60000002,2023-06-29T06:33:03Z,231035.214,Körper,kiwiliwili,d,mapambano,mpatanishi,kiolezo,NA,NA,NA,NULL,NA,NA,NA,NA,NA,NA,NA,NA,NA,NA,NA,NA,NA,NA,NA,NA,NA,NA,NA
76153,task,flow.Sequence,1_14,NA,NA,completion,16188.239,214833.70000005,214833.347,214840.16,231028.399,231028.70000005,2023-06-29T06:33:03Z,231035.214,Körper,kiwiliwili,d,mapambano,mpatanishi,kiolezo,NA,NA,NA,NULL,NA,NA,NA,NA,NA,NA,NA,NA,NA,NA,NA,NA,NA,NA,NA,NA,NA,NA,NA
76153,Deep Question,html.Page,1_15_0_0,NA,NA,form submission,1545.786,231028.80000007,231028.399,231035.214,232581,232581,2023-06-29T06:33:04Z,232584.017,Kultur,utamaduni,d,shetani,gerezani,mazingira,NA,NA,NA,NULL,NA,NA,NA,NA,NA,NA,NA,NA,NA,NA,NA,NA,NA,NA,NA,NA,NA,NA,NA
76153,Save data screen,canvas.Screen,1_15_0_1,NA,NA,timeout,499.88400000002,232581.30000007,232576.915,232584.017,233077.091,233077.20000005,2023-06-29T06:33:05Z,233083.901,Kultur,utamaduni,d,shetani,gerezani,mazingira,NA,NA,0,NULL,NA,NA,NA,NA,NA,NA,NA,NA,NA,NA,NA,NA,NA,NA,NA,NA,NA,NA,NA
76153,deep,flow.Sequence,1_15_0,NA,NA,completion,2041.877,231028.80000007,231028.399,231035.214,233077.091,233077.39999998,2023-06-29T06:33:05Z,233083.901,Kultur,utamaduni,d,shetani,gerezani,mazingira,NA,NA,NA,NULL,NA,NA,NA,NA,NA,NA,NA,NA,NA,NA,NA,NA,NA,NA,NA,NA,NA,NA,NA
76153,task,flow.Sequence,1_15,NA,NA,completion,2041.877,231028.70000005,231028.399,231035.214,233077.091,233077.5,2023-06-29T06:33:05Z,233083.901,Kultur,utamaduni,d,shetani,gerezani,mazingira,NA,NA,NA,NULL,NA,NA,NA,NA,NA,NA,NA,NA,NA,NA,NA,NA,NA,NA,NA,NA,NA,NA,NA
76153,retrieval block 1 (cued recall),flow.Loop,1,NA,NA,completion,153401.566,79674.899999976,79668.405,79675.525,233077.091,233077.5,2023-06-29T06:33:05Z,233083.901,NA,NA,NA,NA,NA,NA,NA,NA,NA,NULL,NA,NA,NA,NA,NA,NA,NA,NA,NA,NA,NA,NA,NA,NA,NA,NA,NA,NA,NA
76153,Shallow Question,html.Page,2_0_0_0,NA,NA,form submission,4141.099,233077.60000002,233077.091,233083.901,237225,237225.20000005,2023-06-29T06:33:09Z,237229.911,Lawine,banguko,s,maambukizi,usuluhishi,chekechea,banguko,NA,NA,"c(""distractor1"", ""distractor2"", ""distractor3"")",NA,NA,NA,NA,NA,NA,NA,NA,NA,NA,NA,NA,NA,NA,NA,NA,NA,NA,NA
76153,Save data screen,canvas.Screen,2_0_0_1,NA,NA,timeout,499.997,237226.30000007,237223.034,237229.911,237723.092,237723.30000007,2023-06-29T06:33:10Z,237729.908,Lawine,banguko,s,maambukizi,usuluhishi,chekechea,NA,NA,1,"c(""distractor1"", ""distractor2"", ""distractor3"")",NA,NA,NA,NA,NA,NA,NA,NA,NA,NA,NA,NA,NA,NA,NA,NA,NA,NA,NA
76153,shallow,flow.Sequence,2_0_0,NA,NA,completion,4639.191,233077.60000002,233077.091,233083.901,237723.092,237723.39999998,2023-06-29T06:33:10Z,237729.908,Lawine,banguko,s,maambukizi,usuluhishi,chekechea,NA,NA,NA,"c(""distractor1"", ""distractor2"", ""distractor3"")",NA,NA,NA,NA,NA,NA,NA,NA,NA,NA,NA,NA,NA,NA,NA,NA,NA,NA,NA
76153,task,flow.Sequence,2_0,NA,NA,completion,4639.191,233077.60000002,233077.091,233083.901,237723.092,237723.39999998,2023-06-29T06:33:10Z,237729.908,Lawine,banguko,s,maambukizi,usuluhishi,chekechea,NA,NA,NA,"c(""distractor1"", ""distractor2"", ""distractor3"")",NA,NA,NA,NA,NA,NA,NA,NA,NA,NA,NA,NA,NA,NA,NA,NA,NA,NA,NA
76153,Shallow Question,html.Page,2_1_0_0,NA,NA,form submission,2581.092,237723.60000002,237723.092,237729.908,240311,240311.10000002,2023-06-29T06:33:12Z,240313.496,Kanzler,diwani,d,rasilmali,mahitaji,maabudu,diwani,NA,NA,"c(""distractor1"", ""distractor2"", ""distractor3"")",NA,NA,NA,NA,NA,NA,NA,NA,NA,NA,NA,NA,NA,NA,NA,NA,NA,NA,NA
76153,Save data screen,canvas.Screen,2_1_0_1,NA,NA,timeout,499.85999999999,240311.39999998,240306.481,240313.496,240806.545,240806.70000005,2023-06-29T06:33:13Z,240813.356,Kanzler,diwani,d,rasilmali,mahitaji,maabudu,NA,NA,1,"c(""distractor1"", ""distractor2"", ""distractor3"")",NA,NA,NA,NA,NA,NA,NA,NA,NA,NA,NA,NA,NA,NA,NA,NA,NA,NA,NA
76153,shallow,flow.Sequence,2_1_0,NA,NA,completion,3076.637,237723.60000002,237723.092,237729.908,240806.545,240806.89999998,2023-06-29T06:33:13Z,240813.356,Kanzler,diwani,d,rasilmali,mahitaji,maabudu,NA,NA,NA,"c(""distractor1"", ""distractor2"", ""distractor3"")",NA,NA,NA,NA,NA,NA,NA,NA,NA,NA,NA,NA,NA,NA,NA,NA,NA,NA,NA
76153,task,flow.Sequence,2_1,NA,NA,completion,3076.637,237723.5,237723.092,237729.908,240806.545,240806.89999998,2023-06-29T06:33:13Z,240813.356,Kanzler,diwani,d,rasilmali,mahitaji,maabudu,NA,NA,NA,"c(""distractor1"", ""distractor2"", ""distractor3"")",NA,NA,NA,NA,NA,NA,NA,NA,NA,NA,NA,NA,NA,NA,NA,NA,NA,NA,NA
76153,Shallow Question,html.Page,2_2_0_0,NA,NA,form submission,4212.644,240807,240806.545,240813.356,245026,245026.10000002,2023-06-29T06:33:17Z,245028.812,Sänger,mwimbaji,s,msichana,shughuli,mshirika,mwimbaji,NA,NA,"c(""distractor1"", ""distractor2"", ""distractor3"")",NA,NA,NA,NA,NA,NA,NA,NA,NA,NA,NA,NA,NA,NA,NA,NA,NA,NA,NA
76153,Save data screen,canvas.Screen,2_2_0_1,NA,NA,timeout,499.995,245027.30000007,245021.895,245028.812,245522.009,245522.20000005,2023-06-29T06:33:17Z,245528.807,Sänger,mwimbaji,s,msichana,shughuli,mshirika,NA,NA,1,"c(""distractor1"", ""distractor2"", ""distractor3"")",NA,NA,NA,NA,NA,NA,NA,NA,NA,NA,NA,NA,NA,NA,NA,NA,NA,NA,NA
76153,shallow,flow.Sequence,2_2_0,NA,NA,completion,4708.653,240807,240806.545,240813.356,245522.009,245522.30000007,2023-06-29T06:33:17Z,245528.807,Sänger,mwimbaji,s,msichana,shughuli,mshirika,NA,NA,NA,"c(""distractor1"", ""distractor2"", ""distractor3"")",NA,NA,NA,NA,NA,NA,NA,NA,NA,NA,NA,NA,NA,NA,NA,NA,NA,NA,NA
76153,task,flow.Sequence,2_2,NA,NA,completion,4708.653,240807,240806.545,240813.356,245522.009,245522.30000007,2023-06-29T06:33:17Z,245528.807,Sänger,mwimbaji,s,msichana,shughuli,mshirika,NA,NA,NA,"c(""distractor1"", ""distractor2"", ""distractor3"")",NA,NA,NA,NA,NA,NA,NA,NA,NA,NA,NA,NA,NA,NA,NA,NA,NA,NA,NA
76153,Shallow Question,html.Page,2_3_0_0,NA,NA,form submission,11295.193,245522.39999998,245522.009,245528.807,256824,256824.10000002,2023-06-29T06:33:29Z,256827.957,Können,unaweza,s,kiongozi,bustani,mienendo,unaweza,NA,NA,"c(""distractor1"", ""distractor2"", ""distractor3"")",NA,NA,NA,NA,NA,NA,NA,NA,NA,NA,NA,NA,NA,NA,NA,NA,NA,NA,NA
76153,Save data screen,canvas.Screen,2_3_0_1,NA,NA,timeout,499.90400000001,256825.30000007,256820.976,256827.957,257321.045,257321.30000007,2023-06-29T06:33:29Z,257327.861,Können,unaweza,s,kiongozi,bustani,mienendo,NA,NA,1,"c(""distractor1"", ""distractor2"", ""distractor3"")",NA,NA,NA,NA,NA,NA,NA,NA,NA,NA,NA,NA,NA,NA,NA,NA,NA,NA,NA
76153,shallow,flow.Sequence,2_3_0,NA,NA,completion,11792.238,245522.39999998,245522.009,245528.807,257321.045,257321.30000007,2023-06-29T06:33:29Z,257327.861,Können,unaweza,s,kiongozi,bustani,mienendo,NA,NA,NA,"c(""distractor1"", ""distractor2"", ""distractor3"")",NA,NA,NA,NA,NA,NA,NA,NA,NA,NA,NA,NA,NA,NA,NA,NA,NA,NA,NA
76153,task,flow.Sequence,2_3,NA,NA,completion,11792.238,245522.30000007,245522.009,245528.807,257321.045,257321.5,2023-06-29T06:33:29Z,257327.861,Können,unaweza,s,kiongozi,bustani,mienendo,NA,NA,NA,"c(""distractor1"", ""distractor2"", ""distractor3"")",NA,NA,NA,NA,NA,NA,NA,NA,NA,NA,NA,NA,NA,NA,NA,NA,NA,NA,NA
76153,Shallow Question,html.Page,2_4_0_0,NA,NA,form submission,3913.2390000238,257321.5,257321.045,257327.861,261241.10000002,261241.10000002,2023-06-29T06:33:33Z,261244.717,Gefährdung,kuhatarisha,d,uchokozi,udhaifu,makorowezo,kuhatarisha,NA,NA,"c(""distractor1"", ""distractor2"", ""distractor3"")",NA,NA,NA,NA,NA,NA,NA,NA,NA,NA,NA,NA,NA,NA,NA,NA,NA,NA,NA
76153,Save data screen,canvas.Screen,2_4_0_1,NA,NA,timeout,499.97699999998,261242.30000007,261237.566,261244.717,261737.877,261738.10000002,2023-06-29T06:33:34Z,261744.694,Gefährdung,kuhatarisha,d,uchokozi,udhaifu,makorowezo,NA,NA,1,"c(""distractor1"", ""distractor2"", ""distractor3"")",NA,NA,NA,NA,NA,NA,NA,NA,NA,NA,NA,NA,NA,NA,NA,NA,NA,NA,NA
76153,shallow,flow.Sequence,2_4_0,NA,NA,completion,4410.016,257321.5,257321.045,257327.861,261737.877,261738.10000002,2023-06-29T06:33:34Z,261744.694,Gefährdung,kuhatarisha,d,uchokozi,udhaifu,makorowezo,NA,NA,NA,"c(""distractor1"", ""distractor2"", ""distractor3"")",NA,NA,NA,NA,NA,NA,NA,NA,NA,NA,NA,NA,NA,NA,NA,NA,NA,NA,NA
76153,task,flow.Sequence,2_4,NA,NA,completion,4410.016,257321.5,257321.045,257327.861,261737.877,261738.20000005,2023-06-29T06:33:34Z,261744.694,Gefährdung,kuhatarisha,d,uchokozi,udhaifu,makorowezo,NA,NA,NA,"c(""distractor1"", ""distractor2"", ""distractor3"")",NA,NA,NA,NA,NA,NA,NA,NA,NA,NA,NA,NA,NA,NA,NA,NA,NA,NA,NA
76153,Shallow Question,html.Page,2_5_0_0,NA,NA,form submission,3832.306,261738.30000007,261737.877,261744.694,265577,265577.10000002,2023-06-29T06:33:37Z,265578.32,Körper,kiwiliwili,d,mapambano,mpatanishi,kiolezo,kiwiliwili,NA,NA,"c(""distractor1"", ""distractor2"", ""distractor3"")",NA,NA,NA,NA,NA,NA,NA,NA,NA,NA,NA,NA,NA,NA,NA,NA,NA,NA,NA
76153,Save data screen,canvas.Screen,2_5_0_1,NA,NA,timeout,499.86599999998,265578.30000007,265571.246,265578.32,266071.37,266071.5,2023-06-29T06:33:38Z,266078.186,Körper,kiwiliwili,d,mapambano,mpatanishi,kiolezo,NA,NA,1,"c(""distractor1"", ""distractor2"", ""distractor3"")",NA,NA,NA,NA,NA,NA,NA,NA,NA,NA,NA,NA,NA,NA,NA,NA,NA,NA,NA
76153,shallow,flow.Sequence,2_5_0,NA,NA,completion,4326.676,261738.30000007,261737.877,261744.694,266071.37,266071.60000002,2023-06-29T06:33:38Z,266078.186,Körper,kiwiliwili,d,mapambano,mpatanishi,kiolezo,NA,NA,NA,"c(""distractor1"", ""distractor2"", ""distractor3"")",NA,NA,NA,NA,NA,NA,NA,NA,NA,NA,NA,NA,NA,NA,NA,NA,NA,NA,NA
76153,task,flow.Sequence,2_5,NA,NA,completion,4326.676,261738.30000007,261737.877,261744.694,266071.37,266071.80000007,2023-06-29T06:33:38Z,266078.186,Körper,kiwiliwili,d,mapambano,mpatanishi,kiolezo,NA,NA,NA,"c(""distractor1"", ""distractor2"", ""distractor3"")",NA,NA,NA,NA,NA,NA,NA,NA,NA,NA,NA,NA,NA,NA,NA,NA,NA,NA,NA
76153,Shallow Question,html.Page,2_6_0_0,NA,NA,form submission,8056.814,266071.80000007,266071.37,266078.186,274135,274135.10000002,2023-06-29T06:33:46Z,274140.992,Kontrolle,kudhibiti,d,mbinguni,kufunga,utegemezi,kufunga,NA,NA,"c(""distractor1"", ""distractor2"", ""distractor3"")",NA,NA,NA,NA,NA,NA,NA,NA,NA,NA,NA,NA,NA,NA,NA,NA,NA,NA,NA
76153,Save data screen,canvas.Screen,2_6_0_1,NA,NA,timeout,500.00999999995,274136.39999998,274134.113,274140.992,274634.188,274634.39999998,2023-06-29T06:33:46Z,274641.002,Kontrolle,kudhibiti,d,mbinguni,kufunga,utegemezi,NA,NA,0,"c(""distractor1"", ""distractor2"", ""distractor3"")",NA,NA,NA,NA,NA,NA,NA,NA,NA,NA,NA,NA,NA,NA,NA,NA,NA,NA,NA
76153,shallow,flow.Sequence,2_6_0,NA,NA,completion,8556.002,266071.80000007,266071.37,266078.186,274634.188,274634.5,2023-06-29T06:33:46Z,274641.002,Kontrolle,kudhibiti,d,mbinguni,kufunga,utegemezi,NA,NA,NA,"c(""distractor1"", ""distractor2"", ""distractor3"")",NA,NA,NA,NA,NA,NA,NA,NA,NA,NA,NA,NA,NA,NA,NA,NA,NA,NA,NA
76153,task,flow.Sequence,2_6,NA,NA,completion,8556.002,266071.80000007,266071.37,266078.186,274634.188,274634.60000002,2023-06-29T06:33:46Z,274641.002,Kontrolle,kudhibiti,d,mbinguni,kufunga,utegemezi,NA,NA,NA,"c(""distractor1"", ""distractor2"", ""distractor3"")",NA,NA,NA,NA,NA,NA,NA,NA,NA,NA,NA,NA,NA,NA,NA,NA,NA,NA,NA
76153,Shallow Question,html.Page,2_7_0_0,NA,NA,form submission,9963.998,274634.60000002,274634.188,274641.002,284605,284605.20000005,2023-06-29T06:33:56Z,284606.819,Abrechnung,uhasibu,d,kusahihisha,mpambano,mashambulizi,mpambano,NA,NA,"c(""distractor1"", ""distractor2"", ""distractor3"")",NA,NA,NA,NA,NA,NA,NA,NA,NA,NA,NA,NA,NA,NA,NA,NA,NA,NA,NA
76153,Save data screen,canvas.Screen,2_7_0_1,NA,NA,timeout,499.85499999998,284606.30000007,284599.567,284606.819,285099.856,285100,2023-06-29T06:33:57Z,285106.674,Abrechnung,uhasibu,d,kusahihisha,mpambano,mashambulizi,NA,NA,0,"c(""distractor1"", ""distractor2"", ""distractor3"")",NA,NA,NA,NA,NA,NA,NA,NA,NA,NA,NA,NA,NA,NA,NA,NA,NA,NA,NA
76153,shallow,flow.Sequence,2_7_0,NA,NA,completion,10458.854,274634.60000002,274634.188,274641.002,285099.856,285100.20000005,2023-06-29T06:33:57Z,285106.674,Abrechnung,uhasibu,d,kusahihisha,mpambano,mashambulizi,NA,NA,NA,"c(""distractor1"", ""distractor2"", ""distractor3"")",NA,NA,NA,NA,NA,NA,NA,NA,NA,NA,NA,NA,NA,NA,NA,NA,NA,NA,NA
76153,task,flow.Sequence,2_7,NA,NA,completion,10458.854,274634.60000002,274634.188,274641.002,285099.856,285100.20000005,2023-06-29T06:33:57Z,285106.674,Abrechnung,uhasibu,d,kusahihisha,mpambano,mashambulizi,NA,NA,NA,"c(""distractor1"", ""distractor2"", ""distractor3"")",NA,NA,NA,NA,NA,NA,NA,NA,NA,NA,NA,NA,NA,NA,NA,NA,NA,NA,NA
76153,Shallow Question,html.Page,2_8_0_0,NA,NA,form submission,3593.2259999762,285100.30000007,285099.856,285106.674,288699.89999998,288700.10000002,2023-06-29T06:34:01Z,288704.054,Aufstand,ugomaji,s,mazidio,msingi,kujieleza,kujieleza,NA,NA,"c(""distractor1"", ""distractor2"", ""distractor3"")",NA,NA,NA,NA,NA,NA,NA,NA,NA,NA,NA,NA,NA,NA,NA,NA,NA,NA,NA
76153,Save data screen,canvas.Screen,2_8_0_1,NA,NA,timeout,499.98999999999,288701.20000005,288697.152,288704.054,289197.236,289197.39999998,2023-06-29T06:34:01Z,289204.044,Aufstand,ugomaji,s,mazidio,msingi,kujieleza,NA,NA,0,"c(""distractor1"", ""distractor2"", ""distractor3"")",NA,NA,NA,NA,NA,NA,NA,NA,NA,NA,NA,NA,NA,NA,NA,NA,NA,NA,NA
76153,shallow,flow.Sequence,2_8_0,NA,NA,completion,4090.562,285100.20000005,285099.856,285106.674,289197.236,289197.5,2023-06-29T06:34:01Z,289204.044,Aufstand,ugomaji,s,mazidio,msingi,kujieleza,NA,NA,NA,"c(""distractor1"", ""distractor2"", ""distractor3"")",NA,NA,NA,NA,NA,NA,NA,NA,NA,NA,NA,NA,NA,NA,NA,NA,NA,NA,NA
76153,task,flow.Sequence,2_8,NA,NA,completion,4090.562,285100.20000005,285099.856,285106.674,289197.236,289197.60000002,2023-06-29T06:34:01Z,289204.044,Aufstand,ugomaji,s,mazidio,msingi,kujieleza,NA,NA,NA,"c(""distractor1"", ""distractor2"", ""distractor3"")",NA,NA,NA,NA,NA,NA,NA,NA,NA,NA,NA,NA,NA,NA,NA,NA,NA,NA,NA
76153,Shallow Question,html.Page,2_9_0_0,NA,NA,form submission,6624.956,289197.70000005,289197.236,289204.044,295829,295829.10000002,2023-06-29T06:34:08Z,295837.052,Angreifer,mshambulizi,s,kitengo,tasinia,usafirishaji,mshambulizi,NA,NA,"c(""distractor1"", ""distractor2"", ""distractor3"")",NA,NA,NA,NA,NA,NA,NA,NA,NA,NA,NA,NA,NA,NA,NA,NA,NA,NA,NA
76153,Save data screen,canvas.Screen,2_9_0_1,NA,NA,timeout,499.20999999996,295830.20000005,295822.424,295837.052,296329.443,296329.60000002,2023-06-29T06:34:08Z,296336.262,Angreifer,mshambulizi,s,kitengo,tasinia,usafirishaji,NA,NA,1,"c(""distractor1"", ""distractor2"", ""distractor3"")",NA,NA,NA,NA,NA,NA,NA,NA,NA,NA,NA,NA,NA,NA,NA,NA,NA,NA,NA
76153,shallow,flow.Sequence,2_9_0,NA,NA,completion,7125.399,289197.70000005,289197.236,289204.044,296329.443,296329.70000005,2023-06-29T06:34:08Z,296336.262,Angreifer,mshambulizi,s,kitengo,tasinia,usafirishaji,NA,NA,NA,"c(""distractor1"", ""distractor2"", ""distractor3"")",NA,NA,NA,NA,NA,NA,NA,NA,NA,NA,NA,NA,NA,NA,NA,NA,NA,NA,NA
76153,task,flow.Sequence,2_9,NA,NA,completion,7125.399,289197.60000002,289197.236,289204.044,296329.443,296329.80000007,2023-06-29T06:34:08Z,296336.262,Angreifer,mshambulizi,s,kitengo,tasinia,usafirishaji,NA,NA,NA,"c(""distractor1"", ""distractor2"", ""distractor3"")",NA,NA,NA,NA,NA,NA,NA,NA,NA,NA,NA,NA,NA,NA,NA,NA,NA,NA,NA
76153,Shallow Question,html.Page,2_10_0_0,NA,NA,form submission,6881.738,296329.89999998,296329.443,296336.262,303218,303218.10000002,2023-06-29T06:34:15Z,303218.621,Übersicht,kilindo,d,mgusano,chipukizi,kulinganisha,kilindo,NA,NA,"c(""distractor1"", ""distractor2"", ""distractor3"")",NA,NA,NA,NA,NA,NA,NA,NA,NA,NA,NA,NA,NA,NA,NA,NA,NA,NA,NA
76153,Save data screen,canvas.Screen,2_10_0_1,NA,NA,timeout,499.86000000004,303219.20000005,303211.489,303218.621,303711.667,303711.80000007,2023-06-29T06:34:16Z,303718.481,Übersicht,kilindo,d,mgusano,chipukizi,kulinganisha,NA,NA,1,"c(""distractor1"", ""distractor2"", ""distractor3"")",NA,NA,NA,NA,NA,NA,NA,NA,NA,NA,NA,NA,NA,NA,NA,NA,NA,NA,NA
76153,shallow,flow.Sequence,2_10_0,NA,NA,completion,7375.405,296329.89999998,296329.443,296336.262,303711.667,303712,2023-06-29T06:34:16Z,303718.481,Übersicht,kilindo,d,mgusano,chipukizi,kulinganisha,NA,NA,NA,"c(""distractor1"", ""distractor2"", ""distractor3"")",NA,NA,NA,NA,NA,NA,NA,NA,NA,NA,NA,NA,NA,NA,NA,NA,NA,NA,NA
76153,task,flow.Sequence,2_10,NA,NA,completion,7375.405,296329.89999998,296329.443,296336.262,303711.667,303712,2023-06-29T06:34:16Z,303718.481,Übersicht,kilindo,d,mgusano,chipukizi,kulinganisha,NA,NA,NA,"c(""distractor1"", ""distractor2"", ""distractor3"")",NA,NA,NA,NA,NA,NA,NA,NA,NA,NA,NA,NA,NA,NA,NA,NA,NA,NA,NA
76153,Shallow Question,html.Page,2_11_0_0,NA,NA,form submission,12750.418999976,303712.10000002,303711.667,303718.481,316468.89999998,316469,2023-06-29T06:34:28Z,316476.786,Prüfung,mtihani,s,mkulima,mtizamo,ufumbuzi,mtihani,NA,NA,"c(""distractor1"", ""distractor2"", ""distractor3"")",NA,NA,NA,NA,NA,NA,NA,NA,NA,NA,NA,NA,NA,NA,NA,NA,NA,NA,NA
76153,Save data screen,canvas.Screen,2_11_0_1,NA,NA,timeout,499.136,316470.20000005,316462.078,316476.786,316969.099,316969.30000007,2023-06-29T06:34:29Z,316975.922,Prüfung,mtihani,s,mkulima,mtizamo,ufumbuzi,NA,NA,1,"c(""distractor1"", ""distractor2"", ""distractor3"")",NA,NA,NA,NA,NA,NA,NA,NA,NA,NA,NA,NA,NA,NA,NA,NA,NA,NA,NA
76153,shallow,flow.Sequence,2_11_0,NA,NA,completion,13250.618,303712.10000002,303711.667,303718.481,316969.099,316969.39999998,2023-06-29T06:34:29Z,316975.922,Prüfung,mtihani,s,mkulima,mtizamo,ufumbuzi,NA,NA,NA,"c(""distractor1"", ""distractor2"", ""distractor3"")",NA,NA,NA,NA,NA,NA,NA,NA,NA,NA,NA,NA,NA,NA,NA,NA,NA,NA,NA
76153,task,flow.Sequence,2_11,NA,NA,completion,13250.618,303712,303711.667,303718.481,316969.099,316969.39999998,2023-06-29T06:34:29Z,316975.922,Prüfung,mtihani,s,mkulima,mtizamo,ufumbuzi,NA,NA,NA,"c(""distractor1"", ""distractor2"", ""distractor3"")",NA,NA,NA,NA,NA,NA,NA,NA,NA,NA,NA,NA,NA,NA,NA,NA,NA,NA,NA
76153,Shallow Question,html.Page,2_12_0_0,NA,NA,form submission,7011.9779999761,316969.60000002,316969.099,316975.922,323987.89999998,323988,2023-06-29T06:34:36Z,323990.202,System,maongozi,s,chokochoko,nuksani,mitaani,maongozi,NA,NA,"c(""distractor1"", ""distractor2"", ""distractor3"")",NA,NA,NA,NA,NA,NA,NA,NA,NA,NA,NA,NA,NA,NA,NA,NA,NA,NA,NA
76153,Save data screen,canvas.Screen,2_12_0_1,NA,NA,timeout,499.88099999999,323989.10000002,323983.184,323990.202,324483.273,324483.39999998,2023-06-29T06:34:36Z,324490.083,System,maongozi,s,chokochoko,nuksani,mitaani,NA,NA,1,"c(""distractor1"", ""distractor2"", ""distractor3"")",NA,NA,NA,NA,NA,NA,NA,NA,NA,NA,NA,NA,NA,NA,NA,NA,NA,NA,NA
76153,shallow,flow.Sequence,2_12_0,NA,NA,completion,7507.351,316969.60000002,316969.099,316975.922,324483.273,324483.60000002,2023-06-29T06:34:36Z,324490.083,System,maongozi,s,chokochoko,nuksani,mitaani,NA,NA,NA,"c(""distractor1"", ""distractor2"", ""distractor3"")",NA,NA,NA,NA,NA,NA,NA,NA,NA,NA,NA,NA,NA,NA,NA,NA,NA,NA,NA
76153,task,flow.Sequence,2_12,NA,NA,completion,7507.351,316969.5,316969.099,316975.922,324483.273,324483.60000002,2023-06-29T06:34:36Z,324490.083,System,maongozi,s,chokochoko,nuksani,mitaani,NA,NA,NA,"c(""distractor1"", ""distractor2"", ""distractor3"")",NA,NA,NA,NA,NA,NA,NA,NA,NA,NA,NA,NA,NA,NA,NA,NA,NA,NA,NA
76153,Shallow Question,html.Page,2_13_0_0,NA,NA,form submission,4489.8169999762,324483.80000007,324483.273,324490.083,328979.89999998,328980,2023-06-29T06:34:41Z,328983.347,Kultur,utamaduni,d,shetani,gerezani,mazingira,utamaduni,NA,NA,"c(""distractor1"", ""distractor2"", ""distractor3"")",NA,NA,NA,NA,NA,NA,NA,NA,NA,NA,NA,NA,NA,NA,NA,NA,NA,NA,NA
76153,Save data screen,canvas.Screen,2_13_0_1,NA,NA,timeout,499.973,328981.10000002,328976.43,328983.347,329476.511,329476.70000005,2023-06-29T06:34:41Z,329483.32,Kultur,utamaduni,d,shetani,gerezani,mazingira,NA,NA,1,"c(""distractor1"", ""distractor2"", ""distractor3"")",NA,NA,NA,NA,NA,NA,NA,NA,NA,NA,NA,NA,NA,NA,NA,NA,NA,NA,NA
76153,shallow,flow.Sequence,2_13_0,NA,NA,completion,4986.428,324483.70000005,324483.273,324490.083,329476.511,329476.80000007,2023-06-29T06:34:41Z,329483.32,Kultur,utamaduni,d,shetani,gerezani,mazingira,NA,NA,NA,"c(""distractor1"", ""distractor2"", ""distractor3"")",NA,NA,NA,NA,NA,NA,NA,NA,NA,NA,NA,NA,NA,NA,NA,NA,NA,NA,NA
76153,task,flow.Sequence,2_13,NA,NA,completion,4986.428,324483.70000005,324483.273,324490.083,329476.511,329476.80000007,2023-06-29T06:34:41Z,329483.32,Kultur,utamaduni,d,shetani,gerezani,mazingira,NA,NA,NA,"c(""distractor1"", ""distractor2"", ""distractor3"")",NA,NA,NA,NA,NA,NA,NA,NA,NA,NA,NA,NA,NA,NA,NA,NA,NA,NA,NA
76153,Shallow Question,html.Page,2_14_0_0,NA,NA,form submission,8591.5799999762,329476.89999998,329476.511,329483.32,338074.89999998,338075,2023-06-29T06:34:50Z,338080.874,Kreativität,ubunifu,s,mratibu,mwendelezo,makubaliano,mratibu,NA,NA,"c(""distractor1"", ""distractor2"", ""distractor3"")",NA,NA,NA,NA,NA,NA,NA,NA,NA,NA,NA,NA,NA,NA,NA,NA,NA,NA,NA
76153,Save data screen,canvas.Screen,2_14_0_1,NA,NA,timeout,500.00599999999,338076.10000002,338074.005,338080.874,338574.071,338574.20000005,2023-06-29T06:34:50Z,338580.88,Kreativität,ubunifu,s,mratibu,mwendelezo,makubaliano,NA,NA,0,"c(""distractor1"", ""distractor2"", ""distractor3"")",NA,NA,NA,NA,NA,NA,NA,NA,NA,NA,NA,NA,NA,NA,NA,NA,NA,NA,NA
76153,shallow,flow.Sequence,2_14_0,NA,NA,completion,9090.751,329476.89999998,329476.511,329483.32,338574.071,338574.30000007,2023-06-29T06:34:50Z,338580.88,Kreativität,ubunifu,s,mratibu,mwendelezo,makubaliano,NA,NA,NA,"c(""distractor1"", ""distractor2"", ""distractor3"")",NA,NA,NA,NA,NA,NA,NA,NA,NA,NA,NA,NA,NA,NA,NA,NA,NA,NA,NA
76153,task,flow.Sequence,2_14,NA,NA,completion,9090.751,329476.89999998,329476.511,329483.32,338574.071,338574.39999998,2023-06-29T06:34:50Z,338580.88,Kreativität,ubunifu,s,mratibu,mwendelezo,makubaliano,NA,NA,NA,"c(""distractor1"", ""distractor2"", ""distractor3"")",NA,NA,NA,NA,NA,NA,NA,NA,NA,NA,NA,NA,NA,NA,NA,NA,NA,NA,NA
76153,Shallow Question,html.Page,2_15_0_0,NA,NA,form submission,7286.9200000715,338574.60000002,338574.071,338580.88,345867.80000007,345868,2023-06-29T06:34:58Z,345872.826,Verzögerung,kuchelewa,d,mwakilishi,mwanauchumi,jaribio,kuchelewa,NA,NA,"c(""distractor1"", ""distractor2"", ""distractor3"")",NA,NA,NA,NA,NA,NA,NA,NA,NA,NA,NA,NA,NA,NA,NA,NA,NA,NA,NA
76153,Save data screen,canvas.Screen,2_15_0_1,NA,NA,timeout,500.03100000002,345869.10000002,345865.811,345872.826,346366.019,346366.20000005,2023-06-29T06:34:58Z,346372.857,Verzögerung,kuchelewa,d,mwakilishi,mwanauchumi,jaribio,NA,NA,1,"c(""distractor1"", ""distractor2"", ""distractor3"")",NA,NA,NA,NA,NA,NA,NA,NA,NA,NA,NA,NA,NA,NA,NA,NA,NA,NA,NA
76153,shallow,flow.Sequence,2_15_0,NA,NA,completion,7785.139,338574.5,338574.071,338580.88,346366.019,346366.30000007,2023-06-29T06:34:58Z,346372.857,Verzögerung,kuchelewa,d,mwakilishi,mwanauchumi,jaribio,NA,NA,NA,"c(""distractor1"", ""distractor2"", ""distractor3"")",NA,NA,NA,NA,NA,NA,NA,NA,NA,NA,NA,NA,NA,NA,NA,NA,NA,NA,NA
76153,task,flow.Sequence,2_15,NA,NA,completion,7785.139,338574.5,338574.071,338580.88,346366.019,346366.39999998,2023-06-29T06:34:58Z,346372.857,Verzögerung,kuchelewa,d,mwakilishi,mwanauchumi,jaribio,NA,NA,NA,"c(""distractor1"", ""distractor2"", ""distractor3"")",NA,NA,NA,NA,NA,NA,NA,NA,NA,NA,NA,NA,NA,NA,NA,NA,NA,NA,NA
76153,retrieval block 2 (multiple choice),flow.Loop,2,NA,NA,completion,113282.118,233077.60000002,233077.091,233083.901,346366.019,346366.39999998,2023-06-29T06:34:58Z,346372.857,NA,NA,NA,NA,NA,NA,NA,NA,NA,"c(""distractor1"", ""distractor2"", ""distractor3"")",NA,NA,NA,NA,NA,NA,NA,NA,NA,NA,NA,NA,NA,NA,NA,NA,NA,NA,NA
76153,End,canvas.Screen,3,NA,keypress(Space),response,1493.5429999761,346366.5,346366.019,346372.857,347866.39999998,347866.80000007,2023-06-29T06:35:00Z,347873.029,NA,NA,NA,NA,NA,NA,NA,NA,NA,NULL,NA,NA,NA,NA,NA,NA,NA,NA,NA,NA,NA,NA,NA,NA,NA,NA,NA,NA,NA
76153,root,flow.Sequence,NA,NA,NA,completion,347464.86699998,395.60000002384,269.575,401.533,347866.39999998,347867,2023-06-29T06:35:00Z,347873.029,NA,NA,NA,NA,NA,NA,NA,NA,NA,NULL,NA,NA,NA,NA,NA,NA,NA,NA,NA,NA,NA,NA,NA,NA,NA,NA,NA,NA,NA
