observation,sender,sender_type,sender_id,response,response_action,ended_on,duration,time_run,time_render,time_show,time_end,time_commit,timestamp,time_switch,distractors,german,swahili,enc,distractor1,distractor2,distractor3,response_2,x,correct,x_2,url_vp,url_sess,meta_labjs_version,meta_location,meta_user_agent,meta_platform,meta_language,meta_locale,meta_time_zone,meta_timezone_offset,meta_screen_width,meta_screen_height,meta_scroll_width,meta_scroll_height,meta_window_inner_width,meta_window_inner_height,meta_device_pixel_ratio,meta_labjs_build_flavor,meta_labjs_build_commit
76d8c,Introduction general,canvas.Screen,0,weiter,keypress(q),response,81135.300000191,952.20000004768,2804.5,2838,83973.300000191,83976.900000095,2024-03-04T16:38:36Z,83988.3,NULL,NA,NA,NA,NA,NA,NA,NA,NA,NA,NA,141,1,20.2.4,https://neurocog.fernuni.ch/studies/vweber/aberisha/encoding_immediate/index.html?vp=141&sess=1,"Mozilla/5.0 (Windows NT 10.0; Win64; x64) AppleWebKit/537.36 (KHTML, like Gecko) Chrome/122.0.0.0 Safari/537.36",Win32,de-DE,de,Europe/Zurich,-60,1739,979,1740,763,1740,811,1.1041666269302,production,f5b4a49f956347addd546a832a3327688c2c0fef
76d8c,Introduction practice,canvas.Screen,1_0,NA,keypress(Space),response,7223.800000143,83977.100000143,83967.832,83988.3,91212.100000143,91212.700000048,2024-03-04T16:38:44Z,91217.1,NULL,NA,NA,NA,NA,NA,NA,NA,NA,NA,NA,NA,NA,NA,NA,NA,NA,NA,NA,NA,NA,NA,NA,NA,NA,NA,NA,NA,NA,NA
76d8c,Deep Question,html.Page,1_1_0_0_0,NA,NA,form submission,21843.100000048,91212.800000191,91204.512,91217.1,113060.20000005,113060.5,2024-03-04T16:39:06Z,113070.4,"c(""distractor1"", ""distractor2"", ""distractor3"")",Gesundheit,salama,d,NA,NA,NA,hkjk,NA,NA,NA,NA,NA,NA,NA,NA,NA,NA,NA,NA,NA,NA,NA,NA,NA,NA,NA,NA,NA,NA
76d8c,"""Richtig""-Screen",canvas.Screen,1_1_0_0_1,NA,NA,skipped,NA,113061.70000005,NA,NA,113060.20000005,113061.80000019001,2024-03-04T16:39:06Z,113070.4,"c(""distractor1"", ""distractor2"", ""distractor3"")",Gesundheit,salama,d,NA,NA,NA,NA,NA,NA,NA,NA,NA,NA,NA,NA,NA,NA,NA,NA,NA,NA,NA,NA,NA,NA,NA,NA,NA,NA
76d8c,"""Falsch""-Screen",canvas.Screen,1_1_0_0_2,NA,NA,timeout,4997.6,113062.60000014,113054.996,113070.4,118050.8,118055.9000001,2024-03-04T16:39:11Z,118068,"c(""distractor1"", ""distractor2"", ""distractor3"")",Gesundheit,salama,d,NA,NA,NA,NA,NA,0,NA,NA,NA,NA,NA,NA,NA,NA,NA,NA,NA,NA,NA,NA,NA,NA,NA,NA,NA,NA
76d8c,deep,flow.Sequence,1_1_0_0,NA,NA,completion,26833.7,91212.800000191,91204.512,91217.1,118050.8,118056.5,2024-03-04T16:39:11Z,118068,"c(""distractor1"", ""distractor2"", ""distractor3"")",Gesundheit,salama,d,NA,NA,NA,NA,NA,NA,NA,NA,NA,NA,NA,NA,NA,NA,NA,NA,NA,NA,NA,NA,NA,NA,NA,NA,NA,NA
76d8c,shallow,flow.Sequence,1_1_0_1,NA,NA,skipped,NA,118056.70000005,NA,NA,118050.8,118056.9000001,2024-03-04T16:39:11Z,118068,"c(""distractor1"", ""distractor2"", ""distractor3"")",Gesundheit,salama,d,NA,NA,NA,NA,NA,NA,NA,NA,NA,NA,NA,NA,NA,NA,NA,NA,NA,NA,NA,NA,NA,NA,NA,NA,NA,NA
76d8c,task,flow.Sequence,1_1_0,NA,NA,completion,26833.7,91212.800000191,91204.512,91217.1,118050.8,118057.20000005,2024-03-04T16:39:11Z,118068,"c(""distractor1"", ""distractor2"", ""distractor3"")",Gesundheit,salama,d,NA,NA,NA,NA,NA,NA,NA,NA,NA,NA,NA,NA,NA,NA,NA,NA,NA,NA,NA,NA,NA,NA,NA,NA,NA,NA
76d8c,deep,flow.Sequence,1_1_1_0,NA,NA,skipped,NA,118057.30000019001,NA,NA,118050.8,118057.4000001,2024-03-04T16:39:11Z,118068,"c(""distractor1"", ""distractor2"", ""distractor3"")",Gegenwart,hadhara,s,katiba,jokofu,mikopo,NA,NA,NA,NA,NA,NA,NA,NA,NA,NA,NA,NA,NA,NA,NA,NA,NA,NA,NA,NA,NA,NA,NA
76d8c,Shallow Question,html.Page,1_1_1_1_0,NA,NA,form submission,13143,118057.4000001,118050.8,118068,131211,131211.20000005,2024-03-04T16:39:24Z,131226.5,"c(""distractor1"", ""distractor2"", ""distractor3"")",Gegenwart,hadhara,s,katiba,jokofu,mikopo,mikopo,NA,NA,NA,NA,NA,NA,NA,NA,NA,NA,NA,NA,NA,NA,NA,NA,NA,NA,NA,NA,NA,NA
76d8c,"""Richtig""-Screen",canvas.Screen,1_1_1_1_1,NA,NA,skipped,NA,131214.70000005,NA,NA,131211,131214.80000019,2024-03-04T16:39:24Z,131226.5,"c(""distractor1"", ""distractor2"", ""distractor3"")",Gegenwart,hadhara,s,katiba,jokofu,mikopo,NA,NA,NA,NA,NA,NA,NA,NA,NA,NA,NA,NA,NA,NA,NA,NA,NA,NA,NA,NA,NA,NA,NA
76d8c,"""Falsch""-Screen",canvas.Screen,1_1_1_1_2,NA,NA,timeout,4996.5,131216,131209.944,131226.5,136206.6,136207.20000005,2024-03-04T16:39:29Z,136223,"c(""distractor1"", ""distractor2"", ""distractor3"")",Gegenwart,hadhara,s,katiba,jokofu,mikopo,NA,NA,0,NA,NA,NA,NA,NA,NA,NA,NA,NA,NA,NA,NA,NA,NA,NA,NA,NA,NA,NA,NA
76d8c,shallow,flow.Sequence,1_1_1_1,NA,NA,completion,18138.6,118057.4000001,118050.8,118068,136206.6,136207.5,2024-03-04T16:39:29Z,136223,"c(""distractor1"", ""distractor2"", ""distractor3"")",Gegenwart,hadhara,s,katiba,jokofu,mikopo,NA,NA,NA,NA,NA,NA,NA,NA,NA,NA,NA,NA,NA,NA,NA,NA,NA,NA,NA,NA,NA,NA,NA
76d8c,task,flow.Sequence,1_1_1,NA,NA,completion,18138.6,118057.30000019001,118050.8,118068,136206.6,136207.80000019,2024-03-04T16:39:29Z,136223,"c(""distractor1"", ""distractor2"", ""distractor3"")",Gegenwart,hadhara,s,katiba,jokofu,mikopo,NA,NA,NA,NA,NA,NA,NA,NA,NA,NA,NA,NA,NA,NA,NA,NA,NA,NA,NA,NA,NA,NA,NA
76d8c,Deep Question,html.Page,1_1_2_0_0,NA,NA,form submission,5349.6000001431,136207.80000019,136206.6,136223,141572.60000014,141572.80000019,2024-03-04T16:39:34Z,141586.4,"c(""distractor1"", ""distractor2"", ""distractor3"")",Qualität,mtindo,d,NA,NA,NA,mshts,NA,NA,NA,NA,NA,NA,NA,NA,NA,NA,NA,NA,NA,NA,NA,NA,NA,NA,NA,NA,NA,NA
76d8c,"""Richtig""-Screen",canvas.Screen,1_1_2_0_1,NA,NA,skipped,NA,141576,NA,NA,141572.60000014,141576.10000014,2024-03-04T16:39:34Z,141586.4,"c(""distractor1"", ""distractor2"", ""distractor3"")",Qualität,mtindo,d,NA,NA,NA,NA,NA,NA,NA,NA,NA,NA,NA,NA,NA,NA,NA,NA,NA,NA,NA,NA,NA,NA,NA,NA,NA,NA
76d8c,"""Falsch""-Screen",canvas.Screen,1_1_2_0_2,NA,NA,timeout,5030.2,141577,141571.116,141586.4,146599.9,146608.10000014,2024-03-04T16:39:39Z,146616.6,"c(""distractor1"", ""distractor2"", ""distractor3"")",Qualität,mtindo,d,NA,NA,NA,NA,NA,0,NA,NA,NA,NA,NA,NA,NA,NA,NA,NA,NA,NA,NA,NA,NA,NA,NA,NA,NA,NA
76d8c,deep,flow.Sequence,1_1_2_0,NA,NA,completion,10376.9,136207.80000019,136206.6,136223,146599.9,146608.30000019,2024-03-04T16:39:39Z,146616.6,"c(""distractor1"", ""distractor2"", ""distractor3"")",Qualität,mtindo,d,NA,NA,NA,NA,NA,NA,NA,NA,NA,NA,NA,NA,NA,NA,NA,NA,NA,NA,NA,NA,NA,NA,NA,NA,NA,NA
76d8c,shallow,flow.Sequence,1_1_2_1,NA,NA,skipped,NA,146608.30000019,NA,NA,146599.9,146608.4000001,2024-03-04T16:39:39Z,146616.6,"c(""distractor1"", ""distractor2"", ""distractor3"")",Qualität,mtindo,d,NA,NA,NA,NA,NA,NA,NA,NA,NA,NA,NA,NA,NA,NA,NA,NA,NA,NA,NA,NA,NA,NA,NA,NA,NA,NA
76d8c,task,flow.Sequence,1_1_2,NA,NA,completion,10376.9,136207.80000019,136206.6,136223,146599.9,146608.4000001,2024-03-04T16:39:39Z,146616.6,"c(""distractor1"", ""distractor2"", ""distractor3"")",Qualität,mtindo,d,NA,NA,NA,NA,NA,NA,NA,NA,NA,NA,NA,NA,NA,NA,NA,NA,NA,NA,NA,NA,NA,NA,NA,NA,NA,NA
76d8c,deep,flow.Sequence,1_1_3_0,NA,NA,skipped,NA,146608.5,NA,NA,146599.9,146608.5,2024-03-04T16:39:39Z,146616.6,"c(""distractor1"", ""distractor2"", ""distractor3"")",Rückhalt,msaada,s,muhula,auwali,kiwimbe,NA,NA,NA,NA,NA,NA,NA,NA,NA,NA,NA,NA,NA,NA,NA,NA,NA,NA,NA,NA,NA,NA,NA
76d8c,Shallow Question,html.Page,1_1_3_1_0,NA,NA,form submission,9489.7000001907,146608.5,146599.9,146616.6,156106.30000019,156106.60000014,2024-03-04T16:39:49Z,156111.35,"c(""distractor1"", ""distractor2"", ""distractor3"")",Rückhalt,msaada,s,muhula,auwali,kiwimbe,kiwimbe,NA,NA,NA,NA,NA,NA,NA,NA,NA,NA,NA,NA,NA,NA,NA,NA,NA,NA,NA,NA,NA,NA
76d8c,"""Richtig""-Screen",canvas.Screen,1_1_3_1_1,NA,NA,skipped,NA,156109.80000019,NA,NA,156106.30000019,156109.9000001,2024-03-04T16:39:49Z,156111.35,"c(""distractor1"", ""distractor2"", ""distractor3"")",Rückhalt,msaada,s,muhula,auwali,kiwimbe,NA,NA,NA,NA,NA,NA,NA,NA,NA,NA,NA,NA,NA,NA,NA,NA,NA,NA,NA,NA,NA,NA,NA
76d8c,"""Falsch""-Screen",canvas.Screen,1_1_3_1_2,NA,NA,timeout,4996.45,156110.70000005,156111.35,156111.35,161091.1,161091.60000014,2024-03-04T16:39:54Z,161107.8,"c(""distractor1"", ""distractor2"", ""distractor3"")",Rückhalt,msaada,s,muhula,auwali,kiwimbe,NA,NA,0,NA,NA,NA,NA,NA,NA,NA,NA,NA,NA,NA,NA,NA,NA,NA,NA,NA,NA,NA,NA
76d8c,shallow,flow.Sequence,1_1_3_1,NA,NA,completion,14474.5,146608.5,146599.9,146616.6,161091.1,161091.70000005,2024-03-04T16:39:54Z,161107.8,"c(""distractor1"", ""distractor2"", ""distractor3"")",Rückhalt,msaada,s,muhula,auwali,kiwimbe,NA,NA,NA,NA,NA,NA,NA,NA,NA,NA,NA,NA,NA,NA,NA,NA,NA,NA,NA,NA,NA,NA,NA
76d8c,task,flow.Sequence,1_1_3,NA,NA,completion,14474.5,146608.5,146599.9,146616.6,161091.1,161091.9000001,2024-03-04T16:39:54Z,161107.8,"c(""distractor1"", ""distractor2"", ""distractor3"")",Rückhalt,msaada,s,muhula,auwali,kiwimbe,NA,NA,NA,NA,NA,NA,NA,NA,NA,NA,NA,NA,NA,NA,NA,NA,NA,NA,NA,NA,NA,NA,NA
76d8c,Deep Question,html.Page,1_1_4_0_0,NA,NA,form submission,4950.2,161092,161091.1,161107.8,166058,166058.10000014,2024-03-04T16:39:59Z,166071.4,"c(""distractor1"", ""distractor2"", ""distractor3"")",Schatten,kivuli,d,NA,NA,NA,ghsfs,NA,NA,NA,NA,NA,NA,NA,NA,NA,NA,NA,NA,NA,NA,NA,NA,NA,NA,NA,NA,NA,NA
76d8c,"""Richtig""-Screen",canvas.Screen,1_1_4_0_1,NA,NA,skipped,NA,166061.4000001,NA,NA,166058,166061.5,2024-03-04T16:39:59Z,166071.4,"c(""distractor1"", ""distractor2"", ""distractor3"")",Schatten,kivuli,d,NA,NA,NA,NA,NA,NA,NA,NA,NA,NA,NA,NA,NA,NA,NA,NA,NA,NA,NA,NA,NA,NA,NA,NA,NA,NA
76d8c,"""Falsch""-Screen",canvas.Screen,1_1_4_0_2,NA,NA,timeout,4997,166062.20000005,166056.288,166071.4,171052,171052.5,2024-03-04T16:40:04Z,171068.4,"c(""distractor1"", ""distractor2"", ""distractor3"")",Schatten,kivuli,d,NA,NA,NA,NA,NA,0,NA,NA,NA,NA,NA,NA,NA,NA,NA,NA,NA,NA,NA,NA,NA,NA,NA,NA,NA,NA
76d8c,deep,flow.Sequence,1_1_4_0,NA,NA,completion,9944.2,161092,161091.1,161107.8,171052,171052.70000005,2024-03-04T16:40:04Z,171068.4,"c(""distractor1"", ""distractor2"", ""distractor3"")",Schatten,kivuli,d,NA,NA,NA,NA,NA,NA,NA,NA,NA,NA,NA,NA,NA,NA,NA,NA,NA,NA,NA,NA,NA,NA,NA,NA,NA,NA
76d8c,shallow,flow.Sequence,1_1_4_1,NA,NA,skipped,NA,171052.70000005,NA,NA,171052,171052.80000019,2024-03-04T16:40:04Z,171068.4,"c(""distractor1"", ""distractor2"", ""distractor3"")",Schatten,kivuli,d,NA,NA,NA,NA,NA,NA,NA,NA,NA,NA,NA,NA,NA,NA,NA,NA,NA,NA,NA,NA,NA,NA,NA,NA,NA,NA
76d8c,task,flow.Sequence,1_1_4,NA,NA,completion,9944.2,161092,161091.1,161107.8,171052,171052.9000001,2024-03-04T16:40:04Z,171068.4,"c(""distractor1"", ""distractor2"", ""distractor3"")",Schatten,kivuli,d,NA,NA,NA,NA,NA,NA,NA,NA,NA,NA,NA,NA,NA,NA,NA,NA,NA,NA,NA,NA,NA,NA,NA,NA,NA,NA
76d8c,deep,flow.Sequence,1_1_5_0,NA,NA,skipped,NA,171053,NA,NA,171052,171053,2024-03-04T16:40:04Z,171068.4,"c(""distractor1"", ""distractor2"", ""distractor3"")",Kritik,lawama,s,dereva,nafasi,mawazo,NA,NA,NA,NA,NA,NA,NA,NA,NA,NA,NA,NA,NA,NA,NA,NA,NA,NA,NA,NA,NA,NA,NA
76d8c,Shallow Question,html.Page,1_1_5_1_0,NA,NA,form submission,8436.3000000477,171053.10000014,171052,171068.4,179504.70000005,179504.80000019,2024-03-04T16:40:12Z,179513.4,"c(""distractor1"", ""distractor2"", ""distractor3"")",Kritik,lawama,s,dereva,nafasi,mawazo,nafasi,NA,NA,NA,NA,NA,NA,NA,NA,NA,NA,NA,NA,NA,NA,NA,NA,NA,NA,NA,NA,NA,NA
76d8c,"""Richtig""-Screen",canvas.Screen,1_1_5_1_1,NA,NA,skipped,NA,179506.10000014,NA,NA,179504.70000005,179506.20000005,2024-03-04T16:40:12Z,179513.4,"c(""distractor1"", ""distractor2"", ""distractor3"")",Kritik,lawama,s,dereva,nafasi,mawazo,NA,NA,NA,NA,NA,NA,NA,NA,NA,NA,NA,NA,NA,NA,NA,NA,NA,NA,NA,NA,NA,NA,NA
76d8c,"""Falsch""-Screen",canvas.Screen,1_1_5_1_2,NA,NA,timeout,4997,179506.60000014,179497.212,179513.4,184493.8,184494.60000014,2024-03-04T16:40:17Z,184510.4,"c(""distractor1"", ""distractor2"", ""distractor3"")",Kritik,lawama,s,dereva,nafasi,mawazo,NA,NA,0,NA,NA,NA,NA,NA,NA,NA,NA,NA,NA,NA,NA,NA,NA,NA,NA,NA,NA,NA,NA
76d8c,shallow,flow.Sequence,1_1_5_1,NA,NA,completion,13425.4,171053.10000014,171052,171068.4,184493.8,184495,2024-03-04T16:40:17Z,184510.4,"c(""distractor1"", ""distractor2"", ""distractor3"")",Kritik,lawama,s,dereva,nafasi,mawazo,NA,NA,NA,NA,NA,NA,NA,NA,NA,NA,NA,NA,NA,NA,NA,NA,NA,NA,NA,NA,NA,NA,NA
76d8c,task,flow.Sequence,1_1_5,NA,NA,completion,13425.4,171053,171052,171068.4,184493.8,184495.20000005,2024-03-04T16:40:17Z,184510.4,"c(""distractor1"", ""distractor2"", ""distractor3"")",Kritik,lawama,s,dereva,nafasi,mawazo,NA,NA,NA,NA,NA,NA,NA,NA,NA,NA,NA,NA,NA,NA,NA,NA,NA,NA,NA,NA,NA,NA,NA
76d8c,block,flow.Loop,1_1,NA,NA,completion,93276.7,91212.800000191,91204.512,91217.1,184493.8,184495.5,2024-03-04T16:40:17Z,184510.4,"c(""distractor1"", ""distractor2"", ""distractor3"")",NA,NA,NA,NA,NA,NA,NA,NA,NA,NA,NA,NA,NA,NA,NA,NA,NA,NA,NA,NA,NA,NA,NA,NA,NA,NA,NA,NA,NA
76d8c,Practice,flow.Sequence,1,NA,NA,completion,100505.5,83977.100000143,83967.832,83988.3,184493.8,184495.80000019,2024-03-04T16:40:17Z,184510.4,NULL,NA,NA,NA,NA,NA,NA,NA,NA,NA,NA,NA,NA,NA,NA,NA,NA,NA,NA,NA,NA,NA,NA,NA,NA,NA,NA,NA,NA,NA
76d8c,Experiment start,canvas.Screen,2,weiter,keypress(q),response,69859.500000095,184495.9000001,184493.8,184510.4,254369.9000001,254372.80000019,2024-03-04T16:41:27Z,254434,NULL,NA,NA,NA,NA,NA,NA,NA,NA,NA,NA,NA,NA,NA,NA,NA,NA,NA,NA,NA,NA,NA,NA,NA,NA,NA,NA,NA,NA,NA
76d8c,Deep Question,html.Page,3_0_0_0_0_0_0,NA,NA,form submission,7713,254430.60000014,254423.288,254434,262147,262147.20000005,2024-03-04T16:41:35Z,262162.6,NULL,Sympathie,mapendano,d,NA,NA,NA,akwama,NA,NA,0,NA,NA,NA,NA,NA,NA,NA,NA,NA,NA,NA,NA,NA,NA,NA,NA,NA,NA,NA
76d8c,"""Richtig""-Screen",canvas.Screen,3_0_0_0_0_0_1,NA,NA,skipped,NA,262150.20000005,NA,NA,262147,262150.30000019,2024-03-04T16:41:35Z,262162.6,NULL,Sympathie,mapendano,d,NA,NA,NA,NA,sdf,NA,0,NA,NA,NA,NA,NA,NA,NA,NA,NA,NA,NA,NA,NA,NA,NA,NA,NA,NA,NA
76d8c,"""Falsch""-Screen",canvas.Screen,3_0_0_0_0_0_2,NA,NA,timeout,4997.5,262151.20000005,262146.68,262162.6,267143.3,267143.70000005,2024-03-04T16:41:40Z,267160.1,NULL,Sympathie,mapendano,d,NA,NA,NA,NA,sdf,0,0,NA,NA,NA,NA,NA,NA,NA,NA,NA,NA,NA,NA,NA,NA,NA,NA,NA,NA,NA
76d8c,deep,flow.Sequence,3_0_0_0_0_0,NA,NA,completion,12709.3,254430.60000014,254423.288,254434,267143.3,267143.80000019,2024-03-04T16:41:40Z,267160.1,NULL,Sympathie,mapendano,d,NA,NA,NA,NA,sdf,NA,0,NA,NA,NA,NA,NA,NA,NA,NA,NA,NA,NA,NA,NA,NA,NA,NA,NA,NA,NA
76d8c,shallow,flow.Sequence,3_0_0_0_0_1,NA,NA,skipped,NA,267143.80000019,NA,NA,267143.3,267143.9000001,2024-03-04T16:41:40Z,267160.1,NULL,Sympathie,mapendano,d,NA,NA,NA,NA,sdf,NA,0,NA,NA,NA,NA,NA,NA,NA,NA,NA,NA,NA,NA,NA,NA,NA,NA,NA,NA,NA
76d8c,task,flow.Sequence,3_0_0_0_0,NA,NA,completion,12709.3,254430.60000014,254423.288,254434,267143.3,267144,2024-03-04T16:41:40Z,267160.1,NULL,Sympathie,mapendano,d,NA,NA,NA,NA,sdf,NA,0,NA,NA,NA,NA,NA,NA,NA,NA,NA,NA,NA,NA,NA,NA,NA,NA,NA,NA,NA
76d8c,deep,flow.Sequence,3_0_0_0_1_0,NA,NA,skipped,NA,267144,NA,NA,267143.3,267144,2024-03-04T16:41:40Z,267160.1,NULL,Polizist,msongora,s,simanzi,mandhari,nidhamu,NA,sdf,NA,0,NA,NA,NA,NA,NA,NA,NA,NA,NA,NA,NA,NA,NA,NA,NA,NA,NA,NA,NA
76d8c,Shallow Question,html.Page,3_0_0_0_1_1_0,NA,NA,form submission,6175.6000000477,267144,267143.3,267160.1,273335.70000005,273335.9000001,2024-03-04T16:41:46Z,273340.058,NULL,Polizist,msongora,s,simanzi,mandhari,nidhamu,simanzi,NA,NA,0,NA,NA,NA,NA,NA,NA,NA,NA,NA,NA,NA,NA,NA,NA,NA,NA,NA,NA,NA
76d8c,"""Richtig""-Screen",canvas.Screen,3_0_0_0_1_1_1,NA,NA,skipped,NA,273338.9000001,NA,NA,273335.70000005,273339.10000014,2024-03-04T16:41:46Z,273340.058,NULL,Polizist,msongora,s,simanzi,mandhari,nidhamu,NA,sdf,NA,0,NA,NA,NA,NA,NA,NA,NA,NA,NA,NA,NA,NA,NA,NA,NA,NA,NA,NA,NA
76d8c,"""Falsch""-Screen",canvas.Screen,3_0_0_0_1_1_2,NA,NA,timeout,4996.542,273339.9000001,273340.058,273340.058,278319.6,278320.4000001,2024-03-04T16:41:51Z,278336.6,NULL,Polizist,msongora,s,simanzi,mandhari,nidhamu,NA,sdf,0,0,NA,NA,NA,NA,NA,NA,NA,NA,NA,NA,NA,NA,NA,NA,NA,NA,NA,NA,NA
76d8c,shallow,flow.Sequence,3_0_0_0_1_1,NA,NA,completion,11159.5,267144,267143.3,267160.1,278319.6,278320.80000019,2024-03-04T16:41:51Z,278336.6,NULL,Polizist,msongora,s,simanzi,mandhari,nidhamu,NA,sdf,NA,0,NA,NA,NA,NA,NA,NA,NA,NA,NA,NA,NA,NA,NA,NA,NA,NA,NA,NA,NA
76d8c,task,flow.Sequence,3_0_0_0_1,NA,NA,completion,11159.5,267144,267143.3,267160.1,278319.6,278321,2024-03-04T16:41:51Z,278336.6,NULL,Polizist,msongora,s,simanzi,mandhari,nidhamu,NA,sdf,NA,0,NA,NA,NA,NA,NA,NA,NA,NA,NA,NA,NA,NA,NA,NA,NA,NA,NA,NA,NA
76d8c,Deep Question,html.Page,3_0_0_0_2_0_0,NA,NA,form submission,5487.9,278321.10000014,278319.6,278336.6,283824.5,283824.80000019,2024-03-04T16:41:56Z,283832.7,NULL,Toleranz,kuvumiliana,d,NA,NA,NA,mutaha,NA,NA,0,NA,NA,NA,NA,NA,NA,NA,NA,NA,NA,NA,NA,NA,NA,NA,NA,NA,NA,NA
76d8c,"""Richtig""-Screen",canvas.Screen,3_0_0_0_2_0_1,NA,NA,skipped,NA,283828,NA,NA,283824.5,283828.20000005,2024-03-04T16:41:56Z,283832.7,NULL,Toleranz,kuvumiliana,d,NA,NA,NA,NA,sdf,NA,0,NA,NA,NA,NA,NA,NA,NA,NA,NA,NA,NA,NA,NA,NA,NA,NA,NA,NA,NA
76d8c,"""Falsch""-Screen",canvas.Screen,3_0_0_0_2_0_2,NA,NA,timeout,4997.3,283829,283817.192,283832.7,288813.4,288814.20000005,2024-03-04T16:42:01Z,288830,NULL,Toleranz,kuvumiliana,d,NA,NA,NA,NA,sdf,0,0,NA,NA,NA,NA,NA,NA,NA,NA,NA,NA,NA,NA,NA,NA,NA,NA,NA,NA,NA
76d8c,deep,flow.Sequence,3_0_0_0_2_0,NA,NA,completion,10476.8,278321.10000014,278319.6,278336.6,288813.4,288814.5,2024-03-04T16:42:01Z,288830,NULL,Toleranz,kuvumiliana,d,NA,NA,NA,NA,sdf,NA,0,NA,NA,NA,NA,NA,NA,NA,NA,NA,NA,NA,NA,NA,NA,NA,NA,NA,NA,NA
76d8c,shallow,flow.Sequence,3_0_0_0_2_1,NA,NA,skipped,NA,288814.60000014,NA,NA,288813.4,288814.70000005,2024-03-04T16:42:01Z,288830,NULL,Toleranz,kuvumiliana,d,NA,NA,NA,NA,sdf,NA,0,NA,NA,NA,NA,NA,NA,NA,NA,NA,NA,NA,NA,NA,NA,NA,NA,NA,NA,NA
76d8c,task,flow.Sequence,3_0_0_0_2,NA,NA,completion,10476.8,278321.10000014,278319.6,278336.6,288813.4,288814.9000001,2024-03-04T16:42:01Z,288830,NULL,Toleranz,kuvumiliana,d,NA,NA,NA,NA,sdf,NA,0,NA,NA,NA,NA,NA,NA,NA,NA,NA,NA,NA,NA,NA,NA,NA,NA,NA,NA,NA
76d8c,Deep Question,html.Page,3_0_0_0_3_0_0,NA,NA,form submission,5449.3000001907,288815.10000014,288813.4,288830,294279.30000019,294279.5,2024-03-04T16:42:07Z,294292.9,NULL,Schlange,foleni,d,NA,NA,NA,skahra,NA,NA,0,NA,NA,NA,NA,NA,NA,NA,NA,NA,NA,NA,NA,NA,NA,NA,NA,NA,NA,NA
76d8c,"""Richtig""-Screen",canvas.Screen,3_0_0_0_3_0_1,NA,NA,skipped,NA,294282.70000005,NA,NA,294279.30000019,294282.9000001,2024-03-04T16:42:07Z,294292.9,NULL,Schlange,foleni,d,NA,NA,NA,NA,sdf,NA,0,NA,NA,NA,NA,NA,NA,NA,NA,NA,NA,NA,NA,NA,NA,NA,NA,NA,NA,NA
76d8c,"""Falsch""-Screen",canvas.Screen,3_0_0_0_3_0_2,NA,NA,timeout,4997.4,294283.60000014,294277.206,294292.9,299273.5,299274.60000014,2024-03-04T16:42:12Z,299290.3,NULL,Schlange,foleni,d,NA,NA,NA,NA,sdf,0,0,NA,NA,NA,NA,NA,NA,NA,NA,NA,NA,NA,NA,NA,NA,NA,NA,NA,NA,NA
76d8c,deep,flow.Sequence,3_0_0_0_3_0,NA,NA,completion,10443.5,288815,288813.4,288830,299273.5,299275,2024-03-04T16:42:12Z,299290.3,NULL,Schlange,foleni,d,NA,NA,NA,NA,sdf,NA,0,NA,NA,NA,NA,NA,NA,NA,NA,NA,NA,NA,NA,NA,NA,NA,NA,NA,NA,NA
76d8c,shallow,flow.Sequence,3_0_0_0_3_1,NA,NA,skipped,NA,299275.20000005,NA,NA,299273.5,299275.30000019,2024-03-04T16:42:12Z,299290.3,NULL,Schlange,foleni,d,NA,NA,NA,NA,sdf,NA,0,NA,NA,NA,NA,NA,NA,NA,NA,NA,NA,NA,NA,NA,NA,NA,NA,NA,NA,NA
76d8c,task,flow.Sequence,3_0_0_0_3,NA,NA,completion,10443.5,288815,288813.4,288830,299273.5,299275.5,2024-03-04T16:42:12Z,299290.3,NULL,Schlange,foleni,d,NA,NA,NA,NA,sdf,NA,0,NA,NA,NA,NA,NA,NA,NA,NA,NA,NA,NA,NA,NA,NA,NA,NA,NA,NA,NA
76d8c,deep,flow.Sequence,3_0_0_0_4_0,NA,NA,skipped,NA,299275.70000005,NA,NA,299273.5,299275.80000019,2024-03-04T16:42:12Z,299290.3,NULL,Inhalt,yaliyomo,s,kishawishi,hifadhi,kutembea,NA,sdf,NA,0,NA,NA,NA,NA,NA,NA,NA,NA,NA,NA,NA,NA,NA,NA,NA,NA,NA,NA,NA
76d8c,Shallow Question,html.Page,3_0_0_0_4_1_0,NA,NA,form submission,7052.3000001431,299275.9000001,299273.5,299290.3,306342.60000014,306342.80000019,2024-03-04T16:42:19Z,306352.2,NULL,Inhalt,yaliyomo,s,kishawishi,hifadhi,kutembea,yaliyomo,NA,NA,0,NA,NA,NA,NA,NA,NA,NA,NA,NA,NA,NA,NA,NA,NA,NA,NA,NA,NA,NA
76d8c,"""Richtig""-Screen",canvas.Screen,3_0_0_0_4_1_1,NA,NA,timeout,4997.5,306346,306337.328,306352.2,311332.9,311333.70000005,2024-03-04T16:42:24Z,311349.7,NULL,Inhalt,yaliyomo,s,kishawishi,hifadhi,kutembea,NA,sdf,1,0,NA,NA,NA,NA,NA,NA,NA,NA,NA,NA,NA,NA,NA,NA,NA,NA,NA,NA,NA
76d8c,"""Falsch""-Screen",canvas.Screen,3_0_0_0_4_1_2,NA,NA,skipped,NA,311338.70000005,NA,NA,311332.9,311338.80000019,2024-03-04T16:42:24Z,311349.7,NULL,Inhalt,yaliyomo,s,kishawishi,hifadhi,kutembea,NA,sdf,NA,0,NA,NA,NA,NA,NA,NA,NA,NA,NA,NA,NA,NA,NA,NA,NA,NA,NA,NA,NA
76d8c,shallow,flow.Sequence,3_0_0_0_4_1,NA,NA,completion,12042.6,299275.9000001,299273.5,299290.3,311332.9,311338.9000001,2024-03-04T16:42:24Z,311349.7,NULL,Inhalt,yaliyomo,s,kishawishi,hifadhi,kutembea,NA,sdf,NA,0,NA,NA,NA,NA,NA,NA,NA,NA,NA,NA,NA,NA,NA,NA,NA,NA,NA,NA,NA
76d8c,task,flow.Sequence,3_0_0_0_4,NA,NA,completion,12042.6,299275.70000005,299273.5,299290.3,311332.9,311338.9000001,2024-03-04T16:42:24Z,311349.7,NULL,Inhalt,yaliyomo,s,kishawishi,hifadhi,kutembea,NA,sdf,NA,0,NA,NA,NA,NA,NA,NA,NA,NA,NA,NA,NA,NA,NA,NA,NA,NA,NA,NA,NA
76d8c,deep,flow.Sequence,3_0_0_0_5_0,NA,NA,skipped,NA,311339,NA,NA,311332.9,311339.10000014,2024-03-04T16:42:24Z,311349.7,NULL,Beweis,ushahidi,s,marudio,kizuizi,mtendaji,NA,sdf,NA,0,NA,NA,NA,NA,NA,NA,NA,NA,NA,NA,NA,NA,NA,NA,NA,NA,NA,NA,NA
76d8c,Shallow Question,html.Page,3_0_0_0_5_1_0,NA,NA,form submission,6418.5000000477,311339.10000014,311332.9,311349.7,317768.20000005,317768.4000001,2024-03-04T16:42:30Z,317778.7,NULL,Beweis,ushahidi,s,marudio,kizuizi,mtendaji,ushahidi,NA,NA,0,NA,NA,NA,NA,NA,NA,NA,NA,NA,NA,NA,NA,NA,NA,NA,NA,NA,NA,NA
76d8c,"""Richtig""-Screen",canvas.Screen,3_0_0_0_5_1_1,NA,NA,timeout,4997.2,317771.4000001,317763.99,317778.7,322758.9,322759.70000005,2024-03-04T16:42:35Z,322775.9,NULL,Beweis,ushahidi,s,marudio,kizuizi,mtendaji,NA,sdf,1,0,NA,NA,NA,NA,NA,NA,NA,NA,NA,NA,NA,NA,NA,NA,NA,NA,NA,NA,NA
76d8c,"""Falsch""-Screen",canvas.Screen,3_0_0_0_5_1_2,NA,NA,skipped,NA,322764.70000005,NA,NA,322758.9,322764.9000001,2024-03-04T16:42:35Z,322775.9,NULL,Beweis,ushahidi,s,marudio,kizuizi,mtendaji,NA,sdf,NA,0,NA,NA,NA,NA,NA,NA,NA,NA,NA,NA,NA,NA,NA,NA,NA,NA,NA,NA,NA
76d8c,shallow,flow.Sequence,3_0_0_0_5_1,NA,NA,completion,11409.2,311339.10000014,311332.9,311349.7,322758.9,322765,2024-03-04T16:42:35Z,322775.9,NULL,Beweis,ushahidi,s,marudio,kizuizi,mtendaji,NA,sdf,NA,0,NA,NA,NA,NA,NA,NA,NA,NA,NA,NA,NA,NA,NA,NA,NA,NA,NA,NA,NA
76d8c,task,flow.Sequence,3_0_0_0_5,NA,NA,completion,11409.2,311338.9000001,311332.9,311349.7,322758.9,322765,2024-03-04T16:42:35Z,322775.9,NULL,Beweis,ushahidi,s,marudio,kizuizi,mtendaji,NA,sdf,NA,0,NA,NA,NA,NA,NA,NA,NA,NA,NA,NA,NA,NA,NA,NA,NA,NA,NA,NA,NA
76d8c,Deep Question,html.Page,3_0_0_0_6_0_0,NA,NA,form submission,5050.200000143,322765.10000014,322758.9,322775.9,327826.10000014,327826.20000005,2024-03-04T16:42:40Z,327839.3,NULL,Annäherung,maegesho,d,NA,NA,NA,mkobha,NA,NA,0,NA,NA,NA,NA,NA,NA,NA,NA,NA,NA,NA,NA,NA,NA,NA,NA,NA,NA,NA
76d8c,"""Richtig""-Screen",canvas.Screen,3_0_0_0_6_0_1,NA,NA,skipped,NA,327827.5,NA,NA,327826.10000014,327827.5,2024-03-04T16:42:40Z,327839.3,NULL,Annäherung,maegesho,d,NA,NA,NA,NA,sdf,NA,0,NA,NA,NA,NA,NA,NA,NA,NA,NA,NA,NA,NA,NA,NA,NA,NA,NA,NA,NA
76d8c,"""Falsch""-Screen",canvas.Screen,3_0_0_0_6_0_2,NA,NA,timeout,4997,327828,327824.994,327839.3,332819.8,332820.60000014,2024-03-04T16:42:45Z,332836.3,NULL,Annäherung,maegesho,d,NA,NA,NA,NA,sdf,0,0,NA,NA,NA,NA,NA,NA,NA,NA,NA,NA,NA,NA,NA,NA,NA,NA,NA,NA,NA
76d8c,deep,flow.Sequence,3_0_0_0_6_0,NA,NA,completion,10043.9,322765.10000014,322758.9,322775.9,332819.8,332821,2024-03-04T16:42:45Z,332836.3,NULL,Annäherung,maegesho,d,NA,NA,NA,NA,sdf,NA,0,NA,NA,NA,NA,NA,NA,NA,NA,NA,NA,NA,NA,NA,NA,NA,NA,NA,NA,NA
76d8c,shallow,flow.Sequence,3_0_0_0_6_1,NA,NA,skipped,NA,332821.10000014,NA,NA,332819.8,332821.30000019,2024-03-04T16:42:45Z,332836.3,NULL,Annäherung,maegesho,d,NA,NA,NA,NA,sdf,NA,0,NA,NA,NA,NA,NA,NA,NA,NA,NA,NA,NA,NA,NA,NA,NA,NA,NA,NA,NA
76d8c,task,flow.Sequence,3_0_0_0_6,NA,NA,completion,10043.9,322765.10000014,322758.9,322775.9,332819.8,332821.5,2024-03-04T16:42:45Z,332836.3,NULL,Annäherung,maegesho,d,NA,NA,NA,NA,sdf,NA,0,NA,NA,NA,NA,NA,NA,NA,NA,NA,NA,NA,NA,NA,NA,NA,NA,NA,NA,NA
76d8c,deep,flow.Sequence,3_0_0_0_7_0,NA,NA,skipped,NA,332821.70000005,NA,NA,332819.8,332821.70000005,2024-03-04T16:42:45Z,332836.3,NULL,Vermutung,udhanifu,s,haramia,tikisho,itifaki,NA,sdf,NA,0,NA,NA,NA,NA,NA,NA,NA,NA,NA,NA,NA,NA,NA,NA,NA,NA,NA,NA,NA
76d8c,Shallow Question,html.Page,3_0_0_0_7_1_0,NA,NA,form submission,10835.100000095,332821.80000019,332819.8,332836.3,343671.4000001,343671.60000014,2024-03-04T16:42:56Z,343679.3,NULL,Vermutung,udhanifu,s,haramia,tikisho,itifaki,haramia,NA,NA,0,NA,NA,NA,NA,NA,NA,NA,NA,NA,NA,NA,NA,NA,NA,NA,NA,NA,NA,NA
76d8c,"""Richtig""-Screen",canvas.Screen,3_0_0_0_7_1_1,NA,NA,skipped,NA,343674.70000005,NA,NA,343671.4000001,343674.80000019,2024-03-04T16:42:56Z,343679.3,NULL,Vermutung,udhanifu,s,haramia,tikisho,itifaki,NA,sdf,NA,0,NA,NA,NA,NA,NA,NA,NA,NA,NA,NA,NA,NA,NA,NA,NA,NA,NA,NA,NA
76d8c,"""Falsch""-Screen",canvas.Screen,3_0_0_0_7_1_2,NA,NA,timeout,4997.6,343675.20000005,343663.45,343679.3,348659.7,348660.5,2024-03-04T16:43:01Z,348676.9,NULL,Vermutung,udhanifu,s,haramia,tikisho,itifaki,NA,sdf,0,0,NA,NA,NA,NA,NA,NA,NA,NA,NA,NA,NA,NA,NA,NA,NA,NA,NA,NA,NA
76d8c,shallow,flow.Sequence,3_0_0_0_7_1,NA,NA,completion,15823.4,332821.80000019,332819.8,332836.3,348659.7,348661,2024-03-04T16:43:01Z,348676.9,NULL,Vermutung,udhanifu,s,haramia,tikisho,itifaki,NA,sdf,NA,0,NA,NA,NA,NA,NA,NA,NA,NA,NA,NA,NA,NA,NA,NA,NA,NA,NA,NA,NA
76d8c,task,flow.Sequence,3_0_0_0_7,NA,NA,completion,15823.4,332821.60000014,332819.8,332836.3,348659.7,348661.20000005,2024-03-04T16:43:01Z,348676.9,NULL,Vermutung,udhanifu,s,haramia,tikisho,itifaki,NA,sdf,NA,0,NA,NA,NA,NA,NA,NA,NA,NA,NA,NA,NA,NA,NA,NA,NA,NA,NA,NA,NA
76d8c,block,flow.Loop,3_0_0_0,NA,NA,completion,94225.7,254430.60000014,254423.288,254434,348659.7,348661.4000001,2024-03-04T16:43:01Z,348676.9,NULL,NA,NA,NA,NA,NA,NA,NA,sdf,NA,0,NA,NA,NA,NA,NA,NA,NA,NA,NA,NA,NA,NA,NA,NA,NA,NA,NA,NA,NA
76d8c,weiter,canvas.Screen,3_0_0_1,sdf,keypress(Space),response,1929.200000143,348661.60000014,348659.7,348676.9,350606.10000014,350606.9000001,2024-03-04T16:43:03Z,350643.488,NULL,NA,NA,NA,NA,NA,NA,NA,sdf,NA,0,NA,NA,NA,NA,NA,NA,NA,NA,NA,NA,NA,NA,NA,NA,NA,NA,NA,NA,NA
76d8c,check continue,flow.Sequence,3_0_0,NA,NA,completion,96172.100000143,254430.60000014,254423.288,254434,350606.10000014,350607.20000005,2024-03-04T16:43:03Z,350643.488,NULL,NA,NA,NA,NA,NA,NA,NA,sdf,NA,0,NA,NA,NA,NA,NA,NA,NA,NA,NA,NA,NA,NA,NA,NA,NA,NA,NA,NA,NA
76d8c,deep,flow.Sequence,3_0_1_0_0_0,NA,NA,skipped,NA,350643.80000019,NA,NA,350606.10000014,350644,2024-03-04T16:43:03Z,350643.488,NULL,Vermutung,udhanifu,s,haramia,tikisho,itifaki,NA,sdfdsf,NA,1,NA,NA,NA,NA,NA,NA,NA,NA,NA,NA,NA,NA,NA,NA,NA,NA,NA,NA,NA
76d8c,Shallow Question,html.Page,3_0_1_0_0_1_0,NA,NA,form submission,7699.2120000477,350644,350643.488,350643.488,358342.70000005,358342.9000001,2024-03-04T16:43:11Z,358353.8,NULL,Vermutung,udhanifu,s,haramia,tikisho,itifaki,tikisho,NA,NA,1,NA,NA,NA,NA,NA,NA,NA,NA,NA,NA,NA,NA,NA,NA,NA,NA,NA,NA,NA
76d8c,"""Richtig""-Screen",canvas.Screen,3_0_1_0_0_1_1,NA,NA,skipped,NA,358346,NA,NA,358342.70000005,358346.10000014,2024-03-04T16:43:11Z,358353.8,NULL,Vermutung,udhanifu,s,haramia,tikisho,itifaki,NA,sdfdsf,NA,1,NA,NA,NA,NA,NA,NA,NA,NA,NA,NA,NA,NA,NA,NA,NA,NA,NA,NA,NA
76d8c,"""Falsch""-Screen",canvas.Screen,3_0_1_0_0_1_2,NA,NA,timeout,4996.9,358347,358338.558,358353.8,363334.1,363334.70000005,2024-03-04T16:43:16Z,363350.7,NULL,Vermutung,udhanifu,s,haramia,tikisho,itifaki,NA,sdfdsf,0,1,NA,NA,NA,NA,NA,NA,NA,NA,NA,NA,NA,NA,NA,NA,NA,NA,NA,NA,NA
76d8c,shallow,flow.Sequence,3_0_1_0_0_1,NA,NA,completion,12690.612,350644,350643.488,350643.488,363334.1,363334.80000019,2024-03-04T16:43:16Z,363350.7,NULL,Vermutung,udhanifu,s,haramia,tikisho,itifaki,NA,sdfdsf,NA,1,NA,NA,NA,NA,NA,NA,NA,NA,NA,NA,NA,NA,NA,NA,NA,NA,NA,NA,NA
76d8c,task,flow.Sequence,3_0_1_0_0,NA,NA,completion,12690.612,350643.80000019,350643.488,350643.488,363334.1,363335.10000014,2024-03-04T16:43:16Z,363350.7,NULL,Vermutung,udhanifu,s,haramia,tikisho,itifaki,NA,sdfdsf,NA,1,NA,NA,NA,NA,NA,NA,NA,NA,NA,NA,NA,NA,NA,NA,NA,NA,NA,NA,NA
76d8c,deep,flow.Sequence,3_0_1_0_1_0,NA,NA,skipped,NA,363335.10000014,NA,NA,363334.1,363335.30000019,2024-03-04T16:43:16Z,363350.7,NULL,Inhalt,yaliyomo,s,kishawishi,hifadhi,kutembea,NA,sdfdsf,NA,1,NA,NA,NA,NA,NA,NA,NA,NA,NA,NA,NA,NA,NA,NA,NA,NA,NA,NA,NA
76d8c,Shallow Question,html.Page,3_0_1_0_1_1_0,NA,NA,form submission,4579.5000000477,363335.30000019,363334.1,363350.7,367930.20000005,367930.5,2024-03-04T16:43:20Z,367932.722,NULL,Inhalt,yaliyomo,s,kishawishi,hifadhi,kutembea,yaliyomo,NA,NA,1,NA,NA,NA,NA,NA,NA,NA,NA,NA,NA,NA,NA,NA,NA,NA,NA,NA,NA,NA
76d8c,"""Richtig""-Screen",canvas.Screen,3_0_1_0_1_1_1,NA,NA,timeout,4995.778,367933.60000014,367932.722,367932.722,372911.8,372912.70000005,2024-03-04T16:43:25Z,372928.5,NULL,Inhalt,yaliyomo,s,kishawishi,hifadhi,kutembea,NA,sdfdsf,1,1,NA,NA,NA,NA,NA,NA,NA,NA,NA,NA,NA,NA,NA,NA,NA,NA,NA,NA,NA
76d8c,"""Falsch""-Screen",canvas.Screen,3_0_1_0_1_1_2,NA,NA,skipped,NA,372917.5,NA,NA,372911.8,372917.60000014,2024-03-04T16:43:25Z,372928.5,NULL,Inhalt,yaliyomo,s,kishawishi,hifadhi,kutembea,NA,sdfdsf,NA,1,NA,NA,NA,NA,NA,NA,NA,NA,NA,NA,NA,NA,NA,NA,NA,NA,NA,NA,NA
76d8c,shallow,flow.Sequence,3_0_1_0_1_1,NA,NA,completion,9561.1,363335.30000019,363334.1,363350.7,372911.8,372917.70000005,2024-03-04T16:43:25Z,372928.5,NULL,Inhalt,yaliyomo,s,kishawishi,hifadhi,kutembea,NA,sdfdsf,NA,1,NA,NA,NA,NA,NA,NA,NA,NA,NA,NA,NA,NA,NA,NA,NA,NA,NA,NA,NA
76d8c,task,flow.Sequence,3_0_1_0_1,NA,NA,completion,9561.1,363335.10000014,363334.1,363350.7,372911.8,372917.80000019,2024-03-04T16:43:25Z,372928.5,NULL,Inhalt,yaliyomo,s,kishawishi,hifadhi,kutembea,NA,sdfdsf,NA,1,NA,NA,NA,NA,NA,NA,NA,NA,NA,NA,NA,NA,NA,NA,NA,NA,NA,NA,NA
76d8c,Deep Question,html.Page,3_0_1_0_2_0_0,NA,NA,form submission,7228.2000000477,372917.80000019,372911.8,372928.5,380156.70000005,380156.9000001,2024-03-04T16:43:33Z,380174.4,NULL,Toleranz,kuvumiliana,d,NA,NA,NA,mgehkano,NA,NA,1,NA,NA,NA,NA,NA,NA,NA,NA,NA,NA,NA,NA,NA,NA,NA,NA,NA,NA,NA
76d8c,"""Richtig""-Screen",canvas.Screen,3_0_1_0_2_0_1,NA,NA,skipped,NA,380159.9000001,NA,NA,380156.70000005,380160,2024-03-04T16:43:33Z,380174.4,NULL,Toleranz,kuvumiliana,d,NA,NA,NA,NA,sdfdsf,NA,1,NA,NA,NA,NA,NA,NA,NA,NA,NA,NA,NA,NA,NA,NA,NA,NA,NA,NA,NA
76d8c,"""Falsch""-Screen",canvas.Screen,3_0_1_0_2_0_2,NA,NA,timeout,4996.3,380160.70000005,380162.254,380174.4,385154.4,385155.20000005,2024-03-04T16:43:38Z,385170.7,NULL,Toleranz,kuvumiliana,d,NA,NA,NA,NA,sdfdsf,0,1,NA,NA,NA,NA,NA,NA,NA,NA,NA,NA,NA,NA,NA,NA,NA,NA,NA,NA,NA
76d8c,deep,flow.Sequence,3_0_1_0_2_0,NA,NA,completion,12225.9,372917.80000019,372911.8,372928.5,385154.4,385155.5,2024-03-04T16:43:38Z,385170.7,NULL,Toleranz,kuvumiliana,d,NA,NA,NA,NA,sdfdsf,NA,1,NA,NA,NA,NA,NA,NA,NA,NA,NA,NA,NA,NA,NA,NA,NA,NA,NA,NA,NA
76d8c,shallow,flow.Sequence,3_0_1_0_2_1,NA,NA,skipped,NA,385155.70000005,NA,NA,385154.4,385155.80000019,2024-03-04T16:43:38Z,385170.7,NULL,Toleranz,kuvumiliana,d,NA,NA,NA,NA,sdfdsf,NA,1,NA,NA,NA,NA,NA,NA,NA,NA,NA,NA,NA,NA,NA,NA,NA,NA,NA,NA,NA
76d8c,task,flow.Sequence,3_0_1_0_2,NA,NA,completion,12225.9,372917.80000019,372911.8,372928.5,385154.4,385156,2024-03-04T16:43:38Z,385170.7,NULL,Toleranz,kuvumiliana,d,NA,NA,NA,NA,sdfdsf,NA,1,NA,NA,NA,NA,NA,NA,NA,NA,NA,NA,NA,NA,NA,NA,NA,NA,NA,NA,NA
76d8c,Deep Question,html.Page,3_0_1_0_3_0_0,NA,NA,form submission,6513.8,385156.20000005,385154.4,385170.7,391684.5,391684.70000005,2024-03-04T16:43:44Z,391700.4,NULL,Annäherung,maegesho,d,NA,NA,NA,mhgeno,NA,NA,1,NA,NA,NA,NA,NA,NA,NA,NA,NA,NA,NA,NA,NA,NA,NA,NA,NA,NA,NA
76d8c,"""Richtig""-Screen",canvas.Screen,3_0_1_0_3_0_1,NA,NA,skipped,NA,391687.9000001,NA,NA,391684.5,391688.10000014,2024-03-04T16:43:44Z,391700.4,NULL,Annäherung,maegesho,d,NA,NA,NA,NA,sdfdsf,NA,1,NA,NA,NA,NA,NA,NA,NA,NA,NA,NA,NA,NA,NA,NA,NA,NA,NA,NA,NA
76d8c,"""Falsch""-Screen",canvas.Screen,3_0_1_0_3_0_2,NA,NA,timeout,4996.7,391688.9000001,391684.894,391700.4,396680.6,396680.9000001,2024-03-04T16:43:49Z,396697.1,NULL,Annäherung,maegesho,d,NA,NA,NA,NA,sdfdsf,0,1,NA,NA,NA,NA,NA,NA,NA,NA,NA,NA,NA,NA,NA,NA,NA,NA,NA,NA,NA
76d8c,deep,flow.Sequence,3_0_1_0_3_0,NA,NA,completion,11509.9,385156.20000005,385154.4,385170.7,396680.6,396681.10000014,2024-03-04T16:43:49Z,396697.1,NULL,Annäherung,maegesho,d,NA,NA,NA,NA,sdfdsf,NA,1,NA,NA,NA,NA,NA,NA,NA,NA,NA,NA,NA,NA,NA,NA,NA,NA,NA,NA,NA
76d8c,shallow,flow.Sequence,3_0_1_0_3_1,NA,NA,skipped,NA,396681.10000014,NA,NA,396680.6,396681.10000014,2024-03-04T16:43:49Z,396697.1,NULL,Annäherung,maegesho,d,NA,NA,NA,NA,sdfdsf,NA,1,NA,NA,NA,NA,NA,NA,NA,NA,NA,NA,NA,NA,NA,NA,NA,NA,NA,NA,NA
76d8c,task,flow.Sequence,3_0_1_0_3,NA,NA,completion,11509.9,385156.20000005,385154.4,385170.7,396680.6,396681.30000019,2024-03-04T16:43:49Z,396697.1,NULL,Annäherung,maegesho,d,NA,NA,NA,NA,sdfdsf,NA,1,NA,NA,NA,NA,NA,NA,NA,NA,NA,NA,NA,NA,NA,NA,NA,NA,NA,NA,NA
76d8c,Deep Question,html.Page,3_0_1_0_4_0_0,NA,NA,form submission,9032.2000001908,396681.30000019,396680.6,396697.1,405729.30000019,405729.60000014,2024-03-04T16:43:58Z,405741.5,NULL,Schlange,foleni,d,NA,NA,NA,tulini,NA,NA,1,NA,NA,NA,NA,NA,NA,NA,NA,NA,NA,NA,NA,NA,NA,NA,NA,NA,NA,NA
76d8c,"""Richtig""-Screen",canvas.Screen,3_0_1_0_4_0_1,NA,NA,skipped,NA,405732.70000005,NA,NA,405729.30000019,405732.80000019,2024-03-04T16:43:58Z,405741.5,NULL,Schlange,foleni,d,NA,NA,NA,NA,sdfdsf,NA,1,NA,NA,NA,NA,NA,NA,NA,NA,NA,NA,NA,NA,NA,NA,NA,NA,NA,NA,NA
76d8c,"""Falsch""-Screen",canvas.Screen,3_0_1_0_4_0_2,NA,NA,timeout,4997.2,405733.60000014,405727.728,405741.5,410721.9,410722.70000005,2024-03-04T16:44:03Z,410738.7,NULL,Schlange,foleni,d,NA,NA,NA,NA,sdfdsf,0,1,NA,NA,NA,NA,NA,NA,NA,NA,NA,NA,NA,NA,NA,NA,NA,NA,NA,NA,NA
76d8c,deep,flow.Sequence,3_0_1_0_4_0,NA,NA,completion,14024.8,396681.30000019,396680.6,396697.1,410721.9,410723.20000005,2024-03-04T16:44:03Z,410738.7,NULL,Schlange,foleni,d,NA,NA,NA,NA,sdfdsf,NA,1,NA,NA,NA,NA,NA,NA,NA,NA,NA,NA,NA,NA,NA,NA,NA,NA,NA,NA,NA
76d8c,shallow,flow.Sequence,3_0_1_0_4_1,NA,NA,skipped,NA,410723.30000019,NA,NA,410721.9,410723.5,2024-03-04T16:44:03Z,410738.7,NULL,Schlange,foleni,d,NA,NA,NA,NA,sdfdsf,NA,1,NA,NA,NA,NA,NA,NA,NA,NA,NA,NA,NA,NA,NA,NA,NA,NA,NA,NA,NA
76d8c,task,flow.Sequence,3_0_1_0_4,NA,NA,completion,14024.8,396681.30000019,396680.6,396697.1,410721.9,410723.70000005,2024-03-04T16:44:03Z,410738.7,NULL,Schlange,foleni,d,NA,NA,NA,NA,sdfdsf,NA,1,NA,NA,NA,NA,NA,NA,NA,NA,NA,NA,NA,NA,NA,NA,NA,NA,NA,NA,NA
76d8c,deep,flow.Sequence,3_0_1_0_5_0,NA,NA,skipped,NA,410723.80000019,NA,NA,410721.9,410723.9000001,2024-03-04T16:44:03Z,410738.7,NULL,Beweis,ushahidi,s,marudio,kizuizi,mtendaji,NA,sdfdsf,NA,1,NA,NA,NA,NA,NA,NA,NA,NA,NA,NA,NA,NA,NA,NA,NA,NA,NA,NA,NA
76d8c,Shallow Question,html.Page,3_0_1_0_5_1_0,NA,NA,form submission,8175.5000000477,410724,410721.9,410738.7,418914.20000005,418914.4000001,2024-03-04T16:44:11Z,418917.966,NULL,Beweis,ushahidi,s,marudio,kizuizi,mtendaji,ushahidi,NA,NA,1,NA,NA,NA,NA,NA,NA,NA,NA,NA,NA,NA,NA,NA,NA,NA,NA,NA,NA,NA
76d8c,"""Richtig""-Screen",canvas.Screen,3_0_1_0_5_1_1,NA,NA,timeout,4996.034,418917.5,418917.966,418917.966,423897.4,423899.9000001,2024-03-04T16:44:16Z,423914,NULL,Beweis,ushahidi,s,marudio,kizuizi,mtendaji,NA,sdfdsf,1,1,NA,NA,NA,NA,NA,NA,NA,NA,NA,NA,NA,NA,NA,NA,NA,NA,NA,NA,NA
76d8c,"""Falsch""-Screen",canvas.Screen,3_0_1_0_5_1_2,NA,NA,skipped,NA,423903.9000001,NA,NA,423897.4,423904,2024-03-04T16:44:16Z,423914,NULL,Beweis,ushahidi,s,marudio,kizuizi,mtendaji,NA,sdfdsf,NA,1,NA,NA,NA,NA,NA,NA,NA,NA,NA,NA,NA,NA,NA,NA,NA,NA,NA,NA,NA
76d8c,shallow,flow.Sequence,3_0_1_0_5_1,NA,NA,completion,13158.7,410724,410721.9,410738.7,423897.4,423904.20000005,2024-03-04T16:44:16Z,423914,NULL,Beweis,ushahidi,s,marudio,kizuizi,mtendaji,NA,sdfdsf,NA,1,NA,NA,NA,NA,NA,NA,NA,NA,NA,NA,NA,NA,NA,NA,NA,NA,NA,NA,NA
76d8c,task,flow.Sequence,3_0_1_0_5,NA,NA,completion,13158.7,410723.70000005,410721.9,410738.7,423897.4,423904.20000005,2024-03-04T16:44:16Z,423914,NULL,Beweis,ushahidi,s,marudio,kizuizi,mtendaji,NA,sdfdsf,NA,1,NA,NA,NA,NA,NA,NA,NA,NA,NA,NA,NA,NA,NA,NA,NA,NA,NA,NA,NA
76d8c,Deep Question,html.Page,3_0_1_0_6_0_0,NA,NA,form submission,4641.1000001431,423904.30000019,423897.4,423914,428555.10000014,428555.30000019,2024-03-04T16:44:21Z,428577.7,NULL,Sympathie,mapendano,d,NA,NA,NA,alkama,NA,NA,1,NA,NA,NA,NA,NA,NA,NA,NA,NA,NA,NA,NA,NA,NA,NA,NA,NA,NA,NA
76d8c,"""Richtig""-Screen",canvas.Screen,3_0_1_0_6_0_1,NA,NA,skipped,NA,428558.10000014,NA,NA,428555.10000014,428558.30000019,2024-03-04T16:44:21Z,428577.7,NULL,Sympathie,mapendano,d,NA,NA,NA,NA,sdfdsf,NA,1,NA,NA,NA,NA,NA,NA,NA,NA,NA,NA,NA,NA,NA,NA,NA,NA,NA,NA,NA
76d8c,"""Falsch""-Screen",canvas.Screen,3_0_1_0_6_0_2,NA,NA,timeout,4997.2,428559,428561.832,428577.7,433558.1,433559,2024-03-04T16:44:26Z,433574.9,NULL,Sympathie,mapendano,d,NA,NA,NA,NA,sdfdsf,0,1,NA,NA,NA,NA,NA,NA,NA,NA,NA,NA,NA,NA,NA,NA,NA,NA,NA,NA,NA
76d8c,deep,flow.Sequence,3_0_1_0_6_0,NA,NA,completion,9644.1,423904.30000019,423897.4,423914,433558.1,433559.4000001,2024-03-04T16:44:26Z,433574.9,NULL,Sympathie,mapendano,d,NA,NA,NA,NA,sdfdsf,NA,1,NA,NA,NA,NA,NA,NA,NA,NA,NA,NA,NA,NA,NA,NA,NA,NA,NA,NA,NA
76d8c,shallow,flow.Sequence,3_0_1_0_6_1,NA,NA,skipped,NA,433559.70000005,NA,NA,433558.1,433559.70000005,2024-03-04T16:44:26Z,433574.9,NULL,Sympathie,mapendano,d,NA,NA,NA,NA,sdfdsf,NA,1,NA,NA,NA,NA,NA,NA,NA,NA,NA,NA,NA,NA,NA,NA,NA,NA,NA,NA,NA
76d8c,task,flow.Sequence,3_0_1_0_6,NA,NA,completion,9644.1,423904.30000019,423897.4,423914,433558.1,433560,2024-03-04T16:44:26Z,433574.9,NULL,Sympathie,mapendano,d,NA,NA,NA,NA,sdfdsf,NA,1,NA,NA,NA,NA,NA,NA,NA,NA,NA,NA,NA,NA,NA,NA,NA,NA,NA,NA,NA
76d8c,deep,flow.Sequence,3_0_1_0_7_0,NA,NA,skipped,NA,433560.10000014,NA,NA,433558.1,433560.20000005,2024-03-04T16:44:26Z,433574.9,NULL,Polizist,msongora,s,simanzi,mandhari,nidhamu,NA,sdfdsf,NA,1,NA,NA,NA,NA,NA,NA,NA,NA,NA,NA,NA,NA,NA,NA,NA,NA,NA,NA,NA
76d8c,Shallow Question,html.Page,3_0_1_0_7_1_0,NA,NA,form submission,5679.1,433560.4000001,433558.1,433574.9,439254,439254.30000019,2024-03-04T16:44:32Z,439272.7,NULL,Polizist,msongora,s,simanzi,mandhari,nidhamu,msongora,NA,NA,1,NA,NA,NA,NA,NA,NA,NA,NA,NA,NA,NA,NA,NA,NA,NA,NA,NA,NA,NA
76d8c,"""Richtig""-Screen",canvas.Screen,3_0_1_0_7_1_1,NA,NA,timeout,4995.2,439257.5,439255.91,439272.7,444251.5,444252.20000005,2024-03-04T16:44:37Z,444267.9,NULL,Polizist,msongora,s,simanzi,mandhari,nidhamu,NA,sdfdsf,1,1,NA,NA,NA,NA,NA,NA,NA,NA,NA,NA,NA,NA,NA,NA,NA,NA,NA,NA,NA
76d8c,"""Falsch""-Screen",canvas.Screen,3_0_1_0_7_1_2,NA,NA,skipped,NA,444257.20000005,NA,NA,444251.5,444257.30000019,2024-03-04T16:44:37Z,444267.9,NULL,Polizist,msongora,s,simanzi,mandhari,nidhamu,NA,sdfdsf,NA,1,NA,NA,NA,NA,NA,NA,NA,NA,NA,NA,NA,NA,NA,NA,NA,NA,NA,NA,NA
76d8c,shallow,flow.Sequence,3_0_1_0_7_1,NA,NA,completion,10676.6,433560.30000019,433558.1,433574.9,444251.5,444257.4000001,2024-03-04T16:44:37Z,444267.9,NULL,Polizist,msongora,s,simanzi,mandhari,nidhamu,NA,sdfdsf,NA,1,NA,NA,NA,NA,NA,NA,NA,NA,NA,NA,NA,NA,NA,NA,NA,NA,NA,NA,NA
76d8c,task,flow.Sequence,3_0_1_0_7,NA,NA,completion,10676.6,433560,433558.1,433574.9,444251.5,444257.5,2024-03-04T16:44:37Z,444267.9,NULL,Polizist,msongora,s,simanzi,mandhari,nidhamu,NA,sdfdsf,NA,1,NA,NA,NA,NA,NA,NA,NA,NA,NA,NA,NA,NA,NA,NA,NA,NA,NA,NA,NA
76d8c,block,flow.Loop,3_0_1_0,NA,NA,completion,93608.012,350643.80000019,350643.488,350643.488,444251.5,444257.5,2024-03-04T16:44:37Z,444267.9,NULL,NA,NA,NA,NA,NA,NA,NA,sdfdsf,NA,1,NA,NA,NA,NA,NA,NA,NA,NA,NA,NA,NA,NA,NA,NA,NA,NA,NA,NA,NA
76d8c,weiter,canvas.Screen,3_0_1_1,sdf,keypress(Space),response,1972.9000001907,444257.60000014,444251.5,444267.9,446240.80000019,446241.70000005,2024-03-04T16:44:39Z,446283.4,NULL,NA,NA,NA,NA,NA,NA,NA,sdfdsf,NA,1,NA,NA,NA,NA,NA,NA,NA,NA,NA,NA,NA,NA,NA,NA,NA,NA,NA,NA,NA
76d8c,check continue,flow.Sequence,3_0_1,NA,NA,completion,95597.312000191,350643.70000005,350643.488,350643.488,446240.80000019,446241.9000001,2024-03-04T16:44:39Z,446283.4,NULL,NA,NA,NA,NA,NA,NA,NA,sdfdsf,NA,1,NA,NA,NA,NA,NA,NA,NA,NA,NA,NA,NA,NA,NA,NA,NA,NA,NA,NA,NA
76d8c,Deep Question,html.Page,3_0_2_0_0_0_0,NA,NA,form submission,8192.0000000953,446272.80000019,446267.82,446283.4,454475.4000001,454475.70000005,2024-03-04T16:44:47Z,454480.664,NULL,Annäherung,maegesho,d,NA,NA,NA,kawaahami,NA,NA,2,NA,NA,NA,NA,NA,NA,NA,NA,NA,NA,NA,NA,NA,NA,NA,NA,NA,NA,NA
76d8c,"""Richtig""-Screen",canvas.Screen,3_0_2_0_0_0_1,NA,NA,skipped,NA,454478.9000001,NA,NA,454475.4000001,454479.10000014,2024-03-04T16:44:47Z,454480.664,NULL,Annäherung,maegesho,d,NA,NA,NA,NA,sdf,NA,2,NA,NA,NA,NA,NA,NA,NA,NA,NA,NA,NA,NA,NA,NA,NA,NA,NA,NA,NA
76d8c,"""Falsch""-Screen",canvas.Screen,3_0_2_0_0_0_2,NA,NA,timeout,4995.036,454480.10000014,454480.664,454480.664,459458.9,459459.80000019,2024-03-04T16:44:52Z,459475.7,NULL,Annäherung,maegesho,d,NA,NA,NA,NA,sdf,0,2,NA,NA,NA,NA,NA,NA,NA,NA,NA,NA,NA,NA,NA,NA,NA,NA,NA,NA,NA
76d8c,deep,flow.Sequence,3_0_2_0_0_0,NA,NA,completion,13175.5,446272.80000019,446267.82,446283.4,459458.9,459460.20000005,2024-03-04T16:44:52Z,459475.7,NULL,Annäherung,maegesho,d,NA,NA,NA,NA,sdf,NA,2,NA,NA,NA,NA,NA,NA,NA,NA,NA,NA,NA,NA,NA,NA,NA,NA,NA,NA,NA
76d8c,shallow,flow.Sequence,3_0_2_0_0_1,NA,NA,skipped,NA,459460.4000001,NA,NA,459458.9,459460.5,2024-03-04T16:44:52Z,459475.7,NULL,Annäherung,maegesho,d,NA,NA,NA,NA,sdf,NA,2,NA,NA,NA,NA,NA,NA,NA,NA,NA,NA,NA,NA,NA,NA,NA,NA,NA,NA,NA
76d8c,task,flow.Sequence,3_0_2_0_0,NA,NA,completion,13175.5,446272.80000019,446267.82,446283.4,459458.9,459460.70000005,2024-03-04T16:44:52Z,459475.7,NULL,Annäherung,maegesho,d,NA,NA,NA,NA,sdf,NA,2,NA,NA,NA,NA,NA,NA,NA,NA,NA,NA,NA,NA,NA,NA,NA,NA,NA,NA,NA
76d8c,Deep Question,html.Page,3_0_2_0_1_0_0,NA,NA,form submission,9352.5000000477,459461,459458.9,459475.7,468828.20000005,468828.4000001,2024-03-04T16:45:01Z,468836.1,NULL,Sympathie,mapendano,d,NA,NA,NA,mungaha,NA,NA,2,NA,NA,NA,NA,NA,NA,NA,NA,NA,NA,NA,NA,NA,NA,NA,NA,NA,NA,NA
76d8c,"""Richtig""-Screen",canvas.Screen,3_0_2_0_1_0_1,NA,NA,skipped,NA,468831.5,NA,NA,468828.20000005,468831.60000014,2024-03-04T16:45:01Z,468836.1,NULL,Sympathie,mapendano,d,NA,NA,NA,NA,sdf,NA,2,NA,NA,NA,NA,NA,NA,NA,NA,NA,NA,NA,NA,NA,NA,NA,NA,NA,NA,NA
76d8c,"""Falsch""-Screen",canvas.Screen,3_0_2_0_1_0_2,NA,NA,timeout,4997.3,468832.30000019,468820.7,468836.1,473816.6,473817.60000014,2024-03-04T16:45:06Z,473833.4,NULL,Sympathie,mapendano,d,NA,NA,NA,NA,sdf,0,2,NA,NA,NA,NA,NA,NA,NA,NA,NA,NA,NA,NA,NA,NA,NA,NA,NA,NA,NA
76d8c,deep,flow.Sequence,3_0_2_0_1_0,NA,NA,completion,14340.9,459460.9000001,459458.9,459475.7,473816.6,473818,2024-03-04T16:45:06Z,473833.4,NULL,Sympathie,mapendano,d,NA,NA,NA,NA,sdf,NA,2,NA,NA,NA,NA,NA,NA,NA,NA,NA,NA,NA,NA,NA,NA,NA,NA,NA,NA,NA
76d8c,shallow,flow.Sequence,3_0_2_0_1_1,NA,NA,skipped,NA,473818,NA,NA,473816.6,473818.30000019,2024-03-04T16:45:06Z,473833.4,NULL,Sympathie,mapendano,d,NA,NA,NA,NA,sdf,NA,2,NA,NA,NA,NA,NA,NA,NA,NA,NA,NA,NA,NA,NA,NA,NA,NA,NA,NA,NA
76d8c,task,flow.Sequence,3_0_2_0_1,NA,NA,completion,14340.9,459460.9000001,459458.9,459475.7,473816.6,473818.4000001,2024-03-04T16:45:06Z,473833.4,NULL,Sympathie,mapendano,d,NA,NA,NA,NA,sdf,NA,2,NA,NA,NA,NA,NA,NA,NA,NA,NA,NA,NA,NA,NA,NA,NA,NA,NA,NA,NA
76d8c,deep,flow.Sequence,3_0_2_0_2_0,NA,NA,skipped,NA,473818.60000014,NA,NA,473816.6,473818.70000005,2024-03-04T16:45:06Z,473833.4,NULL,Polizist,msongora,s,simanzi,mandhari,nidhamu,NA,sdf,NA,2,NA,NA,NA,NA,NA,NA,NA,NA,NA,NA,NA,NA,NA,NA,NA,NA,NA,NA,NA
76d8c,Shallow Question,html.Page,3_0_2_0_2_1_0,NA,NA,form submission,4594.200000143,473818.80000019,473816.6,473833.4,478427.60000014,478427.80000019,2024-03-04T16:45:11Z,478431.702,NULL,Polizist,msongora,s,simanzi,mandhari,nidhamu,msongora,NA,NA,2,NA,NA,NA,NA,NA,NA,NA,NA,NA,NA,NA,NA,NA,NA,NA,NA,NA,NA,NA
76d8c,"""Richtig""-Screen",canvas.Screen,3_0_2_0_2_1_1,NA,NA,timeout,4995.898,478430.9000001,478431.702,478431.702,483410.5,483411.4000001,2024-03-04T16:45:16Z,483427.6,NULL,Polizist,msongora,s,simanzi,mandhari,nidhamu,NA,sdf,1,2,NA,NA,NA,NA,NA,NA,NA,NA,NA,NA,NA,NA,NA,NA,NA,NA,NA,NA,NA
76d8c,"""Falsch""-Screen",canvas.Screen,3_0_2_0_2_1_2,NA,NA,skipped,NA,483416.70000005,NA,NA,483410.5,483416.80000019,2024-03-04T16:45:16Z,483427.6,NULL,Polizist,msongora,s,simanzi,mandhari,nidhamu,NA,sdf,NA,2,NA,NA,NA,NA,NA,NA,NA,NA,NA,NA,NA,NA,NA,NA,NA,NA,NA,NA,NA
76d8c,shallow,flow.Sequence,3_0_2_0_2_1,NA,NA,completion,9577.1,473818.80000019,473816.6,473833.4,483410.5,483416.9000001,2024-03-04T16:45:16Z,483427.6,NULL,Polizist,msongora,s,simanzi,mandhari,nidhamu,NA,sdf,NA,2,NA,NA,NA,NA,NA,NA,NA,NA,NA,NA,NA,NA,NA,NA,NA,NA,NA,NA,NA
76d8c,task,flow.Sequence,3_0_2_0_2,NA,NA,completion,9577.1,473818.60000014,473816.6,473833.4,483410.5,483417,2024-03-04T16:45:16Z,483427.6,NULL,Polizist,msongora,s,simanzi,mandhari,nidhamu,NA,sdf,NA,2,NA,NA,NA,NA,NA,NA,NA,NA,NA,NA,NA,NA,NA,NA,NA,NA,NA,NA,NA
76d8c,Deep Question,html.Page,3_0_2_0_3_0_0,NA,NA,form submission,6092.7000001908,483417,483410.5,483427.6,489520.30000019,489520.5,2024-03-04T16:45:22Z,489573.4,NULL,Schlange,foleni,d,NA,NA,NA,foleni,NA,NA,2,NA,NA,NA,NA,NA,NA,NA,NA,NA,NA,NA,NA,NA,NA,NA,NA,NA,NA,NA
76d8c,"""Richtig""-Screen",canvas.Screen,3_0_2_0_3_0_1,NA,NA,timeout,4997.3,489521.9000001,489516.148,489573.4,494554.1,494555,2024-03-04T16:45:27Z,494570.7,NULL,Schlange,foleni,d,NA,NA,NA,NA,sdf,1,2,NA,NA,NA,NA,NA,NA,NA,NA,NA,NA,NA,NA,NA,NA,NA,NA,NA,NA,NA
76d8c,"""Falsch""-Screen",canvas.Screen,3_0_2_0_3_0_2,NA,NA,skipped,NA,494560.30000019,NA,NA,494554.1,494560.5,2024-03-04T16:45:27Z,494570.7,NULL,Schlange,foleni,d,NA,NA,NA,NA,sdf,NA,2,NA,NA,NA,NA,NA,NA,NA,NA,NA,NA,NA,NA,NA,NA,NA,NA,NA,NA,NA
76d8c,deep,flow.Sequence,3_0_2_0_3_0,NA,NA,completion,11126.5,483417,483410.5,483427.6,494554.1,494560.5,2024-03-04T16:45:27Z,494570.7,NULL,Schlange,foleni,d,NA,NA,NA,NA,sdf,NA,2,NA,NA,NA,NA,NA,NA,NA,NA,NA,NA,NA,NA,NA,NA,NA,NA,NA,NA,NA
76d8c,shallow,flow.Sequence,3_0_2_0_3_1,NA,NA,skipped,NA,494560.60000014,NA,NA,494554.1,494560.60000014,2024-03-04T16:45:27Z,494570.7,NULL,Schlange,foleni,d,NA,NA,NA,NA,sdf,NA,2,NA,NA,NA,NA,NA,NA,NA,NA,NA,NA,NA,NA,NA,NA,NA,NA,NA,NA,NA
76d8c,task,flow.Sequence,3_0_2_0_3,NA,NA,completion,11126.5,483417,483410.5,483427.6,494554.1,494560.70000005,2024-03-04T16:45:27Z,494570.7,NULL,Schlange,foleni,d,NA,NA,NA,NA,sdf,NA,2,NA,NA,NA,NA,NA,NA,NA,NA,NA,NA,NA,NA,NA,NA,NA,NA,NA,NA,NA
76d8c,deep,flow.Sequence,3_0_2_0_4_0,NA,NA,skipped,NA,494560.70000005,NA,NA,494554.1,494560.70000005,2024-03-04T16:45:27Z,494570.7,NULL,Vermutung,udhanifu,s,haramia,tikisho,itifaki,NA,sdf,NA,2,NA,NA,NA,NA,NA,NA,NA,NA,NA,NA,NA,NA,NA,NA,NA,NA,NA,NA,NA
76d8c,Shallow Question,html.Page,3_0_2_0_4_1_0,NA,NA,form submission,8902.8,494560.80000019,494554.1,494570.7,503473.5,503474.9000001,2024-03-04T16:45:36Z,503481.6,NULL,Vermutung,udhanifu,s,haramia,tikisho,itifaki,udhanifu,NA,NA,2,NA,NA,NA,NA,NA,NA,NA,NA,NA,NA,NA,NA,NA,NA,NA,NA,NA,NA,NA
76d8c,"""Richtig""-Screen",canvas.Screen,3_0_2_0_4_1_1,NA,NA,timeout,4996.9,503477.70000005,503466.12,503481.6,508461.9,508462.70000005,2024-03-04T16:45:41Z,508478.5,NULL,Vermutung,udhanifu,s,haramia,tikisho,itifaki,NA,sdf,1,2,NA,NA,NA,NA,NA,NA,NA,NA,NA,NA,NA,NA,NA,NA,NA,NA,NA,NA,NA
76d8c,"""Falsch""-Screen",canvas.Screen,3_0_2_0_4_1_2,NA,NA,skipped,NA,508466.80000019,NA,NA,508461.9,508466.9000001,2024-03-04T16:45:41Z,508478.5,NULL,Vermutung,udhanifu,s,haramia,tikisho,itifaki,NA,sdf,NA,2,NA,NA,NA,NA,NA,NA,NA,NA,NA,NA,NA,NA,NA,NA,NA,NA,NA,NA,NA
76d8c,shallow,flow.Sequence,3_0_2_0_4_1,NA,NA,completion,13891.2,494560.80000019,494554.1,494570.7,508461.9,508467,2024-03-04T16:45:41Z,508478.5,NULL,Vermutung,udhanifu,s,haramia,tikisho,itifaki,NA,sdf,NA,2,NA,NA,NA,NA,NA,NA,NA,NA,NA,NA,NA,NA,NA,NA,NA,NA,NA,NA,NA
76d8c,task,flow.Sequence,3_0_2_0_4,NA,NA,completion,13891.2,494560.70000005,494554.1,494570.7,508461.9,508467,2024-03-04T16:45:41Z,508478.5,NULL,Vermutung,udhanifu,s,haramia,tikisho,itifaki,NA,sdf,NA,2,NA,NA,NA,NA,NA,NA,NA,NA,NA,NA,NA,NA,NA,NA,NA,NA,NA,NA,NA
76d8c,deep,flow.Sequence,3_0_2_0_5_0,NA,NA,skipped,NA,508467.10000014,NA,NA,508461.9,508467.10000014,2024-03-04T16:45:41Z,508478.5,NULL,Beweis,ushahidi,s,marudio,kizuizi,mtendaji,NA,sdf,NA,2,NA,NA,NA,NA,NA,NA,NA,NA,NA,NA,NA,NA,NA,NA,NA,NA,NA,NA,NA
76d8c,Shallow Question,html.Page,3_0_2_0_5_1_0,NA,NA,form submission,6990.2000000477,508467.10000014,508461.9,508478.5,515468.70000005,515469,2024-03-04T16:45:48Z,515474.2,NULL,Beweis,ushahidi,s,marudio,kizuizi,mtendaji,ushahidi,NA,NA,2,NA,NA,NA,NA,NA,NA,NA,NA,NA,NA,NA,NA,NA,NA,NA,NA,NA,NA,NA
76d8c,"""Richtig""-Screen",canvas.Screen,3_0_2_0_5_1_1,NA,NA,timeout,4997.3,515471.80000019,515461.7,515474.2,520454.8,520455.5,2024-03-04T16:45:53Z,520471.5,NULL,Beweis,ushahidi,s,marudio,kizuizi,mtendaji,NA,sdf,1,2,NA,NA,NA,NA,NA,NA,NA,NA,NA,NA,NA,NA,NA,NA,NA,NA,NA,NA,NA
76d8c,"""Falsch""-Screen",canvas.Screen,3_0_2_0_5_1_2,NA,NA,skipped,NA,520459.5,NA,NA,520454.8,520459.70000005,2024-03-04T16:45:53Z,520471.5,NULL,Beweis,ushahidi,s,marudio,kizuizi,mtendaji,NA,sdf,NA,2,NA,NA,NA,NA,NA,NA,NA,NA,NA,NA,NA,NA,NA,NA,NA,NA,NA,NA,NA
76d8c,shallow,flow.Sequence,3_0_2_0_5_1,NA,NA,completion,11976.3,508467.10000014,508461.9,508478.5,520454.8,520459.9000001,2024-03-04T16:45:53Z,520471.5,NULL,Beweis,ushahidi,s,marudio,kizuizi,mtendaji,NA,sdf,NA,2,NA,NA,NA,NA,NA,NA,NA,NA,NA,NA,NA,NA,NA,NA,NA,NA,NA,NA,NA
76d8c,task,flow.Sequence,3_0_2_0_5,NA,NA,completion,11976.3,508467.10000014,508461.9,508478.5,520454.8,520460,2024-03-04T16:45:53Z,520471.5,NULL,Beweis,ushahidi,s,marudio,kizuizi,mtendaji,NA,sdf,NA,2,NA,NA,NA,NA,NA,NA,NA,NA,NA,NA,NA,NA,NA,NA,NA,NA,NA,NA,NA
76d8c,deep,flow.Sequence,3_0_2_0_6_0,NA,NA,skipped,NA,520460.10000014,NA,NA,520454.8,520460.30000019,2024-03-04T16:45:53Z,520471.5,NULL,Inhalt,yaliyomo,s,kishawishi,hifadhi,kutembea,NA,sdf,NA,2,NA,NA,NA,NA,NA,NA,NA,NA,NA,NA,NA,NA,NA,NA,NA,NA,NA,NA,NA
76d8c,Shallow Question,html.Page,3_0_2_0_6_1_0,NA,NA,form submission,4402.9000000954,520460.4000001,520454.8,520471.5,524874.4000001,524874.5,2024-03-04T16:45:57Z,524935,NULL,Inhalt,yaliyomo,s,kishawishi,hifadhi,kutembea,yaliyomo,NA,NA,2,NA,NA,NA,NA,NA,NA,NA,NA,NA,NA,NA,NA,NA,NA,NA,NA,NA,NA,NA
76d8c,"""Richtig""-Screen",canvas.Screen,3_0_2_0_6_1_1,NA,NA,timeout,4997.5,524875.9000001,524870.062,524935,529915.4,529915.80000019,2024-03-04T16:46:02Z,529932.5,NULL,Inhalt,yaliyomo,s,kishawishi,hifadhi,kutembea,NA,sdf,1,2,NA,NA,NA,NA,NA,NA,NA,NA,NA,NA,NA,NA,NA,NA,NA,NA,NA,NA,NA
76d8c,"""Falsch""-Screen",canvas.Screen,3_0_2_0_6_1_2,NA,NA,skipped,NA,529917.30000019,NA,NA,529915.4,529917.4000001,2024-03-04T16:46:02Z,529932.5,NULL,Inhalt,yaliyomo,s,kishawishi,hifadhi,kutembea,NA,sdf,NA,2,NA,NA,NA,NA,NA,NA,NA,NA,NA,NA,NA,NA,NA,NA,NA,NA,NA,NA,NA
76d8c,shallow,flow.Sequence,3_0_2_0_6_1,NA,NA,completion,9443.9,520460.30000019,520454.8,520471.5,529915.4,529917.4000001,2024-03-04T16:46:02Z,529932.5,NULL,Inhalt,yaliyomo,s,kishawishi,hifadhi,kutembea,NA,sdf,NA,2,NA,NA,NA,NA,NA,NA,NA,NA,NA,NA,NA,NA,NA,NA,NA,NA,NA,NA,NA
76d8c,task,flow.Sequence,3_0_2_0_6,NA,NA,completion,9443.9,520460.10000014,520454.8,520471.5,529915.4,529917.5,2024-03-04T16:46:02Z,529932.5,NULL,Inhalt,yaliyomo,s,kishawishi,hifadhi,kutembea,NA,sdf,NA,2,NA,NA,NA,NA,NA,NA,NA,NA,NA,NA,NA,NA,NA,NA,NA,NA,NA,NA,NA
76d8c,Deep Question,html.Page,3_0_2_0_7_0_0,NA,NA,form submission,10500.800000191,529917.5,529915.4,529932.5,540433.30000019,540433.5,2024-03-04T16:46:13Z,540442.2,NULL,Toleranz,kuvumiliana,d,NA,NA,NA,meagndo,NA,NA,2,NA,NA,NA,NA,NA,NA,NA,NA,NA,NA,NA,NA,NA,NA,NA,NA,NA,NA,NA
76d8c,"""Richtig""-Screen",canvas.Screen,3_0_2_0_7_0_1,NA,NA,skipped,NA,540436.5,NA,NA,540433.30000019,540436.70000005,2024-03-04T16:46:13Z,540442.2,NULL,Toleranz,kuvumiliana,d,NA,NA,NA,NA,sdf,NA,2,NA,NA,NA,NA,NA,NA,NA,NA,NA,NA,NA,NA,NA,NA,NA,NA,NA,NA,NA
76d8c,"""Falsch""-Screen",canvas.Screen,3_0_2_0_7_0_2,NA,NA,timeout,4997.3,540437.4000001,540430.824,540442.2,545423,545423.70000005,2024-03-04T16:46:18Z,545439.5,NULL,Toleranz,kuvumiliana,d,NA,NA,NA,NA,sdf,0,2,NA,NA,NA,NA,NA,NA,NA,NA,NA,NA,NA,NA,NA,NA,NA,NA,NA,NA,NA
76d8c,deep,flow.Sequence,3_0_2_0_7_0,NA,NA,completion,15490.5,529917.5,529915.4,529932.5,545423,545424,2024-03-04T16:46:18Z,545439.5,NULL,Toleranz,kuvumiliana,d,NA,NA,NA,NA,sdf,NA,2,NA,NA,NA,NA,NA,NA,NA,NA,NA,NA,NA,NA,NA,NA,NA,NA,NA,NA,NA
76d8c,shallow,flow.Sequence,3_0_2_0_7_1,NA,NA,skipped,NA,545424.10000014,NA,NA,545423,545424.20000005,2024-03-04T16:46:18Z,545439.5,NULL,Toleranz,kuvumiliana,d,NA,NA,NA,NA,sdf,NA,2,NA,NA,NA,NA,NA,NA,NA,NA,NA,NA,NA,NA,NA,NA,NA,NA,NA,NA,NA
76d8c,task,flow.Sequence,3_0_2_0_7,NA,NA,completion,15490.5,529917.5,529915.4,529932.5,545423,545424.4000001,2024-03-04T16:46:18Z,545439.5,NULL,Toleranz,kuvumiliana,d,NA,NA,NA,NA,sdf,NA,2,NA,NA,NA,NA,NA,NA,NA,NA,NA,NA,NA,NA,NA,NA,NA,NA,NA,NA,NA
76d8c,block,flow.Loop,3_0_2_0,NA,NA,completion,99139.6,446272.80000019,446267.82,446283.4,545423,545424.5,2024-03-04T16:46:18Z,545439.5,NULL,NA,NA,NA,NA,NA,NA,NA,sdf,NA,2,NA,NA,NA,NA,NA,NA,NA,NA,NA,NA,NA,NA,NA,NA,NA,NA,NA,NA,NA
76d8c,weiter,canvas.Screen,3_0_2_1,sdf,keypress(Space),response,1946.9000000954,545424.60000014,545423,545439.5,547386.4000001,547387.4000001,2024-03-04T16:46:20Z,547421.7,NULL,NA,NA,NA,NA,NA,NA,NA,sdf,NA,2,NA,NA,NA,NA,NA,NA,NA,NA,NA,NA,NA,NA,NA,NA,NA,NA,NA,NA,NA
76d8c,check continue,flow.Sequence,3_0_2,NA,NA,completion,101103.0000001,446272.70000005,446267.82,446283.4,547386.4000001,547387.60000014,2024-03-04T16:46:20Z,547421.7,NULL,NA,NA,NA,NA,NA,NA,NA,sdf,NA,2,NA,NA,NA,NA,NA,NA,NA,NA,NA,NA,NA,NA,NA,NA,NA,NA,NA,NA,NA
76d8c,deep,flow.Sequence,3_0_3_0_0_0,NA,NA,skipped,NA,547407.5,NA,NA,547386.4000001,547407.60000014,2024-03-04T16:46:20Z,547421.7,NULL,Inhalt,yaliyomo,s,kishawishi,hifadhi,kutembea,NA,qt,NA,3,NA,NA,NA,NA,NA,NA,NA,NA,NA,NA,NA,NA,NA,NA,NA,NA,NA,NA,NA
76d8c,Shallow Question,html.Page,3_0_3_0_0_1_0,NA,NA,form submission,4901.9000001431,547407.60000014,547406.9,547421.7,552323.60000014,552323.80000019,2024-03-04T16:46:25Z,552335.3,NULL,Inhalt,yaliyomo,s,kishawishi,hifadhi,kutembea,yaliyomo,NA,NA,3,NA,NA,NA,NA,NA,NA,NA,NA,NA,NA,NA,NA,NA,NA,NA,NA,NA,NA,NA
76d8c,"""Richtig""-Screen",canvas.Screen,3_0_3_0_0_1_1,NA,NA,timeout,4997.1,552326.70000005,552320.304,552335.3,557315.3,557316.20000005,2024-03-04T16:46:30Z,557332.4,NULL,Inhalt,yaliyomo,s,kishawishi,hifadhi,kutembea,NA,qt,1,3,NA,NA,NA,NA,NA,NA,NA,NA,NA,NA,NA,NA,NA,NA,NA,NA,NA,NA,NA
76d8c,"""Falsch""-Screen",canvas.Screen,3_0_3_0_0_1_2,NA,NA,skipped,NA,557321.30000019,NA,NA,557315.3,557321.30000019,2024-03-04T16:46:30Z,557332.4,NULL,Inhalt,yaliyomo,s,kishawishi,hifadhi,kutembea,NA,qt,NA,3,NA,NA,NA,NA,NA,NA,NA,NA,NA,NA,NA,NA,NA,NA,NA,NA,NA,NA,NA
76d8c,shallow,flow.Sequence,3_0_3_0_0_1,NA,NA,completion,9893.6000000001,547407.60000014,547406.9,547421.7,557315.3,557321.5,2024-03-04T16:46:30Z,557332.4,NULL,Inhalt,yaliyomo,s,kishawishi,hifadhi,kutembea,NA,qt,NA,3,NA,NA,NA,NA,NA,NA,NA,NA,NA,NA,NA,NA,NA,NA,NA,NA,NA,NA,NA
76d8c,task,flow.Sequence,3_0_3_0_0,NA,NA,completion,9893.6000000001,547407.5,547406.9,547421.7,557315.3,557321.60000014,2024-03-04T16:46:30Z,557332.4,NULL,Inhalt,yaliyomo,s,kishawishi,hifadhi,kutembea,NA,qt,NA,3,NA,NA,NA,NA,NA,NA,NA,NA,NA,NA,NA,NA,NA,NA,NA,NA,NA,NA,NA
76d8c,Deep Question,html.Page,3_0_3_0_1_0_0,NA,NA,form submission,5378.200000143,557321.60000014,557315.3,557332.4,562710.60000014,562710.80000019,2024-03-04T16:46:35Z,562712.53,NULL,Toleranz,kuvumiliana,d,NA,NA,NA,kuliviama,NA,NA,3,NA,NA,NA,NA,NA,NA,NA,NA,NA,NA,NA,NA,NA,NA,NA,NA,NA,NA,NA
76d8c,"""Richtig""-Screen",canvas.Screen,3_0_3_0_1_0_1,NA,NA,skipped,NA,562713.70000005,NA,NA,562710.60000014,562713.9000001,2024-03-04T16:46:35Z,562712.53,NULL,Toleranz,kuvumiliana,d,NA,NA,NA,NA,qt,NA,3,NA,NA,NA,NA,NA,NA,NA,NA,NA,NA,NA,NA,NA,NA,NA,NA,NA,NA,NA
76d8c,"""Falsch""-Screen",canvas.Screen,3_0_3_0_1_0_2,NA,NA,timeout,4996.87,562714.80000019,562712.53,562712.53,567692.6,567693.5,2024-03-04T16:46:40Z,567709.4,NULL,Toleranz,kuvumiliana,d,NA,NA,NA,NA,qt,0,3,NA,NA,NA,NA,NA,NA,NA,NA,NA,NA,NA,NA,NA,NA,NA,NA,NA,NA,NA
76d8c,deep,flow.Sequence,3_0_3_0_1_0,NA,NA,completion,10360.2,557321.60000014,557315.3,557332.4,567692.6,567693.9000001,2024-03-04T16:46:40Z,567709.4,NULL,Toleranz,kuvumiliana,d,NA,NA,NA,NA,qt,NA,3,NA,NA,NA,NA,NA,NA,NA,NA,NA,NA,NA,NA,NA,NA,NA,NA,NA,NA,NA
76d8c,shallow,flow.Sequence,3_0_3_0_1_1,NA,NA,skipped,NA,567694,NA,NA,567692.6,567694.20000005,2024-03-04T16:46:40Z,567709.4,NULL,Toleranz,kuvumiliana,d,NA,NA,NA,NA,qt,NA,3,NA,NA,NA,NA,NA,NA,NA,NA,NA,NA,NA,NA,NA,NA,NA,NA,NA,NA,NA
76d8c,task,flow.Sequence,3_0_3_0_1,NA,NA,completion,10360.2,557321.60000014,557315.3,557332.4,567692.6,567694.4000001,2024-03-04T16:46:40Z,567709.4,NULL,Toleranz,kuvumiliana,d,NA,NA,NA,NA,qt,NA,3,NA,NA,NA,NA,NA,NA,NA,NA,NA,NA,NA,NA,NA,NA,NA,NA,NA,NA,NA
76d8c,deep,flow.Sequence,3_0_3_0_2_0,NA,NA,skipped,NA,567694.5,NA,NA,567692.6,567694.60000014,2024-03-04T16:46:40Z,567709.4,NULL,Polizist,msongora,s,simanzi,mandhari,nidhamu,NA,qt,NA,3,NA,NA,NA,NA,NA,NA,NA,NA,NA,NA,NA,NA,NA,NA,NA,NA,NA,NA,NA
76d8c,Shallow Question,html.Page,3_0_3_0_2_1_0,NA,NA,form submission,9892.6,567694.80000019,567692.6,567709.4,577602,577602.20000005,2024-03-04T16:46:50Z,577605.294,NULL,Polizist,msongora,s,simanzi,mandhari,nidhamu,msongora,NA,NA,3,NA,NA,NA,NA,NA,NA,NA,NA,NA,NA,NA,NA,NA,NA,NA,NA,NA,NA,NA
76d8c,"""Richtig""-Screen",canvas.Screen,3_0_3_0_2_1_1,NA,NA,timeout,4994.906,577605.30000019,577605.294,577605.294,582583.4,582583.80000019,2024-03-04T16:46:55Z,582600.2,NULL,Polizist,msongora,s,simanzi,mandhari,nidhamu,NA,qt,1,3,NA,NA,NA,NA,NA,NA,NA,NA,NA,NA,NA,NA,NA,NA,NA,NA,NA,NA,NA
76d8c,"""Falsch""-Screen",canvas.Screen,3_0_3_0_2_1_2,NA,NA,skipped,NA,582585.60000014,NA,NA,582583.4,582585.60000014,2024-03-04T16:46:55Z,582600.2,NULL,Polizist,msongora,s,simanzi,mandhari,nidhamu,NA,qt,NA,3,NA,NA,NA,NA,NA,NA,NA,NA,NA,NA,NA,NA,NA,NA,NA,NA,NA,NA,NA
76d8c,shallow,flow.Sequence,3_0_3_0_2_1,NA,NA,completion,14874,567694.70000005,567692.6,567709.4,582583.4,582585.80000019,2024-03-04T16:46:55Z,582600.2,NULL,Polizist,msongora,s,simanzi,mandhari,nidhamu,NA,qt,NA,3,NA,NA,NA,NA,NA,NA,NA,NA,NA,NA,NA,NA,NA,NA,NA,NA,NA,NA,NA
76d8c,task,flow.Sequence,3_0_3_0_2,NA,NA,completion,14874,567694.5,567692.6,567709.4,582583.4,582585.80000019,2024-03-04T16:46:55Z,582600.2,NULL,Polizist,msongora,s,simanzi,mandhari,nidhamu,NA,qt,NA,3,NA,NA,NA,NA,NA,NA,NA,NA,NA,NA,NA,NA,NA,NA,NA,NA,NA,NA,NA
76d8c,Deep Question,html.Page,3_0_3_0_3_0_0,NA,NA,form submission,3484.5000000477,582585.9000001,582583.4,582600.2,586084.70000005,586085.10000014,2024-03-04T16:46:59Z,586097.8,NULL,Schlange,foleni,d,NA,NA,NA,foleni,NA,NA,3,NA,NA,NA,NA,NA,NA,NA,NA,NA,NA,NA,NA,NA,NA,NA,NA,NA,NA,NA
76d8c,"""Richtig""-Screen",canvas.Screen,3_0_3_0_3_0_1,NA,NA,timeout,4997.2999999999,586087.9000001,586082.718,586097.8,591078.5,591079.30000019,2024-03-04T16:47:04Z,591095.1,NULL,Schlange,foleni,d,NA,NA,NA,NA,qt,1,3,NA,NA,NA,NA,NA,NA,NA,NA,NA,NA,NA,NA,NA,NA,NA,NA,NA,NA,NA
76d8c,"""Falsch""-Screen",canvas.Screen,3_0_3_0_3_0_2,NA,NA,skipped,NA,591084,NA,NA,591078.5,591084.10000014,2024-03-04T16:47:04Z,591095.1,NULL,Schlange,foleni,d,NA,NA,NA,NA,qt,NA,3,NA,NA,NA,NA,NA,NA,NA,NA,NA,NA,NA,NA,NA,NA,NA,NA,NA,NA,NA
76d8c,deep,flow.Sequence,3_0_3_0_3_0,NA,NA,completion,8478.3,582585.9000001,582583.4,582600.2,591078.5,591084.4000001,2024-03-04T16:47:04Z,591095.1,NULL,Schlange,foleni,d,NA,NA,NA,NA,qt,NA,3,NA,NA,NA,NA,NA,NA,NA,NA,NA,NA,NA,NA,NA,NA,NA,NA,NA,NA,NA
76d8c,shallow,flow.Sequence,3_0_3_0_3_1,NA,NA,skipped,NA,591084.5,NA,NA,591078.5,591084.60000014,2024-03-04T16:47:04Z,591095.1,NULL,Schlange,foleni,d,NA,NA,NA,NA,qt,NA,3,NA,NA,NA,NA,NA,NA,NA,NA,NA,NA,NA,NA,NA,NA,NA,NA,NA,NA,NA
76d8c,task,flow.Sequence,3_0_3_0_3,NA,NA,completion,8478.3,582585.9000001,582583.4,582600.2,591078.5,591084.70000005,2024-03-04T16:47:04Z,591095.1,NULL,Schlange,foleni,d,NA,NA,NA,NA,qt,NA,3,NA,NA,NA,NA,NA,NA,NA,NA,NA,NA,NA,NA,NA,NA,NA,NA,NA,NA,NA
76d8c,deep,flow.Sequence,3_0_3_0_4_0,NA,NA,skipped,NA,591084.70000005,NA,NA,591078.5,591084.70000005,2024-03-04T16:47:04Z,591095.1,NULL,Vermutung,udhanifu,s,haramia,tikisho,itifaki,NA,qt,NA,3,NA,NA,NA,NA,NA,NA,NA,NA,NA,NA,NA,NA,NA,NA,NA,NA,NA,NA,NA
76d8c,Shallow Question,html.Page,3_0_3_0_4_1_0,NA,NA,form submission,5977.6000000477,591084.70000005,591078.5,591095.1,597072.70000005,597073,2024-03-04T16:47:10Z,597075.774,NULL,Vermutung,udhanifu,s,haramia,tikisho,itifaki,udhanifu,NA,NA,3,NA,NA,NA,NA,NA,NA,NA,NA,NA,NA,NA,NA,NA,NA,NA,NA,NA,NA,NA
76d8c,"""Richtig""-Screen",canvas.Screen,3_0_3_0_4_1_1,NA,NA,timeout,4995.826,597075.80000019,597075.774,597075.774,602054.5,602054.9000001,2024-03-04T16:47:15Z,602071.6,NULL,Vermutung,udhanifu,s,haramia,tikisho,itifaki,NA,qt,1,3,NA,NA,NA,NA,NA,NA,NA,NA,NA,NA,NA,NA,NA,NA,NA,NA,NA,NA,NA
76d8c,"""Falsch""-Screen",canvas.Screen,3_0_3_0_4_1_2,NA,NA,skipped,NA,602056.80000019,NA,NA,602054.5,602056.80000019,2024-03-04T16:47:15Z,602071.6,NULL,Vermutung,udhanifu,s,haramia,tikisho,itifaki,NA,qt,NA,3,NA,NA,NA,NA,NA,NA,NA,NA,NA,NA,NA,NA,NA,NA,NA,NA,NA,NA,NA
76d8c,shallow,flow.Sequence,3_0_3_0_4_1,NA,NA,completion,10959.4,591084.70000005,591078.5,591095.1,602054.5,602056.9000001,2024-03-04T16:47:15Z,602071.6,NULL,Vermutung,udhanifu,s,haramia,tikisho,itifaki,NA,qt,NA,3,NA,NA,NA,NA,NA,NA,NA,NA,NA,NA,NA,NA,NA,NA,NA,NA,NA,NA,NA
76d8c,task,flow.Sequence,3_0_3_0_4,NA,NA,completion,10959.4,591084.70000005,591078.5,591095.1,602054.5,602057,2024-03-04T16:47:15Z,602071.6,NULL,Vermutung,udhanifu,s,haramia,tikisho,itifaki,NA,qt,NA,3,NA,NA,NA,NA,NA,NA,NA,NA,NA,NA,NA,NA,NA,NA,NA,NA,NA,NA,NA
76d8c,deep,flow.Sequence,3_0_3_0_5_0,NA,NA,skipped,NA,602057,NA,NA,602054.5,602057.10000014,2024-03-04T16:47:15Z,602071.6,NULL,Beweis,ushahidi,s,marudio,kizuizi,mtendaji,NA,qt,NA,3,NA,NA,NA,NA,NA,NA,NA,NA,NA,NA,NA,NA,NA,NA,NA,NA,NA,NA,NA
76d8c,Shallow Question,html.Page,3_0_3_0_5_1_0,NA,NA,form submission,8004.1000000477,602057.10000014,602054.5,602071.6,610075.70000005,610075.9000001,2024-03-04T16:47:23Z,610083,NULL,Beweis,ushahidi,s,marudio,kizuizi,mtendaji,ushahidi,NA,NA,3,NA,NA,NA,NA,NA,NA,NA,NA,NA,NA,NA,NA,NA,NA,NA,NA,NA,NA,NA
76d8c,"""Richtig""-Screen",canvas.Screen,3_0_3_0_5_1_1,NA,NA,timeout,4997.5,610078.80000019,610070.04,610083,615063.7,615064.70000005,2024-03-04T16:47:28Z,615080.5,NULL,Beweis,ushahidi,s,marudio,kizuizi,mtendaji,NA,qt,1,3,NA,NA,NA,NA,NA,NA,NA,NA,NA,NA,NA,NA,NA,NA,NA,NA,NA,NA,NA
76d8c,"""Falsch""-Screen",canvas.Screen,3_0_3_0_5_1_2,NA,NA,skipped,NA,615069.4000001,NA,NA,615063.7,615069.5,2024-03-04T16:47:28Z,615080.5,NULL,Beweis,ushahidi,s,marudio,kizuizi,mtendaji,NA,qt,NA,3,NA,NA,NA,NA,NA,NA,NA,NA,NA,NA,NA,NA,NA,NA,NA,NA,NA,NA,NA
76d8c,shallow,flow.Sequence,3_0_3_0_5_1,NA,NA,completion,12992.1,602057.10000014,602054.5,602071.6,615063.7,615069.5,2024-03-04T16:47:28Z,615080.5,NULL,Beweis,ushahidi,s,marudio,kizuizi,mtendaji,NA,qt,NA,3,NA,NA,NA,NA,NA,NA,NA,NA,NA,NA,NA,NA,NA,NA,NA,NA,NA,NA,NA
76d8c,task,flow.Sequence,3_0_3_0_5,NA,NA,completion,12992.1,602057,602054.5,602071.6,615063.7,615069.60000014,2024-03-04T16:47:28Z,615080.5,NULL,Beweis,ushahidi,s,marudio,kizuizi,mtendaji,NA,qt,NA,3,NA,NA,NA,NA,NA,NA,NA,NA,NA,NA,NA,NA,NA,NA,NA,NA,NA,NA,NA
76d8c,Deep Question,html.Page,3_0_3_0_6_0_0,NA,NA,form submission,10853.600000143,615069.70000005,615063.7,615080.5,625934.10000014,625934.5,2024-03-04T16:47:38Z,625939.9,NULL,Sympathie,mapendano,d,NA,NA,NA,mnangedo,NA,NA,3,NA,NA,NA,NA,NA,NA,NA,NA,NA,NA,NA,NA,NA,NA,NA,NA,NA,NA,NA
76d8c,"""Richtig""-Screen",canvas.Screen,3_0_3_0_6_0_1,NA,NA,skipped,NA,625937.5,NA,NA,625934.10000014,625937.70000005,2024-03-04T16:47:38Z,625939.9,NULL,Sympathie,mapendano,d,NA,NA,NA,NA,qt,NA,3,NA,NA,NA,NA,NA,NA,NA,NA,NA,NA,NA,NA,NA,NA,NA,NA,NA,NA,NA
76d8c,"""Falsch""-Screen",canvas.Screen,3_0_3_0_6_0_2,NA,NA,timeout,4996.9,625938.30000019,625923.5,625939.9,630920.3,630920.60000014,2024-03-04T16:47:43Z,630936.8,NULL,Sympathie,mapendano,d,NA,NA,NA,NA,qt,0,3,NA,NA,NA,NA,NA,NA,NA,NA,NA,NA,NA,NA,NA,NA,NA,NA,NA,NA,NA
76d8c,deep,flow.Sequence,3_0_3_0_6_0,NA,NA,completion,15839.8,615069.70000005,615063.7,615080.5,630920.3,630920.70000005,2024-03-04T16:47:43Z,630936.8,NULL,Sympathie,mapendano,d,NA,NA,NA,NA,qt,NA,3,NA,NA,NA,NA,NA,NA,NA,NA,NA,NA,NA,NA,NA,NA,NA,NA,NA,NA,NA
76d8c,shallow,flow.Sequence,3_0_3_0_6_1,NA,NA,skipped,NA,630920.70000005,NA,NA,630920.3,630920.80000019,2024-03-04T16:47:43Z,630936.8,NULL,Sympathie,mapendano,d,NA,NA,NA,NA,qt,NA,3,NA,NA,NA,NA,NA,NA,NA,NA,NA,NA,NA,NA,NA,NA,NA,NA,NA,NA,NA
76d8c,task,flow.Sequence,3_0_3_0_6,NA,NA,completion,15839.8,615069.70000005,615063.7,615080.5,630920.3,630920.80000019,2024-03-04T16:47:43Z,630936.8,NULL,Sympathie,mapendano,d,NA,NA,NA,NA,qt,NA,3,NA,NA,NA,NA,NA,NA,NA,NA,NA,NA,NA,NA,NA,NA,NA,NA,NA,NA,NA
76d8c,Deep Question,html.Page,3_0_3_0_7_0_0,NA,NA,form submission,11451.000000191,630920.80000019,630920.3,630936.8,642387.80000019,642387.9000001,2024-03-04T16:47:55Z,642396.5,NULL,Annäherung,maegesho,d,NA,NA,NA,meopanda,NA,NA,3,NA,NA,NA,NA,NA,NA,NA,NA,NA,NA,NA,NA,NA,NA,NA,NA,NA,NA,NA
76d8c,"""Richtig""-Screen",canvas.Screen,3_0_3_0_7_0_1,NA,NA,skipped,NA,642390.20000005,NA,NA,642387.80000019,642390.30000019,2024-03-04T16:47:55Z,642396.5,NULL,Annäherung,maegesho,d,NA,NA,NA,NA,qt,NA,3,NA,NA,NA,NA,NA,NA,NA,NA,NA,NA,NA,NA,NA,NA,NA,NA,NA,NA,NA
76d8c,"""Falsch""-Screen",canvas.Screen,3_0_3_0_7_0_2,NA,NA,timeout,4997,642390.70000005,642381.1,642396.5,647376.8,647377.20000005,2024-03-04T16:48:00Z,647393.5,NULL,Annäherung,maegesho,d,NA,NA,NA,NA,qt,0,3,NA,NA,NA,NA,NA,NA,NA,NA,NA,NA,NA,NA,NA,NA,NA,NA,NA,NA,NA
76d8c,deep,flow.Sequence,3_0_3_0_7_0,NA,NA,completion,16440,630920.80000019,630920.3,630936.8,647376.8,647377.30000019,2024-03-04T16:48:00Z,647393.5,NULL,Annäherung,maegesho,d,NA,NA,NA,NA,qt,NA,3,NA,NA,NA,NA,NA,NA,NA,NA,NA,NA,NA,NA,NA,NA,NA,NA,NA,NA,NA
76d8c,shallow,flow.Sequence,3_0_3_0_7_1,NA,NA,skipped,NA,647377.30000019,NA,NA,647376.8,647377.30000019,2024-03-04T16:48:00Z,647393.5,NULL,Annäherung,maegesho,d,NA,NA,NA,NA,qt,NA,3,NA,NA,NA,NA,NA,NA,NA,NA,NA,NA,NA,NA,NA,NA,NA,NA,NA,NA,NA
76d8c,task,flow.Sequence,3_0_3_0_7,NA,NA,completion,16440,630920.80000019,630920.3,630936.8,647376.8,647377.5,2024-03-04T16:48:00Z,647393.5,NULL,Annäherung,maegesho,d,NA,NA,NA,NA,qt,NA,3,NA,NA,NA,NA,NA,NA,NA,NA,NA,NA,NA,NA,NA,NA,NA,NA,NA,NA,NA
76d8c,block,flow.Loop,3_0_3_0,NA,NA,completion,99955.1,547407.4000001,547406.9,547421.7,647376.8,647377.5,2024-03-04T16:48:00Z,647393.5,NULL,NA,NA,NA,NA,NA,NA,NA,qt,NA,3,NA,NA,NA,NA,NA,NA,NA,NA,NA,NA,NA,NA,NA,NA,NA,NA,NA,NA,NA
76d8c,weiter,canvas.Screen,3_0_3_1,sdf,keypress(Space),response,1284.4000000954,647377.5,647376.8,647393.5,648677.9000001,648678.30000019,2024-03-04T16:48:01Z,648709.3,NULL,NA,NA,NA,NA,NA,NA,NA,qt,NA,3,NA,NA,NA,NA,NA,NA,NA,NA,NA,NA,NA,NA,NA,NA,NA,NA,NA,NA,NA
76d8c,check continue,flow.Sequence,3_0_3,NA,NA,completion,101256.2000001,547407.4000001,547406.9,547421.7,648677.9000001,648678.4000001,2024-03-04T16:48:01Z,648709.3,NULL,NA,NA,NA,NA,NA,NA,NA,qt,NA,3,NA,NA,NA,NA,NA,NA,NA,NA,NA,NA,NA,NA,NA,NA,NA,NA,NA,NA,NA
76d8c,deep,flow.Sequence,3_0_4_0_0_0,NA,NA,skipped,NA,648700.70000005,NA,NA,648677.9000001,648700.9000001,2024-03-04T16:48:01Z,648709.3,NULL,Vermutung,udhanifu,s,haramia,tikisho,itifaki,NA,sd,NA,4,NA,NA,NA,NA,NA,NA,NA,NA,NA,NA,NA,NA,NA,NA,NA,NA,NA,NA,NA
76d8c,Shallow Question,html.Page,3_0_4_0_0_1_0,NA,NA,form submission,7157.0000001907,648701,648695.8,648709.3,655866.30000019,655866.60000014,2024-03-04T16:48:08Z,655871.7,NULL,Vermutung,udhanifu,s,haramia,tikisho,itifaki,udhanifu,NA,NA,4,NA,NA,NA,NA,NA,NA,NA,NA,NA,NA,NA,NA,NA,NA,NA,NA,NA,NA,NA
76d8c,"""Richtig""-Screen",canvas.Screen,3_0_4_0_0_1_1,NA,NA,timeout,4997.2000000001,655869.4000001,655860.7,655871.7,660852.1,660853,2024-03-04T16:48:13Z,660868.9,NULL,Vermutung,udhanifu,s,haramia,tikisho,itifaki,NA,sd,1,4,NA,NA,NA,NA,NA,NA,NA,NA,NA,NA,NA,NA,NA,NA,NA,NA,NA,NA,NA
76d8c,"""Falsch""-Screen",canvas.Screen,3_0_4_0_0_1_2,NA,NA,skipped,NA,660858.10000014,NA,NA,660852.1,660858.10000014,2024-03-04T16:48:13Z,660868.9,NULL,Vermutung,udhanifu,s,haramia,tikisho,itifaki,NA,sd,NA,4,NA,NA,NA,NA,NA,NA,NA,NA,NA,NA,NA,NA,NA,NA,NA,NA,NA,NA,NA
76d8c,shallow,flow.Sequence,3_0_4_0_0_1,NA,NA,completion,12142.8,648701,648695.8,648709.3,660852.1,660858.30000019,2024-03-04T16:48:13Z,660868.9,NULL,Vermutung,udhanifu,s,haramia,tikisho,itifaki,NA,sd,NA,4,NA,NA,NA,NA,NA,NA,NA,NA,NA,NA,NA,NA,NA,NA,NA,NA,NA,NA,NA
76d8c,task,flow.Sequence,3_0_4_0_0,NA,NA,completion,12142.8,648700.70000005,648695.8,648709.3,660852.1,660858.30000019,2024-03-04T16:48:13Z,660868.9,NULL,Vermutung,udhanifu,s,haramia,tikisho,itifaki,NA,sd,NA,4,NA,NA,NA,NA,NA,NA,NA,NA,NA,NA,NA,NA,NA,NA,NA,NA,NA,NA,NA
76d8c,Deep Question,html.Page,3_0_4_0_1_0_0,NA,NA,form submission,4736.3000000477,660858.30000019,660852.1,660868.9,665605.20000005,665605.4000001,2024-03-04T16:48:18Z,665615.6,NULL,Schlange,foleni,d,NA,NA,NA,feloni,NA,NA,4,NA,NA,NA,NA,NA,NA,NA,NA,NA,NA,NA,NA,NA,NA,NA,NA,NA,NA,NA
76d8c,"""Richtig""-Screen",canvas.Screen,3_0_4_0_1_0_1,NA,NA,skipped,NA,665608.30000019,NA,NA,665605.20000005,665608.4000001,2024-03-04T16:48:18Z,665615.6,NULL,Schlange,foleni,d,NA,NA,NA,NA,sd,NA,4,NA,NA,NA,NA,NA,NA,NA,NA,NA,NA,NA,NA,NA,NA,NA,NA,NA,NA,NA
76d8c,"""Falsch""-Screen",canvas.Screen,3_0_4_0_1_0_2,NA,NA,timeout,4997.3,665609.20000005,665601.71,665615.6,670596.4,670596.80000019,2024-03-04T16:48:23Z,670612.9,NULL,Schlange,foleni,d,NA,NA,NA,NA,sd,0,4,NA,NA,NA,NA,NA,NA,NA,NA,NA,NA,NA,NA,NA,NA,NA,NA,NA,NA,NA
76d8c,deep,flow.Sequence,3_0_4_0_1_0,NA,NA,completion,9727.5,660858.30000019,660852.1,660868.9,670596.4,670596.9000001,2024-03-04T16:48:23Z,670612.9,NULL,Schlange,foleni,d,NA,NA,NA,NA,sd,NA,4,NA,NA,NA,NA,NA,NA,NA,NA,NA,NA,NA,NA,NA,NA,NA,NA,NA,NA,NA
76d8c,shallow,flow.Sequence,3_0_4_0_1_1,NA,NA,skipped,NA,670597,NA,NA,670596.4,670597,2024-03-04T16:48:23Z,670612.9,NULL,Schlange,foleni,d,NA,NA,NA,NA,sd,NA,4,NA,NA,NA,NA,NA,NA,NA,NA,NA,NA,NA,NA,NA,NA,NA,NA,NA,NA,NA
76d8c,task,flow.Sequence,3_0_4_0_1,NA,NA,completion,9727.5,660858.30000019,660852.1,660868.9,670596.4,670597.20000005,2024-03-04T16:48:23Z,670612.9,NULL,Schlange,foleni,d,NA,NA,NA,NA,sd,NA,4,NA,NA,NA,NA,NA,NA,NA,NA,NA,NA,NA,NA,NA,NA,NA,NA,NA,NA,NA
76d8c,Deep Question,html.Page,3_0_4_0_2_0_0,NA,NA,form submission,14915.6,670597.20000005,670596.4,670612.9,685528.5,685528.70000005,2024-03-04T16:48:38Z,685536.8,NULL,Sympathie,mapendano,d,NA,NA,NA,meopando,NA,NA,4,NA,NA,NA,NA,NA,NA,NA,NA,NA,NA,NA,NA,NA,NA,NA,NA,NA,NA,NA
76d8c,"""Richtig""-Screen",canvas.Screen,3_0_4_0_2_0_1,NA,NA,skipped,NA,685531.70000005,NA,NA,685528.5,685531.80000019,2024-03-04T16:48:38Z,685536.8,NULL,Sympathie,mapendano,d,NA,NA,NA,NA,sd,NA,4,NA,NA,NA,NA,NA,NA,NA,NA,NA,NA,NA,NA,NA,NA,NA,NA,NA,NA,NA
76d8c,"""Falsch""-Screen",canvas.Screen,3_0_4_0_2_0_2,NA,NA,timeout,4997,685532.5,685522.14,685536.8,690517.7,690518.10000014,2024-03-04T16:48:43Z,690533.8,NULL,Sympathie,mapendano,d,NA,NA,NA,NA,sd,0,4,NA,NA,NA,NA,NA,NA,NA,NA,NA,NA,NA,NA,NA,NA,NA,NA,NA,NA,NA
76d8c,deep,flow.Sequence,3_0_4_0_2_0,NA,NA,completion,19904.8,670597.20000005,670596.4,670612.9,690517.7,690518.4000001,2024-03-04T16:48:43Z,690533.8,NULL,Sympathie,mapendano,d,NA,NA,NA,NA,sd,NA,4,NA,NA,NA,NA,NA,NA,NA,NA,NA,NA,NA,NA,NA,NA,NA,NA,NA,NA,NA
76d8c,shallow,flow.Sequence,3_0_4_0_2_1,NA,NA,skipped,NA,690518.4000001,NA,NA,690517.7,690518.5,2024-03-04T16:48:43Z,690533.8,NULL,Sympathie,mapendano,d,NA,NA,NA,NA,sd,NA,4,NA,NA,NA,NA,NA,NA,NA,NA,NA,NA,NA,NA,NA,NA,NA,NA,NA,NA,NA
76d8c,task,flow.Sequence,3_0_4_0_2,NA,NA,completion,19904.8,670597.20000005,670596.4,670612.9,690517.7,690518.60000014,2024-03-04T16:48:43Z,690533.8,NULL,Sympathie,mapendano,d,NA,NA,NA,NA,sd,NA,4,NA,NA,NA,NA,NA,NA,NA,NA,NA,NA,NA,NA,NA,NA,NA,NA,NA,NA,NA
76d8c,deep,flow.Sequence,3_0_4_0_3_0,NA,NA,skipped,NA,690518.70000005,NA,NA,690517.7,690518.70000005,2024-03-04T16:48:43Z,690533.8,NULL,Polizist,msongora,s,simanzi,mandhari,nidhamu,NA,sd,NA,4,NA,NA,NA,NA,NA,NA,NA,NA,NA,NA,NA,NA,NA,NA,NA,NA,NA,NA,NA
76d8c,Shallow Question,html.Page,3_0_4_0_3_1_0,NA,NA,form submission,3729.300000143,690518.9000001,690517.7,690533.8,694263.10000014,694263.30000019,2024-03-04T16:48:47Z,694264.8,NULL,Polizist,msongora,s,simanzi,mandhari,nidhamu,msongora,NA,NA,4,NA,NA,NA,NA,NA,NA,NA,NA,NA,NA,NA,NA,NA,NA,NA,NA,NA,NA,NA
76d8c,"""Richtig""-Screen",canvas.Screen,3_0_4_0_3_1_1,NA,NA,timeout,4997,694266.20000005,694257.8,694264.8,699245.4,699246.30000019,2024-03-04T16:48:52Z,699261.8,NULL,Polizist,msongora,s,simanzi,mandhari,nidhamu,NA,sd,1,4,NA,NA,NA,NA,NA,NA,NA,NA,NA,NA,NA,NA,NA,NA,NA,NA,NA,NA,NA
76d8c,"""Falsch""-Screen",canvas.Screen,3_0_4_0_3_1_2,NA,NA,skipped,NA,699251.20000005,NA,NA,699245.4,699251.4000001,2024-03-04T16:48:52Z,699261.8,NULL,Polizist,msongora,s,simanzi,mandhari,nidhamu,NA,sd,NA,4,NA,NA,NA,NA,NA,NA,NA,NA,NA,NA,NA,NA,NA,NA,NA,NA,NA,NA,NA
76d8c,shallow,flow.Sequence,3_0_4_0_3_1,NA,NA,completion,8711.6,690518.80000019,690517.7,690533.8,699245.4,699251.4000001,2024-03-04T16:48:52Z,699261.8,NULL,Polizist,msongora,s,simanzi,mandhari,nidhamu,NA,sd,NA,4,NA,NA,NA,NA,NA,NA,NA,NA,NA,NA,NA,NA,NA,NA,NA,NA,NA,NA,NA
76d8c,task,flow.Sequence,3_0_4_0_3,NA,NA,completion,8711.6,690518.70000005,690517.7,690533.8,699245.4,699251.5,2024-03-04T16:48:52Z,699261.8,NULL,Polizist,msongora,s,simanzi,mandhari,nidhamu,NA,sd,NA,4,NA,NA,NA,NA,NA,NA,NA,NA,NA,NA,NA,NA,NA,NA,NA,NA,NA,NA,NA
76d8c,deep,flow.Sequence,3_0_4_0_4_0,NA,NA,skipped,NA,699251.60000014,NA,NA,699245.4,699251.60000014,2024-03-04T16:48:52Z,699261.8,NULL,Inhalt,yaliyomo,s,kishawishi,hifadhi,kutembea,NA,sd,NA,4,NA,NA,NA,NA,NA,NA,NA,NA,NA,NA,NA,NA,NA,NA,NA,NA,NA,NA,NA
76d8c,Shallow Question,html.Page,3_0_4_0_4_1_0,NA,NA,form submission,3510.4000000476,699251.60000014,699245.4,699261.8,702772.20000005,702772.4000001,2024-03-04T16:48:55Z,702776.3,NULL,Inhalt,yaliyomo,s,kishawishi,hifadhi,kutembea,yaliyomo,NA,NA,4,NA,NA,NA,NA,NA,NA,NA,NA,NA,NA,NA,NA,NA,NA,NA,NA,NA,NA,NA
76d8c,"""Richtig""-Screen",canvas.Screen,3_0_4_0_4_1_1,NA,NA,timeout,4997,702773.60000014,702765.5,702776.3,707757.1,707757.9000001,2024-03-04T16:49:00Z,707773.3,NULL,Inhalt,yaliyomo,s,kishawishi,hifadhi,kutembea,NA,sd,1,4,NA,NA,NA,NA,NA,NA,NA,NA,NA,NA,NA,NA,NA,NA,NA,NA,NA,NA,NA
76d8c,"""Falsch""-Screen",canvas.Screen,3_0_4_0_4_1_2,NA,NA,skipped,NA,707763.30000019,NA,NA,707757.1,707763.5,2024-03-04T16:49:00Z,707773.3,NULL,Inhalt,yaliyomo,s,kishawishi,hifadhi,kutembea,NA,sd,NA,4,NA,NA,NA,NA,NA,NA,NA,NA,NA,NA,NA,NA,NA,NA,NA,NA,NA,NA,NA
76d8c,shallow,flow.Sequence,3_0_4_0_4_1,NA,NA,completion,8495.2999999999,699251.60000014,699245.4,699261.8,707757.1,707763.70000005,2024-03-04T16:49:00Z,707773.3,NULL,Inhalt,yaliyomo,s,kishawishi,hifadhi,kutembea,NA,sd,NA,4,NA,NA,NA,NA,NA,NA,NA,NA,NA,NA,NA,NA,NA,NA,NA,NA,NA,NA,NA
76d8c,task,flow.Sequence,3_0_4_0_4,NA,NA,completion,8495.2999999999,699251.60000014,699245.4,699261.8,707757.1,707763.9000001,2024-03-04T16:49:00Z,707773.3,NULL,Inhalt,yaliyomo,s,kishawishi,hifadhi,kutembea,NA,sd,NA,4,NA,NA,NA,NA,NA,NA,NA,NA,NA,NA,NA,NA,NA,NA,NA,NA,NA,NA,NA
76d8c,deep,flow.Sequence,3_0_4_0_5_0,NA,NA,skipped,NA,707764,NA,NA,707757.1,707764.10000014,2024-03-04T16:49:00Z,707773.3,NULL,Beweis,ushahidi,s,marudio,kizuizi,mtendaji,NA,sd,NA,4,NA,NA,NA,NA,NA,NA,NA,NA,NA,NA,NA,NA,NA,NA,NA,NA,NA,NA,NA
76d8c,Shallow Question,html.Page,3_0_4_0_5_1_0,NA,NA,form submission,3411.9000000476,707764.20000005,707757.1,707773.3,711185.20000005,711185.30000019,2024-03-04T16:49:04Z,711189.07,NULL,Beweis,ushahidi,s,marudio,kizuizi,mtendaji,ushahidi,NA,NA,4,NA,NA,NA,NA,NA,NA,NA,NA,NA,NA,NA,NA,NA,NA,NA,NA,NA,NA,NA
76d8c,"""Richtig""-Screen",canvas.Screen,3_0_4_0_5_1_1,NA,NA,timeout,4996.13,711188.30000019,711189.07,711189.07,716168.6,716169.4000001,2024-03-04T16:49:09Z,716185.2,NULL,Beweis,ushahidi,s,marudio,kizuizi,mtendaji,NA,sd,1,4,NA,NA,NA,NA,NA,NA,NA,NA,NA,NA,NA,NA,NA,NA,NA,NA,NA,NA,NA
76d8c,"""Falsch""-Screen",canvas.Screen,3_0_4_0_5_1_2,NA,NA,skipped,NA,716174.30000019,NA,NA,716168.6,716174.5,2024-03-04T16:49:09Z,716185.2,NULL,Beweis,ushahidi,s,marudio,kizuizi,mtendaji,NA,sd,NA,4,NA,NA,NA,NA,NA,NA,NA,NA,NA,NA,NA,NA,NA,NA,NA,NA,NA,NA,NA
76d8c,shallow,flow.Sequence,3_0_4_0_5_1,NA,NA,completion,8395.2999999999,707764.20000005,707757.1,707773.3,716168.6,716174.70000005,2024-03-04T16:49:09Z,716185.2,NULL,Beweis,ushahidi,s,marudio,kizuizi,mtendaji,NA,sd,NA,4,NA,NA,NA,NA,NA,NA,NA,NA,NA,NA,NA,NA,NA,NA,NA,NA,NA,NA,NA
76d8c,task,flow.Sequence,3_0_4_0_5,NA,NA,completion,8395.2999999999,707764,707757.1,707773.3,716168.6,716174.70000005,2024-03-04T16:49:09Z,716185.2,NULL,Beweis,ushahidi,s,marudio,kizuizi,mtendaji,NA,sd,NA,4,NA,NA,NA,NA,NA,NA,NA,NA,NA,NA,NA,NA,NA,NA,NA,NA,NA,NA,NA
76d8c,Deep Question,html.Page,3_0_4_0_6_0_0,NA,NA,form submission,12774.000000048,716174.70000005,716168.6,716185.2,728959.20000005,728959.4000001,2024-03-04T16:49:21Z,728961.398,NULL,Toleranz,kuvumiliana,d,NA,NA,NA,kuvuliami,NA,NA,4,NA,NA,NA,NA,NA,NA,NA,NA,NA,NA,NA,NA,NA,NA,NA,NA,NA,NA,NA
76d8c,"""Richtig""-Screen",canvas.Screen,3_0_4_0_6_0_1,NA,NA,skipped,NA,728962.4000001,NA,NA,728959.20000005,728962.60000014,2024-03-04T16:49:21Z,728961.398,NULL,Toleranz,kuvumiliana,d,NA,NA,NA,NA,sd,NA,4,NA,NA,NA,NA,NA,NA,NA,NA,NA,NA,NA,NA,NA,NA,NA,NA,NA,NA,NA
76d8c,"""Falsch""-Screen",canvas.Screen,3_0_4_0_6_0_2,NA,NA,timeout,4996.002,728963.4000001,728961.398,728961.398,733940.5,733941.4000001,2024-03-04T16:49:26Z,733957.4,NULL,Toleranz,kuvumiliana,d,NA,NA,NA,NA,sd,0,4,NA,NA,NA,NA,NA,NA,NA,NA,NA,NA,NA,NA,NA,NA,NA,NA,NA,NA,NA
76d8c,deep,flow.Sequence,3_0_4_0_6_0,NA,NA,completion,17755.3,716174.70000005,716168.6,716185.2,733940.5,733941.70000005,2024-03-04T16:49:26Z,733957.4,NULL,Toleranz,kuvumiliana,d,NA,NA,NA,NA,sd,NA,4,NA,NA,NA,NA,NA,NA,NA,NA,NA,NA,NA,NA,NA,NA,NA,NA,NA,NA,NA
76d8c,shallow,flow.Sequence,3_0_4_0_6_1,NA,NA,skipped,NA,733941.9000001,NA,NA,733940.5,733941.9000001,2024-03-04T16:49:26Z,733957.4,NULL,Toleranz,kuvumiliana,d,NA,NA,NA,NA,sd,NA,4,NA,NA,NA,NA,NA,NA,NA,NA,NA,NA,NA,NA,NA,NA,NA,NA,NA,NA,NA
76d8c,task,flow.Sequence,3_0_4_0_6,NA,NA,completion,17755.3,716174.70000005,716168.6,716185.2,733940.5,733942.20000005,2024-03-04T16:49:26Z,733957.4,NULL,Toleranz,kuvumiliana,d,NA,NA,NA,NA,sd,NA,4,NA,NA,NA,NA,NA,NA,NA,NA,NA,NA,NA,NA,NA,NA,NA,NA,NA,NA,NA
76d8c,Deep Question,html.Page,3_0_4_0_7_0_0,NA,NA,form submission,8437.0000000953,733942.30000019,733940.5,733957.4,742394.4000001,742394.70000005,2024-03-04T16:49:35Z,742401.9,NULL,Annäherung,maegesho,d,NA,NA,NA,maepando,NA,NA,4,NA,NA,NA,NA,NA,NA,NA,NA,NA,NA,NA,NA,NA,NA,NA,NA,NA,NA,NA
76d8c,"""Richtig""-Screen",canvas.Screen,3_0_4_0_7_0_1,NA,NA,skipped,NA,742397.70000005,NA,NA,742394.4000001,742397.9000001,2024-03-04T16:49:35Z,742401.9,NULL,Annäherung,maegesho,d,NA,NA,NA,NA,sd,NA,4,NA,NA,NA,NA,NA,NA,NA,NA,NA,NA,NA,NA,NA,NA,NA,NA,NA,NA,NA
76d8c,"""Falsch""-Screen",canvas.Screen,3_0_4_0_7_0_2,NA,NA,timeout,4997.6,742398.70000005,742386.58,742401.9,747382.7,747383.70000005,2024-03-04T16:49:40Z,747399.5,NULL,Annäherung,maegesho,d,NA,NA,NA,NA,sd,0,4,NA,NA,NA,NA,NA,NA,NA,NA,NA,NA,NA,NA,NA,NA,NA,NA,NA,NA,NA
76d8c,deep,flow.Sequence,3_0_4_0_7_0,NA,NA,completion,13425.3,733942.20000005,733940.5,733957.4,747382.7,747384,2024-03-04T16:49:40Z,747399.5,NULL,Annäherung,maegesho,d,NA,NA,NA,NA,sd,NA,4,NA,NA,NA,NA,NA,NA,NA,NA,NA,NA,NA,NA,NA,NA,NA,NA,NA,NA,NA
76d8c,shallow,flow.Sequence,3_0_4_0_7_1,NA,NA,skipped,NA,747384.20000005,NA,NA,747382.7,747384.4000001,2024-03-04T16:49:40Z,747399.5,NULL,Annäherung,maegesho,d,NA,NA,NA,NA,sd,NA,4,NA,NA,NA,NA,NA,NA,NA,NA,NA,NA,NA,NA,NA,NA,NA,NA,NA,NA,NA
76d8c,task,flow.Sequence,3_0_4_0_7,NA,NA,completion,13425.3,733942.20000005,733940.5,733957.4,747382.7,747384.60000014,2024-03-04T16:49:40Z,747399.5,NULL,Annäherung,maegesho,d,NA,NA,NA,NA,sd,NA,4,NA,NA,NA,NA,NA,NA,NA,NA,NA,NA,NA,NA,NA,NA,NA,NA,NA,NA,NA
76d8c,block,flow.Loop,3_0_4_0,NA,NA,completion,98673.4,648700.70000005,648695.8,648709.3,747382.7,747384.9000001,2024-03-04T16:49:40Z,747399.5,NULL,NA,NA,NA,NA,NA,NA,NA,sd,NA,4,NA,NA,NA,NA,NA,NA,NA,NA,NA,NA,NA,NA,NA,NA,NA,NA,NA,NA,NA
76d8c,weiter,canvas.Screen,3_0_4_1,sdf,keypress(Space),response,1685.7000000477,747385,747382.7,747399.5,749085.20000005,749086.20000005,2024-03-04T16:49:42Z,749114.7,NULL,NA,NA,NA,NA,NA,NA,NA,sd,NA,4,NA,NA,NA,NA,NA,NA,NA,NA,NA,NA,NA,NA,NA,NA,NA,NA,NA,NA,NA
76d8c,check continue,flow.Sequence,3_0_4,NA,NA,completion,100375.90000005,648700.70000005,648695.8,648709.3,749085.20000005,749086.5,2024-03-04T16:49:42Z,749114.7,NULL,NA,NA,NA,NA,NA,NA,NA,sd,NA,4,NA,NA,NA,NA,NA,NA,NA,NA,NA,NA,NA,NA,NA,NA,NA,NA,NA,NA,NA
76d8c,Deep Question,html.Page,3_0_5_0_0_0_0,NA,NA,form submission,12927.100000191,749105.30000019,749099.5,749114.7,762041.80000019,762042.10000014,2024-03-04T16:49:55Z,762056.7,NULL,Toleranz,kuvumiliana,d,NA,NA,NA,mapendano,NA,NA,5,NA,NA,NA,NA,NA,NA,NA,NA,NA,NA,NA,NA,NA,NA,NA,NA,NA,NA,NA
76d8c,"""Richtig""-Screen",canvas.Screen,3_0_5_0_0_0_1,NA,NA,skipped,NA,762045.20000005,NA,NA,762041.80000019,762045.30000019,2024-03-04T16:49:55Z,762056.7,NULL,Toleranz,kuvumiliana,d,NA,NA,NA,NA,sdf,NA,5,NA,NA,NA,NA,NA,NA,NA,NA,NA,NA,NA,NA,NA,NA,NA,NA,NA,NA,NA
76d8c,"""Falsch""-Screen",canvas.Screen,3_0_5_0_0_0_2,NA,NA,timeout,4996.9,762046.10000014,762040.23,762056.7,767037.1,767037.4000001,2024-03-04T16:50:00Z,767053.6,NULL,Toleranz,kuvumiliana,d,NA,NA,NA,NA,sdf,0,5,NA,NA,NA,NA,NA,NA,NA,NA,NA,NA,NA,NA,NA,NA,NA,NA,NA,NA,NA
76d8c,deep,flow.Sequence,3_0_5_0_0_0,NA,NA,completion,17922.4,749105.30000019,749099.5,749114.7,767037.1,767037.5,2024-03-04T16:50:00Z,767053.6,NULL,Toleranz,kuvumiliana,d,NA,NA,NA,NA,sdf,NA,5,NA,NA,NA,NA,NA,NA,NA,NA,NA,NA,NA,NA,NA,NA,NA,NA,NA,NA,NA
76d8c,shallow,flow.Sequence,3_0_5_0_0_1,NA,NA,skipped,NA,767037.5,NA,NA,767037.1,767038.9000001,2024-03-04T16:50:00Z,767053.6,NULL,Toleranz,kuvumiliana,d,NA,NA,NA,NA,sdf,NA,5,NA,NA,NA,NA,NA,NA,NA,NA,NA,NA,NA,NA,NA,NA,NA,NA,NA,NA,NA
76d8c,task,flow.Sequence,3_0_5_0_0,NA,NA,completion,17922.4,749105.30000019,749099.5,749114.7,767037.1,767039.10000014,2024-03-04T16:50:00Z,767053.6,NULL,Toleranz,kuvumiliana,d,NA,NA,NA,NA,sdf,NA,5,NA,NA,NA,NA,NA,NA,NA,NA,NA,NA,NA,NA,NA,NA,NA,NA,NA,NA,NA
76d8c,deep,flow.Sequence,3_0_5_0_1_0,NA,NA,skipped,NA,767039.10000014,NA,NA,767037.1,767039.10000014,2024-03-04T16:50:00Z,767053.6,NULL,Inhalt,yaliyomo,s,kishawishi,hifadhi,kutembea,NA,sdf,NA,5,NA,NA,NA,NA,NA,NA,NA,NA,NA,NA,NA,NA,NA,NA,NA,NA,NA,NA,NA
76d8c,Shallow Question,html.Page,3_0_5_0_1_1_0,NA,NA,form submission,2713.7000001908,767039.20000005,767037.1,767053.6,769767.30000019,769767.5,2024-03-04T16:50:02Z,769769.716,NULL,Inhalt,yaliyomo,s,kishawishi,hifadhi,kutembea,yaliyomo,NA,NA,5,NA,NA,NA,NA,NA,NA,NA,NA,NA,NA,NA,NA,NA,NA,NA,NA,NA,NA,NA
76d8c,"""Richtig""-Screen",canvas.Screen,3_0_5_0_1_1_1,NA,NA,timeout,4996.284,769770.4000001,769769.716,769769.716,774749,774749.80000019,2024-03-04T16:50:07Z,774766,NULL,Inhalt,yaliyomo,s,kishawishi,hifadhi,kutembea,NA,sdf,1,5,NA,NA,NA,NA,NA,NA,NA,NA,NA,NA,NA,NA,NA,NA,NA,NA,NA,NA,NA
76d8c,"""Falsch""-Screen",canvas.Screen,3_0_5_0_1_1_2,NA,NA,skipped,NA,774754.9000001,NA,NA,774749,774754.9000001,2024-03-04T16:50:07Z,774766,NULL,Inhalt,yaliyomo,s,kishawishi,hifadhi,kutembea,NA,sdf,NA,5,NA,NA,NA,NA,NA,NA,NA,NA,NA,NA,NA,NA,NA,NA,NA,NA,NA,NA,NA
76d8c,shallow,flow.Sequence,3_0_5_0_1_1,NA,NA,completion,7695.4,767039.10000014,767037.1,767053.6,774749,774755,2024-03-04T16:50:07Z,774766,NULL,Inhalt,yaliyomo,s,kishawishi,hifadhi,kutembea,NA,sdf,NA,5,NA,NA,NA,NA,NA,NA,NA,NA,NA,NA,NA,NA,NA,NA,NA,NA,NA,NA,NA
76d8c,task,flow.Sequence,3_0_5_0_1,NA,NA,completion,7695.4,767039.10000014,767037.1,767053.6,774749,774755.10000014,2024-03-04T16:50:07Z,774766,NULL,Inhalt,yaliyomo,s,kishawishi,hifadhi,kutembea,NA,sdf,NA,5,NA,NA,NA,NA,NA,NA,NA,NA,NA,NA,NA,NA,NA,NA,NA,NA,NA,NA,NA
76d8c,Deep Question,html.Page,3_0_5_0_2_0_0,NA,NA,form submission,2806.6000001431,774755.20000005,774749,774766,777572.60000014,777572.9000001,2024-03-04T16:50:10Z,777581.182,NULL,Schlange,foleni,d,NA,NA,NA,foleni,NA,NA,5,NA,NA,NA,NA,NA,NA,NA,NA,NA,NA,NA,NA,NA,NA,NA,NA,NA,NA,NA
76d8c,"""Richtig""-Screen",canvas.Screen,3_0_5_0_2_0_1,NA,NA,timeout,4996.618,777573.60000014,777581.182,777581.182,782560.8,782561.30000019,2024-03-04T16:50:15Z,782577.8,NULL,Schlange,foleni,d,NA,NA,NA,NA,sdf,1,5,NA,NA,NA,NA,NA,NA,NA,NA,NA,NA,NA,NA,NA,NA,NA,NA,NA,NA,NA
76d8c,"""Falsch""-Screen",canvas.Screen,3_0_5_0_2_0_2,NA,NA,skipped,NA,782562.60000014,NA,NA,782560.8,782562.70000005,2024-03-04T16:50:15Z,782577.8,NULL,Schlange,foleni,d,NA,NA,NA,NA,sdf,NA,5,NA,NA,NA,NA,NA,NA,NA,NA,NA,NA,NA,NA,NA,NA,NA,NA,NA,NA,NA
76d8c,deep,flow.Sequence,3_0_5_0_2_0,NA,NA,completion,7794.8,774755.10000014,774749,774766,782560.8,782562.9000001,2024-03-04T16:50:15Z,782577.8,NULL,Schlange,foleni,d,NA,NA,NA,NA,sdf,NA,5,NA,NA,NA,NA,NA,NA,NA,NA,NA,NA,NA,NA,NA,NA,NA,NA,NA,NA,NA
76d8c,shallow,flow.Sequence,3_0_5_0_2_1,NA,NA,skipped,NA,782562.9000001,NA,NA,782560.8,782562.9000001,2024-03-04T16:50:15Z,782577.8,NULL,Schlange,foleni,d,NA,NA,NA,NA,sdf,NA,5,NA,NA,NA,NA,NA,NA,NA,NA,NA,NA,NA,NA,NA,NA,NA,NA,NA,NA,NA
76d8c,task,flow.Sequence,3_0_5_0_2,NA,NA,completion,7794.8,774755.10000014,774749,774766,782560.8,782563,2024-03-04T16:50:15Z,782577.8,NULL,Schlange,foleni,d,NA,NA,NA,NA,sdf,NA,5,NA,NA,NA,NA,NA,NA,NA,NA,NA,NA,NA,NA,NA,NA,NA,NA,NA,NA,NA
76d8c,deep,flow.Sequence,3_0_5_0_3_0,NA,NA,skipped,NA,782563,NA,NA,782560.8,782563,2024-03-04T16:50:15Z,782577.8,NULL,Vermutung,udhanifu,s,haramia,tikisho,itifaki,NA,sdf,NA,5,NA,NA,NA,NA,NA,NA,NA,NA,NA,NA,NA,NA,NA,NA,NA,NA,NA,NA,NA
76d8c,Shallow Question,html.Page,3_0_5_0_3_1_0,NA,NA,form submission,3624.7,782563.10000014,782560.8,782577.8,786202.5,786202.80000019,2024-03-04T16:50:19Z,786208.6,NULL,Vermutung,udhanifu,s,haramia,tikisho,itifaki,udhanifu,NA,NA,5,NA,NA,NA,NA,NA,NA,NA,NA,NA,NA,NA,NA,NA,NA,NA,NA,NA,NA,NA
76d8c,"""Richtig""-Screen",canvas.Screen,3_0_5_0_3_1_1,NA,NA,timeout,4997.5,786205.70000005,786195.4,786208.6,791189.4,791189.80000019,2024-03-04T16:50:24Z,791206.1,NULL,Vermutung,udhanifu,s,haramia,tikisho,itifaki,NA,sdf,1,5,NA,NA,NA,NA,NA,NA,NA,NA,NA,NA,NA,NA,NA,NA,NA,NA,NA,NA,NA
76d8c,"""Falsch""-Screen",canvas.Screen,3_0_5_0_3_1_2,NA,NA,skipped,NA,791191.70000005,NA,NA,791189.4,791191.70000005,2024-03-04T16:50:24Z,791206.1,NULL,Vermutung,udhanifu,s,haramia,tikisho,itifaki,NA,sdf,NA,5,NA,NA,NA,NA,NA,NA,NA,NA,NA,NA,NA,NA,NA,NA,NA,NA,NA,NA,NA
76d8c,shallow,flow.Sequence,3_0_5_0_3_1,NA,NA,completion,8611.6,782563.10000014,782560.8,782577.8,791189.4,791191.80000019,2024-03-04T16:50:24Z,791206.1,NULL,Vermutung,udhanifu,s,haramia,tikisho,itifaki,NA,sdf,NA,5,NA,NA,NA,NA,NA,NA,NA,NA,NA,NA,NA,NA,NA,NA,NA,NA,NA,NA,NA
76d8c,task,flow.Sequence,3_0_5_0_3,NA,NA,completion,8611.6,782563,782560.8,782577.8,791189.4,791191.9000001,2024-03-04T16:50:24Z,791206.1,NULL,Vermutung,udhanifu,s,haramia,tikisho,itifaki,NA,sdf,NA,5,NA,NA,NA,NA,NA,NA,NA,NA,NA,NA,NA,NA,NA,NA,NA,NA,NA,NA,NA
76d8c,Deep Question,html.Page,3_0_5_0_4_0_0,NA,NA,form submission,11578.500000143,791191.9000001,791189.4,791206.1,802784.60000014,802784.80000019,2024-03-04T16:50:35Z,802798.4,NULL,Annäherung,maegesho,d,NA,NA,NA,maengesho,NA,NA,5,NA,NA,NA,NA,NA,NA,NA,NA,NA,NA,NA,NA,NA,NA,NA,NA,NA,NA,NA
76d8c,"""Richtig""-Screen",canvas.Screen,3_0_5_0_4_0_1,NA,NA,skipped,NA,802787.80000019,NA,NA,802784.60000014,802788,2024-03-04T16:50:35Z,802798.4,NULL,Annäherung,maegesho,d,NA,NA,NA,NA,sdf,NA,5,NA,NA,NA,NA,NA,NA,NA,NA,NA,NA,NA,NA,NA,NA,NA,NA,NA,NA,NA
76d8c,"""Falsch""-Screen",canvas.Screen,3_0_5_0_4_0_2,NA,NA,timeout,4997.4,802788.60000014,802781.9,802798.4,807779.1,807779.5,2024-03-04T16:50:40Z,807795.8,NULL,Annäherung,maegesho,d,NA,NA,NA,NA,sdf,0,5,NA,NA,NA,NA,NA,NA,NA,NA,NA,NA,NA,NA,NA,NA,NA,NA,NA,NA,NA
76d8c,deep,flow.Sequence,3_0_5_0_4_0,NA,NA,completion,16573,791191.9000001,791189.4,791206.1,807779.1,807779.60000014,2024-03-04T16:50:40Z,807795.8,NULL,Annäherung,maegesho,d,NA,NA,NA,NA,sdf,NA,5,NA,NA,NA,NA,NA,NA,NA,NA,NA,NA,NA,NA,NA,NA,NA,NA,NA,NA,NA
76d8c,shallow,flow.Sequence,3_0_5_0_4_1,NA,NA,skipped,NA,807779.60000014,NA,NA,807779.1,807779.60000014,2024-03-04T16:50:40Z,807795.8,NULL,Annäherung,maegesho,d,NA,NA,NA,NA,sdf,NA,5,NA,NA,NA,NA,NA,NA,NA,NA,NA,NA,NA,NA,NA,NA,NA,NA,NA,NA,NA
76d8c,task,flow.Sequence,3_0_5_0_4,NA,NA,completion,16573,791191.9000001,791189.4,791206.1,807779.1,807779.70000005,2024-03-04T16:50:40Z,807795.8,NULL,Annäherung,maegesho,d,NA,NA,NA,NA,sdf,NA,5,NA,NA,NA,NA,NA,NA,NA,NA,NA,NA,NA,NA,NA,NA,NA,NA,NA,NA,NA
76d8c,deep,flow.Sequence,3_0_5_0_5_0,NA,NA,skipped,NA,807779.80000019,NA,NA,807779.1,807779.80000019,2024-03-04T16:50:40Z,807795.8,NULL,Beweis,ushahidi,s,marudio,kizuizi,mtendaji,NA,sdf,NA,5,NA,NA,NA,NA,NA,NA,NA,NA,NA,NA,NA,NA,NA,NA,NA,NA,NA,NA,NA
76d8c,Shallow Question,html.Page,3_0_5_0_5_1_0,NA,NA,form submission,4240.800000143,807779.80000019,807779.1,807795.8,812036.60000014,812036.80000019,2024-03-04T16:50:45Z,812042.8,NULL,Beweis,ushahidi,s,marudio,kizuizi,mtendaji,ushahidi,NA,NA,5,NA,NA,NA,NA,NA,NA,NA,NA,NA,NA,NA,NA,NA,NA,NA,NA,NA,NA,NA
76d8c,"""Richtig""-Screen",canvas.Screen,3_0_5_0_5_1_1,NA,NA,timeout,4997.5,812039.80000019,812030.2,812042.8,817023.4,817024.20000005,2024-03-04T16:50:49Z,817040.3,NULL,Beweis,ushahidi,s,marudio,kizuizi,mtendaji,NA,sdf,1,5,NA,NA,NA,NA,NA,NA,NA,NA,NA,NA,NA,NA,NA,NA,NA,NA,NA,NA,NA
76d8c,"""Falsch""-Screen",canvas.Screen,3_0_5_0_5_1_2,NA,NA,skipped,NA,817029,NA,NA,817023.4,817029.10000014,2024-03-04T16:50:50Z,817040.3,NULL,Beweis,ushahidi,s,marudio,kizuizi,mtendaji,NA,sdf,NA,5,NA,NA,NA,NA,NA,NA,NA,NA,NA,NA,NA,NA,NA,NA,NA,NA,NA,NA,NA
76d8c,shallow,flow.Sequence,3_0_5_0_5_1,NA,NA,completion,9227.6,807779.80000019,807779.1,807795.8,817023.4,817029.20000005,2024-03-04T16:50:50Z,817040.3,NULL,Beweis,ushahidi,s,marudio,kizuizi,mtendaji,NA,sdf,NA,5,NA,NA,NA,NA,NA,NA,NA,NA,NA,NA,NA,NA,NA,NA,NA,NA,NA,NA,NA
76d8c,task,flow.Sequence,3_0_5_0_5,NA,NA,completion,9227.6,807779.80000019,807779.1,807795.8,817023.4,817029.20000005,2024-03-04T16:50:50Z,817040.3,NULL,Beweis,ushahidi,s,marudio,kizuizi,mtendaji,NA,sdf,NA,5,NA,NA,NA,NA,NA,NA,NA,NA,NA,NA,NA,NA,NA,NA,NA,NA,NA,NA,NA
76d8c,Deep Question,html.Page,3_0_5_0_6_0_0,NA,NA,form submission,18060.500000191,817029.4000001,817023.4,817040.3,835100.80000019,835100.9000001,2024-03-04T16:51:08Z,835112,NULL,Sympathie,mapendano,d,NA,NA,NA,mopanda,NA,NA,5,NA,NA,NA,NA,NA,NA,NA,NA,NA,NA,NA,NA,NA,NA,NA,NA,NA,NA,NA
76d8c,"""Richtig""-Screen",canvas.Screen,3_0_5_0_6_0_1,NA,NA,skipped,NA,835104.10000014,NA,NA,835100.80000019,835104.20000005,2024-03-04T16:51:08Z,835112,NULL,Sympathie,mapendano,d,NA,NA,NA,NA,sdf,NA,5,NA,NA,NA,NA,NA,NA,NA,NA,NA,NA,NA,NA,NA,NA,NA,NA,NA,NA,NA
76d8c,"""Falsch""-Screen",canvas.Screen,3_0_5_0_6_0_2,NA,NA,timeout,4997.4,835104.80000019,835097.388,835112,840092.6,840093.5,2024-03-04T16:51:13Z,840109.4,NULL,Sympathie,mapendano,d,NA,NA,NA,NA,sdf,0,5,NA,NA,NA,NA,NA,NA,NA,NA,NA,NA,NA,NA,NA,NA,NA,NA,NA,NA,NA
76d8c,deep,flow.Sequence,3_0_5_0_6_0,NA,NA,completion,23052.3,817029.30000019,817023.4,817040.3,840092.6,840094,2024-03-04T16:51:13Z,840109.4,NULL,Sympathie,mapendano,d,NA,NA,NA,NA,sdf,NA,5,NA,NA,NA,NA,NA,NA,NA,NA,NA,NA,NA,NA,NA,NA,NA,NA,NA,NA,NA
76d8c,shallow,flow.Sequence,3_0_5_0_6_1,NA,NA,skipped,NA,840094.20000005,NA,NA,840092.6,840094.30000019,2024-03-04T16:51:13Z,840109.4,NULL,Sympathie,mapendano,d,NA,NA,NA,NA,sdf,NA,5,NA,NA,NA,NA,NA,NA,NA,NA,NA,NA,NA,NA,NA,NA,NA,NA,NA,NA,NA
76d8c,task,flow.Sequence,3_0_5_0_6,NA,NA,completion,23052.3,817029.30000019,817023.4,817040.3,840092.6,840094.5,2024-03-04T16:51:13Z,840109.4,NULL,Sympathie,mapendano,d,NA,NA,NA,NA,sdf,NA,5,NA,NA,NA,NA,NA,NA,NA,NA,NA,NA,NA,NA,NA,NA,NA,NA,NA,NA,NA
76d8c,deep,flow.Sequence,3_0_5_0_7_0,NA,NA,skipped,NA,840094.60000014,NA,NA,840092.6,840094.80000019,2024-03-04T16:51:13Z,840109.4,NULL,Polizist,msongora,s,simanzi,mandhari,nidhamu,NA,sdf,NA,5,NA,NA,NA,NA,NA,NA,NA,NA,NA,NA,NA,NA,NA,NA,NA,NA,NA,NA,NA
76d8c,Shallow Question,html.Page,3_0_5_0_7_1_0,NA,NA,form submission,4763.6,840094.9000001,840092.6,840109.4,844873,844873.20000005,2024-03-04T16:51:17Z,844874.524,NULL,Polizist,msongora,s,simanzi,mandhari,nidhamu,msongora,NA,NA,5,NA,NA,NA,NA,NA,NA,NA,NA,NA,NA,NA,NA,NA,NA,NA,NA,NA,NA,NA
76d8c,"""Richtig""-Screen",canvas.Screen,3_0_5_0_7_1_1,NA,NA,timeout,4995.676,844876.10000014,844874.524,844874.524,849853.4,849854.20000005,2024-03-04T16:51:22Z,849870.2,NULL,Polizist,msongora,s,simanzi,mandhari,nidhamu,NA,sdf,1,5,NA,NA,NA,NA,NA,NA,NA,NA,NA,NA,NA,NA,NA,NA,NA,NA,NA,NA,NA
76d8c,"""Falsch""-Screen",canvas.Screen,3_0_5_0_7_1_2,NA,NA,skipped,NA,849859.10000014,NA,NA,849853.4,849859.10000014,2024-03-04T16:51:22Z,849870.2,NULL,Polizist,msongora,s,simanzi,mandhari,nidhamu,NA,sdf,NA,5,NA,NA,NA,NA,NA,NA,NA,NA,NA,NA,NA,NA,NA,NA,NA,NA,NA,NA,NA
76d8c,shallow,flow.Sequence,3_0_5_0_7_1,NA,NA,completion,9744,840094.9000001,840092.6,840109.4,849853.4,849859.20000005,2024-03-04T16:51:22Z,849870.2,NULL,Polizist,msongora,s,simanzi,mandhari,nidhamu,NA,sdf,NA,5,NA,NA,NA,NA,NA,NA,NA,NA,NA,NA,NA,NA,NA,NA,NA,NA,NA,NA,NA
76d8c,task,flow.Sequence,3_0_5_0_7,NA,NA,completion,9744,840094.60000014,840092.6,840109.4,849853.4,849859.30000019,2024-03-04T16:51:22Z,849870.2,NULL,Polizist,msongora,s,simanzi,mandhari,nidhamu,NA,sdf,NA,5,NA,NA,NA,NA,NA,NA,NA,NA,NA,NA,NA,NA,NA,NA,NA,NA,NA,NA,NA
76d8c,block,flow.Loop,3_0_5_0,NA,NA,completion,100738.7,749105.30000019,749099.5,749114.7,849853.4,849859.4000001,2024-03-04T16:51:22Z,849870.2,NULL,NA,NA,NA,NA,NA,NA,NA,sdf,NA,5,NA,NA,NA,NA,NA,NA,NA,NA,NA,NA,NA,NA,NA,NA,NA,NA,NA,NA,NA
76d8c,weiter,canvas.Screen,3_0_5_1,sdf,keypress(Space),response,997.60000019078,849859.4000001,849853.4,849870.2,850867.80000019,850868.4000001,2024-03-04T16:51:23Z,851202.3,NULL,NA,NA,NA,NA,NA,NA,NA,sdf,NA,5,NA,NA,NA,NA,NA,NA,NA,NA,NA,NA,NA,NA,NA,NA,NA,NA,NA,NA,NA
76d8c,check continue,flow.Sequence,3_0_5,NA,NA,completion,101753.10000019,749105.30000019,749099.5,749114.7,850867.80000019,850868.4000001,2024-03-04T16:51:23Z,851202.3,NULL,NA,NA,NA,NA,NA,NA,NA,sdf,NA,5,NA,NA,NA,NA,NA,NA,NA,NA,NA,NA,NA,NA,NA,NA,NA,NA,NA,NA,NA
76d8c,check continue,flow.Sequence,3_0_6,NA,NA,skipped,NA,850911.70000005,NA,NA,850867.80000019,850911.80000019,2024-03-04T16:51:23Z,851202.3,NULL,NA,NA,NA,NA,NA,NA,NA,dfs,NA,6,NA,NA,NA,NA,NA,NA,NA,NA,NA,NA,NA,NA,NA,NA,NA,NA,NA,NA,NA
76d8c,check continue,flow.Sequence,3_0_7,NA,NA,skipped,NA,850928.80000019,NA,NA,850867.80000019,850928.9000001,2024-03-04T16:51:23Z,851202.3,NULL,NA,NA,NA,NA,NA,NA,NA,df,NA,7,NA,NA,NA,NA,NA,NA,NA,NA,NA,NA,NA,NA,NA,NA,NA,NA,NA,NA,NA
76d8c,check continue,flow.Sequence,3_0_8,NA,NA,skipped,NA,850942.5,NA,NA,850867.80000019,850942.5,2024-03-04T16:51:23Z,851202.3,NULL,NA,NA,NA,NA,NA,NA,NA,dfs,NA,8,NA,NA,NA,NA,NA,NA,NA,NA,NA,NA,NA,NA,NA,NA,NA,NA,NA,NA,NA
76d8c,check continue,flow.Sequence,3_0_9,NA,NA,skipped,NA,850955.80000019,NA,NA,850867.80000019,850955.80000019,2024-03-04T16:51:23Z,851202.3,NULL,NA,NA,NA,NA,NA,NA,NA,dsf,NA,9,NA,NA,NA,NA,NA,NA,NA,NA,NA,NA,NA,NA,NA,NA,NA,NA,NA,NA,NA
76d8c,check continue,flow.Sequence,3_0_10,NA,NA,skipped,NA,850967.70000005,NA,NA,850867.80000019,850967.80000019,2024-03-04T16:51:23Z,851202.3,NULL,NA,NA,NA,NA,NA,NA,NA,df,NA,10,NA,NA,NA,NA,NA,NA,NA,NA,NA,NA,NA,NA,NA,NA,NA,NA,NA,NA,NA
76d8c,check continue,flow.Sequence,3_0_11,NA,NA,skipped,NA,850979.60000014,NA,NA,850867.80000019,850979.70000005,2024-03-04T16:51:23Z,851202.3,NULL,NA,NA,NA,NA,NA,NA,NA,dfs,NA,11,NA,NA,NA,NA,NA,NA,NA,NA,NA,NA,NA,NA,NA,NA,NA,NA,NA,NA,NA
76d8c,check continue,flow.Sequence,3_0_12,NA,NA,skipped,NA,850992.5,NA,NA,850867.80000019,850992.60000014,2024-03-04T16:51:23Z,851202.3,NULL,NA,NA,NA,NA,NA,NA,NA,dsf,NA,12,NA,NA,NA,NA,NA,NA,NA,NA,NA,NA,NA,NA,NA,NA,NA,NA,NA,NA,NA
76d8c,check continue,flow.Sequence,3_0_13,NA,NA,skipped,NA,851005.80000019,NA,NA,850867.80000019,851005.9000001,2024-03-04T16:51:23Z,851202.3,NULL,NA,NA,NA,NA,NA,NA,NA,dsf,NA,13,NA,NA,NA,NA,NA,NA,NA,NA,NA,NA,NA,NA,NA,NA,NA,NA,NA,NA,NA
76d8c,check continue,flow.Sequence,3_0_14,NA,NA,skipped,NA,851018.30000019,NA,NA,850867.80000019,851018.4000001,2024-03-04T16:51:23Z,851202.3,NULL,NA,NA,NA,NA,NA,NA,NA,NA,NA,14,NA,NA,NA,NA,NA,NA,NA,NA,NA,NA,NA,NA,NA,NA,NA,NA,NA,NA,NA
76d8c,check continue,flow.Sequence,3_0_15,NA,NA,skipped,NA,851029.80000019,NA,NA,850867.80000019,851029.9000001,2024-03-04T16:51:24Z,851202.3,NULL,NA,NA,NA,NA,NA,NA,NA,NA,NA,15,NA,NA,NA,NA,NA,NA,NA,NA,NA,NA,NA,NA,NA,NA,NA,NA,NA,NA,NA
76d8c,check continue,flow.Sequence,3_0_16,NA,NA,skipped,NA,851040.9000001,NA,NA,850867.80000019,851040.9000001,2024-03-04T16:51:24Z,851202.3,NULL,NA,NA,NA,NA,NA,NA,NA,NA,NA,16,NA,NA,NA,NA,NA,NA,NA,NA,NA,NA,NA,NA,NA,NA,NA,NA,NA,NA,NA
76d8c,check continue,flow.Sequence,3_0_17,NA,NA,skipped,NA,851052.20000005,NA,NA,850867.80000019,851052.30000019,2024-03-04T16:51:24Z,851202.3,NULL,NA,NA,NA,NA,NA,NA,NA,NA,NA,17,NA,NA,NA,NA,NA,NA,NA,NA,NA,NA,NA,NA,NA,NA,NA,NA,NA,NA,NA
76d8c,check continue,flow.Sequence,3_0_18,NA,NA,skipped,NA,851063.30000019,NA,NA,850867.80000019,851063.30000019,2024-03-04T16:51:24Z,851202.3,NULL,NA,NA,NA,NA,NA,NA,NA,NA,NA,18,NA,NA,NA,NA,NA,NA,NA,NA,NA,NA,NA,NA,NA,NA,NA,NA,NA,NA,NA
76d8c,check continue,flow.Sequence,3_0_19,NA,NA,skipped,NA,851074.20000005,NA,NA,850867.80000019,851074.20000005,2024-03-04T16:51:24Z,851202.3,NULL,NA,NA,NA,NA,NA,NA,NA,NA,NA,19,NA,NA,NA,NA,NA,NA,NA,NA,NA,NA,NA,NA,NA,NA,NA,NA,NA,NA,NA
76d8c,check continue,flow.Sequence,3_0_20,NA,NA,skipped,NA,851085.20000005,NA,NA,850867.80000019,851085.30000019,2024-03-04T16:51:24Z,851202.3,NULL,NA,NA,NA,NA,NA,NA,NA,NA,NA,20,NA,NA,NA,NA,NA,NA,NA,NA,NA,NA,NA,NA,NA,NA,NA,NA,NA,NA,NA
76d8c,check continue,flow.Sequence,3_0_21,NA,NA,skipped,NA,851096.30000019,NA,NA,850867.80000019,851096.4000001,2024-03-04T16:51:24Z,851202.3,NULL,NA,NA,NA,NA,NA,NA,NA,NA,NA,21,NA,NA,NA,NA,NA,NA,NA,NA,NA,NA,NA,NA,NA,NA,NA,NA,NA,NA,NA
76d8c,check continue,flow.Sequence,3_0_22,NA,NA,skipped,NA,851107.10000014,NA,NA,850867.80000019,851107.20000005,2024-03-04T16:51:24Z,851202.3,NULL,NA,NA,NA,NA,NA,NA,NA,NA,NA,22,NA,NA,NA,NA,NA,NA,NA,NA,NA,NA,NA,NA,NA,NA,NA,NA,NA,NA,NA
76d8c,check continue,flow.Sequence,3_0_23,NA,NA,skipped,NA,851119.20000005,NA,NA,850867.80000019,851119.30000019,2024-03-04T16:51:24Z,851202.3,NULL,NA,NA,NA,NA,NA,NA,NA,NA,NA,23,NA,NA,NA,NA,NA,NA,NA,NA,NA,NA,NA,NA,NA,NA,NA,NA,NA,NA,NA
76d8c,check continue,flow.Sequence,3_0_24,NA,NA,skipped,NA,851130,NA,NA,850867.80000019,851130.10000014,2024-03-04T16:51:24Z,851202.3,NULL,NA,NA,NA,NA,NA,NA,NA,NA,NA,24,NA,NA,NA,NA,NA,NA,NA,NA,NA,NA,NA,NA,NA,NA,NA,NA,NA,NA,NA
76d8c,check continue,flow.Sequence,3_0_25,NA,NA,skipped,NA,851142.20000005,NA,NA,850867.80000019,851142.30000019,2024-03-04T16:51:24Z,851202.3,NULL,NA,NA,NA,NA,NA,NA,NA,NA,NA,25,NA,NA,NA,NA,NA,NA,NA,NA,NA,NA,NA,NA,NA,NA,NA,NA,NA,NA,NA
76d8c,check continue,flow.Sequence,3_0_26,NA,NA,skipped,NA,851152.20000005,NA,NA,850867.80000019,851152.20000005,2024-03-04T16:51:24Z,851202.3,NULL,NA,NA,NA,NA,NA,NA,NA,NA,NA,26,NA,NA,NA,NA,NA,NA,NA,NA,NA,NA,NA,NA,NA,NA,NA,NA,NA,NA,NA
76d8c,check continue,flow.Sequence,3_0_27,NA,NA,skipped,NA,851163.9000001,NA,NA,850867.80000019,851164,2024-03-04T16:51:24Z,851202.3,NULL,NA,NA,NA,NA,NA,NA,NA,NA,NA,27,NA,NA,NA,NA,NA,NA,NA,NA,NA,NA,NA,NA,NA,NA,NA,NA,NA,NA,NA
76d8c,check continue,flow.Sequence,3_0_28,NA,NA,skipped,NA,851174.5,NA,NA,850867.80000019,851174.60000014,2024-03-04T16:51:24Z,851202.3,NULL,NA,NA,NA,NA,NA,NA,NA,NA,NA,28,NA,NA,NA,NA,NA,NA,NA,NA,NA,NA,NA,NA,NA,NA,NA,NA,NA,NA,NA
76d8c,check continue,flow.Sequence,3_0_29,NA,NA,skipped,NA,851186,NA,NA,850867.80000019,851186.20000005,2024-03-04T16:51:24Z,851202.3,NULL,NA,NA,NA,NA,NA,NA,NA,NA,NA,29,NA,NA,NA,NA,NA,NA,NA,NA,NA,NA,NA,NA,NA,NA,NA,NA,NA,NA,NA
76d8c,until continue,flow.Loop,3_0,NA,NA,completion,596433.80000019,254409.70000005,254423.288,254434,850867.80000019,851186.20000005,2024-03-04T16:51:24Z,851202.3,NULL,NA,NA,NA,NA,NA,NA,NA,NA,NA,NA,NA,NA,NA,NA,NA,NA,NA,NA,NA,NA,NA,NA,NA,NA,NA,NA,NA,NA,NA
76d8c,block 1,flow.Sequence,3,NA,NA,completion,596433.80000019,254409.70000005,254423.288,254434,850867.80000019,851186.20000005,2024-03-04T16:51:24Z,851202.3,NULL,NA,NA,NA,NA,NA,NA,NA,NA,NA,NA,NA,NA,NA,NA,NA,NA,NA,NA,NA,NA,NA,NA,NA,NA,NA,NA,NA,NA,NA
76d8c,1.Part Over,canvas.Screen,4,NA,keypress(Space),response,9271.0000001907,851186.30000019,851186.814,851202.3,860473.30000019,860476.10000014,2024-03-04T16:51:33Z,860529.7,NULL,NA,NA,NA,NA,NA,NA,NA,NA,NA,NA,NA,NA,NA,NA,NA,NA,NA,NA,NA,NA,NA,NA,NA,NA,NA,NA,NA,NA,NA
