observation,sender,sender_type,sender_id,response,response_action,ended_on,duration,time_run,time_render,time_show,time_end,time_commit,timestamp,time_switch,german,swahili,enc,distractor1,distractor2,distractor3,response_2,x,correct,distractors,url_vp,url_sess,meta_labjs_version,meta_location,meta_user_agent,meta_platform,meta_language,meta_locale,meta_time_zone,meta_timezone_offset,meta_screen_width,meta_screen_height,meta_scroll_width,meta_scroll_height,meta_window_inner_width,meta_window_inner_height,meta_device_pixel_ratio,meta_labjs_build_flavor,meta_labjs_build_commit
d1ba9,Introduction delayed retrieval,canvas.Screen,0,weiter,keypress(Space),response,5368.423000006,1385.599999994,668.631,1401.977,6770.400000006,6772.400000006,2023-11-16T18:34:03Z,6776.643,NA,NA,NA,NA,NA,NA,NA,NA,NA,NULL,149,2,20.2.4,https://neurocog.fernuni.ch/studies/vweber/jbaenninger/delayed/index.html?vp=149&sess=2,"Mozilla/5.0 (Windows NT 10.0; Win64; x64) AppleWebKit/537.36 (KHTML, like Gecko) Chrome/119.0.0.0 Safari/537.36 Edg/119.0.0.0",Win32,de,de-CH,Europe/Zurich,-60,1536,864,1488,686,1488,734,1.25,production,f5b4a49f956347addd546a832a3327688c2c0fef
d1ba9,Deep Question,html.Page,1_0_0_0,NA,NA,form submission,9732.257000006,6772.6999999881,6758.004,6776.643,16508.900000006,16509.099999994,2023-11-16T18:34:13Z,16514.032,Gefährdung,kuhatarisha,s,uchokozi,udhaifu,makorowezo,mhauda,NA,NA,NULL,NA,NA,NA,NA,NA,NA,NA,NA,NA,NA,NA,NA,NA,NA,NA,NA,NA,NA,NA
d1ba9,Save data screen,canvas.Screen,1_0_0_1,NA,NA,timeout,505.499,16509.800000012,16505.462,16514.032,17002.899,17003.800000012,2023-11-16T18:34:13Z,17019.531,Gefährdung,kuhatarisha,s,uchokozi,udhaifu,makorowezo,NA,NA,0,NULL,NA,NA,NA,NA,NA,NA,NA,NA,NA,NA,NA,NA,NA,NA,NA,NA,NA,NA,NA
d1ba9,deep,flow.Sequence,1_0_0,NA,NA,completion,10226.256,6772.6999999881,6758.004,6776.643,17002.899,17004,2023-11-16T18:34:13Z,17019.531,Gefährdung,kuhatarisha,s,uchokozi,udhaifu,makorowezo,NA,NA,NA,NULL,NA,NA,NA,NA,NA,NA,NA,NA,NA,NA,NA,NA,NA,NA,NA,NA,NA,NA,NA
d1ba9,task,flow.Sequence,1_0,NA,NA,completion,10226.256,6772.6999999881,6758.004,6776.643,17002.899,17004.199999988,2023-11-16T18:34:13Z,17019.531,Gefährdung,kuhatarisha,s,uchokozi,udhaifu,makorowezo,NA,NA,NA,NULL,NA,NA,NA,NA,NA,NA,NA,NA,NA,NA,NA,NA,NA,NA,NA,NA,NA,NA,NA
d1ba9,Deep Question,html.Page,1_1_0_0,NA,NA,form submission,8502.6689999881,17004.300000012,17002.899,17019.531,25522.199999988,25522.599999994,2023-11-16T18:34:22Z,25527.278,Kultur,utamaduni,s,shetani,gerezani,mazingira,mgandu,NA,NA,NULL,NA,NA,NA,NA,NA,NA,NA,NA,NA,NA,NA,NA,NA,NA,NA,NA,NA,NA,NA
d1ba9,Save data screen,canvas.Screen,1_1_0_1,NA,NA,timeout,492.242,25523.800000012,25513.741,25527.278,26002.817,26003.5,2023-11-16T18:34:22Z,26019.52,Kultur,utamaduni,s,shetani,gerezani,mazingira,NA,NA,0,NULL,NA,NA,NA,NA,NA,NA,NA,NA,NA,NA,NA,NA,NA,NA,NA,NA,NA,NA,NA
d1ba9,deep,flow.Sequence,1_1_0,NA,NA,completion,8983.286,17004.300000012,17002.899,17019.531,26002.817,26003.599999994,2023-11-16T18:34:22Z,26019.52,Kultur,utamaduni,s,shetani,gerezani,mazingira,NA,NA,NA,NULL,NA,NA,NA,NA,NA,NA,NA,NA,NA,NA,NA,NA,NA,NA,NA,NA,NA,NA,NA
d1ba9,task,flow.Sequence,1_1,NA,NA,completion,8983.286,17004.199999988,17002.899,17019.531,26002.817,26003.800000012,2023-11-16T18:34:22Z,26019.52,Kultur,utamaduni,s,shetani,gerezani,mazingira,NA,NA,NA,NULL,NA,NA,NA,NA,NA,NA,NA,NA,NA,NA,NA,NA,NA,NA,NA,NA,NA,NA,NA
d1ba9,Deep Question,html.Page,1_2_0_0,NA,NA,form submission,38257.48,26003.900000006,26002.817,26019.52,64277,64277.5,2023-11-16T18:35:00Z,64289.268,Abrechnung,uhasibu,s,kusahihisha,mpambano,mashambulizi,ugadau,NA,NA,NULL,NA,NA,NA,NA,NA,NA,NA,NA,NA,NA,NA,NA,NA,NA,NA,NA,NA,NA,NA
d1ba9,Save data screen,canvas.Screen,1_2_0_1,NA,NA,timeout,494.438,64281,64272.611,64289.268,64767.018,64767.900000006,2023-11-16T18:35:01Z,64783.706,Abrechnung,uhasibu,s,kusahihisha,mpambano,mashambulizi,NA,NA,0,NULL,NA,NA,NA,NA,NA,NA,NA,NA,NA,NA,NA,NA,NA,NA,NA,NA,NA,NA,NA
d1ba9,deep,flow.Sequence,1_2_0,NA,NA,completion,38747.498,26003.900000006,26002.817,26019.52,64767.018,64768.199999988,2023-11-16T18:35:01Z,64783.706,Abrechnung,uhasibu,s,kusahihisha,mpambano,mashambulizi,NA,NA,NA,NULL,NA,NA,NA,NA,NA,NA,NA,NA,NA,NA,NA,NA,NA,NA,NA,NA,NA,NA,NA
d1ba9,task,flow.Sequence,1_2,NA,NA,completion,38747.498,26003.900000006,26002.817,26019.52,64767.018,64768.400000006,2023-11-16T18:35:01Z,64783.706,Abrechnung,uhasibu,s,kusahihisha,mpambano,mashambulizi,NA,NA,NA,NULL,NA,NA,NA,NA,NA,NA,NA,NA,NA,NA,NA,NA,NA,NA,NA,NA,NA,NA,NA
d1ba9,Deep Question,html.Page,1_3_0_0,NA,NA,form submission,13222.493999988,64768.599999994,64767.018,64783.706,78006.199999988,78006.5,2023-11-16T18:35:14Z,78011.821,Sänger,mwimbaji,d,msichana,shughuli,mshirika,hamidora,NA,NA,NULL,NA,NA,NA,NA,NA,NA,NA,NA,NA,NA,NA,NA,NA,NA,NA,NA,NA,NA,NA
d1ba9,Save data screen,canvas.Screen,1_3_0_1,NA,NA,timeout,494.989,78009.599999994,77998.857,78011.821,78490.112,78490.900000006,2023-11-16T18:35:15Z,78506.81,Sänger,mwimbaji,d,msichana,shughuli,mshirika,NA,NA,0,NULL,NA,NA,NA,NA,NA,NA,NA,NA,NA,NA,NA,NA,NA,NA,NA,NA,NA,NA,NA
d1ba9,deep,flow.Sequence,1_3_0,NA,NA,completion,13706.406,64768.599999994,64767.018,64783.706,78490.112,78491.199999988,2023-11-16T18:35:15Z,78506.81,Sänger,mwimbaji,d,msichana,shughuli,mshirika,NA,NA,NA,NULL,NA,NA,NA,NA,NA,NA,NA,NA,NA,NA,NA,NA,NA,NA,NA,NA,NA,NA,NA
d1ba9,task,flow.Sequence,1_3,NA,NA,completion,13706.406,64768.599999994,64767.018,64783.706,78490.112,78491.300000012,2023-11-16T18:35:15Z,78506.81,Sänger,mwimbaji,d,msichana,shughuli,mshirika,NA,NA,NA,NULL,NA,NA,NA,NA,NA,NA,NA,NA,NA,NA,NA,NA,NA,NA,NA,NA,NA,NA,NA
d1ba9,Deep Question,html.Page,1_4_0_0,NA,NA,form submission,14709.990000012,78491.599999994,78490.112,78506.81,93216.800000012,93217.199999988,2023-11-16T18:35:29Z,93222.361,Kreativität,ubunifu,d,mratibu,mwendelezo,makubaliano,rimika,NA,NA,NULL,NA,NA,NA,NA,NA,NA,NA,NA,NA,NA,NA,NA,NA,NA,NA,NA,NA,NA,NA
d1ba9,Save data screen,canvas.Screen,1_4_0_1,NA,NA,timeout,498.923,93220.800000012,93204.223,93222.361,93704.629,93705.300000012,2023-11-16T18:35:30Z,93721.284,Kreativität,ubunifu,d,mratibu,mwendelezo,makubaliano,NA,NA,0,NULL,NA,NA,NA,NA,NA,NA,NA,NA,NA,NA,NA,NA,NA,NA,NA,NA,NA,NA,NA
d1ba9,deep,flow.Sequence,1_4_0,NA,NA,completion,15197.819,78491.5,78490.112,78506.81,93704.629,93705.599999994,2023-11-16T18:35:30Z,93721.284,Kreativität,ubunifu,d,mratibu,mwendelezo,makubaliano,NA,NA,NA,NULL,NA,NA,NA,NA,NA,NA,NA,NA,NA,NA,NA,NA,NA,NA,NA,NA,NA,NA,NA
d1ba9,task,flow.Sequence,1_4,NA,NA,completion,15197.819,78491.5,78490.112,78506.81,93704.629,93705.800000012,2023-11-16T18:35:30Z,93721.284,Kreativität,ubunifu,d,mratibu,mwendelezo,makubaliano,NA,NA,NA,NULL,NA,NA,NA,NA,NA,NA,NA,NA,NA,NA,NA,NA,NA,NA,NA,NA,NA,NA,NA
d1ba9,Deep Question,html.Page,1_5_0_0,NA,NA,form submission,6738.0160000119,93705.900000006,93704.629,93721.284,100459.30000001,100459.59999999,2023-11-16T18:35:37Z,100461.666,Verzögerung,kuchelewa,s,mwakilishi,mwanauchumi,jaribio,unduhari,NA,NA,NULL,NA,NA,NA,NA,NA,NA,NA,NA,NA,NA,NA,NA,NA,NA,NA,NA,NA,NA,NA
d1ba9,Save data screen,canvas.Screen,1_5_0_1,NA,NA,timeout,495.43700000001,100463.40000001,100445.101,100461.666,100940.416,100941.30000001,2023-11-16T18:35:37Z,100957.103,Verzögerung,kuchelewa,s,mwakilishi,mwanauchumi,jaribio,NA,NA,0,NULL,NA,NA,NA,NA,NA,NA,NA,NA,NA,NA,NA,NA,NA,NA,NA,NA,NA,NA,NA
d1ba9,deep,flow.Sequence,1_5_0,NA,NA,completion,7219.132,93705.900000006,93704.629,93721.284,100940.416,100941.59999999,2023-11-16T18:35:37Z,100957.103,Verzögerung,kuchelewa,s,mwakilishi,mwanauchumi,jaribio,NA,NA,NA,NULL,NA,NA,NA,NA,NA,NA,NA,NA,NA,NA,NA,NA,NA,NA,NA,NA,NA,NA,NA
d1ba9,task,flow.Sequence,1_5,NA,NA,completion,7219.132,93705.900000006,93704.629,93721.284,100940.416,100941.69999999,2023-11-16T18:35:37Z,100957.103,Verzögerung,kuchelewa,s,mwakilishi,mwanauchumi,jaribio,NA,NA,NA,NULL,NA,NA,NA,NA,NA,NA,NA,NA,NA,NA,NA,NA,NA,NA,NA,NA,NA,NA,NA
d1ba9,Deep Question,html.Page,1_6_0_0,NA,NA,form submission,13336.397,100941.90000001,100940.416,100957.103,114293.5,114293.80000001,2023-11-16T18:35:51Z,114303.81,Kanzler,diwani,s,rasilmali,mahitaji,maabudu,dlaughi,NA,NA,NULL,NA,NA,NA,NA,NA,NA,NA,NA,NA,NA,NA,NA,NA,NA,NA,NA,NA,NA,NA
d1ba9,Save data screen,canvas.Screen,1_6_0_1,NA,NA,timeout,496.645,114297.69999999,114288.272,114303.81,114783.834,114784.69999999,2023-11-16T18:35:51Z,114800.455,Kanzler,diwani,s,rasilmali,mahitaji,maabudu,NA,NA,0,NULL,NA,NA,NA,NA,NA,NA,NA,NA,NA,NA,NA,NA,NA,NA,NA,NA,NA,NA,NA
d1ba9,deep,flow.Sequence,1_6_0,NA,NA,completion,13826.731,100941.90000001,100940.416,100957.103,114783.834,114784.90000001,2023-11-16T18:35:51Z,114800.455,Kanzler,diwani,s,rasilmali,mahitaji,maabudu,NA,NA,NA,NULL,NA,NA,NA,NA,NA,NA,NA,NA,NA,NA,NA,NA,NA,NA,NA,NA,NA,NA,NA
d1ba9,task,flow.Sequence,1_6,NA,NA,completion,13826.731,100941.90000001,100940.416,100957.103,114783.834,114785.09999999,2023-11-16T18:35:51Z,114800.455,Kanzler,diwani,s,rasilmali,mahitaji,maabudu,NA,NA,NA,NULL,NA,NA,NA,NA,NA,NA,NA,NA,NA,NA,NA,NA,NA,NA,NA,NA,NA,NA,NA
d1ba9,Deep Question,html.Page,1_7_0_0,NA,NA,form submission,8731.644999994,114785.30000001,114783.834,114800.455,123532.09999999,123532.30000001,2023-11-16T18:36:00Z,123538.477,System,maongozi,d,chokochoko,nuksani,mitaani,omineri,NA,NA,NULL,NA,NA,NA,NA,NA,NA,NA,NA,NA,NA,NA,NA,NA,NA,NA,NA,NA,NA,NA
d1ba9,Save data screen,canvas.Screen,1_7_0_1,NA,NA,timeout,499.755,123534.5,123525.679,123538.477,124021.575,124022.09999999,2023-11-16T18:36:00Z,124038.232,System,maongozi,d,chokochoko,nuksani,mitaani,NA,NA,0,NULL,NA,NA,NA,NA,NA,NA,NA,NA,NA,NA,NA,NA,NA,NA,NA,NA,NA,NA,NA
d1ba9,deep,flow.Sequence,1_7_0,NA,NA,completion,9221.12,114785.30000001,114783.834,114800.455,124021.575,124022.19999999,2023-11-16T18:36:00Z,124038.232,System,maongozi,d,chokochoko,nuksani,mitaani,NA,NA,NA,NULL,NA,NA,NA,NA,NA,NA,NA,NA,NA,NA,NA,NA,NA,NA,NA,NA,NA,NA,NA
d1ba9,task,flow.Sequence,1_7,NA,NA,completion,9221.12,114785.19999999,114783.834,114800.455,124021.575,124022.30000001,2023-11-16T18:36:00Z,124038.232,System,maongozi,d,chokochoko,nuksani,mitaani,NA,NA,NA,NULL,NA,NA,NA,NA,NA,NA,NA,NA,NA,NA,NA,NA,NA,NA,NA,NA,NA,NA,NA
d1ba9,Deep Question,html.Page,1_8_0_0,NA,NA,form submission,16564.768,124022.40000001,124021.575,124038.232,140603,140603.30000001,2023-11-16T18:36:17Z,140608.68,Aufstand,ugomaji,d,mazidio,msingi,kujieleza,hunduri,NA,NA,NULL,NA,NA,NA,NA,NA,NA,NA,NA,NA,NA,NA,NA,NA,NA,NA,NA,NA,NA,NA
d1ba9,Save data screen,canvas.Screen,1_8_0_1,NA,NA,timeout,499.299,140604.90000001,140590.358,140608.68,141091.298,141091.80000001,2023-11-16T18:36:17Z,141107.979,Aufstand,ugomaji,d,mazidio,msingi,kujieleza,NA,NA,0,NULL,NA,NA,NA,NA,NA,NA,NA,NA,NA,NA,NA,NA,NA,NA,NA,NA,NA,NA,NA
d1ba9,deep,flow.Sequence,1_8_0,NA,NA,completion,17053.066,124022.40000001,124021.575,124038.232,141091.298,141091.90000001,2023-11-16T18:36:17Z,141107.979,Aufstand,ugomaji,d,mazidio,msingi,kujieleza,NA,NA,NA,NULL,NA,NA,NA,NA,NA,NA,NA,NA,NA,NA,NA,NA,NA,NA,NA,NA,NA,NA,NA
d1ba9,task,flow.Sequence,1_8,NA,NA,completion,17053.066,124022.40000001,124021.575,124038.232,141091.298,141092,2023-11-16T18:36:17Z,141107.979,Aufstand,ugomaji,d,mazidio,msingi,kujieleza,NA,NA,NA,NULL,NA,NA,NA,NA,NA,NA,NA,NA,NA,NA,NA,NA,NA,NA,NA,NA,NA,NA,NA
d1ba9,Deep Question,html.Page,1_9_0_0,NA,NA,form submission,8030.3210000119,141092.09999999,141091.298,141107.979,149138.30000001,149138.69999999,2023-11-16T18:36:25Z,149144.124,Übersicht,kilindo,s,mgusano,chipukizi,kulinganisha,haminau,NA,NA,NULL,NA,NA,NA,NA,NA,NA,NA,NA,NA,NA,NA,NA,NA,NA,NA,NA,NA,NA,NA
d1ba9,Save data screen,canvas.Screen,1_9_0_1,NA,NA,timeout,498.48799999998,149140.30000001,149128.703,149144.124,149626.039,149626.59999999,2023-11-16T18:36:26Z,149642.612,Übersicht,kilindo,s,mgusano,chipukizi,kulinganisha,NA,NA,0,NULL,NA,NA,NA,NA,NA,NA,NA,NA,NA,NA,NA,NA,NA,NA,NA,NA,NA,NA,NA
d1ba9,deep,flow.Sequence,1_9_0,NA,NA,completion,8518.06,141092.09999999,141091.298,141107.979,149626.039,149626.59999999,2023-11-16T18:36:26Z,149642.612,Übersicht,kilindo,s,mgusano,chipukizi,kulinganisha,NA,NA,NA,NULL,NA,NA,NA,NA,NA,NA,NA,NA,NA,NA,NA,NA,NA,NA,NA,NA,NA,NA,NA
d1ba9,task,flow.Sequence,1_9,NA,NA,completion,8518.06,141092.09999999,141091.298,141107.979,149626.039,149626.80000001,2023-11-16T18:36:26Z,149642.612,Übersicht,kilindo,s,mgusano,chipukizi,kulinganisha,NA,NA,NA,NULL,NA,NA,NA,NA,NA,NA,NA,NA,NA,NA,NA,NA,NA,NA,NA,NA,NA,NA,NA
d1ba9,Deep Question,html.Page,1_10_0_0,NA,NA,form submission,13316.888,149626.90000001,149626.039,149642.612,162959.5,162959.90000001,2023-11-16T18:36:39Z,162964.82,Können,unaweza,d,kiongozi,bustani,mienendo,dnaugisa,NA,NA,NULL,NA,NA,NA,NA,NA,NA,NA,NA,NA,NA,NA,NA,NA,NA,NA,NA,NA,NA,NA
d1ba9,Save data screen,canvas.Screen,1_10_0_1,NA,NA,timeout,497.152,162964.30000001,162943.873,162964.82,163445.331,163446.19999999,2023-11-16T18:36:40Z,163461.972,Können,unaweza,d,kiongozi,bustani,mienendo,NA,NA,0,NULL,NA,NA,NA,NA,NA,NA,NA,NA,NA,NA,NA,NA,NA,NA,NA,NA,NA,NA,NA
d1ba9,deep,flow.Sequence,1_10_0,NA,NA,completion,13802.719,149626.90000001,149626.039,149642.612,163445.331,163446.40000001,2023-11-16T18:36:40Z,163461.972,Können,unaweza,d,kiongozi,bustani,mienendo,NA,NA,NA,NULL,NA,NA,NA,NA,NA,NA,NA,NA,NA,NA,NA,NA,NA,NA,NA,NA,NA,NA,NA
d1ba9,task,flow.Sequence,1_10,NA,NA,completion,13802.719,149626.80000001,149626.039,149642.612,163445.331,163446.59999999,2023-11-16T18:36:40Z,163461.972,Können,unaweza,d,kiongozi,bustani,mienendo,NA,NA,NA,NULL,NA,NA,NA,NA,NA,NA,NA,NA,NA,NA,NA,NA,NA,NA,NA,NA,NA,NA,NA
d1ba9,Deep Question,html.Page,1_11_0_0,NA,NA,form submission,19023.428000006,163446.69999999,163445.331,163461.972,182485.40000001,182485.80000001,2023-11-16T18:36:59Z,182488.375,Kontrolle,kudhibiti,s,mbinguni,kufunga,utegemezi,ghailu,NA,NA,NULL,NA,NA,NA,NA,NA,NA,NA,NA,NA,NA,NA,NA,NA,NA,NA,NA,NA,NA,NA
d1ba9,Save data screen,canvas.Screen,1_11_0_1,NA,NA,timeout,494.424,182489.19999999,182471.738,182488.375,182966.088,182966.80000001,2023-11-16T18:36:59Z,182982.799,Kontrolle,kudhibiti,s,mbinguni,kufunga,utegemezi,NA,NA,0,NULL,NA,NA,NA,NA,NA,NA,NA,NA,NA,NA,NA,NA,NA,NA,NA,NA,NA,NA,NA
d1ba9,deep,flow.Sequence,1_11_0,NA,NA,completion,19504.116,163446.69999999,163445.331,163461.972,182966.088,182967,2023-11-16T18:36:59Z,182982.799,Kontrolle,kudhibiti,s,mbinguni,kufunga,utegemezi,NA,NA,NA,NULL,NA,NA,NA,NA,NA,NA,NA,NA,NA,NA,NA,NA,NA,NA,NA,NA,NA,NA,NA
d1ba9,task,flow.Sequence,1_11,NA,NA,completion,19504.116,163446.59999999,163445.331,163461.972,182966.088,182967.19999999,2023-11-16T18:36:59Z,182982.799,Kontrolle,kudhibiti,s,mbinguni,kufunga,utegemezi,NA,NA,NA,NULL,NA,NA,NA,NA,NA,NA,NA,NA,NA,NA,NA,NA,NA,NA,NA,NA,NA,NA,NA
d1ba9,Deep Question,html.Page,1_12_0_0,NA,NA,form submission,10357.601000006,182967.40000001,182966.088,182982.799,193340.40000001,193340.69999999,2023-11-16T18:37:10Z,193341.96,Körper,kiwiliwili,s,mapambano,mpatanishi,kiolezo,madhui,NA,NA,NULL,NA,NA,NA,NA,NA,NA,NA,NA,NA,NA,NA,NA,NA,NA,NA,NA,NA,NA,NA
d1ba9,Save data screen,canvas.Screen,1_12_0_1,NA,NA,timeout,502.00599999999,193344.19999999,193325.381,193341.96,193827.348,193828.40000001,2023-11-16T18:37:10Z,193843.966,Körper,kiwiliwili,s,mapambano,mpatanishi,kiolezo,NA,NA,0,NULL,NA,NA,NA,NA,NA,NA,NA,NA,NA,NA,NA,NA,NA,NA,NA,NA,NA,NA,NA
d1ba9,deep,flow.Sequence,1_12_0,NA,NA,completion,10844.549,182967.30000001,182966.088,182982.799,193827.348,193828.5,2023-11-16T18:37:10Z,193843.966,Körper,kiwiliwili,s,mapambano,mpatanishi,kiolezo,NA,NA,NA,NULL,NA,NA,NA,NA,NA,NA,NA,NA,NA,NA,NA,NA,NA,NA,NA,NA,NA,NA,NA
d1ba9,task,flow.Sequence,1_12,NA,NA,completion,10844.549,182967.19999999,182966.088,182982.799,193827.348,193828.80000001,2023-11-16T18:37:10Z,193843.966,Körper,kiwiliwili,s,mapambano,mpatanishi,kiolezo,NA,NA,NA,NULL,NA,NA,NA,NA,NA,NA,NA,NA,NA,NA,NA,NA,NA,NA,NA,NA,NA,NA,NA
d1ba9,Deep Question,html.Page,1_13_0_0,NA,NA,form submission,6842.034,193829,193827.348,193843.966,200686,200686.30000001,2023-11-16T18:37:17Z,200694.194,Angreifer,mshambulizi,d,kitengo,tasinia,usafirishaji,ghaino,NA,NA,NULL,NA,NA,NA,NA,NA,NA,NA,NA,NA,NA,NA,NA,NA,NA,NA,NA,NA,NA,NA
d1ba9,Save data screen,canvas.Screen,1_13_0_1,NA,NA,timeout,498.60800000001,200689.09999999,200683.877,200694.194,201176.136,201176.90000001,2023-11-16T18:37:17Z,201192.802,Angreifer,mshambulizi,d,kitengo,tasinia,usafirishaji,NA,NA,0,NULL,NA,NA,NA,NA,NA,NA,NA,NA,NA,NA,NA,NA,NA,NA,NA,NA,NA,NA,NA
d1ba9,deep,flow.Sequence,1_13_0,NA,NA,completion,7332.17,193829,193827.348,193843.966,201176.136,201177.19999999,2023-11-16T18:37:17Z,201192.802,Angreifer,mshambulizi,d,kitengo,tasinia,usafirishaji,NA,NA,NA,NULL,NA,NA,NA,NA,NA,NA,NA,NA,NA,NA,NA,NA,NA,NA,NA,NA,NA,NA,NA
d1ba9,task,flow.Sequence,1_13,NA,NA,completion,7332.17,193828.80000001,193827.348,193843.966,201176.136,201177.5,2023-11-16T18:37:17Z,201192.802,Angreifer,mshambulizi,d,kitengo,tasinia,usafirishaji,NA,NA,NA,NULL,NA,NA,NA,NA,NA,NA,NA,NA,NA,NA,NA,NA,NA,NA,NA,NA,NA,NA,NA
d1ba9,Deep Question,html.Page,1_14_0_0,NA,NA,form submission,6562.098000006,201177.59999999,201176.136,201192.802,207754.90000001,207755.19999999,2023-11-16T18:37:24Z,207760.316,Lawine,banguko,d,maambukizi,usuluhishi,chekechea,fiuda,NA,NA,NULL,NA,NA,NA,NA,NA,NA,NA,NA,NA,NA,NA,NA,NA,NA,NA,NA,NA,NA,NA
d1ba9,Save data screen,canvas.Screen,1_14_0_1,NA,NA,timeout,498.80900000001,207759.59999999,207744.726,207760.316,208242.453,208243.5,2023-11-16T18:37:24Z,208259.125,Lawine,banguko,d,maambukizi,usuluhishi,chekechea,NA,NA,0,NULL,NA,NA,NA,NA,NA,NA,NA,NA,NA,NA,NA,NA,NA,NA,NA,NA,NA,NA,NA
d1ba9,deep,flow.Sequence,1_14_0,NA,NA,completion,7049.651,201177.59999999,201176.136,201192.802,208242.453,208243.69999999,2023-11-16T18:37:24Z,208259.125,Lawine,banguko,d,maambukizi,usuluhishi,chekechea,NA,NA,NA,NULL,NA,NA,NA,NA,NA,NA,NA,NA,NA,NA,NA,NA,NA,NA,NA,NA,NA,NA,NA
d1ba9,task,flow.Sequence,1_14,NA,NA,completion,7049.651,201177.59999999,201176.136,201192.802,208242.453,208243.90000001,2023-11-16T18:37:24Z,208259.125,Lawine,banguko,d,maambukizi,usuluhishi,chekechea,NA,NA,NA,NULL,NA,NA,NA,NA,NA,NA,NA,NA,NA,NA,NA,NA,NA,NA,NA,NA,NA,NA,NA
d1ba9,Deep Question,html.Page,1_15_0_0,NA,NA,form submission,7999.375,208244,208242.453,208259.125,216258.5,216258.80000001,2023-11-16T18:37:32Z,216272.284,Prüfung,mtihani,d,mkulima,mtizamo,ufumbuzi,undala,NA,NA,NULL,NA,NA,NA,NA,NA,NA,NA,NA,NA,NA,NA,NA,NA,NA,NA,NA,NA,NA,NA
d1ba9,Save data screen,canvas.Screen,1_15_0_1,NA,NA,timeout,498.56999999998,216262.69999999,216255.654,216272.284,216754.114,216762.40000001,2023-11-16T18:37:33Z,216770.854,Prüfung,mtihani,d,mkulima,mtizamo,ufumbuzi,NA,NA,0,NULL,NA,NA,NA,NA,NA,NA,NA,NA,NA,NA,NA,NA,NA,NA,NA,NA,NA,NA,NA
d1ba9,deep,flow.Sequence,1_15_0,NA,NA,completion,8494.989,208243.90000001,208242.453,208259.125,216754.114,216762.69999999,2023-11-16T18:37:33Z,216770.854,Prüfung,mtihani,d,mkulima,mtizamo,ufumbuzi,NA,NA,NA,NULL,NA,NA,NA,NA,NA,NA,NA,NA,NA,NA,NA,NA,NA,NA,NA,NA,NA,NA,NA
d1ba9,task,flow.Sequence,1_15,NA,NA,completion,8494.989,208243.90000001,208242.453,208259.125,216754.114,216762.80000001,2023-11-16T18:37:33Z,216770.854,Prüfung,mtihani,d,mkulima,mtizamo,ufumbuzi,NA,NA,NA,NULL,NA,NA,NA,NA,NA,NA,NA,NA,NA,NA,NA,NA,NA,NA,NA,NA,NA,NA,NA
d1ba9,retrieval block 1 (cued recall),flow.Loop,1,NA,NA,completion,209977.471,6772.599999994,6758.004,6776.643,216754.114,216763.09999999,2023-11-16T18:37:33Z,216770.854,NA,NA,NA,NA,NA,NA,NA,NA,NA,NULL,NA,NA,NA,NA,NA,NA,NA,NA,NA,NA,NA,NA,NA,NA,NA,NA,NA,NA,NA
d1ba9,Shallow Question,html.Page,2_0_0_0,NA,NA,form submission,6838.3459999881,216763.19999999,216754.114,216770.854,223609.19999999,223609.40000001,2023-11-16T18:37:40Z,223614.321,System,maongozi,d,chokochoko,nuksani,mitaani,nuksani,NA,NA,"c(""distractor1"", ""distractor2"", ""distractor3"")",NA,NA,NA,NA,NA,NA,NA,NA,NA,NA,NA,NA,NA,NA,NA,NA,NA,NA,NA
d1ba9,Save data screen,canvas.Screen,2_0_0_1,NA,NA,timeout,492.14199999999,223612.30000001,223597.668,223614.321,224089.834,224090.69999999,2023-11-16T18:37:40Z,224106.463,System,maongozi,d,chokochoko,nuksani,mitaani,NA,NA,0,"c(""distractor1"", ""distractor2"", ""distractor3"")",NA,NA,NA,NA,NA,NA,NA,NA,NA,NA,NA,NA,NA,NA,NA,NA,NA,NA,NA
d1ba9,shallow,flow.Sequence,2_0_0,NA,NA,completion,7318.98,216763.19999999,216754.114,216770.854,224089.834,224090.90000001,2023-11-16T18:37:40Z,224106.463,System,maongozi,d,chokochoko,nuksani,mitaani,NA,NA,NA,"c(""distractor1"", ""distractor2"", ""distractor3"")",NA,NA,NA,NA,NA,NA,NA,NA,NA,NA,NA,NA,NA,NA,NA,NA,NA,NA,NA
d1ba9,task,flow.Sequence,2_0,NA,NA,completion,7318.98,216763.19999999,216754.114,216770.854,224089.834,224091.09999999,2023-11-16T18:37:40Z,224106.463,System,maongozi,d,chokochoko,nuksani,mitaani,NA,NA,NA,"c(""distractor1"", ""distractor2"", ""distractor3"")",NA,NA,NA,NA,NA,NA,NA,NA,NA,NA,NA,NA,NA,NA,NA,NA,NA,NA,NA
d1ba9,Shallow Question,html.Page,2_1_0_0,NA,NA,form submission,4806.537,224091.30000001,224089.834,224106.463,228913,228913.30000001,2023-11-16T18:37:45Z,228918.123,Gefährdung,kuhatarisha,s,uchokozi,udhaifu,makorowezo,kuhatarisha,NA,NA,"c(""distractor1"", ""distractor2"", ""distractor3"")",NA,NA,NA,NA,NA,NA,NA,NA,NA,NA,NA,NA,NA,NA,NA,NA,NA,NA,NA
d1ba9,Save data screen,canvas.Screen,2_1_0_1,NA,NA,timeout,498.402,228916,228908.788,228918.123,229399.909,229400.59999999,2023-11-16T18:37:46Z,229416.525,Gefährdung,kuhatarisha,s,uchokozi,udhaifu,makorowezo,NA,NA,1,"c(""distractor1"", ""distractor2"", ""distractor3"")",NA,NA,NA,NA,NA,NA,NA,NA,NA,NA,NA,NA,NA,NA,NA,NA,NA,NA,NA
d1ba9,shallow,flow.Sequence,2_1_0,NA,NA,completion,5293.446,224091.19999999,224089.834,224106.463,229399.909,229400.69999999,2023-11-16T18:37:46Z,229416.525,Gefährdung,kuhatarisha,s,uchokozi,udhaifu,makorowezo,NA,NA,NA,"c(""distractor1"", ""distractor2"", ""distractor3"")",NA,NA,NA,NA,NA,NA,NA,NA,NA,NA,NA,NA,NA,NA,NA,NA,NA,NA,NA
d1ba9,task,flow.Sequence,2_1,NA,NA,completion,5293.446,224091.19999999,224089.834,224106.463,229399.909,229400.80000001,2023-11-16T18:37:46Z,229416.525,Gefährdung,kuhatarisha,s,uchokozi,udhaifu,makorowezo,NA,NA,NA,"c(""distractor1"", ""distractor2"", ""distractor3"")",NA,NA,NA,NA,NA,NA,NA,NA,NA,NA,NA,NA,NA,NA,NA,NA,NA,NA,NA
d1ba9,Shallow Question,html.Page,2_2_0_0,NA,NA,form submission,5378.475,229401,229399.909,229416.525,234795,234795.19999999,2023-11-16T18:37:51Z,234800.217,Verzögerung,kuchelewa,s,mwakilishi,mwanauchumi,jaribio,kuchelewa,NA,NA,"c(""distractor1"", ""distractor2"", ""distractor3"")",NA,NA,NA,NA,NA,NA,NA,NA,NA,NA,NA,NA,NA,NA,NA,NA,NA,NA,NA
d1ba9,Save data screen,canvas.Screen,2_2_0_1,NA,NA,timeout,501.67799999999,234797.19999999,234778.91,234800.217,235285.241,235292.30000001,2023-11-16T18:37:52Z,235301.895,Verzögerung,kuchelewa,s,mwakilishi,mwanauchumi,jaribio,NA,NA,1,"c(""distractor1"", ""distractor2"", ""distractor3"")",NA,NA,NA,NA,NA,NA,NA,NA,NA,NA,NA,NA,NA,NA,NA,NA,NA,NA,NA
d1ba9,shallow,flow.Sequence,2_2_0,NA,NA,completion,5868.716,229400.90000001,229399.909,229416.525,235285.241,235292.40000001,2023-11-16T18:37:52Z,235301.895,Verzögerung,kuchelewa,s,mwakilishi,mwanauchumi,jaribio,NA,NA,NA,"c(""distractor1"", ""distractor2"", ""distractor3"")",NA,NA,NA,NA,NA,NA,NA,NA,NA,NA,NA,NA,NA,NA,NA,NA,NA,NA,NA
d1ba9,task,flow.Sequence,2_2,NA,NA,completion,5868.716,229400.90000001,229399.909,229416.525,235285.241,235292.59999999,2023-11-16T18:37:52Z,235301.895,Verzögerung,kuchelewa,s,mwakilishi,mwanauchumi,jaribio,NA,NA,NA,"c(""distractor1"", ""distractor2"", ""distractor3"")",NA,NA,NA,NA,NA,NA,NA,NA,NA,NA,NA,NA,NA,NA,NA,NA,NA,NA,NA
d1ba9,Shallow Question,html.Page,2_3_0_0,NA,NA,form submission,12362.105,235292.80000001,235285.241,235301.895,247664,247664.30000001,2023-11-16T18:38:04Z,247668.916,Kultur,utamaduni,s,shetani,gerezani,mazingira,utamaduni,NA,NA,"c(""distractor1"", ""distractor2"", ""distractor3"")",NA,NA,NA,NA,NA,NA,NA,NA,NA,NA,NA,NA,NA,NA,NA,NA,NA,NA,NA
d1ba9,Save data screen,canvas.Screen,2_3_0_1,NA,NA,timeout,491.82000000001,247667.5,247656.178,247668.916,248144.077,248144.90000001,2023-11-16T18:38:04Z,248160.736,Kultur,utamaduni,s,shetani,gerezani,mazingira,NA,NA,1,"c(""distractor1"", ""distractor2"", ""distractor3"")",NA,NA,NA,NA,NA,NA,NA,NA,NA,NA,NA,NA,NA,NA,NA,NA,NA,NA,NA
d1ba9,shallow,flow.Sequence,2_3_0,NA,NA,completion,12842.182,235292.69999999,235285.241,235301.895,248144.077,248145.19999999,2023-11-16T18:38:04Z,248160.736,Kultur,utamaduni,s,shetani,gerezani,mazingira,NA,NA,NA,"c(""distractor1"", ""distractor2"", ""distractor3"")",NA,NA,NA,NA,NA,NA,NA,NA,NA,NA,NA,NA,NA,NA,NA,NA,NA,NA,NA
d1ba9,task,flow.Sequence,2_3,NA,NA,completion,12842.182,235292.69999999,235285.241,235301.895,248144.077,248145.30000001,2023-11-16T18:38:04Z,248160.736,Kultur,utamaduni,s,shetani,gerezani,mazingira,NA,NA,NA,"c(""distractor1"", ""distractor2"", ""distractor3"")",NA,NA,NA,NA,NA,NA,NA,NA,NA,NA,NA,NA,NA,NA,NA,NA,NA,NA,NA
d1ba9,Shallow Question,html.Page,2_4_0_0,NA,NA,form submission,11419.664000006,248145.5,248144.077,248160.736,259580.40000001,259580.69999999,2023-11-16T18:38:16Z,259585.51,Abrechnung,uhasibu,s,kusahihisha,mpambano,mashambulizi,mashambulizi,NA,NA,"c(""distractor1"", ""distractor2"", ""distractor3"")",NA,NA,NA,NA,NA,NA,NA,NA,NA,NA,NA,NA,NA,NA,NA,NA,NA,NA,NA
d1ba9,Save data screen,canvas.Screen,2_4_0_1,NA,NA,timeout,503.20299999998,259583.59999999,259578.797,259585.51,260072.051,260072.69999999,2023-11-16T18:38:16Z,260088.713,Abrechnung,uhasibu,s,kusahihisha,mpambano,mashambulizi,NA,NA,0,"c(""distractor1"", ""distractor2"", ""distractor3"")",NA,NA,NA,NA,NA,NA,NA,NA,NA,NA,NA,NA,NA,NA,NA,NA,NA,NA,NA
d1ba9,shallow,flow.Sequence,2_4_0,NA,NA,completion,11911.315,248145.5,248144.077,248160.736,260072.051,260073,2023-11-16T18:38:16Z,260088.713,Abrechnung,uhasibu,s,kusahihisha,mpambano,mashambulizi,NA,NA,NA,"c(""distractor1"", ""distractor2"", ""distractor3"")",NA,NA,NA,NA,NA,NA,NA,NA,NA,NA,NA,NA,NA,NA,NA,NA,NA,NA,NA
d1ba9,task,flow.Sequence,2_4,NA,NA,completion,11911.315,248145.40000001,248144.077,248160.736,260072.051,260073.09999999,2023-11-16T18:38:16Z,260088.713,Abrechnung,uhasibu,s,kusahihisha,mpambano,mashambulizi,NA,NA,NA,"c(""distractor1"", ""distractor2"", ""distractor3"")",NA,NA,NA,NA,NA,NA,NA,NA,NA,NA,NA,NA,NA,NA,NA,NA,NA,NA,NA
d1ba9,Shallow Question,html.Page,2_5_0_0,NA,NA,form submission,7098.4869999881,260073.30000001,260072.051,260088.713,267187.19999999,267187.5,2023-11-16T18:38:23Z,267192.119,Angreifer,mshambulizi,d,kitengo,tasinia,usafirishaji,mshambulizi,NA,NA,"c(""distractor1"", ""distractor2"", ""distractor3"")",NA,NA,NA,NA,NA,NA,NA,NA,NA,NA,NA,NA,NA,NA,NA,NA,NA,NA,NA
d1ba9,Save data screen,canvas.Screen,2_5_0_1,NA,NA,timeout,500.05499999999,267190.30000001,267171.721,267192.119,267675.526,267676.19999999,2023-11-16T18:38:24Z,267692.174,Angreifer,mshambulizi,d,kitengo,tasinia,usafirishaji,NA,NA,1,"c(""distractor1"", ""distractor2"", ""distractor3"")",NA,NA,NA,NA,NA,NA,NA,NA,NA,NA,NA,NA,NA,NA,NA,NA,NA,NA,NA
d1ba9,shallow,flow.Sequence,2_5_0,NA,NA,completion,7586.813,260073.30000001,260072.051,260088.713,267675.526,267676.30000001,2023-11-16T18:38:24Z,267692.174,Angreifer,mshambulizi,d,kitengo,tasinia,usafirishaji,NA,NA,NA,"c(""distractor1"", ""distractor2"", ""distractor3"")",NA,NA,NA,NA,NA,NA,NA,NA,NA,NA,NA,NA,NA,NA,NA,NA,NA,NA,NA
d1ba9,task,flow.Sequence,2_5,NA,NA,completion,7586.813,260073.19999999,260072.051,260088.713,267675.526,267676.40000001,2023-11-16T18:38:24Z,267692.174,Angreifer,mshambulizi,d,kitengo,tasinia,usafirishaji,NA,NA,NA,"c(""distractor1"", ""distractor2"", ""distractor3"")",NA,NA,NA,NA,NA,NA,NA,NA,NA,NA,NA,NA,NA,NA,NA,NA,NA,NA,NA
d1ba9,Shallow Question,html.Page,2_6_0_0,NA,NA,form submission,9361.0259999881,267676.5,267675.526,267692.174,277053.19999999,277053.5,2023-11-16T18:38:33Z,277058.073,Körper,kiwiliwili,s,mapambano,mpatanishi,kiolezo,mpatanishi,NA,NA,"c(""distractor1"", ""distractor2"", ""distractor3"")",NA,NA,NA,NA,NA,NA,NA,NA,NA,NA,NA,NA,NA,NA,NA,NA,NA,NA,NA
d1ba9,Save data screen,canvas.Screen,2_6_0_1,NA,NA,timeout,497.99100000004,277056.5,277041.478,277058.073,277539.427,277546.40000001,2023-11-16T18:38:34Z,277556.064,Körper,kiwiliwili,s,mapambano,mpatanishi,kiolezo,NA,NA,0,"c(""distractor1"", ""distractor2"", ""distractor3"")",NA,NA,NA,NA,NA,NA,NA,NA,NA,NA,NA,NA,NA,NA,NA,NA,NA,NA,NA
d1ba9,shallow,flow.Sequence,2_6_0,NA,NA,completion,9847.253,267676.5,267675.526,267692.174,277539.427,277546.69999999,2023-11-16T18:38:34Z,277556.064,Körper,kiwiliwili,s,mapambano,mpatanishi,kiolezo,NA,NA,NA,"c(""distractor1"", ""distractor2"", ""distractor3"")",NA,NA,NA,NA,NA,NA,NA,NA,NA,NA,NA,NA,NA,NA,NA,NA,NA,NA,NA
d1ba9,task,flow.Sequence,2_6,NA,NA,completion,9847.253,267676.40000001,267675.526,267692.174,277539.427,277546.80000001,2023-11-16T18:38:34Z,277556.064,Körper,kiwiliwili,s,mapambano,mpatanishi,kiolezo,NA,NA,NA,"c(""distractor1"", ""distractor2"", ""distractor3"")",NA,NA,NA,NA,NA,NA,NA,NA,NA,NA,NA,NA,NA,NA,NA,NA,NA,NA,NA
d1ba9,Shallow Question,html.Page,2_7_0_0,NA,NA,form submission,5106.035999994,277547,277539.427,277556.064,282662.09999999,282662.40000001,2023-11-16T18:38:39Z,282666.992,Lawine,banguko,d,maambukizi,usuluhishi,chekechea,banguko,NA,NA,"c(""distractor1"", ""distractor2"", ""distractor3"")",NA,NA,NA,NA,NA,NA,NA,NA,NA,NA,NA,NA,NA,NA,NA,NA,NA,NA,NA
d1ba9,Save data screen,canvas.Screen,2_7_0_1,NA,NA,timeout,508.04199999996,282665.30000001,282650.428,282666.992,283158.353,283159,2023-11-16T18:38:39Z,283175.034,Lawine,banguko,d,maambukizi,usuluhishi,chekechea,NA,NA,1,"c(""distractor1"", ""distractor2"", ""distractor3"")",NA,NA,NA,NA,NA,NA,NA,NA,NA,NA,NA,NA,NA,NA,NA,NA,NA,NA,NA
d1ba9,shallow,flow.Sequence,2_7_0,NA,NA,completion,5602.289,277546.90000001,277539.427,277556.064,283158.353,283159.30000001,2023-11-16T18:38:39Z,283175.034,Lawine,banguko,d,maambukizi,usuluhishi,chekechea,NA,NA,NA,"c(""distractor1"", ""distractor2"", ""distractor3"")",NA,NA,NA,NA,NA,NA,NA,NA,NA,NA,NA,NA,NA,NA,NA,NA,NA,NA,NA
d1ba9,task,flow.Sequence,2_7,NA,NA,completion,5602.289,277546.90000001,277539.427,277556.064,283158.353,283159.5,2023-11-16T18:38:39Z,283175.034,Lawine,banguko,d,maambukizi,usuluhishi,chekechea,NA,NA,NA,"c(""distractor1"", ""distractor2"", ""distractor3"")",NA,NA,NA,NA,NA,NA,NA,NA,NA,NA,NA,NA,NA,NA,NA,NA,NA,NA,NA
d1ba9,Shallow Question,html.Page,2_8_0_0,NA,NA,form submission,4286.1659999881,283159.69999999,283158.353,283175.034,287461.19999999,287461.40000001,2023-11-16T18:38:44Z,287466.453,Übersicht,kilindo,s,mgusano,chipukizi,kulinganisha,mgusano,NA,NA,"c(""distractor1"", ""distractor2"", ""distractor3"")",NA,NA,NA,NA,NA,NA,NA,NA,NA,NA,NA,NA,NA,NA,NA,NA,NA,NA,NA
d1ba9,Save data screen,canvas.Screen,2_8_0_1,NA,NA,timeout,499.799,287464.09999999,287458.659,287466.453,287949.544,287950.30000001,2023-11-16T18:38:44Z,287966.252,Übersicht,kilindo,s,mgusano,chipukizi,kulinganisha,NA,NA,0,"c(""distractor1"", ""distractor2"", ""distractor3"")",NA,NA,NA,NA,NA,NA,NA,NA,NA,NA,NA,NA,NA,NA,NA,NA,NA,NA,NA
d1ba9,shallow,flow.Sequence,2_8_0,NA,NA,completion,4774.51,283159.59999999,283158.353,283175.034,287949.544,287950.40000001,2023-11-16T18:38:44Z,287966.252,Übersicht,kilindo,s,mgusano,chipukizi,kulinganisha,NA,NA,NA,"c(""distractor1"", ""distractor2"", ""distractor3"")",NA,NA,NA,NA,NA,NA,NA,NA,NA,NA,NA,NA,NA,NA,NA,NA,NA,NA,NA
d1ba9,task,flow.Sequence,2_8,NA,NA,completion,4774.51,283159.59999999,283158.353,283175.034,287949.544,287950.59999999,2023-11-16T18:38:44Z,287966.252,Übersicht,kilindo,s,mgusano,chipukizi,kulinganisha,NA,NA,NA,"c(""distractor1"", ""distractor2"", ""distractor3"")",NA,NA,NA,NA,NA,NA,NA,NA,NA,NA,NA,NA,NA,NA,NA,NA,NA,NA,NA
d1ba9,Shallow Question,html.Page,2_9_0_0,NA,NA,form submission,5388.648000006,287950.59999999,287949.544,287966.252,293354.90000001,293355.09999999,2023-11-16T18:38:50Z,293359.871,Sänger,mwimbaji,d,msichana,shughuli,mshirika,shughuli,NA,NA,"c(""distractor1"", ""distractor2"", ""distractor3"")",NA,NA,NA,NA,NA,NA,NA,NA,NA,NA,NA,NA,NA,NA,NA,NA,NA,NA,NA
d1ba9,Save data screen,canvas.Screen,2_9_0_1,NA,NA,timeout,499.891,293356.90000001,293340.179,293359.871,293843.13,293843.5,2023-11-16T18:38:50Z,293859.762,Sänger,mwimbaji,d,msichana,shughuli,mshirika,NA,NA,0,"c(""distractor1"", ""distractor2"", ""distractor3"")",NA,NA,NA,NA,NA,NA,NA,NA,NA,NA,NA,NA,NA,NA,NA,NA,NA,NA,NA
d1ba9,shallow,flow.Sequence,2_9_0,NA,NA,completion,5876.878,287950.59999999,287949.544,287966.252,293843.13,293843.59999999,2023-11-16T18:38:50Z,293859.762,Sänger,mwimbaji,d,msichana,shughuli,mshirika,NA,NA,NA,"c(""distractor1"", ""distractor2"", ""distractor3"")",NA,NA,NA,NA,NA,NA,NA,NA,NA,NA,NA,NA,NA,NA,NA,NA,NA,NA,NA
d1ba9,task,flow.Sequence,2_9,NA,NA,completion,5876.878,287950.59999999,287949.544,287966.252,293843.13,293843.69999999,2023-11-16T18:38:50Z,293859.762,Sänger,mwimbaji,d,msichana,shughuli,mshirika,NA,NA,NA,"c(""distractor1"", ""distractor2"", ""distractor3"")",NA,NA,NA,NA,NA,NA,NA,NA,NA,NA,NA,NA,NA,NA,NA,NA,NA,NA,NA
d1ba9,Shallow Question,html.Page,2_10_0_0,NA,NA,form submission,4808.3379999941,293843.80000001,293843.13,293859.762,298668.09999999,298668.40000001,2023-11-16T18:38:55Z,298673.255,Kontrolle,kudhibiti,s,mbinguni,kufunga,utegemezi,kudhibiti,NA,NA,"c(""distractor1"", ""distractor2"", ""distractor3"")",NA,NA,NA,NA,NA,NA,NA,NA,NA,NA,NA,NA,NA,NA,NA,NA,NA,NA,NA
d1ba9,Save data screen,canvas.Screen,2_10_0_1,NA,NA,timeout,493.63099999999,298671.30000001,298666.154,298673.255,299150.227,299151,2023-11-16T18:38:55Z,299166.886,Kontrolle,kudhibiti,s,mbinguni,kufunga,utegemezi,NA,NA,1,"c(""distractor1"", ""distractor2"", ""distractor3"")",NA,NA,NA,NA,NA,NA,NA,NA,NA,NA,NA,NA,NA,NA,NA,NA,NA,NA,NA
d1ba9,shallow,flow.Sequence,2_10_0,NA,NA,completion,5290.465,293843.80000001,293843.13,293859.762,299150.227,299151.19999999,2023-11-16T18:38:55Z,299166.886,Kontrolle,kudhibiti,s,mbinguni,kufunga,utegemezi,NA,NA,NA,"c(""distractor1"", ""distractor2"", ""distractor3"")",NA,NA,NA,NA,NA,NA,NA,NA,NA,NA,NA,NA,NA,NA,NA,NA,NA,NA,NA
d1ba9,task,flow.Sequence,2_10,NA,NA,completion,5290.465,293843.80000001,293843.13,293859.762,299150.227,299151.40000001,2023-11-16T18:38:55Z,299166.886,Kontrolle,kudhibiti,s,mbinguni,kufunga,utegemezi,NA,NA,NA,"c(""distractor1"", ""distractor2"", ""distractor3"")",NA,NA,NA,NA,NA,NA,NA,NA,NA,NA,NA,NA,NA,NA,NA,NA,NA,NA,NA
d1ba9,Shallow Question,html.Page,2_11_0_0,NA,NA,form submission,3797.514000006,299151.5,299150.227,299166.886,302964.40000001,302964.69999999,2023-11-16T18:38:59Z,302969.625,Prüfung,mtihani,d,mkulima,mtizamo,ufumbuzi,mtihani,NA,NA,"c(""distractor1"", ""distractor2"", ""distractor3"")",NA,NA,NA,NA,NA,NA,NA,NA,NA,NA,NA,NA,NA,NA,NA,NA,NA,NA,NA
d1ba9,Save data screen,canvas.Screen,2_11_0_1,NA,NA,timeout,500.51500000001,302966.69999999,302949.548,302969.625,303453.479,303454.19999999,2023-11-16T18:39:00Z,303470.14,Prüfung,mtihani,d,mkulima,mtizamo,ufumbuzi,NA,NA,1,"c(""distractor1"", ""distractor2"", ""distractor3"")",NA,NA,NA,NA,NA,NA,NA,NA,NA,NA,NA,NA,NA,NA,NA,NA,NA,NA,NA
d1ba9,shallow,flow.Sequence,2_11_0,NA,NA,completion,4286.593,299151.5,299150.227,299166.886,303453.479,303454.40000001,2023-11-16T18:39:00Z,303470.14,Prüfung,mtihani,d,mkulima,mtizamo,ufumbuzi,NA,NA,NA,"c(""distractor1"", ""distractor2"", ""distractor3"")",NA,NA,NA,NA,NA,NA,NA,NA,NA,NA,NA,NA,NA,NA,NA,NA,NA,NA,NA
d1ba9,task,flow.Sequence,2_11,NA,NA,completion,4286.593,299151.5,299150.227,299166.886,303453.479,303454.59999999,2023-11-16T18:39:00Z,303470.14,Prüfung,mtihani,d,mkulima,mtizamo,ufumbuzi,NA,NA,NA,"c(""distractor1"", ""distractor2"", ""distractor3"")",NA,NA,NA,NA,NA,NA,NA,NA,NA,NA,NA,NA,NA,NA,NA,NA,NA,NA,NA
d1ba9,Shallow Question,html.Page,2_12_0_0,NA,NA,form submission,3420.0599999881,303454.90000001,303453.479,303470.14,306890.19999999,306890.5,2023-11-16T18:39:03Z,306895.401,Kanzler,diwani,s,rasilmali,mahitaji,maabudu,rasilmali,NA,NA,"c(""distractor1"", ""distractor2"", ""distractor3"")",NA,NA,NA,NA,NA,NA,NA,NA,NA,NA,NA,NA,NA,NA,NA,NA,NA,NA,NA
d1ba9,Save data screen,canvas.Screen,2_12_0_1,NA,NA,timeout,505.30199999997,306893.30000001,306877.435,306895.401,307384.01,307384.80000001,2023-11-16T18:39:04Z,307400.703,Kanzler,diwani,s,rasilmali,mahitaji,maabudu,NA,NA,0,"c(""distractor1"", ""distractor2"", ""distractor3"")",NA,NA,NA,NA,NA,NA,NA,NA,NA,NA,NA,NA,NA,NA,NA,NA,NA,NA,NA
d1ba9,shallow,flow.Sequence,2_12_0,NA,NA,completion,3913.87,303454.80000001,303453.479,303470.14,307384.01,307385,2023-11-16T18:39:04Z,307400.703,Kanzler,diwani,s,rasilmali,mahitaji,maabudu,NA,NA,NA,"c(""distractor1"", ""distractor2"", ""distractor3"")",NA,NA,NA,NA,NA,NA,NA,NA,NA,NA,NA,NA,NA,NA,NA,NA,NA,NA,NA
d1ba9,task,flow.Sequence,2_12,NA,NA,completion,3913.87,303454.69999999,303453.479,303470.14,307384.01,307385.09999999,2023-11-16T18:39:04Z,307400.703,Kanzler,diwani,s,rasilmali,mahitaji,maabudu,NA,NA,NA,"c(""distractor1"", ""distractor2"", ""distractor3"")",NA,NA,NA,NA,NA,NA,NA,NA,NA,NA,NA,NA,NA,NA,NA,NA,NA,NA,NA
d1ba9,Shallow Question,html.Page,2_13_0_0,NA,NA,form submission,3767.9969999881,307385.30000001,307384.01,307400.703,311168.69999999,311168.90000001,2023-11-16T18:39:07Z,311173.825,Aufstand,ugomaji,d,mazidio,msingi,kujieleza,kujieleza,NA,NA,"c(""distractor1"", ""distractor2"", ""distractor3"")",NA,NA,NA,NA,NA,NA,NA,NA,NA,NA,NA,NA,NA,NA,NA,NA,NA,NA,NA
d1ba9,Save data screen,canvas.Screen,2_13_0_1,NA,NA,timeout,497.43900000001,311172.69999999,311165.515,311173.825,311654.616,311662.40000001,2023-11-16T18:39:08Z,311671.264,Aufstand,ugomaji,d,mazidio,msingi,kujieleza,NA,NA,0,"c(""distractor1"", ""distractor2"", ""distractor3"")",NA,NA,NA,NA,NA,NA,NA,NA,NA,NA,NA,NA,NA,NA,NA,NA,NA,NA,NA
d1ba9,shallow,flow.Sequence,2_13_0,NA,NA,completion,4253.913,307385.30000001,307384.01,307400.703,311654.616,311662.69999999,2023-11-16T18:39:08Z,311671.264,Aufstand,ugomaji,d,mazidio,msingi,kujieleza,NA,NA,NA,"c(""distractor1"", ""distractor2"", ""distractor3"")",NA,NA,NA,NA,NA,NA,NA,NA,NA,NA,NA,NA,NA,NA,NA,NA,NA,NA,NA
d1ba9,task,flow.Sequence,2_13,NA,NA,completion,4253.913,307385.30000001,307384.01,307400.703,311654.616,311662.90000001,2023-11-16T18:39:08Z,311671.264,Aufstand,ugomaji,d,mazidio,msingi,kujieleza,NA,NA,NA,"c(""distractor1"", ""distractor2"", ""distractor3"")",NA,NA,NA,NA,NA,NA,NA,NA,NA,NA,NA,NA,NA,NA,NA,NA,NA,NA,NA
d1ba9,Shallow Question,html.Page,2_14_0_0,NA,NA,form submission,3674.835999994,311663,311654.616,311671.264,315346.09999999,315346.30000001,2023-11-16T18:39:12Z,315351.569,Können,unaweza,d,kiongozi,bustani,mienendo,bustani,NA,NA,"c(""distractor1"", ""distractor2"", ""distractor3"")",NA,NA,NA,NA,NA,NA,NA,NA,NA,NA,NA,NA,NA,NA,NA,NA,NA,NA,NA
d1ba9,Save data screen,canvas.Screen,2_14_0_1,NA,NA,timeout,502.734,315349.30000001,315333.508,315351.569,315837.684,315838.40000001,2023-11-16T18:39:12Z,315854.303,Können,unaweza,d,kiongozi,bustani,mienendo,NA,NA,0,"c(""distractor1"", ""distractor2"", ""distractor3"")",NA,NA,NA,NA,NA,NA,NA,NA,NA,NA,NA,NA,NA,NA,NA,NA,NA,NA,NA
d1ba9,shallow,flow.Sequence,2_14_0,NA,NA,completion,4166.42,311663,311654.616,311671.264,315837.684,315838.5,2023-11-16T18:39:12Z,315854.303,Können,unaweza,d,kiongozi,bustani,mienendo,NA,NA,NA,"c(""distractor1"", ""distractor2"", ""distractor3"")",NA,NA,NA,NA,NA,NA,NA,NA,NA,NA,NA,NA,NA,NA,NA,NA,NA,NA,NA
d1ba9,task,flow.Sequence,2_14,NA,NA,completion,4166.42,311663,311654.616,311671.264,315837.684,315838.5,2023-11-16T18:39:12Z,315854.303,Können,unaweza,d,kiongozi,bustani,mienendo,NA,NA,NA,"c(""distractor1"", ""distractor2"", ""distractor3"")",NA,NA,NA,NA,NA,NA,NA,NA,NA,NA,NA,NA,NA,NA,NA,NA,NA,NA,NA
d1ba9,Shallow Question,html.Page,2_15_0_0,NA,NA,form submission,3726.697,315838.69999999,315837.684,315854.303,319581,319581.30000001,2023-11-16T18:39:16Z,319586.155,Kreativität,ubunifu,d,mratibu,mwendelezo,makubaliano,ubunifu,NA,NA,"c(""distractor1"", ""distractor2"", ""distractor3"")",NA,NA,NA,NA,NA,NA,NA,NA,NA,NA,NA,NA,NA,NA,NA,NA,NA,NA,NA
d1ba9,Save data screen,canvas.Screen,2_15_0_1,NA,NA,timeout,494.462,319584,319567.939,319586.155,320063.981,320064.90000001,2023-11-16T18:39:16Z,320080.617,Kreativität,ubunifu,d,mratibu,mwendelezo,makubaliano,NA,NA,1,"c(""distractor1"", ""distractor2"", ""distractor3"")",NA,NA,NA,NA,NA,NA,NA,NA,NA,NA,NA,NA,NA,NA,NA,NA,NA,NA,NA
d1ba9,shallow,flow.Sequence,2_15_0,NA,NA,completion,4209.678,315838.69999999,315837.684,315854.303,320063.981,320065.19999999,2023-11-16T18:39:16Z,320080.617,Kreativität,ubunifu,d,mratibu,mwendelezo,makubaliano,NA,NA,NA,"c(""distractor1"", ""distractor2"", ""distractor3"")",NA,NA,NA,NA,NA,NA,NA,NA,NA,NA,NA,NA,NA,NA,NA,NA,NA,NA,NA
d1ba9,task,flow.Sequence,2_15,NA,NA,completion,4209.678,315838.59999999,315837.684,315854.303,320063.981,320065.40000001,2023-11-16T18:39:16Z,320080.617,Kreativität,ubunifu,d,mratibu,mwendelezo,makubaliano,NA,NA,NA,"c(""distractor1"", ""distractor2"", ""distractor3"")",NA,NA,NA,NA,NA,NA,NA,NA,NA,NA,NA,NA,NA,NA,NA,NA,NA,NA,NA
d1ba9,retrieval block 2 (multiple choice),flow.Loop,2,NA,NA,completion,103293.127,216763.19999999,216754.114,216770.854,320063.981,320065.5,2023-11-16T18:39:16Z,320080.617,NA,NA,NA,NA,NA,NA,NA,NA,NA,"c(""distractor1"", ""distractor2"", ""distractor3"")",NA,NA,NA,NA,NA,NA,NA,NA,NA,NA,NA,NA,NA,NA,NA,NA,NA,NA,NA
d1ba9,End,canvas.Screen,3,NA,keypress(Space),response,2430.2830000059,320065.59999999,320063.981,320080.617,322510.90000001,322512,2023-11-16T18:39:19Z,322519.397,NA,NA,NA,NA,NA,NA,NA,NA,NA,NULL,NA,NA,NA,NA,NA,NA,NA,NA,NA,NA,NA,NA,NA,NA,NA,NA,NA,NA,NA
d1ba9,root,flow.Sequence,NA,NA,NA,completion,321108.92300001,1385.400000006,668.631,1401.977,322510.90000001,322512.5,2023-11-16T18:39:19Z,322519.397,NA,NA,NA,NA,NA,NA,NA,NA,NA,NULL,NA,NA,NA,NA,NA,NA,NA,NA,NA,NA,NA,NA,NA,NA,NA,NA,NA,NA,NA
