observation,sender,sender_type,sender_id,response,response_action,ended_on,duration,time_run,time_render,time_show,time_end,time_commit,timestamp,time_switch,german,swahili,enc,distractor1,distractor2,distractor3,response_2,x,correct,distractors,url_vp,url_sess,meta_labjs_version,meta_location,meta_user_agent,meta_platform,meta_language,meta_locale,meta_time_zone,meta_timezone_offset,meta_screen_width,meta_screen_height,meta_scroll_width,meta_scroll_height,meta_window_inner_width,meta_window_inner_height,meta_device_pixel_ratio,meta_labjs_build_flavor,meta_labjs_build_commit
3ae75,Introduction delayed retrieval,canvas.Screen,0,weiter,keypress(Space),response,1558.8999999762,1107.2999999523,833.2,1116.5,2675.3999999762,2678.6000000238,2023-12-19T13:02:49Z,2683.3,NA,NA,NA,NA,NA,NA,NA,NA,NA,NULL,149,4,20.2.4,https://neurocog.fernuni.ch/studies/vweber/jbaenninger/delayed/index.html?vp=149&sess=4,"Mozilla/5.0 (Windows NT 10.0; Win64; x64) AppleWebKit/537.36 (KHTML, like Gecko) Chrome/120.0.0.0 Safari/537.36 Edg/120.0.0.0",Win32,de,de-CH,Europe/Zurich,-60,1920,1080,1872,910,1872,958,1,production,f5b4a49f956347addd546a832a3327688c2c0fef
3ae75,Deep Question,html.Page,1_0_0_0,NA,NA,form submission,9268.4999999523,2679.1000000238,2666.7,2683.3,11951.799999952,11952.100000024,2023-12-19T13:02:58Z,11966.6,Tester,wanaojaribu,d,sherti,sihiri,mlipuko,somalau,NA,NA,NULL,NA,NA,NA,NA,NA,NA,NA,NA,NA,NA,NA,NA,NA,NA,NA,NA,NA,NA,NA
3ae75,Save data screen,canvas.Screen,1_0_0_1,NA,NA,timeout,500.1,11953,11950,11966.6,12450,12451,2023-12-19T13:02:59Z,12466.7,Tester,wanaojaribu,d,sherti,sihiri,mlipuko,NA,NA,0,NULL,NA,NA,NA,NA,NA,NA,NA,NA,NA,NA,NA,NA,NA,NA,NA,NA,NA,NA,NA
3ae75,deep,flow.Sequence,1_0_0,NA,NA,completion,9766.7,2679.1000000238,2666.7,2683.3,12450,12451.5,2023-12-19T13:02:59Z,12466.7,Tester,wanaojaribu,d,sherti,sihiri,mlipuko,NA,NA,NA,NULL,NA,NA,NA,NA,NA,NA,NA,NA,NA,NA,NA,NA,NA,NA,NA,NA,NA,NA,NA
3ae75,task,flow.Sequence,1_0,NA,NA,completion,9766.7,2679,2666.7,2683.3,12450,12451.700000048,2023-12-19T13:02:59Z,12466.7,Tester,wanaojaribu,d,sherti,sihiri,mlipuko,NA,NA,NA,NULL,NA,NA,NA,NA,NA,NA,NA,NA,NA,NA,NA,NA,NA,NA,NA,NA,NA,NA,NA
3ae75,Deep Question,html.Page,1_1_0_0,NA,NA,form submission,8699.9000000238,12451.899999976,12450,12466.7,21166.600000024,21166.799999952,2023-12-19T13:03:08Z,21166.7,Schlange,foleni,s,uvumilivu,uteuzi,muuzaji,kokorugha,NA,NA,NULL,NA,NA,NA,NA,NA,NA,NA,NA,NA,NA,NA,NA,NA,NA,NA,NA,NA,NA,NA
3ae75,Save data screen,canvas.Screen,1_1_0_1,NA,NA,timeout,500,21167.399999976,21166.7,21166.7,21649.9,21650.899999976,2023-12-19T13:03:08Z,21666.7,Schlange,foleni,s,uvumilivu,uteuzi,muuzaji,NA,NA,0,NULL,NA,NA,NA,NA,NA,NA,NA,NA,NA,NA,NA,NA,NA,NA,NA,NA,NA,NA,NA
3ae75,deep,flow.Sequence,1_1_0,NA,NA,completion,9183.2,12451.799999952,12450,12466.7,21649.9,21651.299999952,2023-12-19T13:03:08Z,21666.7,Schlange,foleni,s,uvumilivu,uteuzi,muuzaji,NA,NA,NA,NULL,NA,NA,NA,NA,NA,NA,NA,NA,NA,NA,NA,NA,NA,NA,NA,NA,NA,NA,NA
3ae75,task,flow.Sequence,1_1,NA,NA,completion,9183.2,12451.799999952,12450,12466.7,21649.9,21651.600000024,2023-12-19T13:03:08Z,21666.7,Schlange,foleni,s,uvumilivu,uteuzi,muuzaji,NA,NA,NA,NULL,NA,NA,NA,NA,NA,NA,NA,NA,NA,NA,NA,NA,NA,NA,NA,NA,NA,NA,NA
3ae75,Deep Question,html.Page,1_2_0_0,NA,NA,form submission,6060.1999999762,21651.799999952,21649.9,21666.7,27726.899999976,27727.200000048,2023-12-19T13:03:14Z,27733.1,Vermutung,udhanifu,d,haramia,tikisho,itifaki,holimue,NA,NA,NULL,NA,NA,NA,NA,NA,NA,NA,NA,NA,NA,NA,NA,NA,NA,NA,NA,NA,NA,NA
3ae75,Save data screen,canvas.Screen,1_2_0_1,NA,NA,timeout,500.3,27727.700000048,27716.9,27733.1,28216.6,28217.399999976,2023-12-19T13:03:15Z,28233.4,Vermutung,udhanifu,d,haramia,tikisho,itifaki,NA,NA,0,NULL,NA,NA,NA,NA,NA,NA,NA,NA,NA,NA,NA,NA,NA,NA,NA,NA,NA,NA,NA
3ae75,deep,flow.Sequence,1_2_0,NA,NA,completion,6549.9,21651.799999952,21649.9,21666.7,28216.6,28217.799999952,2023-12-19T13:03:15Z,28233.4,Vermutung,udhanifu,d,haramia,tikisho,itifaki,NA,NA,NA,NULL,NA,NA,NA,NA,NA,NA,NA,NA,NA,NA,NA,NA,NA,NA,NA,NA,NA,NA,NA
3ae75,task,flow.Sequence,1_2,NA,NA,completion,6549.9,21651.700000048,21649.9,21666.7,28216.6,28218,2023-12-19T13:03:15Z,28233.4,Vermutung,udhanifu,d,haramia,tikisho,itifaki,NA,NA,NA,NULL,NA,NA,NA,NA,NA,NA,NA,NA,NA,NA,NA,NA,NA,NA,NA,NA,NA,NA,NA
3ae75,Deep Question,html.Page,1_3_0_0,NA,NA,form submission,6701.8999999523,28218.200000048,28216.6,28233.4,34935.299999952,34935.600000024,2023-12-19T13:03:21Z,34950,Wohlstand,mafanikio,s,chimbuko,kumbuko,mapwaji,molaghu,NA,NA,NULL,NA,NA,NA,NA,NA,NA,NA,NA,NA,NA,NA,NA,NA,NA,NA,NA,NA,NA,NA
3ae75,Save data screen,canvas.Screen,1_3_0_1,NA,NA,timeout,500,34936.399999976,34933.4,34950,35433.3,35434.100000024,2023-12-19T13:03:22Z,35450,Wohlstand,mafanikio,s,chimbuko,kumbuko,mapwaji,NA,NA,0,NULL,NA,NA,NA,NA,NA,NA,NA,NA,NA,NA,NA,NA,NA,NA,NA,NA,NA,NA,NA
3ae75,deep,flow.Sequence,1_3_0,NA,NA,completion,7199.9,28218.200000048,28216.6,28233.4,35433.3,35434.5,2023-12-19T13:03:22Z,35450,Wohlstand,mafanikio,s,chimbuko,kumbuko,mapwaji,NA,NA,NA,NULL,NA,NA,NA,NA,NA,NA,NA,NA,NA,NA,NA,NA,NA,NA,NA,NA,NA,NA,NA
3ae75,task,flow.Sequence,1_3,NA,NA,completion,7199.9,28218.100000024,28216.6,28233.4,35433.3,35434.600000024,2023-12-19T13:03:22Z,35450,Wohlstand,mafanikio,s,chimbuko,kumbuko,mapwaji,NA,NA,NA,NULL,NA,NA,NA,NA,NA,NA,NA,NA,NA,NA,NA,NA,NA,NA,NA,NA,NA,NA,NA
3ae75,Deep Question,html.Page,1_4_0_0,NA,NA,form submission,5316.8999999762,35434.799999952,35433.3,35450,40766.899999976,40767.200000048,2023-12-19T13:03:27Z,40783.4,Notfall,dharura,d,rairai,malalamiko,ahueni,molumba,NA,NA,NULL,NA,NA,NA,NA,NA,NA,NA,NA,NA,NA,NA,NA,NA,NA,NA,NA,NA,NA,NA
3ae75,Save data screen,canvas.Screen,1_4_0_1,NA,NA,timeout,500,40767.799999952,40766.9,40783.4,41266.6,41267.5,2023-12-19T13:03:28Z,41283.4,Notfall,dharura,d,rairai,malalamiko,ahueni,NA,NA,0,NULL,NA,NA,NA,NA,NA,NA,NA,NA,NA,NA,NA,NA,NA,NA,NA,NA,NA,NA,NA
3ae75,deep,flow.Sequence,1_4_0,NA,NA,completion,5816.6,35434.700000048,35433.3,35450,41266.6,41267.700000048,2023-12-19T13:03:28Z,41283.4,Notfall,dharura,d,rairai,malalamiko,ahueni,NA,NA,NA,NULL,NA,NA,NA,NA,NA,NA,NA,NA,NA,NA,NA,NA,NA,NA,NA,NA,NA,NA,NA
3ae75,task,flow.Sequence,1_4,NA,NA,completion,5816.6,35434.700000048,35433.3,35450,41266.6,41267.899999976,2023-12-19T13:03:28Z,41283.4,Notfall,dharura,d,rairai,malalamiko,ahueni,NA,NA,NA,NULL,NA,NA,NA,NA,NA,NA,NA,NA,NA,NA,NA,NA,NA,NA,NA,NA,NA,NA,NA
3ae75,Deep Question,html.Page,1_5_0_0,NA,NA,form submission,10107.700000024,41268.100000024,41266.6,41283.4,51391.100000024,51391.399999976,2023-12-19T13:03:38Z,51399.9,Spionage,upelelezi,s,maslahi,utokazo,magangao,kukuluka,NA,NA,NULL,NA,NA,NA,NA,NA,NA,NA,NA,NA,NA,NA,NA,NA,NA,NA,NA,NA,NA,NA
3ae75,Save data screen,canvas.Screen,1_5_0_1,NA,NA,timeout,500.1,51391.899999976,51383.5,51399.9,51883.3,51884.100000024,2023-12-19T13:03:38Z,51900,Spionage,upelelezi,s,maslahi,utokazo,magangao,NA,NA,0,NULL,NA,NA,NA,NA,NA,NA,NA,NA,NA,NA,NA,NA,NA,NA,NA,NA,NA,NA,NA
3ae75,deep,flow.Sequence,1_5_0,NA,NA,completion,10599.9,41268.100000024,41266.6,41283.4,51883.3,51884.399999976,2023-12-19T13:03:38Z,51900,Spionage,upelelezi,s,maslahi,utokazo,magangao,NA,NA,NA,NULL,NA,NA,NA,NA,NA,NA,NA,NA,NA,NA,NA,NA,NA,NA,NA,NA,NA,NA,NA
3ae75,task,flow.Sequence,1_5,NA,NA,completion,10599.9,41268.100000024,41266.6,41283.4,51883.3,51884.5,2023-12-19T13:03:38Z,51900,Spionage,upelelezi,s,maslahi,utokazo,magangao,NA,NA,NA,NULL,NA,NA,NA,NA,NA,NA,NA,NA,NA,NA,NA,NA,NA,NA,NA,NA,NA,NA,NA
3ae75,Deep Question,html.Page,1_6_0_0,NA,NA,form submission,6530.8999999762,51884.799999952,51883.3,51900,58430.899999976,58431.100000024,2023-12-19T13:03:45Z,58433.7,Toleranz,kuvumiliana,s,maombolezo,ujasusi,mchekeshaji,mhaili,NA,NA,NULL,NA,NA,NA,NA,NA,NA,NA,NA,NA,NA,NA,NA,NA,NA,NA,NA,NA,NA,NA
3ae75,Save data screen,canvas.Screen,1_6_0_1,NA,NA,timeout,499.7,58431.700000048,58433.4,58433.7,58916.5,58917.299999952,2023-12-19T13:03:45Z,58933.4,Toleranz,kuvumiliana,s,maombolezo,ujasusi,mchekeshaji,NA,NA,0,NULL,NA,NA,NA,NA,NA,NA,NA,NA,NA,NA,NA,NA,NA,NA,NA,NA,NA,NA,NA
3ae75,deep,flow.Sequence,1_6_0,NA,NA,completion,7016.5,51884.799999952,51883.3,51900,58916.5,58917.600000024,2023-12-19T13:03:45Z,58933.4,Toleranz,kuvumiliana,s,maombolezo,ujasusi,mchekeshaji,NA,NA,NA,NULL,NA,NA,NA,NA,NA,NA,NA,NA,NA,NA,NA,NA,NA,NA,NA,NA,NA,NA,NA
3ae75,task,flow.Sequence,1_6,NA,NA,completion,7016.5,51884.700000048,51883.3,51900,58916.5,58917.799999952,2023-12-19T13:03:45Z,58933.4,Toleranz,kuvumiliana,s,maombolezo,ujasusi,mchekeshaji,NA,NA,NA,NULL,NA,NA,NA,NA,NA,NA,NA,NA,NA,NA,NA,NA,NA,NA,NA,NA,NA,NA,NA
3ae75,Deep Question,html.Page,1_7_0_0,NA,NA,form submission,6153.6,58918,58916.5,58933.4,65087,65087.200000048,2023-12-19T13:03:51Z,65099.9,Schock,mshtuko,s,biashara,kukataza,vichekesho,mbanlum,NA,NA,NULL,NA,NA,NA,NA,NA,NA,NA,NA,NA,NA,NA,NA,NA,NA,NA,NA,NA,NA,NA
3ae75,Save data screen,canvas.Screen,1_7_0_1,NA,NA,timeout,500.1,65088.899999976,65083.4,65099.9,65583.3,65584,2023-12-19T13:03:52Z,65600,Schock,mshtuko,s,biashara,kukataza,vichekesho,NA,NA,0,NULL,NA,NA,NA,NA,NA,NA,NA,NA,NA,NA,NA,NA,NA,NA,NA,NA,NA,NA,NA
3ae75,deep,flow.Sequence,1_7_0,NA,NA,completion,6649.9,58918,58916.5,58933.4,65583.3,65584.299999952,2023-12-19T13:03:52Z,65600,Schock,mshtuko,s,biashara,kukataza,vichekesho,NA,NA,NA,NULL,NA,NA,NA,NA,NA,NA,NA,NA,NA,NA,NA,NA,NA,NA,NA,NA,NA,NA,NA
3ae75,task,flow.Sequence,1_7,NA,NA,completion,6649.9,58917.899999976,58916.5,58933.4,65583.3,65584.5,2023-12-19T13:03:52Z,65600,Schock,mshtuko,s,biashara,kukataza,vichekesho,NA,NA,NA,NULL,NA,NA,NA,NA,NA,NA,NA,NA,NA,NA,NA,NA,NA,NA,NA,NA,NA,NA,NA
3ae75,Deep Question,html.Page,1_8_0_0,NA,NA,form submission,9358.7000000477,65584.700000048,65583.3,65600,74958.700000048,74959,2023-12-19T13:04:01Z,74966.5,Theorie,nadharia,s,ushungi,mkutano,uwakilishi,moldavant,NA,NA,NULL,NA,NA,NA,NA,NA,NA,NA,NA,NA,NA,NA,NA,NA,NA,NA,NA,NA,NA,NA
3ae75,Save data screen,canvas.Screen,1_8_0_1,NA,NA,timeout,500.2,74960.700000048,74950,74966.5,75449.9,75450.799999952,2023-12-19T13:04:02Z,75466.7,Theorie,nadharia,s,ushungi,mkutano,uwakilishi,NA,NA,0,NULL,NA,NA,NA,NA,NA,NA,NA,NA,NA,NA,NA,NA,NA,NA,NA,NA,NA,NA,NA
3ae75,deep,flow.Sequence,1_8_0,NA,NA,completion,9849.9,65584.700000048,65583.3,65600,75449.9,75450.899999976,2023-12-19T13:04:02Z,75466.7,Theorie,nadharia,s,ushungi,mkutano,uwakilishi,NA,NA,NA,NULL,NA,NA,NA,NA,NA,NA,NA,NA,NA,NA,NA,NA,NA,NA,NA,NA,NA,NA,NA
3ae75,task,flow.Sequence,1_8,NA,NA,completion,9849.9,65584.600000024,65583.3,65600,75449.9,75451.100000024,2023-12-19T13:04:02Z,75466.7,Theorie,nadharia,s,ushungi,mkutano,uwakilishi,NA,NA,NA,NULL,NA,NA,NA,NA,NA,NA,NA,NA,NA,NA,NA,NA,NA,NA,NA,NA,NA,NA,NA
3ae75,Deep Question,html.Page,1_9_0_0,NA,NA,form submission,16020.199999976,75451.299999952,75449.9,75466.7,91486.899999976,91487.200000048,2023-12-19T13:04:18Z,91500,Hoffnung,matarajio,d,kutaalamika,uratibu,mvumbuzi,ghialuma,NA,NA,NULL,NA,NA,NA,NA,NA,NA,NA,NA,NA,NA,NA,NA,NA,NA,NA,NA,NA,NA,NA
3ae75,Save data screen,canvas.Screen,1_9_0_1,NA,NA,timeout,500,91488.700000048,91483.3,91500,91983.3,91984.100000024,2023-12-19T13:04:18Z,92000,Hoffnung,matarajio,d,kutaalamika,uratibu,mvumbuzi,NA,NA,0,NULL,NA,NA,NA,NA,NA,NA,NA,NA,NA,NA,NA,NA,NA,NA,NA,NA,NA,NA,NA
3ae75,deep,flow.Sequence,1_9_0,NA,NA,completion,16516.6,75451.299999952,75449.9,75466.7,91983.3,91984.399999976,2023-12-19T13:04:18Z,92000,Hoffnung,matarajio,d,kutaalamika,uratibu,mvumbuzi,NA,NA,NA,NULL,NA,NA,NA,NA,NA,NA,NA,NA,NA,NA,NA,NA,NA,NA,NA,NA,NA,NA,NA
3ae75,task,flow.Sequence,1_9,NA,NA,completion,16516.6,75451.200000048,75449.9,75466.7,91983.3,91984.5,2023-12-19T13:04:18Z,92000,Hoffnung,matarajio,d,kutaalamika,uratibu,mvumbuzi,NA,NA,NA,NULL,NA,NA,NA,NA,NA,NA,NA,NA,NA,NA,NA,NA,NA,NA,NA,NA,NA,NA,NA
3ae75,Deep Question,html.Page,1_10_0_0,NA,NA,form submission,10046.700000048,91984.799999952,91983.3,92000,102046.70000005,102046.79999995,2023-12-19T13:04:28Z,102050.1,Inhalt,yaliyomo,d,kishawishi,hifadhi,kutembea,hasmalulu,NA,NA,NULL,NA,NA,NA,NA,NA,NA,NA,NA,NA,NA,NA,NA,NA,NA,NA,NA,NA,NA,NA
3ae75,Save data screen,canvas.Screen,1_10_0_1,NA,NA,timeout,499.89999999999,102048.39999998,102050.1,102050.1,102533.3,102534,2023-12-19T13:04:29Z,102550,Inhalt,yaliyomo,d,kishawishi,hifadhi,kutembea,NA,NA,0,NULL,NA,NA,NA,NA,NA,NA,NA,NA,NA,NA,NA,NA,NA,NA,NA,NA,NA,NA,NA
3ae75,deep,flow.Sequence,1_10_0,NA,NA,completion,10533.3,91984.799999952,91983.3,92000,102533.3,102534.39999998,2023-12-19T13:04:29Z,102550,Inhalt,yaliyomo,d,kishawishi,hifadhi,kutembea,NA,NA,NA,NULL,NA,NA,NA,NA,NA,NA,NA,NA,NA,NA,NA,NA,NA,NA,NA,NA,NA,NA,NA
3ae75,task,flow.Sequence,1_10,NA,NA,completion,10533.3,91984.700000048,91983.3,92000,102533.3,102534.5,2023-12-19T13:04:29Z,102550,Inhalt,yaliyomo,d,kishawishi,hifadhi,kutembea,NA,NA,NA,NULL,NA,NA,NA,NA,NA,NA,NA,NA,NA,NA,NA,NA,NA,NA,NA,NA,NA,NA,NA
3ae75,Deep Question,html.Page,1_11_0_0,NA,NA,form submission,13984.700000048,102534.70000005,102533.3,102550,116534.70000005,116534.89999998,2023-12-19T13:04:43Z,116549.9,Verpackung,ufungaji,d,uhusiano,upimaji,uchunguzi,moldavugu,NA,NA,NULL,NA,NA,NA,NA,NA,NA,NA,NA,NA,NA,NA,NA,NA,NA,NA,NA,NA,NA,NA
3ae75,Save data screen,canvas.Screen,1_11_0_1,NA,NA,timeout,500.10000000001,116536.60000002,116533.3,116549.9,117033.3,117034.10000002,2023-12-19T13:04:43Z,117050,Verpackung,ufungaji,d,uhusiano,upimaji,uchunguzi,NA,NA,0,NULL,NA,NA,NA,NA,NA,NA,NA,NA,NA,NA,NA,NA,NA,NA,NA,NA,NA,NA,NA
3ae75,deep,flow.Sequence,1_11_0,NA,NA,completion,14483.3,102534.70000005,102533.3,102550,117033.3,117034.29999995,2023-12-19T13:04:43Z,117050,Verpackung,ufungaji,d,uhusiano,upimaji,uchunguzi,NA,NA,NA,NULL,NA,NA,NA,NA,NA,NA,NA,NA,NA,NA,NA,NA,NA,NA,NA,NA,NA,NA,NA
3ae75,task,flow.Sequence,1_11,NA,NA,completion,14483.3,102534.60000002,102533.3,102550,117033.3,117034.39999998,2023-12-19T13:04:43Z,117050,Verpackung,ufungaji,d,uhusiano,upimaji,uchunguzi,NA,NA,NA,NULL,NA,NA,NA,NA,NA,NA,NA,NA,NA,NA,NA,NA,NA,NA,NA,NA,NA,NA,NA
3ae75,Deep Question,html.Page,1_12_0_0,NA,NA,form submission,13492.799999952,117034.60000002,117033.3,117050,130542.79999995,130543,2023-12-19T13:04:57Z,130549.8,Vergnügen,kichekesho,d,dubwana,mpanuko,mtesaji,ghukala,NA,NA,NULL,NA,NA,NA,NA,NA,NA,NA,NA,NA,NA,NA,NA,NA,NA,NA,NA,NA,NA,NA
3ae75,Save data screen,canvas.Screen,1_12_0_1,NA,NA,timeout,500.2,130544.79999995,130533.3,130549.8,131033.3,131034,2023-12-19T13:04:57Z,131050,Vergnügen,kichekesho,d,dubwana,mpanuko,mtesaji,NA,NA,0,NULL,NA,NA,NA,NA,NA,NA,NA,NA,NA,NA,NA,NA,NA,NA,NA,NA,NA,NA,NA
3ae75,deep,flow.Sequence,1_12_0,NA,NA,completion,13983.3,117034.60000002,117033.3,117050,131033.3,131034.20000005,2023-12-19T13:04:57Z,131050,Vergnügen,kichekesho,d,dubwana,mpanuko,mtesaji,NA,NA,NA,NULL,NA,NA,NA,NA,NA,NA,NA,NA,NA,NA,NA,NA,NA,NA,NA,NA,NA,NA,NA
3ae75,task,flow.Sequence,1_12,NA,NA,completion,13983.3,117034.5,117033.3,117050,131033.3,131034.39999998,2023-12-19T13:04:57Z,131050,Vergnügen,kichekesho,d,dubwana,mpanuko,mtesaji,NA,NA,NA,NULL,NA,NA,NA,NA,NA,NA,NA,NA,NA,NA,NA,NA,NA,NA,NA,NA,NA,NA,NA
3ae75,Deep Question,html.Page,1_13_0_0,NA,NA,form submission,19765.100000024,131034.60000002,131033.3,131050,150815.10000002,150815.29999995,2023-12-19T13:05:17Z,150816.6,Fenster,dirisha,s,walakini,tasawari,maarifa,flomadi,NA,NA,NULL,NA,NA,NA,NA,NA,NA,NA,NA,NA,NA,NA,NA,NA,NA,NA,NA,NA,NA,NA
3ae75,Save data screen,canvas.Screen,1_13_0_1,NA,NA,timeout,500,150817,150816.6,150816.6,151299.9,151300.60000002,2023-12-19T13:05:18Z,151316.6,Fenster,dirisha,s,walakini,tasawari,maarifa,NA,NA,0,NULL,NA,NA,NA,NA,NA,NA,NA,NA,NA,NA,NA,NA,NA,NA,NA,NA,NA,NA,NA
3ae75,deep,flow.Sequence,1_13_0,NA,NA,completion,20249.9,131034.60000002,131033.3,131050,151299.9,151300.89999998,2023-12-19T13:05:18Z,151316.6,Fenster,dirisha,s,walakini,tasawari,maarifa,NA,NA,NA,NULL,NA,NA,NA,NA,NA,NA,NA,NA,NA,NA,NA,NA,NA,NA,NA,NA,NA,NA,NA
3ae75,task,flow.Sequence,1_13,NA,NA,completion,20249.9,131034.5,131033.3,131050,151299.9,151301.10000002,2023-12-19T13:05:18Z,151316.6,Fenster,dirisha,s,walakini,tasawari,maarifa,NA,NA,NA,NULL,NA,NA,NA,NA,NA,NA,NA,NA,NA,NA,NA,NA,NA,NA,NA,NA,NA,NA,NA
3ae75,Deep Question,html.Page,1_14_0_0,NA,NA,form submission,7906.2999999762,151301.29999995,151299.9,151316.6,159222.89999998,159223.10000002,2023-12-19T13:05:26Z,159233.1,Ergänzung,kijalizo,s,ulaghai,mustarehe,matangazo,golimanu,NA,NA,NULL,NA,NA,NA,NA,NA,NA,NA,NA,NA,NA,NA,NA,NA,NA,NA,NA,NA,NA,NA
3ae75,Save data screen,canvas.Screen,1_14_0_1,NA,NA,timeout,500.10000000001,159224.70000005,159216.5,159233.1,159716.6,159717.39999998,2023-12-19T13:05:26Z,159733.2,Ergänzung,kijalizo,s,ulaghai,mustarehe,matangazo,NA,NA,0,NULL,NA,NA,NA,NA,NA,NA,NA,NA,NA,NA,NA,NA,NA,NA,NA,NA,NA,NA,NA
3ae75,deep,flow.Sequence,1_14_0,NA,NA,completion,8400,151301.20000005,151299.9,151316.6,159716.6,159717.70000005,2023-12-19T13:05:26Z,159733.2,Ergänzung,kijalizo,s,ulaghai,mustarehe,matangazo,NA,NA,NA,NULL,NA,NA,NA,NA,NA,NA,NA,NA,NA,NA,NA,NA,NA,NA,NA,NA,NA,NA,NA
3ae75,task,flow.Sequence,1_14,NA,NA,completion,8400,151301.10000002,151299.9,151316.6,159716.6,159717.89999998,2023-12-19T13:05:26Z,159733.2,Ergänzung,kijalizo,s,ulaghai,mustarehe,matangazo,NA,NA,NA,NULL,NA,NA,NA,NA,NA,NA,NA,NA,NA,NA,NA,NA,NA,NA,NA,NA,NA,NA,NA
3ae75,Deep Question,html.Page,1_15_0_0,NA,NA,form submission,7721.6999999761,159718.10000002,159716.6,159733.2,167454.89999998,167455.10000002,2023-12-19T13:05:34Z,167466.5,Schüler,mwanafunzi,d,mwekezaji,matumizi,uaminifu,holigano,NA,NA,NULL,NA,NA,NA,NA,NA,NA,NA,NA,NA,NA,NA,NA,NA,NA,NA,NA,NA,NA,NA
3ae75,Save data screen,canvas.Screen,1_15_0_1,NA,NA,timeout,500,167456.70000005,167450,167466.5,167949.9,167950.60000002,2023-12-19T13:05:34Z,167966.5,Schüler,mwanafunzi,d,mwekezaji,matumizi,uaminifu,NA,NA,0,NULL,NA,NA,NA,NA,NA,NA,NA,NA,NA,NA,NA,NA,NA,NA,NA,NA,NA,NA,NA
3ae75,deep,flow.Sequence,1_15_0,NA,NA,completion,8216.7,159718,159716.6,159733.2,167949.9,167950.79999995,2023-12-19T13:05:34Z,167966.5,Schüler,mwanafunzi,d,mwekezaji,matumizi,uaminifu,NA,NA,NA,NULL,NA,NA,NA,NA,NA,NA,NA,NA,NA,NA,NA,NA,NA,NA,NA,NA,NA,NA,NA
3ae75,task,flow.Sequence,1_15,NA,NA,completion,8216.7,159717.89999998,159716.6,159733.2,167949.9,167951,2023-12-19T13:05:34Z,167966.5,Schüler,mwanafunzi,d,mwekezaji,matumizi,uaminifu,NA,NA,NA,NULL,NA,NA,NA,NA,NA,NA,NA,NA,NA,NA,NA,NA,NA,NA,NA,NA,NA,NA,NA
3ae75,retrieval block 1 (cued recall),flow.Loop,1,NA,NA,completion,165266.6,2679,2666.7,2683.3,167949.9,167951.20000005,2023-12-19T13:05:34Z,167966.5,NA,NA,NA,NA,NA,NA,NA,NA,NA,NULL,NA,NA,NA,NA,NA,NA,NA,NA,NA,NA,NA,NA,NA,NA,NA,NA,NA,NA,NA
3ae75,Shallow Question,html.Page,2_0_0_0,NA,NA,form submission,8296.5,167951.60000002,167949.9,167966.5,176263,176263.29999995,2023-12-19T13:05:43Z,176266.5,Verpackung,ufungaji,d,uhusiano,upimaji,uchunguzi,uchunguzi,NA,NA,"c(""distractor1"", ""distractor2"", ""distractor3"")",NA,NA,NA,NA,NA,NA,NA,NA,NA,NA,NA,NA,NA,NA,NA,NA,NA,NA,NA
3ae75,Save data screen,canvas.Screen,2_0_0_1,NA,NA,timeout,500,176264.89999998,176250.3,176266.5,176749.9,176750.70000005,2023-12-19T13:05:43Z,176766.5,Verpackung,ufungaji,d,uhusiano,upimaji,uchunguzi,NA,NA,0,"c(""distractor1"", ""distractor2"", ""distractor3"")",NA,NA,NA,NA,NA,NA,NA,NA,NA,NA,NA,NA,NA,NA,NA,NA,NA,NA,NA
3ae75,shallow,flow.Sequence,2_0_0,NA,NA,completion,8783.4,167951.60000002,167949.9,167966.5,176749.9,176751,2023-12-19T13:05:43Z,176766.5,Verpackung,ufungaji,d,uhusiano,upimaji,uchunguzi,NA,NA,NA,"c(""distractor1"", ""distractor2"", ""distractor3"")",NA,NA,NA,NA,NA,NA,NA,NA,NA,NA,NA,NA,NA,NA,NA,NA,NA,NA,NA
3ae75,task,flow.Sequence,2_0,NA,NA,completion,8783.4,167951.5,167949.9,167966.5,176749.9,176751.20000005,2023-12-19T13:05:43Z,176766.5,Verpackung,ufungaji,d,uhusiano,upimaji,uchunguzi,NA,NA,NA,"c(""distractor1"", ""distractor2"", ""distractor3"")",NA,NA,NA,NA,NA,NA,NA,NA,NA,NA,NA,NA,NA,NA,NA,NA,NA,NA,NA
3ae75,Shallow Question,html.Page,2_1_0_0,NA,NA,form submission,4416.2999999523,176751.39999998,176749.9,176766.5,181182.79999995,181183.10000002,2023-12-19T13:05:48Z,181200.3,Hoffnung,matarajio,d,kutaalamika,uratibu,mvumbuzi,kutaalamika,NA,NA,"c(""distractor1"", ""distractor2"", ""distractor3"")",NA,NA,NA,NA,NA,NA,NA,NA,NA,NA,NA,NA,NA,NA,NA,NA,NA,NA,NA
3ae75,Save data screen,canvas.Screen,2_1_0_1,NA,NA,timeout,499.70000000001,181184.39999998,181183.3,181200.3,181683.2,181684,2023-12-19T13:05:48Z,181700,Hoffnung,matarajio,d,kutaalamika,uratibu,mvumbuzi,NA,NA,0,"c(""distractor1"", ""distractor2"", ""distractor3"")",NA,NA,NA,NA,NA,NA,NA,NA,NA,NA,NA,NA,NA,NA,NA,NA,NA,NA,NA
3ae75,shallow,flow.Sequence,2_1_0,NA,NA,completion,4916.7,176751.29999995,176749.9,176766.5,181683.2,181684.29999995,2023-12-19T13:05:48Z,181700,Hoffnung,matarajio,d,kutaalamika,uratibu,mvumbuzi,NA,NA,NA,"c(""distractor1"", ""distractor2"", ""distractor3"")",NA,NA,NA,NA,NA,NA,NA,NA,NA,NA,NA,NA,NA,NA,NA,NA,NA,NA,NA
3ae75,task,flow.Sequence,2_1,NA,NA,completion,4916.7,176751.29999995,176749.9,176766.5,181683.2,181684.5,2023-12-19T13:05:48Z,181700,Hoffnung,matarajio,d,kutaalamika,uratibu,mvumbuzi,NA,NA,NA,"c(""distractor1"", ""distractor2"", ""distractor3"")",NA,NA,NA,NA,NA,NA,NA,NA,NA,NA,NA,NA,NA,NA,NA,NA,NA,NA,NA
3ae75,Shallow Question,html.Page,2_2_0_0,NA,NA,form submission,4522.7999999523,181684.70000005,181683.2,181700,186222.79999995,186223.10000002,2023-12-19T13:05:53Z,186233.1,Fenster,dirisha,s,walakini,tasawari,maarifa,tasawari,NA,NA,"c(""distractor1"", ""distractor2"", ""distractor3"")",NA,NA,NA,NA,NA,NA,NA,NA,NA,NA,NA,NA,NA,NA,NA,NA,NA,NA,NA
3ae75,Save data screen,canvas.Screen,2_2_0_1,NA,NA,timeout,500.19999999998,186224.60000002,186216.6,186233.1,186716.6,186717.39999998,2023-12-19T13:05:53Z,186733.3,Fenster,dirisha,s,walakini,tasawari,maarifa,NA,NA,0,"c(""distractor1"", ""distractor2"", ""distractor3"")",NA,NA,NA,NA,NA,NA,NA,NA,NA,NA,NA,NA,NA,NA,NA,NA,NA,NA,NA
3ae75,shallow,flow.Sequence,2_2_0,NA,NA,completion,5016.6,181684.70000005,181683.2,181700,186716.6,186717.70000005,2023-12-19T13:05:53Z,186733.3,Fenster,dirisha,s,walakini,tasawari,maarifa,NA,NA,NA,"c(""distractor1"", ""distractor2"", ""distractor3"")",NA,NA,NA,NA,NA,NA,NA,NA,NA,NA,NA,NA,NA,NA,NA,NA,NA,NA,NA
3ae75,task,flow.Sequence,2_2,NA,NA,completion,5016.6,181684.60000002,181683.2,181700,186716.6,186717.89999998,2023-12-19T13:05:53Z,186733.3,Fenster,dirisha,s,walakini,tasawari,maarifa,NA,NA,NA,"c(""distractor1"", ""distractor2"", ""distractor3"")",NA,NA,NA,NA,NA,NA,NA,NA,NA,NA,NA,NA,NA,NA,NA,NA,NA,NA,NA
3ae75,Shallow Question,html.Page,2_3_0_0,NA,NA,form submission,6289.4000000477,186718,186716.6,186733.3,193022.70000005,193022.89999998,2023-12-19T13:05:59Z,193033.2,Toleranz,kuvumiliana,s,maombolezo,ujasusi,mchekeshaji,kuvumiliana,NA,NA,"c(""distractor1"", ""distractor2"", ""distractor3"")",NA,NA,NA,NA,NA,NA,NA,NA,NA,NA,NA,NA,NA,NA,NA,NA,NA,NA,NA
3ae75,Save data screen,canvas.Screen,2_3_0_1,NA,NA,timeout,500.09999999998,193024.60000002,193016.7,193033.2,193516.5,193517.29999995,2023-12-19T13:06:00Z,193533.3,Toleranz,kuvumiliana,s,maombolezo,ujasusi,mchekeshaji,NA,NA,1,"c(""distractor1"", ""distractor2"", ""distractor3"")",NA,NA,NA,NA,NA,NA,NA,NA,NA,NA,NA,NA,NA,NA,NA,NA,NA,NA,NA
3ae75,shallow,flow.Sequence,2_3_0,NA,NA,completion,6783.2,186718,186716.6,186733.3,193516.5,193517.60000002,2023-12-19T13:06:00Z,193533.3,Toleranz,kuvumiliana,s,maombolezo,ujasusi,mchekeshaji,NA,NA,NA,"c(""distractor1"", ""distractor2"", ""distractor3"")",NA,NA,NA,NA,NA,NA,NA,NA,NA,NA,NA,NA,NA,NA,NA,NA,NA,NA,NA
3ae75,task,flow.Sequence,2_3,NA,NA,completion,6783.2,186718,186716.6,186733.3,193516.5,193517.79999995,2023-12-19T13:06:00Z,193533.3,Toleranz,kuvumiliana,s,maombolezo,ujasusi,mchekeshaji,NA,NA,NA,"c(""distractor1"", ""distractor2"", ""distractor3"")",NA,NA,NA,NA,NA,NA,NA,NA,NA,NA,NA,NA,NA,NA,NA,NA,NA,NA,NA
3ae75,Shallow Question,html.Page,2_4_0_0,NA,NA,form submission,10345.599999976,193517.89999998,193516.5,193533.3,203878.89999998,203879.10000002,2023-12-19T13:06:10Z,203883.2,Inhalt,yaliyomo,d,kishawishi,hifadhi,kutembea,hifadhi,NA,NA,"c(""distractor1"", ""distractor2"", ""distractor3"")",NA,NA,NA,NA,NA,NA,NA,NA,NA,NA,NA,NA,NA,NA,NA,NA,NA,NA,NA
3ae75,Save data screen,canvas.Screen,2_4_0_1,NA,NA,timeout,500.09999999998,203880.60000002,203866.6,203883.2,204366.6,204367.5,2023-12-19T13:06:11Z,204383.3,Inhalt,yaliyomo,d,kishawishi,hifadhi,kutembea,NA,NA,0,"c(""distractor1"", ""distractor2"", ""distractor3"")",NA,NA,NA,NA,NA,NA,NA,NA,NA,NA,NA,NA,NA,NA,NA,NA,NA,NA,NA
3ae75,shallow,flow.Sequence,2_4_0,NA,NA,completion,10833.3,193517.89999998,193516.5,193533.3,204366.6,204367.70000005,2023-12-19T13:06:11Z,204383.3,Inhalt,yaliyomo,d,kishawishi,hifadhi,kutembea,NA,NA,NA,"c(""distractor1"", ""distractor2"", ""distractor3"")",NA,NA,NA,NA,NA,NA,NA,NA,NA,NA,NA,NA,NA,NA,NA,NA,NA,NA,NA
3ae75,task,flow.Sequence,2_4,NA,NA,completion,10833.3,193517.89999998,193516.5,193533.3,204366.6,204367.79999995,2023-12-19T13:06:11Z,204383.3,Inhalt,yaliyomo,d,kishawishi,hifadhi,kutembea,NA,NA,NA,"c(""distractor1"", ""distractor2"", ""distractor3"")",NA,NA,NA,NA,NA,NA,NA,NA,NA,NA,NA,NA,NA,NA,NA,NA,NA,NA,NA
3ae75,Shallow Question,html.Page,2_5_0_0,NA,NA,form submission,4487.5999999762,204368.10000002,204366.6,204383.3,208870.89999998,208871,2023-12-19T13:06:15Z,208883.3,Vergnügen,kichekesho,d,dubwana,mpanuko,mtesaji,dubwana,NA,NA,"c(""distractor1"", ""distractor2"", ""distractor3"")",NA,NA,NA,NA,NA,NA,NA,NA,NA,NA,NA,NA,NA,NA,NA,NA,NA,NA,NA
3ae75,Save data screen,canvas.Screen,2_5_0_1,NA,NA,timeout,500,208872.60000002,208866.7,208883.3,209366.5,209367.29999995,2023-12-19T13:06:16Z,209383.3,Vergnügen,kichekesho,d,dubwana,mpanuko,mtesaji,NA,NA,0,"c(""distractor1"", ""distractor2"", ""distractor3"")",NA,NA,NA,NA,NA,NA,NA,NA,NA,NA,NA,NA,NA,NA,NA,NA,NA,NA,NA
3ae75,shallow,flow.Sequence,2_5_0,NA,NA,completion,4983.2,204368.10000002,204366.6,204383.3,209366.5,209367.60000002,2023-12-19T13:06:16Z,209383.3,Vergnügen,kichekesho,d,dubwana,mpanuko,mtesaji,NA,NA,NA,"c(""distractor1"", ""distractor2"", ""distractor3"")",NA,NA,NA,NA,NA,NA,NA,NA,NA,NA,NA,NA,NA,NA,NA,NA,NA,NA,NA
3ae75,task,flow.Sequence,2_5,NA,NA,completion,4983.2,204367.89999998,204366.6,204383.3,209366.5,209367.79999995,2023-12-19T13:06:16Z,209383.3,Vergnügen,kichekesho,d,dubwana,mpanuko,mtesaji,NA,NA,NA,"c(""distractor1"", ""distractor2"", ""distractor3"")",NA,NA,NA,NA,NA,NA,NA,NA,NA,NA,NA,NA,NA,NA,NA,NA,NA,NA,NA
3ae75,Shallow Question,html.Page,2_6_0_0,NA,NA,form submission,4127.7,209368,209366.5,209383.3,213511,213511.20000005,2023-12-19T13:06:20Z,213516.6,Wohlstand,mafanikio,s,chimbuko,kumbuko,mapwaji,mafanikio,NA,NA,"c(""distractor1"", ""distractor2"", ""distractor3"")",NA,NA,NA,NA,NA,NA,NA,NA,NA,NA,NA,NA,NA,NA,NA,NA,NA,NA,NA
3ae75,Save data screen,canvas.Screen,2_6_0_1,NA,NA,timeout,499.89999999999,213512.70000005,213516.6,213516.6,213999.9,214001,2023-12-19T13:06:20Z,214016.5,Wohlstand,mafanikio,s,chimbuko,kumbuko,mapwaji,NA,NA,1,"c(""distractor1"", ""distractor2"", ""distractor3"")",NA,NA,NA,NA,NA,NA,NA,NA,NA,NA,NA,NA,NA,NA,NA,NA,NA,NA,NA
3ae75,shallow,flow.Sequence,2_6_0,NA,NA,completion,4616.6,209368,209366.5,209383.3,213999.9,214001.29999995,2023-12-19T13:06:20Z,214016.5,Wohlstand,mafanikio,s,chimbuko,kumbuko,mapwaji,NA,NA,NA,"c(""distractor1"", ""distractor2"", ""distractor3"")",NA,NA,NA,NA,NA,NA,NA,NA,NA,NA,NA,NA,NA,NA,NA,NA,NA,NA,NA
3ae75,task,flow.Sequence,2_6,NA,NA,completion,4616.6,209367.79999995,209366.5,209383.3,213999.9,214001.60000002,2023-12-19T13:06:20Z,214016.5,Wohlstand,mafanikio,s,chimbuko,kumbuko,mapwaji,NA,NA,NA,"c(""distractor1"", ""distractor2"", ""distractor3"")",NA,NA,NA,NA,NA,NA,NA,NA,NA,NA,NA,NA,NA,NA,NA,NA,NA,NA,NA
3ae75,Shallow Question,html.Page,2_7_0_0,NA,NA,form submission,2678.3999999762,214001.79999995,213999.9,214016.5,216694.89999998,216695,2023-12-19T13:06:23Z,216699.7,Schock,mshtuko,s,biashara,kukataza,vichekesho,biashara,NA,NA,"c(""distractor1"", ""distractor2"", ""distractor3"")",NA,NA,NA,NA,NA,NA,NA,NA,NA,NA,NA,NA,NA,NA,NA,NA,NA,NA,NA
3ae75,Save data screen,canvas.Screen,2_7_0_1,NA,NA,timeout,500.19999999998,216696.79999995,216683.2,216699.7,217183.2,217184,2023-12-19T13:06:24Z,217199.9,Schock,mshtuko,s,biashara,kukataza,vichekesho,NA,NA,0,"c(""distractor1"", ""distractor2"", ""distractor3"")",NA,NA,NA,NA,NA,NA,NA,NA,NA,NA,NA,NA,NA,NA,NA,NA,NA,NA,NA
3ae75,shallow,flow.Sequence,2_7_0,NA,NA,completion,3166.7,214001.70000005,213999.9,214016.5,217183.2,217184.20000005,2023-12-19T13:06:24Z,217199.9,Schock,mshtuko,s,biashara,kukataza,vichekesho,NA,NA,NA,"c(""distractor1"", ""distractor2"", ""distractor3"")",NA,NA,NA,NA,NA,NA,NA,NA,NA,NA,NA,NA,NA,NA,NA,NA,NA,NA,NA
3ae75,task,flow.Sequence,2_7,NA,NA,completion,3166.7,214001.60000002,213999.9,214016.5,217183.2,217184.39999998,2023-12-19T13:06:24Z,217199.9,Schock,mshtuko,s,biashara,kukataza,vichekesho,NA,NA,NA,"c(""distractor1"", ""distractor2"", ""distractor3"")",NA,NA,NA,NA,NA,NA,NA,NA,NA,NA,NA,NA,NA,NA,NA,NA,NA,NA,NA
3ae75,Shallow Question,html.Page,2_8_0_0,NA,NA,form submission,3606.8999999523,217184.60000002,217183.2,217199.9,220806.79999995,220807,2023-12-19T13:06:27Z,220816.5,Notfall,dharura,d,rairai,malalamiko,ahueni,dharura,NA,NA,"c(""distractor1"", ""distractor2"", ""distractor3"")",NA,NA,NA,NA,NA,NA,NA,NA,NA,NA,NA,NA,NA,NA,NA,NA,NA,NA,NA
3ae75,Save data screen,canvas.Screen,2_8_0_1,NA,NA,timeout,500,220808.39999998,220799.9,220816.5,221299.9,221300.70000005,2023-12-19T13:06:28Z,221316.5,Notfall,dharura,d,rairai,malalamiko,ahueni,NA,NA,1,"c(""distractor1"", ""distractor2"", ""distractor3"")",NA,NA,NA,NA,NA,NA,NA,NA,NA,NA,NA,NA,NA,NA,NA,NA,NA,NA,NA
3ae75,shallow,flow.Sequence,2_8_0,NA,NA,completion,4100,217184.60000002,217183.2,217199.9,221299.9,221300.89999998,2023-12-19T13:06:28Z,221316.5,Notfall,dharura,d,rairai,malalamiko,ahueni,NA,NA,NA,"c(""distractor1"", ""distractor2"", ""distractor3"")",NA,NA,NA,NA,NA,NA,NA,NA,NA,NA,NA,NA,NA,NA,NA,NA,NA,NA,NA
3ae75,task,flow.Sequence,2_8,NA,NA,completion,4100,217184.5,217183.2,217199.9,221299.9,221301.20000005,2023-12-19T13:06:28Z,221316.5,Notfall,dharura,d,rairai,malalamiko,ahueni,NA,NA,NA,"c(""distractor1"", ""distractor2"", ""distractor3"")",NA,NA,NA,NA,NA,NA,NA,NA,NA,NA,NA,NA,NA,NA,NA,NA,NA,NA,NA
3ae75,Shallow Question,html.Page,2_9_0_0,NA,NA,form submission,6658.3999999762,221301.29999995,221299.9,221316.5,227974.89999998,227975.20000005,2023-12-19T13:06:34Z,227983.1,Spionage,upelelezi,s,maslahi,utokazo,magangao,upelelezi,NA,NA,"c(""distractor1"", ""distractor2"", ""distractor3"")",NA,NA,NA,NA,NA,NA,NA,NA,NA,NA,NA,NA,NA,NA,NA,NA,NA,NA,NA
3ae75,Save data screen,canvas.Screen,2_9_0_1,NA,NA,timeout,500.10000000001,227976.70000005,227966.7,227983.1,228466.5,228467.89999998,2023-12-19T13:06:35Z,228483.2,Spionage,upelelezi,s,maslahi,utokazo,magangao,NA,NA,1,"c(""distractor1"", ""distractor2"", ""distractor3"")",NA,NA,NA,NA,NA,NA,NA,NA,NA,NA,NA,NA,NA,NA,NA,NA,NA,NA,NA
3ae75,shallow,flow.Sequence,2_9_0,NA,NA,completion,7150,221301.20000005,221299.9,221316.5,228466.5,228468.29999995,2023-12-19T13:06:35Z,228483.2,Spionage,upelelezi,s,maslahi,utokazo,magangao,NA,NA,NA,"c(""distractor1"", ""distractor2"", ""distractor3"")",NA,NA,NA,NA,NA,NA,NA,NA,NA,NA,NA,NA,NA,NA,NA,NA,NA,NA,NA
3ae75,task,flow.Sequence,2_9,NA,NA,completion,7150,221301.20000005,221299.9,221316.5,228466.5,228468.5,2023-12-19T13:06:35Z,228483.2,Spionage,upelelezi,s,maslahi,utokazo,magangao,NA,NA,NA,"c(""distractor1"", ""distractor2"", ""distractor3"")",NA,NA,NA,NA,NA,NA,NA,NA,NA,NA,NA,NA,NA,NA,NA,NA,NA,NA,NA
3ae75,Shallow Question,html.Page,2_10_0_0,NA,NA,form submission,5195.5999999523,228468.70000005,228466.5,228483.2,233678.79999995,233679,2023-12-19T13:06:40Z,233683.7,Ergänzung,kijalizo,s,ulaghai,mustarehe,matangazo,kijalizo,NA,NA,"c(""distractor1"", ""distractor2"", ""distractor3"")",NA,NA,NA,NA,NA,NA,NA,NA,NA,NA,NA,NA,NA,NA,NA,NA,NA,NA,NA
3ae75,Save data screen,canvas.Screen,2_10_0_1,NA,NA,timeout,499.5,233680.39999998,233666.6,233683.7,234166.5,234167.20000005,2023-12-19T13:06:41Z,234183.2,Ergänzung,kijalizo,s,ulaghai,mustarehe,matangazo,NA,NA,1,"c(""distractor1"", ""distractor2"", ""distractor3"")",NA,NA,NA,NA,NA,NA,NA,NA,NA,NA,NA,NA,NA,NA,NA,NA,NA,NA,NA
3ae75,shallow,flow.Sequence,2_10_0,NA,NA,completion,5683.3,228468.60000002,228466.5,228483.2,234166.5,234167.60000002,2023-12-19T13:06:41Z,234183.2,Ergänzung,kijalizo,s,ulaghai,mustarehe,matangazo,NA,NA,NA,"c(""distractor1"", ""distractor2"", ""distractor3"")",NA,NA,NA,NA,NA,NA,NA,NA,NA,NA,NA,NA,NA,NA,NA,NA,NA,NA,NA
3ae75,task,flow.Sequence,2_10,NA,NA,completion,5683.3,228468.60000002,228466.5,228483.2,234166.5,234167.70000005,2023-12-19T13:06:41Z,234183.2,Ergänzung,kijalizo,s,ulaghai,mustarehe,matangazo,NA,NA,NA,"c(""distractor1"", ""distractor2"", ""distractor3"")",NA,NA,NA,NA,NA,NA,NA,NA,NA,NA,NA,NA,NA,NA,NA,NA,NA,NA,NA
3ae75,Shallow Question,html.Page,2_11_0_0,NA,NA,form submission,3511.5999999523,234168,234166.5,234183.2,237694.79999995,237695.10000002,2023-12-19T13:06:44Z,237699.7,Schlange,foleni,s,uvumilivu,uteuzi,muuzaji,uvumilivu,NA,NA,"c(""distractor1"", ""distractor2"", ""distractor3"")",NA,NA,NA,NA,NA,NA,NA,NA,NA,NA,NA,NA,NA,NA,NA,NA,NA,NA,NA
3ae75,Save data screen,canvas.Screen,2_11_0_1,NA,NA,timeout,500.19999999998,237696.60000002,237683.2,237699.7,238183.2,238183.89999998,2023-12-19T13:06:45Z,238199.9,Schlange,foleni,s,uvumilivu,uteuzi,muuzaji,NA,NA,0,"c(""distractor1"", ""distractor2"", ""distractor3"")",NA,NA,NA,NA,NA,NA,NA,NA,NA,NA,NA,NA,NA,NA,NA,NA,NA,NA,NA
3ae75,shallow,flow.Sequence,2_11_0,NA,NA,completion,4000,234168,234166.5,234183.2,238183.2,238184.20000005,2023-12-19T13:06:45Z,238199.9,Schlange,foleni,s,uvumilivu,uteuzi,muuzaji,NA,NA,NA,"c(""distractor1"", ""distractor2"", ""distractor3"")",NA,NA,NA,NA,NA,NA,NA,NA,NA,NA,NA,NA,NA,NA,NA,NA,NA,NA,NA
3ae75,task,flow.Sequence,2_11,NA,NA,completion,4000,234167.89999998,234166.5,234183.2,238183.2,238184.29999995,2023-12-19T13:06:45Z,238199.9,Schlange,foleni,s,uvumilivu,uteuzi,muuzaji,NA,NA,NA,"c(""distractor1"", ""distractor2"", ""distractor3"")",NA,NA,NA,NA,NA,NA,NA,NA,NA,NA,NA,NA,NA,NA,NA,NA,NA,NA,NA
3ae75,Shallow Question,html.Page,2_12_0_0,NA,NA,form submission,4943.2000000238,238184.5,238183.2,238199.9,243143.10000002,243143.29999995,2023-12-19T13:06:50Z,243149.9,Theorie,nadharia,s,ushungi,mkutano,uwakilishi,mkutano,NA,NA,"c(""distractor1"", ""distractor2"", ""distractor3"")",NA,NA,NA,NA,NA,NA,NA,NA,NA,NA,NA,NA,NA,NA,NA,NA,NA,NA,NA
3ae75,Save data screen,canvas.Screen,2_12_0_1,NA,NA,timeout,500,243144.79999995,243133.3,243149.9,243633.2,243633.89999998,2023-12-19T13:06:50Z,243649.9,Theorie,nadharia,s,ushungi,mkutano,uwakilishi,NA,NA,0,"c(""distractor1"", ""distractor2"", ""distractor3"")",NA,NA,NA,NA,NA,NA,NA,NA,NA,NA,NA,NA,NA,NA,NA,NA,NA,NA,NA
3ae75,shallow,flow.Sequence,2_12_0,NA,NA,completion,5433.3,238184.5,238183.2,238199.9,243633.2,243634.20000005,2023-12-19T13:06:50Z,243649.9,Theorie,nadharia,s,ushungi,mkutano,uwakilishi,NA,NA,NA,"c(""distractor1"", ""distractor2"", ""distractor3"")",NA,NA,NA,NA,NA,NA,NA,NA,NA,NA,NA,NA,NA,NA,NA,NA,NA,NA,NA
3ae75,task,flow.Sequence,2_12,NA,NA,completion,5433.3,238184.39999998,238183.2,238199.9,243633.2,243634.29999995,2023-12-19T13:06:50Z,243649.9,Theorie,nadharia,s,ushungi,mkutano,uwakilishi,NA,NA,NA,"c(""distractor1"", ""distractor2"", ""distractor3"")",NA,NA,NA,NA,NA,NA,NA,NA,NA,NA,NA,NA,NA,NA,NA,NA,NA,NA,NA
3ae75,Shallow Question,html.Page,2_13_0_0,NA,NA,form submission,2765.1,243634.5,243633.2,243649.9,246415,246415.20000005,2023-12-19T13:06:53Z,246416.6,Vermutung,udhanifu,d,haramia,tikisho,itifaki,tikisho,NA,NA,"c(""distractor1"", ""distractor2"", ""distractor3"")",NA,NA,NA,NA,NA,NA,NA,NA,NA,NA,NA,NA,NA,NA,NA,NA,NA,NA,NA
3ae75,Save data screen,canvas.Screen,2_13_0_1,NA,NA,timeout,500,246416.60000002,246416.6,246416.6,246899.8,246900.70000005,2023-12-19T13:06:53Z,246916.6,Vermutung,udhanifu,d,haramia,tikisho,itifaki,NA,NA,0,"c(""distractor1"", ""distractor2"", ""distractor3"")",NA,NA,NA,NA,NA,NA,NA,NA,NA,NA,NA,NA,NA,NA,NA,NA,NA,NA,NA
3ae75,shallow,flow.Sequence,2_13_0,NA,NA,completion,3249.9,243634.5,243633.2,243649.9,246899.8,246900.89999998,2023-12-19T13:06:53Z,246916.6,Vermutung,udhanifu,d,haramia,tikisho,itifaki,NA,NA,NA,"c(""distractor1"", ""distractor2"", ""distractor3"")",NA,NA,NA,NA,NA,NA,NA,NA,NA,NA,NA,NA,NA,NA,NA,NA,NA,NA,NA
3ae75,task,flow.Sequence,2_13,NA,NA,completion,3249.9,243634.39999998,243633.2,243649.9,246899.8,246901,2023-12-19T13:06:53Z,246916.6,Vermutung,udhanifu,d,haramia,tikisho,itifaki,NA,NA,NA,"c(""distractor1"", ""distractor2"", ""distractor3"")",NA,NA,NA,NA,NA,NA,NA,NA,NA,NA,NA,NA,NA,NA,NA,NA,NA,NA,NA
3ae75,Shallow Question,html.Page,2_14_0_0,NA,NA,form submission,4018.1000000477,246901.20000005,246899.8,246916.6,250934.70000005,250934.89999998,2023-12-19T13:06:57Z,250949.8,Schüler,mwanafunzi,d,mwekezaji,matumizi,uaminifu,mwanafunzi,NA,NA,"c(""distractor1"", ""distractor2"", ""distractor3"")",NA,NA,NA,NA,NA,NA,NA,NA,NA,NA,NA,NA,NA,NA,NA,NA,NA,NA,NA
3ae75,Save data screen,canvas.Screen,2_14_0_1,NA,NA,timeout,500.20000000001,250936.39999998,250933.2,250949.8,251433.2,251434,2023-12-19T13:06:58Z,251450,Schüler,mwanafunzi,d,mwekezaji,matumizi,uaminifu,NA,NA,1,"c(""distractor1"", ""distractor2"", ""distractor3"")",NA,NA,NA,NA,NA,NA,NA,NA,NA,NA,NA,NA,NA,NA,NA,NA,NA,NA,NA
3ae75,shallow,flow.Sequence,2_14_0,NA,NA,completion,4516.6,246901.20000005,246899.8,246916.6,251433.2,251434.29999995,2023-12-19T13:06:58Z,251450,Schüler,mwanafunzi,d,mwekezaji,matumizi,uaminifu,NA,NA,NA,"c(""distractor1"", ""distractor2"", ""distractor3"")",NA,NA,NA,NA,NA,NA,NA,NA,NA,NA,NA,NA,NA,NA,NA,NA,NA,NA,NA
3ae75,task,flow.Sequence,2_14,NA,NA,completion,4516.6,246901.20000005,246899.8,246916.6,251433.2,251434.5,2023-12-19T13:06:58Z,251450,Schüler,mwanafunzi,d,mwekezaji,matumizi,uaminifu,NA,NA,NA,"c(""distractor1"", ""distractor2"", ""distractor3"")",NA,NA,NA,NA,NA,NA,NA,NA,NA,NA,NA,NA,NA,NA,NA,NA,NA,NA,NA
3ae75,Shallow Question,html.Page,2_15_0_0,NA,NA,form submission,3372.7000000477,251434.60000002,251433.2,251450,254822.70000005,254822.89999998,2023-12-19T13:07:01Z,254833.2,Tester,wanaojaribu,d,sherti,sihiri,mlipuko,sherti,NA,NA,"c(""distractor1"", ""distractor2"", ""distractor3"")",NA,NA,NA,NA,NA,NA,NA,NA,NA,NA,NA,NA,NA,NA,NA,NA,NA,NA,NA
3ae75,Save data screen,canvas.Screen,2_15_0_1,NA,NA,timeout,499.89999999999,254824.5,254816.6,254833.2,255316.5,255317.10000002,2023-12-19T13:07:02Z,255333.1,Tester,wanaojaribu,d,sherti,sihiri,mlipuko,NA,NA,0,"c(""distractor1"", ""distractor2"", ""distractor3"")",NA,NA,NA,NA,NA,NA,NA,NA,NA,NA,NA,NA,NA,NA,NA,NA,NA,NA,NA
3ae75,shallow,flow.Sequence,2_15_0,NA,NA,completion,3866.5,251434.60000002,251433.2,251450,255316.5,255317.39999998,2023-12-19T13:07:02Z,255333.1,Tester,wanaojaribu,d,sherti,sihiri,mlipuko,NA,NA,NA,"c(""distractor1"", ""distractor2"", ""distractor3"")",NA,NA,NA,NA,NA,NA,NA,NA,NA,NA,NA,NA,NA,NA,NA,NA,NA,NA,NA
3ae75,task,flow.Sequence,2_15,NA,NA,completion,3866.5,251434.5,251433.2,251450,255316.5,255317.60000002,2023-12-19T13:07:02Z,255333.1,Tester,wanaojaribu,d,sherti,sihiri,mlipuko,NA,NA,NA,"c(""distractor1"", ""distractor2"", ""distractor3"")",NA,NA,NA,NA,NA,NA,NA,NA,NA,NA,NA,NA,NA,NA,NA,NA,NA,NA,NA
3ae75,retrieval block 2 (multiple choice),flow.Loop,2,NA,NA,completion,87350,167951.5,167949.9,167966.5,255316.5,255317.79999995,2023-12-19T13:07:02Z,255333.1,NA,NA,NA,NA,NA,NA,NA,NA,NA,"c(""distractor1"", ""distractor2"", ""distractor3"")",NA,NA,NA,NA,NA,NA,NA,NA,NA,NA,NA,NA,NA,NA,NA,NA,NA,NA,NA
3ae75,End,canvas.Screen,3,NA,keypress(Space),response,2536.6000000477,255317.79999995,255316.5,255333.1,257869.70000005,257870.79999995,2023-12-19T13:07:04Z,257883.1,NA,NA,NA,NA,NA,NA,NA,NA,NA,NULL,NA,NA,NA,NA,NA,NA,NA,NA,NA,NA,NA,NA,NA,NA,NA,NA,NA,NA,NA
3ae75,root,flow.Sequence,NA,NA,NA,completion,256753.20000005,1107.2000000477,833.2,1116.5,257869.70000005,257871.39999998,2023-12-19T13:07:04Z,257883.1,NA,NA,NA,NA,NA,NA,NA,NA,NA,NULL,NA,NA,NA,NA,NA,NA,NA,NA,NA,NA,NA,NA,NA,NA,NA,NA,NA,NA,NA
