observation,sender,sender_type,sender_id,response,response_action,ended_on,duration,time_run,time_render,time_show,time_end,time_commit,timestamp,time_switch,distractors,german,swahili,enc,distractor1,distractor2,distractor3,response_2,x,correct,x_2,url_vp,url_sess,meta_labjs_version,meta_location,meta_user_agent,meta_platform,meta_language,meta_locale,meta_time_zone,meta_timezone_offset,meta_screen_width,meta_screen_height,meta_scroll_width,meta_scroll_height,meta_window_inner_width,meta_window_inner_height,meta_device_pixel_ratio,meta_labjs_build_flavor,meta_labjs_build_commit
6786d,Introduction general,canvas.Screen,0,weiter,keypress(q),response,63480.662000024,1230.8999999762,1161.876,1228.438,64709.100000024,64711.200000048,2023-11-11T06:45:55Z,64711.755,NULL,NA,NA,NA,NA,NA,NA,NA,NA,NA,NA,149,1,20.2.4,https://neurocog.fernuni.ch/studies/vweber/jbaenninger/encoding_immediate/index.html?vp=149&sess=1,"Mozilla/5.0 (Windows NT 10.0; Win64; x64) AppleWebKit/537.36 (KHTML, like Gecko) Chrome/119.0.0.0 Safari/537.36 Edg/119.0.0.0",Win32,de,de-CH,Europe/Zurich,-60,1920,1080,1872,910,1872,958,1,production,f5b4a49f956347addd546a832a3327688c2c0fef
6786d,Introduction practice,canvas.Screen,1_0,NA,keypress(Space),response,11259.345000023999,64711.300000072,64695.66,64711.755,75971.100000024,75971.700000048,2023-11-11T06:46:07Z,75978.61,NULL,NA,NA,NA,NA,NA,NA,NA,NA,NA,NA,NA,NA,NA,NA,NA,NA,NA,NA,NA,NA,NA,NA,NA,NA,NA,NA,NA,NA,NA
6786d,deep,flow.Sequence,1_1_0_0,NA,NA,skipped,NA,75971.800000072,NA,NA,75971.100000024,75972.700000048,2023-11-11T06:46:07Z,75978.61,"c(""distractor1"", ""distractor2"", ""distractor3"")",Gegenwart,hadhara,s,katiba,jokofu,mikopo,NA,NA,NA,NA,NA,NA,NA,NA,NA,NA,NA,NA,NA,NA,NA,NA,NA,NA,NA,NA,NA,NA,NA
6786d,Shallow Question,html.Page,1_1_0_1_0,NA,NA,form submission,21672.289999976,75972.700000048,75959.528,75978.61,97650.899999976,97651,2023-11-11T06:46:28Z,97661.782,"c(""distractor1"", ""distractor2"", ""distractor3"")",Gegenwart,hadhara,s,katiba,jokofu,mikopo,mikopo,NA,NA,NA,NA,NA,NA,NA,NA,NA,NA,NA,NA,NA,NA,NA,NA,NA,NA,NA,NA,NA,NA
6786d,"""Richtig""-Screen",canvas.Screen,1_1_0_1_1,NA,NA,skipped,NA,97651.800000072,NA,NA,97650.899999976,97651.899999976,2023-11-11T06:46:28Z,97661.782,"c(""distractor1"", ""distractor2"", ""distractor3"")",Gegenwart,hadhara,s,katiba,jokofu,mikopo,NA,NA,NA,NA,NA,NA,NA,NA,NA,NA,NA,NA,NA,NA,NA,NA,NA,NA,NA,NA,NA,NA,NA
6786d,"""Falsch""-Screen",canvas.Screen,1_1_0_1_2,NA,NA,timeout,5000.144,97652.399999976,97645.065,97661.782,102645.138,102646.89999998,2023-11-11T06:46:33Z,102661.926,"c(""distractor1"", ""distractor2"", ""distractor3"")",Gegenwart,hadhara,s,katiba,jokofu,mikopo,NA,NA,0,NA,NA,NA,NA,NA,NA,NA,NA,NA,NA,NA,NA,NA,NA,NA,NA,NA,NA,NA,NA
6786d,shallow,flow.Sequence,1_1_0_1,NA,NA,completion,26666.528,75972.700000048,75959.528,75978.61,102645.138,102647,2023-11-11T06:46:33Z,102661.926,"c(""distractor1"", ""distractor2"", ""distractor3"")",Gegenwart,hadhara,s,katiba,jokofu,mikopo,NA,NA,NA,NA,NA,NA,NA,NA,NA,NA,NA,NA,NA,NA,NA,NA,NA,NA,NA,NA,NA,NA,NA
6786d,task,flow.Sequence,1_1_0,NA,NA,completion,26666.528,75971.700000048,75959.528,75978.61,102645.138,102647.10000002,2023-11-11T06:46:33Z,102661.926,"c(""distractor1"", ""distractor2"", ""distractor3"")",Gegenwart,hadhara,s,katiba,jokofu,mikopo,NA,NA,NA,NA,NA,NA,NA,NA,NA,NA,NA,NA,NA,NA,NA,NA,NA,NA,NA,NA,NA,NA,NA
6786d,deep,flow.Sequence,1_1_1_0,NA,NA,skipped,NA,102647.10000002,NA,NA,102645.138,102647.20000005,2023-11-11T06:46:33Z,102661.926,"c(""distractor1"", ""distractor2"", ""distractor3"")",Rückhalt,msaada,s,muhula,auwali,kiwimbe,NA,NA,NA,NA,NA,NA,NA,NA,NA,NA,NA,NA,NA,NA,NA,NA,NA,NA,NA,NA,NA,NA,NA
6786d,Shallow Question,html.Page,1_1_1_1_0,NA,NA,form submission,12509.874000072,102647.20000005,102645.138,102661.926,115171.80000007,115172,2023-11-11T06:46:46Z,115178.499,"c(""distractor1"", ""distractor2"", ""distractor3"")",Rückhalt,msaada,s,muhula,auwali,kiwimbe,muhula,NA,NA,NA,NA,NA,NA,NA,NA,NA,NA,NA,NA,NA,NA,NA,NA,NA,NA,NA,NA,NA,NA
6786d,"""Richtig""-Screen",canvas.Screen,1_1_1_1_1,NA,NA,skipped,NA,115173.10000002,NA,NA,115171.80000007,115173.20000005,2023-11-11T06:46:46Z,115178.499,"c(""distractor1"", ""distractor2"", ""distractor3"")",Rückhalt,msaada,s,muhula,auwali,kiwimbe,NA,NA,NA,NA,NA,NA,NA,NA,NA,NA,NA,NA,NA,NA,NA,NA,NA,NA,NA,NA,NA,NA,NA
6786d,"""Falsch""-Screen",canvas.Screen,1_1_1_1_2,NA,NA,timeout,5000.012,115173.5,115161.96,115178.499,120161.84,120163.5,2023-11-11T06:46:51Z,120178.511,"c(""distractor1"", ""distractor2"", ""distractor3"")",Rückhalt,msaada,s,muhula,auwali,kiwimbe,NA,NA,0,NA,NA,NA,NA,NA,NA,NA,NA,NA,NA,NA,NA,NA,NA,NA,NA,NA,NA,NA,NA
6786d,shallow,flow.Sequence,1_1_1_1,NA,NA,completion,17499.914,102647.20000005,102645.138,102661.926,120161.84,120163.60000002,2023-11-11T06:46:51Z,120178.511,"c(""distractor1"", ""distractor2"", ""distractor3"")",Rückhalt,msaada,s,muhula,auwali,kiwimbe,NA,NA,NA,NA,NA,NA,NA,NA,NA,NA,NA,NA,NA,NA,NA,NA,NA,NA,NA,NA,NA,NA,NA
6786d,task,flow.Sequence,1_1_1,NA,NA,completion,17499.914,102647.10000002,102645.138,102661.926,120161.84,120163.80000007,2023-11-11T06:46:51Z,120178.511,"c(""distractor1"", ""distractor2"", ""distractor3"")",Rückhalt,msaada,s,muhula,auwali,kiwimbe,NA,NA,NA,NA,NA,NA,NA,NA,NA,NA,NA,NA,NA,NA,NA,NA,NA,NA,NA,NA,NA,NA,NA
6786d,Deep Question,html.Page,1_1_2_0_0,NA,NA,form submission,36013.789000072,120163.80000007,120161.84,120178.511,156192.30000007,156192.60000002,2023-11-11T06:47:27Z,156195.077,"c(""distractor1"", ""distractor2"", ""distractor3"")",Gesundheit,salama,d,NA,NA,NA,mekada,NA,NA,NA,NA,NA,NA,NA,NA,NA,NA,NA,NA,NA,NA,NA,NA,NA,NA,NA,NA,NA,NA
6786d,"""Richtig""-Screen",canvas.Screen,1_1_2_0_1,NA,NA,skipped,NA,156193.89999998,NA,NA,156192.30000007,156194,2023-11-11T06:47:27Z,156195.077,"c(""distractor1"", ""distractor2"", ""distractor3"")",Gesundheit,salama,d,NA,NA,NA,NA,NA,NA,NA,NA,NA,NA,NA,NA,NA,NA,NA,NA,NA,NA,NA,NA,NA,NA,NA,NA,NA,NA
6786d,"""Falsch""-Screen",canvas.Screen,1_1_2_0_2,NA,NA,timeout,5000.293,156194.80000007,156178.576,156195.077,161178.435,161179.89999998,2023-11-11T06:47:32Z,161195.37,"c(""distractor1"", ""distractor2"", ""distractor3"")",Gesundheit,salama,d,NA,NA,NA,NA,NA,0,NA,NA,NA,NA,NA,NA,NA,NA,NA,NA,NA,NA,NA,NA,NA,NA,NA,NA,NA,NA
6786d,deep,flow.Sequence,1_1_2_0,NA,NA,completion,40999.924,120163.80000007,120161.84,120178.511,161178.435,161179.89999998,2023-11-11T06:47:32Z,161195.37,"c(""distractor1"", ""distractor2"", ""distractor3"")",Gesundheit,salama,d,NA,NA,NA,NA,NA,NA,NA,NA,NA,NA,NA,NA,NA,NA,NA,NA,NA,NA,NA,NA,NA,NA,NA,NA,NA,NA
6786d,shallow,flow.Sequence,1_1_2_1,NA,NA,skipped,NA,161180,NA,NA,161178.435,161180,2023-11-11T06:47:32Z,161195.37,"c(""distractor1"", ""distractor2"", ""distractor3"")",Gesundheit,salama,d,NA,NA,NA,NA,NA,NA,NA,NA,NA,NA,NA,NA,NA,NA,NA,NA,NA,NA,NA,NA,NA,NA,NA,NA,NA,NA
6786d,task,flow.Sequence,1_1_2,NA,NA,completion,40999.924,120163.80000007,120161.84,120178.511,161178.435,161180.10000002,2023-11-11T06:47:32Z,161195.37,"c(""distractor1"", ""distractor2"", ""distractor3"")",Gesundheit,salama,d,NA,NA,NA,NA,NA,NA,NA,NA,NA,NA,NA,NA,NA,NA,NA,NA,NA,NA,NA,NA,NA,NA,NA,NA,NA,NA
6786d,Deep Question,html.Page,1_1_3_0_0,NA,NA,form submission,17252.13,161180.10000002,161178.435,161195.37,178447.5,178447.5,2023-11-11T06:47:49Z,178461.834,"c(""distractor1"", ""distractor2"", ""distractor3"")",Schatten,kivuli,d,NA,NA,NA,bunoda,NA,NA,NA,NA,NA,NA,NA,NA,NA,NA,NA,NA,NA,NA,NA,NA,NA,NA,NA,NA,NA,NA
6786d,"""Richtig""-Screen",canvas.Screen,1_1_3_0_1,NA,NA,skipped,NA,178448.70000005,NA,NA,178447.5,178448.80000007,2023-11-11T06:47:49Z,178461.834,"c(""distractor1"", ""distractor2"", ""distractor3"")",Schatten,kivuli,d,NA,NA,NA,NA,NA,NA,NA,NA,NA,NA,NA,NA,NA,NA,NA,NA,NA,NA,NA,NA,NA,NA,NA,NA,NA,NA
6786d,"""Falsch""-Screen",canvas.Screen,1_1_3_0_2,NA,NA,timeout,5000.12,178449.20000005,178445.334,178461.834,183445.116,183445.89999998,2023-11-11T06:47:54Z,183461.954,"c(""distractor1"", ""distractor2"", ""distractor3"")",Schatten,kivuli,d,NA,NA,NA,NA,NA,0,NA,NA,NA,NA,NA,NA,NA,NA,NA,NA,NA,NA,NA,NA,NA,NA,NA,NA,NA,NA
6786d,deep,flow.Sequence,1_1_3_0,NA,NA,completion,22249.746,161180.10000002,161178.435,161195.37,183445.116,183446,2023-11-11T06:47:54Z,183461.954,"c(""distractor1"", ""distractor2"", ""distractor3"")",Schatten,kivuli,d,NA,NA,NA,NA,NA,NA,NA,NA,NA,NA,NA,NA,NA,NA,NA,NA,NA,NA,NA,NA,NA,NA,NA,NA,NA,NA
6786d,shallow,flow.Sequence,1_1_3_1,NA,NA,skipped,NA,183446,NA,NA,183445.116,183446.10000002,2023-11-11T06:47:54Z,183461.954,"c(""distractor1"", ""distractor2"", ""distractor3"")",Schatten,kivuli,d,NA,NA,NA,NA,NA,NA,NA,NA,NA,NA,NA,NA,NA,NA,NA,NA,NA,NA,NA,NA,NA,NA,NA,NA,NA,NA
6786d,task,flow.Sequence,1_1_3,NA,NA,completion,22249.746,161180.10000002,161178.435,161195.37,183445.116,183446.20000005,2023-11-11T06:47:54Z,183461.954,"c(""distractor1"", ""distractor2"", ""distractor3"")",Schatten,kivuli,d,NA,NA,NA,NA,NA,NA,NA,NA,NA,NA,NA,NA,NA,NA,NA,NA,NA,NA,NA,NA,NA,NA,NA,NA,NA,NA
6786d,deep,flow.Sequence,1_1_4_0,NA,NA,skipped,NA,183446.20000005,NA,NA,183445.116,183446.20000005,2023-11-11T06:47:54Z,183461.954,"c(""distractor1"", ""distractor2"", ""distractor3"")",Kritik,lawama,s,dereva,nafasi,mawazo,NA,NA,NA,NA,NA,NA,NA,NA,NA,NA,NA,NA,NA,NA,NA,NA,NA,NA,NA,NA,NA,NA,NA
6786d,Shallow Question,html.Page,1_1_4_1_0,NA,NA,form submission,16046.346000072,183446.30000007,183445.116,183461.954,199508.30000007,199508.39999998,2023-11-11T06:48:10Z,199511.701,"c(""distractor1"", ""distractor2"", ""distractor3"")",Kritik,lawama,s,dereva,nafasi,mawazo,mawazo,NA,NA,NA,NA,NA,NA,NA,NA,NA,NA,NA,NA,NA,NA,NA,NA,NA,NA,NA,NA,NA,NA
6786d,"""Richtig""-Screen",canvas.Screen,1_1_4_1_1,NA,NA,skipped,NA,199509.5,NA,NA,199508.30000007,199509.5,2023-11-11T06:48:10Z,199511.701,"c(""distractor1"", ""distractor2"", ""distractor3"")",Kritik,lawama,s,dereva,nafasi,mawazo,NA,NA,NA,NA,NA,NA,NA,NA,NA,NA,NA,NA,NA,NA,NA,NA,NA,NA,NA,NA,NA,NA,NA
6786d,"""Falsch""-Screen",canvas.Screen,1_1_4_1_2,NA,NA,timeout,5000.217,199509.80000007,199495.143,199511.701,204495.207,204496.60000002,2023-11-11T06:48:15Z,204511.918,"c(""distractor1"", ""distractor2"", ""distractor3"")",Kritik,lawama,s,dereva,nafasi,mawazo,NA,NA,0,NA,NA,NA,NA,NA,NA,NA,NA,NA,NA,NA,NA,NA,NA,NA,NA,NA,NA,NA,NA
6786d,shallow,flow.Sequence,1_1_4_1,NA,NA,completion,21033.253,183446.30000007,183445.116,183461.954,204495.207,204496.70000005,2023-11-11T06:48:15Z,204511.918,"c(""distractor1"", ""distractor2"", ""distractor3"")",Kritik,lawama,s,dereva,nafasi,mawazo,NA,NA,NA,NA,NA,NA,NA,NA,NA,NA,NA,NA,NA,NA,NA,NA,NA,NA,NA,NA,NA,NA,NA
6786d,task,flow.Sequence,1_1_4,NA,NA,completion,21033.253,183446.20000005,183445.116,183461.954,204495.207,204496.80000007,2023-11-11T06:48:15Z,204511.918,"c(""distractor1"", ""distractor2"", ""distractor3"")",Kritik,lawama,s,dereva,nafasi,mawazo,NA,NA,NA,NA,NA,NA,NA,NA,NA,NA,NA,NA,NA,NA,NA,NA,NA,NA,NA,NA,NA,NA,NA
6786d,Deep Question,html.Page,1_1_5_0_0,NA,NA,form submission,17346.582,204496.80000007,204495.207,204511.918,221858.5,221858.70000005,2023-11-11T06:48:33Z,221861.754,"c(""distractor1"", ""distractor2"", ""distractor3"")",Qualität,mtindo,d,NA,NA,NA,forima,NA,NA,NA,NA,NA,NA,NA,NA,NA,NA,NA,NA,NA,NA,NA,NA,NA,NA,NA,NA,NA,NA
6786d,"""Richtig""-Screen",canvas.Screen,1_1_5_0_1,NA,NA,skipped,NA,221859.80000007,NA,NA,221858.5,221859.89999998,2023-11-11T06:48:33Z,221861.754,"c(""distractor1"", ""distractor2"", ""distractor3"")",Qualität,mtindo,d,NA,NA,NA,NA,NA,NA,NA,NA,NA,NA,NA,NA,NA,NA,NA,NA,NA,NA,NA,NA,NA,NA,NA,NA,NA,NA
6786d,"""Falsch""-Screen",canvas.Screen,1_1_5_0_2,NA,NA,timeout,4999.994,221860.20000005,221845.207,221861.754,226845.145,226846.60000002,2023-11-11T06:48:38Z,226861.748,"c(""distractor1"", ""distractor2"", ""distractor3"")",Qualität,mtindo,d,NA,NA,NA,NA,NA,0,NA,NA,NA,NA,NA,NA,NA,NA,NA,NA,NA,NA,NA,NA,NA,NA,NA,NA,NA,NA
6786d,deep,flow.Sequence,1_1_5_0,NA,NA,completion,22333.227,204496.80000007,204495.207,204511.918,226845.145,226846.60000002,2023-11-11T06:48:38Z,226861.748,"c(""distractor1"", ""distractor2"", ""distractor3"")",Qualität,mtindo,d,NA,NA,NA,NA,NA,NA,NA,NA,NA,NA,NA,NA,NA,NA,NA,NA,NA,NA,NA,NA,NA,NA,NA,NA,NA,NA
6786d,shallow,flow.Sequence,1_1_5_1,NA,NA,skipped,NA,226846.60000002,NA,NA,226845.145,226846.60000002,2023-11-11T06:48:38Z,226861.748,"c(""distractor1"", ""distractor2"", ""distractor3"")",Qualität,mtindo,d,NA,NA,NA,NA,NA,NA,NA,NA,NA,NA,NA,NA,NA,NA,NA,NA,NA,NA,NA,NA,NA,NA,NA,NA,NA,NA
6786d,task,flow.Sequence,1_1_5,NA,NA,completion,22333.227,204496.80000007,204495.207,204511.918,226845.145,226846.80000007,2023-11-11T06:48:38Z,226861.748,"c(""distractor1"", ""distractor2"", ""distractor3"")",Qualität,mtindo,d,NA,NA,NA,NA,NA,NA,NA,NA,NA,NA,NA,NA,NA,NA,NA,NA,NA,NA,NA,NA,NA,NA,NA,NA,NA,NA
6786d,block,flow.Loop,1_1,NA,NA,completion,150866.535,75971.700000048,75959.528,75978.61,226845.145,226846.80000007,2023-11-11T06:48:38Z,226861.748,"c(""distractor1"", ""distractor2"", ""distractor3"")",NA,NA,NA,NA,NA,NA,NA,NA,NA,NA,NA,NA,NA,NA,NA,NA,NA,NA,NA,NA,NA,NA,NA,NA,NA,NA,NA,NA,NA
6786d,Practice,flow.Sequence,1,NA,NA,completion,162133.39,64711.300000072,64695.66,64711.755,226845.145,226846.80000007,2023-11-11T06:48:38Z,226861.748,NULL,NA,NA,NA,NA,NA,NA,NA,NA,NA,NA,NA,NA,NA,NA,NA,NA,NA,NA,NA,NA,NA,NA,NA,NA,NA,NA,NA,NA,NA
6786d,Experiment start,canvas.Screen,2,weiter,keypress(q),response,21498.952000048,226846.89999998,226845.145,226861.748,248360.70000005,248361.20000005,2023-11-11T06:48:59Z,248394.963,NULL,NA,NA,NA,NA,NA,NA,NA,NA,NA,NA,NA,NA,NA,NA,NA,NA,NA,NA,NA,NA,NA,NA,NA,NA,NA,NA,NA,NA,NA
6786d,deep,flow.Sequence,3_0_0_0_0_0,NA,NA,skipped,NA,248403,NA,NA,248360.70000005,248403,2023-11-11T06:48:59Z,248394.963,NULL,Verzögerung,kuchelewa,s,mwakilishi,mwanauchumi,jaribio,NA,sdf,NA,0,NA,NA,NA,NA,NA,NA,NA,NA,NA,NA,NA,NA,NA,NA,NA,NA,NA,NA,NA
6786d,Shallow Question,html.Page,3_0_0_0_0_1_0,NA,NA,form submission,10494.936999976,248403.10000002,248358.837,248394.963,258889.89999998,258890,2023-11-11T06:49:10Z,258894.974,NULL,Verzögerung,kuchelewa,s,mwakilishi,mwanauchumi,jaribio,mwanauchumi,NA,NA,0,NA,NA,NA,NA,NA,NA,NA,NA,NA,NA,NA,NA,NA,NA,NA,NA,NA,NA,NA
6786d,"""Richtig""-Screen",canvas.Screen,3_0_0_0_0_1_1,NA,NA,skipped,NA,258891.10000002,NA,NA,258889.89999998,258891.20000005,2023-11-11T06:49:10Z,258894.974,NULL,Verzögerung,kuchelewa,s,mwakilishi,mwanauchumi,jaribio,NA,sdf,NA,0,NA,NA,NA,NA,NA,NA,NA,NA,NA,NA,NA,NA,NA,NA,NA,NA,NA,NA,NA
6786d,"""Falsch""-Screen",canvas.Screen,3_0_0_0_0_1_2,NA,NA,timeout,5000.099,258891.5,258878.729,258894.974,263878.437,263879.89999998,2023-11-11T06:49:15Z,263895.073,NULL,Verzögerung,kuchelewa,s,mwakilishi,mwanauchumi,jaribio,NA,sdf,0,0,NA,NA,NA,NA,NA,NA,NA,NA,NA,NA,NA,NA,NA,NA,NA,NA,NA,NA,NA
6786d,shallow,flow.Sequence,3_0_0_0_0_1,NA,NA,completion,15483.474,248403.10000002,248358.837,248394.963,263878.437,263879.89999998,2023-11-11T06:49:15Z,263895.073,NULL,Verzögerung,kuchelewa,s,mwakilishi,mwanauchumi,jaribio,NA,sdf,NA,0,NA,NA,NA,NA,NA,NA,NA,NA,NA,NA,NA,NA,NA,NA,NA,NA,NA,NA,NA
6786d,task,flow.Sequence,3_0_0_0_0,NA,NA,completion,15483.474,248403,248358.837,248394.963,263878.437,263880,2023-11-11T06:49:15Z,263895.073,NULL,Verzögerung,kuchelewa,s,mwakilishi,mwanauchumi,jaribio,NA,sdf,NA,0,NA,NA,NA,NA,NA,NA,NA,NA,NA,NA,NA,NA,NA,NA,NA,NA,NA,NA,NA
6786d,deep,flow.Sequence,3_0_0_0_1_0,NA,NA,skipped,NA,263880,NA,NA,263878.437,263880,2023-11-11T06:49:15Z,263895.073,NULL,Annäherung,maegesho,s,madahili,kujiamini,mapendekezo,NA,sdf,NA,0,NA,NA,NA,NA,NA,NA,NA,NA,NA,NA,NA,NA,NA,NA,NA,NA,NA,NA,NA
6786d,Shallow Question,html.Page,3_0_0_0_1_1_0,NA,NA,form submission,9096.8269999762,263880.10000002,263878.437,263895.073,272991.89999998,272992.10000002,2023-11-11T06:49:24Z,272994.915,NULL,Annäherung,maegesho,s,madahili,kujiamini,mapendekezo,madahili,NA,NA,0,NA,NA,NA,NA,NA,NA,NA,NA,NA,NA,NA,NA,NA,NA,NA,NA,NA,NA,NA
6786d,"""Richtig""-Screen",canvas.Screen,3_0_0_0_1_1_1,NA,NA,skipped,NA,272993.70000005,NA,NA,272991.89999998,272993.80000007,2023-11-11T06:49:24Z,272994.915,NULL,Annäherung,maegesho,s,madahili,kujiamini,mapendekezo,NA,sdf,NA,0,NA,NA,NA,NA,NA,NA,NA,NA,NA,NA,NA,NA,NA,NA,NA,NA,NA,NA,NA
6786d,"""Falsch""-Screen",canvas.Screen,3_0_0_0_1_1_2,NA,NA,timeout,5000,272994.30000007,272980.132,272994.915,277978.236,277978.80000007,2023-11-11T06:49:29Z,277994.915,NULL,Annäherung,maegesho,s,madahili,kujiamini,mapendekezo,NA,sdf,0,0,NA,NA,NA,NA,NA,NA,NA,NA,NA,NA,NA,NA,NA,NA,NA,NA,NA,NA,NA
6786d,shallow,flow.Sequence,3_0_0_0_1_1,NA,NA,completion,14083.163,263880.10000002,263878.437,263895.073,277978.236,277978.89999998,2023-11-11T06:49:29Z,277994.915,NULL,Annäherung,maegesho,s,madahili,kujiamini,mapendekezo,NA,sdf,NA,0,NA,NA,NA,NA,NA,NA,NA,NA,NA,NA,NA,NA,NA,NA,NA,NA,NA,NA,NA
6786d,task,flow.Sequence,3_0_0_0_1,NA,NA,completion,14083.163,263880,263878.437,263895.073,277978.236,277979,2023-11-11T06:49:29Z,277994.915,NULL,Annäherung,maegesho,s,madahili,kujiamini,mapendekezo,NA,sdf,NA,0,NA,NA,NA,NA,NA,NA,NA,NA,NA,NA,NA,NA,NA,NA,NA,NA,NA,NA,NA
6786d,deep,flow.Sequence,3_0_0_0_2_0,NA,NA,skipped,NA,277979,NA,NA,277978.236,277979,2023-11-11T06:49:29Z,277994.915,NULL,Sympathie,mapendano,s,dhamiria,fungamano,maazimio,NA,sdf,NA,0,NA,NA,NA,NA,NA,NA,NA,NA,NA,NA,NA,NA,NA,NA,NA,NA,NA,NA,NA
6786d,Shallow Question,html.Page,3_0_0_0_2_1_0,NA,NA,form submission,12644.085,277979.20000005,277978.236,277994.915,290639,290639.30000007,2023-11-11T06:49:41Z,290661.595,NULL,Sympathie,mapendano,s,dhamiria,fungamano,maazimio,dhamiria,NA,NA,0,NA,NA,NA,NA,NA,NA,NA,NA,NA,NA,NA,NA,NA,NA,NA,NA,NA,NA,NA
6786d,"""Richtig""-Screen",canvas.Screen,3_0_0_0_2_1_1,NA,NA,skipped,NA,290641.39999998,NA,NA,290639,290641.60000002,2023-11-11T06:49:41Z,290661.595,NULL,Sympathie,mapendano,s,dhamiria,fungamano,maazimio,NA,sdf,NA,0,NA,NA,NA,NA,NA,NA,NA,NA,NA,NA,NA,NA,NA,NA,NA,NA,NA,NA,NA
6786d,"""Falsch""-Screen",canvas.Screen,3_0_0_0_2_1_2,NA,NA,timeout,5000.003,290642.30000007,290644.923,290661.595,295644.93,295645.80000007,2023-11-11T06:49:46Z,295661.598,NULL,Sympathie,mapendano,s,dhamiria,fungamano,maazimio,NA,sdf,0,0,NA,NA,NA,NA,NA,NA,NA,NA,NA,NA,NA,NA,NA,NA,NA,NA,NA,NA,NA
6786d,shallow,flow.Sequence,3_0_0_0_2_1,NA,NA,completion,17650.015,277979.10000002,277978.236,277994.915,295644.93,295646,2023-11-11T06:49:46Z,295661.598,NULL,Sympathie,mapendano,s,dhamiria,fungamano,maazimio,NA,sdf,NA,0,NA,NA,NA,NA,NA,NA,NA,NA,NA,NA,NA,NA,NA,NA,NA,NA,NA,NA,NA
6786d,task,flow.Sequence,3_0_0_0_2,NA,NA,completion,17650.015,277979,277978.236,277994.915,295644.93,295646,2023-11-11T06:49:46Z,295661.598,NULL,Sympathie,mapendano,s,dhamiria,fungamano,maazimio,NA,sdf,NA,0,NA,NA,NA,NA,NA,NA,NA,NA,NA,NA,NA,NA,NA,NA,NA,NA,NA,NA,NA
6786d,deep,flow.Sequence,3_0_0_0_3_0,NA,NA,skipped,NA,295646.10000002,NA,NA,295644.93,295646.10000002,2023-11-11T06:49:46Z,295661.598,NULL,Kultur,utamaduni,s,shetani,gerezani,mazingira,NA,sdf,NA,0,NA,NA,NA,NA,NA,NA,NA,NA,NA,NA,NA,NA,NA,NA,NA,NA,NA,NA,NA
6786d,Shallow Question,html.Page,3_0_0_0_3_1_0,NA,NA,form submission,13837.902,295646.20000005,295644.93,295661.598,309499.5,309499.70000005,2023-11-11T06:50:00Z,309511.582,NULL,Kultur,utamaduni,s,shetani,gerezani,mazingira,shetani,NA,NA,0,NA,NA,NA,NA,NA,NA,NA,NA,NA,NA,NA,NA,NA,NA,NA,NA,NA,NA,NA
6786d,"""Richtig""-Screen",canvas.Screen,3_0_0_0_3_1_1,NA,NA,skipped,NA,309507.10000002,NA,NA,309499.5,309507.39999998,2023-11-11T06:50:00Z,309511.582,NULL,Kultur,utamaduni,s,shetani,gerezani,mazingira,NA,sdf,NA,0,NA,NA,NA,NA,NA,NA,NA,NA,NA,NA,NA,NA,NA,NA,NA,NA,NA,NA,NA
6786d,"""Falsch""-Screen",canvas.Screen,3_0_0_0_3_1_2,NA,NA,timeout,4999.997,309508.39999998,309494.935,309511.582,314494.897,314495.60000002,2023-11-11T06:50:05Z,314511.579,NULL,Kultur,utamaduni,s,shetani,gerezani,mazingira,NA,sdf,0,0,NA,NA,NA,NA,NA,NA,NA,NA,NA,NA,NA,NA,NA,NA,NA,NA,NA,NA,NA
6786d,shallow,flow.Sequence,3_0_0_0_3_1,NA,NA,completion,18833.299,295646.20000005,295644.93,295661.598,314494.897,314495.70000005,2023-11-11T06:50:05Z,314511.579,NULL,Kultur,utamaduni,s,shetani,gerezani,mazingira,NA,sdf,NA,0,NA,NA,NA,NA,NA,NA,NA,NA,NA,NA,NA,NA,NA,NA,NA,NA,NA,NA,NA
6786d,task,flow.Sequence,3_0_0_0_3,NA,NA,completion,18833.299,295646,295644.93,295661.598,314494.897,314495.89999998,2023-11-11T06:50:05Z,314511.579,NULL,Kultur,utamaduni,s,shetani,gerezani,mazingira,NA,sdf,NA,0,NA,NA,NA,NA,NA,NA,NA,NA,NA,NA,NA,NA,NA,NA,NA,NA,NA,NA,NA
6786d,Deep Question,html.Page,3_0_0_0_4_0_0,NA,NA,form submission,21190.021000024,314496,314494.897,314511.579,335701.60000002,335701.60000002,2023-11-11T06:50:26Z,335711.696,NULL,Polizist,msongora,d,NA,NA,NA,wigudu,NA,NA,0,NA,NA,NA,NA,NA,NA,NA,NA,NA,NA,NA,NA,NA,NA,NA,NA,NA,NA,NA
6786d,"""Richtig""-Screen",canvas.Screen,3_0_0_0_4_0_1,NA,NA,skipped,NA,335702.80000007,NA,NA,335701.60000002,335702.89999998,2023-11-11T06:50:26Z,335711.696,NULL,Polizist,msongora,d,NA,NA,NA,NA,sdf,NA,0,NA,NA,NA,NA,NA,NA,NA,NA,NA,NA,NA,NA,NA,NA,NA,NA,NA,NA,NA
6786d,"""Falsch""-Screen",canvas.Screen,3_0_0_0_4_0_2,NA,NA,timeout,4999.949,335703.20000005,335695.101,335711.696,340694.978,340696.10000002,2023-11-11T06:50:31Z,340711.645,NULL,Polizist,msongora,d,NA,NA,NA,NA,sdf,0,0,NA,NA,NA,NA,NA,NA,NA,NA,NA,NA,NA,NA,NA,NA,NA,NA,NA,NA,NA
6786d,deep,flow.Sequence,3_0_0_0_4_0,NA,NA,completion,26183.399,314495.89999998,314494.897,314511.579,340694.978,340696.20000005,2023-11-11T06:50:31Z,340711.645,NULL,Polizist,msongora,d,NA,NA,NA,NA,sdf,NA,0,NA,NA,NA,NA,NA,NA,NA,NA,NA,NA,NA,NA,NA,NA,NA,NA,NA,NA,NA
6786d,shallow,flow.Sequence,3_0_0_0_4_1,NA,NA,skipped,NA,340696.20000005,NA,NA,340694.978,340696.20000005,2023-11-11T06:50:31Z,340711.645,NULL,Polizist,msongora,d,NA,NA,NA,NA,sdf,NA,0,NA,NA,NA,NA,NA,NA,NA,NA,NA,NA,NA,NA,NA,NA,NA,NA,NA,NA,NA
6786d,task,flow.Sequence,3_0_0_0_4,NA,NA,completion,26183.399,314495.89999998,314494.897,314511.579,340694.978,340696.20000005,2023-11-11T06:50:31Z,340711.645,NULL,Polizist,msongora,d,NA,NA,NA,NA,sdf,NA,0,NA,NA,NA,NA,NA,NA,NA,NA,NA,NA,NA,NA,NA,NA,NA,NA,NA,NA,NA
6786d,Deep Question,html.Page,3_0_0_0_5_0_0,NA,NA,form submission,13169.754999976,340696.30000007,340694.978,340711.645,353881.39999998,353881.70000005,2023-11-11T06:50:45Z,353895.166,NULL,Prüfung,mtihani,d,NA,NA,NA,morisa,NA,NA,0,NA,NA,NA,NA,NA,NA,NA,NA,NA,NA,NA,NA,NA,NA,NA,NA,NA,NA,NA
6786d,"""Richtig""-Screen",canvas.Screen,3_0_0_0_5_0_1,NA,NA,skipped,NA,353882.80000007,NA,NA,353881.39999998,353882.89999998,2023-11-11T06:50:45Z,353895.166,NULL,Prüfung,mtihani,d,NA,NA,NA,NA,sdf,NA,0,NA,NA,NA,NA,NA,NA,NA,NA,NA,NA,NA,NA,NA,NA,NA,NA,NA,NA,NA
6786d,"""Falsch""-Screen",canvas.Screen,3_0_0_0_5_0_2,NA,NA,timeout,4999.834,353883.20000005,353878.515,353895.166,358878.457,358879.60000002,2023-11-11T06:50:50Z,358895,NULL,Prüfung,mtihani,d,NA,NA,NA,NA,sdf,0,0,NA,NA,NA,NA,NA,NA,NA,NA,NA,NA,NA,NA,NA,NA,NA,NA,NA,NA,NA
6786d,deep,flow.Sequence,3_0_0_0_5_0,NA,NA,completion,18166.812,340696.30000007,340694.978,340711.645,358878.457,358879.60000002,2023-11-11T06:50:50Z,358895,NULL,Prüfung,mtihani,d,NA,NA,NA,NA,sdf,NA,0,NA,NA,NA,NA,NA,NA,NA,NA,NA,NA,NA,NA,NA,NA,NA,NA,NA,NA,NA
6786d,shallow,flow.Sequence,3_0_0_0_5_1,NA,NA,skipped,NA,358879.70000005,NA,NA,358878.457,358879.70000005,2023-11-11T06:50:50Z,358895,NULL,Prüfung,mtihani,d,NA,NA,NA,NA,sdf,NA,0,NA,NA,NA,NA,NA,NA,NA,NA,NA,NA,NA,NA,NA,NA,NA,NA,NA,NA,NA
6786d,task,flow.Sequence,3_0_0_0_5,NA,NA,completion,18166.812,340696.20000005,340694.978,340711.645,358878.457,358879.70000005,2023-11-11T06:50:50Z,358895,NULL,Prüfung,mtihani,d,NA,NA,NA,NA,sdf,NA,0,NA,NA,NA,NA,NA,NA,NA,NA,NA,NA,NA,NA,NA,NA,NA,NA,NA,NA,NA
6786d,Deep Question,html.Page,3_0_0_0_6_0_0,NA,NA,form submission,17488.399999976,358879.80000007,358878.457,358895,376383.39999998,376383.60000002,2023-11-11T06:51:07Z,376395.054,NULL,Beweis,ushahidi,d,NA,NA,NA,futona,NA,NA,0,NA,NA,NA,NA,NA,NA,NA,NA,NA,NA,NA,NA,NA,NA,NA,NA,NA,NA,NA
6786d,"""Richtig""-Screen",canvas.Screen,3_0_0_0_6_0_1,NA,NA,skipped,NA,376384.70000005,NA,NA,376383.39999998,376384.70000005,2023-11-11T06:51:07Z,376395.054,NULL,Beweis,ushahidi,d,NA,NA,NA,NA,sdf,NA,0,NA,NA,NA,NA,NA,NA,NA,NA,NA,NA,NA,NA,NA,NA,NA,NA,NA,NA,NA
6786d,"""Falsch""-Screen",canvas.Screen,3_0_0_0_6_0_2,NA,NA,timeout,4999.91,376385.10000002,376378.68,376395.054,381378.226,381379.80000007,2023-11-11T06:51:12Z,381394.964,NULL,Beweis,ushahidi,d,NA,NA,NA,NA,sdf,0,0,NA,NA,NA,NA,NA,NA,NA,NA,NA,NA,NA,NA,NA,NA,NA,NA,NA,NA,NA
6786d,deep,flow.Sequence,3_0_0_0_6_0,NA,NA,completion,22483.226,358879.80000007,358878.457,358895,381378.226,381379.89999998,2023-11-11T06:51:12Z,381394.964,NULL,Beweis,ushahidi,d,NA,NA,NA,NA,sdf,NA,0,NA,NA,NA,NA,NA,NA,NA,NA,NA,NA,NA,NA,NA,NA,NA,NA,NA,NA,NA
6786d,shallow,flow.Sequence,3_0_0_0_6_1,NA,NA,skipped,NA,381380,NA,NA,381378.226,381380,2023-11-11T06:51:12Z,381394.964,NULL,Beweis,ushahidi,d,NA,NA,NA,NA,sdf,NA,0,NA,NA,NA,NA,NA,NA,NA,NA,NA,NA,NA,NA,NA,NA,NA,NA,NA,NA,NA
6786d,task,flow.Sequence,3_0_0_0_6,NA,NA,completion,22483.226,358879.80000007,358878.457,358895,381378.226,381380,2023-11-11T06:51:12Z,381394.964,NULL,Beweis,ushahidi,d,NA,NA,NA,NA,sdf,NA,0,NA,NA,NA,NA,NA,NA,NA,NA,NA,NA,NA,NA,NA,NA,NA,NA,NA,NA,NA
6786d,Deep Question,html.Page,3_0_0_0_7_0_0,NA,NA,form submission,15156.736000048,381380,381378.226,381394.964,396551.70000005,396551.80000007,2023-11-11T06:51:27Z,396561.73,NULL,Aufstand,ugomaji,d,NA,NA,NA,udari,NA,NA,0,NA,NA,NA,NA,NA,NA,NA,NA,NA,NA,NA,NA,NA,NA,NA,NA,NA,NA,NA
6786d,"""Richtig""-Screen",canvas.Screen,3_0_0_0_7_0_1,NA,NA,skipped,NA,396553.10000002,NA,NA,396551.70000005,396553.10000002,2023-11-11T06:51:27Z,396561.73,NULL,Aufstand,ugomaji,d,NA,NA,NA,NA,sdf,NA,0,NA,NA,NA,NA,NA,NA,NA,NA,NA,NA,NA,NA,NA,NA,NA,NA,NA,NA,NA
6786d,"""Falsch""-Screen",canvas.Screen,3_0_0_0_7_0_2,NA,NA,timeout,5000.049,396553.39999998,396545.16,396561.73,401544.973,401546.30000007,2023-11-11T06:51:32Z,401561.779,NULL,Aufstand,ugomaji,d,NA,NA,NA,NA,sdf,0,0,NA,NA,NA,NA,NA,NA,NA,NA,NA,NA,NA,NA,NA,NA,NA,NA,NA,NA,NA
6786d,deep,flow.Sequence,3_0_0_0_7_0,NA,NA,completion,20150.009,381380,381378.226,381394.964,401544.973,401546.30000007,2023-11-11T06:51:32Z,401561.779,NULL,Aufstand,ugomaji,d,NA,NA,NA,NA,sdf,NA,0,NA,NA,NA,NA,NA,NA,NA,NA,NA,NA,NA,NA,NA,NA,NA,NA,NA,NA,NA
6786d,shallow,flow.Sequence,3_0_0_0_7_1,NA,NA,skipped,NA,401546.30000007,NA,NA,401544.973,401546.30000007,2023-11-11T06:51:32Z,401561.779,NULL,Aufstand,ugomaji,d,NA,NA,NA,NA,sdf,NA,0,NA,NA,NA,NA,NA,NA,NA,NA,NA,NA,NA,NA,NA,NA,NA,NA,NA,NA,NA
6786d,task,flow.Sequence,3_0_0_0_7,NA,NA,completion,20150.009,381380,381378.226,381394.964,401544.973,401546.39999998,2023-11-11T06:51:32Z,401561.779,NULL,Aufstand,ugomaji,d,NA,NA,NA,NA,sdf,NA,0,NA,NA,NA,NA,NA,NA,NA,NA,NA,NA,NA,NA,NA,NA,NA,NA,NA,NA,NA
6786d,block,flow.Loop,3_0_0_0,NA,NA,completion,153150.01,248403,248358.837,248394.963,401544.973,401546.5,2023-11-11T06:51:32Z,401561.779,NULL,NA,NA,NA,NA,NA,NA,NA,sdf,NA,0,NA,NA,NA,NA,NA,NA,NA,NA,NA,NA,NA,NA,NA,NA,NA,NA,NA,NA,NA
6786d,weiter,canvas.Screen,3_0_0_1,sdf,keypress(Space),response,1835.5210000715,401546.5,401544.973,401561.779,403397.30000007,403397.80000007,2023-11-11T06:51:34Z,403411.541,NULL,NA,NA,NA,NA,NA,NA,NA,sdf,NA,0,NA,NA,NA,NA,NA,NA,NA,NA,NA,NA,NA,NA,NA,NA,NA,NA,NA,NA,NA
6786d,check continue,flow.Sequence,3_0_0,NA,NA,completion,155002.33700007,248402.89999998,248358.837,248394.963,403397.30000007,403397.89999998,2023-11-11T06:51:34Z,403411.541,NULL,NA,NA,NA,NA,NA,NA,NA,sdf,NA,0,NA,NA,NA,NA,NA,NA,NA,NA,NA,NA,NA,NA,NA,NA,NA,NA,NA,NA,NA
6786d,deep,flow.Sequence,3_0_1_0_0_0,NA,NA,skipped,NA,403414.10000002,NA,NA,403397.30000007,403414.10000002,2023-11-11T06:51:34Z,403411.541,NULL,Kultur,utamaduni,s,shetani,gerezani,mazingira,NA,sdfdsf,NA,1,NA,NA,NA,NA,NA,NA,NA,NA,NA,NA,NA,NA,NA,NA,NA,NA,NA,NA,NA
6786d,Shallow Question,html.Page,3_0_1_0_0_1_0,NA,NA,form submission,10933.159000048,403414.20000005,403386.981,403411.541,414344.70000005,414344.80000007,2023-11-11T06:51:45Z,414344.964,NULL,Kultur,utamaduni,s,shetani,gerezani,mazingira,utamaduni,NA,NA,1,NA,NA,NA,NA,NA,NA,NA,NA,NA,NA,NA,NA,NA,NA,NA,NA,NA,NA,NA
6786d,"""Richtig""-Screen",canvas.Screen,3_0_1_0_0_1_1,NA,NA,timeout,5000.075,414346.10000002,414328.322,414344.964,419328.32,419329.30000007,2023-11-11T06:51:50Z,419345.039,NULL,Kultur,utamaduni,s,shetani,gerezani,mazingira,NA,sdfdsf,1,1,NA,NA,NA,NA,NA,NA,NA,NA,NA,NA,NA,NA,NA,NA,NA,NA,NA,NA,NA
6786d,"""Falsch""-Screen",canvas.Screen,3_0_1_0_0_1_2,NA,NA,skipped,NA,419330.39999998,NA,NA,419328.32,419330.5,2023-11-11T06:51:50Z,419345.039,NULL,Kultur,utamaduni,s,shetani,gerezani,mazingira,NA,sdfdsf,NA,1,NA,NA,NA,NA,NA,NA,NA,NA,NA,NA,NA,NA,NA,NA,NA,NA,NA,NA,NA
6786d,shallow,flow.Sequence,3_0_1_0_0_1,NA,NA,completion,15916.779,403414.10000002,403386.981,403411.541,419328.32,419330.5,2023-11-11T06:51:50Z,419345.039,NULL,Kultur,utamaduni,s,shetani,gerezani,mazingira,NA,sdfdsf,NA,1,NA,NA,NA,NA,NA,NA,NA,NA,NA,NA,NA,NA,NA,NA,NA,NA,NA,NA,NA
6786d,task,flow.Sequence,3_0_1_0_0,NA,NA,completion,15916.779,403414.10000002,403386.981,403411.541,419328.32,419330.5,2023-11-11T06:51:50Z,419345.039,NULL,Kultur,utamaduni,s,shetani,gerezani,mazingira,NA,sdfdsf,NA,1,NA,NA,NA,NA,NA,NA,NA,NA,NA,NA,NA,NA,NA,NA,NA,NA,NA,NA,NA
6786d,Deep Question,html.Page,3_0_1_0_1_0_0,NA,NA,form submission,13913.261000072,419330.60000002,419328.32,419345.039,433258.30000007,433258.39999998,2023-11-11T06:52:04Z,433278.406,NULL,Aufstand,ugomaji,d,NA,NA,NA,rakumi,NA,NA,1,NA,NA,NA,NA,NA,NA,NA,NA,NA,NA,NA,NA,NA,NA,NA,NA,NA,NA,NA
6786d,"""Richtig""-Screen",canvas.Screen,3_0_1_0_1_0_1,NA,NA,skipped,NA,433259.60000002,NA,NA,433258.30000007,433259.60000002,2023-11-11T06:52:04Z,433278.406,NULL,Aufstand,ugomaji,d,NA,NA,NA,NA,sdfdsf,NA,1,NA,NA,NA,NA,NA,NA,NA,NA,NA,NA,NA,NA,NA,NA,NA,NA,NA,NA,NA
6786d,"""Falsch""-Screen",canvas.Screen,3_0_1_0_1_0_2,NA,NA,timeout,4999.952,433260,433261.659,433278.406,438261.747,438263.10000002,2023-11-11T06:52:09Z,438278.358,NULL,Aufstand,ugomaji,d,NA,NA,NA,NA,sdfdsf,0,1,NA,NA,NA,NA,NA,NA,NA,NA,NA,NA,NA,NA,NA,NA,NA,NA,NA,NA,NA
6786d,deep,flow.Sequence,3_0_1_0_1_0,NA,NA,completion,18916.708,419330.60000002,419328.32,419345.039,438261.747,438263.20000005,2023-11-11T06:52:09Z,438278.358,NULL,Aufstand,ugomaji,d,NA,NA,NA,NA,sdfdsf,NA,1,NA,NA,NA,NA,NA,NA,NA,NA,NA,NA,NA,NA,NA,NA,NA,NA,NA,NA,NA
6786d,shallow,flow.Sequence,3_0_1_0_1_1,NA,NA,skipped,NA,438263.20000005,NA,NA,438261.747,438263.20000005,2023-11-11T06:52:09Z,438278.358,NULL,Aufstand,ugomaji,d,NA,NA,NA,NA,sdfdsf,NA,1,NA,NA,NA,NA,NA,NA,NA,NA,NA,NA,NA,NA,NA,NA,NA,NA,NA,NA,NA
6786d,task,flow.Sequence,3_0_1_0_1,NA,NA,completion,18916.708,419330.60000002,419328.32,419345.039,438261.747,438263.30000007,2023-11-11T06:52:09Z,438278.358,NULL,Aufstand,ugomaji,d,NA,NA,NA,NA,sdfdsf,NA,1,NA,NA,NA,NA,NA,NA,NA,NA,NA,NA,NA,NA,NA,NA,NA,NA,NA,NA,NA
6786d,deep,flow.Sequence,3_0_1_0_2_0,NA,NA,skipped,NA,438263.30000007,NA,NA,438261.747,438263.30000007,2023-11-11T06:52:09Z,438278.358,NULL,Verzögerung,kuchelewa,s,mwakilishi,mwanauchumi,jaribio,NA,sdfdsf,NA,1,NA,NA,NA,NA,NA,NA,NA,NA,NA,NA,NA,NA,NA,NA,NA,NA,NA,NA,NA
6786d,Shallow Question,html.Page,3_0_1_0_2_1_0,NA,NA,form submission,9220.7420000238,438263.39999998,438261.747,438278.358,447499.10000002,447499.20000005,2023-11-11T06:52:18Z,447511.73,NULL,Verzögerung,kuchelewa,s,mwakilishi,mwanauchumi,jaribio,jaribio,NA,NA,1,NA,NA,NA,NA,NA,NA,NA,NA,NA,NA,NA,NA,NA,NA,NA,NA,NA,NA,NA
6786d,"""Richtig""-Screen",canvas.Screen,3_0_1_0_2_1_1,NA,NA,skipped,NA,447500.20000005,NA,NA,447499.10000002,447500.30000007,2023-11-11T06:52:18Z,447511.73,NULL,Verzögerung,kuchelewa,s,mwakilishi,mwanauchumi,jaribio,NA,sdfdsf,NA,1,NA,NA,NA,NA,NA,NA,NA,NA,NA,NA,NA,NA,NA,NA,NA,NA,NA,NA,NA
6786d,"""Falsch""-Screen",canvas.Screen,3_0_1_0_2_1_2,NA,NA,timeout,4999.817,447500.39999998,447494.171,447511.73,452494.956,452496,2023-11-11T06:52:23Z,452511.547,NULL,Verzögerung,kuchelewa,s,mwakilishi,mwanauchumi,jaribio,NA,sdfdsf,0,1,NA,NA,NA,NA,NA,NA,NA,NA,NA,NA,NA,NA,NA,NA,NA,NA,NA,NA,NA
6786d,shallow,flow.Sequence,3_0_1_0_2_1,NA,NA,completion,14216.598,438263.30000007,438261.747,438278.358,452494.956,452496.10000002,2023-11-11T06:52:23Z,452511.547,NULL,Verzögerung,kuchelewa,s,mwakilishi,mwanauchumi,jaribio,NA,sdfdsf,NA,1,NA,NA,NA,NA,NA,NA,NA,NA,NA,NA,NA,NA,NA,NA,NA,NA,NA,NA,NA
6786d,task,flow.Sequence,3_0_1_0_2,NA,NA,completion,14216.598,438263.30000007,438261.747,438278.358,452494.956,452496.20000005,2023-11-11T06:52:23Z,452511.547,NULL,Verzögerung,kuchelewa,s,mwakilishi,mwanauchumi,jaribio,NA,sdfdsf,NA,1,NA,NA,NA,NA,NA,NA,NA,NA,NA,NA,NA,NA,NA,NA,NA,NA,NA,NA,NA
6786d,Deep Question,html.Page,3_0_1_0_3_0_0,NA,NA,form submission,12229.153000048,452496.20000005,452494.956,452511.547,464740.70000005,464740.80000007,2023-11-11T06:52:35Z,464744.803,NULL,Beweis,ushahidi,d,NA,NA,NA,etinau,NA,NA,1,NA,NA,NA,NA,NA,NA,NA,NA,NA,NA,NA,NA,NA,NA,NA,NA,NA,NA,NA
6786d,"""Richtig""-Screen",canvas.Screen,3_0_1_0_3_0_1,NA,NA,skipped,NA,464741.89999998,NA,NA,464740.70000005,464742,2023-11-11T06:52:35Z,464744.803,NULL,Beweis,ushahidi,d,NA,NA,NA,NA,sdfdsf,NA,1,NA,NA,NA,NA,NA,NA,NA,NA,NA,NA,NA,NA,NA,NA,NA,NA,NA,NA,NA
6786d,"""Falsch""-Screen",canvas.Screen,3_0_1_0_3_0_2,NA,NA,timeout,5000.215,464742.30000007,464728.8,464744.803,469728.224,469729.30000007,2023-11-11T06:52:40Z,469745.018,NULL,Beweis,ushahidi,d,NA,NA,NA,NA,sdfdsf,0,1,NA,NA,NA,NA,NA,NA,NA,NA,NA,NA,NA,NA,NA,NA,NA,NA,NA,NA,NA
6786d,deep,flow.Sequence,3_0_1_0_3_0,NA,NA,completion,17216.677,452496.20000005,452494.956,452511.547,469728.224,469729.30000007,2023-11-11T06:52:40Z,469745.018,NULL,Beweis,ushahidi,d,NA,NA,NA,NA,sdfdsf,NA,1,NA,NA,NA,NA,NA,NA,NA,NA,NA,NA,NA,NA,NA,NA,NA,NA,NA,NA,NA
6786d,shallow,flow.Sequence,3_0_1_0_3_1,NA,NA,skipped,NA,469729.39999998,NA,NA,469728.224,469729.39999998,2023-11-11T06:52:40Z,469745.018,NULL,Beweis,ushahidi,d,NA,NA,NA,NA,sdfdsf,NA,1,NA,NA,NA,NA,NA,NA,NA,NA,NA,NA,NA,NA,NA,NA,NA,NA,NA,NA,NA
6786d,task,flow.Sequence,3_0_1_0_3,NA,NA,completion,17216.677,452496.20000005,452494.956,452511.547,469728.224,469729.5,2023-11-11T06:52:40Z,469745.018,NULL,Beweis,ushahidi,d,NA,NA,NA,NA,sdfdsf,NA,1,NA,NA,NA,NA,NA,NA,NA,NA,NA,NA,NA,NA,NA,NA,NA,NA,NA,NA,NA
6786d,Deep Question,html.Page,3_0_1_0_4_0_0,NA,NA,form submission,17858.582000024,469729.5,469728.224,469745.018,487603.60000002,487603.80000007,2023-11-11T06:52:58Z,487611.49,NULL,Prüfung,mtihani,d,NA,NA,NA,hanimai,NA,NA,1,NA,NA,NA,NA,NA,NA,NA,NA,NA,NA,NA,NA,NA,NA,NA,NA,NA,NA,NA
6786d,"""Richtig""-Screen",canvas.Screen,3_0_1_0_4_0_1,NA,NA,skipped,NA,487605,NA,NA,487603.60000002,487605.10000002,2023-11-11T06:52:58Z,487611.49,NULL,Prüfung,mtihani,d,NA,NA,NA,NA,sdfdsf,NA,1,NA,NA,NA,NA,NA,NA,NA,NA,NA,NA,NA,NA,NA,NA,NA,NA,NA,NA,NA
6786d,"""Falsch""-Screen",canvas.Screen,3_0_1_0_4_0_2,NA,NA,timeout,5000.195,487605.39999998,487603.155,487611.49,492594.889,492596.80000007,2023-11-11T06:53:03Z,492611.685,NULL,Prüfung,mtihani,d,NA,NA,NA,NA,sdfdsf,0,1,NA,NA,NA,NA,NA,NA,NA,NA,NA,NA,NA,NA,NA,NA,NA,NA,NA,NA,NA
6786d,deep,flow.Sequence,3_0_1_0_4_0,NA,NA,completion,22849.871,469729.5,469728.224,469745.018,492594.889,492596.80000007,2023-11-11T06:53:03Z,492611.685,NULL,Prüfung,mtihani,d,NA,NA,NA,NA,sdfdsf,NA,1,NA,NA,NA,NA,NA,NA,NA,NA,NA,NA,NA,NA,NA,NA,NA,NA,NA,NA,NA
6786d,shallow,flow.Sequence,3_0_1_0_4_1,NA,NA,skipped,NA,492596.89999998,NA,NA,492594.889,492596.89999998,2023-11-11T06:53:03Z,492611.685,NULL,Prüfung,mtihani,d,NA,NA,NA,NA,sdfdsf,NA,1,NA,NA,NA,NA,NA,NA,NA,NA,NA,NA,NA,NA,NA,NA,NA,NA,NA,NA,NA
6786d,task,flow.Sequence,3_0_1_0_4,NA,NA,completion,22849.871,469729.5,469728.224,469745.018,492594.889,492597,2023-11-11T06:53:03Z,492611.685,NULL,Prüfung,mtihani,d,NA,NA,NA,NA,sdfdsf,NA,1,NA,NA,NA,NA,NA,NA,NA,NA,NA,NA,NA,NA,NA,NA,NA,NA,NA,NA,NA
6786d,deep,flow.Sequence,3_0_1_0_5_0,NA,NA,skipped,NA,492597.10000002,NA,NA,492594.889,492597.10000002,2023-11-11T06:53:03Z,492611.685,NULL,Sympathie,mapendano,s,dhamiria,fungamano,maazimio,NA,sdfdsf,NA,1,NA,NA,NA,NA,NA,NA,NA,NA,NA,NA,NA,NA,NA,NA,NA,NA,NA,NA,NA
6786d,Shallow Question,html.Page,3_0_1_0_5_1_0,NA,NA,form submission,6430.0150000477,492597.10000002,492594.889,492611.685,499041.70000005,499041.80000007,2023-11-11T06:53:10Z,499044.792,NULL,Sympathie,mapendano,s,dhamiria,fungamano,maazimio,maazimio,NA,NA,1,NA,NA,NA,NA,NA,NA,NA,NA,NA,NA,NA,NA,NA,NA,NA,NA,NA,NA,NA
6786d,"""Richtig""-Screen",canvas.Screen,3_0_1_0_5_1_1,NA,NA,skipped,NA,499042.89999998,NA,NA,499041.70000005,499043,2023-11-11T06:53:10Z,499044.792,NULL,Sympathie,mapendano,s,dhamiria,fungamano,maazimio,NA,sdfdsf,NA,1,NA,NA,NA,NA,NA,NA,NA,NA,NA,NA,NA,NA,NA,NA,NA,NA,NA,NA,NA
6786d,"""Falsch""-Screen",canvas.Screen,3_0_1_0_5_1_2,NA,NA,timeout,5000.142,499043.30000007,499041.242,499044.792,504028.233,504029.5,2023-11-11T06:53:15Z,504044.934,NULL,Sympathie,mapendano,s,dhamiria,fungamano,maazimio,NA,sdfdsf,0,1,NA,NA,NA,NA,NA,NA,NA,NA,NA,NA,NA,NA,NA,NA,NA,NA,NA,NA,NA
6786d,shallow,flow.Sequence,3_0_1_0_5_1,NA,NA,completion,11416.548,492597.10000002,492594.889,492611.685,504028.233,504029.5,2023-11-11T06:53:15Z,504044.934,NULL,Sympathie,mapendano,s,dhamiria,fungamano,maazimio,NA,sdfdsf,NA,1,NA,NA,NA,NA,NA,NA,NA,NA,NA,NA,NA,NA,NA,NA,NA,NA,NA,NA,NA
6786d,task,flow.Sequence,3_0_1_0_5,NA,NA,completion,11416.548,492597,492594.889,492611.685,504028.233,504029.60000002,2023-11-11T06:53:15Z,504044.934,NULL,Sympathie,mapendano,s,dhamiria,fungamano,maazimio,NA,sdfdsf,NA,1,NA,NA,NA,NA,NA,NA,NA,NA,NA,NA,NA,NA,NA,NA,NA,NA,NA,NA,NA
6786d,deep,flow.Sequence,3_0_1_0_6_0,NA,NA,skipped,NA,504029.60000002,NA,NA,504028.233,504029.60000002,2023-11-11T06:53:15Z,504044.934,NULL,Annäherung,maegesho,s,madahili,kujiamini,mapendekezo,NA,sdfdsf,NA,1,NA,NA,NA,NA,NA,NA,NA,NA,NA,NA,NA,NA,NA,NA,NA,NA,NA,NA,NA
6786d,Shallow Question,html.Page,3_0_1_0_6_1_0,NA,NA,form submission,13576.766000048,504029.70000005,504028.233,504044.934,517621.70000005,517621.89999998,2023-11-11T06:53:28Z,517628.272,NULL,Annäherung,maegesho,s,madahili,kujiamini,mapendekezo,maegesho,NA,NA,1,NA,NA,NA,NA,NA,NA,NA,NA,NA,NA,NA,NA,NA,NA,NA,NA,NA,NA,NA
6786d,"""Richtig""-Screen",canvas.Screen,3_0_1_0_6_1_1,NA,NA,timeout,5000.054,517622.89999998,517611.757,517628.272,522611.558,522613,2023-11-11T06:53:33Z,522628.326,NULL,Annäherung,maegesho,s,madahili,kujiamini,mapendekezo,NA,sdfdsf,1,1,NA,NA,NA,NA,NA,NA,NA,NA,NA,NA,NA,NA,NA,NA,NA,NA,NA,NA,NA
6786d,"""Falsch""-Screen",canvas.Screen,3_0_1_0_6_1_2,NA,NA,skipped,NA,522614,NA,NA,522611.558,522614.10000002,2023-11-11T06:53:33Z,522628.326,NULL,Annäherung,maegesho,s,madahili,kujiamini,mapendekezo,NA,sdfdsf,NA,1,NA,NA,NA,NA,NA,NA,NA,NA,NA,NA,NA,NA,NA,NA,NA,NA,NA,NA,NA
6786d,shallow,flow.Sequence,3_0_1_0_6_1,NA,NA,completion,18566.624,504029.70000005,504028.233,504044.934,522611.558,522614.10000002,2023-11-11T06:53:33Z,522628.326,NULL,Annäherung,maegesho,s,madahili,kujiamini,mapendekezo,NA,sdfdsf,NA,1,NA,NA,NA,NA,NA,NA,NA,NA,NA,NA,NA,NA,NA,NA,NA,NA,NA,NA,NA
6786d,task,flow.Sequence,3_0_1_0_6,NA,NA,completion,18566.624,504029.60000002,504028.233,504044.934,522611.558,522614.20000005,2023-11-11T06:53:33Z,522628.326,NULL,Annäherung,maegesho,s,madahili,kujiamini,mapendekezo,NA,sdfdsf,NA,1,NA,NA,NA,NA,NA,NA,NA,NA,NA,NA,NA,NA,NA,NA,NA,NA,NA,NA,NA
6786d,Deep Question,html.Page,3_0_1_0_7_0_0,NA,NA,form submission,12804.774000024,522614.20000005,522611.558,522628.326,535433.10000002,535433.20000005,2023-11-11T06:53:46Z,535445.073,NULL,Polizist,msongora,d,NA,NA,NA,forimau,NA,NA,1,NA,NA,NA,NA,NA,NA,NA,NA,NA,NA,NA,NA,NA,NA,NA,NA,NA,NA,NA
6786d,"""Richtig""-Screen",canvas.Screen,3_0_1_0_7_0_1,NA,NA,skipped,NA,535434.30000007,NA,NA,535433.10000002,535434.39999998,2023-11-11T06:53:46Z,535445.073,NULL,Polizist,msongora,d,NA,NA,NA,NA,sdfdsf,NA,1,NA,NA,NA,NA,NA,NA,NA,NA,NA,NA,NA,NA,NA,NA,NA,NA,NA,NA,NA
6786d,"""Falsch""-Screen",canvas.Screen,3_0_1_0_7_0_2,NA,NA,timeout,4999.853,535434.60000002,535428.449,535445.073,540428.377,540429.80000007,2023-11-11T06:53:51Z,540444.926,NULL,Polizist,msongora,d,NA,NA,NA,NA,sdfdsf,0,1,NA,NA,NA,NA,NA,NA,NA,NA,NA,NA,NA,NA,NA,NA,NA,NA,NA,NA,NA
6786d,deep,flow.Sequence,3_0_1_0_7_0,NA,NA,completion,17800.051,522614.20000005,522611.558,522628.326,540428.377,540429.89999998,2023-11-11T06:53:51Z,540444.926,NULL,Polizist,msongora,d,NA,NA,NA,NA,sdfdsf,NA,1,NA,NA,NA,NA,NA,NA,NA,NA,NA,NA,NA,NA,NA,NA,NA,NA,NA,NA,NA
6786d,shallow,flow.Sequence,3_0_1_0_7_1,NA,NA,skipped,NA,540429.89999998,NA,NA,540428.377,540429.89999998,2023-11-11T06:53:51Z,540444.926,NULL,Polizist,msongora,d,NA,NA,NA,NA,sdfdsf,NA,1,NA,NA,NA,NA,NA,NA,NA,NA,NA,NA,NA,NA,NA,NA,NA,NA,NA,NA,NA
6786d,task,flow.Sequence,3_0_1_0_7,NA,NA,completion,17800.051,522614.20000005,522611.558,522628.326,540428.377,540430,2023-11-11T06:53:51Z,540444.926,NULL,Polizist,msongora,d,NA,NA,NA,NA,sdfdsf,NA,1,NA,NA,NA,NA,NA,NA,NA,NA,NA,NA,NA,NA,NA,NA,NA,NA,NA,NA,NA
6786d,block,flow.Loop,3_0_1_0,NA,NA,completion,137016.836,403414.10000002,403386.981,403411.541,540428.377,540430,2023-11-11T06:53:51Z,540444.926,NULL,NA,NA,NA,NA,NA,NA,NA,sdfdsf,NA,1,NA,NA,NA,NA,NA,NA,NA,NA,NA,NA,NA,NA,NA,NA,NA,NA,NA,NA,NA
6786d,weiter,canvas.Screen,3_0_1_1,sdf,keypress(Space),response,1432.074,540430,540428.377,540444.926,541877,541877.5,2023-11-11T06:53:53Z,541895.519,NULL,NA,NA,NA,NA,NA,NA,NA,sdfdsf,NA,1,NA,NA,NA,NA,NA,NA,NA,NA,NA,NA,NA,NA,NA,NA,NA,NA,NA,NA,NA
6786d,check continue,flow.Sequence,3_0_1,NA,NA,completion,138465.459,403414.10000002,403386.981,403411.541,541877,541877.60000002,2023-11-11T06:53:53Z,541895.519,NULL,NA,NA,NA,NA,NA,NA,NA,sdfdsf,NA,1,NA,NA,NA,NA,NA,NA,NA,NA,NA,NA,NA,NA,NA,NA,NA,NA,NA,NA,NA
6786d,deep,flow.Sequence,3_0_2_0_0_0,NA,NA,skipped,NA,541893.20000005,NA,NA,541877,541893.39999998,2023-11-11T06:53:53Z,541895.519,NULL,Annäherung,maegesho,s,madahili,kujiamini,mapendekezo,NA,sdf,NA,2,NA,NA,NA,NA,NA,NA,NA,NA,NA,NA,NA,NA,NA,NA,NA,NA,NA,NA,NA
6786d,Shallow Question,html.Page,3_0_2_0_0_1_0,NA,NA,form submission,13835.481,541893.39999998,541863.665,541895.519,555731,555731.10000002,2023-11-11T06:54:06Z,555744.919,NULL,Annäherung,maegesho,s,madahili,kujiamini,mapendekezo,maegesho,NA,NA,2,NA,NA,NA,NA,NA,NA,NA,NA,NA,NA,NA,NA,NA,NA,NA,NA,NA,NA,NA
6786d,"""Richtig""-Screen",canvas.Screen,3_0_2_0_0_1_1,NA,NA,timeout,4999.8810000001,555732.10000002,555728.227,555744.919,560728.206,560729,2023-11-11T06:54:11Z,560744.8,NULL,Annäherung,maegesho,s,madahili,kujiamini,mapendekezo,NA,sdf,1,2,NA,NA,NA,NA,NA,NA,NA,NA,NA,NA,NA,NA,NA,NA,NA,NA,NA,NA,NA
6786d,"""Falsch""-Screen",canvas.Screen,3_0_2_0_0_1_2,NA,NA,skipped,NA,560730.20000005,NA,NA,560728.206,560730.20000005,2023-11-11T06:54:11Z,560744.8,NULL,Annäherung,maegesho,s,madahili,kujiamini,mapendekezo,NA,sdf,NA,2,NA,NA,NA,NA,NA,NA,NA,NA,NA,NA,NA,NA,NA,NA,NA,NA,NA,NA,NA
6786d,shallow,flow.Sequence,3_0_2_0_0_1,NA,NA,completion,18832.687,541893.39999998,541863.665,541895.519,560728.206,560730.30000007,2023-11-11T06:54:11Z,560744.8,NULL,Annäherung,maegesho,s,madahili,kujiamini,mapendekezo,NA,sdf,NA,2,NA,NA,NA,NA,NA,NA,NA,NA,NA,NA,NA,NA,NA,NA,NA,NA,NA,NA,NA
6786d,task,flow.Sequence,3_0_2_0_0,NA,NA,completion,18832.687,541893.20000005,541863.665,541895.519,560728.206,560730.30000007,2023-11-11T06:54:11Z,560744.8,NULL,Annäherung,maegesho,s,madahili,kujiamini,mapendekezo,NA,sdf,NA,2,NA,NA,NA,NA,NA,NA,NA,NA,NA,NA,NA,NA,NA,NA,NA,NA,NA,NA,NA
6786d,deep,flow.Sequence,3_0_2_0_1_0,NA,NA,skipped,NA,560730.30000007,NA,NA,560728.206,560730.39999998,2023-11-11T06:54:11Z,560744.8,NULL,Verzögerung,kuchelewa,s,mwakilishi,mwanauchumi,jaribio,NA,sdf,NA,2,NA,NA,NA,NA,NA,NA,NA,NA,NA,NA,NA,NA,NA,NA,NA,NA,NA,NA,NA
6786d,Shallow Question,html.Page,3_0_2_0_1_1_0,NA,NA,form submission,5637.3000000238,560730.5,560728.206,560744.8,566382.10000002,566382.10000002,2023-11-11T06:54:17Z,566394.963,NULL,Verzögerung,kuchelewa,s,mwakilishi,mwanauchumi,jaribio,kuchelewa,NA,NA,2,NA,NA,NA,NA,NA,NA,NA,NA,NA,NA,NA,NA,NA,NA,NA,NA,NA,NA,NA
6786d,"""Richtig""-Screen",canvas.Screen,3_0_2_0_1_1_1,NA,NA,timeout,5000.009,566383.10000002,566378.367,566394.963,571378.209,571379.39999998,2023-11-11T06:54:22Z,571394.972,NULL,Verzögerung,kuchelewa,s,mwakilishi,mwanauchumi,jaribio,NA,sdf,1,2,NA,NA,NA,NA,NA,NA,NA,NA,NA,NA,NA,NA,NA,NA,NA,NA,NA,NA,NA
6786d,"""Falsch""-Screen",canvas.Screen,3_0_2_0_1_1_2,NA,NA,skipped,NA,571380.39999998,NA,NA,571378.209,571380.39999998,2023-11-11T06:54:22Z,571394.972,NULL,Verzögerung,kuchelewa,s,mwakilishi,mwanauchumi,jaribio,NA,sdf,NA,2,NA,NA,NA,NA,NA,NA,NA,NA,NA,NA,NA,NA,NA,NA,NA,NA,NA,NA,NA
6786d,shallow,flow.Sequence,3_0_2_0_1_1,NA,NA,completion,10633.409,560730.39999998,560728.206,560744.8,571378.209,571380.39999998,2023-11-11T06:54:22Z,571394.972,NULL,Verzögerung,kuchelewa,s,mwakilishi,mwanauchumi,jaribio,NA,sdf,NA,2,NA,NA,NA,NA,NA,NA,NA,NA,NA,NA,NA,NA,NA,NA,NA,NA,NA,NA,NA
6786d,task,flow.Sequence,3_0_2_0_1,NA,NA,completion,10633.409,560730.30000007,560728.206,560744.8,571378.209,571380.5,2023-11-11T06:54:22Z,571394.972,NULL,Verzögerung,kuchelewa,s,mwakilishi,mwanauchumi,jaribio,NA,sdf,NA,2,NA,NA,NA,NA,NA,NA,NA,NA,NA,NA,NA,NA,NA,NA,NA,NA,NA,NA,NA
6786d,Deep Question,html.Page,3_0_2_0_2_0_0,NA,NA,form submission,12548.427999976,571380.60000002,571378.209,571394.972,583943.39999998,583943.39999998,2023-11-11T06:54:35Z,583963.03,NULL,Beweis,ushahidi,d,NA,NA,NA,furimai,NA,NA,2,NA,NA,NA,NA,NA,NA,NA,NA,NA,NA,NA,NA,NA,NA,NA,NA,NA,NA,NA
6786d,"""Richtig""-Screen",canvas.Screen,3_0_2_0_2_0_1,NA,NA,skipped,NA,583945.10000002,NA,NA,583943.39999998,583945.20000005,2023-11-11T06:54:35Z,583963.03,NULL,Beweis,ushahidi,d,NA,NA,NA,NA,sdf,NA,2,NA,NA,NA,NA,NA,NA,NA,NA,NA,NA,NA,NA,NA,NA,NA,NA,NA,NA,NA
6786d,"""Falsch""-Screen",canvas.Screen,3_0_2_0_2_0_2,NA,NA,timeout,4998.554,583945.5,583928.3,583963.03,588944.768,588945.89999998,2023-11-11T06:54:40Z,588961.584,NULL,Beweis,ushahidi,d,NA,NA,NA,NA,sdf,0,2,NA,NA,NA,NA,NA,NA,NA,NA,NA,NA,NA,NA,NA,NA,NA,NA,NA,NA,NA
6786d,deep,flow.Sequence,3_0_2_0_2_0,NA,NA,completion,17549.796,571380.60000002,571378.209,571394.972,588944.768,588946,2023-11-11T06:54:40Z,588961.584,NULL,Beweis,ushahidi,d,NA,NA,NA,NA,sdf,NA,2,NA,NA,NA,NA,NA,NA,NA,NA,NA,NA,NA,NA,NA,NA,NA,NA,NA,NA,NA
6786d,shallow,flow.Sequence,3_0_2_0_2_1,NA,NA,skipped,NA,588946.10000002,NA,NA,588944.768,588946.10000002,2023-11-11T06:54:40Z,588961.584,NULL,Beweis,ushahidi,d,NA,NA,NA,NA,sdf,NA,2,NA,NA,NA,NA,NA,NA,NA,NA,NA,NA,NA,NA,NA,NA,NA,NA,NA,NA,NA
6786d,task,flow.Sequence,3_0_2_0_2,NA,NA,completion,17549.796,571380.5,571378.209,571394.972,588944.768,588946.20000005,2023-11-11T06:54:40Z,588961.584,NULL,Beweis,ushahidi,d,NA,NA,NA,NA,sdf,NA,2,NA,NA,NA,NA,NA,NA,NA,NA,NA,NA,NA,NA,NA,NA,NA,NA,NA,NA,NA
6786d,Deep Question,html.Page,3_0_2_0_3_0_0,NA,NA,form submission,9978.916,588946.20000005,588944.768,588961.584,598940.5,598940.60000002,2023-11-11T06:54:50Z,598944.75,NULL,Aufstand,ugomaji,d,NA,NA,NA,umirau,NA,NA,2,NA,NA,NA,NA,NA,NA,NA,NA,NA,NA,NA,NA,NA,NA,NA,NA,NA,NA,NA
6786d,"""Richtig""-Screen",canvas.Screen,3_0_2_0_3_0_1,NA,NA,skipped,NA,598941.70000005,NA,NA,598940.5,598941.80000007,2023-11-11T06:54:50Z,598944.75,NULL,Aufstand,ugomaji,d,NA,NA,NA,NA,sdf,NA,2,NA,NA,NA,NA,NA,NA,NA,NA,NA,NA,NA,NA,NA,NA,NA,NA,NA,NA,NA
6786d,"""Falsch""-Screen",canvas.Screen,3_0_2_0_3_0_2,NA,NA,timeout,5000.144,598942.10000002,598928.281,598944.75,603928.169,603929.30000007,2023-11-11T06:54:55Z,603944.894,NULL,Aufstand,ugomaji,d,NA,NA,NA,NA,sdf,0,2,NA,NA,NA,NA,NA,NA,NA,NA,NA,NA,NA,NA,NA,NA,NA,NA,NA,NA,NA
6786d,deep,flow.Sequence,3_0_2_0_3_0,NA,NA,completion,14966.585,588946.20000005,588944.768,588961.584,603928.169,603929.39999998,2023-11-11T06:54:55Z,603944.894,NULL,Aufstand,ugomaji,d,NA,NA,NA,NA,sdf,NA,2,NA,NA,NA,NA,NA,NA,NA,NA,NA,NA,NA,NA,NA,NA,NA,NA,NA,NA,NA
6786d,shallow,flow.Sequence,3_0_2_0_3_1,NA,NA,skipped,NA,603929.39999998,NA,NA,603928.169,603929.39999998,2023-11-11T06:54:55Z,603944.894,NULL,Aufstand,ugomaji,d,NA,NA,NA,NA,sdf,NA,2,NA,NA,NA,NA,NA,NA,NA,NA,NA,NA,NA,NA,NA,NA,NA,NA,NA,NA,NA
6786d,task,flow.Sequence,3_0_2_0_3,NA,NA,completion,14966.585,588946.20000005,588944.768,588961.584,603928.169,603929.5,2023-11-11T06:54:55Z,603944.894,NULL,Aufstand,ugomaji,d,NA,NA,NA,NA,sdf,NA,2,NA,NA,NA,NA,NA,NA,NA,NA,NA,NA,NA,NA,NA,NA,NA,NA,NA,NA,NA
6786d,Deep Question,html.Page,3_0_2_0_4_0_0,NA,NA,form submission,11530.306000048,603929.5,603928.169,603944.894,615475.20000005,615475.39999998,2023-11-11T06:55:06Z,615478.064,NULL,Prüfung,mtihani,d,NA,NA,NA,aliao,NA,NA,2,NA,NA,NA,NA,NA,NA,NA,NA,NA,NA,NA,NA,NA,NA,NA,NA,NA,NA,NA
6786d,"""Richtig""-Screen",canvas.Screen,3_0_2_0_4_0_1,NA,NA,skipped,NA,615476.5,NA,NA,615475.20000005,615476.60000002,2023-11-11T06:55:06Z,615478.064,NULL,Prüfung,mtihani,d,NA,NA,NA,NA,sdf,NA,2,NA,NA,NA,NA,NA,NA,NA,NA,NA,NA,NA,NA,NA,NA,NA,NA,NA,NA,NA
6786d,"""Falsch""-Screen",canvas.Screen,3_0_2_0_4_0_2,NA,NA,timeout,5000.156,615477,615461.599,615478.064,620461.52,620463.10000002,2023-11-11T06:55:11Z,620478.22,NULL,Prüfung,mtihani,d,NA,NA,NA,NA,sdf,0,2,NA,NA,NA,NA,NA,NA,NA,NA,NA,NA,NA,NA,NA,NA,NA,NA,NA,NA,NA
6786d,deep,flow.Sequence,3_0_2_0_4_0,NA,NA,completion,16516.626,603929.5,603928.169,603944.894,620461.52,620463.20000005,2023-11-11T06:55:11Z,620478.22,NULL,Prüfung,mtihani,d,NA,NA,NA,NA,sdf,NA,2,NA,NA,NA,NA,NA,NA,NA,NA,NA,NA,NA,NA,NA,NA,NA,NA,NA,NA,NA
6786d,shallow,flow.Sequence,3_0_2_0_4_1,NA,NA,skipped,NA,620463.20000005,NA,NA,620461.52,620463.20000005,2023-11-11T06:55:11Z,620478.22,NULL,Prüfung,mtihani,d,NA,NA,NA,NA,sdf,NA,2,NA,NA,NA,NA,NA,NA,NA,NA,NA,NA,NA,NA,NA,NA,NA,NA,NA,NA,NA
6786d,task,flow.Sequence,3_0_2_0_4,NA,NA,completion,16516.626,603929.5,603928.169,603944.894,620461.52,620463.20000005,2023-11-11T06:55:11Z,620478.22,NULL,Prüfung,mtihani,d,NA,NA,NA,NA,sdf,NA,2,NA,NA,NA,NA,NA,NA,NA,NA,NA,NA,NA,NA,NA,NA,NA,NA,NA,NA,NA
6786d,deep,flow.Sequence,3_0_2_0_5_0,NA,NA,skipped,NA,620463.30000007,NA,NA,620461.52,620463.30000007,2023-11-11T06:55:11Z,620478.22,NULL,Kultur,utamaduni,s,shetani,gerezani,mazingira,NA,sdf,NA,2,NA,NA,NA,NA,NA,NA,NA,NA,NA,NA,NA,NA,NA,NA,NA,NA,NA,NA,NA
6786d,Shallow Question,html.Page,3_0_2_0_5_1_0,NA,NA,form submission,9796.5800000716,620463.30000007,620461.52,620478.22,630274.80000007,630274.89999998,2023-11-11T06:55:21Z,630278.154,NULL,Kultur,utamaduni,s,shetani,gerezani,mazingira,utamaduni,NA,NA,2,NA,NA,NA,NA,NA,NA,NA,NA,NA,NA,NA,NA,NA,NA,NA,NA,NA,NA,NA
6786d,"""Richtig""-Screen",canvas.Screen,3_0_2_0_5_1_1,NA,NA,timeout,5000.764,630275.89999998,630261.68,630278.154,635261.465,635263,2023-11-11T06:55:26Z,635278.918,NULL,Kultur,utamaduni,s,shetani,gerezani,mazingira,NA,sdf,1,2,NA,NA,NA,NA,NA,NA,NA,NA,NA,NA,NA,NA,NA,NA,NA,NA,NA,NA,NA
6786d,"""Falsch""-Screen",canvas.Screen,3_0_2_0_5_1_2,NA,NA,skipped,NA,635264,NA,NA,635261.465,635264,2023-11-11T06:55:26Z,635278.918,NULL,Kultur,utamaduni,s,shetani,gerezani,mazingira,NA,sdf,NA,2,NA,NA,NA,NA,NA,NA,NA,NA,NA,NA,NA,NA,NA,NA,NA,NA,NA,NA,NA
6786d,shallow,flow.Sequence,3_0_2_0_5_1,NA,NA,completion,14783.245,620463.30000007,620461.52,620478.22,635261.465,635264.10000002,2023-11-11T06:55:26Z,635278.918,NULL,Kultur,utamaduni,s,shetani,gerezani,mazingira,NA,sdf,NA,2,NA,NA,NA,NA,NA,NA,NA,NA,NA,NA,NA,NA,NA,NA,NA,NA,NA,NA,NA
6786d,task,flow.Sequence,3_0_2_0_5,NA,NA,completion,14783.245,620463.30000007,620461.52,620478.22,635261.465,635264.10000002,2023-11-11T06:55:26Z,635278.918,NULL,Kultur,utamaduni,s,shetani,gerezani,mazingira,NA,sdf,NA,2,NA,NA,NA,NA,NA,NA,NA,NA,NA,NA,NA,NA,NA,NA,NA,NA,NA,NA,NA
6786d,Deep Question,html.Page,3_0_2_0_6_0_0,NA,NA,form submission,8752.5820000001,635264.20000005,635261.465,635278.918,644031.5,644031.60000002,2023-11-11T06:55:35Z,644044.896,NULL,Polizist,msongora,d,NA,NA,NA,ulugai,NA,NA,2,NA,NA,NA,NA,NA,NA,NA,NA,NA,NA,NA,NA,NA,NA,NA,NA,NA,NA,NA
6786d,"""Richtig""-Screen",canvas.Screen,3_0_2_0_6_0_1,NA,NA,skipped,NA,644032.80000007,NA,NA,644031.5,644032.89999998,2023-11-11T06:55:35Z,644044.896,NULL,Polizist,msongora,d,NA,NA,NA,NA,sdf,NA,2,NA,NA,NA,NA,NA,NA,NA,NA,NA,NA,NA,NA,NA,NA,NA,NA,NA,NA,NA
6786d,"""Falsch""-Screen",canvas.Screen,3_0_2_0_6_0_2,NA,NA,timeout,5000.1070000001,644033.5,644028.389,644044.896,649028.379,649029.89999998,2023-11-11T06:55:40Z,649045.003,NULL,Polizist,msongora,d,NA,NA,NA,NA,sdf,0,2,NA,NA,NA,NA,NA,NA,NA,NA,NA,NA,NA,NA,NA,NA,NA,NA,NA,NA,NA
6786d,deep,flow.Sequence,3_0_2_0_6_0,NA,NA,completion,13749.461,635264.10000002,635261.465,635278.918,649028.379,649030,2023-11-11T06:55:40Z,649045.003,NULL,Polizist,msongora,d,NA,NA,NA,NA,sdf,NA,2,NA,NA,NA,NA,NA,NA,NA,NA,NA,NA,NA,NA,NA,NA,NA,NA,NA,NA,NA
6786d,shallow,flow.Sequence,3_0_2_0_6_1,NA,NA,skipped,NA,649030.10000002,NA,NA,649028.379,649030.10000002,2023-11-11T06:55:40Z,649045.003,NULL,Polizist,msongora,d,NA,NA,NA,NA,sdf,NA,2,NA,NA,NA,NA,NA,NA,NA,NA,NA,NA,NA,NA,NA,NA,NA,NA,NA,NA,NA
6786d,task,flow.Sequence,3_0_2_0_6,NA,NA,completion,13749.461,635264.10000002,635261.465,635278.918,649028.379,649030.10000002,2023-11-11T06:55:40Z,649045.003,NULL,Polizist,msongora,d,NA,NA,NA,NA,sdf,NA,2,NA,NA,NA,NA,NA,NA,NA,NA,NA,NA,NA,NA,NA,NA,NA,NA,NA,NA,NA
6786d,deep,flow.Sequence,3_0_2_0_7_0,NA,NA,skipped,NA,649030.10000002,NA,NA,649028.379,649030.10000002,2023-11-11T06:55:40Z,649045.003,NULL,Sympathie,mapendano,s,dhamiria,fungamano,maazimio,NA,sdf,NA,2,NA,NA,NA,NA,NA,NA,NA,NA,NA,NA,NA,NA,NA,NA,NA,NA,NA,NA,NA
6786d,Shallow Question,html.Page,3_0_2_0_7_1_0,NA,NA,form submission,6456.2970000715,649030.20000005,649028.379,649045.003,655501.30000007,655501.5,2023-11-11T06:55:46Z,655511.465,NULL,Sympathie,mapendano,s,dhamiria,fungamano,maazimio,maazimio,NA,NA,2,NA,NA,NA,NA,NA,NA,NA,NA,NA,NA,NA,NA,NA,NA,NA,NA,NA,NA,NA
6786d,"""Richtig""-Screen",canvas.Screen,3_0_2_0_7_1_1,NA,NA,skipped,NA,655502.39999998,NA,NA,655501.30000007,655502.5,2023-11-11T06:55:46Z,655511.465,NULL,Sympathie,mapendano,s,dhamiria,fungamano,maazimio,NA,sdf,NA,2,NA,NA,NA,NA,NA,NA,NA,NA,NA,NA,NA,NA,NA,NA,NA,NA,NA,NA,NA
6786d,"""Falsch""-Screen",canvas.Screen,3_0_2_0_7_1_2,NA,NA,timeout,5000.1950000001,655502.70000005,655498.549,655511.465,660494.784,660496.20000005,2023-11-11T06:55:51Z,660511.66,NULL,Sympathie,mapendano,s,dhamiria,fungamano,maazimio,NA,sdf,0,2,NA,NA,NA,NA,NA,NA,NA,NA,NA,NA,NA,NA,NA,NA,NA,NA,NA,NA,NA
6786d,shallow,flow.Sequence,3_0_2_0_7_1,NA,NA,completion,11449.781,649030.20000005,649028.379,649045.003,660494.784,660496.30000007,2023-11-11T06:55:51Z,660511.66,NULL,Sympathie,mapendano,s,dhamiria,fungamano,maazimio,NA,sdf,NA,2,NA,NA,NA,NA,NA,NA,NA,NA,NA,NA,NA,NA,NA,NA,NA,NA,NA,NA,NA
6786d,task,flow.Sequence,3_0_2_0_7,NA,NA,completion,11449.781,649030.10000002,649028.379,649045.003,660494.784,660496.30000007,2023-11-11T06:55:51Z,660511.66,NULL,Sympathie,mapendano,s,dhamiria,fungamano,maazimio,NA,sdf,NA,2,NA,NA,NA,NA,NA,NA,NA,NA,NA,NA,NA,NA,NA,NA,NA,NA,NA,NA,NA
6786d,block,flow.Loop,3_0_2_0,NA,NA,completion,118599.265,541893.20000005,541863.665,541895.519,660494.784,660496.39999998,2023-11-11T06:55:51Z,660511.66,NULL,NA,NA,NA,NA,NA,NA,NA,sdf,NA,2,NA,NA,NA,NA,NA,NA,NA,NA,NA,NA,NA,NA,NA,NA,NA,NA,NA,NA,NA
6786d,weiter,canvas.Screen,3_0_2_1,sdf,keypress(Space),response,1606.4400000238,660496.39999998,660494.784,660511.66,662118.10000002,662118.5,2023-11-11T06:55:53Z,662144.9,NULL,NA,NA,NA,NA,NA,NA,NA,sdf,NA,2,NA,NA,NA,NA,NA,NA,NA,NA,NA,NA,NA,NA,NA,NA,NA,NA,NA,NA,NA
6786d,check continue,flow.Sequence,3_0_2,NA,NA,completion,120222.58100002,541893.20000005,541863.665,541895.519,662118.10000002,662118.60000002,2023-11-11T06:55:53Z,662144.9,NULL,NA,NA,NA,NA,NA,NA,NA,sdf,NA,2,NA,NA,NA,NA,NA,NA,NA,NA,NA,NA,NA,NA,NA,NA,NA,NA,NA,NA,NA
6786d,Deep Question,html.Page,3_0_3_0_0_0_0,NA,NA,form submission,18855.900000072,662134.5,662131.041,662144.9,681000.80000007,681001,2023-11-11T06:56:12Z,681011.567,NULL,Beweis,ushahidi,d,NA,NA,NA,uhugiai,NA,NA,3,NA,NA,NA,NA,NA,NA,NA,NA,NA,NA,NA,NA,NA,NA,NA,NA,NA,NA,NA
6786d,"""Richtig""-Screen",canvas.Screen,3_0_3_0_0_0_1,NA,NA,skipped,NA,681002.20000005,NA,NA,681000.80000007,681002.39999998,2023-11-11T06:56:12Z,681011.567,NULL,Beweis,ushahidi,d,NA,NA,NA,NA,qt,NA,3,NA,NA,NA,NA,NA,NA,NA,NA,NA,NA,NA,NA,NA,NA,NA,NA,NA,NA,NA
6786d,"""Falsch""-Screen",canvas.Screen,3_0_3_0_0_0_2,NA,NA,timeout,4999.754,681002.70000005,680994.85,681011.567,685994.873,685996.20000005,2023-11-11T06:56:17Z,686011.321,NULL,Beweis,ushahidi,d,NA,NA,NA,NA,qt,0,3,NA,NA,NA,NA,NA,NA,NA,NA,NA,NA,NA,NA,NA,NA,NA,NA,NA,NA,NA
6786d,deep,flow.Sequence,3_0_3_0_0_0,NA,NA,completion,23849.973,662134.5,662131.041,662144.9,685994.873,685996.30000007,2023-11-11T06:56:17Z,686011.321,NULL,Beweis,ushahidi,d,NA,NA,NA,NA,qt,NA,3,NA,NA,NA,NA,NA,NA,NA,NA,NA,NA,NA,NA,NA,NA,NA,NA,NA,NA,NA
6786d,shallow,flow.Sequence,3_0_3_0_0_1,NA,NA,skipped,NA,685996.30000007,NA,NA,685994.873,685996.30000007,2023-11-11T06:56:17Z,686011.321,NULL,Beweis,ushahidi,d,NA,NA,NA,NA,qt,NA,3,NA,NA,NA,NA,NA,NA,NA,NA,NA,NA,NA,NA,NA,NA,NA,NA,NA,NA,NA
6786d,task,flow.Sequence,3_0_3_0_0,NA,NA,completion,23849.973,662134.5,662131.041,662144.9,685994.873,685996.39999998,2023-11-11T06:56:17Z,686011.321,NULL,Beweis,ushahidi,d,NA,NA,NA,NA,qt,NA,3,NA,NA,NA,NA,NA,NA,NA,NA,NA,NA,NA,NA,NA,NA,NA,NA,NA,NA,NA
6786d,deep,flow.Sequence,3_0_3_0_1_0,NA,NA,skipped,NA,685996.5,NA,NA,685994.873,685996.5,2023-11-11T06:56:17Z,686011.321,NULL,Sympathie,mapendano,s,dhamiria,fungamano,maazimio,NA,qt,NA,3,NA,NA,NA,NA,NA,NA,NA,NA,NA,NA,NA,NA,NA,NA,NA,NA,NA,NA,NA
6786d,Shallow Question,html.Page,3_0_3_0_1_1_0,NA,NA,form submission,5751.7790000238,685996.5,685994.873,686011.321,691763.10000002,691763.10000002,2023-11-11T06:56:22Z,691778.308,NULL,Sympathie,mapendano,s,dhamiria,fungamano,maazimio,mapendano,NA,NA,3,NA,NA,NA,NA,NA,NA,NA,NA,NA,NA,NA,NA,NA,NA,NA,NA,NA,NA,NA
6786d,"""Richtig""-Screen",canvas.Screen,3_0_3_0_1_1_1,NA,NA,timeout,4999.936,691764.10000002,691761.609,691778.308,696761.464,696763.20000005,2023-11-11T06:56:27Z,696778.244,NULL,Sympathie,mapendano,s,dhamiria,fungamano,maazimio,NA,qt,1,3,NA,NA,NA,NA,NA,NA,NA,NA,NA,NA,NA,NA,NA,NA,NA,NA,NA,NA,NA
6786d,"""Falsch""-Screen",canvas.Screen,3_0_3_0_1_1_2,NA,NA,skipped,NA,696764.20000005,NA,NA,696761.464,696764.30000007,2023-11-11T06:56:27Z,696778.244,NULL,Sympathie,mapendano,s,dhamiria,fungamano,maazimio,NA,qt,NA,3,NA,NA,NA,NA,NA,NA,NA,NA,NA,NA,NA,NA,NA,NA,NA,NA,NA,NA,NA
6786d,shallow,flow.Sequence,3_0_3_0_1_1,NA,NA,completion,10750.143,685996.5,685994.873,686011.321,696761.464,696764.30000007,2023-11-11T06:56:27Z,696778.244,NULL,Sympathie,mapendano,s,dhamiria,fungamano,maazimio,NA,qt,NA,3,NA,NA,NA,NA,NA,NA,NA,NA,NA,NA,NA,NA,NA,NA,NA,NA,NA,NA,NA
6786d,task,flow.Sequence,3_0_3_0_1,NA,NA,completion,10750.143,685996.5,685994.873,686011.321,696761.464,696764.39999998,2023-11-11T06:56:27Z,696778.244,NULL,Sympathie,mapendano,s,dhamiria,fungamano,maazimio,NA,qt,NA,3,NA,NA,NA,NA,NA,NA,NA,NA,NA,NA,NA,NA,NA,NA,NA,NA,NA,NA,NA
6786d,deep,flow.Sequence,3_0_3_0_2_0,NA,NA,skipped,NA,696764.39999998,NA,NA,696761.464,696764.39999998,2023-11-11T06:56:27Z,696778.244,NULL,Annäherung,maegesho,s,madahili,kujiamini,mapendekezo,NA,qt,NA,3,NA,NA,NA,NA,NA,NA,NA,NA,NA,NA,NA,NA,NA,NA,NA,NA,NA,NA,NA
6786d,Shallow Question,html.Page,3_0_3_0_2_1_0,NA,NA,form submission,6695.9560000477,696764.5,696761.464,696778.244,703474.20000005,703474.39999998,2023-11-11T06:56:34Z,703478.045,NULL,Annäherung,maegesho,s,madahili,kujiamini,mapendekezo,maegesho,NA,NA,3,NA,NA,NA,NA,NA,NA,NA,NA,NA,NA,NA,NA,NA,NA,NA,NA,NA,NA,NA
6786d,"""Richtig""-Screen",canvas.Screen,3_0_3_0_2_1_1,NA,NA,timeout,5000.137,703475.80000007,703461.429,703478.045,708461.427,708462.60000002,2023-11-11T06:56:39Z,708478.182,NULL,Annäherung,maegesho,s,madahili,kujiamini,mapendekezo,NA,qt,1,3,NA,NA,NA,NA,NA,NA,NA,NA,NA,NA,NA,NA,NA,NA,NA,NA,NA,NA,NA
6786d,"""Falsch""-Screen",canvas.Screen,3_0_3_0_2_1_2,NA,NA,skipped,NA,708463.60000002,NA,NA,708461.427,708463.70000005,2023-11-11T06:56:39Z,708478.182,NULL,Annäherung,maegesho,s,madahili,kujiamini,mapendekezo,NA,qt,NA,3,NA,NA,NA,NA,NA,NA,NA,NA,NA,NA,NA,NA,NA,NA,NA,NA,NA,NA,NA
6786d,shallow,flow.Sequence,3_0_3_0_2_1,NA,NA,completion,11683.183,696764.5,696761.464,696778.244,708461.427,708463.80000007,2023-11-11T06:56:39Z,708478.182,NULL,Annäherung,maegesho,s,madahili,kujiamini,mapendekezo,NA,qt,NA,3,NA,NA,NA,NA,NA,NA,NA,NA,NA,NA,NA,NA,NA,NA,NA,NA,NA,NA,NA
6786d,task,flow.Sequence,3_0_3_0_2,NA,NA,completion,11683.183,696764.39999998,696761.464,696778.244,708461.427,708463.80000007,2023-11-11T06:56:39Z,708478.182,NULL,Annäherung,maegesho,s,madahili,kujiamini,mapendekezo,NA,qt,NA,3,NA,NA,NA,NA,NA,NA,NA,NA,NA,NA,NA,NA,NA,NA,NA,NA,NA,NA,NA
6786d,Deep Question,html.Page,3_0_3_0_3_0_0,NA,NA,form submission,15357.318,708463.80000007,708461.427,708478.182,723835.5,723835.60000002,2023-11-11T06:56:55Z,723844.66,NULL,Aufstand,ugomaji,d,NA,NA,NA,mapedhao,NA,NA,3,NA,NA,NA,NA,NA,NA,NA,NA,NA,NA,NA,NA,NA,NA,NA,NA,NA,NA,NA
6786d,"""Richtig""-Screen",canvas.Screen,3_0_3_0_3_0_1,NA,NA,skipped,NA,723836.70000005,NA,NA,723835.5,723836.80000007,2023-11-11T06:56:55Z,723844.66,NULL,Aufstand,ugomaji,d,NA,NA,NA,NA,qt,NA,3,NA,NA,NA,NA,NA,NA,NA,NA,NA,NA,NA,NA,NA,NA,NA,NA,NA,NA,NA
6786d,"""Falsch""-Screen",canvas.Screen,3_0_3_0_3_0_2,NA,NA,timeout,5000.2069999999,723837.10000002,723828.316,723844.66,728828.146,728829.70000005,2023-11-11T06:57:00Z,728844.867,NULL,Aufstand,ugomaji,d,NA,NA,NA,NA,qt,0,3,NA,NA,NA,NA,NA,NA,NA,NA,NA,NA,NA,NA,NA,NA,NA,NA,NA,NA,NA
6786d,deep,flow.Sequence,3_0_3_0_3_0,NA,NA,completion,20349.964,708463.80000007,708461.427,708478.182,728828.146,728829.89999998,2023-11-11T06:57:00Z,728844.867,NULL,Aufstand,ugomaji,d,NA,NA,NA,NA,qt,NA,3,NA,NA,NA,NA,NA,NA,NA,NA,NA,NA,NA,NA,NA,NA,NA,NA,NA,NA,NA
6786d,shallow,flow.Sequence,3_0_3_0_3_1,NA,NA,skipped,NA,728829.89999998,NA,NA,728828.146,728829.89999998,2023-11-11T06:57:00Z,728844.867,NULL,Aufstand,ugomaji,d,NA,NA,NA,NA,qt,NA,3,NA,NA,NA,NA,NA,NA,NA,NA,NA,NA,NA,NA,NA,NA,NA,NA,NA,NA,NA
6786d,task,flow.Sequence,3_0_3_0_3,NA,NA,completion,20349.964,708463.80000007,708461.427,708478.182,728828.146,728829.89999998,2023-11-11T06:57:00Z,728844.867,NULL,Aufstand,ugomaji,d,NA,NA,NA,NA,qt,NA,3,NA,NA,NA,NA,NA,NA,NA,NA,NA,NA,NA,NA,NA,NA,NA,NA,NA,NA,NA
6786d,deep,flow.Sequence,3_0_3_0_4_0,NA,NA,skipped,NA,728829.89999998,NA,NA,728828.146,728830,2023-11-11T06:57:00Z,728844.867,NULL,Verzögerung,kuchelewa,s,mwakilishi,mwanauchumi,jaribio,NA,qt,NA,3,NA,NA,NA,NA,NA,NA,NA,NA,NA,NA,NA,NA,NA,NA,NA,NA,NA,NA,NA
6786d,Shallow Question,html.Page,3_0_3_0_4_1_0,NA,NA,form submission,7729.7330000239,728830,728828.146,728844.867,736574.60000002,736574.70000005,2023-11-11T06:57:07Z,736578.03,NULL,Verzögerung,kuchelewa,s,mwakilishi,mwanauchumi,jaribio,kuchelewa,NA,NA,3,NA,NA,NA,NA,NA,NA,NA,NA,NA,NA,NA,NA,NA,NA,NA,NA,NA,NA,NA
6786d,"""Richtig""-Screen",canvas.Screen,3_0_3_0_4_1_1,NA,NA,timeout,5000.015,736575.80000007,736561.421,736578.03,741561.433,741563,2023-11-11T06:57:12Z,741578.045,NULL,Verzögerung,kuchelewa,s,mwakilishi,mwanauchumi,jaribio,NA,qt,1,3,NA,NA,NA,NA,NA,NA,NA,NA,NA,NA,NA,NA,NA,NA,NA,NA,NA,NA,NA
6786d,"""Falsch""-Screen",canvas.Screen,3_0_3_0_4_1_2,NA,NA,skipped,NA,741564,NA,NA,741561.433,741564,2023-11-11T06:57:12Z,741578.045,NULL,Verzögerung,kuchelewa,s,mwakilishi,mwanauchumi,jaribio,NA,qt,NA,3,NA,NA,NA,NA,NA,NA,NA,NA,NA,NA,NA,NA,NA,NA,NA,NA,NA,NA,NA
6786d,shallow,flow.Sequence,3_0_3_0_4_1,NA,NA,completion,12716.566,728830,728828.146,728844.867,741561.433,741564,2023-11-11T06:57:12Z,741578.045,NULL,Verzögerung,kuchelewa,s,mwakilishi,mwanauchumi,jaribio,NA,qt,NA,3,NA,NA,NA,NA,NA,NA,NA,NA,NA,NA,NA,NA,NA,NA,NA,NA,NA,NA,NA
6786d,task,flow.Sequence,3_0_3_0_4,NA,NA,completion,12716.566,728829.89999998,728828.146,728844.867,741561.433,741564.10000002,2023-11-11T06:57:12Z,741578.045,NULL,Verzögerung,kuchelewa,s,mwakilishi,mwanauchumi,jaribio,NA,qt,NA,3,NA,NA,NA,NA,NA,NA,NA,NA,NA,NA,NA,NA,NA,NA,NA,NA,NA,NA,NA
6786d,Deep Question,html.Page,3_0_3_0_5_0_0,NA,NA,form submission,13144.755000071,741564.10000002,741561.433,741578.045,754722.80000007,754722.89999998,2023-11-11T06:57:25Z,754728.126,NULL,Polizist,msongora,d,NA,NA,NA,utaghisi,NA,NA,3,NA,NA,NA,NA,NA,NA,NA,NA,NA,NA,NA,NA,NA,NA,NA,NA,NA,NA,NA
6786d,"""Richtig""-Screen",canvas.Screen,3_0_3_0_5_0_1,NA,NA,skipped,NA,754724.10000002,NA,NA,754722.80000007,754724.20000005,2023-11-11T06:57:25Z,754728.126,NULL,Polizist,msongora,d,NA,NA,NA,NA,qt,NA,3,NA,NA,NA,NA,NA,NA,NA,NA,NA,NA,NA,NA,NA,NA,NA,NA,NA,NA,NA
6786d,"""Falsch""-Screen",canvas.Screen,3_0_3_0_5_0_2,NA,NA,timeout,5000.103,754724.39999998,754711.798,754728.126,759711.42,759712.89999998,2023-11-11T06:57:30Z,759728.229,NULL,Polizist,msongora,d,NA,NA,NA,NA,qt,0,3,NA,NA,NA,NA,NA,NA,NA,NA,NA,NA,NA,NA,NA,NA,NA,NA,NA,NA,NA
6786d,deep,flow.Sequence,3_0_3_0_5_0,NA,NA,completion,18133.375,741564.10000002,741561.433,741578.045,759711.42,759713,2023-11-11T06:57:30Z,759728.229,NULL,Polizist,msongora,d,NA,NA,NA,NA,qt,NA,3,NA,NA,NA,NA,NA,NA,NA,NA,NA,NA,NA,NA,NA,NA,NA,NA,NA,NA,NA
6786d,shallow,flow.Sequence,3_0_3_0_5_1,NA,NA,skipped,NA,759713,NA,NA,759711.42,759713,2023-11-11T06:57:30Z,759728.229,NULL,Polizist,msongora,d,NA,NA,NA,NA,qt,NA,3,NA,NA,NA,NA,NA,NA,NA,NA,NA,NA,NA,NA,NA,NA,NA,NA,NA,NA,NA
6786d,task,flow.Sequence,3_0_3_0_5,NA,NA,completion,18133.375,741564.10000002,741561.433,741578.045,759711.42,759713.10000002,2023-11-11T06:57:30Z,759728.229,NULL,Polizist,msongora,d,NA,NA,NA,NA,qt,NA,3,NA,NA,NA,NA,NA,NA,NA,NA,NA,NA,NA,NA,NA,NA,NA,NA,NA,NA,NA
6786d,deep,flow.Sequence,3_0_3_0_6_0,NA,NA,skipped,NA,759713.10000002,NA,NA,759711.42,759713.10000002,2023-11-11T06:57:30Z,759728.229,NULL,Kultur,utamaduni,s,shetani,gerezani,mazingira,NA,qt,NA,3,NA,NA,NA,NA,NA,NA,NA,NA,NA,NA,NA,NA,NA,NA,NA,NA,NA,NA,NA
6786d,Shallow Question,html.Page,3_0_3_0_6_1_0,NA,NA,form submission,12563.670999976,759713.10000002,759711.42,759728.229,772291.89999998,772292.10000002,2023-11-11T06:57:43Z,772294.628,NULL,Kultur,utamaduni,s,shetani,gerezani,mazingira,gerezani,NA,NA,3,NA,NA,NA,NA,NA,NA,NA,NA,NA,NA,NA,NA,NA,NA,NA,NA,NA,NA,NA
6786d,"""Richtig""-Screen",canvas.Screen,3_0_3_0_6_1_1,NA,NA,skipped,NA,772293,NA,NA,772291.89999998,772293.10000002,2023-11-11T06:57:43Z,772294.628,NULL,Kultur,utamaduni,s,shetani,gerezani,mazingira,NA,qt,NA,3,NA,NA,NA,NA,NA,NA,NA,NA,NA,NA,NA,NA,NA,NA,NA,NA,NA,NA,NA
6786d,"""Falsch""-Screen",canvas.Screen,3_0_3_0_6_1_2,NA,NA,timeout,5000.1799999999,772293.30000007,772278.065,772294.628,777277.992,777279.30000007,2023-11-11T06:57:48Z,777294.808,NULL,Kultur,utamaduni,s,shetani,gerezani,mazingira,NA,qt,0,3,NA,NA,NA,NA,NA,NA,NA,NA,NA,NA,NA,NA,NA,NA,NA,NA,NA,NA,NA
6786d,shallow,flow.Sequence,3_0_3_0_6_1,NA,NA,completion,17549.763,759713.10000002,759711.42,759728.229,777277.992,777279.39999998,2023-11-11T06:57:48Z,777294.808,NULL,Kultur,utamaduni,s,shetani,gerezani,mazingira,NA,qt,NA,3,NA,NA,NA,NA,NA,NA,NA,NA,NA,NA,NA,NA,NA,NA,NA,NA,NA,NA,NA
6786d,task,flow.Sequence,3_0_3_0_6,NA,NA,completion,17549.763,759713.10000002,759711.42,759728.229,777277.992,777279.5,2023-11-11T06:57:48Z,777294.808,NULL,Kultur,utamaduni,s,shetani,gerezani,mazingira,NA,qt,NA,3,NA,NA,NA,NA,NA,NA,NA,NA,NA,NA,NA,NA,NA,NA,NA,NA,NA,NA,NA
6786d,Deep Question,html.Page,3_0_3_0_7_0_0,NA,NA,form submission,14943.492000072,777279.5,777277.992,777294.808,792238.30000007,792238.39999998,2023-11-11T06:58:03Z,792244.639,NULL,Prüfung,mtihani,d,NA,NA,NA,mhatmiao,NA,NA,3,NA,NA,NA,NA,NA,NA,NA,NA,NA,NA,NA,NA,NA,NA,NA,NA,NA,NA,NA
6786d,"""Richtig""-Screen",canvas.Screen,3_0_3_0_7_0_1,NA,NA,skipped,NA,792239.5,NA,NA,792238.30000007,792239.60000002,2023-11-11T06:58:03Z,792244.639,NULL,Prüfung,mtihani,d,NA,NA,NA,NA,qt,NA,3,NA,NA,NA,NA,NA,NA,NA,NA,NA,NA,NA,NA,NA,NA,NA,NA,NA,NA,NA
6786d,"""Falsch""-Screen",canvas.Screen,3_0_3_0_7_0_2,NA,NA,timeout,5000.072,792239.89999998,792228.311,792244.639,797228.131,797229.39999998,2023-11-11T06:58:08Z,797244.711,NULL,Prüfung,mtihani,d,NA,NA,NA,NA,qt,0,3,NA,NA,NA,NA,NA,NA,NA,NA,NA,NA,NA,NA,NA,NA,NA,NA,NA,NA,NA
6786d,deep,flow.Sequence,3_0_3_0_7_0,NA,NA,completion,19933.323,777279.5,777277.992,777294.808,797228.131,797229.39999998,2023-11-11T06:58:08Z,797244.711,NULL,Prüfung,mtihani,d,NA,NA,NA,NA,qt,NA,3,NA,NA,NA,NA,NA,NA,NA,NA,NA,NA,NA,NA,NA,NA,NA,NA,NA,NA,NA
6786d,shallow,flow.Sequence,3_0_3_0_7_1,NA,NA,skipped,NA,797229.5,NA,NA,797228.131,797229.5,2023-11-11T06:58:08Z,797244.711,NULL,Prüfung,mtihani,d,NA,NA,NA,NA,qt,NA,3,NA,NA,NA,NA,NA,NA,NA,NA,NA,NA,NA,NA,NA,NA,NA,NA,NA,NA,NA
6786d,task,flow.Sequence,3_0_3_0_7,NA,NA,completion,19933.323,777279.5,777277.992,777294.808,797228.131,797229.5,2023-11-11T06:58:08Z,797244.711,NULL,Prüfung,mtihani,d,NA,NA,NA,NA,qt,NA,3,NA,NA,NA,NA,NA,NA,NA,NA,NA,NA,NA,NA,NA,NA,NA,NA,NA,NA,NA
6786d,block,flow.Loop,3_0_3_0,NA,NA,completion,135083.231,662134.5,662131.041,662144.9,797228.131,797229.60000002,2023-11-11T06:58:08Z,797244.711,NULL,NA,NA,NA,NA,NA,NA,NA,qt,NA,3,NA,NA,NA,NA,NA,NA,NA,NA,NA,NA,NA,NA,NA,NA,NA,NA,NA,NA,NA
6786d,weiter,canvas.Screen,3_0_3_1,sdf,keypress(Space),response,1636.9890000477,797229.60000002,797228.131,797244.711,798881.70000005,798882.30000007,2023-11-11T06:58:10Z,798911.595,NULL,NA,NA,NA,NA,NA,NA,NA,qt,NA,3,NA,NA,NA,NA,NA,NA,NA,NA,NA,NA,NA,NA,NA,NA,NA,NA,NA,NA,NA
6786d,check continue,flow.Sequence,3_0_3,NA,NA,completion,136736.80000005,662134.39999998,662131.041,662144.9,798881.70000005,798882.30000007,2023-11-11T06:58:10Z,798911.595,NULL,NA,NA,NA,NA,NA,NA,NA,qt,NA,3,NA,NA,NA,NA,NA,NA,NA,NA,NA,NA,NA,NA,NA,NA,NA,NA,NA,NA,NA
6786d,deep,flow.Sequence,3_0_4_0_0_0,NA,NA,skipped,NA,798899.5,NA,NA,798881.70000005,798899.60000002,2023-11-11T06:58:10Z,798911.595,NULL,Annäherung,maegesho,s,madahili,kujiamini,mapendekezo,NA,sd,NA,4,NA,NA,NA,NA,NA,NA,NA,NA,NA,NA,NA,NA,NA,NA,NA,NA,NA,NA,NA
6786d,Shallow Question,html.Page,3_0_4_0_0_1_0,NA,NA,form submission,9846.7050000716,798899.60000002,798888.415,798911.595,808758.30000007,808758.5,2023-11-11T06:58:19Z,808777.989,NULL,Annäherung,maegesho,s,madahili,kujiamini,mapendekezo,madahili,NA,NA,4,NA,NA,NA,NA,NA,NA,NA,NA,NA,NA,NA,NA,NA,NA,NA,NA,NA,NA,NA
6786d,"""Richtig""-Screen",canvas.Screen,3_0_4_0_0_1_1,NA,NA,skipped,NA,808759.5,NA,NA,808758.30000007,808759.5,2023-11-11T06:58:19Z,808777.989,NULL,Annäherung,maegesho,s,madahili,kujiamini,mapendekezo,NA,sd,NA,4,NA,NA,NA,NA,NA,NA,NA,NA,NA,NA,NA,NA,NA,NA,NA,NA,NA,NA,NA
6786d,"""Falsch""-Screen",canvas.Screen,3_0_4_0_0_1_2,NA,NA,timeout,5000.0330000001,808759.80000007,808761.378,808777.989,813761.403,813763.20000005,2023-11-11T06:58:24Z,813778.022,NULL,Annäherung,maegesho,s,madahili,kujiamini,mapendekezo,NA,sd,0,4,NA,NA,NA,NA,NA,NA,NA,NA,NA,NA,NA,NA,NA,NA,NA,NA,NA,NA,NA
6786d,shallow,flow.Sequence,3_0_4_0_0_1,NA,NA,completion,14849.808,798899.60000002,798888.415,798911.595,813761.403,813763.30000007,2023-11-11T06:58:24Z,813778.022,NULL,Annäherung,maegesho,s,madahili,kujiamini,mapendekezo,NA,sd,NA,4,NA,NA,NA,NA,NA,NA,NA,NA,NA,NA,NA,NA,NA,NA,NA,NA,NA,NA,NA
6786d,task,flow.Sequence,3_0_4_0_0,NA,NA,completion,14849.808,798899.5,798888.415,798911.595,813761.403,813763.30000007,2023-11-11T06:58:24Z,813778.022,NULL,Annäherung,maegesho,s,madahili,kujiamini,mapendekezo,NA,sd,NA,4,NA,NA,NA,NA,NA,NA,NA,NA,NA,NA,NA,NA,NA,NA,NA,NA,NA,NA,NA
6786d,deep,flow.Sequence,3_0_4_0_1_0,NA,NA,skipped,NA,813763.30000007,NA,NA,813761.403,813763.39999998,2023-11-11T06:58:24Z,813778.022,NULL,Verzögerung,kuchelewa,s,mwakilishi,mwanauchumi,jaribio,NA,sd,NA,4,NA,NA,NA,NA,NA,NA,NA,NA,NA,NA,NA,NA,NA,NA,NA,NA,NA,NA,NA
6786d,Shallow Question,html.Page,3_0_4_0_1_1_0,NA,NA,form submission,7035.1780000477,813763.39999998,813761.403,813778.022,820813.20000005,820813.39999998,2023-11-11T06:58:32Z,820828.154,NULL,Verzögerung,kuchelewa,s,mwakilishi,mwanauchumi,jaribio,kuchelewa,NA,NA,4,NA,NA,NA,NA,NA,NA,NA,NA,NA,NA,NA,NA,NA,NA,NA,NA,NA,NA,NA
6786d,"""Richtig""-Screen",canvas.Screen,3_0_4_0_1_1_1,NA,NA,timeout,4999.817,820814.30000007,820811.572,820828.154,825811.368,825812.70000005,2023-11-11T06:58:37Z,825827.971,NULL,Verzögerung,kuchelewa,s,mwakilishi,mwanauchumi,jaribio,NA,sd,1,4,NA,NA,NA,NA,NA,NA,NA,NA,NA,NA,NA,NA,NA,NA,NA,NA,NA,NA,NA
6786d,"""Falsch""-Screen",canvas.Screen,3_0_4_0_1_1_2,NA,NA,skipped,NA,825813.60000002,NA,NA,825811.368,825813.70000005,2023-11-11T06:58:37Z,825827.971,NULL,Verzögerung,kuchelewa,s,mwakilishi,mwanauchumi,jaribio,NA,sd,NA,4,NA,NA,NA,NA,NA,NA,NA,NA,NA,NA,NA,NA,NA,NA,NA,NA,NA,NA,NA
6786d,shallow,flow.Sequence,3_0_4_0_1_1,NA,NA,completion,12033.346,813763.39999998,813761.403,813778.022,825811.368,825813.80000007,2023-11-11T06:58:37Z,825827.971,NULL,Verzögerung,kuchelewa,s,mwakilishi,mwanauchumi,jaribio,NA,sd,NA,4,NA,NA,NA,NA,NA,NA,NA,NA,NA,NA,NA,NA,NA,NA,NA,NA,NA,NA,NA
6786d,task,flow.Sequence,3_0_4_0_1,NA,NA,completion,12033.346,813763.30000007,813761.403,813778.022,825811.368,825813.80000007,2023-11-11T06:58:37Z,825827.971,NULL,Verzögerung,kuchelewa,s,mwakilishi,mwanauchumi,jaribio,NA,sd,NA,4,NA,NA,NA,NA,NA,NA,NA,NA,NA,NA,NA,NA,NA,NA,NA,NA,NA,NA,NA
6786d,Deep Question,html.Page,3_0_4_0_2_0_0,NA,NA,form submission,9854.3290000715,825813.80000007,825811.368,825827.971,835682.30000007,835682.39999998,2023-11-11T06:58:46Z,835694.73,NULL,Aufstand,ugomaji,d,NA,NA,NA,mhamadiri,NA,NA,4,NA,NA,NA,NA,NA,NA,NA,NA,NA,NA,NA,NA,NA,NA,NA,NA,NA,NA,NA
6786d,"""Richtig""-Screen",canvas.Screen,3_0_4_0_2_0_1,NA,NA,skipped,NA,835683.60000002,NA,NA,835682.30000007,835683.70000005,2023-11-11T06:58:46Z,835694.73,NULL,Aufstand,ugomaji,d,NA,NA,NA,NA,sd,NA,4,NA,NA,NA,NA,NA,NA,NA,NA,NA,NA,NA,NA,NA,NA,NA,NA,NA,NA,NA
6786d,"""Falsch""-Screen",canvas.Screen,3_0_4_0_2_0_2,NA,NA,timeout,5000.0650000001,835684,835678.302,835694.73,840678.058,840679.30000007,2023-11-11T06:58:51Z,840694.795,NULL,Aufstand,ugomaji,d,NA,NA,NA,NA,sd,0,4,NA,NA,NA,NA,NA,NA,NA,NA,NA,NA,NA,NA,NA,NA,NA,NA,NA,NA,NA
6786d,deep,flow.Sequence,3_0_4_0_2_0,NA,NA,completion,14850.087,825813.80000007,825811.368,825827.971,840678.058,840679.39999998,2023-11-11T06:58:51Z,840694.795,NULL,Aufstand,ugomaji,d,NA,NA,NA,NA,sd,NA,4,NA,NA,NA,NA,NA,NA,NA,NA,NA,NA,NA,NA,NA,NA,NA,NA,NA,NA,NA
6786d,shallow,flow.Sequence,3_0_4_0_2_1,NA,NA,skipped,NA,840679.5,NA,NA,840678.058,840679.5,2023-11-11T06:58:51Z,840694.795,NULL,Aufstand,ugomaji,d,NA,NA,NA,NA,sd,NA,4,NA,NA,NA,NA,NA,NA,NA,NA,NA,NA,NA,NA,NA,NA,NA,NA,NA,NA,NA
6786d,task,flow.Sequence,3_0_4_0_2,NA,NA,completion,14850.087,825813.80000007,825811.368,825827.971,840678.058,840679.5,2023-11-11T06:58:51Z,840694.795,NULL,Aufstand,ugomaji,d,NA,NA,NA,NA,sd,NA,4,NA,NA,NA,NA,NA,NA,NA,NA,NA,NA,NA,NA,NA,NA,NA,NA,NA,NA,NA
6786d,deep,flow.Sequence,3_0_4_0_3_0,NA,NA,skipped,NA,840679.5,NA,NA,840678.058,840679.5,2023-11-11T06:58:51Z,840694.795,NULL,Sympathie,mapendano,s,dhamiria,fungamano,maazimio,NA,sd,NA,4,NA,NA,NA,NA,NA,NA,NA,NA,NA,NA,NA,NA,NA,NA,NA,NA,NA,NA,NA
6786d,Shallow Question,html.Page,3_0_4_0_3_1_0,NA,NA,form submission,10283.705,840679.60000002,840678.058,840694.795,850978.5,850978.60000002,2023-11-11T06:59:02Z,850994.86,NULL,Sympathie,mapendano,s,dhamiria,fungamano,maazimio,fungamano,NA,NA,4,NA,NA,NA,NA,NA,NA,NA,NA,NA,NA,NA,NA,NA,NA,NA,NA,NA,NA,NA
6786d,"""Richtig""-Screen",canvas.Screen,3_0_4_0_3_1_1,NA,NA,skipped,NA,850979.80000007,NA,NA,850978.5,850979.80000007,2023-11-11T06:59:02Z,850994.86,NULL,Sympathie,mapendano,s,dhamiria,fungamano,maazimio,NA,sd,NA,4,NA,NA,NA,NA,NA,NA,NA,NA,NA,NA,NA,NA,NA,NA,NA,NA,NA,NA,NA
6786d,"""Falsch""-Screen",canvas.Screen,3_0_4_0_3_1_2,NA,NA,timeout,4999.875,850980.10000002,850978.269,850994.86,855977.987,855978.5,2023-11-11T06:59:07Z,855994.735,NULL,Sympathie,mapendano,s,dhamiria,fungamano,maazimio,NA,sd,0,4,NA,NA,NA,NA,NA,NA,NA,NA,NA,NA,NA,NA,NA,NA,NA,NA,NA,NA,NA
6786d,shallow,flow.Sequence,3_0_4_0_3_1,NA,NA,completion,15283.192,840679.5,840678.058,840694.795,855977.987,855978.70000005,2023-11-11T06:59:07Z,855994.735,NULL,Sympathie,mapendano,s,dhamiria,fungamano,maazimio,NA,sd,NA,4,NA,NA,NA,NA,NA,NA,NA,NA,NA,NA,NA,NA,NA,NA,NA,NA,NA,NA,NA
6786d,task,flow.Sequence,3_0_4_0_3,NA,NA,completion,15283.192,840679.5,840678.058,840694.795,855977.987,855978.70000005,2023-11-11T06:59:07Z,855994.735,NULL,Sympathie,mapendano,s,dhamiria,fungamano,maazimio,NA,sd,NA,4,NA,NA,NA,NA,NA,NA,NA,NA,NA,NA,NA,NA,NA,NA,NA,NA,NA,NA,NA
6786d,Deep Question,html.Page,3_0_4_0_4_0_0,NA,NA,form submission,21389.065000072,855978.70000005,855977.987,855994.735,877383.80000007,877384,2023-11-11T06:59:28Z,877394.654,NULL,Beweis,ushahidi,d,NA,NA,NA,mhamidau,NA,NA,4,NA,NA,NA,NA,NA,NA,NA,NA,NA,NA,NA,NA,NA,NA,NA,NA,NA,NA,NA
6786d,"""Richtig""-Screen",canvas.Screen,3_0_4_0_4_0_1,NA,NA,skipped,NA,877385.20000005,NA,NA,877383.80000007,877385.20000005,2023-11-11T06:59:28Z,877394.654,NULL,Beweis,ushahidi,d,NA,NA,NA,NA,sd,NA,4,NA,NA,NA,NA,NA,NA,NA,NA,NA,NA,NA,NA,NA,NA,NA,NA,NA,NA,NA
6786d,"""Falsch""-Screen",canvas.Screen,3_0_4_0_4_0_2,NA,NA,timeout,5000.095,877385.5,877378.216,877394.654,882377.993,882380,2023-11-11T06:59:33Z,882394.749,NULL,Beweis,ushahidi,d,NA,NA,NA,NA,sd,0,4,NA,NA,NA,NA,NA,NA,NA,NA,NA,NA,NA,NA,NA,NA,NA,NA,NA,NA,NA
6786d,deep,flow.Sequence,3_0_4_0_4_0,NA,NA,completion,26383.258,855978.70000005,855977.987,855994.735,882377.993,882380,2023-11-11T06:59:33Z,882394.749,NULL,Beweis,ushahidi,d,NA,NA,NA,NA,sd,NA,4,NA,NA,NA,NA,NA,NA,NA,NA,NA,NA,NA,NA,NA,NA,NA,NA,NA,NA,NA
6786d,shallow,flow.Sequence,3_0_4_0_4_1,NA,NA,skipped,NA,882380.10000002,NA,NA,882377.993,882380.10000002,2023-11-11T06:59:33Z,882394.749,NULL,Beweis,ushahidi,d,NA,NA,NA,NA,sd,NA,4,NA,NA,NA,NA,NA,NA,NA,NA,NA,NA,NA,NA,NA,NA,NA,NA,NA,NA,NA
6786d,task,flow.Sequence,3_0_4_0_4,NA,NA,completion,26383.258,855978.70000005,855977.987,855994.735,882377.993,882380.10000002,2023-11-11T06:59:33Z,882394.749,NULL,Beweis,ushahidi,d,NA,NA,NA,NA,sd,NA,4,NA,NA,NA,NA,NA,NA,NA,NA,NA,NA,NA,NA,NA,NA,NA,NA,NA,NA,NA
6786d,deep,flow.Sequence,3_0_4_0_5_0,NA,NA,skipped,NA,882380.10000002,NA,NA,882377.993,882380.10000002,2023-11-11T06:59:33Z,882394.749,NULL,Kultur,utamaduni,s,shetani,gerezani,mazingira,NA,sd,NA,4,NA,NA,NA,NA,NA,NA,NA,NA,NA,NA,NA,NA,NA,NA,NA,NA,NA,NA,NA
6786d,Shallow Question,html.Page,3_0_4_0_5_1_0,NA,NA,form submission,9516.1509999762,882380.20000005,882377.993,882394.749,891910.89999998,891911,2023-11-11T06:59:43Z,891928.501,NULL,Kultur,utamaduni,s,shetani,gerezani,mazingira,mazingira,NA,NA,4,NA,NA,NA,NA,NA,NA,NA,NA,NA,NA,NA,NA,NA,NA,NA,NA,NA,NA,NA
6786d,"""Richtig""-Screen",canvas.Screen,3_0_4_0_5_1_1,NA,NA,skipped,NA,891912.10000002,NA,NA,891910.89999998,891912.10000002,2023-11-11T06:59:43Z,891928.501,NULL,Kultur,utamaduni,s,shetani,gerezani,mazingira,NA,sd,NA,4,NA,NA,NA,NA,NA,NA,NA,NA,NA,NA,NA,NA,NA,NA,NA,NA,NA,NA,NA
6786d,"""Falsch""-Screen",canvas.Screen,3_0_4_0_5_1_2,NA,NA,timeout,4999.48,891912.39999998,891909.551,891928.501,896911.319,896912.5,2023-11-11T06:59:48Z,896927.981,NULL,Kultur,utamaduni,s,shetani,gerezani,mazingira,NA,sd,0,4,NA,NA,NA,NA,NA,NA,NA,NA,NA,NA,NA,NA,NA,NA,NA,NA,NA,NA,NA
6786d,shallow,flow.Sequence,3_0_4_0_5_1,NA,NA,completion,14516.57,882380.20000005,882377.993,882394.749,896911.319,896912.60000002,2023-11-11T06:59:48Z,896927.981,NULL,Kultur,utamaduni,s,shetani,gerezani,mazingira,NA,sd,NA,4,NA,NA,NA,NA,NA,NA,NA,NA,NA,NA,NA,NA,NA,NA,NA,NA,NA,NA,NA
6786d,task,flow.Sequence,3_0_4_0_5,NA,NA,completion,14516.57,882380.10000002,882377.993,882394.749,896911.319,896912.60000002,2023-11-11T06:59:48Z,896927.981,NULL,Kultur,utamaduni,s,shetani,gerezani,mazingira,NA,sd,NA,4,NA,NA,NA,NA,NA,NA,NA,NA,NA,NA,NA,NA,NA,NA,NA,NA,NA,NA,NA
6786d,Deep Question,html.Page,3_0_4_0_6_0_0,NA,NA,form submission,7187.019,896912.70000005,896911.319,896927.981,904115,904115.10000002,2023-11-11T06:59:55Z,904127.946,NULL,Polizist,msongora,d,NA,NA,NA,mpiduna,NA,NA,4,NA,NA,NA,NA,NA,NA,NA,NA,NA,NA,NA,NA,NA,NA,NA,NA,NA,NA,NA
6786d,"""Richtig""-Screen",canvas.Screen,3_0_4_0_6_0_1,NA,NA,skipped,NA,904116.20000005,NA,NA,904115,904116.30000007,2023-11-11T06:59:55Z,904127.946,NULL,Polizist,msongora,d,NA,NA,NA,NA,sd,NA,4,NA,NA,NA,NA,NA,NA,NA,NA,NA,NA,NA,NA,NA,NA,NA,NA,NA,NA,NA
6786d,"""Falsch""-Screen",canvas.Screen,3_0_4_0_6_0_2,NA,NA,timeout,5000.324,904116.60000002,904111.436,904127.946,909111.292,909111.80000007,2023-11-11T07:00:00Z,909128.27,NULL,Polizist,msongora,d,NA,NA,NA,NA,sd,0,4,NA,NA,NA,NA,NA,NA,NA,NA,NA,NA,NA,NA,NA,NA,NA,NA,NA,NA,NA
6786d,deep,flow.Sequence,3_0_4_0_6_0,NA,NA,completion,12183.311,896912.70000005,896911.319,896927.981,909111.292,909111.89999998,2023-11-11T07:00:00Z,909128.27,NULL,Polizist,msongora,d,NA,NA,NA,NA,sd,NA,4,NA,NA,NA,NA,NA,NA,NA,NA,NA,NA,NA,NA,NA,NA,NA,NA,NA,NA,NA
6786d,shallow,flow.Sequence,3_0_4_0_6_1,NA,NA,skipped,NA,909111.89999998,NA,NA,909111.292,909111.89999998,2023-11-11T07:00:00Z,909128.27,NULL,Polizist,msongora,d,NA,NA,NA,NA,sd,NA,4,NA,NA,NA,NA,NA,NA,NA,NA,NA,NA,NA,NA,NA,NA,NA,NA,NA,NA,NA
6786d,task,flow.Sequence,3_0_4_0_6,NA,NA,completion,12183.311,896912.70000005,896911.319,896927.981,909111.292,909112,2023-11-11T07:00:00Z,909128.27,NULL,Polizist,msongora,d,NA,NA,NA,NA,sd,NA,4,NA,NA,NA,NA,NA,NA,NA,NA,NA,NA,NA,NA,NA,NA,NA,NA,NA,NA,NA
6786d,Deep Question,html.Page,3_0_4_0_7_0_0,NA,NA,form submission,27353.830000024,909112,909111.292,909128.27,936482.10000002,936482.30000007,2023-11-11T07:00:27Z,936494.551,NULL,Prüfung,mtihani,d,NA,NA,NA,deniou,NA,NA,4,NA,NA,NA,NA,NA,NA,NA,NA,NA,NA,NA,NA,NA,NA,NA,NA,NA,NA,NA
6786d,"""Richtig""-Screen",canvas.Screen,3_0_4_0_7_0_1,NA,NA,skipped,NA,936483.39999998,NA,NA,936482.10000002,936483.5,2023-11-11T07:00:27Z,936494.551,NULL,Prüfung,mtihani,d,NA,NA,NA,NA,sd,NA,4,NA,NA,NA,NA,NA,NA,NA,NA,NA,NA,NA,NA,NA,NA,NA,NA,NA,NA,NA
6786d,"""Falsch""-Screen",canvas.Screen,3_0_4_0_7_0_2,NA,NA,timeout,5000.095,936483.80000007,936477.669,936494.551,941477.923,941479.60000002,2023-11-11T07:00:32Z,941494.646,NULL,Prüfung,mtihani,d,NA,NA,NA,NA,sd,0,4,NA,NA,NA,NA,NA,NA,NA,NA,NA,NA,NA,NA,NA,NA,NA,NA,NA,NA,NA
6786d,deep,flow.Sequence,3_0_4_0_7_0,NA,NA,completion,32349.653,909112,909111.292,909128.27,941477.923,941479.60000002,2023-11-11T07:00:32Z,941494.646,NULL,Prüfung,mtihani,d,NA,NA,NA,NA,sd,NA,4,NA,NA,NA,NA,NA,NA,NA,NA,NA,NA,NA,NA,NA,NA,NA,NA,NA,NA,NA
6786d,shallow,flow.Sequence,3_0_4_0_7_1,NA,NA,skipped,NA,941479.70000005,NA,NA,941477.923,941479.70000005,2023-11-11T07:00:32Z,941494.646,NULL,Prüfung,mtihani,d,NA,NA,NA,NA,sd,NA,4,NA,NA,NA,NA,NA,NA,NA,NA,NA,NA,NA,NA,NA,NA,NA,NA,NA,NA,NA
6786d,task,flow.Sequence,3_0_4_0_7,NA,NA,completion,32349.653,909112,909111.292,909128.27,941477.923,941479.70000005,2023-11-11T07:00:32Z,941494.646,NULL,Prüfung,mtihani,d,NA,NA,NA,NA,sd,NA,4,NA,NA,NA,NA,NA,NA,NA,NA,NA,NA,NA,NA,NA,NA,NA,NA,NA,NA,NA
6786d,block,flow.Loop,3_0_4_0,NA,NA,completion,142566.328,798899.5,798888.415,798911.595,941477.923,941479.80000007,2023-11-11T07:00:32Z,941494.646,NULL,NA,NA,NA,NA,NA,NA,NA,sd,NA,4,NA,NA,NA,NA,NA,NA,NA,NA,NA,NA,NA,NA,NA,NA,NA,NA,NA,NA,NA
6786d,weiter,canvas.Screen,3_0_4_1,sdf,keypress(Space),response,12039.154000072,941479.89999998,941477.923,941494.646,953533.80000007,953534.10000002,2023-11-11T07:00:44Z,953561.383,NULL,NA,NA,NA,NA,NA,NA,NA,sd,NA,4,NA,NA,NA,NA,NA,NA,NA,NA,NA,NA,NA,NA,NA,NA,NA,NA,NA,NA,NA
6786d,check continue,flow.Sequence,3_0_4,NA,NA,completion,154622.20500007,798899.5,798888.415,798911.595,953533.80000007,953534.20000005,2023-11-11T07:00:44Z,953561.383,NULL,NA,NA,NA,NA,NA,NA,NA,sd,NA,4,NA,NA,NA,NA,NA,NA,NA,NA,NA,NA,NA,NA,NA,NA,NA,NA,NA,NA,NA
6786d,Deep Question,html.Page,3_0_5_0_0_0_0,NA,NA,form submission,18017.417000071,953549.5,953547.749,953561.383,971578.80000007,971578.89999998,2023-11-11T07:01:02Z,971594.573,NULL,Beweis,ushahidi,d,NA,NA,NA,mhidau,NA,NA,5,NA,NA,NA,NA,NA,NA,NA,NA,NA,NA,NA,NA,NA,NA,NA,NA,NA,NA,NA
6786d,"""Richtig""-Screen",canvas.Screen,3_0_5_0_0_0_1,NA,NA,skipped,NA,971580,NA,NA,971578.80000007,971580.10000002,2023-11-11T07:01:02Z,971594.573,NULL,Beweis,ushahidi,d,NA,NA,NA,NA,sdf,NA,5,NA,NA,NA,NA,NA,NA,NA,NA,NA,NA,NA,NA,NA,NA,NA,NA,NA,NA,NA
6786d,"""Falsch""-Screen",canvas.Screen,3_0_5_0_0_0_2,NA,NA,timeout,5000.189,971580.5,971578.061,971594.573,976577.928,976579.60000002,2023-11-11T07:01:07Z,976594.762,NULL,Beweis,ushahidi,d,NA,NA,NA,NA,sdf,0,5,NA,NA,NA,NA,NA,NA,NA,NA,NA,NA,NA,NA,NA,NA,NA,NA,NA,NA,NA
6786d,deep,flow.Sequence,3_0_5_0_0_0,NA,NA,completion,23016.545,953549.5,953547.749,953561.383,976577.928,976579.60000002,2023-11-11T07:01:07Z,976594.762,NULL,Beweis,ushahidi,d,NA,NA,NA,NA,sdf,NA,5,NA,NA,NA,NA,NA,NA,NA,NA,NA,NA,NA,NA,NA,NA,NA,NA,NA,NA,NA
6786d,shallow,flow.Sequence,3_0_5_0_0_1,NA,NA,skipped,NA,976579.70000005,NA,NA,976577.928,976579.70000005,2023-11-11T07:01:07Z,976594.762,NULL,Beweis,ushahidi,d,NA,NA,NA,NA,sdf,NA,5,NA,NA,NA,NA,NA,NA,NA,NA,NA,NA,NA,NA,NA,NA,NA,NA,NA,NA,NA
6786d,task,flow.Sequence,3_0_5_0_0,NA,NA,completion,23016.545,953549.5,953547.749,953561.383,976577.928,976579.70000005,2023-11-11T07:01:07Z,976594.762,NULL,Beweis,ushahidi,d,NA,NA,NA,NA,sdf,NA,5,NA,NA,NA,NA,NA,NA,NA,NA,NA,NA,NA,NA,NA,NA,NA,NA,NA,NA,NA
6786d,Deep Question,html.Page,3_0_5_0_1_0_0,NA,NA,form submission,4757.738,976579.80000007,976577.928,976594.762,981352.5,981352.60000002,2023-11-11T07:01:12Z,981361.228,NULL,Prüfung,mtihani,d,NA,NA,NA,mhidau,NA,NA,5,NA,NA,NA,NA,NA,NA,NA,NA,NA,NA,NA,NA,NA,NA,NA,NA,NA,NA,NA
6786d,"""Richtig""-Screen",canvas.Screen,3_0_5_0_1_0_1,NA,NA,skipped,NA,981353.80000007,NA,NA,981352.5,981353.89999998,2023-11-11T07:01:12Z,981361.228,NULL,Prüfung,mtihani,d,NA,NA,NA,NA,sdf,NA,5,NA,NA,NA,NA,NA,NA,NA,NA,NA,NA,NA,NA,NA,NA,NA,NA,NA,NA,NA
6786d,"""Falsch""-Screen",canvas.Screen,3_0_5_0_1_0_2,NA,NA,timeout,5000.176,981354.20000005,981344.544,981361.228,986344.677,986346,2023-11-11T07:01:17Z,986361.404,NULL,Prüfung,mtihani,d,NA,NA,NA,NA,sdf,0,5,NA,NA,NA,NA,NA,NA,NA,NA,NA,NA,NA,NA,NA,NA,NA,NA,NA,NA,NA
6786d,deep,flow.Sequence,3_0_5_0_1_0,NA,NA,completion,9749.915,976579.80000007,976577.928,976594.762,986344.677,986346.10000002,2023-11-11T07:01:17Z,986361.404,NULL,Prüfung,mtihani,d,NA,NA,NA,NA,sdf,NA,5,NA,NA,NA,NA,NA,NA,NA,NA,NA,NA,NA,NA,NA,NA,NA,NA,NA,NA,NA
6786d,shallow,flow.Sequence,3_0_5_0_1_1,NA,NA,skipped,NA,986346.10000002,NA,NA,986344.677,986346.10000002,2023-11-11T07:01:17Z,986361.404,NULL,Prüfung,mtihani,d,NA,NA,NA,NA,sdf,NA,5,NA,NA,NA,NA,NA,NA,NA,NA,NA,NA,NA,NA,NA,NA,NA,NA,NA,NA,NA
6786d,task,flow.Sequence,3_0_5_0_1,NA,NA,completion,9749.915,976579.80000007,976577.928,976594.762,986344.677,986346.10000002,2023-11-11T07:01:17Z,986361.404,NULL,Prüfung,mtihani,d,NA,NA,NA,NA,sdf,NA,5,NA,NA,NA,NA,NA,NA,NA,NA,NA,NA,NA,NA,NA,NA,NA,NA,NA,NA,NA
6786d,Deep Question,html.Page,3_0_5_0_2_0_0,NA,NA,form submission,7191.3960000715,986346.20000005,986344.677,986361.404,993552.80000007,993552.89999998,2023-11-11T07:01:24Z,993561.224,NULL,Aufstand,ugomaji,d,NA,NA,NA,arukori,NA,NA,5,NA,NA,NA,NA,NA,NA,NA,NA,NA,NA,NA,NA,NA,NA,NA,NA,NA,NA,NA
6786d,"""Richtig""-Screen",canvas.Screen,3_0_5_0_2_0_1,NA,NA,skipped,NA,993554.20000005,NA,NA,993552.80000007,993554.20000005,2023-11-11T07:01:24Z,993561.224,NULL,Aufstand,ugomaji,d,NA,NA,NA,NA,sdf,NA,5,NA,NA,NA,NA,NA,NA,NA,NA,NA,NA,NA,NA,NA,NA,NA,NA,NA,NA,NA
6786d,"""Falsch""-Screen",canvas.Screen,3_0_5_0_2_0_2,NA,NA,timeout,5000.005,993554.5,993544.978,993561.224,998544.575,998545.80000007,2023-11-11T07:01:29Z,998561.229,NULL,Aufstand,ugomaji,d,NA,NA,NA,NA,sdf,0,5,NA,NA,NA,NA,NA,NA,NA,NA,NA,NA,NA,NA,NA,NA,NA,NA,NA,NA,NA
6786d,deep,flow.Sequence,3_0_5_0_2_0,NA,NA,completion,12183.171,986346.20000005,986344.677,986361.404,998544.575,998545.80000007,2023-11-11T07:01:29Z,998561.229,NULL,Aufstand,ugomaji,d,NA,NA,NA,NA,sdf,NA,5,NA,NA,NA,NA,NA,NA,NA,NA,NA,NA,NA,NA,NA,NA,NA,NA,NA,NA,NA
6786d,shallow,flow.Sequence,3_0_5_0_2_1,NA,NA,skipped,NA,998545.80000007,NA,NA,998544.575,998545.89999998,2023-11-11T07:01:29Z,998561.229,NULL,Aufstand,ugomaji,d,NA,NA,NA,NA,sdf,NA,5,NA,NA,NA,NA,NA,NA,NA,NA,NA,NA,NA,NA,NA,NA,NA,NA,NA,NA,NA
6786d,task,flow.Sequence,3_0_5_0_2,NA,NA,completion,12183.171,986346.20000005,986344.677,986361.404,998544.575,998546,2023-11-11T07:01:29Z,998561.229,NULL,Aufstand,ugomaji,d,NA,NA,NA,NA,sdf,NA,5,NA,NA,NA,NA,NA,NA,NA,NA,NA,NA,NA,NA,NA,NA,NA,NA,NA,NA,NA
6786d,deep,flow.Sequence,3_0_5_0_3_0,NA,NA,skipped,NA,998546,NA,NA,998544.575,998546,2023-11-11T07:01:29Z,998561.229,NULL,Annäherung,maegesho,s,madahili,kujiamini,mapendekezo,NA,sdf,NA,5,NA,NA,NA,NA,NA,NA,NA,NA,NA,NA,NA,NA,NA,NA,NA,NA,NA,NA,NA
6786d,Shallow Question,html.Page,3_0_5_0_3_1_0,NA,NA,form submission,8211.4710000476,998546.10000002,998544.575,998561.229,1006772.7,1006772.8000001,2023-11-11T07:01:38Z,1006777.88,NULL,Annäherung,maegesho,s,madahili,kujiamini,mapendekezo,madahili,NA,NA,5,NA,NA,NA,NA,NA,NA,NA,NA,NA,NA,NA,NA,NA,NA,NA,NA,NA,NA,NA
6786d,"""Richtig""-Screen",canvas.Screen,3_0_5_0_3_1_1,NA,NA,skipped,NA,1006773.8000001,NA,NA,1006772.7,1006773.8000001,2023-11-11T07:01:38Z,1006777.88,NULL,Annäherung,maegesho,s,madahili,kujiamini,mapendekezo,NA,sdf,NA,5,NA,NA,NA,NA,NA,NA,NA,NA,NA,NA,NA,NA,NA,NA,NA,NA,NA,NA,NA
6786d,"""Falsch""-Screen",canvas.Screen,3_0_5_0_3_1_2,NA,NA,timeout,4999.974,1006774.2,1006761.312,1006777.88,1011761.276,1011763,2023-11-11T07:01:42Z,1011777.854,NULL,Annäherung,maegesho,s,madahili,kujiamini,mapendekezo,NA,sdf,0,5,NA,NA,NA,NA,NA,NA,NA,NA,NA,NA,NA,NA,NA,NA,NA,NA,NA,NA,NA
6786d,shallow,flow.Sequence,3_0_5_0_3_1,NA,NA,completion,13200.047,998546.10000002,998544.575,998561.229,1011761.276,1011763.1,2023-11-11T07:01:42Z,1011777.854,NULL,Annäherung,maegesho,s,madahili,kujiamini,mapendekezo,NA,sdf,NA,5,NA,NA,NA,NA,NA,NA,NA,NA,NA,NA,NA,NA,NA,NA,NA,NA,NA,NA,NA
6786d,task,flow.Sequence,3_0_5_0_3,NA,NA,completion,13200.047,998546,998544.575,998561.229,1011761.276,1011763.1,2023-11-11T07:01:42Z,1011777.854,NULL,Annäherung,maegesho,s,madahili,kujiamini,mapendekezo,NA,sdf,NA,5,NA,NA,NA,NA,NA,NA,NA,NA,NA,NA,NA,NA,NA,NA,NA,NA,NA,NA,NA
6786d,deep,flow.Sequence,3_0_5_0_4_0,NA,NA,skipped,NA,1011763.1,NA,NA,1011761.276,1011763.1,2023-11-11T07:01:42Z,1011777.854,NULL,Sympathie,mapendano,s,dhamiria,fungamano,maazimio,NA,sdf,NA,5,NA,NA,NA,NA,NA,NA,NA,NA,NA,NA,NA,NA,NA,NA,NA,NA,NA,NA,NA
6786d,Shallow Question,html.Page,3_0_5_0_4_1_0,NA,NA,form submission,5809.0459999761,1011763.2,1011761.276,1011777.854,1017586.9,1017587,2023-11-11T07:01:48Z,1017594.509,NULL,Sympathie,mapendano,s,dhamiria,fungamano,maazimio,dhamiria,NA,NA,5,NA,NA,NA,NA,NA,NA,NA,NA,NA,NA,NA,NA,NA,NA,NA,NA,NA,NA,NA
6786d,"""Richtig""-Screen",canvas.Screen,3_0_5_0_4_1_1,NA,NA,skipped,NA,1017588.2,NA,NA,1017586.9,1017588.2,2023-11-11T07:01:48Z,1017594.509,NULL,Sympathie,mapendano,s,dhamiria,fungamano,maazimio,NA,sdf,NA,5,NA,NA,NA,NA,NA,NA,NA,NA,NA,NA,NA,NA,NA,NA,NA,NA,NA,NA,NA
6786d,"""Falsch""-Screen",canvas.Screen,3_0_5_0_4_1_2,NA,NA,timeout,5000.077,1017588.5,1017578.01,1017594.509,1022578.008,1022579.4,2023-11-11T07:01:53Z,1022594.586,NULL,Sympathie,mapendano,s,dhamiria,fungamano,maazimio,NA,sdf,0,5,NA,NA,NA,NA,NA,NA,NA,NA,NA,NA,NA,NA,NA,NA,NA,NA,NA,NA,NA
6786d,shallow,flow.Sequence,3_0_5_0_4_1,NA,NA,completion,10800.154,1011763.2,1011761.276,1011777.854,1022578.008,1022579.4,2023-11-11T07:01:53Z,1022594.586,NULL,Sympathie,mapendano,s,dhamiria,fungamano,maazimio,NA,sdf,NA,5,NA,NA,NA,NA,NA,NA,NA,NA,NA,NA,NA,NA,NA,NA,NA,NA,NA,NA,NA
6786d,task,flow.Sequence,3_0_5_0_4,NA,NA,completion,10800.154,1011763.1,1011761.276,1011777.854,1022578.008,1022579.5,2023-11-11T07:01:53Z,1022594.586,NULL,Sympathie,mapendano,s,dhamiria,fungamano,maazimio,NA,sdf,NA,5,NA,NA,NA,NA,NA,NA,NA,NA,NA,NA,NA,NA,NA,NA,NA,NA,NA,NA,NA
6786d,deep,flow.Sequence,3_0_5_0_5_0,NA,NA,skipped,NA,1022579.5,NA,NA,1022578.008,1022579.5,2023-11-11T07:01:53Z,1022594.586,NULL,Verzögerung,kuchelewa,s,mwakilishi,mwanauchumi,jaribio,NA,sdf,NA,5,NA,NA,NA,NA,NA,NA,NA,NA,NA,NA,NA,NA,NA,NA,NA,NA,NA,NA,NA
6786d,Shallow Question,html.Page,3_0_5_0_5_1_0,NA,NA,form submission,5521.2140000715,1022579.5,1022578.008,1022594.586,1028115.8000001,1028116,2023-11-11T07:01:59Z,1028127.976,NULL,Verzögerung,kuchelewa,s,mwakilishi,mwanauchumi,jaribio,kuchelewa,NA,NA,5,NA,NA,NA,NA,NA,NA,NA,NA,NA,NA,NA,NA,NA,NA,NA,NA,NA,NA,NA
6786d,"""Richtig""-Screen",canvas.Screen,3_0_5_0_5_1_1,NA,NA,timeout,5000.012,1028117,1028111.736,1028127.976,1033111.386,1033112.8000001,2023-11-11T07:02:04Z,1033127.988,NULL,Verzögerung,kuchelewa,s,mwakilishi,mwanauchumi,jaribio,NA,sdf,1,5,NA,NA,NA,NA,NA,NA,NA,NA,NA,NA,NA,NA,NA,NA,NA,NA,NA,NA,NA
6786d,"""Falsch""-Screen",canvas.Screen,3_0_5_0_5_1_2,NA,NA,skipped,NA,1033113.8000001,NA,NA,1033111.386,1033113.9,2023-11-11T07:02:04Z,1033127.988,NULL,Verzögerung,kuchelewa,s,mwakilishi,mwanauchumi,jaribio,NA,sdf,NA,5,NA,NA,NA,NA,NA,NA,NA,NA,NA,NA,NA,NA,NA,NA,NA,NA,NA,NA,NA
6786d,shallow,flow.Sequence,3_0_5_0_5_1,NA,NA,completion,10516.8,1022579.5,1022578.008,1022594.586,1033111.386,1033113.9,2023-11-11T07:02:04Z,1033127.988,NULL,Verzögerung,kuchelewa,s,mwakilishi,mwanauchumi,jaribio,NA,sdf,NA,5,NA,NA,NA,NA,NA,NA,NA,NA,NA,NA,NA,NA,NA,NA,NA,NA,NA,NA,NA
6786d,task,flow.Sequence,3_0_5_0_5,NA,NA,completion,10516.8,1022579.5,1022578.008,1022594.586,1033111.386,1033114,2023-11-11T07:02:04Z,1033127.988,NULL,Verzögerung,kuchelewa,s,mwakilishi,mwanauchumi,jaribio,NA,sdf,NA,5,NA,NA,NA,NA,NA,NA,NA,NA,NA,NA,NA,NA,NA,NA,NA,NA,NA,NA,NA
6786d,deep,flow.Sequence,3_0_5_0_6_0,NA,NA,skipped,NA,1033114,NA,NA,1033111.386,1033114,2023-11-11T07:02:04Z,1033127.988,NULL,Kultur,utamaduni,s,shetani,gerezani,mazingira,NA,sdf,NA,5,NA,NA,NA,NA,NA,NA,NA,NA,NA,NA,NA,NA,NA,NA,NA,NA,NA,NA,NA
6786d,Shallow Question,html.Page,3_0_5_0_6_1_0,NA,NA,form submission,4185.9119999761,1033114.1,1033111.386,1033127.988,1037313.9,1037314,2023-11-11T07:02:08Z,1037327.913,NULL,Kultur,utamaduni,s,shetani,gerezani,mazingira,utamaduni,NA,NA,5,NA,NA,NA,NA,NA,NA,NA,NA,NA,NA,NA,NA,NA,NA,NA,NA,NA,NA,NA
6786d,"""Richtig""-Screen",canvas.Screen,3_0_5_0_6_1_1,NA,NA,timeout,4999.9890000001,1037315,1037311.225,1037327.913,1042311.95,1042313.3000001,2023-11-11T07:02:13Z,1042327.902,NULL,Kultur,utamaduni,s,shetani,gerezani,mazingira,NA,sdf,1,5,NA,NA,NA,NA,NA,NA,NA,NA,NA,NA,NA,NA,NA,NA,NA,NA,NA,NA,NA
6786d,"""Falsch""-Screen",canvas.Screen,3_0_5_0_6_1_2,NA,NA,skipped,NA,1042314.3000001,NA,NA,1042311.95,1042314.4,2023-11-11T07:02:13Z,1042327.902,NULL,Kultur,utamaduni,s,shetani,gerezani,mazingira,NA,sdf,NA,5,NA,NA,NA,NA,NA,NA,NA,NA,NA,NA,NA,NA,NA,NA,NA,NA,NA,NA,NA
6786d,shallow,flow.Sequence,3_0_5_0_6_1,NA,NA,completion,9183.9619999999,1033114.1,1033111.386,1033127.988,1042311.95,1042314.4,2023-11-11T07:02:13Z,1042327.902,NULL,Kultur,utamaduni,s,shetani,gerezani,mazingira,NA,sdf,NA,5,NA,NA,NA,NA,NA,NA,NA,NA,NA,NA,NA,NA,NA,NA,NA,NA,NA,NA,NA
6786d,task,flow.Sequence,3_0_5_0_6,NA,NA,completion,9183.9619999999,1033114,1033111.386,1033127.988,1042311.95,1042314.5,2023-11-11T07:02:13Z,1042327.902,NULL,Kultur,utamaduni,s,shetani,gerezani,mazingira,NA,sdf,NA,5,NA,NA,NA,NA,NA,NA,NA,NA,NA,NA,NA,NA,NA,NA,NA,NA,NA,NA,NA
6786d,Deep Question,html.Page,3_0_5_0_7_0_0,NA,NA,form submission,6596.098,1042314.5,1042311.95,1042327.902,1048924,1048924.1,2023-11-11T07:02:20Z,1048927.737,NULL,Polizist,msongora,d,NA,NA,NA,mhidanau,NA,NA,5,NA,NA,NA,NA,NA,NA,NA,NA,NA,NA,NA,NA,NA,NA,NA,NA,NA,NA,NA
6786d,"""Richtig""-Screen",canvas.Screen,3_0_5_0_7_0_1,NA,NA,skipped,NA,1048925.2,NA,NA,1048924,1048925.2,2023-11-11T07:02:20Z,1048927.737,NULL,Polizist,msongora,d,NA,NA,NA,NA,sdf,NA,5,NA,NA,NA,NA,NA,NA,NA,NA,NA,NA,NA,NA,NA,NA,NA,NA,NA,NA,NA
6786d,"""Falsch""-Screen",canvas.Screen,3_0_5_0_7_0_2,NA,NA,timeout,5000.152,1048925.5,1048911.39,1048927.737,1053911.189,1053912.5,2023-11-11T07:02:25Z,1053927.889,NULL,Polizist,msongora,d,NA,NA,NA,NA,sdf,0,5,NA,NA,NA,NA,NA,NA,NA,NA,NA,NA,NA,NA,NA,NA,NA,NA,NA,NA,NA
6786d,deep,flow.Sequence,3_0_5_0_7_0,NA,NA,completion,11583.287,1042314.5,1042311.95,1042327.902,1053911.189,1053912.5,2023-11-11T07:02:25Z,1053927.889,NULL,Polizist,msongora,d,NA,NA,NA,NA,sdf,NA,5,NA,NA,NA,NA,NA,NA,NA,NA,NA,NA,NA,NA,NA,NA,NA,NA,NA,NA,NA
6786d,shallow,flow.Sequence,3_0_5_0_7_1,NA,NA,skipped,NA,1053912.5,NA,NA,1053911.189,1053912.5,2023-11-11T07:02:25Z,1053927.889,NULL,Polizist,msongora,d,NA,NA,NA,NA,sdf,NA,5,NA,NA,NA,NA,NA,NA,NA,NA,NA,NA,NA,NA,NA,NA,NA,NA,NA,NA,NA
6786d,task,flow.Sequence,3_0_5_0_7,NA,NA,completion,11583.287,1042314.5,1042311.95,1042327.902,1053911.189,1053912.6,2023-11-11T07:02:25Z,1053927.889,NULL,Polizist,msongora,d,NA,NA,NA,NA,sdf,NA,5,NA,NA,NA,NA,NA,NA,NA,NA,NA,NA,NA,NA,NA,NA,NA,NA,NA,NA,NA
6786d,block,flow.Loop,3_0_5_0,NA,NA,completion,100349.806,953549.5,953547.749,953561.383,1053911.189,1053912.7,2023-11-11T07:02:25Z,1053927.889,NULL,NA,NA,NA,NA,NA,NA,NA,sdf,NA,5,NA,NA,NA,NA,NA,NA,NA,NA,NA,NA,NA,NA,NA,NA,NA,NA,NA,NA,NA
6786d,weiter,canvas.Screen,3_0_5_1,sdf,keypress(Space),response,2425.0109999762,1053912.7,1053911.189,1053927.889,1056352.9,1056353.4,2023-11-11T07:02:27Z,1056378.104,NULL,NA,NA,NA,NA,NA,NA,NA,sdf,NA,5,NA,NA,NA,NA,NA,NA,NA,NA,NA,NA,NA,NA,NA,NA,NA,NA,NA,NA,NA
6786d,check continue,flow.Sequence,3_0_5,NA,NA,completion,102791.51699998,953549.5,953547.749,953561.383,1056352.9,1056353.5,2023-11-11T07:02:27Z,1056378.104,NULL,NA,NA,NA,NA,NA,NA,NA,sdf,NA,5,NA,NA,NA,NA,NA,NA,NA,NA,NA,NA,NA,NA,NA,NA,NA,NA,NA,NA,NA
6786d,Deep Question,html.Page,3_0_6_0_0_0_0,NA,NA,form submission,18148.496000024,1056366.1,1056364.829,1056378.104,1074526.6,1074526.6,2023-11-11T07:02:45Z,1074544.578,NULL,Prüfung,mtihani,d,NA,NA,NA,mhitanau,NA,NA,6,NA,NA,NA,NA,NA,NA,NA,NA,NA,NA,NA,NA,NA,NA,NA,NA,NA,NA,NA
6786d,"""Richtig""-Screen",canvas.Screen,3_0_6_0_0_0_1,NA,NA,skipped,NA,1074527.9,NA,NA,1074526.6,1074527.9,2023-11-11T07:02:45Z,1074544.578,NULL,Prüfung,mtihani,d,NA,NA,NA,NA,dfs,NA,6,NA,NA,NA,NA,NA,NA,NA,NA,NA,NA,NA,NA,NA,NA,NA,NA,NA,NA,NA
6786d,"""Falsch""-Screen",canvas.Screen,3_0_6_0_0_0_2,NA,NA,timeout,5000.017,1074528.4,1074527.887,1074544.578,1079527.943,1079529.7,2023-11-11T07:02:50Z,1079544.595,NULL,Prüfung,mtihani,d,NA,NA,NA,NA,dfs,0,6,NA,NA,NA,NA,NA,NA,NA,NA,NA,NA,NA,NA,NA,NA,NA,NA,NA,NA,NA
6786d,deep,flow.Sequence,3_0_6_0_0_0,NA,NA,completion,23149.839,1056366.1,1056364.829,1056378.104,1079527.943,1079529.8000001,2023-11-11T07:02:50Z,1079544.595,NULL,Prüfung,mtihani,d,NA,NA,NA,NA,dfs,NA,6,NA,NA,NA,NA,NA,NA,NA,NA,NA,NA,NA,NA,NA,NA,NA,NA,NA,NA,NA
6786d,shallow,flow.Sequence,3_0_6_0_0_1,NA,NA,skipped,NA,1079529.8000001,NA,NA,1079527.943,1079529.8000001,2023-11-11T07:02:50Z,1079544.595,NULL,Prüfung,mtihani,d,NA,NA,NA,NA,dfs,NA,6,NA,NA,NA,NA,NA,NA,NA,NA,NA,NA,NA,NA,NA,NA,NA,NA,NA,NA,NA
6786d,task,flow.Sequence,3_0_6_0_0,NA,NA,completion,23149.839,1056366,1056364.829,1056378.104,1079527.943,1079529.9,2023-11-11T07:02:50Z,1079544.595,NULL,Prüfung,mtihani,d,NA,NA,NA,NA,dfs,NA,6,NA,NA,NA,NA,NA,NA,NA,NA,NA,NA,NA,NA,NA,NA,NA,NA,NA,NA,NA
6786d,Deep Question,html.Page,3_0_6_0_1_0_0,NA,NA,form submission,16552.505000024,1079529.9,1079527.943,1079544.595,1096097.1,1096097.2,2023-11-11T07:03:07Z,1096111.185,NULL,Beweis,ushahidi,d,NA,NA,NA,dimaji,NA,NA,6,NA,NA,NA,NA,NA,NA,NA,NA,NA,NA,NA,NA,NA,NA,NA,NA,NA,NA,NA
6786d,"""Richtig""-Screen",canvas.Screen,3_0_6_0_1_0_1,NA,NA,skipped,NA,1096098.6,NA,NA,1096097.1,1096098.6,2023-11-11T07:03:07Z,1096111.185,NULL,Beweis,ushahidi,d,NA,NA,NA,NA,dfs,NA,6,NA,NA,NA,NA,NA,NA,NA,NA,NA,NA,NA,NA,NA,NA,NA,NA,NA,NA,NA
6786d,"""Falsch""-Screen",canvas.Screen,3_0_6_0_1_0_2,NA,NA,timeout,5000.0589999999,1096098.9,1096094.587,1096111.185,1101094.611,1101096.1,2023-11-11T07:03:12Z,1101111.244,NULL,Beweis,ushahidi,d,NA,NA,NA,NA,dfs,0,6,NA,NA,NA,NA,NA,NA,NA,NA,NA,NA,NA,NA,NA,NA,NA,NA,NA,NA,NA
6786d,deep,flow.Sequence,3_0_6_0_1_0,NA,NA,completion,21550.016,1079529.9,1079527.943,1079544.595,1101094.611,1101096.2,2023-11-11T07:03:12Z,1101111.244,NULL,Beweis,ushahidi,d,NA,NA,NA,NA,dfs,NA,6,NA,NA,NA,NA,NA,NA,NA,NA,NA,NA,NA,NA,NA,NA,NA,NA,NA,NA,NA
6786d,shallow,flow.Sequence,3_0_6_0_1_1,NA,NA,skipped,NA,1101096.2,NA,NA,1101094.611,1101096.2,2023-11-11T07:03:12Z,1101111.244,NULL,Beweis,ushahidi,d,NA,NA,NA,NA,dfs,NA,6,NA,NA,NA,NA,NA,NA,NA,NA,NA,NA,NA,NA,NA,NA,NA,NA,NA,NA,NA
6786d,task,flow.Sequence,3_0_6_0_1,NA,NA,completion,21550.016,1079529.9,1079527.943,1079544.595,1101094.611,1101096.2,2023-11-11T07:03:12Z,1101111.244,NULL,Beweis,ushahidi,d,NA,NA,NA,NA,dfs,NA,6,NA,NA,NA,NA,NA,NA,NA,NA,NA,NA,NA,NA,NA,NA,NA,NA,NA,NA,NA
6786d,deep,flow.Sequence,3_0_6_0_2_0,NA,NA,skipped,NA,1101096.2,NA,NA,1101094.611,1101096.3000001,2023-11-11T07:03:12Z,1101111.244,NULL,Annäherung,maegesho,s,madahili,kujiamini,mapendekezo,NA,dfs,NA,6,NA,NA,NA,NA,NA,NA,NA,NA,NA,NA,NA,NA,NA,NA,NA,NA,NA,NA,NA
