observation,sender,sender_type,sender_id,response,response_action,ended_on,duration,time_run,time_render,time_show,time_end,time_commit,timestamp,time_switch,distractors,german,swahili,enc,distractor1,distractor2,distractor3,response_2,x,correct,x_2,url_vp,url_sess,meta_labjs_version,meta_location,meta_user_agent,meta_platform,meta_language,meta_locale,meta_time_zone,meta_timezone_offset,meta_screen_width,meta_screen_height,meta_scroll_width,meta_scroll_height,meta_window_inner_width,meta_window_inner_height,meta_device_pixel_ratio,meta_labjs_build_flavor,meta_labjs_build_commit
1f500,Introduction general,canvas.Screen,0,weiter,keypress(q),response,8811.198,1061.8999999762,373.082,1090.302,9901.5,9904.1999999881,2023-11-24T16:44:43Z,9913.056,NULL,NA,NA,NA,NA,NA,NA,NA,NA,NA,NA,190,3,20.2.4,https://neurocog.fernuni.ch/studies/vweber/sliechti/encoding_immediate/index.html?vp=190&sess=3,"Mozilla/5.0 (Windows NT 10.0; Win64; x64) AppleWebKit/537.36 (KHTML, like Gecko) Chrome/119.0.0.0 Safari/537.36 Edg/119.0.0.0",Win32,de,de-CH,Europe/Zurich,-60,1368,912,1360,742,1360,790,2,production,f5b4a49f956347addd546a832a3327688c2c0fef
1f500,Introduction practice,canvas.Screen,1_0,NA,keypress(Space),response,5878.5439999642,9904.7999999523,9894.281,9913.056,15791.599999964,15793.199999988,2023-11-24T16:44:49Z,15802.693,NULL,NA,NA,NA,NA,NA,NA,NA,NA,NA,NA,NA,NA,NA,NA,NA,NA,NA,NA,NA,NA,NA,NA,NA,NA,NA,NA,NA,NA,NA
1f500,Deep Question,html.Page,1_1_0_0_0,NA,NA,form submission,5233.2069999762,15794,15780.61,15802.693,21035.899999976,21036.399999976,2023-11-24T16:44:54Z,21070.89,"c(""distractor1"", ""distractor2"", ""distractor3"")",Gesundheit,salama,d,NA,NA,NA,k,NA,NA,NA,NA,NA,NA,NA,NA,NA,NA,NA,NA,NA,NA,NA,NA,NA,NA,NA,NA,NA,NA
1f500,"""Richtig""-Screen",canvas.Screen,1_1_0_0_1,NA,NA,skipped,NA,21039.299999952,NA,NA,21035.899999976,21039.799999952,2023-11-24T16:44:55Z,21070.89,"c(""distractor1"", ""distractor2"", ""distractor3"")",Gesundheit,salama,d,NA,NA,NA,NA,NA,NA,NA,NA,NA,NA,NA,NA,NA,NA,NA,NA,NA,NA,NA,NA,NA,NA,NA,NA,NA,NA
1f500,"""Falsch""-Screen",canvas.Screen,1_1_0_0_2,NA,NA,timeout,5006.954,21042.399999976,21021.064,21070.89,26057.78,26062.199999988,2023-11-24T16:45:00Z,26077.844,"c(""distractor1"", ""distractor2"", ""distractor3"")",Gesundheit,salama,d,NA,NA,NA,NA,NA,0,NA,NA,NA,NA,NA,NA,NA,NA,NA,NA,NA,NA,NA,NA,NA,NA,NA,NA,NA,NA
1f500,deep,flow.Sequence,1_1_0_0,NA,NA,completion,10255.087,15794,15780.61,15802.693,26057.78,26064.699999988,2023-11-24T16:45:00Z,26077.844,"c(""distractor1"", ""distractor2"", ""distractor3"")",Gesundheit,salama,d,NA,NA,NA,NA,NA,NA,NA,NA,NA,NA,NA,NA,NA,NA,NA,NA,NA,NA,NA,NA,NA,NA,NA,NA,NA,NA
1f500,shallow,flow.Sequence,1_1_0_1,NA,NA,skipped,NA,26065,NA,NA,26057.78,26065.299999952,2023-11-24T16:45:00Z,26077.844,"c(""distractor1"", ""distractor2"", ""distractor3"")",Gesundheit,salama,d,NA,NA,NA,NA,NA,NA,NA,NA,NA,NA,NA,NA,NA,NA,NA,NA,NA,NA,NA,NA,NA,NA,NA,NA,NA,NA
1f500,task,flow.Sequence,1_1_0,NA,NA,completion,10255.087,15794,15780.61,15802.693,26057.78,26065.799999952,2023-11-24T16:45:00Z,26077.844,"c(""distractor1"", ""distractor2"", ""distractor3"")",Gesundheit,salama,d,NA,NA,NA,NA,NA,NA,NA,NA,NA,NA,NA,NA,NA,NA,NA,NA,NA,NA,NA,NA,NA,NA,NA,NA,NA,NA
1f500,deep,flow.Sequence,1_1_1_0,NA,NA,skipped,NA,26066.099999964,NA,NA,26057.78,26066.5,2023-11-24T16:45:00Z,26077.844,"c(""distractor1"", ""distractor2"", ""distractor3"")",Rückhalt,msaada,s,muhula,auwali,kiwimbe,NA,NA,NA,NA,NA,NA,NA,NA,NA,NA,NA,NA,NA,NA,NA,NA,NA,NA,NA,NA,NA,NA,NA
1f500,Shallow Question,html.Page,1_1_1_1_0,NA,NA,form submission,4269.656,26067,26057.78,26077.844,30347.5,30348,2023-11-24T16:45:04Z,30360.665,"c(""distractor1"", ""distractor2"", ""distractor3"")",Rückhalt,msaada,s,muhula,auwali,kiwimbe,kiwimbe,NA,NA,NA,NA,NA,NA,NA,NA,NA,NA,NA,NA,NA,NA,NA,NA,NA,NA,NA,NA,NA,NA
1f500,"""Richtig""-Screen",canvas.Screen,1_1_1_1_1,NA,NA,skipped,NA,30349.799999952,NA,NA,30347.5,30350.199999988,2023-11-24T16:45:04Z,30360.665,"c(""distractor1"", ""distractor2"", ""distractor3"")",Rückhalt,msaada,s,muhula,auwali,kiwimbe,NA,NA,NA,NA,NA,NA,NA,NA,NA,NA,NA,NA,NA,NA,NA,NA,NA,NA,NA,NA,NA,NA,NA
1f500,"""Falsch""-Screen",canvas.Screen,1_1_1_1_2,NA,NA,timeout,5003.477,30351.599999964,30344.149,30360.665,35347.841,35349.299999952,2023-11-24T16:45:09Z,35364.142,"c(""distractor1"", ""distractor2"", ""distractor3"")",Rückhalt,msaada,s,muhula,auwali,kiwimbe,NA,NA,0,NA,NA,NA,NA,NA,NA,NA,NA,NA,NA,NA,NA,NA,NA,NA,NA,NA,NA,NA,NA
1f500,shallow,flow.Sequence,1_1_1_1,NA,NA,completion,9269.997,26066.799999952,26057.78,26077.844,35347.841,35349.799999952,2023-11-24T16:45:09Z,35364.142,"c(""distractor1"", ""distractor2"", ""distractor3"")",Rückhalt,msaada,s,muhula,auwali,kiwimbe,NA,NA,NA,NA,NA,NA,NA,NA,NA,NA,NA,NA,NA,NA,NA,NA,NA,NA,NA,NA,NA,NA,NA
1f500,task,flow.Sequence,1_1_1,NA,NA,completion,9269.997,26066,26057.78,26077.844,35347.841,35350.199999988,2023-11-24T16:45:09Z,35364.142,"c(""distractor1"", ""distractor2"", ""distractor3"")",Rückhalt,msaada,s,muhula,auwali,kiwimbe,NA,NA,NA,NA,NA,NA,NA,NA,NA,NA,NA,NA,NA,NA,NA,NA,NA,NA,NA,NA,NA,NA,NA
1f500,Deep Question,html.Page,1_1_2_0_0,NA,NA,form submission,2122.2579999762,35350.5,35347.841,35364.142,37486.399999976,37486.899999976,2023-11-24T16:45:11Z,37499.008,"c(""distractor1"", ""distractor2"", ""distractor3"")",Qualität,mtindo,d,NA,NA,NA,h,NA,NA,NA,NA,NA,NA,NA,NA,NA,NA,NA,NA,NA,NA,NA,NA,NA,NA,NA,NA,NA,NA
1f500,"""Richtig""-Screen",canvas.Screen,1_1_2_0_1,NA,NA,skipped,NA,37488.699999988,NA,NA,37486.399999976,37488.899999976,2023-11-24T16:45:11Z,37499.008,"c(""distractor1"", ""distractor2"", ""distractor3"")",Qualität,mtindo,d,NA,NA,NA,NA,NA,NA,NA,NA,NA,NA,NA,NA,NA,NA,NA,NA,NA,NA,NA,NA,NA,NA,NA,NA,NA,NA
1f500,"""Falsch""-Screen",canvas.Screen,1_1_2_0_2,NA,NA,timeout,5003.434,37490.199999988,37482.282,37499.008,42486.918,42488.5,2023-11-24T16:45:16Z,42502.442,"c(""distractor1"", ""distractor2"", ""distractor3"")",Qualität,mtindo,d,NA,NA,NA,NA,NA,0,NA,NA,NA,NA,NA,NA,NA,NA,NA,NA,NA,NA,NA,NA,NA,NA,NA,NA,NA,NA
1f500,deep,flow.Sequence,1_1_2_0,NA,NA,completion,7122.776,35350.5,35347.841,35364.142,42486.918,42488.899999976,2023-11-24T16:45:16Z,42502.442,"c(""distractor1"", ""distractor2"", ""distractor3"")",Qualität,mtindo,d,NA,NA,NA,NA,NA,NA,NA,NA,NA,NA,NA,NA,NA,NA,NA,NA,NA,NA,NA,NA,NA,NA,NA,NA,NA,NA
1f500,shallow,flow.Sequence,1_1_2_1,NA,NA,skipped,NA,42488.899999976,NA,NA,42486.918,42489.099999964,2023-11-24T16:45:16Z,42502.442,"c(""distractor1"", ""distractor2"", ""distractor3"")",Qualität,mtindo,d,NA,NA,NA,NA,NA,NA,NA,NA,NA,NA,NA,NA,NA,NA,NA,NA,NA,NA,NA,NA,NA,NA,NA,NA,NA,NA
1f500,task,flow.Sequence,1_1_2,NA,NA,completion,7122.776,35350.399999976,35347.841,35364.142,42486.918,42489.299999952,2023-11-24T16:45:16Z,42502.442,"c(""distractor1"", ""distractor2"", ""distractor3"")",Qualität,mtindo,d,NA,NA,NA,NA,NA,NA,NA,NA,NA,NA,NA,NA,NA,NA,NA,NA,NA,NA,NA,NA,NA,NA,NA,NA,NA,NA
1f500,deep,flow.Sequence,1_1_3_0,NA,NA,skipped,NA,42489.5,NA,NA,42486.918,42489.599999964,2023-11-24T16:45:16Z,42502.442,"c(""distractor1"", ""distractor2"", ""distractor3"")",Gegenwart,hadhara,s,katiba,jokofu,mikopo,NA,NA,NA,NA,NA,NA,NA,NA,NA,NA,NA,NA,NA,NA,NA,NA,NA,NA,NA,NA,NA,NA,NA
1f500,Shallow Question,html.Page,1_1_3_1_0,NA,NA,form submission,6818.1579999642,42489.599999964,42486.918,42502.442,49320.599999964,49321.099999964,2023-11-24T16:45:23Z,49323.88,"c(""distractor1"", ""distractor2"", ""distractor3"")",Gegenwart,hadhara,s,katiba,jokofu,mikopo,mikopo,NA,NA,NA,NA,NA,NA,NA,NA,NA,NA,NA,NA,NA,NA,NA,NA,NA,NA,NA,NA,NA,NA
1f500,"""Richtig""-Screen",canvas.Screen,1_1_3_1_1,NA,NA,skipped,NA,49322.899999976,NA,NA,49320.599999964,49323.199999988,2023-11-24T16:45:23Z,49323.88,"c(""distractor1"", ""distractor2"", ""distractor3"")",Gegenwart,hadhara,s,katiba,jokofu,mikopo,NA,NA,NA,NA,NA,NA,NA,NA,NA,NA,NA,NA,NA,NA,NA,NA,NA,NA,NA,NA,NA,NA,NA
1f500,"""Falsch""-Screen",canvas.Screen,1_1_3_1_2,NA,NA,timeout,5003.57,49326.699999988,49307.362,49323.88,54311.128,54312.599999964,2023-11-24T16:45:28Z,54327.45,"c(""distractor1"", ""distractor2"", ""distractor3"")",Gegenwart,hadhara,s,katiba,jokofu,mikopo,NA,NA,0,NA,NA,NA,NA,NA,NA,NA,NA,NA,NA,NA,NA,NA,NA,NA,NA,NA,NA,NA,NA
1f500,shallow,flow.Sequence,1_1_3_1,NA,NA,completion,11808.686,42489.599999964,42486.918,42502.442,54311.128,54312.899999976,2023-11-24T16:45:28Z,54327.45,"c(""distractor1"", ""distractor2"", ""distractor3"")",Gegenwart,hadhara,s,katiba,jokofu,mikopo,NA,NA,NA,NA,NA,NA,NA,NA,NA,NA,NA,NA,NA,NA,NA,NA,NA,NA,NA,NA,NA,NA,NA
1f500,task,flow.Sequence,1_1_3,NA,NA,completion,11808.686,42489.399999976,42486.918,42502.442,54311.128,54313.099999964,2023-11-24T16:45:28Z,54327.45,"c(""distractor1"", ""distractor2"", ""distractor3"")",Gegenwart,hadhara,s,katiba,jokofu,mikopo,NA,NA,NA,NA,NA,NA,NA,NA,NA,NA,NA,NA,NA,NA,NA,NA,NA,NA,NA,NA,NA,NA,NA
1f500,deep,flow.Sequence,1_1_4_0,NA,NA,skipped,NA,54313.199999988,NA,NA,54311.128,54313.399999976,2023-11-24T16:45:28Z,54327.45,"c(""distractor1"", ""distractor2"", ""distractor3"")",Kritik,lawama,s,dereva,nafasi,mawazo,NA,NA,NA,NA,NA,NA,NA,NA,NA,NA,NA,NA,NA,NA,NA,NA,NA,NA,NA,NA,NA,NA,NA
1f500,Shallow Question,html.Page,1_1_4_1_0,NA,NA,form submission,5745.1499999642,54313.5,54311.128,54327.45,60072.599999964,60073.099999964,2023-11-24T16:45:34Z,60081.398,"c(""distractor1"", ""distractor2"", ""distractor3"")",Kritik,lawama,s,dereva,nafasi,mawazo,dereva,NA,NA,NA,NA,NA,NA,NA,NA,NA,NA,NA,NA,NA,NA,NA,NA,NA,NA,NA,NA,NA,NA
1f500,"""Richtig""-Screen",canvas.Screen,1_1_4_1_1,NA,NA,skipped,NA,60074.399999976,NA,NA,60072.599999964,60074.599999964,2023-11-24T16:45:34Z,60081.398,"c(""distractor1"", ""distractor2"", ""distractor3"")",Kritik,lawama,s,dereva,nafasi,mawazo,NA,NA,NA,NA,NA,NA,NA,NA,NA,NA,NA,NA,NA,NA,NA,NA,NA,NA,NA,NA,NA,NA,NA
1f500,"""Falsch""-Screen",canvas.Screen,1_1_4_1_2,NA,NA,timeout,5003.881,60075.799999952,60064.819,60081.398,65068.594,65070.199999988,2023-11-24T16:45:39Z,65085.279,"c(""distractor1"", ""distractor2"", ""distractor3"")",Kritik,lawama,s,dereva,nafasi,mawazo,NA,NA,0,NA,NA,NA,NA,NA,NA,NA,NA,NA,NA,NA,NA,NA,NA,NA,NA,NA,NA,NA,NA
1f500,shallow,flow.Sequence,1_1_4_1,NA,NA,completion,10741.144,54313.5,54311.128,54327.45,65068.594,65070.599999964,2023-11-24T16:45:39Z,65085.279,"c(""distractor1"", ""distractor2"", ""distractor3"")",Kritik,lawama,s,dereva,nafasi,mawazo,NA,NA,NA,NA,NA,NA,NA,NA,NA,NA,NA,NA,NA,NA,NA,NA,NA,NA,NA,NA,NA,NA,NA
1f500,task,flow.Sequence,1_1_4,NA,NA,completion,10741.144,54313.199999988,54311.128,54327.45,65068.594,65070.799999952,2023-11-24T16:45:39Z,65085.279,"c(""distractor1"", ""distractor2"", ""distractor3"")",Kritik,lawama,s,dereva,nafasi,mawazo,NA,NA,NA,NA,NA,NA,NA,NA,NA,NA,NA,NA,NA,NA,NA,NA,NA,NA,NA,NA,NA,NA,NA
1f500,Deep Question,html.Page,1_1_5_0_0,NA,NA,form submission,4219.3209999642,65071,65068.594,65085.279,69304.599999964,69305.099999964,2023-11-24T16:45:43Z,69324.719,"c(""distractor1"", ""distractor2"", ""distractor3"")",Schatten,kivuli,d,NA,NA,NA,h,NA,NA,NA,NA,NA,NA,NA,NA,NA,NA,NA,NA,NA,NA,NA,NA,NA,NA,NA,NA,NA,NA
1f500,"""Richtig""-Screen",canvas.Screen,1_1_5_0_1,NA,NA,skipped,NA,69311.099999964,NA,NA,69304.599999964,69311.5,2023-11-24T16:45:43Z,69324.719,"c(""distractor1"", ""distractor2"", ""distractor3"")",Schatten,kivuli,d,NA,NA,NA,NA,NA,NA,NA,NA,NA,NA,NA,NA,NA,NA,NA,NA,NA,NA,NA,NA,NA,NA,NA,NA,NA,NA
1f500,"""Falsch""-Screen",canvas.Screen,1_1_5_0_2,NA,NA,timeout,4999.943,69313.199999988,69288.543,69324.719,74308.422,74309.799999952,2023-11-24T16:45:48Z,74324.662,"c(""distractor1"", ""distractor2"", ""distractor3"")",Schatten,kivuli,d,NA,NA,NA,NA,NA,0,NA,NA,NA,NA,NA,NA,NA,NA,NA,NA,NA,NA,NA,NA,NA,NA,NA,NA,NA,NA
1f500,deep,flow.Sequence,1_1_5_0,NA,NA,completion,9223.143,65070.899999976,65068.594,65085.279,74308.422,74310.199999988,2023-11-24T16:45:48Z,74324.662,"c(""distractor1"", ""distractor2"", ""distractor3"")",Schatten,kivuli,d,NA,NA,NA,NA,NA,NA,NA,NA,NA,NA,NA,NA,NA,NA,NA,NA,NA,NA,NA,NA,NA,NA,NA,NA,NA,NA
1f500,shallow,flow.Sequence,1_1_5_1,NA,NA,skipped,NA,74310.299999952,NA,NA,74308.422,74310.399999976,2023-11-24T16:45:48Z,74324.662,"c(""distractor1"", ""distractor2"", ""distractor3"")",Schatten,kivuli,d,NA,NA,NA,NA,NA,NA,NA,NA,NA,NA,NA,NA,NA,NA,NA,NA,NA,NA,NA,NA,NA,NA,NA,NA,NA,NA
1f500,task,flow.Sequence,1_1_5,NA,NA,completion,9223.143,65070.899999976,65068.594,65085.279,74308.422,74310.599999964,2023-11-24T16:45:48Z,74324.662,"c(""distractor1"", ""distractor2"", ""distractor3"")",Schatten,kivuli,d,NA,NA,NA,NA,NA,NA,NA,NA,NA,NA,NA,NA,NA,NA,NA,NA,NA,NA,NA,NA,NA,NA,NA,NA,NA,NA
1f500,block,flow.Loop,1_1,NA,NA,completion,58505.729,15793.899999976,15780.61,15802.693,74308.422,74310.799999952,2023-11-24T16:45:48Z,74324.662,"c(""distractor1"", ""distractor2"", ""distractor3"")",NA,NA,NA,NA,NA,NA,NA,NA,NA,NA,NA,NA,NA,NA,NA,NA,NA,NA,NA,NA,NA,NA,NA,NA,NA,NA,NA,NA,NA
1f500,Practice,flow.Sequence,1,NA,NA,completion,64395.366,9904.6999999881,9894.281,9913.056,74308.422,74310.899999976,2023-11-24T16:45:48Z,74324.662,NULL,NA,NA,NA,NA,NA,NA,NA,NA,NA,NA,NA,NA,NA,NA,NA,NA,NA,NA,NA,NA,NA,NA,NA,NA,NA,NA,NA,NA,NA
1f500,Experiment start,canvas.Screen,2,weiter,keypress(q),response,28079.937999964,74311.099999964,74308.422,74324.662,102404.59999996,102410.39999998,2023-11-24T16:46:16Z,102561.053,NULL,NA,NA,NA,NA,NA,NA,NA,NA,NA,NA,NA,NA,NA,NA,NA,NA,NA,NA,NA,NA,NA,NA,NA,NA,NA,NA,NA,NA,NA
1f500,Deep Question,html.Page,3_0_0_0_0_0_0,NA,NA,form submission,12755.846999976,102550,102542.145,102561.053,115316.89999998,115317.39999998,2023-11-24T16:46:29Z,115319.916,NULL,Sympathie,mapendano,d,NA,NA,NA,h,NA,NA,0,NA,NA,NA,NA,NA,NA,NA,NA,NA,NA,NA,NA,NA,NA,NA,NA,NA,NA,NA
1f500,"""Richtig""-Screen",canvas.Screen,3_0_0_0_0_0_1,NA,NA,skipped,NA,115322.5,NA,NA,115316.89999998,115322.89999998,2023-11-24T16:46:29Z,115319.916,NULL,Sympathie,mapendano,d,NA,NA,NA,NA,sdf,NA,0,NA,NA,NA,NA,NA,NA,NA,NA,NA,NA,NA,NA,NA,NA,NA,NA,NA,NA,NA
1f500,"""Falsch""-Screen",canvas.Screen,3_0_0_0_0_0_2,NA,NA,timeout,5003.6,115324.39999998,115303.64,115319.916,120306.812,120307.69999999,2023-11-24T16:46:34Z,120323.516,NULL,Sympathie,mapendano,d,NA,NA,NA,NA,sdf,0,0,NA,NA,NA,NA,NA,NA,NA,NA,NA,NA,NA,NA,NA,NA,NA,NA,NA,NA,NA
1f500,deep,flow.Sequence,3_0_0_0_0_0,NA,NA,completion,17745.759,102550,102542.145,102561.053,120306.812,120308,2023-11-24T16:46:34Z,120323.516,NULL,Sympathie,mapendano,d,NA,NA,NA,NA,sdf,NA,0,NA,NA,NA,NA,NA,NA,NA,NA,NA,NA,NA,NA,NA,NA,NA,NA,NA,NA,NA
1f500,shallow,flow.Sequence,3_0_0_0_0_1,NA,NA,skipped,NA,120308.19999999,NA,NA,120306.812,120308.29999995,2023-11-24T16:46:34Z,120323.516,NULL,Sympathie,mapendano,d,NA,NA,NA,NA,sdf,NA,0,NA,NA,NA,NA,NA,NA,NA,NA,NA,NA,NA,NA,NA,NA,NA,NA,NA,NA,NA
1f500,task,flow.Sequence,3_0_0_0_0,NA,NA,completion,17745.759,102549.89999998,102542.145,102561.053,120306.812,120308.29999995,2023-11-24T16:46:34Z,120323.516,NULL,Sympathie,mapendano,d,NA,NA,NA,NA,sdf,NA,0,NA,NA,NA,NA,NA,NA,NA,NA,NA,NA,NA,NA,NA,NA,NA,NA,NA,NA,NA
1f500,Deep Question,html.Page,3_0_0_0_1_0_0,NA,NA,form submission,5233.3839999762,120308.5,120306.812,120323.516,125556.89999998,125557.5,2023-11-24T16:46:39Z,125577.058,NULL,Annäherung,maegesho,d,NA,NA,NA,k,NA,NA,0,NA,NA,NA,NA,NA,NA,NA,NA,NA,NA,NA,NA,NA,NA,NA,NA,NA,NA,NA
1f500,"""Richtig""-Screen",canvas.Screen,3_0_0_0_1_0_1,NA,NA,skipped,NA,125562.19999999,NA,NA,125556.89999998,125562.5,2023-11-24T16:46:39Z,125577.058,NULL,Annäherung,maegesho,d,NA,NA,NA,NA,sdf,NA,0,NA,NA,NA,NA,NA,NA,NA,NA,NA,NA,NA,NA,NA,NA,NA,NA,NA,NA,NA
1f500,"""Falsch""-Screen",canvas.Screen,3_0_0_0_1_0_2,NA,NA,timeout,5003.564,125565.5,125544.165,125577.058,130564.283,130566.29999995,2023-11-24T16:46:44Z,130580.622,NULL,Annäherung,maegesho,d,NA,NA,NA,NA,sdf,0,0,NA,NA,NA,NA,NA,NA,NA,NA,NA,NA,NA,NA,NA,NA,NA,NA,NA,NA,NA
1f500,deep,flow.Sequence,3_0_0_0_1_0,NA,NA,completion,10240.767,120308.39999998,120306.812,120323.516,130564.283,130567,2023-11-24T16:46:44Z,130580.622,NULL,Annäherung,maegesho,d,NA,NA,NA,NA,sdf,NA,0,NA,NA,NA,NA,NA,NA,NA,NA,NA,NA,NA,NA,NA,NA,NA,NA,NA,NA,NA
1f500,shallow,flow.Sequence,3_0_0_0_1_1,NA,NA,skipped,NA,130567.39999998,NA,NA,130564.283,130567.59999996,2023-11-24T16:46:44Z,130580.622,NULL,Annäherung,maegesho,d,NA,NA,NA,NA,sdf,NA,0,NA,NA,NA,NA,NA,NA,NA,NA,NA,NA,NA,NA,NA,NA,NA,NA,NA,NA,NA
1f500,task,flow.Sequence,3_0_0_0_1,NA,NA,completion,10240.767,120308.39999998,120306.812,120323.516,130564.283,130568,2023-11-24T16:46:44Z,130580.622,NULL,Annäherung,maegesho,d,NA,NA,NA,NA,sdf,NA,0,NA,NA,NA,NA,NA,NA,NA,NA,NA,NA,NA,NA,NA,NA,NA,NA,NA,NA,NA
1f500,deep,flow.Sequence,3_0_0_0_2_0,NA,NA,skipped,NA,130568.19999999,NA,NA,130564.283,130568.39999998,2023-11-24T16:46:44Z,130580.622,NULL,Aufstand,ugomaji,s,mazidio,msingi,kujieleza,NA,sdf,NA,0,NA,NA,NA,NA,NA,NA,NA,NA,NA,NA,NA,NA,NA,NA,NA,NA,NA,NA,NA
1f500,Shallow Question,html.Page,3_0_0_0_2_1_0,NA,NA,form submission,9434.6779999523,130568.59999996,130564.283,130580.622,140015.29999995,140015.89999998,2023-11-24T16:46:53Z,140023.985,NULL,Aufstand,ugomaji,s,mazidio,msingi,kujieleza,mazidio,NA,NA,0,NA,NA,NA,NA,NA,NA,NA,NA,NA,NA,NA,NA,NA,NA,NA,NA,NA,NA,NA
1f500,"""Richtig""-Screen",canvas.Screen,3_0_0_0_2_1_1,NA,NA,skipped,NA,140021.09999996,NA,NA,140015.29999995,140021.39999998,2023-11-24T16:46:53Z,140023.985,NULL,Aufstand,ugomaji,s,mazidio,msingi,kujieleza,NA,sdf,NA,0,NA,NA,NA,NA,NA,NA,NA,NA,NA,NA,NA,NA,NA,NA,NA,NA,NA,NA,NA
1f500,"""Falsch""-Screen",canvas.Screen,3_0_0_0_2_1_2,NA,NA,timeout,5000.033,140023.29999995,140004.052,140023.985,145007.372,145008.59999996,2023-11-24T16:46:58Z,145024.018,NULL,Aufstand,ugomaji,s,mazidio,msingi,kujieleza,NA,sdf,0,0,NA,NA,NA,NA,NA,NA,NA,NA,NA,NA,NA,NA,NA,NA,NA,NA,NA,NA,NA
1f500,shallow,flow.Sequence,3_0_0_0_2_1,NA,NA,completion,14426.75,130568.5,130564.283,130580.622,145007.372,145009,2023-11-24T16:46:58Z,145024.018,NULL,Aufstand,ugomaji,s,mazidio,msingi,kujieleza,NA,sdf,NA,0,NA,NA,NA,NA,NA,NA,NA,NA,NA,NA,NA,NA,NA,NA,NA,NA,NA,NA,NA
1f500,task,flow.Sequence,3_0_0_0_2,NA,NA,completion,14426.75,130568.09999996,130564.283,130580.622,145007.372,145009.29999995,2023-11-24T16:46:58Z,145024.018,NULL,Aufstand,ugomaji,s,mazidio,msingi,kujieleza,NA,sdf,NA,0,NA,NA,NA,NA,NA,NA,NA,NA,NA,NA,NA,NA,NA,NA,NA,NA,NA,NA,NA
1f500,deep,flow.Sequence,3_0_0_0_3_0,NA,NA,skipped,NA,145009.5,NA,NA,145007.372,145009.59999996,2023-11-24T16:46:58Z,145024.018,NULL,Polizist,msongora,s,simanzi,mandhari,nidhamu,NA,sdf,NA,0,NA,NA,NA,NA,NA,NA,NA,NA,NA,NA,NA,NA,NA,NA,NA,NA,NA,NA,NA
1f500,Shallow Question,html.Page,3_0_0_0_3_1_0,NA,NA,form submission,10615.881999976,145009.79999995,145007.372,145024.018,155639.89999998,155640.29999995,2023-11-24T16:47:09Z,155648.039,NULL,Polizist,msongora,s,simanzi,mandhari,nidhamu,simanzi,NA,NA,0,NA,NA,NA,NA,NA,NA,NA,NA,NA,NA,NA,NA,NA,NA,NA,NA,NA,NA,NA
1f500,"""Richtig""-Screen",canvas.Screen,3_0_0_0_3_1_1,NA,NA,skipped,NA,155645.19999999,NA,NA,155639.89999998,155645.5,2023-11-24T16:47:09Z,155648.039,NULL,Polizist,msongora,s,simanzi,mandhari,nidhamu,NA,sdf,NA,0,NA,NA,NA,NA,NA,NA,NA,NA,NA,NA,NA,NA,NA,NA,NA,NA,NA,NA,NA
1f500,"""Falsch""-Screen",canvas.Screen,3_0_0_0_3_1_2,NA,NA,timeout,5003.542,155646.79999995,155631.745,155648.039,160635.368,160637.09999996,2023-11-24T16:47:14Z,160651.581,NULL,Polizist,msongora,s,simanzi,mandhari,nidhamu,NA,sdf,0,0,NA,NA,NA,NA,NA,NA,NA,NA,NA,NA,NA,NA,NA,NA,NA,NA,NA,NA,NA
1f500,shallow,flow.Sequence,3_0_0_0_3_1,NA,NA,completion,15611.35,145009.79999995,145007.372,145024.018,160635.368,160637.39999998,2023-11-24T16:47:14Z,160651.581,NULL,Polizist,msongora,s,simanzi,mandhari,nidhamu,NA,sdf,NA,0,NA,NA,NA,NA,NA,NA,NA,NA,NA,NA,NA,NA,NA,NA,NA,NA,NA,NA,NA
1f500,task,flow.Sequence,3_0_0_0_3,NA,NA,completion,15611.35,145009.39999998,145007.372,145024.018,160635.368,160637.59999996,2023-11-24T16:47:14Z,160651.581,NULL,Polizist,msongora,s,simanzi,mandhari,nidhamu,NA,sdf,NA,0,NA,NA,NA,NA,NA,NA,NA,NA,NA,NA,NA,NA,NA,NA,NA,NA,NA,NA,NA
1f500,deep,flow.Sequence,3_0_0_0_4_0,NA,NA,skipped,NA,160637.79999995,NA,NA,160635.368,160637.89999998,2023-11-24T16:47:14Z,160651.581,NULL,Prüfung,mtihani,s,mkulima,mtizamo,ufumbuzi,NA,sdf,NA,0,NA,NA,NA,NA,NA,NA,NA,NA,NA,NA,NA,NA,NA,NA,NA,NA,NA,NA,NA
1f500,Shallow Question,html.Page,3_0_0_0_4_1_0,NA,NA,form submission,9113.0189999642,160638,160635.368,160651.581,169764.59999996,169764.89999998,2023-11-24T16:47:23Z,169774.515,NULL,Prüfung,mtihani,s,mkulima,mtizamo,ufumbuzi,mkulima,NA,NA,0,NA,NA,NA,NA,NA,NA,NA,NA,NA,NA,NA,NA,NA,NA,NA,NA,NA,NA,NA
1f500,"""Richtig""-Screen",canvas.Screen,3_0_0_0_4_1_1,NA,NA,skipped,NA,169768.19999999,NA,NA,169764.59999996,169768.29999995,2023-11-24T16:47:23Z,169774.515,NULL,Prüfung,mtihani,s,mkulima,mtizamo,ufumbuzi,NA,sdf,NA,0,NA,NA,NA,NA,NA,NA,NA,NA,NA,NA,NA,NA,NA,NA,NA,NA,NA,NA,NA
1f500,"""Falsch""-Screen",canvas.Screen,3_0_0_0_4_1_2,NA,NA,timeout,5003.649,169770.19999999,169758.847,169774.515,174761.644,174762.89999998,2023-11-24T16:47:28Z,174778.164,NULL,Prüfung,mtihani,s,mkulima,mtizamo,ufumbuzi,NA,sdf,0,0,NA,NA,NA,NA,NA,NA,NA,NA,NA,NA,NA,NA,NA,NA,NA,NA,NA,NA,NA
1f500,shallow,flow.Sequence,3_0_0_0_4_1,NA,NA,completion,14110.063,160638,160635.368,160651.581,174761.644,174763.39999998,2023-11-24T16:47:28Z,174778.164,NULL,Prüfung,mtihani,s,mkulima,mtizamo,ufumbuzi,NA,sdf,NA,0,NA,NA,NA,NA,NA,NA,NA,NA,NA,NA,NA,NA,NA,NA,NA,NA,NA,NA,NA
1f500,task,flow.Sequence,3_0_0_0_4,NA,NA,completion,14110.063,160637.79999995,160635.368,160651.581,174761.644,174763.5,2023-11-24T16:47:28Z,174778.164,NULL,Prüfung,mtihani,s,mkulima,mtizamo,ufumbuzi,NA,sdf,NA,0,NA,NA,NA,NA,NA,NA,NA,NA,NA,NA,NA,NA,NA,NA,NA,NA,NA,NA,NA
1f500,deep,flow.Sequence,3_0_0_0_5_0,NA,NA,skipped,NA,174763.69999999,NA,NA,174761.644,174764,2023-11-24T16:47:28Z,174778.164,NULL,Beweis,ushahidi,s,marudio,kizuizi,mtendaji,NA,sdf,NA,0,NA,NA,NA,NA,NA,NA,NA,NA,NA,NA,NA,NA,NA,NA,NA,NA,NA,NA,NA
1f500,Shallow Question,html.Page,3_0_0_0_5_1_0,NA,NA,form submission,7263.1359999523,174764.19999999,174761.644,174778.164,182041.29999995,182041.69999999,2023-11-24T16:47:36Z,182050.545,NULL,Beweis,ushahidi,s,marudio,kizuizi,mtendaji,kizuizi,NA,NA,0,NA,NA,NA,NA,NA,NA,NA,NA,NA,NA,NA,NA,NA,NA,NA,NA,NA,NA,NA
1f500,"""Richtig""-Screen",canvas.Screen,3_0_0_0_5_1_1,NA,NA,skipped,NA,182046.79999995,NA,NA,182041.29999995,182047.09999996,2023-11-24T16:47:36Z,182050.545,NULL,Beweis,ushahidi,s,marudio,kizuizi,mtendaji,NA,sdf,NA,0,NA,NA,NA,NA,NA,NA,NA,NA,NA,NA,NA,NA,NA,NA,NA,NA,NA,NA,NA
1f500,"""Falsch""-Screen",canvas.Screen,3_0_0_0_5_1_2,NA,NA,timeout,5002.712,182048.5,182034.215,182050.545,187036.96,187043.69999999,2023-11-24T16:47:41Z,187053.257,NULL,Beweis,ushahidi,s,marudio,kizuizi,mtendaji,NA,sdf,0,0,NA,NA,NA,NA,NA,NA,NA,NA,NA,NA,NA,NA,NA,NA,NA,NA,NA,NA,NA
1f500,shallow,flow.Sequence,3_0_0_0_5_1,NA,NA,completion,12258.796,174764.19999999,174761.644,174778.164,187036.96,187044.29999995,2023-11-24T16:47:41Z,187053.257,NULL,Beweis,ushahidi,s,marudio,kizuizi,mtendaji,NA,sdf,NA,0,NA,NA,NA,NA,NA,NA,NA,NA,NA,NA,NA,NA,NA,NA,NA,NA,NA,NA,NA
1f500,task,flow.Sequence,3_0_0_0_5,NA,NA,completion,12258.796,174763.69999999,174761.644,174778.164,187036.96,187044.59999996,2023-11-24T16:47:41Z,187053.257,NULL,Beweis,ushahidi,s,marudio,kizuizi,mtendaji,NA,sdf,NA,0,NA,NA,NA,NA,NA,NA,NA,NA,NA,NA,NA,NA,NA,NA,NA,NA,NA,NA,NA
1f500,Deep Question,html.Page,3_0_0_0_6_0_0,NA,NA,form submission,6076.243,187044.89999998,187036.96,187053.257,193129.5,193129.89999998,2023-11-24T16:47:47Z,193140.853,NULL,Kultur,utamaduni,d,NA,NA,NA,k,NA,NA,0,NA,NA,NA,NA,NA,NA,NA,NA,NA,NA,NA,NA,NA,NA,NA,NA,NA,NA,NA
1f500,"""Richtig""-Screen",canvas.Screen,3_0_0_0_6_0_1,NA,NA,skipped,NA,193134.59999996,NA,NA,193129.5,193134.89999998,2023-11-24T16:47:47Z,193140.853,NULL,Kultur,utamaduni,d,NA,NA,NA,NA,sdf,NA,0,NA,NA,NA,NA,NA,NA,NA,NA,NA,NA,NA,NA,NA,NA,NA,NA,NA,NA,NA
1f500,"""Falsch""-Screen",canvas.Screen,3_0_0_0_6_0_2,NA,NA,timeout,4986.874,193136.29999995,193122.99,193140.853,198113.333,198116.5,2023-11-24T16:47:52Z,198127.727,NULL,Kultur,utamaduni,d,NA,NA,NA,NA,sdf,0,0,NA,NA,NA,NA,NA,NA,NA,NA,NA,NA,NA,NA,NA,NA,NA,NA,NA,NA,NA
1f500,deep,flow.Sequence,3_0_0_0_6_0,NA,NA,completion,11060.076,187044.89999998,187036.96,187053.257,198113.333,198116.79999995,2023-11-24T16:47:52Z,198127.727,NULL,Kultur,utamaduni,d,NA,NA,NA,NA,sdf,NA,0,NA,NA,NA,NA,NA,NA,NA,NA,NA,NA,NA,NA,NA,NA,NA,NA,NA,NA,NA
1f500,shallow,flow.Sequence,3_0_0_0_6_1,NA,NA,skipped,NA,198116.89999998,NA,NA,198113.333,198117,2023-11-24T16:47:52Z,198127.727,NULL,Kultur,utamaduni,d,NA,NA,NA,NA,sdf,NA,0,NA,NA,NA,NA,NA,NA,NA,NA,NA,NA,NA,NA,NA,NA,NA,NA,NA,NA,NA
1f500,task,flow.Sequence,3_0_0_0_6,NA,NA,completion,11060.076,187044.69999999,187036.96,187053.257,198113.333,198117.09999996,2023-11-24T16:47:52Z,198127.727,NULL,Kultur,utamaduni,d,NA,NA,NA,NA,sdf,NA,0,NA,NA,NA,NA,NA,NA,NA,NA,NA,NA,NA,NA,NA,NA,NA,NA,NA,NA,NA
1f500,Deep Question,html.Page,3_0_0_0_7_0_0,NA,NA,form submission,5721.4729999881,198117.39999998,198113.333,198127.727,203849.19999999,203849.59999996,2023-11-24T16:47:57Z,203865.01,NULL,Verzögerung,kuchelewa,d,NA,NA,NA,j,NA,NA,0,NA,NA,NA,NA,NA,NA,NA,NA,NA,NA,NA,NA,NA,NA,NA,NA,NA,NA,NA
1f500,"""Richtig""-Screen",canvas.Screen,3_0_0_0_7_0_1,NA,NA,skipped,NA,203855.09999996,NA,NA,203849.19999999,203855.39999998,2023-11-24T16:47:57Z,203865.01,NULL,Verzögerung,kuchelewa,d,NA,NA,NA,NA,sdf,NA,0,NA,NA,NA,NA,NA,NA,NA,NA,NA,NA,NA,NA,NA,NA,NA,NA,NA,NA,NA
1f500,"""Falsch""-Screen",canvas.Screen,3_0_0_0_7_0_2,NA,NA,timeout,5003.529,203857.09999996,203839.014,203865.01,208852.181,208853.5,2023-11-24T16:48:02Z,208868.539,NULL,Verzögerung,kuchelewa,d,NA,NA,NA,NA,sdf,0,0,NA,NA,NA,NA,NA,NA,NA,NA,NA,NA,NA,NA,NA,NA,NA,NA,NA,NA,NA
1f500,deep,flow.Sequence,3_0_0_0_7_0,NA,NA,completion,10724.454,198117.29999995,198113.333,198127.727,208852.181,208854,2023-11-24T16:48:02Z,208868.539,NULL,Verzögerung,kuchelewa,d,NA,NA,NA,NA,sdf,NA,0,NA,NA,NA,NA,NA,NA,NA,NA,NA,NA,NA,NA,NA,NA,NA,NA,NA,NA,NA
1f500,shallow,flow.Sequence,3_0_0_0_7_1,NA,NA,skipped,NA,208854.09999996,NA,NA,208852.181,208854.29999995,2023-11-24T16:48:02Z,208868.539,NULL,Verzögerung,kuchelewa,d,NA,NA,NA,NA,sdf,NA,0,NA,NA,NA,NA,NA,NA,NA,NA,NA,NA,NA,NA,NA,NA,NA,NA,NA,NA,NA
1f500,task,flow.Sequence,3_0_0_0_7,NA,NA,completion,10724.454,198117.29999995,198113.333,198127.727,208852.181,208854.59999996,2023-11-24T16:48:02Z,208868.539,NULL,Verzögerung,kuchelewa,d,NA,NA,NA,NA,sdf,NA,0,NA,NA,NA,NA,NA,NA,NA,NA,NA,NA,NA,NA,NA,NA,NA,NA,NA,NA,NA
1f500,block,flow.Loop,3_0_0_0,NA,NA,completion,106291.128,102549.89999998,102542.145,102561.053,208852.181,208854.89999998,2023-11-24T16:48:02Z,208868.539,NULL,NA,NA,NA,NA,NA,NA,NA,sdf,NA,0,NA,NA,NA,NA,NA,NA,NA,NA,NA,NA,NA,NA,NA,NA,NA,NA,NA,NA,NA
1f500,weiter,canvas.Screen,3_0_0_1,sdf,keypress(Space),response,3026.8609999762,208855.09999996,208852.181,208868.539,211895.39999998,211896.89999998,2023-11-24T16:48:05Z,211953.998,NULL,NA,NA,NA,NA,NA,NA,NA,sdf,NA,0,NA,NA,NA,NA,NA,NA,NA,NA,NA,NA,NA,NA,NA,NA,NA,NA,NA,NA,NA
1f500,check continue,flow.Sequence,3_0_0,NA,NA,completion,109334.34699998,102549.89999998,102542.145,102561.053,211895.39999998,211897.29999995,2023-11-24T16:48:05Z,211953.998,NULL,NA,NA,NA,NA,NA,NA,NA,sdf,NA,0,NA,NA,NA,NA,NA,NA,NA,NA,NA,NA,NA,NA,NA,NA,NA,NA,NA,NA,NA
1f500,deep,flow.Sequence,3_0_1_0_0_0,NA,NA,skipped,NA,211951.5,NA,NA,211895.39999998,211951.69999999,2023-11-24T16:48:05Z,211953.998,NULL,Prüfung,mtihani,s,mkulima,mtizamo,ufumbuzi,NA,sdfdsf,NA,1,NA,NA,NA,NA,NA,NA,NA,NA,NA,NA,NA,NA,NA,NA,NA,NA,NA,NA,NA
1f500,Shallow Question,html.Page,3_0_1_0_0_1_0,NA,NA,form submission,6097.7019999881,211951.79999995,211942.99,211953.998,218051.69999999,218052.29999995,2023-11-24T16:48:12Z,218058.245,NULL,Prüfung,mtihani,s,mkulima,mtizamo,ufumbuzi,ufumbuzi,NA,NA,1,NA,NA,NA,NA,NA,NA,NA,NA,NA,NA,NA,NA,NA,NA,NA,NA,NA,NA,NA
1f500,"""Richtig""-Screen",canvas.Screen,3_0_1_0_0_1_1,NA,NA,skipped,NA,218057.09999996,NA,NA,218051.69999999,218057.5,2023-11-24T16:48:12Z,218058.245,NULL,Prüfung,mtihani,s,mkulima,mtizamo,ufumbuzi,NA,sdfdsf,NA,1,NA,NA,NA,NA,NA,NA,NA,NA,NA,NA,NA,NA,NA,NA,NA,NA,NA,NA,NA
1f500,"""Falsch""-Screen",canvas.Screen,3_0_1_0_0_1_2,NA,NA,timeout,5003.82,218059.89999998,218035.531,218058.245,223045.39,223047,2023-11-24T16:48:17Z,223062.065,NULL,Prüfung,mtihani,s,mkulima,mtizamo,ufumbuzi,NA,sdfdsf,0,1,NA,NA,NA,NA,NA,NA,NA,NA,NA,NA,NA,NA,NA,NA,NA,NA,NA,NA,NA
1f500,shallow,flow.Sequence,3_0_1_0_0_1,NA,NA,completion,11091.392,211951.79999995,211942.99,211953.998,223045.39,223047.59999996,2023-11-24T16:48:17Z,223062.065,NULL,Prüfung,mtihani,s,mkulima,mtizamo,ufumbuzi,NA,sdfdsf,NA,1,NA,NA,NA,NA,NA,NA,NA,NA,NA,NA,NA,NA,NA,NA,NA,NA,NA,NA,NA
1f500,task,flow.Sequence,3_0_1_0_0,NA,NA,completion,11091.392,211951.5,211942.99,211953.998,223045.39,223047.89999998,2023-11-24T16:48:17Z,223062.065,NULL,Prüfung,mtihani,s,mkulima,mtizamo,ufumbuzi,NA,sdfdsf,NA,1,NA,NA,NA,NA,NA,NA,NA,NA,NA,NA,NA,NA,NA,NA,NA,NA,NA,NA,NA
1f500,Deep Question,html.Page,3_0_1_0_1_0_0,NA,NA,form submission,9045.2349999523,223048.19999999,223045.39,223062.065,232107.29999995,232107.59999996,2023-11-24T16:48:26Z,232118.035,NULL,Verzögerung,kuchelewa,d,NA,NA,NA,k,NA,NA,1,NA,NA,NA,NA,NA,NA,NA,NA,NA,NA,NA,NA,NA,NA,NA,NA,NA,NA,NA
1f500,"""Richtig""-Screen",canvas.Screen,3_0_1_0_1_0_1,NA,NA,skipped,NA,232112.5,NA,NA,232107.29999995,232112.69999999,2023-11-24T16:48:26Z,232118.035,NULL,Verzögerung,kuchelewa,d,NA,NA,NA,NA,sdfdsf,NA,1,NA,NA,NA,NA,NA,NA,NA,NA,NA,NA,NA,NA,NA,NA,NA,NA,NA,NA,NA
1f500,"""Falsch""-Screen",canvas.Screen,3_0_1_0_1_0_2,NA,NA,timeout,5003.76,232113.89999998,232101.119,232118.035,237104.981,237106.39999998,2023-11-24T16:48:31Z,237121.795,NULL,Verzögerung,kuchelewa,d,NA,NA,NA,NA,sdfdsf,0,1,NA,NA,NA,NA,NA,NA,NA,NA,NA,NA,NA,NA,NA,NA,NA,NA,NA,NA,NA
1f500,deep,flow.Sequence,3_0_1_0_1_0,NA,NA,completion,14042.916,223048.09999996,223045.39,223062.065,237104.981,237106.89999998,2023-11-24T16:48:31Z,237121.795,NULL,Verzögerung,kuchelewa,d,NA,NA,NA,NA,sdfdsf,NA,1,NA,NA,NA,NA,NA,NA,NA,NA,NA,NA,NA,NA,NA,NA,NA,NA,NA,NA,NA
1f500,shallow,flow.Sequence,3_0_1_0_1_1,NA,NA,skipped,NA,237107,NA,NA,237104.981,237107.09999996,2023-11-24T16:48:31Z,237121.795,NULL,Verzögerung,kuchelewa,d,NA,NA,NA,NA,sdfdsf,NA,1,NA,NA,NA,NA,NA,NA,NA,NA,NA,NA,NA,NA,NA,NA,NA,NA,NA,NA,NA
1f500,task,flow.Sequence,3_0_1_0_1,NA,NA,completion,14042.916,223048.09999996,223045.39,223062.065,237104.981,237107.19999999,2023-11-24T16:48:31Z,237121.795,NULL,Verzögerung,kuchelewa,d,NA,NA,NA,NA,sdfdsf,NA,1,NA,NA,NA,NA,NA,NA,NA,NA,NA,NA,NA,NA,NA,NA,NA,NA,NA,NA,NA
1f500,Deep Question,html.Page,3_0_1_0_2_0_0,NA,NA,form submission,3420.5049999523,237107.39999998,237104.981,237121.795,240542.29999995,240542.5,2023-11-24T16:48:34Z,240557.263,NULL,Annäherung,maegesho,d,NA,NA,NA,v,NA,NA,1,NA,NA,NA,NA,NA,NA,NA,NA,NA,NA,NA,NA,NA,NA,NA,NA,NA,NA,NA
1f500,"""Richtig""-Screen",canvas.Screen,3_0_1_0_2_0_1,NA,NA,skipped,NA,240547.79999995,NA,NA,240542.29999995,240548.09999996,2023-11-24T16:48:34Z,240557.263,NULL,Annäherung,maegesho,d,NA,NA,NA,NA,sdfdsf,NA,1,NA,NA,NA,NA,NA,NA,NA,NA,NA,NA,NA,NA,NA,NA,NA,NA,NA,NA,NA
1f500,"""Falsch""-Screen",canvas.Screen,3_0_1_0_2_0_2,NA,NA,timeout,5003.66,240549.79999995,240540.989,240557.263,245544.17,245545.39999998,2023-11-24T16:48:39Z,245560.923,NULL,Annäherung,maegesho,d,NA,NA,NA,NA,sdfdsf,0,1,NA,NA,NA,NA,NA,NA,NA,NA,NA,NA,NA,NA,NA,NA,NA,NA,NA,NA,NA
1f500,deep,flow.Sequence,3_0_1_0_2_0,NA,NA,completion,8422.375,237107.39999998,237104.981,237121.795,245544.17,245545.69999999,2023-11-24T16:48:39Z,245560.923,NULL,Annäherung,maegesho,d,NA,NA,NA,NA,sdfdsf,NA,1,NA,NA,NA,NA,NA,NA,NA,NA,NA,NA,NA,NA,NA,NA,NA,NA,NA,NA,NA
1f500,shallow,flow.Sequence,3_0_1_0_2_1,NA,NA,skipped,NA,245545.89999998,NA,NA,245544.17,245546,2023-11-24T16:48:39Z,245560.923,NULL,Annäherung,maegesho,d,NA,NA,NA,NA,sdfdsf,NA,1,NA,NA,NA,NA,NA,NA,NA,NA,NA,NA,NA,NA,NA,NA,NA,NA,NA,NA,NA
1f500,task,flow.Sequence,3_0_1_0_2,NA,NA,completion,8422.375,237107.39999998,237104.981,237121.795,245544.17,245546.19999999,2023-11-24T16:48:39Z,245560.923,NULL,Annäherung,maegesho,d,NA,NA,NA,NA,sdfdsf,NA,1,NA,NA,NA,NA,NA,NA,NA,NA,NA,NA,NA,NA,NA,NA,NA,NA,NA,NA,NA
1f500,Deep Question,html.Page,3_0_1_0_3_0_0,NA,NA,form submission,3220.3769999523,245546.29999995,245544.17,245560.923,248781.29999995,248781.69999999,2023-11-24T16:48:42Z,248796.341,NULL,Kultur,utamaduni,d,NA,NA,NA,i,NA,NA,1,NA,NA,NA,NA,NA,NA,NA,NA,NA,NA,NA,NA,NA,NA,NA,NA,NA,NA,NA
1f500,"""Richtig""-Screen",canvas.Screen,3_0_1_0_3_0_1,NA,NA,skipped,NA,248790.29999995,NA,NA,248781.29999995,248790.69999999,2023-11-24T16:48:42Z,248796.341,NULL,Kultur,utamaduni,d,NA,NA,NA,NA,sdfdsf,NA,1,NA,NA,NA,NA,NA,NA,NA,NA,NA,NA,NA,NA,NA,NA,NA,NA,NA,NA,NA
1f500,"""Falsch""-Screen",canvas.Screen,3_0_1_0_3_0_2,NA,NA,timeout,5003.607,248792.19999999,248770.321,248796.341,253783.486,253784.79999995,2023-11-24T16:48:47Z,253799.948,NULL,Kultur,utamaduni,d,NA,NA,NA,NA,sdfdsf,0,1,NA,NA,NA,NA,NA,NA,NA,NA,NA,NA,NA,NA,NA,NA,NA,NA,NA,NA,NA
1f500,deep,flow.Sequence,3_0_1_0_3_0,NA,NA,completion,8222.563,245546.29999995,245544.17,245560.923,253783.486,253785.19999999,2023-11-24T16:48:47Z,253799.948,NULL,Kultur,utamaduni,d,NA,NA,NA,NA,sdfdsf,NA,1,NA,NA,NA,NA,NA,NA,NA,NA,NA,NA,NA,NA,NA,NA,NA,NA,NA,NA,NA
1f500,shallow,flow.Sequence,3_0_1_0_3_1,NA,NA,skipped,NA,253785.39999998,NA,NA,253783.486,253785.5,2023-11-24T16:48:47Z,253799.948,NULL,Kultur,utamaduni,d,NA,NA,NA,NA,sdfdsf,NA,1,NA,NA,NA,NA,NA,NA,NA,NA,NA,NA,NA,NA,NA,NA,NA,NA,NA,NA,NA
1f500,task,flow.Sequence,3_0_1_0_3,NA,NA,completion,8222.563,245546.29999995,245544.17,245560.923,253783.486,253785.79999995,2023-11-24T16:48:47Z,253799.948,NULL,Kultur,utamaduni,d,NA,NA,NA,NA,sdfdsf,NA,1,NA,NA,NA,NA,NA,NA,NA,NA,NA,NA,NA,NA,NA,NA,NA,NA,NA,NA,NA
1f500,deep,flow.Sequence,3_0_1_0_4_0,NA,NA,skipped,NA,253786,NA,NA,253783.486,253786.09999996,2023-11-24T16:48:47Z,253799.948,NULL,Aufstand,ugomaji,s,mazidio,msingi,kujieleza,NA,sdfdsf,NA,1,NA,NA,NA,NA,NA,NA,NA,NA,NA,NA,NA,NA,NA,NA,NA,NA,NA,NA,NA
1f500,Shallow Question,html.Page,3_0_1_0_4_1_0,NA,NA,form submission,12046.951999976,253786.19999999,253783.486,253799.948,265846.89999998,265847.29999995,2023-11-24T16:48:59Z,265858.251,NULL,Aufstand,ugomaji,s,mazidio,msingi,kujieleza,ugomaji,NA,NA,1,NA,NA,NA,NA,NA,NA,NA,NA,NA,NA,NA,NA,NA,NA,NA,NA,NA,NA,NA
1f500,"""Richtig""-Screen",canvas.Screen,3_0_1_0_4_1_1,NA,NA,timeout,5004.429,265851.89999998,265844.298,265858.251,270845.587,270846.69999999,2023-11-24T16:49:04Z,270862.68,NULL,Aufstand,ugomaji,s,mazidio,msingi,kujieleza,NA,sdfdsf,1,1,NA,NA,NA,NA,NA,NA,NA,NA,NA,NA,NA,NA,NA,NA,NA,NA,NA,NA,NA
1f500,"""Falsch""-Screen",canvas.Screen,3_0_1_0_4_1_2,NA,NA,skipped,NA,270851.69999999,NA,NA,270845.587,270852.19999999,2023-11-24T16:49:04Z,270862.68,NULL,Aufstand,ugomaji,s,mazidio,msingi,kujieleza,NA,sdfdsf,NA,1,NA,NA,NA,NA,NA,NA,NA,NA,NA,NA,NA,NA,NA,NA,NA,NA,NA,NA,NA
1f500,shallow,flow.Sequence,3_0_1_0_4_1,NA,NA,completion,17045.639,253786.19999999,253783.486,253799.948,270845.587,270852.5,2023-11-24T16:49:04Z,270862.68,NULL,Aufstand,ugomaji,s,mazidio,msingi,kujieleza,NA,sdfdsf,NA,1,NA,NA,NA,NA,NA,NA,NA,NA,NA,NA,NA,NA,NA,NA,NA,NA,NA,NA,NA
1f500,task,flow.Sequence,3_0_1_0_4,NA,NA,completion,17045.639,253785.89999998,253783.486,253799.948,270845.587,270852.69999999,2023-11-24T16:49:04Z,270862.68,NULL,Aufstand,ugomaji,s,mazidio,msingi,kujieleza,NA,sdfdsf,NA,1,NA,NA,NA,NA,NA,NA,NA,NA,NA,NA,NA,NA,NA,NA,NA,NA,NA,NA,NA
1f500,deep,flow.Sequence,3_0_1_0_5_0,NA,NA,skipped,NA,270852.79999995,NA,NA,270845.587,270852.89999998,2023-11-24T16:49:04Z,270862.68,NULL,Polizist,msongora,s,simanzi,mandhari,nidhamu,NA,sdfdsf,NA,1,NA,NA,NA,NA,NA,NA,NA,NA,NA,NA,NA,NA,NA,NA,NA,NA,NA,NA,NA
1f500,Shallow Question,html.Page,3_0_1_0_5_1_0,NA,NA,form submission,12749.32,270853,270845.587,270862.68,283612,283612.5,2023-11-24T16:49:17Z,283623.419,NULL,Polizist,msongora,s,simanzi,mandhari,nidhamu,nidhamu,NA,NA,1,NA,NA,NA,NA,NA,NA,NA,NA,NA,NA,NA,NA,NA,NA,NA,NA,NA,NA,NA
1f500,"""Richtig""-Screen",canvas.Screen,3_0_1_0_5_1_1,NA,NA,skipped,NA,283617,NA,NA,283612,283617.29999995,2023-11-24T16:49:17Z,283623.419,NULL,Polizist,msongora,s,simanzi,mandhari,nidhamu,NA,sdfdsf,NA,1,NA,NA,NA,NA,NA,NA,NA,NA,NA,NA,NA,NA,NA,NA,NA,NA,NA,NA,NA
1f500,"""Falsch""-Screen",canvas.Screen,3_0_1_0_5_1_2,NA,NA,timeout,5000.759,283618.5,283603.218,283623.419,288607.839,288609,2023-11-24T16:49:22Z,288624.178,NULL,Polizist,msongora,s,simanzi,mandhari,nidhamu,NA,sdfdsf,0,1,NA,NA,NA,NA,NA,NA,NA,NA,NA,NA,NA,NA,NA,NA,NA,NA,NA,NA,NA
1f500,shallow,flow.Sequence,3_0_1_0_5_1,NA,NA,completion,17745.159,270853,270845.587,270862.68,288607.839,288609.29999995,2023-11-24T16:49:22Z,288624.178,NULL,Polizist,msongora,s,simanzi,mandhari,nidhamu,NA,sdfdsf,NA,1,NA,NA,NA,NA,NA,NA,NA,NA,NA,NA,NA,NA,NA,NA,NA,NA,NA,NA,NA
1f500,task,flow.Sequence,3_0_1_0_5,NA,NA,completion,17745.159,270852.69999999,270845.587,270862.68,288607.839,288609.5,2023-11-24T16:49:22Z,288624.178,NULL,Polizist,msongora,s,simanzi,mandhari,nidhamu,NA,sdfdsf,NA,1,NA,NA,NA,NA,NA,NA,NA,NA,NA,NA,NA,NA,NA,NA,NA,NA,NA,NA,NA
1f500,deep,flow.Sequence,3_0_1_0_6_0,NA,NA,skipped,NA,288609.59999996,NA,NA,288607.839,288609.69999999,2023-11-24T16:49:22Z,288624.178,NULL,Beweis,ushahidi,s,marudio,kizuizi,mtendaji,NA,sdfdsf,NA,1,NA,NA,NA,NA,NA,NA,NA,NA,NA,NA,NA,NA,NA,NA,NA,NA,NA,NA,NA
1f500,Shallow Question,html.Page,3_0_1_0_6_1_0,NA,NA,form submission,7966.1219999523,288609.79999995,288607.839,288624.178,296590.29999995,296590.89999998,2023-11-24T16:49:30Z,296596.359,NULL,Beweis,ushahidi,s,marudio,kizuizi,mtendaji,ushahidi,NA,NA,1,NA,NA,NA,NA,NA,NA,NA,NA,NA,NA,NA,NA,NA,NA,NA,NA,NA,NA,NA
1f500,"""Richtig""-Screen",canvas.Screen,3_0_1_0_6_1_1,NA,NA,timeout,5003.79,296595.5,296581.058,296596.359,301583.66,301585.29999995,2023-11-24T16:49:35Z,301600.149,NULL,Beweis,ushahidi,s,marudio,kizuizi,mtendaji,NA,sdfdsf,1,1,NA,NA,NA,NA,NA,NA,NA,NA,NA,NA,NA,NA,NA,NA,NA,NA,NA,NA,NA
1f500,"""Falsch""-Screen",canvas.Screen,3_0_1_0_6_1_2,NA,NA,skipped,NA,301590.69999999,NA,NA,301583.66,301591.09999996,2023-11-24T16:49:35Z,301600.149,NULL,Beweis,ushahidi,s,marudio,kizuizi,mtendaji,NA,sdfdsf,NA,1,NA,NA,NA,NA,NA,NA,NA,NA,NA,NA,NA,NA,NA,NA,NA,NA,NA,NA,NA
1f500,shallow,flow.Sequence,3_0_1_0_6_1,NA,NA,completion,12959.482,288609.79999995,288607.839,288624.178,301583.66,301591.39999998,2023-11-24T16:49:35Z,301600.149,NULL,Beweis,ushahidi,s,marudio,kizuizi,mtendaji,NA,sdfdsf,NA,1,NA,NA,NA,NA,NA,NA,NA,NA,NA,NA,NA,NA,NA,NA,NA,NA,NA,NA,NA
1f500,task,flow.Sequence,3_0_1_0_6,NA,NA,completion,12959.482,288609.59999996,288607.839,288624.178,301583.66,301591.59999996,2023-11-24T16:49:35Z,301600.149,NULL,Beweis,ushahidi,s,marudio,kizuizi,mtendaji,NA,sdfdsf,NA,1,NA,NA,NA,NA,NA,NA,NA,NA,NA,NA,NA,NA,NA,NA,NA,NA,NA,NA,NA
1f500,Deep Question,html.Page,3_0_1_0_7_0_0,NA,NA,form submission,4741.4509999643,301591.89999998,301583.66,301600.149,306341.59999996,306342.09999996,2023-11-24T16:49:40Z,306353.21,NULL,Sympathie,mapendano,d,NA,NA,NA,m,NA,NA,1,NA,NA,NA,NA,NA,NA,NA,NA,NA,NA,NA,NA,NA,NA,NA,NA,NA,NA,NA
1f500,"""Richtig""-Screen",canvas.Screen,3_0_1_0_7_0_1,NA,NA,skipped,NA,306346.5,NA,NA,306341.59999996,306346.79999995,2023-11-24T16:49:40Z,306353.21,NULL,Sympathie,mapendano,d,NA,NA,NA,NA,sdfdsf,NA,1,NA,NA,NA,NA,NA,NA,NA,NA,NA,NA,NA,NA,NA,NA,NA,NA,NA,NA,NA
1f500,"""Falsch""-Screen",canvas.Screen,3_0_1_0_7_0_2,NA,NA,timeout,5003.422,306348,306336.971,306353.21,311339.984,311341,2023-11-24T16:49:45Z,311356.632,NULL,Sympathie,mapendano,d,NA,NA,NA,NA,sdfdsf,0,1,NA,NA,NA,NA,NA,NA,NA,NA,NA,NA,NA,NA,NA,NA,NA,NA,NA,NA,NA
1f500,deep,flow.Sequence,3_0_1_0_7_0,NA,NA,completion,9739.835,301591.89999998,301583.66,301600.149,311339.984,311341.29999995,2023-11-24T16:49:45Z,311356.632,NULL,Sympathie,mapendano,d,NA,NA,NA,NA,sdfdsf,NA,1,NA,NA,NA,NA,NA,NA,NA,NA,NA,NA,NA,NA,NA,NA,NA,NA,NA,NA,NA
1f500,shallow,flow.Sequence,3_0_1_0_7_1,NA,NA,skipped,NA,311341.5,NA,NA,311339.984,311341.59999996,2023-11-24T16:49:45Z,311356.632,NULL,Sympathie,mapendano,d,NA,NA,NA,NA,sdfdsf,NA,1,NA,NA,NA,NA,NA,NA,NA,NA,NA,NA,NA,NA,NA,NA,NA,NA,NA,NA,NA
1f500,task,flow.Sequence,3_0_1_0_7,NA,NA,completion,9739.835,301591.79999995,301583.66,301600.149,311339.984,311341.69999999,2023-11-24T16:49:45Z,311356.632,NULL,Sympathie,mapendano,d,NA,NA,NA,NA,sdfdsf,NA,1,NA,NA,NA,NA,NA,NA,NA,NA,NA,NA,NA,NA,NA,NA,NA,NA,NA,NA,NA
1f500,block,flow.Loop,3_0_1_0,NA,NA,completion,99385.986,211951.5,211942.99,211953.998,311339.984,311342,2023-11-24T16:49:45Z,311356.632,NULL,NA,NA,NA,NA,NA,NA,NA,sdfdsf,NA,1,NA,NA,NA,NA,NA,NA,NA,NA,NA,NA,NA,NA,NA,NA,NA,NA,NA,NA,NA
1f500,weiter,canvas.Screen,3_0_1_1,sdf,keypress(Space),response,5012.5679999881,311342.09999996,311339.984,311356.632,316369.19999999,316374.29999995,2023-11-24T16:49:50Z,316443.527,NULL,NA,NA,NA,NA,NA,NA,NA,sdfdsf,NA,1,NA,NA,NA,NA,NA,NA,NA,NA,NA,NA,NA,NA,NA,NA,NA,NA,NA,NA,NA
1f500,check continue,flow.Sequence,3_0_1,NA,NA,completion,104415.20199999,211951.39999998,211942.99,211953.998,316369.19999999,316374.5,2023-11-24T16:49:50Z,316443.527,NULL,NA,NA,NA,NA,NA,NA,NA,sdfdsf,NA,1,NA,NA,NA,NA,NA,NA,NA,NA,NA,NA,NA,NA,NA,NA,NA,NA,NA,NA,NA
1f500,deep,flow.Sequence,3_0_2_0_0_0,NA,NA,skipped,NA,316427.29999995,NA,NA,316369.19999999,316427.5,2023-11-24T16:49:50Z,316443.527,NULL,Beweis,ushahidi,s,marudio,kizuizi,mtendaji,NA,sdf,NA,2,NA,NA,NA,NA,NA,NA,NA,NA,NA,NA,NA,NA,NA,NA,NA,NA,NA,NA,NA
1f500,Shallow Question,html.Page,3_0_2_0_0_1_0,NA,NA,form submission,12083.272999952,316427.59999996,316421.459,316443.527,328526.79999995,328527.29999995,2023-11-24T16:50:02Z,328535.299,NULL,Beweis,ushahidi,s,marudio,kizuizi,mtendaji,ushahidi,NA,NA,2,NA,NA,NA,NA,NA,NA,NA,NA,NA,NA,NA,NA,NA,NA,NA,NA,NA,NA,NA
1f500,"""Richtig""-Screen",canvas.Screen,3_0_2_0_0_1_1,NA,NA,timeout,5003.491,328532.69999999,328518.98,328535.299,333522.473,333523.89999998,2023-11-24T16:50:07Z,333538.79,NULL,Beweis,ushahidi,s,marudio,kizuizi,mtendaji,NA,sdf,1,2,NA,NA,NA,NA,NA,NA,NA,NA,NA,NA,NA,NA,NA,NA,NA,NA,NA,NA,NA
1f500,"""Falsch""-Screen",canvas.Screen,3_0_2_0_0_1_2,NA,NA,skipped,NA,333529.5,NA,NA,333522.473,333529.89999998,2023-11-24T16:50:07Z,333538.79,NULL,Beweis,ushahidi,s,marudio,kizuizi,mtendaji,NA,sdf,NA,2,NA,NA,NA,NA,NA,NA,NA,NA,NA,NA,NA,NA,NA,NA,NA,NA,NA,NA,NA
1f500,shallow,flow.Sequence,3_0_2_0_0_1,NA,NA,completion,17078.946,316427.59999996,316421.459,316443.527,333522.473,333530.19999999,2023-11-24T16:50:07Z,333538.79,NULL,Beweis,ushahidi,s,marudio,kizuizi,mtendaji,NA,sdf,NA,2,NA,NA,NA,NA,NA,NA,NA,NA,NA,NA,NA,NA,NA,NA,NA,NA,NA,NA,NA
1f500,task,flow.Sequence,3_0_2_0_0,NA,NA,completion,17078.946,316427.19999999,316421.459,316443.527,333522.473,333530.29999995,2023-11-24T16:50:07Z,333538.79,NULL,Beweis,ushahidi,s,marudio,kizuizi,mtendaji,NA,sdf,NA,2,NA,NA,NA,NA,NA,NA,NA,NA,NA,NA,NA,NA,NA,NA,NA,NA,NA,NA,NA
1f500,Deep Question,html.Page,3_0_2_0_1_0_0,NA,NA,form submission,5799.71,333530.5,333522.473,333538.79,339338.5,339338.69999999,2023-11-24T16:50:13Z,339342.839,NULL,Verzögerung,kuchelewa,d,NA,NA,NA,kuchelewa,NA,NA,2,NA,NA,NA,NA,NA,NA,NA,NA,NA,NA,NA,NA,NA,NA,NA,NA,NA,NA,NA
1f500,"""Richtig""-Screen",canvas.Screen,3_0_2_0_1_0_1,NA,NA,timeout,5003.582,339341.79999995,339326.215,339342.839,344330.106,344331.89999998,2023-11-24T16:50:18Z,344346.421,NULL,Verzögerung,kuchelewa,d,NA,NA,NA,NA,sdf,1,2,NA,NA,NA,NA,NA,NA,NA,NA,NA,NA,NA,NA,NA,NA,NA,NA,NA,NA,NA
1f500,"""Falsch""-Screen",canvas.Screen,3_0_2_0_1_0_2,NA,NA,skipped,NA,344337,NA,NA,344330.106,344337.39999998,2023-11-24T16:50:18Z,344346.421,NULL,Verzögerung,kuchelewa,d,NA,NA,NA,NA,sdf,NA,2,NA,NA,NA,NA,NA,NA,NA,NA,NA,NA,NA,NA,NA,NA,NA,NA,NA,NA,NA
1f500,deep,flow.Sequence,3_0_2_0_1_0,NA,NA,completion,10791.316,333530.39999998,333522.473,333538.79,344330.106,344337.69999999,2023-11-24T16:50:18Z,344346.421,NULL,Verzögerung,kuchelewa,d,NA,NA,NA,NA,sdf,NA,2,NA,NA,NA,NA,NA,NA,NA,NA,NA,NA,NA,NA,NA,NA,NA,NA,NA,NA,NA
1f500,shallow,flow.Sequence,3_0_2_0_1_1,NA,NA,skipped,NA,344337.79999995,NA,NA,344330.106,344337.89999998,2023-11-24T16:50:18Z,344346.421,NULL,Verzögerung,kuchelewa,d,NA,NA,NA,NA,sdf,NA,2,NA,NA,NA,NA,NA,NA,NA,NA,NA,NA,NA,NA,NA,NA,NA,NA,NA,NA,NA
1f500,task,flow.Sequence,3_0_2_0_1,NA,NA,completion,10791.316,333530.39999998,333522.473,333538.79,344330.106,344338.09999996,2023-11-24T16:50:18Z,344346.421,NULL,Verzögerung,kuchelewa,d,NA,NA,NA,NA,sdf,NA,2,NA,NA,NA,NA,NA,NA,NA,NA,NA,NA,NA,NA,NA,NA,NA,NA,NA,NA,NA
1f500,Deep Question,html.Page,3_0_2_0_2_0_0,NA,NA,form submission,5003.6789999643,344338.29999995,344330.106,344346.421,349350.09999996,349350.5,2023-11-24T16:50:23Z,349372.205,NULL,Kultur,utamaduni,d,NA,NA,NA,mahaguni,NA,NA,2,NA,NA,NA,NA,NA,NA,NA,NA,NA,NA,NA,NA,NA,NA,NA,NA,NA,NA,NA
1f500,"""Richtig""-Screen",canvas.Screen,3_0_2_0_2_0_1,NA,NA,skipped,NA,349355.89999998,NA,NA,349350.09999996,349356.29999995,2023-11-24T16:50:23Z,349372.205,NULL,Kultur,utamaduni,d,NA,NA,NA,NA,sdf,NA,2,NA,NA,NA,NA,NA,NA,NA,NA,NA,NA,NA,NA,NA,NA,NA,NA,NA,NA,NA
1f500,"""Falsch""-Screen",canvas.Screen,3_0_2_0_2_0_2,NA,NA,timeout,4997.83,349358.09999996,349334.666,349372.205,354353.412,354354.59999996,2023-11-24T16:50:28Z,354370.035,NULL,Kultur,utamaduni,d,NA,NA,NA,NA,sdf,0,2,NA,NA,NA,NA,NA,NA,NA,NA,NA,NA,NA,NA,NA,NA,NA,NA,NA,NA,NA
1f500,deep,flow.Sequence,3_0_2_0_2_0,NA,NA,completion,10006.991,344338.19999999,344330.106,344346.421,354353.412,354355,2023-11-24T16:50:28Z,354370.035,NULL,Kultur,utamaduni,d,NA,NA,NA,NA,sdf,NA,2,NA,NA,NA,NA,NA,NA,NA,NA,NA,NA,NA,NA,NA,NA,NA,NA,NA,NA,NA
1f500,shallow,flow.Sequence,3_0_2_0_2_1,NA,NA,skipped,NA,354355.19999999,NA,NA,354353.412,354355.39999998,2023-11-24T16:50:28Z,354370.035,NULL,Kultur,utamaduni,d,NA,NA,NA,NA,sdf,NA,2,NA,NA,NA,NA,NA,NA,NA,NA,NA,NA,NA,NA,NA,NA,NA,NA,NA,NA,NA
1f500,task,flow.Sequence,3_0_2_0_2,NA,NA,completion,10006.991,344338.19999999,344330.106,344346.421,354353.412,354355.59999996,2023-11-24T16:50:28Z,354370.035,NULL,Kultur,utamaduni,d,NA,NA,NA,NA,sdf,NA,2,NA,NA,NA,NA,NA,NA,NA,NA,NA,NA,NA,NA,NA,NA,NA,NA,NA,NA,NA
1f500,deep,flow.Sequence,3_0_2_0_3_0,NA,NA,skipped,NA,354355.89999998,NA,NA,354353.412,354356,2023-11-24T16:50:28Z,354370.035,NULL,Polizist,msongora,s,simanzi,mandhari,nidhamu,NA,sdf,NA,2,NA,NA,NA,NA,NA,NA,NA,NA,NA,NA,NA,NA,NA,NA,NA,NA,NA,NA,NA
1f500,Shallow Question,html.Page,3_0_2_0_3_1_0,NA,NA,form submission,6630.465,354356.19999999,354353.412,354370.035,361000.5,361000.89999998,2023-11-24T16:50:34Z,361007.952,NULL,Polizist,msongora,s,simanzi,mandhari,nidhamu,msongora,NA,NA,2,NA,NA,NA,NA,NA,NA,NA,NA,NA,NA,NA,NA,NA,NA,NA,NA,NA,NA,NA
1f500,"""Richtig""-Screen",canvas.Screen,3_0_2_0_3_1_1,NA,NA,timeout,5003.592,361005.39999998,360991.761,361007.952,365994.772,365996.09999996,2023-11-24T16:50:39Z,366011.544,NULL,Polizist,msongora,s,simanzi,mandhari,nidhamu,NA,sdf,1,2,NA,NA,NA,NA,NA,NA,NA,NA,NA,NA,NA,NA,NA,NA,NA,NA,NA,NA,NA
1f500,"""Falsch""-Screen",canvas.Screen,3_0_2_0_3_1_2,NA,NA,skipped,NA,366002.09999996,NA,NA,365994.772,366002.5,2023-11-24T16:50:39Z,366011.544,NULL,Polizist,msongora,s,simanzi,mandhari,nidhamu,NA,sdf,NA,2,NA,NA,NA,NA,NA,NA,NA,NA,NA,NA,NA,NA,NA,NA,NA,NA,NA,NA,NA
1f500,shallow,flow.Sequence,3_0_2_0_3_1,NA,NA,completion,11624.737,354356.19999999,354353.412,354370.035,365994.772,366002.79999995,2023-11-24T16:50:39Z,366011.544,NULL,Polizist,msongora,s,simanzi,mandhari,nidhamu,NA,sdf,NA,2,NA,NA,NA,NA,NA,NA,NA,NA,NA,NA,NA,NA,NA,NA,NA,NA,NA,NA,NA
1f500,task,flow.Sequence,3_0_2_0_3,NA,NA,completion,11624.737,354355.79999995,354353.412,354370.035,365994.772,366003,2023-11-24T16:50:39Z,366011.544,NULL,Polizist,msongora,s,simanzi,mandhari,nidhamu,NA,sdf,NA,2,NA,NA,NA,NA,NA,NA,NA,NA,NA,NA,NA,NA,NA,NA,NA,NA,NA,NA,NA
1f500,deep,flow.Sequence,3_0_2_0_4_0,NA,NA,skipped,NA,366003.09999996,NA,NA,365994.772,366003.19999999,2023-11-24T16:50:39Z,366011.544,NULL,Prüfung,mtihani,s,mkulima,mtizamo,ufumbuzi,NA,sdf,NA,2,NA,NA,NA,NA,NA,NA,NA,NA,NA,NA,NA,NA,NA,NA,NA,NA,NA,NA,NA
1f500,Shallow Question,html.Page,3_0_2_0_4_1_0,NA,NA,form submission,6200.8559999762,366003.29999995,365994.772,366011.544,372212.39999998,372212.89999998,2023-11-24T16:50:46Z,372215.766,NULL,Prüfung,mtihani,s,mkulima,mtizamo,ufumbuzi,mtihani,NA,NA,2,NA,NA,NA,NA,NA,NA,NA,NA,NA,NA,NA,NA,NA,NA,NA,NA,NA,NA,NA
1f500,"""Richtig""-Screen",canvas.Screen,3_0_2_0_4_1_1,NA,NA,timeout,5003.492,372218.5,372199.043,372215.766,377202.961,377204.19999999,2023-11-24T16:50:51Z,377219.258,NULL,Prüfung,mtihani,s,mkulima,mtizamo,ufumbuzi,NA,sdf,1,2,NA,NA,NA,NA,NA,NA,NA,NA,NA,NA,NA,NA,NA,NA,NA,NA,NA,NA,NA
1f500,"""Falsch""-Screen",canvas.Screen,3_0_2_0_4_1_2,NA,NA,skipped,NA,377210.19999999,NA,NA,377202.961,377210.5,2023-11-24T16:50:51Z,377219.258,NULL,Prüfung,mtihani,s,mkulima,mtizamo,ufumbuzi,NA,sdf,NA,2,NA,NA,NA,NA,NA,NA,NA,NA,NA,NA,NA,NA,NA,NA,NA,NA,NA,NA,NA
1f500,shallow,flow.Sequence,3_0_2_0_4_1,NA,NA,completion,11191.417,366003.19999999,365994.772,366011.544,377202.961,377210.89999998,2023-11-24T16:50:51Z,377219.258,NULL,Prüfung,mtihani,s,mkulima,mtizamo,ufumbuzi,NA,sdf,NA,2,NA,NA,NA,NA,NA,NA,NA,NA,NA,NA,NA,NA,NA,NA,NA,NA,NA,NA,NA
1f500,task,flow.Sequence,3_0_2_0_4,NA,NA,completion,11191.417,366003.09999996,365994.772,366011.544,377202.961,377211.19999999,2023-11-24T16:50:51Z,377219.258,NULL,Prüfung,mtihani,s,mkulima,mtizamo,ufumbuzi,NA,sdf,NA,2,NA,NA,NA,NA,NA,NA,NA,NA,NA,NA,NA,NA,NA,NA,NA,NA,NA,NA,NA
1f500,Deep Question,html.Page,3_0_2_0_5_0_0,NA,NA,form submission,9091.3419999643,377211.5,377202.961,377219.258,386310.59999996,386311,2023-11-24T16:51:00Z,386325.594,NULL,Sympathie,mapendano,d,NA,NA,NA,muhagonji,NA,NA,2,NA,NA,NA,NA,NA,NA,NA,NA,NA,NA,NA,NA,NA,NA,NA,NA,NA,NA,NA
1f500,"""Richtig""-Screen",canvas.Screen,3_0_2_0_5_0_1,NA,NA,skipped,NA,386315.89999998,NA,NA,386310.59999996,386316.09999996,2023-11-24T16:51:00Z,386325.594,NULL,Sympathie,mapendano,d,NA,NA,NA,NA,sdf,NA,2,NA,NA,NA,NA,NA,NA,NA,NA,NA,NA,NA,NA,NA,NA,NA,NA,NA,NA,NA
1f500,"""Falsch""-Screen",canvas.Screen,3_0_2_0_5_0_2,NA,NA,timeout,5003.565,386317.59999996,386309.646,386325.594,391312.527,391313.79999995,2023-11-24T16:51:05Z,391329.159,NULL,Sympathie,mapendano,d,NA,NA,NA,NA,sdf,0,2,NA,NA,NA,NA,NA,NA,NA,NA,NA,NA,NA,NA,NA,NA,NA,NA,NA,NA,NA
1f500,deep,flow.Sequence,3_0_2_0_5_0,NA,NA,completion,14093.269,377211.39999998,377202.961,377219.258,391312.527,391314.29999995,2023-11-24T16:51:05Z,391329.159,NULL,Sympathie,mapendano,d,NA,NA,NA,NA,sdf,NA,2,NA,NA,NA,NA,NA,NA,NA,NA,NA,NA,NA,NA,NA,NA,NA,NA,NA,NA,NA
1f500,shallow,flow.Sequence,3_0_2_0_5_1,NA,NA,skipped,NA,391314.5,NA,NA,391312.527,391314.69999999,2023-11-24T16:51:05Z,391329.159,NULL,Sympathie,mapendano,d,NA,NA,NA,NA,sdf,NA,2,NA,NA,NA,NA,NA,NA,NA,NA,NA,NA,NA,NA,NA,NA,NA,NA,NA,NA,NA
1f500,task,flow.Sequence,3_0_2_0_5,NA,NA,completion,14093.269,377211.39999998,377202.961,377219.258,391312.527,391315,2023-11-24T16:51:05Z,391329.159,NULL,Sympathie,mapendano,d,NA,NA,NA,NA,sdf,NA,2,NA,NA,NA,NA,NA,NA,NA,NA,NA,NA,NA,NA,NA,NA,NA,NA,NA,NA,NA
1f500,deep,flow.Sequence,3_0_2_0_6_0,NA,NA,skipped,NA,391315.19999999,NA,NA,391312.527,391315.39999998,2023-11-24T16:51:05Z,391329.159,NULL,Aufstand,ugomaji,s,mazidio,msingi,kujieleza,NA,sdf,NA,2,NA,NA,NA,NA,NA,NA,NA,NA,NA,NA,NA,NA,NA,NA,NA,NA,NA,NA,NA
1f500,Shallow Question,html.Page,3_0_2_0_6_1_0,NA,NA,form submission,14604.341,391315.5,391312.527,391329.159,405933.5,405934,2023-11-24T16:51:19Z,405940.018,NULL,Aufstand,ugomaji,s,mazidio,msingi,kujieleza,ugomaji,NA,NA,2,NA,NA,NA,NA,NA,NA,NA,NA,NA,NA,NA,NA,NA,NA,NA,NA,NA,NA,NA
1f500,"""Richtig""-Screen",canvas.Screen,3_0_2_0_6_1_1,NA,NA,timeout,5002.814,405938.89999998,405923.118,405940.018,410926.485,410927.69999999,2023-11-24T16:51:24Z,410942.832,NULL,Aufstand,ugomaji,s,mazidio,msingi,kujieleza,NA,sdf,1,2,NA,NA,NA,NA,NA,NA,NA,NA,NA,NA,NA,NA,NA,NA,NA,NA,NA,NA,NA
1f500,"""Falsch""-Screen",canvas.Screen,3_0_2_0_6_1_2,NA,NA,skipped,NA,410932.39999998,NA,NA,410926.485,410932.79999995,2023-11-24T16:51:24Z,410942.832,NULL,Aufstand,ugomaji,s,mazidio,msingi,kujieleza,NA,sdf,NA,2,NA,NA,NA,NA,NA,NA,NA,NA,NA,NA,NA,NA,NA,NA,NA,NA,NA,NA,NA
1f500,shallow,flow.Sequence,3_0_2_0_6_1,NA,NA,completion,19597.326,391315.5,391312.527,391329.159,410926.485,410933,2023-11-24T16:51:24Z,410942.832,NULL,Aufstand,ugomaji,s,mazidio,msingi,kujieleza,NA,sdf,NA,2,NA,NA,NA,NA,NA,NA,NA,NA,NA,NA,NA,NA,NA,NA,NA,NA,NA,NA,NA
1f500,task,flow.Sequence,3_0_2_0_6,NA,NA,completion,19597.326,391315.19999999,391312.527,391329.159,410926.485,410933.19999999,2023-11-24T16:51:24Z,410942.832,NULL,Aufstand,ugomaji,s,mazidio,msingi,kujieleza,NA,sdf,NA,2,NA,NA,NA,NA,NA,NA,NA,NA,NA,NA,NA,NA,NA,NA,NA,NA,NA,NA,NA
1f500,Deep Question,html.Page,3_0_2_0_7_0_0,NA,NA,form submission,11222.267999964,410933.29999995,410926.485,410942.832,422165.09999996,422165.5,2023-11-24T16:51:36Z,422183.998,NULL,Annäherung,maegesho,d,NA,NA,NA,kuchelewa,NA,NA,2,NA,NA,NA,NA,NA,NA,NA,NA,NA,NA,NA,NA,NA,NA,NA,NA,NA,NA,NA
1f500,"""Richtig""-Screen",canvas.Screen,3_0_2_0_7_0_1,NA,NA,skipped,NA,422171.09999996,NA,NA,422165.09999996,422171.39999998,2023-11-24T16:51:36Z,422183.998,NULL,Annäherung,maegesho,d,NA,NA,NA,NA,sdf,NA,2,NA,NA,NA,NA,NA,NA,NA,NA,NA,NA,NA,NA,NA,NA,NA,NA,NA,NA,NA
1f500,"""Falsch""-Screen",canvas.Screen,3_0_2_0_7_0_2,NA,NA,timeout,5003.514,422173.5,422150.947,422183.998,427171.082,427172.39999998,2023-11-24T16:51:41Z,427187.512,NULL,Annäherung,maegesho,d,NA,NA,NA,NA,sdf,0,2,NA,NA,NA,NA,NA,NA,NA,NA,NA,NA,NA,NA,NA,NA,NA,NA,NA,NA,NA
1f500,deep,flow.Sequence,3_0_2_0_7_0,NA,NA,completion,16228.25,410933.29999995,410926.485,410942.832,427171.082,427173,2023-11-24T16:51:41Z,427187.512,NULL,Annäherung,maegesho,d,NA,NA,NA,NA,sdf,NA,2,NA,NA,NA,NA,NA,NA,NA,NA,NA,NA,NA,NA,NA,NA,NA,NA,NA,NA,NA
1f500,shallow,flow.Sequence,3_0_2_0_7_1,NA,NA,skipped,NA,427173.19999999,NA,NA,427171.082,427173.29999995,2023-11-24T16:51:41Z,427187.512,NULL,Annäherung,maegesho,d,NA,NA,NA,NA,sdf,NA,2,NA,NA,NA,NA,NA,NA,NA,NA,NA,NA,NA,NA,NA,NA,NA,NA,NA,NA,NA
1f500,task,flow.Sequence,3_0_2_0_7,NA,NA,completion,16228.25,410933.29999995,410926.485,410942.832,427171.082,427173.59999996,2023-11-24T16:51:41Z,427187.512,NULL,Annäherung,maegesho,d,NA,NA,NA,NA,sdf,NA,2,NA,NA,NA,NA,NA,NA,NA,NA,NA,NA,NA,NA,NA,NA,NA,NA,NA,NA,NA
1f500,block,flow.Loop,3_0_2_0,NA,NA,completion,110727.555,316427.19999999,316421.459,316443.527,427171.082,427174,2023-11-24T16:51:41Z,427187.512,NULL,NA,NA,NA,NA,NA,NA,NA,sdf,NA,2,NA,NA,NA,NA,NA,NA,NA,NA,NA,NA,NA,NA,NA,NA,NA,NA,NA,NA,NA
1f500,weiter,canvas.Screen,3_0_2_1,sdf,keypress(Space),response,1033.1879999881,427174.09999996,427171.082,427187.512,428220.69999999,428222.19999999,2023-11-24T16:51:42Z,428312.765,NULL,NA,NA,NA,NA,NA,NA,NA,sdf,NA,2,NA,NA,NA,NA,NA,NA,NA,NA,NA,NA,NA,NA,NA,NA,NA,NA,NA,NA,NA
1f500,check continue,flow.Sequence,3_0_2,NA,NA,completion,111777.17299999,316427.09999996,316421.459,316443.527,428220.69999999,428222.5,2023-11-24T16:51:42Z,428312.765,NULL,NA,NA,NA,NA,NA,NA,NA,sdf,NA,2,NA,NA,NA,NA,NA,NA,NA,NA,NA,NA,NA,NA,NA,NA,NA,NA,NA,NA,NA
1f500,Deep Question,html.Page,3_0_3_0_0_0_0,NA,NA,form submission,4098.4349999881,428287.19999999,428271.45,428312.765,432411.19999999,432411.59999996,2023-11-24T16:51:46Z,432441.404,NULL,Verzögerung,kuchelewa,d,NA,NA,NA,kuchelewa,NA,NA,3,NA,NA,NA,NA,NA,NA,NA,NA,NA,NA,NA,NA,NA,NA,NA,NA,NA,NA,NA
1f500,"""Richtig""-Screen",canvas.Screen,3_0_3_0_0_0_1,NA,NA,timeout,5003.158,432416.29999995,432408.058,432441.404,437428.234,437430.5,2023-11-24T16:51:51Z,437444.562,NULL,Verzögerung,kuchelewa,d,NA,NA,NA,NA,qt,1,3,NA,NA,NA,NA,NA,NA,NA,NA,NA,NA,NA,NA,NA,NA,NA,NA,NA,NA,NA
1f500,"""Falsch""-Screen",canvas.Screen,3_0_3_0_0_0_2,NA,NA,skipped,NA,437435.59999996,NA,NA,437428.234,437435.89999998,2023-11-24T16:51:51Z,437444.562,NULL,Verzögerung,kuchelewa,d,NA,NA,NA,NA,qt,NA,3,NA,NA,NA,NA,NA,NA,NA,NA,NA,NA,NA,NA,NA,NA,NA,NA,NA,NA,NA
1f500,deep,flow.Sequence,3_0_3_0_0_0,NA,NA,completion,9115.469,428287.19999999,428271.45,428312.765,437428.234,437436.19999999,2023-11-24T16:51:51Z,437444.562,NULL,Verzögerung,kuchelewa,d,NA,NA,NA,NA,qt,NA,3,NA,NA,NA,NA,NA,NA,NA,NA,NA,NA,NA,NA,NA,NA,NA,NA,NA,NA,NA
1f500,shallow,flow.Sequence,3_0_3_0_0_1,NA,NA,skipped,NA,437436.29999995,NA,NA,437428.234,437436.5,2023-11-24T16:51:51Z,437444.562,NULL,Verzögerung,kuchelewa,d,NA,NA,NA,NA,qt,NA,3,NA,NA,NA,NA,NA,NA,NA,NA,NA,NA,NA,NA,NA,NA,NA,NA,NA,NA,NA
1f500,task,flow.Sequence,3_0_3_0_0,NA,NA,completion,9115.469,428287.09999996,428271.45,428312.765,437428.234,437437.89999998,2023-11-24T16:51:51Z,437444.562,NULL,Verzögerung,kuchelewa,d,NA,NA,NA,NA,qt,NA,3,NA,NA,NA,NA,NA,NA,NA,NA,NA,NA,NA,NA,NA,NA,NA,NA,NA,NA,NA
1f500,Deep Question,html.Page,3_0_3_0_1_0_0,NA,NA,form submission,4731.938,437438.39999998,437428.234,437444.562,442176.5,442176.89999998,2023-11-24T16:51:56Z,442181.251,NULL,Annäherung,maegesho,d,NA,NA,NA,mapendano,NA,NA,3,NA,NA,NA,NA,NA,NA,NA,NA,NA,NA,NA,NA,NA,NA,NA,NA,NA,NA,NA
1f500,"""Richtig""-Screen",canvas.Screen,3_0_3_0_1_0_1,NA,NA,skipped,NA,442181.19999999,NA,NA,442176.5,442181.59999996,2023-11-24T16:51:56Z,442181.251,NULL,Annäherung,maegesho,d,NA,NA,NA,NA,qt,NA,3,NA,NA,NA,NA,NA,NA,NA,NA,NA,NA,NA,NA,NA,NA,NA,NA,NA,NA,NA
1f500,"""Falsch""-Screen",canvas.Screen,3_0_3_0_1_0_2,NA,NA,timeout,5003.913,442183.59999996,442165.113,442181.251,447168.402,447169.79999995,2023-11-24T16:52:01Z,447185.164,NULL,Annäherung,maegesho,d,NA,NA,NA,NA,qt,0,3,NA,NA,NA,NA,NA,NA,NA,NA,NA,NA,NA,NA,NA,NA,NA,NA,NA,NA,NA
1f500,deep,flow.Sequence,3_0_3_0_1_0,NA,NA,completion,9723.84,437438.39999998,437428.234,437444.562,447168.402,447170.29999995,2023-11-24T16:52:01Z,447185.164,NULL,Annäherung,maegesho,d,NA,NA,NA,NA,qt,NA,3,NA,NA,NA,NA,NA,NA,NA,NA,NA,NA,NA,NA,NA,NA,NA,NA,NA,NA,NA
1f500,shallow,flow.Sequence,3_0_3_0_1_1,NA,NA,skipped,NA,447170.5,NA,NA,447168.402,447170.59999996,2023-11-24T16:52:01Z,447185.164,NULL,Annäherung,maegesho,d,NA,NA,NA,NA,qt,NA,3,NA,NA,NA,NA,NA,NA,NA,NA,NA,NA,NA,NA,NA,NA,NA,NA,NA,NA,NA
1f500,task,flow.Sequence,3_0_3_0_1,NA,NA,completion,9723.84,437438.29999995,437428.234,437444.562,447168.402,447170.79999995,2023-11-24T16:52:01Z,447185.164,NULL,Annäherung,maegesho,d,NA,NA,NA,NA,qt,NA,3,NA,NA,NA,NA,NA,NA,NA,NA,NA,NA,NA,NA,NA,NA,NA,NA,NA,NA,NA
1f500,Deep Question,html.Page,3_0_3_0_2_0_0,NA,NA,form submission,18387.836,447171.19999999,447168.402,447185.164,465573,465573.5,2023-11-24T16:52:19Z,465580.919,NULL,Sympathie,mapendano,d,NA,NA,NA,mapendano,NA,NA,3,NA,NA,NA,NA,NA,NA,NA,NA,NA,NA,NA,NA,NA,NA,NA,NA,NA,NA,NA
1f500,"""Richtig""-Screen",canvas.Screen,3_0_3_0_2_0_1,NA,NA,timeout,5003.697,465581.29999995,465566.269,465580.919,470567.782,470568.5,2023-11-24T16:52:24Z,470584.616,NULL,Sympathie,mapendano,d,NA,NA,NA,NA,qt,1,3,NA,NA,NA,NA,NA,NA,NA,NA,NA,NA,NA,NA,NA,NA,NA,NA,NA,NA,NA
1f500,"""Falsch""-Screen",canvas.Screen,3_0_3_0_2_0_2,NA,NA,skipped,NA,470571.29999995,NA,NA,470567.782,470571.5,2023-11-24T16:52:24Z,470584.616,NULL,Sympathie,mapendano,d,NA,NA,NA,NA,qt,NA,3,NA,NA,NA,NA,NA,NA,NA,NA,NA,NA,NA,NA,NA,NA,NA,NA,NA,NA,NA
1f500,deep,flow.Sequence,3_0_3_0_2_0,NA,NA,completion,23382.618,447171.09999996,447168.402,447185.164,470567.782,470571.59999996,2023-11-24T16:52:24Z,470584.616,NULL,Sympathie,mapendano,d,NA,NA,NA,NA,qt,NA,3,NA,NA,NA,NA,NA,NA,NA,NA,NA,NA,NA,NA,NA,NA,NA,NA,NA,NA,NA
1f500,shallow,flow.Sequence,3_0_3_0_2_1,NA,NA,skipped,NA,470571.69999999,NA,NA,470567.782,470571.79999995,2023-11-24T16:52:24Z,470584.616,NULL,Sympathie,mapendano,d,NA,NA,NA,NA,qt,NA,3,NA,NA,NA,NA,NA,NA,NA,NA,NA,NA,NA,NA,NA,NA,NA,NA,NA,NA,NA
1f500,task,flow.Sequence,3_0_3_0_2,NA,NA,completion,23382.618,447171,447168.402,447185.164,470567.782,470571.89999998,2023-11-24T16:52:24Z,470584.616,NULL,Sympathie,mapendano,d,NA,NA,NA,NA,qt,NA,3,NA,NA,NA,NA,NA,NA,NA,NA,NA,NA,NA,NA,NA,NA,NA,NA,NA,NA,NA
1f500,deep,flow.Sequence,3_0_3_0_3_0,NA,NA,skipped,NA,470572,NA,NA,470567.782,470572,2023-11-24T16:52:24Z,470584.616,NULL,Prüfung,mtihani,s,mkulima,mtizamo,ufumbuzi,NA,qt,NA,3,NA,NA,NA,NA,NA,NA,NA,NA,NA,NA,NA,NA,NA,NA,NA,NA,NA,NA,NA
1f500,Shallow Question,html.Page,3_0_3_0_3_1_0,NA,NA,form submission,4394.4839999643,470572.09999996,470567.782,470584.616,474979.09999996,474979.5,2023-11-24T16:52:28Z,474987.441,NULL,Prüfung,mtihani,s,mkulima,mtizamo,ufumbuzi,mtihani,NA,NA,3,NA,NA,NA,NA,NA,NA,NA,NA,NA,NA,NA,NA,NA,NA,NA,NA,NA,NA,NA
1f500,"""Richtig""-Screen",canvas.Screen,3_0_3_0_3_1_1,NA,NA,timeout,5003.784,474984.59999996,474971.084,474987.441,479974.581,479976,2023-11-24T16:52:33Z,479991.225,NULL,Prüfung,mtihani,s,mkulima,mtizamo,ufumbuzi,NA,qt,1,3,NA,NA,NA,NA,NA,NA,NA,NA,NA,NA,NA,NA,NA,NA,NA,NA,NA,NA,NA
1f500,"""Falsch""-Screen",canvas.Screen,3_0_3_0_3_1_2,NA,NA,skipped,NA,479982.5,NA,NA,479974.581,479982.89999998,2023-11-24T16:52:33Z,479991.225,NULL,Prüfung,mtihani,s,mkulima,mtizamo,ufumbuzi,NA,qt,NA,3,NA,NA,NA,NA,NA,NA,NA,NA,NA,NA,NA,NA,NA,NA,NA,NA,NA,NA,NA
1f500,shallow,flow.Sequence,3_0_3_0_3_1,NA,NA,completion,9389.965,470572,470567.782,470584.616,479974.581,479983.19999999,2023-11-24T16:52:33Z,479991.225,NULL,Prüfung,mtihani,s,mkulima,mtizamo,ufumbuzi,NA,qt,NA,3,NA,NA,NA,NA,NA,NA,NA,NA,NA,NA,NA,NA,NA,NA,NA,NA,NA,NA,NA
1f500,task,flow.Sequence,3_0_3_0_3,NA,NA,completion,9389.965,470572,470567.782,470584.616,479974.581,479983.29999995,2023-11-24T16:52:33Z,479991.225,NULL,Prüfung,mtihani,s,mkulima,mtizamo,ufumbuzi,NA,qt,NA,3,NA,NA,NA,NA,NA,NA,NA,NA,NA,NA,NA,NA,NA,NA,NA,NA,NA,NA,NA
1f500,Deep Question,html.Page,3_0_3_0_4_0_0,NA,NA,form submission,7342.0749999523,479983.5,479974.581,479991.225,487333.29999995,487333.69999999,2023-11-24T16:52:41Z,487346.159,NULL,Kultur,utamaduni,d,NA,NA,NA,nengishi,NA,NA,3,NA,NA,NA,NA,NA,NA,NA,NA,NA,NA,NA,NA,NA,NA,NA,NA,NA,NA,NA
1f500,"""Richtig""-Screen",canvas.Screen,3_0_3_0_4_0_1,NA,NA,skipped,NA,487339.19999999,NA,NA,487333.29999995,487339.5,2023-11-24T16:52:41Z,487346.159,NULL,Kultur,utamaduni,d,NA,NA,NA,NA,qt,NA,3,NA,NA,NA,NA,NA,NA,NA,NA,NA,NA,NA,NA,NA,NA,NA,NA,NA,NA,NA
1f500,"""Falsch""-Screen",canvas.Screen,3_0_3_0_4_0_2,NA,NA,timeout,5003.41,487341.29999995,487331.965,487346.159,492333.198,492334.59999996,2023-11-24T16:52:46Z,492349.569,NULL,Kultur,utamaduni,d,NA,NA,NA,NA,qt,0,3,NA,NA,NA,NA,NA,NA,NA,NA,NA,NA,NA,NA,NA,NA,NA,NA,NA,NA,NA
1f500,deep,flow.Sequence,3_0_3_0_4_0,NA,NA,completion,12341.973,479983.5,479974.581,479991.225,492333.198,492335.09999996,2023-11-24T16:52:46Z,492349.569,NULL,Kultur,utamaduni,d,NA,NA,NA,NA,qt,NA,3,NA,NA,NA,NA,NA,NA,NA,NA,NA,NA,NA,NA,NA,NA,NA,NA,NA,NA,NA
1f500,shallow,flow.Sequence,3_0_3_0_4_1,NA,NA,skipped,NA,492335.19999999,NA,NA,492333.198,492335.5,2023-11-24T16:52:46Z,492349.569,NULL,Kultur,utamaduni,d,NA,NA,NA,NA,qt,NA,3,NA,NA,NA,NA,NA,NA,NA,NA,NA,NA,NA,NA,NA,NA,NA,NA,NA,NA,NA
1f500,task,flow.Sequence,3_0_3_0_4,NA,NA,completion,12341.973,479983.39999998,479974.581,479991.225,492333.198,492335.69999999,2023-11-24T16:52:46Z,492349.569,NULL,Kultur,utamaduni,d,NA,NA,NA,NA,qt,NA,3,NA,NA,NA,NA,NA,NA,NA,NA,NA,NA,NA,NA,NA,NA,NA,NA,NA,NA,NA
1f500,deep,flow.Sequence,3_0_3_0_5_0,NA,NA,skipped,NA,492335.89999998,NA,NA,492333.198,492336,2023-11-24T16:52:46Z,492349.569,NULL,Beweis,ushahidi,s,marudio,kizuizi,mtendaji,NA,qt,NA,3,NA,NA,NA,NA,NA,NA,NA,NA,NA,NA,NA,NA,NA,NA,NA,NA,NA,NA,NA
1f500,Shallow Question,html.Page,3_0_3_0_5_1_0,NA,NA,form submission,16258.330999976,492336.29999995,492333.198,492349.569,508607.89999998,508608.5,2023-11-24T16:53:02Z,508610.91,NULL,Beweis,ushahidi,s,marudio,kizuizi,mtendaji,ushahidi,NA,NA,3,NA,NA,NA,NA,NA,NA,NA,NA,NA,NA,NA,NA,NA,NA,NA,NA,NA,NA,NA
1f500,"""Richtig""-Screen",canvas.Screen,3_0_3_0_5_1_1,NA,NA,timeout,5006.374,508615.19999999,508594.637,508610.91,513598.075,513599.5,2023-11-24T16:53:07Z,513617.284,NULL,Beweis,ushahidi,s,marudio,kizuizi,mtendaji,NA,qt,1,3,NA,NA,NA,NA,NA,NA,NA,NA,NA,NA,NA,NA,NA,NA,NA,NA,NA,NA,NA
1f500,"""Falsch""-Screen",canvas.Screen,3_0_3_0_5_1_2,NA,NA,skipped,NA,513605.29999995,NA,NA,513598.075,513605.59999996,2023-11-24T16:53:07Z,513617.284,NULL,Beweis,ushahidi,s,marudio,kizuizi,mtendaji,NA,qt,NA,3,NA,NA,NA,NA,NA,NA,NA,NA,NA,NA,NA,NA,NA,NA,NA,NA,NA,NA,NA
1f500,shallow,flow.Sequence,3_0_3_0_5_1,NA,NA,completion,21248.506,492336.19999999,492333.198,492349.569,513598.075,513606,2023-11-24T16:53:07Z,513617.284,NULL,Beweis,ushahidi,s,marudio,kizuizi,mtendaji,NA,qt,NA,3,NA,NA,NA,NA,NA,NA,NA,NA,NA,NA,NA,NA,NA,NA,NA,NA,NA,NA,NA
1f500,task,flow.Sequence,3_0_3_0_5,NA,NA,completion,21248.506,492335.79999995,492333.198,492349.569,513598.075,513606.09999996,2023-11-24T16:53:07Z,513617.284,NULL,Beweis,ushahidi,s,marudio,kizuizi,mtendaji,NA,qt,NA,3,NA,NA,NA,NA,NA,NA,NA,NA,NA,NA,NA,NA,NA,NA,NA,NA,NA,NA,NA
1f500,deep,flow.Sequence,3_0_3_0_6_0,NA,NA,skipped,NA,513606.29999995,NA,NA,513598.075,513606.39999998,2023-11-24T16:53:07Z,513617.284,NULL,Aufstand,ugomaji,s,mazidio,msingi,kujieleza,NA,qt,NA,3,NA,NA,NA,NA,NA,NA,NA,NA,NA,NA,NA,NA,NA,NA,NA,NA,NA,NA,NA
1f500,Shallow Question,html.Page,3_0_3_0_6_1_0,NA,NA,form submission,5468.8159999643,513606.5,513598.075,513617.284,519086.09999996,519086.5,2023-11-24T16:53:13Z,519101.536,NULL,Aufstand,ugomaji,s,mazidio,msingi,kujieleza,ugomaji,NA,NA,3,NA,NA,NA,NA,NA,NA,NA,NA,NA,NA,NA,NA,NA,NA,NA,NA,NA,NA,NA
1f500,"""Richtig""-Screen",canvas.Screen,3_0_3_0_6_1_1,NA,NA,timeout,5003.575,519092.09999996,519068.307,519101.536,524088.725,524090.29999995,2023-11-24T16:53:18Z,524105.111,NULL,Aufstand,ugomaji,s,mazidio,msingi,kujieleza,NA,qt,1,3,NA,NA,NA,NA,NA,NA,NA,NA,NA,NA,NA,NA,NA,NA,NA,NA,NA,NA,NA
1f500,"""Falsch""-Screen",canvas.Screen,3_0_3_0_6_1_2,NA,NA,skipped,NA,524095,NA,NA,524088.725,524095.29999995,2023-11-24T16:53:18Z,524105.111,NULL,Aufstand,ugomaji,s,mazidio,msingi,kujieleza,NA,qt,NA,3,NA,NA,NA,NA,NA,NA,NA,NA,NA,NA,NA,NA,NA,NA,NA,NA,NA,NA,NA
1f500,shallow,flow.Sequence,3_0_3_0_6_1,NA,NA,completion,10471.441,513606.39999998,513598.075,513617.284,524088.725,524095.5,2023-11-24T16:53:18Z,524105.111,NULL,Aufstand,ugomaji,s,mazidio,msingi,kujieleza,NA,qt,NA,3,NA,NA,NA,NA,NA,NA,NA,NA,NA,NA,NA,NA,NA,NA,NA,NA,NA,NA,NA
1f500,task,flow.Sequence,3_0_3_0_6,NA,NA,completion,10471.441,513606.19999999,513598.075,513617.284,524088.725,524095.69999999,2023-11-24T16:53:18Z,524105.111,NULL,Aufstand,ugomaji,s,mazidio,msingi,kujieleza,NA,qt,NA,3,NA,NA,NA,NA,NA,NA,NA,NA,NA,NA,NA,NA,NA,NA,NA,NA,NA,NA,NA
1f500,deep,flow.Sequence,3_0_3_0_7_0,NA,NA,skipped,NA,524095.79999995,NA,NA,524088.725,524096,2023-11-24T16:53:18Z,524105.111,NULL,Polizist,msongora,s,simanzi,mandhari,nidhamu,NA,qt,NA,3,NA,NA,NA,NA,NA,NA,NA,NA,NA,NA,NA,NA,NA,NA,NA,NA,NA,NA,NA
1f500,Shallow Question,html.Page,3_0_3_0_7_1_0,NA,NA,form submission,12003.188999952,524096.09999996,524088.725,524105.111,536108.29999995,536108.79999995,2023-11-24T16:53:30Z,536113.419,NULL,Polizist,msongora,s,simanzi,mandhari,nidhamu,msongora,NA,NA,3,NA,NA,NA,NA,NA,NA,NA,NA,NA,NA,NA,NA,NA,NA,NA,NA,NA,NA,NA
1f500,"""Richtig""-Screen",canvas.Screen,3_0_3_0_7_1_1,NA,NA,timeout,5004.098,536114.19999999006,536097.003,536113.419,541100.559,541101.79999995,2023-11-24T16:53:35Z,541117.517,NULL,Polizist,msongora,s,simanzi,mandhari,nidhamu,NA,qt,1,3,NA,NA,NA,NA,NA,NA,NA,NA,NA,NA,NA,NA,NA,NA,NA,NA,NA,NA,NA
1f500,"""Falsch""-Screen",canvas.Screen,3_0_3_0_7_1_2,NA,NA,skipped,NA,541107.29999995,NA,NA,541100.559,541107.59999996,2023-11-24T16:53:35Z,541117.517,NULL,Polizist,msongora,s,simanzi,mandhari,nidhamu,NA,qt,NA,3,NA,NA,NA,NA,NA,NA,NA,NA,NA,NA,NA,NA,NA,NA,NA,NA,NA,NA,NA
1f500,shallow,flow.Sequence,3_0_3_0_7_1,NA,NA,completion,16995.448,524096,524088.725,524105.111,541100.559,541107.79999995,2023-11-24T16:53:35Z,541117.517,NULL,Polizist,msongora,s,simanzi,mandhari,nidhamu,NA,qt,NA,3,NA,NA,NA,NA,NA,NA,NA,NA,NA,NA,NA,NA,NA,NA,NA,NA,NA,NA,NA
1f500,task,flow.Sequence,3_0_3_0_7,NA,NA,completion,16995.448,524095.79999995,524088.725,524105.111,541100.559,541108,2023-11-24T16:53:35Z,541117.517,NULL,Polizist,msongora,s,simanzi,mandhari,nidhamu,NA,qt,NA,3,NA,NA,NA,NA,NA,NA,NA,NA,NA,NA,NA,NA,NA,NA,NA,NA,NA,NA,NA
1f500,block,flow.Loop,3_0_3_0,NA,NA,completion,112787.794,428287.09999996,428271.45,428312.765,541100.559,541108.19999999006,2023-11-24T16:53:35Z,541117.517,NULL,NA,NA,NA,NA,NA,NA,NA,qt,NA,3,NA,NA,NA,NA,NA,NA,NA,NA,NA,NA,NA,NA,NA,NA,NA,NA,NA,NA,NA
1f500,weiter,canvas.Screen,3_0_3_1,sdf,keypress(Space),response,1064.0829999642,541108.29999995,541100.559,541117.517,542181.59999996,542183.89999998,2023-11-24T16:53:36Z,543051.598,NULL,NA,NA,NA,NA,NA,NA,NA,qt,NA,3,NA,NA,NA,NA,NA,NA,NA,NA,NA,NA,NA,NA,NA,NA,NA,NA,NA,NA,NA
1f500,check continue,flow.Sequence,3_0_3,NA,NA,completion,113868.83499996,428287.09999996,428271.45,428312.765,542181.59999996,542184.19999999006,2023-11-24T16:53:36Z,543051.598,NULL,NA,NA,NA,NA,NA,NA,NA,qt,NA,3,NA,NA,NA,NA,NA,NA,NA,NA,NA,NA,NA,NA,NA,NA,NA,NA,NA,NA,NA
1f500,check continue,flow.Sequence,3_0_4,NA,NA,skipped,NA,542254.09999996,NA,NA,542181.59999996,542254.19999999006,2023-11-24T16:53:36Z,543051.598,NULL,NA,NA,NA,NA,NA,NA,NA,sd,NA,4,NA,NA,NA,NA,NA,NA,NA,NA,NA,NA,NA,NA,NA,NA,NA,NA,NA,NA,NA
1f500,check continue,flow.Sequence,3_0_5,NA,NA,skipped,NA,542282,NA,NA,542181.59999996,542282.09999996,2023-11-24T16:53:36Z,543051.598,NULL,NA,NA,NA,NA,NA,NA,NA,sdf,NA,5,NA,NA,NA,NA,NA,NA,NA,NA,NA,NA,NA,NA,NA,NA,NA,NA,NA,NA,NA
1f500,check continue,flow.Sequence,3_0_6,NA,NA,skipped,NA,542331.39999998,NA,NA,542181.59999996,542331.59999996,2023-11-24T16:53:36Z,543051.598,NULL,NA,NA,NA,NA,NA,NA,NA,dfs,NA,6,NA,NA,NA,NA,NA,NA,NA,NA,NA,NA,NA,NA,NA,NA,NA,NA,NA,NA,NA
1f500,check continue,flow.Sequence,3_0_7,NA,NA,skipped,NA,542359.79999995,NA,NA,542181.59999996,542359.89999998,2023-11-24T16:53:36Z,543051.598,NULL,NA,NA,NA,NA,NA,NA,NA,df,NA,7,NA,NA,NA,NA,NA,NA,NA,NA,NA,NA,NA,NA,NA,NA,NA,NA,NA,NA,NA
1f500,check continue,flow.Sequence,3_0_8,NA,NA,skipped,NA,542387.19999999006,NA,NA,542181.59999996,542387.39999998,2023-11-24T16:53:36Z,543051.598,NULL,NA,NA,NA,NA,NA,NA,NA,dfs,NA,8,NA,NA,NA,NA,NA,NA,NA,NA,NA,NA,NA,NA,NA,NA,NA,NA,NA,NA,NA
1f500,check continue,flow.Sequence,3_0_9,NA,NA,skipped,NA,542417.09999996,NA,NA,542181.59999996,542417.39999998,2023-11-24T16:53:36Z,543051.598,NULL,NA,NA,NA,NA,NA,NA,NA,dsf,NA,9,NA,NA,NA,NA,NA,NA,NA,NA,NA,NA,NA,NA,NA,NA,NA,NA,NA,NA,NA
1f500,check continue,flow.Sequence,3_0_10,NA,NA,skipped,NA,542447.09999996,NA,NA,542181.59999996,542447.19999999006,2023-11-24T16:53:36Z,543051.598,NULL,NA,NA,NA,NA,NA,NA,NA,df,NA,10,NA,NA,NA,NA,NA,NA,NA,NA,NA,NA,NA,NA,NA,NA,NA,NA,NA,NA,NA
1f500,check continue,flow.Sequence,3_0_11,NA,NA,skipped,NA,542467.19999999006,NA,NA,542181.59999996,542467.19999999006,2023-11-24T16:53:36Z,543051.598,NULL,NA,NA,NA,NA,NA,NA,NA,dfs,NA,11,NA,NA,NA,NA,NA,NA,NA,NA,NA,NA,NA,NA,NA,NA,NA,NA,NA,NA,NA
1f500,check continue,flow.Sequence,3_0_12,NA,NA,skipped,NA,542489.29999995,NA,NA,542181.59999996,542489.39999998,2023-11-24T16:53:36Z,543051.598,NULL,NA,NA,NA,NA,NA,NA,NA,dsf,NA,12,NA,NA,NA,NA,NA,NA,NA,NA,NA,NA,NA,NA,NA,NA,NA,NA,NA,NA,NA
1f500,check continue,flow.Sequence,3_0_13,NA,NA,skipped,NA,542509.89999998,NA,NA,542181.59999996,542509.89999998,2023-11-24T16:53:36Z,543051.598,NULL,NA,NA,NA,NA,NA,NA,NA,dsf,NA,13,NA,NA,NA,NA,NA,NA,NA,NA,NA,NA,NA,NA,NA,NA,NA,NA,NA,NA,NA
1f500,check continue,flow.Sequence,3_0_14,NA,NA,skipped,NA,542532.19999999006,NA,NA,542181.59999996,542532.39999998,2023-11-24T16:53:36Z,543051.598,NULL,NA,NA,NA,NA,NA,NA,NA,NA,NA,14,NA,NA,NA,NA,NA,NA,NA,NA,NA,NA,NA,NA,NA,NA,NA,NA,NA,NA,NA
1f500,check continue,flow.Sequence,3_0_15,NA,NA,skipped,NA,542558.09999996,NA,NA,542181.59999996,542558.19999999006,2023-11-24T16:53:36Z,543051.598,NULL,NA,NA,NA,NA,NA,NA,NA,NA,NA,15,NA,NA,NA,NA,NA,NA,NA,NA,NA,NA,NA,NA,NA,NA,NA,NA,NA,NA,NA
1f500,check continue,flow.Sequence,3_0_16,NA,NA,skipped,NA,542583.39999998,NA,NA,542181.59999996,542583.59999996,2023-11-24T16:53:36Z,543051.598,NULL,NA,NA,NA,NA,NA,NA,NA,NA,NA,16,NA,NA,NA,NA,NA,NA,NA,NA,NA,NA,NA,NA,NA,NA,NA,NA,NA,NA,NA
1f500,check continue,flow.Sequence,3_0_17,NA,NA,skipped,NA,542617.09999996,NA,NA,542181.59999996,542617.29999995,2023-11-24T16:53:36Z,543051.598,NULL,NA,NA,NA,NA,NA,NA,NA,NA,NA,17,NA,NA,NA,NA,NA,NA,NA,NA,NA,NA,NA,NA,NA,NA,NA,NA,NA,NA,NA
1f500,check continue,flow.Sequence,3_0_18,NA,NA,skipped,NA,542641.39999998,NA,NA,542181.59999996,542641.5,2023-11-24T16:53:36Z,543051.598,NULL,NA,NA,NA,NA,NA,NA,NA,NA,NA,18,NA,NA,NA,NA,NA,NA,NA,NA,NA,NA,NA,NA,NA,NA,NA,NA,NA,NA,NA
1f500,check continue,flow.Sequence,3_0_19,NA,NA,skipped,NA,542666.5,NA,NA,542181.59999996,542666.69999999006,2023-11-24T16:53:36Z,543051.598,NULL,NA,NA,NA,NA,NA,NA,NA,NA,NA,19,NA,NA,NA,NA,NA,NA,NA,NA,NA,NA,NA,NA,NA,NA,NA,NA,NA,NA,NA
1f500,check continue,flow.Sequence,3_0_20,NA,NA,skipped,NA,542704.09999996,NA,NA,542181.59999996,542704.29999995,2023-11-24T16:53:36Z,543051.598,NULL,NA,NA,NA,NA,NA,NA,NA,NA,NA,20,NA,NA,NA,NA,NA,NA,NA,NA,NA,NA,NA,NA,NA,NA,NA,NA,NA,NA,NA
1f500,check continue,flow.Sequence,3_0_21,NA,NA,skipped,NA,542736.09999996,NA,NA,542181.59999996,542736.29999995,2023-11-24T16:53:36Z,543051.598,NULL,NA,NA,NA,NA,NA,NA,NA,NA,NA,21,NA,NA,NA,NA,NA,NA,NA,NA,NA,NA,NA,NA,NA,NA,NA,NA,NA,NA,NA
1f500,check continue,flow.Sequence,3_0_22,NA,NA,skipped,NA,542774.89999998,NA,NA,542181.59999996,542775.09999996,2023-11-24T16:53:36Z,543051.598,NULL,NA,NA,NA,NA,NA,NA,NA,NA,NA,22,NA,NA,NA,NA,NA,NA,NA,NA,NA,NA,NA,NA,NA,NA,NA,NA,NA,NA,NA
1f500,check continue,flow.Sequence,3_0_23,NA,NA,skipped,NA,542802.39999998,NA,NA,542181.59999996,542802.59999996,2023-11-24T16:53:36Z,543051.598,NULL,NA,NA,NA,NA,NA,NA,NA,NA,NA,23,NA,NA,NA,NA,NA,NA,NA,NA,NA,NA,NA,NA,NA,NA,NA,NA,NA,NA,NA
1f500,check continue,flow.Sequence,3_0_24,NA,NA,skipped,NA,542833.89999998,NA,NA,542181.59999996,542834.09999996,2023-11-24T16:53:36Z,543051.598,NULL,NA,NA,NA,NA,NA,NA,NA,NA,NA,24,NA,NA,NA,NA,NA,NA,NA,NA,NA,NA,NA,NA,NA,NA,NA,NA,NA,NA,NA
1f500,check continue,flow.Sequence,3_0_25,NA,NA,skipped,NA,542862.19999999006,NA,NA,542181.59999996,542862.39999998,2023-11-24T16:53:36Z,543051.598,NULL,NA,NA,NA,NA,NA,NA,NA,NA,NA,25,NA,NA,NA,NA,NA,NA,NA,NA,NA,NA,NA,NA,NA,NA,NA,NA,NA,NA,NA
1f500,check continue,flow.Sequence,3_0_26,NA,NA,skipped,NA,542898.09999996,NA,NA,542181.59999996,542898.29999995,2023-11-24T16:53:36Z,543051.598,NULL,NA,NA,NA,NA,NA,NA,NA,NA,NA,26,NA,NA,NA,NA,NA,NA,NA,NA,NA,NA,NA,NA,NA,NA,NA,NA,NA,NA,NA
1f500,check continue,flow.Sequence,3_0_27,NA,NA,skipped,NA,542931.5,NA,NA,542181.59999996,542931.79999995,2023-11-24T16:53:36Z,543051.598,NULL,NA,NA,NA,NA,NA,NA,NA,NA,NA,27,NA,NA,NA,NA,NA,NA,NA,NA,NA,NA,NA,NA,NA,NA,NA,NA,NA,NA,NA
1f500,check continue,flow.Sequence,3_0_28,NA,NA,skipped,NA,542957.19999999006,NA,NA,542181.59999996,542957.39999998,2023-11-24T16:53:36Z,543051.598,NULL,NA,NA,NA,NA,NA,NA,NA,NA,NA,28,NA,NA,NA,NA,NA,NA,NA,NA,NA,NA,NA,NA,NA,NA,NA,NA,NA,NA,NA
1f500,check continue,flow.Sequence,3_0_29,NA,NA,skipped,NA,542989,NA,NA,542181.59999996,542989.09999996,2023-11-24T16:53:36Z,543051.598,NULL,NA,NA,NA,NA,NA,NA,NA,NA,NA,29,NA,NA,NA,NA,NA,NA,NA,NA,NA,NA,NA,NA,NA,NA,NA,NA,NA,NA,NA
1f500,until continue,flow.Loop,3_0,NA,NA,completion,439620.54699996,102515.59999996,102542.145,102561.053,542181.59999996,542989.29999995,2023-11-24T16:53:36Z,543051.598,NULL,NA,NA,NA,NA,NA,NA,NA,NA,NA,NA,NA,NA,NA,NA,NA,NA,NA,NA,NA,NA,NA,NA,NA,NA,NA,NA,NA,NA,NA
1f500,block 1,flow.Sequence,3,NA,NA,completion,439620.54699996,102515.59999996,102542.145,102561.053,542181.59999996,542989.39999998,2023-11-24T16:53:36Z,543051.598,NULL,NA,NA,NA,NA,NA,NA,NA,NA,NA,NA,NA,NA,NA,NA,NA,NA,NA,NA,NA,NA,NA,NA,NA,NA,NA,NA,NA,NA,NA
1f500,1.Part Over,canvas.Screen,4,NA,keypress(Space),response,NA,542989.39999998,NA,NA,542910.29999995,542990.79999995,2023-11-24T16:53:36Z,543051.598,NULL,NA,NA,NA,NA,NA,NA,NA,NA,NA,NA,NA,NA,NA,NA,NA,NA,NA,NA,NA,NA,NA,NA,NA,NA,NA,NA,NA,NA,NA
1f500,deep,flow.Sequence,5_0_0_0_0_0,NA,NA,skipped,NA,543057.09999996,NA,NA,542910.29999995,543057.19999999006,2023-11-24T16:53:37Z,543051.598,NULL,Angreifer,mshambulizi,s,kitengo,tasinia,usafirishaji,NA,sdf,NA,0,NA,NA,NA,NA,NA,NA,NA,NA,NA,NA,NA,NA,NA,NA,NA,NA,NA,NA,NA
1f500,Shallow Question,html.Page,5_0_0_0_0_1_0,NA,NA,form submission,11674.201999952,543057.29999995,542168.587,543051.598,554725.79999995,554726.09999996,2023-11-24T16:53:48Z,554726.394,NULL,Angreifer,mshambulizi,s,kitengo,tasinia,usafirishaji,kitengo,NA,NA,0,NA,NA,NA,NA,NA,NA,NA,NA,NA,NA,NA,NA,NA,NA,NA,NA,NA,NA,NA
1f500,"""Richtig""-Screen",canvas.Screen,5_0_0_0_0_1_1,NA,NA,skipped,NA,554732.5,NA,NA,554725.79999995,554732.79999995,2023-11-24T16:53:48Z,554726.394,NULL,Angreifer,mshambulizi,s,kitengo,tasinia,usafirishaji,NA,sdf,NA,0,NA,NA,NA,NA,NA,NA,NA,NA,NA,NA,NA,NA,NA,NA,NA,NA,NA,NA,NA
1f500,"""Falsch""-Screen",canvas.Screen,5_0_0_0_0_1_2,NA,NA,timeout,5004.099,554733.89999998,554709.863,554726.394,559713.529,559714.89999998,2023-11-24T16:53:53Z,559730.493,NULL,Angreifer,mshambulizi,s,kitengo,tasinia,usafirishaji,NA,sdf,0,0,NA,NA,NA,NA,NA,NA,NA,NA,NA,NA,NA,NA,NA,NA,NA,NA,NA,NA,NA
1f500,shallow,flow.Sequence,5_0_0_0_0_1,NA,NA,completion,16661.931,543057.29999995,542168.587,543051.598,559713.529,559715.29999995,2023-11-24T16:53:53Z,559730.493,NULL,Angreifer,mshambulizi,s,kitengo,tasinia,usafirishaji,NA,sdf,NA,0,NA,NA,NA,NA,NA,NA,NA,NA,NA,NA,NA,NA,NA,NA,NA,NA,NA,NA,NA
1f500,task,flow.Sequence,5_0_0_0_0,NA,NA,completion,16661.931,543057.09999996,542168.587,543051.598,559713.529,559715.5,2023-11-24T16:53:53Z,559730.493,NULL,Angreifer,mshambulizi,s,kitengo,tasinia,usafirishaji,NA,sdf,NA,0,NA,NA,NA,NA,NA,NA,NA,NA,NA,NA,NA,NA,NA,NA,NA,NA,NA,NA,NA
1f500,Deep Question,html.Page,5_0_0_0_1_0_0,NA,NA,form submission,4973.8069999523,559715.79999995,559713.529,559730.493,564704.29999995,564704.69999999006,2023-11-24T16:53:58Z,564716.69,NULL,Kanzler,diwani,d,NA,NA,NA,k,NA,NA,0,NA,NA,NA,NA,NA,NA,NA,NA,NA,NA,NA,NA,NA,NA,NA,NA,NA,NA,NA
1f500,"""Richtig""-Screen",canvas.Screen,5_0_0_0_1_0_1,NA,NA,skipped,NA,564709.59999996,NA,NA,564704.29999995,564709.89999998,2023-11-24T16:53:58Z,564716.69,NULL,Kanzler,diwani,d,NA,NA,NA,NA,sdf,NA,0,NA,NA,NA,NA,NA,NA,NA,NA,NA,NA,NA,NA,NA,NA,NA,NA,NA,NA,NA
1f500,"""Falsch""-Screen",canvas.Screen,5_0_0_0_1_0_2,NA,NA,timeout,5003.6360000001,564711.19999999006,564700.325,564716.69,569703.88,569705.59999996,2023-11-24T16:54:03Z,569720.326,NULL,Kanzler,diwani,d,NA,NA,NA,NA,sdf,0,0,NA,NA,NA,NA,NA,NA,NA,NA,NA,NA,NA,NA,NA,NA,NA,NA,NA,NA,NA
1f500,deep,flow.Sequence,5_0_0_0_1_0,NA,NA,completion,9973.387,559715.79999995,559713.529,559730.493,569703.88,569706.09999996,2023-11-24T16:54:03Z,569720.326,NULL,Kanzler,diwani,d,NA,NA,NA,NA,sdf,NA,0,NA,NA,NA,NA,NA,NA,NA,NA,NA,NA,NA,NA,NA,NA,NA,NA,NA,NA,NA
1f500,shallow,flow.Sequence,5_0_0_0_1_1,NA,NA,skipped,NA,569706.39999998,NA,NA,569703.88,569706.5,2023-11-24T16:54:03Z,569720.326,NULL,Kanzler,diwani,d,NA,NA,NA,NA,sdf,NA,0,NA,NA,NA,NA,NA,NA,NA,NA,NA,NA,NA,NA,NA,NA,NA,NA,NA,NA,NA
1f500,task,flow.Sequence,5_0_0_0_1,NA,NA,completion,9973.387,559715.69999999006,559713.529,559730.493,569703.88,569706.59999996,2023-11-24T16:54:03Z,569720.326,NULL,Kanzler,diwani,d,NA,NA,NA,NA,sdf,NA,0,NA,NA,NA,NA,NA,NA,NA,NA,NA,NA,NA,NA,NA,NA,NA,NA,NA,NA,NA
1f500,Deep Question,html.Page,5_0_0_0_2_0_0,NA,NA,form submission,6006.5739999762,569706.69999999006,569703.88,569720.326,575726.89999998,575727.39999998,2023-11-24T16:54:09Z,575757.806,NULL,Abrechnung,uhasibu,d,NA,NA,NA,j,NA,NA,0,NA,NA,NA,NA,NA,NA,NA,NA,NA,NA,NA,NA,NA,NA,NA,NA,NA,NA,NA
1f500,"""Richtig""-Screen",canvas.Screen,5_0_0_0_2_0_1,NA,NA,skipped,NA,575733.09999996,NA,NA,575726.89999998,575733.39999998,2023-11-24T16:54:09Z,575757.806,NULL,Abrechnung,uhasibu,d,NA,NA,NA,NA,sdf,NA,0,NA,NA,NA,NA,NA,NA,NA,NA,NA,NA,NA,NA,NA,NA,NA,NA,NA,NA,NA
1f500,"""Falsch""-Screen",canvas.Screen,5_0_0_0_2_0_2,NA,NA,timeout,5003.448,575735.29999995,575724.898,575757.806,580744.909,580747.19999999006,2023-11-24T16:54:14Z,580761.254,NULL,Abrechnung,uhasibu,d,NA,NA,NA,NA,sdf,0,0,NA,NA,NA,NA,NA,NA,NA,NA,NA,NA,NA,NA,NA,NA,NA,NA,NA,NA,NA
1f500,deep,flow.Sequence,5_0_0_0_2_0,NA,NA,completion,11024.583,569706.69999999006,569703.88,569720.326,580744.909,580747.69999999006,2023-11-24T16:54:14Z,580761.254,NULL,Abrechnung,uhasibu,d,NA,NA,NA,NA,sdf,NA,0,NA,NA,NA,NA,NA,NA,NA,NA,NA,NA,NA,NA,NA,NA,NA,NA,NA,NA,NA
1f500,shallow,flow.Sequence,5_0_0_0_2_1,NA,NA,skipped,NA,580747.89999998,NA,NA,580744.909,580748.09999996,2023-11-24T16:54:14Z,580761.254,NULL,Abrechnung,uhasibu,d,NA,NA,NA,NA,sdf,NA,0,NA,NA,NA,NA,NA,NA,NA,NA,NA,NA,NA,NA,NA,NA,NA,NA,NA,NA,NA
1f500,task,flow.Sequence,5_0_0_0_2,NA,NA,completion,11024.583,569706.69999999006,569703.88,569720.326,580744.909,580748.39999998,2023-11-24T16:54:14Z,580761.254,NULL,Abrechnung,uhasibu,d,NA,NA,NA,NA,sdf,NA,0,NA,NA,NA,NA,NA,NA,NA,NA,NA,NA,NA,NA,NA,NA,NA,NA,NA,NA,NA
1f500,Deep Question,html.Page,5_0_0_0_3_0_0,NA,NA,form submission,4519.1459999762,580748.59999996,580744.909,580761.254,585280.39999998,585280.89999998,2023-11-24T16:54:19Z,585302.125,NULL,Schönheit,kirembo,d,NA,NA,NA,k,NA,NA,0,NA,NA,NA,NA,NA,NA,NA,NA,NA,NA,NA,NA,NA,NA,NA,NA,NA,NA,NA
1f500,"""Richtig""-Screen",canvas.Screen,5_0_0_0_3_0_1,NA,NA,skipped,NA,585286.5,NA,NA,585280.39999998,585286.79999995,2023-11-24T16:54:19Z,585302.125,NULL,Schönheit,kirembo,d,NA,NA,NA,NA,sdf,NA,0,NA,NA,NA,NA,NA,NA,NA,NA,NA,NA,NA,NA,NA,NA,NA,NA,NA,NA,NA
1f500,"""Falsch""-Screen",canvas.Screen,5_0_0_0_3_0_2,NA,NA,timeout,4999.149,585288.29999995,585264.548,585302.125,590284.868,590286.09999996,2023-11-24T16:54:24Z,590301.274,NULL,Schönheit,kirembo,d,NA,NA,NA,NA,sdf,0,0,NA,NA,NA,NA,NA,NA,NA,NA,NA,NA,NA,NA,NA,NA,NA,NA,NA,NA,NA
1f500,deep,flow.Sequence,5_0_0_0_3_0,NA,NA,completion,9523.6140000001,580748.5,580744.909,580761.254,590284.868,590286.39999998,2023-11-24T16:54:24Z,590301.274,NULL,Schönheit,kirembo,d,NA,NA,NA,NA,sdf,NA,0,NA,NA,NA,NA,NA,NA,NA,NA,NA,NA,NA,NA,NA,NA,NA,NA,NA,NA,NA
1f500,shallow,flow.Sequence,5_0_0_0_3_1,NA,NA,skipped,NA,590286.5,NA,NA,590284.868,590286.69999999006,2023-11-24T16:54:24Z,590301.274,NULL,Schönheit,kirembo,d,NA,NA,NA,NA,sdf,NA,0,NA,NA,NA,NA,NA,NA,NA,NA,NA,NA,NA,NA,NA,NA,NA,NA,NA,NA,NA
1f500,task,flow.Sequence,5_0_0_0_3,NA,NA,completion,9523.6140000001,580748.5,580744.909,580761.254,590284.868,590286.89999998,2023-11-24T16:54:24Z,590301.274,NULL,Schönheit,kirembo,d,NA,NA,NA,NA,sdf,NA,0,NA,NA,NA,NA,NA,NA,NA,NA,NA,NA,NA,NA,NA,NA,NA,NA,NA,NA,NA
1f500,deep,flow.Sequence,5_0_0_0_4_0,NA,NA,skipped,NA,590287.09999996,NA,NA,590284.868,590287.19999999006,2023-11-24T16:54:24Z,590301.274,NULL,Wettbewerb,ushindani,s,mapendezi,kichocheo,ubaguzi,NA,sdf,NA,0,NA,NA,NA,NA,NA,NA,NA,NA,NA,NA,NA,NA,NA,NA,NA,NA,NA,NA,NA
1f500,Shallow Question,html.Page,5_0_0_0_4_1_0,NA,NA,form submission,3563.1259999762,590287.39999998,590284.868,590301.274,593864.39999998,593864.69999999006,2023-11-24T16:54:27Z,593887.052,NULL,Wettbewerb,ushindani,s,mapendezi,kichocheo,ubaguzi,kichocheo,NA,NA,0,NA,NA,NA,NA,NA,NA,NA,NA,NA,NA,NA,NA,NA,NA,NA,NA,NA,NA,NA
1f500,"""Richtig""-Screen",canvas.Screen,5_0_0_0_4_1_1,NA,NA,skipped,NA,593869.89999998,NA,NA,593864.39999998,593870.29999995,2023-11-24T16:54:27Z,593887.052,NULL,Wettbewerb,ushindani,s,mapendezi,kichocheo,ubaguzi,NA,sdf,NA,0,NA,NA,NA,NA,NA,NA,NA,NA,NA,NA,NA,NA,NA,NA,NA,NA,NA,NA,NA
1f500,"""Falsch""-Screen",canvas.Screen,5_0_0_0_4_1_2,NA,NA,timeout,5003.575,593872.09999996,593854.217,593887.052,598873.912,598875.29999995,2023-11-24T16:54:32Z,598890.627,NULL,Wettbewerb,ushindani,s,mapendezi,kichocheo,ubaguzi,NA,sdf,0,0,NA,NA,NA,NA,NA,NA,NA,NA,NA,NA,NA,NA,NA,NA,NA,NA,NA,NA,NA
1f500,shallow,flow.Sequence,5_0_0_0_4_1,NA,NA,completion,8572.638,590287.29999995,590284.868,590301.274,598873.912,598875.69999999006,2023-11-24T16:54:32Z,598890.627,NULL,Wettbewerb,ushindani,s,mapendezi,kichocheo,ubaguzi,NA,sdf,NA,0,NA,NA,NA,NA,NA,NA,NA,NA,NA,NA,NA,NA,NA,NA,NA,NA,NA,NA,NA
1f500,task,flow.Sequence,5_0_0_0_4,NA,NA,completion,8572.638,590287,590284.868,590301.274,598873.912,598875.89999998,2023-11-24T16:54:32Z,598890.627,NULL,Wettbewerb,ushindani,s,mapendezi,kichocheo,ubaguzi,NA,sdf,NA,0,NA,NA,NA,NA,NA,NA,NA,NA,NA,NA,NA,NA,NA,NA,NA,NA,NA,NA,NA
1f500,Deep Question,html.Page,5_0_0_0_5_0_0,NA,NA,form submission,7335.4729999643,598876.09999996,598873.912,598890.627,606226.09999996,606226.59999996,2023-11-24T16:54:40Z,606229.017,NULL,Zufall,kikuti,d,NA,NA,NA,h,NA,NA,0,NA,NA,NA,NA,NA,NA,NA,NA,NA,NA,NA,NA,NA,NA,NA,NA,NA,NA,NA
1f500,"""Richtig""-Screen",canvas.Screen,5_0_0_0_5_0_1,NA,NA,skipped,NA,606232.19999999006,NA,NA,606226.09999996,606232.5,2023-11-24T16:54:40Z,606229.017,NULL,Zufall,kikuti,d,NA,NA,NA,NA,sdf,NA,0,NA,NA,NA,NA,NA,NA,NA,NA,NA,NA,NA,NA,NA,NA,NA,NA,NA,NA,NA
1f500,"""Falsch""-Screen",canvas.Screen,5_0_0_0_5_0_2,NA,NA,timeout,5003.514,606233.89999998,606212.708,606229.017,611216.112,611217.5,2023-11-24T16:54:45Z,611232.531,NULL,Zufall,kikuti,d,NA,NA,NA,NA,sdf,0,0,NA,NA,NA,NA,NA,NA,NA,NA,NA,NA,NA,NA,NA,NA,NA,NA,NA,NA,NA
1f500,deep,flow.Sequence,5_0_0_0_5_0,NA,NA,completion,12325.485,598876.09999996,598873.912,598890.627,611216.112,611217.79999995,2023-11-24T16:54:45Z,611232.531,NULL,Zufall,kikuti,d,NA,NA,NA,NA,sdf,NA,0,NA,NA,NA,NA,NA,NA,NA,NA,NA,NA,NA,NA,NA,NA,NA,NA,NA,NA,NA
1f500,shallow,flow.Sequence,5_0_0_0_5_1,NA,NA,skipped,NA,611217.89999998,NA,NA,611216.112,611218,2023-11-24T16:54:45Z,611232.531,NULL,Zufall,kikuti,d,NA,NA,NA,NA,sdf,NA,0,NA,NA,NA,NA,NA,NA,NA,NA,NA,NA,NA,NA,NA,NA,NA,NA,NA,NA,NA
1f500,task,flow.Sequence,5_0_0_0_5,NA,NA,completion,12325.485,598876,598873.912,598890.627,611216.112,611218.19999999006,2023-11-24T16:54:45Z,611232.531,NULL,Zufall,kikuti,d,NA,NA,NA,NA,sdf,NA,0,NA,NA,NA,NA,NA,NA,NA,NA,NA,NA,NA,NA,NA,NA,NA,NA,NA,NA,NA
1f500,deep,flow.Sequence,5_0_0_0_6_0,NA,NA,skipped,NA,611218.39999998,NA,NA,611216.112,611218.39999998,2023-11-24T16:54:45Z,611232.531,NULL,Sänger,mwimbaji,s,msichana,shughuli,mshirika,NA,sdf,NA,0,NA,NA,NA,NA,NA,NA,NA,NA,NA,NA,NA,NA,NA,NA,NA,NA,NA,NA,NA
1f500,Shallow Question,html.Page,5_0_0_0_6_1_0,NA,NA,form submission,3493.6689999881,611218.5,611216.112,611232.531,614726.19999999006,614726.89999998,2023-11-24T16:54:48Z,614734.928,NULL,Sänger,mwimbaji,s,msichana,shughuli,mshirika,mwimbaji,NA,NA,0,NA,NA,NA,NA,NA,NA,NA,NA,NA,NA,NA,NA,NA,NA,NA,NA,NA,NA,NA
1f500,"""Richtig""-Screen",canvas.Screen,5_0_0_0_6_1_1,NA,NA,timeout,5015.9570000001,614733.79999995,614718.305,614734.928,619722.115,619724.59999996,2023-11-24T16:54:53Z,619750.885,NULL,Sänger,mwimbaji,s,msichana,shughuli,mshirika,NA,sdf,1,0,NA,NA,NA,NA,NA,NA,NA,NA,NA,NA,NA,NA,NA,NA,NA,NA,NA,NA,NA
1f500,"""Falsch""-Screen",canvas.Screen,5_0_0_0_6_1_2,NA,NA,skipped,NA,619729.79999995,NA,NA,619722.115,619730.19999999006,2023-11-24T16:54:53Z,619750.885,NULL,Sänger,mwimbaji,s,msichana,shughuli,mshirika,NA,sdf,NA,0,NA,NA,NA,NA,NA,NA,NA,NA,NA,NA,NA,NA,NA,NA,NA,NA,NA,NA,NA
1f500,shallow,flow.Sequence,5_0_0_0_6_1,NA,NA,completion,8489.584,611218.39999998,611216.112,611232.531,619722.115,619730.5,2023-11-24T16:54:53Z,619750.885,NULL,Sänger,mwimbaji,s,msichana,shughuli,mshirika,NA,sdf,NA,0,NA,NA,NA,NA,NA,NA,NA,NA,NA,NA,NA,NA,NA,NA,NA,NA,NA,NA,NA
1f500,task,flow.Sequence,5_0_0_0_6,NA,NA,completion,8489.584,611218.29999995,611216.112,611232.531,619722.115,619730.59999996,2023-11-24T16:54:53Z,619750.885,NULL,Sänger,mwimbaji,s,msichana,shughuli,mshirika,NA,sdf,NA,0,NA,NA,NA,NA,NA,NA,NA,NA,NA,NA,NA,NA,NA,NA,NA,NA,NA,NA,NA
1f500,deep,flow.Sequence,5_0_0_0_7_0,NA,NA,skipped,NA,619730.69999999006,NA,NA,619722.115,619730.79999995,2023-11-24T16:54:53Z,619750.885,NULL,Auftrag,uagizaji,s,ghanima,kuzingatia,msukani,NA,sdf,NA,0,NA,NA,NA,NA,NA,NA,NA,NA,NA,NA,NA,NA,NA,NA,NA,NA,NA,NA,NA
1f500,Shallow Question,html.Page,5_0_0_0_7_1_0,NA,NA,form submission,6621.2149999642,619730.89999998,619722.115,619750.885,626372.09999996,626372.59999996,2023-11-24T16:55:00Z,626376.378,NULL,Auftrag,uagizaji,s,ghanima,kuzingatia,msukani,msukani,NA,NA,0,NA,NA,NA,NA,NA,NA,NA,NA,NA,NA,NA,NA,NA,NA,NA,NA,NA,NA,NA
1f500,"""Richtig""-Screen",canvas.Screen,5_0_0_0_7_1_1,NA,NA,skipped,NA,626377.89999998,NA,NA,626372.09999996,626378.19999999006,2023-11-24T16:55:00Z,626376.378,NULL,Auftrag,uagizaji,s,ghanima,kuzingatia,msukani,NA,sdf,NA,0,NA,NA,NA,NA,NA,NA,NA,NA,NA,NA,NA,NA,NA,NA,NA,NA,NA,NA,NA
1f500,"""Falsch""-Screen",canvas.Screen,5_0_0_0_7_1_2,NA,NA,timeout,5010.519,626379.89999998,626359.665,626376.378,631363.506,631364.79999995,2023-11-24T16:55:05Z,631386.897,NULL,Auftrag,uagizaji,s,ghanima,kuzingatia,msukani,NA,sdf,0,0,NA,NA,NA,NA,NA,NA,NA,NA,NA,NA,NA,NA,NA,NA,NA,NA,NA,NA,NA
1f500,shallow,flow.Sequence,5_0_0_0_7_1,NA,NA,completion,11612.621,619730.89999998,619722.115,619750.885,631363.506,631365.09999996,2023-11-24T16:55:05Z,631386.897,NULL,Auftrag,uagizaji,s,ghanima,kuzingatia,msukani,NA,sdf,NA,0,NA,NA,NA,NA,NA,NA,NA,NA,NA,NA,NA,NA,NA,NA,NA,NA,NA,NA,NA
1f500,task,flow.Sequence,5_0_0_0_7,NA,NA,completion,11612.621,619730.69999999006,619722.115,619750.885,631363.506,631365.39999998,2023-11-24T16:55:05Z,631386.897,NULL,Auftrag,uagizaji,s,ghanima,kuzingatia,msukani,NA,sdf,NA,0,NA,NA,NA,NA,NA,NA,NA,NA,NA,NA,NA,NA,NA,NA,NA,NA,NA,NA,NA
1f500,block,flow.Loop,5_0_0_0,NA,NA,completion,88311.908,543057.09999996,542168.587,543051.598,631363.506,631365.79999995,2023-11-24T16:55:05Z,631386.897,NULL,NA,NA,NA,NA,NA,NA,NA,sdf,NA,0,NA,NA,NA,NA,NA,NA,NA,NA,NA,NA,NA,NA,NA,NA,NA,NA,NA,NA,NA
1f500,weiter,canvas.Screen,5_0_0_1,sdf,keypress(Space),response,1125.5029999762,631366,631363.506,631386.897,632512.39999998,632518.39999998,2023-11-24T16:55:06Z,632564.012,NULL,NA,NA,NA,NA,NA,NA,NA,sdf,NA,0,NA,NA,NA,NA,NA,NA,NA,NA,NA,NA,NA,NA,NA,NA,NA,NA,NA,NA,NA
1f500,check continue,flow.Sequence,5_0_0,NA,NA,completion,89460.801999976,543057,542168.587,543051.598,632512.39999998,632518.79999995,2023-11-24T16:55:06Z,632564.012,NULL,NA,NA,NA,NA,NA,NA,NA,sdf,NA,0,NA,NA,NA,NA,NA,NA,NA,NA,NA,NA,NA,NA,NA,NA,NA,NA,NA,NA,NA
1f500,deep,flow.Sequence,5_0_1_0_0_0,NA,NA,skipped,NA,632573.19999999006,NA,NA,632512.39999998,632574.59999996,2023-11-24T16:55:06Z,632564.012,NULL,Auftrag,uagizaji,s,ghanima,kuzingatia,msukani,NA,sdfdsf,NA,1,NA,NA,NA,NA,NA,NA,NA,NA,NA,NA,NA,NA,NA,NA,NA,NA,NA,NA,NA
1f500,Shallow Question,html.Page,5_0_1_0_0_1_0,NA,NA,form submission,11482.988,632574.89999998,632513.178,632564.012,644047,644047.59999996,2023-11-24T16:55:18Z,644072.039,NULL,Auftrag,uagizaji,s,ghanima,kuzingatia,msukani,uagizaji,NA,NA,1,NA,NA,NA,NA,NA,NA,NA,NA,NA,NA,NA,NA,NA,NA,NA,NA,NA,NA,NA
1f500,"""Richtig""-Screen",canvas.Screen,5_0_1_0_0_1_1,NA,NA,timeout,5003.524,644052.69999999006,644038.834,644072.039,649059.286,649060.69999999006,2023-11-24T16:55:23Z,649075.563,NULL,Auftrag,uagizaji,s,ghanima,kuzingatia,msukani,NA,sdfdsf,1,1,NA,NA,NA,NA,NA,NA,NA,NA,NA,NA,NA,NA,NA,NA,NA,NA,NA,NA,NA
1f500,"""Falsch""-Screen",canvas.Screen,5_0_1_0_0_1_2,NA,NA,skipped,NA,649066.89999998,NA,NA,649059.286,649067.19999999006,2023-11-24T16:55:23Z,649075.563,NULL,Auftrag,uagizaji,s,ghanima,kuzingatia,msukani,NA,sdfdsf,NA,1,NA,NA,NA,NA,NA,NA,NA,NA,NA,NA,NA,NA,NA,NA,NA,NA,NA,NA,NA
1f500,shallow,flow.Sequence,5_0_1_0_0_1,NA,NA,completion,16495.274,632574.89999998,632513.178,632564.012,649059.286,649067.5,2023-11-24T16:55:23Z,649075.563,NULL,Auftrag,uagizaji,s,ghanima,kuzingatia,msukani,NA,sdfdsf,NA,1,NA,NA,NA,NA,NA,NA,NA,NA,NA,NA,NA,NA,NA,NA,NA,NA,NA,NA,NA
1f500,task,flow.Sequence,5_0_1_0_0,NA,NA,completion,16495.274,632573.19999999006,632513.178,632564.012,649059.286,649067.69999999006,2023-11-24T16:55:23Z,649075.563,NULL,Auftrag,uagizaji,s,ghanima,kuzingatia,msukani,NA,sdfdsf,NA,1,NA,NA,NA,NA,NA,NA,NA,NA,NA,NA,NA,NA,NA,NA,NA,NA,NA,NA,NA
1f500,Deep Question,html.Page,5_0_1_0_1_0_0,NA,NA,form submission,7753.3369999762,649067.89999998,649059.286,649075.563,656828.89999998,656829.5,2023-11-24T16:55:30Z,656847.777,NULL,Schönheit,kirembo,d,NA,NA,NA,buhani,NA,NA,1,NA,NA,NA,NA,NA,NA,NA,NA,NA,NA,NA,NA,NA,NA,NA,NA,NA,NA,NA
1f500,"""Richtig""-Screen",canvas.Screen,5_0_1_0_1_0_1,NA,NA,skipped,NA,656834.79999995,NA,NA,656828.89999998,656835,2023-11-24T16:55:30Z,656847.777,NULL,Schönheit,kirembo,d,NA,NA,NA,NA,sdfdsf,NA,1,NA,NA,NA,NA,NA,NA,NA,NA,NA,NA,NA,NA,NA,NA,NA,NA,NA,NA,NA
1f500,"""Falsch""-Screen",canvas.Screen,5_0_1_0_1_0_2,NA,NA,timeout,5003.7659999999,656836.69999999006,656830.974,656847.777,661834.797,661836.09999996,2023-11-24T16:55:35Z,661851.543,NULL,Schönheit,kirembo,d,NA,NA,NA,NA,sdfdsf,0,1,NA,NA,NA,NA,NA,NA,NA,NA,NA,NA,NA,NA,NA,NA,NA,NA,NA,NA,NA
1f500,deep,flow.Sequence,5_0_1_0_1_0,NA,NA,completion,12759.234,649067.79999995,649059.286,649075.563,661834.797,661836.59999996,2023-11-24T16:55:35Z,661851.543,NULL,Schönheit,kirembo,d,NA,NA,NA,NA,sdfdsf,NA,1,NA,NA,NA,NA,NA,NA,NA,NA,NA,NA,NA,NA,NA,NA,NA,NA,NA,NA,NA
1f500,shallow,flow.Sequence,5_0_1_0_1_1,NA,NA,skipped,NA,661836.89999998,NA,NA,661834.797,661837,2023-11-24T16:55:35Z,661851.543,NULL,Schönheit,kirembo,d,NA,NA,NA,NA,sdfdsf,NA,1,NA,NA,NA,NA,NA,NA,NA,NA,NA,NA,NA,NA,NA,NA,NA,NA,NA,NA,NA
1f500,task,flow.Sequence,5_0_1_0_1,NA,NA,completion,12759.234,649067.69999999006,649059.286,649075.563,661834.797,661837.29999995,2023-11-24T16:55:35Z,661851.543,NULL,Schönheit,kirembo,d,NA,NA,NA,NA,sdfdsf,NA,1,NA,NA,NA,NA,NA,NA,NA,NA,NA,NA,NA,NA,NA,NA,NA,NA,NA,NA,NA
1f500,Deep Question,html.Page,5_0_1_0_2_0_0,NA,NA,form submission,4117.2569999524,661837.5,661834.797,661851.543,665968.79999995,665969.29999995,2023-11-24T16:55:39Z,665970.691,NULL,Kanzler,diwani,d,NA,NA,NA,buhani,NA,NA,1,NA,NA,NA,NA,NA,NA,NA,NA,NA,NA,NA,NA,NA,NA,NA,NA,NA,NA,NA
1f500,"""Richtig""-Screen",canvas.Screen,5_0_1_0_2_0_1,NA,NA,skipped,NA,665974.79999995,NA,NA,665968.79999995,665975.29999995,2023-11-24T16:55:39Z,665970.691,NULL,Kanzler,diwani,d,NA,NA,NA,NA,sdfdsf,NA,1,NA,NA,NA,NA,NA,NA,NA,NA,NA,NA,NA,NA,NA,NA,NA,NA,NA,NA,NA
1f500,"""Falsch""-Screen",canvas.Screen,5_0_1_0_2_0_2,NA,NA,timeout,5003.4790000001,665977.29999995,665953.798,665970.691,670957.662,670959.5,2023-11-24T16:55:44Z,670974.17,NULL,Kanzler,diwani,d,NA,NA,NA,NA,sdfdsf,0,1,NA,NA,NA,NA,NA,NA,NA,NA,NA,NA,NA,NA,NA,NA,NA,NA,NA,NA,NA
1f500,deep,flow.Sequence,5_0_1_0_2_0,NA,NA,completion,9106.1190000001,661837.5,661834.797,661851.543,670957.662,670960,2023-11-24T16:55:44Z,670974.17,NULL,Kanzler,diwani,d,NA,NA,NA,NA,sdfdsf,NA,1,NA,NA,NA,NA,NA,NA,NA,NA,NA,NA,NA,NA,NA,NA,NA,NA,NA,NA,NA
1f500,shallow,flow.Sequence,5_0_1_0_2_1,NA,NA,skipped,NA,670960.29999995,NA,NA,670957.662,670960.5,2023-11-24T16:55:44Z,670974.17,NULL,Kanzler,diwani,d,NA,NA,NA,NA,sdfdsf,NA,1,NA,NA,NA,NA,NA,NA,NA,NA,NA,NA,NA,NA,NA,NA,NA,NA,NA,NA,NA
1f500,task,flow.Sequence,5_0_1_0_2,NA,NA,completion,9106.1190000001,661837.39999998,661834.797,661851.543,670957.662,670960.69999999006,2023-11-24T16:55:44Z,670974.17,NULL,Kanzler,diwani,d,NA,NA,NA,NA,sdfdsf,NA,1,NA,NA,NA,NA,NA,NA,NA,NA,NA,NA,NA,NA,NA,NA,NA,NA,NA,NA,NA
1f500,deep,flow.Sequence,5_0_1_0_3_0,NA,NA,skipped,NA,670960.89999998,NA,NA,670957.662,670961.09999996,2023-11-24T16:55:44Z,670974.17,NULL,Angreifer,mshambulizi,s,kitengo,tasinia,usafirishaji,NA,sdfdsf,NA,1,NA,NA,NA,NA,NA,NA,NA,NA,NA,NA,NA,NA,NA,NA,NA,NA,NA,NA,NA
1f500,Shallow Question,html.Page,5_0_1_0_3_1_0,NA,NA,form submission,10056.029999988,670961.29999995,670957.662,670974.17,681030.19999999006,681030.59999996,2023-11-24T16:55:54Z,681031.164,NULL,Angreifer,mshambulizi,s,kitengo,tasinia,usafirishaji,mshambulizi,NA,NA,1,NA,NA,NA,NA,NA,NA,NA,NA,NA,NA,NA,NA,NA,NA,NA,NA,NA,NA,NA
1f500,"""Richtig""-Screen",canvas.Screen,5_0_1_0_3_1_1,NA,NA,timeout,5020.292,681037.09999996,681015.009,681031.164,686018.007,686019.19999999006,2023-11-24T16:55:59Z,686051.456,NULL,Angreifer,mshambulizi,s,kitengo,tasinia,usafirishaji,NA,sdfdsf,1,1,NA,NA,NA,NA,NA,NA,NA,NA,NA,NA,NA,NA,NA,NA,NA,NA,NA,NA,NA
1f500,"""Falsch""-Screen",canvas.Screen,5_0_1_0_3_1_2,NA,NA,skipped,NA,686024.89999998,NA,NA,686018.007,686025.29999995,2023-11-24T16:55:59Z,686051.456,NULL,Angreifer,mshambulizi,s,kitengo,tasinia,usafirishaji,NA,sdfdsf,NA,1,NA,NA,NA,NA,NA,NA,NA,NA,NA,NA,NA,NA,NA,NA,NA,NA,NA,NA,NA
1f500,shallow,flow.Sequence,5_0_1_0_3_1,NA,NA,completion,15043.837,670961.29999995,670957.662,670974.17,686018.007,686025.69999999006,2023-11-24T16:55:59Z,686051.456,NULL,Angreifer,mshambulizi,s,kitengo,tasinia,usafirishaji,NA,sdfdsf,NA,1,NA,NA,NA,NA,NA,NA,NA,NA,NA,NA,NA,NA,NA,NA,NA,NA,NA,NA,NA
1f500,task,flow.Sequence,5_0_1_0_3,NA,NA,completion,15043.837,670960.89999998,670957.662,670974.17,686018.007,686026,2023-11-24T16:55:59Z,686051.456,NULL,Angreifer,mshambulizi,s,kitengo,tasinia,usafirishaji,NA,sdfdsf,NA,1,NA,NA,NA,NA,NA,NA,NA,NA,NA,NA,NA,NA,NA,NA,NA,NA,NA,NA,NA
1f500,deep,flow.Sequence,5_0_1_0_4_0,NA,NA,skipped,NA,686026.19999999006,NA,NA,686018.007,686026.39999998,2023-11-24T16:55:59Z,686051.456,NULL,Sänger,mwimbaji,s,msichana,shughuli,mshirika,NA,sdfdsf,NA,1,NA,NA,NA,NA,NA,NA,NA,NA,NA,NA,NA,NA,NA,NA,NA,NA,NA,NA,NA
1f500,Shallow Question,html.Page,5_0_1_0_4_1_0,NA,NA,form submission,7980.544,686026.59999996,686018.007,686051.456,694032,694032.39999998,2023-11-24T16:56:07Z,694056.899,NULL,Sänger,mwimbaji,s,msichana,shughuli,mshirika,mwimbaji,NA,NA,1,NA,NA,NA,NA,NA,NA,NA,NA,NA,NA,NA,NA,NA,NA,NA,NA,NA,NA,NA
1f500,"""Richtig""-Screen",canvas.Screen,5_0_1_0_4_1_1,NA,NA,timeout,5003.6290000001,694038.09999996,694023.671,694056.899,699043.73,699044.59999996,2023-11-24T16:56:13Z,699060.528,NULL,Sänger,mwimbaji,s,msichana,shughuli,mshirika,NA,sdfdsf,1,1,NA,NA,NA,NA,NA,NA,NA,NA,NA,NA,NA,NA,NA,NA,NA,NA,NA,NA,NA
1f500,"""Falsch""-Screen",canvas.Screen,5_0_1_0_4_1_2,NA,NA,skipped,NA,699049.09999996,NA,NA,699043.73,699049.39999998,2023-11-24T16:56:13Z,699060.528,NULL,Sänger,mwimbaji,s,msichana,shughuli,mshirika,NA,sdfdsf,NA,1,NA,NA,NA,NA,NA,NA,NA,NA,NA,NA,NA,NA,NA,NA,NA,NA,NA,NA,NA
1f500,shallow,flow.Sequence,5_0_1_0_4_1,NA,NA,completion,12992.274,686026.5,686018.007,686051.456,699043.73,699049.69999999006,2023-11-24T16:56:13Z,699060.528,NULL,Sänger,mwimbaji,s,msichana,shughuli,mshirika,NA,sdfdsf,NA,1,NA,NA,NA,NA,NA,NA,NA,NA,NA,NA,NA,NA,NA,NA,NA,NA,NA,NA,NA
1f500,task,flow.Sequence,5_0_1_0_4,NA,NA,completion,12992.274,686026.09999996,686018.007,686051.456,699043.73,699049.89999998,2023-11-24T16:56:13Z,699060.528,NULL,Sänger,mwimbaji,s,msichana,shughuli,mshirika,NA,sdfdsf,NA,1,NA,NA,NA,NA,NA,NA,NA,NA,NA,NA,NA,NA,NA,NA,NA,NA,NA,NA,NA
1f500,Deep Question,html.Page,5_0_1_0_5_0_0,NA,NA,form submission,6649.972,699050.09999996,699043.73,699060.528,705710.5,705710.89999998,2023-11-24T16:56:19Z,705715.038,NULL,Abrechnung,uhasibu,d,NA,NA,NA,ihasibu,NA,NA,1,NA,NA,NA,NA,NA,NA,NA,NA,NA,NA,NA,NA,NA,NA,NA,NA,NA,NA,NA
1f500,"""Richtig""-Screen",canvas.Screen,5_0_1_0_5_0_1,NA,NA,skipped,NA,705715.39999998,NA,NA,705710.5,705715.69999999006,2023-11-24T16:56:19Z,705715.038,NULL,Abrechnung,uhasibu,d,NA,NA,NA,NA,sdfdsf,NA,1,NA,NA,NA,NA,NA,NA,NA,NA,NA,NA,NA,NA,NA,NA,NA,NA,NA,NA,NA
1f500,"""Falsch""-Screen",canvas.Screen,5_0_1_0_5_0_2,NA,NA,timeout,5003.4940000001,705717.59999996,705699.335,705715.038,710701.894,710702.79999995,2023-11-24T16:56:24Z,710718.532,NULL,Abrechnung,uhasibu,d,NA,NA,NA,NA,sdfdsf,0,1,NA,NA,NA,NA,NA,NA,NA,NA,NA,NA,NA,NA,NA,NA,NA,NA,NA,NA,NA
1f500,deep,flow.Sequence,5_0_1_0_5_0,NA,NA,completion,11641.366,699050,699043.73,699060.528,710701.894,710703.09999996,2023-11-24T16:56:24Z,710718.532,NULL,Abrechnung,uhasibu,d,NA,NA,NA,NA,sdfdsf,NA,1,NA,NA,NA,NA,NA,NA,NA,NA,NA,NA,NA,NA,NA,NA,NA,NA,NA,NA,NA
1f500,shallow,flow.Sequence,5_0_1_0_5_1,NA,NA,skipped,NA,710703.19999999006,NA,NA,710701.894,710703.39999998,2023-11-24T16:56:24Z,710718.532,NULL,Abrechnung,uhasibu,d,NA,NA,NA,NA,sdfdsf,NA,1,NA,NA,NA,NA,NA,NA,NA,NA,NA,NA,NA,NA,NA,NA,NA,NA,NA,NA,NA
1f500,task,flow.Sequence,5_0_1_0_5,NA,NA,completion,11641.366,699050,699043.73,699060.528,710701.894,710703.39999998,2023-11-24T16:56:24Z,710718.532,NULL,Abrechnung,uhasibu,d,NA,NA,NA,NA,sdfdsf,NA,1,NA,NA,NA,NA,NA,NA,NA,NA,NA,NA,NA,NA,NA,NA,NA,NA,NA,NA,NA
1f500,deep,flow.Sequence,5_0_1_0_6_0,NA,NA,skipped,NA,710703.59999996,NA,NA,710701.894,710703.59999996,2023-11-24T16:56:24Z,710718.532,NULL,Wettbewerb,ushindani,s,mapendezi,kichocheo,ubaguzi,NA,sdfdsf,NA,1,NA,NA,NA,NA,NA,NA,NA,NA,NA,NA,NA,NA,NA,NA,NA,NA,NA,NA,NA
1f500,Shallow Question,html.Page,5_0_1_0_6_1_0,NA,NA,form submission,6929.6679999881,710703.69999999006,710701.894,710718.532,717648.19999999006,717648.59999996,2023-11-24T16:56:31Z,717656.7,NULL,Wettbewerb,ushindani,s,mapendezi,kichocheo,ubaguzi,ushindani,NA,NA,1,NA,NA,NA,NA,NA,NA,NA,NA,NA,NA,NA,NA,NA,NA,NA,NA,NA,NA,NA
1f500,"""Richtig""-Screen",canvas.Screen,5_0_1_0_6_1_1,NA,NA,timeout,5003.483,717653.5,717640.356,717656.7,722643.878,722645.39999998,2023-11-24T16:56:36Z,722660.183,NULL,Wettbewerb,ushindani,s,mapendezi,kichocheo,ubaguzi,NA,sdfdsf,1,1,NA,NA,NA,NA,NA,NA,NA,NA,NA,NA,NA,NA,NA,NA,NA,NA,NA,NA,NA
