observation,sender,sender_type,sender_id,response,response_action,ended_on,duration,time_run,time_render,time_show,time_end,time_commit,timestamp,time_switch,distractors,german,swahili,enc,distractor1,distractor2,distractor3,response_2,x,correct,x_2,url_vp,url_sess,meta_labjs_version,meta_location,meta_user_agent,meta_platform,meta_language,meta_locale,meta_time_zone,meta_timezone_offset,meta_screen_width,meta_screen_height,meta_scroll_width,meta_scroll_height,meta_window_inner_width,meta_window_inner_height,meta_device_pixel_ratio,meta_labjs_build_flavor,meta_labjs_build_commit
19dcb,Introduction general,canvas.Screen,0,weiter,keypress(q),response,133366.24,313,308.08,324.76,133691,133704,2023-10-20T14:03:46Z,133707.84,NULL,NA,NA,NA,NA,NA,NA,NA,NA,NA,NA,190,1,20.2.4,https://neurocog.fernuni.ch/studies/vweber/sliechti/encoding_immediate/index.html?vp=190&sess=1,Mozilla/5.0 (Windows NT 10.0; Win64; x64; rv:109.0) Gecko/20100101 Firefox/118.0,Win32,de,de-CH,Europe/Zurich,-120,1280,720,1280,587,1280,587,1.5,production,f5b4a49f956347addd546a832a3327688c2c0fef
19dcb,Introduction practice,canvas.Screen,1_0,NA,keypress(Space),response,15170.16,133706,133706.18,133707.84,148878,148885,2023-10-20T14:04:01Z,148889.22,NULL,NA,NA,NA,NA,NA,NA,NA,NA,NA,NA,NA,NA,NA,NA,NA,NA,NA,NA,NA,NA,NA,NA,NA,NA,NA,NA,NA,NA,NA
19dcb,Deep Question,html.Page,1_1_0_0_0,NA,NA,form submission,11087.78,148886,148886.78,148889.22,159977,159978,2023-10-20T14:04:12Z,159987.74,"c(""distractor1"", ""distractor2"", ""distractor3"")",Schatten,kivuli,d,NA,NA,NA,honig,NA,NA,NA,NA,NA,NA,NA,NA,NA,NA,NA,NA,NA,NA,NA,NA,NA,NA,NA,NA,NA,NA
19dcb,"""Richtig""-Screen",canvas.Screen,1_1_0_0_1,NA,NA,skipped,NA,159984,NA,NA,159977,159984,2023-10-20T14:04:12Z,159987.74,"c(""distractor1"", ""distractor2"", ""distractor3"")",Schatten,kivuli,d,NA,NA,NA,NA,NA,NA,NA,NA,NA,NA,NA,NA,NA,NA,NA,NA,NA,NA,NA,NA,NA,NA,NA,NA,NA,NA
19dcb,"""Falsch""-Screen",canvas.Screen,1_1_0_0_2,NA,NA,timeout,4999.28,159988,159975.56,159987.74,164970.36,164972,2023-10-20T14:04:17Z,164987.02,"c(""distractor1"", ""distractor2"", ""distractor3"")",Schatten,kivuli,d,NA,NA,NA,NA,NA,0,NA,NA,NA,NA,NA,NA,NA,NA,NA,NA,NA,NA,NA,NA,NA,NA,NA,NA,NA,NA
19dcb,deep,flow.Sequence,1_1_0_0,NA,NA,completion,16081.14,148886,148886.78,148889.22,164970.36,164973,2023-10-20T14:04:17Z,164987.02,"c(""distractor1"", ""distractor2"", ""distractor3"")",Schatten,kivuli,d,NA,NA,NA,NA,NA,NA,NA,NA,NA,NA,NA,NA,NA,NA,NA,NA,NA,NA,NA,NA,NA,NA,NA,NA,NA,NA
19dcb,shallow,flow.Sequence,1_1_0_1,NA,NA,skipped,NA,164973,NA,NA,164970.36,164974,2023-10-20T14:04:17Z,164987.02,"c(""distractor1"", ""distractor2"", ""distractor3"")",Schatten,kivuli,d,NA,NA,NA,NA,NA,NA,NA,NA,NA,NA,NA,NA,NA,NA,NA,NA,NA,NA,NA,NA,NA,NA,NA,NA,NA,NA
19dcb,task,flow.Sequence,1_1_0,NA,NA,completion,16081.14,148886,148886.78,148889.22,164970.36,164974,2023-10-20T14:04:17Z,164987.02,"c(""distractor1"", ""distractor2"", ""distractor3"")",Schatten,kivuli,d,NA,NA,NA,NA,NA,NA,NA,NA,NA,NA,NA,NA,NA,NA,NA,NA,NA,NA,NA,NA,NA,NA,NA,NA,NA,NA
19dcb,deep,flow.Sequence,1_1_1_0,NA,NA,skipped,NA,164975,NA,NA,164970.36,164975,2023-10-20T14:04:17Z,164987.02,"c(""distractor1"", ""distractor2"", ""distractor3"")",Gegenwart,hadhara,s,katiba,jokofu,mikopo,NA,NA,NA,NA,NA,NA,NA,NA,NA,NA,NA,NA,NA,NA,NA,NA,NA,NA,NA,NA,NA,NA,NA
19dcb,Shallow Question,html.Page,1_1_1_1_0,NA,NA,form submission,8542.98,164975,164970.36,164987.02,173530,173531,2023-10-20T14:04:26Z,173535.94,"c(""distractor1"", ""distractor2"", ""distractor3"")",Gegenwart,hadhara,s,katiba,jokofu,mikopo,katiba,NA,NA,NA,NA,NA,NA,NA,NA,NA,NA,NA,NA,NA,NA,NA,NA,NA,NA,NA,NA,NA,NA
19dcb,"""Richtig""-Screen",canvas.Screen,1_1_1_1_1,NA,NA,skipped,NA,173537,NA,NA,173530,173538,2023-10-20T14:04:26Z,173535.94,"c(""distractor1"", ""distractor2"", ""distractor3"")",Gegenwart,hadhara,s,katiba,jokofu,mikopo,NA,NA,NA,NA,NA,NA,NA,NA,NA,NA,NA,NA,NA,NA,NA,NA,NA,NA,NA,NA,NA,NA,NA
19dcb,"""Falsch""-Screen",canvas.Screen,1_1_1_1_2,NA,NA,timeout,4999.44,173543,173524.24,173535.94,178518.76,178521,2023-10-20T14:04:31Z,178535.38,"c(""distractor1"", ""distractor2"", ""distractor3"")",Gegenwart,hadhara,s,katiba,jokofu,mikopo,NA,NA,0,NA,NA,NA,NA,NA,NA,NA,NA,NA,NA,NA,NA,NA,NA,NA,NA,NA,NA,NA,NA
19dcb,shallow,flow.Sequence,1_1_1_1,NA,NA,completion,13531.74,164975,164970.36,164987.02,178518.76,178521,2023-10-20T14:04:31Z,178535.38,"c(""distractor1"", ""distractor2"", ""distractor3"")",Gegenwart,hadhara,s,katiba,jokofu,mikopo,NA,NA,NA,NA,NA,NA,NA,NA,NA,NA,NA,NA,NA,NA,NA,NA,NA,NA,NA,NA,NA,NA,NA
19dcb,task,flow.Sequence,1_1_1,NA,NA,completion,13531.74,164975,164970.36,164987.02,178518.76,178522,2023-10-20T14:04:31Z,178535.38,"c(""distractor1"", ""distractor2"", ""distractor3"")",Gegenwart,hadhara,s,katiba,jokofu,mikopo,NA,NA,NA,NA,NA,NA,NA,NA,NA,NA,NA,NA,NA,NA,NA,NA,NA,NA,NA,NA,NA,NA,NA
19dcb,deep,flow.Sequence,1_1_2_0,NA,NA,skipped,NA,178522,NA,NA,178518.76,178524,2023-10-20T14:04:31Z,178535.38,"c(""distractor1"", ""distractor2"", ""distractor3"")",Kritik,lawama,s,dereva,nafasi,mawazo,NA,NA,NA,NA,NA,NA,NA,NA,NA,NA,NA,NA,NA,NA,NA,NA,NA,NA,NA,NA,NA,NA,NA
19dcb,Shallow Question,html.Page,1_1_2_1_0,NA,NA,form submission,7501.62,178525,178518.76,178535.38,186037,186038,2023-10-20T14:04:38Z,186050.46,"c(""distractor1"", ""distractor2"", ""distractor3"")",Kritik,lawama,s,dereva,nafasi,mawazo,dereva,NA,NA,NA,NA,NA,NA,NA,NA,NA,NA,NA,NA,NA,NA,NA,NA,NA,NA,NA,NA,NA,NA
19dcb,"""Richtig""-Screen",canvas.Screen,1_1_2_1_1,NA,NA,skipped,NA,186042,NA,NA,186037,186043,2023-10-20T14:04:38Z,186050.46,"c(""distractor1"", ""distractor2"", ""distractor3"")",Kritik,lawama,s,dereva,nafasi,mawazo,NA,NA,NA,NA,NA,NA,NA,NA,NA,NA,NA,NA,NA,NA,NA,NA,NA,NA,NA,NA,NA,NA,NA
19dcb,"""Falsch""-Screen",canvas.Screen,1_1_2_1_2,NA,NA,timeout,5000.02,186046,186034.04,186050.46,191033.82,191035,2023-10-20T14:04:43Z,191050.48,"c(""distractor1"", ""distractor2"", ""distractor3"")",Kritik,lawama,s,dereva,nafasi,mawazo,NA,NA,0,NA,NA,NA,NA,NA,NA,NA,NA,NA,NA,NA,NA,NA,NA,NA,NA,NA,NA,NA,NA
19dcb,shallow,flow.Sequence,1_1_2_1,NA,NA,completion,12498.44,178525,178518.76,178535.38,191033.82,191035,2023-10-20T14:04:43Z,191050.48,"c(""distractor1"", ""distractor2"", ""distractor3"")",Kritik,lawama,s,dereva,nafasi,mawazo,NA,NA,NA,NA,NA,NA,NA,NA,NA,NA,NA,NA,NA,NA,NA,NA,NA,NA,NA,NA,NA,NA,NA
19dcb,task,flow.Sequence,1_1_2,NA,NA,completion,12498.44,178522,178518.76,178535.38,191033.82,191036,2023-10-20T14:04:43Z,191050.48,"c(""distractor1"", ""distractor2"", ""distractor3"")",Kritik,lawama,s,dereva,nafasi,mawazo,NA,NA,NA,NA,NA,NA,NA,NA,NA,NA,NA,NA,NA,NA,NA,NA,NA,NA,NA,NA,NA,NA,NA
19dcb,Deep Question,html.Page,1_1_3_0_0,NA,NA,form submission,7054.52,191037,191033.82,191050.48,198105,198105,2023-10-20T14:04:50Z,198116.14,"c(""distractor1"", ""distractor2"", ""distractor3"")",Qualität,mtindo,d,NA,NA,NA,deret,NA,NA,NA,NA,NA,NA,NA,NA,NA,NA,NA,NA,NA,NA,NA,NA,NA,NA,NA,NA,NA,NA
19dcb,"""Richtig""-Screen",canvas.Screen,1_1_3_0_1,NA,NA,skipped,NA,198107,NA,NA,198105,198107,2023-10-20T14:04:50Z,198116.14,"c(""distractor1"", ""distractor2"", ""distractor3"")",Qualität,mtindo,d,NA,NA,NA,NA,NA,NA,NA,NA,NA,NA,NA,NA,NA,NA,NA,NA,NA,NA,NA,NA,NA,NA,NA,NA,NA,NA
19dcb,"""Falsch""-Screen",canvas.Screen,1_1_3_0_2,NA,NA,timeout,4999.44,198109,198104.06,198116.14,203098.98,203100,2023-10-20T14:04:55Z,203115.58,"c(""distractor1"", ""distractor2"", ""distractor3"")",Qualität,mtindo,d,NA,NA,NA,NA,NA,0,NA,NA,NA,NA,NA,NA,NA,NA,NA,NA,NA,NA,NA,NA,NA,NA,NA,NA,NA,NA
19dcb,deep,flow.Sequence,1_1_3_0,NA,NA,completion,12048.5,191037,191033.82,191050.48,203098.98,203101,2023-10-20T14:04:55Z,203115.58,"c(""distractor1"", ""distractor2"", ""distractor3"")",Qualität,mtindo,d,NA,NA,NA,NA,NA,NA,NA,NA,NA,NA,NA,NA,NA,NA,NA,NA,NA,NA,NA,NA,NA,NA,NA,NA,NA,NA
19dcb,shallow,flow.Sequence,1_1_3_1,NA,NA,skipped,NA,203102,NA,NA,203098.98,203102,2023-10-20T14:04:55Z,203115.58,"c(""distractor1"", ""distractor2"", ""distractor3"")",Qualität,mtindo,d,NA,NA,NA,NA,NA,NA,NA,NA,NA,NA,NA,NA,NA,NA,NA,NA,NA,NA,NA,NA,NA,NA,NA,NA,NA,NA
19dcb,task,flow.Sequence,1_1_3,NA,NA,completion,12048.5,191037,191033.82,191050.48,203098.98,203103,2023-10-20T14:04:55Z,203115.58,"c(""distractor1"", ""distractor2"", ""distractor3"")",Qualität,mtindo,d,NA,NA,NA,NA,NA,NA,NA,NA,NA,NA,NA,NA,NA,NA,NA,NA,NA,NA,NA,NA,NA,NA,NA,NA,NA,NA
19dcb,Deep Question,html.Page,1_1_4_0_0,NA,NA,form submission,8723.42,203103,203098.98,203115.58,211839,211839,2023-10-20T14:05:04Z,211847.7,"c(""distractor1"", ""distractor2"", ""distractor3"")",Gesundheit,salama,d,NA,NA,NA,klar,NA,NA,NA,NA,NA,NA,NA,NA,NA,NA,NA,NA,NA,NA,NA,NA,NA,NA,NA,NA,NA,NA
19dcb,"""Richtig""-Screen",canvas.Screen,1_1_4_0_1,NA,NA,skipped,NA,211841,NA,NA,211839,211841,2023-10-20T14:05:04Z,211847.7,"c(""distractor1"", ""distractor2"", ""distractor3"")",Gesundheit,salama,d,NA,NA,NA,NA,NA,NA,NA,NA,NA,NA,NA,NA,NA,NA,NA,NA,NA,NA,NA,NA,NA,NA,NA,NA,NA,NA
19dcb,"""Falsch""-Screen",canvas.Screen,1_1_4_0_2,NA,NA,timeout,4999.5,211842,211837.4,211847.7,216830.54,216831,2023-10-20T14:05:09Z,216847.2,"c(""distractor1"", ""distractor2"", ""distractor3"")",Gesundheit,salama,d,NA,NA,NA,NA,NA,0,NA,NA,NA,NA,NA,NA,NA,NA,NA,NA,NA,NA,NA,NA,NA,NA,NA,NA,NA,NA
19dcb,deep,flow.Sequence,1_1_4_0,NA,NA,completion,13714.96,203103,203098.98,203115.58,216830.54,216832,2023-10-20T14:05:09Z,216847.2,"c(""distractor1"", ""distractor2"", ""distractor3"")",Gesundheit,salama,d,NA,NA,NA,NA,NA,NA,NA,NA,NA,NA,NA,NA,NA,NA,NA,NA,NA,NA,NA,NA,NA,NA,NA,NA,NA,NA
19dcb,shallow,flow.Sequence,1_1_4_1,NA,NA,skipped,NA,216832,NA,NA,216830.54,216832,2023-10-20T14:05:09Z,216847.2,"c(""distractor1"", ""distractor2"", ""distractor3"")",Gesundheit,salama,d,NA,NA,NA,NA,NA,NA,NA,NA,NA,NA,NA,NA,NA,NA,NA,NA,NA,NA,NA,NA,NA,NA,NA,NA,NA,NA
19dcb,task,flow.Sequence,1_1_4,NA,NA,completion,13714.96,203103,203098.98,203115.58,216830.54,216833,2023-10-20T14:05:09Z,216847.2,"c(""distractor1"", ""distractor2"", ""distractor3"")",Gesundheit,salama,d,NA,NA,NA,NA,NA,NA,NA,NA,NA,NA,NA,NA,NA,NA,NA,NA,NA,NA,NA,NA,NA,NA,NA,NA,NA,NA
19dcb,deep,flow.Sequence,1_1_5_0,NA,NA,skipped,NA,216833,NA,NA,216830.54,216833,2023-10-20T14:05:09Z,216847.2,"c(""distractor1"", ""distractor2"", ""distractor3"")",Rückhalt,msaada,s,muhula,auwali,kiwimbe,NA,NA,NA,NA,NA,NA,NA,NA,NA,NA,NA,NA,NA,NA,NA,NA,NA,NA,NA,NA,NA,NA,NA
19dcb,Shallow Question,html.Page,1_1_5_1_0,NA,NA,form submission,10612.8,216833,216830.54,216847.2,227460,227461,2023-10-20T14:05:20Z,227462.44,"c(""distractor1"", ""distractor2"", ""distractor3"")",Rückhalt,msaada,s,muhula,auwali,kiwimbe,msaada,NA,NA,NA,NA,NA,NA,NA,NA,NA,NA,NA,NA,NA,NA,NA,NA,NA,NA,NA,NA,NA,NA
19dcb,"""Richtig""-Screen",canvas.Screen,1_1_5_1_1,NA,NA,timeout,4999.36,227462,227458.52,227462.44,232445.16,232447,2023-10-20T14:05:25Z,232461.8,"c(""distractor1"", ""distractor2"", ""distractor3"")",Rückhalt,msaada,s,muhula,auwali,kiwimbe,NA,NA,1,NA,NA,NA,NA,NA,NA,NA,NA,NA,NA,NA,NA,NA,NA,NA,NA,NA,NA,NA,NA
19dcb,"""Falsch""-Screen",canvas.Screen,1_1_5_1_2,NA,NA,skipped,NA,232453,NA,NA,232445.16,232454,2023-10-20T14:05:25Z,232461.8,"c(""distractor1"", ""distractor2"", ""distractor3"")",Rückhalt,msaada,s,muhula,auwali,kiwimbe,NA,NA,NA,NA,NA,NA,NA,NA,NA,NA,NA,NA,NA,NA,NA,NA,NA,NA,NA,NA,NA,NA,NA
19dcb,shallow,flow.Sequence,1_1_5_1,NA,NA,completion,15597.96,216833,216830.54,216847.2,232445.16,232454,2023-10-20T14:05:25Z,232461.8,"c(""distractor1"", ""distractor2"", ""distractor3"")",Rückhalt,msaada,s,muhula,auwali,kiwimbe,NA,NA,NA,NA,NA,NA,NA,NA,NA,NA,NA,NA,NA,NA,NA,NA,NA,NA,NA,NA,NA,NA,NA
19dcb,task,flow.Sequence,1_1_5,NA,NA,completion,15597.96,216833,216830.54,216847.2,232445.16,232455,2023-10-20T14:05:25Z,232461.8,"c(""distractor1"", ""distractor2"", ""distractor3"")",Rückhalt,msaada,s,muhula,auwali,kiwimbe,NA,NA,NA,NA,NA,NA,NA,NA,NA,NA,NA,NA,NA,NA,NA,NA,NA,NA,NA,NA,NA,NA,NA
19dcb,block,flow.Loop,1_1,NA,NA,completion,83555.94,148886,148886.78,148889.22,232445.16,232455,2023-10-20T14:05:25Z,232461.8,"c(""distractor1"", ""distractor2"", ""distractor3"")",NA,NA,NA,NA,NA,NA,NA,NA,NA,NA,NA,NA,NA,NA,NA,NA,NA,NA,NA,NA,NA,NA,NA,NA,NA,NA,NA,NA,NA
19dcb,Practice,flow.Sequence,1,NA,NA,completion,98737.32,133706,133706.18,133707.84,232445.16,232456,2023-10-20T14:05:25Z,232461.8,NULL,NA,NA,NA,NA,NA,NA,NA,NA,NA,NA,NA,NA,NA,NA,NA,NA,NA,NA,NA,NA,NA,NA,NA,NA,NA,NA,NA,NA,NA
19dcb,Experiment start,canvas.Screen,2,weiter,keypress(q),response,57400.2,232456,232445.16,232461.8,289862,289869,2023-10-20T14:06:22Z,289968.7,NULL,NA,NA,NA,NA,NA,NA,NA,NA,NA,NA,NA,NA,NA,NA,NA,NA,NA,NA,NA,NA,NA,NA,NA,NA,NA,NA,NA,NA,NA
19dcb,Deep Question,html.Page,3_0_0_0_0_0_0,NA,NA,form submission,9089.3,289968,289968.34,289968.7,299058,299060,2023-10-20T14:06:31Z,299069.96,NULL,Schlange,foleni,d,NA,NA,NA,klarm,NA,NA,0,NA,NA,NA,NA,NA,NA,NA,NA,NA,NA,NA,NA,NA,NA,NA,NA,NA,NA,NA
19dcb,"""Richtig""-Screen",canvas.Screen,3_0_0_0_0_0_1,NA,NA,skipped,NA,299068,NA,NA,299058,299068,2023-10-20T14:06:31Z,299069.96,NULL,Schlange,foleni,d,NA,NA,NA,NA,sdf,NA,0,NA,NA,NA,NA,NA,NA,NA,NA,NA,NA,NA,NA,NA,NA,NA,NA,NA,NA,NA
19dcb,"""Falsch""-Screen",canvas.Screen,3_0_0_0_0_0_2,NA,NA,timeout,4999.38,299072,299056.62,299069.96,304052.7,304055,2023-10-20T14:06:36Z,304069.34,NULL,Schlange,foleni,d,NA,NA,NA,NA,sdf,0,0,NA,NA,NA,NA,NA,NA,NA,NA,NA,NA,NA,NA,NA,NA,NA,NA,NA,NA,NA
19dcb,deep,flow.Sequence,3_0_0_0_0_0,NA,NA,completion,14084,289968,289968.34,289968.7,304052.7,304055,2023-10-20T14:06:36Z,304069.34,NULL,Schlange,foleni,d,NA,NA,NA,NA,sdf,NA,0,NA,NA,NA,NA,NA,NA,NA,NA,NA,NA,NA,NA,NA,NA,NA,NA,NA,NA,NA
19dcb,shallow,flow.Sequence,3_0_0_0_0_1,NA,NA,skipped,NA,304056,NA,NA,304052.7,304056,2023-10-20T14:06:36Z,304069.34,NULL,Schlange,foleni,d,NA,NA,NA,NA,sdf,NA,0,NA,NA,NA,NA,NA,NA,NA,NA,NA,NA,NA,NA,NA,NA,NA,NA,NA,NA,NA
19dcb,task,flow.Sequence,3_0_0_0_0,NA,NA,completion,14084,289968,289968.34,289968.7,304052.7,304057,2023-10-20T14:06:36Z,304069.34,NULL,Schlange,foleni,d,NA,NA,NA,NA,sdf,NA,0,NA,NA,NA,NA,NA,NA,NA,NA,NA,NA,NA,NA,NA,NA,NA,NA,NA,NA,NA
19dcb,Deep Question,html.Page,3_0_0_0_1_0_0,NA,NA,form submission,7273.66,304058,304052.7,304069.34,311343,311344,2023-10-20T14:06:44Z,311351.68,NULL,Genehmigung,idhini,d,NA,NA,NA,true,NA,NA,0,NA,NA,NA,NA,NA,NA,NA,NA,NA,NA,NA,NA,NA,NA,NA,NA,NA,NA,NA
19dcb,"""Richtig""-Screen",canvas.Screen,3_0_0_0_1_0_1,NA,NA,skipped,NA,311347,NA,NA,311343,311347,2023-10-20T14:06:44Z,311351.68,NULL,Genehmigung,idhini,d,NA,NA,NA,NA,sdf,NA,0,NA,NA,NA,NA,NA,NA,NA,NA,NA,NA,NA,NA,NA,NA,NA,NA,NA,NA,NA
19dcb,"""Falsch""-Screen",canvas.Screen,3_0_0_0_1_0_2,NA,NA,timeout,4999.4,311349,311341.76,311351.68,316334.54,316335,2023-10-20T14:06:49Z,316351.08,NULL,Genehmigung,idhini,d,NA,NA,NA,NA,sdf,0,0,NA,NA,NA,NA,NA,NA,NA,NA,NA,NA,NA,NA,NA,NA,NA,NA,NA,NA,NA
19dcb,deep,flow.Sequence,3_0_0_0_1_0,NA,NA,completion,12265.2,304058,304052.7,304069.34,316334.54,316336,2023-10-20T14:06:49Z,316351.08,NULL,Genehmigung,idhini,d,NA,NA,NA,NA,sdf,NA,0,NA,NA,NA,NA,NA,NA,NA,NA,NA,NA,NA,NA,NA,NA,NA,NA,NA,NA,NA
19dcb,shallow,flow.Sequence,3_0_0_0_1_1,NA,NA,skipped,NA,316338,NA,NA,316334.54,316338,2023-10-20T14:06:49Z,316351.08,NULL,Genehmigung,idhini,d,NA,NA,NA,NA,sdf,NA,0,NA,NA,NA,NA,NA,NA,NA,NA,NA,NA,NA,NA,NA,NA,NA,NA,NA,NA,NA
19dcb,task,flow.Sequence,3_0_0_0_1,NA,NA,completion,12265.2,304057,304052.7,304069.34,316334.54,316339,2023-10-20T14:06:49Z,316351.08,NULL,Genehmigung,idhini,d,NA,NA,NA,NA,sdf,NA,0,NA,NA,NA,NA,NA,NA,NA,NA,NA,NA,NA,NA,NA,NA,NA,NA,NA,NA,NA
19dcb,Deep Question,html.Page,3_0_0_0_2_0_0,NA,NA,form submission,8416.92,316339,316334.54,316351.08,324768,324769,2023-10-20T14:06:57Z,324767.46,NULL,Toleranz,kuvumiliana,d,NA,NA,NA,lori,NA,NA,0,NA,NA,NA,NA,NA,NA,NA,NA,NA,NA,NA,NA,NA,NA,NA,NA,NA,NA,NA
19dcb,"""Richtig""-Screen",canvas.Screen,3_0_0_0_2_0_1,NA,NA,skipped,NA,324771,NA,NA,324768,324772,2023-10-20T14:06:57Z,324767.46,NULL,Toleranz,kuvumiliana,d,NA,NA,NA,NA,sdf,NA,0,NA,NA,NA,NA,NA,NA,NA,NA,NA,NA,NA,NA,NA,NA,NA,NA,NA,NA,NA
19dcb,"""Falsch""-Screen",canvas.Screen,3_0_0_0_2_0_2,NA,NA,timeout,4998.58,324775,324767.16,324767.46,329749.38,329751,2023-10-20T14:07:02Z,329766.04,NULL,Toleranz,kuvumiliana,d,NA,NA,NA,NA,sdf,0,0,NA,NA,NA,NA,NA,NA,NA,NA,NA,NA,NA,NA,NA,NA,NA,NA,NA,NA,NA
19dcb,deep,flow.Sequence,3_0_0_0_2_0,NA,NA,completion,13398.3,316339,316334.54,316351.08,329749.38,329752,2023-10-20T14:07:02Z,329766.04,NULL,Toleranz,kuvumiliana,d,NA,NA,NA,NA,sdf,NA,0,NA,NA,NA,NA,NA,NA,NA,NA,NA,NA,NA,NA,NA,NA,NA,NA,NA,NA,NA
19dcb,shallow,flow.Sequence,3_0_0_0_2_1,NA,NA,skipped,NA,329752,NA,NA,329749.38,329752,2023-10-20T14:07:02Z,329766.04,NULL,Toleranz,kuvumiliana,d,NA,NA,NA,NA,sdf,NA,0,NA,NA,NA,NA,NA,NA,NA,NA,NA,NA,NA,NA,NA,NA,NA,NA,NA,NA,NA
19dcb,task,flow.Sequence,3_0_0_0_2,NA,NA,completion,13398.3,316339,316334.54,316351.08,329749.38,329753,2023-10-20T14:07:02Z,329766.04,NULL,Toleranz,kuvumiliana,d,NA,NA,NA,NA,sdf,NA,0,NA,NA,NA,NA,NA,NA,NA,NA,NA,NA,NA,NA,NA,NA,NA,NA,NA,NA,NA
19dcb,deep,flow.Sequence,3_0_0_0_3_0,NA,NA,skipped,NA,329754,NA,NA,329749.38,329754,2023-10-20T14:07:02Z,329766.04,NULL,Fleisch,mshakiki,s,kizunguzungu,mshikamano,angusho,NA,sdf,NA,0,NA,NA,NA,NA,NA,NA,NA,NA,NA,NA,NA,NA,NA,NA,NA,NA,NA,NA,NA
19dcb,Shallow Question,html.Page,3_0_0_0_3_1_0,NA,NA,form submission,12116.96,329755,329749.38,329766.04,341883,341884,2023-10-20T14:07:14Z,341897.78,NULL,Fleisch,mshakiki,s,kizunguzungu,mshikamano,angusho,angusho,NA,NA,0,NA,NA,NA,NA,NA,NA,NA,NA,NA,NA,NA,NA,NA,NA,NA,NA,NA,NA,NA
19dcb,"""Richtig""-Screen",canvas.Screen,3_0_0_0_3_1_1,NA,NA,skipped,NA,341891,NA,NA,341883,341891,2023-10-20T14:07:14Z,341897.78,NULL,Fleisch,mshakiki,s,kizunguzungu,mshikamano,angusho,NA,sdf,NA,0,NA,NA,NA,NA,NA,NA,NA,NA,NA,NA,NA,NA,NA,NA,NA,NA,NA,NA,NA
19dcb,"""Falsch""-Screen",canvas.Screen,3_0_0_0_3_1_2,NA,NA,timeout,4999.3199999999,341896,341878.8,341897.78,346880.44,346881,2023-10-20T14:07:19Z,346897.1,NULL,Fleisch,mshakiki,s,kizunguzungu,mshikamano,angusho,NA,sdf,0,0,NA,NA,NA,NA,NA,NA,NA,NA,NA,NA,NA,NA,NA,NA,NA,NA,NA,NA,NA
19dcb,shallow,flow.Sequence,3_0_0_0_3_1,NA,NA,completion,17114.4,329754,329749.38,329766.04,346880.44,346882,2023-10-20T14:07:19Z,346897.1,NULL,Fleisch,mshakiki,s,kizunguzungu,mshikamano,angusho,NA,sdf,NA,0,NA,NA,NA,NA,NA,NA,NA,NA,NA,NA,NA,NA,NA,NA,NA,NA,NA,NA,NA
19dcb,task,flow.Sequence,3_0_0_0_3,NA,NA,completion,17114.4,329754,329749.38,329766.04,346880.44,346882,2023-10-20T14:07:19Z,346897.1,NULL,Fleisch,mshakiki,s,kizunguzungu,mshikamano,angusho,NA,sdf,NA,0,NA,NA,NA,NA,NA,NA,NA,NA,NA,NA,NA,NA,NA,NA,NA,NA,NA,NA,NA
19dcb,deep,flow.Sequence,3_0_0_0_4_0,NA,NA,skipped,NA,346882,NA,NA,346880.44,346883,2023-10-20T14:07:19Z,346897.1,NULL,Vermutung,udhanifu,s,haramia,tikisho,itifaki,NA,sdf,NA,0,NA,NA,NA,NA,NA,NA,NA,NA,NA,NA,NA,NA,NA,NA,NA,NA,NA,NA,NA
19dcb,Shallow Question,html.Page,3_0_0_0_4_1_0,NA,NA,form submission,6442.9,346883,346880.44,346897.1,353340,353340,2023-10-20T14:07:26Z,353346.32,NULL,Vermutung,udhanifu,s,haramia,tikisho,itifaki,haramia,NA,NA,0,NA,NA,NA,NA,NA,NA,NA,NA,NA,NA,NA,NA,NA,NA,NA,NA,NA,NA,NA
19dcb,"""Richtig""-Screen",canvas.Screen,3_0_0_0_4_1_1,NA,NA,skipped,NA,353343,NA,NA,353340,353343,2023-10-20T14:07:26Z,353346.32,NULL,Vermutung,udhanifu,s,haramia,tikisho,itifaki,NA,sdf,NA,0,NA,NA,NA,NA,NA,NA,NA,NA,NA,NA,NA,NA,NA,NA,NA,NA,NA,NA,NA
19dcb,"""Falsch""-Screen",canvas.Screen,3_0_0_0_4_1_2,NA,NA,timeout,4999.4,353347,353335.3,353346.32,358329.06,358331,2023-10-20T14:07:31Z,358345.72,NULL,Vermutung,udhanifu,s,haramia,tikisho,itifaki,NA,sdf,0,0,NA,NA,NA,NA,NA,NA,NA,NA,NA,NA,NA,NA,NA,NA,NA,NA,NA,NA,NA
19dcb,shallow,flow.Sequence,3_0_0_0_4_1,NA,NA,completion,11431.96,346883,346880.44,346897.1,358329.06,358331,2023-10-20T14:07:31Z,358345.72,NULL,Vermutung,udhanifu,s,haramia,tikisho,itifaki,NA,sdf,NA,0,NA,NA,NA,NA,NA,NA,NA,NA,NA,NA,NA,NA,NA,NA,NA,NA,NA,NA,NA
19dcb,task,flow.Sequence,3_0_0_0_4,NA,NA,completion,11431.96,346882,346880.44,346897.1,358329.06,358331,2023-10-20T14:07:31Z,358345.72,NULL,Vermutung,udhanifu,s,haramia,tikisho,itifaki,NA,sdf,NA,0,NA,NA,NA,NA,NA,NA,NA,NA,NA,NA,NA,NA,NA,NA,NA,NA,NA,NA,NA
19dcb,deep,flow.Sequence,3_0_0_0_5_0,NA,NA,skipped,NA,358332,NA,NA,358329.06,358332,2023-10-20T14:07:31Z,358345.72,NULL,Inhalt,yaliyomo,s,kishawishi,hifadhi,kutembea,NA,sdf,NA,0,NA,NA,NA,NA,NA,NA,NA,NA,NA,NA,NA,NA,NA,NA,NA,NA,NA,NA,NA
19dcb,Shallow Question,html.Page,3_0_0_0_5_1_0,NA,NA,form submission,11463.28,358332,358329.06,358345.72,369809,369810,2023-10-20T14:07:42Z,369810.96,NULL,Inhalt,yaliyomo,s,kishawishi,hifadhi,kutembea,hifadhi,NA,NA,0,NA,NA,NA,NA,NA,NA,NA,NA,NA,NA,NA,NA,NA,NA,NA,NA,NA,NA,NA
19dcb,"""Richtig""-Screen",canvas.Screen,3_0_0_0_5_1_1,NA,NA,skipped,NA,369815,NA,NA,369809,369816,2023-10-20T14:07:42Z,369810.96,NULL,Inhalt,yaliyomo,s,kishawishi,hifadhi,kutembea,NA,sdf,NA,0,NA,NA,NA,NA,NA,NA,NA,NA,NA,NA,NA,NA,NA,NA,NA,NA,NA,NA,NA
19dcb,"""Falsch""-Screen",canvas.Screen,3_0_0_0_5_1_2,NA,NA,timeout,4999.38,369821,369804.1,369810.96,374793.7,374795,2023-10-20T14:07:47Z,374810.34,NULL,Inhalt,yaliyomo,s,kishawishi,hifadhi,kutembea,NA,sdf,0,0,NA,NA,NA,NA,NA,NA,NA,NA,NA,NA,NA,NA,NA,NA,NA,NA,NA,NA,NA
19dcb,shallow,flow.Sequence,3_0_0_0_5_1,NA,NA,completion,16447.98,358332,358329.06,358345.72,374793.7,374797,2023-10-20T14:07:47Z,374810.34,NULL,Inhalt,yaliyomo,s,kishawishi,hifadhi,kutembea,NA,sdf,NA,0,NA,NA,NA,NA,NA,NA,NA,NA,NA,NA,NA,NA,NA,NA,NA,NA,NA,NA,NA
19dcb,task,flow.Sequence,3_0_0_0_5,NA,NA,completion,16447.98,358332,358329.06,358345.72,374793.7,374798,2023-10-20T14:07:47Z,374810.34,NULL,Inhalt,yaliyomo,s,kishawishi,hifadhi,kutembea,NA,sdf,NA,0,NA,NA,NA,NA,NA,NA,NA,NA,NA,NA,NA,NA,NA,NA,NA,NA,NA,NA,NA
19dcb,Deep Question,html.Page,3_0_0_0_6_0_0,NA,NA,form submission,9318.66,374798,374793.7,374810.34,384129,384129,2023-10-20T14:07:56Z,384142.42,NULL,Begegnung,kukutana,d,NA,NA,NA,foleni,NA,NA,0,NA,NA,NA,NA,NA,NA,NA,NA,NA,NA,NA,NA,NA,NA,NA,NA,NA,NA,NA
19dcb,"""Richtig""-Screen",canvas.Screen,3_0_0_0_6_0_1,NA,NA,skipped,NA,384131,NA,NA,384129,384131,2023-10-20T14:07:56Z,384142.42,NULL,Begegnung,kukutana,d,NA,NA,NA,NA,sdf,NA,0,NA,NA,NA,NA,NA,NA,NA,NA,NA,NA,NA,NA,NA,NA,NA,NA,NA,NA,NA
19dcb,"""Falsch""-Screen",canvas.Screen,3_0_0_0_6_0_2,NA,NA,timeout,4999.38,384133,384128.6,384142.42,389125.18,389127,2023-10-20T14:08:01Z,389141.8,NULL,Begegnung,kukutana,d,NA,NA,NA,NA,sdf,0,0,NA,NA,NA,NA,NA,NA,NA,NA,NA,NA,NA,NA,NA,NA,NA,NA,NA,NA,NA
19dcb,deep,flow.Sequence,3_0_0_0_6_0,NA,NA,completion,14314.84,374798,374793.7,374810.34,389125.18,389128,2023-10-20T14:08:01Z,389141.8,NULL,Begegnung,kukutana,d,NA,NA,NA,NA,sdf,NA,0,NA,NA,NA,NA,NA,NA,NA,NA,NA,NA,NA,NA,NA,NA,NA,NA,NA,NA,NA
19dcb,shallow,flow.Sequence,3_0_0_0_6_1,NA,NA,skipped,NA,389128,NA,NA,389125.18,389128,2023-10-20T14:08:01Z,389141.8,NULL,Begegnung,kukutana,d,NA,NA,NA,NA,sdf,NA,0,NA,NA,NA,NA,NA,NA,NA,NA,NA,NA,NA,NA,NA,NA,NA,NA,NA,NA,NA
19dcb,task,flow.Sequence,3_0_0_0_6,NA,NA,completion,14314.84,374798,374793.7,374810.34,389125.18,389129,2023-10-20T14:08:01Z,389141.8,NULL,Begegnung,kukutana,d,NA,NA,NA,NA,sdf,NA,0,NA,NA,NA,NA,NA,NA,NA,NA,NA,NA,NA,NA,NA,NA,NA,NA,NA,NA,NA
19dcb,deep,flow.Sequence,3_0_0_0_7_0,NA,NA,skipped,NA,389129,NA,NA,389125.18,389129,2023-10-20T14:08:01Z,389141.8,NULL,Integrität,uadilifu,s,muungano,mtiririko,upunguaji,NA,sdf,NA,0,NA,NA,NA,NA,NA,NA,NA,NA,NA,NA,NA,NA,NA,NA,NA,NA,NA,NA,NA
19dcb,Shallow Question,html.Page,3_0_0_0_7_1_0,NA,NA,form submission,8999.2,389129,389125.18,389141.8,398141,398141,2023-10-20T14:08:10Z,398140.58,NULL,Integrität,uadilifu,s,muungano,mtiririko,upunguaji,muungano,NA,NA,0,NA,NA,NA,NA,NA,NA,NA,NA,NA,NA,NA,NA,NA,NA,NA,NA,NA,NA,NA
19dcb,"""Richtig""-Screen",canvas.Screen,3_0_0_0_7_1_1,NA,NA,skipped,NA,398143,NA,NA,398141,398143,2023-10-20T14:08:10Z,398140.58,NULL,Integrität,uadilifu,s,muungano,mtiririko,upunguaji,NA,sdf,NA,0,NA,NA,NA,NA,NA,NA,NA,NA,NA,NA,NA,NA,NA,NA,NA,NA,NA,NA,NA
19dcb,"""Falsch""-Screen",canvas.Screen,3_0_0_0_7_1_2,NA,NA,timeout,4999.34,398145,398138.96,398140.58,403123.26,403124,2023-10-20T14:08:15Z,403139.92,NULL,Integrität,uadilifu,s,muungano,mtiririko,upunguaji,NA,sdf,0,0,NA,NA,NA,NA,NA,NA,NA,NA,NA,NA,NA,NA,NA,NA,NA,NA,NA,NA,NA
19dcb,shallow,flow.Sequence,3_0_0_0_7_1,NA,NA,completion,13981.46,389129,389125.18,389141.8,403123.26,403125,2023-10-20T14:08:15Z,403139.92,NULL,Integrität,uadilifu,s,muungano,mtiririko,upunguaji,NA,sdf,NA,0,NA,NA,NA,NA,NA,NA,NA,NA,NA,NA,NA,NA,NA,NA,NA,NA,NA,NA,NA
19dcb,task,flow.Sequence,3_0_0_0_7,NA,NA,completion,13981.46,389129,389125.18,389141.8,403123.26,403126,2023-10-20T14:08:15Z,403139.92,NULL,Integrität,uadilifu,s,muungano,mtiririko,upunguaji,NA,sdf,NA,0,NA,NA,NA,NA,NA,NA,NA,NA,NA,NA,NA,NA,NA,NA,NA,NA,NA,NA,NA
19dcb,block,flow.Loop,3_0_0_0,NA,NA,completion,113154.56,289968,289968.34,289968.7,403123.26,403126,2023-10-20T14:08:15Z,403139.92,NULL,NA,NA,NA,NA,NA,NA,NA,sdf,NA,0,NA,NA,NA,NA,NA,NA,NA,NA,NA,NA,NA,NA,NA,NA,NA,NA,NA,NA,NA
19dcb,weiter,canvas.Screen,3_0_0_1,sdf,keypress(Space),response,1769.08,403126,403123.26,403139.92,404909,404924,2023-10-20T14:08:17Z,404989.74,NULL,NA,NA,NA,NA,NA,NA,NA,sdf,NA,0,NA,NA,NA,NA,NA,NA,NA,NA,NA,NA,NA,NA,NA,NA,NA,NA,NA,NA,NA
19dcb,check continue,flow.Sequence,3_0_0,NA,NA,completion,114940.3,289968,289968.34,289968.7,404909,404927,2023-10-20T14:08:17Z,404989.74,NULL,NA,NA,NA,NA,NA,NA,NA,sdf,NA,0,NA,NA,NA,NA,NA,NA,NA,NA,NA,NA,NA,NA,NA,NA,NA,NA,NA,NA,NA
19dcb,Deep Question,html.Page,3_0_1_0_0_0_0,NA,NA,form submission,5496.26,404989,404988.3,404989.74,410486,410487,2023-10-20T14:08:23Z,410489,NULL,Schlange,foleni,d,NA,NA,NA,fuleni,NA,NA,1,NA,NA,NA,NA,NA,NA,NA,NA,NA,NA,NA,NA,NA,NA,NA,NA,NA,NA,NA
19dcb,"""Richtig""-Screen",canvas.Screen,3_0_1_0_0_0_1,NA,NA,skipped,NA,410494,NA,NA,410486,410494,2023-10-20T14:08:23Z,410489,NULL,Schlange,foleni,d,NA,NA,NA,NA,sdfdsf,NA,1,NA,NA,NA,NA,NA,NA,NA,NA,NA,NA,NA,NA,NA,NA,NA,NA,NA,NA,NA
19dcb,"""Falsch""-Screen",canvas.Screen,3_0_1_0_0_0_2,NA,NA,timeout,4999.4,410498,410483.92,410489,415471.74,415474,2023-10-20T14:08:28Z,415488.4,NULL,Schlange,foleni,d,NA,NA,NA,NA,sdfdsf,0,1,NA,NA,NA,NA,NA,NA,NA,NA,NA,NA,NA,NA,NA,NA,NA,NA,NA,NA,NA
19dcb,deep,flow.Sequence,3_0_1_0_0_0,NA,NA,completion,10482,404989,404988.3,404989.74,415471.74,415474,2023-10-20T14:08:28Z,415488.4,NULL,Schlange,foleni,d,NA,NA,NA,NA,sdfdsf,NA,1,NA,NA,NA,NA,NA,NA,NA,NA,NA,NA,NA,NA,NA,NA,NA,NA,NA,NA,NA
19dcb,shallow,flow.Sequence,3_0_1_0_0_1,NA,NA,skipped,NA,415475,NA,NA,415471.74,415475,2023-10-20T14:08:28Z,415488.4,NULL,Schlange,foleni,d,NA,NA,NA,NA,sdfdsf,NA,1,NA,NA,NA,NA,NA,NA,NA,NA,NA,NA,NA,NA,NA,NA,NA,NA,NA,NA,NA
19dcb,task,flow.Sequence,3_0_1_0_0,NA,NA,completion,10482,404989,404988.3,404989.74,415471.74,415476,2023-10-20T14:08:28Z,415488.4,NULL,Schlange,foleni,d,NA,NA,NA,NA,sdfdsf,NA,1,NA,NA,NA,NA,NA,NA,NA,NA,NA,NA,NA,NA,NA,NA,NA,NA,NA,NA,NA
19dcb,deep,flow.Sequence,3_0_1_0_1_0,NA,NA,skipped,NA,415476,NA,NA,415471.74,415477,2023-10-20T14:08:28Z,415488.4,NULL,Vermutung,udhanifu,s,haramia,tikisho,itifaki,NA,sdfdsf,NA,1,NA,NA,NA,NA,NA,NA,NA,NA,NA,NA,NA,NA,NA,NA,NA,NA,NA,NA,NA
19dcb,Shallow Question,html.Page,3_0_1_0_1_1_0,NA,NA,form submission,5280.6,415477,415471.74,415488.4,420769,420770,2023-10-20T14:08:33Z,420771.12,NULL,Vermutung,udhanifu,s,haramia,tikisho,itifaki,udhanifu,NA,NA,1,NA,NA,NA,NA,NA,NA,NA,NA,NA,NA,NA,NA,NA,NA,NA,NA,NA,NA,NA
19dcb,"""Richtig""-Screen",canvas.Screen,3_0_1_0_1_1_1,NA,NA,timeout,4999.32,420775,420762.86,420771.12,425753.86,425756,2023-10-20T14:08:38Z,425770.44,NULL,Vermutung,udhanifu,s,haramia,tikisho,itifaki,NA,sdfdsf,1,1,NA,NA,NA,NA,NA,NA,NA,NA,NA,NA,NA,NA,NA,NA,NA,NA,NA,NA,NA
19dcb,"""Falsch""-Screen",canvas.Screen,3_0_1_0_1_1_2,NA,NA,skipped,NA,425762,NA,NA,425753.86,425762,2023-10-20T14:08:38Z,425770.44,NULL,Vermutung,udhanifu,s,haramia,tikisho,itifaki,NA,sdfdsf,NA,1,NA,NA,NA,NA,NA,NA,NA,NA,NA,NA,NA,NA,NA,NA,NA,NA,NA,NA,NA
19dcb,shallow,flow.Sequence,3_0_1_0_1_1,NA,NA,completion,10265.46,415477,415471.74,415488.4,425753.86,425763,2023-10-20T14:08:38Z,425770.44,NULL,Vermutung,udhanifu,s,haramia,tikisho,itifaki,NA,sdfdsf,NA,1,NA,NA,NA,NA,NA,NA,NA,NA,NA,NA,NA,NA,NA,NA,NA,NA,NA,NA,NA
19dcb,task,flow.Sequence,3_0_1_0_1,NA,NA,completion,10265.46,415476,415471.74,415488.4,425753.86,425763,2023-10-20T14:08:38Z,425770.44,NULL,Vermutung,udhanifu,s,haramia,tikisho,itifaki,NA,sdfdsf,NA,1,NA,NA,NA,NA,NA,NA,NA,NA,NA,NA,NA,NA,NA,NA,NA,NA,NA,NA,NA
19dcb,deep,flow.Sequence,3_0_1_0_2_0,NA,NA,skipped,NA,425764,NA,NA,425753.86,425764,2023-10-20T14:08:38Z,425770.44,NULL,Inhalt,yaliyomo,s,kishawishi,hifadhi,kutembea,NA,sdfdsf,NA,1,NA,NA,NA,NA,NA,NA,NA,NA,NA,NA,NA,NA,NA,NA,NA,NA,NA,NA,NA
19dcb,Shallow Question,html.Page,3_0_1_0_2_1_0,NA,NA,form submission,4675.56,425764,425753.86,425770.44,430446,430447,2023-10-20T14:08:43Z,430453.22,NULL,Inhalt,yaliyomo,s,kishawishi,hifadhi,kutembea,yaliyomo,NA,NA,1,NA,NA,NA,NA,NA,NA,NA,NA,NA,NA,NA,NA,NA,NA,NA,NA,NA,NA,NA
19dcb,"""Richtig""-Screen",canvas.Screen,3_0_1_0_2_1_1,NA,NA,timeout,4999.32,430456,430440.56,430453.22,435435.9,435438,2023-10-20T14:08:48Z,435452.54,NULL,Inhalt,yaliyomo,s,kishawishi,hifadhi,kutembea,NA,sdfdsf,1,1,NA,NA,NA,NA,NA,NA,NA,NA,NA,NA,NA,NA,NA,NA,NA,NA,NA,NA,NA
19dcb,"""Falsch""-Screen",canvas.Screen,3_0_1_0_2_1_2,NA,NA,skipped,NA,435445,NA,NA,435435.9,435445,2023-10-20T14:08:48Z,435452.54,NULL,Inhalt,yaliyomo,s,kishawishi,hifadhi,kutembea,NA,sdfdsf,NA,1,NA,NA,NA,NA,NA,NA,NA,NA,NA,NA,NA,NA,NA,NA,NA,NA,NA,NA,NA
19dcb,shallow,flow.Sequence,3_0_1_0_2_1,NA,NA,completion,9665.46,425764,425753.86,425770.44,435435.9,435446,2023-10-20T14:08:48Z,435452.54,NULL,Inhalt,yaliyomo,s,kishawishi,hifadhi,kutembea,NA,sdfdsf,NA,1,NA,NA,NA,NA,NA,NA,NA,NA,NA,NA,NA,NA,NA,NA,NA,NA,NA,NA,NA
19dcb,task,flow.Sequence,3_0_1_0_2,NA,NA,completion,9665.46,425764,425753.86,425770.44,435435.9,435446,2023-10-20T14:08:48Z,435452.54,NULL,Inhalt,yaliyomo,s,kishawishi,hifadhi,kutembea,NA,sdfdsf,NA,1,NA,NA,NA,NA,NA,NA,NA,NA,NA,NA,NA,NA,NA,NA,NA,NA,NA,NA,NA
19dcb,Deep Question,html.Page,3_0_1_0_3_0_0,NA,NA,form submission,7571.46,435447,435435.9,435452.54,443024,443025,2023-10-20T14:08:55Z,443024.5,NULL,Begegnung,kukutana,d,NA,NA,NA,hikatiti,NA,NA,1,NA,NA,NA,NA,NA,NA,NA,NA,NA,NA,NA,NA,NA,NA,NA,NA,NA,NA,NA
19dcb,"""Richtig""-Screen",canvas.Screen,3_0_1_0_3_0_1,NA,NA,skipped,NA,443027,NA,NA,443024,443027,2023-10-20T14:08:55Z,443024.5,NULL,Begegnung,kukutana,d,NA,NA,NA,NA,sdfdsf,NA,1,NA,NA,NA,NA,NA,NA,NA,NA,NA,NA,NA,NA,NA,NA,NA,NA,NA,NA,NA
19dcb,"""Falsch""-Screen",canvas.Screen,3_0_1_0_3_0_2,NA,NA,timeout,4993.1,443028,443024.26,443024.5,448000.94,448002,2023-10-20T14:09:00Z,448017.6,NULL,Begegnung,kukutana,d,NA,NA,NA,NA,sdfdsf,0,1,NA,NA,NA,NA,NA,NA,NA,NA,NA,NA,NA,NA,NA,NA,NA,NA,NA,NA,NA
19dcb,deep,flow.Sequence,3_0_1_0_3_0,NA,NA,completion,12548.4,435447,435435.9,435452.54,448000.94,448003,2023-10-20T14:09:00Z,448017.6,NULL,Begegnung,kukutana,d,NA,NA,NA,NA,sdfdsf,NA,1,NA,NA,NA,NA,NA,NA,NA,NA,NA,NA,NA,NA,NA,NA,NA,NA,NA,NA,NA
19dcb,shallow,flow.Sequence,3_0_1_0_3_1,NA,NA,skipped,NA,448003,NA,NA,448000.94,448003,2023-10-20T14:09:00Z,448017.6,NULL,Begegnung,kukutana,d,NA,NA,NA,NA,sdfdsf,NA,1,NA,NA,NA,NA,NA,NA,NA,NA,NA,NA,NA,NA,NA,NA,NA,NA,NA,NA,NA
19dcb,task,flow.Sequence,3_0_1_0_3,NA,NA,completion,12548.4,435447,435435.9,435452.54,448000.94,448004,2023-10-20T14:09:00Z,448017.6,NULL,Begegnung,kukutana,d,NA,NA,NA,NA,sdfdsf,NA,1,NA,NA,NA,NA,NA,NA,NA,NA,NA,NA,NA,NA,NA,NA,NA,NA,NA,NA,NA
19dcb,deep,flow.Sequence,3_0_1_0_4_0,NA,NA,skipped,NA,448004,NA,NA,448000.94,448004,2023-10-20T14:09:00Z,448017.6,NULL,Fleisch,mshakiki,s,kizunguzungu,mshikamano,angusho,NA,sdfdsf,NA,1,NA,NA,NA,NA,NA,NA,NA,NA,NA,NA,NA,NA,NA,NA,NA,NA,NA,NA,NA
19dcb,Shallow Question,html.Page,3_0_1_0_4_1_0,NA,NA,form submission,6669.4,448004,448000.94,448017.6,454687,454688,2023-10-20T14:09:07Z,454683.42,NULL,Fleisch,mshakiki,s,kizunguzungu,mshikamano,angusho,mshakiki,NA,NA,1,NA,NA,NA,NA,NA,NA,NA,NA,NA,NA,NA,NA,NA,NA,NA,NA,NA,NA,NA
19dcb,"""Richtig""-Screen",canvas.Screen,3_0_1_0_4_1_1,NA,NA,timeout,4999.32,454693,454681.26,454683.42,459666.18,459668,2023-10-20T14:09:12Z,459682.74,NULL,Fleisch,mshakiki,s,kizunguzungu,mshikamano,angusho,NA,sdfdsf,1,1,NA,NA,NA,NA,NA,NA,NA,NA,NA,NA,NA,NA,NA,NA,NA,NA,NA,NA,NA
19dcb,"""Falsch""-Screen",canvas.Screen,3_0_1_0_4_1_2,NA,NA,skipped,NA,459674,NA,NA,459666.18,459675,2023-10-20T14:09:12Z,459682.74,NULL,Fleisch,mshakiki,s,kizunguzungu,mshikamano,angusho,NA,sdfdsf,NA,1,NA,NA,NA,NA,NA,NA,NA,NA,NA,NA,NA,NA,NA,NA,NA,NA,NA,NA,NA
19dcb,shallow,flow.Sequence,3_0_1_0_4_1,NA,NA,completion,11648.58,448004,448000.94,448017.6,459666.18,459675,2023-10-20T14:09:12Z,459682.74,NULL,Fleisch,mshakiki,s,kizunguzungu,mshikamano,angusho,NA,sdfdsf,NA,1,NA,NA,NA,NA,NA,NA,NA,NA,NA,NA,NA,NA,NA,NA,NA,NA,NA,NA,NA
19dcb,task,flow.Sequence,3_0_1_0_4,NA,NA,completion,11648.58,448004,448000.94,448017.6,459666.18,459675,2023-10-20T14:09:12Z,459682.74,NULL,Fleisch,mshakiki,s,kizunguzungu,mshikamano,angusho,NA,sdfdsf,NA,1,NA,NA,NA,NA,NA,NA,NA,NA,NA,NA,NA,NA,NA,NA,NA,NA,NA,NA,NA
19dcb,deep,flow.Sequence,3_0_1_0_5_0,NA,NA,skipped,NA,459677,NA,NA,459666.18,459677,2023-10-20T14:09:12Z,459682.74,NULL,Integrität,uadilifu,s,muungano,mtiririko,upunguaji,NA,sdfdsf,NA,1,NA,NA,NA,NA,NA,NA,NA,NA,NA,NA,NA,NA,NA,NA,NA,NA,NA,NA,NA
19dcb,Shallow Question,html.Page,3_0_1_0_5_1_0,NA,NA,form submission,8031.26,459677,459666.18,459682.74,467714,467718,2023-10-20T14:09:20Z,467715.02,NULL,Integrität,uadilifu,s,muungano,mtiririko,upunguaji,uadilifu,NA,NA,1,NA,NA,NA,NA,NA,NA,NA,NA,NA,NA,NA,NA,NA,NA,NA,NA,NA,NA,NA
19dcb,"""Richtig""-Screen",canvas.Screen,3_0_1_0_5_1_1,NA,NA,timeout,4999.46,467728,467704.06,467715.02,472697.8,472700,2023-10-20T14:09:25Z,472714.48,NULL,Integrität,uadilifu,s,muungano,mtiririko,upunguaji,NA,sdfdsf,1,1,NA,NA,NA,NA,NA,NA,NA,NA,NA,NA,NA,NA,NA,NA,NA,NA,NA,NA,NA
19dcb,"""Falsch""-Screen",canvas.Screen,3_0_1_0_5_1_2,NA,NA,skipped,NA,472707,NA,NA,472697.8,472707,2023-10-20T14:09:25Z,472714.48,NULL,Integrität,uadilifu,s,muungano,mtiririko,upunguaji,NA,sdfdsf,NA,1,NA,NA,NA,NA,NA,NA,NA,NA,NA,NA,NA,NA,NA,NA,NA,NA,NA,NA,NA
19dcb,shallow,flow.Sequence,3_0_1_0_5_1,NA,NA,completion,13015.06,459677,459666.18,459682.74,472697.8,472708,2023-10-20T14:09:25Z,472714.48,NULL,Integrität,uadilifu,s,muungano,mtiririko,upunguaji,NA,sdfdsf,NA,1,NA,NA,NA,NA,NA,NA,NA,NA,NA,NA,NA,NA,NA,NA,NA,NA,NA,NA,NA
19dcb,task,flow.Sequence,3_0_1_0_5,NA,NA,completion,13015.06,459677,459666.18,459682.74,472697.8,472708,2023-10-20T14:09:25Z,472714.48,NULL,Integrität,uadilifu,s,muungano,mtiririko,upunguaji,NA,sdfdsf,NA,1,NA,NA,NA,NA,NA,NA,NA,NA,NA,NA,NA,NA,NA,NA,NA,NA,NA,NA,NA
19dcb,Deep Question,html.Page,3_0_1_0_6_0_0,NA,NA,form submission,10888.52,472708,472697.8,472714.48,483603,483603,2023-10-20T14:09:36Z,483602.04,NULL,Toleranz,kuvumiliana,d,NA,NA,NA,kulumbaja,NA,NA,1,NA,NA,NA,NA,NA,NA,NA,NA,NA,NA,NA,NA,NA,NA,NA,NA,NA,NA,NA
19dcb,"""Richtig""-Screen",canvas.Screen,3_0_1_0_6_0_1,NA,NA,skipped,NA,483607,NA,NA,483603,483607,2023-10-20T14:09:36Z,483602.04,NULL,Toleranz,kuvumiliana,d,NA,NA,NA,NA,sdfdsf,NA,1,NA,NA,NA,NA,NA,NA,NA,NA,NA,NA,NA,NA,NA,NA,NA,NA,NA,NA,NA
19dcb,"""Falsch""-Screen",canvas.Screen,3_0_1_0_6_0_2,NA,NA,timeout,4993.74,483610,483601.72,483602.04,488579.12,488580,2023-10-20T14:09:41Z,488595.78,NULL,Toleranz,kuvumiliana,d,NA,NA,NA,NA,sdfdsf,0,1,NA,NA,NA,NA,NA,NA,NA,NA,NA,NA,NA,NA,NA,NA,NA,NA,NA,NA,NA
19dcb,deep,flow.Sequence,3_0_1_0_6_0,NA,NA,completion,15864.64,472708,472697.8,472714.48,488579.12,488581,2023-10-20T14:09:41Z,488595.78,NULL,Toleranz,kuvumiliana,d,NA,NA,NA,NA,sdfdsf,NA,1,NA,NA,NA,NA,NA,NA,NA,NA,NA,NA,NA,NA,NA,NA,NA,NA,NA,NA,NA
19dcb,shallow,flow.Sequence,3_0_1_0_6_1,NA,NA,skipped,NA,488581,NA,NA,488579.12,488581,2023-10-20T14:09:41Z,488595.78,NULL,Toleranz,kuvumiliana,d,NA,NA,NA,NA,sdfdsf,NA,1,NA,NA,NA,NA,NA,NA,NA,NA,NA,NA,NA,NA,NA,NA,NA,NA,NA,NA,NA
19dcb,task,flow.Sequence,3_0_1_0_6,NA,NA,completion,15864.64,472708,472697.8,472714.48,488579.12,488582,2023-10-20T14:09:41Z,488595.78,NULL,Toleranz,kuvumiliana,d,NA,NA,NA,NA,sdfdsf,NA,1,NA,NA,NA,NA,NA,NA,NA,NA,NA,NA,NA,NA,NA,NA,NA,NA,NA,NA,NA
19dcb,Deep Question,html.Page,3_0_1_0_7_0_0,NA,NA,form submission,3817.22,488582,488579.12,488595.78,492413,492414,2023-10-20T14:09:45Z,492412.44,NULL,Genehmigung,idhini,d,NA,NA,NA,j,NA,NA,1,NA,NA,NA,NA,NA,NA,NA,NA,NA,NA,NA,NA,NA,NA,NA,NA,NA,NA,NA
19dcb,"""Richtig""-Screen",canvas.Screen,3_0_1_0_7_0_1,NA,NA,skipped,NA,492417,NA,NA,492413,492417,2023-10-20T14:09:45Z,492412.44,NULL,Genehmigung,idhini,d,NA,NA,NA,NA,sdfdsf,NA,1,NA,NA,NA,NA,NA,NA,NA,NA,NA,NA,NA,NA,NA,NA,NA,NA,NA,NA,NA
19dcb,"""Falsch""-Screen",canvas.Screen,3_0_1_0_7_0_2,NA,NA,timeout,4998.84,492420,492411.32,492412.44,497394.6,497396,2023-10-20T14:09:50Z,497411.28,NULL,Genehmigung,idhini,d,NA,NA,NA,NA,sdfdsf,0,1,NA,NA,NA,NA,NA,NA,NA,NA,NA,NA,NA,NA,NA,NA,NA,NA,NA,NA,NA
19dcb,deep,flow.Sequence,3_0_1_0_7_0,NA,NA,completion,8798.8199999999,488582,488579.12,488595.78,497394.6,497397,2023-10-20T14:09:50Z,497411.28,NULL,Genehmigung,idhini,d,NA,NA,NA,NA,sdfdsf,NA,1,NA,NA,NA,NA,NA,NA,NA,NA,NA,NA,NA,NA,NA,NA,NA,NA,NA,NA,NA
19dcb,shallow,flow.Sequence,3_0_1_0_7_1,NA,NA,skipped,NA,497397,NA,NA,497394.6,497398,2023-10-20T14:09:50Z,497411.28,NULL,Genehmigung,idhini,d,NA,NA,NA,NA,sdfdsf,NA,1,NA,NA,NA,NA,NA,NA,NA,NA,NA,NA,NA,NA,NA,NA,NA,NA,NA,NA,NA
19dcb,task,flow.Sequence,3_0_1_0_7,NA,NA,completion,8798.8199999999,488582,488579.12,488595.78,497394.6,497398,2023-10-20T14:09:50Z,497411.28,NULL,Genehmigung,idhini,d,NA,NA,NA,NA,sdfdsf,NA,1,NA,NA,NA,NA,NA,NA,NA,NA,NA,NA,NA,NA,NA,NA,NA,NA,NA,NA,NA
19dcb,block,flow.Loop,3_0_1_0,NA,NA,completion,92404.86,404989,404988.3,404989.74,497394.6,497398,2023-10-20T14:09:50Z,497411.28,NULL,NA,NA,NA,NA,NA,NA,NA,sdfdsf,NA,1,NA,NA,NA,NA,NA,NA,NA,NA,NA,NA,NA,NA,NA,NA,NA,NA,NA,NA,NA
19dcb,weiter,canvas.Screen,3_0_1_1,sdf,keypress(Space),response,5841.72,497398,497394.6,497411.28,503253,503257,2023-10-20T14:09:56Z,503320.68,NULL,NA,NA,NA,NA,NA,NA,NA,sdfdsf,NA,1,NA,NA,NA,NA,NA,NA,NA,NA,NA,NA,NA,NA,NA,NA,NA,NA,NA,NA,NA
19dcb,check continue,flow.Sequence,3_0_1,NA,NA,completion,98263.26,404989,404988.3,404989.74,503253,503259,2023-10-20T14:09:56Z,503320.68,NULL,NA,NA,NA,NA,NA,NA,NA,sdfdsf,NA,1,NA,NA,NA,NA,NA,NA,NA,NA,NA,NA,NA,NA,NA,NA,NA,NA,NA,NA,NA
19dcb,deep,flow.Sequence,3_0_2_0_0_0,NA,NA,skipped,NA,503320,NA,NA,503253,503320,2023-10-20T14:09:56Z,503320.68,NULL,Inhalt,yaliyomo,s,kishawishi,hifadhi,kutembea,NA,sdf,NA,2,NA,NA,NA,NA,NA,NA,NA,NA,NA,NA,NA,NA,NA,NA,NA,NA,NA,NA,NA
19dcb,Shallow Question,html.Page,3_0_2_0_0_1_0,NA,NA,form submission,4981.32,503320,503320.3,503320.68,508302,508302,2023-10-20T14:10:01Z,508309.9,NULL,Inhalt,yaliyomo,s,kishawishi,hifadhi,kutembea,yaliyomo,NA,NA,2,NA,NA,NA,NA,NA,NA,NA,NA,NA,NA,NA,NA,NA,NA,NA,NA,NA,NA,NA
19dcb,"""Richtig""-Screen",canvas.Screen,3_0_2_0_0_1_1,NA,NA,timeout,4999.42,508304,508300.04,508309.9,513292.66,513294,2023-10-20T14:10:06Z,513309.32,NULL,Inhalt,yaliyomo,s,kishawishi,hifadhi,kutembea,NA,sdf,1,2,NA,NA,NA,NA,NA,NA,NA,NA,NA,NA,NA,NA,NA,NA,NA,NA,NA,NA,NA
19dcb,"""Falsch""-Screen",canvas.Screen,3_0_2_0_0_1_2,NA,NA,skipped,NA,513300,NA,NA,513292.66,513301,2023-10-20T14:10:06Z,513309.32,NULL,Inhalt,yaliyomo,s,kishawishi,hifadhi,kutembea,NA,sdf,NA,2,NA,NA,NA,NA,NA,NA,NA,NA,NA,NA,NA,NA,NA,NA,NA,NA,NA,NA,NA
19dcb,shallow,flow.Sequence,3_0_2_0_0_1,NA,NA,completion,9971.98,503320,503320.3,503320.68,513292.66,513301,2023-10-20T14:10:06Z,513309.32,NULL,Inhalt,yaliyomo,s,kishawishi,hifadhi,kutembea,NA,sdf,NA,2,NA,NA,NA,NA,NA,NA,NA,NA,NA,NA,NA,NA,NA,NA,NA,NA,NA,NA,NA
19dcb,task,flow.Sequence,3_0_2_0_0,NA,NA,completion,9971.98,503320,503320.3,503320.68,513292.66,513302,2023-10-20T14:10:06Z,513309.32,NULL,Inhalt,yaliyomo,s,kishawishi,hifadhi,kutembea,NA,sdf,NA,2,NA,NA,NA,NA,NA,NA,NA,NA,NA,NA,NA,NA,NA,NA,NA,NA,NA,NA,NA
19dcb,Deep Question,html.Page,3_0_2_0_1_0_0,NA,NA,form submission,15963.68,513302,513292.66,513309.32,529273,529273,2023-10-20T14:10:22Z,529273.92,NULL,Toleranz,kuvumiliana,d,NA,NA,NA,kilimJ,NA,NA,2,NA,NA,NA,NA,NA,NA,NA,NA,NA,NA,NA,NA,NA,NA,NA,NA,NA,NA,NA
19dcb,"""Richtig""-Screen",canvas.Screen,3_0_2_0_1_0_1,NA,NA,skipped,NA,529275,NA,NA,529273,529275,2023-10-20T14:10:22Z,529273.92,NULL,Toleranz,kuvumiliana,d,NA,NA,NA,NA,sdf,NA,2,NA,NA,NA,NA,NA,NA,NA,NA,NA,NA,NA,NA,NA,NA,NA,NA,NA,NA,NA
19dcb,"""Falsch""-Screen",canvas.Screen,3_0_2_0_1_0_2,NA,NA,timeout,4999.2999999999,529279,529272.12,529273.92,534256.62,534258,2023-10-20T14:10:27Z,534273.22,NULL,Toleranz,kuvumiliana,d,NA,NA,NA,NA,sdf,0,2,NA,NA,NA,NA,NA,NA,NA,NA,NA,NA,NA,NA,NA,NA,NA,NA,NA,NA,NA
19dcb,deep,flow.Sequence,3_0_2_0_1_0,NA,NA,completion,20947.3,513302,513292.66,513309.32,534256.62,534258,2023-10-20T14:10:27Z,534273.22,NULL,Toleranz,kuvumiliana,d,NA,NA,NA,NA,sdf,NA,2,NA,NA,NA,NA,NA,NA,NA,NA,NA,NA,NA,NA,NA,NA,NA,NA,NA,NA,NA
19dcb,shallow,flow.Sequence,3_0_2_0_1_1,NA,NA,skipped,NA,534259,NA,NA,534256.62,534259,2023-10-20T14:10:27Z,534273.22,NULL,Toleranz,kuvumiliana,d,NA,NA,NA,NA,sdf,NA,2,NA,NA,NA,NA,NA,NA,NA,NA,NA,NA,NA,NA,NA,NA,NA,NA,NA,NA,NA
19dcb,task,flow.Sequence,3_0_2_0_1,NA,NA,completion,20947.3,513302,513292.66,513309.32,534256.62,534259,2023-10-20T14:10:27Z,534273.22,NULL,Toleranz,kuvumiliana,d,NA,NA,NA,NA,sdf,NA,2,NA,NA,NA,NA,NA,NA,NA,NA,NA,NA,NA,NA,NA,NA,NA,NA,NA,NA,NA
19dcb,deep,flow.Sequence,3_0_2_0_2_0,NA,NA,skipped,NA,534260,NA,NA,534256.62,534260,2023-10-20T14:10:27Z,534273.22,NULL,Fleisch,mshakiki,s,kizunguzungu,mshikamano,angusho,NA,sdf,NA,2,NA,NA,NA,NA,NA,NA,NA,NA,NA,NA,NA,NA,NA,NA,NA,NA,NA,NA,NA
19dcb,Shallow Question,html.Page,3_0_2_0_2_1_0,NA,NA,form submission,4523.78,534260,534256.62,534273.22,538797,538797,2023-10-20T14:10:31Z,538806,NULL,Fleisch,mshakiki,s,kizunguzungu,mshikamano,angusho,mshakiki,NA,NA,2,NA,NA,NA,NA,NA,NA,NA,NA,NA,NA,NA,NA,NA,NA,NA,NA,NA,NA,NA
19dcb,"""Richtig""-Screen",canvas.Screen,3_0_2_0_2_1_1,NA,NA,timeout,4999.36,538800,538794.72,538806,543788.7,543790,2023-10-20T14:10:36Z,543805.36,NULL,Fleisch,mshakiki,s,kizunguzungu,mshikamano,angusho,NA,sdf,1,2,NA,NA,NA,NA,NA,NA,NA,NA,NA,NA,NA,NA,NA,NA,NA,NA,NA,NA,NA
19dcb,"""Falsch""-Screen",canvas.Screen,3_0_2_0_2_1_2,NA,NA,skipped,NA,543797,NA,NA,543788.7,543798,2023-10-20T14:10:36Z,543805.36,NULL,Fleisch,mshakiki,s,kizunguzungu,mshikamano,angusho,NA,sdf,NA,2,NA,NA,NA,NA,NA,NA,NA,NA,NA,NA,NA,NA,NA,NA,NA,NA,NA,NA,NA
19dcb,shallow,flow.Sequence,3_0_2_0_2_1,NA,NA,completion,9515.48,534260,534256.62,534273.22,543788.7,543798,2023-10-20T14:10:36Z,543805.36,NULL,Fleisch,mshakiki,s,kizunguzungu,mshikamano,angusho,NA,sdf,NA,2,NA,NA,NA,NA,NA,NA,NA,NA,NA,NA,NA,NA,NA,NA,NA,NA,NA,NA,NA
19dcb,task,flow.Sequence,3_0_2_0_2,NA,NA,completion,9515.48,534260,534256.62,534273.22,543788.7,543798,2023-10-20T14:10:36Z,543805.36,NULL,Fleisch,mshakiki,s,kizunguzungu,mshikamano,angusho,NA,sdf,NA,2,NA,NA,NA,NA,NA,NA,NA,NA,NA,NA,NA,NA,NA,NA,NA,NA,NA,NA,NA
19dcb,Deep Question,html.Page,3_0_2_0_3_0_0,NA,NA,form submission,5524.64,543798,543788.7,543805.36,549330,549330,2023-10-20T14:10:42Z,549337.98,NULL,Begegnung,kukutana,d,NA,NA,NA,idhini,NA,NA,2,NA,NA,NA,NA,NA,NA,NA,NA,NA,NA,NA,NA,NA,NA,NA,NA,NA,NA,NA
19dcb,"""Richtig""-Screen",canvas.Screen,3_0_2_0_3_0_1,NA,NA,skipped,NA,549332,NA,NA,549330,549332,2023-10-20T14:10:42Z,549337.98,NULL,Begegnung,kukutana,d,NA,NA,NA,NA,sdf,NA,2,NA,NA,NA,NA,NA,NA,NA,NA,NA,NA,NA,NA,NA,NA,NA,NA,NA,NA,NA
19dcb,"""Falsch""-Screen",canvas.Screen,3_0_2_0_3_0_2,NA,NA,timeout,4999.36,549335,549328.64,549337.98,554320.68,554322,2023-10-20T14:10:47Z,554337.34,NULL,Begegnung,kukutana,d,NA,NA,NA,NA,sdf,0,2,NA,NA,NA,NA,NA,NA,NA,NA,NA,NA,NA,NA,NA,NA,NA,NA,NA,NA,NA
19dcb,deep,flow.Sequence,3_0_2_0_3_0,NA,NA,completion,10515.32,543798,543788.7,543805.36,554320.68,554322,2023-10-20T14:10:47Z,554337.34,NULL,Begegnung,kukutana,d,NA,NA,NA,NA,sdf,NA,2,NA,NA,NA,NA,NA,NA,NA,NA,NA,NA,NA,NA,NA,NA,NA,NA,NA,NA,NA
19dcb,shallow,flow.Sequence,3_0_2_0_3_1,NA,NA,skipped,NA,554323,NA,NA,554320.68,554323,2023-10-20T14:10:47Z,554337.34,NULL,Begegnung,kukutana,d,NA,NA,NA,NA,sdf,NA,2,NA,NA,NA,NA,NA,NA,NA,NA,NA,NA,NA,NA,NA,NA,NA,NA,NA,NA,NA
19dcb,task,flow.Sequence,3_0_2_0_3,NA,NA,completion,10515.32,543798,543788.7,543805.36,554320.68,554324,2023-10-20T14:10:47Z,554337.34,NULL,Begegnung,kukutana,d,NA,NA,NA,NA,sdf,NA,2,NA,NA,NA,NA,NA,NA,NA,NA,NA,NA,NA,NA,NA,NA,NA,NA,NA,NA,NA
19dcb,Deep Question,html.Page,3_0_2_0_4_0_0,NA,NA,form submission,4595.66,554324,554320.68,554337.34,558933,558934,2023-10-20T14:10:51Z,558936.72,NULL,Genehmigung,idhini,d,NA,NA,NA,idhini,NA,NA,2,NA,NA,NA,NA,NA,NA,NA,NA,NA,NA,NA,NA,NA,NA,NA,NA,NA,NA,NA
19dcb,"""Richtig""-Screen",canvas.Screen,3_0_2_0_4_0_1,NA,NA,timeout,4999.4400000001,558936,558932.56,558936.72,563919.48,563923,2023-10-20T14:10:56Z,563936.16,NULL,Genehmigung,idhini,d,NA,NA,NA,NA,sdf,1,2,NA,NA,NA,NA,NA,NA,NA,NA,NA,NA,NA,NA,NA,NA,NA,NA,NA,NA,NA
19dcb,"""Falsch""-Screen",canvas.Screen,3_0_2_0_4_0_2,NA,NA,skipped,NA,563936,NA,NA,563919.48,563936,2023-10-20T14:10:56Z,563936.16,NULL,Genehmigung,idhini,d,NA,NA,NA,NA,sdf,NA,2,NA,NA,NA,NA,NA,NA,NA,NA,NA,NA,NA,NA,NA,NA,NA,NA,NA,NA,NA
19dcb,deep,flow.Sequence,3_0_2_0_4_0,NA,NA,completion,9582.14,554324,554320.68,554337.34,563919.48,563937,2023-10-20T14:10:56Z,563936.16,NULL,Genehmigung,idhini,d,NA,NA,NA,NA,sdf,NA,2,NA,NA,NA,NA,NA,NA,NA,NA,NA,NA,NA,NA,NA,NA,NA,NA,NA,NA,NA
19dcb,shallow,flow.Sequence,3_0_2_0_4_1,NA,NA,skipped,NA,563937,NA,NA,563919.48,563937,2023-10-20T14:10:56Z,563936.16,NULL,Genehmigung,idhini,d,NA,NA,NA,NA,sdf,NA,2,NA,NA,NA,NA,NA,NA,NA,NA,NA,NA,NA,NA,NA,NA,NA,NA,NA,NA,NA
19dcb,task,flow.Sequence,3_0_2_0_4,NA,NA,completion,9582.14,554324,554320.68,554337.34,563919.48,563938,2023-10-20T14:10:56Z,563936.16,NULL,Genehmigung,idhini,d,NA,NA,NA,NA,sdf,NA,2,NA,NA,NA,NA,NA,NA,NA,NA,NA,NA,NA,NA,NA,NA,NA,NA,NA,NA,NA
19dcb,deep,flow.Sequence,3_0_2_0_5_0,NA,NA,skipped,NA,563938,NA,NA,563919.48,563939,2023-10-20T14:10:56Z,563936.16,NULL,Vermutung,udhanifu,s,haramia,tikisho,itifaki,NA,sdf,NA,2,NA,NA,NA,NA,NA,NA,NA,NA,NA,NA,NA,NA,NA,NA,NA,NA,NA,NA,NA
19dcb,Shallow Question,html.Page,3_0_2_0_5_1_0,NA,NA,form submission,11608.84,563939,563919.48,563936.16,575545,575546,2023-10-20T14:11:08Z,575551.3,NULL,Vermutung,udhanifu,s,haramia,tikisho,itifaki,udhanifu,NA,NA,2,NA,NA,NA,NA,NA,NA,NA,NA,NA,NA,NA,NA,NA,NA,NA,NA,NA,NA,NA
19dcb,"""Richtig""-Screen",canvas.Screen,3_0_2_0_5_1_1,NA,NA,timeout,4999.36,575550,575539.44,575551.3,580534.02,580536,2023-10-20T14:11:13Z,580550.66,NULL,Vermutung,udhanifu,s,haramia,tikisho,itifaki,NA,sdf,1,2,NA,NA,NA,NA,NA,NA,NA,NA,NA,NA,NA,NA,NA,NA,NA,NA,NA,NA,NA
19dcb,"""Falsch""-Screen",canvas.Screen,3_0_2_0_5_1_2,NA,NA,skipped,NA,580543,NA,NA,580534.02,580543,2023-10-20T14:11:13Z,580550.66,NULL,Vermutung,udhanifu,s,haramia,tikisho,itifaki,NA,sdf,NA,2,NA,NA,NA,NA,NA,NA,NA,NA,NA,NA,NA,NA,NA,NA,NA,NA,NA,NA,NA
19dcb,shallow,flow.Sequence,3_0_2_0_5_1,NA,NA,completion,16597.86,563939,563919.48,563936.16,580534.02,580543,2023-10-20T14:11:13Z,580550.66,NULL,Vermutung,udhanifu,s,haramia,tikisho,itifaki,NA,sdf,NA,2,NA,NA,NA,NA,NA,NA,NA,NA,NA,NA,NA,NA,NA,NA,NA,NA,NA,NA,NA
19dcb,task,flow.Sequence,3_0_2_0_5,NA,NA,completion,16597.86,563938,563919.48,563936.16,580534.02,580544,2023-10-20T14:11:13Z,580550.66,NULL,Vermutung,udhanifu,s,haramia,tikisho,itifaki,NA,sdf,NA,2,NA,NA,NA,NA,NA,NA,NA,NA,NA,NA,NA,NA,NA,NA,NA,NA,NA,NA,NA
19dcb,Deep Question,html.Page,3_0_2_0_6_0_0,NA,NA,form submission,12028.34,580546,580534.02,580550.66,592579,592581,2023-10-20T14:11:25Z,592582.48,NULL,Schlange,foleni,d,NA,NA,NA,folengi,NA,NA,2,NA,NA,NA,NA,NA,NA,NA,NA,NA,NA,NA,NA,NA,NA,NA,NA,NA,NA,NA
19dcb,"""Richtig""-Screen",canvas.Screen,3_0_2_0_6_0_1,NA,NA,skipped,NA,592587,NA,NA,592579,592587,2023-10-20T14:11:25Z,592582.48,NULL,Schlange,foleni,d,NA,NA,NA,NA,sdf,NA,2,NA,NA,NA,NA,NA,NA,NA,NA,NA,NA,NA,NA,NA,NA,NA,NA,NA,NA,NA
19dcb,"""Falsch""-Screen",canvas.Screen,3_0_2_0_6_0_2,NA,NA,timeout,4999.3,592591,592578.78,592582.48,597565.12,597567,2023-10-20T14:11:30Z,597581.78,NULL,Schlange,foleni,d,NA,NA,NA,NA,sdf,0,2,NA,NA,NA,NA,NA,NA,NA,NA,NA,NA,NA,NA,NA,NA,NA,NA,NA,NA,NA
19dcb,deep,flow.Sequence,3_0_2_0_6_0,NA,NA,completion,17014.46,580545,580534.02,580550.66,597565.12,597568,2023-10-20T14:11:30Z,597581.78,NULL,Schlange,foleni,d,NA,NA,NA,NA,sdf,NA,2,NA,NA,NA,NA,NA,NA,NA,NA,NA,NA,NA,NA,NA,NA,NA,NA,NA,NA,NA
19dcb,shallow,flow.Sequence,3_0_2_0_6_1,NA,NA,skipped,NA,597568,NA,NA,597565.12,597568,2023-10-20T14:11:30Z,597581.78,NULL,Schlange,foleni,d,NA,NA,NA,NA,sdf,NA,2,NA,NA,NA,NA,NA,NA,NA,NA,NA,NA,NA,NA,NA,NA,NA,NA,NA,NA,NA
19dcb,task,flow.Sequence,3_0_2_0_6,NA,NA,completion,17014.46,580544,580534.02,580550.66,597565.12,597569,2023-10-20T14:11:30Z,597581.78,NULL,Schlange,foleni,d,NA,NA,NA,NA,sdf,NA,2,NA,NA,NA,NA,NA,NA,NA,NA,NA,NA,NA,NA,NA,NA,NA,NA,NA,NA,NA
19dcb,deep,flow.Sequence,3_0_2_0_7_0,NA,NA,skipped,NA,597569,NA,NA,597565.12,597569,2023-10-20T14:11:30Z,597581.78,NULL,Integrität,uadilifu,s,muungano,mtiririko,upunguaji,NA,sdf,NA,2,NA,NA,NA,NA,NA,NA,NA,NA,NA,NA,NA,NA,NA,NA,NA,NA,NA,NA,NA
19dcb,Shallow Question,html.Page,3_0_2_0_7_1_0,NA,NA,form submission,5256.22,597570,597565.12,597581.78,602838,602838,2023-10-20T14:11:35Z,602847.86,NULL,Integrität,uadilifu,s,muungano,mtiririko,upunguaji,mtiririko,NA,NA,2,NA,NA,NA,NA,NA,NA,NA,NA,NA,NA,NA,NA,NA,NA,NA,NA,NA,NA,NA
19dcb,"""Richtig""-Screen",canvas.Screen,3_0_2_0_7_1_1,NA,NA,skipped,NA,602841,NA,NA,602838,602841,2023-10-20T14:11:35Z,602847.86,NULL,Integrität,uadilifu,s,muungano,mtiririko,upunguaji,NA,sdf,NA,2,NA,NA,NA,NA,NA,NA,NA,NA,NA,NA,NA,NA,NA,NA,NA,NA,NA,NA,NA
19dcb,"""Falsch""-Screen",canvas.Screen,3_0_2_0_7_1_2,NA,NA,timeout,4999.3200000001,602844,602833.82,602847.86,607830.52,607832,2023-10-20T14:11:40Z,607847.18,NULL,Integrität,uadilifu,s,muungano,mtiririko,upunguaji,NA,sdf,0,2,NA,NA,NA,NA,NA,NA,NA,NA,NA,NA,NA,NA,NA,NA,NA,NA,NA,NA,NA
19dcb,shallow,flow.Sequence,3_0_2_0_7_1,NA,NA,completion,10248.74,597569,597565.12,597581.78,607830.52,607833,2023-10-20T14:11:40Z,607847.18,NULL,Integrität,uadilifu,s,muungano,mtiririko,upunguaji,NA,sdf,NA,2,NA,NA,NA,NA,NA,NA,NA,NA,NA,NA,NA,NA,NA,NA,NA,NA,NA,NA,NA
19dcb,task,flow.Sequence,3_0_2_0_7,NA,NA,completion,10248.74,597569,597565.12,597581.78,607830.52,607833,2023-10-20T14:11:40Z,607847.18,NULL,Integrität,uadilifu,s,muungano,mtiririko,upunguaji,NA,sdf,NA,2,NA,NA,NA,NA,NA,NA,NA,NA,NA,NA,NA,NA,NA,NA,NA,NA,NA,NA,NA
19dcb,block,flow.Loop,3_0_2_0,NA,NA,completion,104509.84,503320,503320.3,503320.68,607830.52,607834,2023-10-20T14:11:40Z,607847.18,NULL,NA,NA,NA,NA,NA,NA,NA,sdf,NA,2,NA,NA,NA,NA,NA,NA,NA,NA,NA,NA,NA,NA,NA,NA,NA,NA,NA,NA,NA
19dcb,weiter,canvas.Screen,3_0_2_1,sdf,keypress(Space),response,1342.8199999999,607835,607830.52,607847.18,609190,609209,2023-10-20T14:11:42Z,609269.58,NULL,NA,NA,NA,NA,NA,NA,NA,sdf,NA,2,NA,NA,NA,NA,NA,NA,NA,NA,NA,NA,NA,NA,NA,NA,NA,NA,NA,NA,NA
19dcb,check continue,flow.Sequence,3_0_2,NA,NA,completion,105869.32,503320,503320.3,503320.68,609190,609209,2023-10-20T14:11:42Z,609269.58,NULL,NA,NA,NA,NA,NA,NA,NA,sdf,NA,2,NA,NA,NA,NA,NA,NA,NA,NA,NA,NA,NA,NA,NA,NA,NA,NA,NA,NA,NA
19dcb,Deep Question,html.Page,3_0_3_0_0_0_0,NA,NA,form submission,6014.42,609269,609269.24,609269.58,615284,615285,2023-10-20T14:11:48Z,615292.42,NULL,Schlange,foleni,d,NA,NA,NA,foleni,NA,NA,3,NA,NA,NA,NA,NA,NA,NA,NA,NA,NA,NA,NA,NA,NA,NA,NA,NA,NA,NA
19dcb,"""Richtig""-Screen",canvas.Screen,3_0_3_0_0_0_1,NA,NA,timeout,5003.2,615288,615283.28,615292.42,620278.94,620284,2023-10-20T14:11:53Z,620295.62,NULL,Schlange,foleni,d,NA,NA,NA,NA,qt,1,3,NA,NA,NA,NA,NA,NA,NA,NA,NA,NA,NA,NA,NA,NA,NA,NA,NA,NA,NA
19dcb,"""Falsch""-Screen",canvas.Screen,3_0_3_0_0_0_2,NA,NA,skipped,NA,620296,NA,NA,620278.94,620297,2023-10-20T14:11:53Z,620295.62,NULL,Schlange,foleni,d,NA,NA,NA,NA,qt,NA,3,NA,NA,NA,NA,NA,NA,NA,NA,NA,NA,NA,NA,NA,NA,NA,NA,NA,NA,NA
19dcb,deep,flow.Sequence,3_0_3_0_0_0,NA,NA,completion,11009.36,609269,609269.24,609269.58,620278.94,620297,2023-10-20T14:11:53Z,620295.62,NULL,Schlange,foleni,d,NA,NA,NA,NA,qt,NA,3,NA,NA,NA,NA,NA,NA,NA,NA,NA,NA,NA,NA,NA,NA,NA,NA,NA,NA,NA
19dcb,shallow,flow.Sequence,3_0_3_0_0_1,NA,NA,skipped,NA,620297,NA,NA,620278.94,620298,2023-10-20T14:11:53Z,620295.62,NULL,Schlange,foleni,d,NA,NA,NA,NA,qt,NA,3,NA,NA,NA,NA,NA,NA,NA,NA,NA,NA,NA,NA,NA,NA,NA,NA,NA,NA,NA
19dcb,task,flow.Sequence,3_0_3_0_0,NA,NA,completion,11009.36,609269,609269.24,609269.58,620278.94,620298,2023-10-20T14:11:53Z,620295.62,NULL,Schlange,foleni,d,NA,NA,NA,NA,qt,NA,3,NA,NA,NA,NA,NA,NA,NA,NA,NA,NA,NA,NA,NA,NA,NA,NA,NA,NA,NA
19dcb,deep,flow.Sequence,3_0_3_0_1_0,NA,NA,skipped,NA,620298,NA,NA,620278.94,620299,2023-10-20T14:11:53Z,620295.62,NULL,Inhalt,yaliyomo,s,kishawishi,hifadhi,kutembea,NA,qt,NA,3,NA,NA,NA,NA,NA,NA,NA,NA,NA,NA,NA,NA,NA,NA,NA,NA,NA,NA,NA
19dcb,Shallow Question,html.Page,3_0_3_0_1_1_0,NA,NA,form submission,5566.38,620300,620278.94,620295.62,625862,625863,2023-10-20T14:11:58Z,625861.54,NULL,Inhalt,yaliyomo,s,kishawishi,hifadhi,kutembea,yaliyomo,NA,NA,3,NA,NA,NA,NA,NA,NA,NA,NA,NA,NA,NA,NA,NA,NA,NA,NA,NA,NA,NA
19dcb,"""Richtig""-Screen",canvas.Screen,3_0_3_0_1_1_1,NA,NA,timeout,4999.38,625868,625854.42,625861.54,630844.26,630845,2023-10-20T14:12:03Z,630860.92,NULL,Inhalt,yaliyomo,s,kishawishi,hifadhi,kutembea,NA,qt,1,3,NA,NA,NA,NA,NA,NA,NA,NA,NA,NA,NA,NA,NA,NA,NA,NA,NA,NA,NA
19dcb,"""Falsch""-Screen",canvas.Screen,3_0_3_0_1_1_2,NA,NA,skipped,NA,630850,NA,NA,630844.26,630850,2023-10-20T14:12:03Z,630860.92,NULL,Inhalt,yaliyomo,s,kishawishi,hifadhi,kutembea,NA,qt,NA,3,NA,NA,NA,NA,NA,NA,NA,NA,NA,NA,NA,NA,NA,NA,NA,NA,NA,NA,NA
19dcb,shallow,flow.Sequence,3_0_3_0_1_1,NA,NA,completion,10548.64,620300,620278.94,620295.62,630844.26,630851,2023-10-20T14:12:03Z,630860.92,NULL,Inhalt,yaliyomo,s,kishawishi,hifadhi,kutembea,NA,qt,NA,3,NA,NA,NA,NA,NA,NA,NA,NA,NA,NA,NA,NA,NA,NA,NA,NA,NA,NA,NA
19dcb,task,flow.Sequence,3_0_3_0_1,NA,NA,completion,10548.64,620298,620278.94,620295.62,630844.26,630851,2023-10-20T14:12:03Z,630860.92,NULL,Inhalt,yaliyomo,s,kishawishi,hifadhi,kutembea,NA,qt,NA,3,NA,NA,NA,NA,NA,NA,NA,NA,NA,NA,NA,NA,NA,NA,NA,NA,NA,NA,NA
19dcb,deep,flow.Sequence,3_0_3_0_2_0,NA,NA,skipped,NA,630852,NA,NA,630844.26,630852,2023-10-20T14:12:03Z,630860.92,NULL,Fleisch,mshakiki,s,kizunguzungu,mshikamano,angusho,NA,qt,NA,3,NA,NA,NA,NA,NA,NA,NA,NA,NA,NA,NA,NA,NA,NA,NA,NA,NA,NA,NA
19dcb,Shallow Question,html.Page,3_0_3_0_2_1_0,NA,NA,form submission,5049.08,630852,630844.26,630860.92,635910,635911,2023-10-20T14:12:08Z,635910.24,NULL,Fleisch,mshakiki,s,kizunguzungu,mshikamano,angusho,mshakiki,NA,NA,3,NA,NA,NA,NA,NA,NA,NA,NA,NA,NA,NA,NA,NA,NA,NA,NA,NA,NA,NA
19dcb,"""Richtig""-Screen",canvas.Screen,3_0_3_0_2_1_1,NA,NA,timeout,4999.4,635914,635906.52,635910.24,640892.98,640894,2023-10-20T14:12:13Z,640909.64,NULL,Fleisch,mshakiki,s,kizunguzungu,mshikamano,angusho,NA,qt,1,3,NA,NA,NA,NA,NA,NA,NA,NA,NA,NA,NA,NA,NA,NA,NA,NA,NA,NA,NA
19dcb,"""Falsch""-Screen",canvas.Screen,3_0_3_0_2_1_2,NA,NA,skipped,NA,640900,NA,NA,640892.98,640900,2023-10-20T14:12:13Z,640909.64,NULL,Fleisch,mshakiki,s,kizunguzungu,mshikamano,angusho,NA,qt,NA,3,NA,NA,NA,NA,NA,NA,NA,NA,NA,NA,NA,NA,NA,NA,NA,NA,NA,NA,NA
19dcb,shallow,flow.Sequence,3_0_3_0_2_1,NA,NA,completion,10032.06,630852,630844.26,630860.92,640892.98,640900,2023-10-20T14:12:13Z,640909.64,NULL,Fleisch,mshakiki,s,kizunguzungu,mshikamano,angusho,NA,qt,NA,3,NA,NA,NA,NA,NA,NA,NA,NA,NA,NA,NA,NA,NA,NA,NA,NA,NA,NA,NA
19dcb,task,flow.Sequence,3_0_3_0_2,NA,NA,completion,10032.06,630852,630844.26,630860.92,640892.98,640900,2023-10-20T14:12:13Z,640909.64,NULL,Fleisch,mshakiki,s,kizunguzungu,mshikamano,angusho,NA,qt,NA,3,NA,NA,NA,NA,NA,NA,NA,NA,NA,NA,NA,NA,NA,NA,NA,NA,NA,NA,NA
19dcb,Deep Question,html.Page,3_0_3_0_3_0_0,NA,NA,form submission,17126.36,640900,640892.98,640909.64,658036,658036,2023-10-20T14:12:30Z,658040.64,NULL,Genehmigung,idhini,d,NA,NA,NA,kikihana,NA,NA,3,NA,NA,NA,NA,NA,NA,NA,NA,NA,NA,NA,NA,NA,NA,NA,NA,NA,NA,NA
19dcb,"""Richtig""-Screen",canvas.Screen,3_0_3_0_3_0_1,NA,NA,skipped,NA,658040,NA,NA,658036,658040,2023-10-20T14:12:30Z,658040.64,NULL,Genehmigung,idhini,d,NA,NA,NA,NA,qt,NA,3,NA,NA,NA,NA,NA,NA,NA,NA,NA,NA,NA,NA,NA,NA,NA,NA,NA,NA,NA
19dcb,"""Falsch""-Screen",canvas.Screen,3_0_3_0_3_0_2,NA,NA,timeout,4999.4399999999,658043,658034.98,658040.64,663023.5,663025,2023-10-20T14:12:35Z,663040.08,NULL,Genehmigung,idhini,d,NA,NA,NA,NA,qt,0,3,NA,NA,NA,NA,NA,NA,NA,NA,NA,NA,NA,NA,NA,NA,NA,NA,NA,NA,NA
19dcb,deep,flow.Sequence,3_0_3_0_3_0,NA,NA,completion,22113.86,640900,640892.98,640909.64,663023.5,663025,2023-10-20T14:12:35Z,663040.08,NULL,Genehmigung,idhini,d,NA,NA,NA,NA,qt,NA,3,NA,NA,NA,NA,NA,NA,NA,NA,NA,NA,NA,NA,NA,NA,NA,NA,NA,NA,NA
19dcb,shallow,flow.Sequence,3_0_3_0_3_1,NA,NA,skipped,NA,663025,NA,NA,663023.5,663026,2023-10-20T14:12:35Z,663040.08,NULL,Genehmigung,idhini,d,NA,NA,NA,NA,qt,NA,3,NA,NA,NA,NA,NA,NA,NA,NA,NA,NA,NA,NA,NA,NA,NA,NA,NA,NA,NA
19dcb,task,flow.Sequence,3_0_3_0_3,NA,NA,completion,22113.86,640900,640892.98,640909.64,663023.5,663026,2023-10-20T14:12:35Z,663040.08,NULL,Genehmigung,idhini,d,NA,NA,NA,NA,qt,NA,3,NA,NA,NA,NA,NA,NA,NA,NA,NA,NA,NA,NA,NA,NA,NA,NA,NA,NA,NA
19dcb,Deep Question,html.Page,3_0_3_0_4_0_0,NA,NA,form submission,7110.92,663026,663023.5,663040.08,670151,670151,2023-10-20T14:12:42Z,670155.9,NULL,Begegnung,kukutana,d,NA,NA,NA,kikihana,NA,NA,3,NA,NA,NA,NA,NA,NA,NA,NA,NA,NA,NA,NA,NA,NA,NA,NA,NA,NA,NA
19dcb,"""Richtig""-Screen",canvas.Screen,3_0_3_0_4_0_1,NA,NA,skipped,NA,670153,NA,NA,670151,670153,2023-10-20T14:12:42Z,670155.9,NULL,Begegnung,kukutana,d,NA,NA,NA,NA,qt,NA,3,NA,NA,NA,NA,NA,NA,NA,NA,NA,NA,NA,NA,NA,NA,NA,NA,NA,NA,NA
19dcb,"""Falsch""-Screen",canvas.Screen,3_0_3_0_4_0_2,NA,NA,timeout,4999.36,670156,670149.62,670155.9,675138.58,675140,2023-10-20T14:12:47Z,675155.26,NULL,Begegnung,kukutana,d,NA,NA,NA,NA,qt,0,3,NA,NA,NA,NA,NA,NA,NA,NA,NA,NA,NA,NA,NA,NA,NA,NA,NA,NA,NA
19dcb,deep,flow.Sequence,3_0_3_0_4_0,NA,NA,completion,12098.5,663026,663023.5,663040.08,675138.58,675140,2023-10-20T14:12:47Z,675155.26,NULL,Begegnung,kukutana,d,NA,NA,NA,NA,qt,NA,3,NA,NA,NA,NA,NA,NA,NA,NA,NA,NA,NA,NA,NA,NA,NA,NA,NA,NA,NA
19dcb,shallow,flow.Sequence,3_0_3_0_4_1,NA,NA,skipped,NA,675140,NA,NA,675138.58,675140,2023-10-20T14:12:47Z,675155.26,NULL,Begegnung,kukutana,d,NA,NA,NA,NA,qt,NA,3,NA,NA,NA,NA,NA,NA,NA,NA,NA,NA,NA,NA,NA,NA,NA,NA,NA,NA,NA
19dcb,task,flow.Sequence,3_0_3_0_4,NA,NA,completion,12098.5,663026,663023.5,663040.08,675138.58,675140,2023-10-20T14:12:47Z,675155.26,NULL,Begegnung,kukutana,d,NA,NA,NA,NA,qt,NA,3,NA,NA,NA,NA,NA,NA,NA,NA,NA,NA,NA,NA,NA,NA,NA,NA,NA,NA,NA
19dcb,deep,flow.Sequence,3_0_3_0_5_0,NA,NA,skipped,NA,675141,NA,NA,675138.58,675141,2023-10-20T14:12:47Z,675155.26,NULL,Integrität,uadilifu,s,muungano,mtiririko,upunguaji,NA,qt,NA,3,NA,NA,NA,NA,NA,NA,NA,NA,NA,NA,NA,NA,NA,NA,NA,NA,NA,NA,NA
19dcb,Shallow Question,html.Page,3_0_3_0_5_1_0,NA,NA,form submission,11370.74,675141,675138.58,675155.26,686526,686526,2023-10-20T14:12:59Z,686537.08,NULL,Integrität,uadilifu,s,muungano,mtiririko,upunguaji,uadilifu,NA,NA,3,NA,NA,NA,NA,NA,NA,NA,NA,NA,NA,NA,NA,NA,NA,NA,NA,NA,NA,NA
19dcb,"""Richtig""-Screen",canvas.Screen,3_0_3_0_5_1_1,NA,NA,timeout,4999.42,686528,686523.78,686537.08,691519.84,691521,2023-10-20T14:13:04Z,691536.5,NULL,Integrität,uadilifu,s,muungano,mtiririko,upunguaji,NA,qt,1,3,NA,NA,NA,NA,NA,NA,NA,NA,NA,NA,NA,NA,NA,NA,NA,NA,NA,NA,NA
19dcb,"""Falsch""-Screen",canvas.Screen,3_0_3_0_5_1_2,NA,NA,skipped,NA,691527,NA,NA,691519.84,691528,2023-10-20T14:13:04Z,691536.5,NULL,Integrität,uadilifu,s,muungano,mtiririko,upunguaji,NA,qt,NA,3,NA,NA,NA,NA,NA,NA,NA,NA,NA,NA,NA,NA,NA,NA,NA,NA,NA,NA,NA
19dcb,shallow,flow.Sequence,3_0_3_0_5_1,NA,NA,completion,16364.58,675141,675138.58,675155.26,691519.84,691528,2023-10-20T14:13:04Z,691536.5,NULL,Integrität,uadilifu,s,muungano,mtiririko,upunguaji,NA,qt,NA,3,NA,NA,NA,NA,NA,NA,NA,NA,NA,NA,NA,NA,NA,NA,NA,NA,NA,NA,NA
19dcb,task,flow.Sequence,3_0_3_0_5,NA,NA,completion,16364.58,675140,675138.58,675155.26,691519.84,691528,2023-10-20T14:13:04Z,691536.5,NULL,Integrität,uadilifu,s,muungano,mtiririko,upunguaji,NA,qt,NA,3,NA,NA,NA,NA,NA,NA,NA,NA,NA,NA,NA,NA,NA,NA,NA,NA,NA,NA,NA
19dcb,Deep Question,html.Page,3_0_3_0_6_0_0,NA,NA,form submission,7594.5,691529,691519.84,691536.5,699131,699131,2023-10-20T14:13:11Z,699135.52,NULL,Toleranz,kuvumiliana,d,NA,NA,NA,kumulajana,NA,NA,3,NA,NA,NA,NA,NA,NA,NA,NA,NA,NA,NA,NA,NA,NA,NA,NA,NA,NA,NA
19dcb,"""Richtig""-Screen",canvas.Screen,3_0_3_0_6_0_1,NA,NA,skipped,NA,699134,NA,NA,699131,699134,2023-10-20T14:13:11Z,699135.52,NULL,Toleranz,kuvumiliana,d,NA,NA,NA,NA,qt,NA,3,NA,NA,NA,NA,NA,NA,NA,NA,NA,NA,NA,NA,NA,NA,NA,NA,NA,NA,NA
19dcb,"""Falsch""-Screen",canvas.Screen,3_0_3_0_6_0_2,NA,NA,timeout,4999.38,699137,699130.22,699135.52,704118.24,704120,2023-10-20T14:13:16Z,704134.9,NULL,Toleranz,kuvumiliana,d,NA,NA,NA,NA,qt,0,3,NA,NA,NA,NA,NA,NA,NA,NA,NA,NA,NA,NA,NA,NA,NA,NA,NA,NA,NA
19dcb,deep,flow.Sequence,3_0_3_0_6_0,NA,NA,completion,12581.74,691529,691519.84,691536.5,704118.24,704120,2023-10-20T14:13:16Z,704134.9,NULL,Toleranz,kuvumiliana,d,NA,NA,NA,NA,qt,NA,3,NA,NA,NA,NA,NA,NA,NA,NA,NA,NA,NA,NA,NA,NA,NA,NA,NA,NA,NA
19dcb,shallow,flow.Sequence,3_0_3_0_6_1,NA,NA,skipped,NA,704121,NA,NA,704118.24,704121,2023-10-20T14:13:16Z,704134.9,NULL,Toleranz,kuvumiliana,d,NA,NA,NA,NA,qt,NA,3,NA,NA,NA,NA,NA,NA,NA,NA,NA,NA,NA,NA,NA,NA,NA,NA,NA,NA,NA
19dcb,task,flow.Sequence,3_0_3_0_6,NA,NA,completion,12581.74,691528,691519.84,691536.5,704118.24,704121,2023-10-20T14:13:16Z,704134.9,NULL,Toleranz,kuvumiliana,d,NA,NA,NA,NA,qt,NA,3,NA,NA,NA,NA,NA,NA,NA,NA,NA,NA,NA,NA,NA,NA,NA,NA,NA,NA,NA
19dcb,deep,flow.Sequence,3_0_3_0_7_0,NA,NA,skipped,NA,704122,NA,NA,704118.24,704122,2023-10-20T14:13:16Z,704134.9,NULL,Vermutung,udhanifu,s,haramia,tikisho,itifaki,NA,qt,NA,3,NA,NA,NA,NA,NA,NA,NA,NA,NA,NA,NA,NA,NA,NA,NA,NA,NA,NA,NA
19dcb,Shallow Question,html.Page,3_0_3_0_7_1_0,NA,NA,form submission,7386.1,704122,704118.24,704134.9,711521,711521,2023-10-20T14:13:24Z,711533.9,NULL,Vermutung,udhanifu,s,haramia,tikisho,itifaki,udhanifu,NA,NA,3,NA,NA,NA,NA,NA,NA,NA,NA,NA,NA,NA,NA,NA,NA,NA,NA,NA,NA,NA
19dcb,"""Richtig""-Screen",canvas.Screen,3_0_3_0_7_1_1,NA,NA,timeout,4998.98,711523,711518.58,711533.9,716516.2,716518,2023-10-20T14:13:29Z,716532.88,NULL,Vermutung,udhanifu,s,haramia,tikisho,itifaki,NA,qt,1,3,NA,NA,NA,NA,NA,NA,NA,NA,NA,NA,NA,NA,NA,NA,NA,NA,NA,NA,NA
19dcb,"""Falsch""-Screen",canvas.Screen,3_0_3_0_7_1_2,NA,NA,skipped,NA,716525,NA,NA,716516.2,716525,2023-10-20T14:13:29Z,716532.88,NULL,Vermutung,udhanifu,s,haramia,tikisho,itifaki,NA,qt,NA,3,NA,NA,NA,NA,NA,NA,NA,NA,NA,NA,NA,NA,NA,NA,NA,NA,NA,NA,NA
19dcb,shallow,flow.Sequence,3_0_3_0_7_1,NA,NA,completion,12381.3,704122,704118.24,704134.9,716516.2,716525,2023-10-20T14:13:29Z,716532.88,NULL,Vermutung,udhanifu,s,haramia,tikisho,itifaki,NA,qt,NA,3,NA,NA,NA,NA,NA,NA,NA,NA,NA,NA,NA,NA,NA,NA,NA,NA,NA,NA,NA
19dcb,task,flow.Sequence,3_0_3_0_7,NA,NA,completion,12381.3,704122,704118.24,704134.9,716516.2,716526,2023-10-20T14:13:29Z,716532.88,NULL,Vermutung,udhanifu,s,haramia,tikisho,itifaki,NA,qt,NA,3,NA,NA,NA,NA,NA,NA,NA,NA,NA,NA,NA,NA,NA,NA,NA,NA,NA,NA,NA
19dcb,block,flow.Loop,3_0_3_0,NA,NA,completion,107246.62,609269,609269.24,609269.58,716516.2,716526,2023-10-20T14:13:29Z,716532.88,NULL,NA,NA,NA,NA,NA,NA,NA,qt,NA,3,NA,NA,NA,NA,NA,NA,NA,NA,NA,NA,NA,NA,NA,NA,NA,NA,NA,NA,NA
19dcb,weiter,canvas.Screen,3_0_3_1,sdf,keypress(Space),response,1454.12,716526,716516.2,716532.88,717987,717996,2023-10-20T14:13:30Z,718054.46,NULL,NA,NA,NA,NA,NA,NA,NA,qt,NA,3,NA,NA,NA,NA,NA,NA,NA,NA,NA,NA,NA,NA,NA,NA,NA,NA,NA,NA,NA
19dcb,check continue,flow.Sequence,3_0_3,NA,NA,completion,108717.42,609269,609269.24,609269.58,717987,717997,2023-10-20T14:13:30Z,718054.46,NULL,NA,NA,NA,NA,NA,NA,NA,qt,NA,3,NA,NA,NA,NA,NA,NA,NA,NA,NA,NA,NA,NA,NA,NA,NA,NA,NA,NA,NA
19dcb,deep,flow.Sequence,3_0_4_0_0_0,NA,NA,skipped,NA,718054,NA,NA,717987,718054,2023-10-20T14:13:30Z,718054.46,NULL,Integrität,uadilifu,s,muungano,mtiririko,upunguaji,NA,sd,NA,4,NA,NA,NA,NA,NA,NA,NA,NA,NA,NA,NA,NA,NA,NA,NA,NA,NA,NA,NA
19dcb,Shallow Question,html.Page,3_0_4_0_0_1_0,NA,NA,form submission,6646.54,718055,718054.1,718054.46,724701,724705,2023-10-20T14:13:37Z,724715.3,NULL,Integrität,uadilifu,s,muungano,mtiririko,upunguaji,uadilifu,NA,NA,4,NA,NA,NA,NA,NA,NA,NA,NA,NA,NA,NA,NA,NA,NA,NA,NA,NA,NA,NA
19dcb,"""Richtig""-Screen",canvas.Screen,3_0_4_0_0_1_1,NA,NA,timeout,4999.62,724715,724692.92,724715.3,729698.3,729700,2023-10-20T14:13:42Z,729714.92,NULL,Integrität,uadilifu,s,muungano,mtiririko,upunguaji,NA,sd,1,4,NA,NA,NA,NA,NA,NA,NA,NA,NA,NA,NA,NA,NA,NA,NA,NA,NA,NA,NA
19dcb,"""Falsch""-Screen",canvas.Screen,3_0_4_0_0_1_2,NA,NA,skipped,NA,729707,NA,NA,729698.3,729707,2023-10-20T14:13:42Z,729714.92,NULL,Integrität,uadilifu,s,muungano,mtiririko,upunguaji,NA,sd,NA,4,NA,NA,NA,NA,NA,NA,NA,NA,NA,NA,NA,NA,NA,NA,NA,NA,NA,NA,NA
19dcb,shallow,flow.Sequence,3_0_4_0_0_1,NA,NA,completion,11643.84,718054,718054.1,718054.46,729698.3,729708,2023-10-20T14:13:42Z,729714.92,NULL,Integrität,uadilifu,s,muungano,mtiririko,upunguaji,NA,sd,NA,4,NA,NA,NA,NA,NA,NA,NA,NA,NA,NA,NA,NA,NA,NA,NA,NA,NA,NA,NA
19dcb,task,flow.Sequence,3_0_4_0_0,NA,NA,completion,11643.84,718054,718054.1,718054.46,729698.3,729708,2023-10-20T14:13:42Z,729714.92,NULL,Integrität,uadilifu,s,muungano,mtiririko,upunguaji,NA,sd,NA,4,NA,NA,NA,NA,NA,NA,NA,NA,NA,NA,NA,NA,NA,NA,NA,NA,NA,NA,NA
19dcb,deep,flow.Sequence,3_0_4_0_1_0,NA,NA,skipped,NA,729709,NA,NA,729698.3,729709,2023-10-20T14:13:42Z,729714.92,NULL,Inhalt,yaliyomo,s,kishawishi,hifadhi,kutembea,NA,sd,NA,4,NA,NA,NA,NA,NA,NA,NA,NA,NA,NA,NA,NA,NA,NA,NA,NA,NA,NA,NA
19dcb,Shallow Question,html.Page,3_0_4_0_1_1_0,NA,NA,form submission,7826.08,729709,729698.3,729714.92,737541,737541,2023-10-20T14:13:50Z,737547.44,NULL,Inhalt,yaliyomo,s,kishawishi,hifadhi,kutembea,yaliyomo,NA,NA,4,NA,NA,NA,NA,NA,NA,NA,NA,NA,NA,NA,NA,NA,NA,NA,NA,NA,NA,NA
19dcb,"""Richtig""-Screen",canvas.Screen,3_0_4_0_1_1_1,NA,NA,timeout,4999.1800000001,737546,737537.86,737547.44,742529.94,742532,2023-10-20T14:13:55Z,742546.62,NULL,Inhalt,yaliyomo,s,kishawishi,hifadhi,kutembea,NA,sd,1,4,NA,NA,NA,NA,NA,NA,NA,NA,NA,NA,NA,NA,NA,NA,NA,NA,NA,NA,NA
19dcb,"""Falsch""-Screen",canvas.Screen,3_0_4_0_1_1_2,NA,NA,skipped,NA,742538,NA,NA,742529.94,742539,2023-10-20T14:13:55Z,742546.62,NULL,Inhalt,yaliyomo,s,kishawishi,hifadhi,kutembea,NA,sd,NA,4,NA,NA,NA,NA,NA,NA,NA,NA,NA,NA,NA,NA,NA,NA,NA,NA,NA,NA,NA
19dcb,shallow,flow.Sequence,3_0_4_0_1_1,NA,NA,completion,12815.02,729709,729698.3,729714.92,742529.94,742539,2023-10-20T14:13:55Z,742546.62,NULL,Inhalt,yaliyomo,s,kishawishi,hifadhi,kutembea,NA,sd,NA,4,NA,NA,NA,NA,NA,NA,NA,NA,NA,NA,NA,NA,NA,NA,NA,NA,NA,NA,NA
19dcb,task,flow.Sequence,3_0_4_0_1,NA,NA,completion,12815.02,729709,729698.3,729714.92,742529.94,742539,2023-10-20T14:13:55Z,742546.62,NULL,Inhalt,yaliyomo,s,kishawishi,hifadhi,kutembea,NA,sd,NA,4,NA,NA,NA,NA,NA,NA,NA,NA,NA,NA,NA,NA,NA,NA,NA,NA,NA,NA,NA
19dcb,Deep Question,html.Page,3_0_4_0_2_0_0,NA,NA,form submission,13964.38,742540,742529.94,742546.62,756511,756511,2023-10-20T14:14:09Z,756511.52,NULL,Begegnung,kukutana,d,NA,NA,NA,dehili,NA,NA,4,NA,NA,NA,NA,NA,NA,NA,NA,NA,NA,NA,NA,NA,NA,NA,NA,NA,NA,NA
19dcb,"""Richtig""-Screen",canvas.Screen,3_0_4_0_2_0_1,NA,NA,skipped,NA,756514,NA,NA,756511,756514,2023-10-20T14:14:09Z,756511.52,NULL,Begegnung,kukutana,d,NA,NA,NA,NA,sd,NA,4,NA,NA,NA,NA,NA,NA,NA,NA,NA,NA,NA,NA,NA,NA,NA,NA,NA,NA,NA
19dcb,"""Falsch""-Screen",canvas.Screen,3_0_4_0_2_0_2,NA,NA,timeout,4999.3199999999,756518,756509.92,756511.52,761494.22,761495,2023-10-20T14:14:14Z,761510.84,NULL,Begegnung,kukutana,d,NA,NA,NA,NA,sd,0,4,NA,NA,NA,NA,NA,NA,NA,NA,NA,NA,NA,NA,NA,NA,NA,NA,NA,NA,NA
19dcb,deep,flow.Sequence,3_0_4_0_2_0,NA,NA,completion,18947.6,742540,742529.94,742546.62,761494.22,761497,2023-10-20T14:14:14Z,761510.84,NULL,Begegnung,kukutana,d,NA,NA,NA,NA,sd,NA,4,NA,NA,NA,NA,NA,NA,NA,NA,NA,NA,NA,NA,NA,NA,NA,NA,NA,NA,NA
19dcb,shallow,flow.Sequence,3_0_4_0_2_1,NA,NA,skipped,NA,761497,NA,NA,761494.22,761497,2023-10-20T14:14:14Z,761510.84,NULL,Begegnung,kukutana,d,NA,NA,NA,NA,sd,NA,4,NA,NA,NA,NA,NA,NA,NA,NA,NA,NA,NA,NA,NA,NA,NA,NA,NA,NA,NA
19dcb,task,flow.Sequence,3_0_4_0_2,NA,NA,completion,18947.6,742540,742529.94,742546.62,761494.22,761498,2023-10-20T14:14:14Z,761510.84,NULL,Begegnung,kukutana,d,NA,NA,NA,NA,sd,NA,4,NA,NA,NA,NA,NA,NA,NA,NA,NA,NA,NA,NA,NA,NA,NA,NA,NA,NA,NA
19dcb,deep,flow.Sequence,3_0_4_0_3_0,NA,NA,skipped,NA,761498,NA,NA,761494.22,761499,2023-10-20T14:14:14Z,761510.84,NULL,Fleisch,mshakiki,s,kizunguzungu,mshikamano,angusho,NA,sd,NA,4,NA,NA,NA,NA,NA,NA,NA,NA,NA,NA,NA,NA,NA,NA,NA,NA,NA,NA,NA
19dcb,Shallow Question,html.Page,3_0_4_0_3_1_0,NA,NA,form submission,5214.16,761499,761494.22,761510.84,766725,766726,2023-10-20T14:14:19Z,766726.6,NULL,Fleisch,mshakiki,s,kizunguzungu,mshikamano,angusho,mshakiki,NA,NA,4,NA,NA,NA,NA,NA,NA,NA,NA,NA,NA,NA,NA,NA,NA,NA,NA,NA,NA,NA
19dcb,"""Richtig""-Screen",canvas.Screen,3_0_4_0_3_1_1,NA,NA,timeout,4999.64,766730,766722.06,766726.6,771709.64,771711,2023-10-20T14:14:24Z,771726.24,NULL,Fleisch,mshakiki,s,kizunguzungu,mshikamano,angusho,NA,sd,1,4,NA,NA,NA,NA,NA,NA,NA,NA,NA,NA,NA,NA,NA,NA,NA,NA,NA,NA,NA
19dcb,"""Falsch""-Screen",canvas.Screen,3_0_4_0_3_1_2,NA,NA,skipped,NA,771718,NA,NA,771709.64,771718,2023-10-20T14:14:24Z,771726.24,NULL,Fleisch,mshakiki,s,kizunguzungu,mshikamano,angusho,NA,sd,NA,4,NA,NA,NA,NA,NA,NA,NA,NA,NA,NA,NA,NA,NA,NA,NA,NA,NA,NA,NA
19dcb,shallow,flow.Sequence,3_0_4_0_3_1,NA,NA,completion,10198.8,761499,761494.22,761510.84,771709.64,771719,2023-10-20T14:14:24Z,771726.24,NULL,Fleisch,mshakiki,s,kizunguzungu,mshikamano,angusho,NA,sd,NA,4,NA,NA,NA,NA,NA,NA,NA,NA,NA,NA,NA,NA,NA,NA,NA,NA,NA,NA,NA
19dcb,task,flow.Sequence,3_0_4_0_3,NA,NA,completion,10198.8,761498,761494.22,761510.84,771709.64,771719,2023-10-20T14:14:24Z,771726.24,NULL,Fleisch,mshakiki,s,kizunguzungu,mshikamano,angusho,NA,sd,NA,4,NA,NA,NA,NA,NA,NA,NA,NA,NA,NA,NA,NA,NA,NA,NA,NA,NA,NA,NA
19dcb,Deep Question,html.Page,3_0_4_0_4_0_0,NA,NA,form submission,5684.76,771720,771709.64,771726.24,777411,777414,2023-10-20T14:14:30Z,777425.48,NULL,Genehmigung,idhini,d,NA,NA,NA,dehili,NA,NA,4,NA,NA,NA,NA,NA,NA,NA,NA,NA,NA,NA,NA,NA,NA,NA,NA,NA,NA,NA
19dcb,"""Richtig""-Screen",canvas.Screen,3_0_4_0_4_0_1,NA,NA,skipped,NA,777421,NA,NA,777411,777421,2023-10-20T14:14:30Z,777425.48,NULL,Genehmigung,idhini,d,NA,NA,NA,NA,sd,NA,4,NA,NA,NA,NA,NA,NA,NA,NA,NA,NA,NA,NA,NA,NA,NA,NA,NA,NA,NA
19dcb,"""Falsch""-Screen",canvas.Screen,3_0_4_0_4_0_2,NA,NA,timeout,4999.36,777424,777409.34,777425.48,782408.18,782410,2023-10-20T14:14:35Z,782424.84,NULL,Genehmigung,idhini,d,NA,NA,NA,NA,sd,0,4,NA,NA,NA,NA,NA,NA,NA,NA,NA,NA,NA,NA,NA,NA,NA,NA,NA,NA,NA
19dcb,deep,flow.Sequence,3_0_4_0_4_0,NA,NA,completion,10681.94,771720,771709.64,771726.24,782408.18,782410,2023-10-20T14:14:35Z,782424.84,NULL,Genehmigung,idhini,d,NA,NA,NA,NA,sd,NA,4,NA,NA,NA,NA,NA,NA,NA,NA,NA,NA,NA,NA,NA,NA,NA,NA,NA,NA,NA
19dcb,shallow,flow.Sequence,3_0_4_0_4_1,NA,NA,skipped,NA,782410,NA,NA,782408.18,782410,2023-10-20T14:14:35Z,782424.84,NULL,Genehmigung,idhini,d,NA,NA,NA,NA,sd,NA,4,NA,NA,NA,NA,NA,NA,NA,NA,NA,NA,NA,NA,NA,NA,NA,NA,NA,NA,NA
19dcb,task,flow.Sequence,3_0_4_0_4,NA,NA,completion,10681.94,771720,771709.64,771726.24,782408.18,782410,2023-10-20T14:14:35Z,782424.84,NULL,Genehmigung,idhini,d,NA,NA,NA,NA,sd,NA,4,NA,NA,NA,NA,NA,NA,NA,NA,NA,NA,NA,NA,NA,NA,NA,NA,NA,NA,NA
19dcb,Deep Question,html.Page,3_0_4_0_5_0_0,NA,NA,form submission,10709.16,782411,782408.18,782424.84,793134,793134,2023-10-20T14:14:45Z,793140.18,NULL,Schlange,foleni,d,NA,NA,NA,l,NA,NA,4,NA,NA,NA,NA,NA,NA,NA,NA,NA,NA,NA,NA,NA,NA,NA,NA,NA,NA,NA
19dcb,"""Richtig""-Screen",canvas.Screen,3_0_4_0_5_0_1,NA,NA,skipped,NA,793138,NA,NA,793134,793138,2023-10-20T14:14:45Z,793140.18,NULL,Schlange,foleni,d,NA,NA,NA,NA,sd,NA,4,NA,NA,NA,NA,NA,NA,NA,NA,NA,NA,NA,NA,NA,NA,NA,NA,NA,NA,NA
19dcb,"""Falsch""-Screen",canvas.Screen,3_0_4_0_5_0_2,NA,NA,timeout,4999.2999999999,793140,793132.88,793140.18,798122.82,798124,2023-10-20T14:14:50Z,798139.48,NULL,Schlange,foleni,d,NA,NA,NA,NA,sd,0,4,NA,NA,NA,NA,NA,NA,NA,NA,NA,NA,NA,NA,NA,NA,NA,NA,NA,NA,NA
19dcb,deep,flow.Sequence,3_0_4_0_5_0,NA,NA,completion,15697.98,782411,782408.18,782424.84,798122.82,798124,2023-10-20T14:14:50Z,798139.48,NULL,Schlange,foleni,d,NA,NA,NA,NA,sd,NA,4,NA,NA,NA,NA,NA,NA,NA,NA,NA,NA,NA,NA,NA,NA,NA,NA,NA,NA,NA
19dcb,shallow,flow.Sequence,3_0_4_0_5_1,NA,NA,skipped,NA,798124,NA,NA,798122.82,798125,2023-10-20T14:14:50Z,798139.48,NULL,Schlange,foleni,d,NA,NA,NA,NA,sd,NA,4,NA,NA,NA,NA,NA,NA,NA,NA,NA,NA,NA,NA,NA,NA,NA,NA,NA,NA,NA
19dcb,task,flow.Sequence,3_0_4_0_5,NA,NA,completion,15697.98,782410,782408.18,782424.84,798122.82,798125,2023-10-20T14:14:50Z,798139.48,NULL,Schlange,foleni,d,NA,NA,NA,NA,sd,NA,4,NA,NA,NA,NA,NA,NA,NA,NA,NA,NA,NA,NA,NA,NA,NA,NA,NA,NA,NA
19dcb,Deep Question,html.Page,3_0_4_0_6_0_0,NA,NA,form submission,4090.52,798125,798122.82,798139.48,802230,802230,2023-10-20T14:14:55Z,802229.28,NULL,Toleranz,kuvumiliana,d,NA,NA,NA,jj,NA,NA,4,NA,NA,NA,NA,NA,NA,NA,NA,NA,NA,NA,NA,NA,NA,NA,NA,NA,NA,NA
19dcb,"""Richtig""-Screen",canvas.Screen,3_0_4_0_6_0_1,NA,NA,skipped,NA,802231,NA,NA,802230,802231,2023-10-20T14:14:55Z,802229.28,NULL,Toleranz,kuvumiliana,d,NA,NA,NA,NA,sd,NA,4,NA,NA,NA,NA,NA,NA,NA,NA,NA,NA,NA,NA,NA,NA,NA,NA,NA,NA,NA
19dcb,"""Falsch""-Screen",canvas.Screen,3_0_4_0_6_0_2,NA,NA,timeout,4992.36,802233,802228.84,802229.28,807205.1,807207,2023-10-20T14:15:00Z,807221.64,NULL,Toleranz,kuvumiliana,d,NA,NA,NA,NA,sd,0,4,NA,NA,NA,NA,NA,NA,NA,NA,NA,NA,NA,NA,NA,NA,NA,NA,NA,NA,NA
19dcb,deep,flow.Sequence,3_0_4_0_6_0,NA,NA,completion,9065.62,798125,798122.82,798139.48,807205.1,807208,2023-10-20T14:15:00Z,807221.64,NULL,Toleranz,kuvumiliana,d,NA,NA,NA,NA,sd,NA,4,NA,NA,NA,NA,NA,NA,NA,NA,NA,NA,NA,NA,NA,NA,NA,NA,NA,NA,NA
19dcb,shallow,flow.Sequence,3_0_4_0_6_1,NA,NA,skipped,NA,807208,NA,NA,807205.1,807209,2023-10-20T14:15:00Z,807221.64,NULL,Toleranz,kuvumiliana,d,NA,NA,NA,NA,sd,NA,4,NA,NA,NA,NA,NA,NA,NA,NA,NA,NA,NA,NA,NA,NA,NA,NA,NA,NA,NA
19dcb,task,flow.Sequence,3_0_4_0_6,NA,NA,completion,9065.62,798125,798122.82,798139.48,807205.1,807209,2023-10-20T14:15:00Z,807221.64,NULL,Toleranz,kuvumiliana,d,NA,NA,NA,NA,sd,NA,4,NA,NA,NA,NA,NA,NA,NA,NA,NA,NA,NA,NA,NA,NA,NA,NA,NA,NA,NA
19dcb,deep,flow.Sequence,3_0_4_0_7_0,NA,NA,skipped,NA,807210,NA,NA,807205.1,807210,2023-10-20T14:15:00Z,807221.64,NULL,Vermutung,udhanifu,s,haramia,tikisho,itifaki,NA,sd,NA,4,NA,NA,NA,NA,NA,NA,NA,NA,NA,NA,NA,NA,NA,NA,NA,NA,NA,NA,NA
19dcb,Shallow Question,html.Page,3_0_4_0_7_1_0,NA,NA,form submission,12437.36,807211,807205.1,807221.64,819659,819659,2023-10-20T14:15:12Z,819670,NULL,Vermutung,udhanifu,s,haramia,tikisho,itifaki,udhanifu,NA,NA,4,NA,NA,NA,NA,NA,NA,NA,NA,NA,NA,NA,NA,NA,NA,NA,NA,NA,NA,NA
19dcb,"""Richtig""-Screen",canvas.Screen,3_0_4_0_7_1_1,NA,NA,timeout,4999.42,819662,819653.58,819670,824652.76,824654,2023-10-20T14:15:17Z,824669.42,NULL,Vermutung,udhanifu,s,haramia,tikisho,itifaki,NA,sd,1,4,NA,NA,NA,NA,NA,NA,NA,NA,NA,NA,NA,NA,NA,NA,NA,NA,NA,NA,NA
19dcb,"""Falsch""-Screen",canvas.Screen,3_0_4_0_7_1_2,NA,NA,skipped,NA,824658,NA,NA,824652.76,824658,2023-10-20T14:15:17Z,824669.42,NULL,Vermutung,udhanifu,s,haramia,tikisho,itifaki,NA,sd,NA,4,NA,NA,NA,NA,NA,NA,NA,NA,NA,NA,NA,NA,NA,NA,NA,NA,NA,NA,NA
19dcb,shallow,flow.Sequence,3_0_4_0_7_1,NA,NA,completion,17431.12,807211,807205.1,807221.64,824652.76,824658,2023-10-20T14:15:17Z,824669.42,NULL,Vermutung,udhanifu,s,haramia,tikisho,itifaki,NA,sd,NA,4,NA,NA,NA,NA,NA,NA,NA,NA,NA,NA,NA,NA,NA,NA,NA,NA,NA,NA,NA
19dcb,task,flow.Sequence,3_0_4_0_7,NA,NA,completion,17431.12,807210,807205.1,807221.64,824652.76,824659,2023-10-20T14:15:17Z,824669.42,NULL,Vermutung,udhanifu,s,haramia,tikisho,itifaki,NA,sd,NA,4,NA,NA,NA,NA,NA,NA,NA,NA,NA,NA,NA,NA,NA,NA,NA,NA,NA,NA,NA
19dcb,block,flow.Loop,3_0_4_0,NA,NA,completion,106598.3,718054,718054.1,718054.46,824652.76,824659,2023-10-20T14:15:17Z,824669.42,NULL,NA,NA,NA,NA,NA,NA,NA,sd,NA,4,NA,NA,NA,NA,NA,NA,NA,NA,NA,NA,NA,NA,NA,NA,NA,NA,NA,NA,NA
19dcb,weiter,canvas.Screen,3_0_4_1,sdf,keypress(Space),response,2848.58,824659,824652.76,824669.42,827518,827527,2023-10-20T14:15:20Z,827573.74,NULL,NA,NA,NA,NA,NA,NA,NA,sd,NA,4,NA,NA,NA,NA,NA,NA,NA,NA,NA,NA,NA,NA,NA,NA,NA,NA,NA,NA,NA
19dcb,check continue,flow.Sequence,3_0_4,NA,NA,completion,109463.54,718054,718054.1,718054.46,827518,827527,2023-10-20T14:15:20Z,827573.74,NULL,NA,NA,NA,NA,NA,NA,NA,sd,NA,4,NA,NA,NA,NA,NA,NA,NA,NA,NA,NA,NA,NA,NA,NA,NA,NA,NA,NA,NA
19dcb,deep,flow.Sequence,3_0_5_0_0_0,NA,NA,skipped,NA,827573,NA,NA,827518,827573,2023-10-20T14:15:20Z,827573.74,NULL,Vermutung,udhanifu,s,haramia,tikisho,itifaki,NA,sdf,NA,5,NA,NA,NA,NA,NA,NA,NA,NA,NA,NA,NA,NA,NA,NA,NA,NA,NA,NA,NA
19dcb,Shallow Question,html.Page,3_0_5_0_0_1_0,NA,NA,form submission,4297.26,827574,827573.44,827573.74,831871,831872,2023-10-20T14:15:24Z,831868.34,NULL,Vermutung,udhanifu,s,haramia,tikisho,itifaki,udhanifu,NA,NA,5,NA,NA,NA,NA,NA,NA,NA,NA,NA,NA,NA,NA,NA,NA,NA,NA,NA,NA,NA
19dcb,"""Richtig""-Screen",canvas.Screen,3_0_5_0_0_1_1,NA,NA,timeout,4999.6,831876,831866.1,831868.34,836851.28,836852,2023-10-20T14:15:29Z,836867.94,NULL,Vermutung,udhanifu,s,haramia,tikisho,itifaki,NA,sdf,1,5,NA,NA,NA,NA,NA,NA,NA,NA,NA,NA,NA,NA,NA,NA,NA,NA,NA,NA,NA
19dcb,"""Falsch""-Screen",canvas.Screen,3_0_5_0_0_1_2,NA,NA,skipped,NA,836856,NA,NA,836851.28,836856,2023-10-20T14:15:29Z,836867.94,NULL,Vermutung,udhanifu,s,haramia,tikisho,itifaki,NA,sdf,NA,5,NA,NA,NA,NA,NA,NA,NA,NA,NA,NA,NA,NA,NA,NA,NA,NA,NA,NA,NA
19dcb,shallow,flow.Sequence,3_0_5_0_0_1,NA,NA,completion,9277.54,827574,827573.44,827573.74,836851.28,836856,2023-10-20T14:15:29Z,836867.94,NULL,Vermutung,udhanifu,s,haramia,tikisho,itifaki,NA,sdf,NA,5,NA,NA,NA,NA,NA,NA,NA,NA,NA,NA,NA,NA,NA,NA,NA,NA,NA,NA,NA
19dcb,task,flow.Sequence,3_0_5_0_0,NA,NA,completion,9277.54,827573,827573.44,827573.74,836851.28,836856,2023-10-20T14:15:29Z,836867.94,NULL,Vermutung,udhanifu,s,haramia,tikisho,itifaki,NA,sdf,NA,5,NA,NA,NA,NA,NA,NA,NA,NA,NA,NA,NA,NA,NA,NA,NA,NA,NA,NA,NA
19dcb,deep,flow.Sequence,3_0_5_0_1_0,NA,NA,skipped,NA,836857,NA,NA,836851.28,836857,2023-10-20T14:15:29Z,836867.94,NULL,Integrität,uadilifu,s,muungano,mtiririko,upunguaji,NA,sdf,NA,5,NA,NA,NA,NA,NA,NA,NA,NA,NA,NA,NA,NA,NA,NA,NA,NA,NA,NA,NA
19dcb,Shallow Question,html.Page,3_0_5_0_1_1_0,NA,NA,form submission,6572.0600000001,836857,836851.28,836867.94,843440,843441,2023-10-20T14:15:36Z,843450.34,NULL,Integrität,uadilifu,s,muungano,mtiririko,upunguaji,uadilifu,NA,NA,5,NA,NA,NA,NA,NA,NA,NA,NA,NA,NA,NA,NA,NA,NA,NA,NA,NA,NA,NA
19dcb,"""Richtig""-Screen",canvas.Screen,3_0_5_0_1_1_1,NA,NA,timeout,4999.38,843448,843435.76,843450.34,848433.16,848435,2023-10-20T14:15:41Z,848449.72,NULL,Integrität,uadilifu,s,muungano,mtiririko,upunguaji,NA,sdf,1,5,NA,NA,NA,NA,NA,NA,NA,NA,NA,NA,NA,NA,NA,NA,NA,NA,NA,NA,NA
19dcb,"""Falsch""-Screen",canvas.Screen,3_0_5_0_1_1_2,NA,NA,skipped,NA,848440,NA,NA,848433.16,848441,2023-10-20T14:15:41Z,848449.72,NULL,Integrität,uadilifu,s,muungano,mtiririko,upunguaji,NA,sdf,NA,5,NA,NA,NA,NA,NA,NA,NA,NA,NA,NA,NA,NA,NA,NA,NA,NA,NA,NA,NA
19dcb,shallow,flow.Sequence,3_0_5_0_1_1,NA,NA,completion,11565.22,836857,836851.28,836867.94,848433.16,848441,2023-10-20T14:15:41Z,848449.72,NULL,Integrität,uadilifu,s,muungano,mtiririko,upunguaji,NA,sdf,NA,5,NA,NA,NA,NA,NA,NA,NA,NA,NA,NA,NA,NA,NA,NA,NA,NA,NA,NA,NA
19dcb,task,flow.Sequence,3_0_5_0_1,NA,NA,completion,11565.22,836856,836851.28,836867.94,848433.16,848442,2023-10-20T14:15:41Z,848449.72,NULL,Integrität,uadilifu,s,muungano,mtiririko,upunguaji,NA,sdf,NA,5,NA,NA,NA,NA,NA,NA,NA,NA,NA,NA,NA,NA,NA,NA,NA,NA,NA,NA,NA
19dcb,deep,flow.Sequence,3_0_5_0_2_0,NA,NA,skipped,NA,848442,NA,NA,848433.16,848442,2023-10-20T14:15:41Z,848449.72,NULL,Fleisch,mshakiki,s,kizunguzungu,mshikamano,angusho,NA,sdf,NA,5,NA,NA,NA,NA,NA,NA,NA,NA,NA,NA,NA,NA,NA,NA,NA,NA,NA,NA,NA
19dcb,Shallow Question,html.Page,3_0_5_0_2_1_0,NA,NA,form submission,5510.28,848443,848433.16,848449.72,853960,853960,2023-10-20T14:15:46Z,853965.7,NULL,Fleisch,mshakiki,s,kizunguzungu,mshikamano,angusho,mshakiki,NA,NA,5,NA,NA,NA,NA,NA,NA,NA,NA,NA,NA,NA,NA,NA,NA,NA,NA,NA,NA,NA
19dcb,"""Richtig""-Screen",canvas.Screen,3_0_5_0_2_1_1,NA,NA,timeout,4999.3600000001,853964,853954.86,853965.7,858948.42,858949,2023-10-20T14:15:51Z,858965.06,NULL,Fleisch,mshakiki,s,kizunguzungu,mshikamano,angusho,NA,sdf,1,5,NA,NA,NA,NA,NA,NA,NA,NA,NA,NA,NA,NA,NA,NA,NA,NA,NA,NA,NA
19dcb,"""Falsch""-Screen",canvas.Screen,3_0_5_0_2_1_2,NA,NA,skipped,NA,858955,NA,NA,858948.42,858956,2023-10-20T14:15:51Z,858965.06,NULL,Fleisch,mshakiki,s,kizunguzungu,mshikamano,angusho,NA,sdf,NA,5,NA,NA,NA,NA,NA,NA,NA,NA,NA,NA,NA,NA,NA,NA,NA,NA,NA,NA,NA
19dcb,shallow,flow.Sequence,3_0_5_0_2_1,NA,NA,completion,10498.7,848443,848433.16,848449.72,858948.42,858957,2023-10-20T14:15:51Z,858965.06,NULL,Fleisch,mshakiki,s,kizunguzungu,mshikamano,angusho,NA,sdf,NA,5,NA,NA,NA,NA,NA,NA,NA,NA,NA,NA,NA,NA,NA,NA,NA,NA,NA,NA,NA
19dcb,task,flow.Sequence,3_0_5_0_2,NA,NA,completion,10498.7,848442,848433.16,848449.72,858948.42,858957,2023-10-20T14:15:51Z,858965.06,NULL,Fleisch,mshakiki,s,kizunguzungu,mshikamano,angusho,NA,sdf,NA,5,NA,NA,NA,NA,NA,NA,NA,NA,NA,NA,NA,NA,NA,NA,NA,NA,NA,NA,NA
19dcb,Deep Question,html.Page,3_0_5_0_3_0_0,NA,NA,form submission,4376.9399999999,858958,858948.42,858965.06,863342,863342,2023-10-20T14:15:56Z,863341.12,NULL,Schlange,foleni,d,NA,NA,NA,foleni,NA,NA,5,NA,NA,NA,NA,NA,NA,NA,NA,NA,NA,NA,NA,NA,NA,NA,NA,NA,NA,NA
19dcb,"""Richtig""-Screen",canvas.Screen,3_0_5_0_3_0_1,NA,NA,timeout,5006.1,863344,863340.78,863341.12,868330.58,868336,2023-10-20T14:16:01Z,868347.22,NULL,Schlange,foleni,d,NA,NA,NA,NA,sdf,1,5,NA,NA,NA,NA,NA,NA,NA,NA,NA,NA,NA,NA,NA,NA,NA,NA,NA,NA,NA
19dcb,"""Falsch""-Screen",canvas.Screen,3_0_5_0_3_0_2,NA,NA,skipped,NA,868350,NA,NA,868330.58,868350,2023-10-20T14:16:01Z,868347.22,NULL,Schlange,foleni,d,NA,NA,NA,NA,sdf,NA,5,NA,NA,NA,NA,NA,NA,NA,NA,NA,NA,NA,NA,NA,NA,NA,NA,NA,NA,NA
19dcb,deep,flow.Sequence,3_0_5_0_3_0,NA,NA,completion,9365.5199999999,858958,858948.42,858965.06,868330.58,868351,2023-10-20T14:16:01Z,868347.22,NULL,Schlange,foleni,d,NA,NA,NA,NA,sdf,NA,5,NA,NA,NA,NA,NA,NA,NA,NA,NA,NA,NA,NA,NA,NA,NA,NA,NA,NA,NA
19dcb,shallow,flow.Sequence,3_0_5_0_3_1,NA,NA,skipped,NA,868351,NA,NA,868330.58,868351,2023-10-20T14:16:01Z,868347.22,NULL,Schlange,foleni,d,NA,NA,NA,NA,sdf,NA,5,NA,NA,NA,NA,NA,NA,NA,NA,NA,NA,NA,NA,NA,NA,NA,NA,NA,NA,NA
19dcb,task,flow.Sequence,3_0_5_0_3,NA,NA,completion,9365.5199999999,858958,858948.42,858965.06,868330.58,868352,2023-10-20T14:16:01Z,868347.22,NULL,Schlange,foleni,d,NA,NA,NA,NA,sdf,NA,5,NA,NA,NA,NA,NA,NA,NA,NA,NA,NA,NA,NA,NA,NA,NA,NA,NA,NA,NA
19dcb,Deep Question,html.Page,3_0_5_0_4_0_0,NA,NA,form submission,4506.78,868352,868330.58,868347.22,872854,872855,2023-10-20T14:16:05Z,872863.28,NULL,Begegnung,kukutana,d,NA,NA,NA,kukutana,NA,NA,5,NA,NA,NA,NA,NA,NA,NA,NA,NA,NA,NA,NA,NA,NA,NA,NA,NA,NA,NA
19dcb,"""Richtig""-Screen",canvas.Screen,3_0_5_0_4_0_1,NA,NA,timeout,4999.38,872858,872852.42,872863.28,877846,877848,2023-10-20T14:16:10Z,877862.66,NULL,Begegnung,kukutana,d,NA,NA,NA,NA,sdf,1,5,NA,NA,NA,NA,NA,NA,NA,NA,NA,NA,NA,NA,NA,NA,NA,NA,NA,NA,NA
19dcb,"""Falsch""-Screen",canvas.Screen,3_0_5_0_4_0_2,NA,NA,skipped,NA,877854,NA,NA,877846,877854,2023-10-20T14:16:10Z,877862.66,NULL,Begegnung,kukutana,d,NA,NA,NA,NA,sdf,NA,5,NA,NA,NA,NA,NA,NA,NA,NA,NA,NA,NA,NA,NA,NA,NA,NA,NA,NA,NA
19dcb,deep,flow.Sequence,3_0_5_0_4_0,NA,NA,completion,9498.78,868352,868330.58,868347.22,877846,877856,2023-10-20T14:16:10Z,877862.66,NULL,Begegnung,kukutana,d,NA,NA,NA,NA,sdf,NA,5,NA,NA,NA,NA,NA,NA,NA,NA,NA,NA,NA,NA,NA,NA,NA,NA,NA,NA,NA
19dcb,shallow,flow.Sequence,3_0_5_0_4_1,NA,NA,skipped,NA,877856,NA,NA,877846,877856,2023-10-20T14:16:10Z,877862.66,NULL,Begegnung,kukutana,d,NA,NA,NA,NA,sdf,NA,5,NA,NA,NA,NA,NA,NA,NA,NA,NA,NA,NA,NA,NA,NA,NA,NA,NA,NA,NA
19dcb,task,flow.Sequence,3_0_5_0_4,NA,NA,completion,9498.78,868352,868330.58,868347.22,877846,877857,2023-10-20T14:16:10Z,877862.66,NULL,Begegnung,kukutana,d,NA,NA,NA,NA,sdf,NA,5,NA,NA,NA,NA,NA,NA,NA,NA,NA,NA,NA,NA,NA,NA,NA,NA,NA,NA,NA
19dcb,Deep Question,html.Page,3_0_5_0_5_0_0,NA,NA,form submission,14884.34,877857,877846,877862.66,892747,892747,2023-10-20T14:16:25Z,892745.76,NULL,Genehmigung,idhini,d,NA,NA,NA,hedeli,NA,NA,5,NA,NA,NA,NA,NA,NA,NA,NA,NA,NA,NA,NA,NA,NA,NA,NA,NA,NA,NA
19dcb,"""Richtig""-Screen",canvas.Screen,3_0_5_0_5_0_1,NA,NA,skipped,NA,892750,NA,NA,892747,892750,2023-10-20T14:16:25Z,892745.76,NULL,Genehmigung,idhini,d,NA,NA,NA,NA,sdf,NA,5,NA,NA,NA,NA,NA,NA,NA,NA,NA,NA,NA,NA,NA,NA,NA,NA,NA,NA,NA
19dcb,"""Falsch""-Screen",canvas.Screen,3_0_5_0_5_0_2,NA,NA,timeout,4997.6799999999,892753,892745.42,892745.76,897726.78,897728,2023-10-20T14:16:30Z,897743.44,NULL,Genehmigung,idhini,d,NA,NA,NA,NA,sdf,0,5,NA,NA,NA,NA,NA,NA,NA,NA,NA,NA,NA,NA,NA,NA,NA,NA,NA,NA,NA
19dcb,deep,flow.Sequence,3_0_5_0_5_0,NA,NA,completion,19864.12,877857,877846,877862.66,897726.78,897728,2023-10-20T14:16:30Z,897743.44,NULL,Genehmigung,idhini,d,NA,NA,NA,NA,sdf,NA,5,NA,NA,NA,NA,NA,NA,NA,NA,NA,NA,NA,NA,NA,NA,NA,NA,NA,NA,NA
19dcb,shallow,flow.Sequence,3_0_5_0_5_1,NA,NA,skipped,NA,897729,NA,NA,897726.78,897729,2023-10-20T14:16:30Z,897743.44,NULL,Genehmigung,idhini,d,NA,NA,NA,NA,sdf,NA,5,NA,NA,NA,NA,NA,NA,NA,NA,NA,NA,NA,NA,NA,NA,NA,NA,NA,NA,NA
19dcb,task,flow.Sequence,3_0_5_0_5,NA,NA,completion,19864.12,877857,877846,877862.66,897726.78,897729,2023-10-20T14:16:30Z,897743.44,NULL,Genehmigung,idhini,d,NA,NA,NA,NA,sdf,NA,5,NA,NA,NA,NA,NA,NA,NA,NA,NA,NA,NA,NA,NA,NA,NA,NA,NA,NA,NA
19dcb,Deep Question,html.Page,3_0_5_0_6_0_0,NA,NA,form submission,23602.56,897730,897726.78,897743.44,921346,921348,2023-10-20T14:16:54Z,921357.04,NULL,Toleranz,kuvumiliana,d,NA,NA,NA,kuyamala,NA,NA,5,NA,NA,NA,NA,NA,NA,NA,NA,NA,NA,NA,NA,NA,NA,NA,NA,NA,NA,NA
19dcb,"""Richtig""-Screen",canvas.Screen,3_0_5_0_6_0_1,NA,NA,skipped,NA,921350,NA,NA,921346,921351,2023-10-20T14:16:54Z,921357.04,NULL,Toleranz,kuvumiliana,d,NA,NA,NA,NA,sdf,NA,5,NA,NA,NA,NA,NA,NA,NA,NA,NA,NA,NA,NA,NA,NA,NA,NA,NA,NA,NA
19dcb,"""Falsch""-Screen",canvas.Screen,3_0_5_0_6_0_2,NA,NA,timeout,4999.4399999999,921354,921345.5,921357.04,926339.86,926345,2023-10-20T14:16:59Z,926356.48,NULL,Toleranz,kuvumiliana,d,NA,NA,NA,NA,sdf,0,5,NA,NA,NA,NA,NA,NA,NA,NA,NA,NA,NA,NA,NA,NA,NA,NA,NA,NA,NA
19dcb,deep,flow.Sequence,3_0_5_0_6_0,NA,NA,completion,28596.42,897730,897726.78,897743.44,926339.86,926348,2023-10-20T14:16:59Z,926356.48,NULL,Toleranz,kuvumiliana,d,NA,NA,NA,NA,sdf,NA,5,NA,NA,NA,NA,NA,NA,NA,NA,NA,NA,NA,NA,NA,NA,NA,NA,NA,NA,NA
19dcb,shallow,flow.Sequence,3_0_5_0_6_1,NA,NA,skipped,NA,926349,NA,NA,926339.86,926349,2023-10-20T14:16:59Z,926356.48,NULL,Toleranz,kuvumiliana,d,NA,NA,NA,NA,sdf,NA,5,NA,NA,NA,NA,NA,NA,NA,NA,NA,NA,NA,NA,NA,NA,NA,NA,NA,NA,NA
19dcb,task,flow.Sequence,3_0_5_0_6,NA,NA,completion,28596.42,897729,897726.78,897743.44,926339.86,926350,2023-10-20T14:16:59Z,926356.48,NULL,Toleranz,kuvumiliana,d,NA,NA,NA,NA,sdf,NA,5,NA,NA,NA,NA,NA,NA,NA,NA,NA,NA,NA,NA,NA,NA,NA,NA,NA,NA,NA
19dcb,deep,flow.Sequence,3_0_5_0_7_0,NA,NA,skipped,NA,926350,NA,NA,926339.86,926351,2023-10-20T14:16:59Z,926356.48,NULL,Inhalt,yaliyomo,s,kishawishi,hifadhi,kutembea,NA,sdf,NA,5,NA,NA,NA,NA,NA,NA,NA,NA,NA,NA,NA,NA,NA,NA,NA,NA,NA,NA,NA
19dcb,Shallow Question,html.Page,3_0_5_0_7_1_0,NA,NA,form submission,7570.52,926351,926339.86,926356.48,933927,933928,2023-10-20T14:17:06Z,933922.14,NULL,Inhalt,yaliyomo,s,kishawishi,hifadhi,kutembea,yaliyomo,NA,NA,5,NA,NA,NA,NA,NA,NA,NA,NA,NA,NA,NA,NA,NA,NA,NA,NA,NA,NA,NA
19dcb,"""Richtig""-Screen",canvas.Screen,3_0_5_0_7_1_1,NA,NA,timeout,4999.3199999999,933937,933920.9,933922.14,938904.78,938906,2023-10-20T14:17:11Z,938921.46,NULL,Inhalt,yaliyomo,s,kishawishi,hifadhi,kutembea,NA,sdf,1,5,NA,NA,NA,NA,NA,NA,NA,NA,NA,NA,NA,NA,NA,NA,NA,NA,NA,NA,NA
19dcb,"""Falsch""-Screen",canvas.Screen,3_0_5_0_7_1_2,NA,NA,skipped,NA,938908,NA,NA,938904.78,938908,2023-10-20T14:17:11Z,938921.46,NULL,Inhalt,yaliyomo,s,kishawishi,hifadhi,kutembea,NA,sdf,NA,5,NA,NA,NA,NA,NA,NA,NA,NA,NA,NA,NA,NA,NA,NA,NA,NA,NA,NA,NA
19dcb,shallow,flow.Sequence,3_0_5_0_7_1,NA,NA,completion,12548.3,926351,926339.86,926356.48,938904.78,938908,2023-10-20T14:17:11Z,938921.46,NULL,Inhalt,yaliyomo,s,kishawishi,hifadhi,kutembea,NA,sdf,NA,5,NA,NA,NA,NA,NA,NA,NA,NA,NA,NA,NA,NA,NA,NA,NA,NA,NA,NA,NA
19dcb,task,flow.Sequence,3_0_5_0_7,NA,NA,completion,12548.3,926350,926339.86,926356.48,938904.78,938908,2023-10-20T14:17:11Z,938921.46,NULL,Inhalt,yaliyomo,s,kishawishi,hifadhi,kutembea,NA,sdf,NA,5,NA,NA,NA,NA,NA,NA,NA,NA,NA,NA,NA,NA,NA,NA,NA,NA,NA,NA,NA
19dcb,block,flow.Loop,3_0_5_0,NA,NA,completion,111331.04,827573,827573.44,827573.74,938904.78,938910,2023-10-20T14:17:11Z,938921.46,NULL,NA,NA,NA,NA,NA,NA,NA,sdf,NA,5,NA,NA,NA,NA,NA,NA,NA,NA,NA,NA,NA,NA,NA,NA,NA,NA,NA,NA,NA
19dcb,weiter,canvas.Screen,3_0_5_1,sdf,keypress(Space),response,1362.54,938910,938904.78,938921.46,940284,940290,2023-10-20T14:17:13Z,940971.84,NULL,NA,NA,NA,NA,NA,NA,NA,sdf,NA,5,NA,NA,NA,NA,NA,NA,NA,NA,NA,NA,NA,NA,NA,NA,NA,NA,NA,NA,NA
19dcb,check continue,flow.Sequence,3_0_5,NA,NA,completion,112710.26,827573,827573.44,827573.74,940284,940291,2023-10-20T14:17:13Z,940971.84,NULL,NA,NA,NA,NA,NA,NA,NA,sdf,NA,5,NA,NA,NA,NA,NA,NA,NA,NA,NA,NA,NA,NA,NA,NA,NA,NA,NA,NA,NA
19dcb,check continue,flow.Sequence,3_0_6,NA,NA,skipped,NA,940357,NA,NA,940284,940357,2023-10-20T14:17:13Z,940971.84,NULL,NA,NA,NA,NA,NA,NA,NA,dfs,NA,6,NA,NA,NA,NA,NA,NA,NA,NA,NA,NA,NA,NA,NA,NA,NA,NA,NA,NA,NA
19dcb,check continue,flow.Sequence,3_0_7,NA,NA,skipped,NA,940386,NA,NA,940284,940386,2023-10-20T14:17:13Z,940971.84,NULL,NA,NA,NA,NA,NA,NA,NA,df,NA,7,NA,NA,NA,NA,NA,NA,NA,NA,NA,NA,NA,NA,NA,NA,NA,NA,NA,NA,NA
19dcb,check continue,flow.Sequence,3_0_8,NA,NA,skipped,NA,940416,NA,NA,940284,940416,2023-10-20T14:17:13Z,940971.84,NULL,NA,NA,NA,NA,NA,NA,NA,dfs,NA,8,NA,NA,NA,NA,NA,NA,NA,NA,NA,NA,NA,NA,NA,NA,NA,NA,NA,NA,NA
19dcb,check continue,flow.Sequence,3_0_9,NA,NA,skipped,NA,940444,NA,NA,940284,940444,2023-10-20T14:17:13Z,940971.84,NULL,NA,NA,NA,NA,NA,NA,NA,dsf,NA,9,NA,NA,NA,NA,NA,NA,NA,NA,NA,NA,NA,NA,NA,NA,NA,NA,NA,NA,NA
19dcb,check continue,flow.Sequence,3_0_10,NA,NA,skipped,NA,940475,NA,NA,940284,940475,2023-10-20T14:17:13Z,940971.84,NULL,NA,NA,NA,NA,NA,NA,NA,df,NA,10,NA,NA,NA,NA,NA,NA,NA,NA,NA,NA,NA,NA,NA,NA,NA,NA,NA,NA,NA
19dcb,check continue,flow.Sequence,3_0_11,NA,NA,skipped,NA,940500,NA,NA,940284,940500,2023-10-20T14:17:13Z,940971.84,NULL,NA,NA,NA,NA,NA,NA,NA,dfs,NA,11,NA,NA,NA,NA,NA,NA,NA,NA,NA,NA,NA,NA,NA,NA,NA,NA,NA,NA,NA
19dcb,check continue,flow.Sequence,3_0_12,NA,NA,skipped,NA,940527,NA,NA,940284,940527,2023-10-20T14:17:13Z,940971.84,NULL,NA,NA,NA,NA,NA,NA,NA,dsf,NA,12,NA,NA,NA,NA,NA,NA,NA,NA,NA,NA,NA,NA,NA,NA,NA,NA,NA,NA,NA
19dcb,check continue,flow.Sequence,3_0_13,NA,NA,skipped,NA,940554,NA,NA,940284,940554,2023-10-20T14:17:13Z,940971.84,NULL,NA,NA,NA,NA,NA,NA,NA,dsf,NA,13,NA,NA,NA,NA,NA,NA,NA,NA,NA,NA,NA,NA,NA,NA,NA,NA,NA,NA,NA
19dcb,check continue,flow.Sequence,3_0_14,NA,NA,skipped,NA,940585,NA,NA,940284,940585,2023-10-20T14:17:13Z,940971.84,NULL,NA,NA,NA,NA,NA,NA,NA,NA,NA,14,NA,NA,NA,NA,NA,NA,NA,NA,NA,NA,NA,NA,NA,NA,NA,NA,NA,NA,NA
19dcb,check continue,flow.Sequence,3_0_15,NA,NA,skipped,NA,940610,NA,NA,940284,940611,2023-10-20T14:17:13Z,940971.84,NULL,NA,NA,NA,NA,NA,NA,NA,NA,NA,15,NA,NA,NA,NA,NA,NA,NA,NA,NA,NA,NA,NA,NA,NA,NA,NA,NA,NA,NA
19dcb,check continue,flow.Sequence,3_0_16,NA,NA,skipped,NA,940635,NA,NA,940284,940636,2023-10-20T14:17:13Z,940971.84,NULL,NA,NA,NA,NA,NA,NA,NA,NA,NA,16,NA,NA,NA,NA,NA,NA,NA,NA,NA,NA,NA,NA,NA,NA,NA,NA,NA,NA,NA
19dcb,check continue,flow.Sequence,3_0_17,NA,NA,skipped,NA,940664,NA,NA,940284,940664,2023-10-20T14:17:13Z,940971.84,NULL,NA,NA,NA,NA,NA,NA,NA,NA,NA,17,NA,NA,NA,NA,NA,NA,NA,NA,NA,NA,NA,NA,NA,NA,NA,NA,NA,NA,NA
19dcb,check continue,flow.Sequence,3_0_18,NA,NA,skipped,NA,940690,NA,NA,940284,940690,2023-10-20T14:17:13Z,940971.84,NULL,NA,NA,NA,NA,NA,NA,NA,NA,NA,18,NA,NA,NA,NA,NA,NA,NA,NA,NA,NA,NA,NA,NA,NA,NA,NA,NA,NA,NA
19dcb,check continue,flow.Sequence,3_0_19,NA,NA,skipped,NA,940713,NA,NA,940284,940713,2023-10-20T14:17:13Z,940971.84,NULL,NA,NA,NA,NA,NA,NA,NA,NA,NA,19,NA,NA,NA,NA,NA,NA,NA,NA,NA,NA,NA,NA,NA,NA,NA,NA,NA,NA,NA
19dcb,check continue,flow.Sequence,3_0_20,NA,NA,skipped,NA,940741,NA,NA,940284,940741,2023-10-20T14:17:13Z,940971.84,NULL,NA,NA,NA,NA,NA,NA,NA,NA,NA,20,NA,NA,NA,NA,NA,NA,NA,NA,NA,NA,NA,NA,NA,NA,NA,NA,NA,NA,NA
19dcb,check continue,flow.Sequence,3_0_21,NA,NA,skipped,NA,940768,NA,NA,940284,940768,2023-10-20T14:17:13Z,940971.84,NULL,NA,NA,NA,NA,NA,NA,NA,NA,NA,21,NA,NA,NA,NA,NA,NA,NA,NA,NA,NA,NA,NA,NA,NA,NA,NA,NA,NA,NA
19dcb,check continue,flow.Sequence,3_0_22,NA,NA,skipped,NA,940792,NA,NA,940284,940792,2023-10-20T14:17:13Z,940971.84,NULL,NA,NA,NA,NA,NA,NA,NA,NA,NA,22,NA,NA,NA,NA,NA,NA,NA,NA,NA,NA,NA,NA,NA,NA,NA,NA,NA,NA,NA
19dcb,check continue,flow.Sequence,3_0_23,NA,NA,skipped,NA,940819,NA,NA,940284,940819,2023-10-20T14:17:13Z,940971.84,NULL,NA,NA,NA,NA,NA,NA,NA,NA,NA,23,NA,NA,NA,NA,NA,NA,NA,NA,NA,NA,NA,NA,NA,NA,NA,NA,NA,NA,NA
19dcb,check continue,flow.Sequence,3_0_24,NA,NA,skipped,NA,940843,NA,NA,940284,940843,2023-10-20T14:17:13Z,940971.84,NULL,NA,NA,NA,NA,NA,NA,NA,NA,NA,24,NA,NA,NA,NA,NA,NA,NA,NA,NA,NA,NA,NA,NA,NA,NA,NA,NA,NA,NA
19dcb,check continue,flow.Sequence,3_0_25,NA,NA,skipped,NA,940867,NA,NA,940284,940867,2023-10-20T14:17:13Z,940971.84,NULL,NA,NA,NA,NA,NA,NA,NA,NA,NA,25,NA,NA,NA,NA,NA,NA,NA,NA,NA,NA,NA,NA,NA,NA,NA,NA,NA,NA,NA
19dcb,check continue,flow.Sequence,3_0_26,NA,NA,skipped,NA,940895,NA,NA,940284,940895,2023-10-20T14:17:13Z,940971.84,NULL,NA,NA,NA,NA,NA,NA,NA,NA,NA,26,NA,NA,NA,NA,NA,NA,NA,NA,NA,NA,NA,NA,NA,NA,NA,NA,NA,NA,NA
19dcb,check continue,flow.Sequence,3_0_27,NA,NA,skipped,NA,940920,NA,NA,940284,940920,2023-10-20T14:17:13Z,940971.84,NULL,NA,NA,NA,NA,NA,NA,NA,NA,NA,27,NA,NA,NA,NA,NA,NA,NA,NA,NA,NA,NA,NA,NA,NA,NA,NA,NA,NA,NA
19dcb,check continue,flow.Sequence,3_0_28,NA,NA,skipped,NA,940948,NA,NA,940284,940948,2023-10-20T14:17:13Z,940971.84,NULL,NA,NA,NA,NA,NA,NA,NA,NA,NA,28,NA,NA,NA,NA,NA,NA,NA,NA,NA,NA,NA,NA,NA,NA,NA,NA,NA,NA,NA
19dcb,check continue,flow.Sequence,3_0_29,NA,NA,skipped,NA,940971,NA,NA,940284,940971,2023-10-20T14:17:13Z,940971.84,NULL,NA,NA,NA,NA,NA,NA,NA,NA,NA,29,NA,NA,NA,NA,NA,NA,NA,NA,NA,NA,NA,NA,NA,NA,NA,NA,NA,NA,NA
19dcb,until continue,flow.Loop,3_0,NA,NA,completion,650315.3,289932,289968.34,289968.7,940284,940971,2023-10-20T14:17:13Z,940971.84,NULL,NA,NA,NA,NA,NA,NA,NA,NA,NA,NA,NA,NA,NA,NA,NA,NA,NA,NA,NA,NA,NA,NA,NA,NA,NA,NA,NA,NA,NA
19dcb,block 1,flow.Sequence,3,NA,NA,completion,650315.3,289932,289968.34,289968.7,940284,940972,2023-10-20T14:17:13Z,940971.84,NULL,NA,NA,NA,NA,NA,NA,NA,NA,NA,NA,NA,NA,NA,NA,NA,NA,NA,NA,NA,NA,NA,NA,NA,NA,NA,NA,NA,NA,NA
19dcb,1.Part Over,canvas.Screen,4,NA,keypress(Space),response,2703.16,940972,940971.52,940971.84,943675,943693,2023-10-20T14:17:16Z,943763.08,NULL,NA,NA,NA,NA,NA,NA,NA,NA,NA,NA,NA,NA,NA,NA,NA,NA,NA,NA,NA,NA,NA,NA,NA,NA,NA,NA,NA,NA,NA
19dcb,deep,flow.Sequence,5_0_0_0_0_0,NA,NA,skipped,NA,943762,NA,NA,943675,943763,2023-10-20T14:17:16Z,943763.08,NULL,Wechsel,ugeuzaji,s,utambulisho,kujenga,wasiwasi,NA,sdf,NA,0,NA,NA,NA,NA,NA,NA,NA,NA,NA,NA,NA,NA,NA,NA,NA,NA,NA,NA,NA
19dcb,Shallow Question,html.Page,5_0_0_0_0_1_0,NA,NA,form submission,11473.92,943763,943762.9,943763.08,955237,955238,2023-10-20T14:17:28Z,955236.16,NULL,Wechsel,ugeuzaji,s,utambulisho,kujenga,wasiwasi,kujenga,NA,NA,0,NA,NA,NA,NA,NA,NA,NA,NA,NA,NA,NA,NA,NA,NA,NA,NA,NA,NA,NA
19dcb,"""Richtig""-Screen",canvas.Screen,5_0_0_0_0_1_1,NA,NA,skipped,NA,955242,NA,NA,955237,955243,2023-10-20T14:17:28Z,955236.16,NULL,Wechsel,ugeuzaji,s,utambulisho,kujenga,wasiwasi,NA,sdf,NA,0,NA,NA,NA,NA,NA,NA,NA,NA,NA,NA,NA,NA,NA,NA,NA,NA,NA,NA,NA
19dcb,"""Falsch""-Screen",canvas.Screen,5_0_0_0_0_1_2,NA,NA,timeout,4999.36,955247,955232.44,955236.16,960218.86,960220,2023-10-20T14:17:33Z,960235.52,NULL,Wechsel,ugeuzaji,s,utambulisho,kujenga,wasiwasi,NA,sdf,0,0,NA,NA,NA,NA,NA,NA,NA,NA,NA,NA,NA,NA,NA,NA,NA,NA,NA,NA,NA
19dcb,shallow,flow.Sequence,5_0_0_0_0_1,NA,NA,completion,16455.78,943763,943762.9,943763.08,960218.86,960220,2023-10-20T14:17:33Z,960235.52,NULL,Wechsel,ugeuzaji,s,utambulisho,kujenga,wasiwasi,NA,sdf,NA,0,NA,NA,NA,NA,NA,NA,NA,NA,NA,NA,NA,NA,NA,NA,NA,NA,NA,NA,NA
19dcb,task,flow.Sequence,5_0_0_0_0,NA,NA,completion,16455.78,943762,943762.9,943763.08,960218.86,960220,2023-10-20T14:17:33Z,960235.52,NULL,Wechsel,ugeuzaji,s,utambulisho,kujenga,wasiwasi,NA,sdf,NA,0,NA,NA,NA,NA,NA,NA,NA,NA,NA,NA,NA,NA,NA,NA,NA,NA,NA,NA,NA
19dcb,Deep Question,html.Page,5_0_0_0_1_0_0,NA,NA,form submission,9401.48,960221,960218.86,960235.52,969637,969637,2023-10-20T14:17:42Z,969636.36,NULL,Flexibilität,kubadilika,d,NA,NA,NA,jhah,NA,NA,0,NA,NA,NA,NA,NA,NA,NA,NA,NA,NA,NA,NA,NA,NA,NA,NA,NA,NA,NA
19dcb,"""Richtig""-Screen",canvas.Screen,5_0_0_0_1_0_1,NA,NA,skipped,NA,969640,NA,NA,969637,969640,2023-10-20T14:17:42Z,969636.36,NULL,Flexibilität,kubadilika,d,NA,NA,NA,NA,sdf,NA,0,NA,NA,NA,NA,NA,NA,NA,NA,NA,NA,NA,NA,NA,NA,NA,NA,NA,NA,NA
19dcb,"""Falsch""-Screen",canvas.Screen,5_0_0_0_1_0_2,NA,NA,timeout,4997.22,969642,969636.04,969636.36,974616.92,974618,2023-10-20T14:17:47Z,974633.58,NULL,Flexibilität,kubadilika,d,NA,NA,NA,NA,sdf,0,0,NA,NA,NA,NA,NA,NA,NA,NA,NA,NA,NA,NA,NA,NA,NA,NA,NA,NA,NA
19dcb,deep,flow.Sequence,5_0_0_0_1_0,NA,NA,completion,14381.4,960221,960218.86,960235.52,974616.92,974619,2023-10-20T14:17:47Z,974633.58,NULL,Flexibilität,kubadilika,d,NA,NA,NA,NA,sdf,NA,0,NA,NA,NA,NA,NA,NA,NA,NA,NA,NA,NA,NA,NA,NA,NA,NA,NA,NA,NA
19dcb,shallow,flow.Sequence,5_0_0_0_1_1,NA,NA,skipped,NA,974619,NA,NA,974616.92,974620,2023-10-20T14:17:47Z,974633.58,NULL,Flexibilität,kubadilika,d,NA,NA,NA,NA,sdf,NA,0,NA,NA,NA,NA,NA,NA,NA,NA,NA,NA,NA,NA,NA,NA,NA,NA,NA,NA,NA
19dcb,task,flow.Sequence,5_0_0_0_1,NA,NA,completion,14381.4,960221,960218.86,960235.52,974616.92,974620,2023-10-20T14:17:47Z,974633.58,NULL,Flexibilität,kubadilika,d,NA,NA,NA,NA,sdf,NA,0,NA,NA,NA,NA,NA,NA,NA,NA,NA,NA,NA,NA,NA,NA,NA,NA,NA,NA,NA
19dcb,deep,flow.Sequence,5_0_0_0_2_0,NA,NA,skipped,NA,974620,NA,NA,974616.92,974620,2023-10-20T14:17:47Z,974633.58,NULL,Erneuerung,ukarabati,s,ushawishi,ukalifu,unyonyaji,NA,sdf,NA,0,NA,NA,NA,NA,NA,NA,NA,NA,NA,NA,NA,NA,NA,NA,NA,NA,NA,NA,NA
19dcb,Shallow Question,html.Page,5_0_0_0_2_1_0,NA,NA,form submission,12295.42,974620,974616.92,974633.58,986929,986929,2023-10-20T14:17:59Z,986932.1,NULL,Erneuerung,ukarabati,s,ushawishi,ukalifu,unyonyaji,ukalifu,NA,NA,0,NA,NA,NA,NA,NA,NA,NA,NA,NA,NA,NA,NA,NA,NA,NA,NA,NA,NA,NA
19dcb,"""Richtig""-Screen",canvas.Screen,5_0_0_0_2_1_1,NA,NA,skipped,NA,986935,NA,NA,986929,986935,2023-10-20T14:17:59Z,986932.1,NULL,Erneuerung,ukarabati,s,ushawishi,ukalifu,unyonyaji,NA,sdf,NA,0,NA,NA,NA,NA,NA,NA,NA,NA,NA,NA,NA,NA,NA,NA,NA,NA,NA,NA,NA
19dcb,"""Falsch""-Screen",canvas.Screen,5_0_0_0_2_1_2,NA,NA,timeout,4999.34,986940,986924.02,986932.1,991914.78,991916,2023-10-20T14:18:04Z,991931.44,NULL,Erneuerung,ukarabati,s,ushawishi,ukalifu,unyonyaji,NA,sdf,0,0,NA,NA,NA,NA,NA,NA,NA,NA,NA,NA,NA,NA,NA,NA,NA,NA,NA,NA,NA
19dcb,shallow,flow.Sequence,5_0_0_0_2_1,NA,NA,completion,17281.2,974620,974616.92,974633.58,991914.78,991917,2023-10-20T14:18:04Z,991931.44,NULL,Erneuerung,ukarabati,s,ushawishi,ukalifu,unyonyaji,NA,sdf,NA,0,NA,NA,NA,NA,NA,NA,NA,NA,NA,NA,NA,NA,NA,NA,NA,NA,NA,NA,NA
19dcb,task,flow.Sequence,5_0_0_0_2,NA,NA,completion,17281.2,974620,974616.92,974633.58,991914.78,991917,2023-10-20T14:18:04Z,991931.44,NULL,Erneuerung,ukarabati,s,ushawishi,ukalifu,unyonyaji,NA,sdf,NA,0,NA,NA,NA,NA,NA,NA,NA,NA,NA,NA,NA,NA,NA,NA,NA,NA,NA,NA,NA
19dcb,Deep Question,html.Page,5_0_0_0_3_0_0,NA,NA,form submission,3875.5600000001,991917,991914.78,991931.44,995807,995807,2023-10-20T14:18:08Z,995814.2,NULL,Theorie,nadharia,d,NA,NA,NA,lh,NA,NA,0,NA,NA,NA,NA,NA,NA,NA,NA,NA,NA,NA,NA,NA,NA,NA,NA,NA,NA,NA
19dcb,"""Richtig""-Screen",canvas.Screen,5_0_0_0_3_0_1,NA,NA,skipped,NA,995810,NA,NA,995807,995810,2023-10-20T14:18:08Z,995814.2,NULL,Theorie,nadharia,d,NA,NA,NA,NA,sdf,NA,0,NA,NA,NA,NA,NA,NA,NA,NA,NA,NA,NA,NA,NA,NA,NA,NA,NA,NA,NA
19dcb,"""Falsch""-Screen",canvas.Screen,5_0_0_0_3_0_2,NA,NA,timeout,4999.4400000001,995812,995806.12,995814.2,1000797.02,1000800,2023-10-20T14:18:13Z,1000813.64,NULL,Theorie,nadharia,d,NA,NA,NA,NA,sdf,0,0,NA,NA,NA,NA,NA,NA,NA,NA,NA,NA,NA,NA,NA,NA,NA,NA,NA,NA,NA
19dcb,deep,flow.Sequence,5_0_0_0_3_0,NA,NA,completion,8865.5800000001,991917,991914.78,991931.44,1000797.02,1000802,2023-10-20T14:18:13Z,1000813.64,NULL,Theorie,nadharia,d,NA,NA,NA,NA,sdf,NA,0,NA,NA,NA,NA,NA,NA,NA,NA,NA,NA,NA,NA,NA,NA,NA,NA,NA,NA,NA
