observation,sender,sender_type,sender_id,response,response_action,ended_on,duration,time_run,time_render,time_show,time_end,time_commit,timestamp,time_switch,german,swahili,enc,distractor1,distractor2,distractor3,response_2,x,correct,distractors,url_vp,url_sess,meta_labjs_version,meta_location,meta_user_agent,meta_platform,meta_language,meta_locale,meta_time_zone,meta_timezone_offset,meta_screen_width,meta_screen_height,meta_scroll_width,meta_scroll_height,meta_window_inner_width,meta_window_inner_height,meta_device_pixel_ratio,meta_labjs_build_flavor,meta_labjs_build_commit
43126,Introduction delayed retrieval,canvas.Screen,0,weiter,keypress(Space),response,21496.545,2587.8000000007,2598.968,2648.955,24145.5,24146.899999999,2023-02-12T19:27:01Z,24158.338,NA,NA,NA,NA,NA,NA,NA,NA,NA,NULL,107,4,20.2.4,https://neurocog.fernuni.ch/studies/vweber/delayed/index.html?vp=107&sess=4,"Mozilla/5.0 (Windows NT 10.0; Win64; x64) AppleWebKit/537.36 (KHTML, like Gecko) Chrome/109.0.0.0 Safari/537.36",Win32,de-DE,de,Europe/Berlin,-60,1536,864,1536,674,1536,722,1.25,production,f5b4a49f956347addd546a832a3327688c2c0fef
43126,Deep Question,html.Page,1_0_0_0,NA,NA,form submission,43183.162,24147.199999999,24141.658,24158.338,67341.5,67341.899999999,2023-02-12T19:27:44Z,67343.758,Verstand,ufahamivu,s,shakawa,hadhari,mhandisi,NA,NA,NA,NULL,NA,NA,NA,NA,NA,NA,NA,NA,NA,NA,NA,NA,NA,NA,NA,NA,NA,NA,NA
43126,Save data screen,canvas.Screen,1_0_0_1,NA,NA,timeout,499.833,67343.399999999,67327.084,67343.758,67826.929,67827.599999998,2023-02-12T19:27:45Z,67843.591,Verstand,ufahamivu,s,shakawa,hadhari,mhandisi,NA,NA,0,NULL,NA,NA,NA,NA,NA,NA,NA,NA,NA,NA,NA,NA,NA,NA,NA,NA,NA,NA,NA
43126,deep,flow.Sequence,1_0_0,NA,NA,completion,43668.591,24147.199999999,24141.658,24158.338,67826.929,67828.099999998,2023-02-12T19:27:45Z,67843.591,Verstand,ufahamivu,s,shakawa,hadhari,mhandisi,NA,NA,NA,NULL,NA,NA,NA,NA,NA,NA,NA,NA,NA,NA,NA,NA,NA,NA,NA,NA,NA,NA,NA
43126,task,flow.Sequence,1_0,NA,NA,completion,43668.591,24147.199999999,24141.658,24158.338,67826.929,67828.300000001,2023-02-12T19:27:45Z,67843.591,Verstand,ufahamivu,s,shakawa,hadhari,mhandisi,NA,NA,NA,NULL,NA,NA,NA,NA,NA,NA,NA,NA,NA,NA,NA,NA,NA,NA,NA,NA,NA,NA,NA
43126,Deep Question,html.Page,1_1_0_0,NA,NA,form submission,80130.508999998,67828.5,67826.929,67843.591,147974.1,147974.4,2023-02-12T19:29:05Z,147983.262,Wettbewerb,ushindani,d,mapendezi,kichocheo,ubaguzi,msadani,NA,NA,NULL,NA,NA,NA,NA,NA,NA,NA,NA,NA,NA,NA,NA,NA,NA,NA,NA,NA,NA,NA
43126,Save data screen,canvas.Screen,1_1_0_1,NA,NA,timeout,499.788,147977.6,147966.537,147983.262,148466.391,148466.8,2023-02-12T19:29:05Z,148483.05,Wettbewerb,ushindani,d,mapendezi,kichocheo,ubaguzi,NA,NA,0,NULL,NA,NA,NA,NA,NA,NA,NA,NA,NA,NA,NA,NA,NA,NA,NA,NA,NA,NA,NA
43126,deep,flow.Sequence,1_1_0,NA,NA,completion,80622.8,67828.5,67826.929,67843.591,148466.391,148467.1,2023-02-12T19:29:05Z,148483.05,Wettbewerb,ushindani,d,mapendezi,kichocheo,ubaguzi,NA,NA,NA,NULL,NA,NA,NA,NA,NA,NA,NA,NA,NA,NA,NA,NA,NA,NA,NA,NA,NA,NA,NA
43126,task,flow.Sequence,1_1,NA,NA,completion,80622.8,67828.5,67826.929,67843.591,148466.391,148475.2,2023-02-12T19:29:05Z,148483.05,Wettbewerb,ushindani,d,mapendezi,kichocheo,ubaguzi,NA,NA,NA,NULL,NA,NA,NA,NA,NA,NA,NA,NA,NA,NA,NA,NA,NA,NA,NA,NA,NA,NA,NA
43126,Deep Question,html.Page,1_2_0_0,NA,NA,form submission,14338.95,148475.6,148466.391,148483.05,162822,162822.4,2023-02-12T19:29:20Z,162828.185,Schönheit,kirembo,s,mahojiano,msisimko,jitihadi,NA,NA,NA,NULL,NA,NA,NA,NA,NA,NA,NA,NA,NA,NA,NA,NA,NA,NA,NA,NA,NA,NA,NA
43126,Save data screen,canvas.Screen,1_2_0_1,NA,NA,timeout,499.834,162825.1,162811.516,162828.185,163311.371,163311.8,2023-02-12T19:29:20Z,163328.019,Schönheit,kirembo,s,mahojiano,msisimko,jitihadi,NA,NA,0,NULL,NA,NA,NA,NA,NA,NA,NA,NA,NA,NA,NA,NA,NA,NA,NA,NA,NA,NA,NA
43126,deep,flow.Sequence,1_2_0,NA,NA,completion,14828.321,148475.5,148466.391,148483.05,163311.371,163312.1,2023-02-12T19:29:20Z,163328.019,Schönheit,kirembo,s,mahojiano,msisimko,jitihadi,NA,NA,NA,NULL,NA,NA,NA,NA,NA,NA,NA,NA,NA,NA,NA,NA,NA,NA,NA,NA,NA,NA,NA
43126,task,flow.Sequence,1_2,NA,NA,completion,14828.321,148475.4,148466.391,148483.05,163311.371,163312.3,2023-02-12T19:29:20Z,163328.019,Schönheit,kirembo,s,mahojiano,msisimko,jitihadi,NA,NA,NA,NULL,NA,NA,NA,NA,NA,NA,NA,NA,NA,NA,NA,NA,NA,NA,NA,NA,NA,NA,NA
43126,Deep Question,html.Page,1_3_0_0,NA,NA,form submission,25698.080999998,163312.5,163311.371,163328.019,189026.1,189026.5,2023-02-12T19:29:46Z,189036.05,Annäherung,maegesho,s,madahili,kujiamini,mapendekezo,fuori,NA,NA,NULL,NA,NA,NA,NA,NA,NA,NA,NA,NA,NA,NA,NA,NA,NA,NA,NA,NA,NA,NA
43126,Save data screen,canvas.Screen,1_3_0_1,NA,NA,timeout,499.81400000001,189029.9,189019.345,189036.05,189519.209,189519.7,2023-02-12T19:29:46Z,189535.864,Annäherung,maegesho,s,madahili,kujiamini,mapendekezo,NA,NA,0,NULL,NA,NA,NA,NA,NA,NA,NA,NA,NA,NA,NA,NA,NA,NA,NA,NA,NA,NA,NA
43126,deep,flow.Sequence,1_3_0,NA,NA,completion,26191.19,163312.5,163311.371,163328.019,189519.209,189520,2023-02-12T19:29:46Z,189535.864,Annäherung,maegesho,s,madahili,kujiamini,mapendekezo,NA,NA,NA,NULL,NA,NA,NA,NA,NA,NA,NA,NA,NA,NA,NA,NA,NA,NA,NA,NA,NA,NA,NA
43126,task,flow.Sequence,1_3,NA,NA,completion,26191.19,163312.5,163311.371,163328.019,189519.209,189520.4,2023-02-12T19:29:46Z,189535.864,Annäherung,maegesho,s,madahili,kujiamini,mapendekezo,NA,NA,NA,NULL,NA,NA,NA,NA,NA,NA,NA,NA,NA,NA,NA,NA,NA,NA,NA,NA,NA,NA,NA
43126,Deep Question,html.Page,1_4_0_0,NA,NA,form submission,11854.335999999,189520.6,189519.209,189535.864,201390.2,201390.5,2023-02-12T19:29:58Z,201398.521,Polizist,msongora,d,simanzi,mandhari,nidhamu,maebab,NA,NA,NULL,NA,NA,NA,NA,NA,NA,NA,NA,NA,NA,NA,NA,NA,NA,NA,NA,NA,NA,NA
43126,Save data screen,canvas.Screen,1_4_0_1,NA,NA,timeout,499.81599999999,201393.1,201381.832,201398.521,201881.693,201882,2023-02-12T19:29:59Z,201898.337,Polizist,msongora,d,simanzi,mandhari,nidhamu,NA,NA,0,NULL,NA,NA,NA,NA,NA,NA,NA,NA,NA,NA,NA,NA,NA,NA,NA,NA,NA,NA,NA
43126,deep,flow.Sequence,1_4_0,NA,NA,completion,12345.829,189520.6,189519.209,189535.864,201881.693,201882.3,2023-02-12T19:29:59Z,201898.337,Polizist,msongora,d,simanzi,mandhari,nidhamu,NA,NA,NA,NULL,NA,NA,NA,NA,NA,NA,NA,NA,NA,NA,NA,NA,NA,NA,NA,NA,NA,NA,NA
43126,task,flow.Sequence,1_4,NA,NA,completion,12345.829,189520.5,189519.209,189535.864,201881.693,201882.5,2023-02-12T19:29:59Z,201898.337,Polizist,msongora,d,simanzi,mandhari,nidhamu,NA,NA,NA,NULL,NA,NA,NA,NA,NA,NA,NA,NA,NA,NA,NA,NA,NA,NA,NA,NA,NA,NA,NA
43126,Deep Question,html.Page,1_5_0_0,NA,NA,form submission,23491.463000001,201882.6,201881.693,201898.337,225389.8,225390.1,2023-02-12T19:30:22Z,225408.648,Beweis,ushahidi,d,marudio,kizuizi,mtendaji,NA,NA,NA,NULL,NA,NA,NA,NA,NA,NA,NA,NA,NA,NA,NA,NA,NA,NA,NA,NA,NA,NA,NA
43126,Save data screen,canvas.Screen,1_5_0_1,NA,NA,timeout,498.274,225393.1,225373.77,225408.648,225890.255,225890.6,2023-02-12T19:30:23Z,225906.922,Beweis,ushahidi,d,marudio,kizuizi,mtendaji,NA,NA,0,NULL,NA,NA,NA,NA,NA,NA,NA,NA,NA,NA,NA,NA,NA,NA,NA,NA,NA,NA,NA
43126,deep,flow.Sequence,1_5_0,NA,NA,completion,23991.918,201882.6,201881.693,201898.337,225890.255,225890.7,2023-02-12T19:30:23Z,225906.922,Beweis,ushahidi,d,marudio,kizuizi,mtendaji,NA,NA,NA,NULL,NA,NA,NA,NA,NA,NA,NA,NA,NA,NA,NA,NA,NA,NA,NA,NA,NA,NA,NA
43126,task,flow.Sequence,1_5,NA,NA,completion,23991.918,201882.5,201881.693,201898.337,225890.255,225890.8,2023-02-12T19:30:23Z,225906.922,Beweis,ushahidi,d,marudio,kizuizi,mtendaji,NA,NA,NA,NULL,NA,NA,NA,NA,NA,NA,NA,NA,NA,NA,NA,NA,NA,NA,NA,NA,NA,NA,NA
43126,Deep Question,html.Page,1_6_0_0,NA,NA,form submission,50611.177999998,225890.9,225890.255,225906.922,276518.1,276518.2,2023-02-12T19:31:13Z,276523.608,Sympathie,mapendano,s,dhamiria,fungamano,maazimio,mbabsij,NA,NA,NULL,NA,NA,NA,NA,NA,NA,NA,NA,NA,NA,NA,NA,NA,NA,NA,NA,NA,NA,NA
43126,Save data screen,canvas.Screen,1_6_0_1,NA,NA,timeout,499.37599999999,276520.4,276506.488,276523.608,277006.309,277006.7,2023-02-12T19:31:14Z,277022.984,Sympathie,mapendano,s,dhamiria,fungamano,maazimio,NA,NA,0,NULL,NA,NA,NA,NA,NA,NA,NA,NA,NA,NA,NA,NA,NA,NA,NA,NA,NA,NA,NA
43126,deep,flow.Sequence,1_6_0,NA,NA,completion,51099.387,225890.9,225890.255,225906.922,277006.309,277006.8,2023-02-12T19:31:14Z,277022.984,Sympathie,mapendano,s,dhamiria,fungamano,maazimio,NA,NA,NA,NULL,NA,NA,NA,NA,NA,NA,NA,NA,NA,NA,NA,NA,NA,NA,NA,NA,NA,NA,NA
43126,task,flow.Sequence,1_6,NA,NA,completion,51099.387,225890.9,225890.255,225906.922,277006.309,277007,2023-02-12T19:31:14Z,277022.984,Sympathie,mapendano,s,dhamiria,fungamano,maazimio,NA,NA,NA,NULL,NA,NA,NA,NA,NA,NA,NA,NA,NA,NA,NA,NA,NA,NA,NA,NA,NA,NA,NA
43126,Deep Question,html.Page,1_7_0_0,NA,NA,form submission,7251.516,277007,277006.309,277022.984,284274.5,284274.8,2023-02-12T19:31:21Z,284287.35,Symbol,kielezo,s,kinyume,nderemo,utayari,NA,NA,NA,NULL,NA,NA,NA,NA,NA,NA,NA,NA,NA,NA,NA,NA,NA,NA,NA,NA,NA,NA,NA
43126,Save data screen,canvas.Screen,1_7_0_1,NA,NA,timeout,499.82000000001,284276.8,284270.732,284287.35,284770.505,284771,2023-02-12T19:31:22Z,284787.17,Symbol,kielezo,s,kinyume,nderemo,utayari,NA,NA,0,NULL,NA,NA,NA,NA,NA,NA,NA,NA,NA,NA,NA,NA,NA,NA,NA,NA,NA,NA,NA
43126,deep,flow.Sequence,1_7_0,NA,NA,completion,7747.521,277007,277006.309,277022.984,284770.505,284771.2,2023-02-12T19:31:22Z,284787.17,Symbol,kielezo,s,kinyume,nderemo,utayari,NA,NA,NA,NULL,NA,NA,NA,NA,NA,NA,NA,NA,NA,NA,NA,NA,NA,NA,NA,NA,NA,NA,NA
43126,task,flow.Sequence,1_7,NA,NA,completion,7747.521,277007,277006.309,277022.984,284770.505,284771.3,2023-02-12T19:31:22Z,284787.17,Symbol,kielezo,s,kinyume,nderemo,utayari,NA,NA,NA,NULL,NA,NA,NA,NA,NA,NA,NA,NA,NA,NA,NA,NA,NA,NA,NA,NA,NA,NA,NA
43126,Deep Question,html.Page,1_8_0_0,NA,NA,form submission,3227.33,284771.4,284770.505,284787.17,288014.5,288014.7,2023-02-12T19:31:25Z,288019.25,Zufall,kikuti,s,kukosekana,uchoraji,leseni,NA,NA,NA,NULL,NA,NA,NA,NA,NA,NA,NA,NA,NA,NA,NA,NA,NA,NA,NA,NA,NA,NA,NA
43126,Save data screen,canvas.Screen,1_8_0_1,NA,NA,timeout,499.99099999998,288016.7,288002.821,288019.25,288502.587,288503,2023-02-12T19:31:25Z,288519.241,Zufall,kikuti,s,kukosekana,uchoraji,leseni,NA,NA,0,NULL,NA,NA,NA,NA,NA,NA,NA,NA,NA,NA,NA,NA,NA,NA,NA,NA,NA,NA,NA
43126,deep,flow.Sequence,1_8_0,NA,NA,completion,3715.417,284771.4,284770.505,284787.17,288502.587,288503.2,2023-02-12T19:31:25Z,288519.241,Zufall,kikuti,s,kukosekana,uchoraji,leseni,NA,NA,NA,NULL,NA,NA,NA,NA,NA,NA,NA,NA,NA,NA,NA,NA,NA,NA,NA,NA,NA,NA,NA
43126,task,flow.Sequence,1_8,NA,NA,completion,3715.417,284771.4,284770.505,284787.17,288502.587,288503.3,2023-02-12T19:31:25Z,288519.241,Zufall,kikuti,s,kukosekana,uchoraji,leseni,NA,NA,NA,NULL,NA,NA,NA,NA,NA,NA,NA,NA,NA,NA,NA,NA,NA,NA,NA,NA,NA,NA,NA
43126,Deep Question,html.Page,1_9_0_0,NA,NA,form submission,4055.1589999985,288503.3,288502.587,288519.241,292574.4,292574.6,2023-02-12T19:31:29Z,292584.506,Auftrag,uagizaji,d,ghanima,kuzingatia,msukani,NA,NA,NA,NULL,NA,NA,NA,NA,NA,NA,NA,NA,NA,NA,NA,NA,NA,NA,NA,NA,NA,NA,NA
43126,Save data screen,canvas.Screen,1_9_0_1,NA,NA,timeout,499.864,292576.6,292567.903,292584.506,293067.704,293068.1,2023-02-12T19:31:30Z,293084.37,Auftrag,uagizaji,d,ghanima,kuzingatia,msukani,NA,NA,0,NULL,NA,NA,NA,NA,NA,NA,NA,NA,NA,NA,NA,NA,NA,NA,NA,NA,NA,NA,NA
43126,deep,flow.Sequence,1_9_0,NA,NA,completion,4548.463,288503.3,288502.587,288519.241,293067.704,293068.3,2023-02-12T19:31:30Z,293084.37,Auftrag,uagizaji,d,ghanima,kuzingatia,msukani,NA,NA,NA,NULL,NA,NA,NA,NA,NA,NA,NA,NA,NA,NA,NA,NA,NA,NA,NA,NA,NA,NA,NA
43126,task,flow.Sequence,1_9,NA,NA,completion,4548.463,288503.3,288502.587,288519.241,293067.704,293068.3,2023-02-12T19:31:30Z,293084.37,Auftrag,uagizaji,d,ghanima,kuzingatia,msukani,NA,NA,NA,NULL,NA,NA,NA,NA,NA,NA,NA,NA,NA,NA,NA,NA,NA,NA,NA,NA,NA,NA,NA
43126,Deep Question,html.Page,1_10_0_0,NA,NA,form submission,19658.13,293068.5,293067.704,293084.37,312742.5,312742.7,2023-02-12T19:31:50Z,312744.283,Konkurrent,mshindani,d,msemaji,mvutaji,kipukusa,yaliyomo,NA,NA,NULL,NA,NA,NA,NA,NA,NA,NA,NA,NA,NA,NA,NA,NA,NA,NA,NA,NA,NA,NA
43126,Save data screen,canvas.Screen,1_10_0_1,NA,NA,timeout,499.93699999998,312745.2,312727.741,312744.283,313227.493,313227.9,2023-02-12T19:31:50Z,313244.22,Konkurrent,mshindani,d,msemaji,mvutaji,kipukusa,NA,NA,0,NULL,NA,NA,NA,NA,NA,NA,NA,NA,NA,NA,NA,NA,NA,NA,NA,NA,NA,NA,NA
43126,deep,flow.Sequence,1_10_0,NA,NA,completion,20143.123,293068.4,293067.704,293084.37,313227.493,313228.1,2023-02-12T19:31:50Z,313244.22,Konkurrent,mshindani,d,msemaji,mvutaji,kipukusa,NA,NA,NA,NULL,NA,NA,NA,NA,NA,NA,NA,NA,NA,NA,NA,NA,NA,NA,NA,NA,NA,NA,NA
43126,task,flow.Sequence,1_10,NA,NA,completion,20143.123,293068.4,293067.704,293084.37,313227.493,313228.2,2023-02-12T19:31:50Z,313244.22,Konkurrent,mshindani,d,msemaji,mvutaji,kipukusa,NA,NA,NA,NULL,NA,NA,NA,NA,NA,NA,NA,NA,NA,NA,NA,NA,NA,NA,NA,NA,NA,NA,NA
43126,Deep Question,html.Page,1_11_0_0,NA,NA,form submission,21486.28,313228.3,313227.493,313244.22,334730.5,334730.7,2023-02-12T19:32:12Z,334736.807,Widerstand,usulubu,s,kusababisha,mwalimu,mwenendo,NA,NA,NA,NULL,NA,NA,NA,NA,NA,NA,NA,NA,NA,NA,NA,NA,NA,NA,NA,NA,NA,NA,NA
43126,Save data screen,canvas.Screen,1_11_0_1,NA,NA,timeout,499.962,334732.7,334720.353,334736.807,335220.15,335220.5,2023-02-12T19:32:12Z,335236.769,Widerstand,usulubu,s,kusababisha,mwalimu,mwenendo,NA,NA,0,NULL,NA,NA,NA,NA,NA,NA,NA,NA,NA,NA,NA,NA,NA,NA,NA,NA,NA,NA,NA
43126,deep,flow.Sequence,1_11_0,NA,NA,completion,21975.93,313228.3,313227.493,313244.22,335220.15,335220.7,2023-02-12T19:32:12Z,335236.769,Widerstand,usulubu,s,kusababisha,mwalimu,mwenendo,NA,NA,NA,NULL,NA,NA,NA,NA,NA,NA,NA,NA,NA,NA,NA,NA,NA,NA,NA,NA,NA,NA,NA
43126,task,flow.Sequence,1_11,NA,NA,completion,21975.93,313228.3,313227.493,313244.22,335220.15,335220.8,2023-02-12T19:32:12Z,335236.769,Widerstand,usulubu,s,kusababisha,mwalimu,mwenendo,NA,NA,NA,NULL,NA,NA,NA,NA,NA,NA,NA,NA,NA,NA,NA,NA,NA,NA,NA,NA,NA,NA,NA
43126,Deep Question,html.Page,1_12_0_0,NA,NA,form submission,13889.430999999,335220.9,335220.15,335236.769,349126.2,349126.5,2023-02-12T19:32:26Z,349131.948,Zuwachs,nyongeza,s,matilaba,udhibiti,hudhurio,nyogemo,NA,NA,NULL,NA,NA,NA,NA,NA,NA,NA,NA,NA,NA,NA,NA,NA,NA,NA,NA,NA,NA,NA
43126,Save data screen,canvas.Screen,1_12_0_1,NA,NA,timeout,499.946,349129,349115.487,349131.948,349615.281,349615.6,2023-02-12T19:32:26Z,349631.894,Zuwachs,nyongeza,s,matilaba,udhibiti,hudhurio,NA,NA,0,NULL,NA,NA,NA,NA,NA,NA,NA,NA,NA,NA,NA,NA,NA,NA,NA,NA,NA,NA,NA
43126,deep,flow.Sequence,1_12_0,NA,NA,completion,14378.512,335220.9,335220.15,335236.769,349615.281,349615.8,2023-02-12T19:32:26Z,349631.894,Zuwachs,nyongeza,s,matilaba,udhibiti,hudhurio,NA,NA,NA,NULL,NA,NA,NA,NA,NA,NA,NA,NA,NA,NA,NA,NA,NA,NA,NA,NA,NA,NA,NA
43126,task,flow.Sequence,1_12,NA,NA,completion,14378.512,335220.9,335220.15,335236.769,349615.281,349615.9,2023-02-12T19:32:26Z,349631.894,Zuwachs,nyongeza,s,matilaba,udhibiti,hudhurio,NA,NA,NA,NULL,NA,NA,NA,NA,NA,NA,NA,NA,NA,NA,NA,NA,NA,NA,NA,NA,NA,NA,NA
43126,Deep Question,html.Page,1_13_0_0,NA,NA,form submission,14010.406000001,349616,349615.281,349631.894,363642.3,363642.6,2023-02-12T19:32:40Z,363643.748,Vorsorge,tahadhari,d,ufafanuzi,makini,mashambani,NA,NA,NA,NULL,NA,NA,NA,NA,NA,NA,NA,NA,NA,NA,NA,NA,NA,NA,NA,NA,NA,NA,NA
43126,Save data screen,canvas.Screen,1_13_0_1,NA,NA,timeout,499.94699999999,363644.7,363627.203,363643.748,364126.914,364127.2,2023-02-12T19:32:41Z,364143.695,Vorsorge,tahadhari,d,ufafanuzi,makini,mashambani,NA,NA,0,NULL,NA,NA,NA,NA,NA,NA,NA,NA,NA,NA,NA,NA,NA,NA,NA,NA,NA,NA,NA
43126,deep,flow.Sequence,1_13_0,NA,NA,completion,14495.02,349616,349615.281,349631.894,364126.914,364127.5,2023-02-12T19:32:41Z,364143.695,Vorsorge,tahadhari,d,ufafanuzi,makini,mashambani,NA,NA,NA,NULL,NA,NA,NA,NA,NA,NA,NA,NA,NA,NA,NA,NA,NA,NA,NA,NA,NA,NA,NA
43126,task,flow.Sequence,1_13,NA,NA,completion,14495.02,349616,349615.281,349631.894,364126.914,364127.7,2023-02-12T19:32:41Z,364143.695,Vorsorge,tahadhari,d,ufafanuzi,makini,mashambani,NA,NA,NA,NULL,NA,NA,NA,NA,NA,NA,NA,NA,NA,NA,NA,NA,NA,NA,NA,NA,NA,NA,NA
43126,Deep Question,html.Page,1_14_0_0,NA,NA,form submission,72226.805,364127.7,364126.914,364143.695,436370.5,436370.8,2023-02-12T19:33:53Z,436378.513,Ausschluss,kutengwa,d,ununuzi,taratibu,madeni,kamati,NA,NA,NULL,NA,NA,NA,NA,NA,NA,NA,NA,NA,NA,NA,NA,NA,NA,NA,NA,NA,NA,NA
43126,Save data screen,canvas.Screen,1_14_0_1,NA,NA,timeout,499.90300000005,436373.2,436361.964,436378.513,436861.735,436862.1,2023-02-12T19:33:54Z,436878.416,Ausschluss,kutengwa,d,ununuzi,taratibu,madeni,NA,NA,0,NULL,NA,NA,NA,NA,NA,NA,NA,NA,NA,NA,NA,NA,NA,NA,NA,NA,NA,NA,NA
43126,deep,flow.Sequence,1_14_0,NA,NA,completion,72718.04,364127.7,364126.914,364143.695,436861.735,436862.3,2023-02-12T19:33:54Z,436878.416,Ausschluss,kutengwa,d,ununuzi,taratibu,madeni,NA,NA,NA,NULL,NA,NA,NA,NA,NA,NA,NA,NA,NA,NA,NA,NA,NA,NA,NA,NA,NA,NA,NA
43126,task,flow.Sequence,1_14,NA,NA,completion,72718.04,364127.7,364126.914,364143.695,436861.735,436862.5,2023-02-12T19:33:54Z,436878.416,Ausschluss,kutengwa,d,ununuzi,taratibu,madeni,NA,NA,NA,NULL,NA,NA,NA,NA,NA,NA,NA,NA,NA,NA,NA,NA,NA,NA,NA,NA,NA,NA,NA
43126,Deep Question,html.Page,1_15_0_0,NA,NA,form submission,27568.084,436862.6,436861.735,436878.416,464446.5,464446.7,2023-02-12T19:34:21Z,464452.526,Gelegenheit,wakati,d,mchanganyiko,kipaumbele,kushuku,NA,NA,NA,NULL,NA,NA,NA,NA,NA,NA,NA,NA,NA,NA,NA,NA,NA,NA,NA,NA,NA,NA,NA
43126,Save data screen,canvas.Screen,1_15_0_1,NA,NA,timeout,499.65899999999,464448.9,464435.837,464452.526,464935.605,464936.1,2023-02-12T19:34:22Z,464952.185,Gelegenheit,wakati,d,mchanganyiko,kipaumbele,kushuku,NA,NA,0,NULL,NA,NA,NA,NA,NA,NA,NA,NA,NA,NA,NA,NA,NA,NA,NA,NA,NA,NA,NA
43126,deep,flow.Sequence,1_15_0,NA,NA,completion,28057.189,436862.6,436861.735,436878.416,464935.605,464936.2,2023-02-12T19:34:22Z,464952.185,Gelegenheit,wakati,d,mchanganyiko,kipaumbele,kushuku,NA,NA,NA,NULL,NA,NA,NA,NA,NA,NA,NA,NA,NA,NA,NA,NA,NA,NA,NA,NA,NA,NA,NA
43126,task,flow.Sequence,1_15,NA,NA,completion,28057.189,436862.6,436861.735,436878.416,464935.605,464936.3,2023-02-12T19:34:22Z,464952.185,Gelegenheit,wakati,d,mchanganyiko,kipaumbele,kushuku,NA,NA,NA,NULL,NA,NA,NA,NA,NA,NA,NA,NA,NA,NA,NA,NA,NA,NA,NA,NA,NA,NA,NA
43126,retrieval block 1 (cued recall),flow.Loop,1,NA,NA,completion,440777.267,24147.099999998,24141.658,24158.338,464935.605,464936.5,2023-02-12T19:34:22Z,464952.185,NA,NA,NA,NA,NA,NA,NA,NA,NA,NULL,NA,NA,NA,NA,NA,NA,NA,NA,NA,NA,NA,NA,NA,NA,NA,NA,NA,NA,NA
43126,Shallow Question,html.Page,2_0_0_0,NA,NA,form submission,13855.815,464936.6,464935.605,464952.185,478808,478808.2,2023-02-12T19:34:36Z,478814.089,Auftrag,uagizaji,d,ghanima,kuzingatia,msukani,msukani,NA,NA,"c(""distractor1"", ""distractor2"", ""distractor3"")",NA,NA,NA,NA,NA,NA,NA,NA,NA,NA,NA,NA,NA,NA,NA,NA,NA,NA,NA
43126,Save data screen,canvas.Screen,2_0_0_1,NA,NA,timeout,499.88700000005,478810.1,478797.589,478814.089,479297.317,479298.2,2023-02-12T19:34:36Z,479313.976,Auftrag,uagizaji,d,ghanima,kuzingatia,msukani,NA,NA,0,"c(""distractor1"", ""distractor2"", ""distractor3"")",NA,NA,NA,NA,NA,NA,NA,NA,NA,NA,NA,NA,NA,NA,NA,NA,NA,NA,NA
43126,shallow,flow.Sequence,2_0_0,NA,NA,completion,14345.132,464936.6,464935.605,464952.185,479297.317,479298.4,2023-02-12T19:34:36Z,479313.976,Auftrag,uagizaji,d,ghanima,kuzingatia,msukani,NA,NA,NA,"c(""distractor1"", ""distractor2"", ""distractor3"")",NA,NA,NA,NA,NA,NA,NA,NA,NA,NA,NA,NA,NA,NA,NA,NA,NA,NA,NA
43126,task,flow.Sequence,2_0,NA,NA,completion,14345.132,464936.6,464935.605,464952.185,479297.317,479298.6,2023-02-12T19:34:36Z,479313.976,Auftrag,uagizaji,d,ghanima,kuzingatia,msukani,NA,NA,NA,"c(""distractor1"", ""distractor2"", ""distractor3"")",NA,NA,NA,NA,NA,NA,NA,NA,NA,NA,NA,NA,NA,NA,NA,NA,NA,NA,NA
43126,Shallow Question,html.Page,2_1_0_0,NA,NA,form submission,5549.1239999977,479298.7,479297.317,479313.976,484863.1,484863.4,2023-02-12T19:34:42Z,484878.876,Polizist,msongora,d,simanzi,mandhari,nidhamu,msongora,NA,NA,"c(""distractor1"", ""distractor2"", ""distractor3"")",NA,NA,NA,NA,NA,NA,NA,NA,NA,NA,NA,NA,NA,NA,NA,NA,NA,NA,NA
43126,Save data screen,canvas.Screen,2_1_0_1,NA,NA,timeout,499.65100000001,484865.2,484862.191,484878.876,485362.046,485362.7,2023-02-12T19:34:42Z,485378.527,Polizist,msongora,d,simanzi,mandhari,nidhamu,NA,NA,1,"c(""distractor1"", ""distractor2"", ""distractor3"")",NA,NA,NA,NA,NA,NA,NA,NA,NA,NA,NA,NA,NA,NA,NA,NA,NA,NA,NA
43126,shallow,flow.Sequence,2_1_0,NA,NA,completion,6048.0699999999,479298.7,479297.317,479313.976,485362.046,485362.9,2023-02-12T19:34:42Z,485378.527,Polizist,msongora,d,simanzi,mandhari,nidhamu,NA,NA,NA,"c(""distractor1"", ""distractor2"", ""distractor3"")",NA,NA,NA,NA,NA,NA,NA,NA,NA,NA,NA,NA,NA,NA,NA,NA,NA,NA,NA
43126,task,flow.Sequence,2_1,NA,NA,completion,6048.0699999999,479298.7,479297.317,479313.976,485362.046,485363.1,2023-02-12T19:34:42Z,485378.527,Polizist,msongora,d,simanzi,mandhari,nidhamu,NA,NA,NA,"c(""distractor1"", ""distractor2"", ""distractor3"")",NA,NA,NA,NA,NA,NA,NA,NA,NA,NA,NA,NA,NA,NA,NA,NA,NA,NA,NA
43126,Shallow Question,html.Page,2_2_0_0,NA,NA,form submission,11918.473,485363.2,485362.046,485378.527,497297,497297.2,2023-02-12T19:34:54Z,497307.917,Schönheit,kirembo,s,mahojiano,msisimko,jitihadi,kirembo,NA,NA,"c(""distractor1"", ""distractor2"", ""distractor3"")",NA,NA,NA,NA,NA,NA,NA,NA,NA,NA,NA,NA,NA,NA,NA,NA,NA,NA,NA
43126,Save data screen,canvas.Screen,2_2_0_1,NA,NA,timeout,499.91399999999,497299,497291.464,497307.917,497791.237,497791.9,2023-02-12T19:34:55Z,497807.831,Schönheit,kirembo,s,mahojiano,msisimko,jitihadi,NA,NA,1,"c(""distractor1"", ""distractor2"", ""distractor3"")",NA,NA,NA,NA,NA,NA,NA,NA,NA,NA,NA,NA,NA,NA,NA,NA,NA,NA,NA
43126,shallow,flow.Sequence,2_2_0,NA,NA,completion,12412.71,485363.1,485362.046,485378.527,497791.237,497792.1,2023-02-12T19:34:55Z,497807.831,Schönheit,kirembo,s,mahojiano,msisimko,jitihadi,NA,NA,NA,"c(""distractor1"", ""distractor2"", ""distractor3"")",NA,NA,NA,NA,NA,NA,NA,NA,NA,NA,NA,NA,NA,NA,NA,NA,NA,NA,NA
43126,task,flow.Sequence,2_2,NA,NA,completion,12412.71,485363.1,485362.046,485378.527,497791.237,497792.2,2023-02-12T19:34:55Z,497807.831,Schönheit,kirembo,s,mahojiano,msisimko,jitihadi,NA,NA,NA,"c(""distractor1"", ""distractor2"", ""distractor3"")",NA,NA,NA,NA,NA,NA,NA,NA,NA,NA,NA,NA,NA,NA,NA,NA,NA,NA,NA
43126,Shallow Question,html.Page,2_3_0_0,NA,NA,form submission,4966.4690000007,497792.3,497791.237,497807.831,502774.3,502774.6,2023-02-12T19:35:00Z,502789.49,Konkurrent,mshindani,d,msemaji,mvutaji,kipukusa,mshindani,NA,NA,"c(""distractor1"", ""distractor2"", ""distractor3"")",NA,NA,NA,NA,NA,NA,NA,NA,NA,NA,NA,NA,NA,NA,NA,NA,NA,NA,NA
43126,Save data screen,canvas.Screen,2_3_0_1,NA,NA,timeout,499.701,502776.3,502772.907,502789.49,503272.572,503273.1,2023-02-12T19:35:00Z,503289.191,Konkurrent,mshindani,d,msemaji,mvutaji,kipukusa,NA,NA,1,"c(""distractor1"", ""distractor2"", ""distractor3"")",NA,NA,NA,NA,NA,NA,NA,NA,NA,NA,NA,NA,NA,NA,NA,NA,NA,NA,NA
43126,shallow,flow.Sequence,2_3_0,NA,NA,completion,5464.741,497792.3,497791.237,497807.831,503272.572,503273.3,2023-02-12T19:35:00Z,503289.191,Konkurrent,mshindani,d,msemaji,mvutaji,kipukusa,NA,NA,NA,"c(""distractor1"", ""distractor2"", ""distractor3"")",NA,NA,NA,NA,NA,NA,NA,NA,NA,NA,NA,NA,NA,NA,NA,NA,NA,NA,NA
43126,task,flow.Sequence,2_3,NA,NA,completion,5464.741,497792.3,497791.237,497807.831,503272.572,503273.4,2023-02-12T19:35:00Z,503289.191,Konkurrent,mshindani,d,msemaji,mvutaji,kipukusa,NA,NA,NA,"c(""distractor1"", ""distractor2"", ""distractor3"")",NA,NA,NA,NA,NA,NA,NA,NA,NA,NA,NA,NA,NA,NA,NA,NA,NA,NA,NA
43126,Shallow Question,html.Page,2_4_0_0,NA,NA,form submission,30390.708999999,503273.5,503272.572,503289.191,533679.9,533680.2,2023-02-12T19:35:30Z,533695.671,Gelegenheit,wakati,d,mchanganyiko,kipaumbele,kushuku,wakati,NA,NA,"c(""distractor1"", ""distractor2"", ""distractor3"")",NA,NA,NA,NA,NA,NA,NA,NA,NA,NA,NA,NA,NA,NA,NA,NA,NA,NA,NA
43126,Save data screen,canvas.Screen,2_4_0_1,NA,NA,timeout,499.799,533682.1,533678.935,533695.671,534178.879,534179.7,2023-02-12T19:35:31Z,534195.47,Gelegenheit,wakati,d,mchanganyiko,kipaumbele,kushuku,NA,NA,1,"c(""distractor1"", ""distractor2"", ""distractor3"")",NA,NA,NA,NA,NA,NA,NA,NA,NA,NA,NA,NA,NA,NA,NA,NA,NA,NA,NA
43126,shallow,flow.Sequence,2_4_0,NA,NA,completion,30889.688,503273.5,503272.572,503289.191,534178.879,534179.9,2023-02-12T19:35:31Z,534195.47,Gelegenheit,wakati,d,mchanganyiko,kipaumbele,kushuku,NA,NA,NA,"c(""distractor1"", ""distractor2"", ""distractor3"")",NA,NA,NA,NA,NA,NA,NA,NA,NA,NA,NA,NA,NA,NA,NA,NA,NA,NA,NA
43126,task,flow.Sequence,2_4,NA,NA,completion,30889.688,503273.5,503272.572,503289.191,534178.879,534180,2023-02-12T19:35:31Z,534195.47,Gelegenheit,wakati,d,mchanganyiko,kipaumbele,kushuku,NA,NA,NA,"c(""distractor1"", ""distractor2"", ""distractor3"")",NA,NA,NA,NA,NA,NA,NA,NA,NA,NA,NA,NA,NA,NA,NA,NA,NA,NA,NA
43126,Shallow Question,html.Page,2_5_0_0,NA,NA,form submission,7498.9299999985,534180.1,534178.879,534195.47,541694.4,541694.7,2023-02-12T19:35:38Z,541709.673,Annäherung,maegesho,s,madahili,kujiamini,mapendekezo,maegesho,NA,NA,"c(""distractor1"", ""distractor2"", ""distractor3"")",NA,NA,NA,NA,NA,NA,NA,NA,NA,NA,NA,NA,NA,NA,NA,NA,NA,NA,NA
43126,Save data screen,canvas.Screen,2_5_0_1,NA,NA,timeout,499.71200000006,541696.6,541692.89,541709.673,542192.861,542193.5,2023-02-12T19:35:39Z,542209.385,Annäherung,maegesho,s,madahili,kujiamini,mapendekezo,NA,NA,1,"c(""distractor1"", ""distractor2"", ""distractor3"")",NA,NA,NA,NA,NA,NA,NA,NA,NA,NA,NA,NA,NA,NA,NA,NA,NA,NA,NA
43126,shallow,flow.Sequence,2_5_0,NA,NA,completion,7997.3910000001,534180.1,534178.879,534195.47,542192.861,542193.7,2023-02-12T19:35:39Z,542209.385,Annäherung,maegesho,s,madahili,kujiamini,mapendekezo,NA,NA,NA,"c(""distractor1"", ""distractor2"", ""distractor3"")",NA,NA,NA,NA,NA,NA,NA,NA,NA,NA,NA,NA,NA,NA,NA,NA,NA,NA,NA
43126,task,flow.Sequence,2_5,NA,NA,completion,7997.3910000001,534180.1,534178.879,534195.47,542192.861,542193.8,2023-02-12T19:35:39Z,542209.385,Annäherung,maegesho,s,madahili,kujiamini,mapendekezo,NA,NA,NA,"c(""distractor1"", ""distractor2"", ""distractor3"")",NA,NA,NA,NA,NA,NA,NA,NA,NA,NA,NA,NA,NA,NA,NA,NA,NA,NA,NA
43126,Shallow Question,html.Page,2_6_0_0,NA,NA,form submission,6502.615,542194,542192.861,542209.385,548712,548712.2,2023-02-12T19:35:45Z,548724.011,Wettbewerb,ushindani,d,mapendezi,kichocheo,ubaguzi,ushindani,NA,NA,"c(""distractor1"", ""distractor2"", ""distractor3"")",NA,NA,NA,NA,NA,NA,NA,NA,NA,NA,NA,NA,NA,NA,NA,NA,NA,NA,NA
43126,Save data screen,canvas.Screen,2_6_0_1,NA,NA,timeout,499.80199999991,548714.1,548707.187,548724.011,549207.129,549207.9,2023-02-12T19:35:46Z,549223.813,Wettbewerb,ushindani,d,mapendezi,kichocheo,ubaguzi,NA,NA,1,"c(""distractor1"", ""distractor2"", ""distractor3"")",NA,NA,NA,NA,NA,NA,NA,NA,NA,NA,NA,NA,NA,NA,NA,NA,NA,NA,NA
43126,shallow,flow.Sequence,2_6_0,NA,NA,completion,6997.7439999999,542194,542192.861,542209.385,549207.129,549208.2,2023-02-12T19:35:46Z,549223.813,Wettbewerb,ushindani,d,mapendezi,kichocheo,ubaguzi,NA,NA,NA,"c(""distractor1"", ""distractor2"", ""distractor3"")",NA,NA,NA,NA,NA,NA,NA,NA,NA,NA,NA,NA,NA,NA,NA,NA,NA,NA,NA
43126,task,flow.Sequence,2_6,NA,NA,completion,6997.7439999999,542193.9,542192.861,542209.385,549207.129,549208.3,2023-02-12T19:35:46Z,549223.813,Wettbewerb,ushindani,d,mapendezi,kichocheo,ubaguzi,NA,NA,NA,"c(""distractor1"", ""distractor2"", ""distractor3"")",NA,NA,NA,NA,NA,NA,NA,NA,NA,NA,NA,NA,NA,NA,NA,NA,NA,NA,NA
43126,Shallow Question,html.Page,2_7_0_0,NA,NA,form submission,11729.786999998,549208.4,549207.129,549223.813,560953.6,560953.8,2023-02-12T19:35:58Z,560969.861,Sympathie,mapendano,s,dhamiria,fungamano,maazimio,dhamiria,NA,NA,"c(""distractor1"", ""distractor2"", ""distractor3"")",NA,NA,NA,NA,NA,NA,NA,NA,NA,NA,NA,NA,NA,NA,NA,NA,NA,NA,NA
43126,Save data screen,canvas.Screen,2_7_0_1,NA,NA,timeout,499.68199999991,560955.7,560953.032,560969.861,561453.029,561453.7,2023-02-12T19:35:58Z,561469.543,Sympathie,mapendano,s,dhamiria,fungamano,maazimio,NA,NA,0,"c(""distractor1"", ""distractor2"", ""distractor3"")",NA,NA,NA,NA,NA,NA,NA,NA,NA,NA,NA,NA,NA,NA,NA,NA,NA,NA,NA
43126,shallow,flow.Sequence,2_7_0,NA,NA,completion,12229.216,549208.4,549207.129,549223.813,561453.029,561453.9,2023-02-12T19:35:58Z,561469.543,Sympathie,mapendano,s,dhamiria,fungamano,maazimio,NA,NA,NA,"c(""distractor1"", ""distractor2"", ""distractor3"")",NA,NA,NA,NA,NA,NA,NA,NA,NA,NA,NA,NA,NA,NA,NA,NA,NA,NA,NA
43126,task,flow.Sequence,2_7,NA,NA,completion,12229.216,549208.4,549207.129,549223.813,561453.029,561454.1,2023-02-12T19:35:58Z,561469.543,Sympathie,mapendano,s,dhamiria,fungamano,maazimio,NA,NA,NA,"c(""distractor1"", ""distractor2"", ""distractor3"")",NA,NA,NA,NA,NA,NA,NA,NA,NA,NA,NA,NA,NA,NA,NA,NA,NA,NA,NA
43126,Shallow Question,html.Page,2_8_0_0,NA,NA,form submission,4978.6569999993,561454.2,561453.029,561469.543,566448.2,566448.4,2023-02-12T19:36:03Z,566451.193,Symbol,kielezo,s,kinyume,nderemo,utayari,kielezo,NA,NA,"c(""distractor1"", ""distractor2"", ""distractor3"")",NA,NA,NA,NA,NA,NA,NA,NA,NA,NA,NA,NA,NA,NA,NA,NA,NA,NA,NA
43126,Save data screen,canvas.Screen,2_8_0_1,NA,NA,timeout,499.96799999999,566450.2,566434.734,566451.193,566934.508,566935.1,2023-02-12T19:36:04Z,566951.161,Symbol,kielezo,s,kinyume,nderemo,utayari,NA,NA,1,"c(""distractor1"", ""distractor2"", ""distractor3"")",NA,NA,NA,NA,NA,NA,NA,NA,NA,NA,NA,NA,NA,NA,NA,NA,NA,NA,NA
43126,shallow,flow.Sequence,2_8_0,NA,NA,completion,5464.9650000001,561454.2,561453.029,561469.543,566934.508,566935.3,2023-02-12T19:36:04Z,566951.161,Symbol,kielezo,s,kinyume,nderemo,utayari,NA,NA,NA,"c(""distractor1"", ""distractor2"", ""distractor3"")",NA,NA,NA,NA,NA,NA,NA,NA,NA,NA,NA,NA,NA,NA,NA,NA,NA,NA,NA
43126,task,flow.Sequence,2_8,NA,NA,completion,5464.9650000001,561454.2,561453.029,561469.543,566934.508,566935.4,2023-02-12T19:36:04Z,566951.161,Symbol,kielezo,s,kinyume,nderemo,utayari,NA,NA,NA,"c(""distractor1"", ""distractor2"", ""distractor3"")",NA,NA,NA,NA,NA,NA,NA,NA,NA,NA,NA,NA,NA,NA,NA,NA,NA,NA,NA
43126,Shallow Question,html.Page,2_9_0_0,NA,NA,form submission,14451.038999999,566935.7,566934.508,566951.161,581402.2,581402.4,2023-02-12T19:36:18Z,581412.955,Beweis,ushahidi,d,marudio,kizuizi,mtendaji,mtendaji,NA,NA,"c(""distractor1"", ""distractor2"", ""distractor3"")",NA,NA,NA,NA,NA,NA,NA,NA,NA,NA,NA,NA,NA,NA,NA,NA,NA,NA,NA
43126,Save data screen,canvas.Screen,2_9_0_1,NA,NA,timeout,499.84900000005,581404.3,581396.334,581412.955,581896.057,581896.7,2023-02-12T19:36:19Z,581912.804,Beweis,ushahidi,d,marudio,kizuizi,mtendaji,NA,NA,0,"c(""distractor1"", ""distractor2"", ""distractor3"")",NA,NA,NA,NA,NA,NA,NA,NA,NA,NA,NA,NA,NA,NA,NA,NA,NA,NA,NA
43126,shallow,flow.Sequence,2_9_0,NA,NA,completion,14944.896,566935.7,566934.508,566951.161,581896.057,581896.9,2023-02-12T19:36:19Z,581912.804,Beweis,ushahidi,d,marudio,kizuizi,mtendaji,NA,NA,NA,"c(""distractor1"", ""distractor2"", ""distractor3"")",NA,NA,NA,NA,NA,NA,NA,NA,NA,NA,NA,NA,NA,NA,NA,NA,NA,NA,NA
43126,task,flow.Sequence,2_9,NA,NA,completion,14944.896,566935.5,566934.508,566951.161,581896.057,581897,2023-02-12T19:36:19Z,581912.804,Beweis,ushahidi,d,marudio,kizuizi,mtendaji,NA,NA,NA,"c(""distractor1"", ""distractor2"", ""distractor3"")",NA,NA,NA,NA,NA,NA,NA,NA,NA,NA,NA,NA,NA,NA,NA,NA,NA,NA,NA
43126,Shallow Question,html.Page,2_10_0_0,NA,NA,form submission,5010.5959999985,581897.1,581896.057,581912.804,586923.4,586923.7,2023-02-12T19:36:24Z,586927.618,Zuwachs,nyongeza,s,matilaba,udhibiti,hudhurio,nyongeza,NA,NA,"c(""distractor1"", ""distractor2"", ""distractor3"")",NA,NA,NA,NA,NA,NA,NA,NA,NA,NA,NA,NA,NA,NA,NA,NA,NA,NA,NA
43126,Save data screen,canvas.Screen,2_10_0_1,NA,NA,timeout,499.97100000002,586925.6,586911.144,586927.618,587410.901,587411.3,2023-02-12T19:36:24Z,587427.589,Zuwachs,nyongeza,s,matilaba,udhibiti,hudhurio,NA,NA,1,"c(""distractor1"", ""distractor2"", ""distractor3"")",NA,NA,NA,NA,NA,NA,NA,NA,NA,NA,NA,NA,NA,NA,NA,NA,NA,NA,NA
43126,shallow,flow.Sequence,2_10_0,NA,NA,completion,5498.097,581897.1,581896.057,581912.804,587410.901,587411.4,2023-02-12T19:36:24Z,587427.589,Zuwachs,nyongeza,s,matilaba,udhibiti,hudhurio,NA,NA,NA,"c(""distractor1"", ""distractor2"", ""distractor3"")",NA,NA,NA,NA,NA,NA,NA,NA,NA,NA,NA,NA,NA,NA,NA,NA,NA,NA,NA
43126,task,flow.Sequence,2_10,NA,NA,completion,5498.097,581897.1,581896.057,581912.804,587410.901,587411.6,2023-02-12T19:36:24Z,587427.589,Zuwachs,nyongeza,s,matilaba,udhibiti,hudhurio,NA,NA,NA,"c(""distractor1"", ""distractor2"", ""distractor3"")",NA,NA,NA,NA,NA,NA,NA,NA,NA,NA,NA,NA,NA,NA,NA,NA,NA,NA,NA
43126,Shallow Question,html.Page,2_11_0_0,NA,NA,form submission,9987.0109999977,587411.8,587410.901,587427.589,597414.6,597414.9,2023-02-12T19:36:34Z,597424.275,Verstand,ufahamivu,s,shakawa,hadhari,mhandisi,hadhari,NA,NA,"c(""distractor1"", ""distractor2"", ""distractor3"")",NA,NA,NA,NA,NA,NA,NA,NA,NA,NA,NA,NA,NA,NA,NA,NA,NA,NA,NA
43126,Save data screen,canvas.Screen,2_11_0_1,NA,NA,timeout,499.76099999994,597416.8,597407.607,597424.275,597907.247,597907.9,2023-02-12T19:36:35Z,597924.036,Verstand,ufahamivu,s,shakawa,hadhari,mhandisi,NA,NA,0,"c(""distractor1"", ""distractor2"", ""distractor3"")",NA,NA,NA,NA,NA,NA,NA,NA,NA,NA,NA,NA,NA,NA,NA,NA,NA,NA,NA
43126,shallow,flow.Sequence,2_11_0,NA,NA,completion,10479.658,587411.7,587410.901,587427.589,597907.247,597908,2023-02-12T19:36:35Z,597924.036,Verstand,ufahamivu,s,shakawa,hadhari,mhandisi,NA,NA,NA,"c(""distractor1"", ""distractor2"", ""distractor3"")",NA,NA,NA,NA,NA,NA,NA,NA,NA,NA,NA,NA,NA,NA,NA,NA,NA,NA,NA
43126,task,flow.Sequence,2_11,NA,NA,completion,10479.658,587411.7,587410.901,587427.589,597907.247,597908.2,2023-02-12T19:36:35Z,597924.036,Verstand,ufahamivu,s,shakawa,hadhari,mhandisi,NA,NA,NA,"c(""distractor1"", ""distractor2"", ""distractor3"")",NA,NA,NA,NA,NA,NA,NA,NA,NA,NA,NA,NA,NA,NA,NA,NA,NA,NA,NA
43126,Shallow Question,html.Page,2_12_0_0,NA,NA,form submission,11399.764000001,597908.4,597907.247,597924.036,609323.8,609324.1,2023-02-12T19:36:46Z,609353.51,Vorsorge,tahadhari,d,ufafanuzi,makini,mashambani,ufafanuzi,NA,NA,"c(""distractor1"", ""distractor2"", ""distractor3"")",NA,NA,NA,NA,NA,NA,NA,NA,NA,NA,NA,NA,NA,NA,NA,NA,NA,NA,NA
43126,Save data screen,canvas.Screen,2_12_0_1,NA,NA,timeout,499.82900000003,609326,609336.849,609353.51,609836.598,609837.4,2023-02-12T19:36:47Z,609853.339,Vorsorge,tahadhari,d,ufafanuzi,makini,mashambani,NA,NA,0,"c(""distractor1"", ""distractor2"", ""distractor3"")",NA,NA,NA,NA,NA,NA,NA,NA,NA,NA,NA,NA,NA,NA,NA,NA,NA,NA,NA
43126,shallow,flow.Sequence,2_12_0,NA,NA,completion,11912.562,597908.3,597907.247,597924.036,609836.598,609837.6,2023-02-12T19:36:47Z,609853.339,Vorsorge,tahadhari,d,ufafanuzi,makini,mashambani,NA,NA,NA,"c(""distractor1"", ""distractor2"", ""distractor3"")",NA,NA,NA,NA,NA,NA,NA,NA,NA,NA,NA,NA,NA,NA,NA,NA,NA,NA,NA
43126,task,flow.Sequence,2_12,NA,NA,completion,11912.562,597908.3,597907.247,597924.036,609836.598,609838,2023-02-12T19:36:47Z,609853.339,Vorsorge,tahadhari,d,ufafanuzi,makini,mashambani,NA,NA,NA,"c(""distractor1"", ""distractor2"", ""distractor3"")",NA,NA,NA,NA,NA,NA,NA,NA,NA,NA,NA,NA,NA,NA,NA,NA,NA,NA,NA
43126,Shallow Question,html.Page,2_13_0_0,NA,NA,form submission,7957.661,609838.2,609836.598,609853.339,617811,617811.4,2023-02-12T19:36:55Z,617817.191,Zufall,kikuti,s,kukosekana,uchoraji,leseni,kikuti,NA,NA,"c(""distractor1"", ""distractor2"", ""distractor3"")",NA,NA,NA,NA,NA,NA,NA,NA,NA,NA,NA,NA,NA,NA,NA,NA,NA,NA,NA
43126,Save data screen,canvas.Screen,2_13_0_1,NA,NA,timeout,499.82799999998,617813.3,617800.736,617817.191,618300.394,618301,2023-02-12T19:36:55Z,618317.019,Zufall,kikuti,s,kukosekana,uchoraji,leseni,NA,NA,1,"c(""distractor1"", ""distractor2"", ""distractor3"")",NA,NA,NA,NA,NA,NA,NA,NA,NA,NA,NA,NA,NA,NA,NA,NA,NA,NA,NA
43126,shallow,flow.Sequence,2_13_0,NA,NA,completion,8447.0549999999,609838.2,609836.598,609853.339,618300.394,618301.2,2023-02-12T19:36:55Z,618317.019,Zufall,kikuti,s,kukosekana,uchoraji,leseni,NA,NA,NA,"c(""distractor1"", ""distractor2"", ""distractor3"")",NA,NA,NA,NA,NA,NA,NA,NA,NA,NA,NA,NA,NA,NA,NA,NA,NA,NA,NA
43126,task,flow.Sequence,2_13,NA,NA,completion,8447.0549999999,609838.2,609836.598,609853.339,618300.394,618301.5,2023-02-12T19:36:55Z,618317.019,Zufall,kikuti,s,kukosekana,uchoraji,leseni,NA,NA,NA,"c(""distractor1"", ""distractor2"", ""distractor3"")",NA,NA,NA,NA,NA,NA,NA,NA,NA,NA,NA,NA,NA,NA,NA,NA,NA,NA,NA
43126,Shallow Question,html.Page,2_14_0_0,NA,NA,form submission,8856.7810000008,618301.6,618300.394,618317.019,627173.8,627173.9,2023-02-12T19:37:04Z,627180.713,Widerstand,usulubu,s,kusababisha,mwalimu,mwenendo,usulubu,NA,NA,"c(""distractor1"", ""distractor2"", ""distractor3"")",NA,NA,NA,NA,NA,NA,NA,NA,NA,NA,NA,NA,NA,NA,NA,NA,NA,NA,NA
43126,Save data screen,canvas.Screen,2_14_0_1,NA,NA,timeout,499.82900000003,627175.9,627164.208,627180.713,627663.892,627664.5,2023-02-12T19:37:04Z,627680.542,Widerstand,usulubu,s,kusababisha,mwalimu,mwenendo,NA,NA,1,"c(""distractor1"", ""distractor2"", ""distractor3"")",NA,NA,NA,NA,NA,NA,NA,NA,NA,NA,NA,NA,NA,NA,NA,NA,NA,NA,NA
43126,shallow,flow.Sequence,2_14_0,NA,NA,completion,9346.873,618301.5,618300.394,618317.019,627663.892,627664.7,2023-02-12T19:37:04Z,627680.542,Widerstand,usulubu,s,kusababisha,mwalimu,mwenendo,NA,NA,NA,"c(""distractor1"", ""distractor2"", ""distractor3"")",NA,NA,NA,NA,NA,NA,NA,NA,NA,NA,NA,NA,NA,NA,NA,NA,NA,NA,NA
43126,task,flow.Sequence,2_14,NA,NA,completion,9346.873,618301.5,618300.394,618317.019,627663.892,627664.8,2023-02-12T19:37:04Z,627680.542,Widerstand,usulubu,s,kusababisha,mwalimu,mwenendo,NA,NA,NA,"c(""distractor1"", ""distractor2"", ""distractor3"")",NA,NA,NA,NA,NA,NA,NA,NA,NA,NA,NA,NA,NA,NA,NA,NA,NA,NA,NA
43126,Shallow Question,html.Page,2_15_0_0,NA,NA,form submission,9240.6579999991991,627665,627663.892,627680.542,636921.2,636921.5,2023-02-12T19:37:14Z,636927.403,Ausschluss,kutengwa,d,ununuzi,taratibu,madeni,kutengwa,NA,NA,"c(""distractor1"", ""distractor2"", ""distractor3"")",NA,NA,NA,NA,NA,NA,NA,NA,NA,NA,NA,NA,NA,NA,NA,NA,NA,NA,NA
43126,Save data screen,canvas.Screen,2_15_0_1,NA,NA,timeout,499.96099999989,636923.4,636910.857,636927.403,637410.688,637411.1,2023-02-12T19:37:14Z,637427.364,Ausschluss,kutengwa,d,ununuzi,taratibu,madeni,NA,NA,1,"c(""distractor1"", ""distractor2"", ""distractor3"")",NA,NA,NA,NA,NA,NA,NA,NA,NA,NA,NA,NA,NA,NA,NA,NA,NA,NA,NA
43126,shallow,flow.Sequence,2_15_0,NA,NA,completion,9730.1459999999,627665,627663.892,627680.542,637410.688,637411.3,2023-02-12T19:37:14Z,637427.364,Ausschluss,kutengwa,d,ununuzi,taratibu,madeni,NA,NA,NA,"c(""distractor1"", ""distractor2"", ""distractor3"")",NA,NA,NA,NA,NA,NA,NA,NA,NA,NA,NA,NA,NA,NA,NA,NA,NA,NA,NA
43126,task,flow.Sequence,2_15,NA,NA,completion,9730.1459999999,627665,627663.892,627680.542,637410.688,637411.4,2023-02-12T19:37:14Z,637427.364,Ausschluss,kutengwa,d,ununuzi,taratibu,madeni,NA,NA,NA,"c(""distractor1"", ""distractor2"", ""distractor3"")",NA,NA,NA,NA,NA,NA,NA,NA,NA,NA,NA,NA,NA,NA,NA,NA,NA,NA,NA
43126,retrieval block 2 (multiple choice),flow.Loop,2,NA,NA,completion,172458.503,464936.6,464935.605,464952.185,637410.688,637411.6,2023-02-12T19:37:14Z,637427.364,NA,NA,NA,NA,NA,NA,NA,NA,NA,"c(""distractor1"", ""distractor2"", ""distractor3"")",NA,NA,NA,NA,NA,NA,NA,NA,NA,NA,NA,NA,NA,NA,NA,NA,NA,NA,NA
43126,End,canvas.Screen,3,NA,keypress(Space),response,1811.7359999978,637411.6,637410.688,637427.364,639239.1,639240,2023-02-12T19:37:16Z,639243.398,NA,NA,NA,NA,NA,NA,NA,NA,NA,NULL,NA,NA,NA,NA,NA,NA,NA,NA,NA,NA,NA,NA,NA,NA,NA,NA,NA,NA,NA
43126,root,flow.Sequence,NA,NA,NA,completion,636590.145,2586.8999999985,2598.968,2648.955,639239.1,639240.2,2023-02-12T19:37:16Z,639243.398,NA,NA,NA,NA,NA,NA,NA,NA,NA,NULL,NA,NA,NA,NA,NA,NA,NA,NA,NA,NA,NA,NA,NA,NA,NA,NA,NA,NA,NA
