observation,sender,sender_type,sender_id,response,response_action,ended_on,duration,time_run,time_render,time_show,time_end,time_commit,timestamp,time_switch,distractors,german,swahili,enc,distractor1,distractor2,distractor3,response_2,x,correct,x_2,url_vp,url_sess,meta_labjs_version,meta_location,meta_user_agent,meta_platform,meta_language,meta_locale,meta_time_zone,meta_timezone_offset,meta_screen_width,meta_screen_height,meta_scroll_width,meta_scroll_height,meta_window_inner_width,meta_window_inner_height,meta_device_pixel_ratio,meta_labjs_build_flavor,meta_labjs_build_commit
7b792,Introduction general,canvas.Screen,0,weiter,keypress(q),response,87734.159,133.29999999981,76.51,134.841,87869,87880.7,2023-01-20T18:49:15Z,87886.461,NULL,NA,NA,NA,NA,NA,NA,NA,NA,NA,NA,109,1,20.2.4,https://neurocog.fernuni.ch/studies/vweber/encoding_immediate/index.html?vp=109&sess=1,"Mozilla/5.0 (Macintosh; Intel Mac OS X 10_15_7) AppleWebKit/537.36 (KHTML, like Gecko) Chrome/109.0.0.0 Safari/537.36",MacIntel,de-DE,de,Europe/Zurich,-60,1728,1117,1728,921,1728,969,2,production,f5b4a49f956347addd546a832a3327688c2c0fef
7b792,Introduction practice,canvas.Screen,1_0,NA,keypress(Space),response,525.23900000019,87881.1,87869.795,87886.461,88411.7,88419.2,2023-01-20T18:49:16Z,88426.383,NULL,NA,NA,NA,NA,NA,NA,NA,NA,NA,NA,NA,NA,NA,NA,NA,NA,NA,NA,NA,NA,NA,NA,NA,NA,NA,NA,NA,NA,NA
7b792,Deep Question,html.Page,1_1_0_0_0,NA,NA,form submission,15937.417,88419.8,88418.05,88426.383,104363.8,104364.2,2023-01-20T18:49:32Z,104367.798,"c(""distractor1"", ""distractor2"", ""distractor3"")",Qualität,mtindo,d,NA,NA,NA,j,NA,NA,NA,NA,NA,NA,NA,NA,NA,NA,NA,NA,NA,NA,NA,NA,NA,NA,NA,NA,NA,NA
7b792,"""Richtig""-Screen",canvas.Screen,1_1_0_0_1,NA,NA,skipped,NA,104365.5,NA,NA,104363.8,104365.6,2023-01-20T18:49:32Z,104367.798,"c(""distractor1"", ""distractor2"", ""distractor3"")",Qualität,mtindo,d,NA,NA,NA,NA,NA,NA,NA,NA,NA,NA,NA,NA,NA,NA,NA,NA,NA,NA,NA,NA,NA,NA,NA,NA,NA,NA
7b792,"""Falsch""-Screen",canvas.Screen,1_1_0_0_2,NA,NA,timeout,4999.8,104366.2,104359.465,104367.798,109359.265,109364.5,2023-01-20T18:49:37Z,109367.598,"c(""distractor1"", ""distractor2"", ""distractor3"")",Qualität,mtindo,d,NA,NA,NA,NA,NA,0,NA,NA,NA,NA,NA,NA,NA,NA,NA,NA,NA,NA,NA,NA,NA,NA,NA,NA,NA,NA
7b792,deep,flow.Sequence,1_1_0_0,NA,NA,completion,20932.882,88419.6,88418.05,88426.383,109359.265,109365.1,2023-01-20T18:49:37Z,109367.598,"c(""distractor1"", ""distractor2"", ""distractor3"")",Qualität,mtindo,d,NA,NA,NA,NA,NA,NA,NA,NA,NA,NA,NA,NA,NA,NA,NA,NA,NA,NA,NA,NA,NA,NA,NA,NA,NA,NA
7b792,shallow,flow.Sequence,1_1_0_1,NA,NA,skipped,NA,109365.2,NA,NA,109359.265,109365.3,2023-01-20T18:49:37Z,109367.598,"c(""distractor1"", ""distractor2"", ""distractor3"")",Qualität,mtindo,d,NA,NA,NA,NA,NA,NA,NA,NA,NA,NA,NA,NA,NA,NA,NA,NA,NA,NA,NA,NA,NA,NA,NA,NA,NA,NA
7b792,task,flow.Sequence,1_1_0,NA,NA,completion,20932.882,88419.5,88418.05,88426.383,109359.265,109365.4,2023-01-20T18:49:37Z,109367.598,"c(""distractor1"", ""distractor2"", ""distractor3"")",Qualität,mtindo,d,NA,NA,NA,NA,NA,NA,NA,NA,NA,NA,NA,NA,NA,NA,NA,NA,NA,NA,NA,NA,NA,NA,NA,NA,NA,NA
7b792,Deep Question,html.Page,1_1_1_0_0,NA,NA,form submission,4049.2019999998,109365.9,109359.265,109367.598,113416.8,113417.2,2023-01-20T18:49:41Z,113421.994,"c(""distractor1"", ""distractor2"", ""distractor3"")",Gesundheit,salama,d,NA,NA,NA,i,NA,NA,NA,NA,NA,NA,NA,NA,NA,NA,NA,NA,NA,NA,NA,NA,NA,NA,NA,NA,NA,NA
7b792,"""Richtig""-Screen",canvas.Screen,1_1_1_0_1,NA,NA,skipped,NA,113419.6,NA,NA,113416.8,113419.7,2023-01-20T18:49:41Z,113421.994,"c(""distractor1"", ""distractor2"", ""distractor3"")",Gesundheit,salama,d,NA,NA,NA,NA,NA,NA,NA,NA,NA,NA,NA,NA,NA,NA,NA,NA,NA,NA,NA,NA,NA,NA,NA,NA,NA,NA
7b792,"""Falsch""-Screen",canvas.Screen,1_1_1_0_2,NA,NA,timeout,4999.8,113420.3,113413.661,113421.994,118413.461,118415,2023-01-20T18:49:46Z,118421.794,"c(""distractor1"", ""distractor2"", ""distractor3"")",Gesundheit,salama,d,NA,NA,NA,NA,NA,0,NA,NA,NA,NA,NA,NA,NA,NA,NA,NA,NA,NA,NA,NA,NA,NA,NA,NA,NA,NA
7b792,deep,flow.Sequence,1_1_1_0,NA,NA,completion,9045.863,109365.7,109359.265,109367.598,118413.461,118415.3,2023-01-20T18:49:46Z,118421.794,"c(""distractor1"", ""distractor2"", ""distractor3"")",Gesundheit,salama,d,NA,NA,NA,NA,NA,NA,NA,NA,NA,NA,NA,NA,NA,NA,NA,NA,NA,NA,NA,NA,NA,NA,NA,NA,NA,NA
7b792,shallow,flow.Sequence,1_1_1_1,NA,NA,skipped,NA,118415.4,NA,NA,118413.461,118415.5,2023-01-20T18:49:46Z,118421.794,"c(""distractor1"", ""distractor2"", ""distractor3"")",Gesundheit,salama,d,NA,NA,NA,NA,NA,NA,NA,NA,NA,NA,NA,NA,NA,NA,NA,NA,NA,NA,NA,NA,NA,NA,NA,NA,NA,NA
7b792,task,flow.Sequence,1_1_1,NA,NA,completion,9045.863,109365.7,109359.265,109367.598,118413.461,118415.6,2023-01-20T18:49:46Z,118421.794,"c(""distractor1"", ""distractor2"", ""distractor3"")",Gesundheit,salama,d,NA,NA,NA,NA,NA,NA,NA,NA,NA,NA,NA,NA,NA,NA,NA,NA,NA,NA,NA,NA,NA,NA,NA,NA,NA,NA
7b792,Deep Question,html.Page,1_1_2_0_0,NA,NA,form submission,6461.6060000004,118415.8,118413.461,118421.794,124883.4,124884,2023-01-20T18:49:52Z,124892.924,"c(""distractor1"", ""distractor2"", ""distractor3"")",Schatten,kivuli,d,NA,NA,NA,w,NA,NA,NA,NA,NA,NA,NA,NA,NA,NA,NA,NA,NA,NA,NA,NA,NA,NA,NA,NA,NA,NA
7b792,"""Richtig""-Screen",canvas.Screen,1_1_2_0_1,NA,NA,skipped,NA,124887.5,NA,NA,124883.4,124887.6,2023-01-20T18:49:52Z,124892.924,"c(""distractor1"", ""distractor2"", ""distractor3"")",Schatten,kivuli,d,NA,NA,NA,NA,NA,NA,NA,NA,NA,NA,NA,NA,NA,NA,NA,NA,NA,NA,NA,NA,NA,NA,NA,NA,NA,NA
7b792,"""Falsch""-Screen",canvas.Screen,1_1_2_0_2,NA,NA,timeout,4999.8,124888.3,124876.258,124892.924,129884.391,129886.6,2023-01-20T18:49:57Z,129892.724,"c(""distractor1"", ""distractor2"", ""distractor3"")",Schatten,kivuli,d,NA,NA,NA,NA,NA,0,NA,NA,NA,NA,NA,NA,NA,NA,NA,NA,NA,NA,NA,NA,NA,NA,NA,NA,NA,NA
7b792,deep,flow.Sequence,1_1_2_0,NA,NA,completion,11462.597,118415.7,118413.461,118421.794,129884.391,129887.1,2023-01-20T18:49:57Z,129892.724,"c(""distractor1"", ""distractor2"", ""distractor3"")",Schatten,kivuli,d,NA,NA,NA,NA,NA,NA,NA,NA,NA,NA,NA,NA,NA,NA,NA,NA,NA,NA,NA,NA,NA,NA,NA,NA,NA,NA
7b792,shallow,flow.Sequence,1_1_2_1,NA,NA,skipped,NA,129887.3,NA,NA,129884.391,129887.5,2023-01-20T18:49:57Z,129892.724,"c(""distractor1"", ""distractor2"", ""distractor3"")",Schatten,kivuli,d,NA,NA,NA,NA,NA,NA,NA,NA,NA,NA,NA,NA,NA,NA,NA,NA,NA,NA,NA,NA,NA,NA,NA,NA,NA,NA
7b792,task,flow.Sequence,1_1_2,NA,NA,completion,11462.597,118415.7,118413.461,118421.794,129884.391,129887.6,2023-01-20T18:49:57Z,129892.724,"c(""distractor1"", ""distractor2"", ""distractor3"")",Schatten,kivuli,d,NA,NA,NA,NA,NA,NA,NA,NA,NA,NA,NA,NA,NA,NA,NA,NA,NA,NA,NA,NA,NA,NA,NA,NA,NA,NA
7b792,deep,flow.Sequence,1_1_3_0,NA,NA,skipped,NA,129887.7,NA,NA,129884.391,129887.8,2023-01-20T18:49:57Z,129892.724,"c(""distractor1"", ""distractor2"", ""distractor3"")",Kritik,lawama,s,dereva,nafasi,mawazo,NA,NA,NA,NA,NA,NA,NA,NA,NA,NA,NA,NA,NA,NA,NA,NA,NA,NA,NA,NA,NA,NA,NA
7b792,Shallow Question,html.Page,1_1_3_1_0,NA,NA,form submission,6377.4760000002,129887.9,129884.391,129892.724,136270.2,136270.7,2023-01-20T18:50:04Z,136280.355,"c(""distractor1"", ""distractor2"", ""distractor3"")",Kritik,lawama,s,dereva,nafasi,mawazo,dereva,NA,NA,NA,NA,NA,NA,NA,NA,NA,NA,NA,NA,NA,NA,NA,NA,NA,NA,NA,NA,NA,NA
7b792,"""Richtig""-Screen",canvas.Screen,1_1_3_1_1,NA,NA,skipped,NA,136274,NA,NA,136270.2,136274.2,2023-01-20T18:50:04Z,136280.355,"c(""distractor1"", ""distractor2"", ""distractor3"")",Kritik,lawama,s,dereva,nafasi,mawazo,NA,NA,NA,NA,NA,NA,NA,NA,NA,NA,NA,NA,NA,NA,NA,NA,NA,NA,NA,NA,NA,NA,NA
7b792,"""Falsch""-Screen",canvas.Screen,1_1_3_1_2,NA,NA,timeout,4999.8,136275.2,136263.689,136280.355,141271.822,141274.1,2023-01-20T18:50:09Z,141280.155,"c(""distractor1"", ""distractor2"", ""distractor3"")",Kritik,lawama,s,dereva,nafasi,mawazo,NA,NA,0,NA,NA,NA,NA,NA,NA,NA,NA,NA,NA,NA,NA,NA,NA,NA,NA,NA,NA,NA,NA
7b792,shallow,flow.Sequence,1_1_3_1,NA,NA,completion,11379.098,129887.9,129884.391,129892.724,141271.822,141274.6,2023-01-20T18:50:09Z,141280.155,"c(""distractor1"", ""distractor2"", ""distractor3"")",Kritik,lawama,s,dereva,nafasi,mawazo,NA,NA,NA,NA,NA,NA,NA,NA,NA,NA,NA,NA,NA,NA,NA,NA,NA,NA,NA,NA,NA,NA,NA
7b792,task,flow.Sequence,1_1_3,NA,NA,completion,11379.098,129887.6,129884.391,129892.724,141271.822,141274.8,2023-01-20T18:50:09Z,141280.155,"c(""distractor1"", ""distractor2"", ""distractor3"")",Kritik,lawama,s,dereva,nafasi,mawazo,NA,NA,NA,NA,NA,NA,NA,NA,NA,NA,NA,NA,NA,NA,NA,NA,NA,NA,NA,NA,NA,NA,NA
7b792,deep,flow.Sequence,1_1_4_0,NA,NA,skipped,NA,141275.1,NA,NA,141271.822,141275.1,2023-01-20T18:50:09Z,141280.155,"c(""distractor1"", ""distractor2"", ""distractor3"")",Rückhalt,msaada,s,muhula,auwali,kiwimbe,NA,NA,NA,NA,NA,NA,NA,NA,NA,NA,NA,NA,NA,NA,NA,NA,NA,NA,NA,NA,NA,NA,NA
7b792,Shallow Question,html.Page,1_1_4_1_0,NA,NA,form submission,3179.5450000002,141275.3,141271.822,141280.155,144459.7,144460.7,2023-01-20T18:50:12Z,144467.919,"c(""distractor1"", ""distractor2"", ""distractor3"")",Rückhalt,msaada,s,muhula,auwali,kiwimbe,auwali,NA,NA,NA,NA,NA,NA,NA,NA,NA,NA,NA,NA,NA,NA,NA,NA,NA,NA,NA,NA,NA,NA
7b792,"""Richtig""-Screen",canvas.Screen,1_1_4_1_1,NA,NA,skipped,NA,144464.1,NA,NA,144459.7,144464.2,2023-01-20T18:50:12Z,144467.919,"c(""distractor1"", ""distractor2"", ""distractor3"")",Rückhalt,msaada,s,muhula,auwali,kiwimbe,NA,NA,NA,NA,NA,NA,NA,NA,NA,NA,NA,NA,NA,NA,NA,NA,NA,NA,NA,NA,NA,NA,NA
7b792,"""Falsch""-Screen",canvas.Screen,1_1_4_1_2,NA,NA,timeout,4999.8,144465.3,144451.253,144467.919,149459.386,149462.3,2023-01-20T18:50:17Z,149467.719,"c(""distractor1"", ""distractor2"", ""distractor3"")",Rückhalt,msaada,s,muhula,auwali,kiwimbe,NA,NA,0,NA,NA,NA,NA,NA,NA,NA,NA,NA,NA,NA,NA,NA,NA,NA,NA,NA,NA,NA,NA
7b792,shallow,flow.Sequence,1_1_4_1,NA,NA,completion,8179.231,141275.3,141271.822,141280.155,149459.386,149462.8,2023-01-20T18:50:17Z,149467.719,"c(""distractor1"", ""distractor2"", ""distractor3"")",Rückhalt,msaada,s,muhula,auwali,kiwimbe,NA,NA,NA,NA,NA,NA,NA,NA,NA,NA,NA,NA,NA,NA,NA,NA,NA,NA,NA,NA,NA,NA,NA
7b792,task,flow.Sequence,1_1_4,NA,NA,completion,8179.231,141275,141271.822,141280.155,149459.386,149463,2023-01-20T18:50:17Z,149467.719,"c(""distractor1"", ""distractor2"", ""distractor3"")",Rückhalt,msaada,s,muhula,auwali,kiwimbe,NA,NA,NA,NA,NA,NA,NA,NA,NA,NA,NA,NA,NA,NA,NA,NA,NA,NA,NA,NA,NA,NA,NA
7b792,deep,flow.Sequence,1_1_5_0,NA,NA,skipped,NA,149463.3,NA,NA,149459.386,149463.5,2023-01-20T18:50:17Z,149467.719,"c(""distractor1"", ""distractor2"", ""distractor3"")",Gegenwart,hadhara,s,katiba,jokofu,mikopo,NA,NA,NA,NA,NA,NA,NA,NA,NA,NA,NA,NA,NA,NA,NA,NA,NA,NA,NA,NA,NA,NA,NA
7b792,Shallow Question,html.Page,1_1_5_1_0,NA,NA,form submission,2793.4810000002,149463.7,149459.386,149467.719,152261.2,152261.8,2023-01-20T18:50:20Z,152267.607,"c(""distractor1"", ""distractor2"", ""distractor3"")",Gegenwart,hadhara,s,katiba,jokofu,mikopo,katiba,NA,NA,NA,NA,NA,NA,NA,NA,NA,NA,NA,NA,NA,NA,NA,NA,NA,NA,NA,NA,NA,NA
7b792,"""Richtig""-Screen",canvas.Screen,1_1_5_1_1,NA,NA,skipped,NA,152264.7,NA,NA,152261.2,152264.8,2023-01-20T18:50:20Z,152267.607,"c(""distractor1"", ""distractor2"", ""distractor3"")",Gegenwart,hadhara,s,katiba,jokofu,mikopo,NA,NA,NA,NA,NA,NA,NA,NA,NA,NA,NA,NA,NA,NA,NA,NA,NA,NA,NA,NA,NA,NA,NA
7b792,"""Falsch""-Screen",canvas.Screen,1_1_5_1_2,NA,NA,timeout,4999.8,152265.7,152259.274,152267.607,157259.074,157262.2,2023-01-20T18:50:25Z,157267.407,"c(""distractor1"", ""distractor2"", ""distractor3"")",Gegenwart,hadhara,s,katiba,jokofu,mikopo,NA,NA,0,NA,NA,NA,NA,NA,NA,NA,NA,NA,NA,NA,NA,NA,NA,NA,NA,NA,NA,NA,NA
7b792,shallow,flow.Sequence,1_1_5_1,NA,NA,completion,7791.355,149463.5,149459.386,149467.719,157259.074,157262.7,2023-01-20T18:50:25Z,157267.407,"c(""distractor1"", ""distractor2"", ""distractor3"")",Gegenwart,hadhara,s,katiba,jokofu,mikopo,NA,NA,NA,NA,NA,NA,NA,NA,NA,NA,NA,NA,NA,NA,NA,NA,NA,NA,NA,NA,NA,NA,NA
7b792,task,flow.Sequence,1_1_5,NA,NA,completion,7791.355,149463.2,149459.386,149467.719,157259.074,157263.2,2023-01-20T18:50:25Z,157267.407,"c(""distractor1"", ""distractor2"", ""distractor3"")",Gegenwart,hadhara,s,katiba,jokofu,mikopo,NA,NA,NA,NA,NA,NA,NA,NA,NA,NA,NA,NA,NA,NA,NA,NA,NA,NA,NA,NA,NA,NA,NA
7b792,block,flow.Loop,1_1,NA,NA,completion,68832.691,88419.5,88418.05,88426.383,157259.074,157263.4,2023-01-20T18:50:25Z,157267.407,"c(""distractor1"", ""distractor2"", ""distractor3"")",NA,NA,NA,NA,NA,NA,NA,NA,NA,NA,NA,NA,NA,NA,NA,NA,NA,NA,NA,NA,NA,NA,NA,NA,NA,NA,NA,NA,NA
7b792,Practice,flow.Sequence,1,NA,NA,completion,69372.613,87881,87869.795,87886.461,157259.074,157263.5,2023-01-20T18:50:25Z,157267.407,NULL,NA,NA,NA,NA,NA,NA,NA,NA,NA,NA,NA,NA,NA,NA,NA,NA,NA,NA,NA,NA,NA,NA,NA,NA,NA,NA,NA,NA,NA
7b792,Experiment start,canvas.Screen,2,weiter,keypress(q),response,7478.6929999996,157263.6,157259.074,157267.407,164746.1,164754.6,2023-01-20T18:50:32Z,164805.103,NULL,NA,NA,NA,NA,NA,NA,NA,NA,NA,NA,NA,NA,NA,NA,NA,NA,NA,NA,NA,NA,NA,NA,NA,NA,NA,NA,NA,NA,NA
7b792,deep,flow.Sequence,3_0_0_0_0_0,NA,NA,skipped,NA,164796.6,NA,NA,164746.1,164796.6,2023-01-20T18:50:32Z,164805.103,NULL,Prüfung,mtihani,s,mkulima,mtizamo,ufumbuzi,NA,sdf,NA,0,NA,NA,NA,NA,NA,NA,NA,NA,NA,NA,NA,NA,NA,NA,NA,NA,NA,NA,NA
7b792,Shallow Question,html.Page,3_0_0_0_0_1_0,NA,NA,form submission,14694.197,164796.6,164796.77,164805.103,179499.3,179499.8,2023-01-20T18:50:47Z,179504.96,NULL,Prüfung,mtihani,s,mkulima,mtizamo,ufumbuzi,mtihani,NA,NA,0,NA,NA,NA,NA,NA,NA,NA,NA,NA,NA,NA,NA,NA,NA,NA,NA,NA,NA,NA
7b792,"""Richtig""-Screen",canvas.Screen,3_0_0_0_0_1_1,NA,NA,timeout,5000.227,179502.7,179496.627,179504.96,184496.854,184499.6,2023-01-20T18:50:52Z,184505.187,NULL,Prüfung,mtihani,s,mkulima,mtizamo,ufumbuzi,NA,sdf,1,0,NA,NA,NA,NA,NA,NA,NA,NA,NA,NA,NA,NA,NA,NA,NA,NA,NA,NA,NA
7b792,"""Falsch""-Screen",canvas.Screen,3_0_0_0_0_1_2,NA,NA,skipped,NA,184505.4,NA,NA,184496.854,184505.7,2023-01-20T18:50:52Z,184505.187,NULL,Prüfung,mtihani,s,mkulima,mtizamo,ufumbuzi,NA,sdf,NA,0,NA,NA,NA,NA,NA,NA,NA,NA,NA,NA,NA,NA,NA,NA,NA,NA,NA,NA,NA
7b792,shallow,flow.Sequence,3_0_0_0_0_1,NA,NA,completion,19691.751,164796.6,164796.77,164805.103,184496.854,184505.9,2023-01-20T18:50:52Z,184505.187,NULL,Prüfung,mtihani,s,mkulima,mtizamo,ufumbuzi,NA,sdf,NA,0,NA,NA,NA,NA,NA,NA,NA,NA,NA,NA,NA,NA,NA,NA,NA,NA,NA,NA,NA
7b792,task,flow.Sequence,3_0_0_0_0,NA,NA,completion,19691.751,164796.6,164796.77,164805.103,184496.854,184506,2023-01-20T18:50:52Z,184505.187,NULL,Prüfung,mtihani,s,mkulima,mtizamo,ufumbuzi,NA,sdf,NA,0,NA,NA,NA,NA,NA,NA,NA,NA,NA,NA,NA,NA,NA,NA,NA,NA,NA,NA,NA
7b792,Deep Question,html.Page,3_0_0_0_1_0_0,NA,NA,form submission,3356.1129999998,184506.1,184496.854,184505.187,187861.3,187862.1,2023-01-20T18:50:55Z,187871.719,NULL,Verzögerung,kuchelewa,d,NA,NA,NA,j,NA,NA,0,NA,NA,NA,NA,NA,NA,NA,NA,NA,NA,NA,NA,NA,NA,NA,NA,NA,NA,NA
7b792,"""Richtig""-Screen",canvas.Screen,3_0_0_0_1_0_1,NA,NA,skipped,NA,187865.4,NA,NA,187861.3,187865.5,2023-01-20T18:50:55Z,187871.719,NULL,Verzögerung,kuchelewa,d,NA,NA,NA,NA,sdf,NA,0,NA,NA,NA,NA,NA,NA,NA,NA,NA,NA,NA,NA,NA,NA,NA,NA,NA,NA,NA
7b792,"""Falsch""-Screen",canvas.Screen,3_0_0_0_1_0_2,NA,NA,timeout,4999.8,187866.2,187855.053,187871.719,192863.186,192865.9,2023-01-20T18:51:00Z,192871.519,NULL,Verzögerung,kuchelewa,d,NA,NA,NA,NA,sdf,0,0,NA,NA,NA,NA,NA,NA,NA,NA,NA,NA,NA,NA,NA,NA,NA,NA,NA,NA,NA
7b792,deep,flow.Sequence,3_0_0_0_1_0,NA,NA,completion,8357.999,184506.1,184496.854,184505.187,192863.186,192866.2,2023-01-20T18:51:00Z,192871.519,NULL,Verzögerung,kuchelewa,d,NA,NA,NA,NA,sdf,NA,0,NA,NA,NA,NA,NA,NA,NA,NA,NA,NA,NA,NA,NA,NA,NA,NA,NA,NA,NA
7b792,shallow,flow.Sequence,3_0_0_0_1_1,NA,NA,skipped,NA,192866.4,NA,NA,192863.186,192866.4,2023-01-20T18:51:00Z,192871.519,NULL,Verzögerung,kuchelewa,d,NA,NA,NA,NA,sdf,NA,0,NA,NA,NA,NA,NA,NA,NA,NA,NA,NA,NA,NA,NA,NA,NA,NA,NA,NA,NA
7b792,task,flow.Sequence,3_0_0_0_1,NA,NA,completion,8357.999,184506.1,184496.854,184505.187,192863.186,192866.5,2023-01-20T18:51:00Z,192871.519,NULL,Verzögerung,kuchelewa,d,NA,NA,NA,NA,sdf,NA,0,NA,NA,NA,NA,NA,NA,NA,NA,NA,NA,NA,NA,NA,NA,NA,NA,NA,NA,NA
7b792,deep,flow.Sequence,3_0_0_0_2_0,NA,NA,skipped,NA,192866.6,NA,NA,192863.186,192866.7,2023-01-20T18:51:00Z,192871.519,NULL,Integrität,uadilifu,s,muungano,mtiririko,upunguaji,NA,sdf,NA,0,NA,NA,NA,NA,NA,NA,NA,NA,NA,NA,NA,NA,NA,NA,NA,NA,NA,NA,NA
7b792,Shallow Question,html.Page,3_0_0_0_2_1_0,NA,NA,form submission,5448.7809999998,192866.7,192863.186,192871.519,198320.3,198321,2023-01-20T18:51:06Z,198325.954,NULL,Integrität,uadilifu,s,muungano,mtiririko,upunguaji,upunguaji,NA,NA,0,NA,NA,NA,NA,NA,NA,NA,NA,NA,NA,NA,NA,NA,NA,NA,NA,NA,NA,NA
7b792,"""Richtig""-Screen",canvas.Screen,3_0_0_0_2_1_1,NA,NA,skipped,NA,198324.3,NA,NA,198320.3,198324.4,2023-01-20T18:51:06Z,198325.954,NULL,Integrität,uadilifu,s,muungano,mtiririko,upunguaji,NA,sdf,NA,0,NA,NA,NA,NA,NA,NA,NA,NA,NA,NA,NA,NA,NA,NA,NA,NA,NA,NA,NA
7b792,"""Falsch""-Screen",canvas.Screen,3_0_0_0_2_1_2,NA,NA,timeout,4999.8,198325.2,198317.621,198325.954,203317.421,203319.9,2023-01-20T18:51:11Z,203325.754,NULL,Integrität,uadilifu,s,muungano,mtiririko,upunguaji,NA,sdf,0,0,NA,NA,NA,NA,NA,NA,NA,NA,NA,NA,NA,NA,NA,NA,NA,NA,NA,NA,NA
7b792,shallow,flow.Sequence,3_0_0_0_2_1,NA,NA,completion,10445.902,192866.7,192863.186,192871.519,203317.421,203320.5,2023-01-20T18:51:11Z,203325.754,NULL,Integrität,uadilifu,s,muungano,mtiririko,upunguaji,NA,sdf,NA,0,NA,NA,NA,NA,NA,NA,NA,NA,NA,NA,NA,NA,NA,NA,NA,NA,NA,NA,NA
7b792,task,flow.Sequence,3_0_0_0_2,NA,NA,completion,10445.902,192866.5,192863.186,192871.519,203317.421,203320.6,2023-01-20T18:51:11Z,203325.754,NULL,Integrität,uadilifu,s,muungano,mtiririko,upunguaji,NA,sdf,NA,0,NA,NA,NA,NA,NA,NA,NA,NA,NA,NA,NA,NA,NA,NA,NA,NA,NA,NA,NA
7b792,Deep Question,html.Page,3_0_0_0_3_0_0,NA,NA,form submission,4086.6460000004,203320.8,203317.421,203325.754,207412.4,207412.8,2023-01-20T18:51:15Z,207417.688,NULL,Begegnung,kukutana,d,NA,NA,NA,m,NA,NA,0,NA,NA,NA,NA,NA,NA,NA,NA,NA,NA,NA,NA,NA,NA,NA,NA,NA,NA,NA
7b792,"""Richtig""-Screen",canvas.Screen,3_0_0_0_3_0_1,NA,NA,skipped,NA,207416.2,NA,NA,207412.4,207416.3,2023-01-20T18:51:15Z,207417.688,NULL,Begegnung,kukutana,d,NA,NA,NA,NA,sdf,NA,0,NA,NA,NA,NA,NA,NA,NA,NA,NA,NA,NA,NA,NA,NA,NA,NA,NA,NA,NA
7b792,"""Falsch""-Screen",canvas.Screen,3_0_0_0_3_0_2,NA,NA,timeout,4999.8,207417.1,207409.355,207417.688,212409.155,212411.6,2023-01-20T18:51:20Z,212417.488,NULL,Begegnung,kukutana,d,NA,NA,NA,NA,sdf,0,0,NA,NA,NA,NA,NA,NA,NA,NA,NA,NA,NA,NA,NA,NA,NA,NA,NA,NA,NA
7b792,deep,flow.Sequence,3_0_0_0_3_0,NA,NA,completion,9083.401,203320.7,203317.421,203325.754,212409.155,212412.1,2023-01-20T18:51:20Z,212417.488,NULL,Begegnung,kukutana,d,NA,NA,NA,NA,sdf,NA,0,NA,NA,NA,NA,NA,NA,NA,NA,NA,NA,NA,NA,NA,NA,NA,NA,NA,NA,NA
7b792,shallow,flow.Sequence,3_0_0_0_3_1,NA,NA,skipped,NA,212412.4,NA,NA,212409.155,212412.4,2023-01-20T18:51:20Z,212417.488,NULL,Begegnung,kukutana,d,NA,NA,NA,NA,sdf,NA,0,NA,NA,NA,NA,NA,NA,NA,NA,NA,NA,NA,NA,NA,NA,NA,NA,NA,NA,NA
7b792,task,flow.Sequence,3_0_0_0_3,NA,NA,completion,9083.401,203320.6,203317.421,203325.754,212409.155,212412.8,2023-01-20T18:51:20Z,212417.488,NULL,Begegnung,kukutana,d,NA,NA,NA,NA,sdf,NA,0,NA,NA,NA,NA,NA,NA,NA,NA,NA,NA,NA,NA,NA,NA,NA,NA,NA,NA,NA
7b792,deep,flow.Sequence,3_0_0_0_4_0,NA,NA,skipped,NA,212413,NA,NA,212409.155,212413.1,2023-01-20T18:51:20Z,212417.488,NULL,Fleisch,mshakiki,s,kizunguzungu,mshikamano,angusho,NA,sdf,NA,0,NA,NA,NA,NA,NA,NA,NA,NA,NA,NA,NA,NA,NA,NA,NA,NA,NA,NA,NA
7b792,Shallow Question,html.Page,3_0_0_0_4_1_0,NA,NA,form submission,6689.8119999998,212413.3,212409.155,212417.488,219107.3,219107.7,2023-01-20T18:51:26Z,219117.629,NULL,Fleisch,mshakiki,s,kizunguzungu,mshikamano,angusho,angusho,NA,NA,0,NA,NA,NA,NA,NA,NA,NA,NA,NA,NA,NA,NA,NA,NA,NA,NA,NA,NA,NA
7b792,"""Richtig""-Screen",canvas.Screen,3_0_0_0_4_1_1,NA,NA,skipped,NA,219110.9,NA,NA,219107.3,219111.1,2023-01-20T18:51:26Z,219117.629,NULL,Fleisch,mshakiki,s,kizunguzungu,mshikamano,angusho,NA,sdf,NA,0,NA,NA,NA,NA,NA,NA,NA,NA,NA,NA,NA,NA,NA,NA,NA,NA,NA,NA,NA
7b792,"""Falsch""-Screen",canvas.Screen,3_0_0_0_4_1_2,NA,NA,timeout,4999.8,219111.7,219100.963,219117.629,224109.096,224111.6,2023-01-20T18:51:31Z,224117.429,NULL,Fleisch,mshakiki,s,kizunguzungu,mshikamano,angusho,NA,sdf,0,0,NA,NA,NA,NA,NA,NA,NA,NA,NA,NA,NA,NA,NA,NA,NA,NA,NA,NA,NA
7b792,shallow,flow.Sequence,3_0_0_0_4_1,NA,NA,completion,11691.608,212413.2,212409.155,212417.488,224109.096,224112.2,2023-01-20T18:51:31Z,224117.429,NULL,Fleisch,mshakiki,s,kizunguzungu,mshikamano,angusho,NA,sdf,NA,0,NA,NA,NA,NA,NA,NA,NA,NA,NA,NA,NA,NA,NA,NA,NA,NA,NA,NA,NA
7b792,task,flow.Sequence,3_0_0_0_4,NA,NA,completion,11691.608,212412.9,212409.155,212417.488,224109.096,224112.3,2023-01-20T18:51:31Z,224117.429,NULL,Fleisch,mshakiki,s,kizunguzungu,mshikamano,angusho,NA,sdf,NA,0,NA,NA,NA,NA,NA,NA,NA,NA,NA,NA,NA,NA,NA,NA,NA,NA,NA,NA,NA
7b792,Deep Question,html.Page,3_0_0_0_5_0_0,NA,NA,form submission,3862.7710000002,224112.6,224109.096,224117.429,227980.2,227980.6,2023-01-20T18:51:35Z,227984.322,NULL,Genehmigung,idhini,d,NA,NA,NA,o,NA,NA,0,NA,NA,NA,NA,NA,NA,NA,NA,NA,NA,NA,NA,NA,NA,NA,NA,NA,NA,NA
7b792,"""Richtig""-Screen",canvas.Screen,3_0_0_0_5_0_1,NA,NA,skipped,NA,227983.8,NA,NA,227980.2,227984,2023-01-20T18:51:35Z,227984.322,NULL,Genehmigung,idhini,d,NA,NA,NA,NA,sdf,NA,0,NA,NA,NA,NA,NA,NA,NA,NA,NA,NA,NA,NA,NA,NA,NA,NA,NA,NA,NA
7b792,"""Falsch""-Screen",canvas.Screen,3_0_0_0_5_0_2,NA,NA,timeout,4999.8,227984.5,227975.989,227984.322,232975.789,232978.3,2023-01-20T18:51:40Z,232984.122,NULL,Genehmigung,idhini,d,NA,NA,NA,NA,sdf,0,0,NA,NA,NA,NA,NA,NA,NA,NA,NA,NA,NA,NA,NA,NA,NA,NA,NA,NA,NA
7b792,deep,flow.Sequence,3_0_0_0_5_0,NA,NA,completion,8858.36,224112.6,224109.096,224117.429,232975.789,232978.8,2023-01-20T18:51:40Z,232984.122,NULL,Genehmigung,idhini,d,NA,NA,NA,NA,sdf,NA,0,NA,NA,NA,NA,NA,NA,NA,NA,NA,NA,NA,NA,NA,NA,NA,NA,NA,NA,NA
7b792,shallow,flow.Sequence,3_0_0_0_5_1,NA,NA,skipped,NA,232979.1,NA,NA,232975.789,232979.2,2023-01-20T18:51:40Z,232984.122,NULL,Genehmigung,idhini,d,NA,NA,NA,NA,sdf,NA,0,NA,NA,NA,NA,NA,NA,NA,NA,NA,NA,NA,NA,NA,NA,NA,NA,NA,NA,NA
7b792,task,flow.Sequence,3_0_0_0_5,NA,NA,completion,8858.36,224112.5,224109.096,224117.429,232975.789,232979.4,2023-01-20T18:51:40Z,232984.122,NULL,Genehmigung,idhini,d,NA,NA,NA,NA,sdf,NA,0,NA,NA,NA,NA,NA,NA,NA,NA,NA,NA,NA,NA,NA,NA,NA,NA,NA,NA,NA
7b792,Deep Question,html.Page,3_0_0_0_6_0_0,NA,NA,form submission,3629.2780000004,232979.6,232975.789,232984.122,236613.4,236614.2,2023-01-20T18:51:44Z,236621.883,NULL,Kultur,utamaduni,d,NA,NA,NA,w,NA,NA,0,NA,NA,NA,NA,NA,NA,NA,NA,NA,NA,NA,NA,NA,NA,NA,NA,NA,NA,NA
7b792,"""Richtig""-Screen",canvas.Screen,3_0_0_0_6_0_1,NA,NA,skipped,NA,236618.2,NA,NA,236613.4,236618.4,2023-01-20T18:51:44Z,236621.883,NULL,Kultur,utamaduni,d,NA,NA,NA,NA,sdf,NA,0,NA,NA,NA,NA,NA,NA,NA,NA,NA,NA,NA,NA,NA,NA,NA,NA,NA,NA,NA
7b792,"""Falsch""-Screen",canvas.Screen,3_0_0_0_6_0_2,NA,NA,timeout,4999.8,236619,236605.217,236621.883,241613.35,241615.4,2023-01-20T18:51:49Z,241621.683,NULL,Kultur,utamaduni,d,NA,NA,NA,NA,sdf,0,0,NA,NA,NA,NA,NA,NA,NA,NA,NA,NA,NA,NA,NA,NA,NA,NA,NA,NA,NA
7b792,deep,flow.Sequence,3_0_0_0_6_0,NA,NA,completion,8629.228,232979.5,232975.789,232984.122,241613.35,241615.7,2023-01-20T18:51:49Z,241621.683,NULL,Kultur,utamaduni,d,NA,NA,NA,NA,sdf,NA,0,NA,NA,NA,NA,NA,NA,NA,NA,NA,NA,NA,NA,NA,NA,NA,NA,NA,NA,NA
7b792,shallow,flow.Sequence,3_0_0_0_6_1,NA,NA,skipped,NA,241615.8,NA,NA,241613.35,241615.9,2023-01-20T18:51:49Z,241621.683,NULL,Kultur,utamaduni,d,NA,NA,NA,NA,sdf,NA,0,NA,NA,NA,NA,NA,NA,NA,NA,NA,NA,NA,NA,NA,NA,NA,NA,NA,NA,NA
7b792,task,flow.Sequence,3_0_0_0_6,NA,NA,completion,8629.228,232979.5,232975.789,232984.122,241613.35,241615.9,2023-01-20T18:51:49Z,241621.683,NULL,Kultur,utamaduni,d,NA,NA,NA,NA,sdf,NA,0,NA,NA,NA,NA,NA,NA,NA,NA,NA,NA,NA,NA,NA,NA,NA,NA,NA,NA,NA
7b792,deep,flow.Sequence,3_0_0_0_7_0,NA,NA,skipped,NA,241616,NA,NA,241613.35,241616,2023-01-20T18:51:49Z,241621.683,NULL,Aufstand,ugomaji,s,mazidio,msingi,kujieleza,NA,sdf,NA,0,NA,NA,NA,NA,NA,NA,NA,NA,NA,NA,NA,NA,NA,NA,NA,NA,NA,NA,NA
7b792,Shallow Question,html.Page,3_0_0_0_7_1_0,NA,NA,form submission,7604.817,241616.1,241613.35,241621.683,249226.5,249227,2023-01-20T18:51:57Z,249230.115,NULL,Aufstand,ugomaji,s,mazidio,msingi,kujieleza,mazidio,NA,NA,0,NA,NA,NA,NA,NA,NA,NA,NA,NA,NA,NA,NA,NA,NA,NA,NA,NA,NA,NA
7b792,"""Richtig""-Screen",canvas.Screen,3_0_0_0_7_1_1,NA,NA,skipped,NA,249229.7,NA,NA,249226.5,249230,2023-01-20T18:51:57Z,249230.115,NULL,Aufstand,ugomaji,s,mazidio,msingi,kujieleza,NA,sdf,NA,0,NA,NA,NA,NA,NA,NA,NA,NA,NA,NA,NA,NA,NA,NA,NA,NA,NA,NA,NA
7b792,"""Falsch""-Screen",canvas.Screen,3_0_0_0_7_1_2,NA,NA,timeout,4999.8,249230.7,249221.782,249230.115,254221.582,254229.3,2023-01-20T18:52:02Z,254229.915,NULL,Aufstand,ugomaji,s,mazidio,msingi,kujieleza,NA,sdf,0,0,NA,NA,NA,NA,NA,NA,NA,NA,NA,NA,NA,NA,NA,NA,NA,NA,NA,NA,NA
7b792,shallow,flow.Sequence,3_0_0_0_7_1,NA,NA,completion,12599.899,241616.1,241613.35,241621.683,254221.582,254230,2023-01-20T18:52:02Z,254229.915,NULL,Aufstand,ugomaji,s,mazidio,msingi,kujieleza,NA,sdf,NA,0,NA,NA,NA,NA,NA,NA,NA,NA,NA,NA,NA,NA,NA,NA,NA,NA,NA,NA,NA
7b792,task,flow.Sequence,3_0_0_0_7,NA,NA,completion,12599.899,241615.9,241613.35,241621.683,254221.582,254230.2,2023-01-20T18:52:02Z,254229.915,NULL,Aufstand,ugomaji,s,mazidio,msingi,kujieleza,NA,sdf,NA,0,NA,NA,NA,NA,NA,NA,NA,NA,NA,NA,NA,NA,NA,NA,NA,NA,NA,NA,NA
7b792,block,flow.Loop,3_0_0_0,NA,NA,completion,89416.479,164796.6,164796.77,164805.103,254221.582,254230.4,2023-01-20T18:52:02Z,254229.915,NULL,NA,NA,NA,NA,NA,NA,NA,sdf,NA,0,NA,NA,NA,NA,NA,NA,NA,NA,NA,NA,NA,NA,NA,NA,NA,NA,NA,NA,NA
7b792,weiter,canvas.Screen,3_0_0_1,sdf,keypress(Space),response,1952.585,254230.6,254221.582,254229.915,256182.5,256191.2,2023-01-20T18:52:04Z,256213.169,NULL,NA,NA,NA,NA,NA,NA,NA,sdf,NA,0,NA,NA,NA,NA,NA,NA,NA,NA,NA,NA,NA,NA,NA,NA,NA,NA,NA,NA,NA
7b792,check continue,flow.Sequence,3_0_0,NA,NA,completion,91377.397,164796.6,164796.77,164805.103,256182.5,256191.4,2023-01-20T18:52:04Z,256213.169,NULL,NA,NA,NA,NA,NA,NA,NA,sdf,NA,0,NA,NA,NA,NA,NA,NA,NA,NA,NA,NA,NA,NA,NA,NA,NA,NA,NA,NA,NA
7b792,Deep Question,html.Page,3_0_1_0_0_0_0,NA,NA,form submission,6623.6309999998,256212,256204.836,256213.169,262836.8,262837.6,2023-01-20T18:52:10Z,262846.641,NULL,Begegnung,kukutana,d,NA,NA,NA,ma,NA,NA,1,NA,NA,NA,NA,NA,NA,NA,NA,NA,NA,NA,NA,NA,NA,NA,NA,NA,NA,NA
7b792,"""Richtig""-Screen",canvas.Screen,3_0_1_0_0_0_1,NA,NA,skipped,NA,262841.6,NA,NA,262836.8,262841.8,2023-01-20T18:52:10Z,262846.641,NULL,Begegnung,kukutana,d,NA,NA,NA,NA,sdfdsf,NA,1,NA,NA,NA,NA,NA,NA,NA,NA,NA,NA,NA,NA,NA,NA,NA,NA,NA,NA,NA
7b792,"""Falsch""-Screen",canvas.Screen,3_0_1_0_0_0_2,NA,NA,timeout,4999.8,262842.7,262829.975,262846.641,267838.108,267839.6,2023-01-20T18:52:15Z,267846.441,NULL,Begegnung,kukutana,d,NA,NA,NA,NA,sdfdsf,0,1,NA,NA,NA,NA,NA,NA,NA,NA,NA,NA,NA,NA,NA,NA,NA,NA,NA,NA,NA
7b792,deep,flow.Sequence,3_0_1_0_0_0,NA,NA,completion,11624.939,256212,256204.836,256213.169,267838.108,267840.2,2023-01-20T18:52:15Z,267846.441,NULL,Begegnung,kukutana,d,NA,NA,NA,NA,sdfdsf,NA,1,NA,NA,NA,NA,NA,NA,NA,NA,NA,NA,NA,NA,NA,NA,NA,NA,NA,NA,NA
7b792,shallow,flow.Sequence,3_0_1_0_0_1,NA,NA,skipped,NA,267840.4,NA,NA,267838.108,267840.6,2023-01-20T18:52:15Z,267846.441,NULL,Begegnung,kukutana,d,NA,NA,NA,NA,sdfdsf,NA,1,NA,NA,NA,NA,NA,NA,NA,NA,NA,NA,NA,NA,NA,NA,NA,NA,NA,NA,NA
7b792,task,flow.Sequence,3_0_1_0_0,NA,NA,completion,11624.939,256212,256204.836,256213.169,267838.108,267840.7,2023-01-20T18:52:15Z,267846.441,NULL,Begegnung,kukutana,d,NA,NA,NA,NA,sdfdsf,NA,1,NA,NA,NA,NA,NA,NA,NA,NA,NA,NA,NA,NA,NA,NA,NA,NA,NA,NA,NA
7b792,deep,flow.Sequence,3_0_1_0_1_0,NA,NA,skipped,NA,267840.9,NA,NA,267838.108,267841,2023-01-20T18:52:15Z,267846.441,NULL,Fleisch,mshakiki,s,kizunguzungu,mshikamano,angusho,NA,sdfdsf,NA,1,NA,NA,NA,NA,NA,NA,NA,NA,NA,NA,NA,NA,NA,NA,NA,NA,NA,NA,NA
7b792,Shallow Question,html.Page,3_0_1_0_1_1_0,NA,NA,form submission,5533.059,267841.1,267838.108,267846.441,273379.5,273379.8,2023-01-20T18:52:21Z,273388.308,NULL,Fleisch,mshakiki,s,kizunguzungu,mshikamano,angusho,mshakiki,NA,NA,1,NA,NA,NA,NA,NA,NA,NA,NA,NA,NA,NA,NA,NA,NA,NA,NA,NA,NA,NA
7b792,"""Richtig""-Screen",canvas.Screen,3_0_1_0_1_1_1,NA,NA,timeout,4999.8,273383.3,273371.642,273388.308,278379.775,278382,2023-01-20T18:52:26Z,278388.108,NULL,Fleisch,mshakiki,s,kizunguzungu,mshikamano,angusho,NA,sdfdsf,1,1,NA,NA,NA,NA,NA,NA,NA,NA,NA,NA,NA,NA,NA,NA,NA,NA,NA,NA,NA
7b792,"""Falsch""-Screen",canvas.Screen,3_0_1_0_1_1_2,NA,NA,skipped,NA,278387.1,NA,NA,278379.775,278387.3,2023-01-20T18:52:26Z,278388.108,NULL,Fleisch,mshakiki,s,kizunguzungu,mshikamano,angusho,NA,sdfdsf,NA,1,NA,NA,NA,NA,NA,NA,NA,NA,NA,NA,NA,NA,NA,NA,NA,NA,NA,NA,NA
7b792,shallow,flow.Sequence,3_0_1_0_1_1,NA,NA,completion,10533.334,267841.1,267838.108,267846.441,278379.775,278387.4,2023-01-20T18:52:26Z,278388.108,NULL,Fleisch,mshakiki,s,kizunguzungu,mshikamano,angusho,NA,sdfdsf,NA,1,NA,NA,NA,NA,NA,NA,NA,NA,NA,NA,NA,NA,NA,NA,NA,NA,NA,NA,NA
7b792,task,flow.Sequence,3_0_1_0_1,NA,NA,completion,10533.334,267840.8,267838.108,267846.441,278379.775,278387.6,2023-01-20T18:52:26Z,278388.108,NULL,Fleisch,mshakiki,s,kizunguzungu,mshikamano,angusho,NA,sdfdsf,NA,1,NA,NA,NA,NA,NA,NA,NA,NA,NA,NA,NA,NA,NA,NA,NA,NA,NA,NA,NA
7b792,deep,flow.Sequence,3_0_1_0_2_0,NA,NA,skipped,NA,278387.7,NA,NA,278379.775,278387.7,2023-01-20T18:52:26Z,278388.108,NULL,Integrität,uadilifu,s,muungano,mtiririko,upunguaji,NA,sdfdsf,NA,1,NA,NA,NA,NA,NA,NA,NA,NA,NA,NA,NA,NA,NA,NA,NA,NA,NA,NA,NA
7b792,Shallow Question,html.Page,3_0_1_0_2_1_0,NA,NA,form submission,7879.4919999996,278387.8,278379.775,278388.108,286267.6,286268.2,2023-01-20T18:52:34Z,286275.714,NULL,Integrität,uadilifu,s,muungano,mtiririko,upunguaji,upunguaji,NA,NA,1,NA,NA,NA,NA,NA,NA,NA,NA,NA,NA,NA,NA,NA,NA,NA,NA,NA,NA,NA
7b792,"""Richtig""-Screen",canvas.Screen,3_0_1_0_2_1_1,NA,NA,skipped,NA,286271.2,NA,NA,286267.6,286271.3,2023-01-20T18:52:34Z,286275.714,NULL,Integrität,uadilifu,s,muungano,mtiririko,upunguaji,NA,sdfdsf,NA,1,NA,NA,NA,NA,NA,NA,NA,NA,NA,NA,NA,NA,NA,NA,NA,NA,NA,NA,NA
7b792,"""Falsch""-Screen",canvas.Screen,3_0_1_0_2_1_2,NA,NA,timeout,4999.8,286271.9,286259.048,286275.714,291267.181,291268.9,2023-01-20T18:52:39Z,291275.514,NULL,Integrität,uadilifu,s,muungano,mtiririko,upunguaji,NA,sdfdsf,0,1,NA,NA,NA,NA,NA,NA,NA,NA,NA,NA,NA,NA,NA,NA,NA,NA,NA,NA,NA
7b792,shallow,flow.Sequence,3_0_1_0_2_1,NA,NA,completion,12879.073,278387.8,278379.775,278388.108,291267.181,291269.4,2023-01-20T18:52:39Z,291275.514,NULL,Integrität,uadilifu,s,muungano,mtiririko,upunguaji,NA,sdfdsf,NA,1,NA,NA,NA,NA,NA,NA,NA,NA,NA,NA,NA,NA,NA,NA,NA,NA,NA,NA,NA
7b792,task,flow.Sequence,3_0_1_0_2,NA,NA,completion,12879.073,278387.6,278379.775,278388.108,291267.181,291269.7,2023-01-20T18:52:39Z,291275.514,NULL,Integrität,uadilifu,s,muungano,mtiririko,upunguaji,NA,sdfdsf,NA,1,NA,NA,NA,NA,NA,NA,NA,NA,NA,NA,NA,NA,NA,NA,NA,NA,NA,NA,NA
7b792,Deep Question,html.Page,3_0_1_0_3_0_0,NA,NA,form submission,4926.486,291269.9,291267.181,291275.514,296202,296202.2,2023-01-20T18:52:44Z,296209.143,NULL,Kultur,utamaduni,d,NA,NA,NA,idi,NA,NA,1,NA,NA,NA,NA,NA,NA,NA,NA,NA,NA,NA,NA,NA,NA,NA,NA,NA,NA,NA
7b792,"""Richtig""-Screen",canvas.Screen,3_0_1_0_3_0_1,NA,NA,skipped,NA,296204.5,NA,NA,296202,296204.5,2023-01-20T18:52:44Z,296209.143,NULL,Kultur,utamaduni,d,NA,NA,NA,NA,sdfdsf,NA,1,NA,NA,NA,NA,NA,NA,NA,NA,NA,NA,NA,NA,NA,NA,NA,NA,NA,NA,NA
7b792,"""Falsch""-Screen",canvas.Screen,3_0_1_0_3_0_2,NA,NA,timeout,4999.8,296205,296200.81,296209.143,301200.61,301203.3,2023-01-20T18:52:49Z,301208.943,NULL,Kultur,utamaduni,d,NA,NA,NA,NA,sdfdsf,0,1,NA,NA,NA,NA,NA,NA,NA,NA,NA,NA,NA,NA,NA,NA,NA,NA,NA,NA,NA
7b792,deep,flow.Sequence,3_0_1_0_3_0,NA,NA,completion,9925.096,291269.8,291267.181,291275.514,301200.61,301203.9,2023-01-20T18:52:49Z,301208.943,NULL,Kultur,utamaduni,d,NA,NA,NA,NA,sdfdsf,NA,1,NA,NA,NA,NA,NA,NA,NA,NA,NA,NA,NA,NA,NA,NA,NA,NA,NA,NA,NA
7b792,shallow,flow.Sequence,3_0_1_0_3_1,NA,NA,skipped,NA,301204.1,NA,NA,301200.61,301204.2,2023-01-20T18:52:49Z,301208.943,NULL,Kultur,utamaduni,d,NA,NA,NA,NA,sdfdsf,NA,1,NA,NA,NA,NA,NA,NA,NA,NA,NA,NA,NA,NA,NA,NA,NA,NA,NA,NA,NA
7b792,task,flow.Sequence,3_0_1_0_3,NA,NA,completion,9925.096,291269.7,291267.181,291275.514,301200.61,301204.3,2023-01-20T18:52:49Z,301208.943,NULL,Kultur,utamaduni,d,NA,NA,NA,NA,sdfdsf,NA,1,NA,NA,NA,NA,NA,NA,NA,NA,NA,NA,NA,NA,NA,NA,NA,NA,NA,NA,NA
7b792,Deep Question,html.Page,3_0_1_0_4_0_0,NA,NA,form submission,6293.1569999996,301204.5,301200.61,301208.943,307502.1,307502.8,2023-01-20T18:52:55Z,307509.154,NULL,Genehmigung,idhini,d,NA,NA,NA,madua,NA,NA,1,NA,NA,NA,NA,NA,NA,NA,NA,NA,NA,NA,NA,NA,NA,NA,NA,NA,NA,NA
7b792,"""Richtig""-Screen",canvas.Screen,3_0_1_0_4_0_1,NA,NA,skipped,NA,307506.2,NA,NA,307502.1,307506.4,2023-01-20T18:52:55Z,307509.154,NULL,Genehmigung,idhini,d,NA,NA,NA,NA,sdfdsf,NA,1,NA,NA,NA,NA,NA,NA,NA,NA,NA,NA,NA,NA,NA,NA,NA,NA,NA,NA,NA
7b792,"""Falsch""-Screen",canvas.Screen,3_0_1_0_4_0_2,NA,NA,timeout,4999.8,307506.9,307500.821,307509.154,312500.621,312502.9,2023-01-20T18:53:00Z,312508.954,NULL,Genehmigung,idhini,d,NA,NA,NA,NA,sdfdsf,0,1,NA,NA,NA,NA,NA,NA,NA,NA,NA,NA,NA,NA,NA,NA,NA,NA,NA,NA,NA
7b792,deep,flow.Sequence,3_0_1_0_4_0,NA,NA,completion,11291.678,301204.4,301200.61,301208.943,312500.621,312503.5,2023-01-20T18:53:00Z,312508.954,NULL,Genehmigung,idhini,d,NA,NA,NA,NA,sdfdsf,NA,1,NA,NA,NA,NA,NA,NA,NA,NA,NA,NA,NA,NA,NA,NA,NA,NA,NA,NA,NA
7b792,shallow,flow.Sequence,3_0_1_0_4_1,NA,NA,skipped,NA,312503.6,NA,NA,312500.621,312503.8,2023-01-20T18:53:00Z,312508.954,NULL,Genehmigung,idhini,d,NA,NA,NA,NA,sdfdsf,NA,1,NA,NA,NA,NA,NA,NA,NA,NA,NA,NA,NA,NA,NA,NA,NA,NA,NA,NA,NA
7b792,task,flow.Sequence,3_0_1_0_4,NA,NA,completion,11291.678,301204.4,301200.61,301208.943,312500.621,312504,2023-01-20T18:53:00Z,312508.954,NULL,Genehmigung,idhini,d,NA,NA,NA,NA,sdfdsf,NA,1,NA,NA,NA,NA,NA,NA,NA,NA,NA,NA,NA,NA,NA,NA,NA,NA,NA,NA,NA
7b792,deep,flow.Sequence,3_0_1_0_5_0,NA,NA,skipped,NA,312504.2,NA,NA,312500.621,312504.3,2023-01-20T18:53:00Z,312508.954,NULL,Prüfung,mtihani,s,mkulima,mtizamo,ufumbuzi,NA,sdfdsf,NA,1,NA,NA,NA,NA,NA,NA,NA,NA,NA,NA,NA,NA,NA,NA,NA,NA,NA,NA,NA
7b792,Shallow Question,html.Page,3_0_1_0_5_1_0,NA,NA,form submission,7591.2460000002,312504.4,312500.621,312508.954,320100.2,320101,2023-01-20T18:53:07Z,320104.886,NULL,Prüfung,mtihani,s,mkulima,mtizamo,ufumbuzi,mtizamo,NA,NA,1,NA,NA,NA,NA,NA,NA,NA,NA,NA,NA,NA,NA,NA,NA,NA,NA,NA,NA,NA
7b792,"""Richtig""-Screen",canvas.Screen,3_0_1_0_5_1_1,NA,NA,skipped,NA,320104.8,NA,NA,320100.2,320104.8,2023-01-20T18:53:07Z,320104.886,NULL,Prüfung,mtihani,s,mkulima,mtizamo,ufumbuzi,NA,sdfdsf,NA,1,NA,NA,NA,NA,NA,NA,NA,NA,NA,NA,NA,NA,NA,NA,NA,NA,NA,NA,NA
7b792,"""Falsch""-Screen",canvas.Screen,3_0_1_0_5_1_2,NA,NA,timeout,4999.8,320105.5,320096.553,320104.886,325096.353,325098.1,2023-01-20T18:53:12Z,325104.686,NULL,Prüfung,mtihani,s,mkulima,mtizamo,ufumbuzi,NA,sdfdsf,0,1,NA,NA,NA,NA,NA,NA,NA,NA,NA,NA,NA,NA,NA,NA,NA,NA,NA,NA,NA
7b792,shallow,flow.Sequence,3_0_1_0_5_1,NA,NA,completion,12587.399,312504.4,312500.621,312508.954,325096.353,325098.7,2023-01-20T18:53:12Z,325104.686,NULL,Prüfung,mtihani,s,mkulima,mtizamo,ufumbuzi,NA,sdfdsf,NA,1,NA,NA,NA,NA,NA,NA,NA,NA,NA,NA,NA,NA,NA,NA,NA,NA,NA,NA,NA
7b792,task,flow.Sequence,3_0_1_0_5,NA,NA,completion,12587.399,312504.1,312500.621,312508.954,325096.353,325098.9,2023-01-20T18:53:12Z,325104.686,NULL,Prüfung,mtihani,s,mkulima,mtizamo,ufumbuzi,NA,sdfdsf,NA,1,NA,NA,NA,NA,NA,NA,NA,NA,NA,NA,NA,NA,NA,NA,NA,NA,NA,NA,NA
7b792,Deep Question,html.Page,3_0_1_0_6_0_0,NA,NA,form submission,4148.7140000004,325099.2,325096.353,325104.686,329253.4,329254.3,2023-01-20T18:53:17Z,329259.107,NULL,Verzögerung,kuchelewa,d,NA,NA,NA,n,NA,NA,1,NA,NA,NA,NA,NA,NA,NA,NA,NA,NA,NA,NA,NA,NA,NA,NA,NA,NA,NA
7b792,"""Richtig""-Screen",canvas.Screen,3_0_1_0_6_0_1,NA,NA,skipped,NA,329259.2,NA,NA,329253.4,329259.4,2023-01-20T18:53:17Z,329259.107,NULL,Verzögerung,kuchelewa,d,NA,NA,NA,NA,sdfdsf,NA,1,NA,NA,NA,NA,NA,NA,NA,NA,NA,NA,NA,NA,NA,NA,NA,NA,NA,NA,NA
7b792,"""Falsch""-Screen",canvas.Screen,3_0_1_0_6_0_2,NA,NA,timeout,4999.8,329260.2,329250.774,329259.107,334250.574,334253,2023-01-20T18:53:22Z,334258.907,NULL,Verzögerung,kuchelewa,d,NA,NA,NA,NA,sdfdsf,0,1,NA,NA,NA,NA,NA,NA,NA,NA,NA,NA,NA,NA,NA,NA,NA,NA,NA,NA,NA
7b792,deep,flow.Sequence,3_0_1_0_6_0,NA,NA,completion,9145.888,325099.2,325096.353,325104.686,334250.574,334253.6,2023-01-20T18:53:22Z,334258.907,NULL,Verzögerung,kuchelewa,d,NA,NA,NA,NA,sdfdsf,NA,1,NA,NA,NA,NA,NA,NA,NA,NA,NA,NA,NA,NA,NA,NA,NA,NA,NA,NA,NA
7b792,shallow,flow.Sequence,3_0_1_0_6_1,NA,NA,skipped,NA,334253.8,NA,NA,334250.574,334253.9,2023-01-20T18:53:22Z,334258.907,NULL,Verzögerung,kuchelewa,d,NA,NA,NA,NA,sdfdsf,NA,1,NA,NA,NA,NA,NA,NA,NA,NA,NA,NA,NA,NA,NA,NA,NA,NA,NA,NA,NA
7b792,task,flow.Sequence,3_0_1_0_6,NA,NA,completion,9145.888,325099.1,325096.353,325104.686,334250.574,334254.1,2023-01-20T18:53:22Z,334258.907,NULL,Verzögerung,kuchelewa,d,NA,NA,NA,NA,sdfdsf,NA,1,NA,NA,NA,NA,NA,NA,NA,NA,NA,NA,NA,NA,NA,NA,NA,NA,NA,NA,NA
7b792,deep,flow.Sequence,3_0_1_0_7_0,NA,NA,skipped,NA,334254.4,NA,NA,334250.574,334254.5,2023-01-20T18:53:22Z,334258.907,NULL,Aufstand,ugomaji,s,mazidio,msingi,kujieleza,NA,sdfdsf,NA,1,NA,NA,NA,NA,NA,NA,NA,NA,NA,NA,NA,NA,NA,NA,NA,NA,NA,NA,NA
7b792,Shallow Question,html.Page,3_0_1_0_7_1_0,NA,NA,form submission,9371.8929999998,334254.8,334250.574,334258.907,343630.8,343631.3,2023-01-20T18:53:31Z,343638.112,NULL,Aufstand,ugomaji,s,mazidio,msingi,kujieleza,ugomaji,NA,NA,1,NA,NA,NA,NA,NA,NA,NA,NA,NA,NA,NA,NA,NA,NA,NA,NA,NA,NA,NA
7b792,"""Richtig""-Screen",canvas.Screen,3_0_1_0_7_1_1,NA,NA,timeout,4999.8,343634.6,343621.446,343638.112,348629.579,348631.7,2023-01-20T18:53:36Z,348637.912,NULL,Aufstand,ugomaji,s,mazidio,msingi,kujieleza,NA,sdfdsf,1,1,NA,NA,NA,NA,NA,NA,NA,NA,NA,NA,NA,NA,NA,NA,NA,NA,NA,NA,NA
7b792,"""Falsch""-Screen",canvas.Screen,3_0_1_0_7_1_2,NA,NA,skipped,NA,348636,NA,NA,348629.579,348636.3,2023-01-20T18:53:36Z,348637.912,NULL,Aufstand,ugomaji,s,mazidio,msingi,kujieleza,NA,sdfdsf,NA,1,NA,NA,NA,NA,NA,NA,NA,NA,NA,NA,NA,NA,NA,NA,NA,NA,NA,NA,NA
7b792,shallow,flow.Sequence,3_0_1_0_7_1,NA,NA,completion,14370.672,334254.7,334250.574,334258.907,348629.579,348636.4,2023-01-20T18:53:36Z,348637.912,NULL,Aufstand,ugomaji,s,mazidio,msingi,kujieleza,NA,sdfdsf,NA,1,NA,NA,NA,NA,NA,NA,NA,NA,NA,NA,NA,NA,NA,NA,NA,NA,NA,NA,NA
7b792,task,flow.Sequence,3_0_1_0_7,NA,NA,completion,14370.672,334254.3,334250.574,334258.907,348629.579,348636.5,2023-01-20T18:53:36Z,348637.912,NULL,Aufstand,ugomaji,s,mazidio,msingi,kujieleza,NA,sdfdsf,NA,1,NA,NA,NA,NA,NA,NA,NA,NA,NA,NA,NA,NA,NA,NA,NA,NA,NA,NA,NA
7b792,block,flow.Loop,3_0_1_0,NA,NA,completion,92416.41,256212,256204.836,256213.169,348629.579,348636.6,2023-01-20T18:53:36Z,348637.912,NULL,NA,NA,NA,NA,NA,NA,NA,sdfdsf,NA,1,NA,NA,NA,NA,NA,NA,NA,NA,NA,NA,NA,NA,NA,NA,NA,NA,NA,NA,NA
7b792,weiter,canvas.Screen,3_0_1_1,sdf,keypress(Space),response,1613.3879999998,348636.7,348629.579,348637.912,350251.3,350259.5,2023-01-20T18:53:38Z,350288.309,NULL,NA,NA,NA,NA,NA,NA,NA,sdfdsf,NA,1,NA,NA,NA,NA,NA,NA,NA,NA,NA,NA,NA,NA,NA,NA,NA,NA,NA,NA,NA
7b792,check continue,flow.Sequence,3_0_1,NA,NA,completion,94038.131,256212,256204.836,256213.169,350251.3,350260,2023-01-20T18:53:38Z,350288.309,NULL,NA,NA,NA,NA,NA,NA,NA,sdfdsf,NA,1,NA,NA,NA,NA,NA,NA,NA,NA,NA,NA,NA,NA,NA,NA,NA,NA,NA,NA,NA
7b792,deep,flow.Sequence,3_0_2_0_0_0,NA,NA,skipped,NA,350282.4,NA,NA,350251.3,350282.4,2023-01-20T18:53:38Z,350288.309,NULL,Aufstand,ugomaji,s,mazidio,msingi,kujieleza,NA,sdf,NA,2,NA,NA,NA,NA,NA,NA,NA,NA,NA,NA,NA,NA,NA,NA,NA,NA,NA,NA,NA
7b792,Shallow Question,html.Page,3_0_2_0_0_1_0,NA,NA,form submission,3977.5910000004,350282.5,350279.976,350288.309,354265.9,354266.8,2023-01-20T18:53:42Z,354271.483,NULL,Aufstand,ugomaji,s,mazidio,msingi,kujieleza,ugomaji,NA,NA,2,NA,NA,NA,NA,NA,NA,NA,NA,NA,NA,NA,NA,NA,NA,NA,NA,NA,NA,NA
7b792,"""Richtig""-Screen",canvas.Screen,3_0_2_0_0_1_1,NA,NA,timeout,4999.8,354270,354263.15,354271.483,359262.95,359265,2023-01-20T18:53:47Z,359271.283,NULL,Aufstand,ugomaji,s,mazidio,msingi,kujieleza,NA,sdf,1,2,NA,NA,NA,NA,NA,NA,NA,NA,NA,NA,NA,NA,NA,NA,NA,NA,NA,NA,NA
7b792,"""Falsch""-Screen",canvas.Screen,3_0_2_0_0_1_2,NA,NA,skipped,NA,359269.7,NA,NA,359262.95,359270,2023-01-20T18:53:47Z,359271.283,NULL,Aufstand,ugomaji,s,mazidio,msingi,kujieleza,NA,sdf,NA,2,NA,NA,NA,NA,NA,NA,NA,NA,NA,NA,NA,NA,NA,NA,NA,NA,NA,NA,NA
7b792,shallow,flow.Sequence,3_0_2_0_0_1,NA,NA,completion,8974.641,350282.5,350279.976,350288.309,359262.95,359270.1,2023-01-20T18:53:47Z,359271.283,NULL,Aufstand,ugomaji,s,mazidio,msingi,kujieleza,NA,sdf,NA,2,NA,NA,NA,NA,NA,NA,NA,NA,NA,NA,NA,NA,NA,NA,NA,NA,NA,NA,NA
7b792,task,flow.Sequence,3_0_2_0_0,NA,NA,completion,8974.641,350282.4,350279.976,350288.309,359262.95,359270.3,2023-01-20T18:53:47Z,359271.283,NULL,Aufstand,ugomaji,s,mazidio,msingi,kujieleza,NA,sdf,NA,2,NA,NA,NA,NA,NA,NA,NA,NA,NA,NA,NA,NA,NA,NA,NA,NA,NA,NA,NA
7b792,deep,flow.Sequence,3_0_2_0_1_0,NA,NA,skipped,NA,359270.3,NA,NA,359262.95,359270.4,2023-01-20T18:53:47Z,359271.283,NULL,Fleisch,mshakiki,s,kizunguzungu,mshikamano,angusho,NA,sdf,NA,2,NA,NA,NA,NA,NA,NA,NA,NA,NA,NA,NA,NA,NA,NA,NA,NA,NA,NA,NA
7b792,Shallow Question,html.Page,3_0_2_0_1_1_0,NA,NA,form submission,3844.5169999998,359270.5,359262.95,359271.283,363115.8,363116.4,2023-01-20T18:53:50Z,363125.722,NULL,Fleisch,mshakiki,s,kizunguzungu,mshikamano,angusho,mshakiki,NA,NA,2,NA,NA,NA,NA,NA,NA,NA,NA,NA,NA,NA,NA,NA,NA,NA,NA,NA,NA,NA
7b792,"""Richtig""-Screen",canvas.Screen,3_0_2_0_1_1_1,NA,NA,timeout,4999.8,363119.1,363109.056,363125.722,368117.189,368118.6,2023-01-20T18:53:55Z,368125.522,NULL,Fleisch,mshakiki,s,kizunguzungu,mshikamano,angusho,NA,sdf,1,2,NA,NA,NA,NA,NA,NA,NA,NA,NA,NA,NA,NA,NA,NA,NA,NA,NA,NA,NA
7b792,"""Falsch""-Screen",canvas.Screen,3_0_2_0_1_1_2,NA,NA,skipped,NA,368122.9,NA,NA,368117.189,368123.1,2023-01-20T18:53:55Z,368125.522,NULL,Fleisch,mshakiki,s,kizunguzungu,mshikamano,angusho,NA,sdf,NA,2,NA,NA,NA,NA,NA,NA,NA,NA,NA,NA,NA,NA,NA,NA,NA,NA,NA,NA,NA
7b792,shallow,flow.Sequence,3_0_2_0_1_1,NA,NA,completion,8845.906,359270.5,359262.95,359271.283,368117.189,368123.3,2023-01-20T18:53:55Z,368125.522,NULL,Fleisch,mshakiki,s,kizunguzungu,mshikamano,angusho,NA,sdf,NA,2,NA,NA,NA,NA,NA,NA,NA,NA,NA,NA,NA,NA,NA,NA,NA,NA,NA,NA,NA
7b792,task,flow.Sequence,3_0_2_0_1,NA,NA,completion,8845.906,359270.3,359262.95,359271.283,368117.189,368123.4,2023-01-20T18:53:55Z,368125.522,NULL,Fleisch,mshakiki,s,kizunguzungu,mshikamano,angusho,NA,sdf,NA,2,NA,NA,NA,NA,NA,NA,NA,NA,NA,NA,NA,NA,NA,NA,NA,NA,NA,NA,NA
7b792,Deep Question,html.Page,3_0_2_0_2_0_0,NA,NA,form submission,4282.7779999998,368123.6,368117.189,368125.522,372408.3,372409.1,2023-01-20T18:54:00Z,372417.426,NULL,Begegnung,kukutana,d,NA,NA,NA,kasha,NA,NA,2,NA,NA,NA,NA,NA,NA,NA,NA,NA,NA,NA,NA,NA,NA,NA,NA,NA,NA,NA
7b792,"""Richtig""-Screen",canvas.Screen,3_0_2_0_2_0_1,NA,NA,skipped,NA,372412.1,NA,NA,372408.3,372412.2,2023-01-20T18:54:00Z,372417.426,NULL,Begegnung,kukutana,d,NA,NA,NA,NA,sdf,NA,2,NA,NA,NA,NA,NA,NA,NA,NA,NA,NA,NA,NA,NA,NA,NA,NA,NA,NA,NA
7b792,"""Falsch""-Screen",canvas.Screen,3_0_2_0_2_0_2,NA,NA,timeout,4999.8,372412.8,372400.76,372417.426,377408.893,377411.3,2023-01-20T18:54:05Z,377417.226,NULL,Begegnung,kukutana,d,NA,NA,NA,NA,sdf,0,2,NA,NA,NA,NA,NA,NA,NA,NA,NA,NA,NA,NA,NA,NA,NA,NA,NA,NA,NA
7b792,deep,flow.Sequence,3_0_2_0_2_0,NA,NA,completion,9283.371,368123.5,368117.189,368125.522,377408.893,377411.8,2023-01-20T18:54:05Z,377417.226,NULL,Begegnung,kukutana,d,NA,NA,NA,NA,sdf,NA,2,NA,NA,NA,NA,NA,NA,NA,NA,NA,NA,NA,NA,NA,NA,NA,NA,NA,NA,NA
7b792,shallow,flow.Sequence,3_0_2_0_2_1,NA,NA,skipped,NA,377412,NA,NA,377408.893,377412.2,2023-01-20T18:54:05Z,377417.226,NULL,Begegnung,kukutana,d,NA,NA,NA,NA,sdf,NA,2,NA,NA,NA,NA,NA,NA,NA,NA,NA,NA,NA,NA,NA,NA,NA,NA,NA,NA,NA
7b792,task,flow.Sequence,3_0_2_0_2,NA,NA,completion,9283.371,368123.5,368117.189,368125.522,377408.893,377412.3,2023-01-20T18:54:05Z,377417.226,NULL,Begegnung,kukutana,d,NA,NA,NA,NA,sdf,NA,2,NA,NA,NA,NA,NA,NA,NA,NA,NA,NA,NA,NA,NA,NA,NA,NA,NA,NA,NA
7b792,deep,flow.Sequence,3_0_2_0_3_0,NA,NA,skipped,NA,377412.5,NA,NA,377408.893,377412.6,2023-01-20T18:54:05Z,377417.226,NULL,Integrität,uadilifu,s,muungano,mtiririko,upunguaji,NA,sdf,NA,2,NA,NA,NA,NA,NA,NA,NA,NA,NA,NA,NA,NA,NA,NA,NA,NA,NA,NA,NA
7b792,Shallow Question,html.Page,3_0_2_0_3_1_0,NA,NA,form submission,6887.4740000002,377412.7,377408.893,377417.226,384304.7,384305.2,2023-01-20T18:54:12Z,384309.111,NULL,Integrität,uadilifu,s,muungano,mtiririko,upunguaji,uadilifu,NA,NA,2,NA,NA,NA,NA,NA,NA,NA,NA,NA,NA,NA,NA,NA,NA,NA,NA,NA,NA,NA
7b792,"""Richtig""-Screen",canvas.Screen,3_0_2_0_3_1_1,NA,NA,timeout,4999.8,384308,384300.778,384309.111,389300.578,389302.9,2023-01-20T18:54:17Z,389308.911,NULL,Integrität,uadilifu,s,muungano,mtiririko,upunguaji,NA,sdf,1,2,NA,NA,NA,NA,NA,NA,NA,NA,NA,NA,NA,NA,NA,NA,NA,NA,NA,NA,NA
7b792,"""Falsch""-Screen",canvas.Screen,3_0_2_0_3_1_2,NA,NA,skipped,NA,389308,NA,NA,389300.578,389308.2,2023-01-20T18:54:17Z,389308.911,NULL,Integrität,uadilifu,s,muungano,mtiririko,upunguaji,NA,sdf,NA,2,NA,NA,NA,NA,NA,NA,NA,NA,NA,NA,NA,NA,NA,NA,NA,NA,NA,NA,NA
7b792,shallow,flow.Sequence,3_0_2_0_3_1,NA,NA,completion,11883.352,377412.7,377408.893,377417.226,389300.578,389308.4,2023-01-20T18:54:17Z,389308.911,NULL,Integrität,uadilifu,s,muungano,mtiririko,upunguaji,NA,sdf,NA,2,NA,NA,NA,NA,NA,NA,NA,NA,NA,NA,NA,NA,NA,NA,NA,NA,NA,NA,NA
7b792,task,flow.Sequence,3_0_2_0_3,NA,NA,completion,11883.352,377412.4,377408.893,377417.226,389300.578,389308.5,2023-01-20T18:54:17Z,389308.911,NULL,Integrität,uadilifu,s,muungano,mtiririko,upunguaji,NA,sdf,NA,2,NA,NA,NA,NA,NA,NA,NA,NA,NA,NA,NA,NA,NA,NA,NA,NA,NA,NA,NA
7b792,deep,flow.Sequence,3_0_2_0_4_0,NA,NA,skipped,NA,389308.6,NA,NA,389300.578,389308.6,2023-01-20T18:54:17Z,389308.911,NULL,Prüfung,mtihani,s,mkulima,mtizamo,ufumbuzi,NA,sdf,NA,2,NA,NA,NA,NA,NA,NA,NA,NA,NA,NA,NA,NA,NA,NA,NA,NA,NA,NA,NA
7b792,Shallow Question,html.Page,3_0_2_0_4_1_0,NA,NA,form submission,8176.3889999998,389308.7,389300.578,389308.911,397485.3,397485.8,2023-01-20T18:54:25Z,397492.391,NULL,Prüfung,mtihani,s,mkulima,mtizamo,ufumbuzi,mtihani,NA,NA,2,NA,NA,NA,NA,NA,NA,NA,NA,NA,NA,NA,NA,NA,NA,NA,NA,NA,NA,NA
7b792,"""Richtig""-Screen",canvas.Screen,3_0_2_0_4_1_1,NA,NA,timeout,4999.8,397488.5,397475.725,397492.391,402483.858,402486.4,2023-01-20T18:54:30Z,402492.191,NULL,Prüfung,mtihani,s,mkulima,mtizamo,ufumbuzi,NA,sdf,1,2,NA,NA,NA,NA,NA,NA,NA,NA,NA,NA,NA,NA,NA,NA,NA,NA,NA,NA,NA
7b792,"""Falsch""-Screen",canvas.Screen,3_0_2_0_4_1_2,NA,NA,skipped,NA,402491.3,NA,NA,402483.858,402491.6,2023-01-20T18:54:30Z,402492.191,NULL,Prüfung,mtihani,s,mkulima,mtizamo,ufumbuzi,NA,sdf,NA,2,NA,NA,NA,NA,NA,NA,NA,NA,NA,NA,NA,NA,NA,NA,NA,NA,NA,NA,NA
7b792,shallow,flow.Sequence,3_0_2_0_4_1,NA,NA,completion,13174.947,389308.7,389300.578,389308.911,402483.858,402491.8,2023-01-20T18:54:30Z,402492.191,NULL,Prüfung,mtihani,s,mkulima,mtizamo,ufumbuzi,NA,sdf,NA,2,NA,NA,NA,NA,NA,NA,NA,NA,NA,NA,NA,NA,NA,NA,NA,NA,NA,NA,NA
7b792,task,flow.Sequence,3_0_2_0_4,NA,NA,completion,13174.947,389308.6,389300.578,389308.911,402483.858,402491.9,2023-01-20T18:54:30Z,402492.191,NULL,Prüfung,mtihani,s,mkulima,mtizamo,ufumbuzi,NA,sdf,NA,2,NA,NA,NA,NA,NA,NA,NA,NA,NA,NA,NA,NA,NA,NA,NA,NA,NA,NA,NA
7b792,Deep Question,html.Page,3_0_2_0_5_0_0,NA,NA,form submission,7632.809,402492,402483.858,402492.191,410125,410125.1,2023-01-20T18:54:37Z,410129.775,NULL,Kultur,utamaduni,d,NA,NA,NA,idifiu,NA,NA,2,NA,NA,NA,NA,NA,NA,NA,NA,NA,NA,NA,NA,NA,NA,NA,NA,NA,NA,NA
7b792,"""Richtig""-Screen",canvas.Screen,3_0_2_0_5_0_1,NA,NA,skipped,NA,410126,NA,NA,410125,410126.1,2023-01-20T18:54:37Z,410129.775,NULL,Kultur,utamaduni,d,NA,NA,NA,NA,sdf,NA,2,NA,NA,NA,NA,NA,NA,NA,NA,NA,NA,NA,NA,NA,NA,NA,NA,NA,NA,NA
7b792,"""Falsch""-Screen",canvas.Screen,3_0_2_0_5_0_2,NA,NA,timeout,4999.8,410126.3,410121.442,410129.775,415121.242,415124,2023-01-20T18:54:42Z,415129.575,NULL,Kultur,utamaduni,d,NA,NA,NA,NA,sdf,0,2,NA,NA,NA,NA,NA,NA,NA,NA,NA,NA,NA,NA,NA,NA,NA,NA,NA,NA,NA
7b792,deep,flow.Sequence,3_0_2_0_5_0,NA,NA,completion,12629.051,402492,402483.858,402492.191,415121.242,415124.5,2023-01-20T18:54:42Z,415129.575,NULL,Kultur,utamaduni,d,NA,NA,NA,NA,sdf,NA,2,NA,NA,NA,NA,NA,NA,NA,NA,NA,NA,NA,NA,NA,NA,NA,NA,NA,NA,NA
7b792,shallow,flow.Sequence,3_0_2_0_5_1,NA,NA,skipped,NA,415124.6,NA,NA,415121.242,415124.8,2023-01-20T18:54:42Z,415129.575,NULL,Kultur,utamaduni,d,NA,NA,NA,NA,sdf,NA,2,NA,NA,NA,NA,NA,NA,NA,NA,NA,NA,NA,NA,NA,NA,NA,NA,NA,NA,NA
7b792,task,flow.Sequence,3_0_2_0_5,NA,NA,completion,12629.051,402492,402483.858,402492.191,415121.242,415124.9,2023-01-20T18:54:42Z,415129.575,NULL,Kultur,utamaduni,d,NA,NA,NA,NA,sdf,NA,2,NA,NA,NA,NA,NA,NA,NA,NA,NA,NA,NA,NA,NA,NA,NA,NA,NA,NA,NA
7b792,Deep Question,html.Page,3_0_2_0_6_0_0,NA,NA,form submission,5269.7249999998,415125.2,415121.242,415129.575,420399.3,420400.1,2023-01-20T18:54:48Z,420404.812,NULL,Genehmigung,idhini,d,NA,NA,NA,kaduauda,NA,NA,2,NA,NA,NA,NA,NA,NA,NA,NA,NA,NA,NA,NA,NA,NA,NA,NA,NA,NA,NA
7b792,"""Richtig""-Screen",canvas.Screen,3_0_2_0_6_0_1,NA,NA,skipped,NA,420404.3,NA,NA,420399.3,420404.4,2023-01-20T18:54:48Z,420404.812,NULL,Genehmigung,idhini,d,NA,NA,NA,NA,sdf,NA,2,NA,NA,NA,NA,NA,NA,NA,NA,NA,NA,NA,NA,NA,NA,NA,NA,NA,NA,NA
7b792,"""Falsch""-Screen",canvas.Screen,3_0_2_0_6_0_2,NA,NA,timeout,4999.8,420405.2,420396.479,420404.812,425396.279,425398.8,2023-01-20T18:54:53Z,425404.612,NULL,Genehmigung,idhini,d,NA,NA,NA,NA,sdf,0,2,NA,NA,NA,NA,NA,NA,NA,NA,NA,NA,NA,NA,NA,NA,NA,NA,NA,NA,NA
7b792,deep,flow.Sequence,3_0_2_0_6_0,NA,NA,completion,10266.704,415125.1,415121.242,415129.575,425396.279,425399.5,2023-01-20T18:54:53Z,425404.612,NULL,Genehmigung,idhini,d,NA,NA,NA,NA,sdf,NA,2,NA,NA,NA,NA,NA,NA,NA,NA,NA,NA,NA,NA,NA,NA,NA,NA,NA,NA,NA
7b792,shallow,flow.Sequence,3_0_2_0_6_1,NA,NA,skipped,NA,425399.5,NA,NA,425396.279,425399.7,2023-01-20T18:54:53Z,425404.612,NULL,Genehmigung,idhini,d,NA,NA,NA,NA,sdf,NA,2,NA,NA,NA,NA,NA,NA,NA,NA,NA,NA,NA,NA,NA,NA,NA,NA,NA,NA,NA
7b792,task,flow.Sequence,3_0_2_0_6,NA,NA,completion,10266.704,415125.1,415121.242,415129.575,425396.279,425399.9,2023-01-20T18:54:53Z,425404.612,NULL,Genehmigung,idhini,d,NA,NA,NA,NA,sdf,NA,2,NA,NA,NA,NA,NA,NA,NA,NA,NA,NA,NA,NA,NA,NA,NA,NA,NA,NA,NA
7b792,Deep Question,html.Page,3_0_2_0_7_0_0,NA,NA,form submission,4369.888,425400.1,425396.279,425404.612,429774.5,429775,2023-01-20T18:54:57Z,429783.997,NULL,Verzögerung,kuchelewa,d,NA,NA,NA,ididini,NA,NA,2,NA,NA,NA,NA,NA,NA,NA,NA,NA,NA,NA,NA,NA,NA,NA,NA,NA,NA,NA
7b792,"""Richtig""-Screen",canvas.Screen,3_0_2_0_7_0_1,NA,NA,skipped,NA,429778.7,NA,NA,429774.5,429778.7,2023-01-20T18:54:57Z,429783.997,NULL,Verzögerung,kuchelewa,d,NA,NA,NA,NA,sdf,NA,2,NA,NA,NA,NA,NA,NA,NA,NA,NA,NA,NA,NA,NA,NA,NA,NA,NA,NA,NA
7b792,"""Falsch""-Screen",canvas.Screen,3_0_2_0_7_0_2,NA,NA,timeout,4999.8,429779.4,429767.331,429783.997,434775.464,434778.2,2023-01-20T18:55:02Z,434783.797,NULL,Verzögerung,kuchelewa,d,NA,NA,NA,NA,sdf,0,2,NA,NA,NA,NA,NA,NA,NA,NA,NA,NA,NA,NA,NA,NA,NA,NA,NA,NA,NA
7b792,deep,flow.Sequence,3_0_2_0_7_0,NA,NA,completion,9370.852,425400,425396.279,425404.612,434775.464,434778.8,2023-01-20T18:55:02Z,434783.797,NULL,Verzögerung,kuchelewa,d,NA,NA,NA,NA,sdf,NA,2,NA,NA,NA,NA,NA,NA,NA,NA,NA,NA,NA,NA,NA,NA,NA,NA,NA,NA,NA
7b792,shallow,flow.Sequence,3_0_2_0_7_1,NA,NA,skipped,NA,434779,NA,NA,434775.464,434779.1,2023-01-20T18:55:02Z,434783.797,NULL,Verzögerung,kuchelewa,d,NA,NA,NA,NA,sdf,NA,2,NA,NA,NA,NA,NA,NA,NA,NA,NA,NA,NA,NA,NA,NA,NA,NA,NA,NA,NA
7b792,task,flow.Sequence,3_0_2_0_7,NA,NA,completion,9370.852,425399.9,425396.279,425404.612,434775.464,434779.3,2023-01-20T18:55:02Z,434783.797,NULL,Verzögerung,kuchelewa,d,NA,NA,NA,NA,sdf,NA,2,NA,NA,NA,NA,NA,NA,NA,NA,NA,NA,NA,NA,NA,NA,NA,NA,NA,NA,NA
7b792,block,flow.Loop,3_0_2_0,NA,NA,completion,84487.155,350282.4,350279.976,350288.309,434775.464,434779.5,2023-01-20T18:55:02Z,434783.797,NULL,NA,NA,NA,NA,NA,NA,NA,sdf,NA,2,NA,NA,NA,NA,NA,NA,NA,NA,NA,NA,NA,NA,NA,NA,NA,NA,NA,NA,NA
7b792,weiter,canvas.Screen,3_0_2_1,sdf,keypress(Space),response,1192.203,434779.5,434775.464,434783.797,435976,435985.9,2023-01-20T18:55:03Z,436008.748,NULL,NA,NA,NA,NA,NA,NA,NA,sdf,NA,2,NA,NA,NA,NA,NA,NA,NA,NA,NA,NA,NA,NA,NA,NA,NA,NA,NA,NA,NA
7b792,check continue,flow.Sequence,3_0_2,NA,NA,completion,85687.691,350282.3,350279.976,350288.309,435976,435986.2,2023-01-20T18:55:03Z,436008.748,NULL,NA,NA,NA,NA,NA,NA,NA,sdf,NA,2,NA,NA,NA,NA,NA,NA,NA,NA,NA,NA,NA,NA,NA,NA,NA,NA,NA,NA,NA
7b792,deep,flow.Sequence,3_0_3_0_0_0,NA,NA,skipped,NA,436008.2,NA,NA,435976,436008.3,2023-01-20T18:55:03Z,436008.748,NULL,Aufstand,ugomaji,s,mazidio,msingi,kujieleza,NA,qt,NA,3,NA,NA,NA,NA,NA,NA,NA,NA,NA,NA,NA,NA,NA,NA,NA,NA,NA,NA,NA
7b792,Shallow Question,html.Page,3_0_3_0_0_1_0,NA,NA,form submission,5375.9520000002,436008.4,436000.415,436008.748,441384.7,441385.5,2023-01-20T18:55:09Z,441388.085,NULL,Aufstand,ugomaji,s,mazidio,msingi,kujieleza,ugomaji,NA,NA,3,NA,NA,NA,NA,NA,NA,NA,NA,NA,NA,NA,NA,NA,NA,NA,NA,NA,NA,NA
7b792,"""Richtig""-Screen",canvas.Screen,3_0_3_0_0_1_1,NA,NA,timeout,4999.8,441388.6,441379.752,441388.085,446379.552,446381.8,2023-01-20T18:55:14Z,446387.885,NULL,Aufstand,ugomaji,s,mazidio,msingi,kujieleza,NA,qt,1,3,NA,NA,NA,NA,NA,NA,NA,NA,NA,NA,NA,NA,NA,NA,NA,NA,NA,NA,NA
7b792,"""Falsch""-Screen",canvas.Screen,3_0_3_0_0_1_2,NA,NA,skipped,NA,446386.9,NA,NA,446379.552,446387.2,2023-01-20T18:55:14Z,446387.885,NULL,Aufstand,ugomaji,s,mazidio,msingi,kujieleza,NA,qt,NA,3,NA,NA,NA,NA,NA,NA,NA,NA,NA,NA,NA,NA,NA,NA,NA,NA,NA,NA,NA
7b792,shallow,flow.Sequence,3_0_3_0_0_1,NA,NA,completion,10370.804,436008.4,436000.415,436008.748,446379.552,446387.4,2023-01-20T18:55:14Z,446387.885,NULL,Aufstand,ugomaji,s,mazidio,msingi,kujieleza,NA,qt,NA,3,NA,NA,NA,NA,NA,NA,NA,NA,NA,NA,NA,NA,NA,NA,NA,NA,NA,NA,NA
7b792,task,flow.Sequence,3_0_3_0_0,NA,NA,completion,10370.804,436008.2,436000.415,436008.748,446379.552,446387.4,2023-01-20T18:55:14Z,446387.885,NULL,Aufstand,ugomaji,s,mazidio,msingi,kujieleza,NA,qt,NA,3,NA,NA,NA,NA,NA,NA,NA,NA,NA,NA,NA,NA,NA,NA,NA,NA,NA,NA,NA
7b792,Deep Question,html.Page,3_0_3_0_1_0_0,NA,NA,form submission,7543.5150000004,446387.6,446379.552,446387.885,453931.4,453932.1,2023-01-20T18:55:21Z,453942.151,NULL,Kultur,utamaduni,d,NA,NA,NA,kuchelewa,NA,NA,3,NA,NA,NA,NA,NA,NA,NA,NA,NA,NA,NA,NA,NA,NA,NA,NA,NA,NA,NA
7b792,"""Richtig""-Screen",canvas.Screen,3_0_3_0_1_0_1,NA,NA,skipped,NA,453935.8,NA,NA,453931.4,453936,2023-01-20T18:55:21Z,453942.151,NULL,Kultur,utamaduni,d,NA,NA,NA,NA,qt,NA,3,NA,NA,NA,NA,NA,NA,NA,NA,NA,NA,NA,NA,NA,NA,NA,NA,NA,NA,NA
7b792,"""Falsch""-Screen",canvas.Screen,3_0_3_0_1_0_2,NA,NA,timeout,4999.8,453936.6,453925.485,453942.151,458933.618,458936.3,2023-01-20T18:55:26Z,458941.951,NULL,Kultur,utamaduni,d,NA,NA,NA,NA,qt,0,3,NA,NA,NA,NA,NA,NA,NA,NA,NA,NA,NA,NA,NA,NA,NA,NA,NA,NA,NA
7b792,deep,flow.Sequence,3_0_3_0_1_0,NA,NA,completion,12545.733,446387.6,446379.552,446387.885,458933.618,458936.7,2023-01-20T18:55:26Z,458941.951,NULL,Kultur,utamaduni,d,NA,NA,NA,NA,qt,NA,3,NA,NA,NA,NA,NA,NA,NA,NA,NA,NA,NA,NA,NA,NA,NA,NA,NA,NA,NA
7b792,shallow,flow.Sequence,3_0_3_0_1_1,NA,NA,skipped,NA,458936.9,NA,NA,458933.618,458937.1,2023-01-20T18:55:26Z,458941.951,NULL,Kultur,utamaduni,d,NA,NA,NA,NA,qt,NA,3,NA,NA,NA,NA,NA,NA,NA,NA,NA,NA,NA,NA,NA,NA,NA,NA,NA,NA,NA
7b792,task,flow.Sequence,3_0_3_0_1,NA,NA,completion,12545.733,446387.6,446379.552,446387.885,458933.618,458937.3,2023-01-20T18:55:26Z,458941.951,NULL,Kultur,utamaduni,d,NA,NA,NA,NA,qt,NA,3,NA,NA,NA,NA,NA,NA,NA,NA,NA,NA,NA,NA,NA,NA,NA,NA,NA,NA,NA
7b792,deep,flow.Sequence,3_0_3_0_2_0,NA,NA,skipped,NA,458937.5,NA,NA,458933.618,458937.6,2023-01-20T18:55:26Z,458941.951,NULL,Integrität,uadilifu,s,muungano,mtiririko,upunguaji,NA,qt,NA,3,NA,NA,NA,NA,NA,NA,NA,NA,NA,NA,NA,NA,NA,NA,NA,NA,NA,NA,NA
7b792,Shallow Question,html.Page,3_0_3_0_2_1_0,NA,NA,form submission,6228.2490000002,458937.6,458933.618,458941.951,465170.2,465170.7,2023-01-20T18:55:32Z,465175.457,NULL,Integrität,uadilifu,s,muungano,mtiririko,upunguaji,uadilifu,NA,NA,3,NA,NA,NA,NA,NA,NA,NA,NA,NA,NA,NA,NA,NA,NA,NA,NA,NA,NA,NA
7b792,"""Richtig""-Screen",canvas.Screen,3_0_3_0_2_1_1,NA,NA,timeout,4999.8,465174.2,465167.124,465175.457,470166.924,470169.5,2023-01-20T18:55:37Z,470175.257,NULL,Integrität,uadilifu,s,muungano,mtiririko,upunguaji,NA,qt,1,3,NA,NA,NA,NA,NA,NA,NA,NA,NA,NA,NA,NA,NA,NA,NA,NA,NA,NA,NA
7b792,"""Falsch""-Screen",canvas.Screen,3_0_3_0_2_1_2,NA,NA,skipped,NA,470173.9,NA,NA,470166.924,470174.1,2023-01-20T18:55:37Z,470175.257,NULL,Integrität,uadilifu,s,muungano,mtiririko,upunguaji,NA,qt,NA,3,NA,NA,NA,NA,NA,NA,NA,NA,NA,NA,NA,NA,NA,NA,NA,NA,NA,NA,NA
7b792,shallow,flow.Sequence,3_0_3_0_2_1,NA,NA,completion,11224.973,458937.6,458933.618,458941.951,470166.924,470174.4,2023-01-20T18:55:37Z,470175.257,NULL,Integrität,uadilifu,s,muungano,mtiririko,upunguaji,NA,qt,NA,3,NA,NA,NA,NA,NA,NA,NA,NA,NA,NA,NA,NA,NA,NA,NA,NA,NA,NA,NA
7b792,task,flow.Sequence,3_0_3_0_2,NA,NA,completion,11224.973,458937.3,458933.618,458941.951,470166.924,470174.4,2023-01-20T18:55:37Z,470175.257,NULL,Integrität,uadilifu,s,muungano,mtiririko,upunguaji,NA,qt,NA,3,NA,NA,NA,NA,NA,NA,NA,NA,NA,NA,NA,NA,NA,NA,NA,NA,NA,NA,NA
7b792,deep,flow.Sequence,3_0_3_0_3_0,NA,NA,skipped,NA,470174.5,NA,NA,470166.924,470174.6,2023-01-20T18:55:37Z,470175.257,NULL,Prüfung,mtihani,s,mkulima,mtizamo,ufumbuzi,NA,qt,NA,3,NA,NA,NA,NA,NA,NA,NA,NA,NA,NA,NA,NA,NA,NA,NA,NA,NA,NA,NA
7b792,Shallow Question,html.Page,3_0_3_0_3_1_0,NA,NA,form submission,4896.9430000002,470174.6,470166.924,470175.257,475072.2,475073.1,2023-01-20T18:55:42Z,475083.808,NULL,Prüfung,mtihani,s,mkulima,mtizamo,ufumbuzi,mtihani,NA,NA,3,NA,NA,NA,NA,NA,NA,NA,NA,NA,NA,NA,NA,NA,NA,NA,NA,NA,NA,NA
7b792,"""Richtig""-Screen",canvas.Screen,3_0_3_0_3_1_1,NA,NA,timeout,4999.8,475076.9,475067.142,475083.808,480075.275,480078.2,2023-01-20T18:55:47Z,480083.608,NULL,Prüfung,mtihani,s,mkulima,mtizamo,ufumbuzi,NA,qt,1,3,NA,NA,NA,NA,NA,NA,NA,NA,NA,NA,NA,NA,NA,NA,NA,NA,NA,NA,NA
7b792,"""Falsch""-Screen",canvas.Screen,3_0_3_0_3_1_2,NA,NA,skipped,NA,480083,NA,NA,480075.275,480083.1,2023-01-20T18:55:47Z,480083.608,NULL,Prüfung,mtihani,s,mkulima,mtizamo,ufumbuzi,NA,qt,NA,3,NA,NA,NA,NA,NA,NA,NA,NA,NA,NA,NA,NA,NA,NA,NA,NA,NA,NA,NA
7b792,shallow,flow.Sequence,3_0_3_0_3_1,NA,NA,completion,9900.018,470174.6,470166.924,470175.257,480075.275,480083.4,2023-01-20T18:55:47Z,480083.608,NULL,Prüfung,mtihani,s,mkulima,mtizamo,ufumbuzi,NA,qt,NA,3,NA,NA,NA,NA,NA,NA,NA,NA,NA,NA,NA,NA,NA,NA,NA,NA,NA,NA,NA
7b792,task,flow.Sequence,3_0_3_0_3,NA,NA,completion,9900.018,470174.5,470166.924,470175.257,480075.275,480083.5,2023-01-20T18:55:47Z,480083.608,NULL,Prüfung,mtihani,s,mkulima,mtizamo,ufumbuzi,NA,qt,NA,3,NA,NA,NA,NA,NA,NA,NA,NA,NA,NA,NA,NA,NA,NA,NA,NA,NA,NA,NA
7b792,Deep Question,html.Page,3_0_3_0_4_0_0,NA,NA,form submission,12209.992,480083.6,480075.275,480083.608,492293.6,492294.1,2023-01-20T18:56:00Z,492304.408,NULL,Begegnung,kukutana,d,NA,NA,NA,idini,NA,NA,3,NA,NA,NA,NA,NA,NA,NA,NA,NA,NA,NA,NA,NA,NA,NA,NA,NA,NA,NA
7b792,"""Richtig""-Screen",canvas.Screen,3_0_3_0_4_0_1,NA,NA,skipped,NA,492297,NA,NA,492293.6,492297.1,2023-01-20T18:56:00Z,492304.408,NULL,Begegnung,kukutana,d,NA,NA,NA,NA,qt,NA,3,NA,NA,NA,NA,NA,NA,NA,NA,NA,NA,NA,NA,NA,NA,NA,NA,NA,NA,NA
7b792,"""Falsch""-Screen",canvas.Screen,3_0_3_0_4_0_2,NA,NA,timeout,4996.031,492297.9,492296.075,492304.408,497292.106,497293.5,2023-01-20T18:56:05Z,497300.439,NULL,Begegnung,kukutana,d,NA,NA,NA,NA,qt,0,3,NA,NA,NA,NA,NA,NA,NA,NA,NA,NA,NA,NA,NA,NA,NA,NA,NA,NA,NA
7b792,deep,flow.Sequence,3_0_3_0_4_0,NA,NA,completion,17208.498,480083.5,480075.275,480083.608,497292.106,497294.1,2023-01-20T18:56:05Z,497300.439,NULL,Begegnung,kukutana,d,NA,NA,NA,NA,qt,NA,3,NA,NA,NA,NA,NA,NA,NA,NA,NA,NA,NA,NA,NA,NA,NA,NA,NA,NA,NA
7b792,shallow,flow.Sequence,3_0_3_0_4_1,NA,NA,skipped,NA,497294.2,NA,NA,497292.106,497294.4,2023-01-20T18:56:05Z,497300.439,NULL,Begegnung,kukutana,d,NA,NA,NA,NA,qt,NA,3,NA,NA,NA,NA,NA,NA,NA,NA,NA,NA,NA,NA,NA,NA,NA,NA,NA,NA,NA
7b792,task,flow.Sequence,3_0_3_0_4,NA,NA,completion,17208.498,480083.5,480075.275,480083.608,497292.106,497294.5,2023-01-20T18:56:05Z,497300.439,NULL,Begegnung,kukutana,d,NA,NA,NA,NA,qt,NA,3,NA,NA,NA,NA,NA,NA,NA,NA,NA,NA,NA,NA,NA,NA,NA,NA,NA,NA,NA
7b792,Deep Question,html.Page,3_0_3_0_5_0_0,NA,NA,form submission,5494.6609999996,497294.7,497292.106,497300.439,502795.1,502796,2023-01-20T18:56:10Z,502800.608,NULL,Genehmigung,idhini,d,NA,NA,NA,m,NA,NA,3,NA,NA,NA,NA,NA,NA,NA,NA,NA,NA,NA,NA,NA,NA,NA,NA,NA,NA,NA
7b792,"""Richtig""-Screen",canvas.Screen,3_0_3_0_5_0_1,NA,NA,skipped,NA,502800,NA,NA,502795.1,502800.2,2023-01-20T18:56:10Z,502800.608,NULL,Genehmigung,idhini,d,NA,NA,NA,NA,qt,NA,3,NA,NA,NA,NA,NA,NA,NA,NA,NA,NA,NA,NA,NA,NA,NA,NA,NA,NA,NA
7b792,"""Falsch""-Screen",canvas.Screen,3_0_3_0_5_0_2,NA,NA,timeout,4999.8,502800.9,502792.275,502800.608,507792.075,507795.1,2023-01-20T18:56:15Z,507800.408,NULL,Genehmigung,idhini,d,NA,NA,NA,NA,qt,0,3,NA,NA,NA,NA,NA,NA,NA,NA,NA,NA,NA,NA,NA,NA,NA,NA,NA,NA,NA
7b792,deep,flow.Sequence,3_0_3_0_5_0,NA,NA,completion,10491.636,497294.6,497292.106,497300.439,507792.075,507795.4,2023-01-20T18:56:15Z,507800.408,NULL,Genehmigung,idhini,d,NA,NA,NA,NA,qt,NA,3,NA,NA,NA,NA,NA,NA,NA,NA,NA,NA,NA,NA,NA,NA,NA,NA,NA,NA,NA
7b792,shallow,flow.Sequence,3_0_3_0_5_1,NA,NA,skipped,NA,507795.6,NA,NA,507792.075,507795.6,2023-01-20T18:56:15Z,507800.408,NULL,Genehmigung,idhini,d,NA,NA,NA,NA,qt,NA,3,NA,NA,NA,NA,NA,NA,NA,NA,NA,NA,NA,NA,NA,NA,NA,NA,NA,NA,NA
7b792,task,flow.Sequence,3_0_3_0_5,NA,NA,completion,10491.636,497294.6,497292.106,497300.439,507792.075,507795.7,2023-01-20T18:56:15Z,507800.408,NULL,Genehmigung,idhini,d,NA,NA,NA,NA,qt,NA,3,NA,NA,NA,NA,NA,NA,NA,NA,NA,NA,NA,NA,NA,NA,NA,NA,NA,NA,NA
7b792,deep,flow.Sequence,3_0_3_0_6_0,NA,NA,skipped,NA,507795.8,NA,NA,507792.075,507795.8,2023-01-20T18:56:15Z,507800.408,NULL,Fleisch,mshakiki,s,kizunguzungu,mshikamano,angusho,NA,qt,NA,3,NA,NA,NA,NA,NA,NA,NA,NA,NA,NA,NA,NA,NA,NA,NA,NA,NA,NA,NA
7b792,Shallow Question,html.Page,3_0_3_0_6_1_0,NA,NA,form submission,4085.092,507795.9,507792.075,507800.408,511885.5,511886,2023-01-20T18:56:19Z,511891.911,NULL,Fleisch,mshakiki,s,kizunguzungu,mshikamano,angusho,mshakiki,NA,NA,3,NA,NA,NA,NA,NA,NA,NA,NA,NA,NA,NA,NA,NA,NA,NA,NA,NA,NA,NA
7b792,"""Richtig""-Screen",canvas.Screen,3_0_3_0_6_1_1,NA,NA,timeout,4999.8,511889.6,511883.578,511891.911,516883.378,516886,2023-01-20T18:56:24Z,516891.711,NULL,Fleisch,mshakiki,s,kizunguzungu,mshikamano,angusho,NA,qt,1,3,NA,NA,NA,NA,NA,NA,NA,NA,NA,NA,NA,NA,NA,NA,NA,NA,NA,NA,NA
7b792,"""Falsch""-Screen",canvas.Screen,3_0_3_0_6_1_2,NA,NA,skipped,NA,516890.3,NA,NA,516883.378,516890.5,2023-01-20T18:56:24Z,516891.711,NULL,Fleisch,mshakiki,s,kizunguzungu,mshikamano,angusho,NA,qt,NA,3,NA,NA,NA,NA,NA,NA,NA,NA,NA,NA,NA,NA,NA,NA,NA,NA,NA,NA,NA
7b792,shallow,flow.Sequence,3_0_3_0_6_1,NA,NA,completion,9082.97,507795.9,507792.075,507800.408,516883.378,516890.7,2023-01-20T18:56:24Z,516891.711,NULL,Fleisch,mshakiki,s,kizunguzungu,mshikamano,angusho,NA,qt,NA,3,NA,NA,NA,NA,NA,NA,NA,NA,NA,NA,NA,NA,NA,NA,NA,NA,NA,NA,NA
7b792,task,flow.Sequence,3_0_3_0_6,NA,NA,completion,9082.97,507795.8,507792.075,507800.408,516883.378,516890.9,2023-01-20T18:56:24Z,516891.711,NULL,Fleisch,mshakiki,s,kizunguzungu,mshikamano,angusho,NA,qt,NA,3,NA,NA,NA,NA,NA,NA,NA,NA,NA,NA,NA,NA,NA,NA,NA,NA,NA,NA,NA
7b792,Deep Question,html.Page,3_0_3_0_7_0_0,NA,NA,form submission,8585.8889999996,516891,516883.378,516891.711,525477.6,525478.3,2023-01-20T18:56:33Z,525487.738,NULL,Verzögerung,kuchelewa,d,NA,NA,NA,kuchalewa,NA,NA,3,NA,NA,NA,NA,NA,NA,NA,NA,NA,NA,NA,NA,NA,NA,NA,NA,NA,NA,NA
7b792,"""Richtig""-Screen",canvas.Screen,3_0_3_0_7_0_1,NA,NA,skipped,NA,525482,NA,NA,525477.6,525482.3,2023-01-20T18:56:33Z,525487.738,NULL,Verzögerung,kuchelewa,d,NA,NA,NA,NA,qt,NA,3,NA,NA,NA,NA,NA,NA,NA,NA,NA,NA,NA,NA,NA,NA,NA,NA,NA,NA,NA
7b792,"""Falsch""-Screen",canvas.Screen,3_0_3_0_7_0_2,NA,NA,timeout,4999.7999999999,525483.2,525471.072,525487.738,530479.205,530482.4,2023-01-20T18:56:38Z,530487.538,NULL,Verzögerung,kuchelewa,d,NA,NA,NA,NA,qt,0,3,NA,NA,NA,NA,NA,NA,NA,NA,NA,NA,NA,NA,NA,NA,NA,NA,NA,NA,NA
7b792,deep,flow.Sequence,3_0_3_0_7_0,NA,NA,completion,13587.494,516891,516883.378,516891.711,530479.205,530483,2023-01-20T18:56:38Z,530487.538,NULL,Verzögerung,kuchelewa,d,NA,NA,NA,NA,qt,NA,3,NA,NA,NA,NA,NA,NA,NA,NA,NA,NA,NA,NA,NA,NA,NA,NA,NA,NA,NA
7b792,shallow,flow.Sequence,3_0_3_0_7_1,NA,NA,skipped,NA,530483.2,NA,NA,530479.205,530483.3,2023-01-20T18:56:38Z,530487.538,NULL,Verzögerung,kuchelewa,d,NA,NA,NA,NA,qt,NA,3,NA,NA,NA,NA,NA,NA,NA,NA,NA,NA,NA,NA,NA,NA,NA,NA,NA,NA,NA
7b792,task,flow.Sequence,3_0_3_0_7,NA,NA,completion,13587.494,516890.9,516883.378,516891.711,530479.205,530483.5,2023-01-20T18:56:38Z,530487.538,NULL,Verzögerung,kuchelewa,d,NA,NA,NA,NA,qt,NA,3,NA,NA,NA,NA,NA,NA,NA,NA,NA,NA,NA,NA,NA,NA,NA,NA,NA,NA,NA
7b792,block,flow.Loop,3_0_3_0,NA,NA,completion,94470.457,436008.2,436000.415,436008.748,530479.205,530483.6,2023-01-20T18:56:38Z,530487.538,NULL,NA,NA,NA,NA,NA,NA,NA,qt,NA,3,NA,NA,NA,NA,NA,NA,NA,NA,NA,NA,NA,NA,NA,NA,NA,NA,NA,NA,NA
7b792,weiter,canvas.Screen,3_0_3_1,sdf,keypress(Space),response,1264.5619999997,530483.8,530479.205,530487.538,531752.1,531762.3,2023-01-20T18:56:39Z,531788.012,NULL,NA,NA,NA,NA,NA,NA,NA,qt,NA,3,NA,NA,NA,NA,NA,NA,NA,NA,NA,NA,NA,NA,NA,NA,NA,NA,NA,NA,NA
7b792,check continue,flow.Sequence,3_0_3,NA,NA,completion,95743.352,436008.2,436000.415,436008.748,531752.1,531762.6,2023-01-20T18:56:39Z,531788.012,NULL,NA,NA,NA,NA,NA,NA,NA,qt,NA,3,NA,NA,NA,NA,NA,NA,NA,NA,NA,NA,NA,NA,NA,NA,NA,NA,NA,NA,NA
7b792,deep,flow.Sequence,3_0_4_0_0_0,NA,NA,skipped,NA,531784.1,NA,NA,531752.1,531784.1,2023-01-20T18:56:39Z,531788.012,NULL,Integrität,uadilifu,s,muungano,mtiririko,upunguaji,NA,sd,NA,4,NA,NA,NA,NA,NA,NA,NA,NA,NA,NA,NA,NA,NA,NA,NA,NA,NA,NA,NA
7b792,Shallow Question,html.Page,3_0_4_0_0_1_0,NA,NA,form submission,5843.5879999996,531784.2,531779.679,531788.012,537631.6,537632.3,2023-01-20T18:56:45Z,537637.778,NULL,Integrität,uadilifu,s,muungano,mtiririko,upunguaji,uadilifu,NA,NA,4,NA,NA,NA,NA,NA,NA,NA,NA,NA,NA,NA,NA,NA,NA,NA,NA,NA,NA,NA
7b792,"""Richtig""-Screen",canvas.Screen,3_0_4_0_0_1_1,NA,NA,timeout,4999.7999999999,537635.3,537629.445,537637.778,542629.245,542631.6,2023-01-20T18:56:50Z,542637.578,NULL,Integrität,uadilifu,s,muungano,mtiririko,upunguaji,NA,sd,1,4,NA,NA,NA,NA,NA,NA,NA,NA,NA,NA,NA,NA,NA,NA,NA,NA,NA,NA,NA
7b792,"""Falsch""-Screen",canvas.Screen,3_0_4_0_0_1_2,NA,NA,skipped,NA,542636.1,NA,NA,542629.245,542636.3,2023-01-20T18:56:50Z,542637.578,NULL,Integrität,uadilifu,s,muungano,mtiririko,upunguaji,NA,sd,NA,4,NA,NA,NA,NA,NA,NA,NA,NA,NA,NA,NA,NA,NA,NA,NA,NA,NA,NA,NA
7b792,shallow,flow.Sequence,3_0_4_0_0_1,NA,NA,completion,10841.233,531784.2,531779.679,531788.012,542629.245,542636.5,2023-01-20T18:56:50Z,542637.578,NULL,Integrität,uadilifu,s,muungano,mtiririko,upunguaji,NA,sd,NA,4,NA,NA,NA,NA,NA,NA,NA,NA,NA,NA,NA,NA,NA,NA,NA,NA,NA,NA,NA
7b792,task,flow.Sequence,3_0_4_0_0,NA,NA,completion,10841.233,531784.1,531779.679,531788.012,542629.245,542636.5,2023-01-20T18:56:50Z,542637.578,NULL,Integrität,uadilifu,s,muungano,mtiririko,upunguaji,NA,sd,NA,4,NA,NA,NA,NA,NA,NA,NA,NA,NA,NA,NA,NA,NA,NA,NA,NA,NA,NA,NA
7b792,Deep Question,html.Page,3_0_4_0_1_0_0,NA,NA,form submission,11750.822,542636.8,542629.245,542637.578,554388.4,554389.1,2023-01-20T18:57:02Z,554400.462,NULL,Kultur,utamaduni,d,NA,NA,NA,kukatana,NA,NA,4,NA,NA,NA,NA,NA,NA,NA,NA,NA,NA,NA,NA,NA,NA,NA,NA,NA,NA,NA
7b792,"""Richtig""-Screen",canvas.Screen,3_0_4_0_1_0_1,NA,NA,skipped,NA,554392.7,NA,NA,554388.4,554392.9,2023-01-20T18:57:02Z,554400.462,NULL,Kultur,utamaduni,d,NA,NA,NA,NA,sd,NA,4,NA,NA,NA,NA,NA,NA,NA,NA,NA,NA,NA,NA,NA,NA,NA,NA,NA,NA,NA
7b792,"""Falsch""-Screen",canvas.Screen,3_0_4_0_1_0_2,NA,NA,timeout,4999.7999999999,554393.5,554383.796,554400.462,559391.929,559394.9,2023-01-20T18:57:07Z,559400.262,NULL,Kultur,utamaduni,d,NA,NA,NA,NA,sd,0,4,NA,NA,NA,NA,NA,NA,NA,NA,NA,NA,NA,NA,NA,NA,NA,NA,NA,NA,NA
7b792,deep,flow.Sequence,3_0_4_0_1_0,NA,NA,completion,16754.351,542636.7,542629.245,542637.578,559391.929,559395.4,2023-01-20T18:57:07Z,559400.262,NULL,Kultur,utamaduni,d,NA,NA,NA,NA,sd,NA,4,NA,NA,NA,NA,NA,NA,NA,NA,NA,NA,NA,NA,NA,NA,NA,NA,NA,NA,NA
7b792,shallow,flow.Sequence,3_0_4_0_1_1,NA,NA,skipped,NA,559395.6,NA,NA,559391.929,559395.6,2023-01-20T18:57:07Z,559400.262,NULL,Kultur,utamaduni,d,NA,NA,NA,NA,sd,NA,4,NA,NA,NA,NA,NA,NA,NA,NA,NA,NA,NA,NA,NA,NA,NA,NA,NA,NA,NA
7b792,task,flow.Sequence,3_0_4_0_1,NA,NA,completion,16754.351,542636.6,542629.245,542637.578,559391.929,559395.9,2023-01-20T18:57:07Z,559400.262,NULL,Kultur,utamaduni,d,NA,NA,NA,NA,sd,NA,4,NA,NA,NA,NA,NA,NA,NA,NA,NA,NA,NA,NA,NA,NA,NA,NA,NA,NA,NA
7b792,deep,flow.Sequence,3_0_4_0_2_0,NA,NA,skipped,NA,559396,NA,NA,559391.929,559396.2,2023-01-20T18:57:07Z,559400.262,NULL,Fleisch,mshakiki,s,kizunguzungu,mshikamano,angusho,NA,sd,NA,4,NA,NA,NA,NA,NA,NA,NA,NA,NA,NA,NA,NA,NA,NA,NA,NA,NA,NA,NA
7b792,Shallow Question,html.Page,3_0_4_0_2_1_0,NA,NA,form submission,3887.9380000002,559396.2,559391.929,559400.262,563288.2,563288.6,2023-01-20T18:57:11Z,563291.773,NULL,Fleisch,mshakiki,s,kizunguzungu,mshikamano,angusho,mshakiki,NA,NA,4,NA,NA,NA,NA,NA,NA,NA,NA,NA,NA,NA,NA,NA,NA,NA,NA,NA,NA,NA
7b792,"""Richtig""-Screen",canvas.Screen,3_0_4_0_2_1_1,NA,NA,timeout,5000.205,563291.7,563283.44,563291.773,568283.645,568286.1,2023-01-20T18:57:16Z,568291.978,NULL,Fleisch,mshakiki,s,kizunguzungu,mshikamano,angusho,NA,sd,1,4,NA,NA,NA,NA,NA,NA,NA,NA,NA,NA,NA,NA,NA,NA,NA,NA,NA,NA,NA
7b792,"""Falsch""-Screen",canvas.Screen,3_0_4_0_2_1_2,NA,NA,skipped,NA,568289,NA,NA,568283.645,568289.1,2023-01-20T18:57:16Z,568291.978,NULL,Fleisch,mshakiki,s,kizunguzungu,mshikamano,angusho,NA,sd,NA,4,NA,NA,NA,NA,NA,NA,NA,NA,NA,NA,NA,NA,NA,NA,NA,NA,NA,NA,NA
7b792,shallow,flow.Sequence,3_0_4_0_2_1,NA,NA,completion,8883.383,559396.2,559391.929,559400.262,568283.645,568289.2,2023-01-20T18:57:16Z,568291.978,NULL,Fleisch,mshakiki,s,kizunguzungu,mshikamano,angusho,NA,sd,NA,4,NA,NA,NA,NA,NA,NA,NA,NA,NA,NA,NA,NA,NA,NA,NA,NA,NA,NA,NA
7b792,task,flow.Sequence,3_0_4_0_2,NA,NA,completion,8883.383,559396,559391.929,559400.262,568283.645,568289.2,2023-01-20T18:57:16Z,568291.978,NULL,Fleisch,mshakiki,s,kizunguzungu,mshikamano,angusho,NA,sd,NA,4,NA,NA,NA,NA,NA,NA,NA,NA,NA,NA,NA,NA,NA,NA,NA,NA,NA,NA,NA
7b792,Deep Question,html.Page,3_0_4_0_3_0_0,NA,NA,form submission,5987.7220000002,568289.3,568283.645,568291.978,574279.7,574280.4,2023-01-20T18:57:22Z,574283.797,NULL,Begegnung,kukutana,d,NA,NA,NA,kukatana,NA,NA,4,NA,NA,NA,NA,NA,NA,NA,NA,NA,NA,NA,NA,NA,NA,NA,NA,NA,NA,NA
7b792,"""Richtig""-Screen",canvas.Screen,3_0_4_0_3_0_1,NA,NA,skipped,NA,574283.3,NA,NA,574279.7,574283.5,2023-01-20T18:57:22Z,574283.797,NULL,Begegnung,kukutana,d,NA,NA,NA,NA,sd,NA,4,NA,NA,NA,NA,NA,NA,NA,NA,NA,NA,NA,NA,NA,NA,NA,NA,NA,NA,NA
7b792,"""Falsch""-Screen",canvas.Screen,3_0_4_0_3_0_2,NA,NA,timeout,4999.7999999999,574284.1,574275.464,574283.797,579275.264,579278.2,2023-01-20T18:57:27Z,579283.597,NULL,Begegnung,kukutana,d,NA,NA,NA,NA,sd,0,4,NA,NA,NA,NA,NA,NA,NA,NA,NA,NA,NA,NA,NA,NA,NA,NA,NA,NA,NA
7b792,deep,flow.Sequence,3_0_4_0_3_0,NA,NA,completion,10983.286,568289.3,568283.645,568291.978,579275.264,579278.7,2023-01-20T18:57:27Z,579283.597,NULL,Begegnung,kukutana,d,NA,NA,NA,NA,sd,NA,4,NA,NA,NA,NA,NA,NA,NA,NA,NA,NA,NA,NA,NA,NA,NA,NA,NA,NA,NA
7b792,shallow,flow.Sequence,3_0_4_0_3_1,NA,NA,skipped,NA,579278.9,NA,NA,579275.264,579279.1,2023-01-20T18:57:27Z,579283.597,NULL,Begegnung,kukutana,d,NA,NA,NA,NA,sd,NA,4,NA,NA,NA,NA,NA,NA,NA,NA,NA,NA,NA,NA,NA,NA,NA,NA,NA,NA,NA
7b792,task,flow.Sequence,3_0_4_0_3,NA,NA,completion,10983.286,568289.3,568283.645,568291.978,579275.264,579279.2,2023-01-20T18:57:27Z,579283.597,NULL,Begegnung,kukutana,d,NA,NA,NA,NA,sd,NA,4,NA,NA,NA,NA,NA,NA,NA,NA,NA,NA,NA,NA,NA,NA,NA,NA,NA,NA,NA
7b792,deep,flow.Sequence,3_0_4_0_4_0,NA,NA,skipped,NA,579279.5,NA,NA,579275.264,579279.5,2023-01-20T18:57:27Z,579283.597,NULL,Prüfung,mtihani,s,mkulima,mtizamo,ufumbuzi,NA,sd,NA,4,NA,NA,NA,NA,NA,NA,NA,NA,NA,NA,NA,NA,NA,NA,NA,NA,NA,NA,NA
7b792,Shallow Question,html.Page,3_0_4_0_4_1_0,NA,NA,form submission,7037.2029999999,579279.7,579275.264,579283.597,586320.8,586321.2,2023-01-20T18:57:34Z,586329.536,NULL,Prüfung,mtihani,s,mkulima,mtizamo,ufumbuzi,mtihani,NA,NA,4,NA,NA,NA,NA,NA,NA,NA,NA,NA,NA,NA,NA,NA,NA,NA,NA,NA,NA,NA
7b792,"""Richtig""-Screen",canvas.Screen,3_0_4_0_4_1_1,NA,NA,timeout,4999.8,586324.1,586312.87,586329.536,591321.003,591323.5,2023-01-20T18:57:39Z,591329.336,NULL,Prüfung,mtihani,s,mkulima,mtizamo,ufumbuzi,NA,sd,1,4,NA,NA,NA,NA,NA,NA,NA,NA,NA,NA,NA,NA,NA,NA,NA,NA,NA,NA,NA
7b792,"""Falsch""-Screen",canvas.Screen,3_0_4_0_4_1_2,NA,NA,skipped,NA,591329.6,NA,NA,591321.003,591329.9,2023-01-20T18:57:39Z,591329.336,NULL,Prüfung,mtihani,s,mkulima,mtizamo,ufumbuzi,NA,sd,NA,4,NA,NA,NA,NA,NA,NA,NA,NA,NA,NA,NA,NA,NA,NA,NA,NA,NA,NA,NA
7b792,shallow,flow.Sequence,3_0_4_0_4_1,NA,NA,completion,12037.406,579279.7,579275.264,579283.597,591321.003,591330,2023-01-20T18:57:39Z,591329.336,NULL,Prüfung,mtihani,s,mkulima,mtizamo,ufumbuzi,NA,sd,NA,4,NA,NA,NA,NA,NA,NA,NA,NA,NA,NA,NA,NA,NA,NA,NA,NA,NA,NA,NA
7b792,task,flow.Sequence,3_0_4_0_4,NA,NA,completion,12037.406,579279.4,579275.264,579283.597,591321.003,591330.1,2023-01-20T18:57:39Z,591329.336,NULL,Prüfung,mtihani,s,mkulima,mtizamo,ufumbuzi,NA,sd,NA,4,NA,NA,NA,NA,NA,NA,NA,NA,NA,NA,NA,NA,NA,NA,NA,NA,NA,NA,NA
7b792,Deep Question,html.Page,3_0_4_0_5_0_0,NA,NA,form submission,5867.7639999996,591330.3,591321.003,591329.336,597197.1,597197.9,2023-01-20T18:57:45Z,597204.488,NULL,Genehmigung,idhini,d,NA,NA,NA,idihini,NA,NA,4,NA,NA,NA,NA,NA,NA,NA,NA,NA,NA,NA,NA,NA,NA,NA,NA,NA,NA,NA
7b792,"""Richtig""-Screen",canvas.Screen,3_0_4_0_5_0_1,NA,NA,skipped,NA,597201.6,NA,NA,597197.1,597201.8,2023-01-20T18:57:45Z,597204.488,NULL,Genehmigung,idhini,d,NA,NA,NA,NA,sd,NA,4,NA,NA,NA,NA,NA,NA,NA,NA,NA,NA,NA,NA,NA,NA,NA,NA,NA,NA,NA
7b792,"""Falsch""-Screen",canvas.Screen,3_0_4_0_5_0_2,NA,NA,timeout,4999.7999999999,597202.5,597187.822,597204.488,602195.955,602198.8,2023-01-20T18:57:50Z,602204.288,NULL,Genehmigung,idhini,d,NA,NA,NA,NA,sd,0,4,NA,NA,NA,NA,NA,NA,NA,NA,NA,NA,NA,NA,NA,NA,NA,NA,NA,NA,NA
7b792,deep,flow.Sequence,3_0_4_0_5_0,NA,NA,completion,10866.619,591330.3,591321.003,591329.336,602195.955,602199.3,2023-01-20T18:57:50Z,602204.288,NULL,Genehmigung,idhini,d,NA,NA,NA,NA,sd,NA,4,NA,NA,NA,NA,NA,NA,NA,NA,NA,NA,NA,NA,NA,NA,NA,NA,NA,NA,NA
7b792,shallow,flow.Sequence,3_0_4_0_5_1,NA,NA,skipped,NA,602199.5,NA,NA,602195.955,602199.7,2023-01-20T18:57:50Z,602204.288,NULL,Genehmigung,idhini,d,NA,NA,NA,NA,sd,NA,4,NA,NA,NA,NA,NA,NA,NA,NA,NA,NA,NA,NA,NA,NA,NA,NA,NA,NA,NA
7b792,task,flow.Sequence,3_0_4_0_5,NA,NA,completion,10866.619,591330.2,591321.003,591329.336,602195.955,602199.9,2023-01-20T18:57:50Z,602204.288,NULL,Genehmigung,idhini,d,NA,NA,NA,NA,sd,NA,4,NA,NA,NA,NA,NA,NA,NA,NA,NA,NA,NA,NA,NA,NA,NA,NA,NA,NA,NA
7b792,deep,flow.Sequence,3_0_4_0_6_0,NA,NA,skipped,NA,602200,NA,NA,602195.955,602200.1,2023-01-20T18:57:50Z,602204.288,NULL,Aufstand,ugomaji,s,mazidio,msingi,kujieleza,NA,sd,NA,4,NA,NA,NA,NA,NA,NA,NA,NA,NA,NA,NA,NA,NA,NA,NA,NA,NA,NA,NA
7b792,Shallow Question,html.Page,3_0_4_0_6_1_0,NA,NA,form submission,5482.0119999999,602200.3,602195.955,602204.288,607686.3,607686.6,2023-01-20T18:57:55Z,607692.057,NULL,Aufstand,ugomaji,s,mazidio,msingi,kujieleza,ugomaji,NA,NA,4,NA,NA,NA,NA,NA,NA,NA,NA,NA,NA,NA,NA,NA,NA,NA,NA,NA,NA,NA
7b792,"""Richtig""-Screen",canvas.Screen,3_0_4_0_6_1_1,NA,NA,timeout,4999.7999999999,607690,607683.724,607692.057,612683.524,612686.3,2023-01-20T18:58:00Z,612691.857,NULL,Aufstand,ugomaji,s,mazidio,msingi,kujieleza,NA,sd,1,4,NA,NA,NA,NA,NA,NA,NA,NA,NA,NA,NA,NA,NA,NA,NA,NA,NA,NA,NA
7b792,"""Falsch""-Screen",canvas.Screen,3_0_4_0_6_1_2,NA,NA,skipped,NA,612691.7,NA,NA,612683.524,612692,2023-01-20T18:58:00Z,612691.857,NULL,Aufstand,ugomaji,s,mazidio,msingi,kujieleza,NA,sd,NA,4,NA,NA,NA,NA,NA,NA,NA,NA,NA,NA,NA,NA,NA,NA,NA,NA,NA,NA,NA
7b792,shallow,flow.Sequence,3_0_4_0_6_1,NA,NA,completion,10479.236,602200.2,602195.955,602204.288,612683.524,612692.2,2023-01-20T18:58:00Z,612691.857,NULL,Aufstand,ugomaji,s,mazidio,msingi,kujieleza,NA,sd,NA,4,NA,NA,NA,NA,NA,NA,NA,NA,NA,NA,NA,NA,NA,NA,NA,NA,NA,NA,NA
7b792,task,flow.Sequence,3_0_4_0_6,NA,NA,completion,10479.236,602199.9,602195.955,602204.288,612683.524,612692.2,2023-01-20T18:58:00Z,612691.857,NULL,Aufstand,ugomaji,s,mazidio,msingi,kujieleza,NA,sd,NA,4,NA,NA,NA,NA,NA,NA,NA,NA,NA,NA,NA,NA,NA,NA,NA,NA,NA,NA,NA
7b792,Deep Question,html.Page,3_0_4_0_7_0_0,NA,NA,form submission,13148.643,612692.4,612683.524,612691.857,625840.5,625841,2023-01-20T18:58:13Z,625845.877,NULL,Verzögerung,kuchelewa,d,NA,NA,NA,kukutana,NA,NA,4,NA,NA,NA,NA,NA,NA,NA,NA,NA,NA,NA,NA,NA,NA,NA,NA,NA,NA,NA
7b792,"""Richtig""-Screen",canvas.Screen,3_0_4_0_7_0_1,NA,NA,skipped,NA,625844.1,NA,NA,625840.5,625844.2,2023-01-20T18:58:13Z,625845.877,NULL,Verzögerung,kuchelewa,d,NA,NA,NA,NA,sd,NA,4,NA,NA,NA,NA,NA,NA,NA,NA,NA,NA,NA,NA,NA,NA,NA,NA,NA,NA,NA
7b792,"""Falsch""-Screen",canvas.Screen,3_0_4_0_7_0_2,NA,NA,timeout,4999.8,625844.7,625837.544,625845.877,630837.344,630839.7,2023-01-20T18:58:18Z,630845.677,NULL,Verzögerung,kuchelewa,d,NA,NA,NA,NA,sd,0,4,NA,NA,NA,NA,NA,NA,NA,NA,NA,NA,NA,NA,NA,NA,NA,NA,NA,NA,NA
7b792,deep,flow.Sequence,3_0_4_0_7_0,NA,NA,completion,18145.487,612692.4,612683.524,612691.857,630837.344,630840.3,2023-01-20T18:58:18Z,630845.677,NULL,Verzögerung,kuchelewa,d,NA,NA,NA,NA,sd,NA,4,NA,NA,NA,NA,NA,NA,NA,NA,NA,NA,NA,NA,NA,NA,NA,NA,NA,NA,NA
7b792,shallow,flow.Sequence,3_0_4_0_7_1,NA,NA,skipped,NA,630840.4,NA,NA,630837.344,630840.6,2023-01-20T18:58:18Z,630845.677,NULL,Verzögerung,kuchelewa,d,NA,NA,NA,NA,sd,NA,4,NA,NA,NA,NA,NA,NA,NA,NA,NA,NA,NA,NA,NA,NA,NA,NA,NA,NA,NA
7b792,task,flow.Sequence,3_0_4_0_7,NA,NA,completion,18145.487,612692.3,612683.524,612691.857,630837.344,630840.8,2023-01-20T18:58:18Z,630845.677,NULL,Verzögerung,kuchelewa,d,NA,NA,NA,NA,sd,NA,4,NA,NA,NA,NA,NA,NA,NA,NA,NA,NA,NA,NA,NA,NA,NA,NA,NA,NA,NA
7b792,block,flow.Loop,3_0_4_0,NA,NA,completion,99049.332,531784.1,531779.679,531788.012,630837.344,630841,2023-01-20T18:58:18Z,630845.677,NULL,NA,NA,NA,NA,NA,NA,NA,sd,NA,4,NA,NA,NA,NA,NA,NA,NA,NA,NA,NA,NA,NA,NA,NA,NA,NA,NA,NA,NA
7b792,weiter,canvas.Screen,3_0_4_1,sdf,keypress(Space),response,1066.0230000002,630841.2,630837.344,630845.677,631911.7,631921.6,2023-01-20T18:58:19Z,631950.323,NULL,NA,NA,NA,NA,NA,NA,NA,sd,NA,4,NA,NA,NA,NA,NA,NA,NA,NA,NA,NA,NA,NA,NA,NA,NA,NA,NA,NA,NA
7b792,check continue,flow.Sequence,3_0_4,NA,NA,completion,100123.688,531784.1,531779.679,531788.012,631911.7,631921.8,2023-01-20T18:58:19Z,631950.323,NULL,NA,NA,NA,NA,NA,NA,NA,sd,NA,4,NA,NA,NA,NA,NA,NA,NA,NA,NA,NA,NA,NA,NA,NA,NA,NA,NA,NA,NA
7b792,deep,flow.Sequence,3_0_5_0_0_0,NA,NA,skipped,NA,631942.8,NA,NA,631911.7,631942.9,2023-01-20T18:58:19Z,631950.323,NULL,Fleisch,mshakiki,s,kizunguzungu,mshikamano,angusho,NA,sdf,NA,5,NA,NA,NA,NA,NA,NA,NA,NA,NA,NA,NA,NA,NA,NA,NA,NA,NA,NA,NA
7b792,Shallow Question,html.Page,3_0_5_0_0_1_0,NA,NA,form submission,2814.9769999997998,631943,631941.99,631950.323,634765.3,634765.6,2023-01-20T18:58:22Z,634766.877,NULL,Fleisch,mshakiki,s,kizunguzungu,mshikamano,angusho,mshakiki,NA,NA,5,NA,NA,NA,NA,NA,NA,NA,NA,NA,NA,NA,NA,NA,NA,NA,NA,NA,NA,NA
7b792,"""Richtig""-Screen",canvas.Screen,3_0_5_0_0_1_1,NA,NA,timeout,4999.8,634766.5,634758.544,634766.877,639758.344,639761.1,2023-01-20T18:58:27Z,639766.677,NULL,Fleisch,mshakiki,s,kizunguzungu,mshikamano,angusho,NA,sdf,1,5,NA,NA,NA,NA,NA,NA,NA,NA,NA,NA,NA,NA,NA,NA,NA,NA,NA,NA,NA
7b792,"""Falsch""-Screen",canvas.Screen,3_0_5_0_0_1_2,NA,NA,skipped,NA,639766.2,NA,NA,639758.344,639766.2,2023-01-20T18:58:27Z,639766.677,NULL,Fleisch,mshakiki,s,kizunguzungu,mshikamano,angusho,NA,sdf,NA,5,NA,NA,NA,NA,NA,NA,NA,NA,NA,NA,NA,NA,NA,NA,NA,NA,NA,NA,NA
7b792,shallow,flow.Sequence,3_0_5_0_0_1,NA,NA,completion,7808.0210000001,631943,631941.99,631950.323,639758.344,639766.4,2023-01-20T18:58:27Z,639766.677,NULL,Fleisch,mshakiki,s,kizunguzungu,mshikamano,angusho,NA,sdf,NA,5,NA,NA,NA,NA,NA,NA,NA,NA,NA,NA,NA,NA,NA,NA,NA,NA,NA,NA,NA
7b792,task,flow.Sequence,3_0_5_0_0,NA,NA,completion,7808.0210000001,631942.8,631941.99,631950.323,639758.344,639766.5,2023-01-20T18:58:27Z,639766.677,NULL,Fleisch,mshakiki,s,kizunguzungu,mshikamano,angusho,NA,sdf,NA,5,NA,NA,NA,NA,NA,NA,NA,NA,NA,NA,NA,NA,NA,NA,NA,NA,NA,NA,NA
7b792,deep,flow.Sequence,3_0_5_0_1_0,NA,NA,skipped,NA,639766.6,NA,NA,639758.344,639766.7,2023-01-20T18:58:27Z,639766.677,NULL,Aufstand,ugomaji,s,mazidio,msingi,kujieleza,NA,sdf,NA,5,NA,NA,NA,NA,NA,NA,NA,NA,NA,NA,NA,NA,NA,NA,NA,NA,NA,NA,NA
7b792,Shallow Question,html.Page,3_0_5_0_1_1_0,NA,NA,form submission,4509.0230000002,639766.8,639758.344,639766.677,644275.7,644276.1,2023-01-20T18:58:32Z,644283.563,NULL,Aufstand,ugomaji,s,mazidio,msingi,kujieleza,ugomaji,NA,NA,5,NA,NA,NA,NA,NA,NA,NA,NA,NA,NA,NA,NA,NA,NA,NA,NA,NA,NA,NA
7b792,"""Richtig""-Screen",canvas.Screen,3_0_5_0_1_1_1,NA,NA,timeout,4999.8,644278.9,644266.897,644283.563,649275.03,649277.5,2023-01-20T18:58:37Z,649283.363,NULL,Aufstand,ugomaji,s,mazidio,msingi,kujieleza,NA,sdf,1,5,NA,NA,NA,NA,NA,NA,NA,NA,NA,NA,NA,NA,NA,NA,NA,NA,NA,NA,NA
7b792,"""Falsch""-Screen",canvas.Screen,3_0_5_0_1_1_2,NA,NA,skipped,NA,649281.5,NA,NA,649275.03,649281.7,2023-01-20T18:58:37Z,649283.363,NULL,Aufstand,ugomaji,s,mazidio,msingi,kujieleza,NA,sdf,NA,5,NA,NA,NA,NA,NA,NA,NA,NA,NA,NA,NA,NA,NA,NA,NA,NA,NA,NA,NA
7b792,shallow,flow.Sequence,3_0_5_0_1_1,NA,NA,completion,9508.353,639766.8,639758.344,639766.677,649275.03,649281.9,2023-01-20T18:58:37Z,649283.363,NULL,Aufstand,ugomaji,s,mazidio,msingi,kujieleza,NA,sdf,NA,5,NA,NA,NA,NA,NA,NA,NA,NA,NA,NA,NA,NA,NA,NA,NA,NA,NA,NA,NA
7b792,task,flow.Sequence,3_0_5_0_1,NA,NA,completion,9508.353,639766.6,639758.344,639766.677,649275.03,649281.9,2023-01-20T18:58:37Z,649283.363,NULL,Aufstand,ugomaji,s,mazidio,msingi,kujieleza,NA,sdf,NA,5,NA,NA,NA,NA,NA,NA,NA,NA,NA,NA,NA,NA,NA,NA,NA,NA,NA,NA,NA
7b792,Deep Question,html.Page,3_0_5_0_2_0_0,NA,NA,form submission,11447.437,649282,649275.03,649283.363,660730.8,660731.4,2023-01-20T18:58:48Z,660737.464,NULL,Genehmigung,idhini,d,NA,NA,NA,kuchelewa,NA,NA,5,NA,NA,NA,NA,NA,NA,NA,NA,NA,NA,NA,NA,NA,NA,NA,NA,NA,NA,NA
7b792,"""Richtig""-Screen",canvas.Screen,3_0_5_0_2_0_1,NA,NA,skipped,NA,660734,NA,NA,660730.8,660734.1,2023-01-20T18:58:48Z,660737.464,NULL,Genehmigung,idhini,d,NA,NA,NA,NA,sdf,NA,5,NA,NA,NA,NA,NA,NA,NA,NA,NA,NA,NA,NA,NA,NA,NA,NA,NA,NA,NA
7b792,"""Falsch""-Screen",canvas.Screen,3_0_5_0_2_0_2,NA,NA,timeout,4999.7999999999,660734.5,660729.131,660737.464,665728.931,665731.2,2023-01-20T18:58:53Z,665737.264,NULL,Genehmigung,idhini,d,NA,NA,NA,NA,sdf,0,5,NA,NA,NA,NA,NA,NA,NA,NA,NA,NA,NA,NA,NA,NA,NA,NA,NA,NA,NA
7b792,deep,flow.Sequence,3_0_5_0_2_0,NA,NA,completion,16445.568,649282,649275.03,649283.363,665728.931,665731.7,2023-01-20T18:58:53Z,665737.264,NULL,Genehmigung,idhini,d,NA,NA,NA,NA,sdf,NA,5,NA,NA,NA,NA,NA,NA,NA,NA,NA,NA,NA,NA,NA,NA,NA,NA,NA,NA,NA
7b792,shallow,flow.Sequence,3_0_5_0_2_1,NA,NA,skipped,NA,665731.8,NA,NA,665728.931,665732,2023-01-20T18:58:53Z,665737.264,NULL,Genehmigung,idhini,d,NA,NA,NA,NA,sdf,NA,5,NA,NA,NA,NA,NA,NA,NA,NA,NA,NA,NA,NA,NA,NA,NA,NA,NA,NA,NA
7b792,task,flow.Sequence,3_0_5_0_2,NA,NA,completion,16445.568,649282,649275.03,649283.363,665728.931,665732.1,2023-01-20T18:58:53Z,665737.264,NULL,Genehmigung,idhini,d,NA,NA,NA,NA,sdf,NA,5,NA,NA,NA,NA,NA,NA,NA,NA,NA,NA,NA,NA,NA,NA,NA,NA,NA,NA,NA
7b792,Deep Question,html.Page,3_0_5_0_3_0_0,NA,NA,form submission,8333.0359999998,665732.4,665728.931,665737.264,674070.3,674070.8,2023-01-20T18:59:01Z,674079.11,NULL,Verzögerung,kuchelewa,d,NA,NA,NA,kuchelewa,NA,NA,5,NA,NA,NA,NA,NA,NA,NA,NA,NA,NA,NA,NA,NA,NA,NA,NA,NA,NA,NA
7b792,"""Richtig""-Screen",canvas.Screen,3_0_5_0_3_0_1,NA,NA,timeout,4999.8,674074,674062.444,674079.11,679070.577,679073.4,2023-01-20T18:59:06Z,679078.91,NULL,Verzögerung,kuchelewa,d,NA,NA,NA,NA,sdf,1,5,NA,NA,NA,NA,NA,NA,NA,NA,NA,NA,NA,NA,NA,NA,NA,NA,NA,NA,NA
7b792,"""Falsch""-Screen",canvas.Screen,3_0_5_0_3_0_2,NA,NA,skipped,NA,679079.3,NA,NA,679070.577,679079.5,2023-01-20T18:59:06Z,679078.91,NULL,Verzögerung,kuchelewa,d,NA,NA,NA,NA,sdf,NA,5,NA,NA,NA,NA,NA,NA,NA,NA,NA,NA,NA,NA,NA,NA,NA,NA,NA,NA,NA
7b792,deep,flow.Sequence,3_0_5_0_3_0,NA,NA,completion,13333.313,665732.3,665728.931,665737.264,679070.577,679079.7,2023-01-20T18:59:06Z,679078.91,NULL,Verzögerung,kuchelewa,d,NA,NA,NA,NA,sdf,NA,5,NA,NA,NA,NA,NA,NA,NA,NA,NA,NA,NA,NA,NA,NA,NA,NA,NA,NA,NA
7b792,shallow,flow.Sequence,3_0_5_0_3_1,NA,NA,skipped,NA,679079.8,NA,NA,679070.577,679079.9,2023-01-20T18:59:06Z,679078.91,NULL,Verzögerung,kuchelewa,d,NA,NA,NA,NA,sdf,NA,5,NA,NA,NA,NA,NA,NA,NA,NA,NA,NA,NA,NA,NA,NA,NA,NA,NA,NA,NA
7b792,task,flow.Sequence,3_0_5_0_3,NA,NA,completion,13333.313,665732.3,665728.931,665737.264,679070.577,679080,2023-01-20T18:59:06Z,679078.91,NULL,Verzögerung,kuchelewa,d,NA,NA,NA,NA,sdf,NA,5,NA,NA,NA,NA,NA,NA,NA,NA,NA,NA,NA,NA,NA,NA,NA,NA,NA,NA,NA
7b792,deep,flow.Sequence,3_0_5_0_4_0,NA,NA,skipped,NA,679080,NA,NA,679070.577,679080,2023-01-20T18:59:06Z,679078.91,NULL,Prüfung,mtihani,s,mkulima,mtizamo,ufumbuzi,NA,sdf,NA,5,NA,NA,NA,NA,NA,NA,NA,NA,NA,NA,NA,NA,NA,NA,NA,NA,NA,NA,NA
7b792,Shallow Question,html.Page,3_0_5_0_4_1_0,NA,NA,form submission,5548.8899999998,679080.1,679070.577,679078.91,684627.8,684628.2,2023-01-20T18:59:12Z,684637.559,NULL,Prüfung,mtihani,s,mkulima,mtizamo,ufumbuzi,mtihani,NA,NA,5,NA,NA,NA,NA,NA,NA,NA,NA,NA,NA,NA,NA,NA,NA,NA,NA,NA,NA,NA
7b792,"""Richtig""-Screen",canvas.Screen,3_0_5_0_4_1_1,NA,NA,timeout,4999.8,684630.6,684620.893,684637.559,689629.026,689631.4,2023-01-20T18:59:17Z,689637.359,NULL,Prüfung,mtihani,s,mkulima,mtizamo,ufumbuzi,NA,sdf,1,5,NA,NA,NA,NA,NA,NA,NA,NA,NA,NA,NA,NA,NA,NA,NA,NA,NA,NA,NA
7b792,"""Falsch""-Screen",canvas.Screen,3_0_5_0_4_1_2,NA,NA,skipped,NA,689636.7,NA,NA,689629.026,689637,2023-01-20T18:59:17Z,689637.359,NULL,Prüfung,mtihani,s,mkulima,mtizamo,ufumbuzi,NA,sdf,NA,5,NA,NA,NA,NA,NA,NA,NA,NA,NA,NA,NA,NA,NA,NA,NA,NA,NA,NA,NA
7b792,shallow,flow.Sequence,3_0_5_0_4_1,NA,NA,completion,10550.116,679080.1,679070.577,679078.91,689629.026,689637,2023-01-20T18:59:17Z,689637.359,NULL,Prüfung,mtihani,s,mkulima,mtizamo,ufumbuzi,NA,sdf,NA,5,NA,NA,NA,NA,NA,NA,NA,NA,NA,NA,NA,NA,NA,NA,NA,NA,NA,NA,NA
7b792,task,flow.Sequence,3_0_5_0_4,NA,NA,completion,10550.116,679080,679070.577,679078.91,689629.026,689637.1,2023-01-20T18:59:17Z,689637.359,NULL,Prüfung,mtihani,s,mkulima,mtizamo,ufumbuzi,NA,sdf,NA,5,NA,NA,NA,NA,NA,NA,NA,NA,NA,NA,NA,NA,NA,NA,NA,NA,NA,NA,NA
7b792,Deep Question,html.Page,3_0_5_0_5_0_0,NA,NA,form submission,10858.641,689637.2,689629.026,689637.359,700496,700496.6,2023-01-20T18:59:28Z,700504.39,NULL,Begegnung,kukutana,d,NA,NA,NA,kukatana,NA,NA,5,NA,NA,NA,NA,NA,NA,NA,NA,NA,NA,NA,NA,NA,NA,NA,NA,NA,NA,NA
7b792,"""Richtig""-Screen",canvas.Screen,3_0_5_0_5_0_1,NA,NA,skipped,NA,700500,NA,NA,700496,700500.2,2023-01-20T18:59:28Z,700504.39,NULL,Begegnung,kukutana,d,NA,NA,NA,NA,sdf,NA,5,NA,NA,NA,NA,NA,NA,NA,NA,NA,NA,NA,NA,NA,NA,NA,NA,NA,NA,NA
7b792,"""Falsch""-Screen",canvas.Screen,3_0_5_0_5_0_2,NA,NA,timeout,4999.7999999999,700500.8,700487.724,700504.39,705495.857,705498.3,2023-01-20T18:59:33Z,705504.19,NULL,Begegnung,kukutana,d,NA,NA,NA,NA,sdf,0,5,NA,NA,NA,NA,NA,NA,NA,NA,NA,NA,NA,NA,NA,NA,NA,NA,NA,NA,NA
7b792,deep,flow.Sequence,3_0_5_0_5_0,NA,NA,completion,15858.498,689637.2,689629.026,689637.359,705495.857,705498.7,2023-01-20T18:59:33Z,705504.19,NULL,Begegnung,kukutana,d,NA,NA,NA,NA,sdf,NA,5,NA,NA,NA,NA,NA,NA,NA,NA,NA,NA,NA,NA,NA,NA,NA,NA,NA,NA,NA
7b792,shallow,flow.Sequence,3_0_5_0_5_1,NA,NA,skipped,NA,705498.8,NA,NA,705495.857,705498.9,2023-01-20T18:59:33Z,705504.19,NULL,Begegnung,kukutana,d,NA,NA,NA,NA,sdf,NA,5,NA,NA,NA,NA,NA,NA,NA,NA,NA,NA,NA,NA,NA,NA,NA,NA,NA,NA,NA
7b792,task,flow.Sequence,3_0_5_0_5,NA,NA,completion,15858.498,689637.2,689629.026,689637.359,705495.857,705499,2023-01-20T18:59:33Z,705504.19,NULL,Begegnung,kukutana,d,NA,NA,NA,NA,sdf,NA,5,NA,NA,NA,NA,NA,NA,NA,NA,NA,NA,NA,NA,NA,NA,NA,NA,NA,NA,NA
7b792,deep,flow.Sequence,3_0_5_0_6_0,NA,NA,skipped,NA,705499,NA,NA,705495.857,705499.1,2023-01-20T18:59:33Z,705504.19,NULL,Integrität,uadilifu,s,muungano,mtiririko,upunguaji,NA,sdf,NA,5,NA,NA,NA,NA,NA,NA,NA,NA,NA,NA,NA,NA,NA,NA,NA,NA,NA,NA,NA
7b792,Shallow Question,html.Page,3_0_5_0_6_1_0,NA,NA,form submission,9592.9099999997,705499.3,705495.857,705504.19,715097.1,715097.9,2023-01-20T18:59:42Z,715104.296,NULL,Integrität,uadilifu,s,muungano,mtiririko,upunguaji,uadilifu,NA,NA,5,NA,NA,NA,NA,NA,NA,NA,NA,NA,NA,NA,NA,NA,NA,NA,NA,NA,NA,NA
7b792,"""Richtig""-Screen",canvas.Screen,3_0_5_0_6_1_1,NA,NA,timeout,4999.8,715102.3,715087.63,715104.296,720095.763,720098.3,2023-01-20T18:59:47Z,720104.096,NULL,Integrität,uadilifu,s,muungano,mtiririko,upunguaji,NA,sdf,1,5,NA,NA,NA,NA,NA,NA,NA,NA,NA,NA,NA,NA,NA,NA,NA,NA,NA,NA,NA
7b792,"""Falsch""-Screen",canvas.Screen,3_0_5_0_6_1_2,NA,NA,skipped,NA,720101.5,NA,NA,720095.763,720101.5,2023-01-20T18:59:47Z,720104.096,NULL,Integrität,uadilifu,s,muungano,mtiririko,upunguaji,NA,sdf,NA,5,NA,NA,NA,NA,NA,NA,NA,NA,NA,NA,NA,NA,NA,NA,NA,NA,NA,NA,NA
7b792,shallow,flow.Sequence,3_0_5_0_6_1,NA,NA,completion,14591.573,705499.2,705495.857,705504.19,720095.763,720101.6,2023-01-20T18:59:47Z,720104.096,NULL,Integrität,uadilifu,s,muungano,mtiririko,upunguaji,NA,sdf,NA,5,NA,NA,NA,NA,NA,NA,NA,NA,NA,NA,NA,NA,NA,NA,NA,NA,NA,NA,NA
7b792,task,flow.Sequence,3_0_5_0_6,NA,NA,completion,14591.573,705499,705495.857,705504.19,720095.763,720101.7,2023-01-20T18:59:47Z,720104.096,NULL,Integrität,uadilifu,s,muungano,mtiririko,upunguaji,NA,sdf,NA,5,NA,NA,NA,NA,NA,NA,NA,NA,NA,NA,NA,NA,NA,NA,NA,NA,NA,NA,NA
7b792,Deep Question,html.Page,3_0_5_0_7_0_0,NA,NA,form submission,37378.304,720101.8,720095.763,720104.096,757482.4,757483.1,2023-01-20T19:00:25Z,757491.68,NULL,Kultur,utamaduni,d,NA,NA,NA,uga,NA,NA,5,NA,NA,NA,NA,NA,NA,NA,NA,NA,NA,NA,NA,NA,NA,NA,NA,NA,NA,NA
7b792,"""Richtig""-Screen",canvas.Screen,3_0_5_0_7_0_1,NA,NA,skipped,NA,757486.5,NA,NA,757482.4,757486.6,2023-01-20T19:00:25Z,757491.68,NULL,Kultur,utamaduni,d,NA,NA,NA,NA,sdf,NA,5,NA,NA,NA,NA,NA,NA,NA,NA,NA,NA,NA,NA,NA,NA,NA,NA,NA,NA,NA
7b792,"""Falsch""-Screen",canvas.Screen,3_0_5_0_7_0_2,NA,NA,timeout,4999.7999999999,757487.1,757475.014,757491.68,762483.147,762486,2023-01-20T19:00:30Z,762491.48,NULL,Kultur,utamaduni,d,NA,NA,NA,NA,sdf,0,5,NA,NA,NA,NA,NA,NA,NA,NA,NA,NA,NA,NA,NA,NA,NA,NA,NA,NA,NA
7b792,deep,flow.Sequence,3_0_5_0_7_0,NA,NA,completion,42379.051,720101.8,720095.763,720104.096,762483.147,762486.7,2023-01-20T19:00:30Z,762491.48,NULL,Kultur,utamaduni,d,NA,NA,NA,NA,sdf,NA,5,NA,NA,NA,NA,NA,NA,NA,NA,NA,NA,NA,NA,NA,NA,NA,NA,NA,NA,NA
7b792,shallow,flow.Sequence,3_0_5_0_7_1,NA,NA,skipped,NA,762487,NA,NA,762483.147,762487.1,2023-01-20T19:00:30Z,762491.48,NULL,Kultur,utamaduni,d,NA,NA,NA,NA,sdf,NA,5,NA,NA,NA,NA,NA,NA,NA,NA,NA,NA,NA,NA,NA,NA,NA,NA,NA,NA,NA
7b792,task,flow.Sequence,3_0_5_0_7,NA,NA,completion,42379.051,720101.7,720095.763,720104.096,762483.147,762487.2,2023-01-20T19:00:30Z,762491.48,NULL,Kultur,utamaduni,d,NA,NA,NA,NA,sdf,NA,5,NA,NA,NA,NA,NA,NA,NA,NA,NA,NA,NA,NA,NA,NA,NA,NA,NA,NA,NA
7b792,block,flow.Loop,3_0_5_0,NA,NA,completion,130532.824,631942.8,631941.99,631950.323,762483.147,762487.4,2023-01-20T19:00:30Z,762491.48,NULL,NA,NA,NA,NA,NA,NA,NA,sdf,NA,5,NA,NA,NA,NA,NA,NA,NA,NA,NA,NA,NA,NA,NA,NA,NA,NA,NA,NA,NA
7b792,weiter,canvas.Screen,3_0_5_1,sdf,keypress(Space),response,1256.9200000004,762487.5,762483.147,762491.48,763748.4,763758.1,2023-01-20T19:00:31Z,763783.095,NULL,NA,NA,NA,NA,NA,NA,NA,sdf,NA,5,NA,NA,NA,NA,NA,NA,NA,NA,NA,NA,NA,NA,NA,NA,NA,NA,NA,NA,NA
7b792,check continue,flow.Sequence,3_0_5,NA,NA,completion,131798.077,631942.8,631941.99,631950.323,763748.4,763758.6,2023-01-20T19:00:31Z,763783.095,NULL,NA,NA,NA,NA,NA,NA,NA,sdf,NA,5,NA,NA,NA,NA,NA,NA,NA,NA,NA,NA,NA,NA,NA,NA,NA,NA,NA,NA,NA
7b792,deep,flow.Sequence,3_0_6_0_0_0,NA,NA,skipped,NA,763779.6,NA,NA,763748.4,763779.7,2023-01-20T19:00:31Z,763783.095,NULL,Prüfung,mtihani,s,mkulima,mtizamo,ufumbuzi,NA,dfs,NA,6,NA,NA,NA,NA,NA,NA,NA,NA,NA,NA,NA,NA,NA,NA,NA,NA,NA,NA,NA
7b792,Shallow Question,html.Page,3_0_6_0_0_1_0,NA,NA,form submission,4156.5049999997,763779.7,763774.762,763783.095,767939.6,767940.1,2023-01-20T19:00:35Z,767945.852,NULL,Prüfung,mtihani,s,mkulima,mtizamo,ufumbuzi,mtihani,NA,NA,6,NA,NA,NA,NA,NA,NA,NA,NA,NA,NA,NA,NA,NA,NA,NA,NA,NA,NA,NA
7b792,"""Richtig""-Screen",canvas.Screen,3_0_6_0_0_1_1,NA,NA,timeout,4999.8,767943.1,767937.519,767945.852,772937.319,772939.8,2023-01-20T19:00:40Z,772945.652,NULL,Prüfung,mtihani,s,mkulima,mtizamo,ufumbuzi,NA,dfs,1,6,NA,NA,NA,NA,NA,NA,NA,NA,NA,NA,NA,NA,NA,NA,NA,NA,NA,NA,NA
7b792,"""Falsch""-Screen",canvas.Screen,3_0_6_0_0_1_2,NA,NA,skipped,NA,772944.9,NA,NA,772937.319,772945,2023-01-20T19:00:40Z,772945.652,NULL,Prüfung,mtihani,s,mkulima,mtizamo,ufumbuzi,NA,dfs,NA,6,NA,NA,NA,NA,NA,NA,NA,NA,NA,NA,NA,NA,NA,NA,NA,NA,NA,NA,NA
7b792,shallow,flow.Sequence,3_0_6_0_0_1,NA,NA,completion,9154.224,763779.7,763774.762,763783.095,772937.319,772945.2,2023-01-20T19:00:40Z,772945.652,NULL,Prüfung,mtihani,s,mkulima,mtizamo,ufumbuzi,NA,dfs,NA,6,NA,NA,NA,NA,NA,NA,NA,NA,NA,NA,NA,NA,NA,NA,NA,NA,NA,NA,NA
7b792,task,flow.Sequence,3_0_6_0_0,NA,NA,completion,9154.224,763779.6,763774.762,763783.095,772937.319,772945.3,2023-01-20T19:00:40Z,772945.652,NULL,Prüfung,mtihani,s,mkulima,mtizamo,ufumbuzi,NA,dfs,NA,6,NA,NA,NA,NA,NA,NA,NA,NA,NA,NA,NA,NA,NA,NA,NA,NA,NA,NA,NA
7b792,Deep Question,html.Page,3_0_6_0_1_0_0,NA,NA,form submission,8063.5480000002,772945.4,772937.319,772945.652,781009.2,781009.6,2023-01-20T19:00:48Z,781020.707,NULL,Begegnung,kukutana,d,NA,NA,NA,kukutana,NA,NA,6,NA,NA,NA,NA,NA,NA,NA,NA,NA,NA,NA,NA,NA,NA,NA,NA,NA,NA,NA
7b792,"""Richtig""-Screen",canvas.Screen,3_0_6_0_1_0_1,NA,NA,timeout,4999.7999999999,781012.7,781004.041,781020.707,786012.174,786014.8,2023-01-20T19:00:53Z,786020.507,NULL,Begegnung,kukutana,d,NA,NA,NA,NA,dfs,1,6,NA,NA,NA,NA,NA,NA,NA,NA,NA,NA,NA,NA,NA,NA,NA,NA,NA,NA,NA
7b792,"""Falsch""-Screen",canvas.Screen,3_0_6_0_1_0_2,NA,NA,skipped,NA,786020.5,NA,NA,786012.174,786020.8,2023-01-20T19:00:53Z,786020.507,NULL,Begegnung,kukutana,d,NA,NA,NA,NA,dfs,NA,6,NA,NA,NA,NA,NA,NA,NA,NA,NA,NA,NA,NA,NA,NA,NA,NA,NA,NA,NA
7b792,deep,flow.Sequence,3_0_6_0_1_0,NA,NA,completion,13066.522,772945.4,772937.319,772945.652,786012.174,786020.9,2023-01-20T19:00:53Z,786020.507,NULL,Begegnung,kukutana,d,NA,NA,NA,NA,dfs,NA,6,NA,NA,NA,NA,NA,NA,NA,NA,NA,NA,NA,NA,NA,NA,NA,NA,NA,NA,NA
7b792,shallow,flow.Sequence,3_0_6_0_1_1,NA,NA,skipped,NA,786021,NA,NA,786012.174,786021,2023-01-20T19:00:53Z,786020.507,NULL,Begegnung,kukutana,d,NA,NA,NA,NA,dfs,NA,6,NA,NA,NA,NA,NA,NA,NA,NA,NA,NA,NA,NA,NA,NA,NA,NA,NA,NA,NA
7b792,task,flow.Sequence,3_0_6_0_1,NA,NA,completion,13066.522,772945.4,772937.319,772945.652,786012.174,786021.1,2023-01-20T19:00:53Z,786020.507,NULL,Begegnung,kukutana,d,NA,NA,NA,NA,dfs,NA,6,NA,NA,NA,NA,NA,NA,NA,NA,NA,NA,NA,NA,NA,NA,NA,NA,NA,NA,NA
7b792,Deep Question,html.Page,3_0_6_0_2_0_0,NA,NA,form submission,6937.3930000004,786021.2,786012.174,786020.507,792957.9,792958.8,2023-01-20T19:01:00Z,792970.606,NULL,Genehmigung,idhini,d,NA,NA,NA,kuchelewa,NA,NA,6,NA,NA,NA,NA,NA,NA,NA,NA,NA,NA,NA,NA,NA,NA,NA,NA,NA,NA,NA
7b792,"""Richtig""-Screen",canvas.Screen,3_0_6_0_2_0_1,NA,NA,skipped,NA,792962.1,NA,NA,792957.9,792962.2,2023-01-20T19:01:00Z,792970.606,NULL,Genehmigung,idhini,d,NA,NA,NA,NA,dfs,NA,6,NA,NA,NA,NA,NA,NA,NA,NA,NA,NA,NA,NA,NA,NA,NA,NA,NA,NA,NA
7b792,"""Falsch""-Screen",canvas.Screen,3_0_6_0_2_0_2,NA,NA,timeout,4999.7999999999,792962.8,792953.94,792970.606,797962.073,797965.2,2023-01-20T19:01:05Z,797970.406,NULL,Genehmigung,idhini,d,NA,NA,NA,NA,dfs,0,6,NA,NA,NA,NA,NA,NA,NA,NA,NA,NA,NA,NA,NA,NA,NA,NA,NA,NA,NA
7b792,deep,flow.Sequence,3_0_6_0_2_0,NA,NA,completion,11941.566,786021.2,786012.174,786020.507,797962.073,797965.8,2023-01-20T19:01:05Z,797970.406,NULL,Genehmigung,idhini,d,NA,NA,NA,NA,dfs,NA,6,NA,NA,NA,NA,NA,NA,NA,NA,NA,NA,NA,NA,NA,NA,NA,NA,NA,NA,NA
7b792,shallow,flow.Sequence,3_0_6_0_2_1,NA,NA,skipped,NA,797966,NA,NA,797962.073,797966.1,2023-01-20T19:01:05Z,797970.406,NULL,Genehmigung,idhini,d,NA,NA,NA,NA,dfs,NA,6,NA,NA,NA,NA,NA,NA,NA,NA,NA,NA,NA,NA,NA,NA,NA,NA,NA,NA,NA
7b792,task,flow.Sequence,3_0_6_0_2,NA,NA,completion,11941.566,786021.2,786012.174,786020.507,797962.073,797966.3,2023-01-20T19:01:05Z,797970.406,NULL,Genehmigung,idhini,d,NA,NA,NA,NA,dfs,NA,6,NA,NA,NA,NA,NA,NA,NA,NA,NA,NA,NA,NA,NA,NA,NA,NA,NA,NA,NA
7b792,Deep Question,html.Page,3_0_6_0_3_0_0,NA,NA,form submission,23803.994,797966.5,797962.073,797970.406,821774.4,821774.8,2023-01-20T19:01:29Z,821779.058,NULL,Kultur,utamaduni,d,NA,NA,NA,ugomatani,NA,NA,6,NA,NA,NA,NA,NA,NA,NA,NA,NA,NA,NA,NA,NA,NA,NA,NA,NA,NA,NA
7b792,"""Richtig""-Screen",canvas.Screen,3_0_6_0_3_0_1,NA,NA,skipped,NA,821778.1,NA,NA,821774.4,821778.2,2023-01-20T19:01:29Z,821779.058,NULL,Kultur,utamaduni,d,NA,NA,NA,NA,dfs,NA,6,NA,NA,NA,NA,NA,NA,NA,NA,NA,NA,NA,NA,NA,NA,NA,NA,NA,NA,NA
7b792,"""Falsch""-Screen",canvas.Screen,3_0_6_0_3_0_2,NA,NA,timeout,4999.8,821778.7,821770.725,821779.058,826770.525,826773.6,2023-01-20T19:01:34Z,826778.858,NULL,Kultur,utamaduni,d,NA,NA,NA,NA,dfs,0,6,NA,NA,NA,NA,NA,NA,NA,NA,NA,NA,NA,NA,NA,NA,NA,NA,NA,NA,NA
7b792,deep,flow.Sequence,3_0_6_0_3_0,NA,NA,completion,28800.119,797966.5,797962.073,797970.406,826770.525,826774.1,2023-01-20T19:01:34Z,826778.858,NULL,Kultur,utamaduni,d,NA,NA,NA,NA,dfs,NA,6,NA,NA,NA,NA,NA,NA,NA,NA,NA,NA,NA,NA,NA,NA,NA,NA,NA,NA,NA
7b792,shallow,flow.Sequence,3_0_6_0_3_1,NA,NA,skipped,NA,826774.2,NA,NA,826770.525,826774.4,2023-01-20T19:01:34Z,826778.858,NULL,Kultur,utamaduni,d,NA,NA,NA,NA,dfs,NA,6,NA,NA,NA,NA,NA,NA,NA,NA,NA,NA,NA,NA,NA,NA,NA,NA,NA,NA,NA
7b792,task,flow.Sequence,3_0_6_0_3,NA,NA,completion,28800.119,797966.4,797962.073,797970.406,826770.525,826774.6,2023-01-20T19:01:34Z,826778.858,NULL,Kultur,utamaduni,d,NA,NA,NA,NA,dfs,NA,6,NA,NA,NA,NA,NA,NA,NA,NA,NA,NA,NA,NA,NA,NA,NA,NA,NA,NA,NA
7b792,deep,flow.Sequence,3_0_6_0_4_0,NA,NA,skipped,NA,826774.7,NA,NA,826770.525,826774.8,2023-01-20T19:01:34Z,826778.858,NULL,Aufstand,ugomaji,s,mazidio,msingi,kujieleza,NA,dfs,NA,6,NA,NA,NA,NA,NA,NA,NA,NA,NA,NA,NA,NA,NA,NA,NA,NA,NA,NA,NA
7b792,Shallow Question,html.Page,3_0_6_0_4_1_0,NA,NA,form submission,4515.8420000002,826775,826770.525,826778.858,831294.7,831295.2,2023-01-20T19:01:39Z,831304.119,NULL,Aufstand,ugomaji,s,mazidio,msingi,kujieleza,ugomaji,NA,NA,6,NA,NA,NA,NA,NA,NA,NA,NA,NA,NA,NA,NA,NA,NA,NA,NA,NA,NA,NA
7b792,"""Richtig""-Screen",canvas.Screen,3_0_6_0_4_1_1,NA,NA,timeout,4999.8,831298.6,831287.453,831304.119,836295.586,836298.3,2023-01-20T19:01:44Z,836303.919,NULL,Aufstand,ugomaji,s,mazidio,msingi,kujieleza,NA,dfs,1,6,NA,NA,NA,NA,NA,NA,NA,NA,NA,NA,NA,NA,NA,NA,NA,NA,NA,NA,NA
7b792,"""Falsch""-Screen",canvas.Screen,3_0_6_0_4_1_2,NA,NA,skipped,NA,836303.4,NA,NA,836295.586,836303.5,2023-01-20T19:01:44Z,836303.919,NULL,Aufstand,ugomaji,s,mazidio,msingi,kujieleza,NA,dfs,NA,6,NA,NA,NA,NA,NA,NA,NA,NA,NA,NA,NA,NA,NA,NA,NA,NA,NA,NA,NA
7b792,shallow,flow.Sequence,3_0_6_0_4_1,NA,NA,completion,9516.728,826774.9,826770.525,826778.858,836295.586,836303.6,2023-01-20T19:01:44Z,836303.919,NULL,Aufstand,ugomaji,s,mazidio,msingi,kujieleza,NA,dfs,NA,6,NA,NA,NA,NA,NA,NA,NA,NA,NA,NA,NA,NA,NA,NA,NA,NA,NA,NA,NA
7b792,task,flow.Sequence,3_0_6_0_4,NA,NA,completion,9516.728,826774.7,826770.525,826778.858,836295.586,836303.7,2023-01-20T19:01:44Z,836303.919,NULL,Aufstand,ugomaji,s,mazidio,msingi,kujieleza,NA,dfs,NA,6,NA,NA,NA,NA,NA,NA,NA,NA,NA,NA,NA,NA,NA,NA,NA,NA,NA,NA,NA
7b792,deep,flow.Sequence,3_0_6_0_5_0,NA,NA,skipped,NA,836303.8,NA,NA,836295.586,836303.9,2023-01-20T19:01:44Z,836303.919,NULL,Integrität,uadilifu,s,muungano,mtiririko,upunguaji,NA,dfs,NA,6,NA,NA,NA,NA,NA,NA,NA,NA,NA,NA,NA,NA,NA,NA,NA,NA,NA,NA,NA
7b792,Shallow Question,html.Page,3_0_6_0_5_1_0,NA,NA,form submission,7606.8809999998,836304,836295.586,836303.919,843910.8,843911.4,2023-01-20T19:01:51Z,843916.505,NULL,Integrität,uadilifu,s,muungano,mtiririko,upunguaji,uadilifu,NA,NA,6,NA,NA,NA,NA,NA,NA,NA,NA,NA,NA,NA,NA,NA,NA,NA,NA,NA,NA,NA
