observation,sender,sender_type,sender_id,response,response_action,ended_on,duration,time_run,time_render,time_show,time_end,time_commit,timestamp,time_switch,distractors,german,swahili,enc,distractor1,distractor2,distractor3,response_2,x,correct,x_2,url_vp,url_sess,meta_labjs_version,meta_location,meta_user_agent,meta_platform,meta_language,meta_locale,meta_time_zone,meta_timezone_offset,meta_screen_width,meta_screen_height,meta_scroll_width,meta_scroll_height,meta_window_inner_width,meta_window_inner_height,meta_device_pixel_ratio,meta_labjs_build_flavor,meta_labjs_build_commit
13a8c,Introduction general,canvas.Screen,0,weiter,keypress(q),response,22997.707000001,348,206.065,339.393,23337.100000001,23343,2023-05-05T11:51:46Z,23355.686,NULL,NA,NA,NA,NA,NA,NA,NA,NA,NA,NA,116,1,20.2.4,https://neurocog.fernuni.ch/studies/vweber/encoding_immediate/index.html?vp=116&sess=1,"Mozilla/5.0 (Macintosh; Intel Mac OS X 10_15_7) AppleWebKit/537.36 (KHTML, like Gecko) Chrome/113.0.0.0 Safari/537.36",MacIntel,de-DE,de,Europe/Zurich,-120,1440,900,1360,660,1360,708,2,production,f5b4a49f956347addd546a832a3327688c2c0fef
13a8c,Introduction practice,canvas.Screen,1_0,NA,keypress(Space),response,11936.213999999,23343.200000003,23339.02,23355.686,35291.899999999,35295.200000003,2023-05-05T11:51:58Z,35306.172,NULL,NA,NA,NA,NA,NA,NA,NA,NA,NA,NA,NA,NA,NA,NA,NA,NA,NA,NA,NA,NA,NA,NA,NA,NA,NA,NA,NA,NA,NA
13a8c,deep,flow.Sequence,1_1_0_0,NA,NA,skipped,NA,35295.700000003,NA,NA,35291.899999999,35296.100000001,2023-05-05T11:51:58Z,35306.172,"c(""distractor1"", ""distractor2"", ""distractor3"")",Rückhalt,msaada,s,muhula,auwali,kiwimbe,NA,NA,NA,NA,NA,NA,NA,NA,NA,NA,NA,NA,NA,NA,NA,NA,NA,NA,NA,NA,NA,NA,NA
13a8c,Shallow Question,html.Page,1_1_0_1_0,NA,NA,form submission,5356.9280000015,35296.300000004,35289.506,35306.172,40663.100000001,40663.300000004,2023-05-05T11:52:03Z,40673.312,"c(""distractor1"", ""distractor2"", ""distractor3"")",Rückhalt,msaada,s,muhula,auwali,kiwimbe,muhula,NA,NA,NA,NA,NA,NA,NA,NA,NA,NA,NA,NA,NA,NA,NA,NA,NA,NA,NA,NA,NA,NA
13a8c,"""Richtig""-Screen",canvas.Screen,1_1_0_1_1,NA,NA,skipped,NA,40664.100000001,NA,NA,40663.100000001,40664.100000001,2023-05-05T11:52:03Z,40673.312,"c(""distractor1"", ""distractor2"", ""distractor3"")",Rückhalt,msaada,s,muhula,auwali,kiwimbe,NA,NA,NA,NA,NA,NA,NA,NA,NA,NA,NA,NA,NA,NA,NA,NA,NA,NA,NA,NA,NA,NA,NA
13a8c,"""Falsch""-Screen",canvas.Screen,1_1_0_1_2,NA,NA,timeout,4999.8,40664.700000003,40656.646,40673.312,45656.446,45659.700000003,2023-05-05T11:52:08Z,45673.112,"c(""distractor1"", ""distractor2"", ""distractor3"")",Rückhalt,msaada,s,muhula,auwali,kiwimbe,NA,NA,0,NA,NA,NA,NA,NA,NA,NA,NA,NA,NA,NA,NA,NA,NA,NA,NA,NA,NA,NA,NA
13a8c,shallow,flow.Sequence,1_1_0_1,NA,NA,completion,10350.274,35296.200000003,35289.506,35306.172,45656.446,45660.200000003,2023-05-05T11:52:08Z,45673.112,"c(""distractor1"", ""distractor2"", ""distractor3"")",Rückhalt,msaada,s,muhula,auwali,kiwimbe,NA,NA,NA,NA,NA,NA,NA,NA,NA,NA,NA,NA,NA,NA,NA,NA,NA,NA,NA,NA,NA,NA,NA
13a8c,task,flow.Sequence,1_1_0,NA,NA,completion,10350.274,35295.700000003,35289.506,35306.172,45656.446,45660.399999999,2023-05-05T11:52:08Z,45673.112,"c(""distractor1"", ""distractor2"", ""distractor3"")",Rückhalt,msaada,s,muhula,auwali,kiwimbe,NA,NA,NA,NA,NA,NA,NA,NA,NA,NA,NA,NA,NA,NA,NA,NA,NA,NA,NA,NA,NA,NA,NA
13a8c,deep,flow.Sequence,1_1_1_0,NA,NA,skipped,NA,45660.600000001,NA,NA,45656.446,45660.800000004,2023-05-05T11:52:08Z,45673.112,"c(""distractor1"", ""distractor2"", ""distractor3"")",Kritik,lawama,s,dereva,nafasi,mawazo,NA,NA,NA,NA,NA,NA,NA,NA,NA,NA,NA,NA,NA,NA,NA,NA,NA,NA,NA,NA,NA,NA,NA
13a8c,Shallow Question,html.Page,1_1_1_1_0,NA,NA,form submission,6706.6880000045,45661,45656.446,45673.112,52379.800000004,52380.399999999,2023-05-05T11:52:15Z,52389.937,"c(""distractor1"", ""distractor2"", ""distractor3"")",Kritik,lawama,s,dereva,nafasi,mawazo,nafasi,NA,NA,NA,NA,NA,NA,NA,NA,NA,NA,NA,NA,NA,NA,NA,NA,NA,NA,NA,NA,NA,NA
13a8c,"""Richtig""-Screen",canvas.Screen,1_1_1_1_1,NA,NA,skipped,NA,52381.700000003,NA,NA,52379.800000004,52381.800000004,2023-05-05T11:52:15Z,52389.937,"c(""distractor1"", ""distractor2"", ""distractor3"")",Kritik,lawama,s,dereva,nafasi,mawazo,NA,NA,NA,NA,NA,NA,NA,NA,NA,NA,NA,NA,NA,NA,NA,NA,NA,NA,NA,NA,NA,NA,NA
13a8c,"""Falsch""-Screen",canvas.Screen,1_1_1_1_2,NA,NA,timeout,4999.8,52382.600000001,52373.271,52389.937,57373.071,57378.300000004,2023-05-05T11:52:20Z,57389.737,"c(""distractor1"", ""distractor2"", ""distractor3"")",Kritik,lawama,s,dereva,nafasi,mawazo,NA,NA,0,NA,NA,NA,NA,NA,NA,NA,NA,NA,NA,NA,NA,NA,NA,NA,NA,NA,NA,NA,NA
13a8c,shallow,flow.Sequence,1_1_1_1,NA,NA,completion,11699.959,45661,45656.446,45673.112,57373.071,57378.800000004,2023-05-05T11:52:20Z,57389.737,"c(""distractor1"", ""distractor2"", ""distractor3"")",Kritik,lawama,s,dereva,nafasi,mawazo,NA,NA,NA,NA,NA,NA,NA,NA,NA,NA,NA,NA,NA,NA,NA,NA,NA,NA,NA,NA,NA,NA,NA
13a8c,task,flow.Sequence,1_1_1,NA,NA,completion,11699.959,45660.5,45656.446,45673.112,57373.071,57379.100000001,2023-05-05T11:52:20Z,57389.737,"c(""distractor1"", ""distractor2"", ""distractor3"")",Kritik,lawama,s,dereva,nafasi,mawazo,NA,NA,NA,NA,NA,NA,NA,NA,NA,NA,NA,NA,NA,NA,NA,NA,NA,NA,NA,NA,NA,NA,NA
13a8c,Deep Question,html.Page,1_1_2_0_0,NA,NA,form submission,8103.3630000015,57379.5,57373.071,57389.737,65493.100000001,65493.200000003,2023-05-05T11:52:28Z,65506.78,"c(""distractor1"", ""distractor2"", ""distractor3"")",Qualität,mtindo,d,NA,NA,NA,umbuntu,NA,NA,NA,NA,NA,NA,NA,NA,NA,NA,NA,NA,NA,NA,NA,NA,NA,NA,NA,NA,NA,NA
13a8c,"""Richtig""-Screen",canvas.Screen,1_1_2_0_1,NA,NA,skipped,NA,65494.200000003,NA,NA,65493.100000001,65494.200000003,2023-05-05T11:52:28Z,65506.78,"c(""distractor1"", ""distractor2"", ""distractor3"")",Qualität,mtindo,d,NA,NA,NA,NA,NA,NA,NA,NA,NA,NA,NA,NA,NA,NA,NA,NA,NA,NA,NA,NA,NA,NA,NA,NA,NA,NA
13a8c,"""Falsch""-Screen",canvas.Screen,1_1_2_0_2,NA,NA,timeout,4999.8,65494.5,65490.114,65506.78,70489.914,70494.700000003,2023-05-05T11:52:33Z,70506.58,"c(""distractor1"", ""distractor2"", ""distractor3"")",Qualität,mtindo,d,NA,NA,NA,NA,NA,0,NA,NA,NA,NA,NA,NA,NA,NA,NA,NA,NA,NA,NA,NA,NA,NA,NA,NA,NA,NA
13a8c,deep,flow.Sequence,1_1_2_0,NA,NA,completion,13100.177,57379.399999999,57373.071,57389.737,70489.914,70495.100000001,2023-05-05T11:52:33Z,70506.58,"c(""distractor1"", ""distractor2"", ""distractor3"")",Qualität,mtindo,d,NA,NA,NA,NA,NA,NA,NA,NA,NA,NA,NA,NA,NA,NA,NA,NA,NA,NA,NA,NA,NA,NA,NA,NA,NA,NA
13a8c,shallow,flow.Sequence,1_1_2_1,NA,NA,skipped,NA,70495.300000004,NA,NA,70489.914,70495.399999999,2023-05-05T11:52:33Z,70506.58,"c(""distractor1"", ""distractor2"", ""distractor3"")",Qualität,mtindo,d,NA,NA,NA,NA,NA,NA,NA,NA,NA,NA,NA,NA,NA,NA,NA,NA,NA,NA,NA,NA,NA,NA,NA,NA,NA,NA
13a8c,task,flow.Sequence,1_1_2,NA,NA,completion,13100.177,57379.300000004,57373.071,57389.737,70489.914,70495.600000001,2023-05-05T11:52:33Z,70506.58,"c(""distractor1"", ""distractor2"", ""distractor3"")",Qualität,mtindo,d,NA,NA,NA,NA,NA,NA,NA,NA,NA,NA,NA,NA,NA,NA,NA,NA,NA,NA,NA,NA,NA,NA,NA,NA,NA,NA
13a8c,Deep Question,html.Page,1_1_3_0_0,NA,NA,form submission,6153.5200000015,70495.899999999,70489.914,70506.58,76660.100000001,76660.300000004,2023-05-05T11:52:39Z,76673.541,"c(""distractor1"", ""distractor2"", ""distractor3"")",Schatten,kivuli,d,NA,NA,NA,lumas,NA,NA,NA,NA,NA,NA,NA,NA,NA,NA,NA,NA,NA,NA,NA,NA,NA,NA,NA,NA,NA,NA
13a8c,"""Richtig""-Screen",canvas.Screen,1_1_3_0_1,NA,NA,skipped,NA,76662.200000003,NA,NA,76660.100000001,76662.300000004,2023-05-05T11:52:39Z,76673.541,"c(""distractor1"", ""distractor2"", ""distractor3"")",Schatten,kivuli,d,NA,NA,NA,NA,NA,NA,NA,NA,NA,NA,NA,NA,NA,NA,NA,NA,NA,NA,NA,NA,NA,NA,NA,NA,NA,NA
13a8c,"""Falsch""-Screen",canvas.Screen,1_1_3_0_2,NA,NA,timeout,4999.8,76662.800000004,76656.875,76673.541,81656.675,81660.700000003,2023-05-05T11:52:44Z,81673.341,"c(""distractor1"", ""distractor2"", ""distractor3"")",Schatten,kivuli,d,NA,NA,NA,NA,NA,0,NA,NA,NA,NA,NA,NA,NA,NA,NA,NA,NA,NA,NA,NA,NA,NA,NA,NA,NA,NA
13a8c,deep,flow.Sequence,1_1_3_0,NA,NA,completion,11150.095,70495.800000004,70489.914,70506.58,81656.675,81661.100000001,2023-05-05T11:52:44Z,81673.341,"c(""distractor1"", ""distractor2"", ""distractor3"")",Schatten,kivuli,d,NA,NA,NA,NA,NA,NA,NA,NA,NA,NA,NA,NA,NA,NA,NA,NA,NA,NA,NA,NA,NA,NA,NA,NA,NA,NA
13a8c,shallow,flow.Sequence,1_1_3_1,NA,NA,skipped,NA,81661.300000004,NA,NA,81656.675,81661.399999999,2023-05-05T11:52:44Z,81673.341,"c(""distractor1"", ""distractor2"", ""distractor3"")",Schatten,kivuli,d,NA,NA,NA,NA,NA,NA,NA,NA,NA,NA,NA,NA,NA,NA,NA,NA,NA,NA,NA,NA,NA,NA,NA,NA,NA,NA
13a8c,task,flow.Sequence,1_1_3,NA,NA,completion,11150.095,70495.700000003,70489.914,70506.58,81656.675,81661.600000001,2023-05-05T11:52:44Z,81673.341,"c(""distractor1"", ""distractor2"", ""distractor3"")",Schatten,kivuli,d,NA,NA,NA,NA,NA,NA,NA,NA,NA,NA,NA,NA,NA,NA,NA,NA,NA,NA,NA,NA,NA,NA,NA,NA,NA,NA
13a8c,Deep Question,html.Page,1_1_4_0_0,NA,NA,form submission,6454.4590000045,81661.800000004,81656.675,81673.341,88127.800000004,88128,2023-05-05T11:52:51Z,88140.307,"c(""distractor1"", ""distractor2"", ""distractor3"")",Gesundheit,salama,d,NA,NA,NA,mala,NA,NA,NA,NA,NA,NA,NA,NA,NA,NA,NA,NA,NA,NA,NA,NA,NA,NA,NA,NA,NA,NA
13a8c,"""Richtig""-Screen",canvas.Screen,1_1_4_0_1,NA,NA,skipped,NA,88130,NA,NA,88127.800000004,88130.100000001,2023-05-05T11:52:51Z,88140.307,"c(""distractor1"", ""distractor2"", ""distractor3"")",Gesundheit,salama,d,NA,NA,NA,NA,NA,NA,NA,NA,NA,NA,NA,NA,NA,NA,NA,NA,NA,NA,NA,NA,NA,NA,NA,NA,NA,NA
13a8c,"""Falsch""-Screen",canvas.Screen,1_1_4_0_2,NA,NA,timeout,4999.8,88130.5,88123.641,88140.307,93123.441,93126.5,2023-05-05T11:52:56Z,93140.107,"c(""distractor1"", ""distractor2"", ""distractor3"")",Gesundheit,salama,d,NA,NA,NA,NA,NA,0,NA,NA,NA,NA,NA,NA,NA,NA,NA,NA,NA,NA,NA,NA,NA,NA,NA,NA,NA,NA
13a8c,deep,flow.Sequence,1_1_4_0,NA,NA,completion,11450.1,81661.800000004,81656.675,81673.341,93123.441,93126.899999999,2023-05-05T11:52:56Z,93140.107,"c(""distractor1"", ""distractor2"", ""distractor3"")",Gesundheit,salama,d,NA,NA,NA,NA,NA,NA,NA,NA,NA,NA,NA,NA,NA,NA,NA,NA,NA,NA,NA,NA,NA,NA,NA,NA,NA,NA
13a8c,shallow,flow.Sequence,1_1_4_1,NA,NA,skipped,NA,93127,NA,NA,93123.441,93127.200000003,2023-05-05T11:52:56Z,93140.107,"c(""distractor1"", ""distractor2"", ""distractor3"")",Gesundheit,salama,d,NA,NA,NA,NA,NA,NA,NA,NA,NA,NA,NA,NA,NA,NA,NA,NA,NA,NA,NA,NA,NA,NA,NA,NA,NA,NA
13a8c,task,flow.Sequence,1_1_4,NA,NA,completion,11450.1,81661.700000003,81656.675,81673.341,93123.441,93127.300000004,2023-05-05T11:52:56Z,93140.107,"c(""distractor1"", ""distractor2"", ""distractor3"")",Gesundheit,salama,d,NA,NA,NA,NA,NA,NA,NA,NA,NA,NA,NA,NA,NA,NA,NA,NA,NA,NA,NA,NA,NA,NA,NA,NA,NA,NA
13a8c,deep,flow.Sequence,1_1_5_0,NA,NA,skipped,NA,93127.5,NA,NA,93123.441,93127.600000001,2023-05-05T11:52:56Z,93140.107,"c(""distractor1"", ""distractor2"", ""distractor3"")",Gegenwart,hadhara,s,katiba,jokofu,mikopo,NA,NA,NA,NA,NA,NA,NA,NA,NA,NA,NA,NA,NA,NA,NA,NA,NA,NA,NA,NA,NA,NA,NA
13a8c,Shallow Question,html.Page,1_1_5_1_0,NA,NA,form submission,5924.1930000045,93127.800000004,93123.441,93140.107,99064.300000004,99064.600000001,2023-05-05T11:53:02Z,99073.777,"c(""distractor1"", ""distractor2"", ""distractor3"")",Gegenwart,hadhara,s,katiba,jokofu,mikopo,jokofu,NA,NA,NA,NA,NA,NA,NA,NA,NA,NA,NA,NA,NA,NA,NA,NA,NA,NA,NA,NA,NA,NA
13a8c,"""Richtig""-Screen",canvas.Screen,1_1_5_1_1,NA,NA,skipped,NA,99067.5,NA,NA,99064.300000004,99067.5,2023-05-05T11:53:02Z,99073.777,"c(""distractor1"", ""distractor2"", ""distractor3"")",Gegenwart,hadhara,s,katiba,jokofu,mikopo,NA,NA,NA,NA,NA,NA,NA,NA,NA,NA,NA,NA,NA,NA,NA,NA,NA,NA,NA,NA,NA,NA,NA
13a8c,"""Falsch""-Screen",canvas.Screen,1_1_5_1_2,NA,NA,timeout,4999.8,99068.200000003,99057.111,99073.777,104056.911,104061.5,2023-05-05T11:53:07Z,104073.577,"c(""distractor1"", ""distractor2"", ""distractor3"")",Gegenwart,hadhara,s,katiba,jokofu,mikopo,NA,NA,0,NA,NA,NA,NA,NA,NA,NA,NA,NA,NA,NA,NA,NA,NA,NA,NA,NA,NA,NA,NA
13a8c,shallow,flow.Sequence,1_1_5_1,NA,NA,completion,10916.804,93127.700000003,93123.441,93140.107,104056.911,104062.1,2023-05-05T11:53:07Z,104073.577,"c(""distractor1"", ""distractor2"", ""distractor3"")",Gegenwart,hadhara,s,katiba,jokofu,mikopo,NA,NA,NA,NA,NA,NA,NA,NA,NA,NA,NA,NA,NA,NA,NA,NA,NA,NA,NA,NA,NA,NA,NA
13a8c,task,flow.Sequence,1_1_5,NA,NA,completion,10916.804,93127.399999999,93123.441,93140.107,104056.911,104062.3,2023-05-05T11:53:07Z,104073.577,"c(""distractor1"", ""distractor2"", ""distractor3"")",Gegenwart,hadhara,s,katiba,jokofu,mikopo,NA,NA,NA,NA,NA,NA,NA,NA,NA,NA,NA,NA,NA,NA,NA,NA,NA,NA,NA,NA,NA,NA,NA
13a8c,block,flow.Loop,1_1,NA,NA,completion,68750.739,35295.600000001,35289.506,35306.172,104056.911,104062.5,2023-05-05T11:53:07Z,104073.577,"c(""distractor1"", ""distractor2"", ""distractor3"")",NA,NA,NA,NA,NA,NA,NA,NA,NA,NA,NA,NA,NA,NA,NA,NA,NA,NA,NA,NA,NA,NA,NA,NA,NA,NA,NA,NA,NA
13a8c,Practice,flow.Sequence,1,NA,NA,completion,80701.225,23343.200000003,23339.02,23355.686,104056.911,104062.7,2023-05-05T11:53:07Z,104073.577,NULL,NA,NA,NA,NA,NA,NA,NA,NA,NA,NA,NA,NA,NA,NA,NA,NA,NA,NA,NA,NA,NA,NA,NA,NA,NA,NA,NA,NA,NA
13a8c,Experiment start,canvas.Screen,2,weiter,keypress(q),response,19363.322999999,104062.8,104056.911,104073.577,123436.9,123443,2023-05-05T11:53:26Z,123506.68,NULL,NA,NA,NA,NA,NA,NA,NA,NA,NA,NA,NA,NA,NA,NA,NA,NA,NA,NA,NA,NA,NA,NA,NA,NA,NA,NA,NA,NA,NA
13a8c,Deep Question,html.Page,3_0_0_0_0_0_0,NA,NA,form submission,9173.020000003,123493,123490.014,123506.68,132679.7,132680.1,2023-05-05T11:53:35Z,132690.742,NULL,Übersicht,kilindo,d,NA,NA,NA,mdaama,NA,NA,0,NA,NA,NA,NA,NA,NA,NA,NA,NA,NA,NA,NA,NA,NA,NA,NA,NA,NA,NA
13a8c,"""Richtig""-Screen",canvas.Screen,3_0_0_0_0_0_1,NA,NA,skipped,NA,132683.7,NA,NA,132679.7,132683.9,2023-05-05T11:53:35Z,132690.742,NULL,Übersicht,kilindo,d,NA,NA,NA,NA,sdf,NA,0,NA,NA,NA,NA,NA,NA,NA,NA,NA,NA,NA,NA,NA,NA,NA,NA,NA,NA,NA
13a8c,"""Falsch""-Screen",canvas.Screen,3_0_0_0_0_0_2,NA,NA,timeout,4999.8,132684.6,132674.076,132690.742,137673.876,137678.8,2023-05-05T11:53:40Z,137690.542,NULL,Übersicht,kilindo,d,NA,NA,NA,NA,sdf,0,0,NA,NA,NA,NA,NA,NA,NA,NA,NA,NA,NA,NA,NA,NA,NA,NA,NA,NA,NA
13a8c,deep,flow.Sequence,3_0_0_0_0_0,NA,NA,completion,14167.196,123493,123490.014,123506.68,137673.876,137679.1,2023-05-05T11:53:40Z,137690.542,NULL,Übersicht,kilindo,d,NA,NA,NA,NA,sdf,NA,0,NA,NA,NA,NA,NA,NA,NA,NA,NA,NA,NA,NA,NA,NA,NA,NA,NA,NA,NA
13a8c,shallow,flow.Sequence,3_0_0_0_0_1,NA,NA,skipped,NA,137679.2,NA,NA,137673.876,137679.3,2023-05-05T11:53:40Z,137690.542,NULL,Übersicht,kilindo,d,NA,NA,NA,NA,sdf,NA,0,NA,NA,NA,NA,NA,NA,NA,NA,NA,NA,NA,NA,NA,NA,NA,NA,NA,NA,NA
13a8c,task,flow.Sequence,3_0_0_0_0,NA,NA,completion,14167.196,123493,123490.014,123506.68,137673.876,137679.5,2023-05-05T11:53:40Z,137690.542,NULL,Übersicht,kilindo,d,NA,NA,NA,NA,sdf,NA,0,NA,NA,NA,NA,NA,NA,NA,NA,NA,NA,NA,NA,NA,NA,NA,NA,NA,NA,NA
13a8c,Deep Question,html.Page,3_0_0_0_1_0_0,NA,NA,form submission,4656.8579999985,137679.7,137673.876,137690.542,142347.4,142347.8,2023-05-05T11:53:45Z,142357.606,NULL,Vorwurf,mashtaka,d,NA,NA,NA,m,NA,NA,0,NA,NA,NA,NA,NA,NA,NA,NA,NA,NA,NA,NA,NA,NA,NA,NA,NA,NA,NA
13a8c,"""Richtig""-Screen",canvas.Screen,3_0_0_0_1_0_1,NA,NA,skipped,NA,142351.6,NA,NA,142347.4,142351.8,2023-05-05T11:53:45Z,142357.606,NULL,Vorwurf,mashtaka,d,NA,NA,NA,NA,sdf,NA,0,NA,NA,NA,NA,NA,NA,NA,NA,NA,NA,NA,NA,NA,NA,NA,NA,NA,NA,NA
13a8c,"""Falsch""-Screen",canvas.Screen,3_0_0_0_1_0_2,NA,NA,timeout,4999.8,142352.8,142340.94,142357.606,147340.74,147345,2023-05-05T11:53:50Z,147357.406,NULL,Vorwurf,mashtaka,d,NA,NA,NA,NA,sdf,0,0,NA,NA,NA,NA,NA,NA,NA,NA,NA,NA,NA,NA,NA,NA,NA,NA,NA,NA,NA
13a8c,deep,flow.Sequence,3_0_0_0_1_0,NA,NA,completion,9650.198,137679.6,137673.876,137690.542,147340.74,147345.4,2023-05-05T11:53:50Z,147357.406,NULL,Vorwurf,mashtaka,d,NA,NA,NA,NA,sdf,NA,0,NA,NA,NA,NA,NA,NA,NA,NA,NA,NA,NA,NA,NA,NA,NA,NA,NA,NA,NA
13a8c,shallow,flow.Sequence,3_0_0_0_1_1,NA,NA,skipped,NA,147345.6,NA,NA,147340.74,147345.7,2023-05-05T11:53:50Z,147357.406,NULL,Vorwurf,mashtaka,d,NA,NA,NA,NA,sdf,NA,0,NA,NA,NA,NA,NA,NA,NA,NA,NA,NA,NA,NA,NA,NA,NA,NA,NA,NA,NA
13a8c,task,flow.Sequence,3_0_0_0_1,NA,NA,completion,9650.198,137679.6,137673.876,137690.542,147340.74,147345.8,2023-05-05T11:53:50Z,147357.406,NULL,Vorwurf,mashtaka,d,NA,NA,NA,NA,sdf,NA,0,NA,NA,NA,NA,NA,NA,NA,NA,NA,NA,NA,NA,NA,NA,NA,NA,NA,NA,NA
13a8c,Deep Question,html.Page,3_0_0_0_2_0_0,NA,NA,form submission,8056.3940000045,147346,147340.74,147357.406,155413.8,155414.2,2023-05-05T11:53:58Z,155424.282,NULL,Körper,kiwiliwili,d,NA,NA,NA,ubali,NA,NA,0,NA,NA,NA,NA,NA,NA,NA,NA,NA,NA,NA,NA,NA,NA,NA,NA,NA,NA,NA
13a8c,"""Richtig""-Screen",canvas.Screen,3_0_0_0_2_0_1,NA,NA,skipped,NA,155416.9,NA,NA,155413.8,155417.2,2023-05-05T11:53:58Z,155424.282,NULL,Körper,kiwiliwili,d,NA,NA,NA,NA,sdf,NA,0,NA,NA,NA,NA,NA,NA,NA,NA,NA,NA,NA,NA,NA,NA,NA,NA,NA,NA,NA
13a8c,"""Falsch""-Screen",canvas.Screen,3_0_0_0_2_0_2,NA,NA,timeout,4999.8,155418.2,155407.616,155424.282,160407.416,160409.6,2023-05-05T11:54:03Z,160424.082,NULL,Körper,kiwiliwili,d,NA,NA,NA,NA,sdf,0,0,NA,NA,NA,NA,NA,NA,NA,NA,NA,NA,NA,NA,NA,NA,NA,NA,NA,NA,NA
13a8c,deep,flow.Sequence,3_0_0_0_2_0,NA,NA,completion,13050.01,147345.9,147340.74,147357.406,160407.416,160410,2023-05-05T11:54:03Z,160424.082,NULL,Körper,kiwiliwili,d,NA,NA,NA,NA,sdf,NA,0,NA,NA,NA,NA,NA,NA,NA,NA,NA,NA,NA,NA,NA,NA,NA,NA,NA,NA,NA
13a8c,shallow,flow.Sequence,3_0_0_0_2_1,NA,NA,skipped,NA,160410.1,NA,NA,160407.416,160410.2,2023-05-05T11:54:03Z,160424.082,NULL,Körper,kiwiliwili,d,NA,NA,NA,NA,sdf,NA,0,NA,NA,NA,NA,NA,NA,NA,NA,NA,NA,NA,NA,NA,NA,NA,NA,NA,NA,NA
13a8c,task,flow.Sequence,3_0_0_0_2,NA,NA,completion,13050.01,147345.9,147340.74,147357.406,160407.416,160410.5,2023-05-05T11:54:03Z,160424.082,NULL,Körper,kiwiliwili,d,NA,NA,NA,NA,sdf,NA,0,NA,NA,NA,NA,NA,NA,NA,NA,NA,NA,NA,NA,NA,NA,NA,NA,NA,NA,NA
13a8c,Deep Question,html.Page,3_0_0_0_3_0_0,NA,NA,form submission,5607.2180000045,160410.7,160407.416,160424.082,166031.3,166031.8,2023-05-05T11:54:09Z,166041.247,NULL,Entwicklung,maendeleo,d,NA,NA,NA,m,NA,NA,0,NA,NA,NA,NA,NA,NA,NA,NA,NA,NA,NA,NA,NA,NA,NA,NA,NA,NA,NA
13a8c,"""Richtig""-Screen",canvas.Screen,3_0_0_0_3_0_1,NA,NA,skipped,NA,166034.1,NA,NA,166031.3,166034.2,2023-05-05T11:54:09Z,166041.247,NULL,Entwicklung,maendeleo,d,NA,NA,NA,NA,sdf,NA,0,NA,NA,NA,NA,NA,NA,NA,NA,NA,NA,NA,NA,NA,NA,NA,NA,NA,NA,NA
13a8c,"""Falsch""-Screen",canvas.Screen,3_0_0_0_3_0_2,NA,NA,timeout,4999.8,166035.5,166024.581,166041.247,171024.381,171029.6,2023-05-05T11:54:14Z,171041.047,NULL,Entwicklung,maendeleo,d,NA,NA,NA,NA,sdf,0,0,NA,NA,NA,NA,NA,NA,NA,NA,NA,NA,NA,NA,NA,NA,NA,NA,NA,NA,NA
13a8c,deep,flow.Sequence,3_0_0_0_3_0,NA,NA,completion,10600.299,160410.5,160407.416,160424.082,171024.381,171030,2023-05-05T11:54:14Z,171041.047,NULL,Entwicklung,maendeleo,d,NA,NA,NA,NA,sdf,NA,0,NA,NA,NA,NA,NA,NA,NA,NA,NA,NA,NA,NA,NA,NA,NA,NA,NA,NA,NA
13a8c,shallow,flow.Sequence,3_0_0_0_3_1,NA,NA,skipped,NA,171030.1,NA,NA,171024.381,171030.3,2023-05-05T11:54:14Z,171041.047,NULL,Entwicklung,maendeleo,d,NA,NA,NA,NA,sdf,NA,0,NA,NA,NA,NA,NA,NA,NA,NA,NA,NA,NA,NA,NA,NA,NA,NA,NA,NA,NA
13a8c,task,flow.Sequence,3_0_0_0_3,NA,NA,completion,10600.299,160410.5,160407.416,160424.082,171024.381,171030.5,2023-05-05T11:54:14Z,171041.047,NULL,Entwicklung,maendeleo,d,NA,NA,NA,NA,sdf,NA,0,NA,NA,NA,NA,NA,NA,NA,NA,NA,NA,NA,NA,NA,NA,NA,NA,NA,NA,NA
13a8c,deep,flow.Sequence,3_0_0_0_4_0,NA,NA,skipped,NA,171030.6,NA,NA,171024.381,171030.7,2023-05-05T11:54:14Z,171041.047,NULL,Niveau,kiwango,s,usimamizi,mwamali,mshairi,NA,sdf,NA,0,NA,NA,NA,NA,NA,NA,NA,NA,NA,NA,NA,NA,NA,NA,NA,NA,NA,NA,NA
13a8c,Shallow Question,html.Page,3_0_0_0_4_1_0,NA,NA,form submission,5671.953,171030.8,171024.381,171041.047,176713,176713.2,2023-05-05T11:54:19Z,176724.566,NULL,Niveau,kiwango,s,usimamizi,mwamali,mshairi,usimamizi,NA,NA,0,NA,NA,NA,NA,NA,NA,NA,NA,NA,NA,NA,NA,NA,NA,NA,NA,NA,NA,NA
13a8c,"""Richtig""-Screen",canvas.Screen,3_0_0_0_4_1_1,NA,NA,skipped,NA,176715.9,NA,NA,176713,176716,2023-05-05T11:54:19Z,176724.566,NULL,Niveau,kiwango,s,usimamizi,mwamali,mshairi,NA,sdf,NA,0,NA,NA,NA,NA,NA,NA,NA,NA,NA,NA,NA,NA,NA,NA,NA,NA,NA,NA,NA
13a8c,"""Falsch""-Screen",canvas.Screen,3_0_0_0_4_1_2,NA,NA,timeout,4999.8,176716.6,176707.9,176724.566,181707.7,181712.8,2023-05-05T11:54:24Z,181724.366,NULL,Niveau,kiwango,s,usimamizi,mwamali,mshairi,NA,sdf,0,0,NA,NA,NA,NA,NA,NA,NA,NA,NA,NA,NA,NA,NA,NA,NA,NA,NA,NA,NA
13a8c,shallow,flow.Sequence,3_0_0_0_4_1,NA,NA,completion,10666.653,171030.8,171024.381,171041.047,181707.7,181713.1,2023-05-05T11:54:24Z,181724.366,NULL,Niveau,kiwango,s,usimamizi,mwamali,mshairi,NA,sdf,NA,0,NA,NA,NA,NA,NA,NA,NA,NA,NA,NA,NA,NA,NA,NA,NA,NA,NA,NA,NA
13a8c,task,flow.Sequence,3_0_0_0_4,NA,NA,completion,10666.653,171030.5,171024.381,171041.047,181707.7,181713.2,2023-05-05T11:54:24Z,181724.366,NULL,Niveau,kiwango,s,usimamizi,mwamali,mshairi,NA,sdf,NA,0,NA,NA,NA,NA,NA,NA,NA,NA,NA,NA,NA,NA,NA,NA,NA,NA,NA,NA,NA
13a8c,deep,flow.Sequence,3_0_0_0_5_0,NA,NA,skipped,NA,181713.4,NA,NA,181707.7,181713.5,2023-05-05T11:54:24Z,181724.366,NULL,System,maongozi,s,chokochoko,nuksani,mitaani,NA,sdf,NA,0,NA,NA,NA,NA,NA,NA,NA,NA,NA,NA,NA,NA,NA,NA,NA,NA,NA,NA,NA
13a8c,Shallow Question,html.Page,3_0_0_0_5_1_0,NA,NA,form submission,7039.5339999985,181713.6,181707.7,181724.366,188763.9,188764.1,2023-05-05T11:54:31Z,188774.617,NULL,System,maongozi,s,chokochoko,nuksani,mitaani,maongozi,NA,NA,0,NA,NA,NA,NA,NA,NA,NA,NA,NA,NA,NA,NA,NA,NA,NA,NA,NA,NA,NA
13a8c,"""Richtig""-Screen",canvas.Screen,3_0_0_0_5_1_1,NA,NA,timeout,4999.8,188766.8,188757.951,188774.617,193757.751,193762.2,2023-05-05T11:54:36Z,193774.417,NULL,System,maongozi,s,chokochoko,nuksani,mitaani,NA,sdf,1,0,NA,NA,NA,NA,NA,NA,NA,NA,NA,NA,NA,NA,NA,NA,NA,NA,NA,NA,NA
13a8c,"""Falsch""-Screen",canvas.Screen,3_0_0_0_5_1_2,NA,NA,skipped,NA,193765.7,NA,NA,193757.751,193765.8,2023-05-05T11:54:36Z,193774.417,NULL,System,maongozi,s,chokochoko,nuksani,mitaani,NA,sdf,NA,0,NA,NA,NA,NA,NA,NA,NA,NA,NA,NA,NA,NA,NA,NA,NA,NA,NA,NA,NA
13a8c,shallow,flow.Sequence,3_0_0_0_5_1,NA,NA,completion,12033.385,181713.6,181707.7,181724.366,193757.751,193765.9,2023-05-05T11:54:36Z,193774.417,NULL,System,maongozi,s,chokochoko,nuksani,mitaani,NA,sdf,NA,0,NA,NA,NA,NA,NA,NA,NA,NA,NA,NA,NA,NA,NA,NA,NA,NA,NA,NA,NA
13a8c,task,flow.Sequence,3_0_0_0_5,NA,NA,completion,12033.385,181713.4,181707.7,181724.366,193757.751,193766.1,2023-05-05T11:54:36Z,193774.417,NULL,System,maongozi,s,chokochoko,nuksani,mitaani,NA,sdf,NA,0,NA,NA,NA,NA,NA,NA,NA,NA,NA,NA,NA,NA,NA,NA,NA,NA,NA,NA,NA
13a8c,deep,flow.Sequence,3_0_0_0_6_0,NA,NA,skipped,NA,193766.1,NA,NA,193757.751,193766.2,2023-05-05T11:54:36Z,193774.417,NULL,Papier,karatasi,s,uchambuzi,usalama,kukataliwa,NA,sdf,NA,0,NA,NA,NA,NA,NA,NA,NA,NA,NA,NA,NA,NA,NA,NA,NA,NA,NA,NA,NA
13a8c,Shallow Question,html.Page,3_0_0_0_6_1_0,NA,NA,form submission,7722.6830000015,193766.2,193757.751,193774.417,201497.1,201497.5,2023-05-05T11:54:44Z,201508.045,NULL,Papier,karatasi,s,uchambuzi,usalama,kukataliwa,uchambuzi,NA,NA,0,NA,NA,NA,NA,NA,NA,NA,NA,NA,NA,NA,NA,NA,NA,NA,NA,NA,NA,NA
13a8c,"""Richtig""-Screen",canvas.Screen,3_0_0_0_6_1_1,NA,NA,skipped,NA,201500.1,NA,NA,201497.1,201500.2,2023-05-05T11:54:44Z,201508.045,NULL,Papier,karatasi,s,uchambuzi,usalama,kukataliwa,NA,sdf,NA,0,NA,NA,NA,NA,NA,NA,NA,NA,NA,NA,NA,NA,NA,NA,NA,NA,NA,NA,NA
13a8c,"""Falsch""-Screen",canvas.Screen,3_0_0_0_6_1_2,NA,NA,timeout,4999.8,201501,201491.379,201508.045,206491.179,206495.1,2023-05-05T11:54:49Z,206507.845,NULL,Papier,karatasi,s,uchambuzi,usalama,kukataliwa,NA,sdf,0,0,NA,NA,NA,NA,NA,NA,NA,NA,NA,NA,NA,NA,NA,NA,NA,NA,NA,NA,NA
13a8c,shallow,flow.Sequence,3_0_0_0_6_1,NA,NA,completion,12716.762,193766.2,193757.751,193774.417,206491.179,206495.6,2023-05-05T11:54:49Z,206507.845,NULL,Papier,karatasi,s,uchambuzi,usalama,kukataliwa,NA,sdf,NA,0,NA,NA,NA,NA,NA,NA,NA,NA,NA,NA,NA,NA,NA,NA,NA,NA,NA,NA,NA
13a8c,task,flow.Sequence,3_0_0_0_6,NA,NA,completion,12716.762,193766.1,193757.751,193774.417,206491.179,206495.8,2023-05-05T11:54:49Z,206507.845,NULL,Papier,karatasi,s,uchambuzi,usalama,kukataliwa,NA,sdf,NA,0,NA,NA,NA,NA,NA,NA,NA,NA,NA,NA,NA,NA,NA,NA,NA,NA,NA,NA,NA
13a8c,deep,flow.Sequence,3_0_0_0_7_0,NA,NA,skipped,NA,206496,NA,NA,206491.179,206496.2,2023-05-05T11:54:49Z,206507.845,NULL,Lawine,banguko,s,maambukizi,usuluhishi,chekechea,NA,sdf,NA,0,NA,NA,NA,NA,NA,NA,NA,NA,NA,NA,NA,NA,NA,NA,NA,NA,NA,NA,NA
13a8c,Shallow Question,html.Page,3_0_0_0_7_1_0,NA,NA,form submission,7423.355000003,206496.3,206491.179,206507.845,213931.2,213931.6,2023-05-05T11:54:57Z,213941.629,NULL,Lawine,banguko,s,maambukizi,usuluhishi,chekechea,usuluhishi,NA,NA,0,NA,NA,NA,NA,NA,NA,NA,NA,NA,NA,NA,NA,NA,NA,NA,NA,NA,NA,NA
13a8c,"""Richtig""-Screen",canvas.Screen,3_0_0_0_7_1_1,NA,NA,skipped,NA,213934.8,NA,NA,213931.2,213934.9,2023-05-05T11:54:57Z,213941.629,NULL,Lawine,banguko,s,maambukizi,usuluhishi,chekechea,NA,sdf,NA,0,NA,NA,NA,NA,NA,NA,NA,NA,NA,NA,NA,NA,NA,NA,NA,NA,NA,NA,NA
13a8c,"""Falsch""-Screen",canvas.Screen,3_0_0_0_7_1_2,NA,NA,timeout,4999.8,213935.5,213924.963,213941.629,218924.763,218929.8,2023-05-05T11:55:02Z,218941.429,NULL,Lawine,banguko,s,maambukizi,usuluhishi,chekechea,NA,sdf,0,0,NA,NA,NA,NA,NA,NA,NA,NA,NA,NA,NA,NA,NA,NA,NA,NA,NA,NA,NA
13a8c,shallow,flow.Sequence,3_0_0_0_7_1,NA,NA,completion,12416.918,206496.2,206491.179,206507.845,218924.763,218930.3,2023-05-05T11:55:02Z,218941.429,NULL,Lawine,banguko,s,maambukizi,usuluhishi,chekechea,NA,sdf,NA,0,NA,NA,NA,NA,NA,NA,NA,NA,NA,NA,NA,NA,NA,NA,NA,NA,NA,NA,NA
13a8c,task,flow.Sequence,3_0_0_0_7,NA,NA,completion,12416.918,206495.9,206491.179,206507.845,218924.763,218930.5,2023-05-05T11:55:02Z,218941.429,NULL,Lawine,banguko,s,maambukizi,usuluhishi,chekechea,NA,sdf,NA,0,NA,NA,NA,NA,NA,NA,NA,NA,NA,NA,NA,NA,NA,NA,NA,NA,NA,NA,NA
13a8c,block,flow.Loop,3_0_0_0,NA,NA,completion,95418.083,123492.9,123490.014,123506.68,218924.763,218930.7,2023-05-05T11:55:02Z,218941.429,NULL,NA,NA,NA,NA,NA,NA,NA,sdf,NA,0,NA,NA,NA,NA,NA,NA,NA,NA,NA,NA,NA,NA,NA,NA,NA,NA,NA,NA,NA
13a8c,weiter,canvas.Screen,3_0_0_1,sdf,keypress(Space),response,1348.571,218930.7,218924.763,218941.429,220290,220295.1,2023-05-05T11:55:03Z,220325.216,NULL,NA,NA,NA,NA,NA,NA,NA,sdf,NA,0,NA,NA,NA,NA,NA,NA,NA,NA,NA,NA,NA,NA,NA,NA,NA,NA,NA,NA,NA
13a8c,check continue,flow.Sequence,3_0_0,NA,NA,completion,96783.32,123492.9,123490.014,123506.68,220290,220295.3,2023-05-05T11:55:03Z,220325.216,NULL,NA,NA,NA,NA,NA,NA,NA,sdf,NA,0,NA,NA,NA,NA,NA,NA,NA,NA,NA,NA,NA,NA,NA,NA,NA,NA,NA,NA,NA
13a8c,deep,flow.Sequence,3_0_1_0_0_0,NA,NA,skipped,NA,220326.2,NA,NA,220290,220326.3,2023-05-05T11:55:03Z,220325.216,NULL,Lawine,banguko,s,maambukizi,usuluhishi,chekechea,NA,sdfdsf,NA,1,NA,NA,NA,NA,NA,NA,NA,NA,NA,NA,NA,NA,NA,NA,NA,NA,NA,NA,NA
13a8c,Shallow Question,html.Page,3_0_1_0_0_1_0,NA,NA,form submission,5140.484000003,220326.5,220291.884,220325.216,225465.7,225465.9,2023-05-05T11:55:08Z,225475.01,NULL,Lawine,banguko,s,maambukizi,usuluhishi,chekechea,banguko,NA,NA,1,NA,NA,NA,NA,NA,NA,NA,NA,NA,NA,NA,NA,NA,NA,NA,NA,NA,NA,NA
13a8c,"""Richtig""-Screen",canvas.Screen,3_0_1_0_0_1_1,NA,NA,timeout,4999.8,225468.4,225458.344,225475.01,230458.144,230460.9,2023-05-05T11:55:13Z,230474.81,NULL,Lawine,banguko,s,maambukizi,usuluhishi,chekechea,NA,sdfdsf,1,1,NA,NA,NA,NA,NA,NA,NA,NA,NA,NA,NA,NA,NA,NA,NA,NA,NA,NA,NA
13a8c,"""Falsch""-Screen",canvas.Screen,3_0_1_0_0_1_2,NA,NA,skipped,NA,230465,NA,NA,230458.144,230465.2,2023-05-05T11:55:13Z,230474.81,NULL,Lawine,banguko,s,maambukizi,usuluhishi,chekechea,NA,sdfdsf,NA,1,NA,NA,NA,NA,NA,NA,NA,NA,NA,NA,NA,NA,NA,NA,NA,NA,NA,NA,NA
13a8c,shallow,flow.Sequence,3_0_1_0_0_1,NA,NA,completion,10132.928,220326.4,220291.884,220325.216,230458.144,230465.4,2023-05-05T11:55:13Z,230474.81,NULL,Lawine,banguko,s,maambukizi,usuluhishi,chekechea,NA,sdfdsf,NA,1,NA,NA,NA,NA,NA,NA,NA,NA,NA,NA,NA,NA,NA,NA,NA,NA,NA,NA,NA
13a8c,task,flow.Sequence,3_0_1_0_0,NA,NA,completion,10132.928,220326.2,220291.884,220325.216,230458.144,230465.5,2023-05-05T11:55:13Z,230474.81,NULL,Lawine,banguko,s,maambukizi,usuluhishi,chekechea,NA,sdfdsf,NA,1,NA,NA,NA,NA,NA,NA,NA,NA,NA,NA,NA,NA,NA,NA,NA,NA,NA,NA,NA
13a8c,Deep Question,html.Page,3_0_1_0_1_0_0,NA,NA,form submission,6471.7900000015,230465.7,230458.144,230474.81,236946.6,236947.2,2023-05-05T11:55:20Z,236958.461,NULL,Vorwurf,mashtaka,d,NA,NA,NA,k,NA,NA,1,NA,NA,NA,NA,NA,NA,NA,NA,NA,NA,NA,NA,NA,NA,NA,NA,NA,NA,NA
13a8c,"""Richtig""-Screen",canvas.Screen,3_0_1_0_1_0_1,NA,NA,skipped,NA,236949.4,NA,NA,236946.6,236949.5,2023-05-05T11:55:20Z,236958.461,NULL,Vorwurf,mashtaka,d,NA,NA,NA,NA,sdfdsf,NA,1,NA,NA,NA,NA,NA,NA,NA,NA,NA,NA,NA,NA,NA,NA,NA,NA,NA,NA,NA
13a8c,"""Falsch""-Screen",canvas.Screen,3_0_1_0_1_0_2,NA,NA,timeout,4999.8,236950.3,236941.795,236958.461,241941.595,241943.7,2023-05-05T11:55:25Z,241958.261,NULL,Vorwurf,mashtaka,d,NA,NA,NA,NA,sdfdsf,0,1,NA,NA,NA,NA,NA,NA,NA,NA,NA,NA,NA,NA,NA,NA,NA,NA,NA,NA,NA
13a8c,deep,flow.Sequence,3_0_1_0_1_0,NA,NA,completion,11466.785,230465.7,230458.144,230474.81,241941.595,241944.2,2023-05-05T11:55:25Z,241958.261,NULL,Vorwurf,mashtaka,d,NA,NA,NA,NA,sdfdsf,NA,1,NA,NA,NA,NA,NA,NA,NA,NA,NA,NA,NA,NA,NA,NA,NA,NA,NA,NA,NA
13a8c,shallow,flow.Sequence,3_0_1_0_1_1,NA,NA,skipped,NA,241944.4,NA,NA,241941.595,241944.4,2023-05-05T11:55:25Z,241958.261,NULL,Vorwurf,mashtaka,d,NA,NA,NA,NA,sdfdsf,NA,1,NA,NA,NA,NA,NA,NA,NA,NA,NA,NA,NA,NA,NA,NA,NA,NA,NA,NA,NA
13a8c,task,flow.Sequence,3_0_1_0_1,NA,NA,completion,11466.785,230465.7,230458.144,230474.81,241941.595,241944.6,2023-05-05T11:55:25Z,241958.261,NULL,Vorwurf,mashtaka,d,NA,NA,NA,NA,sdfdsf,NA,1,NA,NA,NA,NA,NA,NA,NA,NA,NA,NA,NA,NA,NA,NA,NA,NA,NA,NA,NA
13a8c,deep,flow.Sequence,3_0_1_0_2_0,NA,NA,skipped,NA,241944.8,NA,NA,241941.595,241944.9,2023-05-05T11:55:25Z,241958.261,NULL,Niveau,kiwango,s,usimamizi,mwamali,mshairi,NA,sdfdsf,NA,1,NA,NA,NA,NA,NA,NA,NA,NA,NA,NA,NA,NA,NA,NA,NA,NA,NA,NA,NA
13a8c,Shallow Question,html.Page,3_0_1_0_2_1_0,NA,NA,form submission,11271.839000001,241945.2,241941.595,241958.261,253230.1,253230.6,2023-05-05T11:55:36Z,253241.717,NULL,Niveau,kiwango,s,usimamizi,mwamali,mshairi,kiwango,NA,NA,1,NA,NA,NA,NA,NA,NA,NA,NA,NA,NA,NA,NA,NA,NA,NA,NA,NA,NA,NA
13a8c,"""Richtig""-Screen",canvas.Screen,3_0_1_0_2_1_1,NA,NA,timeout,4999.8,253233.2,253225.051,253241.717,258224.851,258226.5,2023-05-05T11:55:41Z,258241.517,NULL,Niveau,kiwango,s,usimamizi,mwamali,mshairi,NA,sdfdsf,1,1,NA,NA,NA,NA,NA,NA,NA,NA,NA,NA,NA,NA,NA,NA,NA,NA,NA,NA,NA
13a8c,"""Falsch""-Screen",canvas.Screen,3_0_1_0_2_1_2,NA,NA,skipped,NA,258230.7,NA,NA,258224.851,258230.8,2023-05-05T11:55:41Z,258241.517,NULL,Niveau,kiwango,s,usimamizi,mwamali,mshairi,NA,sdfdsf,NA,1,NA,NA,NA,NA,NA,NA,NA,NA,NA,NA,NA,NA,NA,NA,NA,NA,NA,NA,NA
13a8c,shallow,flow.Sequence,3_0_1_0_2_1,NA,NA,completion,16266.59,241945.1,241941.595,241958.261,258224.851,258231,2023-05-05T11:55:41Z,258241.517,NULL,Niveau,kiwango,s,usimamizi,mwamali,mshairi,NA,sdfdsf,NA,1,NA,NA,NA,NA,NA,NA,NA,NA,NA,NA,NA,NA,NA,NA,NA,NA,NA,NA,NA
13a8c,task,flow.Sequence,3_0_1_0_2,NA,NA,completion,16266.59,241944.7,241941.595,241958.261,258224.851,258231.1,2023-05-05T11:55:41Z,258241.517,NULL,Niveau,kiwango,s,usimamizi,mwamali,mshairi,NA,sdfdsf,NA,1,NA,NA,NA,NA,NA,NA,NA,NA,NA,NA,NA,NA,NA,NA,NA,NA,NA,NA,NA
13a8c,Deep Question,html.Page,3_0_1_0_3_0_0,NA,NA,form submission,7757.0830000015,258231.3,258224.851,258241.517,265998.6,265999,2023-05-05T11:55:49Z,266008.917,NULL,Übersicht,kilindo,d,NA,NA,NA,m,NA,NA,1,NA,NA,NA,NA,NA,NA,NA,NA,NA,NA,NA,NA,NA,NA,NA,NA,NA,NA,NA
13a8c,"""Richtig""-Screen",canvas.Screen,3_0_1_0_3_0_1,NA,NA,skipped,NA,266002.8,NA,NA,265998.6,266003,2023-05-05T11:55:49Z,266008.917,NULL,Übersicht,kilindo,d,NA,NA,NA,NA,sdfdsf,NA,1,NA,NA,NA,NA,NA,NA,NA,NA,NA,NA,NA,NA,NA,NA,NA,NA,NA,NA,NA
13a8c,"""Falsch""-Screen",canvas.Screen,3_0_1_0_3_0_2,NA,NA,timeout,4999.8,266003.8,265992.251,266008.917,270992.051,270994.4,2023-05-05T11:55:54Z,271008.717,NULL,Übersicht,kilindo,d,NA,NA,NA,NA,sdfdsf,0,1,NA,NA,NA,NA,NA,NA,NA,NA,NA,NA,NA,NA,NA,NA,NA,NA,NA,NA,NA
13a8c,deep,flow.Sequence,3_0_1_0_3_0,NA,NA,completion,12750.534,258231.3,258224.851,258241.517,270992.051,270994.7,2023-05-05T11:55:54Z,271008.717,NULL,Übersicht,kilindo,d,NA,NA,NA,NA,sdfdsf,NA,1,NA,NA,NA,NA,NA,NA,NA,NA,NA,NA,NA,NA,NA,NA,NA,NA,NA,NA,NA
13a8c,shallow,flow.Sequence,3_0_1_0_3_1,NA,NA,skipped,NA,270994.9,NA,NA,270992.051,270995,2023-05-05T11:55:54Z,271008.717,NULL,Übersicht,kilindo,d,NA,NA,NA,NA,sdfdsf,NA,1,NA,NA,NA,NA,NA,NA,NA,NA,NA,NA,NA,NA,NA,NA,NA,NA,NA,NA,NA
13a8c,task,flow.Sequence,3_0_1_0_3,NA,NA,completion,12750.534,258231.2,258224.851,258241.517,270992.051,270995.2,2023-05-05T11:55:54Z,271008.717,NULL,Übersicht,kilindo,d,NA,NA,NA,NA,sdfdsf,NA,1,NA,NA,NA,NA,NA,NA,NA,NA,NA,NA,NA,NA,NA,NA,NA,NA,NA,NA,NA
13a8c,deep,flow.Sequence,3_0_1_0_4_0,NA,NA,skipped,NA,270995.4,NA,NA,270992.051,270995.4,2023-05-05T11:55:54Z,271008.717,NULL,Papier,karatasi,s,uchambuzi,usalama,kukataliwa,NA,sdfdsf,NA,1,NA,NA,NA,NA,NA,NA,NA,NA,NA,NA,NA,NA,NA,NA,NA,NA,NA,NA,NA
13a8c,Shallow Question,html.Page,3_0_1_0_4_1_0,NA,NA,form submission,5371.5830000045,270995.6,270992.051,271008.717,276380.3,276380.7,2023-05-05T11:55:59Z,276392.39,NULL,Papier,karatasi,s,uchambuzi,usalama,kukataliwa,karatasi,NA,NA,1,NA,NA,NA,NA,NA,NA,NA,NA,NA,NA,NA,NA,NA,NA,NA,NA,NA,NA,NA
13a8c,"""Richtig""-Screen",canvas.Screen,3_0_1_0_4_1_1,NA,NA,timeout,4999.8,276382.9,276375.724,276392.39,281375.524,281379.5,2023-05-05T11:56:04Z,281392.19,NULL,Papier,karatasi,s,uchambuzi,usalama,kukataliwa,NA,sdfdsf,1,1,NA,NA,NA,NA,NA,NA,NA,NA,NA,NA,NA,NA,NA,NA,NA,NA,NA,NA,NA
13a8c,"""Falsch""-Screen",canvas.Screen,3_0_1_0_4_1_2,NA,NA,skipped,NA,281383.5,NA,NA,281375.524,281383.6,2023-05-05T11:56:04Z,281392.19,NULL,Papier,karatasi,s,uchambuzi,usalama,kukataliwa,NA,sdfdsf,NA,1,NA,NA,NA,NA,NA,NA,NA,NA,NA,NA,NA,NA,NA,NA,NA,NA,NA,NA,NA
13a8c,shallow,flow.Sequence,3_0_1_0_4_1,NA,NA,completion,10366.807,270995.6,270992.051,271008.717,281375.524,281383.7,2023-05-05T11:56:04Z,281392.19,NULL,Papier,karatasi,s,uchambuzi,usalama,kukataliwa,NA,sdfdsf,NA,1,NA,NA,NA,NA,NA,NA,NA,NA,NA,NA,NA,NA,NA,NA,NA,NA,NA,NA,NA
13a8c,task,flow.Sequence,3_0_1_0_4,NA,NA,completion,10366.807,270995.3,270992.051,271008.717,281375.524,281383.8,2023-05-05T11:56:04Z,281392.19,NULL,Papier,karatasi,s,uchambuzi,usalama,kukataliwa,NA,sdfdsf,NA,1,NA,NA,NA,NA,NA,NA,NA,NA,NA,NA,NA,NA,NA,NA,NA,NA,NA,NA,NA
13a8c,Deep Question,html.Page,3_0_1_0_5_0_0,NA,NA,form submission,11902.709999999,281383.9,281375.524,281392.19,293294.9,293295.1,2023-05-05T11:56:16Z,293308.888,NULL,Entwicklung,maendeleo,d,NA,NA,NA,maendela,NA,NA,1,NA,NA,NA,NA,NA,NA,NA,NA,NA,NA,NA,NA,NA,NA,NA,NA,NA,NA,NA
13a8c,"""Richtig""-Screen",canvas.Screen,3_0_1_0_5_0_1,NA,NA,skipped,NA,293296.9,NA,NA,293294.9,293297,2023-05-05T11:56:16Z,293308.888,NULL,Entwicklung,maendeleo,d,NA,NA,NA,NA,sdfdsf,NA,1,NA,NA,NA,NA,NA,NA,NA,NA,NA,NA,NA,NA,NA,NA,NA,NA,NA,NA,NA
13a8c,"""Falsch""-Screen",canvas.Screen,3_0_1_0_5_0_2,NA,NA,timeout,4999.8,293297.4,293292.222,293308.888,298292.022,298296.6,2023-05-05T11:56:21Z,298308.688,NULL,Entwicklung,maendeleo,d,NA,NA,NA,NA,sdfdsf,0,1,NA,NA,NA,NA,NA,NA,NA,NA,NA,NA,NA,NA,NA,NA,NA,NA,NA,NA,NA
13a8c,deep,flow.Sequence,3_0_1_0_5_0,NA,NA,completion,16899.832,281383.9,281375.524,281392.19,298292.022,298297,2023-05-05T11:56:21Z,298308.688,NULL,Entwicklung,maendeleo,d,NA,NA,NA,NA,sdfdsf,NA,1,NA,NA,NA,NA,NA,NA,NA,NA,NA,NA,NA,NA,NA,NA,NA,NA,NA,NA,NA
13a8c,shallow,flow.Sequence,3_0_1_0_5_1,NA,NA,skipped,NA,298297.2,NA,NA,298292.022,298297.4,2023-05-05T11:56:21Z,298308.688,NULL,Entwicklung,maendeleo,d,NA,NA,NA,NA,sdfdsf,NA,1,NA,NA,NA,NA,NA,NA,NA,NA,NA,NA,NA,NA,NA,NA,NA,NA,NA,NA,NA
13a8c,task,flow.Sequence,3_0_1_0_5,NA,NA,completion,16899.832,281383.9,281375.524,281392.19,298292.022,298297.5,2023-05-05T11:56:21Z,298308.688,NULL,Entwicklung,maendeleo,d,NA,NA,NA,NA,sdfdsf,NA,1,NA,NA,NA,NA,NA,NA,NA,NA,NA,NA,NA,NA,NA,NA,NA,NA,NA,NA,NA
13a8c,Deep Question,html.Page,3_0_1_0_6_0_0,NA,NA,form submission,7973.512000003,298297.7,298292.022,298308.688,306282.2,306282.7,2023-05-05T11:56:29Z,306292.412,NULL,Körper,kiwiliwili,d,NA,NA,NA,kiwiliwili,NA,NA,1,NA,NA,NA,NA,NA,NA,NA,NA,NA,NA,NA,NA,NA,NA,NA,NA,NA,NA,NA
13a8c,"""Richtig""-Screen",canvas.Screen,3_0_1_0_6_0_1,NA,NA,timeout,4999.8,306286.3,306275.746,306292.412,311275.546,311279.5,2023-05-05T11:56:34Z,311292.212,NULL,Körper,kiwiliwili,d,NA,NA,NA,NA,sdfdsf,1,1,NA,NA,NA,NA,NA,NA,NA,NA,NA,NA,NA,NA,NA,NA,NA,NA,NA,NA,NA
13a8c,"""Falsch""-Screen",canvas.Screen,3_0_1_0_6_0_2,NA,NA,skipped,NA,311282.9,NA,NA,311275.546,311283,2023-05-05T11:56:34Z,311292.212,NULL,Körper,kiwiliwili,d,NA,NA,NA,NA,sdfdsf,NA,1,NA,NA,NA,NA,NA,NA,NA,NA,NA,NA,NA,NA,NA,NA,NA,NA,NA,NA,NA
13a8c,deep,flow.Sequence,3_0_1_0_6_0,NA,NA,completion,12966.858,298297.7,298292.022,298308.688,311275.546,311283.1,2023-05-05T11:56:34Z,311292.212,NULL,Körper,kiwiliwili,d,NA,NA,NA,NA,sdfdsf,NA,1,NA,NA,NA,NA,NA,NA,NA,NA,NA,NA,NA,NA,NA,NA,NA,NA,NA,NA,NA
13a8c,shallow,flow.Sequence,3_0_1_0_6_1,NA,NA,skipped,NA,311283.2,NA,NA,311275.546,311283.3,2023-05-05T11:56:34Z,311292.212,NULL,Körper,kiwiliwili,d,NA,NA,NA,NA,sdfdsf,NA,1,NA,NA,NA,NA,NA,NA,NA,NA,NA,NA,NA,NA,NA,NA,NA,NA,NA,NA,NA
13a8c,task,flow.Sequence,3_0_1_0_6,NA,NA,completion,12966.858,298297.6,298292.022,298308.688,311275.546,311283.3,2023-05-05T11:56:34Z,311292.212,NULL,Körper,kiwiliwili,d,NA,NA,NA,NA,sdfdsf,NA,1,NA,NA,NA,NA,NA,NA,NA,NA,NA,NA,NA,NA,NA,NA,NA,NA,NA,NA,NA
13a8c,deep,flow.Sequence,3_0_1_0_7_0,NA,NA,skipped,NA,311283.5,NA,NA,311275.546,311283.5,2023-05-05T11:56:34Z,311292.212,NULL,System,maongozi,s,chokochoko,nuksani,mitaani,NA,sdfdsf,NA,1,NA,NA,NA,NA,NA,NA,NA,NA,NA,NA,NA,NA,NA,NA,NA,NA,NA,NA,NA
13a8c,Shallow Question,html.Page,3_0_1_0_7_1_0,NA,NA,form submission,7454.6879999985,311283.5,311275.546,311292.212,318746.9,318747.4,2023-05-05T11:56:41Z,318759.23,NULL,System,maongozi,s,chokochoko,nuksani,mitaani,maongozi,NA,NA,1,NA,NA,NA,NA,NA,NA,NA,NA,NA,NA,NA,NA,NA,NA,NA,NA,NA,NA,NA
13a8c,"""Richtig""-Screen",canvas.Screen,3_0_1_0_7_1_1,NA,NA,timeout,4999.8,318750,318742.564,318759.23,323742.364,323746.9,2023-05-05T11:56:46Z,323759.03,NULL,System,maongozi,s,chokochoko,nuksani,mitaani,NA,sdfdsf,1,1,NA,NA,NA,NA,NA,NA,NA,NA,NA,NA,NA,NA,NA,NA,NA,NA,NA,NA,NA
13a8c,"""Falsch""-Screen",canvas.Screen,3_0_1_0_7_1_2,NA,NA,skipped,NA,323749.7,NA,NA,323742.364,323750,2023-05-05T11:56:46Z,323759.03,NULL,System,maongozi,s,chokochoko,nuksani,mitaani,NA,sdfdsf,NA,1,NA,NA,NA,NA,NA,NA,NA,NA,NA,NA,NA,NA,NA,NA,NA,NA,NA,NA,NA
13a8c,shallow,flow.Sequence,3_0_1_0_7_1,NA,NA,completion,12450.152,311283.5,311275.546,311292.212,323742.364,323750.2,2023-05-05T11:56:46Z,323759.03,NULL,System,maongozi,s,chokochoko,nuksani,mitaani,NA,sdfdsf,NA,1,NA,NA,NA,NA,NA,NA,NA,NA,NA,NA,NA,NA,NA,NA,NA,NA,NA,NA,NA
13a8c,task,flow.Sequence,3_0_1_0_7,NA,NA,completion,12450.152,311283.4,311275.546,311292.212,323742.364,323750.4,2023-05-05T11:56:46Z,323759.03,NULL,System,maongozi,s,chokochoko,nuksani,mitaani,NA,sdfdsf,NA,1,NA,NA,NA,NA,NA,NA,NA,NA,NA,NA,NA,NA,NA,NA,NA,NA,NA,NA,NA
13a8c,block,flow.Loop,3_0_1_0,NA,NA,completion,103417.148,220326.2,220291.884,220325.216,323742.364,323750.6,2023-05-05T11:56:46Z,323759.03,NULL,NA,NA,NA,NA,NA,NA,NA,sdfdsf,NA,1,NA,NA,NA,NA,NA,NA,NA,NA,NA,NA,NA,NA,NA,NA,NA,NA,NA,NA,NA
13a8c,weiter,canvas.Screen,3_0_1_1,sdf,keypress(Space),response,1138.170000003,323750.6,323742.364,323759.03,324897.2,324900.7,2023-05-05T11:56:48Z,324926.274,NULL,NA,NA,NA,NA,NA,NA,NA,sdfdsf,NA,1,NA,NA,NA,NA,NA,NA,NA,NA,NA,NA,NA,NA,NA,NA,NA,NA,NA,NA,NA
13a8c,check continue,flow.Sequence,3_0_1,NA,NA,completion,104571.984,220326.2,220291.884,220325.216,324897.2,324901.1,2023-05-05T11:56:48Z,324926.274,NULL,NA,NA,NA,NA,NA,NA,NA,sdfdsf,NA,1,NA,NA,NA,NA,NA,NA,NA,NA,NA,NA,NA,NA,NA,NA,NA,NA,NA,NA,NA
13a8c,Deep Question,html.Page,3_0_2_0_0_0_0,NA,NA,form submission,8552.8260000015,324929.9,324892.942,324926.274,333479.1,333479.3,2023-05-05T11:56:56Z,333492.598,NULL,Entwicklung,maendeleo,d,NA,NA,NA,maendeleo,NA,NA,2,NA,NA,NA,NA,NA,NA,NA,NA,NA,NA,NA,NA,NA,NA,NA,NA,NA,NA,NA
13a8c,"""Richtig""-Screen",canvas.Screen,3_0_2_0_0_0_1,NA,NA,timeout,4999.8,333481.2,333475.932,333492.598,338475.732,338480.9,2023-05-05T11:57:01Z,338492.398,NULL,Entwicklung,maendeleo,d,NA,NA,NA,NA,sdf,1,2,NA,NA,NA,NA,NA,NA,NA,NA,NA,NA,NA,NA,NA,NA,NA,NA,NA,NA,NA
13a8c,"""Falsch""-Screen",canvas.Screen,3_0_2_0_0_0_2,NA,NA,skipped,NA,338485,NA,NA,338475.732,338485.1,2023-05-05T11:57:01Z,338492.398,NULL,Entwicklung,maendeleo,d,NA,NA,NA,NA,sdf,NA,2,NA,NA,NA,NA,NA,NA,NA,NA,NA,NA,NA,NA,NA,NA,NA,NA,NA,NA,NA
13a8c,deep,flow.Sequence,3_0_2_0_0_0,NA,NA,completion,13549.458,324929.9,324892.942,324926.274,338475.732,338485.2,2023-05-05T11:57:01Z,338492.398,NULL,Entwicklung,maendeleo,d,NA,NA,NA,NA,sdf,NA,2,NA,NA,NA,NA,NA,NA,NA,NA,NA,NA,NA,NA,NA,NA,NA,NA,NA,NA,NA
13a8c,shallow,flow.Sequence,3_0_2_0_0_1,NA,NA,skipped,NA,338485.2,NA,NA,338475.732,338485.3,2023-05-05T11:57:01Z,338492.398,NULL,Entwicklung,maendeleo,d,NA,NA,NA,NA,sdf,NA,2,NA,NA,NA,NA,NA,NA,NA,NA,NA,NA,NA,NA,NA,NA,NA,NA,NA,NA,NA
13a8c,task,flow.Sequence,3_0_2_0_0,NA,NA,completion,13549.458,324929.8,324892.942,324926.274,338475.732,338485.5,2023-05-05T11:57:01Z,338492.398,NULL,Entwicklung,maendeleo,d,NA,NA,NA,NA,sdf,NA,2,NA,NA,NA,NA,NA,NA,NA,NA,NA,NA,NA,NA,NA,NA,NA,NA,NA,NA,NA
13a8c,Deep Question,html.Page,3_0_2_0_1_0_0,NA,NA,form submission,10706.402000004,338485.5,338475.732,338492.398,349198.8,349199.4,2023-05-05T11:57:12Z,349209.874,NULL,Vorwurf,mashtaka,d,NA,NA,NA,kilindo,NA,NA,2,NA,NA,NA,NA,NA,NA,NA,NA,NA,NA,NA,NA,NA,NA,NA,NA,NA,NA,NA
13a8c,"""Richtig""-Screen",canvas.Screen,3_0_2_0_1_0_1,NA,NA,skipped,NA,349203.3,NA,NA,349198.8,349203.5,2023-05-05T11:57:12Z,349209.874,NULL,Vorwurf,mashtaka,d,NA,NA,NA,NA,sdf,NA,2,NA,NA,NA,NA,NA,NA,NA,NA,NA,NA,NA,NA,NA,NA,NA,NA,NA,NA,NA
13a8c,"""Falsch""-Screen",canvas.Screen,3_0_2_0_1_0_2,NA,NA,timeout,4999.8,349204,349193.208,349209.874,354193.008,354198.5,2023-05-05T11:57:17Z,354209.674,NULL,Vorwurf,mashtaka,d,NA,NA,NA,NA,sdf,0,2,NA,NA,NA,NA,NA,NA,NA,NA,NA,NA,NA,NA,NA,NA,NA,NA,NA,NA,NA
13a8c,deep,flow.Sequence,3_0_2_0_1_0,NA,NA,completion,15700.61,338485.5,338475.732,338492.398,354193.008,354198.8,2023-05-05T11:57:17Z,354209.674,NULL,Vorwurf,mashtaka,d,NA,NA,NA,NA,sdf,NA,2,NA,NA,NA,NA,NA,NA,NA,NA,NA,NA,NA,NA,NA,NA,NA,NA,NA,NA,NA
13a8c,shallow,flow.Sequence,3_0_2_0_1_1,NA,NA,skipped,NA,354198.9,NA,NA,354193.008,354198.9,2023-05-05T11:57:17Z,354209.674,NULL,Vorwurf,mashtaka,d,NA,NA,NA,NA,sdf,NA,2,NA,NA,NA,NA,NA,NA,NA,NA,NA,NA,NA,NA,NA,NA,NA,NA,NA,NA,NA
13a8c,task,flow.Sequence,3_0_2_0_1,NA,NA,completion,15700.61,338485.5,338475.732,338492.398,354193.008,354199.1,2023-05-05T11:57:17Z,354209.674,NULL,Vorwurf,mashtaka,d,NA,NA,NA,NA,sdf,NA,2,NA,NA,NA,NA,NA,NA,NA,NA,NA,NA,NA,NA,NA,NA,NA,NA,NA,NA,NA
13a8c,deep,flow.Sequence,3_0_2_0_2_0,NA,NA,skipped,NA,354199.2,NA,NA,354193.008,354199.2,2023-05-05T11:57:17Z,354209.674,NULL,System,maongozi,s,chokochoko,nuksani,mitaani,NA,sdf,NA,2,NA,NA,NA,NA,NA,NA,NA,NA,NA,NA,NA,NA,NA,NA,NA,NA,NA,NA,NA
13a8c,Shallow Question,html.Page,3_0_2_0_2_1_0,NA,NA,form submission,5839.9260000015,354199.2,354193.008,354209.674,360049.6,360049.8,2023-05-05T11:57:23Z,360059.947,NULL,System,maongozi,s,chokochoko,nuksani,mitaani,maongozi,NA,NA,2,NA,NA,NA,NA,NA,NA,NA,NA,NA,NA,NA,NA,NA,NA,NA,NA,NA,NA,NA
13a8c,"""Richtig""-Screen",canvas.Screen,3_0_2_0_2_1_1,NA,NA,timeout,4999.8,360052.4,360043.281,360059.947,365043.081,365044.3,2023-05-05T11:57:28Z,365059.747,NULL,System,maongozi,s,chokochoko,nuksani,mitaani,NA,sdf,1,2,NA,NA,NA,NA,NA,NA,NA,NA,NA,NA,NA,NA,NA,NA,NA,NA,NA,NA,NA
13a8c,"""Falsch""-Screen",canvas.Screen,3_0_2_0_2_1_2,NA,NA,skipped,NA,365047.8,NA,NA,365043.081,365047.9,2023-05-05T11:57:28Z,365059.747,NULL,System,maongozi,s,chokochoko,nuksani,mitaani,NA,sdf,NA,2,NA,NA,NA,NA,NA,NA,NA,NA,NA,NA,NA,NA,NA,NA,NA,NA,NA,NA,NA
13a8c,shallow,flow.Sequence,3_0_2_0_2_1,NA,NA,completion,10833.407,354199.2,354193.008,354209.674,365043.081,365048.1,2023-05-05T11:57:28Z,365059.747,NULL,System,maongozi,s,chokochoko,nuksani,mitaani,NA,sdf,NA,2,NA,NA,NA,NA,NA,NA,NA,NA,NA,NA,NA,NA,NA,NA,NA,NA,NA,NA,NA
13a8c,task,flow.Sequence,3_0_2_0_2,NA,NA,completion,10833.407,354199.1,354193.008,354209.674,365043.081,365048.2,2023-05-05T11:57:28Z,365059.747,NULL,System,maongozi,s,chokochoko,nuksani,mitaani,NA,sdf,NA,2,NA,NA,NA,NA,NA,NA,NA,NA,NA,NA,NA,NA,NA,NA,NA,NA,NA,NA,NA
13a8c,deep,flow.Sequence,3_0_2_0_3_0,NA,NA,skipped,NA,365048.2,NA,NA,365043.081,365048.3,2023-05-05T11:57:28Z,365059.747,NULL,Papier,karatasi,s,uchambuzi,usalama,kukataliwa,NA,sdf,NA,2,NA,NA,NA,NA,NA,NA,NA,NA,NA,NA,NA,NA,NA,NA,NA,NA,NA,NA,NA
13a8c,Shallow Question,html.Page,3_0_2_0_3_1_0,NA,NA,form submission,7372.453000003,365048.4,365043.081,365059.747,372432.2,372432.7,2023-05-05T11:57:35Z,372442.785,NULL,Papier,karatasi,s,uchambuzi,usalama,kukataliwa,karatasi,NA,NA,2,NA,NA,NA,NA,NA,NA,NA,NA,NA,NA,NA,NA,NA,NA,NA,NA,NA,NA,NA
13a8c,"""Richtig""-Screen",canvas.Screen,3_0_2_0_3_1_1,NA,NA,timeout,4999.8,372435,372426.119,372442.785,377425.919,377427.8,2023-05-05T11:57:40Z,377442.585,NULL,Papier,karatasi,s,uchambuzi,usalama,kukataliwa,NA,sdf,1,2,NA,NA,NA,NA,NA,NA,NA,NA,NA,NA,NA,NA,NA,NA,NA,NA,NA,NA,NA
13a8c,"""Falsch""-Screen",canvas.Screen,3_0_2_0_3_1_2,NA,NA,skipped,NA,377432.1,NA,NA,377425.919,377432.4,2023-05-05T11:57:40Z,377442.585,NULL,Papier,karatasi,s,uchambuzi,usalama,kukataliwa,NA,sdf,NA,2,NA,NA,NA,NA,NA,NA,NA,NA,NA,NA,NA,NA,NA,NA,NA,NA,NA,NA,NA
13a8c,shallow,flow.Sequence,3_0_2_0_3_1,NA,NA,completion,12366.172,365048.4,365043.081,365059.747,377425.919,377432.6,2023-05-05T11:57:40Z,377442.585,NULL,Papier,karatasi,s,uchambuzi,usalama,kukataliwa,NA,sdf,NA,2,NA,NA,NA,NA,NA,NA,NA,NA,NA,NA,NA,NA,NA,NA,NA,NA,NA,NA,NA
13a8c,task,flow.Sequence,3_0_2_0_3,NA,NA,completion,12366.172,365048.2,365043.081,365059.747,377425.919,377432.8,2023-05-05T11:57:40Z,377442.585,NULL,Papier,karatasi,s,uchambuzi,usalama,kukataliwa,NA,sdf,NA,2,NA,NA,NA,NA,NA,NA,NA,NA,NA,NA,NA,NA,NA,NA,NA,NA,NA,NA,NA
13a8c,Deep Question,html.Page,3_0_2_0_4_0_0,NA,NA,form submission,7707.615000003,377433,377425.919,377442.585,385150.2,385150.7,2023-05-05T11:57:48Z,385160.079,NULL,Übersicht,kilindo,d,NA,NA,NA,m,NA,NA,2,NA,NA,NA,NA,NA,NA,NA,NA,NA,NA,NA,NA,NA,NA,NA,NA,NA,NA,NA
13a8c,"""Richtig""-Screen",canvas.Screen,3_0_2_0_4_0_1,NA,NA,skipped,NA,385152.9,NA,NA,385150.2,385153.1,2023-05-05T11:57:48Z,385160.079,NULL,Übersicht,kilindo,d,NA,NA,NA,NA,sdf,NA,2,NA,NA,NA,NA,NA,NA,NA,NA,NA,NA,NA,NA,NA,NA,NA,NA,NA,NA,NA
13a8c,"""Falsch""-Screen",canvas.Screen,3_0_2_0_4_0_2,NA,NA,timeout,4999.8,385154.1,385143.413,385160.079,390143.213,390148.7,2023-05-05T11:57:53Z,390159.879,NULL,Übersicht,kilindo,d,NA,NA,NA,NA,sdf,0,2,NA,NA,NA,NA,NA,NA,NA,NA,NA,NA,NA,NA,NA,NA,NA,NA,NA,NA,NA
13a8c,deep,flow.Sequence,3_0_2_0_4_0,NA,NA,completion,12700.628,377432.9,377425.919,377442.585,390143.213,390148.9,2023-05-05T11:57:53Z,390159.879,NULL,Übersicht,kilindo,d,NA,NA,NA,NA,sdf,NA,2,NA,NA,NA,NA,NA,NA,NA,NA,NA,NA,NA,NA,NA,NA,NA,NA,NA,NA,NA
13a8c,shallow,flow.Sequence,3_0_2_0_4_1,NA,NA,skipped,NA,390149.1,NA,NA,390143.213,390149.2,2023-05-05T11:57:53Z,390159.879,NULL,Übersicht,kilindo,d,NA,NA,NA,NA,sdf,NA,2,NA,NA,NA,NA,NA,NA,NA,NA,NA,NA,NA,NA,NA,NA,NA,NA,NA,NA,NA
13a8c,task,flow.Sequence,3_0_2_0_4,NA,NA,completion,12700.628,377432.9,377425.919,377442.585,390143.213,390149.3,2023-05-05T11:57:53Z,390159.879,NULL,Übersicht,kilindo,d,NA,NA,NA,NA,sdf,NA,2,NA,NA,NA,NA,NA,NA,NA,NA,NA,NA,NA,NA,NA,NA,NA,NA,NA,NA,NA
13a8c,deep,flow.Sequence,3_0_2_0_5_0,NA,NA,skipped,NA,390149.4,NA,NA,390143.213,390149.4,2023-05-05T11:57:53Z,390159.879,NULL,Niveau,kiwango,s,usimamizi,mwamali,mshairi,NA,sdf,NA,2,NA,NA,NA,NA,NA,NA,NA,NA,NA,NA,NA,NA,NA,NA,NA,NA,NA,NA,NA
13a8c,Shallow Question,html.Page,3_0_2_0_5_1_0,NA,NA,form submission,13156.821000003,390149.6,390143.213,390159.879,403316.7,403317,2023-05-05T11:58:06Z,403327.052,NULL,Niveau,kiwango,s,usimamizi,mwamali,mshairi,kiwango,NA,NA,2,NA,NA,NA,NA,NA,NA,NA,NA,NA,NA,NA,NA,NA,NA,NA,NA,NA,NA,NA
13a8c,"""Richtig""-Screen",canvas.Screen,3_0_2_0_5_1_1,NA,NA,timeout,4999.8,403319.7,403310.386,403327.052,408310.186,408312.3,2023-05-05T11:58:11Z,408326.852,NULL,Niveau,kiwango,s,usimamizi,mwamali,mshairi,NA,sdf,1,2,NA,NA,NA,NA,NA,NA,NA,NA,NA,NA,NA,NA,NA,NA,NA,NA,NA,NA,NA
13a8c,"""Falsch""-Screen",canvas.Screen,3_0_2_0_5_1_2,NA,NA,skipped,NA,408316.5,NA,NA,408310.186,408316.7,2023-05-05T11:58:11Z,408326.852,NULL,Niveau,kiwango,s,usimamizi,mwamali,mshairi,NA,sdf,NA,2,NA,NA,NA,NA,NA,NA,NA,NA,NA,NA,NA,NA,NA,NA,NA,NA,NA,NA,NA
13a8c,shallow,flow.Sequence,3_0_2_0_5_1,NA,NA,completion,18150.307,390149.5,390143.213,390159.879,408310.186,408316.8,2023-05-05T11:58:11Z,408326.852,NULL,Niveau,kiwango,s,usimamizi,mwamali,mshairi,NA,sdf,NA,2,NA,NA,NA,NA,NA,NA,NA,NA,NA,NA,NA,NA,NA,NA,NA,NA,NA,NA,NA
13a8c,task,flow.Sequence,3_0_2_0_5,NA,NA,completion,18150.307,390149.4,390143.213,390159.879,408310.186,408317,2023-05-05T11:58:11Z,408326.852,NULL,Niveau,kiwango,s,usimamizi,mwamali,mshairi,NA,sdf,NA,2,NA,NA,NA,NA,NA,NA,NA,NA,NA,NA,NA,NA,NA,NA,NA,NA,NA,NA,NA
13a8c,deep,flow.Sequence,3_0_2_0_6_0,NA,NA,skipped,NA,408317.2,NA,NA,408310.186,408317.2,2023-05-05T11:58:11Z,408326.852,NULL,Lawine,banguko,s,maambukizi,usuluhishi,chekechea,NA,sdf,NA,2,NA,NA,NA,NA,NA,NA,NA,NA,NA,NA,NA,NA,NA,NA,NA,NA,NA,NA,NA
13a8c,Shallow Question,html.Page,3_0_2_0_6_1_0,NA,NA,form submission,3806.2480000015,408317.4,408310.186,408326.852,412133.1,412133.3,2023-05-05T11:58:15Z,412143.869,NULL,Lawine,banguko,s,maambukizi,usuluhishi,chekechea,banguko,NA,NA,2,NA,NA,NA,NA,NA,NA,NA,NA,NA,NA,NA,NA,NA,NA,NA,NA,NA,NA,NA
13a8c,"""Richtig""-Screen",canvas.Screen,3_0_2_0_6_1_1,NA,NA,timeout,4999.8,412135.8,412126.7,412143.869,417127.003,417129.1,2023-05-05T11:58:20Z,417143.669,NULL,Lawine,banguko,s,maambukizi,usuluhishi,chekechea,NA,sdf,1,2,NA,NA,NA,NA,NA,NA,NA,NA,NA,NA,NA,NA,NA,NA,NA,NA,NA,NA,NA
13a8c,"""Falsch""-Screen",canvas.Screen,3_0_2_0_6_1_2,NA,NA,skipped,NA,417134,NA,NA,417127.003,417134.6,2023-05-05T11:58:20Z,417143.669,NULL,Lawine,banguko,s,maambukizi,usuluhishi,chekechea,NA,sdf,NA,2,NA,NA,NA,NA,NA,NA,NA,NA,NA,NA,NA,NA,NA,NA,NA,NA,NA,NA,NA
13a8c,shallow,flow.Sequence,3_0_2_0_6_1,NA,NA,completion,8800.151,408317.3,408310.186,408326.852,417127.003,417134.9,2023-05-05T11:58:20Z,417143.669,NULL,Lawine,banguko,s,maambukizi,usuluhishi,chekechea,NA,sdf,NA,2,NA,NA,NA,NA,NA,NA,NA,NA,NA,NA,NA,NA,NA,NA,NA,NA,NA,NA,NA
13a8c,task,flow.Sequence,3_0_2_0_6,NA,NA,completion,8800.151,408317.1,408310.186,408326.852,417127.003,417135,2023-05-05T11:58:20Z,417143.669,NULL,Lawine,banguko,s,maambukizi,usuluhishi,chekechea,NA,sdf,NA,2,NA,NA,NA,NA,NA,NA,NA,NA,NA,NA,NA,NA,NA,NA,NA,NA,NA,NA,NA
13a8c,Deep Question,html.Page,3_0_2_0_7_0_0,NA,NA,form submission,7270.331,417135.1,417127.003,417143.669,424414,424414.2,2023-05-05T11:58:27Z,424427.287,NULL,Körper,kiwiliwili,d,NA,NA,NA,kiwiliwili,NA,NA,2,NA,NA,NA,NA,NA,NA,NA,NA,NA,NA,NA,NA,NA,NA,NA,NA,NA,NA,NA
13a8c,"""Richtig""-Screen",canvas.Screen,3_0_2_0_7_0_1,NA,NA,timeout,4999.8,424416,424410.621,424427.287,429410.421,429414.5,2023-05-05T11:58:32Z,429427.087,NULL,Körper,kiwiliwili,d,NA,NA,NA,NA,sdf,1,2,NA,NA,NA,NA,NA,NA,NA,NA,NA,NA,NA,NA,NA,NA,NA,NA,NA,NA,NA
13a8c,"""Falsch""-Screen",canvas.Screen,3_0_2_0_7_0_2,NA,NA,skipped,NA,429418.6,NA,NA,429410.421,429418.9,2023-05-05T11:58:32Z,429427.087,NULL,Körper,kiwiliwili,d,NA,NA,NA,NA,sdf,NA,2,NA,NA,NA,NA,NA,NA,NA,NA,NA,NA,NA,NA,NA,NA,NA,NA,NA,NA,NA
13a8c,deep,flow.Sequence,3_0_2_0_7_0,NA,NA,completion,12266.752,417135.1,417127.003,417143.669,429410.421,429419.1,2023-05-05T11:58:32Z,429427.087,NULL,Körper,kiwiliwili,d,NA,NA,NA,NA,sdf,NA,2,NA,NA,NA,NA,NA,NA,NA,NA,NA,NA,NA,NA,NA,NA,NA,NA,NA,NA,NA
13a8c,shallow,flow.Sequence,3_0_2_0_7_1,NA,NA,skipped,NA,429419.2,NA,NA,429410.421,429419.2,2023-05-05T11:58:32Z,429427.087,NULL,Körper,kiwiliwili,d,NA,NA,NA,NA,sdf,NA,2,NA,NA,NA,NA,NA,NA,NA,NA,NA,NA,NA,NA,NA,NA,NA,NA,NA,NA,NA
13a8c,task,flow.Sequence,3_0_2_0_7,NA,NA,completion,12266.752,417135.1,417127.003,417143.669,429410.421,429419.4,2023-05-05T11:58:32Z,429427.087,NULL,Körper,kiwiliwili,d,NA,NA,NA,NA,sdf,NA,2,NA,NA,NA,NA,NA,NA,NA,NA,NA,NA,NA,NA,NA,NA,NA,NA,NA,NA,NA
13a8c,block,flow.Loop,3_0_2_0,NA,NA,completion,104484.147,324929.8,324892.942,324926.274,429410.421,429419.5,2023-05-05T11:58:32Z,429427.087,NULL,NA,NA,NA,NA,NA,NA,NA,sdf,NA,2,NA,NA,NA,NA,NA,NA,NA,NA,NA,NA,NA,NA,NA,NA,NA,NA,NA,NA,NA
13a8c,weiter,canvas.Screen,3_0_2_1,sdf,keypress(Space),response,1060.613000003,429419.6,429410.421,429427.087,430487.7,430491.3,2023-05-05T11:58:33Z,430693.703,NULL,NA,NA,NA,NA,NA,NA,NA,sdf,NA,2,NA,NA,NA,NA,NA,NA,NA,NA,NA,NA,NA,NA,NA,NA,NA,NA,NA,NA,NA
13a8c,check continue,flow.Sequence,3_0_2,NA,NA,completion,105561.426,324929.8,324892.942,324926.274,430487.7,430491.7,2023-05-05T11:58:33Z,430693.703,NULL,NA,NA,NA,NA,NA,NA,NA,sdf,NA,2,NA,NA,NA,NA,NA,NA,NA,NA,NA,NA,NA,NA,NA,NA,NA,NA,NA,NA,NA
13a8c,check continue,flow.Sequence,3_0_3,NA,NA,skipped,NA,430519.6,NA,NA,430487.7,430519.7,2023-05-05T11:58:33Z,430693.703,NULL,NA,NA,NA,NA,NA,NA,NA,qt,NA,3,NA,NA,NA,NA,NA,NA,NA,NA,NA,NA,NA,NA,NA,NA,NA,NA,NA,NA,NA
13a8c,check continue,flow.Sequence,3_0_4,NA,NA,skipped,NA,430533,NA,NA,430487.7,430533,2023-05-05T11:58:33Z,430693.703,NULL,NA,NA,NA,NA,NA,NA,NA,sd,NA,4,NA,NA,NA,NA,NA,NA,NA,NA,NA,NA,NA,NA,NA,NA,NA,NA,NA,NA,NA
13a8c,check continue,flow.Sequence,3_0_5,NA,NA,skipped,NA,430544.5,NA,NA,430487.7,430544.6,2023-05-05T11:58:33Z,430693.703,NULL,NA,NA,NA,NA,NA,NA,NA,sdf,NA,5,NA,NA,NA,NA,NA,NA,NA,NA,NA,NA,NA,NA,NA,NA,NA,NA,NA,NA,NA
13a8c,check continue,flow.Sequence,3_0_6,NA,NA,skipped,NA,430554,NA,NA,430487.7,430554,2023-05-05T11:58:33Z,430693.703,NULL,NA,NA,NA,NA,NA,NA,NA,dfs,NA,6,NA,NA,NA,NA,NA,NA,NA,NA,NA,NA,NA,NA,NA,NA,NA,NA,NA,NA,NA
13a8c,check continue,flow.Sequence,3_0_7,NA,NA,skipped,NA,430562.1,NA,NA,430487.7,430562.1,2023-05-05T11:58:33Z,430693.703,NULL,NA,NA,NA,NA,NA,NA,NA,df,NA,7,NA,NA,NA,NA,NA,NA,NA,NA,NA,NA,NA,NA,NA,NA,NA,NA,NA,NA,NA
13a8c,check continue,flow.Sequence,3_0_8,NA,NA,skipped,NA,430569.6,NA,NA,430487.7,430569.6,2023-05-05T11:58:33Z,430693.703,NULL,NA,NA,NA,NA,NA,NA,NA,dfs,NA,8,NA,NA,NA,NA,NA,NA,NA,NA,NA,NA,NA,NA,NA,NA,NA,NA,NA,NA,NA
13a8c,check continue,flow.Sequence,3_0_9,NA,NA,skipped,NA,430576.5,NA,NA,430487.7,430576.5,2023-05-05T11:58:33Z,430693.703,NULL,NA,NA,NA,NA,NA,NA,NA,dsf,NA,9,NA,NA,NA,NA,NA,NA,NA,NA,NA,NA,NA,NA,NA,NA,NA,NA,NA,NA,NA
13a8c,check continue,flow.Sequence,3_0_10,NA,NA,skipped,NA,430583.9,NA,NA,430487.7,430583.9,2023-05-05T11:58:33Z,430693.703,NULL,NA,NA,NA,NA,NA,NA,NA,df,NA,10,NA,NA,NA,NA,NA,NA,NA,NA,NA,NA,NA,NA,NA,NA,NA,NA,NA,NA,NA
13a8c,check continue,flow.Sequence,3_0_11,NA,NA,skipped,NA,430590.5,NA,NA,430487.7,430590.5,2023-05-05T11:58:33Z,430693.703,NULL,NA,NA,NA,NA,NA,NA,NA,dfs,NA,11,NA,NA,NA,NA,NA,NA,NA,NA,NA,NA,NA,NA,NA,NA,NA,NA,NA,NA,NA
13a8c,check continue,flow.Sequence,3_0_12,NA,NA,skipped,NA,430596.9,NA,NA,430487.7,430596.9,2023-05-05T11:58:33Z,430693.703,NULL,NA,NA,NA,NA,NA,NA,NA,dsf,NA,12,NA,NA,NA,NA,NA,NA,NA,NA,NA,NA,NA,NA,NA,NA,NA,NA,NA,NA,NA
13a8c,check continue,flow.Sequence,3_0_13,NA,NA,skipped,NA,430602.9,NA,NA,430487.7,430603,2023-05-05T11:58:33Z,430693.703,NULL,NA,NA,NA,NA,NA,NA,NA,dsf,NA,13,NA,NA,NA,NA,NA,NA,NA,NA,NA,NA,NA,NA,NA,NA,NA,NA,NA,NA,NA
13a8c,check continue,flow.Sequence,3_0_14,NA,NA,skipped,NA,430608.8,NA,NA,430487.7,430608.8,2023-05-05T11:58:33Z,430693.703,NULL,NA,NA,NA,NA,NA,NA,NA,NA,NA,14,NA,NA,NA,NA,NA,NA,NA,NA,NA,NA,NA,NA,NA,NA,NA,NA,NA,NA,NA
13a8c,check continue,flow.Sequence,3_0_15,NA,NA,skipped,NA,430614.9,NA,NA,430487.7,430615,2023-05-05T11:58:33Z,430693.703,NULL,NA,NA,NA,NA,NA,NA,NA,NA,NA,15,NA,NA,NA,NA,NA,NA,NA,NA,NA,NA,NA,NA,NA,NA,NA,NA,NA,NA,NA
13a8c,check continue,flow.Sequence,3_0_16,NA,NA,skipped,NA,430621.2,NA,NA,430487.7,430621.2,2023-05-05T11:58:33Z,430693.703,NULL,NA,NA,NA,NA,NA,NA,NA,NA,NA,16,NA,NA,NA,NA,NA,NA,NA,NA,NA,NA,NA,NA,NA,NA,NA,NA,NA,NA,NA
13a8c,check continue,flow.Sequence,3_0_17,NA,NA,skipped,NA,430627.3,NA,NA,430487.7,430627.4,2023-05-05T11:58:33Z,430693.703,NULL,NA,NA,NA,NA,NA,NA,NA,NA,NA,17,NA,NA,NA,NA,NA,NA,NA,NA,NA,NA,NA,NA,NA,NA,NA,NA,NA,NA,NA
13a8c,check continue,flow.Sequence,3_0_18,NA,NA,skipped,NA,430632.9,NA,NA,430487.7,430633,2023-05-05T11:58:33Z,430693.703,NULL,NA,NA,NA,NA,NA,NA,NA,NA,NA,18,NA,NA,NA,NA,NA,NA,NA,NA,NA,NA,NA,NA,NA,NA,NA,NA,NA,NA,NA
13a8c,check continue,flow.Sequence,3_0_19,NA,NA,skipped,NA,430639.5,NA,NA,430487.7,430639.5,2023-05-05T11:58:33Z,430693.703,NULL,NA,NA,NA,NA,NA,NA,NA,NA,NA,19,NA,NA,NA,NA,NA,NA,NA,NA,NA,NA,NA,NA,NA,NA,NA,NA,NA,NA,NA
13a8c,check continue,flow.Sequence,3_0_20,NA,NA,skipped,NA,430645,NA,NA,430487.7,430645.1,2023-05-05T11:58:33Z,430693.703,NULL,NA,NA,NA,NA,NA,NA,NA,NA,NA,20,NA,NA,NA,NA,NA,NA,NA,NA,NA,NA,NA,NA,NA,NA,NA,NA,NA,NA,NA
13a8c,check continue,flow.Sequence,3_0_21,NA,NA,skipped,NA,430651,NA,NA,430487.7,430651,2023-05-05T11:58:33Z,430693.703,NULL,NA,NA,NA,NA,NA,NA,NA,NA,NA,21,NA,NA,NA,NA,NA,NA,NA,NA,NA,NA,NA,NA,NA,NA,NA,NA,NA,NA,NA
13a8c,check continue,flow.Sequence,3_0_22,NA,NA,skipped,NA,430656.3,NA,NA,430487.7,430656.3,2023-05-05T11:58:33Z,430693.703,NULL,NA,NA,NA,NA,NA,NA,NA,NA,NA,22,NA,NA,NA,NA,NA,NA,NA,NA,NA,NA,NA,NA,NA,NA,NA,NA,NA,NA,NA
13a8c,check continue,flow.Sequence,3_0_23,NA,NA,skipped,NA,430662.2,NA,NA,430487.7,430662.3,2023-05-05T11:58:33Z,430693.703,NULL,NA,NA,NA,NA,NA,NA,NA,NA,NA,23,NA,NA,NA,NA,NA,NA,NA,NA,NA,NA,NA,NA,NA,NA,NA,NA,NA,NA,NA
13a8c,check continue,flow.Sequence,3_0_24,NA,NA,skipped,NA,430667.7,NA,NA,430487.7,430667.7,2023-05-05T11:58:33Z,430693.703,NULL,NA,NA,NA,NA,NA,NA,NA,NA,NA,24,NA,NA,NA,NA,NA,NA,NA,NA,NA,NA,NA,NA,NA,NA,NA,NA,NA,NA,NA
13a8c,check continue,flow.Sequence,3_0_25,NA,NA,skipped,NA,430673.9,NA,NA,430487.7,430673.9,2023-05-05T11:58:33Z,430693.703,NULL,NA,NA,NA,NA,NA,NA,NA,NA,NA,25,NA,NA,NA,NA,NA,NA,NA,NA,NA,NA,NA,NA,NA,NA,NA,NA,NA,NA,NA
13a8c,check continue,flow.Sequence,3_0_26,NA,NA,skipped,NA,430685.1,NA,NA,430487.7,430685.1,2023-05-05T11:58:33Z,430693.703,NULL,NA,NA,NA,NA,NA,NA,NA,NA,NA,26,NA,NA,NA,NA,NA,NA,NA,NA,NA,NA,NA,NA,NA,NA,NA,NA,NA,NA,NA
13a8c,check continue,flow.Sequence,3_0_27,NA,NA,skipped,NA,430690.9,NA,NA,430487.7,430690.9,2023-05-05T11:58:33Z,430693.703,NULL,NA,NA,NA,NA,NA,NA,NA,NA,NA,27,NA,NA,NA,NA,NA,NA,NA,NA,NA,NA,NA,NA,NA,NA,NA,NA,NA,NA,NA
13a8c,check continue,flow.Sequence,3_0_28,NA,NA,skipped,NA,430697.5,NA,NA,430487.7,430697.6,2023-05-05T11:58:33Z,430693.703,NULL,NA,NA,NA,NA,NA,NA,NA,NA,NA,28,NA,NA,NA,NA,NA,NA,NA,NA,NA,NA,NA,NA,NA,NA,NA,NA,NA,NA,NA
13a8c,check continue,flow.Sequence,3_0_29,NA,NA,skipped,NA,430704.9,NA,NA,430487.7,430705,2023-05-05T11:58:33Z,430693.703,NULL,NA,NA,NA,NA,NA,NA,NA,NA,NA,29,NA,NA,NA,NA,NA,NA,NA,NA,NA,NA,NA,NA,NA,NA,NA,NA,NA,NA,NA
13a8c,until continue,flow.Loop,3_0,NA,NA,completion,306981.02,123481,123490.014,123506.68,430487.7,430705,2023-05-05T11:58:33Z,430693.703,NULL,NA,NA,NA,NA,NA,NA,NA,NA,NA,NA,NA,NA,NA,NA,NA,NA,NA,NA,NA,NA,NA,NA,NA,NA,NA,NA,NA,NA,NA
13a8c,block 1,flow.Sequence,3,NA,NA,completion,306981.02,123481,123490.014,123506.68,430487.7,430705,2023-05-05T11:58:33Z,430693.703,NULL,NA,NA,NA,NA,NA,NA,NA,NA,NA,NA,NA,NA,NA,NA,NA,NA,NA,NA,NA,NA,NA,NA,NA,NA,NA,NA,NA,NA,NA
13a8c,1.Part Over,canvas.Screen,4,NA,keypress(Space),response,2002.3970000015,430705,430477.045,430693.703,432696.1,432699.8,2023-05-05T11:58:35Z,432760.287,NULL,NA,NA,NA,NA,NA,NA,NA,NA,NA,NA,NA,NA,NA,NA,NA,NA,NA,NA,NA,NA,NA,NA,NA,NA,NA,NA,NA,NA,NA
13a8c,deep,flow.Sequence,5_0_0_0_0_0,NA,NA,skipped,NA,432748.1,NA,NA,432696.1,432748.1,2023-05-05T11:58:35Z,432760.287,NULL,Integrität,uadilifu,s,muungano,mtiririko,upunguaji,NA,sdf,NA,0,NA,NA,NA,NA,NA,NA,NA,NA,NA,NA,NA,NA,NA,NA,NA,NA,NA,NA,NA
13a8c,Shallow Question,html.Page,5_0_0_0_0_1_0,NA,NA,form submission,6688.8130000015,432748.2,432743.621,432760.287,439449.1,439449.4,2023-05-05T11:58:42Z,439460.532,NULL,Integrität,uadilifu,s,muungano,mtiririko,upunguaji,uadilifu,NA,NA,0,NA,NA,NA,NA,NA,NA,NA,NA,NA,NA,NA,NA,NA,NA,NA,NA,NA,NA,NA
13a8c,"""Richtig""-Screen",canvas.Screen,5_0_0_0_0_1_1,NA,NA,timeout,4999.8,439451.7,439443.866,439460.532,444443.666,444448.5,2023-05-05T11:58:47Z,444460.332,NULL,Integrität,uadilifu,s,muungano,mtiririko,upunguaji,NA,sdf,1,0,NA,NA,NA,NA,NA,NA,NA,NA,NA,NA,NA,NA,NA,NA,NA,NA,NA,NA,NA
13a8c,"""Falsch""-Screen",canvas.Screen,5_0_0_0_0_1_2,NA,NA,skipped,NA,444452.6,NA,NA,444443.666,444452.7,2023-05-05T11:58:47Z,444460.332,NULL,Integrität,uadilifu,s,muungano,mtiririko,upunguaji,NA,sdf,NA,0,NA,NA,NA,NA,NA,NA,NA,NA,NA,NA,NA,NA,NA,NA,NA,NA,NA,NA,NA
13a8c,shallow,flow.Sequence,5_0_0_0_0_1,NA,NA,completion,11683.379,432748.1,432743.621,432760.287,444443.666,444452.8,2023-05-05T11:58:47Z,444460.332,NULL,Integrität,uadilifu,s,muungano,mtiririko,upunguaji,NA,sdf,NA,0,NA,NA,NA,NA,NA,NA,NA,NA,NA,NA,NA,NA,NA,NA,NA,NA,NA,NA,NA
13a8c,task,flow.Sequence,5_0_0_0_0,NA,NA,completion,11683.379,432748.1,432743.621,432760.287,444443.666,444452.9,2023-05-05T11:58:47Z,444460.332,NULL,Integrität,uadilifu,s,muungano,mtiririko,upunguaji,NA,sdf,NA,0,NA,NA,NA,NA,NA,NA,NA,NA,NA,NA,NA,NA,NA,NA,NA,NA,NA,NA,NA
13a8c,Deep Question,html.Page,5_0_0_0_1_0_0,NA,NA,form submission,3422.0679999985,444453,444443.666,444460.332,447882.4,447882.7,2023-05-05T11:58:51Z,447894.056,NULL,Verzögerung,kuchelewa,d,NA,NA,NA,m,NA,NA,0,NA,NA,NA,NA,NA,NA,NA,NA,NA,NA,NA,NA,NA,NA,NA,NA,NA,NA,NA
13a8c,"""Richtig""-Screen",canvas.Screen,5_0_0_0_1_0_1,NA,NA,skipped,NA,447885.8,NA,NA,447882.4,447886,2023-05-05T11:58:51Z,447894.056,NULL,Verzögerung,kuchelewa,d,NA,NA,NA,NA,sdf,NA,0,NA,NA,NA,NA,NA,NA,NA,NA,NA,NA,NA,NA,NA,NA,NA,NA,NA,NA,NA
13a8c,"""Falsch""-Screen",canvas.Screen,5_0_0_0_1_0_2,NA,NA,timeout,4999.8,447887.3,447877.39,447894.056,452877.19,452880.4,2023-05-05T11:58:56Z,452893.856,NULL,Verzögerung,kuchelewa,d,NA,NA,NA,NA,sdf,0,0,NA,NA,NA,NA,NA,NA,NA,NA,NA,NA,NA,NA,NA,NA,NA,NA,NA,NA,NA
13a8c,deep,flow.Sequence,5_0_0_0_1_0,NA,NA,completion,8416.858,444453,444443.666,444460.332,452877.19,452880.8,2023-05-05T11:58:56Z,452893.856,NULL,Verzögerung,kuchelewa,d,NA,NA,NA,NA,sdf,NA,0,NA,NA,NA,NA,NA,NA,NA,NA,NA,NA,NA,NA,NA,NA,NA,NA,NA,NA,NA
13a8c,shallow,flow.Sequence,5_0_0_0_1_1,NA,NA,skipped,NA,452881,NA,NA,452877.19,452881.1,2023-05-05T11:58:56Z,452893.856,NULL,Verzögerung,kuchelewa,d,NA,NA,NA,NA,sdf,NA,0,NA,NA,NA,NA,NA,NA,NA,NA,NA,NA,NA,NA,NA,NA,NA,NA,NA,NA,NA
13a8c,task,flow.Sequence,5_0_0_0_1,NA,NA,completion,8416.858,444452.9,444443.666,444460.332,452877.19,452881.2,2023-05-05T11:58:56Z,452893.856,NULL,Verzögerung,kuchelewa,d,NA,NA,NA,NA,sdf,NA,0,NA,NA,NA,NA,NA,NA,NA,NA,NA,NA,NA,NA,NA,NA,NA,NA,NA,NA,NA
13a8c,deep,flow.Sequence,5_0_0_0_2_0,NA,NA,skipped,NA,452881.4,NA,NA,452877.19,452881.5,2023-05-05T11:58:56Z,452893.856,NULL,Fleisch,mshakiki,s,kizunguzungu,mshikamano,angusho,NA,sdf,NA,0,NA,NA,NA,NA,NA,NA,NA,NA,NA,NA,NA,NA,NA,NA,NA,NA,NA,NA,NA
13a8c,Shallow Question,html.Page,5_0_0_0_2_1_0,NA,NA,form submission,7772.7440000015,452881.6,452877.19,452893.856,460666.6,460667.2,2023-05-05T11:59:03Z,460677.393,NULL,Fleisch,mshakiki,s,kizunguzungu,mshikamano,angusho,mshakiki,NA,NA,0,NA,NA,NA,NA,NA,NA,NA,NA,NA,NA,NA,NA,NA,NA,NA,NA,NA,NA,NA
13a8c,"""Richtig""-Screen",canvas.Screen,5_0_0_0_2_1_1,NA,NA,timeout,4999.8,460671.2,460660.727,460677.393,465660.527,465661.9,2023-05-05T11:59:08Z,465677.193,NULL,Fleisch,mshakiki,s,kizunguzungu,mshikamano,angusho,NA,sdf,1,0,NA,NA,NA,NA,NA,NA,NA,NA,NA,NA,NA,NA,NA,NA,NA,NA,NA,NA,NA
13a8c,"""Falsch""-Screen",canvas.Screen,5_0_0_0_2_1_2,NA,NA,skipped,NA,465666.8,NA,NA,465660.527,465667,2023-05-05T11:59:08Z,465677.193,NULL,Fleisch,mshakiki,s,kizunguzungu,mshikamano,angusho,NA,sdf,NA,0,NA,NA,NA,NA,NA,NA,NA,NA,NA,NA,NA,NA,NA,NA,NA,NA,NA,NA,NA
13a8c,shallow,flow.Sequence,5_0_0_0_2_1,NA,NA,completion,12766.671,452881.6,452877.19,452893.856,465660.527,465667.2,2023-05-05T11:59:08Z,465677.193,NULL,Fleisch,mshakiki,s,kizunguzungu,mshikamano,angusho,NA,sdf,NA,0,NA,NA,NA,NA,NA,NA,NA,NA,NA,NA,NA,NA,NA,NA,NA,NA,NA,NA,NA
13a8c,task,flow.Sequence,5_0_0_0_2,NA,NA,completion,12766.671,452881.3,452877.19,452893.856,465660.527,465667.3,2023-05-05T11:59:08Z,465677.193,NULL,Fleisch,mshakiki,s,kizunguzungu,mshikamano,angusho,NA,sdf,NA,0,NA,NA,NA,NA,NA,NA,NA,NA,NA,NA,NA,NA,NA,NA,NA,NA,NA,NA,NA
13a8c,deep,flow.Sequence,5_0_0_0_3_0,NA,NA,skipped,NA,465667.5,NA,NA,465660.527,465667.6,2023-05-05T11:59:08Z,465677.193,NULL,Prüfung,mtihani,s,mkulima,mtizamo,ufumbuzi,NA,sdf,NA,0,NA,NA,NA,NA,NA,NA,NA,NA,NA,NA,NA,NA,NA,NA,NA,NA,NA,NA,NA
13a8c,Shallow Question,html.Page,5_0_0_0_3_1_0,NA,NA,form submission,7023.007000003,465667.8,465660.527,465677.193,472700.2,472700.4,2023-05-05T11:59:15Z,472710.792,NULL,Prüfung,mtihani,s,mkulima,mtizamo,ufumbuzi,ufumbuzi,NA,NA,0,NA,NA,NA,NA,NA,NA,NA,NA,NA,NA,NA,NA,NA,NA,NA,NA,NA,NA,NA
13a8c,"""Richtig""-Screen",canvas.Screen,5_0_0_0_3_1_1,NA,NA,skipped,NA,472702.9,NA,NA,472700.2,472702.9,2023-05-05T11:59:15Z,472710.792,NULL,Prüfung,mtihani,s,mkulima,mtizamo,ufumbuzi,NA,sdf,NA,0,NA,NA,NA,NA,NA,NA,NA,NA,NA,NA,NA,NA,NA,NA,NA,NA,NA,NA,NA
13a8c,"""Falsch""-Screen",canvas.Screen,5_0_0_0_3_1_2,NA,NA,timeout,4999.8,472703.4,472694.126,472710.792,477693.926,477698.8,2023-05-05T11:59:20Z,477710.592,NULL,Prüfung,mtihani,s,mkulima,mtizamo,ufumbuzi,NA,sdf,0,0,NA,NA,NA,NA,NA,NA,NA,NA,NA,NA,NA,NA,NA,NA,NA,NA,NA,NA,NA
13a8c,shallow,flow.Sequence,5_0_0_0_3_1,NA,NA,completion,12016.733,465667.8,465660.527,465677.193,477693.926,477699.2,2023-05-05T11:59:20Z,477710.592,NULL,Prüfung,mtihani,s,mkulima,mtizamo,ufumbuzi,NA,sdf,NA,0,NA,NA,NA,NA,NA,NA,NA,NA,NA,NA,NA,NA,NA,NA,NA,NA,NA,NA,NA
13a8c,task,flow.Sequence,5_0_0_0_3,NA,NA,completion,12016.733,465667.4,465660.527,465677.193,477693.926,477699.3,2023-05-05T11:59:20Z,477710.592,NULL,Prüfung,mtihani,s,mkulima,mtizamo,ufumbuzi,NA,sdf,NA,0,NA,NA,NA,NA,NA,NA,NA,NA,NA,NA,NA,NA,NA,NA,NA,NA,NA,NA,NA
13a8c,Deep Question,html.Page,5_0_0_0_4_0_0,NA,NA,form submission,3339.108000003,477699.6,477693.926,477710.592,481049.7,481050.1,2023-05-05T11:59:24Z,481061.058,NULL,Genehmigung,idhini,d,NA,NA,NA,m,NA,NA,0,NA,NA,NA,NA,NA,NA,NA,NA,NA,NA,NA,NA,NA,NA,NA,NA,NA,NA,NA
13a8c,"""Richtig""-Screen",canvas.Screen,5_0_0_0_4_0_1,NA,NA,skipped,NA,481052.8,NA,NA,481049.7,481052.9,2023-05-05T11:59:24Z,481061.058,NULL,Genehmigung,idhini,d,NA,NA,NA,NA,sdf,NA,0,NA,NA,NA,NA,NA,NA,NA,NA,NA,NA,NA,NA,NA,NA,NA,NA,NA,NA,NA
13a8c,"""Falsch""-Screen",canvas.Screen,5_0_0_0_4_0_2,NA,NA,timeout,4999.8,481053.6,481044.392,481061.058,486044.192,486048.4,2023-05-05T11:59:29Z,486060.858,NULL,Genehmigung,idhini,d,NA,NA,NA,NA,sdf,0,0,NA,NA,NA,NA,NA,NA,NA,NA,NA,NA,NA,NA,NA,NA,NA,NA,NA,NA,NA
13a8c,deep,flow.Sequence,5_0_0_0_4_0,NA,NA,completion,8333.6,477699.6,477693.926,477710.592,486044.192,486048.8,2023-05-05T11:59:29Z,486060.858,NULL,Genehmigung,idhini,d,NA,NA,NA,NA,sdf,NA,0,NA,NA,NA,NA,NA,NA,NA,NA,NA,NA,NA,NA,NA,NA,NA,NA,NA,NA,NA
13a8c,shallow,flow.Sequence,5_0_0_0_4_1,NA,NA,skipped,NA,486049,NA,NA,486044.192,486049.1,2023-05-05T11:59:29Z,486060.858,NULL,Genehmigung,idhini,d,NA,NA,NA,NA,sdf,NA,0,NA,NA,NA,NA,NA,NA,NA,NA,NA,NA,NA,NA,NA,NA,NA,NA,NA,NA,NA
13a8c,task,flow.Sequence,5_0_0_0_4,NA,NA,completion,8333.6,477699.5,477693.926,477710.592,486044.192,486049.3,2023-05-05T11:59:29Z,486060.858,NULL,Genehmigung,idhini,d,NA,NA,NA,NA,sdf,NA,0,NA,NA,NA,NA,NA,NA,NA,NA,NA,NA,NA,NA,NA,NA,NA,NA,NA,NA,NA
13a8c,Deep Question,html.Page,5_0_0_0_5_0_0,NA,NA,form submission,5020.2420000015,486049.4,486044.192,486060.858,491081.1,491081.4,2023-05-05T11:59:34Z,491094.576,NULL,Begegnung,kukutana,d,NA,NA,NA,m,NA,NA,0,NA,NA,NA,NA,NA,NA,NA,NA,NA,NA,NA,NA,NA,NA,NA,NA,NA,NA,NA
13a8c,"""Richtig""-Screen",canvas.Screen,5_0_0_0_5_0_1,NA,NA,skipped,NA,491083.3,NA,NA,491081.1,491083.5,2023-05-05T11:59:34Z,491094.576,NULL,Begegnung,kukutana,d,NA,NA,NA,NA,sdf,NA,0,NA,NA,NA,NA,NA,NA,NA,NA,NA,NA,NA,NA,NA,NA,NA,NA,NA,NA,NA
13a8c,"""Falsch""-Screen",canvas.Screen,5_0_0_0_5_0_2,NA,NA,timeout,4999.8,491083.7,491077.91,491094.576,496077.71,496081.9,2023-05-05T11:59:39Z,496094.376,NULL,Begegnung,kukutana,d,NA,NA,NA,NA,sdf,0,0,NA,NA,NA,NA,NA,NA,NA,NA,NA,NA,NA,NA,NA,NA,NA,NA,NA,NA,NA
13a8c,deep,flow.Sequence,5_0_0_0_5_0,NA,NA,completion,10016.852,486049.4,486044.192,486060.858,496077.71,496082.3,2023-05-05T11:59:39Z,496094.376,NULL,Begegnung,kukutana,d,NA,NA,NA,NA,sdf,NA,0,NA,NA,NA,NA,NA,NA,NA,NA,NA,NA,NA,NA,NA,NA,NA,NA,NA,NA,NA
13a8c,shallow,flow.Sequence,5_0_0_0_5_1,NA,NA,skipped,NA,496082.4,NA,NA,496077.71,496082.5,2023-05-05T11:59:39Z,496094.376,NULL,Begegnung,kukutana,d,NA,NA,NA,NA,sdf,NA,0,NA,NA,NA,NA,NA,NA,NA,NA,NA,NA,NA,NA,NA,NA,NA,NA,NA,NA,NA
13a8c,task,flow.Sequence,5_0_0_0_5,NA,NA,completion,10016.852,486049.3,486044.192,486060.858,496077.71,496082.7,2023-05-05T11:59:39Z,496094.376,NULL,Begegnung,kukutana,d,NA,NA,NA,NA,sdf,NA,0,NA,NA,NA,NA,NA,NA,NA,NA,NA,NA,NA,NA,NA,NA,NA,NA,NA,NA,NA
13a8c,Deep Question,html.Page,5_0_0_0_6_0_0,NA,NA,form submission,3919.5239999985,496082.9,496077.71,496094.376,500013.9,500014.1,2023-05-05T11:59:43Z,500028.066,NULL,Kultur,utamaduni,d,NA,NA,NA,m,NA,NA,0,NA,NA,NA,NA,NA,NA,NA,NA,NA,NA,NA,NA,NA,NA,NA,NA,NA,NA,NA
13a8c,"""Richtig""-Screen",canvas.Screen,5_0_0_0_6_0_1,NA,NA,skipped,NA,500016.1,NA,NA,500013.9,500016.1,2023-05-05T11:59:43Z,500028.066,NULL,Kultur,utamaduni,d,NA,NA,NA,NA,sdf,NA,0,NA,NA,NA,NA,NA,NA,NA,NA,NA,NA,NA,NA,NA,NA,NA,NA,NA,NA,NA
13a8c,"""Falsch""-Screen",canvas.Screen,5_0_0_0_6_0_2,NA,NA,timeout,4999.8,500016.5,500011.4,500028.066,505011.2,505016.5,2023-05-05T11:59:48Z,505027.866,NULL,Kultur,utamaduni,d,NA,NA,NA,NA,sdf,0,0,NA,NA,NA,NA,NA,NA,NA,NA,NA,NA,NA,NA,NA,NA,NA,NA,NA,NA,NA
13a8c,deep,flow.Sequence,5_0_0_0_6_0,NA,NA,completion,8916.824,496082.9,496077.71,496094.376,505011.2,505016.8,2023-05-05T11:59:48Z,505027.866,NULL,Kultur,utamaduni,d,NA,NA,NA,NA,sdf,NA,0,NA,NA,NA,NA,NA,NA,NA,NA,NA,NA,NA,NA,NA,NA,NA,NA,NA,NA,NA
13a8c,shallow,flow.Sequence,5_0_0_0_6_1,NA,NA,skipped,NA,505017,NA,NA,505011.2,505017,2023-05-05T11:59:48Z,505027.866,NULL,Kultur,utamaduni,d,NA,NA,NA,NA,sdf,NA,0,NA,NA,NA,NA,NA,NA,NA,NA,NA,NA,NA,NA,NA,NA,NA,NA,NA,NA,NA
13a8c,task,flow.Sequence,5_0_0_0_6,NA,NA,completion,8916.824,496082.8,496077.71,496094.376,505011.2,505017.2,2023-05-05T11:59:48Z,505027.866,NULL,Kultur,utamaduni,d,NA,NA,NA,NA,sdf,NA,0,NA,NA,NA,NA,NA,NA,NA,NA,NA,NA,NA,NA,NA,NA,NA,NA,NA,NA,NA
13a8c,deep,flow.Sequence,5_0_0_0_7_0,NA,NA,skipped,NA,505017.4,NA,NA,505011.2,505017.4,2023-05-05T11:59:48Z,505027.866,NULL,Aufstand,ugomaji,s,mazidio,msingi,kujieleza,NA,sdf,NA,0,NA,NA,NA,NA,NA,NA,NA,NA,NA,NA,NA,NA,NA,NA,NA,NA,NA,NA,NA
13a8c,Shallow Question,html.Page,5_0_0_0_7_1_0,NA,NA,form submission,5523.834000003,505017.6,505011.2,505027.866,510551.7,510552,2023-05-05T11:59:53Z,510561.52,NULL,Aufstand,ugomaji,s,mazidio,msingi,kujieleza,mazidio,NA,NA,0,NA,NA,NA,NA,NA,NA,NA,NA,NA,NA,NA,NA,NA,NA,NA,NA,NA,NA,NA
13a8c,"""Richtig""-Screen",canvas.Screen,5_0_0_0_7_1_1,NA,NA,skipped,NA,510554.7,NA,NA,510551.7,510554.9,2023-05-05T11:59:53Z,510561.52,NULL,Aufstand,ugomaji,s,mazidio,msingi,kujieleza,NA,sdf,NA,0,NA,NA,NA,NA,NA,NA,NA,NA,NA,NA,NA,NA,NA,NA,NA,NA,NA,NA,NA
13a8c,"""Falsch""-Screen",canvas.Screen,5_0_0_0_7_1_2,NA,NA,timeout,4999.8,510555.4,510544.312,510561.52,515544.654,515549.2,2023-05-05T11:59:58Z,515561.32,NULL,Aufstand,ugomaji,s,mazidio,msingi,kujieleza,NA,sdf,0,0,NA,NA,NA,NA,NA,NA,NA,NA,NA,NA,NA,NA,NA,NA,NA,NA,NA,NA,NA
13a8c,shallow,flow.Sequence,5_0_0_0_7_1,NA,NA,completion,10516.788,505017.6,505011.2,505027.866,515544.654,515549.7,2023-05-05T11:59:58Z,515561.32,NULL,Aufstand,ugomaji,s,mazidio,msingi,kujieleza,NA,sdf,NA,0,NA,NA,NA,NA,NA,NA,NA,NA,NA,NA,NA,NA,NA,NA,NA,NA,NA,NA,NA
13a8c,task,flow.Sequence,5_0_0_0_7,NA,NA,completion,10516.788,505017.3,505011.2,505027.866,515544.654,515549.8,2023-05-05T11:59:58Z,515561.32,NULL,Aufstand,ugomaji,s,mazidio,msingi,kujieleza,NA,sdf,NA,0,NA,NA,NA,NA,NA,NA,NA,NA,NA,NA,NA,NA,NA,NA,NA,NA,NA,NA,NA
13a8c,block,flow.Loop,5_0_0_0,NA,NA,completion,82784.367,432748.1,432743.621,432760.287,515544.654,515550,2023-05-05T11:59:58Z,515561.32,NULL,NA,NA,NA,NA,NA,NA,NA,sdf,NA,0,NA,NA,NA,NA,NA,NA,NA,NA,NA,NA,NA,NA,NA,NA,NA,NA,NA,NA,NA
13a8c,weiter,canvas.Screen,5_0_0_1,sdf,keypress(Space),response,1022.68,515550.2,515544.654,515561.32,516584,516589.3,2023-05-05T11:59:59Z,516611.278,NULL,NA,NA,NA,NA,NA,NA,NA,sdf,NA,0,NA,NA,NA,NA,NA,NA,NA,NA,NA,NA,NA,NA,NA,NA,NA,NA,NA,NA,NA
13a8c,check continue,flow.Sequence,5_0_0,NA,NA,completion,83823.713,432748.1,432743.621,432760.287,516584,516589.5,2023-05-05T11:59:59Z,516611.278,NULL,NA,NA,NA,NA,NA,NA,NA,sdf,NA,0,NA,NA,NA,NA,NA,NA,NA,NA,NA,NA,NA,NA,NA,NA,NA,NA,NA,NA,NA
13a8c,Deep Question,html.Page,5_0_1_0_0_0_0,NA,NA,form submission,9206.8220000015,516623.1,516577.946,516611.278,525818.1,525818.7,2023-05-05T12:00:08Z,525828.127,NULL,Begegnung,kukutana,d,NA,NA,NA,kukutana,NA,NA,1,NA,NA,NA,NA,NA,NA,NA,NA,NA,NA,NA,NA,NA,NA,NA,NA,NA,NA,NA
13a8c,"""Richtig""-Screen",canvas.Screen,5_0_1_0_0_0_1,NA,NA,timeout,4999.8,525821,525811.461,525828.127,530811.261,530815.4,2023-05-05T12:00:13Z,530827.927,NULL,Begegnung,kukutana,d,NA,NA,NA,NA,sdfdsf,1,1,NA,NA,NA,NA,NA,NA,NA,NA,NA,NA,NA,NA,NA,NA,NA,NA,NA,NA,NA
13a8c,"""Falsch""-Screen",canvas.Screen,5_0_1_0_0_0_2,NA,NA,skipped,NA,530819.3,NA,NA,530811.261,530819.5,2023-05-05T12:00:13Z,530827.927,NULL,Begegnung,kukutana,d,NA,NA,NA,NA,sdfdsf,NA,1,NA,NA,NA,NA,NA,NA,NA,NA,NA,NA,NA,NA,NA,NA,NA,NA,NA,NA,NA
13a8c,deep,flow.Sequence,5_0_1_0_0_0,NA,NA,completion,14199.983,516623.1,516577.946,516611.278,530811.261,530819.7,2023-05-05T12:00:13Z,530827.927,NULL,Begegnung,kukutana,d,NA,NA,NA,NA,sdfdsf,NA,1,NA,NA,NA,NA,NA,NA,NA,NA,NA,NA,NA,NA,NA,NA,NA,NA,NA,NA,NA
13a8c,shallow,flow.Sequence,5_0_1_0_0_1,NA,NA,skipped,NA,530819.9,NA,NA,530811.261,530819.9,2023-05-05T12:00:13Z,530827.927,NULL,Begegnung,kukutana,d,NA,NA,NA,NA,sdfdsf,NA,1,NA,NA,NA,NA,NA,NA,NA,NA,NA,NA,NA,NA,NA,NA,NA,NA,NA,NA,NA
13a8c,task,flow.Sequence,5_0_1_0_0,NA,NA,completion,14199.983,516623.1,516577.946,516611.278,530811.261,530820.1,2023-05-05T12:00:13Z,530827.927,NULL,Begegnung,kukutana,d,NA,NA,NA,NA,sdfdsf,NA,1,NA,NA,NA,NA,NA,NA,NA,NA,NA,NA,NA,NA,NA,NA,NA,NA,NA,NA,NA
13a8c,deep,flow.Sequence,5_0_1_0_1_0,NA,NA,skipped,NA,530820.2,NA,NA,530811.261,530820.2,2023-05-05T12:00:13Z,530827.927,NULL,Aufstand,ugomaji,s,mazidio,msingi,kujieleza,NA,sdfdsf,NA,1,NA,NA,NA,NA,NA,NA,NA,NA,NA,NA,NA,NA,NA,NA,NA,NA,NA,NA,NA
13a8c,Shallow Question,html.Page,5_0_1_0_1_1_0,NA,NA,form submission,5839.573,530820.4,530811.261,530827.927,536667.5,536668.2,2023-05-05T12:00:19Z,536678.157,NULL,Aufstand,ugomaji,s,mazidio,msingi,kujieleza,ugomaji,NA,NA,1,NA,NA,NA,NA,NA,NA,NA,NA,NA,NA,NA,NA,NA,NA,NA,NA,NA,NA,NA
13a8c,"""Richtig""-Screen",canvas.Screen,5_0_1_0_1_1_1,NA,NA,timeout,4999.8,536671.9,536661.491,536678.157,541661.291,541666,2023-05-05T12:00:24Z,541677.957,NULL,Aufstand,ugomaji,s,mazidio,msingi,kujieleza,NA,sdfdsf,1,1,NA,NA,NA,NA,NA,NA,NA,NA,NA,NA,NA,NA,NA,NA,NA,NA,NA,NA,NA
13a8c,"""Falsch""-Screen",canvas.Screen,5_0_1_0_1_1_2,NA,NA,skipped,NA,541669.9,NA,NA,541661.291,541670,2023-05-05T12:00:24Z,541677.957,NULL,Aufstand,ugomaji,s,mazidio,msingi,kujieleza,NA,sdfdsf,NA,1,NA,NA,NA,NA,NA,NA,NA,NA,NA,NA,NA,NA,NA,NA,NA,NA,NA,NA,NA
13a8c,shallow,flow.Sequence,5_0_1_0_1_1,NA,NA,completion,10833.364,530820.3,530811.261,530827.927,541661.291,541670.2,2023-05-05T12:00:24Z,541677.957,NULL,Aufstand,ugomaji,s,mazidio,msingi,kujieleza,NA,sdfdsf,NA,1,NA,NA,NA,NA,NA,NA,NA,NA,NA,NA,NA,NA,NA,NA,NA,NA,NA,NA,NA
13a8c,task,flow.Sequence,5_0_1_0_1,NA,NA,completion,10833.364,530820.2,530811.261,530827.927,541661.291,541670.3,2023-05-05T12:00:24Z,541677.957,NULL,Aufstand,ugomaji,s,mazidio,msingi,kujieleza,NA,sdfdsf,NA,1,NA,NA,NA,NA,NA,NA,NA,NA,NA,NA,NA,NA,NA,NA,NA,NA,NA,NA,NA
13a8c,Deep Question,html.Page,5_0_1_0_2_0_0,NA,NA,form submission,11206.942999998,541670.5,541661.291,541677.957,552884.9,552885.3,2023-05-05T12:00:36Z,552895.24,NULL,Verzögerung,kuchelewa,d,NA,NA,NA,l,NA,NA,1,NA,NA,NA,NA,NA,NA,NA,NA,NA,NA,NA,NA,NA,NA,NA,NA,NA,NA,NA
13a8c,"""Richtig""-Screen",canvas.Screen,5_0_1_0_2_0_1,NA,NA,skipped,NA,552887.9,NA,NA,552884.9,552888.1,2023-05-05T12:00:36Z,552895.24,NULL,Verzögerung,kuchelewa,d,NA,NA,NA,NA,sdfdsf,NA,1,NA,NA,NA,NA,NA,NA,NA,NA,NA,NA,NA,NA,NA,NA,NA,NA,NA,NA,NA
13a8c,"""Falsch""-Screen",canvas.Screen,5_0_1_0_2_0_2,NA,NA,timeout,4999.8,552889.1,552878.574,552895.24,557878.374,557883.4,2023-05-05T12:00:41Z,557895.04,NULL,Verzögerung,kuchelewa,d,NA,NA,NA,NA,sdfdsf,0,1,NA,NA,NA,NA,NA,NA,NA,NA,NA,NA,NA,NA,NA,NA,NA,NA,NA,NA,NA
13a8c,deep,flow.Sequence,5_0_1_0_2_0,NA,NA,completion,16200.417,541670.3,541661.291,541677.957,557878.374,557883.8,2023-05-05T12:00:41Z,557895.04,NULL,Verzögerung,kuchelewa,d,NA,NA,NA,NA,sdfdsf,NA,1,NA,NA,NA,NA,NA,NA,NA,NA,NA,NA,NA,NA,NA,NA,NA,NA,NA,NA,NA
13a8c,shallow,flow.Sequence,5_0_1_0_2_1,NA,NA,skipped,NA,557884,NA,NA,557878.374,557884.1,2023-05-05T12:00:41Z,557895.04,NULL,Verzögerung,kuchelewa,d,NA,NA,NA,NA,sdfdsf,NA,1,NA,NA,NA,NA,NA,NA,NA,NA,NA,NA,NA,NA,NA,NA,NA,NA,NA,NA,NA
13a8c,task,flow.Sequence,5_0_1_0_2,NA,NA,completion,16200.417,541670.3,541661.291,541677.957,557878.374,557884.2,2023-05-05T12:00:41Z,557895.04,NULL,Verzögerung,kuchelewa,d,NA,NA,NA,NA,sdfdsf,NA,1,NA,NA,NA,NA,NA,NA,NA,NA,NA,NA,NA,NA,NA,NA,NA,NA,NA,NA,NA
13a8c,deep,flow.Sequence,5_0_1_0_3_0,NA,NA,skipped,NA,557884.3,NA,NA,557878.374,557884.4,2023-05-05T12:00:41Z,557895.04,NULL,Prüfung,mtihani,s,mkulima,mtizamo,ufumbuzi,NA,sdfdsf,NA,1,NA,NA,NA,NA,NA,NA,NA,NA,NA,NA,NA,NA,NA,NA,NA,NA,NA,NA,NA
13a8c,Shallow Question,html.Page,5_0_1_0_3_1_0,NA,NA,form submission,5672.2600000044,557884.5,557878.374,557895.04,563567.3,563567.8,2023-05-05T12:00:46Z,563578.653,NULL,Prüfung,mtihani,s,mkulima,mtizamo,ufumbuzi,mtihani,NA,NA,1,NA,NA,NA,NA,NA,NA,NA,NA,NA,NA,NA,NA,NA,NA,NA,NA,NA,NA,NA
13a8c,"""Richtig""-Screen",canvas.Screen,5_0_1_0_3_1_1,NA,NA,timeout,4999.7999999999,563571.9,563561.987,563578.653,568561.787,568565.5,2023-05-05T12:00:51Z,568578.453,NULL,Prüfung,mtihani,s,mkulima,mtizamo,ufumbuzi,NA,sdfdsf,1,1,NA,NA,NA,NA,NA,NA,NA,NA,NA,NA,NA,NA,NA,NA,NA,NA,NA,NA,NA
13a8c,"""Falsch""-Screen",canvas.Screen,5_0_1_0_3_1_2,NA,NA,skipped,NA,568569.4,NA,NA,568561.787,568569.4,2023-05-05T12:00:51Z,568578.453,NULL,Prüfung,mtihani,s,mkulima,mtizamo,ufumbuzi,NA,sdfdsf,NA,1,NA,NA,NA,NA,NA,NA,NA,NA,NA,NA,NA,NA,NA,NA,NA,NA,NA,NA,NA
13a8c,shallow,flow.Sequence,5_0_1_0_3_1,NA,NA,completion,10666.747,557884.5,557878.374,557895.04,568561.787,568569.6,2023-05-05T12:00:51Z,568578.453,NULL,Prüfung,mtihani,s,mkulima,mtizamo,ufumbuzi,NA,sdfdsf,NA,1,NA,NA,NA,NA,NA,NA,NA,NA,NA,NA,NA,NA,NA,NA,NA,NA,NA,NA,NA
13a8c,task,flow.Sequence,5_0_1_0_3,NA,NA,completion,10666.747,557884.3,557878.374,557895.04,568561.787,568569.7,2023-05-05T12:00:51Z,568578.453,NULL,Prüfung,mtihani,s,mkulima,mtizamo,ufumbuzi,NA,sdfdsf,NA,1,NA,NA,NA,NA,NA,NA,NA,NA,NA,NA,NA,NA,NA,NA,NA,NA,NA,NA,NA
13a8c,deep,flow.Sequence,5_0_1_0_4_0,NA,NA,skipped,NA,568569.8,NA,NA,568561.787,568569.9,2023-05-05T12:00:51Z,568578.453,NULL,Fleisch,mshakiki,s,kizunguzungu,mshikamano,angusho,NA,sdfdsf,NA,1,NA,NA,NA,NA,NA,NA,NA,NA,NA,NA,NA,NA,NA,NA,NA,NA,NA,NA,NA
13a8c,Shallow Question,html.Page,5_0_1_0_4_1_0,NA,NA,form submission,6389.747000003,568569.9,568561.787,568578.453,574968.2,574968.5,2023-05-05T12:00:58Z,574978.718,NULL,Fleisch,mshakiki,s,kizunguzungu,mshikamano,angusho,mshakiki,NA,NA,1,NA,NA,NA,NA,NA,NA,NA,NA,NA,NA,NA,NA,NA,NA,NA,NA,NA,NA,NA
13a8c,"""Richtig""-Screen",canvas.Screen,5_0_1_0_4_1_1,NA,NA,timeout,4999.8,574970.9,574962.052,574978.718,579961.852,579966,2023-05-05T12:01:03Z,579978.518,NULL,Fleisch,mshakiki,s,kizunguzungu,mshikamano,angusho,NA,sdfdsf,1,1,NA,NA,NA,NA,NA,NA,NA,NA,NA,NA,NA,NA,NA,NA,NA,NA,NA,NA,NA
13a8c,"""Falsch""-Screen",canvas.Screen,5_0_1_0_4_1_2,NA,NA,skipped,NA,579970.5,NA,NA,579961.852,579970.6,2023-05-05T12:01:03Z,579978.518,NULL,Fleisch,mshakiki,s,kizunguzungu,mshikamano,angusho,NA,sdfdsf,NA,1,NA,NA,NA,NA,NA,NA,NA,NA,NA,NA,NA,NA,NA,NA,NA,NA,NA,NA,NA
13a8c,shallow,flow.Sequence,5_0_1_0_4_1,NA,NA,completion,11383.399,568569.9,568561.787,568578.453,579961.852,579970.9,2023-05-05T12:01:03Z,579978.518,NULL,Fleisch,mshakiki,s,kizunguzungu,mshikamano,angusho,NA,sdfdsf,NA,1,NA,NA,NA,NA,NA,NA,NA,NA,NA,NA,NA,NA,NA,NA,NA,NA,NA,NA,NA
13a8c,task,flow.Sequence,5_0_1_0_4,NA,NA,completion,11383.399,568569.7,568561.787,568578.453,579961.852,579971.1,2023-05-05T12:01:03Z,579978.518,NULL,Fleisch,mshakiki,s,kizunguzungu,mshikamano,angusho,NA,sdfdsf,NA,1,NA,NA,NA,NA,NA,NA,NA,NA,NA,NA,NA,NA,NA,NA,NA,NA,NA,NA,NA
13a8c,deep,flow.Sequence,5_0_1_0_5_0,NA,NA,skipped,NA,579971.1,NA,NA,579961.852,579971.3,2023-05-05T12:01:03Z,579978.518,NULL,Integrität,uadilifu,s,muungano,mtiririko,upunguaji,NA,sdfdsf,NA,1,NA,NA,NA,NA,NA,NA,NA,NA,NA,NA,NA,NA,NA,NA,NA,NA,NA,NA,NA
13a8c,Shallow Question,html.Page,5_0_1_0_5_1_0,NA,NA,form submission,11956.582000001,579971.4,579961.852,579978.518,591935.1,591935.4,2023-05-05T12:01:15Z,591945.421,NULL,Integrität,uadilifu,s,muungano,mtiririko,upunguaji,uadilifu,NA,NA,1,NA,NA,NA,NA,NA,NA,NA,NA,NA,NA,NA,NA,NA,NA,NA,NA,NA,NA,NA
13a8c,"""Richtig""-Screen",canvas.Screen,5_0_1_0_5_1_1,NA,NA,timeout,4999.8,591938,591928.755,591945.421,596928.555,596934.4,2023-05-05T12:01:20Z,596945.221,NULL,Integrität,uadilifu,s,muungano,mtiririko,upunguaji,NA,sdfdsf,1,1,NA,NA,NA,NA,NA,NA,NA,NA,NA,NA,NA,NA,NA,NA,NA,NA,NA,NA,NA
13a8c,"""Falsch""-Screen",canvas.Screen,5_0_1_0_5_1_2,NA,NA,skipped,NA,596938.9,NA,NA,596928.555,596939,2023-05-05T12:01:20Z,596945.221,NULL,Integrität,uadilifu,s,muungano,mtiririko,upunguaji,NA,sdfdsf,NA,1,NA,NA,NA,NA,NA,NA,NA,NA,NA,NA,NA,NA,NA,NA,NA,NA,NA,NA,NA
13a8c,shallow,flow.Sequence,5_0_1_0_5_1,NA,NA,completion,16950.037,579971.3,579961.852,579978.518,596928.555,596939.2,2023-05-05T12:01:20Z,596945.221,NULL,Integrität,uadilifu,s,muungano,mtiririko,upunguaji,NA,sdfdsf,NA,1,NA,NA,NA,NA,NA,NA,NA,NA,NA,NA,NA,NA,NA,NA,NA,NA,NA,NA,NA
13a8c,task,flow.Sequence,5_0_1_0_5,NA,NA,completion,16950.037,579971.1,579961.852,579978.518,596928.555,596939.3,2023-05-05T12:01:20Z,596945.221,NULL,Integrität,uadilifu,s,muungano,mtiririko,upunguaji,NA,sdfdsf,NA,1,NA,NA,NA,NA,NA,NA,NA,NA,NA,NA,NA,NA,NA,NA,NA,NA,NA,NA,NA
13a8c,Deep Question,html.Page,5_0_1_0_6_0_0,NA,NA,form submission,7069.779,596939.4,596928.555,596945.221,604015,604015.2,2023-05-05T12:01:27Z,604028.887,NULL,Genehmigung,idhini,d,NA,NA,NA,idhini,NA,NA,1,NA,NA,NA,NA,NA,NA,NA,NA,NA,NA,NA,NA,NA,NA,NA,NA,NA,NA,NA
13a8c,"""Richtig""-Screen",canvas.Screen,5_0_1_0_6_0_1,NA,NA,timeout,4999.8,604017.1,604012.221,604028.887,609012.021,609015.9,2023-05-05T12:01:32Z,609028.687,NULL,Genehmigung,idhini,d,NA,NA,NA,NA,sdfdsf,1,1,NA,NA,NA,NA,NA,NA,NA,NA,NA,NA,NA,NA,NA,NA,NA,NA,NA,NA,NA
13a8c,"""Falsch""-Screen",canvas.Screen,5_0_1_0_6_0_2,NA,NA,skipped,NA,609020.4,NA,NA,609012.021,609020.6,2023-05-05T12:01:32Z,609028.687,NULL,Genehmigung,idhini,d,NA,NA,NA,NA,sdfdsf,NA,1,NA,NA,NA,NA,NA,NA,NA,NA,NA,NA,NA,NA,NA,NA,NA,NA,NA,NA,NA
13a8c,deep,flow.Sequence,5_0_1_0_6_0,NA,NA,completion,12066.8,596939.4,596928.555,596945.221,609012.021,609020.8,2023-05-05T12:01:32Z,609028.687,NULL,Genehmigung,idhini,d,NA,NA,NA,NA,sdfdsf,NA,1,NA,NA,NA,NA,NA,NA,NA,NA,NA,NA,NA,NA,NA,NA,NA,NA,NA,NA,NA
13a8c,shallow,flow.Sequence,5_0_1_0_6_1,NA,NA,skipped,NA,609020.8,NA,NA,609012.021,609020.9,2023-05-05T12:01:32Z,609028.687,NULL,Genehmigung,idhini,d,NA,NA,NA,NA,sdfdsf,NA,1,NA,NA,NA,NA,NA,NA,NA,NA,NA,NA,NA,NA,NA,NA,NA,NA,NA,NA,NA
13a8c,task,flow.Sequence,5_0_1_0_6,NA,NA,completion,12066.8,596939.4,596928.555,596945.221,609012.021,609021,2023-05-05T12:01:32Z,609028.687,NULL,Genehmigung,idhini,d,NA,NA,NA,NA,sdfdsf,NA,1,NA,NA,NA,NA,NA,NA,NA,NA,NA,NA,NA,NA,NA,NA,NA,NA,NA,NA,NA
13a8c,Deep Question,html.Page,5_0_1_0_7_0_0,NA,NA,form submission,9456.9130000015,609021.1,609012.021,609028.687,618485.6,618486.1,2023-05-05T12:01:41Z,618495.559,NULL,Kultur,utamaduni,d,NA,NA,NA,u,NA,NA,1,NA,NA,NA,NA,NA,NA,NA,NA,NA,NA,NA,NA,NA,NA,NA,NA,NA,NA,NA
13a8c,"""Richtig""-Screen",canvas.Screen,5_0_1_0_7_0_1,NA,NA,skipped,NA,618489.8,NA,NA,618485.6,618490.1,2023-05-05T12:01:41Z,618495.559,NULL,Kultur,utamaduni,d,NA,NA,NA,NA,sdfdsf,NA,1,NA,NA,NA,NA,NA,NA,NA,NA,NA,NA,NA,NA,NA,NA,NA,NA,NA,NA,NA
13a8c,"""Falsch""-Screen",canvas.Screen,5_0_1_0_7_0_2,NA,NA,timeout,4999.8,618490.7,618478.893,618495.559,623478.693,623480,2023-05-05T12:01:46Z,623495.359,NULL,Kultur,utamaduni,d,NA,NA,NA,NA,sdfdsf,0,1,NA,NA,NA,NA,NA,NA,NA,NA,NA,NA,NA,NA,NA,NA,NA,NA,NA,NA,NA
13a8c,deep,flow.Sequence,5_0_1_0_7_0,NA,NA,completion,14450.006,609021,609012.021,609028.687,623478.693,623480.5,2023-05-05T12:01:46Z,623495.359,NULL,Kultur,utamaduni,d,NA,NA,NA,NA,sdfdsf,NA,1,NA,NA,NA,NA,NA,NA,NA,NA,NA,NA,NA,NA,NA,NA,NA,NA,NA,NA,NA
13a8c,shallow,flow.Sequence,5_0_1_0_7_1,NA,NA,skipped,NA,623480.5,NA,NA,623478.693,623480.7,2023-05-05T12:01:46Z,623495.359,NULL,Kultur,utamaduni,d,NA,NA,NA,NA,sdfdsf,NA,1,NA,NA,NA,NA,NA,NA,NA,NA,NA,NA,NA,NA,NA,NA,NA,NA,NA,NA,NA
13a8c,task,flow.Sequence,5_0_1_0_7,NA,NA,completion,14450.006,609021,609012.021,609028.687,623478.693,623480.8,2023-05-05T12:01:46Z,623495.359,NULL,Kultur,utamaduni,d,NA,NA,NA,NA,sdfdsf,NA,1,NA,NA,NA,NA,NA,NA,NA,NA,NA,NA,NA,NA,NA,NA,NA,NA,NA,NA,NA
13a8c,block,flow.Loop,5_0_1_0,NA,NA,completion,106867.415,516623.1,516577.946,516611.278,623478.693,623481.1,2023-05-05T12:01:46Z,623495.359,NULL,NA,NA,NA,NA,NA,NA,NA,sdfdsf,NA,1,NA,NA,NA,NA,NA,NA,NA,NA,NA,NA,NA,NA,NA,NA,NA,NA,NA,NA,NA
13a8c,weiter,canvas.Screen,5_0_1_1,sdf,keypress(Space),response,1813.8410000029,623481.2,623478.693,623495.359,625309.2,625315.2,2023-05-05T12:01:48Z,625329.244,NULL,NA,NA,NA,NA,NA,NA,NA,sdfdsf,NA,1,NA,NA,NA,NA,NA,NA,NA,NA,NA,NA,NA,NA,NA,NA,NA,NA,NA,NA,NA
13a8c,check continue,flow.Sequence,5_0_1,NA,NA,completion,108697.922,516623.1,516577.946,516611.278,625309.2,625315.6,2023-05-05T12:01:48Z,625329.244,NULL,NA,NA,NA,NA,NA,NA,NA,sdfdsf,NA,1,NA,NA,NA,NA,NA,NA,NA,NA,NA,NA,NA,NA,NA,NA,NA,NA,NA,NA,NA
13a8c,Deep Question,html.Page,5_0_2_0_0_0_0,NA,NA,form submission,9872.6559999986,625340.4,625295.912,625329.244,635201.9,635202.5,2023-05-05T12:01:58Z,635212.686,NULL,Begegnung,kukutana,d,NA,NA,NA,kuchelewa,NA,NA,2,NA,NA,NA,NA,NA,NA,NA,NA,NA,NA,NA,NA,NA,NA,NA,NA,NA,NA,NA
13a8c,"""Richtig""-Screen",canvas.Screen,5_0_2_0_0_0_1,NA,NA,skipped,NA,635205.4,NA,NA,635201.9,635205.6,2023-05-05T12:01:58Z,635212.686,NULL,Begegnung,kukutana,d,NA,NA,NA,NA,sdf,NA,2,NA,NA,NA,NA,NA,NA,NA,NA,NA,NA,NA,NA,NA,NA,NA,NA,NA,NA,NA
13a8c,"""Falsch""-Screen",canvas.Screen,5_0_2_0_0_0_2,NA,NA,timeout,4999.8,635206.6,635196.02,635212.686,640195.82,640199.8,2023-05-05T12:02:03Z,640212.486,NULL,Begegnung,kukutana,d,NA,NA,NA,NA,sdf,0,2,NA,NA,NA,NA,NA,NA,NA,NA,NA,NA,NA,NA,NA,NA,NA,NA,NA,NA,NA
13a8c,deep,flow.Sequence,5_0_2_0_0_0,NA,NA,completion,14866.576,625340.4,625295.912,625329.244,640195.82,640200.3,2023-05-05T12:02:03Z,640212.486,NULL,Begegnung,kukutana,d,NA,NA,NA,NA,sdf,NA,2,NA,NA,NA,NA,NA,NA,NA,NA,NA,NA,NA,NA,NA,NA,NA,NA,NA,NA,NA
13a8c,shallow,flow.Sequence,5_0_2_0_0_1,NA,NA,skipped,NA,640200.4,NA,NA,640195.82,640200.6,2023-05-05T12:02:03Z,640212.486,NULL,Begegnung,kukutana,d,NA,NA,NA,NA,sdf,NA,2,NA,NA,NA,NA,NA,NA,NA,NA,NA,NA,NA,NA,NA,NA,NA,NA,NA,NA,NA
13a8c,task,flow.Sequence,5_0_2_0_0,NA,NA,completion,14866.576,625340.4,625295.912,625329.244,640195.82,640200.8,2023-05-05T12:02:03Z,640212.486,NULL,Begegnung,kukutana,d,NA,NA,NA,NA,sdf,NA,2,NA,NA,NA,NA,NA,NA,NA,NA,NA,NA,NA,NA,NA,NA,NA,NA,NA,NA,NA
13a8c,deep,flow.Sequence,5_0_2_0_1_0,NA,NA,skipped,NA,640200.9,NA,NA,640195.82,640200.9,2023-05-05T12:02:03Z,640212.486,NULL,Fleisch,mshakiki,s,kizunguzungu,mshikamano,angusho,NA,sdf,NA,2,NA,NA,NA,NA,NA,NA,NA,NA,NA,NA,NA,NA,NA,NA,NA,NA,NA,NA,NA
13a8c,Shallow Question,html.Page,5_0_2_0_1_1_0,NA,NA,form submission,4605.7140000029,640201.1,640195.82,640212.486,644818.2,644818.4,2023-05-05T12:02:07Z,644829.486,NULL,Fleisch,mshakiki,s,kizunguzungu,mshikamano,angusho,mshakiki,NA,NA,2,NA,NA,NA,NA,NA,NA,NA,NA,NA,NA,NA,NA,NA,NA,NA,NA,NA,NA,NA
13a8c,"""Richtig""-Screen",canvas.Screen,5_0_2_0_1_1_1,NA,NA,timeout,4999.7999999999,644821.3,644812.82,644829.486,649812.62,649816.9,2023-05-05T12:02:12Z,649829.286,NULL,Fleisch,mshakiki,s,kizunguzungu,mshikamano,angusho,NA,sdf,1,2,NA,NA,NA,NA,NA,NA,NA,NA,NA,NA,NA,NA,NA,NA,NA,NA,NA,NA,NA
13a8c,"""Falsch""-Screen",canvas.Screen,5_0_2_0_1_1_2,NA,NA,skipped,NA,649821.4,NA,NA,649812.62,649821.5,2023-05-05T12:02:12Z,649829.286,NULL,Fleisch,mshakiki,s,kizunguzungu,mshikamano,angusho,NA,sdf,NA,2,NA,NA,NA,NA,NA,NA,NA,NA,NA,NA,NA,NA,NA,NA,NA,NA,NA,NA,NA
13a8c,shallow,flow.Sequence,5_0_2_0_1_1,NA,NA,completion,9600.134,640201.1,640195.82,640212.486,649812.62,649821.7,2023-05-05T12:02:12Z,649829.286,NULL,Fleisch,mshakiki,s,kizunguzungu,mshikamano,angusho,NA,sdf,NA,2,NA,NA,NA,NA,NA,NA,NA,NA,NA,NA,NA,NA,NA,NA,NA,NA,NA,NA,NA
13a8c,task,flow.Sequence,5_0_2_0_1,NA,NA,completion,9600.134,640200.8,640195.82,640212.486,649812.62,649821.8,2023-05-05T12:02:12Z,649829.286,NULL,Fleisch,mshakiki,s,kizunguzungu,mshikamano,angusho,NA,sdf,NA,2,NA,NA,NA,NA,NA,NA,NA,NA,NA,NA,NA,NA,NA,NA,NA,NA,NA,NA,NA
13a8c,deep,flow.Sequence,5_0_2_0_2_0,NA,NA,skipped,NA,649821.9,NA,NA,649812.62,649822,2023-05-05T12:02:12Z,649829.286,NULL,Prüfung,mtihani,s,mkulima,mtizamo,ufumbuzi,NA,sdf,NA,2,NA,NA,NA,NA,NA,NA,NA,NA,NA,NA,NA,NA,NA,NA,NA,NA,NA,NA,NA
13a8c,Shallow Question,html.Page,5_0_2_0_2_1_0,NA,NA,form submission,4989.3140000015,649822.1,649812.62,649829.286,654818.6,654819.2,2023-05-05T12:02:17Z,654829.086,NULL,Prüfung,mtihani,s,mkulima,mtizamo,ufumbuzi,mtihani,NA,NA,2,NA,NA,NA,NA,NA,NA,NA,NA,NA,NA,NA,NA,NA,NA,NA,NA,NA,NA,NA
13a8c,"""Richtig""-Screen",canvas.Screen,5_0_2_0_2_1_1,NA,NA,timeout,5000.344,654821.7,654812.42,654829.086,659812.764,659817.1,2023-05-05T12:02:22Z,659829.43,NULL,Prüfung,mtihani,s,mkulima,mtizamo,ufumbuzi,NA,sdf,1,2,NA,NA,NA,NA,NA,NA,NA,NA,NA,NA,NA,NA,NA,NA,NA,NA,NA,NA,NA
13a8c,"""Falsch""-Screen",canvas.Screen,5_0_2_0_2_1_2,NA,NA,skipped,NA,659821.5,NA,NA,659812.764,659821.8,2023-05-05T12:02:22Z,659829.43,NULL,Prüfung,mtihani,s,mkulima,mtizamo,ufumbuzi,NA,sdf,NA,2,NA,NA,NA,NA,NA,NA,NA,NA,NA,NA,NA,NA,NA,NA,NA,NA,NA,NA,NA
13a8c,shallow,flow.Sequence,5_0_2_0_2_1,NA,NA,completion,9983.478,649822,649812.62,649829.286,659812.764,659821.9,2023-05-05T12:02:22Z,659829.43,NULL,Prüfung,mtihani,s,mkulima,mtizamo,ufumbuzi,NA,sdf,NA,2,NA,NA,NA,NA,NA,NA,NA,NA,NA,NA,NA,NA,NA,NA,NA,NA,NA,NA,NA
13a8c,task,flow.Sequence,5_0_2_0_2,NA,NA,completion,9983.478,649821.9,649812.62,649829.286,659812.764,659822,2023-05-05T12:02:22Z,659829.43,NULL,Prüfung,mtihani,s,mkulima,mtizamo,ufumbuzi,NA,sdf,NA,2,NA,NA,NA,NA,NA,NA,NA,NA,NA,NA,NA,NA,NA,NA,NA,NA,NA,NA,NA
13a8c,deep,flow.Sequence,5_0_2_0_3_0,NA,NA,skipped,NA,659822.2,NA,NA,659812.764,659822.4,2023-05-05T12:02:22Z,659829.43,NULL,Integrität,uadilifu,s,muungano,mtiririko,upunguaji,NA,sdf,NA,2,NA,NA,NA,NA,NA,NA,NA,NA,NA,NA,NA,NA,NA,NA,NA,NA,NA,NA,NA
13a8c,Shallow Question,html.Page,5_0_2_0_3_1_0,NA,NA,form submission,4123.8700000044,659822.4,659812.764,659829.43,663953.3,663953.4,2023-05-05T12:02:27Z,663962.598,NULL,Integrität,uadilifu,s,muungano,mtiririko,upunguaji,uadilifu,NA,NA,2,NA,NA,NA,NA,NA,NA,NA,NA,NA,NA,NA,NA,NA,NA,NA,NA,NA,NA,NA
13a8c,"""Richtig""-Screen",canvas.Screen,5_0_2_0_3_1_1,NA,NA,timeout,4999.8,663955.9,663945.932,663962.598,668945.732,668947.2,2023-05-05T12:02:32Z,668962.398,NULL,Integrität,uadilifu,s,muungano,mtiririko,upunguaji,NA,sdf,1,2,NA,NA,NA,NA,NA,NA,NA,NA,NA,NA,NA,NA,NA,NA,NA,NA,NA,NA,NA
13a8c,"""Falsch""-Screen",canvas.Screen,5_0_2_0_3_1_2,NA,NA,skipped,NA,668951.6,NA,NA,668945.732,668951.9,2023-05-05T12:02:32Z,668962.398,NULL,Integrität,uadilifu,s,muungano,mtiririko,upunguaji,NA,sdf,NA,2,NA,NA,NA,NA,NA,NA,NA,NA,NA,NA,NA,NA,NA,NA,NA,NA,NA,NA,NA
13a8c,shallow,flow.Sequence,5_0_2_0_3_1,NA,NA,completion,9116.3019999999,659822.4,659812.764,659829.43,668945.732,668952.1,2023-05-05T12:02:32Z,668962.398,NULL,Integrität,uadilifu,s,muungano,mtiririko,upunguaji,NA,sdf,NA,2,NA,NA,NA,NA,NA,NA,NA,NA,NA,NA,NA,NA,NA,NA,NA,NA,NA,NA,NA
13a8c,task,flow.Sequence,5_0_2_0_3,NA,NA,completion,9116.3019999999,659822.2,659812.764,659829.43,668945.732,668952.2,2023-05-05T12:02:32Z,668962.398,NULL,Integrität,uadilifu,s,muungano,mtiririko,upunguaji,NA,sdf,NA,2,NA,NA,NA,NA,NA,NA,NA,NA,NA,NA,NA,NA,NA,NA,NA,NA,NA,NA,NA
13a8c,Deep Question,html.Page,5_0_2_0_4_0_0,NA,NA,form submission,7820.8020000029,668952.4,668945.732,668962.398,676783.2,676783.9,2023-05-05T12:02:39Z,676796.125,NULL,Verzögerung,kuchelewa,d,NA,NA,NA,kuchelewa,NA,NA,2,NA,NA,NA,NA,NA,NA,NA,NA,NA,NA,NA,NA,NA,NA,NA,NA,NA,NA,NA
13a8c,"""Richtig""-Screen",canvas.Screen,5_0_2_0_4_0_1,NA,NA,timeout,4999.8,676786,676779.459,676796.125,681779.259,681783.8,2023-05-05T12:02:44Z,681795.925,NULL,Verzögerung,kuchelewa,d,NA,NA,NA,NA,sdf,1,2,NA,NA,NA,NA,NA,NA,NA,NA,NA,NA,NA,NA,NA,NA,NA,NA,NA,NA,NA
13a8c,"""Falsch""-Screen",canvas.Screen,5_0_2_0_4_0_2,NA,NA,skipped,NA,681788.4,NA,NA,681779.259,681788.6,2023-05-05T12:02:44Z,681795.925,NULL,Verzögerung,kuchelewa,d,NA,NA,NA,NA,sdf,NA,2,NA,NA,NA,NA,NA,NA,NA,NA,NA,NA,NA,NA,NA,NA,NA,NA,NA,NA,NA
13a8c,deep,flow.Sequence,5_0_2_0_4_0,NA,NA,completion,12816.861,668952.4,668945.732,668962.398,681779.259,681788.8,2023-05-05T12:02:44Z,681795.925,NULL,Verzögerung,kuchelewa,d,NA,NA,NA,NA,sdf,NA,2,NA,NA,NA,NA,NA,NA,NA,NA,NA,NA,NA,NA,NA,NA,NA,NA,NA,NA,NA
13a8c,shallow,flow.Sequence,5_0_2_0_4_1,NA,NA,skipped,NA,681788.8,NA,NA,681779.259,681788.9,2023-05-05T12:02:44Z,681795.925,NULL,Verzögerung,kuchelewa,d,NA,NA,NA,NA,sdf,NA,2,NA,NA,NA,NA,NA,NA,NA,NA,NA,NA,NA,NA,NA,NA,NA,NA,NA,NA,NA
13a8c,task,flow.Sequence,5_0_2_0_4,NA,NA,completion,12816.861,668952.4,668945.732,668962.398,681779.259,681789,2023-05-05T12:02:44Z,681795.925,NULL,Verzögerung,kuchelewa,d,NA,NA,NA,NA,sdf,NA,2,NA,NA,NA,NA,NA,NA,NA,NA,NA,NA,NA,NA,NA,NA,NA,NA,NA,NA,NA
13a8c,Deep Question,html.Page,5_0_2_0_5_0_0,NA,NA,form submission,9606.6750000014,681789.1,681779.259,681795.925,691402.6,691403.1,2023-05-05T12:02:54Z,691412.852,NULL,Kultur,utamaduni,d,NA,NA,NA,u,NA,NA,2,NA,NA,NA,NA,NA,NA,NA,NA,NA,NA,NA,NA,NA,NA,NA,NA,NA,NA,NA
13a8c,"""Richtig""-Screen",canvas.Screen,5_0_2_0_5_0_1,NA,NA,skipped,NA,691405.4,NA,NA,691402.6,691405.5,2023-05-05T12:02:54Z,691412.852,NULL,Kultur,utamaduni,d,NA,NA,NA,NA,sdf,NA,2,NA,NA,NA,NA,NA,NA,NA,NA,NA,NA,NA,NA,NA,NA,NA,NA,NA,NA,NA
13a8c,"""Falsch""-Screen",canvas.Screen,5_0_2_0_5_0_2,NA,NA,timeout,4999.8,691406.7,691396.186,691412.852,696395.986,696400.4,2023-05-05T12:02:59Z,696412.652,NULL,Kultur,utamaduni,d,NA,NA,NA,NA,sdf,0,2,NA,NA,NA,NA,NA,NA,NA,NA,NA,NA,NA,NA,NA,NA,NA,NA,NA,NA,NA
13a8c,deep,flow.Sequence,5_0_2_0_5_0,NA,NA,completion,14600.061,681789.1,681779.259,681795.925,696395.986,696400.7,2023-05-05T12:02:59Z,696412.652,NULL,Kultur,utamaduni,d,NA,NA,NA,NA,sdf,NA,2,NA,NA,NA,NA,NA,NA,NA,NA,NA,NA,NA,NA,NA,NA,NA,NA,NA,NA,NA
13a8c,shallow,flow.Sequence,5_0_2_0_5_1,NA,NA,skipped,NA,696400.8,NA,NA,696395.986,696401,2023-05-05T12:02:59Z,696412.652,NULL,Kultur,utamaduni,d,NA,NA,NA,NA,sdf,NA,2,NA,NA,NA,NA,NA,NA,NA,NA,NA,NA,NA,NA,NA,NA,NA,NA,NA,NA,NA
13a8c,task,flow.Sequence,5_0_2_0_5,NA,NA,completion,14600.061,681789,681779.259,681795.925,696395.986,696401.2,2023-05-05T12:02:59Z,696412.652,NULL,Kultur,utamaduni,d,NA,NA,NA,NA,sdf,NA,2,NA,NA,NA,NA,NA,NA,NA,NA,NA,NA,NA,NA,NA,NA,NA,NA,NA,NA,NA
13a8c,Deep Question,html.Page,5_0_2_0_6_0_0,NA,NA,form submission,6273.9480000015,696401.4,696395.986,696412.652,702686.6,702687.1,2023-05-05T12:03:05Z,702696.462,NULL,Genehmigung,idhini,d,NA,NA,NA,idhini,NA,NA,2,NA,NA,NA,NA,NA,NA,NA,NA,NA,NA,NA,NA,NA,NA,NA,NA,NA,NA,NA
13a8c,"""Richtig""-Screen",canvas.Screen,5_0_2_0_6_0_1,NA,NA,timeout,4999.7999999999,702689.9,702679.796,702696.462,707679.596,707683.7,2023-05-05T12:03:10Z,707696.262,NULL,Genehmigung,idhini,d,NA,NA,NA,NA,sdf,1,2,NA,NA,NA,NA,NA,NA,NA,NA,NA,NA,NA,NA,NA,NA,NA,NA,NA,NA,NA
13a8c,"""Falsch""-Screen",canvas.Screen,5_0_2_0_6_0_2,NA,NA,skipped,NA,707687.6,NA,NA,707679.596,707687.6,2023-05-05T12:03:10Z,707696.262,NULL,Genehmigung,idhini,d,NA,NA,NA,NA,sdf,NA,2,NA,NA,NA,NA,NA,NA,NA,NA,NA,NA,NA,NA,NA,NA,NA,NA,NA,NA,NA
13a8c,deep,flow.Sequence,5_0_2_0_6_0,NA,NA,completion,11266.944,696401.3,696395.986,696412.652,707679.596,707687.7,2023-05-05T12:03:10Z,707696.262,NULL,Genehmigung,idhini,d,NA,NA,NA,NA,sdf,NA,2,NA,NA,NA,NA,NA,NA,NA,NA,NA,NA,NA,NA,NA,NA,NA,NA,NA,NA,NA
13a8c,shallow,flow.Sequence,5_0_2_0_6_1,NA,NA,skipped,NA,707687.8,NA,NA,707679.596,707687.8,2023-05-05T12:03:10Z,707696.262,NULL,Genehmigung,idhini,d,NA,NA,NA,NA,sdf,NA,2,NA,NA,NA,NA,NA,NA,NA,NA,NA,NA,NA,NA,NA,NA,NA,NA,NA,NA,NA
13a8c,task,flow.Sequence,5_0_2_0_6,NA,NA,completion,11266.944,696401.3,696395.986,696412.652,707679.596,707687.9,2023-05-05T12:03:10Z,707696.262,NULL,Genehmigung,idhini,d,NA,NA,NA,NA,sdf,NA,2,NA,NA,NA,NA,NA,NA,NA,NA,NA,NA,NA,NA,NA,NA,NA,NA,NA,NA,NA
13a8c,deep,flow.Sequence,5_0_2_0_7_0,NA,NA,skipped,NA,707688,NA,NA,707679.596,707688,2023-05-05T12:03:10Z,707696.262,NULL,Aufstand,ugomaji,s,mazidio,msingi,kujieleza,NA,sdf,NA,2,NA,NA,NA,NA,NA,NA,NA,NA,NA,NA,NA,NA,NA,NA,NA,NA,NA,NA,NA
13a8c,Shallow Question,html.Page,5_0_2_0_7_1_0,NA,NA,form submission,6023.1379999985,707688.1,707679.596,707696.262,713719.4,713719.7,2023-05-05T12:03:16Z,713729.918,NULL,Aufstand,ugomaji,s,mazidio,msingi,kujieleza,ugomaji,NA,NA,2,NA,NA,NA,NA,NA,NA,NA,NA,NA,NA,NA,NA,NA,NA,NA,NA,NA,NA,NA
13a8c,"""Richtig""-Screen",canvas.Screen,5_0_2_0_7_1_1,NA,NA,timeout,4999.8,713722.1,713713.252,713729.918,718713.052,718716.1,2023-05-05T12:03:21Z,718729.718,NULL,Aufstand,ugomaji,s,mazidio,msingi,kujieleza,NA,sdf,1,2,NA,NA,NA,NA,NA,NA,NA,NA,NA,NA,NA,NA,NA,NA,NA,NA,NA,NA,NA
13a8c,"""Falsch""-Screen",canvas.Screen,5_0_2_0_7_1_2,NA,NA,skipped,NA,718719.7,NA,NA,718713.052,718719.8,2023-05-05T12:03:21Z,718729.718,NULL,Aufstand,ugomaji,s,mazidio,msingi,kujieleza,NA,sdf,NA,2,NA,NA,NA,NA,NA,NA,NA,NA,NA,NA,NA,NA,NA,NA,NA,NA,NA,NA,NA
13a8c,shallow,flow.Sequence,5_0_2_0_7_1,NA,NA,completion,11016.79,707688.1,707679.596,707696.262,718713.052,718720,2023-05-05T12:03:21Z,718729.718,NULL,Aufstand,ugomaji,s,mazidio,msingi,kujieleza,NA,sdf,NA,2,NA,NA,NA,NA,NA,NA,NA,NA,NA,NA,NA,NA,NA,NA,NA,NA,NA,NA,NA
13a8c,task,flow.Sequence,5_0_2_0_7,NA,NA,completion,11016.79,707688,707679.596,707696.262,718713.052,718720,2023-05-05T12:03:21Z,718729.718,NULL,Aufstand,ugomaji,s,mazidio,msingi,kujieleza,NA,sdf,NA,2,NA,NA,NA,NA,NA,NA,NA,NA,NA,NA,NA,NA,NA,NA,NA,NA,NA,NA,NA
13a8c,block,flow.Loop,5_0_2_0,NA,NA,completion,93383.808,625340.4,625295.912,625329.244,718713.052,718720.2,2023-05-05T12:03:21Z,718729.718,NULL,NA,NA,NA,NA,NA,NA,NA,sdf,NA,2,NA,NA,NA,NA,NA,NA,NA,NA,NA,NA,NA,NA,NA,NA,NA,NA,NA,NA,NA
13a8c,weiter,canvas.Screen,5_0_2_1,sdf,keypress(Space),response,1080.982000003,718720.2,718713.052,718729.718,719810.7,719814.3,2023-05-05T12:03:22Z,720013.552,NULL,NA,NA,NA,NA,NA,NA,NA,sdf,NA,2,NA,NA,NA,NA,NA,NA,NA,NA,NA,NA,NA,NA,NA,NA,NA,NA,NA,NA,NA
13a8c,check continue,flow.Sequence,5_0_2,NA,NA,completion,94481.456000003,625340.4,625295.912,625329.244,719810.7,719814.7,2023-05-05T12:03:22Z,720013.552,NULL,NA,NA,NA,NA,NA,NA,NA,sdf,NA,2,NA,NA,NA,NA,NA,NA,NA,NA,NA,NA,NA,NA,NA,NA,NA,NA,NA,NA,NA
13a8c,check continue,flow.Sequence,5_0_3,NA,NA,skipped,NA,719839.9,NA,NA,719810.7,719840,2023-05-05T12:03:23Z,720013.552,NULL,NA,NA,NA,NA,NA,NA,NA,qt,NA,3,NA,NA,NA,NA,NA,NA,NA,NA,NA,NA,NA,NA,NA,NA,NA,NA,NA,NA,NA
13a8c,check continue,flow.Sequence,5_0_4,NA,NA,skipped,NA,719853.2,NA,NA,719810.7,719853.2,2023-05-05T12:03:23Z,720013.552,NULL,NA,NA,NA,NA,NA,NA,NA,sd,NA,4,NA,NA,NA,NA,NA,NA,NA,NA,NA,NA,NA,NA,NA,NA,NA,NA,NA,NA,NA
13a8c,check continue,flow.Sequence,5_0_5,NA,NA,skipped,NA,719863.8,NA,NA,719810.7,719863.9,2023-05-05T12:03:23Z,720013.552,NULL,NA,NA,NA,NA,NA,NA,NA,sdf,NA,5,NA,NA,NA,NA,NA,NA,NA,NA,NA,NA,NA,NA,NA,NA,NA,NA,NA,NA,NA
13a8c,check continue,flow.Sequence,5_0_6,NA,NA,skipped,NA,719873.1,NA,NA,719810.7,719873.1,2023-05-05T12:03:23Z,720013.552,NULL,NA,NA,NA,NA,NA,NA,NA,dfs,NA,6,NA,NA,NA,NA,NA,NA,NA,NA,NA,NA,NA,NA,NA,NA,NA,NA,NA,NA,NA
13a8c,check continue,flow.Sequence,5_0_7,NA,NA,skipped,NA,719881.2,NA,NA,719810.7,719881.3,2023-05-05T12:03:23Z,720013.552,NULL,NA,NA,NA,NA,NA,NA,NA,df,NA,7,NA,NA,NA,NA,NA,NA,NA,NA,NA,NA,NA,NA,NA,NA,NA,NA,NA,NA,NA
13a8c,check continue,flow.Sequence,5_0_8,NA,NA,skipped,NA,719889.2,NA,NA,719810.7,719889.2,2023-05-05T12:03:23Z,720013.552,NULL,NA,NA,NA,NA,NA,NA,NA,dfs,NA,8,NA,NA,NA,NA,NA,NA,NA,NA,NA,NA,NA,NA,NA,NA,NA,NA,NA,NA,NA
