observation,sender,sender_type,sender_id,response,response_action,ended_on,duration,time_run,time_render,time_show,time_end,time_commit,timestamp,time_switch,german,swahili,enc,distractor1,distractor2,distractor3,response_2,x,correct,distractors,url_vp,url_sess,meta_labjs_version,meta_location,meta_user_agent,meta_platform,meta_language,meta_locale,meta_time_zone,meta_timezone_offset,meta_screen_width,meta_screen_height,meta_scroll_width,meta_scroll_height,meta_window_inner_width,meta_window_inner_height,meta_device_pixel_ratio,meta_labjs_build_flavor,meta_labjs_build_commit
9ca19,Introduction delayed retrieval,canvas.Screen,0,weiter,keypress(Space),response,1374.72,2515,2527.6,2544.28,3919,3942,2023-03-05T16:57:45Z,3945.24,NA,NA,NA,NA,NA,NA,NA,NA,NA,NULL,115,2,20.2.4,https://neurocog.fernuni.ch/studies/vweber/delayed/index.html?vp=115&sess=2,Mozilla/5.0 (Windows NT 10.0; Win64; x64; rv:109.0) Gecko/20100101 Firefox/110.0,Win32,de,de-CH,Europe/Zurich,-60,1366,768,1366,595,1366,643,1,production,f5b4a49f956347addd546a832a3327688c2c0fef
9ca19,Deep Question,html.Page,1_0_0_0,NA,NA,form submission,14773.76,3945,3944.56,3945.24,18719,18722,2023-03-05T16:58:00Z,18760.18,Erneuerung,ukarabati,s,ushawishi,ukalifu,unyonyaji,m,NA,NA,NULL,NA,NA,NA,NA,NA,NA,NA,NA,NA,NA,NA,NA,NA,NA,NA,NA,NA,NA,NA
9ca19,Save data screen,canvas.Screen,1_0_0_1,NA,NA,timeout,499.98,18740,18704.16,18760.18,19243.5,19246,2023-03-05T16:58:01Z,19260.16,Erneuerung,ukarabati,s,ushawishi,ukalifu,unyonyaji,NA,NA,0,NULL,NA,NA,NA,NA,NA,NA,NA,NA,NA,NA,NA,NA,NA,NA,NA,NA,NA,NA,NA
9ca19,deep,flow.Sequence,1_0_0,NA,NA,completion,15298.26,3944,3944.56,3945.24,19243.5,19250,2023-03-05T16:58:01Z,19260.16,Erneuerung,ukarabati,s,ushawishi,ukalifu,unyonyaji,NA,NA,NA,NULL,NA,NA,NA,NA,NA,NA,NA,NA,NA,NA,NA,NA,NA,NA,NA,NA,NA,NA,NA
9ca19,task,flow.Sequence,1_0,NA,NA,completion,15298.26,3944,3944.56,3945.24,19243.5,19252,2023-03-05T16:58:01Z,19260.16,Erneuerung,ukarabati,s,ushawishi,ukalifu,unyonyaji,NA,NA,NA,NULL,NA,NA,NA,NA,NA,NA,NA,NA,NA,NA,NA,NA,NA,NA,NA,NA,NA,NA,NA
9ca19,Deep Question,html.Page,1_1_0_0,NA,NA,form submission,7346.84,19253,19243.5,19260.16,26607,26609,2023-03-05T16:58:08Z,26609.92,Papier,karatasi,s,uchambuzi,usalama,kukataliwa,m,NA,NA,NULL,NA,NA,NA,NA,NA,NA,NA,NA,NA,NA,NA,NA,NA,NA,NA,NA,NA,NA,NA
9ca19,Save data screen,canvas.Screen,1_1_0_1,NA,NA,timeout,499.86,26616,26603.58,26609.92,27093.12,27095,2023-03-05T16:58:08Z,27109.78,Papier,karatasi,s,uchambuzi,usalama,kukataliwa,NA,NA,0,NULL,NA,NA,NA,NA,NA,NA,NA,NA,NA,NA,NA,NA,NA,NA,NA,NA,NA,NA,NA
9ca19,deep,flow.Sequence,1_1_0,NA,NA,completion,7832.96,19253,19243.5,19260.16,27093.12,27097,2023-03-05T16:58:08Z,27109.78,Papier,karatasi,s,uchambuzi,usalama,kukataliwa,NA,NA,NA,NULL,NA,NA,NA,NA,NA,NA,NA,NA,NA,NA,NA,NA,NA,NA,NA,NA,NA,NA,NA
9ca19,task,flow.Sequence,1_1,NA,NA,completion,7832.96,19252,19243.5,19260.16,27093.12,27099,2023-03-05T16:58:08Z,27109.78,Papier,karatasi,s,uchambuzi,usalama,kukataliwa,NA,NA,NA,NULL,NA,NA,NA,NA,NA,NA,NA,NA,NA,NA,NA,NA,NA,NA,NA,NA,NA,NA,NA
9ca19,Deep Question,html.Page,1_2_0_0,NA,NA,form submission,25260.22,27100,27093.12,27109.78,52370,52370,2023-03-05T16:58:34Z,52375.28,Integrität,uadilifu,s,muungano,mtiririko,upunguaji,mdanganyifu,NA,NA,NULL,NA,NA,NA,NA,NA,NA,NA,NA,NA,NA,NA,NA,NA,NA,NA,NA,NA,NA,NA
9ca19,Save data screen,canvas.Screen,1_2_0_1,NA,NA,timeout,499.98,52377,52367.56,52375.28,52858.6,52860,2023-03-05T16:58:34Z,52875.26,Integrität,uadilifu,s,muungano,mtiririko,upunguaji,NA,NA,0,NULL,NA,NA,NA,NA,NA,NA,NA,NA,NA,NA,NA,NA,NA,NA,NA,NA,NA,NA,NA
9ca19,deep,flow.Sequence,1_2_0,NA,NA,completion,25748.82,27100,27093.12,27109.78,52858.6,52862,2023-03-05T16:58:34Z,52875.26,Integrität,uadilifu,s,muungano,mtiririko,upunguaji,NA,NA,NA,NULL,NA,NA,NA,NA,NA,NA,NA,NA,NA,NA,NA,NA,NA,NA,NA,NA,NA,NA,NA
9ca19,task,flow.Sequence,1_2,NA,NA,completion,25748.82,27100,27093.12,27109.78,52858.6,52864,2023-03-05T16:58:34Z,52875.26,Integrität,uadilifu,s,muungano,mtiririko,upunguaji,NA,NA,NA,NULL,NA,NA,NA,NA,NA,NA,NA,NA,NA,NA,NA,NA,NA,NA,NA,NA,NA,NA,NA
9ca19,Deep Question,html.Page,1_3_0_0,NA,NA,form submission,6052.74,52865,52858.6,52875.26,58928,58929,2023-03-05T16:58:40Z,58941.56,Betrüger,mdanganyifu,d,mwanamuziki,wastani,mahakama,h,NA,NA,NULL,NA,NA,NA,NA,NA,NA,NA,NA,NA,NA,NA,NA,NA,NA,NA,NA,NA,NA,NA
9ca19,Save data screen,canvas.Screen,1_3_0_1,NA,NA,timeout,500.02,58941,58917.22,58941.56,59424.92,59426,2023-03-05T16:58:41Z,59441.58,Betrüger,mdanganyifu,d,mwanamuziki,wastani,mahakama,NA,NA,0,NULL,NA,NA,NA,NA,NA,NA,NA,NA,NA,NA,NA,NA,NA,NA,NA,NA,NA,NA,NA
9ca19,deep,flow.Sequence,1_3_0,NA,NA,completion,6549.66,52865,52858.6,52875.26,59424.92,59428,2023-03-05T16:58:41Z,59441.58,Betrüger,mdanganyifu,d,mwanamuziki,wastani,mahakama,NA,NA,NA,NULL,NA,NA,NA,NA,NA,NA,NA,NA,NA,NA,NA,NA,NA,NA,NA,NA,NA,NA,NA
9ca19,task,flow.Sequence,1_3,NA,NA,completion,6549.66,52865,52858.6,52875.26,59424.92,59429,2023-03-05T16:58:41Z,59441.58,Betrüger,mdanganyifu,d,mwanamuziki,wastani,mahakama,NA,NA,NA,NULL,NA,NA,NA,NA,NA,NA,NA,NA,NA,NA,NA,NA,NA,NA,NA,NA,NA,NA,NA
9ca19,Deep Question,html.Page,1_4_0_0,NA,NA,form submission,10513.42,59431,59424.92,59441.58,69955,69955,2023-03-05T16:58:51Z,69957.74,Wechsel,ugeuzaji,s,utambulisho,kujenga,wasiwasi,django,NA,NA,NULL,NA,NA,NA,NA,NA,NA,NA,NA,NA,NA,NA,NA,NA,NA,NA,NA,NA,NA,NA
9ca19,Save data screen,canvas.Screen,1_4_0_1,NA,NA,timeout,499.95999999999,69962,69952.32,69957.74,70441.04,70443,2023-03-05T16:58:52Z,70457.7,Wechsel,ugeuzaji,s,utambulisho,kujenga,wasiwasi,NA,NA,0,NULL,NA,NA,NA,NA,NA,NA,NA,NA,NA,NA,NA,NA,NA,NA,NA,NA,NA,NA,NA
9ca19,deep,flow.Sequence,1_4_0,NA,NA,completion,10999.46,59430,59424.92,59441.58,70441.04,70443,2023-03-05T16:58:52Z,70457.7,Wechsel,ugeuzaji,s,utambulisho,kujenga,wasiwasi,NA,NA,NA,NULL,NA,NA,NA,NA,NA,NA,NA,NA,NA,NA,NA,NA,NA,NA,NA,NA,NA,NA,NA
9ca19,task,flow.Sequence,1_4,NA,NA,completion,10999.46,59430,59424.92,59441.58,70441.04,70444,2023-03-05T16:58:52Z,70457.7,Wechsel,ugeuzaji,s,utambulisho,kujenga,wasiwasi,NA,NA,NA,NULL,NA,NA,NA,NA,NA,NA,NA,NA,NA,NA,NA,NA,NA,NA,NA,NA,NA,NA,NA
9ca19,Deep Question,html.Page,1_5_0_0,NA,NA,form submission,13326.3,70445,70441.04,70457.7,83784,83788,2023-03-05T16:59:05Z,83807.02,Flexibilität,kubadilika,d,enjini,usikilivu,hesabu,akarabiti,NA,NA,NULL,NA,NA,NA,NA,NA,NA,NA,NA,NA,NA,NA,NA,NA,NA,NA,NA,NA,NA,NA
9ca19,Save data screen,canvas.Screen,1_5_0_1,NA,NA,timeout,500.01999999999,83805,83772.58,83807.02,84290.38,84293,2023-03-05T16:59:06Z,84307.04,Flexibilität,kubadilika,d,enjini,usikilivu,hesabu,NA,NA,0,NULL,NA,NA,NA,NA,NA,NA,NA,NA,NA,NA,NA,NA,NA,NA,NA,NA,NA,NA,NA
9ca19,deep,flow.Sequence,1_5_0,NA,NA,completion,13832.68,70445,70441.04,70457.7,84290.38,84297,2023-03-05T16:59:06Z,84307.04,Flexibilität,kubadilika,d,enjini,usikilivu,hesabu,NA,NA,NA,NULL,NA,NA,NA,NA,NA,NA,NA,NA,NA,NA,NA,NA,NA,NA,NA,NA,NA,NA,NA
9ca19,task,flow.Sequence,1_5,NA,NA,completion,13832.68,70445,70441.04,70457.7,84290.38,84299,2023-03-05T16:59:06Z,84307.04,Flexibilität,kubadilika,d,enjini,usikilivu,hesabu,NA,NA,NA,NULL,NA,NA,NA,NA,NA,NA,NA,NA,NA,NA,NA,NA,NA,NA,NA,NA,NA,NA,NA
9ca19,Deep Question,html.Page,1_6_0_0,NA,NA,form submission,16806.96,84302,84290.38,84307.04,101114,101115,2023-03-05T16:59:22Z,101122.86,Begegnung,kukutana,d,mmasihiya,mpiganaji,husiano,k,NA,NA,NULL,NA,NA,NA,NA,NA,NA,NA,NA,NA,NA,NA,NA,NA,NA,NA,NA,NA,NA,NA
9ca19,Save data screen,canvas.Screen,1_6_0_1,NA,NA,timeout,500.03999999999,101124,101107.76,101122.86,101606.24,101608,2023-03-05T16:59:23Z,101622.9,Begegnung,kukutana,d,mmasihiya,mpiganaji,husiano,NA,NA,0,NULL,NA,NA,NA,NA,NA,NA,NA,NA,NA,NA,NA,NA,NA,NA,NA,NA,NA,NA,NA
9ca19,deep,flow.Sequence,1_6_0,NA,NA,completion,17299.2,84301,84290.38,84307.04,101606.24,101610,2023-03-05T16:59:23Z,101622.9,Begegnung,kukutana,d,mmasihiya,mpiganaji,husiano,NA,NA,NA,NULL,NA,NA,NA,NA,NA,NA,NA,NA,NA,NA,NA,NA,NA,NA,NA,NA,NA,NA,NA
9ca19,task,flow.Sequence,1_6,NA,NA,completion,17299.2,84301,84290.38,84307.04,101606.24,101613,2023-03-05T16:59:23Z,101622.9,Begegnung,kukutana,d,mmasihiya,mpiganaji,husiano,NA,NA,NA,NULL,NA,NA,NA,NA,NA,NA,NA,NA,NA,NA,NA,NA,NA,NA,NA,NA,NA,NA,NA
9ca19,Deep Question,html.Page,1_7_0_0,NA,NA,form submission,18331.1,101614,101606.24,101622.9,119954,119955,2023-03-05T16:59:41Z,119955.36,Fleisch,mshakiki,s,kizunguzungu,mshikamano,angusho,mkikiti,NA,NA,NULL,NA,NA,NA,NA,NA,NA,NA,NA,NA,NA,NA,NA,NA,NA,NA,NA,NA,NA,NA
9ca19,Save data screen,canvas.Screen,1_7_0_1,NA,NA,timeout,499.96000000001,119962,119947.44,119955.36,120438.66,120440,2023-03-05T16:59:42Z,120455.32,Fleisch,mshakiki,s,kizunguzungu,mshikamano,angusho,NA,NA,0,NULL,NA,NA,NA,NA,NA,NA,NA,NA,NA,NA,NA,NA,NA,NA,NA,NA,NA,NA,NA
9ca19,deep,flow.Sequence,1_7_0,NA,NA,completion,18815.76,101613,101606.24,101622.9,120438.66,120443,2023-03-05T16:59:42Z,120455.32,Fleisch,mshakiki,s,kizunguzungu,mshikamano,angusho,NA,NA,NA,NULL,NA,NA,NA,NA,NA,NA,NA,NA,NA,NA,NA,NA,NA,NA,NA,NA,NA,NA,NA
9ca19,task,flow.Sequence,1_7,NA,NA,completion,18815.76,101613,101606.24,101622.9,120438.66,120445,2023-03-05T16:59:42Z,120455.32,Fleisch,mshakiki,s,kizunguzungu,mshikamano,angusho,NA,NA,NA,NULL,NA,NA,NA,NA,NA,NA,NA,NA,NA,NA,NA,NA,NA,NA,NA,NA,NA,NA,NA
9ca19,Deep Question,html.Page,1_8_0_0,NA,NA,form submission,11852.68,120446,120438.66,120455.32,132308,132309,2023-03-05T16:59:54Z,132321.44,Niveau,kiwango,s,usimamizi,mwamali,mshairi,ushababe,NA,NA,NULL,NA,NA,NA,NA,NA,NA,NA,NA,NA,NA,NA,NA,NA,NA,NA,NA,NA,NA,NA
9ca19,Save data screen,canvas.Screen,1_8_0_1,NA,NA,timeout,500.06,132317,132304.22,132321.44,132804.82,132807,2023-03-05T16:59:54Z,132821.5,Niveau,kiwango,s,usimamizi,mwamali,mshairi,NA,NA,0,NULL,NA,NA,NA,NA,NA,NA,NA,NA,NA,NA,NA,NA,NA,NA,NA,NA,NA,NA,NA
9ca19,deep,flow.Sequence,1_8_0,NA,NA,completion,12349.5,120446,120438.66,120455.32,132804.82,132808,2023-03-05T16:59:54Z,132821.5,Niveau,kiwango,s,usimamizi,mwamali,mshairi,NA,NA,NA,NULL,NA,NA,NA,NA,NA,NA,NA,NA,NA,NA,NA,NA,NA,NA,NA,NA,NA,NA,NA
9ca19,task,flow.Sequence,1_8,NA,NA,completion,12349.5,120445,120438.66,120455.32,132804.82,132809,2023-03-05T16:59:54Z,132821.5,Niveau,kiwango,s,usimamizi,mwamali,mshairi,NA,NA,NA,NULL,NA,NA,NA,NA,NA,NA,NA,NA,NA,NA,NA,NA,NA,NA,NA,NA,NA,NA,NA
9ca19,Deep Question,html.Page,1_9_0_0,NA,NA,form submission,7314.5,132809,132804.82,132821.5,140136,140139,2023-03-05T17:00:01Z,140154.34,Respekt,heshima,s,changamnao,upinzani,ufanisi,m,NA,NA,NULL,NA,NA,NA,NA,NA,NA,NA,NA,NA,NA,NA,NA,NA,NA,NA,NA,NA,NA,NA
9ca19,Save data screen,canvas.Screen,1_9_0_1,NA,NA,timeout,500.01999999999,140156,140127.54,140154.34,140637.68,140639,2023-03-05T17:00:02Z,140654.36,Respekt,heshima,s,changamnao,upinzani,ufanisi,NA,NA,0,NULL,NA,NA,NA,NA,NA,NA,NA,NA,NA,NA,NA,NA,NA,NA,NA,NA,NA,NA,NA
9ca19,deep,flow.Sequence,1_9_0,NA,NA,completion,7816.18,132809,132804.82,132821.5,140637.68,140641,2023-03-05T17:00:02Z,140654.36,Respekt,heshima,s,changamnao,upinzani,ufanisi,NA,NA,NA,NULL,NA,NA,NA,NA,NA,NA,NA,NA,NA,NA,NA,NA,NA,NA,NA,NA,NA,NA,NA
9ca19,task,flow.Sequence,1_9,NA,NA,completion,7816.18,132809,132804.82,132821.5,140637.68,140643,2023-03-05T17:00:02Z,140654.36,Respekt,heshima,s,changamnao,upinzani,ufanisi,NA,NA,NA,NULL,NA,NA,NA,NA,NA,NA,NA,NA,NA,NA,NA,NA,NA,NA,NA,NA,NA,NA,NA
9ca19,Deep Question,html.Page,1_10_0_0,NA,NA,form submission,11432.64,140646,140637.68,140654.36,152087,152088,2023-03-05T17:00:13Z,152103.76,Stimmung,kinyongo,d,kilekile,kisambo,madhehebu,kinyongo,NA,NA,NULL,NA,NA,NA,NA,NA,NA,NA,NA,NA,NA,NA,NA,NA,NA,NA,NA,NA,NA,NA
9ca19,Save data screen,canvas.Screen,1_10_0_1,NA,NA,timeout,500,152101,152077.88,152103.76,152587.12,152590,2023-03-05T17:00:14Z,152603.76,Stimmung,kinyongo,d,kilekile,kisambo,madhehebu,NA,NA,1,NULL,NA,NA,NA,NA,NA,NA,NA,NA,NA,NA,NA,NA,NA,NA,NA,NA,NA,NA,NA
9ca19,deep,flow.Sequence,1_10_0,NA,NA,completion,11932.76,140645,140637.68,140654.36,152587.12,152591,2023-03-05T17:00:14Z,152603.76,Stimmung,kinyongo,d,kilekile,kisambo,madhehebu,NA,NA,NA,NULL,NA,NA,NA,NA,NA,NA,NA,NA,NA,NA,NA,NA,NA,NA,NA,NA,NA,NA,NA
9ca19,task,flow.Sequence,1_10,NA,NA,completion,11932.76,140644,140637.68,140654.36,152587.12,152593,2023-03-05T17:00:14Z,152603.76,Stimmung,kinyongo,d,kilekile,kisambo,madhehebu,NA,NA,NA,NULL,NA,NA,NA,NA,NA,NA,NA,NA,NA,NA,NA,NA,NA,NA,NA,NA,NA,NA,NA
9ca19,Deep Question,html.Page,1_11_0_0,NA,NA,form submission,10690.24,152594,152587.12,152603.76,163294,163295,2023-03-05T17:00:25Z,163303.24,Genehmigung,idhini,d,mwanamke,itikadi,fedheha,kudhibiti,NA,NA,NULL,NA,NA,NA,NA,NA,NA,NA,NA,NA,NA,NA,NA,NA,NA,NA,NA,NA,NA,NA
9ca19,Save data screen,canvas.Screen,1_11_0_1,NA,NA,timeout,500,163301,163287.66,163303.24,163786.58,163787,2023-03-05T17:00:25Z,163803.24,Genehmigung,idhini,d,mwanamke,itikadi,fedheha,NA,NA,0,NULL,NA,NA,NA,NA,NA,NA,NA,NA,NA,NA,NA,NA,NA,NA,NA,NA,NA,NA,NA
9ca19,deep,flow.Sequence,1_11_0,NA,NA,completion,11182.82,152594,152587.12,152603.76,163786.58,163790,2023-03-05T17:00:25Z,163803.24,Genehmigung,idhini,d,mwanamke,itikadi,fedheha,NA,NA,NA,NULL,NA,NA,NA,NA,NA,NA,NA,NA,NA,NA,NA,NA,NA,NA,NA,NA,NA,NA,NA
9ca19,task,flow.Sequence,1_11,NA,NA,completion,11182.82,152594,152587.12,152603.76,163786.58,163793,2023-03-05T17:00:25Z,163803.24,Genehmigung,idhini,d,mwanamke,itikadi,fedheha,NA,NA,NA,NULL,NA,NA,NA,NA,NA,NA,NA,NA,NA,NA,NA,NA,NA,NA,NA,NA,NA,NA,NA
9ca19,Deep Question,html.Page,1_12_0_0,NA,NA,form submission,6288.76,163795,163786.58,163803.24,170092,170093,2023-03-05T17:00:31Z,170102.9,Orientierung,urekebisho,s,uelekeo,marekebisho,utunzaji,m,NA,NA,NULL,NA,NA,NA,NA,NA,NA,NA,NA,NA,NA,NA,NA,NA,NA,NA,NA,NA,NA,NA
9ca19,Save data screen,canvas.Screen,1_12_0_1,NA,NA,timeout,500.02000000002,170100,170087.14,170102.9,170586.26,170587,2023-03-05T17:00:32Z,170602.92,Orientierung,urekebisho,s,uelekeo,marekebisho,utunzaji,NA,NA,0,NULL,NA,NA,NA,NA,NA,NA,NA,NA,NA,NA,NA,NA,NA,NA,NA,NA,NA,NA,NA
9ca19,deep,flow.Sequence,1_12_0,NA,NA,completion,6783.02,163795,163786.58,163803.24,170586.26,170589,2023-03-05T17:00:32Z,170602.92,Orientierung,urekebisho,s,uelekeo,marekebisho,utunzaji,NA,NA,NA,NULL,NA,NA,NA,NA,NA,NA,NA,NA,NA,NA,NA,NA,NA,NA,NA,NA,NA,NA,NA
9ca19,task,flow.Sequence,1_12,NA,NA,completion,6783.02,163794,163786.58,163803.24,170586.26,170589,2023-03-05T17:00:32Z,170602.92,Orientierung,urekebisho,s,uelekeo,marekebisho,utunzaji,NA,NA,NA,NULL,NA,NA,NA,NA,NA,NA,NA,NA,NA,NA,NA,NA,NA,NA,NA,NA,NA,NA,NA
9ca19,Deep Question,html.Page,1_13_0_0,NA,NA,form submission,4607.08,170591,170586.26,170602.92,175210,175211,2023-03-05T17:00:37Z,175219.36,Vorwurf,mashtaka,d,msukumo,mtangulizi,uenyekiti,m,NA,NA,NULL,NA,NA,NA,NA,NA,NA,NA,NA,NA,NA,NA,NA,NA,NA,NA,NA,NA,NA,NA
9ca19,Save data screen,canvas.Screen,1_13_0_1,NA,NA,timeout,499.94,175216,175205.04,175219.36,175702.62,175704,2023-03-05T17:00:37Z,175719.3,Vorwurf,mashtaka,d,msukumo,mtangulizi,uenyekiti,NA,NA,0,NULL,NA,NA,NA,NA,NA,NA,NA,NA,NA,NA,NA,NA,NA,NA,NA,NA,NA,NA,NA
9ca19,deep,flow.Sequence,1_13_0,NA,NA,completion,5099.7,170591,170586.26,170602.92,175702.62,175706,2023-03-05T17:00:37Z,175719.3,Vorwurf,mashtaka,d,msukumo,mtangulizi,uenyekiti,NA,NA,NA,NULL,NA,NA,NA,NA,NA,NA,NA,NA,NA,NA,NA,NA,NA,NA,NA,NA,NA,NA,NA
9ca19,task,flow.Sequence,1_13,NA,NA,completion,5099.7,170591,170586.26,170602.92,175702.62,175708,2023-03-05T17:00:37Z,175719.3,Vorwurf,mashtaka,d,msukumo,mtangulizi,uenyekiti,NA,NA,NA,NULL,NA,NA,NA,NA,NA,NA,NA,NA,NA,NA,NA,NA,NA,NA,NA,NA,NA,NA,NA
9ca19,Deep Question,html.Page,1_14_0_0,NA,NA,form submission,12765.7,175709,175702.62,175719.3,188485,188488,2023-03-05T17:00:50Z,188502.08,Atmosphäre,angahewa,d,kuteseka,usahihi,kutoamini,angakuda,NA,NA,NULL,NA,NA,NA,NA,NA,NA,NA,NA,NA,NA,NA,NA,NA,NA,NA,NA,NA,NA,NA
9ca19,Save data screen,canvas.Screen,1_14_0_1,NA,NA,timeout,499.96000000002,188505,188473.18,188502.08,188985.38,188988,2023-03-05T17:00:50Z,189002.04,Atmosphäre,angahewa,d,kuteseka,usahihi,kutoamini,NA,NA,0,NULL,NA,NA,NA,NA,NA,NA,NA,NA,NA,NA,NA,NA,NA,NA,NA,NA,NA,NA,NA
9ca19,deep,flow.Sequence,1_14_0,NA,NA,completion,13266.08,175709,175702.62,175719.3,188985.38,188989,2023-03-05T17:00:50Z,189002.04,Atmosphäre,angahewa,d,kuteseka,usahihi,kutoamini,NA,NA,NA,NULL,NA,NA,NA,NA,NA,NA,NA,NA,NA,NA,NA,NA,NA,NA,NA,NA,NA,NA,NA
9ca19,task,flow.Sequence,1_14,NA,NA,completion,13266.08,175708,175702.62,175719.3,188985.38,188992,2023-03-05T17:00:50Z,189002.04,Atmosphäre,angahewa,d,kuteseka,usahihi,kutoamini,NA,NA,NA,NULL,NA,NA,NA,NA,NA,NA,NA,NA,NA,NA,NA,NA,NA,NA,NA,NA,NA,NA,NA
9ca19,Deep Question,html.Page,1_15_0_0,NA,NA,form submission,4881.96,188993,188985.38,189002.04,193884,193887,2023-03-05T17:00:55Z,193918.42,Entwicklung,maendeleo,d,uangavu,mshindwa,badiliko,k,NA,NA,NULL,NA,NA,NA,NA,NA,NA,NA,NA,NA,NA,NA,NA,NA,NA,NA,NA,NA,NA,NA
9ca19,Save data screen,canvas.Screen,1_15_0_1,NA,NA,timeout,516.67999999999,193908,193872.62,193918.42,194401.78,194404,2023-03-05T17:00:56Z,194435.1,Entwicklung,maendeleo,d,uangavu,mshindwa,badiliko,NA,NA,0,NULL,NA,NA,NA,NA,NA,NA,NA,NA,NA,NA,NA,NA,NA,NA,NA,NA,NA,NA,NA
9ca19,deep,flow.Sequence,1_15_0,NA,NA,completion,5399.74,188993,188985.38,189002.04,194401.78,194405,2023-03-05T17:00:56Z,194435.1,Entwicklung,maendeleo,d,uangavu,mshindwa,badiliko,NA,NA,NA,NULL,NA,NA,NA,NA,NA,NA,NA,NA,NA,NA,NA,NA,NA,NA,NA,NA,NA,NA,NA
9ca19,task,flow.Sequence,1_15,NA,NA,completion,5399.74,188992,188985.38,189002.04,194401.78,194410,2023-03-05T17:00:56Z,194435.1,Entwicklung,maendeleo,d,uangavu,mshindwa,badiliko,NA,NA,NA,NULL,NA,NA,NA,NA,NA,NA,NA,NA,NA,NA,NA,NA,NA,NA,NA,NA,NA,NA,NA
9ca19,retrieval block 1 (cued recall),flow.Loop,1,NA,NA,completion,190456.54,3944,3944.56,3945.24,194401.78,194411,2023-03-05T17:00:56Z,194435.1,NA,NA,NA,NA,NA,NA,NA,NA,NA,NULL,NA,NA,NA,NA,NA,NA,NA,NA,NA,NA,NA,NA,NA,NA,NA,NA,NA,NA,NA
9ca19,Shallow Question,html.Page,2_0_0_0,NA,NA,form submission,14108.9,194414,194401.78,194435.1,208544,208545,2023-03-05T17:01:10Z,208551.1,Vorwurf,mashtaka,d,msukumo,mtangulizi,uenyekiti,mtangulizi,NA,NA,"c(""distractor1"", ""distractor2"", ""distractor3"")",NA,NA,NA,NA,NA,NA,NA,NA,NA,NA,NA,NA,NA,NA,NA,NA,NA,NA,NA
9ca19,Save data screen,canvas.Screen,2_0_0_1,NA,NA,timeout,499.97999999998,208554,208537.28,208551.1,209034.42,209037,2023-03-05T17:01:10Z,209051.08,Vorwurf,mashtaka,d,msukumo,mtangulizi,uenyekiti,NA,NA,0,"c(""distractor1"", ""distractor2"", ""distractor3"")",NA,NA,NA,NA,NA,NA,NA,NA,NA,NA,NA,NA,NA,NA,NA,NA,NA,NA,NA
9ca19,shallow,flow.Sequence,2_0_0,NA,NA,completion,14599.32,194413,194401.78,194435.1,209034.42,209039,2023-03-05T17:01:10Z,209051.08,Vorwurf,mashtaka,d,msukumo,mtangulizi,uenyekiti,NA,NA,NA,"c(""distractor1"", ""distractor2"", ""distractor3"")",NA,NA,NA,NA,NA,NA,NA,NA,NA,NA,NA,NA,NA,NA,NA,NA,NA,NA,NA
9ca19,task,flow.Sequence,2_0,NA,NA,completion,14599.32,194413,194401.78,194435.1,209034.42,209040,2023-03-05T17:01:10Z,209051.08,Vorwurf,mashtaka,d,msukumo,mtangulizi,uenyekiti,NA,NA,NA,"c(""distractor1"", ""distractor2"", ""distractor3"")",NA,NA,NA,NA,NA,NA,NA,NA,NA,NA,NA,NA,NA,NA,NA,NA,NA,NA,NA
9ca19,Shallow Question,html.Page,2_1_0_0,NA,NA,form submission,8551.92,209041,209034.42,209051.08,217603,217604,2023-03-05T17:01:19Z,217617.3,Genehmigung,idhini,d,mwanamke,itikadi,fedheha,idhini,NA,NA,"c(""distractor1"", ""distractor2"", ""distractor3"")",NA,NA,NA,NA,NA,NA,NA,NA,NA,NA,NA,NA,NA,NA,NA,NA,NA,NA,NA
9ca19,Save data screen,canvas.Screen,2_1_0_1,NA,NA,timeout,500,217609,217597.28,217617.3,218100.64,218102,2023-03-05T17:01:19Z,218117.3,Genehmigung,idhini,d,mwanamke,itikadi,fedheha,NA,NA,1,"c(""distractor1"", ""distractor2"", ""distractor3"")",NA,NA,NA,NA,NA,NA,NA,NA,NA,NA,NA,NA,NA,NA,NA,NA,NA,NA,NA
9ca19,shallow,flow.Sequence,2_1_0,NA,NA,completion,9049.56,209041,209034.42,209051.08,218100.64,218103,2023-03-05T17:01:19Z,218117.3,Genehmigung,idhini,d,mwanamke,itikadi,fedheha,NA,NA,NA,"c(""distractor1"", ""distractor2"", ""distractor3"")",NA,NA,NA,NA,NA,NA,NA,NA,NA,NA,NA,NA,NA,NA,NA,NA,NA,NA,NA
9ca19,task,flow.Sequence,2_1,NA,NA,completion,9049.56,209041,209034.42,209051.08,218100.64,218105,2023-03-05T17:01:19Z,218117.3,Genehmigung,idhini,d,mwanamke,itikadi,fedheha,NA,NA,NA,"c(""distractor1"", ""distractor2"", ""distractor3"")",NA,NA,NA,NA,NA,NA,NA,NA,NA,NA,NA,NA,NA,NA,NA,NA,NA,NA,NA
9ca19,Shallow Question,html.Page,2_2_0_0,NA,NA,form submission,11130.7,218107,218100.64,218117.3,229248,229249,2023-03-05T17:01:31Z,229250.1,Flexibilität,kubadilika,d,enjini,usikilivu,hesabu,usikilivu,NA,NA,"c(""distractor1"", ""distractor2"", ""distractor3"")",NA,NA,NA,NA,NA,NA,NA,NA,NA,NA,NA,NA,NA,NA,NA,NA,NA,NA,NA
9ca19,Save data screen,canvas.Screen,2_2_0_1,NA,NA,timeout,500,229255,229242.54,229250.1,229733.42,229734,2023-03-05T17:01:31Z,229750.1,Flexibilität,kubadilika,d,enjini,usikilivu,hesabu,NA,NA,0,"c(""distractor1"", ""distractor2"", ""distractor3"")",NA,NA,NA,NA,NA,NA,NA,NA,NA,NA,NA,NA,NA,NA,NA,NA,NA,NA,NA
9ca19,shallow,flow.Sequence,2_2_0,NA,NA,completion,11616.12,218107,218100.64,218117.3,229733.42,229737,2023-03-05T17:01:31Z,229750.1,Flexibilität,kubadilika,d,enjini,usikilivu,hesabu,NA,NA,NA,"c(""distractor1"", ""distractor2"", ""distractor3"")",NA,NA,NA,NA,NA,NA,NA,NA,NA,NA,NA,NA,NA,NA,NA,NA,NA,NA,NA
9ca19,task,flow.Sequence,2_2,NA,NA,completion,11616.12,218107,218100.64,218117.3,229733.42,229739,2023-03-05T17:01:31Z,229750.1,Flexibilität,kubadilika,d,enjini,usikilivu,hesabu,NA,NA,NA,"c(""distractor1"", ""distractor2"", ""distractor3"")",NA,NA,NA,NA,NA,NA,NA,NA,NA,NA,NA,NA,NA,NA,NA,NA,NA,NA,NA
9ca19,Shallow Question,html.Page,2_3_0_0,NA,NA,form submission,6313.9,229741,229733.42,229750.1,236064,236065,2023-03-05T17:01:37Z,236066.46,Papier,karatasi,s,uchambuzi,usalama,kukataliwa,karatasi,NA,NA,"c(""distractor1"", ""distractor2"", ""distractor3"")",NA,NA,NA,NA,NA,NA,NA,NA,NA,NA,NA,NA,NA,NA,NA,NA,NA,NA,NA
9ca19,Save data screen,canvas.Screen,2_3_0_1,NA,NA,timeout,499.96000000002,236069,236057.42,236066.46,236549.76,236551,2023-03-05T17:01:38Z,236566.42,Papier,karatasi,s,uchambuzi,usalama,kukataliwa,NA,NA,1,"c(""distractor1"", ""distractor2"", ""distractor3"")",NA,NA,NA,NA,NA,NA,NA,NA,NA,NA,NA,NA,NA,NA,NA,NA,NA,NA,NA
9ca19,shallow,flow.Sequence,2_3_0,NA,NA,completion,6799.66,229741,229733.42,229750.1,236549.76,236552,2023-03-05T17:01:38Z,236566.42,Papier,karatasi,s,uchambuzi,usalama,kukataliwa,NA,NA,NA,"c(""distractor1"", ""distractor2"", ""distractor3"")",NA,NA,NA,NA,NA,NA,NA,NA,NA,NA,NA,NA,NA,NA,NA,NA,NA,NA,NA
9ca19,task,flow.Sequence,2_3,NA,NA,completion,6799.66,229741,229733.42,229750.1,236549.76,236555,2023-03-05T17:01:38Z,236566.42,Papier,karatasi,s,uchambuzi,usalama,kukataliwa,NA,NA,NA,"c(""distractor1"", ""distractor2"", ""distractor3"")",NA,NA,NA,NA,NA,NA,NA,NA,NA,NA,NA,NA,NA,NA,NA,NA,NA,NA,NA
9ca19,Shallow Question,html.Page,2_4_0_0,NA,NA,form submission,7138.58,236557,236549.76,236566.42,243705,243705,2023-03-05T17:01:45Z,243716.1,Erneuerung,ukarabati,s,ushawishi,ukalifu,unyonyaji,ukalifu,NA,NA,"c(""distractor1"", ""distractor2"", ""distractor3"")",NA,NA,NA,NA,NA,NA,NA,NA,NA,NA,NA,NA,NA,NA,NA,NA,NA,NA,NA
9ca19,Save data screen,canvas.Screen,2_4_0_1,NA,NA,timeout,499.95999999999,243711,243697.38,243716.1,244199.4,244200,2023-03-05T17:01:45Z,244216.06,Erneuerung,ukarabati,s,ushawishi,ukalifu,unyonyaji,NA,NA,0,"c(""distractor1"", ""distractor2"", ""distractor3"")",NA,NA,NA,NA,NA,NA,NA,NA,NA,NA,NA,NA,NA,NA,NA,NA,NA,NA,NA
9ca19,shallow,flow.Sequence,2_4_0,NA,NA,completion,7632.98,236557,236549.76,236566.42,244199.4,244201,2023-03-05T17:01:45Z,244216.06,Erneuerung,ukarabati,s,ushawishi,ukalifu,unyonyaji,NA,NA,NA,"c(""distractor1"", ""distractor2"", ""distractor3"")",NA,NA,NA,NA,NA,NA,NA,NA,NA,NA,NA,NA,NA,NA,NA,NA,NA,NA,NA
9ca19,task,flow.Sequence,2_4,NA,NA,completion,7632.98,236557,236549.76,236566.42,244199.4,244202,2023-03-05T17:01:45Z,244216.06,Erneuerung,ukarabati,s,ushawishi,ukalifu,unyonyaji,NA,NA,NA,"c(""distractor1"", ""distractor2"", ""distractor3"")",NA,NA,NA,NA,NA,NA,NA,NA,NA,NA,NA,NA,NA,NA,NA,NA,NA,NA,NA
9ca19,Shallow Question,html.Page,2_5_0_0,NA,NA,form submission,7014.94,244205,244199.4,244216.06,251231,251232,2023-03-05T17:01:53Z,251232.42,Entwicklung,maendeleo,d,uangavu,mshindwa,badiliko,maendeleo,NA,NA,"c(""distractor1"", ""distractor2"", ""distractor3"")",NA,NA,NA,NA,NA,NA,NA,NA,NA,NA,NA,NA,NA,NA,NA,NA,NA,NA,NA
9ca19,Save data screen,canvas.Screen,2_5_0_1,NA,NA,timeout,499.95999999999,251238,251227.24,251232.42,251715.7,251717,2023-03-05T17:01:53Z,251732.38,Entwicklung,maendeleo,d,uangavu,mshindwa,badiliko,NA,NA,1,"c(""distractor1"", ""distractor2"", ""distractor3"")",NA,NA,NA,NA,NA,NA,NA,NA,NA,NA,NA,NA,NA,NA,NA,NA,NA,NA,NA
9ca19,shallow,flow.Sequence,2_5_0,NA,NA,completion,7499.64,244205,244199.4,244216.06,251715.7,251718,2023-03-05T17:01:53Z,251732.38,Entwicklung,maendeleo,d,uangavu,mshindwa,badiliko,NA,NA,NA,"c(""distractor1"", ""distractor2"", ""distractor3"")",NA,NA,NA,NA,NA,NA,NA,NA,NA,NA,NA,NA,NA,NA,NA,NA,NA,NA,NA
9ca19,task,flow.Sequence,2_5,NA,NA,completion,7499.64,244203,244199.4,244216.06,251715.7,251719,2023-03-05T17:01:53Z,251732.38,Entwicklung,maendeleo,d,uangavu,mshindwa,badiliko,NA,NA,NA,"c(""distractor1"", ""distractor2"", ""distractor3"")",NA,NA,NA,NA,NA,NA,NA,NA,NA,NA,NA,NA,NA,NA,NA,NA,NA,NA,NA
9ca19,Shallow Question,html.Page,2_6_0_0,NA,NA,form submission,7960.62,251722,251715.7,251732.38,259693,259693,2023-03-05T17:02:01Z,259698.66,Respekt,heshima,s,changamnao,upinzani,ufanisi,heshima,NA,NA,"c(""distractor1"", ""distractor2"", ""distractor3"")",NA,NA,NA,NA,NA,NA,NA,NA,NA,NA,NA,NA,NA,NA,NA,NA,NA,NA,NA
9ca19,Save data screen,canvas.Screen,2_6_0_1,NA,NA,timeout,500.01999999999,259700,259688.04,259698.66,260182,260184,2023-03-05T17:02:01Z,260198.68,Respekt,heshima,s,changamnao,upinzani,ufanisi,NA,NA,1,"c(""distractor1"", ""distractor2"", ""distractor3"")",NA,NA,NA,NA,NA,NA,NA,NA,NA,NA,NA,NA,NA,NA,NA,NA,NA,NA,NA
9ca19,shallow,flow.Sequence,2_6_0,NA,NA,completion,8449.62,251722,251715.7,251732.38,260182,260187,2023-03-05T17:02:01Z,260198.68,Respekt,heshima,s,changamnao,upinzani,ufanisi,NA,NA,NA,"c(""distractor1"", ""distractor2"", ""distractor3"")",NA,NA,NA,NA,NA,NA,NA,NA,NA,NA,NA,NA,NA,NA,NA,NA,NA,NA,NA
9ca19,task,flow.Sequence,2_6,NA,NA,completion,8449.62,251722,251715.7,251732.38,260182,260189,2023-03-05T17:02:01Z,260198.68,Respekt,heshima,s,changamnao,upinzani,ufanisi,NA,NA,NA,"c(""distractor1"", ""distractor2"", ""distractor3"")",NA,NA,NA,NA,NA,NA,NA,NA,NA,NA,NA,NA,NA,NA,NA,NA,NA,NA,NA
9ca19,Shallow Question,html.Page,2_7_0_0,NA,NA,form submission,5704.32,260193,260182,260198.68,265903,265904,2023-03-05T17:02:07Z,265914.98,Orientierung,urekebisho,s,uelekeo,marekebisho,utunzaji,urekebisho,NA,NA,"c(""distractor1"", ""distractor2"", ""distractor3"")",NA,NA,NA,NA,NA,NA,NA,NA,NA,NA,NA,NA,NA,NA,NA,NA,NA,NA,NA
9ca19,Save data screen,canvas.Screen,2_7_0_1,NA,NA,timeout,500.04000000004,265909,265897.16,265914.98,266398.36,266399,2023-03-05T17:02:08Z,266415.02,Orientierung,urekebisho,s,uelekeo,marekebisho,utunzaji,NA,NA,1,"c(""distractor1"", ""distractor2"", ""distractor3"")",NA,NA,NA,NA,NA,NA,NA,NA,NA,NA,NA,NA,NA,NA,NA,NA,NA,NA,NA
9ca19,shallow,flow.Sequence,2_7_0,NA,NA,completion,6199.68,260193,260182,260198.68,266398.36,266400,2023-03-05T17:02:08Z,266415.02,Orientierung,urekebisho,s,uelekeo,marekebisho,utunzaji,NA,NA,NA,"c(""distractor1"", ""distractor2"", ""distractor3"")",NA,NA,NA,NA,NA,NA,NA,NA,NA,NA,NA,NA,NA,NA,NA,NA,NA,NA,NA
9ca19,task,flow.Sequence,2_7,NA,NA,completion,6199.68,260192,260182,260198.68,266398.36,266401,2023-03-05T17:02:08Z,266415.02,Orientierung,urekebisho,s,uelekeo,marekebisho,utunzaji,NA,NA,NA,"c(""distractor1"", ""distractor2"", ""distractor3"")",NA,NA,NA,NA,NA,NA,NA,NA,NA,NA,NA,NA,NA,NA,NA,NA,NA,NA,NA
9ca19,Shallow Question,html.Page,2_8_0_0,NA,NA,form submission,11606.98,266404,266398.36,266415.02,278022,278023,2023-03-05T17:02:19Z,278031.12,Niveau,kiwango,s,usimamizi,mwamali,mshairi,mwamali,NA,NA,"c(""distractor1"", ""distractor2"", ""distractor3"")",NA,NA,NA,NA,NA,NA,NA,NA,NA,NA,NA,NA,NA,NA,NA,NA,NA,NA,NA
9ca19,Save data screen,canvas.Screen,2_8_0_1,NA,NA,timeout,499.96000000002,278030,278017.44,278031.12,278514.42,278516,2023-03-05T17:02:20Z,278531.08,Niveau,kiwango,s,usimamizi,mwamali,mshairi,NA,NA,0,"c(""distractor1"", ""distractor2"", ""distractor3"")",NA,NA,NA,NA,NA,NA,NA,NA,NA,NA,NA,NA,NA,NA,NA,NA,NA,NA,NA
9ca19,shallow,flow.Sequence,2_8_0,NA,NA,completion,12099.4,266404,266398.36,266415.02,278514.42,278517,2023-03-05T17:02:20Z,278531.08,Niveau,kiwango,s,usimamizi,mwamali,mshairi,NA,NA,NA,"c(""distractor1"", ""distractor2"", ""distractor3"")",NA,NA,NA,NA,NA,NA,NA,NA,NA,NA,NA,NA,NA,NA,NA,NA,NA,NA,NA
9ca19,task,flow.Sequence,2_8,NA,NA,completion,12099.4,266402,266398.36,266415.02,278514.42,278519,2023-03-05T17:02:20Z,278531.08,Niveau,kiwango,s,usimamizi,mwamali,mshairi,NA,NA,NA,"c(""distractor1"", ""distractor2"", ""distractor3"")",NA,NA,NA,NA,NA,NA,NA,NA,NA,NA,NA,NA,NA,NA,NA,NA,NA,NA,NA
9ca19,Shallow Question,html.Page,2_9_0_0,NA,NA,form submission,6110.92,278520,278514.42,278531.08,284642,284643,2023-03-05T17:02:26Z,284647.5,Wechsel,ugeuzaji,s,utambulisho,kujenga,wasiwasi,ugeuzaji,NA,NA,"c(""distractor1"", ""distractor2"", ""distractor3"")",NA,NA,NA,NA,NA,NA,NA,NA,NA,NA,NA,NA,NA,NA,NA,NA,NA,NA,NA
9ca19,Save data screen,canvas.Screen,2_9_0_1,NA,NA,timeout,499.94,284648,284637.44,284647.5,285130.78,285132,2023-03-05T17:02:26Z,285147.44,Wechsel,ugeuzaji,s,utambulisho,kujenga,wasiwasi,NA,NA,1,"c(""distractor1"", ""distractor2"", ""distractor3"")",NA,NA,NA,NA,NA,NA,NA,NA,NA,NA,NA,NA,NA,NA,NA,NA,NA,NA,NA
9ca19,shallow,flow.Sequence,2_9_0,NA,NA,completion,6599.7,278520,278514.42,278531.08,285130.78,285132,2023-03-05T17:02:26Z,285147.44,Wechsel,ugeuzaji,s,utambulisho,kujenga,wasiwasi,NA,NA,NA,"c(""distractor1"", ""distractor2"", ""distractor3"")",NA,NA,NA,NA,NA,NA,NA,NA,NA,NA,NA,NA,NA,NA,NA,NA,NA,NA,NA
9ca19,task,flow.Sequence,2_9,NA,NA,completion,6599.7,278520,278514.42,278531.08,285130.78,285133,2023-03-05T17:02:26Z,285147.44,Wechsel,ugeuzaji,s,utambulisho,kujenga,wasiwasi,NA,NA,NA,"c(""distractor1"", ""distractor2"", ""distractor3"")",NA,NA,NA,NA,NA,NA,NA,NA,NA,NA,NA,NA,NA,NA,NA,NA,NA,NA,NA
9ca19,Shallow Question,html.Page,2_10_0_0,NA,NA,form submission,4743.56,285134,285130.78,285147.44,289891,289892,2023-03-05T17:02:31Z,289897.24,Stimmung,kinyongo,d,kilekile,kisambo,madhehebu,kinyongo,NA,NA,"c(""distractor1"", ""distractor2"", ""distractor3"")",NA,NA,NA,NA,NA,NA,NA,NA,NA,NA,NA,NA,NA,NA,NA,NA,NA,NA,NA
9ca19,Save data screen,canvas.Screen,2_10_0_1,NA,NA,timeout,499.91999999998,289895,289887.3,289897.24,290380.52,290382,2023-03-05T17:02:32Z,290397.16,Stimmung,kinyongo,d,kilekile,kisambo,madhehebu,NA,NA,1,"c(""distractor1"", ""distractor2"", ""distractor3"")",NA,NA,NA,NA,NA,NA,NA,NA,NA,NA,NA,NA,NA,NA,NA,NA,NA,NA,NA
9ca19,shallow,flow.Sequence,2_10_0,NA,NA,completion,5233.08,285134,285130.78,285147.44,290380.52,290382,2023-03-05T17:02:32Z,290397.16,Stimmung,kinyongo,d,kilekile,kisambo,madhehebu,NA,NA,NA,"c(""distractor1"", ""distractor2"", ""distractor3"")",NA,NA,NA,NA,NA,NA,NA,NA,NA,NA,NA,NA,NA,NA,NA,NA,NA,NA,NA
9ca19,task,flow.Sequence,2_10,NA,NA,completion,5233.08,285134,285130.78,285147.44,290380.52,290383,2023-03-05T17:02:32Z,290397.16,Stimmung,kinyongo,d,kilekile,kisambo,madhehebu,NA,NA,NA,"c(""distractor1"", ""distractor2"", ""distractor3"")",NA,NA,NA,NA,NA,NA,NA,NA,NA,NA,NA,NA,NA,NA,NA,NA,NA,NA,NA
9ca19,Shallow Question,html.Page,2_11_0_0,NA,NA,form submission,7264.84,290385,290380.52,290397.16,297662,297663,2023-03-05T17:02:39Z,297663.46,Integrität,uadilifu,s,muungano,mtiririko,upunguaji,uadilifu,NA,NA,"c(""distractor1"", ""distractor2"", ""distractor3"")",NA,NA,NA,NA,NA,NA,NA,NA,NA,NA,NA,NA,NA,NA,NA,NA,NA,NA,NA
9ca19,Save data screen,canvas.Screen,2_11_0_1,NA,NA,timeout,500.03999999998,297667,297658.08,297663.46,298146.84,298148,2023-03-05T17:02:39Z,298163.5,Integrität,uadilifu,s,muungano,mtiririko,upunguaji,NA,NA,1,"c(""distractor1"", ""distractor2"", ""distractor3"")",NA,NA,NA,NA,NA,NA,NA,NA,NA,NA,NA,NA,NA,NA,NA,NA,NA,NA,NA
9ca19,shallow,flow.Sequence,2_11_0,NA,NA,completion,7749.6800000001,290384,290380.52,290397.16,298146.84,298149,2023-03-05T17:02:39Z,298163.5,Integrität,uadilifu,s,muungano,mtiririko,upunguaji,NA,NA,NA,"c(""distractor1"", ""distractor2"", ""distractor3"")",NA,NA,NA,NA,NA,NA,NA,NA,NA,NA,NA,NA,NA,NA,NA,NA,NA,NA,NA
9ca19,task,flow.Sequence,2_11,NA,NA,completion,7749.6800000001,290384,290380.52,290397.16,298146.84,298149,2023-03-05T17:02:39Z,298163.5,Integrität,uadilifu,s,muungano,mtiririko,upunguaji,NA,NA,NA,"c(""distractor1"", ""distractor2"", ""distractor3"")",NA,NA,NA,NA,NA,NA,NA,NA,NA,NA,NA,NA,NA,NA,NA,NA,NA,NA,NA
9ca19,Shallow Question,html.Page,2_12_0_0,NA,NA,form submission,7434.5,298150,298146.84,298163.5,305598,305600,2023-03-05T17:02:47Z,305613.12,Begegnung,kukutana,d,mmasihiya,mpiganaji,husiano,kukutana,NA,NA,"c(""distractor1"", ""distractor2"", ""distractor3"")",NA,NA,NA,NA,NA,NA,NA,NA,NA,NA,NA,NA,NA,NA,NA,NA,NA,NA,NA
9ca19,Save data screen,canvas.Screen,2_12_0_1,NA,NA,timeout,499.96000000002,305604,305592.92,305613.12,306096.42,306097,2023-03-05T17:02:47Z,306113.08,Begegnung,kukutana,d,mmasihiya,mpiganaji,husiano,NA,NA,1,"c(""distractor1"", ""distractor2"", ""distractor3"")",NA,NA,NA,NA,NA,NA,NA,NA,NA,NA,NA,NA,NA,NA,NA,NA,NA,NA,NA
9ca19,shallow,flow.Sequence,2_12_0,NA,NA,completion,7932.92,298150,298146.84,298163.5,306096.42,306098,2023-03-05T17:02:47Z,306113.08,Begegnung,kukutana,d,mmasihiya,mpiganaji,husiano,NA,NA,NA,"c(""distractor1"", ""distractor2"", ""distractor3"")",NA,NA,NA,NA,NA,NA,NA,NA,NA,NA,NA,NA,NA,NA,NA,NA,NA,NA,NA
9ca19,task,flow.Sequence,2_12,NA,NA,completion,7932.92,298149,298146.84,298163.5,306096.42,306099,2023-03-05T17:02:47Z,306113.08,Begegnung,kukutana,d,mmasihiya,mpiganaji,husiano,NA,NA,NA,"c(""distractor1"", ""distractor2"", ""distractor3"")",NA,NA,NA,NA,NA,NA,NA,NA,NA,NA,NA,NA,NA,NA,NA,NA,NA,NA,NA
9ca19,Shallow Question,html.Page,2_13_0_0,NA,NA,form submission,12933.92,306100,306096.42,306113.08,319047,319048,2023-03-05T17:03:00Z,319045.76,Betrüger,mdanganyifu,d,mwanamuziki,wastani,mahakama,mdanganyifu,NA,NA,"c(""distractor1"", ""distractor2"", ""distractor3"")",NA,NA,NA,NA,NA,NA,NA,NA,NA,NA,NA,NA,NA,NA,NA,NA,NA,NA,NA
9ca19,Save data screen,canvas.Screen,2_13_0_1,NA,NA,timeout,500.03999999998,319052,319042.24,319045.76,319529.14,319530,2023-03-05T17:03:01Z,319545.8,Betrüger,mdanganyifu,d,mwanamuziki,wastani,mahakama,NA,NA,1,"c(""distractor1"", ""distractor2"", ""distractor3"")",NA,NA,NA,NA,NA,NA,NA,NA,NA,NA,NA,NA,NA,NA,NA,NA,NA,NA,NA
9ca19,shallow,flow.Sequence,2_13_0,NA,NA,completion,13416.06,306099,306096.42,306113.08,319529.14,319530,2023-03-05T17:03:01Z,319545.8,Betrüger,mdanganyifu,d,mwanamuziki,wastani,mahakama,NA,NA,NA,"c(""distractor1"", ""distractor2"", ""distractor3"")",NA,NA,NA,NA,NA,NA,NA,NA,NA,NA,NA,NA,NA,NA,NA,NA,NA,NA,NA
9ca19,task,flow.Sequence,2_13,NA,NA,completion,13416.06,306099,306096.42,306113.08,319529.14,319532,2023-03-05T17:03:01Z,319545.8,Betrüger,mdanganyifu,d,mwanamuziki,wastani,mahakama,NA,NA,NA,"c(""distractor1"", ""distractor2"", ""distractor3"")",NA,NA,NA,NA,NA,NA,NA,NA,NA,NA,NA,NA,NA,NA,NA,NA,NA,NA,NA
9ca19,Shallow Question,html.Page,2_14_0_0,NA,NA,form submission,5626.2,319534,319529.14,319545.8,325172,325173,2023-03-05T17:03:06Z,325178.74,Fleisch,mshakiki,s,kizunguzungu,mshikamano,angusho,mshakiki,NA,NA,"c(""distractor1"", ""distractor2"", ""distractor3"")",NA,NA,NA,NA,NA,NA,NA,NA,NA,NA,NA,NA,NA,NA,NA,NA,NA,NA,NA
9ca19,Save data screen,canvas.Screen,2_14_0_1,NA,NA,timeout,500.10000000003,325179,325167.6,325178.74,325662.16,325665,2023-03-05T17:03:07Z,325678.84,Fleisch,mshakiki,s,kizunguzungu,mshikamano,angusho,NA,NA,1,"c(""distractor1"", ""distractor2"", ""distractor3"")",NA,NA,NA,NA,NA,NA,NA,NA,NA,NA,NA,NA,NA,NA,NA,NA,NA,NA,NA
9ca19,shallow,flow.Sequence,2_14_0,NA,NA,completion,6116.36,319533,319529.14,319545.8,325662.16,325665,2023-03-05T17:03:07Z,325678.84,Fleisch,mshakiki,s,kizunguzungu,mshikamano,angusho,NA,NA,NA,"c(""distractor1"", ""distractor2"", ""distractor3"")",NA,NA,NA,NA,NA,NA,NA,NA,NA,NA,NA,NA,NA,NA,NA,NA,NA,NA,NA
9ca19,task,flow.Sequence,2_14,NA,NA,completion,6116.36,319533,319529.14,319545.8,325662.16,325666,2023-03-05T17:03:07Z,325678.84,Fleisch,mshakiki,s,kizunguzungu,mshikamano,angusho,NA,NA,NA,"c(""distractor1"", ""distractor2"", ""distractor3"")",NA,NA,NA,NA,NA,NA,NA,NA,NA,NA,NA,NA,NA,NA,NA,NA,NA,NA,NA
9ca19,Shallow Question,html.Page,2_15_0_0,NA,NA,form submission,4991.16,325669,325662.16,325678.84,330670,330671,2023-03-05T17:03:12Z,330678.62,Atmosphäre,angahewa,d,kuteseka,usahihi,kutoamini,angahewa,NA,NA,"c(""distractor1"", ""distractor2"", ""distractor3"")",NA,NA,NA,NA,NA,NA,NA,NA,NA,NA,NA,NA,NA,NA,NA,NA,NA,NA,NA
9ca19,Save data screen,canvas.Screen,2_15_0_1,NA,NA,timeout,499.91999999998,330680,330665.98,330678.62,331161.92,331163,2023-03-05T17:03:12Z,331178.54,Atmosphäre,angahewa,d,kuteseka,usahihi,kutoamini,NA,NA,1,"c(""distractor1"", ""distractor2"", ""distractor3"")",NA,NA,NA,NA,NA,NA,NA,NA,NA,NA,NA,NA,NA,NA,NA,NA,NA,NA,NA
9ca19,shallow,flow.Sequence,2_15_0,NA,NA,completion,5483.08,325669,325662.16,325678.84,331161.92,331165,2023-03-05T17:03:12Z,331178.54,Atmosphäre,angahewa,d,kuteseka,usahihi,kutoamini,NA,NA,NA,"c(""distractor1"", ""distractor2"", ""distractor3"")",NA,NA,NA,NA,NA,NA,NA,NA,NA,NA,NA,NA,NA,NA,NA,NA,NA,NA,NA
9ca19,task,flow.Sequence,2_15,NA,NA,completion,5483.08,325667,325662.16,325678.84,331161.92,331167,2023-03-05T17:03:12Z,331178.54,Atmosphäre,angahewa,d,kuteseka,usahihi,kutoamini,NA,NA,NA,"c(""distractor1"", ""distractor2"", ""distractor3"")",NA,NA,NA,NA,NA,NA,NA,NA,NA,NA,NA,NA,NA,NA,NA,NA,NA,NA,NA
9ca19,retrieval block 2 (multiple choice),flow.Loop,2,NA,NA,completion,136726.82,194412,194401.78,194435.1,331161.92,331168,2023-03-05T17:03:12Z,331178.54,NA,NA,NA,NA,NA,NA,NA,NA,NA,"c(""distractor1"", ""distractor2"", ""distractor3"")",NA,NA,NA,NA,NA,NA,NA,NA,NA,NA,NA,NA,NA,NA,NA,NA,NA,NA,NA
9ca19,End,canvas.Screen,3,NA,keypress(Space),response,1866.46,331169,331161.92,331178.54,333045,333063,2023-03-05T17:03:14Z,333068.46,NA,NA,NA,NA,NA,NA,NA,NA,NA,NULL,NA,NA,NA,NA,NA,NA,NA,NA,NA,NA,NA,NA,NA,NA,NA,NA,NA,NA,NA
9ca19,root,flow.Sequence,NA,NA,NA,completion,330500.72,2514,2527.6,2544.28,333045,333066,2023-03-05T17:03:14Z,333068.46,NA,NA,NA,NA,NA,NA,NA,NA,NA,NULL,NA,NA,NA,NA,NA,NA,NA,NA,NA,NA,NA,NA,NA,NA,NA,NA,NA,NA,NA
