observation,sender,sender_type,sender_id,response,response_action,ended_on,duration,time_run,time_render,time_show,time_end,time_commit,timestamp,time_switch,german,swahili,enc,distractor1,distractor2,distractor3,response_2,x,correct,distractors,url_vp,url_sess,meta_labjs_version,meta_location,meta_user_agent,meta_platform,meta_language,meta_locale,meta_time_zone,meta_timezone_offset,meta_screen_width,meta_screen_height,meta_scroll_width,meta_scroll_height,meta_window_inner_width,meta_window_inner_height,meta_device_pixel_ratio,meta_labjs_build_flavor,meta_labjs_build_commit
054fb,Introduction delayed retrieval,canvas.Screen,0,weiter,keypress(Space),response,6967.6759999762,633.89999997616,628.378,645.224,7612.8999999762,7614.6000000238,2023-05-28T13:19:58Z,7622.497,NA,NA,NA,NA,NA,NA,NA,NA,NA,NULL,172,2,20.2.4,https://neurocog.fernuni.ch/studies/vweber/sliechti/delayed/index.html?vp=172&sess=2,"Mozilla/5.0 (Windows NT 10.0; Win64; x64) AppleWebKit/537.36 (KHTML, like Gecko) Chrome/113.0.0.0 Safari/537.36",Win32,de-CH,de,Europe/Zurich,-120,1280,720,1280,553,1280,601,1.5,production,f5b4a49f956347addd546a832a3327688c2c0fef
054fb,Deep Question,html.Page,1_0_0_0,NA,NA,form submission,27854.402999976,7615.1000000238,7606.225,7622.497,35476.899999976,35477.200000048,2023-05-28T13:20:26Z,35482.924,Genehmigung,idhini,s,mwanamke,itikadi,fedheha,öklj,NA,NA,NULL,NA,NA,NA,NA,NA,NA,NA,NA,NA,NA,NA,NA,NA,NA,NA,NA,NA,NA,NA
054fb,Save data screen,canvas.Screen,1_0_0_1,NA,NA,timeout,499.812,35478.899999976,35466.272,35482.924,35965.84,35966.899999976,2023-05-28T13:20:27Z,35982.736,Genehmigung,idhini,s,mwanamke,itikadi,fedheha,NA,NA,0,NULL,NA,NA,NA,NA,NA,NA,NA,NA,NA,NA,NA,NA,NA,NA,NA,NA,NA,NA,NA
054fb,deep,flow.Sequence,1_0_0,NA,NA,completion,28343.343,7615,7606.225,7622.497,35965.84,35967.300000072,2023-05-28T13:20:27Z,35982.736,Genehmigung,idhini,s,mwanamke,itikadi,fedheha,NA,NA,NA,NULL,NA,NA,NA,NA,NA,NA,NA,NA,NA,NA,NA,NA,NA,NA,NA,NA,NA,NA,NA
054fb,task,flow.Sequence,1_0,NA,NA,completion,28343.343,7615,7606.225,7622.497,35965.84,35967.5,2023-05-28T13:20:27Z,35982.736,Genehmigung,idhini,s,mwanamke,itikadi,fedheha,NA,NA,NA,NULL,NA,NA,NA,NA,NA,NA,NA,NA,NA,NA,NA,NA,NA,NA,NA,NA,NA,NA,NA
054fb,Deep Question,html.Page,1_1_0_0,NA,NA,form submission,5608.264,35967.800000072,35965.84,35982.736,41591,41591.200000048,2023-05-28T13:20:32Z,41594.498,Betrüger,mdanganyifu,s,mwanamuziki,wastani,mahakama,mdafangoyiu,NA,NA,NULL,NA,NA,NA,NA,NA,NA,NA,NA,NA,NA,NA,NA,NA,NA,NA,NA,NA,NA,NA
054fb,Save data screen,canvas.Screen,1_1_0_1,NA,NA,timeout,499.985,41592.600000024,41577.695,41594.498,42077.782,42078.399999976,2023-05-28T13:20:33Z,42094.483,Betrüger,mdanganyifu,s,mwanamuziki,wastani,mahakama,NA,NA,0,NULL,NA,NA,NA,NA,NA,NA,NA,NA,NA,NA,NA,NA,NA,NA,NA,NA,NA,NA,NA
054fb,deep,flow.Sequence,1_1_0,NA,NA,completion,6095.046,35967.700000048,35965.84,35982.736,42077.782,42078.5,2023-05-28T13:20:33Z,42094.483,Betrüger,mdanganyifu,s,mwanamuziki,wastani,mahakama,NA,NA,NA,NULL,NA,NA,NA,NA,NA,NA,NA,NA,NA,NA,NA,NA,NA,NA,NA,NA,NA,NA,NA
054fb,task,flow.Sequence,1_1,NA,NA,completion,6095.046,35967.600000024,35965.84,35982.736,42077.782,42078.600000024,2023-05-28T13:20:33Z,42094.483,Betrüger,mdanganyifu,s,mwanamuziki,wastani,mahakama,NA,NA,NA,NULL,NA,NA,NA,NA,NA,NA,NA,NA,NA,NA,NA,NA,NA,NA,NA,NA,NA,NA,NA
054fb,Deep Question,html.Page,1_2_0_0,NA,NA,form submission,6016.017,42078.700000048,42077.782,42094.483,48110.5,48110.800000072,2023-05-28T13:20:39Z,48122.431,Erneuerung,ukarabati,d,ushawishi,ukalifu,unyonyaji,ohinli,NA,NA,NULL,NA,NA,NA,NA,NA,NA,NA,NA,NA,NA,NA,NA,NA,NA,NA,NA,NA,NA,NA
054fb,Save data screen,canvas.Screen,1_2_0_1,NA,NA,timeout,499.851,48112.200000048,48105.993,48122.431,48605.569,48606.5,2023-05-28T13:20:39Z,48622.282,Erneuerung,ukarabati,d,ushawishi,ukalifu,unyonyaji,NA,NA,0,NULL,NA,NA,NA,NA,NA,NA,NA,NA,NA,NA,NA,NA,NA,NA,NA,NA,NA,NA,NA
054fb,deep,flow.Sequence,1_2_0,NA,NA,completion,6511.086,42078.700000048,42077.782,42094.483,48605.569,48606.800000072,2023-05-28T13:20:39Z,48622.282,Erneuerung,ukarabati,d,ushawishi,ukalifu,unyonyaji,NA,NA,NA,NULL,NA,NA,NA,NA,NA,NA,NA,NA,NA,NA,NA,NA,NA,NA,NA,NA,NA,NA,NA
054fb,task,flow.Sequence,1_2,NA,NA,completion,6511.086,42078.600000024,42077.782,42094.483,48605.569,48606.899999976,2023-05-28T13:20:39Z,48622.282,Erneuerung,ukarabati,d,ushawishi,ukalifu,unyonyaji,NA,NA,NA,NULL,NA,NA,NA,NA,NA,NA,NA,NA,NA,NA,NA,NA,NA,NA,NA,NA,NA,NA,NA
054fb,Deep Question,html.Page,1_3_0_0,NA,NA,form submission,5302.1179999762,48607.100000024,48605.569,48622.282,53924.399999976,53924.600000024,2023-05-28T13:20:45Z,53934.301,Respekt,heshima,d,changamnao,upinzani,ufanisi,heshima,NA,NA,NULL,NA,NA,NA,NA,NA,NA,NA,NA,NA,NA,NA,NA,NA,NA,NA,NA,NA,NA,NA
054fb,Save data screen,canvas.Screen,1_3_0_1,NA,NA,timeout,500.069,53926.200000048,53918.049,53934.301,54417.675,54418.700000048,2023-05-28T13:20:45Z,54434.37,Respekt,heshima,d,changamnao,upinzani,ufanisi,NA,NA,1,NULL,NA,NA,NA,NA,NA,NA,NA,NA,NA,NA,NA,NA,NA,NA,NA,NA,NA,NA,NA
054fb,deep,flow.Sequence,1_3_0,NA,NA,completion,5795.393,48607.100000024,48605.569,48622.282,54417.675,54418.899999976,2023-05-28T13:20:45Z,54434.37,Respekt,heshima,d,changamnao,upinzani,ufanisi,NA,NA,NA,NULL,NA,NA,NA,NA,NA,NA,NA,NA,NA,NA,NA,NA,NA,NA,NA,NA,NA,NA,NA
054fb,task,flow.Sequence,1_3,NA,NA,completion,5795.393,48607,48605.569,48622.282,54417.675,54419,2023-05-28T13:20:45Z,54434.37,Respekt,heshima,d,changamnao,upinzani,ufanisi,NA,NA,NA,NULL,NA,NA,NA,NA,NA,NA,NA,NA,NA,NA,NA,NA,NA,NA,NA,NA,NA,NA,NA
054fb,Deep Question,html.Page,1_4_0_0,NA,NA,form submission,5079.2300000238,54419.200000048,54417.675,54434.37,59513.600000024,59513.800000072,2023-05-28T13:20:50Z,59546.362,Niveau,kiwango,d,usimamizi,mwamali,mshairi,katamandu,NA,NA,NULL,NA,NA,NA,NA,NA,NA,NA,NA,NA,NA,NA,NA,NA,NA,NA,NA,NA,NA,NA
054fb,Save data screen,canvas.Screen,1_4_0_1,NA,NA,timeout,500.038,59515.300000072,59529.778,59546.362,60029.524,60030.399999976,2023-05-28T13:20:51Z,60046.4,Niveau,kiwango,d,usimamizi,mwamali,mshairi,NA,NA,0,NULL,NA,NA,NA,NA,NA,NA,NA,NA,NA,NA,NA,NA,NA,NA,NA,NA,NA,NA,NA
054fb,deep,flow.Sequence,1_4_0,NA,NA,completion,5595.154,54419.200000048,54417.675,54434.37,60029.524,60030.700000048,2023-05-28T13:20:51Z,60046.4,Niveau,kiwango,d,usimamizi,mwamali,mshairi,NA,NA,NA,NULL,NA,NA,NA,NA,NA,NA,NA,NA,NA,NA,NA,NA,NA,NA,NA,NA,NA,NA,NA
054fb,task,flow.Sequence,1_4,NA,NA,completion,5595.154,54419.100000024,54417.675,54434.37,60029.524,60030.800000072,2023-05-28T13:20:51Z,60046.4,Niveau,kiwango,d,usimamizi,mwamali,mshairi,NA,NA,NA,NULL,NA,NA,NA,NA,NA,NA,NA,NA,NA,NA,NA,NA,NA,NA,NA,NA,NA,NA,NA
054fb,Deep Question,html.Page,1_5_0_0,NA,NA,form submission,7859.3000000477,60031,60029.524,60046.4,67905.700000048,67906,2023-05-28T13:20:59Z,67925.36,Stimmung,kinyongo,s,kilekile,kisambo,madhehebu,mshangoyu,NA,NA,NULL,NA,NA,NA,NA,NA,NA,NA,NA,NA,NA,NA,NA,NA,NA,NA,NA,NA,NA,NA
054fb,Save data screen,canvas.Screen,1_5_0_1,NA,NA,timeout,497.50199999999,67907.5,67889.62,67925.36,68406.192,68407.200000048,2023-05-28T13:20:59Z,68422.862,Stimmung,kinyongo,s,kilekile,kisambo,madhehebu,NA,NA,0,NULL,NA,NA,NA,NA,NA,NA,NA,NA,NA,NA,NA,NA,NA,NA,NA,NA,NA,NA,NA
054fb,deep,flow.Sequence,1_5_0,NA,NA,completion,8359.792,60030.899999976,60029.524,60046.4,68406.192,68407.5,2023-05-28T13:20:59Z,68422.862,Stimmung,kinyongo,s,kilekile,kisambo,madhehebu,NA,NA,NA,NULL,NA,NA,NA,NA,NA,NA,NA,NA,NA,NA,NA,NA,NA,NA,NA,NA,NA,NA,NA
054fb,task,flow.Sequence,1_5,NA,NA,completion,8359.792,60030.899999976,60029.524,60046.4,68406.192,68407.600000024,2023-05-28T13:20:59Z,68422.862,Stimmung,kinyongo,s,kilekile,kisambo,madhehebu,NA,NA,NA,NULL,NA,NA,NA,NA,NA,NA,NA,NA,NA,NA,NA,NA,NA,NA,NA,NA,NA,NA,NA
054fb,Deep Question,html.Page,1_6_0_0,NA,NA,form submission,2371.2380000238,68407.800000072,68406.192,68422.862,70794.100000024,70794.200000048,2023-05-28T13:21:01Z,70803.771,Integrität,uadilifu,d,muungano,mtiririko,upunguaji,kjö,NA,NA,NULL,NA,NA,NA,NA,NA,NA,NA,NA,NA,NA,NA,NA,NA,NA,NA,NA,NA,NA,NA
054fb,Save data screen,canvas.Screen,1_6_0_1,NA,NA,timeout,499.82500000001,70794.700000048,70787.435,70803.771,71287.031,71292.5,2023-05-28T13:21:02Z,71303.596,Integrität,uadilifu,d,muungano,mtiririko,upunguaji,NA,NA,0,NULL,NA,NA,NA,NA,NA,NA,NA,NA,NA,NA,NA,NA,NA,NA,NA,NA,NA,NA,NA
054fb,deep,flow.Sequence,1_6_0,NA,NA,completion,2864.169,68407.800000072,68406.192,68422.862,71287.031,71292.800000072,2023-05-28T13:21:02Z,71303.596,Integrität,uadilifu,d,muungano,mtiririko,upunguaji,NA,NA,NA,NULL,NA,NA,NA,NA,NA,NA,NA,NA,NA,NA,NA,NA,NA,NA,NA,NA,NA,NA,NA
054fb,task,flow.Sequence,1_6,NA,NA,completion,2864.169,68407.800000072,68406.192,68422.862,71287.031,71293.100000024,2023-05-28T13:21:02Z,71303.596,Integrität,uadilifu,d,muungano,mtiririko,upunguaji,NA,NA,NA,NULL,NA,NA,NA,NA,NA,NA,NA,NA,NA,NA,NA,NA,NA,NA,NA,NA,NA,NA,NA
054fb,Deep Question,html.Page,1_7_0_0,NA,NA,form submission,3569.6040000477,71293.200000048,71287.031,71303.596,74873.200000048,74873.399999976,2023-05-28T13:21:05Z,74883.769,Papier,karatasi,d,uchambuzi,usalama,kukataliwa,kartasi,NA,NA,NULL,NA,NA,NA,NA,NA,NA,NA,NA,NA,NA,NA,NA,NA,NA,NA,NA,NA,NA,NA
054fb,Save data screen,canvas.Screen,1_7_0_1,NA,NA,timeout,499.811,74874.700000048,74867.458,74883.769,75367.133,75368.100000024,2023-05-28T13:21:06Z,75383.58,Papier,karatasi,d,uchambuzi,usalama,kukataliwa,NA,NA,0,NULL,NA,NA,NA,NA,NA,NA,NA,NA,NA,NA,NA,NA,NA,NA,NA,NA,NA,NA,NA
054fb,deep,flow.Sequence,1_7_0,NA,NA,completion,4063.537,71293.100000024,71287.031,71303.596,75367.133,75368.399999976,2023-05-28T13:21:06Z,75383.58,Papier,karatasi,d,uchambuzi,usalama,kukataliwa,NA,NA,NA,NULL,NA,NA,NA,NA,NA,NA,NA,NA,NA,NA,NA,NA,NA,NA,NA,NA,NA,NA,NA
054fb,task,flow.Sequence,1_7,NA,NA,completion,4063.537,71293.100000024,71287.031,71303.596,75367.133,75368.5,2023-05-28T13:21:06Z,75383.58,Papier,karatasi,d,uchambuzi,usalama,kukataliwa,NA,NA,NA,NULL,NA,NA,NA,NA,NA,NA,NA,NA,NA,NA,NA,NA,NA,NA,NA,NA,NA,NA,NA
054fb,Deep Question,html.Page,1_8_0_0,NA,NA,form submission,3291.2200000715,75368.600000024,75367.133,75383.58,78674.800000072,78675,2023-05-28T13:21:09Z,78680.742,Fleisch,mshakiki,d,kizunguzungu,mshikamano,angusho,mshakiki,NA,NA,NULL,NA,NA,NA,NA,NA,NA,NA,NA,NA,NA,NA,NA,NA,NA,NA,NA,NA,NA,NA
054fb,Save data screen,canvas.Screen,1_8_0_1,NA,NA,timeout,499.946,78676.300000072,78664.392,78680.742,79164.025,79165,2023-05-28T13:21:10Z,79180.688,Fleisch,mshakiki,d,kizunguzungu,mshikamano,angusho,NA,NA,1,NULL,NA,NA,NA,NA,NA,NA,NA,NA,NA,NA,NA,NA,NA,NA,NA,NA,NA,NA,NA
054fb,deep,flow.Sequence,1_8_0,NA,NA,completion,3780.445,75368.600000024,75367.133,75383.58,79164.025,79165.300000072,2023-05-28T13:21:10Z,79180.688,Fleisch,mshakiki,d,kizunguzungu,mshikamano,angusho,NA,NA,NA,NULL,NA,NA,NA,NA,NA,NA,NA,NA,NA,NA,NA,NA,NA,NA,NA,NA,NA,NA,NA
054fb,task,flow.Sequence,1_8,NA,NA,completion,3780.445,75368.600000024,75367.133,75383.58,79164.025,79165.399999976,2023-05-28T13:21:10Z,79180.688,Fleisch,mshakiki,d,kizunguzungu,mshikamano,angusho,NA,NA,NA,NULL,NA,NA,NA,NA,NA,NA,NA,NA,NA,NA,NA,NA,NA,NA,NA,NA,NA,NA,NA
054fb,Deep Question,html.Page,1_9_0_0,NA,NA,form submission,8288.4120000238,79165.600000024,79164.025,79180.688,87469.100000024,87469.399999976,2023-05-28T13:21:18Z,87473.514,Vorwurf,mashtaka,s,msukumo,mtangulizi,uenyekiti,mshataka,NA,NA,NULL,NA,NA,NA,NA,NA,NA,NA,NA,NA,NA,NA,NA,NA,NA,NA,NA,NA,NA,NA
054fb,Save data screen,canvas.Screen,1_9_0_1,NA,NA,timeout,499.933,87470.899999976,87457.086,87473.514,87956.784,87957.800000072,2023-05-28T13:21:19Z,87973.447,Vorwurf,mashtaka,s,msukumo,mtangulizi,uenyekiti,NA,NA,0,NULL,NA,NA,NA,NA,NA,NA,NA,NA,NA,NA,NA,NA,NA,NA,NA,NA,NA,NA,NA
054fb,deep,flow.Sequence,1_9_0,NA,NA,completion,8776.096,79165.600000024,79164.025,79180.688,87956.784,87958,2023-05-28T13:21:19Z,87973.447,Vorwurf,mashtaka,s,msukumo,mtangulizi,uenyekiti,NA,NA,NA,NULL,NA,NA,NA,NA,NA,NA,NA,NA,NA,NA,NA,NA,NA,NA,NA,NA,NA,NA,NA
054fb,task,flow.Sequence,1_9,NA,NA,completion,8776.096,79165.5,79164.025,79180.688,87956.784,87958.100000024,2023-05-28T13:21:19Z,87973.447,Vorwurf,mashtaka,s,msukumo,mtangulizi,uenyekiti,NA,NA,NA,NULL,NA,NA,NA,NA,NA,NA,NA,NA,NA,NA,NA,NA,NA,NA,NA,NA,NA,NA,NA
054fb,Deep Question,html.Page,1_10_0_0,NA,NA,form submission,4643.9529999762,87958.399999976,87956.784,87973.447,92617.399999976,92617.600000024,2023-05-28T13:21:23Z,92619.334,Atmosphäre,angahewa,s,kuteseka,usahihi,kutoamini,angehewa,NA,NA,NULL,NA,NA,NA,NA,NA,NA,NA,NA,NA,NA,NA,NA,NA,NA,NA,NA,NA,NA,NA
054fb,Save data screen,canvas.Screen,1_10_0_1,NA,NA,timeout,499.893,92619,92602.691,92619.334,93102.562,93103.5,2023-05-28T13:21:24Z,93119.227,Atmosphäre,angahewa,s,kuteseka,usahihi,kutoamini,NA,NA,0,NULL,NA,NA,NA,NA,NA,NA,NA,NA,NA,NA,NA,NA,NA,NA,NA,NA,NA,NA,NA
054fb,deep,flow.Sequence,1_10_0,NA,NA,completion,5129.115,87958.300000072,87956.784,87973.447,93102.562,93103.800000072,2023-05-28T13:21:24Z,93119.227,Atmosphäre,angahewa,s,kuteseka,usahihi,kutoamini,NA,NA,NA,NULL,NA,NA,NA,NA,NA,NA,NA,NA,NA,NA,NA,NA,NA,NA,NA,NA,NA,NA,NA
054fb,task,flow.Sequence,1_10,NA,NA,completion,5129.115,87958.300000072,87956.784,87973.447,93102.562,93104,2023-05-28T13:21:24Z,93119.227,Atmosphäre,angahewa,s,kuteseka,usahihi,kutoamini,NA,NA,NA,NULL,NA,NA,NA,NA,NA,NA,NA,NA,NA,NA,NA,NA,NA,NA,NA,NA,NA,NA,NA
054fb,Deep Question,html.Page,1_11_0_0,NA,NA,form submission,1639.4730000477,93104.100000024,93102.562,93119.227,94758.700000048,94758.800000072,2023-05-28T13:21:25Z,94767.398,Flexibilität,kubadilika,s,enjini,usikilivu,hesabu,fdfj,NA,NA,NULL,NA,NA,NA,NA,NA,NA,NA,NA,NA,NA,NA,NA,NA,NA,NA,NA,NA,NA,NA
054fb,Save data screen,canvas.Screen,1_11_0_1,NA,NA,timeout,499.776,94759.300000072,94744.806,94767.398,95250.669,95251.600000024,2023-05-28T13:21:26Z,95267.174,Flexibilität,kubadilika,s,enjini,usikilivu,hesabu,NA,NA,0,NULL,NA,NA,NA,NA,NA,NA,NA,NA,NA,NA,NA,NA,NA,NA,NA,NA,NA,NA,NA
054fb,deep,flow.Sequence,1_11_0,NA,NA,completion,2131.442,93104.100000024,93102.562,93119.227,95250.669,95251.899999976,2023-05-28T13:21:26Z,95267.174,Flexibilität,kubadilika,s,enjini,usikilivu,hesabu,NA,NA,NA,NULL,NA,NA,NA,NA,NA,NA,NA,NA,NA,NA,NA,NA,NA,NA,NA,NA,NA,NA,NA
054fb,task,flow.Sequence,1_11,NA,NA,completion,2131.442,93104.100000024,93102.562,93119.227,95250.669,95252.100000024,2023-05-28T13:21:26Z,95267.174,Flexibilität,kubadilika,s,enjini,usikilivu,hesabu,NA,NA,NA,NULL,NA,NA,NA,NA,NA,NA,NA,NA,NA,NA,NA,NA,NA,NA,NA,NA,NA,NA,NA
054fb,Deep Question,html.Page,1_12_0_0,NA,NA,form submission,5280.326,95252.300000072,95250.669,95267.174,100547.5,100547.70000005,2023-05-28T13:21:31Z,100562.699,Begegnung,kukutana,s,mmasihiya,mpiganaji,husiano,kolajoijik,NA,NA,NULL,NA,NA,NA,NA,NA,NA,NA,NA,NA,NA,NA,NA,NA,NA,NA,NA,NA,NA,NA
054fb,Save data screen,canvas.Screen,1_12_0_1,NA,NA,timeout,500.03300000001,100549.20000005,100546.541,100562.699,101046.032,101046.89999998,2023-05-28T13:21:32Z,101062.732,Begegnung,kukutana,s,mmasihiya,mpiganaji,husiano,NA,NA,0,NULL,NA,NA,NA,NA,NA,NA,NA,NA,NA,NA,NA,NA,NA,NA,NA,NA,NA,NA,NA
054fb,deep,flow.Sequence,1_12_0,NA,NA,completion,5778.858,95252.200000048,95250.669,95267.174,101046.032,101047.30000007,2023-05-28T13:21:32Z,101062.732,Begegnung,kukutana,s,mmasihiya,mpiganaji,husiano,NA,NA,NA,NULL,NA,NA,NA,NA,NA,NA,NA,NA,NA,NA,NA,NA,NA,NA,NA,NA,NA,NA,NA
054fb,task,flow.Sequence,1_12,NA,NA,completion,5778.858,95252.200000048,95250.669,95267.174,101046.032,101047.39999998,2023-05-28T13:21:32Z,101062.732,Begegnung,kukutana,s,mmasihiya,mpiganaji,husiano,NA,NA,NA,NULL,NA,NA,NA,NA,NA,NA,NA,NA,NA,NA,NA,NA,NA,NA,NA,NA,NA,NA,NA
054fb,Deep Question,html.Page,1_13_0_0,NA,NA,form submission,2334.1679999762,101047.60000002,101046.032,101062.732,103396.89999998,103397.20000005,2023-05-28T13:21:34Z,103410.409,Orientierung,urekebisho,d,uelekeo,marekebisho,utunzaji,fdsfa,NA,NA,NULL,NA,NA,NA,NA,NA,NA,NA,NA,NA,NA,NA,NA,NA,NA,NA,NA,NA,NA,NA
054fb,Save data screen,canvas.Screen,1_13_0_1,NA,NA,timeout,499.66100000001,103397.5,103393.739,103410.409,103893.455,103894.30000007,2023-05-28T13:21:34Z,103910.07,Orientierung,urekebisho,d,uelekeo,marekebisho,utunzaji,NA,NA,0,NULL,NA,NA,NA,NA,NA,NA,NA,NA,NA,NA,NA,NA,NA,NA,NA,NA,NA,NA,NA
054fb,deep,flow.Sequence,1_13_0,NA,NA,completion,2830.723,101047.60000002,101046.032,101062.732,103893.455,103894.5,2023-05-28T13:21:34Z,103910.07,Orientierung,urekebisho,d,uelekeo,marekebisho,utunzaji,NA,NA,NA,NULL,NA,NA,NA,NA,NA,NA,NA,NA,NA,NA,NA,NA,NA,NA,NA,NA,NA,NA,NA
054fb,task,flow.Sequence,1_13,NA,NA,completion,2830.723,101047.5,101046.032,101062.732,103893.455,103894.60000002,2023-05-28T13:21:34Z,103910.07,Orientierung,urekebisho,d,uelekeo,marekebisho,utunzaji,NA,NA,NA,NULL,NA,NA,NA,NA,NA,NA,NA,NA,NA,NA,NA,NA,NA,NA,NA,NA,NA,NA,NA
054fb,Deep Question,html.Page,1_14_0_0,NA,NA,form submission,2127.5300000238,103894.80000007,103893.455,103910.07,106037.60000002,106037.70000005,2023-05-28T13:21:37Z,106041.518,Entwicklung,maendeleo,s,uangavu,mshindwa,badiliko,fjödljf,NA,NA,NULL,NA,NA,NA,NA,NA,NA,NA,NA,NA,NA,NA,NA,NA,NA,NA,NA,NA,NA,NA
054fb,Save data screen,canvas.Screen,1_14_0_1,NA,NA,timeout,499.671,106039,106024.94,106041.518,106524.868,106525.89999998,2023-05-28T13:21:37Z,106541.189,Entwicklung,maendeleo,s,uangavu,mshindwa,badiliko,NA,NA,0,NULL,NA,NA,NA,NA,NA,NA,NA,NA,NA,NA,NA,NA,NA,NA,NA,NA,NA,NA,NA
054fb,deep,flow.Sequence,1_14_0,NA,NA,completion,2614.798,103894.80000007,103893.455,103910.07,106524.868,106526.10000002,2023-05-28T13:21:37Z,106541.189,Entwicklung,maendeleo,s,uangavu,mshindwa,badiliko,NA,NA,NA,NULL,NA,NA,NA,NA,NA,NA,NA,NA,NA,NA,NA,NA,NA,NA,NA,NA,NA,NA,NA
054fb,task,flow.Sequence,1_14,NA,NA,completion,2614.798,103894.80000007,103893.455,103910.07,106524.868,106526.30000007,2023-05-28T13:21:37Z,106541.189,Entwicklung,maendeleo,s,uangavu,mshindwa,badiliko,NA,NA,NA,NULL,NA,NA,NA,NA,NA,NA,NA,NA,NA,NA,NA,NA,NA,NA,NA,NA,NA,NA,NA
054fb,Deep Question,html.Page,1_15_0_0,NA,NA,form submission,3921.1110000715,106526.5,106524.868,106541.189,110462.30000007,110462.5,2023-05-28T13:21:41Z,110471.179,Wechsel,ugeuzaji,d,utambulisho,kujenga,wasiwasi,lkjads,NA,NA,NULL,NA,NA,NA,NA,NA,NA,NA,NA,NA,NA,NA,NA,NA,NA,NA,NA,NA,NA,NA
054fb,Save data screen,canvas.Screen,1_15_0_1,NA,NA,timeout,499.77499999999,110464,110445.35,110471.179,110954.437,110955.39999998,2023-05-28T13:21:42Z,110970.954,Wechsel,ugeuzaji,d,utambulisho,kujenga,wasiwasi,NA,NA,0,NULL,NA,NA,NA,NA,NA,NA,NA,NA,NA,NA,NA,NA,NA,NA,NA,NA,NA,NA,NA
054fb,deep,flow.Sequence,1_15_0,NA,NA,completion,4413.248,106526.39999998,106524.868,106541.189,110954.437,110955.80000007,2023-05-28T13:21:42Z,110970.954,Wechsel,ugeuzaji,d,utambulisho,kujenga,wasiwasi,NA,NA,NA,NULL,NA,NA,NA,NA,NA,NA,NA,NA,NA,NA,NA,NA,NA,NA,NA,NA,NA,NA,NA
054fb,task,flow.Sequence,1_15,NA,NA,completion,4413.248,106526.39999998,106524.868,106541.189,110954.437,110956,2023-05-28T13:21:42Z,110970.954,Wechsel,ugeuzaji,d,utambulisho,kujenga,wasiwasi,NA,NA,NA,NULL,NA,NA,NA,NA,NA,NA,NA,NA,NA,NA,NA,NA,NA,NA,NA,NA,NA,NA,NA
054fb,retrieval block 1 (cued recall),flow.Loop,1,NA,NA,completion,103331.94,7614.8999999762,7606.225,7622.497,110954.437,110956.10000002,2023-05-28T13:21:42Z,110970.954,NA,NA,NA,NA,NA,NA,NA,NA,NA,NULL,NA,NA,NA,NA,NA,NA,NA,NA,NA,NA,NA,NA,NA,NA,NA,NA,NA,NA,NA
054fb,Shallow Question,html.Page,2_0_0_0,NA,NA,form submission,3204.7460000477,110956.30000007,110954.437,110970.954,114175.70000005,114175.89999998,2023-05-28T13:21:45Z,114184.97,Betrüger,mdanganyifu,s,mwanamuziki,wastani,mahakama,mdanganyifu,NA,NA,"c(""distractor1"", ""distractor2"", ""distractor3"")",NA,NA,NA,NA,NA,NA,NA,NA,NA,NA,NA,NA,NA,NA,NA,NA,NA,NA,NA
054fb,Save data screen,canvas.Screen,2_0_0_1,NA,NA,timeout,499.836,114176.80000007,114168.468,114184.97,114668.165,114669.20000005,2023-05-28T13:21:45Z,114684.806,Betrüger,mdanganyifu,s,mwanamuziki,wastani,mahakama,NA,NA,1,"c(""distractor1"", ""distractor2"", ""distractor3"")",NA,NA,NA,NA,NA,NA,NA,NA,NA,NA,NA,NA,NA,NA,NA,NA,NA,NA,NA
054fb,shallow,flow.Sequence,2_0_0,NA,NA,completion,3697.211,110956.20000005,110954.437,110970.954,114668.165,114669.5,2023-05-28T13:21:45Z,114684.806,Betrüger,mdanganyifu,s,mwanamuziki,wastani,mahakama,NA,NA,NA,"c(""distractor1"", ""distractor2"", ""distractor3"")",NA,NA,NA,NA,NA,NA,NA,NA,NA,NA,NA,NA,NA,NA,NA,NA,NA,NA,NA
054fb,task,flow.Sequence,2_0,NA,NA,completion,3697.211,110956.20000005,110954.437,110970.954,114668.165,114669.70000005,2023-05-28T13:21:45Z,114684.806,Betrüger,mdanganyifu,s,mwanamuziki,wastani,mahakama,NA,NA,NA,"c(""distractor1"", ""distractor2"", ""distractor3"")",NA,NA,NA,NA,NA,NA,NA,NA,NA,NA,NA,NA,NA,NA,NA,NA,NA,NA,NA
054fb,Shallow Question,html.Page,2_1_0_0,NA,NA,form submission,3514.7940000238,114669.89999998,114668.165,114684.806,118199.60000002,118199.80000007,2023-05-28T13:21:49Z,118215.097,Wechsel,ugeuzaji,d,utambulisho,kujenga,wasiwasi,ugeuzaji,NA,NA,"c(""distractor1"", ""distractor2"", ""distractor3"")",NA,NA,NA,NA,NA,NA,NA,NA,NA,NA,NA,NA,NA,NA,NA,NA,NA,NA,NA
054fb,Save data screen,canvas.Screen,2_1_0_1,NA,NA,timeout,499.63200000001,118201.10000002,118183.223,118215.097,118697.903,118699.10000002,2023-05-28T13:21:49Z,118714.729,Wechsel,ugeuzaji,d,utambulisho,kujenga,wasiwasi,NA,NA,1,"c(""distractor1"", ""distractor2"", ""distractor3"")",NA,NA,NA,NA,NA,NA,NA,NA,NA,NA,NA,NA,NA,NA,NA,NA,NA,NA,NA
054fb,shallow,flow.Sequence,2_1_0,NA,NA,completion,4013.097,114669.89999998,114668.165,114684.806,118697.903,118699.30000007,2023-05-28T13:21:49Z,118714.729,Wechsel,ugeuzaji,d,utambulisho,kujenga,wasiwasi,NA,NA,NA,"c(""distractor1"", ""distractor2"", ""distractor3"")",NA,NA,NA,NA,NA,NA,NA,NA,NA,NA,NA,NA,NA,NA,NA,NA,NA,NA,NA
054fb,task,flow.Sequence,2_1,NA,NA,completion,4013.097,114669.80000007,114668.165,114684.806,118697.903,118699.60000002,2023-05-28T13:21:49Z,118714.729,Wechsel,ugeuzaji,d,utambulisho,kujenga,wasiwasi,NA,NA,NA,"c(""distractor1"", ""distractor2"", ""distractor3"")",NA,NA,NA,NA,NA,NA,NA,NA,NA,NA,NA,NA,NA,NA,NA,NA,NA,NA,NA
054fb,Shallow Question,html.Page,2_2_0_0,NA,NA,form submission,13923.471000048,118699.80000007,118697.903,118714.729,132638.20000005,132638.5,2023-05-28T13:22:03Z,132653.024,Flexibilität,kubadilika,s,enjini,usikilivu,hesabu,kubadilika,NA,NA,"c(""distractor1"", ""distractor2"", ""distractor3"")",NA,NA,NA,NA,NA,NA,NA,NA,NA,NA,NA,NA,NA,NA,NA,NA,NA,NA,NA
054fb,Save data screen,canvas.Screen,2_2_0_1,NA,NA,timeout,499.83900000001,132640.10000002,132620.913,132653.024,133136.334,133137.30000007,2023-05-28T13:22:04Z,133152.863,Flexibilität,kubadilika,s,enjini,usikilivu,hesabu,NA,NA,1,"c(""distractor1"", ""distractor2"", ""distractor3"")",NA,NA,NA,NA,NA,NA,NA,NA,NA,NA,NA,NA,NA,NA,NA,NA,NA,NA,NA
054fb,shallow,flow.Sequence,2_2_0,NA,NA,completion,14421.605,118699.80000007,118697.903,118714.729,133136.334,133137.5,2023-05-28T13:22:04Z,133152.863,Flexibilität,kubadilika,s,enjini,usikilivu,hesabu,NA,NA,NA,"c(""distractor1"", ""distractor2"", ""distractor3"")",NA,NA,NA,NA,NA,NA,NA,NA,NA,NA,NA,NA,NA,NA,NA,NA,NA,NA,NA
054fb,task,flow.Sequence,2_2,NA,NA,completion,14421.605,118699.80000007,118697.903,118714.729,133136.334,133137.70000005,2023-05-28T13:22:04Z,133152.863,Flexibilität,kubadilika,s,enjini,usikilivu,hesabu,NA,NA,NA,"c(""distractor1"", ""distractor2"", ""distractor3"")",NA,NA,NA,NA,NA,NA,NA,NA,NA,NA,NA,NA,NA,NA,NA,NA,NA,NA,NA
054fb,Shallow Question,html.Page,2_3_0_0,NA,NA,form submission,6301.637,133137.89999998,133136.334,133152.863,139454.5,139454.70000005,2023-05-28T13:22:10Z,139464.173,Erneuerung,ukarabati,d,ushawishi,ukalifu,unyonyaji,ukarabati,NA,NA,"c(""distractor1"", ""distractor2"", ""distractor3"")",NA,NA,NA,NA,NA,NA,NA,NA,NA,NA,NA,NA,NA,NA,NA,NA,NA,NA,NA
054fb,Save data screen,canvas.Screen,2_3_0_1,NA,NA,timeout,499.875,139456.20000005,139446.57,139464.173,139947.388,139948.39999998,2023-05-28T13:22:11Z,139964.048,Erneuerung,ukarabati,d,ushawishi,ukalifu,unyonyaji,NA,NA,1,"c(""distractor1"", ""distractor2"", ""distractor3"")",NA,NA,NA,NA,NA,NA,NA,NA,NA,NA,NA,NA,NA,NA,NA,NA,NA,NA,NA
054fb,shallow,flow.Sequence,2_3_0,NA,NA,completion,6794.525,133137.80000007,133136.334,133152.863,139947.388,139948.60000002,2023-05-28T13:22:11Z,139964.048,Erneuerung,ukarabati,d,ushawishi,ukalifu,unyonyaji,NA,NA,NA,"c(""distractor1"", ""distractor2"", ""distractor3"")",NA,NA,NA,NA,NA,NA,NA,NA,NA,NA,NA,NA,NA,NA,NA,NA,NA,NA,NA
054fb,task,flow.Sequence,2_3,NA,NA,completion,6794.525,133137.80000007,133136.334,133152.863,139947.388,139948.80000007,2023-05-28T13:22:11Z,139964.048,Erneuerung,ukarabati,d,ushawishi,ukalifu,unyonyaji,NA,NA,NA,"c(""distractor1"", ""distractor2"", ""distractor3"")",NA,NA,NA,NA,NA,NA,NA,NA,NA,NA,NA,NA,NA,NA,NA,NA,NA,NA,NA
054fb,Shallow Question,html.Page,2_4_0_0,NA,NA,form submission,5162.2520000715,139948.89999998,139947.388,139964.048,145126.30000007,145126.5,2023-05-28T13:22:16Z,145143.976,Vorwurf,mashtaka,s,msukumo,mtangulizi,uenyekiti,mashtaka,NA,NA,"c(""distractor1"", ""distractor2"", ""distractor3"")",NA,NA,NA,NA,NA,NA,NA,NA,NA,NA,NA,NA,NA,NA,NA,NA,NA,NA,NA
054fb,Save data screen,canvas.Screen,2_4_0_1,NA,NA,timeout,498.72899999999,145127.80000007,145109.582,145143.976,145626.053,145627,2023-05-28T13:22:16Z,145642.705,Vorwurf,mashtaka,s,msukumo,mtangulizi,uenyekiti,NA,NA,1,"c(""distractor1"", ""distractor2"", ""distractor3"")",NA,NA,NA,NA,NA,NA,NA,NA,NA,NA,NA,NA,NA,NA,NA,NA,NA,NA,NA
054fb,shallow,flow.Sequence,2_4_0,NA,NA,completion,5662.005,139948.89999998,139947.388,139964.048,145626.053,145627.39999998,2023-05-28T13:22:16Z,145642.705,Vorwurf,mashtaka,s,msukumo,mtangulizi,uenyekiti,NA,NA,NA,"c(""distractor1"", ""distractor2"", ""distractor3"")",NA,NA,NA,NA,NA,NA,NA,NA,NA,NA,NA,NA,NA,NA,NA,NA,NA,NA,NA
054fb,task,flow.Sequence,2_4,NA,NA,completion,5662.005,139948.89999998,139947.388,139964.048,145626.053,145627.60000002,2023-05-28T13:22:16Z,145642.705,Vorwurf,mashtaka,s,msukumo,mtangulizi,uenyekiti,NA,NA,NA,"c(""distractor1"", ""distractor2"", ""distractor3"")",NA,NA,NA,NA,NA,NA,NA,NA,NA,NA,NA,NA,NA,NA,NA,NA,NA,NA,NA
054fb,Shallow Question,html.Page,2_5_0_0,NA,NA,form submission,17475.795,145627.80000007,145626.053,145642.705,163118.5,163118.70000005,2023-05-28T13:22:34Z,163128.08,Entwicklung,maendeleo,s,uangavu,mshindwa,badiliko,badiliko,NA,NA,"c(""distractor1"", ""distractor2"", ""distractor3"")",NA,NA,NA,NA,NA,NA,NA,NA,NA,NA,NA,NA,NA,NA,NA,NA,NA,NA,NA
054fb,Save data screen,canvas.Screen,2_5_0_1,NA,NA,timeout,499.641,163120.30000007,163111.504,163128.08,163611.303,163612.10000002,2023-05-28T13:22:34Z,163627.721,Entwicklung,maendeleo,s,uangavu,mshindwa,badiliko,NA,NA,0,"c(""distractor1"", ""distractor2"", ""distractor3"")",NA,NA,NA,NA,NA,NA,NA,NA,NA,NA,NA,NA,NA,NA,NA,NA,NA,NA,NA
054fb,shallow,flow.Sequence,2_5_0,NA,NA,completion,17968.598,145627.70000005,145626.053,145642.705,163611.303,163612.39999998,2023-05-28T13:22:34Z,163627.721,Entwicklung,maendeleo,s,uangavu,mshindwa,badiliko,NA,NA,NA,"c(""distractor1"", ""distractor2"", ""distractor3"")",NA,NA,NA,NA,NA,NA,NA,NA,NA,NA,NA,NA,NA,NA,NA,NA,NA,NA,NA
054fb,task,flow.Sequence,2_5,NA,NA,completion,17968.598,145627.70000005,145626.053,145642.705,163611.303,163612.5,2023-05-28T13:22:34Z,163627.721,Entwicklung,maendeleo,s,uangavu,mshindwa,badiliko,NA,NA,NA,"c(""distractor1"", ""distractor2"", ""distractor3"")",NA,NA,NA,NA,NA,NA,NA,NA,NA,NA,NA,NA,NA,NA,NA,NA,NA,NA,NA
054fb,Shallow Question,html.Page,2_6_0_0,NA,NA,form submission,3826.779,163612.60000002,163611.303,163627.721,167454.5,167454.70000005,2023-05-28T13:22:38Z,167457.757,Niveau,kiwango,d,usimamizi,mwamali,mshairi,kiwango,NA,NA,"c(""distractor1"", ""distractor2"", ""distractor3"")",NA,NA,NA,NA,NA,NA,NA,NA,NA,NA,NA,NA,NA,NA,NA,NA,NA,NA,NA
054fb,Save data screen,canvas.Screen,2_6_0_1,NA,NA,timeout,499.951,167455.89999998,167441.842,167457.757,167941.049,167942,2023-05-28T13:22:39Z,167957.708,Niveau,kiwango,d,usimamizi,mwamali,mshairi,NA,NA,1,"c(""distractor1"", ""distractor2"", ""distractor3"")",NA,NA,NA,NA,NA,NA,NA,NA,NA,NA,NA,NA,NA,NA,NA,NA,NA,NA,NA
054fb,shallow,flow.Sequence,2_6_0,NA,NA,completion,4313.328,163612.60000002,163611.303,163627.721,167941.049,167942.20000005,2023-05-28T13:22:39Z,167957.708,Niveau,kiwango,d,usimamizi,mwamali,mshairi,NA,NA,NA,"c(""distractor1"", ""distractor2"", ""distractor3"")",NA,NA,NA,NA,NA,NA,NA,NA,NA,NA,NA,NA,NA,NA,NA,NA,NA,NA,NA
054fb,task,flow.Sequence,2_6,NA,NA,completion,4313.328,163612.60000002,163611.303,163627.721,167941.049,167942.30000007,2023-05-28T13:22:39Z,167957.708,Niveau,kiwango,d,usimamizi,mwamali,mshairi,NA,NA,NA,"c(""distractor1"", ""distractor2"", ""distractor3"")",NA,NA,NA,NA,NA,NA,NA,NA,NA,NA,NA,NA,NA,NA,NA,NA,NA,NA,NA
054fb,Shallow Question,html.Page,2_7_0_0,NA,NA,form submission,4336.292,167942.5,167941.049,167957.708,172294,172294.30000007,2023-05-28T13:22:43Z,172303.995,Orientierung,urekebisho,d,uelekeo,marekebisho,utunzaji,uelekeo,NA,NA,"c(""distractor1"", ""distractor2"", ""distractor3"")",NA,NA,NA,NA,NA,NA,NA,NA,NA,NA,NA,NA,NA,NA,NA,NA,NA,NA,NA
054fb,Save data screen,canvas.Screen,2_7_0_1,NA,NA,timeout,499.72500000001,172295.70000005,172286.624,172303.995,172787.087,172788.30000007,2023-05-28T13:22:43Z,172803.72,Orientierung,urekebisho,d,uelekeo,marekebisho,utunzaji,NA,NA,0,"c(""distractor1"", ""distractor2"", ""distractor3"")",NA,NA,NA,NA,NA,NA,NA,NA,NA,NA,NA,NA,NA,NA,NA,NA,NA,NA,NA
054fb,shallow,flow.Sequence,2_7_0,NA,NA,completion,4829.379,167942.5,167941.049,167957.708,172787.087,172788.60000002,2023-05-28T13:22:43Z,172803.72,Orientierung,urekebisho,d,uelekeo,marekebisho,utunzaji,NA,NA,NA,"c(""distractor1"", ""distractor2"", ""distractor3"")",NA,NA,NA,NA,NA,NA,NA,NA,NA,NA,NA,NA,NA,NA,NA,NA,NA,NA,NA
054fb,task,flow.Sequence,2_7,NA,NA,completion,4829.379,167942.5,167941.049,167957.708,172787.087,172788.80000007,2023-05-28T13:22:43Z,172803.72,Orientierung,urekebisho,d,uelekeo,marekebisho,utunzaji,NA,NA,NA,"c(""distractor1"", ""distractor2"", ""distractor3"")",NA,NA,NA,NA,NA,NA,NA,NA,NA,NA,NA,NA,NA,NA,NA,NA,NA,NA,NA
054fb,Shallow Question,html.Page,2_8_0_0,NA,NA,form submission,14210.580000072,172788.89999998,172787.087,172803.72,187014.30000007,187014.60000002,2023-05-28T13:22:58Z,187025.287,Stimmung,kinyongo,s,kilekile,kisambo,madhehebu,kinyongo,NA,NA,"c(""distractor1"", ""distractor2"", ""distractor3"")",NA,NA,NA,NA,NA,NA,NA,NA,NA,NA,NA,NA,NA,NA,NA,NA,NA,NA,NA
054fb,Save data screen,canvas.Screen,2_8_0_1,NA,NA,timeout,499.44099999999,187016.20000005,187008.713,187025.287,187508.289,187509.10000002,2023-05-28T13:22:58Z,187524.728,Stimmung,kinyongo,s,kilekile,kisambo,madhehebu,NA,NA,1,"c(""distractor1"", ""distractor2"", ""distractor3"")",NA,NA,NA,NA,NA,NA,NA,NA,NA,NA,NA,NA,NA,NA,NA,NA,NA,NA,NA
054fb,shallow,flow.Sequence,2_8_0,NA,NA,completion,14704.569,172788.89999998,172787.087,172803.72,187508.289,187509.30000007,2023-05-28T13:22:58Z,187524.728,Stimmung,kinyongo,s,kilekile,kisambo,madhehebu,NA,NA,NA,"c(""distractor1"", ""distractor2"", ""distractor3"")",NA,NA,NA,NA,NA,NA,NA,NA,NA,NA,NA,NA,NA,NA,NA,NA,NA,NA,NA
054fb,task,flow.Sequence,2_8,NA,NA,completion,14704.569,172788.80000007,172787.087,172803.72,187508.289,187509.5,2023-05-28T13:22:58Z,187524.728,Stimmung,kinyongo,s,kilekile,kisambo,madhehebu,NA,NA,NA,"c(""distractor1"", ""distractor2"", ""distractor3"")",NA,NA,NA,NA,NA,NA,NA,NA,NA,NA,NA,NA,NA,NA,NA,NA,NA,NA,NA
054fb,Shallow Question,html.Page,2_9_0_0,NA,NA,form submission,18563.372000024,187509.60000002,187508.289,187524.728,206088.10000002,206088.30000007,2023-05-28T13:23:17Z,206109.655,Atmosphäre,angahewa,s,kuteseka,usahihi,kutoamini,angahewa,NA,NA,"c(""distractor1"", ""distractor2"", ""distractor3"")",NA,NA,NA,NA,NA,NA,NA,NA,NA,NA,NA,NA,NA,NA,NA,NA,NA,NA,NA
054fb,Save data screen,canvas.Screen,2_9_0_1,NA,NA,timeout,499.61499999999,206089.20000005,206092.673,206109.655,206592.518,206593.60000002,2023-05-28T13:23:17Z,206609.27,Atmosphäre,angahewa,s,kuteseka,usahihi,kutoamini,NA,NA,1,"c(""distractor1"", ""distractor2"", ""distractor3"")",NA,NA,NA,NA,NA,NA,NA,NA,NA,NA,NA,NA,NA,NA,NA,NA,NA,NA,NA
054fb,shallow,flow.Sequence,2_9_0,NA,NA,completion,19067.79,187509.5,187508.289,187524.728,206592.518,206593.80000007,2023-05-28T13:23:17Z,206609.27,Atmosphäre,angahewa,s,kuteseka,usahihi,kutoamini,NA,NA,NA,"c(""distractor1"", ""distractor2"", ""distractor3"")",NA,NA,NA,NA,NA,NA,NA,NA,NA,NA,NA,NA,NA,NA,NA,NA,NA,NA,NA
054fb,task,flow.Sequence,2_9,NA,NA,completion,19067.79,187509.5,187508.289,187524.728,206592.518,206594,2023-05-28T13:23:17Z,206609.27,Atmosphäre,angahewa,s,kuteseka,usahihi,kutoamini,NA,NA,NA,"c(""distractor1"", ""distractor2"", ""distractor3"")",NA,NA,NA,NA,NA,NA,NA,NA,NA,NA,NA,NA,NA,NA,NA,NA,NA,NA,NA
054fb,Shallow Question,html.Page,2_10_0_0,NA,NA,form submission,6109.1299999762,206594.10000002,206592.518,206609.27,212718.39999998,212718.60000002,2023-05-28T13:23:23Z,212737.541,Begegnung,kukutana,s,mmasihiya,mpiganaji,husiano,kukutana,NA,NA,"c(""distractor1"", ""distractor2"", ""distractor3"")",NA,NA,NA,NA,NA,NA,NA,NA,NA,NA,NA,NA,NA,NA,NA,NA,NA,NA,NA
054fb,Save data screen,canvas.Screen,2_10_0_1,NA,NA,timeout,499.60399999999,212720,212720.522,212737.541,213220.412,213221.5,2023-05-28T13:23:24Z,213237.145,Begegnung,kukutana,s,mmasihiya,mpiganaji,husiano,NA,NA,1,"c(""distractor1"", ""distractor2"", ""distractor3"")",NA,NA,NA,NA,NA,NA,NA,NA,NA,NA,NA,NA,NA,NA,NA,NA,NA,NA,NA
054fb,shallow,flow.Sequence,2_10_0,NA,NA,completion,6611.142,206594.10000002,206592.518,206609.27,213220.412,213221.80000007,2023-05-28T13:23:24Z,213237.145,Begegnung,kukutana,s,mmasihiya,mpiganaji,husiano,NA,NA,NA,"c(""distractor1"", ""distractor2"", ""distractor3"")",NA,NA,NA,NA,NA,NA,NA,NA,NA,NA,NA,NA,NA,NA,NA,NA,NA,NA,NA
054fb,task,flow.Sequence,2_10,NA,NA,completion,6611.142,206594,206592.518,206609.27,213220.412,213222,2023-05-28T13:23:24Z,213237.145,Begegnung,kukutana,s,mmasihiya,mpiganaji,husiano,NA,NA,NA,"c(""distractor1"", ""distractor2"", ""distractor3"")",NA,NA,NA,NA,NA,NA,NA,NA,NA,NA,NA,NA,NA,NA,NA,NA,NA,NA,NA
054fb,Shallow Question,html.Page,2_11_0_0,NA,NA,form submission,4673.1550000715,213222.20000005,213220.412,213237.145,217910.30000007,217910.5,2023-05-28T13:23:29Z,217916.421,Genehmigung,idhini,s,mwanamke,itikadi,fedheha,idhini,NA,NA,"c(""distractor1"", ""distractor2"", ""distractor3"")",NA,NA,NA,NA,NA,NA,NA,NA,NA,NA,NA,NA,NA,NA,NA,NA,NA,NA,NA
054fb,Save data screen,canvas.Screen,2_11_0_1,NA,NA,timeout,499.60500000001,217911.70000005,217899.845,217916.421,218399.262,218400.20000005,2023-05-28T13:23:29Z,218416.026,Genehmigung,idhini,s,mwanamke,itikadi,fedheha,NA,NA,1,"c(""distractor1"", ""distractor2"", ""distractor3"")",NA,NA,NA,NA,NA,NA,NA,NA,NA,NA,NA,NA,NA,NA,NA,NA,NA,NA,NA
054fb,shallow,flow.Sequence,2_11_0,NA,NA,completion,5162.117,213222.10000002,213220.412,213237.145,218399.262,218400.30000007,2023-05-28T13:23:29Z,218416.026,Genehmigung,idhini,s,mwanamke,itikadi,fedheha,NA,NA,NA,"c(""distractor1"", ""distractor2"", ""distractor3"")",NA,NA,NA,NA,NA,NA,NA,NA,NA,NA,NA,NA,NA,NA,NA,NA,NA,NA,NA
054fb,task,flow.Sequence,2_11,NA,NA,completion,5162.117,213222.10000002,213220.412,213237.145,218399.262,218400.60000002,2023-05-28T13:23:29Z,218416.026,Genehmigung,idhini,s,mwanamke,itikadi,fedheha,NA,NA,NA,"c(""distractor1"", ""distractor2"", ""distractor3"")",NA,NA,NA,NA,NA,NA,NA,NA,NA,NA,NA,NA,NA,NA,NA,NA,NA,NA,NA
054fb,Shallow Question,html.Page,2_12_0_0,NA,NA,form submission,3229.6740000477,218400.70000005,218399.262,218416.026,221645.70000005,221645.89999998,2023-05-28T13:23:32Z,221663.533,Papier,karatasi,d,uchambuzi,usalama,kukataliwa,karatasi,NA,NA,"c(""distractor1"", ""distractor2"", ""distractor3"")",NA,NA,NA,NA,NA,NA,NA,NA,NA,NA,NA,NA,NA,NA,NA,NA,NA,NA,NA
054fb,Save data screen,canvas.Screen,2_12_0_1,NA,NA,timeout,499.59700000001,221647.20000005,221646.604,221663.533,222146.479,222147.30000007,2023-05-28T13:23:33Z,222163.13,Papier,karatasi,d,uchambuzi,usalama,kukataliwa,NA,NA,1,"c(""distractor1"", ""distractor2"", ""distractor3"")",NA,NA,NA,NA,NA,NA,NA,NA,NA,NA,NA,NA,NA,NA,NA,NA,NA,NA,NA
054fb,shallow,flow.Sequence,2_12_0,NA,NA,completion,3730.453,218400.70000005,218399.262,218416.026,222146.479,222147.5,2023-05-28T13:23:33Z,222163.13,Papier,karatasi,d,uchambuzi,usalama,kukataliwa,NA,NA,NA,"c(""distractor1"", ""distractor2"", ""distractor3"")",NA,NA,NA,NA,NA,NA,NA,NA,NA,NA,NA,NA,NA,NA,NA,NA,NA,NA,NA
054fb,task,flow.Sequence,2_12,NA,NA,completion,3730.453,218400.60000002,218399.262,218416.026,222146.479,222147.70000005,2023-05-28T13:23:33Z,222163.13,Papier,karatasi,d,uchambuzi,usalama,kukataliwa,NA,NA,NA,"c(""distractor1"", ""distractor2"", ""distractor3"")",NA,NA,NA,NA,NA,NA,NA,NA,NA,NA,NA,NA,NA,NA,NA,NA,NA,NA,NA
054fb,Shallow Question,html.Page,2_13_0_0,NA,NA,form submission,3011.2699999762,222147.89999998,222146.479,222163.13,225174.39999998,225174.60000002,2023-05-28T13:23:36Z,225176.959,Integrität,uadilifu,d,muungano,mtiririko,upunguaji,uadilifu,NA,NA,"c(""distractor1"", ""distractor2"", ""distractor3"")",NA,NA,NA,NA,NA,NA,NA,NA,NA,NA,NA,NA,NA,NA,NA,NA,NA,NA,NA
054fb,Save data screen,canvas.Screen,2_13_0_1,NA,NA,timeout,499.701,225176,225160.751,225176.959,225660.184,225661.39999998,2023-05-28T13:23:36Z,225676.66,Integrität,uadilifu,d,muungano,mtiririko,upunguaji,NA,NA,1,"c(""distractor1"", ""distractor2"", ""distractor3"")",NA,NA,NA,NA,NA,NA,NA,NA,NA,NA,NA,NA,NA,NA,NA,NA,NA,NA,NA
054fb,shallow,flow.Sequence,2_13_0,NA,NA,completion,3497.054,222147.80000007,222146.479,222163.13,225660.184,225661.70000005,2023-05-28T13:23:36Z,225676.66,Integrität,uadilifu,d,muungano,mtiririko,upunguaji,NA,NA,NA,"c(""distractor1"", ""distractor2"", ""distractor3"")",NA,NA,NA,NA,NA,NA,NA,NA,NA,NA,NA,NA,NA,NA,NA,NA,NA,NA,NA
054fb,task,flow.Sequence,2_13,NA,NA,completion,3497.054,222147.80000007,222146.479,222163.13,225660.184,225661.89999998,2023-05-28T13:23:36Z,225676.66,Integrität,uadilifu,d,muungano,mtiririko,upunguaji,NA,NA,NA,"c(""distractor1"", ""distractor2"", ""distractor3"")",NA,NA,NA,NA,NA,NA,NA,NA,NA,NA,NA,NA,NA,NA,NA,NA,NA,NA,NA
054fb,Shallow Question,html.Page,2_14_0_0,NA,NA,form submission,5057.6400000715,225662,225660.184,225676.66,230734.30000007,230734.60000002,2023-05-28T13:23:41Z,230739.045,Respekt,heshima,d,changamnao,upinzani,ufanisi,heshima,NA,NA,"c(""distractor1"", ""distractor2"", ""distractor3"")",NA,NA,NA,NA,NA,NA,NA,NA,NA,NA,NA,NA,NA,NA,NA,NA,NA,NA,NA
054fb,Save data screen,canvas.Screen,2_14_0_1,NA,NA,timeout,499.69199999998,230736,230722.718,230739.045,231222.042,231223,2023-05-28T13:23:42Z,231238.737,Respekt,heshima,d,changamnao,upinzani,ufanisi,NA,NA,1,"c(""distractor1"", ""distractor2"", ""distractor3"")",NA,NA,NA,NA,NA,NA,NA,NA,NA,NA,NA,NA,NA,NA,NA,NA,NA,NA,NA
054fb,shallow,flow.Sequence,2_14_0,NA,NA,completion,5545.382,225661.89999998,225660.184,225676.66,231222.042,231223.10000002,2023-05-28T13:23:42Z,231238.737,Respekt,heshima,d,changamnao,upinzani,ufanisi,NA,NA,NA,"c(""distractor1"", ""distractor2"", ""distractor3"")",NA,NA,NA,NA,NA,NA,NA,NA,NA,NA,NA,NA,NA,NA,NA,NA,NA,NA,NA
054fb,task,flow.Sequence,2_14,NA,NA,completion,5545.382,225661.89999998,225660.184,225676.66,231222.042,231223.30000007,2023-05-28T13:23:42Z,231238.737,Respekt,heshima,d,changamnao,upinzani,ufanisi,NA,NA,NA,"c(""distractor1"", ""distractor2"", ""distractor3"")",NA,NA,NA,NA,NA,NA,NA,NA,NA,NA,NA,NA,NA,NA,NA,NA,NA,NA,NA
054fb,Shallow Question,html.Page,2_15_0_0,NA,NA,form submission,2128.5630000715,231223.5,231222.042,231238.737,233367.30000007,233367.60000002,2023-05-28T13:23:44Z,233370.195,Fleisch,mshakiki,d,kizunguzungu,mshikamano,angusho,mshakiki,NA,NA,"c(""distractor1"", ""distractor2"", ""distractor3"")",NA,NA,NA,NA,NA,NA,NA,NA,NA,NA,NA,NA,NA,NA,NA,NA,NA,NA,NA
054fb,Save data screen,canvas.Screen,2_15_0_1,NA,NA,timeout,499.992,233367.89999998,233353.928,233370.195,233853.543,233854.39999998,2023-05-28T13:23:44Z,233870.187,Fleisch,mshakiki,d,kizunguzungu,mshikamano,angusho,NA,NA,1,"c(""distractor1"", ""distractor2"", ""distractor3"")",NA,NA,NA,NA,NA,NA,NA,NA,NA,NA,NA,NA,NA,NA,NA,NA,NA,NA,NA
054fb,shallow,flow.Sequence,2_15_0,NA,NA,completion,2614.806,231223.39999998,231222.042,231238.737,233853.543,233854.60000002,2023-05-28T13:23:44Z,233870.187,Fleisch,mshakiki,d,kizunguzungu,mshikamano,angusho,NA,NA,NA,"c(""distractor1"", ""distractor2"", ""distractor3"")",NA,NA,NA,NA,NA,NA,NA,NA,NA,NA,NA,NA,NA,NA,NA,NA,NA,NA,NA
054fb,task,flow.Sequence,2_15,NA,NA,completion,2614.806,231223.39999998,231222.042,231238.737,233853.543,233854.70000005,2023-05-28T13:23:44Z,233870.187,Fleisch,mshakiki,d,kizunguzungu,mshikamano,angusho,NA,NA,NA,"c(""distractor1"", ""distractor2"", ""distractor3"")",NA,NA,NA,NA,NA,NA,NA,NA,NA,NA,NA,NA,NA,NA,NA,NA,NA,NA,NA
054fb,retrieval block 2 (multiple choice),flow.Loop,2,NA,NA,completion,122882.589,110956.10000002,110954.437,110970.954,233853.543,233854.89999998,2023-05-28T13:23:44Z,233870.187,NA,NA,NA,NA,NA,NA,NA,NA,NA,"c(""distractor1"", ""distractor2"", ""distractor3"")",NA,NA,NA,NA,NA,NA,NA,NA,NA,NA,NA,NA,NA,NA,NA,NA,NA,NA,NA
054fb,End,canvas.Screen,3,NA,keypress(Space),response,1631.5130000477,233855,233853.543,233870.187,235501.70000005,235502.80000007,2023-05-28T13:23:46Z,235518.826,NA,NA,NA,NA,NA,NA,NA,NA,NA,NULL,NA,NA,NA,NA,NA,NA,NA,NA,NA,NA,NA,NA,NA,NA,NA,NA,NA,NA,NA
054fb,root,flow.Sequence,NA,NA,NA,completion,234856.47600005,633.70000004768,628.378,645.224,235501.70000005,235503.30000007,2023-05-28T13:23:46Z,235518.826,NA,NA,NA,NA,NA,NA,NA,NA,NA,NULL,NA,NA,NA,NA,NA,NA,NA,NA,NA,NA,NA,NA,NA,NA,NA,NA,NA,NA,NA
5d66f,Introduction delayed retrieval,canvas.Screen,0,weiter,keypress(Space),response,15741.149999976,1046.8999999762,1031.948,1065.25,16806.399999976,16809.300000072,2023-05-28T13:16:09Z,16818.973,NA,NA,NA,NA,NA,NA,NA,NA,NA,NULL,172,2,20.2.4,https://neurocog.fernuni.ch/studies/vweber/sliechti/delayed/index.html?vp=172&sess=2,"Mozilla/5.0 (Windows NT 10.0; Win64; x64) AppleWebKit/537.36 (KHTML, like Gecko) Chrome/113.0.0.0 Safari/537.36",Win32,de-CH,de,Europe/Zurich,-120,1280,720,1280,553,1280,601,1.5,production,f5b4a49f956347addd546a832a3327688c2c0fef
5d66f,Deep Question,html.Page,1_0_0_0,NA,NA,form submission,5096.4269999762,16809.800000072,16802.327,16818.973,21915.399999976,21915.5,2023-05-28T13:16:14Z,21931.479,Fleisch,mshakiki,d,kizunguzungu,mshikamano,angusho,mshakiki,NA,NA,NULL,NA,NA,NA,NA,NA,NA,NA,NA,NA,NA,NA,NA,NA,NA,NA,NA,NA,NA,NA
5d66f,Save data screen,canvas.Screen,1_0_0_1,NA,NA,timeout,499.602,21916.200000048,21898.512,21931.479,22414.726,22416.100000024,2023-05-28T13:16:15Z,22431.081,Fleisch,mshakiki,d,kizunguzungu,mshikamano,angusho,NA,NA,1,NULL,NA,NA,NA,NA,NA,NA,NA,NA,NA,NA,NA,NA,NA,NA,NA,NA,NA,NA,NA
5d66f,deep,flow.Sequence,1_0_0,NA,NA,completion,5595.753,16809.800000072,16802.327,16818.973,22414.726,22416.399999976,2023-05-28T13:16:15Z,22431.081,Fleisch,mshakiki,d,kizunguzungu,mshikamano,angusho,NA,NA,NA,NULL,NA,NA,NA,NA,NA,NA,NA,NA,NA,NA,NA,NA,NA,NA,NA,NA,NA,NA,NA
5d66f,task,flow.Sequence,1_0,NA,NA,completion,5595.753,16809.700000048,16802.327,16818.973,22414.726,22416.600000024,2023-05-28T13:16:15Z,22431.081,Fleisch,mshakiki,d,kizunguzungu,mshikamano,angusho,NA,NA,NA,NULL,NA,NA,NA,NA,NA,NA,NA,NA,NA,NA,NA,NA,NA,NA,NA,NA,NA,NA,NA
5d66f,Deep Question,html.Page,1_1_0_0,NA,NA,form submission,4866.7190000715,22416.700000048,22414.726,22431.081,27297.800000072,27298.300000072,2023-05-28T13:16:20Z,27310.316,Entwicklung,maendeleo,s,uangavu,mshindwa,badiliko,utamandi,NA,NA,NULL,NA,NA,NA,NA,NA,NA,NA,NA,NA,NA,NA,NA,NA,NA,NA,NA,NA,NA,NA
5d66f,Save data screen,canvas.Screen,1_1_0_1,NA,NA,timeout,499.92,27298.899999976,27293.925,27310.316,27793.683,27794.800000072,2023-05-28T13:16:20Z,27810.236,Entwicklung,maendeleo,s,uangavu,mshindwa,badiliko,NA,NA,0,NULL,NA,NA,NA,NA,NA,NA,NA,NA,NA,NA,NA,NA,NA,NA,NA,NA,NA,NA,NA
5d66f,deep,flow.Sequence,1_1_0,NA,NA,completion,5362.602,22416.700000048,22414.726,22431.081,27793.683,27795.100000024,2023-05-28T13:16:20Z,27810.236,Entwicklung,maendeleo,s,uangavu,mshindwa,badiliko,NA,NA,NA,NULL,NA,NA,NA,NA,NA,NA,NA,NA,NA,NA,NA,NA,NA,NA,NA,NA,NA,NA,NA
5d66f,task,flow.Sequence,1_1,NA,NA,completion,5362.602,22416.600000024,22414.726,22431.081,27793.683,27795.399999976,2023-05-28T13:16:20Z,27810.236,Entwicklung,maendeleo,s,uangavu,mshindwa,badiliko,NA,NA,NA,NULL,NA,NA,NA,NA,NA,NA,NA,NA,NA,NA,NA,NA,NA,NA,NA,NA,NA,NA,NA
5d66f,Deep Question,html.Page,1_2_0_0,NA,NA,form submission,9033.8640000238,27795.600000024,27793.683,27810.236,36844.100000024,36844.5,2023-05-28T13:16:29Z,36852.459,Papier,karatasi,d,uchambuzi,usalama,kukataliwa,katamandi,NA,NA,NULL,NA,NA,NA,NA,NA,NA,NA,NA,NA,NA,NA,NA,NA,NA,NA,NA,NA,NA,NA
5d66f,Save data screen,canvas.Screen,1_2_0_1,NA,NA,timeout,500.022,36845,36836.198,36852.459,37335.74,37337,2023-05-28T13:16:30Z,37352.481,Papier,karatasi,d,uchambuzi,usalama,kukataliwa,NA,NA,0,NULL,NA,NA,NA,NA,NA,NA,NA,NA,NA,NA,NA,NA,NA,NA,NA,NA,NA,NA,NA
5d66f,deep,flow.Sequence,1_2_0,NA,NA,completion,9525.504,27795.5,27793.683,27810.236,37335.74,37337.300000072,2023-05-28T13:16:30Z,37352.481,Papier,karatasi,d,uchambuzi,usalama,kukataliwa,NA,NA,NA,NULL,NA,NA,NA,NA,NA,NA,NA,NA,NA,NA,NA,NA,NA,NA,NA,NA,NA,NA,NA
5d66f,task,flow.Sequence,1_2,NA,NA,completion,9525.504,27795.399999976,27793.683,27810.236,37335.74,37337.600000024,2023-05-28T13:16:30Z,37352.481,Papier,karatasi,d,uchambuzi,usalama,kukataliwa,NA,NA,NA,NULL,NA,NA,NA,NA,NA,NA,NA,NA,NA,NA,NA,NA,NA,NA,NA,NA,NA,NA,NA
5d66f,Deep Question,html.Page,1_3_0_0,NA,NA,form submission,5867.3190000715,37337.800000072,37335.74,37352.481,43219.800000072,43219.899999976,2023-05-28T13:16:36Z,43230.52,Vorwurf,mashtaka,s,msukumo,mtangulizi,uenyekiti,mshaezogu,NA,NA,NULL,NA,NA,NA,NA,NA,NA,NA,NA,NA,NA,NA,NA,NA,NA,NA,NA,NA,NA,NA
5d66f,Save data screen,canvas.Screen,1_3_0_1,NA,NA,timeout,500.063,43220.399999976,43213.995,43230.52,43713.83,43714.899999976,2023-05-28T13:16:36Z,43730.583,Vorwurf,mashtaka,s,msukumo,mtangulizi,uenyekiti,NA,NA,0,NULL,NA,NA,NA,NA,NA,NA,NA,NA,NA,NA,NA,NA,NA,NA,NA,NA,NA,NA,NA
5d66f,deep,flow.Sequence,1_3_0,NA,NA,completion,6361.349,37337.800000072,37335.74,37352.481,43713.83,43715.100000024,2023-05-28T13:16:36Z,43730.583,Vorwurf,mashtaka,s,msukumo,mtangulizi,uenyekiti,NA,NA,NA,NULL,NA,NA,NA,NA,NA,NA,NA,NA,NA,NA,NA,NA,NA,NA,NA,NA,NA,NA,NA
5d66f,task,flow.Sequence,1_3,NA,NA,completion,6361.349,37337.800000072,37335.74,37352.481,43713.83,43715.300000072,2023-05-28T13:16:36Z,43730.583,Vorwurf,mashtaka,s,msukumo,mtangulizi,uenyekiti,NA,NA,NA,NULL,NA,NA,NA,NA,NA,NA,NA,NA,NA,NA,NA,NA,NA,NA,NA,NA,NA,NA,NA
5d66f,Deep Question,html.Page,1_4_0_0,NA,NA,form submission,11618.017000024,43715.5,43713.83,43730.583,55348.600000024,55348.899999976,2023-05-28T13:16:48Z,55353.95,Betrüger,mdanganyifu,s,mwanamuziki,wastani,mahakama,mshabulizi,NA,NA,NULL,NA,NA,NA,NA,NA,NA,NA,NA,NA,NA,NA,NA,NA,NA,NA,NA,NA,NA,NA
5d66f,Save data screen,canvas.Screen,1_4_0_1,NA,NA,timeout,500.012,55349.300000072,55337.61,55353.95,55837.292,55838.399999976,2023-05-28T13:16:48Z,55853.962,Betrüger,mdanganyifu,s,mwanamuziki,wastani,mahakama,NA,NA,0,NULL,NA,NA,NA,NA,NA,NA,NA,NA,NA,NA,NA,NA,NA,NA,NA,NA,NA,NA,NA
5d66f,deep,flow.Sequence,1_4_0,NA,NA,completion,12106.709,43715.5,43713.83,43730.583,55837.292,55838.600000024,2023-05-28T13:16:48Z,55853.962,Betrüger,mdanganyifu,s,mwanamuziki,wastani,mahakama,NA,NA,NA,NULL,NA,NA,NA,NA,NA,NA,NA,NA,NA,NA,NA,NA,NA,NA,NA,NA,NA,NA,NA
5d66f,task,flow.Sequence,1_4,NA,NA,completion,12106.709,43715.5,43713.83,43730.583,55837.292,55838.800000072,2023-05-28T13:16:48Z,55853.962,Betrüger,mdanganyifu,s,mwanamuziki,wastani,mahakama,NA,NA,NA,NULL,NA,NA,NA,NA,NA,NA,NA,NA,NA,NA,NA,NA,NA,NA,NA,NA,NA,NA,NA
5d66f,Deep Question,html.Page,1_5_0_0,NA,NA,form submission,2447.2380000477,55839,55837.292,55853.962,58301.200000048,58301.399999976,2023-05-28T13:16:51Z,58322.949,Orientierung,urekebisho,d,uelekeo,marekebisho,utunzaji,fökdj,NA,NA,NULL,NA,NA,NA,NA,NA,NA,NA,NA,NA,NA,NA,NA,NA,NA,NA,NA,NA,NA,NA
5d66f,Save data screen,canvas.Screen,1_5_0_1,NA,NA,timeout,495.147,58302.100000024,58284.971,58322.949,58801.443,58802.5,2023-05-28T13:16:51Z,58818.096,Orientierung,urekebisho,d,uelekeo,marekebisho,utunzaji,NA,NA,0,NULL,NA,NA,NA,NA,NA,NA,NA,NA,NA,NA,NA,NA,NA,NA,NA,NA,NA,NA,NA
5d66f,deep,flow.Sequence,1_5_0,NA,NA,completion,2947.481,55839,55837.292,55853.962,58801.443,58802.700000048,2023-05-28T13:16:51Z,58818.096,Orientierung,urekebisho,d,uelekeo,marekebisho,utunzaji,NA,NA,NA,NULL,NA,NA,NA,NA,NA,NA,NA,NA,NA,NA,NA,NA,NA,NA,NA,NA,NA,NA,NA
5d66f,task,flow.Sequence,1_5,NA,NA,completion,2947.481,55838.899999976,55837.292,55853.962,58801.443,58802.899999976,2023-05-28T13:16:51Z,58818.096,Orientierung,urekebisho,d,uelekeo,marekebisho,utunzaji,NA,NA,NA,NULL,NA,NA,NA,NA,NA,NA,NA,NA,NA,NA,NA,NA,NA,NA,NA,NA,NA,NA,NA
5d66f,Deep Question,html.Page,1_6_0_0,NA,NA,form submission,2437.2040000715,58803.100000024,58801.443,58818.096,61255.300000072,61255.5,2023-05-28T13:16:54Z,61265.722,Genehmigung,idhini,s,mwanamke,itikadi,fedheha,jfdöklafj,NA,NA,NULL,NA,NA,NA,NA,NA,NA,NA,NA,NA,NA,NA,NA,NA,NA,NA,NA,NA,NA,NA
5d66f,Save data screen,canvas.Screen,1_6_0_1,NA,NA,timeout,500.053,61255.899999976,61249.25,61265.722,61749.121,61750.100000024,2023-05-28T13:16:54Z,61765.775,Genehmigung,idhini,s,mwanamke,itikadi,fedheha,NA,NA,0,NULL,NA,NA,NA,NA,NA,NA,NA,NA,NA,NA,NA,NA,NA,NA,NA,NA,NA,NA,NA
5d66f,deep,flow.Sequence,1_6_0,NA,NA,completion,2931.025,58803.100000024,58801.443,58818.096,61749.121,61750.399999976,2023-05-28T13:16:54Z,61765.775,Genehmigung,idhini,s,mwanamke,itikadi,fedheha,NA,NA,NA,NULL,NA,NA,NA,NA,NA,NA,NA,NA,NA,NA,NA,NA,NA,NA,NA,NA,NA,NA,NA
5d66f,task,flow.Sequence,1_6,NA,NA,completion,2931.025,58803.100000024,58801.443,58818.096,61749.121,61750.5,2023-05-28T13:16:54Z,61765.775,Genehmigung,idhini,s,mwanamke,itikadi,fedheha,NA,NA,NA,NULL,NA,NA,NA,NA,NA,NA,NA,NA,NA,NA,NA,NA,NA,NA,NA,NA,NA,NA,NA
5d66f,Deep Question,html.Page,1_7_0_0,NA,NA,form submission,16494.325000024,61750.700000048,61749.121,61765.775,78260.100000024,78260.399999976,2023-05-28T13:17:11Z,78268.506,Wechsel,ugeuzaji,d,utambulisho,kujenga,wasiwasi,ukata,NA,NA,NULL,NA,NA,NA,NA,NA,NA,NA,NA,NA,NA,NA,NA,NA,NA,NA,NA,NA,NA,NA
5d66f,Save data screen,canvas.Screen,1_7_0_1,NA,NA,timeout,499.645,78262.100000024,78251.899,78268.506,78751.485,78752.5,2023-05-28T13:17:11Z,78768.151,Wechsel,ugeuzaji,d,utambulisho,kujenga,wasiwasi,NA,NA,0,NULL,NA,NA,NA,NA,NA,NA,NA,NA,NA,NA,NA,NA,NA,NA,NA,NA,NA,NA,NA
5d66f,deep,flow.Sequence,1_7_0,NA,NA,completion,16985.71,61750.700000048,61749.121,61765.775,78751.485,78752.700000048,2023-05-28T13:17:11Z,78768.151,Wechsel,ugeuzaji,d,utambulisho,kujenga,wasiwasi,NA,NA,NA,NULL,NA,NA,NA,NA,NA,NA,NA,NA,NA,NA,NA,NA,NA,NA,NA,NA,NA,NA,NA
5d66f,task,flow.Sequence,1_7,NA,NA,completion,16985.71,61750.600000024,61749.121,61765.775,78751.485,78752.899999976,2023-05-28T13:17:11Z,78768.151,Wechsel,ugeuzaji,d,utambulisho,kujenga,wasiwasi,NA,NA,NA,NULL,NA,NA,NA,NA,NA,NA,NA,NA,NA,NA,NA,NA,NA,NA,NA,NA,NA,NA,NA
5d66f,Deep Question,html.Page,1_8_0_0,NA,NA,form submission,3849.2489999762,78753.100000024,78751.485,78768.151,82617.399999976,82617.600000024,2023-05-28T13:17:15Z,82631.548,Flexibilität,kubadilika,s,enjini,usikilivu,hesabu,dkjf,NA,NA,NULL,NA,NA,NA,NA,NA,NA,NA,NA,NA,NA,NA,NA,NA,NA,NA,NA,NA,NA,NA
5d66f,Save data screen,canvas.Screen,1_8_0_1,NA,NA,timeout,499.973,82618.899999976,82615.035,82631.548,83114.855,83115.899999976,2023-05-28T13:17:15Z,83131.521,Flexibilität,kubadilika,s,enjini,usikilivu,hesabu,NA,NA,0,NULL,NA,NA,NA,NA,NA,NA,NA,NA,NA,NA,NA,NA,NA,NA,NA,NA,NA,NA,NA
5d66f,deep,flow.Sequence,1_8_0,NA,NA,completion,4346.704,78753,78751.485,78768.151,83114.855,83116.100000024,2023-05-28T13:17:15Z,83131.521,Flexibilität,kubadilika,s,enjini,usikilivu,hesabu,NA,NA,NA,NULL,NA,NA,NA,NA,NA,NA,NA,NA,NA,NA,NA,NA,NA,NA,NA,NA,NA,NA,NA
5d66f,task,flow.Sequence,1_8,NA,NA,completion,4346.704,78753,78751.485,78768.151,83114.855,83116.300000072,2023-05-28T13:17:15Z,83131.521,Flexibilität,kubadilika,s,enjini,usikilivu,hesabu,NA,NA,NA,NULL,NA,NA,NA,NA,NA,NA,NA,NA,NA,NA,NA,NA,NA,NA,NA,NA,NA,NA,NA
5d66f,Deep Question,html.Page,1_9_0_0,NA,NA,form submission,5255.6790000477,83116.5,83114.855,83131.521,88387.200000048,88387.399999976,2023-05-28T13:17:21Z,88393.536,Begegnung,kukutana,s,mmasihiya,mpiganaji,husiano,shamandi,NA,NA,NULL,NA,NA,NA,NA,NA,NA,NA,NA,NA,NA,NA,NA,NA,NA,NA,NA,NA,NA,NA
5d66f,Save data screen,canvas.Screen,1_9_0_1,NA,NA,timeout,499.80900000001,88389,88377.339,88393.536,88876.796,88877.700000048,2023-05-28T13:17:21Z,88893.345,Begegnung,kukutana,s,mmasihiya,mpiganaji,husiano,NA,NA,0,NULL,NA,NA,NA,NA,NA,NA,NA,NA,NA,NA,NA,NA,NA,NA,NA,NA,NA,NA,NA
5d66f,deep,flow.Sequence,1_9_0,NA,NA,completion,5745.275,83116.5,83114.855,83131.521,88876.796,88877.899999976,2023-05-28T13:17:21Z,88893.345,Begegnung,kukutana,s,mmasihiya,mpiganaji,husiano,NA,NA,NA,NULL,NA,NA,NA,NA,NA,NA,NA,NA,NA,NA,NA,NA,NA,NA,NA,NA,NA,NA,NA
5d66f,task,flow.Sequence,1_9,NA,NA,completion,5745.275,83116.399999976,83114.855,83131.521,88876.796,88878.100000024,2023-05-28T13:17:21Z,88893.345,Begegnung,kukutana,s,mmasihiya,mpiganaji,husiano,NA,NA,NA,NULL,NA,NA,NA,NA,NA,NA,NA,NA,NA,NA,NA,NA,NA,NA,NA,NA,NA,NA,NA
5d66f,Deep Question,html.Page,1_10_0_0,NA,NA,form submission,11760.955000072,88878.200000048,88876.796,88893.345,100654.30000007,100654.39999998,2023-05-28T13:17:33Z,100666.657,Atmosphäre,angahewa,s,kuteseka,usahihi,kutoamini,hengewa,NA,NA,NULL,NA,NA,NA,NA,NA,NA,NA,NA,NA,NA,NA,NA,NA,NA,NA,NA,NA,NA,NA
5d66f,Save data screen,canvas.Screen,1_10_0_1,NA,NA,timeout,499.74399999999,100656,100650.338,100666.657,101149.644,101157.89999998,2023-05-28T13:17:33Z,101166.401,Atmosphäre,angahewa,s,kuteseka,usahihi,kutoamini,NA,NA,0,NULL,NA,NA,NA,NA,NA,NA,NA,NA,NA,NA,NA,NA,NA,NA,NA,NA,NA,NA,NA
5d66f,deep,flow.Sequence,1_10_0,NA,NA,completion,12256.299,88878.200000048,88876.796,88893.345,101149.644,101158.20000005,2023-05-28T13:17:33Z,101166.401,Atmosphäre,angahewa,s,kuteseka,usahihi,kutoamini,NA,NA,NA,NULL,NA,NA,NA,NA,NA,NA,NA,NA,NA,NA,NA,NA,NA,NA,NA,NA,NA,NA,NA
5d66f,task,flow.Sequence,1_10,NA,NA,completion,12256.299,88878.200000048,88876.796,88893.345,101149.644,101158.30000007,2023-05-28T13:17:33Z,101166.401,Atmosphäre,angahewa,s,kuteseka,usahihi,kutoamini,NA,NA,NA,NULL,NA,NA,NA,NA,NA,NA,NA,NA,NA,NA,NA,NA,NA,NA,NA,NA,NA,NA,NA
5d66f,Deep Question,html.Page,1_11_0_0,NA,NA,form submission,13898.599,101158.39999998,101149.644,101166.401,115065,115065.30000007,2023-05-28T13:17:47Z,115071.53,Niveau,kiwango,d,usimamizi,mwamali,mshairi,marla,NA,NA,NULL,NA,NA,NA,NA,NA,NA,NA,NA,NA,NA,NA,NA,NA,NA,NA,NA,NA,NA,NA
5d66f,Save data screen,canvas.Screen,1_11_0_1,NA,NA,timeout,500.015,115067,115055.31,115071.53,115554.891,115555.70000005,2023-05-28T13:17:48Z,115571.545,Niveau,kiwango,d,usimamizi,mwamali,mshairi,NA,NA,0,NULL,NA,NA,NA,NA,NA,NA,NA,NA,NA,NA,NA,NA,NA,NA,NA,NA,NA,NA,NA
5d66f,deep,flow.Sequence,1_11_0,NA,NA,completion,14388.49,101158.39999998,101149.644,101166.401,115554.891,115555.89999998,2023-05-28T13:17:48Z,115571.545,Niveau,kiwango,d,usimamizi,mwamali,mshairi,NA,NA,NA,NULL,NA,NA,NA,NA,NA,NA,NA,NA,NA,NA,NA,NA,NA,NA,NA,NA,NA,NA,NA
5d66f,task,flow.Sequence,1_11,NA,NA,completion,14388.49,101158.39999998,101149.644,101166.401,115554.891,115556.10000002,2023-05-28T13:17:48Z,115571.545,Niveau,kiwango,d,usimamizi,mwamali,mshairi,NA,NA,NA,NULL,NA,NA,NA,NA,NA,NA,NA,NA,NA,NA,NA,NA,NA,NA,NA,NA,NA,NA,NA
5d66f,Deep Question,html.Page,1_12_0_0,NA,NA,form submission,3778.7550000715,115556.30000007,115554.891,115571.545,119350.30000007,119350.5,2023-05-28T13:17:52Z,119351.408,Respekt,heshima,d,changamnao,upinzani,ufanisi,heshima,NA,NA,NULL,NA,NA,NA,NA,NA,NA,NA,NA,NA,NA,NA,NA,NA,NA,NA,NA,NA,NA,NA
5d66f,Save data screen,canvas.Screen,1_12_0_1,NA,NA,timeout,499.63900000001,119351.89999998,119334.776,119351.408,119834.685,119835.80000007,2023-05-28T13:17:52Z,119851.047,Respekt,heshima,d,changamnao,upinzani,ufanisi,NA,NA,1,NULL,NA,NA,NA,NA,NA,NA,NA,NA,NA,NA,NA,NA,NA,NA,NA,NA,NA,NA,NA
5d66f,deep,flow.Sequence,1_12_0,NA,NA,completion,4263.14,115556.20000005,115554.891,115571.545,119834.685,119835.89999998,2023-05-28T13:17:52Z,119851.047,Respekt,heshima,d,changamnao,upinzani,ufanisi,NA,NA,NA,NULL,NA,NA,NA,NA,NA,NA,NA,NA,NA,NA,NA,NA,NA,NA,NA,NA,NA,NA,NA
5d66f,task,flow.Sequence,1_12,NA,NA,completion,4263.14,115556.20000005,115554.891,115571.545,119834.685,119836.10000002,2023-05-28T13:17:52Z,119851.047,Respekt,heshima,d,changamnao,upinzani,ufanisi,NA,NA,NA,NULL,NA,NA,NA,NA,NA,NA,NA,NA,NA,NA,NA,NA,NA,NA,NA,NA,NA,NA,NA
5d66f,Deep Question,html.Page,1_13_0_0,NA,NA,form submission,9356.8529999762,119836.20000005,119834.685,119851.047,129207.89999998,129208,2023-05-28T13:18:02Z,129210,Erneuerung,ukarabati,d,ushawishi,ukalifu,unyonyaji,jkl,NA,NA,NULL,NA,NA,NA,NA,NA,NA,NA,NA,NA,NA,NA,NA,NA,NA,NA,NA,NA,NA,NA
5d66f,Save data screen,canvas.Screen,1_13_0_1,NA,NA,timeout,499.78999999999,129209.60000002,129193.644,129210,129693.263,129694.30000007,2023-05-28T13:18:02Z,129709.79,Erneuerung,ukarabati,d,ushawishi,ukalifu,unyonyaji,NA,NA,0,NULL,NA,NA,NA,NA,NA,NA,NA,NA,NA,NA,NA,NA,NA,NA,NA,NA,NA,NA,NA
5d66f,deep,flow.Sequence,1_13_0,NA,NA,completion,9842.216,119836.10000002,119834.685,119851.047,129693.263,129694.39999998,2023-05-28T13:18:02Z,129709.79,Erneuerung,ukarabati,d,ushawishi,ukalifu,unyonyaji,NA,NA,NA,NULL,NA,NA,NA,NA,NA,NA,NA,NA,NA,NA,NA,NA,NA,NA,NA,NA,NA,NA,NA
5d66f,task,flow.Sequence,1_13,NA,NA,completion,9842.216,119836.10000002,119834.685,119851.047,129693.263,129694.5,2023-05-28T13:18:02Z,129709.79,Erneuerung,ukarabati,d,ushawishi,ukalifu,unyonyaji,NA,NA,NA,NULL,NA,NA,NA,NA,NA,NA,NA,NA,NA,NA,NA,NA,NA,NA,NA,NA,NA,NA,NA
5d66f,Deep Question,html.Page,1_14_0_0,NA,NA,form submission,5229.3100000238,129694.70000005,129693.263,129709.79,134939.10000002,134939.30000007,2023-05-28T13:18:07Z,134971.905,Integrität,uadilifu,d,muungano,mtiririko,upunguaji,aranto,NA,NA,NULL,NA,NA,NA,NA,NA,NA,NA,NA,NA,NA,NA,NA,NA,NA,NA,NA,NA,NA,NA
5d66f,Save data screen,canvas.Screen,1_14_0_1,NA,NA,timeout,499.69,134940.60000002,134955.582,134971.905,135454.967,135456,2023-05-28T13:18:08Z,135471.595,Integrität,uadilifu,d,muungano,mtiririko,upunguaji,NA,NA,0,NULL,NA,NA,NA,NA,NA,NA,NA,NA,NA,NA,NA,NA,NA,NA,NA,NA,NA,NA,NA
5d66f,deep,flow.Sequence,1_14_0,NA,NA,completion,5745.177,129694.70000005,129693.263,129709.79,135454.967,135456.30000007,2023-05-28T13:18:08Z,135471.595,Integrität,uadilifu,d,muungano,mtiririko,upunguaji,NA,NA,NA,NULL,NA,NA,NA,NA,NA,NA,NA,NA,NA,NA,NA,NA,NA,NA,NA,NA,NA,NA,NA
5d66f,task,flow.Sequence,1_14,NA,NA,completion,5745.177,129694.60000002,129693.263,129709.79,135454.967,135456.39999998,2023-05-28T13:18:08Z,135471.595,Integrität,uadilifu,d,muungano,mtiririko,upunguaji,NA,NA,NA,NULL,NA,NA,NA,NA,NA,NA,NA,NA,NA,NA,NA,NA,NA,NA,NA,NA,NA,NA,NA
5d66f,Deep Question,html.Page,1_15_0_0,NA,NA,form submission,6647.7050000715,135456.5,135454.967,135471.595,142119.30000007,142119.5,2023-05-28T13:18:14Z,142132.575,Stimmung,kinyongo,s,kilekile,kisambo,madhehebu,polyno,NA,NA,NULL,NA,NA,NA,NA,NA,NA,NA,NA,NA,NA,NA,NA,NA,NA,NA,NA,NA,NA,NA
5d66f,Save data screen,canvas.Screen,1_15_0_1,NA,NA,timeout,499.72899999999,142121.10000002,142116.29,142132.575,142615.905,142616.70000005,2023-05-28T13:18:15Z,142632.304,Stimmung,kinyongo,s,kilekile,kisambo,madhehebu,NA,NA,0,NULL,NA,NA,NA,NA,NA,NA,NA,NA,NA,NA,NA,NA,NA,NA,NA,NA,NA,NA,NA
5d66f,deep,flow.Sequence,1_15_0,NA,NA,completion,7144.31,135456.5,135454.967,135471.595,142615.905,142617,2023-05-28T13:18:15Z,142632.304,Stimmung,kinyongo,s,kilekile,kisambo,madhehebu,NA,NA,NA,NULL,NA,NA,NA,NA,NA,NA,NA,NA,NA,NA,NA,NA,NA,NA,NA,NA,NA,NA,NA
5d66f,task,flow.Sequence,1_15,NA,NA,completion,7144.31,135456.5,135454.967,135471.595,142615.905,142617.10000002,2023-05-28T13:18:15Z,142632.304,Stimmung,kinyongo,s,kilekile,kisambo,madhehebu,NA,NA,NA,NULL,NA,NA,NA,NA,NA,NA,NA,NA,NA,NA,NA,NA,NA,NA,NA,NA,NA,NA,NA
5d66f,retrieval block 1 (cued recall),flow.Loop,1,NA,NA,completion,125796.932,16809.700000048,16802.327,16818.973,142615.905,142617.30000007,2023-05-28T13:18:15Z,142632.304,NA,NA,NA,NA,NA,NA,NA,NA,NA,NULL,NA,NA,NA,NA,NA,NA,NA,NA,NA,NA,NA,NA,NA,NA,NA,NA,NA,NA,NA
5d66f,Shallow Question,html.Page,2_0_0_0,NA,NA,form submission,3616.2960000238,142617.5,142615.905,142632.304,146248.60000002,146248.89999998,2023-05-28T13:18:19Z,146262.916,Atmosphäre,angahewa,s,kuteseka,usahihi,kutoamini,angahewa,NA,NA,"c(""distractor1"", ""distractor2"", ""distractor3"")",NA,NA,NA,NA,NA,NA,NA,NA,NA,NA,NA,NA,NA,NA,NA,NA,NA,NA,NA
5d66f,Save data screen,canvas.Screen,2_0_0_1,NA,NA,timeout,499.42600000001,146250.10000002,146246.312,146262.916,146745.548,146746.60000002,2023-05-28T13:18:19Z,146762.342,Atmosphäre,angahewa,s,kuteseka,usahihi,kutoamini,NA,NA,1,"c(""distractor1"", ""distractor2"", ""distractor3"")",NA,NA,NA,NA,NA,NA,NA,NA,NA,NA,NA,NA,NA,NA,NA,NA,NA,NA,NA
5d66f,shallow,flow.Sequence,2_0_0,NA,NA,completion,4113.244,142617.5,142615.905,142632.304,146745.548,146746.89999998,2023-05-28T13:18:19Z,146762.342,Atmosphäre,angahewa,s,kuteseka,usahihi,kutoamini,NA,NA,NA,"c(""distractor1"", ""distractor2"", ""distractor3"")",NA,NA,NA,NA,NA,NA,NA,NA,NA,NA,NA,NA,NA,NA,NA,NA,NA,NA,NA
5d66f,task,flow.Sequence,2_0,NA,NA,completion,4113.244,142617.39999998,142615.905,142632.304,146745.548,146747,2023-05-28T13:18:19Z,146762.342,Atmosphäre,angahewa,s,kuteseka,usahihi,kutoamini,NA,NA,NA,"c(""distractor1"", ""distractor2"", ""distractor3"")",NA,NA,NA,NA,NA,NA,NA,NA,NA,NA,NA,NA,NA,NA,NA,NA,NA,NA,NA
5d66f,Shallow Question,html.Page,2_1_0_0,NA,NA,form submission,4408.8580000477,146747.20000005,146745.548,146762.342,151171.20000005,151171.39999998,2023-05-28T13:18:23Z,151191.96,Respekt,heshima,d,changamnao,upinzani,ufanisi,heshima,NA,NA,"c(""distractor1"", ""distractor2"", ""distractor3"")",NA,NA,NA,NA,NA,NA,NA,NA,NA,NA,NA,NA,NA,NA,NA,NA,NA,NA,NA
5d66f,Save data screen,canvas.Screen,2_1_0_1,NA,NA,timeout,499.872,151172.70000005,151175.543,151191.96,151675.18,151676.30000007,2023-05-28T13:18:24Z,151691.832,Respekt,heshima,d,changamnao,upinzani,ufanisi,NA,NA,1,"c(""distractor1"", ""distractor2"", ""distractor3"")",NA,NA,NA,NA,NA,NA,NA,NA,NA,NA,NA,NA,NA,NA,NA,NA,NA,NA,NA
5d66f,shallow,flow.Sequence,2_1_0,NA,NA,completion,4912.838,146747.20000005,146745.548,146762.342,151675.18,151676.60000002,2023-05-28T13:18:24Z,151691.832,Respekt,heshima,d,changamnao,upinzani,ufanisi,NA,NA,NA,"c(""distractor1"", ""distractor2"", ""distractor3"")",NA,NA,NA,NA,NA,NA,NA,NA,NA,NA,NA,NA,NA,NA,NA,NA,NA,NA,NA
5d66f,task,flow.Sequence,2_1,NA,NA,completion,4912.838,146747.10000002,146745.548,146762.342,151675.18,151676.70000005,2023-05-28T13:18:24Z,151691.832,Respekt,heshima,d,changamnao,upinzani,ufanisi,NA,NA,NA,"c(""distractor1"", ""distractor2"", ""distractor3"")",NA,NA,NA,NA,NA,NA,NA,NA,NA,NA,NA,NA,NA,NA,NA,NA,NA,NA,NA
5d66f,Shallow Question,html.Page,2_2_0_0,NA,NA,form submission,2638.7680000238,151676.80000007,151675.18,151691.832,154330.60000002,154330.80000007,2023-05-28T13:18:27Z,154356.271,Stimmung,kinyongo,s,kilekile,kisambo,madhehebu,kinyongo,NA,NA,"c(""distractor1"", ""distractor2"", ""distractor3"")",NA,NA,NA,NA,NA,NA,NA,NA,NA,NA,NA,NA,NA,NA,NA,NA,NA,NA,NA
5d66f,Save data screen,canvas.Screen,2_2_0_1,NA,NA,timeout,499.378,154332.10000002,154339.604,154356.271,154839.272,154840.5,2023-05-28T13:18:27Z,154855.649,Stimmung,kinyongo,s,kilekile,kisambo,madhehebu,NA,NA,1,"c(""distractor1"", ""distractor2"", ""distractor3"")",NA,NA,NA,NA,NA,NA,NA,NA,NA,NA,NA,NA,NA,NA,NA,NA,NA,NA,NA
5d66f,shallow,flow.Sequence,2_2_0,NA,NA,completion,3147.44,151676.80000007,151675.18,151691.832,154839.272,154840.89999998,2023-05-28T13:18:27Z,154855.649,Stimmung,kinyongo,s,kilekile,kisambo,madhehebu,NA,NA,NA,"c(""distractor1"", ""distractor2"", ""distractor3"")",NA,NA,NA,NA,NA,NA,NA,NA,NA,NA,NA,NA,NA,NA,NA,NA,NA,NA,NA
5d66f,task,flow.Sequence,2_2,NA,NA,completion,3147.44,151676.80000007,151675.18,151691.832,154839.272,154841.10000002,2023-05-28T13:18:27Z,154855.649,Stimmung,kinyongo,s,kilekile,kisambo,madhehebu,NA,NA,NA,"c(""distractor1"", ""distractor2"", ""distractor3"")",NA,NA,NA,NA,NA,NA,NA,NA,NA,NA,NA,NA,NA,NA,NA,NA,NA,NA,NA
5d66f,Shallow Question,html.Page,2_3_0_0,NA,NA,form submission,7210.7509999762,154841.30000007,154839.272,154855.649,162066.39999998,162066.70000005,2023-05-28T13:18:34Z,162083.289,Orientierung,urekebisho,d,uelekeo,marekebisho,utunzaji,urekebisho,NA,NA,"c(""distractor1"", ""distractor2"", ""distractor3"")",NA,NA,NA,NA,NA,NA,NA,NA,NA,NA,NA,NA,NA,NA,NA,NA,NA,NA,NA
5d66f,Save data screen,canvas.Screen,2_3_0_1,NA,NA,timeout,499.60700000002,162068.20000005,162066.343,162083.289,162566.214,162567.20000005,2023-05-28T13:18:35Z,162582.896,Orientierung,urekebisho,d,uelekeo,marekebisho,utunzaji,NA,NA,1,"c(""distractor1"", ""distractor2"", ""distractor3"")",NA,NA,NA,NA,NA,NA,NA,NA,NA,NA,NA,NA,NA,NA,NA,NA,NA,NA,NA
5d66f,shallow,flow.Sequence,2_3_0,NA,NA,completion,7710.565,154841.20000005,154839.272,154855.649,162566.214,162567.39999998,2023-05-28T13:18:35Z,162582.896,Orientierung,urekebisho,d,uelekeo,marekebisho,utunzaji,NA,NA,NA,"c(""distractor1"", ""distractor2"", ""distractor3"")",NA,NA,NA,NA,NA,NA,NA,NA,NA,NA,NA,NA,NA,NA,NA,NA,NA,NA,NA
5d66f,task,flow.Sequence,2_3,NA,NA,completion,7710.565,154841.20000005,154839.272,154855.649,162566.214,162567.60000002,2023-05-28T13:18:35Z,162582.896,Orientierung,urekebisho,d,uelekeo,marekebisho,utunzaji,NA,NA,NA,"c(""distractor1"", ""distractor2"", ""distractor3"")",NA,NA,NA,NA,NA,NA,NA,NA,NA,NA,NA,NA,NA,NA,NA,NA,NA,NA,NA
5d66f,Shallow Question,html.Page,2_4_0_0,NA,NA,form submission,4211.604,162567.70000005,162566.214,162582.896,166794.5,166794.70000005,2023-05-28T13:18:39Z,166795.778,Vorwurf,mashtaka,s,msukumo,mtangulizi,uenyekiti,mashtaka,NA,NA,"c(""distractor1"", ""distractor2"", ""distractor3"")",NA,NA,NA,NA,NA,NA,NA,NA,NA,NA,NA,NA,NA,NA,NA,NA,NA,NA,NA
5d66f,Save data screen,canvas.Screen,2_4_0_1,NA,NA,timeout,499.63100000002,166796.20000005,166779.363,166795.778,167279.037,167280.20000005,2023-05-28T13:18:40Z,167295.409,Vorwurf,mashtaka,s,msukumo,mtangulizi,uenyekiti,NA,NA,1,"c(""distractor1"", ""distractor2"", ""distractor3"")",NA,NA,NA,NA,NA,NA,NA,NA,NA,NA,NA,NA,NA,NA,NA,NA,NA,NA,NA
5d66f,shallow,flow.Sequence,2_4_0,NA,NA,completion,4696.141,162567.70000005,162566.214,162582.896,167279.037,167280.5,2023-05-28T13:18:40Z,167295.409,Vorwurf,mashtaka,s,msukumo,mtangulizi,uenyekiti,NA,NA,NA,"c(""distractor1"", ""distractor2"", ""distractor3"")",NA,NA,NA,NA,NA,NA,NA,NA,NA,NA,NA,NA,NA,NA,NA,NA,NA,NA,NA
5d66f,task,flow.Sequence,2_4,NA,NA,completion,4696.141,162567.70000005,162566.214,162582.896,167279.037,167280.70000005,2023-05-28T13:18:40Z,167295.409,Vorwurf,mashtaka,s,msukumo,mtangulizi,uenyekiti,NA,NA,NA,"c(""distractor1"", ""distractor2"", ""distractor3"")",NA,NA,NA,NA,NA,NA,NA,NA,NA,NA,NA,NA,NA,NA,NA,NA,NA,NA,NA
5d66f,Shallow Question,html.Page,2_5_0_0,NA,NA,form submission,3387.6910000238,167281,167279.037,167295.409,170683.10000002,170683.30000007,2023-05-28T13:18:43Z,170692.446,Papier,karatasi,d,uchambuzi,usalama,kukataliwa,kukataliwa,NA,NA,"c(""distractor1"", ""distractor2"", ""distractor3"")",NA,NA,NA,NA,NA,NA,NA,NA,NA,NA,NA,NA,NA,NA,NA,NA,NA,NA,NA
5d66f,Save data screen,canvas.Screen,2_5_0_1,NA,NA,timeout,500.04500000001,170684.70000005,170675.55,170692.446,171175.805,171176.80000007,2023-05-28T13:18:43Z,171192.491,Papier,karatasi,d,uchambuzi,usalama,kukataliwa,NA,NA,0,"c(""distractor1"", ""distractor2"", ""distractor3"")",NA,NA,NA,NA,NA,NA,NA,NA,NA,NA,NA,NA,NA,NA,NA,NA,NA,NA,NA
5d66f,shallow,flow.Sequence,2_5_0,NA,NA,completion,3880.396,167280.89999998,167279.037,167295.409,171175.805,171177.20000005,2023-05-28T13:18:43Z,171192.491,Papier,karatasi,d,uchambuzi,usalama,kukataliwa,NA,NA,NA,"c(""distractor1"", ""distractor2"", ""distractor3"")",NA,NA,NA,NA,NA,NA,NA,NA,NA,NA,NA,NA,NA,NA,NA,NA,NA,NA,NA
5d66f,task,flow.Sequence,2_5,NA,NA,completion,3880.396,167280.89999998,167279.037,167295.409,171175.805,171177.30000007,2023-05-28T13:18:43Z,171192.491,Papier,karatasi,d,uchambuzi,usalama,kukataliwa,NA,NA,NA,"c(""distractor1"", ""distractor2"", ""distractor3"")",NA,NA,NA,NA,NA,NA,NA,NA,NA,NA,NA,NA,NA,NA,NA,NA,NA,NA,NA
5d66f,Shallow Question,html.Page,2_6_0_0,NA,NA,form submission,3747.509,171177.39999998,171175.805,171192.491,174940,174940.30000007,2023-05-28T13:18:47Z,174939.118,Flexibilität,kubadilika,s,enjini,usikilivu,hesabu,kubadilika,NA,NA,"c(""distractor1"", ""distractor2"", ""distractor3"")",NA,NA,NA,NA,NA,NA,NA,NA,NA,NA,NA,NA,NA,NA,NA,NA,NA,NA,NA
5d66f,Save data screen,canvas.Screen,2_6_0_1,NA,NA,timeout,499.78100000002,174941.70000005,174922.622,174939.118,175422.118,175423.10000002,2023-05-28T13:18:48Z,175438.899,Flexibilität,kubadilika,s,enjini,usikilivu,hesabu,NA,NA,1,"c(""distractor1"", ""distractor2"", ""distractor3"")",NA,NA,NA,NA,NA,NA,NA,NA,NA,NA,NA,NA,NA,NA,NA,NA,NA,NA,NA
5d66f,shallow,flow.Sequence,2_6_0,NA,NA,completion,4229.627,171177.39999998,171175.805,171192.491,175422.118,175423.39999998,2023-05-28T13:18:48Z,175438.899,Flexibilität,kubadilika,s,enjini,usikilivu,hesabu,NA,NA,NA,"c(""distractor1"", ""distractor2"", ""distractor3"")",NA,NA,NA,NA,NA,NA,NA,NA,NA,NA,NA,NA,NA,NA,NA,NA,NA,NA,NA
5d66f,task,flow.Sequence,2_6,NA,NA,completion,4229.627,171177.30000007,171175.805,171192.491,175422.118,175423.60000002,2023-05-28T13:18:48Z,175438.899,Flexibilität,kubadilika,s,enjini,usikilivu,hesabu,NA,NA,NA,"c(""distractor1"", ""distractor2"", ""distractor3"")",NA,NA,NA,NA,NA,NA,NA,NA,NA,NA,NA,NA,NA,NA,NA,NA,NA,NA,NA
5d66f,Shallow Question,html.Page,2_7_0_0,NA,NA,form submission,1616.101,175423.89999998,175422.118,175438.899,177055,177055.20000005,2023-05-28T13:18:49Z,177070.924,Fleisch,mshakiki,d,kizunguzungu,mshikamano,angusho,mshakiki,NA,NA,"c(""distractor1"", ""distractor2"", ""distractor3"")",NA,NA,NA,NA,NA,NA,NA,NA,NA,NA,NA,NA,NA,NA,NA,NA,NA,NA,NA
5d66f,Save data screen,canvas.Screen,2_7_0_1,NA,NA,timeout,499.402,177055.70000005,177053.94,177070.924,177553.655,177554.60000002,2023-05-28T13:18:50Z,177570.326,Fleisch,mshakiki,d,kizunguzungu,mshikamano,angusho,NA,NA,1,"c(""distractor1"", ""distractor2"", ""distractor3"")",NA,NA,NA,NA,NA,NA,NA,NA,NA,NA,NA,NA,NA,NA,NA,NA,NA,NA,NA
5d66f,shallow,flow.Sequence,2_7_0,NA,NA,completion,2114.756,175423.80000007,175422.118,175438.899,177553.655,177554.80000007,2023-05-28T13:18:50Z,177570.326,Fleisch,mshakiki,d,kizunguzungu,mshikamano,angusho,NA,NA,NA,"c(""distractor1"", ""distractor2"", ""distractor3"")",NA,NA,NA,NA,NA,NA,NA,NA,NA,NA,NA,NA,NA,NA,NA,NA,NA,NA,NA
5d66f,task,flow.Sequence,2_7,NA,NA,completion,2114.756,175423.70000005,175422.118,175438.899,177553.655,177555.10000002,2023-05-28T13:18:50Z,177570.326,Fleisch,mshakiki,d,kizunguzungu,mshikamano,angusho,NA,NA,NA,"c(""distractor1"", ""distractor2"", ""distractor3"")",NA,NA,NA,NA,NA,NA,NA,NA,NA,NA,NA,NA,NA,NA,NA,NA,NA,NA,NA
5d66f,Shallow Question,html.Page,2_8_0_0,NA,NA,form submission,3192.7740000238,177555.30000007,177553.655,177570.326,180763.10000002,180763.30000007,2023-05-28T13:18:53Z,180767.548,Entwicklung,maendeleo,s,uangavu,mshindwa,badiliko,badiliko,NA,NA,"c(""distractor1"", ""distractor2"", ""distractor3"")",NA,NA,NA,NA,NA,NA,NA,NA,NA,NA,NA,NA,NA,NA,NA,NA,NA,NA,NA
5d66f,Save data screen,canvas.Screen,2_8_0_1,NA,NA,timeout,499.989,180764.5,180751.082,180767.548,181250.585,181256.39999998,2023-05-28T13:18:54Z,181267.537,Entwicklung,maendeleo,s,uangavu,mshindwa,badiliko,NA,NA,0,"c(""distractor1"", ""distractor2"", ""distractor3"")",NA,NA,NA,NA,NA,NA,NA,NA,NA,NA,NA,NA,NA,NA,NA,NA,NA,NA,NA
5d66f,shallow,flow.Sequence,2_8_0,NA,NA,completion,3680.259,177555.30000007,177553.655,177570.326,181250.585,181256.70000005,2023-05-28T13:18:54Z,181267.537,Entwicklung,maendeleo,s,uangavu,mshindwa,badiliko,NA,NA,NA,"c(""distractor1"", ""distractor2"", ""distractor3"")",NA,NA,NA,NA,NA,NA,NA,NA,NA,NA,NA,NA,NA,NA,NA,NA,NA,NA,NA
5d66f,task,flow.Sequence,2_8,NA,NA,completion,3680.259,177555.20000005,177553.655,177570.326,181250.585,181256.80000007,2023-05-28T13:18:54Z,181267.537,Entwicklung,maendeleo,s,uangavu,mshindwa,badiliko,NA,NA,NA,"c(""distractor1"", ""distractor2"", ""distractor3"")",NA,NA,NA,NA,NA,NA,NA,NA,NA,NA,NA,NA,NA,NA,NA,NA,NA,NA,NA
5d66f,Shallow Question,html.Page,2_9_0_0,NA,NA,form submission,2840.1630000477,181256.89999998,181250.585,181267.537,184107.70000005,184108,2023-05-28T13:18:56Z,184114.895,Erneuerung,ukarabati,d,ushawishi,ukalifu,unyonyaji,ukarabati,NA,NA,"c(""distractor1"", ""distractor2"", ""distractor3"")",NA,NA,NA,NA,NA,NA,NA,NA,NA,NA,NA,NA,NA,NA,NA,NA,NA,NA,NA
5d66f,Save data screen,canvas.Screen,2_9_0_1,NA,NA,timeout,499.48800000001,184109.10000002,184098.261,184114.895,184597.852,184598.89999998,2023-05-28T13:18:57Z,184614.383,Erneuerung,ukarabati,d,ushawishi,ukalifu,unyonyaji,NA,NA,1,"c(""distractor1"", ""distractor2"", ""distractor3"")",NA,NA,NA,NA,NA,NA,NA,NA,NA,NA,NA,NA,NA,NA,NA,NA,NA,NA,NA
5d66f,shallow,flow.Sequence,2_9_0,NA,NA,completion,3330.315,181256.89999998,181250.585,181267.537,184597.852,184599,2023-05-28T13:18:57Z,184614.383,Erneuerung,ukarabati,d,ushawishi,ukalifu,unyonyaji,NA,NA,NA,"c(""distractor1"", ""distractor2"", ""distractor3"")",NA,NA,NA,NA,NA,NA,NA,NA,NA,NA,NA,NA,NA,NA,NA,NA,NA,NA,NA
5d66f,task,flow.Sequence,2_9,NA,NA,completion,3330.315,181256.89999998,181250.585,181267.537,184597.852,184599.10000002,2023-05-28T13:18:57Z,184614.383,Erneuerung,ukarabati,d,ushawishi,ukalifu,unyonyaji,NA,NA,NA,"c(""distractor1"", ""distractor2"", ""distractor3"")",NA,NA,NA,NA,NA,NA,NA,NA,NA,NA,NA,NA,NA,NA,NA,NA,NA,NA,NA
5d66f,Shallow Question,html.Page,2_10_0_0,NA,NA,form submission,5784.8170000477,184599.30000007,184597.852,184614.383,190399.20000005,190399.39999998,2023-05-28T13:19:03Z,190426.666,Betrüger,mdanganyifu,s,mwanamuziki,wastani,mahakama,mdanganyifu,NA,NA,"c(""distractor1"", ""distractor2"", ""distractor3"")",NA,NA,NA,NA,NA,NA,NA,NA,NA,NA,NA,NA,NA,NA,NA,NA,NA,NA,NA
5d66f,Save data screen,canvas.Screen,2_10_0_1,NA,NA,timeout,499.595,190400.89999998,190409.956,190426.666,190909.604,190910.70000005,2023-05-28T13:19:03Z,190926.261,Betrüger,mdanganyifu,s,mwanamuziki,wastani,mahakama,NA,NA,1,"c(""distractor1"", ""distractor2"", ""distractor3"")",NA,NA,NA,NA,NA,NA,NA,NA,NA,NA,NA,NA,NA,NA,NA,NA,NA,NA,NA
5d66f,shallow,flow.Sequence,2_10_0,NA,NA,completion,6295.221,184599.30000007,184597.852,184614.383,190909.604,190910.89999998,2023-05-28T13:19:03Z,190926.261,Betrüger,mdanganyifu,s,mwanamuziki,wastani,mahakama,NA,NA,NA,"c(""distractor1"", ""distractor2"", ""distractor3"")",NA,NA,NA,NA,NA,NA,NA,NA,NA,NA,NA,NA,NA,NA,NA,NA,NA,NA,NA
5d66f,task,flow.Sequence,2_10,NA,NA,completion,6295.221,184599.20000005,184597.852,184614.383,190909.604,190911,2023-05-28T13:19:03Z,190926.261,Betrüger,mdanganyifu,s,mwanamuziki,wastani,mahakama,NA,NA,NA,"c(""distractor1"", ""distractor2"", ""distractor3"")",NA,NA,NA,NA,NA,NA,NA,NA,NA,NA,NA,NA,NA,NA,NA,NA,NA,NA,NA
5d66f,Shallow Question,html.Page,2_11_0_0,NA,NA,form submission,4577.6389999762,190911.20000005,190909.604,190926.261,195503.89999998,195504.10000002,2023-05-28T13:19:08Z,195505.554,Begegnung,kukutana,s,mmasihiya,mpiganaji,husiano,husiano,NA,NA,"c(""distractor1"", ""distractor2"", ""distractor3"")",NA,NA,NA,NA,NA,NA,NA,NA,NA,NA,NA,NA,NA,NA,NA,NA,NA,NA,NA
5d66f,Save data screen,canvas.Screen,2_11_0_1,NA,NA,timeout,499.85500000001,195505.5,195489.09,195505.554,195988.765,195989.80000007,2023-05-28T13:19:08Z,196005.409,Begegnung,kukutana,s,mmasihiya,mpiganaji,husiano,NA,NA,0,"c(""distractor1"", ""distractor2"", ""distractor3"")",NA,NA,NA,NA,NA,NA,NA,NA,NA,NA,NA,NA,NA,NA,NA,NA,NA,NA,NA
5d66f,shallow,flow.Sequence,2_11_0,NA,NA,completion,5062.504,190911.20000005,190909.604,190926.261,195988.765,195990,2023-05-28T13:19:08Z,196005.409,Begegnung,kukutana,s,mmasihiya,mpiganaji,husiano,NA,NA,NA,"c(""distractor1"", ""distractor2"", ""distractor3"")",NA,NA,NA,NA,NA,NA,NA,NA,NA,NA,NA,NA,NA,NA,NA,NA,NA,NA,NA
5d66f,task,flow.Sequence,2_11,NA,NA,completion,5062.504,190911.10000002,190909.604,190926.261,195988.765,195990.20000005,2023-05-28T13:19:08Z,196005.409,Begegnung,kukutana,s,mmasihiya,mpiganaji,husiano,NA,NA,NA,"c(""distractor1"", ""distractor2"", ""distractor3"")",NA,NA,NA,NA,NA,NA,NA,NA,NA,NA,NA,NA,NA,NA,NA,NA,NA,NA,NA
5d66f,Shallow Question,html.Page,2_12_0_0,NA,NA,form submission,4473.1910000238,195990.30000007,195988.765,196005.409,200478.60000002,200478.70000005,2023-05-28T13:19:13Z,200484.701,Genehmigung,idhini,s,mwanamke,itikadi,fedheha,idhini,NA,NA,"c(""distractor1"", ""distractor2"", ""distractor3"")",NA,NA,NA,NA,NA,NA,NA,NA,NA,NA,NA,NA,NA,NA,NA,NA,NA,NA,NA
5d66f,Save data screen,canvas.Screen,2_12_0_1,NA,NA,timeout,499.70199999999,200480,200468.203,200484.701,200967.716,200968.80000007,2023-05-28T13:19:13Z,200984.403,Genehmigung,idhini,s,mwanamke,itikadi,fedheha,NA,NA,1,"c(""distractor1"", ""distractor2"", ""distractor3"")",NA,NA,NA,NA,NA,NA,NA,NA,NA,NA,NA,NA,NA,NA,NA,NA,NA,NA,NA
5d66f,shallow,flow.Sequence,2_12_0,NA,NA,completion,4962.307,195990.30000007,195988.765,196005.409,200967.716,200969,2023-05-28T13:19:13Z,200984.403,Genehmigung,idhini,s,mwanamke,itikadi,fedheha,NA,NA,NA,"c(""distractor1"", ""distractor2"", ""distractor3"")",NA,NA,NA,NA,NA,NA,NA,NA,NA,NA,NA,NA,NA,NA,NA,NA,NA,NA,NA
5d66f,task,flow.Sequence,2_12,NA,NA,completion,4962.307,195990.30000007,195988.765,196005.409,200967.716,200969.30000007,2023-05-28T13:19:13Z,200984.403,Genehmigung,idhini,s,mwanamke,itikadi,fedheha,NA,NA,NA,"c(""distractor1"", ""distractor2"", ""distractor3"")",NA,NA,NA,NA,NA,NA,NA,NA,NA,NA,NA,NA,NA,NA,NA,NA,NA,NA,NA
5d66f,Shallow Question,html.Page,2_13_0_0,NA,NA,form submission,4227.597,200969.39999998,200967.716,200984.403,205212,205212.20000005,2023-05-28T13:19:18Z,205231.182,Integrität,uadilifu,d,muungano,mtiririko,upunguaji,uadilifu,NA,NA,"c(""distractor1"", ""distractor2"", ""distractor3"")",NA,NA,NA,NA,NA,NA,NA,NA,NA,NA,NA,NA,NA,NA,NA,NA,NA,NA,NA
5d66f,Save data screen,canvas.Screen,2_13_0_1,NA,NA,timeout,499.56700000001,205213.5,205214.172,205231.182,205714.111,205715.10000002,2023-05-28T13:19:18Z,205730.749,Integrität,uadilifu,d,muungano,mtiririko,upunguaji,NA,NA,1,"c(""distractor1"", ""distractor2"", ""distractor3"")",NA,NA,NA,NA,NA,NA,NA,NA,NA,NA,NA,NA,NA,NA,NA,NA,NA,NA,NA
5d66f,shallow,flow.Sequence,2_13_0,NA,NA,completion,4729.708,200969.39999998,200967.716,200984.403,205714.111,205715.30000007,2023-05-28T13:19:18Z,205730.749,Integrität,uadilifu,d,muungano,mtiririko,upunguaji,NA,NA,NA,"c(""distractor1"", ""distractor2"", ""distractor3"")",NA,NA,NA,NA,NA,NA,NA,NA,NA,NA,NA,NA,NA,NA,NA,NA,NA,NA,NA
5d66f,task,flow.Sequence,2_13,NA,NA,completion,4729.708,200969.30000007,200967.716,200984.403,205714.111,205715.39999998,2023-05-28T13:19:18Z,205730.749,Integrität,uadilifu,d,muungano,mtiririko,upunguaji,NA,NA,NA,"c(""distractor1"", ""distractor2"", ""distractor3"")",NA,NA,NA,NA,NA,NA,NA,NA,NA,NA,NA,NA,NA,NA,NA,NA,NA,NA,NA
5d66f,Shallow Question,html.Page,2_14_0_0,NA,NA,form submission,9836.751,205715.60000002,205714.111,205730.749,215567.5,215567.70000005,2023-05-28T13:19:28Z,215589.272,Wechsel,ugeuzaji,d,utambulisho,kujenga,wasiwasi,ugeuzaji,NA,NA,"c(""distractor1"", ""distractor2"", ""distractor3"")",NA,NA,NA,NA,NA,NA,NA,NA,NA,NA,NA,NA,NA,NA,NA,NA,NA,NA,NA
5d66f,Save data screen,canvas.Screen,2_14_0_1,NA,NA,timeout,499.639,215569.20000005,215572.594,215589.272,216072.256,216073.30000007,2023-05-28T13:19:28Z,216088.911,Wechsel,ugeuzaji,d,utambulisho,kujenga,wasiwasi,NA,NA,1,"c(""distractor1"", ""distractor2"", ""distractor3"")",NA,NA,NA,NA,NA,NA,NA,NA,NA,NA,NA,NA,NA,NA,NA,NA,NA,NA,NA
5d66f,shallow,flow.Sequence,2_14_0,NA,NA,completion,10341.507,205715.5,205714.111,205730.749,216072.256,216073.5,2023-05-28T13:19:28Z,216088.911,Wechsel,ugeuzaji,d,utambulisho,kujenga,wasiwasi,NA,NA,NA,"c(""distractor1"", ""distractor2"", ""distractor3"")",NA,NA,NA,NA,NA,NA,NA,NA,NA,NA,NA,NA,NA,NA,NA,NA,NA,NA,NA
5d66f,task,flow.Sequence,2_14,NA,NA,completion,10341.507,205715.5,205714.111,205730.749,216072.256,216073.70000005,2023-05-28T13:19:28Z,216088.911,Wechsel,ugeuzaji,d,utambulisho,kujenga,wasiwasi,NA,NA,NA,"c(""distractor1"", ""distractor2"", ""distractor3"")",NA,NA,NA,NA,NA,NA,NA,NA,NA,NA,NA,NA,NA,NA,NA,NA,NA,NA,NA
5d66f,Shallow Question,html.Page,2_15_0_0,NA,NA,form submission,3875.7890000477,216073.80000007,216072.256,216088.911,219964.70000005,219964.89999998,2023-05-28T13:19:32Z,219985.353,Niveau,kiwango,d,usimamizi,mwamali,mshairi,kiwango,NA,NA,"c(""distractor1"", ""distractor2"", ""distractor3"")",NA,NA,NA,NA,NA,NA,NA,NA,NA,NA,NA,NA,NA,NA,NA,NA,NA,NA,NA
5d66f,Save data screen,canvas.Screen,2_15_0_1,NA,NA,timeout,499.91099999999,219965.70000005,219968.78,219985.353,220468.645,220469.60000002,2023-05-28T13:19:33Z,220485.264,Niveau,kiwango,d,usimamizi,mwamali,mshairi,NA,NA,1,"c(""distractor1"", ""distractor2"", ""distractor3"")",NA,NA,NA,NA,NA,NA,NA,NA,NA,NA,NA,NA,NA,NA,NA,NA,NA,NA,NA
5d66f,shallow,flow.Sequence,2_15_0,NA,NA,completion,4379.734,216073.70000005,216072.256,216088.911,220468.645,220469.89999998,2023-05-28T13:19:33Z,220485.264,Niveau,kiwango,d,usimamizi,mwamali,mshairi,NA,NA,NA,"c(""distractor1"", ""distractor2"", ""distractor3"")",NA,NA,NA,NA,NA,NA,NA,NA,NA,NA,NA,NA,NA,NA,NA,NA,NA,NA,NA
5d66f,task,flow.Sequence,2_15,NA,NA,completion,4379.734,216073.70000005,216072.256,216088.911,220468.645,220470.10000002,2023-05-28T13:19:33Z,220485.264,Niveau,kiwango,d,usimamizi,mwamali,mshairi,NA,NA,NA,"c(""distractor1"", ""distractor2"", ""distractor3"")",NA,NA,NA,NA,NA,NA,NA,NA,NA,NA,NA,NA,NA,NA,NA,NA,NA,NA,NA
5d66f,retrieval block 2 (multiple choice),flow.Loop,2,NA,NA,completion,77836.341,142617.39999998,142615.905,142632.304,220468.645,220470.20000005,2023-05-28T13:19:33Z,220485.264,NA,NA,NA,NA,NA,NA,NA,NA,NA,"c(""distractor1"", ""distractor2"", ""distractor3"")",NA,NA,NA,NA,NA,NA,NA,NA,NA,NA,NA,NA,NA,NA,NA,NA,NA,NA,NA
5d66f,End,canvas.Screen,3,NA,keypress(Space),response,1773.0360000715,220470.30000007,220468.645,220485.264,222258.30000007,222259.39999998,2023-05-28T13:19:35Z,222283.825,NA,NA,NA,NA,NA,NA,NA,NA,NA,NULL,NA,NA,NA,NA,NA,NA,NA,NA,NA,NA,NA,NA,NA,NA,NA,NA,NA,NA,NA
5d66f,root,flow.Sequence,NA,NA,NA,completion,221193.05000007,1046.7000000477,1031.948,1065.25,222258.30000007,222259.89999998,2023-05-28T13:19:35Z,222283.825,NA,NA,NA,NA,NA,NA,NA,NA,NA,NULL,NA,NA,NA,NA,NA,NA,NA,NA,NA,NA,NA,NA,NA,NA,NA,NA,NA,NA,NA
