observation,sender,sender_type,sender_id,response,response_action,ended_on,duration,time_run,time_render,time_show,time_end,time_commit,timestamp,time_switch,distractors,german,swahili,enc,distractor1,distractor2,distractor3,response_2,x,correct,x_2,url_vp,url_sess,meta_labjs_version,meta_location,meta_user_agent,meta_platform,meta_language,meta_locale,meta_time_zone,meta_timezone_offset,meta_screen_width,meta_screen_height,meta_scroll_width,meta_scroll_height,meta_window_inner_width,meta_window_inner_height,meta_device_pixel_ratio,meta_labjs_build_flavor,meta_labjs_build_commit
f76cb,Introduction general,canvas.Screen,0,weiter,keypress(q),response,31022.600000143,1068.6000001431,1059.88,1076.5,32099.100000143,32100.5,2024-05-14T11:30:44Z,32113.4,NULL,NA,NA,NA,NA,NA,NA,NA,NA,NA,NA,158,3,20.2.4,https://neurocog.fernuni.ch/studies/vweber/jbaenninger/encoding_immediate/index.html?vp=158&sess=3,"Mozilla/5.0 (Windows NT 10.0; Win64; x64) AppleWebKit/537.36 (KHTML, like Gecko) Chrome/124.0.0.0 Safari/537.36 Edg/124.0.0.0",Win32,de,de-CH,Europe/Zurich,-120,1280,720,1232,598,1232,598,1.5,production,f5b4a49f956347addd546a832a3327688c2c0fef
f76cb,Introduction practice,canvas.Screen,1_0,NA,keypress(Space),response,8946.1,32100.800000191,32093.95,32113.4,41059.5,41059.800000191,2024-05-14T11:30:53Z,41062.842,NULL,NA,NA,NA,NA,NA,NA,NA,NA,NA,NA,NA,NA,NA,NA,NA,NA,NA,NA,NA,NA,NA,NA,NA,NA,NA,NA,NA,NA,NA
f76cb,deep,flow.Sequence,1_1_0_0,NA,NA,skipped,NA,41060,NA,NA,41059.5,41060,2024-05-14T11:30:53Z,41062.842,"c(""distractor1"", ""distractor2"", ""distractor3"")",Kritik,lawama,s,dereva,nafasi,mawazo,NA,NA,NA,NA,NA,NA,NA,NA,NA,NA,NA,NA,NA,NA,NA,NA,NA,NA,NA,NA,NA,NA,NA
f76cb,Shallow Question,html.Page,1_1_0_1_0,NA,NA,form submission,10953.558000095,41060.100000143,41062.842,41062.842,52016.400000095,52016.5,2024-05-14T11:31:04Z,52028.7,"c(""distractor1"", ""distractor2"", ""distractor3"")",Kritik,lawama,s,dereva,nafasi,mawazo,mawazo,NA,NA,NA,NA,NA,NA,NA,NA,NA,NA,NA,NA,NA,NA,NA,NA,NA,NA,NA,NA,NA,NA
f76cb,"""Richtig""-Screen",canvas.Screen,1_1_0_1_1,NA,NA,skipped,NA,52017.300000191,NA,NA,52016.400000095,52017.400000095,2024-05-14T11:31:04Z,52028.7,"c(""distractor1"", ""distractor2"", ""distractor3"")",Kritik,lawama,s,dereva,nafasi,mawazo,NA,NA,NA,NA,NA,NA,NA,NA,NA,NA,NA,NA,NA,NA,NA,NA,NA,NA,NA,NA,NA,NA,NA
f76cb,"""Falsch""-Screen",canvas.Screen,1_1_0_1_2,NA,NA,timeout,5000.9,52018.100000143,52015.674,52028.7,57012.9,57015.100000143,2024-05-14T11:31:09Z,57029.6,"c(""distractor1"", ""distractor2"", ""distractor3"")",Kritik,lawama,s,dereva,nafasi,mawazo,NA,NA,0,NA,NA,NA,NA,NA,NA,NA,NA,NA,NA,NA,NA,NA,NA,NA,NA,NA,NA,NA,NA
f76cb,shallow,flow.Sequence,1_1_0_1,NA,NA,completion,15950.058,41060,41062.842,41062.842,57012.9,57015.100000143,2024-05-14T11:31:09Z,57029.6,"c(""distractor1"", ""distractor2"", ""distractor3"")",Kritik,lawama,s,dereva,nafasi,mawazo,NA,NA,NA,NA,NA,NA,NA,NA,NA,NA,NA,NA,NA,NA,NA,NA,NA,NA,NA,NA,NA,NA,NA
f76cb,task,flow.Sequence,1_1_0,NA,NA,completion,15950.058,41059.900000095,41062.842,41062.842,57012.9,57015.200000048,2024-05-14T11:31:09Z,57029.6,"c(""distractor1"", ""distractor2"", ""distractor3"")",Kritik,lawama,s,dereva,nafasi,mawazo,NA,NA,NA,NA,NA,NA,NA,NA,NA,NA,NA,NA,NA,NA,NA,NA,NA,NA,NA,NA,NA,NA,NA
f76cb,Deep Question,html.Page,1_1_1_0_0,NA,NA,form submission,6483.7000001907,57015.300000191,57012.9,57029.6,63513.300000191,63513.5,2024-05-14T11:31:16Z,63515.75,"c(""distractor1"", ""distractor2"", ""distractor3"")",Qualität,mtindo,d,NA,NA,NA,xdvjdl,NA,NA,NA,NA,NA,NA,NA,NA,NA,NA,NA,NA,NA,NA,NA,NA,NA,NA,NA,NA,NA,NA
f76cb,"""Richtig""-Screen",canvas.Screen,1_1_1_0_1,NA,NA,skipped,NA,63515.600000143,NA,NA,63513.300000191,63515.700000048,2024-05-14T11:31:16Z,63515.75,"c(""distractor1"", ""distractor2"", ""distractor3"")",Qualität,mtindo,d,NA,NA,NA,NA,NA,NA,NA,NA,NA,NA,NA,NA,NA,NA,NA,NA,NA,NA,NA,NA,NA,NA,NA,NA,NA,NA
f76cb,"""Falsch""-Screen",canvas.Screen,1_1_1_0_2,NA,NA,timeout,4997.85,63516.200000048,63515.75,63515.75,68497,68499.400000095,2024-05-14T11:31:21Z,68513.6,"c(""distractor1"", ""distractor2"", ""distractor3"")",Qualität,mtindo,d,NA,NA,NA,NA,NA,0,NA,NA,NA,NA,NA,NA,NA,NA,NA,NA,NA,NA,NA,NA,NA,NA,NA,NA,NA,NA
f76cb,deep,flow.Sequence,1_1_1_0,NA,NA,completion,11467.4,57015.300000191,57012.9,57029.6,68497,68499.5,2024-05-14T11:31:21Z,68513.6,"c(""distractor1"", ""distractor2"", ""distractor3"")",Qualität,mtindo,d,NA,NA,NA,NA,NA,NA,NA,NA,NA,NA,NA,NA,NA,NA,NA,NA,NA,NA,NA,NA,NA,NA,NA,NA,NA,NA
f76cb,shallow,flow.Sequence,1_1_1_1,NA,NA,skipped,NA,68499.5,NA,NA,68497,68499.5,2024-05-14T11:31:21Z,68513.6,"c(""distractor1"", ""distractor2"", ""distractor3"")",Qualität,mtindo,d,NA,NA,NA,NA,NA,NA,NA,NA,NA,NA,NA,NA,NA,NA,NA,NA,NA,NA,NA,NA,NA,NA,NA,NA,NA,NA
f76cb,task,flow.Sequence,1_1_1,NA,NA,completion,11467.4,57015.200000048,57012.9,57029.6,68497,68499.600000143,2024-05-14T11:31:21Z,68513.6,"c(""distractor1"", ""distractor2"", ""distractor3"")",Qualität,mtindo,d,NA,NA,NA,NA,NA,NA,NA,NA,NA,NA,NA,NA,NA,NA,NA,NA,NA,NA,NA,NA,NA,NA,NA,NA,NA,NA
f76cb,deep,flow.Sequence,1_1_2_0,NA,NA,skipped,NA,68499.600000143,NA,NA,68497,68499.600000143,2024-05-14T11:31:21Z,68513.6,"c(""distractor1"", ""distractor2"", ""distractor3"")",Rückhalt,msaada,s,muhula,auwali,kiwimbe,NA,NA,NA,NA,NA,NA,NA,NA,NA,NA,NA,NA,NA,NA,NA,NA,NA,NA,NA,NA,NA,NA,NA
f76cb,Shallow Question,html.Page,1_1_2_1_0,NA,NA,form submission,9137.6000000477,68499.700000048,68497,68513.6,77651.200000048,77651.400000095,2024-05-14T11:31:30Z,77653.326,"c(""distractor1"", ""distractor2"", ""distractor3"")",Rückhalt,msaada,s,muhula,auwali,kiwimbe,kiwimbe,NA,NA,NA,NA,NA,NA,NA,NA,NA,NA,NA,NA,NA,NA,NA,NA,NA,NA,NA,NA,NA,NA
f76cb,"""Richtig""-Screen",canvas.Screen,1_1_2_1_1,NA,NA,skipped,NA,77652.5,NA,NA,77651.200000048,77652.600000143,2024-05-14T11:31:30Z,77653.326,"c(""distractor1"", ""distractor2"", ""distractor3"")",Rückhalt,msaada,s,muhula,auwali,kiwimbe,NA,NA,NA,NA,NA,NA,NA,NA,NA,NA,NA,NA,NA,NA,NA,NA,NA,NA,NA,NA,NA,NA,NA
f76cb,"""Falsch""-Screen",canvas.Screen,1_1_2_1_2,NA,NA,timeout,5002.274,77653.400000095,77653.326,77653.326,82639.2,82639.800000191,2024-05-14T11:31:35Z,82655.6,"c(""distractor1"", ""distractor2"", ""distractor3"")",Rückhalt,msaada,s,muhula,auwali,kiwimbe,NA,NA,0,NA,NA,NA,NA,NA,NA,NA,NA,NA,NA,NA,NA,NA,NA,NA,NA,NA,NA,NA,NA
f76cb,shallow,flow.Sequence,1_1_2_1,NA,NA,completion,14125.6,68499.700000048,68497,68513.6,82639.2,82639.900000095,2024-05-14T11:31:35Z,82655.6,"c(""distractor1"", ""distractor2"", ""distractor3"")",Rückhalt,msaada,s,muhula,auwali,kiwimbe,NA,NA,NA,NA,NA,NA,NA,NA,NA,NA,NA,NA,NA,NA,NA,NA,NA,NA,NA,NA,NA,NA,NA
f76cb,task,flow.Sequence,1_1_2,NA,NA,completion,14125.6,68499.600000143,68497,68513.6,82639.2,82639.900000095,2024-05-14T11:31:35Z,82655.6,"c(""distractor1"", ""distractor2"", ""distractor3"")",Rückhalt,msaada,s,muhula,auwali,kiwimbe,NA,NA,NA,NA,NA,NA,NA,NA,NA,NA,NA,NA,NA,NA,NA,NA,NA,NA,NA,NA,NA,NA,NA
f76cb,deep,flow.Sequence,1_1_3_0,NA,NA,skipped,NA,82640,NA,NA,82639.2,82640,2024-05-14T11:31:35Z,82655.6,"c(""distractor1"", ""distractor2"", ""distractor3"")",Gegenwart,hadhara,s,katiba,jokofu,mikopo,NA,NA,NA,NA,NA,NA,NA,NA,NA,NA,NA,NA,NA,NA,NA,NA,NA,NA,NA,NA,NA,NA,NA
f76cb,Shallow Question,html.Page,1_1_3_1_0,NA,NA,form submission,7198.7000001907,82640,82639.2,82655.6,89854.300000191,89854.400000095,2024-05-14T11:31:42Z,89860.3,"c(""distractor1"", ""distractor2"", ""distractor3"")",Gegenwart,hadhara,s,katiba,jokofu,mikopo,hadhara,NA,NA,NA,NA,NA,NA,NA,NA,NA,NA,NA,NA,NA,NA,NA,NA,NA,NA,NA,NA,NA,NA
f76cb,"""Richtig""-Screen",canvas.Screen,1_1_3_1_1,NA,NA,timeout,5007.6,89855.600000143,89852.082,89860.3,94851.1,94851.700000048,2024-05-14T11:31:47Z,94867.9,"c(""distractor1"", ""distractor2"", ""distractor3"")",Gegenwart,hadhara,s,katiba,jokofu,mikopo,NA,NA,1,NA,NA,NA,NA,NA,NA,NA,NA,NA,NA,NA,NA,NA,NA,NA,NA,NA,NA,NA,NA
f76cb,"""Falsch""-Screen",canvas.Screen,1_1_3_1_2,NA,NA,skipped,NA,94852.800000191,NA,NA,94851.1,94852.900000095,2024-05-14T11:31:47Z,94867.9,"c(""distractor1"", ""distractor2"", ""distractor3"")",Gegenwart,hadhara,s,katiba,jokofu,mikopo,NA,NA,NA,NA,NA,NA,NA,NA,NA,NA,NA,NA,NA,NA,NA,NA,NA,NA,NA,NA,NA,NA,NA
f76cb,shallow,flow.Sequence,1_1_3_1,NA,NA,completion,12195.5,82640,82639.2,82655.6,94851.1,94853,2024-05-14T11:31:47Z,94867.9,"c(""distractor1"", ""distractor2"", ""distractor3"")",Gegenwart,hadhara,s,katiba,jokofu,mikopo,NA,NA,NA,NA,NA,NA,NA,NA,NA,NA,NA,NA,NA,NA,NA,NA,NA,NA,NA,NA,NA,NA,NA
f76cb,task,flow.Sequence,1_1_3,NA,NA,completion,12195.5,82640,82639.2,82655.6,94851.1,94853.100000143,2024-05-14T11:31:47Z,94867.9,"c(""distractor1"", ""distractor2"", ""distractor3"")",Gegenwart,hadhara,s,katiba,jokofu,mikopo,NA,NA,NA,NA,NA,NA,NA,NA,NA,NA,NA,NA,NA,NA,NA,NA,NA,NA,NA,NA,NA,NA,NA
f76cb,Deep Question,html.Page,1_1_4_0_0,NA,NA,form submission,4323.5000000954,94853.100000143,94851.1,94867.9,99191.400000095,99191.600000143,2024-05-14T11:31:51Z,99216.6,"c(""distractor1"", ""distractor2"", ""distractor3"")",Schatten,kivuli,d,NA,NA,NA,sdfe,NA,NA,NA,NA,NA,NA,NA,NA,NA,NA,NA,NA,NA,NA,NA,NA,NA,NA,NA,NA,NA,NA
f76cb,"""Richtig""-Screen",canvas.Screen,1_1_4_0_1,NA,NA,skipped,NA,99193,NA,NA,99191.400000095,99193.100000143,2024-05-14T11:31:51Z,99216.6,"c(""distractor1"", ""distractor2"", ""distractor3"")",Schatten,kivuli,d,NA,NA,NA,NA,NA,NA,NA,NA,NA,NA,NA,NA,NA,NA,NA,NA,NA,NA,NA,NA,NA,NA,NA,NA,NA,NA
f76cb,"""Falsch""-Screen",canvas.Screen,1_1_4_0_2,NA,NA,timeout,4996.7,99193.600000143,99191.954,99216.6,104196.6,104197.10000014,2024-05-14T11:31:56Z,104213.3,"c(""distractor1"", ""distractor2"", ""distractor3"")",Schatten,kivuli,d,NA,NA,NA,NA,NA,0,NA,NA,NA,NA,NA,NA,NA,NA,NA,NA,NA,NA,NA,NA,NA,NA,NA,NA,NA,NA
f76cb,deep,flow.Sequence,1_1_4_0,NA,NA,completion,9328.7,94853.100000143,94851.1,94867.9,104196.6,104197.20000005,2024-05-14T11:31:56Z,104213.3,"c(""distractor1"", ""distractor2"", ""distractor3"")",Schatten,kivuli,d,NA,NA,NA,NA,NA,NA,NA,NA,NA,NA,NA,NA,NA,NA,NA,NA,NA,NA,NA,NA,NA,NA,NA,NA,NA,NA
f76cb,shallow,flow.Sequence,1_1_4_1,NA,NA,skipped,NA,104197.30000019,NA,NA,104196.6,104197.30000019,2024-05-14T11:31:56Z,104213.3,"c(""distractor1"", ""distractor2"", ""distractor3"")",Schatten,kivuli,d,NA,NA,NA,NA,NA,NA,NA,NA,NA,NA,NA,NA,NA,NA,NA,NA,NA,NA,NA,NA,NA,NA,NA,NA,NA,NA
f76cb,task,flow.Sequence,1_1_4,NA,NA,completion,9328.7,94853.100000143,94851.1,94867.9,104196.6,104197.30000019,2024-05-14T11:31:56Z,104213.3,"c(""distractor1"", ""distractor2"", ""distractor3"")",Schatten,kivuli,d,NA,NA,NA,NA,NA,NA,NA,NA,NA,NA,NA,NA,NA,NA,NA,NA,NA,NA,NA,NA,NA,NA,NA,NA,NA,NA
f76cb,Deep Question,html.Page,1_1_5_0_0,NA,NA,form submission,5095.9000000477,104197.30000019,104196.6,104213.3,109309.20000005,109309.4000001,2024-05-14T11:32:01Z,109331.2,"c(""distractor1"", ""distractor2"", ""distractor3"")",Gesundheit,salama,d,NA,NA,NA,earfas,NA,NA,NA,NA,NA,NA,NA,NA,NA,NA,NA,NA,NA,NA,NA,NA,NA,NA,NA,NA,NA,NA
f76cb,"""Richtig""-Screen",canvas.Screen,1_1_5_0_1,NA,NA,skipped,NA,109310.70000005,NA,NA,109309.20000005,109310.80000019,2024-05-14T11:32:01Z,109331.2,"c(""distractor1"", ""distractor2"", ""distractor3"")",Gesundheit,salama,d,NA,NA,NA,NA,NA,NA,NA,NA,NA,NA,NA,NA,NA,NA,NA,NA,NA,NA,NA,NA,NA,NA,NA,NA,NA,NA
f76cb,"""Falsch""-Screen",canvas.Screen,1_1_5_0_2,NA,NA,timeout,5003.6,109311.10000014,109309.624,109331.2,114318.2,114318.5,2024-05-14T11:32:06Z,114334.8,"c(""distractor1"", ""distractor2"", ""distractor3"")",Gesundheit,salama,d,NA,NA,NA,NA,NA,0,NA,NA,NA,NA,NA,NA,NA,NA,NA,NA,NA,NA,NA,NA,NA,NA,NA,NA,NA,NA
f76cb,deep,flow.Sequence,1_1_5_0,NA,NA,completion,10104.9,104197.30000019,104196.6,104213.3,114318.2,114318.70000005,2024-05-14T11:32:06Z,114334.8,"c(""distractor1"", ""distractor2"", ""distractor3"")",Gesundheit,salama,d,NA,NA,NA,NA,NA,NA,NA,NA,NA,NA,NA,NA,NA,NA,NA,NA,NA,NA,NA,NA,NA,NA,NA,NA,NA,NA
f76cb,shallow,flow.Sequence,1_1_5_1,NA,NA,skipped,NA,114318.70000005,NA,NA,114318.2,114318.70000005,2024-05-14T11:32:06Z,114334.8,"c(""distractor1"", ""distractor2"", ""distractor3"")",Gesundheit,salama,d,NA,NA,NA,NA,NA,NA,NA,NA,NA,NA,NA,NA,NA,NA,NA,NA,NA,NA,NA,NA,NA,NA,NA,NA,NA,NA
f76cb,task,flow.Sequence,1_1_5,NA,NA,completion,10104.9,104197.30000019,104196.6,104213.3,114318.2,114318.80000019,2024-05-14T11:32:06Z,114334.8,"c(""distractor1"", ""distractor2"", ""distractor3"")",Gesundheit,salama,d,NA,NA,NA,NA,NA,NA,NA,NA,NA,NA,NA,NA,NA,NA,NA,NA,NA,NA,NA,NA,NA,NA,NA,NA,NA,NA
f76cb,block,flow.Loop,1_1,NA,NA,completion,73255.358,41059.900000095,41062.842,41062.842,114318.2,114318.80000019,2024-05-14T11:32:06Z,114334.8,"c(""distractor1"", ""distractor2"", ""distractor3"")",NA,NA,NA,NA,NA,NA,NA,NA,NA,NA,NA,NA,NA,NA,NA,NA,NA,NA,NA,NA,NA,NA,NA,NA,NA,NA,NA,NA,NA
f76cb,Practice,flow.Sequence,1,NA,NA,completion,82204.8,32100.700000048,32093.95,32113.4,114318.2,114318.80000019,2024-05-14T11:32:06Z,114334.8,NULL,NA,NA,NA,NA,NA,NA,NA,NA,NA,NA,NA,NA,NA,NA,NA,NA,NA,NA,NA,NA,NA,NA,NA,NA,NA,NA,NA,NA,NA
f76cb,Experiment start,canvas.Screen,2,weiter,keypress(q),response,20688.7,114318.80000019,114318.2,114334.8,135023.5,135024,2024-05-14T11:32:27Z,135073.2,NULL,NA,NA,NA,NA,NA,NA,NA,NA,NA,NA,NA,NA,NA,NA,NA,NA,NA,NA,NA,NA,NA,NA,NA,NA,NA,NA,NA,NA,NA
f76cb,Deep Question,html.Page,3_0_0_0_0_0_0,NA,NA,form submission,11017.200000095,135071.60000014,135072.15,135073.2,146090.4000001,146090.60000014,2024-05-14T11:32:38Z,146104.1,NULL,Begegnung,kukutana,d,NA,NA,NA,dcilkd,NA,NA,0,NA,NA,NA,NA,NA,NA,NA,NA,NA,NA,NA,NA,NA,NA,NA,NA,NA,NA,NA
f76cb,"""Richtig""-Screen",canvas.Screen,3_0_0_0_0_0_1,NA,NA,skipped,NA,146092.20000005,NA,NA,146090.4000001,146092.30000019,2024-05-14T11:32:38Z,146104.1,NULL,Begegnung,kukutana,d,NA,NA,NA,NA,sdf,NA,0,NA,NA,NA,NA,NA,NA,NA,NA,NA,NA,NA,NA,NA,NA,NA,NA,NA,NA,NA
f76cb,"""Falsch""-Screen",canvas.Screen,3_0_0_0_0_0_2,NA,NA,timeout,4994.1,146092.60000014,146092.994,146104.1,151081.5,151082.10000014,2024-05-14T11:32:43Z,151098.2,NULL,Begegnung,kukutana,d,NA,NA,NA,NA,sdf,0,0,NA,NA,NA,NA,NA,NA,NA,NA,NA,NA,NA,NA,NA,NA,NA,NA,NA,NA,NA
f76cb,deep,flow.Sequence,3_0_0_0_0_0,NA,NA,completion,16008.3,135071.60000014,135072.15,135073.2,151081.5,151082.20000005,2024-05-14T11:32:43Z,151098.2,NULL,Begegnung,kukutana,d,NA,NA,NA,NA,sdf,NA,0,NA,NA,NA,NA,NA,NA,NA,NA,NA,NA,NA,NA,NA,NA,NA,NA,NA,NA,NA
f76cb,shallow,flow.Sequence,3_0_0_0_0_1,NA,NA,skipped,NA,151082.20000005,NA,NA,151081.5,151082.30000019,2024-05-14T11:32:43Z,151098.2,NULL,Begegnung,kukutana,d,NA,NA,NA,NA,sdf,NA,0,NA,NA,NA,NA,NA,NA,NA,NA,NA,NA,NA,NA,NA,NA,NA,NA,NA,NA,NA
f76cb,task,flow.Sequence,3_0_0_0_0,NA,NA,completion,16008.3,135071.60000014,135072.15,135073.2,151081.5,151082.30000019,2024-05-14T11:32:43Z,151098.2,NULL,Begegnung,kukutana,d,NA,NA,NA,NA,sdf,NA,0,NA,NA,NA,NA,NA,NA,NA,NA,NA,NA,NA,NA,NA,NA,NA,NA,NA,NA,NA
f76cb,Deep Question,html.Page,3_0_0_0_1_0_0,NA,NA,form submission,3917.8,151082.30000019,151081.5,151098.2,155016,155016.20000005,2024-05-14T11:32:47Z,155025.2,NULL,Schlange,foleni,d,NA,NA,NA,DCS,NA,NA,0,NA,NA,NA,NA,NA,NA,NA,NA,NA,NA,NA,NA,NA,NA,NA,NA,NA,NA,NA
f76cb,"""Richtig""-Screen",canvas.Screen,3_0_0_0_1_0_1,NA,NA,skipped,NA,155017.4000001,NA,NA,155016,155017.5,2024-05-14T11:32:47Z,155025.2,NULL,Schlange,foleni,d,NA,NA,NA,NA,sdf,NA,0,NA,NA,NA,NA,NA,NA,NA,NA,NA,NA,NA,NA,NA,NA,NA,NA,NA,NA,NA
f76cb,"""Falsch""-Screen",canvas.Screen,3_0_0_0_1_0_2,NA,NA,timeout,5008,155017.70000005,155008.6,155025.2,160016.6,160017.5,2024-05-14T11:32:52Z,160033.2,NULL,Schlange,foleni,d,NA,NA,NA,NA,sdf,0,0,NA,NA,NA,NA,NA,NA,NA,NA,NA,NA,NA,NA,NA,NA,NA,NA,NA,NA,NA
f76cb,deep,flow.Sequence,3_0_0_0_1_0,NA,NA,completion,8918.4,151082.30000019,151081.5,151098.2,160016.6,160017.5,2024-05-14T11:32:52Z,160033.2,NULL,Schlange,foleni,d,NA,NA,NA,NA,sdf,NA,0,NA,NA,NA,NA,NA,NA,NA,NA,NA,NA,NA,NA,NA,NA,NA,NA,NA,NA,NA
f76cb,shallow,flow.Sequence,3_0_0_0_1_1,NA,NA,skipped,NA,160017.60000014,NA,NA,160016.6,160017.60000014,2024-05-14T11:32:52Z,160033.2,NULL,Schlange,foleni,d,NA,NA,NA,NA,sdf,NA,0,NA,NA,NA,NA,NA,NA,NA,NA,NA,NA,NA,NA,NA,NA,NA,NA,NA,NA,NA
f76cb,task,flow.Sequence,3_0_0_0_1,NA,NA,completion,8918.4,151082.30000019,151081.5,151098.2,160016.6,160017.70000005,2024-05-14T11:32:52Z,160033.2,NULL,Schlange,foleni,d,NA,NA,NA,NA,sdf,NA,0,NA,NA,NA,NA,NA,NA,NA,NA,NA,NA,NA,NA,NA,NA,NA,NA,NA,NA,NA
f76cb,deep,flow.Sequence,3_0_0_0_2_0,NA,NA,skipped,NA,160017.80000019,NA,NA,160016.6,160017.80000019,2024-05-14T11:32:52Z,160033.2,NULL,Fleisch,mshakiki,s,kizunguzungu,mshikamano,angusho,NA,sdf,NA,0,NA,NA,NA,NA,NA,NA,NA,NA,NA,NA,NA,NA,NA,NA,NA,NA,NA,NA,NA
f76cb,Shallow Question,html.Page,3_0_0_0_2_1_0,NA,NA,form submission,8617.900000143,160017.80000019,160016.6,160033.2,168651.10000014,168651.20000005,2024-05-14T11:33:01Z,168675.4,NULL,Fleisch,mshakiki,s,kizunguzungu,mshikamano,angusho,angusho,NA,NA,0,NA,NA,NA,NA,NA,NA,NA,NA,NA,NA,NA,NA,NA,NA,NA,NA,NA,NA,NA
f76cb,"""Richtig""-Screen",canvas.Screen,3_0_0_0_2_1_1,NA,NA,skipped,NA,168652.4000001,NA,NA,168651.10000014,168652.5,2024-05-14T11:33:01Z,168675.4,NULL,Fleisch,mshakiki,s,kizunguzungu,mshikamano,angusho,NA,sdf,NA,0,NA,NA,NA,NA,NA,NA,NA,NA,NA,NA,NA,NA,NA,NA,NA,NA,NA,NA,NA
f76cb,"""Falsch""-Screen",canvas.Screen,3_0_0_0_2_1_2,NA,NA,timeout,4994.6,168652.9000001,168659.168,168675.4,173653.1,173655.10000014,2024-05-14T11:33:06Z,173670,NULL,Fleisch,mshakiki,s,kizunguzungu,mshikamano,angusho,NA,sdf,0,0,NA,NA,NA,NA,NA,NA,NA,NA,NA,NA,NA,NA,NA,NA,NA,NA,NA,NA,NA
f76cb,shallow,flow.Sequence,3_0_0_0_2_1,NA,NA,completion,13619.9,160017.80000019,160016.6,160033.2,173653.1,173655.20000005,2024-05-14T11:33:06Z,173670,NULL,Fleisch,mshakiki,s,kizunguzungu,mshikamano,angusho,NA,sdf,NA,0,NA,NA,NA,NA,NA,NA,NA,NA,NA,NA,NA,NA,NA,NA,NA,NA,NA,NA,NA
f76cb,task,flow.Sequence,3_0_0_0_2,NA,NA,completion,13619.9,160017.70000005,160016.6,160033.2,173653.1,173655.20000005,2024-05-14T11:33:06Z,173670,NULL,Fleisch,mshakiki,s,kizunguzungu,mshikamano,angusho,NA,sdf,NA,0,NA,NA,NA,NA,NA,NA,NA,NA,NA,NA,NA,NA,NA,NA,NA,NA,NA,NA,NA
f76cb,deep,flow.Sequence,3_0_0_0_3_0,NA,NA,skipped,NA,173655.30000019,NA,NA,173653.1,173655.30000019,2024-05-14T11:33:06Z,173670,NULL,Vermutung,udhanifu,s,haramia,tikisho,itifaki,NA,sdf,NA,0,NA,NA,NA,NA,NA,NA,NA,NA,NA,NA,NA,NA,NA,NA,NA,NA,NA,NA,NA
f76cb,Shallow Question,html.Page,3_0_0_0_3_1_0,NA,NA,form submission,6913.9000000954,173655.4000001,173653.1,173670,180583.9000001,180584,2024-05-14T11:33:13Z,180591.4,NULL,Vermutung,udhanifu,s,haramia,tikisho,itifaki,tikisho,NA,NA,0,NA,NA,NA,NA,NA,NA,NA,NA,NA,NA,NA,NA,NA,NA,NA,NA,NA,NA,NA
f76cb,"""Richtig""-Screen",canvas.Screen,3_0_0_0_3_1_1,NA,NA,skipped,NA,180585.10000014,NA,NA,180583.9000001,180585.20000005,2024-05-14T11:33:13Z,180591.4,NULL,Vermutung,udhanifu,s,haramia,tikisho,itifaki,NA,sdf,NA,0,NA,NA,NA,NA,NA,NA,NA,NA,NA,NA,NA,NA,NA,NA,NA,NA,NA,NA,NA
f76cb,"""Falsch""-Screen",canvas.Screen,3_0_0_0_3_1_2,NA,NA,timeout,4993.6,180585.5,180575.6,180591.4,185568.6,185570,2024-05-14T11:33:18Z,185585,NULL,Vermutung,udhanifu,s,haramia,tikisho,itifaki,NA,sdf,0,0,NA,NA,NA,NA,NA,NA,NA,NA,NA,NA,NA,NA,NA,NA,NA,NA,NA,NA,NA
f76cb,shallow,flow.Sequence,3_0_0_0_3_1,NA,NA,completion,11898.6,173655.4000001,173653.1,173670,185568.6,185570.20000005,2024-05-14T11:33:18Z,185585,NULL,Vermutung,udhanifu,s,haramia,tikisho,itifaki,NA,sdf,NA,0,NA,NA,NA,NA,NA,NA,NA,NA,NA,NA,NA,NA,NA,NA,NA,NA,NA,NA,NA
f76cb,task,flow.Sequence,3_0_0_0_3,NA,NA,completion,11898.6,173655.20000005,173653.1,173670,185568.6,185570.20000005,2024-05-14T11:33:18Z,185585,NULL,Vermutung,udhanifu,s,haramia,tikisho,itifaki,NA,sdf,NA,0,NA,NA,NA,NA,NA,NA,NA,NA,NA,NA,NA,NA,NA,NA,NA,NA,NA,NA,NA
f76cb,Deep Question,html.Page,3_0_0_0_4_0_0,NA,NA,form submission,3586,185570.30000019,185568.6,185585,189171,189171.10000014,2024-05-14T11:33:21Z,189179.3,NULL,Toleranz,kuvumiliana,d,NA,NA,NA,wedsdxc,NA,NA,0,NA,NA,NA,NA,NA,NA,NA,NA,NA,NA,NA,NA,NA,NA,NA,NA,NA,NA,NA
f76cb,"""Richtig""-Screen",canvas.Screen,3_0_0_0_4_0_1,NA,NA,skipped,NA,189172.4000001,NA,NA,189171,189172.4000001,2024-05-14T11:33:21Z,189179.3,NULL,Toleranz,kuvumiliana,d,NA,NA,NA,NA,sdf,NA,0,NA,NA,NA,NA,NA,NA,NA,NA,NA,NA,NA,NA,NA,NA,NA,NA,NA,NA,NA
f76cb,"""Falsch""-Screen",canvas.Screen,3_0_0_0_4_0_2,NA,NA,timeout,4998.3,189172.70000005,189163.4,189179.3,194160.8,194161.4000001,2024-05-14T11:33:26Z,194177.6,NULL,Toleranz,kuvumiliana,d,NA,NA,NA,NA,sdf,0,0,NA,NA,NA,NA,NA,NA,NA,NA,NA,NA,NA,NA,NA,NA,NA,NA,NA,NA,NA
f76cb,deep,flow.Sequence,3_0_0_0_4_0,NA,NA,completion,8575.8,185570.30000019,185568.6,185585,194160.8,194161.5,2024-05-14T11:33:26Z,194177.6,NULL,Toleranz,kuvumiliana,d,NA,NA,NA,NA,sdf,NA,0,NA,NA,NA,NA,NA,NA,NA,NA,NA,NA,NA,NA,NA,NA,NA,NA,NA,NA,NA
f76cb,shallow,flow.Sequence,3_0_0_0_4_1,NA,NA,skipped,NA,194161.5,NA,NA,194160.8,194161.60000014,2024-05-14T11:33:26Z,194177.6,NULL,Toleranz,kuvumiliana,d,NA,NA,NA,NA,sdf,NA,0,NA,NA,NA,NA,NA,NA,NA,NA,NA,NA,NA,NA,NA,NA,NA,NA,NA,NA,NA
f76cb,task,flow.Sequence,3_0_0_0_4,NA,NA,completion,8575.8,185570.20000005,185568.6,185585,194160.8,194161.60000014,2024-05-14T11:33:26Z,194177.6,NULL,Toleranz,kuvumiliana,d,NA,NA,NA,NA,sdf,NA,0,NA,NA,NA,NA,NA,NA,NA,NA,NA,NA,NA,NA,NA,NA,NA,NA,NA,NA,NA
f76cb,deep,flow.Sequence,3_0_0_0_5_0,NA,NA,skipped,NA,194161.60000014,NA,NA,194160.8,194161.60000014,2024-05-14T11:33:26Z,194177.6,NULL,Integrität,uadilifu,s,muungano,mtiririko,upunguaji,NA,sdf,NA,0,NA,NA,NA,NA,NA,NA,NA,NA,NA,NA,NA,NA,NA,NA,NA,NA,NA,NA,NA
f76cb,Shallow Question,html.Page,3_0_0_0_5_1_0,NA,NA,form submission,9138.8000000954,194161.60000014,194160.8,194177.6,203316.4000001,203316.70000005,2024-05-14T11:33:35Z,203326.4,NULL,Integrität,uadilifu,s,muungano,mtiririko,upunguaji,mtiririko,NA,NA,0,NA,NA,NA,NA,NA,NA,NA,NA,NA,NA,NA,NA,NA,NA,NA,NA,NA,NA,NA
f76cb,"""Richtig""-Screen",canvas.Screen,3_0_0_0_5_1_1,NA,NA,skipped,NA,203318,NA,NA,203316.4000001,203318,2024-05-14T11:33:35Z,203326.4,NULL,Integrität,uadilifu,s,muungano,mtiririko,upunguaji,NA,sdf,NA,0,NA,NA,NA,NA,NA,NA,NA,NA,NA,NA,NA,NA,NA,NA,NA,NA,NA,NA,NA
f76cb,"""Falsch""-Screen",canvas.Screen,3_0_0_0_5_1_2,NA,NA,timeout,4997,203318.5,203309.562,203326.4,208306.7,208309,2024-05-14T11:33:40Z,208323.4,NULL,Integrität,uadilifu,s,muungano,mtiririko,upunguaji,NA,sdf,0,0,NA,NA,NA,NA,NA,NA,NA,NA,NA,NA,NA,NA,NA,NA,NA,NA,NA,NA,NA
f76cb,shallow,flow.Sequence,3_0_0_0_5_1,NA,NA,completion,14129.1,194161.60000014,194160.8,194177.6,208306.7,208309.20000005,2024-05-14T11:33:40Z,208323.4,NULL,Integrität,uadilifu,s,muungano,mtiririko,upunguaji,NA,sdf,NA,0,NA,NA,NA,NA,NA,NA,NA,NA,NA,NA,NA,NA,NA,NA,NA,NA,NA,NA,NA
f76cb,task,flow.Sequence,3_0_0_0_5,NA,NA,completion,14129.1,194161.60000014,194160.8,194177.6,208306.7,208309.20000005,2024-05-14T11:33:40Z,208323.4,NULL,Integrität,uadilifu,s,muungano,mtiririko,upunguaji,NA,sdf,NA,0,NA,NA,NA,NA,NA,NA,NA,NA,NA,NA,NA,NA,NA,NA,NA,NA,NA,NA,NA
f76cb,Deep Question,html.Page,3_0_0_0_6_0_0,NA,NA,form submission,3167.8000000477,208309.30000019,208306.7,208323.4,211491.20000005,211491.4000001,2024-05-14T11:33:44Z,211502.2,NULL,Genehmigung,idhini,d,NA,NA,NA,wdsxsx,NA,NA,0,NA,NA,NA,NA,NA,NA,NA,NA,NA,NA,NA,NA,NA,NA,NA,NA,NA,NA,NA
f76cb,"""Richtig""-Screen",canvas.Screen,3_0_0_0_6_0_1,NA,NA,skipped,NA,211493,NA,NA,211491.20000005,211493.10000014,2024-05-14T11:33:44Z,211502.2,NULL,Genehmigung,idhini,d,NA,NA,NA,NA,sdf,NA,0,NA,NA,NA,NA,NA,NA,NA,NA,NA,NA,NA,NA,NA,NA,NA,NA,NA,NA,NA
f76cb,"""Falsch""-Screen",canvas.Screen,3_0_0_0_6_0_2,NA,NA,timeout,4994.2,211493.5,211485.868,211502.2,216479.7,216480.10000014,2024-05-14T11:33:49Z,216496.4,NULL,Genehmigung,idhini,d,NA,NA,NA,NA,sdf,0,0,NA,NA,NA,NA,NA,NA,NA,NA,NA,NA,NA,NA,NA,NA,NA,NA,NA,NA,NA
f76cb,deep,flow.Sequence,3_0_0_0_6_0,NA,NA,completion,8156.3,208309.30000019,208306.7,208323.4,216479.7,216480.20000005,2024-05-14T11:33:49Z,216496.4,NULL,Genehmigung,idhini,d,NA,NA,NA,NA,sdf,NA,0,NA,NA,NA,NA,NA,NA,NA,NA,NA,NA,NA,NA,NA,NA,NA,NA,NA,NA,NA
f76cb,shallow,flow.Sequence,3_0_0_0_6_1,NA,NA,skipped,NA,216480.30000019,NA,NA,216479.7,216480.30000019,2024-05-14T11:33:49Z,216496.4,NULL,Genehmigung,idhini,d,NA,NA,NA,NA,sdf,NA,0,NA,NA,NA,NA,NA,NA,NA,NA,NA,NA,NA,NA,NA,NA,NA,NA,NA,NA,NA
f76cb,task,flow.Sequence,3_0_0_0_6,NA,NA,completion,8156.3,208309.20000005,208306.7,208323.4,216479.7,216480.4000001,2024-05-14T11:33:49Z,216496.4,NULL,Genehmigung,idhini,d,NA,NA,NA,NA,sdf,NA,0,NA,NA,NA,NA,NA,NA,NA,NA,NA,NA,NA,NA,NA,NA,NA,NA,NA,NA,NA
f76cb,deep,flow.Sequence,3_0_0_0_7_0,NA,NA,skipped,NA,216480.4000001,NA,NA,216479.7,216480.5,2024-05-14T11:33:49Z,216496.4,NULL,Inhalt,yaliyomo,s,kishawishi,hifadhi,kutembea,NA,sdf,NA,0,NA,NA,NA,NA,NA,NA,NA,NA,NA,NA,NA,NA,NA,NA,NA,NA,NA,NA,NA
f76cb,Shallow Question,html.Page,3_0_0_0_7_1_0,NA,NA,form submission,9649.7000001431,216480.5,216479.7,216496.4,226146.10000014,226146.20000005,2024-05-14T11:33:58Z,226158.8,NULL,Inhalt,yaliyomo,s,kishawishi,hifadhi,kutembea,kutembea,NA,NA,0,NA,NA,NA,NA,NA,NA,NA,NA,NA,NA,NA,NA,NA,NA,NA,NA,NA,NA,NA
f76cb,"""Richtig""-Screen",canvas.Screen,3_0_0_0_7_1_1,NA,NA,skipped,NA,226147.4000001,NA,NA,226146.10000014,226147.4000001,2024-05-14T11:33:58Z,226158.8,NULL,Inhalt,yaliyomo,s,kishawishi,hifadhi,kutembea,NA,sdf,NA,0,NA,NA,NA,NA,NA,NA,NA,NA,NA,NA,NA,NA,NA,NA,NA,NA,NA,NA,NA
f76cb,"""Falsch""-Screen",canvas.Screen,3_0_0_0_7_1_2,NA,NA,timeout,4994.5,226147.70000005,226142.362,226158.8,231136.4,231137,2024-05-14T11:34:03Z,231153.3,NULL,Inhalt,yaliyomo,s,kishawishi,hifadhi,kutembea,NA,sdf,0,0,NA,NA,NA,NA,NA,NA,NA,NA,NA,NA,NA,NA,NA,NA,NA,NA,NA,NA,NA
f76cb,shallow,flow.Sequence,3_0_0_0_7_1,NA,NA,completion,14640,216480.5,216479.7,216496.4,231136.4,231137.10000014,2024-05-14T11:34:03Z,231153.3,NULL,Inhalt,yaliyomo,s,kishawishi,hifadhi,kutembea,NA,sdf,NA,0,NA,NA,NA,NA,NA,NA,NA,NA,NA,NA,NA,NA,NA,NA,NA,NA,NA,NA,NA
f76cb,task,flow.Sequence,3_0_0_0_7,NA,NA,completion,14640,216480.4000001,216479.7,216496.4,231136.4,231137.20000005,2024-05-14T11:34:03Z,231153.3,NULL,Inhalt,yaliyomo,s,kishawishi,hifadhi,kutembea,NA,sdf,NA,0,NA,NA,NA,NA,NA,NA,NA,NA,NA,NA,NA,NA,NA,NA,NA,NA,NA,NA,NA
f76cb,block,flow.Loop,3_0_0_0,NA,NA,completion,96063.2,135071.60000014,135072.15,135073.2,231136.4,231137.20000005,2024-05-14T11:34:03Z,231153.3,NULL,NA,NA,NA,NA,NA,NA,NA,sdf,NA,0,NA,NA,NA,NA,NA,NA,NA,NA,NA,NA,NA,NA,NA,NA,NA,NA,NA,NA,NA
f76cb,weiter,canvas.Screen,3_0_0_1,sdf,keypress(Space),response,1199.7,231137.30000019,231136.4,231153.3,232353,232353.80000019,2024-05-14T11:34:04Z,232358.056,NULL,NA,NA,NA,NA,NA,NA,NA,sdf,NA,0,NA,NA,NA,NA,NA,NA,NA,NA,NA,NA,NA,NA,NA,NA,NA,NA,NA,NA,NA
f76cb,check continue,flow.Sequence,3_0_0,NA,NA,completion,97279.8,135071.60000014,135072.15,135073.2,232353,232353.9000001,2024-05-14T11:34:04Z,232358.056,NULL,NA,NA,NA,NA,NA,NA,NA,sdf,NA,0,NA,NA,NA,NA,NA,NA,NA,NA,NA,NA,NA,NA,NA,NA,NA,NA,NA,NA,NA
f76cb,Deep Question,html.Page,3_0_1_0_0_0_0,NA,NA,form submission,5983.7440001907,232367.70000005,232358.056,232358.056,238341.80000019,238341.9000001,2024-05-14T11:34:10Z,238344.5,NULL,Toleranz,kuvumiliana,d,NA,NA,NA,wdwedf,NA,NA,1,NA,NA,NA,NA,NA,NA,NA,NA,NA,NA,NA,NA,NA,NA,NA,NA,NA,NA,NA
f76cb,"""Richtig""-Screen",canvas.Screen,3_0_1_0_0_0_1,NA,NA,skipped,NA,238343.20000005,NA,NA,238341.80000019,238343.30000019,2024-05-14T11:34:10Z,238344.5,NULL,Toleranz,kuvumiliana,d,NA,NA,NA,NA,sdfdsf,NA,1,NA,NA,NA,NA,NA,NA,NA,NA,NA,NA,NA,NA,NA,NA,NA,NA,NA,NA,NA
f76cb,"""Falsch""-Screen",canvas.Screen,3_0_1_0_0_0_2,NA,NA,timeout,5000.3,238343.80000019,238328.322,238344.5,243328.3,243328.80000019,2024-05-14T11:34:15Z,243344.8,NULL,Toleranz,kuvumiliana,d,NA,NA,NA,NA,sdfdsf,0,1,NA,NA,NA,NA,NA,NA,NA,NA,NA,NA,NA,NA,NA,NA,NA,NA,NA,NA,NA
f76cb,deep,flow.Sequence,3_0_1_0_0_0,NA,NA,completion,10970.244,232367.70000005,232358.056,232358.056,243328.3,243329,2024-05-14T11:34:15Z,243344.8,NULL,Toleranz,kuvumiliana,d,NA,NA,NA,NA,sdfdsf,NA,1,NA,NA,NA,NA,NA,NA,NA,NA,NA,NA,NA,NA,NA,NA,NA,NA,NA,NA,NA
f76cb,shallow,flow.Sequence,3_0_1_0_0_1,NA,NA,skipped,NA,243329,NA,NA,243328.3,243329,2024-05-14T11:34:15Z,243344.8,NULL,Toleranz,kuvumiliana,d,NA,NA,NA,NA,sdfdsf,NA,1,NA,NA,NA,NA,NA,NA,NA,NA,NA,NA,NA,NA,NA,NA,NA,NA,NA,NA,NA
f76cb,task,flow.Sequence,3_0_1_0_0,NA,NA,completion,10970.244,232367.70000005,232358.056,232358.056,243328.3,243329.10000014,2024-05-14T11:34:15Z,243344.8,NULL,Toleranz,kuvumiliana,d,NA,NA,NA,NA,sdfdsf,NA,1,NA,NA,NA,NA,NA,NA,NA,NA,NA,NA,NA,NA,NA,NA,NA,NA,NA,NA,NA
f76cb,deep,flow.Sequence,3_0_1_0_1_0,NA,NA,skipped,NA,243329.10000014,NA,NA,243328.3,243329.10000014,2024-05-14T11:34:15Z,243344.8,NULL,Inhalt,yaliyomo,s,kishawishi,hifadhi,kutembea,NA,sdfdsf,NA,1,NA,NA,NA,NA,NA,NA,NA,NA,NA,NA,NA,NA,NA,NA,NA,NA,NA,NA,NA
f76cb,Shallow Question,html.Page,3_0_1_0_1_1_0,NA,NA,form submission,12443.100000095,243329.10000014,243328.3,243344.8,255787.9000001,255788,2024-05-14T11:34:28Z,255801.8,NULL,Inhalt,yaliyomo,s,kishawishi,hifadhi,kutembea,yaliyomo,NA,NA,1,NA,NA,NA,NA,NA,NA,NA,NA,NA,NA,NA,NA,NA,NA,NA,NA,NA,NA,NA
f76cb,"""Richtig""-Screen",canvas.Screen,3_0_1_0_1_1_1,NA,NA,timeout,5003.1,255789.30000019,255783.3,255801.8,260788.4,260789.10000014,2024-05-14T11:34:33Z,260804.9,NULL,Inhalt,yaliyomo,s,kishawishi,hifadhi,kutembea,NA,sdfdsf,1,1,NA,NA,NA,NA,NA,NA,NA,NA,NA,NA,NA,NA,NA,NA,NA,NA,NA,NA,NA
f76cb,"""Falsch""-Screen",canvas.Screen,3_0_1_0_1_1_2,NA,NA,skipped,NA,260790.30000019,NA,NA,260788.4,260790.30000019,2024-05-14T11:34:33Z,260804.9,NULL,Inhalt,yaliyomo,s,kishawishi,hifadhi,kutembea,NA,sdfdsf,NA,1,NA,NA,NA,NA,NA,NA,NA,NA,NA,NA,NA,NA,NA,NA,NA,NA,NA,NA,NA
f76cb,shallow,flow.Sequence,3_0_1_0_1_1,NA,NA,completion,17443.6,243329.10000014,243328.3,243344.8,260788.4,260790.4000001,2024-05-14T11:34:33Z,260804.9,NULL,Inhalt,yaliyomo,s,kishawishi,hifadhi,kutembea,NA,sdfdsf,NA,1,NA,NA,NA,NA,NA,NA,NA,NA,NA,NA,NA,NA,NA,NA,NA,NA,NA,NA,NA
f76cb,task,flow.Sequence,3_0_1_0_1,NA,NA,completion,17443.6,243329.10000014,243328.3,243344.8,260788.4,260790.5,2024-05-14T11:34:33Z,260804.9,NULL,Inhalt,yaliyomo,s,kishawishi,hifadhi,kutembea,NA,sdfdsf,NA,1,NA,NA,NA,NA,NA,NA,NA,NA,NA,NA,NA,NA,NA,NA,NA,NA,NA,NA,NA
f76cb,Deep Question,html.Page,3_0_1_0_2_0_0,NA,NA,form submission,7200.1,260790.5,260788.4,260804.9,268005,268005.10000014,2024-05-14T11:34:40Z,268016.7,NULL,Genehmigung,idhini,d,NA,NA,NA,kuvombo,NA,NA,1,NA,NA,NA,NA,NA,NA,NA,NA,NA,NA,NA,NA,NA,NA,NA,NA,NA,NA,NA
f76cb,"""Richtig""-Screen",canvas.Screen,3_0_1_0_2_0_1,NA,NA,skipped,NA,268006.4000001,NA,NA,268005,268006.4000001,2024-05-14T11:34:40Z,268016.7,NULL,Genehmigung,idhini,d,NA,NA,NA,NA,sdfdsf,NA,1,NA,NA,NA,NA,NA,NA,NA,NA,NA,NA,NA,NA,NA,NA,NA,NA,NA,NA,NA
f76cb,"""Falsch""-Screen",canvas.Screen,3_0_1_0_2_0_2,NA,NA,timeout,5000.8,268006.80000019,268004.33,268016.7,273000.9,273001.10000014,2024-05-14T11:34:45Z,273017.5,NULL,Genehmigung,idhini,d,NA,NA,NA,NA,sdfdsf,0,1,NA,NA,NA,NA,NA,NA,NA,NA,NA,NA,NA,NA,NA,NA,NA,NA,NA,NA,NA
f76cb,deep,flow.Sequence,3_0_1_0_2_0,NA,NA,completion,12196,260790.5,260788.4,260804.9,273000.9,273001.30000019,2024-05-14T11:34:45Z,273017.5,NULL,Genehmigung,idhini,d,NA,NA,NA,NA,sdfdsf,NA,1,NA,NA,NA,NA,NA,NA,NA,NA,NA,NA,NA,NA,NA,NA,NA,NA,NA,NA,NA
f76cb,shallow,flow.Sequence,3_0_1_0_2_1,NA,NA,skipped,NA,273001.30000019,NA,NA,273000.9,273001.30000019,2024-05-14T11:34:45Z,273017.5,NULL,Genehmigung,idhini,d,NA,NA,NA,NA,sdfdsf,NA,1,NA,NA,NA,NA,NA,NA,NA,NA,NA,NA,NA,NA,NA,NA,NA,NA,NA,NA,NA
f76cb,task,flow.Sequence,3_0_1_0_2,NA,NA,completion,12196,260790.5,260788.4,260804.9,273000.9,273001.4000001,2024-05-14T11:34:45Z,273017.5,NULL,Genehmigung,idhini,d,NA,NA,NA,NA,sdfdsf,NA,1,NA,NA,NA,NA,NA,NA,NA,NA,NA,NA,NA,NA,NA,NA,NA,NA,NA,NA,NA
f76cb,Deep Question,html.Page,3_0_1_0_3_0_0,NA,NA,form submission,6199.9000000954,273001.5,273000.9,273017.5,279217.4000001,279217.5,2024-05-14T11:34:51Z,279228.5,NULL,Begegnung,kukutana,d,NA,NA,NA,idhini,NA,NA,1,NA,NA,NA,NA,NA,NA,NA,NA,NA,NA,NA,NA,NA,NA,NA,NA,NA,NA,NA
f76cb,"""Richtig""-Screen",canvas.Screen,3_0_1_0_3_0_1,NA,NA,skipped,NA,279218.70000005,NA,NA,279217.4000001,279218.70000005,2024-05-14T11:34:51Z,279228.5,NULL,Begegnung,kukutana,d,NA,NA,NA,NA,sdfdsf,NA,1,NA,NA,NA,NA,NA,NA,NA,NA,NA,NA,NA,NA,NA,NA,NA,NA,NA,NA,NA
f76cb,"""Falsch""-Screen",canvas.Screen,3_0_1_0_3_0_2,NA,NA,timeout,4999.8,279219.10000014,279211.93,279228.5,284211.7,284212.70000005,2024-05-14T11:34:56Z,284228.3,NULL,Begegnung,kukutana,d,NA,NA,NA,NA,sdfdsf,0,1,NA,NA,NA,NA,NA,NA,NA,NA,NA,NA,NA,NA,NA,NA,NA,NA,NA,NA,NA
f76cb,deep,flow.Sequence,3_0_1_0_3_0,NA,NA,completion,11194.2,273001.5,273000.9,273017.5,284211.7,284212.80000019,2024-05-14T11:34:56Z,284228.3,NULL,Begegnung,kukutana,d,NA,NA,NA,NA,sdfdsf,NA,1,NA,NA,NA,NA,NA,NA,NA,NA,NA,NA,NA,NA,NA,NA,NA,NA,NA,NA,NA
f76cb,shallow,flow.Sequence,3_0_1_0_3_1,NA,NA,skipped,NA,284212.80000019,NA,NA,284211.7,284212.9000001,2024-05-14T11:34:56Z,284228.3,NULL,Begegnung,kukutana,d,NA,NA,NA,NA,sdfdsf,NA,1,NA,NA,NA,NA,NA,NA,NA,NA,NA,NA,NA,NA,NA,NA,NA,NA,NA,NA,NA
f76cb,task,flow.Sequence,3_0_1_0_3,NA,NA,completion,11194.2,273001.4000001,273000.9,273017.5,284211.7,284212.9000001,2024-05-14T11:34:56Z,284228.3,NULL,Begegnung,kukutana,d,NA,NA,NA,NA,sdfdsf,NA,1,NA,NA,NA,NA,NA,NA,NA,NA,NA,NA,NA,NA,NA,NA,NA,NA,NA,NA,NA
f76cb,Deep Question,html.Page,3_0_1_0_4_0_0,NA,NA,form submission,5339.7,284212.9000001,284211.7,284228.3,289568,289568.10000014,2024-05-14T11:35:02Z,289576.9,NULL,Schlange,foleni,d,NA,NA,NA,idhini,NA,NA,1,NA,NA,NA,NA,NA,NA,NA,NA,NA,NA,NA,NA,NA,NA,NA,NA,NA,NA,NA
f76cb,"""Richtig""-Screen",canvas.Screen,3_0_1_0_4_0_1,NA,NA,skipped,NA,289569.5,NA,NA,289568,289569.60000014,2024-05-14T11:35:02Z,289576.9,NULL,Schlange,foleni,d,NA,NA,NA,NA,sdfdsf,NA,1,NA,NA,NA,NA,NA,NA,NA,NA,NA,NA,NA,NA,NA,NA,NA,NA,NA,NA,NA
f76cb,"""Falsch""-Screen",canvas.Screen,3_0_1_0_4_0_2,NA,NA,timeout,4999.2,289569.9000001,289560.6,289576.9,294559.6,294561.20000005,2024-05-14T11:35:07Z,294576.1,NULL,Schlange,foleni,d,NA,NA,NA,NA,sdfdsf,0,1,NA,NA,NA,NA,NA,NA,NA,NA,NA,NA,NA,NA,NA,NA,NA,NA,NA,NA,NA
f76cb,deep,flow.Sequence,3_0_1_0_4_0,NA,NA,completion,10331.3,284212.9000001,284211.7,284228.3,294559.6,294561.4000001,2024-05-14T11:35:07Z,294576.1,NULL,Schlange,foleni,d,NA,NA,NA,NA,sdfdsf,NA,1,NA,NA,NA,NA,NA,NA,NA,NA,NA,NA,NA,NA,NA,NA,NA,NA,NA,NA,NA
f76cb,shallow,flow.Sequence,3_0_1_0_4_1,NA,NA,skipped,NA,294561.4000001,NA,NA,294559.6,294561.4000001,2024-05-14T11:35:07Z,294576.1,NULL,Schlange,foleni,d,NA,NA,NA,NA,sdfdsf,NA,1,NA,NA,NA,NA,NA,NA,NA,NA,NA,NA,NA,NA,NA,NA,NA,NA,NA,NA,NA
f76cb,task,flow.Sequence,3_0_1_0_4,NA,NA,completion,10331.3,284212.9000001,284211.7,284228.3,294559.6,294561.5,2024-05-14T11:35:07Z,294576.1,NULL,Schlange,foleni,d,NA,NA,NA,NA,sdfdsf,NA,1,NA,NA,NA,NA,NA,NA,NA,NA,NA,NA,NA,NA,NA,NA,NA,NA,NA,NA,NA
f76cb,deep,flow.Sequence,3_0_1_0_5_0,NA,NA,skipped,NA,294561.5,NA,NA,294559.6,294561.5,2024-05-14T11:35:07Z,294576.1,NULL,Vermutung,udhanifu,s,haramia,tikisho,itifaki,NA,sdfdsf,NA,1,NA,NA,NA,NA,NA,NA,NA,NA,NA,NA,NA,NA,NA,NA,NA,NA,NA,NA,NA
f76cb,Shallow Question,html.Page,3_0_1_0_5_1_0,NA,NA,form submission,9901.6000000477,294561.60000014,294559.6,294576.1,304477.70000005,304477.9000001,2024-05-14T11:35:17Z,304488.4,NULL,Vermutung,udhanifu,s,haramia,tikisho,itifaki,itifaki,NA,NA,1,NA,NA,NA,NA,NA,NA,NA,NA,NA,NA,NA,NA,NA,NA,NA,NA,NA,NA,NA
f76cb,"""Richtig""-Screen",canvas.Screen,3_0_1_0_5_1_1,NA,NA,skipped,NA,304479.60000014,NA,NA,304477.70000005,304479.70000005,2024-05-14T11:35:17Z,304488.4,NULL,Vermutung,udhanifu,s,haramia,tikisho,itifaki,NA,sdfdsf,NA,1,NA,NA,NA,NA,NA,NA,NA,NA,NA,NA,NA,NA,NA,NA,NA,NA,NA,NA,NA
f76cb,"""Falsch""-Screen",canvas.Screen,3_0_1_0_5_1_2,NA,NA,timeout,4995.3,304480.5,304471.988,304488.4,309467,309472.70000005,2024-05-14T11:35:22Z,309483.7,NULL,Vermutung,udhanifu,s,haramia,tikisho,itifaki,NA,sdfdsf,0,1,NA,NA,NA,NA,NA,NA,NA,NA,NA,NA,NA,NA,NA,NA,NA,NA,NA,NA,NA
f76cb,shallow,flow.Sequence,3_0_1_0_5_1,NA,NA,completion,14890.9,294561.5,294559.6,294576.1,309467,309472.70000005,2024-05-14T11:35:22Z,309483.7,NULL,Vermutung,udhanifu,s,haramia,tikisho,itifaki,NA,sdfdsf,NA,1,NA,NA,NA,NA,NA,NA,NA,NA,NA,NA,NA,NA,NA,NA,NA,NA,NA,NA,NA
f76cb,task,flow.Sequence,3_0_1_0_5,NA,NA,completion,14890.9,294561.5,294559.6,294576.1,309467,309472.80000019,2024-05-14T11:35:22Z,309483.7,NULL,Vermutung,udhanifu,s,haramia,tikisho,itifaki,NA,sdfdsf,NA,1,NA,NA,NA,NA,NA,NA,NA,NA,NA,NA,NA,NA,NA,NA,NA,NA,NA,NA,NA
f76cb,deep,flow.Sequence,3_0_1_0_6_0,NA,NA,skipped,NA,309472.80000019,NA,NA,309467,309472.80000019,2024-05-14T11:35:22Z,309483.7,NULL,Fleisch,mshakiki,s,kizunguzungu,mshikamano,angusho,NA,sdfdsf,NA,1,NA,NA,NA,NA,NA,NA,NA,NA,NA,NA,NA,NA,NA,NA,NA,NA,NA,NA,NA
f76cb,Shallow Question,html.Page,3_0_1_0_6_1_0,NA,NA,form submission,6867.0000000477,309472.80000019,309467,309483.7,316350.70000005,316350.9000001,2024-05-14T11:35:28Z,316353.622,NULL,Fleisch,mshakiki,s,kizunguzungu,mshikamano,angusho,mshakiki,NA,NA,1,NA,NA,NA,NA,NA,NA,NA,NA,NA,NA,NA,NA,NA,NA,NA,NA,NA,NA,NA
f76cb,"""Richtig""-Screen",canvas.Screen,3_0_1_0_6_1_1,NA,NA,timeout,4999.678,316352.30000019,316353.622,316353.622,321336.6,321337.10000014,2024-05-14T11:35:33Z,321353.3,NULL,Fleisch,mshakiki,s,kizunguzungu,mshikamano,angusho,NA,sdfdsf,1,1,NA,NA,NA,NA,NA,NA,NA,NA,NA,NA,NA,NA,NA,NA,NA,NA,NA,NA,NA
f76cb,"""Falsch""-Screen",canvas.Screen,3_0_1_0_6_1_2,NA,NA,skipped,NA,321338.30000019,NA,NA,321336.6,321338.4000001,2024-05-14T11:35:33Z,321353.3,NULL,Fleisch,mshakiki,s,kizunguzungu,mshikamano,angusho,NA,sdfdsf,NA,1,NA,NA,NA,NA,NA,NA,NA,NA,NA,NA,NA,NA,NA,NA,NA,NA,NA,NA,NA
f76cb,shallow,flow.Sequence,3_0_1_0_6_1,NA,NA,completion,11852.9,309472.80000019,309467,309483.7,321336.6,321338.4000001,2024-05-14T11:35:33Z,321353.3,NULL,Fleisch,mshakiki,s,kizunguzungu,mshikamano,angusho,NA,sdfdsf,NA,1,NA,NA,NA,NA,NA,NA,NA,NA,NA,NA,NA,NA,NA,NA,NA,NA,NA,NA,NA
f76cb,task,flow.Sequence,3_0_1_0_6,NA,NA,completion,11852.9,309472.80000019,309467,309483.7,321336.6,321338.4000001,2024-05-14T11:35:33Z,321353.3,NULL,Fleisch,mshakiki,s,kizunguzungu,mshikamano,angusho,NA,sdfdsf,NA,1,NA,NA,NA,NA,NA,NA,NA,NA,NA,NA,NA,NA,NA,NA,NA,NA,NA,NA,NA
f76cb,deep,flow.Sequence,3_0_1_0_7_0,NA,NA,skipped,NA,321338.4000001,NA,NA,321336.6,321338.5,2024-05-14T11:35:33Z,321353.3,NULL,Integrität,uadilifu,s,muungano,mtiririko,upunguaji,NA,sdfdsf,NA,1,NA,NA,NA,NA,NA,NA,NA,NA,NA,NA,NA,NA,NA,NA,NA,NA,NA,NA,NA
f76cb,Shallow Question,html.Page,3_0_1_0_7_1_0,NA,NA,form submission,12495.100000095,321338.60000014,321336.6,321353.3,333848.4000001,333848.70000005,2024-05-14T11:35:46Z,333850.554,NULL,Integrität,uadilifu,s,muungano,mtiririko,upunguaji,uadilifu,NA,NA,1,NA,NA,NA,NA,NA,NA,NA,NA,NA,NA,NA,NA,NA,NA,NA,NA,NA,NA,NA
f76cb,"""Richtig""-Screen",canvas.Screen,3_0_1_0_7_1_1,NA,NA,timeout,4999.546,333850.4000001,333850.554,333850.554,338833.4,338833.9000001,2024-05-14T11:35:51Z,338850.1,NULL,Integrität,uadilifu,s,muungano,mtiririko,upunguaji,NA,sdfdsf,1,1,NA,NA,NA,NA,NA,NA,NA,NA,NA,NA,NA,NA,NA,NA,NA,NA,NA,NA,NA
f76cb,"""Falsch""-Screen",canvas.Screen,3_0_1_0_7_1_2,NA,NA,skipped,NA,338835.10000014,NA,NA,338833.4,338835.10000014,2024-05-14T11:35:51Z,338850.1,NULL,Integrität,uadilifu,s,muungano,mtiririko,upunguaji,NA,sdfdsf,NA,1,NA,NA,NA,NA,NA,NA,NA,NA,NA,NA,NA,NA,NA,NA,NA,NA,NA,NA,NA
f76cb,shallow,flow.Sequence,3_0_1_0_7_1,NA,NA,completion,17480.1,321338.60000014,321336.6,321353.3,338833.4,338835.20000005,2024-05-14T11:35:51Z,338850.1,NULL,Integrität,uadilifu,s,muungano,mtiririko,upunguaji,NA,sdfdsf,NA,1,NA,NA,NA,NA,NA,NA,NA,NA,NA,NA,NA,NA,NA,NA,NA,NA,NA,NA,NA
f76cb,task,flow.Sequence,3_0_1_0_7,NA,NA,completion,17480.1,321338.4000001,321336.6,321353.3,338833.4,338835.20000005,2024-05-14T11:35:51Z,338850.1,NULL,Integrität,uadilifu,s,muungano,mtiririko,upunguaji,NA,sdfdsf,NA,1,NA,NA,NA,NA,NA,NA,NA,NA,NA,NA,NA,NA,NA,NA,NA,NA,NA,NA,NA
f76cb,block,flow.Loop,3_0_1_0,NA,NA,completion,106475.344,232367.70000005,232358.056,232358.056,338833.4,338835.30000019,2024-05-14T11:35:51Z,338850.1,NULL,NA,NA,NA,NA,NA,NA,NA,sdfdsf,NA,1,NA,NA,NA,NA,NA,NA,NA,NA,NA,NA,NA,NA,NA,NA,NA,NA,NA,NA,NA
f76cb,weiter,canvas.Screen,3_0_1_1,sdf,keypress(Space),response,1438.3000000954,338835.30000019,338833.4,338850.1,340288.4000001,340289,2024-05-14T11:35:52Z,340300.042,NULL,NA,NA,NA,NA,NA,NA,NA,sdfdsf,NA,1,NA,NA,NA,NA,NA,NA,NA,NA,NA,NA,NA,NA,NA,NA,NA,NA,NA,NA,NA
f76cb,check continue,flow.Sequence,3_0_1,NA,NA,completion,107930.3440001,232367.70000005,232358.056,232358.056,340288.4000001,340289,2024-05-14T11:35:52Z,340300.042,NULL,NA,NA,NA,NA,NA,NA,NA,sdfdsf,NA,1,NA,NA,NA,NA,NA,NA,NA,NA,NA,NA,NA,NA,NA,NA,NA,NA,NA,NA,NA
f76cb,deep,flow.Sequence,3_0_2_0_0_0,NA,NA,skipped,NA,340304.80000019,NA,NA,340288.4000001,340304.9000001,2024-05-14T11:35:52Z,340300.042,NULL,Inhalt,yaliyomo,s,kishawishi,hifadhi,kutembea,NA,sdf,NA,2,NA,NA,NA,NA,NA,NA,NA,NA,NA,NA,NA,NA,NA,NA,NA,NA,NA,NA,NA
f76cb,Shallow Question,html.Page,3_0_2_0_0_1_0,NA,NA,form submission,7903.6580000477,340305,340300.042,340300.042,348203.70000005,348203.70000005,2024-05-14T11:36:00Z,348205.53,NULL,Inhalt,yaliyomo,s,kishawishi,hifadhi,kutembea,yaliyomo,NA,NA,2,NA,NA,NA,NA,NA,NA,NA,NA,NA,NA,NA,NA,NA,NA,NA,NA,NA,NA,NA
f76cb,"""Richtig""-Screen",canvas.Screen,3_0_2_0_0_1_1,NA,NA,timeout,5004.0699999999,348205,348205.53,348205.53,353192.9,353193.30000019,2024-05-14T11:36:05Z,353209.6,NULL,Inhalt,yaliyomo,s,kishawishi,hifadhi,kutembea,NA,sdf,1,2,NA,NA,NA,NA,NA,NA,NA,NA,NA,NA,NA,NA,NA,NA,NA,NA,NA,NA,NA
f76cb,"""Falsch""-Screen",canvas.Screen,3_0_2_0_0_1_2,NA,NA,skipped,NA,353194.60000014,NA,NA,353192.9,353194.80000019,2024-05-14T11:36:05Z,353209.6,NULL,Inhalt,yaliyomo,s,kishawishi,hifadhi,kutembea,NA,sdf,NA,2,NA,NA,NA,NA,NA,NA,NA,NA,NA,NA,NA,NA,NA,NA,NA,NA,NA,NA,NA
f76cb,shallow,flow.Sequence,3_0_2_0_0_1,NA,NA,completion,12892.858,340305,340300.042,340300.042,353192.9,353194.80000019,2024-05-14T11:36:05Z,353209.6,NULL,Inhalt,yaliyomo,s,kishawishi,hifadhi,kutembea,NA,sdf,NA,2,NA,NA,NA,NA,NA,NA,NA,NA,NA,NA,NA,NA,NA,NA,NA,NA,NA,NA,NA
f76cb,task,flow.Sequence,3_0_2_0_0,NA,NA,completion,12892.858,340304.80000019,340300.042,340300.042,353192.9,353194.80000019,2024-05-14T11:36:05Z,353209.6,NULL,Inhalt,yaliyomo,s,kishawishi,hifadhi,kutembea,NA,sdf,NA,2,NA,NA,NA,NA,NA,NA,NA,NA,NA,NA,NA,NA,NA,NA,NA,NA,NA,NA,NA
f76cb,Deep Question,html.Page,3_0_2_0_1_0_0,NA,NA,form submission,6296.5000001431,353194.80000019,353192.9,353209.6,359506.10000014,359506.20000005,2024-05-14T11:36:12Z,359519.2,NULL,Toleranz,kuvumiliana,d,NA,NA,NA,idhini,NA,NA,2,NA,NA,NA,NA,NA,NA,NA,NA,NA,NA,NA,NA,NA,NA,NA,NA,NA,NA,NA
f76cb,"""Richtig""-Screen",canvas.Screen,3_0_2_0_1_0_1,NA,NA,skipped,NA,359507.5,NA,NA,359506.10000014,359507.60000014,2024-05-14T11:36:12Z,359519.2,NULL,Toleranz,kuvumiliana,d,NA,NA,NA,NA,sdf,NA,2,NA,NA,NA,NA,NA,NA,NA,NA,NA,NA,NA,NA,NA,NA,NA,NA,NA,NA,NA
f76cb,"""Falsch""-Screen",canvas.Screen,3_0_2_0_1_0_2,NA,NA,timeout,5004.3,359508,359502.556,359519.2,364506.9,364507.5,2024-05-14T11:36:17Z,364523.5,NULL,Toleranz,kuvumiliana,d,NA,NA,NA,NA,sdf,0,2,NA,NA,NA,NA,NA,NA,NA,NA,NA,NA,NA,NA,NA,NA,NA,NA,NA,NA,NA
f76cb,deep,flow.Sequence,3_0_2_0_1_0,NA,NA,completion,11297.3,353194.80000019,353192.9,353209.6,364506.9,364507.60000014,2024-05-14T11:36:17Z,364523.5,NULL,Toleranz,kuvumiliana,d,NA,NA,NA,NA,sdf,NA,2,NA,NA,NA,NA,NA,NA,NA,NA,NA,NA,NA,NA,NA,NA,NA,NA,NA,NA,NA
f76cb,shallow,flow.Sequence,3_0_2_0_1_1,NA,NA,skipped,NA,364507.60000014,NA,NA,364506.9,364507.60000014,2024-05-14T11:36:17Z,364523.5,NULL,Toleranz,kuvumiliana,d,NA,NA,NA,NA,sdf,NA,2,NA,NA,NA,NA,NA,NA,NA,NA,NA,NA,NA,NA,NA,NA,NA,NA,NA,NA,NA
f76cb,task,flow.Sequence,3_0_2_0_1,NA,NA,completion,11297.3,353194.80000019,353192.9,353209.6,364506.9,364507.60000014,2024-05-14T11:36:17Z,364523.5,NULL,Toleranz,kuvumiliana,d,NA,NA,NA,NA,sdf,NA,2,NA,NA,NA,NA,NA,NA,NA,NA,NA,NA,NA,NA,NA,NA,NA,NA,NA,NA,NA
f76cb,deep,flow.Sequence,3_0_2_0_2_0,NA,NA,skipped,NA,364507.70000005,NA,NA,364506.9,364507.70000005,2024-05-14T11:36:17Z,364523.5,NULL,Integrität,uadilifu,s,muungano,mtiririko,upunguaji,NA,sdf,NA,2,NA,NA,NA,NA,NA,NA,NA,NA,NA,NA,NA,NA,NA,NA,NA,NA,NA,NA,NA
f76cb,Shallow Question,html.Page,3_0_2_0_2_1_0,NA,NA,form submission,8859.1000001431,364507.70000005,364506.9,364523.5,373382.60000014,373382.80000019,2024-05-14T11:36:25Z,373389.2,NULL,Integrität,uadilifu,s,muungano,mtiririko,upunguaji,uadilifu,NA,NA,2,NA,NA,NA,NA,NA,NA,NA,NA,NA,NA,NA,NA,NA,NA,NA,NA,NA,NA,NA
f76cb,"""Richtig""-Screen",canvas.Screen,3_0_2_0_2_1_1,NA,NA,timeout,5000.6,373384.20000005,373372.8,373389.2,378373.1,378373.4000001,2024-05-14T11:36:30Z,378389.8,NULL,Integrität,uadilifu,s,muungano,mtiririko,upunguaji,NA,sdf,1,2,NA,NA,NA,NA,NA,NA,NA,NA,NA,NA,NA,NA,NA,NA,NA,NA,NA,NA,NA
f76cb,"""Falsch""-Screen",canvas.Screen,3_0_2_0_2_1_2,NA,NA,skipped,NA,378374.70000005,NA,NA,378373.1,378374.80000019,2024-05-14T11:36:30Z,378389.8,NULL,Integrität,uadilifu,s,muungano,mtiririko,upunguaji,NA,sdf,NA,2,NA,NA,NA,NA,NA,NA,NA,NA,NA,NA,NA,NA,NA,NA,NA,NA,NA,NA,NA
f76cb,shallow,flow.Sequence,3_0_2_0_2_1,NA,NA,completion,13849.6,364507.70000005,364506.9,364523.5,378373.1,378374.80000019,2024-05-14T11:36:30Z,378389.8,NULL,Integrität,uadilifu,s,muungano,mtiririko,upunguaji,NA,sdf,NA,2,NA,NA,NA,NA,NA,NA,NA,NA,NA,NA,NA,NA,NA,NA,NA,NA,NA,NA,NA
f76cb,task,flow.Sequence,3_0_2_0_2,NA,NA,completion,13849.6,364507.60000014,364506.9,364523.5,378373.1,378374.9000001,2024-05-14T11:36:30Z,378389.8,NULL,Integrität,uadilifu,s,muungano,mtiririko,upunguaji,NA,sdf,NA,2,NA,NA,NA,NA,NA,NA,NA,NA,NA,NA,NA,NA,NA,NA,NA,NA,NA,NA,NA
f76cb,Deep Question,html.Page,3_0_2_0_3_0_0,NA,NA,form submission,5506.8000001431,378374.9000001,378373.1,378389.8,383896.60000014,383896.70000005,2024-05-14T11:36:36Z,383899.69,NULL,Genehmigung,idhini,d,NA,NA,NA,idhini,NA,NA,2,NA,NA,NA,NA,NA,NA,NA,NA,NA,NA,NA,NA,NA,NA,NA,NA,NA,NA,NA
f76cb,"""Richtig""-Screen",canvas.Screen,3_0_2_0_3_0_1,NA,NA,timeout,5003.21,383897.9000001,383899.69,383899.69,388886.2,388886.60000014,2024-05-14T11:36:41Z,388902.9,NULL,Genehmigung,idhini,d,NA,NA,NA,NA,sdf,1,2,NA,NA,NA,NA,NA,NA,NA,NA,NA,NA,NA,NA,NA,NA,NA,NA,NA,NA,NA
f76cb,"""Falsch""-Screen",canvas.Screen,3_0_2_0_3_0_2,NA,NA,skipped,NA,388888.10000014,NA,NA,388886.2,388888.10000014,2024-05-14T11:36:41Z,388902.9,NULL,Genehmigung,idhini,d,NA,NA,NA,NA,sdf,NA,2,NA,NA,NA,NA,NA,NA,NA,NA,NA,NA,NA,NA,NA,NA,NA,NA,NA,NA,NA
f76cb,deep,flow.Sequence,3_0_2_0_3_0,NA,NA,completion,10496.4,378374.9000001,378373.1,378389.8,388886.2,388888.10000014,2024-05-14T11:36:41Z,388902.9,NULL,Genehmigung,idhini,d,NA,NA,NA,NA,sdf,NA,2,NA,NA,NA,NA,NA,NA,NA,NA,NA,NA,NA,NA,NA,NA,NA,NA,NA,NA,NA
f76cb,shallow,flow.Sequence,3_0_2_0_3_1,NA,NA,skipped,NA,388888.20000005,NA,NA,388886.2,388888.20000005,2024-05-14T11:36:41Z,388902.9,NULL,Genehmigung,idhini,d,NA,NA,NA,NA,sdf,NA,2,NA,NA,NA,NA,NA,NA,NA,NA,NA,NA,NA,NA,NA,NA,NA,NA,NA,NA,NA
f76cb,task,flow.Sequence,3_0_2_0_3,NA,NA,completion,10496.4,378374.9000001,378373.1,378389.8,388886.2,388888.20000005,2024-05-14T11:36:41Z,388902.9,NULL,Genehmigung,idhini,d,NA,NA,NA,NA,sdf,NA,2,NA,NA,NA,NA,NA,NA,NA,NA,NA,NA,NA,NA,NA,NA,NA,NA,NA,NA,NA
f76cb,Deep Question,html.Page,3_0_2_0_4_0_0,NA,NA,form submission,15619.200000143,388888.20000005,388886.2,388902.9,404522.10000014,404522.20000005,2024-05-14T11:36:57Z,404535.7,NULL,Schlange,foleni,d,NA,NA,NA,kuteno,NA,NA,2,NA,NA,NA,NA,NA,NA,NA,NA,NA,NA,NA,NA,NA,NA,NA,NA,NA,NA,NA
f76cb,"""Richtig""-Screen",canvas.Screen,3_0_2_0_4_0_1,NA,NA,skipped,NA,404523.5,NA,NA,404522.10000014,404523.60000014,2024-05-14T11:36:57Z,404535.7,NULL,Schlange,foleni,d,NA,NA,NA,NA,sdf,NA,2,NA,NA,NA,NA,NA,NA,NA,NA,NA,NA,NA,NA,NA,NA,NA,NA,NA,NA,NA
f76cb,"""Falsch""-Screen",canvas.Screen,3_0_2_0_4_0_2,NA,NA,timeout,5007,404523.9000001,404519.3,404535.7,409526.1,409526.70000005,2024-05-14T11:37:02Z,409542.7,NULL,Schlange,foleni,d,NA,NA,NA,NA,sdf,0,2,NA,NA,NA,NA,NA,NA,NA,NA,NA,NA,NA,NA,NA,NA,NA,NA,NA,NA,NA
f76cb,deep,flow.Sequence,3_0_2_0_4_0,NA,NA,completion,20623.2,388888.20000005,388886.2,388902.9,409526.1,409526.80000019,2024-05-14T11:37:02Z,409542.7,NULL,Schlange,foleni,d,NA,NA,NA,NA,sdf,NA,2,NA,NA,NA,NA,NA,NA,NA,NA,NA,NA,NA,NA,NA,NA,NA,NA,NA,NA,NA
f76cb,shallow,flow.Sequence,3_0_2_0_4_1,NA,NA,skipped,NA,409526.80000019,NA,NA,409526.1,409526.80000019,2024-05-14T11:37:02Z,409542.7,NULL,Schlange,foleni,d,NA,NA,NA,NA,sdf,NA,2,NA,NA,NA,NA,NA,NA,NA,NA,NA,NA,NA,NA,NA,NA,NA,NA,NA,NA,NA
f76cb,task,flow.Sequence,3_0_2_0_4,NA,NA,completion,20623.2,388888.20000005,388886.2,388902.9,409526.1,409526.9000001,2024-05-14T11:37:02Z,409542.7,NULL,Schlange,foleni,d,NA,NA,NA,NA,sdf,NA,2,NA,NA,NA,NA,NA,NA,NA,NA,NA,NA,NA,NA,NA,NA,NA,NA,NA,NA,NA
f76cb,Deep Question,html.Page,3_0_2_0_5_0_0,NA,NA,form submission,4729.5000000477,409526.9000001,409526.1,409542.7,414272.20000005,414272.4000001,2024-05-14T11:37:06Z,414273.588,NULL,Begegnung,kukutana,d,NA,NA,NA,foleni,NA,NA,2,NA,NA,NA,NA,NA,NA,NA,NA,NA,NA,NA,NA,NA,NA,NA,NA,NA,NA,NA
f76cb,"""Richtig""-Screen",canvas.Screen,3_0_2_0_5_0_1,NA,NA,skipped,NA,414273.70000005,NA,NA,414272.20000005,414273.80000019,2024-05-14T11:37:06Z,414273.588,NULL,Begegnung,kukutana,d,NA,NA,NA,NA,sdf,NA,2,NA,NA,NA,NA,NA,NA,NA,NA,NA,NA,NA,NA,NA,NA,NA,NA,NA,NA,NA
f76cb,"""Falsch""-Screen",canvas.Screen,3_0_2_0_5_0_2,NA,NA,timeout,5006.212,414274.20000005,414273.588,414273.588,419263.3,419263.80000019,2024-05-14T11:37:11Z,419279.8,NULL,Begegnung,kukutana,d,NA,NA,NA,NA,sdf,0,2,NA,NA,NA,NA,NA,NA,NA,NA,NA,NA,NA,NA,NA,NA,NA,NA,NA,NA,NA
f76cb,deep,flow.Sequence,3_0_2_0_5_0,NA,NA,completion,9720.6,409526.9000001,409526.1,409542.7,419263.3,419263.9000001,2024-05-14T11:37:11Z,419279.8,NULL,Begegnung,kukutana,d,NA,NA,NA,NA,sdf,NA,2,NA,NA,NA,NA,NA,NA,NA,NA,NA,NA,NA,NA,NA,NA,NA,NA,NA,NA,NA
f76cb,shallow,flow.Sequence,3_0_2_0_5_1,NA,NA,skipped,NA,419263.9000001,NA,NA,419263.3,419263.9000001,2024-05-14T11:37:11Z,419279.8,NULL,Begegnung,kukutana,d,NA,NA,NA,NA,sdf,NA,2,NA,NA,NA,NA,NA,NA,NA,NA,NA,NA,NA,NA,NA,NA,NA,NA,NA,NA,NA
f76cb,task,flow.Sequence,3_0_2_0_5,NA,NA,completion,9720.6,409526.9000001,409526.1,409542.7,419263.3,419263.9000001,2024-05-14T11:37:11Z,419279.8,NULL,Begegnung,kukutana,d,NA,NA,NA,NA,sdf,NA,2,NA,NA,NA,NA,NA,NA,NA,NA,NA,NA,NA,NA,NA,NA,NA,NA,NA,NA,NA
f76cb,deep,flow.Sequence,3_0_2_0_6_0,NA,NA,skipped,NA,419264,NA,NA,419263.3,419264,2024-05-14T11:37:11Z,419279.8,NULL,Vermutung,udhanifu,s,haramia,tikisho,itifaki,NA,sdf,NA,2,NA,NA,NA,NA,NA,NA,NA,NA,NA,NA,NA,NA,NA,NA,NA,NA,NA,NA,NA
f76cb,Shallow Question,html.Page,3_0_2_0_6_1_0,NA,NA,form submission,8627.5000001907,419264,419263.3,419279.8,427907.30000019,427907.5,2024-05-14T11:37:20Z,427916.9,NULL,Vermutung,udhanifu,s,haramia,tikisho,itifaki,udhanifu,NA,NA,2,NA,NA,NA,NA,NA,NA,NA,NA,NA,NA,NA,NA,NA,NA,NA,NA,NA,NA,NA
f76cb,"""Richtig""-Screen",canvas.Screen,3_0_2_0_6_1_1,NA,NA,timeout,5004.5,427908.80000019,427900.796,427916.9,432904.7,432905.20000005,2024-05-14T11:37:25Z,432921.4,NULL,Vermutung,udhanifu,s,haramia,tikisho,itifaki,NA,sdf,1,2,NA,NA,NA,NA,NA,NA,NA,NA,NA,NA,NA,NA,NA,NA,NA,NA,NA,NA,NA
f76cb,"""Falsch""-Screen",canvas.Screen,3_0_2_0_6_1_2,NA,NA,skipped,NA,432906.4000001,NA,NA,432904.7,432906.5,2024-05-14T11:37:25Z,432921.4,NULL,Vermutung,udhanifu,s,haramia,tikisho,itifaki,NA,sdf,NA,2,NA,NA,NA,NA,NA,NA,NA,NA,NA,NA,NA,NA,NA,NA,NA,NA,NA,NA,NA
f76cb,shallow,flow.Sequence,3_0_2_0_6_1,NA,NA,completion,13624.9,419264,419263.3,419279.8,432904.7,432906.60000014,2024-05-14T11:37:25Z,432921.4,NULL,Vermutung,udhanifu,s,haramia,tikisho,itifaki,NA,sdf,NA,2,NA,NA,NA,NA,NA,NA,NA,NA,NA,NA,NA,NA,NA,NA,NA,NA,NA,NA,NA
f76cb,task,flow.Sequence,3_0_2_0_6,NA,NA,completion,13624.9,419264,419263.3,419279.8,432904.7,432906.60000014,2024-05-14T11:37:25Z,432921.4,NULL,Vermutung,udhanifu,s,haramia,tikisho,itifaki,NA,sdf,NA,2,NA,NA,NA,NA,NA,NA,NA,NA,NA,NA,NA,NA,NA,NA,NA,NA,NA,NA,NA
f76cb,deep,flow.Sequence,3_0_2_0_7_0,NA,NA,skipped,NA,432906.60000014,NA,NA,432904.7,432906.60000014,2024-05-14T11:37:25Z,432921.4,NULL,Fleisch,mshakiki,s,kizunguzungu,mshikamano,angusho,NA,sdf,NA,2,NA,NA,NA,NA,NA,NA,NA,NA,NA,NA,NA,NA,NA,NA,NA,NA,NA,NA,NA
f76cb,Shallow Question,html.Page,3_0_2_0_7_1_0,NA,NA,form submission,9611.4000001907,432906.60000014,432904.7,432921.4,442532.80000019,442532.9000001,2024-05-14T11:37:35Z,442542.1,NULL,Fleisch,mshakiki,s,kizunguzungu,mshikamano,angusho,mshakiki,NA,NA,2,NA,NA,NA,NA,NA,NA,NA,NA,NA,NA,NA,NA,NA,NA,NA,NA,NA,NA,NA
f76cb,"""Richtig""-Screen",canvas.Screen,3_0_2_0_7_1_1,NA,NA,timeout,4992.6,442534.10000014,442525.68,442542.1,447518.1,447518.60000014,2024-05-14T11:37:40Z,447534.7,NULL,Fleisch,mshakiki,s,kizunguzungu,mshikamano,angusho,NA,sdf,1,2,NA,NA,NA,NA,NA,NA,NA,NA,NA,NA,NA,NA,NA,NA,NA,NA,NA,NA,NA
f76cb,"""Falsch""-Screen",canvas.Screen,3_0_2_0_7_1_2,NA,NA,skipped,NA,447519.9000001,NA,NA,447518.1,447520,2024-05-14T11:37:40Z,447534.7,NULL,Fleisch,mshakiki,s,kizunguzungu,mshikamano,angusho,NA,sdf,NA,2,NA,NA,NA,NA,NA,NA,NA,NA,NA,NA,NA,NA,NA,NA,NA,NA,NA,NA,NA
f76cb,shallow,flow.Sequence,3_0_2_0_7_1,NA,NA,completion,14596.7,432906.60000014,432904.7,432921.4,447518.1,447520,2024-05-14T11:37:40Z,447534.7,NULL,Fleisch,mshakiki,s,kizunguzungu,mshikamano,angusho,NA,sdf,NA,2,NA,NA,NA,NA,NA,NA,NA,NA,NA,NA,NA,NA,NA,NA,NA,NA,NA,NA,NA
f76cb,task,flow.Sequence,3_0_2_0_7,NA,NA,completion,14596.7,432906.60000014,432904.7,432921.4,447518.1,447520.10000014,2024-05-14T11:37:40Z,447534.7,NULL,Fleisch,mshakiki,s,kizunguzungu,mshikamano,angusho,NA,sdf,NA,2,NA,NA,NA,NA,NA,NA,NA,NA,NA,NA,NA,NA,NA,NA,NA,NA,NA,NA,NA
f76cb,block,flow.Loop,3_0_2_0,NA,NA,completion,107218.058,340304.80000019,340300.042,340300.042,447518.1,447520.10000014,2024-05-14T11:37:40Z,447534.7,NULL,NA,NA,NA,NA,NA,NA,NA,sdf,NA,2,NA,NA,NA,NA,NA,NA,NA,NA,NA,NA,NA,NA,NA,NA,NA,NA,NA,NA,NA
f76cb,weiter,canvas.Screen,3_0_2_1,sdf,keypress(Space),response,1317.3,447520.10000014,447518.1,447534.7,448852,448852.4000001,2024-05-14T11:37:41Z,448856.634,NULL,NA,NA,NA,NA,NA,NA,NA,sdf,NA,2,NA,NA,NA,NA,NA,NA,NA,NA,NA,NA,NA,NA,NA,NA,NA,NA,NA,NA,NA
f76cb,check continue,flow.Sequence,3_0_2,NA,NA,completion,108551.958,340304.70000005,340300.042,340300.042,448852,448852.60000014,2024-05-14T11:37:41Z,448856.634,NULL,NA,NA,NA,NA,NA,NA,NA,sdf,NA,2,NA,NA,NA,NA,NA,NA,NA,NA,NA,NA,NA,NA,NA,NA,NA,NA,NA,NA,NA
f76cb,Deep Question,html.Page,3_0_3_0_0_0_0,NA,NA,form submission,5578.6660001907,448865.10000014,448856.634,448856.634,454435.30000019,454435.5,2024-05-14T11:37:47Z,454460.3,NULL,Toleranz,kuvumiliana,d,NA,NA,NA,foleni,NA,NA,3,NA,NA,NA,NA,NA,NA,NA,NA,NA,NA,NA,NA,NA,NA,NA,NA,NA,NA,NA
f76cb,"""Richtig""-Screen",canvas.Screen,3_0_3_0_0_0_1,NA,NA,skipped,NA,454436.70000005,NA,NA,454435.30000019,454436.80000019,2024-05-14T11:37:47Z,454460.3,NULL,Toleranz,kuvumiliana,d,NA,NA,NA,NA,qt,NA,3,NA,NA,NA,NA,NA,NA,NA,NA,NA,NA,NA,NA,NA,NA,NA,NA,NA,NA,NA
f76cb,"""Falsch""-Screen",canvas.Screen,3_0_3_0_0_0_2,NA,NA,timeout,5003.9,454437,454435.788,454460.3,459447.5,459448,2024-05-14T11:37:52Z,459464.2,NULL,Toleranz,kuvumiliana,d,NA,NA,NA,NA,qt,0,3,NA,NA,NA,NA,NA,NA,NA,NA,NA,NA,NA,NA,NA,NA,NA,NA,NA,NA,NA
f76cb,deep,flow.Sequence,3_0_3_0_0_0,NA,NA,completion,10590.866,448865.10000014,448856.634,448856.634,459447.5,459448,2024-05-14T11:37:52Z,459464.2,NULL,Toleranz,kuvumiliana,d,NA,NA,NA,NA,qt,NA,3,NA,NA,NA,NA,NA,NA,NA,NA,NA,NA,NA,NA,NA,NA,NA,NA,NA,NA,NA
f76cb,shallow,flow.Sequence,3_0_3_0_0_1,NA,NA,skipped,NA,459448.10000014,NA,NA,459447.5,459448.10000014,2024-05-14T11:37:52Z,459464.2,NULL,Toleranz,kuvumiliana,d,NA,NA,NA,NA,qt,NA,3,NA,NA,NA,NA,NA,NA,NA,NA,NA,NA,NA,NA,NA,NA,NA,NA,NA,NA,NA
f76cb,task,flow.Sequence,3_0_3_0_0,NA,NA,completion,10590.866,448865.10000014,448856.634,448856.634,459447.5,459448.20000005,2024-05-14T11:37:52Z,459464.2,NULL,Toleranz,kuvumiliana,d,NA,NA,NA,NA,qt,NA,3,NA,NA,NA,NA,NA,NA,NA,NA,NA,NA,NA,NA,NA,NA,NA,NA,NA,NA,NA
f76cb,Deep Question,html.Page,3_0_3_0_1_0_0,NA,NA,form submission,5419.1000001907,459448.20000005,459447.5,459464.2,464883.30000019,464883.4000001,2024-05-14T11:37:57Z,464891.6,NULL,Schlange,foleni,d,NA,NA,NA,foleni,NA,NA,3,NA,NA,NA,NA,NA,NA,NA,NA,NA,NA,NA,NA,NA,NA,NA,NA,NA,NA,NA
f76cb,"""Richtig""-Screen",canvas.Screen,3_0_3_0_1_0_1,NA,NA,timeout,4996.5,464885.10000014,464874.864,464891.6,469871.5,469871.9000001,2024-05-14T11:38:02Z,469888.1,NULL,Schlange,foleni,d,NA,NA,NA,NA,qt,1,3,NA,NA,NA,NA,NA,NA,NA,NA,NA,NA,NA,NA,NA,NA,NA,NA,NA,NA,NA
f76cb,"""Falsch""-Screen",canvas.Screen,3_0_3_0_1_0_2,NA,NA,skipped,NA,469873.4000001,NA,NA,469871.5,469873.60000014,2024-05-14T11:38:02Z,469888.1,NULL,Schlange,foleni,d,NA,NA,NA,NA,qt,NA,3,NA,NA,NA,NA,NA,NA,NA,NA,NA,NA,NA,NA,NA,NA,NA,NA,NA,NA,NA
f76cb,deep,flow.Sequence,3_0_3_0_1_0,NA,NA,completion,10407.3,459448.20000005,459447.5,459464.2,469871.5,469873.60000014,2024-05-14T11:38:02Z,469888.1,NULL,Schlange,foleni,d,NA,NA,NA,NA,qt,NA,3,NA,NA,NA,NA,NA,NA,NA,NA,NA,NA,NA,NA,NA,NA,NA,NA,NA,NA,NA
f76cb,shallow,flow.Sequence,3_0_3_0_1_1,NA,NA,skipped,NA,469873.60000014,NA,NA,469871.5,469873.70000005,2024-05-14T11:38:02Z,469888.1,NULL,Schlange,foleni,d,NA,NA,NA,NA,qt,NA,3,NA,NA,NA,NA,NA,NA,NA,NA,NA,NA,NA,NA,NA,NA,NA,NA,NA,NA,NA
f76cb,task,flow.Sequence,3_0_3_0_1,NA,NA,completion,10407.3,459448.20000005,459447.5,459464.2,469871.5,469873.80000019,2024-05-14T11:38:02Z,469888.1,NULL,Schlange,foleni,d,NA,NA,NA,NA,qt,NA,3,NA,NA,NA,NA,NA,NA,NA,NA,NA,NA,NA,NA,NA,NA,NA,NA,NA,NA,NA
f76cb,deep,flow.Sequence,3_0_3_0_2_0,NA,NA,skipped,NA,469873.80000019,NA,NA,469871.5,469873.80000019,2024-05-14T11:38:02Z,469888.1,NULL,Integrität,uadilifu,s,muungano,mtiririko,upunguaji,NA,qt,NA,3,NA,NA,NA,NA,NA,NA,NA,NA,NA,NA,NA,NA,NA,NA,NA,NA,NA,NA,NA
f76cb,Shallow Question,html.Page,3_0_3_0_2_1_0,NA,NA,form submission,9905.3000000954,469873.80000019,469871.5,469888.1,479793.4000001,479793.5,2024-05-14T11:38:12Z,479802.6,NULL,Integrität,uadilifu,s,muungano,mtiririko,upunguaji,uadilifu,NA,NA,3,NA,NA,NA,NA,NA,NA,NA,NA,NA,NA,NA,NA,NA,NA,NA,NA,NA,NA,NA
f76cb,"""Richtig""-Screen",canvas.Screen,3_0_3_0_2_1_1,NA,NA,timeout,5003.6,479794.80000019,479785.8,479802.6,484789.5,484790,2024-05-14T11:38:17Z,484806.2,NULL,Integrität,uadilifu,s,muungano,mtiririko,upunguaji,NA,qt,1,3,NA,NA,NA,NA,NA,NA,NA,NA,NA,NA,NA,NA,NA,NA,NA,NA,NA,NA,NA
f76cb,"""Falsch""-Screen",canvas.Screen,3_0_3_0_2_1_2,NA,NA,skipped,NA,484791.20000005,NA,NA,484789.5,484791.30000019,2024-05-14T11:38:17Z,484806.2,NULL,Integrität,uadilifu,s,muungano,mtiririko,upunguaji,NA,qt,NA,3,NA,NA,NA,NA,NA,NA,NA,NA,NA,NA,NA,NA,NA,NA,NA,NA,NA,NA,NA
f76cb,shallow,flow.Sequence,3_0_3_0_2_1,NA,NA,completion,14901.4,469873.80000019,469871.5,469888.1,484789.5,484791.30000019,2024-05-14T11:38:17Z,484806.2,NULL,Integrität,uadilifu,s,muungano,mtiririko,upunguaji,NA,qt,NA,3,NA,NA,NA,NA,NA,NA,NA,NA,NA,NA,NA,NA,NA,NA,NA,NA,NA,NA,NA
f76cb,task,flow.Sequence,3_0_3_0_2,NA,NA,completion,14901.4,469873.80000019,469871.5,469888.1,484789.5,484791.4000001,2024-05-14T11:38:17Z,484806.2,NULL,Integrität,uadilifu,s,muungano,mtiririko,upunguaji,NA,qt,NA,3,NA,NA,NA,NA,NA,NA,NA,NA,NA,NA,NA,NA,NA,NA,NA,NA,NA,NA,NA
f76cb,deep,flow.Sequence,3_0_3_0_3_0,NA,NA,skipped,NA,484791.4000001,NA,NA,484789.5,484791.4000001,2024-05-14T11:38:17Z,484806.2,NULL,Inhalt,yaliyomo,s,kishawishi,hifadhi,kutembea,NA,qt,NA,3,NA,NA,NA,NA,NA,NA,NA,NA,NA,NA,NA,NA,NA,NA,NA,NA,NA,NA,NA
f76cb,Shallow Question,html.Page,3_0_3_0_3_1_0,NA,NA,form submission,5886.900000143,484791.5,484789.5,484806.2,490693.10000014,490693.30000019,2024-05-14T11:38:23Z,490700.3,NULL,Inhalt,yaliyomo,s,kishawishi,hifadhi,kutembea,yaliyomo,NA,NA,3,NA,NA,NA,NA,NA,NA,NA,NA,NA,NA,NA,NA,NA,NA,NA,NA,NA,NA,NA
f76cb,"""Richtig""-Screen",canvas.Screen,3_0_3_0_3_1_1,NA,NA,timeout,5002.3,490694.70000005,490683.4,490700.3,495686,495686.30000019,2024-05-14T11:38:28Z,495702.6,NULL,Inhalt,yaliyomo,s,kishawishi,hifadhi,kutembea,NA,qt,1,3,NA,NA,NA,NA,NA,NA,NA,NA,NA,NA,NA,NA,NA,NA,NA,NA,NA,NA,NA
f76cb,"""Falsch""-Screen",canvas.Screen,3_0_3_0_3_1_2,NA,NA,skipped,NA,495687.4000001,NA,NA,495686,495687.60000014,2024-05-14T11:38:28Z,495702.6,NULL,Inhalt,yaliyomo,s,kishawishi,hifadhi,kutembea,NA,qt,NA,3,NA,NA,NA,NA,NA,NA,NA,NA,NA,NA,NA,NA,NA,NA,NA,NA,NA,NA,NA
f76cb,shallow,flow.Sequence,3_0_3_0_3_1,NA,NA,completion,10879.8,484791.4000001,484789.5,484806.2,495686,495687.60000014,2024-05-14T11:38:28Z,495702.6,NULL,Inhalt,yaliyomo,s,kishawishi,hifadhi,kutembea,NA,qt,NA,3,NA,NA,NA,NA,NA,NA,NA,NA,NA,NA,NA,NA,NA,NA,NA,NA,NA,NA,NA
f76cb,task,flow.Sequence,3_0_3_0_3,NA,NA,completion,10879.8,484791.4000001,484789.5,484806.2,495686,495687.70000005,2024-05-14T11:38:28Z,495702.6,NULL,Inhalt,yaliyomo,s,kishawishi,hifadhi,kutembea,NA,qt,NA,3,NA,NA,NA,NA,NA,NA,NA,NA,NA,NA,NA,NA,NA,NA,NA,NA,NA,NA,NA
f76cb,Deep Question,html.Page,3_0_3_0_4_0_0,NA,NA,form submission,6185.6000000477,495687.70000005,495686,495702.6,501888.20000005,501888.30000019,2024-05-14T11:38:34Z,501906.3,NULL,Begegnung,kukutana,d,NA,NA,NA,idhini,NA,NA,3,NA,NA,NA,NA,NA,NA,NA,NA,NA,NA,NA,NA,NA,NA,NA,NA,NA,NA,NA
f76cb,"""Richtig""-Screen",canvas.Screen,3_0_3_0_4_0_1,NA,NA,skipped,NA,501889.60000014,NA,NA,501888.20000005,501889.70000005,2024-05-14T11:38:34Z,501906.3,NULL,Begegnung,kukutana,d,NA,NA,NA,NA,qt,NA,3,NA,NA,NA,NA,NA,NA,NA,NA,NA,NA,NA,NA,NA,NA,NA,NA,NA,NA,NA
f76cb,"""Falsch""-Screen",canvas.Screen,3_0_3_0_4_0_2,NA,NA,timeout,4995.3,501890.10000014,501889.6,501906.3,506884.8,506885.30000019,2024-05-14T11:38:39Z,506901.6,NULL,Begegnung,kukutana,d,NA,NA,NA,NA,qt,0,3,NA,NA,NA,NA,NA,NA,NA,NA,NA,NA,NA,NA,NA,NA,NA,NA,NA,NA,NA
f76cb,deep,flow.Sequence,3_0_3_0_4_0,NA,NA,completion,11182.2,495687.70000005,495686,495702.6,506884.8,506885.4000001,2024-05-14T11:38:39Z,506901.6,NULL,Begegnung,kukutana,d,NA,NA,NA,NA,qt,NA,3,NA,NA,NA,NA,NA,NA,NA,NA,NA,NA,NA,NA,NA,NA,NA,NA,NA,NA,NA
f76cb,shallow,flow.Sequence,3_0_3_0_4_1,NA,NA,skipped,NA,506885.4000001,NA,NA,506884.8,506885.5,2024-05-14T11:38:39Z,506901.6,NULL,Begegnung,kukutana,d,NA,NA,NA,NA,qt,NA,3,NA,NA,NA,NA,NA,NA,NA,NA,NA,NA,NA,NA,NA,NA,NA,NA,NA,NA,NA
f76cb,task,flow.Sequence,3_0_3_0_4,NA,NA,completion,11182.2,495687.70000005,495686,495702.6,506884.8,506885.5,2024-05-14T11:38:39Z,506901.6,NULL,Begegnung,kukutana,d,NA,NA,NA,NA,qt,NA,3,NA,NA,NA,NA,NA,NA,NA,NA,NA,NA,NA,NA,NA,NA,NA,NA,NA,NA,NA
f76cb,deep,flow.Sequence,3_0_3_0_5_0,NA,NA,skipped,NA,506885.5,NA,NA,506884.8,506885.5,2024-05-14T11:38:39Z,506901.6,NULL,Vermutung,udhanifu,s,haramia,tikisho,itifaki,NA,qt,NA,3,NA,NA,NA,NA,NA,NA,NA,NA,NA,NA,NA,NA,NA,NA,NA,NA,NA,NA,NA
f76cb,Shallow Question,html.Page,3_0_3_0_5_1_0,NA,NA,form submission,6582.3000000954,506885.5,506884.8,506901.6,513483.9000001,513484,2024-05-14T11:38:46Z,513485.386,NULL,Vermutung,udhanifu,s,haramia,tikisho,itifaki,udhanifu,NA,NA,3,NA,NA,NA,NA,NA,NA,NA,NA,NA,NA,NA,NA,NA,NA,NA,NA,NA,NA,NA
f76cb,"""Richtig""-Screen",canvas.Screen,3_0_3_0_5_1_1,NA,NA,timeout,4999.714,513485.30000019,513485.386,513485.386,518468.4,518468.80000019,2024-05-14T11:38:51Z,518485.1,NULL,Vermutung,udhanifu,s,haramia,tikisho,itifaki,NA,qt,1,3,NA,NA,NA,NA,NA,NA,NA,NA,NA,NA,NA,NA,NA,NA,NA,NA,NA,NA,NA
f76cb,"""Falsch""-Screen",canvas.Screen,3_0_3_0_5_1_2,NA,NA,skipped,NA,518469.9000001,NA,NA,518468.4,518469.9000001,2024-05-14T11:38:51Z,518485.1,NULL,Vermutung,udhanifu,s,haramia,tikisho,itifaki,NA,qt,NA,3,NA,NA,NA,NA,NA,NA,NA,NA,NA,NA,NA,NA,NA,NA,NA,NA,NA,NA,NA
f76cb,shallow,flow.Sequence,3_0_3_0_5_1,NA,NA,completion,11566.8,506885.5,506884.8,506901.6,518468.4,518470,2024-05-14T11:38:51Z,518485.1,NULL,Vermutung,udhanifu,s,haramia,tikisho,itifaki,NA,qt,NA,3,NA,NA,NA,NA,NA,NA,NA,NA,NA,NA,NA,NA,NA,NA,NA,NA,NA,NA,NA
f76cb,task,flow.Sequence,3_0_3_0_5,NA,NA,completion,11566.8,506885.5,506884.8,506901.6,518468.4,518470,2024-05-14T11:38:51Z,518485.1,NULL,Vermutung,udhanifu,s,haramia,tikisho,itifaki,NA,qt,NA,3,NA,NA,NA,NA,NA,NA,NA,NA,NA,NA,NA,NA,NA,NA,NA,NA,NA,NA,NA
f76cb,Deep Question,html.Page,3_0_3_0_6_0_0,NA,NA,form submission,5919.0000001431,518470.10000014,518468.4,518485.1,524404.10000014,524404.30000019,2024-05-14T11:38:56Z,524408.5,NULL,Genehmigung,idhini,d,NA,NA,NA,idhini,NA,NA,3,NA,NA,NA,NA,NA,NA,NA,NA,NA,NA,NA,NA,NA,NA,NA,NA,NA,NA,NA
f76cb,"""Richtig""-Screen",canvas.Screen,3_0_3_0_6_0_1,NA,NA,timeout,5000.9,524406,524399.05,524408.5,529392.7,529393,2024-05-14T11:39:01Z,529409.4,NULL,Genehmigung,idhini,d,NA,NA,NA,NA,qt,1,3,NA,NA,NA,NA,NA,NA,NA,NA,NA,NA,NA,NA,NA,NA,NA,NA,NA,NA,NA
f76cb,"""Falsch""-Screen",canvas.Screen,3_0_3_0_6_0_2,NA,NA,skipped,NA,529394.4000001,NA,NA,529392.7,529394.60000014,2024-05-14T11:39:01Z,529409.4,NULL,Genehmigung,idhini,d,NA,NA,NA,NA,qt,NA,3,NA,NA,NA,NA,NA,NA,NA,NA,NA,NA,NA,NA,NA,NA,NA,NA,NA,NA,NA
f76cb,deep,flow.Sequence,3_0_3_0_6_0,NA,NA,completion,10907.6,518470.10000014,518468.4,518485.1,529392.7,529394.70000005,2024-05-14T11:39:01Z,529409.4,NULL,Genehmigung,idhini,d,NA,NA,NA,NA,qt,NA,3,NA,NA,NA,NA,NA,NA,NA,NA,NA,NA,NA,NA,NA,NA,NA,NA,NA,NA,NA
f76cb,shallow,flow.Sequence,3_0_3_0_6_1,NA,NA,skipped,NA,529394.70000005,NA,NA,529392.7,529394.70000005,2024-05-14T11:39:01Z,529409.4,NULL,Genehmigung,idhini,d,NA,NA,NA,NA,qt,NA,3,NA,NA,NA,NA,NA,NA,NA,NA,NA,NA,NA,NA,NA,NA,NA,NA,NA,NA,NA
f76cb,task,flow.Sequence,3_0_3_0_6,NA,NA,completion,10907.6,518470,518468.4,518485.1,529392.7,529394.80000019,2024-05-14T11:39:01Z,529409.4,NULL,Genehmigung,idhini,d,NA,NA,NA,NA,qt,NA,3,NA,NA,NA,NA,NA,NA,NA,NA,NA,NA,NA,NA,NA,NA,NA,NA,NA,NA,NA
f76cb,deep,flow.Sequence,3_0_3_0_7_0,NA,NA,skipped,NA,529394.80000019,NA,NA,529392.7,529394.80000019,2024-05-14T11:39:01Z,529409.4,NULL,Fleisch,mshakiki,s,kizunguzungu,mshikamano,angusho,NA,qt,NA,3,NA,NA,NA,NA,NA,NA,NA,NA,NA,NA,NA,NA,NA,NA,NA,NA,NA,NA,NA
f76cb,Shallow Question,html.Page,3_0_3_0_7_1_0,NA,NA,form submission,8367.5000000953,529394.80000019,529392.7,529409.4,537776.9000001,537777.10000014,2024-05-14T11:39:10Z,537790,NULL,Fleisch,mshakiki,s,kizunguzungu,mshikamano,angusho,mshakiki,NA,NA,3,NA,NA,NA,NA,NA,NA,NA,NA,NA,NA,NA,NA,NA,NA,NA,NA,NA,NA,NA
f76cb,"""Richtig""-Screen",canvas.Screen,3_0_3_0_7_1_1,NA,NA,timeout,5003.6,537778.5,537773.5,537790,542776.8,542777.30000019,2024-05-14T11:39:15Z,542793.6,NULL,Fleisch,mshakiki,s,kizunguzungu,mshikamano,angusho,NA,qt,1,3,NA,NA,NA,NA,NA,NA,NA,NA,NA,NA,NA,NA,NA,NA,NA,NA,NA,NA,NA
f76cb,"""Falsch""-Screen",canvas.Screen,3_0_3_0_7_1_2,NA,NA,skipped,NA,542778.60000014,NA,NA,542776.8,542778.70000005,2024-05-14T11:39:15Z,542793.6,NULL,Fleisch,mshakiki,s,kizunguzungu,mshikamano,angusho,NA,qt,NA,3,NA,NA,NA,NA,NA,NA,NA,NA,NA,NA,NA,NA,NA,NA,NA,NA,NA,NA,NA
f76cb,shallow,flow.Sequence,3_0_3_0_7_1,NA,NA,completion,13367.4,529394.80000019,529392.7,529409.4,542776.8,542778.80000019,2024-05-14T11:39:15Z,542793.6,NULL,Fleisch,mshakiki,s,kizunguzungu,mshikamano,angusho,NA,qt,NA,3,NA,NA,NA,NA,NA,NA,NA,NA,NA,NA,NA,NA,NA,NA,NA,NA,NA,NA,NA
f76cb,task,flow.Sequence,3_0_3_0_7,NA,NA,completion,13367.4,529394.80000019,529392.7,529409.4,542776.8,542778.80000019,2024-05-14T11:39:15Z,542793.6,NULL,Fleisch,mshakiki,s,kizunguzungu,mshikamano,angusho,NA,qt,NA,3,NA,NA,NA,NA,NA,NA,NA,NA,NA,NA,NA,NA,NA,NA,NA,NA,NA,NA,NA
f76cb,block,flow.Loop,3_0_3_0,NA,NA,completion,93920.166,448865.10000014,448856.634,448856.634,542776.8,542778.9000001,2024-05-14T11:39:15Z,542793.6,NULL,NA,NA,NA,NA,NA,NA,NA,qt,NA,3,NA,NA,NA,NA,NA,NA,NA,NA,NA,NA,NA,NA,NA,NA,NA,NA,NA,NA,NA
f76cb,weiter,canvas.Screen,3_0_3_1,sdf,keypress(Space),response,1254.0000001431,542778.9000001,542776.8,542793.6,544047.60000014,544048,2024-05-14T11:39:16Z,544365.8,NULL,NA,NA,NA,NA,NA,NA,NA,qt,NA,3,NA,NA,NA,NA,NA,NA,NA,NA,NA,NA,NA,NA,NA,NA,NA,NA,NA,NA,NA
f76cb,check continue,flow.Sequence,3_0_3,NA,NA,completion,95190.966000143,448865.10000014,448856.634,448856.634,544047.60000014,544048.10000014,2024-05-14T11:39:16Z,544365.8,NULL,NA,NA,NA,NA,NA,NA,NA,qt,NA,3,NA,NA,NA,NA,NA,NA,NA,NA,NA,NA,NA,NA,NA,NA,NA,NA,NA,NA,NA
f76cb,check continue,flow.Sequence,3_0_4,NA,NA,skipped,NA,544062.10000014,NA,NA,544047.60000014,544062.10000014,2024-05-14T11:39:16Z,544365.8,NULL,NA,NA,NA,NA,NA,NA,NA,sd,NA,4,NA,NA,NA,NA,NA,NA,NA,NA,NA,NA,NA,NA,NA,NA,NA,NA,NA,NA,NA
f76cb,check continue,flow.Sequence,3_0_5,NA,NA,skipped,NA,544080.5,NA,NA,544047.60000014,544080.5,2024-05-14T11:39:16Z,544365.8,NULL,NA,NA,NA,NA,NA,NA,NA,sdf,NA,5,NA,NA,NA,NA,NA,NA,NA,NA,NA,NA,NA,NA,NA,NA,NA,NA,NA,NA,NA
f76cb,check continue,flow.Sequence,3_0_6,NA,NA,skipped,NA,544101,NA,NA,544047.60000014,544101.20000005,2024-05-14T11:39:16Z,544365.8,NULL,NA,NA,NA,NA,NA,NA,NA,dfs,NA,6,NA,NA,NA,NA,NA,NA,NA,NA,NA,NA,NA,NA,NA,NA,NA,NA,NA,NA,NA
f76cb,check continue,flow.Sequence,3_0_7,NA,NA,skipped,NA,544117.70000005,NA,NA,544047.60000014,544117.80000019,2024-05-14T11:39:16Z,544365.8,NULL,NA,NA,NA,NA,NA,NA,NA,df,NA,7,NA,NA,NA,NA,NA,NA,NA,NA,NA,NA,NA,NA,NA,NA,NA,NA,NA,NA,NA
f76cb,check continue,flow.Sequence,3_0_8,NA,NA,skipped,NA,544135.30000019,NA,NA,544047.60000014,544135.30000019,2024-05-14T11:39:16Z,544365.8,NULL,NA,NA,NA,NA,NA,NA,NA,dfs,NA,8,NA,NA,NA,NA,NA,NA,NA,NA,NA,NA,NA,NA,NA,NA,NA,NA,NA,NA,NA
f76cb,check continue,flow.Sequence,3_0_9,NA,NA,skipped,NA,544147.60000014,NA,NA,544047.60000014,544147.60000014,2024-05-14T11:39:16Z,544365.8,NULL,NA,NA,NA,NA,NA,NA,NA,dsf,NA,9,NA,NA,NA,NA,NA,NA,NA,NA,NA,NA,NA,NA,NA,NA,NA,NA,NA,NA,NA
f76cb,check continue,flow.Sequence,3_0_10,NA,NA,skipped,NA,544161.80000019,NA,NA,544047.60000014,544161.9000001,2024-05-14T11:39:16Z,544365.8,NULL,NA,NA,NA,NA,NA,NA,NA,df,NA,10,NA,NA,NA,NA,NA,NA,NA,NA,NA,NA,NA,NA,NA,NA,NA,NA,NA,NA,NA
f76cb,check continue,flow.Sequence,3_0_11,NA,NA,skipped,NA,544175.20000005,NA,NA,544047.60000014,544175.20000005,2024-05-14T11:39:16Z,544365.8,NULL,NA,NA,NA,NA,NA,NA,NA,dfs,NA,11,NA,NA,NA,NA,NA,NA,NA,NA,NA,NA,NA,NA,NA,NA,NA,NA,NA,NA,NA
f76cb,check continue,flow.Sequence,3_0_12,NA,NA,skipped,NA,544186.60000014,NA,NA,544047.60000014,544186.60000014,2024-05-14T11:39:16Z,544365.8,NULL,NA,NA,NA,NA,NA,NA,NA,dsf,NA,12,NA,NA,NA,NA,NA,NA,NA,NA,NA,NA,NA,NA,NA,NA,NA,NA,NA,NA,NA
f76cb,check continue,flow.Sequence,3_0_13,NA,NA,skipped,NA,544198.20000005,NA,NA,544047.60000014,544198.20000005,2024-05-14T11:39:16Z,544365.8,NULL,NA,NA,NA,NA,NA,NA,NA,dsf,NA,13,NA,NA,NA,NA,NA,NA,NA,NA,NA,NA,NA,NA,NA,NA,NA,NA,NA,NA,NA
f76cb,check continue,flow.Sequence,3_0_14,NA,NA,skipped,NA,544208.9000001,NA,NA,544047.60000014,544209,2024-05-14T11:39:16Z,544365.8,NULL,NA,NA,NA,NA,NA,NA,NA,NA,NA,14,NA,NA,NA,NA,NA,NA,NA,NA,NA,NA,NA,NA,NA,NA,NA,NA,NA,NA,NA
f76cb,check continue,flow.Sequence,3_0_15,NA,NA,skipped,NA,544219.4000001,NA,NA,544047.60000014,544219.4000001,2024-05-14T11:39:16Z,544365.8,NULL,NA,NA,NA,NA,NA,NA,NA,NA,NA,15,NA,NA,NA,NA,NA,NA,NA,NA,NA,NA,NA,NA,NA,NA,NA,NA,NA,NA,NA
f76cb,check continue,flow.Sequence,3_0_16,NA,NA,skipped,NA,544229.9000001,NA,NA,544047.60000014,544230,2024-05-14T11:39:16Z,544365.8,NULL,NA,NA,NA,NA,NA,NA,NA,NA,NA,16,NA,NA,NA,NA,NA,NA,NA,NA,NA,NA,NA,NA,NA,NA,NA,NA,NA,NA,NA
f76cb,check continue,flow.Sequence,3_0_17,NA,NA,skipped,NA,544240.70000005,NA,NA,544047.60000014,544240.80000019,2024-05-14T11:39:16Z,544365.8,NULL,NA,NA,NA,NA,NA,NA,NA,NA,NA,17,NA,NA,NA,NA,NA,NA,NA,NA,NA,NA,NA,NA,NA,NA,NA,NA,NA,NA,NA
f76cb,check continue,flow.Sequence,3_0_18,NA,NA,skipped,NA,544250.60000014,NA,NA,544047.60000014,544250.70000005,2024-05-14T11:39:16Z,544365.8,NULL,NA,NA,NA,NA,NA,NA,NA,NA,NA,18,NA,NA,NA,NA,NA,NA,NA,NA,NA,NA,NA,NA,NA,NA,NA,NA,NA,NA,NA
f76cb,check continue,flow.Sequence,3_0_19,NA,NA,skipped,NA,544263.20000005,NA,NA,544047.60000014,544263.20000005,2024-05-14T11:39:16Z,544365.8,NULL,NA,NA,NA,NA,NA,NA,NA,NA,NA,19,NA,NA,NA,NA,NA,NA,NA,NA,NA,NA,NA,NA,NA,NA,NA,NA,NA,NA,NA
f76cb,check continue,flow.Sequence,3_0_20,NA,NA,skipped,NA,544274.20000005,NA,NA,544047.60000014,544274.30000019,2024-05-14T11:39:16Z,544365.8,NULL,NA,NA,NA,NA,NA,NA,NA,NA,NA,20,NA,NA,NA,NA,NA,NA,NA,NA,NA,NA,NA,NA,NA,NA,NA,NA,NA,NA,NA
f76cb,check continue,flow.Sequence,3_0_21,NA,NA,skipped,NA,544285.9000001,NA,NA,544047.60000014,544286,2024-05-14T11:39:16Z,544365.8,NULL,NA,NA,NA,NA,NA,NA,NA,NA,NA,21,NA,NA,NA,NA,NA,NA,NA,NA,NA,NA,NA,NA,NA,NA,NA,NA,NA,NA,NA
f76cb,check continue,flow.Sequence,3_0_22,NA,NA,skipped,NA,544295.5,NA,NA,544047.60000014,544295.60000014,2024-05-14T11:39:16Z,544365.8,NULL,NA,NA,NA,NA,NA,NA,NA,NA,NA,22,NA,NA,NA,NA,NA,NA,NA,NA,NA,NA,NA,NA,NA,NA,NA,NA,NA,NA,NA
f76cb,check continue,flow.Sequence,3_0_23,NA,NA,skipped,NA,544304.60000014,NA,NA,544047.60000014,544304.70000005,2024-05-14T11:39:16Z,544365.8,NULL,NA,NA,NA,NA,NA,NA,NA,NA,NA,23,NA,NA,NA,NA,NA,NA,NA,NA,NA,NA,NA,NA,NA,NA,NA,NA,NA,NA,NA
f76cb,check continue,flow.Sequence,3_0_24,NA,NA,skipped,NA,544315.4000001,NA,NA,544047.60000014,544315.5,2024-05-14T11:39:16Z,544365.8,NULL,NA,NA,NA,NA,NA,NA,NA,NA,NA,24,NA,NA,NA,NA,NA,NA,NA,NA,NA,NA,NA,NA,NA,NA,NA,NA,NA,NA,NA
f76cb,check continue,flow.Sequence,3_0_25,NA,NA,skipped,NA,544325.4000001,NA,NA,544047.60000014,544325.4000001,2024-05-14T11:39:16Z,544365.8,NULL,NA,NA,NA,NA,NA,NA,NA,NA,NA,25,NA,NA,NA,NA,NA,NA,NA,NA,NA,NA,NA,NA,NA,NA,NA,NA,NA,NA,NA
f76cb,check continue,flow.Sequence,3_0_26,NA,NA,skipped,NA,544336.30000019,NA,NA,544047.60000014,544336.4000001,2024-05-14T11:39:16Z,544365.8,NULL,NA,NA,NA,NA,NA,NA,NA,NA,NA,26,NA,NA,NA,NA,NA,NA,NA,NA,NA,NA,NA,NA,NA,NA,NA,NA,NA,NA,NA
f76cb,check continue,flow.Sequence,3_0_27,NA,NA,skipped,NA,544346.10000014,NA,NA,544047.60000014,544346.20000005,2024-05-14T11:39:16Z,544365.8,NULL,NA,NA,NA,NA,NA,NA,NA,NA,NA,27,NA,NA,NA,NA,NA,NA,NA,NA,NA,NA,NA,NA,NA,NA,NA,NA,NA,NA,NA
f76cb,check continue,flow.Sequence,3_0_28,NA,NA,skipped,NA,544357.70000005,NA,NA,544047.60000014,544357.80000019,2024-05-14T11:39:16Z,544365.8,NULL,NA,NA,NA,NA,NA,NA,NA,NA,NA,28,NA,NA,NA,NA,NA,NA,NA,NA,NA,NA,NA,NA,NA,NA,NA,NA,NA,NA,NA
f76cb,check continue,flow.Sequence,3_0_29,NA,NA,skipped,NA,544368.4000001,NA,NA,544047.60000014,544368.4000001,2024-05-14T11:39:16Z,544365.8,NULL,NA,NA,NA,NA,NA,NA,NA,NA,NA,29,NA,NA,NA,NA,NA,NA,NA,NA,NA,NA,NA,NA,NA,NA,NA,NA,NA,NA,NA
f76cb,until continue,flow.Loop,3_0,NA,NA,completion,408974.40000014,135058.20000005,135072.15,135073.2,544047.60000014,544368.5,2024-05-14T11:39:16Z,544365.8,NULL,NA,NA,NA,NA,NA,NA,NA,NA,NA,NA,NA,NA,NA,NA,NA,NA,NA,NA,NA,NA,NA,NA,NA,NA,NA,NA,NA,NA,NA
f76cb,block 1,flow.Sequence,3,NA,NA,completion,408974.40000014,135058.10000014,135072.15,135073.2,544047.60000014,544368.60000014,2024-05-14T11:39:16Z,544365.8,NULL,NA,NA,NA,NA,NA,NA,NA,NA,NA,NA,NA,NA,NA,NA,NA,NA,NA,NA,NA,NA,NA,NA,NA,NA,NA,NA,NA,NA,NA
f76cb,1.Part Over,canvas.Screen,4,NA,keypress(Space),response,2935.800000143,544368.60000014,544360.204,544365.8,547301.60000014,547302,2024-05-14T11:39:19Z,547337.5,NULL,NA,NA,NA,NA,NA,NA,NA,NA,NA,NA,NA,NA,NA,NA,NA,NA,NA,NA,NA,NA,NA,NA,NA,NA,NA,NA,NA,NA,NA
f76cb,Deep Question,html.Page,5_0_0_0_0_0_0,NA,NA,form submission,6212,547326.5,547327.5,547337.5,553549.5,553549.70000005,2024-05-14T11:39:26Z,553551.388,NULL,Flexibilität,kubadilika,d,NA,NA,NA,leire,NA,NA,0,NA,NA,NA,NA,NA,NA,NA,NA,NA,NA,NA,NA,NA,NA,NA,NA,NA,NA,NA
f76cb,"""Richtig""-Screen",canvas.Screen,5_0_0_0_0_0_1,NA,NA,skipped,NA,553552.10000014,NA,NA,553549.5,553552.10000014,2024-05-14T11:39:26Z,553551.388,NULL,Flexibilität,kubadilika,d,NA,NA,NA,NA,sdf,NA,0,NA,NA,NA,NA,NA,NA,NA,NA,NA,NA,NA,NA,NA,NA,NA,NA,NA,NA,NA
f76cb,"""Falsch""-Screen",canvas.Screen,5_0_0_0_0_0_2,NA,NA,timeout,5003.7119999999,553552.80000019,553551.388,553551.388,558538.4,558538.9000001,2024-05-14T11:39:31Z,558555.1,NULL,Flexibilität,kubadilika,d,NA,NA,NA,NA,sdf,0,0,NA,NA,NA,NA,NA,NA,NA,NA,NA,NA,NA,NA,NA,NA,NA,NA,NA,NA,NA
f76cb,deep,flow.Sequence,5_0_0_0_0_0,NA,NA,completion,11200.9,547326.5,547327.5,547337.5,558538.4,558539,2024-05-14T11:39:31Z,558555.1,NULL,Flexibilität,kubadilika,d,NA,NA,NA,NA,sdf,NA,0,NA,NA,NA,NA,NA,NA,NA,NA,NA,NA,NA,NA,NA,NA,NA,NA,NA,NA,NA
f76cb,shallow,flow.Sequence,5_0_0_0_0_1,NA,NA,skipped,NA,558539.20000005,NA,NA,558538.4,558539.20000005,2024-05-14T11:39:31Z,558555.1,NULL,Flexibilität,kubadilika,d,NA,NA,NA,NA,sdf,NA,0,NA,NA,NA,NA,NA,NA,NA,NA,NA,NA,NA,NA,NA,NA,NA,NA,NA,NA,NA
f76cb,task,flow.Sequence,5_0_0_0_0,NA,NA,completion,11200.9,547326.5,547327.5,547337.5,558538.4,558539.20000005,2024-05-14T11:39:31Z,558555.1,NULL,Flexibilität,kubadilika,d,NA,NA,NA,NA,sdf,NA,0,NA,NA,NA,NA,NA,NA,NA,NA,NA,NA,NA,NA,NA,NA,NA,NA,NA,NA,NA
f76cb,deep,flow.Sequence,5_0_0_0_1_0,NA,NA,skipped,NA,558539.30000019,NA,NA,558538.4,558539.30000019,2024-05-14T11:39:31Z,558555.1,NULL,Wechsel,ugeuzaji,s,utambulisho,kujenga,wasiwasi,NA,sdf,NA,0,NA,NA,NA,NA,NA,NA,NA,NA,NA,NA,NA,NA,NA,NA,NA,NA,NA,NA,NA
f76cb,Shallow Question,html.Page,5_0_0_0_1_1_0,NA,NA,form submission,8869.7000001908,558539.30000019,558538.4,558555.1,567424.80000019,567425.30000019,2024-05-14T11:39:40Z,567447.4,NULL,Wechsel,ugeuzaji,s,utambulisho,kujenga,wasiwasi,wasiwasi,NA,NA,0,NA,NA,NA,NA,NA,NA,NA,NA,NA,NA,NA,NA,NA,NA,NA,NA,NA,NA,NA
f76cb,"""Richtig""-Screen",canvas.Screen,5_0_0_0_1_1_1,NA,NA,skipped,NA,567427.10000014,NA,NA,567424.80000019,567427.30000019,2024-05-14T11:39:40Z,567447.4,NULL,Wechsel,ugeuzaji,s,utambulisho,kujenga,wasiwasi,NA,sdf,NA,0,NA,NA,NA,NA,NA,NA,NA,NA,NA,NA,NA,NA,NA,NA,NA,NA,NA,NA,NA
f76cb,"""Falsch""-Screen",canvas.Screen,5_0_0_0_1_1_2,NA,NA,timeout,5007.4,567427.80000019,567430.7,567447.4,572438,572438.5,2024-05-14T11:39:45Z,572454.8,NULL,Wechsel,ugeuzaji,s,utambulisho,kujenga,wasiwasi,NA,sdf,0,0,NA,NA,NA,NA,NA,NA,NA,NA,NA,NA,NA,NA,NA,NA,NA,NA,NA,NA,NA
f76cb,shallow,flow.Sequence,5_0_0_0_1_1,NA,NA,completion,13882.9,558539.30000019,558538.4,558555.1,572438,572438.60000014,2024-05-14T11:39:45Z,572454.8,NULL,Wechsel,ugeuzaji,s,utambulisho,kujenga,wasiwasi,NA,sdf,NA,0,NA,NA,NA,NA,NA,NA,NA,NA,NA,NA,NA,NA,NA,NA,NA,NA,NA,NA,NA
f76cb,task,flow.Sequence,5_0_0_0_1,NA,NA,completion,13882.9,558539.30000019,558538.4,558555.1,572438,572438.70000005,2024-05-14T11:39:45Z,572454.8,NULL,Wechsel,ugeuzaji,s,utambulisho,kujenga,wasiwasi,NA,sdf,NA,0,NA,NA,NA,NA,NA,NA,NA,NA,NA,NA,NA,NA,NA,NA,NA,NA,NA,NA,NA
f76cb,Deep Question,html.Page,5_0_0_0_2_0_0,NA,NA,form submission,5353.0000001907,572438.70000005,572438,572454.8,577807.80000019,577808,2024-05-14T11:39:50Z,577817.7,NULL,Atmosphäre,angahewa,d,NA,NA,NA,lufti,NA,NA,0,NA,NA,NA,NA,NA,NA,NA,NA,NA,NA,NA,NA,NA,NA,NA,NA,NA,NA,NA
f76cb,"""Richtig""-Screen",canvas.Screen,5_0_0_0_2_0_1,NA,NA,skipped,NA,577809.30000019,NA,NA,577807.80000019,577809.30000019,2024-05-14T11:39:50Z,577817.7,NULL,Atmosphäre,angahewa,d,NA,NA,NA,NA,sdf,NA,0,NA,NA,NA,NA,NA,NA,NA,NA,NA,NA,NA,NA,NA,NA,NA,NA,NA,NA,NA
f76cb,"""Falsch""-Screen",canvas.Screen,5_0_0_0_2_0_2,NA,NA,timeout,5006.3,577809.60000014,577801.3,577817.7,582807.4,582808.20000005,2024-05-14T11:39:55Z,582824,NULL,Atmosphäre,angahewa,d,NA,NA,NA,NA,sdf,0,0,NA,NA,NA,NA,NA,NA,NA,NA,NA,NA,NA,NA,NA,NA,NA,NA,NA,NA,NA
f76cb,deep,flow.Sequence,5_0_0_0_2_0,NA,NA,completion,10352.6,572438.70000005,572438,572454.8,582807.4,582808.30000019,2024-05-14T11:39:55Z,582824,NULL,Atmosphäre,angahewa,d,NA,NA,NA,NA,sdf,NA,0,NA,NA,NA,NA,NA,NA,NA,NA,NA,NA,NA,NA,NA,NA,NA,NA,NA,NA,NA
f76cb,shallow,flow.Sequence,5_0_0_0_2_1,NA,NA,skipped,NA,582808.30000019,NA,NA,582807.4,582808.30000019,2024-05-14T11:39:55Z,582824,NULL,Atmosphäre,angahewa,d,NA,NA,NA,NA,sdf,NA,0,NA,NA,NA,NA,NA,NA,NA,NA,NA,NA,NA,NA,NA,NA,NA,NA,NA,NA,NA
f76cb,task,flow.Sequence,5_0_0_0_2,NA,NA,completion,10352.6,572438.70000005,572438,572454.8,582807.4,582808.5,2024-05-14T11:39:55Z,582824,NULL,Atmosphäre,angahewa,d,NA,NA,NA,NA,sdf,NA,0,NA,NA,NA,NA,NA,NA,NA,NA,NA,NA,NA,NA,NA,NA,NA,NA,NA,NA,NA
f76cb,Deep Question,html.Page,5_0_0_0_3_0_0,NA,NA,form submission,4521.3000001907,582808.5,582807.4,582824,587345.30000019,587345.4000001,2024-05-14T11:39:59Z,587363.8,NULL,Theorie,nadharia,d,NA,NA,NA,erttzj,NA,NA,0,NA,NA,NA,NA,NA,NA,NA,NA,NA,NA,NA,NA,NA,NA,NA,NA,NA,NA,NA
f76cb,"""Richtig""-Screen",canvas.Screen,5_0_0_0_3_0_1,NA,NA,skipped,NA,587346.9000001,NA,NA,587345.30000019,587347,2024-05-14T11:39:59Z,587363.8,NULL,Theorie,nadharia,d,NA,NA,NA,NA,sdf,NA,0,NA,NA,NA,NA,NA,NA,NA,NA,NA,NA,NA,NA,NA,NA,NA,NA,NA,NA,NA
f76cb,"""Falsch""-Screen",canvas.Screen,5_0_0_0_3_0_2,NA,NA,timeout,4999.2,587347.4000001,587347.264,587363.8,592346.4,592347,2024-05-14T11:40:04Z,592363,NULL,Theorie,nadharia,d,NA,NA,NA,NA,sdf,0,0,NA,NA,NA,NA,NA,NA,NA,NA,NA,NA,NA,NA,NA,NA,NA,NA,NA,NA,NA
f76cb,deep,flow.Sequence,5_0_0_0_3_0,NA,NA,completion,9522.4,582808.5,582807.4,582824,592346.4,592347.20000005,2024-05-14T11:40:04Z,592363,NULL,Theorie,nadharia,d,NA,NA,NA,NA,sdf,NA,0,NA,NA,NA,NA,NA,NA,NA,NA,NA,NA,NA,NA,NA,NA,NA,NA,NA,NA,NA
f76cb,shallow,flow.Sequence,5_0_0_0_3_1,NA,NA,skipped,NA,592347.20000005,NA,NA,592346.4,592347.20000005,2024-05-14T11:40:04Z,592363,NULL,Theorie,nadharia,d,NA,NA,NA,NA,sdf,NA,0,NA,NA,NA,NA,NA,NA,NA,NA,NA,NA,NA,NA,NA,NA,NA,NA,NA,NA,NA
f76cb,task,flow.Sequence,5_0_0_0_3,NA,NA,completion,9522.4,582808.5,582807.4,582824,592346.4,592347.30000019,2024-05-14T11:40:04Z,592363,NULL,Theorie,nadharia,d,NA,NA,NA,NA,sdf,NA,0,NA,NA,NA,NA,NA,NA,NA,NA,NA,NA,NA,NA,NA,NA,NA,NA,NA,NA,NA
f76cb,deep,flow.Sequence,5_0_0_0_4_0,NA,NA,skipped,NA,592347.30000019,NA,NA,592346.4,592347.30000019,2024-05-14T11:40:04Z,592363,NULL,Verpackung,ufungaji,s,uhusiano,upimaji,uchunguzi,NA,sdf,NA,0,NA,NA,NA,NA,NA,NA,NA,NA,NA,NA,NA,NA,NA,NA,NA,NA,NA,NA,NA
f76cb,Shallow Question,html.Page,5_0_0_0_4_1_0,NA,NA,form submission,18915.5,592347.30000019,592346.4,592363,611278.5,611278.60000014,2024-05-14T11:40:23Z,611289.8,NULL,Verpackung,ufungaji,s,uhusiano,upimaji,uchunguzi,uchunguzi,NA,NA,0,NA,NA,NA,NA,NA,NA,NA,NA,NA,NA,NA,NA,NA,NA,NA,NA,NA,NA,NA
f76cb,"""Richtig""-Screen",canvas.Screen,5_0_0_0_4_1_1,NA,NA,skipped,NA,611279.70000005,NA,NA,611278.5,611279.80000019,2024-05-14T11:40:23Z,611289.8,NULL,Verpackung,ufungaji,s,uhusiano,upimaji,uchunguzi,NA,sdf,NA,0,NA,NA,NA,NA,NA,NA,NA,NA,NA,NA,NA,NA,NA,NA,NA,NA,NA,NA,NA
f76cb,"""Falsch""-Screen",canvas.Screen,5_0_0_0_4_1_2,NA,NA,timeout,4992.7,611280.10000014,611273.362,611289.8,616265.8,616266.70000005,2024-05-14T11:40:28Z,616282.5,NULL,Verpackung,ufungaji,s,uhusiano,upimaji,uchunguzi,NA,sdf,0,0,NA,NA,NA,NA,NA,NA,NA,NA,NA,NA,NA,NA,NA,NA,NA,NA,NA,NA,NA
f76cb,shallow,flow.Sequence,5_0_0_0_4_1,NA,NA,completion,23902.8,592347.30000019,592346.4,592363,616265.8,616266.70000005,2024-05-14T11:40:28Z,616282.5,NULL,Verpackung,ufungaji,s,uhusiano,upimaji,uchunguzi,NA,sdf,NA,0,NA,NA,NA,NA,NA,NA,NA,NA,NA,NA,NA,NA,NA,NA,NA,NA,NA,NA,NA
f76cb,task,flow.Sequence,5_0_0_0_4,NA,NA,completion,23902.8,592347.30000019,592346.4,592363,616265.8,616266.80000019,2024-05-14T11:40:28Z,616282.5,NULL,Verpackung,ufungaji,s,uhusiano,upimaji,uchunguzi,NA,sdf,NA,0,NA,NA,NA,NA,NA,NA,NA,NA,NA,NA,NA,NA,NA,NA,NA,NA,NA,NA,NA
f76cb,deep,flow.Sequence,5_0_0_0_5_0,NA,NA,skipped,NA,616266.80000019,NA,NA,616265.8,616266.80000019,2024-05-14T11:40:28Z,616282.5,NULL,Erneuerung,ukarabati,s,ushawishi,ukalifu,unyonyaji,NA,sdf,NA,0,NA,NA,NA,NA,NA,NA,NA,NA,NA,NA,NA,NA,NA,NA,NA,NA,NA,NA,NA
f76cb,Shallow Question,html.Page,5_0_0_0_5_1_0,NA,NA,form submission,5571.5,616266.9000001,616265.8,616282.5,621854,621854,2024-05-14T11:40:34Z,621866.1,NULL,Erneuerung,ukarabati,s,ushawishi,ukalifu,unyonyaji,ukalifu,NA,NA,0,NA,NA,NA,NA,NA,NA,NA,NA,NA,NA,NA,NA,NA,NA,NA,NA,NA,NA,NA
f76cb,"""Richtig""-Screen",canvas.Screen,5_0_0_0_5_1_1,NA,NA,skipped,NA,621855.10000014,NA,NA,621854,621855.20000005,2024-05-14T11:40:34Z,621866.1,NULL,Erneuerung,ukarabati,s,ushawishi,ukalifu,unyonyaji,NA,sdf,NA,0,NA,NA,NA,NA,NA,NA,NA,NA,NA,NA,NA,NA,NA,NA,NA,NA,NA,NA,NA
f76cb,"""Falsch""-Screen",canvas.Screen,5_0_0_0_5_1_2,NA,NA,timeout,4995,621855.5,621849.664,621866.1,626844.5,626845,2024-05-14T11:40:39Z,626861.1,NULL,Erneuerung,ukarabati,s,ushawishi,ukalifu,unyonyaji,NA,sdf,0,0,NA,NA,NA,NA,NA,NA,NA,NA,NA,NA,NA,NA,NA,NA,NA,NA,NA,NA,NA
f76cb,shallow,flow.Sequence,5_0_0_0_5_1,NA,NA,completion,10562,616266.9000001,616265.8,616282.5,626844.5,626845.10000014,2024-05-14T11:40:39Z,626861.1,NULL,Erneuerung,ukarabati,s,ushawishi,ukalifu,unyonyaji,NA,sdf,NA,0,NA,NA,NA,NA,NA,NA,NA,NA,NA,NA,NA,NA,NA,NA,NA,NA,NA,NA,NA
f76cb,task,flow.Sequence,5_0_0_0_5,NA,NA,completion,10562,616266.80000019,616265.8,616282.5,626844.5,626845.10000014,2024-05-14T11:40:39Z,626861.1,NULL,Erneuerung,ukarabati,s,ushawishi,ukalifu,unyonyaji,NA,sdf,NA,0,NA,NA,NA,NA,NA,NA,NA,NA,NA,NA,NA,NA,NA,NA,NA,NA,NA,NA,NA
f76cb,Deep Question,html.Page,5_0_0_0_6_0_0,NA,NA,form submission,4337.8000000954,626845.10000014,626844.5,626861.1,631198.9000001,631199,2024-05-14T11:40:43Z,631203.3,NULL,Schock,mshtuko,d,NA,NA,NA,erzjkl,NA,NA,0,NA,NA,NA,NA,NA,NA,NA,NA,NA,NA,NA,NA,NA,NA,NA,NA,NA,NA,NA
f76cb,"""Richtig""-Screen",canvas.Screen,5_0_0_0_6_0_1,NA,NA,skipped,NA,631200.30000019,NA,NA,631198.9000001,631200.30000019,2024-05-14T11:40:43Z,631203.3,NULL,Schock,mshtuko,d,NA,NA,NA,NA,sdf,NA,0,NA,NA,NA,NA,NA,NA,NA,NA,NA,NA,NA,NA,NA,NA,NA,NA,NA,NA,NA
f76cb,"""Falsch""-Screen",canvas.Screen,5_0_0_0_6_0_2,NA,NA,timeout,4998.5,631200.60000014,631186.896,631203.3,636185.1,636185.70000005,2024-05-14T11:40:48Z,636201.8,NULL,Schock,mshtuko,d,NA,NA,NA,NA,sdf,0,0,NA,NA,NA,NA,NA,NA,NA,NA,NA,NA,NA,NA,NA,NA,NA,NA,NA,NA,NA
f76cb,deep,flow.Sequence,5_0_0_0_6_0,NA,NA,completion,9324,626845.10000014,626844.5,626861.1,636185.1,636185.9000001,2024-05-14T11:40:48Z,636201.8,NULL,Schock,mshtuko,d,NA,NA,NA,NA,sdf,NA,0,NA,NA,NA,NA,NA,NA,NA,NA,NA,NA,NA,NA,NA,NA,NA,NA,NA,NA,NA
f76cb,shallow,flow.Sequence,5_0_0_0_6_1,NA,NA,skipped,NA,636185.9000001,NA,NA,636185.1,636185.9000001,2024-05-14T11:40:48Z,636201.8,NULL,Schock,mshtuko,d,NA,NA,NA,NA,sdf,NA,0,NA,NA,NA,NA,NA,NA,NA,NA,NA,NA,NA,NA,NA,NA,NA,NA,NA,NA,NA
f76cb,task,flow.Sequence,5_0_0_0_6,NA,NA,completion,9324,626845.10000014,626844.5,626861.1,636185.1,636186,2024-05-14T11:40:48Z,636201.8,NULL,Schock,mshtuko,d,NA,NA,NA,NA,sdf,NA,0,NA,NA,NA,NA,NA,NA,NA,NA,NA,NA,NA,NA,NA,NA,NA,NA,NA,NA,NA
f76cb,deep,flow.Sequence,5_0_0_0_7_0,NA,NA,skipped,NA,636186,NA,NA,636185.1,636186,2024-05-14T11:40:48Z,636201.8,NULL,Hoffnung,matarajio,s,kutaalamika,uratibu,mvumbuzi,NA,sdf,NA,0,NA,NA,NA,NA,NA,NA,NA,NA,NA,NA,NA,NA,NA,NA,NA,NA,NA,NA,NA
f76cb,Shallow Question,html.Page,5_0_0_0_7_1_0,NA,NA,form submission,6314.9000000476,636186,636185.1,636201.8,642516.70000005,642516.9000001,2024-05-14T11:40:55Z,642519.7,NULL,Hoffnung,matarajio,s,kutaalamika,uratibu,mvumbuzi,mvumbuzi,NA,NA,0,NA,NA,NA,NA,NA,NA,NA,NA,NA,NA,NA,NA,NA,NA,NA,NA,NA,NA,NA
f76cb,"""Richtig""-Screen",canvas.Screen,5_0_0_0_7_1_1,NA,NA,skipped,NA,642518,NA,NA,642516.70000005,642518,2024-05-14T11:40:55Z,642519.7,NULL,Hoffnung,matarajio,s,kutaalamika,uratibu,mvumbuzi,NA,sdf,NA,0,NA,NA,NA,NA,NA,NA,NA,NA,NA,NA,NA,NA,NA,NA,NA,NA,NA,NA,NA
f76cb,"""Falsch""-Screen",canvas.Screen,5_0_0_0_7_1_2,NA,NA,timeout,5003.9,642518.4000001,642503.382,642519.7,647506.9,647507.5,2024-05-14T11:41:00Z,647523.6,NULL,Hoffnung,matarajio,s,kutaalamika,uratibu,mvumbuzi,NA,sdf,0,0,NA,NA,NA,NA,NA,NA,NA,NA,NA,NA,NA,NA,NA,NA,NA,NA,NA,NA,NA
f76cb,shallow,flow.Sequence,5_0_0_0_7_1,NA,NA,completion,11305.1,636186,636185.1,636201.8,647506.9,647507.60000014,2024-05-14T11:41:00Z,647523.6,NULL,Hoffnung,matarajio,s,kutaalamika,uratibu,mvumbuzi,NA,sdf,NA,0,NA,NA,NA,NA,NA,NA,NA,NA,NA,NA,NA,NA,NA,NA,NA,NA,NA,NA,NA
f76cb,task,flow.Sequence,5_0_0_0_7,NA,NA,completion,11305.1,636186,636185.1,636201.8,647506.9,647507.70000005,2024-05-14T11:41:00Z,647523.6,NULL,Hoffnung,matarajio,s,kutaalamika,uratibu,mvumbuzi,NA,sdf,NA,0,NA,NA,NA,NA,NA,NA,NA,NA,NA,NA,NA,NA,NA,NA,NA,NA,NA,NA,NA
f76cb,block,flow.Loop,5_0_0_0,NA,NA,completion,100169.4,547326.5,547327.5,547337.5,647506.9,647507.80000019,2024-05-14T11:41:00Z,647523.6,NULL,NA,NA,NA,NA,NA,NA,NA,sdf,NA,0,NA,NA,NA,NA,NA,NA,NA,NA,NA,NA,NA,NA,NA,NA,NA,NA,NA,NA,NA
f76cb,weiter,canvas.Screen,5_0_0_1,sdf,keypress(Space),response,901.60000004771,647507.80000019,647506.9,647523.6,648425.20000005,648426.9000001,2024-05-14T11:41:01Z,648434.8,NULL,NA,NA,NA,NA,NA,NA,NA,sdf,NA,0,NA,NA,NA,NA,NA,NA,NA,NA,NA,NA,NA,NA,NA,NA,NA,NA,NA,NA,NA
f76cb,check continue,flow.Sequence,5_0_0,NA,NA,completion,101087.70000005,547326.5,547327.5,547337.5,648425.20000005,648427,2024-05-14T11:41:01Z,648434.8,NULL,NA,NA,NA,NA,NA,NA,NA,sdf,NA,0,NA,NA,NA,NA,NA,NA,NA,NA,NA,NA,NA,NA,NA,NA,NA,NA,NA,NA,NA
f76cb,deep,flow.Sequence,5_0_1_0_0_0,NA,NA,skipped,NA,648437.20000005,NA,NA,648425.20000005,648437.30000019,2024-05-14T11:41:01Z,648434.8,NULL,Erneuerung,ukarabati,s,ushawishi,ukalifu,unyonyaji,NA,sdfdsf,NA,1,NA,NA,NA,NA,NA,NA,NA,NA,NA,NA,NA,NA,NA,NA,NA,NA,NA,NA,NA
f76cb,Shallow Question,html.Page,5_0_1_0_0_1_0,NA,NA,form submission,8212.1000000953,648437.4000001,648431.018,648434.8,656646.9000001,656647,2024-05-14T11:41:09Z,656661.3,NULL,Erneuerung,ukarabati,s,ushawishi,ukalifu,unyonyaji,ukalifu,NA,NA,1,NA,NA,NA,NA,NA,NA,NA,NA,NA,NA,NA,NA,NA,NA,NA,NA,NA,NA,NA
f76cb,"""Richtig""-Screen",canvas.Screen,5_0_1_0_0_1_1,NA,NA,skipped,NA,656648.20000005,NA,NA,656646.9000001,656648.20000005,2024-05-14T11:41:09Z,656661.3,NULL,Erneuerung,ukarabati,s,ushawishi,ukalifu,unyonyaji,NA,sdfdsf,NA,1,NA,NA,NA,NA,NA,NA,NA,NA,NA,NA,NA,NA,NA,NA,NA,NA,NA,NA,NA
f76cb,"""Falsch""-Screen",canvas.Screen,5_0_1_0_0_1_2,NA,NA,timeout,5000.1,656648.5,656645.3,656661.3,661644.7,661646.30000019,2024-05-14T11:41:14Z,661661.4,NULL,Erneuerung,ukarabati,s,ushawishi,ukalifu,unyonyaji,NA,sdfdsf,0,1,NA,NA,NA,NA,NA,NA,NA,NA,NA,NA,NA,NA,NA,NA,NA,NA,NA,NA,NA
f76cb,shallow,flow.Sequence,5_0_1_0_0_1,NA,NA,completion,13209.9,648437.4000001,648431.018,648434.8,661644.7,661646.4000001,2024-05-14T11:41:14Z,661661.4,NULL,Erneuerung,ukarabati,s,ushawishi,ukalifu,unyonyaji,NA,sdfdsf,NA,1,NA,NA,NA,NA,NA,NA,NA,NA,NA,NA,NA,NA,NA,NA,NA,NA,NA,NA,NA
f76cb,task,flow.Sequence,5_0_1_0_0,NA,NA,completion,13209.9,648437.20000005,648431.018,648434.8,661644.7,661646.5,2024-05-14T11:41:14Z,661661.4,NULL,Erneuerung,ukarabati,s,ushawishi,ukalifu,unyonyaji,NA,sdfdsf,NA,1,NA,NA,NA,NA,NA,NA,NA,NA,NA,NA,NA,NA,NA,NA,NA,NA,NA,NA,NA
f76cb,Deep Question,html.Page,5_0_1_0_1_0_0,NA,NA,form submission,5860.700000143,661646.5,661644.7,661661.4,667522.10000014,667522.20000005,2024-05-14T11:41:20Z,667546.5,NULL,Schock,mshtuko,d,NA,NA,NA,iukio,NA,NA,1,NA,NA,NA,NA,NA,NA,NA,NA,NA,NA,NA,NA,NA,NA,NA,NA,NA,NA,NA
f76cb,"""Richtig""-Screen",canvas.Screen,5_0_1_0_1_0_1,NA,NA,skipped,NA,667523.5,NA,NA,667522.10000014,667523.60000014,2024-05-14T11:41:20Z,667546.5,NULL,Schock,mshtuko,d,NA,NA,NA,NA,sdfdsf,NA,1,NA,NA,NA,NA,NA,NA,NA,NA,NA,NA,NA,NA,NA,NA,NA,NA,NA,NA,NA
f76cb,"""Falsch""-Screen",canvas.Screen,5_0_1_0_1_0_2,NA,NA,timeout,4998.5,667523.9000001,667523.096,667546.5,672528.2,672529.30000019,2024-05-14T11:41:25Z,672545,NULL,Schock,mshtuko,d,NA,NA,NA,NA,sdfdsf,0,1,NA,NA,NA,NA,NA,NA,NA,NA,NA,NA,NA,NA,NA,NA,NA,NA,NA,NA,NA
f76cb,deep,flow.Sequence,5_0_1_0_1_0,NA,NA,completion,10866.8,661646.5,661644.7,661661.4,672528.2,672529.4000001,2024-05-14T11:41:25Z,672545,NULL,Schock,mshtuko,d,NA,NA,NA,NA,sdfdsf,NA,1,NA,NA,NA,NA,NA,NA,NA,NA,NA,NA,NA,NA,NA,NA,NA,NA,NA,NA,NA
f76cb,shallow,flow.Sequence,5_0_1_0_1_1,NA,NA,skipped,NA,672529.4000001,NA,NA,672528.2,672529.4000001,2024-05-14T11:41:25Z,672545,NULL,Schock,mshtuko,d,NA,NA,NA,NA,sdfdsf,NA,1,NA,NA,NA,NA,NA,NA,NA,NA,NA,NA,NA,NA,NA,NA,NA,NA,NA,NA,NA
f76cb,task,flow.Sequence,5_0_1_0_1,NA,NA,completion,10866.8,661646.5,661644.7,661661.4,672528.2,672529.5,2024-05-14T11:41:25Z,672545,NULL,Schock,mshtuko,d,NA,NA,NA,NA,sdfdsf,NA,1,NA,NA,NA,NA,NA,NA,NA,NA,NA,NA,NA,NA,NA,NA,NA,NA,NA,NA,NA
f76cb,Deep Question,html.Page,5_0_1_0_2_0_0,NA,NA,form submission,13704.800000191,672529.5,672528.2,672545,686249.80000019,686250,2024-05-14T11:41:38Z,686264.7,NULL,Flexibilität,kubadilika,d,NA,NA,NA,mshtuko,NA,NA,1,NA,NA,NA,NA,NA,NA,NA,NA,NA,NA,NA,NA,NA,NA,NA,NA,NA,NA,NA
f76cb,"""Richtig""-Screen",canvas.Screen,5_0_1_0_2_0_1,NA,NA,skipped,NA,686251.4000001,NA,NA,686249.80000019,686251.60000014,2024-05-14T11:41:38Z,686264.7,NULL,Flexibilität,kubadilika,d,NA,NA,NA,NA,sdfdsf,NA,1,NA,NA,NA,NA,NA,NA,NA,NA,NA,NA,NA,NA,NA,NA,NA,NA,NA,NA,NA
f76cb,"""Falsch""-Screen",canvas.Screen,5_0_1_0_2_0_2,NA,NA,timeout,5003.9,686252.10000014,686248.4,686264.7,691251.9,691252.80000019,2024-05-14T11:41:43Z,691268.6,NULL,Flexibilität,kubadilika,d,NA,NA,NA,NA,sdfdsf,0,1,NA,NA,NA,NA,NA,NA,NA,NA,NA,NA,NA,NA,NA,NA,NA,NA,NA,NA,NA
f76cb,deep,flow.Sequence,5_0_1_0_2_0,NA,NA,completion,18706.9,672529.5,672528.2,672545,691251.9,691252.9000001,2024-05-14T11:41:43Z,691268.6,NULL,Flexibilität,kubadilika,d,NA,NA,NA,NA,sdfdsf,NA,1,NA,NA,NA,NA,NA,NA,NA,NA,NA,NA,NA,NA,NA,NA,NA,NA,NA,NA,NA
f76cb,shallow,flow.Sequence,5_0_1_0_2_1,NA,NA,skipped,NA,691252.9000001,NA,NA,691251.9,691253,2024-05-14T11:41:43Z,691268.6,NULL,Flexibilität,kubadilika,d,NA,NA,NA,NA,sdfdsf,NA,1,NA,NA,NA,NA,NA,NA,NA,NA,NA,NA,NA,NA,NA,NA,NA,NA,NA,NA,NA
f76cb,task,flow.Sequence,5_0_1_0_2,NA,NA,completion,18706.9,672529.5,672528.2,672545,691251.9,691253.10000014,2024-05-14T11:41:43Z,691268.6,NULL,Flexibilität,kubadilika,d,NA,NA,NA,NA,sdfdsf,NA,1,NA,NA,NA,NA,NA,NA,NA,NA,NA,NA,NA,NA,NA,NA,NA,NA,NA,NA,NA
f76cb,Deep Question,html.Page,5_0_1_0_3_0_0,NA,NA,form submission,6779.1000000477,691253.10000014,691251.9,691268.6,698047.70000005,698047.80000019,2024-05-14T11:41:50Z,698053.2,NULL,Theorie,nadharia,d,NA,NA,NA,msthuko,NA,NA,1,NA,NA,NA,NA,NA,NA,NA,NA,NA,NA,NA,NA,NA,NA,NA,NA,NA,NA,NA
f76cb,"""Richtig""-Screen",canvas.Screen,5_0_1_0_3_0_1,NA,NA,skipped,NA,698049.70000005,NA,NA,698047.70000005,698049.9000001,2024-05-14T11:41:50Z,698053.2,NULL,Theorie,nadharia,d,NA,NA,NA,NA,sdfdsf,NA,1,NA,NA,NA,NA,NA,NA,NA,NA,NA,NA,NA,NA,NA,NA,NA,NA,NA,NA,NA
f76cb,"""Falsch""-Screen",canvas.Screen,5_0_1_0_3_0_2,NA,NA,timeout,5005.8,698050.4000001,698036.8,698053.2,703042.3,703043.30000019,2024-05-14T11:41:55Z,703059,NULL,Theorie,nadharia,d,NA,NA,NA,NA,sdfdsf,0,1,NA,NA,NA,NA,NA,NA,NA,NA,NA,NA,NA,NA,NA,NA,NA,NA,NA,NA,NA
f76cb,deep,flow.Sequence,5_0_1_0_3_0,NA,NA,completion,11773.7,691253.10000014,691251.9,691268.6,703042.3,703043.4000001,2024-05-14T11:41:55Z,703059,NULL,Theorie,nadharia,d,NA,NA,NA,NA,sdfdsf,NA,1,NA,NA,NA,NA,NA,NA,NA,NA,NA,NA,NA,NA,NA,NA,NA,NA,NA,NA,NA
f76cb,shallow,flow.Sequence,5_0_1_0_3_1,NA,NA,skipped,NA,703043.4000001,NA,NA,703042.3,703043.5,2024-05-14T11:41:55Z,703059,NULL,Theorie,nadharia,d,NA,NA,NA,NA,sdfdsf,NA,1,NA,NA,NA,NA,NA,NA,NA,NA,NA,NA,NA,NA,NA,NA,NA,NA,NA,NA,NA
f76cb,task,flow.Sequence,5_0_1_0_3,NA,NA,completion,11773.7,691253.10000014,691251.9,691268.6,703042.3,703043.5,2024-05-14T11:41:55Z,703059,NULL,Theorie,nadharia,d,NA,NA,NA,NA,sdfdsf,NA,1,NA,NA,NA,NA,NA,NA,NA,NA,NA,NA,NA,NA,NA,NA,NA,NA,NA,NA,NA
f76cb,Deep Question,html.Page,5_0_1_0_4_0_0,NA,NA,form submission,5459.1000001431,703043.5,703042.3,703059,708518.10000014,708518.20000005,2024-05-14T11:42:01Z,708524.7,NULL,Atmosphäre,angahewa,d,NA,NA,NA,msthuko,NA,NA,1,NA,NA,NA,NA,NA,NA,NA,NA,NA,NA,NA,NA,NA,NA,NA,NA,NA,NA,NA
f76cb,"""Richtig""-Screen",canvas.Screen,5_0_1_0_4_0_1,NA,NA,skipped,NA,708519.5,NA,NA,708518.10000014,708519.60000014,2024-05-14T11:42:01Z,708524.7,NULL,Atmosphäre,angahewa,d,NA,NA,NA,NA,sdfdsf,NA,1,NA,NA,NA,NA,NA,NA,NA,NA,NA,NA,NA,NA,NA,NA,NA,NA,NA,NA,NA
f76cb,"""Falsch""-Screen",canvas.Screen,5_0_1_0_4_0_2,NA,NA,timeout,5004.9,708519.80000019,708508.354,708524.7,713512.9,713513.5,2024-05-14T11:42:06Z,713529.6,NULL,Atmosphäre,angahewa,d,NA,NA,NA,NA,sdfdsf,0,1,NA,NA,NA,NA,NA,NA,NA,NA,NA,NA,NA,NA,NA,NA,NA,NA,NA,NA,NA
f76cb,deep,flow.Sequence,5_0_1_0_4_0,NA,NA,completion,10453.9,703043.5,703042.3,703059,713512.9,713513.60000014,2024-05-14T11:42:06Z,713529.6,NULL,Atmosphäre,angahewa,d,NA,NA,NA,NA,sdfdsf,NA,1,NA,NA,NA,NA,NA,NA,NA,NA,NA,NA,NA,NA,NA,NA,NA,NA,NA,NA,NA
f76cb,shallow,flow.Sequence,5_0_1_0_4_1,NA,NA,skipped,NA,713513.70000005,NA,NA,713512.9,713513.70000005,2024-05-14T11:42:06Z,713529.6,NULL,Atmosphäre,angahewa,d,NA,NA,NA,NA,sdfdsf,NA,1,NA,NA,NA,NA,NA,NA,NA,NA,NA,NA,NA,NA,NA,NA,NA,NA,NA,NA,NA
f76cb,task,flow.Sequence,5_0_1_0_4,NA,NA,completion,10453.9,703043.5,703042.3,703059,713512.9,713513.80000019,2024-05-14T11:42:06Z,713529.6,NULL,Atmosphäre,angahewa,d,NA,NA,NA,NA,sdfdsf,NA,1,NA,NA,NA,NA,NA,NA,NA,NA,NA,NA,NA,NA,NA,NA,NA,NA,NA,NA,NA
f76cb,deep,flow.Sequence,5_0_1_0_5_0,NA,NA,skipped,NA,713513.80000019,NA,NA,713512.9,713513.80000019,2024-05-14T11:42:06Z,713529.6,NULL,Hoffnung,matarajio,s,kutaalamika,uratibu,mvumbuzi,NA,sdfdsf,NA,1,NA,NA,NA,NA,NA,NA,NA,NA,NA,NA,NA,NA,NA,NA,NA,NA,NA,NA,NA
f76cb,Shallow Question,html.Page,5_0_1_0_5_1_0,NA,NA,form submission,10974.9,713513.9000001,713512.9,713529.6,724504.5,724504.60000014,2024-05-14T11:42:17Z,724524.1,NULL,Hoffnung,matarajio,s,kutaalamika,uratibu,mvumbuzi,matarajio,NA,NA,1,NA,NA,NA,NA,NA,NA,NA,NA,NA,NA,NA,NA,NA,NA,NA,NA,NA,NA,NA
f76cb,"""Richtig""-Screen",canvas.Screen,5_0_1_0_5_1_1,NA,NA,timeout,4993.1,724505.70000005,724507.4,724524.1,729500.7,729501.20000005,2024-05-14T11:42:22Z,729517.2,NULL,Hoffnung,matarajio,s,kutaalamika,uratibu,mvumbuzi,NA,sdfdsf,1,1,NA,NA,NA,NA,NA,NA,NA,NA,NA,NA,NA,NA,NA,NA,NA,NA,NA,NA,NA
f76cb,"""Falsch""-Screen",canvas.Screen,5_0_1_0_5_1_2,NA,NA,skipped,NA,729502.4000001,NA,NA,729500.7,729502.4000001,2024-05-14T11:42:22Z,729517.2,NULL,Hoffnung,matarajio,s,kutaalamika,uratibu,mvumbuzi,NA,sdfdsf,NA,1,NA,NA,NA,NA,NA,NA,NA,NA,NA,NA,NA,NA,NA,NA,NA,NA,NA,NA,NA
f76cb,shallow,flow.Sequence,5_0_1_0_5_1,NA,NA,completion,15971.1,713513.9000001,713512.9,713529.6,729500.7,729502.4000001,2024-05-14T11:42:22Z,729517.2,NULL,Hoffnung,matarajio,s,kutaalamika,uratibu,mvumbuzi,NA,sdfdsf,NA,1,NA,NA,NA,NA,NA,NA,NA,NA,NA,NA,NA,NA,NA,NA,NA,NA,NA,NA,NA
f76cb,task,flow.Sequence,5_0_1_0_5,NA,NA,completion,15971.1,713513.80000019,713512.9,713529.6,729500.7,729502.5,2024-05-14T11:42:22Z,729517.2,NULL,Hoffnung,matarajio,s,kutaalamika,uratibu,mvumbuzi,NA,sdfdsf,NA,1,NA,NA,NA,NA,NA,NA,NA,NA,NA,NA,NA,NA,NA,NA,NA,NA,NA,NA,NA
f76cb,deep,flow.Sequence,5_0_1_0_6_0,NA,NA,skipped,NA,729502.5,NA,NA,729500.7,729502.5,2024-05-14T11:42:22Z,729517.2,NULL,Wechsel,ugeuzaji,s,utambulisho,kujenga,wasiwasi,NA,sdfdsf,NA,1,NA,NA,NA,NA,NA,NA,NA,NA,NA,NA,NA,NA,NA,NA,NA,NA,NA,NA,NA
f76cb,Shallow Question,html.Page,5_0_1_0_6_1_0,NA,NA,form submission,16801.600000191,729502.60000014,729500.7,729517.2,746318.80000019,746318.9000001,2024-05-14T11:42:38Z,746322.4,NULL,Wechsel,ugeuzaji,s,utambulisho,kujenga,wasiwasi,kujenga,NA,NA,1,NA,NA,NA,NA,NA,NA,NA,NA,NA,NA,NA,NA,NA,NA,NA,NA,NA,NA,NA
f76cb,"""Richtig""-Screen",canvas.Screen,5_0_1_0_6_1_1,NA,NA,skipped,NA,746320.20000005,NA,NA,746318.80000019,746320.20000005,2024-05-14T11:42:38Z,746322.4,NULL,Wechsel,ugeuzaji,s,utambulisho,kujenga,wasiwasi,NA,sdfdsf,NA,1,NA,NA,NA,NA,NA,NA,NA,NA,NA,NA,NA,NA,NA,NA,NA,NA,NA,NA,NA
f76cb,"""Falsch""-Screen",canvas.Screen,5_0_1_0_6_1_2,NA,NA,timeout,5004.2999999999,746320.60000014,746306.124,746322.4,751309.9,751311.70000005,2024-05-14T11:42:43Z,751326.7,NULL,Wechsel,ugeuzaji,s,utambulisho,kujenga,wasiwasi,NA,sdfdsf,0,1,NA,NA,NA,NA,NA,NA,NA,NA,NA,NA,NA,NA,NA,NA,NA,NA,NA,NA,NA
f76cb,shallow,flow.Sequence,5_0_1_0_6_1,NA,NA,completion,21792.7,729502.60000014,729500.7,729517.2,751309.9,751311.70000005,2024-05-14T11:42:43Z,751326.7,NULL,Wechsel,ugeuzaji,s,utambulisho,kujenga,wasiwasi,NA,sdfdsf,NA,1,NA,NA,NA,NA,NA,NA,NA,NA,NA,NA,NA,NA,NA,NA,NA,NA,NA,NA,NA
f76cb,task,flow.Sequence,5_0_1_0_6,NA,NA,completion,21792.7,729502.5,729500.7,729517.2,751309.9,751311.80000019,2024-05-14T11:42:43Z,751326.7,NULL,Wechsel,ugeuzaji,s,utambulisho,kujenga,wasiwasi,NA,sdfdsf,NA,1,NA,NA,NA,NA,NA,NA,NA,NA,NA,NA,NA,NA,NA,NA,NA,NA,NA,NA,NA
f76cb,deep,flow.Sequence,5_0_1_0_7_0,NA,NA,skipped,NA,751311.9000001,NA,NA,751309.9,751311.9000001,2024-05-14T11:42:43Z,751326.7,NULL,Verpackung,ufungaji,s,uhusiano,upimaji,uchunguzi,NA,sdfdsf,NA,1,NA,NA,NA,NA,NA,NA,NA,NA,NA,NA,NA,NA,NA,NA,NA,NA,NA,NA,NA
f76cb,Shallow Question,html.Page,5_0_1_0_7_1_0,NA,NA,form submission,9475.1000001908,751311.9000001,751309.9,751326.7,760801.80000019,760801.9000001,2024-05-14T11:42:53Z,760814,NULL,Verpackung,ufungaji,s,uhusiano,upimaji,uchunguzi,ufungaji,NA,NA,1,NA,NA,NA,NA,NA,NA,NA,NA,NA,NA,NA,NA,NA,NA,NA,NA,NA,NA,NA
f76cb,"""Richtig""-Screen",canvas.Screen,5_0_1_0_7_1_1,NA,NA,timeout,5006.3,760803.10000014,760797.2,760814,765803.7,765804.10000014,2024-05-14T11:42:58Z,765820.3,NULL,Verpackung,ufungaji,s,uhusiano,upimaji,uchunguzi,NA,sdfdsf,1,1,NA,NA,NA,NA,NA,NA,NA,NA,NA,NA,NA,NA,NA,NA,NA,NA,NA,NA,NA
f76cb,"""Falsch""-Screen",canvas.Screen,5_0_1_0_7_1_2,NA,NA,skipped,NA,765805.20000005,NA,NA,765803.7,765805.30000019,2024-05-14T11:42:58Z,765820.3,NULL,Verpackung,ufungaji,s,uhusiano,upimaji,uchunguzi,NA,sdfdsf,NA,1,NA,NA,NA,NA,NA,NA,NA,NA,NA,NA,NA,NA,NA,NA,NA,NA,NA,NA,NA
