observation,sender,sender_type,sender_id,response,response_action,ended_on,duration,time_run,time_render,time_show,time_end,time_commit,timestamp,time_switch,german,swahili,enc,distractor1,distractor2,distractor3,response_2,x,correct,distractors,url_vp,url_sess,meta_labjs_version,meta_location,meta_user_agent,meta_platform,meta_language,meta_locale,meta_time_zone,meta_timezone_offset,meta_screen_width,meta_screen_height,meta_scroll_width,meta_scroll_height,meta_window_inner_width,meta_window_inner_height,meta_device_pixel_ratio,meta_labjs_build_flavor,meta_labjs_build_commit
2d4cd,Introduction delayed retrieval,canvas.Screen,0,weiter,keypress(Space),response,116916.00700001,745.70000000298,487.145,753.393,117669.40000001,117671.60000001,2023-10-21T18:54:34Z,117677.168,NA,NA,NA,NA,NA,NA,NA,NA,NA,NULL,189,2,20.2.4,https://neurocog.fernuni.ch/studies/vweber/sliechti/delayed%203/index.html?vp=189&sess=2,"Mozilla/5.0 (Windows NT 10.0; Win64; x64) AppleWebKit/537.36 (KHTML, like Gecko) Chrome/118.0.0.0 Safari/537.36 Edg/118.0.2088.61",Win32,en-GB,en-GB,Europe/Bratislava,-120,1536,864,1098,702,1098,750,1.25,production,f5b4a49f956347addd546a832a3327688c2c0fef
2d4cd,Deep Question,html.Page,1_0_0_0,NA,NA,form submission,7703.032000003,117671.80000001,117660.502,117677.168,125380.2,125380.5,2023-10-21T18:54:42Z,125400.584,Notfall,dharura,s,rairai,malalamiko,ahueni,a,NA,NA,NULL,NA,NA,NA,NA,NA,NA,NA,NA,NA,NA,NA,NA,NA,NA,NA,NA,NA,NA,NA
2d4cd,Save data screen,canvas.Screen,1_0_0_1,NA,NA,timeout,499.962,125381.40000001,125383.918,125400.584,125883.88,125885.60000001,2023-10-21T18:54:42Z,125900.546,Notfall,dharura,s,rairai,malalamiko,ahueni,NA,NA,0,NULL,NA,NA,NA,NA,NA,NA,NA,NA,NA,NA,NA,NA,NA,NA,NA,NA,NA,NA,NA
2d4cd,deep,flow.Sequence,1_0_0,NA,NA,completion,8206.712,117671.80000001,117660.502,117677.168,125883.88,125885.80000001,2023-10-21T18:54:42Z,125900.546,Notfall,dharura,s,rairai,malalamiko,ahueni,NA,NA,NA,NULL,NA,NA,NA,NA,NA,NA,NA,NA,NA,NA,NA,NA,NA,NA,NA,NA,NA,NA,NA
2d4cd,task,flow.Sequence,1_0,NA,NA,completion,8206.712,117671.80000001,117660.502,117677.168,125883.88,125885.90000001,2023-10-21T18:54:42Z,125900.546,Notfall,dharura,s,rairai,malalamiko,ahueni,NA,NA,NA,NULL,NA,NA,NA,NA,NA,NA,NA,NA,NA,NA,NA,NA,NA,NA,NA,NA,NA,NA,NA
2d4cd,Deep Question,html.Page,1_1_0_0,NA,NA,form submission,10197.654000003,125886,125883.88,125900.546,136098.2,136098.5,2023-10-21T18:54:53Z,136108.553,Theorie,nadharia,d,ushungi,mkutano,uwakilishi,a,NA,NA,NULL,NA,NA,NA,NA,NA,NA,NA,NA,NA,NA,NA,NA,NA,NA,NA,NA,NA,NA,NA
2d4cd,Save data screen,canvas.Screen,1_1_0_1,NA,NA,timeout,499.76799999998,136100.2,136091.887,136108.553,136591.655,136593.10000001,2023-10-21T18:54:53Z,136608.321,Theorie,nadharia,d,ushungi,mkutano,uwakilishi,NA,NA,0,NULL,NA,NA,NA,NA,NA,NA,NA,NA,NA,NA,NA,NA,NA,NA,NA,NA,NA,NA,NA
2d4cd,deep,flow.Sequence,1_1_0,NA,NA,completion,10691.109,125886,125883.88,125900.546,136591.655,136593.30000001,2023-10-21T18:54:53Z,136608.321,Theorie,nadharia,d,ushungi,mkutano,uwakilishi,NA,NA,NA,NULL,NA,NA,NA,NA,NA,NA,NA,NA,NA,NA,NA,NA,NA,NA,NA,NA,NA,NA,NA
2d4cd,task,flow.Sequence,1_1,NA,NA,completion,10691.109,125886,125883.88,125900.546,136591.655,136593.40000001,2023-10-21T18:54:53Z,136608.321,Theorie,nadharia,d,ushungi,mkutano,uwakilishi,NA,NA,NA,NULL,NA,NA,NA,NA,NA,NA,NA,NA,NA,NA,NA,NA,NA,NA,NA,NA,NA,NA,NA
2d4cd,Deep Question,html.Page,1_2_0_0,NA,NA,form submission,6943.2790000089,136593.60000001,136591.655,136608.321,143551.60000001,143551.80000001,2023-10-21T18:55:00Z,143552.341,Inhalt,yaliyomo,s,kishawishi,hifadhi,kutembea,magawi,NA,NA,NULL,NA,NA,NA,NA,NA,NA,NA,NA,NA,NA,NA,NA,NA,NA,NA,NA,NA,NA,NA
2d4cd,Save data screen,canvas.Screen,1_2_0_1,NA,NA,timeout,499.826,143552.90000001,143535.675,143552.341,144035.501,144036.5,2023-10-21T18:55:01Z,144052.167,Inhalt,yaliyomo,s,kishawishi,hifadhi,kutembea,NA,NA,0,NULL,NA,NA,NA,NA,NA,NA,NA,NA,NA,NA,NA,NA,NA,NA,NA,NA,NA,NA,NA
2d4cd,deep,flow.Sequence,1_2_0,NA,NA,completion,7427.18,136593.5,136591.655,136608.321,144035.501,144036.7,2023-10-21T18:55:01Z,144052.167,Inhalt,yaliyomo,s,kishawishi,hifadhi,kutembea,NA,NA,NA,NULL,NA,NA,NA,NA,NA,NA,NA,NA,NA,NA,NA,NA,NA,NA,NA,NA,NA,NA,NA
2d4cd,task,flow.Sequence,1_2,NA,NA,completion,7427.18,136593.5,136591.655,136608.321,144035.501,144036.80000001,2023-10-21T18:55:01Z,144052.167,Inhalt,yaliyomo,s,kishawishi,hifadhi,kutembea,NA,NA,NA,NULL,NA,NA,NA,NA,NA,NA,NA,NA,NA,NA,NA,NA,NA,NA,NA,NA,NA,NA,NA
2d4cd,Deep Question,html.Page,1_3_0_0,NA,NA,form submission,24951.733000006,144037,144035.501,144052.167,169003.90000001,169004.10000001,2023-10-21T18:55:25Z,169015.388,Toleranz,kuvumiliana,d,maombolezo,ujasusi,mchekeshaji,a,NA,NA,NULL,NA,NA,NA,NA,NA,NA,NA,NA,NA,NA,NA,NA,NA,NA,NA,NA,NA,NA,NA
2d4cd,Save data screen,canvas.Screen,1_3_0_1,NA,NA,timeout,499.67499999999,169005.2,168998.722,169015.388,169498.397,169499.7,2023-10-21T18:55:26Z,169515.063,Toleranz,kuvumiliana,d,maombolezo,ujasusi,mchekeshaji,NA,NA,0,NULL,NA,NA,NA,NA,NA,NA,NA,NA,NA,NA,NA,NA,NA,NA,NA,NA,NA,NA,NA
2d4cd,deep,flow.Sequence,1_3_0,NA,NA,completion,25446.23,144037,144035.501,144052.167,169498.397,169499.90000001,2023-10-21T18:55:26Z,169515.063,Toleranz,kuvumiliana,d,maombolezo,ujasusi,mchekeshaji,NA,NA,NA,NULL,NA,NA,NA,NA,NA,NA,NA,NA,NA,NA,NA,NA,NA,NA,NA,NA,NA,NA,NA
2d4cd,task,flow.Sequence,1_3,NA,NA,completion,25446.23,144036.90000001,144035.501,144052.167,169498.397,169500,2023-10-21T18:55:26Z,169515.063,Toleranz,kuvumiliana,d,maombolezo,ujasusi,mchekeshaji,NA,NA,NA,NULL,NA,NA,NA,NA,NA,NA,NA,NA,NA,NA,NA,NA,NA,NA,NA,NA,NA,NA,NA
2d4cd,Deep Question,html.Page,1_4_0_0,NA,NA,form submission,2979.0370000089,169500,169498.397,169515.063,172494.10000001,172494.30000001,2023-10-21T18:55:29Z,172512.441,Schlange,foleni,d,uvumilivu,uteuzi,muuzaji,foleni,NA,NA,NULL,NA,NA,NA,NA,NA,NA,NA,NA,NA,NA,NA,NA,NA,NA,NA,NA,NA,NA,NA
2d4cd,Save data screen,canvas.Screen,1_4_0_1,NA,NA,timeout,499.98000000001,172494.7,172495.784,172512.441,172995.755,172996.10000001,2023-10-21T18:55:29Z,173012.421,Schlange,foleni,d,uvumilivu,uteuzi,muuzaji,NA,NA,1,NULL,NA,NA,NA,NA,NA,NA,NA,NA,NA,NA,NA,NA,NA,NA,NA,NA,NA,NA,NA
2d4cd,deep,flow.Sequence,1_4_0,NA,NA,completion,3480.692,169500,169498.397,169515.063,172995.755,172996.7,2023-10-21T18:55:29Z,173012.421,Schlange,foleni,d,uvumilivu,uteuzi,muuzaji,NA,NA,NA,NULL,NA,NA,NA,NA,NA,NA,NA,NA,NA,NA,NA,NA,NA,NA,NA,NA,NA,NA,NA
2d4cd,task,flow.Sequence,1_4,NA,NA,completion,3480.692,169500,169498.397,169515.063,172995.755,172996.7,2023-10-21T18:55:29Z,173012.421,Schlange,foleni,d,uvumilivu,uteuzi,muuzaji,NA,NA,NA,NULL,NA,NA,NA,NA,NA,NA,NA,NA,NA,NA,NA,NA,NA,NA,NA,NA,NA,NA,NA
2d4cd,Deep Question,html.Page,1_5_0_0,NA,NA,form submission,5572.579,172996.90000001,172995.755,173012.421,178585,178585.2,2023-10-21T18:55:35Z,178590.542,Schock,mshtuko,d,biashara,kukataza,vichekesho,mgashi,NA,NA,NULL,NA,NA,NA,NA,NA,NA,NA,NA,NA,NA,NA,NA,NA,NA,NA,NA,NA,NA,NA
2d4cd,Save data screen,canvas.Screen,1_5_0_1,NA,NA,timeout,499.90600000002,178586.2,178573.876,178590.542,179073.782,179074.7,2023-10-21T18:55:36Z,179090.448,Schock,mshtuko,d,biashara,kukataza,vichekesho,NA,NA,0,NULL,NA,NA,NA,NA,NA,NA,NA,NA,NA,NA,NA,NA,NA,NA,NA,NA,NA,NA,NA
2d4cd,deep,flow.Sequence,1_5_0,NA,NA,completion,6061.361,172996.80000001,172995.755,173012.421,179073.782,179074.90000001,2023-10-21T18:55:36Z,179090.448,Schock,mshtuko,d,biashara,kukataza,vichekesho,NA,NA,NA,NULL,NA,NA,NA,NA,NA,NA,NA,NA,NA,NA,NA,NA,NA,NA,NA,NA,NA,NA,NA
2d4cd,task,flow.Sequence,1_5,NA,NA,completion,6061.361,172996.80000001,172995.755,173012.421,179073.782,179075.10000001,2023-10-21T18:55:36Z,179090.448,Schock,mshtuko,d,biashara,kukataza,vichekesho,NA,NA,NA,NULL,NA,NA,NA,NA,NA,NA,NA,NA,NA,NA,NA,NA,NA,NA,NA,NA,NA,NA,NA
2d4cd,Deep Question,html.Page,1_6_0_0,NA,NA,form submission,1571.052,179075.10000001,179073.782,179090.448,180661.5,180661.60000001,2023-10-21T18:55:37Z,180671.755,Vermutung,udhanifu,s,haramia,tikisho,itifaki,a,NA,NA,NULL,NA,NA,NA,NA,NA,NA,NA,NA,NA,NA,NA,NA,NA,NA,NA,NA,NA,NA,NA
2d4cd,Save data screen,canvas.Screen,1_6_0_1,NA,NA,timeout,499.97999999998,180662,180655.021,180671.755,181155.069,181156.40000001,2023-10-21T18:55:38Z,181171.735,Vermutung,udhanifu,s,haramia,tikisho,itifaki,NA,NA,0,NULL,NA,NA,NA,NA,NA,NA,NA,NA,NA,NA,NA,NA,NA,NA,NA,NA,NA,NA,NA
2d4cd,deep,flow.Sequence,1_6_0,NA,NA,completion,2064.621,179075.10000001,179073.782,179090.448,181155.069,181156.60000001,2023-10-21T18:55:38Z,181171.735,Vermutung,udhanifu,s,haramia,tikisho,itifaki,NA,NA,NA,NULL,NA,NA,NA,NA,NA,NA,NA,NA,NA,NA,NA,NA,NA,NA,NA,NA,NA,NA,NA
2d4cd,task,flow.Sequence,1_6,NA,NA,completion,2064.621,179075.10000001,179073.782,179090.448,181155.069,181156.60000001,2023-10-21T18:55:38Z,181171.735,Vermutung,udhanifu,s,haramia,tikisho,itifaki,NA,NA,NA,NULL,NA,NA,NA,NA,NA,NA,NA,NA,NA,NA,NA,NA,NA,NA,NA,NA,NA,NA,NA
2d4cd,Deep Question,html.Page,1_7_0_0,NA,NA,form submission,18494.465000003,181156.60000001,181155.069,181171.735,199666.2,199666.40000001,2023-10-21T18:55:56Z,199673.32,Spionage,upelelezi,d,maslahi,utokazo,magangao,tsuzuli,NA,NA,NULL,NA,NA,NA,NA,NA,NA,NA,NA,NA,NA,NA,NA,NA,NA,NA,NA,NA,NA,NA
2d4cd,Save data screen,canvas.Screen,1_7_0_1,NA,NA,timeout,499.96599999999,199667.60000001,199656.654,199673.32,200156.62,200158.10000001,2023-10-21T18:55:57Z,200173.286,Spionage,upelelezi,d,maslahi,utokazo,magangao,NA,NA,0,NULL,NA,NA,NA,NA,NA,NA,NA,NA,NA,NA,NA,NA,NA,NA,NA,NA,NA,NA,NA
2d4cd,deep,flow.Sequence,1_7_0,NA,NA,completion,18984.885,181156.60000001,181155.069,181171.735,200156.62,200158.30000001,2023-10-21T18:55:57Z,200173.286,Spionage,upelelezi,d,maslahi,utokazo,magangao,NA,NA,NA,NULL,NA,NA,NA,NA,NA,NA,NA,NA,NA,NA,NA,NA,NA,NA,NA,NA,NA,NA,NA
2d4cd,task,flow.Sequence,1_7,NA,NA,completion,18984.885,181156.60000001,181155.069,181171.735,200156.62,200158.40000001,2023-10-21T18:55:57Z,200173.286,Spionage,upelelezi,d,maslahi,utokazo,magangao,NA,NA,NA,NULL,NA,NA,NA,NA,NA,NA,NA,NA,NA,NA,NA,NA,NA,NA,NA,NA,NA,NA,NA
2d4cd,Deep Question,html.Page,1_8_0_0,NA,NA,form submission,2563.414000003,200158.5,200156.62,200173.286,202736.7,202736.90000001,2023-10-21T18:55:59Z,202737.151,Wohlstand,mafanikio,d,chimbuko,kumbuko,mapwaji,a,NA,NA,NULL,NA,NA,NA,NA,NA,NA,NA,NA,NA,NA,NA,NA,NA,NA,NA,NA,NA,NA,NA
2d4cd,Save data screen,canvas.Screen,1_8_0_1,NA,NA,timeout,499.80899999998,202737.40000001,202720.485,202737.151,203220.294,203221.30000001,2023-10-21T18:56:00Z,203236.96,Wohlstand,mafanikio,d,chimbuko,kumbuko,mapwaji,NA,NA,0,NULL,NA,NA,NA,NA,NA,NA,NA,NA,NA,NA,NA,NA,NA,NA,NA,NA,NA,NA,NA
2d4cd,deep,flow.Sequence,1_8_0,NA,NA,completion,3047.008,200158.5,200156.62,200173.286,203220.294,203221.5,2023-10-21T18:56:00Z,203236.96,Wohlstand,mafanikio,d,chimbuko,kumbuko,mapwaji,NA,NA,NA,NULL,NA,NA,NA,NA,NA,NA,NA,NA,NA,NA,NA,NA,NA,NA,NA,NA,NA,NA,NA
2d4cd,task,flow.Sequence,1_8,NA,NA,completion,3047.008,200158.5,200156.62,200173.286,203220.294,203221.7,2023-10-21T18:56:00Z,203236.96,Wohlstand,mafanikio,d,chimbuko,kumbuko,mapwaji,NA,NA,NA,NULL,NA,NA,NA,NA,NA,NA,NA,NA,NA,NA,NA,NA,NA,NA,NA,NA,NA,NA,NA
2d4cd,Deep Question,html.Page,1_9_0_0,NA,NA,form submission,2118.3400000119,203221.80000001,203220.294,203236.96,205355.30000001,205355.5,2023-10-21T18:56:02Z,205368.298,Vergnügen,kichekesho,s,dubwana,mpanuko,mtesaji,a,NA,NA,NULL,NA,NA,NA,NA,NA,NA,NA,NA,NA,NA,NA,NA,NA,NA,NA,NA,NA,NA,NA
2d4cd,Save data screen,canvas.Screen,1_9_0_1,NA,NA,timeout,499.81999999998,205355.80000001,205351.632,205368.298,205851.274,205852.40000001,2023-10-21T18:56:02Z,205868.118,Vergnügen,kichekesho,s,dubwana,mpanuko,mtesaji,NA,NA,0,NULL,NA,NA,NA,NA,NA,NA,NA,NA,NA,NA,NA,NA,NA,NA,NA,NA,NA,NA,NA
2d4cd,deep,flow.Sequence,1_9_0,NA,NA,completion,2614.314,203221.7,203220.294,203236.96,205851.274,205852.60000001,2023-10-21T18:56:02Z,205868.118,Vergnügen,kichekesho,s,dubwana,mpanuko,mtesaji,NA,NA,NA,NULL,NA,NA,NA,NA,NA,NA,NA,NA,NA,NA,NA,NA,NA,NA,NA,NA,NA,NA,NA
2d4cd,task,flow.Sequence,1_9,NA,NA,completion,2614.314,203221.7,203220.294,203236.96,205851.274,205852.7,2023-10-21T18:56:02Z,205868.118,Vergnügen,kichekesho,s,dubwana,mpanuko,mtesaji,NA,NA,NA,NULL,NA,NA,NA,NA,NA,NA,NA,NA,NA,NA,NA,NA,NA,NA,NA,NA,NA,NA,NA
2d4cd,Deep Question,html.Page,1_10_0_0,NA,NA,form submission,10197.382,205852.80000001,205851.274,205868.118,216065.5,216065.5,2023-10-21T18:56:13Z,216076.084,Fenster,dirisha,d,walakini,tasawari,maarifa,a,NA,NA,NULL,NA,NA,NA,NA,NA,NA,NA,NA,NA,NA,NA,NA,NA,NA,NA,NA,NA,NA,NA
2d4cd,Save data screen,canvas.Screen,1_10_0_1,NA,NA,timeout,499.96900000001,216066.7,216059.418,216076.084,216559.387,216560.30000001,2023-10-21T18:56:13Z,216576.053,Fenster,dirisha,d,walakini,tasawari,maarifa,NA,NA,0,NULL,NA,NA,NA,NA,NA,NA,NA,NA,NA,NA,NA,NA,NA,NA,NA,NA,NA,NA,NA
2d4cd,deep,flow.Sequence,1_10_0,NA,NA,completion,10691.269,205852.80000001,205851.274,205868.118,216559.387,216560.60000001,2023-10-21T18:56:13Z,216576.053,Fenster,dirisha,d,walakini,tasawari,maarifa,NA,NA,NA,NULL,NA,NA,NA,NA,NA,NA,NA,NA,NA,NA,NA,NA,NA,NA,NA,NA,NA,NA,NA
2d4cd,task,flow.Sequence,1_10,NA,NA,completion,10691.269,205852.7,205851.274,205868.118,216559.387,216560.7,2023-10-21T18:56:13Z,216576.053,Fenster,dirisha,d,walakini,tasawari,maarifa,NA,NA,NA,NULL,NA,NA,NA,NA,NA,NA,NA,NA,NA,NA,NA,NA,NA,NA,NA,NA,NA,NA,NA
2d4cd,Deep Question,html.Page,1_11_0_0,NA,NA,form submission,5114.447,216560.80000001,216559.387,216576.053,221690.5,221690.60000001,2023-10-21T18:56:18Z,221704.491,Hoffnung,matarajio,s,kutaalamika,uratibu,mvumbuzi,a,NA,NA,NULL,NA,NA,NA,NA,NA,NA,NA,NA,NA,NA,NA,NA,NA,NA,NA,NA,NA,NA,NA
2d4cd,Save data screen,canvas.Screen,1_11_0_1,NA,NA,timeout,499.891,221691.80000001,221687.825,221704.491,222187.716,222189,2023-10-21T18:56:19Z,222204.382,Hoffnung,matarajio,s,kutaalamika,uratibu,mvumbuzi,NA,NA,0,NULL,NA,NA,NA,NA,NA,NA,NA,NA,NA,NA,NA,NA,NA,NA,NA,NA,NA,NA,NA
2d4cd,deep,flow.Sequence,1_11_0,NA,NA,completion,5611.663,216560.80000001,216559.387,216576.053,222187.716,222189,2023-10-21T18:56:19Z,222204.382,Hoffnung,matarajio,s,kutaalamika,uratibu,mvumbuzi,NA,NA,NA,NULL,NA,NA,NA,NA,NA,NA,NA,NA,NA,NA,NA,NA,NA,NA,NA,NA,NA,NA,NA
2d4cd,task,flow.Sequence,1_11,NA,NA,completion,5611.663,216560.7,216559.387,216576.053,222187.716,222189.10000001,2023-10-21T18:56:19Z,222204.382,Hoffnung,matarajio,s,kutaalamika,uratibu,mvumbuzi,NA,NA,NA,NULL,NA,NA,NA,NA,NA,NA,NA,NA,NA,NA,NA,NA,NA,NA,NA,NA,NA,NA,NA
2d4cd,Deep Question,html.Page,1_12_0_0,NA,NA,form submission,6474.5180000059,222189.10000001,222187.716,222204.382,228678.90000001,228679.10000001,2023-10-21T18:56:25Z,228682.017,Verpackung,ufungaji,s,uhusiano,upimaji,uchunguzi,a,NA,NA,NULL,NA,NA,NA,NA,NA,NA,NA,NA,NA,NA,NA,NA,NA,NA,NA,NA,NA,NA,NA
2d4cd,Save data screen,canvas.Screen,1_12_0_1,NA,NA,timeout,500.47500000001,228680.2,228665.351,228682.017,229165.826,229167.5,2023-10-21T18:56:26Z,229182.492,Verpackung,ufungaji,s,uhusiano,upimaji,uchunguzi,NA,NA,0,NULL,NA,NA,NA,NA,NA,NA,NA,NA,NA,NA,NA,NA,NA,NA,NA,NA,NA,NA,NA
2d4cd,deep,flow.Sequence,1_12_0,NA,NA,completion,6961.444,222189.10000001,222187.716,222204.382,229165.826,229167.7,2023-10-21T18:56:26Z,229182.492,Verpackung,ufungaji,s,uhusiano,upimaji,uchunguzi,NA,NA,NA,NULL,NA,NA,NA,NA,NA,NA,NA,NA,NA,NA,NA,NA,NA,NA,NA,NA,NA,NA,NA
2d4cd,task,flow.Sequence,1_12,NA,NA,completion,6961.444,222189.10000001,222187.716,222204.382,229165.826,229167.90000001,2023-10-21T18:56:26Z,229182.492,Verpackung,ufungaji,s,uhusiano,upimaji,uchunguzi,NA,NA,NA,NULL,NA,NA,NA,NA,NA,NA,NA,NA,NA,NA,NA,NA,NA,NA,NA,NA,NA,NA,NA
2d4cd,Deep Question,html.Page,1_13_0_0,NA,NA,form submission,15367.808000012,229167.90000001,229165.826,229182.492,244550.30000001,244550.40000001,2023-10-21T18:56:41Z,244552.849,Ergänzung,kijalizo,d,ulaghai,mustarehe,matangazo,a,NA,NA,NULL,NA,NA,NA,NA,NA,NA,NA,NA,NA,NA,NA,NA,NA,NA,NA,NA,NA,NA,NA
2d4cd,Save data screen,canvas.Screen,1_13_0_1,NA,NA,timeout,499.80800000002,244551.5,244536.183,244552.849,245035.991,245036.7,2023-10-21T18:56:42Z,245052.657,Ergänzung,kijalizo,d,ulaghai,mustarehe,matangazo,NA,NA,0,NULL,NA,NA,NA,NA,NA,NA,NA,NA,NA,NA,NA,NA,NA,NA,NA,NA,NA,NA,NA
2d4cd,deep,flow.Sequence,1_13_0,NA,NA,completion,15853.499,229167.90000001,229165.826,229182.492,245035.991,245037.5,2023-10-21T18:56:42Z,245052.657,Ergänzung,kijalizo,d,ulaghai,mustarehe,matangazo,NA,NA,NA,NULL,NA,NA,NA,NA,NA,NA,NA,NA,NA,NA,NA,NA,NA,NA,NA,NA,NA,NA,NA
2d4cd,task,flow.Sequence,1_13,NA,NA,completion,15853.499,229167.90000001,229165.826,229182.492,245035.991,245037.60000001,2023-10-21T18:56:42Z,245052.657,Ergänzung,kijalizo,d,ulaghai,mustarehe,matangazo,NA,NA,NA,NULL,NA,NA,NA,NA,NA,NA,NA,NA,NA,NA,NA,NA,NA,NA,NA,NA,NA,NA,NA
2d4cd,Deep Question,html.Page,1_14_0_0,NA,NA,form submission,4938.1430000119,245037.7,245035.991,245052.657,249990.80000001,249990.80000001,2023-10-21T18:56:46Z,249997.969,Schüler,mwanafunzi,s,mwekezaji,matumizi,uaminifu,a,NA,NA,NULL,NA,NA,NA,NA,NA,NA,NA,NA,NA,NA,NA,NA,NA,NA,NA,NA,NA,NA,NA
2d4cd,Save data screen,canvas.Screen,1_14_0_1,NA,NA,timeout,500.28099999999,249991.80000001,249981.303,249997.969,250481.584,250482.40000001,2023-10-21T18:56:47Z,250498.25,Schüler,mwanafunzi,s,mwekezaji,matumizi,uaminifu,NA,NA,0,NULL,NA,NA,NA,NA,NA,NA,NA,NA,NA,NA,NA,NA,NA,NA,NA,NA,NA,NA,NA
2d4cd,deep,flow.Sequence,1_14_0,NA,NA,completion,5428.927,245037.60000001,245035.991,245052.657,250481.584,250482.60000001,2023-10-21T18:56:47Z,250498.25,Schüler,mwanafunzi,s,mwekezaji,matumizi,uaminifu,NA,NA,NA,NULL,NA,NA,NA,NA,NA,NA,NA,NA,NA,NA,NA,NA,NA,NA,NA,NA,NA,NA,NA
2d4cd,task,flow.Sequence,1_14,NA,NA,completion,5428.927,245037.60000001,245035.991,245052.657,250481.584,250482.7,2023-10-21T18:56:47Z,250498.25,Schüler,mwanafunzi,s,mwekezaji,matumizi,uaminifu,NA,NA,NA,NULL,NA,NA,NA,NA,NA,NA,NA,NA,NA,NA,NA,NA,NA,NA,NA,NA,NA,NA,NA
2d4cd,Deep Question,html.Page,1_15_0_0,NA,NA,form submission,4157.150000006,250482.80000001,250481.584,250498.25,254655.40000001,254655.60000001,2023-10-21T18:56:51Z,254660.952,Tester,wanaojaribu,s,sherti,sihiri,mlipuko,w,NA,NA,NULL,NA,NA,NA,NA,NA,NA,NA,NA,NA,NA,NA,NA,NA,NA,NA,NA,NA,NA,NA
2d4cd,Save data screen,canvas.Screen,1_15_0_1,NA,NA,timeout,500.209,254656.7,254644.286,254660.952,255144.495,255145.7,2023-10-21T18:56:52Z,255161.161,Tester,wanaojaribu,s,sherti,sihiri,mlipuko,NA,NA,0,NULL,NA,NA,NA,NA,NA,NA,NA,NA,NA,NA,NA,NA,NA,NA,NA,NA,NA,NA,NA
2d4cd,deep,flow.Sequence,1_15_0,NA,NA,completion,4646.245,250482.80000001,250481.584,250498.25,255144.495,255145.90000001,2023-10-21T18:56:52Z,255161.161,Tester,wanaojaribu,s,sherti,sihiri,mlipuko,NA,NA,NA,NULL,NA,NA,NA,NA,NA,NA,NA,NA,NA,NA,NA,NA,NA,NA,NA,NA,NA,NA,NA
2d4cd,task,flow.Sequence,1_15,NA,NA,completion,4646.245,250482.80000001,250481.584,250498.25,255144.495,255145.90000001,2023-10-21T18:56:52Z,255161.161,Tester,wanaojaribu,s,sherti,sihiri,mlipuko,NA,NA,NA,NULL,NA,NA,NA,NA,NA,NA,NA,NA,NA,NA,NA,NA,NA,NA,NA,NA,NA,NA,NA
2d4cd,retrieval block 1 (cued recall),flow.Loop,1,NA,NA,completion,137467.327,117671.80000001,117660.502,117677.168,255144.495,255146.10000001,2023-10-21T18:56:52Z,255161.161,NA,NA,NA,NA,NA,NA,NA,NA,NA,NULL,NA,NA,NA,NA,NA,NA,NA,NA,NA,NA,NA,NA,NA,NA,NA,NA,NA,NA,NA
2d4cd,Shallow Question,html.Page,2_0_0_0,NA,NA,form submission,7645.339,255146.30000001,255144.495,255161.161,262806.5,262806.80000001,2023-10-21T18:56:59Z,262820.569,Hoffnung,matarajio,s,kutaalamika,uratibu,mvumbuzi,matarajio,NA,NA,"c(""distractor1"", ""distractor2"", ""distractor3"")",NA,NA,NA,NA,NA,NA,NA,NA,NA,NA,NA,NA,NA,NA,NA,NA,NA,NA,NA
2d4cd,Save data screen,canvas.Screen,2_0_0_1,NA,NA,timeout,499.87299999996,262808,262803.903,262820.569,263303.776,263305.10000001,2023-10-21T18:57:00Z,263320.442,Hoffnung,matarajio,s,kutaalamika,uratibu,mvumbuzi,NA,NA,1,"c(""distractor1"", ""distractor2"", ""distractor3"")",NA,NA,NA,NA,NA,NA,NA,NA,NA,NA,NA,NA,NA,NA,NA,NA,NA,NA,NA
2d4cd,shallow,flow.Sequence,2_0_0,NA,NA,completion,8142.615,255146.2,255144.495,255161.161,263303.776,263305.30000001,2023-10-21T18:57:00Z,263320.442,Hoffnung,matarajio,s,kutaalamika,uratibu,mvumbuzi,NA,NA,NA,"c(""distractor1"", ""distractor2"", ""distractor3"")",NA,NA,NA,NA,NA,NA,NA,NA,NA,NA,NA,NA,NA,NA,NA,NA,NA,NA,NA
2d4cd,task,flow.Sequence,2_0,NA,NA,completion,8142.615,255146.2,255144.495,255161.161,263303.776,263305.30000001,2023-10-21T18:57:00Z,263320.442,Hoffnung,matarajio,s,kutaalamika,uratibu,mvumbuzi,NA,NA,NA,"c(""distractor1"", ""distractor2"", ""distractor3"")",NA,NA,NA,NA,NA,NA,NA,NA,NA,NA,NA,NA,NA,NA,NA,NA,NA,NA,NA
2d4cd,Shallow Question,html.Page,2_1_0_0,NA,NA,form submission,9986.058,263305.40000001,263303.776,263320.442,273306.5,273306.7,2023-10-21T18:57:10Z,273311.922,Inhalt,yaliyomo,s,kishawishi,hifadhi,kutembea,hifadhi,NA,NA,"c(""distractor1"", ""distractor2"", ""distractor3"")",NA,NA,NA,NA,NA,NA,NA,NA,NA,NA,NA,NA,NA,NA,NA,NA,NA,NA,NA
2d4cd,Save data screen,canvas.Screen,2_1_0_1,NA,NA,timeout,499.85399999999,273307.7,273295.256,273311.922,273795.069,273796,2023-10-21T18:57:10Z,273811.776,Inhalt,yaliyomo,s,kishawishi,hifadhi,kutembea,NA,NA,0,"c(""distractor1"", ""distractor2"", ""distractor3"")",NA,NA,NA,NA,NA,NA,NA,NA,NA,NA,NA,NA,NA,NA,NA,NA,NA,NA,NA
2d4cd,shallow,flow.Sequence,2_1_0,NA,NA,completion,10474.627,263305.40000001,263303.776,263320.442,273795.069,273796.30000001,2023-10-21T18:57:10Z,273811.776,Inhalt,yaliyomo,s,kishawishi,hifadhi,kutembea,NA,NA,NA,"c(""distractor1"", ""distractor2"", ""distractor3"")",NA,NA,NA,NA,NA,NA,NA,NA,NA,NA,NA,NA,NA,NA,NA,NA,NA,NA,NA
2d4cd,task,flow.Sequence,2_1,NA,NA,completion,10474.627,263305.40000001,263303.776,263320.442,273795.069,273796.40000001,2023-10-21T18:57:10Z,273811.776,Inhalt,yaliyomo,s,kishawishi,hifadhi,kutembea,NA,NA,NA,"c(""distractor1"", ""distractor2"", ""distractor3"")",NA,NA,NA,NA,NA,NA,NA,NA,NA,NA,NA,NA,NA,NA,NA,NA,NA,NA,NA
2d4cd,Shallow Question,html.Page,2_2_0_0,NA,NA,form submission,7692.6240000059,273796.40000001,273795.069,273811.776,281504.40000001,281504.60000001,2023-10-21T18:57:18Z,281505.244,Vermutung,udhanifu,s,haramia,tikisho,itifaki,udhanifu,NA,NA,"c(""distractor1"", ""distractor2"", ""distractor3"")",NA,NA,NA,NA,NA,NA,NA,NA,NA,NA,NA,NA,NA,NA,NA,NA,NA,NA,NA
2d4cd,Save data screen,canvas.Screen,2_2_0_1,NA,NA,timeout,499.79200000002,281505.90000001,281488.578,281505.244,281988.37,281989.5,2023-10-21T18:57:18Z,282005.036,Vermutung,udhanifu,s,haramia,tikisho,itifaki,NA,NA,1,"c(""distractor1"", ""distractor2"", ""distractor3"")",NA,NA,NA,NA,NA,NA,NA,NA,NA,NA,NA,NA,NA,NA,NA,NA,NA,NA,NA
2d4cd,shallow,flow.Sequence,2_2_0,NA,NA,completion,8176.594,273796.40000001,273795.069,273811.776,281988.37,281989.60000001,2023-10-21T18:57:18Z,282005.036,Vermutung,udhanifu,s,haramia,tikisho,itifaki,NA,NA,NA,"c(""distractor1"", ""distractor2"", ""distractor3"")",NA,NA,NA,NA,NA,NA,NA,NA,NA,NA,NA,NA,NA,NA,NA,NA,NA,NA,NA
2d4cd,task,flow.Sequence,2_2,NA,NA,completion,8176.594,273796.40000001,273795.069,273811.776,281988.37,281989.90000001,2023-10-21T18:57:18Z,282005.036,Vermutung,udhanifu,s,haramia,tikisho,itifaki,NA,NA,NA,"c(""distractor1"", ""distractor2"", ""distractor3"")",NA,NA,NA,NA,NA,NA,NA,NA,NA,NA,NA,NA,NA,NA,NA,NA,NA,NA,NA
2d4cd,Shallow Question,html.Page,2_3_0_0,NA,NA,form submission,19998.264000012,281990,281988.37,282005.036,302003.30000001,302003.40000001,2023-10-21T18:57:38Z,302021.818,Fenster,dirisha,d,walakini,tasawari,maarifa,tasawari,NA,NA,"c(""distractor1"", ""distractor2"", ""distractor3"")",NA,NA,NA,NA,NA,NA,NA,NA,NA,NA,NA,NA,NA,NA,NA,NA,NA,NA,NA
2d4cd,Save data screen,canvas.Screen,2_3_0_1,NA,NA,timeout,499.89799999999,302004.60000001,302005.152,302021.818,302504.898,302505.80000001,2023-10-21T18:57:39Z,302521.716,Fenster,dirisha,d,walakini,tasawari,maarifa,NA,NA,0,"c(""distractor1"", ""distractor2"", ""distractor3"")",NA,NA,NA,NA,NA,NA,NA,NA,NA,NA,NA,NA,NA,NA,NA,NA,NA,NA,NA
2d4cd,shallow,flow.Sequence,2_3_0,NA,NA,completion,20499.862,281990,281988.37,282005.036,302504.898,302506,2023-10-21T18:57:39Z,302521.716,Fenster,dirisha,d,walakini,tasawari,maarifa,NA,NA,NA,"c(""distractor1"", ""distractor2"", ""distractor3"")",NA,NA,NA,NA,NA,NA,NA,NA,NA,NA,NA,NA,NA,NA,NA,NA,NA,NA,NA
2d4cd,task,flow.Sequence,2_3,NA,NA,completion,20499.862,281990,281988.37,282005.036,302504.898,302506.2,2023-10-21T18:57:39Z,302521.716,Fenster,dirisha,d,walakini,tasawari,maarifa,NA,NA,NA,"c(""distractor1"", ""distractor2"", ""distractor3"")",NA,NA,NA,NA,NA,NA,NA,NA,NA,NA,NA,NA,NA,NA,NA,NA,NA,NA,NA
2d4cd,Shallow Question,html.Page,2_4_0_0,NA,NA,form submission,3485.6840000059,302506.30000001,302504.898,302521.716,306007.40000001,306007.5,2023-10-21T18:57:42Z,306018.43,Schock,mshtuko,d,biashara,kukataza,vichekesho,mshtuko,NA,NA,"c(""distractor1"", ""distractor2"", ""distractor3"")",NA,NA,NA,NA,NA,NA,NA,NA,NA,NA,NA,NA,NA,NA,NA,NA,NA,NA,NA
2d4cd,Save data screen,canvas.Screen,2_4_0_1,NA,NA,timeout,499.66899999999,306007.80000001,306001.764,306018.43,306501.433,306503,2023-10-21T18:57:43Z,306518.099,Schock,mshtuko,d,biashara,kukataza,vichekesho,NA,NA,1,"c(""distractor1"", ""distractor2"", ""distractor3"")",NA,NA,NA,NA,NA,NA,NA,NA,NA,NA,NA,NA,NA,NA,NA,NA,NA,NA,NA
2d4cd,shallow,flow.Sequence,2_4_0,NA,NA,completion,3979.717,302506.2,302504.898,302521.716,306501.433,306503.10000001,2023-10-21T18:57:43Z,306518.099,Schock,mshtuko,d,biashara,kukataza,vichekesho,NA,NA,NA,"c(""distractor1"", ""distractor2"", ""distractor3"")",NA,NA,NA,NA,NA,NA,NA,NA,NA,NA,NA,NA,NA,NA,NA,NA,NA,NA,NA
2d4cd,task,flow.Sequence,2_4,NA,NA,completion,3979.717,302506.2,302504.898,302521.716,306501.433,306503.2,2023-10-21T18:57:43Z,306518.099,Schock,mshtuko,d,biashara,kukataza,vichekesho,NA,NA,NA,"c(""distractor1"", ""distractor2"", ""distractor3"")",NA,NA,NA,NA,NA,NA,NA,NA,NA,NA,NA,NA,NA,NA,NA,NA,NA,NA,NA
2d4cd,Shallow Question,html.Page,2_5_0_0,NA,NA,form submission,8596.001000009,306503.30000001,306501.433,306518.099,315114.10000001,315114.30000001,2023-10-21T18:57:52Z,315127.418,Notfall,dharura,s,rairai,malalamiko,ahueni,ahueni,NA,NA,"c(""distractor1"", ""distractor2"", ""distractor3"")",NA,NA,NA,NA,NA,NA,NA,NA,NA,NA,NA,NA,NA,NA,NA,NA,NA,NA,NA
2d4cd,Save data screen,canvas.Screen,2_5_0_1,NA,NA,timeout,500.15700000001,315115.5,315110.752,315127.418,315610.593,315611.80000001,2023-10-21T18:57:52Z,315627.575,Notfall,dharura,s,rairai,malalamiko,ahueni,NA,NA,0,"c(""distractor1"", ""distractor2"", ""distractor3"")",NA,NA,NA,NA,NA,NA,NA,NA,NA,NA,NA,NA,NA,NA,NA,NA,NA,NA,NA
2d4cd,shallow,flow.Sequence,2_5_0,NA,NA,completion,9092.494,306503.30000001,306501.433,306518.099,315610.593,315611.90000001,2023-10-21T18:57:52Z,315627.575,Notfall,dharura,s,rairai,malalamiko,ahueni,NA,NA,NA,"c(""distractor1"", ""distractor2"", ""distractor3"")",NA,NA,NA,NA,NA,NA,NA,NA,NA,NA,NA,NA,NA,NA,NA,NA,NA,NA,NA
2d4cd,task,flow.Sequence,2_5,NA,NA,completion,9092.494,306503.30000001,306501.433,306518.099,315610.593,315612.10000001,2023-10-21T18:57:52Z,315627.575,Notfall,dharura,s,rairai,malalamiko,ahueni,NA,NA,NA,"c(""distractor1"", ""distractor2"", ""distractor3"")",NA,NA,NA,NA,NA,NA,NA,NA,NA,NA,NA,NA,NA,NA,NA,NA,NA,NA,NA
2d4cd,Shallow Question,html.Page,2_6_0_0,NA,NA,form submission,6497.925,315612.10000001,315610.593,315627.575,322125.5,322125.60000001,2023-10-21T18:57:59Z,322138.315,Toleranz,kuvumiliana,d,maombolezo,ujasusi,mchekeshaji,kuvumiliana,NA,NA,"c(""distractor1"", ""distractor2"", ""distractor3"")",NA,NA,NA,NA,NA,NA,NA,NA,NA,NA,NA,NA,NA,NA,NA,NA,NA,NA,NA
2d4cd,Save data screen,canvas.Screen,2_6_0_1,NA,NA,timeout,500.12400000001,322126.60000001,322121.649,322138.315,322621.457,322622.80000001,2023-10-21T18:57:59Z,322638.439,Toleranz,kuvumiliana,d,maombolezo,ujasusi,mchekeshaji,NA,NA,1,"c(""distractor1"", ""distractor2"", ""distractor3"")",NA,NA,NA,NA,NA,NA,NA,NA,NA,NA,NA,NA,NA,NA,NA,NA,NA,NA,NA
2d4cd,shallow,flow.Sequence,2_6_0,NA,NA,completion,6993.882,315612.10000001,315610.593,315627.575,322621.457,322623.10000001,2023-10-21T18:57:59Z,322638.439,Toleranz,kuvumiliana,d,maombolezo,ujasusi,mchekeshaji,NA,NA,NA,"c(""distractor1"", ""distractor2"", ""distractor3"")",NA,NA,NA,NA,NA,NA,NA,NA,NA,NA,NA,NA,NA,NA,NA,NA,NA,NA,NA
2d4cd,task,flow.Sequence,2_6,NA,NA,completion,6993.882,315612.10000001,315610.593,315627.575,322621.457,322623.2,2023-10-21T18:57:59Z,322638.439,Toleranz,kuvumiliana,d,maombolezo,ujasusi,mchekeshaji,NA,NA,NA,"c(""distractor1"", ""distractor2"", ""distractor3"")",NA,NA,NA,NA,NA,NA,NA,NA,NA,NA,NA,NA,NA,NA,NA,NA,NA,NA,NA
2d4cd,Shallow Question,html.Page,2_7_0_0,NA,NA,form submission,2952.761000003,322623.30000001,322621.457,322638.439,325591.2,325591.40000001,2023-10-21T18:58:02Z,325602.103,Tester,wanaojaribu,s,sherti,sihiri,mlipuko,wanaojaribu,NA,NA,"c(""distractor1"", ""distractor2"", ""distractor3"")",NA,NA,NA,NA,NA,NA,NA,NA,NA,NA,NA,NA,NA,NA,NA,NA,NA,NA,NA
2d4cd,Save data screen,canvas.Screen,2_7_0_1,NA,NA,timeout,499.84899999999,325592.40000001,325585.437,325602.103,326085.286,326086.60000001,2023-10-21T18:58:03Z,326101.952,Tester,wanaojaribu,s,sherti,sihiri,mlipuko,NA,NA,1,"c(""distractor1"", ""distractor2"", ""distractor3"")",NA,NA,NA,NA,NA,NA,NA,NA,NA,NA,NA,NA,NA,NA,NA,NA,NA,NA,NA
2d4cd,shallow,flow.Sequence,2_7_0,NA,NA,completion,3446.847,322623.30000001,322621.457,322638.439,326085.286,326086.80000001,2023-10-21T18:58:03Z,326101.952,Tester,wanaojaribu,s,sherti,sihiri,mlipuko,NA,NA,NA,"c(""distractor1"", ""distractor2"", ""distractor3"")",NA,NA,NA,NA,NA,NA,NA,NA,NA,NA,NA,NA,NA,NA,NA,NA,NA,NA,NA
2d4cd,task,flow.Sequence,2_7,NA,NA,completion,3446.847,322623.2,322621.457,322638.439,326085.286,326086.90000001,2023-10-21T18:58:03Z,326101.952,Tester,wanaojaribu,s,sherti,sihiri,mlipuko,NA,NA,NA,"c(""distractor1"", ""distractor2"", ""distractor3"")",NA,NA,NA,NA,NA,NA,NA,NA,NA,NA,NA,NA,NA,NA,NA,NA,NA,NA,NA
2d4cd,Shallow Question,html.Page,2_8_0_0,NA,NA,form submission,16686.848000012,326087,326085.286,326101.952,342788.80000001,342789.10000001,2023-10-21T18:58:19Z,342804.643,Vergnügen,kichekesho,s,dubwana,mpanuko,mtesaji,kichekesho,NA,NA,"c(""distractor1"", ""distractor2"", ""distractor3"")",NA,NA,NA,NA,NA,NA,NA,NA,NA,NA,NA,NA,NA,NA,NA,NA,NA,NA,NA
2d4cd,Save data screen,canvas.Screen,2_8_0_1,NA,NA,timeout,499.78700000001,342790.30000001,342787.977,342804.643,343287.764,343289.10000001,2023-10-21T18:58:20Z,343304.43,Vergnügen,kichekesho,s,dubwana,mpanuko,mtesaji,NA,NA,1,"c(""distractor1"", ""distractor2"", ""distractor3"")",NA,NA,NA,NA,NA,NA,NA,NA,NA,NA,NA,NA,NA,NA,NA,NA,NA,NA,NA
2d4cd,shallow,flow.Sequence,2_8_0,NA,NA,completion,17185.812,326087,326085.286,326101.952,343287.764,343289.40000001,2023-10-21T18:58:20Z,343304.43,Vergnügen,kichekesho,s,dubwana,mpanuko,mtesaji,NA,NA,NA,"c(""distractor1"", ""distractor2"", ""distractor3"")",NA,NA,NA,NA,NA,NA,NA,NA,NA,NA,NA,NA,NA,NA,NA,NA,NA,NA,NA
2d4cd,task,flow.Sequence,2_8,NA,NA,completion,17185.812,326086.90000001,326085.286,326101.952,343287.764,343289.5,2023-10-21T18:58:20Z,343304.43,Vergnügen,kichekesho,s,dubwana,mpanuko,mtesaji,NA,NA,NA,"c(""distractor1"", ""distractor2"", ""distractor3"")",NA,NA,NA,NA,NA,NA,NA,NA,NA,NA,NA,NA,NA,NA,NA,NA,NA,NA,NA
2d4cd,Shallow Question,html.Page,2_9_0_0,NA,NA,form submission,23333.57,343289.5,343287.764,343304.43,366638,366638.10000001,2023-10-21T18:58:43Z,366651.513,Verpackung,ufungaji,s,uhusiano,upimaji,uchunguzi,ufungaji,NA,NA,"c(""distractor1"", ""distractor2"", ""distractor3"")",NA,NA,NA,NA,NA,NA,NA,NA,NA,NA,NA,NA,NA,NA,NA,NA,NA,NA,NA
2d4cd,Save data screen,canvas.Screen,2_9_0_1,NA,NA,timeout,500.14300000004,366639.10000001,366634.835,366651.513,367134.827,367135.60000001,2023-10-21T18:58:44Z,367151.656,Verpackung,ufungaji,s,uhusiano,upimaji,uchunguzi,NA,NA,1,"c(""distractor1"", ""distractor2"", ""distractor3"")",NA,NA,NA,NA,NA,NA,NA,NA,NA,NA,NA,NA,NA,NA,NA,NA,NA,NA,NA
2d4cd,shallow,flow.Sequence,2_9_0,NA,NA,completion,23830.397,343289.5,343287.764,343304.43,367134.827,367135.90000001,2023-10-21T18:58:44Z,367151.656,Verpackung,ufungaji,s,uhusiano,upimaji,uchunguzi,NA,NA,NA,"c(""distractor1"", ""distractor2"", ""distractor3"")",NA,NA,NA,NA,NA,NA,NA,NA,NA,NA,NA,NA,NA,NA,NA,NA,NA,NA,NA
2d4cd,task,flow.Sequence,2_9,NA,NA,completion,23830.397,343289.5,343287.764,343304.43,367134.827,367136.10000001,2023-10-21T18:58:44Z,367151.656,Verpackung,ufungaji,s,uhusiano,upimaji,uchunguzi,NA,NA,NA,"c(""distractor1"", ""distractor2"", ""distractor3"")",NA,NA,NA,NA,NA,NA,NA,NA,NA,NA,NA,NA,NA,NA,NA,NA,NA,NA,NA
2d4cd,Shallow Question,html.Page,2_10_0_0,NA,NA,form submission,9988.344,367136.10000001,367134.827,367151.656,377140,377140.10000001,2023-10-21T18:58:54Z,377143.373,Schüler,mwanafunzi,s,mwekezaji,matumizi,uaminifu,mwanafunzi,NA,NA,"c(""distractor1"", ""distractor2"", ""distractor3"")",NA,NA,NA,NA,NA,NA,NA,NA,NA,NA,NA,NA,NA,NA,NA,NA,NA,NA,NA
2d4cd,Save data screen,canvas.Screen,2_10_0_1,NA,NA,timeout,499.41800000001,377141.5,377126.707,377143.373,377626.125,377626.90000001,2023-10-21T18:58:54Z,377642.791,Schüler,mwanafunzi,s,mwekezaji,matumizi,uaminifu,NA,NA,1,"c(""distractor1"", ""distractor2"", ""distractor3"")",NA,NA,NA,NA,NA,NA,NA,NA,NA,NA,NA,NA,NA,NA,NA,NA,NA,NA,NA
2d4cd,shallow,flow.Sequence,2_10_0,NA,NA,completion,10474.469,367136.10000001,367134.827,367151.656,377626.125,377627.10000001,2023-10-21T18:58:54Z,377642.791,Schüler,mwanafunzi,s,mwekezaji,matumizi,uaminifu,NA,NA,NA,"c(""distractor1"", ""distractor2"", ""distractor3"")",NA,NA,NA,NA,NA,NA,NA,NA,NA,NA,NA,NA,NA,NA,NA,NA,NA,NA,NA
2d4cd,task,flow.Sequence,2_10,NA,NA,completion,10474.469,367136.10000001,367134.827,367151.656,377626.125,377627.10000001,2023-10-21T18:58:54Z,377642.791,Schüler,mwanafunzi,s,mwekezaji,matumizi,uaminifu,NA,NA,NA,"c(""distractor1"", ""distractor2"", ""distractor3"")",NA,NA,NA,NA,NA,NA,NA,NA,NA,NA,NA,NA,NA,NA,NA,NA,NA,NA,NA
2d4cd,Shallow Question,html.Page,2_11_0_0,NA,NA,form submission,4844.209,377627.2,377626.125,377642.791,382487,382487.2,2023-10-21T18:58:59Z,382488.549,Spionage,upelelezi,d,maslahi,utokazo,magangao,upelelezi,NA,NA,"c(""distractor1"", ""distractor2"", ""distractor3"")",NA,NA,NA,NA,NA,NA,NA,NA,NA,NA,NA,NA,NA,NA,NA,NA,NA,NA,NA
2d4cd,Save data screen,canvas.Screen,2_11_0_1,NA,NA,timeout,499.92099999997,382488.10000001,382471.883,382488.549,382971.652,382972.2,2023-10-21T18:58:59Z,382988.47,Spionage,upelelezi,d,maslahi,utokazo,magangao,NA,NA,1,"c(""distractor1"", ""distractor2"", ""distractor3"")",NA,NA,NA,NA,NA,NA,NA,NA,NA,NA,NA,NA,NA,NA,NA,NA,NA,NA,NA
2d4cd,shallow,flow.Sequence,2_11_0,NA,NA,completion,5328.861,377627.2,377626.125,377642.791,382971.652,382972.30000001,2023-10-21T18:58:59Z,382988.47,Spionage,upelelezi,d,maslahi,utokazo,magangao,NA,NA,NA,"c(""distractor1"", ""distractor2"", ""distractor3"")",NA,NA,NA,NA,NA,NA,NA,NA,NA,NA,NA,NA,NA,NA,NA,NA,NA,NA,NA
2d4cd,task,flow.Sequence,2_11,NA,NA,completion,5328.861,377627.2,377626.125,377642.791,382971.652,382972.40000001,2023-10-21T18:58:59Z,382988.47,Spionage,upelelezi,d,maslahi,utokazo,magangao,NA,NA,NA,"c(""distractor1"", ""distractor2"", ""distractor3"")",NA,NA,NA,NA,NA,NA,NA,NA,NA,NA,NA,NA,NA,NA,NA,NA,NA,NA,NA
2d4cd,Shallow Question,html.Page,2_12_0_0,NA,NA,form submission,14785.430000006,382972.5,382971.652,382988.47,397773.90000001,397774.10000001,2023-10-21T18:59:14Z,397776.168,Theorie,nadharia,d,ushungi,mkutano,uwakilishi,nadharia,NA,NA,"c(""distractor1"", ""distractor2"", ""distractor3"")",NA,NA,NA,NA,NA,NA,NA,NA,NA,NA,NA,NA,NA,NA,NA,NA,NA,NA,NA
2d4cd,Save data screen,canvas.Screen,2_12_0_1,NA,NA,timeout,499.59700000001,397775.2,397759.502,397776.168,398259.099,398260,2023-10-21T18:59:15Z,398275.765,Theorie,nadharia,d,ushungi,mkutano,uwakilishi,NA,NA,1,"c(""distractor1"", ""distractor2"", ""distractor3"")",NA,NA,NA,NA,NA,NA,NA,NA,NA,NA,NA,NA,NA,NA,NA,NA,NA,NA,NA
2d4cd,shallow,flow.Sequence,2_12_0,NA,NA,completion,15270.629,382972.5,382971.652,382988.47,398259.099,398260.2,2023-10-21T18:59:15Z,398275.765,Theorie,nadharia,d,ushungi,mkutano,uwakilishi,NA,NA,NA,"c(""distractor1"", ""distractor2"", ""distractor3"")",NA,NA,NA,NA,NA,NA,NA,NA,NA,NA,NA,NA,NA,NA,NA,NA,NA,NA,NA
2d4cd,task,flow.Sequence,2_12,NA,NA,completion,15270.629,382972.40000001,382971.652,382988.47,398259.099,398260.40000001,2023-10-21T18:59:15Z,398275.765,Theorie,nadharia,d,ushungi,mkutano,uwakilishi,NA,NA,NA,"c(""distractor1"", ""distractor2"", ""distractor3"")",NA,NA,NA,NA,NA,NA,NA,NA,NA,NA,NA,NA,NA,NA,NA,NA,NA,NA,NA
2d4cd,Shallow Question,html.Page,2_13_0_0,NA,NA,form submission,7131.935000003,398260.60000001,398259.099,398275.765,405407.7,405408,2023-10-21T18:59:22Z,405419.769,Schlange,foleni,d,uvumilivu,uteuzi,muuzaji,foleni,NA,NA,"c(""distractor1"", ""distractor2"", ""distractor3"")",NA,NA,NA,NA,NA,NA,NA,NA,NA,NA,NA,NA,NA,NA,NA,NA,NA,NA,NA
2d4cd,Save data screen,canvas.Screen,2_13_0_1,NA,NA,timeout,499.65700000001,405408.90000001,405403.103,405419.769,405902.76,405904.90000001,2023-10-21T18:59:22Z,405919.426,Schlange,foleni,d,uvumilivu,uteuzi,muuzaji,NA,NA,1,"c(""distractor1"", ""distractor2"", ""distractor3"")",NA,NA,NA,NA,NA,NA,NA,NA,NA,NA,NA,NA,NA,NA,NA,NA,NA,NA,NA
2d4cd,shallow,flow.Sequence,2_13_0,NA,NA,completion,7626.995,398260.60000001,398259.099,398275.765,405902.76,405905,2023-10-21T18:59:22Z,405919.426,Schlange,foleni,d,uvumilivu,uteuzi,muuzaji,NA,NA,NA,"c(""distractor1"", ""distractor2"", ""distractor3"")",NA,NA,NA,NA,NA,NA,NA,NA,NA,NA,NA,NA,NA,NA,NA,NA,NA,NA,NA
2d4cd,task,flow.Sequence,2_13,NA,NA,completion,7626.995,398260.5,398259.099,398275.765,405902.76,405905,2023-10-21T18:59:22Z,405919.426,Schlange,foleni,d,uvumilivu,uteuzi,muuzaji,NA,NA,NA,"c(""distractor1"", ""distractor2"", ""distractor3"")",NA,NA,NA,NA,NA,NA,NA,NA,NA,NA,NA,NA,NA,NA,NA,NA,NA,NA,NA
2d4cd,Shallow Question,html.Page,2_14_0_0,NA,NA,form submission,7882.274000003,405905.10000001,405902.76,405919.426,413801.7,413801.80000001,2023-10-21T18:59:30Z,413812.686,Ergänzung,kijalizo,d,ulaghai,mustarehe,matangazo,ulaghai,NA,NA,"c(""distractor1"", ""distractor2"", ""distractor3"")",NA,NA,NA,NA,NA,NA,NA,NA,NA,NA,NA,NA,NA,NA,NA,NA,NA,NA,NA
2d4cd,Save data screen,canvas.Screen,2_14_0_1,NA,NA,timeout,499.79700000002,413803,413796.02,413812.686,414295.817,414297.2,2023-10-21T18:59:31Z,414312.483,Ergänzung,kijalizo,d,ulaghai,mustarehe,matangazo,NA,NA,0,"c(""distractor1"", ""distractor2"", ""distractor3"")",NA,NA,NA,NA,NA,NA,NA,NA,NA,NA,NA,NA,NA,NA,NA,NA,NA,NA,NA
2d4cd,shallow,flow.Sequence,2_14_0,NA,NA,completion,8376.391,405905.10000001,405902.76,405919.426,414295.817,414297.30000001,2023-10-21T18:59:31Z,414312.483,Ergänzung,kijalizo,d,ulaghai,mustarehe,matangazo,NA,NA,NA,"c(""distractor1"", ""distractor2"", ""distractor3"")",NA,NA,NA,NA,NA,NA,NA,NA,NA,NA,NA,NA,NA,NA,NA,NA,NA,NA,NA
2d4cd,task,flow.Sequence,2_14,NA,NA,completion,8376.391,405905.10000001,405902.76,405919.426,414295.817,414297.40000001,2023-10-21T18:59:31Z,414312.483,Ergänzung,kijalizo,d,ulaghai,mustarehe,matangazo,NA,NA,NA,"c(""distractor1"", ""distractor2"", ""distractor3"")",NA,NA,NA,NA,NA,NA,NA,NA,NA,NA,NA,NA,NA,NA,NA,NA,NA,NA,NA
2d4cd,Shallow Question,html.Page,2_15_0_0,NA,NA,form submission,4813.717000003,414297.5,414295.817,414312.483,419126.2,419126.30000001,2023-10-21T18:59:36Z,419142.058,Wohlstand,mafanikio,d,chimbuko,kumbuko,mapwaji,kumbuko,NA,NA,"c(""distractor1"", ""distractor2"", ""distractor3"")",NA,NA,NA,NA,NA,NA,NA,NA,NA,NA,NA,NA,NA,NA,NA,NA,NA,NA,NA
2d4cd,Save data screen,canvas.Screen,2_15_0_1,NA,NA,timeout,499.97999999998,419127.2,419125.204,419142.058,419625.372,419626.80000001,2023-10-21T18:59:36Z,419642.038,Wohlstand,mafanikio,d,chimbuko,kumbuko,mapwaji,NA,NA,0,"c(""distractor1"", ""distractor2"", ""distractor3"")",NA,NA,NA,NA,NA,NA,NA,NA,NA,NA,NA,NA,NA,NA,NA,NA,NA,NA,NA
2d4cd,shallow,flow.Sequence,2_15_0,NA,NA,completion,5312.889,414297.5,414295.817,414312.483,419625.372,419627.10000001,2023-10-21T18:59:36Z,419642.038,Wohlstand,mafanikio,d,chimbuko,kumbuko,mapwaji,NA,NA,NA,"c(""distractor1"", ""distractor2"", ""distractor3"")",NA,NA,NA,NA,NA,NA,NA,NA,NA,NA,NA,NA,NA,NA,NA,NA,NA,NA,NA
2d4cd,task,flow.Sequence,2_15,NA,NA,completion,5312.889,414297.5,414295.817,414312.483,419625.372,419627.2,2023-10-21T18:59:36Z,419642.038,Wohlstand,mafanikio,d,chimbuko,kumbuko,mapwaji,NA,NA,NA,"c(""distractor1"", ""distractor2"", ""distractor3"")",NA,NA,NA,NA,NA,NA,NA,NA,NA,NA,NA,NA,NA,NA,NA,NA,NA,NA,NA
2d4cd,retrieval block 2 (multiple choice),flow.Loop,2,NA,NA,completion,164464.211,255146.2,255144.495,255161.161,419625.372,419627.30000001,2023-10-21T18:59:36Z,419642.038,NA,NA,NA,NA,NA,NA,NA,NA,NA,"c(""distractor1"", ""distractor2"", ""distractor3"")",NA,NA,NA,NA,NA,NA,NA,NA,NA,NA,NA,NA,NA,NA,NA,NA,NA,NA,NA
2d4cd,End,canvas.Screen,3,NA,keypress(Space),response,3352.662000003,419627.40000001,419625.372,419642.038,422994.7,422996.2,2023-10-21T18:59:39Z,423008.256,NA,NA,NA,NA,NA,NA,NA,NA,NA,NULL,NA,NA,NA,NA,NA,NA,NA,NA,NA,NA,NA,NA,NA,NA,NA,NA,NA,NA,NA
2d4cd,root,flow.Sequence,NA,NA,NA,completion,422241.307,745.5,487.145,753.393,422994.7,422996.5,2023-10-21T18:59:39Z,423008.256,NA,NA,NA,NA,NA,NA,NA,NA,NA,NULL,NA,NA,NA,NA,NA,NA,NA,NA,NA,NA,NA,NA,NA,NA,NA,NA,NA,NA,NA
