observation,sender,sender_type,sender_id,response,response_action,ended_on,duration,time_run,time_render,time_show,time_end,time_commit,timestamp,time_switch,german,swahili,enc,distractor1,distractor2,distractor3,response_2,x,correct,distractors,url_vp,url_sess,meta_labjs_version,meta_location,meta_user_agent,meta_platform,meta_language,meta_locale,meta_time_zone,meta_timezone_offset,meta_screen_width,meta_screen_height,meta_scroll_width,meta_scroll_height,meta_window_inner_width,meta_window_inner_height,meta_device_pixel_ratio,meta_labjs_build_flavor,meta_labjs_build_commit
d4824,Introduction delayed retrieval,canvas.Screen,0,weiter,keypress(Space),response,2373.9130000954,2514,4284.074,4316.487,6690.4000000954,6693.4000000954,2023-05-18T08:51:29Z,6700.02,NA,NA,NA,NA,NA,NA,NA,NA,NA,NULL,212,4,20.2.4,https://neurocog.fernuni.ch/studies/vweber/sfink/delayed/index.html?vp=212&sess=4,"Mozilla/5.0 (Windows NT 10.0; Win64; x64) AppleWebKit/537.36 (KHTML, like Gecko) Chrome/113.0.0.0 Safari/537.36",Win32,de-DE,de,Europe/Zurich,-120,1440,960,1440,793,1440,841,1.5,production,f5b4a49f956347addd546a832a3327688c2c0fef
d4824,Deep Question,html.Page,1_0_0_0,NA,NA,form submission,3566.2799999523,6693.9000000954,6678.854,6700.02,10266.299999952,10266.799999952,2023-05-18T08:51:33Z,10266.723,Vorwurf,mashtaka,d,msukumo,mtangulizi,uenyekiti,m,NA,NA,NULL,NA,NA,NA,NA,NA,NA,NA,NA,NA,NA,NA,NA,NA,NA,NA,NA,NA,NA,NA
d4824,Save data screen,canvas.Screen,1_0_0_1,NA,NA,timeout,492.936,10268.400000095,10250.182,10266.723,10743.02,10744,2023-05-18T08:51:33Z,10759.659,Vorwurf,mashtaka,d,msukumo,mtangulizi,uenyekiti,NA,NA,0,NULL,NA,NA,NA,NA,NA,NA,NA,NA,NA,NA,NA,NA,NA,NA,NA,NA,NA,NA,NA
d4824,deep,flow.Sequence,1_0_0,NA,NA,completion,4043,6693.7999999523,6678.854,6700.02,10743.02,10744.400000095,2023-05-18T08:51:33Z,10759.659,Vorwurf,mashtaka,d,msukumo,mtangulizi,uenyekiti,NA,NA,NA,NULL,NA,NA,NA,NA,NA,NA,NA,NA,NA,NA,NA,NA,NA,NA,NA,NA,NA,NA,NA
d4824,task,flow.Sequence,1_0,NA,NA,completion,4043,6693.7999999523,6678.854,6700.02,10743.02,10744.700000048,2023-05-18T08:51:33Z,10759.659,Vorwurf,mashtaka,d,msukumo,mtangulizi,uenyekiti,NA,NA,NA,NULL,NA,NA,NA,NA,NA,NA,NA,NA,NA,NA,NA,NA,NA,NA,NA,NA,NA,NA,NA
d4824,Deep Question,html.Page,1_1_0_0,NA,NA,form submission,5618.0410000477,10744.900000095,10743.02,10759.659,16377.700000048,16378.100000143,2023-05-18T08:51:39Z,16395.9,Flexibilität,kubadilika,d,enjini,usikilivu,hesabu,",",NA,NA,NULL,NA,NA,NA,NA,NA,NA,NA,NA,NA,NA,NA,NA,NA,NA,NA,NA,NA,NA,NA
d4824,Save data screen,canvas.Screen,1_1_0_1,NA,NA,timeout,496.767,16379.299999952,16369.286,16395.9,16876.026,16876.799999952,2023-05-18T08:51:40Z,16892.667,Flexibilität,kubadilika,d,enjini,usikilivu,hesabu,NA,NA,0,NULL,NA,NA,NA,NA,NA,NA,NA,NA,NA,NA,NA,NA,NA,NA,NA,NA,NA,NA,NA
d4824,deep,flow.Sequence,1_1_0,NA,NA,completion,6116.367,10744.799999952,10743.02,10759.659,16876.026,16877.200000048,2023-05-18T08:51:40Z,16892.667,Flexibilität,kubadilika,d,enjini,usikilivu,hesabu,NA,NA,NA,NULL,NA,NA,NA,NA,NA,NA,NA,NA,NA,NA,NA,NA,NA,NA,NA,NA,NA,NA,NA
d4824,task,flow.Sequence,1_1,NA,NA,completion,6116.367,10744.799999952,10743.02,10759.659,16876.026,16877.600000143,2023-05-18T08:51:40Z,16892.667,Flexibilität,kubadilika,d,enjini,usikilivu,hesabu,NA,NA,NA,NULL,NA,NA,NA,NA,NA,NA,NA,NA,NA,NA,NA,NA,NA,NA,NA,NA,NA,NA,NA
d4824,Deep Question,html.Page,1_2_0_0,NA,NA,form submission,5546.0330000477,16877.799999952,16876.026,16892.667,22438.700000048,22439.200000048,2023-05-18T08:51:45Z,22439.442,Orientierung,urekebisho,s,uelekeo,marekebisho,utunzaji,m,NA,NA,NULL,NA,NA,NA,NA,NA,NA,NA,NA,NA,NA,NA,NA,NA,NA,NA,NA,NA,NA,NA
d4824,Save data screen,canvas.Screen,1_2_0_1,NA,NA,timeout,499.467,22440.5,22423.746,22439.442,22922.059,22922.799999952,2023-05-18T08:51:46Z,22938.909,Orientierung,urekebisho,s,uelekeo,marekebisho,utunzaji,NA,NA,0,NULL,NA,NA,NA,NA,NA,NA,NA,NA,NA,NA,NA,NA,NA,NA,NA,NA,NA,NA,NA
d4824,deep,flow.Sequence,1_2_0,NA,NA,completion,6029.392,16877.799999952,16876.026,16892.667,22922.059,22923.200000048,2023-05-18T08:51:46Z,22938.909,Orientierung,urekebisho,s,uelekeo,marekebisho,utunzaji,NA,NA,NA,NULL,NA,NA,NA,NA,NA,NA,NA,NA,NA,NA,NA,NA,NA,NA,NA,NA,NA,NA,NA
d4824,task,flow.Sequence,1_2,NA,NA,completion,6029.392,16877.700000048,16876.026,16892.667,22922.059,22923.5,2023-05-18T08:51:46Z,22938.909,Orientierung,urekebisho,s,uelekeo,marekebisho,utunzaji,NA,NA,NA,NULL,NA,NA,NA,NA,NA,NA,NA,NA,NA,NA,NA,NA,NA,NA,NA,NA,NA,NA,NA
d4824,Deep Question,html.Page,1_3_0_0,NA,NA,form submission,7082.7910000477,22923.900000095,22922.059,22938.909,30021.700000048,30022.100000143,2023-05-18T08:51:53Z,30026.678,Integrität,uadilifu,s,muungano,mtiririko,upunguaji,dilali,NA,NA,NULL,NA,NA,NA,NA,NA,NA,NA,NA,NA,NA,NA,NA,NA,NA,NA,NA,NA,NA,NA
d4824,Save data screen,canvas.Screen,1_3_0_1,NA,NA,timeout,495.168,30023.799999952,30011.173,30026.678,30505.17,30505.900000095,2023-05-18T08:51:53Z,30521.846,Integrität,uadilifu,s,muungano,mtiririko,upunguaji,NA,NA,0,NULL,NA,NA,NA,NA,NA,NA,NA,NA,NA,NA,NA,NA,NA,NA,NA,NA,NA,NA,NA
d4824,deep,flow.Sequence,1_3_0,NA,NA,completion,7566.261,22923.799999952,22922.059,22938.909,30505.17,30506.299999952,2023-05-18T08:51:53Z,30521.846,Integrität,uadilifu,s,muungano,mtiririko,upunguaji,NA,NA,NA,NULL,NA,NA,NA,NA,NA,NA,NA,NA,NA,NA,NA,NA,NA,NA,NA,NA,NA,NA,NA
d4824,task,flow.Sequence,1_3,NA,NA,completion,7566.261,22923.700000048,22922.059,22938.909,30505.17,30506.600000143,2023-05-18T08:51:53Z,30521.846,Integrität,uadilifu,s,muungano,mtiririko,upunguaji,NA,NA,NA,NULL,NA,NA,NA,NA,NA,NA,NA,NA,NA,NA,NA,NA,NA,NA,NA,NA,NA,NA,NA
d4824,Deep Question,html.Page,1_4_0_0,NA,NA,form submission,6264.0540000954,30506.700000048,30505.17,30521.846,36785.900000095004,36786.200000048,2023-05-18T08:52:00Z,36803.343,Respekt,heshima,s,changamnao,upinzani,ufanisi,c,NA,NA,NULL,NA,NA,NA,NA,NA,NA,NA,NA,NA,NA,NA,NA,NA,NA,NA,NA,NA,NA,NA
d4824,Save data screen,canvas.Screen,1_4_0_1,NA,NA,timeout,502.611,36787.600000143,36769.051,36803.343,37289.317,37289.799999952,2023-05-18T08:52:00Z,37305.954,Respekt,heshima,s,changamnao,upinzani,ufanisi,NA,NA,0,NULL,NA,NA,NA,NA,NA,NA,NA,NA,NA,NA,NA,NA,NA,NA,NA,NA,NA,NA,NA
d4824,deep,flow.Sequence,1_4_0,NA,NA,completion,6767.471,30506.700000048,30505.17,30521.846,37289.317,37290,2023-05-18T08:52:00Z,37305.954,Respekt,heshima,s,changamnao,upinzani,ufanisi,NA,NA,NA,NULL,NA,NA,NA,NA,NA,NA,NA,NA,NA,NA,NA,NA,NA,NA,NA,NA,NA,NA,NA
d4824,task,flow.Sequence,1_4,NA,NA,completion,6767.471,30506.600000143,30505.17,30521.846,37289.317,37290.100000143,2023-05-18T08:52:00Z,37305.954,Respekt,heshima,s,changamnao,upinzani,ufanisi,NA,NA,NA,NULL,NA,NA,NA,NA,NA,NA,NA,NA,NA,NA,NA,NA,NA,NA,NA,NA,NA,NA,NA
d4824,Deep Question,html.Page,1_5_0_0,NA,NA,form submission,3269.046,37290.200000048,37289.317,37305.954,40575,40575.5,2023-05-18T08:52:03Z,40593,Genehmigung,idhini,d,mwanamke,itikadi,fedheha,c,NA,NA,NULL,NA,NA,NA,NA,NA,NA,NA,NA,NA,NA,NA,NA,NA,NA,NA,NA,NA,NA,NA
d4824,Save data screen,canvas.Screen,1_5_0_1,NA,NA,timeout,501.697,40577,40560.484,40593,41078.029,41079.5,2023-05-18T08:52:04Z,41094.697,Genehmigung,idhini,d,mwanamke,itikadi,fedheha,NA,NA,0,NULL,NA,NA,NA,NA,NA,NA,NA,NA,NA,NA,NA,NA,NA,NA,NA,NA,NA,NA,NA
d4824,deep,flow.Sequence,1_5_0,NA,NA,completion,3772.075,37290.200000048,37289.317,37305.954,41078.029,41079.799999952,2023-05-18T08:52:04Z,41094.697,Genehmigung,idhini,d,mwanamke,itikadi,fedheha,NA,NA,NA,NULL,NA,NA,NA,NA,NA,NA,NA,NA,NA,NA,NA,NA,NA,NA,NA,NA,NA,NA,NA
d4824,task,flow.Sequence,1_5,NA,NA,completion,3772.075,37290.200000048,37289.317,37305.954,41078.029,41080.100000143,2023-05-18T08:52:04Z,41094.697,Genehmigung,idhini,d,mwanamke,itikadi,fedheha,NA,NA,NA,NULL,NA,NA,NA,NA,NA,NA,NA,NA,NA,NA,NA,NA,NA,NA,NA,NA,NA,NA,NA
d4824,Deep Question,html.Page,1_6_0_0,NA,NA,form submission,3255.803,41080.299999952,41078.029,41094.697,44350.5,44350.799999952,2023-05-18T08:52:07Z,44368.358,Niveau,kiwango,s,usimamizi,mwamali,mshairi,c,NA,NA,NULL,NA,NA,NA,NA,NA,NA,NA,NA,NA,NA,NA,NA,NA,NA,NA,NA,NA,NA,NA
d4824,Save data screen,canvas.Screen,1_6_0_1,NA,NA,timeout,501.956,44352,44349.749,44368.358,44853.669,44854.299999952,2023-05-18T08:52:08Z,44870.314,Niveau,kiwango,s,usimamizi,mwamali,mshairi,NA,NA,0,NULL,NA,NA,NA,NA,NA,NA,NA,NA,NA,NA,NA,NA,NA,NA,NA,NA,NA,NA,NA
d4824,deep,flow.Sequence,1_6_0,NA,NA,completion,3758.972,41080.200000048,41078.029,41094.697,44853.669,44854.700000048,2023-05-18T08:52:08Z,44870.314,Niveau,kiwango,s,usimamizi,mwamali,mshairi,NA,NA,NA,NULL,NA,NA,NA,NA,NA,NA,NA,NA,NA,NA,NA,NA,NA,NA,NA,NA,NA,NA,NA
d4824,task,flow.Sequence,1_6,NA,NA,completion,3758.972,41080.200000048,41078.029,41094.697,44853.669,44854.900000095004,2023-05-18T08:52:08Z,44870.314,Niveau,kiwango,s,usimamizi,mwamali,mshairi,NA,NA,NA,NULL,NA,NA,NA,NA,NA,NA,NA,NA,NA,NA,NA,NA,NA,NA,NA,NA,NA,NA,NA
d4824,Deep Question,html.Page,1_7_0_0,NA,NA,form submission,5023.0860000954,44855,44853.669,44870.314,49893.400000095004,49893.799999952,2023-05-18T08:52:13Z,49911.002,Begegnung,kukutana,d,mmasihiya,mpiganaji,husiano,cd,NA,NA,NULL,NA,NA,NA,NA,NA,NA,NA,NA,NA,NA,NA,NA,NA,NA,NA,NA,NA,NA,NA
d4824,Save data screen,canvas.Screen,1_7_0_1,NA,NA,timeout,502.472,49895.100000143,49889.951,49911.002,50396.814,50397.600000143,2023-05-18T08:52:13Z,50413.474,Begegnung,kukutana,d,mmasihiya,mpiganaji,husiano,NA,NA,0,NULL,NA,NA,NA,NA,NA,NA,NA,NA,NA,NA,NA,NA,NA,NA,NA,NA,NA,NA,NA
d4824,deep,flow.Sequence,1_7_0,NA,NA,completion,5526.5,44855,44853.669,44870.314,50396.814,50397.799999952,2023-05-18T08:52:13Z,50413.474,Begegnung,kukutana,d,mmasihiya,mpiganaji,husiano,NA,NA,NA,NULL,NA,NA,NA,NA,NA,NA,NA,NA,NA,NA,NA,NA,NA,NA,NA,NA,NA,NA,NA
d4824,task,flow.Sequence,1_7,NA,NA,completion,5526.5,44855,44853.669,44870.314,50396.814,50398.100000143,2023-05-18T08:52:13Z,50413.474,Begegnung,kukutana,d,mmasihiya,mpiganaji,husiano,NA,NA,NA,NULL,NA,NA,NA,NA,NA,NA,NA,NA,NA,NA,NA,NA,NA,NA,NA,NA,NA,NA,NA
d4824,Deep Question,html.Page,1_8_0_0,NA,NA,form submission,2551.7260000477,50398.299999952,50396.814,50413.474,52965.200000048,52965.600000143,2023-05-18T08:52:16Z,52983.579,Fleisch,mshakiki,s,kizunguzungu,mshikamano,angusho,c,NA,NA,NULL,NA,NA,NA,NA,NA,NA,NA,NA,NA,NA,NA,NA,NA,NA,NA,NA,NA,NA,NA
d4824,Save data screen,canvas.Screen,1_8_0_1,NA,NA,timeout,501.406,52966.700000048,52961.492,52983.579,53468.306,53469,2023-05-18T08:52:16Z,53484.985,Fleisch,mshakiki,s,kizunguzungu,mshikamano,angusho,NA,NA,0,NULL,NA,NA,NA,NA,NA,NA,NA,NA,NA,NA,NA,NA,NA,NA,NA,NA,NA,NA,NA
d4824,deep,flow.Sequence,1_8_0,NA,NA,completion,3054.832,50398.200000048,50396.814,50413.474,53468.306,53469.299999952,2023-05-18T08:52:16Z,53484.985,Fleisch,mshakiki,s,kizunguzungu,mshikamano,angusho,NA,NA,NA,NULL,NA,NA,NA,NA,NA,NA,NA,NA,NA,NA,NA,NA,NA,NA,NA,NA,NA,NA,NA
d4824,task,flow.Sequence,1_8,NA,NA,completion,3054.832,50398.200000048,50396.814,50413.474,53468.306,53469.5,2023-05-18T08:52:16Z,53484.985,Fleisch,mshakiki,s,kizunguzungu,mshikamano,angusho,NA,NA,NA,NULL,NA,NA,NA,NA,NA,NA,NA,NA,NA,NA,NA,NA,NA,NA,NA,NA,NA,NA,NA
d4824,Deep Question,html.Page,1_9_0_0,NA,NA,form submission,12175.814999952,53469.799999952,53468.306,53484.985,65660.799999952,65661.100000143,2023-05-18T08:52:28Z,65678.447,Stimmung,kinyongo,d,kilekile,kisambo,madhehebu,kinyonga,NA,NA,NULL,NA,NA,NA,NA,NA,NA,NA,NA,NA,NA,NA,NA,NA,NA,NA,NA,NA,NA,NA
d4824,Save data screen,canvas.Screen,1_9_0_1,NA,NA,timeout,502.80499999999,65664.799999952,65653.511,65678.447,66164.591,66165.100000143,2023-05-18T08:52:29Z,66181.252,Stimmung,kinyongo,d,kilekile,kisambo,madhehebu,NA,NA,0,NULL,NA,NA,NA,NA,NA,NA,NA,NA,NA,NA,NA,NA,NA,NA,NA,NA,NA,NA,NA
d4824,deep,flow.Sequence,1_9_0,NA,NA,completion,12679.606,53469.799999952,53468.306,53484.985,66164.591,66165.5,2023-05-18T08:52:29Z,66181.252,Stimmung,kinyongo,d,kilekile,kisambo,madhehebu,NA,NA,NA,NULL,NA,NA,NA,NA,NA,NA,NA,NA,NA,NA,NA,NA,NA,NA,NA,NA,NA,NA,NA
d4824,task,flow.Sequence,1_9,NA,NA,completion,12679.606,53469.700000048,53468.306,53484.985,66164.591,66165.799999952,2023-05-18T08:52:29Z,66181.252,Stimmung,kinyongo,d,kilekile,kisambo,madhehebu,NA,NA,NA,NULL,NA,NA,NA,NA,NA,NA,NA,NA,NA,NA,NA,NA,NA,NA,NA,NA,NA,NA,NA
d4824,Deep Question,html.Page,1_10_0_0,NA,NA,form submission,3082.9480000477,66166,66164.591,66181.252,69264.200000048,69264.700000048,2023-05-18T08:52:32Z,69282.654,Atmosphäre,angahewa,d,kuteseka,usahihi,kutoamini,f,NA,NA,NULL,NA,NA,NA,NA,NA,NA,NA,NA,NA,NA,NA,NA,NA,NA,NA,NA,NA,NA,NA
d4824,Save data screen,canvas.Screen,1_10_0_1,NA,NA,timeout,501.94200000001,69267.799999952,69262.561,69282.654,69767.956,69768.600000143,2023-05-18T08:52:33Z,69784.596,Atmosphäre,angahewa,d,kuteseka,usahihi,kutoamini,NA,NA,0,NULL,NA,NA,NA,NA,NA,NA,NA,NA,NA,NA,NA,NA,NA,NA,NA,NA,NA,NA,NA
d4824,deep,flow.Sequence,1_10_0,NA,NA,completion,3586.704,66165.900000095,66164.591,66181.252,69767.956,69768.799999952,2023-05-18T08:52:33Z,69784.596,Atmosphäre,angahewa,d,kuteseka,usahihi,kutoamini,NA,NA,NA,NULL,NA,NA,NA,NA,NA,NA,NA,NA,NA,NA,NA,NA,NA,NA,NA,NA,NA,NA,NA
d4824,task,flow.Sequence,1_10,NA,NA,completion,3586.704,66165.799999952,66164.591,66181.252,69767.956,69768.900000095,2023-05-18T08:52:33Z,69784.596,Atmosphäre,angahewa,d,kuteseka,usahihi,kutoamini,NA,NA,NA,NULL,NA,NA,NA,NA,NA,NA,NA,NA,NA,NA,NA,NA,NA,NA,NA,NA,NA,NA,NA
d4824,Deep Question,html.Page,1_11_0_0,NA,NA,form submission,3368.6040000477,69769.100000143,69767.956,69784.596,73153.200000048,73153.600000143,2023-05-18T08:52:36Z,73158.895,Wechsel,ugeuzaji,s,utambulisho,kujenga,wasiwasi,f,NA,NA,NULL,NA,NA,NA,NA,NA,NA,NA,NA,NA,NA,NA,NA,NA,NA,NA,NA,NA,NA,NA
d4824,Save data screen,canvas.Screen,1_11_0_1,NA,NA,timeout,503.368,73155.900000095,73142.253,73158.895,73645.61,73646.200000048,2023-05-18T08:52:36Z,73662.263,Wechsel,ugeuzaji,s,utambulisho,kujenga,wasiwasi,NA,NA,0,NULL,NA,NA,NA,NA,NA,NA,NA,NA,NA,NA,NA,NA,NA,NA,NA,NA,NA,NA,NA
d4824,deep,flow.Sequence,1_11_0,NA,NA,completion,3861.014,69769,69767.956,69784.596,73645.61,73646.5,2023-05-18T08:52:36Z,73662.263,Wechsel,ugeuzaji,s,utambulisho,kujenga,wasiwasi,NA,NA,NA,NULL,NA,NA,NA,NA,NA,NA,NA,NA,NA,NA,NA,NA,NA,NA,NA,NA,NA,NA,NA
d4824,task,flow.Sequence,1_11,NA,NA,completion,3861.014,69769,69767.956,69784.596,73645.61,73646.799999952,2023-05-18T08:52:36Z,73662.263,Wechsel,ugeuzaji,s,utambulisho,kujenga,wasiwasi,NA,NA,NA,NULL,NA,NA,NA,NA,NA,NA,NA,NA,NA,NA,NA,NA,NA,NA,NA,NA,NA,NA,NA
d4824,Deep Question,html.Page,1_12_0_0,NA,NA,form submission,2622.337000143,73647,73645.61,73662.263,76284.600000143,76284.900000095,2023-05-18T08:52:39Z,76303.05,Betrüger,mdanganyifu,d,mwanamuziki,wastani,mahakama,f,NA,NA,NULL,NA,NA,NA,NA,NA,NA,NA,NA,NA,NA,NA,NA,NA,NA,NA,NA,NA,NA,NA
d4824,Save data screen,canvas.Screen,1_12_0_1,NA,NA,timeout,502.781,76285.700000048,76280.338,76303.05,76789.159,76789.700000048,2023-05-18T08:52:40Z,76805.831,Betrüger,mdanganyifu,d,mwanamuziki,wastani,mahakama,NA,NA,0,NULL,NA,NA,NA,NA,NA,NA,NA,NA,NA,NA,NA,NA,NA,NA,NA,NA,NA,NA,NA
d4824,deep,flow.Sequence,1_12_0,NA,NA,completion,3126.896,73647,73645.61,73662.263,76789.159,76789.900000095,2023-05-18T08:52:40Z,76805.831,Betrüger,mdanganyifu,d,mwanamuziki,wastani,mahakama,NA,NA,NA,NULL,NA,NA,NA,NA,NA,NA,NA,NA,NA,NA,NA,NA,NA,NA,NA,NA,NA,NA,NA
d4824,task,flow.Sequence,1_12,NA,NA,completion,3126.896,73646.900000095,73645.61,73662.263,76789.159,76790,2023-05-18T08:52:40Z,76805.831,Betrüger,mdanganyifu,d,mwanamuziki,wastani,mahakama,NA,NA,NA,NULL,NA,NA,NA,NA,NA,NA,NA,NA,NA,NA,NA,NA,NA,NA,NA,NA,NA,NA,NA
d4824,Deep Question,html.Page,1_13_0_0,NA,NA,form submission,2740.8690000477,76790.200000048,76789.159,76805.831,79546.700000048,79547.200000048,2023-05-18T08:52:42Z,79546.764,Erneuerung,ukarabati,s,ushawishi,ukalifu,unyonyaji,f,NA,NA,NULL,NA,NA,NA,NA,NA,NA,NA,NA,NA,NA,NA,NA,NA,NA,NA,NA,NA,NA,NA
d4824,Save data screen,canvas.Screen,1_13_0_1,NA,NA,timeout,503.33,79550.299999952,79535.204,79546.764,80033.388,80033.900000095,2023-05-18T08:52:43Z,80050.094,Erneuerung,ukarabati,s,ushawishi,ukalifu,unyonyaji,NA,NA,0,NULL,NA,NA,NA,NA,NA,NA,NA,NA,NA,NA,NA,NA,NA,NA,NA,NA,NA,NA,NA
d4824,deep,flow.Sequence,1_13_0,NA,NA,completion,3227.557,76790.200000048,76789.159,76805.831,80033.388,80034.100000143,2023-05-18T08:52:43Z,80050.094,Erneuerung,ukarabati,s,ushawishi,ukalifu,unyonyaji,NA,NA,NA,NULL,NA,NA,NA,NA,NA,NA,NA,NA,NA,NA,NA,NA,NA,NA,NA,NA,NA,NA,NA
d4824,task,flow.Sequence,1_13,NA,NA,completion,3227.557,76790.100000143,76789.159,76805.831,80033.388,80034.200000048,2023-05-18T08:52:43Z,80050.094,Erneuerung,ukarabati,s,ushawishi,ukalifu,unyonyaji,NA,NA,NA,NULL,NA,NA,NA,NA,NA,NA,NA,NA,NA,NA,NA,NA,NA,NA,NA,NA,NA,NA,NA
d4824,Deep Question,html.Page,1_14_0_0,NA,NA,form submission,3718.3060000954,80034.400000095,80033.388,80050.094,83768.400000095,83768.799999952,2023-05-18T08:52:47Z,83770.685,Papier,karatasi,s,uchambuzi,usalama,kukataliwa,f,NA,NA,NULL,NA,NA,NA,NA,NA,NA,NA,NA,NA,NA,NA,NA,NA,NA,NA,NA,NA,NA,NA
d4824,Save data screen,canvas.Screen,1_14_0_1,NA,NA,timeout,503.99400000001,83772.100000143,83762.837,83770.685,84257.993,84258.5,2023-05-18T08:52:47Z,84274.679,Papier,karatasi,s,uchambuzi,usalama,kukataliwa,NA,NA,0,NULL,NA,NA,NA,NA,NA,NA,NA,NA,NA,NA,NA,NA,NA,NA,NA,NA,NA,NA,NA
d4824,deep,flow.Sequence,1_14_0,NA,NA,completion,4207.899,80034.400000095,80033.388,80050.094,84257.993,84258.799999952,2023-05-18T08:52:47Z,84274.679,Papier,karatasi,s,uchambuzi,usalama,kukataliwa,NA,NA,NA,NULL,NA,NA,NA,NA,NA,NA,NA,NA,NA,NA,NA,NA,NA,NA,NA,NA,NA,NA,NA
d4824,task,flow.Sequence,1_14,NA,NA,completion,4207.899,80034.400000095,80033.388,80050.094,84257.993,84259,2023-05-18T08:52:47Z,84274.679,Papier,karatasi,s,uchambuzi,usalama,kukataliwa,NA,NA,NA,NULL,NA,NA,NA,NA,NA,NA,NA,NA,NA,NA,NA,NA,NA,NA,NA,NA,NA,NA,NA
d4824,Deep Question,html.Page,1_15_0_0,NA,NA,form submission,3231.7210000954,84259.200000048,84257.993,84274.679,87506.400000095,87506.799999952,2023-05-18T08:52:50Z,87524.649,Entwicklung,maendeleo,d,uangavu,mshindwa,badiliko,f,NA,NA,NULL,NA,NA,NA,NA,NA,NA,NA,NA,NA,NA,NA,NA,NA,NA,NA,NA,NA,NA,NA
d4824,Save data screen,canvas.Screen,1_15_0_1,NA,NA,timeout,502.565,87509.900000095,87501.804,87524.649,88010.577,88011.100000143,2023-05-18T08:52:51Z,88027.214,Entwicklung,maendeleo,d,uangavu,mshindwa,badiliko,NA,NA,0,NULL,NA,NA,NA,NA,NA,NA,NA,NA,NA,NA,NA,NA,NA,NA,NA,NA,NA,NA,NA
d4824,deep,flow.Sequence,1_15_0,NA,NA,completion,3735.898,84259.100000143,84257.993,84274.679,88010.577,88011.299999952,2023-05-18T08:52:51Z,88027.214,Entwicklung,maendeleo,d,uangavu,mshindwa,badiliko,NA,NA,NA,NULL,NA,NA,NA,NA,NA,NA,NA,NA,NA,NA,NA,NA,NA,NA,NA,NA,NA,NA,NA
d4824,task,flow.Sequence,1_15,NA,NA,completion,3735.898,84259.100000143,84257.993,84274.679,88010.577,88011.5,2023-05-18T08:52:51Z,88027.214,Entwicklung,maendeleo,d,uangavu,mshindwa,badiliko,NA,NA,NA,NULL,NA,NA,NA,NA,NA,NA,NA,NA,NA,NA,NA,NA,NA,NA,NA,NA,NA,NA,NA
d4824,retrieval block 1 (cued recall),flow.Loop,1,NA,NA,completion,81310.557,6693.7000000477,6678.854,6700.02,88010.577,88011.600000143,2023-05-18T08:52:51Z,88027.214,NA,NA,NA,NA,NA,NA,NA,NA,NA,NULL,NA,NA,NA,NA,NA,NA,NA,NA,NA,NA,NA,NA,NA,NA,NA,NA,NA,NA,NA
d4824,Shallow Question,html.Page,2_0_0_0,NA,NA,form submission,8340.0859999523,88011.799999952,88010.577,88027.214,96367.299999952,96367.600000143,2023-05-18T08:52:59Z,96384.169,Betrüger,mdanganyifu,d,mwanamuziki,wastani,mahakama,mdanganyifu,NA,NA,"c(""distractor1"", ""distractor2"", ""distractor3"")",NA,NA,NA,NA,NA,NA,NA,NA,NA,NA,NA,NA,NA,NA,NA,NA,NA,NA,NA
d4824,Save data screen,canvas.Screen,2_0_0_1,NA,NA,timeout,502.49900000001,96370.600000143,96361.904,96384.169,96870.022,96871.900000095,2023-05-18T08:53:00Z,96886.668,Betrüger,mdanganyifu,d,mwanamuziki,wastani,mahakama,NA,NA,1,"c(""distractor1"", ""distractor2"", ""distractor3"")",NA,NA,NA,NA,NA,NA,NA,NA,NA,NA,NA,NA,NA,NA,NA,NA,NA,NA,NA
d4824,shallow,flow.Sequence,2_0_0,NA,NA,completion,8842.808,88011.799999952,88010.577,88027.214,96870.022,96872.100000143,2023-05-18T08:53:00Z,96886.668,Betrüger,mdanganyifu,d,mwanamuziki,wastani,mahakama,NA,NA,NA,"c(""distractor1"", ""distractor2"", ""distractor3"")",NA,NA,NA,NA,NA,NA,NA,NA,NA,NA,NA,NA,NA,NA,NA,NA,NA,NA,NA
d4824,task,flow.Sequence,2_0,NA,NA,completion,8842.808,88011.700000048,88010.577,88027.214,96870.022,96872.200000048,2023-05-18T08:53:00Z,96886.668,Betrüger,mdanganyifu,d,mwanamuziki,wastani,mahakama,NA,NA,NA,"c(""distractor1"", ""distractor2"", ""distractor3"")",NA,NA,NA,NA,NA,NA,NA,NA,NA,NA,NA,NA,NA,NA,NA,NA,NA,NA,NA
d4824,Shallow Question,html.Page,2_1_0_0,NA,NA,form submission,7085.1319999523,96872.400000095,96870.022,96886.668,103971.79999995,103972.10000014,2023-05-18T08:53:07Z,103988.8,Integrität,uadilifu,s,muungano,mtiririko,upunguaji,uadilifu,NA,NA,"c(""distractor1"", ""distractor2"", ""distractor3"")",NA,NA,NA,NA,NA,NA,NA,NA,NA,NA,NA,NA,NA,NA,NA,NA,NA,NA,NA
d4824,Save data screen,canvas.Screen,2_1_0_1,NA,NA,timeout,502.34,103975.29999995,103960.423,103988.8,104474.508,104475.10000014,2023-05-18T08:53:07Z,104491.14,Integrität,uadilifu,s,muungano,mtiririko,upunguaji,NA,NA,1,"c(""distractor1"", ""distractor2"", ""distractor3"")",NA,NA,NA,NA,NA,NA,NA,NA,NA,NA,NA,NA,NA,NA,NA,NA,NA,NA,NA
d4824,shallow,flow.Sequence,2_1_0,NA,NA,completion,7587.84,96872.299999952,96870.022,96886.668,104474.508,104475.29999995,2023-05-18T08:53:07Z,104491.14,Integrität,uadilifu,s,muungano,mtiririko,upunguaji,NA,NA,NA,"c(""distractor1"", ""distractor2"", ""distractor3"")",NA,NA,NA,NA,NA,NA,NA,NA,NA,NA,NA,NA,NA,NA,NA,NA,NA,NA,NA
d4824,task,flow.Sequence,2_1,NA,NA,completion,7587.84,96872.299999952,96870.022,96886.668,104474.508,104475.4000001,2023-05-18T08:53:07Z,104491.14,Integrität,uadilifu,s,muungano,mtiririko,upunguaji,NA,NA,NA,"c(""distractor1"", ""distractor2"", ""distractor3"")",NA,NA,NA,NA,NA,NA,NA,NA,NA,NA,NA,NA,NA,NA,NA,NA,NA,NA,NA
d4824,Shallow Question,html.Page,2_2_0_0,NA,NA,form submission,5558.4600001431,104475.60000014,104474.508,104491.14,110049.60000014,110049.9000001,2023-05-18T08:53:13Z,110066.942,Niveau,kiwango,s,usimamizi,mwamali,mshairi,kiwango,NA,NA,"c(""distractor1"", ""distractor2"", ""distractor3"")",NA,NA,NA,NA,NA,NA,NA,NA,NA,NA,NA,NA,NA,NA,NA,NA,NA,NA,NA
d4824,Save data screen,canvas.Screen,2_2_0_1,NA,NA,timeout,501.697,110053.4000001,110040.404,110066.942,110551.943,110552.5,2023-05-18T08:53:13Z,110568.639,Niveau,kiwango,s,usimamizi,mwamali,mshairi,NA,NA,1,"c(""distractor1"", ""distractor2"", ""distractor3"")",NA,NA,NA,NA,NA,NA,NA,NA,NA,NA,NA,NA,NA,NA,NA,NA,NA,NA,NA
d4824,shallow,flow.Sequence,2_2_0,NA,NA,completion,6060.803,104475.60000014,104474.508,104491.14,110551.943,110552.79999995,2023-05-18T08:53:13Z,110568.639,Niveau,kiwango,s,usimamizi,mwamali,mshairi,NA,NA,NA,"c(""distractor1"", ""distractor2"", ""distractor3"")",NA,NA,NA,NA,NA,NA,NA,NA,NA,NA,NA,NA,NA,NA,NA,NA,NA,NA,NA
d4824,task,flow.Sequence,2_2,NA,NA,completion,6060.803,104475.60000014,104474.508,104491.14,110551.943,110553.10000014,2023-05-18T08:53:13Z,110568.639,Niveau,kiwango,s,usimamizi,mwamali,mshairi,NA,NA,NA,"c(""distractor1"", ""distractor2"", ""distractor3"")",NA,NA,NA,NA,NA,NA,NA,NA,NA,NA,NA,NA,NA,NA,NA,NA,NA,NA,NA
d4824,Shallow Question,html.Page,2_3_0_0,NA,NA,form submission,6226.9610001431,110553.29999995,110551.943,110568.639,116795.60000014,116796,2023-05-18T08:53:20Z,116812.582,Begegnung,kukutana,d,mmasihiya,mpiganaji,husiano,mpiganaji,NA,NA,"c(""distractor1"", ""distractor2"", ""distractor3"")",NA,NA,NA,NA,NA,NA,NA,NA,NA,NA,NA,NA,NA,NA,NA,NA,NA,NA,NA
d4824,Save data screen,canvas.Screen,2_3_0_1,NA,NA,timeout,502.114,116799.5,116787.745,116812.582,117298.223,117298.79999995,2023-05-18T08:53:20Z,117314.696,Begegnung,kukutana,d,mmasihiya,mpiganaji,husiano,NA,NA,0,"c(""distractor1"", ""distractor2"", ""distractor3"")",NA,NA,NA,NA,NA,NA,NA,NA,NA,NA,NA,NA,NA,NA,NA,NA,NA,NA,NA
d4824,shallow,flow.Sequence,2_3_0,NA,NA,completion,6729.584,110553.20000005,110551.943,110568.639,117298.223,117299.10000014,2023-05-18T08:53:20Z,117314.696,Begegnung,kukutana,d,mmasihiya,mpiganaji,husiano,NA,NA,NA,"c(""distractor1"", ""distractor2"", ""distractor3"")",NA,NA,NA,NA,NA,NA,NA,NA,NA,NA,NA,NA,NA,NA,NA,NA,NA,NA,NA
d4824,task,flow.Sequence,2_3,NA,NA,completion,6729.584,110553.20000005,110551.943,110568.639,117298.223,117299.20000005,2023-05-18T08:53:20Z,117314.696,Begegnung,kukutana,d,mmasihiya,mpiganaji,husiano,NA,NA,NA,"c(""distractor1"", ""distractor2"", ""distractor3"")",NA,NA,NA,NA,NA,NA,NA,NA,NA,NA,NA,NA,NA,NA,NA,NA,NA,NA,NA
d4824,Shallow Question,html.Page,2_4_0_0,NA,NA,form submission,5385.4040001431,117299.29999995,117298.223,117314.696,122700.10000014,122700.5,2023-05-18T08:53:25Z,122717.614,Entwicklung,maendeleo,d,uangavu,mshindwa,badiliko,maendeleo,NA,NA,"c(""distractor1"", ""distractor2"", ""distractor3"")",NA,NA,NA,NA,NA,NA,NA,NA,NA,NA,NA,NA,NA,NA,NA,NA,NA,NA,NA
d4824,Save data screen,canvas.Screen,2_4_0_1,NA,NA,timeout,501.841,122704,122699.063,122717.614,123202.836,123203.5,2023-05-18T08:53:26Z,123219.455,Entwicklung,maendeleo,d,uangavu,mshindwa,badiliko,NA,NA,1,"c(""distractor1"", ""distractor2"", ""distractor3"")",NA,NA,NA,NA,NA,NA,NA,NA,NA,NA,NA,NA,NA,NA,NA,NA,NA,NA,NA
d4824,shallow,flow.Sequence,2_4_0,NA,NA,completion,5888.14,117299.29999995,117298.223,117314.696,123202.836,123203.9000001,2023-05-18T08:53:26Z,123219.455,Entwicklung,maendeleo,d,uangavu,mshindwa,badiliko,NA,NA,NA,"c(""distractor1"", ""distractor2"", ""distractor3"")",NA,NA,NA,NA,NA,NA,NA,NA,NA,NA,NA,NA,NA,NA,NA,NA,NA,NA,NA
d4824,task,flow.Sequence,2_4,NA,NA,completion,5888.14,117299.29999995,117298.223,117314.696,123202.836,123204.10000014,2023-05-18T08:53:26Z,123219.455,Entwicklung,maendeleo,d,uangavu,mshindwa,badiliko,NA,NA,NA,"c(""distractor1"", ""distractor2"", ""distractor3"")",NA,NA,NA,NA,NA,NA,NA,NA,NA,NA,NA,NA,NA,NA,NA,NA,NA,NA,NA
d4824,Shallow Question,html.Page,2_5_0_0,NA,NA,form submission,8515.145000143,123204.29999995,123202.836,123219.455,131734.60000014,131734.9000001,2023-05-18T08:53:34Z,131751.171,Atmosphäre,angahewa,d,kuteseka,usahihi,kutoamini,usahihi,NA,NA,"c(""distractor1"", ""distractor2"", ""distractor3"")",NA,NA,NA,NA,NA,NA,NA,NA,NA,NA,NA,NA,NA,NA,NA,NA,NA,NA,NA
d4824,Save data screen,canvas.Screen,2_5_0_1,NA,NA,timeout,503.95799999998,131737.70000005,131731.621,131751.171,132238.551,132239.20000005,2023-05-18T08:53:35Z,132255.129,Atmosphäre,angahewa,d,kuteseka,usahihi,kutoamini,NA,NA,0,"c(""distractor1"", ""distractor2"", ""distractor3"")",NA,NA,NA,NA,NA,NA,NA,NA,NA,NA,NA,NA,NA,NA,NA,NA,NA,NA,NA
d4824,shallow,flow.Sequence,2_5_0,NA,NA,completion,9019.096,123204.29999995,123202.836,123219.455,132238.551,132239.4000001,2023-05-18T08:53:35Z,132255.129,Atmosphäre,angahewa,d,kuteseka,usahihi,kutoamini,NA,NA,NA,"c(""distractor1"", ""distractor2"", ""distractor3"")",NA,NA,NA,NA,NA,NA,NA,NA,NA,NA,NA,NA,NA,NA,NA,NA,NA,NA,NA
d4824,task,flow.Sequence,2_5,NA,NA,completion,9019.096,123204.29999995,123202.836,123219.455,132238.551,132239.5,2023-05-18T08:53:35Z,132255.129,Atmosphäre,angahewa,d,kuteseka,usahihi,kutoamini,NA,NA,NA,"c(""distractor1"", ""distractor2"", ""distractor3"")",NA,NA,NA,NA,NA,NA,NA,NA,NA,NA,NA,NA,NA,NA,NA,NA,NA,NA,NA
d4824,Shallow Question,html.Page,2_6_0_0,NA,NA,form submission,10689.571000048,132239.79999995,132238.551,132255.129,142944.70000005,142945.20000005,2023-05-18T08:53:46Z,142962.017,Fleisch,mshakiki,s,kizunguzungu,mshikamano,angusho,mshakiki,NA,NA,"c(""distractor1"", ""distractor2"", ""distractor3"")",NA,NA,NA,NA,NA,NA,NA,NA,NA,NA,NA,NA,NA,NA,NA,NA,NA,NA,NA
d4824,Save data screen,canvas.Screen,2_6_0_1,NA,NA,timeout,493.049,142948.9000001,142943.232,142962.017,143438.375,143439.10000014,2023-05-18T08:53:46Z,143455.066,Fleisch,mshakiki,s,kizunguzungu,mshikamano,angusho,NA,NA,1,"c(""distractor1"", ""distractor2"", ""distractor3"")",NA,NA,NA,NA,NA,NA,NA,NA,NA,NA,NA,NA,NA,NA,NA,NA,NA,NA,NA
d4824,shallow,flow.Sequence,2_6_0,NA,NA,completion,11183.246,132239.70000005,132238.551,132255.129,143438.375,143439.4000001,2023-05-18T08:53:46Z,143455.066,Fleisch,mshakiki,s,kizunguzungu,mshikamano,angusho,NA,NA,NA,"c(""distractor1"", ""distractor2"", ""distractor3"")",NA,NA,NA,NA,NA,NA,NA,NA,NA,NA,NA,NA,NA,NA,NA,NA,NA,NA,NA
d4824,task,flow.Sequence,2_6,NA,NA,completion,11183.246,132239.60000014,132238.551,132255.129,143438.375,143439.70000005,2023-05-18T08:53:46Z,143455.066,Fleisch,mshakiki,s,kizunguzungu,mshikamano,angusho,NA,NA,NA,"c(""distractor1"", ""distractor2"", ""distractor3"")",NA,NA,NA,NA,NA,NA,NA,NA,NA,NA,NA,NA,NA,NA,NA,NA,NA,NA,NA
d4824,Shallow Question,html.Page,2_7_0_0,NA,NA,form submission,4237.5340001431,143440,143438.375,143455.066,147692.60000014,147693,2023-05-18T08:53:50Z,147709.542,Stimmung,kinyongo,d,kilekile,kisambo,madhehebu,kinyongo,NA,NA,"c(""distractor1"", ""distractor2"", ""distractor3"")",NA,NA,NA,NA,NA,NA,NA,NA,NA,NA,NA,NA,NA,NA,NA,NA,NA,NA,NA
d4824,Save data screen,canvas.Screen,2_7_0_1,NA,NA,timeout,502.34600000002,147695.5,147681.908,147709.542,148195.243,148195.79999995,2023-05-18T08:53:51Z,148211.888,Stimmung,kinyongo,d,kilekile,kisambo,madhehebu,NA,NA,1,"c(""distractor1"", ""distractor2"", ""distractor3"")",NA,NA,NA,NA,NA,NA,NA,NA,NA,NA,NA,NA,NA,NA,NA,NA,NA,NA,NA
d4824,shallow,flow.Sequence,2_7_0,NA,NA,completion,4740.177,143440,143438.375,143455.066,148195.243,148196,2023-05-18T08:53:51Z,148211.888,Stimmung,kinyongo,d,kilekile,kisambo,madhehebu,NA,NA,NA,"c(""distractor1"", ""distractor2"", ""distractor3"")",NA,NA,NA,NA,NA,NA,NA,NA,NA,NA,NA,NA,NA,NA,NA,NA,NA,NA,NA
d4824,task,flow.Sequence,2_7,NA,NA,completion,4740.177,143439.9000001,143438.375,143455.066,148195.243,148196.29999995,2023-05-18T08:53:51Z,148211.888,Stimmung,kinyongo,d,kilekile,kisambo,madhehebu,NA,NA,NA,"c(""distractor1"", ""distractor2"", ""distractor3"")",NA,NA,NA,NA,NA,NA,NA,NA,NA,NA,NA,NA,NA,NA,NA,NA,NA,NA,NA
d4824,Shallow Question,html.Page,2_8_0_0,NA,NA,form submission,9747.612,148196.5,148195.243,148211.888,157959.5,157959.79999995,2023-05-18T08:54:01Z,157976.876,Wechsel,ugeuzaji,s,utambulisho,kujenga,wasiwasi,ugeuzaji,NA,NA,"c(""distractor1"", ""distractor2"", ""distractor3"")",NA,NA,NA,NA,NA,NA,NA,NA,NA,NA,NA,NA,NA,NA,NA,NA,NA,NA,NA
d4824,Save data screen,canvas.Screen,2_8_0_1,NA,NA,timeout,502.508,157962.9000001,157953.621,157976.876,158462.888,158463.60000014,2023-05-18T08:54:01Z,158479.384,Wechsel,ugeuzaji,s,utambulisho,kujenga,wasiwasi,NA,NA,1,"c(""distractor1"", ""distractor2"", ""distractor3"")",NA,NA,NA,NA,NA,NA,NA,NA,NA,NA,NA,NA,NA,NA,NA,NA,NA,NA,NA
d4824,shallow,flow.Sequence,2_8_0,NA,NA,completion,10251,148196.5,148195.243,148211.888,158462.888,158463.79999995,2023-05-18T08:54:01Z,158479.384,Wechsel,ugeuzaji,s,utambulisho,kujenga,wasiwasi,NA,NA,NA,"c(""distractor1"", ""distractor2"", ""distractor3"")",NA,NA,NA,NA,NA,NA,NA,NA,NA,NA,NA,NA,NA,NA,NA,NA,NA,NA,NA
d4824,task,flow.Sequence,2_8,NA,NA,completion,10251,148196.4000001,148195.243,148211.888,158462.888,158463.9000001,2023-05-18T08:54:01Z,158479.384,Wechsel,ugeuzaji,s,utambulisho,kujenga,wasiwasi,NA,NA,NA,"c(""distractor1"", ""distractor2"", ""distractor3"")",NA,NA,NA,NA,NA,NA,NA,NA,NA,NA,NA,NA,NA,NA,NA,NA,NA,NA,NA
d4824,Shallow Question,html.Page,2_9_0_0,NA,NA,form submission,8256.116,158464.10000014,158462.888,158479.384,166735.5,166735.70000005,2023-05-18T08:54:09Z,166753.057,Flexibilität,kubadilika,d,enjini,usikilivu,hesabu,kubadilika,NA,NA,"c(""distractor1"", ""distractor2"", ""distractor3"")",NA,NA,NA,NA,NA,NA,NA,NA,NA,NA,NA,NA,NA,NA,NA,NA,NA,NA,NA
d4824,Save data screen,canvas.Screen,2_9_0_1,NA,NA,timeout,495.74299999999,166738.29999995,166724.387,166753.057,167232.115,167232.60000014,2023-05-18T08:54:10Z,167248.8,Flexibilität,kubadilika,d,enjini,usikilivu,hesabu,NA,NA,1,"c(""distractor1"", ""distractor2"", ""distractor3"")",NA,NA,NA,NA,NA,NA,NA,NA,NA,NA,NA,NA,NA,NA,NA,NA,NA,NA,NA
d4824,shallow,flow.Sequence,2_9_0,NA,NA,completion,8752.731,158464.10000014,158462.888,158479.384,167232.115,167232.9000001,2023-05-18T08:54:10Z,167248.8,Flexibilität,kubadilika,d,enjini,usikilivu,hesabu,NA,NA,NA,"c(""distractor1"", ""distractor2"", ""distractor3"")",NA,NA,NA,NA,NA,NA,NA,NA,NA,NA,NA,NA,NA,NA,NA,NA,NA,NA,NA
d4824,task,flow.Sequence,2_9,NA,NA,completion,8752.731,158464,158462.888,158479.384,167232.115,167233,2023-05-18T08:54:10Z,167248.8,Flexibilität,kubadilika,d,enjini,usikilivu,hesabu,NA,NA,NA,"c(""distractor1"", ""distractor2"", ""distractor3"")",NA,NA,NA,NA,NA,NA,NA,NA,NA,NA,NA,NA,NA,NA,NA,NA,NA,NA,NA
d4824,Shallow Question,html.Page,2_10_0_0,NA,NA,form submission,5787.3000001431,167233.10000014,167232.115,167248.8,173036.10000014,173036.4000001,2023-05-18T08:54:16Z,173053.752,Respekt,heshima,s,changamnao,upinzani,ufanisi,heshima,NA,NA,"c(""distractor1"", ""distractor2"", ""distractor3"")",NA,NA,NA,NA,NA,NA,NA,NA,NA,NA,NA,NA,NA,NA,NA,NA,NA,NA,NA
d4824,Save data screen,canvas.Screen,2_10_0_1,NA,NA,timeout,502.622,173039.29999995,173028.217,173053.752,173539.705,173540.4000001,2023-05-18T08:54:16Z,173556.374,Respekt,heshima,s,changamnao,upinzani,ufanisi,NA,NA,1,"c(""distractor1"", ""distractor2"", ""distractor3"")",NA,NA,NA,NA,NA,NA,NA,NA,NA,NA,NA,NA,NA,NA,NA,NA,NA,NA,NA
d4824,shallow,flow.Sequence,2_10_0,NA,NA,completion,6290.905,167233.10000014,167232.115,167248.8,173539.705,173540.60000014,2023-05-18T08:54:16Z,173556.374,Respekt,heshima,s,changamnao,upinzani,ufanisi,NA,NA,NA,"c(""distractor1"", ""distractor2"", ""distractor3"")",NA,NA,NA,NA,NA,NA,NA,NA,NA,NA,NA,NA,NA,NA,NA,NA,NA,NA,NA
d4824,task,flow.Sequence,2_10,NA,NA,completion,6290.905,167233,167232.115,167248.8,173539.705,173540.79999995,2023-05-18T08:54:16Z,173556.374,Respekt,heshima,s,changamnao,upinzani,ufanisi,NA,NA,NA,"c(""distractor1"", ""distractor2"", ""distractor3"")",NA,NA,NA,NA,NA,NA,NA,NA,NA,NA,NA,NA,NA,NA,NA,NA,NA,NA,NA
d4824,Shallow Question,html.Page,2_11_0_0,NA,NA,form submission,9382.226000143,173541,173539.705,173556.374,182938.60000014,182938.9000001,2023-05-18T08:54:26Z,182955.282,Papier,karatasi,s,uchambuzi,usalama,kukataliwa,uchambuzi,NA,NA,"c(""distractor1"", ""distractor2"", ""distractor3"")",NA,NA,NA,NA,NA,NA,NA,NA,NA,NA,NA,NA,NA,NA,NA,NA,NA,NA,NA
d4824,Save data screen,canvas.Screen,2_11_0_1,NA,NA,timeout,502.394,182941.60000014,182929.153,182955.282,183441.018,183441.70000005,2023-05-18T08:54:26Z,183457.676,Papier,karatasi,s,uchambuzi,usalama,kukataliwa,NA,NA,0,"c(""distractor1"", ""distractor2"", ""distractor3"")",NA,NA,NA,NA,NA,NA,NA,NA,NA,NA,NA,NA,NA,NA,NA,NA,NA,NA,NA
d4824,shallow,flow.Sequence,2_11_0,NA,NA,completion,9884.644,173540.9000001,173539.705,173556.374,183441.018,183442,2023-05-18T08:54:26Z,183457.676,Papier,karatasi,s,uchambuzi,usalama,kukataliwa,NA,NA,NA,"c(""distractor1"", ""distractor2"", ""distractor3"")",NA,NA,NA,NA,NA,NA,NA,NA,NA,NA,NA,NA,NA,NA,NA,NA,NA,NA,NA
d4824,task,flow.Sequence,2_11,NA,NA,completion,9884.644,173540.9000001,173539.705,173556.374,183441.018,183442.20000005,2023-05-18T08:54:26Z,183457.676,Papier,karatasi,s,uchambuzi,usalama,kukataliwa,NA,NA,NA,"c(""distractor1"", ""distractor2"", ""distractor3"")",NA,NA,NA,NA,NA,NA,NA,NA,NA,NA,NA,NA,NA,NA,NA,NA,NA,NA,NA
d4824,Shallow Question,html.Page,2_12_0_0,NA,NA,form submission,6230.7240000954,183442.4000001,183441.018,183457.676,189688.4000001,189688.70000005,2023-05-18T08:54:32Z,189705.66,Genehmigung,idhini,d,mwanamke,itikadi,fedheha,idhini,NA,NA,"c(""distractor1"", ""distractor2"", ""distractor3"")",NA,NA,NA,NA,NA,NA,NA,NA,NA,NA,NA,NA,NA,NA,NA,NA,NA,NA,NA
d4824,Save data screen,canvas.Screen,2_12_0_1,NA,NA,timeout,501.54300000001,189690.70000005,189674.423,189705.66,190190.59,190191,2023-05-18T08:54:33Z,190207.203,Genehmigung,idhini,d,mwanamke,itikadi,fedheha,NA,NA,1,"c(""distractor1"", ""distractor2"", ""distractor3"")",NA,NA,NA,NA,NA,NA,NA,NA,NA,NA,NA,NA,NA,NA,NA,NA,NA,NA,NA
d4824,shallow,flow.Sequence,2_12_0,NA,NA,completion,6732.914,183442.29999995,183441.018,183457.676,190190.59,190191.20000005,2023-05-18T08:54:33Z,190207.203,Genehmigung,idhini,d,mwanamke,itikadi,fedheha,NA,NA,NA,"c(""distractor1"", ""distractor2"", ""distractor3"")",NA,NA,NA,NA,NA,NA,NA,NA,NA,NA,NA,NA,NA,NA,NA,NA,NA,NA,NA
d4824,task,flow.Sequence,2_12,NA,NA,completion,6732.914,183442.29999995,183441.018,183457.676,190190.59,190191.29999995,2023-05-18T08:54:33Z,190207.203,Genehmigung,idhini,d,mwanamke,itikadi,fedheha,NA,NA,NA,"c(""distractor1"", ""distractor2"", ""distractor3"")",NA,NA,NA,NA,NA,NA,NA,NA,NA,NA,NA,NA,NA,NA,NA,NA,NA,NA,NA
d4824,Shallow Question,html.Page,2_13_0_0,NA,NA,form submission,6881.797,190191.4000001,190190.59,190207.203,197089,197089.4000001,2023-05-18T08:54:40Z,197106.849,Erneuerung,ukarabati,s,ushawishi,ukalifu,unyonyaji,ukarabati,NA,NA,"c(""distractor1"", ""distractor2"", ""distractor3"")",NA,NA,NA,NA,NA,NA,NA,NA,NA,NA,NA,NA,NA,NA,NA,NA,NA,NA,NA
d4824,Save data screen,canvas.Screen,2_13_0_1,NA,NA,timeout,501.89800000002,197092.79999995,197079.833,197106.849,197592.074,197592.70000005,2023-05-18T08:54:40Z,197608.747,Erneuerung,ukarabati,s,ushawishi,ukalifu,unyonyaji,NA,NA,1,"c(""distractor1"", ""distractor2"", ""distractor3"")",NA,NA,NA,NA,NA,NA,NA,NA,NA,NA,NA,NA,NA,NA,NA,NA,NA,NA,NA
d4824,shallow,flow.Sequence,2_13_0,NA,NA,completion,7384.871,190191.4000001,190190.59,190207.203,197592.074,197592.79999995,2023-05-18T08:54:40Z,197608.747,Erneuerung,ukarabati,s,ushawishi,ukalifu,unyonyaji,NA,NA,NA,"c(""distractor1"", ""distractor2"", ""distractor3"")",NA,NA,NA,NA,NA,NA,NA,NA,NA,NA,NA,NA,NA,NA,NA,NA,NA,NA,NA
d4824,task,flow.Sequence,2_13,NA,NA,completion,7384.871,190191.4000001,190190.59,190207.203,197592.074,197592.9000001,2023-05-18T08:54:40Z,197608.747,Erneuerung,ukarabati,s,ushawishi,ukalifu,unyonyaji,NA,NA,NA,"c(""distractor1"", ""distractor2"", ""distractor3"")",NA,NA,NA,NA,NA,NA,NA,NA,NA,NA,NA,NA,NA,NA,NA,NA,NA,NA,NA
d4824,Shallow Question,html.Page,2_14_0_0,NA,NA,form submission,6964.9530000477,197593.10000014,197592.074,197608.747,204573.70000005,204574.10000014,2023-05-18T08:54:47Z,204591.103,Vorwurf,mashtaka,d,msukumo,mtangulizi,uenyekiti,mashtaka,NA,NA,"c(""distractor1"", ""distractor2"", ""distractor3"")",NA,NA,NA,NA,NA,NA,NA,NA,NA,NA,NA,NA,NA,NA,NA,NA,NA,NA,NA
d4824,Save data screen,canvas.Screen,2_14_0_1,NA,NA,timeout,502.35999999999,204577.29999995,204562.168,204591.103,205076.787,205077.20000005,2023-05-18T08:54:48Z,205093.463,Vorwurf,mashtaka,d,msukumo,mtangulizi,uenyekiti,NA,NA,1,"c(""distractor1"", ""distractor2"", ""distractor3"")",NA,NA,NA,NA,NA,NA,NA,NA,NA,NA,NA,NA,NA,NA,NA,NA,NA,NA,NA
d4824,shallow,flow.Sequence,2_14_0,NA,NA,completion,7468.04,197593.10000014,197592.074,197608.747,205076.787,205077.4000001,2023-05-18T08:54:48Z,205093.463,Vorwurf,mashtaka,d,msukumo,mtangulizi,uenyekiti,NA,NA,NA,"c(""distractor1"", ""distractor2"", ""distractor3"")",NA,NA,NA,NA,NA,NA,NA,NA,NA,NA,NA,NA,NA,NA,NA,NA,NA,NA,NA
d4824,task,flow.Sequence,2_14,NA,NA,completion,7468.04,197593,197592.074,197608.747,205076.787,205077.60000014,2023-05-18T08:54:48Z,205093.463,Vorwurf,mashtaka,d,msukumo,mtangulizi,uenyekiti,NA,NA,NA,"c(""distractor1"", ""distractor2"", ""distractor3"")",NA,NA,NA,NA,NA,NA,NA,NA,NA,NA,NA,NA,NA,NA,NA,NA,NA,NA,NA
d4824,Shallow Question,html.Page,2_15_0_0,NA,NA,form submission,5569.7370000477,205077.70000005,205076.787,205093.463,210663.20000005,210663.60000014,2023-05-18T08:54:53Z,210680.76,Orientierung,urekebisho,s,uelekeo,marekebisho,utunzaji,urekebisho,NA,NA,"c(""distractor1"", ""distractor2"", ""distractor3"")",NA,NA,NA,NA,NA,NA,NA,NA,NA,NA,NA,NA,NA,NA,NA,NA,NA,NA,NA
d4824,Save data screen,canvas.Screen,2_15_0_1,NA,NA,timeout,493.69899999999,210667.10000014,210658.261,210680.76,211157.513,211158,2023-05-18T08:54:54Z,211174.459,Orientierung,urekebisho,s,uelekeo,marekebisho,utunzaji,NA,NA,1,"c(""distractor1"", ""distractor2"", ""distractor3"")",NA,NA,NA,NA,NA,NA,NA,NA,NA,NA,NA,NA,NA,NA,NA,NA,NA,NA,NA
d4824,shallow,flow.Sequence,2_15_0,NA,NA,completion,6064.05,205077.70000005,205076.787,205093.463,211157.513,211158.29999995,2023-05-18T08:54:54Z,211174.459,Orientierung,urekebisho,s,uelekeo,marekebisho,utunzaji,NA,NA,NA,"c(""distractor1"", ""distractor2"", ""distractor3"")",NA,NA,NA,NA,NA,NA,NA,NA,NA,NA,NA,NA,NA,NA,NA,NA,NA,NA,NA
d4824,task,flow.Sequence,2_15,NA,NA,completion,6064.05,205077.60000014,205076.787,205093.463,211157.513,211158.29999995,2023-05-18T08:54:54Z,211174.459,Orientierung,urekebisho,s,uelekeo,marekebisho,utunzaji,NA,NA,NA,"c(""distractor1"", ""distractor2"", ""distractor3"")",NA,NA,NA,NA,NA,NA,NA,NA,NA,NA,NA,NA,NA,NA,NA,NA,NA,NA,NA
d4824,retrieval block 2 (multiple choice),flow.Loop,2,NA,NA,completion,123130.299,88011.700000048,88010.577,88027.214,211157.513,211158.5,2023-05-18T08:54:54Z,211174.459,NA,NA,NA,NA,NA,NA,NA,NA,NA,"c(""distractor1"", ""distractor2"", ""distractor3"")",NA,NA,NA,NA,NA,NA,NA,NA,NA,NA,NA,NA,NA,NA,NA,NA,NA,NA,NA
d4824,End,canvas.Screen,3,NA,keypress(Space),response,3212.641000143,211158.60000014,211157.513,211174.459,214387.10000014,214389.60000014,2023-05-18T08:54:57Z,214408.389,NA,NA,NA,NA,NA,NA,NA,NA,NA,NULL,NA,NA,NA,NA,NA,NA,NA,NA,NA,NA,NA,NA,NA,NA,NA,NA,NA,NA,NA
d4824,root,flow.Sequence,NA,NA,NA,completion,210070.61300014,2513.6000001431,4284.074,4316.487,214387.10000014,214390,2023-05-18T08:54:57Z,214408.389,NA,NA,NA,NA,NA,NA,NA,NA,NA,NULL,NA,NA,NA,NA,NA,NA,NA,NA,NA,NA,NA,NA,NA,NA,NA,NA,NA,NA,NA
