observation,sender,sender_type,sender_id,response,response_action,ended_on,duration,time_run,time_render,time_show,time_end,time_commit,timestamp,time_switch,german,swahili,enc,distractor1,distractor2,distractor3,response_2,x,correct,distractors,url_vp,url_sess,meta_labjs_version,meta_location,meta_user_agent,meta_platform,meta_language,meta_locale,meta_time_zone,meta_timezone_offset,meta_screen_width,meta_screen_height,meta_scroll_width,meta_scroll_height,meta_window_inner_width,meta_window_inner_height,meta_device_pixel_ratio,meta_labjs_build_flavor,meta_labjs_build_commit
8f9d3,Introduction delayed retrieval,canvas.Screen,0,weiter,keypress(Space),response,17845.999999952,709.5,710.6,727.3,18573.299999952,18574.599999964,2024-06-02T07:26:50Z,18587.8,NA,NA,NA,NA,NA,NA,NA,NA,NA,NULL,224,4,20.2.4,https://neurocog.fernuni.ch/studies/vweber/aberisha/delayed/index.html?vp=224&sess=4,"Mozilla/5.0 (Windows NT 10.0; Win64; x64) AppleWebKit/537.36 (KHTML, like Gecko) Chrome/125.0.0.0 Safari/537.36 Edg/125.0.0.0",Win32,de,de-CH,Europe/Zurich,-120,2560,1600,2552,1430,2552,1478,1,production,f5b4a49f956347addd546a832a3327688c2c0fef
8f9d3,Deep Question,html.Page,1_0_0_0,NA,NA,form submission,7492.8999999881,18574.899999976,18570.5,18587.8,26080.699999988,26081.5,2024-06-02T07:26:58Z,26082.7,Spionage,upelelezi,d,maslahi,utokazo,magangao,asdf,NA,NA,NULL,NA,NA,NA,NA,NA,NA,NA,NA,NA,NA,NA,NA,NA,NA,NA,NA,NA,NA,NA
8f9d3,Save data screen,canvas.Screen,1_0_0_1,NA,NA,timeout,500.7,26082.399999976,26081.622,26082.7,26566.8,26567.699999988,2024-06-02T07:26:58Z,26583.4,Spionage,upelelezi,d,maslahi,utokazo,magangao,NA,NA,0,NULL,NA,NA,NA,NA,NA,NA,NA,NA,NA,NA,NA,NA,NA,NA,NA,NA,NA,NA,NA
8f9d3,deep,flow.Sequence,1_0_0,NA,NA,completion,7979,18574.899999976,18570.5,18587.8,26566.8,26567.899999976,2024-06-02T07:26:58Z,26583.4,Spionage,upelelezi,d,maslahi,utokazo,magangao,NA,NA,NA,NULL,NA,NA,NA,NA,NA,NA,NA,NA,NA,NA,NA,NA,NA,NA,NA,NA,NA,NA,NA
8f9d3,task,flow.Sequence,1_0,NA,NA,completion,7979,18574.899999976,18570.5,18587.8,26566.8,26568.099999964,2024-06-02T07:26:58Z,26583.4,Spionage,upelelezi,d,maslahi,utokazo,magangao,NA,NA,NA,NULL,NA,NA,NA,NA,NA,NA,NA,NA,NA,NA,NA,NA,NA,NA,NA,NA,NA,NA,NA
8f9d3,Deep Question,html.Page,1_1_0_0,NA,NA,form submission,5362.4999999762,26568.099999964,26566.8,26583.4,31945.899999976,31946.699999988,2024-06-02T07:27:04Z,31958.2,Vermutung,udhanifu,s,haramia,tikisho,itifaki,asdf,NA,NA,NULL,NA,NA,NA,NA,NA,NA,NA,NA,NA,NA,NA,NA,NA,NA,NA,NA,NA,NA,NA
8f9d3,Save data screen,canvas.Screen,1_1_0_1,NA,NA,timeout,500.8,31948,31941.6,31958.2,32442.4,32443.299999952,2024-06-02T07:27:04Z,32459,Vermutung,udhanifu,s,haramia,tikisho,itifaki,NA,NA,0,NULL,NA,NA,NA,NA,NA,NA,NA,NA,NA,NA,NA,NA,NA,NA,NA,NA,NA,NA,NA
8f9d3,deep,flow.Sequence,1_1_0,NA,NA,completion,5859,26568.099999964,26566.8,26583.4,32442.4,32443.5,2024-06-02T07:27:04Z,32459,Vermutung,udhanifu,s,haramia,tikisho,itifaki,NA,NA,NA,NULL,NA,NA,NA,NA,NA,NA,NA,NA,NA,NA,NA,NA,NA,NA,NA,NA,NA,NA,NA
8f9d3,task,flow.Sequence,1_1,NA,NA,completion,5859,26568.099999964,26566.8,26583.4,32442.4,32443.599999964,2024-06-02T07:27:04Z,32459,Vermutung,udhanifu,s,haramia,tikisho,itifaki,NA,NA,NA,NULL,NA,NA,NA,NA,NA,NA,NA,NA,NA,NA,NA,NA,NA,NA,NA,NA,NA,NA,NA
8f9d3,Deep Question,html.Page,1_2_0_0,NA,NA,form submission,6357,32443.799999952,32442.4,32459,38816,38816.5,2024-06-02T07:27:11Z,38819.2,Inhalt,yaliyomo,s,kishawishi,hifadhi,kutembea,mashataksi,NA,NA,NULL,NA,NA,NA,NA,NA,NA,NA,NA,NA,NA,NA,NA,NA,NA,NA,NA,NA,NA,NA
8f9d3,Save data screen,canvas.Screen,1_2_0_1,NA,NA,timeout,500.60000000001,38817.099999964,38817.73,38819.2,39302.8,39304.599999964,2024-06-02T07:27:11Z,39319.8,Inhalt,yaliyomo,s,kishawishi,hifadhi,kutembea,NA,NA,0,NULL,NA,NA,NA,NA,NA,NA,NA,NA,NA,NA,NA,NA,NA,NA,NA,NA,NA,NA,NA
8f9d3,deep,flow.Sequence,1_2_0,NA,NA,completion,6843.8,32443.699999988,32442.4,32459,39302.8,39305.099999964,2024-06-02T07:27:11Z,39319.8,Inhalt,yaliyomo,s,kishawishi,hifadhi,kutembea,NA,NA,NA,NULL,NA,NA,NA,NA,NA,NA,NA,NA,NA,NA,NA,NA,NA,NA,NA,NA,NA,NA,NA
8f9d3,task,flow.Sequence,1_2,NA,NA,completion,6843.8,32443.699999988,32442.4,32459,39302.8,39305.199999988,2024-06-02T07:27:11Z,39319.8,Inhalt,yaliyomo,s,kishawishi,hifadhi,kutembea,NA,NA,NA,NULL,NA,NA,NA,NA,NA,NA,NA,NA,NA,NA,NA,NA,NA,NA,NA,NA,NA,NA,NA
8f9d3,Deep Question,html.Page,1_3_0_0,NA,NA,form submission,3472.7999999642,39305.5,39302.8,39319.8,42792.599999964,42793.199999988,2024-06-02T07:27:15Z,42808.2,Vergnügen,kichekesho,s,dubwana,mpanuko,mtesaji,asdf,NA,NA,NULL,NA,NA,NA,NA,NA,NA,NA,NA,NA,NA,NA,NA,NA,NA,NA,NA,NA,NA,NA
8f9d3,Save data screen,canvas.Screen,1_3_0_1,NA,NA,timeout,500.8,42794.099999964,42791.5,42808.2,43292.3,43293.5,2024-06-02T07:27:15Z,43309,Vergnügen,kichekesho,s,dubwana,mpanuko,mtesaji,NA,NA,0,NULL,NA,NA,NA,NA,NA,NA,NA,NA,NA,NA,NA,NA,NA,NA,NA,NA,NA,NA,NA
8f9d3,deep,flow.Sequence,1_3_0,NA,NA,completion,3972.5,39305.399999976,39302.8,39319.8,43292.3,43293.599999964,2024-06-02T07:27:15Z,43309,Vergnügen,kichekesho,s,dubwana,mpanuko,mtesaji,NA,NA,NA,NULL,NA,NA,NA,NA,NA,NA,NA,NA,NA,NA,NA,NA,NA,NA,NA,NA,NA,NA,NA
8f9d3,task,flow.Sequence,1_3,NA,NA,completion,3972.5,39305.399999976,39302.8,39319.8,43292.3,43293.799999952,2024-06-02T07:27:15Z,43309,Vergnügen,kichekesho,s,dubwana,mpanuko,mtesaji,NA,NA,NA,NULL,NA,NA,NA,NA,NA,NA,NA,NA,NA,NA,NA,NA,NA,NA,NA,NA,NA,NA,NA
8f9d3,Deep Question,html.Page,1_4_0_0,NA,NA,form submission,2520.6999999881,43294,43292.3,43309,45829.699999988,45830.299999952,2024-06-02T07:27:18Z,45846.8,Tester,wanaojaribu,s,sherti,sihiri,mlipuko,asdf,NA,NA,NULL,NA,NA,NA,NA,NA,NA,NA,NA,NA,NA,NA,NA,NA,NA,NA,NA,NA,NA,NA
8f9d3,Save data screen,canvas.Screen,1_4_0_1,NA,NA,timeout,500,45831,45829.33,45846.8,46330.1,46330.899999976,2024-06-02T07:27:18Z,46346.8,Tester,wanaojaribu,s,sherti,sihiri,mlipuko,NA,NA,0,NULL,NA,NA,NA,NA,NA,NA,NA,NA,NA,NA,NA,NA,NA,NA,NA,NA,NA,NA,NA
8f9d3,deep,flow.Sequence,1_4_0,NA,NA,completion,3021.1,43294,43292.3,43309,46330.1,46331,2024-06-02T07:27:18Z,46346.8,Tester,wanaojaribu,s,sherti,sihiri,mlipuko,NA,NA,NA,NULL,NA,NA,NA,NA,NA,NA,NA,NA,NA,NA,NA,NA,NA,NA,NA,NA,NA,NA,NA
8f9d3,task,flow.Sequence,1_4,NA,NA,completion,3021.1,43293.899999976,43292.3,43309,46330.1,46331.199999988,2024-06-02T07:27:18Z,46346.8,Tester,wanaojaribu,s,sherti,sihiri,mlipuko,NA,NA,NA,NULL,NA,NA,NA,NA,NA,NA,NA,NA,NA,NA,NA,NA,NA,NA,NA,NA,NA,NA,NA
8f9d3,Deep Question,html.Page,1_5_0_0,NA,NA,form submission,1771.2,46331.299999952,46330.1,46346.8,48118,48118.599999964,2024-06-02T07:27:20Z,48132.9,Schock,mshtuko,d,biashara,kukataza,vichekesho,asdf,NA,NA,NULL,NA,NA,NA,NA,NA,NA,NA,NA,NA,NA,NA,NA,NA,NA,NA,NA,NA,NA,NA
8f9d3,Save data screen,canvas.Screen,1_5_0_1,NA,NA,timeout,500.8,48119.299999952,48116.2,48132.9,48617.6,48618.799999952,2024-06-02T07:27:21Z,48633.7,Schock,mshtuko,d,biashara,kukataza,vichekesho,NA,NA,0,NULL,NA,NA,NA,NA,NA,NA,NA,NA,NA,NA,NA,NA,NA,NA,NA,NA,NA,NA,NA
8f9d3,deep,flow.Sequence,1_5_0,NA,NA,completion,2270.8,46331.299999952,46330.1,46346.8,48617.6,48619,2024-06-02T07:27:21Z,48633.7,Schock,mshtuko,d,biashara,kukataza,vichekesho,NA,NA,NA,NULL,NA,NA,NA,NA,NA,NA,NA,NA,NA,NA,NA,NA,NA,NA,NA,NA,NA,NA,NA
8f9d3,task,flow.Sequence,1_5,NA,NA,completion,2270.8,46331.199999988,46330.1,46346.8,48617.6,48619.199999988,2024-06-02T07:27:21Z,48633.7,Schock,mshtuko,d,biashara,kukataza,vichekesho,NA,NA,NA,NULL,NA,NA,NA,NA,NA,NA,NA,NA,NA,NA,NA,NA,NA,NA,NA,NA,NA,NA,NA
8f9d3,Deep Question,html.Page,1_6_0_0,NA,NA,form submission,2176.4999999881,48619.299999952,48617.6,48633.7,50810.199999988,50810.899999976,2024-06-02T07:27:23Z,50820.4,Wohlstand,mafanikio,d,chimbuko,kumbuko,mapwaji,asdf,NA,NA,NULL,NA,NA,NA,NA,NA,NA,NA,NA,NA,NA,NA,NA,NA,NA,NA,NA,NA,NA,NA
8f9d3,Save data screen,canvas.Screen,1_6_0_1,NA,NA,timeout,500.8,50811.799999952,50803.93,50820.4,51304.4,51305.199999988,2024-06-02T07:27:23Z,51321.2,Wohlstand,mafanikio,d,chimbuko,kumbuko,mapwaji,NA,NA,0,NULL,NA,NA,NA,NA,NA,NA,NA,NA,NA,NA,NA,NA,NA,NA,NA,NA,NA,NA,NA
8f9d3,deep,flow.Sequence,1_6_0,NA,NA,completion,2670.7,48619.199999988,48617.6,48633.7,51304.4,51305.299999952,2024-06-02T07:27:23Z,51321.2,Wohlstand,mafanikio,d,chimbuko,kumbuko,mapwaji,NA,NA,NA,NULL,NA,NA,NA,NA,NA,NA,NA,NA,NA,NA,NA,NA,NA,NA,NA,NA,NA,NA,NA
8f9d3,task,flow.Sequence,1_6,NA,NA,completion,2670.7,48619.199999988,48617.6,48633.7,51304.4,51305.399999976,2024-06-02T07:27:23Z,51321.2,Wohlstand,mafanikio,d,chimbuko,kumbuko,mapwaji,NA,NA,NA,NULL,NA,NA,NA,NA,NA,NA,NA,NA,NA,NA,NA,NA,NA,NA,NA,NA,NA,NA,NA
8f9d3,Deep Question,html.Page,1_7_0_0,NA,NA,form submission,2280.1999999762,51305.5,51304.4,51321.2,53601.399999976,53602,2024-06-02T07:27:26Z,53608,Schüler,mwanafunzi,s,mwekezaji,matumizi,uaminifu,asdf,NA,NA,NULL,NA,NA,NA,NA,NA,NA,NA,NA,NA,NA,NA,NA,NA,NA,NA,NA,NA,NA,NA
8f9d3,Save data screen,canvas.Screen,1_7_0_1,NA,NA,timeout,500.7,53603,53607.83,53608,54092.1,54092.899999976,2024-06-02T07:27:26Z,54108.7,Schüler,mwanafunzi,s,mwekezaji,matumizi,uaminifu,NA,NA,0,NULL,NA,NA,NA,NA,NA,NA,NA,NA,NA,NA,NA,NA,NA,NA,NA,NA,NA,NA,NA
8f9d3,deep,flow.Sequence,1_7_0,NA,NA,completion,2770.9,51305.5,51304.4,51321.2,54092.1,54093,2024-06-02T07:27:26Z,54108.7,Schüler,mwanafunzi,s,mwekezaji,matumizi,uaminifu,NA,NA,NA,NULL,NA,NA,NA,NA,NA,NA,NA,NA,NA,NA,NA,NA,NA,NA,NA,NA,NA,NA,NA
8f9d3,task,flow.Sequence,1_7,NA,NA,completion,2770.9,51305.399999976,51304.4,51321.2,54092.1,54093.199999988,2024-06-02T07:27:26Z,54108.7,Schüler,mwanafunzi,s,mwekezaji,matumizi,uaminifu,NA,NA,NA,NULL,NA,NA,NA,NA,NA,NA,NA,NA,NA,NA,NA,NA,NA,NA,NA,NA,NA,NA,NA
8f9d3,Deep Question,html.Page,1_8_0_0,NA,NA,form submission,2079.1999999762,54093.299999952,54092.1,54108.7,56187.899999976,56188.399999976,2024-06-02T07:27:28Z,56195.4,Notfall,dharura,s,rairai,malalamiko,ahueni,asdf,NA,NA,NULL,NA,NA,NA,NA,NA,NA,NA,NA,NA,NA,NA,NA,NA,NA,NA,NA,NA,NA,NA
8f9d3,Save data screen,canvas.Screen,1_8_0_1,NA,NA,timeout,500.5,56189.199999988,56178.894,56195.4,56679.3,56680.899999976,2024-06-02T07:27:29Z,56695.9,Notfall,dharura,s,rairai,malalamiko,ahueni,NA,NA,0,NULL,NA,NA,NA,NA,NA,NA,NA,NA,NA,NA,NA,NA,NA,NA,NA,NA,NA,NA,NA
8f9d3,deep,flow.Sequence,1_8_0,NA,NA,completion,2570.6,54093.299999952,54092.1,54108.7,56679.3,56681.099999964,2024-06-02T07:27:29Z,56695.9,Notfall,dharura,s,rairai,malalamiko,ahueni,NA,NA,NA,NULL,NA,NA,NA,NA,NA,NA,NA,NA,NA,NA,NA,NA,NA,NA,NA,NA,NA,NA,NA
8f9d3,task,flow.Sequence,1_8,NA,NA,completion,2570.6,54093.299999952,54092.1,54108.7,56679.3,56681.199999988,2024-06-02T07:27:29Z,56695.9,Notfall,dharura,s,rairai,malalamiko,ahueni,NA,NA,NA,NULL,NA,NA,NA,NA,NA,NA,NA,NA,NA,NA,NA,NA,NA,NA,NA,NA,NA,NA,NA
8f9d3,Deep Question,html.Page,1_9_0_0,NA,NA,form submission,4190.6999999642,56681.299999952,56679.3,56695.9,60886.599999964,60887.199999988,2024-06-02T07:27:33Z,60902.3,Schlange,foleni,d,uvumilivu,uteuzi,muuzaji,foleni,NA,NA,NULL,NA,NA,NA,NA,NA,NA,NA,NA,NA,NA,NA,NA,NA,NA,NA,NA,NA,NA,NA
8f9d3,Save data screen,canvas.Screen,1_9_0_1,NA,NA,timeout,500.89999999999,60888,60885.2,60902.3,61387,61388.199999988,2024-06-02T07:27:33Z,61403.2,Schlange,foleni,d,uvumilivu,uteuzi,muuzaji,NA,NA,1,NULL,NA,NA,NA,NA,NA,NA,NA,NA,NA,NA,NA,NA,NA,NA,NA,NA,NA,NA,NA
8f9d3,deep,flow.Sequence,1_9_0,NA,NA,completion,4691.1,56681.299999952,56679.3,56695.9,61387,61388.399999976,2024-06-02T07:27:33Z,61403.2,Schlange,foleni,d,uvumilivu,uteuzi,muuzaji,NA,NA,NA,NULL,NA,NA,NA,NA,NA,NA,NA,NA,NA,NA,NA,NA,NA,NA,NA,NA,NA,NA,NA
8f9d3,task,flow.Sequence,1_9,NA,NA,completion,4691.1,56681.299999952,56679.3,56695.9,61387,61388.5,2024-06-02T07:27:33Z,61403.2,Schlange,foleni,d,uvumilivu,uteuzi,muuzaji,NA,NA,NA,NULL,NA,NA,NA,NA,NA,NA,NA,NA,NA,NA,NA,NA,NA,NA,NA,NA,NA,NA,NA
8f9d3,Deep Question,html.Page,1_10_0_0,NA,NA,form submission,3312.6999999762,61388.599999964,61387,61403.2,64715.899999976,64716.599999964,2024-06-02T07:27:37Z,64724.9,Toleranz,kuvumiliana,d,maombolezo,ujasusi,mchekeshaji,asdf,NA,NA,NULL,NA,NA,NA,NA,NA,NA,NA,NA,NA,NA,NA,NA,NA,NA,NA,NA,NA,NA,NA
8f9d3,Save data screen,canvas.Screen,1_10_0_1,NA,NA,timeout,500.8,64718.399999976,64708.2,64724.9,65209.1,65209.899999976,2024-06-02T07:27:37Z,65225.7,Toleranz,kuvumiliana,d,maombolezo,ujasusi,mchekeshaji,NA,NA,0,NULL,NA,NA,NA,NA,NA,NA,NA,NA,NA,NA,NA,NA,NA,NA,NA,NA,NA,NA,NA
8f9d3,deep,flow.Sequence,1_10_0,NA,NA,completion,3805.9,61388.5,61387,61403.2,65209.1,65210.099999964,2024-06-02T07:27:37Z,65225.7,Toleranz,kuvumiliana,d,maombolezo,ujasusi,mchekeshaji,NA,NA,NA,NULL,NA,NA,NA,NA,NA,NA,NA,NA,NA,NA,NA,NA,NA,NA,NA,NA,NA,NA,NA
8f9d3,task,flow.Sequence,1_10,NA,NA,completion,3805.9,61388.5,61387,61403.2,65209.1,65210.099999964,2024-06-02T07:27:37Z,65225.7,Toleranz,kuvumiliana,d,maombolezo,ujasusi,mchekeshaji,NA,NA,NA,NULL,NA,NA,NA,NA,NA,NA,NA,NA,NA,NA,NA,NA,NA,NA,NA,NA,NA,NA,NA
8f9d3,Deep Question,html.Page,1_11_0_0,NA,NA,form submission,2362.4999999881,65210.199999988,65209.1,65225.7,67588.199999988,67589,2024-06-02T07:27:40Z,67596.1,Theorie,nadharia,d,ushungi,mkutano,uwakilishi,asdf,NA,NA,NULL,NA,NA,NA,NA,NA,NA,NA,NA,NA,NA,NA,NA,NA,NA,NA,NA,NA,NA,NA
8f9d3,Save data screen,canvas.Screen,1_11_0_1,NA,NA,timeout,501.09999999999,67590,67596.062,67596.1,68080.2,68081.299999952,2024-06-02T07:27:40Z,68097.2,Theorie,nadharia,d,ushungi,mkutano,uwakilishi,NA,NA,0,NULL,NA,NA,NA,NA,NA,NA,NA,NA,NA,NA,NA,NA,NA,NA,NA,NA,NA,NA,NA
8f9d3,deep,flow.Sequence,1_11_0,NA,NA,completion,2854.5,65210.199999988,65209.1,65225.7,68080.2,68081.399999976,2024-06-02T07:27:40Z,68097.2,Theorie,nadharia,d,ushungi,mkutano,uwakilishi,NA,NA,NA,NULL,NA,NA,NA,NA,NA,NA,NA,NA,NA,NA,NA,NA,NA,NA,NA,NA,NA,NA,NA
8f9d3,task,flow.Sequence,1_11,NA,NA,completion,2854.5,65210.199999988,65209.1,65225.7,68080.2,68081.5,2024-06-02T07:27:40Z,68097.2,Theorie,nadharia,d,ushungi,mkutano,uwakilishi,NA,NA,NA,NULL,NA,NA,NA,NA,NA,NA,NA,NA,NA,NA,NA,NA,NA,NA,NA,NA,NA,NA,NA
8f9d3,Deep Question,html.Page,1_12_0_0,NA,NA,form submission,2384.8,68081.599999964,68080.2,68097.2,70482,70482.599999964,2024-06-02T07:27:42Z,70483.7,Ergänzung,kijalizo,d,ulaghai,mustarehe,matangazo,asdf,NA,NA,NULL,NA,NA,NA,NA,NA,NA,NA,NA,NA,NA,NA,NA,NA,NA,NA,NA,NA,NA,NA
8f9d3,Save data screen,canvas.Screen,1_12_0_1,NA,NA,timeout,500.90000000001,70484.599999964,70483.696,70483.7,70968.1,70969.299999952,2024-06-02T07:27:43Z,70984.6,Ergänzung,kijalizo,d,ulaghai,mustarehe,matangazo,NA,NA,0,NULL,NA,NA,NA,NA,NA,NA,NA,NA,NA,NA,NA,NA,NA,NA,NA,NA,NA,NA,NA
8f9d3,deep,flow.Sequence,1_12_0,NA,NA,completion,2870.9,68081.599999964,68080.2,68097.2,70968.1,70969.5,2024-06-02T07:27:43Z,70984.6,Ergänzung,kijalizo,d,ulaghai,mustarehe,matangazo,NA,NA,NA,NULL,NA,NA,NA,NA,NA,NA,NA,NA,NA,NA,NA,NA,NA,NA,NA,NA,NA,NA,NA
8f9d3,task,flow.Sequence,1_12,NA,NA,completion,2870.9,68081.5,68080.2,68097.2,70968.1,70969.5,2024-06-02T07:27:43Z,70984.6,Ergänzung,kijalizo,d,ulaghai,mustarehe,matangazo,NA,NA,NA,NULL,NA,NA,NA,NA,NA,NA,NA,NA,NA,NA,NA,NA,NA,NA,NA,NA,NA,NA,NA
8f9d3,Deep Question,html.Page,1_13_0_0,NA,NA,form submission,2107.4999999642,70969.699999988,70968.1,70984.6,73092.099999964,73092.5,2024-06-02T07:27:45Z,73104.4,Fenster,dirisha,d,walakini,tasawari,maarifa,asdf,NA,NA,NULL,NA,NA,NA,NA,NA,NA,NA,NA,NA,NA,NA,NA,NA,NA,NA,NA,NA,NA,NA
8f9d3,Save data screen,canvas.Screen,1_13_0_1,NA,NA,timeout,500.70000000001,73093.299999952,73087.63,73104.4,73588.5,73589.599999964,2024-06-02T07:27:46Z,73605.1,Fenster,dirisha,d,walakini,tasawari,maarifa,NA,NA,0,NULL,NA,NA,NA,NA,NA,NA,NA,NA,NA,NA,NA,NA,NA,NA,NA,NA,NA,NA,NA
8f9d3,deep,flow.Sequence,1_13_0,NA,NA,completion,2603.9,70969.599999964,70968.1,70984.6,73588.5,73590,2024-06-02T07:27:46Z,73605.1,Fenster,dirisha,d,walakini,tasawari,maarifa,NA,NA,NA,NULL,NA,NA,NA,NA,NA,NA,NA,NA,NA,NA,NA,NA,NA,NA,NA,NA,NA,NA,NA
8f9d3,task,flow.Sequence,1_13,NA,NA,completion,2603.9,70969.599999964,70968.1,70984.6,73588.5,73590.099999964,2024-06-02T07:27:46Z,73605.1,Fenster,dirisha,d,walakini,tasawari,maarifa,NA,NA,NA,NULL,NA,NA,NA,NA,NA,NA,NA,NA,NA,NA,NA,NA,NA,NA,NA,NA,NA,NA,NA
8f9d3,Deep Question,html.Page,1_14_0_0,NA,NA,form submission,2187.9,73590.299999952,73588.5,73605.1,75793,75793.599999964,2024-06-02T07:27:48Z,75808.6,Hoffnung,matarajio,s,kutaalamika,uratibu,mvumbuzi,asdf,NA,NA,NULL,NA,NA,NA,NA,NA,NA,NA,NA,NA,NA,NA,NA,NA,NA,NA,NA,NA,NA,NA
8f9d3,Save data screen,canvas.Screen,1_14_0_1,NA,NA,timeout,500.79999999999,75794.399999976,75792.662,75808.6,76292.7,76293.299999952,2024-06-02T07:27:48Z,76309.4,Hoffnung,matarajio,s,kutaalamika,uratibu,mvumbuzi,NA,NA,0,NULL,NA,NA,NA,NA,NA,NA,NA,NA,NA,NA,NA,NA,NA,NA,NA,NA,NA,NA,NA
8f9d3,deep,flow.Sequence,1_14_0,NA,NA,completion,2687.6,73590.199999988,73588.5,73605.1,76292.7,76293.5,2024-06-02T07:27:48Z,76309.4,Hoffnung,matarajio,s,kutaalamika,uratibu,mvumbuzi,NA,NA,NA,NULL,NA,NA,NA,NA,NA,NA,NA,NA,NA,NA,NA,NA,NA,NA,NA,NA,NA,NA,NA
8f9d3,task,flow.Sequence,1_14,NA,NA,completion,2687.6,73590.199999988,73588.5,73605.1,76292.7,76293.5,2024-06-02T07:27:48Z,76309.4,Hoffnung,matarajio,s,kutaalamika,uratibu,mvumbuzi,NA,NA,NA,NULL,NA,NA,NA,NA,NA,NA,NA,NA,NA,NA,NA,NA,NA,NA,NA,NA,NA,NA,NA
8f9d3,Deep Question,html.Page,1_15_0_0,NA,NA,form submission,1854.2999999881,76293.599999964,76292.7,76309.4,78163.699999988,78164.199999988,2024-06-02T07:27:50Z,78178.8,Verpackung,ufungaji,s,uhusiano,upimaji,uchunguzi,asdf,NA,NA,NULL,NA,NA,NA,NA,NA,NA,NA,NA,NA,NA,NA,NA,NA,NA,NA,NA,NA,NA,NA
8f9d3,Save data screen,canvas.Screen,1_15_0_1,NA,NA,timeout,500.8,78164.799999952,78162.2,78178.8,78662.8,78663.599999964,2024-06-02T07:27:51Z,78679.6,Verpackung,ufungaji,s,uhusiano,upimaji,uchunguzi,NA,NA,0,NULL,NA,NA,NA,NA,NA,NA,NA,NA,NA,NA,NA,NA,NA,NA,NA,NA,NA,NA,NA
8f9d3,deep,flow.Sequence,1_15_0,NA,NA,completion,2353.4,76293.599999964,76292.7,76309.4,78662.8,78663.799999952,2024-06-02T07:27:51Z,78679.6,Verpackung,ufungaji,s,uhusiano,upimaji,uchunguzi,NA,NA,NA,NULL,NA,NA,NA,NA,NA,NA,NA,NA,NA,NA,NA,NA,NA,NA,NA,NA,NA,NA,NA
8f9d3,task,flow.Sequence,1_15,NA,NA,completion,2353.4,76293.599999964,76292.7,76309.4,78662.8,78663.899999976,2024-06-02T07:27:51Z,78679.6,Verpackung,ufungaji,s,uhusiano,upimaji,uchunguzi,NA,NA,NA,NULL,NA,NA,NA,NA,NA,NA,NA,NA,NA,NA,NA,NA,NA,NA,NA,NA,NA,NA,NA
8f9d3,retrieval block 1 (cued recall),flow.Loop,1,NA,NA,completion,60075,18574.799999952,18570.5,18587.8,78662.8,78664.099999964,2024-06-02T07:27:51Z,78679.6,NA,NA,NA,NA,NA,NA,NA,NA,NA,NULL,NA,NA,NA,NA,NA,NA,NA,NA,NA,NA,NA,NA,NA,NA,NA,NA,NA,NA,NA
8f9d3,Shallow Question,html.Page,2_0_0_0,NA,NA,form submission,6736.9999999642,78664.099999964,78662.8,78679.6,85416.599999964,85417.199999988,2024-06-02T07:27:57Z,85423.3,Theorie,nadharia,d,ushungi,mkutano,uwakilishi,ushungi,NA,NA,"c(""distractor1"", ""distractor2"", ""distractor3"")",NA,NA,NA,NA,NA,NA,NA,NA,NA,NA,NA,NA,NA,NA,NA,NA,NA,NA,NA
8f9d3,Save data screen,canvas.Screen,2_0_0_1,NA,NA,timeout,500.59999999999,85419.299999952,85407.1,85423.3,85907.3,85908.799999952,2024-06-02T07:27:58Z,85923.9,Theorie,nadharia,d,ushungi,mkutano,uwakilishi,NA,NA,0,"c(""distractor1"", ""distractor2"", ""distractor3"")",NA,NA,NA,NA,NA,NA,NA,NA,NA,NA,NA,NA,NA,NA,NA,NA,NA,NA,NA
8f9d3,shallow,flow.Sequence,2_0_0,NA,NA,completion,7227.7,78664.099999964,78662.8,78679.6,85907.3,85909,2024-06-02T07:27:58Z,85923.9,Theorie,nadharia,d,ushungi,mkutano,uwakilishi,NA,NA,NA,"c(""distractor1"", ""distractor2"", ""distractor3"")",NA,NA,NA,NA,NA,NA,NA,NA,NA,NA,NA,NA,NA,NA,NA,NA,NA,NA,NA
8f9d3,task,flow.Sequence,2_0,NA,NA,completion,7227.7,78664.099999964,78662.8,78679.6,85907.3,85909.199999988,2024-06-02T07:27:58Z,85923.9,Theorie,nadharia,d,ushungi,mkutano,uwakilishi,NA,NA,NA,"c(""distractor1"", ""distractor2"", ""distractor3"")",NA,NA,NA,NA,NA,NA,NA,NA,NA,NA,NA,NA,NA,NA,NA,NA,NA,NA,NA
8f9d3,Shallow Question,html.Page,2_1_0_0,NA,NA,form submission,5575.2999999881,85909.299999952,85907.3,85923.9,91499.199999988,91499.699999988,2024-06-02T07:28:03Z,91519.7,Schüler,mwanafunzi,s,mwekezaji,matumizi,uaminifu,mwanafunzi,NA,NA,"c(""distractor1"", ""distractor2"", ""distractor3"")",NA,NA,NA,NA,NA,NA,NA,NA,NA,NA,NA,NA,NA,NA,NA,NA,NA,NA,NA
8f9d3,Save data screen,canvas.Screen,2_1_0_1,NA,NA,timeout,496.90000000001,91501.399999976,91498.72,91519.7,92000,92000.699999988,2024-06-02T07:28:04Z,92016.6,Schüler,mwanafunzi,s,mwekezaji,matumizi,uaminifu,NA,NA,1,"c(""distractor1"", ""distractor2"", ""distractor3"")",NA,NA,NA,NA,NA,NA,NA,NA,NA,NA,NA,NA,NA,NA,NA,NA,NA,NA,NA
8f9d3,shallow,flow.Sequence,2_1_0,NA,NA,completion,6076.1,85909.299999952,85907.3,85923.9,92000,92000.899999976,2024-06-02T07:28:04Z,92016.6,Schüler,mwanafunzi,s,mwekezaji,matumizi,uaminifu,NA,NA,NA,"c(""distractor1"", ""distractor2"", ""distractor3"")",NA,NA,NA,NA,NA,NA,NA,NA,NA,NA,NA,NA,NA,NA,NA,NA,NA,NA,NA
8f9d3,task,flow.Sequence,2_1,NA,NA,completion,6076.1,85909.199999988,85907.3,85923.9,92000,92001,2024-06-02T07:28:04Z,92016.6,Schüler,mwanafunzi,s,mwekezaji,matumizi,uaminifu,NA,NA,NA,"c(""distractor1"", ""distractor2"", ""distractor3"")",NA,NA,NA,NA,NA,NA,NA,NA,NA,NA,NA,NA,NA,NA,NA,NA,NA,NA,NA
8f9d3,Shallow Question,html.Page,2_2_0_0,NA,NA,form submission,6899.1999999523,92001,92000,92016.6,98915.799999952,98916.299999952,2024-06-02T07:28:11Z,98927.1,Inhalt,yaliyomo,s,kishawishi,hifadhi,kutembea,kishawishi,NA,NA,"c(""distractor1"", ""distractor2"", ""distractor3"")",NA,NA,NA,NA,NA,NA,NA,NA,NA,NA,NA,NA,NA,NA,NA,NA,NA,NA,NA
8f9d3,Save data screen,canvas.Screen,2_2_0_1,NA,NA,timeout,500.79999999999,98918.299999952,98910.4,98927.1,99411.3,99412.5,2024-06-02T07:28:11Z,99427.9,Inhalt,yaliyomo,s,kishawishi,hifadhi,kutembea,NA,NA,0,"c(""distractor1"", ""distractor2"", ""distractor3"")",NA,NA,NA,NA,NA,NA,NA,NA,NA,NA,NA,NA,NA,NA,NA,NA,NA,NA,NA
8f9d3,shallow,flow.Sequence,2_2_0,NA,NA,completion,7394.7,92001,92000,92016.6,99411.3,99412.699999988,2024-06-02T07:28:11Z,99427.9,Inhalt,yaliyomo,s,kishawishi,hifadhi,kutembea,NA,NA,NA,"c(""distractor1"", ""distractor2"", ""distractor3"")",NA,NA,NA,NA,NA,NA,NA,NA,NA,NA,NA,NA,NA,NA,NA,NA,NA,NA,NA
8f9d3,task,flow.Sequence,2_2,NA,NA,completion,7394.7,92001,92000,92016.6,99411.3,99412.899999976,2024-06-02T07:28:11Z,99427.9,Inhalt,yaliyomo,s,kishawishi,hifadhi,kutembea,NA,NA,NA,"c(""distractor1"", ""distractor2"", ""distractor3"")",NA,NA,NA,NA,NA,NA,NA,NA,NA,NA,NA,NA,NA,NA,NA,NA,NA,NA,NA
8f9d3,Shallow Question,html.Page,2_3_0_0,NA,NA,form submission,8211.9999999762,99412.899999976,99411.3,99427.9,107639.89999998,107640.59999996,2024-06-02T07:28:20Z,107657.8,Hoffnung,matarajio,s,kutaalamika,uratibu,mvumbuzi,matarajio,NA,NA,"c(""distractor1"", ""distractor2"", ""distractor3"")",NA,NA,NA,NA,NA,NA,NA,NA,NA,NA,NA,NA,NA,NA,NA,NA,NA,NA,NA
8f9d3,Save data screen,canvas.Screen,2_3_0_1,NA,NA,timeout,500.2,107642.89999998,107640.692,107657.8,108141.2,108141.89999998,2024-06-02T07:28:20Z,108158,Hoffnung,matarajio,s,kutaalamika,uratibu,mvumbuzi,NA,NA,1,"c(""distractor1"", ""distractor2"", ""distractor3"")",NA,NA,NA,NA,NA,NA,NA,NA,NA,NA,NA,NA,NA,NA,NA,NA,NA,NA,NA
8f9d3,shallow,flow.Sequence,2_3_0,NA,NA,completion,8713.3,99412.899999976,99411.3,99427.9,108141.2,108142.09999996,2024-06-02T07:28:20Z,108158,Hoffnung,matarajio,s,kutaalamika,uratibu,mvumbuzi,NA,NA,NA,"c(""distractor1"", ""distractor2"", ""distractor3"")",NA,NA,NA,NA,NA,NA,NA,NA,NA,NA,NA,NA,NA,NA,NA,NA,NA,NA,NA
8f9d3,task,flow.Sequence,2_3,NA,NA,completion,8713.3,99412.899999976,99411.3,99427.9,108141.2,108142.19999999,2024-06-02T07:28:20Z,108158,Hoffnung,matarajio,s,kutaalamika,uratibu,mvumbuzi,NA,NA,NA,"c(""distractor1"", ""distractor2"", ""distractor3"")",NA,NA,NA,NA,NA,NA,NA,NA,NA,NA,NA,NA,NA,NA,NA,NA,NA,NA,NA
8f9d3,Shallow Question,html.Page,2_4_0_0,NA,NA,form submission,12298.699999988,108142.29999995,108141.2,108158,120456.69999999,120457.29999995,2024-06-02T07:28:32Z,120460.1,Wohlstand,mafanikio,d,chimbuko,kumbuko,mapwaji,mafanikio,NA,NA,"c(""distractor1"", ""distractor2"", ""distractor3"")",NA,NA,NA,NA,NA,NA,NA,NA,NA,NA,NA,NA,NA,NA,NA,NA,NA,NA,NA
8f9d3,Save data screen,canvas.Screen,2_4_0_1,NA,NA,timeout,500.7,120459.29999995,120460.062,120460.1,120944,120954.5,2024-06-02T07:28:33Z,120960.8,Wohlstand,mafanikio,d,chimbuko,kumbuko,mapwaji,NA,NA,1,"c(""distractor1"", ""distractor2"", ""distractor3"")",NA,NA,NA,NA,NA,NA,NA,NA,NA,NA,NA,NA,NA,NA,NA,NA,NA,NA,NA
8f9d3,shallow,flow.Sequence,2_4_0,NA,NA,completion,12786,108142.29999995,108141.2,108158,120944,120954.89999998,2024-06-02T07:28:33Z,120960.8,Wohlstand,mafanikio,d,chimbuko,kumbuko,mapwaji,NA,NA,NA,"c(""distractor1"", ""distractor2"", ""distractor3"")",NA,NA,NA,NA,NA,NA,NA,NA,NA,NA,NA,NA,NA,NA,NA,NA,NA,NA,NA
8f9d3,task,flow.Sequence,2_4,NA,NA,completion,12786,108142.19999999,108141.2,108158,120944,120955.09999996,2024-06-02T07:28:33Z,120960.8,Wohlstand,mafanikio,d,chimbuko,kumbuko,mapwaji,NA,NA,NA,"c(""distractor1"", ""distractor2"", ""distractor3"")",NA,NA,NA,NA,NA,NA,NA,NA,NA,NA,NA,NA,NA,NA,NA,NA,NA,NA,NA
8f9d3,Shallow Question,html.Page,2_5_0_0,NA,NA,form submission,5983.9999999523,120955.29999995,120944,120960.8,126944.79999995,126945.39999998,2024-06-02T07:28:39Z,126953.3,Verpackung,ufungaji,s,uhusiano,upimaji,uchunguzi,uchunguzi,NA,NA,"c(""distractor1"", ""distractor2"", ""distractor3"")",NA,NA,NA,NA,NA,NA,NA,NA,NA,NA,NA,NA,NA,NA,NA,NA,NA,NA,NA
8f9d3,Save data screen,canvas.Screen,2_5_0_1,NA,NA,timeout,500.7,126947.29999995,126953.196,126953.3,127437.4,127439.09999996,2024-06-02T07:28:39Z,127454,Verpackung,ufungaji,s,uhusiano,upimaji,uchunguzi,NA,NA,0,"c(""distractor1"", ""distractor2"", ""distractor3"")",NA,NA,NA,NA,NA,NA,NA,NA,NA,NA,NA,NA,NA,NA,NA,NA,NA,NA,NA
8f9d3,shallow,flow.Sequence,2_5_0,NA,NA,completion,6476.6,120955.19999999,120944,120960.8,127437.4,127439.29999995,2024-06-02T07:28:39Z,127454,Verpackung,ufungaji,s,uhusiano,upimaji,uchunguzi,NA,NA,NA,"c(""distractor1"", ""distractor2"", ""distractor3"")",NA,NA,NA,NA,NA,NA,NA,NA,NA,NA,NA,NA,NA,NA,NA,NA,NA,NA,NA
8f9d3,task,flow.Sequence,2_5,NA,NA,completion,6476.6,120955.19999999,120944,120960.8,127437.4,127439.39999998,2024-06-02T07:28:39Z,127454,Verpackung,ufungaji,s,uhusiano,upimaji,uchunguzi,NA,NA,NA,"c(""distractor1"", ""distractor2"", ""distractor3"")",NA,NA,NA,NA,NA,NA,NA,NA,NA,NA,NA,NA,NA,NA,NA,NA,NA,NA,NA
8f9d3,Shallow Question,html.Page,2_6_0_0,NA,NA,form submission,5078.5,127439.5,127437.4,127454,132532.5,132533,2024-06-02T07:28:44Z,132545.1,Tester,wanaojaribu,s,sherti,sihiri,mlipuko,sihiri,NA,NA,"c(""distractor1"", ""distractor2"", ""distractor3"")",NA,NA,NA,NA,NA,NA,NA,NA,NA,NA,NA,NA,NA,NA,NA,NA,NA,NA,NA
8f9d3,Save data screen,canvas.Screen,2_6_0_1,NA,NA,timeout,500.79999999999,132535.09999996,132529,132545.1,133029.6,133030.89999998,2024-06-02T07:28:45Z,133045.9,Tester,wanaojaribu,s,sherti,sihiri,mlipuko,NA,NA,0,"c(""distractor1"", ""distractor2"", ""distractor3"")",NA,NA,NA,NA,NA,NA,NA,NA,NA,NA,NA,NA,NA,NA,NA,NA,NA,NA,NA
8f9d3,shallow,flow.Sequence,2_6_0,NA,NA,completion,5575.6,127439.5,127437.4,127454,133029.6,133031.19999999,2024-06-02T07:28:45Z,133045.9,Tester,wanaojaribu,s,sherti,sihiri,mlipuko,NA,NA,NA,"c(""distractor1"", ""distractor2"", ""distractor3"")",NA,NA,NA,NA,NA,NA,NA,NA,NA,NA,NA,NA,NA,NA,NA,NA,NA,NA,NA
8f9d3,task,flow.Sequence,2_6,NA,NA,completion,5575.6,127439.5,127437.4,127454,133029.6,133031.19999999,2024-06-02T07:28:45Z,133045.9,Tester,wanaojaribu,s,sherti,sihiri,mlipuko,NA,NA,NA,"c(""distractor1"", ""distractor2"", ""distractor3"")",NA,NA,NA,NA,NA,NA,NA,NA,NA,NA,NA,NA,NA,NA,NA,NA,NA,NA,NA
8f9d3,Shallow Question,html.Page,2_7_0_0,NA,NA,form submission,5583.1,133031.29999995,133029.6,133045.9,138629,138629.59999996,2024-06-02T07:28:51Z,138637.9,Vermutung,udhanifu,s,haramia,tikisho,itifaki,tikisho,NA,NA,"c(""distractor1"", ""distractor2"", ""distractor3"")",NA,NA,NA,NA,NA,NA,NA,NA,NA,NA,NA,NA,NA,NA,NA,NA,NA,NA,NA
8f9d3,Save data screen,canvas.Screen,2_7_0_1,NA,NA,timeout,500.70000000001,138634.39999998,138637.492,138637.9,139121.8,139122.5,2024-06-02T07:28:51Z,139138.6,Vermutung,udhanifu,s,haramia,tikisho,itifaki,NA,NA,0,"c(""distractor1"", ""distractor2"", ""distractor3"")",NA,NA,NA,NA,NA,NA,NA,NA,NA,NA,NA,NA,NA,NA,NA,NA,NA,NA,NA
8f9d3,shallow,flow.Sequence,2_7_0,NA,NA,completion,6075.9,133031.19999999,133029.6,133045.9,139121.8,139122.69999999,2024-06-02T07:28:51Z,139138.6,Vermutung,udhanifu,s,haramia,tikisho,itifaki,NA,NA,NA,"c(""distractor1"", ""distractor2"", ""distractor3"")",NA,NA,NA,NA,NA,NA,NA,NA,NA,NA,NA,NA,NA,NA,NA,NA,NA,NA,NA
8f9d3,task,flow.Sequence,2_7,NA,NA,completion,6075.9,133031.19999999,133029.6,133045.9,139121.8,139122.69999999,2024-06-02T07:28:51Z,139138.6,Vermutung,udhanifu,s,haramia,tikisho,itifaki,NA,NA,NA,"c(""distractor1"", ""distractor2"", ""distractor3"")",NA,NA,NA,NA,NA,NA,NA,NA,NA,NA,NA,NA,NA,NA,NA,NA,NA,NA,NA
8f9d3,Shallow Question,html.Page,2_8_0_0,NA,NA,form submission,7883.7999999762,139122.79999995,139121.8,139138.6,147022.39999998,147023,2024-06-02T07:28:59Z,147034.6,Ergänzung,kijalizo,d,ulaghai,mustarehe,matangazo,kijalizo,NA,NA,"c(""distractor1"", ""distractor2"", ""distractor3"")",NA,NA,NA,NA,NA,NA,NA,NA,NA,NA,NA,NA,NA,NA,NA,NA,NA,NA,NA
8f9d3,Save data screen,canvas.Screen,2_8_0_1,NA,NA,timeout,500.10000000001,147025.09999996,147017.46,147034.6,147518,147518.5,2024-06-02T07:28:59Z,147534.7,Ergänzung,kijalizo,d,ulaghai,mustarehe,matangazo,NA,NA,1,"c(""distractor1"", ""distractor2"", ""distractor3"")",NA,NA,NA,NA,NA,NA,NA,NA,NA,NA,NA,NA,NA,NA,NA,NA,NA,NA,NA
8f9d3,shallow,flow.Sequence,2_8_0,NA,NA,completion,8379.4,139122.79999995,139121.8,139138.6,147518,147518.69999999,2024-06-02T07:28:59Z,147534.7,Ergänzung,kijalizo,d,ulaghai,mustarehe,matangazo,NA,NA,NA,"c(""distractor1"", ""distractor2"", ""distractor3"")",NA,NA,NA,NA,NA,NA,NA,NA,NA,NA,NA,NA,NA,NA,NA,NA,NA,NA,NA
8f9d3,task,flow.Sequence,2_8,NA,NA,completion,8379.4,139122.79999995,139121.8,139138.6,147518,147518.79999995,2024-06-02T07:28:59Z,147534.7,Ergänzung,kijalizo,d,ulaghai,mustarehe,matangazo,NA,NA,NA,"c(""distractor1"", ""distractor2"", ""distractor3"")",NA,NA,NA,NA,NA,NA,NA,NA,NA,NA,NA,NA,NA,NA,NA,NA,NA,NA,NA
8f9d3,Shallow Question,html.Page,2_9_0_0,NA,NA,form submission,13123.499999988,147518.89999998,147518,147534.7,160658.19999999,160658.89999998,2024-06-02T07:29:13Z,160688.1,Toleranz,kuvumiliana,d,maombolezo,ujasusi,mchekeshaji,mchekeshaji,NA,NA,"c(""distractor1"", ""distractor2"", ""distractor3"")",NA,NA,NA,NA,NA,NA,NA,NA,NA,NA,NA,NA,NA,NA,NA,NA,NA,NA,NA
8f9d3,Save data screen,canvas.Screen,2_9_0_1,NA,NA,timeout,500.79999999999,160662.09999996,160671.5,160688.1,161172.3,161173.19999999,2024-06-02T07:29:13Z,161188.9,Toleranz,kuvumiliana,d,maombolezo,ujasusi,mchekeshaji,NA,NA,0,"c(""distractor1"", ""distractor2"", ""distractor3"")",NA,NA,NA,NA,NA,NA,NA,NA,NA,NA,NA,NA,NA,NA,NA,NA,NA,NA,NA
8f9d3,shallow,flow.Sequence,2_9_0,NA,NA,completion,13637.6,147518.89999998,147518,147534.7,161172.3,161173.5,2024-06-02T07:29:13Z,161188.9,Toleranz,kuvumiliana,d,maombolezo,ujasusi,mchekeshaji,NA,NA,NA,"c(""distractor1"", ""distractor2"", ""distractor3"")",NA,NA,NA,NA,NA,NA,NA,NA,NA,NA,NA,NA,NA,NA,NA,NA,NA,NA,NA
8f9d3,task,flow.Sequence,2_9,NA,NA,completion,13637.6,147518.89999998,147518,147534.7,161172.3,161173.59999996,2024-06-02T07:29:13Z,161188.9,Toleranz,kuvumiliana,d,maombolezo,ujasusi,mchekeshaji,NA,NA,NA,"c(""distractor1"", ""distractor2"", ""distractor3"")",NA,NA,NA,NA,NA,NA,NA,NA,NA,NA,NA,NA,NA,NA,NA,NA,NA,NA,NA
8f9d3,Shallow Question,html.Page,2_10_0_0,NA,NA,form submission,7059.4999999762,161173.69999999,161172.3,161188.9,168248.39999998,168248.89999998,2024-06-02T07:29:20Z,168249.73,Vergnügen,kichekesho,s,dubwana,mpanuko,mtesaji,dubwana,NA,NA,"c(""distractor1"", ""distractor2"", ""distractor3"")",NA,NA,NA,NA,NA,NA,NA,NA,NA,NA,NA,NA,NA,NA,NA,NA,NA,NA,NA
8f9d3,Save data screen,canvas.Screen,2_10_0_1,NA,NA,timeout,500.56999999998,168250.69999999,168249.73,168249.73,168733.8,168734.5,2024-06-02T07:29:21Z,168750.3,Vergnügen,kichekesho,s,dubwana,mpanuko,mtesaji,NA,NA,0,"c(""distractor1"", ""distractor2"", ""distractor3"")",NA,NA,NA,NA,NA,NA,NA,NA,NA,NA,NA,NA,NA,NA,NA,NA,NA,NA,NA
8f9d3,shallow,flow.Sequence,2_10_0,NA,NA,completion,7544.9,161173.69999999,161172.3,161188.9,168733.8,168734.69999999,2024-06-02T07:29:21Z,168750.3,Vergnügen,kichekesho,s,dubwana,mpanuko,mtesaji,NA,NA,NA,"c(""distractor1"", ""distractor2"", ""distractor3"")",NA,NA,NA,NA,NA,NA,NA,NA,NA,NA,NA,NA,NA,NA,NA,NA,NA,NA,NA
8f9d3,task,flow.Sequence,2_10,NA,NA,completion,7544.9,161173.69999999,161172.3,161188.9,168733.8,168734.69999999,2024-06-02T07:29:21Z,168750.3,Vergnügen,kichekesho,s,dubwana,mpanuko,mtesaji,NA,NA,NA,"c(""distractor1"", ""distractor2"", ""distractor3"")",NA,NA,NA,NA,NA,NA,NA,NA,NA,NA,NA,NA,NA,NA,NA,NA,NA,NA,NA
8f9d3,Shallow Question,html.Page,2_11_0_0,NA,NA,form submission,3516.7999999642,168734.79999995,168733.8,168750.3,172267.09999996,172267.5,2024-06-02T07:29:24Z,172272.528,Fenster,dirisha,d,walakini,tasawari,maarifa,dirisha,NA,NA,"c(""distractor1"", ""distractor2"", ""distractor3"")",NA,NA,NA,NA,NA,NA,NA,NA,NA,NA,NA,NA,NA,NA,NA,NA,NA,NA,NA
8f9d3,Save data screen,canvas.Screen,2_11_0_1,NA,NA,timeout,500.67200000002,172269.09999996,172272.528,172272.528,172757.2,172758.59999996,2024-06-02T07:29:25Z,172773.2,Fenster,dirisha,d,walakini,tasawari,maarifa,NA,NA,1,"c(""distractor1"", ""distractor2"", ""distractor3"")",NA,NA,NA,NA,NA,NA,NA,NA,NA,NA,NA,NA,NA,NA,NA,NA,NA,NA,NA
8f9d3,shallow,flow.Sequence,2_11_0,NA,NA,completion,4006.9,168734.79999995,168733.8,168750.3,172757.2,172758.69999999,2024-06-02T07:29:25Z,172773.2,Fenster,dirisha,d,walakini,tasawari,maarifa,NA,NA,NA,"c(""distractor1"", ""distractor2"", ""distractor3"")",NA,NA,NA,NA,NA,NA,NA,NA,NA,NA,NA,NA,NA,NA,NA,NA,NA,NA,NA
8f9d3,task,flow.Sequence,2_11,NA,NA,completion,4006.9,168734.79999995,168733.8,168750.3,172757.2,172758.79999995,2024-06-02T07:29:25Z,172773.2,Fenster,dirisha,d,walakini,tasawari,maarifa,NA,NA,NA,"c(""distractor1"", ""distractor2"", ""distractor3"")",NA,NA,NA,NA,NA,NA,NA,NA,NA,NA,NA,NA,NA,NA,NA,NA,NA,NA,NA
8f9d3,Shallow Question,html.Page,2_12_0_0,NA,NA,form submission,10256.499999988,172758.89999998,172757.2,172773.2,183029.69999999,183030,2024-06-02T07:29:35Z,183038.9,Spionage,upelelezi,d,maslahi,utokazo,magangao,maslahi,NA,NA,"c(""distractor1"", ""distractor2"", ""distractor3"")",NA,NA,NA,NA,NA,NA,NA,NA,NA,NA,NA,NA,NA,NA,NA,NA,NA,NA,NA
8f9d3,Save data screen,canvas.Screen,2_12_0_1,NA,NA,timeout,500.70000000001,183031.79999995,183022.2,183038.9,183522.9,183524.09999996,2024-06-02T07:29:35Z,183539.6,Spionage,upelelezi,d,maslahi,utokazo,magangao,NA,NA,0,"c(""distractor1"", ""distractor2"", ""distractor3"")",NA,NA,NA,NA,NA,NA,NA,NA,NA,NA,NA,NA,NA,NA,NA,NA,NA,NA,NA
8f9d3,shallow,flow.Sequence,2_12_0,NA,NA,completion,10749.7,172758.89999998,172757.2,172773.2,183522.9,183524.29999995,2024-06-02T07:29:35Z,183539.6,Spionage,upelelezi,d,maslahi,utokazo,magangao,NA,NA,NA,"c(""distractor1"", ""distractor2"", ""distractor3"")",NA,NA,NA,NA,NA,NA,NA,NA,NA,NA,NA,NA,NA,NA,NA,NA,NA,NA,NA
8f9d3,task,flow.Sequence,2_12,NA,NA,completion,10749.7,172758.89999998,172757.2,172773.2,183522.9,183524.39999998,2024-06-02T07:29:35Z,183539.6,Spionage,upelelezi,d,maslahi,utokazo,magangao,NA,NA,NA,"c(""distractor1"", ""distractor2"", ""distractor3"")",NA,NA,NA,NA,NA,NA,NA,NA,NA,NA,NA,NA,NA,NA,NA,NA,NA,NA,NA
8f9d3,Shallow Question,html.Page,2_13_0_0,NA,NA,form submission,5085.7999999762,183524.39999998,183522.9,183539.6,188625.39999998,188625.89999998,2024-06-02T07:29:41Z,188630.8,Schock,mshtuko,d,biashara,kukataza,vichekesho,mshtuko,NA,NA,"c(""distractor1"", ""distractor2"", ""distractor3"")",NA,NA,NA,NA,NA,NA,NA,NA,NA,NA,NA,NA,NA,NA,NA,NA,NA,NA,NA
8f9d3,Save data screen,canvas.Screen,2_13_0_1,NA,NA,timeout,500.80000000002,188627.59999996,188614.164,188630.8,189114.8,189116,2024-06-02T07:29:41Z,189131.6,Schock,mshtuko,d,biashara,kukataza,vichekesho,NA,NA,1,"c(""distractor1"", ""distractor2"", ""distractor3"")",NA,NA,NA,NA,NA,NA,NA,NA,NA,NA,NA,NA,NA,NA,NA,NA,NA,NA,NA
8f9d3,shallow,flow.Sequence,2_13_0,NA,NA,completion,5575.2,183524.39999998,183522.9,183539.6,189114.8,189116.29999995,2024-06-02T07:29:41Z,189131.6,Schock,mshtuko,d,biashara,kukataza,vichekesho,NA,NA,NA,"c(""distractor1"", ""distractor2"", ""distractor3"")",NA,NA,NA,NA,NA,NA,NA,NA,NA,NA,NA,NA,NA,NA,NA,NA,NA,NA,NA
8f9d3,task,flow.Sequence,2_13,NA,NA,completion,5575.2,183524.39999998,183522.9,183539.6,189114.8,189116.39999998,2024-06-02T07:29:41Z,189131.6,Schock,mshtuko,d,biashara,kukataza,vichekesho,NA,NA,NA,"c(""distractor1"", ""distractor2"", ""distractor3"")",NA,NA,NA,NA,NA,NA,NA,NA,NA,NA,NA,NA,NA,NA,NA,NA,NA,NA,NA
8f9d3,Shallow Question,html.Page,2_14_0_0,NA,NA,form submission,4099.2999999762,189116.59999996,189114.8,189131.6,193230.89999998,193231.39999998,2024-06-02T07:29:45Z,193237.8,Schlange,foleni,d,uvumilivu,uteuzi,muuzaji,foleni,NA,NA,"c(""distractor1"", ""distractor2"", ""distractor3"")",NA,NA,NA,NA,NA,NA,NA,NA,NA,NA,NA,NA,NA,NA,NA,NA,NA,NA,NA
8f9d3,Save data screen,canvas.Screen,2_14_0_1,NA,NA,timeout,500.90000000002,193233.19999999,193221.53,193237.8,193721.9,193723.29999995,2024-06-02T07:29:46Z,193738.7,Schlange,foleni,d,uvumilivu,uteuzi,muuzaji,NA,NA,1,"c(""distractor1"", ""distractor2"", ""distractor3"")",NA,NA,NA,NA,NA,NA,NA,NA,NA,NA,NA,NA,NA,NA,NA,NA,NA,NA,NA
8f9d3,shallow,flow.Sequence,2_14_0,NA,NA,completion,4590.3,189116.5,189114.8,189131.6,193721.9,193723.5,2024-06-02T07:29:46Z,193738.7,Schlange,foleni,d,uvumilivu,uteuzi,muuzaji,NA,NA,NA,"c(""distractor1"", ""distractor2"", ""distractor3"")",NA,NA,NA,NA,NA,NA,NA,NA,NA,NA,NA,NA,NA,NA,NA,NA,NA,NA,NA
8f9d3,task,flow.Sequence,2_14,NA,NA,completion,4590.3,189116.5,189114.8,189131.6,193721.9,193723.69999999,2024-06-02T07:29:46Z,193738.7,Schlange,foleni,d,uvumilivu,uteuzi,muuzaji,NA,NA,NA,"c(""distractor1"", ""distractor2"", ""distractor3"")",NA,NA,NA,NA,NA,NA,NA,NA,NA,NA,NA,NA,NA,NA,NA,NA,NA,NA,NA
8f9d3,Shallow Question,html.Page,2_15_0_0,NA,NA,form submission,5043.4999999881,193723.69999999,193721.9,193738.7,198782.19999999,198783.09999996,2024-06-02T07:29:51Z,198796.3,Notfall,dharura,s,rairai,malalamiko,ahueni,dharura,NA,NA,"c(""distractor1"", ""distractor2"", ""distractor3"")",NA,NA,NA,NA,NA,NA,NA,NA,NA,NA,NA,NA,NA,NA,NA,NA,NA,NA,NA
8f9d3,Save data screen,canvas.Screen,2_15_0_1,NA,NA,timeout,500.80000000002,198785.5,198779.6,198796.3,199280.4,199281.79999995,2024-06-02T07:29:51Z,199297.1,Notfall,dharura,s,rairai,malalamiko,ahueni,NA,NA,1,"c(""distractor1"", ""distractor2"", ""distractor3"")",NA,NA,NA,NA,NA,NA,NA,NA,NA,NA,NA,NA,NA,NA,NA,NA,NA,NA,NA
8f9d3,shallow,flow.Sequence,2_15_0,NA,NA,completion,5541.7,193723.69999999,193721.9,193738.7,199280.4,199282,2024-06-02T07:29:51Z,199297.1,Notfall,dharura,s,rairai,malalamiko,ahueni,NA,NA,NA,"c(""distractor1"", ""distractor2"", ""distractor3"")",NA,NA,NA,NA,NA,NA,NA,NA,NA,NA,NA,NA,NA,NA,NA,NA,NA,NA,NA
8f9d3,task,flow.Sequence,2_15,NA,NA,completion,5541.7,193723.69999999,193721.9,193738.7,199280.4,199282.19999999,2024-06-02T07:29:51Z,199297.1,Notfall,dharura,s,rairai,malalamiko,ahueni,NA,NA,NA,"c(""distractor1"", ""distractor2"", ""distractor3"")",NA,NA,NA,NA,NA,NA,NA,NA,NA,NA,NA,NA,NA,NA,NA,NA,NA,NA,NA
8f9d3,retrieval block 2 (multiple choice),flow.Loop,2,NA,NA,completion,120600.8,78664.099999964,78662.8,78679.6,199280.4,199282.29999995,2024-06-02T07:29:51Z,199297.1,NA,NA,NA,NA,NA,NA,NA,NA,NA,"c(""distractor1"", ""distractor2"", ""distractor3"")",NA,NA,NA,NA,NA,NA,NA,NA,NA,NA,NA,NA,NA,NA,NA,NA,NA,NA,NA
8f9d3,End,canvas.Screen,3,NA,keypress(Space),response,1943.0999999881,199282.39999998,199280.4,199297.1,201240.19999999,201242.69999999,2024-06-02T07:29:53Z,201250.2,NA,NA,NA,NA,NA,NA,NA,NA,NA,NULL,NA,NA,NA,NA,NA,NA,NA,NA,NA,NA,NA,NA,NA,NA,NA,NA,NA,NA,NA
8f9d3,root,flow.Sequence,NA,NA,NA,completion,200512.89999999,709.29999995232,710.6,727.3,201240.19999999,201243.09999996,2024-06-02T07:29:53Z,201250.2,NA,NA,NA,NA,NA,NA,NA,NA,NA,NULL,NA,NA,NA,NA,NA,NA,NA,NA,NA,NA,NA,NA,NA,NA,NA,NA,NA,NA,NA
