observation,sender,sender_type,sender_id,response,response_action,ended_on,duration,time_run,time_render,time_show,time_end,time_commit,timestamp,time_switch,distractors,german,swahili,enc,distractor1,distractor2,distractor3,response_2,x,correct,x_2,url_vp,url_sess,meta_labjs_version,meta_location,meta_user_agent,meta_platform,meta_language,meta_locale,meta_time_zone,meta_timezone_offset,meta_screen_width,meta_screen_height,meta_scroll_width,meta_scroll_height,meta_window_inner_width,meta_window_inner_height,meta_device_pixel_ratio,meta_labjs_build_flavor,meta_labjs_build_commit
1cfa7,Introduction general,canvas.Screen,0,weiter,keypress(q),response,90380.899999994,492.5,245.8,495.7,90876.599999994,90882.899999976,2024-04-27T17:41:53Z,90891,NULL,NA,NA,NA,NA,NA,NA,NA,NA,NA,NA,224,1,20.2.4,https://neurocog.fernuni.ch/studies/vweber/aberisha/encoding_immediate/index.html?vp=224&sess=1,"Mozilla/5.0 (Windows NT 10.0; Win64; x64) AppleWebKit/537.36 (KHTML, like Gecko) Chrome/124.0.0.0 Safari/537.36",Win32,de-DE,de,Europe/Zurich,-120,1536,864,1536,682,1536,730,1.25,production,f5b4a49f956347addd546a832a3327688c2c0fef
1cfa7,Introduction practice,canvas.Screen,1_0,NA,keypress(Space),response,8244.6999999881,90883.099999994,90882.304,90891,99135.699999988,99136.699999988,2024-04-27T17:42:02Z,99152.5,NULL,NA,NA,NA,NA,NA,NA,NA,NA,NA,NA,NA,NA,NA,NA,NA,NA,NA,NA,NA,NA,NA,NA,NA,NA,NA,NA,NA,NA,NA
1cfa7,Deep Question,html.Page,1_1_0_0_0,NA,NA,form submission,12725.199999988,99137.199999988,99137.15,99152.5,111877.69999999,111878,2024-04-27T17:42:14Z,111895.4,"c(""distractor1"", ""distractor2"", ""distractor3"")",Qualität,mtindo,d,NA,NA,NA,dahali,NA,NA,NA,NA,NA,NA,NA,NA,NA,NA,NA,NA,NA,NA,NA,NA,NA,NA,NA,NA,NA,NA
1cfa7,"""Richtig""-Screen",canvas.Screen,1_1_0_0_1,NA,NA,skipped,NA,111879.69999999,NA,NA,111877.69999999,111879.89999998,2024-04-27T17:42:14Z,111895.4,"c(""distractor1"", ""distractor2"", ""distractor3"")",Qualität,mtindo,d,NA,NA,NA,NA,NA,NA,NA,NA,NA,NA,NA,NA,NA,NA,NA,NA,NA,NA,NA,NA,NA,NA,NA,NA,NA,NA
1cfa7,"""Falsch""-Screen",canvas.Screen,1_1_0_0_2,NA,NA,timeout,4996.2,111881.39999998,111879.02,111895.4,116875,116879.09999999,2024-04-27T17:42:19Z,116891.6,"c(""distractor1"", ""distractor2"", ""distractor3"")",Qualität,mtindo,d,NA,NA,NA,NA,NA,0,NA,NA,NA,NA,NA,NA,NA,NA,NA,NA,NA,NA,NA,NA,NA,NA,NA,NA,NA,NA
1cfa7,deep,flow.Sequence,1_1_0_0,NA,NA,completion,17722.5,99137.199999988,99137.15,99152.5,116875,116879.29999998,2024-04-27T17:42:19Z,116891.6,"c(""distractor1"", ""distractor2"", ""distractor3"")",Qualität,mtindo,d,NA,NA,NA,NA,NA,NA,NA,NA,NA,NA,NA,NA,NA,NA,NA,NA,NA,NA,NA,NA,NA,NA,NA,NA,NA,NA
1cfa7,shallow,flow.Sequence,1_1_0_1,NA,NA,skipped,NA,116879.29999998,NA,NA,116875,116879.39999998,2024-04-27T17:42:19Z,116891.6,"c(""distractor1"", ""distractor2"", ""distractor3"")",Qualität,mtindo,d,NA,NA,NA,NA,NA,NA,NA,NA,NA,NA,NA,NA,NA,NA,NA,NA,NA,NA,NA,NA,NA,NA,NA,NA,NA,NA
1cfa7,task,flow.Sequence,1_1_0,NA,NA,completion,17722.5,99137.099999994,99137.15,99152.5,116875,116879.39999998,2024-04-27T17:42:19Z,116891.6,"c(""distractor1"", ""distractor2"", ""distractor3"")",Qualität,mtindo,d,NA,NA,NA,NA,NA,NA,NA,NA,NA,NA,NA,NA,NA,NA,NA,NA,NA,NA,NA,NA,NA,NA,NA,NA,NA,NA
1cfa7,deep,flow.Sequence,1_1_1_0,NA,NA,skipped,NA,116879.5,NA,NA,116875,116879.5,2024-04-27T17:42:19Z,116891.6,"c(""distractor1"", ""distractor2"", ""distractor3"")",Gegenwart,hadhara,s,katiba,jokofu,mikopo,NA,NA,NA,NA,NA,NA,NA,NA,NA,NA,NA,NA,NA,NA,NA,NA,NA,NA,NA,NA,NA,NA,NA
1cfa7,Shallow Question,html.Page,1_1_1_1_0,NA,NA,form submission,6081.6999999821,116879.59999999,116875,116891.6,122973.29999998,122973.59999999,2024-04-27T17:42:25Z,122988,"c(""distractor1"", ""distractor2"", ""distractor3"")",Gegenwart,hadhara,s,katiba,jokofu,mikopo,katiba,NA,NA,NA,NA,NA,NA,NA,NA,NA,NA,NA,NA,NA,NA,NA,NA,NA,NA,NA,NA,NA,NA
1cfa7,"""Richtig""-Screen",canvas.Screen,1_1_1_1_1,NA,NA,skipped,NA,122977,NA,NA,122973.29999998,122977.09999999,2024-04-27T17:42:25Z,122988,"c(""distractor1"", ""distractor2"", ""distractor3"")",Gegenwart,hadhara,s,katiba,jokofu,mikopo,NA,NA,NA,NA,NA,NA,NA,NA,NA,NA,NA,NA,NA,NA,NA,NA,NA,NA,NA,NA,NA,NA,NA
1cfa7,"""Falsch""-Screen",canvas.Screen,1_1_1_1_2,NA,NA,timeout,4996.9,122978.09999999,122971.662,122988,127968.3,127969,2024-04-27T17:42:30Z,127984.9,"c(""distractor1"", ""distractor2"", ""distractor3"")",Gegenwart,hadhara,s,katiba,jokofu,mikopo,NA,NA,0,NA,NA,NA,NA,NA,NA,NA,NA,NA,NA,NA,NA,NA,NA,NA,NA,NA,NA,NA,NA
1cfa7,shallow,flow.Sequence,1_1_1_1,NA,NA,completion,11076.7,116879.5,116875,116891.6,127968.3,127969.29999998,2024-04-27T17:42:30Z,127984.9,"c(""distractor1"", ""distractor2"", ""distractor3"")",Gegenwart,hadhara,s,katiba,jokofu,mikopo,NA,NA,NA,NA,NA,NA,NA,NA,NA,NA,NA,NA,NA,NA,NA,NA,NA,NA,NA,NA,NA,NA,NA
1cfa7,task,flow.Sequence,1_1_1,NA,NA,completion,11076.7,116879.5,116875,116891.6,127968.3,127969.39999998,2024-04-27T17:42:30Z,127984.9,"c(""distractor1"", ""distractor2"", ""distractor3"")",Gegenwart,hadhara,s,katiba,jokofu,mikopo,NA,NA,NA,NA,NA,NA,NA,NA,NA,NA,NA,NA,NA,NA,NA,NA,NA,NA,NA,NA,NA,NA,NA
1cfa7,Deep Question,html.Page,1_1_2_0_0,NA,NA,form submission,8588.2999999881,127969.59999999,127968.3,127984.9,136573.19999999,136573.39999998,2024-04-27T17:42:39Z,136596.4,"c(""distractor1"", ""distractor2"", ""distractor3"")",Gesundheit,salama,d,NA,NA,NA,dereli,NA,NA,NA,NA,NA,NA,NA,NA,NA,NA,NA,NA,NA,NA,NA,NA,NA,NA,NA,NA,NA,NA
1cfa7,"""Richtig""-Screen",canvas.Screen,1_1_2_0_1,NA,NA,skipped,NA,136576.69999999,NA,NA,136573.19999999,136576.89999998,2024-04-27T17:42:39Z,136596.4,"c(""distractor1"", ""distractor2"", ""distractor3"")",Gesundheit,salama,d,NA,NA,NA,NA,NA,NA,NA,NA,NA,NA,NA,NA,NA,NA,NA,NA,NA,NA,NA,NA,NA,NA,NA,NA,NA,NA
1cfa7,"""Falsch""-Screen",canvas.Screen,1_1_2_0_2,NA,NA,timeout,4997,136577.89999998,136579.3,136596.4,141576.3,141577.39999998,2024-04-27T17:42:44Z,141593.4,"c(""distractor1"", ""distractor2"", ""distractor3"")",Gesundheit,salama,d,NA,NA,NA,NA,NA,0,NA,NA,NA,NA,NA,NA,NA,NA,NA,NA,NA,NA,NA,NA,NA,NA,NA,NA,NA,NA
1cfa7,deep,flow.Sequence,1_1_2_0,NA,NA,completion,13591.4,127969.59999999,127968.3,127984.9,141576.3,141577.69999999,2024-04-27T17:42:44Z,141593.4,"c(""distractor1"", ""distractor2"", ""distractor3"")",Gesundheit,salama,d,NA,NA,NA,NA,NA,NA,NA,NA,NA,NA,NA,NA,NA,NA,NA,NA,NA,NA,NA,NA,NA,NA,NA,NA,NA,NA
1cfa7,shallow,flow.Sequence,1_1_2_1,NA,NA,skipped,NA,141577.89999998,NA,NA,141576.3,141578.09999999,2024-04-27T17:42:44Z,141593.4,"c(""distractor1"", ""distractor2"", ""distractor3"")",Gesundheit,salama,d,NA,NA,NA,NA,NA,NA,NA,NA,NA,NA,NA,NA,NA,NA,NA,NA,NA,NA,NA,NA,NA,NA,NA,NA,NA,NA
1cfa7,task,flow.Sequence,1_1_2,NA,NA,completion,13591.4,127969.5,127968.3,127984.9,141576.3,141578.39999998,2024-04-27T17:42:44Z,141593.4,"c(""distractor1"", ""distractor2"", ""distractor3"")",Gesundheit,salama,d,NA,NA,NA,NA,NA,NA,NA,NA,NA,NA,NA,NA,NA,NA,NA,NA,NA,NA,NA,NA,NA,NA,NA,NA,NA,NA
1cfa7,deep,flow.Sequence,1_1_3_0,NA,NA,skipped,NA,141578.59999999,NA,NA,141576.3,141578.69999999,2024-04-27T17:42:44Z,141593.4,"c(""distractor1"", ""distractor2"", ""distractor3"")",Rückhalt,msaada,s,muhula,auwali,kiwimbe,NA,NA,NA,NA,NA,NA,NA,NA,NA,NA,NA,NA,NA,NA,NA,NA,NA,NA,NA,NA,NA,NA,NA
1cfa7,Shallow Question,html.Page,1_1_3_1_0,NA,NA,form submission,6011.199999994,141578.89999998,141576.3,141593.4,147604.59999999,147604.69999999,2024-04-27T17:42:50Z,147606.494,"c(""distractor1"", ""distractor2"", ""distractor3"")",Rückhalt,msaada,s,muhula,auwali,kiwimbe,msaada,NA,NA,NA,NA,NA,NA,NA,NA,NA,NA,NA,NA,NA,NA,NA,NA,NA,NA,NA,NA,NA,NA
1cfa7,"""Richtig""-Screen",canvas.Screen,1_1_3_1_1,NA,NA,timeout,4996.806,147606.29999998,147606.494,147606.494,152586.6,152587.59999999,2024-04-27T17:42:55Z,152603.3,"c(""distractor1"", ""distractor2"", ""distractor3"")",Rückhalt,msaada,s,muhula,auwali,kiwimbe,NA,NA,1,NA,NA,NA,NA,NA,NA,NA,NA,NA,NA,NA,NA,NA,NA,NA,NA,NA,NA,NA,NA
1cfa7,"""Falsch""-Screen",canvas.Screen,1_1_3_1_2,NA,NA,skipped,NA,152592.59999999,NA,NA,152586.6,152592.69999999,2024-04-27T17:42:55Z,152603.3,"c(""distractor1"", ""distractor2"", ""distractor3"")",Rückhalt,msaada,s,muhula,auwali,kiwimbe,NA,NA,NA,NA,NA,NA,NA,NA,NA,NA,NA,NA,NA,NA,NA,NA,NA,NA,NA,NA,NA,NA,NA
1cfa7,shallow,flow.Sequence,1_1_3_1,NA,NA,completion,10993.2,141578.79999998,141576.3,141593.4,152586.6,152592.79999998,2024-04-27T17:42:55Z,152603.3,"c(""distractor1"", ""distractor2"", ""distractor3"")",Rückhalt,msaada,s,muhula,auwali,kiwimbe,NA,NA,NA,NA,NA,NA,NA,NA,NA,NA,NA,NA,NA,NA,NA,NA,NA,NA,NA,NA,NA,NA,NA
1cfa7,task,flow.Sequence,1_1_3,NA,NA,completion,10993.2,141578.5,141576.3,141593.4,152586.6,152592.79999998,2024-04-27T17:42:55Z,152603.3,"c(""distractor1"", ""distractor2"", ""distractor3"")",Rückhalt,msaada,s,muhula,auwali,kiwimbe,NA,NA,NA,NA,NA,NA,NA,NA,NA,NA,NA,NA,NA,NA,NA,NA,NA,NA,NA,NA,NA,NA,NA
1cfa7,deep,flow.Sequence,1_1_4_0,NA,NA,skipped,NA,152592.89999998,NA,NA,152586.6,152592.89999998,2024-04-27T17:42:55Z,152603.3,"c(""distractor1"", ""distractor2"", ""distractor3"")",Kritik,lawama,s,dereva,nafasi,mawazo,NA,NA,NA,NA,NA,NA,NA,NA,NA,NA,NA,NA,NA,NA,NA,NA,NA,NA,NA,NA,NA,NA,NA
1cfa7,Shallow Question,html.Page,1_1_4_1_0,NA,NA,form submission,4400.0999999762,152592.89999998,152586.6,152603.3,157003.39999998,157003.59999999,2024-04-27T17:42:59Z,157017.2,"c(""distractor1"", ""distractor2"", ""distractor3"")",Kritik,lawama,s,dereva,nafasi,mawazo,mawazo,NA,NA,NA,NA,NA,NA,NA,NA,NA,NA,NA,NA,NA,NA,NA,NA,NA,NA,NA,NA,NA,NA
1cfa7,"""Richtig""-Screen",canvas.Screen,1_1_4_1_1,NA,NA,skipped,NA,157006.5,NA,NA,157003.39999998,157006.69999999,2024-04-27T17:42:59Z,157017.2,"c(""distractor1"", ""distractor2"", ""distractor3"")",Kritik,lawama,s,dereva,nafasi,mawazo,NA,NA,NA,NA,NA,NA,NA,NA,NA,NA,NA,NA,NA,NA,NA,NA,NA,NA,NA,NA,NA,NA,NA
1cfa7,"""Falsch""-Screen",canvas.Screen,1_1_4_1_2,NA,NA,timeout,4997,157007.29999998,157000.66,157017.2,161997.4,161998.39999998,2024-04-27T17:43:04Z,162014.2,"c(""distractor1"", ""distractor2"", ""distractor3"")",Kritik,lawama,s,dereva,nafasi,mawazo,NA,NA,0,NA,NA,NA,NA,NA,NA,NA,NA,NA,NA,NA,NA,NA,NA,NA,NA,NA,NA,NA,NA
1cfa7,shallow,flow.Sequence,1_1_4_1,NA,NA,completion,9394.1,152592.89999998,152586.6,152603.3,161997.4,161998.69999999,2024-04-27T17:43:04Z,162014.2,"c(""distractor1"", ""distractor2"", ""distractor3"")",Kritik,lawama,s,dereva,nafasi,mawazo,NA,NA,NA,NA,NA,NA,NA,NA,NA,NA,NA,NA,NA,NA,NA,NA,NA,NA,NA,NA,NA,NA,NA
1cfa7,task,flow.Sequence,1_1_4,NA,NA,completion,9394.1,152592.89999998,152586.6,152603.3,161997.4,161998.89999998,2024-04-27T17:43:04Z,162014.2,"c(""distractor1"", ""distractor2"", ""distractor3"")",Kritik,lawama,s,dereva,nafasi,mawazo,NA,NA,NA,NA,NA,NA,NA,NA,NA,NA,NA,NA,NA,NA,NA,NA,NA,NA,NA,NA,NA,NA,NA
1cfa7,Deep Question,html.Page,1_1_5_0_0,NA,NA,form submission,7543.4999999881,161999.19999999,161997.4,162014.2,169557.69999999,169557.89999998,2024-04-27T17:43:12Z,169562.87,"c(""distractor1"", ""distractor2"", ""distractor3"")",Schatten,kivuli,d,NA,NA,NA,zertili,NA,NA,NA,NA,NA,NA,NA,NA,NA,NA,NA,NA,NA,NA,NA,NA,NA,NA,NA,NA,NA,NA
1cfa7,"""Richtig""-Screen",canvas.Screen,1_1_5_0_1,NA,NA,skipped,NA,169561.09999999,NA,NA,169557.69999999,169561.19999999,2024-04-27T17:43:12Z,169562.87,"c(""distractor1"", ""distractor2"", ""distractor3"")",Schatten,kivuli,d,NA,NA,NA,NA,NA,NA,NA,NA,NA,NA,NA,NA,NA,NA,NA,NA,NA,NA,NA,NA,NA,NA,NA,NA,NA,NA
1cfa7,"""Falsch""-Screen",canvas.Screen,1_1_5_0_2,NA,NA,timeout,4993.73,169562,169562.87,169562.87,174539.9,174540.39999998,2024-04-27T17:43:17Z,174556.6,"c(""distractor1"", ""distractor2"", ""distractor3"")",Schatten,kivuli,d,NA,NA,NA,NA,NA,0,NA,NA,NA,NA,NA,NA,NA,NA,NA,NA,NA,NA,NA,NA,NA,NA,NA,NA,NA,NA
1cfa7,deep,flow.Sequence,1_1_5_0,NA,NA,completion,12525.7,161999.19999999,161997.4,162014.2,174539.9,174540.59999999,2024-04-27T17:43:17Z,174556.6,"c(""distractor1"", ""distractor2"", ""distractor3"")",Schatten,kivuli,d,NA,NA,NA,NA,NA,NA,NA,NA,NA,NA,NA,NA,NA,NA,NA,NA,NA,NA,NA,NA,NA,NA,NA,NA,NA,NA
1cfa7,shallow,flow.Sequence,1_1_5_1,NA,NA,skipped,NA,174540.69999999,NA,NA,174539.9,174540.79999998,2024-04-27T17:43:17Z,174556.6,"c(""distractor1"", ""distractor2"", ""distractor3"")",Schatten,kivuli,d,NA,NA,NA,NA,NA,NA,NA,NA,NA,NA,NA,NA,NA,NA,NA,NA,NA,NA,NA,NA,NA,NA,NA,NA,NA,NA
1cfa7,task,flow.Sequence,1_1_5,NA,NA,completion,12525.7,161999,161997.4,162014.2,174539.9,174540.89999998,2024-04-27T17:43:17Z,174556.6,"c(""distractor1"", ""distractor2"", ""distractor3"")",Schatten,kivuli,d,NA,NA,NA,NA,NA,NA,NA,NA,NA,NA,NA,NA,NA,NA,NA,NA,NA,NA,NA,NA,NA,NA,NA,NA,NA,NA
1cfa7,block,flow.Loop,1_1,NA,NA,completion,75387.4,99137.099999994,99137.15,99152.5,174539.9,174541.19999999,2024-04-27T17:43:17Z,174556.6,"c(""distractor1"", ""distractor2"", ""distractor3"")",NA,NA,NA,NA,NA,NA,NA,NA,NA,NA,NA,NA,NA,NA,NA,NA,NA,NA,NA,NA,NA,NA,NA,NA,NA,NA,NA,NA,NA
1cfa7,Practice,flow.Sequence,1,NA,NA,completion,83648.9,90883.099999994,90882.304,90891,174539.9,174541.19999999,2024-04-27T17:43:17Z,174556.6,NULL,NA,NA,NA,NA,NA,NA,NA,NA,NA,NA,NA,NA,NA,NA,NA,NA,NA,NA,NA,NA,NA,NA,NA,NA,NA,NA,NA,NA,NA
1cfa7,Experiment start,canvas.Screen,2,weiter,keypress(q),response,16986.999999994,174541.29999998,174539.9,174556.6,191543.59999999,191544.59999999,2024-04-27T17:43:34Z,191612.6,NULL,NA,NA,NA,NA,NA,NA,NA,NA,NA,NA,NA,NA,NA,NA,NA,NA,NA,NA,NA,NA,NA,NA,NA,NA,NA,NA,NA,NA,NA
1cfa7,Deep Question,html.Page,3_0_0_0_0_0_0,NA,NA,form submission,8040.5999999881,191600.79999998,191591.3,191612.6,199653.19999999,199653.5,2024-04-27T17:43:42Z,199657.5,NULL,Schönheit,kirembo,d,NA,NA,NA,wertili,NA,NA,0,NA,NA,NA,NA,NA,NA,NA,NA,NA,NA,NA,NA,NA,NA,NA,NA,NA,NA,NA
1cfa7,"""Richtig""-Screen",canvas.Screen,3_0_0_0_0_0_1,NA,NA,skipped,NA,199656.5,NA,NA,199653.19999999,199656.79999998,2024-04-27T17:43:42Z,199657.5,NULL,Schönheit,kirembo,d,NA,NA,NA,NA,sdf,NA,0,NA,NA,NA,NA,NA,NA,NA,NA,NA,NA,NA,NA,NA,NA,NA,NA,NA,NA,NA
1cfa7,"""Falsch""-Screen",canvas.Screen,3_0_0_0_0_0_2,NA,NA,timeout,4997.2,199657.5,199642.396,199657.5,204638.4,204639,2024-04-27T17:43:47Z,204654.7,NULL,Schönheit,kirembo,d,NA,NA,NA,NA,sdf,0,0,NA,NA,NA,NA,NA,NA,NA,NA,NA,NA,NA,NA,NA,NA,NA,NA,NA,NA,NA
1cfa7,deep,flow.Sequence,3_0_0_0_0_0,NA,NA,completion,13025.8,191600.79999998,191591.3,191612.6,204638.4,204639,2024-04-27T17:43:47Z,204654.7,NULL,Schönheit,kirembo,d,NA,NA,NA,NA,sdf,NA,0,NA,NA,NA,NA,NA,NA,NA,NA,NA,NA,NA,NA,NA,NA,NA,NA,NA,NA,NA
1cfa7,shallow,flow.Sequence,3_0_0_0_0_1,NA,NA,skipped,NA,204639.09999999,NA,NA,204638.4,204639.09999999,2024-04-27T17:43:47Z,204654.7,NULL,Schönheit,kirembo,d,NA,NA,NA,NA,sdf,NA,0,NA,NA,NA,NA,NA,NA,NA,NA,NA,NA,NA,NA,NA,NA,NA,NA,NA,NA,NA
1cfa7,task,flow.Sequence,3_0_0_0_0,NA,NA,completion,13025.8,191600.79999998,191591.3,191612.6,204638.4,204639.09999999,2024-04-27T17:43:47Z,204654.7,NULL,Schönheit,kirembo,d,NA,NA,NA,NA,sdf,NA,0,NA,NA,NA,NA,NA,NA,NA,NA,NA,NA,NA,NA,NA,NA,NA,NA,NA,NA,NA
1cfa7,deep,flow.Sequence,3_0_0_0_1_0,NA,NA,skipped,NA,204639.19999999,NA,NA,204638.4,204639.19999999,2024-04-27T17:43:47Z,204654.7,NULL,Angreifer,mshambulizi,s,kitengo,tasinia,usafirishaji,NA,sdf,NA,0,NA,NA,NA,NA,NA,NA,NA,NA,NA,NA,NA,NA,NA,NA,NA,NA,NA,NA,NA
1cfa7,Shallow Question,html.Page,3_0_0_0_1_1_0,NA,NA,form submission,28809.099999982,204639.19999999,204638.4,204654.7,233463.79999998,233463.89999998,2024-04-27T17:44:16Z,233470.1,NULL,Angreifer,mshambulizi,s,kitengo,tasinia,usafirishaji,kitengo,NA,NA,0,NA,NA,NA,NA,NA,NA,NA,NA,NA,NA,NA,NA,NA,NA,NA,NA,NA,NA,NA
1cfa7,"""Richtig""-Screen",canvas.Screen,3_0_0_0_1_1_1,NA,NA,skipped,NA,233465.39999998,NA,NA,233463.79999998,233465.5,2024-04-27T17:44:16Z,233470.1,NULL,Angreifer,mshambulizi,s,kitengo,tasinia,usafirishaji,NA,sdf,NA,0,NA,NA,NA,NA,NA,NA,NA,NA,NA,NA,NA,NA,NA,NA,NA,NA,NA,NA,NA
1cfa7,"""Falsch""-Screen",canvas.Screen,3_0_0_0_1_1_2,NA,NA,timeout,4997.5,233465.79999998,233454.906,233470.1,238450.5,238451.89999998,2024-04-27T17:44:21Z,238467.6,NULL,Angreifer,mshambulizi,s,kitengo,tasinia,usafirishaji,NA,sdf,0,0,NA,NA,NA,NA,NA,NA,NA,NA,NA,NA,NA,NA,NA,NA,NA,NA,NA,NA,NA
1cfa7,shallow,flow.Sequence,3_0_0_0_1_1,NA,NA,completion,33795.8,204639.19999999,204638.4,204654.7,238450.5,238452.19999999,2024-04-27T17:44:21Z,238467.6,NULL,Angreifer,mshambulizi,s,kitengo,tasinia,usafirishaji,NA,sdf,NA,0,NA,NA,NA,NA,NA,NA,NA,NA,NA,NA,NA,NA,NA,NA,NA,NA,NA,NA,NA
1cfa7,task,flow.Sequence,3_0_0_0_1,NA,NA,completion,33795.8,204639.09999999,204638.4,204654.7,238450.5,238452.5,2024-04-27T17:44:21Z,238467.6,NULL,Angreifer,mshambulizi,s,kitengo,tasinia,usafirishaji,NA,sdf,NA,0,NA,NA,NA,NA,NA,NA,NA,NA,NA,NA,NA,NA,NA,NA,NA,NA,NA,NA,NA
1cfa7,Deep Question,html.Page,3_0_0_0_2_0_0,NA,NA,form submission,5505.0999999881,238452.59999999,238450.5,238467.6,243972.69999999,243973.29999998,2024-04-27T17:44:26Z,243980.4,NULL,Kanzler,diwani,d,NA,NA,NA,zterili,NA,NA,0,NA,NA,NA,NA,NA,NA,NA,NA,NA,NA,NA,NA,NA,NA,NA,NA,NA,NA,NA
1cfa7,"""Richtig""-Screen",canvas.Screen,3_0_0_0_2_0_1,NA,NA,skipped,NA,243974.89999998,NA,NA,243972.69999999,243975,2024-04-27T17:44:26Z,243980.4,NULL,Kanzler,diwani,d,NA,NA,NA,NA,sdf,NA,0,NA,NA,NA,NA,NA,NA,NA,NA,NA,NA,NA,NA,NA,NA,NA,NA,NA,NA,NA
1cfa7,"""Falsch""-Screen",canvas.Screen,3_0_0_0_2_0_2,NA,NA,timeout,4997.6,243975.5,243964.456,243980.4,248960.9,248962,2024-04-27T17:44:31Z,248978,NULL,Kanzler,diwani,d,NA,NA,NA,NA,sdf,0,0,NA,NA,NA,NA,NA,NA,NA,NA,NA,NA,NA,NA,NA,NA,NA,NA,NA,NA,NA
1cfa7,deep,flow.Sequence,3_0_0_0_2_0,NA,NA,completion,10493.3,238452.59999999,238450.5,238467.6,248960.9,248962.39999998,2024-04-27T17:44:31Z,248978,NULL,Kanzler,diwani,d,NA,NA,NA,NA,sdf,NA,0,NA,NA,NA,NA,NA,NA,NA,NA,NA,NA,NA,NA,NA,NA,NA,NA,NA,NA,NA
1cfa7,shallow,flow.Sequence,3_0_0_0_2_1,NA,NA,skipped,NA,248962.5,NA,NA,248960.9,248962.69999999,2024-04-27T17:44:31Z,248978,NULL,Kanzler,diwani,d,NA,NA,NA,NA,sdf,NA,0,NA,NA,NA,NA,NA,NA,NA,NA,NA,NA,NA,NA,NA,NA,NA,NA,NA,NA,NA
1cfa7,task,flow.Sequence,3_0_0_0_2,NA,NA,completion,10493.3,238452.5,238450.5,238467.6,248960.9,248962.79999998,2024-04-27T17:44:31Z,248978,NULL,Kanzler,diwani,d,NA,NA,NA,NA,sdf,NA,0,NA,NA,NA,NA,NA,NA,NA,NA,NA,NA,NA,NA,NA,NA,NA,NA,NA,NA,NA
1cfa7,deep,flow.Sequence,3_0_0_0_3_0,NA,NA,skipped,NA,248962.89999998,NA,NA,248960.9,248963.09999999,2024-04-27T17:44:31Z,248978,NULL,Sänger,mwimbaji,s,msichana,shughuli,mshirika,NA,sdf,NA,0,NA,NA,NA,NA,NA,NA,NA,NA,NA,NA,NA,NA,NA,NA,NA,NA,NA,NA,NA
1cfa7,Shallow Question,html.Page,3_0_0_0_3_1_0,NA,NA,form submission,8677.7999999821,248963.19999999,248960.9,248978,257655.79999998,257656,2024-04-27T17:44:40Z,257672.5,NULL,Sänger,mwimbaji,s,msichana,shughuli,mshirika,mshirika,NA,NA,0,NA,NA,NA,NA,NA,NA,NA,NA,NA,NA,NA,NA,NA,NA,NA,NA,NA,NA,NA
1cfa7,"""Richtig""-Screen",canvas.Screen,3_0_0_0_3_1_1,NA,NA,skipped,NA,257659.19999999,NA,NA,257655.79999998,257659.29999998,2024-04-27T17:44:40Z,257672.5,NULL,Sänger,mwimbaji,s,msichana,shughuli,mshirika,NA,sdf,NA,0,NA,NA,NA,NA,NA,NA,NA,NA,NA,NA,NA,NA,NA,NA,NA,NA,NA,NA,NA
1cfa7,"""Falsch""-Screen",canvas.Screen,3_0_0_0_3_1_2,NA,NA,timeout,4996.9,257660,257656.436,257672.5,262652.5,262653.5,2024-04-27T17:44:45Z,262669.4,NULL,Sänger,mwimbaji,s,msichana,shughuli,mshirika,NA,sdf,0,0,NA,NA,NA,NA,NA,NA,NA,NA,NA,NA,NA,NA,NA,NA,NA,NA,NA,NA,NA
1cfa7,shallow,flow.Sequence,3_0_0_0_3_1,NA,NA,completion,13674.5,248963.19999999,248960.9,248978,262652.5,262653.89999998,2024-04-27T17:44:45Z,262669.4,NULL,Sänger,mwimbaji,s,msichana,shughuli,mshirika,NA,sdf,NA,0,NA,NA,NA,NA,NA,NA,NA,NA,NA,NA,NA,NA,NA,NA,NA,NA,NA,NA,NA
1cfa7,task,flow.Sequence,3_0_0_0_3,NA,NA,completion,13674.5,248962.89999998,248960.9,248978,262652.5,262654.09999999,2024-04-27T17:44:45Z,262669.4,NULL,Sänger,mwimbaji,s,msichana,shughuli,mshirika,NA,sdf,NA,0,NA,NA,NA,NA,NA,NA,NA,NA,NA,NA,NA,NA,NA,NA,NA,NA,NA,NA,NA
1cfa7,Deep Question,html.Page,3_0_0_0_4_0_0,NA,NA,form submission,9098.3999999821,262654.29999998,262652.5,262669.4,271767.79999998,271768.09999999,2024-04-27T17:44:54Z,271780.2,NULL,Zufall,kikuti,d,NA,NA,NA,piltir,NA,NA,0,NA,NA,NA,NA,NA,NA,NA,NA,NA,NA,NA,NA,NA,NA,NA,NA,NA,NA,NA
1cfa7,"""Richtig""-Screen",canvas.Screen,3_0_0_0_4_0_1,NA,NA,skipped,NA,271771.19999999,NA,NA,271767.79999998,271771.39999998,2024-04-27T17:44:54Z,271780.2,NULL,Zufall,kikuti,d,NA,NA,NA,NA,sdf,NA,0,NA,NA,NA,NA,NA,NA,NA,NA,NA,NA,NA,NA,NA,NA,NA,NA,NA,NA,NA
1cfa7,"""Falsch""-Screen",canvas.Screen,3_0_0_0_4_0_2,NA,NA,timeout,4997.4,271771.89999998,271764.276,271780.2,276760.7,276761.5,2024-04-27T17:44:59Z,276777.6,NULL,Zufall,kikuti,d,NA,NA,NA,NA,sdf,0,0,NA,NA,NA,NA,NA,NA,NA,NA,NA,NA,NA,NA,NA,NA,NA,NA,NA,NA,NA
1cfa7,deep,flow.Sequence,3_0_0_0_4_0,NA,NA,completion,14091.3,262654.29999998,262652.5,262669.4,276760.7,276761.89999998,2024-04-27T17:44:59Z,276777.6,NULL,Zufall,kikuti,d,NA,NA,NA,NA,sdf,NA,0,NA,NA,NA,NA,NA,NA,NA,NA,NA,NA,NA,NA,NA,NA,NA,NA,NA,NA,NA
1cfa7,shallow,flow.Sequence,3_0_0_0_4_1,NA,NA,skipped,NA,276762.09999999,NA,NA,276760.7,276762.19999999,2024-04-27T17:44:59Z,276777.6,NULL,Zufall,kikuti,d,NA,NA,NA,NA,sdf,NA,0,NA,NA,NA,NA,NA,NA,NA,NA,NA,NA,NA,NA,NA,NA,NA,NA,NA,NA,NA
1cfa7,task,flow.Sequence,3_0_0_0_4,NA,NA,completion,14091.3,262654.29999998,262652.5,262669.4,276760.7,276762.5,2024-04-27T17:44:59Z,276777.6,NULL,Zufall,kikuti,d,NA,NA,NA,NA,sdf,NA,0,NA,NA,NA,NA,NA,NA,NA,NA,NA,NA,NA,NA,NA,NA,NA,NA,NA,NA,NA
1cfa7,deep,flow.Sequence,3_0_0_0_5_0,NA,NA,skipped,NA,276762.5,NA,NA,276760.7,276762.69999999,2024-04-27T17:44:59Z,276777.6,NULL,Auftrag,uagizaji,s,ghanima,kuzingatia,msukani,NA,sdf,NA,0,NA,NA,NA,NA,NA,NA,NA,NA,NA,NA,NA,NA,NA,NA,NA,NA,NA,NA,NA
1cfa7,Shallow Question,html.Page,3_0_0_0_5_1_0,NA,NA,form submission,7785.6999999821,276762.89999998,276760.7,276777.6,284563.29999998,284563.5,2024-04-27T17:45:07Z,284572.5,NULL,Auftrag,uagizaji,s,ghanima,kuzingatia,msukani,uagizaji,NA,NA,0,NA,NA,NA,NA,NA,NA,NA,NA,NA,NA,NA,NA,NA,NA,NA,NA,NA,NA,NA
1cfa7,"""Richtig""-Screen",canvas.Screen,3_0_0_0_5_1_1,NA,NA,timeout,4997.2,284566.69999999,284559.968,284572.5,289552.7,289553.69999999,2024-04-27T17:45:12Z,289569.7,NULL,Auftrag,uagizaji,s,ghanima,kuzingatia,msukani,NA,sdf,1,0,NA,NA,NA,NA,NA,NA,NA,NA,NA,NA,NA,NA,NA,NA,NA,NA,NA,NA,NA
1cfa7,"""Falsch""-Screen",canvas.Screen,3_0_0_0_5_1_2,NA,NA,skipped,NA,289559,NA,NA,289552.7,289559,2024-04-27T17:45:12Z,289569.7,NULL,Auftrag,uagizaji,s,ghanima,kuzingatia,msukani,NA,sdf,NA,0,NA,NA,NA,NA,NA,NA,NA,NA,NA,NA,NA,NA,NA,NA,NA,NA,NA,NA,NA
1cfa7,shallow,flow.Sequence,3_0_0_0_5_1,NA,NA,completion,12775.1,276762.89999998,276760.7,276777.6,289552.7,289559.09999999,2024-04-27T17:45:12Z,289569.7,NULL,Auftrag,uagizaji,s,ghanima,kuzingatia,msukani,NA,sdf,NA,0,NA,NA,NA,NA,NA,NA,NA,NA,NA,NA,NA,NA,NA,NA,NA,NA,NA,NA,NA
1cfa7,task,flow.Sequence,3_0_0_0_5,NA,NA,completion,12775.1,276762.5,276760.7,276777.6,289552.7,289559.19999999,2024-04-27T17:45:12Z,289569.7,NULL,Auftrag,uagizaji,s,ghanima,kuzingatia,msukani,NA,sdf,NA,0,NA,NA,NA,NA,NA,NA,NA,NA,NA,NA,NA,NA,NA,NA,NA,NA,NA,NA,NA
1cfa7,Deep Question,html.Page,3_0_0_0_6_0_0,NA,NA,form submission,9915.899999994,289559.19999999,289552.7,289569.7,299485.59999999,299485.79999998,2024-04-27T17:45:22Z,299496.6,NULL,Abrechnung,uhasibu,d,NA,NA,NA,bregt,NA,NA,0,NA,NA,NA,NA,NA,NA,NA,NA,NA,NA,NA,NA,NA,NA,NA,NA,NA,NA,NA
1cfa7,"""Richtig""-Screen",canvas.Screen,3_0_0_0_6_0_1,NA,NA,skipped,NA,299488.89999998,NA,NA,299485.59999999,299489.19999999,2024-04-27T17:45:22Z,299496.6,NULL,Abrechnung,uhasibu,d,NA,NA,NA,NA,sdf,NA,0,NA,NA,NA,NA,NA,NA,NA,NA,NA,NA,NA,NA,NA,NA,NA,NA,NA,NA,NA
1cfa7,"""Falsch""-Screen",canvas.Screen,3_0_0_0_6_0_2,NA,NA,timeout,4997.3,299489.59999999,299480.554,299496.6,304477.3,304478.29999998,2024-04-27T17:45:27Z,304493.9,NULL,Abrechnung,uhasibu,d,NA,NA,NA,NA,sdf,0,0,NA,NA,NA,NA,NA,NA,NA,NA,NA,NA,NA,NA,NA,NA,NA,NA,NA,NA,NA
1cfa7,deep,flow.Sequence,3_0_0_0_6_0,NA,NA,completion,14907.6,289559.19999999,289552.7,289569.7,304477.3,304478.5,2024-04-27T17:45:27Z,304493.9,NULL,Abrechnung,uhasibu,d,NA,NA,NA,NA,sdf,NA,0,NA,NA,NA,NA,NA,NA,NA,NA,NA,NA,NA,NA,NA,NA,NA,NA,NA,NA,NA
1cfa7,shallow,flow.Sequence,3_0_0_0_6_1,NA,NA,skipped,NA,304478.69999999,NA,NA,304477.3,304478.89999998,2024-04-27T17:45:27Z,304493.9,NULL,Abrechnung,uhasibu,d,NA,NA,NA,NA,sdf,NA,0,NA,NA,NA,NA,NA,NA,NA,NA,NA,NA,NA,NA,NA,NA,NA,NA,NA,NA,NA
1cfa7,task,flow.Sequence,3_0_0_0_6,NA,NA,completion,14907.6,289559.19999999,289552.7,289569.7,304477.3,304479.09999999,2024-04-27T17:45:27Z,304493.9,NULL,Abrechnung,uhasibu,d,NA,NA,NA,NA,sdf,NA,0,NA,NA,NA,NA,NA,NA,NA,NA,NA,NA,NA,NA,NA,NA,NA,NA,NA,NA,NA
1cfa7,deep,flow.Sequence,3_0_0_0_7_0,NA,NA,skipped,NA,304479.29999998,NA,NA,304477.3,304479.29999998,2024-04-27T17:45:27Z,304493.9,NULL,Wettbewerb,ushindani,s,mapendezi,kichocheo,ubaguzi,NA,sdf,NA,0,NA,NA,NA,NA,NA,NA,NA,NA,NA,NA,NA,NA,NA,NA,NA,NA,NA,NA,NA
1cfa7,Shallow Question,html.Page,3_0_0_0_7_1_0,NA,NA,form submission,7877.6,304479.5,304477.3,304493.9,312371.5,312371.69999999,2024-04-27T17:45:35Z,312374.428,NULL,Wettbewerb,ushindani,s,mapendezi,kichocheo,ubaguzi,kichocheo,NA,NA,0,NA,NA,NA,NA,NA,NA,NA,NA,NA,NA,NA,NA,NA,NA,NA,NA,NA,NA,NA
1cfa7,"""Richtig""-Screen",canvas.Screen,3_0_0_0_7_1_1,NA,NA,skipped,NA,312374.69999999,NA,NA,312371.5,312374.89999998,2024-04-27T17:45:35Z,312374.428,NULL,Wettbewerb,ushindani,s,mapendezi,kichocheo,ubaguzi,NA,sdf,NA,0,NA,NA,NA,NA,NA,NA,NA,NA,NA,NA,NA,NA,NA,NA,NA,NA,NA,NA,NA
1cfa7,"""Falsch""-Screen",canvas.Screen,3_0_0_0_7_1_2,NA,NA,timeout,4994.572,312375.59999999,312374.428,312374.428,317352.7,317353.79999998,2024-04-27T17:45:40Z,317369,NULL,Wettbewerb,ushindani,s,mapendezi,kichocheo,ubaguzi,NA,sdf,0,0,NA,NA,NA,NA,NA,NA,NA,NA,NA,NA,NA,NA,NA,NA,NA,NA,NA,NA,NA
1cfa7,shallow,flow.Sequence,3_0_0_0_7_1,NA,NA,completion,12858.8,304479.5,304477.3,304493.9,317352.7,317354.09999999,2024-04-27T17:45:40Z,317369,NULL,Wettbewerb,ushindani,s,mapendezi,kichocheo,ubaguzi,NA,sdf,NA,0,NA,NA,NA,NA,NA,NA,NA,NA,NA,NA,NA,NA,NA,NA,NA,NA,NA,NA,NA
1cfa7,task,flow.Sequence,3_0_0_0_7,NA,NA,completion,12858.8,304479.19999999,304477.3,304493.9,317352.7,317354.29999998,2024-04-27T17:45:40Z,317369,NULL,Wettbewerb,ushindani,s,mapendezi,kichocheo,ubaguzi,NA,sdf,NA,0,NA,NA,NA,NA,NA,NA,NA,NA,NA,NA,NA,NA,NA,NA,NA,NA,NA,NA,NA
1cfa7,block,flow.Loop,3_0_0_0,NA,NA,completion,125740.1,191600.79999998,191591.3,191612.6,317352.7,317354.59999999,2024-04-27T17:45:40Z,317369,NULL,NA,NA,NA,NA,NA,NA,NA,sdf,NA,0,NA,NA,NA,NA,NA,NA,NA,NA,NA,NA,NA,NA,NA,NA,NA,NA,NA,NA,NA
1cfa7,weiter,canvas.Screen,3_0_0_1,sdf,keypress(Space),response,2806.099999994,317354.69999999,317352.7,317369,320175.09999999,320175.5,2024-04-27T17:45:43Z,320184.758,NULL,NA,NA,NA,NA,NA,NA,NA,sdf,NA,0,NA,NA,NA,NA,NA,NA,NA,NA,NA,NA,NA,NA,NA,NA,NA,NA,NA,NA,NA
1cfa7,check continue,flow.Sequence,3_0_0,NA,NA,completion,128562.49999999,191600.79999998,191591.3,191612.6,320175.09999999,320175.69999999,2024-04-27T17:45:43Z,320184.758,NULL,NA,NA,NA,NA,NA,NA,NA,sdf,NA,0,NA,NA,NA,NA,NA,NA,NA,NA,NA,NA,NA,NA,NA,NA,NA,NA,NA,NA,NA
1cfa7,Deep Question,html.Page,3_0_1_0_0_0_0,NA,NA,form submission,7150.0419999821,320193.69999999,320184.758,320184.758,327334.79999998,327335,2024-04-27T17:45:50Z,327346.3,NULL,Zufall,kikuti,d,NA,NA,NA,uhaki,NA,NA,1,NA,NA,NA,NA,NA,NA,NA,NA,NA,NA,NA,NA,NA,NA,NA,NA,NA,NA,NA
1cfa7,"""Richtig""-Screen",canvas.Screen,3_0_1_0_0_0_1,NA,NA,skipped,NA,327338,NA,NA,327334.79999998,327338.09999999,2024-04-27T17:45:50Z,327346.3,NULL,Zufall,kikuti,d,NA,NA,NA,NA,sdfdsf,NA,1,NA,NA,NA,NA,NA,NA,NA,NA,NA,NA,NA,NA,NA,NA,NA,NA,NA,NA,NA
1cfa7,"""Falsch""-Screen",canvas.Screen,3_0_1_0_0_0_2,NA,NA,timeout,4997.3,327339,327332.118,327346.3,332326.8,332327.69999999,2024-04-27T17:45:55Z,332343.6,NULL,Zufall,kikuti,d,NA,NA,NA,NA,sdfdsf,0,1,NA,NA,NA,NA,NA,NA,NA,NA,NA,NA,NA,NA,NA,NA,NA,NA,NA,NA,NA
1cfa7,deep,flow.Sequence,3_0_1_0_0_0,NA,NA,completion,12142.042,320193.69999999,320184.758,320184.758,332326.8,332328.09999999,2024-04-27T17:45:55Z,332343.6,NULL,Zufall,kikuti,d,NA,NA,NA,NA,sdfdsf,NA,1,NA,NA,NA,NA,NA,NA,NA,NA,NA,NA,NA,NA,NA,NA,NA,NA,NA,NA,NA
1cfa7,shallow,flow.Sequence,3_0_1_0_0_1,NA,NA,skipped,NA,332328.19999999,NA,NA,332326.8,332328.39999998,2024-04-27T17:45:55Z,332343.6,NULL,Zufall,kikuti,d,NA,NA,NA,NA,sdfdsf,NA,1,NA,NA,NA,NA,NA,NA,NA,NA,NA,NA,NA,NA,NA,NA,NA,NA,NA,NA,NA
1cfa7,task,flow.Sequence,3_0_1_0_0,NA,NA,completion,12142.042,320193.69999999,320184.758,320184.758,332326.8,332328.59999999,2024-04-27T17:45:55Z,332343.6,NULL,Zufall,kikuti,d,NA,NA,NA,NA,sdfdsf,NA,1,NA,NA,NA,NA,NA,NA,NA,NA,NA,NA,NA,NA,NA,NA,NA,NA,NA,NA,NA
1cfa7,deep,flow.Sequence,3_0_1_0_1_0,NA,NA,skipped,NA,332328.79999998,NA,NA,332326.8,332328.89999998,2024-04-27T17:45:55Z,332343.6,NULL,Angreifer,mshambulizi,s,kitengo,tasinia,usafirishaji,NA,sdfdsf,NA,1,NA,NA,NA,NA,NA,NA,NA,NA,NA,NA,NA,NA,NA,NA,NA,NA,NA,NA,NA
1cfa7,Shallow Question,html.Page,3_0_1_0_1_1_0,NA,NA,form submission,6327.5999999881,332329.09999999,332326.8,332343.6,338671.19999999,338671.39999998,2024-04-27T17:46:01Z,338673.158,NULL,Angreifer,mshambulizi,s,kitengo,tasinia,usafirishaji,mshambulizi,NA,NA,1,NA,NA,NA,NA,NA,NA,NA,NA,NA,NA,NA,NA,NA,NA,NA,NA,NA,NA,NA
1cfa7,"""Richtig""-Screen",canvas.Screen,3_0_1_0_1_1_1,NA,NA,timeout,4996.842,338673.69999999,338673.158,338673.158,343653.3,343654.29999998,2024-04-27T17:46:06Z,343670,NULL,Angreifer,mshambulizi,s,kitengo,tasinia,usafirishaji,NA,sdfdsf,1,1,NA,NA,NA,NA,NA,NA,NA,NA,NA,NA,NA,NA,NA,NA,NA,NA,NA,NA,NA
1cfa7,"""Falsch""-Screen",canvas.Screen,3_0_1_0_1_1_2,NA,NA,skipped,NA,343659.09999999,NA,NA,343653.3,343659.19999999,2024-04-27T17:46:06Z,343670,NULL,Angreifer,mshambulizi,s,kitengo,tasinia,usafirishaji,NA,sdfdsf,NA,1,NA,NA,NA,NA,NA,NA,NA,NA,NA,NA,NA,NA,NA,NA,NA,NA,NA,NA,NA
1cfa7,shallow,flow.Sequence,3_0_1_0_1_1,NA,NA,completion,11309.7,332329,332326.8,332343.6,343653.3,343659.19999999,2024-04-27T17:46:06Z,343670,NULL,Angreifer,mshambulizi,s,kitengo,tasinia,usafirishaji,NA,sdfdsf,NA,1,NA,NA,NA,NA,NA,NA,NA,NA,NA,NA,NA,NA,NA,NA,NA,NA,NA,NA,NA
1cfa7,task,flow.Sequence,3_0_1_0_1,NA,NA,completion,11309.7,332328.69999999,332326.8,332343.6,343653.3,343659.29999998,2024-04-27T17:46:06Z,343670,NULL,Angreifer,mshambulizi,s,kitengo,tasinia,usafirishaji,NA,sdfdsf,NA,1,NA,NA,NA,NA,NA,NA,NA,NA,NA,NA,NA,NA,NA,NA,NA,NA,NA,NA,NA
1cfa7,deep,flow.Sequence,3_0_1_0_2_0,NA,NA,skipped,NA,343659.29999998,NA,NA,343653.3,343659.29999998,2024-04-27T17:46:06Z,343670,NULL,Auftrag,uagizaji,s,ghanima,kuzingatia,msukani,NA,sdfdsf,NA,1,NA,NA,NA,NA,NA,NA,NA,NA,NA,NA,NA,NA,NA,NA,NA,NA,NA,NA,NA
1cfa7,Shallow Question,html.Page,3_0_1_0_2_1_0,NA,NA,form submission,4585.5,343659.5,343653.3,343670,348255.5,348255.69999999,2024-04-27T17:46:11Z,348266.8,NULL,Auftrag,uagizaji,s,ghanima,kuzingatia,msukani,kuzingatia,NA,NA,1,NA,NA,NA,NA,NA,NA,NA,NA,NA,NA,NA,NA,NA,NA,NA,NA,NA,NA,NA
1cfa7,"""Richtig""-Screen",canvas.Screen,3_0_1_0_2_1_1,NA,NA,skipped,NA,348258.59999999,NA,NA,348255.5,348258.69999999,2024-04-27T17:46:11Z,348266.8,NULL,Auftrag,uagizaji,s,ghanima,kuzingatia,msukani,NA,sdfdsf,NA,1,NA,NA,NA,NA,NA,NA,NA,NA,NA,NA,NA,NA,NA,NA,NA,NA,NA,NA,NA
1cfa7,"""Falsch""-Screen",canvas.Screen,3_0_1_0_2_1_2,NA,NA,timeout,4997.4,348259.39999998,348250.916,348266.8,353247.3,353248.29999998,2024-04-27T17:46:16Z,353264.2,NULL,Auftrag,uagizaji,s,ghanima,kuzingatia,msukani,NA,sdfdsf,0,1,NA,NA,NA,NA,NA,NA,NA,NA,NA,NA,NA,NA,NA,NA,NA,NA,NA,NA,NA
1cfa7,shallow,flow.Sequence,3_0_1_0_2_1,NA,NA,completion,9577.3,343659.39999998,343653.3,343670,353247.3,353248.79999998,2024-04-27T17:46:16Z,353264.2,NULL,Auftrag,uagizaji,s,ghanima,kuzingatia,msukani,NA,sdfdsf,NA,1,NA,NA,NA,NA,NA,NA,NA,NA,NA,NA,NA,NA,NA,NA,NA,NA,NA,NA,NA
1cfa7,task,flow.Sequence,3_0_1_0_2,NA,NA,completion,9577.3,343659.29999998,343653.3,343670,353247.3,353249,2024-04-27T17:46:16Z,353264.2,NULL,Auftrag,uagizaji,s,ghanima,kuzingatia,msukani,NA,sdfdsf,NA,1,NA,NA,NA,NA,NA,NA,NA,NA,NA,NA,NA,NA,NA,NA,NA,NA,NA,NA,NA
1cfa7,deep,flow.Sequence,3_0_1_0_3_0,NA,NA,skipped,NA,353249.19999999,NA,NA,353247.3,353249.29999998,2024-04-27T17:46:16Z,353264.2,NULL,Sänger,mwimbaji,s,msichana,shughuli,mshirika,NA,sdfdsf,NA,1,NA,NA,NA,NA,NA,NA,NA,NA,NA,NA,NA,NA,NA,NA,NA,NA,NA,NA,NA
1cfa7,Shallow Question,html.Page,3_0_1_0_3_1_0,NA,NA,form submission,8911.1999999761,353249.5,353247.3,353264.2,362175.39999998,362175.59999999,2024-04-27T17:46:25Z,362193,NULL,Sänger,mwimbaji,s,msichana,shughuli,mshirika,mwimbaji,NA,NA,1,NA,NA,NA,NA,NA,NA,NA,NA,NA,NA,NA,NA,NA,NA,NA,NA,NA,NA,NA
1cfa7,"""Richtig""-Screen",canvas.Screen,3_0_1_0_3_1_1,NA,NA,timeout,4996.1,362178.69999999,362175.752,362193,367172.2,367173.19999999,2024-04-27T17:46:30Z,367189.1,NULL,Sänger,mwimbaji,s,msichana,shughuli,mshirika,NA,sdfdsf,1,1,NA,NA,NA,NA,NA,NA,NA,NA,NA,NA,NA,NA,NA,NA,NA,NA,NA,NA,NA
1cfa7,"""Falsch""-Screen",canvas.Screen,3_0_1_0_3_1_2,NA,NA,skipped,NA,367178.5,NA,NA,367172.2,367178.69999999,2024-04-27T17:46:30Z,367189.1,NULL,Sänger,mwimbaji,s,msichana,shughuli,mshirika,NA,sdfdsf,NA,1,NA,NA,NA,NA,NA,NA,NA,NA,NA,NA,NA,NA,NA,NA,NA,NA,NA,NA,NA
1cfa7,shallow,flow.Sequence,3_0_1_0_3_1,NA,NA,completion,13908,353249.5,353247.3,353264.2,367172.2,367178.69999999,2024-04-27T17:46:30Z,367189.1,NULL,Sänger,mwimbaji,s,msichana,shughuli,mshirika,NA,sdfdsf,NA,1,NA,NA,NA,NA,NA,NA,NA,NA,NA,NA,NA,NA,NA,NA,NA,NA,NA,NA,NA
1cfa7,task,flow.Sequence,3_0_1_0_3,NA,NA,completion,13908,353249.09999999,353247.3,353264.2,367172.2,367178.79999998,2024-04-27T17:46:30Z,367189.1,NULL,Sänger,mwimbaji,s,msichana,shughuli,mshirika,NA,sdfdsf,NA,1,NA,NA,NA,NA,NA,NA,NA,NA,NA,NA,NA,NA,NA,NA,NA,NA,NA,NA,NA
1cfa7,Deep Question,html.Page,3_0_1_0_4_0_0,NA,NA,form submission,6078.6999999821,367178.89999998,367172.2,367189.1,373267.79999998,373268.09999999,2024-04-27T17:46:36Z,373268.69,NULL,Schönheit,kirembo,d,NA,NA,NA,urteli,NA,NA,1,NA,NA,NA,NA,NA,NA,NA,NA,NA,NA,NA,NA,NA,NA,NA,NA,NA,NA,NA
1cfa7,"""Richtig""-Screen",canvas.Screen,3_0_1_0_4_0_1,NA,NA,skipped,NA,373270.89999998,NA,NA,373267.79999998,373271.09999999,2024-04-27T17:46:36Z,373268.69,NULL,Schönheit,kirembo,d,NA,NA,NA,NA,sdfdsf,NA,1,NA,NA,NA,NA,NA,NA,NA,NA,NA,NA,NA,NA,NA,NA,NA,NA,NA,NA,NA
1cfa7,"""Falsch""-Screen",canvas.Screen,3_0_1_0_4_0_2,NA,NA,timeout,4996.71,373271.79999998,373268.69,373268.69,378248.8,378249.59999999,2024-04-27T17:46:41Z,378265.4,NULL,Schönheit,kirembo,d,NA,NA,NA,NA,sdfdsf,0,1,NA,NA,NA,NA,NA,NA,NA,NA,NA,NA,NA,NA,NA,NA,NA,NA,NA,NA,NA
1cfa7,deep,flow.Sequence,3_0_1_0_4_0,NA,NA,completion,11059.7,367178.79999998,367172.2,367189.1,378248.8,378250,2024-04-27T17:46:41Z,378265.4,NULL,Schönheit,kirembo,d,NA,NA,NA,NA,sdfdsf,NA,1,NA,NA,NA,NA,NA,NA,NA,NA,NA,NA,NA,NA,NA,NA,NA,NA,NA,NA,NA
1cfa7,shallow,flow.Sequence,3_0_1_0_4_1,NA,NA,skipped,NA,378250.19999999,NA,NA,378248.8,378250.39999998,2024-04-27T17:46:41Z,378265.4,NULL,Schönheit,kirembo,d,NA,NA,NA,NA,sdfdsf,NA,1,NA,NA,NA,NA,NA,NA,NA,NA,NA,NA,NA,NA,NA,NA,NA,NA,NA,NA,NA
1cfa7,task,flow.Sequence,3_0_1_0_4,NA,NA,completion,11059.7,367178.79999998,367172.2,367189.1,378248.8,378250.5,2024-04-27T17:46:41Z,378265.4,NULL,Schönheit,kirembo,d,NA,NA,NA,NA,sdfdsf,NA,1,NA,NA,NA,NA,NA,NA,NA,NA,NA,NA,NA,NA,NA,NA,NA,NA,NA,NA,NA
1cfa7,deep,flow.Sequence,3_0_1_0_5_0,NA,NA,skipped,NA,378250.69999999,NA,NA,378248.8,378250.69999999,2024-04-27T17:46:41Z,378265.4,NULL,Wettbewerb,ushindani,s,mapendezi,kichocheo,ubaguzi,NA,sdfdsf,NA,1,NA,NA,NA,NA,NA,NA,NA,NA,NA,NA,NA,NA,NA,NA,NA,NA,NA,NA,NA
1cfa7,Shallow Question,html.Page,3_0_1_0_5_1_0,NA,NA,form submission,4434.2999999881,378250.89999998,378248.8,378265.4,382699.69999999,382699.89999998,2024-04-27T17:46:45Z,382712.9,NULL,Wettbewerb,ushindani,s,mapendezi,kichocheo,ubaguzi,ushindani,NA,NA,1,NA,NA,NA,NA,NA,NA,NA,NA,NA,NA,NA,NA,NA,NA,NA,NA,NA,NA,NA
1cfa7,"""Richtig""-Screen",canvas.Screen,3_0_1_0_5_1_1,NA,NA,timeout,4996.8,382703,382696.392,382712.9,387692.8,387693.69999999,2024-04-27T17:46:50Z,387709.7,NULL,Wettbewerb,ushindani,s,mapendezi,kichocheo,ubaguzi,NA,sdfdsf,1,1,NA,NA,NA,NA,NA,NA,NA,NA,NA,NA,NA,NA,NA,NA,NA,NA,NA,NA,NA
1cfa7,"""Falsch""-Screen",canvas.Screen,3_0_1_0_5_1_2,NA,NA,skipped,NA,387697.39999998,NA,NA,387692.8,387697.5,2024-04-27T17:46:50Z,387709.7,NULL,Wettbewerb,ushindani,s,mapendezi,kichocheo,ubaguzi,NA,sdfdsf,NA,1,NA,NA,NA,NA,NA,NA,NA,NA,NA,NA,NA,NA,NA,NA,NA,NA,NA,NA,NA
1cfa7,shallow,flow.Sequence,3_0_1_0_5_1,NA,NA,completion,9427.4,378250.89999998,378248.8,378265.4,387692.8,387697.59999999,2024-04-27T17:46:50Z,387709.7,NULL,Wettbewerb,ushindani,s,mapendezi,kichocheo,ubaguzi,NA,sdfdsf,NA,1,NA,NA,NA,NA,NA,NA,NA,NA,NA,NA,NA,NA,NA,NA,NA,NA,NA,NA,NA
1cfa7,task,flow.Sequence,3_0_1_0_5,NA,NA,completion,9427.4,378250.59999999,378248.8,378265.4,387692.8,387697.69999999,2024-04-27T17:46:50Z,387709.7,NULL,Wettbewerb,ushindani,s,mapendezi,kichocheo,ubaguzi,NA,sdfdsf,NA,1,NA,NA,NA,NA,NA,NA,NA,NA,NA,NA,NA,NA,NA,NA,NA,NA,NA,NA,NA
1cfa7,Deep Question,html.Page,3_0_1_0_6_0_0,NA,NA,form submission,6655.4999999881,387697.69999999,387692.8,387709.7,394365.19999999,394365.39999998,2024-04-27T17:46:57Z,394372,NULL,Abrechnung,uhasibu,d,NA,NA,NA,pliterzi,NA,NA,1,NA,NA,NA,NA,NA,NA,NA,NA,NA,NA,NA,NA,NA,NA,NA,NA,NA,NA,NA
1cfa7,"""Richtig""-Screen",canvas.Screen,3_0_1_0_6_0_1,NA,NA,skipped,NA,394368.29999998,NA,NA,394365.19999999,394368.39999998,2024-04-27T17:46:57Z,394372,NULL,Abrechnung,uhasibu,d,NA,NA,NA,NA,sdfdsf,NA,1,NA,NA,NA,NA,NA,NA,NA,NA,NA,NA,NA,NA,NA,NA,NA,NA,NA,NA,NA
1cfa7,"""Falsch""-Screen",canvas.Screen,3_0_1_0_6_0_2,NA,NA,timeout,4997.3,394369.19999999,394356.03,394372,399352.4,399353.29999998,2024-04-27T17:47:02Z,399369.3,NULL,Abrechnung,uhasibu,d,NA,NA,NA,NA,sdfdsf,0,1,NA,NA,NA,NA,NA,NA,NA,NA,NA,NA,NA,NA,NA,NA,NA,NA,NA,NA,NA
1cfa7,deep,flow.Sequence,3_0_1_0_6_0,NA,NA,completion,11642.7,387697.69999999,387692.8,387709.7,399352.4,399353.79999998,2024-04-27T17:47:02Z,399369.3,NULL,Abrechnung,uhasibu,d,NA,NA,NA,NA,sdfdsf,NA,1,NA,NA,NA,NA,NA,NA,NA,NA,NA,NA,NA,NA,NA,NA,NA,NA,NA,NA,NA
1cfa7,shallow,flow.Sequence,3_0_1_0_6_1,NA,NA,skipped,NA,399353.89999998,NA,NA,399352.4,399354.09999999,2024-04-27T17:47:02Z,399369.3,NULL,Abrechnung,uhasibu,d,NA,NA,NA,NA,sdfdsf,NA,1,NA,NA,NA,NA,NA,NA,NA,NA,NA,NA,NA,NA,NA,NA,NA,NA,NA,NA,NA
1cfa7,task,flow.Sequence,3_0_1_0_6,NA,NA,completion,11642.7,387697.69999999,387692.8,387709.7,399352.4,399354.19999999,2024-04-27T17:47:02Z,399369.3,NULL,Abrechnung,uhasibu,d,NA,NA,NA,NA,sdfdsf,NA,1,NA,NA,NA,NA,NA,NA,NA,NA,NA,NA,NA,NA,NA,NA,NA,NA,NA,NA,NA
1cfa7,Deep Question,html.Page,3_0_1_0_7_0_0,NA,NA,form submission,9202.2,399354.5,399352.4,399369.3,408571.5,408571.79999998,2024-04-27T17:47:11Z,408580,NULL,Kanzler,diwani,d,NA,NA,NA,uhakiri,NA,NA,1,NA,NA,NA,NA,NA,NA,NA,NA,NA,NA,NA,NA,NA,NA,NA,NA,NA,NA,NA
1cfa7,"""Richtig""-Screen",canvas.Screen,3_0_1_0_7_0_1,NA,NA,skipped,NA,408575,NA,NA,408571.5,408575.09999999,2024-04-27T17:47:11Z,408580,NULL,Kanzler,diwani,d,NA,NA,NA,NA,sdfdsf,NA,1,NA,NA,NA,NA,NA,NA,NA,NA,NA,NA,NA,NA,NA,NA,NA,NA,NA,NA,NA
1cfa7,"""Falsch""-Screen",canvas.Screen,3_0_1_0_7_0_2,NA,NA,timeout,4997.2,408576,408563.7,408580,413560.4,413561.39999998,2024-04-27T17:47:16Z,413577.2,NULL,Kanzler,diwani,d,NA,NA,NA,NA,sdfdsf,0,1,NA,NA,NA,NA,NA,NA,NA,NA,NA,NA,NA,NA,NA,NA,NA,NA,NA,NA,NA
1cfa7,deep,flow.Sequence,3_0_1_0_7_0,NA,NA,completion,14191.1,399354.39999998,399352.4,399369.3,413560.4,413561.59999999,2024-04-27T17:47:16Z,413577.2,NULL,Kanzler,diwani,d,NA,NA,NA,NA,sdfdsf,NA,1,NA,NA,NA,NA,NA,NA,NA,NA,NA,NA,NA,NA,NA,NA,NA,NA,NA,NA,NA
1cfa7,shallow,flow.Sequence,3_0_1_0_7_1,NA,NA,skipped,NA,413561.79999998,NA,NA,413560.4,413561.89999998,2024-04-27T17:47:16Z,413577.2,NULL,Kanzler,diwani,d,NA,NA,NA,NA,sdfdsf,NA,1,NA,NA,NA,NA,NA,NA,NA,NA,NA,NA,NA,NA,NA,NA,NA,NA,NA,NA,NA
1cfa7,task,flow.Sequence,3_0_1_0_7,NA,NA,completion,14191.1,399354.39999998,399352.4,399369.3,413560.4,413562.09999999,2024-04-27T17:47:16Z,413577.2,NULL,Kanzler,diwani,d,NA,NA,NA,NA,sdfdsf,NA,1,NA,NA,NA,NA,NA,NA,NA,NA,NA,NA,NA,NA,NA,NA,NA,NA,NA,NA,NA
1cfa7,block,flow.Loop,3_0_1_0,NA,NA,completion,93375.642,320193.69999999,320184.758,320184.758,413560.4,413562.39999998,2024-04-27T17:47:16Z,413577.2,NULL,NA,NA,NA,NA,NA,NA,NA,sdfdsf,NA,1,NA,NA,NA,NA,NA,NA,NA,NA,NA,NA,NA,NA,NA,NA,NA,NA,NA,NA,NA
1cfa7,weiter,canvas.Screen,3_0_1_1,sdf,keypress(Space),response,1219.5999999821,413562.39999998,413560.4,413577.2,414796.79999998,414797.89999998,2024-04-27T17:47:17Z,414810.484,NULL,NA,NA,NA,NA,NA,NA,NA,sdfdsf,NA,1,NA,NA,NA,NA,NA,NA,NA,NA,NA,NA,NA,NA,NA,NA,NA,NA,NA,NA,NA
1cfa7,check continue,flow.Sequence,3_0_1,NA,NA,completion,94612.041999982,320193.69999999,320184.758,320184.758,414796.79999998,414798.09999999,2024-04-27T17:47:17Z,414810.484,NULL,NA,NA,NA,NA,NA,NA,NA,sdfdsf,NA,1,NA,NA,NA,NA,NA,NA,NA,NA,NA,NA,NA,NA,NA,NA,NA,NA,NA,NA,NA
1cfa7,Deep Question,html.Page,3_0_2_0_0_0_0,NA,NA,form submission,6393.516,414817.79999998,414810.484,414810.484,421204,421204.29999998,2024-04-27T17:47:24Z,421206.392,NULL,Kanzler,diwani,d,NA,NA,NA,dawani,NA,NA,2,NA,NA,NA,NA,NA,NA,NA,NA,NA,NA,NA,NA,NA,NA,NA,NA,NA,NA,NA
1cfa7,"""Richtig""-Screen",canvas.Screen,3_0_2_0_0_0_1,NA,NA,skipped,NA,421207.39999998,NA,NA,421204,421207.5,2024-04-27T17:47:24Z,421206.392,NULL,Kanzler,diwani,d,NA,NA,NA,NA,sdf,NA,2,NA,NA,NA,NA,NA,NA,NA,NA,NA,NA,NA,NA,NA,NA,NA,NA,NA,NA,NA
1cfa7,"""Falsch""-Screen",canvas.Screen,3_0_2_0_0_0_2,NA,NA,timeout,4996.508,421208.19999999,421206.392,421206.392,426186.4,426187.39999998,2024-04-27T17:47:29Z,426202.9,NULL,Kanzler,diwani,d,NA,NA,NA,NA,sdf,0,2,NA,NA,NA,NA,NA,NA,NA,NA,NA,NA,NA,NA,NA,NA,NA,NA,NA,NA,NA
1cfa7,deep,flow.Sequence,3_0_2_0_0_0,NA,NA,completion,11375.916,414817.79999998,414810.484,414810.484,426186.4,426187.69999999,2024-04-27T17:47:29Z,426202.9,NULL,Kanzler,diwani,d,NA,NA,NA,NA,sdf,NA,2,NA,NA,NA,NA,NA,NA,NA,NA,NA,NA,NA,NA,NA,NA,NA,NA,NA,NA,NA
1cfa7,shallow,flow.Sequence,3_0_2_0_0_1,NA,NA,skipped,NA,426187.79999998,NA,NA,426186.4,426188,2024-04-27T17:47:29Z,426202.9,NULL,Kanzler,diwani,d,NA,NA,NA,NA,sdf,NA,2,NA,NA,NA,NA,NA,NA,NA,NA,NA,NA,NA,NA,NA,NA,NA,NA,NA,NA,NA
1cfa7,task,flow.Sequence,3_0_2_0_0,NA,NA,completion,11375.916,414817.79999998,414810.484,414810.484,426186.4,426188.19999999,2024-04-27T17:47:29Z,426202.9,NULL,Kanzler,diwani,d,NA,NA,NA,NA,sdf,NA,2,NA,NA,NA,NA,NA,NA,NA,NA,NA,NA,NA,NA,NA,NA,NA,NA,NA,NA,NA
1cfa7,Deep Question,html.Page,3_0_2_0_1_0_0,NA,NA,form submission,9617.1,426188.39999998,426186.4,426202.9,435820,435820.19999999,2024-04-27T17:47:38Z,435830,NULL,Zufall,kikuti,d,NA,NA,NA,uwakarini,NA,NA,2,NA,NA,NA,NA,NA,NA,NA,NA,NA,NA,NA,NA,NA,NA,NA,NA,NA,NA,NA
1cfa7,"""Richtig""-Screen",canvas.Screen,3_0_2_0_1_0_1,NA,NA,skipped,NA,435823.29999998,NA,NA,435820,435823.39999998,2024-04-27T17:47:38Z,435830,NULL,Zufall,kikuti,d,NA,NA,NA,NA,sdf,NA,2,NA,NA,NA,NA,NA,NA,NA,NA,NA,NA,NA,NA,NA,NA,NA,NA,NA,NA,NA
1cfa7,"""Falsch""-Screen",canvas.Screen,3_0_2_0_1_0_2,NA,NA,timeout,4997.5,435824.09999999,435813.856,435830,440810.5,440811.79999998,2024-04-27T17:47:43Z,440827.5,NULL,Zufall,kikuti,d,NA,NA,NA,NA,sdf,0,2,NA,NA,NA,NA,NA,NA,NA,NA,NA,NA,NA,NA,NA,NA,NA,NA,NA,NA,NA
1cfa7,deep,flow.Sequence,3_0_2_0_1_0,NA,NA,completion,14607.6,426188.39999998,426186.4,426202.9,440810.5,440812.19999999,2024-04-27T17:47:43Z,440827.5,NULL,Zufall,kikuti,d,NA,NA,NA,NA,sdf,NA,2,NA,NA,NA,NA,NA,NA,NA,NA,NA,NA,NA,NA,NA,NA,NA,NA,NA,NA,NA
1cfa7,shallow,flow.Sequence,3_0_2_0_1_1,NA,NA,skipped,NA,440812.39999998,NA,NA,440810.5,440812.5,2024-04-27T17:47:43Z,440827.5,NULL,Zufall,kikuti,d,NA,NA,NA,NA,sdf,NA,2,NA,NA,NA,NA,NA,NA,NA,NA,NA,NA,NA,NA,NA,NA,NA,NA,NA,NA,NA
1cfa7,task,flow.Sequence,3_0_2_0_1,NA,NA,completion,14607.6,426188.29999998,426186.4,426202.9,440810.5,440812.79999998,2024-04-27T17:47:43Z,440827.5,NULL,Zufall,kikuti,d,NA,NA,NA,NA,sdf,NA,2,NA,NA,NA,NA,NA,NA,NA,NA,NA,NA,NA,NA,NA,NA,NA,NA,NA,NA,NA
1cfa7,deep,flow.Sequence,3_0_2_0_2_0,NA,NA,skipped,NA,440812.89999998,NA,NA,440810.5,440813,2024-04-27T17:47:43Z,440827.5,NULL,Auftrag,uagizaji,s,ghanima,kuzingatia,msukani,NA,sdf,NA,2,NA,NA,NA,NA,NA,NA,NA,NA,NA,NA,NA,NA,NA,NA,NA,NA,NA,NA,NA
1cfa7,Shallow Question,html.Page,3_0_2_0_2_1_0,NA,NA,form submission,6200,440813.09999999,440810.5,440827.5,447027.5,447027.79999998,2024-04-27T17:47:50Z,447039.8,NULL,Auftrag,uagizaji,s,ghanima,kuzingatia,msukani,msukani,NA,NA,2,NA,NA,NA,NA,NA,NA,NA,NA,NA,NA,NA,NA,NA,NA,NA,NA,NA,NA,NA
1cfa7,"""Richtig""-Screen",canvas.Screen,3_0_2_0_2_1_1,NA,NA,skipped,NA,447030.89999998,NA,NA,447027.5,447031.09999999,2024-04-27T17:47:50Z,447039.8,NULL,Auftrag,uagizaji,s,ghanima,kuzingatia,msukani,NA,sdf,NA,2,NA,NA,NA,NA,NA,NA,NA,NA,NA,NA,NA,NA,NA,NA,NA,NA,NA,NA,NA
1cfa7,"""Falsch""-Screen",canvas.Screen,3_0_2_0_2_1_2,NA,NA,timeout,4997.4,447032,447023.69,447039.8,452020.2,452021.09999999,2024-04-27T17:47:55Z,452037.2,NULL,Auftrag,uagizaji,s,ghanima,kuzingatia,msukani,NA,sdf,0,2,NA,NA,NA,NA,NA,NA,NA,NA,NA,NA,NA,NA,NA,NA,NA,NA,NA,NA,NA
1cfa7,shallow,flow.Sequence,3_0_2_0_2_1,NA,NA,completion,11192.7,440813.09999999,440810.5,440827.5,452020.2,452021.5,2024-04-27T17:47:55Z,452037.2,NULL,Auftrag,uagizaji,s,ghanima,kuzingatia,msukani,NA,sdf,NA,2,NA,NA,NA,NA,NA,NA,NA,NA,NA,NA,NA,NA,NA,NA,NA,NA,NA,NA,NA
1cfa7,task,flow.Sequence,3_0_2_0_2,NA,NA,completion,11192.7,440812.89999998,440810.5,440827.5,452020.2,452021.69999999,2024-04-27T17:47:55Z,452037.2,NULL,Auftrag,uagizaji,s,ghanima,kuzingatia,msukani,NA,sdf,NA,2,NA,NA,NA,NA,NA,NA,NA,NA,NA,NA,NA,NA,NA,NA,NA,NA,NA,NA,NA
1cfa7,Deep Question,html.Page,3_0_2_0_3_0_0,NA,NA,form submission,6492.8,452021.79999998,452020.2,452037.2,458530,458530.19999999,2024-04-27T17:48:01Z,458533.458,NULL,Abrechnung,uhasibu,d,NA,NA,NA,hertali,NA,NA,2,NA,NA,NA,NA,NA,NA,NA,NA,NA,NA,NA,NA,NA,NA,NA,NA,NA,NA,NA
1cfa7,"""Richtig""-Screen",canvas.Screen,3_0_2_0_3_0_1,NA,NA,skipped,NA,458533.29999998,NA,NA,458530,458533.39999998,2024-04-27T17:48:01Z,458533.458,NULL,Abrechnung,uhasibu,d,NA,NA,NA,NA,sdf,NA,2,NA,NA,NA,NA,NA,NA,NA,NA,NA,NA,NA,NA,NA,NA,NA,NA,NA,NA,NA
1cfa7,"""Falsch""-Screen",canvas.Screen,3_0_2_0_3_0_2,NA,NA,timeout,4996.842,458534.09999999,458533.458,458533.458,463513.4,463514.5,2024-04-27T17:48:06Z,463530.3,NULL,Abrechnung,uhasibu,d,NA,NA,NA,NA,sdf,0,2,NA,NA,NA,NA,NA,NA,NA,NA,NA,NA,NA,NA,NA,NA,NA,NA,NA,NA,NA
1cfa7,deep,flow.Sequence,3_0_2_0_3_0,NA,NA,completion,11476.2,452021.79999998,452020.2,452037.2,463513.4,463514.79999998,2024-04-27T17:48:06Z,463530.3,NULL,Abrechnung,uhasibu,d,NA,NA,NA,NA,sdf,NA,2,NA,NA,NA,NA,NA,NA,NA,NA,NA,NA,NA,NA,NA,NA,NA,NA,NA,NA,NA
1cfa7,shallow,flow.Sequence,3_0_2_0_3_1,NA,NA,skipped,NA,463514.89999998,NA,NA,463513.4,463515.09999999,2024-04-27T17:48:06Z,463530.3,NULL,Abrechnung,uhasibu,d,NA,NA,NA,NA,sdf,NA,2,NA,NA,NA,NA,NA,NA,NA,NA,NA,NA,NA,NA,NA,NA,NA,NA,NA,NA,NA
1cfa7,task,flow.Sequence,3_0_2_0_3,NA,NA,completion,11476.2,452021.69999999,452020.2,452037.2,463513.4,463515.19999999,2024-04-27T17:48:06Z,463530.3,NULL,Abrechnung,uhasibu,d,NA,NA,NA,NA,sdf,NA,2,NA,NA,NA,NA,NA,NA,NA,NA,NA,NA,NA,NA,NA,NA,NA,NA,NA,NA,NA
1cfa7,Deep Question,html.Page,3_0_2_0_4_0_0,NA,NA,form submission,11233.499999982,463515.39999998,463513.4,463530.3,474763.79999998,474764,2024-04-27T17:48:17Z,474790.2,NULL,Schönheit,kirembo,d,NA,NA,NA,wahabli,NA,NA,2,NA,NA,NA,NA,NA,NA,NA,NA,NA,NA,NA,NA,NA,NA,NA,NA,NA,NA,NA
1cfa7,"""Richtig""-Screen",canvas.Screen,3_0_2_0_4_0_1,NA,NA,skipped,NA,474765.29999998,NA,NA,474763.79999998,474765.5,2024-04-27T17:48:17Z,474790.2,NULL,Schönheit,kirembo,d,NA,NA,NA,NA,sdf,NA,2,NA,NA,NA,NA,NA,NA,NA,NA,NA,NA,NA,NA,NA,NA,NA,NA,NA,NA,NA
1cfa7,"""Falsch""-Screen",canvas.Screen,3_0_2_0_4_0_2,NA,NA,timeout,4997,474765.79999998,474773.564,474790.2,479770.6,479771,2024-04-27T17:48:22Z,479787.2,NULL,Schönheit,kirembo,d,NA,NA,NA,NA,sdf,0,2,NA,NA,NA,NA,NA,NA,NA,NA,NA,NA,NA,NA,NA,NA,NA,NA,NA,NA,NA
1cfa7,deep,flow.Sequence,3_0_2_0_4_0,NA,NA,completion,16240.3,463515.39999998,463513.4,463530.3,479770.6,479771.09999999,2024-04-27T17:48:22Z,479787.2,NULL,Schönheit,kirembo,d,NA,NA,NA,NA,sdf,NA,2,NA,NA,NA,NA,NA,NA,NA,NA,NA,NA,NA,NA,NA,NA,NA,NA,NA,NA,NA
1cfa7,shallow,flow.Sequence,3_0_2_0_4_1,NA,NA,skipped,NA,479771.19999999,NA,NA,479770.6,479771.19999999,2024-04-27T17:48:22Z,479787.2,NULL,Schönheit,kirembo,d,NA,NA,NA,NA,sdf,NA,2,NA,NA,NA,NA,NA,NA,NA,NA,NA,NA,NA,NA,NA,NA,NA,NA,NA,NA,NA
1cfa7,task,flow.Sequence,3_0_2_0_4,NA,NA,completion,16240.3,463515.39999998,463513.4,463530.3,479770.6,479771.19999999,2024-04-27T17:48:22Z,479787.2,NULL,Schönheit,kirembo,d,NA,NA,NA,NA,sdf,NA,2,NA,NA,NA,NA,NA,NA,NA,NA,NA,NA,NA,NA,NA,NA,NA,NA,NA,NA,NA
1cfa7,deep,flow.Sequence,3_0_2_0_5_0,NA,NA,skipped,NA,479771.19999999,NA,NA,479770.6,479771.19999999,2024-04-27T17:48:22Z,479787.2,NULL,Sänger,mwimbaji,s,msichana,shughuli,mshirika,NA,sdf,NA,2,NA,NA,NA,NA,NA,NA,NA,NA,NA,NA,NA,NA,NA,NA,NA,NA,NA,NA,NA
1cfa7,Shallow Question,html.Page,3_0_2_0_5_1_0,NA,NA,form submission,7935.899999994,479771.29999998,479770.6,479787.2,487723.09999999,487723.29999998,2024-04-27T17:48:30Z,487732.322,NULL,Sänger,mwimbaji,s,msichana,shughuli,mshirika,mshirika,NA,NA,2,NA,NA,NA,NA,NA,NA,NA,NA,NA,NA,NA,NA,NA,NA,NA,NA,NA,NA,NA
1cfa7,"""Richtig""-Screen",canvas.Screen,3_0_2_0_5_1_1,NA,NA,skipped,NA,487726.39999998,NA,NA,487723.09999999,487726.59999999,2024-04-27T17:48:30Z,487732.322,NULL,Sänger,mwimbaji,s,msichana,shughuli,mshirika,NA,sdf,NA,2,NA,NA,NA,NA,NA,NA,NA,NA,NA,NA,NA,NA,NA,NA,NA,NA,NA,NA,NA
1cfa7,"""Falsch""-Screen",canvas.Screen,3_0_2_0_5_1_2,NA,NA,timeout,4996.778,487727.39999998,487732.322,487732.322,492712.2,492713.09999999,2024-04-27T17:48:35Z,492729.1,NULL,Sänger,mwimbaji,s,msichana,shughuli,mshirika,NA,sdf,0,2,NA,NA,NA,NA,NA,NA,NA,NA,NA,NA,NA,NA,NA,NA,NA,NA,NA,NA,NA
1cfa7,shallow,flow.Sequence,3_0_2_0_5_1,NA,NA,completion,12925,479771.29999998,479770.6,479787.2,492712.2,492713.5,2024-04-27T17:48:35Z,492729.1,NULL,Sänger,mwimbaji,s,msichana,shughuli,mshirika,NA,sdf,NA,2,NA,NA,NA,NA,NA,NA,NA,NA,NA,NA,NA,NA,NA,NA,NA,NA,NA,NA,NA
1cfa7,task,flow.Sequence,3_0_2_0_5,NA,NA,completion,12925,479771.19999999,479770.6,479787.2,492712.2,492713.69999999,2024-04-27T17:48:35Z,492729.1,NULL,Sänger,mwimbaji,s,msichana,shughuli,mshirika,NA,sdf,NA,2,NA,NA,NA,NA,NA,NA,NA,NA,NA,NA,NA,NA,NA,NA,NA,NA,NA,NA,NA
1cfa7,deep,flow.Sequence,3_0_2_0_6_0,NA,NA,skipped,NA,492713.89999998,NA,NA,492712.2,492714,2024-04-27T17:48:35Z,492729.1,NULL,Angreifer,mshambulizi,s,kitengo,tasinia,usafirishaji,NA,sdf,NA,2,NA,NA,NA,NA,NA,NA,NA,NA,NA,NA,NA,NA,NA,NA,NA,NA,NA,NA,NA
1cfa7,Shallow Question,html.Page,3_0_2_0_6_1_0,NA,NA,form submission,7436.2999999762,492714.19999999,492712.2,492729.1,500165.39999998,500165.69999999,2024-04-27T17:48:43Z,500174.2,NULL,Angreifer,mshambulizi,s,kitengo,tasinia,usafirishaji,kitengo,NA,NA,2,NA,NA,NA,NA,NA,NA,NA,NA,NA,NA,NA,NA,NA,NA,NA,NA,NA,NA,NA
1cfa7,"""Richtig""-Screen",canvas.Screen,3_0_2_0_6_1_1,NA,NA,skipped,NA,500168.79999998,NA,NA,500165.39999998,500168.89999998,2024-04-27T17:48:43Z,500174.2,NULL,Angreifer,mshambulizi,s,kitengo,tasinia,usafirishaji,NA,sdf,NA,2,NA,NA,NA,NA,NA,NA,NA,NA,NA,NA,NA,NA,NA,NA,NA,NA,NA,NA,NA
1cfa7,"""Falsch""-Screen",canvas.Screen,3_0_2_0_6_1_2,NA,NA,timeout,4997.1,500169.69999999,500158.084,500174.2,505154.5,505155.5,2024-04-27T17:48:48Z,505171.3,NULL,Angreifer,mshambulizi,s,kitengo,tasinia,usafirishaji,NA,sdf,0,2,NA,NA,NA,NA,NA,NA,NA,NA,NA,NA,NA,NA,NA,NA,NA,NA,NA,NA,NA
1cfa7,shallow,flow.Sequence,3_0_2_0_6_1,NA,NA,completion,12425.4,492714.09999999,492712.2,492729.1,505154.5,505155.79999998,2024-04-27T17:48:48Z,505171.3,NULL,Angreifer,mshambulizi,s,kitengo,tasinia,usafirishaji,NA,sdf,NA,2,NA,NA,NA,NA,NA,NA,NA,NA,NA,NA,NA,NA,NA,NA,NA,NA,NA,NA,NA
1cfa7,task,flow.Sequence,3_0_2_0_6,NA,NA,completion,12425.4,492713.79999998,492712.2,492729.1,505154.5,505156,2024-04-27T17:48:48Z,505171.3,NULL,Angreifer,mshambulizi,s,kitengo,tasinia,usafirishaji,NA,sdf,NA,2,NA,NA,NA,NA,NA,NA,NA,NA,NA,NA,NA,NA,NA,NA,NA,NA,NA,NA,NA
1cfa7,deep,flow.Sequence,3_0_2_0_7_0,NA,NA,skipped,NA,505156.19999999,NA,NA,505154.5,505156.39999998,2024-04-27T17:48:48Z,505171.3,NULL,Wettbewerb,ushindani,s,mapendezi,kichocheo,ubaguzi,NA,sdf,NA,2,NA,NA,NA,NA,NA,NA,NA,NA,NA,NA,NA,NA,NA,NA,NA,NA,NA,NA,NA
1cfa7,Shallow Question,html.Page,3_0_2_0_7_1_0,NA,NA,form submission,6638.0999999762,505156.39999998,505154.5,505171.3,511809.39999998,511809.59999999,2024-04-27T17:48:54Z,511817,NULL,Wettbewerb,ushindani,s,mapendezi,kichocheo,ubaguzi,ushindani,NA,NA,2,NA,NA,NA,NA,NA,NA,NA,NA,NA,NA,NA,NA,NA,NA,NA,NA,NA,NA,NA
1cfa7,"""Richtig""-Screen",canvas.Screen,3_0_2_0_7_1_1,NA,NA,timeout,4997.4,511812.59999999,511800.7,511817,516797.8,516798.69999999,2024-04-27T17:48:59Z,516814.4,NULL,Wettbewerb,ushindani,s,mapendezi,kichocheo,ubaguzi,NA,sdf,1,2,NA,NA,NA,NA,NA,NA,NA,NA,NA,NA,NA,NA,NA,NA,NA,NA,NA,NA,NA
1cfa7,"""Falsch""-Screen",canvas.Screen,3_0_2_0_7_1_2,NA,NA,skipped,NA,516804,NA,NA,516797.8,516804.09999999,2024-04-27T17:48:59Z,516814.4,NULL,Wettbewerb,ushindani,s,mapendezi,kichocheo,ubaguzi,NA,sdf,NA,2,NA,NA,NA,NA,NA,NA,NA,NA,NA,NA,NA,NA,NA,NA,NA,NA,NA,NA,NA
1cfa7,shallow,flow.Sequence,3_0_2_0_7_1,NA,NA,completion,11626.5,505156.39999998,505154.5,505171.3,516797.8,516804.19999999,2024-04-27T17:48:59Z,516814.4,NULL,Wettbewerb,ushindani,s,mapendezi,kichocheo,ubaguzi,NA,sdf,NA,2,NA,NA,NA,NA,NA,NA,NA,NA,NA,NA,NA,NA,NA,NA,NA,NA,NA,NA,NA
1cfa7,task,flow.Sequence,3_0_2_0_7,NA,NA,completion,11626.5,505156.09999999,505154.5,505171.3,516797.8,516804.19999999,2024-04-27T17:48:59Z,516814.4,NULL,Wettbewerb,ushindani,s,mapendezi,kichocheo,ubaguzi,NA,sdf,NA,2,NA,NA,NA,NA,NA,NA,NA,NA,NA,NA,NA,NA,NA,NA,NA,NA,NA,NA,NA
1cfa7,block,flow.Loop,3_0_2_0,NA,NA,completion,101987.316,414817.79999998,414810.484,414810.484,516797.8,516804.39999998,2024-04-27T17:48:59Z,516814.4,NULL,NA,NA,NA,NA,NA,NA,NA,sdf,NA,2,NA,NA,NA,NA,NA,NA,NA,NA,NA,NA,NA,NA,NA,NA,NA,NA,NA,NA,NA
1cfa7,weiter,canvas.Screen,3_0_2_1,sdf,keypress(Space),response,1176.3999999821,516804.39999998,516797.8,516814.4,517990.79999998,517991.79999998,2024-04-27T17:49:00Z,517997.138,NULL,NA,NA,NA,NA,NA,NA,NA,sdf,NA,2,NA,NA,NA,NA,NA,NA,NA,NA,NA,NA,NA,NA,NA,NA,NA,NA,NA,NA,NA
1cfa7,check continue,flow.Sequence,3_0_2,NA,NA,completion,103180.31599998,414817.79999998,414810.484,414810.484,517990.79999998,517992,2024-04-27T17:49:00Z,517997.138,NULL,NA,NA,NA,NA,NA,NA,NA,sdf,NA,2,NA,NA,NA,NA,NA,NA,NA,NA,NA,NA,NA,NA,NA,NA,NA,NA,NA,NA,NA
1cfa7,Deep Question,html.Page,3_0_3_0_0_0_0,NA,NA,form submission,6240.4619999941,518010.29999998,517997.138,517997.138,524237.59999999,524237.89999998,2024-04-27T17:49:07Z,524243.456,NULL,Zufall,kikuti,d,NA,NA,NA,uhakini,NA,NA,3,NA,NA,NA,NA,NA,NA,NA,NA,NA,NA,NA,NA,NA,NA,NA,NA,NA,NA,NA
1cfa7,"""Richtig""-Screen",canvas.Screen,3_0_3_0_0_0_1,NA,NA,skipped,NA,524240.69999999,NA,NA,524237.59999999,524240.89999998,2024-04-27T17:49:07Z,524243.456,NULL,Zufall,kikuti,d,NA,NA,NA,NA,qt,NA,3,NA,NA,NA,NA,NA,NA,NA,NA,NA,NA,NA,NA,NA,NA,NA,NA,NA,NA,NA
1cfa7,"""Falsch""-Screen",canvas.Screen,3_0_3_0_0_0_2,NA,NA,timeout,4996.544,524241.69999999,524243.456,524243.456,529223.3,529224.39999998,2024-04-27T17:49:12Z,529240,NULL,Zufall,kikuti,d,NA,NA,NA,NA,qt,0,3,NA,NA,NA,NA,NA,NA,NA,NA,NA,NA,NA,NA,NA,NA,NA,NA,NA,NA,NA
1cfa7,deep,flow.Sequence,3_0_3_0_0_0,NA,NA,completion,11226.162,518010.29999998,517997.138,517997.138,529223.3,529224.69999999006,2024-04-27T17:49:12Z,529240,NULL,Zufall,kikuti,d,NA,NA,NA,NA,qt,NA,3,NA,NA,NA,NA,NA,NA,NA,NA,NA,NA,NA,NA,NA,NA,NA,NA,NA,NA,NA
1cfa7,shallow,flow.Sequence,3_0_3_0_0_1,NA,NA,skipped,NA,529224.89999998,NA,NA,529223.3,529225,2024-04-27T17:49:12Z,529240,NULL,Zufall,kikuti,d,NA,NA,NA,NA,qt,NA,3,NA,NA,NA,NA,NA,NA,NA,NA,NA,NA,NA,NA,NA,NA,NA,NA,NA,NA,NA
1cfa7,task,flow.Sequence,3_0_3_0_0,NA,NA,completion,11226.162,518010.29999998,517997.138,517997.138,529223.3,529225.29999998,2024-04-27T17:49:12Z,529240,NULL,Zufall,kikuti,d,NA,NA,NA,NA,qt,NA,3,NA,NA,NA,NA,NA,NA,NA,NA,NA,NA,NA,NA,NA,NA,NA,NA,NA,NA,NA
1cfa7,deep,flow.Sequence,3_0_3_0_1_0,NA,NA,skipped,NA,529225.39999998,NA,NA,529223.3,529225.5,2024-04-27T17:49:12Z,529240,NULL,Angreifer,mshambulizi,s,kitengo,tasinia,usafirishaji,NA,qt,NA,3,NA,NA,NA,NA,NA,NA,NA,NA,NA,NA,NA,NA,NA,NA,NA,NA,NA,NA,NA
1cfa7,Shallow Question,html.Page,3_0_3_0_1_1_0,NA,NA,form submission,5261.599999994,529225.69999999006,529223.3,529240,534501.59999999,534501.69999999006,2024-04-27T17:49:17Z,534503.762,NULL,Angreifer,mshambulizi,s,kitengo,tasinia,usafirishaji,mshambulizi,NA,NA,3,NA,NA,NA,NA,NA,NA,NA,NA,NA,NA,NA,NA,NA,NA,NA,NA,NA,NA,NA
1cfa7,"""Richtig""-Screen",canvas.Screen,3_0_3_0_1_1_1,NA,NA,timeout,4996.738,534505.19999999006,534503.762,534503.762,539483.9,539484.79999998,2024-04-27T17:49:22Z,539500.5,NULL,Angreifer,mshambulizi,s,kitengo,tasinia,usafirishaji,NA,qt,1,3,NA,NA,NA,NA,NA,NA,NA,NA,NA,NA,NA,NA,NA,NA,NA,NA,NA,NA,NA
1cfa7,"""Falsch""-Screen",canvas.Screen,3_0_3_0_1_1_2,NA,NA,skipped,NA,539490.09999999,NA,NA,539483.9,539490.19999999006,2024-04-27T17:49:22Z,539500.5,NULL,Angreifer,mshambulizi,s,kitengo,tasinia,usafirishaji,NA,qt,NA,3,NA,NA,NA,NA,NA,NA,NA,NA,NA,NA,NA,NA,NA,NA,NA,NA,NA,NA,NA
1cfa7,shallow,flow.Sequence,3_0_3_0_1_1,NA,NA,completion,10243.9,529225.59999999,529223.3,529240,539483.9,539490.29999998,2024-04-27T17:49:22Z,539500.5,NULL,Angreifer,mshambulizi,s,kitengo,tasinia,usafirishaji,NA,qt,NA,3,NA,NA,NA,NA,NA,NA,NA,NA,NA,NA,NA,NA,NA,NA,NA,NA,NA,NA,NA
1cfa7,task,flow.Sequence,3_0_3_0_1,NA,NA,completion,10243.9,529225.39999998,529223.3,529240,539483.9,539490.39999998,2024-04-27T17:49:22Z,539500.5,NULL,Angreifer,mshambulizi,s,kitengo,tasinia,usafirishaji,NA,qt,NA,3,NA,NA,NA,NA,NA,NA,NA,NA,NA,NA,NA,NA,NA,NA,NA,NA,NA,NA,NA
1cfa7,Deep Question,html.Page,3_0_3_0_2_0_0,NA,NA,form submission,10223.399999976,539490.39999998,539483.9,539500.5,549723.89999998,549724.19999999006,2024-04-27T17:49:32Z,549727.69,NULL,Schönheit,kirembo,d,NA,NA,NA,uhakarini,NA,NA,3,NA,NA,NA,NA,NA,NA,NA,NA,NA,NA,NA,NA,NA,NA,NA,NA,NA,NA,NA
1cfa7,"""Richtig""-Screen",canvas.Screen,3_0_3_0_2_0_1,NA,NA,skipped,NA,549727.09999999,NA,NA,549723.89999998,549727.19999999006,2024-04-27T17:49:32Z,549727.69,NULL,Schönheit,kirembo,d,NA,NA,NA,NA,qt,NA,3,NA,NA,NA,NA,NA,NA,NA,NA,NA,NA,NA,NA,NA,NA,NA,NA,NA,NA,NA
1cfa7,"""Falsch""-Screen",canvas.Screen,3_0_3_0_2_0_2,NA,NA,timeout,4996.91,549728.09999999,549727.69,549727.69,554707.7,554708.59999999,2024-04-27T17:49:37Z,554724.6,NULL,Schönheit,kirembo,d,NA,NA,NA,NA,qt,0,3,NA,NA,NA,NA,NA,NA,NA,NA,NA,NA,NA,NA,NA,NA,NA,NA,NA,NA,NA
1cfa7,deep,flow.Sequence,3_0_3_0_2_0,NA,NA,completion,15207.2,539490.39999998,539483.9,539500.5,554707.7,554709,2024-04-27T17:49:37Z,554724.6,NULL,Schönheit,kirembo,d,NA,NA,NA,NA,qt,NA,3,NA,NA,NA,NA,NA,NA,NA,NA,NA,NA,NA,NA,NA,NA,NA,NA,NA,NA,NA
1cfa7,shallow,flow.Sequence,3_0_3_0_2_1,NA,NA,skipped,NA,554709.19999999006,NA,NA,554707.7,554709.19999999006,2024-04-27T17:49:37Z,554724.6,NULL,Schönheit,kirembo,d,NA,NA,NA,NA,qt,NA,3,NA,NA,NA,NA,NA,NA,NA,NA,NA,NA,NA,NA,NA,NA,NA,NA,NA,NA,NA
1cfa7,task,flow.Sequence,3_0_3_0_2,NA,NA,completion,15207.2,539490.39999998,539483.9,539500.5,554707.7,554709.39999998,2024-04-27T17:49:37Z,554724.6,NULL,Schönheit,kirembo,d,NA,NA,NA,NA,qt,NA,3,NA,NA,NA,NA,NA,NA,NA,NA,NA,NA,NA,NA,NA,NA,NA,NA,NA,NA,NA
1cfa7,deep,flow.Sequence,3_0_3_0_3_0,NA,NA,skipped,NA,554709.59999999,NA,NA,554707.7,554709.69999999006,2024-04-27T17:49:37Z,554724.6,NULL,Wettbewerb,ushindani,s,mapendezi,kichocheo,ubaguzi,NA,qt,NA,3,NA,NA,NA,NA,NA,NA,NA,NA,NA,NA,NA,NA,NA,NA,NA,NA,NA,NA,NA
1cfa7,Shallow Question,html.Page,3_0_3_0_3_1_0,NA,NA,form submission,4106.9999999941,554709.79999998,554707.7,554724.6,558831.59999999,558831.79999998,2024-04-27T17:49:41Z,558855.4,NULL,Wettbewerb,ushindani,s,mapendezi,kichocheo,ubaguzi,ushindani,NA,NA,3,NA,NA,NA,NA,NA,NA,NA,NA,NA,NA,NA,NA,NA,NA,NA,NA,NA,NA,NA
1cfa7,"""Richtig""-Screen",canvas.Screen,3_0_3_0_3_1_1,NA,NA,timeout,4996.9,558834.69999999006,558838.6,558855.4,563835.3,563836.29999998,2024-04-27T17:49:46Z,563852.3,NULL,Wettbewerb,ushindani,s,mapendezi,kichocheo,ubaguzi,NA,qt,1,3,NA,NA,NA,NA,NA,NA,NA,NA,NA,NA,NA,NA,NA,NA,NA,NA,NA,NA,NA
1cfa7,"""Falsch""-Screen",canvas.Screen,3_0_3_0_3_1_2,NA,NA,skipped,NA,563841.39999998,NA,NA,563835.3,563841.5,2024-04-27T17:49:46Z,563852.3,NULL,Wettbewerb,ushindani,s,mapendezi,kichocheo,ubaguzi,NA,qt,NA,3,NA,NA,NA,NA,NA,NA,NA,NA,NA,NA,NA,NA,NA,NA,NA,NA,NA,NA,NA
1cfa7,shallow,flow.Sequence,3_0_3_0_3_1,NA,NA,completion,9110.7000000001,554709.79999998,554707.7,554724.6,563835.3,563841.59999999,2024-04-27T17:49:46Z,563852.3,NULL,Wettbewerb,ushindani,s,mapendezi,kichocheo,ubaguzi,NA,qt,NA,3,NA,NA,NA,NA,NA,NA,NA,NA,NA,NA,NA,NA,NA,NA,NA,NA,NA,NA,NA
1cfa7,task,flow.Sequence,3_0_3_0_3,NA,NA,completion,9110.7000000001,554709.5,554707.7,554724.6,563835.3,563841.69999999006,2024-04-27T17:49:46Z,563852.3,NULL,Wettbewerb,ushindani,s,mapendezi,kichocheo,ubaguzi,NA,qt,NA,3,NA,NA,NA,NA,NA,NA,NA,NA,NA,NA,NA,NA,NA,NA,NA,NA,NA,NA,NA
1cfa7,deep,flow.Sequence,3_0_3_0_4_0,NA,NA,skipped,NA,563841.79999998,NA,NA,563835.3,563841.79999998,2024-04-27T17:49:46Z,563852.3,NULL,Sänger,mwimbaji,s,msichana,shughuli,mshirika,NA,qt,NA,3,NA,NA,NA,NA,NA,NA,NA,NA,NA,NA,NA,NA,NA,NA,NA,NA,NA,NA,NA
1cfa7,Shallow Question,html.Page,3_0_3_0_4_1_0,NA,NA,form submission,6746.9999999821,563841.79999998,563835.3,563852.3,570599.29999998,570599.5,2024-04-27T17:49:53Z,570614.5,NULL,Sänger,mwimbaji,s,msichana,shughuli,mshirika,mwimbaji,NA,NA,3,NA,NA,NA,NA,NA,NA,NA,NA,NA,NA,NA,NA,NA,NA,NA,NA,NA,NA,NA
1cfa7,"""Richtig""-Screen",canvas.Screen,3_0_3_0_4_1_1,NA,NA,timeout,4997.4,570602.29999998,570598.328,570614.5,575595,575596,2024-04-27T17:49:58Z,575611.9,NULL,Sänger,mwimbaji,s,msichana,shughuli,mshirika,NA,qt,1,3,NA,NA,NA,NA,NA,NA,NA,NA,NA,NA,NA,NA,NA,NA,NA,NA,NA,NA,NA
1cfa7,"""Falsch""-Screen",canvas.Screen,3_0_3_0_4_1_2,NA,NA,skipped,NA,575601.39999998,NA,NA,575595,575601.5,2024-04-27T17:49:58Z,575611.9,NULL,Sänger,mwimbaji,s,msichana,shughuli,mshirika,NA,qt,NA,3,NA,NA,NA,NA,NA,NA,NA,NA,NA,NA,NA,NA,NA,NA,NA,NA,NA,NA,NA
1cfa7,shallow,flow.Sequence,3_0_3_0_4_1,NA,NA,completion,11742.7,563841.79999998,563835.3,563852.3,575595,575601.59999999,2024-04-27T17:49:58Z,575611.9,NULL,Sänger,mwimbaji,s,msichana,shughuli,mshirika,NA,qt,NA,3,NA,NA,NA,NA,NA,NA,NA,NA,NA,NA,NA,NA,NA,NA,NA,NA,NA,NA,NA
1cfa7,task,flow.Sequence,3_0_3_0_4,NA,NA,completion,11742.7,563841.79999998,563835.3,563852.3,575595,575601.59999999,2024-04-27T17:49:58Z,575611.9,NULL,Sänger,mwimbaji,s,msichana,shughuli,mshirika,NA,qt,NA,3,NA,NA,NA,NA,NA,NA,NA,NA,NA,NA,NA,NA,NA,NA,NA,NA,NA,NA,NA
1cfa7,deep,flow.Sequence,3_0_3_0_5_0,NA,NA,skipped,NA,575601.69999999006,NA,NA,575595,575601.69999999006,2024-04-27T17:49:58Z,575611.9,NULL,Auftrag,uagizaji,s,ghanima,kuzingatia,msukani,NA,qt,NA,3,NA,NA,NA,NA,NA,NA,NA,NA,NA,NA,NA,NA,NA,NA,NA,NA,NA,NA,NA
1cfa7,Shallow Question,html.Page,3_0_3_0_5_1_0,NA,NA,form submission,5661.8999999821,575601.79999998,575595,575611.9,581273.79999998,581274,2024-04-27T17:50:04Z,581275.284,NULL,Auftrag,uagizaji,s,ghanima,kuzingatia,msukani,uagizaji,NA,NA,3,NA,NA,NA,NA,NA,NA,NA,NA,NA,NA,NA,NA,NA,NA,NA,NA,NA,NA,NA
1cfa7,"""Richtig""-Screen",canvas.Screen,3_0_3_0_5_1_1,NA,NA,timeout,4996.5160000001,581277,581275.284,581275.284,586255.4,586255.89999998,2024-04-27T17:50:09Z,586271.8,NULL,Auftrag,uagizaji,s,ghanima,kuzingatia,msukani,NA,qt,1,3,NA,NA,NA,NA,NA,NA,NA,NA,NA,NA,NA,NA,NA,NA,NA,NA,NA,NA,NA
1cfa7,"""Falsch""-Screen",canvas.Screen,3_0_3_0_5_1_2,NA,NA,skipped,NA,586257.59999999,NA,NA,586255.4,586257.69999999006,2024-04-27T17:50:09Z,586271.8,NULL,Auftrag,uagizaji,s,ghanima,kuzingatia,msukani,NA,qt,NA,3,NA,NA,NA,NA,NA,NA,NA,NA,NA,NA,NA,NA,NA,NA,NA,NA,NA,NA,NA
1cfa7,shallow,flow.Sequence,3_0_3_0_5_1,NA,NA,completion,10643.5,575601.79999998,575595,575611.9,586255.4,586257.79999998,2024-04-27T17:50:09Z,586271.8,NULL,Auftrag,uagizaji,s,ghanima,kuzingatia,msukani,NA,qt,NA,3,NA,NA,NA,NA,NA,NA,NA,NA,NA,NA,NA,NA,NA,NA,NA,NA,NA,NA,NA
1cfa7,task,flow.Sequence,3_0_3_0_5,NA,NA,completion,10643.5,575601.69999999006,575595,575611.9,586255.4,586257.79999998,2024-04-27T17:50:09Z,586271.8,NULL,Auftrag,uagizaji,s,ghanima,kuzingatia,msukani,NA,qt,NA,3,NA,NA,NA,NA,NA,NA,NA,NA,NA,NA,NA,NA,NA,NA,NA,NA,NA,NA,NA
1cfa7,Deep Question,html.Page,3_0_3_0_6_0_0,NA,NA,form submission,7206.0999999761,586257.79999998,586255.4,586271.8,593477.89999998,593478.19999999006,2024-04-27T17:50:16Z,593483.9,NULL,Kanzler,diwani,d,NA,NA,NA,darani,NA,NA,3,NA,NA,NA,NA,NA,NA,NA,NA,NA,NA,NA,NA,NA,NA,NA,NA,NA,NA,NA
1cfa7,"""Richtig""-Screen",canvas.Screen,3_0_3_0_6_0_1,NA,NA,skipped,NA,593481.19999999006,NA,NA,593477.89999998,593481.19999999006,2024-04-27T17:50:16Z,593483.9,NULL,Kanzler,diwani,d,NA,NA,NA,NA,qt,NA,3,NA,NA,NA,NA,NA,NA,NA,NA,NA,NA,NA,NA,NA,NA,NA,NA,NA,NA,NA
1cfa7,"""Falsch""-Screen",canvas.Screen,3_0_3_0_6_0_2,NA,NA,timeout,4997.2,593482,593467.654,593483.9,598464.2,598465.09999999,2024-04-27T17:50:21Z,598481.1,NULL,Kanzler,diwani,d,NA,NA,NA,NA,qt,0,3,NA,NA,NA,NA,NA,NA,NA,NA,NA,NA,NA,NA,NA,NA,NA,NA,NA,NA,NA
1cfa7,deep,flow.Sequence,3_0_3_0_6_0,NA,NA,completion,12192.4,586257.79999998,586255.4,586271.8,598464.2,598465.39999998,2024-04-27T17:50:21Z,598481.1,NULL,Kanzler,diwani,d,NA,NA,NA,NA,qt,NA,3,NA,NA,NA,NA,NA,NA,NA,NA,NA,NA,NA,NA,NA,NA,NA,NA,NA,NA,NA
1cfa7,shallow,flow.Sequence,3_0_3_0_6_1,NA,NA,skipped,NA,598465.59999999,NA,NA,598464.2,598465.69999999006,2024-04-27T17:50:21Z,598481.1,NULL,Kanzler,diwani,d,NA,NA,NA,NA,qt,NA,3,NA,NA,NA,NA,NA,NA,NA,NA,NA,NA,NA,NA,NA,NA,NA,NA,NA,NA,NA
1cfa7,task,flow.Sequence,3_0_3_0_6,NA,NA,completion,12192.4,586257.79999998,586255.4,586271.8,598464.2,598465.89999998,2024-04-27T17:50:21Z,598481.1,NULL,Kanzler,diwani,d,NA,NA,NA,NA,qt,NA,3,NA,NA,NA,NA,NA,NA,NA,NA,NA,NA,NA,NA,NA,NA,NA,NA,NA,NA,NA
1cfa7,Deep Question,html.Page,3_0_3_0_7_0_0,NA,NA,form submission,8000.9999999941,598466.09999999,598464.2,598481.1,606482.09999999,606482.19999999006,2024-04-27T17:50:29Z,606492.7,NULL,Abrechnung,uhasibu,d,NA,NA,NA,harakini,NA,NA,3,NA,NA,NA,NA,NA,NA,NA,NA,NA,NA,NA,NA,NA,NA,NA,NA,NA,NA,NA
1cfa7,"""Richtig""-Screen",canvas.Screen,3_0_3_0_7_0_1,NA,NA,skipped,NA,606485.29999998,NA,NA,606482.09999999,606485.39999998,2024-04-27T17:50:29Z,606492.7,NULL,Abrechnung,uhasibu,d,NA,NA,NA,NA,qt,NA,3,NA,NA,NA,NA,NA,NA,NA,NA,NA,NA,NA,NA,NA,NA,NA,NA,NA,NA,NA
1cfa7,"""Falsch""-Screen",canvas.Screen,3_0_3_0_7_0_2,NA,NA,timeout,4996.8,606486.19999999006,606476.588,606492.7,611472.9,611474.59999999,2024-04-27T17:50:34Z,611489.5,NULL,Abrechnung,uhasibu,d,NA,NA,NA,NA,qt,0,3,NA,NA,NA,NA,NA,NA,NA,NA,NA,NA,NA,NA,NA,NA,NA,NA,NA,NA,NA
1cfa7,deep,flow.Sequence,3_0_3_0_7_0,NA,NA,completion,12991.8,598466,598464.2,598481.1,611472.9,611474.89999998,2024-04-27T17:50:34Z,611489.5,NULL,Abrechnung,uhasibu,d,NA,NA,NA,NA,qt,NA,3,NA,NA,NA,NA,NA,NA,NA,NA,NA,NA,NA,NA,NA,NA,NA,NA,NA,NA,NA
1cfa7,shallow,flow.Sequence,3_0_3_0_7_1,NA,NA,skipped,NA,611475,NA,NA,611472.9,611475.19999999006,2024-04-27T17:50:34Z,611489.5,NULL,Abrechnung,uhasibu,d,NA,NA,NA,NA,qt,NA,3,NA,NA,NA,NA,NA,NA,NA,NA,NA,NA,NA,NA,NA,NA,NA,NA,NA,NA,NA
1cfa7,task,flow.Sequence,3_0_3_0_7,NA,NA,completion,12991.8,598466,598464.2,598481.1,611472.9,611475.39999998,2024-04-27T17:50:34Z,611489.5,NULL,Abrechnung,uhasibu,d,NA,NA,NA,NA,qt,NA,3,NA,NA,NA,NA,NA,NA,NA,NA,NA,NA,NA,NA,NA,NA,NA,NA,NA,NA,NA
1cfa7,block,flow.Loop,3_0_3_0,NA,NA,completion,93475.762,518010.19999999,517997.138,517997.138,611472.9,611475.59999999,2024-04-27T17:50:34Z,611489.5,NULL,NA,NA,NA,NA,NA,NA,NA,qt,NA,3,NA,NA,NA,NA,NA,NA,NA,NA,NA,NA,NA,NA,NA,NA,NA,NA,NA,NA,NA
1cfa7,weiter,canvas.Screen,3_0_3_1,sdf,keypress(Space),response,1066.8999999762,611475.69999999006,611472.9,611489.5,612556.39999998,612557.39999998,2024-04-27T17:50:35Z,612572.88,NULL,NA,NA,NA,NA,NA,NA,NA,qt,NA,3,NA,NA,NA,NA,NA,NA,NA,NA,NA,NA,NA,NA,NA,NA,NA,NA,NA,NA,NA
1cfa7,check continue,flow.Sequence,3_0_3,NA,NA,completion,94559.261999976,518010.19999999,517997.138,517997.138,612556.39999998,612557.69999999006,2024-04-27T17:50:35Z,612572.88,NULL,NA,NA,NA,NA,NA,NA,NA,qt,NA,3,NA,NA,NA,NA,NA,NA,NA,NA,NA,NA,NA,NA,NA,NA,NA,NA,NA,NA,NA
1cfa7,Deep Question,html.Page,3_0_4_0_0_0_0,NA,NA,form submission,10163.019999976,612577.39999998,612572.88,612572.88,622735.89999998,622736.19999999006,2024-04-27T17:50:45Z,622749.8,NULL,Zufall,kikuti,d,NA,NA,NA,uhasini,NA,NA,4,NA,NA,NA,NA,NA,NA,NA,NA,NA,NA,NA,NA,NA,NA,NA,NA,NA,NA,NA
1cfa7,"""Richtig""-Screen",canvas.Screen,3_0_4_0_0_0_1,NA,NA,skipped,NA,622739.09999999,NA,NA,622735.89999998,622739.29999998,2024-04-27T17:50:45Z,622749.8,NULL,Zufall,kikuti,d,NA,NA,NA,NA,sd,NA,4,NA,NA,NA,NA,NA,NA,NA,NA,NA,NA,NA,NA,NA,NA,NA,NA,NA,NA,NA
1cfa7,"""Falsch""-Screen",canvas.Screen,3_0_4_0_0_0_2,NA,NA,timeout,4996.7999999999,622740,622733.262,622749.8,627729.7,627730.59999999,2024-04-27T17:50:50Z,627746.6,NULL,Zufall,kikuti,d,NA,NA,NA,NA,sd,0,4,NA,NA,NA,NA,NA,NA,NA,NA,NA,NA,NA,NA,NA,NA,NA,NA,NA,NA,NA
1cfa7,deep,flow.Sequence,3_0_4_0_0_0,NA,NA,completion,15156.82,612577.39999998,612572.88,612572.88,627729.7,627730.79999998,2024-04-27T17:50:50Z,627746.6,NULL,Zufall,kikuti,d,NA,NA,NA,NA,sd,NA,4,NA,NA,NA,NA,NA,NA,NA,NA,NA,NA,NA,NA,NA,NA,NA,NA,NA,NA,NA
1cfa7,shallow,flow.Sequence,3_0_4_0_0_1,NA,NA,skipped,NA,627730.89999998,NA,NA,627729.7,627731.09999999,2024-04-27T17:50:50Z,627746.6,NULL,Zufall,kikuti,d,NA,NA,NA,NA,sd,NA,4,NA,NA,NA,NA,NA,NA,NA,NA,NA,NA,NA,NA,NA,NA,NA,NA,NA,NA,NA
1cfa7,task,flow.Sequence,3_0_4_0_0,NA,NA,completion,15156.82,612577.39999998,612572.88,612572.88,627729.7,627731.29999998,2024-04-27T17:50:50Z,627746.6,NULL,Zufall,kikuti,d,NA,NA,NA,NA,sd,NA,4,NA,NA,NA,NA,NA,NA,NA,NA,NA,NA,NA,NA,NA,NA,NA,NA,NA,NA,NA
1cfa7,Deep Question,html.Page,3_0_4_0_1_0_0,NA,NA,form submission,6157.2999999762,627731.39999998,627729.7,627746.6,633903.89999998,633904.09999999,2024-04-27T17:50:56Z,633909.2,NULL,Abrechnung,uhasibu,d,NA,NA,NA,karakumi,NA,NA,4,NA,NA,NA,NA,NA,NA,NA,NA,NA,NA,NA,NA,NA,NA,NA,NA,NA,NA,NA
1cfa7,"""Richtig""-Screen",canvas.Screen,3_0_4_0_1_0_1,NA,NA,skipped,NA,633906.89999998,NA,NA,633903.89999998,633907,2024-04-27T17:50:56Z,633909.2,NULL,Abrechnung,uhasibu,d,NA,NA,NA,NA,sd,NA,4,NA,NA,NA,NA,NA,NA,NA,NA,NA,NA,NA,NA,NA,NA,NA,NA,NA,NA,NA
1cfa7,"""Falsch""-Screen",canvas.Screen,3_0_4_0_1_0_2,NA,NA,timeout,4997.5,633907.39999998,633893.5,633909.2,638889.5,638890.5,2024-04-27T17:51:01Z,638906.7,NULL,Abrechnung,uhasibu,d,NA,NA,NA,NA,sd,0,4,NA,NA,NA,NA,NA,NA,NA,NA,NA,NA,NA,NA,NA,NA,NA,NA,NA,NA,NA
1cfa7,deep,flow.Sequence,3_0_4_0_1_0,NA,NA,completion,11142.9,627731.29999998,627729.7,627746.6,638889.5,638890.79999998,2024-04-27T17:51:01Z,638906.7,NULL,Abrechnung,uhasibu,d,NA,NA,NA,NA,sd,NA,4,NA,NA,NA,NA,NA,NA,NA,NA,NA,NA,NA,NA,NA,NA,NA,NA,NA,NA,NA
1cfa7,shallow,flow.Sequence,3_0_4_0_1_1,NA,NA,skipped,NA,638891,NA,NA,638889.5,638891.09999999,2024-04-27T17:51:01Z,638906.7,NULL,Abrechnung,uhasibu,d,NA,NA,NA,NA,sd,NA,4,NA,NA,NA,NA,NA,NA,NA,NA,NA,NA,NA,NA,NA,NA,NA,NA,NA,NA,NA
1cfa7,task,flow.Sequence,3_0_4_0_1,NA,NA,completion,11142.9,627731.29999998,627729.7,627746.6,638889.5,638891.39999998,2024-04-27T17:51:01Z,638906.7,NULL,Abrechnung,uhasibu,d,NA,NA,NA,NA,sd,NA,4,NA,NA,NA,NA,NA,NA,NA,NA,NA,NA,NA,NA,NA,NA,NA,NA,NA,NA,NA
1cfa7,deep,flow.Sequence,3_0_4_0_2_0,NA,NA,skipped,NA,638891.5,NA,NA,638889.5,638891.59999999,2024-04-27T17:51:01Z,638906.7,NULL,Sänger,mwimbaji,s,msichana,shughuli,mshirika,NA,sd,NA,4,NA,NA,NA,NA,NA,NA,NA,NA,NA,NA,NA,NA,NA,NA,NA,NA,NA,NA,NA
1cfa7,Shallow Question,html.Page,3_0_4_0_2_1_0,NA,NA,form submission,4438.8,638891.79999998,638889.5,638906.7,643345.5,643345.79999998,2024-04-27T17:51:06Z,643353.5,NULL,Sänger,mwimbaji,s,msichana,shughuli,mshirika,mwimbaji,NA,NA,4,NA,NA,NA,NA,NA,NA,NA,NA,NA,NA,NA,NA,NA,NA,NA,NA,NA,NA,NA
1cfa7,"""Richtig""-Screen",canvas.Screen,3_0_4_0_2_1_1,NA,NA,timeout,4997.1,643348.79999998,643337.696,643353.5,648334,648335,2024-04-27T17:51:11Z,648350.6,NULL,Sänger,mwimbaji,s,msichana,shughuli,mshirika,NA,sd,1,4,NA,NA,NA,NA,NA,NA,NA,NA,NA,NA,NA,NA,NA,NA,NA,NA,NA,NA,NA
1cfa7,"""Falsch""-Screen",canvas.Screen,3_0_4_0_2_1_2,NA,NA,skipped,NA,648340.19999999006,NA,NA,648334,648340.29999998,2024-04-27T17:51:11Z,648350.6,NULL,Sänger,mwimbaji,s,msichana,shughuli,mshirika,NA,sd,NA,4,NA,NA,NA,NA,NA,NA,NA,NA,NA,NA,NA,NA,NA,NA,NA,NA,NA,NA,NA
1cfa7,shallow,flow.Sequence,3_0_4_0_2_1,NA,NA,completion,9427.3,638891.79999998,638889.5,638906.7,648334,648340.39999998,2024-04-27T17:51:11Z,648350.6,NULL,Sänger,mwimbaji,s,msichana,shughuli,mshirika,NA,sd,NA,4,NA,NA,NA,NA,NA,NA,NA,NA,NA,NA,NA,NA,NA,NA,NA,NA,NA,NA,NA
1cfa7,task,flow.Sequence,3_0_4_0_2,NA,NA,completion,9427.3,638891.5,638889.5,638906.7,648334,648340.5,2024-04-27T17:51:11Z,648350.6,NULL,Sänger,mwimbaji,s,msichana,shughuli,mshirika,NA,sd,NA,4,NA,NA,NA,NA,NA,NA,NA,NA,NA,NA,NA,NA,NA,NA,NA,NA,NA,NA,NA
1cfa7,deep,flow.Sequence,3_0_4_0_3_0,NA,NA,skipped,NA,648340.5,NA,NA,648334,648340.5,2024-04-27T17:51:11Z,648350.6,NULL,Angreifer,mshambulizi,s,kitengo,tasinia,usafirishaji,NA,sd,NA,4,NA,NA,NA,NA,NA,NA,NA,NA,NA,NA,NA,NA,NA,NA,NA,NA,NA,NA,NA
1cfa7,Shallow Question,html.Page,3_0_4_0_3_1_0,NA,NA,form submission,3652.5999999881,648340.5,648334,648350.6,652003.19999999006,652003.5,2024-04-27T17:51:14Z,652014.7,NULL,Angreifer,mshambulizi,s,kitengo,tasinia,usafirishaji,kitengo,NA,NA,4,NA,NA,NA,NA,NA,NA,NA,NA,NA,NA,NA,NA,NA,NA,NA,NA,NA,NA,NA
1cfa7,"""Richtig""-Screen",canvas.Screen,3_0_4_0_3_1_1,NA,NA,skipped,NA,652006.39999998,NA,NA,652003.19999999006,652006.39999998,2024-04-27T17:51:14Z,652014.7,NULL,Angreifer,mshambulizi,s,kitengo,tasinia,usafirishaji,NA,sd,NA,4,NA,NA,NA,NA,NA,NA,NA,NA,NA,NA,NA,NA,NA,NA,NA,NA,NA,NA,NA
1cfa7,"""Falsch""-Screen",canvas.Screen,3_0_4_0_3_1_2,NA,NA,timeout,4997.3,652007.19999999006,651998.6,652014.7,656995.5,656995.89999998,2024-04-27T17:51:19Z,657012,NULL,Angreifer,mshambulizi,s,kitengo,tasinia,usafirishaji,NA,sd,0,4,NA,NA,NA,NA,NA,NA,NA,NA,NA,NA,NA,NA,NA,NA,NA,NA,NA,NA,NA
1cfa7,shallow,flow.Sequence,3_0_4_0_3_1,NA,NA,completion,8644.9,648340.5,648334,648350.6,656995.5,656996.09999999,2024-04-27T17:51:19Z,657012,NULL,Angreifer,mshambulizi,s,kitengo,tasinia,usafirishaji,NA,sd,NA,4,NA,NA,NA,NA,NA,NA,NA,NA,NA,NA,NA,NA,NA,NA,NA,NA,NA,NA,NA
1cfa7,task,flow.Sequence,3_0_4_0_3,NA,NA,completion,8644.9,648340.5,648334,648350.6,656995.5,656996.19999999006,2024-04-27T17:51:19Z,657012,NULL,Angreifer,mshambulizi,s,kitengo,tasinia,usafirishaji,NA,sd,NA,4,NA,NA,NA,NA,NA,NA,NA,NA,NA,NA,NA,NA,NA,NA,NA,NA,NA,NA,NA
1cfa7,deep,flow.Sequence,3_0_4_0_4_0,NA,NA,skipped,NA,656996.19999999006,NA,NA,656995.5,656996.29999998,2024-04-27T17:51:19Z,657012,NULL,Auftrag,uagizaji,s,ghanima,kuzingatia,msukani,NA,sd,NA,4,NA,NA,NA,NA,NA,NA,NA,NA,NA,NA,NA,NA,NA,NA,NA,NA,NA,NA,NA
1cfa7,Shallow Question,html.Page,3_0_4_0_4_1_0,NA,NA,form submission,5659.599999994,656996.39999998,656995.5,657012,662671.59999999,662671.89999998,2024-04-27T17:51:25Z,662675,NULL,Auftrag,uagizaji,s,ghanima,kuzingatia,msukani,uagizaji,NA,NA,4,NA,NA,NA,NA,NA,NA,NA,NA,NA,NA,NA,NA,NA,NA,NA,NA,NA,NA,NA
1cfa7,"""Richtig""-Screen",canvas.Screen,3_0_4_0_4_1_1,NA,NA,timeout,4997.3,662673.39999998,662659.108,662675,667655.4,667656.39999998,2024-04-27T17:51:30Z,667672.3,NULL,Auftrag,uagizaji,s,ghanima,kuzingatia,msukani,NA,sd,1,4,NA,NA,NA,NA,NA,NA,NA,NA,NA,NA,NA,NA,NA,NA,NA,NA,NA,NA,NA
1cfa7,"""Falsch""-Screen",canvas.Screen,3_0_4_0_4_1_2,NA,NA,skipped,NA,667661.19999999006,NA,NA,667655.4,667661.29999998,2024-04-27T17:51:30Z,667672.3,NULL,Auftrag,uagizaji,s,ghanima,kuzingatia,msukani,NA,sd,NA,4,NA,NA,NA,NA,NA,NA,NA,NA,NA,NA,NA,NA,NA,NA,NA,NA,NA,NA,NA
1cfa7,shallow,flow.Sequence,3_0_4_0_4_1,NA,NA,completion,10643.4,656996.39999998,656995.5,657012,667655.4,667661.29999998,2024-04-27T17:51:30Z,667672.3,NULL,Auftrag,uagizaji,s,ghanima,kuzingatia,msukani,NA,sd,NA,4,NA,NA,NA,NA,NA,NA,NA,NA,NA,NA,NA,NA,NA,NA,NA,NA,NA,NA,NA
1cfa7,task,flow.Sequence,3_0_4_0_4,NA,NA,completion,10643.4,656996.19999999006,656995.5,657012,667655.4,667661.39999998,2024-04-27T17:51:30Z,667672.3,NULL,Auftrag,uagizaji,s,ghanima,kuzingatia,msukani,NA,sd,NA,4,NA,NA,NA,NA,NA,NA,NA,NA,NA,NA,NA,NA,NA,NA,NA,NA,NA,NA,NA
1cfa7,Deep Question,html.Page,3_0_4_0_5_0_0,NA,NA,form submission,5432.899999988,667661.39999998,667655.4,667672.3,673105.19999999006,673105.39999998,2024-04-27T17:51:36Z,673118.9,NULL,Kanzler,diwani,d,NA,NA,NA,dawani,NA,NA,4,NA,NA,NA,NA,NA,NA,NA,NA,NA,NA,NA,NA,NA,NA,NA,NA,NA,NA,NA
1cfa7,"""Richtig""-Screen",canvas.Screen,3_0_4_0_5_0_1,NA,NA,skipped,NA,673107.69999999006,NA,NA,673105.19999999006,673107.69999999006,2024-04-27T17:51:36Z,673118.9,NULL,Kanzler,diwani,d,NA,NA,NA,NA,sd,NA,4,NA,NA,NA,NA,NA,NA,NA,NA,NA,NA,NA,NA,NA,NA,NA,NA,NA,NA,NA
1cfa7,"""Falsch""-Screen",canvas.Screen,3_0_4_0_5_0_2,NA,NA,timeout,4997.1,673108.29999998,673102.622,673118.9,678099.4,678100.19999999006,2024-04-27T17:51:41Z,678116,NULL,Kanzler,diwani,d,NA,NA,NA,NA,sd,0,4,NA,NA,NA,NA,NA,NA,NA,NA,NA,NA,NA,NA,NA,NA,NA,NA,NA,NA,NA
1cfa7,deep,flow.Sequence,3_0_4_0_5_0,NA,NA,completion,10427.1,667661.39999998,667655.4,667672.3,678099.4,678100.5,2024-04-27T17:51:41Z,678116,NULL,Kanzler,diwani,d,NA,NA,NA,NA,sd,NA,4,NA,NA,NA,NA,NA,NA,NA,NA,NA,NA,NA,NA,NA,NA,NA,NA,NA,NA,NA
1cfa7,shallow,flow.Sequence,3_0_4_0_5_1,NA,NA,skipped,NA,678100.59999999,NA,NA,678099.4,678100.69999999006,2024-04-27T17:51:41Z,678116,NULL,Kanzler,diwani,d,NA,NA,NA,NA,sd,NA,4,NA,NA,NA,NA,NA,NA,NA,NA,NA,NA,NA,NA,NA,NA,NA,NA,NA,NA,NA
1cfa7,task,flow.Sequence,3_0_4_0_5,NA,NA,completion,10427.1,667661.39999998,667655.4,667672.3,678099.4,678100.79999998,2024-04-27T17:51:41Z,678116,NULL,Kanzler,diwani,d,NA,NA,NA,NA,sd,NA,4,NA,NA,NA,NA,NA,NA,NA,NA,NA,NA,NA,NA,NA,NA,NA,NA,NA,NA,NA
1cfa7,deep,flow.Sequence,3_0_4_0_6_0,NA,NA,skipped,NA,678100.89999998,NA,NA,678099.4,678101,2024-04-27T17:51:41Z,678116,NULL,Wettbewerb,ushindani,s,mapendezi,kichocheo,ubaguzi,NA,sd,NA,4,NA,NA,NA,NA,NA,NA,NA,NA,NA,NA,NA,NA,NA,NA,NA,NA,NA,NA,NA
1cfa7,Shallow Question,html.Page,3_0_4_0_6_1_0,NA,NA,form submission,6105.599999994,678101.19999999006,678099.4,678116,684221.59999999,684221.59999999,2024-04-27T17:51:47Z,684228.5,NULL,Wettbewerb,ushindani,s,mapendezi,kichocheo,ubaguzi,ushindani,NA,NA,4,NA,NA,NA,NA,NA,NA,NA,NA,NA,NA,NA,NA,NA,NA,NA,NA,NA,NA,NA
1cfa7,"""Richtig""-Screen",canvas.Screen,3_0_4_0_6_1_1,NA,NA,timeout,4997.1,684223.39999998,684212.362,684228.5,689208.9,689209.79999998,2024-04-27T17:51:52Z,689225.6,NULL,Wettbewerb,ushindani,s,mapendezi,kichocheo,ubaguzi,NA,sd,1,4,NA,NA,NA,NA,NA,NA,NA,NA,NA,NA,NA,NA,NA,NA,NA,NA,NA,NA,NA
1cfa7,"""Falsch""-Screen",canvas.Screen,3_0_4_0_6_1_2,NA,NA,skipped,NA,689214.5,NA,NA,689208.9,689214.69999999006,2024-04-27T17:51:52Z,689225.6,NULL,Wettbewerb,ushindani,s,mapendezi,kichocheo,ubaguzi,NA,sd,NA,4,NA,NA,NA,NA,NA,NA,NA,NA,NA,NA,NA,NA,NA,NA,NA,NA,NA,NA,NA
1cfa7,shallow,flow.Sequence,3_0_4_0_6_1,NA,NA,completion,11092.9,678101.09999999,678099.4,678116,689208.9,689214.79999998,2024-04-27T17:51:52Z,689225.6,NULL,Wettbewerb,ushindani,s,mapendezi,kichocheo,ubaguzi,NA,sd,NA,4,NA,NA,NA,NA,NA,NA,NA,NA,NA,NA,NA,NA,NA,NA,NA,NA,NA,NA,NA
1cfa7,task,flow.Sequence,3_0_4_0_6,NA,NA,completion,11092.9,678100.89999998,678099.4,678116,689208.9,689214.79999998,2024-04-27T17:51:52Z,689225.6,NULL,Wettbewerb,ushindani,s,mapendezi,kichocheo,ubaguzi,NA,sd,NA,4,NA,NA,NA,NA,NA,NA,NA,NA,NA,NA,NA,NA,NA,NA,NA,NA,NA,NA,NA
1cfa7,Deep Question,html.Page,3_0_4_0_7_0_0,NA,NA,form submission,7826.1999999821,689214.89999998,689208.9,689225.6,697051.79999998,697052,2024-04-27T17:52:00Z,697054.256,NULL,Schönheit,kirembo,d,NA,NA,NA,kurkumi,NA,NA,4,NA,NA,NA,NA,NA,NA,NA,NA,NA,NA,NA,NA,NA,NA,NA,NA,NA,NA,NA
1cfa7,"""Richtig""-Screen",canvas.Screen,3_0_4_0_7_0_1,NA,NA,skipped,NA,697053.39999998,NA,NA,697051.79999998,697053.39999998,2024-04-27T17:52:00Z,697054.256,NULL,Schönheit,kirembo,d,NA,NA,NA,NA,sd,NA,4,NA,NA,NA,NA,NA,NA,NA,NA,NA,NA,NA,NA,NA,NA,NA,NA,NA,NA,NA
1cfa7,"""Falsch""-Screen",canvas.Screen,3_0_4_0_7_0_2,NA,NA,timeout,4996.9439999999,697053.79999998,697054.256,697054.256,702034.3,702035.39999998,2024-04-27T17:52:05Z,702051.2,NULL,Schönheit,kirembo,d,NA,NA,NA,NA,sd,0,4,NA,NA,NA,NA,NA,NA,NA,NA,NA,NA,NA,NA,NA,NA,NA,NA,NA,NA,NA
1cfa7,deep,flow.Sequence,3_0_4_0_7_0,NA,NA,completion,12808.7,689214.79999998,689208.9,689225.6,702034.3,702035.89999998,2024-04-27T17:52:05Z,702051.2,NULL,Schönheit,kirembo,d,NA,NA,NA,NA,sd,NA,4,NA,NA,NA,NA,NA,NA,NA,NA,NA,NA,NA,NA,NA,NA,NA,NA,NA,NA,NA
1cfa7,shallow,flow.Sequence,3_0_4_0_7_1,NA,NA,skipped,NA,702036,NA,NA,702034.3,702036.09999999,2024-04-27T17:52:05Z,702051.2,NULL,Schönheit,kirembo,d,NA,NA,NA,NA,sd,NA,4,NA,NA,NA,NA,NA,NA,NA,NA,NA,NA,NA,NA,NA,NA,NA,NA,NA,NA,NA
1cfa7,task,flow.Sequence,3_0_4_0_7,NA,NA,completion,12808.7,689214.79999998,689208.9,689225.6,702034.3,702036.29999998,2024-04-27T17:52:05Z,702051.2,NULL,Schönheit,kirembo,d,NA,NA,NA,NA,sd,NA,4,NA,NA,NA,NA,NA,NA,NA,NA,NA,NA,NA,NA,NA,NA,NA,NA,NA,NA,NA
1cfa7,block,flow.Loop,3_0_4_0,NA,NA,completion,89461.42,612577.29999998,612572.88,612572.88,702034.3,702036.59999999,2024-04-27T17:52:05Z,702051.2,NULL,NA,NA,NA,NA,NA,NA,NA,sd,NA,4,NA,NA,NA,NA,NA,NA,NA,NA,NA,NA,NA,NA,NA,NA,NA,NA,NA,NA,NA
1cfa7,weiter,canvas.Screen,3_0_4_1,sdf,keypress(Space),response,1903.5999999822,702036.69999999006,702034.3,702051.2,703954.79999998,703955.79999998,2024-04-27T17:52:06Z,703967.79,NULL,NA,NA,NA,NA,NA,NA,NA,sd,NA,4,NA,NA,NA,NA,NA,NA,NA,NA,NA,NA,NA,NA,NA,NA,NA,NA,NA,NA,NA
1cfa7,check continue,flow.Sequence,3_0_4,NA,NA,completion,91381.919999982,612577.29999998,612572.88,612572.88,703954.79999998,703956.09999999,2024-04-27T17:52:06Z,703967.79,NULL,NA,NA,NA,NA,NA,NA,NA,sd,NA,4,NA,NA,NA,NA,NA,NA,NA,NA,NA,NA,NA,NA,NA,NA,NA,NA,NA,NA,NA
1cfa7,deep,flow.Sequence,3_0_5_0_0_0,NA,NA,skipped,NA,703974.59999999,NA,NA,703954.79999998,703974.59999999,2024-04-27T17:52:06Z,703967.79,NULL,Angreifer,mshambulizi,s,kitengo,tasinia,usafirishaji,NA,sdf,NA,5,NA,NA,NA,NA,NA,NA,NA,NA,NA,NA,NA,NA,NA,NA,NA,NA,NA,NA,NA
1cfa7,Shallow Question,html.Page,3_0_5_0_0_1_0,NA,NA,form submission,4278.1099999761,703974.69999999006,703967.79,703967.79,708245.89999998,708246.09999999,2024-04-27T17:52:11Z,708247.262,NULL,Angreifer,mshambulizi,s,kitengo,tasinia,usafirishaji,mshambulizi,NA,NA,5,NA,NA,NA,NA,NA,NA,NA,NA,NA,NA,NA,NA,NA,NA,NA,NA,NA,NA,NA
1cfa7,"""Richtig""-Screen",canvas.Screen,3_0_5_0_0_1_1,NA,NA,timeout,4997.338,708249.09999999,708247.262,708247.262,713228,713229.19999999006,2024-04-27T17:52:16Z,713244.6,NULL,Angreifer,mshambulizi,s,kitengo,tasinia,usafirishaji,NA,sdf,1,5,NA,NA,NA,NA,NA,NA,NA,NA,NA,NA,NA,NA,NA,NA,NA,NA,NA,NA,NA
1cfa7,"""Falsch""-Screen",canvas.Screen,3_0_5_0_0_1_2,NA,NA,skipped,NA,713234.39999998,NA,NA,713228,713234.39999998,2024-04-27T17:52:16Z,713244.6,NULL,Angreifer,mshambulizi,s,kitengo,tasinia,usafirishaji,NA,sdf,NA,5,NA,NA,NA,NA,NA,NA,NA,NA,NA,NA,NA,NA,NA,NA,NA,NA,NA,NA,NA
1cfa7,shallow,flow.Sequence,3_0_5_0_0_1,NA,NA,completion,9260.21,703974.69999999006,703967.79,703967.79,713228,713234.59999999,2024-04-27T17:52:16Z,713244.6,NULL,Angreifer,mshambulizi,s,kitengo,tasinia,usafirishaji,NA,sdf,NA,5,NA,NA,NA,NA,NA,NA,NA,NA,NA,NA,NA,NA,NA,NA,NA,NA,NA,NA,NA
1cfa7,task,flow.Sequence,3_0_5_0_0,NA,NA,completion,9260.21,703974.5,703967.79,703967.79,713228,713234.59999999,2024-04-27T17:52:16Z,713244.6,NULL,Angreifer,mshambulizi,s,kitengo,tasinia,usafirishaji,NA,sdf,NA,5,NA,NA,NA,NA,NA,NA,NA,NA,NA,NA,NA,NA,NA,NA,NA,NA,NA,NA,NA
1cfa7,deep,flow.Sequence,3_0_5_0_1_0,NA,NA,skipped,NA,713234.59999999,NA,NA,713228,713234.69999999006,2024-04-27T17:52:16Z,713244.6,NULL,Wettbewerb,ushindani,s,mapendezi,kichocheo,ubaguzi,NA,sdf,NA,5,NA,NA,NA,NA,NA,NA,NA,NA,NA,NA,NA,NA,NA,NA,NA,NA,NA,NA,NA
1cfa7,Shallow Question,html.Page,3_0_5_0_1_1_0,NA,NA,form submission,4687.0999999881,713234.69999999006,713228,713244.6,717931.69999999006,717931.89999998,2024-04-27T17:52:20Z,717941.3,NULL,Wettbewerb,ushindani,s,mapendezi,kichocheo,ubaguzi,ushindani,NA,NA,5,NA,NA,NA,NA,NA,NA,NA,NA,NA,NA,NA,NA,NA,NA,NA,NA,NA,NA,NA
1cfa7,"""Richtig""-Screen",canvas.Screen,3_0_5_0_1_1_1,NA,NA,timeout,4997.2999999999,717934.69999999006,717925.184,717941.3,722921.8,722922.79999998,2024-04-27T17:52:25Z,722938.6,NULL,Wettbewerb,ushindani,s,mapendezi,kichocheo,ubaguzi,NA,sdf,1,5,NA,NA,NA,NA,NA,NA,NA,NA,NA,NA,NA,NA,NA,NA,NA,NA,NA,NA,NA
1cfa7,"""Falsch""-Screen",canvas.Screen,3_0_5_0_1_1_2,NA,NA,skipped,NA,722927.89999998,NA,NA,722921.8,722928.09999999,2024-04-27T17:52:25Z,722938.6,NULL,Wettbewerb,ushindani,s,mapendezi,kichocheo,ubaguzi,NA,sdf,NA,5,NA,NA,NA,NA,NA,NA,NA,NA,NA,NA,NA,NA,NA,NA,NA,NA,NA,NA,NA
1cfa7,shallow,flow.Sequence,3_0_5_0_1_1,NA,NA,completion,9677.2000000001,713234.69999999006,713228,713244.6,722921.8,722928.09999999,2024-04-27T17:52:25Z,722938.6,NULL,Wettbewerb,ushindani,s,mapendezi,kichocheo,ubaguzi,NA,sdf,NA,5,NA,NA,NA,NA,NA,NA,NA,NA,NA,NA,NA,NA,NA,NA,NA,NA,NA,NA,NA
1cfa7,task,flow.Sequence,3_0_5_0_1,NA,NA,completion,9677.2000000001,713234.59999999,713228,713244.6,722921.8,722928.19999999006,2024-04-27T17:52:25Z,722938.6,NULL,Wettbewerb,ushindani,s,mapendezi,kichocheo,ubaguzi,NA,sdf,NA,5,NA,NA,NA,NA,NA,NA,NA,NA,NA,NA,NA,NA,NA,NA,NA,NA,NA,NA,NA
1cfa7,Deep Question,html.Page,3_0_5_0_2_0_0,NA,NA,form submission,5979.5999999881,722928.19999999006,722921.8,722938.6,728918.19999999006,728918.39999998,2024-04-27T17:52:31Z,728935,NULL,Abrechnung,uhasibu,d,NA,NA,NA,hariku,NA,NA,5,NA,NA,NA,NA,NA,NA,NA,NA,NA,NA,NA,NA,NA,NA,NA,NA,NA,NA,NA
1cfa7,"""Richtig""-Screen",canvas.Screen,3_0_5_0_2_0_1,NA,NA,skipped,NA,728921.29999998,NA,NA,728918.19999999006,728921.39999998,2024-04-27T17:52:31Z,728935,NULL,Abrechnung,uhasibu,d,NA,NA,NA,NA,sdf,NA,5,NA,NA,NA,NA,NA,NA,NA,NA,NA,NA,NA,NA,NA,NA,NA,NA,NA,NA,NA
1cfa7,"""Falsch""-Screen",canvas.Screen,3_0_5_0_2_0_2,NA,NA,timeout,4996.7,728922.09999999,728918.584,728935,733914.9,733915.89999998,2024-04-27T17:52:36Z,733931.7,NULL,Abrechnung,uhasibu,d,NA,NA,NA,NA,sdf,0,5,NA,NA,NA,NA,NA,NA,NA,NA,NA,NA,NA,NA,NA,NA,NA,NA,NA,NA,NA
1cfa7,deep,flow.Sequence,3_0_5_0_2_0,NA,NA,completion,10976.3,722928.19999999006,722921.8,722938.6,733914.9,733916.29999998,2024-04-27T17:52:36Z,733931.7,NULL,Abrechnung,uhasibu,d,NA,NA,NA,NA,sdf,NA,5,NA,NA,NA,NA,NA,NA,NA,NA,NA,NA,NA,NA,NA,NA,NA,NA,NA,NA,NA
1cfa7,shallow,flow.Sequence,3_0_5_0_2_1,NA,NA,skipped,NA,733916.39999998,NA,NA,733914.9,733916.59999999,2024-04-27T17:52:36Z,733931.7,NULL,Abrechnung,uhasibu,d,NA,NA,NA,NA,sdf,NA,5,NA,NA,NA,NA,NA,NA,NA,NA,NA,NA,NA,NA,NA,NA,NA,NA,NA,NA,NA
1cfa7,task,flow.Sequence,3_0_5_0_2,NA,NA,completion,10976.3,722928.19999999006,722921.8,722938.6,733914.9,733916.89999998,2024-04-27T17:52:36Z,733931.7,NULL,Abrechnung,uhasibu,d,NA,NA,NA,NA,sdf,NA,5,NA,NA,NA,NA,NA,NA,NA,NA,NA,NA,NA,NA,NA,NA,NA,NA,NA,NA,NA
1cfa7,Deep Question,html.Page,3_0_5_0_3_0_0,NA,NA,form submission,6212.0999999822,733917.09999999,733914.9,733931.7,740143.79999998,740144.09999999,2024-04-27T17:52:43Z,740144.892,NULL,Zufall,kikuti,d,NA,NA,NA,kirembo,NA,NA,5,NA,NA,NA,NA,NA,NA,NA,NA,NA,NA,NA,NA,NA,NA,NA,NA,NA,NA,NA
1cfa7,"""Richtig""-Screen",canvas.Screen,3_0_5_0_3_0_1,NA,NA,skipped,NA,740147.29999998,NA,NA,740143.79999998,740147.39999998,2024-04-27T17:52:43Z,740144.892,NULL,Zufall,kikuti,d,NA,NA,NA,NA,sdf,NA,5,NA,NA,NA,NA,NA,NA,NA,NA,NA,NA,NA,NA,NA,NA,NA,NA,NA,NA,NA
1cfa7,"""Falsch""-Screen",canvas.Screen,3_0_5_0_3_0_2,NA,NA,timeout,4996.608,740147.89999998,740144.892,740144.892,745124.8,745125.79999998,2024-04-27T17:52:48Z,745141.5,NULL,Zufall,kikuti,d,NA,NA,NA,NA,sdf,0,5,NA,NA,NA,NA,NA,NA,NA,NA,NA,NA,NA,NA,NA,NA,NA,NA,NA,NA,NA
1cfa7,deep,flow.Sequence,3_0_5_0_3_0,NA,NA,completion,11193.1,733917,733914.9,733931.7,745124.8,745126.19999999006,2024-04-27T17:52:48Z,745141.5,NULL,Zufall,kikuti,d,NA,NA,NA,NA,sdf,NA,5,NA,NA,NA,NA,NA,NA,NA,NA,NA,NA,NA,NA,NA,NA,NA,NA,NA,NA,NA
1cfa7,shallow,flow.Sequence,3_0_5_0_3_1,NA,NA,skipped,NA,745126.29999998,NA,NA,745124.8,745126.5,2024-04-27T17:52:48Z,745141.5,NULL,Zufall,kikuti,d,NA,NA,NA,NA,sdf,NA,5,NA,NA,NA,NA,NA,NA,NA,NA,NA,NA,NA,NA,NA,NA,NA,NA,NA,NA,NA
1cfa7,task,flow.Sequence,3_0_5_0_3,NA,NA,completion,11193.1,733916.89999998,733914.9,733931.7,745124.8,745126.69999999006,2024-04-27T17:52:48Z,745141.5,NULL,Zufall,kikuti,d,NA,NA,NA,NA,sdf,NA,5,NA,NA,NA,NA,NA,NA,NA,NA,NA,NA,NA,NA,NA,NA,NA,NA,NA,NA,NA
1cfa7,Deep Question,html.Page,3_0_5_0_4_0_0,NA,NA,form submission,4918.599999994,745126.89999998,745124.8,745141.5,750060.09999999,750060.29999998,2024-04-27T17:52:53Z,750072,NULL,Kanzler,diwani,d,NA,NA,NA,diwani,NA,NA,5,NA,NA,NA,NA,NA,NA,NA,NA,NA,NA,NA,NA,NA,NA,NA,NA,NA,NA,NA
1cfa7,"""Richtig""-Screen",canvas.Screen,3_0_5_0_4_0_1,NA,NA,timeout,4997,750063.19999999006,750055.684,750072,755052.1,755053.79999998,2024-04-27T17:52:58Z,755069,NULL,Kanzler,diwani,d,NA,NA,NA,NA,sdf,1,5,NA,NA,NA,NA,NA,NA,NA,NA,NA,NA,NA,NA,NA,NA,NA,NA,NA,NA,NA
1cfa7,"""Falsch""-Screen",canvas.Screen,3_0_5_0_4_0_2,NA,NA,skipped,NA,755055.29999998,NA,NA,755052.1,755055.39999998,2024-04-27T17:52:58Z,755069,NULL,Kanzler,diwani,d,NA,NA,NA,NA,sdf,NA,5,NA,NA,NA,NA,NA,NA,NA,NA,NA,NA,NA,NA,NA,NA,NA,NA,NA,NA,NA
1cfa7,deep,flow.Sequence,3_0_5_0_4_0,NA,NA,completion,9910.6,745126.89999998,745124.8,745141.5,755052.1,755055.39999998,2024-04-27T17:52:58Z,755069,NULL,Kanzler,diwani,d,NA,NA,NA,NA,sdf,NA,5,NA,NA,NA,NA,NA,NA,NA,NA,NA,NA,NA,NA,NA,NA,NA,NA,NA,NA,NA
1cfa7,shallow,flow.Sequence,3_0_5_0_4_1,NA,NA,skipped,NA,755055.39999998,NA,NA,755052.1,755055.5,2024-04-27T17:52:58Z,755069,NULL,Kanzler,diwani,d,NA,NA,NA,NA,sdf,NA,5,NA,NA,NA,NA,NA,NA,NA,NA,NA,NA,NA,NA,NA,NA,NA,NA,NA,NA,NA
1cfa7,task,flow.Sequence,3_0_5_0_4,NA,NA,completion,9910.6,745126.69999999006,745124.8,745141.5,755052.1,755055.59999999,2024-04-27T17:52:58Z,755069,NULL,Kanzler,diwani,d,NA,NA,NA,NA,sdf,NA,5,NA,NA,NA,NA,NA,NA,NA,NA,NA,NA,NA,NA,NA,NA,NA,NA,NA,NA,NA
1cfa7,Deep Question,html.Page,3_0_5_0_5_0_0,NA,NA,form submission,9256.8999999762,755055.59999999,755052.1,755069,764325.89999998,764326.09999999,2024-04-27T17:53:07Z,764329.6,NULL,Schönheit,kirembo,d,NA,NA,NA,kanunji,NA,NA,5,NA,NA,NA,NA,NA,NA,NA,NA,NA,NA,NA,NA,NA,NA,NA,NA,NA,NA,NA
1cfa7,"""Richtig""-Screen",canvas.Screen,3_0_5_0_5_0_1,NA,NA,skipped,NA,764329,NA,NA,764325.89999998,764329.09999999,2024-04-27T17:53:07Z,764329.6,NULL,Schönheit,kirembo,d,NA,NA,NA,NA,sdf,NA,5,NA,NA,NA,NA,NA,NA,NA,NA,NA,NA,NA,NA,NA,NA,NA,NA,NA,NA,NA
1cfa7,"""Falsch""-Screen",canvas.Screen,3_0_5_0_5_0_2,NA,NA,timeout,4997.3,764329.5,764313.492,764329.6,769310.2,769311.09999999,2024-04-27T17:53:12Z,769326.9,NULL,Schönheit,kirembo,d,NA,NA,NA,NA,sdf,0,5,NA,NA,NA,NA,NA,NA,NA,NA,NA,NA,NA,NA,NA,NA,NA,NA,NA,NA,NA
1cfa7,deep,flow.Sequence,3_0_5_0_5_0,NA,NA,completion,14241.2,755055.59999999,755052.1,755069,769310.2,769311.5,2024-04-27T17:53:12Z,769326.9,NULL,Schönheit,kirembo,d,NA,NA,NA,NA,sdf,NA,5,NA,NA,NA,NA,NA,NA,NA,NA,NA,NA,NA,NA,NA,NA,NA,NA,NA,NA,NA
1cfa7,shallow,flow.Sequence,3_0_5_0_5_1,NA,NA,skipped,NA,769311.59999999,NA,NA,769310.2,769311.69999999006,2024-04-27T17:53:12Z,769326.9,NULL,Schönheit,kirembo,d,NA,NA,NA,NA,sdf,NA,5,NA,NA,NA,NA,NA,NA,NA,NA,NA,NA,NA,NA,NA,NA,NA,NA,NA,NA,NA
1cfa7,task,flow.Sequence,3_0_5_0_5,NA,NA,completion,14241.2,755055.59999999,755052.1,755069,769310.2,769311.89999998,2024-04-27T17:53:12Z,769326.9,NULL,Schönheit,kirembo,d,NA,NA,NA,NA,sdf,NA,5,NA,NA,NA,NA,NA,NA,NA,NA,NA,NA,NA,NA,NA,NA,NA,NA,NA,NA,NA
1cfa7,deep,flow.Sequence,3_0_5_0_6_0,NA,NA,skipped,NA,769312.19999999006,NA,NA,769310.2,769312.29999998,2024-04-27T17:53:12Z,769326.9,NULL,Auftrag,uagizaji,s,ghanima,kuzingatia,msukani,NA,sdf,NA,5,NA,NA,NA,NA,NA,NA,NA,NA,NA,NA,NA,NA,NA,NA,NA,NA,NA,NA,NA
1cfa7,Shallow Question,html.Page,3_0_5_0_6_1_0,NA,NA,form submission,5842.9999999761,769312.5,769310.2,769326.9,775169.89999998,775170.09999999,2024-04-27T17:53:18Z,775173.628,NULL,Auftrag,uagizaji,s,ghanima,kuzingatia,msukani,uagizaji,NA,NA,5,NA,NA,NA,NA,NA,NA,NA,NA,NA,NA,NA,NA,NA,NA,NA,NA,NA,NA,NA
1cfa7,"""Richtig""-Screen",canvas.Screen,3_0_5_0_6_1_1,NA,NA,timeout,4996.5719999999,775173.19999999006,775173.628,775173.628,780153.7,780154.69999999006,2024-04-27T17:53:23Z,780170.2,NULL,Auftrag,uagizaji,s,ghanima,kuzingatia,msukani,NA,sdf,1,5,NA,NA,NA,NA,NA,NA,NA,NA,NA,NA,NA,NA,NA,NA,NA,NA,NA,NA,NA
1cfa7,"""Falsch""-Screen",canvas.Screen,3_0_5_0_6_1_2,NA,NA,skipped,NA,780159.89999998,NA,NA,780153.7,780160,2024-04-27T17:53:23Z,780170.2,NULL,Auftrag,uagizaji,s,ghanima,kuzingatia,msukani,NA,sdf,NA,5,NA,NA,NA,NA,NA,NA,NA,NA,NA,NA,NA,NA,NA,NA,NA,NA,NA,NA,NA
1cfa7,shallow,flow.Sequence,3_0_5_0_6_1,NA,NA,completion,10826.8,769312.39999998,769310.2,769326.9,780153.7,780160.09999999,2024-04-27T17:53:23Z,780170.2,NULL,Auftrag,uagizaji,s,ghanima,kuzingatia,msukani,NA,sdf,NA,5,NA,NA,NA,NA,NA,NA,NA,NA,NA,NA,NA,NA,NA,NA,NA,NA,NA,NA,NA
1cfa7,task,flow.Sequence,3_0_5_0_6,NA,NA,completion,10826.8,769312,769310.2,769326.9,780153.7,780160.19999999006,2024-04-27T17:53:23Z,780170.2,NULL,Auftrag,uagizaji,s,ghanima,kuzingatia,msukani,NA,sdf,NA,5,NA,NA,NA,NA,NA,NA,NA,NA,NA,NA,NA,NA,NA,NA,NA,NA,NA,NA,NA
1cfa7,deep,flow.Sequence,3_0_5_0_7_0,NA,NA,skipped,NA,780160.19999999006,NA,NA,780153.7,780160.29999998,2024-04-27T17:53:23Z,780170.2,NULL,Sänger,mwimbaji,s,msichana,shughuli,mshirika,NA,sdf,NA,5,NA,NA,NA,NA,NA,NA,NA,NA,NA,NA,NA,NA,NA,NA,NA,NA,NA,NA,NA
1cfa7,Shallow Question,html.Page,3_0_5_0_7_1_0,NA,NA,form submission,6393.4999999881,780160.29999998,780153.7,780170.2,786563.69999999006,786564,2024-04-27T17:53:29Z,786566.428,NULL,Sänger,mwimbaji,s,msichana,shughuli,mshirika,mwimbaji,NA,NA,5,NA,NA,NA,NA,NA,NA,NA,NA,NA,NA,NA,NA,NA,NA,NA,NA,NA,NA,NA
1cfa7,"""Richtig""-Screen",canvas.Screen,3_0_5_0_7_1_1,NA,NA,timeout,4996.8720000001,786566.89999998,786566.428,786566.428,791546.8,791547.29999998,2024-04-27T17:53:34Z,791563.3,NULL,Sänger,mwimbaji,s,msichana,shughuli,mshirika,NA,sdf,1,5,NA,NA,NA,NA,NA,NA,NA,NA,NA,NA,NA,NA,NA,NA,NA,NA,NA,NA,NA
1cfa7,"""Falsch""-Screen",canvas.Screen,3_0_5_0_7_1_2,NA,NA,skipped,NA,791549.59999999,NA,NA,791546.8,791549.69999999006,2024-04-27T17:53:34Z,791563.3,NULL,Sänger,mwimbaji,s,msichana,shughuli,mshirika,NA,sdf,NA,5,NA,NA,NA,NA,NA,NA,NA,NA,NA,NA,NA,NA,NA,NA,NA,NA,NA,NA,NA
1cfa7,shallow,flow.Sequence,3_0_5_0_7_1,NA,NA,completion,11376.6,780160.29999998,780153.7,780170.2,791546.8,791549.89999998,2024-04-27T17:53:34Z,791563.3,NULL,Sänger,mwimbaji,s,msichana,shughuli,mshirika,NA,sdf,NA,5,NA,NA,NA,NA,NA,NA,NA,NA,NA,NA,NA,NA,NA,NA,NA,NA,NA,NA,NA
1cfa7,task,flow.Sequence,3_0_5_0_7,NA,NA,completion,11376.6,780160.19999999006,780153.7,780170.2,791546.8,791549.89999998,2024-04-27T17:53:34Z,791563.3,NULL,Sänger,mwimbaji,s,msichana,shughuli,mshirika,NA,sdf,NA,5,NA,NA,NA,NA,NA,NA,NA,NA,NA,NA,NA,NA,NA,NA,NA,NA,NA,NA,NA
1cfa7,block,flow.Loop,3_0_5_0,NA,NA,completion,87579.01,703974.5,703967.79,703967.79,791546.8,791550,2024-04-27T17:53:34Z,791563.3,NULL,NA,NA,NA,NA,NA,NA,NA,sdf,NA,5,NA,NA,NA,NA,NA,NA,NA,NA,NA,NA,NA,NA,NA,NA,NA,NA,NA,NA,NA
1cfa7,weiter,canvas.Screen,3_0_5_1,sdf,keypress(Space),response,1182.5999999761,791550,791546.8,791563.3,792745.89999998,792746.79999998,2024-04-27T17:53:35Z,792763.252,NULL,NA,NA,NA,NA,NA,NA,NA,sdf,NA,5,NA,NA,NA,NA,NA,NA,NA,NA,NA,NA,NA,NA,NA,NA,NA,NA,NA,NA,NA
1cfa7,check continue,flow.Sequence,3_0_5,NA,NA,completion,88778.109999976,703974.5,703967.79,703967.79,792745.89999998,792747.09999999,2024-04-27T17:53:35Z,792763.252,NULL,NA,NA,NA,NA,NA,NA,NA,sdf,NA,5,NA,NA,NA,NA,NA,NA,NA,NA,NA,NA,NA,NA,NA,NA,NA,NA,NA,NA,NA
1cfa7,Deep Question,html.Page,3_0_6_0_0_0_0,NA,NA,form submission,6930.6479999762,792764.59999999,792763.252,792763.252,799693.89999998,799694.09999999,2024-04-27T17:53:42Z,799708.5,NULL,Zufall,kikuti,d,NA,NA,NA,uhasibu,NA,NA,6,NA,NA,NA,NA,NA,NA,NA,NA,NA,NA,NA,NA,NA,NA,NA,NA,NA,NA,NA
1cfa7,"""Richtig""-Screen",canvas.Screen,3_0_6_0_0_0_1,NA,NA,skipped,NA,799697.09999999,NA,NA,799693.89999998,799697.29999998,2024-04-27T17:53:42Z,799708.5,NULL,Zufall,kikuti,d,NA,NA,NA,NA,dfs,NA,6,NA,NA,NA,NA,NA,NA,NA,NA,NA,NA,NA,NA,NA,NA,NA,NA,NA,NA,NA
1cfa7,"""Falsch""-Screen",canvas.Screen,3_0_6_0_0_0_2,NA,NA,timeout,4996.7,799698,799691.828,799708.5,804688.3,804689.69999999006,2024-04-27T17:53:47Z,804705.2,NULL,Zufall,kikuti,d,NA,NA,NA,NA,dfs,0,6,NA,NA,NA,NA,NA,NA,NA,NA,NA,NA,NA,NA,NA,NA,NA,NA,NA,NA,NA
1cfa7,deep,flow.Sequence,3_0_6_0_0_0,NA,NA,completion,11925.048,792764.59999999,792763.252,792763.252,804688.3,804690,2024-04-27T17:53:47Z,804705.2,NULL,Zufall,kikuti,d,NA,NA,NA,NA,dfs,NA,6,NA,NA,NA,NA,NA,NA,NA,NA,NA,NA,NA,NA,NA,NA,NA,NA,NA,NA,NA
1cfa7,shallow,flow.Sequence,3_0_6_0_0_1,NA,NA,skipped,NA,804690.09999999,NA,NA,804688.3,804690.19999999006,2024-04-27T17:53:47Z,804705.2,NULL,Zufall,kikuti,d,NA,NA,NA,NA,dfs,NA,6,NA,NA,NA,NA,NA,NA,NA,NA,NA,NA,NA,NA,NA,NA,NA,NA,NA,NA,NA
1cfa7,task,flow.Sequence,3_0_6_0_0,NA,NA,completion,11925.048,792764.59999999,792763.252,792763.252,804688.3,804690.39999998,2024-04-27T17:53:47Z,804705.2,NULL,Zufall,kikuti,d,NA,NA,NA,NA,dfs,NA,6,NA,NA,NA,NA,NA,NA,NA,NA,NA,NA,NA,NA,NA,NA,NA,NA,NA,NA,NA
1cfa7,Deep Question,html.Page,3_0_6_0_1_0_0,NA,NA,form submission,3718.4999999881,804690.69999999006,804688.3,804705.2,808423.69999999006,808423.89999998,2024-04-27T17:53:51Z,808436,NULL,Kanzler,diwani,d,NA,NA,NA,diwani,NA,NA,6,NA,NA,NA,NA,NA,NA,NA,NA,NA,NA,NA,NA,NA,NA,NA,NA,NA,NA,NA
1cfa7,"""Richtig""-Screen",canvas.Screen,3_0_6_0_1_0_1,NA,NA,timeout,4997.4,808427.19999999006,808419.8,808436,813416.8,813417.79999998,2024-04-27T17:53:56Z,813433.4,NULL,Kanzler,diwani,d,NA,NA,NA,NA,dfs,1,6,NA,NA,NA,NA,NA,NA,NA,NA,NA,NA,NA,NA,NA,NA,NA,NA,NA,NA,NA
1cfa7,"""Falsch""-Screen",canvas.Screen,3_0_6_0_1_0_2,NA,NA,skipped,NA,813423.09999999,NA,NA,813416.8,813423.19999999006,2024-04-27T17:53:56Z,813433.4,NULL,Kanzler,diwani,d,NA,NA,NA,NA,dfs,NA,6,NA,NA,NA,NA,NA,NA,NA,NA,NA,NA,NA,NA,NA,NA,NA,NA,NA,NA,NA
1cfa7,deep,flow.Sequence,3_0_6_0_1_0,NA,NA,completion,8711.6000000001,804690.5,804688.3,804705.2,813416.8,813423.29999998,2024-04-27T17:53:56Z,813433.4,NULL,Kanzler,diwani,d,NA,NA,NA,NA,dfs,NA,6,NA,NA,NA,NA,NA,NA,NA,NA,NA,NA,NA,NA,NA,NA,NA,NA,NA,NA,NA
1cfa7,shallow,flow.Sequence,3_0_6_0_1_1,NA,NA,skipped,NA,813423.29999998,NA,NA,813416.8,813423.29999998,2024-04-27T17:53:56Z,813433.4,NULL,Kanzler,diwani,d,NA,NA,NA,NA,dfs,NA,6,NA,NA,NA,NA,NA,NA,NA,NA,NA,NA,NA,NA,NA,NA,NA,NA,NA,NA,NA
1cfa7,task,flow.Sequence,3_0_6_0_1,NA,NA,completion,8711.6000000001,804690.5,804688.3,804705.2,813416.8,813423.39999998,2024-04-27T17:53:56Z,813433.4,NULL,Kanzler,diwani,d,NA,NA,NA,NA,dfs,NA,6,NA,NA,NA,NA,NA,NA,NA,NA,NA,NA,NA,NA,NA,NA,NA,NA,NA,NA,NA
1cfa7,Deep Question,html.Page,3_0_6_0_2_0_0,NA,NA,form submission,4896.4999999761,813423.39999998,813416.8,813433.4,818329.89999998,818330.09999999,2024-04-27T17:54:01Z,818347.2,NULL,Abrechnung,uhasibu,d,NA,NA,NA,uhasibu,NA,NA,6,NA,NA,NA,NA,NA,NA,NA,NA,NA,NA,NA,NA,NA,NA,NA,NA,NA,NA,NA
1cfa7,"""Richtig""-Screen",canvas.Screen,3_0_6_0_2_0_1,NA,NA,timeout,4996.9,818332.89999998,818330.456,818347.2,823327.4,823328.5,2024-04-27T17:54:06Z,823344.1,NULL,Abrechnung,uhasibu,d,NA,NA,NA,NA,dfs,1,6,NA,NA,NA,NA,NA,NA,NA,NA,NA,NA,NA,NA,NA,NA,NA,NA,NA,NA,NA
1cfa7,"""Falsch""-Screen",canvas.Screen,3_0_6_0_2_0_2,NA,NA,skipped,NA,823333.5,NA,NA,823327.4,823333.69999999006,2024-04-27T17:54:06Z,823344.1,NULL,Abrechnung,uhasibu,d,NA,NA,NA,NA,dfs,NA,6,NA,NA,NA,NA,NA,NA,NA,NA,NA,NA,NA,NA,NA,NA,NA,NA,NA,NA,NA
1cfa7,deep,flow.Sequence,3_0_6_0_2_0,NA,NA,completion,9894,813423.39999998,813416.8,813433.4,823327.4,823333.69999999006,2024-04-27T17:54:06Z,823344.1,NULL,Abrechnung,uhasibu,d,NA,NA,NA,NA,dfs,NA,6,NA,NA,NA,NA,NA,NA,NA,NA,NA,NA,NA,NA,NA,NA,NA,NA,NA,NA,NA
1cfa7,shallow,flow.Sequence,3_0_6_0_2_1,NA,NA,skipped,NA,823333.79999998,NA,NA,823327.4,823333.79999998,2024-04-27T17:54:06Z,823344.1,NULL,Abrechnung,uhasibu,d,NA,NA,NA,NA,dfs,NA,6,NA,NA,NA,NA,NA,NA,NA,NA,NA,NA,NA,NA,NA,NA,NA,NA,NA,NA,NA
1cfa7,task,flow.Sequence,3_0_6_0_2,NA,NA,completion,9894,813423.39999998,813416.8,813433.4,823327.4,823333.89999998,2024-04-27T17:54:06Z,823344.1,NULL,Abrechnung,uhasibu,d,NA,NA,NA,NA,dfs,NA,6,NA,NA,NA,NA,NA,NA,NA,NA,NA,NA,NA,NA,NA,NA,NA,NA,NA,NA,NA
1cfa7,deep,flow.Sequence,3_0_6_0_3_0,NA,NA,skipped,NA,823334,NA,NA,823327.4,823334,2024-04-27T17:54:06Z,823344.1,NULL,Auftrag,uagizaji,s,ghanima,kuzingatia,msukani,NA,dfs,NA,6,NA,NA,NA,NA,NA,NA,NA,NA,NA,NA,NA,NA,NA,NA,NA,NA,NA,NA,NA
1cfa7,Shallow Question,html.Page,3_0_6_0_3_1_0,NA,NA,form submission,6919.4999999941,823334,823327.4,823344.1,830263.59999999,830263.79999998,2024-04-27T17:54:13Z,830272.9,NULL,Auftrag,uagizaji,s,ghanima,kuzingatia,msukani,uagizaji,NA,NA,6,NA,NA,NA,NA,NA,NA,NA,NA,NA,NA,NA,NA,NA,NA,NA,NA,NA,NA,NA
1cfa7,"""Richtig""-Screen",canvas.Screen,3_0_6_0_3_1_1,NA,NA,timeout,4996.7999999999,830266.59999999,830256.7,830272.9,835253,835254.5,2024-04-27T17:54:18Z,835269.7,NULL,Auftrag,uagizaji,s,ghanima,kuzingatia,msukani,NA,dfs,1,6,NA,NA,NA,NA,NA,NA,NA,NA,NA,NA,NA,NA,NA,NA,NA,NA,NA,NA,NA
