observation,sender,sender_type,sender_id,response,response_action,ended_on,duration,time_run,time_render,time_show,time_end,time_commit,timestamp,time_switch,german,swahili,enc,distractor1,distractor2,distractor3,response_2,x,correct,url_vp,url_sess,meta_labjs_version,meta_location,meta_user_agent,meta_platform,meta_language,meta_locale,meta_time_zone,meta_timezone_offset,meta_screen_width,meta_screen_height,meta_scroll_width,meta_scroll_height,meta_window_inner_width,meta_window_inner_height,meta_device_pixel_ratio,meta_labjs_build_flavor,meta_labjs_build_commit,distractors
88e14,Introduction delayed retrieval,canvas.Screen,0,weiter,keypress(Space),response,12353.265999857,914.5,584.023,950.634,13303.899999857,13307,2023-08-13T10:21:09Z,13316.698,NA,NA,NA,NA,NA,NA,NA,NA,NA,221,4,20.2.4,https://neurocog.fernuni.ch/studies/vweber/sfink/delayed/index.html?vp=221&sess=4,"Mozilla/5.0 (Windows NT 10.0; Win64; x64) AppleWebKit/537.36 (KHTML, like Gecko) Chrome/115.0.0.0 Safari/537.36 Edg/115.0.1901.183",Win32,en-GB,en-CH,Europe/Zurich,-120,1536,864,1482,698,1482,746,1.25,production,f5b4a49f956347addd546a832a3327688c2c0fef,NA
88e14,Deep Question,html.Page,1_0_0_0,NA,NA,form submission,12746.901999905,13307.5,13300.057,13316.698,26063.599999905,26064.099999905,2023-08-13T10:21:22Z,26080.786,Vermutung,udhanifu,s,haramia,tikisho,itifaki,mashtaka,NA,NA,NA,NA,NA,NA,NA,NA,NA,NA,NA,NA,NA,NA,NA,NA,NA,NA,NA,NA,NA,NA
88e14,Save data screen,canvas.Screen,1_0_0_1,NA,NA,timeout,499.878,26068.099999905,26047.417,26080.786,26563.997,26565.199999809,2023-08-13T10:21:22Z,26580.664,Vermutung,udhanifu,s,haramia,tikisho,itifaki,NA,NA,0,NA,NA,NA,NA,NA,NA,NA,NA,NA,NA,NA,NA,NA,NA,NA,NA,NA,NA,NA,NA
88e14,deep,flow.Sequence,1_0_0,NA,NA,completion,13247.299,13307.399999857,13300.057,13316.698,26563.997,26566.399999857,2023-08-13T10:21:22Z,26580.664,Vermutung,udhanifu,s,haramia,tikisho,itifaki,NA,NA,NA,NA,NA,NA,NA,NA,NA,NA,NA,NA,NA,NA,NA,NA,NA,NA,NA,NA,NA,NA,NA
88e14,task,flow.Sequence,1_0,NA,NA,completion,13247.299,13307.399999857,13300.057,13316.698,26563.997,26566.799999952,2023-08-13T10:21:22Z,26580.664,Vermutung,udhanifu,s,haramia,tikisho,itifaki,NA,NA,NA,NA,NA,NA,NA,NA,NA,NA,NA,NA,NA,NA,NA,NA,NA,NA,NA,NA,NA,NA,NA
88e14,Deep Question,html.Page,1_1_0_0,NA,NA,form submission,11420.735999857,26567.099999905,26563.997,26580.664,38001.399999857,38001.799999952,2023-08-13T10:21:33Z,38015.533,Ergänzung,kijalizo,d,ulaghai,mustarehe,matangazo,maekpela,NA,NA,NA,NA,NA,NA,NA,NA,NA,NA,NA,NA,NA,NA,NA,NA,NA,NA,NA,NA,NA,NA
88e14,Save data screen,canvas.Screen,1_1_0_1,NA,NA,timeout,496.93799999999,38003.199999809,37995.91,38015.533,38495.804,38497,2023-08-13T10:21:34Z,38512.471,Ergänzung,kijalizo,d,ulaghai,mustarehe,matangazo,NA,NA,0,NA,NA,NA,NA,NA,NA,NA,NA,NA,NA,NA,NA,NA,NA,NA,NA,NA,NA,NA,NA
88e14,deep,flow.Sequence,1_1_0,NA,NA,completion,11915.14,26567,26563.997,26580.664,38495.804,38497.299999952,2023-08-13T10:21:34Z,38512.471,Ergänzung,kijalizo,d,ulaghai,mustarehe,matangazo,NA,NA,NA,NA,NA,NA,NA,NA,NA,NA,NA,NA,NA,NA,NA,NA,NA,NA,NA,NA,NA,NA,NA
88e14,task,flow.Sequence,1_1,NA,NA,completion,11915.14,26566.899999857,26563.997,26580.664,38495.804,38497.5,2023-08-13T10:21:34Z,38512.471,Ergänzung,kijalizo,d,ulaghai,mustarehe,matangazo,NA,NA,NA,NA,NA,NA,NA,NA,NA,NA,NA,NA,NA,NA,NA,NA,NA,NA,NA,NA,NA,NA,NA
88e14,Deep Question,html.Page,1_2_0_0,NA,NA,form submission,9243.928999857,38497.699999809,38495.804,38512.471,47756.399999857,47757.299999952,2023-08-13T10:21:43Z,47778.937,Fenster,dirisha,d,walakini,tasawari,maarifa,kuawelo,NA,NA,NA,NA,NA,NA,NA,NA,NA,NA,NA,NA,NA,NA,NA,NA,NA,NA,NA,NA,NA,NA
88e14,Save data screen,canvas.Screen,1_2_0_1,NA,NA,timeout,499.185,47759.599999904996,47744.642,47778.937,48261.429,48262.5,2023-08-13T10:21:44Z,48278.122,Fenster,dirisha,d,walakini,tasawari,maarifa,NA,NA,0,NA,NA,NA,NA,NA,NA,NA,NA,NA,NA,NA,NA,NA,NA,NA,NA,NA,NA,NA,NA
88e14,deep,flow.Sequence,1_2_0,NA,NA,completion,9748.958,38497.599999904996,38495.804,38512.471,48261.429,48262.799999952,2023-08-13T10:21:44Z,48278.122,Fenster,dirisha,d,walakini,tasawari,maarifa,NA,NA,NA,NA,NA,NA,NA,NA,NA,NA,NA,NA,NA,NA,NA,NA,NA,NA,NA,NA,NA,NA,NA
88e14,task,flow.Sequence,1_2,NA,NA,completion,9748.958,38497.599999904996,38495.804,38512.471,48261.429,48264,2023-08-13T10:21:44Z,48278.122,Fenster,dirisha,d,walakini,tasawari,maarifa,NA,NA,NA,NA,NA,NA,NA,NA,NA,NA,NA,NA,NA,NA,NA,NA,NA,NA,NA,NA,NA,NA,NA
88e14,Deep Question,html.Page,1_3_0_0,NA,NA,form submission,7223.4779999046,48264.399999857,48261.429,48278.122,55501.599999904996,55501.899999857,2023-08-13T10:21:51Z,55515.611,Tester,wanaojaribu,s,sherti,sihiri,mlipuko,mshtaka,NA,NA,NA,NA,NA,NA,NA,NA,NA,NA,NA,NA,NA,NA,NA,NA,NA,NA,NA,NA,NA,NA
88e14,Save data screen,canvas.Screen,1_3_0_1,NA,NA,timeout,494.714,55503.099999904996,55493.903,55515.611,55993.713,55996.399999857,2023-08-13T10:21:51Z,56010.325,Tester,wanaojaribu,s,sherti,sihiri,mlipuko,NA,NA,0,NA,NA,NA,NA,NA,NA,NA,NA,NA,NA,NA,NA,NA,NA,NA,NA,NA,NA,NA,NA
88e14,deep,flow.Sequence,1_3_0,NA,NA,completion,7715.591,48264.399999857,48261.429,48278.122,55993.713,55999.399999857,2023-08-13T10:21:51Z,56010.325,Tester,wanaojaribu,s,sherti,sihiri,mlipuko,NA,NA,NA,NA,NA,NA,NA,NA,NA,NA,NA,NA,NA,NA,NA,NA,NA,NA,NA,NA,NA,NA,NA
88e14,task,flow.Sequence,1_3,NA,NA,completion,7715.591,48264.399999857,48261.429,48278.122,55993.713,56000.5,2023-08-13T10:21:51Z,56010.325,Tester,wanaojaribu,s,sherti,sihiri,mlipuko,NA,NA,NA,NA,NA,NA,NA,NA,NA,NA,NA,NA,NA,NA,NA,NA,NA,NA,NA,NA,NA,NA,NA
88e14,Deep Question,html.Page,1_4_0_0,uelawazo,NA,form submission,28462.974999952,56001.799999952,55993.713,56010.325,84473.299999952,84476.5,2023-08-13T10:22:20Z,84474.892,Verpackung,ufungaji,s,uhusiano,upimaji,uchunguzi,NA,NA,NA,NA,NA,NA,NA,NA,NA,NA,NA,NA,NA,NA,NA,NA,NA,NA,NA,NA,NA,NA,NA
88e14,Save data screen,canvas.Screen,1_4_0_1,NA,NA,timeout,498.32699999999,84479.399999857,84456.729,84474.892,84957.347,84960.299999952,2023-08-13T10:22:20Z,84973.219,Verpackung,ufungaji,s,uhusiano,upimaji,uchunguzi,NA,NA,0,NA,NA,NA,NA,NA,NA,NA,NA,NA,NA,NA,NA,NA,NA,NA,NA,NA,NA,NA,NA
88e14,deep,flow.Sequence,1_4_0,NA,NA,completion,28947.022,56001.699999809,55993.713,56010.325,84957.347,84960.5,2023-08-13T10:22:20Z,84973.219,Verpackung,ufungaji,s,uhusiano,upimaji,uchunguzi,NA,NA,NA,NA,NA,NA,NA,NA,NA,NA,NA,NA,NA,NA,NA,NA,NA,NA,NA,NA,NA,NA,NA
88e14,task,flow.Sequence,1_4,NA,NA,completion,28947.022,56001.599999904996,55993.713,56010.325,84957.347,84960.599999905,2023-08-13T10:22:20Z,84973.219,Verpackung,ufungaji,s,uhusiano,upimaji,uchunguzi,NA,NA,NA,NA,NA,NA,NA,NA,NA,NA,NA,NA,NA,NA,NA,NA,NA,NA,NA,NA,NA,NA,NA
88e14,Deep Question,html.Page,1_5_0_0,foleni,NA,form submission,4827.4809998093,84960.699999809,84957.347,84973.219,89800.699999809,89801,2023-08-13T10:22:25Z,89808.997,Schlange,foleni,d,uvumilivu,uteuzi,muuzaji,NA,NA,NA,NA,NA,NA,NA,NA,NA,NA,NA,NA,NA,NA,NA,NA,NA,NA,NA,NA,NA,NA,NA
88e14,Save data screen,canvas.Screen,1_5_0_1,NA,NA,timeout,496.87,89803.5,89789.302,89808.997,90289.202,90290.699999809,2023-08-13T10:22:26Z,90305.867,Schlange,foleni,d,uvumilivu,uteuzi,muuzaji,NA,NA,1,NA,NA,NA,NA,NA,NA,NA,NA,NA,NA,NA,NA,NA,NA,NA,NA,NA,NA,NA,NA
88e14,deep,flow.Sequence,1_5_0,NA,NA,completion,5315.983,84960.699999809,84957.347,84973.219,90289.202,90291,2023-08-13T10:22:26Z,90305.867,Schlange,foleni,d,uvumilivu,uteuzi,muuzaji,NA,NA,NA,NA,NA,NA,NA,NA,NA,NA,NA,NA,NA,NA,NA,NA,NA,NA,NA,NA,NA,NA,NA
88e14,task,flow.Sequence,1_5,NA,NA,completion,5315.983,84960.699999809,84957.347,84973.219,90289.202,90291.199999809,2023-08-13T10:22:26Z,90305.867,Schlange,foleni,d,uvumilivu,uteuzi,muuzaji,NA,NA,NA,NA,NA,NA,NA,NA,NA,NA,NA,NA,NA,NA,NA,NA,NA,NA,NA,NA,NA,NA,NA
88e14,Deep Question,html.Page,1_6_0_0,mshtuko,NA,form submission,10919.932999952,90291.299999952,90289.202,90305.867,101225.79999995,101226.19999981,2023-08-13T10:22:37Z,101239.504,Schock,mshtuko,d,biashara,kukataza,vichekesho,NA,NA,NA,NA,NA,NA,NA,NA,NA,NA,NA,NA,NA,NA,NA,NA,NA,NA,NA,NA,NA,NA,NA
88e14,Save data screen,canvas.Screen,1_6_0_1,NA,NA,timeout,498.236,101228.79999995,101221.209,101239.504,101721.093,101722.29999995,2023-08-13T10:22:37Z,101737.74,Schock,mshtuko,d,biashara,kukataza,vichekesho,NA,NA,1,NA,NA,NA,NA,NA,NA,NA,NA,NA,NA,NA,NA,NA,NA,NA,NA,NA,NA,NA,NA
88e14,deep,flow.Sequence,1_6_0,NA,NA,completion,11415.226,90291.299999952,90289.202,90305.867,101721.093,101722.5,2023-08-13T10:22:37Z,101737.74,Schock,mshtuko,d,biashara,kukataza,vichekesho,NA,NA,NA,NA,NA,NA,NA,NA,NA,NA,NA,NA,NA,NA,NA,NA,NA,NA,NA,NA,NA,NA,NA
88e14,task,flow.Sequence,1_6,NA,NA,completion,11415.226,90291.199999809,90289.202,90305.867,101721.093,101722.5999999,2023-08-13T10:22:37Z,101737.74,Schock,mshtuko,d,biashara,kukataza,vichekesho,NA,NA,NA,NA,NA,NA,NA,NA,NA,NA,NA,NA,NA,NA,NA,NA,NA,NA,NA,NA,NA,NA,NA
88e14,Deep Question,html.Page,1_7_0_0,uemkaebashi,NA,form submission,11669.26,101722.79999995,101721.093,101737.74,113407,113407.29999995,2023-08-13T10:22:49Z,113421.557,Theorie,nadharia,d,ushungi,mkutano,uwakilishi,NA,NA,NA,NA,NA,NA,NA,NA,NA,NA,NA,NA,NA,NA,NA,NA,NA,NA,NA,NA,NA,NA,NA
88e14,Save data screen,canvas.Screen,1_7_0_1,NA,NA,timeout,497.965,113411.29999995,113402.955,113421.557,113902.868,113905.5999999,2023-08-13T10:22:49Z,113919.522,Theorie,nadharia,d,ushungi,mkutano,uwakilishi,NA,NA,0,NA,NA,NA,NA,NA,NA,NA,NA,NA,NA,NA,NA,NA,NA,NA,NA,NA,NA,NA,NA
88e14,deep,flow.Sequence,1_7_0,NA,NA,completion,12165.128,101722.79999995,101721.093,101737.74,113902.868,113905.89999986,2023-08-13T10:22:49Z,113919.522,Theorie,nadharia,d,ushungi,mkutano,uwakilishi,NA,NA,NA,NA,NA,NA,NA,NA,NA,NA,NA,NA,NA,NA,NA,NA,NA,NA,NA,NA,NA,NA,NA
88e14,task,flow.Sequence,1_7,NA,NA,completion,12165.128,101722.79999995,101721.093,101737.74,113902.868,113906.0999999,2023-08-13T10:22:49Z,113919.522,Theorie,nadharia,d,ushungi,mkutano,uwakilishi,NA,NA,NA,NA,NA,NA,NA,NA,NA,NA,NA,NA,NA,NA,NA,NA,NA,NA,NA,NA,NA,NA,NA
88e14,Deep Question,html.Page,1_8_0_0,maekouza,NA,form submission,12363.978,113906.5999999,113902.868,113919.522,126283.5,126283.89999986,2023-08-13T10:23:02Z,126284.618,Schüler,mwanafunzi,s,mwekezaji,matumizi,uaminifu,NA,NA,NA,NA,NA,NA,NA,NA,NA,NA,NA,NA,NA,NA,NA,NA,NA,NA,NA,NA,NA,NA,NA
88e14,Save data screen,canvas.Screen,1_8_0_1,NA,NA,timeout,501.827,126287.79999995,126267.988,126284.618,126767.886,126770.69999981,2023-08-13T10:23:02Z,126786.445,Schüler,mwanafunzi,s,mwekezaji,matumizi,uaminifu,NA,NA,0,NA,NA,NA,NA,NA,NA,NA,NA,NA,NA,NA,NA,NA,NA,NA,NA,NA,NA,NA,NA
88e14,deep,flow.Sequence,1_8_0,NA,NA,completion,12848.364,113906.5,113902.868,113919.522,126767.886,126771.19999981,2023-08-13T10:23:02Z,126786.445,Schüler,mwanafunzi,s,mwekezaji,matumizi,uaminifu,NA,NA,NA,NA,NA,NA,NA,NA,NA,NA,NA,NA,NA,NA,NA,NA,NA,NA,NA,NA,NA,NA,NA
88e14,task,flow.Sequence,1_8,NA,NA,completion,12848.364,113906.39999986,113902.868,113919.522,126767.886,126771.69999980999,2023-08-13T10:23:02Z,126786.445,Schüler,mwanafunzi,s,mwekezaji,matumizi,uaminifu,NA,NA,NA,NA,NA,NA,NA,NA,NA,NA,NA,NA,NA,NA,NA,NA,NA,NA,NA,NA,NA,NA,NA
88e14,Deep Question,html.Page,1_9_0_0,mapela,NA,form submission,34395.254999809,126772,126767.886,126786.445,161181.69999981,161182,2023-08-13T10:23:37Z,161197.534,Wohlstand,mafanikio,d,chimbuko,kumbuko,mapwaji,NA,NA,NA,NA,NA,NA,NA,NA,NA,NA,NA,NA,NA,NA,NA,NA,NA,NA,NA,NA,NA,NA,NA
88e14,Save data screen,canvas.Screen,1_9_0_1,NA,NA,timeout,499.23999999999,161185.29999995,161183.092,161197.534,161680.101,161681.39999986,2023-08-13T10:23:37Z,161696.774,Wohlstand,mafanikio,d,chimbuko,kumbuko,mapwaji,NA,NA,0,NA,NA,NA,NA,NA,NA,NA,NA,NA,NA,NA,NA,NA,NA,NA,NA,NA,NA,NA,NA
88e14,deep,flow.Sequence,1_9_0,NA,NA,completion,34893.656,126772,126767.886,126786.445,161680.101,161681.5,2023-08-13T10:23:37Z,161696.774,Wohlstand,mafanikio,d,chimbuko,kumbuko,mapwaji,NA,NA,NA,NA,NA,NA,NA,NA,NA,NA,NA,NA,NA,NA,NA,NA,NA,NA,NA,NA,NA,NA,NA
88e14,task,flow.Sequence,1_9,NA,NA,completion,34893.656,126771.79999995,126767.886,126786.445,161680.101,161681.69999981,2023-08-13T10:23:37Z,161696.774,Wohlstand,mafanikio,d,chimbuko,kumbuko,mapwaji,NA,NA,NA,NA,NA,NA,NA,NA,NA,NA,NA,NA,NA,NA,NA,NA,NA,NA,NA,NA,NA,NA,NA
88e14,Deep Question,html.Page,1_10_0_0,kabashi,NA,form submission,11258.825999905,161681.79999995,161680.101,161696.774,172955.5999999,172955.79999995,2023-08-13T10:23:48Z,172962.038,Toleranz,kuvumiliana,d,maombolezo,ujasusi,mchekeshaji,NA,NA,NA,NA,NA,NA,NA,NA,NA,NA,NA,NA,NA,NA,NA,NA,NA,NA,NA,NA,NA,NA,NA
88e14,Save data screen,canvas.Screen,1_10_0_1,NA,NA,timeout,500.20800000001,172958.19999981,172945.426,172962.038,173446.02,173447.5,2023-08-13T10:23:49Z,173462.246,Toleranz,kuvumiliana,d,maombolezo,ujasusi,mchekeshaji,NA,NA,0,NA,NA,NA,NA,NA,NA,NA,NA,NA,NA,NA,NA,NA,NA,NA,NA,NA,NA,NA,NA
88e14,deep,flow.Sequence,1_10_0,NA,NA,completion,11749.246,161681.79999995,161680.101,161696.774,173446.02,173447.5999999,2023-08-13T10:23:49Z,173462.246,Toleranz,kuvumiliana,d,maombolezo,ujasusi,mchekeshaji,NA,NA,NA,NA,NA,NA,NA,NA,NA,NA,NA,NA,NA,NA,NA,NA,NA,NA,NA,NA,NA,NA,NA
88e14,task,flow.Sequence,1_10,NA,NA,completion,11749.246,161681.69999981,161680.101,161696.774,173446.02,173447.79999995,2023-08-13T10:23:49Z,173462.246,Toleranz,kuvumiliana,d,maombolezo,ujasusi,mchekeshaji,NA,NA,NA,NA,NA,NA,NA,NA,NA,NA,NA,NA,NA,NA,NA,NA,NA,NA,NA,NA,NA,NA,NA
88e14,Deep Question,html.Page,1_11_0_0,uerkozo,NA,form submission,12975.254,173448,173446.02,173462.246,186437.5,186437.79999995,2023-08-13T10:24:02Z,186444.779,Inhalt,yaliyomo,s,kishawishi,hifadhi,kutembea,NA,NA,NA,NA,NA,NA,NA,NA,NA,NA,NA,NA,NA,NA,NA,NA,NA,NA,NA,NA,NA,NA,NA
88e14,Save data screen,canvas.Screen,1_11_0_1,NA,NA,timeout,499.03099999999,186440.29999995,186426.946,186444.779,186926.98,186930.5,2023-08-13T10:24:02Z,186943.81,Inhalt,yaliyomo,s,kishawishi,hifadhi,kutembea,NA,NA,0,NA,NA,NA,NA,NA,NA,NA,NA,NA,NA,NA,NA,NA,NA,NA,NA,NA,NA,NA,NA
88e14,deep,flow.Sequence,1_11_0,NA,NA,completion,13464.734,173447.89999986,173446.02,173462.246,186926.98,186932.69999981,2023-08-13T10:24:02Z,186943.81,Inhalt,yaliyomo,s,kishawishi,hifadhi,kutembea,NA,NA,NA,NA,NA,NA,NA,NA,NA,NA,NA,NA,NA,NA,NA,NA,NA,NA,NA,NA,NA,NA,NA
88e14,task,flow.Sequence,1_11,NA,NA,completion,13464.734,173447.79999995,173446.02,173462.246,186926.98,186933.39999986,2023-08-13T10:24:02Z,186943.81,Inhalt,yaliyomo,s,kishawishi,hifadhi,kutembea,NA,NA,NA,NA,NA,NA,NA,NA,NA,NA,NA,NA,NA,NA,NA,NA,NA,NA,NA,NA,NA,NA,NA
88e14,Deep Question,html.Page,1_12_0_0,upelelezi,NA,form submission,9202.7899999046,186934.39999986,186926.98,186943.81,196146.5999999,196147.0999999,2023-08-13T10:24:12Z,196162.299,Spionage,upelelezi,d,maslahi,utokazo,magangao,NA,NA,NA,NA,NA,NA,NA,NA,NA,NA,NA,NA,NA,NA,NA,NA,NA,NA,NA,NA,NA,NA,NA
88e14,Save data screen,canvas.Screen,1_12_0_1,NA,NA,timeout,498.337,196150,196142.419,196162.299,196644.064,196646.0999999,2023-08-13T10:24:12Z,196660.636,Spionage,upelelezi,d,maslahi,utokazo,magangao,NA,NA,1,NA,NA,NA,NA,NA,NA,NA,NA,NA,NA,NA,NA,NA,NA,NA,NA,NA,NA,NA,NA
88e14,deep,flow.Sequence,1_12_0,NA,NA,completion,9700.254,186934,186926.98,186943.81,196644.064,196646.29999995,2023-08-13T10:24:12Z,196660.636,Spionage,upelelezi,d,maslahi,utokazo,magangao,NA,NA,NA,NA,NA,NA,NA,NA,NA,NA,NA,NA,NA,NA,NA,NA,NA,NA,NA,NA,NA,NA,NA
88e14,task,flow.Sequence,1_12,NA,NA,completion,9700.254,186933.69999981,186926.98,186943.81,196644.064,196646.5,2023-08-13T10:24:12Z,196660.636,Spionage,upelelezi,d,maslahi,utokazo,magangao,NA,NA,NA,NA,NA,NA,NA,NA,NA,NA,NA,NA,NA,NA,NA,NA,NA,NA,NA,NA,NA,NA,NA
88e14,Deep Question,html.Page,1_13_0_0,kikimora,NA,form submission,6497.364,196646.5999999,196644.064,196660.636,203158,203158.89999986,2023-08-13T10:24:19Z,203183.338,Hoffnung,matarajio,s,kutaalamika,uratibu,mvumbuzi,NA,NA,NA,NA,NA,NA,NA,NA,NA,NA,NA,NA,NA,NA,NA,NA,NA,NA,NA,NA,NA,NA,NA
88e14,Save data screen,canvas.Screen,1_13_0_1,NA,NA,timeout,508.08100000001,203161.5,203141.534,203183.338,203674.76,203676.29999995,2023-08-13T10:24:19Z,203691.419,Hoffnung,matarajio,s,kutaalamika,uratibu,mvumbuzi,NA,NA,0,NA,NA,NA,NA,NA,NA,NA,NA,NA,NA,NA,NA,NA,NA,NA,NA,NA,NA,NA,NA
88e14,deep,flow.Sequence,1_13_0,NA,NA,completion,7014.124,196646.5999999,196644.064,196660.636,203674.76,203677,2023-08-13T10:24:19Z,203691.419,Hoffnung,matarajio,s,kutaalamika,uratibu,mvumbuzi,NA,NA,NA,NA,NA,NA,NA,NA,NA,NA,NA,NA,NA,NA,NA,NA,NA,NA,NA,NA,NA,NA,NA
88e14,task,flow.Sequence,1_13,NA,NA,completion,7014.124,196646.5999999,196644.064,196660.636,203674.76,203677.5999999,2023-08-13T10:24:19Z,203691.419,Hoffnung,matarajio,s,kutaalamika,uratibu,mvumbuzi,NA,NA,NA,NA,NA,NA,NA,NA,NA,NA,NA,NA,NA,NA,NA,NA,NA,NA,NA,NA,NA,NA,NA
88e14,Deep Question,html.Page,1_14_0_0,udhara,NA,form submission,8857.6809999046,203677.79999995,203674.76,203691.419,212549.0999999,212549.29999995,2023-08-13T10:24:28Z,212561.636,Notfall,dharura,s,rairai,malalamiko,ahueni,NA,NA,NA,NA,NA,NA,NA,NA,NA,NA,NA,NA,NA,NA,NA,NA,NA,NA,NA,NA,NA,NA,NA
88e14,Save data screen,canvas.Screen,1_14_0_1,NA,NA,timeout,495.272,212552.19999981,212540.406,212561.636,213040.59,213047.69999981,2023-08-13T10:24:29Z,213056.908,Notfall,dharura,s,rairai,malalamiko,ahueni,NA,NA,0,NA,NA,NA,NA,NA,NA,NA,NA,NA,NA,NA,NA,NA,NA,NA,NA,NA,NA,NA,NA
88e14,deep,flow.Sequence,1_14_0,NA,NA,completion,9349.171,203677.79999995,203674.76,203691.419,213040.59,213047.89999986,2023-08-13T10:24:29Z,213056.908,Notfall,dharura,s,rairai,malalamiko,ahueni,NA,NA,NA,NA,NA,NA,NA,NA,NA,NA,NA,NA,NA,NA,NA,NA,NA,NA,NA,NA,NA,NA,NA
88e14,task,flow.Sequence,1_14,NA,NA,completion,9349.171,203677.79999995,203674.76,203691.419,213040.59,213048,2023-08-13T10:24:29Z,213056.908,Notfall,dharura,s,rairai,malalamiko,ahueni,NA,NA,NA,NA,NA,NA,NA,NA,NA,NA,NA,NA,NA,NA,NA,NA,NA,NA,NA,NA,NA,NA,NA
88e14,Deep Question,html.Page,1_15_0_0,kinyongo,NA,form submission,12306.191999905,213048.19999981,213040.59,213056.908,225363.0999999,225363.5999999,2023-08-13T10:24:41Z,225372.021,Vergnügen,kichekesho,s,dubwana,mpanuko,mtesaji,NA,NA,NA,NA,NA,NA,NA,NA,NA,NA,NA,NA,NA,NA,NA,NA,NA,NA,NA,NA,NA,NA,NA
88e14,Save data screen,canvas.Screen,1_15_0_1,NA,NA,timeout,500.052,225369.29999995,225355.448,225372.021,225855.532,225856.5999999,2023-08-13T10:24:41Z,225872.073,Vergnügen,kichekesho,s,dubwana,mpanuko,mtesaji,NA,NA,0,NA,NA,NA,NA,NA,NA,NA,NA,NA,NA,NA,NA,NA,NA,NA,NA,NA,NA,NA,NA
88e14,deep,flow.Sequence,1_15_0,NA,NA,completion,12798.624,213048.19999981,213040.59,213056.908,225855.532,225856.79999995,2023-08-13T10:24:41Z,225872.073,Vergnügen,kichekesho,s,dubwana,mpanuko,mtesaji,NA,NA,NA,NA,NA,NA,NA,NA,NA,NA,NA,NA,NA,NA,NA,NA,NA,NA,NA,NA,NA,NA,NA
88e14,task,flow.Sequence,1_15,NA,NA,completion,12798.624,213048.0999999,213040.59,213056.908,225855.532,225857.5999999,2023-08-13T10:24:41Z,225872.073,Vergnügen,kichekesho,s,dubwana,mpanuko,mtesaji,NA,NA,NA,NA,NA,NA,NA,NA,NA,NA,NA,NA,NA,NA,NA,NA,NA,NA,NA,NA,NA,NA,NA
88e14,retrieval block 1 (cued recall),flow.Loop,1,NA,NA,completion,212538.834,13307.299999952,13300.057,13316.698,225855.532,225858.19999981,2023-08-13T10:24:41Z,225872.073,NA,NA,NA,NA,NA,NA,NA,NA,NA,NA,NA,NA,NA,NA,NA,NA,NA,NA,NA,NA,NA,NA,NA,NA,NA,NA,NA,NA,NA
88e14,Shallow Question,html.Page,2_0_0_0,foleni,NA,form submission,2621.6269998093,225858.69999981,225855.532,225872.073,228493.69999981,228494,2023-08-13T10:24:44Z,228504.966,Schlange,foleni,d,uvumilivu,uteuzi,muuzaji,NA,NA,NA,NA,NA,NA,NA,NA,NA,NA,NA,NA,NA,NA,NA,NA,NA,NA,NA,NA,NA,NA,"c(""distractor1"", ""distractor2"", ""distractor3"")"
88e14,Save data screen,canvas.Screen,2_0_0_1,NA,NA,timeout,499.94100000002,228494.89999986,228489.104,228504.966,228988.404,228991,2023-08-13T10:24:44Z,229004.907,Schlange,foleni,d,uvumilivu,uteuzi,muuzaji,NA,NA,1,NA,NA,NA,NA,NA,NA,NA,NA,NA,NA,NA,NA,NA,NA,NA,NA,NA,NA,NA,"c(""distractor1"", ""distractor2"", ""distractor3"")"
88e14,shallow,flow.Sequence,2_0_0,NA,NA,completion,3116.331,225858.5,225855.532,225872.073,228988.404,228993.0999999,2023-08-13T10:24:44Z,229004.907,Schlange,foleni,d,uvumilivu,uteuzi,muuzaji,NA,NA,NA,NA,NA,NA,NA,NA,NA,NA,NA,NA,NA,NA,NA,NA,NA,NA,NA,NA,NA,NA,"c(""distractor1"", ""distractor2"", ""distractor3"")"
88e14,task,flow.Sequence,2_0,NA,NA,completion,3116.331,225858.5,225855.532,225872.073,228988.404,228994.79999995,2023-08-13T10:24:44Z,229004.907,Schlange,foleni,d,uvumilivu,uteuzi,muuzaji,NA,NA,NA,NA,NA,NA,NA,NA,NA,NA,NA,NA,NA,NA,NA,NA,NA,NA,NA,NA,NA,NA,"c(""distractor1"", ""distractor2"", ""distractor3"")"
88e14,Shallow Question,html.Page,2_1_0_0,nadharia,NA,form submission,5544.4929998569,228995.39999986,228988.404,229004.907,234549.39999986,234549.89999986,2023-08-13T10:24:50Z,234554.205,Theorie,nadharia,d,ushungi,mkutano,uwakilishi,NA,NA,NA,NA,NA,NA,NA,NA,NA,NA,NA,NA,NA,NA,NA,NA,NA,NA,NA,NA,NA,NA,"c(""distractor1"", ""distractor2"", ""distractor3"")"
88e14,Save data screen,canvas.Screen,2_1_0_1,NA,NA,timeout,499.93000000002,234559,234537.039,234554.205,235037.628,235039.29999995,2023-08-13T10:24:51Z,235054.135,Theorie,nadharia,d,ushungi,mkutano,uwakilishi,NA,NA,1,NA,NA,NA,NA,NA,NA,NA,NA,NA,NA,NA,NA,NA,NA,NA,NA,NA,NA,NA,"c(""distractor1"", ""distractor2"", ""distractor3"")"
88e14,shallow,flow.Sequence,2_1_0,NA,NA,completion,6032.721,228995.19999981,228988.404,229004.907,235037.628,235039.89999986,2023-08-13T10:24:51Z,235054.135,Theorie,nadharia,d,ushungi,mkutano,uwakilishi,NA,NA,NA,NA,NA,NA,NA,NA,NA,NA,NA,NA,NA,NA,NA,NA,NA,NA,NA,NA,NA,NA,"c(""distractor1"", ""distractor2"", ""distractor3"")"
88e14,task,flow.Sequence,2_1,NA,NA,completion,6032.721,228995.0999999,228988.404,229004.907,235037.628,235042,2023-08-13T10:24:51Z,235054.135,Theorie,nadharia,d,ushungi,mkutano,uwakilishi,NA,NA,NA,NA,NA,NA,NA,NA,NA,NA,NA,NA,NA,NA,NA,NA,NA,NA,NA,NA,NA,NA,"c(""distractor1"", ""distractor2"", ""distractor3"")"
88e14,Shallow Question,html.Page,2_2_0_0,kijalizo,NA,form submission,7548.365,235043.5999999,235037.628,235054.135,242602.5,242602.79999995,2023-08-13T10:24:58Z,242603.122,Ergänzung,kijalizo,d,ulaghai,mustarehe,matangazo,NA,NA,NA,NA,NA,NA,NA,NA,NA,NA,NA,NA,NA,NA,NA,NA,NA,NA,NA,NA,NA,NA,"c(""distractor1"", ""distractor2"", ""distractor3"")"
88e14,Save data screen,canvas.Screen,2_2_0_1,NA,NA,timeout,499.93899999998,242606.69999981,242586.216,242603.122,243087.528,243088.5999999,2023-08-13T10:24:59Z,243103.061,Ergänzung,kijalizo,d,ulaghai,mustarehe,matangazo,NA,NA,1,NA,NA,NA,NA,NA,NA,NA,NA,NA,NA,NA,NA,NA,NA,NA,NA,NA,NA,NA,"c(""distractor1"", ""distractor2"", ""distractor3"")"
88e14,shallow,flow.Sequence,2_2_0,NA,NA,completion,8033.393,235043.5,235037.628,235054.135,243087.528,243089.39999986,2023-08-13T10:24:59Z,243103.061,Ergänzung,kijalizo,d,ulaghai,mustarehe,matangazo,NA,NA,NA,NA,NA,NA,NA,NA,NA,NA,NA,NA,NA,NA,NA,NA,NA,NA,NA,NA,NA,NA,"c(""distractor1"", ""distractor2"", ""distractor3"")"
88e14,task,flow.Sequence,2_2,NA,NA,completion,8033.393,235043,235037.628,235054.135,243087.528,243090,2023-08-13T10:24:59Z,243103.061,Ergänzung,kijalizo,d,ulaghai,mustarehe,matangazo,NA,NA,NA,NA,NA,NA,NA,NA,NA,NA,NA,NA,NA,NA,NA,NA,NA,NA,NA,NA,NA,NA,"c(""distractor1"", ""distractor2"", ""distractor3"")"
88e14,Shallow Question,html.Page,2_3_0_0,mafanikio,NA,form submission,9110.338999857,243090.19999981,243087.528,243103.061,252213.39999986,252213.5999999,2023-08-13T10:25:08Z,252218.568,Wohlstand,mafanikio,d,chimbuko,kumbuko,mapwaji,NA,NA,NA,NA,NA,NA,NA,NA,NA,NA,NA,NA,NA,NA,NA,NA,NA,NA,NA,NA,NA,NA,"c(""distractor1"", ""distractor2"", ""distractor3"")"
88e14,Save data screen,canvas.Screen,2_3_0_1,NA,NA,timeout,501.54999999999,252215.89999986,252201.851,252218.568,252702.018,252706.69999981,2023-08-13T10:25:08Z,252720.118,Wohlstand,mafanikio,d,chimbuko,kumbuko,mapwaji,NA,NA,1,NA,NA,NA,NA,NA,NA,NA,NA,NA,NA,NA,NA,NA,NA,NA,NA,NA,NA,NA,"c(""distractor1"", ""distractor2"", ""distractor3"")"
88e14,shallow,flow.Sequence,2_3_0,NA,NA,completion,9598.957,243090.19999981,243087.528,243103.061,252702.018,252707.29999995,2023-08-13T10:25:08Z,252720.118,Wohlstand,mafanikio,d,chimbuko,kumbuko,mapwaji,NA,NA,NA,NA,NA,NA,NA,NA,NA,NA,NA,NA,NA,NA,NA,NA,NA,NA,NA,NA,NA,NA,"c(""distractor1"", ""distractor2"", ""distractor3"")"
88e14,task,flow.Sequence,2_3,NA,NA,completion,9598.957,243090.0999999,243087.528,243103.061,252702.018,252707.5,2023-08-13T10:25:08Z,252720.118,Wohlstand,mafanikio,d,chimbuko,kumbuko,mapwaji,NA,NA,NA,NA,NA,NA,NA,NA,NA,NA,NA,NA,NA,NA,NA,NA,NA,NA,NA,NA,NA,NA,"c(""distractor1"", ""distractor2"", ""distractor3"")"
88e14,Shallow Question,html.Page,2_4_0_0,matarajio,NA,form submission,12334.481999905,252708,252702.018,252720.118,265054.5999999,265054.89999986,2023-08-13T10:25:21Z,265068.462,Hoffnung,matarajio,s,kutaalamika,uratibu,mvumbuzi,NA,NA,NA,NA,NA,NA,NA,NA,NA,NA,NA,NA,NA,NA,NA,NA,NA,NA,NA,NA,NA,NA,"c(""distractor1"", ""distractor2"", ""distractor3"")"
88e14,Save data screen,canvas.Screen,2_4_0_1,NA,NA,timeout,498.97200000001,265057.5999999,265049.756,265068.462,265550.193,265552.0999999,2023-08-13T10:25:21Z,265567.434,Hoffnung,matarajio,s,kutaalamika,uratibu,mvumbuzi,NA,NA,1,NA,NA,NA,NA,NA,NA,NA,NA,NA,NA,NA,NA,NA,NA,NA,NA,NA,NA,NA,"c(""distractor1"", ""distractor2"", ""distractor3"")"
88e14,shallow,flow.Sequence,2_4_0,NA,NA,completion,12830.075,252707.5999999,252702.018,252720.118,265550.193,265552.29999995,2023-08-13T10:25:21Z,265567.434,Hoffnung,matarajio,s,kutaalamika,uratibu,mvumbuzi,NA,NA,NA,NA,NA,NA,NA,NA,NA,NA,NA,NA,NA,NA,NA,NA,NA,NA,NA,NA,NA,NA,"c(""distractor1"", ""distractor2"", ""distractor3"")"
88e14,task,flow.Sequence,2_4,NA,NA,completion,12830.075,252707.5999999,252702.018,252720.118,265550.193,265552.5,2023-08-13T10:25:21Z,265567.434,Hoffnung,matarajio,s,kutaalamika,uratibu,mvumbuzi,NA,NA,NA,NA,NA,NA,NA,NA,NA,NA,NA,NA,NA,NA,NA,NA,NA,NA,NA,NA,NA,NA,"c(""distractor1"", ""distractor2"", ""distractor3"")"
88e14,Shallow Question,html.Page,2_5_0_0,upelelezi,NA,form submission,2943.3659999523,265552.69999981,265550.193,265567.434,268510.79999995,268511.0999999,2023-08-13T10:25:24Z,268520.279,Spionage,upelelezi,d,maslahi,utokazo,magangao,NA,NA,NA,NA,NA,NA,NA,NA,NA,NA,NA,NA,NA,NA,NA,NA,NA,NA,NA,NA,NA,NA,"c(""distractor1"", ""distractor2"", ""distractor3"")"
88e14,Save data screen,canvas.Screen,2_5_0_1,NA,NA,timeout,496.73600000003,268512,268501.005,268520.279,268999.78,269002.19999981,2023-08-13T10:25:24Z,269017.015,Spionage,upelelezi,d,maslahi,utokazo,magangao,NA,NA,1,NA,NA,NA,NA,NA,NA,NA,NA,NA,NA,NA,NA,NA,NA,NA,NA,NA,NA,NA,"c(""distractor1"", ""distractor2"", ""distractor3"")"
88e14,shallow,flow.Sequence,2_5_0,NA,NA,completion,3432.346,265552.69999981,265550.193,265567.434,268999.78,269002.5,2023-08-13T10:25:24Z,269017.015,Spionage,upelelezi,d,maslahi,utokazo,magangao,NA,NA,NA,NA,NA,NA,NA,NA,NA,NA,NA,NA,NA,NA,NA,NA,NA,NA,NA,NA,NA,NA,"c(""distractor1"", ""distractor2"", ""distractor3"")"
88e14,task,flow.Sequence,2_5,NA,NA,completion,3432.346,265552.5999999,265550.193,265567.434,268999.78,269003,2023-08-13T10:25:24Z,269017.015,Spionage,upelelezi,d,maslahi,utokazo,magangao,NA,NA,NA,NA,NA,NA,NA,NA,NA,NA,NA,NA,NA,NA,NA,NA,NA,NA,NA,NA,NA,NA,"c(""distractor1"", ""distractor2"", ""distractor3"")"
88e14,Shallow Question,html.Page,2_6_0_0,dirisha,NA,form submission,5568.5849999046,269003.19999981,268999.78,269017.015,274585.5999999,274585.89999986,2023-08-13T10:25:30Z,274599.069,Fenster,dirisha,d,walakini,tasawari,maarifa,NA,NA,NA,NA,NA,NA,NA,NA,NA,NA,NA,NA,NA,NA,NA,NA,NA,NA,NA,NA,NA,NA,"c(""distractor1"", ""distractor2"", ""distractor3"")"
88e14,Save data screen,canvas.Screen,2_6_0_1,NA,NA,timeout,500.56199999998,274588,274582.156,274599.069,275082.494,275085.0999999,2023-08-13T10:25:31Z,275099.631,Fenster,dirisha,d,walakini,tasawari,maarifa,NA,NA,1,NA,NA,NA,NA,NA,NA,NA,NA,NA,NA,NA,NA,NA,NA,NA,NA,NA,NA,NA,"c(""distractor1"", ""distractor2"", ""distractor3"")"
88e14,shallow,flow.Sequence,2_6_0,NA,NA,completion,6065.479,269003.19999981,268999.78,269017.015,275082.494,275085.69999981,2023-08-13T10:25:31Z,275099.631,Fenster,dirisha,d,walakini,tasawari,maarifa,NA,NA,NA,NA,NA,NA,NA,NA,NA,NA,NA,NA,NA,NA,NA,NA,NA,NA,NA,NA,NA,NA,"c(""distractor1"", ""distractor2"", ""distractor3"")"
88e14,task,flow.Sequence,2_6,NA,NA,completion,6065.479,269003.0999999,268999.78,269017.015,275082.494,275086.19999981,2023-08-13T10:25:31Z,275099.631,Fenster,dirisha,d,walakini,tasawari,maarifa,NA,NA,NA,NA,NA,NA,NA,NA,NA,NA,NA,NA,NA,NA,NA,NA,NA,NA,NA,NA,NA,NA,"c(""distractor1"", ""distractor2"", ""distractor3"")"
88e14,Shallow Question,html.Page,2_7_0_0,mshtuko,NA,form submission,7662.9689999046,275086.5999999,275082.494,275099.631,282762.5999999,282762.79999995,2023-08-13T10:25:38Z,282764.702,Schock,mshtuko,d,biashara,kukataza,vichekesho,NA,NA,NA,NA,NA,NA,NA,NA,NA,NA,NA,NA,NA,NA,NA,NA,NA,NA,NA,NA,NA,NA,"c(""distractor1"", ""distractor2"", ""distractor3"")"
88e14,Save data screen,canvas.Screen,2_7_0_1,NA,NA,timeout,502.46000000002,282765.79999995,282749.57,282764.702,283248.162,283251.69999981,2023-08-13T10:25:39Z,283267.162,Schock,mshtuko,d,biashara,kukataza,vichekesho,NA,NA,1,NA,NA,NA,NA,NA,NA,NA,NA,NA,NA,NA,NA,NA,NA,NA,NA,NA,NA,NA,"c(""distractor1"", ""distractor2"", ""distractor3"")"
88e14,shallow,flow.Sequence,2_7_0,NA,NA,completion,8148.531,275086.5999999,275082.494,275099.631,283248.162,283252.5999999,2023-08-13T10:25:39Z,283267.162,Schock,mshtuko,d,biashara,kukataza,vichekesho,NA,NA,NA,NA,NA,NA,NA,NA,NA,NA,NA,NA,NA,NA,NA,NA,NA,NA,NA,NA,NA,NA,"c(""distractor1"", ""distractor2"", ""distractor3"")"
88e14,task,flow.Sequence,2_7,NA,NA,completion,8148.531,275086.5,275082.494,275099.631,283248.162,283253.29999995,2023-08-13T10:25:39Z,283267.162,Schock,mshtuko,d,biashara,kukataza,vichekesho,NA,NA,NA,NA,NA,NA,NA,NA,NA,NA,NA,NA,NA,NA,NA,NA,NA,NA,NA,NA,NA,NA,"c(""distractor1"", ""distractor2"", ""distractor3"")"
88e14,Shallow Question,html.Page,2_8_0_0,kuvumiliana,NA,form submission,14157.237999857,283253.79999995,283248.162,283267.162,297424.39999986,297424.79999995,2023-08-13T10:25:53Z,297429.47,Toleranz,kuvumiliana,d,maombolezo,ujasusi,mchekeshaji,NA,NA,NA,NA,NA,NA,NA,NA,NA,NA,NA,NA,NA,NA,NA,NA,NA,NA,NA,NA,NA,NA,"c(""distractor1"", ""distractor2"", ""distractor3"")"
88e14,Save data screen,canvas.Screen,2_8_0_1,NA,NA,timeout,499.91100000002,297427.39999986,297413.379,297429.47,297912.742,297913.89999986,2023-08-13T10:25:53Z,297929.381,Toleranz,kuvumiliana,d,maombolezo,ujasusi,mchekeshaji,NA,NA,1,NA,NA,NA,NA,NA,NA,NA,NA,NA,NA,NA,NA,NA,NA,NA,NA,NA,NA,NA,"c(""distractor1"", ""distractor2"", ""distractor3"")"
88e14,shallow,flow.Sequence,2_8_0,NA,NA,completion,14645.58,283253.69999981,283248.162,283267.162,297912.742,297914.19999981,2023-08-13T10:25:53Z,297929.381,Toleranz,kuvumiliana,d,maombolezo,ujasusi,mchekeshaji,NA,NA,NA,NA,NA,NA,NA,NA,NA,NA,NA,NA,NA,NA,NA,NA,NA,NA,NA,NA,NA,NA,"c(""distractor1"", ""distractor2"", ""distractor3"")"
88e14,task,flow.Sequence,2_8,NA,NA,completion,14645.58,283253.5999999,283248.162,283267.162,297912.742,297914.29999995,2023-08-13T10:25:53Z,297929.381,Toleranz,kuvumiliana,d,maombolezo,ujasusi,mchekeshaji,NA,NA,NA,NA,NA,NA,NA,NA,NA,NA,NA,NA,NA,NA,NA,NA,NA,NA,NA,NA,NA,NA,"c(""distractor1"", ""distractor2"", ""distractor3"")"
88e14,Shallow Question,html.Page,2_9_0_0,udhanifu,NA,form submission,9176.119,297915.19999981,297912.742,297929.381,307105.5,307105.79999995,2023-08-13T10:26:03Z,307111.738,Vermutung,udhanifu,s,haramia,tikisho,itifaki,NA,NA,NA,NA,NA,NA,NA,NA,NA,NA,NA,NA,NA,NA,NA,NA,NA,NA,NA,NA,NA,NA,"c(""distractor1"", ""distractor2"", ""distractor3"")"
88e14,Save data screen,canvas.Screen,2_9_0_1,NA,NA,timeout,499.79399999999,307108.0999999,307094.788,307111.738,307594.882,307596,2023-08-13T10:26:03Z,307611.532,Vermutung,udhanifu,s,haramia,tikisho,itifaki,NA,NA,1,NA,NA,NA,NA,NA,NA,NA,NA,NA,NA,NA,NA,NA,NA,NA,NA,NA,NA,NA,"c(""distractor1"", ""distractor2"", ""distractor3"")"
88e14,shallow,flow.Sequence,2_9_0,NA,NA,completion,9665.501,297914.79999995,297912.742,297929.381,307594.882,307596.19999981,2023-08-13T10:26:03Z,307611.532,Vermutung,udhanifu,s,haramia,tikisho,itifaki,NA,NA,NA,NA,NA,NA,NA,NA,NA,NA,NA,NA,NA,NA,NA,NA,NA,NA,NA,NA,NA,NA,"c(""distractor1"", ""distractor2"", ""distractor3"")"
88e14,task,flow.Sequence,2_9,NA,NA,completion,9665.501,297914.5999999,297912.742,297929.381,307594.882,307597,2023-08-13T10:26:03Z,307611.532,Vermutung,udhanifu,s,haramia,tikisho,itifaki,NA,NA,NA,NA,NA,NA,NA,NA,NA,NA,NA,NA,NA,NA,NA,NA,NA,NA,NA,NA,NA,NA,"c(""distractor1"", ""distractor2"", ""distractor3"")"
88e14,Shallow Question,html.Page,2_10_0_0,mwanafunzi,NA,form submission,4820.468,307597.39999986,307594.882,307611.532,312432,312433.29999995,2023-08-13T10:26:08Z,312427.606,Schüler,mwanafunzi,s,mwekezaji,matumizi,uaminifu,NA,NA,NA,NA,NA,NA,NA,NA,NA,NA,NA,NA,NA,NA,NA,NA,NA,NA,NA,NA,NA,NA,"c(""distractor1"", ""distractor2"", ""distractor3"")"
88e14,Save data screen,canvas.Screen,2_10_0_1,NA,NA,timeout,503.53899999999,312435.5999999,312411.092,312427.606,312911.027,312912.69999981,2023-08-13T10:26:08Z,312931.145,Schüler,mwanafunzi,s,mwekezaji,matumizi,uaminifu,NA,NA,1,NA,NA,NA,NA,NA,NA,NA,NA,NA,NA,NA,NA,NA,NA,NA,NA,NA,NA,NA,"c(""distractor1"", ""distractor2"", ""distractor3"")"
88e14,shallow,flow.Sequence,2_10_0,NA,NA,completion,5299.495,307597.39999986,307594.882,307611.532,312911.027,312912.79999995,2023-08-13T10:26:08Z,312931.145,Schüler,mwanafunzi,s,mwekezaji,matumizi,uaminifu,NA,NA,NA,NA,NA,NA,NA,NA,NA,NA,NA,NA,NA,NA,NA,NA,NA,NA,NA,NA,NA,NA,"c(""distractor1"", ""distractor2"", ""distractor3"")"
88e14,task,flow.Sequence,2_10,NA,NA,completion,5299.495,307597.0999999,307594.882,307611.532,312911.027,312913.0999999,2023-08-13T10:26:08Z,312931.145,Schüler,mwanafunzi,s,mwekezaji,matumizi,uaminifu,NA,NA,NA,NA,NA,NA,NA,NA,NA,NA,NA,NA,NA,NA,NA,NA,NA,NA,NA,NA,NA,NA,"c(""distractor1"", ""distractor2"", ""distractor3"")"
88e14,Shallow Question,html.Page,2_11_0_0,wanaojaribu,NA,form submission,9947.9549999046,312913.19999981,312911.027,312931.145,322879.0999999,322879.39999986,2023-08-13T10:26:18Z,322876.213,Tester,wanaojaribu,s,sherti,sihiri,mlipuko,NA,NA,NA,NA,NA,NA,NA,NA,NA,NA,NA,NA,NA,NA,NA,NA,NA,NA,NA,NA,NA,NA,"c(""distractor1"", ""distractor2"", ""distractor3"")"
88e14,Save data screen,canvas.Screen,2_11_0_1,NA,NA,timeout,500.20400000003,322882.29999995,322859.512,322876.213,323360.389,323361.39999986,2023-08-13T10:26:19Z,323376.417,Tester,wanaojaribu,s,sherti,sihiri,mlipuko,NA,NA,1,NA,NA,NA,NA,NA,NA,NA,NA,NA,NA,NA,NA,NA,NA,NA,NA,NA,NA,NA,"c(""distractor1"", ""distractor2"", ""distractor3"")"
88e14,shallow,flow.Sequence,2_11_0,NA,NA,completion,10429.244,312913.19999981,312911.027,312931.145,323360.389,323361.89999986,2023-08-13T10:26:19Z,323376.417,Tester,wanaojaribu,s,sherti,sihiri,mlipuko,NA,NA,NA,NA,NA,NA,NA,NA,NA,NA,NA,NA,NA,NA,NA,NA,NA,NA,NA,NA,NA,NA,"c(""distractor1"", ""distractor2"", ""distractor3"")"
88e14,task,flow.Sequence,2_11,NA,NA,completion,10429.244,312913.19999981,312911.027,312931.145,323360.389,323362.0999999,2023-08-13T10:26:19Z,323376.417,Tester,wanaojaribu,s,sherti,sihiri,mlipuko,NA,NA,NA,NA,NA,NA,NA,NA,NA,NA,NA,NA,NA,NA,NA,NA,NA,NA,NA,NA,NA,NA,"c(""distractor1"", ""distractor2"", ""distractor3"")"
88e14,Shallow Question,html.Page,2_12_0_0,yaliyomo,NA,form submission,9105.2829998092,323362.69999981,323360.389,323376.417,332481.69999981,332481.89999986,2023-08-13T10:26:28Z,332491.679,Inhalt,yaliyomo,s,kishawishi,hifadhi,kutembea,NA,NA,NA,NA,NA,NA,NA,NA,NA,NA,NA,NA,NA,NA,NA,NA,NA,NA,NA,NA,NA,NA,"c(""distractor1"", ""distractor2"", ""distractor3"")"
88e14,Save data screen,canvas.Screen,2_12_0_1,NA,NA,timeout,499.913,332484.19999981,332474.96,332491.679,332974.934,332978,2023-08-13T10:26:28Z,332991.592,Inhalt,yaliyomo,s,kishawishi,hifadhi,kutembea,NA,NA,1,NA,NA,NA,NA,NA,NA,NA,NA,NA,NA,NA,NA,NA,NA,NA,NA,NA,NA,NA,"c(""distractor1"", ""distractor2"", ""distractor3"")"
88e14,shallow,flow.Sequence,2_12_0,NA,NA,completion,9598.517,323362.69999981,323360.389,323376.417,332974.934,332978.39999986,2023-08-13T10:26:28Z,332991.592,Inhalt,yaliyomo,s,kishawishi,hifadhi,kutembea,NA,NA,NA,NA,NA,NA,NA,NA,NA,NA,NA,NA,NA,NA,NA,NA,NA,NA,NA,NA,NA,NA,"c(""distractor1"", ""distractor2"", ""distractor3"")"
88e14,task,flow.Sequence,2_12,NA,NA,completion,9598.517,323362.19999981,323360.389,323376.417,332974.934,332978.69999981,2023-08-13T10:26:28Z,332991.592,Inhalt,yaliyomo,s,kishawishi,hifadhi,kutembea,NA,NA,NA,NA,NA,NA,NA,NA,NA,NA,NA,NA,NA,NA,NA,NA,NA,NA,NA,NA,NA,NA,"c(""distractor1"", ""distractor2"", ""distractor3"")"
88e14,Shallow Question,html.Page,2_13_0_0,dharura,NA,form submission,3768.408,332978.89999986,332974.934,332991.592,336760,336760.69999981,2023-08-13T10:26:32Z,336758.154,Notfall,dharura,s,rairai,malalamiko,ahueni,NA,NA,NA,NA,NA,NA,NA,NA,NA,NA,NA,NA,NA,NA,NA,NA,NA,NA,NA,NA,NA,NA,"c(""distractor1"", ""distractor2"", ""distractor3"")"
88e14,Save data screen,canvas.Screen,2_13_0_1,NA,NA,timeout,499.55100000004,336764.69999981,336740.912,336758.154,337241.067,337242,2023-08-13T10:26:33Z,337257.705,Notfall,dharura,s,rairai,malalamiko,ahueni,NA,NA,1,NA,NA,NA,NA,NA,NA,NA,NA,NA,NA,NA,NA,NA,NA,NA,NA,NA,NA,NA,"c(""distractor1"", ""distractor2"", ""distractor3"")"
88e14,shallow,flow.Sequence,2_13_0,NA,NA,completion,4249.475,332978.79999995,332974.934,332991.592,337241.067,337242.19999981,2023-08-13T10:26:33Z,337257.705,Notfall,dharura,s,rairai,malalamiko,ahueni,NA,NA,NA,NA,NA,NA,NA,NA,NA,NA,NA,NA,NA,NA,NA,NA,NA,NA,NA,NA,NA,NA,"c(""distractor1"", ""distractor2"", ""distractor3"")"
88e14,task,flow.Sequence,2_13,NA,NA,completion,4249.475,332978.79999995,332974.934,332991.592,337241.067,337242.5,2023-08-13T10:26:33Z,337257.705,Notfall,dharura,s,rairai,malalamiko,ahueni,NA,NA,NA,NA,NA,NA,NA,NA,NA,NA,NA,NA,NA,NA,NA,NA,NA,NA,NA,NA,NA,NA,"c(""distractor1"", ""distractor2"", ""distractor3"")"
88e14,Shallow Question,html.Page,2_14_0_0,kichekesho,NA,form submission,11523.795,337244.29999995,337241.067,337257.705,348781.5,348781.79999995,2023-08-13T10:26:44Z,348790.77,Vergnügen,kichekesho,s,dubwana,mpanuko,mtesaji,NA,NA,NA,NA,NA,NA,NA,NA,NA,NA,NA,NA,NA,NA,NA,NA,NA,NA,NA,NA,NA,NA,"c(""distractor1"", ""distractor2"", ""distractor3"")"
88e14,Save data screen,canvas.Screen,2_14_0_1,NA,NA,timeout,500.41399999999,348784.19999981,348772.848,348790.77,349272.858,349275.5,2023-08-13T10:26:45Z,349291.184,Vergnügen,kichekesho,s,dubwana,mpanuko,mtesaji,NA,NA,1,NA,NA,NA,NA,NA,NA,NA,NA,NA,NA,NA,NA,NA,NA,NA,NA,NA,NA,NA,"c(""distractor1"", ""distractor2"", ""distractor3"")"
88e14,shallow,flow.Sequence,2_14_0,NA,NA,completion,12015.153,337244.29999995,337241.067,337257.705,349272.858,349275.89999986,2023-08-13T10:26:45Z,349291.184,Vergnügen,kichekesho,s,dubwana,mpanuko,mtesaji,NA,NA,NA,NA,NA,NA,NA,NA,NA,NA,NA,NA,NA,NA,NA,NA,NA,NA,NA,NA,NA,NA,"c(""distractor1"", ""distractor2"", ""distractor3"")"
88e14,task,flow.Sequence,2_14,NA,NA,completion,12015.153,337244.29999995,337241.067,337257.705,349272.858,349276.89999986,2023-08-13T10:26:45Z,349291.184,Vergnügen,kichekesho,s,dubwana,mpanuko,mtesaji,NA,NA,NA,NA,NA,NA,NA,NA,NA,NA,NA,NA,NA,NA,NA,NA,NA,NA,NA,NA,NA,NA,"c(""distractor1"", ""distractor2"", ""distractor3"")"
