observation,sender,sender_type,sender_id,response,response_action,ended_on,duration,time_run,time_render,time_show,time_end,time_commit,timestamp,time_switch,german,swahili,enc,distractor1,distractor2,distractor3,response_2,x,correct,distractors,url_vp,url_sess,meta_labjs_version,meta_location,meta_user_agent,meta_platform,meta_language,meta_locale,meta_time_zone,meta_timezone_offset,meta_screen_width,meta_screen_height,meta_scroll_width,meta_scroll_height,meta_window_inner_width,meta_window_inner_height,meta_device_pixel_ratio,meta_labjs_build_flavor,meta_labjs_build_commit
86528,Introduction delayed retrieval,canvas.Screen,0,weiter,keypress(Space),response,42756.853000001,827.90000000037,764.083,830.747,43587.600000001,43594.600000001,2023-12-07T15:33:22Z,43596.908,NA,NA,NA,NA,NA,NA,NA,NA,NA,NULL,132,4,20.2.4,https://neurocog.fernuni.ch/studies/vweber/delayed/index.html?vp=132&sess=4,"Mozilla/5.0 (Macintosh; Intel Mac OS X 10_15_7) AppleWebKit/537.36 (KHTML, like Gecko) Chrome/119.0.0.0 Safari/537.36",MacIntel,de-DE,de,Europe/Zurich,-60,1440,900,1440,671,1440,719,2,production,f5b4a49f956347addd546a832a3327688c2c0fef
86528,Deep Question,html.Page,1_0_0_0,NA,NA,form submission,18710.492,43595,43580.242,43596.908,62307.4,62307.700000001,2023-12-07T15:33:41Z,62314.559,Gefährdung,kuhatarisha,d,uchokozi,udhaifu,makorowezo,suhali,NA,NA,NULL,NA,NA,NA,NA,NA,NA,NA,NA,NA,NA,NA,NA,NA,NA,NA,NA,NA,NA,NA
86528,Save data screen,canvas.Screen,1_0_0_1,NA,NA,timeout,499.98,62308.4,62297.893,62314.559,62797.873,62801.100000001,2023-12-07T15:33:41Z,62814.539,Gefährdung,kuhatarisha,d,uchokozi,udhaifu,makorowezo,NA,NA,0,NULL,NA,NA,NA,NA,NA,NA,NA,NA,NA,NA,NA,NA,NA,NA,NA,NA,NA,NA,NA
86528,deep,flow.Sequence,1_0_0,NA,NA,completion,19200.965,43595,43580.242,43596.908,62797.873,62801.4,2023-12-07T15:33:41Z,62814.539,Gefährdung,kuhatarisha,d,uchokozi,udhaifu,makorowezo,NA,NA,NA,NULL,NA,NA,NA,NA,NA,NA,NA,NA,NA,NA,NA,NA,NA,NA,NA,NA,NA,NA,NA
86528,task,flow.Sequence,1_0,NA,NA,completion,19200.965,43595,43580.242,43596.908,62797.873,62801.5,2023-12-07T15:33:41Z,62814.539,Gefährdung,kuhatarisha,d,uchokozi,udhaifu,makorowezo,NA,NA,NA,NULL,NA,NA,NA,NA,NA,NA,NA,NA,NA,NA,NA,NA,NA,NA,NA,NA,NA,NA,NA
86528,Deep Question,html.Page,1_1_0_0,NA,NA,form submission,11408.661000001,62801.600000001,62797.873,62814.539,74223.200000001,74223.700000001,2023-12-07T15:33:53Z,74231.843,Kultur,utamaduni,d,shetani,gerezani,mazingira,kawash,NA,NA,NULL,NA,NA,NA,NA,NA,NA,NA,NA,NA,NA,NA,NA,NA,NA,NA,NA,NA,NA,NA
86528,Save data screen,canvas.Screen,1_1_0_1,NA,NA,timeout,499.98000000001,74226.600000001,74215.177,74231.843,74715.157,74719.5,2023-12-07T15:33:53Z,74731.823,Kultur,utamaduni,d,shetani,gerezani,mazingira,NA,NA,0,NULL,NA,NA,NA,NA,NA,NA,NA,NA,NA,NA,NA,NA,NA,NA,NA,NA,NA,NA,NA
86528,deep,flow.Sequence,1_1_0,NA,NA,completion,11900.618,62801.600000001,62797.873,62814.539,74715.157,74719.9,2023-12-07T15:33:53Z,74731.823,Kultur,utamaduni,d,shetani,gerezani,mazingira,NA,NA,NA,NULL,NA,NA,NA,NA,NA,NA,NA,NA,NA,NA,NA,NA,NA,NA,NA,NA,NA,NA,NA
86528,task,flow.Sequence,1_1,NA,NA,completion,11900.618,62801.5,62797.873,62814.539,74715.157,74720.200000001,2023-12-07T15:33:53Z,74731.823,Kultur,utamaduni,d,shetani,gerezani,mazingira,NA,NA,NA,NULL,NA,NA,NA,NA,NA,NA,NA,NA,NA,NA,NA,NA,NA,NA,NA,NA,NA,NA,NA
86528,Deep Question,html.Page,1_2_0_0,NA,NA,form submission,30725.177,74720.5,74715.157,74731.823,105457,105457.3,2023-12-07T15:34:24Z,105465.038,Abrechnung,uhasibu,d,kusahihisha,mpambano,mashambulizi,-,NA,NA,NULL,NA,NA,NA,NA,NA,NA,NA,NA,NA,NA,NA,NA,NA,NA,NA,NA,NA,NA,NA
86528,Save data screen,canvas.Screen,1_2_0_1,NA,NA,timeout,500.719,105460.3,105448.372,105465.038,105949.091,105954.1,2023-12-07T15:34:24Z,105965.757,Abrechnung,uhasibu,d,kusahihisha,mpambano,mashambulizi,NA,NA,0,NULL,NA,NA,NA,NA,NA,NA,NA,NA,NA,NA,NA,NA,NA,NA,NA,NA,NA,NA,NA
86528,deep,flow.Sequence,1_2_0,NA,NA,completion,31217.268,74720.5,74715.157,74731.823,105949.091,105954.6,2023-12-07T15:34:24Z,105965.757,Abrechnung,uhasibu,d,kusahihisha,mpambano,mashambulizi,NA,NA,NA,NULL,NA,NA,NA,NA,NA,NA,NA,NA,NA,NA,NA,NA,NA,NA,NA,NA,NA,NA,NA
86528,task,flow.Sequence,1_2,NA,NA,completion,31217.268,74720.300000001,74715.157,74731.823,105949.091,105954.9,2023-12-07T15:34:24Z,105965.757,Abrechnung,uhasibu,d,kusahihisha,mpambano,mashambulizi,NA,NA,NA,NULL,NA,NA,NA,NA,NA,NA,NA,NA,NA,NA,NA,NA,NA,NA,NA,NA,NA,NA,NA
86528,Deep Question,html.Page,1_3_0_0,NA,NA,form submission,6106.9430000011,105955.1,105949.091,105965.757,112072.7,112073,2023-12-07T15:34:31Z,112082.179,Kontrolle,kudhibiti,d,mbinguni,kufunga,utegemezi,kupesi,NA,NA,NULL,NA,NA,NA,NA,NA,NA,NA,NA,NA,NA,NA,NA,NA,NA,NA,NA,NA,NA,NA
86528,Save data screen,canvas.Screen,1_3_0_1,NA,NA,timeout,499.98,112075.6,112065.513,112082.179,112565.493,112570.8,2023-12-07T15:34:31Z,112582.159,Kontrolle,kudhibiti,d,mbinguni,kufunga,utegemezi,NA,NA,0,NULL,NA,NA,NA,NA,NA,NA,NA,NA,NA,NA,NA,NA,NA,NA,NA,NA,NA,NA,NA
86528,deep,flow.Sequence,1_3_0,NA,NA,completion,6599.736,105955,105949.091,105965.757,112565.493,112571.1,2023-12-07T15:34:31Z,112582.159,Kontrolle,kudhibiti,d,mbinguni,kufunga,utegemezi,NA,NA,NA,NULL,NA,NA,NA,NA,NA,NA,NA,NA,NA,NA,NA,NA,NA,NA,NA,NA,NA,NA,NA
86528,task,flow.Sequence,1_3,NA,NA,completion,6599.736,105955,105949.091,105965.757,112565.493,112571.3,2023-12-07T15:34:31Z,112582.159,Kontrolle,kudhibiti,d,mbinguni,kufunga,utegemezi,NA,NA,NA,NULL,NA,NA,NA,NA,NA,NA,NA,NA,NA,NA,NA,NA,NA,NA,NA,NA,NA,NA,NA
86528,Deep Question,html.Page,1_4_0_0,NA,NA,form submission,5707.1410000007,112571.6,112565.493,112582.159,118289.3,118289.5,2023-12-07T15:34:37Z,118299.168,Prüfung,mtihani,s,mkulima,mtizamo,ufumbuzi,-,NA,NA,NULL,NA,NA,NA,NA,NA,NA,NA,NA,NA,NA,NA,NA,NA,NA,NA,NA,NA,NA,NA
86528,Save data screen,canvas.Screen,1_4_0_1,NA,NA,timeout,499.98,118291.8,118282.502,118299.168,118782.482,118787.7,2023-12-07T15:34:37Z,118799.148,Prüfung,mtihani,s,mkulima,mtizamo,ufumbuzi,NA,NA,0,NULL,NA,NA,NA,NA,NA,NA,NA,NA,NA,NA,NA,NA,NA,NA,NA,NA,NA,NA,NA
86528,deep,flow.Sequence,1_4_0,NA,NA,completion,6200.323,112571.6,112565.493,112582.159,118782.482,118788.1,2023-12-07T15:34:37Z,118799.148,Prüfung,mtihani,s,mkulima,mtizamo,ufumbuzi,NA,NA,NA,NULL,NA,NA,NA,NA,NA,NA,NA,NA,NA,NA,NA,NA,NA,NA,NA,NA,NA,NA,NA
86528,task,flow.Sequence,1_4,NA,NA,completion,6200.323,112571.4,112565.493,112582.159,118782.482,118788.4,2023-12-07T15:34:37Z,118799.148,Prüfung,mtihani,s,mkulima,mtizamo,ufumbuzi,NA,NA,NA,NULL,NA,NA,NA,NA,NA,NA,NA,NA,NA,NA,NA,NA,NA,NA,NA,NA,NA,NA,NA
86528,Deep Question,html.Page,1_5_0_0,NA,NA,form submission,5440.2520000004,118788.6,118782.482,118799.148,124239.4,124239.6,2023-12-07T15:34:43Z,124248.93,Aufstand,ugomaji,s,mazidio,msingi,kujieleza,-,NA,NA,NULL,NA,NA,NA,NA,NA,NA,NA,NA,NA,NA,NA,NA,NA,NA,NA,NA,NA,NA,NA
86528,Save data screen,canvas.Screen,1_5_0_1,NA,NA,timeout,499.98000000001,124242,124232.264,124248.93,124732.244,124737.2,2023-12-07T15:34:43Z,124748.91,Aufstand,ugomaji,s,mazidio,msingi,kujieleza,NA,NA,0,NULL,NA,NA,NA,NA,NA,NA,NA,NA,NA,NA,NA,NA,NA,NA,NA,NA,NA,NA,NA
86528,deep,flow.Sequence,1_5_0,NA,NA,completion,5933.096,118788.6,118782.482,118799.148,124732.244,124737.5,2023-12-07T15:34:43Z,124748.91,Aufstand,ugomaji,s,mazidio,msingi,kujieleza,NA,NA,NA,NULL,NA,NA,NA,NA,NA,NA,NA,NA,NA,NA,NA,NA,NA,NA,NA,NA,NA,NA,NA
86528,task,flow.Sequence,1_5,NA,NA,completion,5933.096,118788.5,118782.482,118799.148,124732.244,124737.8,2023-12-07T15:34:43Z,124748.91,Aufstand,ugomaji,s,mazidio,msingi,kujieleza,NA,NA,NA,NULL,NA,NA,NA,NA,NA,NA,NA,NA,NA,NA,NA,NA,NA,NA,NA,NA,NA,NA,NA
86528,Deep Question,html.Page,1_6_0_0,NA,NA,form submission,4990.4900000004,124738,124732.244,124748.91,129739.4,129739.6,2023-12-07T15:34:48Z,129749.171,Verzögerung,kuchelewa,d,mwakilishi,mwanauchumi,jaribio,-,NA,NA,NULL,NA,NA,NA,NA,NA,NA,NA,NA,NA,NA,NA,NA,NA,NA,NA,NA,NA,NA,NA
86528,Save data screen,canvas.Screen,1_6_0_1,NA,NA,timeout,499.98,129742,129732.505,129749.171,130232.485,130237.1,2023-12-07T15:34:49Z,130249.151,Verzögerung,kuchelewa,d,mwakilishi,mwanauchumi,jaribio,NA,NA,0,NULL,NA,NA,NA,NA,NA,NA,NA,NA,NA,NA,NA,NA,NA,NA,NA,NA,NA,NA,NA
86528,deep,flow.Sequence,1_6_0,NA,NA,completion,5483.575,124737.9,124732.244,124748.91,130232.485,130237.5,2023-12-07T15:34:49Z,130249.151,Verzögerung,kuchelewa,d,mwakilishi,mwanauchumi,jaribio,NA,NA,NA,NULL,NA,NA,NA,NA,NA,NA,NA,NA,NA,NA,NA,NA,NA,NA,NA,NA,NA,NA,NA
86528,task,flow.Sequence,1_6,NA,NA,completion,5483.575,124737.9,124732.244,124748.91,130232.485,130237.7,2023-12-07T15:34:49Z,130249.151,Verzögerung,kuchelewa,d,mwakilishi,mwanauchumi,jaribio,NA,NA,NA,NULL,NA,NA,NA,NA,NA,NA,NA,NA,NA,NA,NA,NA,NA,NA,NA,NA,NA,NA,NA
86528,Deep Question,html.Page,1_7_0_0,NA,NA,form submission,104458.649,130237.9,130232.485,130249.151,234707.8,234708.1,2023-12-07T15:36:33Z,234717.409,Lawine,banguko,s,maambukizi,usuluhishi,chekechea,bungawo,NA,NA,NULL,NA,NA,NA,NA,NA,NA,NA,NA,NA,NA,NA,NA,NA,NA,NA,NA,NA,NA,NA
86528,Save data screen,canvas.Screen,1_7_0_1,NA,NA,timeout,499.97999999998,234710.9,234700.743,234717.409,235200.723,235204.2,2023-12-07T15:36:34Z,235217.389,Lawine,banguko,s,maambukizi,usuluhishi,chekechea,NA,NA,0,NULL,NA,NA,NA,NA,NA,NA,NA,NA,NA,NA,NA,NA,NA,NA,NA,NA,NA,NA,NA
86528,deep,flow.Sequence,1_7_0,NA,NA,completion,104951.572,130237.9,130232.485,130249.151,235200.723,235204.3,2023-12-07T15:36:34Z,235217.389,Lawine,banguko,s,maambukizi,usuluhishi,chekechea,NA,NA,NA,NULL,NA,NA,NA,NA,NA,NA,NA,NA,NA,NA,NA,NA,NA,NA,NA,NA,NA,NA,NA
86528,task,flow.Sequence,1_7,NA,NA,completion,104951.572,130237.9,130232.485,130249.151,235200.723,235204.5,2023-12-07T15:36:34Z,235217.389,Lawine,banguko,s,maambukizi,usuluhishi,chekechea,NA,NA,NA,NULL,NA,NA,NA,NA,NA,NA,NA,NA,NA,NA,NA,NA,NA,NA,NA,NA,NA,NA,NA
86528,Deep Question,html.Page,1_8_0_0,NA,NA,form submission,5141.7110000015,235204.5,235200.723,235217.389,240359.1,240359.5,2023-12-07T15:36:39Z,240367.757,Sänger,mwimbaji,s,msichana,shughuli,mshirika,-,NA,NA,NULL,NA,NA,NA,NA,NA,NA,NA,NA,NA,NA,NA,NA,NA,NA,NA,NA,NA,NA,NA
86528,Save data screen,canvas.Screen,1_8_0_1,NA,NA,timeout,499.97999999998,240361.7,240351.091,240367.757,240851.071,240855.5,2023-12-07T15:36:39Z,240867.737,Sänger,mwimbaji,s,msichana,shughuli,mshirika,NA,NA,0,NULL,NA,NA,NA,NA,NA,NA,NA,NA,NA,NA,NA,NA,NA,NA,NA,NA,NA,NA,NA
86528,deep,flow.Sequence,1_8_0,NA,NA,completion,5633.682,235204.5,235200.723,235217.389,240851.071,240855.9,2023-12-07T15:36:39Z,240867.737,Sänger,mwimbaji,s,msichana,shughuli,mshirika,NA,NA,NA,NULL,NA,NA,NA,NA,NA,NA,NA,NA,NA,NA,NA,NA,NA,NA,NA,NA,NA,NA,NA
86528,task,flow.Sequence,1_8,NA,NA,completion,5633.682,235204.5,235200.723,235217.389,240851.071,240856.1,2023-12-07T15:36:39Z,240867.737,Sänger,mwimbaji,s,msichana,shughuli,mshirika,NA,NA,NA,NULL,NA,NA,NA,NA,NA,NA,NA,NA,NA,NA,NA,NA,NA,NA,NA,NA,NA,NA,NA
86528,Deep Question,html.Page,1_9_0_0,NA,NA,form submission,26273.663,240856.3,240851.071,240867.737,267141.4,267141.6,2023-12-07T15:37:06Z,267151.151,Kreativität,ubunifu,s,mratibu,mwendelezo,makubaliano,kiwiliwili,NA,NA,NULL,NA,NA,NA,NA,NA,NA,NA,NA,NA,NA,NA,NA,NA,NA,NA,NA,NA,NA,NA
86528,Save data screen,canvas.Screen,1_9_0_1,NA,NA,timeout,499.97999999998,267144.1,267134.485,267151.151,267634.465,267638.6,2023-12-07T15:37:06Z,267651.131,Kreativität,ubunifu,s,mratibu,mwendelezo,makubaliano,NA,NA,0,NULL,NA,NA,NA,NA,NA,NA,NA,NA,NA,NA,NA,NA,NA,NA,NA,NA,NA,NA,NA
86528,deep,flow.Sequence,1_9_0,NA,NA,completion,26766.728,240856.3,240851.071,240867.737,267634.465,267638.9,2023-12-07T15:37:06Z,267651.131,Kreativität,ubunifu,s,mratibu,mwendelezo,makubaliano,NA,NA,NA,NULL,NA,NA,NA,NA,NA,NA,NA,NA,NA,NA,NA,NA,NA,NA,NA,NA,NA,NA,NA
86528,task,flow.Sequence,1_9,NA,NA,completion,26766.728,240856.2,240851.071,240867.737,267634.465,267639.1,2023-12-07T15:37:06Z,267651.131,Kreativität,ubunifu,s,mratibu,mwendelezo,makubaliano,NA,NA,NA,NULL,NA,NA,NA,NA,NA,NA,NA,NA,NA,NA,NA,NA,NA,NA,NA,NA,NA,NA,NA
86528,Deep Question,html.Page,1_10_0_0,NA,NA,form submission,4791.369,267639.4,267634.465,267651.131,272442.5,272442.8,2023-12-07T15:37:11Z,272451.505,Angreifer,mshambulizi,s,kitengo,tasinia,usafirishaji,-,NA,NA,NULL,NA,NA,NA,NA,NA,NA,NA,NA,NA,NA,NA,NA,NA,NA,NA,NA,NA,NA,NA
86528,Save data screen,canvas.Screen,1_10_0_1,NA,NA,timeout,499.97999999998,272446.2,272434.839,272451.505,272934.819,272939.1,2023-12-07T15:37:11Z,272951.485,Angreifer,mshambulizi,s,kitengo,tasinia,usafirishaji,NA,NA,0,NULL,NA,NA,NA,NA,NA,NA,NA,NA,NA,NA,NA,NA,NA,NA,NA,NA,NA,NA,NA
86528,deep,flow.Sequence,1_10_0,NA,NA,completion,5283.688,267639.4,267634.465,267651.131,272934.819,272939.5,2023-12-07T15:37:11Z,272951.485,Angreifer,mshambulizi,s,kitengo,tasinia,usafirishaji,NA,NA,NA,NULL,NA,NA,NA,NA,NA,NA,NA,NA,NA,NA,NA,NA,NA,NA,NA,NA,NA,NA,NA
86528,task,flow.Sequence,1_10,NA,NA,completion,5283.688,267639.2,267634.465,267651.131,272934.819,272939.7,2023-12-07T15:37:11Z,272951.485,Angreifer,mshambulizi,s,kitengo,tasinia,usafirishaji,NA,NA,NA,NULL,NA,NA,NA,NA,NA,NA,NA,NA,NA,NA,NA,NA,NA,NA,NA,NA,NA,NA,NA
86528,Deep Question,html.Page,1_11_0_0,NA,NA,form submission,6158.9150000004,272939.9,272934.819,272951.485,279110.4,279110.8,2023-12-07T15:37:18Z,279117.905,Übersicht,kilindo,d,mgusano,chipukizi,kulinganisha,maengo,NA,NA,NULL,NA,NA,NA,NA,NA,NA,NA,NA,NA,NA,NA,NA,NA,NA,NA,NA,NA,NA,NA
86528,Save data screen,canvas.Screen,1_11_0_1,NA,NA,timeout,499.97999999998,279113.9,279101.239,279117.905,279601.219,279605,2023-12-07T15:37:18Z,279617.885,Übersicht,kilindo,d,mgusano,chipukizi,kulinganisha,NA,NA,0,NULL,NA,NA,NA,NA,NA,NA,NA,NA,NA,NA,NA,NA,NA,NA,NA,NA,NA,NA,NA
86528,deep,flow.Sequence,1_11_0,NA,NA,completion,6649.734,272939.9,272934.819,272951.485,279601.219,279605.5,2023-12-07T15:37:18Z,279617.885,Übersicht,kilindo,d,mgusano,chipukizi,kulinganisha,NA,NA,NA,NULL,NA,NA,NA,NA,NA,NA,NA,NA,NA,NA,NA,NA,NA,NA,NA,NA,NA,NA,NA
86528,task,flow.Sequence,1_11,NA,NA,completion,6649.734,272939.8,272934.819,272951.485,279601.219,279605.6,2023-12-07T15:37:18Z,279617.885,Übersicht,kilindo,d,mgusano,chipukizi,kulinganisha,NA,NA,NA,NULL,NA,NA,NA,NA,NA,NA,NA,NA,NA,NA,NA,NA,NA,NA,NA,NA,NA,NA,NA
86528,Deep Question,html.Page,1_12_0_0,NA,NA,form submission,3225.2150000015,279605.9,279601.219,279617.885,282843.1,282843.4,2023-12-07T15:37:21Z,282851.508,System,maongozi,s,chokochoko,nuksani,mitaani,-,NA,NA,NULL,NA,NA,NA,NA,NA,NA,NA,NA,NA,NA,NA,NA,NA,NA,NA,NA,NA,NA,NA
86528,Save data screen,canvas.Screen,1_12_0_1,NA,NA,timeout,499.98000000004,282845.6,282834.842,282851.508,283334.822,283339,2023-12-07T15:37:22Z,283351.488,System,maongozi,s,chokochoko,nuksani,mitaani,NA,NA,0,NULL,NA,NA,NA,NA,NA,NA,NA,NA,NA,NA,NA,NA,NA,NA,NA,NA,NA,NA,NA
86528,deep,flow.Sequence,1_12_0,NA,NA,completion,3716.937,279605.8,279601.219,279617.885,283334.822,283339.4,2023-12-07T15:37:22Z,283351.488,System,maongozi,s,chokochoko,nuksani,mitaani,NA,NA,NA,NULL,NA,NA,NA,NA,NA,NA,NA,NA,NA,NA,NA,NA,NA,NA,NA,NA,NA,NA,NA
86528,task,flow.Sequence,1_12,NA,NA,completion,3716.937,279605.8,279601.219,279617.885,283334.822,283339.6,2023-12-07T15:37:22Z,283351.488,System,maongozi,s,chokochoko,nuksani,mitaani,NA,NA,NA,NULL,NA,NA,NA,NA,NA,NA,NA,NA,NA,NA,NA,NA,NA,NA,NA,NA,NA,NA,NA
86528,Deep Question,html.Page,1_13_0_0,NA,NA,form submission,4908.3120000007,283339.9,283334.822,283351.488,288259.8,288260,2023-12-07T15:37:27Z,288267.958,Körper,kiwiliwili,d,mapambano,mpatanishi,kiolezo,-,NA,NA,NULL,NA,NA,NA,NA,NA,NA,NA,NA,NA,NA,NA,NA,NA,NA,NA,NA,NA,NA,NA
86528,Save data screen,canvas.Screen,1_13_0_1,NA,NA,timeout,499.98000000004,288263.1,288251.292,288267.958,288751.272,288753.4,2023-12-07T15:37:27Z,288767.938,Körper,kiwiliwili,d,mapambano,mpatanishi,kiolezo,NA,NA,0,NULL,NA,NA,NA,NA,NA,NA,NA,NA,NA,NA,NA,NA,NA,NA,NA,NA,NA,NA,NA
86528,deep,flow.Sequence,1_13_0,NA,NA,completion,5399.784,283339.8,283334.822,283351.488,288751.272,288753.8,2023-12-07T15:37:27Z,288767.938,Körper,kiwiliwili,d,mapambano,mpatanishi,kiolezo,NA,NA,NA,NULL,NA,NA,NA,NA,NA,NA,NA,NA,NA,NA,NA,NA,NA,NA,NA,NA,NA,NA,NA
86528,task,flow.Sequence,1_13,NA,NA,completion,5399.784,283339.7,283334.822,283351.488,288751.272,288754,2023-12-07T15:37:27Z,288767.938,Körper,kiwiliwili,d,mapambano,mpatanishi,kiolezo,NA,NA,NA,NULL,NA,NA,NA,NA,NA,NA,NA,NA,NA,NA,NA,NA,NA,NA,NA,NA,NA,NA,NA
86528,Deep Question,html.Page,1_14_0_0,NA,NA,form submission,6057.062,288754.3,288751.272,288767.938,294825,294825.2,2023-12-07T15:37:33Z,294834.947,Kanzler,diwani,d,rasilmali,mahitaji,maabudu,dewani,NA,NA,NULL,NA,NA,NA,NA,NA,NA,NA,NA,NA,NA,NA,NA,NA,NA,NA,NA,NA,NA,NA
86528,Save data screen,canvas.Screen,1_14_0_1,NA,NA,timeout,499.98000000004,294827.7,294818.281,294834.947,295318.261,295320,2023-12-07T15:37:34Z,295334.927,Kanzler,diwani,d,rasilmali,mahitaji,maabudu,NA,NA,0,NULL,NA,NA,NA,NA,NA,NA,NA,NA,NA,NA,NA,NA,NA,NA,NA,NA,NA,NA,NA
86528,deep,flow.Sequence,1_14_0,NA,NA,completion,6550.323,288754.2,288751.272,288767.938,295318.261,295320.3,2023-12-07T15:37:34Z,295334.927,Kanzler,diwani,d,rasilmali,mahitaji,maabudu,NA,NA,NA,NULL,NA,NA,NA,NA,NA,NA,NA,NA,NA,NA,NA,NA,NA,NA,NA,NA,NA,NA,NA
86528,task,flow.Sequence,1_14,NA,NA,completion,6550.323,288754.1,288751.272,288767.938,295318.261,295320.5,2023-12-07T15:37:34Z,295334.927,Kanzler,diwani,d,rasilmali,mahitaji,maabudu,NA,NA,NA,NULL,NA,NA,NA,NA,NA,NA,NA,NA,NA,NA,NA,NA,NA,NA,NA,NA,NA,NA,NA
86528,Deep Question,html.Page,1_15_0_0,NA,NA,form submission,8991.573,295320.8,295318.261,295334.927,304326.5,304327,2023-12-07T15:37:43Z,304335.239,Können,unaweza,s,kiongozi,bustani,mienendo,ugundo,NA,NA,NULL,NA,NA,NA,NA,NA,NA,NA,NA,NA,NA,NA,NA,NA,NA,NA,NA,NA,NA,NA
86528,Save data screen,canvas.Screen,1_15_0_1,NA,NA,timeout,499.97999999998,304329.9,304318.573,304335.239,304818.553,304822.8,2023-12-07T15:37:43Z,304835.219,Können,unaweza,s,kiongozi,bustani,mienendo,NA,NA,0,NULL,NA,NA,NA,NA,NA,NA,NA,NA,NA,NA,NA,NA,NA,NA,NA,NA,NA,NA,NA
86528,deep,flow.Sequence,1_15_0,NA,NA,completion,9483.626,295320.7,295318.261,295334.927,304818.553,304823.1,2023-12-07T15:37:43Z,304835.219,Können,unaweza,s,kiongozi,bustani,mienendo,NA,NA,NA,NULL,NA,NA,NA,NA,NA,NA,NA,NA,NA,NA,NA,NA,NA,NA,NA,NA,NA,NA,NA
86528,task,flow.Sequence,1_15,NA,NA,completion,9483.626,295320.7,295318.261,295334.927,304818.553,304823.3,2023-12-07T15:37:43Z,304835.219,Können,unaweza,s,kiongozi,bustani,mienendo,NA,NA,NA,NULL,NA,NA,NA,NA,NA,NA,NA,NA,NA,NA,NA,NA,NA,NA,NA,NA,NA,NA,NA
86528,retrieval block 1 (cued recall),flow.Loop,1,NA,NA,completion,261221.645,43594.800000001,43580.242,43596.908,304818.553,304823.6,2023-12-07T15:37:43Z,304835.219,NA,NA,NA,NA,NA,NA,NA,NA,NA,NULL,NA,NA,NA,NA,NA,NA,NA,NA,NA,NA,NA,NA,NA,NA,NA,NA,NA,NA,NA
86528,Shallow Question,html.Page,2_0_0_0,NA,NA,form submission,14641.981000001,304823.9,304818.553,304835.219,319477.2,319477.8,2023-12-07T15:37:58Z,319485.287,Kultur,utamaduni,d,shetani,gerezani,mazingira,utamaduni,NA,NA,"c(""distractor1"", ""distractor2"", ""distractor3"")",NA,NA,NA,NA,NA,NA,NA,NA,NA,NA,NA,NA,NA,NA,NA,NA,NA,NA,NA
86528,Save data screen,canvas.Screen,2_0_0_1,NA,NA,timeout,499.97999999998,319481.2,319468.621,319485.287,319968.601,319971.8,2023-12-07T15:37:58Z,319985.267,Kultur,utamaduni,d,shetani,gerezani,mazingira,NA,NA,1,"c(""distractor1"", ""distractor2"", ""distractor3"")",NA,NA,NA,NA,NA,NA,NA,NA,NA,NA,NA,NA,NA,NA,NA,NA,NA,NA,NA
86528,shallow,flow.Sequence,2_0_0,NA,NA,completion,15133.382,304823.9,304818.553,304835.219,319968.601,319972.2,2023-12-07T15:37:58Z,319985.267,Kultur,utamaduni,d,shetani,gerezani,mazingira,NA,NA,NA,"c(""distractor1"", ""distractor2"", ""distractor3"")",NA,NA,NA,NA,NA,NA,NA,NA,NA,NA,NA,NA,NA,NA,NA,NA,NA,NA,NA
86528,task,flow.Sequence,2_0,NA,NA,completion,15133.382,304823.8,304818.553,304835.219,319968.601,319972.4,2023-12-07T15:37:58Z,319985.267,Kultur,utamaduni,d,shetani,gerezani,mazingira,NA,NA,NA,"c(""distractor1"", ""distractor2"", ""distractor3"")",NA,NA,NA,NA,NA,NA,NA,NA,NA,NA,NA,NA,NA,NA,NA,NA,NA,NA,NA
86528,Shallow Question,html.Page,2_1_0_0,NA,NA,form submission,7492.233,319972.7,319968.601,319985.267,327477.5,327478,2023-12-07T15:38:06Z,327485.589,Lawine,banguko,s,maambukizi,usuluhishi,chekechea,banguko,NA,NA,"c(""distractor1"", ""distractor2"", ""distractor3"")",NA,NA,NA,NA,NA,NA,NA,NA,NA,NA,NA,NA,NA,NA,NA,NA,NA,NA,NA
86528,Save data screen,canvas.Screen,2_1_0_1,NA,NA,timeout,499.98000000004,327480.5,327468.923,327485.589,327968.903,327973,2023-12-07T15:38:06Z,327985.569,Lawine,banguko,s,maambukizi,usuluhishi,chekechea,NA,NA,1,"c(""distractor1"", ""distractor2"", ""distractor3"")",NA,NA,NA,NA,NA,NA,NA,NA,NA,NA,NA,NA,NA,NA,NA,NA,NA,NA,NA
86528,shallow,flow.Sequence,2_1_0,NA,NA,completion,7983.636,319972.6,319968.601,319985.267,327968.903,327973.4,2023-12-07T15:38:06Z,327985.569,Lawine,banguko,s,maambukizi,usuluhishi,chekechea,NA,NA,NA,"c(""distractor1"", ""distractor2"", ""distractor3"")",NA,NA,NA,NA,NA,NA,NA,NA,NA,NA,NA,NA,NA,NA,NA,NA,NA,NA,NA
86528,task,flow.Sequence,2_1,NA,NA,completion,7983.636,319972.5,319968.601,319985.267,327968.903,327973.7,2023-12-07T15:38:06Z,327985.569,Lawine,banguko,s,maambukizi,usuluhishi,chekechea,NA,NA,NA,"c(""distractor1"", ""distractor2"", ""distractor3"")",NA,NA,NA,NA,NA,NA,NA,NA,NA,NA,NA,NA,NA,NA,NA,NA,NA,NA,NA
86528,Shallow Question,html.Page,2_2_0_0,NA,NA,form submission,9491.3310000004,327973.9,327968.903,327985.569,337476.9,337477.5,2023-12-07T15:38:16Z,337485.832,Kontrolle,kudhibiti,d,mbinguni,kufunga,utegemezi,utegemezi,NA,NA,"c(""distractor1"", ""distractor2"", ""distractor3"")",NA,NA,NA,NA,NA,NA,NA,NA,NA,NA,NA,NA,NA,NA,NA,NA,NA,NA,NA
86528,Save data screen,canvas.Screen,2_2_0_1,NA,NA,timeout,499.97999999998,337480.1,337469.166,337485.832,337969.146,337974.5,2023-12-07T15:38:16Z,337985.812,Kontrolle,kudhibiti,d,mbinguni,kufunga,utegemezi,NA,NA,0,"c(""distractor1"", ""distractor2"", ""distractor3"")",NA,NA,NA,NA,NA,NA,NA,NA,NA,NA,NA,NA,NA,NA,NA,NA,NA,NA,NA
86528,shallow,flow.Sequence,2_2_0,NA,NA,completion,9983.577,327973.8,327968.903,327985.569,337969.146,337974.9,2023-12-07T15:38:16Z,337985.812,Kontrolle,kudhibiti,d,mbinguni,kufunga,utegemezi,NA,NA,NA,"c(""distractor1"", ""distractor2"", ""distractor3"")",NA,NA,NA,NA,NA,NA,NA,NA,NA,NA,NA,NA,NA,NA,NA,NA,NA,NA,NA
86528,task,flow.Sequence,2_2,NA,NA,completion,9983.577,327973.8,327968.903,327985.569,337969.146,337975.1,2023-12-07T15:38:16Z,337985.812,Kontrolle,kudhibiti,d,mbinguni,kufunga,utegemezi,NA,NA,NA,"c(""distractor1"", ""distractor2"", ""distractor3"")",NA,NA,NA,NA,NA,NA,NA,NA,NA,NA,NA,NA,NA,NA,NA,NA,NA,NA,NA
86528,Shallow Question,html.Page,2_3_0_0,NA,NA,form submission,12508.488000001,337975.4,337969.146,337985.812,350494.3,350494.7,2023-12-07T15:38:29Z,350502.699,Aufstand,ugomaji,s,mazidio,msingi,kujieleza,ugomaji,NA,NA,"c(""distractor1"", ""distractor2"", ""distractor3"")",NA,NA,NA,NA,NA,NA,NA,NA,NA,NA,NA,NA,NA,NA,NA,NA,NA,NA,NA
86528,Save data screen,canvas.Screen,2_3_0_1,NA,NA,timeout,499.97999999998,350497.2,350486.033,350502.699,350986.013,350990.6,2023-12-07T15:38:29Z,351002.679,Aufstand,ugomaji,s,mazidio,msingi,kujieleza,NA,NA,1,"c(""distractor1"", ""distractor2"", ""distractor3"")",NA,NA,NA,NA,NA,NA,NA,NA,NA,NA,NA,NA,NA,NA,NA,NA,NA,NA,NA
86528,shallow,flow.Sequence,2_3_0,NA,NA,completion,13000.201,337975.3,337969.146,337985.812,350986.013,350991,2023-12-07T15:38:29Z,351002.679,Aufstand,ugomaji,s,mazidio,msingi,kujieleza,NA,NA,NA,"c(""distractor1"", ""distractor2"", ""distractor3"")",NA,NA,NA,NA,NA,NA,NA,NA,NA,NA,NA,NA,NA,NA,NA,NA,NA,NA,NA
86528,task,flow.Sequence,2_3,NA,NA,completion,13000.201,337975.3,337969.146,337985.812,350986.013,350991.2,2023-12-07T15:38:29Z,351002.679,Aufstand,ugomaji,s,mazidio,msingi,kujieleza,NA,NA,NA,"c(""distractor1"", ""distractor2"", ""distractor3"")",NA,NA,NA,NA,NA,NA,NA,NA,NA,NA,NA,NA,NA,NA,NA,NA,NA,NA,NA
86528,Shallow Question,html.Page,2_4_0_0,NA,NA,form submission,22359.221,350991.4,350986.013,351002.679,373361.9,373362.4,2023-12-07T15:38:52Z,373369.58,Übersicht,kilindo,d,mgusano,chipukizi,kulinganisha,mgusano,NA,NA,"c(""distractor1"", ""distractor2"", ""distractor3"")",NA,NA,NA,NA,NA,NA,NA,NA,NA,NA,NA,NA,NA,NA,NA,NA,NA,NA,NA
86528,Save data screen,canvas.Screen,2_4_0_1,NA,NA,timeout,499.97999999998,373365.3,373352.914,373369.58,373852.894,373856.6,2023-12-07T15:38:52Z,373869.56,Übersicht,kilindo,d,mgusano,chipukizi,kulinganisha,NA,NA,0,"c(""distractor1"", ""distractor2"", ""distractor3"")",NA,NA,NA,NA,NA,NA,NA,NA,NA,NA,NA,NA,NA,NA,NA,NA,NA,NA,NA
86528,shallow,flow.Sequence,2_4_0,NA,NA,completion,22850.215,350991.4,350986.013,351002.679,373852.894,373857,2023-12-07T15:38:52Z,373869.56,Übersicht,kilindo,d,mgusano,chipukizi,kulinganisha,NA,NA,NA,"c(""distractor1"", ""distractor2"", ""distractor3"")",NA,NA,NA,NA,NA,NA,NA,NA,NA,NA,NA,NA,NA,NA,NA,NA,NA,NA,NA
86528,task,flow.Sequence,2_4,NA,NA,completion,22850.215,350991.3,350986.013,351002.679,373852.894,373857.2,2023-12-07T15:38:52Z,373869.56,Übersicht,kilindo,d,mgusano,chipukizi,kulinganisha,NA,NA,NA,"c(""distractor1"", ""distractor2"", ""distractor3"")",NA,NA,NA,NA,NA,NA,NA,NA,NA,NA,NA,NA,NA,NA,NA,NA,NA,NA,NA
86528,Shallow Question,html.Page,2_5_0_0,NA,NA,form submission,3391.44,373857.4,373852.894,373869.56,377261,377261.4,2023-12-07T15:38:56Z,377269.424,Kanzler,diwani,d,rasilmali,mahitaji,maabudu,diwani,NA,NA,"c(""distractor1"", ""distractor2"", ""distractor3"")",NA,NA,NA,NA,NA,NA,NA,NA,NA,NA,NA,NA,NA,NA,NA,NA,NA,NA,NA
86528,Save data screen,canvas.Screen,2_5_0_1,NA,NA,timeout,499.97999999998,377262.2,377252.758,377269.424,377752.738,377755.7,2023-12-07T15:38:56Z,377769.404,Kanzler,diwani,d,rasilmali,mahitaji,maabudu,NA,NA,1,"c(""distractor1"", ""distractor2"", ""distractor3"")",NA,NA,NA,NA,NA,NA,NA,NA,NA,NA,NA,NA,NA,NA,NA,NA,NA,NA,NA
86528,shallow,flow.Sequence,2_5_0,NA,NA,completion,3883.178,373857.3,373852.894,373869.56,377752.738,377756.1,2023-12-07T15:38:56Z,377769.404,Kanzler,diwani,d,rasilmali,mahitaji,maabudu,NA,NA,NA,"c(""distractor1"", ""distractor2"", ""distractor3"")",NA,NA,NA,NA,NA,NA,NA,NA,NA,NA,NA,NA,NA,NA,NA,NA,NA,NA,NA
86528,task,flow.Sequence,2_5,NA,NA,completion,3883.178,373857.3,373852.894,373869.56,377752.738,377756.3,2023-12-07T15:38:56Z,377769.404,Kanzler,diwani,d,rasilmali,mahitaji,maabudu,NA,NA,NA,"c(""distractor1"", ""distractor2"", ""distractor3"")",NA,NA,NA,NA,NA,NA,NA,NA,NA,NA,NA,NA,NA,NA,NA,NA,NA,NA,NA
86528,Shallow Question,html.Page,2_6_0_0,NA,NA,form submission,5458.1960000015,377756.5,377752.738,377769.404,383227.6,383228.1,2023-12-07T15:39:02Z,383236.396,Können,unaweza,s,kiongozi,bustani,mienendo,unaweza,NA,NA,"c(""distractor1"", ""distractor2"", ""distractor3"")",NA,NA,NA,NA,NA,NA,NA,NA,NA,NA,NA,NA,NA,NA,NA,NA,NA,NA,NA
86528,Save data screen,canvas.Screen,2_6_0_1,NA,NA,timeout,499.97999999998,383230.8,383219.73,383236.396,383719.71,383723.8,2023-12-07T15:39:02Z,383736.376,Können,unaweza,s,kiongozi,bustani,mienendo,NA,NA,1,"c(""distractor1"", ""distractor2"", ""distractor3"")",NA,NA,NA,NA,NA,NA,NA,NA,NA,NA,NA,NA,NA,NA,NA,NA,NA,NA,NA
86528,shallow,flow.Sequence,2_6_0,NA,NA,completion,5950.306,377756.5,377752.738,377769.404,383719.71,383724.1,2023-12-07T15:39:02Z,383736.376,Können,unaweza,s,kiongozi,bustani,mienendo,NA,NA,NA,"c(""distractor1"", ""distractor2"", ""distractor3"")",NA,NA,NA,NA,NA,NA,NA,NA,NA,NA,NA,NA,NA,NA,NA,NA,NA,NA,NA
86528,task,flow.Sequence,2_6,NA,NA,completion,5950.306,377756.5,377752.738,377769.404,383719.71,383724.3,2023-12-07T15:39:02Z,383736.376,Können,unaweza,s,kiongozi,bustani,mienendo,NA,NA,NA,"c(""distractor1"", ""distractor2"", ""distractor3"")",NA,NA,NA,NA,NA,NA,NA,NA,NA,NA,NA,NA,NA,NA,NA,NA,NA,NA,NA
86528,Shallow Question,html.Page,2_7_0_0,NA,NA,form submission,6375.8240000011,383724.6,383719.71,383736.376,390112.2,390112.7,2023-12-07T15:39:09Z,390119.454,System,maongozi,s,chokochoko,nuksani,mitaani,maongozi,NA,NA,"c(""distractor1"", ""distractor2"", ""distractor3"")",NA,NA,NA,NA,NA,NA,NA,NA,NA,NA,NA,NA,NA,NA,NA,NA,NA,NA,NA
86528,Save data screen,canvas.Screen,2_7_0_1,NA,NA,timeout,500.63299999997,390115.5,390102.788,390119.454,390603.421,390607.4,2023-12-07T15:39:09Z,390620.087,System,maongozi,s,chokochoko,nuksani,mitaani,NA,NA,1,"c(""distractor1"", ""distractor2"", ""distractor3"")",NA,NA,NA,NA,NA,NA,NA,NA,NA,NA,NA,NA,NA,NA,NA,NA,NA,NA,NA
86528,shallow,flow.Sequence,2_7_0,NA,NA,completion,6867.045,383724.5,383719.71,383736.376,390603.421,390607.8,2023-12-07T15:39:09Z,390620.087,System,maongozi,s,chokochoko,nuksani,mitaani,NA,NA,NA,"c(""distractor1"", ""distractor2"", ""distractor3"")",NA,NA,NA,NA,NA,NA,NA,NA,NA,NA,NA,NA,NA,NA,NA,NA,NA,NA,NA
86528,task,flow.Sequence,2_7,NA,NA,completion,6867.045,383724.4,383719.71,383736.376,390603.421,390608.1,2023-12-07T15:39:09Z,390620.087,System,maongozi,s,chokochoko,nuksani,mitaani,NA,NA,NA,"c(""distractor1"", ""distractor2"", ""distractor3"")",NA,NA,NA,NA,NA,NA,NA,NA,NA,NA,NA,NA,NA,NA,NA,NA,NA,NA,NA
86528,Shallow Question,html.Page,2_8_0_0,NA,NA,form submission,4924.8130000004,390608.3,390603.421,390620.087,395544.9,395545.3,2023-12-07T15:39:14Z,395553.223,Gefährdung,kuhatarisha,d,uchokozi,udhaifu,makorowezo,udhaifu,NA,NA,"c(""distractor1"", ""distractor2"", ""distractor3"")",NA,NA,NA,NA,NA,NA,NA,NA,NA,NA,NA,NA,NA,NA,NA,NA,NA,NA,NA
86528,Save data screen,canvas.Screen,2_8_0_1,NA,NA,timeout,499.97999999998,395548.4,395536.557,395553.223,396036.537,396038.7,2023-12-07T15:39:14Z,396053.203,Gefährdung,kuhatarisha,d,uchokozi,udhaifu,makorowezo,NA,NA,0,"c(""distractor1"", ""distractor2"", ""distractor3"")",NA,NA,NA,NA,NA,NA,NA,NA,NA,NA,NA,NA,NA,NA,NA,NA,NA,NA,NA
86528,shallow,flow.Sequence,2_8_0,NA,NA,completion,5416.45,390608.3,390603.421,390620.087,396036.537,396039.1,2023-12-07T15:39:14Z,396053.203,Gefährdung,kuhatarisha,d,uchokozi,udhaifu,makorowezo,NA,NA,NA,"c(""distractor1"", ""distractor2"", ""distractor3"")",NA,NA,NA,NA,NA,NA,NA,NA,NA,NA,NA,NA,NA,NA,NA,NA,NA,NA,NA
86528,task,flow.Sequence,2_8,NA,NA,completion,5416.45,390608.3,390603.421,390620.087,396036.537,396039.3,2023-12-07T15:39:14Z,396053.203,Gefährdung,kuhatarisha,d,uchokozi,udhaifu,makorowezo,NA,NA,NA,"c(""distractor1"", ""distractor2"", ""distractor3"")",NA,NA,NA,NA,NA,NA,NA,NA,NA,NA,NA,NA,NA,NA,NA,NA,NA,NA,NA
86528,Shallow Question,html.Page,2_9_0_0,NA,NA,form submission,8825.1970000004,396039.5,396036.537,396053.203,404878.4,404878.9,2023-12-07T15:39:23Z,404886.744,Körper,kiwiliwili,d,mapambano,mpatanishi,kiolezo,kiwiliwili,NA,NA,"c(""distractor1"", ""distractor2"", ""distractor3"")",NA,NA,NA,NA,NA,NA,NA,NA,NA,NA,NA,NA,NA,NA,NA,NA,NA,NA,NA
86528,Save data screen,canvas.Screen,2_9_0_1,NA,NA,timeout,499.97999999998,404881.3,404870.078,404886.744,405370.058,405374.3,2023-12-07T15:39:24Z,405386.724,Körper,kiwiliwili,d,mapambano,mpatanishi,kiolezo,NA,NA,1,"c(""distractor1"", ""distractor2"", ""distractor3"")",NA,NA,NA,NA,NA,NA,NA,NA,NA,NA,NA,NA,NA,NA,NA,NA,NA,NA,NA
86528,shallow,flow.Sequence,2_9_0,NA,NA,completion,9316.855,396039.5,396036.537,396053.203,405370.058,405374.7,2023-12-07T15:39:24Z,405386.724,Körper,kiwiliwili,d,mapambano,mpatanishi,kiolezo,NA,NA,NA,"c(""distractor1"", ""distractor2"", ""distractor3"")",NA,NA,NA,NA,NA,NA,NA,NA,NA,NA,NA,NA,NA,NA,NA,NA,NA,NA,NA
86528,task,flow.Sequence,2_9,NA,NA,completion,9316.855,396039.5,396036.537,396053.203,405370.058,405375,2023-12-07T15:39:24Z,405386.724,Körper,kiwiliwili,d,mapambano,mpatanishi,kiolezo,NA,NA,NA,"c(""distractor1"", ""distractor2"", ""distractor3"")",NA,NA,NA,NA,NA,NA,NA,NA,NA,NA,NA,NA,NA,NA,NA,NA,NA,NA,NA
86528,Shallow Question,html.Page,2_10_0_0,NA,NA,form submission,11541.376000002,405375.2,405370.058,405386.724,416928.1,416928.5,2023-12-07T15:39:35Z,416936.585,Abrechnung,uhasibu,d,kusahihisha,mpambano,mashambulizi,mpambano,NA,NA,"c(""distractor1"", ""distractor2"", ""distractor3"")",NA,NA,NA,NA,NA,NA,NA,NA,NA,NA,NA,NA,NA,NA,NA,NA,NA,NA,NA
86528,Save data screen,canvas.Screen,2_10_0_1,NA,NA,timeout,499.97999999998,416931.1,416919.919,416936.585,417419.899,417424.7,2023-12-07T15:39:36Z,417436.565,Abrechnung,uhasibu,d,kusahihisha,mpambano,mashambulizi,NA,NA,0,"c(""distractor1"", ""distractor2"", ""distractor3"")",NA,NA,NA,NA,NA,NA,NA,NA,NA,NA,NA,NA,NA,NA,NA,NA,NA,NA,NA
86528,shallow,flow.Sequence,2_10_0,NA,NA,completion,12033.175,405375.1,405370.058,405386.724,417419.899,417425.1,2023-12-07T15:39:36Z,417436.565,Abrechnung,uhasibu,d,kusahihisha,mpambano,mashambulizi,NA,NA,NA,"c(""distractor1"", ""distractor2"", ""distractor3"")",NA,NA,NA,NA,NA,NA,NA,NA,NA,NA,NA,NA,NA,NA,NA,NA,NA,NA,NA
86528,task,flow.Sequence,2_10,NA,NA,completion,12033.175,405375.1,405370.058,405386.724,417419.899,417425.2,2023-12-07T15:39:36Z,417436.565,Abrechnung,uhasibu,d,kusahihisha,mpambano,mashambulizi,NA,NA,NA,"c(""distractor1"", ""distractor2"", ""distractor3"")",NA,NA,NA,NA,NA,NA,NA,NA,NA,NA,NA,NA,NA,NA,NA,NA,NA,NA,NA
86528,Shallow Question,html.Page,2_11_0_0,NA,NA,form submission,7725.1349999993,417425.5,417419.899,417436.565,425161.7,425162,2023-12-07T15:39:44Z,425170.556,Angreifer,mshambulizi,s,kitengo,tasinia,usafirishaji,mshambulizi,NA,NA,"c(""distractor1"", ""distractor2"", ""distractor3"")",NA,NA,NA,NA,NA,NA,NA,NA,NA,NA,NA,NA,NA,NA,NA,NA,NA,NA,NA
86528,Save data screen,canvas.Screen,2_11_0_1,NA,NA,timeout,499.98000000004,425165.2,425153.89,425170.556,425653.87,425658.5,2023-12-07T15:39:44Z,425670.536,Angreifer,mshambulizi,s,kitengo,tasinia,usafirishaji,NA,NA,1,"c(""distractor1"", ""distractor2"", ""distractor3"")",NA,NA,NA,NA,NA,NA,NA,NA,NA,NA,NA,NA,NA,NA,NA,NA,NA,NA,NA
86528,shallow,flow.Sequence,2_11_0,NA,NA,completion,8217.305,417425.5,417419.899,417436.565,425653.87,425659,2023-12-07T15:39:44Z,425670.536,Angreifer,mshambulizi,s,kitengo,tasinia,usafirishaji,NA,NA,NA,"c(""distractor1"", ""distractor2"", ""distractor3"")",NA,NA,NA,NA,NA,NA,NA,NA,NA,NA,NA,NA,NA,NA,NA,NA,NA,NA,NA
86528,task,flow.Sequence,2_11,NA,NA,completion,8217.305,417425.4,417419.899,417436.565,425653.87,425659.2,2023-12-07T15:39:44Z,425670.536,Angreifer,mshambulizi,s,kitengo,tasinia,usafirishaji,NA,NA,NA,"c(""distractor1"", ""distractor2"", ""distractor3"")",NA,NA,NA,NA,NA,NA,NA,NA,NA,NA,NA,NA,NA,NA,NA,NA,NA,NA,NA
86528,Shallow Question,html.Page,2_12_0_0,NA,NA,form submission,7358.7640000007,425659.4,425653.87,425670.536,433029.3,433029.8,2023-12-07T15:39:51Z,433036.908,Verzögerung,kuchelewa,d,mwakilishi,mwanauchumi,jaribio,mwakilishi,NA,NA,"c(""distractor1"", ""distractor2"", ""distractor3"")",NA,NA,NA,NA,NA,NA,NA,NA,NA,NA,NA,NA,NA,NA,NA,NA,NA,NA,NA
86528,Save data screen,canvas.Screen,2_12_0_1,NA,NA,timeout,499.97999999998,433032.4,433020.242,433036.908,433520.222,433524.2,2023-12-07T15:39:52Z,433536.888,Verzögerung,kuchelewa,d,mwakilishi,mwanauchumi,jaribio,NA,NA,0,"c(""distractor1"", ""distractor2"", ""distractor3"")",NA,NA,NA,NA,NA,NA,NA,NA,NA,NA,NA,NA,NA,NA,NA,NA,NA,NA,NA
86528,shallow,flow.Sequence,2_12_0,NA,NA,completion,7849.686,425659.4,425653.87,425670.536,433520.222,433524.6,2023-12-07T15:39:52Z,433536.888,Verzögerung,kuchelewa,d,mwakilishi,mwanauchumi,jaribio,NA,NA,NA,"c(""distractor1"", ""distractor2"", ""distractor3"")",NA,NA,NA,NA,NA,NA,NA,NA,NA,NA,NA,NA,NA,NA,NA,NA,NA,NA,NA
86528,task,flow.Sequence,2_12,NA,NA,completion,7849.686,425659.3,425653.87,425670.536,433520.222,433524.8,2023-12-07T15:39:52Z,433536.888,Verzögerung,kuchelewa,d,mwakilishi,mwanauchumi,jaribio,NA,NA,NA,"c(""distractor1"", ""distractor2"", ""distractor3"")",NA,NA,NA,NA,NA,NA,NA,NA,NA,NA,NA,NA,NA,NA,NA,NA,NA,NA,NA
86528,Shallow Question,html.Page,2_13_0_0,NA,NA,form submission,9524.8119999993,433525,433520.222,433536.888,443061.7,443062.1,2023-12-07T15:40:01Z,443070.429,Sänger,mwimbaji,s,msichana,shughuli,mshirika,mshirika,NA,NA,"c(""distractor1"", ""distractor2"", ""distractor3"")",NA,NA,NA,NA,NA,NA,NA,NA,NA,NA,NA,NA,NA,NA,NA,NA,NA,NA,NA
86528,Save data screen,canvas.Screen,2_13_0_1,NA,NA,timeout,499.97999999998,443064.8,443053.763,443070.429,443553.743,443555.7,2023-12-07T15:40:02Z,443570.409,Sänger,mwimbaji,s,msichana,shughuli,mshirika,NA,NA,0,"c(""distractor1"", ""distractor2"", ""distractor3"")",NA,NA,NA,NA,NA,NA,NA,NA,NA,NA,NA,NA,NA,NA,NA,NA,NA,NA,NA
86528,shallow,flow.Sequence,2_13_0,NA,NA,completion,10016.855,433525,433520.222,433536.888,443553.743,443556.2,2023-12-07T15:40:02Z,443570.409,Sänger,mwimbaji,s,msichana,shughuli,mshirika,NA,NA,NA,"c(""distractor1"", ""distractor2"", ""distractor3"")",NA,NA,NA,NA,NA,NA,NA,NA,NA,NA,NA,NA,NA,NA,NA,NA,NA,NA,NA
86528,task,flow.Sequence,2_13,NA,NA,completion,10016.855,433524.9,433520.222,433536.888,443553.743,443556.4,2023-12-07T15:40:02Z,443570.409,Sänger,mwimbaji,s,msichana,shughuli,mshirika,NA,NA,NA,"c(""distractor1"", ""distractor2"", ""distractor3"")",NA,NA,NA,NA,NA,NA,NA,NA,NA,NA,NA,NA,NA,NA,NA,NA,NA,NA,NA
86528,Shallow Question,html.Page,2_14_0_0,NA,NA,form submission,7308.591,443556.6,443553.743,443570.409,450879,450879.5,2023-12-07T15:40:09Z,450887.312,Prüfung,mtihani,s,mkulima,mtizamo,ufumbuzi,mtihani,NA,NA,"c(""distractor1"", ""distractor2"", ""distractor3"")",NA,NA,NA,NA,NA,NA,NA,NA,NA,NA,NA,NA,NA,NA,NA,NA,NA,NA,NA
86528,Save data screen,canvas.Screen,2_14_0_1,NA,NA,timeout,499.98000000004,450882.2,450870.646,450887.312,451370.626,451375,2023-12-07T15:40:10Z,451387.292,Prüfung,mtihani,s,mkulima,mtizamo,ufumbuzi,NA,NA,1,"c(""distractor1"", ""distractor2"", ""distractor3"")",NA,NA,NA,NA,NA,NA,NA,NA,NA,NA,NA,NA,NA,NA,NA,NA,NA,NA,NA
86528,shallow,flow.Sequence,2_14_0,NA,NA,completion,7800.217,443556.6,443553.743,443570.409,451370.626,451375.5,2023-12-07T15:40:10Z,451387.292,Prüfung,mtihani,s,mkulima,mtizamo,ufumbuzi,NA,NA,NA,"c(""distractor1"", ""distractor2"", ""distractor3"")",NA,NA,NA,NA,NA,NA,NA,NA,NA,NA,NA,NA,NA,NA,NA,NA,NA,NA,NA
86528,task,flow.Sequence,2_14,NA,NA,completion,7800.217,443556.6,443553.743,443570.409,451370.626,451375.7,2023-12-07T15:40:10Z,451387.292,Prüfung,mtihani,s,mkulima,mtizamo,ufumbuzi,NA,NA,NA,"c(""distractor1"", ""distractor2"", ""distractor3"")",NA,NA,NA,NA,NA,NA,NA,NA,NA,NA,NA,NA,NA,NA,NA,NA,NA,NA,NA
86528,Shallow Question,html.Page,2_15_0_0,NA,NA,form submission,5791.8080000015,451375.9,451370.626,451387.292,457179.1,457179.5,2023-12-07T15:40:16Z,457187.06,Kreativität,ubunifu,s,mratibu,mwendelezo,makubaliano,mwendelezo,NA,NA,"c(""distractor1"", ""distractor2"", ""distractor3"")",NA,NA,NA,NA,NA,NA,NA,NA,NA,NA,NA,NA,NA,NA,NA,NA,NA,NA,NA
86528,Save data screen,canvas.Screen,2_15_0_1,NA,NA,timeout,499.97999999998,457181.9,457170.394,457187.06,457670.374,457671.9,2023-12-07T15:40:16Z,457687.04,Kreativität,ubunifu,s,mratibu,mwendelezo,makubaliano,NA,NA,0,"c(""distractor1"", ""distractor2"", ""distractor3"")",NA,NA,NA,NA,NA,NA,NA,NA,NA,NA,NA,NA,NA,NA,NA,NA,NA,NA,NA
86528,shallow,flow.Sequence,2_15_0,NA,NA,completion,6283.082,451375.8,451370.626,451387.292,457670.374,457672.3,2023-12-07T15:40:16Z,457687.04,Kreativität,ubunifu,s,mratibu,mwendelezo,makubaliano,NA,NA,NA,"c(""distractor1"", ""distractor2"", ""distractor3"")",NA,NA,NA,NA,NA,NA,NA,NA,NA,NA,NA,NA,NA,NA,NA,NA,NA,NA,NA
86528,task,flow.Sequence,2_15,NA,NA,completion,6283.082,451375.8,451370.626,451387.292,457670.374,457672.5,2023-12-07T15:40:16Z,457687.04,Kreativität,ubunifu,s,mratibu,mwendelezo,makubaliano,NA,NA,NA,"c(""distractor1"", ""distractor2"", ""distractor3"")",NA,NA,NA,NA,NA,NA,NA,NA,NA,NA,NA,NA,NA,NA,NA,NA,NA,NA,NA
86528,retrieval block 2 (multiple choice),flow.Loop,2,NA,NA,completion,152835.155,304823.7,304818.553,304835.219,457670.374,457672.8,2023-12-07T15:40:16Z,457687.04,NA,NA,NA,NA,NA,NA,NA,NA,NA,"c(""distractor1"", ""distractor2"", ""distractor3"")",NA,NA,NA,NA,NA,NA,NA,NA,NA,NA,NA,NA,NA,NA,NA,NA,NA,NA,NA
86528,End,canvas.Screen,3,NA,keypress(Space),response,1873.7600000008,457672.9,457670.374,457687.04,459560.8,459566.5,2023-12-07T15:40:18Z,459571.056,NA,NA,NA,NA,NA,NA,NA,NA,NA,NULL,NA,NA,NA,NA,NA,NA,NA,NA,NA,NA,NA,NA,NA,NA,NA,NA,NA,NA,NA
86528,root,flow.Sequence,NA,NA,NA,completion,458730.053,827.80000000075,764.083,830.747,459560.8,459567.3,2023-12-07T15:40:18Z,459571.056,NA,NA,NA,NA,NA,NA,NA,NA,NA,NULL,NA,NA,NA,NA,NA,NA,NA,NA,NA,NA,NA,NA,NA,NA,NA,NA,NA,NA,NA
