observation,sender,sender_type,sender_id,response,response_action,ended_on,duration,time_run,time_render,time_show,time_end,time_commit,timestamp,time_switch,distractors,german,swahili,enc,distractor1,distractor2,distractor3,response_2,x,correct,x_2,url_vp,url_sess,meta_labjs_version,meta_location,meta_user_agent,meta_platform,meta_language,meta_locale,meta_time_zone,meta_timezone_offset,meta_screen_width,meta_screen_height,meta_scroll_width,meta_scroll_height,meta_window_inner_width,meta_window_inner_height,meta_device_pixel_ratio,meta_labjs_build_flavor,meta_labjs_build_commit
44a53,Introduction general,canvas.Screen,0,weiter,keypress(q),response,1503643.992,1124.1000000001,1037.278,1120.608,1504764.6,1504775,2023-12-05T14:44:23Z,1504783.904,NULL,NA,NA,NA,NA,NA,NA,NA,NA,NA,NA,132,3,20.2.4,https://neurocog.fernuni.ch/studies/vweber/encoding_immediate/index.html?vp=132&sess=3,"Mozilla/5.0 (Macintosh; Intel Mac OS X 10_15_7) AppleWebKit/537.36 (KHTML, like Gecko) Chrome/119.0.0.0 Safari/537.36",MacIntel,de-DE,de,Europe/Zurich,-60,1440,900,1440,671,1440,719,2,production,f5b4a49f956347addd546a832a3327688c2c0fef
44a53,Introduction practice,canvas.Screen,1_0,NA,keypress(Space),response,17332.096,1504775.7,1504767.238,1504783.904,1522116,1522122.1,2023-12-05T14:44:41Z,1522133.21,NULL,NA,NA,NA,NA,NA,NA,NA,NA,NA,NA,NA,NA,NA,NA,NA,NA,NA,NA,NA,NA,NA,NA,NA,NA,NA,NA,NA,NA,NA
44a53,Deep Question,html.Page,1_1_0_0_0,NA,NA,form submission,9777.29,1522122.5,1522116.544,1522133.21,1531910.5,1531910.9,2023-12-05T14:44:50Z,1531916.576,"c(""distractor1"", ""distractor2"", ""distractor3"")",Gesundheit,salama,d,NA,NA,NA,h,NA,NA,NA,NA,NA,NA,NA,NA,NA,NA,NA,NA,NA,NA,NA,NA,NA,NA,NA,NA,NA,NA
44a53,"""Richtig""-Screen",canvas.Screen,1_1_0_0_1,NA,NA,skipped,NA,1531912.3,NA,NA,1531910.5,1531912.4,2023-12-05T14:44:50Z,1531916.576,"c(""distractor1"", ""distractor2"", ""distractor3"")",Gesundheit,salama,d,NA,NA,NA,NA,NA,NA,NA,NA,NA,NA,NA,NA,NA,NA,NA,NA,NA,NA,NA,NA,NA,NA,NA,NA,NA,NA
44a53,"""Falsch""-Screen",canvas.Screen,1_1_0_0_2,NA,NA,timeout,5001.314,1531913.2,1531899.91,1531916.576,1536901.224,1536909.7,2023-12-05T14:44:55Z,1536917.89,"c(""distractor1"", ""distractor2"", ""distractor3"")",Gesundheit,salama,d,NA,NA,NA,NA,NA,0,NA,NA,NA,NA,NA,NA,NA,NA,NA,NA,NA,NA,NA,NA,NA,NA,NA,NA,NA,NA
44a53,deep,flow.Sequence,1_1_0_0,NA,NA,completion,14768.014,1522122.5,1522116.544,1522133.21,1536901.224,1536910.2,2023-12-05T14:44:55Z,1536917.89,"c(""distractor1"", ""distractor2"", ""distractor3"")",Gesundheit,salama,d,NA,NA,NA,NA,NA,NA,NA,NA,NA,NA,NA,NA,NA,NA,NA,NA,NA,NA,NA,NA,NA,NA,NA,NA,NA,NA
44a53,shallow,flow.Sequence,1_1_0_1,NA,NA,skipped,NA,1536910.4,NA,NA,1536901.224,1536910.6,2023-12-05T14:44:55Z,1536917.89,"c(""distractor1"", ""distractor2"", ""distractor3"")",Gesundheit,salama,d,NA,NA,NA,NA,NA,NA,NA,NA,NA,NA,NA,NA,NA,NA,NA,NA,NA,NA,NA,NA,NA,NA,NA,NA,NA,NA
44a53,task,flow.Sequence,1_1_0,NA,NA,completion,14768.014,1522122.5,1522116.544,1522133.21,1536901.224,1536910.8,2023-12-05T14:44:55Z,1536917.89,"c(""distractor1"", ""distractor2"", ""distractor3"")",Gesundheit,salama,d,NA,NA,NA,NA,NA,NA,NA,NA,NA,NA,NA,NA,NA,NA,NA,NA,NA,NA,NA,NA,NA,NA,NA,NA,NA,NA
44a53,Deep Question,html.Page,1_1_1_0_0,NA,NA,form submission,4023.7100000002,1536911.2,1536901.224,1536917.89,1540941.6,1540941.9,2023-12-05T14:44:59Z,1540951.062,"c(""distractor1"", ""distractor2"", ""distractor3"")",Schatten,kivuli,d,NA,NA,NA,s,NA,NA,NA,NA,NA,NA,NA,NA,NA,NA,NA,NA,NA,NA,NA,NA,NA,NA,NA,NA,NA,NA
44a53,"""Richtig""-Screen",canvas.Screen,1_1_1_0_1,NA,NA,skipped,NA,1540944.5,NA,NA,1540941.6,1540944.6,2023-12-05T14:45:00Z,1540951.062,"c(""distractor1"", ""distractor2"", ""distractor3"")",Schatten,kivuli,d,NA,NA,NA,NA,NA,NA,NA,NA,NA,NA,NA,NA,NA,NA,NA,NA,NA,NA,NA,NA,NA,NA,NA,NA,NA,NA
44a53,"""Falsch""-Screen",canvas.Screen,1_1_1_0_2,NA,NA,timeout,5000.2380000001,1540945.2,1540934.396,1540951.062,1545934.634,1545939.3,2023-12-05T14:45:04Z,1545951.3,"c(""distractor1"", ""distractor2"", ""distractor3"")",Schatten,kivuli,d,NA,NA,NA,NA,NA,0,NA,NA,NA,NA,NA,NA,NA,NA,NA,NA,NA,NA,NA,NA,NA,NA,NA,NA,NA,NA
44a53,deep,flow.Sequence,1_1_1_0,NA,NA,completion,9016.7440000002,1536911,1536901.224,1536917.89,1545934.634,1545939.9,2023-12-05T14:45:04Z,1545951.3,"c(""distractor1"", ""distractor2"", ""distractor3"")",Schatten,kivuli,d,NA,NA,NA,NA,NA,NA,NA,NA,NA,NA,NA,NA,NA,NA,NA,NA,NA,NA,NA,NA,NA,NA,NA,NA,NA,NA
44a53,shallow,flow.Sequence,1_1_1_1,NA,NA,skipped,NA,1545940,NA,NA,1545934.634,1545940.2,2023-12-05T14:45:04Z,1545951.3,"c(""distractor1"", ""distractor2"", ""distractor3"")",Schatten,kivuli,d,NA,NA,NA,NA,NA,NA,NA,NA,NA,NA,NA,NA,NA,NA,NA,NA,NA,NA,NA,NA,NA,NA,NA,NA,NA,NA
44a53,task,flow.Sequence,1_1_1,NA,NA,completion,9016.7440000002,1536910.9,1536901.224,1536917.89,1545934.634,1545940.5,2023-12-05T14:45:04Z,1545951.3,"c(""distractor1"", ""distractor2"", ""distractor3"")",Schatten,kivuli,d,NA,NA,NA,NA,NA,NA,NA,NA,NA,NA,NA,NA,NA,NA,NA,NA,NA,NA,NA,NA,NA,NA,NA,NA,NA,NA
44a53,deep,flow.Sequence,1_1_2_0,NA,NA,skipped,NA,1545940.7,NA,NA,1545934.634,1545940.8,2023-12-05T14:45:04Z,1545951.3,"c(""distractor1"", ""distractor2"", ""distractor3"")",Rückhalt,msaada,s,muhula,auwali,kiwimbe,NA,NA,NA,NA,NA,NA,NA,NA,NA,NA,NA,NA,NA,NA,NA,NA,NA,NA,NA,NA,NA,NA,NA
44a53,Shallow Question,html.Page,1_1_2_1_0,NA,NA,form submission,4192.0999999999,1545941,1545934.634,1545951.3,1550143.4,1550143.9,2023-12-05T14:45:09Z,1550151.132,"c(""distractor1"", ""distractor2"", ""distractor3"")",Rückhalt,msaada,s,muhula,auwali,kiwimbe,muhula,NA,NA,NA,NA,NA,NA,NA,NA,NA,NA,NA,NA,NA,NA,NA,NA,NA,NA,NA,NA,NA,NA
44a53,"""Richtig""-Screen",canvas.Screen,1_1_2_1_1,NA,NA,skipped,NA,1550147,NA,NA,1550143.4,1550147.1,2023-12-05T14:45:09Z,1550151.132,"c(""distractor1"", ""distractor2"", ""distractor3"")",Rückhalt,msaada,s,muhula,auwali,kiwimbe,NA,NA,NA,NA,NA,NA,NA,NA,NA,NA,NA,NA,NA,NA,NA,NA,NA,NA,NA,NA,NA,NA,NA
44a53,"""Falsch""-Screen",canvas.Screen,1_1_2_1_2,NA,NA,timeout,5000.3759999999,1550148.9,1550134.466,1550151.132,1555134.842,1555139.9,2023-12-05T14:45:14Z,1555151.508,"c(""distractor1"", ""distractor2"", ""distractor3"")",Rückhalt,msaada,s,muhula,auwali,kiwimbe,NA,NA,0,NA,NA,NA,NA,NA,NA,NA,NA,NA,NA,NA,NA,NA,NA,NA,NA,NA,NA,NA,NA
44a53,shallow,flow.Sequence,1_1_2_1,NA,NA,completion,9183.5419999999,1545941,1545934.634,1545951.3,1555134.842,1555140.4,2023-12-05T14:45:14Z,1555151.508,"c(""distractor1"", ""distractor2"", ""distractor3"")",Rückhalt,msaada,s,muhula,auwali,kiwimbe,NA,NA,NA,NA,NA,NA,NA,NA,NA,NA,NA,NA,NA,NA,NA,NA,NA,NA,NA,NA,NA,NA,NA
44a53,task,flow.Sequence,1_1_2,NA,NA,completion,9183.5419999999,1545940.6,1545934.634,1545951.3,1555134.842,1555140.5,2023-12-05T14:45:14Z,1555151.508,"c(""distractor1"", ""distractor2"", ""distractor3"")",Rückhalt,msaada,s,muhula,auwali,kiwimbe,NA,NA,NA,NA,NA,NA,NA,NA,NA,NA,NA,NA,NA,NA,NA,NA,NA,NA,NA,NA,NA,NA,NA
44a53,Deep Question,html.Page,1_1_3_0_0,NA,NA,form submission,3141.0920000002,1555140.8,1555134.842,1555151.508,1558292.6,1558293.1,2023-12-05T14:45:17Z,1558301.382,"c(""distractor1"", ""distractor2"", ""distractor3"")",Qualität,mtindo,d,NA,NA,NA,s,NA,NA,NA,NA,NA,NA,NA,NA,NA,NA,NA,NA,NA,NA,NA,NA,NA,NA,NA,NA,NA,NA
44a53,"""Richtig""-Screen",canvas.Screen,1_1_3_0_1,NA,NA,skipped,NA,1558296.1,NA,NA,1558292.6,1558296.3,2023-12-05T14:45:17Z,1558301.382,"c(""distractor1"", ""distractor2"", ""distractor3"")",Qualität,mtindo,d,NA,NA,NA,NA,NA,NA,NA,NA,NA,NA,NA,NA,NA,NA,NA,NA,NA,NA,NA,NA,NA,NA,NA,NA,NA,NA
44a53,"""Falsch""-Screen",canvas.Screen,1_1_3_0_2,NA,NA,timeout,4999.8,1558296.8,1558284.716,1558301.382,1563284.516,1563289.3,2023-12-05T14:45:22Z,1563301.182,"c(""distractor1"", ""distractor2"", ""distractor3"")",Qualität,mtindo,d,NA,NA,NA,NA,NA,0,NA,NA,NA,NA,NA,NA,NA,NA,NA,NA,NA,NA,NA,NA,NA,NA,NA,NA,NA,NA
44a53,deep,flow.Sequence,1_1_3_0,NA,NA,completion,8133.0080000001,1555140.7,1555134.842,1555151.508,1563284.516,1563289.7,2023-12-05T14:45:22Z,1563301.182,"c(""distractor1"", ""distractor2"", ""distractor3"")",Qualität,mtindo,d,NA,NA,NA,NA,NA,NA,NA,NA,NA,NA,NA,NA,NA,NA,NA,NA,NA,NA,NA,NA,NA,NA,NA,NA,NA,NA
44a53,shallow,flow.Sequence,1_1_3_1,NA,NA,skipped,NA,1563289.9,NA,NA,1563284.516,1563290.1,2023-12-05T14:45:22Z,1563301.182,"c(""distractor1"", ""distractor2"", ""distractor3"")",Qualität,mtindo,d,NA,NA,NA,NA,NA,NA,NA,NA,NA,NA,NA,NA,NA,NA,NA,NA,NA,NA,NA,NA,NA,NA,NA,NA,NA,NA
44a53,task,flow.Sequence,1_1_3,NA,NA,completion,8133.0080000001,1555140.7,1555134.842,1555151.508,1563284.516,1563290.2,2023-12-05T14:45:22Z,1563301.182,"c(""distractor1"", ""distractor2"", ""distractor3"")",Qualität,mtindo,d,NA,NA,NA,NA,NA,NA,NA,NA,NA,NA,NA,NA,NA,NA,NA,NA,NA,NA,NA,NA,NA,NA,NA,NA,NA,NA
44a53,deep,flow.Sequence,1_1_4_0,NA,NA,skipped,NA,1563290.4,NA,NA,1563284.516,1563290.5,2023-12-05T14:45:22Z,1563301.182,"c(""distractor1"", ""distractor2"", ""distractor3"")",Gegenwart,hadhara,s,katiba,jokofu,mikopo,NA,NA,NA,NA,NA,NA,NA,NA,NA,NA,NA,NA,NA,NA,NA,NA,NA,NA,NA,NA,NA,NA,NA
44a53,Shallow Question,html.Page,1_1_4_1_0,NA,NA,form submission,4258.818,1563290.6,1563284.516,1563301.182,1567560,1567560.5,2023-12-05T14:45:26Z,1567568.331,"c(""distractor1"", ""distractor2"", ""distractor3"")",Gegenwart,hadhara,s,katiba,jokofu,mikopo,mikopo,NA,NA,NA,NA,NA,NA,NA,NA,NA,NA,NA,NA,NA,NA,NA,NA,NA,NA,NA,NA,NA,NA
44a53,"""Richtig""-Screen",canvas.Screen,1_1_4_1_1,NA,NA,skipped,NA,1567563,NA,NA,1567560,1567563.2,2023-12-05T14:45:26Z,1567568.331,"c(""distractor1"", ""distractor2"", ""distractor3"")",Gegenwart,hadhara,s,katiba,jokofu,mikopo,NA,NA,NA,NA,NA,NA,NA,NA,NA,NA,NA,NA,NA,NA,NA,NA,NA,NA,NA,NA,NA,NA,NA
44a53,"""Falsch""-Screen",canvas.Screen,1_1_4_1_2,NA,NA,timeout,4999.8,1567564.4,1567551.665,1567568.331,1572551.465,1572554.7,2023-12-05T14:45:31Z,1572568.131,"c(""distractor1"", ""distractor2"", ""distractor3"")",Gegenwart,hadhara,s,katiba,jokofu,mikopo,NA,NA,0,NA,NA,NA,NA,NA,NA,NA,NA,NA,NA,NA,NA,NA,NA,NA,NA,NA,NA,NA,NA
44a53,shallow,flow.Sequence,1_1_4_1,NA,NA,completion,9250.2830000001,1563290.6,1563284.516,1563301.182,1572551.465,1572555.1,2023-12-05T14:45:31Z,1572568.131,"c(""distractor1"", ""distractor2"", ""distractor3"")",Gegenwart,hadhara,s,katiba,jokofu,mikopo,NA,NA,NA,NA,NA,NA,NA,NA,NA,NA,NA,NA,NA,NA,NA,NA,NA,NA,NA,NA,NA,NA,NA
44a53,task,flow.Sequence,1_1_4,NA,NA,completion,9250.2830000001,1563290.3,1563284.516,1563301.182,1572551.465,1572555.3,2023-12-05T14:45:31Z,1572568.131,"c(""distractor1"", ""distractor2"", ""distractor3"")",Gegenwart,hadhara,s,katiba,jokofu,mikopo,NA,NA,NA,NA,NA,NA,NA,NA,NA,NA,NA,NA,NA,NA,NA,NA,NA,NA,NA,NA,NA,NA,NA
44a53,deep,flow.Sequence,1_1_5_0,NA,NA,skipped,NA,1572555.5,NA,NA,1572551.465,1572555.6,2023-12-05T14:45:31Z,1572568.131,"c(""distractor1"", ""distractor2"", ""distractor3"")",Kritik,lawama,s,dereva,nafasi,mawazo,NA,NA,NA,NA,NA,NA,NA,NA,NA,NA,NA,NA,NA,NA,NA,NA,NA,NA,NA,NA,NA,NA,NA
44a53,Shallow Question,html.Page,1_1_5_1_0,NA,NA,form submission,4775.6690000002,1572555.8,1572551.465,1572568.131,1577343.8,1577344.5,2023-12-05T14:45:36Z,1577351.907,"c(""distractor1"", ""distractor2"", ""distractor3"")",Kritik,lawama,s,dereva,nafasi,mawazo,dereva,NA,NA,NA,NA,NA,NA,NA,NA,NA,NA,NA,NA,NA,NA,NA,NA,NA,NA,NA,NA,NA,NA
44a53,"""Richtig""-Screen",canvas.Screen,1_1_5_1_1,NA,NA,skipped,NA,1577348.1,NA,NA,1577343.8,1577348.4,2023-12-05T14:45:36Z,1577351.907,"c(""distractor1"", ""distractor2"", ""distractor3"")",Kritik,lawama,s,dereva,nafasi,mawazo,NA,NA,NA,NA,NA,NA,NA,NA,NA,NA,NA,NA,NA,NA,NA,NA,NA,NA,NA,NA,NA,NA,NA
44a53,"""Falsch""-Screen",canvas.Screen,1_1_5_1_2,NA,NA,timeout,4999.8,1577349.3,1577335.241,1577351.907,1582335.041,1582336.2,2023-12-05T14:45:41Z,1582351.707,"c(""distractor1"", ""distractor2"", ""distractor3"")",Kritik,lawama,s,dereva,nafasi,mawazo,NA,NA,0,NA,NA,NA,NA,NA,NA,NA,NA,NA,NA,NA,NA,NA,NA,NA,NA,NA,NA,NA,NA
44a53,shallow,flow.Sequence,1_1_5_1,NA,NA,completion,9766.9099999999,1572555.8,1572551.465,1572568.131,1582335.041,1582336.7,2023-12-05T14:45:41Z,1582351.707,"c(""distractor1"", ""distractor2"", ""distractor3"")",Kritik,lawama,s,dereva,nafasi,mawazo,NA,NA,NA,NA,NA,NA,NA,NA,NA,NA,NA,NA,NA,NA,NA,NA,NA,NA,NA,NA,NA,NA,NA
44a53,task,flow.Sequence,1_1_5,NA,NA,completion,9766.9099999999,1572555.4,1572551.465,1572568.131,1582335.041,1582336.9,2023-12-05T14:45:41Z,1582351.707,"c(""distractor1"", ""distractor2"", ""distractor3"")",Kritik,lawama,s,dereva,nafasi,mawazo,NA,NA,NA,NA,NA,NA,NA,NA,NA,NA,NA,NA,NA,NA,NA,NA,NA,NA,NA,NA,NA,NA,NA
44a53,block,flow.Loop,1_1,NA,NA,completion,60201.831,1522122.3,1522116.544,1522133.21,1582335.041,1582337.1,2023-12-05T14:45:41Z,1582351.707,"c(""distractor1"", ""distractor2"", ""distractor3"")",NA,NA,NA,NA,NA,NA,NA,NA,NA,NA,NA,NA,NA,NA,NA,NA,NA,NA,NA,NA,NA,NA,NA,NA,NA,NA,NA,NA,NA
44a53,Practice,flow.Sequence,1,NA,NA,completion,77551.137,1504775.6,1504767.238,1504783.904,1582335.041,1582337.4,2023-12-05T14:45:41Z,1582351.707,NULL,NA,NA,NA,NA,NA,NA,NA,NA,NA,NA,NA,NA,NA,NA,NA,NA,NA,NA,NA,NA,NA,NA,NA,NA,NA,NA,NA,NA,NA
44a53,Experiment start,canvas.Screen,2,weiter,keypress(q),response,34803.593,1582337.5,1582335.041,1582351.707,1617155.3,1617160.7,2023-12-05T14:46:16Z,1617218.506,NULL,NA,NA,NA,NA,NA,NA,NA,NA,NA,NA,NA,NA,NA,NA,NA,NA,NA,NA,NA,NA,NA,NA,NA,NA,NA,NA,NA,NA,NA
44a53,Deep Question,html.Page,3_0_0_0_0_0_0,NA,NA,form submission,6192.594,1617215.4,1617201.84,1617218.506,1623411.1,1623411.6,2023-12-05T14:46:22Z,1623418.258,NULL,Körper,kiwiliwili,d,NA,NA,NA,h,NA,NA,0,NA,NA,NA,NA,NA,NA,NA,NA,NA,NA,NA,NA,NA,NA,NA,NA,NA,NA,NA
44a53,"""Richtig""-Screen",canvas.Screen,3_0_0_0_0_0_1,NA,NA,skipped,NA,1623414.2,NA,NA,1623411.1,1623414.4,2023-12-05T14:46:22Z,1623418.258,NULL,Körper,kiwiliwili,d,NA,NA,NA,NA,sdf,NA,0,NA,NA,NA,NA,NA,NA,NA,NA,NA,NA,NA,NA,NA,NA,NA,NA,NA,NA,NA
44a53,"""Falsch""-Screen",canvas.Screen,3_0_0_0_0_0_2,NA,NA,timeout,5001.061,1623415,1623401.592,1623418.258,1628402.653,1628407.1,2023-12-05T14:46:27Z,1628419.319,NULL,Körper,kiwiliwili,d,NA,NA,NA,NA,sdf,0,0,NA,NA,NA,NA,NA,NA,NA,NA,NA,NA,NA,NA,NA,NA,NA,NA,NA,NA,NA
44a53,deep,flow.Sequence,3_0_0_0_0_0,NA,NA,completion,11184.147,1617215.4,1617201.84,1617218.506,1628402.653,1628407.5,2023-12-05T14:46:27Z,1628419.319,NULL,Körper,kiwiliwili,d,NA,NA,NA,NA,sdf,NA,0,NA,NA,NA,NA,NA,NA,NA,NA,NA,NA,NA,NA,NA,NA,NA,NA,NA,NA,NA
44a53,shallow,flow.Sequence,3_0_0_0_0_1,NA,NA,skipped,NA,1628407.6,NA,NA,1628402.653,1628407.7,2023-12-05T14:46:27Z,1628419.319,NULL,Körper,kiwiliwili,d,NA,NA,NA,NA,sdf,NA,0,NA,NA,NA,NA,NA,NA,NA,NA,NA,NA,NA,NA,NA,NA,NA,NA,NA,NA,NA
44a53,task,flow.Sequence,3_0_0_0_0,NA,NA,completion,11184.147,1617215.4,1617201.84,1617218.506,1628402.653,1628407.9,2023-12-05T14:46:27Z,1628419.319,NULL,Körper,kiwiliwili,d,NA,NA,NA,NA,sdf,NA,0,NA,NA,NA,NA,NA,NA,NA,NA,NA,NA,NA,NA,NA,NA,NA,NA,NA,NA,NA
44a53,deep,flow.Sequence,3_0_0_0_1_0,NA,NA,skipped,NA,1628408,NA,NA,1628402.653,1628408.1,2023-12-05T14:46:27Z,1628419.319,NULL,Vorsorge,tahadhari,s,ufafanuzi,makini,mashambani,NA,sdf,NA,0,NA,NA,NA,NA,NA,NA,NA,NA,NA,NA,NA,NA,NA,NA,NA,NA,NA,NA,NA
44a53,Shallow Question,html.Page,3_0_0_0_1_1_0,NA,NA,form submission,5308.8810000003,1628408.2,1628402.653,1628419.319,1633728.2,1633728.6,2023-12-05T14:46:32Z,1633735.773,NULL,Vorsorge,tahadhari,s,ufafanuzi,makini,mashambani,ufafanuzi,NA,NA,0,NA,NA,NA,NA,NA,NA,NA,NA,NA,NA,NA,NA,NA,NA,NA,NA,NA,NA,NA
44a53,"""Richtig""-Screen",canvas.Screen,3_0_0_0_1_1_1,NA,NA,skipped,NA,1633731.4,NA,NA,1633728.2,1633731.4,2023-12-05T14:46:32Z,1633735.773,NULL,Vorsorge,tahadhari,s,ufafanuzi,makini,mashambani,NA,sdf,NA,0,NA,NA,NA,NA,NA,NA,NA,NA,NA,NA,NA,NA,NA,NA,NA,NA,NA,NA,NA
44a53,"""Falsch""-Screen",canvas.Screen,3_0_0_0_1_1_2,NA,NA,timeout,5000.3740000001,1633732.4,1633719.107,1633735.773,1638719.481,1638723.8,2023-12-05T14:46:37Z,1638736.147,NULL,Vorsorge,tahadhari,s,ufafanuzi,makini,mashambani,NA,sdf,0,0,NA,NA,NA,NA,NA,NA,NA,NA,NA,NA,NA,NA,NA,NA,NA,NA,NA,NA,NA
44a53,shallow,flow.Sequence,3_0_0_0_1_1,NA,NA,completion,10300.162,1628408.1,1628402.653,1628419.319,1638719.481,1638724.2,2023-12-05T14:46:37Z,1638736.147,NULL,Vorsorge,tahadhari,s,ufafanuzi,makini,mashambani,NA,sdf,NA,0,NA,NA,NA,NA,NA,NA,NA,NA,NA,NA,NA,NA,NA,NA,NA,NA,NA,NA,NA
44a53,task,flow.Sequence,3_0_0_0_1,NA,NA,completion,10300.162,1628408,1628402.653,1628419.319,1638719.481,1638724.3,2023-12-05T14:46:37Z,1638736.147,NULL,Vorsorge,tahadhari,s,ufafanuzi,makini,mashambani,NA,sdf,NA,0,NA,NA,NA,NA,NA,NA,NA,NA,NA,NA,NA,NA,NA,NA,NA,NA,NA,NA,NA
44a53,deep,flow.Sequence,3_0_0_0_2_0,NA,NA,skipped,NA,1638724.5,NA,NA,1638719.481,1638724.6,2023-12-05T14:46:37Z,1638736.147,NULL,System,maongozi,s,chokochoko,nuksani,mitaani,NA,sdf,NA,0,NA,NA,NA,NA,NA,NA,NA,NA,NA,NA,NA,NA,NA,NA,NA,NA,NA,NA,NA
44a53,Shallow Question,html.Page,3_0_0_0_2_1_0,NA,NA,form submission,5108.7529999998,1638724.8,1638719.481,1638736.147,1643844.9,1643845.4,2023-12-05T14:46:42Z,1643852.609,NULL,System,maongozi,s,chokochoko,nuksani,mitaani,chokochoko,NA,NA,0,NA,NA,NA,NA,NA,NA,NA,NA,NA,NA,NA,NA,NA,NA,NA,NA,NA,NA,NA
44a53,"""Richtig""-Screen",canvas.Screen,3_0_0_0_2_1_1,NA,NA,skipped,NA,1643848.1,NA,NA,1643844.9,1643848.2,2023-12-05T14:46:42Z,1643852.609,NULL,System,maongozi,s,chokochoko,nuksani,mitaani,NA,sdf,NA,0,NA,NA,NA,NA,NA,NA,NA,NA,NA,NA,NA,NA,NA,NA,NA,NA,NA,NA,NA
44a53,"""Falsch""-Screen",canvas.Screen,3_0_0_0_2_1_2,NA,NA,timeout,5000.2340000002,1643849.1,1643835.943,1643852.609,1648836.177,1648840.3,2023-12-05T14:46:47Z,1648852.843,NULL,System,maongozi,s,chokochoko,nuksani,mitaani,NA,sdf,0,0,NA,NA,NA,NA,NA,NA,NA,NA,NA,NA,NA,NA,NA,NA,NA,NA,NA,NA,NA
44a53,shallow,flow.Sequence,3_0_0_0_2_1,NA,NA,completion,10100.03,1638724.7,1638719.481,1638736.147,1648836.177,1648840.7,2023-12-05T14:46:47Z,1648852.843,NULL,System,maongozi,s,chokochoko,nuksani,mitaani,NA,sdf,NA,0,NA,NA,NA,NA,NA,NA,NA,NA,NA,NA,NA,NA,NA,NA,NA,NA,NA,NA,NA
44a53,task,flow.Sequence,3_0_0_0_2,NA,NA,completion,10100.03,1638724.4,1638719.481,1638736.147,1648836.177,1648840.8,2023-12-05T14:46:47Z,1648852.843,NULL,System,maongozi,s,chokochoko,nuksani,mitaani,NA,sdf,NA,0,NA,NA,NA,NA,NA,NA,NA,NA,NA,NA,NA,NA,NA,NA,NA,NA,NA,NA,NA
44a53,deep,flow.Sequence,3_0_0_0_3_0,NA,NA,skipped,NA,1648840.9,NA,NA,1648836.177,1648841.1,2023-12-05T14:46:47Z,1648852.843,NULL,Konkurrent,mshindani,s,msemaji,mvutaji,kipukusa,NA,sdf,NA,0,NA,NA,NA,NA,NA,NA,NA,NA,NA,NA,NA,NA,NA,NA,NA,NA,NA,NA,NA
44a53,Shallow Question,html.Page,3_0_0_0_3_1_0,NA,NA,form submission,7741.6569999999,1648841.3,1648836.177,1648852.843,1656594.5,1656595,2023-12-05T14:46:55Z,1656602.533,NULL,Konkurrent,mshindani,s,msemaji,mvutaji,kipukusa,mvutaji,NA,NA,0,NA,NA,NA,NA,NA,NA,NA,NA,NA,NA,NA,NA,NA,NA,NA,NA,NA,NA,NA
44a53,"""Richtig""-Screen",canvas.Screen,3_0_0_0_3_1_1,NA,NA,skipped,NA,1656597.3,NA,NA,1656594.5,1656597.4,2023-12-05T14:46:55Z,1656602.533,NULL,Konkurrent,mshindani,s,msemaji,mvutaji,kipukusa,NA,sdf,NA,0,NA,NA,NA,NA,NA,NA,NA,NA,NA,NA,NA,NA,NA,NA,NA,NA,NA,NA,NA
44a53,"""Falsch""-Screen",canvas.Screen,3_0_0_0_3_1_2,NA,NA,timeout,5000.872,1656598.3,1656585.867,1656602.533,1661586.739,1661590.5,2023-12-05T14:47:00Z,1661603.405,NULL,Konkurrent,mshindani,s,msemaji,mvutaji,kipukusa,NA,sdf,0,0,NA,NA,NA,NA,NA,NA,NA,NA,NA,NA,NA,NA,NA,NA,NA,NA,NA,NA,NA
44a53,shallow,flow.Sequence,3_0_0_0_3_1,NA,NA,completion,12733.896,1648841.2,1648836.177,1648852.843,1661586.739,1661590.9,2023-12-05T14:47:00Z,1661603.405,NULL,Konkurrent,mshindani,s,msemaji,mvutaji,kipukusa,NA,sdf,NA,0,NA,NA,NA,NA,NA,NA,NA,NA,NA,NA,NA,NA,NA,NA,NA,NA,NA,NA,NA
44a53,task,flow.Sequence,3_0_0_0_3,NA,NA,completion,12733.896,1648840.9,1648836.177,1648852.843,1661586.739,1661591.1,2023-12-05T14:47:00Z,1661603.405,NULL,Konkurrent,mshindani,s,msemaji,mvutaji,kipukusa,NA,sdf,NA,0,NA,NA,NA,NA,NA,NA,NA,NA,NA,NA,NA,NA,NA,NA,NA,NA,NA,NA,NA
44a53,Deep Question,html.Page,3_0_0_0_4_0_0,NA,NA,form submission,4373.2950000002,1661591.3,1661586.739,1661603.405,1665976.7,1665977,2023-12-05T14:47:05Z,1665986.563,NULL,Symbol,kielezo,d,NA,NA,NA,s,NA,NA,0,NA,NA,NA,NA,NA,NA,NA,NA,NA,NA,NA,NA,NA,NA,NA,NA,NA,NA,NA
44a53,"""Richtig""-Screen",canvas.Screen,3_0_0_0_4_0_1,NA,NA,skipped,NA,1665979.5,NA,NA,1665976.7,1665979.7,2023-12-05T14:47:05Z,1665986.563,NULL,Symbol,kielezo,d,NA,NA,NA,NA,sdf,NA,0,NA,NA,NA,NA,NA,NA,NA,NA,NA,NA,NA,NA,NA,NA,NA,NA,NA,NA,NA
44a53,"""Falsch""-Screen",canvas.Screen,3_0_0_0_4_0_2,NA,NA,timeout,4999.7999999998,1665980.2,1665969.897,1665986.563,1670969.697,1670974.2,2023-12-05T14:47:10Z,1670986.363,NULL,Symbol,kielezo,d,NA,NA,NA,NA,sdf,0,0,NA,NA,NA,NA,NA,NA,NA,NA,NA,NA,NA,NA,NA,NA,NA,NA,NA,NA,NA
44a53,deep,flow.Sequence,3_0_0_0_4_0,NA,NA,completion,9366.2919999999,1661591.3,1661586.739,1661603.405,1670969.697,1670974.6,2023-12-05T14:47:10Z,1670986.363,NULL,Symbol,kielezo,d,NA,NA,NA,NA,sdf,NA,0,NA,NA,NA,NA,NA,NA,NA,NA,NA,NA,NA,NA,NA,NA,NA,NA,NA,NA,NA
44a53,shallow,flow.Sequence,3_0_0_0_4_1,NA,NA,skipped,NA,1670974.8,NA,NA,1670969.697,1670974.9,2023-12-05T14:47:10Z,1670986.363,NULL,Symbol,kielezo,d,NA,NA,NA,NA,sdf,NA,0,NA,NA,NA,NA,NA,NA,NA,NA,NA,NA,NA,NA,NA,NA,NA,NA,NA,NA,NA
44a53,task,flow.Sequence,3_0_0_0_4,NA,NA,completion,9366.2919999999,1661591.3,1661586.739,1661603.405,1670969.697,1670975.1,2023-12-05T14:47:10Z,1670986.363,NULL,Symbol,kielezo,d,NA,NA,NA,NA,sdf,NA,0,NA,NA,NA,NA,NA,NA,NA,NA,NA,NA,NA,NA,NA,NA,NA,NA,NA,NA,NA
44a53,Deep Question,html.Page,3_0_0_0_5_0_0,NA,NA,form submission,4091.6370000001,1670975.3,1670969.697,1670986.363,1675078,1675078.3,2023-12-05T14:47:14Z,1675086.752,NULL,Übersicht,kilindo,d,NA,NA,NA,u,NA,NA,0,NA,NA,NA,NA,NA,NA,NA,NA,NA,NA,NA,NA,NA,NA,NA,NA,NA,NA,NA
44a53,"""Richtig""-Screen",canvas.Screen,3_0_0_0_5_0_1,NA,NA,skipped,NA,1675081.3,NA,NA,1675078,1675081.5,2023-12-05T14:47:14Z,1675086.752,NULL,Übersicht,kilindo,d,NA,NA,NA,NA,sdf,NA,0,NA,NA,NA,NA,NA,NA,NA,NA,NA,NA,NA,NA,NA,NA,NA,NA,NA,NA,NA
44a53,"""Falsch""-Screen",canvas.Screen,3_0_0_0_5_0_2,NA,NA,timeout,4999.7999999998,1675082.1,1675070.086,1675086.752,1680069.886,1680074.5,2023-12-05T14:47:19Z,1680086.552,NULL,Übersicht,kilindo,d,NA,NA,NA,NA,sdf,0,0,NA,NA,NA,NA,NA,NA,NA,NA,NA,NA,NA,NA,NA,NA,NA,NA,NA,NA,NA
44a53,deep,flow.Sequence,3_0_0_0_5_0,NA,NA,completion,9083.523,1670975.2,1670969.697,1670986.363,1680069.886,1680074.8,2023-12-05T14:47:19Z,1680086.552,NULL,Übersicht,kilindo,d,NA,NA,NA,NA,sdf,NA,0,NA,NA,NA,NA,NA,NA,NA,NA,NA,NA,NA,NA,NA,NA,NA,NA,NA,NA,NA
44a53,shallow,flow.Sequence,3_0_0_0_5_1,NA,NA,skipped,NA,1680074.8,NA,NA,1680069.886,1680074.9,2023-12-05T14:47:19Z,1680086.552,NULL,Übersicht,kilindo,d,NA,NA,NA,NA,sdf,NA,0,NA,NA,NA,NA,NA,NA,NA,NA,NA,NA,NA,NA,NA,NA,NA,NA,NA,NA,NA
44a53,task,flow.Sequence,3_0_0_0_5,NA,NA,completion,9083.523,1670975.2,1670969.697,1670986.363,1680069.886,1680075,2023-12-05T14:47:19Z,1680086.552,NULL,Übersicht,kilindo,d,NA,NA,NA,NA,sdf,NA,0,NA,NA,NA,NA,NA,NA,NA,NA,NA,NA,NA,NA,NA,NA,NA,NA,NA,NA,NA
44a53,Deep Question,html.Page,3_0_0_0_6_0_0,NA,NA,form submission,5592.2480000004,1680075,1680069.886,1680086.552,1685678.8,1685679.2,2023-12-05T14:47:24Z,1685686.919,NULL,Zuwachs,nyongeza,d,NA,NA,NA,n,NA,NA,0,NA,NA,NA,NA,NA,NA,NA,NA,NA,NA,NA,NA,NA,NA,NA,NA,NA,NA,NA
44a53,"""Richtig""-Screen",canvas.Screen,3_0_0_0_6_0_1,NA,NA,skipped,NA,1685682.5,NA,NA,1685678.8,1685682.7,2023-12-05T14:47:24Z,1685686.919,NULL,Zuwachs,nyongeza,d,NA,NA,NA,NA,sdf,NA,0,NA,NA,NA,NA,NA,NA,NA,NA,NA,NA,NA,NA,NA,NA,NA,NA,NA,NA,NA
44a53,"""Falsch""-Screen",canvas.Screen,3_0_0_0_6_0_2,NA,NA,timeout,4999.8,1685683.3,1685670.253,1685686.919,1690670.053,1690674.9,2023-12-05T14:47:29Z,1690686.719,NULL,Zuwachs,nyongeza,d,NA,NA,NA,NA,sdf,0,0,NA,NA,NA,NA,NA,NA,NA,NA,NA,NA,NA,NA,NA,NA,NA,NA,NA,NA,NA
44a53,deep,flow.Sequence,3_0_0_0_6_0,NA,NA,completion,10583.501,1680075,1680069.886,1680086.552,1690670.053,1690675.2,2023-12-05T14:47:29Z,1690686.719,NULL,Zuwachs,nyongeza,d,NA,NA,NA,NA,sdf,NA,0,NA,NA,NA,NA,NA,NA,NA,NA,NA,NA,NA,NA,NA,NA,NA,NA,NA,NA,NA
44a53,shallow,flow.Sequence,3_0_0_0_6_1,NA,NA,skipped,NA,1690675.4,NA,NA,1690670.053,1690675.5,2023-12-05T14:47:29Z,1690686.719,NULL,Zuwachs,nyongeza,d,NA,NA,NA,NA,sdf,NA,0,NA,NA,NA,NA,NA,NA,NA,NA,NA,NA,NA,NA,NA,NA,NA,NA,NA,NA,NA
44a53,task,flow.Sequence,3_0_0_0_6,NA,NA,completion,10583.501,1680075,1680069.886,1680086.552,1690670.053,1690675.6,2023-12-05T14:47:29Z,1690686.719,NULL,Zuwachs,nyongeza,d,NA,NA,NA,NA,sdf,NA,0,NA,NA,NA,NA,NA,NA,NA,NA,NA,NA,NA,NA,NA,NA,NA,NA,NA,NA,NA
44a53,deep,flow.Sequence,3_0_0_0_7_0,NA,NA,skipped,NA,1690675.8,NA,NA,1690670.053,1690675.9,2023-12-05T14:47:29Z,1690686.719,NULL,Lawine,banguko,s,maambukizi,usuluhishi,chekechea,NA,sdf,NA,0,NA,NA,NA,NA,NA,NA,NA,NA,NA,NA,NA,NA,NA,NA,NA,NA,NA,NA,NA
44a53,Shallow Question,html.Page,3_0_0_0_7_1_0,NA,NA,form submission,4492.281,1690676.1,1690670.053,1690686.719,1695179,1695179.5,2023-12-05T14:47:34Z,1695187.098,NULL,Lawine,banguko,s,maambukizi,usuluhishi,chekechea,usuluhishi,NA,NA,0,NA,NA,NA,NA,NA,NA,NA,NA,NA,NA,NA,NA,NA,NA,NA,NA,NA,NA,NA
44a53,"""Richtig""-Screen",canvas.Screen,3_0_0_0_7_1_1,NA,NA,skipped,NA,1695183.5,NA,NA,1695179,1695183.6,2023-12-05T14:47:34Z,1695187.098,NULL,Lawine,banguko,s,maambukizi,usuluhishi,chekechea,NA,sdf,NA,0,NA,NA,NA,NA,NA,NA,NA,NA,NA,NA,NA,NA,NA,NA,NA,NA,NA,NA,NA
44a53,"""Falsch""-Screen",canvas.Screen,3_0_0_0_7_1_2,NA,NA,timeout,4999.8,1695184.2,1695170.432,1695187.098,1700170.232,1700171.8,2023-12-05T14:47:39Z,1700186.898,NULL,Lawine,banguko,s,maambukizi,usuluhishi,chekechea,NA,sdf,0,0,NA,NA,NA,NA,NA,NA,NA,NA,NA,NA,NA,NA,NA,NA,NA,NA,NA,NA,NA
44a53,shallow,flow.Sequence,3_0_0_0_7_1,NA,NA,completion,9483.513,1690676,1690670.053,1690686.719,1700170.232,1700172.3,2023-12-05T14:47:39Z,1700186.898,NULL,Lawine,banguko,s,maambukizi,usuluhishi,chekechea,NA,sdf,NA,0,NA,NA,NA,NA,NA,NA,NA,NA,NA,NA,NA,NA,NA,NA,NA,NA,NA,NA,NA
44a53,task,flow.Sequence,3_0_0_0_7,NA,NA,completion,9483.513,1690675.8,1690670.053,1690686.719,1700170.232,1700172.4,2023-12-05T14:47:39Z,1700186.898,NULL,Lawine,banguko,s,maambukizi,usuluhishi,chekechea,NA,sdf,NA,0,NA,NA,NA,NA,NA,NA,NA,NA,NA,NA,NA,NA,NA,NA,NA,NA,NA,NA,NA
44a53,block,flow.Loop,3_0_0_0,NA,NA,completion,82951.726,1617215.4,1617201.84,1617218.506,1700170.232,1700172.7,2023-12-05T14:47:39Z,1700186.898,NULL,NA,NA,NA,NA,NA,NA,NA,sdf,NA,0,NA,NA,NA,NA,NA,NA,NA,NA,NA,NA,NA,NA,NA,NA,NA,NA,NA,NA,NA
44a53,weiter,canvas.Screen,3_0_0_1,sdf,keypress(Space),response,1297.5019999999,1700172.8,1700170.232,1700186.898,1701484.4,1701489.9,2023-12-05T14:47:40Z,1701520.178,NULL,NA,NA,NA,NA,NA,NA,NA,sdf,NA,0,NA,NA,NA,NA,NA,NA,NA,NA,NA,NA,NA,NA,NA,NA,NA,NA,NA,NA,NA
44a53,check continue,flow.Sequence,3_0_0,NA,NA,completion,84265.894,1617215.4,1617201.84,1617218.506,1701484.4,1701490.2,2023-12-05T14:47:40Z,1701520.178,NULL,NA,NA,NA,NA,NA,NA,NA,sdf,NA,0,NA,NA,NA,NA,NA,NA,NA,NA,NA,NA,NA,NA,NA,NA,NA,NA,NA,NA,NA
44a53,deep,flow.Sequence,3_0_1_0_0_0,NA,NA,skipped,NA,1701521.5,NA,NA,1701484.4,1701521.6,2023-12-05T14:47:40Z,1701520.178,NULL,Lawine,banguko,s,maambukizi,usuluhishi,chekechea,NA,sdfdsf,NA,1,NA,NA,NA,NA,NA,NA,NA,NA,NA,NA,NA,NA,NA,NA,NA,NA,NA,NA,NA
44a53,Shallow Question,html.Page,3_0_1_0_0_1_0,NA,NA,form submission,5309.2219999998,1701521.8,1701486.846,1701520.178,1706829.4,1706830,2023-12-05T14:47:45Z,1706837.193,NULL,Lawine,banguko,s,maambukizi,usuluhishi,chekechea,banguko,NA,NA,1,NA,NA,NA,NA,NA,NA,NA,NA,NA,NA,NA,NA,NA,NA,NA,NA,NA,NA,NA
44a53,"""Richtig""-Screen",canvas.Screen,3_0_1_0_0_1_1,NA,NA,timeout,4999.8,1706833.4,1706820.527,1706837.193,1711820.327,1711825.2,2023-12-05T14:47:50Z,1711836.993,NULL,Lawine,banguko,s,maambukizi,usuluhishi,chekechea,NA,sdfdsf,1,1,NA,NA,NA,NA,NA,NA,NA,NA,NA,NA,NA,NA,NA,NA,NA,NA,NA,NA,NA
44a53,"""Falsch""-Screen",canvas.Screen,3_0_1_0_0_1_2,NA,NA,skipped,NA,1711828.9,NA,NA,1711820.327,1711828.9,2023-12-05T14:47:50Z,1711836.993,NULL,Lawine,banguko,s,maambukizi,usuluhishi,chekechea,NA,sdfdsf,NA,1,NA,NA,NA,NA,NA,NA,NA,NA,NA,NA,NA,NA,NA,NA,NA,NA,NA,NA,NA
44a53,shallow,flow.Sequence,3_0_1_0_0_1,NA,NA,completion,10300.149,1701521.8,1701486.846,1701520.178,1711820.327,1711829.1,2023-12-05T14:47:50Z,1711836.993,NULL,Lawine,banguko,s,maambukizi,usuluhishi,chekechea,NA,sdfdsf,NA,1,NA,NA,NA,NA,NA,NA,NA,NA,NA,NA,NA,NA,NA,NA,NA,NA,NA,NA,NA
44a53,task,flow.Sequence,3_0_1_0_0,NA,NA,completion,10300.149,1701521.5,1701486.846,1701520.178,1711820.327,1711829.2,2023-12-05T14:47:50Z,1711836.993,NULL,Lawine,banguko,s,maambukizi,usuluhishi,chekechea,NA,sdfdsf,NA,1,NA,NA,NA,NA,NA,NA,NA,NA,NA,NA,NA,NA,NA,NA,NA,NA,NA,NA,NA
44a53,Deep Question,html.Page,3_0_1_0_1_0_0,NA,NA,form submission,5873.7070000002,1711829.3,1711820.327,1711836.993,1717710.7,1717710.9,2023-12-05T14:47:56Z,1717720.801,NULL,Übersicht,kilindo,d,NA,NA,NA,uy,NA,NA,1,NA,NA,NA,NA,NA,NA,NA,NA,NA,NA,NA,NA,NA,NA,NA,NA,NA,NA,NA
44a53,"""Richtig""-Screen",canvas.Screen,3_0_1_0_1_0_1,NA,NA,skipped,NA,1717712.9,NA,NA,1717710.7,1717713,2023-12-05T14:47:56Z,1717720.801,NULL,Übersicht,kilindo,d,NA,NA,NA,NA,sdfdsf,NA,1,NA,NA,NA,NA,NA,NA,NA,NA,NA,NA,NA,NA,NA,NA,NA,NA,NA,NA,NA
44a53,"""Falsch""-Screen",canvas.Screen,3_0_1_0_1_0_2,NA,NA,timeout,4999.8,1717713.4,1717704.135,1717720.801,1722703.935,1722708.9,2023-12-05T14:48:01Z,1722720.601,NULL,Übersicht,kilindo,d,NA,NA,NA,NA,sdfdsf,0,1,NA,NA,NA,NA,NA,NA,NA,NA,NA,NA,NA,NA,NA,NA,NA,NA,NA,NA,NA
44a53,deep,flow.Sequence,3_0_1_0_1_0,NA,NA,completion,10866.942,1711829.3,1711820.327,1711836.993,1722703.935,1722709.4,2023-12-05T14:48:01Z,1722720.601,NULL,Übersicht,kilindo,d,NA,NA,NA,NA,sdfdsf,NA,1,NA,NA,NA,NA,NA,NA,NA,NA,NA,NA,NA,NA,NA,NA,NA,NA,NA,NA,NA
44a53,shallow,flow.Sequence,3_0_1_0_1_1,NA,NA,skipped,NA,1722709.6,NA,NA,1722703.935,1722709.7,2023-12-05T14:48:01Z,1722720.601,NULL,Übersicht,kilindo,d,NA,NA,NA,NA,sdfdsf,NA,1,NA,NA,NA,NA,NA,NA,NA,NA,NA,NA,NA,NA,NA,NA,NA,NA,NA,NA,NA
44a53,task,flow.Sequence,3_0_1_0_1,NA,NA,completion,10866.942,1711829.3,1711820.327,1711836.993,1722703.935,1722709.9,2023-12-05T14:48:01Z,1722720.601,NULL,Übersicht,kilindo,d,NA,NA,NA,NA,sdfdsf,NA,1,NA,NA,NA,NA,NA,NA,NA,NA,NA,NA,NA,NA,NA,NA,NA,NA,NA,NA,NA
44a53,Deep Question,html.Page,3_0_1_0_2_0_0,NA,NA,form submission,4890.399,1722710.2,1722703.935,1722720.601,1727611,1727611.3,2023-12-05T14:48:06Z,1727621.014,NULL,Symbol,kielezo,d,NA,NA,NA,u,NA,NA,1,NA,NA,NA,NA,NA,NA,NA,NA,NA,NA,NA,NA,NA,NA,NA,NA,NA,NA,NA
44a53,"""Richtig""-Screen",canvas.Screen,3_0_1_0_2_0_1,NA,NA,skipped,NA,1727613.9,NA,NA,1727611,1727614,2023-12-05T14:48:06Z,1727621.014,NULL,Symbol,kielezo,d,NA,NA,NA,NA,sdfdsf,NA,1,NA,NA,NA,NA,NA,NA,NA,NA,NA,NA,NA,NA,NA,NA,NA,NA,NA,NA,NA
44a53,"""Falsch""-Screen",canvas.Screen,3_0_1_0_2_0_2,NA,NA,timeout,4999.8,1727614.5,1727604.348,1727621.014,1732604.148,1732608.5,2023-12-05T14:48:11Z,1732620.814,NULL,Symbol,kielezo,d,NA,NA,NA,NA,sdfdsf,0,1,NA,NA,NA,NA,NA,NA,NA,NA,NA,NA,NA,NA,NA,NA,NA,NA,NA,NA,NA
44a53,deep,flow.Sequence,3_0_1_0_2_0,NA,NA,completion,9883.547,1722710,1722703.935,1722720.601,1732604.148,1732608.8,2023-12-05T14:48:11Z,1732620.814,NULL,Symbol,kielezo,d,NA,NA,NA,NA,sdfdsf,NA,1,NA,NA,NA,NA,NA,NA,NA,NA,NA,NA,NA,NA,NA,NA,NA,NA,NA,NA,NA
44a53,shallow,flow.Sequence,3_0_1_0_2_1,NA,NA,skipped,NA,1732609,NA,NA,1732604.148,1732609.1,2023-12-05T14:48:11Z,1732620.814,NULL,Symbol,kielezo,d,NA,NA,NA,NA,sdfdsf,NA,1,NA,NA,NA,NA,NA,NA,NA,NA,NA,NA,NA,NA,NA,NA,NA,NA,NA,NA,NA
44a53,task,flow.Sequence,3_0_1_0_2,NA,NA,completion,9883.547,1722710,1722703.935,1722720.601,1732604.148,1732609.3,2023-12-05T14:48:11Z,1732620.814,NULL,Symbol,kielezo,d,NA,NA,NA,NA,sdfdsf,NA,1,NA,NA,NA,NA,NA,NA,NA,NA,NA,NA,NA,NA,NA,NA,NA,NA,NA,NA,NA
44a53,Deep Question,html.Page,3_0_1_0_3_0_0,NA,NA,form submission,5490.2860000001,1732609.4,1732604.148,1732620.814,1738111.1,1738111.3,2023-12-05T14:48:17Z,1738121.167,NULL,Körper,kiwiliwili,d,NA,NA,NA,um,NA,NA,1,NA,NA,NA,NA,NA,NA,NA,NA,NA,NA,NA,NA,NA,NA,NA,NA,NA,NA,NA
44a53,"""Richtig""-Screen",canvas.Screen,3_0_1_0_3_0_1,NA,NA,skipped,NA,1738113.9,NA,NA,1738111.1,1738114.1,2023-12-05T14:48:17Z,1738121.167,NULL,Körper,kiwiliwili,d,NA,NA,NA,NA,sdfdsf,NA,1,NA,NA,NA,NA,NA,NA,NA,NA,NA,NA,NA,NA,NA,NA,NA,NA,NA,NA,NA
44a53,"""Falsch""-Screen",canvas.Screen,3_0_1_0_3_0_2,NA,NA,timeout,4999.8,1738114.6,1738104.501,1738121.167,1743104.301,1743108.9,2023-12-05T14:48:22Z,1743120.967,NULL,Körper,kiwiliwili,d,NA,NA,NA,NA,sdfdsf,0,1,NA,NA,NA,NA,NA,NA,NA,NA,NA,NA,NA,NA,NA,NA,NA,NA,NA,NA,NA
44a53,deep,flow.Sequence,3_0_1_0_3_0,NA,NA,completion,10483.487,1732609.4,1732604.148,1732620.814,1743104.301,1743109.4,2023-12-05T14:48:22Z,1743120.967,NULL,Körper,kiwiliwili,d,NA,NA,NA,NA,sdfdsf,NA,1,NA,NA,NA,NA,NA,NA,NA,NA,NA,NA,NA,NA,NA,NA,NA,NA,NA,NA,NA
44a53,shallow,flow.Sequence,3_0_1_0_3_1,NA,NA,skipped,NA,1743109.5,NA,NA,1743104.301,1743109.7,2023-12-05T14:48:22Z,1743120.967,NULL,Körper,kiwiliwili,d,NA,NA,NA,NA,sdfdsf,NA,1,NA,NA,NA,NA,NA,NA,NA,NA,NA,NA,NA,NA,NA,NA,NA,NA,NA,NA,NA
44a53,task,flow.Sequence,3_0_1_0_3,NA,NA,completion,10483.487,1732609.4,1732604.148,1732620.814,1743104.301,1743109.9,2023-12-05T14:48:22Z,1743120.967,NULL,Körper,kiwiliwili,d,NA,NA,NA,NA,sdfdsf,NA,1,NA,NA,NA,NA,NA,NA,NA,NA,NA,NA,NA,NA,NA,NA,NA,NA,NA,NA,NA
44a53,deep,flow.Sequence,3_0_1_0_4_0,NA,NA,skipped,NA,1743110,NA,NA,1743104.301,1743110.1,2023-12-05T14:48:22Z,1743120.967,NULL,System,maongozi,s,chokochoko,nuksani,mitaani,NA,sdfdsf,NA,1,NA,NA,NA,NA,NA,NA,NA,NA,NA,NA,NA,NA,NA,NA,NA,NA,NA,NA,NA
44a53,Shallow Question,html.Page,3_0_1_0_4_1_0,NA,NA,form submission,6524.433,1743110.2,1743104.301,1743120.967,1749645.4,1749645.8,2023-12-05T14:48:28Z,1749654.402,NULL,System,maongozi,s,chokochoko,nuksani,mitaani,maongozi,NA,NA,1,NA,NA,NA,NA,NA,NA,NA,NA,NA,NA,NA,NA,NA,NA,NA,NA,NA,NA,NA
44a53,"""Richtig""-Screen",canvas.Screen,3_0_1_0_4_1_1,NA,NA,timeout,4999.8,1749649.5,1749637.736,1749654.402,1754637.536,1754641.9,2023-12-05T14:48:33Z,1754654.202,NULL,System,maongozi,s,chokochoko,nuksani,mitaani,NA,sdfdsf,1,1,NA,NA,NA,NA,NA,NA,NA,NA,NA,NA,NA,NA,NA,NA,NA,NA,NA,NA,NA
44a53,"""Falsch""-Screen",canvas.Screen,3_0_1_0_4_1_2,NA,NA,skipped,NA,1754645.2,NA,NA,1754637.536,1754645.3,2023-12-05T14:48:33Z,1754654.202,NULL,System,maongozi,s,chokochoko,nuksani,mitaani,NA,sdfdsf,NA,1,NA,NA,NA,NA,NA,NA,NA,NA,NA,NA,NA,NA,NA,NA,NA,NA,NA,NA,NA
44a53,shallow,flow.Sequence,3_0_1_0_4_1,NA,NA,completion,11516.569,1743110.2,1743104.301,1743120.967,1754637.536,1754645.4,2023-12-05T14:48:33Z,1754654.202,NULL,System,maongozi,s,chokochoko,nuksani,mitaani,NA,sdfdsf,NA,1,NA,NA,NA,NA,NA,NA,NA,NA,NA,NA,NA,NA,NA,NA,NA,NA,NA,NA,NA
44a53,task,flow.Sequence,3_0_1_0_4,NA,NA,completion,11516.569,1743109.9,1743104.301,1743120.967,1754637.536,1754645.6,2023-12-05T14:48:33Z,1754654.202,NULL,System,maongozi,s,chokochoko,nuksani,mitaani,NA,sdfdsf,NA,1,NA,NA,NA,NA,NA,NA,NA,NA,NA,NA,NA,NA,NA,NA,NA,NA,NA,NA,NA
44a53,deep,flow.Sequence,3_0_1_0_5_0,NA,NA,skipped,NA,1754645.7,NA,NA,1754637.536,1754645.7,2023-12-05T14:48:33Z,1754654.202,NULL,Konkurrent,mshindani,s,msemaji,mvutaji,kipukusa,NA,sdfdsf,NA,1,NA,NA,NA,NA,NA,NA,NA,NA,NA,NA,NA,NA,NA,NA,NA,NA,NA,NA,NA
44a53,Shallow Question,html.Page,3_0_1_0_5_1_0,NA,NA,form submission,6341.9980000001,1754645.9,1754637.536,1754654.202,1760996.2,1760996.7,2023-12-05T14:48:40Z,1761004.582,NULL,Konkurrent,mshindani,s,msemaji,mvutaji,kipukusa,mshindani,NA,NA,1,NA,NA,NA,NA,NA,NA,NA,NA,NA,NA,NA,NA,NA,NA,NA,NA,NA,NA,NA
44a53,"""Richtig""-Screen",canvas.Screen,3_0_1_0_5_1_1,NA,NA,timeout,4999.8,1760999.2,1760987.916,1761004.582,1765987.716,1765992.8,2023-12-05T14:48:45Z,1766004.382,NULL,Konkurrent,mshindani,s,msemaji,mvutaji,kipukusa,NA,sdfdsf,1,1,NA,NA,NA,NA,NA,NA,NA,NA,NA,NA,NA,NA,NA,NA,NA,NA,NA,NA,NA
44a53,"""Falsch""-Screen",canvas.Screen,3_0_1_0_5_1_2,NA,NA,skipped,NA,1765997.1,NA,NA,1765987.716,1765997.5,2023-12-05T14:48:45Z,1766004.382,NULL,Konkurrent,mshindani,s,msemaji,mvutaji,kipukusa,NA,sdfdsf,NA,1,NA,NA,NA,NA,NA,NA,NA,NA,NA,NA,NA,NA,NA,NA,NA,NA,NA,NA,NA
44a53,shallow,flow.Sequence,3_0_1_0_5_1,NA,NA,completion,11333.514,1754645.8,1754637.536,1754654.202,1765987.716,1765997.6,2023-12-05T14:48:45Z,1766004.382,NULL,Konkurrent,mshindani,s,msemaji,mvutaji,kipukusa,NA,sdfdsf,NA,1,NA,NA,NA,NA,NA,NA,NA,NA,NA,NA,NA,NA,NA,NA,NA,NA,NA,NA,NA
44a53,task,flow.Sequence,3_0_1_0_5,NA,NA,completion,11333.514,1754645.7,1754637.536,1754654.202,1765987.716,1765997.7,2023-12-05T14:48:45Z,1766004.382,NULL,Konkurrent,mshindani,s,msemaji,mvutaji,kipukusa,NA,sdfdsf,NA,1,NA,NA,NA,NA,NA,NA,NA,NA,NA,NA,NA,NA,NA,NA,NA,NA,NA,NA,NA
44a53,Deep Question,html.Page,3_0_1_0_6_0_0,NA,NA,form submission,7708.4180000003,1765997.9,1765987.716,1766004.382,1773712.8,1773713.4,2023-12-05T14:48:52Z,1773721.365,NULL,Zuwachs,nyongeza,d,NA,NA,NA,j,NA,NA,1,NA,NA,NA,NA,NA,NA,NA,NA,NA,NA,NA,NA,NA,NA,NA,NA,NA,NA,NA
44a53,"""Richtig""-Screen",canvas.Screen,3_0_1_0_6_0_1,NA,NA,skipped,NA,1773716.6,NA,NA,1773712.8,1773716.8,2023-12-05T14:48:52Z,1773721.365,NULL,Zuwachs,nyongeza,d,NA,NA,NA,NA,sdfdsf,NA,1,NA,NA,NA,NA,NA,NA,NA,NA,NA,NA,NA,NA,NA,NA,NA,NA,NA,NA,NA
44a53,"""Falsch""-Screen",canvas.Screen,3_0_1_0_6_0_2,NA,NA,timeout,5000.3030000001,1773717.4,1773704.699,1773721.365,1778705.002,1778708.9,2023-12-05T14:48:57Z,1778721.668,NULL,Zuwachs,nyongeza,d,NA,NA,NA,NA,sdfdsf,0,1,NA,NA,NA,NA,NA,NA,NA,NA,NA,NA,NA,NA,NA,NA,NA,NA,NA,NA,NA
44a53,deep,flow.Sequence,3_0_1_0_6_0,NA,NA,completion,12700.62,1765997.9,1765987.716,1766004.382,1778705.002,1778709.4,2023-12-05T14:48:57Z,1778721.668,NULL,Zuwachs,nyongeza,d,NA,NA,NA,NA,sdfdsf,NA,1,NA,NA,NA,NA,NA,NA,NA,NA,NA,NA,NA,NA,NA,NA,NA,NA,NA,NA,NA
44a53,shallow,flow.Sequence,3_0_1_0_6_1,NA,NA,skipped,NA,1778709.5,NA,NA,1778705.002,1778709.6,2023-12-05T14:48:57Z,1778721.668,NULL,Zuwachs,nyongeza,d,NA,NA,NA,NA,sdfdsf,NA,1,NA,NA,NA,NA,NA,NA,NA,NA,NA,NA,NA,NA,NA,NA,NA,NA,NA,NA,NA
44a53,task,flow.Sequence,3_0_1_0_6,NA,NA,completion,12700.62,1765997.8,1765987.716,1766004.382,1778705.002,1778709.7,2023-12-05T14:48:57Z,1778721.668,NULL,Zuwachs,nyongeza,d,NA,NA,NA,NA,sdfdsf,NA,1,NA,NA,NA,NA,NA,NA,NA,NA,NA,NA,NA,NA,NA,NA,NA,NA,NA,NA,NA
44a53,deep,flow.Sequence,3_0_1_0_7_0,NA,NA,skipped,NA,1778709.9,NA,NA,1778705.002,1778710,2023-12-05T14:48:57Z,1778721.668,NULL,Vorsorge,tahadhari,s,ufafanuzi,makini,mashambani,NA,sdfdsf,NA,1,NA,NA,NA,NA,NA,NA,NA,NA,NA,NA,NA,NA,NA,NA,NA,NA,NA,NA,NA
44a53,Shallow Question,html.Page,3_0_1_0_7_1_0,NA,NA,form submission,9542.3319999999,1778710.2,1778705.002,1778721.668,1788264,1788264.4,2023-12-05T14:49:07Z,1788271.286,NULL,Vorsorge,tahadhari,s,ufafanuzi,makini,mashambani,mashambani,NA,NA,1,NA,NA,NA,NA,NA,NA,NA,NA,NA,NA,NA,NA,NA,NA,NA,NA,NA,NA,NA
44a53,"""Richtig""-Screen",canvas.Screen,3_0_1_0_7_1_1,NA,NA,skipped,NA,1788267.1,NA,NA,1788264,1788267.3,2023-12-05T14:49:07Z,1788271.286,NULL,Vorsorge,tahadhari,s,ufafanuzi,makini,mashambani,NA,sdfdsf,NA,1,NA,NA,NA,NA,NA,NA,NA,NA,NA,NA,NA,NA,NA,NA,NA,NA,NA,NA,NA
44a53,"""Falsch""-Screen",canvas.Screen,3_0_1_0_7_1_2,NA,NA,timeout,5000.672,1788268.2,1788254.62,1788271.286,1793255.292,1793258.1,2023-12-05T14:49:12Z,1793271.958,NULL,Vorsorge,tahadhari,s,ufafanuzi,makini,mashambani,NA,sdfdsf,0,1,NA,NA,NA,NA,NA,NA,NA,NA,NA,NA,NA,NA,NA,NA,NA,NA,NA,NA,NA
44a53,shallow,flow.Sequence,3_0_1_0_7_1,NA,NA,completion,14533.624,1778710.1,1778705.002,1778721.668,1793255.292,1793258.6,2023-12-05T14:49:12Z,1793271.958,NULL,Vorsorge,tahadhari,s,ufafanuzi,makini,mashambani,NA,sdfdsf,NA,1,NA,NA,NA,NA,NA,NA,NA,NA,NA,NA,NA,NA,NA,NA,NA,NA,NA,NA,NA
44a53,task,flow.Sequence,3_0_1_0_7,NA,NA,completion,14533.624,1778709.9,1778705.002,1778721.668,1793255.292,1793258.8,2023-12-05T14:49:12Z,1793271.958,NULL,Vorsorge,tahadhari,s,ufafanuzi,makini,mashambani,NA,sdfdsf,NA,1,NA,NA,NA,NA,NA,NA,NA,NA,NA,NA,NA,NA,NA,NA,NA,NA,NA,NA,NA
44a53,block,flow.Loop,3_0_1_0,NA,NA,completion,91735.114,1701521.5,1701486.846,1701520.178,1793255.292,1793259,2023-12-05T14:49:12Z,1793271.958,NULL,NA,NA,NA,NA,NA,NA,NA,sdfdsf,NA,1,NA,NA,NA,NA,NA,NA,NA,NA,NA,NA,NA,NA,NA,NA,NA,NA,NA,NA,NA
44a53,weiter,canvas.Screen,3_0_1_1,sdf,keypress(Space),response,1150.4419999998,1793259.1,1793255.292,1793271.958,1794422.4,1794429.7,2023-12-05T14:49:13Z,1794455.244,NULL,NA,NA,NA,NA,NA,NA,NA,sdfdsf,NA,1,NA,NA,NA,NA,NA,NA,NA,NA,NA,NA,NA,NA,NA,NA,NA,NA,NA,NA,NA
44a53,check continue,flow.Sequence,3_0_1,NA,NA,completion,92902.222,1701521.5,1701486.846,1701520.178,1794422.4,1794429.8,2023-12-05T14:49:13Z,1794455.244,NULL,NA,NA,NA,NA,NA,NA,NA,sdfdsf,NA,1,NA,NA,NA,NA,NA,NA,NA,NA,NA,NA,NA,NA,NA,NA,NA,NA,NA,NA,NA
44a53,deep,flow.Sequence,3_0_2_0_0_0,NA,NA,skipped,NA,1794459.7,NA,NA,1794422.4,1794459.8,2023-12-05T14:49:13Z,1794455.244,NULL,Lawine,banguko,s,maambukizi,usuluhishi,chekechea,NA,sdf,NA,2,NA,NA,NA,NA,NA,NA,NA,NA,NA,NA,NA,NA,NA,NA,NA,NA,NA,NA,NA
44a53,Shallow Question,html.Page,3_0_2_0_0_1_0,NA,NA,form submission,4025.5560000003,1794459.8,1794421.912,1794455.244,1798480.8,1798481.2,2023-12-05T14:49:17Z,1798488.416,NULL,Lawine,banguko,s,maambukizi,usuluhishi,chekechea,banguko,NA,NA,2,NA,NA,NA,NA,NA,NA,NA,NA,NA,NA,NA,NA,NA,NA,NA,NA,NA,NA,NA
44a53,"""Richtig""-Screen",canvas.Screen,3_0_2_0_0_1_1,NA,NA,timeout,5000.456,1798484.1,1798471.75,1798488.416,1803472.206,1803476.3,2023-12-05T14:49:22Z,1803488.872,NULL,Lawine,banguko,s,maambukizi,usuluhishi,chekechea,NA,sdf,1,2,NA,NA,NA,NA,NA,NA,NA,NA,NA,NA,NA,NA,NA,NA,NA,NA,NA,NA,NA
44a53,"""Falsch""-Screen",canvas.Screen,3_0_2_0_0_1_2,NA,NA,skipped,NA,1803480.4,NA,NA,1803472.206,1803480.6,2023-12-05T14:49:22Z,1803488.872,NULL,Lawine,banguko,s,maambukizi,usuluhishi,chekechea,NA,sdf,NA,2,NA,NA,NA,NA,NA,NA,NA,NA,NA,NA,NA,NA,NA,NA,NA,NA,NA,NA,NA
44a53,shallow,flow.Sequence,3_0_2_0_0_1,NA,NA,completion,9016.9620000001,1794459.8,1794421.912,1794455.244,1803472.206,1803480.8,2023-12-05T14:49:22Z,1803488.872,NULL,Lawine,banguko,s,maambukizi,usuluhishi,chekechea,NA,sdf,NA,2,NA,NA,NA,NA,NA,NA,NA,NA,NA,NA,NA,NA,NA,NA,NA,NA,NA,NA,NA
44a53,task,flow.Sequence,3_0_2_0_0,NA,NA,completion,9016.9620000001,1794459.7,1794421.912,1794455.244,1803472.206,1803480.9,2023-12-05T14:49:22Z,1803488.872,NULL,Lawine,banguko,s,maambukizi,usuluhishi,chekechea,NA,sdf,NA,2,NA,NA,NA,NA,NA,NA,NA,NA,NA,NA,NA,NA,NA,NA,NA,NA,NA,NA,NA
44a53,deep,flow.Sequence,3_0_2_0_1_0,NA,NA,skipped,NA,1803481,NA,NA,1803472.206,1803481.1,2023-12-05T14:49:22Z,1803488.872,NULL,Konkurrent,mshindani,s,msemaji,mvutaji,kipukusa,NA,sdf,NA,2,NA,NA,NA,NA,NA,NA,NA,NA,NA,NA,NA,NA,NA,NA,NA,NA,NA,NA,NA
44a53,Shallow Question,html.Page,3_0_2_0_1_1_0,NA,NA,form submission,6208.3280000002,1803481.2,1803472.206,1803488.872,1809697.2,1809697.7,2023-12-05T14:49:28Z,1809705.29,NULL,Konkurrent,mshindani,s,msemaji,mvutaji,kipukusa,mshindani,NA,NA,2,NA,NA,NA,NA,NA,NA,NA,NA,NA,NA,NA,NA,NA,NA,NA,NA,NA,NA,NA
44a53,"""Richtig""-Screen",canvas.Screen,3_0_2_0_1_1_1,NA,NA,timeout,5000.274,1809700.1,1809688.624,1809705.29,1814688.898,1814690.3,2023-12-05T14:49:33Z,1814705.564,NULL,Konkurrent,mshindani,s,msemaji,mvutaji,kipukusa,NA,sdf,1,2,NA,NA,NA,NA,NA,NA,NA,NA,NA,NA,NA,NA,NA,NA,NA,NA,NA,NA,NA
44a53,"""Falsch""-Screen",canvas.Screen,3_0_2_0_1_1_2,NA,NA,skipped,NA,1814694.5,NA,NA,1814688.898,1814694.6,2023-12-05T14:49:33Z,1814705.564,NULL,Konkurrent,mshindani,s,msemaji,mvutaji,kipukusa,NA,sdf,NA,2,NA,NA,NA,NA,NA,NA,NA,NA,NA,NA,NA,NA,NA,NA,NA,NA,NA,NA,NA
44a53,shallow,flow.Sequence,3_0_2_0_1_1,NA,NA,completion,11200.026,1803481.1,1803472.206,1803488.872,1814688.898,1814694.7,2023-12-05T14:49:33Z,1814705.564,NULL,Konkurrent,mshindani,s,msemaji,mvutaji,kipukusa,NA,sdf,NA,2,NA,NA,NA,NA,NA,NA,NA,NA,NA,NA,NA,NA,NA,NA,NA,NA,NA,NA,NA
44a53,task,flow.Sequence,3_0_2_0_1,NA,NA,completion,11200.026,1803481,1803472.206,1803488.872,1814688.898,1814694.9,2023-12-05T14:49:33Z,1814705.564,NULL,Konkurrent,mshindani,s,msemaji,mvutaji,kipukusa,NA,sdf,NA,2,NA,NA,NA,NA,NA,NA,NA,NA,NA,NA,NA,NA,NA,NA,NA,NA,NA,NA,NA
44a53,deep,flow.Sequence,3_0_2_0_2_0,NA,NA,skipped,NA,1814695,NA,NA,1814688.898,1814695.1,2023-12-05T14:49:33Z,1814705.564,NULL,Vorsorge,tahadhari,s,ufafanuzi,makini,mashambani,NA,sdf,NA,2,NA,NA,NA,NA,NA,NA,NA,NA,NA,NA,NA,NA,NA,NA,NA,NA,NA,NA,NA
44a53,Shallow Question,html.Page,3_0_2_0_2_1_0,NA,NA,form submission,12075.336,1814695.2,1814688.898,1814705.564,1826780.9,1826781.4,2023-12-05T14:49:45Z,1826789.146,NULL,Vorsorge,tahadhari,s,ufafanuzi,makini,mashambani,tahadhari,NA,NA,2,NA,NA,NA,NA,NA,NA,NA,NA,NA,NA,NA,NA,NA,NA,NA,NA,NA,NA,NA
44a53,"""Richtig""-Screen",canvas.Screen,3_0_2_0_2_1_1,NA,NA,timeout,4999.8,1826784.1,1826772.48,1826789.146,1831772.28,1831777.3,2023-12-05T14:49:50Z,1831788.946,NULL,Vorsorge,tahadhari,s,ufafanuzi,makini,mashambani,NA,sdf,1,2,NA,NA,NA,NA,NA,NA,NA,NA,NA,NA,NA,NA,NA,NA,NA,NA,NA,NA,NA
44a53,"""Falsch""-Screen",canvas.Screen,3_0_2_0_2_1_2,NA,NA,skipped,NA,1831781.3,NA,NA,1831772.28,1831781.4,2023-12-05T14:49:50Z,1831788.946,NULL,Vorsorge,tahadhari,s,ufafanuzi,makini,mashambani,NA,sdf,NA,2,NA,NA,NA,NA,NA,NA,NA,NA,NA,NA,NA,NA,NA,NA,NA,NA,NA,NA,NA
44a53,shallow,flow.Sequence,3_0_2_0_2_1,NA,NA,completion,17066.716,1814695.2,1814688.898,1814705.564,1831772.28,1831781.7,2023-12-05T14:49:50Z,1831788.946,NULL,Vorsorge,tahadhari,s,ufafanuzi,makini,mashambani,NA,sdf,NA,2,NA,NA,NA,NA,NA,NA,NA,NA,NA,NA,NA,NA,NA,NA,NA,NA,NA,NA,NA
44a53,task,flow.Sequence,3_0_2_0_2,NA,NA,completion,17066.716,1814695,1814688.898,1814705.564,1831772.28,1831781.9,2023-12-05T14:49:50Z,1831788.946,NULL,Vorsorge,tahadhari,s,ufafanuzi,makini,mashambani,NA,sdf,NA,2,NA,NA,NA,NA,NA,NA,NA,NA,NA,NA,NA,NA,NA,NA,NA,NA,NA,NA,NA
44a53,Deep Question,html.Page,3_0_2_0_3_0_0,NA,NA,form submission,11075.054,1831782.1,1831772.28,1831788.946,1842864,1842864.2,2023-12-05T14:50:01Z,1842872.51,NULL,Übersicht,kilindo,d,NA,NA,NA,mkondo,NA,NA,2,NA,NA,NA,NA,NA,NA,NA,NA,NA,NA,NA,NA,NA,NA,NA,NA,NA,NA,NA
44a53,"""Richtig""-Screen",canvas.Screen,3_0_2_0_3_0_1,NA,NA,skipped,NA,1842866.8,NA,NA,1842864,1842867.1,2023-12-05T14:50:01Z,1842872.51,NULL,Übersicht,kilindo,d,NA,NA,NA,NA,sdf,NA,2,NA,NA,NA,NA,NA,NA,NA,NA,NA,NA,NA,NA,NA,NA,NA,NA,NA,NA,NA
44a53,"""Falsch""-Screen",canvas.Screen,3_0_2_0_3_0_2,NA,NA,timeout,5000.2080000001,1842868,1842855.844,1842872.51,1847856.052,1847860.4,2023-12-05T14:50:06Z,1847872.718,NULL,Übersicht,kilindo,d,NA,NA,NA,NA,sdf,0,2,NA,NA,NA,NA,NA,NA,NA,NA,NA,NA,NA,NA,NA,NA,NA,NA,NA,NA,NA
44a53,deep,flow.Sequence,3_0_2_0_3_0,NA,NA,completion,16067.106,1831782.1,1831772.28,1831788.946,1847856.052,1847860.9,2023-12-05T14:50:06Z,1847872.718,NULL,Übersicht,kilindo,d,NA,NA,NA,NA,sdf,NA,2,NA,NA,NA,NA,NA,NA,NA,NA,NA,NA,NA,NA,NA,NA,NA,NA,NA,NA,NA
44a53,shallow,flow.Sequence,3_0_2_0_3_1,NA,NA,skipped,NA,1847861,NA,NA,1847856.052,1847861.1,2023-12-05T14:50:06Z,1847872.718,NULL,Übersicht,kilindo,d,NA,NA,NA,NA,sdf,NA,2,NA,NA,NA,NA,NA,NA,NA,NA,NA,NA,NA,NA,NA,NA,NA,NA,NA,NA,NA
44a53,task,flow.Sequence,3_0_2_0_3,NA,NA,completion,16067.106,1831782,1831772.28,1831788.946,1847856.052,1847861.2,2023-12-05T14:50:06Z,1847872.718,NULL,Übersicht,kilindo,d,NA,NA,NA,NA,sdf,NA,2,NA,NA,NA,NA,NA,NA,NA,NA,NA,NA,NA,NA,NA,NA,NA,NA,NA,NA,NA
44a53,Deep Question,html.Page,3_0_2_0_4_0_0,NA,NA,form submission,13907.182,1847861.4,1847856.052,1847872.718,1861779.9,1861780.2,2023-12-05T14:50:20Z,1861789.694,NULL,Körper,kiwiliwili,d,NA,NA,NA,kawashiwiwi,NA,NA,2,NA,NA,NA,NA,NA,NA,NA,NA,NA,NA,NA,NA,NA,NA,NA,NA,NA,NA,NA
44a53,"""Richtig""-Screen",canvas.Screen,3_0_2_0_4_0_1,NA,NA,skipped,NA,1861782.8,NA,NA,1861779.9,1861782.8,2023-12-05T14:50:20Z,1861789.694,NULL,Körper,kiwiliwili,d,NA,NA,NA,NA,sdf,NA,2,NA,NA,NA,NA,NA,NA,NA,NA,NA,NA,NA,NA,NA,NA,NA,NA,NA,NA,NA
44a53,"""Falsch""-Screen",canvas.Screen,3_0_2_0_4_0_2,NA,NA,timeout,4999.8,1861783.4,1861773.028,1861789.694,1866772.828,1866777.2,2023-12-05T14:50:25Z,1866789.494,NULL,Körper,kiwiliwili,d,NA,NA,NA,NA,sdf,0,2,NA,NA,NA,NA,NA,NA,NA,NA,NA,NA,NA,NA,NA,NA,NA,NA,NA,NA,NA
44a53,deep,flow.Sequence,3_0_2_0_4_0,NA,NA,completion,18900.11,1847861.4,1847856.052,1847872.718,1866772.828,1866777.6,2023-12-05T14:50:25Z,1866789.494,NULL,Körper,kiwiliwili,d,NA,NA,NA,NA,sdf,NA,2,NA,NA,NA,NA,NA,NA,NA,NA,NA,NA,NA,NA,NA,NA,NA,NA,NA,NA,NA
44a53,shallow,flow.Sequence,3_0_2_0_4_1,NA,NA,skipped,NA,1866777.7,NA,NA,1866772.828,1866777.8,2023-12-05T14:50:25Z,1866789.494,NULL,Körper,kiwiliwili,d,NA,NA,NA,NA,sdf,NA,2,NA,NA,NA,NA,NA,NA,NA,NA,NA,NA,NA,NA,NA,NA,NA,NA,NA,NA,NA
44a53,task,flow.Sequence,3_0_2_0_4,NA,NA,completion,18900.11,1847861.4,1847856.052,1847872.718,1866772.828,1866777.9,2023-12-05T14:50:25Z,1866789.494,NULL,Körper,kiwiliwili,d,NA,NA,NA,NA,sdf,NA,2,NA,NA,NA,NA,NA,NA,NA,NA,NA,NA,NA,NA,NA,NA,NA,NA,NA,NA,NA
44a53,Deep Question,html.Page,3_0_2_0_5_0_0,NA,NA,form submission,6974.0060000001,1866778.1,1866772.828,1866789.494,1873763.5,1873763.6,2023-12-05T14:50:32Z,1873773.094,NULL,Symbol,kielezo,d,NA,NA,NA,naetsongo,NA,NA,2,NA,NA,NA,NA,NA,NA,NA,NA,NA,NA,NA,NA,NA,NA,NA,NA,NA,NA,NA
44a53,"""Richtig""-Screen",canvas.Screen,3_0_2_0_5_0_1,NA,NA,skipped,NA,1873766.1,NA,NA,1873763.5,1873766.2,2023-12-05T14:50:32Z,1873773.094,NULL,Symbol,kielezo,d,NA,NA,NA,NA,sdf,NA,2,NA,NA,NA,NA,NA,NA,NA,NA,NA,NA,NA,NA,NA,NA,NA,NA,NA,NA,NA
44a53,"""Falsch""-Screen",canvas.Screen,3_0_2_0_5_0_2,NA,NA,timeout,5000.138,1873766.8,1873756.428,1873773.094,1878756.566,1878757.6,2023-12-05T14:50:37Z,1878773.232,NULL,Symbol,kielezo,d,NA,NA,NA,NA,sdf,0,2,NA,NA,NA,NA,NA,NA,NA,NA,NA,NA,NA,NA,NA,NA,NA,NA,NA,NA,NA
44a53,deep,flow.Sequence,3_0_2_0_5_0,NA,NA,completion,11967.072,1866778.1,1866772.828,1866789.494,1878756.566,1878758.1,2023-12-05T14:50:37Z,1878773.232,NULL,Symbol,kielezo,d,NA,NA,NA,NA,sdf,NA,2,NA,NA,NA,NA,NA,NA,NA,NA,NA,NA,NA,NA,NA,NA,NA,NA,NA,NA,NA
44a53,shallow,flow.Sequence,3_0_2_0_5_1,NA,NA,skipped,NA,1878758.3,NA,NA,1878756.566,1878758.4,2023-12-05T14:50:37Z,1878773.232,NULL,Symbol,kielezo,d,NA,NA,NA,NA,sdf,NA,2,NA,NA,NA,NA,NA,NA,NA,NA,NA,NA,NA,NA,NA,NA,NA,NA,NA,NA,NA
44a53,task,flow.Sequence,3_0_2_0_5,NA,NA,completion,11967.072,1866778,1866772.828,1866789.494,1878756.566,1878758.6,2023-12-05T14:50:37Z,1878773.232,NULL,Symbol,kielezo,d,NA,NA,NA,NA,sdf,NA,2,NA,NA,NA,NA,NA,NA,NA,NA,NA,NA,NA,NA,NA,NA,NA,NA,NA,NA,NA
44a53,deep,flow.Sequence,3_0_2_0_6_0,NA,NA,skipped,NA,1878758.8,NA,NA,1878756.566,1878758.9,2023-12-05T14:50:37Z,1878773.232,NULL,System,maongozi,s,chokochoko,nuksani,mitaani,NA,sdf,NA,2,NA,NA,NA,NA,NA,NA,NA,NA,NA,NA,NA,NA,NA,NA,NA,NA,NA,NA,NA
44a53,Shallow Question,html.Page,3_0_2_0_6_1_0,NA,NA,form submission,6741.5680000002,1878759,1878756.566,1878773.232,1885514.8,1885515.3,2023-12-05T14:50:44Z,1885522.962,NULL,System,maongozi,s,chokochoko,nuksani,mitaani,maongozi,NA,NA,2,NA,NA,NA,NA,NA,NA,NA,NA,NA,NA,NA,NA,NA,NA,NA,NA,NA,NA,NA
44a53,"""Richtig""-Screen",canvas.Screen,3_0_2_0_6_1_1,NA,NA,timeout,5000.4539999999,1885518,1885506.296,1885522.962,1890506.75,1890511.4,2023-12-05T14:50:49Z,1890523.416,NULL,System,maongozi,s,chokochoko,nuksani,mitaani,NA,sdf,1,2,NA,NA,NA,NA,NA,NA,NA,NA,NA,NA,NA,NA,NA,NA,NA,NA,NA,NA,NA
44a53,"""Falsch""-Screen",canvas.Screen,3_0_2_0_6_1_2,NA,NA,skipped,NA,1890515.4,NA,NA,1890506.75,1890515.7,2023-12-05T14:50:49Z,1890523.416,NULL,System,maongozi,s,chokochoko,nuksani,mitaani,NA,sdf,NA,2,NA,NA,NA,NA,NA,NA,NA,NA,NA,NA,NA,NA,NA,NA,NA,NA,NA,NA,NA
44a53,shallow,flow.Sequence,3_0_2_0_6_1,NA,NA,completion,11733.518,1878759,1878756.566,1878773.232,1890506.75,1890515.9,2023-12-05T14:50:49Z,1890523.416,NULL,System,maongozi,s,chokochoko,nuksani,mitaani,NA,sdf,NA,2,NA,NA,NA,NA,NA,NA,NA,NA,NA,NA,NA,NA,NA,NA,NA,NA,NA,NA,NA
44a53,task,flow.Sequence,3_0_2_0_6,NA,NA,completion,11733.518,1878758.7,1878756.566,1878773.232,1890506.75,1890516,2023-12-05T14:50:49Z,1890523.416,NULL,System,maongozi,s,chokochoko,nuksani,mitaani,NA,sdf,NA,2,NA,NA,NA,NA,NA,NA,NA,NA,NA,NA,NA,NA,NA,NA,NA,NA,NA,NA,NA
44a53,Deep Question,html.Page,3_0_2_0_7_0_0,NA,NA,form submission,14075.084,1890516.2,1890506.75,1890523.416,1904598.5,1904598.9,2023-12-05T14:51:03Z,1904606.99,NULL,Zuwachs,nyongeza,d,NA,NA,NA,makaleo,NA,NA,2,NA,NA,NA,NA,NA,NA,NA,NA,NA,NA,NA,NA,NA,NA,NA,NA,NA,NA,NA
44a53,"""Richtig""-Screen",canvas.Screen,3_0_2_0_7_0_1,NA,NA,skipped,NA,1904602.6,NA,NA,1904598.5,1904602.7,2023-12-05T14:51:03Z,1904606.99,NULL,Zuwachs,nyongeza,d,NA,NA,NA,NA,sdf,NA,2,NA,NA,NA,NA,NA,NA,NA,NA,NA,NA,NA,NA,NA,NA,NA,NA,NA,NA,NA
44a53,"""Falsch""-Screen",canvas.Screen,3_0_2_0_7_0_2,NA,NA,timeout,4999.8,1904603.2,1904590.324,1904606.99,1909590.124,1909594.1,2023-12-05T14:51:08Z,1909606.79,NULL,Zuwachs,nyongeza,d,NA,NA,NA,NA,sdf,0,2,NA,NA,NA,NA,NA,NA,NA,NA,NA,NA,NA,NA,NA,NA,NA,NA,NA,NA,NA
44a53,deep,flow.Sequence,3_0_2_0_7_0,NA,NA,completion,19066.708,1890516.1,1890506.75,1890523.416,1909590.124,1909594.6,2023-12-05T14:51:08Z,1909606.79,NULL,Zuwachs,nyongeza,d,NA,NA,NA,NA,sdf,NA,2,NA,NA,NA,NA,NA,NA,NA,NA,NA,NA,NA,NA,NA,NA,NA,NA,NA,NA,NA
44a53,shallow,flow.Sequence,3_0_2_0_7_1,NA,NA,skipped,NA,1909594.7,NA,NA,1909590.124,1909594.9,2023-12-05T14:51:08Z,1909606.79,NULL,Zuwachs,nyongeza,d,NA,NA,NA,NA,sdf,NA,2,NA,NA,NA,NA,NA,NA,NA,NA,NA,NA,NA,NA,NA,NA,NA,NA,NA,NA,NA
44a53,task,flow.Sequence,3_0_2_0_7,NA,NA,completion,19066.708,1890516.1,1890506.75,1890523.416,1909590.124,1909595,2023-12-05T14:51:08Z,1909606.79,NULL,Zuwachs,nyongeza,d,NA,NA,NA,NA,sdf,NA,2,NA,NA,NA,NA,NA,NA,NA,NA,NA,NA,NA,NA,NA,NA,NA,NA,NA,NA,NA
44a53,block,flow.Loop,3_0_2_0,NA,NA,completion,115134.88,1794459.7,1794421.912,1794455.244,1909590.124,1909595.2,2023-12-05T14:51:08Z,1909606.79,NULL,NA,NA,NA,NA,NA,NA,NA,sdf,NA,2,NA,NA,NA,NA,NA,NA,NA,NA,NA,NA,NA,NA,NA,NA,NA,NA,NA,NA,NA
44a53,weiter,canvas.Screen,3_0_2_1,sdf,keypress(Space),response,1336.8100000001,1909595.3,1909590.124,1909606.79,1910943.6,1910951.6,2023-12-05T14:51:09Z,1910973.402,NULL,NA,NA,NA,NA,NA,NA,NA,sdf,NA,2,NA,NA,NA,NA,NA,NA,NA,NA,NA,NA,NA,NA,NA,NA,NA,NA,NA,NA,NA
44a53,check continue,flow.Sequence,3_0_2,NA,NA,completion,116488.356,1794459.7,1794421.912,1794455.244,1910943.6,1910951.8,2023-12-05T14:51:09Z,1910973.402,NULL,NA,NA,NA,NA,NA,NA,NA,sdf,NA,2,NA,NA,NA,NA,NA,NA,NA,NA,NA,NA,NA,NA,NA,NA,NA,NA,NA,NA,NA
44a53,deep,flow.Sequence,3_0_3_0_0_0,NA,NA,skipped,NA,1910975.2,NA,NA,1910943.6,1910975.3,2023-12-05T14:51:10Z,1910973.402,NULL,System,maongozi,s,chokochoko,nuksani,mitaani,NA,qt,NA,3,NA,NA,NA,NA,NA,NA,NA,NA,NA,NA,NA,NA,NA,NA,NA,NA,NA,NA,NA
44a53,Shallow Question,html.Page,3_0_3_0_0_1_0,NA,NA,form submission,5392.3980000003,1910975.3,1910940.07,1910973.402,1916365.8,1916366.2,2023-12-05T14:51:15Z,1916373.717,NULL,System,maongozi,s,chokochoko,nuksani,mitaani,maongozi,NA,NA,3,NA,NA,NA,NA,NA,NA,NA,NA,NA,NA,NA,NA,NA,NA,NA,NA,NA,NA,NA
44a53,"""Richtig""-Screen",canvas.Screen,3_0_3_0_0_1_1,NA,NA,timeout,5000.1810000001,1916368.8,1916357.051,1916373.717,1921357.232,1921361.1,2023-12-05T14:51:20Z,1921373.898,NULL,System,maongozi,s,chokochoko,nuksani,mitaani,NA,qt,1,3,NA,NA,NA,NA,NA,NA,NA,NA,NA,NA,NA,NA,NA,NA,NA,NA,NA,NA,NA
44a53,"""Falsch""-Screen",canvas.Screen,3_0_3_0_0_1_2,NA,NA,skipped,NA,1921364.9,NA,NA,1921357.232,1921365,2023-12-05T14:51:20Z,1921373.898,NULL,System,maongozi,s,chokochoko,nuksani,mitaani,NA,qt,NA,3,NA,NA,NA,NA,NA,NA,NA,NA,NA,NA,NA,NA,NA,NA,NA,NA,NA,NA,NA
44a53,shallow,flow.Sequence,3_0_3_0_0_1,NA,NA,completion,10383.83,1910975.3,1910940.07,1910973.402,1921357.232,1921365.1,2023-12-05T14:51:20Z,1921373.898,NULL,System,maongozi,s,chokochoko,nuksani,mitaani,NA,qt,NA,3,NA,NA,NA,NA,NA,NA,NA,NA,NA,NA,NA,NA,NA,NA,NA,NA,NA,NA,NA
44a53,task,flow.Sequence,3_0_3_0_0,NA,NA,completion,10383.83,1910975.2,1910940.07,1910973.402,1921357.232,1921365.2,2023-12-05T14:51:20Z,1921373.898,NULL,System,maongozi,s,chokochoko,nuksani,mitaani,NA,qt,NA,3,NA,NA,NA,NA,NA,NA,NA,NA,NA,NA,NA,NA,NA,NA,NA,NA,NA,NA,NA
44a53,deep,flow.Sequence,3_0_3_0_1_0,NA,NA,skipped,NA,1921365.3,NA,NA,1921357.232,1921365.4,2023-12-05T14:51:20Z,1921373.898,NULL,Vorsorge,tahadhari,s,ufafanuzi,makini,mashambani,NA,qt,NA,3,NA,NA,NA,NA,NA,NA,NA,NA,NA,NA,NA,NA,NA,NA,NA,NA,NA,NA,NA
44a53,Shallow Question,html.Page,3_0_3_0_1_1_0,NA,NA,form submission,6091.8019999997,1921365.4,1921357.232,1921373.898,1927465.7,1927466.1,2023-12-05T14:51:26Z,1927473.654,NULL,Vorsorge,tahadhari,s,ufafanuzi,makini,mashambani,tahadhari,NA,NA,3,NA,NA,NA,NA,NA,NA,NA,NA,NA,NA,NA,NA,NA,NA,NA,NA,NA,NA,NA
44a53,"""Richtig""-Screen",canvas.Screen,3_0_3_0_1_1_1,NA,NA,timeout,5000.4169999999,1927468.6,1927456.988,1927473.654,1932457.405,1932458.4,2023-12-05T14:51:31Z,1932474.071,NULL,Vorsorge,tahadhari,s,ufafanuzi,makini,mashambani,NA,qt,1,3,NA,NA,NA,NA,NA,NA,NA,NA,NA,NA,NA,NA,NA,NA,NA,NA,NA,NA,NA
44a53,"""Falsch""-Screen",canvas.Screen,3_0_3_0_1_1_2,NA,NA,skipped,NA,1932462.1,NA,NA,1932457.405,1932462.1,2023-12-05T14:51:31Z,1932474.071,NULL,Vorsorge,tahadhari,s,ufafanuzi,makini,mashambani,NA,qt,NA,3,NA,NA,NA,NA,NA,NA,NA,NA,NA,NA,NA,NA,NA,NA,NA,NA,NA,NA,NA
44a53,shallow,flow.Sequence,3_0_3_0_1_1,NA,NA,completion,11083.507,1921365.4,1921357.232,1921373.898,1932457.405,1932462.2,2023-12-05T14:51:31Z,1932474.071,NULL,Vorsorge,tahadhari,s,ufafanuzi,makini,mashambani,NA,qt,NA,3,NA,NA,NA,NA,NA,NA,NA,NA,NA,NA,NA,NA,NA,NA,NA,NA,NA,NA,NA
44a53,task,flow.Sequence,3_0_3_0_1,NA,NA,completion,11083.507,1921365.3,1921357.232,1921373.898,1932457.405,1932462.3,2023-12-05T14:51:31Z,1932474.071,NULL,Vorsorge,tahadhari,s,ufafanuzi,makini,mashambani,NA,qt,NA,3,NA,NA,NA,NA,NA,NA,NA,NA,NA,NA,NA,NA,NA,NA,NA,NA,NA,NA,NA
44a53,Deep Question,html.Page,3_0_3_0_2_0_0,NA,NA,form submission,7141.9290000005,1932462.4,1932457.405,1932474.071,1939616,1939616.3,2023-12-05T14:51:38Z,1939623.785,NULL,Übersicht,kilindo,d,NA,NA,NA,m,NA,NA,3,NA,NA,NA,NA,NA,NA,NA,NA,NA,NA,NA,NA,NA,NA,NA,NA,NA,NA,NA
44a53,"""Richtig""-Screen",canvas.Screen,3_0_3_0_2_0_1,NA,NA,skipped,NA,1939619.7,NA,NA,1939616,1939619.9,2023-12-05T14:51:38Z,1939623.785,NULL,Übersicht,kilindo,d,NA,NA,NA,NA,qt,NA,3,NA,NA,NA,NA,NA,NA,NA,NA,NA,NA,NA,NA,NA,NA,NA,NA,NA,NA,NA
44a53,"""Falsch""-Screen",canvas.Screen,3_0_3_0_2_0_2,NA,NA,timeout,5000.4240000001,1939620.6,1939607.119,1939623.785,1944607.543,1944611.8,2023-12-05T14:51:43Z,1944624.209,NULL,Übersicht,kilindo,d,NA,NA,NA,NA,qt,0,3,NA,NA,NA,NA,NA,NA,NA,NA,NA,NA,NA,NA,NA,NA,NA,NA,NA,NA,NA
44a53,deep,flow.Sequence,3_0_3_0_2_0,NA,NA,completion,12133.472,1932462.4,1932457.405,1932474.071,1944607.543,1944612.3,2023-12-05T14:51:43Z,1944624.209,NULL,Übersicht,kilindo,d,NA,NA,NA,NA,qt,NA,3,NA,NA,NA,NA,NA,NA,NA,NA,NA,NA,NA,NA,NA,NA,NA,NA,NA,NA,NA
44a53,shallow,flow.Sequence,3_0_3_0_2_1,NA,NA,skipped,NA,1944612.4,NA,NA,1944607.543,1944612.6,2023-12-05T14:51:43Z,1944624.209,NULL,Übersicht,kilindo,d,NA,NA,NA,NA,qt,NA,3,NA,NA,NA,NA,NA,NA,NA,NA,NA,NA,NA,NA,NA,NA,NA,NA,NA,NA,NA
44a53,task,flow.Sequence,3_0_3_0_2,NA,NA,completion,12133.472,1932462.3,1932457.405,1932474.071,1944607.543,1944612.7,2023-12-05T14:51:43Z,1944624.209,NULL,Übersicht,kilindo,d,NA,NA,NA,NA,qt,NA,3,NA,NA,NA,NA,NA,NA,NA,NA,NA,NA,NA,NA,NA,NA,NA,NA,NA,NA,NA
44a53,Deep Question,html.Page,3_0_3_0_3_0_0,NA,NA,form submission,11257.091,1944613,1944607.543,1944624.209,1955881.3,1955881.5,2023-12-05T14:51:54Z,1955891.291,NULL,Symbol,kielezo,d,NA,NA,NA,k,NA,NA,3,NA,NA,NA,NA,NA,NA,NA,NA,NA,NA,NA,NA,NA,NA,NA,NA,NA,NA,NA
44a53,"""Richtig""-Screen",canvas.Screen,3_0_3_0_3_0_1,NA,NA,skipped,NA,1955884.8,NA,NA,1955881.3,1955884.8,2023-12-05T14:51:54Z,1955891.291,NULL,Symbol,kielezo,d,NA,NA,NA,NA,qt,NA,3,NA,NA,NA,NA,NA,NA,NA,NA,NA,NA,NA,NA,NA,NA,NA,NA,NA,NA,NA
44a53,"""Falsch""-Screen",canvas.Screen,3_0_3_0_3_0_2,NA,NA,timeout,4999.8,1955885.4,1955874.625,1955891.291,1960874.425,1960878.8,2023-12-05T14:51:59Z,1960891.091,NULL,Symbol,kielezo,d,NA,NA,NA,NA,qt,0,3,NA,NA,NA,NA,NA,NA,NA,NA,NA,NA,NA,NA,NA,NA,NA,NA,NA,NA,NA
44a53,deep,flow.Sequence,3_0_3_0_3_0,NA,NA,completion,16250.216,1944612.9,1944607.543,1944624.209,1960874.425,1960879.2,2023-12-05T14:51:59Z,1960891.091,NULL,Symbol,kielezo,d,NA,NA,NA,NA,qt,NA,3,NA,NA,NA,NA,NA,NA,NA,NA,NA,NA,NA,NA,NA,NA,NA,NA,NA,NA,NA
44a53,shallow,flow.Sequence,3_0_3_0_3_1,NA,NA,skipped,NA,1960879.4,NA,NA,1960874.425,1960879.5,2023-12-05T14:51:59Z,1960891.091,NULL,Symbol,kielezo,d,NA,NA,NA,NA,qt,NA,3,NA,NA,NA,NA,NA,NA,NA,NA,NA,NA,NA,NA,NA,NA,NA,NA,NA,NA,NA
44a53,task,flow.Sequence,3_0_3_0_3,NA,NA,completion,16250.216,1944612.8,1944607.543,1944624.209,1960874.425,1960879.7,2023-12-05T14:51:59Z,1960891.091,NULL,Symbol,kielezo,d,NA,NA,NA,NA,qt,NA,3,NA,NA,NA,NA,NA,NA,NA,NA,NA,NA,NA,NA,NA,NA,NA,NA,NA,NA,NA
44a53,Deep Question,html.Page,3_0_3_0_4_0_0,NA,NA,form submission,6941.7090000003,1960879.9,1960874.425,1960891.091,1967832.8,1967833.2,2023-12-05T14:52:06Z,1967841.326,NULL,Zuwachs,nyongeza,d,NA,NA,NA,nyonkeli,NA,NA,3,NA,NA,NA,NA,NA,NA,NA,NA,NA,NA,NA,NA,NA,NA,NA,NA,NA,NA,NA
44a53,"""Richtig""-Screen",canvas.Screen,3_0_3_0_4_0_1,NA,NA,skipped,NA,1967836.7,NA,NA,1967832.8,1967837,2023-12-05T14:52:06Z,1967841.326,NULL,Zuwachs,nyongeza,d,NA,NA,NA,NA,qt,NA,3,NA,NA,NA,NA,NA,NA,NA,NA,NA,NA,NA,NA,NA,NA,NA,NA,NA,NA,NA
44a53,"""Falsch""-Screen",canvas.Screen,3_0_3_0_4_0_2,NA,NA,timeout,4999.8,1967837.7,1967824.66,1967841.326,1972824.46,1972829,2023-12-05T14:52:11Z,1972841.126,NULL,Zuwachs,nyongeza,d,NA,NA,NA,NA,qt,0,3,NA,NA,NA,NA,NA,NA,NA,NA,NA,NA,NA,NA,NA,NA,NA,NA,NA,NA,NA
44a53,deep,flow.Sequence,3_0_3_0_4_0,NA,NA,completion,11933.369,1960879.8,1960874.425,1960891.091,1972824.46,1972829.5,2023-12-05T14:52:11Z,1972841.126,NULL,Zuwachs,nyongeza,d,NA,NA,NA,NA,qt,NA,3,NA,NA,NA,NA,NA,NA,NA,NA,NA,NA,NA,NA,NA,NA,NA,NA,NA,NA,NA
44a53,shallow,flow.Sequence,3_0_3_0_4_1,NA,NA,skipped,NA,1972829.7,NA,NA,1972824.46,1972829.8,2023-12-05T14:52:11Z,1972841.126,NULL,Zuwachs,nyongeza,d,NA,NA,NA,NA,qt,NA,3,NA,NA,NA,NA,NA,NA,NA,NA,NA,NA,NA,NA,NA,NA,NA,NA,NA,NA,NA
44a53,task,flow.Sequence,3_0_3_0_4,NA,NA,completion,11933.369,1960879.8,1960874.425,1960891.091,1972824.46,1972829.9,2023-12-05T14:52:11Z,1972841.126,NULL,Zuwachs,nyongeza,d,NA,NA,NA,NA,qt,NA,3,NA,NA,NA,NA,NA,NA,NA,NA,NA,NA,NA,NA,NA,NA,NA,NA,NA,NA,NA
44a53,deep,flow.Sequence,3_0_3_0_5_0,NA,NA,skipped,NA,1972830.1,NA,NA,1972824.46,1972830.2,2023-12-05T14:52:11Z,1972841.126,NULL,Konkurrent,mshindani,s,msemaji,mvutaji,kipukusa,NA,qt,NA,3,NA,NA,NA,NA,NA,NA,NA,NA,NA,NA,NA,NA,NA,NA,NA,NA,NA,NA,NA
44a53,Shallow Question,html.Page,3_0_3_0_5_1_0,NA,NA,form submission,6459.0739999998,1972830.4,1972824.46,1972841.126,1979300.2,1979300.8,2023-12-05T14:52:18Z,1979308.073,NULL,Konkurrent,mshindani,s,msemaji,mvutaji,kipukusa,mshindani,NA,NA,3,NA,NA,NA,NA,NA,NA,NA,NA,NA,NA,NA,NA,NA,NA,NA,NA,NA,NA,NA
44a53,"""Richtig""-Screen",canvas.Screen,3_0_3_0_5_1_1,NA,NA,timeout,4999.7999999998,1979303.6,1979291.407,1979308.073,1984291.207,1984295.7,2023-12-05T14:52:23Z,1984307.873,NULL,Konkurrent,mshindani,s,msemaji,mvutaji,kipukusa,NA,qt,1,3,NA,NA,NA,NA,NA,NA,NA,NA,NA,NA,NA,NA,NA,NA,NA,NA,NA,NA,NA
44a53,"""Falsch""-Screen",canvas.Screen,3_0_3_0_5_1_2,NA,NA,skipped,NA,1984299.1,NA,NA,1984291.207,1984299.2,2023-12-05T14:52:23Z,1984307.873,NULL,Konkurrent,mshindani,s,msemaji,mvutaji,kipukusa,NA,qt,NA,3,NA,NA,NA,NA,NA,NA,NA,NA,NA,NA,NA,NA,NA,NA,NA,NA,NA,NA,NA
44a53,shallow,flow.Sequence,3_0_3_0_5_1,NA,NA,completion,11450.081,1972830.4,1972824.46,1972841.126,1984291.207,1984299.4,2023-12-05T14:52:23Z,1984307.873,NULL,Konkurrent,mshindani,s,msemaji,mvutaji,kipukusa,NA,qt,NA,3,NA,NA,NA,NA,NA,NA,NA,NA,NA,NA,NA,NA,NA,NA,NA,NA,NA,NA,NA
44a53,task,flow.Sequence,3_0_3_0_5,NA,NA,completion,11450.081,1972830.1,1972824.46,1972841.126,1984291.207,1984299.5,2023-12-05T14:52:23Z,1984307.873,NULL,Konkurrent,mshindani,s,msemaji,mvutaji,kipukusa,NA,qt,NA,3,NA,NA,NA,NA,NA,NA,NA,NA,NA,NA,NA,NA,NA,NA,NA,NA,NA,NA,NA
44a53,deep,flow.Sequence,3_0_3_0_6_0,NA,NA,skipped,NA,1984299.6,NA,NA,1984291.207,1984299.7,2023-12-05T14:52:23Z,1984307.873,NULL,Lawine,banguko,s,maambukizi,usuluhishi,chekechea,NA,qt,NA,3,NA,NA,NA,NA,NA,NA,NA,NA,NA,NA,NA,NA,NA,NA,NA,NA,NA,NA,NA
44a53,Shallow Question,html.Page,3_0_3_0_6_1_0,NA,NA,form submission,4491.9270000004,1984299.8,1984291.207,1984307.873,1988799.8,1988800.2,2023-12-05T14:52:27Z,1988808.309,NULL,Lawine,banguko,s,maambukizi,usuluhishi,chekechea,banguko,NA,NA,3,NA,NA,NA,NA,NA,NA,NA,NA,NA,NA,NA,NA,NA,NA,NA,NA,NA,NA,NA
44a53,"""Richtig""-Screen",canvas.Screen,3_0_3_0_6_1_1,NA,NA,timeout,4999.8,1988803.3,1988791.643,1988808.309,1993791.443,1993795.6,2023-12-05T14:52:32Z,1993808.109,NULL,Lawine,banguko,s,maambukizi,usuluhishi,chekechea,NA,qt,1,3,NA,NA,NA,NA,NA,NA,NA,NA,NA,NA,NA,NA,NA,NA,NA,NA,NA,NA,NA
44a53,"""Falsch""-Screen",canvas.Screen,3_0_3_0_6_1_2,NA,NA,skipped,NA,1993799,NA,NA,1993791.443,1993799.1,2023-12-05T14:52:32Z,1993808.109,NULL,Lawine,banguko,s,maambukizi,usuluhishi,chekechea,NA,qt,NA,3,NA,NA,NA,NA,NA,NA,NA,NA,NA,NA,NA,NA,NA,NA,NA,NA,NA,NA,NA
44a53,shallow,flow.Sequence,3_0_3_0_6_1,NA,NA,completion,9483.5700000001,1984299.8,1984291.207,1984307.873,1993791.443,1993799.3,2023-12-05T14:52:32Z,1993808.109,NULL,Lawine,banguko,s,maambukizi,usuluhishi,chekechea,NA,qt,NA,3,NA,NA,NA,NA,NA,NA,NA,NA,NA,NA,NA,NA,NA,NA,NA,NA,NA,NA,NA
44a53,task,flow.Sequence,3_0_3_0_6,NA,NA,completion,9483.5700000001,1984299.6,1984291.207,1984307.873,1993791.443,1993799.4,2023-12-05T14:52:32Z,1993808.109,NULL,Lawine,banguko,s,maambukizi,usuluhishi,chekechea,NA,qt,NA,3,NA,NA,NA,NA,NA,NA,NA,NA,NA,NA,NA,NA,NA,NA,NA,NA,NA,NA,NA
44a53,Deep Question,html.Page,3_0_3_0_7_0_0,NA,NA,form submission,15373.791,1993799.4,1993791.443,1993808.109,2009181.9,2009182.1,2023-12-05T14:52:48Z,2009192.021,NULL,Körper,kiwiliwili,d,NA,NA,NA,kaliwiwi,NA,NA,3,NA,NA,NA,NA,NA,NA,NA,NA,NA,NA,NA,NA,NA,NA,NA,NA,NA,NA,NA
44a53,"""Richtig""-Screen",canvas.Screen,3_0_3_0_7_0_1,NA,NA,skipped,NA,2009184.7,NA,NA,2009181.9,2009184.8,2023-12-05T14:52:48Z,2009192.021,NULL,Körper,kiwiliwili,d,NA,NA,NA,NA,qt,NA,3,NA,NA,NA,NA,NA,NA,NA,NA,NA,NA,NA,NA,NA,NA,NA,NA,NA,NA,NA
44a53,"""Falsch""-Screen",canvas.Screen,3_0_3_0_7_0_2,NA,NA,timeout,4999.8,2009185.4,2009175.355,2009192.021,2014175.155,2014179.8,2023-12-05T14:52:53Z,2014191.821,NULL,Körper,kiwiliwili,d,NA,NA,NA,NA,qt,0,3,NA,NA,NA,NA,NA,NA,NA,NA,NA,NA,NA,NA,NA,NA,NA,NA,NA,NA,NA
44a53,deep,flow.Sequence,3_0_3_0_7_0,NA,NA,completion,20367.046,1993799.4,1993791.443,1993808.109,2014175.155,2014180.2,2023-12-05T14:52:53Z,2014191.821,NULL,Körper,kiwiliwili,d,NA,NA,NA,NA,qt,NA,3,NA,NA,NA,NA,NA,NA,NA,NA,NA,NA,NA,NA,NA,NA,NA,NA,NA,NA,NA
44a53,shallow,flow.Sequence,3_0_3_0_7_1,NA,NA,skipped,NA,2014180.3,NA,NA,2014175.155,2014180.4,2023-12-05T14:52:53Z,2014191.821,NULL,Körper,kiwiliwili,d,NA,NA,NA,NA,qt,NA,3,NA,NA,NA,NA,NA,NA,NA,NA,NA,NA,NA,NA,NA,NA,NA,NA,NA,NA,NA
44a53,task,flow.Sequence,3_0_3_0_7,NA,NA,completion,20367.046,1993799.4,1993791.443,1993808.109,2014175.155,2014180.7,2023-12-05T14:52:53Z,2014191.821,NULL,Körper,kiwiliwili,d,NA,NA,NA,NA,qt,NA,3,NA,NA,NA,NA,NA,NA,NA,NA,NA,NA,NA,NA,NA,NA,NA,NA,NA,NA,NA
44a53,block,flow.Loop,3_0_3_0,NA,NA,completion,103201.753,1910975.2,1910940.07,1910973.402,2014175.155,2014180.8,2023-12-05T14:52:53Z,2014191.821,NULL,NA,NA,NA,NA,NA,NA,NA,qt,NA,3,NA,NA,NA,NA,NA,NA,NA,NA,NA,NA,NA,NA,NA,NA,NA,NA,NA,NA,NA
44a53,weiter,canvas.Screen,3_0_3_1,sdf,keypress(Space),response,1647.1790000005,2014180.9,2014175.155,2014191.821,2015839,2015845.1,2023-12-05T14:52:54Z,2015858.421,NULL,NA,NA,NA,NA,NA,NA,NA,qt,NA,3,NA,NA,NA,NA,NA,NA,NA,NA,NA,NA,NA,NA,NA,NA,NA,NA,NA,NA,NA
44a53,check continue,flow.Sequence,3_0_3,NA,NA,completion,104865.598,1910975.2,1910940.07,1910973.402,2015839,2015845.3,2023-12-05T14:52:54Z,2015858.421,NULL,NA,NA,NA,NA,NA,NA,NA,qt,NA,3,NA,NA,NA,NA,NA,NA,NA,NA,NA,NA,NA,NA,NA,NA,NA,NA,NA,NA,NA
44a53,deep,flow.Sequence,3_0_4_0_0_0,NA,NA,skipped,NA,2015868.9,NA,NA,2015839,2015869,2023-12-05T14:52:54Z,2015858.421,NULL,System,maongozi,s,chokochoko,nuksani,mitaani,NA,sd,NA,4,NA,NA,NA,NA,NA,NA,NA,NA,NA,NA,NA,NA,NA,NA,NA,NA,NA,NA,NA
44a53,Shallow Question,html.Page,3_0_4_0_0_1_0,NA,NA,form submission,5458.4789999998,2015869.1,2015841.755,2015858.421,2021316.9,2021317.3,2023-12-05T14:53:00Z,2021325.338,NULL,System,maongozi,s,chokochoko,nuksani,mitaani,maongozi,NA,NA,4,NA,NA,NA,NA,NA,NA,NA,NA,NA,NA,NA,NA,NA,NA,NA,NA,NA,NA,NA
44a53,"""Richtig""-Screen",canvas.Screen,3_0_4_0_0_1_1,NA,NA,timeout,5000.2,2021320,2021308.672,2021325.338,2026308.872,2026313.8,2023-12-05T14:53:05Z,2026325.538,NULL,System,maongozi,s,chokochoko,nuksani,mitaani,NA,sd,1,4,NA,NA,NA,NA,NA,NA,NA,NA,NA,NA,NA,NA,NA,NA,NA,NA,NA,NA,NA
44a53,"""Falsch""-Screen",canvas.Screen,3_0_4_0_0_1_2,NA,NA,skipped,NA,2026318.3,NA,NA,2026308.872,2026318.5,2023-12-05T14:53:05Z,2026325.538,NULL,System,maongozi,s,chokochoko,nuksani,mitaani,NA,sd,NA,4,NA,NA,NA,NA,NA,NA,NA,NA,NA,NA,NA,NA,NA,NA,NA,NA,NA,NA,NA
44a53,shallow,flow.Sequence,3_0_4_0_0_1,NA,NA,completion,10450.451,2015869.1,2015841.755,2015858.421,2026308.872,2026318.7,2023-12-05T14:53:05Z,2026325.538,NULL,System,maongozi,s,chokochoko,nuksani,mitaani,NA,sd,NA,4,NA,NA,NA,NA,NA,NA,NA,NA,NA,NA,NA,NA,NA,NA,NA,NA,NA,NA,NA
44a53,task,flow.Sequence,3_0_4_0_0,NA,NA,completion,10450.451,2015868.9,2015841.755,2015858.421,2026308.872,2026318.8,2023-12-05T14:53:05Z,2026325.538,NULL,System,maongozi,s,chokochoko,nuksani,mitaani,NA,sd,NA,4,NA,NA,NA,NA,NA,NA,NA,NA,NA,NA,NA,NA,NA,NA,NA,NA,NA,NA,NA
44a53,deep,flow.Sequence,3_0_4_0_1_0,NA,NA,skipped,NA,2026318.8,NA,NA,2026308.872,2026318.9,2023-12-05T14:53:05Z,2026325.538,NULL,Vorsorge,tahadhari,s,ufafanuzi,makini,mashambani,NA,sd,NA,4,NA,NA,NA,NA,NA,NA,NA,NA,NA,NA,NA,NA,NA,NA,NA,NA,NA,NA,NA
44a53,Shallow Question,html.Page,3_0_4_0_1_1_0,NA,NA,form submission,4241.2620000003,2026319,2026308.872,2026325.538,2030566.8,2030567.2,2023-12-05T14:53:09Z,2030575.368,NULL,Vorsorge,tahadhari,s,ufafanuzi,makini,mashambani,mashambani,NA,NA,4,NA,NA,NA,NA,NA,NA,NA,NA,NA,NA,NA,NA,NA,NA,NA,NA,NA,NA,NA
44a53,"""Richtig""-Screen",canvas.Screen,3_0_4_0_1_1_1,NA,NA,skipped,NA,2030569.8,NA,NA,2030566.8,2030569.9,2023-12-05T14:53:09Z,2030575.368,NULL,Vorsorge,tahadhari,s,ufafanuzi,makini,mashambani,NA,sd,NA,4,NA,NA,NA,NA,NA,NA,NA,NA,NA,NA,NA,NA,NA,NA,NA,NA,NA,NA,NA
44a53,"""Falsch""-Screen",canvas.Screen,3_0_4_0_1_1_2,NA,NA,timeout,4999.8,2030570.5,2030558.702,2030575.368,2035558.502,2035562.1,2023-12-05T14:53:14Z,2035575.168,NULL,Vorsorge,tahadhari,s,ufafanuzi,makini,mashambani,NA,sd,0,4,NA,NA,NA,NA,NA,NA,NA,NA,NA,NA,NA,NA,NA,NA,NA,NA,NA,NA,NA
44a53,shallow,flow.Sequence,3_0_4_0_1_1,NA,NA,completion,9232.9640000002,2026319,2026308.872,2026325.538,2035558.502,2035562.6,2023-12-05T14:53:14Z,2035575.168,NULL,Vorsorge,tahadhari,s,ufafanuzi,makini,mashambani,NA,sd,NA,4,NA,NA,NA,NA,NA,NA,NA,NA,NA,NA,NA,NA,NA,NA,NA,NA,NA,NA,NA
44a53,task,flow.Sequence,3_0_4_0_1,NA,NA,completion,9232.9640000002,2026318.8,2026308.872,2026325.538,2035558.502,2035562.8,2023-12-05T14:53:14Z,2035575.168,NULL,Vorsorge,tahadhari,s,ufafanuzi,makini,mashambani,NA,sd,NA,4,NA,NA,NA,NA,NA,NA,NA,NA,NA,NA,NA,NA,NA,NA,NA,NA,NA,NA,NA
44a53,deep,flow.Sequence,3_0_4_0_2_0,NA,NA,skipped,NA,2035563,NA,NA,2035558.502,2035563.1,2023-12-05T14:53:14Z,2035575.168,NULL,Konkurrent,mshindani,s,msemaji,mvutaji,kipukusa,NA,sd,NA,4,NA,NA,NA,NA,NA,NA,NA,NA,NA,NA,NA,NA,NA,NA,NA,NA,NA,NA,NA
44a53,Shallow Question,html.Page,3_0_4_0_2_1_0,NA,NA,form submission,6474.932,2035563.3,2035558.502,2035575.168,2042050.1,2042050.5,2023-12-05T14:53:21Z,2042058.922,NULL,Konkurrent,mshindani,s,msemaji,mvutaji,kipukusa,mshindani,NA,NA,4,NA,NA,NA,NA,NA,NA,NA,NA,NA,NA,NA,NA,NA,NA,NA,NA,NA,NA,NA
44a53,"""Richtig""-Screen",canvas.Screen,3_0_4_0_2_1_1,NA,NA,timeout,5000.4210000001,2042053.1,2042042.256,2042058.922,2047042.677,2047044.3,2023-12-05T14:53:26Z,2047059.343,NULL,Konkurrent,mshindani,s,msemaji,mvutaji,kipukusa,NA,sd,1,4,NA,NA,NA,NA,NA,NA,NA,NA,NA,NA,NA,NA,NA,NA,NA,NA,NA,NA,NA
44a53,"""Falsch""-Screen",canvas.Screen,3_0_4_0_2_1_2,NA,NA,skipped,NA,2047048.3,NA,NA,2047042.677,2047048.4,2023-12-05T14:53:26Z,2047059.343,NULL,Konkurrent,mshindani,s,msemaji,mvutaji,kipukusa,NA,sd,NA,4,NA,NA,NA,NA,NA,NA,NA,NA,NA,NA,NA,NA,NA,NA,NA,NA,NA,NA,NA
44a53,shallow,flow.Sequence,3_0_4_0_2_1,NA,NA,completion,11467.509,2035563.2,2035558.502,2035575.168,2047042.677,2047048.6,2023-12-05T14:53:26Z,2047059.343,NULL,Konkurrent,mshindani,s,msemaji,mvutaji,kipukusa,NA,sd,NA,4,NA,NA,NA,NA,NA,NA,NA,NA,NA,NA,NA,NA,NA,NA,NA,NA,NA,NA,NA
44a53,task,flow.Sequence,3_0_4_0_2,NA,NA,completion,11467.509,2035562.9,2035558.502,2035575.168,2047042.677,2047048.6,2023-12-05T14:53:26Z,2047059.343,NULL,Konkurrent,mshindani,s,msemaji,mvutaji,kipukusa,NA,sd,NA,4,NA,NA,NA,NA,NA,NA,NA,NA,NA,NA,NA,NA,NA,NA,NA,NA,NA,NA,NA
44a53,Deep Question,html.Page,3_0_4_0_3_0_0,NA,NA,form submission,6624.6570000004,2047048.8,2047042.677,2047059.343,2053684,2053684.2,2023-12-05T14:53:32Z,2053692.411,NULL,Symbol,kielezo,d,NA,NA,NA,k,NA,NA,4,NA,NA,NA,NA,NA,NA,NA,NA,NA,NA,NA,NA,NA,NA,NA,NA,NA,NA,NA
44a53,"""Richtig""-Screen",canvas.Screen,3_0_4_0_3_0_1,NA,NA,skipped,NA,2053686.1,NA,NA,2053684,2053686.2,2023-12-05T14:53:32Z,2053692.411,NULL,Symbol,kielezo,d,NA,NA,NA,NA,sd,NA,4,NA,NA,NA,NA,NA,NA,NA,NA,NA,NA,NA,NA,NA,NA,NA,NA,NA,NA,NA
44a53,"""Falsch""-Screen",canvas.Screen,3_0_4_0_3_0_2,NA,NA,timeout,5000.1749999998,2053687.3,2053675.745,2053692.411,2058675.92,2058680.2,2023-12-05T14:53:37Z,2058692.586,NULL,Symbol,kielezo,d,NA,NA,NA,NA,sd,0,4,NA,NA,NA,NA,NA,NA,NA,NA,NA,NA,NA,NA,NA,NA,NA,NA,NA,NA,NA
44a53,deep,flow.Sequence,3_0_4_0_3_0,NA,NA,completion,11616.577,2047048.8,2047042.677,2047059.343,2058675.92,2058680.7,2023-12-05T14:53:37Z,2058692.586,NULL,Symbol,kielezo,d,NA,NA,NA,NA,sd,NA,4,NA,NA,NA,NA,NA,NA,NA,NA,NA,NA,NA,NA,NA,NA,NA,NA,NA,NA,NA
44a53,shallow,flow.Sequence,3_0_4_0_3_1,NA,NA,skipped,NA,2058680.8,NA,NA,2058675.92,2058680.9,2023-12-05T14:53:37Z,2058692.586,NULL,Symbol,kielezo,d,NA,NA,NA,NA,sd,NA,4,NA,NA,NA,NA,NA,NA,NA,NA,NA,NA,NA,NA,NA,NA,NA,NA,NA,NA,NA
44a53,task,flow.Sequence,3_0_4_0_3,NA,NA,completion,11616.577,2047048.7,2047042.677,2047059.343,2058675.92,2058681.1,2023-12-05T14:53:37Z,2058692.586,NULL,Symbol,kielezo,d,NA,NA,NA,NA,sd,NA,4,NA,NA,NA,NA,NA,NA,NA,NA,NA,NA,NA,NA,NA,NA,NA,NA,NA,NA,NA
44a53,deep,flow.Sequence,3_0_4_0_4_0,NA,NA,skipped,NA,2058681.2,NA,NA,2058675.92,2058681.3,2023-12-05T14:53:37Z,2058692.586,NULL,Lawine,banguko,s,maambukizi,usuluhishi,chekechea,NA,sd,NA,4,NA,NA,NA,NA,NA,NA,NA,NA,NA,NA,NA,NA,NA,NA,NA,NA,NA,NA,NA
44a53,Shallow Question,html.Page,3_0_4_0_4_1_0,NA,NA,form submission,4242.314,2058681.5,2058675.92,2058692.586,2062934.9,2062935.3,2023-12-05T14:53:41Z,2062942.416,NULL,Lawine,banguko,s,maambukizi,usuluhishi,chekechea,banguko,NA,NA,4,NA,NA,NA,NA,NA,NA,NA,NA,NA,NA,NA,NA,NA,NA,NA,NA,NA,NA,NA
44a53,"""Richtig""-Screen",canvas.Screen,3_0_4_0_4_1_1,NA,NA,timeout,4999.8,2062937.9,2062925.75,2062942.416,2067925.55,2067929.8,2023-12-05T14:53:46Z,2067942.216,NULL,Lawine,banguko,s,maambukizi,usuluhishi,chekechea,NA,sd,1,4,NA,NA,NA,NA,NA,NA,NA,NA,NA,NA,NA,NA,NA,NA,NA,NA,NA,NA,NA
44a53,"""Falsch""-Screen",canvas.Screen,3_0_4_0_4_1_2,NA,NA,skipped,NA,2067933.8,NA,NA,2067925.55,2067934.1,2023-12-05T14:53:46Z,2067942.216,NULL,Lawine,banguko,s,maambukizi,usuluhishi,chekechea,NA,sd,NA,4,NA,NA,NA,NA,NA,NA,NA,NA,NA,NA,NA,NA,NA,NA,NA,NA,NA,NA,NA
44a53,shallow,flow.Sequence,3_0_4_0_4_1,NA,NA,completion,9232.9640000002,2058681.4,2058675.92,2058692.586,2067925.55,2067934.2,2023-12-05T14:53:46Z,2067942.216,NULL,Lawine,banguko,s,maambukizi,usuluhishi,chekechea,NA,sd,NA,4,NA,NA,NA,NA,NA,NA,NA,NA,NA,NA,NA,NA,NA,NA,NA,NA,NA,NA,NA
44a53,task,flow.Sequence,3_0_4_0_4,NA,NA,completion,9232.9640000002,2058681.2,2058675.92,2058692.586,2067925.55,2067934.3,2023-12-05T14:53:46Z,2067942.216,NULL,Lawine,banguko,s,maambukizi,usuluhishi,chekechea,NA,sd,NA,4,NA,NA,NA,NA,NA,NA,NA,NA,NA,NA,NA,NA,NA,NA,NA,NA,NA,NA,NA
44a53,Deep Question,html.Page,3_0_4_0_5_0_0,NA,NA,form submission,11324.184,2067934.5,2067925.55,2067942.216,2079266.4,2079266.6,2023-12-05T14:53:58Z,2079276.617,NULL,Übersicht,kilindo,d,NA,NA,NA,kielezo,NA,NA,4,NA,NA,NA,NA,NA,NA,NA,NA,NA,NA,NA,NA,NA,NA,NA,NA,NA,NA,NA
44a53,"""Richtig""-Screen",canvas.Screen,3_0_4_0_5_0_1,NA,NA,skipped,NA,2079268.6,NA,NA,2079266.4,2079268.7,2023-12-05T14:53:58Z,2079276.617,NULL,Übersicht,kilindo,d,NA,NA,NA,NA,sd,NA,4,NA,NA,NA,NA,NA,NA,NA,NA,NA,NA,NA,NA,NA,NA,NA,NA,NA,NA,NA
44a53,"""Falsch""-Screen",canvas.Screen,3_0_4_0_5_0_2,NA,NA,timeout,4999.7999999998,2079269.1,2079259.951,2079276.617,2084259.751,2084264.7,2023-12-05T14:54:03Z,2084276.417,NULL,Übersicht,kilindo,d,NA,NA,NA,NA,sd,0,4,NA,NA,NA,NA,NA,NA,NA,NA,NA,NA,NA,NA,NA,NA,NA,NA,NA,NA,NA
44a53,deep,flow.Sequence,3_0_4_0_5_0,NA,NA,completion,16317.535,2067934.5,2067925.55,2067942.216,2084259.751,2084265.2,2023-12-05T14:54:03Z,2084276.417,NULL,Übersicht,kilindo,d,NA,NA,NA,NA,sd,NA,4,NA,NA,NA,NA,NA,NA,NA,NA,NA,NA,NA,NA,NA,NA,NA,NA,NA,NA,NA
44a53,shallow,flow.Sequence,3_0_4_0_5_1,NA,NA,skipped,NA,2084265.3,NA,NA,2084259.751,2084265.4,2023-12-05T14:54:03Z,2084276.417,NULL,Übersicht,kilindo,d,NA,NA,NA,NA,sd,NA,4,NA,NA,NA,NA,NA,NA,NA,NA,NA,NA,NA,NA,NA,NA,NA,NA,NA,NA,NA
44a53,task,flow.Sequence,3_0_4_0_5,NA,NA,completion,16317.535,2067934.5,2067925.55,2067942.216,2084259.751,2084265.6,2023-12-05T14:54:03Z,2084276.417,NULL,Übersicht,kilindo,d,NA,NA,NA,NA,sd,NA,4,NA,NA,NA,NA,NA,NA,NA,NA,NA,NA,NA,NA,NA,NA,NA,NA,NA,NA,NA
44a53,Deep Question,html.Page,3_0_4_0_6_0_0,NA,NA,form submission,12941.883,2084265.8,2084259.751,2084276.417,2097218.3,2097218.7,2023-12-05T14:54:16Z,2097226.472,NULL,Zuwachs,nyongeza,d,NA,NA,NA,nyonzeke,NA,NA,4,NA,NA,NA,NA,NA,NA,NA,NA,NA,NA,NA,NA,NA,NA,NA,NA,NA,NA,NA
44a53,"""Richtig""-Screen",canvas.Screen,3_0_4_0_6_0_1,NA,NA,skipped,NA,2097222.7,NA,NA,2097218.3,2097222.9,2023-12-05T14:54:16Z,2097226.472,NULL,Zuwachs,nyongeza,d,NA,NA,NA,NA,sd,NA,4,NA,NA,NA,NA,NA,NA,NA,NA,NA,NA,NA,NA,NA,NA,NA,NA,NA,NA,NA
44a53,"""Falsch""-Screen",canvas.Screen,3_0_4_0_6_0_2,NA,NA,timeout,5000.253,2097223.8,2097209.806,2097226.472,2102210.059,2102212.7,2023-12-05T14:54:21Z,2102226.725,NULL,Zuwachs,nyongeza,d,NA,NA,NA,NA,sd,0,4,NA,NA,NA,NA,NA,NA,NA,NA,NA,NA,NA,NA,NA,NA,NA,NA,NA,NA,NA
44a53,deep,flow.Sequence,3_0_4_0_6_0,NA,NA,completion,17933.642,2084265.7,2084259.751,2084276.417,2102210.059,2102213.1,2023-12-05T14:54:21Z,2102226.725,NULL,Zuwachs,nyongeza,d,NA,NA,NA,NA,sd,NA,4,NA,NA,NA,NA,NA,NA,NA,NA,NA,NA,NA,NA,NA,NA,NA,NA,NA,NA,NA
44a53,shallow,flow.Sequence,3_0_4_0_6_1,NA,NA,skipped,NA,2102213.2,NA,NA,2102210.059,2102213.4,2023-12-05T14:54:21Z,2102226.725,NULL,Zuwachs,nyongeza,d,NA,NA,NA,NA,sd,NA,4,NA,NA,NA,NA,NA,NA,NA,NA,NA,NA,NA,NA,NA,NA,NA,NA,NA,NA,NA
44a53,task,flow.Sequence,3_0_4_0_6,NA,NA,completion,17933.642,2084265.7,2084259.751,2084276.417,2102210.059,2102213.5,2023-12-05T14:54:21Z,2102226.725,NULL,Zuwachs,nyongeza,d,NA,NA,NA,NA,sd,NA,4,NA,NA,NA,NA,NA,NA,NA,NA,NA,NA,NA,NA,NA,NA,NA,NA,NA,NA,NA
44a53,Deep Question,html.Page,3_0_4_0_7_0_0,NA,NA,form submission,13223.475,2102213.7,2102210.059,2102226.725,2115450.2,2115450.4,2023-12-05T14:54:34Z,2115460.358,NULL,Körper,kiwiliwili,d,NA,NA,NA,kiwiliwili,NA,NA,4,NA,NA,NA,NA,NA,NA,NA,NA,NA,NA,NA,NA,NA,NA,NA,NA,NA,NA,NA
44a53,"""Richtig""-Screen",canvas.Screen,3_0_4_0_7_0_1,NA,NA,timeout,4999.7999999998,2115452.6,2115443.692,2115460.358,2120443.492,2120447.4,2023-12-05T14:54:39Z,2120460.158,NULL,Körper,kiwiliwili,d,NA,NA,NA,NA,sd,1,4,NA,NA,NA,NA,NA,NA,NA,NA,NA,NA,NA,NA,NA,NA,NA,NA,NA,NA,NA
44a53,"""Falsch""-Screen",canvas.Screen,3_0_4_0_7_0_2,NA,NA,skipped,NA,2120451.9,NA,NA,2120443.492,2120452.2,2023-12-05T14:54:39Z,2120460.158,NULL,Körper,kiwiliwili,d,NA,NA,NA,NA,sd,NA,4,NA,NA,NA,NA,NA,NA,NA,NA,NA,NA,NA,NA,NA,NA,NA,NA,NA,NA,NA
44a53,deep,flow.Sequence,3_0_4_0_7_0,NA,NA,completion,18216.767,2102213.6,2102210.059,2102226.725,2120443.492,2120452.3,2023-12-05T14:54:39Z,2120460.158,NULL,Körper,kiwiliwili,d,NA,NA,NA,NA,sd,NA,4,NA,NA,NA,NA,NA,NA,NA,NA,NA,NA,NA,NA,NA,NA,NA,NA,NA,NA,NA
44a53,shallow,flow.Sequence,3_0_4_0_7_1,NA,NA,skipped,NA,2120452.4,NA,NA,2120443.492,2120452.5,2023-12-05T14:54:39Z,2120460.158,NULL,Körper,kiwiliwili,d,NA,NA,NA,NA,sd,NA,4,NA,NA,NA,NA,NA,NA,NA,NA,NA,NA,NA,NA,NA,NA,NA,NA,NA,NA,NA
44a53,task,flow.Sequence,3_0_4_0_7,NA,NA,completion,18216.767,2102213.6,2102210.059,2102226.725,2120443.492,2120452.6,2023-12-05T14:54:39Z,2120460.158,NULL,Körper,kiwiliwili,d,NA,NA,NA,NA,sd,NA,4,NA,NA,NA,NA,NA,NA,NA,NA,NA,NA,NA,NA,NA,NA,NA,NA,NA,NA,NA
44a53,block,flow.Loop,3_0_4_0,NA,NA,completion,104585.071,2015868.9,2015841.755,2015858.421,2120443.492,2120452.7,2023-12-05T14:54:39Z,2120460.158,NULL,NA,NA,NA,NA,NA,NA,NA,sd,NA,4,NA,NA,NA,NA,NA,NA,NA,NA,NA,NA,NA,NA,NA,NA,NA,NA,NA,NA,NA
44a53,weiter,canvas.Screen,3_0_4_1,sdf,keypress(Space),response,1185.3420000006,2120452.7,2120443.492,2120460.158,2121645.5,2121651.6,2023-12-05T14:54:40Z,2121676.776,NULL,NA,NA,NA,NA,NA,NA,NA,sd,NA,4,NA,NA,NA,NA,NA,NA,NA,NA,NA,NA,NA,NA,NA,NA,NA,NA,NA,NA,NA
44a53,check continue,flow.Sequence,3_0_4,NA,NA,completion,105787.079,2015868.8,2015841.755,2015858.421,2121645.5,2121652.1,2023-12-05T14:54:40Z,2121676.776,NULL,NA,NA,NA,NA,NA,NA,NA,sd,NA,4,NA,NA,NA,NA,NA,NA,NA,NA,NA,NA,NA,NA,NA,NA,NA,NA,NA,NA,NA
44a53,deep,flow.Sequence,3_0_5_0_0_0,NA,NA,skipped,NA,2121676.7,NA,NA,2121645.5,2121676.8,2023-12-05T14:54:40Z,2121676.776,NULL,Lawine,banguko,s,maambukizi,usuluhishi,chekechea,NA,sdf,NA,5,NA,NA,NA,NA,NA,NA,NA,NA,NA,NA,NA,NA,NA,NA,NA,NA,NA,NA,NA
44a53,Shallow Question,html.Page,3_0_5_0_0_1_0,NA,NA,form submission,3642.2240000004,2121676.9,2121643.444,2121676.776,2125319,2125319.4,2023-12-05T14:54:44Z,2125327.161,NULL,Lawine,banguko,s,maambukizi,usuluhishi,chekechea,banguko,NA,NA,5,NA,NA,NA,NA,NA,NA,NA,NA,NA,NA,NA,NA,NA,NA,NA,NA,NA,NA,NA
44a53,"""Richtig""-Screen",canvas.Screen,3_0_5_0_0_1_1,NA,NA,timeout,4999.8000000003,2125320.5,2125310.495,2125327.161,2130310.295,2130314.2,2023-12-05T14:54:49Z,2130326.961,NULL,Lawine,banguko,s,maambukizi,usuluhishi,chekechea,NA,sdf,1,5,NA,NA,NA,NA,NA,NA,NA,NA,NA,NA,NA,NA,NA,NA,NA,NA,NA,NA,NA
44a53,"""Falsch""-Screen",canvas.Screen,3_0_5_0_0_1_2,NA,NA,skipped,NA,2130318.6,NA,NA,2130310.295,2130318.8,2023-12-05T14:54:49Z,2130326.961,NULL,Lawine,banguko,s,maambukizi,usuluhishi,chekechea,NA,sdf,NA,5,NA,NA,NA,NA,NA,NA,NA,NA,NA,NA,NA,NA,NA,NA,NA,NA,NA,NA,NA
44a53,shallow,flow.Sequence,3_0_5_0_0_1,NA,NA,completion,8633.5189999999,2121676.9,2121643.444,2121676.776,2130310.295,2130319,2023-12-05T14:54:49Z,2130326.961,NULL,Lawine,banguko,s,maambukizi,usuluhishi,chekechea,NA,sdf,NA,5,NA,NA,NA,NA,NA,NA,NA,NA,NA,NA,NA,NA,NA,NA,NA,NA,NA,NA,NA
44a53,task,flow.Sequence,3_0_5_0_0,NA,NA,completion,8633.5189999999,2121676.7,2121643.444,2121676.776,2130310.295,2130319.1,2023-12-05T14:54:49Z,2130326.961,NULL,Lawine,banguko,s,maambukizi,usuluhishi,chekechea,NA,sdf,NA,5,NA,NA,NA,NA,NA,NA,NA,NA,NA,NA,NA,NA,NA,NA,NA,NA,NA,NA,NA
44a53,Deep Question,html.Page,3_0_5_0_1_0_0,NA,NA,form submission,19040.539,2130319.2,2130310.295,2130326.961,2149367.5,2149367.6,2023-12-05T14:55:08Z,2149377.322,NULL,Körper,kiwiliwili,d,NA,NA,NA,kienlo,NA,NA,5,NA,NA,NA,NA,NA,NA,NA,NA,NA,NA,NA,NA,NA,NA,NA,NA,NA,NA,NA
44a53,"""Richtig""-Screen",canvas.Screen,3_0_5_0_1_0_1,NA,NA,skipped,NA,2149370.2,NA,NA,2149367.5,2149370.3,2023-12-05T14:55:08Z,2149377.322,NULL,Körper,kiwiliwili,d,NA,NA,NA,NA,sdf,NA,5,NA,NA,NA,NA,NA,NA,NA,NA,NA,NA,NA,NA,NA,NA,NA,NA,NA,NA,NA
44a53,"""Falsch""-Screen",canvas.Screen,3_0_5_0_1_0_2,NA,NA,timeout,5000.48,2149370.7,2149360.656,2149377.322,2154361.136,2154365.3,2023-12-05T14:55:13Z,2154377.802,NULL,Körper,kiwiliwili,d,NA,NA,NA,NA,sdf,0,5,NA,NA,NA,NA,NA,NA,NA,NA,NA,NA,NA,NA,NA,NA,NA,NA,NA,NA,NA
44a53,deep,flow.Sequence,3_0_5_0_1_0,NA,NA,completion,24034.175,2130319.2,2130310.295,2130326.961,2154361.136,2154365.6,2023-12-05T14:55:13Z,2154377.802,NULL,Körper,kiwiliwili,d,NA,NA,NA,NA,sdf,NA,5,NA,NA,NA,NA,NA,NA,NA,NA,NA,NA,NA,NA,NA,NA,NA,NA,NA,NA,NA
44a53,shallow,flow.Sequence,3_0_5_0_1_1,NA,NA,skipped,NA,2154365.7,NA,NA,2154361.136,2154365.7,2023-12-05T14:55:13Z,2154377.802,NULL,Körper,kiwiliwili,d,NA,NA,NA,NA,sdf,NA,5,NA,NA,NA,NA,NA,NA,NA,NA,NA,NA,NA,NA,NA,NA,NA,NA,NA,NA,NA
44a53,task,flow.Sequence,3_0_5_0_1,NA,NA,completion,24034.175,2130319.2,2130310.295,2130326.961,2154361.136,2154365.8,2023-12-05T14:55:13Z,2154377.802,NULL,Körper,kiwiliwili,d,NA,NA,NA,NA,sdf,NA,5,NA,NA,NA,NA,NA,NA,NA,NA,NA,NA,NA,NA,NA,NA,NA,NA,NA,NA,NA
44a53,deep,flow.Sequence,3_0_5_0_2_0,NA,NA,skipped,NA,2154365.9,NA,NA,2154361.136,2154366.1,2023-12-05T14:55:13Z,2154377.802,NULL,Vorsorge,tahadhari,s,ufafanuzi,makini,mashambani,NA,sdf,NA,5,NA,NA,NA,NA,NA,NA,NA,NA,NA,NA,NA,NA,NA,NA,NA,NA,NA,NA,NA
44a53,Shallow Question,html.Page,3_0_5_0_2_1_0,NA,NA,form submission,8557.9980000001,2154366.2,2154361.136,2154377.802,2162935.8,2162936.2,2023-12-05T14:55:21Z,2162944.126,NULL,Vorsorge,tahadhari,s,ufafanuzi,makini,mashambani,tahadhari,NA,NA,5,NA,NA,NA,NA,NA,NA,NA,NA,NA,NA,NA,NA,NA,NA,NA,NA,NA,NA,NA
44a53,"""Richtig""-Screen",canvas.Screen,3_0_5_0_2_1_1,NA,NA,timeout,5000.517,2162938.5,2162927.46,2162944.126,2167927.977,2167933.2,2023-12-05T14:55:26Z,2167944.643,NULL,Vorsorge,tahadhari,s,ufafanuzi,makini,mashambani,NA,sdf,1,5,NA,NA,NA,NA,NA,NA,NA,NA,NA,NA,NA,NA,NA,NA,NA,NA,NA,NA,NA
44a53,"""Falsch""-Screen",canvas.Screen,3_0_5_0_2_1_2,NA,NA,skipped,NA,2167936.8,NA,NA,2167927.977,2167936.9,2023-12-05T14:55:26Z,2167944.643,NULL,Vorsorge,tahadhari,s,ufafanuzi,makini,mashambani,NA,sdf,NA,5,NA,NA,NA,NA,NA,NA,NA,NA,NA,NA,NA,NA,NA,NA,NA,NA,NA,NA,NA
44a53,shallow,flow.Sequence,3_0_5_0_2_1,NA,NA,completion,13550.175,2154366.1,2154361.136,2154377.802,2167927.977,2167937.1,2023-12-05T14:55:26Z,2167944.643,NULL,Vorsorge,tahadhari,s,ufafanuzi,makini,mashambani,NA,sdf,NA,5,NA,NA,NA,NA,NA,NA,NA,NA,NA,NA,NA,NA,NA,NA,NA,NA,NA,NA,NA
44a53,task,flow.Sequence,3_0_5_0_2,NA,NA,completion,13550.175,2154365.9,2154361.136,2154377.802,2167927.977,2167937.2,2023-12-05T14:55:26Z,2167944.643,NULL,Vorsorge,tahadhari,s,ufafanuzi,makini,mashambani,NA,sdf,NA,5,NA,NA,NA,NA,NA,NA,NA,NA,NA,NA,NA,NA,NA,NA,NA,NA,NA,NA,NA
44a53,Deep Question,html.Page,3_0_5_0_3_0_0,NA,NA,form submission,9356.9569999999,2167937.4,2167927.977,2167944.643,2177301.6,2177301.8,2023-12-05T14:55:36Z,2177310.935,NULL,Symbol,kielezo,d,NA,NA,NA,kienlo,NA,NA,5,NA,NA,NA,NA,NA,NA,NA,NA,NA,NA,NA,NA,NA,NA,NA,NA,NA,NA,NA
44a53,"""Richtig""-Screen",canvas.Screen,3_0_5_0_3_0_1,NA,NA,skipped,NA,2177304.2,NA,NA,2177301.6,2177304.3,2023-12-05T14:55:36Z,2177310.935,NULL,Symbol,kielezo,d,NA,NA,NA,NA,sdf,NA,5,NA,NA,NA,NA,NA,NA,NA,NA,NA,NA,NA,NA,NA,NA,NA,NA,NA,NA,NA
44a53,"""Falsch""-Screen",canvas.Screen,3_0_5_0_3_0_2,NA,NA,timeout,5000.3020000001,2177304.9,2177294.269,2177310.935,2182294.571,2182299.2,2023-12-05T14:55:41Z,2182311.237,NULL,Symbol,kielezo,d,NA,NA,NA,NA,sdf,0,5,NA,NA,NA,NA,NA,NA,NA,NA,NA,NA,NA,NA,NA,NA,NA,NA,NA,NA,NA
44a53,deep,flow.Sequence,3_0_5_0_3_0,NA,NA,completion,14349.928,2167937.3,2167927.977,2167944.643,2182294.571,2182299.6,2023-12-05T14:55:41Z,2182311.237,NULL,Symbol,kielezo,d,NA,NA,NA,NA,sdf,NA,5,NA,NA,NA,NA,NA,NA,NA,NA,NA,NA,NA,NA,NA,NA,NA,NA,NA,NA,NA
44a53,shallow,flow.Sequence,3_0_5_0_3_1,NA,NA,skipped,NA,2182299.8,NA,NA,2182294.571,2182299.8,2023-12-05T14:55:41Z,2182311.237,NULL,Symbol,kielezo,d,NA,NA,NA,NA,sdf,NA,5,NA,NA,NA,NA,NA,NA,NA,NA,NA,NA,NA,NA,NA,NA,NA,NA,NA,NA,NA
44a53,task,flow.Sequence,3_0_5_0_3,NA,NA,completion,14349.928,2167937.3,2167927.977,2167944.643,2182294.571,2182300.1,2023-12-05T14:55:41Z,2182311.237,NULL,Symbol,kielezo,d,NA,NA,NA,NA,sdf,NA,5,NA,NA,NA,NA,NA,NA,NA,NA,NA,NA,NA,NA,NA,NA,NA,NA,NA,NA,NA
44a53,deep,flow.Sequence,3_0_5_0_4_0,NA,NA,skipped,NA,2182300.3,NA,NA,2182294.571,2182300.4,2023-12-05T14:55:41Z,2182311.237,NULL,System,maongozi,s,chokochoko,nuksani,mitaani,NA,sdf,NA,5,NA,NA,NA,NA,NA,NA,NA,NA,NA,NA,NA,NA,NA,NA,NA,NA,NA,NA,NA
44a53,Shallow Question,html.Page,3_0_5_0_4_1_0,NA,NA,form submission,5075.4629999995,2182300.5,2182294.571,2182311.237,2187386.7,2187387.2,2023-12-05T14:55:46Z,2187394.367,NULL,System,maongozi,s,chokochoko,nuksani,mitaani,maongozi,NA,NA,5,NA,NA,NA,NA,NA,NA,NA,NA,NA,NA,NA,NA,NA,NA,NA,NA,NA,NA,NA
44a53,"""Richtig""-Screen",canvas.Screen,3_0_5_0_4_1_1,NA,NA,timeout,5000.6979999999,2187390.3,2187377.701,2187394.367,2192378.399,2192383.3,2023-12-05T14:55:51Z,2192395.065,NULL,System,maongozi,s,chokochoko,nuksani,mitaani,NA,sdf,1,5,NA,NA,NA,NA,NA,NA,NA,NA,NA,NA,NA,NA,NA,NA,NA,NA,NA,NA,NA
44a53,"""Falsch""-Screen",canvas.Screen,3_0_5_0_4_1_2,NA,NA,skipped,NA,2192387.8,NA,NA,2192378.399,2192388,2023-12-05T14:55:51Z,2192395.065,NULL,System,maongozi,s,chokochoko,nuksani,mitaani,NA,sdf,NA,5,NA,NA,NA,NA,NA,NA,NA,NA,NA,NA,NA,NA,NA,NA,NA,NA,NA,NA,NA
44a53,shallow,flow.Sequence,3_0_5_0_4_1,NA,NA,completion,10067.162,2182300.5,2182294.571,2182311.237,2192378.399,2192388.2,2023-12-05T14:55:51Z,2192395.065,NULL,System,maongozi,s,chokochoko,nuksani,mitaani,NA,sdf,NA,5,NA,NA,NA,NA,NA,NA,NA,NA,NA,NA,NA,NA,NA,NA,NA,NA,NA,NA,NA
44a53,task,flow.Sequence,3_0_5_0_4,NA,NA,completion,10067.162,2182300.2,2182294.571,2182311.237,2192378.399,2192388.3,2023-12-05T14:55:51Z,2192395.065,NULL,System,maongozi,s,chokochoko,nuksani,mitaani,NA,sdf,NA,5,NA,NA,NA,NA,NA,NA,NA,NA,NA,NA,NA,NA,NA,NA,NA,NA,NA,NA,NA
44a53,Deep Question,html.Page,3_0_5_0_5_0_0,NA,NA,form submission,8507.2350000003,2192388.4,2192378.399,2192395.065,2200902.3,2200902.5,2023-12-05T14:55:59Z,2200911.391,NULL,Übersicht,kilindo,d,NA,NA,NA,kienlo,NA,NA,5,NA,NA,NA,NA,NA,NA,NA,NA,NA,NA,NA,NA,NA,NA,NA,NA,NA,NA,NA
44a53,"""Richtig""-Screen",canvas.Screen,3_0_5_0_5_0_1,NA,NA,skipped,NA,2200905.3,NA,NA,2200902.3,2200905.4,2023-12-05T14:55:59Z,2200911.391,NULL,Übersicht,kilindo,d,NA,NA,NA,NA,sdf,NA,5,NA,NA,NA,NA,NA,NA,NA,NA,NA,NA,NA,NA,NA,NA,NA,NA,NA,NA,NA
44a53,"""Falsch""-Screen",canvas.Screen,3_0_5_0_5_0_2,NA,NA,timeout,5000.3710000003,2200905.9,2200894.725,2200911.391,2205895.096,2205897.9,2023-12-05T14:56:04Z,2205911.762,NULL,Übersicht,kilindo,d,NA,NA,NA,NA,sdf,0,5,NA,NA,NA,NA,NA,NA,NA,NA,NA,NA,NA,NA,NA,NA,NA,NA,NA,NA,NA
44a53,deep,flow.Sequence,3_0_5_0_5_0,NA,NA,completion,13500.031,2192388.4,2192378.399,2192395.065,2205895.096,2205898.3,2023-12-05T14:56:04Z,2205911.762,NULL,Übersicht,kilindo,d,NA,NA,NA,NA,sdf,NA,5,NA,NA,NA,NA,NA,NA,NA,NA,NA,NA,NA,NA,NA,NA,NA,NA,NA,NA,NA
44a53,shallow,flow.Sequence,3_0_5_0_5_1,NA,NA,skipped,NA,2205898.5,NA,NA,2205895.096,2205898.6,2023-12-05T14:56:04Z,2205911.762,NULL,Übersicht,kilindo,d,NA,NA,NA,NA,sdf,NA,5,NA,NA,NA,NA,NA,NA,NA,NA,NA,NA,NA,NA,NA,NA,NA,NA,NA,NA,NA
44a53,task,flow.Sequence,3_0_5_0_5,NA,NA,completion,13500.031,2192388.4,2192378.399,2192395.065,2205895.096,2205898.7,2023-12-05T14:56:04Z,2205911.762,NULL,Übersicht,kilindo,d,NA,NA,NA,NA,sdf,NA,5,NA,NA,NA,NA,NA,NA,NA,NA,NA,NA,NA,NA,NA,NA,NA,NA,NA,NA,NA
44a53,deep,flow.Sequence,3_0_5_0_6_0,NA,NA,skipped,NA,2205898.9,NA,NA,2205895.096,2205899,2023-12-05T14:56:04Z,2205911.762,NULL,Konkurrent,mshindani,s,msemaji,mvutaji,kipukusa,NA,sdf,NA,5,NA,NA,NA,NA,NA,NA,NA,NA,NA,NA,NA,NA,NA,NA,NA,NA,NA,NA,NA
44a53,Shallow Question,html.Page,3_0_5_0_6_1_0,NA,NA,form submission,5125.2380000004,2205899.2,2205895.096,2205911.762,2211037,2211037.5,2023-12-05T14:56:10Z,2211044.89,NULL,Konkurrent,mshindani,s,msemaji,mvutaji,kipukusa,mshindani,NA,NA,5,NA,NA,NA,NA,NA,NA,NA,NA,NA,NA,NA,NA,NA,NA,NA,NA,NA,NA,NA
44a53,"""Richtig""-Screen",canvas.Screen,3_0_5_0_6_1_1,NA,NA,timeout,5000.5279999999,2211040.1,2211028.224,2211044.89,2216028.752,2216032.7,2023-12-05T14:56:15Z,2216045.418,NULL,Konkurrent,mshindani,s,msemaji,mvutaji,kipukusa,NA,sdf,1,5,NA,NA,NA,NA,NA,NA,NA,NA,NA,NA,NA,NA,NA,NA,NA,NA,NA,NA,NA
44a53,"""Falsch""-Screen",canvas.Screen,3_0_5_0_6_1_2,NA,NA,skipped,NA,2216037.1,NA,NA,2216028.752,2216037.3,2023-12-05T14:56:15Z,2216045.418,NULL,Konkurrent,mshindani,s,msemaji,mvutaji,kipukusa,NA,sdf,NA,5,NA,NA,NA,NA,NA,NA,NA,NA,NA,NA,NA,NA,NA,NA,NA,NA,NA,NA,NA
44a53,shallow,flow.Sequence,3_0_5_0_6_1,NA,NA,completion,10116.99,2205899.1,2205895.096,2205911.762,2216028.752,2216037.5,2023-12-05T14:56:15Z,2216045.418,NULL,Konkurrent,mshindani,s,msemaji,mvutaji,kipukusa,NA,sdf,NA,5,NA,NA,NA,NA,NA,NA,NA,NA,NA,NA,NA,NA,NA,NA,NA,NA,NA,NA,NA
44a53,task,flow.Sequence,3_0_5_0_6,NA,NA,completion,10116.99,2205898.8,2205895.096,2205911.762,2216028.752,2216037.7,2023-12-05T14:56:15Z,2216045.418,NULL,Konkurrent,mshindani,s,msemaji,mvutaji,kipukusa,NA,sdf,NA,5,NA,NA,NA,NA,NA,NA,NA,NA,NA,NA,NA,NA,NA,NA,NA,NA,NA,NA,NA
44a53,Deep Question,html.Page,3_0_5_0_7_0_0,NA,NA,form submission,12756.482,2216037.9,2216028.752,2216045.418,2228801.9,2228802.2,2023-12-05T14:56:27Z,2228812.17,NULL,Zuwachs,nyongeza,d,NA,NA,NA,nyonzame,NA,NA,5,NA,NA,NA,NA,NA,NA,NA,NA,NA,NA,NA,NA,NA,NA,NA,NA,NA,NA,NA
44a53,"""Richtig""-Screen",canvas.Screen,3_0_5_0_7_0_1,NA,NA,skipped,NA,2228804.6,NA,NA,2228801.9,2228804.7,2023-12-05T14:56:27Z,2228812.17,NULL,Zuwachs,nyongeza,d,NA,NA,NA,NA,sdf,NA,5,NA,NA,NA,NA,NA,NA,NA,NA,NA,NA,NA,NA,NA,NA,NA,NA,NA,NA,NA
44a53,"""Falsch""-Screen",canvas.Screen,3_0_5_0_7_0_2,NA,NA,timeout,4999.8000000003,2228805.3,2228795.504,2228812.17,2233795.304,2233799,2023-12-05T14:56:32Z,2233811.97,NULL,Zuwachs,nyongeza,d,NA,NA,NA,NA,sdf,0,5,NA,NA,NA,NA,NA,NA,NA,NA,NA,NA,NA,NA,NA,NA,NA,NA,NA,NA,NA
44a53,deep,flow.Sequence,3_0_5_0_7_0,NA,NA,completion,17749.886,2216037.8,2216028.752,2216045.418,2233795.304,2233799.4,2023-12-05T14:56:32Z,2233811.97,NULL,Zuwachs,nyongeza,d,NA,NA,NA,NA,sdf,NA,5,NA,NA,NA,NA,NA,NA,NA,NA,NA,NA,NA,NA,NA,NA,NA,NA,NA,NA,NA
44a53,shallow,flow.Sequence,3_0_5_0_7_1,NA,NA,skipped,NA,2233799.5,NA,NA,2233795.304,2233799.6,2023-12-05T14:56:32Z,2233811.97,NULL,Zuwachs,nyongeza,d,NA,NA,NA,NA,sdf,NA,5,NA,NA,NA,NA,NA,NA,NA,NA,NA,NA,NA,NA,NA,NA,NA,NA,NA,NA,NA
44a53,task,flow.Sequence,3_0_5_0_7,NA,NA,completion,17749.886,2216037.7,2216028.752,2216045.418,2233795.304,2233799.8,2023-12-05T14:56:32Z,2233811.97,NULL,Zuwachs,nyongeza,d,NA,NA,NA,NA,sdf,NA,5,NA,NA,NA,NA,NA,NA,NA,NA,NA,NA,NA,NA,NA,NA,NA,NA,NA,NA,NA
44a53,block,flow.Loop,3_0_5_0,NA,NA,completion,112118.528,2121676.7,2121643.444,2121676.776,2233795.304,2233800.1,2023-12-05T14:56:32Z,2233811.97,NULL,NA,NA,NA,NA,NA,NA,NA,sdf,NA,5,NA,NA,NA,NA,NA,NA,NA,NA,NA,NA,NA,NA,NA,NA,NA,NA,NA,NA,NA
44a53,weiter,canvas.Screen,3_0_5_1,sdf,keypress(Space),response,1095.1299999999,2233800.2,2233795.304,2233811.97,2234907.1,2234915.8,2023-12-05T14:56:33Z,2234928.592,NULL,NA,NA,NA,NA,NA,NA,NA,sdf,NA,5,NA,NA,NA,NA,NA,NA,NA,NA,NA,NA,NA,NA,NA,NA,NA,NA,NA,NA,NA
44a53,check continue,flow.Sequence,3_0_5,NA,NA,completion,113230.324,2121676.7,2121643.444,2121676.776,2234907.1,2234916.2,2023-12-05T14:56:33Z,2234928.592,NULL,NA,NA,NA,NA,NA,NA,NA,sdf,NA,5,NA,NA,NA,NA,NA,NA,NA,NA,NA,NA,NA,NA,NA,NA,NA,NA,NA,NA,NA
44a53,deep,flow.Sequence,3_0_6_0_0_0,NA,NA,skipped,NA,2234941.3,NA,NA,2234907.1,2234941.4,2023-12-05T14:56:33Z,2234928.592,NULL,Konkurrent,mshindani,s,msemaji,mvutaji,kipukusa,NA,dfs,NA,6,NA,NA,NA,NA,NA,NA,NA,NA,NA,NA,NA,NA,NA,NA,NA,NA,NA,NA,NA
44a53,Shallow Question,html.Page,3_0_6_0_0_1_0,NA,NA,form submission,4241.7080000001,2234941.4,2234911.926,2234928.592,2239170.3,2239170.8,2023-12-05T14:56:38Z,2239178.862,NULL,Konkurrent,mshindani,s,msemaji,mvutaji,kipukusa,mshindani,NA,NA,6,NA,NA,NA,NA,NA,NA,NA,NA,NA,NA,NA,NA,NA,NA,NA,NA,NA,NA,NA
44a53,"""Richtig""-Screen",canvas.Screen,3_0_6_0_0_1_1,NA,NA,timeout,4999.7999999998,2239173.3,2239162.196,2239178.862,2244161.996,2244167,2023-12-05T14:56:43Z,2244178.662,NULL,Konkurrent,mshindani,s,msemaji,mvutaji,kipukusa,NA,dfs,1,6,NA,NA,NA,NA,NA,NA,NA,NA,NA,NA,NA,NA,NA,NA,NA,NA,NA,NA,NA
44a53,"""Falsch""-Screen",canvas.Screen,3_0_6_0_0_1_2,NA,NA,skipped,NA,2244170.6,NA,NA,2244161.996,2244170.6,2023-12-05T14:56:43Z,2244178.662,NULL,Konkurrent,mshindani,s,msemaji,mvutaji,kipukusa,NA,dfs,NA,6,NA,NA,NA,NA,NA,NA,NA,NA,NA,NA,NA,NA,NA,NA,NA,NA,NA,NA,NA
44a53,shallow,flow.Sequence,3_0_6_0_0_1,NA,NA,completion,9233.4039999996,2234941.4,2234911.926,2234928.592,2244161.996,2244170.7,2023-12-05T14:56:43Z,2244178.662,NULL,Konkurrent,mshindani,s,msemaji,mvutaji,kipukusa,NA,dfs,NA,6,NA,NA,NA,NA,NA,NA,NA,NA,NA,NA,NA,NA,NA,NA,NA,NA,NA,NA,NA
44a53,task,flow.Sequence,3_0_6_0_0,NA,NA,completion,9233.4039999996,2234941.2,2234911.926,2234928.592,2244161.996,2244170.9,2023-12-05T14:56:43Z,2244178.662,NULL,Konkurrent,mshindani,s,msemaji,mvutaji,kipukusa,NA,dfs,NA,6,NA,NA,NA,NA,NA,NA,NA,NA,NA,NA,NA,NA,NA,NA,NA,NA,NA,NA,NA
44a53,deep,flow.Sequence,3_0_6_0_1_0,NA,NA,skipped,NA,2244170.9,NA,NA,2244161.996,2244171,2023-12-05T14:56:43Z,2244178.662,NULL,Vorsorge,tahadhari,s,ufafanuzi,makini,mashambani,NA,dfs,NA,6,NA,NA,NA,NA,NA,NA,NA,NA,NA,NA,NA,NA,NA,NA,NA,NA,NA,NA,NA
44a53,Shallow Question,html.Page,3_0_6_0_1_1_0,NA,NA,form submission,4892.3380000005,2244171.2,2244161.996,2244178.662,2249071,2249071.4,2023-12-05T14:56:48Z,2249079.007,NULL,Vorsorge,tahadhari,s,ufafanuzi,makini,mashambani,tahadhari,NA,NA,6,NA,NA,NA,NA,NA,NA,NA,NA,NA,NA,NA,NA,NA,NA,NA,NA,NA,NA,NA
44a53,"""Richtig""-Screen",canvas.Screen,3_0_6_0_1_1_1,NA,NA,timeout,4999.7999999998,2249073.7,2249062.341,2249079.007,2254062.141,2254067.7,2023-12-05T14:56:53Z,2254078.807,NULL,Vorsorge,tahadhari,s,ufafanuzi,makini,mashambani,NA,dfs,1,6,NA,NA,NA,NA,NA,NA,NA,NA,NA,NA,NA,NA,NA,NA,NA,NA,NA,NA,NA
44a53,"""Falsch""-Screen",canvas.Screen,3_0_6_0_1_1_2,NA,NA,skipped,NA,2254071.8,NA,NA,2254062.141,2254072,2023-12-05T14:56:53Z,2254078.807,NULL,Vorsorge,tahadhari,s,ufafanuzi,makini,mashambani,NA,dfs,NA,6,NA,NA,NA,NA,NA,NA,NA,NA,NA,NA,NA,NA,NA,NA,NA,NA,NA,NA,NA
44a53,shallow,flow.Sequence,3_0_6_0_1_1,NA,NA,completion,9883.4789999998,2244171.1,2244161.996,2244178.662,2254062.141,2254072.2,2023-12-05T14:56:53Z,2254078.807,NULL,Vorsorge,tahadhari,s,ufafanuzi,makini,mashambani,NA,dfs,NA,6,NA,NA,NA,NA,NA,NA,NA,NA,NA,NA,NA,NA,NA,NA,NA,NA,NA,NA,NA
44a53,task,flow.Sequence,3_0_6_0_1,NA,NA,completion,9883.4789999998,2244170.9,2244161.996,2244178.662,2254062.141,2254072.3,2023-12-05T14:56:53Z,2254078.807,NULL,Vorsorge,tahadhari,s,ufafanuzi,makini,mashambani,NA,dfs,NA,6,NA,NA,NA,NA,NA,NA,NA,NA,NA,NA,NA,NA,NA,NA,NA,NA,NA,NA,NA
44a53,Deep Question,html.Page,3_0_6_0_2_0_0,NA,NA,form submission,16290.793,2254072.5,2254062.141,2254078.807,2270369.6,2270369.8,2023-12-05T14:57:09Z,2270379.458,NULL,Symbol,kielezo,d,NA,NA,NA,kielenzo,NA,NA,6,NA,NA,NA,NA,NA,NA,NA,NA,NA,NA,NA,NA,NA,NA,NA,NA,NA,NA,NA
44a53,"""Richtig""-Screen",canvas.Screen,3_0_6_0_2_0_1,NA,NA,skipped,NA,2270372.5,NA,NA,2270369.6,2270372.5,2023-12-05T14:57:09Z,2270379.458,NULL,Symbol,kielezo,d,NA,NA,NA,NA,dfs,NA,6,NA,NA,NA,NA,NA,NA,NA,NA,NA,NA,NA,NA,NA,NA,NA,NA,NA,NA,NA
44a53,"""Falsch""-Screen",canvas.Screen,3_0_6_0_2_0_2,NA,NA,timeout,4999.7999999998,2270373,2270362.792,2270379.458,2275362.592,2275367,2023-12-05T14:57:14Z,2275379.258,NULL,Symbol,kielezo,d,NA,NA,NA,NA,dfs,0,6,NA,NA,NA,NA,NA,NA,NA,NA,NA,NA,NA,NA,NA,NA,NA,NA,NA,NA,NA
44a53,deep,flow.Sequence,3_0_6_0_2_0,NA,NA,completion,21283.785,2254072.5,2254062.141,2254078.807,2275362.592,2275367.4,2023-12-05T14:57:14Z,2275379.258,NULL,Symbol,kielezo,d,NA,NA,NA,NA,dfs,NA,6,NA,NA,NA,NA,NA,NA,NA,NA,NA,NA,NA,NA,NA,NA,NA,NA,NA,NA,NA
44a53,shallow,flow.Sequence,3_0_6_0_2_1,NA,NA,skipped,NA,2275367.6,NA,NA,2275362.592,2275367.8,2023-12-05T14:57:14Z,2275379.258,NULL,Symbol,kielezo,d,NA,NA,NA,NA,dfs,NA,6,NA,NA,NA,NA,NA,NA,NA,NA,NA,NA,NA,NA,NA,NA,NA,NA,NA,NA,NA
44a53,task,flow.Sequence,3_0_6_0_2,NA,NA,completion,21283.785,2254072.4,2254062.141,2254078.807,2275362.592,2275368,2023-12-05T14:57:14Z,2275379.258,NULL,Symbol,kielezo,d,NA,NA,NA,NA,dfs,NA,6,NA,NA,NA,NA,NA,NA,NA,NA,NA,NA,NA,NA,NA,NA,NA,NA,NA,NA,NA
44a53,deep,flow.Sequence,3_0_6_0_3_0,NA,NA,skipped,NA,2275368.1,NA,NA,2275362.592,2275368.2,2023-12-05T14:57:14Z,2275379.258,NULL,System,maongozi,s,chokochoko,nuksani,mitaani,NA,dfs,NA,6,NA,NA,NA,NA,NA,NA,NA,NA,NA,NA,NA,NA,NA,NA,NA,NA,NA,NA,NA
44a53,Shallow Question,html.Page,3_0_6_0_3_1_0,NA,NA,form submission,5376.0420000004,2275368.3,2275362.592,2275379.258,2280755.3,2280755.8,2023-12-05T14:57:19Z,2280762.946,NULL,System,maongozi,s,chokochoko,nuksani,mitaani,maongozi,NA,NA,6,NA,NA,NA,NA,NA,NA,NA,NA,NA,NA,NA,NA,NA,NA,NA,NA,NA,NA,NA
44a53,"""Richtig""-Screen",canvas.Screen,3_0_6_0_3_1_1,NA,NA,timeout,4999.7999999998,2280758.7,2280746.28,2280762.946,2285746.08,2285750.6,2023-12-05T14:57:24Z,2285762.746,NULL,System,maongozi,s,chokochoko,nuksani,mitaani,NA,dfs,1,6,NA,NA,NA,NA,NA,NA,NA,NA,NA,NA,NA,NA,NA,NA,NA,NA,NA,NA,NA
44a53,"""Falsch""-Screen",canvas.Screen,3_0_6_0_3_1_2,NA,NA,skipped,NA,2285754.6,NA,NA,2285746.08,2285754.9,2023-12-05T14:57:24Z,2285762.746,NULL,System,maongozi,s,chokochoko,nuksani,mitaani,NA,dfs,NA,6,NA,NA,NA,NA,NA,NA,NA,NA,NA,NA,NA,NA,NA,NA,NA,NA,NA,NA,NA
