observation,sender,sender_type,sender_id,response,response_action,ended_on,duration,time_run,time_render,time_show,time_end,time_commit,timestamp,time_switch,distractors,german,swahili,enc,distractor1,distractor2,distractor3,response_2,x,correct,x_2,url_vp,url_sess,meta_labjs_version,meta_location,meta_user_agent,meta_platform,meta_language,meta_locale,meta_time_zone,meta_timezone_offset,meta_screen_width,meta_screen_height,meta_scroll_width,meta_scroll_height,meta_window_inner_width,meta_window_inner_height,meta_device_pixel_ratio,meta_labjs_build_flavor,meta_labjs_build_commit
aa2eb,Introduction general,canvas.Screen,0,weiter,keypress(q),response,126508.495,894.5,809.009,909.005,127417.5,127449.60000002,2023-10-17T13:34:37Z,127458.306,NULL,NA,NA,NA,NA,NA,NA,NA,NA,NA,NA,132,1,20.2.4,https://neurocog.fernuni.ch/studies/vweber/encoding_immediate/index.html?vp=132&sess=1,"Mozilla/5.0 (Macintosh; Intel Mac OS X 10_15_7) AppleWebKit/537.36 (KHTML, like Gecko) Chrome/117.0.0.0 Safari/537.36",MacIntel,de-DE,de,Europe/Zurich,-120,1440,900,1440,636,1440,684,2,production,f5b4a49f956347addd546a832a3327688c2c0fef
aa2eb,Introduction practice,canvas.Screen,1_0,NA,keypress(Space),response,7375.7940000238,127449.89999998,127441.64,127458.306,134834.10000002,134840.5,2023-10-17T13:34:44Z,134858.627,NULL,NA,NA,NA,NA,NA,NA,NA,NA,NA,NA,NA,NA,NA,NA,NA,NA,NA,NA,NA,NA,NA,NA,NA,NA,NA,NA,NA,NA,NA
aa2eb,deep,flow.Sequence,1_1_0_0,NA,NA,skipped,NA,134840.89999998,NA,NA,134834.10000002,134842.39999998,2023-10-17T13:34:44Z,134858.627,"c(""distractor1"", ""distractor2"", ""distractor3"")",Kritik,lawama,s,dereva,nafasi,mawazo,NA,NA,NA,NA,NA,NA,NA,NA,NA,NA,NA,NA,NA,NA,NA,NA,NA,NA,NA,NA,NA,NA,NA
aa2eb,Shallow Question,html.Page,1_1_0_1_0,NA,NA,form submission,13417.973000024,134842.60000002,134841.961,134858.627,148276.60000002,148276.79999995,2023-10-17T13:34:58Z,148277.23,"c(""distractor1"", ""distractor2"", ""distractor3"")",Kritik,lawama,s,dereva,nafasi,mawazo,lawama,NA,NA,NA,NA,NA,NA,NA,NA,NA,NA,NA,NA,NA,NA,NA,NA,NA,NA,NA,NA,NA,NA
aa2eb,"""Richtig""-Screen",canvas.Screen,1_1_0_1_1,NA,NA,timeout,5000.645,148277.60000002,148260.564,148277.23,153261.209,153268.60000002,2023-10-17T13:35:03Z,153277.875,"c(""distractor1"", ""distractor2"", ""distractor3"")",Kritik,lawama,s,dereva,nafasi,mawazo,NA,NA,1,NA,NA,NA,NA,NA,NA,NA,NA,NA,NA,NA,NA,NA,NA,NA,NA,NA,NA,NA,NA
aa2eb,"""Falsch""-Screen",canvas.Screen,1_1_0_1_2,NA,NA,skipped,NA,153270.39999998,NA,NA,153261.209,153270.5,2023-10-17T13:35:03Z,153277.875,"c(""distractor1"", ""distractor2"", ""distractor3"")",Kritik,lawama,s,dereva,nafasi,mawazo,NA,NA,NA,NA,NA,NA,NA,NA,NA,NA,NA,NA,NA,NA,NA,NA,NA,NA,NA,NA,NA,NA,NA
aa2eb,shallow,flow.Sequence,1_1_0_1,NA,NA,completion,18402.582,134842.60000002,134841.961,134858.627,153261.209,153270.69999993,2023-10-17T13:35:03Z,153277.875,"c(""distractor1"", ""distractor2"", ""distractor3"")",Kritik,lawama,s,dereva,nafasi,mawazo,NA,NA,NA,NA,NA,NA,NA,NA,NA,NA,NA,NA,NA,NA,NA,NA,NA,NA,NA,NA,NA,NA,NA
aa2eb,task,flow.Sequence,1_1_0,NA,NA,completion,18402.582,134840.79999995,134841.961,134858.627,153261.209,153270.79999995,2023-10-17T13:35:03Z,153277.875,"c(""distractor1"", ""distractor2"", ""distractor3"")",Kritik,lawama,s,dereva,nafasi,mawazo,NA,NA,NA,NA,NA,NA,NA,NA,NA,NA,NA,NA,NA,NA,NA,NA,NA,NA,NA,NA,NA,NA,NA
aa2eb,deep,flow.Sequence,1_1_1_0,NA,NA,skipped,NA,153270.89999998,NA,NA,153261.209,153271,2023-10-17T13:35:03Z,153277.875,"c(""distractor1"", ""distractor2"", ""distractor3"")",Rückhalt,msaada,s,muhula,auwali,kiwimbe,NA,NA,NA,NA,NA,NA,NA,NA,NA,NA,NA,NA,NA,NA,NA,NA,NA,NA,NA,NA,NA,NA,NA
aa2eb,Shallow Question,html.Page,1_1_1_1_0,NA,NA,form submission,8793.7250000238,153271.19999993,153261.209,153277.875,162071.60000002,162072.29999995,2023-10-17T13:35:11Z,162077.523,"c(""distractor1"", ""distractor2"", ""distractor3"")",Rückhalt,msaada,s,muhula,auwali,kiwimbe,muhula,NA,NA,NA,NA,NA,NA,NA,NA,NA,NA,NA,NA,NA,NA,NA,NA,NA,NA,NA,NA,NA,NA
aa2eb,"""Richtig""-Screen",canvas.Screen,1_1_1_1_1,NA,NA,skipped,NA,162076.29999995,NA,NA,162071.60000002,162076.69999993,2023-10-17T13:35:11Z,162077.523,"c(""distractor1"", ""distractor2"", ""distractor3"")",Rückhalt,msaada,s,muhula,auwali,kiwimbe,NA,NA,NA,NA,NA,NA,NA,NA,NA,NA,NA,NA,NA,NA,NA,NA,NA,NA,NA,NA,NA,NA,NA
aa2eb,"""Falsch""-Screen",canvas.Screen,1_1_1_1_2,NA,NA,timeout,5000.458,162078,162060.857,162077.523,167061.315,167064.39999998,2023-10-17T13:35:16Z,167077.981,"c(""distractor1"", ""distractor2"", ""distractor3"")",Rückhalt,msaada,s,muhula,auwali,kiwimbe,NA,NA,0,NA,NA,NA,NA,NA,NA,NA,NA,NA,NA,NA,NA,NA,NA,NA,NA,NA,NA,NA,NA
aa2eb,shallow,flow.Sequence,1_1_1_1,NA,NA,completion,13783.44,153271.10000002,153261.209,153277.875,167061.315,167064.89999998,2023-10-17T13:35:16Z,167077.981,"c(""distractor1"", ""distractor2"", ""distractor3"")",Rückhalt,msaada,s,muhula,auwali,kiwimbe,NA,NA,NA,NA,NA,NA,NA,NA,NA,NA,NA,NA,NA,NA,NA,NA,NA,NA,NA,NA,NA,NA,NA
aa2eb,task,flow.Sequence,1_1_1,NA,NA,completion,13783.44,153270.89999998,153261.209,153277.875,167061.315,167065.19999993,2023-10-17T13:35:16Z,167077.981,"c(""distractor1"", ""distractor2"", ""distractor3"")",Rückhalt,msaada,s,muhula,auwali,kiwimbe,NA,NA,NA,NA,NA,NA,NA,NA,NA,NA,NA,NA,NA,NA,NA,NA,NA,NA,NA,NA,NA,NA,NA
aa2eb,Deep Question,html.Page,1_1_2_0_0,NA,NA,form submission,3337.9189999762,167065.5,167061.315,167077.981,170415.89999998,170416.29999995,2023-10-17T13:35:20Z,170427.847,"c(""distractor1"", ""distractor2"", ""distractor3"")",Qualität,mtindo,d,NA,NA,NA,j,NA,NA,NA,NA,NA,NA,NA,NA,NA,NA,NA,NA,NA,NA,NA,NA,NA,NA,NA,NA,NA,NA
aa2eb,"""Richtig""-Screen",canvas.Screen,1_1_2_0_1,NA,NA,skipped,NA,170418.79999995,NA,NA,170415.89999998,170418.79999995,2023-10-17T13:35:20Z,170427.847,"c(""distractor1"", ""distractor2"", ""distractor3"")",Qualität,mtindo,d,NA,NA,NA,NA,NA,NA,NA,NA,NA,NA,NA,NA,NA,NA,NA,NA,NA,NA,NA,NA,NA,NA,NA,NA,NA,NA
aa2eb,"""Falsch""-Screen",canvas.Screen,1_1_2_0_2,NA,NA,timeout,4999.8,170420.19999993,170411.181,170427.847,175410.981,175415.79999995,2023-10-17T13:35:25Z,175427.647,"c(""distractor1"", ""distractor2"", ""distractor3"")",Qualität,mtindo,d,NA,NA,NA,NA,NA,0,NA,NA,NA,NA,NA,NA,NA,NA,NA,NA,NA,NA,NA,NA,NA,NA,NA,NA,NA,NA
aa2eb,deep,flow.Sequence,1_1_2_0,NA,NA,completion,8333,167065.39999998,167061.315,167077.981,175410.981,175416.19999993,2023-10-17T13:35:25Z,175427.647,"c(""distractor1"", ""distractor2"", ""distractor3"")",Qualität,mtindo,d,NA,NA,NA,NA,NA,NA,NA,NA,NA,NA,NA,NA,NA,NA,NA,NA,NA,NA,NA,NA,NA,NA,NA,NA,NA,NA
aa2eb,shallow,flow.Sequence,1_1_2_1,NA,NA,skipped,NA,175416.29999995,NA,NA,175410.981,175416.5,2023-10-17T13:35:25Z,175427.647,"c(""distractor1"", ""distractor2"", ""distractor3"")",Qualität,mtindo,d,NA,NA,NA,NA,NA,NA,NA,NA,NA,NA,NA,NA,NA,NA,NA,NA,NA,NA,NA,NA,NA,NA,NA,NA,NA,NA
aa2eb,task,flow.Sequence,1_1_2,NA,NA,completion,8333,167065.39999998,167061.315,167077.981,175410.981,175416.69999993,2023-10-17T13:35:25Z,175427.647,"c(""distractor1"", ""distractor2"", ""distractor3"")",Qualität,mtindo,d,NA,NA,NA,NA,NA,NA,NA,NA,NA,NA,NA,NA,NA,NA,NA,NA,NA,NA,NA,NA,NA,NA,NA,NA,NA,NA
aa2eb,deep,flow.Sequence,1_1_3_0,NA,NA,skipped,NA,175416.89999998,NA,NA,175410.981,175417,2023-10-17T13:35:25Z,175427.647,"c(""distractor1"", ""distractor2"", ""distractor3"")",Gegenwart,hadhara,s,katiba,jokofu,mikopo,NA,NA,NA,NA,NA,NA,NA,NA,NA,NA,NA,NA,NA,NA,NA,NA,NA,NA,NA,NA,NA,NA,NA
aa2eb,Shallow Question,html.Page,1_1_3_1_0,NA,NA,form submission,6423.6529999523,175417.10000002,175410.981,175427.647,181851.29999995,181851.79999995,2023-10-17T13:35:31Z,181861.561,"c(""distractor1"", ""distractor2"", ""distractor3"")",Gegenwart,hadhara,s,katiba,jokofu,mikopo,hadhara,NA,NA,NA,NA,NA,NA,NA,NA,NA,NA,NA,NA,NA,NA,NA,NA,NA,NA,NA,NA,NA,NA
aa2eb,"""Richtig""-Screen",canvas.Screen,1_1_3_1_1,NA,NA,timeout,4999.8,181855.5,181844.895,181861.561,186844.695,186849.60000002,2023-10-17T13:35:36Z,186861.361,"c(""distractor1"", ""distractor2"", ""distractor3"")",Gegenwart,hadhara,s,katiba,jokofu,mikopo,NA,NA,1,NA,NA,NA,NA,NA,NA,NA,NA,NA,NA,NA,NA,NA,NA,NA,NA,NA,NA,NA,NA
aa2eb,"""Falsch""-Screen",canvas.Screen,1_1_3_1_2,NA,NA,skipped,NA,186853.89999998,NA,NA,186844.695,186854,2023-10-17T13:35:36Z,186861.361,"c(""distractor1"", ""distractor2"", ""distractor3"")",Gegenwart,hadhara,s,katiba,jokofu,mikopo,NA,NA,NA,NA,NA,NA,NA,NA,NA,NA,NA,NA,NA,NA,NA,NA,NA,NA,NA,NA,NA,NA,NA
aa2eb,shallow,flow.Sequence,1_1_3_1,NA,NA,completion,11417.048,175417.10000002,175410.981,175427.647,186844.695,186854.29999995,2023-10-17T13:35:36Z,186861.361,"c(""distractor1"", ""distractor2"", ""distractor3"")",Gegenwart,hadhara,s,katiba,jokofu,mikopo,NA,NA,NA,NA,NA,NA,NA,NA,NA,NA,NA,NA,NA,NA,NA,NA,NA,NA,NA,NA,NA,NA,NA
aa2eb,task,flow.Sequence,1_1_3,NA,NA,completion,11417.048,175416.79999995,175410.981,175427.647,186844.695,186854.29999995,2023-10-17T13:35:36Z,186861.361,"c(""distractor1"", ""distractor2"", ""distractor3"")",Gegenwart,hadhara,s,katiba,jokofu,mikopo,NA,NA,NA,NA,NA,NA,NA,NA,NA,NA,NA,NA,NA,NA,NA,NA,NA,NA,NA,NA,NA,NA,NA
aa2eb,Deep Question,html.Page,1_1_4_0_0,NA,NA,form submission,10449.038999976,186854.39999998,186844.695,186861.361,197310.39999998,197310.89999998,2023-10-17T13:35:47Z,197311.579,"c(""distractor1"", ""distractor2"", ""distractor3"")",Schatten,kivuli,d,NA,NA,NA,w,NA,NA,NA,NA,NA,NA,NA,NA,NA,NA,NA,NA,NA,NA,NA,NA,NA,NA,NA,NA,NA,NA
aa2eb,"""Richtig""-Screen",canvas.Screen,1_1_4_0_1,NA,NA,skipped,NA,197313.29999995,NA,NA,197310.39999998,197313.39999998,2023-10-17T13:35:47Z,197311.579,"c(""distractor1"", ""distractor2"", ""distractor3"")",Schatten,kivuli,d,NA,NA,NA,NA,NA,NA,NA,NA,NA,NA,NA,NA,NA,NA,NA,NA,NA,NA,NA,NA,NA,NA,NA,NA,NA,NA
aa2eb,"""Falsch""-Screen",canvas.Screen,1_1_4_0_2,NA,NA,timeout,5000.222,197314.19999993,197294.913,197311.579,202295.135,202300.5,2023-10-17T13:35:52Z,202311.801,"c(""distractor1"", ""distractor2"", ""distractor3"")",Schatten,kivuli,d,NA,NA,NA,NA,NA,0,NA,NA,NA,NA,NA,NA,NA,NA,NA,NA,NA,NA,NA,NA,NA,NA,NA,NA,NA,NA
aa2eb,deep,flow.Sequence,1_1_4_0,NA,NA,completion,15433.774,186854.39999998,186844.695,186861.361,202295.135,202300.89999998,2023-10-17T13:35:52Z,202311.801,"c(""distractor1"", ""distractor2"", ""distractor3"")",Schatten,kivuli,d,NA,NA,NA,NA,NA,NA,NA,NA,NA,NA,NA,NA,NA,NA,NA,NA,NA,NA,NA,NA,NA,NA,NA,NA,NA,NA
aa2eb,shallow,flow.Sequence,1_1_4_1,NA,NA,skipped,NA,202301.10000002,NA,NA,202295.135,202301.19999993,2023-10-17T13:35:52Z,202311.801,"c(""distractor1"", ""distractor2"", ""distractor3"")",Schatten,kivuli,d,NA,NA,NA,NA,NA,NA,NA,NA,NA,NA,NA,NA,NA,NA,NA,NA,NA,NA,NA,NA,NA,NA,NA,NA,NA,NA
aa2eb,task,flow.Sequence,1_1_4,NA,NA,completion,15433.774,186854.39999998,186844.695,186861.361,202295.135,202301.39999998,2023-10-17T13:35:52Z,202311.801,"c(""distractor1"", ""distractor2"", ""distractor3"")",Schatten,kivuli,d,NA,NA,NA,NA,NA,NA,NA,NA,NA,NA,NA,NA,NA,NA,NA,NA,NA,NA,NA,NA,NA,NA,NA,NA,NA,NA
aa2eb,Deep Question,html.Page,1_1_5_0_0,NA,NA,form submission,8323.199,202301.60000002,202295.135,202311.801,210635,210635.5,2023-10-17T13:36:00Z,210644.801,"c(""distractor1"", ""distractor2"", ""distractor3"")",Gesundheit,salama,d,NA,NA,NA,k,NA,NA,NA,NA,NA,NA,NA,NA,NA,NA,NA,NA,NA,NA,NA,NA,NA,NA,NA,NA,NA,NA
aa2eb,"""Richtig""-Screen",canvas.Screen,1_1_5_0_1,NA,NA,skipped,NA,210638.39999998,NA,NA,210635,210638.5,2023-10-17T13:36:00Z,210644.801,"c(""distractor1"", ""distractor2"", ""distractor3"")",Gesundheit,salama,d,NA,NA,NA,NA,NA,NA,NA,NA,NA,NA,NA,NA,NA,NA,NA,NA,NA,NA,NA,NA,NA,NA,NA,NA,NA,NA
aa2eb,"""Falsch""-Screen",canvas.Screen,1_1_5_0_2,NA,NA,timeout,5000.533,210639.19999993,210628.135,210644.801,215628.668,215630.39999998,2023-10-17T13:36:05Z,215645.334,"c(""distractor1"", ""distractor2"", ""distractor3"")",Gesundheit,salama,d,NA,NA,NA,NA,NA,0,NA,NA,NA,NA,NA,NA,NA,NA,NA,NA,NA,NA,NA,NA,NA,NA,NA,NA,NA,NA
aa2eb,deep,flow.Sequence,1_1_5_0,NA,NA,completion,13316.867,202301.5,202295.135,202311.801,215628.668,215630.69999993,2023-10-17T13:36:05Z,215645.334,"c(""distractor1"", ""distractor2"", ""distractor3"")",Gesundheit,salama,d,NA,NA,NA,NA,NA,NA,NA,NA,NA,NA,NA,NA,NA,NA,NA,NA,NA,NA,NA,NA,NA,NA,NA,NA,NA,NA
aa2eb,shallow,flow.Sequence,1_1_5_1,NA,NA,skipped,NA,215630.89999998,NA,NA,215628.668,215631,2023-10-17T13:36:05Z,215645.334,"c(""distractor1"", ""distractor2"", ""distractor3"")",Gesundheit,salama,d,NA,NA,NA,NA,NA,NA,NA,NA,NA,NA,NA,NA,NA,NA,NA,NA,NA,NA,NA,NA,NA,NA,NA,NA,NA,NA
aa2eb,task,flow.Sequence,1_1_5,NA,NA,completion,13316.867,202301.5,202295.135,202311.801,215628.668,215631.19999993,2023-10-17T13:36:05Z,215645.334,"c(""distractor1"", ""distractor2"", ""distractor3"")",Gesundheit,salama,d,NA,NA,NA,NA,NA,NA,NA,NA,NA,NA,NA,NA,NA,NA,NA,NA,NA,NA,NA,NA,NA,NA,NA,NA,NA,NA
aa2eb,block,flow.Loop,1_1,NA,NA,completion,80770.041,134840.79999995,134841.961,134858.627,215628.668,215631.39999998,2023-10-17T13:36:05Z,215645.334,"c(""distractor1"", ""distractor2"", ""distractor3"")",NA,NA,NA,NA,NA,NA,NA,NA,NA,NA,NA,NA,NA,NA,NA,NA,NA,NA,NA,NA,NA,NA,NA,NA,NA,NA,NA,NA,NA
aa2eb,Practice,flow.Sequence,1,NA,NA,completion,88170.362,127449.89999998,127441.64,127458.306,215628.668,215631.60000002,2023-10-17T13:36:05Z,215645.334,NULL,NA,NA,NA,NA,NA,NA,NA,NA,NA,NA,NA,NA,NA,NA,NA,NA,NA,NA,NA,NA,NA,NA,NA,NA,NA,NA,NA,NA,NA
aa2eb,Experiment start,canvas.Screen,2,weiter,keypress(q),response,38459.266000024,215631.79999995,215628.668,215645.334,254104.60000002,254113.29999995,2023-10-17T13:36:44Z,254177.126,NULL,NA,NA,NA,NA,NA,NA,NA,NA,NA,NA,NA,NA,NA,NA,NA,NA,NA,NA,NA,NA,NA,NA,NA,NA,NA,NA,NA,NA,NA
aa2eb,Deep Question,html.Page,3_0_0_0_0_0_0,NA,NA,form submission,4046.874,254163.69999993,254160.46,254177.126,258224,258224.5,2023-10-17T13:36:48Z,258229.422,NULL,Vorwurf,mashtaka,d,NA,NA,NA,j,NA,NA,0,NA,NA,NA,NA,NA,NA,NA,NA,NA,NA,NA,NA,NA,NA,NA,NA,NA,NA,NA
aa2eb,"""Richtig""-Screen",canvas.Screen,3_0_0_0_0_0_1,NA,NA,skipped,NA,258227.29999995,NA,NA,258224,258227.39999998,2023-10-17T13:36:48Z,258229.422,NULL,Vorwurf,mashtaka,d,NA,NA,NA,NA,sdf,NA,0,NA,NA,NA,NA,NA,NA,NA,NA,NA,NA,NA,NA,NA,NA,NA,NA,NA,NA,NA
aa2eb,"""Falsch""-Screen",canvas.Screen,3_0_0_0_0_0_2,NA,NA,timeout,4999.8,258228.39999998,258212.756,258229.422,263212.556,263214.79999995,2023-10-17T13:36:53Z,263229.222,NULL,Vorwurf,mashtaka,d,NA,NA,NA,NA,sdf,0,0,NA,NA,NA,NA,NA,NA,NA,NA,NA,NA,NA,NA,NA,NA,NA,NA,NA,NA,NA
aa2eb,deep,flow.Sequence,3_0_0_0_0_0,NA,NA,completion,9035.43,254163.69999993,254160.46,254177.126,263212.556,263215.19999993,2023-10-17T13:36:53Z,263229.222,NULL,Vorwurf,mashtaka,d,NA,NA,NA,NA,sdf,NA,0,NA,NA,NA,NA,NA,NA,NA,NA,NA,NA,NA,NA,NA,NA,NA,NA,NA,NA,NA
aa2eb,shallow,flow.Sequence,3_0_0_0_0_1,NA,NA,skipped,NA,263215.29999995,NA,NA,263212.556,263215.39999998,2023-10-17T13:36:53Z,263229.222,NULL,Vorwurf,mashtaka,d,NA,NA,NA,NA,sdf,NA,0,NA,NA,NA,NA,NA,NA,NA,NA,NA,NA,NA,NA,NA,NA,NA,NA,NA,NA,NA
aa2eb,task,flow.Sequence,3_0_0_0_0,NA,NA,completion,9035.43,254163.69999993,254160.46,254177.126,263212.556,263215.5,2023-10-17T13:36:53Z,263229.222,NULL,Vorwurf,mashtaka,d,NA,NA,NA,NA,sdf,NA,0,NA,NA,NA,NA,NA,NA,NA,NA,NA,NA,NA,NA,NA,NA,NA,NA,NA,NA,NA
aa2eb,Deep Question,html.Page,3_0_0_0_1_0_0,NA,NA,form submission,4125.4779999285,263215.69999993,263212.556,263229.222,267354.69999993,267355.19999993,2023-10-17T13:36:57Z,267362.887,NULL,Entwicklung,maendeleo,d,NA,NA,NA,e,NA,NA,0,NA,NA,NA,NA,NA,NA,NA,NA,NA,NA,NA,NA,NA,NA,NA,NA,NA,NA,NA
aa2eb,"""Richtig""-Screen",canvas.Screen,3_0_0_0_1_0_1,NA,NA,skipped,NA,267357.89999998,NA,NA,267354.69999993,267358.10000002,2023-10-17T13:36:57Z,267362.887,NULL,Entwicklung,maendeleo,d,NA,NA,NA,NA,sdf,NA,0,NA,NA,NA,NA,NA,NA,NA,NA,NA,NA,NA,NA,NA,NA,NA,NA,NA,NA,NA
aa2eb,"""Falsch""-Screen",canvas.Screen,3_0_0_0_1_0_2,NA,NA,timeout,4999.8,267358.60000002,267346.221,267362.887,272346.021,272350.89999998,2023-10-17T13:37:02Z,272362.687,NULL,Entwicklung,maendeleo,d,NA,NA,NA,NA,sdf,0,0,NA,NA,NA,NA,NA,NA,NA,NA,NA,NA,NA,NA,NA,NA,NA,NA,NA,NA,NA
aa2eb,deep,flow.Sequence,3_0_0_0_1_0,NA,NA,completion,9116.799,263215.69999993,263212.556,263229.222,272346.021,272351.29999995,2023-10-17T13:37:02Z,272362.687,NULL,Entwicklung,maendeleo,d,NA,NA,NA,NA,sdf,NA,0,NA,NA,NA,NA,NA,NA,NA,NA,NA,NA,NA,NA,NA,NA,NA,NA,NA,NA,NA
aa2eb,shallow,flow.Sequence,3_0_0_0_1_1,NA,NA,skipped,NA,272351.5,NA,NA,272346.021,272351.60000002,2023-10-17T13:37:02Z,272362.687,NULL,Entwicklung,maendeleo,d,NA,NA,NA,NA,sdf,NA,0,NA,NA,NA,NA,NA,NA,NA,NA,NA,NA,NA,NA,NA,NA,NA,NA,NA,NA,NA
aa2eb,task,flow.Sequence,3_0_0_0_1,NA,NA,completion,9116.799,263215.60000002,263212.556,263229.222,272346.021,272351.69999993,2023-10-17T13:37:02Z,272362.687,NULL,Entwicklung,maendeleo,d,NA,NA,NA,NA,sdf,NA,0,NA,NA,NA,NA,NA,NA,NA,NA,NA,NA,NA,NA,NA,NA,NA,NA,NA,NA,NA
aa2eb,Deep Question,html.Page,3_0_0_0_2_0_0,NA,NA,form submission,3835.813,272351.89999998,272346.021,272362.687,276198.5,276199,2023-10-17T13:37:06Z,276213.085,NULL,Fenster,dirisha,d,NA,NA,NA,f,NA,NA,0,NA,NA,NA,NA,NA,NA,NA,NA,NA,NA,NA,NA,NA,NA,NA,NA,NA,NA,NA
aa2eb,"""Richtig""-Screen",canvas.Screen,3_0_0_0_2_0_1,NA,NA,skipped,NA,276201.60000002,NA,NA,276198.5,276201.79999995,2023-10-17T13:37:06Z,276213.085,NULL,Fenster,dirisha,d,NA,NA,NA,NA,sdf,NA,0,NA,NA,NA,NA,NA,NA,NA,NA,NA,NA,NA,NA,NA,NA,NA,NA,NA,NA,NA
aa2eb,"""Falsch""-Screen",canvas.Screen,3_0_0_0_2_0_2,NA,NA,timeout,4999.8,276202.29999995,276196.419,276213.085,281196.219,281200.19999993,2023-10-17T13:37:11Z,281212.885,NULL,Fenster,dirisha,d,NA,NA,NA,NA,sdf,0,0,NA,NA,NA,NA,NA,NA,NA,NA,NA,NA,NA,NA,NA,NA,NA,NA,NA,NA,NA
aa2eb,deep,flow.Sequence,3_0_0_0_2_0,NA,NA,completion,8833.532,272351.79999995,272346.021,272362.687,281196.219,281200.5,2023-10-17T13:37:11Z,281212.885,NULL,Fenster,dirisha,d,NA,NA,NA,NA,sdf,NA,0,NA,NA,NA,NA,NA,NA,NA,NA,NA,NA,NA,NA,NA,NA,NA,NA,NA,NA,NA
aa2eb,shallow,flow.Sequence,3_0_0_0_2_1,NA,NA,skipped,NA,281200.69999993,NA,NA,281196.219,281200.69999993,2023-10-17T13:37:11Z,281212.885,NULL,Fenster,dirisha,d,NA,NA,NA,NA,sdf,NA,0,NA,NA,NA,NA,NA,NA,NA,NA,NA,NA,NA,NA,NA,NA,NA,NA,NA,NA,NA
aa2eb,task,flow.Sequence,3_0_0_0_2,NA,NA,completion,8833.532,272351.79999995,272346.021,272362.687,281196.219,281200.89999998,2023-10-17T13:37:11Z,281212.885,NULL,Fenster,dirisha,d,NA,NA,NA,NA,sdf,NA,0,NA,NA,NA,NA,NA,NA,NA,NA,NA,NA,NA,NA,NA,NA,NA,NA,NA,NA,NA
aa2eb,deep,flow.Sequence,3_0_0_0_3_0,NA,NA,skipped,NA,281201.10000002,NA,NA,281196.219,281201.10000002,2023-10-17T13:37:11Z,281212.885,NULL,Niveau,kiwango,s,usimamizi,mwamali,mshairi,NA,sdf,NA,0,NA,NA,NA,NA,NA,NA,NA,NA,NA,NA,NA,NA,NA,NA,NA,NA,NA,NA,NA
aa2eb,Shallow Question,html.Page,3_0_0_0_3_1_0,NA,NA,form submission,7358.4149999523,281201.29999995,281196.219,281212.885,288571.29999995,288571.79999995,2023-10-17T13:37:18Z,288579.751,NULL,Niveau,kiwango,s,usimamizi,mwamali,mshairi,mwamali,NA,NA,0,NA,NA,NA,NA,NA,NA,NA,NA,NA,NA,NA,NA,NA,NA,NA,NA,NA,NA,NA
aa2eb,"""Richtig""-Screen",canvas.Screen,3_0_0_0_3_1_1,NA,NA,skipped,NA,288574.39999998,NA,NA,288571.29999995,288574.5,2023-10-17T13:37:18Z,288579.751,NULL,Niveau,kiwango,s,usimamizi,mwamali,mshairi,NA,sdf,NA,0,NA,NA,NA,NA,NA,NA,NA,NA,NA,NA,NA,NA,NA,NA,NA,NA,NA,NA,NA
aa2eb,"""Falsch""-Screen",canvas.Screen,3_0_0_0_3_1_2,NA,NA,timeout,4999.8,288575.29999995,288563.085,288579.751,293562.885,293565.39999998,2023-10-17T13:37:23Z,293579.551,NULL,Niveau,kiwango,s,usimamizi,mwamali,mshairi,NA,sdf,0,0,NA,NA,NA,NA,NA,NA,NA,NA,NA,NA,NA,NA,NA,NA,NA,NA,NA,NA,NA
aa2eb,shallow,flow.Sequence,3_0_0_0_3_1,NA,NA,completion,12350,281201.19999993,281196.219,281212.885,293562.885,293565.69999993,2023-10-17T13:37:23Z,293579.551,NULL,Niveau,kiwango,s,usimamizi,mwamali,mshairi,NA,sdf,NA,0,NA,NA,NA,NA,NA,NA,NA,NA,NA,NA,NA,NA,NA,NA,NA,NA,NA,NA,NA
aa2eb,task,flow.Sequence,3_0_0_0_3,NA,NA,completion,12350,281201,281196.219,281212.885,293562.885,293565.79999995,2023-10-17T13:37:23Z,293579.551,NULL,Niveau,kiwango,s,usimamizi,mwamali,mshairi,NA,sdf,NA,0,NA,NA,NA,NA,NA,NA,NA,NA,NA,NA,NA,NA,NA,NA,NA,NA,NA,NA,NA
aa2eb,Deep Question,html.Page,3_0_0_0_4_0_0,NA,NA,form submission,4199.7489999523,293566,293562.885,293579.551,297779.29999995,297779.79999995,2023-10-17T13:37:27Z,297780.076,NULL,Spionage,upelelezi,d,NA,NA,NA,s,NA,NA,0,NA,NA,NA,NA,NA,NA,NA,NA,NA,NA,NA,NA,NA,NA,NA,NA,NA,NA,NA
aa2eb,"""Richtig""-Screen",canvas.Screen,3_0_0_0_4_0_1,NA,NA,skipped,NA,297782.5,NA,NA,297779.29999995,297782.79999995,2023-10-17T13:37:27Z,297780.076,NULL,Spionage,upelelezi,d,NA,NA,NA,NA,sdf,NA,0,NA,NA,NA,NA,NA,NA,NA,NA,NA,NA,NA,NA,NA,NA,NA,NA,NA,NA,NA
aa2eb,"""Falsch""-Screen",canvas.Screen,3_0_0_0_4_0_2,NA,NA,timeout,4999.8,297783.69999993,297763.41,297780.076,302763.21,302767.19999993,2023-10-17T13:37:32Z,302779.876,NULL,Spionage,upelelezi,d,NA,NA,NA,NA,sdf,0,0,NA,NA,NA,NA,NA,NA,NA,NA,NA,NA,NA,NA,NA,NA,NA,NA,NA,NA,NA
aa2eb,deep,flow.Sequence,3_0_0_0_4_0,NA,NA,completion,9183.659,293566,293562.885,293579.551,302763.21,302767.60000002,2023-10-17T13:37:32Z,302779.876,NULL,Spionage,upelelezi,d,NA,NA,NA,NA,sdf,NA,0,NA,NA,NA,NA,NA,NA,NA,NA,NA,NA,NA,NA,NA,NA,NA,NA,NA,NA,NA
aa2eb,shallow,flow.Sequence,3_0_0_0_4_1,NA,NA,skipped,NA,302767.60000002,NA,NA,302763.21,302767.69999993,2023-10-17T13:37:32Z,302779.876,NULL,Spionage,upelelezi,d,NA,NA,NA,NA,sdf,NA,0,NA,NA,NA,NA,NA,NA,NA,NA,NA,NA,NA,NA,NA,NA,NA,NA,NA,NA,NA
aa2eb,task,flow.Sequence,3_0_0_0_4,NA,NA,completion,9183.659,293565.89999998,293562.885,293579.551,302763.21,302767.89999998,2023-10-17T13:37:32Z,302779.876,NULL,Spionage,upelelezi,d,NA,NA,NA,NA,sdf,NA,0,NA,NA,NA,NA,NA,NA,NA,NA,NA,NA,NA,NA,NA,NA,NA,NA,NA,NA,NA
aa2eb,deep,flow.Sequence,3_0_0_0_5_0,NA,NA,skipped,NA,302768,NA,NA,302763.21,302768.19999993,2023-10-17T13:37:32Z,302779.876,NULL,Tester,wanaojaribu,s,sherti,sihiri,mlipuko,NA,sdf,NA,0,NA,NA,NA,NA,NA,NA,NA,NA,NA,NA,NA,NA,NA,NA,NA,NA,NA,NA,NA
aa2eb,Shallow Question,html.Page,3_0_0_0_5_1_0,NA,NA,form submission,4759.5239999762,302768.29999995,302763.21,302779.876,307539.39999998,307539.89999998,2023-10-17T13:37:37Z,307546.838,NULL,Tester,wanaojaribu,s,sherti,sihiri,mlipuko,sherti,NA,NA,0,NA,NA,NA,NA,NA,NA,NA,NA,NA,NA,NA,NA,NA,NA,NA,NA,NA,NA,NA
aa2eb,"""Richtig""-Screen",canvas.Screen,3_0_0_0_5_1_1,NA,NA,skipped,NA,307543.19999993,NA,NA,307539.39999998,307543.39999998,2023-10-17T13:37:37Z,307546.838,NULL,Tester,wanaojaribu,s,sherti,sihiri,mlipuko,NA,sdf,NA,0,NA,NA,NA,NA,NA,NA,NA,NA,NA,NA,NA,NA,NA,NA,NA,NA,NA,NA,NA
aa2eb,"""Falsch""-Screen",canvas.Screen,3_0_0_0_5_1_2,NA,NA,timeout,4999.8,307544.5,307530.172,307546.838,312529.972,312534.19999993,2023-10-17T13:37:42Z,312546.638,NULL,Tester,wanaojaribu,s,sherti,sihiri,mlipuko,NA,sdf,0,0,NA,NA,NA,NA,NA,NA,NA,NA,NA,NA,NA,NA,NA,NA,NA,NA,NA,NA,NA
aa2eb,shallow,flow.Sequence,3_0_0_0_5_1,NA,NA,completion,9750.096,302768.19999993,302763.21,302779.876,312529.972,312534.5,2023-10-17T13:37:42Z,312546.638,NULL,Tester,wanaojaribu,s,sherti,sihiri,mlipuko,NA,sdf,NA,0,NA,NA,NA,NA,NA,NA,NA,NA,NA,NA,NA,NA,NA,NA,NA,NA,NA,NA,NA
aa2eb,task,flow.Sequence,3_0_0_0_5,NA,NA,completion,9750.096,302767.89999998,302763.21,302779.876,312529.972,312534.69999993,2023-10-17T13:37:42Z,312546.638,NULL,Tester,wanaojaribu,s,sherti,sihiri,mlipuko,NA,sdf,NA,0,NA,NA,NA,NA,NA,NA,NA,NA,NA,NA,NA,NA,NA,NA,NA,NA,NA,NA,NA
aa2eb,deep,flow.Sequence,3_0_0_0_6_0,NA,NA,skipped,NA,312534.89999998,NA,NA,312529.972,312535,2023-10-17T13:37:42Z,312546.638,NULL,Papier,karatasi,s,uchambuzi,usalama,kukataliwa,NA,sdf,NA,0,NA,NA,NA,NA,NA,NA,NA,NA,NA,NA,NA,NA,NA,NA,NA,NA,NA,NA,NA
aa2eb,Shallow Question,html.Page,3_0_0_0_6_1_0,NA,NA,form submission,6770.5619999285,312535.10000002,312529.972,312546.638,319317.19999993,319317.79999995,2023-10-17T13:37:49Z,319330.305,NULL,Papier,karatasi,s,uchambuzi,usalama,kukataliwa,kukataliwa,NA,NA,0,NA,NA,NA,NA,NA,NA,NA,NA,NA,NA,NA,NA,NA,NA,NA,NA,NA,NA,NA
aa2eb,"""Richtig""-Screen",canvas.Screen,3_0_0_0_6_1_1,NA,NA,skipped,NA,319321.10000002,NA,NA,319317.19999993,319321.39999998,2023-10-17T13:37:49Z,319330.305,NULL,Papier,karatasi,s,uchambuzi,usalama,kukataliwa,NA,sdf,NA,0,NA,NA,NA,NA,NA,NA,NA,NA,NA,NA,NA,NA,NA,NA,NA,NA,NA,NA,NA
aa2eb,"""Falsch""-Screen",canvas.Screen,3_0_0_0_6_1_2,NA,NA,timeout,4999.8,319322.19999993,319313.639,319330.305,324313.439,324318.69999993,2023-10-17T13:37:54Z,324330.105,NULL,Papier,karatasi,s,uchambuzi,usalama,kukataliwa,NA,sdf,0,0,NA,NA,NA,NA,NA,NA,NA,NA,NA,NA,NA,NA,NA,NA,NA,NA,NA,NA,NA
aa2eb,shallow,flow.Sequence,3_0_0_0_6_1,NA,NA,completion,11766.801,312535,312529.972,312546.638,324313.439,324319.10000002,2023-10-17T13:37:54Z,324330.105,NULL,Papier,karatasi,s,uchambuzi,usalama,kukataliwa,NA,sdf,NA,0,NA,NA,NA,NA,NA,NA,NA,NA,NA,NA,NA,NA,NA,NA,NA,NA,NA,NA,NA
aa2eb,task,flow.Sequence,3_0_0_0_6,NA,NA,completion,11766.801,312534.79999995,312529.972,312546.638,324313.439,324319.29999995,2023-10-17T13:37:54Z,324330.105,NULL,Papier,karatasi,s,uchambuzi,usalama,kukataliwa,NA,sdf,NA,0,NA,NA,NA,NA,NA,NA,NA,NA,NA,NA,NA,NA,NA,NA,NA,NA,NA,NA,NA
aa2eb,deep,flow.Sequence,3_0_0_0_7_0,NA,NA,skipped,NA,324319.39999998,NA,NA,324313.439,324319.60000002,2023-10-17T13:37:54Z,324330.105,NULL,Schüler,mwanafunzi,s,mwekezaji,matumizi,uaminifu,NA,sdf,NA,0,NA,NA,NA,NA,NA,NA,NA,NA,NA,NA,NA,NA,NA,NA,NA,NA,NA,NA,NA
aa2eb,Shallow Question,html.Page,3_0_0_0_7_1_0,NA,NA,form submission,5381.0949999285,324319.69999993,324313.439,324330.105,329711.19999993,329711.60000002,2023-10-17T13:37:59Z,329713.791,NULL,Schüler,mwanafunzi,s,mwekezaji,matumizi,uaminifu,mwanafunzi,NA,NA,0,NA,NA,NA,NA,NA,NA,NA,NA,NA,NA,NA,NA,NA,NA,NA,NA,NA,NA,NA
aa2eb,"""Richtig""-Screen",canvas.Screen,3_0_0_0_7_1_1,NA,NA,timeout,4999.8,329714.10000002,329697.125,329713.791,334696.925,334701.19999993,2023-10-17T13:38:04Z,334713.591,NULL,Schüler,mwanafunzi,s,mwekezaji,matumizi,uaminifu,NA,sdf,1,0,NA,NA,NA,NA,NA,NA,NA,NA,NA,NA,NA,NA,NA,NA,NA,NA,NA,NA,NA
aa2eb,"""Falsch""-Screen",canvas.Screen,3_0_0_0_7_1_2,NA,NA,skipped,NA,334704.79999995,NA,NA,334696.925,334704.79999995,2023-10-17T13:38:04Z,334713.591,NULL,Schüler,mwanafunzi,s,mwekezaji,matumizi,uaminifu,NA,sdf,NA,0,NA,NA,NA,NA,NA,NA,NA,NA,NA,NA,NA,NA,NA,NA,NA,NA,NA,NA,NA
aa2eb,shallow,flow.Sequence,3_0_0_0_7_1,NA,NA,completion,10366.82,324319.60000002,324313.439,324330.105,334696.925,334705.10000002,2023-10-17T13:38:04Z,334713.591,NULL,Schüler,mwanafunzi,s,mwekezaji,matumizi,uaminifu,NA,sdf,NA,0,NA,NA,NA,NA,NA,NA,NA,NA,NA,NA,NA,NA,NA,NA,NA,NA,NA,NA,NA
aa2eb,task,flow.Sequence,3_0_0_0_7,NA,NA,completion,10366.82,324319.39999998,324313.439,324330.105,334696.925,334705.10000002,2023-10-17T13:38:04Z,334713.591,NULL,Schüler,mwanafunzi,s,mwekezaji,matumizi,uaminifu,NA,sdf,NA,0,NA,NA,NA,NA,NA,NA,NA,NA,NA,NA,NA,NA,NA,NA,NA,NA,NA,NA,NA
aa2eb,block,flow.Loop,3_0_0_0,NA,NA,completion,80519.799,254163.69999993,254160.46,254177.126,334696.925,334705.29999995,2023-10-17T13:38:04Z,334713.591,NULL,NA,NA,NA,NA,NA,NA,NA,sdf,NA,0,NA,NA,NA,NA,NA,NA,NA,NA,NA,NA,NA,NA,NA,NA,NA,NA,NA,NA,NA
aa2eb,weiter,canvas.Screen,3_0_0_1,sdf,keypress(Space),response,1445.409,334705.39999998,334696.925,334713.591,336159,336165.5,2023-10-17T13:38:06Z,336196.865,NULL,NA,NA,NA,NA,NA,NA,NA,sdf,NA,0,NA,NA,NA,NA,NA,NA,NA,NA,NA,NA,NA,NA,NA,NA,NA,NA,NA,NA,NA
aa2eb,check continue,flow.Sequence,3_0_0,NA,NA,completion,81981.874,254163.69999993,254160.46,254177.126,336159,336165.69999993,2023-10-17T13:38:06Z,336196.865,NULL,NA,NA,NA,NA,NA,NA,NA,sdf,NA,0,NA,NA,NA,NA,NA,NA,NA,NA,NA,NA,NA,NA,NA,NA,NA,NA,NA,NA,NA
aa2eb,Deep Question,html.Page,3_0_1_0_0_0_0,NA,NA,form submission,8089.8349999285,336189.79999995,336180.199,336196.865,344286.69999993,344287.10000002,2023-10-17T13:38:14Z,344297.2,NULL,Spionage,upelelezi,d,NA,NA,NA,keke,NA,NA,1,NA,NA,NA,NA,NA,NA,NA,NA,NA,NA,NA,NA,NA,NA,NA,NA,NA,NA,NA
aa2eb,"""Richtig""-Screen",canvas.Screen,3_0_1_0_0_0_1,NA,NA,skipped,NA,344289.79999995,NA,NA,344286.69999993,344289.89999998,2023-10-17T13:38:14Z,344297.2,NULL,Spionage,upelelezi,d,NA,NA,NA,NA,sdfdsf,NA,1,NA,NA,NA,NA,NA,NA,NA,NA,NA,NA,NA,NA,NA,NA,NA,NA,NA,NA,NA
aa2eb,"""Falsch""-Screen",canvas.Screen,3_0_1_0_0_0_2,NA,NA,timeout,4999.8,344290.69999993,344280.534,344297.2,349280.334,349284.89999998,2023-10-17T13:38:19Z,349297,NULL,Spionage,upelelezi,d,NA,NA,NA,NA,sdfdsf,0,1,NA,NA,NA,NA,NA,NA,NA,NA,NA,NA,NA,NA,NA,NA,NA,NA,NA,NA,NA
aa2eb,deep,flow.Sequence,3_0_1_0_0_0,NA,NA,completion,13083.469,336189.79999995,336180.199,336196.865,349280.334,349285.19999993,2023-10-17T13:38:19Z,349297,NULL,Spionage,upelelezi,d,NA,NA,NA,NA,sdfdsf,NA,1,NA,NA,NA,NA,NA,NA,NA,NA,NA,NA,NA,NA,NA,NA,NA,NA,NA,NA,NA
aa2eb,shallow,flow.Sequence,3_0_1_0_0_1,NA,NA,skipped,NA,349285.29999995,NA,NA,349280.334,349285.5,2023-10-17T13:38:19Z,349297,NULL,Spionage,upelelezi,d,NA,NA,NA,NA,sdfdsf,NA,1,NA,NA,NA,NA,NA,NA,NA,NA,NA,NA,NA,NA,NA,NA,NA,NA,NA,NA,NA
aa2eb,task,flow.Sequence,3_0_1_0_0,NA,NA,completion,13083.469,336189.79999995,336180.199,336196.865,349280.334,349285.69999993,2023-10-17T13:38:19Z,349297,NULL,Spionage,upelelezi,d,NA,NA,NA,NA,sdfdsf,NA,1,NA,NA,NA,NA,NA,NA,NA,NA,NA,NA,NA,NA,NA,NA,NA,NA,NA,NA,NA
aa2eb,deep,flow.Sequence,3_0_1_0_1_0,NA,NA,skipped,NA,349285.79999995,NA,NA,349280.334,349285.89999998,2023-10-17T13:38:19Z,349297,NULL,Niveau,kiwango,s,usimamizi,mwamali,mshairi,NA,sdfdsf,NA,1,NA,NA,NA,NA,NA,NA,NA,NA,NA,NA,NA,NA,NA,NA,NA,NA,NA,NA,NA
aa2eb,Shallow Question,html.Page,3_0_1_0_1_1_0,NA,NA,form submission,11173.799999952,349286,349280.334,349297,360470.79999995,360471.19999993,2023-10-17T13:38:30Z,360480.809,NULL,Niveau,kiwango,s,usimamizi,mwamali,mshairi,mshairi,NA,NA,1,NA,NA,NA,NA,NA,NA,NA,NA,NA,NA,NA,NA,NA,NA,NA,NA,NA,NA,NA
aa2eb,"""Richtig""-Screen",canvas.Screen,3_0_1_0_1_1_1,NA,NA,skipped,NA,360474.39999998,NA,NA,360470.79999995,360474.5,2023-10-17T13:38:30Z,360480.809,NULL,Niveau,kiwango,s,usimamizi,mwamali,mshairi,NA,sdfdsf,NA,1,NA,NA,NA,NA,NA,NA,NA,NA,NA,NA,NA,NA,NA,NA,NA,NA,NA,NA,NA
aa2eb,"""Falsch""-Screen",canvas.Screen,3_0_1_0_1_1_2,NA,NA,timeout,5000.221,360475.29999995,360464.143,360480.809,365464.364,365469.69999993,2023-10-17T13:38:35Z,365481.03,NULL,Niveau,kiwango,s,usimamizi,mwamali,mshairi,NA,sdfdsf,0,1,NA,NA,NA,NA,NA,NA,NA,NA,NA,NA,NA,NA,NA,NA,NA,NA,NA,NA,NA
aa2eb,shallow,flow.Sequence,3_0_1_0_1_1,NA,NA,completion,16167.364,349286,349280.334,349297,365464.364,365469.89999998,2023-10-17T13:38:35Z,365481.03,NULL,Niveau,kiwango,s,usimamizi,mwamali,mshairi,NA,sdfdsf,NA,1,NA,NA,NA,NA,NA,NA,NA,NA,NA,NA,NA,NA,NA,NA,NA,NA,NA,NA,NA
aa2eb,task,flow.Sequence,3_0_1_0_1,NA,NA,completion,16167.364,349285.69999993,349280.334,349297,365464.364,365470.10000002,2023-10-17T13:38:35Z,365481.03,NULL,Niveau,kiwango,s,usimamizi,mwamali,mshairi,NA,sdfdsf,NA,1,NA,NA,NA,NA,NA,NA,NA,NA,NA,NA,NA,NA,NA,NA,NA,NA,NA,NA,NA
aa2eb,Deep Question,html.Page,3_0_1_0_2_0_0,NA,NA,form submission,8586.97,365470.19999993,365464.364,365481.03,374068,374068.5,2023-10-17T13:38:43Z,374080.686,NULL,Entwicklung,maendeleo,d,NA,NA,NA,mala,NA,NA,1,NA,NA,NA,NA,NA,NA,NA,NA,NA,NA,NA,NA,NA,NA,NA,NA,NA,NA,NA
aa2eb,"""Richtig""-Screen",canvas.Screen,3_0_1_0_2_0_1,NA,NA,skipped,NA,374071,NA,NA,374068,374071,2023-10-17T13:38:43Z,374080.686,NULL,Entwicklung,maendeleo,d,NA,NA,NA,NA,sdfdsf,NA,1,NA,NA,NA,NA,NA,NA,NA,NA,NA,NA,NA,NA,NA,NA,NA,NA,NA,NA,NA
aa2eb,"""Falsch""-Screen",canvas.Screen,3_0_1_0_2_0_2,NA,NA,timeout,5000.432,374071.5,374064.02,374080.686,379064.452,379068.89999998,2023-10-17T13:38:48Z,379081.118,NULL,Entwicklung,maendeleo,d,NA,NA,NA,NA,sdfdsf,0,1,NA,NA,NA,NA,NA,NA,NA,NA,NA,NA,NA,NA,NA,NA,NA,NA,NA,NA,NA
aa2eb,deep,flow.Sequence,3_0_1_0_2_0,NA,NA,completion,13583.422,365470.10000002,365464.364,365481.03,379064.452,379069.29999995,2023-10-17T13:38:48Z,379081.118,NULL,Entwicklung,maendeleo,d,NA,NA,NA,NA,sdfdsf,NA,1,NA,NA,NA,NA,NA,NA,NA,NA,NA,NA,NA,NA,NA,NA,NA,NA,NA,NA,NA
aa2eb,shallow,flow.Sequence,3_0_1_0_2_1,NA,NA,skipped,NA,379069.39999998,NA,NA,379064.452,379069.39999998,2023-10-17T13:38:48Z,379081.118,NULL,Entwicklung,maendeleo,d,NA,NA,NA,NA,sdfdsf,NA,1,NA,NA,NA,NA,NA,NA,NA,NA,NA,NA,NA,NA,NA,NA,NA,NA,NA,NA,NA
aa2eb,task,flow.Sequence,3_0_1_0_2,NA,NA,completion,13583.422,365470.10000002,365464.364,365481.03,379064.452,379069.60000002,2023-10-17T13:38:48Z,379081.118,NULL,Entwicklung,maendeleo,d,NA,NA,NA,NA,sdfdsf,NA,1,NA,NA,NA,NA,NA,NA,NA,NA,NA,NA,NA,NA,NA,NA,NA,NA,NA,NA,NA
aa2eb,deep,flow.Sequence,3_0_1_0_3_0,NA,NA,skipped,NA,379069.69999993,NA,NA,379064.452,379069.89999998,2023-10-17T13:38:48Z,379081.118,NULL,Papier,karatasi,s,uchambuzi,usalama,kukataliwa,NA,sdfdsf,NA,1,NA,NA,NA,NA,NA,NA,NA,NA,NA,NA,NA,NA,NA,NA,NA,NA,NA,NA,NA
aa2eb,Shallow Question,html.Page,3_0_1_0_3_1_0,NA,NA,form submission,8900.0819999285,379070,379064.452,379081.118,387981.19999993,387981.69999993,2023-10-17T13:38:57Z,387980.762,NULL,Papier,karatasi,s,uchambuzi,usalama,kukataliwa,kukataliwa,NA,NA,1,NA,NA,NA,NA,NA,NA,NA,NA,NA,NA,NA,NA,NA,NA,NA,NA,NA,NA,NA
aa2eb,"""Richtig""-Screen",canvas.Screen,3_0_1_0_3_1_1,NA,NA,skipped,NA,387984.19999993,NA,NA,387981.19999993,387984.29999995,2023-10-17T13:38:57Z,387980.762,NULL,Papier,karatasi,s,uchambuzi,usalama,kukataliwa,NA,sdfdsf,NA,1,NA,NA,NA,NA,NA,NA,NA,NA,NA,NA,NA,NA,NA,NA,NA,NA,NA,NA,NA
aa2eb,"""Falsch""-Screen",canvas.Screen,3_0_1_0_3_1_2,NA,NA,timeout,5000.812,387984.79999995,387964.096,387980.762,392964.908,392970,2023-10-17T13:39:02Z,392981.574,NULL,Papier,karatasi,s,uchambuzi,usalama,kukataliwa,NA,sdfdsf,0,1,NA,NA,NA,NA,NA,NA,NA,NA,NA,NA,NA,NA,NA,NA,NA,NA,NA,NA,NA
aa2eb,shallow,flow.Sequence,3_0_1_0_3_1,NA,NA,completion,13883.79,379069.89999998,379064.452,379081.118,392964.908,392970.29999995,2023-10-17T13:39:02Z,392981.574,NULL,Papier,karatasi,s,uchambuzi,usalama,kukataliwa,NA,sdfdsf,NA,1,NA,NA,NA,NA,NA,NA,NA,NA,NA,NA,NA,NA,NA,NA,NA,NA,NA,NA,NA
aa2eb,task,flow.Sequence,3_0_1_0_3,NA,NA,completion,13883.79,379069.69999993,379064.452,379081.118,392964.908,392970.5,2023-10-17T13:39:02Z,392981.574,NULL,Papier,karatasi,s,uchambuzi,usalama,kukataliwa,NA,sdfdsf,NA,1,NA,NA,NA,NA,NA,NA,NA,NA,NA,NA,NA,NA,NA,NA,NA,NA,NA,NA,NA
aa2eb,Deep Question,html.Page,3_0_1_0_4_0_0,NA,NA,form submission,5656.926,392970.79999995,392964.908,392981.574,398638.5,398639.10000002,2023-10-17T13:39:08Z,398648.014,NULL,Vorwurf,mashtaka,d,NA,NA,NA,w,NA,NA,1,NA,NA,NA,NA,NA,NA,NA,NA,NA,NA,NA,NA,NA,NA,NA,NA,NA,NA,NA
aa2eb,"""Richtig""-Screen",canvas.Screen,3_0_1_0_4_0_1,NA,NA,skipped,NA,398642.5,NA,NA,398638.5,398642.60000002,2023-10-17T13:39:08Z,398648.014,NULL,Vorwurf,mashtaka,d,NA,NA,NA,NA,sdfdsf,NA,1,NA,NA,NA,NA,NA,NA,NA,NA,NA,NA,NA,NA,NA,NA,NA,NA,NA,NA,NA
aa2eb,"""Falsch""-Screen",canvas.Screen,3_0_1_0_4_0_2,NA,NA,timeout,5000.452,398643.60000002,398631.348,398648.014,403631.8,403637.89999998,2023-10-17T13:39:13Z,403648.466,NULL,Vorwurf,mashtaka,d,NA,NA,NA,NA,sdfdsf,0,1,NA,NA,NA,NA,NA,NA,NA,NA,NA,NA,NA,NA,NA,NA,NA,NA,NA,NA,NA
aa2eb,deep,flow.Sequence,3_0_1_0_4_0,NA,NA,completion,10650.226,392970.69999993,392964.908,392981.574,403631.8,403638.5,2023-10-17T13:39:13Z,403648.466,NULL,Vorwurf,mashtaka,d,NA,NA,NA,NA,sdfdsf,NA,1,NA,NA,NA,NA,NA,NA,NA,NA,NA,NA,NA,NA,NA,NA,NA,NA,NA,NA,NA
aa2eb,shallow,flow.Sequence,3_0_1_0_4_1,NA,NA,skipped,NA,403638.5,NA,NA,403631.8,403638.69999993,2023-10-17T13:39:13Z,403648.466,NULL,Vorwurf,mashtaka,d,NA,NA,NA,NA,sdfdsf,NA,1,NA,NA,NA,NA,NA,NA,NA,NA,NA,NA,NA,NA,NA,NA,NA,NA,NA,NA,NA
aa2eb,task,flow.Sequence,3_0_1_0_4,NA,NA,completion,10650.226,392970.69999993,392964.908,392981.574,403631.8,403638.89999998,2023-10-17T13:39:13Z,403648.466,NULL,Vorwurf,mashtaka,d,NA,NA,NA,NA,sdfdsf,NA,1,NA,NA,NA,NA,NA,NA,NA,NA,NA,NA,NA,NA,NA,NA,NA,NA,NA,NA,NA
aa2eb,deep,flow.Sequence,3_0_1_0_5_0,NA,NA,skipped,NA,403639.10000002,NA,NA,403631.8,403639.19999993,2023-10-17T13:39:13Z,403648.466,NULL,Tester,wanaojaribu,s,sherti,sihiri,mlipuko,NA,sdfdsf,NA,1,NA,NA,NA,NA,NA,NA,NA,NA,NA,NA,NA,NA,NA,NA,NA,NA,NA,NA,NA
aa2eb,Shallow Question,html.Page,3_0_1_0_5_1_0,NA,NA,form submission,7056.2339999285,403639.29999995,403631.8,403648.466,410704.69999993,410705.19999993,2023-10-17T13:39:20Z,410714.85,NULL,Tester,wanaojaribu,s,sherti,sihiri,mlipuko,sherti,NA,NA,1,NA,NA,NA,NA,NA,NA,NA,NA,NA,NA,NA,NA,NA,NA,NA,NA,NA,NA,NA
aa2eb,"""Richtig""-Screen",canvas.Screen,3_0_1_0_5_1_1,NA,NA,skipped,NA,410708.19999993,NA,NA,410704.69999993,410708.29999995,2023-10-17T13:39:20Z,410714.85,NULL,Tester,wanaojaribu,s,sherti,sihiri,mlipuko,NA,sdfdsf,NA,1,NA,NA,NA,NA,NA,NA,NA,NA,NA,NA,NA,NA,NA,NA,NA,NA,NA,NA,NA
aa2eb,"""Falsch""-Screen",canvas.Screen,3_0_1_0_5_1_2,NA,NA,timeout,5000.281,410709,410698.184,410714.85,415698.465,415702.10000002,2023-10-17T13:39:25Z,415715.131,NULL,Tester,wanaojaribu,s,sherti,sihiri,mlipuko,NA,sdfdsf,0,1,NA,NA,NA,NA,NA,NA,NA,NA,NA,NA,NA,NA,NA,NA,NA,NA,NA,NA,NA
aa2eb,shallow,flow.Sequence,3_0_1_0_5_1,NA,NA,completion,12049.999,403639.29999995,403631.8,403648.466,415698.465,415702.39999998,2023-10-17T13:39:25Z,415715.131,NULL,Tester,wanaojaribu,s,sherti,sihiri,mlipuko,NA,sdfdsf,NA,1,NA,NA,NA,NA,NA,NA,NA,NA,NA,NA,NA,NA,NA,NA,NA,NA,NA,NA,NA
aa2eb,task,flow.Sequence,3_0_1_0_5,NA,NA,completion,12049.999,403639.10000002,403631.8,403648.466,415698.465,415702.60000002,2023-10-17T13:39:25Z,415715.131,NULL,Tester,wanaojaribu,s,sherti,sihiri,mlipuko,NA,sdfdsf,NA,1,NA,NA,NA,NA,NA,NA,NA,NA,NA,NA,NA,NA,NA,NA,NA,NA,NA,NA,NA
aa2eb,deep,flow.Sequence,3_0_1_0_6_0,NA,NA,skipped,NA,415702.79999995,NA,NA,415698.465,415702.89999998,2023-10-17T13:39:25Z,415715.131,NULL,Schüler,mwanafunzi,s,mwekezaji,matumizi,uaminifu,NA,sdfdsf,NA,1,NA,NA,NA,NA,NA,NA,NA,NA,NA,NA,NA,NA,NA,NA,NA,NA,NA,NA,NA
aa2eb,Shallow Question,html.Page,3_0_1_0_6_1_0,NA,NA,form submission,4536.5689999285,415703.10000002,415698.465,415715.131,420251.69999993,420252.10000002,2023-10-17T13:39:30Z,420264.949,NULL,Schüler,mwanafunzi,s,mwekezaji,matumizi,uaminifu,mwanafunzi,NA,NA,1,NA,NA,NA,NA,NA,NA,NA,NA,NA,NA,NA,NA,NA,NA,NA,NA,NA,NA,NA
aa2eb,"""Richtig""-Screen",canvas.Screen,3_0_1_0_6_1_1,NA,NA,timeout,4999.8,420254.69999993,420248.283,420264.949,425248.083,425253.10000002,2023-10-17T13:39:35Z,425264.749,NULL,Schüler,mwanafunzi,s,mwekezaji,matumizi,uaminifu,NA,sdfdsf,1,1,NA,NA,NA,NA,NA,NA,NA,NA,NA,NA,NA,NA,NA,NA,NA,NA,NA,NA,NA
aa2eb,"""Falsch""-Screen",canvas.Screen,3_0_1_0_6_1_2,NA,NA,skipped,NA,425257.29999995,NA,NA,425248.083,425257.5,2023-10-17T13:39:35Z,425264.749,NULL,Schüler,mwanafunzi,s,mwekezaji,matumizi,uaminifu,NA,sdfdsf,NA,1,NA,NA,NA,NA,NA,NA,NA,NA,NA,NA,NA,NA,NA,NA,NA,NA,NA,NA,NA
aa2eb,shallow,flow.Sequence,3_0_1_0_6_1,NA,NA,completion,9532.952,415703,415698.465,415715.131,425248.083,425257.60000002,2023-10-17T13:39:35Z,425264.749,NULL,Schüler,mwanafunzi,s,mwekezaji,matumizi,uaminifu,NA,sdfdsf,NA,1,NA,NA,NA,NA,NA,NA,NA,NA,NA,NA,NA,NA,NA,NA,NA,NA,NA,NA,NA
aa2eb,task,flow.Sequence,3_0_1_0_6,NA,NA,completion,9532.952,415702.69999993,415698.465,415715.131,425248.083,425257.60000002,2023-10-17T13:39:35Z,425264.749,NULL,Schüler,mwanafunzi,s,mwekezaji,matumizi,uaminifu,NA,sdfdsf,NA,1,NA,NA,NA,NA,NA,NA,NA,NA,NA,NA,NA,NA,NA,NA,NA,NA,NA,NA,NA
aa2eb,Deep Question,html.Page,3_0_1_0_7_0_0,NA,NA,form submission,8275.6509999761,425257.79999995,425248.083,425264.749,433540.39999998,433540.69999993,2023-10-17T13:39:43Z,433548.566,NULL,Fenster,dirisha,d,NA,NA,NA,mashtaka,NA,NA,1,NA,NA,NA,NA,NA,NA,NA,NA,NA,NA,NA,NA,NA,NA,NA,NA,NA,NA,NA
aa2eb,"""Richtig""-Screen",canvas.Screen,3_0_1_0_7_0_1,NA,NA,skipped,NA,433543.19999993,NA,NA,433540.39999998,433543.29999995,2023-10-17T13:39:43Z,433548.566,NULL,Fenster,dirisha,d,NA,NA,NA,NA,sdfdsf,NA,1,NA,NA,NA,NA,NA,NA,NA,NA,NA,NA,NA,NA,NA,NA,NA,NA,NA,NA,NA
aa2eb,"""Falsch""-Screen",canvas.Screen,3_0_1_0_7_0_2,NA,NA,timeout,5000.242,433543.89999998,433531.9,433548.566,438532.142,438534,2023-10-17T13:39:48Z,438548.808,NULL,Fenster,dirisha,d,NA,NA,NA,NA,sdfdsf,0,1,NA,NA,NA,NA,NA,NA,NA,NA,NA,NA,NA,NA,NA,NA,NA,NA,NA,NA,NA
aa2eb,deep,flow.Sequence,3_0_1_0_7_0,NA,NA,completion,13267.393,425257.69999993,425248.083,425264.749,438532.142,438534.29999995,2023-10-17T13:39:48Z,438548.808,NULL,Fenster,dirisha,d,NA,NA,NA,NA,sdfdsf,NA,1,NA,NA,NA,NA,NA,NA,NA,NA,NA,NA,NA,NA,NA,NA,NA,NA,NA,NA,NA
aa2eb,shallow,flow.Sequence,3_0_1_0_7_1,NA,NA,skipped,NA,438534.5,NA,NA,438532.142,438534.60000002,2023-10-17T13:39:48Z,438548.808,NULL,Fenster,dirisha,d,NA,NA,NA,NA,sdfdsf,NA,1,NA,NA,NA,NA,NA,NA,NA,NA,NA,NA,NA,NA,NA,NA,NA,NA,NA,NA,NA
aa2eb,task,flow.Sequence,3_0_1_0_7,NA,NA,completion,13267.393,425257.69999993,425248.083,425264.749,438532.142,438534.79999995,2023-10-17T13:39:48Z,438548.808,NULL,Fenster,dirisha,d,NA,NA,NA,NA,sdfdsf,NA,1,NA,NA,NA,NA,NA,NA,NA,NA,NA,NA,NA,NA,NA,NA,NA,NA,NA,NA,NA
aa2eb,block,flow.Loop,3_0_1_0,NA,NA,completion,102335.277,336189.79999995,336180.199,336196.865,438532.142,438535,2023-10-17T13:39:48Z,438548.808,NULL,NA,NA,NA,NA,NA,NA,NA,sdfdsf,NA,1,NA,NA,NA,NA,NA,NA,NA,NA,NA,NA,NA,NA,NA,NA,NA,NA,NA,NA,NA
aa2eb,weiter,canvas.Screen,3_0_1_1,sdf,keypress(Space),response,1108.3919999285,438535.10000002,438532.142,438548.808,439657.19999993,439665.39999998,2023-10-17T13:39:49Z,439698.762,NULL,NA,NA,NA,NA,NA,NA,NA,sdfdsf,NA,1,NA,NA,NA,NA,NA,NA,NA,NA,NA,NA,NA,NA,NA,NA,NA,NA,NA,NA,NA
aa2eb,check continue,flow.Sequence,3_0_1,NA,NA,completion,103460.33499993,336189.79999995,336180.199,336196.865,439657.19999993,439665.60000002,2023-10-17T13:39:49Z,439698.762,NULL,NA,NA,NA,NA,NA,NA,NA,sdfdsf,NA,1,NA,NA,NA,NA,NA,NA,NA,NA,NA,NA,NA,NA,NA,NA,NA,NA,NA,NA,NA
aa2eb,Deep Question,html.Page,3_0_2_0_0_0_0,NA,NA,form submission,7345.238,439689.10000002,439682.096,439698.762,447044,447044.5,2023-10-17T13:39:56Z,447048.468,NULL,Fenster,dirisha,d,NA,NA,NA,marisha,NA,NA,2,NA,NA,NA,NA,NA,NA,NA,NA,NA,NA,NA,NA,NA,NA,NA,NA,NA,NA,NA
aa2eb,"""Richtig""-Screen",canvas.Screen,3_0_2_0_0_0_1,NA,NA,skipped,NA,447047.5,NA,NA,447044,447047.69999993,2023-10-17T13:39:56Z,447048.468,NULL,Fenster,dirisha,d,NA,NA,NA,NA,sdf,NA,2,NA,NA,NA,NA,NA,NA,NA,NA,NA,NA,NA,NA,NA,NA,NA,NA,NA,NA,NA
aa2eb,"""Falsch""-Screen",canvas.Screen,3_0_2_0_0_0_2,NA,NA,timeout,5000.737,447048.29999995,447031.802,447048.468,452032.539,452037.39999998,2023-10-17T13:40:01Z,452049.205,NULL,Fenster,dirisha,d,NA,NA,NA,NA,sdf,0,2,NA,NA,NA,NA,NA,NA,NA,NA,NA,NA,NA,NA,NA,NA,NA,NA,NA,NA,NA
aa2eb,deep,flow.Sequence,3_0_2_0_0_0,NA,NA,completion,12333.777,439689.10000002,439682.096,439698.762,452032.539,452037.69999993,2023-10-17T13:40:01Z,452049.205,NULL,Fenster,dirisha,d,NA,NA,NA,NA,sdf,NA,2,NA,NA,NA,NA,NA,NA,NA,NA,NA,NA,NA,NA,NA,NA,NA,NA,NA,NA,NA
aa2eb,shallow,flow.Sequence,3_0_2_0_0_1,NA,NA,skipped,NA,452037.89999998,NA,NA,452032.539,452038,2023-10-17T13:40:01Z,452049.205,NULL,Fenster,dirisha,d,NA,NA,NA,NA,sdf,NA,2,NA,NA,NA,NA,NA,NA,NA,NA,NA,NA,NA,NA,NA,NA,NA,NA,NA,NA,NA
aa2eb,task,flow.Sequence,3_0_2_0_0,NA,NA,completion,12333.777,439689.10000002,439682.096,439698.762,452032.539,452038.10000002,2023-10-17T13:40:01Z,452049.205,NULL,Fenster,dirisha,d,NA,NA,NA,NA,sdf,NA,2,NA,NA,NA,NA,NA,NA,NA,NA,NA,NA,NA,NA,NA,NA,NA,NA,NA,NA,NA
aa2eb,Deep Question,html.Page,3_0_2_0_1_0_0,NA,NA,form submission,7950.1949999761,452038.29999995,452032.539,452049.205,459999.39999998,459999.79999995,2023-10-17T13:40:09Z,459998.887,NULL,Entwicklung,maendeleo,d,NA,NA,NA,malaendo,NA,NA,2,NA,NA,NA,NA,NA,NA,NA,NA,NA,NA,NA,NA,NA,NA,NA,NA,NA,NA,NA
aa2eb,"""Richtig""-Screen",canvas.Screen,3_0_2_0_1_0_1,NA,NA,skipped,NA,460002.39999998,NA,NA,459999.39999998,460002.5,2023-10-17T13:40:09Z,459998.887,NULL,Entwicklung,maendeleo,d,NA,NA,NA,NA,sdf,NA,2,NA,NA,NA,NA,NA,NA,NA,NA,NA,NA,NA,NA,NA,NA,NA,NA,NA,NA,NA
aa2eb,"""Falsch""-Screen",canvas.Screen,3_0_2_0_1_0_2,NA,NA,timeout,5000.318,460003,459982.221,459998.887,464982.539,464986.79999995,2023-10-17T13:40:14Z,464999.205,NULL,Entwicklung,maendeleo,d,NA,NA,NA,NA,sdf,0,2,NA,NA,NA,NA,NA,NA,NA,NA,NA,NA,NA,NA,NA,NA,NA,NA,NA,NA,NA
aa2eb,deep,flow.Sequence,3_0_2_0_1_0,NA,NA,completion,12933.334,452038.29999995,452032.539,452049.205,464982.539,464987.19999993,2023-10-17T13:40:14Z,464999.205,NULL,Entwicklung,maendeleo,d,NA,NA,NA,NA,sdf,NA,2,NA,NA,NA,NA,NA,NA,NA,NA,NA,NA,NA,NA,NA,NA,NA,NA,NA,NA,NA
aa2eb,shallow,flow.Sequence,3_0_2_0_1_1,NA,NA,skipped,NA,464987.39999998,NA,NA,464982.539,464987.60000002,2023-10-17T13:40:14Z,464999.205,NULL,Entwicklung,maendeleo,d,NA,NA,NA,NA,sdf,NA,2,NA,NA,NA,NA,NA,NA,NA,NA,NA,NA,NA,NA,NA,NA,NA,NA,NA,NA,NA
aa2eb,task,flow.Sequence,3_0_2_0_1,NA,NA,completion,12933.334,452038.19999993,452032.539,452049.205,464982.539,464987.79999995,2023-10-17T13:40:14Z,464999.205,NULL,Entwicklung,maendeleo,d,NA,NA,NA,NA,sdf,NA,2,NA,NA,NA,NA,NA,NA,NA,NA,NA,NA,NA,NA,NA,NA,NA,NA,NA,NA,NA
aa2eb,deep,flow.Sequence,3_0_2_0_2_0,NA,NA,skipped,NA,464987.89999998,NA,NA,464982.539,464987.89999998,2023-10-17T13:40:14Z,464999.205,NULL,Tester,wanaojaribu,s,sherti,sihiri,mlipuko,NA,sdf,NA,2,NA,NA,NA,NA,NA,NA,NA,NA,NA,NA,NA,NA,NA,NA,NA,NA,NA,NA,NA
aa2eb,Shallow Question,html.Page,3_0_2_0_2_1_0,NA,NA,form submission,6224.5949999523,464988.10000002,464982.539,464999.205,471223.79999995,471224.29999995,2023-10-17T13:40:21Z,471232.289,NULL,Tester,wanaojaribu,s,sherti,sihiri,mlipuko,wanaojaribu,NA,NA,2,NA,NA,NA,NA,NA,NA,NA,NA,NA,NA,NA,NA,NA,NA,NA,NA,NA,NA,NA
aa2eb,"""Richtig""-Screen",canvas.Screen,3_0_2_0_2_1_1,NA,NA,timeout,5000.455,471226.69999993,471215.623,471232.289,476216.078,476220.60000002,2023-10-17T13:40:26Z,476232.744,NULL,Tester,wanaojaribu,s,sherti,sihiri,mlipuko,NA,sdf,1,2,NA,NA,NA,NA,NA,NA,NA,NA,NA,NA,NA,NA,NA,NA,NA,NA,NA,NA,NA
aa2eb,"""Falsch""-Screen",canvas.Screen,3_0_2_0_2_1_2,NA,NA,skipped,NA,476224.69999993,NA,NA,476216.078,476224.79999995,2023-10-17T13:40:26Z,476232.744,NULL,Tester,wanaojaribu,s,sherti,sihiri,mlipuko,NA,sdf,NA,2,NA,NA,NA,NA,NA,NA,NA,NA,NA,NA,NA,NA,NA,NA,NA,NA,NA,NA,NA
aa2eb,shallow,flow.Sequence,3_0_2_0_2_1,NA,NA,completion,11216.873,464988.10000002,464982.539,464999.205,476216.078,476225,2023-10-17T13:40:26Z,476232.744,NULL,Tester,wanaojaribu,s,sherti,sihiri,mlipuko,NA,sdf,NA,2,NA,NA,NA,NA,NA,NA,NA,NA,NA,NA,NA,NA,NA,NA,NA,NA,NA,NA,NA
aa2eb,task,flow.Sequence,3_0_2_0_2,NA,NA,completion,11216.873,464987.89999998,464982.539,464999.205,476216.078,476225.10000002,2023-10-17T13:40:26Z,476232.744,NULL,Tester,wanaojaribu,s,sherti,sihiri,mlipuko,NA,sdf,NA,2,NA,NA,NA,NA,NA,NA,NA,NA,NA,NA,NA,NA,NA,NA,NA,NA,NA,NA,NA
aa2eb,Deep Question,html.Page,3_0_2_0_3_0_0,NA,NA,form submission,13178.655999976,476225.29999995,476216.078,476232.744,489411.39999998,489412.10000002,2023-10-17T13:40:39Z,489416.386,NULL,Spionage,upelelezi,d,NA,NA,NA,mele,NA,NA,2,NA,NA,NA,NA,NA,NA,NA,NA,NA,NA,NA,NA,NA,NA,NA,NA,NA,NA,NA
aa2eb,"""Richtig""-Screen",canvas.Screen,3_0_2_0_3_0_1,NA,NA,skipped,NA,489414.79999995,NA,NA,489411.39999998,489414.89999998,2023-10-17T13:40:39Z,489416.386,NULL,Spionage,upelelezi,d,NA,NA,NA,NA,sdf,NA,2,NA,NA,NA,NA,NA,NA,NA,NA,NA,NA,NA,NA,NA,NA,NA,NA,NA,NA,NA
aa2eb,"""Falsch""-Screen",canvas.Screen,3_0_2_0_3_0_2,NA,NA,timeout,4999.8,489415.60000002,489399.72,489416.386,494399.52,494404.89999998,2023-10-17T13:40:44Z,494416.186,NULL,Spionage,upelelezi,d,NA,NA,NA,NA,sdf,0,2,NA,NA,NA,NA,NA,NA,NA,NA,NA,NA,NA,NA,NA,NA,NA,NA,NA,NA,NA
aa2eb,deep,flow.Sequence,3_0_2_0_3_0,NA,NA,completion,18166.776,476225.29999995,476216.078,476232.744,494399.52,494405.29999995,2023-10-17T13:40:44Z,494416.186,NULL,Spionage,upelelezi,d,NA,NA,NA,NA,sdf,NA,2,NA,NA,NA,NA,NA,NA,NA,NA,NA,NA,NA,NA,NA,NA,NA,NA,NA,NA,NA
aa2eb,shallow,flow.Sequence,3_0_2_0_3_1,NA,NA,skipped,NA,494405.39999998,NA,NA,494399.52,494405.60000002,2023-10-17T13:40:44Z,494416.186,NULL,Spionage,upelelezi,d,NA,NA,NA,NA,sdf,NA,2,NA,NA,NA,NA,NA,NA,NA,NA,NA,NA,NA,NA,NA,NA,NA,NA,NA,NA,NA
aa2eb,task,flow.Sequence,3_0_2_0_3,NA,NA,completion,18166.776,476225.19999993,476216.078,476232.744,494399.52,494405.69999993,2023-10-17T13:40:44Z,494416.186,NULL,Spionage,upelelezi,d,NA,NA,NA,NA,sdf,NA,2,NA,NA,NA,NA,NA,NA,NA,NA,NA,NA,NA,NA,NA,NA,NA,NA,NA,NA,NA
aa2eb,deep,flow.Sequence,3_0_2_0_4_0,NA,NA,skipped,NA,494405.89999998,NA,NA,494399.52,494406,2023-10-17T13:40:44Z,494416.186,NULL,Papier,karatasi,s,uchambuzi,usalama,kukataliwa,NA,sdf,NA,2,NA,NA,NA,NA,NA,NA,NA,NA,NA,NA,NA,NA,NA,NA,NA,NA,NA,NA,NA
aa2eb,Shallow Question,html.Page,3_0_2_0_4_1_0,NA,NA,form submission,8530.814,494406.10000002,494399.52,494416.186,502947,502947.5,2023-10-17T13:40:52Z,502949.627,NULL,Papier,karatasi,s,uchambuzi,usalama,kukataliwa,karatasi,NA,NA,2,NA,NA,NA,NA,NA,NA,NA,NA,NA,NA,NA,NA,NA,NA,NA,NA,NA,NA,NA
aa2eb,"""Richtig""-Screen",canvas.Screen,3_0_2_0_4_1_1,NA,NA,timeout,4999.8,502950.19999993,502932.961,502949.627,507932.761,507936.79999995,2023-10-17T13:40:57Z,507949.427,NULL,Papier,karatasi,s,uchambuzi,usalama,kukataliwa,NA,sdf,1,2,NA,NA,NA,NA,NA,NA,NA,NA,NA,NA,NA,NA,NA,NA,NA,NA,NA,NA,NA
aa2eb,"""Falsch""-Screen",canvas.Screen,3_0_2_0_4_1_2,NA,NA,skipped,NA,507941,NA,NA,507932.761,507941.19999993,2023-10-17T13:40:57Z,507949.427,NULL,Papier,karatasi,s,uchambuzi,usalama,kukataliwa,NA,sdf,NA,2,NA,NA,NA,NA,NA,NA,NA,NA,NA,NA,NA,NA,NA,NA,NA,NA,NA,NA,NA
aa2eb,shallow,flow.Sequence,3_0_2_0_4_1,NA,NA,completion,13516.575,494406.10000002,494399.52,494416.186,507932.761,507941.39999998,2023-10-17T13:40:57Z,507949.427,NULL,Papier,karatasi,s,uchambuzi,usalama,kukataliwa,NA,sdf,NA,2,NA,NA,NA,NA,NA,NA,NA,NA,NA,NA,NA,NA,NA,NA,NA,NA,NA,NA,NA
aa2eb,task,flow.Sequence,3_0_2_0_4,NA,NA,completion,13516.575,494405.89999998,494399.52,494416.186,507932.761,507941.5,2023-10-17T13:40:57Z,507949.427,NULL,Papier,karatasi,s,uchambuzi,usalama,kukataliwa,NA,sdf,NA,2,NA,NA,NA,NA,NA,NA,NA,NA,NA,NA,NA,NA,NA,NA,NA,NA,NA,NA,NA
aa2eb,Deep Question,html.Page,3_0_2_0_5_0_0,NA,NA,form submission,10342.673000024,507941.60000002,507932.761,507949.427,518292.10000002,518292.5,2023-10-17T13:41:08Z,518300.336,NULL,Vorwurf,mashtaka,d,NA,NA,NA,maelendo,NA,NA,2,NA,NA,NA,NA,NA,NA,NA,NA,NA,NA,NA,NA,NA,NA,NA,NA,NA,NA,NA
aa2eb,"""Richtig""-Screen",canvas.Screen,3_0_2_0_5_0_1,NA,NA,skipped,NA,518295.10000002,NA,NA,518292.10000002,518295.19999993,2023-10-17T13:41:08Z,518300.336,NULL,Vorwurf,mashtaka,d,NA,NA,NA,NA,sdf,NA,2,NA,NA,NA,NA,NA,NA,NA,NA,NA,NA,NA,NA,NA,NA,NA,NA,NA,NA,NA
aa2eb,"""Falsch""-Screen",canvas.Screen,3_0_2_0_5_0_2,NA,NA,timeout,4999.8,518295.60000002,518283.67,518300.336,523283.47,523287.89999998,2023-10-17T13:41:13Z,523300.136,NULL,Vorwurf,mashtaka,d,NA,NA,NA,NA,sdf,0,2,NA,NA,NA,NA,NA,NA,NA,NA,NA,NA,NA,NA,NA,NA,NA,NA,NA,NA,NA
aa2eb,deep,flow.Sequence,3_0_2_0_5_0,NA,NA,completion,15334.043,507941.60000002,507932.761,507949.427,523283.47,523288.29999995,2023-10-17T13:41:13Z,523300.136,NULL,Vorwurf,mashtaka,d,NA,NA,NA,NA,sdf,NA,2,NA,NA,NA,NA,NA,NA,NA,NA,NA,NA,NA,NA,NA,NA,NA,NA,NA,NA,NA
aa2eb,shallow,flow.Sequence,3_0_2_0_5_1,NA,NA,skipped,NA,523288.39999998,NA,NA,523283.47,523288.60000002,2023-10-17T13:41:13Z,523300.136,NULL,Vorwurf,mashtaka,d,NA,NA,NA,NA,sdf,NA,2,NA,NA,NA,NA,NA,NA,NA,NA,NA,NA,NA,NA,NA,NA,NA,NA,NA,NA,NA
aa2eb,task,flow.Sequence,3_0_2_0_5,NA,NA,completion,15334.043,507941.60000002,507932.761,507949.427,523283.47,523288.69999993,2023-10-17T13:41:13Z,523300.136,NULL,Vorwurf,mashtaka,d,NA,NA,NA,NA,sdf,NA,2,NA,NA,NA,NA,NA,NA,NA,NA,NA,NA,NA,NA,NA,NA,NA,NA,NA,NA,NA
aa2eb,deep,flow.Sequence,3_0_2_0_6_0,NA,NA,skipped,NA,523288.79999995,NA,NA,523283.47,523288.89999998,2023-10-17T13:41:13Z,523300.136,NULL,Schüler,mwanafunzi,s,mwekezaji,matumizi,uaminifu,NA,sdf,NA,2,NA,NA,NA,NA,NA,NA,NA,NA,NA,NA,NA,NA,NA,NA,NA,NA,NA,NA,NA
aa2eb,Shallow Question,html.Page,3_0_2_0_6_1_0,NA,NA,form submission,4537.4640000238,523289.10000002,523283.47,523300.136,527837.60000002,527838.10000002,2023-10-17T13:41:17Z,527849.954,NULL,Schüler,mwanafunzi,s,mwekezaji,matumizi,uaminifu,mwanafunzi,NA,NA,2,NA,NA,NA,NA,NA,NA,NA,NA,NA,NA,NA,NA,NA,NA,NA,NA,NA,NA,NA
aa2eb,"""Richtig""-Screen",canvas.Screen,3_0_2_0_6_1_1,NA,NA,timeout,5000.335,527840.60000002,527833.288,527849.954,532833.623,532837.89999998,2023-10-17T13:41:22Z,532850.289,NULL,Schüler,mwanafunzi,s,mwekezaji,matumizi,uaminifu,NA,sdf,1,2,NA,NA,NA,NA,NA,NA,NA,NA,NA,NA,NA,NA,NA,NA,NA,NA,NA,NA,NA
aa2eb,"""Falsch""-Screen",canvas.Screen,3_0_2_0_6_1_2,NA,NA,skipped,NA,532841.69999993,NA,NA,532833.623,532841.89999998,2023-10-17T13:41:22Z,532850.289,NULL,Schüler,mwanafunzi,s,mwekezaji,matumizi,uaminifu,NA,sdf,NA,2,NA,NA,NA,NA,NA,NA,NA,NA,NA,NA,NA,NA,NA,NA,NA,NA,NA,NA,NA
aa2eb,shallow,flow.Sequence,3_0_2_0_6_1,NA,NA,completion,9533.487,523289.10000002,523283.47,523300.136,532833.623,532842,2023-10-17T13:41:22Z,532850.289,NULL,Schüler,mwanafunzi,s,mwekezaji,matumizi,uaminifu,NA,sdf,NA,2,NA,NA,NA,NA,NA,NA,NA,NA,NA,NA,NA,NA,NA,NA,NA,NA,NA,NA,NA
aa2eb,task,flow.Sequence,3_0_2_0_6,NA,NA,completion,9533.487,523288.79999995,523283.47,523300.136,532833.623,532842.10000002,2023-10-17T13:41:22Z,532850.289,NULL,Schüler,mwanafunzi,s,mwekezaji,matumizi,uaminifu,NA,sdf,NA,2,NA,NA,NA,NA,NA,NA,NA,NA,NA,NA,NA,NA,NA,NA,NA,NA,NA,NA,NA
aa2eb,deep,flow.Sequence,3_0_2_0_7_0,NA,NA,skipped,NA,532842.19999993,NA,NA,532833.623,532842.29999995,2023-10-17T13:41:22Z,532850.289,NULL,Niveau,kiwango,s,usimamizi,mwamali,mshairi,NA,sdf,NA,2,NA,NA,NA,NA,NA,NA,NA,NA,NA,NA,NA,NA,NA,NA,NA,NA,NA,NA,NA
aa2eb,Shallow Question,html.Page,3_0_2_0_7_1_0,NA,NA,form submission,5968.4109999285,532842.29999995,532833.623,532850.289,538818.69999993,538819.19999993,2023-10-17T13:41:28Z,538833.383,NULL,Niveau,kiwango,s,usimamizi,mwamali,mshairi,usimamizi,NA,NA,2,NA,NA,NA,NA,NA,NA,NA,NA,NA,NA,NA,NA,NA,NA,NA,NA,NA,NA,NA
aa2eb,"""Richtig""-Screen",canvas.Screen,3_0_2_0_7_1_1,NA,NA,skipped,NA,538821.60000002,NA,NA,538818.69999993,538821.69999993,2023-10-17T13:41:28Z,538833.383,NULL,Niveau,kiwango,s,usimamizi,mwamali,mshairi,NA,sdf,NA,2,NA,NA,NA,NA,NA,NA,NA,NA,NA,NA,NA,NA,NA,NA,NA,NA,NA,NA,NA
aa2eb,"""Falsch""-Screen",canvas.Screen,3_0_2_0_7_1_2,NA,NA,timeout,5000.4079999999,538822.19999993,538816.717,538833.383,543817.125,543819.39999998,2023-10-17T13:41:33Z,543833.791,NULL,Niveau,kiwango,s,usimamizi,mwamali,mshairi,NA,sdf,0,2,NA,NA,NA,NA,NA,NA,NA,NA,NA,NA,NA,NA,NA,NA,NA,NA,NA,NA,NA
aa2eb,shallow,flow.Sequence,3_0_2_0_7_1,NA,NA,completion,10966.836,532842.29999995,532833.623,532850.289,543817.125,543819.89999998,2023-10-17T13:41:33Z,543833.791,NULL,Niveau,kiwango,s,usimamizi,mwamali,mshairi,NA,sdf,NA,2,NA,NA,NA,NA,NA,NA,NA,NA,NA,NA,NA,NA,NA,NA,NA,NA,NA,NA,NA
aa2eb,task,flow.Sequence,3_0_2_0_7,NA,NA,completion,10966.836,532842.19999993,532833.623,532850.289,543817.125,543820.10000002,2023-10-17T13:41:33Z,543833.791,NULL,Niveau,kiwango,s,usimamizi,mwamali,mshairi,NA,sdf,NA,2,NA,NA,NA,NA,NA,NA,NA,NA,NA,NA,NA,NA,NA,NA,NA,NA,NA,NA,NA
aa2eb,block,flow.Loop,3_0_2_0,NA,NA,completion,104118.363,439689,439682.096,439698.762,543817.125,543820.19999993,2023-10-17T13:41:33Z,543833.791,NULL,NA,NA,NA,NA,NA,NA,NA,sdf,NA,2,NA,NA,NA,NA,NA,NA,NA,NA,NA,NA,NA,NA,NA,NA,NA,NA,NA,NA,NA
aa2eb,weiter,canvas.Screen,3_0_2_1,sdf,keypress(Space),response,1099.3090000239,543820.39999998,543817.125,543833.791,544933.10000002,544941.10000002,2023-10-17T13:41:34Z,544967.079,NULL,NA,NA,NA,NA,NA,NA,NA,sdf,NA,2,NA,NA,NA,NA,NA,NA,NA,NA,NA,NA,NA,NA,NA,NA,NA,NA,NA,NA,NA
aa2eb,check continue,flow.Sequence,3_0_2,NA,NA,completion,105234.33800002,439689,439682.096,439698.762,544933.10000002,544941.39999998,2023-10-17T13:41:34Z,544967.079,NULL,NA,NA,NA,NA,NA,NA,NA,sdf,NA,2,NA,NA,NA,NA,NA,NA,NA,NA,NA,NA,NA,NA,NA,NA,NA,NA,NA,NA,NA
aa2eb,deep,flow.Sequence,3_0_3_0_0_0,NA,NA,skipped,NA,544962.69999993,NA,NA,544933.10000002,544962.69999993,2023-10-17T13:41:34Z,544967.079,NULL,Schüler,mwanafunzi,s,mwekezaji,matumizi,uaminifu,NA,qt,NA,3,NA,NA,NA,NA,NA,NA,NA,NA,NA,NA,NA,NA,NA,NA,NA,NA,NA,NA,NA
aa2eb,Shallow Question,html.Page,3_0_3_0_0_1_0,NA,NA,form submission,5477.2209999523,544962.89999998,544950.413,544967.079,550444.29999995,550444.79999995,2023-10-17T13:41:40Z,550450.193,NULL,Schüler,mwanafunzi,s,mwekezaji,matumizi,uaminifu,mwanafunzi,NA,NA,3,NA,NA,NA,NA,NA,NA,NA,NA,NA,NA,NA,NA,NA,NA,NA,NA,NA,NA,NA
aa2eb,"""Richtig""-Screen",canvas.Screen,3_0_3_0_0_1_1,NA,NA,timeout,5000.446,550447.39999998,550433.527,550450.193,555433.973,555437.10000002,2023-10-17T13:41:45Z,555450.639,NULL,Schüler,mwanafunzi,s,mwekezaji,matumizi,uaminifu,NA,qt,1,3,NA,NA,NA,NA,NA,NA,NA,NA,NA,NA,NA,NA,NA,NA,NA,NA,NA,NA,NA
aa2eb,"""Falsch""-Screen",canvas.Screen,3_0_3_0_0_1_2,NA,NA,skipped,NA,555441.29999995,NA,NA,555433.973,555441.5,2023-10-17T13:41:45Z,555450.639,NULL,Schüler,mwanafunzi,s,mwekezaji,matumizi,uaminifu,NA,qt,NA,3,NA,NA,NA,NA,NA,NA,NA,NA,NA,NA,NA,NA,NA,NA,NA,NA,NA,NA,NA
aa2eb,shallow,flow.Sequence,3_0_3_0_0_1,NA,NA,completion,10466.894,544962.79999995,544950.413,544967.079,555433.973,555441.69999993,2023-10-17T13:41:45Z,555450.639,NULL,Schüler,mwanafunzi,s,mwekezaji,matumizi,uaminifu,NA,qt,NA,3,NA,NA,NA,NA,NA,NA,NA,NA,NA,NA,NA,NA,NA,NA,NA,NA,NA,NA,NA
aa2eb,task,flow.Sequence,3_0_3_0_0,NA,NA,completion,10466.894,544962.69999993,544950.413,544967.079,555433.973,555441.79999995,2023-10-17T13:41:45Z,555450.639,NULL,Schüler,mwanafunzi,s,mwekezaji,matumizi,uaminifu,NA,qt,NA,3,NA,NA,NA,NA,NA,NA,NA,NA,NA,NA,NA,NA,NA,NA,NA,NA,NA,NA,NA
aa2eb,Deep Question,html.Page,3_0_3_0_1_0_0,NA,NA,form submission,5679.9610000239,555441.89999998,555433.973,555450.639,561130.60000002,561131,2023-10-17T13:41:51Z,561133.745,NULL,Fenster,dirisha,d,NA,NA,NA,mashtaka,NA,NA,3,NA,NA,NA,NA,NA,NA,NA,NA,NA,NA,NA,NA,NA,NA,NA,NA,NA,NA,NA
aa2eb,"""Richtig""-Screen",canvas.Screen,3_0_3_0_1_0_1,NA,NA,skipped,NA,561133.69999993,NA,NA,561130.60000002,561134,2023-10-17T13:41:51Z,561133.745,NULL,Fenster,dirisha,d,NA,NA,NA,NA,qt,NA,3,NA,NA,NA,NA,NA,NA,NA,NA,NA,NA,NA,NA,NA,NA,NA,NA,NA,NA,NA
aa2eb,"""Falsch""-Screen",canvas.Screen,3_0_3_0_1_0_2,NA,NA,timeout,5000.549,561134.60000002,561117.079,561133.745,566117.628,566120,2023-10-17T13:41:56Z,566134.294,NULL,Fenster,dirisha,d,NA,NA,NA,NA,qt,0,3,NA,NA,NA,NA,NA,NA,NA,NA,NA,NA,NA,NA,NA,NA,NA,NA,NA,NA,NA
aa2eb,deep,flow.Sequence,3_0_3_0_1_0,NA,NA,completion,10666.989,555441.89999998,555433.973,555450.639,566117.628,566120.39999998,2023-10-17T13:41:56Z,566134.294,NULL,Fenster,dirisha,d,NA,NA,NA,NA,qt,NA,3,NA,NA,NA,NA,NA,NA,NA,NA,NA,NA,NA,NA,NA,NA,NA,NA,NA,NA,NA
aa2eb,shallow,flow.Sequence,3_0_3_0_1_1,NA,NA,skipped,NA,566120.60000002,NA,NA,566117.628,566120.69999993,2023-10-17T13:41:56Z,566134.294,NULL,Fenster,dirisha,d,NA,NA,NA,NA,qt,NA,3,NA,NA,NA,NA,NA,NA,NA,NA,NA,NA,NA,NA,NA,NA,NA,NA,NA,NA,NA
aa2eb,task,flow.Sequence,3_0_3_0_1,NA,NA,completion,10666.989,555441.79999995,555433.973,555450.639,566117.628,566120.89999998,2023-10-17T13:41:56Z,566134.294,NULL,Fenster,dirisha,d,NA,NA,NA,NA,qt,NA,3,NA,NA,NA,NA,NA,NA,NA,NA,NA,NA,NA,NA,NA,NA,NA,NA,NA,NA,NA
aa2eb,Deep Question,html.Page,3_0_3_0_2_0_0,NA,NA,form submission,15953.005999952,566121.10000002,566117.628,566134.294,582087.29999995,582087.69999993,2023-10-17T13:42:11Z,582100.945,NULL,Spionage,upelelezi,d,NA,NA,NA,maettike,NA,NA,3,NA,NA,NA,NA,NA,NA,NA,NA,NA,NA,NA,NA,NA,NA,NA,NA,NA,NA,NA
aa2eb,"""Richtig""-Screen",canvas.Screen,3_0_3_0_2_0_1,NA,NA,skipped,NA,582090.19999993,NA,NA,582087.29999995,582090.39999998,2023-10-17T13:42:11Z,582100.945,NULL,Spionage,upelelezi,d,NA,NA,NA,NA,qt,NA,3,NA,NA,NA,NA,NA,NA,NA,NA,NA,NA,NA,NA,NA,NA,NA,NA,NA,NA,NA
aa2eb,"""Falsch""-Screen",canvas.Screen,3_0_3_0_2_0_2,NA,NA,timeout,5000.297,582090.89999998,582084.279,582100.945,587084.576,587087.29999995,2023-10-17T13:42:16Z,587101.242,NULL,Spionage,upelelezi,d,NA,NA,NA,NA,qt,0,3,NA,NA,NA,NA,NA,NA,NA,NA,NA,NA,NA,NA,NA,NA,NA,NA,NA,NA,NA
aa2eb,deep,flow.Sequence,3_0_3_0_2_0,NA,NA,completion,20950.282,566121,566117.628,566134.294,587084.576,587087.69999993,2023-10-17T13:42:16Z,587101.242,NULL,Spionage,upelelezi,d,NA,NA,NA,NA,qt,NA,3,NA,NA,NA,NA,NA,NA,NA,NA,NA,NA,NA,NA,NA,NA,NA,NA,NA,NA,NA
aa2eb,shallow,flow.Sequence,3_0_3_0_2_1,NA,NA,skipped,NA,587087.89999998,NA,NA,587084.576,587088.10000002,2023-10-17T13:42:16Z,587101.242,NULL,Spionage,upelelezi,d,NA,NA,NA,NA,qt,NA,3,NA,NA,NA,NA,NA,NA,NA,NA,NA,NA,NA,NA,NA,NA,NA,NA,NA,NA,NA
aa2eb,task,flow.Sequence,3_0_3_0_2,NA,NA,completion,20950.282,566121,566117.628,566134.294,587084.576,587088.19999993,2023-10-17T13:42:16Z,587101.242,NULL,Spionage,upelelezi,d,NA,NA,NA,NA,qt,NA,3,NA,NA,NA,NA,NA,NA,NA,NA,NA,NA,NA,NA,NA,NA,NA,NA,NA,NA,NA
aa2eb,Deep Question,html.Page,3_0_3_0_3_0_0,NA,NA,form submission,10320.657999976,587088.39999998,587084.576,587101.242,597421.89999998,597422.39999998,2023-10-17T13:42:27Z,597434.843,NULL,Entwicklung,maendeleo,d,NA,NA,NA,maeleon,NA,NA,3,NA,NA,NA,NA,NA,NA,NA,NA,NA,NA,NA,NA,NA,NA,NA,NA,NA,NA,NA
aa2eb,"""Richtig""-Screen",canvas.Screen,3_0_3_0_3_0_1,NA,NA,skipped,NA,597425.19999993,NA,NA,597421.89999998,597425.29999995,2023-10-17T13:42:27Z,597434.843,NULL,Entwicklung,maendeleo,d,NA,NA,NA,NA,qt,NA,3,NA,NA,NA,NA,NA,NA,NA,NA,NA,NA,NA,NA,NA,NA,NA,NA,NA,NA,NA
aa2eb,"""Falsch""-Screen",canvas.Screen,3_0_3_0_3_0_2,NA,NA,timeout,4999.8,597426.19999993,597418.177,597434.843,602417.977,602422.60000002,2023-10-17T13:42:32Z,602434.643,NULL,Entwicklung,maendeleo,d,NA,NA,NA,NA,qt,0,3,NA,NA,NA,NA,NA,NA,NA,NA,NA,NA,NA,NA,NA,NA,NA,NA,NA,NA,NA
aa2eb,deep,flow.Sequence,3_0_3_0_3_0,NA,NA,completion,15316.735,587088.39999998,587084.576,587101.242,602417.977,602423,2023-10-17T13:42:32Z,602434.643,NULL,Entwicklung,maendeleo,d,NA,NA,NA,NA,qt,NA,3,NA,NA,NA,NA,NA,NA,NA,NA,NA,NA,NA,NA,NA,NA,NA,NA,NA,NA,NA
aa2eb,shallow,flow.Sequence,3_0_3_0_3_1,NA,NA,skipped,NA,602423.10000002,NA,NA,602417.977,602423.29999995,2023-10-17T13:42:32Z,602434.643,NULL,Entwicklung,maendeleo,d,NA,NA,NA,NA,qt,NA,3,NA,NA,NA,NA,NA,NA,NA,NA,NA,NA,NA,NA,NA,NA,NA,NA,NA,NA,NA
aa2eb,task,flow.Sequence,3_0_3_0_3,NA,NA,completion,15316.735,587088.29999995,587084.576,587101.242,602417.977,602423.39999998,2023-10-17T13:42:32Z,602434.643,NULL,Entwicklung,maendeleo,d,NA,NA,NA,NA,qt,NA,3,NA,NA,NA,NA,NA,NA,NA,NA,NA,NA,NA,NA,NA,NA,NA,NA,NA,NA,NA
aa2eb,Deep Question,html.Page,3_0_3_0_4_0_0,NA,NA,form submission,10699.957000024,602423.60000002,602417.977,602434.643,613134.60000002,613135.19999993,2023-10-17T13:42:43Z,613134.662,NULL,Vorwurf,mashtaka,d,NA,NA,NA,mashaka,NA,NA,3,NA,NA,NA,NA,NA,NA,NA,NA,NA,NA,NA,NA,NA,NA,NA,NA,NA,NA,NA
aa2eb,"""Richtig""-Screen",canvas.Screen,3_0_3_0_4_0_1,NA,NA,skipped,NA,613138.10000002,NA,NA,613134.60000002,613138.29999995,2023-10-17T13:42:43Z,613134.662,NULL,Vorwurf,mashtaka,d,NA,NA,NA,NA,qt,NA,3,NA,NA,NA,NA,NA,NA,NA,NA,NA,NA,NA,NA,NA,NA,NA,NA,NA,NA,NA
aa2eb,"""Falsch""-Screen",canvas.Screen,3_0_3_0_4_0_2,NA,NA,timeout,5000.174,613138.89999998,613117.996,613134.662,618118.17,618123.39999998,2023-10-17T13:42:48Z,618134.836,NULL,Vorwurf,mashtaka,d,NA,NA,NA,NA,qt,0,3,NA,NA,NA,NA,NA,NA,NA,NA,NA,NA,NA,NA,NA,NA,NA,NA,NA,NA,NA
aa2eb,deep,flow.Sequence,3_0_3_0_4_0,NA,NA,completion,15683.527,602423.60000002,602417.977,602434.643,618118.17,618123.79999995,2023-10-17T13:42:48Z,618134.836,NULL,Vorwurf,mashtaka,d,NA,NA,NA,NA,qt,NA,3,NA,NA,NA,NA,NA,NA,NA,NA,NA,NA,NA,NA,NA,NA,NA,NA,NA,NA,NA
aa2eb,shallow,flow.Sequence,3_0_3_0_4_1,NA,NA,skipped,NA,618123.89999998,NA,NA,618118.17,618124,2023-10-17T13:42:48Z,618134.836,NULL,Vorwurf,mashtaka,d,NA,NA,NA,NA,qt,NA,3,NA,NA,NA,NA,NA,NA,NA,NA,NA,NA,NA,NA,NA,NA,NA,NA,NA,NA,NA
aa2eb,task,flow.Sequence,3_0_3_0_4,NA,NA,completion,15683.527,602423.60000002,602417.977,602434.643,618118.17,618124.10000002,2023-10-17T13:42:48Z,618134.836,NULL,Vorwurf,mashtaka,d,NA,NA,NA,NA,qt,NA,3,NA,NA,NA,NA,NA,NA,NA,NA,NA,NA,NA,NA,NA,NA,NA,NA,NA,NA,NA
aa2eb,deep,flow.Sequence,3_0_3_0_5_0,NA,NA,skipped,NA,618124.29999995,NA,NA,618118.17,618124.5,2023-10-17T13:42:48Z,618134.836,NULL,Papier,karatasi,s,uchambuzi,usalama,kukataliwa,NA,qt,NA,3,NA,NA,NA,NA,NA,NA,NA,NA,NA,NA,NA,NA,NA,NA,NA,NA,NA,NA,NA
aa2eb,Shallow Question,html.Page,3_0_3_0_5_1_0,NA,NA,form submission,6006.664,618124.60000002,618118.17,618134.836,624141.5,624141.79999995,2023-10-17T13:42:54Z,624151.262,NULL,Papier,karatasi,s,uchambuzi,usalama,kukataliwa,karatasi,NA,NA,3,NA,NA,NA,NA,NA,NA,NA,NA,NA,NA,NA,NA,NA,NA,NA,NA,NA,NA,NA
aa2eb,"""Richtig""-Screen",canvas.Screen,3_0_3_0_5_1_1,NA,NA,timeout,5000.5210000001,624144.5,624134.596,624151.262,629135.117,629139.69999993,2023-10-17T13:42:59Z,629151.783,NULL,Papier,karatasi,s,uchambuzi,usalama,kukataliwa,NA,qt,1,3,NA,NA,NA,NA,NA,NA,NA,NA,NA,NA,NA,NA,NA,NA,NA,NA,NA,NA,NA
aa2eb,"""Falsch""-Screen",canvas.Screen,3_0_3_0_5_1_2,NA,NA,skipped,NA,629143.39999998,NA,NA,629135.117,629143.5,2023-10-17T13:42:59Z,629151.783,NULL,Papier,karatasi,s,uchambuzi,usalama,kukataliwa,NA,qt,NA,3,NA,NA,NA,NA,NA,NA,NA,NA,NA,NA,NA,NA,NA,NA,NA,NA,NA,NA,NA
aa2eb,shallow,flow.Sequence,3_0_3_0_5_1,NA,NA,completion,11000.281,618124.60000002,618118.17,618134.836,629135.117,629143.69999993,2023-10-17T13:42:59Z,629151.783,NULL,Papier,karatasi,s,uchambuzi,usalama,kukataliwa,NA,qt,NA,3,NA,NA,NA,NA,NA,NA,NA,NA,NA,NA,NA,NA,NA,NA,NA,NA,NA,NA,NA
aa2eb,task,flow.Sequence,3_0_3_0_5,NA,NA,completion,11000.281,618124.29999995,618118.17,618134.836,629135.117,629143.79999995,2023-10-17T13:42:59Z,629151.783,NULL,Papier,karatasi,s,uchambuzi,usalama,kukataliwa,NA,qt,NA,3,NA,NA,NA,NA,NA,NA,NA,NA,NA,NA,NA,NA,NA,NA,NA,NA,NA,NA,NA
aa2eb,deep,flow.Sequence,3_0_3_0_6_0,NA,NA,skipped,NA,629143.79999995,NA,NA,629135.117,629143.89999998,2023-10-17T13:42:59Z,629151.783,NULL,Niveau,kiwango,s,usimamizi,mwamali,mshairi,NA,qt,NA,3,NA,NA,NA,NA,NA,NA,NA,NA,NA,NA,NA,NA,NA,NA,NA,NA,NA,NA,NA
aa2eb,Shallow Question,html.Page,3_0_3_0_6_1_0,NA,NA,form submission,7121.2169999999,629144,629135.117,629151.783,636273,636273.39999998,2023-10-17T13:43:06Z,636284.831,NULL,Niveau,kiwango,s,usimamizi,mwamali,mshairi,usimamizi,NA,NA,3,NA,NA,NA,NA,NA,NA,NA,NA,NA,NA,NA,NA,NA,NA,NA,NA,NA,NA,NA
aa2eb,"""Richtig""-Screen",canvas.Screen,3_0_3_0_6_1_1,NA,NA,skipped,NA,636275.79999995,NA,NA,636273,636276,2023-10-17T13:43:06Z,636284.831,NULL,Niveau,kiwango,s,usimamizi,mwamali,mshairi,NA,qt,NA,3,NA,NA,NA,NA,NA,NA,NA,NA,NA,NA,NA,NA,NA,NA,NA,NA,NA,NA,NA
aa2eb,"""Falsch""-Screen",canvas.Screen,3_0_3_0_6_1_2,NA,NA,timeout,5000.474,636276.69999993,636268.165,636284.831,641268.639,641272.5,2023-10-17T13:43:11Z,641285.305,NULL,Niveau,kiwango,s,usimamizi,mwamali,mshairi,NA,qt,0,3,NA,NA,NA,NA,NA,NA,NA,NA,NA,NA,NA,NA,NA,NA,NA,NA,NA,NA,NA
aa2eb,shallow,flow.Sequence,3_0_3_0_6_1,NA,NA,completion,12116.856,629144,629135.117,629151.783,641268.639,641272.89999998,2023-10-17T13:43:11Z,641285.305,NULL,Niveau,kiwango,s,usimamizi,mwamali,mshairi,NA,qt,NA,3,NA,NA,NA,NA,NA,NA,NA,NA,NA,NA,NA,NA,NA,NA,NA,NA,NA,NA,NA
aa2eb,task,flow.Sequence,3_0_3_0_6,NA,NA,completion,12116.856,629143.79999995,629135.117,629151.783,641268.639,641273,2023-10-17T13:43:11Z,641285.305,NULL,Niveau,kiwango,s,usimamizi,mwamali,mshairi,NA,qt,NA,3,NA,NA,NA,NA,NA,NA,NA,NA,NA,NA,NA,NA,NA,NA,NA,NA,NA,NA,NA
aa2eb,deep,flow.Sequence,3_0_3_0_7_0,NA,NA,skipped,NA,641273.19999993,NA,NA,641268.639,641273.29999995,2023-10-17T13:43:11Z,641285.305,NULL,Tester,wanaojaribu,s,sherti,sihiri,mlipuko,NA,qt,NA,3,NA,NA,NA,NA,NA,NA,NA,NA,NA,NA,NA,NA,NA,NA,NA,NA,NA,NA,NA
aa2eb,Shallow Question,html.Page,3_0_3_0_7_1_0,NA,NA,form submission,6289.5949999761,641273.5,641268.639,641285.305,647574.89999998,647575.19999993,2023-10-17T13:43:17Z,647585.053,NULL,Tester,wanaojaribu,s,sherti,sihiri,mlipuko,sherti,NA,NA,3,NA,NA,NA,NA,NA,NA,NA,NA,NA,NA,NA,NA,NA,NA,NA,NA,NA,NA,NA
aa2eb,"""Richtig""-Screen",canvas.Screen,3_0_3_0_7_1_1,NA,NA,skipped,NA,647578.39999998,NA,NA,647574.89999998,647578.39999998,2023-10-17T13:43:17Z,647585.053,NULL,Tester,wanaojaribu,s,sherti,sihiri,mlipuko,NA,qt,NA,3,NA,NA,NA,NA,NA,NA,NA,NA,NA,NA,NA,NA,NA,NA,NA,NA,NA,NA,NA
aa2eb,"""Falsch""-Screen",canvas.Screen,3_0_3_0_7_1_2,NA,NA,timeout,5000.4280000001,647579,647568.387,647585.053,652568.815,652571.5,2023-10-17T13:43:22Z,652585.481,NULL,Tester,wanaojaribu,s,sherti,sihiri,mlipuko,NA,qt,0,3,NA,NA,NA,NA,NA,NA,NA,NA,NA,NA,NA,NA,NA,NA,NA,NA,NA,NA,NA
aa2eb,shallow,flow.Sequence,3_0_3_0_7_1,NA,NA,completion,11283.51,641273.39999998,641268.639,641285.305,652568.815,652571.79999995,2023-10-17T13:43:22Z,652585.481,NULL,Tester,wanaojaribu,s,sherti,sihiri,mlipuko,NA,qt,NA,3,NA,NA,NA,NA,NA,NA,NA,NA,NA,NA,NA,NA,NA,NA,NA,NA,NA,NA,NA
aa2eb,task,flow.Sequence,3_0_3_0_7,NA,NA,completion,11283.51,641273.10000002,641268.639,641285.305,652568.815,652572,2023-10-17T13:43:22Z,652585.481,NULL,Tester,wanaojaribu,s,sherti,sihiri,mlipuko,NA,qt,NA,3,NA,NA,NA,NA,NA,NA,NA,NA,NA,NA,NA,NA,NA,NA,NA,NA,NA,NA,NA
aa2eb,block,flow.Loop,3_0_3_0,NA,NA,completion,107601.736,544962.69999993,544950.413,544967.079,652568.815,652572.19999993,2023-10-17T13:43:22Z,652585.481,NULL,NA,NA,NA,NA,NA,NA,NA,qt,NA,3,NA,NA,NA,NA,NA,NA,NA,NA,NA,NA,NA,NA,NA,NA,NA,NA,NA,NA,NA
aa2eb,weiter,canvas.Screen,3_0_3_1,sdf,keypress(Space),response,1474.2189999284,652572.29999995,652568.815,652585.481,654059.69999993,654067.5,2023-10-17T13:43:23Z,654102.087,NULL,NA,NA,NA,NA,NA,NA,NA,qt,NA,3,NA,NA,NA,NA,NA,NA,NA,NA,NA,NA,NA,NA,NA,NA,NA,NA,NA,NA,NA
aa2eb,check continue,flow.Sequence,3_0_3,NA,NA,completion,109092.62099993,544962.69999993,544950.413,544967.079,654059.69999993,654067.79999995,2023-10-17T13:43:23Z,654102.087,NULL,NA,NA,NA,NA,NA,NA,NA,qt,NA,3,NA,NA,NA,NA,NA,NA,NA,NA,NA,NA,NA,NA,NA,NA,NA,NA,NA,NA,NA
aa2eb,Deep Question,html.Page,3_0_4_0_0_0_0,NA,NA,form submission,7590.7129999523,654090.79999995,654085.421,654102.087,661692.79999995,661693.29999995,2023-10-17T13:43:31Z,661701.783,NULL,Vorwurf,mashtaka,d,NA,NA,NA,maendolo,NA,NA,4,NA,NA,NA,NA,NA,NA,NA,NA,NA,NA,NA,NA,NA,NA,NA,NA,NA,NA,NA
aa2eb,"""Richtig""-Screen",canvas.Screen,3_0_4_0_0_0_1,NA,NA,skipped,NA,661696.5,NA,NA,661692.79999995,661696.79999995,2023-10-17T13:43:31Z,661701.783,NULL,Vorwurf,mashtaka,d,NA,NA,NA,NA,sd,NA,4,NA,NA,NA,NA,NA,NA,NA,NA,NA,NA,NA,NA,NA,NA,NA,NA,NA,NA,NA
aa2eb,"""Falsch""-Screen",canvas.Screen,3_0_4_0_0_0_2,NA,NA,timeout,5000.5769999999,661697.69999993,661685.117,661701.783,666685.694,666690,2023-10-17T13:43:36Z,666702.36,NULL,Vorwurf,mashtaka,d,NA,NA,NA,NA,sd,0,4,NA,NA,NA,NA,NA,NA,NA,NA,NA,NA,NA,NA,NA,NA,NA,NA,NA,NA,NA
aa2eb,deep,flow.Sequence,3_0_4_0_0_0,NA,NA,completion,12583.607,654090.79999995,654085.421,654102.087,666685.694,666690.39999998,2023-10-17T13:43:36Z,666702.36,NULL,Vorwurf,mashtaka,d,NA,NA,NA,NA,sd,NA,4,NA,NA,NA,NA,NA,NA,NA,NA,NA,NA,NA,NA,NA,NA,NA,NA,NA,NA,NA
aa2eb,shallow,flow.Sequence,3_0_4_0_0_1,NA,NA,skipped,NA,666690.5,NA,NA,666685.694,666690.69999993,2023-10-17T13:43:36Z,666702.36,NULL,Vorwurf,mashtaka,d,NA,NA,NA,NA,sd,NA,4,NA,NA,NA,NA,NA,NA,NA,NA,NA,NA,NA,NA,NA,NA,NA,NA,NA,NA,NA
aa2eb,task,flow.Sequence,3_0_4_0_0,NA,NA,completion,12583.607,654090.79999995,654085.421,654102.087,666685.694,666690.69999993,2023-10-17T13:43:36Z,666702.36,NULL,Vorwurf,mashtaka,d,NA,NA,NA,NA,sd,NA,4,NA,NA,NA,NA,NA,NA,NA,NA,NA,NA,NA,NA,NA,NA,NA,NA,NA,NA,NA
aa2eb,deep,flow.Sequence,3_0_4_0_1_0,NA,NA,skipped,NA,666690.89999998,NA,NA,666685.694,666691,2023-10-17T13:43:36Z,666702.36,NULL,Schüler,mwanafunzi,s,mwekezaji,matumizi,uaminifu,NA,sd,NA,4,NA,NA,NA,NA,NA,NA,NA,NA,NA,NA,NA,NA,NA,NA,NA,NA,NA,NA,NA
aa2eb,Shallow Question,html.Page,3_0_4_0_1_1_0,NA,NA,form submission,3739.7400000239,666691.10000002,666685.694,666702.36,670442.10000002,670442.60000002,2023-10-17T13:43:40Z,670452.21,NULL,Schüler,mwanafunzi,s,mwekezaji,matumizi,uaminifu,mwanafunzi,NA,NA,4,NA,NA,NA,NA,NA,NA,NA,NA,NA,NA,NA,NA,NA,NA,NA,NA,NA,NA,NA
aa2eb,"""Richtig""-Screen",canvas.Screen,3_0_4_0_1_1_1,NA,NA,timeout,4999.8,670445.10000002,670435.544,670452.21,675435.344,675439.39999998,2023-10-17T13:43:45Z,675452.01,NULL,Schüler,mwanafunzi,s,mwekezaji,matumizi,uaminifu,NA,sd,1,4,NA,NA,NA,NA,NA,NA,NA,NA,NA,NA,NA,NA,NA,NA,NA,NA,NA,NA,NA
aa2eb,"""Falsch""-Screen",canvas.Screen,3_0_4_0_1_1_2,NA,NA,skipped,NA,675442.89999998,NA,NA,675435.344,675443.10000002,2023-10-17T13:43:45Z,675452.01,NULL,Schüler,mwanafunzi,s,mwekezaji,matumizi,uaminifu,NA,sd,NA,4,NA,NA,NA,NA,NA,NA,NA,NA,NA,NA,NA,NA,NA,NA,NA,NA,NA,NA,NA
aa2eb,shallow,flow.Sequence,3_0_4_0_1_1,NA,NA,completion,8732.9840000001,666691,666685.694,666702.36,675435.344,675443.19999993,2023-10-17T13:43:45Z,675452.01,NULL,Schüler,mwanafunzi,s,mwekezaji,matumizi,uaminifu,NA,sd,NA,4,NA,NA,NA,NA,NA,NA,NA,NA,NA,NA,NA,NA,NA,NA,NA,NA,NA,NA,NA
aa2eb,task,flow.Sequence,3_0_4_0_1,NA,NA,completion,8732.9840000001,666690.89999998,666685.694,666702.36,675435.344,675443.39999998,2023-10-17T13:43:45Z,675452.01,NULL,Schüler,mwanafunzi,s,mwekezaji,matumizi,uaminifu,NA,sd,NA,4,NA,NA,NA,NA,NA,NA,NA,NA,NA,NA,NA,NA,NA,NA,NA,NA,NA,NA,NA
aa2eb,Deep Question,html.Page,3_0_4_0_2_0_0,NA,NA,form submission,9056.2899999523,675443.39999998,675435.344,675452.01,684508.29999995,684508.79999995,2023-10-17T13:43:54Z,684519.081,NULL,Spionage,upelelezi,d,NA,NA,NA,mashtaka,NA,NA,4,NA,NA,NA,NA,NA,NA,NA,NA,NA,NA,NA,NA,NA,NA,NA,NA,NA,NA,NA
aa2eb,"""Richtig""-Screen",canvas.Screen,3_0_4_0_2_0_1,NA,NA,skipped,NA,684511.60000002,NA,NA,684508.29999995,684511.69999993,2023-10-17T13:43:54Z,684519.081,NULL,Spionage,upelelezi,d,NA,NA,NA,NA,sd,NA,4,NA,NA,NA,NA,NA,NA,NA,NA,NA,NA,NA,NA,NA,NA,NA,NA,NA,NA,NA
aa2eb,"""Falsch""-Screen",canvas.Screen,3_0_4_0_2_0_2,NA,NA,timeout,5000.2879999999,684512.79999995,684502.415,684519.081,689502.703,689505.5,2023-10-17T13:43:59Z,689519.369,NULL,Spionage,upelelezi,d,NA,NA,NA,NA,sd,0,4,NA,NA,NA,NA,NA,NA,NA,NA,NA,NA,NA,NA,NA,NA,NA,NA,NA,NA,NA
aa2eb,deep,flow.Sequence,3_0_4_0_2_0,NA,NA,completion,14050.693,675443.39999998,675435.344,675452.01,689502.703,689505.89999998,2023-10-17T13:43:59Z,689519.369,NULL,Spionage,upelelezi,d,NA,NA,NA,NA,sd,NA,4,NA,NA,NA,NA,NA,NA,NA,NA,NA,NA,NA,NA,NA,NA,NA,NA,NA,NA,NA
aa2eb,shallow,flow.Sequence,3_0_4_0_2_1,NA,NA,skipped,NA,689506.10000002,NA,NA,689502.703,689506.10000002,2023-10-17T13:43:59Z,689519.369,NULL,Spionage,upelelezi,d,NA,NA,NA,NA,sd,NA,4,NA,NA,NA,NA,NA,NA,NA,NA,NA,NA,NA,NA,NA,NA,NA,NA,NA,NA,NA
aa2eb,task,flow.Sequence,3_0_4_0_2,NA,NA,completion,14050.693,675443.39999998,675435.344,675452.01,689502.703,689506.29999995,2023-10-17T13:43:59Z,689519.369,NULL,Spionage,upelelezi,d,NA,NA,NA,NA,sd,NA,4,NA,NA,NA,NA,NA,NA,NA,NA,NA,NA,NA,NA,NA,NA,NA,NA,NA,NA,NA
aa2eb,deep,flow.Sequence,3_0_4_0_3_0,NA,NA,skipped,NA,689506.5,NA,NA,689502.703,689506.60000002,2023-10-17T13:43:59Z,689519.369,NULL,Papier,karatasi,s,uchambuzi,usalama,kukataliwa,NA,sd,NA,4,NA,NA,NA,NA,NA,NA,NA,NA,NA,NA,NA,NA,NA,NA,NA,NA,NA,NA,NA
aa2eb,Shallow Question,html.Page,3_0_4_0_3_1_0,NA,NA,form submission,9635.4309999524,689506.79999995,689502.703,689519.369,699154.79999995,699155.29999995,2023-10-17T13:44:09Z,699168.983,NULL,Papier,karatasi,s,uchambuzi,usalama,kukataliwa,karatasi,NA,NA,4,NA,NA,NA,NA,NA,NA,NA,NA,NA,NA,NA,NA,NA,NA,NA,NA,NA,NA,NA
aa2eb,"""Richtig""-Screen",canvas.Screen,3_0_4_0_3_1_1,NA,NA,timeout,5000.632,699157.69999993,699152.317,699168.983,704152.949,704155.39999998,2023-10-17T13:44:14Z,704169.615,NULL,Papier,karatasi,s,uchambuzi,usalama,kukataliwa,NA,sd,1,4,NA,NA,NA,NA,NA,NA,NA,NA,NA,NA,NA,NA,NA,NA,NA,NA,NA,NA,NA
aa2eb,"""Falsch""-Screen",canvas.Screen,3_0_4_0_3_1_2,NA,NA,skipped,NA,704159.10000002,NA,NA,704152.949,704159.29999995,2023-10-17T13:44:14Z,704169.615,NULL,Papier,karatasi,s,uchambuzi,usalama,kukataliwa,NA,sd,NA,4,NA,NA,NA,NA,NA,NA,NA,NA,NA,NA,NA,NA,NA,NA,NA,NA,NA,NA,NA
aa2eb,shallow,flow.Sequence,3_0_4_0_3_1,NA,NA,completion,14633.58,689506.60000002,689502.703,689519.369,704152.949,704159.39999998,2023-10-17T13:44:14Z,704169.615,NULL,Papier,karatasi,s,uchambuzi,usalama,kukataliwa,NA,sd,NA,4,NA,NA,NA,NA,NA,NA,NA,NA,NA,NA,NA,NA,NA,NA,NA,NA,NA,NA,NA
aa2eb,task,flow.Sequence,3_0_4_0_3,NA,NA,completion,14633.58,689506.39999998,689502.703,689519.369,704152.949,704159.5,2023-10-17T13:44:14Z,704169.615,NULL,Papier,karatasi,s,uchambuzi,usalama,kukataliwa,NA,sd,NA,4,NA,NA,NA,NA,NA,NA,NA,NA,NA,NA,NA,NA,NA,NA,NA,NA,NA,NA,NA
aa2eb,Deep Question,html.Page,3_0_4_0_4_0_0,NA,NA,form submission,11493.584999928,704159.60000002,704152.949,704169.615,715663.19999993,715663.79999995,2023-10-17T13:44:25Z,715669.986,NULL,Fenster,dirisha,d,NA,NA,NA,marashtaka,NA,NA,4,NA,NA,NA,NA,NA,NA,NA,NA,NA,NA,NA,NA,NA,NA,NA,NA,NA,NA,NA
aa2eb,"""Richtig""-Screen",canvas.Screen,3_0_4_0_4_0_1,NA,NA,skipped,NA,715666.89999998,NA,NA,715663.19999993,715667.10000002,2023-10-17T13:44:25Z,715669.986,NULL,Fenster,dirisha,d,NA,NA,NA,NA,sd,NA,4,NA,NA,NA,NA,NA,NA,NA,NA,NA,NA,NA,NA,NA,NA,NA,NA,NA,NA,NA
aa2eb,"""Falsch""-Screen",canvas.Screen,3_0_4_0_4_0_2,NA,NA,timeout,4999.7999999999,715667.5,715653.32,715669.986,720653.12,720658,2023-10-17T13:44:30Z,720669.786,NULL,Fenster,dirisha,d,NA,NA,NA,NA,sd,0,4,NA,NA,NA,NA,NA,NA,NA,NA,NA,NA,NA,NA,NA,NA,NA,NA,NA,NA,NA
aa2eb,deep,flow.Sequence,3_0_4_0_4_0,NA,NA,completion,16483.505,704159.60000002,704152.949,704169.615,720653.12,720658.39999998,2023-10-17T13:44:30Z,720669.786,NULL,Fenster,dirisha,d,NA,NA,NA,NA,sd,NA,4,NA,NA,NA,NA,NA,NA,NA,NA,NA,NA,NA,NA,NA,NA,NA,NA,NA,NA,NA
aa2eb,shallow,flow.Sequence,3_0_4_0_4_1,NA,NA,skipped,NA,720658.60000002,NA,NA,720653.12,720658.69999993,2023-10-17T13:44:30Z,720669.786,NULL,Fenster,dirisha,d,NA,NA,NA,NA,sd,NA,4,NA,NA,NA,NA,NA,NA,NA,NA,NA,NA,NA,NA,NA,NA,NA,NA,NA,NA,NA
aa2eb,task,flow.Sequence,3_0_4_0_4,NA,NA,completion,16483.505,704159.60000002,704152.949,704169.615,720653.12,720658.89999998,2023-10-17T13:44:30Z,720669.786,NULL,Fenster,dirisha,d,NA,NA,NA,NA,sd,NA,4,NA,NA,NA,NA,NA,NA,NA,NA,NA,NA,NA,NA,NA,NA,NA,NA,NA,NA,NA
aa2eb,Deep Question,html.Page,3_0_4_0_5_0_0,NA,NA,form submission,10607.013999952,720659,720653.12,720669.786,731276.79999995,731277.29999995,2023-10-17T13:44:41Z,731286.564,NULL,Entwicklung,maendeleo,d,NA,NA,NA,maendalo,NA,NA,4,NA,NA,NA,NA,NA,NA,NA,NA,NA,NA,NA,NA,NA,NA,NA,NA,NA,NA,NA
aa2eb,"""Richtig""-Screen",canvas.Screen,3_0_4_0_5_0_1,NA,NA,skipped,NA,731280.10000002,NA,NA,731276.79999995,731280.29999995,2023-10-17T13:44:41Z,731286.564,NULL,Entwicklung,maendeleo,d,NA,NA,NA,NA,sd,NA,4,NA,NA,NA,NA,NA,NA,NA,NA,NA,NA,NA,NA,NA,NA,NA,NA,NA,NA,NA
aa2eb,"""Falsch""-Screen",canvas.Screen,3_0_4_0_5_0_2,NA,NA,timeout,5000.173,731280.89999998,731269.898,731286.564,736270.071,736275.10000002,2023-10-17T13:44:46Z,736286.737,NULL,Entwicklung,maendeleo,d,NA,NA,NA,NA,sd,0,4,NA,NA,NA,NA,NA,NA,NA,NA,NA,NA,NA,NA,NA,NA,NA,NA,NA,NA,NA
aa2eb,deep,flow.Sequence,3_0_4_0_5_0,NA,NA,completion,15600.285,720659,720653.12,720669.786,736270.071,736275.5,2023-10-17T13:44:46Z,736286.737,NULL,Entwicklung,maendeleo,d,NA,NA,NA,NA,sd,NA,4,NA,NA,NA,NA,NA,NA,NA,NA,NA,NA,NA,NA,NA,NA,NA,NA,NA,NA,NA
aa2eb,shallow,flow.Sequence,3_0_4_0_5_1,NA,NA,skipped,NA,736275.60000002,NA,NA,736270.071,736275.79999995,2023-10-17T13:44:46Z,736286.737,NULL,Entwicklung,maendeleo,d,NA,NA,NA,NA,sd,NA,4,NA,NA,NA,NA,NA,NA,NA,NA,NA,NA,NA,NA,NA,NA,NA,NA,NA,NA,NA
aa2eb,task,flow.Sequence,3_0_4_0_5,NA,NA,completion,15600.285,720658.89999998,720653.12,720669.786,736270.071,736275.89999998,2023-10-17T13:44:46Z,736286.737,NULL,Entwicklung,maendeleo,d,NA,NA,NA,NA,sd,NA,4,NA,NA,NA,NA,NA,NA,NA,NA,NA,NA,NA,NA,NA,NA,NA,NA,NA,NA,NA
aa2eb,deep,flow.Sequence,3_0_4_0_6_0,NA,NA,skipped,NA,736276.10000002,NA,NA,736270.071,736276.29999995,2023-10-17T13:44:46Z,736286.737,NULL,Tester,wanaojaribu,s,sherti,sihiri,mlipuko,NA,sd,NA,4,NA,NA,NA,NA,NA,NA,NA,NA,NA,NA,NA,NA,NA,NA,NA,NA,NA,NA,NA
aa2eb,Shallow Question,html.Page,3_0_4_0_6_1_0,NA,NA,form submission,7273.6629999762,736276.39999998,736270.071,736286.737,743560.39999998,743560.89999998,2023-10-17T13:44:53Z,743569.779,NULL,Tester,wanaojaribu,s,sherti,sihiri,mlipuko,wanaojaribu,NA,NA,4,NA,NA,NA,NA,NA,NA,NA,NA,NA,NA,NA,NA,NA,NA,NA,NA,NA,NA,NA
aa2eb,"""Richtig""-Screen",canvas.Screen,3_0_4_0_6_1_1,NA,NA,timeout,5000.475,743563.79999995,743553.113,743569.779,748553.588,748558.5,2023-10-17T13:44:58Z,748570.254,NULL,Tester,wanaojaribu,s,sherti,sihiri,mlipuko,NA,sd,1,4,NA,NA,NA,NA,NA,NA,NA,NA,NA,NA,NA,NA,NA,NA,NA,NA,NA,NA,NA
aa2eb,"""Falsch""-Screen",canvas.Screen,3_0_4_0_6_1_2,NA,NA,skipped,NA,748562.60000002,NA,NA,748553.588,748562.69999993,2023-10-17T13:44:58Z,748570.254,NULL,Tester,wanaojaribu,s,sherti,sihiri,mlipuko,NA,sd,NA,4,NA,NA,NA,NA,NA,NA,NA,NA,NA,NA,NA,NA,NA,NA,NA,NA,NA,NA,NA
aa2eb,shallow,flow.Sequence,3_0_4_0_6_1,NA,NA,completion,12266.851,736276.39999998,736270.071,736286.737,748553.588,748562.89999998,2023-10-17T13:44:58Z,748570.254,NULL,Tester,wanaojaribu,s,sherti,sihiri,mlipuko,NA,sd,NA,4,NA,NA,NA,NA,NA,NA,NA,NA,NA,NA,NA,NA,NA,NA,NA,NA,NA,NA,NA
aa2eb,task,flow.Sequence,3_0_4_0_6,NA,NA,completion,12266.851,736276,736270.071,736286.737,748553.588,748563,2023-10-17T13:44:58Z,748570.254,NULL,Tester,wanaojaribu,s,sherti,sihiri,mlipuko,NA,sd,NA,4,NA,NA,NA,NA,NA,NA,NA,NA,NA,NA,NA,NA,NA,NA,NA,NA,NA,NA,NA
aa2eb,deep,flow.Sequence,3_0_4_0_7_0,NA,NA,skipped,NA,748563.10000002,NA,NA,748553.588,748563.19999993,2023-10-17T13:44:58Z,748570.254,NULL,Niveau,kiwango,s,usimamizi,mwamali,mshairi,NA,sd,NA,4,NA,NA,NA,NA,NA,NA,NA,NA,NA,NA,NA,NA,NA,NA,NA,NA,NA,NA,NA
aa2eb,Shallow Question,html.Page,3_0_4_0_7_1_0,NA,NA,form submission,5765.6459999762,748563.29999995,748553.588,748570.254,754335.89999998,754336.29999995,2023-10-17T13:45:04Z,754353.356,NULL,Niveau,kiwango,s,usimamizi,mwamali,mshairi,kiwango,NA,NA,4,NA,NA,NA,NA,NA,NA,NA,NA,NA,NA,NA,NA,NA,NA,NA,NA,NA,NA,NA
aa2eb,"""Richtig""-Screen",canvas.Screen,3_0_4_0_7_1_1,NA,NA,timeout,5000.392,754338.60000002,754336.69,754353.356,759337.082,759341.19999993,2023-10-17T13:45:09Z,759353.748,NULL,Niveau,kiwango,s,usimamizi,mwamali,mshairi,NA,sd,1,4,NA,NA,NA,NA,NA,NA,NA,NA,NA,NA,NA,NA,NA,NA,NA,NA,NA,NA,NA
aa2eb,"""Falsch""-Screen",canvas.Screen,3_0_4_0_7_1_2,NA,NA,skipped,NA,759344.69999993,NA,NA,759337.082,759344.79999995,2023-10-17T13:45:09Z,759353.748,NULL,Niveau,kiwango,s,usimamizi,mwamali,mshairi,NA,sd,NA,4,NA,NA,NA,NA,NA,NA,NA,NA,NA,NA,NA,NA,NA,NA,NA,NA,NA,NA,NA
aa2eb,shallow,flow.Sequence,3_0_4_0_7_1,NA,NA,completion,10766.828,748563.19999993,748553.588,748570.254,759337.082,759345,2023-10-17T13:45:09Z,759353.748,NULL,Niveau,kiwango,s,usimamizi,mwamali,mshairi,NA,sd,NA,4,NA,NA,NA,NA,NA,NA,NA,NA,NA,NA,NA,NA,NA,NA,NA,NA,NA,NA,NA
aa2eb,task,flow.Sequence,3_0_4_0_7,NA,NA,completion,10766.828,748563.10000002,748553.588,748570.254,759337.082,759345.10000002,2023-10-17T13:45:09Z,759353.748,NULL,Niveau,kiwango,s,usimamizi,mwamali,mshairi,NA,sd,NA,4,NA,NA,NA,NA,NA,NA,NA,NA,NA,NA,NA,NA,NA,NA,NA,NA,NA,NA,NA
aa2eb,block,flow.Loop,3_0_4_0,NA,NA,completion,105234.995,654090.79999995,654085.421,654102.087,759337.082,759345.10000002,2023-10-17T13:45:09Z,759353.748,NULL,NA,NA,NA,NA,NA,NA,NA,sd,NA,4,NA,NA,NA,NA,NA,NA,NA,NA,NA,NA,NA,NA,NA,NA,NA,NA,NA,NA,NA
aa2eb,weiter,canvas.Screen,3_0_4_1,sdf,keypress(Space),response,942.25199999998,759345.19999993,759337.082,759353.748,760296,760301.10000002,2023-10-17T13:45:10Z,760337.042,NULL,NA,NA,NA,NA,NA,NA,NA,sd,NA,4,NA,NA,NA,NA,NA,NA,NA,NA,NA,NA,NA,NA,NA,NA,NA,NA,NA,NA,NA
aa2eb,check continue,flow.Sequence,3_0_4,NA,NA,completion,106193.913,654090.79999995,654085.421,654102.087,760296,760301.39999998,2023-10-17T13:45:10Z,760337.042,NULL,NA,NA,NA,NA,NA,NA,NA,sd,NA,4,NA,NA,NA,NA,NA,NA,NA,NA,NA,NA,NA,NA,NA,NA,NA,NA,NA,NA,NA
aa2eb,deep,flow.Sequence,3_0_5_0_0_0,NA,NA,skipped,NA,760324,NA,NA,760296,760324.10000002,2023-10-17T13:45:10Z,760337.042,NULL,Schüler,mwanafunzi,s,mwekezaji,matumizi,uaminifu,NA,sdf,NA,5,NA,NA,NA,NA,NA,NA,NA,NA,NA,NA,NA,NA,NA,NA,NA,NA,NA,NA,NA
aa2eb,Shallow Question,html.Page,3_0_5_0_0_1_0,NA,NA,form submission,3522.7579999523,760324.19999993,760320.376,760337.042,763859.79999995,763860.29999995,2023-10-17T13:45:13Z,763870.234,NULL,Schüler,mwanafunzi,s,mwekezaji,matumizi,uaminifu,mwanafunzi,NA,NA,5,NA,NA,NA,NA,NA,NA,NA,NA,NA,NA,NA,NA,NA,NA,NA,NA,NA,NA,NA
aa2eb,"""Richtig""-Screen",canvas.Screen,3_0_5_0_0_1_1,NA,NA,timeout,5000.387,763863.5,763853.568,763870.234,768853.955,768858.69999993,2023-10-17T13:45:18Z,768870.621,NULL,Schüler,mwanafunzi,s,mwekezaji,matumizi,uaminifu,NA,sdf,1,5,NA,NA,NA,NA,NA,NA,NA,NA,NA,NA,NA,NA,NA,NA,NA,NA,NA,NA,NA
aa2eb,"""Falsch""-Screen",canvas.Screen,3_0_5_0_0_1_2,NA,NA,skipped,NA,768863,NA,NA,768853.955,768863.19999993,2023-10-17T13:45:18Z,768870.621,NULL,Schüler,mwanafunzi,s,mwekezaji,matumizi,uaminifu,NA,sdf,NA,5,NA,NA,NA,NA,NA,NA,NA,NA,NA,NA,NA,NA,NA,NA,NA,NA,NA,NA,NA
aa2eb,shallow,flow.Sequence,3_0_5_0_0_1,NA,NA,completion,8516.9129999999,760324.19999993,760320.376,760337.042,768853.955,768863.39999998,2023-10-17T13:45:18Z,768870.621,NULL,Schüler,mwanafunzi,s,mwekezaji,matumizi,uaminifu,NA,sdf,NA,5,NA,NA,NA,NA,NA,NA,NA,NA,NA,NA,NA,NA,NA,NA,NA,NA,NA,NA,NA
aa2eb,task,flow.Sequence,3_0_5_0_0,NA,NA,completion,8516.9129999999,760324,760320.376,760337.042,768853.955,768863.60000002,2023-10-17T13:45:18Z,768870.621,NULL,Schüler,mwanafunzi,s,mwekezaji,matumizi,uaminifu,NA,sdf,NA,5,NA,NA,NA,NA,NA,NA,NA,NA,NA,NA,NA,NA,NA,NA,NA,NA,NA,NA,NA
aa2eb,Deep Question,html.Page,3_0_5_0_1_0_0,NA,NA,form submission,14855.379,768863.69999993,768853.955,768870.621,783726,783726.5,2023-10-17T13:45:33Z,783737.42,NULL,Spionage,upelelezi,d,NA,NA,NA,uwalele,NA,NA,5,NA,NA,NA,NA,NA,NA,NA,NA,NA,NA,NA,NA,NA,NA,NA,NA,NA,NA,NA
aa2eb,"""Richtig""-Screen",canvas.Screen,3_0_5_0_1_0_1,NA,NA,skipped,NA,783729.19999993,NA,NA,783726,783729.29999995,2023-10-17T13:45:33Z,783737.42,NULL,Spionage,upelelezi,d,NA,NA,NA,NA,sdf,NA,5,NA,NA,NA,NA,NA,NA,NA,NA,NA,NA,NA,NA,NA,NA,NA,NA,NA,NA,NA
aa2eb,"""Falsch""-Screen",canvas.Screen,3_0_5_0_1_0_2,NA,NA,timeout,5000.1039999999,783730,783720.754,783737.42,788720.858,788724.69999993,2023-10-17T13:45:38Z,788737.524,NULL,Spionage,upelelezi,d,NA,NA,NA,NA,sdf,0,5,NA,NA,NA,NA,NA,NA,NA,NA,NA,NA,NA,NA,NA,NA,NA,NA,NA,NA,NA
aa2eb,deep,flow.Sequence,3_0_5_0_1_0,NA,NA,completion,19850.237,768863.69999993,768853.955,768870.621,788720.858,788725.10000002,2023-10-17T13:45:38Z,788737.524,NULL,Spionage,upelelezi,d,NA,NA,NA,NA,sdf,NA,5,NA,NA,NA,NA,NA,NA,NA,NA,NA,NA,NA,NA,NA,NA,NA,NA,NA,NA,NA
aa2eb,shallow,flow.Sequence,3_0_5_0_1_1,NA,NA,skipped,NA,788725.19999993,NA,NA,788720.858,788725.29999995,2023-10-17T13:45:38Z,788737.524,NULL,Spionage,upelelezi,d,NA,NA,NA,NA,sdf,NA,5,NA,NA,NA,NA,NA,NA,NA,NA,NA,NA,NA,NA,NA,NA,NA,NA,NA,NA,NA
aa2eb,task,flow.Sequence,3_0_5_0_1,NA,NA,completion,19850.237,768863.69999993,768853.955,768870.621,788720.858,788725.5,2023-10-17T13:45:38Z,788737.524,NULL,Spionage,upelelezi,d,NA,NA,NA,NA,sdf,NA,5,NA,NA,NA,NA,NA,NA,NA,NA,NA,NA,NA,NA,NA,NA,NA,NA,NA,NA,NA
aa2eb,deep,flow.Sequence,3_0_5_0_2_0,NA,NA,skipped,NA,788725.60000002,NA,NA,788720.858,788725.69999993,2023-10-17T13:45:38Z,788737.524,NULL,Papier,karatasi,s,uchambuzi,usalama,kukataliwa,NA,sdf,NA,5,NA,NA,NA,NA,NA,NA,NA,NA,NA,NA,NA,NA,NA,NA,NA,NA,NA,NA,NA
aa2eb,Shallow Question,html.Page,3_0_5_0_2_1_0,NA,NA,form submission,4953.6759999285,788725.79999995,788720.858,788737.524,793691.19999993,793691.69999993,2023-10-17T13:45:43Z,793703.992,NULL,Papier,karatasi,s,uchambuzi,usalama,kukataliwa,karatasi,NA,NA,5,NA,NA,NA,NA,NA,NA,NA,NA,NA,NA,NA,NA,NA,NA,NA,NA,NA,NA,NA
aa2eb,"""Richtig""-Screen",canvas.Screen,3_0_5_0_2_1_1,NA,NA,timeout,5000.426,793694.69999993,793687.326,793703.992,798687.752,798690.19999993,2023-10-17T13:45:48Z,798704.418,NULL,Papier,karatasi,s,uchambuzi,usalama,kukataliwa,NA,sdf,1,5,NA,NA,NA,NA,NA,NA,NA,NA,NA,NA,NA,NA,NA,NA,NA,NA,NA,NA,NA
aa2eb,"""Falsch""-Screen",canvas.Screen,3_0_5_0_2_1_2,NA,NA,skipped,NA,798694.29999995,NA,NA,798687.752,798694.5,2023-10-17T13:45:48Z,798704.418,NULL,Papier,karatasi,s,uchambuzi,usalama,kukataliwa,NA,sdf,NA,5,NA,NA,NA,NA,NA,NA,NA,NA,NA,NA,NA,NA,NA,NA,NA,NA,NA,NA,NA
aa2eb,shallow,flow.Sequence,3_0_5_0_2_1,NA,NA,completion,9950.228,788725.69999993,788720.858,788737.524,798687.752,798694.60000002,2023-10-17T13:45:48Z,798704.418,NULL,Papier,karatasi,s,uchambuzi,usalama,kukataliwa,NA,sdf,NA,5,NA,NA,NA,NA,NA,NA,NA,NA,NA,NA,NA,NA,NA,NA,NA,NA,NA,NA,NA
aa2eb,task,flow.Sequence,3_0_5_0_2,NA,NA,completion,9950.228,788725.60000002,788720.858,788737.524,798687.752,798694.79999995,2023-10-17T13:45:48Z,798704.418,NULL,Papier,karatasi,s,uchambuzi,usalama,kukataliwa,NA,sdf,NA,5,NA,NA,NA,NA,NA,NA,NA,NA,NA,NA,NA,NA,NA,NA,NA,NA,NA,NA,NA
aa2eb,Deep Question,html.Page,3_0_5_0_3_0_0,NA,NA,form submission,10731.082,798695.10000002,798687.752,798704.418,809435.5,809436,2023-10-17T13:45:59Z,809438.152,NULL,Entwicklung,maendeleo,d,NA,NA,NA,maendeleo,NA,NA,5,NA,NA,NA,NA,NA,NA,NA,NA,NA,NA,NA,NA,NA,NA,NA,NA,NA,NA,NA
aa2eb,"""Richtig""-Screen",canvas.Screen,3_0_5_0_3_0_1,NA,NA,timeout,4999.8,809438.60000002,809421.486,809438.152,814421.286,814426.5,2023-10-17T13:46:04Z,814437.952,NULL,Entwicklung,maendeleo,d,NA,NA,NA,NA,sdf,1,5,NA,NA,NA,NA,NA,NA,NA,NA,NA,NA,NA,NA,NA,NA,NA,NA,NA,NA,NA
aa2eb,"""Falsch""-Screen",canvas.Screen,3_0_5_0_3_0_2,NA,NA,skipped,NA,814430.19999993,NA,NA,814421.286,814430.39999998,2023-10-17T13:46:04Z,814437.952,NULL,Entwicklung,maendeleo,d,NA,NA,NA,NA,sdf,NA,5,NA,NA,NA,NA,NA,NA,NA,NA,NA,NA,NA,NA,NA,NA,NA,NA,NA,NA,NA
aa2eb,deep,flow.Sequence,3_0_5_0_3_0,NA,NA,completion,15716.868,798695,798687.752,798704.418,814421.286,814430.60000002,2023-10-17T13:46:04Z,814437.952,NULL,Entwicklung,maendeleo,d,NA,NA,NA,NA,sdf,NA,5,NA,NA,NA,NA,NA,NA,NA,NA,NA,NA,NA,NA,NA,NA,NA,NA,NA,NA,NA
aa2eb,shallow,flow.Sequence,3_0_5_0_3_1,NA,NA,skipped,NA,814430.69999993,NA,NA,814421.286,814430.79999995,2023-10-17T13:46:04Z,814437.952,NULL,Entwicklung,maendeleo,d,NA,NA,NA,NA,sdf,NA,5,NA,NA,NA,NA,NA,NA,NA,NA,NA,NA,NA,NA,NA,NA,NA,NA,NA,NA,NA
aa2eb,task,flow.Sequence,3_0_5_0_3,NA,NA,completion,15716.868,798694.89999998,798687.752,798704.418,814421.286,814430.89999998,2023-10-17T13:46:04Z,814437.952,NULL,Entwicklung,maendeleo,d,NA,NA,NA,NA,sdf,NA,5,NA,NA,NA,NA,NA,NA,NA,NA,NA,NA,NA,NA,NA,NA,NA,NA,NA,NA,NA
aa2eb,deep,flow.Sequence,3_0_5_0_4_0,NA,NA,skipped,NA,814431.10000002,NA,NA,814421.286,814431.19999993,2023-10-17T13:46:04Z,814437.952,NULL,Niveau,kiwango,s,usimamizi,mwamali,mshairi,NA,sdf,NA,5,NA,NA,NA,NA,NA,NA,NA,NA,NA,NA,NA,NA,NA,NA,NA,NA,NA,NA,NA
aa2eb,Shallow Question,html.Page,3_0_5_0_4_1_0,NA,NA,form submission,4849.048,814431.29999995,814421.286,814437.952,819287,819287.60000002,2023-10-17T13:46:09Z,819288.318,NULL,Niveau,kiwango,s,usimamizi,mwamali,mshairi,kiwango,NA,NA,5,NA,NA,NA,NA,NA,NA,NA,NA,NA,NA,NA,NA,NA,NA,NA,NA,NA,NA,NA
aa2eb,"""Richtig""-Screen",canvas.Screen,3_0_5_0_4_1_1,NA,NA,timeout,4999.8,819290.19999993,819271.652,819288.318,824271.452,824276.89999998,2023-10-17T13:46:14Z,824288.118,NULL,Niveau,kiwango,s,usimamizi,mwamali,mshairi,NA,sdf,1,5,NA,NA,NA,NA,NA,NA,NA,NA,NA,NA,NA,NA,NA,NA,NA,NA,NA,NA,NA
aa2eb,"""Falsch""-Screen",canvas.Screen,3_0_5_0_4_1_2,NA,NA,skipped,NA,824281.10000002,NA,NA,824271.452,824281.39999998,2023-10-17T13:46:14Z,824288.118,NULL,Niveau,kiwango,s,usimamizi,mwamali,mshairi,NA,sdf,NA,5,NA,NA,NA,NA,NA,NA,NA,NA,NA,NA,NA,NA,NA,NA,NA,NA,NA,NA,NA
aa2eb,shallow,flow.Sequence,3_0_5_0_4_1,NA,NA,completion,9833.5,814431.19999993,814421.286,814437.952,824271.452,824281.60000002,2023-10-17T13:46:14Z,824288.118,NULL,Niveau,kiwango,s,usimamizi,mwamali,mshairi,NA,sdf,NA,5,NA,NA,NA,NA,NA,NA,NA,NA,NA,NA,NA,NA,NA,NA,NA,NA,NA,NA,NA
aa2eb,task,flow.Sequence,3_0_5_0_4,NA,NA,completion,9833.5,814431,814421.286,814437.952,824271.452,824281.69999993,2023-10-17T13:46:14Z,824288.118,NULL,Niveau,kiwango,s,usimamizi,mwamali,mshairi,NA,sdf,NA,5,NA,NA,NA,NA,NA,NA,NA,NA,NA,NA,NA,NA,NA,NA,NA,NA,NA,NA,NA
aa2eb,Deep Question,html.Page,3_0_5_0_5_0_0,NA,NA,form submission,12446.181999952,824281.79999995,824271.452,824288.118,836734.29999995,836734.89999998,2023-10-17T13:46:26Z,836738.185,NULL,Vorwurf,mashtaka,d,NA,NA,NA,tashi,NA,NA,5,NA,NA,NA,NA,NA,NA,NA,NA,NA,NA,NA,NA,NA,NA,NA,NA,NA,NA,NA
aa2eb,"""Richtig""-Screen",canvas.Screen,3_0_5_0_5_0_1,NA,NA,skipped,NA,836737.79999995,NA,NA,836734.29999995,836738,2023-10-17T13:46:26Z,836738.185,NULL,Vorwurf,mashtaka,d,NA,NA,NA,NA,sdf,NA,5,NA,NA,NA,NA,NA,NA,NA,NA,NA,NA,NA,NA,NA,NA,NA,NA,NA,NA,NA
aa2eb,"""Falsch""-Screen",canvas.Screen,3_0_5_0_5_0_2,NA,NA,timeout,5000.1349999999,836739.10000002,836721.519,836738.185,841721.654,841726.79999995,2023-10-17T13:46:31Z,841738.32,NULL,Vorwurf,mashtaka,d,NA,NA,NA,NA,sdf,0,5,NA,NA,NA,NA,NA,NA,NA,NA,NA,NA,NA,NA,NA,NA,NA,NA,NA,NA,NA
aa2eb,deep,flow.Sequence,3_0_5_0_5_0,NA,NA,completion,17433.536,824281.79999995,824271.452,824288.118,841721.654,841727.10000002,2023-10-17T13:46:31Z,841738.32,NULL,Vorwurf,mashtaka,d,NA,NA,NA,NA,sdf,NA,5,NA,NA,NA,NA,NA,NA,NA,NA,NA,NA,NA,NA,NA,NA,NA,NA,NA,NA,NA
aa2eb,shallow,flow.Sequence,3_0_5_0_5_1,NA,NA,skipped,NA,841727.29999995,NA,NA,841721.654,841727.39999998,2023-10-17T13:46:31Z,841738.32,NULL,Vorwurf,mashtaka,d,NA,NA,NA,NA,sdf,NA,5,NA,NA,NA,NA,NA,NA,NA,NA,NA,NA,NA,NA,NA,NA,NA,NA,NA,NA,NA
aa2eb,task,flow.Sequence,3_0_5_0_5,NA,NA,completion,17433.536,824281.79999995,824271.452,824288.118,841721.654,841727.5,2023-10-17T13:46:31Z,841738.32,NULL,Vorwurf,mashtaka,d,NA,NA,NA,NA,sdf,NA,5,NA,NA,NA,NA,NA,NA,NA,NA,NA,NA,NA,NA,NA,NA,NA,NA,NA,NA,NA
aa2eb,Deep Question,html.Page,3_0_5_0_6_0_0,NA,NA,form submission,11700.780000024,841727.79999995,841721.654,841738.32,853439.10000002,853439.79999995,2023-10-17T13:46:43Z,853438.805,NULL,Fenster,dirisha,d,NA,NA,NA,dile,NA,NA,5,NA,NA,NA,NA,NA,NA,NA,NA,NA,NA,NA,NA,NA,NA,NA,NA,NA,NA,NA
aa2eb,"""Richtig""-Screen",canvas.Screen,3_0_5_0_6_0_1,NA,NA,skipped,NA,853442.19999993,NA,NA,853439.10000002,853442.29999995,2023-10-17T13:46:43Z,853438.805,NULL,Fenster,dirisha,d,NA,NA,NA,NA,sdf,NA,5,NA,NA,NA,NA,NA,NA,NA,NA,NA,NA,NA,NA,NA,NA,NA,NA,NA,NA,NA
aa2eb,"""Falsch""-Screen",canvas.Screen,3_0_5_0_6_0_2,NA,NA,timeout,4999.7999999999,853442.89999998,853422.139,853438.805,858421.939,858426.29999995,2023-10-17T13:46:48Z,858438.605,NULL,Fenster,dirisha,d,NA,NA,NA,NA,sdf,0,5,NA,NA,NA,NA,NA,NA,NA,NA,NA,NA,NA,NA,NA,NA,NA,NA,NA,NA,NA
aa2eb,deep,flow.Sequence,3_0_5_0_6_0,NA,NA,completion,16683.619,841727.79999995,841721.654,841738.32,858421.939,858426.60000002,2023-10-17T13:46:48Z,858438.605,NULL,Fenster,dirisha,d,NA,NA,NA,NA,sdf,NA,5,NA,NA,NA,NA,NA,NA,NA,NA,NA,NA,NA,NA,NA,NA,NA,NA,NA,NA,NA
aa2eb,shallow,flow.Sequence,3_0_5_0_6_1,NA,NA,skipped,NA,858426.79999995,NA,NA,858421.939,858426.89999998,2023-10-17T13:46:48Z,858438.605,NULL,Fenster,dirisha,d,NA,NA,NA,NA,sdf,NA,5,NA,NA,NA,NA,NA,NA,NA,NA,NA,NA,NA,NA,NA,NA,NA,NA,NA,NA,NA
aa2eb,task,flow.Sequence,3_0_5_0_6,NA,NA,completion,16683.619,841727.69999993,841721.654,841738.32,858421.939,858427.10000002,2023-10-17T13:46:48Z,858438.605,NULL,Fenster,dirisha,d,NA,NA,NA,NA,sdf,NA,5,NA,NA,NA,NA,NA,NA,NA,NA,NA,NA,NA,NA,NA,NA,NA,NA,NA,NA,NA
aa2eb,deep,flow.Sequence,3_0_5_0_7_0,NA,NA,skipped,NA,858427.19999993,NA,NA,858421.939,858427.29999995,2023-10-17T13:46:48Z,858438.605,NULL,Tester,wanaojaribu,s,sherti,sihiri,mlipuko,NA,sdf,NA,5,NA,NA,NA,NA,NA,NA,NA,NA,NA,NA,NA,NA,NA,NA,NA,NA,NA,NA,NA
aa2eb,Shallow Question,html.Page,3_0_5_0_7_1_0,NA,NA,form submission,7775.1949999523,858427.5,858421.939,858438.605,866213.79999995,866214.29999995,2023-10-17T13:46:56Z,866222.017,NULL,Tester,wanaojaribu,s,sherti,sihiri,mlipuko,sherti,NA,NA,5,NA,NA,NA,NA,NA,NA,NA,NA,NA,NA,NA,NA,NA,NA,NA,NA,NA,NA,NA
aa2eb,"""Richtig""-Screen",canvas.Screen,3_0_5_0_7_1_1,NA,NA,skipped,NA,866217.10000002,NA,NA,866213.79999995,866217.19999993,2023-10-17T13:46:56Z,866222.017,NULL,Tester,wanaojaribu,s,sherti,sihiri,mlipuko,NA,sdf,NA,5,NA,NA,NA,NA,NA,NA,NA,NA,NA,NA,NA,NA,NA,NA,NA,NA,NA,NA,NA
aa2eb,"""Falsch""-Screen",canvas.Screen,3_0_5_0_7_1_2,NA,NA,timeout,4999.8,866217.79999995,866205.351,866222.017,871205.151,871209,2023-10-17T13:47:01Z,871221.817,NULL,Tester,wanaojaribu,s,sherti,sihiri,mlipuko,NA,sdf,0,5,NA,NA,NA,NA,NA,NA,NA,NA,NA,NA,NA,NA,NA,NA,NA,NA,NA,NA,NA
aa2eb,shallow,flow.Sequence,3_0_5_0_7_1,NA,NA,completion,12766.546,858427.39999998,858421.939,858438.605,871205.151,871209.39999998,2023-10-17T13:47:01Z,871221.817,NULL,Tester,wanaojaribu,s,sherti,sihiri,mlipuko,NA,sdf,NA,5,NA,NA,NA,NA,NA,NA,NA,NA,NA,NA,NA,NA,NA,NA,NA,NA,NA,NA,NA
aa2eb,task,flow.Sequence,3_0_5_0_7,NA,NA,completion,12766.546,858427.19999993,858421.939,858438.605,871205.151,871209.60000002,2023-10-17T13:47:01Z,871221.817,NULL,Tester,wanaojaribu,s,sherti,sihiri,mlipuko,NA,sdf,NA,5,NA,NA,NA,NA,NA,NA,NA,NA,NA,NA,NA,NA,NA,NA,NA,NA,NA,NA,NA
aa2eb,block,flow.Loop,3_0_5_0,NA,NA,completion,110868.109,760324,760320.376,760337.042,871205.151,871209.89999998,2023-10-17T13:47:01Z,871221.817,NULL,NA,NA,NA,NA,NA,NA,NA,sdf,NA,5,NA,NA,NA,NA,NA,NA,NA,NA,NA,NA,NA,NA,NA,NA,NA,NA,NA,NA,NA
aa2eb,weiter,canvas.Screen,3_0_5_1,sdf,keypress(Space),response,963.7830000238,871209.89999998,871205.151,871221.817,872185.60000002,872193.29999995,2023-10-17T13:47:02Z,872221.777,NULL,NA,NA,NA,NA,NA,NA,NA,sdf,NA,5,NA,NA,NA,NA,NA,NA,NA,NA,NA,NA,NA,NA,NA,NA,NA,NA,NA,NA,NA
aa2eb,check continue,flow.Sequence,3_0_5,NA,NA,completion,111848.55800002,760324,760320.376,760337.042,872185.60000002,872193.5,2023-10-17T13:47:02Z,872221.777,NULL,NA,NA,NA,NA,NA,NA,NA,sdf,NA,5,NA,NA,NA,NA,NA,NA,NA,NA,NA,NA,NA,NA,NA,NA,NA,NA,NA,NA,NA
aa2eb,deep,flow.Sequence,3_0_6_0_0_0,NA,NA,skipped,NA,872217,NA,NA,872185.60000002,872217.10000002,2023-10-17T13:47:02Z,872221.777,NULL,Niveau,kiwango,s,usimamizi,mwamali,mshairi,NA,dfs,NA,6,NA,NA,NA,NA,NA,NA,NA,NA,NA,NA,NA,NA,NA,NA,NA,NA,NA,NA,NA
aa2eb,Shallow Question,html.Page,3_0_6_0_0_1_0,NA,NA,form submission,5950.3230000238,872217.19999993,872205.111,872221.777,878172.10000002,878172.60000002,2023-10-17T13:47:08Z,878172.211,NULL,Niveau,kiwango,s,usimamizi,mwamali,mshairi,kiwango,NA,NA,6,NA,NA,NA,NA,NA,NA,NA,NA,NA,NA,NA,NA,NA,NA,NA,NA,NA,NA,NA
aa2eb,"""Richtig""-Screen",canvas.Screen,3_0_6_0_0_1_1,NA,NA,timeout,5000.189,878175.60000002,878155.545,878172.211,883155.734,883160.29999995,2023-10-17T13:47:13Z,883172.4,NULL,Niveau,kiwango,s,usimamizi,mwamali,mshairi,NA,dfs,1,6,NA,NA,NA,NA,NA,NA,NA,NA,NA,NA,NA,NA,NA,NA,NA,NA,NA,NA,NA
aa2eb,"""Falsch""-Screen",canvas.Screen,3_0_6_0_0_1_2,NA,NA,skipped,NA,883164.39999998,NA,NA,883155.734,883164.60000002,2023-10-17T13:47:13Z,883172.4,NULL,Niveau,kiwango,s,usimamizi,mwamali,mshairi,NA,dfs,NA,6,NA,NA,NA,NA,NA,NA,NA,NA,NA,NA,NA,NA,NA,NA,NA,NA,NA,NA,NA
aa2eb,shallow,flow.Sequence,3_0_6_0_0_1,NA,NA,completion,10933.957,872217.10000002,872205.111,872221.777,883155.734,883164.79999995,2023-10-17T13:47:13Z,883172.4,NULL,Niveau,kiwango,s,usimamizi,mwamali,mshairi,NA,dfs,NA,6,NA,NA,NA,NA,NA,NA,NA,NA,NA,NA,NA,NA,NA,NA,NA,NA,NA,NA,NA
aa2eb,task,flow.Sequence,3_0_6_0_0,NA,NA,completion,10933.957,872217,872205.111,872221.777,883155.734,883165,2023-10-17T13:47:13Z,883172.4,NULL,Niveau,kiwango,s,usimamizi,mwamali,mshairi,NA,dfs,NA,6,NA,NA,NA,NA,NA,NA,NA,NA,NA,NA,NA,NA,NA,NA,NA,NA,NA,NA,NA
aa2eb,deep,flow.Sequence,3_0_6_0_1_0,NA,NA,skipped,NA,883165.10000002,NA,NA,883155.734,883165.19999993,2023-10-17T13:47:13Z,883172.4,NULL,Schüler,mwanafunzi,s,mwekezaji,matumizi,uaminifu,NA,dfs,NA,6,NA,NA,NA,NA,NA,NA,NA,NA,NA,NA,NA,NA,NA,NA,NA,NA,NA,NA,NA
aa2eb,Shallow Question,html.Page,3_0_6_0_1_1_0,NA,NA,form submission,3472.2000000238,883165.29999995,883155.734,883172.4,886644.60000002,886645.10000002,2023-10-17T13:47:16Z,886655.594,NULL,Schüler,mwanafunzi,s,mwekezaji,matumizi,uaminifu,mwanafunzi,NA,NA,6,NA,NA,NA,NA,NA,NA,NA,NA,NA,NA,NA,NA,NA,NA,NA,NA,NA,NA,NA
aa2eb,"""Richtig""-Screen",canvas.Screen,3_0_6_0_1_1_1,NA,NA,timeout,4999.7999999999,886647.5,886638.928,886655.594,891638.728,891643.39999998,2023-10-17T13:47:21Z,891655.394,NULL,Schüler,mwanafunzi,s,mwekezaji,matumizi,uaminifu,NA,dfs,1,6,NA,NA,NA,NA,NA,NA,NA,NA,NA,NA,NA,NA,NA,NA,NA,NA,NA,NA,NA
aa2eb,"""Falsch""-Screen",canvas.Screen,3_0_6_0_1_1_2,NA,NA,skipped,NA,891647.5,NA,NA,891638.728,891647.69999993,2023-10-17T13:47:21Z,891655.394,NULL,Schüler,mwanafunzi,s,mwekezaji,matumizi,uaminifu,NA,dfs,NA,6,NA,NA,NA,NA,NA,NA,NA,NA,NA,NA,NA,NA,NA,NA,NA,NA,NA,NA,NA
aa2eb,shallow,flow.Sequence,3_0_6_0_1_1,NA,NA,completion,8466.328,883165.19999993,883155.734,883172.4,891638.728,891647.89999998,2023-10-17T13:47:21Z,891655.394,NULL,Schüler,mwanafunzi,s,mwekezaji,matumizi,uaminifu,NA,dfs,NA,6,NA,NA,NA,NA,NA,NA,NA,NA,NA,NA,NA,NA,NA,NA,NA,NA,NA,NA,NA
aa2eb,task,flow.Sequence,3_0_6_0_1,NA,NA,completion,8466.328,883165.10000002,883155.734,883172.4,891638.728,891647.89999998,2023-10-17T13:47:21Z,891655.394,NULL,Schüler,mwanafunzi,s,mwekezaji,matumizi,uaminifu,NA,dfs,NA,6,NA,NA,NA,NA,NA,NA,NA,NA,NA,NA,NA,NA,NA,NA,NA,NA,NA,NA,NA
aa2eb,Deep Question,html.Page,3_0_6_0_2_0_0,NA,NA,form submission,9545.2060000239,891648.10000002,891638.728,891655.394,901200.60000002,901201.10000002,2023-10-17T13:47:31Z,901205.757,NULL,Spionage,upelelezi,d,NA,NA,NA,uvelele,NA,NA,6,NA,NA,NA,NA,NA,NA,NA,NA,NA,NA,NA,NA,NA,NA,NA,NA,NA,NA,NA
