observation,sender,sender_type,sender_id,response,response_action,ended_on,duration,time_run,time_render,time_show,time_end,time_commit,timestamp,time_switch,german,swahili,enc,distractor1,distractor2,distractor3,response_2,x,correct,distractors,url_vp,url_sess,meta_labjs_version,meta_location,meta_user_agent,meta_platform,meta_language,meta_locale,meta_time_zone,meta_timezone_offset,meta_screen_width,meta_screen_height,meta_scroll_width,meta_scroll_height,meta_window_inner_width,meta_window_inner_height,meta_device_pixel_ratio,meta_labjs_build_flavor,meta_labjs_build_commit
cbd07,Introduction delayed retrieval,canvas.Screen,0,weiter,keypress(Space),response,5874.5410000238,896.80000007153,764.69,898.059,6772.6000000238,6775.4000000954,2023-06-10T07:29:06Z,6781.174,NA,NA,NA,NA,NA,NA,NA,NA,NA,NULL,214,4,20.2.4,https://neurocog.fernuni.ch/studies/vweber/sfink/delayed/index.html?vp=214&sess=4,"Mozilla/5.0 (Windows NT 10.0; Win64; x64) AppleWebKit/537.36 (KHTML, like Gecko) Chrome/114.0.0.0 Safari/537.36",Win32,en-US,en-US,Europe/Paris,-120,1920,1080,1920,889,1920,937,1,production,f5b4a49f956347addd546a832a3327688c2c0fef
cbd07,Deep Question,html.Page,1_0_0_0,NA,NA,form submission,12524.626000072,6775.7000000477,6764.659,6781.174,19305.800000072,19306,2023-06-10T07:29:19Z,19314.396,Spionage,upelelezi,s,maslahi,utokazo,magangao,kj,NA,NA,NULL,NA,NA,NA,NA,NA,NA,NA,NA,NA,NA,NA,NA,NA,NA,NA,NA,NA,NA,NA
cbd07,Save data screen,canvas.Screen,1_0_0_1,NA,NA,timeout,499.888,19306.800000072,19297.588,19314.396,19797.583,19798.700000048,2023-06-10T07:29:19Z,19814.284,Spionage,upelelezi,s,maslahi,utokazo,magangao,NA,NA,0,NULL,NA,NA,NA,NA,NA,NA,NA,NA,NA,NA,NA,NA,NA,NA,NA,NA,NA,NA,NA
cbd07,deep,flow.Sequence,1_0_0,NA,NA,completion,13016.409,6775.6000000238,6764.659,6781.174,19797.583,19798.900000095,2023-06-10T07:29:19Z,19814.284,Spionage,upelelezi,s,maslahi,utokazo,magangao,NA,NA,NA,NULL,NA,NA,NA,NA,NA,NA,NA,NA,NA,NA,NA,NA,NA,NA,NA,NA,NA,NA,NA
cbd07,task,flow.Sequence,1_0,NA,NA,completion,13016.409,6775.6000000238,6764.659,6781.174,19797.583,19798.900000095,2023-06-10T07:29:19Z,19814.284,Spionage,upelelezi,s,maslahi,utokazo,magangao,NA,NA,NA,NULL,NA,NA,NA,NA,NA,NA,NA,NA,NA,NA,NA,NA,NA,NA,NA,NA,NA,NA,NA
cbd07,Deep Question,html.Page,1_1_0_0,NA,NA,form submission,11646.916000048,19799,19797.583,19814.284,31461.200000048,31461.600000024,2023-06-10T07:29:31Z,31465.571,Vermutung,udhanifu,d,haramia,tikisho,itifaki,k,NA,NA,NULL,NA,NA,NA,NA,NA,NA,NA,NA,NA,NA,NA,NA,NA,NA,NA,NA,NA,NA,NA
cbd07,Save data screen,canvas.Screen,1_1_0_1,NA,NA,timeout,498.349,31462.200000048,31447.204,31465.571,31947.261,31948.100000024,2023-06-10T07:29:31Z,31963.92,Vermutung,udhanifu,d,haramia,tikisho,itifaki,NA,NA,0,NULL,NA,NA,NA,NA,NA,NA,NA,NA,NA,NA,NA,NA,NA,NA,NA,NA,NA,NA,NA
cbd07,deep,flow.Sequence,1_1_0,NA,NA,completion,12132.977,19799,19797.583,19814.284,31947.261,31948.400000095,2023-06-10T07:29:31Z,31963.92,Vermutung,udhanifu,d,haramia,tikisho,itifaki,NA,NA,NA,NULL,NA,NA,NA,NA,NA,NA,NA,NA,NA,NA,NA,NA,NA,NA,NA,NA,NA,NA,NA
cbd07,task,flow.Sequence,1_1,NA,NA,completion,12132.977,19799,19797.583,19814.284,31947.261,31948.5,2023-06-10T07:29:31Z,31963.92,Vermutung,udhanifu,d,haramia,tikisho,itifaki,NA,NA,NA,NULL,NA,NA,NA,NA,NA,NA,NA,NA,NA,NA,NA,NA,NA,NA,NA,NA,NA,NA,NA
cbd07,Deep Question,html.Page,1_2_0_0,NA,NA,form submission,30422.08,31948.600000024,31947.261,31963.92,62386,62386.400000095004,2023-06-10T07:30:02Z,62396.388,Toleranz,kuvumiliana,s,maombolezo,ujasusi,mchekeshaji,khj,NA,NA,NULL,NA,NA,NA,NA,NA,NA,NA,NA,NA,NA,NA,NA,NA,NA,NA,NA,NA,NA,NA
cbd07,Save data screen,canvas.Screen,1_2_0_1,NA,NA,timeout,500.052,62387.100000024,62379.778,62396.388,62879.694,62880.400000095004,2023-06-10T07:30:02Z,62896.44,Toleranz,kuvumiliana,s,maombolezo,ujasusi,mchekeshaji,NA,NA,0,NULL,NA,NA,NA,NA,NA,NA,NA,NA,NA,NA,NA,NA,NA,NA,NA,NA,NA,NA,NA
cbd07,deep,flow.Sequence,1_2_0,NA,NA,completion,30915.774,31948.600000024,31947.261,31963.92,62879.694,62880.600000024,2023-06-10T07:30:02Z,62896.44,Toleranz,kuvumiliana,s,maombolezo,ujasusi,mchekeshaji,NA,NA,NA,NULL,NA,NA,NA,NA,NA,NA,NA,NA,NA,NA,NA,NA,NA,NA,NA,NA,NA,NA,NA
cbd07,task,flow.Sequence,1_2,NA,NA,completion,30915.774,31948.5,31947.261,31963.92,62879.694,62880.600000024,2023-06-10T07:30:02Z,62896.44,Toleranz,kuvumiliana,s,maombolezo,ujasusi,mchekeshaji,NA,NA,NA,NULL,NA,NA,NA,NA,NA,NA,NA,NA,NA,NA,NA,NA,NA,NA,NA,NA,NA,NA,NA
cbd07,Deep Question,html.Page,1_3_0_0,NA,NA,form submission,18593.760000048,62880.800000072,62879.694,62896.44,81490.200000048,81490.5,2023-06-10T07:30:21Z,81495.836,Inhalt,yaliyomo,d,kishawishi,hifadhi,kutembea,yakayomo,NA,NA,NULL,NA,NA,NA,NA,NA,NA,NA,NA,NA,NA,NA,NA,NA,NA,NA,NA,NA,NA,NA
cbd07,Save data screen,canvas.Screen,1_3_0_1,NA,NA,timeout,500.26800000001,81495.600000024,81479.485,81495.836,81979.365,81980.600000024,2023-06-10T07:30:21Z,81996.104,Inhalt,yaliyomo,d,kishawishi,hifadhi,kutembea,NA,NA,0,NULL,NA,NA,NA,NA,NA,NA,NA,NA,NA,NA,NA,NA,NA,NA,NA,NA,NA,NA,NA
cbd07,deep,flow.Sequence,1_3_0,NA,NA,completion,19082.925,62880.800000072,62879.694,62896.44,81979.365,81981,2023-06-10T07:30:21Z,81996.104,Inhalt,yaliyomo,d,kishawishi,hifadhi,kutembea,NA,NA,NA,NULL,NA,NA,NA,NA,NA,NA,NA,NA,NA,NA,NA,NA,NA,NA,NA,NA,NA,NA,NA
cbd07,task,flow.Sequence,1_3,NA,NA,completion,19082.925,62880.800000072,62879.694,62896.44,81979.365,81981.100000024,2023-06-10T07:30:21Z,81996.104,Inhalt,yaliyomo,d,kishawishi,hifadhi,kutembea,NA,NA,NA,NULL,NA,NA,NA,NA,NA,NA,NA,NA,NA,NA,NA,NA,NA,NA,NA,NA,NA,NA,NA
cbd07,Deep Question,html.Page,1_4_0_0,NA,NA,form submission,12676.796000095,81981.300000072,81979.365,81996.104,94672.900000095,94673.200000048,2023-06-10T07:30:34Z,94678.813,Verpackung,ufungaji,d,uhusiano,upimaji,uchunguzi,adf,NA,NA,NULL,NA,NA,NA,NA,NA,NA,NA,NA,NA,NA,NA,NA,NA,NA,NA,NA,NA,NA,NA
cbd07,Save data screen,canvas.Screen,1_4_0_1,NA,NA,timeout,499.99800000001,94675,94662.398,94678.813,95162.442,95163.5,2023-06-10T07:30:35Z,95178.811,Verpackung,ufungaji,d,uhusiano,upimaji,uchunguzi,NA,NA,0,NULL,NA,NA,NA,NA,NA,NA,NA,NA,NA,NA,NA,NA,NA,NA,NA,NA,NA,NA,NA
cbd07,deep,flow.Sequence,1_4_0,NA,NA,completion,13166.338,81981.200000048,81979.365,81996.104,95162.442,95163.700000048,2023-06-10T07:30:35Z,95178.811,Verpackung,ufungaji,d,uhusiano,upimaji,uchunguzi,NA,NA,NA,NULL,NA,NA,NA,NA,NA,NA,NA,NA,NA,NA,NA,NA,NA,NA,NA,NA,NA,NA,NA
cbd07,task,flow.Sequence,1_4,NA,NA,completion,13166.338,81981.200000048,81979.365,81996.104,95162.442,95163.900000095,2023-06-10T07:30:35Z,95178.811,Verpackung,ufungaji,d,uhusiano,upimaji,uchunguzi,NA,NA,NA,NULL,NA,NA,NA,NA,NA,NA,NA,NA,NA,NA,NA,NA,NA,NA,NA,NA,NA,NA,NA
cbd07,Deep Question,html.Page,1_5_0_0,NA,NA,form submission,31341.789000024,95164.100000024,95162.442,95178.811,126520.60000002,126520.80000007,2023-06-10T07:31:06Z,126528.315,Theorie,nadharia,s,ushungi,mkutano,uwakilishi,kj,NA,NA,NULL,NA,NA,NA,NA,NA,NA,NA,NA,NA,NA,NA,NA,NA,NA,NA,NA,NA,NA,NA
cbd07,Save data screen,canvas.Screen,1_5_0_1,NA,NA,timeout,499.928,126522.4000001,126511.707,126528.315,127011.584,127012.20000005,2023-06-10T07:31:06Z,127028.243,Theorie,nadharia,s,ushungi,mkutano,uwakilishi,NA,NA,0,NULL,NA,NA,NA,NA,NA,NA,NA,NA,NA,NA,NA,NA,NA,NA,NA,NA,NA,NA,NA
cbd07,deep,flow.Sequence,1_5_0,NA,NA,completion,31832.773,95164.100000024,95162.442,95178.811,127011.584,127012.4000001,2023-06-10T07:31:06Z,127028.243,Theorie,nadharia,s,ushungi,mkutano,uwakilishi,NA,NA,NA,NULL,NA,NA,NA,NA,NA,NA,NA,NA,NA,NA,NA,NA,NA,NA,NA,NA,NA,NA,NA
cbd07,task,flow.Sequence,1_5,NA,NA,completion,31832.773,95164.100000024,95162.442,95178.811,127011.584,127012.5,2023-06-10T07:31:06Z,127028.243,Theorie,nadharia,s,ushungi,mkutano,uwakilishi,NA,NA,NA,NULL,NA,NA,NA,NA,NA,NA,NA,NA,NA,NA,NA,NA,NA,NA,NA,NA,NA,NA,NA
cbd07,Deep Question,html.Page,1_6_0_0,NA,NA,form submission,17795.457000048,127012.60000002,127011.584,127028.243,144823.70000005,144823.9000001,2023-06-10T07:31:24Z,144827.523,Ergänzung,kijalizo,s,ulaghai,mustarehe,matangazo,l,NA,NA,NULL,NA,NA,NA,NA,NA,NA,NA,NA,NA,NA,NA,NA,NA,NA,NA,NA,NA,NA,NA
cbd07,Save data screen,canvas.Screen,1_6_0_1,NA,NA,timeout,500.21900000001,144825.60000002,144810.939,144827.523,145311.13,145312.10000002,2023-06-10T07:31:25Z,145327.742,Ergänzung,kijalizo,s,ulaghai,mustarehe,matangazo,NA,NA,0,NULL,NA,NA,NA,NA,NA,NA,NA,NA,NA,NA,NA,NA,NA,NA,NA,NA,NA,NA,NA
cbd07,deep,flow.Sequence,1_6_0,NA,NA,completion,18282.887,127012.60000002,127011.584,127028.243,145311.13,145312.4000001,2023-06-10T07:31:25Z,145327.742,Ergänzung,kijalizo,s,ulaghai,mustarehe,matangazo,NA,NA,NA,NULL,NA,NA,NA,NA,NA,NA,NA,NA,NA,NA,NA,NA,NA,NA,NA,NA,NA,NA,NA
cbd07,task,flow.Sequence,1_6,NA,NA,completion,18282.887,127012.60000002,127011.584,127028.243,145311.13,145312.60000002,2023-06-10T07:31:25Z,145327.742,Ergänzung,kijalizo,s,ulaghai,mustarehe,matangazo,NA,NA,NA,NULL,NA,NA,NA,NA,NA,NA,NA,NA,NA,NA,NA,NA,NA,NA,NA,NA,NA,NA,NA
cbd07,Deep Question,html.Page,1_7_0_0,NA,NA,form submission,42023.458000048,145312.80000007,145311.13,145327.742,187351.20000005,187351.60000002,2023-06-10T07:32:07Z,187359.891,Notfall,dharura,d,rairai,malalamiko,ahueni,fd,NA,NA,NULL,NA,NA,NA,NA,NA,NA,NA,NA,NA,NA,NA,NA,NA,NA,NA,NA,NA,NA,NA
cbd07,Save data screen,canvas.Screen,1_7_0_1,NA,NA,timeout,500.05499999999,187353.5,187343.154,187359.891,187843.323,187844.5,2023-06-10T07:32:07Z,187859.946,Notfall,dharura,d,rairai,malalamiko,ahueni,NA,NA,0,NULL,NA,NA,NA,NA,NA,NA,NA,NA,NA,NA,NA,NA,NA,NA,NA,NA,NA,NA,NA
cbd07,deep,flow.Sequence,1_7_0,NA,NA,completion,42515.581,145312.70000005,145311.13,145327.742,187843.323,187844.80000007,2023-06-10T07:32:07Z,187859.946,Notfall,dharura,d,rairai,malalamiko,ahueni,NA,NA,NA,NULL,NA,NA,NA,NA,NA,NA,NA,NA,NA,NA,NA,NA,NA,NA,NA,NA,NA,NA,NA
cbd07,task,flow.Sequence,1_7,NA,NA,completion,42515.581,145312.60000002,145311.13,145327.742,187843.323,187844.9000001,2023-06-10T07:32:07Z,187859.946,Notfall,dharura,d,rairai,malalamiko,ahueni,NA,NA,NA,NULL,NA,NA,NA,NA,NA,NA,NA,NA,NA,NA,NA,NA,NA,NA,NA,NA,NA,NA,NA
cbd07,Deep Question,html.Page,1_8_0_0,NA,NA,form submission,9897.7540000477,187845.10000002,187843.323,187859.946,197757.70000005,197757.80000007,2023-06-10T07:32:17Z,197759.394,Vergnügen,kichekesho,d,dubwana,mpanuko,mtesaji,kichekesho,NA,NA,NULL,NA,NA,NA,NA,NA,NA,NA,NA,NA,NA,NA,NA,NA,NA,NA,NA,NA,NA,NA
cbd07,Save data screen,canvas.Screen,1_8_0_1,NA,NA,timeout,500.079,197759.70000005,197743.059,197759.394,198242.833,198243.60000002,2023-06-10T07:32:18Z,198259.473,Vergnügen,kichekesho,d,dubwana,mpanuko,mtesaji,NA,NA,1,NULL,NA,NA,NA,NA,NA,NA,NA,NA,NA,NA,NA,NA,NA,NA,NA,NA,NA,NA,NA
cbd07,deep,flow.Sequence,1_8_0,NA,NA,completion,10382.887,187845.10000002,187843.323,187859.946,198242.833,198243.9000001,2023-06-10T07:32:18Z,198259.473,Vergnügen,kichekesho,d,dubwana,mpanuko,mtesaji,NA,NA,NA,NULL,NA,NA,NA,NA,NA,NA,NA,NA,NA,NA,NA,NA,NA,NA,NA,NA,NA,NA,NA
cbd07,task,flow.Sequence,1_8,NA,NA,completion,10382.887,187845,187843.323,187859.946,198242.833,198244.10000002,2023-06-10T07:32:18Z,198259.473,Vergnügen,kichekesho,d,dubwana,mpanuko,mtesaji,NA,NA,NA,NULL,NA,NA,NA,NA,NA,NA,NA,NA,NA,NA,NA,NA,NA,NA,NA,NA,NA,NA,NA
cbd07,Deep Question,html.Page,1_9_0_0,NA,NA,form submission,3686.3270000715,198244.20000005,198242.833,198259.473,201945.80000007,201945.9000001,2023-06-10T07:32:21Z,201959.487,Wohlstand,mafanikio,s,chimbuko,kumbuko,mapwaji,fdas,NA,NA,NULL,NA,NA,NA,NA,NA,NA,NA,NA,NA,NA,NA,NA,NA,NA,NA,NA,NA,NA,NA
cbd07,Save data screen,canvas.Screen,1_9_0_1,NA,NA,timeout,499.959,201948.10000002,201942.721,201959.487,202442.736,202443.80000007,2023-06-10T07:32:22Z,202459.446,Wohlstand,mafanikio,s,chimbuko,kumbuko,mapwaji,NA,NA,0,NULL,NA,NA,NA,NA,NA,NA,NA,NA,NA,NA,NA,NA,NA,NA,NA,NA,NA,NA,NA
cbd07,deep,flow.Sequence,1_9_0,NA,NA,completion,4183.263,198244.20000005,198242.833,198259.473,202442.736,202444.20000005,2023-06-10T07:32:22Z,202459.446,Wohlstand,mafanikio,s,chimbuko,kumbuko,mapwaji,NA,NA,NA,NULL,NA,NA,NA,NA,NA,NA,NA,NA,NA,NA,NA,NA,NA,NA,NA,NA,NA,NA,NA
cbd07,task,flow.Sequence,1_9,NA,NA,completion,4183.263,198244.10000002,198242.833,198259.473,202442.736,202444.4000001,2023-06-10T07:32:22Z,202459.446,Wohlstand,mafanikio,s,chimbuko,kumbuko,mapwaji,NA,NA,NA,NULL,NA,NA,NA,NA,NA,NA,NA,NA,NA,NA,NA,NA,NA,NA,NA,NA,NA,NA,NA
cbd07,Deep Question,html.Page,1_10_0_0,NA,NA,form submission,4897.1540000238,202444.60000002,202442.736,202459.446,207356.60000002,207356.70000005,2023-06-10T07:32:27Z,207359.133,Schlange,foleni,s,uvumilivu,uteuzi,muuzaji,foleni,NA,NA,NULL,NA,NA,NA,NA,NA,NA,NA,NA,NA,NA,NA,NA,NA,NA,NA,NA,NA,NA,NA
cbd07,Save data screen,canvas.Screen,1_10_0_1,NA,NA,timeout,500.03200000001,207359,207342.752,207359.133,207842.469,207843.5,2023-06-10T07:32:27Z,207859.165,Schlange,foleni,s,uvumilivu,uteuzi,muuzaji,NA,NA,1,NULL,NA,NA,NA,NA,NA,NA,NA,NA,NA,NA,NA,NA,NA,NA,NA,NA,NA,NA,NA
cbd07,deep,flow.Sequence,1_10_0,NA,NA,completion,5383.023,202444.5,202442.736,202459.446,207842.469,207843.60000002,2023-06-10T07:32:27Z,207859.165,Schlange,foleni,s,uvumilivu,uteuzi,muuzaji,NA,NA,NA,NULL,NA,NA,NA,NA,NA,NA,NA,NA,NA,NA,NA,NA,NA,NA,NA,NA,NA,NA,NA
cbd07,task,flow.Sequence,1_10,NA,NA,completion,5383.023,202444.5,202442.736,202459.446,207842.469,207843.70000005,2023-06-10T07:32:27Z,207859.165,Schlange,foleni,s,uvumilivu,uteuzi,muuzaji,NA,NA,NA,NULL,NA,NA,NA,NA,NA,NA,NA,NA,NA,NA,NA,NA,NA,NA,NA,NA,NA,NA,NA
cbd07,Deep Question,html.Page,1_11_0_0,NA,NA,form submission,8557.0350000477,207843.80000007,207842.469,207859.165,216416.20000005,216416.4000001,2023-06-10T07:32:36Z,216425.828,Hoffnung,matarajio,d,kutaalamika,uratibu,mvumbuzi,df,NA,NA,NULL,NA,NA,NA,NA,NA,NA,NA,NA,NA,NA,NA,NA,NA,NA,NA,NA,NA,NA,NA
cbd07,Save data screen,canvas.Screen,1_11_0_1,NA,NA,timeout,500.01799999998,216418.80000007,216409.212,216425.828,216908.984,216910.10000002,2023-06-10T07:32:36Z,216925.846,Hoffnung,matarajio,d,kutaalamika,uratibu,mvumbuzi,NA,NA,0,NULL,NA,NA,NA,NA,NA,NA,NA,NA,NA,NA,NA,NA,NA,NA,NA,NA,NA,NA,NA
cbd07,deep,flow.Sequence,1_11_0,NA,NA,completion,9049.819,207843.70000005,207842.469,207859.165,216908.984,216910.30000007,2023-06-10T07:32:36Z,216925.846,Hoffnung,matarajio,d,kutaalamika,uratibu,mvumbuzi,NA,NA,NA,NULL,NA,NA,NA,NA,NA,NA,NA,NA,NA,NA,NA,NA,NA,NA,NA,NA,NA,NA,NA
cbd07,task,flow.Sequence,1_11,NA,NA,completion,9049.819,207843.70000005,207842.469,207859.165,216908.984,216910.5,2023-06-10T07:32:36Z,216925.846,Hoffnung,matarajio,d,kutaalamika,uratibu,mvumbuzi,NA,NA,NA,NULL,NA,NA,NA,NA,NA,NA,NA,NA,NA,NA,NA,NA,NA,NA,NA,NA,NA,NA,NA
cbd07,Deep Question,html.Page,1_12_0_0,NA,NA,form submission,2764.4540000715,216910.70000005,216908.984,216925.846,219690.30000007,219690.4000001,2023-06-10T07:32:39Z,219692.143,Tester,wanaojaribu,d,sherti,sihiri,mlipuko,afdsöjkl,NA,NA,NULL,NA,NA,NA,NA,NA,NA,NA,NA,NA,NA,NA,NA,NA,NA,NA,NA,NA,NA,NA
cbd07,Save data screen,canvas.Screen,1_12_0_1,NA,NA,timeout,500.27399999998,219691.20000005,219675.51,219692.143,220175.564,220176.20000005,2023-06-10T07:32:40Z,220192.417,Tester,wanaojaribu,d,sherti,sihiri,mlipuko,NA,NA,0,NULL,NA,NA,NA,NA,NA,NA,NA,NA,NA,NA,NA,NA,NA,NA,NA,NA,NA,NA,NA
cbd07,deep,flow.Sequence,1_12_0,NA,NA,completion,3249.718,216910.60000002,216908.984,216925.846,220175.564,220176.4000001,2023-06-10T07:32:40Z,220192.417,Tester,wanaojaribu,d,sherti,sihiri,mlipuko,NA,NA,NA,NULL,NA,NA,NA,NA,NA,NA,NA,NA,NA,NA,NA,NA,NA,NA,NA,NA,NA,NA,NA
cbd07,task,flow.Sequence,1_12,NA,NA,completion,3249.718,216910.60000002,216908.984,216925.846,220175.564,220176.5,2023-06-10T07:32:40Z,220192.417,Tester,wanaojaribu,d,sherti,sihiri,mlipuko,NA,NA,NA,NULL,NA,NA,NA,NA,NA,NA,NA,NA,NA,NA,NA,NA,NA,NA,NA,NA,NA,NA,NA
cbd07,Deep Question,html.Page,1_13_0_0,NA,NA,form submission,8141.3830000715,220176.60000002,220175.564,220192.417,228333.80000007,228334,2023-06-10T07:32:48Z,228342.07,Fenster,dirisha,s,walakini,tasawari,maarifa,dirisha,NA,NA,NULL,NA,NA,NA,NA,NA,NA,NA,NA,NA,NA,NA,NA,NA,NA,NA,NA,NA,NA,NA
cbd07,Save data screen,canvas.Screen,1_13_0_1,NA,NA,timeout,499.98699999999,228335.70000005,228325.539,228342.07,228825.543,228826.60000002,2023-06-10T07:32:48Z,228842.057,Fenster,dirisha,s,walakini,tasawari,maarifa,NA,NA,1,NULL,NA,NA,NA,NA,NA,NA,NA,NA,NA,NA,NA,NA,NA,NA,NA,NA,NA,NA,NA
cbd07,deep,flow.Sequence,1_13_0,NA,NA,completion,8633.126,220176.60000002,220175.564,220192.417,228825.543,228826.80000007,2023-06-10T07:32:48Z,228842.057,Fenster,dirisha,s,walakini,tasawari,maarifa,NA,NA,NA,NULL,NA,NA,NA,NA,NA,NA,NA,NA,NA,NA,NA,NA,NA,NA,NA,NA,NA,NA,NA
cbd07,task,flow.Sequence,1_13,NA,NA,completion,8633.126,220176.60000002,220175.564,220192.417,228825.543,228827,2023-06-10T07:32:48Z,228842.057,Fenster,dirisha,s,walakini,tasawari,maarifa,NA,NA,NA,NULL,NA,NA,NA,NA,NA,NA,NA,NA,NA,NA,NA,NA,NA,NA,NA,NA,NA,NA,NA
cbd07,Deep Question,html.Page,1_14_0_0,NA,NA,form submission,5835.8430000954,228827.20000005,228825.543,228842.057,234677.9000001,234678.20000005,2023-06-10T07:32:54Z,234691.78,Schock,mshtuko,s,biashara,kukataza,vichekesho,mashtuka,NA,NA,NULL,NA,NA,NA,NA,NA,NA,NA,NA,NA,NA,NA,NA,NA,NA,NA,NA,NA,NA,NA
cbd07,Save data screen,canvas.Screen,1_14_0_1,NA,NA,timeout,499.98300000001,234680,234675.44,234691.78,235175.101,235175.60000002,2023-06-10T07:32:55Z,235191.763,Schock,mshtuko,s,biashara,kukataza,vichekesho,NA,NA,0,NULL,NA,NA,NA,NA,NA,NA,NA,NA,NA,NA,NA,NA,NA,NA,NA,NA,NA,NA,NA
cbd07,deep,flow.Sequence,1_14_0,NA,NA,completion,6333.044,228827.20000005,228825.543,228842.057,235175.101,235175.70000005,2023-06-10T07:32:55Z,235191.763,Schock,mshtuko,s,biashara,kukataza,vichekesho,NA,NA,NA,NULL,NA,NA,NA,NA,NA,NA,NA,NA,NA,NA,NA,NA,NA,NA,NA,NA,NA,NA,NA
cbd07,task,flow.Sequence,1_14,NA,NA,completion,6333.044,228827.10000002,228825.543,228842.057,235175.101,235175.9000001,2023-06-10T07:32:55Z,235191.763,Schock,mshtuko,s,biashara,kukataza,vichekesho,NA,NA,NA,NULL,NA,NA,NA,NA,NA,NA,NA,NA,NA,NA,NA,NA,NA,NA,NA,NA,NA,NA,NA
cbd07,Deep Question,html.Page,1_15_0_0,NA,NA,form submission,17045.837000024,235175.9000001,235175.101,235191.763,252237.60000002,252237.80000007,2023-06-10T07:33:12Z,252241.418,Schüler,mwanafunzi,d,mwekezaji,matumizi,uaminifu,mwalafunzi,NA,NA,NULL,NA,NA,NA,NA,NA,NA,NA,NA,NA,NA,NA,NA,NA,NA,NA,NA,NA,NA,NA
cbd07,Save data screen,canvas.Screen,1_15_0_1,NA,NA,timeout,500.02899999998,252239.60000002,252225.383,252241.418,252724.741,252725.80000007,2023-06-10T07:33:12Z,252741.447,Schüler,mwanafunzi,d,mwekezaji,matumizi,uaminifu,NA,NA,0,NULL,NA,NA,NA,NA,NA,NA,NA,NA,NA,NA,NA,NA,NA,NA,NA,NA,NA,NA,NA
cbd07,deep,flow.Sequence,1_15_0,NA,NA,completion,17532.978,235175.9000001,235175.101,235191.763,252724.741,252726.10000002,2023-06-10T07:33:12Z,252741.447,Schüler,mwanafunzi,d,mwekezaji,matumizi,uaminifu,NA,NA,NA,NULL,NA,NA,NA,NA,NA,NA,NA,NA,NA,NA,NA,NA,NA,NA,NA,NA,NA,NA,NA
cbd07,task,flow.Sequence,1_15,NA,NA,completion,17532.978,235175.9000001,235175.101,235191.763,252724.741,252726.20000005,2023-06-10T07:33:12Z,252741.447,Schüler,mwanafunzi,d,mwekezaji,matumizi,uaminifu,NA,NA,NA,NULL,NA,NA,NA,NA,NA,NA,NA,NA,NA,NA,NA,NA,NA,NA,NA,NA,NA,NA,NA
cbd07,retrieval block 1 (cued recall),flow.Loop,1,NA,NA,completion,245943.567,6775.6000000238,6764.659,6781.174,252724.741,252726.4000001,2023-06-10T07:33:12Z,252741.447,NA,NA,NA,NA,NA,NA,NA,NA,NA,NULL,NA,NA,NA,NA,NA,NA,NA,NA,NA,NA,NA,NA,NA,NA,NA,NA,NA,NA,NA
cbd07,Shallow Question,html.Page,2_0_0_0,NA,NA,form submission,6497.053,252726.60000002,252724.741,252741.447,259238.5,259238.9000001,2023-06-10T07:33:19Z,259241.255,Verpackung,ufungaji,d,uhusiano,upimaji,uchunguzi,ufungaji,NA,NA,"c(""distractor1"", ""distractor2"", ""distractor3"")",NA,NA,NA,NA,NA,NA,NA,NA,NA,NA,NA,NA,NA,NA,NA,NA,NA,NA,NA
cbd07,Save data screen,canvas.Screen,2_0_0_1,NA,NA,timeout,500.03399999999,259240.60000002,259224.77,259241.255,259724.581,259725.60000002,2023-06-10T07:33:19Z,259741.289,Verpackung,ufungaji,d,uhusiano,upimaji,uchunguzi,NA,NA,1,"c(""distractor1"", ""distractor2"", ""distractor3"")",NA,NA,NA,NA,NA,NA,NA,NA,NA,NA,NA,NA,NA,NA,NA,NA,NA,NA,NA
cbd07,shallow,flow.Sequence,2_0_0,NA,NA,completion,6983.134,252726.60000002,252724.741,252741.447,259724.581,259725.9000001,2023-06-10T07:33:19Z,259741.289,Verpackung,ufungaji,d,uhusiano,upimaji,uchunguzi,NA,NA,NA,"c(""distractor1"", ""distractor2"", ""distractor3"")",NA,NA,NA,NA,NA,NA,NA,NA,NA,NA,NA,NA,NA,NA,NA,NA,NA,NA,NA
cbd07,task,flow.Sequence,2_0,NA,NA,completion,6983.134,252726.60000002,252724.741,252741.447,259724.581,259726.10000002,2023-06-10T07:33:19Z,259741.289,Verpackung,ufungaji,d,uhusiano,upimaji,uchunguzi,NA,NA,NA,"c(""distractor1"", ""distractor2"", ""distractor3"")",NA,NA,NA,NA,NA,NA,NA,NA,NA,NA,NA,NA,NA,NA,NA,NA,NA,NA,NA
cbd07,Shallow Question,html.Page,2_1_0_0,NA,NA,form submission,10868.611000095,259726.4000001,259724.581,259741.289,270609.9000001,270610.30000007,2023-06-10T07:33:30Z,270624.418,Tester,wanaojaribu,d,sherti,sihiri,mlipuko,wanaojaribu,NA,NA,"c(""distractor1"", ""distractor2"", ""distractor3"")",NA,NA,NA,NA,NA,NA,NA,NA,NA,NA,NA,NA,NA,NA,NA,NA,NA,NA,NA
cbd07,Save data screen,canvas.Screen,2_1_0_1,NA,NA,timeout,499.97499999998,270612,270607.686,270624.418,271107.585,271108.60000002,2023-06-10T07:33:30Z,271124.393,Tester,wanaojaribu,d,sherti,sihiri,mlipuko,NA,NA,1,"c(""distractor1"", ""distractor2"", ""distractor3"")",NA,NA,NA,NA,NA,NA,NA,NA,NA,NA,NA,NA,NA,NA,NA,NA,NA,NA,NA
cbd07,shallow,flow.Sequence,2_1_0,NA,NA,completion,11366.296,259726.20000005,259724.581,259741.289,271107.585,271108.9000001,2023-06-10T07:33:30Z,271124.393,Tester,wanaojaribu,d,sherti,sihiri,mlipuko,NA,NA,NA,"c(""distractor1"", ""distractor2"", ""distractor3"")",NA,NA,NA,NA,NA,NA,NA,NA,NA,NA,NA,NA,NA,NA,NA,NA,NA,NA,NA
cbd07,task,flow.Sequence,2_1,NA,NA,completion,11366.296,259726.20000005,259724.581,259741.289,271107.585,271109.10000002,2023-06-10T07:33:30Z,271124.393,Tester,wanaojaribu,d,sherti,sihiri,mlipuko,NA,NA,NA,"c(""distractor1"", ""distractor2"", ""distractor3"")",NA,NA,NA,NA,NA,NA,NA,NA,NA,NA,NA,NA,NA,NA,NA,NA,NA,NA,NA
cbd07,Shallow Question,html.Page,2_2_0_0,NA,NA,form submission,2536.607,271109.30000007,271107.585,271124.393,273661,273661.30000007,2023-06-10T07:33:33Z,273674.323,Fenster,dirisha,s,walakini,tasawari,maarifa,dirisha,NA,NA,"c(""distractor1"", ""distractor2"", ""distractor3"")",NA,NA,NA,NA,NA,NA,NA,NA,NA,NA,NA,NA,NA,NA,NA,NA,NA,NA,NA
cbd07,Save data screen,canvas.Screen,2_2_0_1,NA,NA,timeout,500.01300000004,273661.80000007,273657.56,273674.323,274157.536,274158.5,2023-06-10T07:33:33Z,274174.336,Fenster,dirisha,s,walakini,tasawari,maarifa,NA,NA,1,"c(""distractor1"", ""distractor2"", ""distractor3"")",NA,NA,NA,NA,NA,NA,NA,NA,NA,NA,NA,NA,NA,NA,NA,NA,NA,NA,NA
cbd07,shallow,flow.Sequence,2_2_0,NA,NA,completion,3033.143,271109.30000007,271107.585,271124.393,274157.536,274158.70000005,2023-06-10T07:33:33Z,274174.336,Fenster,dirisha,s,walakini,tasawari,maarifa,NA,NA,NA,"c(""distractor1"", ""distractor2"", ""distractor3"")",NA,NA,NA,NA,NA,NA,NA,NA,NA,NA,NA,NA,NA,NA,NA,NA,NA,NA,NA
cbd07,task,flow.Sequence,2_2,NA,NA,completion,3033.143,271109.20000005,271107.585,271124.393,274157.536,274158.9000001,2023-06-10T07:33:33Z,274174.336,Fenster,dirisha,s,walakini,tasawari,maarifa,NA,NA,NA,"c(""distractor1"", ""distractor2"", ""distractor3"")",NA,NA,NA,NA,NA,NA,NA,NA,NA,NA,NA,NA,NA,NA,NA,NA,NA,NA,NA
cbd07,Shallow Question,html.Page,2_3_0_0,NA,NA,form submission,4733.9640000715,274159.10000002,274157.536,274174.336,278908.30000007,278908.80000007,2023-06-10T07:33:38Z,278923.925,Theorie,nadharia,s,ushungi,mkutano,uwakilishi,nadharia,NA,NA,"c(""distractor1"", ""distractor2"", ""distractor3"")",NA,NA,NA,NA,NA,NA,NA,NA,NA,NA,NA,NA,NA,NA,NA,NA,NA,NA,NA
cbd07,Save data screen,canvas.Screen,2_3_0_1,NA,NA,timeout,500.28399999999,278910.70000005,278907.531,278923.925,279407.322,279408.5,2023-06-10T07:33:39Z,279424.209,Theorie,nadharia,s,ushungi,mkutano,uwakilishi,NA,NA,1,"c(""distractor1"", ""distractor2"", ""distractor3"")",NA,NA,NA,NA,NA,NA,NA,NA,NA,NA,NA,NA,NA,NA,NA,NA,NA,NA,NA
cbd07,shallow,flow.Sequence,2_3_0,NA,NA,completion,5232.986,274159.10000002,274157.536,274174.336,279407.322,279408.80000007,2023-06-10T07:33:39Z,279424.209,Theorie,nadharia,s,ushungi,mkutano,uwakilishi,NA,NA,NA,"c(""distractor1"", ""distractor2"", ""distractor3"")",NA,NA,NA,NA,NA,NA,NA,NA,NA,NA,NA,NA,NA,NA,NA,NA,NA,NA,NA
cbd07,task,flow.Sequence,2_3,NA,NA,completion,5232.986,274159,274157.536,274174.336,279407.322,279409,2023-06-10T07:33:39Z,279424.209,Theorie,nadharia,s,ushungi,mkutano,uwakilishi,NA,NA,NA,"c(""distractor1"", ""distractor2"", ""distractor3"")",NA,NA,NA,NA,NA,NA,NA,NA,NA,NA,NA,NA,NA,NA,NA,NA,NA,NA,NA
cbd07,Shallow Question,html.Page,2_4_0_0,NA,NA,form submission,3705.6910000954,279409.20000005,279407.322,279424.209,283129.9000001,283130.30000007,2023-06-10T07:33:42Z,283140.525,Notfall,dharura,d,rairai,malalamiko,ahueni,dharura,NA,NA,"c(""distractor1"", ""distractor2"", ""distractor3"")",NA,NA,NA,NA,NA,NA,NA,NA,NA,NA,NA,NA,NA,NA,NA,NA,NA,NA,NA
cbd07,Save data screen,canvas.Screen,2_4_0_1,NA,NA,timeout,500.04199999996,283131.80000007,283123.817,283140.525,283623.853,283624.5,2023-06-10T07:33:43Z,283640.567,Notfall,dharura,d,rairai,malalamiko,ahueni,NA,NA,1,"c(""distractor1"", ""distractor2"", ""distractor3"")",NA,NA,NA,NA,NA,NA,NA,NA,NA,NA,NA,NA,NA,NA,NA,NA,NA,NA,NA
cbd07,shallow,flow.Sequence,2_4_0,NA,NA,completion,4199.644,279409.20000005,279407.322,279424.209,283623.853,283624.60000002,2023-06-10T07:33:43Z,283640.567,Notfall,dharura,d,rairai,malalamiko,ahueni,NA,NA,NA,"c(""distractor1"", ""distractor2"", ""distractor3"")",NA,NA,NA,NA,NA,NA,NA,NA,NA,NA,NA,NA,NA,NA,NA,NA,NA,NA,NA
cbd07,task,flow.Sequence,2_4,NA,NA,completion,4199.644,279409.20000005,279407.322,279424.209,283623.853,283624.70000005,2023-06-10T07:33:43Z,283640.567,Notfall,dharura,d,rairai,malalamiko,ahueni,NA,NA,NA,"c(""distractor1"", ""distractor2"", ""distractor3"")",NA,NA,NA,NA,NA,NA,NA,NA,NA,NA,NA,NA,NA,NA,NA,NA,NA,NA,NA
cbd07,Shallow Question,html.Page,2_5_0_0,NA,NA,form submission,3285.0330000239,283624.80000007,283623.853,283640.567,286925.60000002,286926,2023-06-10T07:33:46Z,286940.67,Vermutung,udhanifu,d,haramia,tikisho,itifaki,udhanifu,NA,NA,"c(""distractor1"", ""distractor2"", ""distractor3"")",NA,NA,NA,NA,NA,NA,NA,NA,NA,NA,NA,NA,NA,NA,NA,NA,NA,NA,NA
cbd07,Save data screen,canvas.Screen,2_5_0_1,NA,NA,timeout,499.84299999999,286927.70000005,286923.756,286940.67,287423.894,287424.9000001,2023-06-10T07:33:47Z,287440.513,Vermutung,udhanifu,d,haramia,tikisho,itifaki,NA,NA,1,"c(""distractor1"", ""distractor2"", ""distractor3"")",NA,NA,NA,NA,NA,NA,NA,NA,NA,NA,NA,NA,NA,NA,NA,NA,NA,NA,NA
cbd07,shallow,flow.Sequence,2_5_0,NA,NA,completion,3783.327,283624.80000007,283623.853,283640.567,287423.894,287425.30000007,2023-06-10T07:33:47Z,287440.513,Vermutung,udhanifu,d,haramia,tikisho,itifaki,NA,NA,NA,"c(""distractor1"", ""distractor2"", ""distractor3"")",NA,NA,NA,NA,NA,NA,NA,NA,NA,NA,NA,NA,NA,NA,NA,NA,NA,NA,NA
cbd07,task,flow.Sequence,2_5,NA,NA,completion,3783.327,283624.70000005,283623.853,283640.567,287423.894,287425.4000001,2023-06-10T07:33:47Z,287440.513,Vermutung,udhanifu,d,haramia,tikisho,itifaki,NA,NA,NA,"c(""distractor1"", ""distractor2"", ""distractor3"")",NA,NA,NA,NA,NA,NA,NA,NA,NA,NA,NA,NA,NA,NA,NA,NA,NA,NA,NA
cbd07,Shallow Question,html.Page,2_6_0_0,NA,NA,form submission,2706.5870000239,287425.60000002,287423.894,287440.513,290147.10000002,290147.4000001,2023-06-10T07:33:49Z,290157.22,Schüler,mwanafunzi,d,mwekezaji,matumizi,uaminifu,mwanafunzi,NA,NA,"c(""distractor1"", ""distractor2"", ""distractor3"")",NA,NA,NA,NA,NA,NA,NA,NA,NA,NA,NA,NA,NA,NA,NA,NA,NA,NA,NA
cbd07,Save data screen,canvas.Screen,2_6_0_1,NA,NA,timeout,499.72400000005,290148,290140.46,290157.22,290640.564,290641.4000001,2023-06-10T07:33:50Z,290656.944,Schüler,mwanafunzi,d,mwekezaji,matumizi,uaminifu,NA,NA,1,"c(""distractor1"", ""distractor2"", ""distractor3"")",NA,NA,NA,NA,NA,NA,NA,NA,NA,NA,NA,NA,NA,NA,NA,NA,NA,NA,NA
cbd07,shallow,flow.Sequence,2_6_0,NA,NA,completion,3200.051,287425.60000002,287423.894,287440.513,290640.564,290641.80000007,2023-06-10T07:33:50Z,290656.944,Schüler,mwanafunzi,d,mwekezaji,matumizi,uaminifu,NA,NA,NA,"c(""distractor1"", ""distractor2"", ""distractor3"")",NA,NA,NA,NA,NA,NA,NA,NA,NA,NA,NA,NA,NA,NA,NA,NA,NA,NA,NA
cbd07,task,flow.Sequence,2_6,NA,NA,completion,3200.051,287425.60000002,287423.894,287440.513,290640.564,290642,2023-06-10T07:33:50Z,290656.944,Schüler,mwanafunzi,d,mwekezaji,matumizi,uaminifu,NA,NA,NA,"c(""distractor1"", ""distractor2"", ""distractor3"")",NA,NA,NA,NA,NA,NA,NA,NA,NA,NA,NA,NA,NA,NA,NA,NA,NA,NA,NA
cbd07,Shallow Question,html.Page,2_7_0_0,NA,NA,form submission,2347.9560000953,290642.30000007,290640.564,290656.944,293004.9000001,293005.30000007,2023-06-10T07:33:52Z,293006.924,Schlange,foleni,s,uvumilivu,uteuzi,muuzaji,foleni,NA,NA,"c(""distractor1"", ""distractor2"", ""distractor3"")",NA,NA,NA,NA,NA,NA,NA,NA,NA,NA,NA,NA,NA,NA,NA,NA,NA,NA,NA
cbd07,Save data screen,canvas.Screen,2_7_0_1,NA,NA,timeout,500.21000000002,293007.4000001,292990.497,293006.924,293490.207,293491.30000007,2023-06-10T07:33:53Z,293507.134,Schlange,foleni,s,uvumilivu,uteuzi,muuzaji,NA,NA,1,"c(""distractor1"", ""distractor2"", ""distractor3"")",NA,NA,NA,NA,NA,NA,NA,NA,NA,NA,NA,NA,NA,NA,NA,NA,NA,NA,NA
cbd07,shallow,flow.Sequence,2_7_0,NA,NA,completion,2833.263,290642.20000005,290640.564,290656.944,293490.207,293491.5,2023-06-10T07:33:53Z,293507.134,Schlange,foleni,s,uvumilivu,uteuzi,muuzaji,NA,NA,NA,"c(""distractor1"", ""distractor2"", ""distractor3"")",NA,NA,NA,NA,NA,NA,NA,NA,NA,NA,NA,NA,NA,NA,NA,NA,NA,NA,NA
cbd07,task,flow.Sequence,2_7,NA,NA,completion,2833.263,290642.20000005,290640.564,290656.944,293490.207,293491.70000005,2023-06-10T07:33:53Z,293507.134,Schlange,foleni,s,uvumilivu,uteuzi,muuzaji,NA,NA,NA,"c(""distractor1"", ""distractor2"", ""distractor3"")",NA,NA,NA,NA,NA,NA,NA,NA,NA,NA,NA,NA,NA,NA,NA,NA,NA,NA,NA
cbd07,Shallow Question,html.Page,2_8_0_0,NA,NA,form submission,6635.9660000238,293492,293490.207,293507.134,300143.10000002,300143.5,2023-06-10T07:33:59Z,300156.744,Inhalt,yaliyomo,d,kishawishi,hifadhi,kutembea,yaliyomo,NA,NA,"c(""distractor1"", ""distractor2"", ""distractor3"")",NA,NA,NA,NA,NA,NA,NA,NA,NA,NA,NA,NA,NA,NA,NA,NA,NA,NA,NA
cbd07,Save data screen,canvas.Screen,2_8_0_1,NA,NA,timeout,500.21600000001,300145.10000002,300140.322,300156.744,300640.212,300641.20000005,2023-06-10T07:34:00Z,300656.96,Inhalt,yaliyomo,d,kishawishi,hifadhi,kutembea,NA,NA,1,"c(""distractor1"", ""distractor2"", ""distractor3"")",NA,NA,NA,NA,NA,NA,NA,NA,NA,NA,NA,NA,NA,NA,NA,NA,NA,NA,NA
cbd07,shallow,flow.Sequence,2_8_0,NA,NA,completion,7133.078,293492,293490.207,293507.134,300640.212,300641.5,2023-06-10T07:34:00Z,300656.96,Inhalt,yaliyomo,d,kishawishi,hifadhi,kutembea,NA,NA,NA,"c(""distractor1"", ""distractor2"", ""distractor3"")",NA,NA,NA,NA,NA,NA,NA,NA,NA,NA,NA,NA,NA,NA,NA,NA,NA,NA,NA
cbd07,task,flow.Sequence,2_8,NA,NA,completion,7133.078,293491.9000001,293490.207,293507.134,300640.212,300641.60000002,2023-06-10T07:34:00Z,300656.96,Inhalt,yaliyomo,d,kishawishi,hifadhi,kutembea,NA,NA,NA,"c(""distractor1"", ""distractor2"", ""distractor3"")",NA,NA,NA,NA,NA,NA,NA,NA,NA,NA,NA,NA,NA,NA,NA,NA,NA,NA,NA
cbd07,Shallow Question,html.Page,2_9_0_0,NA,NA,form submission,15795.04,300641.9000001,300640.212,300656.96,316452,316452.30000007,2023-06-10T07:34:16Z,316456.384,Hoffnung,matarajio,d,kutaalamika,uratibu,mvumbuzi,matarajio,NA,NA,"c(""distractor1"", ""distractor2"", ""distractor3"")",NA,NA,NA,NA,NA,NA,NA,NA,NA,NA,NA,NA,NA,NA,NA,NA,NA,NA,NA
cbd07,Save data screen,canvas.Screen,2_9_0_1,NA,NA,timeout,499.94299999997,316454.10000002,316439.663,316456.384,316939.767,316940.9000001,2023-06-10T07:34:16Z,316956.327,Hoffnung,matarajio,d,kutaalamika,uratibu,mvumbuzi,NA,NA,1,"c(""distractor1"", ""distractor2"", ""distractor3"")",NA,NA,NA,NA,NA,NA,NA,NA,NA,NA,NA,NA,NA,NA,NA,NA,NA,NA,NA
cbd07,shallow,flow.Sequence,2_9_0,NA,NA,completion,16282.807,300641.9000001,300640.212,300656.96,316939.767,316941.20000005,2023-06-10T07:34:16Z,316956.327,Hoffnung,matarajio,d,kutaalamika,uratibu,mvumbuzi,NA,NA,NA,"c(""distractor1"", ""distractor2"", ""distractor3"")",NA,NA,NA,NA,NA,NA,NA,NA,NA,NA,NA,NA,NA,NA,NA,NA,NA,NA,NA
cbd07,task,flow.Sequence,2_9,NA,NA,completion,16282.807,300641.80000007,300640.212,300656.96,316939.767,316941.4000001,2023-06-10T07:34:16Z,316956.327,Hoffnung,matarajio,d,kutaalamika,uratibu,mvumbuzi,NA,NA,NA,"c(""distractor1"", ""distractor2"", ""distractor3"")",NA,NA,NA,NA,NA,NA,NA,NA,NA,NA,NA,NA,NA,NA,NA,NA,NA,NA,NA
cbd07,Shallow Question,html.Page,2_10_0_0,NA,NA,form submission,2919.673,316941.60000002,316939.767,316956.327,319876,319876.30000007,2023-06-10T07:34:19Z,319889.759,Vergnügen,kichekesho,d,dubwana,mpanuko,mtesaji,kichekesho,NA,NA,"c(""distractor1"", ""distractor2"", ""distractor3"")",NA,NA,NA,NA,NA,NA,NA,NA,NA,NA,NA,NA,NA,NA,NA,NA,NA,NA,NA
cbd07,Save data screen,canvas.Screen,2_10_0_1,NA,NA,timeout,499.98999999999,319876.80000007,319872.923,319889.759,320373.11,320374.10000002,2023-06-10T07:34:20Z,320389.749,Vergnügen,kichekesho,d,dubwana,mpanuko,mtesaji,NA,NA,1,"c(""distractor1"", ""distractor2"", ""distractor3"")",NA,NA,NA,NA,NA,NA,NA,NA,NA,NA,NA,NA,NA,NA,NA,NA,NA,NA,NA
cbd07,shallow,flow.Sequence,2_10_0,NA,NA,completion,3416.783,316941.60000002,316939.767,316956.327,320373.11,320374.5,2023-06-10T07:34:20Z,320389.749,Vergnügen,kichekesho,d,dubwana,mpanuko,mtesaji,NA,NA,NA,"c(""distractor1"", ""distractor2"", ""distractor3"")",NA,NA,NA,NA,NA,NA,NA,NA,NA,NA,NA,NA,NA,NA,NA,NA,NA,NA,NA
cbd07,task,flow.Sequence,2_10,NA,NA,completion,3416.783,316941.5,316939.767,316956.327,320373.11,320374.70000005,2023-06-10T07:34:20Z,320389.749,Vergnügen,kichekesho,d,dubwana,mpanuko,mtesaji,NA,NA,NA,"c(""distractor1"", ""distractor2"", ""distractor3"")",NA,NA,NA,NA,NA,NA,NA,NA,NA,NA,NA,NA,NA,NA,NA,NA,NA,NA,NA
cbd07,Shallow Question,html.Page,2_11_0_0,NA,NA,form submission,5372.0510000715,320374.80000007,320373.11,320389.749,325761.80000007,325762.20000005,2023-06-10T07:34:25Z,325772.806,Wohlstand,mafanikio,s,chimbuko,kumbuko,mapwaji,mafanikio,NA,NA,"c(""distractor1"", ""distractor2"", ""distractor3"")",NA,NA,NA,NA,NA,NA,NA,NA,NA,NA,NA,NA,NA,NA,NA,NA,NA,NA,NA
cbd07,Save data screen,canvas.Screen,2_11_0_1,NA,NA,timeout,499.93800000002,325764.20000005,325756.134,325772.806,326256.027,326256.70000005,2023-06-10T07:34:25Z,326272.744,Wohlstand,mafanikio,s,chimbuko,kumbuko,mapwaji,NA,NA,1,"c(""distractor1"", ""distractor2"", ""distractor3"")",NA,NA,NA,NA,NA,NA,NA,NA,NA,NA,NA,NA,NA,NA,NA,NA,NA,NA,NA
cbd07,shallow,flow.Sequence,2_11_0,NA,NA,completion,5866.278,320374.80000007,320373.11,320389.749,326256.027,326256.9000001,2023-06-10T07:34:25Z,326272.744,Wohlstand,mafanikio,s,chimbuko,kumbuko,mapwaji,NA,NA,NA,"c(""distractor1"", ""distractor2"", ""distractor3"")",NA,NA,NA,NA,NA,NA,NA,NA,NA,NA,NA,NA,NA,NA,NA,NA,NA,NA,NA
cbd07,task,flow.Sequence,2_11,NA,NA,completion,5866.278,320374.70000005,320373.11,320389.749,326256.027,326257,2023-06-10T07:34:25Z,326272.744,Wohlstand,mafanikio,s,chimbuko,kumbuko,mapwaji,NA,NA,NA,"c(""distractor1"", ""distractor2"", ""distractor3"")",NA,NA,NA,NA,NA,NA,NA,NA,NA,NA,NA,NA,NA,NA,NA,NA,NA,NA,NA
cbd07,Shallow Question,html.Page,2_12_0_0,NA,NA,form submission,5270.5560000715,326257.10000002,326256.027,326272.744,331543.30000007,331543.70000005,2023-06-10T07:34:31Z,331556,Toleranz,kuvumiliana,s,maombolezo,ujasusi,mchekeshaji,kuvumiliana,NA,NA,"c(""distractor1"", ""distractor2"", ""distractor3"")",NA,NA,NA,NA,NA,NA,NA,NA,NA,NA,NA,NA,NA,NA,NA,NA,NA,NA,NA
cbd07,Save data screen,canvas.Screen,2_12_0_1,NA,NA,timeout,500.09600000002,331545.5,331539.34,331556,332039.366,332040.4000001,2023-06-10T07:34:31Z,332056.096,Toleranz,kuvumiliana,s,maombolezo,ujasusi,mchekeshaji,NA,NA,1,"c(""distractor1"", ""distractor2"", ""distractor3"")",NA,NA,NA,NA,NA,NA,NA,NA,NA,NA,NA,NA,NA,NA,NA,NA,NA,NA,NA
cbd07,shallow,flow.Sequence,2_12_0,NA,NA,completion,5766.622,326257,326256.027,326272.744,332039.366,332040.80000007,2023-06-10T07:34:31Z,332056.096,Toleranz,kuvumiliana,s,maombolezo,ujasusi,mchekeshaji,NA,NA,NA,"c(""distractor1"", ""distractor2"", ""distractor3"")",NA,NA,NA,NA,NA,NA,NA,NA,NA,NA,NA,NA,NA,NA,NA,NA,NA,NA,NA
cbd07,task,flow.Sequence,2_12,NA,NA,completion,5766.622,326257,326256.027,326272.744,332039.366,332040.9000001,2023-06-10T07:34:31Z,332056.096,Toleranz,kuvumiliana,s,maombolezo,ujasusi,mchekeshaji,NA,NA,NA,"c(""distractor1"", ""distractor2"", ""distractor3"")",NA,NA,NA,NA,NA,NA,NA,NA,NA,NA,NA,NA,NA,NA,NA,NA,NA,NA,NA
cbd07,Shallow Question,html.Page,2_13_0_0,NA,NA,form submission,7647.6040000477,332041.20000005,332039.366,332056.096,339703.70000005,339703.9000001,2023-06-10T07:34:39Z,339705.606,Ergänzung,kijalizo,s,ulaghai,mustarehe,matangazo,kijalizo,NA,NA,"c(""distractor1"", ""distractor2"", ""distractor3"")",NA,NA,NA,NA,NA,NA,NA,NA,NA,NA,NA,NA,NA,NA,NA,NA,NA,NA,NA
cbd07,Save data screen,canvas.Screen,2_13_0_1,NA,NA,timeout,500.06599999999,339705.70000005,339689.017,339705.606,340188.969,340189.70000005,2023-06-10T07:34:39Z,340205.672,Ergänzung,kijalizo,s,ulaghai,mustarehe,matangazo,NA,NA,1,"c(""distractor1"", ""distractor2"", ""distractor3"")",NA,NA,NA,NA,NA,NA,NA,NA,NA,NA,NA,NA,NA,NA,NA,NA,NA,NA,NA
cbd07,shallow,flow.Sequence,2_13_0,NA,NA,completion,8132.873,332041.20000005,332039.366,332056.096,340188.969,340189.9000001,2023-06-10T07:34:39Z,340205.672,Ergänzung,kijalizo,s,ulaghai,mustarehe,matangazo,NA,NA,NA,"c(""distractor1"", ""distractor2"", ""distractor3"")",NA,NA,NA,NA,NA,NA,NA,NA,NA,NA,NA,NA,NA,NA,NA,NA,NA,NA,NA
cbd07,task,flow.Sequence,2_13,NA,NA,completion,8132.873,332041.10000002,332039.366,332056.096,340188.969,340190,2023-06-10T07:34:39Z,340205.672,Ergänzung,kijalizo,s,ulaghai,mustarehe,matangazo,NA,NA,NA,"c(""distractor1"", ""distractor2"", ""distractor3"")",NA,NA,NA,NA,NA,NA,NA,NA,NA,NA,NA,NA,NA,NA,NA,NA,NA,NA,NA
cbd07,Shallow Question,html.Page,2_14_0_0,NA,NA,form submission,2626.7280000953,340190.20000005,340188.969,340205.672,342832.4000001,342832.70000005,2023-06-10T07:34:42Z,342838.844,Schock,mshtuko,s,biashara,kukataza,vichekesho,mshtuko,NA,NA,"c(""distractor1"", ""distractor2"", ""distractor3"")",NA,NA,NA,NA,NA,NA,NA,NA,NA,NA,NA,NA,NA,NA,NA,NA,NA,NA,NA
cbd07,Save data screen,canvas.Screen,2_14_0_1,NA,NA,timeout,500.00300000003,342834.4000001,342822.349,342838.844,343322.504,343323.60000002,2023-06-10T07:34:42Z,343338.847,Schock,mshtuko,s,biashara,kukataza,vichekesho,NA,NA,1,"c(""distractor1"", ""distractor2"", ""distractor3"")",NA,NA,NA,NA,NA,NA,NA,NA,NA,NA,NA,NA,NA,NA,NA,NA,NA,NA,NA
cbd07,shallow,flow.Sequence,2_14_0,NA,NA,completion,3116.832,340190.10000002,340188.969,340205.672,343322.504,343323.9000001,2023-06-10T07:34:42Z,343338.847,Schock,mshtuko,s,biashara,kukataza,vichekesho,NA,NA,NA,"c(""distractor1"", ""distractor2"", ""distractor3"")",NA,NA,NA,NA,NA,NA,NA,NA,NA,NA,NA,NA,NA,NA,NA,NA,NA,NA,NA
cbd07,task,flow.Sequence,2_14,NA,NA,completion,3116.832,340190.10000002,340188.969,340205.672,343322.504,343324,2023-06-10T07:34:42Z,343338.847,Schock,mshtuko,s,biashara,kukataza,vichekesho,NA,NA,NA,"c(""distractor1"", ""distractor2"", ""distractor3"")",NA,NA,NA,NA,NA,NA,NA,NA,NA,NA,NA,NA,NA,NA,NA,NA,NA,NA,NA
cbd07,Shallow Question,html.Page,2_15_0_0,NA,NA,form submission,3634.653,343324.20000005,343322.504,343338.847,346973.5,346974,2023-06-10T07:34:46Z,346988.929,Spionage,upelelezi,s,maslahi,utokazo,magangao,upelelezi,NA,NA,"c(""distractor1"", ""distractor2"", ""distractor3"")",NA,NA,NA,NA,NA,NA,NA,NA,NA,NA,NA,NA,NA,NA,NA,NA,NA,NA,NA
cbd07,Save data screen,canvas.Screen,2_15_0_1,NA,NA,timeout,499.89399999997,346975.60000002,346972.151,346988.929,347472.404,347473.5,2023-06-10T07:34:47Z,347488.823,Spionage,upelelezi,s,maslahi,utokazo,magangao,NA,NA,1,"c(""distractor1"", ""distractor2"", ""distractor3"")",NA,NA,NA,NA,NA,NA,NA,NA,NA,NA,NA,NA,NA,NA,NA,NA,NA,NA,NA
cbd07,shallow,flow.Sequence,2_15_0,NA,NA,completion,4133.557,343324.20000005,343322.504,343338.847,347472.404,347473.9000001,2023-06-10T07:34:47Z,347488.823,Spionage,upelelezi,s,maslahi,utokazo,magangao,NA,NA,NA,"c(""distractor1"", ""distractor2"", ""distractor3"")",NA,NA,NA,NA,NA,NA,NA,NA,NA,NA,NA,NA,NA,NA,NA,NA,NA,NA,NA
cbd07,task,flow.Sequence,2_15,NA,NA,completion,4133.557,343324.10000002,343322.504,343338.847,347472.404,347474.20000005,2023-06-10T07:34:47Z,347488.823,Spionage,upelelezi,s,maslahi,utokazo,magangao,NA,NA,NA,"c(""distractor1"", ""distractor2"", ""distractor3"")",NA,NA,NA,NA,NA,NA,NA,NA,NA,NA,NA,NA,NA,NA,NA,NA,NA,NA,NA
cbd07,retrieval block 2 (multiple choice),flow.Loop,2,NA,NA,completion,94730.957,252726.5,252724.741,252741.447,347472.404,347474.5,2023-06-10T07:34:47Z,347488.823,NA,NA,NA,NA,NA,NA,NA,NA,NA,"c(""distractor1"", ""distractor2"", ""distractor3"")",NA,NA,NA,NA,NA,NA,NA,NA,NA,NA,NA,NA,NA,NA,NA,NA,NA,NA,NA
cbd07,End,canvas.Screen,3,NA,keypress(Space),response,4611.2770000239,347474.70000005,347472.404,347488.823,352100.10000002,352104.10000002,2023-06-10T07:34:51Z,352122.499,NA,NA,NA,NA,NA,NA,NA,NA,NA,NULL,NA,NA,NA,NA,NA,NA,NA,NA,NA,NA,NA,NA,NA,NA,NA,NA,NA,NA,NA
cbd07,root,flow.Sequence,NA,NA,NA,completion,351202.04100002,896.70000004768,764.69,898.059,352100.10000002,352104.5,2023-06-10T07:34:51Z,352122.499,NA,NA,NA,NA,NA,NA,NA,NA,NA,NULL,NA,NA,NA,NA,NA,NA,NA,NA,NA,NA,NA,NA,NA,NA,NA,NA,NA,NA,NA
