observation,sender,sender_type,sender_id,response,response_action,ended_on,duration,time_run,time_render,time_show,time_end,time_commit,timestamp,time_switch,german,swahili,enc,distractor1,distractor2,distractor3,response_2,x,correct,distractors,url_vp,url_sess,meta_labjs_version,meta_location,meta_user_agent,meta_platform,meta_language,meta_locale,meta_time_zone,meta_timezone_offset,meta_screen_width,meta_screen_height,meta_scroll_width,meta_scroll_height,meta_window_inner_width,meta_window_inner_height,meta_device_pixel_ratio,meta_labjs_build_flavor,meta_labjs_build_commit
822000,Introduction delayed retrieval,canvas.Screen,0,weiter,keypress(Space),response,35715,381,383,392,36098,36090,2024-03-27T13:12:20Z,36139,NA,NA,NA,NA,NA,NA,NA,NA,NA,NULL,144,2,20.2.4,https://neurocog.fernuni.ch/studies/vweber/aberisha/delayed/index.html?vp=144&sess=2,"Mozilla/5.0 (Macintosh; Intel Mac OS X 10_15_7) AppleWebKit/605.1.15 (KHTML, like Gecko) Version/17.3.1 Safari/605.1.15",MacIntel,de-DE,de-DE,Europe/Zurich,-60,1440,900,1439,713,1439,761,2,production,f5b4a49f956347addd546a832a3327688c2c0fef
822000,Deep Question,html.Page,1_0_0_0,NA,NA,form submission,46972,36091,36100,36139,83111,83111,2024-03-27T13:13:07Z,83123,Annäherung,maegesho,d,madahili,kujiamini,mapendekezo,maegesho,NA,NA,NULL,NA,NA,NA,NA,NA,NA,NA,NA,NA,NA,NA,NA,NA,NA,NA,NA,NA,NA,NA
822000,Save data screen,canvas.Screen,1_0_0_1,NA,NA,timeout,500,83112,83114,83123,83607,83608,2024-03-27T13:13:07Z,83623,Annäherung,maegesho,d,madahili,kujiamini,mapendekezo,NA,NA,1,NULL,NA,NA,NA,NA,NA,NA,NA,NA,NA,NA,NA,NA,NA,NA,NA,NA,NA,NA,NA
822000,deep,flow.Sequence,1_0_0,NA,NA,completion,47468,36091,36100,36139,83607,83609,2024-03-27T13:13:07Z,83623,Annäherung,maegesho,d,madahili,kujiamini,mapendekezo,NA,NA,NA,NULL,NA,NA,NA,NA,NA,NA,NA,NA,NA,NA,NA,NA,NA,NA,NA,NA,NA,NA,NA
822000,task,flow.Sequence,1_0,NA,NA,completion,47468,36090,36100,36139,83607,83609,2024-03-27T13:13:07Z,83623,Annäherung,maegesho,d,madahili,kujiamini,mapendekezo,NA,NA,NA,NULL,NA,NA,NA,NA,NA,NA,NA,NA,NA,NA,NA,NA,NA,NA,NA,NA,NA,NA,NA
822000,Deep Question,html.Page,1_1_0_0,NA,NA,form submission,9956,83610,83607,83623,93579,93580,2024-03-27T13:13:17Z,93590,Ausschluss,kutengwa,s,ununuzi,taratibu,madeni,k,NA,NA,NULL,NA,NA,NA,NA,NA,NA,NA,NA,NA,NA,NA,NA,NA,NA,NA,NA,NA,NA,NA
822000,Save data screen,canvas.Screen,1_1_0_1,NA,NA,timeout,500,93581,93582,93590,94074,94075,2024-03-27T13:13:18Z,94090,Ausschluss,kutengwa,s,ununuzi,taratibu,madeni,NA,NA,0,NULL,NA,NA,NA,NA,NA,NA,NA,NA,NA,NA,NA,NA,NA,NA,NA,NA,NA,NA,NA
822000,deep,flow.Sequence,1_1_0,NA,NA,completion,10451,83610,83607,83623,94074,94075,2024-03-27T13:13:18Z,94090,Ausschluss,kutengwa,s,ununuzi,taratibu,madeni,NA,NA,NA,NULL,NA,NA,NA,NA,NA,NA,NA,NA,NA,NA,NA,NA,NA,NA,NA,NA,NA,NA,NA
822000,task,flow.Sequence,1_1,NA,NA,completion,10451,83610,83607,83623,94074,94075,2024-03-27T13:13:18Z,94090,Ausschluss,kutengwa,s,ununuzi,taratibu,madeni,NA,NA,NA,NULL,NA,NA,NA,NA,NA,NA,NA,NA,NA,NA,NA,NA,NA,NA,NA,NA,NA,NA,NA
822000,Deep Question,html.Page,1_2_0_0,NA,NA,form submission,25176,94076,94074,94090,119266,119266,2024-03-27T13:13:43Z,119274,Konkurrent,mshindani,s,msemaji,mvutaji,kipukusa,ushindani,NA,NA,NULL,NA,NA,NA,NA,NA,NA,NA,NA,NA,NA,NA,NA,NA,NA,NA,NA,NA,NA,NA
822000,Save data screen,canvas.Screen,1_2_0_1,NA,NA,timeout,500,119267,119268,119274,119758,119759,2024-03-27T13:13:44Z,119774,Konkurrent,mshindani,s,msemaji,mvutaji,kipukusa,NA,NA,0,NULL,NA,NA,NA,NA,NA,NA,NA,NA,NA,NA,NA,NA,NA,NA,NA,NA,NA,NA,NA
822000,deep,flow.Sequence,1_2_0,NA,NA,completion,25668,94076,94074,94090,119758,119759,2024-03-27T13:13:44Z,119774,Konkurrent,mshindani,s,msemaji,mvutaji,kipukusa,NA,NA,NA,NULL,NA,NA,NA,NA,NA,NA,NA,NA,NA,NA,NA,NA,NA,NA,NA,NA,NA,NA,NA
822000,task,flow.Sequence,1_2,NA,NA,completion,25668,94076,94074,94090,119758,119760,2024-03-27T13:13:44Z,119774,Konkurrent,mshindani,s,msemaji,mvutaji,kipukusa,NA,NA,NA,NULL,NA,NA,NA,NA,NA,NA,NA,NA,NA,NA,NA,NA,NA,NA,NA,NA,NA,NA,NA
822000,Deep Question,html.Page,1_3_0_0,NA,NA,form submission,13278,119760,119758,119774,133052,133053,2024-03-27T13:13:57Z,133075,Verstand,ufahamivu,d,shakawa,hadhari,mhandisi,l,NA,NA,NULL,NA,NA,NA,NA,NA,NA,NA,NA,NA,NA,NA,NA,NA,NA,NA,NA,NA,NA,NA
822000,Save data screen,canvas.Screen,1_3_0_1,NA,NA,timeout,500,133053,133055,133075,133558,133559,2024-03-27T13:13:57Z,133575,Verstand,ufahamivu,d,shakawa,hadhari,mhandisi,NA,NA,0,NULL,NA,NA,NA,NA,NA,NA,NA,NA,NA,NA,NA,NA,NA,NA,NA,NA,NA,NA,NA
822000,deep,flow.Sequence,1_3_0,NA,NA,completion,13784,119760,119758,119774,133558,133560,2024-03-27T13:13:57Z,133575,Verstand,ufahamivu,d,shakawa,hadhari,mhandisi,NA,NA,NA,NULL,NA,NA,NA,NA,NA,NA,NA,NA,NA,NA,NA,NA,NA,NA,NA,NA,NA,NA,NA
822000,task,flow.Sequence,1_3,NA,NA,completion,13784,119760,119758,119774,133558,133560,2024-03-27T13:13:57Z,133575,Verstand,ufahamivu,d,shakawa,hadhari,mhandisi,NA,NA,NA,NULL,NA,NA,NA,NA,NA,NA,NA,NA,NA,NA,NA,NA,NA,NA,NA,NA,NA,NA,NA
822000,Deep Question,html.Page,1_4_0_0,NA,NA,form submission,19600,133561,133558,133575,153175,153175,2024-03-27T13:14:17Z,153193,Gelegenheit,wakati,s,mchanganyiko,kipaumbele,kushuku,l,NA,NA,NULL,NA,NA,NA,NA,NA,NA,NA,NA,NA,NA,NA,NA,NA,NA,NA,NA,NA,NA,NA
822000,Save data screen,canvas.Screen,1_4_0_1,NA,NA,timeout,499,153176,153179,153193,153676,153677,2024-03-27T13:14:18Z,153692,Gelegenheit,wakati,s,mchanganyiko,kipaumbele,kushuku,NA,NA,0,NULL,NA,NA,NA,NA,NA,NA,NA,NA,NA,NA,NA,NA,NA,NA,NA,NA,NA,NA,NA
822000,deep,flow.Sequence,1_4_0,NA,NA,completion,20101,133561,133558,133575,153676,153678,2024-03-27T13:14:18Z,153692,Gelegenheit,wakati,s,mchanganyiko,kipaumbele,kushuku,NA,NA,NA,NULL,NA,NA,NA,NA,NA,NA,NA,NA,NA,NA,NA,NA,NA,NA,NA,NA,NA,NA,NA
822000,task,flow.Sequence,1_4,NA,NA,completion,20101,133561,133558,133575,153676,153679,2024-03-27T13:14:18Z,153692,Gelegenheit,wakati,s,mchanganyiko,kipaumbele,kushuku,NA,NA,NA,NULL,NA,NA,NA,NA,NA,NA,NA,NA,NA,NA,NA,NA,NA,NA,NA,NA,NA,NA,NA
822000,Deep Question,html.Page,1_5_0_0,NA,NA,form submission,26159,153679,153676,153692,179851,179851,2024-03-27T13:14:44Z,179876,Widerstand,usulubu,d,kusababisha,mwalimu,mwenendo,karumbi,NA,NA,NULL,NA,NA,NA,NA,NA,NA,NA,NA,NA,NA,NA,NA,NA,NA,NA,NA,NA,NA,NA
822000,Save data screen,canvas.Screen,1_5_0_1,NA,NA,timeout,500,179852,179853,179876,180359,180360,2024-03-27T13:14:44Z,180376,Widerstand,usulubu,d,kusababisha,mwalimu,mwenendo,NA,NA,0,NULL,NA,NA,NA,NA,NA,NA,NA,NA,NA,NA,NA,NA,NA,NA,NA,NA,NA,NA,NA
822000,deep,flow.Sequence,1_5_0,NA,NA,completion,26667,153679,153676,153692,180359,180361,2024-03-27T13:14:44Z,180376,Widerstand,usulubu,d,kusababisha,mwalimu,mwenendo,NA,NA,NA,NULL,NA,NA,NA,NA,NA,NA,NA,NA,NA,NA,NA,NA,NA,NA,NA,NA,NA,NA,NA
822000,task,flow.Sequence,1_5,NA,NA,completion,26667,153679,153676,153692,180359,180362,2024-03-27T13:14:44Z,180376,Widerstand,usulubu,d,kusababisha,mwalimu,mwenendo,NA,NA,NA,NULL,NA,NA,NA,NA,NA,NA,NA,NA,NA,NA,NA,NA,NA,NA,NA,NA,NA,NA,NA
822000,Deep Question,html.Page,1_6_0_0,NA,NA,form submission,15658,180362,180359,180376,196034,196035,2024-03-27T13:15:00Z,196060,Sympathie,mapendano,d,dhamiria,fungamano,maazimio,mapendano,NA,NA,NULL,NA,NA,NA,NA,NA,NA,NA,NA,NA,NA,NA,NA,NA,NA,NA,NA,NA,NA,NA
822000,Save data screen,canvas.Screen,1_6_0_1,NA,NA,timeout,500,196036,196043,196060,196544,196545,2024-03-27T13:15:00Z,196560,Sympathie,mapendano,d,dhamiria,fungamano,maazimio,NA,NA,1,NULL,NA,NA,NA,NA,NA,NA,NA,NA,NA,NA,NA,NA,NA,NA,NA,NA,NA,NA,NA
822000,deep,flow.Sequence,1_6_0,NA,NA,completion,16168,180362,180359,180376,196544,196545,2024-03-27T13:15:00Z,196560,Sympathie,mapendano,d,dhamiria,fungamano,maazimio,NA,NA,NA,NULL,NA,NA,NA,NA,NA,NA,NA,NA,NA,NA,NA,NA,NA,NA,NA,NA,NA,NA,NA
822000,task,flow.Sequence,1_6,NA,NA,completion,16168,180362,180359,180376,196544,196546,2024-03-27T13:15:00Z,196560,Sympathie,mapendano,d,dhamiria,fungamano,maazimio,NA,NA,NA,NULL,NA,NA,NA,NA,NA,NA,NA,NA,NA,NA,NA,NA,NA,NA,NA,NA,NA,NA,NA
822000,Deep Question,html.Page,1_7_0_0,NA,NA,form submission,23460,196546,196544,196560,220020,220021,2024-03-27T13:15:24Z,220044,Polizist,msongora,s,simanzi,mandhari,nidhamu,misogino,NA,NA,NULL,NA,NA,NA,NA,NA,NA,NA,NA,NA,NA,NA,NA,NA,NA,NA,NA,NA,NA,NA
822000,Save data screen,canvas.Screen,1_7_0_1,NA,NA,timeout,500,220023,220024,220044,220528,220529,2024-03-27T13:15:24Z,220544,Polizist,msongora,s,simanzi,mandhari,nidhamu,NA,NA,0,NULL,NA,NA,NA,NA,NA,NA,NA,NA,NA,NA,NA,NA,NA,NA,NA,NA,NA,NA,NA
822000,deep,flow.Sequence,1_7_0,NA,NA,completion,23968,196546,196544,196560,220528,220529,2024-03-27T13:15:24Z,220544,Polizist,msongora,s,simanzi,mandhari,nidhamu,NA,NA,NA,NULL,NA,NA,NA,NA,NA,NA,NA,NA,NA,NA,NA,NA,NA,NA,NA,NA,NA,NA,NA
822000,task,flow.Sequence,1_7,NA,NA,completion,23968,196546,196544,196560,220528,220530,2024-03-27T13:15:24Z,220544,Polizist,msongora,s,simanzi,mandhari,nidhamu,NA,NA,NA,NULL,NA,NA,NA,NA,NA,NA,NA,NA,NA,NA,NA,NA,NA,NA,NA,NA,NA,NA,NA
822000,Deep Question,html.Page,1_8_0_0,NA,NA,form submission,15117,220530,220528,220544,235661,235662,2024-03-27T13:15:39Z,235678,Zuwachs,nyongeza,d,matilaba,udhibiti,hudhurio,kijalizo,NA,NA,NULL,NA,NA,NA,NA,NA,NA,NA,NA,NA,NA,NA,NA,NA,NA,NA,NA,NA,NA,NA
822000,Save data screen,canvas.Screen,1_8_0_1,NA,NA,timeout,500,235663,235664,235678,236161,236162,2024-03-27T13:15:40Z,236178,Zuwachs,nyongeza,d,matilaba,udhibiti,hudhurio,NA,NA,0,NULL,NA,NA,NA,NA,NA,NA,NA,NA,NA,NA,NA,NA,NA,NA,NA,NA,NA,NA,NA
822000,deep,flow.Sequence,1_8_0,NA,NA,completion,15617,220530,220528,220544,236161,236163,2024-03-27T13:15:40Z,236178,Zuwachs,nyongeza,d,matilaba,udhibiti,hudhurio,NA,NA,NA,NULL,NA,NA,NA,NA,NA,NA,NA,NA,NA,NA,NA,NA,NA,NA,NA,NA,NA,NA,NA
822000,task,flow.Sequence,1_8,NA,NA,completion,15617,220530,220528,220544,236161,236164,2024-03-27T13:15:40Z,236178,Zuwachs,nyongeza,d,matilaba,udhibiti,hudhurio,NA,NA,NA,NULL,NA,NA,NA,NA,NA,NA,NA,NA,NA,NA,NA,NA,NA,NA,NA,NA,NA,NA,NA
822000,Deep Question,html.Page,1_9_0_0,NA,NA,form submission,4127,236164,236161,236178,240305,240305,2024-03-27T13:15:44Z,240328,Vorsorge,tahadhari,s,ufafanuzi,makini,mashambani,klf,NA,NA,NULL,NA,NA,NA,NA,NA,NA,NA,NA,NA,NA,NA,NA,NA,NA,NA,NA,NA,NA,NA
822000,Save data screen,canvas.Screen,1_9_0_1,NA,NA,timeout,500,240305,240308,240328,240811,240812,2024-03-27T13:15:45Z,240828,Vorsorge,tahadhari,s,ufafanuzi,makini,mashambani,NA,NA,0,NULL,NA,NA,NA,NA,NA,NA,NA,NA,NA,NA,NA,NA,NA,NA,NA,NA,NA,NA,NA
822000,deep,flow.Sequence,1_9_0,NA,NA,completion,4633,236164,236161,236178,240811,240813,2024-03-27T13:15:45Z,240828,Vorsorge,tahadhari,s,ufafanuzi,makini,mashambani,NA,NA,NA,NULL,NA,NA,NA,NA,NA,NA,NA,NA,NA,NA,NA,NA,NA,NA,NA,NA,NA,NA,NA
822000,task,flow.Sequence,1_9,NA,NA,completion,4633,236164,236161,236178,240811,240813,2024-03-27T13:15:45Z,240828,Vorsorge,tahadhari,s,ufafanuzi,makini,mashambani,NA,NA,NA,NULL,NA,NA,NA,NA,NA,NA,NA,NA,NA,NA,NA,NA,NA,NA,NA,NA,NA,NA,NA
822000,Deep Question,html.Page,1_10_0_0,NA,NA,form submission,17423,240814,240811,240828,258251,258252,2024-03-27T13:16:02Z,258261,Zufall,kikuti,d,kukosekana,uchoraji,leseni,mshtuko,NA,NA,NULL,NA,NA,NA,NA,NA,NA,NA,NA,NA,NA,NA,NA,NA,NA,NA,NA,NA,NA,NA
822000,Save data screen,canvas.Screen,1_10_0_1,NA,NA,timeout,501,258253,258254,258261,258745,258746,2024-03-27T13:16:03Z,258762,Zufall,kikuti,d,kukosekana,uchoraji,leseni,NA,NA,0,NULL,NA,NA,NA,NA,NA,NA,NA,NA,NA,NA,NA,NA,NA,NA,NA,NA,NA,NA,NA
822000,deep,flow.Sequence,1_10_0,NA,NA,completion,17917,240814,240811,240828,258745,258747,2024-03-27T13:16:03Z,258762,Zufall,kikuti,d,kukosekana,uchoraji,leseni,NA,NA,NA,NULL,NA,NA,NA,NA,NA,NA,NA,NA,NA,NA,NA,NA,NA,NA,NA,NA,NA,NA,NA
822000,task,flow.Sequence,1_10,NA,NA,completion,17917,240814,240811,240828,258745,258747,2024-03-27T13:16:03Z,258762,Zufall,kikuti,d,kukosekana,uchoraji,leseni,NA,NA,NA,NULL,NA,NA,NA,NA,NA,NA,NA,NA,NA,NA,NA,NA,NA,NA,NA,NA,NA,NA,NA
822000,Deep Question,html.Page,1_11_0_0,NA,NA,form submission,10636,258748,258745,258762,269398,269399,2024-03-27T13:16:13Z,269412,Wettbewerb,ushindani,s,mapendezi,kichocheo,ubaguzi,ushindani,NA,NA,NULL,NA,NA,NA,NA,NA,NA,NA,NA,NA,NA,NA,NA,NA,NA,NA,NA,NA,NA,NA
822000,Save data screen,canvas.Screen,1_11_0_1,NA,NA,timeout,500,269399,269400,269412,269895,269896,2024-03-27T13:16:14Z,269912,Wettbewerb,ushindani,s,mapendezi,kichocheo,ubaguzi,NA,NA,1,NULL,NA,NA,NA,NA,NA,NA,NA,NA,NA,NA,NA,NA,NA,NA,NA,NA,NA,NA,NA
822000,deep,flow.Sequence,1_11_0,NA,NA,completion,11133,258748,258745,258762,269895,269896,2024-03-27T13:16:14Z,269912,Wettbewerb,ushindani,s,mapendezi,kichocheo,ubaguzi,NA,NA,NA,NULL,NA,NA,NA,NA,NA,NA,NA,NA,NA,NA,NA,NA,NA,NA,NA,NA,NA,NA,NA
822000,task,flow.Sequence,1_11,NA,NA,completion,11133,258747,258745,258762,269895,269897,2024-03-27T13:16:14Z,269912,Wettbewerb,ushindani,s,mapendezi,kichocheo,ubaguzi,NA,NA,NA,NULL,NA,NA,NA,NA,NA,NA,NA,NA,NA,NA,NA,NA,NA,NA,NA,NA,NA,NA,NA
822000,Deep Question,html.Page,1_12_0_0,NA,NA,form submission,6142.0000000001,269897,269895,269912,276054,276054,2024-03-27T13:16:20Z,276062,Schönheit,kirembo,d,mahojiano,msisimko,jitihadi,kirembo,NA,NA,NULL,NA,NA,NA,NA,NA,NA,NA,NA,NA,NA,NA,NA,NA,NA,NA,NA,NA,NA,NA
822000,Save data screen,canvas.Screen,1_12_0_1,NA,NA,timeout,501,276055,276056,276062,276545,276546,2024-03-27T13:16:20Z,276563,Schönheit,kirembo,d,mahojiano,msisimko,jitihadi,NA,NA,1,NULL,NA,NA,NA,NA,NA,NA,NA,NA,NA,NA,NA,NA,NA,NA,NA,NA,NA,NA,NA
822000,deep,flow.Sequence,1_12_0,NA,NA,completion,6633,269897,269895,269912,276545,276546,2024-03-27T13:16:20Z,276563,Schönheit,kirembo,d,mahojiano,msisimko,jitihadi,NA,NA,NA,NULL,NA,NA,NA,NA,NA,NA,NA,NA,NA,NA,NA,NA,NA,NA,NA,NA,NA,NA,NA
822000,task,flow.Sequence,1_12,NA,NA,completion,6633,269897,269895,269912,276545,276546,2024-03-27T13:16:20Z,276563,Schönheit,kirembo,d,mahojiano,msisimko,jitihadi,NA,NA,NA,NULL,NA,NA,NA,NA,NA,NA,NA,NA,NA,NA,NA,NA,NA,NA,NA,NA,NA,NA,NA
822000,Deep Question,html.Page,1_13_0_0,NA,NA,form submission,9881,276547,276545,276563,286444,286445,2024-03-27T13:16:30Z,286463,Symbol,kielezo,d,kinyume,nderemo,utayari,umpelelezi,NA,NA,NULL,NA,NA,NA,NA,NA,NA,NA,NA,NA,NA,NA,NA,NA,NA,NA,NA,NA,NA,NA
822000,Save data screen,canvas.Screen,1_13_0_1,NA,NA,timeout,500,286445,286446,286463,286946,286946,2024-03-27T13:16:31Z,286963,Symbol,kielezo,d,kinyume,nderemo,utayari,NA,NA,0,NULL,NA,NA,NA,NA,NA,NA,NA,NA,NA,NA,NA,NA,NA,NA,NA,NA,NA,NA,NA
822000,deep,flow.Sequence,1_13_0,NA,NA,completion,10383,276547,276545,276563,286946,286947,2024-03-27T13:16:31Z,286963,Symbol,kielezo,d,kinyume,nderemo,utayari,NA,NA,NA,NULL,NA,NA,NA,NA,NA,NA,NA,NA,NA,NA,NA,NA,NA,NA,NA,NA,NA,NA,NA
822000,task,flow.Sequence,1_13,NA,NA,completion,10383,276547,276545,276563,286946,286947,2024-03-27T13:16:31Z,286963,Symbol,kielezo,d,kinyume,nderemo,utayari,NA,NA,NA,NULL,NA,NA,NA,NA,NA,NA,NA,NA,NA,NA,NA,NA,NA,NA,NA,NA,NA,NA,NA
822000,Deep Question,html.Page,1_14_0_0,NA,NA,form submission,5274,286947,286946,286963,292237,292237,2024-03-27T13:16:36Z,292246,Beweis,ushahidi,s,marudio,kizuizi,mtendaji,koda,NA,NA,NULL,NA,NA,NA,NA,NA,NA,NA,NA,NA,NA,NA,NA,NA,NA,NA,NA,NA,NA,NA
822000,Save data screen,canvas.Screen,1_14_0_1,NA,NA,timeout,500,292238,292239,292246,292730,292730,2024-03-27T13:16:37Z,292746,Beweis,ushahidi,s,marudio,kizuizi,mtendaji,NA,NA,0,NULL,NA,NA,NA,NA,NA,NA,NA,NA,NA,NA,NA,NA,NA,NA,NA,NA,NA,NA,NA
822000,deep,flow.Sequence,1_14_0,NA,NA,completion,5767,286947,286946,286963,292730,292731,2024-03-27T13:16:37Z,292746,Beweis,ushahidi,s,marudio,kizuizi,mtendaji,NA,NA,NA,NULL,NA,NA,NA,NA,NA,NA,NA,NA,NA,NA,NA,NA,NA,NA,NA,NA,NA,NA,NA
822000,task,flow.Sequence,1_14,NA,NA,completion,5767,286947,286946,286963,292730,292731,2024-03-27T13:16:37Z,292746,Beweis,ushahidi,s,marudio,kizuizi,mtendaji,NA,NA,NA,NULL,NA,NA,NA,NA,NA,NA,NA,NA,NA,NA,NA,NA,NA,NA,NA,NA,NA,NA,NA
822000,Deep Question,html.Page,1_15_0_0,NA,NA,form submission,11196,292732,292730,292746,303942,303942,2024-03-27T13:16:48Z,303963,Auftrag,uagizaji,s,ghanima,kuzingatia,msukani,kado,NA,NA,NULL,NA,NA,NA,NA,NA,NA,NA,NA,NA,NA,NA,NA,NA,NA,NA,NA,NA,NA,NA
822000,Save data screen,canvas.Screen,1_15_0_1,NA,NA,timeout,505,303943,303945,303963,304447,304448,2024-03-27T13:16:48Z,304468,Auftrag,uagizaji,s,ghanima,kuzingatia,msukani,NA,NA,0,NULL,NA,NA,NA,NA,NA,NA,NA,NA,NA,NA,NA,NA,NA,NA,NA,NA,NA,NA,NA
822000,deep,flow.Sequence,1_15_0,NA,NA,completion,11701,292731,292730,292746,304447,304448,2024-03-27T13:16:48Z,304468,Auftrag,uagizaji,s,ghanima,kuzingatia,msukani,NA,NA,NA,NULL,NA,NA,NA,NA,NA,NA,NA,NA,NA,NA,NA,NA,NA,NA,NA,NA,NA,NA,NA
822000,task,flow.Sequence,1_15,NA,NA,completion,11701,292731,292730,292746,304447,304448,2024-03-27T13:16:48Z,304468,Auftrag,uagizaji,s,ghanima,kuzingatia,msukani,NA,NA,NA,NULL,NA,NA,NA,NA,NA,NA,NA,NA,NA,NA,NA,NA,NA,NA,NA,NA,NA,NA,NA
822000,retrieval block 1 (cued recall),flow.Loop,1,NA,NA,completion,268308,36090,36100,36139,304447,304449,2024-03-27T13:16:48Z,304468,NA,NA,NA,NA,NA,NA,NA,NA,NA,NULL,NA,NA,NA,NA,NA,NA,NA,NA,NA,NA,NA,NA,NA,NA,NA,NA,NA,NA,NA
822000,Shallow Question,html.Page,2_0_0_0,NA,NA,form submission,7873,304450,304447,304468,312341,312341,2024-03-27T13:16:56Z,312364,Polizist,msongora,s,simanzi,mandhari,nidhamu,msongora,NA,NA,"c(""distractor1"", ""distractor2"", ""distractor3"")",NA,NA,NA,NA,NA,NA,NA,NA,NA,NA,NA,NA,NA,NA,NA,NA,NA,NA,NA
822000,Save data screen,canvas.Screen,2_0_0_1,NA,NA,timeout,499,312342,312342,312364,312846,312847,2024-03-27T13:16:57Z,312863,Polizist,msongora,s,simanzi,mandhari,nidhamu,NA,NA,1,"c(""distractor1"", ""distractor2"", ""distractor3"")",NA,NA,NA,NA,NA,NA,NA,NA,NA,NA,NA,NA,NA,NA,NA,NA,NA,NA,NA
822000,shallow,flow.Sequence,2_0_0,NA,NA,completion,8378,304450,304447,304468,312846,312848,2024-03-27T13:16:57Z,312863,Polizist,msongora,s,simanzi,mandhari,nidhamu,NA,NA,NA,"c(""distractor1"", ""distractor2"", ""distractor3"")",NA,NA,NA,NA,NA,NA,NA,NA,NA,NA,NA,NA,NA,NA,NA,NA,NA,NA,NA
822000,task,flow.Sequence,2_0,NA,NA,completion,8378,304450,304447,304468,312846,312849,2024-03-27T13:16:57Z,312863,Polizist,msongora,s,simanzi,mandhari,nidhamu,NA,NA,NA,"c(""distractor1"", ""distractor2"", ""distractor3"")",NA,NA,NA,NA,NA,NA,NA,NA,NA,NA,NA,NA,NA,NA,NA,NA,NA,NA,NA
822000,Shallow Question,html.Page,2_1_0_0,NA,NA,form submission,7809,312850,312846,312863,320672,320672,2024-03-27T13:17:04Z,320680,Konkurrent,mshindani,s,msemaji,mvutaji,kipukusa,mshindani,NA,NA,"c(""distractor1"", ""distractor2"", ""distractor3"")",NA,NA,NA,NA,NA,NA,NA,NA,NA,NA,NA,NA,NA,NA,NA,NA,NA,NA,NA
822000,Save data screen,canvas.Screen,2_1_0_1,NA,NA,timeout,500,320673,320674,320680,321164,321165,2024-03-27T13:17:05Z,321180,Konkurrent,mshindani,s,msemaji,mvutaji,kipukusa,NA,NA,1,"c(""distractor1"", ""distractor2"", ""distractor3"")",NA,NA,NA,NA,NA,NA,NA,NA,NA,NA,NA,NA,NA,NA,NA,NA,NA,NA,NA
822000,shallow,flow.Sequence,2_1_0,NA,NA,completion,8301,312849,312846,312863,321164,321165,2024-03-27T13:17:05Z,321180,Konkurrent,mshindani,s,msemaji,mvutaji,kipukusa,NA,NA,NA,"c(""distractor1"", ""distractor2"", ""distractor3"")",NA,NA,NA,NA,NA,NA,NA,NA,NA,NA,NA,NA,NA,NA,NA,NA,NA,NA,NA
822000,task,flow.Sequence,2_1,NA,NA,completion,8301,312849,312846,312863,321164,321166,2024-03-27T13:17:05Z,321180,Konkurrent,mshindani,s,msemaji,mvutaji,kipukusa,NA,NA,NA,"c(""distractor1"", ""distractor2"", ""distractor3"")",NA,NA,NA,NA,NA,NA,NA,NA,NA,NA,NA,NA,NA,NA,NA,NA,NA,NA,NA
822000,Shallow Question,html.Page,2_2_0_0,NA,NA,form submission,15692,321166,321164,321180,336872,336873,2024-03-27T13:17:21Z,336898,Zuwachs,nyongeza,d,matilaba,udhibiti,hudhurio,nyongeza,NA,NA,"c(""distractor1"", ""distractor2"", ""distractor3"")",NA,NA,NA,NA,NA,NA,NA,NA,NA,NA,NA,NA,NA,NA,NA,NA,NA,NA,NA
822000,Save data screen,canvas.Screen,2_2_0_1,NA,NA,timeout,500,336874,336877,336898,337381,337382,2024-03-27T13:17:21Z,337398,Zuwachs,nyongeza,d,matilaba,udhibiti,hudhurio,NA,NA,1,"c(""distractor1"", ""distractor2"", ""distractor3"")",NA,NA,NA,NA,NA,NA,NA,NA,NA,NA,NA,NA,NA,NA,NA,NA,NA,NA,NA
822000,shallow,flow.Sequence,2_2_0,NA,NA,completion,16201,321166,321164,321180,337381,337383,2024-03-27T13:17:21Z,337398,Zuwachs,nyongeza,d,matilaba,udhibiti,hudhurio,NA,NA,NA,"c(""distractor1"", ""distractor2"", ""distractor3"")",NA,NA,NA,NA,NA,NA,NA,NA,NA,NA,NA,NA,NA,NA,NA,NA,NA,NA,NA
822000,task,flow.Sequence,2_2,NA,NA,completion,16201,321166,321164,321180,337381,337384,2024-03-27T13:17:21Z,337398,Zuwachs,nyongeza,d,matilaba,udhibiti,hudhurio,NA,NA,NA,"c(""distractor1"", ""distractor2"", ""distractor3"")",NA,NA,NA,NA,NA,NA,NA,NA,NA,NA,NA,NA,NA,NA,NA,NA,NA,NA,NA
822000,Shallow Question,html.Page,2_3_0_0,NA,NA,form submission,5257.0000000001,337385,337381,337398,342655,342656,2024-03-27T13:17:26Z,342664,Ausschluss,kutengwa,s,ununuzi,taratibu,madeni,kutengwa,NA,NA,"c(""distractor1"", ""distractor2"", ""distractor3"")",NA,NA,NA,NA,NA,NA,NA,NA,NA,NA,NA,NA,NA,NA,NA,NA,NA,NA,NA
822000,Save data screen,canvas.Screen,2_3_0_1,NA,NA,timeout,500,342658,342659,342664,343148,343148,2024-03-27T13:17:27Z,343164,Ausschluss,kutengwa,s,ununuzi,taratibu,madeni,NA,NA,1,"c(""distractor1"", ""distractor2"", ""distractor3"")",NA,NA,NA,NA,NA,NA,NA,NA,NA,NA,NA,NA,NA,NA,NA,NA,NA,NA,NA
822000,shallow,flow.Sequence,2_3_0,NA,NA,completion,5750,337384,337381,337398,343148,343149,2024-03-27T13:17:27Z,343164,Ausschluss,kutengwa,s,ununuzi,taratibu,madeni,NA,NA,NA,"c(""distractor1"", ""distractor2"", ""distractor3"")",NA,NA,NA,NA,NA,NA,NA,NA,NA,NA,NA,NA,NA,NA,NA,NA,NA,NA,NA
822000,task,flow.Sequence,2_3,NA,NA,completion,5750,337384,337381,337398,343148,343149,2024-03-27T13:17:27Z,343164,Ausschluss,kutengwa,s,ununuzi,taratibu,madeni,NA,NA,NA,"c(""distractor1"", ""distractor2"", ""distractor3"")",NA,NA,NA,NA,NA,NA,NA,NA,NA,NA,NA,NA,NA,NA,NA,NA,NA,NA,NA
822000,Shallow Question,html.Page,2_4_0_0,NA,NA,form submission,27142,343150,343148,343164,370306,370306,2024-03-27T13:17:54Z,370315,Widerstand,usulubu,d,kusababisha,mwalimu,mwenendo,usulubu,NA,NA,"c(""distractor1"", ""distractor2"", ""distractor3"")",NA,NA,NA,NA,NA,NA,NA,NA,NA,NA,NA,NA,NA,NA,NA,NA,NA,NA,NA
822000,Save data screen,canvas.Screen,2_4_0_1,NA,NA,timeout,500,370307,370309,370315,370799,370800,2024-03-27T13:17:55Z,370815,Widerstand,usulubu,d,kusababisha,mwalimu,mwenendo,NA,NA,1,"c(""distractor1"", ""distractor2"", ""distractor3"")",NA,NA,NA,NA,NA,NA,NA,NA,NA,NA,NA,NA,NA,NA,NA,NA,NA,NA,NA
822000,shallow,flow.Sequence,2_4_0,NA,NA,completion,27635,343149,343148,343164,370799,370802,2024-03-27T13:17:55Z,370815,Widerstand,usulubu,d,kusababisha,mwalimu,mwenendo,NA,NA,NA,"c(""distractor1"", ""distractor2"", ""distractor3"")",NA,NA,NA,NA,NA,NA,NA,NA,NA,NA,NA,NA,NA,NA,NA,NA,NA,NA,NA
822000,task,flow.Sequence,2_4,NA,NA,completion,27635,343149,343148,343164,370799,370802,2024-03-27T13:17:55Z,370815,Widerstand,usulubu,d,kusababisha,mwalimu,mwenendo,NA,NA,NA,"c(""distractor1"", ""distractor2"", ""distractor3"")",NA,NA,NA,NA,NA,NA,NA,NA,NA,NA,NA,NA,NA,NA,NA,NA,NA,NA,NA
822000,Shallow Question,html.Page,2_5_0_0,NA,NA,form submission,5474,370803,370799,370815,376289,376289,2024-03-27T13:18:00Z,376299,Schönheit,kirembo,d,mahojiano,msisimko,jitihadi,kirembo,NA,NA,"c(""distractor1"", ""distractor2"", ""distractor3"")",NA,NA,NA,NA,NA,NA,NA,NA,NA,NA,NA,NA,NA,NA,NA,NA,NA,NA,NA
822000,Save data screen,canvas.Screen,2_5_0_1,NA,NA,timeout,499,376291,376293,376299,376782,376783,2024-03-27T13:18:01Z,376798,Schönheit,kirembo,d,mahojiano,msisimko,jitihadi,NA,NA,1,"c(""distractor1"", ""distractor2"", ""distractor3"")",NA,NA,NA,NA,NA,NA,NA,NA,NA,NA,NA,NA,NA,NA,NA,NA,NA,NA,NA
822000,shallow,flow.Sequence,2_5_0,NA,NA,completion,5967,370803,370799,370815,376782,376784,2024-03-27T13:18:01Z,376798,Schönheit,kirembo,d,mahojiano,msisimko,jitihadi,NA,NA,NA,"c(""distractor1"", ""distractor2"", ""distractor3"")",NA,NA,NA,NA,NA,NA,NA,NA,NA,NA,NA,NA,NA,NA,NA,NA,NA,NA,NA
822000,task,flow.Sequence,2_5,NA,NA,completion,5967,370803,370799,370815,376782,376784,2024-03-27T13:18:01Z,376798,Schönheit,kirembo,d,mahojiano,msisimko,jitihadi,NA,NA,NA,"c(""distractor1"", ""distractor2"", ""distractor3"")",NA,NA,NA,NA,NA,NA,NA,NA,NA,NA,NA,NA,NA,NA,NA,NA,NA,NA,NA
822000,Shallow Question,html.Page,2_6_0_0,NA,NA,form submission,7923,376785,376782,376798,384721,384722,2024-03-27T13:18:09Z,384732,Gelegenheit,wakati,s,mchanganyiko,kipaumbele,kushuku,wakati,NA,NA,"c(""distractor1"", ""distractor2"", ""distractor3"")",NA,NA,NA,NA,NA,NA,NA,NA,NA,NA,NA,NA,NA,NA,NA,NA,NA,NA,NA
822000,Save data screen,canvas.Screen,2_6_0_1,NA,NA,timeout,500,384723,384725,384732,385215,385216,2024-03-27T13:18:09Z,385232,Gelegenheit,wakati,s,mchanganyiko,kipaumbele,kushuku,NA,NA,1,"c(""distractor1"", ""distractor2"", ""distractor3"")",NA,NA,NA,NA,NA,NA,NA,NA,NA,NA,NA,NA,NA,NA,NA,NA,NA,NA,NA
822000,shallow,flow.Sequence,2_6_0,NA,NA,completion,8417,376784,376782,376798,385215,385217,2024-03-27T13:18:09Z,385232,Gelegenheit,wakati,s,mchanganyiko,kipaumbele,kushuku,NA,NA,NA,"c(""distractor1"", ""distractor2"", ""distractor3"")",NA,NA,NA,NA,NA,NA,NA,NA,NA,NA,NA,NA,NA,NA,NA,NA,NA,NA,NA
822000,task,flow.Sequence,2_6,NA,NA,completion,8417,376784,376782,376798,385215,385217,2024-03-27T13:18:09Z,385232,Gelegenheit,wakati,s,mchanganyiko,kipaumbele,kushuku,NA,NA,NA,"c(""distractor1"", ""distractor2"", ""distractor3"")",NA,NA,NA,NA,NA,NA,NA,NA,NA,NA,NA,NA,NA,NA,NA,NA,NA,NA,NA
822000,Shallow Question,html.Page,2_7_0_0,NA,NA,form submission,16225,385218,385215,385232,401457,401457,2024-03-27T13:18:25Z,401465,Zufall,kikuti,d,kukosekana,uchoraji,leseni,kikuti,NA,NA,"c(""distractor1"", ""distractor2"", ""distractor3"")",NA,NA,NA,NA,NA,NA,NA,NA,NA,NA,NA,NA,NA,NA,NA,NA,NA,NA,NA
822000,Save data screen,canvas.Screen,2_7_0_1,NA,NA,timeout,501,401458,401459,401465,401949,401950,2024-03-27T13:18:26Z,401966,Zufall,kikuti,d,kukosekana,uchoraji,leseni,NA,NA,1,"c(""distractor1"", ""distractor2"", ""distractor3"")",NA,NA,NA,NA,NA,NA,NA,NA,NA,NA,NA,NA,NA,NA,NA,NA,NA,NA,NA
822000,shallow,flow.Sequence,2_7_0,NA,NA,completion,16717,385217,385215,385232,401949,401951,2024-03-27T13:18:26Z,401966,Zufall,kikuti,d,kukosekana,uchoraji,leseni,NA,NA,NA,"c(""distractor1"", ""distractor2"", ""distractor3"")",NA,NA,NA,NA,NA,NA,NA,NA,NA,NA,NA,NA,NA,NA,NA,NA,NA,NA,NA
822000,task,flow.Sequence,2_7,NA,NA,completion,16717,385217,385215,385232,401949,401951,2024-03-27T13:18:26Z,401966,Zufall,kikuti,d,kukosekana,uchoraji,leseni,NA,NA,NA,"c(""distractor1"", ""distractor2"", ""distractor3"")",NA,NA,NA,NA,NA,NA,NA,NA,NA,NA,NA,NA,NA,NA,NA,NA,NA,NA,NA
822000,Shallow Question,html.Page,2_8_0_0,NA,NA,form submission,10125,401951,401949,401966,412091,412091,2024-03-27T13:18:36Z,412100,Vorsorge,tahadhari,s,ufafanuzi,makini,mashambani,tahadhari,NA,NA,"c(""distractor1"", ""distractor2"", ""distractor3"")",NA,NA,NA,NA,NA,NA,NA,NA,NA,NA,NA,NA,NA,NA,NA,NA,NA,NA,NA
822000,Save data screen,canvas.Screen,2_8_0_1,NA,NA,timeout,500,412091,412094,412100,412583,412585,2024-03-27T13:18:36Z,412600,Vorsorge,tahadhari,s,ufafanuzi,makini,mashambani,NA,NA,1,"c(""distractor1"", ""distractor2"", ""distractor3"")",NA,NA,NA,NA,NA,NA,NA,NA,NA,NA,NA,NA,NA,NA,NA,NA,NA,NA,NA
822000,shallow,flow.Sequence,2_8_0,NA,NA,completion,10617,401951,401949,401966,412583,412586,2024-03-27T13:18:36Z,412600,Vorsorge,tahadhari,s,ufafanuzi,makini,mashambani,NA,NA,NA,"c(""distractor1"", ""distractor2"", ""distractor3"")",NA,NA,NA,NA,NA,NA,NA,NA,NA,NA,NA,NA,NA,NA,NA,NA,NA,NA,NA
822000,task,flow.Sequence,2_8,NA,NA,completion,10617,401951,401949,401966,412583,412587,2024-03-27T13:18:36Z,412600,Vorsorge,tahadhari,s,ufafanuzi,makini,mashambani,NA,NA,NA,"c(""distractor1"", ""distractor2"", ""distractor3"")",NA,NA,NA,NA,NA,NA,NA,NA,NA,NA,NA,NA,NA,NA,NA,NA,NA,NA,NA
822000,Shallow Question,html.Page,2_9_0_0,NA,NA,form submission,13890,412588,412583,412600,426490,426490,2024-03-27T13:18:50Z,426500,Auftrag,uagizaji,s,ghanima,kuzingatia,msukani,uagizaji,NA,NA,"c(""distractor1"", ""distractor2"", ""distractor3"")",NA,NA,NA,NA,NA,NA,NA,NA,NA,NA,NA,NA,NA,NA,NA,NA,NA,NA,NA
822000,Save data screen,canvas.Screen,2_9_0_1,NA,NA,timeout,500,426491,426492,426500,426984,426985,2024-03-27T13:18:51Z,427000,Auftrag,uagizaji,s,ghanima,kuzingatia,msukani,NA,NA,1,"c(""distractor1"", ""distractor2"", ""distractor3"")",NA,NA,NA,NA,NA,NA,NA,NA,NA,NA,NA,NA,NA,NA,NA,NA,NA,NA,NA
822000,shallow,flow.Sequence,2_9_0,NA,NA,completion,14384,412587,412583,412600,426984,426985,2024-03-27T13:18:51Z,427000,Auftrag,uagizaji,s,ghanima,kuzingatia,msukani,NA,NA,NA,"c(""distractor1"", ""distractor2"", ""distractor3"")",NA,NA,NA,NA,NA,NA,NA,NA,NA,NA,NA,NA,NA,NA,NA,NA,NA,NA,NA
822000,task,flow.Sequence,2_9,NA,NA,completion,14384,412587,412583,412600,426984,426986,2024-03-27T13:18:51Z,427000,Auftrag,uagizaji,s,ghanima,kuzingatia,msukani,NA,NA,NA,"c(""distractor1"", ""distractor2"", ""distractor3"")",NA,NA,NA,NA,NA,NA,NA,NA,NA,NA,NA,NA,NA,NA,NA,NA,NA,NA,NA
822000,Shallow Question,html.Page,2_10_0_0,NA,NA,form submission,9557,426986,426984,427000,436557,436558,2024-03-27T13:19:00Z,436567,Beweis,ushahidi,s,marudio,kizuizi,mtendaji,ushahidi,NA,NA,"c(""distractor1"", ""distractor2"", ""distractor3"")",NA,NA,NA,NA,NA,NA,NA,NA,NA,NA,NA,NA,NA,NA,NA,NA,NA,NA,NA
822000,Save data screen,canvas.Screen,2_10_0_1,NA,NA,timeout,499,436558,436561,436567,437051,437052,2024-03-27T13:19:01Z,437066,Beweis,ushahidi,s,marudio,kizuizi,mtendaji,NA,NA,1,"c(""distractor1"", ""distractor2"", ""distractor3"")",NA,NA,NA,NA,NA,NA,NA,NA,NA,NA,NA,NA,NA,NA,NA,NA,NA,NA,NA
822000,shallow,flow.Sequence,2_10_0,NA,NA,completion,10051,426986,426984,427000,437051,437054,2024-03-27T13:19:01Z,437066,Beweis,ushahidi,s,marudio,kizuizi,mtendaji,NA,NA,NA,"c(""distractor1"", ""distractor2"", ""distractor3"")",NA,NA,NA,NA,NA,NA,NA,NA,NA,NA,NA,NA,NA,NA,NA,NA,NA,NA,NA
822000,task,flow.Sequence,2_10,NA,NA,completion,10051,426986,426984,427000,437051,437055,2024-03-27T13:19:01Z,437066,Beweis,ushahidi,s,marudio,kizuizi,mtendaji,NA,NA,NA,"c(""distractor1"", ""distractor2"", ""distractor3"")",NA,NA,NA,NA,NA,NA,NA,NA,NA,NA,NA,NA,NA,NA,NA,NA,NA,NA,NA
822000,Shallow Question,html.Page,2_11_0_0,NA,NA,form submission,7144.0000000001,437055,437051,437066,444210,444210,2024-03-27T13:19:08Z,444234,Sympathie,mapendano,d,dhamiria,fungamano,maazimio,mapendano,NA,NA,"c(""distractor1"", ""distractor2"", ""distractor3"")",NA,NA,NA,NA,NA,NA,NA,NA,NA,NA,NA,NA,NA,NA,NA,NA,NA,NA,NA
822000,Save data screen,canvas.Screen,2_11_0_1,NA,NA,timeout,500,444211,444212,444234,444717,444718,2024-03-27T13:19:09Z,444734,Sympathie,mapendano,d,dhamiria,fungamano,maazimio,NA,NA,1,"c(""distractor1"", ""distractor2"", ""distractor3"")",NA,NA,NA,NA,NA,NA,NA,NA,NA,NA,NA,NA,NA,NA,NA,NA,NA,NA,NA
822000,shallow,flow.Sequence,2_11_0,NA,NA,completion,7651,437055,437051,437066,444717,444719,2024-03-27T13:19:09Z,444734,Sympathie,mapendano,d,dhamiria,fungamano,maazimio,NA,NA,NA,"c(""distractor1"", ""distractor2"", ""distractor3"")",NA,NA,NA,NA,NA,NA,NA,NA,NA,NA,NA,NA,NA,NA,NA,NA,NA,NA,NA
822000,task,flow.Sequence,2_11,NA,NA,completion,7651,437055,437051,437066,444717,444719,2024-03-27T13:19:09Z,444734,Sympathie,mapendano,d,dhamiria,fungamano,maazimio,NA,NA,NA,"c(""distractor1"", ""distractor2"", ""distractor3"")",NA,NA,NA,NA,NA,NA,NA,NA,NA,NA,NA,NA,NA,NA,NA,NA,NA,NA,NA
822000,Shallow Question,html.Page,2_12_0_0,NA,NA,form submission,3524,444719,444717,444734,448258,448258,2024-03-27T13:19:12Z,448267,Annäherung,maegesho,d,madahili,kujiamini,mapendekezo,maegesho,NA,NA,"c(""distractor1"", ""distractor2"", ""distractor3"")",NA,NA,NA,NA,NA,NA,NA,NA,NA,NA,NA,NA,NA,NA,NA,NA,NA,NA,NA
822000,Save data screen,canvas.Screen,2_12_0_1,NA,NA,timeout,500,448259,448262,448267,448751,448752,2024-03-27T13:19:13Z,448767,Annäherung,maegesho,d,madahili,kujiamini,mapendekezo,NA,NA,1,"c(""distractor1"", ""distractor2"", ""distractor3"")",NA,NA,NA,NA,NA,NA,NA,NA,NA,NA,NA,NA,NA,NA,NA,NA,NA,NA,NA
822000,shallow,flow.Sequence,2_12_0,NA,NA,completion,4017,444719,444717,444734,448751,448753,2024-03-27T13:19:13Z,448767,Annäherung,maegesho,d,madahili,kujiamini,mapendekezo,NA,NA,NA,"c(""distractor1"", ""distractor2"", ""distractor3"")",NA,NA,NA,NA,NA,NA,NA,NA,NA,NA,NA,NA,NA,NA,NA,NA,NA,NA,NA
822000,task,flow.Sequence,2_12,NA,NA,completion,4017,444719,444717,444734,448751,448753,2024-03-27T13:19:13Z,448767,Annäherung,maegesho,d,madahili,kujiamini,mapendekezo,NA,NA,NA,"c(""distractor1"", ""distractor2"", ""distractor3"")",NA,NA,NA,NA,NA,NA,NA,NA,NA,NA,NA,NA,NA,NA,NA,NA,NA,NA,NA
822000,Shallow Question,html.Page,2_13_0_0,NA,NA,form submission,5607,448753,448751,448767,454374,454375,2024-03-27T13:19:18Z,454401,Wettbewerb,ushindani,s,mapendezi,kichocheo,ubaguzi,ushindani,NA,NA,"c(""distractor1"", ""distractor2"", ""distractor3"")",NA,NA,NA,NA,NA,NA,NA,NA,NA,NA,NA,NA,NA,NA,NA,NA,NA,NA,NA
822000,Save data screen,canvas.Screen,2_13_0_1,NA,NA,timeout,499,454377,454378,454401,454884,454886,2024-03-27T13:19:19Z,454900,Wettbewerb,ushindani,s,mapendezi,kichocheo,ubaguzi,NA,NA,1,"c(""distractor1"", ""distractor2"", ""distractor3"")",NA,NA,NA,NA,NA,NA,NA,NA,NA,NA,NA,NA,NA,NA,NA,NA,NA,NA,NA
822000,shallow,flow.Sequence,2_13_0,NA,NA,completion,6117,448753,448751,448767,454884,454886,2024-03-27T13:19:19Z,454900,Wettbewerb,ushindani,s,mapendezi,kichocheo,ubaguzi,NA,NA,NA,"c(""distractor1"", ""distractor2"", ""distractor3"")",NA,NA,NA,NA,NA,NA,NA,NA,NA,NA,NA,NA,NA,NA,NA,NA,NA,NA,NA
822000,task,flow.Sequence,2_13,NA,NA,completion,6117,448753,448751,448767,454884,454886,2024-03-27T13:19:19Z,454900,Wettbewerb,ushindani,s,mapendezi,kichocheo,ubaguzi,NA,NA,NA,"c(""distractor1"", ""distractor2"", ""distractor3"")",NA,NA,NA,NA,NA,NA,NA,NA,NA,NA,NA,NA,NA,NA,NA,NA,NA,NA,NA
822000,Shallow Question,html.Page,2_14_0_0,NA,NA,form submission,10542,454886,454884,454900,465442,465442,2024-03-27T13:19:29Z,465451,Symbol,kielezo,d,kinyume,nderemo,utayari,kielezo,NA,NA,"c(""distractor1"", ""distractor2"", ""distractor3"")",NA,NA,NA,NA,NA,NA,NA,NA,NA,NA,NA,NA,NA,NA,NA,NA,NA,NA,NA
822000,Save data screen,canvas.Screen,2_14_0_1,NA,NA,timeout,500,465443,465446,465451,465936,465937,2024-03-27T13:19:30Z,465951,Symbol,kielezo,d,kinyume,nderemo,utayari,NA,NA,1,"c(""distractor1"", ""distractor2"", ""distractor3"")",NA,NA,NA,NA,NA,NA,NA,NA,NA,NA,NA,NA,NA,NA,NA,NA,NA,NA,NA
822000,shallow,flow.Sequence,2_14_0,NA,NA,completion,11036,454886,454884,454900,465936,465939,2024-03-27T13:19:30Z,465951,Symbol,kielezo,d,kinyume,nderemo,utayari,NA,NA,NA,"c(""distractor1"", ""distractor2"", ""distractor3"")",NA,NA,NA,NA,NA,NA,NA,NA,NA,NA,NA,NA,NA,NA,NA,NA,NA,NA,NA
822000,task,flow.Sequence,2_14,NA,NA,completion,11036,454886,454884,454900,465936,465939,2024-03-27T13:19:30Z,465951,Symbol,kielezo,d,kinyume,nderemo,utayari,NA,NA,NA,"c(""distractor1"", ""distractor2"", ""distractor3"")",NA,NA,NA,NA,NA,NA,NA,NA,NA,NA,NA,NA,NA,NA,NA,NA,NA,NA,NA
822000,Shallow Question,html.Page,2_15_0_0,NA,NA,form submission,14776,465940,465936,465951,480727,480727,2024-03-27T13:19:45Z,480735,Verstand,ufahamivu,d,shakawa,hadhari,mhandisi,ufahamivu,NA,NA,"c(""distractor1"", ""distractor2"", ""distractor3"")",NA,NA,NA,NA,NA,NA,NA,NA,NA,NA,NA,NA,NA,NA,NA,NA,NA,NA,NA
822000,Save data screen,canvas.Screen,2_15_0_1,NA,NA,timeout,500,480728,480729,480735,481218,481219,2024-03-27T13:19:45Z,481235,Verstand,ufahamivu,d,shakawa,hadhari,mhandisi,NA,NA,1,"c(""distractor1"", ""distractor2"", ""distractor3"")",NA,NA,NA,NA,NA,NA,NA,NA,NA,NA,NA,NA,NA,NA,NA,NA,NA,NA,NA
822000,shallow,flow.Sequence,2_15_0,NA,NA,completion,15267,465940,465936,465951,481218,481220,2024-03-27T13:19:45Z,481235,Verstand,ufahamivu,d,shakawa,hadhari,mhandisi,NA,NA,NA,"c(""distractor1"", ""distractor2"", ""distractor3"")",NA,NA,NA,NA,NA,NA,NA,NA,NA,NA,NA,NA,NA,NA,NA,NA,NA,NA,NA
822000,task,flow.Sequence,2_15,NA,NA,completion,15267,465939,465936,465951,481218,481220,2024-03-27T13:19:45Z,481235,Verstand,ufahamivu,d,shakawa,hadhari,mhandisi,NA,NA,NA,"c(""distractor1"", ""distractor2"", ""distractor3"")",NA,NA,NA,NA,NA,NA,NA,NA,NA,NA,NA,NA,NA,NA,NA,NA,NA,NA,NA
822000,retrieval block 2 (multiple choice),flow.Loop,2,NA,NA,completion,176750,304449,304447,304468,481218,481221,2024-03-27T13:19:45Z,481235,NA,NA,NA,NA,NA,NA,NA,NA,NA,"c(""distractor1"", ""distractor2"", ""distractor3"")",NA,NA,NA,NA,NA,NA,NA,NA,NA,NA,NA,NA,NA,NA,NA,NA,NA,NA,NA
822000,End,canvas.Screen,3,NA,keypress(Space),response,2259.0000000001,481222,481218,481235,483477,483450,2024-03-27T13:19:47Z,483469,NA,NA,NA,NA,NA,NA,NA,NA,NA,NULL,NA,NA,NA,NA,NA,NA,NA,NA,NA,NA,NA,NA,NA,NA,NA,NA,NA,NA,NA
822000,root,flow.Sequence,NA,NA,NA,completion,483085,381,383,392,483477,483451,2024-03-27T13:19:47Z,483469,NA,NA,NA,NA,NA,NA,NA,NA,NA,NULL,NA,NA,NA,NA,NA,NA,NA,NA,NA,NA,NA,NA,NA,NA,NA,NA,NA,NA,NA
