observation,sender,sender_type,sender_id,response,response_action,ended_on,duration,time_run,time_render,time_show,time_end,time_commit,timestamp,time_switch,distractors,german,swahili,enc,distractor1,distractor2,distractor3,response_2,x,correct,x_2,url_vp,url_sess,meta_labjs_version,meta_location,meta_user_agent,meta_platform,meta_language,meta_locale,meta_time_zone,meta_timezone_offset,meta_screen_width,meta_screen_height,meta_scroll_width,meta_scroll_height,meta_window_inner_width,meta_window_inner_height,meta_device_pixel_ratio,meta_labjs_build_flavor,meta_labjs_build_commit
e684d,Introduction general,canvas.Screen,0,weiter,keypress(q),response,2198.0219999998,293,297.111,313.778,2511.7999999998,2537.7999999998,2023-07-17T15:52:07Z,2530.489,NULL,NA,NA,NA,NA,NA,NA,NA,NA,NA,NA,129,1,20.2.4,https://neurocog.fernuni.ch/studies/vweber/encoding_immediate/index.html?vp=129&sess=1,"Mozilla/5.0 (Macintosh; Intel Mac OS X 10_15_7) AppleWebKit/537.36 (KHTML, like Gecko) Chrome/114.0.0.0 Safari/537.36",MacIntel,de-DE,de,Europe/Zurich,-120,1440,900,1440,741,1440,789,1,production,f5b4a49f956347addd546a832a3327688c2c0fef
e684d,Introduction practice,canvas.Screen,1_0,NA,keypress(Space),response,13241.511,2538,2513.822,2530.489,15772,15778.9,2023-07-17T15:52:20Z,15797.421,NULL,NA,NA,NA,NA,NA,NA,NA,NA,NA,NA,NA,NA,NA,NA,NA,NA,NA,NA,NA,NA,NA,NA,NA,NA,NA,NA,NA,NA,NA
e684d,deep,flow.Sequence,1_1_0_0,NA,NA,skipped,NA,15779.2,NA,NA,15772,15781.9,2023-07-17T15:52:20Z,15797.421,"c(""distractor1"", ""distractor2"", ""distractor3"")",Kritik,lawama,s,dereva,nafasi,mawazo,NA,NA,NA,NA,NA,NA,NA,NA,NA,NA,NA,NA,NA,NA,NA,NA,NA,NA,NA,NA,NA,NA,NA
e684d,Shallow Question,html.Page,1_1_0_1_0,NA,NA,form submission,17752.679,15782.2,15780.754,15797.421,33550.1,33550.6,2023-07-17T15:52:38Z,33549.145,"c(""distractor1"", ""distractor2"", ""distractor3"")",Kritik,lawama,s,dereva,nafasi,mawazo,nafasi,NA,NA,NA,NA,NA,NA,NA,NA,NA,NA,NA,NA,NA,NA,NA,NA,NA,NA,NA,NA,NA,NA
e684d,"""Richtig""-Screen",canvas.Screen,1_1_0_1_1,NA,NA,skipped,NA,33553.4,NA,NA,33550.1,33553.8,2023-07-17T15:52:38Z,33549.145,"c(""distractor1"", ""distractor2"", ""distractor3"")",Kritik,lawama,s,dereva,nafasi,mawazo,NA,NA,NA,NA,NA,NA,NA,NA,NA,NA,NA,NA,NA,NA,NA,NA,NA,NA,NA,NA,NA,NA,NA
e684d,"""Falsch""-Screen",canvas.Screen,1_1_0_1_2,NA,NA,timeout,5000.1,33555.7,33532.478,33549.145,38532.578,38538.2,2023-07-17T15:52:43Z,38549.245,"c(""distractor1"", ""distractor2"", ""distractor3"")",Kritik,lawama,s,dereva,nafasi,mawazo,NA,NA,0,NA,NA,NA,NA,NA,NA,NA,NA,NA,NA,NA,NA,NA,NA,NA,NA,NA,NA,NA,NA
e684d,shallow,flow.Sequence,1_1_0_1,NA,NA,completion,22735.157,15782.1,15780.754,15797.421,38532.578,38538.6,2023-07-17T15:52:43Z,38549.245,"c(""distractor1"", ""distractor2"", ""distractor3"")",Kritik,lawama,s,dereva,nafasi,mawazo,NA,NA,NA,NA,NA,NA,NA,NA,NA,NA,NA,NA,NA,NA,NA,NA,NA,NA,NA,NA,NA,NA,NA
e684d,task,flow.Sequence,1_1_0,NA,NA,completion,22735.157,15779.1,15780.754,15797.421,38532.578,38538.9,2023-07-17T15:52:43Z,38549.245,"c(""distractor1"", ""distractor2"", ""distractor3"")",Kritik,lawama,s,dereva,nafasi,mawazo,NA,NA,NA,NA,NA,NA,NA,NA,NA,NA,NA,NA,NA,NA,NA,NA,NA,NA,NA,NA,NA,NA,NA
e684d,deep,flow.Sequence,1_1_1_0,NA,NA,skipped,NA,38539.1,NA,NA,38532.578,38539.2,2023-07-17T15:52:43Z,38549.245,"c(""distractor1"", ""distractor2"", ""distractor3"")",Gegenwart,hadhara,s,katiba,jokofu,mikopo,NA,NA,NA,NA,NA,NA,NA,NA,NA,NA,NA,NA,NA,NA,NA,NA,NA,NA,NA,NA,NA,NA,NA
e684d,Shallow Question,html.Page,1_1_1_1_0,NA,NA,form submission,5459.255,38539.5,38532.578,38549.245,44008.5,44008.9,2023-07-17T15:52:49Z,44016.665,"c(""distractor1"", ""distractor2"", ""distractor3"")",Gegenwart,hadhara,s,katiba,jokofu,mikopo,hadhara,NA,NA,NA,NA,NA,NA,NA,NA,NA,NA,NA,NA,NA,NA,NA,NA,NA,NA,NA,NA,NA,NA
e684d,"""Richtig""-Screen",canvas.Screen,1_1_1_1_1,NA,NA,timeout,5000.1,44012.8,43999.998,44016.665,49000.098,49002.3,2023-07-17T15:52:54Z,49016.765,"c(""distractor1"", ""distractor2"", ""distractor3"")",Gegenwart,hadhara,s,katiba,jokofu,mikopo,NA,NA,1,NA,NA,NA,NA,NA,NA,NA,NA,NA,NA,NA,NA,NA,NA,NA,NA,NA,NA,NA,NA
e684d,"""Falsch""-Screen",canvas.Screen,1_1_1_1_2,NA,NA,skipped,NA,49006.1,NA,NA,49000.098,49006.4,2023-07-17T15:52:54Z,49016.765,"c(""distractor1"", ""distractor2"", ""distractor3"")",Gegenwart,hadhara,s,katiba,jokofu,mikopo,NA,NA,NA,NA,NA,NA,NA,NA,NA,NA,NA,NA,NA,NA,NA,NA,NA,NA,NA,NA,NA,NA,NA
e684d,shallow,flow.Sequence,1_1_1_1,NA,NA,completion,10450.853,38539.4,38532.578,38549.245,49000.098,49006.8,2023-07-17T15:52:54Z,49016.765,"c(""distractor1"", ""distractor2"", ""distractor3"")",Gegenwart,hadhara,s,katiba,jokofu,mikopo,NA,NA,NA,NA,NA,NA,NA,NA,NA,NA,NA,NA,NA,NA,NA,NA,NA,NA,NA,NA,NA,NA,NA
e684d,task,flow.Sequence,1_1_1,NA,NA,completion,10450.853,38539,38532.578,38549.245,49000.098,49007.1,2023-07-17T15:52:54Z,49016.765,"c(""distractor1"", ""distractor2"", ""distractor3"")",Gegenwart,hadhara,s,katiba,jokofu,mikopo,NA,NA,NA,NA,NA,NA,NA,NA,NA,NA,NA,NA,NA,NA,NA,NA,NA,NA,NA,NA,NA,NA,NA
e684d,deep,flow.Sequence,1_1_2_0,NA,NA,skipped,NA,49007.3,NA,NA,49000.098,49007.4,2023-07-17T15:52:54Z,49016.765,"c(""distractor1"", ""distractor2"", ""distractor3"")",Rückhalt,msaada,s,muhula,auwali,kiwimbe,NA,NA,NA,NA,NA,NA,NA,NA,NA,NA,NA,NA,NA,NA,NA,NA,NA,NA,NA,NA,NA,NA,NA
e684d,Shallow Question,html.Page,1_1_2_1_0,NA,NA,form submission,6609.1349999999,49007.6,49000.098,49016.765,55625.9,55626.2,2023-07-17T15:53:00Z,55634.049,"c(""distractor1"", ""distractor2"", ""distractor3"")",Rückhalt,msaada,s,muhula,auwali,kiwimbe,kiwimbe,NA,NA,NA,NA,NA,NA,NA,NA,NA,NA,NA,NA,NA,NA,NA,NA,NA,NA,NA,NA,NA,NA
e684d,"""Richtig""-Screen",canvas.Screen,1_1_2_1_1,NA,NA,skipped,NA,55629.6,NA,NA,55625.9,55629.9,2023-07-17T15:53:00Z,55634.049,"c(""distractor1"", ""distractor2"", ""distractor3"")",Rückhalt,msaada,s,muhula,auwali,kiwimbe,NA,NA,NA,NA,NA,NA,NA,NA,NA,NA,NA,NA,NA,NA,NA,NA,NA,NA,NA,NA,NA,NA,NA
e684d,"""Falsch""-Screen",canvas.Screen,1_1_2_1_2,NA,NA,timeout,5000.1,55631.1,55617.382,55634.049,60617.482,60618.3,2023-07-17T15:53:05Z,60634.149,"c(""distractor1"", ""distractor2"", ""distractor3"")",Rückhalt,msaada,s,muhula,auwali,kiwimbe,NA,NA,0,NA,NA,NA,NA,NA,NA,NA,NA,NA,NA,NA,NA,NA,NA,NA,NA,NA,NA,NA,NA
e684d,shallow,flow.Sequence,1_1_2_1,NA,NA,completion,11600.717,49007.5,49000.098,49016.765,60617.482,60618.6,2023-07-17T15:53:05Z,60634.149,"c(""distractor1"", ""distractor2"", ""distractor3"")",Rückhalt,msaada,s,muhula,auwali,kiwimbe,NA,NA,NA,NA,NA,NA,NA,NA,NA,NA,NA,NA,NA,NA,NA,NA,NA,NA,NA,NA,NA,NA,NA
e684d,task,flow.Sequence,1_1_2,NA,NA,completion,11600.717,49007.2,49000.098,49016.765,60617.482,60618.8,2023-07-17T15:53:05Z,60634.149,"c(""distractor1"", ""distractor2"", ""distractor3"")",Rückhalt,msaada,s,muhula,auwali,kiwimbe,NA,NA,NA,NA,NA,NA,NA,NA,NA,NA,NA,NA,NA,NA,NA,NA,NA,NA,NA,NA,NA,NA,NA
e684d,Deep Question,html.Page,1_1_3_0_0,NA,NA,form submission,10793.751,60619.1,60617.482,60634.149,71427.9,71428.2,2023-07-17T15:53:16Z,71435.443,"c(""distractor1"", ""distractor2"", ""distractor3"")",Schatten,kivuli,d,NA,NA,NA,Harare,NA,NA,NA,NA,NA,NA,NA,NA,NA,NA,NA,NA,NA,NA,NA,NA,NA,NA,NA,NA,NA,NA
e684d,"""Richtig""-Screen",canvas.Screen,1_1_3_0_1,NA,NA,skipped,NA,71431.6,NA,NA,71427.9,71431.9,2023-07-17T15:53:16Z,71435.443,"c(""distractor1"", ""distractor2"", ""distractor3"")",Schatten,kivuli,d,NA,NA,NA,NA,NA,NA,NA,NA,NA,NA,NA,NA,NA,NA,NA,NA,NA,NA,NA,NA,NA,NA,NA,NA,NA,NA
e684d,"""Falsch""-Screen",canvas.Screen,1_1_3_0_2,NA,NA,timeout,5000.1,71433.2,71418.776,71435.443,76418.876,76419.7,2023-07-17T15:53:21Z,76435.543,"c(""distractor1"", ""distractor2"", ""distractor3"")",Schatten,kivuli,d,NA,NA,NA,NA,NA,0,NA,NA,NA,NA,NA,NA,NA,NA,NA,NA,NA,NA,NA,NA,NA,NA,NA,NA,NA,NA
e684d,deep,flow.Sequence,1_1_3_0,NA,NA,completion,15784.727,60619.1,60617.482,60634.149,76418.876,76420,2023-07-17T15:53:21Z,76435.543,"c(""distractor1"", ""distractor2"", ""distractor3"")",Schatten,kivuli,d,NA,NA,NA,NA,NA,NA,NA,NA,NA,NA,NA,NA,NA,NA,NA,NA,NA,NA,NA,NA,NA,NA,NA,NA,NA,NA
e684d,shallow,flow.Sequence,1_1_3_1,NA,NA,skipped,NA,76420.2,NA,NA,76418.876,76420.4,2023-07-17T15:53:21Z,76435.543,"c(""distractor1"", ""distractor2"", ""distractor3"")",Schatten,kivuli,d,NA,NA,NA,NA,NA,NA,NA,NA,NA,NA,NA,NA,NA,NA,NA,NA,NA,NA,NA,NA,NA,NA,NA,NA,NA,NA
e684d,task,flow.Sequence,1_1_3,NA,NA,completion,15784.727,60619,60617.482,60634.149,76418.876,76420.6,2023-07-17T15:53:21Z,76435.543,"c(""distractor1"", ""distractor2"", ""distractor3"")",Schatten,kivuli,d,NA,NA,NA,NA,NA,NA,NA,NA,NA,NA,NA,NA,NA,NA,NA,NA,NA,NA,NA,NA,NA,NA,NA,NA,NA,NA
e684d,Deep Question,html.Page,1_1_4_0_0,NA,NA,form submission,5342.5570000001,76420.8,76418.876,76435.543,81778.1,81778.5,2023-07-17T15:53:26Z,81786.191,"c(""distractor1"", ""distractor2"", ""distractor3"")",Gesundheit,salama,d,NA,NA,NA,hatschi,NA,NA,NA,NA,NA,NA,NA,NA,NA,NA,NA,NA,NA,NA,NA,NA,NA,NA,NA,NA,NA,NA
e684d,"""Richtig""-Screen",canvas.Screen,1_1_4_0_1,NA,NA,skipped,NA,81781.8,NA,NA,81778.1,81782.1,2023-07-17T15:53:26Z,81786.191,"c(""distractor1"", ""distractor2"", ""distractor3"")",Gesundheit,salama,d,NA,NA,NA,NA,NA,NA,NA,NA,NA,NA,NA,NA,NA,NA,NA,NA,NA,NA,NA,NA,NA,NA,NA,NA,NA,NA
e684d,"""Falsch""-Screen",canvas.Screen,1_1_4_0_2,NA,NA,timeout,5000.1,81783.5,81769.524,81786.191,86769.624,86774.5,2023-07-17T15:53:31Z,86786.291,"c(""distractor1"", ""distractor2"", ""distractor3"")",Gesundheit,salama,d,NA,NA,NA,NA,NA,0,NA,NA,NA,NA,NA,NA,NA,NA,NA,NA,NA,NA,NA,NA,NA,NA,NA,NA,NA,NA
e684d,deep,flow.Sequence,1_1_4_0,NA,NA,completion,10334.081,76420.7,76418.876,76435.543,86769.624,86774.8,2023-07-17T15:53:31Z,86786.291,"c(""distractor1"", ""distractor2"", ""distractor3"")",Gesundheit,salama,d,NA,NA,NA,NA,NA,NA,NA,NA,NA,NA,NA,NA,NA,NA,NA,NA,NA,NA,NA,NA,NA,NA,NA,NA,NA,NA
e684d,shallow,flow.Sequence,1_1_4_1,NA,NA,skipped,NA,86774.9,NA,NA,86769.624,86775.1,2023-07-17T15:53:31Z,86786.291,"c(""distractor1"", ""distractor2"", ""distractor3"")",Gesundheit,salama,d,NA,NA,NA,NA,NA,NA,NA,NA,NA,NA,NA,NA,NA,NA,NA,NA,NA,NA,NA,NA,NA,NA,NA,NA,NA,NA
e684d,task,flow.Sequence,1_1_4,NA,NA,completion,10334.081,76420.7,76418.876,76435.543,86769.624,86775.3,2023-07-17T15:53:31Z,86786.291,"c(""distractor1"", ""distractor2"", ""distractor3"")",Gesundheit,salama,d,NA,NA,NA,NA,NA,NA,NA,NA,NA,NA,NA,NA,NA,NA,NA,NA,NA,NA,NA,NA,NA,NA,NA,NA,NA,NA
e684d,Deep Question,html.Page,1_1_5_0_0,NA,NA,form submission,8757.5089999998,86775.5,86769.624,86786.291,95543.8,95544,2023-07-17T15:53:40Z,95553.529,"c(""distractor1"", ""distractor2"", ""distractor3"")",Qualität,mtindo,d,NA,NA,NA,qualiti,NA,NA,NA,NA,NA,NA,NA,NA,NA,NA,NA,NA,NA,NA,NA,NA,NA,NA,NA,NA,NA,NA
e684d,"""Richtig""-Screen",canvas.Screen,1_1_5_0_1,NA,NA,skipped,NA,95545.7,NA,NA,95543.8,95545.8,2023-07-17T15:53:40Z,95553.529,"c(""distractor1"", ""distractor2"", ""distractor3"")",Qualität,mtindo,d,NA,NA,NA,NA,NA,NA,NA,NA,NA,NA,NA,NA,NA,NA,NA,NA,NA,NA,NA,NA,NA,NA,NA,NA,NA,NA
e684d,"""Falsch""-Screen",canvas.Screen,1_1_5_0_2,NA,NA,timeout,5000.1,95546.5,95536.862,95553.529,100536.962,100539.3,2023-07-17T15:53:45Z,100553.629,"c(""distractor1"", ""distractor2"", ""distractor3"")",Qualität,mtindo,d,NA,NA,NA,NA,NA,0,NA,NA,NA,NA,NA,NA,NA,NA,NA,NA,NA,NA,NA,NA,NA,NA,NA,NA,NA,NA
e684d,deep,flow.Sequence,1_1_5_0,NA,NA,completion,13750.671,86775.4,86769.624,86786.291,100536.962,100539.6,2023-07-17T15:53:45Z,100553.629,"c(""distractor1"", ""distractor2"", ""distractor3"")",Qualität,mtindo,d,NA,NA,NA,NA,NA,NA,NA,NA,NA,NA,NA,NA,NA,NA,NA,NA,NA,NA,NA,NA,NA,NA,NA,NA,NA,NA
e684d,shallow,flow.Sequence,1_1_5_1,NA,NA,skipped,NA,100539.7,NA,NA,100536.962,100539.8,2023-07-17T15:53:45Z,100553.629,"c(""distractor1"", ""distractor2"", ""distractor3"")",Qualität,mtindo,d,NA,NA,NA,NA,NA,NA,NA,NA,NA,NA,NA,NA,NA,NA,NA,NA,NA,NA,NA,NA,NA,NA,NA,NA,NA,NA
e684d,task,flow.Sequence,1_1_5,NA,NA,completion,13750.671,86775.4,86769.624,86786.291,100536.962,100540,2023-07-17T15:53:45Z,100553.629,"c(""distractor1"", ""distractor2"", ""distractor3"")",Qualität,mtindo,d,NA,NA,NA,NA,NA,NA,NA,NA,NA,NA,NA,NA,NA,NA,NA,NA,NA,NA,NA,NA,NA,NA,NA,NA,NA,NA
e684d,block,flow.Loop,1_1,NA,NA,completion,84739.541,15779.1,15780.754,15797.421,100536.962,100540.3,2023-07-17T15:53:45Z,100553.629,"c(""distractor1"", ""distractor2"", ""distractor3"")",NA,NA,NA,NA,NA,NA,NA,NA,NA,NA,NA,NA,NA,NA,NA,NA,NA,NA,NA,NA,NA,NA,NA,NA,NA,NA,NA,NA,NA
e684d,Practice,flow.Sequence,1,NA,NA,completion,98006.473,2538,2513.822,2530.489,100536.962,100540.5,2023-07-17T15:53:45Z,100553.629,NULL,NA,NA,NA,NA,NA,NA,NA,NA,NA,NA,NA,NA,NA,NA,NA,NA,NA,NA,NA,NA,NA,NA,NA,NA,NA,NA,NA,NA,NA
e684d,Experiment start,canvas.Screen,2,weiter,keypress(q),response,13048.371,100540.6,100536.962,100553.629,113602,113609.8,2023-07-17T15:53:58Z,113703.892,NULL,NA,NA,NA,NA,NA,NA,NA,NA,NA,NA,NA,NA,NA,NA,NA,NA,NA,NA,NA,NA,NA,NA,NA,NA,NA,NA,NA,NA,NA
e684d,Deep Question,html.Page,3_0_0_0_0_0_0,NA,NA,form submission,6610.4079999998,113699.1,113687.225,113703.892,120314.3,120314.7,2023-07-17T15:54:05Z,120321.865,NULL,Wohlstand,mafanikio,d,NA,NA,NA,buni,NA,NA,0,NA,NA,NA,NA,NA,NA,NA,NA,NA,NA,NA,NA,NA,NA,NA,NA,NA,NA,NA
e684d,"""Richtig""-Screen",canvas.Screen,3_0_0_0_0_0_1,NA,NA,skipped,NA,120317.7,NA,NA,120314.3,120318,2023-07-17T15:54:05Z,120321.865,NULL,Wohlstand,mafanikio,d,NA,NA,NA,NA,sdf,NA,0,NA,NA,NA,NA,NA,NA,NA,NA,NA,NA,NA,NA,NA,NA,NA,NA,NA,NA,NA
e684d,"""Falsch""-Screen",canvas.Screen,3_0_0_0_0_0_2,NA,NA,timeout,5000.1,120319,120305.198,120321.865,125305.298,125309,2023-07-17T15:54:10Z,125321.965,NULL,Wohlstand,mafanikio,d,NA,NA,NA,NA,sdf,0,0,NA,NA,NA,NA,NA,NA,NA,NA,NA,NA,NA,NA,NA,NA,NA,NA,NA,NA,NA
e684d,deep,flow.Sequence,3_0_0_0_0_0,NA,NA,completion,11601.406,113699.1,113687.225,113703.892,125305.298,125309.2,2023-07-17T15:54:10Z,125321.965,NULL,Wohlstand,mafanikio,d,NA,NA,NA,NA,sdf,NA,0,NA,NA,NA,NA,NA,NA,NA,NA,NA,NA,NA,NA,NA,NA,NA,NA,NA,NA,NA
e684d,shallow,flow.Sequence,3_0_0_0_0_1,NA,NA,skipped,NA,125309.4,NA,NA,125305.298,125309.4,2023-07-17T15:54:10Z,125321.965,NULL,Wohlstand,mafanikio,d,NA,NA,NA,NA,sdf,NA,0,NA,NA,NA,NA,NA,NA,NA,NA,NA,NA,NA,NA,NA,NA,NA,NA,NA,NA,NA
e684d,task,flow.Sequence,3_0_0_0_0,NA,NA,completion,11601.406,113699.1,113687.225,113703.892,125305.298,125309.7,2023-07-17T15:54:10Z,125321.965,NULL,Wohlstand,mafanikio,d,NA,NA,NA,NA,sdf,NA,0,NA,NA,NA,NA,NA,NA,NA,NA,NA,NA,NA,NA,NA,NA,NA,NA,NA,NA,NA
e684d,deep,flow.Sequence,3_0_0_0_1_0,NA,NA,skipped,NA,125309.7,NA,NA,125305.298,125309.8,2023-07-17T15:54:10Z,125321.965,NULL,Orientierung,urekebisho,s,uelekeo,marekebisho,utunzaji,NA,sdf,NA,0,NA,NA,NA,NA,NA,NA,NA,NA,NA,NA,NA,NA,NA,NA,NA,NA,NA,NA,NA
e684d,Shallow Question,html.Page,3_0_0_0_1_1_0,NA,NA,form submission,12793.435,125310,125305.298,125321.965,138115.4,138115.8,2023-07-17T15:54:23Z,138123.306,NULL,Orientierung,urekebisho,s,uelekeo,marekebisho,utunzaji,uelekeo,NA,NA,0,NA,NA,NA,NA,NA,NA,NA,NA,NA,NA,NA,NA,NA,NA,NA,NA,NA,NA,NA
e684d,"""Richtig""-Screen",canvas.Screen,3_0_0_0_1_1_1,NA,NA,skipped,NA,138119.1,NA,NA,138115.4,138119.4,2023-07-17T15:54:23Z,138123.306,NULL,Orientierung,urekebisho,s,uelekeo,marekebisho,utunzaji,NA,sdf,NA,0,NA,NA,NA,NA,NA,NA,NA,NA,NA,NA,NA,NA,NA,NA,NA,NA,NA,NA,NA
e684d,"""Falsch""-Screen",canvas.Screen,3_0_0_0_1_1_2,NA,NA,timeout,5000.1,138120.6,138106.639,138123.306,143106.739,143110.6,2023-07-17T15:54:28Z,143123.406,NULL,Orientierung,urekebisho,s,uelekeo,marekebisho,utunzaji,NA,sdf,0,0,NA,NA,NA,NA,NA,NA,NA,NA,NA,NA,NA,NA,NA,NA,NA,NA,NA,NA,NA
e684d,shallow,flow.Sequence,3_0_0_0_1_1,NA,NA,completion,17784.774,125309.9,125305.298,125321.965,143106.739,143110.8,2023-07-17T15:54:28Z,143123.406,NULL,Orientierung,urekebisho,s,uelekeo,marekebisho,utunzaji,NA,sdf,NA,0,NA,NA,NA,NA,NA,NA,NA,NA,NA,NA,NA,NA,NA,NA,NA,NA,NA,NA,NA
e684d,task,flow.Sequence,3_0_0_0_1,NA,NA,completion,17784.774,125309.7,125305.298,125321.965,143106.739,143111.1,2023-07-17T15:54:28Z,143123.406,NULL,Orientierung,urekebisho,s,uelekeo,marekebisho,utunzaji,NA,sdf,NA,0,NA,NA,NA,NA,NA,NA,NA,NA,NA,NA,NA,NA,NA,NA,NA,NA,NA,NA,NA
e684d,Deep Question,html.Page,3_0_0_0_2_0_0,NA,NA,form submission,4092.594,143111.3,143106.739,143123.406,147216,147216.3,2023-07-17T15:54:32Z,147223.992,NULL,Betrüger,mdanganyifu,d,NA,NA,NA,falsi,NA,NA,0,NA,NA,NA,NA,NA,NA,NA,NA,NA,NA,NA,NA,NA,NA,NA,NA,NA,NA,NA
e684d,"""Richtig""-Screen",canvas.Screen,3_0_0_0_2_0_1,NA,NA,skipped,NA,147219.4,NA,NA,147216,147219.7,2023-07-17T15:54:32Z,147223.992,NULL,Betrüger,mdanganyifu,d,NA,NA,NA,NA,sdf,NA,0,NA,NA,NA,NA,NA,NA,NA,NA,NA,NA,NA,NA,NA,NA,NA,NA,NA,NA,NA
e684d,"""Falsch""-Screen",canvas.Screen,3_0_0_0_2_0_2,NA,NA,timeout,5000.1,147221.2,147207.325,147223.992,152207.425,152209.4,2023-07-17T15:54:37Z,152224.092,NULL,Betrüger,mdanganyifu,d,NA,NA,NA,NA,sdf,0,0,NA,NA,NA,NA,NA,NA,NA,NA,NA,NA,NA,NA,NA,NA,NA,NA,NA,NA,NA
e684d,deep,flow.Sequence,3_0_0_0_2_0,NA,NA,completion,9084.019,143111.2,143106.739,143123.406,152207.425,152209.6,2023-07-17T15:54:37Z,152224.092,NULL,Betrüger,mdanganyifu,d,NA,NA,NA,NA,sdf,NA,0,NA,NA,NA,NA,NA,NA,NA,NA,NA,NA,NA,NA,NA,NA,NA,NA,NA,NA,NA
e684d,shallow,flow.Sequence,3_0_0_0_2_1,NA,NA,skipped,NA,152209.7,NA,NA,152207.425,152209.9,2023-07-17T15:54:37Z,152224.092,NULL,Betrüger,mdanganyifu,d,NA,NA,NA,NA,sdf,NA,0,NA,NA,NA,NA,NA,NA,NA,NA,NA,NA,NA,NA,NA,NA,NA,NA,NA,NA,NA
e684d,task,flow.Sequence,3_0_0_0_2,NA,NA,completion,9084.019,143111.1,143106.739,143123.406,152207.425,152210,2023-07-17T15:54:37Z,152224.092,NULL,Betrüger,mdanganyifu,d,NA,NA,NA,NA,sdf,NA,0,NA,NA,NA,NA,NA,NA,NA,NA,NA,NA,NA,NA,NA,NA,NA,NA,NA,NA,NA
e684d,Deep Question,html.Page,3_0_0_0_3_0_0,NA,NA,form submission,4641.7079999998,152210.2,152207.425,152224.092,156865.8,156866.1,2023-07-17T15:54:41Z,156874.684,NULL,Ergänzung,kijalizo,d,NA,NA,NA,etci,NA,NA,0,NA,NA,NA,NA,NA,NA,NA,NA,NA,NA,NA,NA,NA,NA,NA,NA,NA,NA,NA
e684d,"""Richtig""-Screen",canvas.Screen,3_0_0_0_3_0_1,NA,NA,skipped,NA,156869.2,NA,NA,156865.8,156869.5,2023-07-17T15:54:41Z,156874.684,NULL,Ergänzung,kijalizo,d,NA,NA,NA,NA,sdf,NA,0,NA,NA,NA,NA,NA,NA,NA,NA,NA,NA,NA,NA,NA,NA,NA,NA,NA,NA,NA
e684d,"""Falsch""-Screen",canvas.Screen,3_0_0_0_3_0_2,NA,NA,timeout,5000.1,156871.2,156858.017,156874.684,161858.117,161863.1,2023-07-17T15:54:46Z,161874.784,NULL,Ergänzung,kijalizo,d,NA,NA,NA,NA,sdf,0,0,NA,NA,NA,NA,NA,NA,NA,NA,NA,NA,NA,NA,NA,NA,NA,NA,NA,NA,NA
e684d,deep,flow.Sequence,3_0_0_0_3_0,NA,NA,completion,9634.025,152210.1,152207.425,152224.092,161858.117,161863.5,2023-07-17T15:54:46Z,161874.784,NULL,Ergänzung,kijalizo,d,NA,NA,NA,NA,sdf,NA,0,NA,NA,NA,NA,NA,NA,NA,NA,NA,NA,NA,NA,NA,NA,NA,NA,NA,NA,NA
e684d,shallow,flow.Sequence,3_0_0_0_3_1,NA,NA,skipped,NA,161863.7,NA,NA,161858.117,161863.7,2023-07-17T15:54:46Z,161874.784,NULL,Ergänzung,kijalizo,d,NA,NA,NA,NA,sdf,NA,0,NA,NA,NA,NA,NA,NA,NA,NA,NA,NA,NA,NA,NA,NA,NA,NA,NA,NA,NA
e684d,task,flow.Sequence,3_0_0_0_3,NA,NA,completion,9634.025,152210.1,152207.425,152224.092,161858.117,161864,2023-07-17T15:54:46Z,161874.784,NULL,Ergänzung,kijalizo,d,NA,NA,NA,NA,sdf,NA,0,NA,NA,NA,NA,NA,NA,NA,NA,NA,NA,NA,NA,NA,NA,NA,NA,NA,NA,NA
e684d,deep,flow.Sequence,3_0_0_0_4_0,NA,NA,skipped,NA,161864.1,NA,NA,161858.117,161864.2,2023-07-17T15:54:46Z,161874.784,NULL,Notfall,dharura,s,rairai,malalamiko,ahueni,NA,sdf,NA,0,NA,NA,NA,NA,NA,NA,NA,NA,NA,NA,NA,NA,NA,NA,NA,NA,NA,NA,NA
e684d,Shallow Question,html.Page,3_0_0_0_4_1_0,NA,NA,form submission,8892.216,161864.3,161858.117,161874.784,170767,170767.3,2023-07-17T15:54:55Z,170774.962,NULL,Notfall,dharura,s,rairai,malalamiko,ahueni,rairai,NA,NA,0,NA,NA,NA,NA,NA,NA,NA,NA,NA,NA,NA,NA,NA,NA,NA,NA,NA,NA,NA
e684d,"""Richtig""-Screen",canvas.Screen,3_0_0_0_4_1_1,NA,NA,skipped,NA,170771.3,NA,NA,170767,170771.5,2023-07-17T15:54:55Z,170774.962,NULL,Notfall,dharura,s,rairai,malalamiko,ahueni,NA,sdf,NA,0,NA,NA,NA,NA,NA,NA,NA,NA,NA,NA,NA,NA,NA,NA,NA,NA,NA,NA,NA
e684d,"""Falsch""-Screen",canvas.Screen,3_0_0_0_4_1_2,NA,NA,timeout,5000.1,170772.6,170758.295,170774.962,175758.395,175764.2,2023-07-17T15:55:00Z,175775.062,NULL,Notfall,dharura,s,rairai,malalamiko,ahueni,NA,sdf,0,0,NA,NA,NA,NA,NA,NA,NA,NA,NA,NA,NA,NA,NA,NA,NA,NA,NA,NA,NA
e684d,shallow,flow.Sequence,3_0_0_0_4_1,NA,NA,completion,13883.611,161864.3,161858.117,161874.784,175758.395,175764.6,2023-07-17T15:55:00Z,175775.062,NULL,Notfall,dharura,s,rairai,malalamiko,ahueni,NA,sdf,NA,0,NA,NA,NA,NA,NA,NA,NA,NA,NA,NA,NA,NA,NA,NA,NA,NA,NA,NA,NA
e684d,task,flow.Sequence,3_0_0_0_4,NA,NA,completion,13883.611,161864.1,161858.117,161874.784,175758.395,175765,2023-07-17T15:55:00Z,175775.062,NULL,Notfall,dharura,s,rairai,malalamiko,ahueni,NA,sdf,NA,0,NA,NA,NA,NA,NA,NA,NA,NA,NA,NA,NA,NA,NA,NA,NA,NA,NA,NA,NA
e684d,Deep Question,html.Page,3_0_0_0_5_0_0,NA,NA,form submission,4242.938,175765.2,175758.395,175775.062,180018,180018.3,2023-07-17T15:55:05Z,180026.149,NULL,Stimmung,kinyongo,d,NA,NA,NA,meli,NA,NA,0,NA,NA,NA,NA,NA,NA,NA,NA,NA,NA,NA,NA,NA,NA,NA,NA,NA,NA,NA
e684d,"""Richtig""-Screen",canvas.Screen,3_0_0_0_5_0_1,NA,NA,skipped,NA,180021.9,NA,NA,180018,180022.4,2023-07-17T15:55:05Z,180026.149,NULL,Stimmung,kinyongo,d,NA,NA,NA,NA,sdf,NA,0,NA,NA,NA,NA,NA,NA,NA,NA,NA,NA,NA,NA,NA,NA,NA,NA,NA,NA,NA
e684d,"""Falsch""-Screen",canvas.Screen,3_0_0_0_5_0_2,NA,NA,timeout,5000.1,180023.8,180009.482,180026.149,185009.582,185013.3,2023-07-17T15:55:10Z,185026.249,NULL,Stimmung,kinyongo,d,NA,NA,NA,NA,sdf,0,0,NA,NA,NA,NA,NA,NA,NA,NA,NA,NA,NA,NA,NA,NA,NA,NA,NA,NA,NA
e684d,deep,flow.Sequence,3_0_0_0_5_0,NA,NA,completion,9234.52,175765.1,175758.395,175775.062,185009.582,185013.6,2023-07-17T15:55:10Z,185026.249,NULL,Stimmung,kinyongo,d,NA,NA,NA,NA,sdf,NA,0,NA,NA,NA,NA,NA,NA,NA,NA,NA,NA,NA,NA,NA,NA,NA,NA,NA,NA,NA
e684d,shallow,flow.Sequence,3_0_0_0_5_1,NA,NA,skipped,NA,185013.8,NA,NA,185009.582,185013.9,2023-07-17T15:55:10Z,185026.249,NULL,Stimmung,kinyongo,d,NA,NA,NA,NA,sdf,NA,0,NA,NA,NA,NA,NA,NA,NA,NA,NA,NA,NA,NA,NA,NA,NA,NA,NA,NA,NA
e684d,task,flow.Sequence,3_0_0_0_5,NA,NA,completion,9234.52,175765.1,175758.395,175775.062,185009.582,185014.2,2023-07-17T15:55:10Z,185026.249,NULL,Stimmung,kinyongo,d,NA,NA,NA,NA,sdf,NA,0,NA,NA,NA,NA,NA,NA,NA,NA,NA,NA,NA,NA,NA,NA,NA,NA,NA,NA,NA
e684d,deep,flow.Sequence,3_0_0_0_6_0,NA,NA,skipped,NA,185014.3,NA,NA,185009.582,185014.4,2023-07-17T15:55:10Z,185026.249,NULL,Vergnügen,kichekesho,s,dubwana,mpanuko,mtesaji,NA,sdf,NA,0,NA,NA,NA,NA,NA,NA,NA,NA,NA,NA,NA,NA,NA,NA,NA,NA,NA,NA,NA
e684d,Shallow Question,html.Page,3_0_0_0_6_1_0,NA,NA,form submission,5326.1509999999,185014.5,185009.582,185026.249,190352.4,190352.7,2023-07-17T15:55:15Z,190360.183,NULL,Vergnügen,kichekesho,s,dubwana,mpanuko,mtesaji,kichekesho,NA,NA,0,NA,NA,NA,NA,NA,NA,NA,NA,NA,NA,NA,NA,NA,NA,NA,NA,NA,NA,NA
e684d,"""Richtig""-Screen",canvas.Screen,3_0_0_0_6_1_1,NA,NA,timeout,5000.1,190356.3,190343.516,190360.183,195343.616,195346.2,2023-07-17T15:55:20Z,195360.283,NULL,Vergnügen,kichekesho,s,dubwana,mpanuko,mtesaji,NA,sdf,1,0,NA,NA,NA,NA,NA,NA,NA,NA,NA,NA,NA,NA,NA,NA,NA,NA,NA,NA,NA
e684d,"""Falsch""-Screen",canvas.Screen,3_0_0_0_6_1_2,NA,NA,skipped,NA,195349.5,NA,NA,195343.616,195349.6,2023-07-17T15:55:20Z,195360.283,NULL,Vergnügen,kichekesho,s,dubwana,mpanuko,mtesaji,NA,sdf,NA,0,NA,NA,NA,NA,NA,NA,NA,NA,NA,NA,NA,NA,NA,NA,NA,NA,NA,NA,NA
e684d,shallow,flow.Sequence,3_0_0_0_6_1,NA,NA,completion,10317.367,185014.5,185009.582,185026.249,195343.616,195349.9,2023-07-17T15:55:20Z,195360.283,NULL,Vergnügen,kichekesho,s,dubwana,mpanuko,mtesaji,NA,sdf,NA,0,NA,NA,NA,NA,NA,NA,NA,NA,NA,NA,NA,NA,NA,NA,NA,NA,NA,NA,NA
e684d,task,flow.Sequence,3_0_0_0_6,NA,NA,completion,10317.367,185014.2,185009.582,185026.249,195343.616,195350.1,2023-07-17T15:55:20Z,195360.283,NULL,Vergnügen,kichekesho,s,dubwana,mpanuko,mtesaji,NA,sdf,NA,0,NA,NA,NA,NA,NA,NA,NA,NA,NA,NA,NA,NA,NA,NA,NA,NA,NA,NA,NA
e684d,deep,flow.Sequence,3_0_0_0_7_0,NA,NA,skipped,NA,195350.2,NA,NA,195343.616,195350.3,2023-07-17T15:55:20Z,195360.283,NULL,Respekt,heshima,s,changamnao,upinzani,ufanisi,NA,sdf,NA,0,NA,NA,NA,NA,NA,NA,NA,NA,NA,NA,NA,NA,NA,NA,NA,NA,NA,NA,NA
e684d,Shallow Question,html.Page,3_0_0_0_7_1_0,NA,NA,form submission,7625.9169999997,195350.5,195343.616,195360.283,202986.2,202986.8,2023-07-17T15:55:28Z,202993.769,NULL,Respekt,heshima,s,changamnao,upinzani,ufanisi,heshima,NA,NA,0,NA,NA,NA,NA,NA,NA,NA,NA,NA,NA,NA,NA,NA,NA,NA,NA,NA,NA,NA
e684d,"""Richtig""-Screen",canvas.Screen,3_0_0_0_7_1_1,NA,NA,timeout,5000.1,202990.4,202977.102,202993.769,207977.202,207978.2,2023-07-17T15:55:33Z,207993.869,NULL,Respekt,heshima,s,changamnao,upinzani,ufanisi,NA,sdf,1,0,NA,NA,NA,NA,NA,NA,NA,NA,NA,NA,NA,NA,NA,NA,NA,NA,NA,NA,NA
e684d,"""Falsch""-Screen",canvas.Screen,3_0_0_0_7_1_2,NA,NA,skipped,NA,207980.7,NA,NA,207977.202,207980.8,2023-07-17T15:55:33Z,207993.869,NULL,Respekt,heshima,s,changamnao,upinzani,ufanisi,NA,sdf,NA,0,NA,NA,NA,NA,NA,NA,NA,NA,NA,NA,NA,NA,NA,NA,NA,NA,NA,NA,NA
e684d,shallow,flow.Sequence,3_0_0_0_7_1,NA,NA,completion,12616.919,195350.4,195343.616,195360.283,207977.202,207980.9,2023-07-17T15:55:33Z,207993.869,NULL,Respekt,heshima,s,changamnao,upinzani,ufanisi,NA,sdf,NA,0,NA,NA,NA,NA,NA,NA,NA,NA,NA,NA,NA,NA,NA,NA,NA,NA,NA,NA,NA
e684d,task,flow.Sequence,3_0_0_0_7,NA,NA,completion,12616.919,195350.2,195343.616,195360.283,207977.202,207981.1,2023-07-17T15:55:33Z,207993.869,NULL,Respekt,heshima,s,changamnao,upinzani,ufanisi,NA,sdf,NA,0,NA,NA,NA,NA,NA,NA,NA,NA,NA,NA,NA,NA,NA,NA,NA,NA,NA,NA,NA
e684d,block,flow.Loop,3_0_0_0,NA,NA,completion,94273.31,113699.1,113687.225,113703.892,207977.202,207981.1,2023-07-17T15:55:33Z,207993.869,NULL,NA,NA,NA,NA,NA,NA,NA,sdf,NA,0,NA,NA,NA,NA,NA,NA,NA,NA,NA,NA,NA,NA,NA,NA,NA,NA,NA,NA,NA
e684d,weiter,canvas.Screen,3_0_0_1,sdf,keypress(Space),response,1335.0309999999,207981.2,207977.202,207993.869,209328.9,209335.6,2023-07-17T15:55:34Z,209361.583,NULL,NA,NA,NA,NA,NA,NA,NA,sdf,NA,0,NA,NA,NA,NA,NA,NA,NA,NA,NA,NA,NA,NA,NA,NA,NA,NA,NA,NA,NA
e684d,check continue,flow.Sequence,3_0_0,NA,NA,completion,95625.008,113699,113687.225,113703.892,209328.9,209335.9,2023-07-17T15:55:34Z,209361.583,NULL,NA,NA,NA,NA,NA,NA,NA,sdf,NA,0,NA,NA,NA,NA,NA,NA,NA,NA,NA,NA,NA,NA,NA,NA,NA,NA,NA,NA,NA
e684d,Deep Question,html.Page,3_0_1_0_0_0_0,NA,NA,form submission,10475.617,209367.8,209328.249,209361.583,219837.2,219837.6,2023-07-17T15:55:44Z,219845.633,NULL,Wohlstand,mafanikio,d,NA,NA,NA,mhzama,NA,NA,1,NA,NA,NA,NA,NA,NA,NA,NA,NA,NA,NA,NA,NA,NA,NA,NA,NA,NA,NA
e684d,"""Richtig""-Screen",canvas.Screen,3_0_1_0_0_0_1,NA,NA,skipped,NA,219840.9,NA,NA,219837.2,219841.2,2023-07-17T15:55:44Z,219845.633,NULL,Wohlstand,mafanikio,d,NA,NA,NA,NA,sdfdsf,NA,1,NA,NA,NA,NA,NA,NA,NA,NA,NA,NA,NA,NA,NA,NA,NA,NA,NA,NA,NA
e684d,"""Falsch""-Screen",canvas.Screen,3_0_1_0_0_0_2,NA,NA,timeout,5000.1,219842.5,219828.966,219845.633,224829.066,224833.5,2023-07-17T15:55:49Z,224845.733,NULL,Wohlstand,mafanikio,d,NA,NA,NA,NA,sdfdsf,0,1,NA,NA,NA,NA,NA,NA,NA,NA,NA,NA,NA,NA,NA,NA,NA,NA,NA,NA,NA
e684d,deep,flow.Sequence,3_0_1_0_0_0,NA,NA,completion,15467.483,209367.8,209328.249,209361.583,224829.066,224833.8,2023-07-17T15:55:49Z,224845.733,NULL,Wohlstand,mafanikio,d,NA,NA,NA,NA,sdfdsf,NA,1,NA,NA,NA,NA,NA,NA,NA,NA,NA,NA,NA,NA,NA,NA,NA,NA,NA,NA,NA
e684d,shallow,flow.Sequence,3_0_1_0_0_1,NA,NA,skipped,NA,224834,NA,NA,224829.066,224834.1,2023-07-17T15:55:49Z,224845.733,NULL,Wohlstand,mafanikio,d,NA,NA,NA,NA,sdfdsf,NA,1,NA,NA,NA,NA,NA,NA,NA,NA,NA,NA,NA,NA,NA,NA,NA,NA,NA,NA,NA
e684d,task,flow.Sequence,3_0_1_0_0,NA,NA,completion,15467.483,209367.8,209328.249,209361.583,224829.066,224834.3,2023-07-17T15:55:49Z,224845.733,NULL,Wohlstand,mafanikio,d,NA,NA,NA,NA,sdfdsf,NA,1,NA,NA,NA,NA,NA,NA,NA,NA,NA,NA,NA,NA,NA,NA,NA,NA,NA,NA,NA
e684d,deep,flow.Sequence,3_0_1_0_1_0,NA,NA,skipped,NA,224834.4,NA,NA,224829.066,224834.5,2023-07-17T15:55:49Z,224845.733,NULL,Orientierung,urekebisho,s,uelekeo,marekebisho,utunzaji,NA,sdfdsf,NA,1,NA,NA,NA,NA,NA,NA,NA,NA,NA,NA,NA,NA,NA,NA,NA,NA,NA,NA,NA
e684d,Shallow Question,html.Page,3_0_1_0_1_1_0,NA,NA,form submission,3825.9669999997,224834.7,224829.066,224845.733,228671.7,228672,2023-07-17T15:55:53Z,228679.558,NULL,Orientierung,urekebisho,s,uelekeo,marekebisho,utunzaji,urekebisho,NA,NA,1,NA,NA,NA,NA,NA,NA,NA,NA,NA,NA,NA,NA,NA,NA,NA,NA,NA,NA,NA
e684d,"""Richtig""-Screen",canvas.Screen,3_0_1_0_1_1_1,NA,NA,timeout,5000.1,228675.2,228662.891,228679.558,233662.991,233665.2,2023-07-17T15:55:58Z,233679.658,NULL,Orientierung,urekebisho,s,uelekeo,marekebisho,utunzaji,NA,sdfdsf,1,1,NA,NA,NA,NA,NA,NA,NA,NA,NA,NA,NA,NA,NA,NA,NA,NA,NA,NA,NA
e684d,"""Falsch""-Screen",canvas.Screen,3_0_1_0_1_1_2,NA,NA,skipped,NA,233668.6,NA,NA,233662.991,233668.8,2023-07-17T15:55:58Z,233679.658,NULL,Orientierung,urekebisho,s,uelekeo,marekebisho,utunzaji,NA,sdfdsf,NA,1,NA,NA,NA,NA,NA,NA,NA,NA,NA,NA,NA,NA,NA,NA,NA,NA,NA,NA,NA
e684d,shallow,flow.Sequence,3_0_1_0_1_1,NA,NA,completion,8817.258,224834.7,224829.066,224845.733,233662.991,233669.1,2023-07-17T15:55:58Z,233679.658,NULL,Orientierung,urekebisho,s,uelekeo,marekebisho,utunzaji,NA,sdfdsf,NA,1,NA,NA,NA,NA,NA,NA,NA,NA,NA,NA,NA,NA,NA,NA,NA,NA,NA,NA,NA
e684d,task,flow.Sequence,3_0_1_0_1,NA,NA,completion,8817.258,224834.4,224829.066,224845.733,233662.991,233669.2,2023-07-17T15:55:58Z,233679.658,NULL,Orientierung,urekebisho,s,uelekeo,marekebisho,utunzaji,NA,sdfdsf,NA,1,NA,NA,NA,NA,NA,NA,NA,NA,NA,NA,NA,NA,NA,NA,NA,NA,NA,NA,NA
e684d,Deep Question,html.Page,3_0_1_0_2_0_0,NA,NA,form submission,8158.842,233669.5,233662.991,233679.658,241838.5,241838.9,2023-07-17T15:56:06Z,241847.091,NULL,Stimmung,kinyongo,d,NA,NA,NA,mheke,NA,NA,1,NA,NA,NA,NA,NA,NA,NA,NA,NA,NA,NA,NA,NA,NA,NA,NA,NA,NA,NA
e684d,"""Richtig""-Screen",canvas.Screen,3_0_1_0_2_0_1,NA,NA,skipped,NA,241842.1,NA,NA,241838.5,241842.5,2023-07-17T15:56:06Z,241847.091,NULL,Stimmung,kinyongo,d,NA,NA,NA,NA,sdfdsf,NA,1,NA,NA,NA,NA,NA,NA,NA,NA,NA,NA,NA,NA,NA,NA,NA,NA,NA,NA,NA
e684d,"""Falsch""-Screen",canvas.Screen,3_0_1_0_2_0_2,NA,NA,timeout,5000.1,241844.1,241830.424,241847.091,246830.524,246833.2,2023-07-17T15:56:11Z,246847.191,NULL,Stimmung,kinyongo,d,NA,NA,NA,NA,sdfdsf,0,1,NA,NA,NA,NA,NA,NA,NA,NA,NA,NA,NA,NA,NA,NA,NA,NA,NA,NA,NA
e684d,deep,flow.Sequence,3_0_1_0_2_0,NA,NA,completion,13150.866,233669.4,233662.991,233679.658,246830.524,246833.4,2023-07-17T15:56:11Z,246847.191,NULL,Stimmung,kinyongo,d,NA,NA,NA,NA,sdfdsf,NA,1,NA,NA,NA,NA,NA,NA,NA,NA,NA,NA,NA,NA,NA,NA,NA,NA,NA,NA,NA
e684d,shallow,flow.Sequence,3_0_1_0_2_1,NA,NA,skipped,NA,246833.6,NA,NA,246830.524,246833.7,2023-07-17T15:56:11Z,246847.191,NULL,Stimmung,kinyongo,d,NA,NA,NA,NA,sdfdsf,NA,1,NA,NA,NA,NA,NA,NA,NA,NA,NA,NA,NA,NA,NA,NA,NA,NA,NA,NA,NA
e684d,task,flow.Sequence,3_0_1_0_2,NA,NA,completion,13150.866,233669.3,233662.991,233679.658,246830.524,246833.9,2023-07-17T15:56:11Z,246847.191,NULL,Stimmung,kinyongo,d,NA,NA,NA,NA,sdfdsf,NA,1,NA,NA,NA,NA,NA,NA,NA,NA,NA,NA,NA,NA,NA,NA,NA,NA,NA,NA,NA
e684d,deep,flow.Sequence,3_0_1_0_3_0,NA,NA,skipped,NA,246834,NA,NA,246830.524,246834.1,2023-07-17T15:56:11Z,246847.191,NULL,Notfall,dharura,s,rairai,malalamiko,ahueni,NA,sdfdsf,NA,1,NA,NA,NA,NA,NA,NA,NA,NA,NA,NA,NA,NA,NA,NA,NA,NA,NA,NA,NA
e684d,Shallow Question,html.Page,3_0_1_0_3_1_0,NA,NA,form submission,3692.1089999998,246834.2,246830.524,246847.191,250539.3,250539.6,2023-07-17T15:56:15Z,250547.771,NULL,Notfall,dharura,s,rairai,malalamiko,ahueni,dharura,NA,NA,1,NA,NA,NA,NA,NA,NA,NA,NA,NA,NA,NA,NA,NA,NA,NA,NA,NA,NA,NA
e684d,"""Richtig""-Screen",canvas.Screen,3_0_1_0_3_1_1,NA,NA,timeout,5000.1,250543.1,250531.104,250547.771,255531.204,255532.4,2023-07-17T15:56:20Z,255547.871,NULL,Notfall,dharura,s,rairai,malalamiko,ahueni,NA,sdfdsf,1,1,NA,NA,NA,NA,NA,NA,NA,NA,NA,NA,NA,NA,NA,NA,NA,NA,NA,NA,NA
e684d,"""Falsch""-Screen",canvas.Screen,3_0_1_0_3_1_2,NA,NA,skipped,NA,255535.9,NA,NA,255531.204,255536.1,2023-07-17T15:56:20Z,255547.871,NULL,Notfall,dharura,s,rairai,malalamiko,ahueni,NA,sdfdsf,NA,1,NA,NA,NA,NA,NA,NA,NA,NA,NA,NA,NA,NA,NA,NA,NA,NA,NA,NA,NA
e684d,shallow,flow.Sequence,3_0_1_0_3_1,NA,NA,completion,8684.013,246834.1,246830.524,246847.191,255531.204,255536.4,2023-07-17T15:56:20Z,255547.871,NULL,Notfall,dharura,s,rairai,malalamiko,ahueni,NA,sdfdsf,NA,1,NA,NA,NA,NA,NA,NA,NA,NA,NA,NA,NA,NA,NA,NA,NA,NA,NA,NA,NA
e684d,task,flow.Sequence,3_0_1_0_3,NA,NA,completion,8684.013,246834,246830.524,246847.191,255531.204,255536.5,2023-07-17T15:56:20Z,255547.871,NULL,Notfall,dharura,s,rairai,malalamiko,ahueni,NA,sdfdsf,NA,1,NA,NA,NA,NA,NA,NA,NA,NA,NA,NA,NA,NA,NA,NA,NA,NA,NA,NA,NA
e684d,deep,flow.Sequence,3_0_1_0_4_0,NA,NA,skipped,NA,255536.7,NA,NA,255531.204,255536.8,2023-07-17T15:56:20Z,255547.871,NULL,Vergnügen,kichekesho,s,dubwana,mpanuko,mtesaji,NA,sdfdsf,NA,1,NA,NA,NA,NA,NA,NA,NA,NA,NA,NA,NA,NA,NA,NA,NA,NA,NA,NA,NA
e684d,Shallow Question,html.Page,3_0_1_0_4_1_0,NA,NA,form submission,3692.2290000001,255537,255531.204,255547.871,259240.1,259240.5,2023-07-17T15:56:24Z,259248.419,NULL,Vergnügen,kichekesho,s,dubwana,mpanuko,mtesaji,kichekesho,NA,NA,1,NA,NA,NA,NA,NA,NA,NA,NA,NA,NA,NA,NA,NA,NA,NA,NA,NA,NA,NA
e684d,"""Richtig""-Screen",canvas.Screen,3_0_1_0_4_1_1,NA,NA,timeout,5000.1,259243.7,259231.752,259248.419,264231.852,264233.3,2023-07-17T15:56:29Z,264248.519,NULL,Vergnügen,kichekesho,s,dubwana,mpanuko,mtesaji,NA,sdfdsf,1,1,NA,NA,NA,NA,NA,NA,NA,NA,NA,NA,NA,NA,NA,NA,NA,NA,NA,NA,NA
e684d,"""Falsch""-Screen",canvas.Screen,3_0_1_0_4_1_2,NA,NA,skipped,NA,264236.5,NA,NA,264231.852,264236.7,2023-07-17T15:56:29Z,264248.519,NULL,Vergnügen,kichekesho,s,dubwana,mpanuko,mtesaji,NA,sdfdsf,NA,1,NA,NA,NA,NA,NA,NA,NA,NA,NA,NA,NA,NA,NA,NA,NA,NA,NA,NA,NA
e684d,shallow,flow.Sequence,3_0_1_0_4_1,NA,NA,completion,8683.981,255536.9,255531.204,255547.871,264231.852,264237.3,2023-07-17T15:56:29Z,264248.519,NULL,Vergnügen,kichekesho,s,dubwana,mpanuko,mtesaji,NA,sdfdsf,NA,1,NA,NA,NA,NA,NA,NA,NA,NA,NA,NA,NA,NA,NA,NA,NA,NA,NA,NA,NA
e684d,task,flow.Sequence,3_0_1_0_4,NA,NA,completion,8683.981,255536.6,255531.204,255547.871,264231.852,264238.1,2023-07-17T15:56:29Z,264248.519,NULL,Vergnügen,kichekesho,s,dubwana,mpanuko,mtesaji,NA,sdfdsf,NA,1,NA,NA,NA,NA,NA,NA,NA,NA,NA,NA,NA,NA,NA,NA,NA,NA,NA,NA,NA
e684d,Deep Question,html.Page,3_0_1_0_5_0_0,NA,NA,form submission,6608.8809999999,264239.4,264231.852,264248.519,270857.4,270857.8,2023-07-17T15:56:35Z,270865.753,NULL,Betrüger,mdanganyifu,d,NA,NA,NA,unbhani,NA,NA,1,NA,NA,NA,NA,NA,NA,NA,NA,NA,NA,NA,NA,NA,NA,NA,NA,NA,NA,NA
e684d,"""Richtig""-Screen",canvas.Screen,3_0_1_0_5_0_1,NA,NA,skipped,NA,270861.7,NA,NA,270857.4,270861.9,2023-07-17T15:56:35Z,270865.753,NULL,Betrüger,mdanganyifu,d,NA,NA,NA,NA,sdfdsf,NA,1,NA,NA,NA,NA,NA,NA,NA,NA,NA,NA,NA,NA,NA,NA,NA,NA,NA,NA,NA
e684d,"""Falsch""-Screen",canvas.Screen,3_0_1_0_5_0_2,NA,NA,timeout,5000.1,270863.1,270849.086,270865.753,275849.186,275854.1,2023-07-17T15:56:40Z,275865.853,NULL,Betrüger,mdanganyifu,d,NA,NA,NA,NA,sdfdsf,0,1,NA,NA,NA,NA,NA,NA,NA,NA,NA,NA,NA,NA,NA,NA,NA,NA,NA,NA,NA
e684d,deep,flow.Sequence,3_0_1_0_5_0,NA,NA,completion,11600.667,264239.3,264231.852,264248.519,275849.186,275854.4,2023-07-17T15:56:40Z,275865.853,NULL,Betrüger,mdanganyifu,d,NA,NA,NA,NA,sdfdsf,NA,1,NA,NA,NA,NA,NA,NA,NA,NA,NA,NA,NA,NA,NA,NA,NA,NA,NA,NA,NA
e684d,shallow,flow.Sequence,3_0_1_0_5_1,NA,NA,skipped,NA,275854.6,NA,NA,275849.186,275854.7,2023-07-17T15:56:40Z,275865.853,NULL,Betrüger,mdanganyifu,d,NA,NA,NA,NA,sdfdsf,NA,1,NA,NA,NA,NA,NA,NA,NA,NA,NA,NA,NA,NA,NA,NA,NA,NA,NA,NA,NA
e684d,task,flow.Sequence,3_0_1_0_5,NA,NA,completion,11600.667,264238.2,264231.852,264248.519,275849.186,275854.9,2023-07-17T15:56:40Z,275865.853,NULL,Betrüger,mdanganyifu,d,NA,NA,NA,NA,sdfdsf,NA,1,NA,NA,NA,NA,NA,NA,NA,NA,NA,NA,NA,NA,NA,NA,NA,NA,NA,NA,NA
e684d,deep,flow.Sequence,3_0_1_0_6_0,NA,NA,skipped,NA,275855,NA,NA,275849.186,275855.3,2023-07-17T15:56:40Z,275865.853,NULL,Respekt,heshima,s,changamnao,upinzani,ufanisi,NA,sdfdsf,NA,1,NA,NA,NA,NA,NA,NA,NA,NA,NA,NA,NA,NA,NA,NA,NA,NA,NA,NA,NA
e684d,Shallow Question,html.Page,3_0_1_0_6_1_0,NA,NA,form submission,7359.2470000001,275855.4,275849.186,275865.853,283225.1,283225.4,2023-07-17T15:56:48Z,283233.282,NULL,Respekt,heshima,s,changamnao,upinzani,ufanisi,heshima,NA,NA,1,NA,NA,NA,NA,NA,NA,NA,NA,NA,NA,NA,NA,NA,NA,NA,NA,NA,NA,NA
e684d,"""Richtig""-Screen",canvas.Screen,3_0_1_0_6_1_1,NA,NA,timeout,5000.1,283229.9,283216.615,283233.282,288216.715,288219.5,2023-07-17T15:56:53Z,288233.382,NULL,Respekt,heshima,s,changamnao,upinzani,ufanisi,NA,sdfdsf,1,1,NA,NA,NA,NA,NA,NA,NA,NA,NA,NA,NA,NA,NA,NA,NA,NA,NA,NA,NA
e684d,"""Falsch""-Screen",canvas.Screen,3_0_1_0_6_1_2,NA,NA,skipped,NA,288222.6,NA,NA,288216.715,288222.8,2023-07-17T15:56:53Z,288233.382,NULL,Respekt,heshima,s,changamnao,upinzani,ufanisi,NA,sdfdsf,NA,1,NA,NA,NA,NA,NA,NA,NA,NA,NA,NA,NA,NA,NA,NA,NA,NA,NA,NA,NA
e684d,shallow,flow.Sequence,3_0_1_0_6_1,NA,NA,completion,12350.862,275855.4,275849.186,275865.853,288216.715,288222.9,2023-07-17T15:56:53Z,288233.382,NULL,Respekt,heshima,s,changamnao,upinzani,ufanisi,NA,sdfdsf,NA,1,NA,NA,NA,NA,NA,NA,NA,NA,NA,NA,NA,NA,NA,NA,NA,NA,NA,NA,NA
e684d,task,flow.Sequence,3_0_1_0_6,NA,NA,completion,12350.862,275855,275849.186,275865.853,288216.715,288223.1,2023-07-17T15:56:53Z,288233.382,NULL,Respekt,heshima,s,changamnao,upinzani,ufanisi,NA,sdfdsf,NA,1,NA,NA,NA,NA,NA,NA,NA,NA,NA,NA,NA,NA,NA,NA,NA,NA,NA,NA,NA
e684d,Deep Question,html.Page,3_0_1_0_7_0_0,NA,NA,form submission,8159.618,288223.3,288216.715,288233.382,296393,296393.4,2023-07-17T15:57:01Z,296400.683,NULL,Ergänzung,kijalizo,d,NA,NA,NA,etic,NA,NA,1,NA,NA,NA,NA,NA,NA,NA,NA,NA,NA,NA,NA,NA,NA,NA,NA,NA,NA,NA
e684d,"""Richtig""-Screen",canvas.Screen,3_0_1_0_7_0_1,NA,NA,skipped,NA,296396.6,NA,NA,296393,296396.8,2023-07-17T15:57:01Z,296400.683,NULL,Ergänzung,kijalizo,d,NA,NA,NA,NA,sdfdsf,NA,1,NA,NA,NA,NA,NA,NA,NA,NA,NA,NA,NA,NA,NA,NA,NA,NA,NA,NA,NA
e684d,"""Falsch""-Screen",canvas.Screen,3_0_1_0_7_0_2,NA,NA,timeout,5000.1,296398.1,296384.016,296400.683,301384.116,301387.3,2023-07-17T15:57:06Z,301400.783,NULL,Ergänzung,kijalizo,d,NA,NA,NA,NA,sdfdsf,0,1,NA,NA,NA,NA,NA,NA,NA,NA,NA,NA,NA,NA,NA,NA,NA,NA,NA,NA,NA
e684d,deep,flow.Sequence,3_0_1_0_7_0,NA,NA,completion,13150.734,288223.2,288216.715,288233.382,301384.116,301387.7,2023-07-17T15:57:06Z,301400.783,NULL,Ergänzung,kijalizo,d,NA,NA,NA,NA,sdfdsf,NA,1,NA,NA,NA,NA,NA,NA,NA,NA,NA,NA,NA,NA,NA,NA,NA,NA,NA,NA,NA
e684d,shallow,flow.Sequence,3_0_1_0_7_1,NA,NA,skipped,NA,301387.8,NA,NA,301384.116,301387.9,2023-07-17T15:57:06Z,301400.783,NULL,Ergänzung,kijalizo,d,NA,NA,NA,NA,sdfdsf,NA,1,NA,NA,NA,NA,NA,NA,NA,NA,NA,NA,NA,NA,NA,NA,NA,NA,NA,NA,NA
e684d,task,flow.Sequence,3_0_1_0_7,NA,NA,completion,13150.734,288223.2,288216.715,288233.382,301384.116,301388.1,2023-07-17T15:57:06Z,301400.783,NULL,Ergänzung,kijalizo,d,NA,NA,NA,NA,sdfdsf,NA,1,NA,NA,NA,NA,NA,NA,NA,NA,NA,NA,NA,NA,NA,NA,NA,NA,NA,NA,NA
e684d,block,flow.Loop,3_0_1_0,NA,NA,completion,92022.533,209367.7,209328.249,209361.583,301384.116,301388.3,2023-07-17T15:57:06Z,301400.783,NULL,NA,NA,NA,NA,NA,NA,NA,sdfdsf,NA,1,NA,NA,NA,NA,NA,NA,NA,NA,NA,NA,NA,NA,NA,NA,NA,NA,NA,NA,NA
e684d,weiter,canvas.Screen,3_0_1_1,sdf,keypress(Space),response,1372.3170000001,301388.4,301384.116,301400.783,302773.1,302780,2023-07-17T15:57:07Z,302818.074,NULL,NA,NA,NA,NA,NA,NA,NA,sdfdsf,NA,1,NA,NA,NA,NA,NA,NA,NA,NA,NA,NA,NA,NA,NA,NA,NA,NA,NA,NA,NA
e684d,check continue,flow.Sequence,3_0_1,NA,NA,completion,93411.517,209367.7,209328.249,209361.583,302773.1,302780.4,2023-07-17T15:57:07Z,302818.074,NULL,NA,NA,NA,NA,NA,NA,NA,sdfdsf,NA,1,NA,NA,NA,NA,NA,NA,NA,NA,NA,NA,NA,NA,NA,NA,NA,NA,NA,NA,NA
e684d,Deep Question,html.Page,3_0_2_0_0_0_0,NA,NA,form submission,7691.8259999999,302813.5,302768.073,302818.074,310509.9,310510.3,2023-07-17T15:57:15Z,310518.228,NULL,Wohlstand,mafanikio,d,NA,NA,NA,mafangdhani,NA,NA,2,NA,NA,NA,NA,NA,NA,NA,NA,NA,NA,NA,NA,NA,NA,NA,NA,NA,NA,NA
e684d,"""Richtig""-Screen",canvas.Screen,3_0_2_0_0_0_1,NA,NA,skipped,NA,310513.9,NA,NA,310509.9,310514.1,2023-07-17T15:57:15Z,310518.228,NULL,Wohlstand,mafanikio,d,NA,NA,NA,NA,sdf,NA,2,NA,NA,NA,NA,NA,NA,NA,NA,NA,NA,NA,NA,NA,NA,NA,NA,NA,NA,NA
e684d,"""Falsch""-Screen",canvas.Screen,3_0_2_0_0_0_2,NA,NA,timeout,5000.1,310515.3,310501.561,310518.228,315501.661,315503.6,2023-07-17T15:57:20Z,315518.328,NULL,Wohlstand,mafanikio,d,NA,NA,NA,NA,sdf,0,2,NA,NA,NA,NA,NA,NA,NA,NA,NA,NA,NA,NA,NA,NA,NA,NA,NA,NA,NA
e684d,deep,flow.Sequence,3_0_2_0_0_0,NA,NA,completion,12683.587,302813.5,302768.073,302818.074,315501.661,315504,2023-07-17T15:57:20Z,315518.328,NULL,Wohlstand,mafanikio,d,NA,NA,NA,NA,sdf,NA,2,NA,NA,NA,NA,NA,NA,NA,NA,NA,NA,NA,NA,NA,NA,NA,NA,NA,NA,NA
e684d,shallow,flow.Sequence,3_0_2_0_0_1,NA,NA,skipped,NA,315504.1,NA,NA,315501.661,315504.2,2023-07-17T15:57:20Z,315518.328,NULL,Wohlstand,mafanikio,d,NA,NA,NA,NA,sdf,NA,2,NA,NA,NA,NA,NA,NA,NA,NA,NA,NA,NA,NA,NA,NA,NA,NA,NA,NA,NA
e684d,task,flow.Sequence,3_0_2_0_0,NA,NA,completion,12683.587,302813.5,302768.073,302818.074,315501.661,315504.4,2023-07-17T15:57:20Z,315518.328,NULL,Wohlstand,mafanikio,d,NA,NA,NA,NA,sdf,NA,2,NA,NA,NA,NA,NA,NA,NA,NA,NA,NA,NA,NA,NA,NA,NA,NA,NA,NA,NA
e684d,deep,flow.Sequence,3_0_2_0_1_0,NA,NA,skipped,NA,315504.5,NA,NA,315501.661,315504.7,2023-07-17T15:57:20Z,315518.328,NULL,Orientierung,urekebisho,s,uelekeo,marekebisho,utunzaji,NA,sdf,NA,2,NA,NA,NA,NA,NA,NA,NA,NA,NA,NA,NA,NA,NA,NA,NA,NA,NA,NA,NA
e684d,Shallow Question,html.Page,3_0_2_0_1_1_0,NA,NA,form submission,4826.3719999997,315504.8,315501.661,315518.328,320344.7,320345,2023-07-17T15:57:25Z,320352.441,NULL,Orientierung,urekebisho,s,uelekeo,marekebisho,utunzaji,urekebisho,NA,NA,2,NA,NA,NA,NA,NA,NA,NA,NA,NA,NA,NA,NA,NA,NA,NA,NA,NA,NA,NA
e684d,"""Richtig""-Screen",canvas.Screen,3_0_2_0_1_1_1,NA,NA,timeout,5000.1,320348.2,320335.774,320352.441,325335.874,325338.1,2023-07-17T15:57:30Z,325352.541,NULL,Orientierung,urekebisho,s,uelekeo,marekebisho,utunzaji,NA,sdf,1,2,NA,NA,NA,NA,NA,NA,NA,NA,NA,NA,NA,NA,NA,NA,NA,NA,NA,NA,NA
e684d,"""Falsch""-Screen",canvas.Screen,3_0_2_0_1_1_2,NA,NA,skipped,NA,325342.3,NA,NA,325335.874,325342.5,2023-07-17T15:57:30Z,325352.541,NULL,Orientierung,urekebisho,s,uelekeo,marekebisho,utunzaji,NA,sdf,NA,2,NA,NA,NA,NA,NA,NA,NA,NA,NA,NA,NA,NA,NA,NA,NA,NA,NA,NA,NA
e684d,shallow,flow.Sequence,3_0_2_0_1_1,NA,NA,completion,9817.546,315504.8,315501.661,315518.328,325335.874,325342.8,2023-07-17T15:57:30Z,325352.541,NULL,Orientierung,urekebisho,s,uelekeo,marekebisho,utunzaji,NA,sdf,NA,2,NA,NA,NA,NA,NA,NA,NA,NA,NA,NA,NA,NA,NA,NA,NA,NA,NA,NA,NA
e684d,task,flow.Sequence,3_0_2_0_1,NA,NA,completion,9817.546,315504.5,315501.661,315518.328,325335.874,325343,2023-07-17T15:57:30Z,325352.541,NULL,Orientierung,urekebisho,s,uelekeo,marekebisho,utunzaji,NA,sdf,NA,2,NA,NA,NA,NA,NA,NA,NA,NA,NA,NA,NA,NA,NA,NA,NA,NA,NA,NA,NA
e684d,deep,flow.Sequence,3_0_2_0_2_0,NA,NA,skipped,NA,325343.2,NA,NA,325335.874,325343.2,2023-07-17T15:57:30Z,325352.541,NULL,Respekt,heshima,s,changamnao,upinzani,ufanisi,NA,sdf,NA,2,NA,NA,NA,NA,NA,NA,NA,NA,NA,NA,NA,NA,NA,NA,NA,NA,NA,NA,NA
e684d,Shallow Question,html.Page,3_0_2_0_2_1_0,NA,NA,form submission,4292.3589999999,325343.4,325335.874,325352.541,329644.9,329645.2,2023-07-17T15:57:34Z,329653.131,NULL,Respekt,heshima,s,changamnao,upinzani,ufanisi,heshima,NA,NA,2,NA,NA,NA,NA,NA,NA,NA,NA,NA,NA,NA,NA,NA,NA,NA,NA,NA,NA,NA
e684d,"""Richtig""-Screen",canvas.Screen,3_0_2_0_2_1_1,NA,NA,timeout,5000.1,329648.3,329636.464,329653.131,334636.564,334641.2,2023-07-17T15:57:39Z,334653.231,NULL,Respekt,heshima,s,changamnao,upinzani,ufanisi,NA,sdf,1,2,NA,NA,NA,NA,NA,NA,NA,NA,NA,NA,NA,NA,NA,NA,NA,NA,NA,NA,NA
e684d,"""Falsch""-Screen",canvas.Screen,3_0_2_0_2_1_2,NA,NA,skipped,NA,334644.4,NA,NA,334636.564,334644.6,2023-07-17T15:57:39Z,334653.231,NULL,Respekt,heshima,s,changamnao,upinzani,ufanisi,NA,sdf,NA,2,NA,NA,NA,NA,NA,NA,NA,NA,NA,NA,NA,NA,NA,NA,NA,NA,NA,NA,NA
e684d,shallow,flow.Sequence,3_0_2_0_2_1,NA,NA,completion,9284.023,325343.4,325335.874,325352.541,334636.564,334644.8,2023-07-17T15:57:39Z,334653.231,NULL,Respekt,heshima,s,changamnao,upinzani,ufanisi,NA,sdf,NA,2,NA,NA,NA,NA,NA,NA,NA,NA,NA,NA,NA,NA,NA,NA,NA,NA,NA,NA,NA
e684d,task,flow.Sequence,3_0_2_0_2,NA,NA,completion,9284.023,325343.1,325335.874,325352.541,334636.564,334645.1,2023-07-17T15:57:39Z,334653.231,NULL,Respekt,heshima,s,changamnao,upinzani,ufanisi,NA,sdf,NA,2,NA,NA,NA,NA,NA,NA,NA,NA,NA,NA,NA,NA,NA,NA,NA,NA,NA,NA,NA
e684d,Deep Question,html.Page,3_0_2_0_3_0_0,NA,NA,form submission,10591.669,334645.2,334636.564,334653.231,345244.9,345245.2,2023-07-17T15:57:50Z,345253.864,NULL,Betrüger,mdanganyifu,d,NA,NA,NA,kinshanu,NA,NA,2,NA,NA,NA,NA,NA,NA,NA,NA,NA,NA,NA,NA,NA,NA,NA,NA,NA,NA,NA
e684d,"""Richtig""-Screen",canvas.Screen,3_0_2_0_3_0_1,NA,NA,skipped,NA,345247,NA,NA,345244.9,345247.2,2023-07-17T15:57:50Z,345253.864,NULL,Betrüger,mdanganyifu,d,NA,NA,NA,NA,sdf,NA,2,NA,NA,NA,NA,NA,NA,NA,NA,NA,NA,NA,NA,NA,NA,NA,NA,NA,NA,NA
e684d,"""Falsch""-Screen",canvas.Screen,3_0_2_0_3_0_2,NA,NA,timeout,5000.1,345247.9,345237.197,345253.864,350237.297,350239.6,2023-07-17T15:57:55Z,350253.964,NULL,Betrüger,mdanganyifu,d,NA,NA,NA,NA,sdf,0,2,NA,NA,NA,NA,NA,NA,NA,NA,NA,NA,NA,NA,NA,NA,NA,NA,NA,NA,NA
e684d,deep,flow.Sequence,3_0_2_0_3_0,NA,NA,completion,15584.066,334645.1,334636.564,334653.231,350237.297,350239.8,2023-07-17T15:57:55Z,350253.964,NULL,Betrüger,mdanganyifu,d,NA,NA,NA,NA,sdf,NA,2,NA,NA,NA,NA,NA,NA,NA,NA,NA,NA,NA,NA,NA,NA,NA,NA,NA,NA,NA
e684d,shallow,flow.Sequence,3_0_2_0_3_1,NA,NA,skipped,NA,350239.9,NA,NA,350237.297,350240,2023-07-17T15:57:55Z,350253.964,NULL,Betrüger,mdanganyifu,d,NA,NA,NA,NA,sdf,NA,2,NA,NA,NA,NA,NA,NA,NA,NA,NA,NA,NA,NA,NA,NA,NA,NA,NA,NA,NA
e684d,task,flow.Sequence,3_0_2_0_3,NA,NA,completion,15584.066,334645.1,334636.564,334653.231,350237.297,350240.2,2023-07-17T15:57:55Z,350253.964,NULL,Betrüger,mdanganyifu,d,NA,NA,NA,NA,sdf,NA,2,NA,NA,NA,NA,NA,NA,NA,NA,NA,NA,NA,NA,NA,NA,NA,NA,NA,NA,NA
e684d,deep,flow.Sequence,3_0_2_0_4_0,NA,NA,skipped,NA,350240.3,NA,NA,350237.297,350240.4,2023-07-17T15:57:55Z,350253.964,NULL,Notfall,dharura,s,rairai,malalamiko,ahueni,NA,sdf,NA,2,NA,NA,NA,NA,NA,NA,NA,NA,NA,NA,NA,NA,NA,NA,NA,NA,NA,NA,NA
e684d,Shallow Question,html.Page,3_0_2_0_4_1_0,NA,NA,form submission,4743.1360000001,350240.5,350237.297,350253.964,354997.1,354997.5,2023-07-17T15:58:00Z,355004.813,NULL,Notfall,dharura,s,rairai,malalamiko,ahueni,dharura,NA,NA,2,NA,NA,NA,NA,NA,NA,NA,NA,NA,NA,NA,NA,NA,NA,NA,NA,NA,NA,NA
e684d,"""Richtig""-Screen",canvas.Screen,3_0_2_0_4_1_1,NA,NA,timeout,5000.1,355000.9,354988.146,355004.813,359988.246,359991.6,2023-07-17T15:58:05Z,360004.913,NULL,Notfall,dharura,s,rairai,malalamiko,ahueni,NA,sdf,1,2,NA,NA,NA,NA,NA,NA,NA,NA,NA,NA,NA,NA,NA,NA,NA,NA,NA,NA,NA
e684d,"""Falsch""-Screen",canvas.Screen,3_0_2_0_4_1_2,NA,NA,skipped,NA,359995,NA,NA,359988.246,359995.1,2023-07-17T15:58:05Z,360004.913,NULL,Notfall,dharura,s,rairai,malalamiko,ahueni,NA,sdf,NA,2,NA,NA,NA,NA,NA,NA,NA,NA,NA,NA,NA,NA,NA,NA,NA,NA,NA,NA,NA
e684d,shallow,flow.Sequence,3_0_2_0_4_1,NA,NA,completion,9734.282,350240.5,350237.297,350253.964,359988.246,359995.4,2023-07-17T15:58:05Z,360004.913,NULL,Notfall,dharura,s,rairai,malalamiko,ahueni,NA,sdf,NA,2,NA,NA,NA,NA,NA,NA,NA,NA,NA,NA,NA,NA,NA,NA,NA,NA,NA,NA,NA
e684d,task,flow.Sequence,3_0_2_0_4,NA,NA,completion,9734.282,350240.3,350237.297,350253.964,359988.246,359995.6,2023-07-17T15:58:05Z,360004.913,NULL,Notfall,dharura,s,rairai,malalamiko,ahueni,NA,sdf,NA,2,NA,NA,NA,NA,NA,NA,NA,NA,NA,NA,NA,NA,NA,NA,NA,NA,NA,NA,NA
e684d,Deep Question,html.Page,3_0_2_0_5_0_0,NA,NA,form submission,8508.6870000001,359995.8,359988.246,360004.913,368513.6,368513.9,2023-07-17T15:58:13Z,368522.307,NULL,Ergänzung,kijalizo,d,NA,NA,NA,kinshu,NA,NA,2,NA,NA,NA,NA,NA,NA,NA,NA,NA,NA,NA,NA,NA,NA,NA,NA,NA,NA,NA
e684d,"""Richtig""-Screen",canvas.Screen,3_0_2_0_5_0_1,NA,NA,skipped,NA,368517.3,NA,NA,368513.6,368517.4,2023-07-17T15:58:13Z,368522.307,NULL,Ergänzung,kijalizo,d,NA,NA,NA,NA,sdf,NA,2,NA,NA,NA,NA,NA,NA,NA,NA,NA,NA,NA,NA,NA,NA,NA,NA,NA,NA,NA
e684d,"""Falsch""-Screen",canvas.Screen,3_0_2_0_5_0_2,NA,NA,timeout,5000.1,368518.7,368505.64,368522.307,373505.74,373507.1,2023-07-17T15:58:18Z,373522.407,NULL,Ergänzung,kijalizo,d,NA,NA,NA,NA,sdf,0,2,NA,NA,NA,NA,NA,NA,NA,NA,NA,NA,NA,NA,NA,NA,NA,NA,NA,NA,NA
e684d,deep,flow.Sequence,3_0_2_0_5_0,NA,NA,completion,13500.827,359995.7,359988.246,360004.913,373505.74,373507.4,2023-07-17T15:58:18Z,373522.407,NULL,Ergänzung,kijalizo,d,NA,NA,NA,NA,sdf,NA,2,NA,NA,NA,NA,NA,NA,NA,NA,NA,NA,NA,NA,NA,NA,NA,NA,NA,NA,NA
e684d,shallow,flow.Sequence,3_0_2_0_5_1,NA,NA,skipped,NA,373507.5,NA,NA,373505.74,373507.6,2023-07-17T15:58:18Z,373522.407,NULL,Ergänzung,kijalizo,d,NA,NA,NA,NA,sdf,NA,2,NA,NA,NA,NA,NA,NA,NA,NA,NA,NA,NA,NA,NA,NA,NA,NA,NA,NA,NA
e684d,task,flow.Sequence,3_0_2_0_5,NA,NA,completion,13500.827,359995.6,359988.246,360004.913,373505.74,373507.8,2023-07-17T15:58:18Z,373522.407,NULL,Ergänzung,kijalizo,d,NA,NA,NA,NA,sdf,NA,2,NA,NA,NA,NA,NA,NA,NA,NA,NA,NA,NA,NA,NA,NA,NA,NA,NA,NA,NA
e684d,Deep Question,html.Page,3_0_2_0_6_0_0,NA,NA,form submission,8824.593,373507.9,373505.74,373522.407,382347,382347.2,2023-07-17T15:58:27Z,382356.412,NULL,Stimmung,kinyongo,d,NA,NA,NA,mdangani,NA,NA,2,NA,NA,NA,NA,NA,NA,NA,NA,NA,NA,NA,NA,NA,NA,NA,NA,NA,NA,NA
e684d,"""Richtig""-Screen",canvas.Screen,3_0_2_0_6_0_1,NA,NA,skipped,NA,382348.9,NA,NA,382347,382349,2023-07-17T15:58:27Z,382356.412,NULL,Stimmung,kinyongo,d,NA,NA,NA,NA,sdf,NA,2,NA,NA,NA,NA,NA,NA,NA,NA,NA,NA,NA,NA,NA,NA,NA,NA,NA,NA,NA
e684d,"""Falsch""-Screen",canvas.Screen,3_0_2_0_6_0_2,NA,NA,timeout,5000.1,382350.2,382339.745,382356.412,387339.845,387344.4,2023-07-17T15:58:32Z,387356.512,NULL,Stimmung,kinyongo,d,NA,NA,NA,NA,sdf,0,2,NA,NA,NA,NA,NA,NA,NA,NA,NA,NA,NA,NA,NA,NA,NA,NA,NA,NA,NA
e684d,deep,flow.Sequence,3_0_2_0_6_0,NA,NA,completion,13817.438,373507.9,373505.74,373522.407,387339.845,387344.6,2023-07-17T15:58:32Z,387356.512,NULL,Stimmung,kinyongo,d,NA,NA,NA,NA,sdf,NA,2,NA,NA,NA,NA,NA,NA,NA,NA,NA,NA,NA,NA,NA,NA,NA,NA,NA,NA,NA
e684d,shallow,flow.Sequence,3_0_2_0_6_1,NA,NA,skipped,NA,387344.7,NA,NA,387339.845,387344.9,2023-07-17T15:58:32Z,387356.512,NULL,Stimmung,kinyongo,d,NA,NA,NA,NA,sdf,NA,2,NA,NA,NA,NA,NA,NA,NA,NA,NA,NA,NA,NA,NA,NA,NA,NA,NA,NA,NA
e684d,task,flow.Sequence,3_0_2_0_6,NA,NA,completion,13817.438,373507.9,373505.74,373522.407,387339.845,387345,2023-07-17T15:58:32Z,387356.512,NULL,Stimmung,kinyongo,d,NA,NA,NA,NA,sdf,NA,2,NA,NA,NA,NA,NA,NA,NA,NA,NA,NA,NA,NA,NA,NA,NA,NA,NA,NA,NA
e684d,deep,flow.Sequence,3_0_2_0_7_0,NA,NA,skipped,NA,387346.1,NA,NA,387339.845,387346.3,2023-07-17T15:58:32Z,387356.512,NULL,Vergnügen,kichekesho,s,dubwana,mpanuko,mtesaji,NA,sdf,NA,2,NA,NA,NA,NA,NA,NA,NA,NA,NA,NA,NA,NA,NA,NA,NA,NA,NA,NA,NA
e684d,Shallow Question,html.Page,3_0_2_0_7_1_0,NA,NA,form submission,4492.3879999999,387346.5,387339.845,387356.512,391848.9,391849.1,2023-07-17T15:58:36Z,391857.354,NULL,Vergnügen,kichekesho,s,dubwana,mpanuko,mtesaji,kichekesho,NA,NA,2,NA,NA,NA,NA,NA,NA,NA,NA,NA,NA,NA,NA,NA,NA,NA,NA,NA,NA,NA
e684d,"""Richtig""-Screen",canvas.Screen,3_0_2_0_7_1_1,NA,NA,timeout,5000.1,391853.3,391840.687,391857.354,396840.787,396845.7,2023-07-17T15:58:41Z,396857.454,NULL,Vergnügen,kichekesho,s,dubwana,mpanuko,mtesaji,NA,sdf,1,2,NA,NA,NA,NA,NA,NA,NA,NA,NA,NA,NA,NA,NA,NA,NA,NA,NA,NA,NA
e684d,"""Falsch""-Screen",canvas.Screen,3_0_2_0_7_1_2,NA,NA,skipped,NA,396849.3,NA,NA,396840.787,396849.5,2023-07-17T15:58:41Z,396857.454,NULL,Vergnügen,kichekesho,s,dubwana,mpanuko,mtesaji,NA,sdf,NA,2,NA,NA,NA,NA,NA,NA,NA,NA,NA,NA,NA,NA,NA,NA,NA,NA,NA,NA,NA
e684d,shallow,flow.Sequence,3_0_2_0_7_1,NA,NA,completion,9484.275,387346.5,387339.845,387356.512,396840.787,396849.8,2023-07-17T15:58:41Z,396857.454,NULL,Vergnügen,kichekesho,s,dubwana,mpanuko,mtesaji,NA,sdf,NA,2,NA,NA,NA,NA,NA,NA,NA,NA,NA,NA,NA,NA,NA,NA,NA,NA,NA,NA,NA
e684d,task,flow.Sequence,3_0_2_0_7,NA,NA,completion,9484.275,387346.1,387339.845,387356.512,396840.787,396850,2023-07-17T15:58:41Z,396857.454,NULL,Vergnügen,kichekesho,s,dubwana,mpanuko,mtesaji,NA,sdf,NA,2,NA,NA,NA,NA,NA,NA,NA,NA,NA,NA,NA,NA,NA,NA,NA,NA,NA,NA,NA
e684d,block,flow.Loop,3_0_2_0,NA,NA,completion,94022.713,302813.5,302768.073,302818.074,396840.787,396850.3,2023-07-17T15:58:41Z,396857.454,NULL,NA,NA,NA,NA,NA,NA,NA,sdf,NA,2,NA,NA,NA,NA,NA,NA,NA,NA,NA,NA,NA,NA,NA,NA,NA,NA,NA,NA,NA
e684d,weiter,canvas.Screen,3_0_2_1,sdf,keypress(Space),response,1181.9459999999,396850.4,396840.787,396857.454,398039.4,398046.3,2023-07-17T15:58:43Z,398074.145,NULL,NA,NA,NA,NA,NA,NA,NA,sdf,NA,2,NA,NA,NA,NA,NA,NA,NA,NA,NA,NA,NA,NA,NA,NA,NA,NA,NA,NA,NA
e684d,check continue,flow.Sequence,3_0_2,NA,NA,completion,95221.326,302813.5,302768.073,302818.074,398039.4,398046.8,2023-07-17T15:58:43Z,398074.145,NULL,NA,NA,NA,NA,NA,NA,NA,sdf,NA,2,NA,NA,NA,NA,NA,NA,NA,NA,NA,NA,NA,NA,NA,NA,NA,NA,NA,NA,NA
e684d,Deep Question,html.Page,3_0_3_0_0_0_0,NA,NA,form submission,18826.455,398078.7,398040.811,398074.145,416900.6,416901.6,2023-07-17T15:59:01Z,416908.919,NULL,Ergänzung,kijalizo,d,NA,NA,NA,mfangayzo,NA,NA,3,NA,NA,NA,NA,NA,NA,NA,NA,NA,NA,NA,NA,NA,NA,NA,NA,NA,NA,NA
e684d,"""Richtig""-Screen",canvas.Screen,3_0_3_0_0_0_1,NA,NA,skipped,NA,416905.3,NA,NA,416900.6,416905.4,2023-07-17T15:59:01Z,416908.919,NULL,Ergänzung,kijalizo,d,NA,NA,NA,NA,qt,NA,3,NA,NA,NA,NA,NA,NA,NA,NA,NA,NA,NA,NA,NA,NA,NA,NA,NA,NA,NA
e684d,"""Falsch""-Screen",canvas.Screen,3_0_3_0_0_0_2,NA,NA,timeout,5000.1,416908.2,416892.252,416908.919,421892.352,421896.6,2023-07-17T15:59:06Z,421909.019,NULL,Ergänzung,kijalizo,d,NA,NA,NA,NA,qt,0,3,NA,NA,NA,NA,NA,NA,NA,NA,NA,NA,NA,NA,NA,NA,NA,NA,NA,NA,NA
e684d,deep,flow.Sequence,3_0_3_0_0_0,NA,NA,completion,23818.207,398078.7,398040.811,398074.145,421892.352,421896.8,2023-07-17T15:59:06Z,421909.019,NULL,Ergänzung,kijalizo,d,NA,NA,NA,NA,qt,NA,3,NA,NA,NA,NA,NA,NA,NA,NA,NA,NA,NA,NA,NA,NA,NA,NA,NA,NA,NA
e684d,shallow,flow.Sequence,3_0_3_0_0_1,NA,NA,skipped,NA,421896.9,NA,NA,421892.352,421897,2023-07-17T15:59:06Z,421909.019,NULL,Ergänzung,kijalizo,d,NA,NA,NA,NA,qt,NA,3,NA,NA,NA,NA,NA,NA,NA,NA,NA,NA,NA,NA,NA,NA,NA,NA,NA,NA,NA
e684d,task,flow.Sequence,3_0_3_0_0,NA,NA,completion,23818.207,398078.7,398040.811,398074.145,421892.352,421897.2,2023-07-17T15:59:06Z,421909.019,NULL,Ergänzung,kijalizo,d,NA,NA,NA,NA,qt,NA,3,NA,NA,NA,NA,NA,NA,NA,NA,NA,NA,NA,NA,NA,NA,NA,NA,NA,NA,NA
e684d,Deep Question,html.Page,3_0_3_0_1_0_0,NA,NA,form submission,6075.2809999998,421897.4,421892.352,421909.019,427984.3,427984.7,2023-07-17T15:59:13Z,427993.117,NULL,Stimmung,kinyongo,d,NA,NA,NA,kinyongo,NA,NA,3,NA,NA,NA,NA,NA,NA,NA,NA,NA,NA,NA,NA,NA,NA,NA,NA,NA,NA,NA
e684d,"""Richtig""-Screen",canvas.Screen,3_0_3_0_1_0_1,NA,NA,timeout,5000.1,427987.8,427976.45,427993.117,432976.55,432978.4,2023-07-17T15:59:18Z,432993.217,NULL,Stimmung,kinyongo,d,NA,NA,NA,NA,qt,1,3,NA,NA,NA,NA,NA,NA,NA,NA,NA,NA,NA,NA,NA,NA,NA,NA,NA,NA,NA
e684d,"""Falsch""-Screen",canvas.Screen,3_0_3_0_1_0_2,NA,NA,skipped,NA,432981.5,NA,NA,432976.55,432981.7,2023-07-17T15:59:18Z,432993.217,NULL,Stimmung,kinyongo,d,NA,NA,NA,NA,qt,NA,3,NA,NA,NA,NA,NA,NA,NA,NA,NA,NA,NA,NA,NA,NA,NA,NA,NA,NA,NA
e684d,deep,flow.Sequence,3_0_3_0_1_0,NA,NA,completion,11067.531,421897.3,421892.352,421909.019,432976.55,432982,2023-07-17T15:59:18Z,432993.217,NULL,Stimmung,kinyongo,d,NA,NA,NA,NA,qt,NA,3,NA,NA,NA,NA,NA,NA,NA,NA,NA,NA,NA,NA,NA,NA,NA,NA,NA,NA,NA
e684d,shallow,flow.Sequence,3_0_3_0_1_1,NA,NA,skipped,NA,432982.1,NA,NA,432976.55,432982.2,2023-07-17T15:59:18Z,432993.217,NULL,Stimmung,kinyongo,d,NA,NA,NA,NA,qt,NA,3,NA,NA,NA,NA,NA,NA,NA,NA,NA,NA,NA,NA,NA,NA,NA,NA,NA,NA,NA
e684d,task,flow.Sequence,3_0_3_0_1,NA,NA,completion,11067.531,421897.3,421892.352,421909.019,432976.55,432982.3,2023-07-17T15:59:18Z,432993.217,NULL,Stimmung,kinyongo,d,NA,NA,NA,NA,qt,NA,3,NA,NA,NA,NA,NA,NA,NA,NA,NA,NA,NA,NA,NA,NA,NA,NA,NA,NA,NA
e684d,Deep Question,html.Page,3_0_3_0_2_0_0,NA,NA,form submission,8742.283,432982.5,432976.55,432993.217,441735.5,441735.9,2023-07-17T15:59:26Z,441743.95,NULL,Betrüger,mdanganyifu,d,NA,NA,NA,mgagdanga,NA,NA,3,NA,NA,NA,NA,NA,NA,NA,NA,NA,NA,NA,NA,NA,NA,NA,NA,NA,NA,NA
e684d,"""Richtig""-Screen",canvas.Screen,3_0_3_0_2_0_1,NA,NA,skipped,NA,441739.9,NA,NA,441735.5,441740.1,2023-07-17T15:59:26Z,441743.95,NULL,Betrüger,mdanganyifu,d,NA,NA,NA,NA,qt,NA,3,NA,NA,NA,NA,NA,NA,NA,NA,NA,NA,NA,NA,NA,NA,NA,NA,NA,NA,NA
e684d,"""Falsch""-Screen",canvas.Screen,3_0_3_0_2_0_2,NA,NA,timeout,5000.1,441741.1,441727.283,441743.95,446727.383,446731.4,2023-07-17T15:59:31Z,446744.05,NULL,Betrüger,mdanganyifu,d,NA,NA,NA,NA,qt,0,3,NA,NA,NA,NA,NA,NA,NA,NA,NA,NA,NA,NA,NA,NA,NA,NA,NA,NA,NA
e684d,deep,flow.Sequence,3_0_3_0_2_0,NA,NA,completion,13734.166,432982.5,432976.55,432993.217,446727.383,446731.7,2023-07-17T15:59:31Z,446744.05,NULL,Betrüger,mdanganyifu,d,NA,NA,NA,NA,qt,NA,3,NA,NA,NA,NA,NA,NA,NA,NA,NA,NA,NA,NA,NA,NA,NA,NA,NA,NA,NA
e684d,shallow,flow.Sequence,3_0_3_0_2_1,NA,NA,skipped,NA,446731.9,NA,NA,446727.383,446731.9,2023-07-17T15:59:31Z,446744.05,NULL,Betrüger,mdanganyifu,d,NA,NA,NA,NA,qt,NA,3,NA,NA,NA,NA,NA,NA,NA,NA,NA,NA,NA,NA,NA,NA,NA,NA,NA,NA,NA
e684d,task,flow.Sequence,3_0_3_0_2,NA,NA,completion,13734.166,432982.4,432976.55,432993.217,446727.383,446732.3,2023-07-17T15:59:31Z,446744.05,NULL,Betrüger,mdanganyifu,d,NA,NA,NA,NA,qt,NA,3,NA,NA,NA,NA,NA,NA,NA,NA,NA,NA,NA,NA,NA,NA,NA,NA,NA,NA,NA
e684d,deep,flow.Sequence,3_0_3_0_3_0,NA,NA,skipped,NA,446732.4,NA,NA,446727.383,446732.5,2023-07-17T15:59:31Z,446744.05,NULL,Orientierung,urekebisho,s,uelekeo,marekebisho,utunzaji,NA,qt,NA,3,NA,NA,NA,NA,NA,NA,NA,NA,NA,NA,NA,NA,NA,NA,NA,NA,NA,NA,NA
e684d,Shallow Question,html.Page,3_0_3_0_3_1_0,NA,NA,form submission,4209.0500000001,446732.7,446727.383,446744.05,450953.1,450953.4,2023-07-17T15:59:36Z,450961.377,NULL,Orientierung,urekebisho,s,uelekeo,marekebisho,utunzaji,urekebisho,NA,NA,3,NA,NA,NA,NA,NA,NA,NA,NA,NA,NA,NA,NA,NA,NA,NA,NA,NA,NA,NA
e684d,"""Richtig""-Screen",canvas.Screen,3_0_3_0_3_1_1,NA,NA,timeout,5000.1,450956.7,450944.71,450961.377,455944.81,455946.2,2023-07-17T15:59:41Z,455961.477,NULL,Orientierung,urekebisho,s,uelekeo,marekebisho,utunzaji,NA,qt,1,3,NA,NA,NA,NA,NA,NA,NA,NA,NA,NA,NA,NA,NA,NA,NA,NA,NA,NA,NA
e684d,"""Falsch""-Screen",canvas.Screen,3_0_3_0_3_1_2,NA,NA,skipped,NA,455949.5,NA,NA,455944.81,455949.7,2023-07-17T15:59:41Z,455961.477,NULL,Orientierung,urekebisho,s,uelekeo,marekebisho,utunzaji,NA,qt,NA,3,NA,NA,NA,NA,NA,NA,NA,NA,NA,NA,NA,NA,NA,NA,NA,NA,NA,NA,NA
e684d,shallow,flow.Sequence,3_0_3_0_3_1,NA,NA,completion,9200.76,446732.6,446727.383,446744.05,455944.81,455950,2023-07-17T15:59:41Z,455961.477,NULL,Orientierung,urekebisho,s,uelekeo,marekebisho,utunzaji,NA,qt,NA,3,NA,NA,NA,NA,NA,NA,NA,NA,NA,NA,NA,NA,NA,NA,NA,NA,NA,NA,NA
e684d,task,flow.Sequence,3_0_3_0_3,NA,NA,completion,9200.76,446732.4,446727.383,446744.05,455944.81,455950.1,2023-07-17T15:59:41Z,455961.477,NULL,Orientierung,urekebisho,s,uelekeo,marekebisho,utunzaji,NA,qt,NA,3,NA,NA,NA,NA,NA,NA,NA,NA,NA,NA,NA,NA,NA,NA,NA,NA,NA,NA,NA
e684d,deep,flow.Sequence,3_0_3_0_4_0,NA,NA,skipped,NA,455950.3,NA,NA,455944.81,455950.4,2023-07-17T15:59:41Z,455961.477,NULL,Vergnügen,kichekesho,s,dubwana,mpanuko,mtesaji,NA,qt,NA,3,NA,NA,NA,NA,NA,NA,NA,NA,NA,NA,NA,NA,NA,NA,NA,NA,NA,NA,NA
e684d,Shallow Question,html.Page,3_0_3_0_4_1_0,NA,NA,form submission,3292.8229999998,455950.5,455944.81,455961.477,459254.3,459254.6,2023-07-17T15:59:44Z,459262.141,NULL,Vergnügen,kichekesho,s,dubwana,mpanuko,mtesaji,kichekesho,NA,NA,3,NA,NA,NA,NA,NA,NA,NA,NA,NA,NA,NA,NA,NA,NA,NA,NA,NA,NA,NA
e684d,"""Richtig""-Screen",canvas.Screen,3_0_3_0_4_1_1,NA,NA,timeout,5000.1,459257.7,459245.474,459262.141,464245.574,464249.9,2023-07-17T15:59:49Z,464262.241,NULL,Vergnügen,kichekesho,s,dubwana,mpanuko,mtesaji,NA,qt,1,3,NA,NA,NA,NA,NA,NA,NA,NA,NA,NA,NA,NA,NA,NA,NA,NA,NA,NA,NA
e684d,"""Falsch""-Screen",canvas.Screen,3_0_3_0_4_1_2,NA,NA,skipped,NA,464253.1,NA,NA,464245.574,464253.3,2023-07-17T15:59:49Z,464262.241,NULL,Vergnügen,kichekesho,s,dubwana,mpanuko,mtesaji,NA,qt,NA,3,NA,NA,NA,NA,NA,NA,NA,NA,NA,NA,NA,NA,NA,NA,NA,NA,NA,NA,NA
e684d,shallow,flow.Sequence,3_0_3_0_4_1,NA,NA,completion,8284.097,455950.5,455944.81,455961.477,464245.574,464253.5,2023-07-17T15:59:49Z,464262.241,NULL,Vergnügen,kichekesho,s,dubwana,mpanuko,mtesaji,NA,qt,NA,3,NA,NA,NA,NA,NA,NA,NA,NA,NA,NA,NA,NA,NA,NA,NA,NA,NA,NA,NA
e684d,task,flow.Sequence,3_0_3_0_4,NA,NA,completion,8284.097,455950.2,455944.81,455961.477,464245.574,464253.8,2023-07-17T15:59:49Z,464262.241,NULL,Vergnügen,kichekesho,s,dubwana,mpanuko,mtesaji,NA,qt,NA,3,NA,NA,NA,NA,NA,NA,NA,NA,NA,NA,NA,NA,NA,NA,NA,NA,NA,NA,NA
e684d,deep,flow.Sequence,3_0_3_0_5_0,NA,NA,skipped,NA,464253.9,NA,NA,464245.574,464254.1,2023-07-17T15:59:49Z,464262.241,NULL,Respekt,heshima,s,changamnao,upinzani,ufanisi,NA,qt,NA,3,NA,NA,NA,NA,NA,NA,NA,NA,NA,NA,NA,NA,NA,NA,NA,NA,NA,NA,NA
e684d,Shallow Question,html.Page,3_0_3_0_5_1_0,NA,NA,form submission,4176.3590000001,464254.2,464245.574,464262.241,468438.6,468438.9,2023-07-17T15:59:53Z,468446.16,NULL,Respekt,heshima,s,changamnao,upinzani,ufanisi,heshima,NA,NA,3,NA,NA,NA,NA,NA,NA,NA,NA,NA,NA,NA,NA,NA,NA,NA,NA,NA,NA,NA
e684d,"""Richtig""-Screen",canvas.Screen,3_0_3_0_5_1_1,NA,NA,timeout,5000.1,468441.9,468429.493,468446.16,473429.593,473430.6,2023-07-17T15:59:58Z,473446.26,NULL,Respekt,heshima,s,changamnao,upinzani,ufanisi,NA,qt,1,3,NA,NA,NA,NA,NA,NA,NA,NA,NA,NA,NA,NA,NA,NA,NA,NA,NA,NA,NA
e684d,"""Falsch""-Screen",canvas.Screen,3_0_3_0_5_1_2,NA,NA,skipped,NA,473434.2,NA,NA,473429.593,473434.3,2023-07-17T15:59:58Z,473446.26,NULL,Respekt,heshima,s,changamnao,upinzani,ufanisi,NA,qt,NA,3,NA,NA,NA,NA,NA,NA,NA,NA,NA,NA,NA,NA,NA,NA,NA,NA,NA,NA,NA
e684d,shallow,flow.Sequence,3_0_3_0_5_1,NA,NA,completion,9167.352,464254.2,464245.574,464262.241,473429.593,473434.6,2023-07-17T15:59:58Z,473446.26,NULL,Respekt,heshima,s,changamnao,upinzani,ufanisi,NA,qt,NA,3,NA,NA,NA,NA,NA,NA,NA,NA,NA,NA,NA,NA,NA,NA,NA,NA,NA,NA,NA
e684d,task,flow.Sequence,3_0_3_0_5,NA,NA,completion,9167.352,464253.9,464245.574,464262.241,473429.593,473434.9,2023-07-17T15:59:58Z,473446.26,NULL,Respekt,heshima,s,changamnao,upinzani,ufanisi,NA,qt,NA,3,NA,NA,NA,NA,NA,NA,NA,NA,NA,NA,NA,NA,NA,NA,NA,NA,NA,NA,NA
e684d,deep,flow.Sequence,3_0_3_0_6_0,NA,NA,skipped,NA,473435.1,NA,NA,473429.593,473435.2,2023-07-17T15:59:58Z,473446.26,NULL,Notfall,dharura,s,rairai,malalamiko,ahueni,NA,qt,NA,3,NA,NA,NA,NA,NA,NA,NA,NA,NA,NA,NA,NA,NA,NA,NA,NA,NA,NA,NA
e684d,Shallow Question,html.Page,3_0_3_0_6_1_0,NA,NA,form submission,4925.24,473435.3,473429.593,473446.26,478371.5,478371.8,2023-07-17T16:00:03Z,478380.22,NULL,Notfall,dharura,s,rairai,malalamiko,ahueni,dharura,NA,NA,3,NA,NA,NA,NA,NA,NA,NA,NA,NA,NA,NA,NA,NA,NA,NA,NA,NA,NA,NA
e684d,"""Richtig""-Screen",canvas.Screen,3_0_3_0_6_1_1,NA,NA,timeout,5000.1,478375.6,478363.553,478380.22,483363.653,483366.5,2023-07-17T16:00:08Z,483380.32,NULL,Notfall,dharura,s,rairai,malalamiko,ahueni,NA,qt,1,3,NA,NA,NA,NA,NA,NA,NA,NA,NA,NA,NA,NA,NA,NA,NA,NA,NA,NA,NA
e684d,"""Falsch""-Screen",canvas.Screen,3_0_3_0_6_1_2,NA,NA,skipped,NA,483369.9,NA,NA,483363.653,483370.1,2023-07-17T16:00:08Z,483380.32,NULL,Notfall,dharura,s,rairai,malalamiko,ahueni,NA,qt,NA,3,NA,NA,NA,NA,NA,NA,NA,NA,NA,NA,NA,NA,NA,NA,NA,NA,NA,NA,NA
e684d,shallow,flow.Sequence,3_0_3_0_6_1,NA,NA,completion,9917.393,473435.3,473429.593,473446.26,483363.653,483370.4,2023-07-17T16:00:08Z,483380.32,NULL,Notfall,dharura,s,rairai,malalamiko,ahueni,NA,qt,NA,3,NA,NA,NA,NA,NA,NA,NA,NA,NA,NA,NA,NA,NA,NA,NA,NA,NA,NA,NA
e684d,task,flow.Sequence,3_0_3_0_6,NA,NA,completion,9917.393,473435,473429.593,473446.26,483363.653,483370.6,2023-07-17T16:00:08Z,483380.32,NULL,Notfall,dharura,s,rairai,malalamiko,ahueni,NA,qt,NA,3,NA,NA,NA,NA,NA,NA,NA,NA,NA,NA,NA,NA,NA,NA,NA,NA,NA,NA,NA
e684d,Deep Question,html.Page,3_0_3_0_7_0_0,NA,NA,form submission,16575.88,483370.7,483363.653,483380.32,499956.2,499956.6,2023-07-17T16:00:25Z,499964.904,NULL,Wohlstand,mafanikio,d,NA,NA,NA,mafandiyu,NA,NA,3,NA,NA,NA,NA,NA,NA,NA,NA,NA,NA,NA,NA,NA,NA,NA,NA,NA,NA,NA
e684d,"""Richtig""-Screen",canvas.Screen,3_0_3_0_7_0_1,NA,NA,skipped,NA,499959.9,NA,NA,499956.2,499960.1,2023-07-17T16:00:25Z,499964.904,NULL,Wohlstand,mafanikio,d,NA,NA,NA,NA,qt,NA,3,NA,NA,NA,NA,NA,NA,NA,NA,NA,NA,NA,NA,NA,NA,NA,NA,NA,NA,NA
e684d,"""Falsch""-Screen",canvas.Screen,3_0_3_0_7_0_2,NA,NA,timeout,5000.1,499961.3,499948.237,499964.904,504948.337,504950.7,2023-07-17T16:00:30Z,504965.004,NULL,Wohlstand,mafanikio,d,NA,NA,NA,NA,qt,0,3,NA,NA,NA,NA,NA,NA,NA,NA,NA,NA,NA,NA,NA,NA,NA,NA,NA,NA,NA
e684d,deep,flow.Sequence,3_0_3_0_7_0,NA,NA,completion,21568.017,483370.7,483363.653,483380.32,504948.337,504951,2023-07-17T16:00:30Z,504965.004,NULL,Wohlstand,mafanikio,d,NA,NA,NA,NA,qt,NA,3,NA,NA,NA,NA,NA,NA,NA,NA,NA,NA,NA,NA,NA,NA,NA,NA,NA,NA,NA
e684d,shallow,flow.Sequence,3_0_3_0_7_1,NA,NA,skipped,NA,504951.1,NA,NA,504948.337,504951.2,2023-07-17T16:00:30Z,504965.004,NULL,Wohlstand,mafanikio,d,NA,NA,NA,NA,qt,NA,3,NA,NA,NA,NA,NA,NA,NA,NA,NA,NA,NA,NA,NA,NA,NA,NA,NA,NA,NA
e684d,task,flow.Sequence,3_0_3_0_7,NA,NA,completion,21568.017,483370.7,483363.653,483380.32,504948.337,504951.4,2023-07-17T16:00:30Z,504965.004,NULL,Wohlstand,mafanikio,d,NA,NA,NA,NA,qt,NA,3,NA,NA,NA,NA,NA,NA,NA,NA,NA,NA,NA,NA,NA,NA,NA,NA,NA,NA,NA
e684d,block,flow.Loop,3_0_3_0,NA,NA,completion,106874.192,398078.7,398040.811,398074.145,504948.337,504951.6,2023-07-17T16:00:30Z,504965.004,NULL,NA,NA,NA,NA,NA,NA,NA,qt,NA,3,NA,NA,NA,NA,NA,NA,NA,NA,NA,NA,NA,NA,NA,NA,NA,NA,NA,NA,NA
e684d,weiter,canvas.Screen,3_0_3_1,sdf,keypress(Space),response,1392.8959999999,504951.7,504948.337,504965.004,506357.9,506364.6,2023-07-17T16:00:31Z,506381.699,NULL,NA,NA,NA,NA,NA,NA,NA,qt,NA,3,NA,NA,NA,NA,NA,NA,NA,NA,NA,NA,NA,NA,NA,NA,NA,NA,NA,NA,NA
e684d,check continue,flow.Sequence,3_0_3,NA,NA,completion,108283.755,398078.6,398040.811,398074.145,506357.9,506364.8,2023-07-17T16:00:31Z,506381.699,NULL,NA,NA,NA,NA,NA,NA,NA,qt,NA,3,NA,NA,NA,NA,NA,NA,NA,NA,NA,NA,NA,NA,NA,NA,NA,NA,NA,NA,NA
e684d,deep,flow.Sequence,3_0_4_0_0_0,NA,NA,skipped,NA,506397.4,NA,NA,506357.9,506397.4,2023-07-17T16:00:31Z,506381.699,NULL,Orientierung,urekebisho,s,uelekeo,marekebisho,utunzaji,NA,sd,NA,4,NA,NA,NA,NA,NA,NA,NA,NA,NA,NA,NA,NA,NA,NA,NA,NA,NA,NA,NA
e684d,Shallow Question,html.Page,3_0_4_0_0_1_0,NA,NA,form submission,5009.0009999997,506397.5,506365.032,506381.699,511390.7,511391,2023-07-17T16:00:36Z,511399.036,NULL,Orientierung,urekebisho,s,uelekeo,marekebisho,utunzaji,urekebisho,NA,NA,4,NA,NA,NA,NA,NA,NA,NA,NA,NA,NA,NA,NA,NA,NA,NA,NA,NA,NA,NA
e684d,"""Richtig""-Screen",canvas.Screen,3_0_4_0_0_1_1,NA,NA,timeout,5000.1,511394.2,511382.369,511399.036,516382.469,516385.2,2023-07-17T16:00:41Z,516399.136,NULL,Orientierung,urekebisho,s,uelekeo,marekebisho,utunzaji,NA,sd,1,4,NA,NA,NA,NA,NA,NA,NA,NA,NA,NA,NA,NA,NA,NA,NA,NA,NA,NA,NA
e684d,"""Falsch""-Screen",canvas.Screen,3_0_4_0_0_1_2,NA,NA,skipped,NA,516388.4,NA,NA,516382.469,516388.6,2023-07-17T16:00:41Z,516399.136,NULL,Orientierung,urekebisho,s,uelekeo,marekebisho,utunzaji,NA,sd,NA,4,NA,NA,NA,NA,NA,NA,NA,NA,NA,NA,NA,NA,NA,NA,NA,NA,NA,NA,NA
e684d,shallow,flow.Sequence,3_0_4_0_0_1,NA,NA,completion,10000.77,506397.5,506365.032,506381.699,516382.469,516388.9,2023-07-17T16:00:41Z,516399.136,NULL,Orientierung,urekebisho,s,uelekeo,marekebisho,utunzaji,NA,sd,NA,4,NA,NA,NA,NA,NA,NA,NA,NA,NA,NA,NA,NA,NA,NA,NA,NA,NA,NA,NA
e684d,task,flow.Sequence,3_0_4_0_0,NA,NA,completion,10000.77,506397.4,506365.032,506381.699,516382.469,516389,2023-07-17T16:00:41Z,516399.136,NULL,Orientierung,urekebisho,s,uelekeo,marekebisho,utunzaji,NA,sd,NA,4,NA,NA,NA,NA,NA,NA,NA,NA,NA,NA,NA,NA,NA,NA,NA,NA,NA,NA,NA
e684d,deep,flow.Sequence,3_0_4_0_1_0,NA,NA,skipped,NA,516389.2,NA,NA,516382.469,516389.3,2023-07-17T16:00:41Z,516399.136,NULL,Vergnügen,kichekesho,s,dubwana,mpanuko,mtesaji,NA,sd,NA,4,NA,NA,NA,NA,NA,NA,NA,NA,NA,NA,NA,NA,NA,NA,NA,NA,NA,NA,NA
e684d,Shallow Question,html.Page,3_0_4_0_1_1_0,NA,NA,form submission,4276.1639999998,516389.4,516382.469,516399.136,520675.3,520675.7,2023-07-17T16:00:45Z,520683.055,NULL,Vergnügen,kichekesho,s,dubwana,mpanuko,mtesaji,kichekesho,NA,NA,4,NA,NA,NA,NA,NA,NA,NA,NA,NA,NA,NA,NA,NA,NA,NA,NA,NA,NA,NA
e684d,"""Richtig""-Screen",canvas.Screen,3_0_4_0_1_1_1,NA,NA,timeout,5000.1,520678.7,520666.388,520683.055,525666.488,525670.7,2023-07-17T16:00:50Z,525683.155,NULL,Vergnügen,kichekesho,s,dubwana,mpanuko,mtesaji,NA,sd,1,4,NA,NA,NA,NA,NA,NA,NA,NA,NA,NA,NA,NA,NA,NA,NA,NA,NA,NA,NA
e684d,"""Falsch""-Screen",canvas.Screen,3_0_4_0_1_1_2,NA,NA,skipped,NA,525673.9,NA,NA,525666.488,525674.2,2023-07-17T16:00:50Z,525683.155,NULL,Vergnügen,kichekesho,s,dubwana,mpanuko,mtesaji,NA,sd,NA,4,NA,NA,NA,NA,NA,NA,NA,NA,NA,NA,NA,NA,NA,NA,NA,NA,NA,NA,NA
e684d,shallow,flow.Sequence,3_0_4_0_1_1,NA,NA,completion,9267.352,516389.4,516382.469,516399.136,525666.488,525674.5,2023-07-17T16:00:50Z,525683.155,NULL,Vergnügen,kichekesho,s,dubwana,mpanuko,mtesaji,NA,sd,NA,4,NA,NA,NA,NA,NA,NA,NA,NA,NA,NA,NA,NA,NA,NA,NA,NA,NA,NA,NA
e684d,task,flow.Sequence,3_0_4_0_1,NA,NA,completion,9267.352,516389.1,516382.469,516399.136,525666.488,525674.6,2023-07-17T16:00:50Z,525683.155,NULL,Vergnügen,kichekesho,s,dubwana,mpanuko,mtesaji,NA,sd,NA,4,NA,NA,NA,NA,NA,NA,NA,NA,NA,NA,NA,NA,NA,NA,NA,NA,NA,NA,NA
e684d,deep,flow.Sequence,3_0_4_0_2_0,NA,NA,skipped,NA,525674.8,NA,NA,525666.488,525674.9,2023-07-17T16:00:50Z,525683.155,NULL,Notfall,dharura,s,rairai,malalamiko,ahueni,NA,sd,NA,4,NA,NA,NA,NA,NA,NA,NA,NA,NA,NA,NA,NA,NA,NA,NA,NA,NA,NA,NA
e684d,Shallow Question,html.Page,3_0_4_0_2_1_0,NA,NA,form submission,3575.845,525675,525666.488,525683.155,529259,529259.5,2023-07-17T16:00:54Z,529267.076,NULL,Notfall,dharura,s,rairai,malalamiko,ahueni,dharura,NA,NA,4,NA,NA,NA,NA,NA,NA,NA,NA,NA,NA,NA,NA,NA,NA,NA,NA,NA,NA,NA
e684d,"""Richtig""-Screen",canvas.Screen,3_0_4_0_2_1_1,NA,NA,timeout,5000.1,529263,529250.409,529267.076,534250.509,534253.1,2023-07-17T16:00:59Z,534267.176,NULL,Notfall,dharura,s,rairai,malalamiko,ahueni,NA,sd,1,4,NA,NA,NA,NA,NA,NA,NA,NA,NA,NA,NA,NA,NA,NA,NA,NA,NA,NA,NA
e684d,"""Falsch""-Screen",canvas.Screen,3_0_4_0_2_1_2,NA,NA,skipped,NA,534256.2,NA,NA,534250.509,534256.5,2023-07-17T16:00:59Z,534267.176,NULL,Notfall,dharura,s,rairai,malalamiko,ahueni,NA,sd,NA,4,NA,NA,NA,NA,NA,NA,NA,NA,NA,NA,NA,NA,NA,NA,NA,NA,NA,NA,NA
e684d,shallow,flow.Sequence,3_0_4_0_2_1,NA,NA,completion,8567.3539999999,525675,525666.488,525683.155,534250.509,534256.8,2023-07-17T16:00:59Z,534267.176,NULL,Notfall,dharura,s,rairai,malalamiko,ahueni,NA,sd,NA,4,NA,NA,NA,NA,NA,NA,NA,NA,NA,NA,NA,NA,NA,NA,NA,NA,NA,NA,NA
e684d,task,flow.Sequence,3_0_4_0_2,NA,NA,completion,8567.3539999999,525674.8,525666.488,525683.155,534250.509,534256.9,2023-07-17T16:00:59Z,534267.176,NULL,Notfall,dharura,s,rairai,malalamiko,ahueni,NA,sd,NA,4,NA,NA,NA,NA,NA,NA,NA,NA,NA,NA,NA,NA,NA,NA,NA,NA,NA,NA,NA
e684d,Deep Question,html.Page,3_0_4_0_3_0_0,NA,NA,form submission,12225.524,534257.1,534250.509,534267.176,546492.7,546493,2023-07-17T16:01:11Z,546501.272,NULL,Wohlstand,mafanikio,d,NA,NA,NA,mafankinyo,NA,NA,4,NA,NA,NA,NA,NA,NA,NA,NA,NA,NA,NA,NA,NA,NA,NA,NA,NA,NA,NA
e684d,"""Richtig""-Screen",canvas.Screen,3_0_4_0_3_0_1,NA,NA,skipped,NA,546496,NA,NA,546492.7,546496.2,2023-07-17T16:01:11Z,546501.272,NULL,Wohlstand,mafanikio,d,NA,NA,NA,NA,sd,NA,4,NA,NA,NA,NA,NA,NA,NA,NA,NA,NA,NA,NA,NA,NA,NA,NA,NA,NA,NA
e684d,"""Falsch""-Screen",canvas.Screen,3_0_4_0_3_0_2,NA,NA,timeout,5000.1,546497.6,546484.605,546501.272,551484.705,551488,2023-07-17T16:01:16Z,551501.372,NULL,Wohlstand,mafanikio,d,NA,NA,NA,NA,sd,0,4,NA,NA,NA,NA,NA,NA,NA,NA,NA,NA,NA,NA,NA,NA,NA,NA,NA,NA,NA
e684d,deep,flow.Sequence,3_0_4_0_3_0,NA,NA,completion,17217.529,534257,534250.509,534267.176,551484.705,551488.3,2023-07-17T16:01:16Z,551501.372,NULL,Wohlstand,mafanikio,d,NA,NA,NA,NA,sd,NA,4,NA,NA,NA,NA,NA,NA,NA,NA,NA,NA,NA,NA,NA,NA,NA,NA,NA,NA,NA
e684d,shallow,flow.Sequence,3_0_4_0_3_1,NA,NA,skipped,NA,551488.4,NA,NA,551484.705,551488.5,2023-07-17T16:01:16Z,551501.372,NULL,Wohlstand,mafanikio,d,NA,NA,NA,NA,sd,NA,4,NA,NA,NA,NA,NA,NA,NA,NA,NA,NA,NA,NA,NA,NA,NA,NA,NA,NA,NA
e684d,task,flow.Sequence,3_0_4_0_3,NA,NA,completion,17217.529,534257,534250.509,534267.176,551484.705,551488.7,2023-07-17T16:01:16Z,551501.372,NULL,Wohlstand,mafanikio,d,NA,NA,NA,NA,sd,NA,4,NA,NA,NA,NA,NA,NA,NA,NA,NA,NA,NA,NA,NA,NA,NA,NA,NA,NA,NA
e684d,Deep Question,html.Page,3_0_4_0_4_0_0,NA,NA,form submission,13375.928,551488.9,551484.705,551501.372,564877.3,564877.7,2023-07-17T16:01:29Z,564886.06,NULL,Stimmung,kinyongo,d,NA,NA,NA,kinyozo,NA,NA,4,NA,NA,NA,NA,NA,NA,NA,NA,NA,NA,NA,NA,NA,NA,NA,NA,NA,NA,NA
e684d,"""Richtig""-Screen",canvas.Screen,3_0_4_0_4_0_1,NA,NA,skipped,NA,564881.3,NA,NA,564877.3,564881.6,2023-07-17T16:01:29Z,564886.06,NULL,Stimmung,kinyongo,d,NA,NA,NA,NA,sd,NA,4,NA,NA,NA,NA,NA,NA,NA,NA,NA,NA,NA,NA,NA,NA,NA,NA,NA,NA,NA
e684d,"""Falsch""-Screen",canvas.Screen,3_0_4_0_4_0_2,NA,NA,timeout,5000.1,564883,564869.393,564886.06,569869.493,569872.6,2023-07-17T16:01:34Z,569886.16,NULL,Stimmung,kinyongo,d,NA,NA,NA,NA,sd,0,4,NA,NA,NA,NA,NA,NA,NA,NA,NA,NA,NA,NA,NA,NA,NA,NA,NA,NA,NA
e684d,deep,flow.Sequence,3_0_4_0_4_0,NA,NA,completion,18368.121,551488.9,551484.705,551501.372,569869.493,569872.9,2023-07-17T16:01:34Z,569886.16,NULL,Stimmung,kinyongo,d,NA,NA,NA,NA,sd,NA,4,NA,NA,NA,NA,NA,NA,NA,NA,NA,NA,NA,NA,NA,NA,NA,NA,NA,NA,NA
e684d,shallow,flow.Sequence,3_0_4_0_4_1,NA,NA,skipped,NA,569873,NA,NA,569869.493,569873.1,2023-07-17T16:01:34Z,569886.16,NULL,Stimmung,kinyongo,d,NA,NA,NA,NA,sd,NA,4,NA,NA,NA,NA,NA,NA,NA,NA,NA,NA,NA,NA,NA,NA,NA,NA,NA,NA,NA
e684d,task,flow.Sequence,3_0_4_0_4,NA,NA,completion,18368.121,551488.9,551484.705,551501.372,569869.493,569873.3,2023-07-17T16:01:34Z,569886.16,NULL,Stimmung,kinyongo,d,NA,NA,NA,NA,sd,NA,4,NA,NA,NA,NA,NA,NA,NA,NA,NA,NA,NA,NA,NA,NA,NA,NA,NA,NA,NA
e684d,deep,flow.Sequence,3_0_4_0_5_0,NA,NA,skipped,NA,569873.4,NA,NA,569869.493,569873.6,2023-07-17T16:01:34Z,569886.16,NULL,Respekt,heshima,s,changamnao,upinzani,ufanisi,NA,sd,NA,4,NA,NA,NA,NA,NA,NA,NA,NA,NA,NA,NA,NA,NA,NA,NA,NA,NA,NA,NA
e684d,Shallow Question,html.Page,3_0_4_0_5_1_0,NA,NA,form submission,5258.84,569874.7,569869.493,569886.16,575145,575145.3,2023-07-17T16:01:40Z,575153.444,NULL,Respekt,heshima,s,changamnao,upinzani,ufanisi,heshima,NA,NA,4,NA,NA,NA,NA,NA,NA,NA,NA,NA,NA,NA,NA,NA,NA,NA,NA,NA,NA,NA
e684d,"""Richtig""-Screen",canvas.Screen,3_0_4_0_5_1_1,NA,NA,timeout,5000.1,575149.2,575136.777,575153.444,580136.877,580137.7,2023-07-17T16:01:45Z,580153.544,NULL,Respekt,heshima,s,changamnao,upinzani,ufanisi,NA,sd,1,4,NA,NA,NA,NA,NA,NA,NA,NA,NA,NA,NA,NA,NA,NA,NA,NA,NA,NA,NA
e684d,"""Falsch""-Screen",canvas.Screen,3_0_4_0_5_1_2,NA,NA,skipped,NA,580141.2,NA,NA,580136.877,580141.4,2023-07-17T16:01:45Z,580153.544,NULL,Respekt,heshima,s,changamnao,upinzani,ufanisi,NA,sd,NA,4,NA,NA,NA,NA,NA,NA,NA,NA,NA,NA,NA,NA,NA,NA,NA,NA,NA,NA,NA
e684d,shallow,flow.Sequence,3_0_4_0_5_1,NA,NA,completion,10250.717,569874.6,569869.493,569886.16,580136.877,580141.6,2023-07-17T16:01:45Z,580153.544,NULL,Respekt,heshima,s,changamnao,upinzani,ufanisi,NA,sd,NA,4,NA,NA,NA,NA,NA,NA,NA,NA,NA,NA,NA,NA,NA,NA,NA,NA,NA,NA,NA
e684d,task,flow.Sequence,3_0_4_0_5,NA,NA,completion,10250.717,569873.4,569869.493,569886.16,580136.877,580141.8,2023-07-17T16:01:45Z,580153.544,NULL,Respekt,heshima,s,changamnao,upinzani,ufanisi,NA,sd,NA,4,NA,NA,NA,NA,NA,NA,NA,NA,NA,NA,NA,NA,NA,NA,NA,NA,NA,NA,NA
e684d,Deep Question,html.Page,3_0_4_0_6_0_0,NA,NA,form submission,16009.456,580142,580136.877,580153.544,596163,596163.4,2023-07-17T16:02:01Z,596171.498,NULL,Ergänzung,kijalizo,d,NA,NA,NA,mdangani,NA,NA,4,NA,NA,NA,NA,NA,NA,NA,NA,NA,NA,NA,NA,NA,NA,NA,NA,NA,NA,NA
e684d,"""Richtig""-Screen",canvas.Screen,3_0_4_0_6_0_1,NA,NA,skipped,NA,596166.8,NA,NA,596163,596166.9,2023-07-17T16:02:01Z,596171.498,NULL,Ergänzung,kijalizo,d,NA,NA,NA,NA,sd,NA,4,NA,NA,NA,NA,NA,NA,NA,NA,NA,NA,NA,NA,NA,NA,NA,NA,NA,NA,NA
e684d,"""Falsch""-Screen",canvas.Screen,3_0_4_0_6_0_2,NA,NA,timeout,5000.1,596168.3,596154.831,596171.498,601154.931,601159.1,2023-07-17T16:02:06Z,601171.598,NULL,Ergänzung,kijalizo,d,NA,NA,NA,NA,sd,0,4,NA,NA,NA,NA,NA,NA,NA,NA,NA,NA,NA,NA,NA,NA,NA,NA,NA,NA,NA
e684d,deep,flow.Sequence,3_0_4_0_6_0,NA,NA,completion,21001.387,580142,580136.877,580153.544,601154.931,601159.4,2023-07-17T16:02:06Z,601171.598,NULL,Ergänzung,kijalizo,d,NA,NA,NA,NA,sd,NA,4,NA,NA,NA,NA,NA,NA,NA,NA,NA,NA,NA,NA,NA,NA,NA,NA,NA,NA,NA
e684d,shallow,flow.Sequence,3_0_4_0_6_1,NA,NA,skipped,NA,601159.5,NA,NA,601154.931,601159.6,2023-07-17T16:02:06Z,601171.598,NULL,Ergänzung,kijalizo,d,NA,NA,NA,NA,sd,NA,4,NA,NA,NA,NA,NA,NA,NA,NA,NA,NA,NA,NA,NA,NA,NA,NA,NA,NA,NA
e684d,task,flow.Sequence,3_0_4_0_6,NA,NA,completion,21001.387,580141.9,580136.877,580153.544,601154.931,601159.9,2023-07-17T16:02:06Z,601171.598,NULL,Ergänzung,kijalizo,d,NA,NA,NA,NA,sd,NA,4,NA,NA,NA,NA,NA,NA,NA,NA,NA,NA,NA,NA,NA,NA,NA,NA,NA,NA,NA
e684d,Deep Question,html.Page,3_0_4_0_7_0_0,NA,NA,form submission,5408.7019999998,601160,601154.931,601171.598,606580.3,606580.6,2023-07-17T16:02:11Z,606588.895,NULL,Betrüger,mdanganyifu,d,NA,NA,NA,mafango,NA,NA,4,NA,NA,NA,NA,NA,NA,NA,NA,NA,NA,NA,NA,NA,NA,NA,NA,NA,NA,NA
e684d,"""Richtig""-Screen",canvas.Screen,3_0_4_0_7_0_1,NA,NA,skipped,NA,606583.8,NA,NA,606580.3,606584.2,2023-07-17T16:02:11Z,606588.895,NULL,Betrüger,mdanganyifu,d,NA,NA,NA,NA,sd,NA,4,NA,NA,NA,NA,NA,NA,NA,NA,NA,NA,NA,NA,NA,NA,NA,NA,NA,NA,NA
e684d,"""Falsch""-Screen",canvas.Screen,3_0_4_0_7_0_2,NA,NA,timeout,5000.1,606586.5,606572.228,606588.895,611572.328,611575.4,2023-07-17T16:02:16Z,611588.995,NULL,Betrüger,mdanganyifu,d,NA,NA,NA,NA,sd,0,4,NA,NA,NA,NA,NA,NA,NA,NA,NA,NA,NA,NA,NA,NA,NA,NA,NA,NA,NA
e684d,deep,flow.Sequence,3_0_4_0_7_0,NA,NA,completion,10400.73,601159.9,601154.931,601171.598,611572.328,611575.8,2023-07-17T16:02:16Z,611588.995,NULL,Betrüger,mdanganyifu,d,NA,NA,NA,NA,sd,NA,4,NA,NA,NA,NA,NA,NA,NA,NA,NA,NA,NA,NA,NA,NA,NA,NA,NA,NA,NA
e684d,shallow,flow.Sequence,3_0_4_0_7_1,NA,NA,skipped,NA,611575.9,NA,NA,611572.328,611576,2023-07-17T16:02:16Z,611588.995,NULL,Betrüger,mdanganyifu,d,NA,NA,NA,NA,sd,NA,4,NA,NA,NA,NA,NA,NA,NA,NA,NA,NA,NA,NA,NA,NA,NA,NA,NA,NA,NA
e684d,task,flow.Sequence,3_0_4_0_7,NA,NA,completion,10400.73,601159.9,601154.931,601171.598,611572.328,611576.3,2023-07-17T16:02:16Z,611588.995,NULL,Betrüger,mdanganyifu,d,NA,NA,NA,NA,sd,NA,4,NA,NA,NA,NA,NA,NA,NA,NA,NA,NA,NA,NA,NA,NA,NA,NA,NA,NA,NA
e684d,block,flow.Loop,3_0_4_0,NA,NA,completion,105190.629,506397.3,506365.032,506381.699,611572.328,611576.4,2023-07-17T16:02:16Z,611588.995,NULL,NA,NA,NA,NA,NA,NA,NA,sd,NA,4,NA,NA,NA,NA,NA,NA,NA,NA,NA,NA,NA,NA,NA,NA,NA,NA,NA,NA,NA
e684d,weiter,canvas.Screen,3_0_4_1,sdf,keypress(Space),response,1000.1050000001,611576.6,611572.328,611588.995,612589.1,612596.2,2023-07-17T16:02:17Z,612622.349,NULL,NA,NA,NA,NA,NA,NA,NA,sd,NA,4,NA,NA,NA,NA,NA,NA,NA,NA,NA,NA,NA,NA,NA,NA,NA,NA,NA,NA,NA
e684d,check continue,flow.Sequence,3_0_4,NA,NA,completion,106207.401,506397.3,506365.032,506381.699,612589.1,612596.5,2023-07-17T16:02:17Z,612622.349,NULL,NA,NA,NA,NA,NA,NA,NA,sd,NA,4,NA,NA,NA,NA,NA,NA,NA,NA,NA,NA,NA,NA,NA,NA,NA,NA,NA,NA,NA
e684d,Deep Question,html.Page,3_0_5_0_0_0_0,NA,NA,form submission,8275.751,612625.8,612605.682,612622.349,620898.1,620898.4,2023-07-17T16:02:25Z,620906.337,NULL,Wohlstand,mafanikio,d,NA,NA,NA,mafanikio,NA,NA,5,NA,NA,NA,NA,NA,NA,NA,NA,NA,NA,NA,NA,NA,NA,NA,NA,NA,NA,NA
e684d,"""Richtig""-Screen",canvas.Screen,3_0_5_0_0_0_1,NA,NA,timeout,5000.1,620901.9,620889.67,620906.337,625889.77,625894.2,2023-07-17T16:02:30Z,625906.437,NULL,Wohlstand,mafanikio,d,NA,NA,NA,NA,sdf,1,5,NA,NA,NA,NA,NA,NA,NA,NA,NA,NA,NA,NA,NA,NA,NA,NA,NA,NA,NA
e684d,"""Falsch""-Screen",canvas.Screen,3_0_5_0_0_0_2,NA,NA,skipped,NA,625897.4,NA,NA,625889.77,625897.6,2023-07-17T16:02:30Z,625906.437,NULL,Wohlstand,mafanikio,d,NA,NA,NA,NA,sdf,NA,5,NA,NA,NA,NA,NA,NA,NA,NA,NA,NA,NA,NA,NA,NA,NA,NA,NA,NA,NA
e684d,deep,flow.Sequence,3_0_5_0_0_0,NA,NA,completion,13267.421,612625.8,612605.682,612622.349,625889.77,625897.9,2023-07-17T16:02:30Z,625906.437,NULL,Wohlstand,mafanikio,d,NA,NA,NA,NA,sdf,NA,5,NA,NA,NA,NA,NA,NA,NA,NA,NA,NA,NA,NA,NA,NA,NA,NA,NA,NA,NA
e684d,shallow,flow.Sequence,3_0_5_0_0_1,NA,NA,skipped,NA,625898,NA,NA,625889.77,625898.1,2023-07-17T16:02:30Z,625906.437,NULL,Wohlstand,mafanikio,d,NA,NA,NA,NA,sdf,NA,5,NA,NA,NA,NA,NA,NA,NA,NA,NA,NA,NA,NA,NA,NA,NA,NA,NA,NA,NA
e684d,task,flow.Sequence,3_0_5_0_0,NA,NA,completion,13267.421,612625.8,612605.682,612622.349,625889.77,625898.2,2023-07-17T16:02:30Z,625906.437,NULL,Wohlstand,mafanikio,d,NA,NA,NA,NA,sdf,NA,5,NA,NA,NA,NA,NA,NA,NA,NA,NA,NA,NA,NA,NA,NA,NA,NA,NA,NA,NA
e684d,deep,flow.Sequence,3_0_5_0_1_0,NA,NA,skipped,NA,625898.4,NA,NA,625889.77,625898.5,2023-07-17T16:02:30Z,625906.437,NULL,Vergnügen,kichekesho,s,dubwana,mpanuko,mtesaji,NA,sdf,NA,5,NA,NA,NA,NA,NA,NA,NA,NA,NA,NA,NA,NA,NA,NA,NA,NA,NA,NA,NA
e684d,Shallow Question,html.Page,3_0_5_0_1_1_0,NA,NA,form submission,3942.9629999999,625898.5,625889.77,625906.437,629849.4,629849.7,2023-07-17T16:02:34Z,629857.066,NULL,Vergnügen,kichekesho,s,dubwana,mpanuko,mtesaji,kichekesho,NA,NA,5,NA,NA,NA,NA,NA,NA,NA,NA,NA,NA,NA,NA,NA,NA,NA,NA,NA,NA,NA
e684d,"""Richtig""-Screen",canvas.Screen,3_0_5_0_1_1_1,NA,NA,timeout,5000.1,629852.8,629840.399,629857.066,634840.499,634841.8,2023-07-17T16:02:39Z,634857.166,NULL,Vergnügen,kichekesho,s,dubwana,mpanuko,mtesaji,NA,sdf,1,5,NA,NA,NA,NA,NA,NA,NA,NA,NA,NA,NA,NA,NA,NA,NA,NA,NA,NA,NA
e684d,"""Falsch""-Screen",canvas.Screen,3_0_5_0_1_1_2,NA,NA,skipped,NA,634845.1,NA,NA,634840.499,634845.2,2023-07-17T16:02:39Z,634857.166,NULL,Vergnügen,kichekesho,s,dubwana,mpanuko,mtesaji,NA,sdf,NA,5,NA,NA,NA,NA,NA,NA,NA,NA,NA,NA,NA,NA,NA,NA,NA,NA,NA,NA,NA
e684d,shallow,flow.Sequence,3_0_5_0_1_1,NA,NA,completion,8934.0619999999,625898.5,625889.77,625906.437,634840.499,634845.5,2023-07-17T16:02:39Z,634857.166,NULL,Vergnügen,kichekesho,s,dubwana,mpanuko,mtesaji,NA,sdf,NA,5,NA,NA,NA,NA,NA,NA,NA,NA,NA,NA,NA,NA,NA,NA,NA,NA,NA,NA,NA
e684d,task,flow.Sequence,3_0_5_0_1,NA,NA,completion,8934.0619999999,625898.3,625889.77,625906.437,634840.499,634845.7,2023-07-17T16:02:39Z,634857.166,NULL,Vergnügen,kichekesho,s,dubwana,mpanuko,mtesaji,NA,sdf,NA,5,NA,NA,NA,NA,NA,NA,NA,NA,NA,NA,NA,NA,NA,NA,NA,NA,NA,NA,NA
e684d,Deep Question,html.Page,3_0_5_0_2_0_0,NA,NA,form submission,13192.534,634845.8,634840.499,634857.166,648049.7,648050.1,2023-07-17T16:02:53Z,648058.516,NULL,Betrüger,mdanganyifu,d,NA,NA,NA,mfadanizyio,NA,NA,5,NA,NA,NA,NA,NA,NA,NA,NA,NA,NA,NA,NA,NA,NA,NA,NA,NA,NA,NA
e684d,"""Richtig""-Screen",canvas.Screen,3_0_5_0_2_0_1,NA,NA,skipped,NA,648053.6,NA,NA,648049.7,648054,2023-07-17T16:02:53Z,648058.516,NULL,Betrüger,mdanganyifu,d,NA,NA,NA,NA,sdf,NA,5,NA,NA,NA,NA,NA,NA,NA,NA,NA,NA,NA,NA,NA,NA,NA,NA,NA,NA,NA
e684d,"""Falsch""-Screen",canvas.Screen,3_0_5_0_2_0_2,NA,NA,timeout,5000.1000000001,648055.4,648041.849,648058.516,653041.949,653046.3,2023-07-17T16:02:58Z,653058.616,NULL,Betrüger,mdanganyifu,d,NA,NA,NA,NA,sdf,0,5,NA,NA,NA,NA,NA,NA,NA,NA,NA,NA,NA,NA,NA,NA,NA,NA,NA,NA,NA
e684d,deep,flow.Sequence,3_0_5_0_2_0,NA,NA,completion,18184.783,634845.8,634840.499,634857.166,653041.949,653046.6,2023-07-17T16:02:58Z,653058.616,NULL,Betrüger,mdanganyifu,d,NA,NA,NA,NA,sdf,NA,5,NA,NA,NA,NA,NA,NA,NA,NA,NA,NA,NA,NA,NA,NA,NA,NA,NA,NA,NA
e684d,shallow,flow.Sequence,3_0_5_0_2_1,NA,NA,skipped,NA,653046.7,NA,NA,653041.949,653046.8,2023-07-17T16:02:58Z,653058.616,NULL,Betrüger,mdanganyifu,d,NA,NA,NA,NA,sdf,NA,5,NA,NA,NA,NA,NA,NA,NA,NA,NA,NA,NA,NA,NA,NA,NA,NA,NA,NA,NA
e684d,task,flow.Sequence,3_0_5_0_2,NA,NA,completion,18184.783,634845.8,634840.499,634857.166,653041.949,653046.9,2023-07-17T16:02:58Z,653058.616,NULL,Betrüger,mdanganyifu,d,NA,NA,NA,NA,sdf,NA,5,NA,NA,NA,NA,NA,NA,NA,NA,NA,NA,NA,NA,NA,NA,NA,NA,NA,NA,NA
e684d,deep,flow.Sequence,3_0_5_0_3_0,NA,NA,skipped,NA,653047.2,NA,NA,653041.949,653047.3,2023-07-17T16:02:58Z,653058.616,NULL,Respekt,heshima,s,changamnao,upinzani,ufanisi,NA,sdf,NA,5,NA,NA,NA,NA,NA,NA,NA,NA,NA,NA,NA,NA,NA,NA,NA,NA,NA,NA,NA
e684d,Shallow Question,html.Page,3_0_5_0_3_1_0,NA,NA,form submission,4158.9840000001,653047.4,653041.949,653058.616,657217.6,657217.8,2023-07-17T16:03:02Z,657225.919,NULL,Respekt,heshima,s,changamnao,upinzani,ufanisi,heshima,NA,NA,5,NA,NA,NA,NA,NA,NA,NA,NA,NA,NA,NA,NA,NA,NA,NA,NA,NA,NA,NA
e684d,"""Richtig""-Screen",canvas.Screen,3_0_5_0_3_1_1,NA,NA,timeout,5000.1,657221,657209.252,657225.919,662209.352,662212.5,2023-07-17T16:03:07Z,662226.019,NULL,Respekt,heshima,s,changamnao,upinzani,ufanisi,NA,sdf,1,5,NA,NA,NA,NA,NA,NA,NA,NA,NA,NA,NA,NA,NA,NA,NA,NA,NA,NA,NA
e684d,"""Falsch""-Screen",canvas.Screen,3_0_5_0_3_1_2,NA,NA,skipped,NA,662215.8,NA,NA,662209.352,662216,2023-07-17T16:03:07Z,662226.019,NULL,Respekt,heshima,s,changamnao,upinzani,ufanisi,NA,sdf,NA,5,NA,NA,NA,NA,NA,NA,NA,NA,NA,NA,NA,NA,NA,NA,NA,NA,NA,NA,NA
e684d,shallow,flow.Sequence,3_0_5_0_3_1,NA,NA,completion,9150.7359999999,653047.4,653041.949,653058.616,662209.352,662216.3,2023-07-17T16:03:07Z,662226.019,NULL,Respekt,heshima,s,changamnao,upinzani,ufanisi,NA,sdf,NA,5,NA,NA,NA,NA,NA,NA,NA,NA,NA,NA,NA,NA,NA,NA,NA,NA,NA,NA,NA
e684d,task,flow.Sequence,3_0_5_0_3,NA,NA,completion,9150.7359999999,653047.1,653041.949,653058.616,662209.352,662216.5,2023-07-17T16:03:07Z,662226.019,NULL,Respekt,heshima,s,changamnao,upinzani,ufanisi,NA,sdf,NA,5,NA,NA,NA,NA,NA,NA,NA,NA,NA,NA,NA,NA,NA,NA,NA,NA,NA,NA,NA
e684d,deep,flow.Sequence,3_0_5_0_4_0,NA,NA,skipped,NA,662216.6,NA,NA,662209.352,662216.7,2023-07-17T16:03:07Z,662226.019,NULL,Notfall,dharura,s,rairai,malalamiko,ahueni,NA,sdf,NA,5,NA,NA,NA,NA,NA,NA,NA,NA,NA,NA,NA,NA,NA,NA,NA,NA,NA,NA,NA
e684d,Shallow Question,html.Page,3_0_5_0_4_1_0,NA,NA,form submission,3858.481,662216.9,662209.352,662226.019,666084.5,666084.8,2023-07-17T16:03:11Z,666092.763,NULL,Notfall,dharura,s,rairai,malalamiko,ahueni,dharura,NA,NA,5,NA,NA,NA,NA,NA,NA,NA,NA,NA,NA,NA,NA,NA,NA,NA,NA,NA,NA,NA
e684d,"""Richtig""-Screen",canvas.Screen,3_0_5_0_4_1_1,NA,NA,timeout,5000.1,666086,666076.096,666092.763,671076.196,671080.1,2023-07-17T16:03:16Z,671092.863,NULL,Notfall,dharura,s,rairai,malalamiko,ahueni,NA,sdf,1,5,NA,NA,NA,NA,NA,NA,NA,NA,NA,NA,NA,NA,NA,NA,NA,NA,NA,NA,NA
e684d,"""Falsch""-Screen",canvas.Screen,3_0_5_0_4_1_2,NA,NA,skipped,NA,671083.6,NA,NA,671076.196,671083.8,2023-07-17T16:03:16Z,671092.863,NULL,Notfall,dharura,s,rairai,malalamiko,ahueni,NA,sdf,NA,5,NA,NA,NA,NA,NA,NA,NA,NA,NA,NA,NA,NA,NA,NA,NA,NA,NA,NA,NA
e684d,shallow,flow.Sequence,3_0_5_0_4_1,NA,NA,completion,8850.177,662216.9,662209.352,662226.019,671076.196,671084.1,2023-07-17T16:03:16Z,671092.863,NULL,Notfall,dharura,s,rairai,malalamiko,ahueni,NA,sdf,NA,5,NA,NA,NA,NA,NA,NA,NA,NA,NA,NA,NA,NA,NA,NA,NA,NA,NA,NA,NA
e684d,task,flow.Sequence,3_0_5_0_4,NA,NA,completion,8850.177,662216.6,662209.352,662226.019,671076.196,671084.3,2023-07-17T16:03:16Z,671092.863,NULL,Notfall,dharura,s,rairai,malalamiko,ahueni,NA,sdf,NA,5,NA,NA,NA,NA,NA,NA,NA,NA,NA,NA,NA,NA,NA,NA,NA,NA,NA,NA,NA
e684d,Deep Question,html.Page,3_0_5_0_5_0_0,NA,NA,form submission,7592.3369999997,671084.4,671076.196,671092.863,678685.2,678685.5,2023-07-17T16:03:23Z,678693.681,NULL,Stimmung,kinyongo,d,NA,NA,NA,kinyongo,NA,NA,5,NA,NA,NA,NA,NA,NA,NA,NA,NA,NA,NA,NA,NA,NA,NA,NA,NA,NA,NA
e684d,"""Richtig""-Screen",canvas.Screen,3_0_5_0_5_0_1,NA,NA,timeout,5000.1,678688.9,678677.014,678693.681,683677.114,683679.4,2023-07-17T16:03:28Z,683693.781,NULL,Stimmung,kinyongo,d,NA,NA,NA,NA,sdf,1,5,NA,NA,NA,NA,NA,NA,NA,NA,NA,NA,NA,NA,NA,NA,NA,NA,NA,NA,NA
e684d,"""Falsch""-Screen",canvas.Screen,3_0_5_0_5_0_2,NA,NA,skipped,NA,683682.6,NA,NA,683677.114,683682.7,2023-07-17T16:03:28Z,683693.781,NULL,Stimmung,kinyongo,d,NA,NA,NA,NA,sdf,NA,5,NA,NA,NA,NA,NA,NA,NA,NA,NA,NA,NA,NA,NA,NA,NA,NA,NA,NA,NA
e684d,deep,flow.Sequence,3_0_5_0_5_0,NA,NA,completion,12584.251,671084.4,671076.196,671092.863,683677.114,683683,2023-07-17T16:03:28Z,683693.781,NULL,Stimmung,kinyongo,d,NA,NA,NA,NA,sdf,NA,5,NA,NA,NA,NA,NA,NA,NA,NA,NA,NA,NA,NA,NA,NA,NA,NA,NA,NA,NA
e684d,shallow,flow.Sequence,3_0_5_0_5_1,NA,NA,skipped,NA,683683.2,NA,NA,683677.114,683683.2,2023-07-17T16:03:28Z,683693.781,NULL,Stimmung,kinyongo,d,NA,NA,NA,NA,sdf,NA,5,NA,NA,NA,NA,NA,NA,NA,NA,NA,NA,NA,NA,NA,NA,NA,NA,NA,NA,NA
e684d,task,flow.Sequence,3_0_5_0_5,NA,NA,completion,12584.251,671084.4,671076.196,671092.863,683677.114,683683.4,2023-07-17T16:03:28Z,683693.781,NULL,Stimmung,kinyongo,d,NA,NA,NA,NA,sdf,NA,5,NA,NA,NA,NA,NA,NA,NA,NA,NA,NA,NA,NA,NA,NA,NA,NA,NA,NA,NA
e684d,deep,flow.Sequence,3_0_5_0_6_0,NA,NA,skipped,NA,683683.5,NA,NA,683677.114,683683.8,2023-07-17T16:03:28Z,683693.781,NULL,Orientierung,urekebisho,s,uelekeo,marekebisho,utunzaji,NA,sdf,NA,5,NA,NA,NA,NA,NA,NA,NA,NA,NA,NA,NA,NA,NA,NA,NA,NA,NA,NA,NA
e684d,Shallow Question,html.Page,3_0_5_0_6_1_0,NA,NA,form submission,4159.0189999999,683683.9,683677.114,683693.781,687852.8,687853.5,2023-07-17T16:03:32Z,687861.152,NULL,Orientierung,urekebisho,s,uelekeo,marekebisho,utunzaji,urekebisho,NA,NA,5,NA,NA,NA,NA,NA,NA,NA,NA,NA,NA,NA,NA,NA,NA,NA,NA,NA,NA,NA
e684d,"""Richtig""-Screen",canvas.Screen,3_0_5_0_6_1_1,NA,NA,timeout,5000.1,687857,687844.485,687861.152,692844.585,692845.4,2023-07-17T16:03:37Z,692861.252,NULL,Orientierung,urekebisho,s,uelekeo,marekebisho,utunzaji,NA,sdf,1,5,NA,NA,NA,NA,NA,NA,NA,NA,NA,NA,NA,NA,NA,NA,NA,NA,NA,NA,NA
e684d,"""Falsch""-Screen",canvas.Screen,3_0_5_0_6_1_2,NA,NA,skipped,NA,692848.6,NA,NA,692844.585,692848.8,2023-07-17T16:03:37Z,692861.252,NULL,Orientierung,urekebisho,s,uelekeo,marekebisho,utunzaji,NA,sdf,NA,5,NA,NA,NA,NA,NA,NA,NA,NA,NA,NA,NA,NA,NA,NA,NA,NA,NA,NA,NA
e684d,shallow,flow.Sequence,3_0_5_0_6_1,NA,NA,completion,9150.804,683683.9,683677.114,683693.781,692844.585,692849.1,2023-07-17T16:03:37Z,692861.252,NULL,Orientierung,urekebisho,s,uelekeo,marekebisho,utunzaji,NA,sdf,NA,5,NA,NA,NA,NA,NA,NA,NA,NA,NA,NA,NA,NA,NA,NA,NA,NA,NA,NA,NA
e684d,task,flow.Sequence,3_0_5_0_6,NA,NA,completion,9150.804,683683.5,683677.114,683693.781,692844.585,692849.3,2023-07-17T16:03:37Z,692861.252,NULL,Orientierung,urekebisho,s,uelekeo,marekebisho,utunzaji,NA,sdf,NA,5,NA,NA,NA,NA,NA,NA,NA,NA,NA,NA,NA,NA,NA,NA,NA,NA,NA,NA,NA
e684d,Deep Question,html.Page,3_0_5_0_7_0_0,NA,NA,form submission,19626.348,692849.4,692844.585,692861.252,712487.6,712488,2023-07-17T16:03:57Z,712495.976,NULL,Ergänzung,kijalizo,d,NA,NA,NA,izjago,NA,NA,5,NA,NA,NA,NA,NA,NA,NA,NA,NA,NA,NA,NA,NA,NA,NA,NA,NA,NA,NA
e684d,"""Richtig""-Screen",canvas.Screen,3_0_5_0_7_0_1,NA,NA,skipped,NA,712491.9,NA,NA,712487.6,712492.2,2023-07-17T16:03:57Z,712495.976,NULL,Ergänzung,kijalizo,d,NA,NA,NA,NA,sdf,NA,5,NA,NA,NA,NA,NA,NA,NA,NA,NA,NA,NA,NA,NA,NA,NA,NA,NA,NA,NA
e684d,"""Falsch""-Screen",canvas.Screen,3_0_5_0_7_0_2,NA,NA,timeout,5000.1,712493.7,712479.309,712495.976,717479.409,717481,2023-07-17T16:04:02Z,717496.076,NULL,Ergänzung,kijalizo,d,NA,NA,NA,NA,sdf,0,5,NA,NA,NA,NA,NA,NA,NA,NA,NA,NA,NA,NA,NA,NA,NA,NA,NA,NA,NA
e684d,deep,flow.Sequence,3_0_5_0_7_0,NA,NA,completion,24618.157,692849.4,692844.585,692861.252,717479.409,717481.3,2023-07-17T16:04:02Z,717496.076,NULL,Ergänzung,kijalizo,d,NA,NA,NA,NA,sdf,NA,5,NA,NA,NA,NA,NA,NA,NA,NA,NA,NA,NA,NA,NA,NA,NA,NA,NA,NA,NA
e684d,shallow,flow.Sequence,3_0_5_0_7_1,NA,NA,skipped,NA,717481.5,NA,NA,717479.409,717481.6,2023-07-17T16:04:02Z,717496.076,NULL,Ergänzung,kijalizo,d,NA,NA,NA,NA,sdf,NA,5,NA,NA,NA,NA,NA,NA,NA,NA,NA,NA,NA,NA,NA,NA,NA,NA,NA,NA,NA
e684d,task,flow.Sequence,3_0_5_0_7,NA,NA,completion,24618.157,692849.4,692844.585,692861.252,717479.409,717481.8,2023-07-17T16:04:02Z,717496.076,NULL,Ergänzung,kijalizo,d,NA,NA,NA,NA,sdf,NA,5,NA,NA,NA,NA,NA,NA,NA,NA,NA,NA,NA,NA,NA,NA,NA,NA,NA,NA,NA
e684d,block,flow.Loop,3_0_5_0,NA,NA,completion,104857.06,612625.8,612605.682,612622.349,717479.409,717481.9,2023-07-17T16:04:02Z,717496.076,NULL,NA,NA,NA,NA,NA,NA,NA,sdf,NA,5,NA,NA,NA,NA,NA,NA,NA,NA,NA,NA,NA,NA,NA,NA,NA,NA,NA,NA,NA
e684d,weiter,canvas.Screen,3_0_5_1,sdf,keypress(Space),response,1003.5240000001,717482.1,717479.409,717496.076,718499.6,718506.3,2023-07-17T16:04:03Z,719013.338,NULL,NA,NA,NA,NA,NA,NA,NA,sdf,NA,5,NA,NA,NA,NA,NA,NA,NA,NA,NA,NA,NA,NA,NA,NA,NA,NA,NA,NA,NA
e684d,check continue,flow.Sequence,3_0_5,NA,NA,completion,105877.251,612625.8,612605.682,612622.349,718499.6,718506.6,2023-07-17T16:04:03Z,719013.338,NULL,NA,NA,NA,NA,NA,NA,NA,sdf,NA,5,NA,NA,NA,NA,NA,NA,NA,NA,NA,NA,NA,NA,NA,NA,NA,NA,NA,NA,NA
e684d,check continue,flow.Sequence,3_0_6,NA,NA,skipped,NA,718538.2,NA,NA,718499.6,718538.3,2023-07-17T16:04:03Z,719013.338,NULL,NA,NA,NA,NA,NA,NA,NA,dfs,NA,6,NA,NA,NA,NA,NA,NA,NA,NA,NA,NA,NA,NA,NA,NA,NA,NA,NA,NA,NA
e684d,check continue,flow.Sequence,3_0_7,NA,NA,skipped,NA,718562,NA,NA,718499.6,718562.2,2023-07-17T16:04:03Z,719013.338,NULL,NA,NA,NA,NA,NA,NA,NA,df,NA,7,NA,NA,NA,NA,NA,NA,NA,NA,NA,NA,NA,NA,NA,NA,NA,NA,NA,NA,NA
e684d,check continue,flow.Sequence,3_0_8,NA,NA,skipped,NA,718585,NA,NA,718499.6,718585.2,2023-07-17T16:04:03Z,719013.338,NULL,NA,NA,NA,NA,NA,NA,NA,dfs,NA,8,NA,NA,NA,NA,NA,NA,NA,NA,NA,NA,NA,NA,NA,NA,NA,NA,NA,NA,NA
e684d,check continue,flow.Sequence,3_0_9,NA,NA,skipped,NA,718606.5,NA,NA,718499.6,718606.6,2023-07-17T16:04:03Z,719013.338,NULL,NA,NA,NA,NA,NA,NA,NA,dsf,NA,9,NA,NA,NA,NA,NA,NA,NA,NA,NA,NA,NA,NA,NA,NA,NA,NA,NA,NA,NA
e684d,check continue,flow.Sequence,3_0_10,NA,NA,skipped,NA,718629.5,NA,NA,718499.6,718629.6,2023-07-17T16:04:03Z,719013.338,NULL,NA,NA,NA,NA,NA,NA,NA,df,NA,10,NA,NA,NA,NA,NA,NA,NA,NA,NA,NA,NA,NA,NA,NA,NA,NA,NA,NA,NA
e684d,check continue,flow.Sequence,3_0_11,NA,NA,skipped,NA,718652.7,NA,NA,718499.6,718652.9,2023-07-17T16:04:03Z,719013.338,NULL,NA,NA,NA,NA,NA,NA,NA,dfs,NA,11,NA,NA,NA,NA,NA,NA,NA,NA,NA,NA,NA,NA,NA,NA,NA,NA,NA,NA,NA
e684d,check continue,flow.Sequence,3_0_12,NA,NA,skipped,NA,718673.7,NA,NA,718499.6,718673.8,2023-07-17T16:04:03Z,719013.338,NULL,NA,NA,NA,NA,NA,NA,NA,dsf,NA,12,NA,NA,NA,NA,NA,NA,NA,NA,NA,NA,NA,NA,NA,NA,NA,NA,NA,NA,NA
e684d,check continue,flow.Sequence,3_0_13,NA,NA,skipped,NA,718691.7,NA,NA,718499.6,718691.8,2023-07-17T16:04:03Z,719013.338,NULL,NA,NA,NA,NA,NA,NA,NA,dsf,NA,13,NA,NA,NA,NA,NA,NA,NA,NA,NA,NA,NA,NA,NA,NA,NA,NA,NA,NA,NA
e684d,check continue,flow.Sequence,3_0_14,NA,NA,skipped,NA,718711,NA,NA,718499.6,718711.2,2023-07-17T16:04:03Z,719013.338,NULL,NA,NA,NA,NA,NA,NA,NA,NA,NA,14,NA,NA,NA,NA,NA,NA,NA,NA,NA,NA,NA,NA,NA,NA,NA,NA,NA,NA,NA
e684d,check continue,flow.Sequence,3_0_15,NA,NA,skipped,NA,718730.3,NA,NA,718499.6,718730.3,2023-07-17T16:04:03Z,719013.338,NULL,NA,NA,NA,NA,NA,NA,NA,NA,NA,15,NA,NA,NA,NA,NA,NA,NA,NA,NA,NA,NA,NA,NA,NA,NA,NA,NA,NA,NA
e684d,check continue,flow.Sequence,3_0_16,NA,NA,skipped,NA,718748.6,NA,NA,718499.6,718748.7,2023-07-17T16:04:03Z,719013.338,NULL,NA,NA,NA,NA,NA,NA,NA,NA,NA,16,NA,NA,NA,NA,NA,NA,NA,NA,NA,NA,NA,NA,NA,NA,NA,NA,NA,NA,NA
e684d,check continue,flow.Sequence,3_0_17,NA,NA,skipped,NA,718766.6,NA,NA,718499.6,718766.7,2023-07-17T16:04:03Z,719013.338,NULL,NA,NA,NA,NA,NA,NA,NA,NA,NA,17,NA,NA,NA,NA,NA,NA,NA,NA,NA,NA,NA,NA,NA,NA,NA,NA,NA,NA,NA
e684d,check continue,flow.Sequence,3_0_18,NA,NA,skipped,NA,718784.3,NA,NA,718499.6,718784.5,2023-07-17T16:04:03Z,719013.338,NULL,NA,NA,NA,NA,NA,NA,NA,NA,NA,18,NA,NA,NA,NA,NA,NA,NA,NA,NA,NA,NA,NA,NA,NA,NA,NA,NA,NA,NA
e684d,check continue,flow.Sequence,3_0_19,NA,NA,skipped,NA,718802.2,NA,NA,718499.6,718802.3,2023-07-17T16:04:03Z,719013.338,NULL,NA,NA,NA,NA,NA,NA,NA,NA,NA,19,NA,NA,NA,NA,NA,NA,NA,NA,NA,NA,NA,NA,NA,NA,NA,NA,NA,NA,NA
e684d,check continue,flow.Sequence,3_0_20,NA,NA,skipped,NA,718820.6,NA,NA,718499.6,718820.8,2023-07-17T16:04:03Z,719013.338,NULL,NA,NA,NA,NA,NA,NA,NA,NA,NA,20,NA,NA,NA,NA,NA,NA,NA,NA,NA,NA,NA,NA,NA,NA,NA,NA,NA,NA,NA
e684d,check continue,flow.Sequence,3_0_21,NA,NA,skipped,NA,718837.9,NA,NA,718499.6,718838,2023-07-17T16:04:03Z,719013.338,NULL,NA,NA,NA,NA,NA,NA,NA,NA,NA,21,NA,NA,NA,NA,NA,NA,NA,NA,NA,NA,NA,NA,NA,NA,NA,NA,NA,NA,NA
e684d,check continue,flow.Sequence,3_0_22,NA,NA,skipped,NA,718860.3,NA,NA,718499.6,718860.5,2023-07-17T16:04:03Z,719013.338,NULL,NA,NA,NA,NA,NA,NA,NA,NA,NA,22,NA,NA,NA,NA,NA,NA,NA,NA,NA,NA,NA,NA,NA,NA,NA,NA,NA,NA,NA
e684d,check continue,flow.Sequence,3_0_23,NA,NA,skipped,NA,718878.3,NA,NA,718499.6,718878.3,2023-07-17T16:04:03Z,719013.338,NULL,NA,NA,NA,NA,NA,NA,NA,NA,NA,23,NA,NA,NA,NA,NA,NA,NA,NA,NA,NA,NA,NA,NA,NA,NA,NA,NA,NA,NA
e684d,check continue,flow.Sequence,3_0_24,NA,NA,skipped,NA,718899.6,NA,NA,718499.6,718899.6,2023-07-17T16:04:03Z,719013.338,NULL,NA,NA,NA,NA,NA,NA,NA,NA,NA,24,NA,NA,NA,NA,NA,NA,NA,NA,NA,NA,NA,NA,NA,NA,NA,NA,NA,NA,NA
e684d,check continue,flow.Sequence,3_0_25,NA,NA,skipped,NA,718920.3,NA,NA,718499.6,718920.6,2023-07-17T16:04:04Z,719013.338,NULL,NA,NA,NA,NA,NA,NA,NA,NA,NA,25,NA,NA,NA,NA,NA,NA,NA,NA,NA,NA,NA,NA,NA,NA,NA,NA,NA,NA,NA
e684d,check continue,flow.Sequence,3_0_26,NA,NA,skipped,NA,718937.9,NA,NA,718499.6,718938.1,2023-07-17T16:04:04Z,719013.338,NULL,NA,NA,NA,NA,NA,NA,NA,NA,NA,26,NA,NA,NA,NA,NA,NA,NA,NA,NA,NA,NA,NA,NA,NA,NA,NA,NA,NA,NA
e684d,check continue,flow.Sequence,3_0_27,NA,NA,skipped,NA,718956.9,NA,NA,718499.6,718956.9,2023-07-17T16:04:04Z,719013.338,NULL,NA,NA,NA,NA,NA,NA,NA,NA,NA,27,NA,NA,NA,NA,NA,NA,NA,NA,NA,NA,NA,NA,NA,NA,NA,NA,NA,NA,NA
e684d,check continue,flow.Sequence,3_0_28,NA,NA,skipped,NA,718972.9,NA,NA,718499.6,718973.1,2023-07-17T16:04:04Z,719013.338,NULL,NA,NA,NA,NA,NA,NA,NA,NA,NA,28,NA,NA,NA,NA,NA,NA,NA,NA,NA,NA,NA,NA,NA,NA,NA,NA,NA,NA,NA
e684d,check continue,flow.Sequence,3_0_29,NA,NA,skipped,NA,719020.3,NA,NA,718499.6,719020.4,2023-07-17T16:04:04Z,719013.338,NULL,NA,NA,NA,NA,NA,NA,NA,NA,NA,29,NA,NA,NA,NA,NA,NA,NA,NA,NA,NA,NA,NA,NA,NA,NA,NA,NA,NA,NA
e684d,until continue,flow.Loop,3_0,NA,NA,completion,604795.708,113672.8,113687.225,113703.892,718499.6,719020.6,2023-07-17T16:04:04Z,719013.338,NULL,NA,NA,NA,NA,NA,NA,NA,NA,NA,NA,NA,NA,NA,NA,NA,NA,NA,NA,NA,NA,NA,NA,NA,NA,NA,NA,NA,NA,NA
e684d,block 1,flow.Sequence,3,NA,NA,completion,604795.708,113672.7,113687.225,113703.892,718499.6,719020.6,2023-07-17T16:04:04Z,719013.338,NULL,NA,NA,NA,NA,NA,NA,NA,NA,NA,NA,NA,NA,NA,NA,NA,NA,NA,NA,NA,NA,NA,NA,NA,NA,NA,NA,NA,NA,NA
e684d,1.Part Over,canvas.Screen,4,NA,keypress(Space),response,1791.0619999999,719020.7,718496.661,719013.338,720804.4,720810.8,2023-07-17T16:04:05Z,720896.709,NULL,NA,NA,NA,NA,NA,NA,NA,NA,NA,NA,NA,NA,NA,NA,NA,NA,NA,NA,NA,NA,NA,NA,NA,NA,NA,NA,NA,NA,NA
e684d,deep,flow.Sequence,5_0_0_0_0_0,NA,NA,skipped,NA,720879.9,NA,NA,720804.4,720880,2023-07-17T16:04:05Z,720896.709,NULL,Tester,wanaojaribu,s,sherti,sihiri,mlipuko,NA,sdf,NA,0,NA,NA,NA,NA,NA,NA,NA,NA,NA,NA,NA,NA,NA,NA,NA,NA,NA,NA,NA
e684d,Shallow Question,html.Page,5_0_0_0_0_1_0,NA,NA,form submission,10175.891,720880.1,720880.042,720896.709,731072.6,731072.9,2023-07-17T16:04:16Z,731080.896,NULL,Tester,wanaojaribu,s,sherti,sihiri,mlipuko,sihiri,NA,NA,0,NA,NA,NA,NA,NA,NA,NA,NA,NA,NA,NA,NA,NA,NA,NA,NA,NA,NA,NA
e684d,"""Richtig""-Screen",canvas.Screen,5_0_0_0_0_1_1,NA,NA,skipped,NA,731075.9,NA,NA,731072.6,731076.2,2023-07-17T16:04:16Z,731080.896,NULL,Tester,wanaojaribu,s,sherti,sihiri,mlipuko,NA,sdf,NA,0,NA,NA,NA,NA,NA,NA,NA,NA,NA,NA,NA,NA,NA,NA,NA,NA,NA,NA,NA
e684d,"""Falsch""-Screen",canvas.Screen,5_0_0_0_0_1_2,NA,NA,timeout,5000.1000000001,731077.4,731064.229,731080.896,736064.329,736066.2,2023-07-17T16:04:21Z,736080.996,NULL,Tester,wanaojaribu,s,sherti,sihiri,mlipuko,NA,sdf,0,0,NA,NA,NA,NA,NA,NA,NA,NA,NA,NA,NA,NA,NA,NA,NA,NA,NA,NA,NA
e684d,shallow,flow.Sequence,5_0_0_0_0_1,NA,NA,completion,15167.62,720880.1,720880.042,720896.709,736064.329,736066.6,2023-07-17T16:04:21Z,736080.996,NULL,Tester,wanaojaribu,s,sherti,sihiri,mlipuko,NA,sdf,NA,0,NA,NA,NA,NA,NA,NA,NA,NA,NA,NA,NA,NA,NA,NA,NA,NA,NA,NA,NA
e684d,task,flow.Sequence,5_0_0_0_0,NA,NA,completion,15167.62,720879.9,720880.042,720896.709,736064.329,736066.8,2023-07-17T16:04:21Z,736080.996,NULL,Tester,wanaojaribu,s,sherti,sihiri,mlipuko,NA,sdf,NA,0,NA,NA,NA,NA,NA,NA,NA,NA,NA,NA,NA,NA,NA,NA,NA,NA,NA,NA,NA
e684d,Deep Question,html.Page,5_0_0_0_1_0_0,NA,NA,form submission,6225.4039999999,736067,736064.329,736080.996,742306.4,742306.8,2023-07-17T16:04:27Z,742314.973,NULL,Entwicklung,maendeleo,d,NA,NA,NA,developi,NA,NA,0,NA,NA,NA,NA,NA,NA,NA,NA,NA,NA,NA,NA,NA,NA,NA,NA,NA,NA,NA
e684d,"""Richtig""-Screen",canvas.Screen,5_0_0_0_1_0_1,NA,NA,skipped,NA,742310.8,NA,NA,742306.4,742311.1,2023-07-17T16:04:27Z,742314.973,NULL,Entwicklung,maendeleo,d,NA,NA,NA,NA,sdf,NA,0,NA,NA,NA,NA,NA,NA,NA,NA,NA,NA,NA,NA,NA,NA,NA,NA,NA,NA,NA
e684d,"""Falsch""-Screen",canvas.Screen,5_0_0_0_1_0_2,NA,NA,timeout,5000.1,742312.3,742298.306,742314.973,747298.406,747302,2023-07-17T16:04:32Z,747315.073,NULL,Entwicklung,maendeleo,d,NA,NA,NA,NA,sdf,0,0,NA,NA,NA,NA,NA,NA,NA,NA,NA,NA,NA,NA,NA,NA,NA,NA,NA,NA,NA
