observation,sender,sender_type,sender_id,response,response_action,ended_on,duration,time_run,time_render,time_show,time_end,time_commit,timestamp,time_switch,distractors,german,swahili,enc,distractor1,distractor2,distractor3,response_2,x,correct,x_2,url_vp,url_sess,meta_labjs_version,meta_location,meta_user_agent,meta_platform,meta_language,meta_locale,meta_time_zone,meta_timezone_offset,meta_screen_width,meta_screen_height,meta_scroll_width,meta_scroll_height,meta_window_inner_width,meta_window_inner_height,meta_device_pixel_ratio,meta_labjs_build_flavor,meta_labjs_build_commit
b24a8,Introduction general,canvas.Screen,0,weiter,keypress(q),response,1227753.127,481.5,264.215,480.873,1228234,1228247.7,2023-08-08T09:35:15Z,1228251.861,NULL,NA,NA,NA,NA,NA,NA,NA,NA,NA,NA,129,3,20.2.4,https://neurocog.fernuni.ch/studies/vweber/encoding_immediate/index.html?vp=129&sess=3,"Mozilla/5.0 (Macintosh; Intel Mac OS X 10_15_7) AppleWebKit/537.36 (KHTML, like Gecko) Chrome/115.0.0.0 Safari/537.36",MacIntel,de-DE,de,Europe/Zurich,-120,1440,900,1347,654,1347,702,2,production,f5b4a49f956347addd546a832a3327688c2c0fef
b24a8,Introduction practice,canvas.Screen,1_0,NA,keypress(Space),response,2140.2390000015,1228247.8,1228235.195,1228251.861,1230392.1,1230395.2,2023-08-08T09:35:17Z,1230412.209,NULL,NA,NA,NA,NA,NA,NA,NA,NA,NA,NA,NA,NA,NA,NA,NA,NA,NA,NA,NA,NA,NA,NA,NA,NA,NA,NA,NA,NA,NA
b24a8,Deep Question,html.Page,1_1_0_0_0,NA,NA,form submission,9706.1909999985,1230395.7,1230395.543,1230412.209,1240118.4,1240118.6,2023-08-08T09:35:26Z,1240128.989,"c(""distractor1"", ""distractor2"", ""distractor3"")",Schatten,kivuli,d,NA,NA,NA,shadi,NA,NA,NA,NA,NA,NA,NA,NA,NA,NA,NA,NA,NA,NA,NA,NA,NA,NA,NA,NA,NA,NA
b24a8,"""Richtig""-Screen",canvas.Screen,1_1_0_0_1,NA,NA,skipped,NA,1240119,NA,NA,1240118.4,1240119.1,2023-08-08T09:35:26Z,1240128.989,"c(""distractor1"", ""distractor2"", ""distractor3"")",Schatten,kivuli,d,NA,NA,NA,NA,NA,NA,NA,NA,NA,NA,NA,NA,NA,NA,NA,NA,NA,NA,NA,NA,NA,NA,NA,NA,NA,NA
b24a8,"""Falsch""-Screen",canvas.Screen,1_1_0_0_2,NA,NA,timeout,4999.8,1240119.4,1240112.323,1240128.989,1245112.123,1245118.1,2023-08-08T09:35:31Z,1245128.789,"c(""distractor1"", ""distractor2"", ""distractor3"")",Schatten,kivuli,d,NA,NA,NA,NA,NA,0,NA,NA,NA,NA,NA,NA,NA,NA,NA,NA,NA,NA,NA,NA,NA,NA,NA,NA,NA,NA
b24a8,deep,flow.Sequence,1_1_0_0,NA,NA,completion,14699.914,1230395.6,1230395.543,1230412.209,1245112.123,1245118.5,2023-08-08T09:35:31Z,1245128.789,"c(""distractor1"", ""distractor2"", ""distractor3"")",Schatten,kivuli,d,NA,NA,NA,NA,NA,NA,NA,NA,NA,NA,NA,NA,NA,NA,NA,NA,NA,NA,NA,NA,NA,NA,NA,NA,NA,NA
b24a8,shallow,flow.Sequence,1_1_0_1,NA,NA,skipped,NA,1245118.6,NA,NA,1245112.123,1245118.8,2023-08-08T09:35:31Z,1245128.789,"c(""distractor1"", ""distractor2"", ""distractor3"")",Schatten,kivuli,d,NA,NA,NA,NA,NA,NA,NA,NA,NA,NA,NA,NA,NA,NA,NA,NA,NA,NA,NA,NA,NA,NA,NA,NA,NA,NA
b24a8,task,flow.Sequence,1_1_0,NA,NA,completion,14699.914,1230395.6,1230395.543,1230412.209,1245112.123,1245118.9,2023-08-08T09:35:31Z,1245128.789,"c(""distractor1"", ""distractor2"", ""distractor3"")",Schatten,kivuli,d,NA,NA,NA,NA,NA,NA,NA,NA,NA,NA,NA,NA,NA,NA,NA,NA,NA,NA,NA,NA,NA,NA,NA,NA,NA,NA
b24a8,Deep Question,html.Page,1_1_1_0_0,NA,NA,form submission,7560.0110000006,1245119.1,1245112.123,1245128.789,1252688.8,1252689.2,2023-08-08T09:35:39Z,1252695.651,"c(""distractor1"", ""distractor2"", ""distractor3"")",Qualität,mtindo,d,NA,NA,NA,ubini,NA,NA,NA,NA,NA,NA,NA,NA,NA,NA,NA,NA,NA,NA,NA,NA,NA,NA,NA,NA,NA,NA
b24a8,"""Richtig""-Screen",canvas.Screen,1_1_1_0_1,NA,NA,skipped,NA,1252692.9,NA,NA,1252688.8,1252693,2023-08-08T09:35:39Z,1252695.651,"c(""distractor1"", ""distractor2"", ""distractor3"")",Qualität,mtindo,d,NA,NA,NA,NA,NA,NA,NA,NA,NA,NA,NA,NA,NA,NA,NA,NA,NA,NA,NA,NA,NA,NA,NA,NA,NA,NA
b24a8,"""Falsch""-Screen",canvas.Screen,1_1_1_0_2,NA,NA,timeout,4999.7999999998,1252693.9,1252678.985,1252695.651,1257678.785,1257683.7,2023-08-08T09:35:44Z,1257695.451,"c(""distractor1"", ""distractor2"", ""distractor3"")",Qualität,mtindo,d,NA,NA,NA,NA,NA,0,NA,NA,NA,NA,NA,NA,NA,NA,NA,NA,NA,NA,NA,NA,NA,NA,NA,NA,NA,NA
b24a8,deep,flow.Sequence,1_1_1_0,NA,NA,completion,12549.996,1245119,1245112.123,1245128.789,1257678.785,1257684.3,2023-08-08T09:35:44Z,1257695.451,"c(""distractor1"", ""distractor2"", ""distractor3"")",Qualität,mtindo,d,NA,NA,NA,NA,NA,NA,NA,NA,NA,NA,NA,NA,NA,NA,NA,NA,NA,NA,NA,NA,NA,NA,NA,NA,NA,NA
b24a8,shallow,flow.Sequence,1_1_1_1,NA,NA,skipped,NA,1257684.5,NA,NA,1257678.785,1257684.6,2023-08-08T09:35:44Z,1257695.451,"c(""distractor1"", ""distractor2"", ""distractor3"")",Qualität,mtindo,d,NA,NA,NA,NA,NA,NA,NA,NA,NA,NA,NA,NA,NA,NA,NA,NA,NA,NA,NA,NA,NA,NA,NA,NA,NA,NA
b24a8,task,flow.Sequence,1_1_1,NA,NA,completion,12549.996,1245119,1245112.123,1245128.789,1257678.785,1257684.9,2023-08-08T09:35:44Z,1257695.451,"c(""distractor1"", ""distractor2"", ""distractor3"")",Qualität,mtindo,d,NA,NA,NA,NA,NA,NA,NA,NA,NA,NA,NA,NA,NA,NA,NA,NA,NA,NA,NA,NA,NA,NA,NA,NA,NA,NA
b24a8,deep,flow.Sequence,1_1_2_0,NA,NA,skipped,NA,1257685.1,NA,NA,1257678.785,1257685.2,2023-08-08T09:35:44Z,1257695.451,"c(""distractor1"", ""distractor2"", ""distractor3"")",Kritik,lawama,s,dereva,nafasi,mawazo,NA,NA,NA,NA,NA,NA,NA,NA,NA,NA,NA,NA,NA,NA,NA,NA,NA,NA,NA,NA,NA,NA,NA
b24a8,Shallow Question,html.Page,1_1_2_1_0,NA,NA,form submission,7756.6490000016,1257685.4,1257678.785,1257695.451,1265452.1,1265452.3,2023-08-08T09:35:52Z,1265462.262,"c(""distractor1"", ""distractor2"", ""distractor3"")",Kritik,lawama,s,dereva,nafasi,mawazo,nafasi,NA,NA,NA,NA,NA,NA,NA,NA,NA,NA,NA,NA,NA,NA,NA,NA,NA,NA,NA,NA,NA,NA
b24a8,"""Richtig""-Screen",canvas.Screen,1_1_2_1_1,NA,NA,skipped,NA,1265455.1,NA,NA,1265452.1,1265455.2,2023-08-08T09:35:52Z,1265462.262,"c(""distractor1"", ""distractor2"", ""distractor3"")",Kritik,lawama,s,dereva,nafasi,mawazo,NA,NA,NA,NA,NA,NA,NA,NA,NA,NA,NA,NA,NA,NA,NA,NA,NA,NA,NA,NA,NA,NA,NA
b24a8,"""Falsch""-Screen",canvas.Screen,1_1_2_1_2,NA,NA,timeout,5000.3669999999,1265455.7,1265445.596,1265462.262,1270445.963,1270449.9,2023-08-08T09:35:57Z,1270462.629,"c(""distractor1"", ""distractor2"", ""distractor3"")",Kritik,lawama,s,dereva,nafasi,mawazo,NA,NA,0,NA,NA,NA,NA,NA,NA,NA,NA,NA,NA,NA,NA,NA,NA,NA,NA,NA,NA,NA,NA
b24a8,shallow,flow.Sequence,1_1_2_1,NA,NA,completion,12750.512,1257685.3,1257678.785,1257695.451,1270445.963,1270450.3,2023-08-08T09:35:57Z,1270462.629,"c(""distractor1"", ""distractor2"", ""distractor3"")",Kritik,lawama,s,dereva,nafasi,mawazo,NA,NA,NA,NA,NA,NA,NA,NA,NA,NA,NA,NA,NA,NA,NA,NA,NA,NA,NA,NA,NA,NA,NA
b24a8,task,flow.Sequence,1_1_2,NA,NA,completion,12750.512,1257685,1257678.785,1257695.451,1270445.963,1270450.6,2023-08-08T09:35:57Z,1270462.629,"c(""distractor1"", ""distractor2"", ""distractor3"")",Kritik,lawama,s,dereva,nafasi,mawazo,NA,NA,NA,NA,NA,NA,NA,NA,NA,NA,NA,NA,NA,NA,NA,NA,NA,NA,NA,NA,NA,NA,NA
b24a8,deep,flow.Sequence,1_1_3_0,NA,NA,skipped,NA,1270450.8,NA,NA,1270445.963,1270450.9,2023-08-08T09:35:57Z,1270462.629,"c(""distractor1"", ""distractor2"", ""distractor3"")",Rückhalt,msaada,s,muhula,auwali,kiwimbe,NA,NA,NA,NA,NA,NA,NA,NA,NA,NA,NA,NA,NA,NA,NA,NA,NA,NA,NA,NA,NA,NA,NA
b24a8,Shallow Question,html.Page,1_1_3_1_0,NA,NA,form submission,5855.9710000015,1270451,1270445.963,1270462.629,1276318.6,1276318.9,2023-08-08T09:36:03Z,1276329.061,"c(""distractor1"", ""distractor2"", ""distractor3"")",Rückhalt,msaada,s,muhula,auwali,kiwimbe,kiwimbe,NA,NA,NA,NA,NA,NA,NA,NA,NA,NA,NA,NA,NA,NA,NA,NA,NA,NA,NA,NA,NA,NA
b24a8,"""Richtig""-Screen",canvas.Screen,1_1_3_1_1,NA,NA,skipped,NA,1276321.4,NA,NA,1276318.6,1276321.5,2023-08-08T09:36:03Z,1276329.061,"c(""distractor1"", ""distractor2"", ""distractor3"")",Rückhalt,msaada,s,muhula,auwali,kiwimbe,NA,NA,NA,NA,NA,NA,NA,NA,NA,NA,NA,NA,NA,NA,NA,NA,NA,NA,NA,NA,NA,NA,NA
b24a8,"""Falsch""-Screen",canvas.Screen,1_1_3_1_2,NA,NA,timeout,5000.1710000001,1276322.2,1276312.395,1276329.061,1281312.566,1281315.9,2023-08-08T09:36:08Z,1281329.232,"c(""distractor1"", ""distractor2"", ""distractor3"")",Rückhalt,msaada,s,muhula,auwali,kiwimbe,NA,NA,0,NA,NA,NA,NA,NA,NA,NA,NA,NA,NA,NA,NA,NA,NA,NA,NA,NA,NA,NA,NA
b24a8,shallow,flow.Sequence,1_1_3_1,NA,NA,completion,10849.937,1270451,1270445.963,1270462.629,1281312.566,1281316,2023-08-08T09:36:08Z,1281329.232,"c(""distractor1"", ""distractor2"", ""distractor3"")",Rückhalt,msaada,s,muhula,auwali,kiwimbe,NA,NA,NA,NA,NA,NA,NA,NA,NA,NA,NA,NA,NA,NA,NA,NA,NA,NA,NA,NA,NA,NA,NA
b24a8,task,flow.Sequence,1_1_3,NA,NA,completion,10849.937,1270450.7,1270445.963,1270462.629,1281312.566,1281316.2,2023-08-08T09:36:08Z,1281329.232,"c(""distractor1"", ""distractor2"", ""distractor3"")",Rückhalt,msaada,s,muhula,auwali,kiwimbe,NA,NA,NA,NA,NA,NA,NA,NA,NA,NA,NA,NA,NA,NA,NA,NA,NA,NA,NA,NA,NA,NA,NA
b24a8,deep,flow.Sequence,1_1_4_0,NA,NA,skipped,NA,1281316.2,NA,NA,1281312.566,1281316.2,2023-08-08T09:36:08Z,1281329.232,"c(""distractor1"", ""distractor2"", ""distractor3"")",Gegenwart,hadhara,s,katiba,jokofu,mikopo,NA,NA,NA,NA,NA,NA,NA,NA,NA,NA,NA,NA,NA,NA,NA,NA,NA,NA,NA,NA,NA,NA,NA
b24a8,Shallow Question,html.Page,1_1_4_1_0,NA,NA,form submission,10822.967999999,1281316.3,1281312.566,1281329.232,1292152.2,1292152.4,2023-08-08T09:36:18Z,1292162.752,"c(""distractor1"", ""distractor2"", ""distractor3"")",Gegenwart,hadhara,s,katiba,jokofu,mikopo,hadhara,NA,NA,NA,NA,NA,NA,NA,NA,NA,NA,NA,NA,NA,NA,NA,NA,NA,NA,NA,NA,NA,NA
b24a8,"""Richtig""-Screen",canvas.Screen,1_1_4_1_1,NA,NA,timeout,4999.7999999998,1292154.9,1292146.086,1292162.752,1297145.886,1297148,2023-08-08T09:36:23Z,1297162.552,"c(""distractor1"", ""distractor2"", ""distractor3"")",Gegenwart,hadhara,s,katiba,jokofu,mikopo,NA,NA,1,NA,NA,NA,NA,NA,NA,NA,NA,NA,NA,NA,NA,NA,NA,NA,NA,NA,NA,NA,NA
b24a8,"""Falsch""-Screen",canvas.Screen,1_1_4_1_2,NA,NA,skipped,NA,1297152.6,NA,NA,1297145.886,1297152.8,2023-08-08T09:36:23Z,1297162.552,"c(""distractor1"", ""distractor2"", ""distractor3"")",Gegenwart,hadhara,s,katiba,jokofu,mikopo,NA,NA,NA,NA,NA,NA,NA,NA,NA,NA,NA,NA,NA,NA,NA,NA,NA,NA,NA,NA,NA,NA,NA
b24a8,shallow,flow.Sequence,1_1_4_1,NA,NA,completion,15816.654,1281316.2,1281312.566,1281329.232,1297145.886,1297153,2023-08-08T09:36:23Z,1297162.552,"c(""distractor1"", ""distractor2"", ""distractor3"")",Gegenwart,hadhara,s,katiba,jokofu,mikopo,NA,NA,NA,NA,NA,NA,NA,NA,NA,NA,NA,NA,NA,NA,NA,NA,NA,NA,NA,NA,NA,NA,NA
b24a8,task,flow.Sequence,1_1_4,NA,NA,completion,15816.654,1281316.2,1281312.566,1281329.232,1297145.886,1297153.3,2023-08-08T09:36:23Z,1297162.552,"c(""distractor1"", ""distractor2"", ""distractor3"")",Gegenwart,hadhara,s,katiba,jokofu,mikopo,NA,NA,NA,NA,NA,NA,NA,NA,NA,NA,NA,NA,NA,NA,NA,NA,NA,NA,NA,NA,NA,NA,NA
b24a8,Deep Question,html.Page,1_1_5_0_0,NA,NA,form submission,7815.8479999986,1297153.4,1297145.886,1297162.552,1304978.4,1304978.6,2023-08-08T09:36:31Z,1304979.396,"c(""distractor1"", ""distractor2"", ""distractor3"")",Gesundheit,salama,d,NA,NA,NA,mbati,NA,NA,NA,NA,NA,NA,NA,NA,NA,NA,NA,NA,NA,NA,NA,NA,NA,NA,NA,NA,NA,NA
b24a8,"""Richtig""-Screen",canvas.Screen,1_1_5_0_1,NA,NA,skipped,NA,1304980.8,NA,NA,1304978.4,1304981,2023-08-08T09:36:31Z,1304979.396,"c(""distractor1"", ""distractor2"", ""distractor3"")",Gesundheit,salama,d,NA,NA,NA,NA,NA,NA,NA,NA,NA,NA,NA,NA,NA,NA,NA,NA,NA,NA,NA,NA,NA,NA,NA,NA,NA,NA
b24a8,"""Falsch""-Screen",canvas.Screen,1_1_5_0_2,NA,NA,timeout,4999.8,1304981.4,1304962.73,1304979.396,1309962.53,1309965.8,2023-08-08T09:36:36Z,1309979.196,"c(""distractor1"", ""distractor2"", ""distractor3"")",Gesundheit,salama,d,NA,NA,NA,NA,NA,0,NA,NA,NA,NA,NA,NA,NA,NA,NA,NA,NA,NA,NA,NA,NA,NA,NA,NA,NA,NA
b24a8,deep,flow.Sequence,1_1_5_0,NA,NA,completion,12799.978,1297153.4,1297145.886,1297162.552,1309962.53,1309966.1,2023-08-08T09:36:36Z,1309979.196,"c(""distractor1"", ""distractor2"", ""distractor3"")",Gesundheit,salama,d,NA,NA,NA,NA,NA,NA,NA,NA,NA,NA,NA,NA,NA,NA,NA,NA,NA,NA,NA,NA,NA,NA,NA,NA,NA,NA
b24a8,shallow,flow.Sequence,1_1_5_1,NA,NA,skipped,NA,1309966.2,NA,NA,1309962.53,1309966.3,2023-08-08T09:36:36Z,1309979.196,"c(""distractor1"", ""distractor2"", ""distractor3"")",Gesundheit,salama,d,NA,NA,NA,NA,NA,NA,NA,NA,NA,NA,NA,NA,NA,NA,NA,NA,NA,NA,NA,NA,NA,NA,NA,NA,NA,NA
b24a8,task,flow.Sequence,1_1_5,NA,NA,completion,12799.978,1297153.4,1297145.886,1297162.552,1309962.53,1309966.4,2023-08-08T09:36:36Z,1309979.196,"c(""distractor1"", ""distractor2"", ""distractor3"")",Gesundheit,salama,d,NA,NA,NA,NA,NA,NA,NA,NA,NA,NA,NA,NA,NA,NA,NA,NA,NA,NA,NA,NA,NA,NA,NA,NA,NA,NA
b24a8,block,flow.Loop,1_1,NA,NA,completion,79550.321,1230395.5,1230395.543,1230412.209,1309962.53,1309966.6,2023-08-08T09:36:36Z,1309979.196,"c(""distractor1"", ""distractor2"", ""distractor3"")",NA,NA,NA,NA,NA,NA,NA,NA,NA,NA,NA,NA,NA,NA,NA,NA,NA,NA,NA,NA,NA,NA,NA,NA,NA,NA,NA,NA,NA
b24a8,Practice,flow.Sequence,1,NA,NA,completion,81710.669,1228247.8,1228235.195,1228251.861,1309962.53,1309966.7,2023-08-08T09:36:36Z,1309979.196,NULL,NA,NA,NA,NA,NA,NA,NA,NA,NA,NA,NA,NA,NA,NA,NA,NA,NA,NA,NA,NA,NA,NA,NA,NA,NA,NA,NA,NA,NA
b24a8,Experiment start,canvas.Screen,2,weiter,keypress(q),response,22922.203999999,1309966.8,1309962.53,1309979.196,1332901.4,1332907.1,2023-08-08T09:36:59Z,1332963.31,NULL,NA,NA,NA,NA,NA,NA,NA,NA,NA,NA,NA,NA,NA,NA,NA,NA,NA,NA,NA,NA,NA,NA,NA,NA,NA,NA,NA,NA,NA
b24a8,deep,flow.Sequence,3_0_0_0_0_0,NA,NA,skipped,NA,1332962.9,NA,NA,1332901.4,1332963,2023-08-08T09:36:59Z,1332963.31,NULL,Kreativität,ubunifu,s,mratibu,mwendelezo,makubaliano,NA,sdf,NA,0,NA,NA,NA,NA,NA,NA,NA,NA,NA,NA,NA,NA,NA,NA,NA,NA,NA,NA,NA
b24a8,Shallow Question,html.Page,3_0_0_0_0_1_0,NA,NA,form submission,7408.8899999992,1332963,1332895.497,1332963.31,1340372.2,1340372.6,2023-08-08T09:37:07Z,1340379.68,NULL,Kreativität,ubunifu,s,mratibu,mwendelezo,makubaliano,ubunifu,NA,NA,0,NA,NA,NA,NA,NA,NA,NA,NA,NA,NA,NA,NA,NA,NA,NA,NA,NA,NA,NA
b24a8,"""Richtig""-Screen",canvas.Screen,3_0_0_0_0_1_1,NA,NA,timeout,5000.1710000001,1340375,1340363.014,1340379.68,1345363.185,1345367.6,2023-08-08T09:37:12Z,1345379.851,NULL,Kreativität,ubunifu,s,mratibu,mwendelezo,makubaliano,NA,sdf,1,0,NA,NA,NA,NA,NA,NA,NA,NA,NA,NA,NA,NA,NA,NA,NA,NA,NA,NA,NA
b24a8,"""Falsch""-Screen",canvas.Screen,3_0_0_0_0_1_2,NA,NA,skipped,NA,1345371.8,NA,NA,1345363.185,1345372,2023-08-08T09:37:12Z,1345379.851,NULL,Kreativität,ubunifu,s,mratibu,mwendelezo,makubaliano,NA,sdf,NA,0,NA,NA,NA,NA,NA,NA,NA,NA,NA,NA,NA,NA,NA,NA,NA,NA,NA,NA,NA
b24a8,shallow,flow.Sequence,3_0_0_0_0_1,NA,NA,completion,12399.875,1332963,1332895.497,1332963.31,1345363.185,1345372.2,2023-08-08T09:37:12Z,1345379.851,NULL,Kreativität,ubunifu,s,mratibu,mwendelezo,makubaliano,NA,sdf,NA,0,NA,NA,NA,NA,NA,NA,NA,NA,NA,NA,NA,NA,NA,NA,NA,NA,NA,NA,NA
b24a8,task,flow.Sequence,3_0_0_0_0,NA,NA,completion,12399.875,1332962.9,1332895.497,1332963.31,1345363.185,1345372.4,2023-08-08T09:37:12Z,1345379.851,NULL,Kreativität,ubunifu,s,mratibu,mwendelezo,makubaliano,NA,sdf,NA,0,NA,NA,NA,NA,NA,NA,NA,NA,NA,NA,NA,NA,NA,NA,NA,NA,NA,NA,NA
b24a8,deep,flow.Sequence,3_0_0_0_1_0,NA,NA,skipped,NA,1345372.4,NA,NA,1345363.185,1345372.5,2023-08-08T09:37:12Z,1345379.851,NULL,Können,unaweza,s,kiongozi,bustani,mienendo,NA,sdf,NA,0,NA,NA,NA,NA,NA,NA,NA,NA,NA,NA,NA,NA,NA,NA,NA,NA,NA,NA,NA
b24a8,Shallow Question,html.Page,3_0_0_0_1_1_0,NA,NA,form submission,8776.0489999985,1345372.5,1345363.185,1345379.851,1354155.9,1354156.3,2023-08-08T09:37:20Z,1354163.413,NULL,Können,unaweza,s,kiongozi,bustani,mienendo,bustani,NA,NA,0,NA,NA,NA,NA,NA,NA,NA,NA,NA,NA,NA,NA,NA,NA,NA,NA,NA,NA,NA
b24a8,"""Richtig""-Screen",canvas.Screen,3_0_0_0_1_1_1,NA,NA,skipped,NA,1354159.8,NA,NA,1354155.9,1354160,2023-08-08T09:37:20Z,1354163.413,NULL,Können,unaweza,s,kiongozi,bustani,mienendo,NA,sdf,NA,0,NA,NA,NA,NA,NA,NA,NA,NA,NA,NA,NA,NA,NA,NA,NA,NA,NA,NA,NA
b24a8,"""Falsch""-Screen",canvas.Screen,3_0_0_0_1_1_2,NA,NA,timeout,4999.8,1354160.5,1354146.747,1354163.413,1359146.547,1359150.3,2023-08-08T09:37:25Z,1359163.213,NULL,Können,unaweza,s,kiongozi,bustani,mienendo,NA,sdf,0,0,NA,NA,NA,NA,NA,NA,NA,NA,NA,NA,NA,NA,NA,NA,NA,NA,NA,NA,NA
b24a8,shallow,flow.Sequence,3_0_0_0_1_1,NA,NA,completion,13766.696,1345372.5,1345363.185,1345379.851,1359146.547,1359150.8,2023-08-08T09:37:25Z,1359163.213,NULL,Können,unaweza,s,kiongozi,bustani,mienendo,NA,sdf,NA,0,NA,NA,NA,NA,NA,NA,NA,NA,NA,NA,NA,NA,NA,NA,NA,NA,NA,NA,NA
b24a8,task,flow.Sequence,3_0_0_0_1,NA,NA,completion,13766.696,1345372.4,1345363.185,1345379.851,1359146.547,1359151,2023-08-08T09:37:25Z,1359163.213,NULL,Können,unaweza,s,kiongozi,bustani,mienendo,NA,sdf,NA,0,NA,NA,NA,NA,NA,NA,NA,NA,NA,NA,NA,NA,NA,NA,NA,NA,NA,NA,NA
b24a8,Deep Question,html.Page,3_0_0_0_2_0_0,NA,NA,form submission,6516.287,1359151.3,1359146.547,1359163.213,1365679.5,1365679.7,2023-08-08T09:37:32Z,1365680.227,NULL,Gefährdung,kuhatarisha,d,NA,NA,NA,mbandu,NA,NA,0,NA,NA,NA,NA,NA,NA,NA,NA,NA,NA,NA,NA,NA,NA,NA,NA,NA,NA,NA
b24a8,"""Richtig""-Screen",canvas.Screen,3_0_0_0_2_0_1,NA,NA,skipped,NA,1365681.9,NA,NA,1365679.5,1365682,2023-08-08T09:37:32Z,1365680.227,NULL,Gefährdung,kuhatarisha,d,NA,NA,NA,NA,sdf,NA,0,NA,NA,NA,NA,NA,NA,NA,NA,NA,NA,NA,NA,NA,NA,NA,NA,NA,NA,NA
b24a8,"""Falsch""-Screen",canvas.Screen,3_0_0_0_2_0_2,NA,NA,timeout,4999.8,1365682.4,1365663.561,1365680.227,1370663.361,1370668.5,2023-08-08T09:37:37Z,1370680.027,NULL,Gefährdung,kuhatarisha,d,NA,NA,NA,NA,sdf,0,0,NA,NA,NA,NA,NA,NA,NA,NA,NA,NA,NA,NA,NA,NA,NA,NA,NA,NA,NA
b24a8,deep,flow.Sequence,3_0_0_0_2_0,NA,NA,completion,11500.148,1359151.2,1359146.547,1359163.213,1370663.361,1370668.8,2023-08-08T09:37:37Z,1370680.027,NULL,Gefährdung,kuhatarisha,d,NA,NA,NA,NA,sdf,NA,0,NA,NA,NA,NA,NA,NA,NA,NA,NA,NA,NA,NA,NA,NA,NA,NA,NA,NA,NA
b24a8,shallow,flow.Sequence,3_0_0_0_2_1,NA,NA,skipped,NA,1370668.9,NA,NA,1370663.361,1370669,2023-08-08T09:37:37Z,1370680.027,NULL,Gefährdung,kuhatarisha,d,NA,NA,NA,NA,sdf,NA,0,NA,NA,NA,NA,NA,NA,NA,NA,NA,NA,NA,NA,NA,NA,NA,NA,NA,NA,NA
b24a8,task,flow.Sequence,3_0_0_0_2,NA,NA,completion,11500.148,1359151.2,1359146.547,1359163.213,1370663.361,1370669.1,2023-08-08T09:37:37Z,1370680.027,NULL,Gefährdung,kuhatarisha,d,NA,NA,NA,NA,sdf,NA,0,NA,NA,NA,NA,NA,NA,NA,NA,NA,NA,NA,NA,NA,NA,NA,NA,NA,NA,NA
b24a8,Deep Question,html.Page,3_0_0_0_3_0_0,NA,NA,form submission,7133.473,1370669.3,1370663.361,1370680.027,1377813.5,1377813.7,2023-08-08T09:37:44Z,1377813.547,NULL,Verstand,ufahamivu,d,NA,NA,NA,khwale,NA,NA,0,NA,NA,NA,NA,NA,NA,NA,NA,NA,NA,NA,NA,NA,NA,NA,NA,NA,NA,NA
b24a8,"""Richtig""-Screen",canvas.Screen,3_0_0_0_3_0_1,NA,NA,skipped,NA,1377815.8,NA,NA,1377813.5,1377815.8,2023-08-08T09:37:44Z,1377813.547,NULL,Verstand,ufahamivu,d,NA,NA,NA,NA,sdf,NA,0,NA,NA,NA,NA,NA,NA,NA,NA,NA,NA,NA,NA,NA,NA,NA,NA,NA,NA,NA
b24a8,"""Falsch""-Screen",canvas.Screen,3_0_0_0_3_0_2,NA,NA,timeout,4999.8,1377816.3,1377796.881,1377813.547,1382796.681,1382798,2023-08-08T09:37:49Z,1382813.347,NULL,Verstand,ufahamivu,d,NA,NA,NA,NA,sdf,0,0,NA,NA,NA,NA,NA,NA,NA,NA,NA,NA,NA,NA,NA,NA,NA,NA,NA,NA,NA
b24a8,deep,flow.Sequence,3_0_0_0_3_0,NA,NA,completion,12116.654,1370669.2,1370663.361,1370680.027,1382796.681,1382798.2,2023-08-08T09:37:49Z,1382813.347,NULL,Verstand,ufahamivu,d,NA,NA,NA,NA,sdf,NA,0,NA,NA,NA,NA,NA,NA,NA,NA,NA,NA,NA,NA,NA,NA,NA,NA,NA,NA,NA
b24a8,shallow,flow.Sequence,3_0_0_0_3_1,NA,NA,skipped,NA,1382798.4,NA,NA,1382796.681,1382798.5,2023-08-08T09:37:49Z,1382813.347,NULL,Verstand,ufahamivu,d,NA,NA,NA,NA,sdf,NA,0,NA,NA,NA,NA,NA,NA,NA,NA,NA,NA,NA,NA,NA,NA,NA,NA,NA,NA,NA
b24a8,task,flow.Sequence,3_0_0_0_3,NA,NA,completion,12116.654,1370669.2,1370663.361,1370680.027,1382796.681,1382798.7,2023-08-08T09:37:49Z,1382813.347,NULL,Verstand,ufahamivu,d,NA,NA,NA,NA,sdf,NA,0,NA,NA,NA,NA,NA,NA,NA,NA,NA,NA,NA,NA,NA,NA,NA,NA,NA,NA,NA
b24a8,deep,flow.Sequence,3_0_0_0_4_0,NA,NA,skipped,NA,1382798.8,NA,NA,1382796.681,1382798.9,2023-08-08T09:37:49Z,1382813.347,NULL,Gelegenheit,wakati,s,mchanganyiko,kipaumbele,kushuku,NA,sdf,NA,0,NA,NA,NA,NA,NA,NA,NA,NA,NA,NA,NA,NA,NA,NA,NA,NA,NA,NA,NA
b24a8,Shallow Question,html.Page,3_0_0_0_4_1_0,NA,NA,form submission,11006.552999998,1382799.1,1382796.681,1382813.347,1393819.9,1393820.1,2023-08-08T09:38:00Z,1393830.086,NULL,Gelegenheit,wakati,s,mchanganyiko,kipaumbele,kushuku,wakati,NA,NA,0,NA,NA,NA,NA,NA,NA,NA,NA,NA,NA,NA,NA,NA,NA,NA,NA,NA,NA,NA
b24a8,"""Richtig""-Screen",canvas.Screen,3_0_0_0_4_1_1,NA,NA,timeout,5000.2820000001,1393822.8,1393813.42,1393830.086,1398813.702,1398816.3,2023-08-08T09:38:05Z,1398830.368,NULL,Gelegenheit,wakati,s,mchanganyiko,kipaumbele,kushuku,NA,sdf,1,0,NA,NA,NA,NA,NA,NA,NA,NA,NA,NA,NA,NA,NA,NA,NA,NA,NA,NA,NA
b24a8,"""Falsch""-Screen",canvas.Screen,3_0_0_0_4_1_2,NA,NA,skipped,NA,1398819.3,NA,NA,1398813.702,1398819.4,2023-08-08T09:38:05Z,1398830.368,NULL,Gelegenheit,wakati,s,mchanganyiko,kipaumbele,kushuku,NA,sdf,NA,0,NA,NA,NA,NA,NA,NA,NA,NA,NA,NA,NA,NA,NA,NA,NA,NA,NA,NA,NA
b24a8,shallow,flow.Sequence,3_0_0_0_4_1,NA,NA,completion,16000.355,1382799,1382796.681,1382813.347,1398813.702,1398819.6,2023-08-08T09:38:05Z,1398830.368,NULL,Gelegenheit,wakati,s,mchanganyiko,kipaumbele,kushuku,NA,sdf,NA,0,NA,NA,NA,NA,NA,NA,NA,NA,NA,NA,NA,NA,NA,NA,NA,NA,NA,NA,NA
b24a8,task,flow.Sequence,3_0_0_0_4,NA,NA,completion,16000.355,1382798.8,1382796.681,1382813.347,1398813.702,1398819.8,2023-08-08T09:38:05Z,1398830.368,NULL,Gelegenheit,wakati,s,mchanganyiko,kipaumbele,kushuku,NA,sdf,NA,0,NA,NA,NA,NA,NA,NA,NA,NA,NA,NA,NA,NA,NA,NA,NA,NA,NA,NA,NA
b24a8,Deep Question,html.Page,3_0_0_0_5_0_0,NA,NA,form submission,7330.9320000007,1398820,1398813.702,1398830.368,1406161.3,1406161.6,2023-08-08T09:38:12Z,1406163.973,NULL,Widerstand,usulubu,d,NA,NA,NA,phote,NA,NA,0,NA,NA,NA,NA,NA,NA,NA,NA,NA,NA,NA,NA,NA,NA,NA,NA,NA,NA,NA
b24a8,"""Richtig""-Screen",canvas.Screen,3_0_0_0_5_0_1,NA,NA,skipped,NA,1406163.7,NA,NA,1406161.3,1406163.8,2023-08-08T09:38:12Z,1406163.973,NULL,Widerstand,usulubu,d,NA,NA,NA,NA,sdf,NA,0,NA,NA,NA,NA,NA,NA,NA,NA,NA,NA,NA,NA,NA,NA,NA,NA,NA,NA,NA
b24a8,"""Falsch""-Screen",canvas.Screen,3_0_0_0_5_0_2,NA,NA,timeout,4999.8,1406164.4,1406147.307,1406163.973,1411147.107,1411149,2023-08-08T09:38:17Z,1411163.773,NULL,Widerstand,usulubu,d,NA,NA,NA,NA,sdf,0,0,NA,NA,NA,NA,NA,NA,NA,NA,NA,NA,NA,NA,NA,NA,NA,NA,NA,NA,NA
b24a8,deep,flow.Sequence,3_0_0_0_5_0,NA,NA,completion,12316.739,1398820,1398813.702,1398830.368,1411147.107,1411149.4,2023-08-08T09:38:17Z,1411163.773,NULL,Widerstand,usulubu,d,NA,NA,NA,NA,sdf,NA,0,NA,NA,NA,NA,NA,NA,NA,NA,NA,NA,NA,NA,NA,NA,NA,NA,NA,NA,NA
b24a8,shallow,flow.Sequence,3_0_0_0_5_1,NA,NA,skipped,NA,1411149.6,NA,NA,1411147.107,1411149.6,2023-08-08T09:38:17Z,1411163.773,NULL,Widerstand,usulubu,d,NA,NA,NA,NA,sdf,NA,0,NA,NA,NA,NA,NA,NA,NA,NA,NA,NA,NA,NA,NA,NA,NA,NA,NA,NA,NA
b24a8,task,flow.Sequence,3_0_0_0_5,NA,NA,completion,12316.739,1398820,1398813.702,1398830.368,1411147.107,1411149.8,2023-08-08T09:38:17Z,1411163.773,NULL,Widerstand,usulubu,d,NA,NA,NA,NA,sdf,NA,0,NA,NA,NA,NA,NA,NA,NA,NA,NA,NA,NA,NA,NA,NA,NA,NA,NA,NA,NA
b24a8,Deep Question,html.Page,3_0_0_0_6_0_0,NA,NA,form submission,7481.6269999985,1411150,1411147.107,1411163.773,1418645.4,1418645.6,2023-08-08T09:38:25Z,1418647.306,NULL,Kontrolle,kudhibiti,d,NA,NA,NA,kusewa,NA,NA,0,NA,NA,NA,NA,NA,NA,NA,NA,NA,NA,NA,NA,NA,NA,NA,NA,NA,NA,NA
b24a8,"""Richtig""-Screen",canvas.Screen,3_0_0_0_6_0_1,NA,NA,skipped,NA,1418647.5,NA,NA,1418645.4,1418647.6,2023-08-08T09:38:25Z,1418647.306,NULL,Kontrolle,kudhibiti,d,NA,NA,NA,NA,sdf,NA,0,NA,NA,NA,NA,NA,NA,NA,NA,NA,NA,NA,NA,NA,NA,NA,NA,NA,NA,NA
b24a8,"""Falsch""-Screen",canvas.Screen,3_0_0_0_6_0_2,NA,NA,timeout,4999.7999999998,1418647.9,1418630.64,1418647.306,1423630.44,1423634.2,2023-08-08T09:38:30Z,1423647.106,NULL,Kontrolle,kudhibiti,d,NA,NA,NA,NA,sdf,0,0,NA,NA,NA,NA,NA,NA,NA,NA,NA,NA,NA,NA,NA,NA,NA,NA,NA,NA,NA
b24a8,deep,flow.Sequence,3_0_0_0_6_0,NA,NA,completion,12466.667,1411149.9,1411147.107,1411163.773,1423630.44,1423634.5,2023-08-08T09:38:30Z,1423647.106,NULL,Kontrolle,kudhibiti,d,NA,NA,NA,NA,sdf,NA,0,NA,NA,NA,NA,NA,NA,NA,NA,NA,NA,NA,NA,NA,NA,NA,NA,NA,NA,NA
b24a8,shallow,flow.Sequence,3_0_0_0_6_1,NA,NA,skipped,NA,1423634.6,NA,NA,1423630.44,1423634.8,2023-08-08T09:38:30Z,1423647.106,NULL,Kontrolle,kudhibiti,d,NA,NA,NA,NA,sdf,NA,0,NA,NA,NA,NA,NA,NA,NA,NA,NA,NA,NA,NA,NA,NA,NA,NA,NA,NA,NA
b24a8,task,flow.Sequence,3_0_0_0_6,NA,NA,completion,12466.667,1411149.9,1411147.107,1411163.773,1423630.44,1423634.9,2023-08-08T09:38:30Z,1423647.106,NULL,Kontrolle,kudhibiti,d,NA,NA,NA,NA,sdf,NA,0,NA,NA,NA,NA,NA,NA,NA,NA,NA,NA,NA,NA,NA,NA,NA,NA,NA,NA,NA
b24a8,deep,flow.Sequence,3_0_0_0_7_0,NA,NA,skipped,NA,1423635.1,NA,NA,1423630.44,1423635.2,2023-08-08T09:38:30Z,1423647.106,NULL,Ausschluss,kutengwa,s,ununuzi,taratibu,madeni,NA,sdf,NA,0,NA,NA,NA,NA,NA,NA,NA,NA,NA,NA,NA,NA,NA,NA,NA,NA,NA,NA,NA
b24a8,Shallow Question,html.Page,3_0_0_0_7_1_0,NA,NA,form submission,6439.8940000001,1423635.3,1423630.44,1423647.106,1430087,1430087.3,2023-08-08T09:38:36Z,1430097.346,NULL,Ausschluss,kutengwa,s,ununuzi,taratibu,madeni,ununuzi,NA,NA,0,NA,NA,NA,NA,NA,NA,NA,NA,NA,NA,NA,NA,NA,NA,NA,NA,NA,NA,NA
b24a8,"""Richtig""-Screen",canvas.Screen,3_0_0_0_7_1_1,NA,NA,skipped,NA,1430089.8,NA,NA,1430087,1430089.9,2023-08-08T09:38:36Z,1430097.346,NULL,Ausschluss,kutengwa,s,ununuzi,taratibu,madeni,NA,sdf,NA,0,NA,NA,NA,NA,NA,NA,NA,NA,NA,NA,NA,NA,NA,NA,NA,NA,NA,NA,NA
b24a8,"""Falsch""-Screen",canvas.Screen,3_0_0_0_7_1_2,NA,NA,timeout,4999.8,1430090.5,1430080.68,1430097.346,1435080.48,1435085.4,2023-08-08T09:38:41Z,1435097.146,NULL,Ausschluss,kutengwa,s,ununuzi,taratibu,madeni,NA,sdf,0,0,NA,NA,NA,NA,NA,NA,NA,NA,NA,NA,NA,NA,NA,NA,NA,NA,NA,NA,NA
b24a8,shallow,flow.Sequence,3_0_0_0_7_1,NA,NA,completion,11433.374,1423635.3,1423630.44,1423647.106,1435080.48,1435085.8,2023-08-08T09:38:41Z,1435097.146,NULL,Ausschluss,kutengwa,s,ununuzi,taratibu,madeni,NA,sdf,NA,0,NA,NA,NA,NA,NA,NA,NA,NA,NA,NA,NA,NA,NA,NA,NA,NA,NA,NA,NA
b24a8,task,flow.Sequence,3_0_0_0_7,NA,NA,completion,11433.374,1423635,1423630.44,1423647.106,1435080.48,1435085.9,2023-08-08T09:38:41Z,1435097.146,NULL,Ausschluss,kutengwa,s,ununuzi,taratibu,madeni,NA,sdf,NA,0,NA,NA,NA,NA,NA,NA,NA,NA,NA,NA,NA,NA,NA,NA,NA,NA,NA,NA,NA
b24a8,block,flow.Loop,3_0_0_0,NA,NA,completion,102117.17,1332962.9,1332895.497,1332963.31,1435080.48,1435086.1,2023-08-08T09:38:41Z,1435097.146,NULL,NA,NA,NA,NA,NA,NA,NA,sdf,NA,0,NA,NA,NA,NA,NA,NA,NA,NA,NA,NA,NA,NA,NA,NA,NA,NA,NA,NA,NA
b24a8,weiter,canvas.Screen,3_0_0_1,sdf,keypress(Space),response,1322.0539999993,1435086.1,1435080.48,1435097.146,1436419.2,1436424.4,2023-08-08T09:38:43Z,1436447.569,NULL,NA,NA,NA,NA,NA,NA,NA,sdf,NA,0,NA,NA,NA,NA,NA,NA,NA,NA,NA,NA,NA,NA,NA,NA,NA,NA,NA,NA,NA
b24a8,check continue,flow.Sequence,3_0_0,NA,NA,completion,103455.89,1332962.9,1332895.497,1332963.31,1436419.2,1436424.7,2023-08-08T09:38:43Z,1436447.569,NULL,NA,NA,NA,NA,NA,NA,NA,sdf,NA,0,NA,NA,NA,NA,NA,NA,NA,NA,NA,NA,NA,NA,NA,NA,NA,NA,NA,NA,NA
b24a8,deep,flow.Sequence,3_0_1_0_0_0,NA,NA,skipped,NA,1436449.4,NA,NA,1436419.2,1436449.5,2023-08-08T09:38:43Z,1436447.569,NULL,Ausschluss,kutengwa,s,ununuzi,taratibu,madeni,NA,sdfdsf,NA,1,NA,NA,NA,NA,NA,NA,NA,NA,NA,NA,NA,NA,NA,NA,NA,NA,NA,NA,NA
b24a8,Shallow Question,html.Page,3_0_1_0_0_1_0,NA,NA,form submission,15589.630999999,1436449.6,1436414.237,1436447.569,1452037.2,1452037.4,2023-08-08T09:38:58Z,1452047.28,NULL,Ausschluss,kutengwa,s,ununuzi,taratibu,madeni,ununuzi,NA,NA,1,NA,NA,NA,NA,NA,NA,NA,NA,NA,NA,NA,NA,NA,NA,NA,NA,NA,NA,NA
b24a8,"""Richtig""-Screen",canvas.Screen,3_0_1_0_0_1_1,NA,NA,skipped,NA,1452039.8,NA,NA,1452037.2,1452039.9,2023-08-08T09:38:58Z,1452047.28,NULL,Ausschluss,kutengwa,s,ununuzi,taratibu,madeni,NA,sdfdsf,NA,1,NA,NA,NA,NA,NA,NA,NA,NA,NA,NA,NA,NA,NA,NA,NA,NA,NA,NA,NA
b24a8,"""Falsch""-Screen",canvas.Screen,3_0_1_0_0_1_2,NA,NA,timeout,5000.3729999999,1452040.4,1452030.614,1452047.28,1457030.987,1457035.2,2023-08-08T09:39:03Z,1457047.653,NULL,Ausschluss,kutengwa,s,ununuzi,taratibu,madeni,NA,sdfdsf,0,1,NA,NA,NA,NA,NA,NA,NA,NA,NA,NA,NA,NA,NA,NA,NA,NA,NA,NA,NA
b24a8,shallow,flow.Sequence,3_0_1_0_0_1,NA,NA,completion,20583.418,1436449.6,1436414.237,1436447.569,1457030.987,1457035.6,2023-08-08T09:39:03Z,1457047.653,NULL,Ausschluss,kutengwa,s,ununuzi,taratibu,madeni,NA,sdfdsf,NA,1,NA,NA,NA,NA,NA,NA,NA,NA,NA,NA,NA,NA,NA,NA,NA,NA,NA,NA,NA
b24a8,task,flow.Sequence,3_0_1_0_0,NA,NA,completion,20583.418,1436449.4,1436414.237,1436447.569,1457030.987,1457035.9,2023-08-08T09:39:03Z,1457047.653,NULL,Ausschluss,kutengwa,s,ununuzi,taratibu,madeni,NA,sdfdsf,NA,1,NA,NA,NA,NA,NA,NA,NA,NA,NA,NA,NA,NA,NA,NA,NA,NA,NA,NA,NA
b24a8,Deep Question,html.Page,3_0_1_0_1_0_0,NA,NA,form submission,5348.5469999993,1457036.1,1457030.987,1457047.653,1462396.2,1462396.4,2023-08-08T09:39:09Z,1462397.439,NULL,Kontrolle,kudhibiti,d,NA,NA,NA,bhati,NA,NA,1,NA,NA,NA,NA,NA,NA,NA,NA,NA,NA,NA,NA,NA,NA,NA,NA,NA,NA,NA
b24a8,"""Richtig""-Screen",canvas.Screen,3_0_1_0_1_0_1,NA,NA,skipped,NA,1462398.6,NA,NA,1462396.2,1462398.6,2023-08-08T09:39:09Z,1462397.439,NULL,Kontrolle,kudhibiti,d,NA,NA,NA,NA,sdfdsf,NA,1,NA,NA,NA,NA,NA,NA,NA,NA,NA,NA,NA,NA,NA,NA,NA,NA,NA,NA,NA
b24a8,"""Falsch""-Screen",canvas.Screen,3_0_1_0_1_0_2,NA,NA,timeout,5000.257,1462399.3,1462380.773,1462397.439,1467381.03,1467385.4,2023-08-08T09:39:14Z,1467397.696,NULL,Kontrolle,kudhibiti,d,NA,NA,NA,NA,sdfdsf,0,1,NA,NA,NA,NA,NA,NA,NA,NA,NA,NA,NA,NA,NA,NA,NA,NA,NA,NA,NA
b24a8,deep,flow.Sequence,3_0_1_0_1_0,NA,NA,completion,10333.377,1457036,1457030.987,1457047.653,1467381.03,1467385.8,2023-08-08T09:39:14Z,1467397.696,NULL,Kontrolle,kudhibiti,d,NA,NA,NA,NA,sdfdsf,NA,1,NA,NA,NA,NA,NA,NA,NA,NA,NA,NA,NA,NA,NA,NA,NA,NA,NA,NA,NA
b24a8,shallow,flow.Sequence,3_0_1_0_1_1,NA,NA,skipped,NA,1467386,NA,NA,1467381.03,1467386.1,2023-08-08T09:39:14Z,1467397.696,NULL,Kontrolle,kudhibiti,d,NA,NA,NA,NA,sdfdsf,NA,1,NA,NA,NA,NA,NA,NA,NA,NA,NA,NA,NA,NA,NA,NA,NA,NA,NA,NA,NA
b24a8,task,flow.Sequence,3_0_1_0_1,NA,NA,completion,10333.377,1457035.9,1457030.987,1457047.653,1467381.03,1467386.3,2023-08-08T09:39:14Z,1467397.696,NULL,Kontrolle,kudhibiti,d,NA,NA,NA,NA,sdfdsf,NA,1,NA,NA,NA,NA,NA,NA,NA,NA,NA,NA,NA,NA,NA,NA,NA,NA,NA,NA,NA
b24a8,Deep Question,html.Page,3_0_1_0_2_0_0,NA,NA,form submission,4916.9040000015,1467386.5,1467381.03,1467397.696,1472314.6,1472314.8,2023-08-08T09:39:19Z,1472314.166,NULL,Verstand,ufahamivu,d,NA,NA,NA,dwala,NA,NA,1,NA,NA,NA,NA,NA,NA,NA,NA,NA,NA,NA,NA,NA,NA,NA,NA,NA,NA,NA
b24a8,"""Richtig""-Screen",canvas.Screen,3_0_1_0_2_0_1,NA,NA,skipped,NA,1472317.1,NA,NA,1472314.6,1472317.3,2023-08-08T09:39:19Z,1472314.166,NULL,Verstand,ufahamivu,d,NA,NA,NA,NA,sdfdsf,NA,1,NA,NA,NA,NA,NA,NA,NA,NA,NA,NA,NA,NA,NA,NA,NA,NA,NA,NA,NA
b24a8,"""Falsch""-Screen",canvas.Screen,3_0_1_0_2_0_2,NA,NA,timeout,5000.308,1472317.6,1472297.5,1472314.166,1477297.3,1477301.4,2023-08-08T09:39:24Z,1477314.474,NULL,Verstand,ufahamivu,d,NA,NA,NA,NA,sdfdsf,0,1,NA,NA,NA,NA,NA,NA,NA,NA,NA,NA,NA,NA,NA,NA,NA,NA,NA,NA,NA
b24a8,deep,flow.Sequence,3_0_1_0_2_0,NA,NA,completion,9899.6040000001,1467386.5,1467381.03,1467397.696,1477297.3,1477301.8,2023-08-08T09:39:24Z,1477314.474,NULL,Verstand,ufahamivu,d,NA,NA,NA,NA,sdfdsf,NA,1,NA,NA,NA,NA,NA,NA,NA,NA,NA,NA,NA,NA,NA,NA,NA,NA,NA,NA,NA
b24a8,shallow,flow.Sequence,3_0_1_0_2_1,NA,NA,skipped,NA,1477301.9,NA,NA,1477297.3,1477302.1,2023-08-08T09:39:24Z,1477314.474,NULL,Verstand,ufahamivu,d,NA,NA,NA,NA,sdfdsf,NA,1,NA,NA,NA,NA,NA,NA,NA,NA,NA,NA,NA,NA,NA,NA,NA,NA,NA,NA,NA
b24a8,task,flow.Sequence,3_0_1_0_2,NA,NA,completion,9899.6040000001,1467386.4,1467381.03,1467397.696,1477297.3,1477302.2,2023-08-08T09:39:24Z,1477314.474,NULL,Verstand,ufahamivu,d,NA,NA,NA,NA,sdfdsf,NA,1,NA,NA,NA,NA,NA,NA,NA,NA,NA,NA,NA,NA,NA,NA,NA,NA,NA,NA,NA
b24a8,Deep Question,html.Page,3_0_1_0_3_0_0,NA,NA,form submission,5130.3260000008,1477302.4,1477297.3,1477314.474,1482444.8,1482445,2023-08-08T09:39:29Z,1482447.602,NULL,Gefährdung,kuhatarisha,d,NA,NA,NA,thote,NA,NA,1,NA,NA,NA,NA,NA,NA,NA,NA,NA,NA,NA,NA,NA,NA,NA,NA,NA,NA,NA
b24a8,"""Richtig""-Screen",canvas.Screen,3_0_1_0_3_0_1,NA,NA,skipped,NA,1482447.2,NA,NA,1482444.8,1482447.3,2023-08-08T09:39:29Z,1482447.602,NULL,Gefährdung,kuhatarisha,d,NA,NA,NA,NA,sdfdsf,NA,1,NA,NA,NA,NA,NA,NA,NA,NA,NA,NA,NA,NA,NA,NA,NA,NA,NA,NA,NA
b24a8,"""Falsch""-Screen",canvas.Screen,3_0_1_0_3_0_2,NA,NA,timeout,5000.439,1482447.7,1482430.936,1482447.602,1487431.375,1487436.2,2023-08-08T09:39:34Z,1487448.041,NULL,Gefährdung,kuhatarisha,d,NA,NA,NA,NA,sdfdsf,0,1,NA,NA,NA,NA,NA,NA,NA,NA,NA,NA,NA,NA,NA,NA,NA,NA,NA,NA,NA
b24a8,deep,flow.Sequence,3_0_1_0_3_0,NA,NA,completion,10116.901,1477302.4,1477297.3,1477314.474,1487431.375,1487436.6,2023-08-08T09:39:34Z,1487448.041,NULL,Gefährdung,kuhatarisha,d,NA,NA,NA,NA,sdfdsf,NA,1,NA,NA,NA,NA,NA,NA,NA,NA,NA,NA,NA,NA,NA,NA,NA,NA,NA,NA,NA
b24a8,shallow,flow.Sequence,3_0_1_0_3_1,NA,NA,skipped,NA,1487436.7,NA,NA,1487431.375,1487436.9,2023-08-08T09:39:34Z,1487448.041,NULL,Gefährdung,kuhatarisha,d,NA,NA,NA,NA,sdfdsf,NA,1,NA,NA,NA,NA,NA,NA,NA,NA,NA,NA,NA,NA,NA,NA,NA,NA,NA,NA,NA
b24a8,task,flow.Sequence,3_0_1_0_3,NA,NA,completion,10116.901,1477302.3,1477297.3,1477314.474,1487431.375,1487437.1,2023-08-08T09:39:34Z,1487448.041,NULL,Gefährdung,kuhatarisha,d,NA,NA,NA,NA,sdfdsf,NA,1,NA,NA,NA,NA,NA,NA,NA,NA,NA,NA,NA,NA,NA,NA,NA,NA,NA,NA,NA
b24a8,deep,flow.Sequence,3_0_1_0_4_0,NA,NA,skipped,NA,1487437.2,NA,NA,1487431.375,1487437.3,2023-08-08T09:39:34Z,1487448.041,NULL,Können,unaweza,s,kiongozi,bustani,mienendo,NA,sdfdsf,NA,1,NA,NA,NA,NA,NA,NA,NA,NA,NA,NA,NA,NA,NA,NA,NA,NA,NA,NA,NA
b24a8,Shallow Question,html.Page,3_0_1_0_4_1_0,NA,NA,form submission,9389.459,1487437.4,1487431.375,1487448.041,1496837.5,1496837.7,2023-08-08T09:39:43Z,1496847.665,NULL,Können,unaweza,s,kiongozi,bustani,mienendo,unaweza,NA,NA,1,NA,NA,NA,NA,NA,NA,NA,NA,NA,NA,NA,NA,NA,NA,NA,NA,NA,NA,NA
b24a8,"""Richtig""-Screen",canvas.Screen,3_0_1_0_4_1_1,NA,NA,timeout,5000.4469999999,1496840.3,1496830.999,1496847.665,1501831.446,1501836.2,2023-08-08T09:39:48Z,1501848.112,NULL,Können,unaweza,s,kiongozi,bustani,mienendo,NA,sdfdsf,1,1,NA,NA,NA,NA,NA,NA,NA,NA,NA,NA,NA,NA,NA,NA,NA,NA,NA,NA,NA
b24a8,"""Falsch""-Screen",canvas.Screen,3_0_1_0_4_1_2,NA,NA,skipped,NA,1501840.4,NA,NA,1501831.446,1501840.7,2023-08-08T09:39:48Z,1501848.112,NULL,Können,unaweza,s,kiongozi,bustani,mienendo,NA,sdfdsf,NA,1,NA,NA,NA,NA,NA,NA,NA,NA,NA,NA,NA,NA,NA,NA,NA,NA,NA,NA,NA
b24a8,shallow,flow.Sequence,3_0_1_0_4_1,NA,NA,completion,14383.405,1487437.4,1487431.375,1487448.041,1501831.446,1501840.9,2023-08-08T09:39:48Z,1501848.112,NULL,Können,unaweza,s,kiongozi,bustani,mienendo,NA,sdfdsf,NA,1,NA,NA,NA,NA,NA,NA,NA,NA,NA,NA,NA,NA,NA,NA,NA,NA,NA,NA,NA
b24a8,task,flow.Sequence,3_0_1_0_4,NA,NA,completion,14383.405,1487437.2,1487431.375,1487448.041,1501831.446,1501841,2023-08-08T09:39:48Z,1501848.112,NULL,Können,unaweza,s,kiongozi,bustani,mienendo,NA,sdfdsf,NA,1,NA,NA,NA,NA,NA,NA,NA,NA,NA,NA,NA,NA,NA,NA,NA,NA,NA,NA,NA
b24a8,Deep Question,html.Page,3_0_1_0_5_0_0,NA,NA,form submission,12275.888,1501841.1,1501831.446,1501848.112,1514124,1514124.5,2023-08-08T09:40:00Z,1514131.113,NULL,Widerstand,usulubu,d,NA,NA,NA,theba,NA,NA,1,NA,NA,NA,NA,NA,NA,NA,NA,NA,NA,NA,NA,NA,NA,NA,NA,NA,NA,NA
b24a8,"""Richtig""-Screen",canvas.Screen,3_0_1_0_5_0_1,NA,NA,skipped,NA,1514128.5,NA,NA,1514124,1514128.7,2023-08-08T09:40:00Z,1514131.113,NULL,Widerstand,usulubu,d,NA,NA,NA,NA,sdfdsf,NA,1,NA,NA,NA,NA,NA,NA,NA,NA,NA,NA,NA,NA,NA,NA,NA,NA,NA,NA,NA
b24a8,"""Falsch""-Screen",canvas.Screen,3_0_1_0_5_0_2,NA,NA,timeout,4999.8,1514129.4,1514114.447,1514131.113,1519114.247,1519116.9,2023-08-08T09:40:05Z,1519130.913,NULL,Widerstand,usulubu,d,NA,NA,NA,NA,sdfdsf,0,1,NA,NA,NA,NA,NA,NA,NA,NA,NA,NA,NA,NA,NA,NA,NA,NA,NA,NA,NA
b24a8,deep,flow.Sequence,3_0_1_0_5_0,NA,NA,completion,17266.135,1501841,1501831.446,1501848.112,1519114.247,1519117.3,2023-08-08T09:40:05Z,1519130.913,NULL,Widerstand,usulubu,d,NA,NA,NA,NA,sdfdsf,NA,1,NA,NA,NA,NA,NA,NA,NA,NA,NA,NA,NA,NA,NA,NA,NA,NA,NA,NA,NA
b24a8,shallow,flow.Sequence,3_0_1_0_5_1,NA,NA,skipped,NA,1519117.4,NA,NA,1519114.247,1519117.5,2023-08-08T09:40:05Z,1519130.913,NULL,Widerstand,usulubu,d,NA,NA,NA,NA,sdfdsf,NA,1,NA,NA,NA,NA,NA,NA,NA,NA,NA,NA,NA,NA,NA,NA,NA,NA,NA,NA,NA
b24a8,task,flow.Sequence,3_0_1_0_5,NA,NA,completion,17266.135,1501841,1501831.446,1501848.112,1519114.247,1519117.7,2023-08-08T09:40:05Z,1519130.913,NULL,Widerstand,usulubu,d,NA,NA,NA,NA,sdfdsf,NA,1,NA,NA,NA,NA,NA,NA,NA,NA,NA,NA,NA,NA,NA,NA,NA,NA,NA,NA,NA
b24a8,deep,flow.Sequence,3_0_1_0_6_0,NA,NA,skipped,NA,1519117.9,NA,NA,1519114.247,1519118,2023-08-08T09:40:05Z,1519130.913,NULL,Gelegenheit,wakati,s,mchanganyiko,kipaumbele,kushuku,NA,sdfdsf,NA,1,NA,NA,NA,NA,NA,NA,NA,NA,NA,NA,NA,NA,NA,NA,NA,NA,NA,NA,NA
b24a8,Shallow Question,html.Page,3_0_1_0_6_1_0,NA,NA,form submission,10458.587,1519118.2,1519114.247,1519130.913,1529589.5,1529589.7,2023-08-08T09:40:16Z,1529598.008,NULL,Gelegenheit,wakati,s,mchanganyiko,kipaumbele,kushuku,wakati,NA,NA,1,NA,NA,NA,NA,NA,NA,NA,NA,NA,NA,NA,NA,NA,NA,NA,NA,NA,NA,NA
b24a8,"""Richtig""-Screen",canvas.Screen,3_0_1_0_6_1_1,NA,NA,timeout,5000.3260000001,1529592.3,1529581.342,1529598.008,1534581.668,1534586.1,2023-08-08T09:40:21Z,1534598.334,NULL,Gelegenheit,wakati,s,mchanganyiko,kipaumbele,kushuku,NA,sdfdsf,1,1,NA,NA,NA,NA,NA,NA,NA,NA,NA,NA,NA,NA,NA,NA,NA,NA,NA,NA,NA
b24a8,"""Falsch""-Screen",canvas.Screen,3_0_1_0_6_1_2,NA,NA,skipped,NA,1534589.6,NA,NA,1534581.668,1534589.8,2023-08-08T09:40:21Z,1534598.334,NULL,Gelegenheit,wakati,s,mchanganyiko,kipaumbele,kushuku,NA,sdfdsf,NA,1,NA,NA,NA,NA,NA,NA,NA,NA,NA,NA,NA,NA,NA,NA,NA,NA,NA,NA,NA
b24a8,shallow,flow.Sequence,3_0_1_0_6_1,NA,NA,completion,15450.755,1519118.1,1519114.247,1519130.913,1534581.668,1534590,2023-08-08T09:40:21Z,1534598.334,NULL,Gelegenheit,wakati,s,mchanganyiko,kipaumbele,kushuku,NA,sdfdsf,NA,1,NA,NA,NA,NA,NA,NA,NA,NA,NA,NA,NA,NA,NA,NA,NA,NA,NA,NA,NA
b24a8,task,flow.Sequence,3_0_1_0_6,NA,NA,completion,15450.755,1519117.8,1519114.247,1519130.913,1534581.668,1534590.1,2023-08-08T09:40:21Z,1534598.334,NULL,Gelegenheit,wakati,s,mchanganyiko,kipaumbele,kushuku,NA,sdfdsf,NA,1,NA,NA,NA,NA,NA,NA,NA,NA,NA,NA,NA,NA,NA,NA,NA,NA,NA,NA,NA
b24a8,deep,flow.Sequence,3_0_1_0_7_0,NA,NA,skipped,NA,1534590.2,NA,NA,1534581.668,1534590.3,2023-08-08T09:40:21Z,1534598.334,NULL,Kreativität,ubunifu,s,mratibu,mwendelezo,makubaliano,NA,sdfdsf,NA,1,NA,NA,NA,NA,NA,NA,NA,NA,NA,NA,NA,NA,NA,NA,NA,NA,NA,NA,NA
b24a8,Shallow Question,html.Page,3_0_1_0_7_1_0,NA,NA,form submission,7709.2660000015,1534590.4,1534581.668,1534598.334,1542307.6,1542308.1,2023-08-08T09:40:29Z,1542315.194,NULL,Kreativität,ubunifu,s,mratibu,mwendelezo,makubaliano,ubunifu,NA,NA,1,NA,NA,NA,NA,NA,NA,NA,NA,NA,NA,NA,NA,NA,NA,NA,NA,NA,NA,NA
b24a8,"""Richtig""-Screen",canvas.Screen,3_0_1_0_7_1_1,NA,NA,timeout,4999.8,1542311.8,1542298.528,1542315.194,1547298.328,1547299.7,2023-08-08T09:40:34Z,1547314.994,NULL,Kreativität,ubunifu,s,mratibu,mwendelezo,makubaliano,NA,sdfdsf,1,1,NA,NA,NA,NA,NA,NA,NA,NA,NA,NA,NA,NA,NA,NA,NA,NA,NA,NA,NA
b24a8,"""Falsch""-Screen",canvas.Screen,3_0_1_0_7_1_2,NA,NA,skipped,NA,1547304.1,NA,NA,1547298.328,1547304.3,2023-08-08T09:40:34Z,1547314.994,NULL,Kreativität,ubunifu,s,mratibu,mwendelezo,makubaliano,NA,sdfdsf,NA,1,NA,NA,NA,NA,NA,NA,NA,NA,NA,NA,NA,NA,NA,NA,NA,NA,NA,NA,NA
b24a8,shallow,flow.Sequence,3_0_1_0_7_1,NA,NA,completion,12699.994,1534590.4,1534581.668,1534598.334,1547298.328,1547304.5,2023-08-08T09:40:34Z,1547314.994,NULL,Kreativität,ubunifu,s,mratibu,mwendelezo,makubaliano,NA,sdfdsf,NA,1,NA,NA,NA,NA,NA,NA,NA,NA,NA,NA,NA,NA,NA,NA,NA,NA,NA,NA,NA
b24a8,task,flow.Sequence,3_0_1_0_7,NA,NA,completion,12699.994,1534590.2,1534581.668,1534598.334,1547298.328,1547304.7,2023-08-08T09:40:34Z,1547314.994,NULL,Kreativität,ubunifu,s,mratibu,mwendelezo,makubaliano,NA,sdfdsf,NA,1,NA,NA,NA,NA,NA,NA,NA,NA,NA,NA,NA,NA,NA,NA,NA,NA,NA,NA,NA
b24a8,block,flow.Loop,3_0_1_0,NA,NA,completion,110850.759,1436449.4,1436414.237,1436447.569,1547298.328,1547304.9,2023-08-08T09:40:34Z,1547314.994,NULL,NA,NA,NA,NA,NA,NA,NA,sdfdsf,NA,1,NA,NA,NA,NA,NA,NA,NA,NA,NA,NA,NA,NA,NA,NA,NA,NA,NA,NA,NA
b24a8,weiter,canvas.Screen,3_0_1_1,sdf,keypress(Space),response,1617.8060000008,1547305,1547298.328,1547314.994,1548932.8,1548936.1,2023-08-08T09:40:35Z,1548948.262,NULL,NA,NA,NA,NA,NA,NA,NA,sdfdsf,NA,1,NA,NA,NA,NA,NA,NA,NA,NA,NA,NA,NA,NA,NA,NA,NA,NA,NA,NA,NA
b24a8,check continue,flow.Sequence,3_0_1,NA,NA,completion,112485.231,1436449.4,1436414.237,1436447.569,1548932.8,1548936.3,2023-08-08T09:40:35Z,1548948.262,NULL,NA,NA,NA,NA,NA,NA,NA,sdfdsf,NA,1,NA,NA,NA,NA,NA,NA,NA,NA,NA,NA,NA,NA,NA,NA,NA,NA,NA,NA,NA
b24a8,Deep Question,html.Page,3_0_2_0_0_0_0,NA,NA,form submission,9665.5380000006,1548962.4,1548931.596,1548948.262,1558613.8,1558614,2023-08-08T09:40:45Z,1558615.097,NULL,Kontrolle,kudhibiti,d,NA,NA,NA,unhibitu,NA,NA,2,NA,NA,NA,NA,NA,NA,NA,NA,NA,NA,NA,NA,NA,NA,NA,NA,NA,NA,NA
b24a8,"""Richtig""-Screen",canvas.Screen,3_0_2_0_0_0_1,NA,NA,skipped,NA,1558616.1,NA,NA,1558613.8,1558616.2,2023-08-08T09:40:45Z,1558615.097,NULL,Kontrolle,kudhibiti,d,NA,NA,NA,NA,sdf,NA,2,NA,NA,NA,NA,NA,NA,NA,NA,NA,NA,NA,NA,NA,NA,NA,NA,NA,NA,NA
b24a8,"""Falsch""-Screen",canvas.Screen,3_0_2_0_0_0_2,NA,NA,timeout,5000.179,1558616.8,1558598.431,1558615.097,1563598.61,1563601.9,2023-08-08T09:40:50Z,1563615.276,NULL,Kontrolle,kudhibiti,d,NA,NA,NA,NA,sdf,0,2,NA,NA,NA,NA,NA,NA,NA,NA,NA,NA,NA,NA,NA,NA,NA,NA,NA,NA,NA
b24a8,deep,flow.Sequence,3_0_2_0_0_0,NA,NA,completion,14650.348,1548962.4,1548931.596,1548948.262,1563598.61,1563602.1,2023-08-08T09:40:50Z,1563615.276,NULL,Kontrolle,kudhibiti,d,NA,NA,NA,NA,sdf,NA,2,NA,NA,NA,NA,NA,NA,NA,NA,NA,NA,NA,NA,NA,NA,NA,NA,NA,NA,NA
b24a8,shallow,flow.Sequence,3_0_2_0_0_1,NA,NA,skipped,NA,1563602.2,NA,NA,1563598.61,1563602.2,2023-08-08T09:40:50Z,1563615.276,NULL,Kontrolle,kudhibiti,d,NA,NA,NA,NA,sdf,NA,2,NA,NA,NA,NA,NA,NA,NA,NA,NA,NA,NA,NA,NA,NA,NA,NA,NA,NA,NA
b24a8,task,flow.Sequence,3_0_2_0_0,NA,NA,completion,14650.348,1548962.4,1548931.596,1548948.262,1563598.61,1563602.3,2023-08-08T09:40:50Z,1563615.276,NULL,Kontrolle,kudhibiti,d,NA,NA,NA,NA,sdf,NA,2,NA,NA,NA,NA,NA,NA,NA,NA,NA,NA,NA,NA,NA,NA,NA,NA,NA,NA,NA
b24a8,Deep Question,html.Page,3_0_2_0_1_0_0,NA,NA,form submission,6784.0240000007,1563602.3,1563598.61,1563615.276,1570399.3,1570399.4,2023-08-08T09:40:57Z,1570415.004,NULL,Widerstand,usulubu,d,NA,NA,NA,ntange,NA,NA,2,NA,NA,NA,NA,NA,NA,NA,NA,NA,NA,NA,NA,NA,NA,NA,NA,NA,NA,NA
b24a8,"""Richtig""-Screen",canvas.Screen,3_0_2_0_1_0_1,NA,NA,skipped,NA,1570401.7,NA,NA,1570399.3,1570401.8,2023-08-08T09:40:57Z,1570415.004,NULL,Widerstand,usulubu,d,NA,NA,NA,NA,sdf,NA,2,NA,NA,NA,NA,NA,NA,NA,NA,NA,NA,NA,NA,NA,NA,NA,NA,NA,NA,NA
b24a8,"""Falsch""-Screen",canvas.Screen,3_0_2_0_1_0_2,NA,NA,timeout,5000.517,1570402.3,1570398.338,1570415.004,1575398.855,1575403.8,2023-08-08T09:41:02Z,1575415.521,NULL,Widerstand,usulubu,d,NA,NA,NA,NA,sdf,0,2,NA,NA,NA,NA,NA,NA,NA,NA,NA,NA,NA,NA,NA,NA,NA,NA,NA,NA,NA
b24a8,deep,flow.Sequence,3_0_2_0_1_0,NA,NA,completion,11783.579,1563602.3,1563598.61,1563615.276,1575398.855,1575404.3,2023-08-08T09:41:02Z,1575415.521,NULL,Widerstand,usulubu,d,NA,NA,NA,NA,sdf,NA,2,NA,NA,NA,NA,NA,NA,NA,NA,NA,NA,NA,NA,NA,NA,NA,NA,NA,NA,NA
b24a8,shallow,flow.Sequence,3_0_2_0_1_1,NA,NA,skipped,NA,1575404.4,NA,NA,1575398.855,1575404.6,2023-08-08T09:41:02Z,1575415.521,NULL,Widerstand,usulubu,d,NA,NA,NA,NA,sdf,NA,2,NA,NA,NA,NA,NA,NA,NA,NA,NA,NA,NA,NA,NA,NA,NA,NA,NA,NA,NA
b24a8,task,flow.Sequence,3_0_2_0_1,NA,NA,completion,11783.579,1563602.3,1563598.61,1563615.276,1575398.855,1575404.7,2023-08-08T09:41:02Z,1575415.521,NULL,Widerstand,usulubu,d,NA,NA,NA,NA,sdf,NA,2,NA,NA,NA,NA,NA,NA,NA,NA,NA,NA,NA,NA,NA,NA,NA,NA,NA,NA,NA
b24a8,Deep Question,html.Page,3_0_2_0_2_0_0,NA,NA,form submission,6391.1789999993,1575404.9,1575398.855,1575415.521,1581806.7,1581807,2023-08-08T09:41:08Z,1581815.265,NULL,Gefährdung,kuhatarisha,d,NA,NA,NA,trode,NA,NA,2,NA,NA,NA,NA,NA,NA,NA,NA,NA,NA,NA,NA,NA,NA,NA,NA,NA,NA,NA
b24a8,"""Richtig""-Screen",canvas.Screen,3_0_2_0_2_0_1,NA,NA,skipped,NA,1581810.7,NA,NA,1581806.7,1581810.9,2023-08-08T09:41:08Z,1581815.265,NULL,Gefährdung,kuhatarisha,d,NA,NA,NA,NA,sdf,NA,2,NA,NA,NA,NA,NA,NA,NA,NA,NA,NA,NA,NA,NA,NA,NA,NA,NA,NA,NA
b24a8,"""Falsch""-Screen",canvas.Screen,3_0_2_0_2_0_2,NA,NA,timeout,5000.2300000002,1581811.5,1581798.599,1581815.265,1586798.829,1586802.9,2023-08-08T09:41:13Z,1586815.495,NULL,Gefährdung,kuhatarisha,d,NA,NA,NA,NA,sdf,0,2,NA,NA,NA,NA,NA,NA,NA,NA,NA,NA,NA,NA,NA,NA,NA,NA,NA,NA,NA
b24a8,deep,flow.Sequence,3_0_2_0_2_0,NA,NA,completion,11383.308,1575404.9,1575398.855,1575415.521,1586798.829,1586803.3,2023-08-08T09:41:13Z,1586815.495,NULL,Gefährdung,kuhatarisha,d,NA,NA,NA,NA,sdf,NA,2,NA,NA,NA,NA,NA,NA,NA,NA,NA,NA,NA,NA,NA,NA,NA,NA,NA,NA,NA
b24a8,shallow,flow.Sequence,3_0_2_0_2_1,NA,NA,skipped,NA,1586803.4,NA,NA,1586798.829,1586803.5,2023-08-08T09:41:13Z,1586815.495,NULL,Gefährdung,kuhatarisha,d,NA,NA,NA,NA,sdf,NA,2,NA,NA,NA,NA,NA,NA,NA,NA,NA,NA,NA,NA,NA,NA,NA,NA,NA,NA,NA
b24a8,task,flow.Sequence,3_0_2_0_2,NA,NA,completion,11383.308,1575404.9,1575398.855,1575415.521,1586798.829,1586803.7,2023-08-08T09:41:13Z,1586815.495,NULL,Gefährdung,kuhatarisha,d,NA,NA,NA,NA,sdf,NA,2,NA,NA,NA,NA,NA,NA,NA,NA,NA,NA,NA,NA,NA,NA,NA,NA,NA,NA,NA
b24a8,deep,flow.Sequence,3_0_2_0_3_0,NA,NA,skipped,NA,1586803.8,NA,NA,1586798.829,1586803.9,2023-08-08T09:41:13Z,1586815.495,NULL,Können,unaweza,s,kiongozi,bustani,mienendo,NA,sdf,NA,2,NA,NA,NA,NA,NA,NA,NA,NA,NA,NA,NA,NA,NA,NA,NA,NA,NA,NA,NA
b24a8,Shallow Question,html.Page,3_0_2_0_3_1_0,NA,NA,form submission,5706.2049999991,1586804.1,1586798.829,1586815.495,1592521.7,1592522,2023-08-08T09:41:19Z,1592531.933,NULL,Können,unaweza,s,kiongozi,bustani,mienendo,unaweza,NA,NA,2,NA,NA,NA,NA,NA,NA,NA,NA,NA,NA,NA,NA,NA,NA,NA,NA,NA,NA,NA
b24a8,"""Richtig""-Screen",canvas.Screen,3_0_2_0_3_1_1,NA,NA,timeout,5000.3290000001,1592524.6,1592515.267,1592531.933,1597515.596,1597517.7,2023-08-08T09:41:24Z,1597532.262,NULL,Können,unaweza,s,kiongozi,bustani,mienendo,NA,sdf,1,2,NA,NA,NA,NA,NA,NA,NA,NA,NA,NA,NA,NA,NA,NA,NA,NA,NA,NA,NA
b24a8,"""Falsch""-Screen",canvas.Screen,3_0_2_0_3_1_2,NA,NA,skipped,NA,1597521.8,NA,NA,1597515.596,1597522,2023-08-08T09:41:24Z,1597532.262,NULL,Können,unaweza,s,kiongozi,bustani,mienendo,NA,sdf,NA,2,NA,NA,NA,NA,NA,NA,NA,NA,NA,NA,NA,NA,NA,NA,NA,NA,NA,NA,NA
b24a8,shallow,flow.Sequence,3_0_2_0_3_1,NA,NA,completion,10700.101,1586804,1586798.829,1586815.495,1597515.596,1597522.2,2023-08-08T09:41:24Z,1597532.262,NULL,Können,unaweza,s,kiongozi,bustani,mienendo,NA,sdf,NA,2,NA,NA,NA,NA,NA,NA,NA,NA,NA,NA,NA,NA,NA,NA,NA,NA,NA,NA,NA
b24a8,task,flow.Sequence,3_0_2_0_3,NA,NA,completion,10700.101,1586803.7,1586798.829,1586815.495,1597515.596,1597522.3,2023-08-08T09:41:24Z,1597532.262,NULL,Können,unaweza,s,kiongozi,bustani,mienendo,NA,sdf,NA,2,NA,NA,NA,NA,NA,NA,NA,NA,NA,NA,NA,NA,NA,NA,NA,NA,NA,NA,NA
b24a8,Deep Question,html.Page,3_0_2_0_4_0_0,NA,NA,form submission,4949.0380000006,1597522.6,1597515.596,1597532.262,1602481.3,1602481.6,2023-08-08T09:41:29Z,1602482.064,NULL,Verstand,ufahamivu,d,NA,NA,NA,dhwele,NA,NA,2,NA,NA,NA,NA,NA,NA,NA,NA,NA,NA,NA,NA,NA,NA,NA,NA,NA,NA,NA
b24a8,"""Richtig""-Screen",canvas.Screen,3_0_2_0_4_0_1,NA,NA,skipped,NA,1602483.7,NA,NA,1602481.3,1602483.7,2023-08-08T09:41:29Z,1602482.064,NULL,Verstand,ufahamivu,d,NA,NA,NA,NA,sdf,NA,2,NA,NA,NA,NA,NA,NA,NA,NA,NA,NA,NA,NA,NA,NA,NA,NA,NA,NA,NA
b24a8,"""Falsch""-Screen",canvas.Screen,3_0_2_0_4_0_2,NA,NA,timeout,5000.3300000001,1602484.1,1602465.398,1602482.064,1607465.728,1607470.6,2023-08-08T09:41:34Z,1607482.394,NULL,Verstand,ufahamivu,d,NA,NA,NA,NA,sdf,0,2,NA,NA,NA,NA,NA,NA,NA,NA,NA,NA,NA,NA,NA,NA,NA,NA,NA,NA,NA
b24a8,deep,flow.Sequence,3_0_2_0_4_0,NA,NA,completion,9933.4659999998,1597522.6,1597515.596,1597532.262,1607465.728,1607471,2023-08-08T09:41:34Z,1607482.394,NULL,Verstand,ufahamivu,d,NA,NA,NA,NA,sdf,NA,2,NA,NA,NA,NA,NA,NA,NA,NA,NA,NA,NA,NA,NA,NA,NA,NA,NA,NA,NA
b24a8,shallow,flow.Sequence,3_0_2_0_4_1,NA,NA,skipped,NA,1607471.2,NA,NA,1607465.728,1607471.4,2023-08-08T09:41:34Z,1607482.394,NULL,Verstand,ufahamivu,d,NA,NA,NA,NA,sdf,NA,2,NA,NA,NA,NA,NA,NA,NA,NA,NA,NA,NA,NA,NA,NA,NA,NA,NA,NA,NA
b24a8,task,flow.Sequence,3_0_2_0_4,NA,NA,completion,9933.4659999998,1597522.5,1597515.596,1597532.262,1607465.728,1607471.5,2023-08-08T09:41:34Z,1607482.394,NULL,Verstand,ufahamivu,d,NA,NA,NA,NA,sdf,NA,2,NA,NA,NA,NA,NA,NA,NA,NA,NA,NA,NA,NA,NA,NA,NA,NA,NA,NA,NA
b24a8,deep,flow.Sequence,3_0_2_0_5_0,NA,NA,skipped,NA,1607471.7,NA,NA,1607465.728,1607471.7,2023-08-08T09:41:34Z,1607482.394,NULL,Ausschluss,kutengwa,s,ununuzi,taratibu,madeni,NA,sdf,NA,2,NA,NA,NA,NA,NA,NA,NA,NA,NA,NA,NA,NA,NA,NA,NA,NA,NA,NA,NA
b24a8,Shallow Question,html.Page,3_0_2_0_5_1_0,NA,NA,form submission,6256.3059999992,1607471.9,1607465.728,1607482.394,1613738.7,1613738.9,2023-08-08T09:41:40Z,1613748.81,NULL,Ausschluss,kutengwa,s,ununuzi,taratibu,madeni,kutengwa,NA,NA,2,NA,NA,NA,NA,NA,NA,NA,NA,NA,NA,NA,NA,NA,NA,NA,NA,NA,NA,NA
b24a8,"""Richtig""-Screen",canvas.Screen,3_0_2_0_5_1_1,NA,NA,timeout,5000.3189999999,1613741.5,1613732.144,1613748.81,1618732.463,1618737.2,2023-08-08T09:41:45Z,1618749.129,NULL,Ausschluss,kutengwa,s,ununuzi,taratibu,madeni,NA,sdf,1,2,NA,NA,NA,NA,NA,NA,NA,NA,NA,NA,NA,NA,NA,NA,NA,NA,NA,NA,NA
b24a8,"""Falsch""-Screen",canvas.Screen,3_0_2_0_5_1_2,NA,NA,skipped,NA,1618741.4,NA,NA,1618732.463,1618741.7,2023-08-08T09:41:45Z,1618749.129,NULL,Ausschluss,kutengwa,s,ununuzi,taratibu,madeni,NA,sdf,NA,2,NA,NA,NA,NA,NA,NA,NA,NA,NA,NA,NA,NA,NA,NA,NA,NA,NA,NA,NA
b24a8,shallow,flow.Sequence,3_0_2_0_5_1,NA,NA,completion,11250.069,1607471.8,1607465.728,1607482.394,1618732.463,1618741.9,2023-08-08T09:41:45Z,1618749.129,NULL,Ausschluss,kutengwa,s,ununuzi,taratibu,madeni,NA,sdf,NA,2,NA,NA,NA,NA,NA,NA,NA,NA,NA,NA,NA,NA,NA,NA,NA,NA,NA,NA,NA
b24a8,task,flow.Sequence,3_0_2_0_5,NA,NA,completion,11250.069,1607471.6,1607465.728,1607482.394,1618732.463,1618742.1,2023-08-08T09:41:45Z,1618749.129,NULL,Ausschluss,kutengwa,s,ununuzi,taratibu,madeni,NA,sdf,NA,2,NA,NA,NA,NA,NA,NA,NA,NA,NA,NA,NA,NA,NA,NA,NA,NA,NA,NA,NA
b24a8,deep,flow.Sequence,3_0_2_0_6_0,NA,NA,skipped,NA,1618742.2,NA,NA,1618732.463,1618742.2,2023-08-08T09:41:45Z,1618749.129,NULL,Kreativität,ubunifu,s,mratibu,mwendelezo,makubaliano,NA,sdf,NA,2,NA,NA,NA,NA,NA,NA,NA,NA,NA,NA,NA,NA,NA,NA,NA,NA,NA,NA,NA
b24a8,Shallow Question,html.Page,3_0_2_0_6_1_0,NA,NA,form submission,5558.871,1618742.2,1618732.463,1618749.129,1624308,1624308.5,2023-08-08T09:41:51Z,1624315.573,NULL,Kreativität,ubunifu,s,mratibu,mwendelezo,makubaliano,ubunifu,NA,NA,2,NA,NA,NA,NA,NA,NA,NA,NA,NA,NA,NA,NA,NA,NA,NA,NA,NA,NA,NA
b24a8,"""Richtig""-Screen",canvas.Screen,3_0_2_0_6_1_1,NA,NA,timeout,5000.446,1624310.8,1624298.907,1624315.573,1629299.353,1629304.4,2023-08-08T09:41:56Z,1629316.019,NULL,Kreativität,ubunifu,s,mratibu,mwendelezo,makubaliano,NA,sdf,1,2,NA,NA,NA,NA,NA,NA,NA,NA,NA,NA,NA,NA,NA,NA,NA,NA,NA,NA,NA
b24a8,"""Falsch""-Screen",canvas.Screen,3_0_2_0_6_1_2,NA,NA,skipped,NA,1629308.6,NA,NA,1629299.353,1629308.8,2023-08-08T09:41:56Z,1629316.019,NULL,Kreativität,ubunifu,s,mratibu,mwendelezo,makubaliano,NA,sdf,NA,2,NA,NA,NA,NA,NA,NA,NA,NA,NA,NA,NA,NA,NA,NA,NA,NA,NA,NA,NA
b24a8,shallow,flow.Sequence,3_0_2_0_6_1,NA,NA,completion,10550.224,1618742.2,1618732.463,1618749.129,1629299.353,1629308.9,2023-08-08T09:41:56Z,1629316.019,NULL,Kreativität,ubunifu,s,mratibu,mwendelezo,makubaliano,NA,sdf,NA,2,NA,NA,NA,NA,NA,NA,NA,NA,NA,NA,NA,NA,NA,NA,NA,NA,NA,NA,NA
b24a8,task,flow.Sequence,3_0_2_0_6,NA,NA,completion,10550.224,1618742.1,1618732.463,1618749.129,1629299.353,1629309,2023-08-08T09:41:56Z,1629316.019,NULL,Kreativität,ubunifu,s,mratibu,mwendelezo,makubaliano,NA,sdf,NA,2,NA,NA,NA,NA,NA,NA,NA,NA,NA,NA,NA,NA,NA,NA,NA,NA,NA,NA,NA
b24a8,deep,flow.Sequence,3_0_2_0_7_0,NA,NA,skipped,NA,1629309.2,NA,NA,1629299.353,1629309.3,2023-08-08T09:41:56Z,1629316.019,NULL,Gelegenheit,wakati,s,mchanganyiko,kipaumbele,kushuku,NA,sdf,NA,2,NA,NA,NA,NA,NA,NA,NA,NA,NA,NA,NA,NA,NA,NA,NA,NA,NA,NA,NA
b24a8,Shallow Question,html.Page,3_0_2_0_7_1_0,NA,NA,form submission,4508.5810000014,1629309.3,1629299.353,1629316.019,1633824.6,1633825,2023-08-08T09:42:00Z,1633832.505,NULL,Gelegenheit,wakati,s,mchanganyiko,kipaumbele,kushuku,wakati,NA,NA,2,NA,NA,NA,NA,NA,NA,NA,NA,NA,NA,NA,NA,NA,NA,NA,NA,NA,NA,NA
b24a8,"""Richtig""-Screen",canvas.Screen,3_0_2_0_7_1_1,NA,NA,timeout,4999.8,1633827.1,1633815.839,1633832.505,1638815.639,1638820,2023-08-08T09:42:05Z,1638832.305,NULL,Gelegenheit,wakati,s,mchanganyiko,kipaumbele,kushuku,NA,sdf,1,2,NA,NA,NA,NA,NA,NA,NA,NA,NA,NA,NA,NA,NA,NA,NA,NA,NA,NA,NA
b24a8,"""Falsch""-Screen",canvas.Screen,3_0_2_0_7_1_2,NA,NA,skipped,NA,1638823.7,NA,NA,1638815.639,1638823.8,2023-08-08T09:42:05Z,1638832.305,NULL,Gelegenheit,wakati,s,mchanganyiko,kipaumbele,kushuku,NA,sdf,NA,2,NA,NA,NA,NA,NA,NA,NA,NA,NA,NA,NA,NA,NA,NA,NA,NA,NA,NA,NA
b24a8,shallow,flow.Sequence,3_0_2_0_7_1,NA,NA,completion,9499.6199999999,1629309.3,1629299.353,1629316.019,1638815.639,1638823.9,2023-08-08T09:42:05Z,1638832.305,NULL,Gelegenheit,wakati,s,mchanganyiko,kipaumbele,kushuku,NA,sdf,NA,2,NA,NA,NA,NA,NA,NA,NA,NA,NA,NA,NA,NA,NA,NA,NA,NA,NA,NA,NA
b24a8,task,flow.Sequence,3_0_2_0_7,NA,NA,completion,9499.6199999999,1629309.2,1629299.353,1629316.019,1638815.639,1638824,2023-08-08T09:42:05Z,1638832.305,NULL,Gelegenheit,wakati,s,mchanganyiko,kipaumbele,kushuku,NA,sdf,NA,2,NA,NA,NA,NA,NA,NA,NA,NA,NA,NA,NA,NA,NA,NA,NA,NA,NA,NA,NA
b24a8,block,flow.Loop,3_0_2_0,NA,NA,completion,89867.377,1548962.4,1548931.596,1548948.262,1638815.639,1638824.1,2023-08-08T09:42:05Z,1638832.305,NULL,NA,NA,NA,NA,NA,NA,NA,sdf,NA,2,NA,NA,NA,NA,NA,NA,NA,NA,NA,NA,NA,NA,NA,NA,NA,NA,NA,NA,NA
b24a8,weiter,canvas.Screen,3_0_2_1,sdf,keypress(Space),response,1134.3949999993,1638824.2,1638815.639,1638832.305,1639966.7,1639970.2,2023-08-08T09:42:06Z,1639982.843,NULL,NA,NA,NA,NA,NA,NA,NA,sdf,NA,2,NA,NA,NA,NA,NA,NA,NA,NA,NA,NA,NA,NA,NA,NA,NA,NA,NA,NA,NA
b24a8,check continue,flow.Sequence,3_0_2,NA,NA,completion,91018.437999999,1548962.4,1548931.596,1548948.262,1639966.7,1639970.4,2023-08-08T09:42:06Z,1639982.843,NULL,NA,NA,NA,NA,NA,NA,NA,sdf,NA,2,NA,NA,NA,NA,NA,NA,NA,NA,NA,NA,NA,NA,NA,NA,NA,NA,NA,NA,NA
b24a8,Deep Question,html.Page,3_0_3_0_0_0_0,NA,NA,form submission,7065.4570000006,1639997.3,1639966.177,1639982.843,1647048.3,1647048.5,2023-08-08T09:42:13Z,1647049.227,NULL,Gefährdung,kuhatarisha,d,NA,NA,NA,thari,NA,NA,3,NA,NA,NA,NA,NA,NA,NA,NA,NA,NA,NA,NA,NA,NA,NA,NA,NA,NA,NA
b24a8,"""Richtig""-Screen",canvas.Screen,3_0_3_0_0_0_1,NA,NA,skipped,NA,1647050.5,NA,NA,1647048.3,1647050.7,2023-08-08T09:42:13Z,1647049.227,NULL,Gefährdung,kuhatarisha,d,NA,NA,NA,NA,qt,NA,3,NA,NA,NA,NA,NA,NA,NA,NA,NA,NA,NA,NA,NA,NA,NA,NA,NA,NA,NA
b24a8,"""Falsch""-Screen",canvas.Screen,3_0_3_0_0_0_2,NA,NA,timeout,5000.2150000001,1647051.2,1647032.561,1647049.227,1652032.776,1652036.9,2023-08-08T09:42:18Z,1652049.442,NULL,Gefährdung,kuhatarisha,d,NA,NA,NA,NA,qt,0,3,NA,NA,NA,NA,NA,NA,NA,NA,NA,NA,NA,NA,NA,NA,NA,NA,NA,NA,NA
b24a8,deep,flow.Sequence,3_0_3_0_0_0,NA,NA,completion,12049.933,1639997.3,1639966.177,1639982.843,1652032.776,1652037.4,2023-08-08T09:42:18Z,1652049.442,NULL,Gefährdung,kuhatarisha,d,NA,NA,NA,NA,qt,NA,3,NA,NA,NA,NA,NA,NA,NA,NA,NA,NA,NA,NA,NA,NA,NA,NA,NA,NA,NA
b24a8,shallow,flow.Sequence,3_0_3_0_0_1,NA,NA,skipped,NA,1652037.5,NA,NA,1652032.776,1652037.6,2023-08-08T09:42:18Z,1652049.442,NULL,Gefährdung,kuhatarisha,d,NA,NA,NA,NA,qt,NA,3,NA,NA,NA,NA,NA,NA,NA,NA,NA,NA,NA,NA,NA,NA,NA,NA,NA,NA,NA
b24a8,task,flow.Sequence,3_0_3_0_0,NA,NA,completion,12049.933,1639997.3,1639966.177,1639982.843,1652032.776,1652037.8,2023-08-08T09:42:18Z,1652049.442,NULL,Gefährdung,kuhatarisha,d,NA,NA,NA,NA,qt,NA,3,NA,NA,NA,NA,NA,NA,NA,NA,NA,NA,NA,NA,NA,NA,NA,NA,NA,NA,NA
b24a8,deep,flow.Sequence,3_0_3_0_1_0,NA,NA,skipped,NA,1652038,NA,NA,1652032.776,1652038,2023-08-08T09:42:18Z,1652049.442,NULL,Ausschluss,kutengwa,s,ununuzi,taratibu,madeni,NA,qt,NA,3,NA,NA,NA,NA,NA,NA,NA,NA,NA,NA,NA,NA,NA,NA,NA,NA,NA,NA,NA
b24a8,Shallow Question,html.Page,3_0_3_0_1_1_0,NA,NA,form submission,5539.6580000015,1652038.2,1652032.776,1652049.442,1657589.1,1657589.4,2023-08-08T09:42:24Z,1657599.22,NULL,Ausschluss,kutengwa,s,ununuzi,taratibu,madeni,kutengwa,NA,NA,3,NA,NA,NA,NA,NA,NA,NA,NA,NA,NA,NA,NA,NA,NA,NA,NA,NA,NA,NA
b24a8,"""Richtig""-Screen",canvas.Screen,3_0_3_0_1_1_1,NA,NA,timeout,5000.3200000001,1657592,1657582.554,1657599.22,1662582.874,1662585.8,2023-08-08T09:42:29Z,1662599.54,NULL,Ausschluss,kutengwa,s,ununuzi,taratibu,madeni,NA,qt,1,3,NA,NA,NA,NA,NA,NA,NA,NA,NA,NA,NA,NA,NA,NA,NA,NA,NA,NA,NA
b24a8,"""Falsch""-Screen",canvas.Screen,3_0_3_0_1_1_2,NA,NA,skipped,NA,1662588.8,NA,NA,1662582.874,1662589,2023-08-08T09:42:29Z,1662599.54,NULL,Ausschluss,kutengwa,s,ununuzi,taratibu,madeni,NA,qt,NA,3,NA,NA,NA,NA,NA,NA,NA,NA,NA,NA,NA,NA,NA,NA,NA,NA,NA,NA,NA
b24a8,shallow,flow.Sequence,3_0_3_0_1_1,NA,NA,completion,10533.432,1652038.1,1652032.776,1652049.442,1662582.874,1662589.2,2023-08-08T09:42:29Z,1662599.54,NULL,Ausschluss,kutengwa,s,ununuzi,taratibu,madeni,NA,qt,NA,3,NA,NA,NA,NA,NA,NA,NA,NA,NA,NA,NA,NA,NA,NA,NA,NA,NA,NA,NA
b24a8,task,flow.Sequence,3_0_3_0_1,NA,NA,completion,10533.432,1652037.9,1652032.776,1652049.442,1662582.874,1662589.3,2023-08-08T09:42:29Z,1662599.54,NULL,Ausschluss,kutengwa,s,ununuzi,taratibu,madeni,NA,qt,NA,3,NA,NA,NA,NA,NA,NA,NA,NA,NA,NA,NA,NA,NA,NA,NA,NA,NA,NA,NA
b24a8,deep,flow.Sequence,3_0_3_0_2_0,NA,NA,skipped,NA,1662589.4,NA,NA,1662582.874,1662589.4,2023-08-08T09:42:29Z,1662599.54,NULL,Gelegenheit,wakati,s,mchanganyiko,kipaumbele,kushuku,NA,qt,NA,3,NA,NA,NA,NA,NA,NA,NA,NA,NA,NA,NA,NA,NA,NA,NA,NA,NA,NA,NA
b24a8,Shallow Question,html.Page,3_0_3_0_2_1_0,NA,NA,form submission,5457.0600000015,1662589.5,1662582.874,1662599.54,1668056.6,1668056.8,2023-08-08T09:42:34Z,1668065.988,NULL,Gelegenheit,wakati,s,mchanganyiko,kipaumbele,kushuku,wakati,NA,NA,3,NA,NA,NA,NA,NA,NA,NA,NA,NA,NA,NA,NA,NA,NA,NA,NA,NA,NA,NA
b24a8,"""Richtig""-Screen",canvas.Screen,3_0_3_0_2_1_1,NA,NA,timeout,5000.317,1668059.4,1668049.322,1668065.988,1673049.639,1673052.9,2023-08-08T09:42:39Z,1673066.305,NULL,Gelegenheit,wakati,s,mchanganyiko,kipaumbele,kushuku,NA,qt,1,3,NA,NA,NA,NA,NA,NA,NA,NA,NA,NA,NA,NA,NA,NA,NA,NA,NA,NA,NA
b24a8,"""Falsch""-Screen",canvas.Screen,3_0_3_0_2_1_2,NA,NA,skipped,NA,1673056.3,NA,NA,1673049.639,1673056.5,2023-08-08T09:42:39Z,1673066.305,NULL,Gelegenheit,wakati,s,mchanganyiko,kipaumbele,kushuku,NA,qt,NA,3,NA,NA,NA,NA,NA,NA,NA,NA,NA,NA,NA,NA,NA,NA,NA,NA,NA,NA,NA
b24a8,shallow,flow.Sequence,3_0_3_0_2_1,NA,NA,completion,10450.099,1662589.5,1662582.874,1662599.54,1673049.639,1673056.6,2023-08-08T09:42:39Z,1673066.305,NULL,Gelegenheit,wakati,s,mchanganyiko,kipaumbele,kushuku,NA,qt,NA,3,NA,NA,NA,NA,NA,NA,NA,NA,NA,NA,NA,NA,NA,NA,NA,NA,NA,NA,NA
b24a8,task,flow.Sequence,3_0_3_0_2,NA,NA,completion,10450.099,1662589.3,1662582.874,1662599.54,1673049.639,1673056.7,2023-08-08T09:42:39Z,1673066.305,NULL,Gelegenheit,wakati,s,mchanganyiko,kipaumbele,kushuku,NA,qt,NA,3,NA,NA,NA,NA,NA,NA,NA,NA,NA,NA,NA,NA,NA,NA,NA,NA,NA,NA,NA
b24a8,Deep Question,html.Page,3_0_3_0_3_0_0,NA,NA,form submission,5564.4950000008,1673056.8,1673049.639,1673066.305,1678630.8,1678631.1,2023-08-08T09:42:45Z,1678632.749,NULL,Verstand,ufahamivu,d,NA,NA,NA,uzele,NA,NA,3,NA,NA,NA,NA,NA,NA,NA,NA,NA,NA,NA,NA,NA,NA,NA,NA,NA,NA,NA
b24a8,"""Richtig""-Screen",canvas.Screen,3_0_3_0_3_0_1,NA,NA,skipped,NA,1678633.2,NA,NA,1678630.8,1678633.3,2023-08-08T09:42:45Z,1678632.749,NULL,Verstand,ufahamivu,d,NA,NA,NA,NA,qt,NA,3,NA,NA,NA,NA,NA,NA,NA,NA,NA,NA,NA,NA,NA,NA,NA,NA,NA,NA,NA
b24a8,"""Falsch""-Screen",canvas.Screen,3_0_3_0_3_0_2,NA,NA,timeout,5000.321,1678633.7,1678616.083,1678632.749,1683616.404,1683618.5,2023-08-08T09:42:50Z,1683633.07,NULL,Verstand,ufahamivu,d,NA,NA,NA,NA,qt,0,3,NA,NA,NA,NA,NA,NA,NA,NA,NA,NA,NA,NA,NA,NA,NA,NA,NA,NA,NA
b24a8,deep,flow.Sequence,3_0_3_0_3_0,NA,NA,completion,10550.099,1673056.7,1673049.639,1673066.305,1683616.404,1683618.7,2023-08-08T09:42:50Z,1683633.07,NULL,Verstand,ufahamivu,d,NA,NA,NA,NA,qt,NA,3,NA,NA,NA,NA,NA,NA,NA,NA,NA,NA,NA,NA,NA,NA,NA,NA,NA,NA,NA
b24a8,shallow,flow.Sequence,3_0_3_0_3_1,NA,NA,skipped,NA,1683618.7,NA,NA,1683616.404,1683618.7,2023-08-08T09:42:50Z,1683633.07,NULL,Verstand,ufahamivu,d,NA,NA,NA,NA,qt,NA,3,NA,NA,NA,NA,NA,NA,NA,NA,NA,NA,NA,NA,NA,NA,NA,NA,NA,NA,NA
b24a8,task,flow.Sequence,3_0_3_0_3,NA,NA,completion,10550.099,1673056.7,1673049.639,1673066.305,1683616.404,1683618.8,2023-08-08T09:42:50Z,1683633.07,NULL,Verstand,ufahamivu,d,NA,NA,NA,NA,qt,NA,3,NA,NA,NA,NA,NA,NA,NA,NA,NA,NA,NA,NA,NA,NA,NA,NA,NA,NA,NA
b24a8,Deep Question,html.Page,3_0_3_0_4_0_0,NA,NA,form submission,8500.2300000007,1683618.9,1683616.404,1683633.07,1692133.3,1692133.5,2023-08-08T09:42:58Z,1692132.73,NULL,Kontrolle,kudhibiti,d,NA,NA,NA,kudhibiti,NA,NA,3,NA,NA,NA,NA,NA,NA,NA,NA,NA,NA,NA,NA,NA,NA,NA,NA,NA,NA,NA
b24a8,"""Richtig""-Screen",canvas.Screen,3_0_3_0_4_0_1,NA,NA,timeout,5000.5179999999,1692135.6,1692116.064,1692132.73,1697116.582,1697120.9,2023-08-08T09:43:03Z,1697133.248,NULL,Kontrolle,kudhibiti,d,NA,NA,NA,NA,qt,1,3,NA,NA,NA,NA,NA,NA,NA,NA,NA,NA,NA,NA,NA,NA,NA,NA,NA,NA,NA
b24a8,"""Falsch""-Screen",canvas.Screen,3_0_3_0_4_0_2,NA,NA,skipped,NA,1697125.2,NA,NA,1697116.582,1697125.5,2023-08-08T09:43:03Z,1697133.248,NULL,Kontrolle,kudhibiti,d,NA,NA,NA,NA,qt,NA,3,NA,NA,NA,NA,NA,NA,NA,NA,NA,NA,NA,NA,NA,NA,NA,NA,NA,NA,NA
b24a8,deep,flow.Sequence,3_0_3_0_4_0,NA,NA,completion,13483.512,1683618.8,1683616.404,1683633.07,1697116.582,1697125.7,2023-08-08T09:43:03Z,1697133.248,NULL,Kontrolle,kudhibiti,d,NA,NA,NA,NA,qt,NA,3,NA,NA,NA,NA,NA,NA,NA,NA,NA,NA,NA,NA,NA,NA,NA,NA,NA,NA,NA
b24a8,shallow,flow.Sequence,3_0_3_0_4_1,NA,NA,skipped,NA,1697125.7,NA,NA,1697116.582,1697125.8,2023-08-08T09:43:03Z,1697133.248,NULL,Kontrolle,kudhibiti,d,NA,NA,NA,NA,qt,NA,3,NA,NA,NA,NA,NA,NA,NA,NA,NA,NA,NA,NA,NA,NA,NA,NA,NA,NA,NA
b24a8,task,flow.Sequence,3_0_3_0_4,NA,NA,completion,13483.512,1683618.8,1683616.404,1683633.07,1697116.582,1697125.9,2023-08-08T09:43:03Z,1697133.248,NULL,Kontrolle,kudhibiti,d,NA,NA,NA,NA,qt,NA,3,NA,NA,NA,NA,NA,NA,NA,NA,NA,NA,NA,NA,NA,NA,NA,NA,NA,NA,NA
b24a8,Deep Question,html.Page,3_0_3_0_5_0_0,NA,NA,form submission,9783.4519999993,1697126.1,1697116.582,1697133.248,1706916.7,1706916.8,2023-08-08T09:43:13Z,1706916.797,NULL,Widerstand,usulubu,d,NA,NA,NA,unhiti,NA,NA,3,NA,NA,NA,NA,NA,NA,NA,NA,NA,NA,NA,NA,NA,NA,NA,NA,NA,NA,NA
b24a8,"""Richtig""-Screen",canvas.Screen,3_0_3_0_5_0_1,NA,NA,skipped,NA,1706918.9,NA,NA,1706916.7,1706919,2023-08-08T09:43:13Z,1706916.797,NULL,Widerstand,usulubu,d,NA,NA,NA,NA,qt,NA,3,NA,NA,NA,NA,NA,NA,NA,NA,NA,NA,NA,NA,NA,NA,NA,NA,NA,NA,NA
b24a8,"""Falsch""-Screen",canvas.Screen,3_0_3_0_5_0_2,NA,NA,timeout,4999.8,1706919.4,1706900.131,1706916.797,1711899.931,1711904.3,2023-08-08T09:43:18Z,1711916.597,NULL,Widerstand,usulubu,d,NA,NA,NA,NA,qt,0,3,NA,NA,NA,NA,NA,NA,NA,NA,NA,NA,NA,NA,NA,NA,NA,NA,NA,NA,NA
b24a8,deep,flow.Sequence,3_0_3_0_5_0,NA,NA,completion,14766.683,1697126,1697116.582,1697133.248,1711899.931,1711904.6,2023-08-08T09:43:18Z,1711916.597,NULL,Widerstand,usulubu,d,NA,NA,NA,NA,qt,NA,3,NA,NA,NA,NA,NA,NA,NA,NA,NA,NA,NA,NA,NA,NA,NA,NA,NA,NA,NA
b24a8,shallow,flow.Sequence,3_0_3_0_5_1,NA,NA,skipped,NA,1711904.8,NA,NA,1711899.931,1711904.9,2023-08-08T09:43:18Z,1711916.597,NULL,Widerstand,usulubu,d,NA,NA,NA,NA,qt,NA,3,NA,NA,NA,NA,NA,NA,NA,NA,NA,NA,NA,NA,NA,NA,NA,NA,NA,NA,NA
b24a8,task,flow.Sequence,3_0_3_0_5,NA,NA,completion,14766.683,1697125.9,1697116.582,1697133.248,1711899.931,1711905.1,2023-08-08T09:43:18Z,1711916.597,NULL,Widerstand,usulubu,d,NA,NA,NA,NA,qt,NA,3,NA,NA,NA,NA,NA,NA,NA,NA,NA,NA,NA,NA,NA,NA,NA,NA,NA,NA,NA
b24a8,deep,flow.Sequence,3_0_3_0_6_0,NA,NA,skipped,NA,1711905.2,NA,NA,1711899.931,1711905.2,2023-08-08T09:43:18Z,1711916.597,NULL,Kreativität,ubunifu,s,mratibu,mwendelezo,makubaliano,NA,qt,NA,3,NA,NA,NA,NA,NA,NA,NA,NA,NA,NA,NA,NA,NA,NA,NA,NA,NA,NA,NA
b24a8,Shallow Question,html.Page,3_0_3_0_6_1_0,NA,NA,form submission,6273.1029999992,1711905.4,1711899.931,1711916.597,1718189.7,1718189.9,2023-08-08T09:43:24Z,1718200.16,NULL,Kreativität,ubunifu,s,mratibu,mwendelezo,makubaliano,ubunifu,NA,NA,3,NA,NA,NA,NA,NA,NA,NA,NA,NA,NA,NA,NA,NA,NA,NA,NA,NA,NA,NA
b24a8,"""Richtig""-Screen",canvas.Screen,3_0_3_0_6_1_1,NA,NA,timeout,4999.8,1718192.2,1718183.494,1718200.16,1723183.294,1723187.6,2023-08-08T09:43:29Z,1723199.96,NULL,Kreativität,ubunifu,s,mratibu,mwendelezo,makubaliano,NA,qt,1,3,NA,NA,NA,NA,NA,NA,NA,NA,NA,NA,NA,NA,NA,NA,NA,NA,NA,NA,NA
b24a8,"""Falsch""-Screen",canvas.Screen,3_0_3_0_6_1_2,NA,NA,skipped,NA,1723191.5,NA,NA,1723183.294,1723191.6,2023-08-08T09:43:29Z,1723199.96,NULL,Kreativität,ubunifu,s,mratibu,mwendelezo,makubaliano,NA,qt,NA,3,NA,NA,NA,NA,NA,NA,NA,NA,NA,NA,NA,NA,NA,NA,NA,NA,NA,NA,NA
b24a8,shallow,flow.Sequence,3_0_3_0_6_1,NA,NA,completion,11266.697,1711905.3,1711899.931,1711916.597,1723183.294,1723191.7,2023-08-08T09:43:29Z,1723199.96,NULL,Kreativität,ubunifu,s,mratibu,mwendelezo,makubaliano,NA,qt,NA,3,NA,NA,NA,NA,NA,NA,NA,NA,NA,NA,NA,NA,NA,NA,NA,NA,NA,NA,NA
b24a8,task,flow.Sequence,3_0_3_0_6,NA,NA,completion,11266.697,1711905.1,1711899.931,1711916.597,1723183.294,1723191.8,2023-08-08T09:43:29Z,1723199.96,NULL,Kreativität,ubunifu,s,mratibu,mwendelezo,makubaliano,NA,qt,NA,3,NA,NA,NA,NA,NA,NA,NA,NA,NA,NA,NA,NA,NA,NA,NA,NA,NA,NA,NA
b24a8,deep,flow.Sequence,3_0_3_0_7_0,NA,NA,skipped,NA,1723192,NA,NA,1723183.294,1723192,2023-08-08T09:43:29Z,1723199.96,NULL,Können,unaweza,s,kiongozi,bustani,mienendo,NA,qt,NA,3,NA,NA,NA,NA,NA,NA,NA,NA,NA,NA,NA,NA,NA,NA,NA,NA,NA,NA,NA
b24a8,Shallow Question,html.Page,3_0_3_0_7_1_0,NA,NA,form submission,8823.04,1723192.1,1723183.294,1723199.96,1732023,1732023.3,2023-08-08T09:43:38Z,1732033.437,NULL,Können,unaweza,s,kiongozi,bustani,mienendo,unaweza,NA,NA,3,NA,NA,NA,NA,NA,NA,NA,NA,NA,NA,NA,NA,NA,NA,NA,NA,NA,NA,NA
b24a8,"""Richtig""-Screen",canvas.Screen,3_0_3_0_7_1_1,NA,NA,timeout,4999.8,1732025.8,1732016.771,1732033.437,1737016.571,1737020,2023-08-08T09:43:43Z,1737033.237,NULL,Können,unaweza,s,kiongozi,bustani,mienendo,NA,qt,1,3,NA,NA,NA,NA,NA,NA,NA,NA,NA,NA,NA,NA,NA,NA,NA,NA,NA,NA,NA
b24a8,"""Falsch""-Screen",canvas.Screen,3_0_3_0_7_1_2,NA,NA,skipped,NA,1737023.3,NA,NA,1737016.571,1737023.5,2023-08-08T09:43:43Z,1737033.237,NULL,Können,unaweza,s,kiongozi,bustani,mienendo,NA,qt,NA,3,NA,NA,NA,NA,NA,NA,NA,NA,NA,NA,NA,NA,NA,NA,NA,NA,NA,NA,NA
b24a8,shallow,flow.Sequence,3_0_3_0_7_1,NA,NA,completion,13816.611,1723192.1,1723183.294,1723199.96,1737016.571,1737023.5,2023-08-08T09:43:43Z,1737033.237,NULL,Können,unaweza,s,kiongozi,bustani,mienendo,NA,qt,NA,3,NA,NA,NA,NA,NA,NA,NA,NA,NA,NA,NA,NA,NA,NA,NA,NA,NA,NA,NA
b24a8,task,flow.Sequence,3_0_3_0_7,NA,NA,completion,13816.611,1723192,1723183.294,1723199.96,1737016.571,1737023.7,2023-08-08T09:43:43Z,1737033.237,NULL,Können,unaweza,s,kiongozi,bustani,mienendo,NA,qt,NA,3,NA,NA,NA,NA,NA,NA,NA,NA,NA,NA,NA,NA,NA,NA,NA,NA,NA,NA,NA
b24a8,block,flow.Loop,3_0_3_0,NA,NA,completion,97033.728,1639997.3,1639966.177,1639982.843,1737016.571,1737023.8,2023-08-08T09:43:43Z,1737033.237,NULL,NA,NA,NA,NA,NA,NA,NA,qt,NA,3,NA,NA,NA,NA,NA,NA,NA,NA,NA,NA,NA,NA,NA,NA,NA,NA,NA,NA,NA
b24a8,weiter,canvas.Screen,3_0_3_1,sdf,keypress(Space),response,1023.6629999985,1737023.8,1737016.571,1737033.237,1738056.9,1738060.2,2023-08-08T09:43:44Z,1738083.525,NULL,NA,NA,NA,NA,NA,NA,NA,qt,NA,3,NA,NA,NA,NA,NA,NA,NA,NA,NA,NA,NA,NA,NA,NA,NA,NA,NA,NA,NA
b24a8,check continue,flow.Sequence,3_0_3,NA,NA,completion,98074.056999998,1639997.2,1639966.177,1639982.843,1738056.9,1738060.5,2023-08-08T09:43:44Z,1738083.525,NULL,NA,NA,NA,NA,NA,NA,NA,qt,NA,3,NA,NA,NA,NA,NA,NA,NA,NA,NA,NA,NA,NA,NA,NA,NA,NA,NA,NA,NA
b24a8,Deep Question,html.Page,3_0_4_0_0_0_0,NA,NA,form submission,7926.1749999993,1738085.1,1738050.193,1738083.525,1746009.7,1746010.1,2023-08-08T09:43:52Z,1746016.541,NULL,Gefährdung,kuhatarisha,d,NA,NA,NA,udbiti,NA,NA,4,NA,NA,NA,NA,NA,NA,NA,NA,NA,NA,NA,NA,NA,NA,NA,NA,NA,NA,NA
b24a8,"""Richtig""-Screen",canvas.Screen,3_0_4_0_0_0_1,NA,NA,skipped,NA,1746012.5,NA,NA,1746009.7,1746012.6,2023-08-08T09:43:52Z,1746016.541,NULL,Gefährdung,kuhatarisha,d,NA,NA,NA,NA,sd,NA,4,NA,NA,NA,NA,NA,NA,NA,NA,NA,NA,NA,NA,NA,NA,NA,NA,NA,NA,NA
b24a8,"""Falsch""-Screen",canvas.Screen,3_0_4_0_0_0_2,NA,NA,timeout,5000.4920000001,1746014,1745999.875,1746016.541,1751000.367,1751004.8,2023-08-08T09:43:57Z,1751017.033,NULL,Gefährdung,kuhatarisha,d,NA,NA,NA,NA,sd,0,4,NA,NA,NA,NA,NA,NA,NA,NA,NA,NA,NA,NA,NA,NA,NA,NA,NA,NA,NA
b24a8,deep,flow.Sequence,3_0_4_0_0_0,NA,NA,completion,12916.842,1738085.1,1738050.193,1738083.525,1751000.367,1751005.2,2023-08-08T09:43:57Z,1751017.033,NULL,Gefährdung,kuhatarisha,d,NA,NA,NA,NA,sd,NA,4,NA,NA,NA,NA,NA,NA,NA,NA,NA,NA,NA,NA,NA,NA,NA,NA,NA,NA,NA
b24a8,shallow,flow.Sequence,3_0_4_0_0_1,NA,NA,skipped,NA,1751005.4,NA,NA,1751000.367,1751005.5,2023-08-08T09:43:57Z,1751017.033,NULL,Gefährdung,kuhatarisha,d,NA,NA,NA,NA,sd,NA,4,NA,NA,NA,NA,NA,NA,NA,NA,NA,NA,NA,NA,NA,NA,NA,NA,NA,NA,NA
b24a8,task,flow.Sequence,3_0_4_0_0,NA,NA,completion,12916.842,1738085.1,1738050.193,1738083.525,1751000.367,1751005.7,2023-08-08T09:43:57Z,1751017.033,NULL,Gefährdung,kuhatarisha,d,NA,NA,NA,NA,sd,NA,4,NA,NA,NA,NA,NA,NA,NA,NA,NA,NA,NA,NA,NA,NA,NA,NA,NA,NA,NA
b24a8,Deep Question,html.Page,3_0_4_0_1_0_0,NA,NA,form submission,7133.1669999992,1751005.9,1751000.367,1751017.033,1758150.2,1758150.4,2023-08-08T09:44:04Z,1758150.657,NULL,Verstand,ufahamivu,d,NA,NA,NA,kuditi,NA,NA,4,NA,NA,NA,NA,NA,NA,NA,NA,NA,NA,NA,NA,NA,NA,NA,NA,NA,NA,NA
b24a8,"""Richtig""-Screen",canvas.Screen,3_0_4_0_1_0_1,NA,NA,skipped,NA,1758152.6,NA,NA,1758150.2,1758152.7,2023-08-08T09:44:04Z,1758150.657,NULL,Verstand,ufahamivu,d,NA,NA,NA,NA,sd,NA,4,NA,NA,NA,NA,NA,NA,NA,NA,NA,NA,NA,NA,NA,NA,NA,NA,NA,NA,NA
b24a8,"""Falsch""-Screen",canvas.Screen,3_0_4_0_1_0_2,NA,NA,timeout,4999.8,1758153.2,1758133.991,1758150.657,1763133.791,1763138.1,2023-08-08T09:44:09Z,1763150.457,NULL,Verstand,ufahamivu,d,NA,NA,NA,NA,sd,0,4,NA,NA,NA,NA,NA,NA,NA,NA,NA,NA,NA,NA,NA,NA,NA,NA,NA,NA,NA
b24a8,deep,flow.Sequence,3_0_4_0_1_0,NA,NA,completion,12116.758,1751005.9,1751000.367,1751017.033,1763133.791,1763138.5,2023-08-08T09:44:09Z,1763150.457,NULL,Verstand,ufahamivu,d,NA,NA,NA,NA,sd,NA,4,NA,NA,NA,NA,NA,NA,NA,NA,NA,NA,NA,NA,NA,NA,NA,NA,NA,NA,NA
b24a8,shallow,flow.Sequence,3_0_4_0_1_1,NA,NA,skipped,NA,1763138.6,NA,NA,1763133.791,1763138.7,2023-08-08T09:44:09Z,1763150.457,NULL,Verstand,ufahamivu,d,NA,NA,NA,NA,sd,NA,4,NA,NA,NA,NA,NA,NA,NA,NA,NA,NA,NA,NA,NA,NA,NA,NA,NA,NA,NA
b24a8,task,flow.Sequence,3_0_4_0_1,NA,NA,completion,12116.758,1751005.8,1751000.367,1751017.033,1763133.791,1763138.9,2023-08-08T09:44:09Z,1763150.457,NULL,Verstand,ufahamivu,d,NA,NA,NA,NA,sd,NA,4,NA,NA,NA,NA,NA,NA,NA,NA,NA,NA,NA,NA,NA,NA,NA,NA,NA,NA,NA
b24a8,Deep Question,html.Page,3_0_4_0_2_0_0,NA,NA,form submission,8149.7429999993,1763139.1,1763133.791,1763150.457,1771300.2,1771300.4,2023-08-08T09:44:18Z,1771300.629,NULL,Widerstand,usulubu,d,NA,NA,NA,kudhibiti,NA,NA,4,NA,NA,NA,NA,NA,NA,NA,NA,NA,NA,NA,NA,NA,NA,NA,NA,NA,NA,NA
b24a8,"""Richtig""-Screen",canvas.Screen,3_0_4_0_2_0_1,NA,NA,skipped,NA,1771302.6,NA,NA,1771300.2,1771302.7,2023-08-08T09:44:18Z,1771300.629,NULL,Widerstand,usulubu,d,NA,NA,NA,NA,sd,NA,4,NA,NA,NA,NA,NA,NA,NA,NA,NA,NA,NA,NA,NA,NA,NA,NA,NA,NA,NA
b24a8,"""Falsch""-Screen",canvas.Screen,3_0_4_0_2_0_2,NA,NA,timeout,4999.8,1771303.1,1771283.963,1771300.629,1776283.763,1776288.5,2023-08-08T09:44:23Z,1776300.429,NULL,Widerstand,usulubu,d,NA,NA,NA,NA,sd,0,4,NA,NA,NA,NA,NA,NA,NA,NA,NA,NA,NA,NA,NA,NA,NA,NA,NA,NA,NA
b24a8,deep,flow.Sequence,3_0_4_0_2_0,NA,NA,completion,13133.306,1763139,1763133.791,1763150.457,1776283.763,1776288.9,2023-08-08T09:44:23Z,1776300.429,NULL,Widerstand,usulubu,d,NA,NA,NA,NA,sd,NA,4,NA,NA,NA,NA,NA,NA,NA,NA,NA,NA,NA,NA,NA,NA,NA,NA,NA,NA,NA
b24a8,shallow,flow.Sequence,3_0_4_0_2_1,NA,NA,skipped,NA,1776289.1,NA,NA,1776283.763,1776289.2,2023-08-08T09:44:23Z,1776300.429,NULL,Widerstand,usulubu,d,NA,NA,NA,NA,sd,NA,4,NA,NA,NA,NA,NA,NA,NA,NA,NA,NA,NA,NA,NA,NA,NA,NA,NA,NA,NA
b24a8,task,flow.Sequence,3_0_4_0_2,NA,NA,completion,13133.306,1763139,1763133.791,1763150.457,1776283.763,1776289.4,2023-08-08T09:44:23Z,1776300.429,NULL,Widerstand,usulubu,d,NA,NA,NA,NA,sd,NA,4,NA,NA,NA,NA,NA,NA,NA,NA,NA,NA,NA,NA,NA,NA,NA,NA,NA,NA,NA
b24a8,deep,flow.Sequence,3_0_4_0_3_0,NA,NA,skipped,NA,1776289.5,NA,NA,1776283.763,1776289.6,2023-08-08T09:44:23Z,1776300.429,NULL,Können,unaweza,s,kiongozi,bustani,mienendo,NA,sd,NA,4,NA,NA,NA,NA,NA,NA,NA,NA,NA,NA,NA,NA,NA,NA,NA,NA,NA,NA,NA
b24a8,Shallow Question,html.Page,3_0_4_0_3_1_0,NA,NA,form submission,4439.571,1776289.8,1776283.763,1776300.429,1780740,1780740.2,2023-08-08T09:44:27Z,1780750.736,NULL,Können,unaweza,s,kiongozi,bustani,mienendo,unaweza,NA,NA,4,NA,NA,NA,NA,NA,NA,NA,NA,NA,NA,NA,NA,NA,NA,NA,NA,NA,NA,NA
b24a8,"""Richtig""-Screen",canvas.Screen,3_0_4_0_3_1_1,NA,NA,timeout,4999.8,1780742.9,1780734.07,1780750.736,1785733.87,1785736.1,2023-08-08T09:44:32Z,1785750.536,NULL,Können,unaweza,s,kiongozi,bustani,mienendo,NA,sd,1,4,NA,NA,NA,NA,NA,NA,NA,NA,NA,NA,NA,NA,NA,NA,NA,NA,NA,NA,NA
b24a8,"""Falsch""-Screen",canvas.Screen,3_0_4_0_3_1_2,NA,NA,skipped,NA,1785740.4,NA,NA,1785733.87,1785740.6,2023-08-08T09:44:32Z,1785750.536,NULL,Können,unaweza,s,kiongozi,bustani,mienendo,NA,sd,NA,4,NA,NA,NA,NA,NA,NA,NA,NA,NA,NA,NA,NA,NA,NA,NA,NA,NA,NA,NA
b24a8,shallow,flow.Sequence,3_0_4_0_3_1,NA,NA,completion,9433.4410000001,1776289.7,1776283.763,1776300.429,1785733.87,1785740.8,2023-08-08T09:44:32Z,1785750.536,NULL,Können,unaweza,s,kiongozi,bustani,mienendo,NA,sd,NA,4,NA,NA,NA,NA,NA,NA,NA,NA,NA,NA,NA,NA,NA,NA,NA,NA,NA,NA,NA
b24a8,task,flow.Sequence,3_0_4_0_3,NA,NA,completion,9433.4410000001,1776289.5,1776283.763,1776300.429,1785733.87,1785741,2023-08-08T09:44:32Z,1785750.536,NULL,Können,unaweza,s,kiongozi,bustani,mienendo,NA,sd,NA,4,NA,NA,NA,NA,NA,NA,NA,NA,NA,NA,NA,NA,NA,NA,NA,NA,NA,NA,NA
b24a8,deep,flow.Sequence,3_0_4_0_4_0,NA,NA,skipped,NA,1785741.1,NA,NA,1785733.87,1785741.2,2023-08-08T09:44:32Z,1785750.536,NULL,Gelegenheit,wakati,s,mchanganyiko,kipaumbele,kushuku,NA,sd,NA,4,NA,NA,NA,NA,NA,NA,NA,NA,NA,NA,NA,NA,NA,NA,NA,NA,NA,NA,NA
b24a8,Shallow Question,html.Page,3_0_4_0_4_1_0,NA,NA,form submission,6739.9639999999,1785741.3,1785733.87,1785750.536,1792490.5,1792490.6,2023-08-08T09:44:39Z,1792500.756,NULL,Gelegenheit,wakati,s,mchanganyiko,kipaumbele,kushuku,wakati,NA,NA,4,NA,NA,NA,NA,NA,NA,NA,NA,NA,NA,NA,NA,NA,NA,NA,NA,NA,NA,NA
b24a8,"""Richtig""-Screen",canvas.Screen,3_0_4_0_4_1_1,NA,NA,timeout,4999.8,1792493.2,1792484.09,1792500.756,1797483.89,1797489.2,2023-08-08T09:44:44Z,1797500.556,NULL,Gelegenheit,wakati,s,mchanganyiko,kipaumbele,kushuku,NA,sd,1,4,NA,NA,NA,NA,NA,NA,NA,NA,NA,NA,NA,NA,NA,NA,NA,NA,NA,NA,NA
b24a8,"""Falsch""-Screen",canvas.Screen,3_0_4_0_4_1_2,NA,NA,skipped,NA,1797493.2,NA,NA,1797483.89,1797493.6,2023-08-08T09:44:44Z,1797500.556,NULL,Gelegenheit,wakati,s,mchanganyiko,kipaumbele,kushuku,NA,sd,NA,4,NA,NA,NA,NA,NA,NA,NA,NA,NA,NA,NA,NA,NA,NA,NA,NA,NA,NA,NA
b24a8,shallow,flow.Sequence,3_0_4_0_4_1,NA,NA,completion,11733.354,1785741.3,1785733.87,1785750.536,1797483.89,1797493.7,2023-08-08T09:44:44Z,1797500.556,NULL,Gelegenheit,wakati,s,mchanganyiko,kipaumbele,kushuku,NA,sd,NA,4,NA,NA,NA,NA,NA,NA,NA,NA,NA,NA,NA,NA,NA,NA,NA,NA,NA,NA,NA
b24a8,task,flow.Sequence,3_0_4_0_4,NA,NA,completion,11733.354,1785741.1,1785733.87,1785750.536,1797483.89,1797493.9,2023-08-08T09:44:44Z,1797500.556,NULL,Gelegenheit,wakati,s,mchanganyiko,kipaumbele,kushuku,NA,sd,NA,4,NA,NA,NA,NA,NA,NA,NA,NA,NA,NA,NA,NA,NA,NA,NA,NA,NA,NA,NA
b24a8,deep,flow.Sequence,3_0_4_0_5_0,NA,NA,skipped,NA,1797493.9,NA,NA,1797483.89,1797493.9,2023-08-08T09:44:44Z,1797500.556,NULL,Kreativität,ubunifu,s,mratibu,mwendelezo,makubaliano,NA,sd,NA,4,NA,NA,NA,NA,NA,NA,NA,NA,NA,NA,NA,NA,NA,NA,NA,NA,NA,NA,NA
b24a8,Shallow Question,html.Page,3_0_4_0_5_1_0,NA,NA,form submission,5206.5440000014,1797494,1797483.89,1797500.556,1802707.1,1802707.4,2023-08-08T09:44:49Z,1802717.505,NULL,Kreativität,ubunifu,s,mratibu,mwendelezo,makubaliano,ubunifu,NA,NA,4,NA,NA,NA,NA,NA,NA,NA,NA,NA,NA,NA,NA,NA,NA,NA,NA,NA,NA,NA
b24a8,"""Richtig""-Screen",canvas.Screen,3_0_4_0_5_1_1,NA,NA,timeout,4999.8,1802709.6,1802700.839,1802717.505,1807700.639,1807703.8,2023-08-08T09:44:54Z,1807717.305,NULL,Kreativität,ubunifu,s,mratibu,mwendelezo,makubaliano,NA,sd,1,4,NA,NA,NA,NA,NA,NA,NA,NA,NA,NA,NA,NA,NA,NA,NA,NA,NA,NA,NA
b24a8,"""Falsch""-Screen",canvas.Screen,3_0_4_0_5_1_2,NA,NA,skipped,NA,1807708,NA,NA,1807700.639,1807708.2,2023-08-08T09:44:54Z,1807717.305,NULL,Kreativität,ubunifu,s,mratibu,mwendelezo,makubaliano,NA,sd,NA,4,NA,NA,NA,NA,NA,NA,NA,NA,NA,NA,NA,NA,NA,NA,NA,NA,NA,NA,NA
b24a8,shallow,flow.Sequence,3_0_4_0_5_1,NA,NA,completion,10200.083,1797494,1797483.89,1797500.556,1807700.639,1807708.3,2023-08-08T09:44:54Z,1807717.305,NULL,Kreativität,ubunifu,s,mratibu,mwendelezo,makubaliano,NA,sd,NA,4,NA,NA,NA,NA,NA,NA,NA,NA,NA,NA,NA,NA,NA,NA,NA,NA,NA,NA,NA
b24a8,task,flow.Sequence,3_0_4_0_5,NA,NA,completion,10200.083,1797493.9,1797483.89,1797500.556,1807700.639,1807708.5,2023-08-08T09:44:54Z,1807717.305,NULL,Kreativität,ubunifu,s,mratibu,mwendelezo,makubaliano,NA,sd,NA,4,NA,NA,NA,NA,NA,NA,NA,NA,NA,NA,NA,NA,NA,NA,NA,NA,NA,NA,NA
b24a8,Deep Question,html.Page,3_0_4_0_6_0_0,NA,NA,form submission,6831.8949999993,1807708.6,1807700.639,1807717.305,1814549.2,1814549.4,2023-08-08T09:45:01Z,1814550.858,NULL,Kontrolle,kudhibiti,d,NA,NA,NA,kudhibiti,NA,NA,4,NA,NA,NA,NA,NA,NA,NA,NA,NA,NA,NA,NA,NA,NA,NA,NA,NA,NA,NA
b24a8,"""Richtig""-Screen",canvas.Screen,3_0_4_0_6_0_1,NA,NA,timeout,4999.8,1814551.6,1814534.192,1814550.858,1819533.992,1819538.5,2023-08-08T09:45:06Z,1819550.658,NULL,Kontrolle,kudhibiti,d,NA,NA,NA,NA,sd,1,4,NA,NA,NA,NA,NA,NA,NA,NA,NA,NA,NA,NA,NA,NA,NA,NA,NA,NA,NA
b24a8,"""Falsch""-Screen",canvas.Screen,3_0_4_0_6_0_2,NA,NA,skipped,NA,1819543,NA,NA,1819533.992,1819543.1,2023-08-08T09:45:06Z,1819550.658,NULL,Kontrolle,kudhibiti,d,NA,NA,NA,NA,sd,NA,4,NA,NA,NA,NA,NA,NA,NA,NA,NA,NA,NA,NA,NA,NA,NA,NA,NA,NA,NA
b24a8,deep,flow.Sequence,3_0_4_0_6_0,NA,NA,completion,11816.687,1807708.6,1807700.639,1807717.305,1819533.992,1819543.3,2023-08-08T09:45:06Z,1819550.658,NULL,Kontrolle,kudhibiti,d,NA,NA,NA,NA,sd,NA,4,NA,NA,NA,NA,NA,NA,NA,NA,NA,NA,NA,NA,NA,NA,NA,NA,NA,NA,NA
b24a8,shallow,flow.Sequence,3_0_4_0_6_1,NA,NA,skipped,NA,1819543.4,NA,NA,1819533.992,1819543.4,2023-08-08T09:45:06Z,1819550.658,NULL,Kontrolle,kudhibiti,d,NA,NA,NA,NA,sd,NA,4,NA,NA,NA,NA,NA,NA,NA,NA,NA,NA,NA,NA,NA,NA,NA,NA,NA,NA,NA
b24a8,task,flow.Sequence,3_0_4_0_6,NA,NA,completion,11816.687,1807708.6,1807700.639,1807717.305,1819533.992,1819543.5,2023-08-08T09:45:06Z,1819550.658,NULL,Kontrolle,kudhibiti,d,NA,NA,NA,NA,sd,NA,4,NA,NA,NA,NA,NA,NA,NA,NA,NA,NA,NA,NA,NA,NA,NA,NA,NA,NA,NA
b24a8,deep,flow.Sequence,3_0_4_0_7_0,NA,NA,skipped,NA,1819543.6,NA,NA,1819533.992,1819543.7,2023-08-08T09:45:06Z,1819550.658,NULL,Ausschluss,kutengwa,s,ununuzi,taratibu,madeni,NA,sd,NA,4,NA,NA,NA,NA,NA,NA,NA,NA,NA,NA,NA,NA,NA,NA,NA,NA,NA,NA,NA
b24a8,Shallow Question,html.Page,3_0_4_0_7_1_0,NA,NA,form submission,4823.4420000014,1819543.7,1819533.992,1819550.658,1824374.1,1824374.2,2023-08-08T09:45:11Z,1824384.383,NULL,Ausschluss,kutengwa,s,ununuzi,taratibu,madeni,kutengwa,NA,NA,4,NA,NA,NA,NA,NA,NA,NA,NA,NA,NA,NA,NA,NA,NA,NA,NA,NA,NA,NA
b24a8,"""Richtig""-Screen",canvas.Screen,3_0_4_0_7_1_1,NA,NA,timeout,4999.8,1824376.7,1824367.717,1824384.383,1829367.517,1829372,2023-08-08T09:45:16Z,1829384.183,NULL,Ausschluss,kutengwa,s,ununuzi,taratibu,madeni,NA,sd,1,4,NA,NA,NA,NA,NA,NA,NA,NA,NA,NA,NA,NA,NA,NA,NA,NA,NA,NA,NA
b24a8,"""Falsch""-Screen",canvas.Screen,3_0_4_0_7_1_2,NA,NA,skipped,NA,1829376.3,NA,NA,1829367.517,1829376.5,2023-08-08T09:45:16Z,1829384.183,NULL,Ausschluss,kutengwa,s,ununuzi,taratibu,madeni,NA,sd,NA,4,NA,NA,NA,NA,NA,NA,NA,NA,NA,NA,NA,NA,NA,NA,NA,NA,NA,NA,NA
b24a8,shallow,flow.Sequence,3_0_4_0_7_1,NA,NA,completion,9816.8589999999,1819543.7,1819533.992,1819550.658,1829367.517,1829376.8,2023-08-08T09:45:16Z,1829384.183,NULL,Ausschluss,kutengwa,s,ununuzi,taratibu,madeni,NA,sd,NA,4,NA,NA,NA,NA,NA,NA,NA,NA,NA,NA,NA,NA,NA,NA,NA,NA,NA,NA,NA
b24a8,task,flow.Sequence,3_0_4_0_7,NA,NA,completion,9816.8589999999,1819543.6,1819533.992,1819550.658,1829367.517,1829376.8,2023-08-08T09:45:16Z,1829384.183,NULL,Ausschluss,kutengwa,s,ununuzi,taratibu,madeni,NA,sd,NA,4,NA,NA,NA,NA,NA,NA,NA,NA,NA,NA,NA,NA,NA,NA,NA,NA,NA,NA,NA
b24a8,block,flow.Loop,3_0_4_0,NA,NA,completion,91283.992,1738085.1,1738050.193,1738083.525,1829367.517,1829377,2023-08-08T09:45:16Z,1829384.183,NULL,NA,NA,NA,NA,NA,NA,NA,sd,NA,4,NA,NA,NA,NA,NA,NA,NA,NA,NA,NA,NA,NA,NA,NA,NA,NA,NA,NA,NA
b24a8,weiter,canvas.Screen,3_0_4_1,sdf,keypress(Space),response,1119.0169999993,1829377.1,1829367.517,1829384.183,1830503.2,1830506.5,2023-08-08T09:45:17Z,1830534.137,NULL,NA,NA,NA,NA,NA,NA,NA,sd,NA,4,NA,NA,NA,NA,NA,NA,NA,NA,NA,NA,NA,NA,NA,NA,NA,NA,NA,NA,NA
b24a8,check continue,flow.Sequence,3_0_4,NA,NA,completion,92419.674999999,1738085.1,1738050.193,1738083.525,1830503.2,1830506.8,2023-08-08T09:45:17Z,1830534.137,NULL,NA,NA,NA,NA,NA,NA,NA,sd,NA,4,NA,NA,NA,NA,NA,NA,NA,NA,NA,NA,NA,NA,NA,NA,NA,NA,NA,NA,NA
b24a8,Deep Question,html.Page,3_0_5_0_0_0_0,NA,NA,form submission,19332.363,1830531.9,1830500.805,1830534.137,1849866.5,1849866.8,2023-08-08T09:45:36Z,1849867.736,NULL,Widerstand,usulubu,d,NA,NA,NA,kudafhiti,NA,NA,5,NA,NA,NA,NA,NA,NA,NA,NA,NA,NA,NA,NA,NA,NA,NA,NA,NA,NA,NA
b24a8,"""Richtig""-Screen",canvas.Screen,3_0_5_0_0_0_1,NA,NA,skipped,NA,1849868.9,NA,NA,1849866.5,1849869,2023-08-08T09:45:36Z,1849867.736,NULL,Widerstand,usulubu,d,NA,NA,NA,NA,sdf,NA,5,NA,NA,NA,NA,NA,NA,NA,NA,NA,NA,NA,NA,NA,NA,NA,NA,NA,NA,NA
b24a8,"""Falsch""-Screen",canvas.Screen,3_0_5_0_0_0_2,NA,NA,timeout,5000.2679999999,1849869.4,1849851.07,1849867.736,1854851.338,1854855.8,2023-08-08T09:45:41Z,1854868.004,NULL,Widerstand,usulubu,d,NA,NA,NA,NA,sdf,0,5,NA,NA,NA,NA,NA,NA,NA,NA,NA,NA,NA,NA,NA,NA,NA,NA,NA,NA,NA
b24a8,deep,flow.Sequence,3_0_5_0_0_0,NA,NA,completion,24317.201,1830531.9,1830500.805,1830534.137,1854851.338,1854856.2,2023-08-08T09:45:41Z,1854868.004,NULL,Widerstand,usulubu,d,NA,NA,NA,NA,sdf,NA,5,NA,NA,NA,NA,NA,NA,NA,NA,NA,NA,NA,NA,NA,NA,NA,NA,NA,NA,NA
b24a8,shallow,flow.Sequence,3_0_5_0_0_1,NA,NA,skipped,NA,1854856.4,NA,NA,1854851.338,1854856.4,2023-08-08T09:45:41Z,1854868.004,NULL,Widerstand,usulubu,d,NA,NA,NA,NA,sdf,NA,5,NA,NA,NA,NA,NA,NA,NA,NA,NA,NA,NA,NA,NA,NA,NA,NA,NA,NA,NA
b24a8,task,flow.Sequence,3_0_5_0_0,NA,NA,completion,24317.201,1830531.9,1830500.805,1830534.137,1854851.338,1854856.6,2023-08-08T09:45:41Z,1854868.004,NULL,Widerstand,usulubu,d,NA,NA,NA,NA,sdf,NA,5,NA,NA,NA,NA,NA,NA,NA,NA,NA,NA,NA,NA,NA,NA,NA,NA,NA,NA,NA
b24a8,Deep Question,html.Page,3_0_5_0_1_0_0,NA,NA,form submission,11029.996,1854856.8,1854851.338,1854868.004,1865898,1865898.2,2023-08-08T09:45:52Z,1865901.633,NULL,Verstand,ufahamivu,d,NA,NA,NA,ufamele,NA,NA,5,NA,NA,NA,NA,NA,NA,NA,NA,NA,NA,NA,NA,NA,NA,NA,NA,NA,NA,NA
b24a8,"""Richtig""-Screen",canvas.Screen,3_0_5_0_1_0_1,NA,NA,skipped,NA,1865899.9,NA,NA,1865898,1865900,2023-08-08T09:45:52Z,1865901.633,NULL,Verstand,ufahamivu,d,NA,NA,NA,NA,sdf,NA,5,NA,NA,NA,NA,NA,NA,NA,NA,NA,NA,NA,NA,NA,NA,NA,NA,NA,NA,NA
b24a8,"""Falsch""-Screen",canvas.Screen,3_0_5_0_1_0_2,NA,NA,timeout,4999.8,1865900.4,1865884.967,1865901.633,1870884.767,1870888.6,2023-08-08T09:45:57Z,1870901.433,NULL,Verstand,ufahamivu,d,NA,NA,NA,NA,sdf,0,5,NA,NA,NA,NA,NA,NA,NA,NA,NA,NA,NA,NA,NA,NA,NA,NA,NA,NA,NA
b24a8,deep,flow.Sequence,3_0_5_0_1_0,NA,NA,completion,16016.763,1854856.8,1854851.338,1854868.004,1870884.767,1870889,2023-08-08T09:45:57Z,1870901.433,NULL,Verstand,ufahamivu,d,NA,NA,NA,NA,sdf,NA,5,NA,NA,NA,NA,NA,NA,NA,NA,NA,NA,NA,NA,NA,NA,NA,NA,NA,NA,NA
b24a8,shallow,flow.Sequence,3_0_5_0_1_1,NA,NA,skipped,NA,1870889.1,NA,NA,1870884.767,1870889.3,2023-08-08T09:45:57Z,1870901.433,NULL,Verstand,ufahamivu,d,NA,NA,NA,NA,sdf,NA,5,NA,NA,NA,NA,NA,NA,NA,NA,NA,NA,NA,NA,NA,NA,NA,NA,NA,NA,NA
b24a8,task,flow.Sequence,3_0_5_0_1,NA,NA,completion,16016.763,1854856.7,1854851.338,1854868.004,1870884.767,1870889.4,2023-08-08T09:45:57Z,1870901.433,NULL,Verstand,ufahamivu,d,NA,NA,NA,NA,sdf,NA,5,NA,NA,NA,NA,NA,NA,NA,NA,NA,NA,NA,NA,NA,NA,NA,NA,NA,NA,NA
b24a8,Deep Question,html.Page,3_0_5_0_2_0_0,NA,NA,form submission,5100.1670000015,1870889.6,1870884.767,1870901.433,1876001.6,1876002,2023-08-08T09:46:02Z,1876001.735,NULL,Kontrolle,kudhibiti,d,NA,NA,NA,kudhibiti,NA,NA,5,NA,NA,NA,NA,NA,NA,NA,NA,NA,NA,NA,NA,NA,NA,NA,NA,NA,NA,NA
b24a8,"""Richtig""-Screen",canvas.Screen,3_0_5_0_2_0_1,NA,NA,timeout,4999.7999999998,1876004.2,1875985.069,1876001.735,1880984.869,1880988.9,2023-08-08T09:46:07Z,1881001.535,NULL,Kontrolle,kudhibiti,d,NA,NA,NA,NA,sdf,1,5,NA,NA,NA,NA,NA,NA,NA,NA,NA,NA,NA,NA,NA,NA,NA,NA,NA,NA,NA
b24a8,"""Falsch""-Screen",canvas.Screen,3_0_5_0_2_0_2,NA,NA,skipped,NA,1880993.1,NA,NA,1880984.869,1880993.2,2023-08-08T09:46:07Z,1881001.535,NULL,Kontrolle,kudhibiti,d,NA,NA,NA,NA,sdf,NA,5,NA,NA,NA,NA,NA,NA,NA,NA,NA,NA,NA,NA,NA,NA,NA,NA,NA,NA,NA
b24a8,deep,flow.Sequence,3_0_5_0_2_0,NA,NA,completion,10083.436,1870889.6,1870884.767,1870901.433,1880984.869,1880993.5,2023-08-08T09:46:07Z,1881001.535,NULL,Kontrolle,kudhibiti,d,NA,NA,NA,NA,sdf,NA,5,NA,NA,NA,NA,NA,NA,NA,NA,NA,NA,NA,NA,NA,NA,NA,NA,NA,NA,NA
b24a8,shallow,flow.Sequence,3_0_5_0_2_1,NA,NA,skipped,NA,1880993.5,NA,NA,1880984.869,1880993.6,2023-08-08T09:46:07Z,1881001.535,NULL,Kontrolle,kudhibiti,d,NA,NA,NA,NA,sdf,NA,5,NA,NA,NA,NA,NA,NA,NA,NA,NA,NA,NA,NA,NA,NA,NA,NA,NA,NA,NA
b24a8,task,flow.Sequence,3_0_5_0_2,NA,NA,completion,10083.436,1870889.5,1870884.767,1870901.433,1880984.869,1880993.8,2023-08-08T09:46:07Z,1881001.535,NULL,Kontrolle,kudhibiti,d,NA,NA,NA,NA,sdf,NA,5,NA,NA,NA,NA,NA,NA,NA,NA,NA,NA,NA,NA,NA,NA,NA,NA,NA,NA,NA
b24a8,deep,flow.Sequence,3_0_5_0_3_0,NA,NA,skipped,NA,1880993.9,NA,NA,1880984.869,1880994,2023-08-08T09:46:07Z,1881001.535,NULL,Gelegenheit,wakati,s,mchanganyiko,kipaumbele,kushuku,NA,sdf,NA,5,NA,NA,NA,NA,NA,NA,NA,NA,NA,NA,NA,NA,NA,NA,NA,NA,NA,NA,NA
b24a8,Shallow Question,html.Page,3_0_5_0_3_1_0,NA,NA,form submission,3992.6649999993,1880994.1,1880984.869,1881001.535,1884994.2,1884994.7,2023-08-08T09:46:11Z,1885001.375,NULL,Gelegenheit,wakati,s,mchanganyiko,kipaumbele,kushuku,wakati,NA,NA,5,NA,NA,NA,NA,NA,NA,NA,NA,NA,NA,NA,NA,NA,NA,NA,NA,NA,NA,NA
b24a8,"""Richtig""-Screen",canvas.Screen,3_0_5_0_3_1_1,NA,NA,timeout,5000.2960000001,1884997,1884984.709,1885001.375,1889985.005,1889989.2,2023-08-08T09:46:16Z,1890001.671,NULL,Gelegenheit,wakati,s,mchanganyiko,kipaumbele,kushuku,NA,sdf,1,5,NA,NA,NA,NA,NA,NA,NA,NA,NA,NA,NA,NA,NA,NA,NA,NA,NA,NA,NA
b24a8,"""Falsch""-Screen",canvas.Screen,3_0_5_0_3_1_2,NA,NA,skipped,NA,1889993,NA,NA,1889985.005,1889993.2,2023-08-08T09:46:16Z,1890001.671,NULL,Gelegenheit,wakati,s,mchanganyiko,kipaumbele,kushuku,NA,sdf,NA,5,NA,NA,NA,NA,NA,NA,NA,NA,NA,NA,NA,NA,NA,NA,NA,NA,NA,NA,NA
b24a8,shallow,flow.Sequence,3_0_5_0_3_1,NA,NA,completion,8983.47,1880994.1,1880984.869,1881001.535,1889985.005,1889993.3,2023-08-08T09:46:16Z,1890001.671,NULL,Gelegenheit,wakati,s,mchanganyiko,kipaumbele,kushuku,NA,sdf,NA,5,NA,NA,NA,NA,NA,NA,NA,NA,NA,NA,NA,NA,NA,NA,NA,NA,NA,NA,NA
b24a8,task,flow.Sequence,3_0_5_0_3,NA,NA,completion,8983.47,1880993.9,1880984.869,1881001.535,1889985.005,1889993.5,2023-08-08T09:46:16Z,1890001.671,NULL,Gelegenheit,wakati,s,mchanganyiko,kipaumbele,kushuku,NA,sdf,NA,5,NA,NA,NA,NA,NA,NA,NA,NA,NA,NA,NA,NA,NA,NA,NA,NA,NA,NA,NA
b24a8,deep,flow.Sequence,3_0_5_0_4_0,NA,NA,skipped,NA,1889993.5,NA,NA,1889985.005,1889993.7,2023-08-08T09:46:16Z,1890001.671,NULL,Ausschluss,kutengwa,s,ununuzi,taratibu,madeni,NA,sdf,NA,5,NA,NA,NA,NA,NA,NA,NA,NA,NA,NA,NA,NA,NA,NA,NA,NA,NA,NA,NA
b24a8,Shallow Question,html.Page,3_0_5_0_4_1_0,NA,NA,form submission,4356.6290000007,1889993.8,1889985.005,1890001.671,1894358.3,1894358.6,2023-08-08T09:46:21Z,1894368.163,NULL,Ausschluss,kutengwa,s,ununuzi,taratibu,madeni,kutengwa,NA,NA,5,NA,NA,NA,NA,NA,NA,NA,NA,NA,NA,NA,NA,NA,NA,NA,NA,NA,NA,NA
b24a8,"""Richtig""-Screen",canvas.Screen,3_0_5_0_4_1_1,NA,NA,timeout,5000.2680000002,1894361.2,1894351.497,1894368.163,1899351.765,1899355.7,2023-08-08T09:46:26Z,1899368.431,NULL,Ausschluss,kutengwa,s,ununuzi,taratibu,madeni,NA,sdf,1,5,NA,NA,NA,NA,NA,NA,NA,NA,NA,NA,NA,NA,NA,NA,NA,NA,NA,NA,NA
b24a8,"""Falsch""-Screen",canvas.Screen,3_0_5_0_4_1_2,NA,NA,skipped,NA,1899359.3,NA,NA,1899351.765,1899359.4,2023-08-08T09:46:26Z,1899368.431,NULL,Ausschluss,kutengwa,s,ununuzi,taratibu,madeni,NA,sdf,NA,5,NA,NA,NA,NA,NA,NA,NA,NA,NA,NA,NA,NA,NA,NA,NA,NA,NA,NA,NA
b24a8,shallow,flow.Sequence,3_0_5_0_4_1,NA,NA,completion,9350.0939999998,1889993.7,1889985.005,1890001.671,1899351.765,1899359.5,2023-08-08T09:46:26Z,1899368.431,NULL,Ausschluss,kutengwa,s,ununuzi,taratibu,madeni,NA,sdf,NA,5,NA,NA,NA,NA,NA,NA,NA,NA,NA,NA,NA,NA,NA,NA,NA,NA,NA,NA,NA
b24a8,task,flow.Sequence,3_0_5_0_4,NA,NA,completion,9350.0939999998,1889993.5,1889985.005,1890001.671,1899351.765,1899359.6,2023-08-08T09:46:26Z,1899368.431,NULL,Ausschluss,kutengwa,s,ununuzi,taratibu,madeni,NA,sdf,NA,5,NA,NA,NA,NA,NA,NA,NA,NA,NA,NA,NA,NA,NA,NA,NA,NA,NA,NA,NA
b24a8,deep,flow.Sequence,3_0_5_0_5_0,NA,NA,skipped,NA,1899359.7,NA,NA,1899351.765,1899359.8,2023-08-08T09:46:26Z,1899368.431,NULL,Kreativität,ubunifu,s,mratibu,mwendelezo,makubaliano,NA,sdf,NA,5,NA,NA,NA,NA,NA,NA,NA,NA,NA,NA,NA,NA,NA,NA,NA,NA,NA,NA,NA
b24a8,Shallow Question,html.Page,3_0_5_0_5_1_0,NA,NA,form submission,6356.6690000014,1899359.8,1899351.765,1899368.431,1905725.1,1905725.4,2023-08-08T09:46:32Z,1905734.843,NULL,Kreativität,ubunifu,s,mratibu,mwendelezo,makubaliano,ubunifu,NA,NA,5,NA,NA,NA,NA,NA,NA,NA,NA,NA,NA,NA,NA,NA,NA,NA,NA,NA,NA,NA
b24a8,"""Richtig""-Screen",canvas.Screen,3_0_5_0_5_1_1,NA,NA,timeout,5000.372,1905727.9,1905718.177,1905734.843,1910718.549,1910722.4,2023-08-08T09:46:37Z,1910735.215,NULL,Kreativität,ubunifu,s,mratibu,mwendelezo,makubaliano,NA,sdf,1,5,NA,NA,NA,NA,NA,NA,NA,NA,NA,NA,NA,NA,NA,NA,NA,NA,NA,NA,NA
b24a8,"""Falsch""-Screen",canvas.Screen,3_0_5_0_5_1_2,NA,NA,skipped,NA,1910726.6,NA,NA,1910718.549,1910727,2023-08-08T09:46:37Z,1910735.215,NULL,Kreativität,ubunifu,s,mratibu,mwendelezo,makubaliano,NA,sdf,NA,5,NA,NA,NA,NA,NA,NA,NA,NA,NA,NA,NA,NA,NA,NA,NA,NA,NA,NA,NA
b24a8,shallow,flow.Sequence,3_0_5_0_5_1,NA,NA,completion,11350.118,1899359.8,1899351.765,1899368.431,1910718.549,1910727.3,2023-08-08T09:46:37Z,1910735.215,NULL,Kreativität,ubunifu,s,mratibu,mwendelezo,makubaliano,NA,sdf,NA,5,NA,NA,NA,NA,NA,NA,NA,NA,NA,NA,NA,NA,NA,NA,NA,NA,NA,NA,NA
b24a8,task,flow.Sequence,3_0_5_0_5,NA,NA,completion,11350.118,1899359.7,1899351.765,1899368.431,1910718.549,1910727.4,2023-08-08T09:46:37Z,1910735.215,NULL,Kreativität,ubunifu,s,mratibu,mwendelezo,makubaliano,NA,sdf,NA,5,NA,NA,NA,NA,NA,NA,NA,NA,NA,NA,NA,NA,NA,NA,NA,NA,NA,NA,NA
b24a8,Deep Question,html.Page,3_0_5_0_6_0_0,NA,NA,form submission,7132.4849999992,1910727.5,1910718.549,1910735.215,1917867.7,1917867.9,2023-08-08T09:46:44Z,1917868.263,NULL,Gefährdung,kuhatarisha,d,NA,NA,NA,aghana,NA,NA,5,NA,NA,NA,NA,NA,NA,NA,NA,NA,NA,NA,NA,NA,NA,NA,NA,NA,NA,NA
b24a8,"""Richtig""-Screen",canvas.Screen,3_0_5_0_6_0_1,NA,NA,skipped,NA,1917870.1,NA,NA,1917867.7,1917870.2,2023-08-08T09:46:44Z,1917868.263,NULL,Gefährdung,kuhatarisha,d,NA,NA,NA,NA,sdf,NA,5,NA,NA,NA,NA,NA,NA,NA,NA,NA,NA,NA,NA,NA,NA,NA,NA,NA,NA,NA
b24a8,"""Falsch""-Screen",canvas.Screen,3_0_5_0_6_0_2,NA,NA,timeout,5000.4129999999,1917870.7,1917851.597,1917868.263,1922852.01,1922856.2,2023-08-08T09:46:49Z,1922868.676,NULL,Gefährdung,kuhatarisha,d,NA,NA,NA,NA,sdf,0,5,NA,NA,NA,NA,NA,NA,NA,NA,NA,NA,NA,NA,NA,NA,NA,NA,NA,NA,NA
b24a8,deep,flow.Sequence,3_0_5_0_6_0,NA,NA,completion,12116.795,1910727.5,1910718.549,1910735.215,1922852.01,1922856.7,2023-08-08T09:46:49Z,1922868.676,NULL,Gefährdung,kuhatarisha,d,NA,NA,NA,NA,sdf,NA,5,NA,NA,NA,NA,NA,NA,NA,NA,NA,NA,NA,NA,NA,NA,NA,NA,NA,NA,NA
b24a8,shallow,flow.Sequence,3_0_5_0_6_1,NA,NA,skipped,NA,1922856.8,NA,NA,1922852.01,1922856.9,2023-08-08T09:46:49Z,1922868.676,NULL,Gefährdung,kuhatarisha,d,NA,NA,NA,NA,sdf,NA,5,NA,NA,NA,NA,NA,NA,NA,NA,NA,NA,NA,NA,NA,NA,NA,NA,NA,NA,NA
b24a8,task,flow.Sequence,3_0_5_0_6,NA,NA,completion,12116.795,1910727.4,1910718.549,1910735.215,1922852.01,1922857.1,2023-08-08T09:46:49Z,1922868.676,NULL,Gefährdung,kuhatarisha,d,NA,NA,NA,NA,sdf,NA,5,NA,NA,NA,NA,NA,NA,NA,NA,NA,NA,NA,NA,NA,NA,NA,NA,NA,NA,NA
b24a8,deep,flow.Sequence,3_0_5_0_7_0,NA,NA,skipped,NA,1922857.2,NA,NA,1922852.01,1922857.4,2023-08-08T09:46:49Z,1922868.676,NULL,Können,unaweza,s,kiongozi,bustani,mienendo,NA,sdf,NA,5,NA,NA,NA,NA,NA,NA,NA,NA,NA,NA,NA,NA,NA,NA,NA,NA,NA,NA,NA
b24a8,Shallow Question,html.Page,3_0_5_0_7_1_0,NA,NA,form submission,6359.6240000008,1922857.4,1922852.01,1922868.676,1929228.3,1929228.7,2023-08-08T09:46:56Z,1929235.088,NULL,Können,unaweza,s,kiongozi,bustani,mienendo,unaweza,NA,NA,5,NA,NA,NA,NA,NA,NA,NA,NA,NA,NA,NA,NA,NA,NA,NA,NA,NA,NA,NA
b24a8,"""Richtig""-Screen",canvas.Screen,3_0_5_0_7_1_1,NA,NA,timeout,5000.5760000001,1929231.8,1929218.422,1929235.088,1934218.998,1934223.9,2023-08-08T09:47:01Z,1934235.664,NULL,Können,unaweza,s,kiongozi,bustani,mienendo,NA,sdf,1,5,NA,NA,NA,NA,NA,NA,NA,NA,NA,NA,NA,NA,NA,NA,NA,NA,NA,NA,NA
b24a8,"""Falsch""-Screen",canvas.Screen,3_0_5_0_7_1_2,NA,NA,skipped,NA,1934228.2,NA,NA,1934218.998,1934228.3,2023-08-08T09:47:01Z,1934235.664,NULL,Können,unaweza,s,kiongozi,bustani,mienendo,NA,sdf,NA,5,NA,NA,NA,NA,NA,NA,NA,NA,NA,NA,NA,NA,NA,NA,NA,NA,NA,NA,NA
b24a8,shallow,flow.Sequence,3_0_5_0_7_1,NA,NA,completion,11350.322,1922857.4,1922852.01,1922868.676,1934218.998,1934228.5,2023-08-08T09:47:01Z,1934235.664,NULL,Können,unaweza,s,kiongozi,bustani,mienendo,NA,sdf,NA,5,NA,NA,NA,NA,NA,NA,NA,NA,NA,NA,NA,NA,NA,NA,NA,NA,NA,NA,NA
b24a8,task,flow.Sequence,3_0_5_0_7,NA,NA,completion,11350.322,1922857.2,1922852.01,1922868.676,1934218.998,1934228.7,2023-08-08T09:47:01Z,1934235.664,NULL,Können,unaweza,s,kiongozi,bustani,mienendo,NA,sdf,NA,5,NA,NA,NA,NA,NA,NA,NA,NA,NA,NA,NA,NA,NA,NA,NA,NA,NA,NA,NA
b24a8,block,flow.Loop,3_0_5_0,NA,NA,completion,103684.861,1830531.9,1830500.805,1830534.137,1934218.998,1934228.8,2023-08-08T09:47:01Z,1934235.664,NULL,NA,NA,NA,NA,NA,NA,NA,sdf,NA,5,NA,NA,NA,NA,NA,NA,NA,NA,NA,NA,NA,NA,NA,NA,NA,NA,NA,NA,NA
b24a8,weiter,canvas.Screen,3_0_5_1,sdf,keypress(Space),response,6115.4360000014,1934228.9,1934218.998,1934235.664,1940351.1,1940357,2023-08-08T09:47:07Z,1940518.746,NULL,NA,NA,NA,NA,NA,NA,NA,sdf,NA,5,NA,NA,NA,NA,NA,NA,NA,NA,NA,NA,NA,NA,NA,NA,NA,NA,NA,NA,NA
b24a8,check continue,flow.Sequence,3_0_5,NA,NA,completion,109816.963,1830531.9,1830500.805,1830534.137,1940351.1,1940357.3,2023-08-08T09:47:07Z,1940518.746,NULL,NA,NA,NA,NA,NA,NA,NA,sdf,NA,5,NA,NA,NA,NA,NA,NA,NA,NA,NA,NA,NA,NA,NA,NA,NA,NA,NA,NA,NA
b24a8,check continue,flow.Sequence,3_0_6,NA,NA,skipped,NA,1940379.7,NA,NA,1940351.1,1940379.8,2023-08-08T09:47:07Z,1940518.746,NULL,NA,NA,NA,NA,NA,NA,NA,dfs,NA,6,NA,NA,NA,NA,NA,NA,NA,NA,NA,NA,NA,NA,NA,NA,NA,NA,NA,NA,NA
b24a8,check continue,flow.Sequence,3_0_7,NA,NA,skipped,NA,1940392.4,NA,NA,1940351.1,1940392.5,2023-08-08T09:47:07Z,1940518.746,NULL,NA,NA,NA,NA,NA,NA,NA,df,NA,7,NA,NA,NA,NA,NA,NA,NA,NA,NA,NA,NA,NA,NA,NA,NA,NA,NA,NA,NA
b24a8,check continue,flow.Sequence,3_0_8,NA,NA,skipped,NA,1940402.6,NA,NA,1940351.1,1940402.7,2023-08-08T09:47:07Z,1940518.746,NULL,NA,NA,NA,NA,NA,NA,NA,dfs,NA,8,NA,NA,NA,NA,NA,NA,NA,NA,NA,NA,NA,NA,NA,NA,NA,NA,NA,NA,NA
b24a8,check continue,flow.Sequence,3_0_9,NA,NA,skipped,NA,1940411.2,NA,NA,1940351.1,1940411.3,2023-08-08T09:47:07Z,1940518.746,NULL,NA,NA,NA,NA,NA,NA,NA,dsf,NA,9,NA,NA,NA,NA,NA,NA,NA,NA,NA,NA,NA,NA,NA,NA,NA,NA,NA,NA,NA
b24a8,check continue,flow.Sequence,3_0_10,NA,NA,skipped,NA,1940418.8,NA,NA,1940351.1,1940418.8,2023-08-08T09:47:07Z,1940518.746,NULL,NA,NA,NA,NA,NA,NA,NA,df,NA,10,NA,NA,NA,NA,NA,NA,NA,NA,NA,NA,NA,NA,NA,NA,NA,NA,NA,NA,NA
b24a8,check continue,flow.Sequence,3_0_11,NA,NA,skipped,NA,1940425.8,NA,NA,1940351.1,1940425.9,2023-08-08T09:47:07Z,1940518.746,NULL,NA,NA,NA,NA,NA,NA,NA,dfs,NA,11,NA,NA,NA,NA,NA,NA,NA,NA,NA,NA,NA,NA,NA,NA,NA,NA,NA,NA,NA
b24a8,check continue,flow.Sequence,3_0_12,NA,NA,skipped,NA,1940432.5,NA,NA,1940351.1,1940432.5,2023-08-08T09:47:07Z,1940518.746,NULL,NA,NA,NA,NA,NA,NA,NA,dsf,NA,12,NA,NA,NA,NA,NA,NA,NA,NA,NA,NA,NA,NA,NA,NA,NA,NA,NA,NA,NA
b24a8,check continue,flow.Sequence,3_0_13,NA,NA,skipped,NA,1940438.9,NA,NA,1940351.1,1940438.9,2023-08-08T09:47:07Z,1940518.746,NULL,NA,NA,NA,NA,NA,NA,NA,dsf,NA,13,NA,NA,NA,NA,NA,NA,NA,NA,NA,NA,NA,NA,NA,NA,NA,NA,NA,NA,NA
b24a8,check continue,flow.Sequence,3_0_14,NA,NA,skipped,NA,1940444.9,NA,NA,1940351.1,1940444.9,2023-08-08T09:47:07Z,1940518.746,NULL,NA,NA,NA,NA,NA,NA,NA,NA,NA,14,NA,NA,NA,NA,NA,NA,NA,NA,NA,NA,NA,NA,NA,NA,NA,NA,NA,NA,NA
b24a8,check continue,flow.Sequence,3_0_15,NA,NA,skipped,NA,1940450.2,NA,NA,1940351.1,1940450.2,2023-08-08T09:47:07Z,1940518.746,NULL,NA,NA,NA,NA,NA,NA,NA,NA,NA,15,NA,NA,NA,NA,NA,NA,NA,NA,NA,NA,NA,NA,NA,NA,NA,NA,NA,NA,NA
b24a8,check continue,flow.Sequence,3_0_16,NA,NA,skipped,NA,1940455.7,NA,NA,1940351.1,1940455.7,2023-08-08T09:47:07Z,1940518.746,NULL,NA,NA,NA,NA,NA,NA,NA,NA,NA,16,NA,NA,NA,NA,NA,NA,NA,NA,NA,NA,NA,NA,NA,NA,NA,NA,NA,NA,NA
b24a8,check continue,flow.Sequence,3_0_17,NA,NA,skipped,NA,1940461.2,NA,NA,1940351.1,1940461.2,2023-08-08T09:47:07Z,1940518.746,NULL,NA,NA,NA,NA,NA,NA,NA,NA,NA,17,NA,NA,NA,NA,NA,NA,NA,NA,NA,NA,NA,NA,NA,NA,NA,NA,NA,NA,NA
b24a8,check continue,flow.Sequence,3_0_18,NA,NA,skipped,NA,1940466.5,NA,NA,1940351.1,1940466.5,2023-08-08T09:47:07Z,1940518.746,NULL,NA,NA,NA,NA,NA,NA,NA,NA,NA,18,NA,NA,NA,NA,NA,NA,NA,NA,NA,NA,NA,NA,NA,NA,NA,NA,NA,NA,NA
b24a8,check continue,flow.Sequence,3_0_19,NA,NA,skipped,NA,1940471.7,NA,NA,1940351.1,1940471.7,2023-08-08T09:47:07Z,1940518.746,NULL,NA,NA,NA,NA,NA,NA,NA,NA,NA,19,NA,NA,NA,NA,NA,NA,NA,NA,NA,NA,NA,NA,NA,NA,NA,NA,NA,NA,NA
b24a8,check continue,flow.Sequence,3_0_20,NA,NA,skipped,NA,1940477.1,NA,NA,1940351.1,1940477.1,2023-08-08T09:47:07Z,1940518.746,NULL,NA,NA,NA,NA,NA,NA,NA,NA,NA,20,NA,NA,NA,NA,NA,NA,NA,NA,NA,NA,NA,NA,NA,NA,NA,NA,NA,NA,NA
b24a8,check continue,flow.Sequence,3_0_21,NA,NA,skipped,NA,1940482.3,NA,NA,1940351.1,1940482.4,2023-08-08T09:47:07Z,1940518.746,NULL,NA,NA,NA,NA,NA,NA,NA,NA,NA,21,NA,NA,NA,NA,NA,NA,NA,NA,NA,NA,NA,NA,NA,NA,NA,NA,NA,NA,NA
b24a8,check continue,flow.Sequence,3_0_22,NA,NA,skipped,NA,1940488.1,NA,NA,1940351.1,1940488.1,2023-08-08T09:47:07Z,1940518.746,NULL,NA,NA,NA,NA,NA,NA,NA,NA,NA,22,NA,NA,NA,NA,NA,NA,NA,NA,NA,NA,NA,NA,NA,NA,NA,NA,NA,NA,NA
b24a8,check continue,flow.Sequence,3_0_23,NA,NA,skipped,NA,1940493.5,NA,NA,1940351.1,1940493.5,2023-08-08T09:47:07Z,1940518.746,NULL,NA,NA,NA,NA,NA,NA,NA,NA,NA,23,NA,NA,NA,NA,NA,NA,NA,NA,NA,NA,NA,NA,NA,NA,NA,NA,NA,NA,NA
b24a8,check continue,flow.Sequence,3_0_24,NA,NA,skipped,NA,1940499.4,NA,NA,1940351.1,1940499.4,2023-08-08T09:47:07Z,1940518.746,NULL,NA,NA,NA,NA,NA,NA,NA,NA,NA,24,NA,NA,NA,NA,NA,NA,NA,NA,NA,NA,NA,NA,NA,NA,NA,NA,NA,NA,NA
b24a8,check continue,flow.Sequence,3_0_25,NA,NA,skipped,NA,1940504.4,NA,NA,1940351.1,1940504.5,2023-08-08T09:47:07Z,1940518.746,NULL,NA,NA,NA,NA,NA,NA,NA,NA,NA,25,NA,NA,NA,NA,NA,NA,NA,NA,NA,NA,NA,NA,NA,NA,NA,NA,NA,NA,NA
b24a8,check continue,flow.Sequence,3_0_26,NA,NA,skipped,NA,1940510.1,NA,NA,1940351.1,1940510.1,2023-08-08T09:47:07Z,1940518.746,NULL,NA,NA,NA,NA,NA,NA,NA,NA,NA,26,NA,NA,NA,NA,NA,NA,NA,NA,NA,NA,NA,NA,NA,NA,NA,NA,NA,NA,NA
b24a8,check continue,flow.Sequence,3_0_27,NA,NA,skipped,NA,1940515.2,NA,NA,1940351.1,1940515.2,2023-08-08T09:47:07Z,1940518.746,NULL,NA,NA,NA,NA,NA,NA,NA,NA,NA,27,NA,NA,NA,NA,NA,NA,NA,NA,NA,NA,NA,NA,NA,NA,NA,NA,NA,NA,NA
b24a8,check continue,flow.Sequence,3_0_28,NA,NA,skipped,NA,1940520.9,NA,NA,1940351.1,1940521,2023-08-08T09:47:07Z,1940518.746,NULL,NA,NA,NA,NA,NA,NA,NA,NA,NA,28,NA,NA,NA,NA,NA,NA,NA,NA,NA,NA,NA,NA,NA,NA,NA,NA,NA,NA,NA
b24a8,check continue,flow.Sequence,3_0_29,NA,NA,skipped,NA,1940526,NA,NA,1940351.1,1940526,2023-08-08T09:47:07Z,1940518.746,NULL,NA,NA,NA,NA,NA,NA,NA,NA,NA,29,NA,NA,NA,NA,NA,NA,NA,NA,NA,NA,NA,NA,NA,NA,NA,NA,NA,NA,NA
b24a8,until continue,flow.Loop,3_0,NA,NA,completion,607387.79,1332947.7,1332895.497,1332963.31,1940351.1,1940526.1,2023-08-08T09:47:07Z,1940518.746,NULL,NA,NA,NA,NA,NA,NA,NA,NA,NA,NA,NA,NA,NA,NA,NA,NA,NA,NA,NA,NA,NA,NA,NA,NA,NA,NA,NA,NA,NA
b24a8,block 1,flow.Sequence,3,NA,NA,completion,607387.79,1332947.7,1332895.497,1332963.31,1940351.1,1940526.1,2023-08-08T09:47:07Z,1940518.746,NULL,NA,NA,NA,NA,NA,NA,NA,NA,NA,NA,NA,NA,NA,NA,NA,NA,NA,NA,NA,NA,NA,NA,NA,NA,NA,NA,NA,NA,NA
