observation,sender,sender_type,sender_id,response,response_action,ended_on,duration,time_run,time_render,time_show,time_end,time_commit,timestamp,time_switch,distractors,german,swahili,enc,distractor1,distractor2,distractor3,response_2,x,correct,x_2,url_vp,url_sess,meta_labjs_version,meta_location,meta_user_agent,meta_platform,meta_language,meta_locale,meta_time_zone,meta_timezone_offset,meta_screen_width,meta_screen_height,meta_scroll_width,meta_scroll_height,meta_window_inner_width,meta_window_inner_height,meta_device_pixel_ratio,meta_labjs_build_flavor,meta_labjs_build_commit
8d294,Introduction general,canvas.Screen,0,weiter,keypress(q),response,71247.222,1817.5,763.442,3156855.778,3228103,3228106,2023-05-12T11:18:52Z,3228113.554,NULL,NA,NA,NA,NA,NA,NA,NA,NA,NA,NA,207,3,20.2.4,https://neurocog.fernuni.ch/studies/vweber/sfink/encoding_immediate/index.html?vp=207&sess=3,"Mozilla/5.0 (Windows NT 10.0; Win64; x64) AppleWebKit/537.36 (KHTML, like Gecko) Chrome/113.0.0.0 Safari/537.36",Win32,de-CH,de,Europe/Zurich,-120,1536,864,1536,706,1536,754,1.25,production,f5b4a49f956347addd546a832a3327688c2c0fef
8d294,Introduction practice,canvas.Screen,1_0,NA,keypress(Space),response,6592.245999997,3228106.6,3228093.565,3228113.554,3234705.8,3234706.3,2023-05-12T11:18:59Z,3234724.798,NULL,NA,NA,NA,NA,NA,NA,NA,NA,NA,NA,NA,NA,NA,NA,NA,NA,NA,NA,NA,NA,NA,NA,NA,NA,NA,NA,NA,NA,NA
8d294,deep,flow.Sequence,1_1_0_0,NA,NA,skipped,NA,3234706.5,NA,NA,3234705.8,3234707.6,2023-05-12T11:18:59Z,3234724.798,"c(""distractor1"", ""distractor2"", ""distractor3"")",Kritik,lawama,s,dereva,nafasi,mawazo,NA,NA,NA,NA,NA,NA,NA,NA,NA,NA,NA,NA,NA,NA,NA,NA,NA,NA,NA,NA,NA,NA,NA
8d294,Shallow Question,html.Page,1_1_0_1_0,NA,NA,form submission,6902.8020000015,3234707.7,3234707.792,3234724.798,3241627.6,3241627.8,2023-05-12T11:19:06Z,3241635.777,"c(""distractor1"", ""distractor2"", ""distractor3"")",Kritik,lawama,s,dereva,nafasi,mawazo,nafasi,NA,NA,NA,NA,NA,NA,NA,NA,NA,NA,NA,NA,NA,NA,NA,NA,NA,NA,NA,NA,NA,NA
8d294,"""Richtig""-Screen",canvas.Screen,1_1_0_1_1,NA,NA,skipped,NA,3241629.2,NA,NA,3241627.6,3241629.3,2023-05-12T11:19:06Z,3241635.777,"c(""distractor1"", ""distractor2"", ""distractor3"")",Kritik,lawama,s,dereva,nafasi,mawazo,NA,NA,NA,NA,NA,NA,NA,NA,NA,NA,NA,NA,NA,NA,NA,NA,NA,NA,NA,NA,NA,NA,NA
8d294,"""Falsch""-Screen",canvas.Screen,1_1_0_1_2,NA,NA,timeout,4995.9050000003,3241630.2,3241619.662,3241635.777,3246615.065,3246628.6,2023-05-12T11:19:11Z,3246631.682,"c(""distractor1"", ""distractor2"", ""distractor3"")",Kritik,lawama,s,dereva,nafasi,mawazo,NA,NA,0,NA,NA,NA,NA,NA,NA,NA,NA,NA,NA,NA,NA,NA,NA,NA,NA,NA,NA,NA,NA
8d294,shallow,flow.Sequence,1_1_0_1,NA,NA,completion,11890.267,3234707.7,3234707.792,3234724.798,3246615.065,3246629.2,2023-05-12T11:19:11Z,3246631.682,"c(""distractor1"", ""distractor2"", ""distractor3"")",Kritik,lawama,s,dereva,nafasi,mawazo,NA,NA,NA,NA,NA,NA,NA,NA,NA,NA,NA,NA,NA,NA,NA,NA,NA,NA,NA,NA,NA,NA,NA
8d294,task,flow.Sequence,1_1_0,NA,NA,completion,11890.267,3234706.5,3234707.792,3234724.798,3246615.065,3246629.5,2023-05-12T11:19:11Z,3246631.682,"c(""distractor1"", ""distractor2"", ""distractor3"")",Kritik,lawama,s,dereva,nafasi,mawazo,NA,NA,NA,NA,NA,NA,NA,NA,NA,NA,NA,NA,NA,NA,NA,NA,NA,NA,NA,NA,NA,NA,NA
8d294,deep,flow.Sequence,1_1_1_0,NA,NA,skipped,NA,3246629.8,NA,NA,3246615.065,3246630,2023-05-12T11:19:11Z,3246631.682,"c(""distractor1"", ""distractor2"", ""distractor3"")",Gegenwart,hadhara,s,katiba,jokofu,mikopo,NA,NA,NA,NA,NA,NA,NA,NA,NA,NA,NA,NA,NA,NA,NA,NA,NA,NA,NA,NA,NA,NA,NA
8d294,Shallow Question,html.Page,1_1_1_1_0,NA,NA,form submission,3981.2179999985,3246630.3,3246615.065,3246631.682,3250612.9,3250613.2,2023-05-12T11:19:15Z,3250645.379,"c(""distractor1"", ""distractor2"", ""distractor3"")",Gegenwart,hadhara,s,katiba,jokofu,mikopo,mikopo,NA,NA,NA,NA,NA,NA,NA,NA,NA,NA,NA,NA,NA,NA,NA,NA,NA,NA,NA,NA,NA,NA
8d294,"""Richtig""-Screen",canvas.Screen,1_1_1_1_1,NA,NA,skipped,NA,3250615.4,NA,NA,3250612.9,3250615.5,2023-05-12T11:19:15Z,3250645.379,"c(""distractor1"", ""distractor2"", ""distractor3"")",Gegenwart,hadhara,s,katiba,jokofu,mikopo,NA,NA,NA,NA,NA,NA,NA,NA,NA,NA,NA,NA,NA,NA,NA,NA,NA,NA,NA,NA,NA,NA,NA
8d294,"""Falsch""-Screen",canvas.Screen,1_1_1_1_2,NA,NA,timeout,4995.9129999997,3250616.4,3250628.938,3250645.379,3255624.268,3255625.7,2023-05-12T11:19:20Z,3255641.292,"c(""distractor1"", ""distractor2"", ""distractor3"")",Gegenwart,hadhara,s,katiba,jokofu,mikopo,NA,NA,0,NA,NA,NA,NA,NA,NA,NA,NA,NA,NA,NA,NA,NA,NA,NA,NA,NA,NA,NA,NA
8d294,shallow,flow.Sequence,1_1_1_1,NA,NA,completion,8992.5860000001,3246630.3,3246615.065,3246631.682,3255624.268,3255626.6,2023-05-12T11:19:20Z,3255641.292,"c(""distractor1"", ""distractor2"", ""distractor3"")",Gegenwart,hadhara,s,katiba,jokofu,mikopo,NA,NA,NA,NA,NA,NA,NA,NA,NA,NA,NA,NA,NA,NA,NA,NA,NA,NA,NA,NA,NA,NA,NA
8d294,task,flow.Sequence,1_1_1,NA,NA,completion,8992.5860000001,3246629.7,3246615.065,3246631.682,3255624.268,3255627.1,2023-05-12T11:19:20Z,3255641.292,"c(""distractor1"", ""distractor2"", ""distractor3"")",Gegenwart,hadhara,s,katiba,jokofu,mikopo,NA,NA,NA,NA,NA,NA,NA,NA,NA,NA,NA,NA,NA,NA,NA,NA,NA,NA,NA,NA,NA,NA,NA
8d294,Deep Question,html.Page,1_1_2_0_0,NA,NA,form submission,3659.9079999956,3255627.4,3255624.268,3255641.292,3259301.2,3259301.5,2023-05-12T11:19:23Z,3259304.528,"c(""distractor1"", ""distractor2"", ""distractor3"")",Schatten,kivuli,d,NA,NA,NA,omto,NA,NA,NA,NA,NA,NA,NA,NA,NA,NA,NA,NA,NA,NA,NA,NA,NA,NA,NA,NA,NA,NA
8d294,"""Richtig""-Screen",canvas.Screen,1_1_2_0_1,NA,NA,skipped,NA,3259303.4,NA,NA,3259301.2,3259303.5,2023-05-12T11:19:23Z,3259304.528,"c(""distractor1"", ""distractor2"", ""distractor3"")",Schatten,kivuli,d,NA,NA,NA,NA,NA,NA,NA,NA,NA,NA,NA,NA,NA,NA,NA,NA,NA,NA,NA,NA,NA,NA,NA,NA,NA,NA
8d294,"""Falsch""-Screen",canvas.Screen,1_1_2_0_2,NA,NA,timeout,4995.986,3259304.4,3259287.979,3259304.528,3264284.373,3264285.4,2023-05-12T11:19:28Z,3264300.514,"c(""distractor1"", ""distractor2"", ""distractor3"")",Schatten,kivuli,d,NA,NA,NA,NA,NA,0,NA,NA,NA,NA,NA,NA,NA,NA,NA,NA,NA,NA,NA,NA,NA,NA,NA,NA,NA,NA
8d294,deep,flow.Sequence,1_1_2_0,NA,NA,completion,8643.0810000002,3255627.4,3255624.268,3255641.292,3264284.373,3264285.8,2023-05-12T11:19:28Z,3264300.514,"c(""distractor1"", ""distractor2"", ""distractor3"")",Schatten,kivuli,d,NA,NA,NA,NA,NA,NA,NA,NA,NA,NA,NA,NA,NA,NA,NA,NA,NA,NA,NA,NA,NA,NA,NA,NA,NA,NA
8d294,shallow,flow.Sequence,1_1_2_1,NA,NA,skipped,NA,3264286.1,NA,NA,3264284.373,3264286.2,2023-05-12T11:19:28Z,3264300.514,"c(""distractor1"", ""distractor2"", ""distractor3"")",Schatten,kivuli,d,NA,NA,NA,NA,NA,NA,NA,NA,NA,NA,NA,NA,NA,NA,NA,NA,NA,NA,NA,NA,NA,NA,NA,NA,NA,NA
8d294,task,flow.Sequence,1_1_2,NA,NA,completion,8643.0810000002,3255627.3,3255624.268,3255641.292,3264284.373,3264286.5,2023-05-12T11:19:28Z,3264300.514,"c(""distractor1"", ""distractor2"", ""distractor3"")",Schatten,kivuli,d,NA,NA,NA,NA,NA,NA,NA,NA,NA,NA,NA,NA,NA,NA,NA,NA,NA,NA,NA,NA,NA,NA,NA,NA,NA,NA
8d294,deep,flow.Sequence,1_1_3_0,NA,NA,skipped,NA,3264286.7,NA,NA,3264284.373,3264286.8,2023-05-12T11:19:28Z,3264300.514,"c(""distractor1"", ""distractor2"", ""distractor3"")",Rückhalt,msaada,s,muhula,auwali,kiwimbe,NA,NA,NA,NA,NA,NA,NA,NA,NA,NA,NA,NA,NA,NA,NA,NA,NA,NA,NA,NA,NA,NA,NA
8d294,Shallow Question,html.Page,1_1_3_1_0,NA,NA,form submission,4630.7859999971,3264287,3264284.373,3264300.514,3268931.3,3268931.5,2023-05-12T11:19:33Z,3268947.176,"c(""distractor1"", ""distractor2"", ""distractor3"")",Rückhalt,msaada,s,muhula,auwali,kiwimbe,kiwimbe,NA,NA,NA,NA,NA,NA,NA,NA,NA,NA,NA,NA,NA,NA,NA,NA,NA,NA,NA,NA,NA,NA
8d294,"""Richtig""-Screen",canvas.Screen,1_1_3_1_1,NA,NA,skipped,NA,3268933.3,NA,NA,3268931.3,3268933.4,2023-05-12T11:19:33Z,3268947.176,"c(""distractor1"", ""distractor2"", ""distractor3"")",Rückhalt,msaada,s,muhula,auwali,kiwimbe,NA,NA,NA,NA,NA,NA,NA,NA,NA,NA,NA,NA,NA,NA,NA,NA,NA,NA,NA,NA,NA,NA,NA
8d294,"""Falsch""-Screen",canvas.Screen,1_1_3_1_2,NA,NA,timeout,4995.8640000001,3268933.9,3268930.487,3268947.176,3273926.42,3273927.5,2023-05-12T11:19:38Z,3273943.04,"c(""distractor1"", ""distractor2"", ""distractor3"")",Rückhalt,msaada,s,muhula,auwali,kiwimbe,NA,NA,0,NA,NA,NA,NA,NA,NA,NA,NA,NA,NA,NA,NA,NA,NA,NA,NA,NA,NA,NA,NA
8d294,shallow,flow.Sequence,1_1_3_1,NA,NA,completion,9625.906,3264286.9,3264284.373,3264300.514,3273926.42,3273927.9,2023-05-12T11:19:38Z,3273943.04,"c(""distractor1"", ""distractor2"", ""distractor3"")",Rückhalt,msaada,s,muhula,auwali,kiwimbe,NA,NA,NA,NA,NA,NA,NA,NA,NA,NA,NA,NA,NA,NA,NA,NA,NA,NA,NA,NA,NA,NA,NA
8d294,task,flow.Sequence,1_1_3,NA,NA,completion,9625.906,3264286.6,3264284.373,3264300.514,3273926.42,3273928.2,2023-05-12T11:19:38Z,3273943.04,"c(""distractor1"", ""distractor2"", ""distractor3"")",Rückhalt,msaada,s,muhula,auwali,kiwimbe,NA,NA,NA,NA,NA,NA,NA,NA,NA,NA,NA,NA,NA,NA,NA,NA,NA,NA,NA,NA,NA,NA,NA
8d294,Deep Question,html.Page,1_1_4_0_0,NA,NA,form submission,5744.0600000015,3273928.4,3273926.42,3273943.04,3279687.1,3279687.3,2023-05-12T11:19:44Z,3279707.369,"c(""distractor1"", ""distractor2"", ""distractor3"")",Qualität,mtindo,d,NA,NA,NA,roto,NA,NA,NA,NA,NA,NA,NA,NA,NA,NA,NA,NA,NA,NA,NA,NA,NA,NA,NA,NA,NA,NA
8d294,"""Richtig""-Screen",canvas.Screen,1_1_4_0_1,NA,NA,skipped,NA,3279689.6,NA,NA,3279687.1,3279689.8,2023-05-12T11:19:44Z,3279707.369,"c(""distractor1"", ""distractor2"", ""distractor3"")",Qualität,mtindo,d,NA,NA,NA,NA,NA,NA,NA,NA,NA,NA,NA,NA,NA,NA,NA,NA,NA,NA,NA,NA,NA,NA,NA,NA,NA,NA
8d294,"""Falsch""-Screen",canvas.Screen,1_1_4_0_2,NA,NA,timeout,4993.54,3279690.5,3279671.706,3279707.369,3284684.159,3284685.2,2023-05-12T11:19:49Z,3284700.909,"c(""distractor1"", ""distractor2"", ""distractor3"")",Qualität,mtindo,d,NA,NA,NA,NA,NA,0,NA,NA,NA,NA,NA,NA,NA,NA,NA,NA,NA,NA,NA,NA,NA,NA,NA,NA,NA,NA
8d294,deep,flow.Sequence,1_1_4_0,NA,NA,completion,10741.119,3273928.3,3273926.42,3273943.04,3284684.159,3284685.6,2023-05-12T11:19:49Z,3284700.909,"c(""distractor1"", ""distractor2"", ""distractor3"")",Qualität,mtindo,d,NA,NA,NA,NA,NA,NA,NA,NA,NA,NA,NA,NA,NA,NA,NA,NA,NA,NA,NA,NA,NA,NA,NA,NA,NA,NA
8d294,shallow,flow.Sequence,1_1_4_1,NA,NA,skipped,NA,3284685.8,NA,NA,3284684.159,3284686,2023-05-12T11:19:49Z,3284700.909,"c(""distractor1"", ""distractor2"", ""distractor3"")",Qualität,mtindo,d,NA,NA,NA,NA,NA,NA,NA,NA,NA,NA,NA,NA,NA,NA,NA,NA,NA,NA,NA,NA,NA,NA,NA,NA,NA,NA
8d294,task,flow.Sequence,1_1_4,NA,NA,completion,10741.119,3273928.3,3273926.42,3273943.04,3284684.159,3284686.3,2023-05-12T11:19:49Z,3284700.909,"c(""distractor1"", ""distractor2"", ""distractor3"")",Qualität,mtindo,d,NA,NA,NA,NA,NA,NA,NA,NA,NA,NA,NA,NA,NA,NA,NA,NA,NA,NA,NA,NA,NA,NA,NA,NA,NA,NA
8d294,Deep Question,html.Page,1_1_5_0_0,NA,NA,form submission,3047.890999997,3284686.5,3284684.159,3284700.909,3287748.8,3287749,2023-05-12T11:19:52Z,3287765.027,"c(""distractor1"", ""distractor2"", ""distractor3"")",Gesundheit,salama,d,NA,NA,NA,sane,NA,NA,NA,NA,NA,NA,NA,NA,NA,NA,NA,NA,NA,NA,NA,NA,NA,NA,NA,NA,NA,NA
8d294,"""Richtig""-Screen",canvas.Screen,1_1_5_0_1,NA,NA,skipped,NA,3287751.4,NA,NA,3287748.8,3287751.6,2023-05-12T11:19:52Z,3287765.027,"c(""distractor1"", ""distractor2"", ""distractor3"")",Gesundheit,salama,d,NA,NA,NA,NA,NA,NA,NA,NA,NA,NA,NA,NA,NA,NA,NA,NA,NA,NA,NA,NA,NA,NA,NA,NA,NA,NA
8d294,"""Falsch""-Screen",canvas.Screen,1_1_5_0_2,NA,NA,timeout,4995.3910000003,3287752.5,3287748.403,3287765.027,3292743.971,3292745.1,2023-05-12T11:19:57Z,3292760.418,"c(""distractor1"", ""distractor2"", ""distractor3"")",Gesundheit,salama,d,NA,NA,NA,NA,NA,0,NA,NA,NA,NA,NA,NA,NA,NA,NA,NA,NA,NA,NA,NA,NA,NA,NA,NA,NA,NA
8d294,deep,flow.Sequence,1_1_5_0,NA,NA,completion,8043.0619999999,3284686.4,3284684.159,3284700.909,3292743.971,3292745.5,2023-05-12T11:19:57Z,3292760.418,"c(""distractor1"", ""distractor2"", ""distractor3"")",Gesundheit,salama,d,NA,NA,NA,NA,NA,NA,NA,NA,NA,NA,NA,NA,NA,NA,NA,NA,NA,NA,NA,NA,NA,NA,NA,NA,NA,NA
8d294,shallow,flow.Sequence,1_1_5_1,NA,NA,skipped,NA,3292745.6,NA,NA,3292743.971,3292745.9,2023-05-12T11:19:57Z,3292760.418,"c(""distractor1"", ""distractor2"", ""distractor3"")",Gesundheit,salama,d,NA,NA,NA,NA,NA,NA,NA,NA,NA,NA,NA,NA,NA,NA,NA,NA,NA,NA,NA,NA,NA,NA,NA,NA,NA,NA
8d294,task,flow.Sequence,1_1_5,NA,NA,completion,8043.0619999999,3284686.4,3284684.159,3284700.909,3292743.971,3292746.1,2023-05-12T11:19:57Z,3292760.418,"c(""distractor1"", ""distractor2"", ""distractor3"")",Gesundheit,salama,d,NA,NA,NA,NA,NA,NA,NA,NA,NA,NA,NA,NA,NA,NA,NA,NA,NA,NA,NA,NA,NA,NA,NA,NA,NA,NA
8d294,block,flow.Loop,1_1,NA,NA,completion,58019.173,3234706.4,3234707.792,3234724.798,3292743.971,3292746.6,2023-05-12T11:19:57Z,3292760.418,"c(""distractor1"", ""distractor2"", ""distractor3"")",NA,NA,NA,NA,NA,NA,NA,NA,NA,NA,NA,NA,NA,NA,NA,NA,NA,NA,NA,NA,NA,NA,NA,NA,NA,NA,NA,NA,NA
8d294,Practice,flow.Sequence,1,NA,NA,completion,64630.417,3228106.6,3228093.565,3228113.554,3292743.971,3292746.9,2023-05-12T11:19:57Z,3292760.418,NULL,NA,NA,NA,NA,NA,NA,NA,NA,NA,NA,NA,NA,NA,NA,NA,NA,NA,NA,NA,NA,NA,NA,NA,NA,NA,NA,NA,NA,NA
8d294,Experiment start,canvas.Screen,2,weiter,keypress(q),response,5405.9819999984,3292747.1,3292743.971,3292760.418,3298166.4,3298167.4,2023-05-12T11:20:02Z,3298389.307,NULL,NA,NA,NA,NA,NA,NA,NA,NA,NA,NA,NA,NA,NA,NA,NA,NA,NA,NA,NA,NA,NA,NA,NA,NA,NA,NA,NA,NA,NA
8d294,Deep Question,html.Page,3_0_0_0_0_0_0,NA,NA,form submission,32291.693,3298376.2,3298372.207,3298389.307,3330681,3330681.2,2023-05-12T11:20:35Z,3330695.782,NULL,Kanzler,diwani,d,NA,NA,NA,kito,NA,NA,0,NA,NA,NA,NA,NA,NA,NA,NA,NA,NA,NA,NA,NA,NA,NA,NA,NA,NA,NA
8d294,"""Richtig""-Screen",canvas.Screen,3_0_0_0_0_0_1,NA,NA,skipped,NA,3330683.9,NA,NA,3330681,3330684.1,2023-05-12T11:20:35Z,3330695.782,NULL,Kanzler,diwani,d,NA,NA,NA,NA,sdf,NA,0,NA,NA,NA,NA,NA,NA,NA,NA,NA,NA,NA,NA,NA,NA,NA,NA,NA,NA,NA
8d294,"""Falsch""-Screen",canvas.Screen,3_0_0_0_0_0_2,NA,NA,timeout,4996.2179999999,3330685,3330679.733,3330695.782,3335675.563,3335676.5,2023-05-12T11:20:40Z,3335692,NULL,Kanzler,diwani,d,NA,NA,NA,NA,sdf,0,0,NA,NA,NA,NA,NA,NA,NA,NA,NA,NA,NA,NA,NA,NA,NA,NA,NA,NA,NA
8d294,deep,flow.Sequence,3_0_0_0_0_0,NA,NA,completion,37286.256,3298376.1,3298372.207,3298389.307,3335675.563,3335677,2023-05-12T11:20:40Z,3335692,NULL,Kanzler,diwani,d,NA,NA,NA,NA,sdf,NA,0,NA,NA,NA,NA,NA,NA,NA,NA,NA,NA,NA,NA,NA,NA,NA,NA,NA,NA,NA
8d294,shallow,flow.Sequence,3_0_0_0_0_1,NA,NA,skipped,NA,3335677.1,NA,NA,3335675.563,3335677.3,2023-05-12T11:20:40Z,3335692,NULL,Kanzler,diwani,d,NA,NA,NA,NA,sdf,NA,0,NA,NA,NA,NA,NA,NA,NA,NA,NA,NA,NA,NA,NA,NA,NA,NA,NA,NA,NA
8d294,task,flow.Sequence,3_0_0_0_0,NA,NA,completion,37286.256,3298376.1,3298372.207,3298389.307,3335675.563,3335677.5,2023-05-12T11:20:40Z,3335692,NULL,Kanzler,diwani,d,NA,NA,NA,NA,sdf,NA,0,NA,NA,NA,NA,NA,NA,NA,NA,NA,NA,NA,NA,NA,NA,NA,NA,NA,NA,NA
8d294,deep,flow.Sequence,3_0_0_0_1_0,NA,NA,skipped,NA,3335677.7,NA,NA,3335675.563,3335677.8,2023-05-12T11:20:40Z,3335692,NULL,Wechsel,ugeuzaji,s,utambulisho,kujenga,wasiwasi,NA,sdf,NA,0,NA,NA,NA,NA,NA,NA,NA,NA,NA,NA,NA,NA,NA,NA,NA,NA,NA,NA,NA
8d294,Shallow Question,html.Page,3_0_0_0_1_1_0,NA,NA,form submission,19927.199999996,3335678,3335675.563,3335692,3355619.2,3355619.4,2023-05-12T11:21:00Z,3355625.265,NULL,Wechsel,ugeuzaji,s,utambulisho,kujenga,wasiwasi,wasiwasi,NA,NA,0,NA,NA,NA,NA,NA,NA,NA,NA,NA,NA,NA,NA,NA,NA,NA,NA,NA,NA,NA
8d294,"""Richtig""-Screen",canvas.Screen,3_0_0_0_1_1_1,NA,NA,skipped,NA,3355621.8,NA,NA,3355619.2,3355621.9,2023-05-12T11:21:00Z,3355625.265,NULL,Wechsel,ugeuzaji,s,utambulisho,kujenga,wasiwasi,NA,sdf,NA,0,NA,NA,NA,NA,NA,NA,NA,NA,NA,NA,NA,NA,NA,NA,NA,NA,NA,NA,NA
8d294,"""Falsch""-Screen",canvas.Screen,3_0_0_0_1_1_2,NA,NA,timeout,4996.1259999997,3355622.5,3355608.761,3355625.265,3360605.078,3360606,2023-05-12T11:21:05Z,3360621.391,NULL,Wechsel,ugeuzaji,s,utambulisho,kujenga,wasiwasi,NA,sdf,0,0,NA,NA,NA,NA,NA,NA,NA,NA,NA,NA,NA,NA,NA,NA,NA,NA,NA,NA,NA
8d294,shallow,flow.Sequence,3_0_0_0_1_1,NA,NA,completion,24913.078,3335677.9,3335675.563,3335692,3360605.078,3360606.5,2023-05-12T11:21:05Z,3360621.391,NULL,Wechsel,ugeuzaji,s,utambulisho,kujenga,wasiwasi,NA,sdf,NA,0,NA,NA,NA,NA,NA,NA,NA,NA,NA,NA,NA,NA,NA,NA,NA,NA,NA,NA,NA
8d294,task,flow.Sequence,3_0_0_0_1,NA,NA,completion,24913.078,3335677.6,3335675.563,3335692,3360605.078,3360606.7,2023-05-12T11:21:05Z,3360621.391,NULL,Wechsel,ugeuzaji,s,utambulisho,kujenga,wasiwasi,NA,sdf,NA,0,NA,NA,NA,NA,NA,NA,NA,NA,NA,NA,NA,NA,NA,NA,NA,NA,NA,NA,NA
8d294,deep,flow.Sequence,3_0_0_0_2_0,NA,NA,skipped,NA,3360607,NA,NA,3360605.078,3360607.1,2023-05-12T11:21:05Z,3360621.391,NULL,Erneuerung,ukarabati,s,ushawishi,ukalifu,unyonyaji,NA,sdf,NA,0,NA,NA,NA,NA,NA,NA,NA,NA,NA,NA,NA,NA,NA,NA,NA,NA,NA,NA,NA
8d294,Shallow Question,html.Page,3_0_0_0_2_1_0,NA,NA,form submission,8466.7090000017,3360607.3,3360605.078,3360621.391,3369088.1,3369088.3,2023-05-12T11:21:13Z,3369097.612,NULL,Erneuerung,ukarabati,s,ushawishi,ukalifu,unyonyaji,ushawishi,NA,NA,0,NA,NA,NA,NA,NA,NA,NA,NA,NA,NA,NA,NA,NA,NA,NA,NA,NA,NA,NA
8d294,"""Richtig""-Screen",canvas.Screen,3_0_0_0_2_1_1,NA,NA,skipped,NA,3369090,NA,NA,3369088.1,3369090.1,2023-05-12T11:21:13Z,3369097.612,NULL,Erneuerung,ukarabati,s,ushawishi,ukalifu,unyonyaji,NA,sdf,NA,0,NA,NA,NA,NA,NA,NA,NA,NA,NA,NA,NA,NA,NA,NA,NA,NA,NA,NA,NA
8d294,"""Falsch""-Screen",canvas.Screen,3_0_0_0_2_1_2,NA,NA,timeout,4995.8339999998,3369090.7,3369081.405,3369097.612,3374077.304,3374078.4,2023-05-12T11:21:18Z,3374093.446,NULL,Erneuerung,ukarabati,s,ushawishi,ukalifu,unyonyaji,NA,sdf,0,0,NA,NA,NA,NA,NA,NA,NA,NA,NA,NA,NA,NA,NA,NA,NA,NA,NA,NA,NA
8d294,shallow,flow.Sequence,3_0_0_0_2_1,NA,NA,completion,13455.913,3360607.3,3360605.078,3360621.391,3374077.304,3374078.7,2023-05-12T11:21:18Z,3374093.446,NULL,Erneuerung,ukarabati,s,ushawishi,ukalifu,unyonyaji,NA,sdf,NA,0,NA,NA,NA,NA,NA,NA,NA,NA,NA,NA,NA,NA,NA,NA,NA,NA,NA,NA,NA
8d294,task,flow.Sequence,3_0_0_0_2,NA,NA,completion,13455.913,3360606.9,3360605.078,3360621.391,3374077.304,3374079,2023-05-12T11:21:18Z,3374093.446,NULL,Erneuerung,ukarabati,s,ushawishi,ukalifu,unyonyaji,NA,sdf,NA,0,NA,NA,NA,NA,NA,NA,NA,NA,NA,NA,NA,NA,NA,NA,NA,NA,NA,NA,NA
8d294,deep,flow.Sequence,3_0_0_0_3_0,NA,NA,skipped,NA,3374079.1,NA,NA,3374077.304,3374079.4,2023-05-12T11:21:18Z,3374093.446,NULL,Angreifer,mshambulizi,s,kitengo,tasinia,usafirishaji,NA,sdf,NA,0,NA,NA,NA,NA,NA,NA,NA,NA,NA,NA,NA,NA,NA,NA,NA,NA,NA,NA,NA
8d294,Shallow Question,html.Page,3_0_0_0_3_1_0,NA,NA,form submission,18037.554,3374079.6,3374077.304,3374093.446,3392131,3392131.2,2023-05-12T11:21:36Z,3392145.482,NULL,Angreifer,mshambulizi,s,kitengo,tasinia,usafirishaji,tasinia,NA,NA,0,NA,NA,NA,NA,NA,NA,NA,NA,NA,NA,NA,NA,NA,NA,NA,NA,NA,NA,NA
8d294,"""Richtig""-Screen",canvas.Screen,3_0_0_0_3_1_1,NA,NA,skipped,NA,3392133.4,NA,NA,3392131,3392133.5,2023-05-12T11:21:36Z,3392145.482,NULL,Angreifer,mshambulizi,s,kitengo,tasinia,usafirishaji,NA,sdf,NA,0,NA,NA,NA,NA,NA,NA,NA,NA,NA,NA,NA,NA,NA,NA,NA,NA,NA,NA,NA
8d294,"""Falsch""-Screen",canvas.Screen,3_0_0_0_3_1_2,NA,NA,timeout,4995.622,3392134.1,3392129.048,3392145.482,3397124.489,3397135.2,2023-05-12T11:21:41Z,3397141.104,NULL,Angreifer,mshambulizi,s,kitengo,tasinia,usafirishaji,NA,sdf,0,0,NA,NA,NA,NA,NA,NA,NA,NA,NA,NA,NA,NA,NA,NA,NA,NA,NA,NA,NA
8d294,shallow,flow.Sequence,3_0_0_0_3_1,NA,NA,completion,23031.043,3374079.5,3374077.304,3374093.446,3397124.489,3397135.7,2023-05-12T11:21:41Z,3397141.104,NULL,Angreifer,mshambulizi,s,kitengo,tasinia,usafirishaji,NA,sdf,NA,0,NA,NA,NA,NA,NA,NA,NA,NA,NA,NA,NA,NA,NA,NA,NA,NA,NA,NA,NA
8d294,task,flow.Sequence,3_0_0_0_3,NA,NA,completion,23031.043,3374079.1,3374077.304,3374093.446,3397124.489,3397136,2023-05-12T11:21:41Z,3397141.104,NULL,Angreifer,mshambulizi,s,kitengo,tasinia,usafirishaji,NA,sdf,NA,0,NA,NA,NA,NA,NA,NA,NA,NA,NA,NA,NA,NA,NA,NA,NA,NA,NA,NA,NA
8d294,Deep Question,html.Page,3_0_0_0_4_0_0,NA,NA,form submission,6440.5959999957,3397136.2,3397124.489,3397141.104,3403581.7,3403581.9,2023-05-12T11:21:48Z,3403585.749,NULL,Flexibilität,kubadilika,d,NA,NA,NA,flexi,NA,NA,0,NA,NA,NA,NA,NA,NA,NA,NA,NA,NA,NA,NA,NA,NA,NA,NA,NA,NA,NA
8d294,"""Richtig""-Screen",canvas.Screen,3_0_0_0_4_0_1,NA,NA,skipped,NA,3403584.4,NA,NA,3403581.7,3403584.6,2023-05-12T11:21:48Z,3403585.749,NULL,Flexibilität,kubadilika,d,NA,NA,NA,NA,sdf,NA,0,NA,NA,NA,NA,NA,NA,NA,NA,NA,NA,NA,NA,NA,NA,NA,NA,NA,NA,NA
8d294,"""Falsch""-Screen",canvas.Screen,3_0_0_0_4_0_2,NA,NA,timeout,4995.9930000002,3403585.5,3403569.715,3403585.749,3408565.518,3408566.5,2023-05-12T11:21:53Z,3408581.742,NULL,Flexibilität,kubadilika,d,NA,NA,NA,NA,sdf,0,0,NA,NA,NA,NA,NA,NA,NA,NA,NA,NA,NA,NA,NA,NA,NA,NA,NA,NA,NA
8d294,deep,flow.Sequence,3_0_0_0_4_0,NA,NA,completion,11424.414,3397136.1,3397124.489,3397141.104,3408565.518,3408567,2023-05-12T11:21:53Z,3408581.742,NULL,Flexibilität,kubadilika,d,NA,NA,NA,NA,sdf,NA,0,NA,NA,NA,NA,NA,NA,NA,NA,NA,NA,NA,NA,NA,NA,NA,NA,NA,NA,NA
8d294,shallow,flow.Sequence,3_0_0_0_4_1,NA,NA,skipped,NA,3408567.1,NA,NA,3408565.518,3408567.3,2023-05-12T11:21:53Z,3408581.742,NULL,Flexibilität,kubadilika,d,NA,NA,NA,NA,sdf,NA,0,NA,NA,NA,NA,NA,NA,NA,NA,NA,NA,NA,NA,NA,NA,NA,NA,NA,NA,NA
8d294,task,flow.Sequence,3_0_0_0_4,NA,NA,completion,11424.414,3397136.1,3397124.489,3397141.104,3408565.518,3408567.5,2023-05-12T11:21:53Z,3408581.742,NULL,Flexibilität,kubadilika,d,NA,NA,NA,NA,sdf,NA,0,NA,NA,NA,NA,NA,NA,NA,NA,NA,NA,NA,NA,NA,NA,NA,NA,NA,NA,NA
8d294,Deep Question,html.Page,3_0_0_0_5_0_0,NA,NA,form submission,16038.957999995,3408567.7,3408565.518,3408581.742,3424620.7,3424620.8,2023-05-12T11:22:09Z,3424635.217,NULL,Abrechnung,uhasibu,d,NA,NA,NA,konto,NA,NA,0,NA,NA,NA,NA,NA,NA,NA,NA,NA,NA,NA,NA,NA,NA,NA,NA,NA,NA,NA
8d294,"""Richtig""-Screen",canvas.Screen,3_0_0_0_5_0_1,NA,NA,skipped,NA,3424622.8,NA,NA,3424620.7,3424622.9,2023-05-12T11:22:09Z,3424635.217,NULL,Abrechnung,uhasibu,d,NA,NA,NA,NA,sdf,NA,0,NA,NA,NA,NA,NA,NA,NA,NA,NA,NA,NA,NA,NA,NA,NA,NA,NA,NA,NA
8d294,"""Falsch""-Screen",canvas.Screen,3_0_0_0_5_0_2,NA,NA,timeout,4996.3810000001,3424623.5,3424619.052,3424635.217,3429614.921,3429615.9,2023-05-12T11:22:14Z,3429631.598,NULL,Abrechnung,uhasibu,d,NA,NA,NA,NA,sdf,0,0,NA,NA,NA,NA,NA,NA,NA,NA,NA,NA,NA,NA,NA,NA,NA,NA,NA,NA,NA
8d294,deep,flow.Sequence,3_0_0_0_5_0,NA,NA,completion,21033.179,3408567.6,3408565.518,3408581.742,3429614.921,3429616.4,2023-05-12T11:22:14Z,3429631.598,NULL,Abrechnung,uhasibu,d,NA,NA,NA,NA,sdf,NA,0,NA,NA,NA,NA,NA,NA,NA,NA,NA,NA,NA,NA,NA,NA,NA,NA,NA,NA,NA
8d294,shallow,flow.Sequence,3_0_0_0_5_1,NA,NA,skipped,NA,3429616.6,NA,NA,3429614.921,3429616.8,2023-05-12T11:22:14Z,3429631.598,NULL,Abrechnung,uhasibu,d,NA,NA,NA,NA,sdf,NA,0,NA,NA,NA,NA,NA,NA,NA,NA,NA,NA,NA,NA,NA,NA,NA,NA,NA,NA,NA
8d294,task,flow.Sequence,3_0_0_0_5,NA,NA,completion,21033.179,3408567.6,3408565.518,3408581.742,3429614.921,3429617,2023-05-12T11:22:14Z,3429631.598,NULL,Abrechnung,uhasibu,d,NA,NA,NA,NA,sdf,NA,0,NA,NA,NA,NA,NA,NA,NA,NA,NA,NA,NA,NA,NA,NA,NA,NA,NA,NA,NA
8d294,Deep Question,html.Page,3_0_0_0_6_0_0,NA,NA,form submission,8861.7019999968,3429617.2,3429614.921,3429631.598,3438493.3,3438493.6,2023-05-12T11:22:22Z,3438507.593,NULL,Atmosphäre,angahewa,d,NA,NA,NA,atmo,NA,NA,0,NA,NA,NA,NA,NA,NA,NA,NA,NA,NA,NA,NA,NA,NA,NA,NA,NA,NA,NA
8d294,"""Richtig""-Screen",canvas.Screen,3_0_0_0_6_0_1,NA,NA,skipped,NA,3438495.6,NA,NA,3438493.3,3438495.7,2023-05-12T11:22:22Z,3438507.593,NULL,Atmosphäre,angahewa,d,NA,NA,NA,NA,sdf,NA,0,NA,NA,NA,NA,NA,NA,NA,NA,NA,NA,NA,NA,NA,NA,NA,NA,NA,NA,NA
8d294,"""Falsch""-Screen",canvas.Screen,3_0_0_0_6_0_2,NA,NA,timeout,4995.6210000003,3438496.3,3438490.955,3438507.593,3443486.74,3443487.8,2023-05-12T11:22:27Z,3443503.214,NULL,Atmosphäre,angahewa,d,NA,NA,NA,NA,sdf,0,0,NA,NA,NA,NA,NA,NA,NA,NA,NA,NA,NA,NA,NA,NA,NA,NA,NA,NA,NA
8d294,deep,flow.Sequence,3_0_0_0_6_0,NA,NA,completion,13855.142,3429617.2,3429614.921,3429631.598,3443486.74,3443488.3,2023-05-12T11:22:27Z,3443503.214,NULL,Atmosphäre,angahewa,d,NA,NA,NA,NA,sdf,NA,0,NA,NA,NA,NA,NA,NA,NA,NA,NA,NA,NA,NA,NA,NA,NA,NA,NA,NA,NA
8d294,shallow,flow.Sequence,3_0_0_0_6_1,NA,NA,skipped,NA,3443488.3,NA,NA,3443486.74,3443488.6,2023-05-12T11:22:27Z,3443503.214,NULL,Atmosphäre,angahewa,d,NA,NA,NA,NA,sdf,NA,0,NA,NA,NA,NA,NA,NA,NA,NA,NA,NA,NA,NA,NA,NA,NA,NA,NA,NA,NA
8d294,task,flow.Sequence,3_0_0_0_6,NA,NA,completion,13855.142,3429617.1,3429614.921,3429631.598,3443486.74,3443488.8,2023-05-12T11:22:27Z,3443503.214,NULL,Atmosphäre,angahewa,d,NA,NA,NA,NA,sdf,NA,0,NA,NA,NA,NA,NA,NA,NA,NA,NA,NA,NA,NA,NA,NA,NA,NA,NA,NA,NA
8d294,deep,flow.Sequence,3_0_0_0_7_0,NA,NA,skipped,NA,3443489,NA,NA,3443486.74,3443489.1,2023-05-12T11:22:27Z,3443503.214,NULL,Sänger,mwimbaji,s,msichana,shughuli,mshirika,NA,sdf,NA,0,NA,NA,NA,NA,NA,NA,NA,NA,NA,NA,NA,NA,NA,NA,NA,NA,NA,NA,NA
8d294,Shallow Question,html.Page,3_0_0_0_7_1_0,NA,NA,form submission,9354.2859999998,3443489.2,3443486.74,3443503.214,3452857.5,3452857.6,2023-05-12T11:22:37Z,3452861.879,NULL,Sänger,mwimbaji,s,msichana,shughuli,mshirika,mshirika,NA,NA,0,NA,NA,NA,NA,NA,NA,NA,NA,NA,NA,NA,NA,NA,NA,NA,NA,NA,NA,NA
8d294,"""Richtig""-Screen",canvas.Screen,3_0_0_0_7_1_1,NA,NA,skipped,NA,3452859.6,NA,NA,3452857.5,3452859.6,2023-05-12T11:22:37Z,3452861.879,NULL,Sänger,mwimbaji,s,msichana,shughuli,mshirika,NA,sdf,NA,0,NA,NA,NA,NA,NA,NA,NA,NA,NA,NA,NA,NA,NA,NA,NA,NA,NA,NA,NA
8d294,"""Falsch""-Screen",canvas.Screen,3_0_0_0_7_1_2,NA,NA,timeout,4996.1229999997,3452860.2,3452845.273,3452861.879,3457841.691,3457842.7,2023-05-12T11:22:42Z,3457858.002,NULL,Sänger,mwimbaji,s,msichana,shughuli,mshirika,NA,sdf,0,0,NA,NA,NA,NA,NA,NA,NA,NA,NA,NA,NA,NA,NA,NA,NA,NA,NA,NA,NA
8d294,shallow,flow.Sequence,3_0_0_0_7_1,NA,NA,completion,14338.477,3443489.2,3443486.74,3443503.214,3457841.691,3457843,2023-05-12T11:22:42Z,3457858.002,NULL,Sänger,mwimbaji,s,msichana,shughuli,mshirika,NA,sdf,NA,0,NA,NA,NA,NA,NA,NA,NA,NA,NA,NA,NA,NA,NA,NA,NA,NA,NA,NA,NA
8d294,task,flow.Sequence,3_0_0_0_7,NA,NA,completion,14338.477,3443488.9,3443486.74,3443503.214,3457841.691,3457843.3,2023-05-12T11:22:42Z,3457858.002,NULL,Sänger,mwimbaji,s,msichana,shughuli,mshirika,NA,sdf,NA,0,NA,NA,NA,NA,NA,NA,NA,NA,NA,NA,NA,NA,NA,NA,NA,NA,NA,NA,NA
8d294,block,flow.Loop,3_0_0_0,NA,NA,completion,159452.384,3298376.1,3298372.207,3298389.307,3457841.691,3457843.7,2023-05-12T11:22:42Z,3457858.002,NULL,NA,NA,NA,NA,NA,NA,NA,sdf,NA,0,NA,NA,NA,NA,NA,NA,NA,NA,NA,NA,NA,NA,NA,NA,NA,NA,NA,NA,NA
8d294,weiter,canvas.Screen,3_0_0_1,sdf,keypress(Space),response,1242.4980000001,3457843.8,3457841.691,3457858.002,3459100.5,3459101.5,2023-05-12T11:22:43Z,3459256.644,NULL,NA,NA,NA,NA,NA,NA,NA,sdf,NA,0,NA,NA,NA,NA,NA,NA,NA,NA,NA,NA,NA,NA,NA,NA,NA,NA,NA,NA,NA
8d294,check continue,flow.Sequence,3_0_0,NA,NA,completion,160711.193,3298376,3298372.207,3298389.307,3459100.5,3459101.9,2023-05-12T11:22:43Z,3459256.644,NULL,NA,NA,NA,NA,NA,NA,NA,sdf,NA,0,NA,NA,NA,NA,NA,NA,NA,NA,NA,NA,NA,NA,NA,NA,NA,NA,NA,NA,NA
8d294,deep,flow.Sequence,3_0_1_0_0_0,NA,NA,skipped,NA,3459240.9,NA,NA,3459100.5,3459241.2,2023-05-12T11:22:43Z,3459256.644,NULL,Wechsel,ugeuzaji,s,utambulisho,kujenga,wasiwasi,NA,sdfdsf,NA,1,NA,NA,NA,NA,NA,NA,NA,NA,NA,NA,NA,NA,NA,NA,NA,NA,NA,NA,NA
8d294,Shallow Question,html.Page,3_0_1_0_0_1_0,NA,NA,form submission,11449.255999999,3459241.4,3459239.945,3459256.644,3470705.9,3470706.1,2023-05-12T11:22:55Z,3470713.825,NULL,Wechsel,ugeuzaji,s,utambulisho,kujenga,wasiwasi,ugeuzaji,NA,NA,1,NA,NA,NA,NA,NA,NA,NA,NA,NA,NA,NA,NA,NA,NA,NA,NA,NA,NA,NA
8d294,"""Richtig""-Screen",canvas.Screen,3_0_1_0_0_1_1,NA,NA,timeout,4995.9329999997,3470708,3470697.304,3470713.825,3475693.138,3475694.1,2023-05-12T11:23:00Z,3475709.758,NULL,Wechsel,ugeuzaji,s,utambulisho,kujenga,wasiwasi,NA,sdfdsf,1,1,NA,NA,NA,NA,NA,NA,NA,NA,NA,NA,NA,NA,NA,NA,NA,NA,NA,NA,NA
8d294,"""Falsch""-Screen",canvas.Screen,3_0_1_0_0_1_2,NA,NA,skipped,NA,3475701.2,NA,NA,3475693.138,3475701.6,2023-05-12T11:23:00Z,3475709.758,NULL,Wechsel,ugeuzaji,s,utambulisho,kujenga,wasiwasi,NA,sdfdsf,NA,1,NA,NA,NA,NA,NA,NA,NA,NA,NA,NA,NA,NA,NA,NA,NA,NA,NA,NA,NA
8d294,shallow,flow.Sequence,3_0_1_0_0_1,NA,NA,completion,16436.494,3459241.4,3459239.945,3459256.644,3475693.138,3475702.1,2023-05-12T11:23:00Z,3475709.758,NULL,Wechsel,ugeuzaji,s,utambulisho,kujenga,wasiwasi,NA,sdfdsf,NA,1,NA,NA,NA,NA,NA,NA,NA,NA,NA,NA,NA,NA,NA,NA,NA,NA,NA,NA,NA
8d294,task,flow.Sequence,3_0_1_0_0,NA,NA,completion,16436.494,3459240.8,3459239.945,3459256.644,3475693.138,3475702.4,2023-05-12T11:23:00Z,3475709.758,NULL,Wechsel,ugeuzaji,s,utambulisho,kujenga,wasiwasi,NA,sdfdsf,NA,1,NA,NA,NA,NA,NA,NA,NA,NA,NA,NA,NA,NA,NA,NA,NA,NA,NA,NA,NA
8d294,Deep Question,html.Page,3_0_1_0_1_0_0,NA,NA,form submission,24740.641999999,3475702.9,3475693.138,3475709.758,3500450.4,3500450.5,2023-05-12T11:23:24Z,3500455.984,NULL,Kanzler,diwani,d,NA,NA,NA,ugadi,NA,NA,1,NA,NA,NA,NA,NA,NA,NA,NA,NA,NA,NA,NA,NA,NA,NA,NA,NA,NA,NA
8d294,"""Richtig""-Screen",canvas.Screen,3_0_1_0_1_0_1,NA,NA,skipped,NA,3500452.5,NA,NA,3500450.4,3500452.7,2023-05-12T11:23:24Z,3500455.984,NULL,Kanzler,diwani,d,NA,NA,NA,NA,sdfdsf,NA,1,NA,NA,NA,NA,NA,NA,NA,NA,NA,NA,NA,NA,NA,NA,NA,NA,NA,NA,NA
8d294,"""Falsch""-Screen",canvas.Screen,3_0_1_0_1_0_2,NA,NA,timeout,4996.0049999999,3500453.3,3500439.953,3500455.984,3505435.754,3505436.7,2023-05-12T11:23:29Z,3505451.989,NULL,Kanzler,diwani,d,NA,NA,NA,NA,sdfdsf,0,1,NA,NA,NA,NA,NA,NA,NA,NA,NA,NA,NA,NA,NA,NA,NA,NA,NA,NA,NA
8d294,deep,flow.Sequence,3_0_1_0_1_0,NA,NA,completion,29725.996,3475702.8,3475693.138,3475709.758,3505435.754,3505437.1,2023-05-12T11:23:29Z,3505451.989,NULL,Kanzler,diwani,d,NA,NA,NA,NA,sdfdsf,NA,1,NA,NA,NA,NA,NA,NA,NA,NA,NA,NA,NA,NA,NA,NA,NA,NA,NA,NA,NA
8d294,shallow,flow.Sequence,3_0_1_0_1_1,NA,NA,skipped,NA,3505437.3,NA,NA,3505435.754,3505437.4,2023-05-12T11:23:29Z,3505451.989,NULL,Kanzler,diwani,d,NA,NA,NA,NA,sdfdsf,NA,1,NA,NA,NA,NA,NA,NA,NA,NA,NA,NA,NA,NA,NA,NA,NA,NA,NA,NA,NA
8d294,task,flow.Sequence,3_0_1_0_1,NA,NA,completion,29725.996,3475702.6,3475693.138,3475709.758,3505435.754,3505439.1,2023-05-12T11:23:29Z,3505451.989,NULL,Kanzler,diwani,d,NA,NA,NA,NA,sdfdsf,NA,1,NA,NA,NA,NA,NA,NA,NA,NA,NA,NA,NA,NA,NA,NA,NA,NA,NA,NA,NA
8d294,Deep Question,html.Page,3_0_1_0_2_0_0,NA,NA,form submission,14842.710999995,3505439.3,3505435.754,3505451.989,3520294.7,3520294.9,2023-05-12T11:23:44Z,3520306.342,NULL,Flexibilität,kubadilika,d,NA,NA,NA,flexi,NA,NA,1,NA,NA,NA,NA,NA,NA,NA,NA,NA,NA,NA,NA,NA,NA,NA,NA,NA,NA,NA
8d294,"""Richtig""-Screen",canvas.Screen,3_0_1_0_2_0_1,NA,NA,skipped,NA,3520297.3,NA,NA,3520294.7,3520297.4,2023-05-12T11:23:44Z,3520306.342,NULL,Flexibilität,kubadilika,d,NA,NA,NA,NA,sdfdsf,NA,1,NA,NA,NA,NA,NA,NA,NA,NA,NA,NA,NA,NA,NA,NA,NA,NA,NA,NA,NA
8d294,"""Falsch""-Screen",canvas.Screen,3_0_1_0_2_0_2,NA,NA,timeout,4995.9369999999,3520298.3,3520290.278,3520306.342,3525286.155,3525287.1,2023-05-12T11:23:49Z,3525302.279,NULL,Flexibilität,kubadilika,d,NA,NA,NA,NA,sdfdsf,0,1,NA,NA,NA,NA,NA,NA,NA,NA,NA,NA,NA,NA,NA,NA,NA,NA,NA,NA,NA
8d294,deep,flow.Sequence,3_0_1_0_2_0,NA,NA,completion,19834.166,3505439.3,3505435.754,3505451.989,3525286.155,3525287.4,2023-05-12T11:23:49Z,3525302.279,NULL,Flexibilität,kubadilika,d,NA,NA,NA,NA,sdfdsf,NA,1,NA,NA,NA,NA,NA,NA,NA,NA,NA,NA,NA,NA,NA,NA,NA,NA,NA,NA,NA
8d294,shallow,flow.Sequence,3_0_1_0_2_1,NA,NA,skipped,NA,3525287.6,NA,NA,3525286.155,3525287.8,2023-05-12T11:23:49Z,3525302.279,NULL,Flexibilität,kubadilika,d,NA,NA,NA,NA,sdfdsf,NA,1,NA,NA,NA,NA,NA,NA,NA,NA,NA,NA,NA,NA,NA,NA,NA,NA,NA,NA,NA
8d294,task,flow.Sequence,3_0_1_0_2,NA,NA,completion,19834.166,3505439.3,3505435.754,3505451.989,3525286.155,3525288,2023-05-12T11:23:49Z,3525302.279,NULL,Flexibilität,kubadilika,d,NA,NA,NA,NA,sdfdsf,NA,1,NA,NA,NA,NA,NA,NA,NA,NA,NA,NA,NA,NA,NA,NA,NA,NA,NA,NA,NA
8d294,Deep Question,html.Page,3_0_1_0_3_0_0,NA,NA,form submission,26809.721,3525288.1,3525286.155,3525302.279,3552112,3552112.3,2023-05-12T11:24:16Z,3552113.466,NULL,Atmosphäre,angahewa,d,NA,NA,NA,adi,NA,NA,1,NA,NA,NA,NA,NA,NA,NA,NA,NA,NA,NA,NA,NA,NA,NA,NA,NA,NA,NA
8d294,"""Richtig""-Screen",canvas.Screen,3_0_1_0_3_0_1,NA,NA,skipped,NA,3552114.7,NA,NA,3552112,3552114.9,2023-05-12T11:24:16Z,3552113.466,NULL,Atmosphäre,angahewa,d,NA,NA,NA,NA,sdfdsf,NA,1,NA,NA,NA,NA,NA,NA,NA,NA,NA,NA,NA,NA,NA,NA,NA,NA,NA,NA,NA
8d294,"""Falsch""-Screen",canvas.Screen,3_0_1_0_3_0_2,NA,NA,timeout,4996.4759999998,3552115.7,3552096.924,3552113.466,3557093.346,3557094.5,2023-05-12T11:24:21Z,3557109.942,NULL,Atmosphäre,angahewa,d,NA,NA,NA,NA,sdfdsf,0,1,NA,NA,NA,NA,NA,NA,NA,NA,NA,NA,NA,NA,NA,NA,NA,NA,NA,NA,NA
8d294,deep,flow.Sequence,3_0_1_0_3_0,NA,NA,completion,31791.067,3525288.1,3525286.155,3525302.279,3557093.346,3557094.8,2023-05-12T11:24:21Z,3557109.942,NULL,Atmosphäre,angahewa,d,NA,NA,NA,NA,sdfdsf,NA,1,NA,NA,NA,NA,NA,NA,NA,NA,NA,NA,NA,NA,NA,NA,NA,NA,NA,NA,NA
8d294,shallow,flow.Sequence,3_0_1_0_3_1,NA,NA,skipped,NA,3557095,NA,NA,3557093.346,3557095.1,2023-05-12T11:24:21Z,3557109.942,NULL,Atmosphäre,angahewa,d,NA,NA,NA,NA,sdfdsf,NA,1,NA,NA,NA,NA,NA,NA,NA,NA,NA,NA,NA,NA,NA,NA,NA,NA,NA,NA,NA
8d294,task,flow.Sequence,3_0_1_0_3,NA,NA,completion,31791.067,3525288.1,3525286.155,3525302.279,3557093.346,3557095.4,2023-05-12T11:24:21Z,3557109.942,NULL,Atmosphäre,angahewa,d,NA,NA,NA,NA,sdfdsf,NA,1,NA,NA,NA,NA,NA,NA,NA,NA,NA,NA,NA,NA,NA,NA,NA,NA,NA,NA,NA
8d294,Deep Question,html.Page,3_0_1_0_4_0_0,NA,NA,form submission,13770.558,3557095.6,3557093.346,3557109.942,3570880.5,3570880.7,2023-05-12T11:24:35Z,3570881.388,NULL,Abrechnung,uhasibu,d,NA,NA,NA,kont,NA,NA,1,NA,NA,NA,NA,NA,NA,NA,NA,NA,NA,NA,NA,NA,NA,NA,NA,NA,NA,NA
8d294,"""Richtig""-Screen",canvas.Screen,3_0_1_0_4_0_1,NA,NA,skipped,NA,3570883.3,NA,NA,3570880.5,3570883.5,2023-05-12T11:24:35Z,3570881.388,NULL,Abrechnung,uhasibu,d,NA,NA,NA,NA,sdfdsf,NA,1,NA,NA,NA,NA,NA,NA,NA,NA,NA,NA,NA,NA,NA,NA,NA,NA,NA,NA,NA
8d294,"""Falsch""-Screen",canvas.Screen,3_0_1_0_4_0_2,NA,NA,timeout,4995.9100000001,3570884.4,3570865.342,3570881.388,3575860.685,3575861.5,2023-05-12T11:24:40Z,3575877.298,NULL,Abrechnung,uhasibu,d,NA,NA,NA,NA,sdfdsf,0,1,NA,NA,NA,NA,NA,NA,NA,NA,NA,NA,NA,NA,NA,NA,NA,NA,NA,NA,NA
8d294,deep,flow.Sequence,3_0_1_0_4_0,NA,NA,completion,18750.743,3557095.5,3557093.346,3557109.942,3575860.685,3575861.8,2023-05-12T11:24:40Z,3575877.298,NULL,Abrechnung,uhasibu,d,NA,NA,NA,NA,sdfdsf,NA,1,NA,NA,NA,NA,NA,NA,NA,NA,NA,NA,NA,NA,NA,NA,NA,NA,NA,NA,NA
8d294,shallow,flow.Sequence,3_0_1_0_4_1,NA,NA,skipped,NA,3575861.9,NA,NA,3575860.685,3575862,2023-05-12T11:24:40Z,3575877.298,NULL,Abrechnung,uhasibu,d,NA,NA,NA,NA,sdfdsf,NA,1,NA,NA,NA,NA,NA,NA,NA,NA,NA,NA,NA,NA,NA,NA,NA,NA,NA,NA,NA
8d294,task,flow.Sequence,3_0_1_0_4,NA,NA,completion,18750.743,3557095.5,3557093.346,3557109.942,3575860.685,3575862.2,2023-05-12T11:24:40Z,3575877.298,NULL,Abrechnung,uhasibu,d,NA,NA,NA,NA,sdfdsf,NA,1,NA,NA,NA,NA,NA,NA,NA,NA,NA,NA,NA,NA,NA,NA,NA,NA,NA,NA,NA
8d294,deep,flow.Sequence,3_0_1_0_5_0,NA,NA,skipped,NA,3575862.3,NA,NA,3575860.685,3575862.5,2023-05-12T11:24:40Z,3575877.298,NULL,Erneuerung,ukarabati,s,ushawishi,ukalifu,unyonyaji,NA,sdfdsf,NA,1,NA,NA,NA,NA,NA,NA,NA,NA,NA,NA,NA,NA,NA,NA,NA,NA,NA,NA,NA
8d294,Shallow Question,html.Page,3_0_1_0_5_1_0,NA,NA,form submission,11249.401999996,3575862.6,3575860.685,3575877.298,3587126.7,3587126.8,2023-05-12T11:24:51Z,3587134.757,NULL,Erneuerung,ukarabati,s,ushawishi,ukalifu,unyonyaji,ushawishi,NA,NA,1,NA,NA,NA,NA,NA,NA,NA,NA,NA,NA,NA,NA,NA,NA,NA,NA,NA,NA,NA
8d294,"""Richtig""-Screen",canvas.Screen,3_0_1_0_5_1_1,NA,NA,skipped,NA,3587128.7,NA,NA,3587126.7,3587128.8,2023-05-12T11:24:51Z,3587134.757,NULL,Erneuerung,ukarabati,s,ushawishi,ukalifu,unyonyaji,NA,sdfdsf,NA,1,NA,NA,NA,NA,NA,NA,NA,NA,NA,NA,NA,NA,NA,NA,NA,NA,NA,NA,NA
8d294,"""Falsch""-Screen",canvas.Screen,3_0_1_0_5_1_2,NA,NA,timeout,5012.4899999998,3587129.3,3587118.097,3587134.757,3592114.48,3592115.5,2023-05-12T11:24:56Z,3592147.247,NULL,Erneuerung,ukarabati,s,ushawishi,ukalifu,unyonyaji,NA,sdfdsf,0,1,NA,NA,NA,NA,NA,NA,NA,NA,NA,NA,NA,NA,NA,NA,NA,NA,NA,NA,NA
8d294,shallow,flow.Sequence,3_0_1_0_5_1,NA,NA,completion,16237.182,3575862.5,3575860.685,3575877.298,3592114.48,3592115.9,2023-05-12T11:24:56Z,3592147.247,NULL,Erneuerung,ukarabati,s,ushawishi,ukalifu,unyonyaji,NA,sdfdsf,NA,1,NA,NA,NA,NA,NA,NA,NA,NA,NA,NA,NA,NA,NA,NA,NA,NA,NA,NA,NA
8d294,task,flow.Sequence,3_0_1_0_5,NA,NA,completion,16237.182,3575862.3,3575860.685,3575877.298,3592114.48,3592116.1,2023-05-12T11:24:56Z,3592147.247,NULL,Erneuerung,ukarabati,s,ushawishi,ukalifu,unyonyaji,NA,sdfdsf,NA,1,NA,NA,NA,NA,NA,NA,NA,NA,NA,NA,NA,NA,NA,NA,NA,NA,NA,NA,NA
8d294,deep,flow.Sequence,3_0_1_0_6_0,NA,NA,skipped,NA,3592116.3,NA,NA,3592114.48,3592116.5,2023-05-12T11:24:56Z,3592147.247,NULL,Angreifer,mshambulizi,s,kitengo,tasinia,usafirishaji,NA,sdfdsf,NA,1,NA,NA,NA,NA,NA,NA,NA,NA,NA,NA,NA,NA,NA,NA,NA,NA,NA,NA,NA
8d294,Shallow Question,html.Page,3_0_1_0_6_1_0,NA,NA,form submission,10334.253,3592116.7,3592114.48,3592147.247,3602481.5,3602481.6,2023-05-12T11:25:06Z,3602488.858,NULL,Angreifer,mshambulizi,s,kitengo,tasinia,usafirishaji,mshambulizi,NA,NA,1,NA,NA,NA,NA,NA,NA,NA,NA,NA,NA,NA,NA,NA,NA,NA,NA,NA,NA,NA
8d294,"""Richtig""-Screen",canvas.Screen,3_0_1_0_6_1_1,NA,NA,timeout,4995.7769999998,3602483.5,3602472.414,3602488.858,3607468.506,3607469.5,2023-05-12T11:25:11Z,3607484.635,NULL,Angreifer,mshambulizi,s,kitengo,tasinia,usafirishaji,NA,sdfdsf,1,1,NA,NA,NA,NA,NA,NA,NA,NA,NA,NA,NA,NA,NA,NA,NA,NA,NA,NA,NA
8d294,"""Falsch""-Screen",canvas.Screen,3_0_1_0_6_1_2,NA,NA,skipped,NA,3607474.7,NA,NA,3607468.506,3607475,2023-05-12T11:25:11Z,3607484.635,NULL,Angreifer,mshambulizi,s,kitengo,tasinia,usafirishaji,NA,sdfdsf,NA,1,NA,NA,NA,NA,NA,NA,NA,NA,NA,NA,NA,NA,NA,NA,NA,NA,NA,NA,NA
8d294,shallow,flow.Sequence,3_0_1_0_6_1,NA,NA,completion,15321.259,3592116.6,3592114.48,3592147.247,3607468.506,3607475.5,2023-05-12T11:25:11Z,3607484.635,NULL,Angreifer,mshambulizi,s,kitengo,tasinia,usafirishaji,NA,sdfdsf,NA,1,NA,NA,NA,NA,NA,NA,NA,NA,NA,NA,NA,NA,NA,NA,NA,NA,NA,NA,NA
8d294,task,flow.Sequence,3_0_1_0_6,NA,NA,completion,15321.259,3592116.2,3592114.48,3592147.247,3607468.506,3607475.7,2023-05-12T11:25:11Z,3607484.635,NULL,Angreifer,mshambulizi,s,kitengo,tasinia,usafirishaji,NA,sdfdsf,NA,1,NA,NA,NA,NA,NA,NA,NA,NA,NA,NA,NA,NA,NA,NA,NA,NA,NA,NA,NA
8d294,deep,flow.Sequence,3_0_1_0_7_0,NA,NA,skipped,NA,3607475.9,NA,NA,3607468.506,3607476,2023-05-12T11:25:11Z,3607484.635,NULL,Sänger,mwimbaji,s,msichana,shughuli,mshirika,NA,sdfdsf,NA,1,NA,NA,NA,NA,NA,NA,NA,NA,NA,NA,NA,NA,NA,NA,NA,NA,NA,NA,NA
8d294,Shallow Question,html.Page,3_0_1_0_7_1_0,NA,NA,form submission,7224.3650000002,3607476.2,3607468.506,3607484.635,3614709,3614709.2,2023-05-12T11:25:19Z,3614711.924,NULL,Sänger,mwimbaji,s,msichana,shughuli,mshirika,mwimbaji,NA,NA,1,NA,NA,NA,NA,NA,NA,NA,NA,NA,NA,NA,NA,NA,NA,NA,NA,NA,NA,NA
8d294,"""Richtig""-Screen",canvas.Screen,3_0_1_0_7_1_1,NA,NA,timeout,4996.0249999999,3614710.9,3614695.352,3614711.924,3619691.784,3619692.7,2023-05-12T11:25:24Z,3619707.949,NULL,Sänger,mwimbaji,s,msichana,shughuli,mshirika,NA,sdfdsf,1,1,NA,NA,NA,NA,NA,NA,NA,NA,NA,NA,NA,NA,NA,NA,NA,NA,NA,NA,NA
8d294,"""Falsch""-Screen",canvas.Screen,3_0_1_0_7_1_2,NA,NA,skipped,NA,3619697.9,NA,NA,3619691.784,3619698.2,2023-05-12T11:25:24Z,3619707.949,NULL,Sänger,mwimbaji,s,msichana,shughuli,mshirika,NA,sdfdsf,NA,1,NA,NA,NA,NA,NA,NA,NA,NA,NA,NA,NA,NA,NA,NA,NA,NA,NA,NA,NA
8d294,shallow,flow.Sequence,3_0_1_0_7_1,NA,NA,completion,12207.149,3607476.2,3607468.506,3607484.635,3619691.784,3619698.6,2023-05-12T11:25:24Z,3619707.949,NULL,Sänger,mwimbaji,s,msichana,shughuli,mshirika,NA,sdfdsf,NA,1,NA,NA,NA,NA,NA,NA,NA,NA,NA,NA,NA,NA,NA,NA,NA,NA,NA,NA,NA
8d294,task,flow.Sequence,3_0_1_0_7,NA,NA,completion,12207.149,3607475.9,3607468.506,3607484.635,3619691.784,3619698.8,2023-05-12T11:25:24Z,3619707.949,NULL,Sänger,mwimbaji,s,msichana,shughuli,mshirika,NA,sdfdsf,NA,1,NA,NA,NA,NA,NA,NA,NA,NA,NA,NA,NA,NA,NA,NA,NA,NA,NA,NA,NA
8d294,block,flow.Loop,3_0_1_0,NA,NA,completion,160435.14,3459240.8,3459239.945,3459256.644,3619691.784,3619699.1,2023-05-12T11:25:24Z,3619707.949,NULL,NA,NA,NA,NA,NA,NA,NA,sdfdsf,NA,1,NA,NA,NA,NA,NA,NA,NA,NA,NA,NA,NA,NA,NA,NA,NA,NA,NA,NA,NA
8d294,weiter,canvas.Screen,3_0_1_1,sdf,keypress(Space),response,1153.350999997,3619699.2,3619691.784,3619707.949,3620861.3,3620862.8,2023-05-12T11:25:25Z,3621006.813,NULL,NA,NA,NA,NA,NA,NA,NA,sdfdsf,NA,1,NA,NA,NA,NA,NA,NA,NA,NA,NA,NA,NA,NA,NA,NA,NA,NA,NA,NA,NA
8d294,check continue,flow.Sequence,3_0_1,NA,NA,completion,161604.656,3459240.8,3459239.945,3459256.644,3620861.3,3620863.4,2023-05-12T11:25:25Z,3621006.813,NULL,NA,NA,NA,NA,NA,NA,NA,sdfdsf,NA,1,NA,NA,NA,NA,NA,NA,NA,NA,NA,NA,NA,NA,NA,NA,NA,NA,NA,NA,NA
8d294,Deep Question,html.Page,3_0_2_0_0_0_0,NA,NA,form submission,7757.2870000014,3620990.6,3620990.546,3621006.813,3628764.1,3628764.3,2023-05-12T11:25:33Z,3628767.03,NULL,Abrechnung,uhasibu,d,NA,NA,NA,uhazibu,NA,NA,2,NA,NA,NA,NA,NA,NA,NA,NA,NA,NA,NA,NA,NA,NA,NA,NA,NA,NA,NA
8d294,"""Richtig""-Screen",canvas.Screen,3_0_2_0_0_0_1,NA,NA,skipped,NA,3628766.2,NA,NA,3628764.1,3628766.3,2023-05-12T11:25:33Z,3628767.03,NULL,Abrechnung,uhasibu,d,NA,NA,NA,NA,sdf,NA,2,NA,NA,NA,NA,NA,NA,NA,NA,NA,NA,NA,NA,NA,NA,NA,NA,NA,NA,NA
8d294,"""Falsch""-Screen",canvas.Screen,3_0_2_0_0_0_2,NA,NA,timeout,4996.5120000001,3628766.8,3628750.99,3628767.03,3633746.772,3633747.9,2023-05-12T11:25:38Z,3633763.542,NULL,Abrechnung,uhasibu,d,NA,NA,NA,NA,sdf,0,2,NA,NA,NA,NA,NA,NA,NA,NA,NA,NA,NA,NA,NA,NA,NA,NA,NA,NA,NA
8d294,deep,flow.Sequence,3_0_2_0_0_0,NA,NA,completion,12739.959,3620990.6,3620990.546,3621006.813,3633746.772,3633748.3,2023-05-12T11:25:38Z,3633763.542,NULL,Abrechnung,uhasibu,d,NA,NA,NA,NA,sdf,NA,2,NA,NA,NA,NA,NA,NA,NA,NA,NA,NA,NA,NA,NA,NA,NA,NA,NA,NA,NA
8d294,shallow,flow.Sequence,3_0_2_0_0_1,NA,NA,skipped,NA,3633748.4,NA,NA,3633746.772,3633748.6,2023-05-12T11:25:38Z,3633763.542,NULL,Abrechnung,uhasibu,d,NA,NA,NA,NA,sdf,NA,2,NA,NA,NA,NA,NA,NA,NA,NA,NA,NA,NA,NA,NA,NA,NA,NA,NA,NA,NA
8d294,task,flow.Sequence,3_0_2_0_0,NA,NA,completion,12739.959,3620990.5,3620990.546,3621006.813,3633746.772,3633748.8,2023-05-12T11:25:38Z,3633763.542,NULL,Abrechnung,uhasibu,d,NA,NA,NA,NA,sdf,NA,2,NA,NA,NA,NA,NA,NA,NA,NA,NA,NA,NA,NA,NA,NA,NA,NA,NA,NA,NA
8d294,Deep Question,html.Page,3_0_2_0_1_0_0,NA,NA,form submission,9434.2579999971,3633749,3633746.772,3633763.542,3643197.8,3643198.1,2023-05-12T11:25:47Z,3643205.136,NULL,Flexibilität,kubadilika,d,NA,NA,NA,kubalino,NA,NA,2,NA,NA,NA,NA,NA,NA,NA,NA,NA,NA,NA,NA,NA,NA,NA,NA,NA,NA,NA
8d294,"""Richtig""-Screen",canvas.Screen,3_0_2_0_1_0_1,NA,NA,skipped,NA,3643200.7,NA,NA,3643197.8,3643200.8,2023-05-12T11:25:47Z,3643205.136,NULL,Flexibilität,kubadilika,d,NA,NA,NA,NA,sdf,NA,2,NA,NA,NA,NA,NA,NA,NA,NA,NA,NA,NA,NA,NA,NA,NA,NA,NA,NA,NA
8d294,"""Falsch""-Screen",canvas.Screen,3_0_2_0_1_0_2,NA,NA,timeout,4996.0300000003,3643201.6,3643189.115,3643205.136,3648184.983,3648186.1,2023-05-12T11:25:52Z,3648201.166,NULL,Flexibilität,kubadilika,d,NA,NA,NA,NA,sdf,0,2,NA,NA,NA,NA,NA,NA,NA,NA,NA,NA,NA,NA,NA,NA,NA,NA,NA,NA,NA
8d294,deep,flow.Sequence,3_0_2_0_1_0,NA,NA,completion,14421.441,3633749,3633746.772,3633763.542,3648184.983,3648186.6,2023-05-12T11:25:52Z,3648201.166,NULL,Flexibilität,kubadilika,d,NA,NA,NA,NA,sdf,NA,2,NA,NA,NA,NA,NA,NA,NA,NA,NA,NA,NA,NA,NA,NA,NA,NA,NA,NA,NA
8d294,shallow,flow.Sequence,3_0_2_0_1_1,NA,NA,skipped,NA,3648186.7,NA,NA,3648184.983,3648186.9,2023-05-12T11:25:52Z,3648201.166,NULL,Flexibilität,kubadilika,d,NA,NA,NA,NA,sdf,NA,2,NA,NA,NA,NA,NA,NA,NA,NA,NA,NA,NA,NA,NA,NA,NA,NA,NA,NA,NA
8d294,task,flow.Sequence,3_0_2_0_1,NA,NA,completion,14421.441,3633748.9,3633746.772,3633763.542,3648184.983,3648187.2,2023-05-12T11:25:52Z,3648201.166,NULL,Flexibilität,kubadilika,d,NA,NA,NA,NA,sdf,NA,2,NA,NA,NA,NA,NA,NA,NA,NA,NA,NA,NA,NA,NA,NA,NA,NA,NA,NA,NA
8d294,deep,flow.Sequence,3_0_2_0_2_0,NA,NA,skipped,NA,3648187.3,NA,NA,3648184.983,3648187.5,2023-05-12T11:25:52Z,3648201.166,NULL,Sänger,mwimbaji,s,msichana,shughuli,mshirika,NA,sdf,NA,2,NA,NA,NA,NA,NA,NA,NA,NA,NA,NA,NA,NA,NA,NA,NA,NA,NA,NA,NA
8d294,Shallow Question,html.Page,3_0_2_0_2_1_0,NA,NA,form submission,8656.2339999983,3648187.6,3648184.983,3648201.166,3656857.4,3656857.5,2023-05-12T11:26:01Z,3656860.586,NULL,Sänger,mwimbaji,s,msichana,shughuli,mshirika,mwimbaji,NA,NA,2,NA,NA,NA,NA,NA,NA,NA,NA,NA,NA,NA,NA,NA,NA,NA,NA,NA,NA,NA
8d294,"""Richtig""-Screen",canvas.Screen,3_0_2_0_2_1_1,NA,NA,timeout,4995.9499999997,3656859.6,3656844.089,3656860.586,3661840.39,3661842.1,2023-05-12T11:26:06Z,3661856.536,NULL,Sänger,mwimbaji,s,msichana,shughuli,mshirika,NA,sdf,1,2,NA,NA,NA,NA,NA,NA,NA,NA,NA,NA,NA,NA,NA,NA,NA,NA,NA,NA,NA
8d294,"""Falsch""-Screen",canvas.Screen,3_0_2_0_2_1_2,NA,NA,skipped,NA,3661851.6,NA,NA,3661840.39,3661852.1,2023-05-12T11:26:06Z,3661856.536,NULL,Sänger,mwimbaji,s,msichana,shughuli,mshirika,NA,sdf,NA,2,NA,NA,NA,NA,NA,NA,NA,NA,NA,NA,NA,NA,NA,NA,NA,NA,NA,NA,NA
8d294,shallow,flow.Sequence,3_0_2_0_2_1,NA,NA,completion,13639.224,3648187.6,3648184.983,3648201.166,3661840.39,3661853.5,2023-05-12T11:26:06Z,3661856.536,NULL,Sänger,mwimbaji,s,msichana,shughuli,mshirika,NA,sdf,NA,2,NA,NA,NA,NA,NA,NA,NA,NA,NA,NA,NA,NA,NA,NA,NA,NA,NA,NA,NA
8d294,task,flow.Sequence,3_0_2_0_2,NA,NA,completion,13639.224,3648187.2,3648184.983,3648201.166,3661840.39,3661854,2023-05-12T11:26:06Z,3661856.536,NULL,Sänger,mwimbaji,s,msichana,shughuli,mshirika,NA,sdf,NA,2,NA,NA,NA,NA,NA,NA,NA,NA,NA,NA,NA,NA,NA,NA,NA,NA,NA,NA,NA
8d294,deep,flow.Sequence,3_0_2_0_3_0,NA,NA,skipped,NA,3661854.3,NA,NA,3661840.39,3661854.6,2023-05-12T11:26:06Z,3661856.536,NULL,Wechsel,ugeuzaji,s,utambulisho,kujenga,wasiwasi,NA,sdf,NA,2,NA,NA,NA,NA,NA,NA,NA,NA,NA,NA,NA,NA,NA,NA,NA,NA,NA,NA,NA
8d294,Shallow Question,html.Page,3_0_2_0_3_1_0,NA,NA,form submission,6280.5640000016,3661854.8,3661840.39,3661856.536,3668137.1,3668137.3,2023-05-12T11:26:12Z,3668151.26,NULL,Wechsel,ugeuzaji,s,utambulisho,kujenga,wasiwasi,utambulisho,NA,NA,2,NA,NA,NA,NA,NA,NA,NA,NA,NA,NA,NA,NA,NA,NA,NA,NA,NA,NA,NA
8d294,"""Richtig""-Screen",canvas.Screen,3_0_2_0_3_1_1,NA,NA,skipped,NA,3668139,NA,NA,3668137.1,3668139.2,2023-05-12T11:26:12Z,3668151.26,NULL,Wechsel,ugeuzaji,s,utambulisho,kujenga,wasiwasi,NA,sdf,NA,2,NA,NA,NA,NA,NA,NA,NA,NA,NA,NA,NA,NA,NA,NA,NA,NA,NA,NA,NA
8d294,"""Falsch""-Screen",canvas.Screen,3_0_2_0_3_1_2,NA,NA,timeout,4995.9850000003,3668139.7,3668135.122,3668151.26,3673130.601,3673136.9,2023-05-12T11:26:17Z,3673147.245,NULL,Wechsel,ugeuzaji,s,utambulisho,kujenga,wasiwasi,NA,sdf,0,2,NA,NA,NA,NA,NA,NA,NA,NA,NA,NA,NA,NA,NA,NA,NA,NA,NA,NA,NA
8d294,shallow,flow.Sequence,3_0_2_0_3_1,NA,NA,completion,11274.065,3661854.8,3661840.39,3661856.536,3673130.601,3673137.4,2023-05-12T11:26:17Z,3673147.245,NULL,Wechsel,ugeuzaji,s,utambulisho,kujenga,wasiwasi,NA,sdf,NA,2,NA,NA,NA,NA,NA,NA,NA,NA,NA,NA,NA,NA,NA,NA,NA,NA,NA,NA,NA
8d294,task,flow.Sequence,3_0_2_0_3,NA,NA,completion,11274.065,3661854.1,3661840.39,3661856.536,3673130.601,3673137.6,2023-05-12T11:26:17Z,3673147.245,NULL,Wechsel,ugeuzaji,s,utambulisho,kujenga,wasiwasi,NA,sdf,NA,2,NA,NA,NA,NA,NA,NA,NA,NA,NA,NA,NA,NA,NA,NA,NA,NA,NA,NA,NA
8d294,Deep Question,html.Page,3_0_2_0_4_0_0,NA,NA,form submission,12301.654999998,3673137.9,3673130.601,3673147.245,3685448.9,3685449.1,2023-05-12T11:26:29Z,3685453.694,NULL,Kanzler,diwani,d,NA,NA,NA,diwani,NA,NA,2,NA,NA,NA,NA,NA,NA,NA,NA,NA,NA,NA,NA,NA,NA,NA,NA,NA,NA,NA
8d294,"""Richtig""-Screen",canvas.Screen,3_0_2_0_4_0_1,NA,NA,timeout,4995.9619999998,3685451.7,3685437.654,3685453.694,3690433.539,3690434.6,2023-05-12T11:26:34Z,3690449.656,NULL,Kanzler,diwani,d,NA,NA,NA,NA,sdf,1,2,NA,NA,NA,NA,NA,NA,NA,NA,NA,NA,NA,NA,NA,NA,NA,NA,NA,NA,NA
8d294,"""Falsch""-Screen",canvas.Screen,3_0_2_0_4_0_2,NA,NA,skipped,NA,3690440.1,NA,NA,3690433.539,3690440.4,2023-05-12T11:26:34Z,3690449.656,NULL,Kanzler,diwani,d,NA,NA,NA,NA,sdf,NA,2,NA,NA,NA,NA,NA,NA,NA,NA,NA,NA,NA,NA,NA,NA,NA,NA,NA,NA,NA
8d294,deep,flow.Sequence,3_0_2_0_4_0,NA,NA,completion,17286.294,3673137.9,3673130.601,3673147.245,3690433.539,3690440.7,2023-05-12T11:26:34Z,3690449.656,NULL,Kanzler,diwani,d,NA,NA,NA,NA,sdf,NA,2,NA,NA,NA,NA,NA,NA,NA,NA,NA,NA,NA,NA,NA,NA,NA,NA,NA,NA,NA
8d294,shallow,flow.Sequence,3_0_2_0_4_1,NA,NA,skipped,NA,3690441,NA,NA,3690433.539,3690441.1,2023-05-12T11:26:34Z,3690449.656,NULL,Kanzler,diwani,d,NA,NA,NA,NA,sdf,NA,2,NA,NA,NA,NA,NA,NA,NA,NA,NA,NA,NA,NA,NA,NA,NA,NA,NA,NA,NA
8d294,task,flow.Sequence,3_0_2_0_4,NA,NA,completion,17286.294,3673137.7,3673130.601,3673147.245,3690433.539,3690441.3,2023-05-12T11:26:34Z,3690449.656,NULL,Kanzler,diwani,d,NA,NA,NA,NA,sdf,NA,2,NA,NA,NA,NA,NA,NA,NA,NA,NA,NA,NA,NA,NA,NA,NA,NA,NA,NA,NA
8d294,deep,flow.Sequence,3_0_2_0_5_0,NA,NA,skipped,NA,3690441.5,NA,NA,3690433.539,3690441.6,2023-05-12T11:26:34Z,3690449.656,NULL,Angreifer,mshambulizi,s,kitengo,tasinia,usafirishaji,NA,sdf,NA,2,NA,NA,NA,NA,NA,NA,NA,NA,NA,NA,NA,NA,NA,NA,NA,NA,NA,NA,NA
8d294,Shallow Question,html.Page,3_0_2_0_5_1_0,NA,NA,form submission,8992.4440000015,3690441.8,3690433.539,3690449.656,3699442.1,3699442.5,2023-05-12T11:26:43Z,3699461.561,NULL,Angreifer,mshambulizi,s,kitengo,tasinia,usafirishaji,mshambulizi,NA,NA,2,NA,NA,NA,NA,NA,NA,NA,NA,NA,NA,NA,NA,NA,NA,NA,NA,NA,NA,NA
8d294,"""Richtig""-Screen",canvas.Screen,3_0_2_0_5_1_1,NA,NA,timeout,4993.1979999999,3699444.3,3699425.548,3699461.561,3704438.67,3704439.7,2023-05-12T11:26:48Z,3704454.759,NULL,Angreifer,mshambulizi,s,kitengo,tasinia,usafirishaji,NA,sdf,1,2,NA,NA,NA,NA,NA,NA,NA,NA,NA,NA,NA,NA,NA,NA,NA,NA,NA,NA,NA
8d294,"""Falsch""-Screen",canvas.Screen,3_0_2_0_5_1_2,NA,NA,skipped,NA,3704445.3,NA,NA,3704438.67,3704445.7,2023-05-12T11:26:48Z,3704454.759,NULL,Angreifer,mshambulizi,s,kitengo,tasinia,usafirishaji,NA,sdf,NA,2,NA,NA,NA,NA,NA,NA,NA,NA,NA,NA,NA,NA,NA,NA,NA,NA,NA,NA,NA
8d294,shallow,flow.Sequence,3_0_2_0_5_1,NA,NA,completion,13989.014,3690441.7,3690433.539,3690449.656,3704438.67,3704446,2023-05-12T11:26:48Z,3704454.759,NULL,Angreifer,mshambulizi,s,kitengo,tasinia,usafirishaji,NA,sdf,NA,2,NA,NA,NA,NA,NA,NA,NA,NA,NA,NA,NA,NA,NA,NA,NA,NA,NA,NA,NA
8d294,task,flow.Sequence,3_0_2_0_5,NA,NA,completion,13989.014,3690441.4,3690433.539,3690449.656,3704438.67,3704446.3,2023-05-12T11:26:48Z,3704454.759,NULL,Angreifer,mshambulizi,s,kitengo,tasinia,usafirishaji,NA,sdf,NA,2,NA,NA,NA,NA,NA,NA,NA,NA,NA,NA,NA,NA,NA,NA,NA,NA,NA,NA,NA
8d294,deep,flow.Sequence,3_0_2_0_6_0,NA,NA,skipped,NA,3704446.5,NA,NA,3704438.67,3704446.6,2023-05-12T11:26:48Z,3704454.759,NULL,Erneuerung,ukarabati,s,ushawishi,ukalifu,unyonyaji,NA,sdf,NA,2,NA,NA,NA,NA,NA,NA,NA,NA,NA,NA,NA,NA,NA,NA,NA,NA,NA,NA,NA
8d294,Shallow Question,html.Page,3_0_2_0_6_1_0,NA,NA,form submission,6608.6409999984,3704446.7,3704438.67,3704454.759,3711063.4,3711063.5,2023-05-12T11:26:55Z,3711065.935,NULL,Erneuerung,ukarabati,s,ushawishi,ukalifu,unyonyaji,ushawishi,NA,NA,2,NA,NA,NA,NA,NA,NA,NA,NA,NA,NA,NA,NA,NA,NA,NA,NA,NA,NA,NA
8d294,"""Richtig""-Screen",canvas.Screen,3_0_2_0_6_1_1,NA,NA,skipped,NA,3711065.2,NA,NA,3711063.4,3711065.3,2023-05-12T11:26:55Z,3711065.935,NULL,Erneuerung,ukarabati,s,ushawishi,ukalifu,unyonyaji,NA,sdf,NA,2,NA,NA,NA,NA,NA,NA,NA,NA,NA,NA,NA,NA,NA,NA,NA,NA,NA,NA,NA
8d294,"""Falsch""-Screen",canvas.Screen,3_0_2_0_6_1_2,NA,NA,timeout,4996.5060000001,3711065.9,3711049.709,3711065.935,3716045.785,3716046.8,2023-05-12T11:27:00Z,3716062.441,NULL,Erneuerung,ukarabati,s,ushawishi,ukalifu,unyonyaji,NA,sdf,0,2,NA,NA,NA,NA,NA,NA,NA,NA,NA,NA,NA,NA,NA,NA,NA,NA,NA,NA,NA
8d294,shallow,flow.Sequence,3_0_2_0_6_1,NA,NA,completion,11591.026,3704446.7,3704438.67,3704454.759,3716045.785,3716047.1,2023-05-12T11:27:00Z,3716062.441,NULL,Erneuerung,ukarabati,s,ushawishi,ukalifu,unyonyaji,NA,sdf,NA,2,NA,NA,NA,NA,NA,NA,NA,NA,NA,NA,NA,NA,NA,NA,NA,NA,NA,NA,NA
8d294,task,flow.Sequence,3_0_2_0_6,NA,NA,completion,11591.026,3704446.4,3704438.67,3704454.759,3716045.785,3716047.4,2023-05-12T11:27:00Z,3716062.441,NULL,Erneuerung,ukarabati,s,ushawishi,ukalifu,unyonyaji,NA,sdf,NA,2,NA,NA,NA,NA,NA,NA,NA,NA,NA,NA,NA,NA,NA,NA,NA,NA,NA,NA,NA
8d294,Deep Question,html.Page,3_0_2_0_7_0_0,NA,NA,form submission,9993.1590000014,3716047.6,3716045.785,3716062.441,3726055.6,3726055.8,2023-05-12T11:27:10Z,3726070.824,NULL,Atmosphäre,angahewa,d,NA,NA,NA,kubadilika,NA,NA,2,NA,NA,NA,NA,NA,NA,NA,NA,NA,NA,NA,NA,NA,NA,NA,NA,NA,NA,NA
8d294,"""Richtig""-Screen",canvas.Screen,3_0_2_0_7_0_1,NA,NA,skipped,NA,3726057.9,NA,NA,3726055.6,3726058,2023-05-12T11:27:10Z,3726070.824,NULL,Atmosphäre,angahewa,d,NA,NA,NA,NA,sdf,NA,2,NA,NA,NA,NA,NA,NA,NA,NA,NA,NA,NA,NA,NA,NA,NA,NA,NA,NA,NA
8d294,"""Falsch""-Screen",canvas.Screen,3_0_2_0_7_0_2,NA,NA,timeout,4995.5159999998,3726058.6,3726053.695,3726070.824,3731050.032,3731051.1,2023-05-12T11:27:15Z,3731066.34,NULL,Atmosphäre,angahewa,d,NA,NA,NA,NA,sdf,0,2,NA,NA,NA,NA,NA,NA,NA,NA,NA,NA,NA,NA,NA,NA,NA,NA,NA,NA,NA
8d294,deep,flow.Sequence,3_0_2_0_7_0,NA,NA,completion,14987.591,3716047.5,3716045.785,3716062.441,3731050.032,3731052.3,2023-05-12T11:27:15Z,3731066.34,NULL,Atmosphäre,angahewa,d,NA,NA,NA,NA,sdf,NA,2,NA,NA,NA,NA,NA,NA,NA,NA,NA,NA,NA,NA,NA,NA,NA,NA,NA,NA,NA
8d294,shallow,flow.Sequence,3_0_2_0_7_1,NA,NA,skipped,NA,3731052.6,NA,NA,3731050.032,3731052.9,2023-05-12T11:27:15Z,3731066.34,NULL,Atmosphäre,angahewa,d,NA,NA,NA,NA,sdf,NA,2,NA,NA,NA,NA,NA,NA,NA,NA,NA,NA,NA,NA,NA,NA,NA,NA,NA,NA,NA
8d294,task,flow.Sequence,3_0_2_0_7,NA,NA,completion,14987.591,3716047.5,3716045.785,3716062.441,3731050.032,3731053.4,2023-05-12T11:27:15Z,3731066.34,NULL,Atmosphäre,angahewa,d,NA,NA,NA,NA,sdf,NA,2,NA,NA,NA,NA,NA,NA,NA,NA,NA,NA,NA,NA,NA,NA,NA,NA,NA,NA,NA
8d294,block,flow.Loop,3_0_2_0,NA,NA,completion,110043.219,3620990.4,3620990.546,3621006.813,3731050.032,3731053.8,2023-05-12T11:27:15Z,3731066.34,NULL,NA,NA,NA,NA,NA,NA,NA,sdf,NA,2,NA,NA,NA,NA,NA,NA,NA,NA,NA,NA,NA,NA,NA,NA,NA,NA,NA,NA,NA
8d294,weiter,canvas.Screen,3_0_2_1,sdf,keypress(Space),response,18679.260000002,3731054.1,3731050.032,3731066.34,3749745.6,3749751.9,2023-05-12T11:27:34Z,3749850.705,NULL,NA,NA,NA,NA,NA,NA,NA,sdf,NA,2,NA,NA,NA,NA,NA,NA,NA,NA,NA,NA,NA,NA,NA,NA,NA,NA,NA,NA,NA
8d294,check continue,flow.Sequence,3_0_2,NA,NA,completion,128738.787,3620990,3620990.546,3621006.813,3749745.6,3749752.2,2023-05-12T11:27:34Z,3749850.705,NULL,NA,NA,NA,NA,NA,NA,NA,sdf,NA,2,NA,NA,NA,NA,NA,NA,NA,NA,NA,NA,NA,NA,NA,NA,NA,NA,NA,NA,NA
8d294,deep,flow.Sequence,3_0_3_0_0_0,NA,NA,skipped,NA,3749841.7,NA,NA,3749745.6,3749843.2,2023-05-12T11:27:34Z,3749850.705,NULL,Wechsel,ugeuzaji,s,utambulisho,kujenga,wasiwasi,NA,qt,NA,3,NA,NA,NA,NA,NA,NA,NA,NA,NA,NA,NA,NA,NA,NA,NA,NA,NA,NA,NA
8d294,Shallow Question,html.Page,3_0_3_0_0_1_0,NA,NA,form submission,5314.3950000014,3749843.4,3749833.088,3749850.705,3755165.1,3755165.3,2023-05-12T11:27:39Z,3755180.219,NULL,Wechsel,ugeuzaji,s,utambulisho,kujenga,wasiwasi,ugeuzaji,NA,NA,3,NA,NA,NA,NA,NA,NA,NA,NA,NA,NA,NA,NA,NA,NA,NA,NA,NA,NA,NA
8d294,"""Richtig""-Screen",canvas.Screen,3_0_3_0_0_1_1,NA,NA,timeout,4995.3539999998,3755167.1,3755163.428,3755180.219,3760159.453,3760160.4,2023-05-12T11:27:44Z,3760175.573,NULL,Wechsel,ugeuzaji,s,utambulisho,kujenga,wasiwasi,NA,qt,1,3,NA,NA,NA,NA,NA,NA,NA,NA,NA,NA,NA,NA,NA,NA,NA,NA,NA,NA,NA
8d294,"""Falsch""-Screen",canvas.Screen,3_0_3_0_0_1_2,NA,NA,skipped,NA,3760166,NA,NA,3760159.453,3760166.4,2023-05-12T11:27:44Z,3760175.573,NULL,Wechsel,ugeuzaji,s,utambulisho,kujenga,wasiwasi,NA,qt,NA,3,NA,NA,NA,NA,NA,NA,NA,NA,NA,NA,NA,NA,NA,NA,NA,NA,NA,NA,NA
8d294,shallow,flow.Sequence,3_0_3_0_0_1,NA,NA,completion,10308.748,3749843.4,3749833.088,3749850.705,3760159.453,3760166.7,2023-05-12T11:27:44Z,3760175.573,NULL,Wechsel,ugeuzaji,s,utambulisho,kujenga,wasiwasi,NA,qt,NA,3,NA,NA,NA,NA,NA,NA,NA,NA,NA,NA,NA,NA,NA,NA,NA,NA,NA,NA,NA
8d294,task,flow.Sequence,3_0_3_0_0,NA,NA,completion,10308.748,3749841.6,3749833.088,3749850.705,3760159.453,3760166.9,2023-05-12T11:27:44Z,3760175.573,NULL,Wechsel,ugeuzaji,s,utambulisho,kujenga,wasiwasi,NA,qt,NA,3,NA,NA,NA,NA,NA,NA,NA,NA,NA,NA,NA,NA,NA,NA,NA,NA,NA,NA,NA
8d294,Deep Question,html.Page,3_0_3_0_1_0_0,NA,NA,form submission,18767.626999996,3760167.1,3760159.453,3760175.573,3778943.2,3778943.6,2023-05-12T11:28:03Z,3778962.93,NULL,Abrechnung,uhasibu,d,NA,NA,NA,hasubi,NA,NA,3,NA,NA,NA,NA,NA,NA,NA,NA,NA,NA,NA,NA,NA,NA,NA,NA,NA,NA,NA
8d294,"""Richtig""-Screen",canvas.Screen,3_0_3_0_1_0_1,NA,NA,skipped,NA,3778946.1,NA,NA,3778943.2,3778946.2,2023-05-12T11:28:03Z,3778962.93,NULL,Abrechnung,uhasibu,d,NA,NA,NA,NA,qt,NA,3,NA,NA,NA,NA,NA,NA,NA,NA,NA,NA,NA,NA,NA,NA,NA,NA,NA,NA,NA
8d294,"""Falsch""-Screen",canvas.Screen,3_0_3_0_1_0_2,NA,NA,timeout,4993.625,3778947.3,3778927.344,3778962.93,3783939.899,3783940.8,2023-05-12T11:28:08Z,3783956.555,NULL,Abrechnung,uhasibu,d,NA,NA,NA,NA,qt,0,3,NA,NA,NA,NA,NA,NA,NA,NA,NA,NA,NA,NA,NA,NA,NA,NA,NA,NA,NA
8d294,deep,flow.Sequence,3_0_3_0_1_0,NA,NA,completion,23764.326,3760167.1,3760159.453,3760175.573,3783939.899,3783941.2,2023-05-12T11:28:08Z,3783956.555,NULL,Abrechnung,uhasibu,d,NA,NA,NA,NA,qt,NA,3,NA,NA,NA,NA,NA,NA,NA,NA,NA,NA,NA,NA,NA,NA,NA,NA,NA,NA,NA
8d294,shallow,flow.Sequence,3_0_3_0_1_1,NA,NA,skipped,NA,3783941.3,NA,NA,3783939.899,3783941.5,2023-05-12T11:28:08Z,3783956.555,NULL,Abrechnung,uhasibu,d,NA,NA,NA,NA,qt,NA,3,NA,NA,NA,NA,NA,NA,NA,NA,NA,NA,NA,NA,NA,NA,NA,NA,NA,NA,NA
8d294,task,flow.Sequence,3_0_3_0_1,NA,NA,completion,23764.326,3760167,3760159.453,3760175.573,3783939.899,3783941.7,2023-05-12T11:28:08Z,3783956.555,NULL,Abrechnung,uhasibu,d,NA,NA,NA,NA,qt,NA,3,NA,NA,NA,NA,NA,NA,NA,NA,NA,NA,NA,NA,NA,NA,NA,NA,NA,NA,NA
8d294,Deep Question,html.Page,3_0_3_0_2_0_0,NA,NA,form submission,9273.2449999969,3783941.9,3783939.899,3783956.555,3793229.8,3793230.2,2023-05-12T11:28:17Z,3793231.634,NULL,Atmosphäre,angahewa,d,NA,NA,NA,angahewo,NA,NA,3,NA,NA,NA,NA,NA,NA,NA,NA,NA,NA,NA,NA,NA,NA,NA,NA,NA,NA,NA
8d294,"""Richtig""-Screen",canvas.Screen,3_0_3_0_2_0_1,NA,NA,skipped,NA,3793232.6,NA,NA,3793229.8,3793232.8,2023-05-12T11:28:17Z,3793231.634,NULL,Atmosphäre,angahewa,d,NA,NA,NA,NA,qt,NA,3,NA,NA,NA,NA,NA,NA,NA,NA,NA,NA,NA,NA,NA,NA,NA,NA,NA,NA,NA
8d294,"""Falsch""-Screen",canvas.Screen,3_0_3_0_2_0_2,NA,NA,timeout,4996.4950000001,3793233.7,3793215.598,3793231.634,3798211.482,3798212.6,2023-05-12T11:28:22Z,3798228.129,NULL,Atmosphäre,angahewa,d,NA,NA,NA,NA,qt,0,3,NA,NA,NA,NA,NA,NA,NA,NA,NA,NA,NA,NA,NA,NA,NA,NA,NA,NA,NA
8d294,deep,flow.Sequence,3_0_3_0_2_0,NA,NA,completion,14254.927,3783941.8,3783939.899,3783956.555,3798211.482,3798213.1,2023-05-12T11:28:22Z,3798228.129,NULL,Atmosphäre,angahewa,d,NA,NA,NA,NA,qt,NA,3,NA,NA,NA,NA,NA,NA,NA,NA,NA,NA,NA,NA,NA,NA,NA,NA,NA,NA,NA
8d294,shallow,flow.Sequence,3_0_3_0_2_1,NA,NA,skipped,NA,3798213.3,NA,NA,3798211.482,3798213.5,2023-05-12T11:28:22Z,3798228.129,NULL,Atmosphäre,angahewa,d,NA,NA,NA,NA,qt,NA,3,NA,NA,NA,NA,NA,NA,NA,NA,NA,NA,NA,NA,NA,NA,NA,NA,NA,NA,NA
8d294,task,flow.Sequence,3_0_3_0_2,NA,NA,completion,14254.927,3783941.8,3783939.899,3783956.555,3798211.482,3798213.7,2023-05-12T11:28:22Z,3798228.129,NULL,Atmosphäre,angahewa,d,NA,NA,NA,NA,qt,NA,3,NA,NA,NA,NA,NA,NA,NA,NA,NA,NA,NA,NA,NA,NA,NA,NA,NA,NA,NA
8d294,Deep Question,html.Page,3_0_3_0_3_0_0,NA,NA,form submission,20724.270999998,3798213.9,3798211.482,3798228.129,3818952.4,3818952.6,2023-05-12T11:28:43Z,3818960.44,NULL,Flexibilität,kubadilika,d,NA,NA,NA,kubadilika,NA,NA,3,NA,NA,NA,NA,NA,NA,NA,NA,NA,NA,NA,NA,NA,NA,NA,NA,NA,NA,NA
8d294,"""Richtig""-Screen",canvas.Screen,3_0_3_0_3_0_1,NA,NA,timeout,4995.9530000002,3818955.4,3818943.899,3818960.44,3823940.279,3823941.3,2023-05-12T11:28:48Z,3823956.393,NULL,Flexibilität,kubadilika,d,NA,NA,NA,NA,qt,1,3,NA,NA,NA,NA,NA,NA,NA,NA,NA,NA,NA,NA,NA,NA,NA,NA,NA,NA,NA
8d294,"""Falsch""-Screen",canvas.Screen,3_0_3_0_3_0_2,NA,NA,skipped,NA,3823946.5,NA,NA,3823940.279,3823946.8,2023-05-12T11:28:48Z,3823956.393,NULL,Flexibilität,kubadilika,d,NA,NA,NA,NA,qt,NA,3,NA,NA,NA,NA,NA,NA,NA,NA,NA,NA,NA,NA,NA,NA,NA,NA,NA,NA,NA
8d294,deep,flow.Sequence,3_0_3_0_3_0,NA,NA,completion,25712.15,3798213.8,3798211.482,3798228.129,3823940.279,3823947.1,2023-05-12T11:28:48Z,3823956.393,NULL,Flexibilität,kubadilika,d,NA,NA,NA,NA,qt,NA,3,NA,NA,NA,NA,NA,NA,NA,NA,NA,NA,NA,NA,NA,NA,NA,NA,NA,NA,NA
8d294,shallow,flow.Sequence,3_0_3_0_3_1,NA,NA,skipped,NA,3823947.2,NA,NA,3823940.279,3823947.3,2023-05-12T11:28:48Z,3823956.393,NULL,Flexibilität,kubadilika,d,NA,NA,NA,NA,qt,NA,3,NA,NA,NA,NA,NA,NA,NA,NA,NA,NA,NA,NA,NA,NA,NA,NA,NA,NA,NA
8d294,task,flow.Sequence,3_0_3_0_3,NA,NA,completion,25712.15,3798213.8,3798211.482,3798228.129,3823940.279,3823947.6,2023-05-12T11:28:48Z,3823956.393,NULL,Flexibilität,kubadilika,d,NA,NA,NA,NA,qt,NA,3,NA,NA,NA,NA,NA,NA,NA,NA,NA,NA,NA,NA,NA,NA,NA,NA,NA,NA,NA
8d294,deep,flow.Sequence,3_0_3_0_4_0,NA,NA,skipped,NA,3823947.8,NA,NA,3823940.279,3823947.9,2023-05-12T11:28:48Z,3823956.393,NULL,Erneuerung,ukarabati,s,ushawishi,ukalifu,unyonyaji,NA,qt,NA,3,NA,NA,NA,NA,NA,NA,NA,NA,NA,NA,NA,NA,NA,NA,NA,NA,NA,NA,NA
8d294,Shallow Question,html.Page,3_0_3_0_4_1_0,NA,NA,form submission,6666.3069999954,3823948.1,3823940.279,3823956.393,3830622.7,3830622.9,2023-05-12T11:28:55Z,3830634.184,NULL,Erneuerung,ukarabati,s,ushawishi,ukalifu,unyonyaji,ukarabati,NA,NA,3,NA,NA,NA,NA,NA,NA,NA,NA,NA,NA,NA,NA,NA,NA,NA,NA,NA,NA,NA
8d294,"""Richtig""-Screen",canvas.Screen,3_0_3_0_4_1_1,NA,NA,timeout,4995.932,3830624.8,3830617.821,3830634.184,3835614.014,3835615.1,2023-05-12T11:29:00Z,3835630.116,NULL,Erneuerung,ukarabati,s,ushawishi,ukalifu,unyonyaji,NA,qt,1,3,NA,NA,NA,NA,NA,NA,NA,NA,NA,NA,NA,NA,NA,NA,NA,NA,NA,NA,NA
8d294,"""Falsch""-Screen",canvas.Screen,3_0_3_0_4_1_2,NA,NA,skipped,NA,3835620.5,NA,NA,3835614.014,3835620.8,2023-05-12T11:29:00Z,3835630.116,NULL,Erneuerung,ukarabati,s,ushawishi,ukalifu,unyonyaji,NA,qt,NA,3,NA,NA,NA,NA,NA,NA,NA,NA,NA,NA,NA,NA,NA,NA,NA,NA,NA,NA,NA
8d294,shallow,flow.Sequence,3_0_3_0_4_1,NA,NA,completion,11657.621,3823948,3823940.279,3823956.393,3835614.014,3835621.1,2023-05-12T11:29:00Z,3835630.116,NULL,Erneuerung,ukarabati,s,ushawishi,ukalifu,unyonyaji,NA,qt,NA,3,NA,NA,NA,NA,NA,NA,NA,NA,NA,NA,NA,NA,NA,NA,NA,NA,NA,NA,NA
8d294,task,flow.Sequence,3_0_3_0_4,NA,NA,completion,11657.621,3823947.7,3823940.279,3823956.393,3835614.014,3835621.4,2023-05-12T11:29:00Z,3835630.116,NULL,Erneuerung,ukarabati,s,ushawishi,ukalifu,unyonyaji,NA,qt,NA,3,NA,NA,NA,NA,NA,NA,NA,NA,NA,NA,NA,NA,NA,NA,NA,NA,NA,NA,NA
8d294,deep,flow.Sequence,3_0_3_0_5_0,NA,NA,skipped,NA,3835621.6,NA,NA,3835614.014,3835621.7,2023-05-12T11:29:00Z,3835630.116,NULL,Angreifer,mshambulizi,s,kitengo,tasinia,usafirishaji,NA,qt,NA,3,NA,NA,NA,NA,NA,NA,NA,NA,NA,NA,NA,NA,NA,NA,NA,NA,NA,NA,NA
8d294,Shallow Question,html.Page,3_0_3_0_5_1_0,NA,NA,form submission,7901.5839999956,3835621.9,3835614.014,3835630.116,3843531.7,3843532,2023-05-12T11:29:07Z,3843540.286,NULL,Angreifer,mshambulizi,s,kitengo,tasinia,usafirishaji,usafirishaji,NA,NA,3,NA,NA,NA,NA,NA,NA,NA,NA,NA,NA,NA,NA,NA,NA,NA,NA,NA,NA,NA
8d294,"""Richtig""-Screen",canvas.Screen,3_0_3_0_5_1_1,NA,NA,skipped,NA,3843533.8,NA,NA,3843531.7,3843533.9,2023-05-12T11:29:08Z,3843540.286,NULL,Angreifer,mshambulizi,s,kitengo,tasinia,usafirishaji,NA,qt,NA,3,NA,NA,NA,NA,NA,NA,NA,NA,NA,NA,NA,NA,NA,NA,NA,NA,NA,NA,NA
8d294,"""Falsch""-Screen",canvas.Screen,3_0_3_0_5_1_2,NA,NA,timeout,4996.4310000003,3843534.4,3843524.122,3843540.286,3848520.054,3848521,2023-05-12T11:29:12Z,3848536.717,NULL,Angreifer,mshambulizi,s,kitengo,tasinia,usafirishaji,NA,qt,0,3,NA,NA,NA,NA,NA,NA,NA,NA,NA,NA,NA,NA,NA,NA,NA,NA,NA,NA,NA
8d294,shallow,flow.Sequence,3_0_3_0_5_1,NA,NA,completion,12889.938,3835621.8,3835614.014,3835630.116,3848520.054,3848521.4,2023-05-12T11:29:12Z,3848536.717,NULL,Angreifer,mshambulizi,s,kitengo,tasinia,usafirishaji,NA,qt,NA,3,NA,NA,NA,NA,NA,NA,NA,NA,NA,NA,NA,NA,NA,NA,NA,NA,NA,NA,NA
8d294,task,flow.Sequence,3_0_3_0_5,NA,NA,completion,12889.938,3835621.5,3835614.014,3835630.116,3848520.054,3848521.7,2023-05-12T11:29:12Z,3848536.717,NULL,Angreifer,mshambulizi,s,kitengo,tasinia,usafirishaji,NA,qt,NA,3,NA,NA,NA,NA,NA,NA,NA,NA,NA,NA,NA,NA,NA,NA,NA,NA,NA,NA,NA
8d294,Deep Question,html.Page,3_0_3_0_6_0_0,NA,NA,form submission,12653.883000001,3848521.9,3848520.054,3848536.717,3861190.6,3861190.7,2023-05-12T11:29:25Z,3861192.35,NULL,Kanzler,diwani,d,NA,NA,NA,dihani,NA,NA,3,NA,NA,NA,NA,NA,NA,NA,NA,NA,NA,NA,NA,NA,NA,NA,NA,NA,NA,NA
8d294,"""Richtig""-Screen",canvas.Screen,3_0_3_0_6_0_1,NA,NA,skipped,NA,3861193.1,NA,NA,3861190.6,3861193.3,2023-05-12T11:29:25Z,3861192.35,NULL,Kanzler,diwani,d,NA,NA,NA,NA,qt,NA,3,NA,NA,NA,NA,NA,NA,NA,NA,NA,NA,NA,NA,NA,NA,NA,NA,NA,NA,NA
8d294,"""Falsch""-Screen",canvas.Screen,3_0_3_0_6_0_2,NA,NA,timeout,4995.943,3861194.3,3861176.298,3861192.35,3866172.191,3866173.2,2023-05-12T11:29:30Z,3866188.293,NULL,Kanzler,diwani,d,NA,NA,NA,NA,qt,0,3,NA,NA,NA,NA,NA,NA,NA,NA,NA,NA,NA,NA,NA,NA,NA,NA,NA,NA,NA
8d294,deep,flow.Sequence,3_0_3_0_6_0,NA,NA,completion,17635.474,3848521.9,3848520.054,3848536.717,3866172.191,3866173.7,2023-05-12T11:29:30Z,3866188.293,NULL,Kanzler,diwani,d,NA,NA,NA,NA,qt,NA,3,NA,NA,NA,NA,NA,NA,NA,NA,NA,NA,NA,NA,NA,NA,NA,NA,NA,NA,NA
8d294,shallow,flow.Sequence,3_0_3_0_6_1,NA,NA,skipped,NA,3866173.9,NA,NA,3866172.191,3866174.1,2023-05-12T11:29:30Z,3866188.293,NULL,Kanzler,diwani,d,NA,NA,NA,NA,qt,NA,3,NA,NA,NA,NA,NA,NA,NA,NA,NA,NA,NA,NA,NA,NA,NA,NA,NA,NA,NA
8d294,task,flow.Sequence,3_0_3_0_6,NA,NA,completion,17635.474,3848521.8,3848520.054,3848536.717,3866172.191,3866174.3,2023-05-12T11:29:30Z,3866188.293,NULL,Kanzler,diwani,d,NA,NA,NA,NA,qt,NA,3,NA,NA,NA,NA,NA,NA,NA,NA,NA,NA,NA,NA,NA,NA,NA,NA,NA,NA,NA
8d294,deep,flow.Sequence,3_0_3_0_7_0,NA,NA,skipped,NA,3866174.4,NA,NA,3866172.191,3866174.7,2023-05-12T11:29:30Z,3866188.293,NULL,Sänger,mwimbaji,s,msichana,shughuli,mshirika,NA,qt,NA,3,NA,NA,NA,NA,NA,NA,NA,NA,NA,NA,NA,NA,NA,NA,NA,NA,NA,NA,NA
8d294,Shallow Question,html.Page,3_0_3_0_7_1_0,NA,NA,form submission,3338.9069999955,3866174.7,3866172.191,3866188.293,3869527.2,3869527.4,2023-05-12T11:29:33Z,3869535.499,NULL,Sänger,mwimbaji,s,msichana,shughuli,mshirika,mwimbaji,NA,NA,3,NA,NA,NA,NA,NA,NA,NA,NA,NA,NA,NA,NA,NA,NA,NA,NA,NA,NA,NA
8d294,"""Richtig""-Screen",canvas.Screen,3_0_3_0_7_1_1,NA,NA,timeout,4995.923,3869529.4,3869519.424,3869535.499,3874515.272,3874516.4,2023-05-12T11:29:38Z,3874531.422,NULL,Sänger,mwimbaji,s,msichana,shughuli,mshirika,NA,qt,1,3,NA,NA,NA,NA,NA,NA,NA,NA,NA,NA,NA,NA,NA,NA,NA,NA,NA,NA,NA
8d294,"""Falsch""-Screen",canvas.Screen,3_0_3_0_7_1_2,NA,NA,skipped,NA,3874521.9,NA,NA,3874515.272,3874522.3,2023-05-12T11:29:38Z,3874531.422,NULL,Sänger,mwimbaji,s,msichana,shughuli,mshirika,NA,qt,NA,3,NA,NA,NA,NA,NA,NA,NA,NA,NA,NA,NA,NA,NA,NA,NA,NA,NA,NA,NA
8d294,shallow,flow.Sequence,3_0_3_0_7_1,NA,NA,completion,8326.9789999998,3866174.7,3866172.191,3866188.293,3874515.272,3874522.5,2023-05-12T11:29:38Z,3874531.422,NULL,Sänger,mwimbaji,s,msichana,shughuli,mshirika,NA,qt,NA,3,NA,NA,NA,NA,NA,NA,NA,NA,NA,NA,NA,NA,NA,NA,NA,NA,NA,NA,NA
8d294,task,flow.Sequence,3_0_3_0_7,NA,NA,completion,8326.9789999998,3866174.4,3866172.191,3866188.293,3874515.272,3874522.8,2023-05-12T11:29:38Z,3874531.422,NULL,Sänger,mwimbaji,s,msichana,shughuli,mshirika,NA,qt,NA,3,NA,NA,NA,NA,NA,NA,NA,NA,NA,NA,NA,NA,NA,NA,NA,NA,NA,NA,NA
8d294,block,flow.Loop,3_0_3_0,NA,NA,completion,124664.567,3749841.6,3749833.088,3749850.705,3874515.272,3874523,2023-05-12T11:29:38Z,3874531.422,NULL,NA,NA,NA,NA,NA,NA,NA,qt,NA,3,NA,NA,NA,NA,NA,NA,NA,NA,NA,NA,NA,NA,NA,NA,NA,NA,NA,NA,NA
8d294,weiter,canvas.Screen,3_0_3_1,sdf,keypress(Space),response,900.97799999872,3874523.2,3874515.272,3874531.422,3875432.4,3875433.9,2023-05-12T11:29:39Z,3875531.065,NULL,NA,NA,NA,NA,NA,NA,NA,qt,NA,3,NA,NA,NA,NA,NA,NA,NA,NA,NA,NA,NA,NA,NA,NA,NA,NA,NA,NA,NA
8d294,check continue,flow.Sequence,3_0_3,NA,NA,completion,125581.695,3749841.5,3749833.088,3749850.705,3875432.4,3875434.2,2023-05-12T11:29:39Z,3875531.065,NULL,NA,NA,NA,NA,NA,NA,NA,qt,NA,3,NA,NA,NA,NA,NA,NA,NA,NA,NA,NA,NA,NA,NA,NA,NA,NA,NA,NA,NA
8d294,Deep Question,html.Page,3_0_4_0_0_0_0,NA,NA,form submission,16035.035000002,3875514.2,3875513.924,3875531.065,3891566.1,3891566.4,2023-05-12T11:29:56Z,3891567.345,NULL,Atmosphäre,angahewa,d,NA,NA,NA,angahewa,NA,NA,4,NA,NA,NA,NA,NA,NA,NA,NA,NA,NA,NA,NA,NA,NA,NA,NA,NA,NA,NA
8d294,"""Richtig""-Screen",canvas.Screen,3_0_4_0_0_0_1,NA,NA,timeout,4995.9759999998,3891568.5,3891550.777,3891567.345,3896547.143,3896548.2,2023-05-12T11:30:01Z,3896563.321,NULL,Atmosphäre,angahewa,d,NA,NA,NA,NA,sd,1,4,NA,NA,NA,NA,NA,NA,NA,NA,NA,NA,NA,NA,NA,NA,NA,NA,NA,NA,NA
8d294,"""Falsch""-Screen",canvas.Screen,3_0_4_0_0_0_2,NA,NA,skipped,NA,3896553.3,NA,NA,3896547.143,3896553.5,2023-05-12T11:30:01Z,3896563.321,NULL,Atmosphäre,angahewa,d,NA,NA,NA,NA,sd,NA,4,NA,NA,NA,NA,NA,NA,NA,NA,NA,NA,NA,NA,NA,NA,NA,NA,NA,NA,NA
8d294,deep,flow.Sequence,3_0_4_0_0_0,NA,NA,completion,21016.078,3875514,3875513.924,3875531.065,3896547.143,3896554,2023-05-12T11:30:01Z,3896563.321,NULL,Atmosphäre,angahewa,d,NA,NA,NA,NA,sd,NA,4,NA,NA,NA,NA,NA,NA,NA,NA,NA,NA,NA,NA,NA,NA,NA,NA,NA,NA,NA
8d294,shallow,flow.Sequence,3_0_4_0_0_1,NA,NA,skipped,NA,3896554.2,NA,NA,3896547.143,3896554.2,2023-05-12T11:30:01Z,3896563.321,NULL,Atmosphäre,angahewa,d,NA,NA,NA,NA,sd,NA,4,NA,NA,NA,NA,NA,NA,NA,NA,NA,NA,NA,NA,NA,NA,NA,NA,NA,NA,NA
8d294,task,flow.Sequence,3_0_4_0_0,NA,NA,completion,21016.078,3875514,3875513.924,3875531.065,3896547.143,3896554.5,2023-05-12T11:30:01Z,3896563.321,NULL,Atmosphäre,angahewa,d,NA,NA,NA,NA,sd,NA,4,NA,NA,NA,NA,NA,NA,NA,NA,NA,NA,NA,NA,NA,NA,NA,NA,NA,NA,NA
8d294,deep,flow.Sequence,3_0_4_0_1_0,NA,NA,skipped,NA,3896554.7,NA,NA,3896547.143,3896554.8,2023-05-12T11:30:01Z,3896563.321,NULL,Erneuerung,ukarabati,s,ushawishi,ukalifu,unyonyaji,NA,sd,NA,4,NA,NA,NA,NA,NA,NA,NA,NA,NA,NA,NA,NA,NA,NA,NA,NA,NA,NA,NA
8d294,Shallow Question,html.Page,3_0_4_0_1_1_0,NA,NA,form submission,11591.679,3896554.9,3896547.143,3896563.321,3908155,3908155.2,2023-05-12T11:30:12Z,3908170.664,NULL,Erneuerung,ukarabati,s,ushawishi,ukalifu,unyonyaji,ukarabati,NA,NA,4,NA,NA,NA,NA,NA,NA,NA,NA,NA,NA,NA,NA,NA,NA,NA,NA,NA,NA,NA
8d294,"""Richtig""-Screen",canvas.Screen,3_0_4_0_1_1_1,NA,NA,timeout,4995.6340000001,3908157.1,3908153.984,3908170.664,3913150.179,3913151.2,2023-05-12T11:30:17Z,3913166.298,NULL,Erneuerung,ukarabati,s,ushawishi,ukalifu,unyonyaji,NA,sd,1,4,NA,NA,NA,NA,NA,NA,NA,NA,NA,NA,NA,NA,NA,NA,NA,NA,NA,NA,NA
8d294,"""Falsch""-Screen",canvas.Screen,3_0_4_0_1_1_2,NA,NA,skipped,NA,3913156.6,NA,NA,3913150.179,3913157,2023-05-12T11:30:17Z,3913166.298,NULL,Erneuerung,ukarabati,s,ushawishi,ukalifu,unyonyaji,NA,sd,NA,4,NA,NA,NA,NA,NA,NA,NA,NA,NA,NA,NA,NA,NA,NA,NA,NA,NA,NA,NA
8d294,shallow,flow.Sequence,3_0_4_0_1_1,NA,NA,completion,16586.858,3896554.9,3896547.143,3896563.321,3913150.179,3913157.3,2023-05-12T11:30:17Z,3913166.298,NULL,Erneuerung,ukarabati,s,ushawishi,ukalifu,unyonyaji,NA,sd,NA,4,NA,NA,NA,NA,NA,NA,NA,NA,NA,NA,NA,NA,NA,NA,NA,NA,NA,NA,NA
8d294,task,flow.Sequence,3_0_4_0_1,NA,NA,completion,16586.858,3896554.6,3896547.143,3896563.321,3913150.179,3913157.6,2023-05-12T11:30:17Z,3913166.298,NULL,Erneuerung,ukarabati,s,ushawishi,ukalifu,unyonyaji,NA,sd,NA,4,NA,NA,NA,NA,NA,NA,NA,NA,NA,NA,NA,NA,NA,NA,NA,NA,NA,NA,NA
8d294,Deep Question,html.Page,3_0_4_0_2_0_0,NA,NA,form submission,8194.3020000015,3913157.7,3913150.179,3913166.298,3921360.6,3921360.9,2023-05-12T11:30:25Z,3921376.721,NULL,Kanzler,diwani,d,NA,NA,NA,diwani,NA,NA,4,NA,NA,NA,NA,NA,NA,NA,NA,NA,NA,NA,NA,NA,NA,NA,NA,NA,NA,NA
8d294,"""Richtig""-Screen",canvas.Screen,3_0_4_0_2_0_1,NA,NA,timeout,4995.352,3921363.2,3921360.092,3921376.721,3926355.675,3926356.6,2023-05-12T11:30:30Z,3926372.073,NULL,Kanzler,diwani,d,NA,NA,NA,NA,sd,1,4,NA,NA,NA,NA,NA,NA,NA,NA,NA,NA,NA,NA,NA,NA,NA,NA,NA,NA,NA
8d294,"""Falsch""-Screen",canvas.Screen,3_0_4_0_2_0_2,NA,NA,skipped,NA,3926361.7,NA,NA,3926355.675,3926362.1,2023-05-12T11:30:30Z,3926372.073,NULL,Kanzler,diwani,d,NA,NA,NA,NA,sd,NA,4,NA,NA,NA,NA,NA,NA,NA,NA,NA,NA,NA,NA,NA,NA,NA,NA,NA,NA,NA
8d294,deep,flow.Sequence,3_0_4_0_2_0,NA,NA,completion,13189.377,3913157.7,3913150.179,3913166.298,3926355.675,3926362.5,2023-05-12T11:30:30Z,3926372.073,NULL,Kanzler,diwani,d,NA,NA,NA,NA,sd,NA,4,NA,NA,NA,NA,NA,NA,NA,NA,NA,NA,NA,NA,NA,NA,NA,NA,NA,NA,NA
8d294,shallow,flow.Sequence,3_0_4_0_2_1,NA,NA,skipped,NA,3926362.5,NA,NA,3926355.675,3926362.7,2023-05-12T11:30:30Z,3926372.073,NULL,Kanzler,diwani,d,NA,NA,NA,NA,sd,NA,4,NA,NA,NA,NA,NA,NA,NA,NA,NA,NA,NA,NA,NA,NA,NA,NA,NA,NA,NA
8d294,task,flow.Sequence,3_0_4_0_2,NA,NA,completion,13189.377,3913157.7,3913150.179,3913166.298,3926355.675,3926362.9,2023-05-12T11:30:30Z,3926372.073,NULL,Kanzler,diwani,d,NA,NA,NA,NA,sd,NA,4,NA,NA,NA,NA,NA,NA,NA,NA,NA,NA,NA,NA,NA,NA,NA,NA,NA,NA,NA
8d294,deep,flow.Sequence,3_0_4_0_3_0,NA,NA,skipped,NA,3926363.1,NA,NA,3926355.675,3926363.3,2023-05-12T11:30:30Z,3926372.073,NULL,Wechsel,ugeuzaji,s,utambulisho,kujenga,wasiwasi,NA,sd,NA,4,NA,NA,NA,NA,NA,NA,NA,NA,NA,NA,NA,NA,NA,NA,NA,NA,NA,NA,NA
8d294,Shallow Question,html.Page,3_0_4_0_3_1_0,NA,NA,form submission,5603.6269999957,3926363.3,3926355.675,3926372.073,3931975.7,3931975.9,2023-05-12T11:30:36Z,3931984.079,NULL,Wechsel,ugeuzaji,s,utambulisho,kujenga,wasiwasi,ugeuzaji,NA,NA,4,NA,NA,NA,NA,NA,NA,NA,NA,NA,NA,NA,NA,NA,NA,NA,NA,NA,NA,NA
8d294,"""Richtig""-Screen",canvas.Screen,3_0_4_0_3_1_1,NA,NA,timeout,4995.9590000003,3931977.7,3931967.507,3931984.079,3936963.952,3936965.2,2023-05-12T11:30:41Z,3936980.038,NULL,Wechsel,ugeuzaji,s,utambulisho,kujenga,wasiwasi,NA,sd,1,4,NA,NA,NA,NA,NA,NA,NA,NA,NA,NA,NA,NA,NA,NA,NA,NA,NA,NA,NA
8d294,"""Falsch""-Screen",canvas.Screen,3_0_4_0_3_1_2,NA,NA,skipped,NA,3936971.1,NA,NA,3936963.952,3936971.3,2023-05-12T11:30:41Z,3936980.038,NULL,Wechsel,ugeuzaji,s,utambulisho,kujenga,wasiwasi,NA,sd,NA,4,NA,NA,NA,NA,NA,NA,NA,NA,NA,NA,NA,NA,NA,NA,NA,NA,NA,NA,NA
8d294,shallow,flow.Sequence,3_0_4_0_3_1,NA,NA,completion,10591.879,3926363.3,3926355.675,3926372.073,3936963.952,3936971.8,2023-05-12T11:30:41Z,3936980.038,NULL,Wechsel,ugeuzaji,s,utambulisho,kujenga,wasiwasi,NA,sd,NA,4,NA,NA,NA,NA,NA,NA,NA,NA,NA,NA,NA,NA,NA,NA,NA,NA,NA,NA,NA
8d294,task,flow.Sequence,3_0_4_0_3,NA,NA,completion,10591.879,3926363.1,3926355.675,3926372.073,3936963.952,3936972,2023-05-12T11:30:41Z,3936980.038,NULL,Wechsel,ugeuzaji,s,utambulisho,kujenga,wasiwasi,NA,sd,NA,4,NA,NA,NA,NA,NA,NA,NA,NA,NA,NA,NA,NA,NA,NA,NA,NA,NA,NA,NA
8d294,Deep Question,html.Page,3_0_4_0_4_0_0,NA,NA,form submission,11672.062000001,3936972.2,3936963.952,3936980.038,3948652.1,3948652.3,2023-05-12T11:30:53Z,3948653.679,NULL,Flexibilität,kubadilika,d,NA,NA,NA,kubadilika,NA,NA,4,NA,NA,NA,NA,NA,NA,NA,NA,NA,NA,NA,NA,NA,NA,NA,NA,NA,NA,NA
8d294,"""Richtig""-Screen",canvas.Screen,3_0_4_0_4_0_1,NA,NA,timeout,4995.9619999998,3948654.7,3948637.421,3948653.679,3953633.461,3953634.7,2023-05-12T11:30:58Z,3953649.641,NULL,Flexibilität,kubadilika,d,NA,NA,NA,NA,sd,1,4,NA,NA,NA,NA,NA,NA,NA,NA,NA,NA,NA,NA,NA,NA,NA,NA,NA,NA,NA
8d294,"""Falsch""-Screen",canvas.Screen,3_0_4_0_4_0_2,NA,NA,skipped,NA,3953639.8,NA,NA,3953633.461,3953640.1,2023-05-12T11:30:58Z,3953649.641,NULL,Flexibilität,kubadilika,d,NA,NA,NA,NA,sd,NA,4,NA,NA,NA,NA,NA,NA,NA,NA,NA,NA,NA,NA,NA,NA,NA,NA,NA,NA,NA
8d294,deep,flow.Sequence,3_0_4_0_4_0,NA,NA,completion,16653.423,3936972.2,3936963.952,3936980.038,3953633.461,3953640.3,2023-05-12T11:30:58Z,3953649.641,NULL,Flexibilität,kubadilika,d,NA,NA,NA,NA,sd,NA,4,NA,NA,NA,NA,NA,NA,NA,NA,NA,NA,NA,NA,NA,NA,NA,NA,NA,NA,NA
8d294,shallow,flow.Sequence,3_0_4_0_4_1,NA,NA,skipped,NA,3953640.6,NA,NA,3953633.461,3953640.7,2023-05-12T11:30:58Z,3953649.641,NULL,Flexibilität,kubadilika,d,NA,NA,NA,NA,sd,NA,4,NA,NA,NA,NA,NA,NA,NA,NA,NA,NA,NA,NA,NA,NA,NA,NA,NA,NA,NA
8d294,task,flow.Sequence,3_0_4_0_4,NA,NA,completion,16653.423,3936972.1,3936963.952,3936980.038,3953633.461,3953640.9,2023-05-12T11:30:58Z,3953649.641,NULL,Flexibilität,kubadilika,d,NA,NA,NA,NA,sd,NA,4,NA,NA,NA,NA,NA,NA,NA,NA,NA,NA,NA,NA,NA,NA,NA,NA,NA,NA,NA
8d294,deep,flow.Sequence,3_0_4_0_5_0,NA,NA,skipped,NA,3953641.1,NA,NA,3953633.461,3953641.2,2023-05-12T11:30:58Z,3953649.641,NULL,Sänger,mwimbaji,s,msichana,shughuli,mshirika,NA,sd,NA,4,NA,NA,NA,NA,NA,NA,NA,NA,NA,NA,NA,NA,NA,NA,NA,NA,NA,NA,NA
8d294,Shallow Question,html.Page,3_0_4_0_5_1_0,NA,NA,form submission,5785.9590000017,3953641.4,3953633.461,3953649.641,3959435.6,3959435.8,2023-05-12T11:31:03Z,3959444.811,NULL,Sänger,mwimbaji,s,msichana,shughuli,mshirika,mwimbaji,NA,NA,4,NA,NA,NA,NA,NA,NA,NA,NA,NA,NA,NA,NA,NA,NA,NA,NA,NA,NA,NA
8d294,"""Richtig""-Screen",canvas.Screen,3_0_4_0_5_1_1,NA,NA,timeout,4995.9589999998,3959438.6,3959428.637,3959444.811,3964424.692,3964425.8,2023-05-12T11:31:08Z,3964440.77,NULL,Sänger,mwimbaji,s,msichana,shughuli,mshirika,NA,sd,1,4,NA,NA,NA,NA,NA,NA,NA,NA,NA,NA,NA,NA,NA,NA,NA,NA,NA,NA,NA
8d294,"""Falsch""-Screen",canvas.Screen,3_0_4_0_5_1_2,NA,NA,skipped,NA,3964431.6,NA,NA,3964424.692,3964431.9,2023-05-12T11:31:08Z,3964440.77,NULL,Sänger,mwimbaji,s,msichana,shughuli,mshirika,NA,sd,NA,4,NA,NA,NA,NA,NA,NA,NA,NA,NA,NA,NA,NA,NA,NA,NA,NA,NA,NA,NA
8d294,shallow,flow.Sequence,3_0_4_0_5_1,NA,NA,completion,10775.051,3953641.3,3953633.461,3953649.641,3964424.692,3964432.2,2023-05-12T11:31:08Z,3964440.77,NULL,Sänger,mwimbaji,s,msichana,shughuli,mshirika,NA,sd,NA,4,NA,NA,NA,NA,NA,NA,NA,NA,NA,NA,NA,NA,NA,NA,NA,NA,NA,NA,NA
8d294,task,flow.Sequence,3_0_4_0_5,NA,NA,completion,10775.051,3953641,3953633.461,3953649.641,3964424.692,3964432.4,2023-05-12T11:31:08Z,3964440.77,NULL,Sänger,mwimbaji,s,msichana,shughuli,mshirika,NA,sd,NA,4,NA,NA,NA,NA,NA,NA,NA,NA,NA,NA,NA,NA,NA,NA,NA,NA,NA,NA,NA
8d294,deep,flow.Sequence,3_0_4_0_6_0,NA,NA,skipped,NA,3964432.6,NA,NA,3964424.692,3964432.7,2023-05-12T11:31:08Z,3964440.77,NULL,Angreifer,mshambulizi,s,kitengo,tasinia,usafirishaji,NA,sd,NA,4,NA,NA,NA,NA,NA,NA,NA,NA,NA,NA,NA,NA,NA,NA,NA,NA,NA,NA,NA
8d294,Shallow Question,html.Page,3_0_4_0_6_1_0,NA,NA,form submission,11346.029999997,3964433,3964424.692,3964440.77,3975786.8,3975787,2023-05-12T11:31:20Z,3975798.416,NULL,Angreifer,mshambulizi,s,kitengo,tasinia,usafirishaji,mshambulizi,NA,NA,4,NA,NA,NA,NA,NA,NA,NA,NA,NA,NA,NA,NA,NA,NA,NA,NA,NA,NA,NA
8d294,"""Richtig""-Screen",canvas.Screen,3_0_4_0_6_1_1,NA,NA,timeout,4995.5389999999,3975788.8,3975781.676,3975798.416,3980777.836,3980778.9,2023-05-12T11:31:25Z,3980793.955,NULL,Angreifer,mshambulizi,s,kitengo,tasinia,usafirishaji,NA,sd,1,4,NA,NA,NA,NA,NA,NA,NA,NA,NA,NA,NA,NA,NA,NA,NA,NA,NA,NA,NA
8d294,"""Falsch""-Screen",canvas.Screen,3_0_4_0_6_1_2,NA,NA,skipped,NA,3980784.5,NA,NA,3980777.836,3980784.9,2023-05-12T11:31:25Z,3980793.955,NULL,Angreifer,mshambulizi,s,kitengo,tasinia,usafirishaji,NA,sd,NA,4,NA,NA,NA,NA,NA,NA,NA,NA,NA,NA,NA,NA,NA,NA,NA,NA,NA,NA,NA
8d294,shallow,flow.Sequence,3_0_4_0_6_1,NA,NA,completion,16337.066,3964432.9,3964424.692,3964440.77,3980777.836,3980785.4,2023-05-12T11:31:25Z,3980793.955,NULL,Angreifer,mshambulizi,s,kitengo,tasinia,usafirishaji,NA,sd,NA,4,NA,NA,NA,NA,NA,NA,NA,NA,NA,NA,NA,NA,NA,NA,NA,NA,NA,NA,NA
8d294,task,flow.Sequence,3_0_4_0_6,NA,NA,completion,16337.066,3964432.6,3964424.692,3964440.77,3980777.836,3980785.8,2023-05-12T11:31:25Z,3980793.955,NULL,Angreifer,mshambulizi,s,kitengo,tasinia,usafirishaji,NA,sd,NA,4,NA,NA,NA,NA,NA,NA,NA,NA,NA,NA,NA,NA,NA,NA,NA,NA,NA,NA,NA
8d294,Deep Question,html.Page,3_0_4_0_7_0_0,NA,NA,form submission,13353.944999998,3980786.2,3980777.836,3980793.955,3994147.9,3994148.2,2023-05-12T11:31:38Z,3994149.557,NULL,Abrechnung,uhasibu,d,NA,NA,NA,uhasiu,NA,NA,4,NA,NA,NA,NA,NA,NA,NA,NA,NA,NA,NA,NA,NA,NA,NA,NA,NA,NA,NA
8d294,"""Richtig""-Screen",canvas.Screen,3_0_4_0_7_0_1,NA,NA,skipped,NA,3994150.7,NA,NA,3994147.9,3994150.9,2023-05-12T11:31:38Z,3994149.557,NULL,Abrechnung,uhasibu,d,NA,NA,NA,NA,sd,NA,4,NA,NA,NA,NA,NA,NA,NA,NA,NA,NA,NA,NA,NA,NA,NA,NA,NA,NA,NA
8d294,"""Falsch""-Screen",canvas.Screen,3_0_4_0_7_0_2,NA,NA,timeout,4996.4610000001,3994151.5,3994133.02,3994149.557,3999129.376,3999130.4,2023-05-12T11:31:43Z,3999146.018,NULL,Abrechnung,uhasibu,d,NA,NA,NA,NA,sd,0,4,NA,NA,NA,NA,NA,NA,NA,NA,NA,NA,NA,NA,NA,NA,NA,NA,NA,NA,NA
8d294,deep,flow.Sequence,3_0_4_0_7_0,NA,NA,completion,18335.421,3980786.1,3980777.836,3980793.955,3999129.376,3999130.7,2023-05-12T11:31:43Z,3999146.018,NULL,Abrechnung,uhasibu,d,NA,NA,NA,NA,sd,NA,4,NA,NA,NA,NA,NA,NA,NA,NA,NA,NA,NA,NA,NA,NA,NA,NA,NA,NA,NA
8d294,shallow,flow.Sequence,3_0_4_0_7_1,NA,NA,skipped,NA,3999130.9,NA,NA,3999129.376,3999131.1,2023-05-12T11:31:43Z,3999146.018,NULL,Abrechnung,uhasibu,d,NA,NA,NA,NA,sd,NA,4,NA,NA,NA,NA,NA,NA,NA,NA,NA,NA,NA,NA,NA,NA,NA,NA,NA,NA,NA
8d294,task,flow.Sequence,3_0_4_0_7,NA,NA,completion,18335.421,3980786,3980777.836,3980793.955,3999129.376,3999131.3,2023-05-12T11:31:43Z,3999146.018,NULL,Abrechnung,uhasibu,d,NA,NA,NA,NA,sd,NA,4,NA,NA,NA,NA,NA,NA,NA,NA,NA,NA,NA,NA,NA,NA,NA,NA,NA,NA,NA
8d294,block,flow.Loop,3_0_4_0,NA,NA,completion,123598.311,3875513.9,3875513.924,3875531.065,3999129.376,3999131.5,2023-05-12T11:31:43Z,3999146.018,NULL,NA,NA,NA,NA,NA,NA,NA,sd,NA,4,NA,NA,NA,NA,NA,NA,NA,NA,NA,NA,NA,NA,NA,NA,NA,NA,NA,NA,NA
8d294,weiter,canvas.Screen,3_0_4_1,sdf,keypress(Space),response,3163.4819999998,3999131.7,3999129.376,3999146.018,4002309.5,4002314.8,2023-05-12T11:31:46Z,4002958.979,NULL,NA,NA,NA,NA,NA,NA,NA,sd,NA,4,NA,NA,NA,NA,NA,NA,NA,NA,NA,NA,NA,NA,NA,NA,NA,NA,NA,NA,NA
8d294,check continue,flow.Sequence,3_0_4,NA,NA,completion,126778.435,3875513.8,3875513.924,3875531.065,4002309.5,4002315.1,2023-05-12T11:31:46Z,4002958.979,NULL,NA,NA,NA,NA,NA,NA,NA,sd,NA,4,NA,NA,NA,NA,NA,NA,NA,NA,NA,NA,NA,NA,NA,NA,NA,NA,NA,NA,NA
8d294,check continue,flow.Sequence,3_0_5,NA,NA,skipped,NA,4002421.7,NA,NA,4002309.5,4002421.9,2023-05-12T11:31:46Z,4002958.979,NULL,NA,NA,NA,NA,NA,NA,NA,sdf,NA,5,NA,NA,NA,NA,NA,NA,NA,NA,NA,NA,NA,NA,NA,NA,NA,NA,NA,NA,NA
8d294,check continue,flow.Sequence,3_0_6,NA,NA,skipped,NA,4002448.4,NA,NA,4002309.5,4002448.5,2023-05-12T11:31:46Z,4002958.979,NULL,NA,NA,NA,NA,NA,NA,NA,dfs,NA,6,NA,NA,NA,NA,NA,NA,NA,NA,NA,NA,NA,NA,NA,NA,NA,NA,NA,NA,NA
8d294,check continue,flow.Sequence,3_0_7,NA,NA,skipped,NA,4002470.6,NA,NA,4002309.5,4002470.8,2023-05-12T11:31:46Z,4002958.979,NULL,NA,NA,NA,NA,NA,NA,NA,df,NA,7,NA,NA,NA,NA,NA,NA,NA,NA,NA,NA,NA,NA,NA,NA,NA,NA,NA,NA,NA
8d294,check continue,flow.Sequence,3_0_8,NA,NA,skipped,NA,4002493.3,NA,NA,4002309.5,4002493.4,2023-05-12T11:31:46Z,4002958.979,NULL,NA,NA,NA,NA,NA,NA,NA,dfs,NA,8,NA,NA,NA,NA,NA,NA,NA,NA,NA,NA,NA,NA,NA,NA,NA,NA,NA,NA,NA
8d294,check continue,flow.Sequence,3_0_9,NA,NA,skipped,NA,4002521.9,NA,NA,4002309.5,4002522.1,2023-05-12T11:31:46Z,4002958.979,NULL,NA,NA,NA,NA,NA,NA,NA,dsf,NA,9,NA,NA,NA,NA,NA,NA,NA,NA,NA,NA,NA,NA,NA,NA,NA,NA,NA,NA,NA
8d294,check continue,flow.Sequence,3_0_10,NA,NA,skipped,NA,4002544,NA,NA,4002309.5,4002544.1,2023-05-12T11:31:47Z,4002958.979,NULL,NA,NA,NA,NA,NA,NA,NA,df,NA,10,NA,NA,NA,NA,NA,NA,NA,NA,NA,NA,NA,NA,NA,NA,NA,NA,NA,NA,NA
8d294,check continue,flow.Sequence,3_0_11,NA,NA,skipped,NA,4002565.5,NA,NA,4002309.5,4002565.7,2023-05-12T11:31:47Z,4002958.979,NULL,NA,NA,NA,NA,NA,NA,NA,dfs,NA,11,NA,NA,NA,NA,NA,NA,NA,NA,NA,NA,NA,NA,NA,NA,NA,NA,NA,NA,NA
8d294,check continue,flow.Sequence,3_0_12,NA,NA,skipped,NA,4002591.9,NA,NA,4002309.5,4002592.1,2023-05-12T11:31:47Z,4002958.979,NULL,NA,NA,NA,NA,NA,NA,NA,dsf,NA,12,NA,NA,NA,NA,NA,NA,NA,NA,NA,NA,NA,NA,NA,NA,NA,NA,NA,NA,NA
8d294,check continue,flow.Sequence,3_0_13,NA,NA,skipped,NA,4002616.1,NA,NA,4002309.5,4002616.2,2023-05-12T11:31:47Z,4002958.979,NULL,NA,NA,NA,NA,NA,NA,NA,dsf,NA,13,NA,NA,NA,NA,NA,NA,NA,NA,NA,NA,NA,NA,NA,NA,NA,NA,NA,NA,NA
8d294,check continue,flow.Sequence,3_0_14,NA,NA,skipped,NA,4002643.6,NA,NA,4002309.5,4002643.8,2023-05-12T11:31:47Z,4002958.979,NULL,NA,NA,NA,NA,NA,NA,NA,NA,NA,14,NA,NA,NA,NA,NA,NA,NA,NA,NA,NA,NA,NA,NA,NA,NA,NA,NA,NA,NA
8d294,check continue,flow.Sequence,3_0_15,NA,NA,skipped,NA,4002672.4,NA,NA,4002309.5,4002672.6,2023-05-12T11:31:47Z,4002958.979,NULL,NA,NA,NA,NA,NA,NA,NA,NA,NA,15,NA,NA,NA,NA,NA,NA,NA,NA,NA,NA,NA,NA,NA,NA,NA,NA,NA,NA,NA
8d294,check continue,flow.Sequence,3_0_16,NA,NA,skipped,NA,4002697.2,NA,NA,4002309.5,4002697.3,2023-05-12T11:31:47Z,4002958.979,NULL,NA,NA,NA,NA,NA,NA,NA,NA,NA,16,NA,NA,NA,NA,NA,NA,NA,NA,NA,NA,NA,NA,NA,NA,NA,NA,NA,NA,NA
8d294,check continue,flow.Sequence,3_0_17,NA,NA,skipped,NA,4002713.1,NA,NA,4002309.5,4002713.1,2023-05-12T11:31:47Z,4002958.979,NULL,NA,NA,NA,NA,NA,NA,NA,NA,NA,17,NA,NA,NA,NA,NA,NA,NA,NA,NA,NA,NA,NA,NA,NA,NA,NA,NA,NA,NA
8d294,check continue,flow.Sequence,3_0_18,NA,NA,skipped,NA,4002729.3,NA,NA,4002309.5,4002729.3,2023-05-12T11:31:47Z,4002958.979,NULL,NA,NA,NA,NA,NA,NA,NA,NA,NA,18,NA,NA,NA,NA,NA,NA,NA,NA,NA,NA,NA,NA,NA,NA,NA,NA,NA,NA,NA
8d294,check continue,flow.Sequence,3_0_19,NA,NA,skipped,NA,4002747.3,NA,NA,4002309.5,4002747.5,2023-05-12T11:31:47Z,4002958.979,NULL,NA,NA,NA,NA,NA,NA,NA,NA,NA,19,NA,NA,NA,NA,NA,NA,NA,NA,NA,NA,NA,NA,NA,NA,NA,NA,NA,NA,NA
8d294,check continue,flow.Sequence,3_0_20,NA,NA,skipped,NA,4002764.2,NA,NA,4002309.5,4002764.3,2023-05-12T11:31:47Z,4002958.979,NULL,NA,NA,NA,NA,NA,NA,NA,NA,NA,20,NA,NA,NA,NA,NA,NA,NA,NA,NA,NA,NA,NA,NA,NA,NA,NA,NA,NA,NA
8d294,check continue,flow.Sequence,3_0_21,NA,NA,skipped,NA,4002779.9,NA,NA,4002309.5,4002780,2023-05-12T11:31:47Z,4002958.979,NULL,NA,NA,NA,NA,NA,NA,NA,NA,NA,21,NA,NA,NA,NA,NA,NA,NA,NA,NA,NA,NA,NA,NA,NA,NA,NA,NA,NA,NA
8d294,check continue,flow.Sequence,3_0_22,NA,NA,skipped,NA,4002796.9,NA,NA,4002309.5,4002797,2023-05-12T11:31:47Z,4002958.979,NULL,NA,NA,NA,NA,NA,NA,NA,NA,NA,22,NA,NA,NA,NA,NA,NA,NA,NA,NA,NA,NA,NA,NA,NA,NA,NA,NA,NA,NA
8d294,check continue,flow.Sequence,3_0_23,NA,NA,skipped,NA,4002813.8,NA,NA,4002309.5,4002813.8,2023-05-12T11:31:47Z,4002958.979,NULL,NA,NA,NA,NA,NA,NA,NA,NA,NA,23,NA,NA,NA,NA,NA,NA,NA,NA,NA,NA,NA,NA,NA,NA,NA,NA,NA,NA,NA
8d294,check continue,flow.Sequence,3_0_24,NA,NA,skipped,NA,4002828.3,NA,NA,4002309.5,4002828.3,2023-05-12T11:31:47Z,4002958.979,NULL,NA,NA,NA,NA,NA,NA,NA,NA,NA,24,NA,NA,NA,NA,NA,NA,NA,NA,NA,NA,NA,NA,NA,NA,NA,NA,NA,NA,NA
8d294,check continue,flow.Sequence,3_0_25,NA,NA,skipped,NA,4002846.9,NA,NA,4002309.5,4002847,2023-05-12T11:31:47Z,4002958.979,NULL,NA,NA,NA,NA,NA,NA,NA,NA,NA,25,NA,NA,NA,NA,NA,NA,NA,NA,NA,NA,NA,NA,NA,NA,NA,NA,NA,NA,NA
8d294,check continue,flow.Sequence,3_0_26,NA,NA,skipped,NA,4002872.6,NA,NA,4002309.5,4002872.7,2023-05-12T11:31:47Z,4002958.979,NULL,NA,NA,NA,NA,NA,NA,NA,NA,NA,26,NA,NA,NA,NA,NA,NA,NA,NA,NA,NA,NA,NA,NA,NA,NA,NA,NA,NA,NA
8d294,check continue,flow.Sequence,3_0_27,NA,NA,skipped,NA,4002901.3,NA,NA,4002309.5,4002901.5,2023-05-12T11:31:47Z,4002958.979,NULL,NA,NA,NA,NA,NA,NA,NA,NA,NA,27,NA,NA,NA,NA,NA,NA,NA,NA,NA,NA,NA,NA,NA,NA,NA,NA,NA,NA,NA
8d294,check continue,flow.Sequence,3_0_28,NA,NA,skipped,NA,4002916,NA,NA,4002309.5,4002916,2023-05-12T11:31:47Z,4002958.979,NULL,NA,NA,NA,NA,NA,NA,NA,NA,NA,28,NA,NA,NA,NA,NA,NA,NA,NA,NA,NA,NA,NA,NA,NA,NA,NA,NA,NA,NA
8d294,check continue,flow.Sequence,3_0_29,NA,NA,skipped,NA,4002951.3,NA,NA,4002309.5,4002951.4,2023-05-12T11:31:47Z,4002958.979,NULL,NA,NA,NA,NA,NA,NA,NA,NA,NA,29,NA,NA,NA,NA,NA,NA,NA,NA,NA,NA,NA,NA,NA,NA,NA,NA,NA,NA,NA
8d294,until continue,flow.Loop,3_0,NA,NA,completion,703920.193,3298315.4,3298372.207,3298389.307,4002309.5,4002951.6,2023-05-12T11:31:47Z,4002958.979,NULL,NA,NA,NA,NA,NA,NA,NA,NA,NA,NA,NA,NA,NA,NA,NA,NA,NA,NA,NA,NA,NA,NA,NA,NA,NA,NA,NA,NA,NA
8d294,block 1,flow.Sequence,3,NA,NA,completion,703920.193,3298315.4,3298372.207,3298389.307,4002309.5,4002951.7,2023-05-12T11:31:47Z,4002958.979,NULL,NA,NA,NA,NA,NA,NA,NA,NA,NA,NA,NA,NA,NA,NA,NA,NA,NA,NA,NA,NA,NA,NA,NA,NA,NA,NA,NA,NA,NA
8d294,1.Part Over,canvas.Screen,4,NA,keypress(Space),response,5813.4209999987,4002951.7,4002942.687,4002958.979,4008772.4,4008773.5,2023-05-12T11:31:53Z,4008920.853,NULL,NA,NA,NA,NA,NA,NA,NA,NA,NA,NA,NA,NA,NA,NA,NA,NA,NA,NA,NA,NA,NA,NA,NA,NA,NA,NA,NA,NA,NA
8d294,Deep Question,html.Page,5_0_0_0_0_0_0,NA,NA,form submission,4698.6469999999,4008917,4008903.864,4008920.853,4013619.5,4013619.8,2023-05-12T11:31:58Z,4013633.965,NULL,Gefährdung,kuhatarisha,d,NA,NA,NA,tu,NA,NA,0,NA,NA,NA,NA,NA,NA,NA,NA,NA,NA,NA,NA,NA,NA,NA,NA,NA,NA,NA
8d294,"""Richtig""-Screen",canvas.Screen,5_0_0_0_0_0_1,NA,NA,skipped,NA,4013621.8,NA,NA,4013619.5,4013622,2023-05-12T11:31:58Z,4013633.965,NULL,Gefährdung,kuhatarisha,d,NA,NA,NA,NA,sdf,NA,0,NA,NA,NA,NA,NA,NA,NA,NA,NA,NA,NA,NA,NA,NA,NA,NA,NA,NA,NA
8d294,"""Falsch""-Screen",canvas.Screen,5_0_0_0_0_0_2,NA,NA,timeout,4996.0490000001,4013622.6,4013617.469,4013633.965,4018613.352,4018614.4,2023-05-12T11:32:03Z,4018630.014,NULL,Gefährdung,kuhatarisha,d,NA,NA,NA,NA,sdf,0,0,NA,NA,NA,NA,NA,NA,NA,NA,NA,NA,NA,NA,NA,NA,NA,NA,NA,NA,NA
8d294,deep,flow.Sequence,5_0_0_0_0_0,NA,NA,completion,9692.4989999998,4008917,4008903.864,4008920.853,4018613.352,4018614.7,2023-05-12T11:32:03Z,4018630.014,NULL,Gefährdung,kuhatarisha,d,NA,NA,NA,NA,sdf,NA,0,NA,NA,NA,NA,NA,NA,NA,NA,NA,NA,NA,NA,NA,NA,NA,NA,NA,NA,NA
8d294,shallow,flow.Sequence,5_0_0_0_0_1,NA,NA,skipped,NA,4018614.9,NA,NA,4018613.352,4018615,2023-05-12T11:32:03Z,4018630.014,NULL,Gefährdung,kuhatarisha,d,NA,NA,NA,NA,sdf,NA,0,NA,NA,NA,NA,NA,NA,NA,NA,NA,NA,NA,NA,NA,NA,NA,NA,NA,NA,NA
8d294,task,flow.Sequence,5_0_0_0_0,NA,NA,completion,9692.4989999998,4008917,4008903.864,4008920.853,4018613.352,4018615.2,2023-05-12T11:32:03Z,4018630.014,NULL,Gefährdung,kuhatarisha,d,NA,NA,NA,NA,sdf,NA,0,NA,NA,NA,NA,NA,NA,NA,NA,NA,NA,NA,NA,NA,NA,NA,NA,NA,NA,NA
8d294,Deep Question,html.Page,5_0_0_0_1_0_0,NA,NA,form submission,17943.885999999,4018615.4,4018613.352,4018630.014,4036573.9,4036574.1,2023-05-12T11:32:21Z,4036581.285,NULL,Stimmung,kinyongo,d,NA,NA,NA,s,NA,NA,0,NA,NA,NA,NA,NA,NA,NA,NA,NA,NA,NA,NA,NA,NA,NA,NA,NA,NA,NA
8d294,"""Richtig""-Screen",canvas.Screen,5_0_0_0_1_0_1,NA,NA,skipped,NA,4036577,NA,NA,4036573.9,4036577.2,2023-05-12T11:32:21Z,4036581.285,NULL,Stimmung,kinyongo,d,NA,NA,NA,NA,sdf,NA,0,NA,NA,NA,NA,NA,NA,NA,NA,NA,NA,NA,NA,NA,NA,NA,NA,NA,NA,NA
8d294,"""Falsch""-Screen",canvas.Screen,5_0_0_0_1_0_2,NA,NA,timeout,4996.5289999996,4036578.1,4036565.266,4036581.285,4041561.13,4041562.1,2023-05-12T11:32:26Z,4041577.814,NULL,Stimmung,kinyongo,d,NA,NA,NA,NA,sdf,0,0,NA,NA,NA,NA,NA,NA,NA,NA,NA,NA,NA,NA,NA,NA,NA,NA,NA,NA,NA
8d294,deep,flow.Sequence,5_0_0_0_1_0,NA,NA,completion,22931.116,4018615.4,4018613.352,4018630.014,4041561.13,4041562.6,2023-05-12T11:32:26Z,4041577.814,NULL,Stimmung,kinyongo,d,NA,NA,NA,NA,sdf,NA,0,NA,NA,NA,NA,NA,NA,NA,NA,NA,NA,NA,NA,NA,NA,NA,NA,NA,NA,NA
8d294,shallow,flow.Sequence,5_0_0_0_1_1,NA,NA,skipped,NA,4041562.7,NA,NA,4041561.13,4041562.9,2023-05-12T11:32:26Z,4041577.814,NULL,Stimmung,kinyongo,d,NA,NA,NA,NA,sdf,NA,0,NA,NA,NA,NA,NA,NA,NA,NA,NA,NA,NA,NA,NA,NA,NA,NA,NA,NA,NA
8d294,task,flow.Sequence,5_0_0_0_1,NA,NA,completion,22931.116,4018615.4,4018613.352,4018630.014,4041561.13,4041563.2,2023-05-12T11:32:26Z,4041577.814,NULL,Stimmung,kinyongo,d,NA,NA,NA,NA,sdf,NA,0,NA,NA,NA,NA,NA,NA,NA,NA,NA,NA,NA,NA,NA,NA,NA,NA,NA,NA,NA
8d294,Deep Question,html.Page,5_0_0_0_2_0_0,NA,NA,form submission,12858.885999996,4041563.4,4041561.13,4041577.814,4054436.7,4054436.9,2023-05-12T11:32:38Z,4054449.903,NULL,Kontrolle,kudhibiti,d,NA,NA,NA,k,NA,NA,0,NA,NA,NA,NA,NA,NA,NA,NA,NA,NA,NA,NA,NA,NA,NA,NA,NA,NA,NA
8d294,"""Richtig""-Screen",canvas.Screen,5_0_0_0_2_0_1,NA,NA,skipped,NA,4054439.3,NA,NA,4054436.7,4054439.4,2023-05-12T11:32:38Z,4054449.903,NULL,Kontrolle,kudhibiti,d,NA,NA,NA,NA,sdf,NA,0,NA,NA,NA,NA,NA,NA,NA,NA,NA,NA,NA,NA,NA,NA,NA,NA,NA,NA,NA
8d294,"""Falsch""-Screen",canvas.Screen,5_0_0_0_2_0_2,NA,NA,timeout,4996.5160000003,4054440.4,4054433.326,4054449.903,4059429.557,4059430.7,2023-05-12T11:32:43Z,4059446.419,NULL,Kontrolle,kudhibiti,d,NA,NA,NA,NA,sdf,0,0,NA,NA,NA,NA,NA,NA,NA,NA,NA,NA,NA,NA,NA,NA,NA,NA,NA,NA,NA
8d294,deep,flow.Sequence,5_0_0_0_2_0,NA,NA,completion,17851.743,4041563.3,4041561.13,4041577.814,4059429.557,4059431.1,2023-05-12T11:32:43Z,4059446.419,NULL,Kontrolle,kudhibiti,d,NA,NA,NA,NA,sdf,NA,0,NA,NA,NA,NA,NA,NA,NA,NA,NA,NA,NA,NA,NA,NA,NA,NA,NA,NA,NA
8d294,shallow,flow.Sequence,5_0_0_0_2_1,NA,NA,skipped,NA,4059431.2,NA,NA,4059429.557,4059431.5,2023-05-12T11:32:43Z,4059446.419,NULL,Kontrolle,kudhibiti,d,NA,NA,NA,NA,sdf,NA,0,NA,NA,NA,NA,NA,NA,NA,NA,NA,NA,NA,NA,NA,NA,NA,NA,NA,NA,NA
8d294,task,flow.Sequence,5_0_0_0_2,NA,NA,completion,17851.743,4041563.2,4041561.13,4041577.814,4059429.557,4059431.7,2023-05-12T11:32:43Z,4059446.419,NULL,Kontrolle,kudhibiti,d,NA,NA,NA,NA,sdf,NA,0,NA,NA,NA,NA,NA,NA,NA,NA,NA,NA,NA,NA,NA,NA,NA,NA,NA,NA,NA
8d294,Deep Question,html.Page,5_0_0_0_3_0_0,NA,NA,form submission,2475.7809999953,4059431.9,4059429.557,4059446.419,4061922.2,4061922.4,2023-05-12T11:32:46Z,4061927.092,NULL,Betrüger,mdanganyifu,d,NA,NA,NA,a,NA,NA,0,NA,NA,NA,NA,NA,NA,NA,NA,NA,NA,NA,NA,NA,NA,NA,NA,NA,NA,NA
8d294,"""Richtig""-Screen",canvas.Screen,5_0_0_0_3_0_1,NA,NA,skipped,NA,4061924.9,NA,NA,4061922.2,4061925,2023-05-12T11:32:46Z,4061927.092,NULL,Betrüger,mdanganyifu,d,NA,NA,NA,NA,sdf,NA,0,NA,NA,NA,NA,NA,NA,NA,NA,NA,NA,NA,NA,NA,NA,NA,NA,NA,NA,NA
8d294,"""Falsch""-Screen",canvas.Screen,5_0_0_0_3_0_2,NA,NA,timeout,4995.9929999998,4061926,4061911.038,4061927.092,4066906.922,4066907.8,2023-05-12T11:32:51Z,4066923.085,NULL,Betrüger,mdanganyifu,d,NA,NA,NA,NA,sdf,0,0,NA,NA,NA,NA,NA,NA,NA,NA,NA,NA,NA,NA,NA,NA,NA,NA,NA,NA,NA
8d294,deep,flow.Sequence,5_0_0_0_3_0,NA,NA,completion,7460.5029999996,4059431.9,4059429.557,4059446.419,4066906.922,4066908.2,2023-05-12T11:32:51Z,4066923.085,NULL,Betrüger,mdanganyifu,d,NA,NA,NA,NA,sdf,NA,0,NA,NA,NA,NA,NA,NA,NA,NA,NA,NA,NA,NA,NA,NA,NA,NA,NA,NA,NA
8d294,shallow,flow.Sequence,5_0_0_0_3_1,NA,NA,skipped,NA,4066908.4,NA,NA,4066906.922,4066908.6,2023-05-12T11:32:51Z,4066923.085,NULL,Betrüger,mdanganyifu,d,NA,NA,NA,NA,sdf,NA,0,NA,NA,NA,NA,NA,NA,NA,NA,NA,NA,NA,NA,NA,NA,NA,NA,NA,NA,NA
8d294,task,flow.Sequence,5_0_0_0_3,NA,NA,completion,7460.5029999996,4059431.8,4059429.557,4059446.419,4066906.922,4066908.8,2023-05-12T11:32:51Z,4066923.085,NULL,Betrüger,mdanganyifu,d,NA,NA,NA,NA,sdf,NA,0,NA,NA,NA,NA,NA,NA,NA,NA,NA,NA,NA,NA,NA,NA,NA,NA,NA,NA,NA
8d294,deep,flow.Sequence,5_0_0_0_4_0,NA,NA,skipped,NA,4066908.9,NA,NA,4066906.922,4066909.1,2023-05-12T11:32:51Z,4066923.085,NULL,Kreativität,ubunifu,s,mratibu,mwendelezo,makubaliano,NA,sdf,NA,0,NA,NA,NA,NA,NA,NA,NA,NA,NA,NA,NA,NA,NA,NA,NA,NA,NA,NA,NA
8d294,Shallow Question,html.Page,5_0_0_0_4_1_0,NA,NA,form submission,8249.8149999985,4066909.3,4066906.922,4066923.085,4075172.9,4075173.1,2023-05-12T11:32:59Z,4075182.862,NULL,Kreativität,ubunifu,s,mratibu,mwendelezo,makubaliano,ubunifu,NA,NA,0,NA,NA,NA,NA,NA,NA,NA,NA,NA,NA,NA,NA,NA,NA,NA,NA,NA,NA,NA
8d294,"""Richtig""-Screen",canvas.Screen,5_0_0_0_4_1_1,NA,NA,timeout,4996.0599999996,4075175,4075166.752,4075182.862,4080162.692,4080163.9,2023-05-12T11:33:04Z,4080178.922,NULL,Kreativität,ubunifu,s,mratibu,mwendelezo,makubaliano,NA,sdf,1,0,NA,NA,NA,NA,NA,NA,NA,NA,NA,NA,NA,NA,NA,NA,NA,NA,NA,NA,NA
8d294,"""Falsch""-Screen",canvas.Screen,5_0_0_0_4_1_2,NA,NA,skipped,NA,4080169.9,NA,NA,4080162.692,4080170.2,2023-05-12T11:33:04Z,4080178.922,NULL,Kreativität,ubunifu,s,mratibu,mwendelezo,makubaliano,NA,sdf,NA,0,NA,NA,NA,NA,NA,NA,NA,NA,NA,NA,NA,NA,NA,NA,NA,NA,NA,NA,NA
8d294,shallow,flow.Sequence,5_0_0_0_4_1,NA,NA,completion,13239.607,4066909.2,4066906.922,4066923.085,4080162.692,4080170.6,2023-05-12T11:33:04Z,4080178.922,NULL,Kreativität,ubunifu,s,mratibu,mwendelezo,makubaliano,NA,sdf,NA,0,NA,NA,NA,NA,NA,NA,NA,NA,NA,NA,NA,NA,NA,NA,NA,NA,NA,NA,NA
8d294,task,flow.Sequence,5_0_0_0_4,NA,NA,completion,13239.607,4066908.9,4066906.922,4066923.085,4080162.692,4080170.9,2023-05-12T11:33:04Z,4080178.922,NULL,Kreativität,ubunifu,s,mratibu,mwendelezo,makubaliano,NA,sdf,NA,0,NA,NA,NA,NA,NA,NA,NA,NA,NA,NA,NA,NA,NA,NA,NA,NA,NA,NA,NA
8d294,deep,flow.Sequence,5_0_0_0_5_0,NA,NA,skipped,NA,4080171.1,NA,NA,4080162.692,4080171.2,2023-05-12T11:33:04Z,4080178.922,NULL,Respekt,heshima,s,changamnao,upinzani,ufanisi,NA,sdf,NA,0,NA,NA,NA,NA,NA,NA,NA,NA,NA,NA,NA,NA,NA,NA,NA,NA,NA,NA,NA
8d294,Shallow Question,html.Page,5_0_0_0_5_1_0,NA,NA,form submission,5949.1780000017,4080171.3,4080162.692,4080178.922,4086128.1,4086128.4,2023-05-12T11:33:10Z,4086140.833,NULL,Respekt,heshima,s,changamnao,upinzani,ufanisi,heshima,NA,NA,0,NA,NA,NA,NA,NA,NA,NA,NA,NA,NA,NA,NA,NA,NA,NA,NA,NA,NA,NA
8d294,"""Richtig""-Screen",canvas.Screen,5_0_0_0_5_1_1,NA,NA,timeout,4995.605,4086130.1,4086123.971,4086140.833,4091120.243,4091121.3,2023-05-12T11:33:15Z,4091136.438,NULL,Respekt,heshima,s,changamnao,upinzani,ufanisi,NA,sdf,1,0,NA,NA,NA,NA,NA,NA,NA,NA,NA,NA,NA,NA,NA,NA,NA,NA,NA,NA,NA
8d294,"""Falsch""-Screen",canvas.Screen,5_0_0_0_5_1_2,NA,NA,skipped,NA,4091127.1,NA,NA,4091120.243,4091127.5,2023-05-12T11:33:15Z,4091136.438,NULL,Respekt,heshima,s,changamnao,upinzani,ufanisi,NA,sdf,NA,0,NA,NA,NA,NA,NA,NA,NA,NA,NA,NA,NA,NA,NA,NA,NA,NA,NA,NA,NA
8d294,shallow,flow.Sequence,5_0_0_0_5_1,NA,NA,completion,10941.321,4080171.3,4080162.692,4080178.922,4091120.243,4091127.8,2023-05-12T11:33:15Z,4091136.438,NULL,Respekt,heshima,s,changamnao,upinzani,ufanisi,NA,sdf,NA,0,NA,NA,NA,NA,NA,NA,NA,NA,NA,NA,NA,NA,NA,NA,NA,NA,NA,NA,NA
8d294,task,flow.Sequence,5_0_0_0_5,NA,NA,completion,10941.321,4080171,4080162.692,4080178.922,4091120.243,4091128.1,2023-05-12T11:33:15Z,4091136.438,NULL,Respekt,heshima,s,changamnao,upinzani,ufanisi,NA,sdf,NA,0,NA,NA,NA,NA,NA,NA,NA,NA,NA,NA,NA,NA,NA,NA,NA,NA,NA,NA,NA
8d294,deep,flow.Sequence,5_0_0_0_6_0,NA,NA,skipped,NA,4091128.2,NA,NA,4091120.243,4091128.4,2023-05-12T11:33:15Z,4091136.438,NULL,Können,unaweza,s,kiongozi,bustani,mienendo,NA,sdf,NA,0,NA,NA,NA,NA,NA,NA,NA,NA,NA,NA,NA,NA,NA,NA,NA,NA,NA,NA,NA
8d294,Shallow Question,html.Page,5_0_0_0_6_1_0,NA,NA,form submission,3620.3619999969,4091128.6,4091120.243,4091136.438,4094756.8,4094756.9,2023-05-12T11:33:19Z,4094766.852,NULL,Können,unaweza,s,kiongozi,bustani,mienendo,kiongozi,NA,NA,0,NA,NA,NA,NA,NA,NA,NA,NA,NA,NA,NA,NA,NA,NA,NA,NA,NA,NA,NA
8d294,"""Richtig""-Screen",canvas.Screen,5_0_0_0_6_1_1,NA,NA,skipped,NA,4094758.6,NA,NA,4094756.8,4094758.8,2023-05-12T11:33:19Z,4094766.852,NULL,Können,unaweza,s,kiongozi,bustani,mienendo,NA,sdf,NA,0,NA,NA,NA,NA,NA,NA,NA,NA,NA,NA,NA,NA,NA,NA,NA,NA,NA,NA,NA
8d294,"""Falsch""-Screen",canvas.Screen,5_0_0_0_6_1_2,NA,NA,timeout,4996.213,4094759.3,4094750.673,4094766.852,4099746.47,4099747.6,2023-05-12T11:33:24Z,4099763.065,NULL,Können,unaweza,s,kiongozi,bustani,mienendo,NA,sdf,0,0,NA,NA,NA,NA,NA,NA,NA,NA,NA,NA,NA,NA,NA,NA,NA,NA,NA,NA,NA
8d294,shallow,flow.Sequence,5_0_0_0_6_1,NA,NA,completion,8610.0320000001,4091128.5,4091120.243,4091136.438,4099746.47,4099747.9,2023-05-12T11:33:24Z,4099763.065,NULL,Können,unaweza,s,kiongozi,bustani,mienendo,NA,sdf,NA,0,NA,NA,NA,NA,NA,NA,NA,NA,NA,NA,NA,NA,NA,NA,NA,NA,NA,NA,NA
8d294,task,flow.Sequence,5_0_0_0_6,NA,NA,completion,8610.0320000001,4091128.2,4091120.243,4091136.438,4099746.47,4099748.2,2023-05-12T11:33:24Z,4099763.065,NULL,Können,unaweza,s,kiongozi,bustani,mienendo,NA,sdf,NA,0,NA,NA,NA,NA,NA,NA,NA,NA,NA,NA,NA,NA,NA,NA,NA,NA,NA,NA,NA
8d294,deep,flow.Sequence,5_0_0_0_7_0,NA,NA,skipped,NA,4099748.4,NA,NA,4099746.47,4099748.6,2023-05-12T11:33:24Z,4099763.065,NULL,Orientierung,urekebisho,s,uelekeo,marekebisho,utunzaji,NA,sdf,NA,0,NA,NA,NA,NA,NA,NA,NA,NA,NA,NA,NA,NA,NA,NA,NA,NA,NA,NA,NA
8d294,Shallow Question,html.Page,5_0_0_0_7_1_0,NA,NA,form submission,4938.6349999956,4099748.9,4099746.47,4099763.065,4104701.7,4104701.9,2023-05-12T11:33:29Z,4104708.527,NULL,Orientierung,urekebisho,s,uelekeo,marekebisho,utunzaji,urekebisho,NA,NA,0,NA,NA,NA,NA,NA,NA,NA,NA,NA,NA,NA,NA,NA,NA,NA,NA,NA,NA,NA
8d294,"""Richtig""-Screen",canvas.Screen,5_0_0_0_7_1_1,NA,NA,timeout,4996.0040000002,4104704,4104692.342,4104708.527,4109687.863,4109693.9,2023-05-12T11:33:34Z,4109704.531,NULL,Orientierung,urekebisho,s,uelekeo,marekebisho,utunzaji,NA,sdf,1,0,NA,NA,NA,NA,NA,NA,NA,NA,NA,NA,NA,NA,NA,NA,NA,NA,NA,NA,NA
8d294,"""Falsch""-Screen",canvas.Screen,5_0_0_0_7_1_2,NA,NA,skipped,NA,4109700.9,NA,NA,4109687.863,4109701.4,2023-05-12T11:33:34Z,4109704.531,NULL,Orientierung,urekebisho,s,uelekeo,marekebisho,utunzaji,NA,sdf,NA,0,NA,NA,NA,NA,NA,NA,NA,NA,NA,NA,NA,NA,NA,NA,NA,NA,NA,NA,NA
8d294,shallow,flow.Sequence,5_0_0_0_7_1,NA,NA,completion,9924.798,4099748.7,4099746.47,4099763.065,4109687.863,4109701.8,2023-05-12T11:33:34Z,4109704.531,NULL,Orientierung,urekebisho,s,uelekeo,marekebisho,utunzaji,NA,sdf,NA,0,NA,NA,NA,NA,NA,NA,NA,NA,NA,NA,NA,NA,NA,NA,NA,NA,NA,NA,NA
8d294,task,flow.Sequence,5_0_0_0_7,NA,NA,completion,9924.798,4099748.3,4099746.47,4099763.065,4109687.863,4109702.3,2023-05-12T11:33:34Z,4109704.531,NULL,Orientierung,urekebisho,s,uelekeo,marekebisho,utunzaji,NA,sdf,NA,0,NA,NA,NA,NA,NA,NA,NA,NA,NA,NA,NA,NA,NA,NA,NA,NA,NA,NA,NA
