observation;sender;sender_type;sender_id;response;response_action;ended_on;duration;time_run;time_render;time_show;time_end;time_commit;timestamp;time_switch;distractors;german;swahili;enc;distractor1;distractor2;distractor3;response_2;x;correct;x_2;url_vp;url_sess;meta_labjs_version;meta_location;meta_user_agent;meta_platform;meta_language;meta_locale;meta_time_zone;meta_timezone_offset;meta_screen_width;meta_screen_height;meta_scroll_width;meta_scroll_height;meta_window_inner_width;meta_window_inner_height;meta_device_pixel_ratio;meta_labjs_build_flavor;meta_labjs_build_commit;;;;
e8f56;Introduction;general;canvas.Screen;0;weiter;keypress(q);response;249311;296;298.16;319;249630;249645;2023-06-19T19:05:51Z;249647.12;NULL;NA;NA;NA;NA;NA;NA;NA;NA;NA;NA;171;3;20.02.2004;https://neurocog.fernuni.ch/studies/vweber/sliechti/encoding_immediate/index.html?vp=171&sess=3;Mozilla/5.0;(Windows;NT;10;;;;;;;;;;;;;;
e8f56;Introduction;practice;canvas.Screen;1_0;NA;keypress(Space);response;19389.88;249646;249646.7;249647.12;269037;269041;2023-06-19T19:06:11Z;269041.88;NULL;NA;NA;NA;NA;NA;NA;NA;NA;NA;NA;NA;NA;NA;NA;NA;NA;NA;NA;NA;NA;NA;NA;NA;NA;NA;NA;NA;NA;NA;;;
e8f56;Deep;Question;html.Page;1_1_0_0_0;NA;NA;form;submission;8759.12;269042;269041.62;269041.88;277801;277802;2023-06-19T19:06:19Z;277807.9;"c(""distractor1"", ""distractor2"", ""distractor3"")";Qualität;mtindo;d;NA;NA;NA;k;NA;NA;NA;NA;NA;NA;NA;NA;NA;NA;NA;NA;NA;NA;NA;NA;NA;NA;NA;NA;NA;NA;;
e8f56;"""Richtig""-Screen";canvas.Screen;1_1_0_0_1;NA;NA;skipped;NA;277808;NA;NA;277801;277809;2023-06-19T19:06:19Z;277807.9;"c(""distractor1"", ""distractor2"", ""distractor3"")";Qualität;mtindo;d;NA;NA;NA;NA;NA;NA;NA;NA;NA;NA;NA;NA;NA;NA;NA;NA;NA;NA;NA;NA;NA;NA;NA;NA;NA;NA;;;;
e8f56;"""Falsch""-Screen";canvas.Screen;1_1_0_0_2;NA;NA;timeout;5000.1;277811;277779.46;277807.9;282787.2;282789;2023-06-19T19:06:24Z;282808;"c(""distractor1"", ""distractor2"", ""distractor3"")";Qualität;mtindo;d;NA;NA;NA;NA;NA;0;NA;NA;NA;NA;NA;NA;NA;NA;NA;NA;NA;NA;NA;NA;NA;NA;NA;NA;NA;NA;;;;
e8f56;deep;flow.Sequence;1_1_0_0;NA;NA;completion;13745.32;269042;269041.62;269041.88;282787.2;282790;2023-06-19T19:06:24Z;282808;"c(""distractor1"", ""distractor2"", ""distractor3"")";Qualität;mtindo;d;NA;NA;NA;NA;NA;NA;NA;NA;NA;NA;NA;NA;NA;NA;NA;NA;NA;NA;NA;NA;NA;NA;NA;NA;NA;NA;;;;
e8f56;shallow;flow.Sequence;1_1_0_1;NA;NA;skipped;NA;282791;NA;NA;282787.2;282791;2023-06-19T19:06:24Z;282808;"c(""distractor1"", ""distractor2"", ""distractor3"")";Qualität;mtindo;d;NA;NA;NA;NA;NA;NA;NA;NA;NA;NA;NA;NA;NA;NA;NA;NA;NA;NA;NA;NA;NA;NA;NA;NA;NA;NA;;;;
e8f56;task;flow.Sequence;1_1_0;NA;NA;completion;13745.32;269042;269041.62;269041.88;282787.2;282792;2023-06-19T19:06:24Z;282808;"c(""distractor1"", ""distractor2"", ""distractor3"")";Qualität;mtindo;d;NA;NA;NA;NA;NA;NA;NA;NA;NA;NA;NA;NA;NA;NA;NA;NA;NA;NA;NA;NA;NA;NA;NA;NA;NA;NA;;;;
e8f56;Deep;Question;html.Page;1_1_1_0_0;NA;NA;form;submission;6553;282793;282787.2;282808;289361;289362;2023-06-19T19:06:31Z;289370.36;"c(""distractor1"", ""distractor2"", ""distractor3"")";Schatten;kivuli;d;NA;NA;NA;s;NA;NA;NA;NA;NA;NA;NA;NA;NA;NA;NA;NA;NA;NA;NA;NA;NA;NA;NA;NA;NA;NA;;
e8f56;"""Richtig""-Screen";canvas.Screen;1_1_1_0_1;NA;NA;skipped;NA;289366;NA;NA;289361;289367;2023-06-19T19:06:31Z;289370.36;"c(""distractor1"", ""distractor2"", ""distractor3"")";Schatten;kivuli;d;NA;NA;NA;NA;NA;NA;NA;NA;NA;NA;NA;NA;NA;NA;NA;NA;NA;NA;NA;NA;NA;NA;NA;NA;NA;NA;;;;
e8f56;"""Falsch""-Screen";canvas.Screen;1_1_1_0_2;NA;NA;timeout;5000.14;289370;289356.72;289370.36;294350.06;294352;2023-06-19T19:06:36Z;294370.5;"c(""distractor1"", ""distractor2"", ""distractor3"")";Schatten;kivuli;d;NA;NA;NA;NA;NA;0;NA;NA;NA;NA;NA;NA;NA;NA;NA;NA;NA;NA;NA;NA;NA;NA;NA;NA;NA;NA;;;;
e8f56;deep;flow.Sequence;1_1_1_0;NA;NA;completion;11542.06;282793;282787.2;282808;294350.06;294354;2023-06-19T19:06:36Z;294370.5;"c(""distractor1"", ""distractor2"", ""distractor3"")";Schatten;kivuli;d;NA;NA;NA;NA;NA;NA;NA;NA;NA;NA;NA;NA;NA;NA;NA;NA;NA;NA;NA;NA;NA;NA;NA;NA;NA;NA;;;;
e8f56;shallow;flow.Sequence;1_1_1_1;NA;NA;skipped;NA;294354;NA;NA;294350.06;294354;2023-06-19T19:06:36Z;294370.5;"c(""distractor1"", ""distractor2"", ""distractor3"")";Schatten;kivuli;d;NA;NA;NA;NA;NA;NA;NA;NA;NA;NA;NA;NA;NA;NA;NA;NA;NA;NA;NA;NA;NA;NA;NA;NA;NA;NA;;;;
e8f56;task;flow.Sequence;1_1_1;NA;NA;completion;11542.06;282792;282787.2;282808;294350.06;294355;2023-06-19T19:06:36Z;294370.5;"c(""distractor1"", ""distractor2"", ""distractor3"")";Schatten;kivuli;d;NA;NA;NA;NA;NA;NA;NA;NA;NA;NA;NA;NA;NA;NA;NA;NA;NA;NA;NA;NA;NA;NA;NA;NA;NA;NA;;;;
e8f56;Deep;Question;html.Page;1_1_2_0_0;NA;NA;form;submission;8479.5;294356;294350.06;294370.5;302850;302850;2023-06-19T19:06:44Z;302849.62;"c(""distractor1"", ""distractor2"", ""distractor3"")";Gesundheit;salama;d;NA;NA;NA;s;NA;NA;NA;NA;NA;NA;NA;NA;NA;NA;NA;NA;NA;NA;NA;NA;NA;NA;NA;NA;NA;NA;;
e8f56;"""Richtig""-Screen";canvas.Screen;1_1_2_0_1;NA;NA;skipped;NA;302854;NA;NA;302850;302854;2023-06-19T19:06:44Z;302849.62;"c(""distractor1"", ""distractor2"", ""distractor3"")";Gesundheit;salama;d;NA;NA;NA;NA;NA;NA;NA;NA;NA;NA;NA;NA;NA;NA;NA;NA;NA;NA;NA;NA;NA;NA;NA;NA;NA;NA;;;;
e8f56;"""Falsch""-Screen";canvas.Screen;1_1_2_0_2;NA;NA;timeout;5000.14;302857;302846.34;302849.62;307829;307830;2023-06-19T19:06:49Z;307849.76;"c(""distractor1"", ""distractor2"", ""distractor3"")";Gesundheit;salama;d;NA;NA;NA;NA;NA;0;NA;NA;NA;NA;NA;NA;NA;NA;NA;NA;NA;NA;NA;NA;NA;NA;NA;NA;NA;NA;;;;
e8f56;deep;flow.Sequence;1_1_2_0;NA;NA;completion;13458.5;294356;294350.06;294370.5;307829;307831;2023-06-19T19:06:49Z;307849.76;"c(""distractor1"", ""distractor2"", ""distractor3"")";Gesundheit;salama;d;NA;NA;NA;NA;NA;NA;NA;NA;NA;NA;NA;NA;NA;NA;NA;NA;NA;NA;NA;NA;NA;NA;NA;NA;NA;NA;;;;
e8f56;shallow;flow.Sequence;1_1_2_1;NA;NA;skipped;NA;307831;NA;NA;307829;307831;2023-06-19T19:06:49Z;307849.76;"c(""distractor1"", ""distractor2"", ""distractor3"")";Gesundheit;salama;d;NA;NA;NA;NA;NA;NA;NA;NA;NA;NA;NA;NA;NA;NA;NA;NA;NA;NA;NA;NA;NA;NA;NA;NA;NA;NA;;;;
e8f56;task;flow.Sequence;1_1_2;NA;NA;completion;13458.5;294356;294350.06;294370.5;307829;307832;2023-06-19T19:06:49Z;307849.76;"c(""distractor1"", ""distractor2"", ""distractor3"")";Gesundheit;salama;d;NA;NA;NA;NA;NA;NA;NA;NA;NA;NA;NA;NA;NA;NA;NA;NA;NA;NA;NA;NA;NA;NA;NA;NA;NA;NA;;;;
e8f56;deep;flow.Sequence;1_1_3_0;NA;NA;skipped;NA;307832;NA;NA;307829;307832;2023-06-19T19:06:49Z;307849.76;"c(""distractor1"", ""distractor2"", ""distractor3"")";Gegenwart;hadhara;s;katiba;jokofu;mikopo;NA;NA;NA;NA;NA;NA;NA;NA;NA;NA;NA;NA;NA;NA;NA;NA;NA;NA;NA;NA;NA;NA;NA;;;;
e8f56;Shallow;Question;html.Page;1_1_3_1_0;NA;NA;form;submission;14578.24;307833;307829;307849.76;322428;322429;2023-06-19T19:07:04Z;322432.96;"c(""distractor1"", ""distractor2"", ""distractor3"")";Gegenwart;hadhara;s;katiba;jokofu;mikopo;jokofu;NA;NA;NA;NA;NA;NA;NA;NA;NA;NA;NA;NA;NA;NA;NA;NA;NA;NA;NA;NA;NA;NA;;
e8f56;"""Richtig""-Screen";canvas.Screen;1_1_3_1_1;NA;NA;skipped;NA;322435;NA;NA;322428;322435;2023-06-19T19:07:04Z;322432.96;"c(""distractor1"", ""distractor2"", ""distractor3"")";Gegenwart;hadhara;s;katiba;jokofu;mikopo;NA;NA;NA;NA;NA;NA;NA;NA;NA;NA;NA;NA;NA;NA;NA;NA;NA;NA;NA;NA;NA;NA;NA;;;;
e8f56;"""Falsch""-Screen";canvas.Screen;1_1_3_1_2;NA;NA;timeout;5000.12;322441;322421.68;322432.96;327412.76;327414;2023-06-19T19:07:09Z;327433.08;"c(""distractor1"", ""distractor2"", ""distractor3"")";Gegenwart;hadhara;s;katiba;jokofu;mikopo;NA;NA;0;NA;NA;NA;NA;NA;NA;NA;NA;NA;NA;NA;NA;NA;NA;NA;NA;NA;NA;NA;NA;;;;
e8f56;shallow;flow.Sequence;1_1_3_1;NA;NA;completion;19563;307832;307829;307849.76;327412.76;327414;2023-06-19T19:07:09Z;327433.08;"c(""distractor1"", ""distractor2"", ""distractor3"")";Gegenwart;hadhara;s;katiba;jokofu;mikopo;NA;NA;NA;NA;NA;NA;NA;NA;NA;NA;NA;NA;NA;NA;NA;NA;NA;NA;NA;NA;NA;NA;NA;;;;
e8f56;task;flow.Sequence;1_1_3;NA;NA;completion;19563;307832;307829;307849.76;327412.76;327415;2023-06-19T19:07:09Z;327433.08;"c(""distractor1"", ""distractor2"", ""distractor3"")";Gegenwart;hadhara;s;katiba;jokofu;mikopo;NA;NA;NA;NA;NA;NA;NA;NA;NA;NA;NA;NA;NA;NA;NA;NA;NA;NA;NA;NA;NA;NA;NA;;;;
e8f56;deep;flow.Sequence;1_1_4_0;NA;NA;skipped;NA;327415;NA;NA;327412.76;327416;2023-06-19T19:07:09Z;327433.08;"c(""distractor1"", ""distractor2"", ""distractor3"")";Kritik;lawama;s;dereva;nafasi;mawazo;NA;NA;NA;NA;NA;NA;NA;NA;NA;NA;NA;NA;NA;NA;NA;NA;NA;NA;NA;NA;NA;NA;NA;;;;
e8f56;Shallow;Question;html.Page;1_1_4_1_0;NA;NA;form;submission;5385.92;327416;327412.76;327433.08;332819;332819;2023-06-19T19:07:14Z;332828.82;"c(""distractor1"", ""distractor2"", ""distractor3"")";Kritik;lawama;s;dereva;nafasi;mawazo;lawama;NA;NA;NA;NA;NA;NA;NA;NA;NA;NA;NA;NA;NA;NA;NA;NA;NA;NA;NA;NA;NA;NA;;
e8f56;"""Richtig""-Screen";canvas.Screen;1_1_4_1_1;NA;NA;timeout;5000.1;332821;332817.48;332828.82;337808.54;337810;2023-06-19T19:07:19Z;337828.92;"c(""distractor1"", ""distractor2"", ""distractor3"")";Kritik;lawama;s;dereva;nafasi;mawazo;NA;NA;1;NA;NA;NA;NA;NA;NA;NA;NA;NA;NA;NA;NA;NA;NA;NA;NA;NA;NA;NA;NA;;;;
e8f56;"""Falsch""-Screen";canvas.Screen;1_1_4_1_2;NA;NA;skipped;NA;337818;NA;NA;337808.54;337819;2023-06-19T19:07:19Z;337828.92;"c(""distractor1"", ""distractor2"", ""distractor3"")";Kritik;lawama;s;dereva;nafasi;mawazo;NA;NA;NA;NA;NA;NA;NA;NA;NA;NA;NA;NA;NA;NA;NA;NA;NA;NA;NA;NA;NA;NA;NA;;;;
e8f56;shallow;flow.Sequence;1_1_4_1;NA;NA;completion;10375.46;327416;327412.76;327433.08;337808.54;337819;2023-06-19T19:07:19Z;337828.92;"c(""distractor1"", ""distractor2"", ""distractor3"")";Kritik;lawama;s;dereva;nafasi;mawazo;NA;NA;NA;NA;NA;NA;NA;NA;NA;NA;NA;NA;NA;NA;NA;NA;NA;NA;NA;NA;NA;NA;NA;;;;
e8f56;task;flow.Sequence;1_1_4;NA;NA;completion;10375.46;327415;327412.76;327433.08;337808.54;337820;2023-06-19T19:07:19Z;337828.92;"c(""distractor1"", ""distractor2"", ""distractor3"")";Kritik;lawama;s;dereva;nafasi;mawazo;NA;NA;NA;NA;NA;NA;NA;NA;NA;NA;NA;NA;NA;NA;NA;NA;NA;NA;NA;NA;NA;NA;NA;;;;
e8f56;deep;flow.Sequence;1_1_5_0;NA;NA;skipped;NA;337820;NA;NA;337808.54;337820;2023-06-19T19:07:19Z;337828.92;"c(""distractor1"", ""distractor2"", ""distractor3"")";Rückhalt;msaada;s;muhula;auwali;kiwimbe;NA;NA;NA;NA;NA;NA;NA;NA;NA;NA;NA;NA;NA;NA;NA;NA;NA;NA;NA;NA;NA;NA;NA;;;;
e8f56;Shallow;Question;html.Page;1_1_5_1_0;NA;NA;form;submission;4616.08;337821;337808.54;337828.92;342445;342446;2023-06-19T19:07:24Z;342453.82;"c(""distractor1"", ""distractor2"", ""distractor3"")";Rückhalt;msaada;s;muhula;auwali;kiwimbe;kiwimbe;NA;NA;NA;NA;NA;NA;NA;NA;NA;NA;NA;NA;NA;NA;NA;NA;NA;NA;NA;NA;NA;NA;;
e8f56;"""Richtig""-Screen";canvas.Screen;1_1_5_1_1;NA;NA;skipped;NA;342449;NA;NA;342445;342449;2023-06-19T19:07:24Z;342453.82;"c(""distractor1"", ""distractor2"", ""distractor3"")";Rückhalt;msaada;s;muhula;auwali;kiwimbe;NA;NA;NA;NA;NA;NA;NA;NA;NA;NA;NA;NA;NA;NA;NA;NA;NA;NA;NA;NA;NA;NA;NA;;;;
e8f56;"""Falsch""-Screen";canvas.Screen;1_1_5_1_2;NA;NA;timeout;5000.14;342452;342442.22;342453.82;347433.6;347434;2023-06-19T19:07:29Z;347453.96;"c(""distractor1"", ""distractor2"", ""distractor3"")";Rückhalt;msaada;s;muhula;auwali;kiwimbe;NA;NA;0;NA;NA;NA;NA;NA;NA;NA;NA;NA;NA;NA;NA;NA;NA;NA;NA;NA;NA;NA;NA;;;;
e8f56;shallow;flow.Sequence;1_1_5_1;NA;NA;completion;9604.68;337820;337808.54;337828.92;347433.6;347435;2023-06-19T19:07:29Z;347453.96;"c(""distractor1"", ""distractor2"", ""distractor3"")";Rückhalt;msaada;s;muhula;auwali;kiwimbe;NA;NA;NA;NA;NA;NA;NA;NA;NA;NA;NA;NA;NA;NA;NA;NA;NA;NA;NA;NA;NA;NA;NA;;;;
e8f56;task;flow.Sequence;1_1_5;NA;NA;completion;9604.68;337820;337808.54;337828.92;347433.6;347435;2023-06-19T19:07:29Z;347453.96;"c(""distractor1"", ""distractor2"", ""distractor3"")";Rückhalt;msaada;s;muhula;auwali;kiwimbe;NA;NA;NA;NA;NA;NA;NA;NA;NA;NA;NA;NA;NA;NA;NA;NA;NA;NA;NA;NA;NA;NA;NA;;;;
e8f56;block;flow.Loop;1_1;NA;NA;completion;78391.72;269042;269041.62;269041.88;347433.6;347436;2023-06-19T19:07:29Z;347453.96;"c(""distractor1"", ""distractor2"", ""distractor3"")";NA;NA;NA;NA;NA;NA;NA;NA;NA;NA;NA;NA;NA;NA;NA;NA;NA;NA;NA;NA;NA;NA;NA;NA;NA;NA;NA;NA;NA;;;;
e8f56;Practice;flow.Sequence;1;NA;NA;completion;97786.48;249646;249646.7;249647.12;347433.6;347436;2023-06-19T19:07:29Z;347453.96;NULL;NA;NA;NA;NA;NA;NA;NA;NA;NA;NA;NA;NA;NA;NA;NA;NA;NA;NA;NA;NA;NA;NA;NA;NA;NA;NA;NA;NA;NA;;;;
e8f56;Experiment;start;canvas.Screen;2;weiter;keypress(q);response;10055.04;347436;347433.6;347453.96;357509;357533;2023-06-19T19:07:39Z;357642.14;NULL;NA;NA;NA;NA;NA;NA;NA;NA;NA;NA;NA;NA;NA;NA;NA;NA;NA;NA;NA;NA;NA;NA;NA;NA;NA;NA;NA;NA;NA;;;
e8f56;Deep;Question;html.Page;3_0_0_0_0_0_0;NA;NA;form;submission;5065.86;357642;357641.66;357642.14;362708;362708;2023-06-19T19:07:44Z;362703.96;NULL;Konkurrent;mshindani;d;NA;NA;NA;s;NA;NA;0;NA;NA;NA;NA;NA;NA;NA;NA;NA;NA;NA;NA;NA;NA;NA;NA;NA;NA;NA;;
e8f56;"""Richtig""-Screen";canvas.Screen;3_0_0_0_0_0_1;NA;NA;skipped;NA;362713;NA;NA;362708;362714;2023-06-19T19:07:44Z;362703.96;NULL;Konkurrent;mshindani;d;NA;NA;NA;NA;sdf;NA;0;NA;NA;NA;NA;NA;NA;NA;NA;NA;NA;NA;NA;NA;NA;NA;NA;NA;NA;NA;;;;
e8f56;"""Falsch""-Screen";canvas.Screen;3_0_0_0_0_0_2;NA;NA;timeout;5000.14;362717;362703.54;362703.96;367683.26;367685;2023-06-19T19:07:49Z;367704.1;NULL;Konkurrent;mshindani;d;NA;NA;NA;NA;sdf;0;0;NA;NA;NA;NA;NA;NA;NA;NA;NA;NA;NA;NA;NA;NA;NA;NA;NA;NA;NA;;;;
e8f56;deep;flow.Sequence;3_0_0_0_0_0;NA;NA;completion;10041.12;357642;357641.66;357642.14;367683.26;367686;2023-06-19T19:07:49Z;367704.1;NULL;Konkurrent;mshindani;d;NA;NA;NA;NA;sdf;NA;0;NA;NA;NA;NA;NA;NA;NA;NA;NA;NA;NA;NA;NA;NA;NA;NA;NA;NA;NA;;;;
e8f56;shallow;flow.Sequence;3_0_0_0_0_1;NA;NA;skipped;NA;367686;NA;NA;367683.26;367686;2023-06-19T19:07:49Z;367704.1;NULL;Konkurrent;mshindani;d;NA;NA;NA;NA;sdf;NA;0;NA;NA;NA;NA;NA;NA;NA;NA;NA;NA;NA;NA;NA;NA;NA;NA;NA;NA;NA;;;;
e8f56;task;flow.Sequence;3_0_0_0_0;NA;NA;completion;10041.12;357642;357641.66;357642.14;367683.26;367687;2023-06-19T19:07:49Z;367704.1;NULL;Konkurrent;mshindani;d;NA;NA;NA;NA;sdf;NA;0;NA;NA;NA;NA;NA;NA;NA;NA;NA;NA;NA;NA;NA;NA;NA;NA;NA;NA;NA;;;;
e8f56;Deep;Question;html.Page;3_0_0_0_1_0_0;NA;NA;form;submission;4284.9;367688;367683.26;367704.1;371989;371989;2023-06-19T19:07:53Z;371995.64;NULL;Vorsorge;tahadhari;d;NA;NA;NA;s;NA;NA;0;NA;NA;NA;NA;NA;NA;NA;NA;NA;NA;NA;NA;NA;NA;NA;NA;NA;NA;NA;;
e8f56;"""Richtig""-Screen";canvas.Screen;3_0_0_0_1_0_1;NA;NA;skipped;NA;371991;NA;NA;371989;371991;2023-06-19T19:07:53Z;371995.64;NULL;Vorsorge;tahadhari;d;NA;NA;NA;NA;sdf;NA;0;NA;NA;NA;NA;NA;NA;NA;NA;NA;NA;NA;NA;NA;NA;NA;NA;NA;NA;NA;;;;
e8f56;"""Falsch""-Screen";canvas.Screen;3_0_0_0_1_0_2;NA;NA;timeout;5000.06;371994;371980.82;371995.64;376975;376976;2023-06-19T19:07:58Z;376995.7;NULL;Vorsorge;tahadhari;d;NA;NA;NA;NA;sdf;0;0;NA;NA;NA;NA;NA;NA;NA;NA;NA;NA;NA;NA;NA;NA;NA;NA;NA;NA;NA;;;;
e8f56;deep;flow.Sequence;3_0_0_0_1_0;NA;NA;completion;9270.9;367688;367683.26;367704.1;376975;376978;2023-06-19T19:07:58Z;376995.7;NULL;Vorsorge;tahadhari;d;NA;NA;NA;NA;sdf;NA;0;NA;NA;NA;NA;NA;NA;NA;NA;NA;NA;NA;NA;NA;NA;NA;NA;NA;NA;NA;;;;
e8f56;shallow;flow.Sequence;3_0_0_0_1_1;NA;NA;skipped;NA;376978;NA;NA;376975;376979;2023-06-19T19:07:58Z;376995.7;NULL;Vorsorge;tahadhari;d;NA;NA;NA;NA;sdf;NA;0;NA;NA;NA;NA;NA;NA;NA;NA;NA;NA;NA;NA;NA;NA;NA;NA;NA;NA;NA;;;;
e8f56;task;flow.Sequence;3_0_0_0_1;NA;NA;completion;9270.9;367687;367683.26;367704.1;376975;376980;2023-06-19T19:07:58Z;376995.7;NULL;Vorsorge;tahadhari;d;NA;NA;NA;NA;sdf;NA;0;NA;NA;NA;NA;NA;NA;NA;NA;NA;NA;NA;NA;NA;NA;NA;NA;NA;NA;NA;;;;
e8f56;deep;flow.Sequence;3_0_0_0_2_0;NA;NA;skipped;NA;376981;NA;NA;376975;376981;2023-06-19T19:07:58Z;376995.7;NULL;Fenster;dirisha;s;walakini;tasawari;maarifa;NA;sdf;NA;0;NA;NA;NA;NA;NA;NA;NA;NA;NA;NA;NA;NA;NA;NA;NA;NA;NA;NA;NA;;;;
e8f56;Shallow;Question;html.Page;3_0_0_0_2_1_0;NA;NA;form;submission;6859.3;376982;376975;376995.7;383855;383856;2023-06-19T19:08:05Z;383849.86;NULL;Fenster;dirisha;s;walakini;tasawari;maarifa;maarifa;NA;NA;0;NA;NA;NA;NA;NA;NA;NA;NA;NA;NA;NA;NA;NA;NA;NA;NA;NA;NA;NA;;
e8f56;"""Richtig""-Screen";canvas.Screen;3_0_0_0_2_1_1;NA;NA;skipped;NA;383860;NA;NA;383855;383860;2023-06-19T19:08:05Z;383849.86;NULL;Fenster;dirisha;s;walakini;tasawari;maarifa;NA;sdf;NA;0;NA;NA;NA;NA;NA;NA;NA;NA;NA;NA;NA;NA;NA;NA;NA;NA;NA;NA;NA;;;;
e8f56;"""Falsch""-Screen";canvas.Screen;3_0_0_0_2_1_2;NA;NA;timeout;5000.12;383863;383848.92;383849.86;388829.46;388831;2023-06-19T19:08:10Z;388849.98;NULL;Fenster;dirisha;s;walakini;tasawari;maarifa;NA;sdf;0;0;NA;NA;NA;NA;NA;NA;NA;NA;NA;NA;NA;NA;NA;NA;NA;NA;NA;NA;NA;;;;
e8f56;shallow;flow.Sequence;3_0_0_0_2_1;NA;NA;completion;11833.76;376982;376975;376995.7;388829.46;388831;2023-06-19T19:08:10Z;388849.98;NULL;Fenster;dirisha;s;walakini;tasawari;maarifa;NA;sdf;NA;0;NA;NA;NA;NA;NA;NA;NA;NA;NA;NA;NA;NA;NA;NA;NA;NA;NA;NA;NA;;;;
e8f56;task;flow.Sequence;3_0_0_0_2;NA;NA;completion;11833.76;376981;376975;376995.7;388829.46;388831;2023-06-19T19:08:10Z;388849.98;NULL;Fenster;dirisha;s;walakini;tasawari;maarifa;NA;sdf;NA;0;NA;NA;NA;NA;NA;NA;NA;NA;NA;NA;NA;NA;NA;NA;NA;NA;NA;NA;NA;;;;
e8f56;deep;flow.Sequence;3_0_0_0_3_0;NA;NA;skipped;NA;388832;NA;NA;388829.46;388832;2023-06-19T19:08:10Z;388849.98;NULL;Zuwachs;nyongeza;s;matilaba;udhibiti;hudhurio;NA;sdf;NA;0;NA;NA;NA;NA;NA;NA;NA;NA;NA;NA;NA;NA;NA;NA;NA;NA;NA;NA;NA;;;;
e8f56;Shallow;Question;html.Page;3_0_0_0_3_1_0;NA;NA;form;submission;4344.02;388832;388829.46;388849.98;393194;393195;2023-06-19T19:08:15Z;393204.1;NULL;Zuwachs;nyongeza;s;matilaba;udhibiti;hudhurio;udhibiti;NA;NA;0;NA;NA;NA;NA;NA;NA;NA;NA;NA;NA;NA;NA;NA;NA;NA;NA;NA;NA;NA;;
e8f56;"""Richtig""-Screen";canvas.Screen;3_0_0_0_3_1_1;NA;NA;skipped;NA;393199;NA;NA;393194;393199;2023-06-19T19:08:15Z;393204.1;NULL;Zuwachs;nyongeza;s;matilaba;udhibiti;hudhurio;NA;sdf;NA;0;NA;NA;NA;NA;NA;NA;NA;NA;NA;NA;NA;NA;NA;NA;NA;NA;NA;NA;NA;;;;
e8f56;"""Falsch""-Screen";canvas.Screen;3_0_0_0_3_1_2;NA;NA;timeout;5000.04;393202;393188.08;393204.1;398183.42;398185;2023-06-19T19:08:20Z;398204.14;NULL;Zuwachs;nyongeza;s;matilaba;udhibiti;hudhurio;NA;sdf;0;0;NA;NA;NA;NA;NA;NA;NA;NA;NA;NA;NA;NA;NA;NA;NA;NA;NA;NA;NA;;;;
e8f56;shallow;flow.Sequence;3_0_0_0_3_1;NA;NA;completion;9333.44;388832;388829.46;388849.98;398183.42;398186;2023-06-19T19:08:20Z;398204.14;NULL;Zuwachs;nyongeza;s;matilaba;udhibiti;hudhurio;NA;sdf;NA;0;NA;NA;NA;NA;NA;NA;NA;NA;NA;NA;NA;NA;NA;NA;NA;NA;NA;NA;NA;;;;
e8f56;task;flow.Sequence;3_0_0_0_3;NA;NA;completion;9333.44;388832;388829.46;388849.98;398183.42;398187;2023-06-19T19:08:20Z;398204.14;NULL;Zuwachs;nyongeza;s;matilaba;udhibiti;hudhurio;NA;sdf;NA;0;NA;NA;NA;NA;NA;NA;NA;NA;NA;NA;NA;NA;NA;NA;NA;NA;NA;NA;NA;;;;
e8f56;deep;flow.Sequence;3_0_0_0_4_0;NA;NA;skipped;NA;398188;NA;NA;398183.42;398188;2023-06-19T19:08:20Z;398204.14;NULL;Symbol;kielezo;s;kinyume;nderemo;utayari;NA;sdf;NA;0;NA;NA;NA;NA;NA;NA;NA;NA;NA;NA;NA;NA;NA;NA;NA;NA;NA;NA;NA;;;;
e8f56;Shallow;Question;html.Page;3_0_0_0_4_1_0;NA;NA;form;submission;5204.86;398188;398183.42;398204.14;403409;403410;2023-06-19T19:08:25Z;403412.46;NULL;Symbol;kielezo;s;kinyume;nderemo;utayari;utayari;NA;NA;0;NA;NA;NA;NA;NA;NA;NA;NA;NA;NA;NA;NA;NA;NA;NA;NA;NA;NA;NA;;
e8f56;"""Richtig""-Screen";canvas.Screen;3_0_0_0_4_1_1;NA;NA;skipped;NA;403414;NA;NA;403409;403414;2023-06-19T19:08:25Z;403412.46;NULL;Symbol;kielezo;s;kinyume;nderemo;utayari;NA;sdf;NA;0;NA;NA;NA;NA;NA;NA;NA;NA;NA;NA;NA;NA;NA;NA;NA;NA;NA;NA;NA;;;;
e8f56;"""Falsch""-Screen";canvas.Screen;3_0_0_0_4_1_2;NA;NA;timeout;5000.1;403418;403402.94;403412.46;408391.66;408397;2023-06-19T19:08:30Z;408412.56;NULL;Symbol;kielezo;s;kinyume;nderemo;utayari;NA;sdf;0;0;NA;NA;NA;NA;NA;NA;NA;NA;NA;NA;NA;NA;NA;NA;NA;NA;NA;NA;NA;;;;
e8f56;shallow;flow.Sequence;3_0_0_0_4_1;NA;NA;completion;10187.52;398188;398183.42;398204.14;408391.66;408399;2023-06-19T19:08:30Z;408412.56;NULL;Symbol;kielezo;s;kinyume;nderemo;utayari;NA;sdf;NA;0;NA;NA;NA;NA;NA;NA;NA;NA;NA;NA;NA;NA;NA;NA;NA;NA;NA;NA;NA;;;;
e8f56;task;flow.Sequence;3_0_0_0_4;NA;NA;completion;10187.52;398187;398183.42;398204.14;408391.66;408399;2023-06-19T19:08:30Z;408412.56;NULL;Symbol;kielezo;s;kinyume;nderemo;utayari;NA;sdf;NA;0;NA;NA;NA;NA;NA;NA;NA;NA;NA;NA;NA;NA;NA;NA;NA;NA;NA;NA;NA;;;;
e8f56;deep;flow.Sequence;3_0_0_0_5_0;NA;NA;skipped;NA;408401;NA;NA;408391.66;408401;2023-06-19T19:08:30Z;408412.56;NULL;Spionage;upelelezi;s;maslahi;utokazo;magangao;NA;sdf;NA;0;NA;NA;NA;NA;NA;NA;NA;NA;NA;NA;NA;NA;NA;NA;NA;NA;NA;NA;NA;;;;
e8f56;Shallow;Question;html.Page;3_0_0_0_5_1_0;NA;NA;form;submission;3972.44;408401;408391.66;408412.56;412385;412385;2023-06-19T19:08:34Z;412391.66;NULL;Spionage;upelelezi;s;maslahi;utokazo;magangao;maslahi;NA;NA;0;NA;NA;NA;NA;NA;NA;NA;NA;NA;NA;NA;NA;NA;NA;NA;NA;NA;NA;NA;;
e8f56;"""Richtig""-Screen";canvas.Screen;3_0_0_0_5_1_1;NA;NA;skipped;NA;412399;NA;NA;412385;412399;2023-06-19T19:08:34Z;412391.66;NULL;Spionage;upelelezi;s;maslahi;utokazo;magangao;NA;sdf;NA;0;NA;NA;NA;NA;NA;NA;NA;NA;NA;NA;NA;NA;NA;NA;NA;NA;NA;NA;NA;;;;
e8f56;"""Falsch""-Screen";canvas.Screen;3_0_0_0_5_1_2;NA;NA;timeout;4999.88;412401;412378.02;412391.66;417370.92;417372;2023-06-19T19:08:39Z;417391.54;NULL;Spionage;upelelezi;s;maslahi;utokazo;magangao;NA;sdf;0;0;NA;NA;NA;NA;NA;NA;NA;NA;NA;NA;NA;NA;NA;NA;NA;NA;NA;NA;NA;;;;
e8f56;shallow;flow.Sequence;3_0_0_0_5_1;NA;NA;completion;8958.36;408401;408391.66;408412.56;417370.92;417373;2023-06-19T19:08:39Z;417391.54;NULL;Spionage;upelelezi;s;maslahi;utokazo;magangao;NA;sdf;NA;0;NA;NA;NA;NA;NA;NA;NA;NA;NA;NA;NA;NA;NA;NA;NA;NA;NA;NA;NA;;;;
e8f56;task;flow.Sequence;3_0_0_0_5;NA;NA;completion;8958.36;408401;408391.66;408412.56;417370.92;417374;2023-06-19T19:08:39Z;417391.54;NULL;Spionage;upelelezi;s;maslahi;utokazo;magangao;NA;sdf;NA;0;NA;NA;NA;NA;NA;NA;NA;NA;NA;NA;NA;NA;NA;NA;NA;NA;NA;NA;NA;;;;
e8f56;Deep;Question;html.Page;3_0_0_0_6_0_0;NA;NA;form;submission;3498.46;417375;417370.92;417391.54;420890;420891;2023-06-19T19:08:42Z;420891.78;NULL;Tester;wanaojaribu;d;NA;NA;NA;s;NA;NA;0;NA;NA;NA;NA;NA;NA;NA;NA;NA;NA;NA;NA;NA;NA;NA;NA;NA;NA;NA;;
e8f56;"""Richtig""-Screen";canvas.Screen;3_0_0_0_6_0_1;NA;NA;skipped;NA;420895;NA;NA;420890;420895;2023-06-19T19:08:42Z;420891.78;NULL;Tester;wanaojaribu;d;NA;NA;NA;NA;sdf;NA;0;NA;NA;NA;NA;NA;NA;NA;NA;NA;NA;NA;NA;NA;NA;NA;NA;NA;NA;NA;;;;
e8f56;"""Falsch""-Screen";canvas.Screen;3_0_0_0_6_0_2;NA;NA;timeout;5000.12;420899;420883.34;420891.78;425871.14;425872;2023-06-19T19:08:47Z;425891.9;NULL;Tester;wanaojaribu;d;NA;NA;NA;NA;sdf;0;0;NA;NA;NA;NA;NA;NA;NA;NA;NA;NA;NA;NA;NA;NA;NA;NA;NA;NA;NA;;;;
e8f56;deep;flow.Sequence;3_0_0_0_6_0;NA;NA;completion;8479.6;417375;417370.92;417391.54;425871.14;425872;2023-06-19T19:08:47Z;425891.9;NULL;Tester;wanaojaribu;d;NA;NA;NA;NA;sdf;NA;0;NA;NA;NA;NA;NA;NA;NA;NA;NA;NA;NA;NA;NA;NA;NA;NA;NA;NA;NA;;;;
e8f56;shallow;flow.Sequence;3_0_0_0_6_1;NA;NA;skipped;NA;425873;NA;NA;425871.14;425873;2023-06-19T19:08:47Z;425891.9;NULL;Tester;wanaojaribu;d;NA;NA;NA;NA;sdf;NA;0;NA;NA;NA;NA;NA;NA;NA;NA;NA;NA;NA;NA;NA;NA;NA;NA;NA;NA;NA;;;;
e8f56;task;flow.Sequence;3_0_0_0_6;NA;NA;completion;8479.6;417375;417370.92;417391.54;425871.14;425873;2023-06-19T19:08:47Z;425891.9;NULL;Tester;wanaojaribu;d;NA;NA;NA;NA;sdf;NA;0;NA;NA;NA;NA;NA;NA;NA;NA;NA;NA;NA;NA;NA;NA;NA;NA;NA;NA;NA;;;;
e8f56;Deep;Question;html.Page;3_0_0_0_7_0_0;NA;NA;form;submission;2253.1;425873;425871.14;425891.9;428145;428146;2023-06-19T19:08:50Z;428164.18;NULL;Schüler;mwanafunzi;d;NA;NA;NA;s;NA;NA;0;NA;NA;NA;NA;NA;NA;NA;NA;NA;NA;NA;NA;NA;NA;NA;NA;NA;NA;NA;;
e8f56;"""Richtig""-Screen";canvas.Screen;3_0_0_0_7_0_1;NA;NA;skipped;NA;428148;NA;NA;428145;428148;2023-06-19T19:08:50Z;428164.18;NULL;Schüler;mwanafunzi;d;NA;NA;NA;NA;sdf;NA;0;NA;NA;NA;NA;NA;NA;NA;NA;NA;NA;NA;NA;NA;NA;NA;NA;NA;NA;NA;;;;
e8f56;"""Falsch""-Screen";canvas.Screen;3_0_0_0_7_0_2;NA;NA;timeout;4998.4;428150;428141.54;428164.18;433141.88;433143;2023-06-19T19:08:55Z;433162.58;NULL;Schüler;mwanafunzi;d;NA;NA;NA;NA;sdf;0;0;NA;NA;NA;NA;NA;NA;NA;NA;NA;NA;NA;NA;NA;NA;NA;NA;NA;NA;NA;;;;
e8f56;deep;flow.Sequence;3_0_0_0_7_0;NA;NA;completion;7249.98;425873;425871.14;425891.9;433141.88;433144;2023-06-19T19:08:55Z;433162.58;NULL;Schüler;mwanafunzi;d;NA;NA;NA;NA;sdf;NA;0;NA;NA;NA;NA;NA;NA;NA;NA;NA;NA;NA;NA;NA;NA;NA;NA;NA;NA;NA;;;;
e8f56;shallow;flow.Sequence;3_0_0_0_7_1;NA;NA;skipped;NA;433144;NA;NA;433141.88;433145;2023-06-19T19:08:55Z;433162.58;NULL;Schüler;mwanafunzi;d;NA;NA;NA;NA;sdf;NA;0;NA;NA;NA;NA;NA;NA;NA;NA;NA;NA;NA;NA;NA;NA;NA;NA;NA;NA;NA;;;;
e8f56;task;flow.Sequence;3_0_0_0_7;NA;NA;completion;7249.98;425873;425871.14;425891.9;433141.88;433145;2023-06-19T19:08:55Z;433162.58;NULL;Schüler;mwanafunzi;d;NA;NA;NA;NA;sdf;NA;0;NA;NA;NA;NA;NA;NA;NA;NA;NA;NA;NA;NA;NA;NA;NA;NA;NA;NA;NA;;;;
e8f56;block;flow.Loop;3_0_0_0;NA;NA;completion;75499.74;357642;357641.66;357642.14;433141.88;433146;2023-06-19T19:08:55Z;433162.58;NULL;NA;NA;NA;NA;NA;NA;NA;sdf;NA;0;NA;NA;NA;NA;NA;NA;NA;NA;NA;NA;NA;NA;NA;NA;NA;NA;NA;NA;NA;;;;
e8f56;weiter;canvas.Screen;3_0_0_1;sdf;keypress(Space);response;8534.42;433147;433141.88;433162.58;441697;441713;2023-06-19T19:09:03Z;441761.84;NULL;NA;NA;NA;NA;NA;NA;NA;sdf;NA;0;NA;NA;NA;NA;NA;NA;NA;NA;NA;NA;NA;NA;NA;NA;NA;NA;NA;NA;NA;;;;
e8f56;check;continue;flow.Sequence;3_0_0;NA;NA;completion;84054.86;357641;357641.66;357642.14;441697;441714;2023-06-19T19:09:03Z;441761.84;NULL;NA;NA;NA;NA;NA;NA;NA;sdf;NA;0;NA;NA;NA;NA;NA;NA;NA;NA;NA;NA;NA;NA;NA;NA;NA;NA;NA;NA;NA;;;
e8f56;Deep;Question;html.Page;3_0_1_0_0_0_0;NA;NA;form;submission;4546.16;441761;441761.52;441761.84;446308;446309;2023-06-19T19:09:08Z;446308.42;NULL;Vorsorge;tahadhari;d;NA;NA;NA;s;NA;NA;1;NA;NA;NA;NA;NA;NA;NA;NA;NA;NA;NA;NA;NA;NA;NA;NA;NA;NA;NA;;
e8f56;"""Richtig""-Screen";canvas.Screen;3_0_1_0_0_0_1;NA;NA;skipped;NA;446314;NA;NA;446308;446314;2023-06-19T19:09:08Z;446308.42;NULL;Vorsorge;tahadhari;d;NA;NA;NA;NA;sdfdsf;NA;1;NA;NA;NA;NA;NA;NA;NA;NA;NA;NA;NA;NA;NA;NA;NA;NA;NA;NA;NA;;;;
e8f56;"""Falsch""-Screen";canvas.Screen;3_0_1_0_0_0_2;NA;NA;timeout;5000.14;446319;446302.76;446308.42;451287.98;451290;2023-06-19T19:09:13Z;451308.56;NULL;Vorsorge;tahadhari;d;NA;NA;NA;NA;sdfdsf;0;1;NA;NA;NA;NA;NA;NA;NA;NA;NA;NA;NA;NA;NA;NA;NA;NA;NA;NA;NA;;;;
e8f56;deep;flow.Sequence;3_0_1_0_0_0;NA;NA;completion;9526.14;441761;441761.52;441761.84;451287.98;451290;2023-06-19T19:09:13Z;451308.56;NULL;Vorsorge;tahadhari;d;NA;NA;NA;NA;sdfdsf;NA;1;NA;NA;NA;NA;NA;NA;NA;NA;NA;NA;NA;NA;NA;NA;NA;NA;NA;NA;NA;;;;
e8f56;shallow;flow.Sequence;3_0_1_0_0_1;NA;NA;skipped;NA;451290;NA;NA;451287.98;451290;2023-06-19T19:09:13Z;451308.56;NULL;Vorsorge;tahadhari;d;NA;NA;NA;NA;sdfdsf;NA;1;NA;NA;NA;NA;NA;NA;NA;NA;NA;NA;NA;NA;NA;NA;NA;NA;NA;NA;NA;;;;
e8f56;task;flow.Sequence;3_0_1_0_0;NA;NA;completion;9526.14;441761;441761.52;441761.84;451287.98;451290;2023-06-19T19:09:13Z;451308.56;NULL;Vorsorge;tahadhari;d;NA;NA;NA;NA;sdfdsf;NA;1;NA;NA;NA;NA;NA;NA;NA;NA;NA;NA;NA;NA;NA;NA;NA;NA;NA;NA;NA;;;;
e8f56;Deep;Question;html.Page;3_0_1_0_1_0_0;NA;NA;form;submission;2656.44;451291;451287.98;451308.56;453965;453966;2023-06-19T19:09:15Z;453975.24;NULL;Konkurrent;mshindani;d;NA;NA;NA;s;NA;NA;1;NA;NA;NA;NA;NA;NA;NA;NA;NA;NA;NA;NA;NA;NA;NA;NA;NA;NA;NA;;
e8f56;"""Richtig""-Screen";canvas.Screen;3_0_1_0_1_0_1;NA;NA;skipped;NA;453970;NA;NA;453965;453970;2023-06-19T19:09:15Z;453975.24;NULL;Konkurrent;mshindani;d;NA;NA;NA;NA;sdfdsf;NA;1;NA;NA;NA;NA;NA;NA;NA;NA;NA;NA;NA;NA;NA;NA;NA;NA;NA;NA;NA;;;;
e8f56;"""Falsch""-Screen";canvas.Screen;3_0_1_0_1_0_2;NA;NA;timeout;5000.08;453973;453956.28;453975.24;458954.56;458955;2023-06-19T19:09:20Z;458975.32;NULL;Konkurrent;mshindani;d;NA;NA;NA;NA;sdfdsf;0;1;NA;NA;NA;NA;NA;NA;NA;NA;NA;NA;NA;NA;NA;NA;NA;NA;NA;NA;NA;;;;
e8f56;deep;flow.Sequence;3_0_1_0_1_0;NA;NA;completion;7646;451291;451287.98;451308.56;458954.56;458956;2023-06-19T19:09:20Z;458975.32;NULL;Konkurrent;mshindani;d;NA;NA;NA;NA;sdfdsf;NA;1;NA;NA;NA;NA;NA;NA;NA;NA;NA;NA;NA;NA;NA;NA;NA;NA;NA;NA;NA;;;;
e8f56;shallow;flow.Sequence;3_0_1_0_1_1;NA;NA;skipped;NA;458956;NA;NA;458954.56;458956;2023-06-19T19:09:20Z;458975.32;NULL;Konkurrent;mshindani;d;NA;NA;NA;NA;sdfdsf;NA;1;NA;NA;NA;NA;NA;NA;NA;NA;NA;NA;NA;NA;NA;NA;NA;NA;NA;NA;NA;;;;
e8f56;task;flow.Sequence;3_0_1_0_1;NA;NA;completion;7646;451291;451287.98;451308.56;458954.56;458956;2023-06-19T19:09:20Z;458975.32;NULL;Konkurrent;mshindani;d;NA;NA;NA;NA;sdfdsf;NA;1;NA;NA;NA;NA;NA;NA;NA;NA;NA;NA;NA;NA;NA;NA;NA;NA;NA;NA;NA;;;;
e8f56;deep;flow.Sequence;3_0_1_0_2_0;NA;NA;skipped;NA;458956;NA;NA;458954.56;458956;2023-06-19T19:09:20Z;458975.32;NULL;Fenster;dirisha;s;walakini;tasawari;maarifa;NA;sdfdsf;NA;1;NA;NA;NA;NA;NA;NA;NA;NA;NA;NA;NA;NA;NA;NA;NA;NA;NA;NA;NA;;;;
e8f56;Shallow;Question;html.Page;3_0_1_0_2_1_0;NA;NA;form;submission;10696.68;458956;458954.56;458975.32;469672;469673;2023-06-19T19:09:31Z;469683.52;NULL;Fenster;dirisha;s;walakini;tasawari;maarifa;maarifa;NA;NA;1;NA;NA;NA;NA;NA;NA;NA;NA;NA;NA;NA;NA;NA;NA;NA;NA;NA;NA;NA;;
e8f56;"""Richtig""-Screen";canvas.Screen;3_0_1_0_2_1_1;NA;NA;skipped;NA;469676;NA;NA;469672;469676;2023-06-19T19:09:31Z;469683.52;NULL;Fenster;dirisha;s;walakini;tasawari;maarifa;NA;sdfdsf;NA;1;NA;NA;NA;NA;NA;NA;NA;NA;NA;NA;NA;NA;NA;NA;NA;NA;NA;NA;NA;;;;
e8f56;"""Falsch""-Screen";canvas.Screen;3_0_1_0_2_1_2;NA;NA;timeout;5000.4;469679;469669.04;469683.52;474663.12;474664;2023-06-19T19:09:36Z;474683.92;NULL;Fenster;dirisha;s;walakini;tasawari;maarifa;NA;sdfdsf;0;1;NA;NA;NA;NA;NA;NA;NA;NA;NA;NA;NA;NA;NA;NA;NA;NA;NA;NA;NA;;;;
e8f56;shallow;flow.Sequence;3_0_1_0_2_1;NA;NA;completion;15687.8;458956;458954.56;458975.32;474663.12;474665;2023-06-19T19:09:36Z;474683.92;NULL;Fenster;dirisha;s;walakini;tasawari;maarifa;NA;sdfdsf;NA;1;NA;NA;NA;NA;NA;NA;NA;NA;NA;NA;NA;NA;NA;NA;NA;NA;NA;NA;NA;;;;
e8f56;task;flow.Sequence;3_0_1_0_2;NA;NA;completion;15687.8;458956;458954.56;458975.32;474663.12;474665;2023-06-19T19:09:36Z;474683.92;NULL;Fenster;dirisha;s;walakini;tasawari;maarifa;NA;sdfdsf;NA;1;NA;NA;NA;NA;NA;NA;NA;NA;NA;NA;NA;NA;NA;NA;NA;NA;NA;NA;NA;;;;
e8f56;Deep;Question;html.Page;3_0_1_0_3_0_0;NA;NA;form;submission;3724.08;474665;474663.12;474683.92;478408;478408;2023-06-19T19:09:40Z;478412.74;NULL;Tester;wanaojaribu;d;NA;NA;NA;s;NA;NA;1;NA;NA;NA;NA;NA;NA;NA;NA;NA;NA;NA;NA;NA;NA;NA;NA;NA;NA;NA;;
e8f56;"""Richtig""-Screen";canvas.Screen;3_0_1_0_3_0_1;NA;NA;skipped;NA;478411;NA;NA;478408;478411;2023-06-19T19:09:40Z;478412.74;NULL;Tester;wanaojaribu;d;NA;NA;NA;NA;sdfdsf;NA;1;NA;NA;NA;NA;NA;NA;NA;NA;NA;NA;NA;NA;NA;NA;NA;NA;NA;NA;NA;;;;
e8f56;"""Falsch""-Screen";canvas.Screen;3_0_1_0_3_0_2;NA;NA;timeout;5000.38;478411;478406.72;478412.74;483392.06;483399;2023-06-19T19:09:45Z;483413.12;NULL;Tester;wanaojaribu;d;NA;NA;NA;NA;sdfdsf;0;1;NA;NA;NA;NA;NA;NA;NA;NA;NA;NA;NA;NA;NA;NA;NA;NA;NA;NA;NA;;;;
e8f56;deep;flow.Sequence;3_0_1_0_3_0;NA;NA;completion;8708.14;474665;474663.12;474683.92;483392.06;483400;2023-06-19T19:09:45Z;483413.12;NULL;Tester;wanaojaribu;d;NA;NA;NA;NA;sdfdsf;NA;1;NA;NA;NA;NA;NA;NA;NA;NA;NA;NA;NA;NA;NA;NA;NA;NA;NA;NA;NA;;;;
e8f56;shallow;flow.Sequence;3_0_1_0_3_1;NA;NA;skipped;NA;483400;NA;NA;483392.06;483400;2023-06-19T19:09:45Z;483413.12;NULL;Tester;wanaojaribu;d;NA;NA;NA;NA;sdfdsf;NA;1;NA;NA;NA;NA;NA;NA;NA;NA;NA;NA;NA;NA;NA;NA;NA;NA;NA;NA;NA;;;;
e8f56;task;flow.Sequence;3_0_1_0_3;NA;NA;completion;8708.14;474665;474663.12;474683.92;483392.06;483400;2023-06-19T19:09:45Z;483413.12;NULL;Tester;wanaojaribu;d;NA;NA;NA;NA;sdfdsf;NA;1;NA;NA;NA;NA;NA;NA;NA;NA;NA;NA;NA;NA;NA;NA;NA;NA;NA;NA;NA;;;;
e8f56;Deep;Question;html.Page;3_0_1_0_4_0_0;NA;NA;form;submission;11237.88;483401;483392.06;483413.12;494651;494652;2023-06-19T19:09:56Z;494662.74;NULL;Schüler;mwanafunzi;d;NA;NA;NA;mwanafunzi;NA;NA;1;NA;NA;NA;NA;NA;NA;NA;NA;NA;NA;NA;NA;NA;NA;NA;NA;NA;NA;NA;;
e8f56;"""Richtig""-Screen";canvas.Screen;3_0_1_0_4_0_1;NA;NA;timeout;5000.06;494655;494647.96;494662.74;499642.38;499643;2023-06-19T19:10:01Z;499662.8;NULL;Schüler;mwanafunzi;d;NA;NA;NA;NA;sdfdsf;1;1;NA;NA;NA;NA;NA;NA;NA;NA;NA;NA;NA;NA;NA;NA;NA;NA;NA;NA;NA;;;;
e8f56;"""Falsch""-Screen";canvas.Screen;3_0_1_0_4_0_2;NA;NA;skipped;NA;499652;NA;NA;499642.38;499652;2023-06-19T19:10:01Z;499662.8;NULL;Schüler;mwanafunzi;d;NA;NA;NA;NA;sdfdsf;NA;1;NA;NA;NA;NA;NA;NA;NA;NA;NA;NA;NA;NA;NA;NA;NA;NA;NA;NA;NA;;;;
e8f56;deep;flow.Sequence;3_0_1_0_4_0;NA;NA;completion;16229.26;483401;483392.06;483413.12;499642.38;499653;2023-06-19T19:10:01Z;499662.8;NULL;Schüler;mwanafunzi;d;NA;NA;NA;NA;sdfdsf;NA;1;NA;NA;NA;NA;NA;NA;NA;NA;NA;NA;NA;NA;NA;NA;NA;NA;NA;NA;NA;;;;
e8f56;shallow;flow.Sequence;3_0_1_0_4_1;NA;NA;skipped;NA;499654;NA;NA;499642.38;499654;2023-06-19T19:10:01Z;499662.8;NULL;Schüler;mwanafunzi;d;NA;NA;NA;NA;sdfdsf;NA;1;NA;NA;NA;NA;NA;NA;NA;NA;NA;NA;NA;NA;NA;NA;NA;NA;NA;NA;NA;;;;
e8f56;task;flow.Sequence;3_0_1_0_4;NA;NA;completion;16229.26;483401;483392.06;483413.12;499642.38;499655;2023-06-19T19:10:01Z;499662.8;NULL;Schüler;mwanafunzi;d;NA;NA;NA;NA;sdfdsf;NA;1;NA;NA;NA;NA;NA;NA;NA;NA;NA;NA;NA;NA;NA;NA;NA;NA;NA;NA;NA;;;;
e8f56;deep;flow.Sequence;3_0_1_0_5_0;NA;NA;skipped;NA;499655;NA;NA;499642.38;499656;2023-06-19T19:10:01Z;499662.8;NULL;Symbol;kielezo;s;kinyume;nderemo;utayari;NA;sdfdsf;NA;1;NA;NA;NA;NA;NA;NA;NA;NA;NA;NA;NA;NA;NA;NA;NA;NA;NA;NA;NA;;;;
e8f56;Shallow;Question;html.Page;3_0_1_0_5_1_0;NA;NA;form;submission;4579.2;499657;499642.38;499662.8;504242;504243;2023-06-19T19:10:06Z;504246.14;NULL;Symbol;kielezo;s;kinyume;nderemo;utayari;kielezo;NA;NA;1;NA;NA;NA;NA;NA;NA;NA;NA;NA;NA;NA;NA;NA;NA;NA;NA;NA;NA;NA;;
e8f56;"""Richtig""-Screen";canvas.Screen;3_0_1_0_5_1_1;NA;NA;timeout;5000.06;504248;504234.68;504246.14;509225.56;509226;2023-06-19T19:10:11Z;509246.2;NULL;Symbol;kielezo;s;kinyume;nderemo;utayari;NA;sdfdsf;1;1;NA;NA;NA;NA;NA;NA;NA;NA;NA;NA;NA;NA;NA;NA;NA;NA;NA;NA;NA;;;;
e8f56;"""Falsch""-Screen";canvas.Screen;3_0_1_0_5_1_2;NA;NA;skipped;NA;509232;NA;NA;509225.56;509232;2023-06-19T19:10:11Z;509246.2;NULL;Symbol;kielezo;s;kinyume;nderemo;utayari;NA;sdfdsf;NA;1;NA;NA;NA;NA;NA;NA;NA;NA;NA;NA;NA;NA;NA;NA;NA;NA;NA;NA;NA;;;;
e8f56;shallow;flow.Sequence;3_0_1_0_5_1;NA;NA;completion;9562.76;499657;499642.38;499662.8;509225.56;509232;2023-06-19T19:10:11Z;509246.2;NULL;Symbol;kielezo;s;kinyume;nderemo;utayari;NA;sdfdsf;NA;1;NA;NA;NA;NA;NA;NA;NA;NA;NA;NA;NA;NA;NA;NA;NA;NA;NA;NA;NA;;;;
e8f56;task;flow.Sequence;3_0_1_0_5;NA;NA;completion;9562.76;499655;499642.38;499662.8;509225.56;509233;2023-06-19T19:10:11Z;509246.2;NULL;Symbol;kielezo;s;kinyume;nderemo;utayari;NA;sdfdsf;NA;1;NA;NA;NA;NA;NA;NA;NA;NA;NA;NA;NA;NA;NA;NA;NA;NA;NA;NA;NA;;;;
e8f56;deep;flow.Sequence;3_0_1_0_6_0;NA;NA;skipped;NA;509233;NA;NA;509225.56;509233;2023-06-19T19:10:11Z;509246.2;NULL;Spionage;upelelezi;s;maslahi;utokazo;magangao;NA;sdfdsf;NA;1;NA;NA;NA;NA;NA;NA;NA;NA;NA;NA;NA;NA;NA;NA;NA;NA;NA;NA;NA;;;;
e8f56;Shallow;Question;html.Page;3_0_1_0_6_1_0;NA;NA;form;submission;7258.8;509234;509225.56;509246.2;516505;516505;2023-06-19T19:10:18Z;516516.98;NULL;Spionage;upelelezi;s;maslahi;utokazo;magangao;upelelezi;NA;NA;1;NA;NA;NA;NA;NA;NA;NA;NA;NA;NA;NA;NA;NA;NA;NA;NA;NA;NA;NA;;
e8f56;"""Richtig""-Screen";canvas.Screen;3_0_1_0_6_1_1;NA;NA;timeout;5000;516509;516501.36;516516.98;521496.32;521498;2023-06-19T19:10:23Z;521516.98;NULL;Spionage;upelelezi;s;maslahi;utokazo;magangao;NA;sdfdsf;1;1;NA;NA;NA;NA;NA;NA;NA;NA;NA;NA;NA;NA;NA;NA;NA;NA;NA;NA;NA;;;;
e8f56;"""Falsch""-Screen";canvas.Screen;3_0_1_0_6_1_2;NA;NA;skipped;NA;521504;NA;NA;521496.32;521504;2023-06-19T19:10:23Z;521516.98;NULL;Spionage;upelelezi;s;maslahi;utokazo;magangao;NA;sdfdsf;NA;1;NA;NA;NA;NA;NA;NA;NA;NA;NA;NA;NA;NA;NA;NA;NA;NA;NA;NA;NA;;;;
e8f56;shallow;flow.Sequence;3_0_1_0_6_1;NA;NA;completion;12250.12;509234;509225.56;509246.2;521496.32;521504;2023-06-19T19:10:23Z;521516.98;NULL;Spionage;upelelezi;s;maslahi;utokazo;magangao;NA;sdfdsf;NA;1;NA;NA;NA;NA;NA;NA;NA;NA;NA;NA;NA;NA;NA;NA;NA;NA;NA;NA;NA;;;;
e8f56;task;flow.Sequence;3_0_1_0_6;NA;NA;completion;12250.12;509233;509225.56;509246.2;521496.32;521504;2023-06-19T19:10:23Z;521516.98;NULL;Spionage;upelelezi;s;maslahi;utokazo;magangao;NA;sdfdsf;NA;1;NA;NA;NA;NA;NA;NA;NA;NA;NA;NA;NA;NA;NA;NA;NA;NA;NA;NA;NA;;;;
e8f56;deep;flow.Sequence;3_0_1_0_7_0;NA;NA;skipped;NA;521504;NA;NA;521496.32;521504;2023-06-19T19:10:23Z;521516.98;NULL;Zuwachs;nyongeza;s;matilaba;udhibiti;hudhurio;NA;sdfdsf;NA;1;NA;NA;NA;NA;NA;NA;NA;NA;NA;NA;NA;NA;NA;NA;NA;NA;NA;NA;NA;;;;
e8f56;Shallow;Question;html.Page;3_0_1_0_7_1_0;NA;NA;form;submission;5215.02;521504;521496.32;521516.98;526732;526732;2023-06-19T19:10:28Z;526746.24;NULL;Zuwachs;nyongeza;s;matilaba;udhibiti;hudhurio;nyongeza;NA;NA;1;NA;NA;NA;NA;NA;NA;NA;NA;NA;NA;NA;NA;NA;NA;NA;NA;NA;NA;NA;;
e8f56;"""Richtig""-Screen";canvas.Screen;3_0_1_0_7_1_1;NA;NA;timeout;5000.02;526734;526730.84;526746.24;531725.44;531726;2023-06-19T19:10:33Z;531746.26;NULL;Zuwachs;nyongeza;s;matilaba;udhibiti;hudhurio;NA;sdfdsf;1;1;NA;NA;NA;NA;NA;NA;NA;NA;NA;NA;NA;NA;NA;NA;NA;NA;NA;NA;NA;;;;
e8f56;"""Falsch""-Screen";canvas.Screen;3_0_1_0_7_1_2;NA;NA;skipped;NA;531729;NA;NA;531725.44;531730;2023-06-19T19:10:33Z;531746.26;NULL;Zuwachs;nyongeza;s;matilaba;udhibiti;hudhurio;NA;sdfdsf;NA;1;NA;NA;NA;NA;NA;NA;NA;NA;NA;NA;NA;NA;NA;NA;NA;NA;NA;NA;NA;;;;
e8f56;shallow;flow.Sequence;3_0_1_0_7_1;NA;NA;completion;10208.46;521504;521496.32;521516.98;531725.44;531730;2023-06-19T19:10:33Z;531746.26;NULL;Zuwachs;nyongeza;s;matilaba;udhibiti;hudhurio;NA;sdfdsf;NA;1;NA;NA;NA;NA;NA;NA;NA;NA;NA;NA;NA;NA;NA;NA;NA;NA;NA;NA;NA;;;;
e8f56;task;flow.Sequence;3_0_1_0_7;NA;NA;completion;10208.46;521504;521496.32;521516.98;531725.44;531730;2023-06-19T19:10:33Z;531746.26;NULL;Zuwachs;nyongeza;s;matilaba;udhibiti;hudhurio;NA;sdfdsf;NA;1;NA;NA;NA;NA;NA;NA;NA;NA;NA;NA;NA;NA;NA;NA;NA;NA;NA;NA;NA;;;;
e8f56;block;flow.Loop;3_0_1_0;NA;NA;completion;89963.6;441761;441761.52;441761.84;531725.44;531731;2023-06-19T19:10:33Z;531746.26;NULL;NA;NA;NA;NA;NA;NA;NA;sdfdsf;NA;1;NA;NA;NA;NA;NA;NA;NA;NA;NA;NA;NA;NA;NA;NA;NA;NA;NA;NA;NA;;;;
e8f56;weiter;canvas.Screen;3_0_1_1;sdf;keypress(Space);response;1154.74;531731;531725.44;531746.26;532901;532912;2023-06-19T19:10:34Z;532963.2;NULL;NA;NA;NA;NA;NA;NA;NA;sdfdsf;NA;1;NA;NA;NA;NA;NA;NA;NA;NA;NA;NA;NA;NA;NA;NA;NA;NA;NA;NA;NA;;;;
e8f56;check;continue;flow.Sequence;3_0_1;NA;NA;completion;91139.16;441761;441761.52;441761.84;532901;532912;2023-06-19T19:10:34Z;532963.2;NULL;NA;NA;NA;NA;NA;NA;NA;sdfdsf;NA;1;NA;NA;NA;NA;NA;NA;NA;NA;NA;NA;NA;NA;NA;NA;NA;NA;NA;NA;NA;;;
e8f56;Deep;Question;html.Page;3_0_2_0_0_0_0;NA;NA;form;submission;9575.8;532963;532962.84;532963.2;542539;542543;2023-06-19T19:10:44Z;542538;NULL;Schüler;mwanafunzi;d;NA;NA;NA;mwanafunzi;NA;NA;2;NA;NA;NA;NA;NA;NA;NA;NA;NA;NA;NA;NA;NA;NA;NA;NA;NA;NA;NA;;
e8f56;"""Richtig""-Screen";canvas.Screen;3_0_2_0_0_0_1;NA;NA;timeout;5000.36;542554;542532.08;542538;547517.18;547518;2023-06-19T19:10:49Z;547538.36;NULL;Schüler;mwanafunzi;d;NA;NA;NA;NA;sdf;1;2;NA;NA;NA;NA;NA;NA;NA;NA;NA;NA;NA;NA;NA;NA;NA;NA;NA;NA;NA;;;;
e8f56;"""Falsch""-Screen";canvas.Screen;3_0_2_0_0_0_2;NA;NA;skipped;NA;547522;NA;NA;547517.18;547522;2023-06-19T19:10:49Z;547538.36;NULL;Schüler;mwanafunzi;d;NA;NA;NA;NA;sdf;NA;2;NA;NA;NA;NA;NA;NA;NA;NA;NA;NA;NA;NA;NA;NA;NA;NA;NA;NA;NA;;;;
e8f56;deep;flow.Sequence;3_0_2_0_0_0;NA;NA;completion;14553.98;532963;532962.84;532963.2;547517.18;547523;2023-06-19T19:10:49Z;547538.36;NULL;Schüler;mwanafunzi;d;NA;NA;NA;NA;sdf;NA;2;NA;NA;NA;NA;NA;NA;NA;NA;NA;NA;NA;NA;NA;NA;NA;NA;NA;NA;NA;;;;
e8f56;shallow;flow.Sequence;3_0_2_0_0_1;NA;NA;skipped;NA;547523;NA;NA;547517.18;547523;2023-06-19T19:10:49Z;547538.36;NULL;Schüler;mwanafunzi;d;NA;NA;NA;NA;sdf;NA;2;NA;NA;NA;NA;NA;NA;NA;NA;NA;NA;NA;NA;NA;NA;NA;NA;NA;NA;NA;;;;
e8f56;task;flow.Sequence;3_0_2_0_0;NA;NA;completion;14553.98;532963;532962.84;532963.2;547517.18;547523;2023-06-19T19:10:49Z;547538.36;NULL;Schüler;mwanafunzi;d;NA;NA;NA;NA;sdf;NA;2;NA;NA;NA;NA;NA;NA;NA;NA;NA;NA;NA;NA;NA;NA;NA;NA;NA;NA;NA;;;;
e8f56;deep;flow.Sequence;3_0_2_0_1_0;NA;NA;skipped;NA;547523;NA;NA;547517.18;547524;2023-06-19T19:10:49Z;547538.36;NULL;Zuwachs;nyongeza;s;matilaba;udhibiti;hudhurio;NA;sdf;NA;2;NA;NA;NA;NA;NA;NA;NA;NA;NA;NA;NA;NA;NA;NA;NA;NA;NA;NA;NA;;;;
e8f56;Shallow;Question;html.Page;3_0_2_0_1_1_0;NA;NA;form;submission;5102.64;547524;547517.18;547538.36;552641;552642;2023-06-19T19:10:54Z;552642.16;NULL;Zuwachs;nyongeza;s;matilaba;udhibiti;hudhurio;nyongeza;NA;NA;2;NA;NA;NA;NA;NA;NA;NA;NA;NA;NA;NA;NA;NA;NA;NA;NA;NA;NA;NA;;
e8f56;"""Richtig""-Screen";canvas.Screen;3_0_2_0_1_1_1;NA;NA;timeout;5000.24;552645;552637.44;552642.16;557621.4;557622;2023-06-19T19:10:59Z;557642.4;NULL;Zuwachs;nyongeza;s;matilaba;udhibiti;hudhurio;NA;sdf;1;2;NA;NA;NA;NA;NA;NA;NA;NA;NA;NA;NA;NA;NA;NA;NA;NA;NA;NA;NA;;;;
e8f56;"""Falsch""-Screen";canvas.Screen;3_0_2_0_1_1_2;NA;NA;skipped;NA;557626;NA;NA;557621.4;557626;2023-06-19T19:10:59Z;557642.4;NULL;Zuwachs;nyongeza;s;matilaba;udhibiti;hudhurio;NA;sdf;NA;2;NA;NA;NA;NA;NA;NA;NA;NA;NA;NA;NA;NA;NA;NA;NA;NA;NA;NA;NA;;;;
e8f56;shallow;flow.Sequence;3_0_2_0_1_1;NA;NA;completion;10083.04;547524;547517.18;547538.36;557621.4;557626;2023-06-19T19:10:59Z;557642.4;NULL;Zuwachs;nyongeza;s;matilaba;udhibiti;hudhurio;NA;sdf;NA;2;NA;NA;NA;NA;NA;NA;NA;NA;NA;NA;NA;NA;NA;NA;NA;NA;NA;NA;NA;;;;
e8f56;task;flow.Sequence;3_0_2_0_1;NA;NA;completion;10083.04;547523;547517.18;547538.36;557621.4;557627;2023-06-19T19:10:59Z;557642.4;NULL;Zuwachs;nyongeza;s;matilaba;udhibiti;hudhurio;NA;sdf;NA;2;NA;NA;NA;NA;NA;NA;NA;NA;NA;NA;NA;NA;NA;NA;NA;NA;NA;NA;NA;;;;
e8f56;Deep;Question;html.Page;3_0_2_0_2_0_0;NA;NA;form;submission;3245.6;557627;557621.4;557642.4;560888;560889;2023-06-19T19:11:02Z;560892.28;NULL;Tester;wanaojaribu;d;NA;NA;NA;d;NA;NA;2;NA;NA;NA;NA;NA;NA;NA;NA;NA;NA;NA;NA;NA;NA;NA;NA;NA;NA;NA;;
e8f56;"""Richtig""-Screen";canvas.Screen;3_0_2_0_2_0_1;NA;NA;skipped;NA;560894;NA;NA;560888;560895;2023-06-19T19:11:02Z;560892.28;NULL;Tester;wanaojaribu;d;NA;NA;NA;NA;sdf;NA;2;NA;NA;NA;NA;NA;NA;NA;NA;NA;NA;NA;NA;NA;NA;NA;NA;NA;NA;NA;;;;
e8f56;"""Falsch""-Screen";canvas.Screen;3_0_2_0_2_0_2;NA;NA;timeout;5000;560899;560873.2;560892.28;565871.4;565873;2023-06-19T19:11:07Z;565892.28;NULL;Tester;wanaojaribu;d;NA;NA;NA;NA;sdf;0;2;NA;NA;NA;NA;NA;NA;NA;NA;NA;NA;NA;NA;NA;NA;NA;NA;NA;NA;NA;;;;
e8f56;deep;flow.Sequence;3_0_2_0_2_0;NA;NA;completion;8229;557627;557621.4;557642.4;565871.4;565873;2023-06-19T19:11:07Z;565892.28;NULL;Tester;wanaojaribu;d;NA;NA;NA;NA;sdf;NA;2;NA;NA;NA;NA;NA;NA;NA;NA;NA;NA;NA;NA;NA;NA;NA;NA;NA;NA;NA;;;;
e8f56;shallow;flow.Sequence;3_0_2_0_2_1;NA;NA;skipped;NA;565874;NA;NA;565871.4;565875;2023-06-19T19:11:07Z;565892.28;NULL;Tester;wanaojaribu;d;NA;NA;NA;NA;sdf;NA;2;NA;NA;NA;NA;NA;NA;NA;NA;NA;NA;NA;NA;NA;NA;NA;NA;NA;NA;NA;;;;
e8f56;task;flow.Sequence;3_0_2_0_2;NA;NA;completion;8229;557627;557621.4;557642.4;565871.4;565877;2023-06-19T19:11:07Z;565892.28;NULL;Tester;wanaojaribu;d;NA;NA;NA;NA;sdf;NA;2;NA;NA;NA;NA;NA;NA;NA;NA;NA;NA;NA;NA;NA;NA;NA;NA;NA;NA;NA;;;;
e8f56;deep;flow.Sequence;3_0_2_0_3_0;NA;NA;skipped;NA;565877;NA;NA;565871.4;565877;2023-06-19T19:11:07Z;565892.28;NULL;Fenster;dirisha;s;walakini;tasawari;maarifa;NA;sdf;NA;2;NA;NA;NA;NA;NA;NA;NA;NA;NA;NA;NA;NA;NA;NA;NA;NA;NA;NA;NA;;;;
e8f56;Shallow;Question;html.Page;3_0_2_0_3_1_0;NA;NA;form;submission;4506.72;565878;565871.4;565892.28;570399;570400;2023-06-19T19:11:12Z;570392.26;NULL;Fenster;dirisha;s;walakini;tasawari;maarifa;dirisha;NA;NA;2;NA;NA;NA;NA;NA;NA;NA;NA;NA;NA;NA;NA;NA;NA;NA;NA;NA;NA;NA;;
e8f56;"""Richtig""-Screen";canvas.Screen;3_0_2_0_3_1_1;NA;NA;timeout;5000.1;570405;570391.26;570392.26;575371.68;575373;2023-06-19T19:11:17Z;575392.36;NULL;Fenster;dirisha;s;walakini;tasawari;maarifa;NA;sdf;1;2;NA;NA;NA;NA;NA;NA;NA;NA;NA;NA;NA;NA;NA;NA;NA;NA;NA;NA;NA;;;;
e8f56;"""Falsch""-Screen";canvas.Screen;3_0_2_0_3_1_2;NA;NA;skipped;NA;575378;NA;NA;575371.68;575378;2023-06-19T19:11:17Z;575392.36;NULL;Fenster;dirisha;s;walakini;tasawari;maarifa;NA;sdf;NA;2;NA;NA;NA;NA;NA;NA;NA;NA;NA;NA;NA;NA;NA;NA;NA;NA;NA;NA;NA;;;;
e8f56;shallow;flow.Sequence;3_0_2_0_3_1;NA;NA;completion;9479.4;565878;565871.4;565892.28;575371.68;575378;2023-06-19T19:11:17Z;575392.36;NULL;Fenster;dirisha;s;walakini;tasawari;maarifa;NA;sdf;NA;2;NA;NA;NA;NA;NA;NA;NA;NA;NA;NA;NA;NA;NA;NA;NA;NA;NA;NA;NA;;;;
e8f56;task;flow.Sequence;3_0_2_0_3;NA;NA;completion;9479.4;565877;565871.4;565892.28;575371.68;575378;2023-06-19T19:11:17Z;575392.36;NULL;Fenster;dirisha;s;walakini;tasawari;maarifa;NA;sdf;NA;2;NA;NA;NA;NA;NA;NA;NA;NA;NA;NA;NA;NA;NA;NA;NA;NA;NA;NA;NA;;;;
e8f56;deep;flow.Sequence;3_0_2_0_4_0;NA;NA;skipped;NA;575379;NA;NA;575371.68;575379;2023-06-19T19:11:17Z;575392.36;NULL;Spionage;upelelezi;s;maslahi;utokazo;magangao;NA;sdf;NA;2;NA;NA;NA;NA;NA;NA;NA;NA;NA;NA;NA;NA;NA;NA;NA;NA;NA;NA;NA;;;;
e8f56;Shallow;Question;html.Page;3_0_2_0_4_1_0;NA;NA;form;submission;7231.64;575379;575371.68;575392.36;582624;582624;2023-06-19T19:11:24Z;582621.36;NULL;Spionage;upelelezi;s;maslahi;utokazo;magangao;upelelezi;NA;NA;2;NA;NA;NA;NA;NA;NA;NA;NA;NA;NA;NA;NA;NA;NA;NA;NA;NA;NA;NA;;
e8f56;"""Richtig""-Screen";canvas.Screen;3_0_2_0_4_1_1;NA;NA;timeout;5000.4;582627;582620.16;582621.36;587600.98;587602;2023-06-19T19:11:29Z;587621.76;NULL;Spionage;upelelezi;s;maslahi;utokazo;magangao;NA;sdf;1;2;NA;NA;NA;NA;NA;NA;NA;NA;NA;NA;NA;NA;NA;NA;NA;NA;NA;NA;NA;;;;
e8f56;"""Falsch""-Screen";canvas.Screen;3_0_2_0_4_1_2;NA;NA;skipped;NA;587607;NA;NA;587600.98;587607;2023-06-19T19:11:29Z;587621.76;NULL;Spionage;upelelezi;s;maslahi;utokazo;magangao;NA;sdf;NA;2;NA;NA;NA;NA;NA;NA;NA;NA;NA;NA;NA;NA;NA;NA;NA;NA;NA;NA;NA;;;;
e8f56;shallow;flow.Sequence;3_0_2_0_4_1;NA;NA;completion;12208.62;575379;575371.68;575392.36;587600.98;587607;2023-06-19T19:11:29Z;587621.76;NULL;Spionage;upelelezi;s;maslahi;utokazo;magangao;NA;sdf;NA;2;NA;NA;NA;NA;NA;NA;NA;NA;NA;NA;NA;NA;NA;NA;NA;NA;NA;NA;NA;;;;
e8f56;task;flow.Sequence;3_0_2_0_4;NA;NA;completion;12208.62;575379;575371.68;575392.36;587600.98;587608;2023-06-19T19:11:29Z;587621.76;NULL;Spionage;upelelezi;s;maslahi;utokazo;magangao;NA;sdf;NA;2;NA;NA;NA;NA;NA;NA;NA;NA;NA;NA;NA;NA;NA;NA;NA;NA;NA;NA;NA;;;;
e8f56;Deep;Question;html.Page;3_0_2_0_5_0_0;NA;NA;form;submission;4321.24;587608;587600.98;587621.76;591943;591944;2023-06-19T19:11:33Z;591954.76;NULL;Vorsorge;tahadhari;d;NA;NA;NA;d;NA;NA;2;NA;NA;NA;NA;NA;NA;NA;NA;NA;NA;NA;NA;NA;NA;NA;NA;NA;NA;NA;;
e8f56;"""Richtig""-Screen";canvas.Screen;3_0_2_0_5_0_1;NA;NA;skipped;NA;591944;NA;NA;591943;591944;2023-06-19T19:11:33Z;591954.76;NULL;Vorsorge;tahadhari;d;NA;NA;NA;NA;sdf;NA;2;NA;NA;NA;NA;NA;NA;NA;NA;NA;NA;NA;NA;NA;NA;NA;NA;NA;NA;NA;;;;
e8f56;"""Falsch""-Screen";canvas.Screen;3_0_2_0_5_0_2;NA;NA;timeout;5000.02;591947;591939.62;591954.76;596934.06;596939;2023-06-19T19:11:38Z;596954.78;NULL;Vorsorge;tahadhari;d;NA;NA;NA;NA;sdf;0;2;NA;NA;NA;NA;NA;NA;NA;NA;NA;NA;NA;NA;NA;NA;NA;NA;NA;NA;NA;;;;
e8f56;deep;flow.Sequence;3_0_2_0_5_0;NA;NA;completion;9312.3;587608;587600.98;587621.76;596934.06;596941;2023-06-19T19:11:38Z;596954.78;NULL;Vorsorge;tahadhari;d;NA;NA;NA;NA;sdf;NA;2;NA;NA;NA;NA;NA;NA;NA;NA;NA;NA;NA;NA;NA;NA;NA;NA;NA;NA;NA;;;;
e8f56;shallow;flow.Sequence;3_0_2_0_5_1;NA;NA;skipped;NA;596941;NA;NA;596934.06;596941;2023-06-19T19:11:38Z;596954.78;NULL;Vorsorge;tahadhari;d;NA;NA;NA;NA;sdf;NA;2;NA;NA;NA;NA;NA;NA;NA;NA;NA;NA;NA;NA;NA;NA;NA;NA;NA;NA;NA;;;;
e8f56;task;flow.Sequence;3_0_2_0_5;NA;NA;completion;9312.3;587608;587600.98;587621.76;596934.06;596941;2023-06-19T19:11:38Z;596954.78;NULL;Vorsorge;tahadhari;d;NA;NA;NA;NA;sdf;NA;2;NA;NA;NA;NA;NA;NA;NA;NA;NA;NA;NA;NA;NA;NA;NA;NA;NA;NA;NA;;;;
e8f56;deep;flow.Sequence;3_0_2_0_6_0;NA;NA;skipped;NA;596942;NA;NA;596934.06;596943;2023-06-19T19:11:38Z;596954.78;NULL;Symbol;kielezo;s;kinyume;nderemo;utayari;NA;sdf;NA;2;NA;NA;NA;NA;NA;NA;NA;NA;NA;NA;NA;NA;NA;NA;NA;NA;NA;NA;NA;;;;
e8f56;Shallow;Question;html.Page;3_0_2_0_6_1_0;NA;NA;form;submission;7137.22;596943;596934.06;596954.78;604092;604093;2023-06-19T19:11:46Z;604100.68;NULL;Symbol;kielezo;s;kinyume;nderemo;utayari;kielezo;NA;NA;2;NA;NA;NA;NA;NA;NA;NA;NA;NA;NA;NA;NA;NA;NA;NA;NA;NA;NA;NA;;
e8f56;"""Richtig""-Screen";canvas.Screen;3_0_2_0_6_1_1;NA;NA;timeout;5000.02;604095;604089.26;604100.68;609079.92;609085;2023-06-19T19:11:51Z;609100.7;NULL;Symbol;kielezo;s;kinyume;nderemo;utayari;NA;sdf;1;2;NA;NA;NA;NA;NA;NA;NA;NA;NA;NA;NA;NA;NA;NA;NA;NA;NA;NA;NA;;;;
e8f56;"""Falsch""-Screen";canvas.Screen;3_0_2_0_6_1_2;NA;NA;skipped;NA;609103;NA;NA;609079.92;609103;2023-06-19T19:11:51Z;609100.7;NULL;Symbol;kielezo;s;kinyume;nderemo;utayari;NA;sdf;NA;2;NA;NA;NA;NA;NA;NA;NA;NA;NA;NA;NA;NA;NA;NA;NA;NA;NA;NA;NA;;;;
e8f56;shallow;flow.Sequence;3_0_2_0_6_1;NA;NA;completion;12125.14;596943;596934.06;596954.78;609079.92;609103;2023-06-19T19:11:51Z;609100.7;NULL;Symbol;kielezo;s;kinyume;nderemo;utayari;NA;sdf;NA;2;NA;NA;NA;NA;NA;NA;NA;NA;NA;NA;NA;NA;NA;NA;NA;NA;NA;NA;NA;;;;
e8f56;task;flow.Sequence;3_0_2_0_6;NA;NA;completion;12125.14;596942;596934.06;596954.78;609079.92;609103;2023-06-19T19:11:51Z;609100.7;NULL;Symbol;kielezo;s;kinyume;nderemo;utayari;NA;sdf;NA;2;NA;NA;NA;NA;NA;NA;NA;NA;NA;NA;NA;NA;NA;NA;NA;NA;NA;NA;NA;;;;
e8f56;Deep;Question;html.Page;3_0_2_0_7_0_0;NA;NA;form;submission;5876.3;609104;609079.92;609100.7;614977;614979;2023-06-19T19:11:56Z;614975.7;NULL;Konkurrent;mshindani;d;NA;NA;NA;d;NA;NA;2;NA;NA;NA;NA;NA;NA;NA;NA;NA;NA;NA;NA;NA;NA;NA;NA;NA;NA;NA;;
e8f56;"""Richtig""-Screen";canvas.Screen;3_0_2_0_7_0_1;NA;NA;skipped;NA;614987;NA;NA;614977;614988;2023-06-19T19:11:56Z;614975.7;NULL;Konkurrent;mshindani;d;NA;NA;NA;NA;sdf;NA;2;NA;NA;NA;NA;NA;NA;NA;NA;NA;NA;NA;NA;NA;NA;NA;NA;NA;NA;NA;;;;
e8f56;"""Falsch""-Screen";canvas.Screen;3_0_2_0_7_0_2;NA;NA;timeout;4999.98;614991;614966.94;614975.7;619955.08;619956;2023-06-19T19:12:01Z;619975.68;NULL;Konkurrent;mshindani;d;NA;NA;NA;NA;sdf;0;2;NA;NA;NA;NA;NA;NA;NA;NA;NA;NA;NA;NA;NA;NA;NA;NA;NA;NA;NA;;;;
e8f56;deep;flow.Sequence;3_0_2_0_7_0;NA;NA;completion;10854.38;609104;609079.92;609100.7;619955.08;619957;2023-06-19T19:12:01Z;619975.68;NULL;Konkurrent;mshindani;d;NA;NA;NA;NA;sdf;NA;2;NA;NA;NA;NA;NA;NA;NA;NA;NA;NA;NA;NA;NA;NA;NA;NA;NA;NA;NA;;;;
e8f56;shallow;flow.Sequence;3_0_2_0_7_1;NA;NA;skipped;NA;619957;NA;NA;619955.08;619957;2023-06-19T19:12:01Z;619975.68;NULL;Konkurrent;mshindani;d;NA;NA;NA;NA;sdf;NA;2;NA;NA;NA;NA;NA;NA;NA;NA;NA;NA;NA;NA;NA;NA;NA;NA;NA;NA;NA;;;;
e8f56;task;flow.Sequence;3_0_2_0_7;NA;NA;completion;10854.38;609104;609079.92;609100.7;619955.08;619958;2023-06-19T19:12:01Z;619975.68;NULL;Konkurrent;mshindani;d;NA;NA;NA;NA;sdf;NA;2;NA;NA;NA;NA;NA;NA;NA;NA;NA;NA;NA;NA;NA;NA;NA;NA;NA;NA;NA;;;;
e8f56;block;flow.Loop;3_0_2_0;NA;NA;completion;86991.88;532962;532962.84;532963.2;619955.08;619958;2023-06-19T19:12:01Z;619975.68;NULL;NA;NA;NA;NA;NA;NA;NA;sdf;NA;2;NA;NA;NA;NA;NA;NA;NA;NA;NA;NA;NA;NA;NA;NA;NA;NA;NA;NA;NA;;;;
e8f56;weiter;canvas.Screen;3_0_2_1;sdf;keypress(Space);response;1393.32;619958;619955.08;619975.68;621369;621383;2023-06-19T19:12:03Z;621439.18;NULL;NA;NA;NA;NA;NA;NA;NA;sdf;NA;2;NA;NA;NA;NA;NA;NA;NA;NA;NA;NA;NA;NA;NA;NA;NA;NA;NA;NA;NA;;;;
e8f56;check;continue;flow.Sequence;3_0_2;NA;NA;completion;88405.8;532962;532962.84;532963.2;621369;621383;2023-06-19T19:12:03Z;621439.18;NULL;NA;NA;NA;NA;NA;NA;NA;sdf;NA;2;NA;NA;NA;NA;NA;NA;NA;NA;NA;NA;NA;NA;NA;NA;NA;NA;NA;NA;NA;;;
e8f56;Deep;Question;html.Page;3_0_3_0_0_0_0;NA;NA;form;submission;11754.82;621439;621438.82;621439.18;633194;633195;2023-06-19T19:12:15Z;633204.94;NULL;Schüler;mwanafunzi;d;NA;NA;NA;mwfunzi;NA;NA;3;NA;NA;NA;NA;NA;NA;NA;NA;NA;NA;NA;NA;NA;NA;NA;NA;NA;NA;NA;;
e8f56;"""Richtig""-Screen";canvas.Screen;3_0_3_0_0_0_1;NA;NA;skipped;NA;633200;NA;NA;633194;633200;2023-06-19T19:12:15Z;633204.94;NULL;Schüler;mwanafunzi;d;NA;NA;NA;NA;qt;NA;3;NA;NA;NA;NA;NA;NA;NA;NA;NA;NA;NA;NA;NA;NA;NA;NA;NA;NA;NA;;;;
e8f56;"""Falsch""-Screen";canvas.Screen;3_0_3_0_0_0_2;NA;NA;timeout;5000.32;633204;633185.54;633204.94;638184.12;638185;2023-06-19T19:12:20Z;638205.26;NULL;Schüler;mwanafunzi;d;NA;NA;NA;NA;qt;0;3;NA;NA;NA;NA;NA;NA;NA;NA;NA;NA;NA;NA;NA;NA;NA;NA;NA;NA;NA;;;;
e8f56;deep;flow.Sequence;3_0_3_0_0_0;NA;NA;completion;16744.94;621439;621438.82;621439.18;638184.12;638185;2023-06-19T19:12:20Z;638205.26;NULL;Schüler;mwanafunzi;d;NA;NA;NA;NA;qt;NA;3;NA;NA;NA;NA;NA;NA;NA;NA;NA;NA;NA;NA;NA;NA;NA;NA;NA;NA;NA;;;;
e8f56;shallow;flow.Sequence;3_0_3_0_0_1;NA;NA;skipped;NA;638185;NA;NA;638184.12;638185;2023-06-19T19:12:20Z;638205.26;NULL;Schüler;mwanafunzi;d;NA;NA;NA;NA;qt;NA;3;NA;NA;NA;NA;NA;NA;NA;NA;NA;NA;NA;NA;NA;NA;NA;NA;NA;NA;NA;;;;
e8f56;task;flow.Sequence;3_0_3_0_0;NA;NA;completion;16744.94;621439;621438.82;621439.18;638184.12;638185;2023-06-19T19:12:20Z;638205.26;NULL;Schüler;mwanafunzi;d;NA;NA;NA;NA;qt;NA;3;NA;NA;NA;NA;NA;NA;NA;NA;NA;NA;NA;NA;NA;NA;NA;NA;NA;NA;NA;;;;
e8f56;deep;flow.Sequence;3_0_3_0_1_0;NA;NA;skipped;NA;638186;NA;NA;638184.12;638186;2023-06-19T19:12:20Z;638205.26;NULL;Zuwachs;nyongeza;s;matilaba;udhibiti;hudhurio;NA;qt;NA;3;NA;NA;NA;NA;NA;NA;NA;NA;NA;NA;NA;NA;NA;NA;NA;NA;NA;NA;NA;;;;
e8f56;Shallow;Question;html.Page;3_0_3_0_1_1_0;NA;NA;form;submission;6327.74;638186;638184.12;638205.26;644533;644534;2023-06-19T19:12:26Z;644538.28;NULL;Zuwachs;nyongeza;s;matilaba;udhibiti;hudhurio;nyongeza;NA;NA;3;NA;NA;NA;NA;NA;NA;NA;NA;NA;NA;NA;NA;NA;NA;NA;NA;NA;NA;NA;;
e8f56;"""Richtig""-Screen";canvas.Screen;3_0_3_0_1_1_1;NA;NA;timeout;5000.06;644538;644528.64;644538.28;649517.54;649519;2023-06-19T19:12:31Z;649538.34;NULL;Zuwachs;nyongeza;s;matilaba;udhibiti;hudhurio;NA;qt;1;3;NA;NA;NA;NA;NA;NA;NA;NA;NA;NA;NA;NA;NA;NA;NA;NA;NA;NA;NA;;;;
e8f56;"""Falsch""-Screen";canvas.Screen;3_0_3_0_1_1_2;NA;NA;skipped;NA;649524;NA;NA;649517.54;649524;2023-06-19T19:12:31Z;649538.34;NULL;Zuwachs;nyongeza;s;matilaba;udhibiti;hudhurio;NA;qt;NA;3;NA;NA;NA;NA;NA;NA;NA;NA;NA;NA;NA;NA;NA;NA;NA;NA;NA;NA;NA;;;;
e8f56;shallow;flow.Sequence;3_0_3_0_1_1;NA;NA;completion;11312.28;638186;638184.12;638205.26;649517.54;649525;2023-06-19T19:12:31Z;649538.34;NULL;Zuwachs;nyongeza;s;matilaba;udhibiti;hudhurio;NA;qt;NA;3;NA;NA;NA;NA;NA;NA;NA;NA;NA;NA;NA;NA;NA;NA;NA;NA;NA;NA;NA;;;;
e8f56;task;flow.Sequence;3_0_3_0_1;NA;NA;completion;11312.28;638185;638184.12;638205.26;649517.54;649525;2023-06-19T19:12:31Z;649538.34;NULL;Zuwachs;nyongeza;s;matilaba;udhibiti;hudhurio;NA;qt;NA;3;NA;NA;NA;NA;NA;NA;NA;NA;NA;NA;NA;NA;NA;NA;NA;NA;NA;NA;NA;;;;
e8f56;deep;flow.Sequence;3_0_3_0_2_0;NA;NA;skipped;NA;649525;NA;NA;649517.54;649525;2023-06-19T19:12:31Z;649538.34;NULL;Spionage;upelelezi;s;maslahi;utokazo;magangao;NA;qt;NA;3;NA;NA;NA;NA;NA;NA;NA;NA;NA;NA;NA;NA;NA;NA;NA;NA;NA;NA;NA;;;;
e8f56;Shallow;Question;html.Page;3_0_3_0_2_1_0;NA;NA;form;submission;4423.66;649526;649517.54;649538.34;653962;653962;2023-06-19T19:12:35Z;653975.88;NULL;Spionage;upelelezi;s;maslahi;utokazo;magangao;upelelezi;NA;NA;3;NA;NA;NA;NA;NA;NA;NA;NA;NA;NA;NA;NA;NA;NA;NA;NA;NA;NA;NA;;
e8f56;"""Richtig""-Screen";canvas.Screen;3_0_3_0_2_1_1;NA;NA;timeout;5000;653964;653957.64;653975.88;658955.08;658956;2023-06-19T19:12:40Z;658975.88;NULL;Spionage;upelelezi;s;maslahi;utokazo;magangao;NA;qt;1;3;NA;NA;NA;NA;NA;NA;NA;NA;NA;NA;NA;NA;NA;NA;NA;NA;NA;NA;NA;;;;
e8f56;"""Falsch""-Screen";canvas.Screen;3_0_3_0_2_1_2;NA;NA;skipped;NA;658963;NA;NA;658955.08;658963;2023-06-19T19:12:40Z;658975.88;NULL;Spionage;upelelezi;s;maslahi;utokazo;magangao;NA;qt;NA;3;NA;NA;NA;NA;NA;NA;NA;NA;NA;NA;NA;NA;NA;NA;NA;NA;NA;NA;NA;;;;
e8f56;shallow;flow.Sequence;3_0_3_0_2_1;NA;NA;completion;9416.74;649526;649517.54;649538.34;658955.08;658964;2023-06-19T19:12:40Z;658975.88;NULL;Spionage;upelelezi;s;maslahi;utokazo;magangao;NA;qt;NA;3;NA;NA;NA;NA;NA;NA;NA;NA;NA;NA;NA;NA;NA;NA;NA;NA;NA;NA;NA;;;;
e8f56;task;flow.Sequence;3_0_3_0_2;NA;NA;completion;9416.74;649525;649517.54;649538.34;658955.08;658964;2023-06-19T19:12:40Z;658975.88;NULL;Spionage;upelelezi;s;maslahi;utokazo;magangao;NA;qt;NA;3;NA;NA;NA;NA;NA;NA;NA;NA;NA;NA;NA;NA;NA;NA;NA;NA;NA;NA;NA;;;;
e8f56;Deep;Question;html.Page;3_0_3_0_3_0_0;NA;NA;form;submission;8361.12;658965;658955.08;658975.88;667337;667341;2023-06-19T19:12:49Z;667350.92;NULL;Vorsorge;tahadhari;d;NA;NA;NA;tahadara;NA;NA;3;NA;NA;NA;NA;NA;NA;NA;NA;NA;NA;NA;NA;NA;NA;NA;NA;NA;NA;NA;;
e8f56;"""Richtig""-Screen";canvas.Screen;3_0_3_0_3_0_1;NA;NA;skipped;NA;667350;NA;NA;667337;667350;2023-06-19T19:12:49Z;667350.92;NULL;Vorsorge;tahadhari;d;NA;NA;NA;NA;qt;NA;3;NA;NA;NA;NA;NA;NA;NA;NA;NA;NA;NA;NA;NA;NA;NA;NA;NA;NA;NA;;;;
e8f56;"""Falsch""-Screen";canvas.Screen;3_0_3_0_3_0_2;NA;NA;timeout;5000.42;667353;667325.54;667350.92;672330.2;672331;2023-06-19T19:12:54Z;672351.34;NULL;Vorsorge;tahadhari;d;NA;NA;NA;NA;qt;0;3;NA;NA;NA;NA;NA;NA;NA;NA;NA;NA;NA;NA;NA;NA;NA;NA;NA;NA;NA;;;;
e8f56;deep;flow.Sequence;3_0_3_0_3_0;NA;NA;completion;13354.32;658965;658955.08;658975.88;672330.2;672332;2023-06-19T19:12:54Z;672351.34;NULL;Vorsorge;tahadhari;d;NA;NA;NA;NA;qt;NA;3;NA;NA;NA;NA;NA;NA;NA;NA;NA;NA;NA;NA;NA;NA;NA;NA;NA;NA;NA;;;;
e8f56;shallow;flow.Sequence;3_0_3_0_3_1;NA;NA;skipped;NA;672333;NA;NA;672330.2;672333;2023-06-19T19:12:54Z;672351.34;NULL;Vorsorge;tahadhari;d;NA;NA;NA;NA;qt;NA;3;NA;NA;NA;NA;NA;NA;NA;NA;NA;NA;NA;NA;NA;NA;NA;NA;NA;NA;NA;;;;
e8f56;task;flow.Sequence;3_0_3_0_3;NA;NA;completion;13354.32;658965;658955.08;658975.88;672330.2;672334;2023-06-19T19:12:54Z;672351.34;NULL;Vorsorge;tahadhari;d;NA;NA;NA;NA;qt;NA;3;NA;NA;NA;NA;NA;NA;NA;NA;NA;NA;NA;NA;NA;NA;NA;NA;NA;NA;NA;;;;
e8f56;Deep;Question;html.Page;3_0_3_0_4_0_0;NA;NA;form;submission;4944.66;672335;672330.2;672351.34;677296;677296;2023-06-19T19:12:59Z;677288.42;NULL;Tester;wanaojaribu;d;NA;NA;NA;d;NA;NA;3;NA;NA;NA;NA;NA;NA;NA;NA;NA;NA;NA;NA;NA;NA;NA;NA;NA;NA;NA;;
e8f56;"""Richtig""-Screen";canvas.Screen;3_0_3_0_4_0_1;NA;NA;skipped;NA;677300;NA;NA;677296;677301;2023-06-19T19:12:59Z;677288.42;NULL;Tester;wanaojaribu;d;NA;NA;NA;NA;qt;NA;3;NA;NA;NA;NA;NA;NA;NA;NA;NA;NA;NA;NA;NA;NA;NA;NA;NA;NA;NA;;;;
e8f56;"""Falsch""-Screen";canvas.Screen;3_0_3_0_4_0_2;NA;NA;timeout;5000.1;677303;677284.78;677288.42;682267.84;682269;2023-06-19T19:13:04Z;682288.52;NULL;Tester;wanaojaribu;d;NA;NA;NA;NA;qt;0;3;NA;NA;NA;NA;NA;NA;NA;NA;NA;NA;NA;NA;NA;NA;NA;NA;NA;NA;NA;;;;
e8f56;deep;flow.Sequence;3_0_3_0_4_0;NA;NA;completion;9916.5;672334;672330.2;672351.34;682267.84;682270;2023-06-19T19:13:04Z;682288.52;NULL;Tester;wanaojaribu;d;NA;NA;NA;NA;qt;NA;3;NA;NA;NA;NA;NA;NA;NA;NA;NA;NA;NA;NA;NA;NA;NA;NA;NA;NA;NA;;;;
e8f56;shallow;flow.Sequence;3_0_3_0_4_1;NA;NA;skipped;NA;682270;NA;NA;682267.84;682271;2023-06-19T19:13:04Z;682288.52;NULL;Tester;wanaojaribu;d;NA;NA;NA;NA;qt;NA;3;NA;NA;NA;NA;NA;NA;NA;NA;NA;NA;NA;NA;NA;NA;NA;NA;NA;NA;NA;;;;
e8f56;task;flow.Sequence;3_0_3_0_4;NA;NA;completion;9916.5;672334;672330.2;672351.34;682267.84;682271;2023-06-19T19:13:04Z;682288.52;NULL;Tester;wanaojaribu;d;NA;NA;NA;NA;qt;NA;3;NA;NA;NA;NA;NA;NA;NA;NA;NA;NA;NA;NA;NA;NA;NA;NA;NA;NA;NA;;;;
e8f56;Deep;Question;html.Page;3_0_3_0_5_0_0;NA;NA;form;submission;2549.48;682272;682267.84;682288.52;684838;684838;2023-06-19T19:13:06Z;684850.96;NULL;Konkurrent;mshindani;d;NA;NA;NA;d;NA;NA;3;NA;NA;NA;NA;NA;NA;NA;NA;NA;NA;NA;NA;NA;NA;NA;NA;NA;NA;NA;;
e8f56;"""Richtig""-Screen";canvas.Screen;3_0_3_0_5_0_1;NA;NA;skipped;NA;684841;NA;NA;684838;684841;2023-06-19T19:13:06Z;684850.96;NULL;Konkurrent;mshindani;d;NA;NA;NA;NA;qt;NA;3;NA;NA;NA;NA;NA;NA;NA;NA;NA;NA;NA;NA;NA;NA;NA;NA;NA;NA;NA;;;;
e8f56;"""Falsch""-Screen";canvas.Screen;3_0_3_0_5_0_2;NA;NA;timeout;5000.22;684844;684834.24;684850.96;689830.4;689831;2023-06-19T19:13:11Z;689851.18;NULL;Konkurrent;mshindani;d;NA;NA;NA;NA;qt;0;3;NA;NA;NA;NA;NA;NA;NA;NA;NA;NA;NA;NA;NA;NA;NA;NA;NA;NA;NA;;;;
e8f56;deep;flow.Sequence;3_0_3_0_5_0;NA;NA;completion;7541.88;682272;682267.84;682288.52;689830.4;689831;2023-06-19T19:13:11Z;689851.18;NULL;Konkurrent;mshindani;d;NA;NA;NA;NA;qt;NA;3;NA;NA;NA;NA;NA;NA;NA;NA;NA;NA;NA;NA;NA;NA;NA;NA;NA;NA;NA;;;;
e8f56;shallow;flow.Sequence;3_0_3_0_5_1;NA;NA;skipped;NA;689831;NA;NA;689830.4;689831;2023-06-19T19:13:11Z;689851.18;NULL;Konkurrent;mshindani;d;NA;NA;NA;NA;qt;NA;3;NA;NA;NA;NA;NA;NA;NA;NA;NA;NA;NA;NA;NA;NA;NA;NA;NA;NA;NA;;;;
e8f56;task;flow.Sequence;3_0_3_0_5;NA;NA;completion;7541.88;682271;682267.84;682288.52;689830.4;689831;2023-06-19T19:13:11Z;689851.18;NULL;Konkurrent;mshindani;d;NA;NA;NA;NA;qt;NA;3;NA;NA;NA;NA;NA;NA;NA;NA;NA;NA;NA;NA;NA;NA;NA;NA;NA;NA;NA;;;;
e8f56;deep;flow.Sequence;3_0_3_0_6_0;NA;NA;skipped;NA;689832;NA;NA;689830.4;689832;2023-06-19T19:13:11Z;689851.18;NULL;Symbol;kielezo;s;kinyume;nderemo;utayari;NA;qt;NA;3;NA;NA;NA;NA;NA;NA;NA;NA;NA;NA;NA;NA;NA;NA;NA;NA;NA;NA;NA;;;;
e8f56;Shallow;Question;html.Page;3_0_3_0_6_1_0;NA;NA;form;submission;5701.82;689832;689830.4;689851.18;695553;695554;2023-06-19T19:13:17Z;695559.3;NULL;Symbol;kielezo;s;kinyume;nderemo;utayari;kielezo;NA;NA;3;NA;NA;NA;NA;NA;NA;NA;NA;NA;NA;NA;NA;NA;NA;NA;NA;NA;NA;NA;;
e8f56;"""Richtig""-Screen";canvas.Screen;3_0_3_0_6_1_1;NA;NA;timeout;5000.04;695558;695549.96;695559.3;700538.92;700540;2023-06-19T19:13:22Z;700559.34;NULL;Symbol;kielezo;s;kinyume;nderemo;utayari;NA;qt;1;3;NA;NA;NA;NA;NA;NA;NA;NA;NA;NA;NA;NA;NA;NA;NA;NA;NA;NA;NA;;;;
e8f56;"""Falsch""-Screen";canvas.Screen;3_0_3_0_6_1_2;NA;NA;skipped;NA;700548;NA;NA;700538.92;700549;2023-06-19T19:13:22Z;700559.34;NULL;Symbol;kielezo;s;kinyume;nderemo;utayari;NA;qt;NA;3;NA;NA;NA;NA;NA;NA;NA;NA;NA;NA;NA;NA;NA;NA;NA;NA;NA;NA;NA;;;;
e8f56;shallow;flow.Sequence;3_0_3_0_6_1;NA;NA;completion;10687.74;689832;689830.4;689851.18;700538.92;700549;2023-06-19T19:13:22Z;700559.34;NULL;Symbol;kielezo;s;kinyume;nderemo;utayari;NA;qt;NA;3;NA;NA;NA;NA;NA;NA;NA;NA;NA;NA;NA;NA;NA;NA;NA;NA;NA;NA;NA;;;;
e8f56;task;flow.Sequence;3_0_3_0_6;NA;NA;completion;10687.74;689832;689830.4;689851.18;700538.92;700550;2023-06-19T19:13:22Z;700559.34;NULL;Symbol;kielezo;s;kinyume;nderemo;utayari;NA;qt;NA;3;NA;NA;NA;NA;NA;NA;NA;NA;NA;NA;NA;NA;NA;NA;NA;NA;NA;NA;NA;;;;
e8f56;deep;flow.Sequence;3_0_3_0_7_0;NA;NA;skipped;NA;700550;NA;NA;700538.92;700551;2023-06-19T19:13:22Z;700559.34;NULL;Fenster;dirisha;s;walakini;tasawari;maarifa;NA;qt;NA;3;NA;NA;NA;NA;NA;NA;NA;NA;NA;NA;NA;NA;NA;NA;NA;NA;NA;NA;NA;;;;
e8f56;Shallow;Question;html.Page;3_0_3_0_7_1_0;NA;NA;form;submission;3685.66;700551;700538.92;700559.34;704245;704247;2023-06-19T19:13:26Z;704246.84;NULL;Fenster;dirisha;s;walakini;tasawari;maarifa;dirisha;NA;NA;3;NA;NA;NA;NA;NA;NA;NA;NA;NA;NA;NA;NA;NA;NA;NA;NA;NA;NA;NA;;
e8f56;"""Richtig""-Screen";canvas.Screen;3_0_3_0_7_1_1;NA;NA;timeout;5000.02;704255;704241.36;704246.84;709226.1;709227;2023-06-19T19:13:31Z;709246.86;NULL;Fenster;dirisha;s;walakini;tasawari;maarifa;NA;qt;1;3;NA;NA;NA;NA;NA;NA;NA;NA;NA;NA;NA;NA;NA;NA;NA;NA;NA;NA;NA;;;;
e8f56;"""Falsch""-Screen";canvas.Screen;3_0_3_0_7_1_2;NA;NA;skipped;NA;709230;NA;NA;709226.1;709231;2023-06-19T19:13:31Z;709246.86;NULL;Fenster;dirisha;s;walakini;tasawari;maarifa;NA;qt;NA;3;NA;NA;NA;NA;NA;NA;NA;NA;NA;NA;NA;NA;NA;NA;NA;NA;NA;NA;NA;;;;
e8f56;shallow;flow.Sequence;3_0_3_0_7_1;NA;NA;completion;8666.76;700551;700538.92;700559.34;709226.1;709231;2023-06-19T19:13:31Z;709246.86;NULL;Fenster;dirisha;s;walakini;tasawari;maarifa;NA;qt;NA;3;NA;NA;NA;NA;NA;NA;NA;NA;NA;NA;NA;NA;NA;NA;NA;NA;NA;NA;NA;;;;
e8f56;task;flow.Sequence;3_0_3_0_7;NA;NA;completion;8666.76;700550;700538.92;700559.34;709226.1;709231;2023-06-19T19:13:31Z;709246.86;NULL;Fenster;dirisha;s;walakini;tasawari;maarifa;NA;qt;NA;3;NA;NA;NA;NA;NA;NA;NA;NA;NA;NA;NA;NA;NA;NA;NA;NA;NA;NA;NA;;;;
e8f56;block;flow.Loop;3_0_3_0;NA;NA;completion;87786.92;621439;621438.82;621439.18;709226.1;709231;2023-06-19T19:13:31Z;709246.86;NULL;NA;NA;NA;NA;NA;NA;NA;qt;NA;3;NA;NA;NA;NA;NA;NA;NA;NA;NA;NA;NA;NA;NA;NA;NA;NA;NA;NA;NA;;;;
e8f56;weiter;canvas.Screen;3_0_3_1;sdf;keypress(Space);response;856.14;709232;709226.1;709246.86;710103;710114;2023-06-19T19:13:32Z;710168.5;NULL;NA;NA;NA;NA;NA;NA;NA;qt;NA;3;NA;NA;NA;NA;NA;NA;NA;NA;NA;NA;NA;NA;NA;NA;NA;NA;NA;NA;NA;;;;
e8f56;check;continue;flow.Sequence;3_0_3;NA;NA;completion;88663.82;621439;621438.82;621439.18;710103;710114;2023-06-19T19:13:32Z;710168.5;NULL;NA;NA;NA;NA;NA;NA;NA;qt;NA;3;NA;NA;NA;NA;NA;NA;NA;NA;NA;NA;NA;NA;NA;NA;NA;NA;NA;NA;NA;;;
e8f56;deep;flow.Sequence;3_0_4_0_0_0;NA;NA;skipped;NA;710168;NA;NA;710103;710168;2023-06-19T19:13:32Z;710168.5;NULL;Symbol;kielezo;s;kinyume;nderemo;utayari;NA;sd;NA;4;NA;NA;NA;NA;NA;NA;NA;NA;NA;NA;NA;NA;NA;NA;NA;NA;NA;NA;NA;;;;
e8f56;Shallow;Question;html.Page;3_0_4_0_0_1_0;NA;NA;form;submission;5167.5;710168;710168.16;710168.5;715336;715336;2023-06-19T19:13:37Z;715351.08;NULL;Symbol;kielezo;s;kinyume;nderemo;utayari;kielezo;NA;NA;4;NA;NA;NA;NA;NA;NA;NA;NA;NA;NA;NA;NA;NA;NA;NA;NA;NA;NA;NA;;
e8f56;"""Richtig""-Screen";canvas.Screen;3_0_4_0_0_1_1;NA;NA;timeout;5000.42;715339;715332.9;715351.08;720330.74;720332;2023-06-19T19:13:42Z;720351.5;NULL;Symbol;kielezo;s;kinyume;nderemo;utayari;NA;sd;1;4;NA;NA;NA;NA;NA;NA;NA;NA;NA;NA;NA;NA;NA;NA;NA;NA;NA;NA;NA;;;;
e8f56;"""Falsch""-Screen";canvas.Screen;3_0_4_0_0_1_2;NA;NA;skipped;NA;720335;NA;NA;720330.74;720335;2023-06-19T19:13:42Z;720351.5;NULL;Symbol;kielezo;s;kinyume;nderemo;utayari;NA;sd;NA;4;NA;NA;NA;NA;NA;NA;NA;NA;NA;NA;NA;NA;NA;NA;NA;NA;NA;NA;NA;;;;
e8f56;shallow;flow.Sequence;3_0_4_0_0_1;NA;NA;completion;10162.24;710168;710168.16;710168.5;720330.74;720335;2023-06-19T19:13:42Z;720351.5;NULL;Symbol;kielezo;s;kinyume;nderemo;utayari;NA;sd;NA;4;NA;NA;NA;NA;NA;NA;NA;NA;NA;NA;NA;NA;NA;NA;NA;NA;NA;NA;NA;;;;
e8f56;task;flow.Sequence;3_0_4_0_0;NA;NA;completion;10162.24;710168;710168.16;710168.5;720330.74;720335;2023-06-19T19:13:42Z;720351.5;NULL;Symbol;kielezo;s;kinyume;nderemo;utayari;NA;sd;NA;4;NA;NA;NA;NA;NA;NA;NA;NA;NA;NA;NA;NA;NA;NA;NA;NA;NA;NA;NA;;;;
e8f56;deep;flow.Sequence;3_0_4_0_1_0;NA;NA;skipped;NA;720335;NA;NA;720330.74;720335;2023-06-19T19:13:42Z;720351.5;NULL;Zuwachs;nyongeza;s;matilaba;udhibiti;hudhurio;NA;sd;NA;4;NA;NA;NA;NA;NA;NA;NA;NA;NA;NA;NA;NA;NA;NA;NA;NA;NA;NA;NA;;;;
e8f56;Shallow;Question;html.Page;3_0_4_0_1_1_0;NA;NA;form;submission;5079.5;720336;720330.74;720351.5;725431;725432;2023-06-19T19:13:47Z;725434.38;NULL;Zuwachs;nyongeza;s;matilaba;udhibiti;hudhurio;nyongeza;NA;NA;4;NA;NA;NA;NA;NA;NA;NA;NA;NA;NA;NA;NA;NA;NA;NA;NA;NA;NA;NA;;
e8f56;"""Richtig""-Screen";canvas.Screen;3_0_4_0_1_1_1;NA;NA;timeout;5000.48;725439;725426.08;725434.38;730414.02;730414;2023-06-19T19:13:52Z;730434.86;NULL;Zuwachs;nyongeza;s;matilaba;udhibiti;hudhurio;NA;sd;1;4;NA;NA;NA;NA;NA;NA;NA;NA;NA;NA;NA;NA;NA;NA;NA;NA;NA;NA;NA;;;;
e8f56;"""Falsch""-Screen";canvas.Screen;3_0_4_0_1_1_2;NA;NA;skipped;NA;730417;NA;NA;730414.02;730417;2023-06-19T19:13:52Z;730434.86;NULL;Zuwachs;nyongeza;s;matilaba;udhibiti;hudhurio;NA;sd;NA;4;NA;NA;NA;NA;NA;NA;NA;NA;NA;NA;NA;NA;NA;NA;NA;NA;NA;NA;NA;;;;
e8f56;shallow;flow.Sequence;3_0_4_0_1_1;NA;NA;completion;10062.52;720336;720330.74;720351.5;730414.02;730417;2023-06-19T19:13:52Z;730434.86;NULL;Zuwachs;nyongeza;s;matilaba;udhibiti;hudhurio;NA;sd;NA;4;NA;NA;NA;NA;NA;NA;NA;NA;NA;NA;NA;NA;NA;NA;NA;NA;NA;NA;NA;;;;
e8f56;task;flow.Sequence;3_0_4_0_1;NA;NA;completion;10062.52;720335;720330.74;720351.5;730414.02;730417;2023-06-19T19:13:52Z;730434.86;NULL;Zuwachs;nyongeza;s;matilaba;udhibiti;hudhurio;NA;sd;NA;4;NA;NA;NA;NA;NA;NA;NA;NA;NA;NA;NA;NA;NA;NA;NA;NA;NA;NA;NA;;;;
e8f56;Deep;Question;html.Page;3_0_4_0_2_0_0;NA;NA;form;submission;20620.14;730417;730414.02;730434.86;751055;751060;2023-06-19T19:14:13Z;751059.5;NULL;Vorsorge;tahadhari;d;NA;NA;NA;tahadhari;NA;NA;4;NA;NA;NA;NA;NA;NA;NA;NA;NA;NA;NA;NA;NA;NA;NA;NA;NA;NA;NA;;
e8f56;"""Richtig""-Screen";canvas.Screen;3_0_4_0_2_0_1;NA;NA;timeout;5000.04;751062;751047.58;751059.5;756039.16;756047;2023-06-19T19:14:18Z;756059.54;NULL;Vorsorge;tahadhari;d;NA;NA;NA;NA;sd;1;4;NA;NA;NA;NA;NA;NA;NA;NA;NA;NA;NA;NA;NA;NA;NA;NA;NA;NA;NA;;;;
e8f56;"""Falsch""-Screen";canvas.Screen;3_0_4_0_2_0_2;NA;NA;skipped;NA;756064;NA;NA;756039.16;756064;2023-06-19T19:14:18Z;756059.54;NULL;Vorsorge;tahadhari;d;NA;NA;NA;NA;sd;NA;4;NA;NA;NA;NA;NA;NA;NA;NA;NA;NA;NA;NA;NA;NA;NA;NA;NA;NA;NA;;;;
e8f56;deep;flow.Sequence;3_0_4_0_2_0;NA;NA;completion;25604.3;730417;730414.02;730434.86;756039.16;756064;2023-06-19T19:14:18Z;756059.54;NULL;Vorsorge;tahadhari;d;NA;NA;NA;NA;sd;NA;4;NA;NA;NA;NA;NA;NA;NA;NA;NA;NA;NA;NA;NA;NA;NA;NA;NA;NA;NA;;;;
e8f56;shallow;flow.Sequence;3_0_4_0_2_1;NA;NA;skipped;NA;756065;NA;NA;756039.16;756065;2023-06-19T19:14:18Z;756059.54;NULL;Vorsorge;tahadhari;d;NA;NA;NA;NA;sd;NA;4;NA;NA;NA;NA;NA;NA;NA;NA;NA;NA;NA;NA;NA;NA;NA;NA;NA;NA;NA;;;;
e8f56;task;flow.Sequence;3_0_4_0_2;NA;NA;completion;25604.3;730417;730414.02;730434.86;756039.16;756065;2023-06-19T19:14:18Z;756059.54;NULL;Vorsorge;tahadhari;d;NA;NA;NA;NA;sd;NA;4;NA;NA;NA;NA;NA;NA;NA;NA;NA;NA;NA;NA;NA;NA;NA;NA;NA;NA;NA;;;;
e8f56;Deep;Question;html.Page;3_0_4_0_3_0_0;NA;NA;form;submission;2792.46;756065;756039.16;756059.54;758852;758853;2023-06-19T19:14:20Z;758851.26;NULL;Konkurrent;mshindani;d;NA;NA;NA;d;NA;NA;4;NA;NA;NA;NA;NA;NA;NA;NA;NA;NA;NA;NA;NA;NA;NA;NA;NA;NA;NA;;
e8f56;"""Richtig""-Screen";canvas.Screen;3_0_4_0_3_0_1;NA;NA;skipped;NA;758858;NA;NA;758852;758858;2023-06-19T19:14:20Z;758851.26;NULL;Konkurrent;mshindani;d;NA;NA;NA;NA;sd;NA;4;NA;NA;NA;NA;NA;NA;NA;NA;NA;NA;NA;NA;NA;NA;NA;NA;NA;NA;NA;;;;
e8f56;"""Falsch""-Screen";canvas.Screen;3_0_4_0_3_0_2;NA;NA;timeout;5000.24;758861;758843.98;758851.26;763830.76;763831;2023-06-19T19:14:25Z;763851.5;NULL;Konkurrent;mshindani;d;NA;NA;NA;NA;sd;0;4;NA;NA;NA;NA;NA;NA;NA;NA;NA;NA;NA;NA;NA;NA;NA;NA;NA;NA;NA;;;;
e8f56;deep;flow.Sequence;3_0_4_0_3_0;NA;NA;completion;7771.22;756065;756039.16;756059.54;763830.76;763832;2023-06-19T19:14:25Z;763851.5;NULL;Konkurrent;mshindani;d;NA;NA;NA;NA;sd;NA;4;NA;NA;NA;NA;NA;NA;NA;NA;NA;NA;NA;NA;NA;NA;NA;NA;NA;NA;NA;;;;
e8f56;shallow;flow.Sequence;3_0_4_0_3_1;NA;NA;skipped;NA;763832;NA;NA;763830.76;763832;2023-06-19T19:14:25Z;763851.5;NULL;Konkurrent;mshindani;d;NA;NA;NA;NA;sd;NA;4;NA;NA;NA;NA;NA;NA;NA;NA;NA;NA;NA;NA;NA;NA;NA;NA;NA;NA;NA;;;;
e8f56;task;flow.Sequence;3_0_4_0_3;NA;NA;completion;7771.22;756065;756039.16;756059.54;763830.76;763833;2023-06-19T19:14:25Z;763851.5;NULL;Konkurrent;mshindani;d;NA;NA;NA;NA;sd;NA;4;NA;NA;NA;NA;NA;NA;NA;NA;NA;NA;NA;NA;NA;NA;NA;NA;NA;NA;NA;;;;
e8f56;Deep;Question;html.Page;3_0_4_0_4_0_0;NA;NA;form;submission;13229.5;763833;763830.76;763851.5;777081;777082;2023-06-19T19:14:39Z;777080.38;NULL;Schüler;mwanafunzi;d;NA;NA;NA;mwanafunzi;NA;NA;4;NA;NA;NA;NA;NA;NA;NA;NA;NA;NA;NA;NA;NA;NA;NA;NA;NA;NA;NA;;
e8f56;"""Richtig""-Screen";canvas.Screen;3_0_4_0_4_0_1;NA;NA;timeout;5000.32;777088;777070.8;777080.38;782060.12;782061;2023-06-19T19:14:44Z;782080.7;NULL;Schüler;mwanafunzi;d;NA;NA;NA;NA;sd;1;4;NA;NA;NA;NA;NA;NA;NA;NA;NA;NA;NA;NA;NA;NA;NA;NA;NA;NA;NA;;;;
e8f56;"""Falsch""-Screen";canvas.Screen;3_0_4_0_4_0_2;NA;NA;skipped;NA;782065;NA;NA;782060.12;782065;2023-06-19T19:14:44Z;782080.7;NULL;Schüler;mwanafunzi;d;NA;NA;NA;NA;sd;NA;4;NA;NA;NA;NA;NA;NA;NA;NA;NA;NA;NA;NA;NA;NA;NA;NA;NA;NA;NA;;;;
e8f56;deep;flow.Sequence;3_0_4_0_4_0;NA;NA;completion;18208.62;763833;763830.76;763851.5;782060.12;782065;2023-06-19T19:14:44Z;782080.7;NULL;Schüler;mwanafunzi;d;NA;NA;NA;NA;sd;NA;4;NA;NA;NA;NA;NA;NA;NA;NA;NA;NA;NA;NA;NA;NA;NA;NA;NA;NA;NA;;;;
e8f56;shallow;flow.Sequence;3_0_4_0_4_1;NA;NA;skipped;NA;782065;NA;NA;782060.12;782065;2023-06-19T19:14:44Z;782080.7;NULL;Schüler;mwanafunzi;d;NA;NA;NA;NA;sd;NA;4;NA;NA;NA;NA;NA;NA;NA;NA;NA;NA;NA;NA;NA;NA;NA;NA;NA;NA;NA;;;;
e8f56;task;flow.Sequence;3_0_4_0_4;NA;NA;completion;18208.62;763833;763830.76;763851.5;782060.12;782065;2023-06-19T19:14:44Z;782080.7;NULL;Schüler;mwanafunzi;d;NA;NA;NA;NA;sd;NA;4;NA;NA;NA;NA;NA;NA;NA;NA;NA;NA;NA;NA;NA;NA;NA;NA;NA;NA;NA;;;;
e8f56;deep;flow.Sequence;3_0_4_0_5_0;NA;NA;skipped;NA;782065;NA;NA;782060.12;782065;2023-06-19T19:14:44Z;782080.7;NULL;Spionage;upelelezi;s;maslahi;utokazo;magangao;NA;sd;NA;4;NA;NA;NA;NA;NA;NA;NA;NA;NA;NA;NA;NA;NA;NA;NA;NA;NA;NA;NA;;;;
e8f56;Shallow;Question;html.Page;3_0_4_0_5_1_0;NA;NA;form;submission;6214.3;782065;782060.12;782080.7;788295;788296;2023-06-19T19:14:50Z;788309.66;NULL;Spionage;upelelezi;s;maslahi;utokazo;magangao;upelelezi;NA;NA;4;NA;NA;NA;NA;NA;NA;NA;NA;NA;NA;NA;NA;NA;NA;NA;NA;NA;NA;NA;;
e8f56;"""Richtig""-Screen";canvas.Screen;3_0_4_0_5_1_1;NA;NA;timeout;5000.34;788302;788289.76;788309.66;793289.3;793291;2023-06-19T19:14:55Z;793310;NULL;Spionage;upelelezi;s;maslahi;utokazo;magangao;NA;sd;1;4;NA;NA;NA;NA;NA;NA;NA;NA;NA;NA;NA;NA;NA;NA;NA;NA;NA;NA;NA;;;;
e8f56;"""Falsch""-Screen";canvas.Screen;3_0_4_0_5_1_2;NA;NA;skipped;NA;793295;NA;NA;793289.3;793296;2023-06-19T19:14:55Z;793310;NULL;Spionage;upelelezi;s;maslahi;utokazo;magangao;NA;sd;NA;4;NA;NA;NA;NA;NA;NA;NA;NA;NA;NA;NA;NA;NA;NA;NA;NA;NA;NA;NA;;;;
e8f56;shallow;flow.Sequence;3_0_4_0_5_1;NA;NA;completion;11208.6;782065;782060.12;782080.7;793289.3;793296;2023-06-19T19:14:55Z;793310;NULL;Spionage;upelelezi;s;maslahi;utokazo;magangao;NA;sd;NA;4;NA;NA;NA;NA;NA;NA;NA;NA;NA;NA;NA;NA;NA;NA;NA;NA;NA;NA;NA;;;;
e8f56;task;flow.Sequence;3_0_4_0_5;NA;NA;completion;11208.6;782065;782060.12;782080.7;793289.3;793296;2023-06-19T19:14:55Z;793310;NULL;Spionage;upelelezi;s;maslahi;utokazo;magangao;NA;sd;NA;4;NA;NA;NA;NA;NA;NA;NA;NA;NA;NA;NA;NA;NA;NA;NA;NA;NA;NA;NA;;;;
e8f56;Deep;Question;html.Page;3_0_4_0_6_0_0;NA;NA;form;submission;2995;793296;793289.3;793310;796305;796306;2023-06-19T19:14:58Z;796309.74;NULL;Tester;wanaojaribu;d;NA;NA;NA;d;NA;NA;4;NA;NA;NA;NA;NA;NA;NA;NA;NA;NA;NA;NA;NA;NA;NA;NA;NA;NA;NA;;
e8f56;"""Richtig""-Screen";canvas.Screen;3_0_4_0_6_0_1;NA;NA;skipped;NA;796310;NA;NA;796305;796310;2023-06-19T19:14:58Z;796309.74;NULL;Tester;wanaojaribu;d;NA;NA;NA;NA;sd;NA;4;NA;NA;NA;NA;NA;NA;NA;NA;NA;NA;NA;NA;NA;NA;NA;NA;NA;NA;NA;;;;
e8f56;"""Falsch""-Screen";canvas.Screen;3_0_4_0_6_0_2;NA;NA;timeout;5000;796316;796291.52;796309.74;801289.3;801291;2023-06-19T19:15:03Z;801309.74;NULL;Tester;wanaojaribu;d;NA;NA;NA;NA;sd;0;4;NA;NA;NA;NA;NA;NA;NA;NA;NA;NA;NA;NA;NA;NA;NA;NA;NA;NA;NA;;;;
e8f56;deep;flow.Sequence;3_0_4_0_6_0;NA;NA;completion;7979.3;793296;793289.3;793310;801289.3;801291;2023-06-19T19:15:03Z;801309.74;NULL;Tester;wanaojaribu;d;NA;NA;NA;NA;sd;NA;4;NA;NA;NA;NA;NA;NA;NA;NA;NA;NA;NA;NA;NA;NA;NA;NA;NA;NA;NA;;;;
e8f56;shallow;flow.Sequence;3_0_4_0_6_1;NA;NA;skipped;NA;801291;NA;NA;801289.3;801292;2023-06-19T19:15:03Z;801309.74;NULL;Tester;wanaojaribu;d;NA;NA;NA;NA;sd;NA;4;NA;NA;NA;NA;NA;NA;NA;NA;NA;NA;NA;NA;NA;NA;NA;NA;NA;NA;NA;;;;
e8f56;task;flow.Sequence;3_0_4_0_6;NA;NA;completion;7979.3;793296;793289.3;793310;801289.3;801292;2023-06-19T19:15:03Z;801309.74;NULL;Tester;wanaojaribu;d;NA;NA;NA;NA;sd;NA;4;NA;NA;NA;NA;NA;NA;NA;NA;NA;NA;NA;NA;NA;NA;NA;NA;NA;NA;NA;;;;
e8f56;deep;flow.Sequence;3_0_4_0_7_0;NA;NA;skipped;NA;801292;NA;NA;801289.3;801293;2023-06-19T19:15:03Z;801309.74;NULL;Fenster;dirisha;s;walakini;tasawari;maarifa;NA;sd;NA;4;NA;NA;NA;NA;NA;NA;NA;NA;NA;NA;NA;NA;NA;NA;NA;NA;NA;NA;NA;;;;
e8f56;Shallow;Question;html.Page;3_0_4_0_7_1_0;NA;NA;form;submission;6022.26;801294;801289.3;801309.74;807332;807333;2023-06-19T19:15:09Z;807330.54;NULL;Fenster;dirisha;s;walakini;tasawari;maarifa;dirisha;NA;NA;4;NA;NA;NA;NA;NA;NA;NA;NA;NA;NA;NA;NA;NA;NA;NA;NA;NA;NA;NA;;
e8f56;"""Richtig""-Screen";canvas.Screen;3_0_4_0_7_1_1;NA;NA;timeout;5000.1;807337;807326.44;807330.54;812309.76;812313;2023-06-19T19:15:14Z;812330.64;NULL;Fenster;dirisha;s;walakini;tasawari;maarifa;NA;sd;1;4;NA;NA;NA;NA;NA;NA;NA;NA;NA;NA;NA;NA;NA;NA;NA;NA;NA;NA;NA;;;;
e8f56;"""Falsch""-Screen";canvas.Screen;3_0_4_0_7_1_2;NA;NA;skipped;NA;812323;NA;NA;812309.76;812323;2023-06-19T19:15:14Z;812330.64;NULL;Fenster;dirisha;s;walakini;tasawari;maarifa;NA;sd;NA;4;NA;NA;NA;NA;NA;NA;NA;NA;NA;NA;NA;NA;NA;NA;NA;NA;NA;NA;NA;;;;
e8f56;shallow;flow.Sequence;3_0_4_0_7_1;NA;NA;completion;11000.02;801293;801289.3;801309.74;812309.76;812323;2023-06-19T19:15:14Z;812330.64;NULL;Fenster;dirisha;s;walakini;tasawari;maarifa;NA;sd;NA;4;NA;NA;NA;NA;NA;NA;NA;NA;NA;NA;NA;NA;NA;NA;NA;NA;NA;NA;NA;;;;
e8f56;task;flow.Sequence;3_0_4_0_7;NA;NA;completion;11000.02;801292;801289.3;801309.74;812309.76;812323;2023-06-19T19:15:14Z;812330.64;NULL;Fenster;dirisha;s;walakini;tasawari;maarifa;NA;sd;NA;4;NA;NA;NA;NA;NA;NA;NA;NA;NA;NA;NA;NA;NA;NA;NA;NA;NA;NA;NA;;;;
e8f56;block;flow.Loop;3_0_4_0;NA;NA;completion;102141.26;710168;710168.16;710168.5;812309.76;812324;2023-06-19T19:15:14Z;812330.64;NULL;NA;NA;NA;NA;NA;NA;NA;sd;NA;4;NA;NA;NA;NA;NA;NA;NA;NA;NA;NA;NA;NA;NA;NA;NA;NA;NA;NA;NA;;;;
e8f56;weiter;canvas.Screen;3_0_4_1;sdf;keypress(Space);response;709.36;812324;812309.76;812330.64;813040;813047;2023-06-19T19:15:15Z;813885.7;NULL;NA;NA;NA;NA;NA;NA;NA;sd;NA;4;NA;NA;NA;NA;NA;NA;NA;NA;NA;NA;NA;NA;NA;NA;NA;NA;NA;NA;NA;;;;
e8f56;check;continue;flow.Sequence;3_0_4;NA;NA;completion;102871.5;710168;710168.16;710168.5;813040;813048;2023-06-19T19:15:15Z;813885.7;NULL;NA;NA;NA;NA;NA;NA;NA;sd;NA;4;NA;NA;NA;NA;NA;NA;NA;NA;NA;NA;NA;NA;NA;NA;NA;NA;NA;NA;NA;;;
e8f56;check;continue;flow.Sequence;3_0_5;NA;NA;skipped;NA;813113;NA;NA;813040;813114;2023-06-19T19:15:15Z;813885.7;NULL;NA;NA;NA;NA;NA;NA;NA;sdf;NA;5;NA;NA;NA;NA;NA;NA;NA;NA;NA;NA;NA;NA;NA;NA;NA;NA;NA;NA;NA;;;
e8f56;check;continue;flow.Sequence;3_0_6;NA;NA;skipped;NA;813156;NA;NA;813040;813156;2023-06-19T19:15:15Z;813885.7;NULL;NA;NA;NA;NA;NA;NA;NA;dfs;NA;6;NA;NA;NA;NA;NA;NA;NA;NA;NA;NA;NA;NA;NA;NA;NA;NA;NA;NA;NA;;;
e8f56;check;continue;flow.Sequence;3_0_7;NA;NA;skipped;NA;813191;NA;NA;813040;813191;2023-06-19T19:15:15Z;813885.7;NULL;NA;NA;NA;NA;NA;NA;NA;df;NA;7;NA;NA;NA;NA;NA;NA;NA;NA;NA;NA;NA;NA;NA;NA;NA;NA;NA;NA;NA;;;
e8f56;check;continue;flow.Sequence;3_0_8;NA;NA;skipped;NA;813224;NA;NA;813040;813224;2023-06-19T19:15:15Z;813885.7;NULL;NA;NA;NA;NA;NA;NA;NA;dfs;NA;8;NA;NA;NA;NA;NA;NA;NA;NA;NA;NA;NA;NA;NA;NA;NA;NA;NA;NA;NA;;;
e8f56;check;continue;flow.Sequence;3_0_9;NA;NA;skipped;NA;813262;NA;NA;813040;813262;2023-06-19T19:15:15Z;813885.7;NULL;NA;NA;NA;NA;NA;NA;NA;dsf;NA;9;NA;NA;NA;NA;NA;NA;NA;NA;NA;NA;NA;NA;NA;NA;NA;NA;NA;NA;NA;;;
e8f56;check;continue;flow.Sequence;3_0_10;NA;NA;skipped;NA;813297;NA;NA;813040;813298;2023-06-19T19:15:15Z;813885.7;NULL;NA;NA;NA;NA;NA;NA;NA;df;NA;10;NA;NA;NA;NA;NA;NA;NA;NA;NA;NA;NA;NA;NA;NA;NA;NA;NA;NA;NA;;;
e8f56;check;continue;flow.Sequence;3_0_11;NA;NA;skipped;NA;813328;NA;NA;813040;813329;2023-06-19T19:15:15Z;813885.7;NULL;NA;NA;NA;NA;NA;NA;NA;dfs;NA;11;NA;NA;NA;NA;NA;NA;NA;NA;NA;NA;NA;NA;NA;NA;NA;NA;NA;NA;NA;;;
e8f56;check;continue;flow.Sequence;3_0_12;NA;NA;skipped;NA;813363;NA;NA;813040;813363;2023-06-19T19:15:15Z;813885.7;NULL;NA;NA;NA;NA;NA;NA;NA;dsf;NA;12;NA;NA;NA;NA;NA;NA;NA;NA;NA;NA;NA;NA;NA;NA;NA;NA;NA;NA;NA;;;
e8f56;check;continue;flow.Sequence;3_0_13;NA;NA;skipped;NA;813396;NA;NA;813040;813396;2023-06-19T19:15:15Z;813885.7;NULL;NA;NA;NA;NA;NA;NA;NA;dsf;NA;13;NA;NA;NA;NA;NA;NA;NA;NA;NA;NA;NA;NA;NA;NA;NA;NA;NA;NA;NA;;;
e8f56;check;continue;flow.Sequence;3_0_14;NA;NA;skipped;NA;813424;NA;NA;813040;813424;2023-06-19T19:15:15Z;813885.7;NULL;NA;NA;NA;NA;NA;NA;NA;NA;NA;14;NA;NA;NA;NA;NA;NA;NA;NA;NA;NA;NA;NA;NA;NA;NA;NA;NA;NA;NA;;;
e8f56;check;continue;flow.Sequence;3_0_15;NA;NA;skipped;NA;813453;NA;NA;813040;813453;2023-06-19T19:15:15Z;813885.7;NULL;NA;NA;NA;NA;NA;NA;NA;NA;NA;15;NA;NA;NA;NA;NA;NA;NA;NA;NA;NA;NA;NA;NA;NA;NA;NA;NA;NA;NA;;;
e8f56;check;continue;flow.Sequence;3_0_16;NA;NA;skipped;NA;813482;NA;NA;813040;813482;2023-06-19T19:15:15Z;813885.7;NULL;NA;NA;NA;NA;NA;NA;NA;NA;NA;16;NA;NA;NA;NA;NA;NA;NA;NA;NA;NA;NA;NA;NA;NA;NA;NA;NA;NA;NA;;;
e8f56;check;continue;flow.Sequence;3_0_17;NA;NA;skipped;NA;813517;NA;NA;813040;813517;2023-06-19T19:15:15Z;813885.7;NULL;NA;NA;NA;NA;NA;NA;NA;NA;NA;17;NA;NA;NA;NA;NA;NA;NA;NA;NA;NA;NA;NA;NA;NA;NA;NA;NA;NA;NA;;;
e8f56;check;continue;flow.Sequence;3_0_18;NA;NA;skipped;NA;813546;NA;NA;813040;813546;2023-06-19T19:15:15Z;813885.7;NULL;NA;NA;NA;NA;NA;NA;NA;NA;NA;18;NA;NA;NA;NA;NA;NA;NA;NA;NA;NA;NA;NA;NA;NA;NA;NA;NA;NA;NA;;;
e8f56;check;continue;flow.Sequence;3_0_19;NA;NA;skipped;NA;813575;NA;NA;813040;813575;2023-06-19T19:15:15Z;813885.7;NULL;NA;NA;NA;NA;NA;NA;NA;NA;NA;19;NA;NA;NA;NA;NA;NA;NA;NA;NA;NA;NA;NA;NA;NA;NA;NA;NA;NA;NA;;;
e8f56;check;continue;flow.Sequence;3_0_20;NA;NA;skipped;NA;813611;NA;NA;813040;813611;2023-06-19T19:15:15Z;813885.7;NULL;NA;NA;NA;NA;NA;NA;NA;NA;NA;20;NA;NA;NA;NA;NA;NA;NA;NA;NA;NA;NA;NA;NA;NA;NA;NA;NA;NA;NA;;;
e8f56;check;continue;flow.Sequence;3_0_21;NA;NA;skipped;NA;813638;NA;NA;813040;813638;2023-06-19T19:15:15Z;813885.7;NULL;NA;NA;NA;NA;NA;NA;NA;NA;NA;21;NA;NA;NA;NA;NA;NA;NA;NA;NA;NA;NA;NA;NA;NA;NA;NA;NA;NA;NA;;;
e8f56;check;continue;flow.Sequence;3_0_22;NA;NA;skipped;NA;813672;NA;NA;813040;813672;2023-06-19T19:15:15Z;813885.7;NULL;NA;NA;NA;NA;NA;NA;NA;NA;NA;22;NA;NA;NA;NA;NA;NA;NA;NA;NA;NA;NA;NA;NA;NA;NA;NA;NA;NA;NA;;;
e8f56;check;continue;flow.Sequence;3_0_23;NA;NA;skipped;NA;813700;NA;NA;813040;813700;2023-06-19T19:15:15Z;813885.7;NULL;NA;NA;NA;NA;NA;NA;NA;NA;NA;23;NA;NA;NA;NA;NA;NA;NA;NA;NA;NA;NA;NA;NA;NA;NA;NA;NA;NA;NA;;;
e8f56;check;continue;flow.Sequence;3_0_24;NA;NA;skipped;NA;813732;NA;NA;813040;813732;2023-06-19T19:15:15Z;813885.7;NULL;NA;NA;NA;NA;NA;NA;NA;NA;NA;24;NA;NA;NA;NA;NA;NA;NA;NA;NA;NA;NA;NA;NA;NA;NA;NA;NA;NA;NA;;;
e8f56;check;continue;flow.Sequence;3_0_25;NA;NA;skipped;NA;813761;NA;NA;813040;813762;2023-06-19T19:15:15Z;813885.7;NULL;NA;NA;NA;NA;NA;NA;NA;NA;NA;25;NA;NA;NA;NA;NA;NA;NA;NA;NA;NA;NA;NA;NA;NA;NA;NA;NA;NA;NA;;;
e8f56;check;continue;flow.Sequence;3_0_26;NA;NA;skipped;NA;813788;NA;NA;813040;813789;2023-06-19T19:15:15Z;813885.7;NULL;NA;NA;NA;NA;NA;NA;NA;NA;NA;26;NA;NA;NA;NA;NA;NA;NA;NA;NA;NA;NA;NA;NA;NA;NA;NA;NA;NA;NA;;;
e8f56;check;continue;flow.Sequence;3_0_27;NA;NA;skipped;NA;813821;NA;NA;813040;813822;2023-06-19T19:15:15Z;813885.7;NULL;NA;NA;NA;NA;NA;NA;NA;NA;NA;27;NA;NA;NA;NA;NA;NA;NA;NA;NA;NA;NA;NA;NA;NA;NA;NA;NA;NA;NA;;;
e8f56;check;continue;flow.Sequence;3_0_28;NA;NA;skipped;NA;813854;NA;NA;813040;813854;2023-06-19T19:15:15Z;813885.7;NULL;NA;NA;NA;NA;NA;NA;NA;NA;NA;28;NA;NA;NA;NA;NA;NA;NA;NA;NA;NA;NA;NA;NA;NA;NA;NA;NA;NA;NA;;;
e8f56;check;continue;flow.Sequence;3_0_29;NA;NA;skipped;NA;813885;NA;NA;813040;813885;2023-06-19T19:15:15Z;813885.7;NULL;NA;NA;NA;NA;NA;NA;NA;NA;NA;29;NA;NA;NA;NA;NA;NA;NA;NA;NA;NA;NA;NA;NA;NA;NA;NA;NA;NA;NA;;;
e8f56;until;continue;flow.Loop;3_0;NA;NA;completion;455397.86;357598;357641.66;357642.14;813040;813885;2023-06-19T19:15:15Z;813885.7;NULL;NA;NA;NA;NA;NA;NA;NA;NA;NA;NA;NA;NA;NA;NA;NA;NA;NA;NA;NA;NA;NA;NA;NA;NA;NA;NA;NA;NA;NA;;;
e8f56;block;1;flow.Sequence;3;NA;NA;completion;455397.86;357598;357641.66;357642.14;813040;813885;2023-06-19T19:15:15Z;813885.7;NULL;NA;NA;NA;NA;NA;NA;NA;NA;NA;NA;NA;NA;NA;NA;NA;NA;NA;NA;NA;NA;NA;NA;NA;NA;NA;NA;NA;NA;NA;;;
e8f56;1.Part;Over;canvas.Screen;4;NA;keypress(Space);response;-1.7;813885;813885.34;813885.7;813884;813890;2023-06-19T19:15:15Z;813955.76;NULL;NA;NA;NA;NA;NA;NA;NA;NA;NA;NA;NA;NA;NA;NA;NA;NA;NA;NA;NA;NA;NA;NA;NA;NA;NA;NA;NA;NA;NA;;;
e8f56;Deep;Question;html.Page;5_0_0_0_0_0_0;NA;NA;form;submission;3759.24;813952;813934.66;813955.76;817715;817715;2023-06-19T19:15:19Z;817726.38;NULL;Inhalt;yaliyomo;d;NA;NA;NA;d;NA;NA;0;NA;NA;NA;NA;NA;NA;NA;NA;NA;NA;NA;NA;NA;NA;NA;NA;NA;NA;NA;;
e8f56;"""Richtig""-Screen";canvas.Screen;5_0_0_0_0_0_1;NA;NA;skipped;NA;817717;NA;NA;817715;817717;2023-06-19T19:15:19Z;817726.38;NULL;Inhalt;yaliyomo;d;NA;NA;NA;NA;sdf;NA;0;NA;NA;NA;NA;NA;NA;NA;NA;NA;NA;NA;NA;NA;NA;NA;NA;NA;NA;NA;;;;
e8f56;"""Falsch""-Screen";canvas.Screen;5_0_0_0_0_0_2;NA;NA;timeout;5000.02;817720;817709.68;817726.38;822706;822708;2023-06-19T19:15:24Z;822726.4;NULL;Inhalt;yaliyomo;d;NA;NA;NA;NA;sdf;0;0;NA;NA;NA;NA;NA;NA;NA;NA;NA;NA;NA;NA;NA;NA;NA;NA;NA;NA;NA;;;;
e8f56;deep;flow.Sequence;5_0_0_0_0_0;NA;NA;completion;8750.24;813952;813934.66;813955.76;822706;822708;2023-06-19T19:15:24Z;822726.4;NULL;Inhalt;yaliyomo;d;NA;NA;NA;NA;sdf;NA;0;NA;NA;NA;NA;NA;NA;NA;NA;NA;NA;NA;NA;NA;NA;NA;NA;NA;NA;NA;;;;
e8f56;shallow;flow.Sequence;5_0_0_0_0_1;NA;NA;skipped;NA;822709;NA;NA;822706;822709;2023-06-19T19:15:24Z;822726.4;NULL;Inhalt;yaliyomo;d;NA;NA;NA;NA;sdf;NA;0;NA;NA;NA;NA;NA;NA;NA;NA;NA;NA;NA;NA;NA;NA;NA;NA;NA;NA;NA;;;;
e8f56;task;flow.Sequence;5_0_0_0_0;NA;NA;completion;8750.24;813952;813934.66;813955.76;822706;822709;2023-06-19T19:15:24Z;822726.4;NULL;Inhalt;yaliyomo;d;NA;NA;NA;NA;sdf;NA;0;NA;NA;NA;NA;NA;NA;NA;NA;NA;NA;NA;NA;NA;NA;NA;NA;NA;NA;NA;;;;
e8f56;deep;flow.Sequence;5_0_0_0_1_0;NA;NA;skipped;NA;822710;NA;NA;822706;822710;2023-06-19T19:15:24Z;822726.4;NULL;Sympathie;mapendano;s;dhamiria;fungamano;maazimio;NA;sdf;NA;0;NA;NA;NA;NA;NA;NA;NA;NA;NA;NA;NA;NA;NA;NA;NA;NA;NA;NA;NA;;;;
e8f56;Shallow;Question;html.Page;5_0_0_0_1_1_0;NA;NA;form;submission;8720.6;822710;822706;822726.4;831447;831448;2023-06-19T19:15:33Z;831455.64;NULL;Sympathie;mapendano;s;dhamiria;fungamano;maazimio;dhamiria;NA;NA;0;NA;NA;NA;NA;NA;NA;NA;NA;NA;NA;NA;NA;NA;NA;NA;NA;NA;NA;NA;;
e8f56;"""Richtig""-Screen";canvas.Screen;5_0_0_0_1_1_1;NA;NA;skipped;NA;831452;NA;NA;831447;831452;2023-06-19T19:15:33Z;831455.64;NULL;Sympathie;mapendano;s;dhamiria;fungamano;maazimio;NA;sdf;NA;0;NA;NA;NA;NA;NA;NA;NA;NA;NA;NA;NA;NA;NA;NA;NA;NA;NA;NA;NA;;;;
e8f56;"""Falsch""-Screen";canvas.Screen;5_0_0_0_1_1_2;NA;NA;timeout;5000;831456;831441.64;831455.64;836434.86;836436;2023-06-19T19:15:38Z;836455.64;NULL;Sympathie;mapendano;s;dhamiria;fungamano;maazimio;NA;sdf;0;0;NA;NA;NA;NA;NA;NA;NA;NA;NA;NA;NA;NA;NA;NA;NA;NA;NA;NA;NA;;;;
e8f56;shallow;flow.Sequence;5_0_0_0_1_1;NA;NA;completion;13708.46;822710;822706;822726.4;836434.86;836437;2023-06-19T19:15:38Z;836455.64;NULL;Sympathie;mapendano;s;dhamiria;fungamano;maazimio;NA;sdf;NA;0;NA;NA;NA;NA;NA;NA;NA;NA;NA;NA;NA;NA;NA;NA;NA;NA;NA;NA;NA;;;;
e8f56;task;flow.Sequence;5_0_0_0_1;NA;NA;completion;13708.46;822709;822706;822726.4;836434.86;836437;2023-06-19T19:15:38Z;836455.64;NULL;Sympathie;mapendano;s;dhamiria;fungamano;maazimio;NA;sdf;NA;0;NA;NA;NA;NA;NA;NA;NA;NA;NA;NA;NA;NA;NA;NA;NA;NA;NA;NA;NA;;;;
e8f56;Deep;Question;html.Page;5_0_0_0_2_0_0;NA;NA;form;submission;3911.36;836437;836434.86;836455.64;840367;840367;2023-06-19T19:15:42Z;840372.38;NULL;Beweis;ushahidi;d;NA;NA;NA;d;NA;NA;0;NA;NA;NA;NA;NA;NA;NA;NA;NA;NA;NA;NA;NA;NA;NA;NA;NA;NA;NA;;
e8f56;"""Richtig""-Screen";canvas.Screen;5_0_0_0_2_0_1;NA;NA;skipped;NA;840370;NA;NA;840367;840370;2023-06-19T19:15:42Z;840372.38;NULL;Beweis;ushahidi;d;NA;NA;NA;NA;sdf;NA;0;NA;NA;NA;NA;NA;NA;NA;NA;NA;NA;NA;NA;NA;NA;NA;NA;NA;NA;NA;;;;
e8f56;"""Falsch""-Screen";canvas.Screen;5_0_0_0_2_0_2;NA;NA;timeout;5000.16;840373;840363.04;840372.38;845351.82;845353;2023-06-19T19:15:47Z;845372.54;NULL;Beweis;ushahidi;d;NA;NA;NA;NA;sdf;0;0;NA;NA;NA;NA;NA;NA;NA;NA;NA;NA;NA;NA;NA;NA;NA;NA;NA;NA;NA;;;;
e8f56;deep;flow.Sequence;5_0_0_0_2_0;NA;NA;completion;8896.18;836437;836434.86;836455.64;845351.82;845354;2023-06-19T19:15:47Z;845372.54;NULL;Beweis;ushahidi;d;NA;NA;NA;NA;sdf;NA;0;NA;NA;NA;NA;NA;NA;NA;NA;NA;NA;NA;NA;NA;NA;NA;NA;NA;NA;NA;;;;
e8f56;shallow;flow.Sequence;5_0_0_0_2_1;NA;NA;skipped;NA;845354;NA;NA;845351.82;845354;2023-06-19T19:15:47Z;845372.54;NULL;Beweis;ushahidi;d;NA;NA;NA;NA;sdf;NA;0;NA;NA;NA;NA;NA;NA;NA;NA;NA;NA;NA;NA;NA;NA;NA;NA;NA;NA;NA;;;;
e8f56;task;flow.Sequence;5_0_0_0_2;NA;NA;completion;8896.18;836437;836434.86;836455.64;845351.82;845354;2023-06-19T19:15:47Z;845372.54;NULL;Beweis;ushahidi;d;NA;NA;NA;NA;sdf;NA;0;NA;NA;NA;NA;NA;NA;NA;NA;NA;NA;NA;NA;NA;NA;NA;NA;NA;NA;NA;;;;
e8f56;deep;flow.Sequence;5_0_0_0_3_0;NA;NA;skipped;NA;845354;NA;NA;845351.82;845354;2023-06-19T19:15:47Z;845372.54;NULL;Schlange;foleni;s;uvumilivu;uteuzi;muuzaji;NA;sdf;NA;0;NA;NA;NA;NA;NA;NA;NA;NA;NA;NA;NA;NA;NA;NA;NA;NA;NA;NA;NA;;;;
e8f56;Shallow;Question;html.Page;5_0_0_0_3_1_0;NA;NA;form;submission;3227.46;845354;845351.82;845372.54;848600;848600;2023-06-19T19:15:50Z;848601.54;NULL;Schlange;foleni;s;uvumilivu;uteuzi;muuzaji;foleni;NA;NA;0;NA;NA;NA;NA;NA;NA;NA;NA;NA;NA;NA;NA;NA;NA;NA;NA;NA;NA;NA;;
e8f56;"""Richtig""-Screen";canvas.Screen;5_0_0_0_3_1_1;NA;NA;timeout;4999.96;848602;848597.38;848601.54;853580.78;853582;2023-06-19T19:15:55Z;853601.5;NULL;Schlange;foleni;s;uvumilivu;uteuzi;muuzaji;NA;sdf;1;0;NA;NA;NA;NA;NA;NA;NA;NA;NA;NA;NA;NA;NA;NA;NA;NA;NA;NA;NA;;;;
e8f56;"""Falsch""-Screen";canvas.Screen;5_0_0_0_3_1_2;NA;NA;skipped;NA;853585;NA;NA;853580.78;853585;2023-06-19T19:15:55Z;853601.5;NULL;Schlange;foleni;s;uvumilivu;uteuzi;muuzaji;NA;sdf;NA;0;NA;NA;NA;NA;NA;NA;NA;NA;NA;NA;NA;NA;NA;NA;NA;NA;NA;NA;NA;;;;
e8f56;shallow;flow.Sequence;5_0_0_0_3_1;NA;NA;completion;8208.24;845354;845351.82;845372.54;853580.78;853585;2023-06-19T19:15:55Z;853601.5;NULL;Schlange;foleni;s;uvumilivu;uteuzi;muuzaji;NA;sdf;NA;0;NA;NA;NA;NA;NA;NA;NA;NA;NA;NA;NA;NA;NA;NA;NA;NA;NA;NA;NA;;;;
e8f56;task;flow.Sequence;5_0_0_0_3;NA;NA;completion;8208.24;845354;845351.82;845372.54;853580.78;853585;2023-06-19T19:15:55Z;853601.5;NULL;Schlange;foleni;s;uvumilivu;uteuzi;muuzaji;NA;sdf;NA;0;NA;NA;NA;NA;NA;NA;NA;NA;NA;NA;NA;NA;NA;NA;NA;NA;NA;NA;NA;;;;
e8f56;Deep;Question;html.Page;5_0_0_0_4_0_0;NA;NA;form;submission;3458.5;853586;853580.78;853601.5;857060;857061;2023-06-19T19:15:59Z;857060.18;NULL;Polizist;msongora;d;NA;NA;NA;d;NA;NA;0;NA;NA;NA;NA;NA;NA;NA;NA;NA;NA;NA;NA;NA;NA;NA;NA;NA;NA;NA;;
e8f56;"""Richtig""-Screen";canvas.Screen;5_0_0_0_4_0_1;NA;NA;skipped;NA;857066;NA;NA;857060;857066;2023-06-19T19:15:59Z;857060.18;NULL;Polizist;msongora;d;NA;NA;NA;NA;sdf;NA;0;NA;NA;NA;NA;NA;NA;NA;NA;NA;NA;NA;NA;NA;NA;NA;NA;NA;NA;NA;;;;
e8f56;"""Falsch""-Screen";canvas.Screen;5_0_0_0_4_0_2;NA;NA;timeout;4999.72;857069;857052.82;857060.18;862039.46;862044;2023-06-19T19:16:04Z;862059.9;NULL;Polizist;msongora;d;NA;NA;NA;NA;sdf;0;0;NA;NA;NA;NA;NA;NA;NA;NA;NA;NA;NA;NA;NA;NA;NA;NA;NA;NA;NA;;;;
e8f56;deep;flow.Sequence;5_0_0_0_4_0;NA;NA;completion;8437.96;853586;853580.78;853601.5;862039.46;862047;2023-06-19T19:16:04Z;862059.9;NULL;Polizist;msongora;d;NA;NA;NA;NA;sdf;NA;0;NA;NA;NA;NA;NA;NA;NA;NA;NA;NA;NA;NA;NA;NA;NA;NA;NA;NA;NA;;;;
e8f56;shallow;flow.Sequence;5_0_0_0_4_1;NA;NA;skipped;NA;862050;NA;NA;862039.46;862051;2023-06-19T19:16:04Z;862059.9;NULL;Polizist;msongora;d;NA;NA;NA;NA;sdf;NA;0;NA;NA;NA;NA;NA;NA;NA;NA;NA;NA;NA;NA;NA;NA;NA;NA;NA;NA;NA;;;;
e8f56;task;flow.Sequence;5_0_0_0_4;NA;NA;completion;8437.96;853585;853580.78;853601.5;862039.46;862052;2023-06-19T19:16:04Z;862059.9;NULL;Polizist;msongora;d;NA;NA;NA;NA;sdf;NA;0;NA;NA;NA;NA;NA;NA;NA;NA;NA;NA;NA;NA;NA;NA;NA;NA;NA;NA;NA;;;;
e8f56;deep;flow.Sequence;5_0_0_0_5_0;NA;NA;skipped;NA;862053;NA;NA;862039.46;862053;2023-06-19T19:16:04Z;862059.9;NULL;Toleranz;kuvumiliana;s;maombolezo;ujasusi;mchekeshaji;NA;sdf;NA;0;NA;NA;NA;NA;NA;NA;NA;NA;NA;NA;NA;NA;NA;NA;NA;NA;NA;NA;NA;;;;
e8f56;Shallow;Question;html.Page;5_0_0_0_5_1_0;NA;NA;form;submission;3581.1;862054;862039.46;862059.9;865641;865642;2023-06-19T19:16:07Z;865643.26;NULL;Toleranz;kuvumiliana;s;maombolezo;ujasusi;mchekeshaji;kuvumiliana;NA;NA;0;NA;NA;NA;NA;NA;NA;NA;NA;NA;NA;NA;NA;NA;NA;NA;NA;NA;NA;NA;;
e8f56;"""Richtig""-Screen";canvas.Screen;5_0_0_0_5_1_1;NA;NA;timeout;5000.16;865651;865634.58;865643.26;870622.52;870624;2023-06-19T19:16:12Z;870643.42;NULL;Toleranz;kuvumiliana;s;maombolezo;ujasusi;mchekeshaji;NA;sdf;1;0;NA;NA;NA;NA;NA;NA;NA;NA;NA;NA;NA;NA;NA;NA;NA;NA;NA;NA;NA;;;;
e8f56;"""Falsch""-Screen";canvas.Screen;5_0_0_0_5_1_2;NA;NA;skipped;NA;870628;NA;NA;870622.52;870629;2023-06-19T19:16:12Z;870643.42;NULL;Toleranz;kuvumiliana;s;maombolezo;ujasusi;mchekeshaji;NA;sdf;NA;0;NA;NA;NA;NA;NA;NA;NA;NA;NA;NA;NA;NA;NA;NA;NA;NA;NA;NA;NA;;;;
e8f56;shallow;flow.Sequence;5_0_0_0_5_1;NA;NA;completion;8562.62;862054;862039.46;862059.9;870622.52;870629;2023-06-19T19:16:12Z;870643.42;NULL;Toleranz;kuvumiliana;s;maombolezo;ujasusi;mchekeshaji;NA;sdf;NA;0;NA;NA;NA;NA;NA;NA;NA;NA;NA;NA;NA;NA;NA;NA;NA;NA;NA;NA;NA;;;;
e8f56;task;flow.Sequence;5_0_0_0_5;NA;NA;completion;8562.62;862052;862039.46;862059.9;870622.52;870630;2023-06-19T19:16:12Z;870643.42;NULL;Toleranz;kuvumiliana;s;maombolezo;ujasusi;mchekeshaji;NA;sdf;NA;0;NA;NA;NA;NA;NA;NA;NA;NA;NA;NA;NA;NA;NA;NA;NA;NA;NA;NA;NA;;;;
e8f56;Deep;Question;html.Page;5_0_0_0_6_0_0;NA;NA;form;submission;5267.58;870631;870622.52;870643.42;875911;875912;2023-06-19T19:16:17Z;875914.12;NULL;Vermutung;udhanifu;d;NA;NA;NA;d;NA;NA;0;NA;NA;NA;NA;NA;NA;NA;NA;NA;NA;NA;NA;NA;NA;NA;NA;NA;NA;NA;;
e8f56;"""Richtig""-Screen";canvas.Screen;5_0_0_0_6_0_1;NA;NA;skipped;NA;875915;NA;NA;875911;875915;2023-06-19T19:16:17Z;875914.12;NULL;Vermutung;udhanifu;d;NA;NA;NA;NA;sdf;NA;0;NA;NA;NA;NA;NA;NA;NA;NA;NA;NA;NA;NA;NA;NA;NA;NA;NA;NA;NA;;;;
e8f56;"""Falsch""-Screen";canvas.Screen;5_0_0_0_6_0_2;NA;NA;timeout;5000.3;875918;875905;875914.12;880893.74;880895;2023-06-19T19:16:22Z;880914.42;NULL;Vermutung;udhanifu;d;NA;NA;NA;NA;sdf;0;0;NA;NA;NA;NA;NA;NA;NA;NA;NA;NA;NA;NA;NA;NA;NA;NA;NA;NA;NA;;;;
e8f56;deep;flow.Sequence;5_0_0_0_6_0;NA;NA;completion;10250.32;870630;870622.52;870643.42;880893.74;880895;2023-06-19T19:16:22Z;880914.42;NULL;Vermutung;udhanifu;d;NA;NA;NA;NA;sdf;NA;0;NA;NA;NA;NA;NA;NA;NA;NA;NA;NA;NA;NA;NA;NA;NA;NA;NA;NA;NA;;;;
e8f56;shallow;flow.Sequence;5_0_0_0_6_1;NA;NA;skipped;NA;880895;NA;NA;880893.74;880895;2023-06-19T19:16:22Z;880914.42;NULL;Vermutung;udhanifu;d;NA;NA;NA;NA;sdf;NA;0;NA;NA;NA;NA;NA;NA;NA;NA;NA;NA;NA;NA;NA;NA;NA;NA;NA;NA;NA;;;;
e8f56;task;flow.Sequence;5_0_0_0_6;NA;NA;completion;10250.32;870630;870622.52;870643.42;880893.74;880896;2023-06-19T19:16:22Z;880914.42;NULL;Vermutung;udhanifu;d;NA;NA;NA;NA;sdf;NA;0;NA;NA;NA;NA;NA;NA;NA;NA;NA;NA;NA;NA;NA;NA;NA;NA;NA;NA;NA;;;;
e8f56;deep;flow.Sequence;5_0_0_0_7_0;NA;NA;skipped;NA;880897;NA;NA;880893.74;880898;2023-06-19T19:16:22Z;880914.42;NULL;Annäherung;maegesho;s;madahili;kujiamini;mapendekezo;NA;sdf;NA;0;NA;NA;NA;NA;NA;NA;NA;NA;NA;NA;NA;NA;NA;NA;NA;NA;NA;NA;NA;;;;
e8f56;Shallow;Question;html.Page;5_0_0_0_7_1_0;NA;NA;form;submission;3608.58;880899;880893.74;880914.42;884523;884525;2023-06-19T19:16:26Z;884518.4;NULL;Annäherung;maegesho;s;madahili;kujiamini;mapendekezo;mapendekezo;NA;NA;0;NA;NA;NA;NA;NA;NA;NA;NA;NA;NA;NA;NA;NA;NA;NA;NA;NA;NA;NA;;
e8f56;"""Richtig""-Screen";canvas.Screen;5_0_0_0_7_1_1;NA;NA;skipped;NA;884528;NA;NA;884523;884528;2023-06-19T19:16:26Z;884518.4;NULL;Annäherung;maegesho;s;madahili;kujiamini;mapendekezo;NA;sdf;NA;0;NA;NA;NA;NA;NA;NA;NA;NA;NA;NA;NA;NA;NA;NA;NA;NA;NA;NA;NA;;;;
e8f56;"""Falsch""-Screen";canvas.Screen;5_0_0_0_7_1_2;NA;NA;timeout;5000.28;884532;884516.62;884518.4;889497.52;889499;2023-06-19T19:16:31Z;889518.68;NULL;Annäherung;maegesho;s;madahili;kujiamini;mapendekezo;NA;sdf;0;0;NA;NA;NA;NA;NA;NA;NA;NA;NA;NA;NA;NA;NA;NA;NA;NA;NA;NA;NA;;;;
e8f56;shallow;flow.Sequence;5_0_0_0_7_1;NA;NA;completion;8583.1;880898;880893.74;880914.42;889497.52;889500;2023-06-19T19:16:31Z;889518.68;NULL;Annäherung;maegesho;s;madahili;kujiamini;mapendekezo;NA;sdf;NA;0;NA;NA;NA;NA;NA;NA;NA;NA;NA;NA;NA;NA;NA;NA;NA;NA;NA;NA;NA;;;;
e8f56;task;flow.Sequence;5_0_0_0_7;NA;NA;completion;8583.1;880897;880893.74;880914.42;889497.52;889500;2023-06-19T19:16:31Z;889518.68;NULL;Annäherung;maegesho;s;madahili;kujiamini;mapendekezo;NA;sdf;NA;0;NA;NA;NA;NA;NA;NA;NA;NA;NA;NA;NA;NA;NA;NA;NA;NA;NA;NA;NA;;;;
e8f56;block;flow.Loop;5_0_0_0;NA;NA;completion;75541.76;813952;813934.66;813955.76;889497.52;889501;2023-06-19T19:16:31Z;889518.68;NULL;NA;NA;NA;NA;NA;NA;NA;sdf;NA;0;NA;NA;NA;NA;NA;NA;NA;NA;NA;NA;NA;NA;NA;NA;NA;NA;NA;NA;NA;;;;
e8f56;weiter;canvas.Screen;5_0_0_1;sdf;keypress(Space);response;1287.32;889501;889497.52;889518.68;890806;890819;2023-06-19T19:16:32Z;890879.7;NULL;NA;NA;NA;NA;NA;NA;NA;sdf;NA;0;NA;NA;NA;NA;NA;NA;NA;NA;NA;NA;NA;NA;NA;NA;NA;NA;NA;NA;NA;;;;
e8f56;check;continue;flow.Sequence;5_0_0;NA;NA;completion;76850.24;813952;813934.66;813955.76;890806;890820;2023-06-19T19:16:32Z;890879.7;NULL;NA;NA;NA;NA;NA;NA;NA;sdf;NA;0;NA;NA;NA;NA;NA;NA;NA;NA;NA;NA;NA;NA;NA;NA;NA;NA;NA;NA;NA;;;
e8f56;Deep;Question;html.Page;5_0_1_0_0_0_0;NA;NA;form;submission;9037.3;890879;890879.34;890879.7;899917;899917;2023-06-19T19:16:41Z;899914.24;NULL;Inhalt;yaliyomo;d;NA;NA;NA;yaliyolo;NA;NA;1;NA;NA;NA;NA;NA;NA;NA;NA;NA;NA;NA;NA;NA;NA;NA;NA;NA;NA;NA;;
e8f56;"""Richtig""-Screen";canvas.Screen;5_0_1_0_0_0_1;NA;NA;skipped;NA;899921;NA;NA;899917;899921;2023-06-19T19:16:41Z;899914.24;NULL;Inhalt;yaliyomo;d;NA;NA;NA;NA;sdfdsf;NA;1;NA;NA;NA;NA;NA;NA;NA;NA;NA;NA;NA;NA;NA;NA;NA;NA;NA;NA;NA;;;;
e8f56;"""Falsch""-Screen";canvas.Screen;5_0_1_0_0_0_2;NA;NA;timeout;5000.36;899925;899911.9;899914.24;904893.88;904894;2023-06-19T19:16:46Z;904914.6;NULL;Inhalt;yaliyomo;d;NA;NA;NA;NA;sdfdsf;0;1;NA;NA;NA;NA;NA;NA;NA;NA;NA;NA;NA;NA;NA;NA;NA;NA;NA;NA;NA;;;;
e8f56;deep;flow.Sequence;5_0_1_0_0_0;NA;NA;completion;14014.18;890879;890879.34;890879.7;904893.88;904895;2023-06-19T19:16:46Z;904914.6;NULL;Inhalt;yaliyomo;d;NA;NA;NA;NA;sdfdsf;NA;1;NA;NA;NA;NA;NA;NA;NA;NA;NA;NA;NA;NA;NA;NA;NA;NA;NA;NA;NA;;;;
e8f56;shallow;flow.Sequence;5_0_1_0_0_1;NA;NA;skipped;NA;904895;NA;NA;904893.88;904895;2023-06-19T19:16:46Z;904914.6;NULL;Inhalt;yaliyomo;d;NA;NA;NA;NA;sdfdsf;NA;1;NA;NA;NA;NA;NA;NA;NA;NA;NA;NA;NA;NA;NA;NA;NA;NA;NA;NA;NA;;;;
e8f56;task;flow.Sequence;5_0_1_0_0;NA;NA;completion;14014.18;890879;890879.34;890879.7;904893.88;904895;2023-06-19T19:16:46Z;904914.6;NULL;Inhalt;yaliyomo;d;NA;NA;NA;NA;sdfdsf;NA;1;NA;NA;NA;NA;NA;NA;NA;NA;NA;NA;NA;NA;NA;NA;NA;NA;NA;NA;NA;;;;
e8f56;Deep;Question;html.Page;5_0_1_0_1_0_0;NA;NA;form;submission;5088.4;904895;904893.88;904914.6;910003;910003;2023-06-19T19:16:51Z;909997.56;NULL;Polizist;msongora;d;NA;NA;NA;d;NA;NA;1;NA;NA;NA;NA;NA;NA;NA;NA;NA;NA;NA;NA;NA;NA;NA;NA;NA;NA;NA;;
e8f56;"""Richtig""-Screen";canvas.Screen;5_0_1_0_1_0_1;NA;NA;skipped;NA;910007;NA;NA;910003;910007;2023-06-19T19:16:51Z;909997.56;NULL;Polizist;msongora;d;NA;NA;NA;NA;sdfdsf;NA;1;NA;NA;NA;NA;NA;NA;NA;NA;NA;NA;NA;NA;NA;NA;NA;NA;NA;NA;NA;;;;
e8f56;"""Falsch""-Screen";canvas.Screen;5_0_1_0_1_0_2;NA;NA;timeout;5000;910011;909996.76;909997.56;914976.88;914978;2023-06-19T19:16:56Z;914997.56;NULL;Polizist;msongora;d;NA;NA;NA;NA;sdfdsf;0;1;NA;NA;NA;NA;NA;NA;NA;NA;NA;NA;NA;NA;NA;NA;NA;NA;NA;NA;NA;;;;
e8f56;deep;flow.Sequence;5_0_1_0_1_0;NA;NA;completion;10062.28;904895;904893.88;904914.6;914976.88;914979;2023-06-19T19:16:56Z;914997.56;NULL;Polizist;msongora;d;NA;NA;NA;NA;sdfdsf;NA;1;NA;NA;NA;NA;NA;NA;NA;NA;NA;NA;NA;NA;NA;NA;NA;NA;NA;NA;NA;;;;
e8f56;shallow;flow.Sequence;5_0_1_0_1_1;NA;NA;skipped;NA;914979;NA;NA;914976.88;914980;2023-06-19T19:16:56Z;914997.56;NULL;Polizist;msongora;d;NA;NA;NA;NA;sdfdsf;NA;1;NA;NA;NA;NA;NA;NA;NA;NA;NA;NA;NA;NA;NA;NA;NA;NA;NA;NA;NA;;;;
e8f56;task;flow.Sequence;5_0_1_0_1;NA;NA;completion;10062.28;904895;904893.88;904914.6;914976.88;914980;2023-06-19T19:16:56Z;914997.56;NULL;Polizist;msongora;d;NA;NA;NA;NA;sdfdsf;NA;1;NA;NA;NA;NA;NA;NA;NA;NA;NA;NA;NA;NA;NA;NA;NA;NA;NA;NA;NA;;;;
e8f56;deep;flow.Sequence;5_0_1_0_2_0;NA;NA;skipped;NA;914981;NA;NA;914976.88;914981;2023-06-19T19:16:56Z;914997.56;NULL;Annäherung;maegesho;s;madahili;kujiamini;mapendekezo;NA;sdfdsf;NA;1;NA;NA;NA;NA;NA;NA;NA;NA;NA;NA;NA;NA;NA;NA;NA;NA;NA;NA;NA;;;;
e8f56;Shallow;Question;html.Page;5_0_1_0_2_1_0;NA;NA;form;submission;12325.44;914982;914976.88;914997.56;927323;927327;2023-06-19T19:17:09Z;927331.1;NULL;Annäherung;maegesho;s;madahili;kujiamini;mapendekezo;maegesho;NA;NA;1;NA;NA;NA;NA;NA;NA;NA;NA;NA;NA;NA;NA;NA;NA;NA;NA;NA;NA;NA;;
e8f56;"""Richtig""-Screen";canvas.Screen;5_0_1_0_2_1_1;NA;NA;timeout;4999.84;927343;927312.12;927331.1;932310.48;932312;2023-06-19T19:17:14Z;932330.94;NULL;Annäherung;maegesho;s;madahili;kujiamini;mapendekezo;NA;sdfdsf;1;1;NA;NA;NA;NA;NA;NA;NA;NA;NA;NA;NA;NA;NA;NA;NA;NA;NA;NA;NA;;;;
e8f56;"""Falsch""-Screen";canvas.Screen;5_0_1_0_2_1_2;NA;NA;skipped;NA;932315;NA;NA;932310.48;932315;2023-06-19T19:17:14Z;932330.94;NULL;Annäherung;maegesho;s;madahili;kujiamini;mapendekezo;NA;sdfdsf;NA;1;NA;NA;NA;NA;NA;NA;NA;NA;NA;NA;NA;NA;NA;NA;NA;NA;NA;NA;NA;;;;
e8f56;shallow;flow.Sequence;5_0_1_0_2_1;NA;NA;completion;17312.92;914981;914976.88;914997.56;932310.48;932315;2023-06-19T19:17:14Z;932330.94;NULL;Annäherung;maegesho;s;madahili;kujiamini;mapendekezo;NA;sdfdsf;NA;1;NA;NA;NA;NA;NA;NA;NA;NA;NA;NA;NA;NA;NA;NA;NA;NA;NA;NA;NA;;;;
e8f56;task;flow.Sequence;5_0_1_0_2;NA;NA;completion;17312.92;914981;914976.88;914997.56;932310.48;932315;2023-06-19T19:17:14Z;932330.94;NULL;Annäherung;maegesho;s;madahili;kujiamini;mapendekezo;NA;sdfdsf;NA;1;NA;NA;NA;NA;NA;NA;NA;NA;NA;NA;NA;NA;NA;NA;NA;NA;NA;NA;NA;;;;
