observation;sender;sender_type;sender_id;response;response_action;ended_on;duration;time_run;time_render;time_show;time_end;time_commit;timestamp;time_switch;german;swahili;enc;distractor1;distractor2;distractor3;response_2;x;correct;distractors;url_vp;url_sess;meta_labjs_version;meta_location;meta_user_agent;meta_platform;meta_language;meta_locale;meta_time_zone;meta_timezone_offset;meta_screen_width;meta_screen_height;meta_scroll_width;meta_scroll_height;meta_window_inner_width;meta_window_inner_height;meta_device_pixel_ratio;meta_labjs_build_flavor;meta_labjs_build_commit;;;;
1a5fb;Introduction;delayed;retrieval;canvas.Screen;0;weiter;keypress(Space);response;3446.04;783.9;554.36;787.56;4233.6;4235.2;2023-05-14T18:26:59Z;4237.538;NA;NA;NA;NA;NA;NA;NA;NA;NA;NULL;171;2;20.02.2004;https://neurocog.fernuni.ch/studies/vweber/sliechti/delayed/index.html?vp=171&sess=2;Mozilla/5.0 (Windows NT 10.0;;;;;;;;;;;;;;;;
1a5fb;Deep;Question;html.Page;1_0_0_0;NA;NA;form;submission;3829.662;4235.4;4220.886;4237.538;8067.2;8067.4;2023-05-14T18:27:03Z;8070.848;Orientierung;urekebisho;d;uelekeo;marekebisho;utunzaji;g;NA;NA;NULL;NA;NA;NA;NA;NA;NA;NA;NA;NA;NA;NA;NA;NA;NA;NA;NA;NA;NA;NA;;
1a5fb;Save;data;screen;canvas.Screen;1_0_0_1;NA;NA;timeout;499.924;8068.2;8054.167;8070.848;8554.165;8555.4;2023-05-14T18:27:03Z;8570.772;Orientierung;urekebisho;d;uelekeo;marekebisho;utunzaji;NA;NA;0;NULL;NA;NA;NA;NA;NA;NA;NA;NA;NA;NA;NA;NA;NA;NA;NA;NA;NA;NA;NA;;
1a5fb;deep;flow.Sequence;1_0_0;NA;NA;completion;4316.627;4235.4;4220.886;4237.538;8554.165;8555.7;2023-05-14T18:27:03Z;8570.772;Orientierung;urekebisho;d;uelekeo;marekebisho;utunzaji;NA;NA;NA;NULL;NA;NA;NA;NA;NA;NA;NA;NA;NA;NA;NA;NA;NA;NA;NA;NA;NA;NA;NA;;;;
1a5fb;task;flow.Sequence;1_0;NA;NA;completion;4316.627;4235.4;4220.886;4237.538;8554.165;8555.9;2023-05-14T18:27:03Z;8570.772;Orientierung;urekebisho;d;uelekeo;marekebisho;utunzaji;NA;NA;NA;NULL;NA;NA;NA;NA;NA;NA;NA;NA;NA;NA;NA;NA;NA;NA;NA;NA;NA;NA;NA;;;;
1a5fb;Deep;Question;html.Page;1_1_0_0;NA;NA;form;submission;2256.028;8556.1;8554.165;8570.772;10826.8;10827;2023-05-14T18:27:05Z;10837.414;Niveau;kiwango;d;usimamizi;mwamali;mshairi;g;NA;NA;NULL;NA;NA;NA;NA;NA;NA;NA;NA;NA;NA;NA;NA;NA;NA;NA;NA;NA;NA;NA;;
1a5fb;Save;data;screen;canvas.Screen;1_1_0_1;NA;NA;timeout;500.052;10827.8;10820.744;10837.414;11320.765;11321.9;2023-05-14T18:27:06Z;11337.466;Niveau;kiwango;d;usimamizi;mwamali;mshairi;NA;NA;0;NULL;NA;NA;NA;NA;NA;NA;NA;NA;NA;NA;NA;NA;NA;NA;NA;NA;NA;NA;NA;;
1a5fb;deep;flow.Sequence;1_1_0;NA;NA;completion;2749.993;8556;8554.165;8570.772;11320.765;11322.2;2023-05-14T18:27:06Z;11337.466;Niveau;kiwango;d;usimamizi;mwamali;mshairi;NA;NA;NA;NULL;NA;NA;NA;NA;NA;NA;NA;NA;NA;NA;NA;NA;NA;NA;NA;NA;NA;NA;NA;;;;
1a5fb;task;flow.Sequence;1_1;NA;NA;completion;2749.993;8556;8554.165;8570.772;11320.765;11322.4;2023-05-14T18:27:06Z;11337.466;Niveau;kiwango;d;usimamizi;mwamali;mshairi;NA;NA;NA;NULL;NA;NA;NA;NA;NA;NA;NA;NA;NA;NA;NA;NA;NA;NA;NA;NA;NA;NA;NA;;;;
1a5fb;Deep;Question;html.Page;1_2_0_0;NA;NA;form;submission;2293.234;11322.6;11320.765;11337.466;13630.7;13631;2023-05-14T18:27:08Z;13637.379;Flexibilität;kubadilika;s;enjini;usikilivu;hesabu;g;NA;NA;NULL;NA;NA;NA;NA;NA;NA;NA;NA;NA;NA;NA;NA;NA;NA;NA;NA;NA;NA;NA;;
1a5fb;Save;data;screen;canvas.Screen;1_2_0_1;NA;NA;timeout;500.022;13631.7;13621.642;13637.379;14120.762;14121.8;2023-05-14T18:27:09Z;14137.401;Flexibilität;kubadilika;s;enjini;usikilivu;hesabu;NA;NA;0;NULL;NA;NA;NA;NA;NA;NA;NA;NA;NA;NA;NA;NA;NA;NA;NA;NA;NA;NA;NA;;
1a5fb;deep;flow.Sequence;1_2_0;NA;NA;completion;2783.296;11322.6;11320.765;11337.466;14120.762;14122.1;2023-05-14T18:27:09Z;14137.401;Flexibilität;kubadilika;s;enjini;usikilivu;hesabu;NA;NA;NA;NULL;NA;NA;NA;NA;NA;NA;NA;NA;NA;NA;NA;NA;NA;NA;NA;NA;NA;NA;NA;;;;
1a5fb;task;flow.Sequence;1_2;NA;NA;completion;2783.296;11322.5;11320.765;11337.466;14120.762;14122.3;2023-05-14T18:27:09Z;14137.401;Flexibilität;kubadilika;s;enjini;usikilivu;hesabu;NA;NA;NA;NULL;NA;NA;NA;NA;NA;NA;NA;NA;NA;NA;NA;NA;NA;NA;NA;NA;NA;NA;NA;;;;
1a5fb;Deep;Question;html.Page;1_3_0_0;NA;NA;form;submission;2153.099;14122.4;14120.762;14137.401;16290.5;16290.7;2023-05-14T18:27:11Z;16304.034;Papier;karatasi;d;uchambuzi;usalama;kukataliwa;g;NA;NA;NULL;NA;NA;NA;NA;NA;NA;NA;NA;NA;NA;NA;NA;NA;NA;NA;NA;NA;NA;NA;;
1a5fb;Save;data;screen;canvas.Screen;1_3_0_1;NA;NA;timeout;499.994;16291.3;16288.183;16304.034;16787.392;16794.8;2023-05-14T18:27:11Z;16804.028;Papier;karatasi;d;uchambuzi;usalama;kukataliwa;NA;NA;0;NULL;NA;NA;NA;NA;NA;NA;NA;NA;NA;NA;NA;NA;NA;NA;NA;NA;NA;NA;NA;;
1a5fb;deep;flow.Sequence;1_3_0;NA;NA;completion;2649.991;14122.4;14120.762;14137.401;16787.392;16795.1;2023-05-14T18:27:11Z;16804.028;Papier;karatasi;d;uchambuzi;usalama;kukataliwa;NA;NA;NA;NULL;NA;NA;NA;NA;NA;NA;NA;NA;NA;NA;NA;NA;NA;NA;NA;NA;NA;NA;NA;;;;
1a5fb;task;flow.Sequence;1_3;NA;NA;completion;2649.991;14122.3;14120.762;14137.401;16787.392;16795.2;2023-05-14T18:27:11Z;16804.028;Papier;karatasi;d;uchambuzi;usalama;kukataliwa;NA;NA;NA;NULL;NA;NA;NA;NA;NA;NA;NA;NA;NA;NA;NA;NA;NA;NA;NA;NA;NA;NA;NA;;;;
1a5fb;Deep;Question;html.Page;1_4_0_0;NA;NA;form;submission;1955.672;16795.3;16787.392;16804.028;18759.7;18759.9;2023-05-14T18:27:13Z;18770.7;Vorwurf;mashtaka;s;msukumo;mtangulizi;uenyekiti;g;NA;NA;NULL;NA;NA;NA;NA;NA;NA;NA;NA;NA;NA;NA;NA;NA;NA;NA;NA;NA;NA;NA;;
1a5fb;Save;data;screen;canvas.Screen;1_4_0_1;NA;NA;timeout;500.032;18760.5;18757.379;18770.7;19254.027;19255.8;2023-05-14T18:27:14Z;19270.732;Vorwurf;mashtaka;s;msukumo;mtangulizi;uenyekiti;NA;NA;0;NULL;NA;NA;NA;NA;NA;NA;NA;NA;NA;NA;NA;NA;NA;NA;NA;NA;NA;NA;NA;;
1a5fb;deep;flow.Sequence;1_4_0;NA;NA;completion;2449.999;16795.3;16787.392;16804.028;19254.027;19255.9;2023-05-14T18:27:14Z;19270.732;Vorwurf;mashtaka;s;msukumo;mtangulizi;uenyekiti;NA;NA;NA;NULL;NA;NA;NA;NA;NA;NA;NA;NA;NA;NA;NA;NA;NA;NA;NA;NA;NA;NA;NA;;;;
1a5fb;task;flow.Sequence;1_4;NA;NA;completion;2449.999;16795.2;16787.392;16804.028;19254.027;19256;2023-05-14T18:27:14Z;19270.732;Vorwurf;mashtaka;s;msukumo;mtangulizi;uenyekiti;NA;NA;NA;NULL;NA;NA;NA;NA;NA;NA;NA;NA;NA;NA;NA;NA;NA;NA;NA;NA;NA;NA;NA;;;;
1a5fb;Deep;Question;html.Page;1_5_0_0;NA;NA;form;submission;1659.268;19256.1;19254.027;19270.732;20930;20930.1;2023-05-14T18:27:15Z;20937.322;Erneuerung;ukarabati;d;ushawishi;ukalifu;unyonyaji;g;NA;NA;NULL;NA;NA;NA;NA;NA;NA;NA;NA;NA;NA;NA;NA;NA;NA;NA;NA;NA;NA;NA;;
1a5fb;Save;data;screen;canvas.Screen;1_5_0_1;NA;NA;timeout;500.056;20930.9;20922.198;20937.322;21420.674;21422.7;2023-05-14T18:27:16Z;21437.378;Erneuerung;ukarabati;d;ushawishi;ukalifu;unyonyaji;NA;NA;0;NULL;NA;NA;NA;NA;NA;NA;NA;NA;NA;NA;NA;NA;NA;NA;NA;NA;NA;NA;NA;;
1a5fb;deep;flow.Sequence;1_5_0;NA;NA;completion;2149.942;19256;19254.027;19270.732;21420.674;21422.9;2023-05-14T18:27:16Z;21437.378;Erneuerung;ukarabati;d;ushawishi;ukalifu;unyonyaji;NA;NA;NA;NULL;NA;NA;NA;NA;NA;NA;NA;NA;NA;NA;NA;NA;NA;NA;NA;NA;NA;NA;NA;;;;
1a5fb;task;flow.Sequence;1_5;NA;NA;completion;2149.942;19256;19254.027;19270.732;21420.674;21423;2023-05-14T18:27:16Z;21437.378;Erneuerung;ukarabati;d;ushawishi;ukalifu;unyonyaji;NA;NA;NA;NULL;NA;NA;NA;NA;NA;NA;NA;NA;NA;NA;NA;NA;NA;NA;NA;NA;NA;NA;NA;;;;
1a5fb;Deep;Question;html.Page;1_6_0_0;NA;NA;form;submission;2188.822;21423.1;21420.674;21437.378;23626.2;23626.5;2023-05-14T18:27:18Z;23637.295;Integrität;uadilifu;d;muungano;mtiririko;upunguaji;g;NA;NA;NULL;NA;NA;NA;NA;NA;NA;NA;NA;NA;NA;NA;NA;NA;NA;NA;NA;NA;NA;NA;;
1a5fb;Save;data;screen;canvas.Screen;1_6_0_1;NA;NA;timeout;500.008;23627;23620.353;23637.295;24120.667;24123;2023-05-14T18:27:19Z;24137.303;Integrität;uadilifu;d;muungano;mtiririko;upunguaji;NA;NA;0;NULL;NA;NA;NA;NA;NA;NA;NA;NA;NA;NA;NA;NA;NA;NA;NA;NA;NA;NA;NA;;
1a5fb;deep;flow.Sequence;1_6_0;NA;NA;completion;2683.289;21423.1;21420.674;21437.378;24120.667;24123.2;2023-05-14T18:27:19Z;24137.303;Integrität;uadilifu;d;muungano;mtiririko;upunguaji;NA;NA;NA;NULL;NA;NA;NA;NA;NA;NA;NA;NA;NA;NA;NA;NA;NA;NA;NA;NA;NA;NA;NA;;;;
1a5fb;task;flow.Sequence;1_6;NA;NA;completion;2683.289;21423.1;21420.674;21437.378;24120.667;24123.3;2023-05-14T18:27:19Z;24137.303;Integrität;uadilifu;d;muungano;mtiririko;upunguaji;NA;NA;NA;NULL;NA;NA;NA;NA;NA;NA;NA;NA;NA;NA;NA;NA;NA;NA;NA;NA;NA;NA;NA;;;;
1a5fb;Deep;Question;html.Page;1_7_0_0;NA;NA;form;submission;1820.997;24123.4;24120.667;24137.303;25958.3;25958.5;2023-05-14T18:27:20Z;25970.608;Wechsel;ugeuzaji;d;utambulisho;kujenga;wasiwasi;g;NA;NA;NULL;NA;NA;NA;NA;NA;NA;NA;NA;NA;NA;NA;NA;NA;NA;NA;NA;NA;NA;NA;;
1a5fb;Save;data;screen;canvas.Screen;1_7_0_1;NA;NA;timeout;500.026;25959.2;25955.321;25970.608;26453.998;26456.3;2023-05-14T18:27:21Z;26470.634;Wechsel;ugeuzaji;d;utambulisho;kujenga;wasiwasi;NA;NA;0;NULL;NA;NA;NA;NA;NA;NA;NA;NA;NA;NA;NA;NA;NA;NA;NA;NA;NA;NA;NA;;
1a5fb;deep;flow.Sequence;1_7_0;NA;NA;completion;2316.695;24123.4;24120.667;24137.303;26453.998;26456.6;2023-05-14T18:27:21Z;26470.634;Wechsel;ugeuzaji;d;utambulisho;kujenga;wasiwasi;NA;NA;NA;NULL;NA;NA;NA;NA;NA;NA;NA;NA;NA;NA;NA;NA;NA;NA;NA;NA;NA;NA;NA;;;;
1a5fb;task;flow.Sequence;1_7;NA;NA;completion;2316.695;24123.4;24120.667;24137.303;26453.998;26456.8;2023-05-14T18:27:21Z;26470.634;Wechsel;ugeuzaji;d;utambulisho;kujenga;wasiwasi;NA;NA;NA;NULL;NA;NA;NA;NA;NA;NA;NA;NA;NA;NA;NA;NA;NA;NA;NA;NA;NA;NA;NA;;;;
1a5fb;Deep;Question;html.Page;1_8_0_0;NA;NA;form;submission;2239.566;26456.9;26453.998;26470.634;28710.2;28710.4;2023-05-14T18:27:23Z;28720.589;Atmosphäre;angahewa;s;kuteseka;usahihi;kutoamini;g;NA;NA;NULL;NA;NA;NA;NA;NA;NA;NA;NA;NA;NA;NA;NA;NA;NA;NA;NA;NA;NA;NA;;
1a5fb;Save;data;screen;canvas.Screen;1_8_0_1;NA;NA;timeout;500.046;28711;28706.774;28720.589;29203.958;29204.6;2023-05-14T18:27:24Z;29220.635;Atmosphäre;angahewa;s;kuteseka;usahihi;kutoamini;NA;NA;0;NULL;NA;NA;NA;NA;NA;NA;NA;NA;NA;NA;NA;NA;NA;NA;NA;NA;NA;NA;NA;;
1a5fb;deep;flow.Sequence;1_8_0;NA;NA;completion;2733.324;26456.9;26453.998;26470.634;29203.958;29204.7;2023-05-14T18:27:24Z;29220.635;Atmosphäre;angahewa;s;kuteseka;usahihi;kutoamini;NA;NA;NA;NULL;NA;NA;NA;NA;NA;NA;NA;NA;NA;NA;NA;NA;NA;NA;NA;NA;NA;NA;NA;;;;
1a5fb;task;flow.Sequence;1_8;NA;NA;completion;2733.324;26456.8;26453.998;26470.634;29203.958;29204.8;2023-05-14T18:27:24Z;29220.635;Atmosphäre;angahewa;s;kuteseka;usahihi;kutoamini;NA;NA;NA;NULL;NA;NA;NA;NA;NA;NA;NA;NA;NA;NA;NA;NA;NA;NA;NA;NA;NA;NA;NA;;;;
1a5fb;Deep;Question;html.Page;1_9_0_0;NA;NA;form;submission;1785.765;29205;29203.958;29220.635;31006.4;31006.7;2023-05-14T18:27:25Z;31020.575;Begegnung;kukutana;s;mmasihiya;mpiganaji;husiano;g;NA;NA;NULL;NA;NA;NA;NA;NA;NA;NA;NA;NA;NA;NA;NA;NA;NA;NA;NA;NA;NA;NA;;
1a5fb;Save;data;screen;canvas.Screen;1_9_0_1;NA;NA;timeout;500.115;31007.2;31003.886;31020.575;31503.931;31504.7;2023-05-14T18:27:26Z;31520.69;Begegnung;kukutana;s;mmasihiya;mpiganaji;husiano;NA;NA;0;NULL;NA;NA;NA;NA;NA;NA;NA;NA;NA;NA;NA;NA;NA;NA;NA;NA;NA;NA;NA;;
1a5fb;deep;flow.Sequence;1_9_0;NA;NA;completion;2283.296;29205;29203.958;29220.635;31503.931;31504.9;2023-05-14T18:27:26Z;31520.69;Begegnung;kukutana;s;mmasihiya;mpiganaji;husiano;NA;NA;NA;NULL;NA;NA;NA;NA;NA;NA;NA;NA;NA;NA;NA;NA;NA;NA;NA;NA;NA;NA;NA;;;;
1a5fb;task;flow.Sequence;1_9;NA;NA;completion;2283.296;29204.9;29203.958;29220.635;31503.931;31505;2023-05-14T18:27:26Z;31520.69;Begegnung;kukutana;s;mmasihiya;mpiganaji;husiano;NA;NA;NA;NULL;NA;NA;NA;NA;NA;NA;NA;NA;NA;NA;NA;NA;NA;NA;NA;NA;NA;NA;NA;;;;
1a5fb;Deep;Question;html.Page;1_10_0_0;NA;NA;form;submission;1858.81;31505.2;31503.931;31520.69;33379.5;33379.7;2023-05-14T18:27:28Z;33387.211;Stimmung;kinyongo;s;kilekile;kisambo;madhehebu;g;NA;NA;NULL;NA;NA;NA;NA;NA;NA;NA;NA;NA;NA;NA;NA;NA;NA;NA;NA;NA;NA;NA;;
1a5fb;Save;data;screen;canvas.Screen;1_10_0_1;NA;NA;timeout;500.01;33380.4;33372.128;33387.211;33870.565;33874;2023-05-14T18:27:28Z;33887.221;Stimmung;kinyongo;s;kilekile;kisambo;madhehebu;NA;NA;0;NULL;NA;NA;NA;NA;NA;NA;NA;NA;NA;NA;NA;NA;NA;NA;NA;NA;NA;NA;NA;;
1a5fb;deep;flow.Sequence;1_10_0;NA;NA;completion;2349.875;31505.2;31503.931;31520.69;33870.565;33874.1;2023-05-14T18:27:28Z;33887.221;Stimmung;kinyongo;s;kilekile;kisambo;madhehebu;NA;NA;NA;NULL;NA;NA;NA;NA;NA;NA;NA;NA;NA;NA;NA;NA;NA;NA;NA;NA;NA;NA;NA;;;;
1a5fb;task;flow.Sequence;1_10;NA;NA;completion;2349.875;31505.1;31503.931;31520.69;33870.565;33874.2;2023-05-14T18:27:28Z;33887.221;Stimmung;kinyongo;s;kilekile;kisambo;madhehebu;NA;NA;NA;NULL;NA;NA;NA;NA;NA;NA;NA;NA;NA;NA;NA;NA;NA;NA;NA;NA;NA;NA;NA;;;;
1a5fb;Deep;Question;html.Page;1_11_0_0;NA;NA;form;submission;1715.979;33874.3;33870.565;33887.221;35603.2;35603.4;2023-05-14T18:27:30Z;35603.926;Genehmigung;idhini;s;mwanamke;itikadi;fedheha;g;NA;NA;NULL;NA;NA;NA;NA;NA;NA;NA;NA;NA;NA;NA;NA;NA;NA;NA;NA;NA;NA;NA;;
1a5fb;Save;data;screen;canvas.Screen;1_11_0_1;NA;NA;timeout;500.017;35603.9;35589.743;35603.926;36087.212;36087.9;2023-05-14T18:27:31Z;36103.943;Genehmigung;idhini;s;mwanamke;itikadi;fedheha;NA;NA;0;NULL;NA;NA;NA;NA;NA;NA;NA;NA;NA;NA;NA;NA;NA;NA;NA;NA;NA;NA;NA;;
1a5fb;deep;flow.Sequence;1_11_0;NA;NA;completion;2199.991;33874.3;33870.565;33887.221;36087.212;36088;2023-05-14T18:27:31Z;36103.943;Genehmigung;idhini;s;mwanamke;itikadi;fedheha;NA;NA;NA;NULL;NA;NA;NA;NA;NA;NA;NA;NA;NA;NA;NA;NA;NA;NA;NA;NA;NA;NA;NA;;;;
1a5fb;task;flow.Sequence;1_11;NA;NA;completion;2199.991;33874.2;33870.565;33887.221;36087.212;36088.1;2023-05-14T18:27:31Z;36103.943;Genehmigung;idhini;s;mwanamke;itikadi;fedheha;NA;NA;NA;NULL;NA;NA;NA;NA;NA;NA;NA;NA;NA;NA;NA;NA;NA;NA;NA;NA;NA;NA;NA;;;;
1a5fb;Deep;Question;html.Page;1_12_0_0;NA;NA;form;submission;1760.057;36088.2;36087.212;36103.943;37864;37864.3;2023-05-14T18:27:32Z;37870.509;Respekt;heshima;d;changamnao;upinzani;ufanisi;g;NA;NA;NULL;NA;NA;NA;NA;NA;NA;NA;NA;NA;NA;NA;NA;NA;NA;NA;NA;NA;NA;NA;;
1a5fb;Save;data;screen;canvas.Screen;1_12_0_1;NA;NA;timeout;500.058;37864.9;37854.648;37870.509;38353.922;38354.9;2023-05-14T18:27:33Z;38370.567;Respekt;heshima;d;changamnao;upinzani;ufanisi;NA;NA;0;NULL;NA;NA;NA;NA;NA;NA;NA;NA;NA;NA;NA;NA;NA;NA;NA;NA;NA;NA;NA;;
1a5fb;deep;flow.Sequence;1_12_0;NA;NA;completion;2249.979;36088.2;36087.212;36103.943;38353.922;38355;2023-05-14T18:27:33Z;38370.567;Respekt;heshima;d;changamnao;upinzani;ufanisi;NA;NA;NA;NULL;NA;NA;NA;NA;NA;NA;NA;NA;NA;NA;NA;NA;NA;NA;NA;NA;NA;NA;NA;;;;
1a5fb;task;flow.Sequence;1_12;NA;NA;completion;2249.979;36088.2;36087.212;36103.943;38353.922;38355.1;2023-05-14T18:27:33Z;38370.567;Respekt;heshima;d;changamnao;upinzani;ufanisi;NA;NA;NA;NULL;NA;NA;NA;NA;NA;NA;NA;NA;NA;NA;NA;NA;NA;NA;NA;NA;NA;NA;NA;;;;
1a5fb;Deep;Question;html.Page;1_13_0_0;NA;NA;form;submission;1415.733;38355.2;38353.922;38370.567;39786.3;39786.5;2023-05-14T18:27:34Z;39787.232;Betrüger;mdanganyifu;s;mwanamuziki;wastani;mahakama;g;NA;NA;NULL;NA;NA;NA;NA;NA;NA;NA;NA;NA;NA;NA;NA;NA;NA;NA;NA;NA;NA;NA;;
1a5fb;Save;data;screen;canvas.Screen;1_13_0_1;NA;NA;timeout;500.033;39787;39771.214;39787.232;40270.58;40272;2023-05-14T18:27:35Z;40287.265;Betrüger;mdanganyifu;s;mwanamuziki;wastani;mahakama;NA;NA;0;NULL;NA;NA;NA;NA;NA;NA;NA;NA;NA;NA;NA;NA;NA;NA;NA;NA;NA;NA;NA;;
1a5fb;deep;flow.Sequence;1_13_0;NA;NA;completion;1900.013;38355.2;38353.922;38370.567;40270.58;40272.1;2023-05-14T18:27:35Z;40287.265;Betrüger;mdanganyifu;s;mwanamuziki;wastani;mahakama;NA;NA;NA;NULL;NA;NA;NA;NA;NA;NA;NA;NA;NA;NA;NA;NA;NA;NA;NA;NA;NA;NA;NA;;;;
1a5fb;task;flow.Sequence;1_13;NA;NA;completion;1900.013;38355.2;38353.922;38370.567;40270.58;40272.2;2023-05-14T18:27:35Z;40287.265;Betrüger;mdanganyifu;s;mwanamuziki;wastani;mahakama;NA;NA;NA;NULL;NA;NA;NA;NA;NA;NA;NA;NA;NA;NA;NA;NA;NA;NA;NA;NA;NA;NA;NA;;;;
1a5fb;Deep;Question;html.Page;1_14_0_0;NA;NA;form;submission;1578.835;40272.3;40270.58;40287.265;41866.1;41866.3;2023-05-14T18:27:36Z;41870.536;Entwicklung;maendeleo;s;uangavu;mshindwa;badiliko;g;NA;NA;NULL;NA;NA;NA;NA;NA;NA;NA;NA;NA;NA;NA;NA;NA;NA;NA;NA;NA;NA;NA;;
1a5fb;Save;data;screen;canvas.Screen;1_14_0_1;NA;NA;timeout;499.952;41866.8;41854.864;41870.536;42353.828;42355.7;2023-05-14T18:27:37Z;42370.488;Entwicklung;maendeleo;s;uangavu;mshindwa;badiliko;NA;NA;0;NULL;NA;NA;NA;NA;NA;NA;NA;NA;NA;NA;NA;NA;NA;NA;NA;NA;NA;NA;NA;;
1a5fb;deep;flow.Sequence;1_14_0;NA;NA;completion;2066.563;40272.3;40270.58;40287.265;42353.828;42355.9;2023-05-14T18:27:37Z;42370.488;Entwicklung;maendeleo;s;uangavu;mshindwa;badiliko;NA;NA;NA;NULL;NA;NA;NA;NA;NA;NA;NA;NA;NA;NA;NA;NA;NA;NA;NA;NA;NA;NA;NA;;;;
1a5fb;task;flow.Sequence;1_14;NA;NA;completion;2066.563;40272.3;40270.58;40287.265;42353.828;42356.1;2023-05-14T18:27:37Z;42370.488;Entwicklung;maendeleo;s;uangavu;mshindwa;badiliko;NA;NA;NA;NULL;NA;NA;NA;NA;NA;NA;NA;NA;NA;NA;NA;NA;NA;NA;NA;NA;NA;NA;NA;;;;
1a5fb;Deep;Question;html.Page;1_15_0_0;NA;NA;form;submission;1908.712;42356.2;42353.828;42370.488;44279.2;44279.5;2023-05-14T18:27:39Z;44287.124;Fleisch;mshakiki;d;kizunguzungu;mshikamano;angusho;g;NA;NA;NULL;NA;NA;NA;NA;NA;NA;NA;NA;NA;NA;NA;NA;NA;NA;NA;NA;NA;NA;NA;;
1a5fb;Save;data;screen;canvas.Screen;1_15_0_1;NA;NA;timeout;500.034;44280.1;44273.349;44287.124;44770.571;44771.3;2023-05-14T18:27:39Z;44787.158;Fleisch;mshakiki;d;kizunguzungu;mshikamano;angusho;NA;NA;0;NULL;NA;NA;NA;NA;NA;NA;NA;NA;NA;NA;NA;NA;NA;NA;NA;NA;NA;NA;NA;;
1a5fb;deep;flow.Sequence;1_15_0;NA;NA;completion;2400.083;42356.1;42353.828;42370.488;44770.571;44771.5;2023-05-14T18:27:39Z;44787.158;Fleisch;mshakiki;d;kizunguzungu;mshikamano;angusho;NA;NA;NA;NULL;NA;NA;NA;NA;NA;NA;NA;NA;NA;NA;NA;NA;NA;NA;NA;NA;NA;NA;NA;;;;
1a5fb;task;flow.Sequence;1_15;NA;NA;completion;2400.083;42356.1;42353.828;42370.488;44770.571;44771.6;2023-05-14T18:27:39Z;44787.158;Fleisch;mshakiki;d;kizunguzungu;mshikamano;angusho;NA;NA;NA;NULL;NA;NA;NA;NA;NA;NA;NA;NA;NA;NA;NA;NA;NA;NA;NA;NA;NA;NA;NA;;;;
1a5fb;retrieval;block;1;(cued;recall);flow.Loop;1;NA;NA;completion;40533.033;4235.4;4220.886;4237.538;44770.571;44771.8;2023-05-14T18:27:39Z;44787.158;NA;NA;NA;NA;NA;NA;NA;NA;NA;NULL;NA;NA;NA;NA;NA;NA;NA;NA;NA;NA;NA;NA;NA;NA;NA;NA;NA;NA;NA
1a5fb;Shallow;Question;html.Page;2_0_0_0;NA;NA;form;submission;5088.142;44771.9;44770.571;44787.158;49875.3;49875.6;2023-05-14T18:27:44Z;49887.074;Betrüger;mdanganyifu;s;mwanamuziki;wastani;mahakama;mdanganyifu;NA;NA;"c(""distractor1"", ""distractor2"", ""distractor3"")";NA;NA;NA;NA;NA;NA;NA;NA;NA;NA;NA;NA;NA;NA;NA;NA;NA;NA;NA;;
1a5fb;Save;data;screen;canvas.Screen;2_0_0_1;NA;NA;timeout;500.094;49876.1;49871.075;49887.074;50370.421;50371.1;2023-05-14T18:27:45Z;50387.168;Betrüger;mdanganyifu;s;mwanamuziki;wastani;mahakama;NA;NA;1;"c(""distractor1"", ""distractor2"", ""distractor3"")";NA;NA;NA;NA;NA;NA;NA;NA;NA;NA;NA;NA;NA;NA;NA;NA;NA;NA;NA;;
1a5fb;shallow;flow.Sequence;2_0_0;NA;NA;completion;5583.263;44771.9;44770.571;44787.158;50370.421;50371.3;2023-05-14T18:27:45Z;50387.168;Betrüger;mdanganyifu;s;mwanamuziki;wastani;mahakama;NA;NA;NA;"c(""distractor1"", ""distractor2"", ""distractor3"")";NA;NA;NA;NA;NA;NA;NA;NA;NA;NA;NA;NA;NA;NA;NA;NA;NA;NA;NA;;;;
1a5fb;task;flow.Sequence;2_0;NA;NA;completion;5583.263;44771.8;44770.571;44787.158;50370.421;50371.4;2023-05-14T18:27:45Z;50387.168;Betrüger;mdanganyifu;s;mwanamuziki;wastani;mahakama;NA;NA;NA;"c(""distractor1"", ""distractor2"", ""distractor3"")";NA;NA;NA;NA;NA;NA;NA;NA;NA;NA;NA;NA;NA;NA;NA;NA;NA;NA;NA;;;;
1a5fb;Shallow;Question;html.Page;2_1_0_0;NA;NA;form;submission;7404.732;50371.5;50370.421;50387.168;57791.9;57792;2023-05-14T18:27:52Z;57803.673;Flexibilität;kubadilika;s;enjini;usikilivu;hesabu;usikilivu;NA;NA;"c(""distractor1"", ""distractor2"", ""distractor3"")";NA;NA;NA;NA;NA;NA;NA;NA;NA;NA;NA;NA;NA;NA;NA;NA;NA;NA;NA;;
1a5fb;Save;data;screen;canvas.Screen;2_1_0_1;NA;NA;timeout;500.016;57792.9;57790.001;57803.673;58287.086;58288.5;2023-05-14T18:27:53Z;58303.689;Flexibilität;kubadilika;s;enjini;usikilivu;hesabu;NA;NA;0;"c(""distractor1"", ""distractor2"", ""distractor3"")";NA;NA;NA;NA;NA;NA;NA;NA;NA;NA;NA;NA;NA;NA;NA;NA;NA;NA;NA;;
1a5fb;shallow;flow.Sequence;2_1_0;NA;NA;completion;7899.918;50371.5;50370.421;50387.168;58287.086;58288.8;2023-05-14T18:27:53Z;58303.689;Flexibilität;kubadilika;s;enjini;usikilivu;hesabu;NA;NA;NA;"c(""distractor1"", ""distractor2"", ""distractor3"")";NA;NA;NA;NA;NA;NA;NA;NA;NA;NA;NA;NA;NA;NA;NA;NA;NA;NA;NA;;;;
1a5fb;task;flow.Sequence;2_1;NA;NA;completion;7899.918;50371.5;50370.421;50387.168;58287.086;58289;2023-05-14T18:27:53Z;58303.689;Flexibilität;kubadilika;s;enjini;usikilivu;hesabu;NA;NA;NA;"c(""distractor1"", ""distractor2"", ""distractor3"")";NA;NA;NA;NA;NA;NA;NA;NA;NA;NA;NA;NA;NA;NA;NA;NA;NA;NA;NA;;;;
1a5fb;Shallow;Question;html.Page;2_2_0_0;NA;NA;form;submission;8208.211;58289.2;58287.086;58303.689;66511.9;66512.2;2023-05-14T18:28:01Z;66520.249;Niveau;kiwango;d;usimamizi;mwamali;mshairi;kiwango;NA;NA;"c(""distractor1"", ""distractor2"", ""distractor3"")";NA;NA;NA;NA;NA;NA;NA;NA;NA;NA;NA;NA;NA;NA;NA;NA;NA;NA;NA;;
1a5fb;Save;data;screen;canvas.Screen;2_2_0_1;NA;NA;timeout;500.126;66514;66505.143;66520.249;67003.62;67004.7;2023-05-14T18:28:01Z;67020.375;Niveau;kiwango;d;usimamizi;mwamali;mshairi;NA;NA;1;"c(""distractor1"", ""distractor2"", ""distractor3"")";NA;NA;NA;NA;NA;NA;NA;NA;NA;NA;NA;NA;NA;NA;NA;NA;NA;NA;NA;;
1a5fb;shallow;flow.Sequence;2_2_0;NA;NA;completion;8699.931;58289.1;58287.086;58303.689;67003.62;67004.8;2023-05-14T18:28:01Z;67020.375;Niveau;kiwango;d;usimamizi;mwamali;mshairi;NA;NA;NA;"c(""distractor1"", ""distractor2"", ""distractor3"")";NA;NA;NA;NA;NA;NA;NA;NA;NA;NA;NA;NA;NA;NA;NA;NA;NA;NA;NA;;;;
1a5fb;task;flow.Sequence;2_2;NA;NA;completion;8699.931;58289.1;58287.086;58303.689;67003.62;67005;2023-05-14T18:28:01Z;67020.375;Niveau;kiwango;d;usimamizi;mwamali;mshairi;NA;NA;NA;"c(""distractor1"", ""distractor2"", ""distractor3"")";NA;NA;NA;NA;NA;NA;NA;NA;NA;NA;NA;NA;NA;NA;NA;NA;NA;NA;NA;;;;
1a5fb;Shallow;Question;html.Page;2_3_0_0;NA;NA;form;submission;6718.225;67005;67003.62;67020.375;73738.6;73738.9;2023-05-14T18:28:08Z;73770.192;Genehmigung;idhini;s;mwanamke;itikadi;fedheha;idhini;NA;NA;"c(""distractor1"", ""distractor2"", ""distractor3"")";NA;NA;NA;NA;NA;NA;NA;NA;NA;NA;NA;NA;NA;NA;NA;NA;NA;NA;NA;;
1a5fb;Save;data;screen;canvas.Screen;2_3_0_1;NA;NA;timeout;500.049;73740.6;73753.657;73770.192;74253.656;74254.6;2023-05-14T18:28:09Z;74270.241;Genehmigung;idhini;s;mwanamke;itikadi;fedheha;NA;NA;1;"c(""distractor1"", ""distractor2"", ""distractor3"")";NA;NA;NA;NA;NA;NA;NA;NA;NA;NA;NA;NA;NA;NA;NA;NA;NA;NA;NA;;
1a5fb;shallow;flow.Sequence;2_3_0;NA;NA;completion;7233.281;67005;67003.62;67020.375;74253.656;74254.9;2023-05-14T18:28:09Z;74270.241;Genehmigung;idhini;s;mwanamke;itikadi;fedheha;NA;NA;NA;"c(""distractor1"", ""distractor2"", ""distractor3"")";NA;NA;NA;NA;NA;NA;NA;NA;NA;NA;NA;NA;NA;NA;NA;NA;NA;NA;NA;;;;
1a5fb;task;flow.Sequence;2_3;NA;NA;completion;7233.281;67005;67003.62;67020.375;74253.656;74255.1;2023-05-14T18:28:09Z;74270.241;Genehmigung;idhini;s;mwanamke;itikadi;fedheha;NA;NA;NA;"c(""distractor1"", ""distractor2"", ""distractor3"")";NA;NA;NA;NA;NA;NA;NA;NA;NA;NA;NA;NA;NA;NA;NA;NA;NA;NA;NA;;;;
1a5fb;Shallow;Question;html.Page;2_4_0_0;NA;NA;form;submission;7160.759;74255.3;74253.656;74270.241;81431;81431.2;2023-05-14T18:28:16Z;81436.84;Stimmung;kinyongo;s;kilekile;kisambo;madhehebu;kinyongo;NA;NA;"c(""distractor1"", ""distractor2"", ""distractor3"")";NA;NA;NA;NA;NA;NA;NA;NA;NA;NA;NA;NA;NA;NA;NA;NA;NA;NA;NA;;
1a5fb;Save;data;screen;canvas.Screen;2_4_0_1;NA;NA;timeout;500.032;81433;81420.049;81436.84;81920.26;81921.4;2023-05-14T18:28:16Z;81936.872;Stimmung;kinyongo;s;kilekile;kisambo;madhehebu;NA;NA;1;"c(""distractor1"", ""distractor2"", ""distractor3"")";NA;NA;NA;NA;NA;NA;NA;NA;NA;NA;NA;NA;NA;NA;NA;NA;NA;NA;NA;;
1a5fb;shallow;flow.Sequence;2_4_0;NA;NA;completion;7650.019;74255.3;74253.656;74270.241;81920.26;81921.7;2023-05-14T18:28:16Z;81936.872;Stimmung;kinyongo;s;kilekile;kisambo;madhehebu;NA;NA;NA;"c(""distractor1"", ""distractor2"", ""distractor3"")";NA;NA;NA;NA;NA;NA;NA;NA;NA;NA;NA;NA;NA;NA;NA;NA;NA;NA;NA;;;;
1a5fb;task;flow.Sequence;2_4;NA;NA;completion;7650.019;74255.2;74253.656;74270.241;81920.26;81921.9;2023-05-14T18:28:16Z;81936.872;Stimmung;kinyongo;s;kilekile;kisambo;madhehebu;NA;NA;NA;"c(""distractor1"", ""distractor2"", ""distractor3"")";NA;NA;NA;NA;NA;NA;NA;NA;NA;NA;NA;NA;NA;NA;NA;NA;NA;NA;NA;;;;
1a5fb;Shallow;Question;html.Page;2_5_0_0;NA;NA;form;submission;4229.928;81922.1;81920.26;81936.872;86166.8;86167;2023-05-14T18:28:21Z;86170.169;Respekt;heshima;d;changamnao;upinzani;ufanisi;heshima;NA;NA;"c(""distractor1"", ""distractor2"", ""distractor3"")";NA;NA;NA;NA;NA;NA;NA;NA;NA;NA;NA;NA;NA;NA;NA;NA;NA;NA;NA;;
1a5fb;Save;data;screen;canvas.Screen;2_5_0_1;NA;NA;timeout;499.935;86168.7;86153.656;86170.169;86653.519;86654.8;2023-05-14T18:28:21Z;86670.104;Respekt;heshima;d;changamnao;upinzani;ufanisi;NA;NA;1;"c(""distractor1"", ""distractor2"", ""distractor3"")";NA;NA;NA;NA;NA;NA;NA;NA;NA;NA;NA;NA;NA;NA;NA;NA;NA;NA;NA;;
1a5fb;shallow;flow.Sequence;2_5_0;NA;NA;completion;4716.647;81922;81920.26;81936.872;86653.519;86655;2023-05-14T18:28:21Z;86670.104;Respekt;heshima;d;changamnao;upinzani;ufanisi;NA;NA;NA;"c(""distractor1"", ""distractor2"", ""distractor3"")";NA;NA;NA;NA;NA;NA;NA;NA;NA;NA;NA;NA;NA;NA;NA;NA;NA;NA;NA;;;;
1a5fb;task;flow.Sequence;2_5;NA;NA;completion;4716.647;81921.9;81920.26;81936.872;86653.519;86655.2;2023-05-14T18:28:21Z;86670.104;Respekt;heshima;d;changamnao;upinzani;ufanisi;NA;NA;NA;"c(""distractor1"", ""distractor2"", ""distractor3"")";NA;NA;NA;NA;NA;NA;NA;NA;NA;NA;NA;NA;NA;NA;NA;NA;NA;NA;NA;;;;
1a5fb;Shallow;Question;html.Page;2_6_0_0;NA;NA;form;submission;4552.196;86655.3;86653.519;86670.104;91222.3;91222.6;2023-05-14T18:28:26Z;91236.709;Entwicklung;maendeleo;s;uangavu;mshindwa;badiliko;maendeleo;NA;NA;"c(""distractor1"", ""distractor2"", ""distractor3"")";NA;NA;NA;NA;NA;NA;NA;NA;NA;NA;NA;NA;NA;NA;NA;NA;NA;NA;NA;;
1a5fb;Save;data;screen;canvas.Screen;2_6_0_1;NA;NA;timeout;500.047;91224.4;91220.738;91236.709;91720.129;91721.2;2023-05-14T18:28:26Z;91736.756;Entwicklung;maendeleo;s;uangavu;mshindwa;badiliko;NA;NA;1;"c(""distractor1"", ""distractor2"", ""distractor3"")";NA;NA;NA;NA;NA;NA;NA;NA;NA;NA;NA;NA;NA;NA;NA;NA;NA;NA;NA;;
1a5fb;shallow;flow.Sequence;2_6_0;NA;NA;completion;5050.025;86655.3;86653.519;86670.104;91720.129;91721.6;2023-05-14T18:28:26Z;91736.756;Entwicklung;maendeleo;s;uangavu;mshindwa;badiliko;NA;NA;NA;"c(""distractor1"", ""distractor2"", ""distractor3"")";NA;NA;NA;NA;NA;NA;NA;NA;NA;NA;NA;NA;NA;NA;NA;NA;NA;NA;NA;;;;
1a5fb;task;flow.Sequence;2_6;NA;NA;completion;5050.025;86655.2;86653.519;86670.104;91720.129;91721.7;2023-05-14T18:28:26Z;91736.756;Entwicklung;maendeleo;s;uangavu;mshindwa;badiliko;NA;NA;NA;"c(""distractor1"", ""distractor2"", ""distractor3"")";NA;NA;NA;NA;NA;NA;NA;NA;NA;NA;NA;NA;NA;NA;NA;NA;NA;NA;NA;;;;
1a5fb;Shallow;Question;html.Page;2_7_0_0;NA;NA;form;submission;12925.944;91721.9;91720.129;91736.756;104662.7;104662.9;2023-05-14T18:28:39Z;104669.922;Erneuerung;ukarabati;d;ushawishi;ukalifu;unyonyaji;ushawishi;NA;NA;"c(""distractor1"", ""distractor2"", ""distractor3"")";NA;NA;NA;NA;NA;NA;NA;NA;NA;NA;NA;NA;NA;NA;NA;NA;NA;NA;NA;;
1a5fb;Save;data;screen;canvas.Screen;2_7_0_1;NA;NA;timeout;500.104;104664.7;104653.447;104669.922;105153.386;105154.2;2023-05-14T18:28:40Z;105170.026;Erneuerung;ukarabati;d;ushawishi;ukalifu;unyonyaji;NA;NA;0;"c(""distractor1"", ""distractor2"", ""distractor3"")";NA;NA;NA;NA;NA;NA;NA;NA;NA;NA;NA;NA;NA;NA;NA;NA;NA;NA;NA;;
1a5fb;shallow;flow.Sequence;2_7_0;NA;NA;completion;13416.63;91721.9;91720.129;91736.756;105153.386;105154.3;2023-05-14T18:28:40Z;105170.026;Erneuerung;ukarabati;d;ushawishi;ukalifu;unyonyaji;NA;NA;NA;"c(""distractor1"", ""distractor2"", ""distractor3"")";NA;NA;NA;NA;NA;NA;NA;NA;NA;NA;NA;NA;NA;NA;NA;NA;NA;NA;NA;;;;
1a5fb;task;flow.Sequence;2_7;NA;NA;completion;13416.63;91721.8;91720.129;91736.756;105153.386;105154.5;2023-05-14T18:28:40Z;105170.026;Erneuerung;ukarabati;d;ushawishi;ukalifu;unyonyaji;NA;NA;NA;"c(""distractor1"", ""distractor2"", ""distractor3"")";NA;NA;NA;NA;NA;NA;NA;NA;NA;NA;NA;NA;NA;NA;NA;NA;NA;NA;NA;;;;
1a5fb;Shallow;Question;html.Page;2_8_0_0;NA;NA;form;submission;12633.374;105154.6;105153.386;105170.026;117803.4;117803.6;2023-05-14T18:28:52Z;117820.274;Orientierung;urekebisho;d;uelekeo;marekebisho;utunzaji;urekebisho;NA;NA;"c(""distractor1"", ""distractor2"", ""distractor3"")";NA;NA;NA;NA;NA;NA;NA;NA;NA;NA;NA;NA;NA;NA;NA;NA;NA;NA;NA;;
1a5fb;Save;data;screen;canvas.Screen;2_8_0_1;NA;NA;timeout;499.552;117805.4;117786.495;117820.274;118303.159;118304.4;2023-05-14T18:28:53Z;118319.826;Orientierung;urekebisho;d;uelekeo;marekebisho;utunzaji;NA;NA;1;"c(""distractor1"", ""distractor2"", ""distractor3"")";NA;NA;NA;NA;NA;NA;NA;NA;NA;NA;NA;NA;NA;NA;NA;NA;NA;NA;NA;;
1a5fb;shallow;flow.Sequence;2_8_0;NA;NA;completion;13133.133;105154.6;105153.386;105170.026;118303.159;118304.7;2023-05-14T18:28:53Z;118319.826;Orientierung;urekebisho;d;uelekeo;marekebisho;utunzaji;NA;NA;NA;"c(""distractor1"", ""distractor2"", ""distractor3"")";NA;NA;NA;NA;NA;NA;NA;NA;NA;NA;NA;NA;NA;NA;NA;NA;NA;NA;NA;;;;
1a5fb;task;flow.Sequence;2_8;NA;NA;completion;13133.133;105154.6;105153.386;105170.026;118303.159;118304.7;2023-05-14T18:28:53Z;118319.826;Orientierung;urekebisho;d;uelekeo;marekebisho;utunzaji;NA;NA;NA;"c(""distractor1"", ""distractor2"", ""distractor3"")";NA;NA;NA;NA;NA;NA;NA;NA;NA;NA;NA;NA;NA;NA;NA;NA;NA;NA;NA;;;;
1a5fb;Shallow;Question;html.Page;2_9_0_0;NA;NA;form;submission;8126.574;118304.8;118303.159;118319.826;126446.4;126446.6;2023-05-14T18:29:01Z;126453.095;Atmosphäre;angahewa;s;kuteseka;usahihi;kutoamini;usahihi;NA;NA;"c(""distractor1"", ""distractor2"", ""distractor3"")";NA;NA;NA;NA;NA;NA;NA;NA;NA;NA;NA;NA;NA;NA;NA;NA;NA;NA;NA;;
1a5fb;Save;data;screen;canvas.Screen;2_9_0_1;NA;NA;timeout;499.982;126448.4;126436.643;126453.095;126936.423;126937.4;2023-05-14T18:29:01Z;126953.077;Atmosphäre;angahewa;s;kuteseka;usahihi;kutoamini;NA;NA;0;"c(""distractor1"", ""distractor2"", ""distractor3"")";NA;NA;NA;NA;NA;NA;NA;NA;NA;NA;NA;NA;NA;NA;NA;NA;NA;NA;NA;;
1a5fb;shallow;flow.Sequence;2_9_0;NA;NA;completion;8616.597;118304.7;118303.159;118319.826;126936.423;126937.6;2023-05-14T18:29:01Z;126953.077;Atmosphäre;angahewa;s;kuteseka;usahihi;kutoamini;NA;NA;NA;"c(""distractor1"", ""distractor2"", ""distractor3"")";NA;NA;NA;NA;NA;NA;NA;NA;NA;NA;NA;NA;NA;NA;NA;NA;NA;NA;NA;;;;
1a5fb;task;flow.Sequence;2_9;NA;NA;completion;8616.597;118304.7;118303.159;118319.826;126936.423;126937.7;2023-05-14T18:29:01Z;126953.077;Atmosphäre;angahewa;s;kuteseka;usahihi;kutoamini;NA;NA;NA;"c(""distractor1"", ""distractor2"", ""distractor3"")";NA;NA;NA;NA;NA;NA;NA;NA;NA;NA;NA;NA;NA;NA;NA;NA;NA;NA;NA;;;;
1a5fb;Shallow;Question;html.Page;2_10_0_0;NA;NA;form;submission;11281.923;126937.7;126936.423;126953.077;138235;138235.2;2023-05-14T18:29:13Z;138236.379;Integrität;uadilifu;d;muungano;mtiririko;upunguaji;upunguaji;NA;NA;"c(""distractor1"", ""distractor2"", ""distractor3"")";NA;NA;NA;NA;NA;NA;NA;NA;NA;NA;NA;NA;NA;NA;NA;NA;NA;NA;NA;;
1a5fb;Save;data;screen;canvas.Screen;2_10_0_1;NA;NA;timeout;499.934;138237;138220.173;138236.379;138719.72;138720.8;2023-05-14T18:29:13Z;138736.313;Integrität;uadilifu;d;muungano;mtiririko;upunguaji;NA;NA;0;"c(""distractor1"", ""distractor2"", ""distractor3"")";NA;NA;NA;NA;NA;NA;NA;NA;NA;NA;NA;NA;NA;NA;NA;NA;NA;NA;NA;;
1a5fb;shallow;flow.Sequence;2_10_0;NA;NA;completion;11766.643;126937.7;126936.423;126953.077;138719.72;138721;2023-05-14T18:29:13Z;138736.313;Integrität;uadilifu;d;muungano;mtiririko;upunguaji;NA;NA;NA;"c(""distractor1"", ""distractor2"", ""distractor3"")";NA;NA;NA;NA;NA;NA;NA;NA;NA;NA;NA;NA;NA;NA;NA;NA;NA;NA;NA;;;;
1a5fb;task;flow.Sequence;2_10;NA;NA;completion;11766.643;126937.7;126936.423;126953.077;138719.72;138721.1;2023-05-14T18:29:13Z;138736.313;Integrität;uadilifu;d;muungano;mtiririko;upunguaji;NA;NA;NA;"c(""distractor1"", ""distractor2"", ""distractor3"")";NA;NA;NA;NA;NA;NA;NA;NA;NA;NA;NA;NA;NA;NA;NA;NA;NA;NA;NA;;;;
1a5fb;Shallow;Question;html.Page;2_11_0_0;NA;NA;form;submission;8078.387;138721.3;138719.72;138736.313;146814.7;146814.9;2023-05-14T18:29:21Z;146819.579;Begegnung;kukutana;s;mmasihiya;mpiganaji;husiano;kukutana;NA;NA;"c(""distractor1"", ""distractor2"", ""distractor3"")";NA;NA;NA;NA;NA;NA;NA;NA;NA;NA;NA;NA;NA;NA;NA;NA;NA;NA;NA;;
1a5fb;Save;data;screen;canvas.Screen;2_11_0_1;NA;NA;timeout;500.057;146816.5;146803.099;146819.579;147302.955;147303.9;2023-05-14T18:29:22Z;147319.636;Begegnung;kukutana;s;mmasihiya;mpiganaji;husiano;NA;NA;1;"c(""distractor1"", ""distractor2"", ""distractor3"")";NA;NA;NA;NA;NA;NA;NA;NA;NA;NA;NA;NA;NA;NA;NA;NA;NA;NA;NA;;
1a5fb;shallow;flow.Sequence;2_11_0;NA;NA;completion;8566.642;138721.2;138719.72;138736.313;147302.955;147304.1;2023-05-14T18:29:22Z;147319.636;Begegnung;kukutana;s;mmasihiya;mpiganaji;husiano;NA;NA;NA;"c(""distractor1"", ""distractor2"", ""distractor3"")";NA;NA;NA;NA;NA;NA;NA;NA;NA;NA;NA;NA;NA;NA;NA;NA;NA;NA;NA;;;;
1a5fb;task;flow.Sequence;2_11;NA;NA;completion;8566.642;138721.2;138719.72;138736.313;147302.955;147304.2;2023-05-14T18:29:22Z;147319.636;Begegnung;kukutana;s;mmasihiya;mpiganaji;husiano;NA;NA;NA;"c(""distractor1"", ""distractor2"", ""distractor3"")";NA;NA;NA;NA;NA;NA;NA;NA;NA;NA;NA;NA;NA;NA;NA;NA;NA;NA;NA;;;;
1a5fb;Shallow;Question;html.Page;2_12_0_0;NA;NA;form;submission;11194.864;147304.4;147302.955;147319.636;158514.5;158514.6;2023-05-14T18:29:33Z;158519.524;Wechsel;ugeuzaji;d;utambulisho;kujenga;wasiwasi;utambulisho;NA;NA;"c(""distractor1"", ""distractor2"", ""distractor3"")";NA;NA;NA;NA;NA;NA;NA;NA;NA;NA;NA;NA;NA;NA;NA;NA;NA;NA;NA;;
1a5fb;Save;data;screen;canvas.Screen;2_12_0_1;NA;NA;timeout;500.03;158516.4;158502.973;158519.524;159002.84;159003.6;2023-05-14T18:29:33Z;159019.554;Wechsel;ugeuzaji;d;utambulisho;kujenga;wasiwasi;NA;NA;0;"c(""distractor1"", ""distractor2"", ""distractor3"")";NA;NA;NA;NA;NA;NA;NA;NA;NA;NA;NA;NA;NA;NA;NA;NA;NA;NA;NA;;
1a5fb;shallow;flow.Sequence;2_12_0;NA;NA;completion;11683.204;147304.4;147302.955;147319.636;159002.84;159003.7;2023-05-14T18:29:33Z;159019.554;Wechsel;ugeuzaji;d;utambulisho;kujenga;wasiwasi;NA;NA;NA;"c(""distractor1"", ""distractor2"", ""distractor3"")";NA;NA;NA;NA;NA;NA;NA;NA;NA;NA;NA;NA;NA;NA;NA;NA;NA;NA;NA;;;;
1a5fb;task;flow.Sequence;2_12;NA;NA;completion;11683.204;147304.3;147302.955;147319.636;159002.84;159003.9;2023-05-14T18:29:33Z;159019.554;Wechsel;ugeuzaji;d;utambulisho;kujenga;wasiwasi;NA;NA;NA;"c(""distractor1"", ""distractor2"", ""distractor3"")";NA;NA;NA;NA;NA;NA;NA;NA;NA;NA;NA;NA;NA;NA;NA;NA;NA;NA;NA;;;;
1a5fb;Shallow;Question;html.Page;2_13_0_0;NA;NA;form;submission;7387.846;159004;159002.84;159019.554;166407.4;166407.6;2023-05-14T18:29:41Z;166419.388;Papier;karatasi;d;uchambuzi;usalama;kukataliwa;karatasi;NA;NA;"c(""distractor1"", ""distractor2"", ""distractor3"")";NA;NA;NA;NA;NA;NA;NA;NA;NA;NA;NA;NA;NA;NA;NA;NA;NA;NA;NA;;
1a5fb;Save;data;screen;canvas.Screen;2_13_0_1;NA;NA;timeout;500.078;166409.2;166402.875;166419.388;166903.302;166904.5;2023-05-14T18:29:41Z;166919.466;Papier;karatasi;d;uchambuzi;usalama;kukataliwa;NA;NA;1;"c(""distractor1"", ""distractor2"", ""distractor3"")";NA;NA;NA;NA;NA;NA;NA;NA;NA;NA;NA;NA;NA;NA;NA;NA;NA;NA;NA;;
1a5fb;shallow;flow.Sequence;2_13_0;NA;NA;completion;7883.748;159004;159002.84;159019.554;166903.302;166904.6;2023-05-14T18:29:41Z;166919.466;Papier;karatasi;d;uchambuzi;usalama;kukataliwa;NA;NA;NA;"c(""distractor1"", ""distractor2"", ""distractor3"")";NA;NA;NA;NA;NA;NA;NA;NA;NA;NA;NA;NA;NA;NA;NA;NA;NA;NA;NA;;;;
1a5fb;task;flow.Sequence;2_13;NA;NA;completion;7883.748;159003.9;159002.84;159019.554;166903.302;166904.7;2023-05-14T18:29:41Z;166919.466;Papier;karatasi;d;uchambuzi;usalama;kukataliwa;NA;NA;NA;"c(""distractor1"", ""distractor2"", ""distractor3"")";NA;NA;NA;NA;NA;NA;NA;NA;NA;NA;NA;NA;NA;NA;NA;NA;NA;NA;NA;;;;
1a5fb;Shallow;Question;html.Page;2_14_0_0;NA;NA;form;submission;6786.734;166904.9;166903.302;166919.466;173706.2;173706.4;2023-05-14T18:29:48Z;173719.371;Fleisch;mshakiki;d;kizunguzungu;mshikamano;angusho;mshakiki;NA;NA;"c(""distractor1"", ""distractor2"", ""distractor3"")";NA;NA;NA;NA;NA;NA;NA;NA;NA;NA;NA;NA;NA;NA;NA;NA;NA;NA;NA;;
1a5fb;Save;data;screen;canvas.Screen;2_14_0_1;NA;NA;timeout;500.046;173708.1;173702.695;173719.371;174202.831;174203.7;2023-05-14T18:29:49Z;174219.417;Fleisch;mshakiki;d;kizunguzungu;mshikamano;angusho;NA;NA;1;"c(""distractor1"", ""distractor2"", ""distractor3"")";NA;NA;NA;NA;NA;NA;NA;NA;NA;NA;NA;NA;NA;NA;NA;NA;NA;NA;NA;;
1a5fb;shallow;flow.Sequence;2_14_0;NA;NA;completion;7283.365;166904.8;166903.302;166919.466;174202.831;174204;2023-05-14T18:29:49Z;174219.417;Fleisch;mshakiki;d;kizunguzungu;mshikamano;angusho;NA;NA;NA;"c(""distractor1"", ""distractor2"", ""distractor3"")";NA;NA;NA;NA;NA;NA;NA;NA;NA;NA;NA;NA;NA;NA;NA;NA;NA;NA;NA;;;;
1a5fb;task;flow.Sequence;2_14;NA;NA;completion;7283.365;166904.7;166903.302;166919.466;174202.831;174204.2;2023-05-14T18:29:49Z;174219.417;Fleisch;mshakiki;d;kizunguzungu;mshikamano;angusho;NA;NA;NA;"c(""distractor1"", ""distractor2"", ""distractor3"")";NA;NA;NA;NA;NA;NA;NA;NA;NA;NA;NA;NA;NA;NA;NA;NA;NA;NA;NA;;;;
1a5fb;Shallow;Question;html.Page;2_15_0_0;NA;NA;form;submission;5343.183;174204.5;174202.831;174219.417;179562.6;179562.9;2023-05-14T18:29:54Z;179569.341;Vorwurf;mashtaka;s;msukumo;mtangulizi;uenyekiti;mashtaka;NA;NA;"c(""distractor1"", ""distractor2"", ""distractor3"")";NA;NA;NA;NA;NA;NA;NA;NA;NA;NA;NA;NA;NA;NA;NA;NA;NA;NA;NA;;
1a5fb;Save;data;screen;canvas.Screen;2_15_0_1;NA;NA;timeout;499.998;179564.6;179552.737;179569.341;180052.655;180053.8;2023-05-14T18:29:55Z;180069.339;Vorwurf;mashtaka;s;msukumo;mtangulizi;uenyekiti;NA;NA;1;"c(""distractor1"", ""distractor2"", ""distractor3"")";NA;NA;NA;NA;NA;NA;NA;NA;NA;NA;NA;NA;NA;NA;NA;NA;NA;NA;NA;;
1a5fb;shallow;flow.Sequence;2_15_0;NA;NA;completion;5833.238;174204.5;174202.831;174219.417;180052.655;180054;2023-05-14T18:29:55Z;180069.339;Vorwurf;mashtaka;s;msukumo;mtangulizi;uenyekiti;NA;NA;NA;"c(""distractor1"", ""distractor2"", ""distractor3"")";NA;NA;NA;NA;NA;NA;NA;NA;NA;NA;NA;NA;NA;NA;NA;NA;NA;NA;NA;;;;
1a5fb;task;flow.Sequence;2_15;NA;NA;completion;5833.238;174204.4;174202.831;174219.417;180052.655;180054.2;2023-05-14T18:29:55Z;180069.339;Vorwurf;mashtaka;s;msukumo;mtangulizi;uenyekiti;NA;NA;NA;"c(""distractor1"", ""distractor2"", ""distractor3"")";NA;NA;NA;NA;NA;NA;NA;NA;NA;NA;NA;NA;NA;NA;NA;NA;NA;NA;NA;;;;
1a5fb;retrieval;block;2;(multiple;choice);flow.Loop;2;NA;NA;completion;135265.497;44771.8;44770.571;44787.158;180052.655;180054.4;2023-05-14T18:29:55Z;180069.339;NA;NA;NA;NA;NA;NA;NA;NA;NA;"c(""distractor1"", ""distractor2"", ""distractor3"")";NA;NA;NA;NA;NA;NA;NA;NA;NA;NA;NA;NA;NA;NA;NA;NA;NA;NA;NA
1a5fb;End;canvas.Screen;3;NA;keypress(Space);response;1789.461;180054.5;180052.655;180069.339;181858.8;181860.9;2023-05-14T18:29:56Z;181886.004;NA;NA;NA;NA;NA;NA;NA;NA;NA;NULL;NA;NA;NA;NA;NA;NA;NA;NA;NA;NA;NA;NA;NA;NA;NA;NA;NA;NA;NA;;;;
1a5fb;root;flow.Sequence;NA;NA;NA;completion;181071.24;783.7;554.36;787.56;181858.8;181861.2;2023-05-14T18:29:56Z;181886.004;NA;NA;NA;NA;NA;NA;NA;NA;NA;NULL;NA;NA;NA;NA;NA;NA;NA;NA;NA;NA;NA;NA;NA;NA;NA;NA;NA;NA;NA;;;;
