observation,sender,sender_type,sender_id,response,response_action,ended_on,duration,time_run,time_render,time_show,time_end,time_commit,timestamp,time_switch,distractors,german,swahili,enc,distractor1,distractor2,distractor3,response_2,x,correct,x_2,url_vp,url_sess,meta_labjs_version,meta_location,meta_user_agent,meta_platform,meta_language,meta_locale,meta_time_zone,meta_timezone_offset,meta_screen_width,meta_screen_height,meta_scroll_width,meta_scroll_height,meta_window_inner_width,meta_window_inner_height,meta_device_pixel_ratio,meta_labjs_build_flavor,meta_labjs_build_commit
3ba52,Introduction general,canvas.Screen,0,weiter,keypress(q),response,31954.899999428,750.5,215.3,765.2,32720.099999428,32721.799999237,2024-04-13T03:32:45Z,32732,NULL,NA,NA,NA,NA,NA,NA,NA,NA,NA,NA,156,3,20.2.4,https://neurocog.fernuni.ch/studies/vweber/jbaenninger/encoding_immediate/index.html?vp=156&sess=3,"Mozilla/5.0 (Windows NT 10.0; Win64; x64) AppleWebKit/537.36 (KHTML, like Gecko) Chrome/123.0.0.0 Safari/537.36 Edg/123.0.0.0",Win32,de,de-CH,Europe/Zurich,-120,1920,1080,1872,910,1872,958,1,production,f5b4a49f956347addd546a832a3327688c2c0fef
3ba52,Introduction practice,canvas.Screen,1_0,NA,keypress(Space),response,4993.5,32722.399999619,32715.7,32732,37725.5,37726.299999237,2024-04-13T03:32:50Z,37732.1,NULL,NA,NA,NA,NA,NA,NA,NA,NA,NA,NA,NA,NA,NA,NA,NA,NA,NA,NA,NA,NA,NA,NA,NA,NA,NA,NA,NA,NA,NA
3ba52,Deep Question,html.Page,1_1_0_0_0,NA,NA,form submission,4556.6999992371,37726.599999428,37715.424,37732.1,42288.799999237,42289,2024-04-13T03:32:54Z,42298.7,"c(""distractor1"", ""distractor2"", ""distractor3"")",Gesundheit,salama,d,NA,NA,NA,k,NA,NA,NA,NA,NA,NA,NA,NA,NA,NA,NA,NA,NA,NA,NA,NA,NA,NA,NA,NA,NA,NA
3ba52,"""Richtig""-Screen",canvas.Screen,1_1_0_0_1,NA,NA,skipped,NA,42290.299999237,NA,NA,42288.799999237,42290.5,2024-04-13T03:32:54Z,42298.7,"c(""distractor1"", ""distractor2"", ""distractor3"")",Gesundheit,salama,d,NA,NA,NA,NA,NA,NA,NA,NA,NA,NA,NA,NA,NA,NA,NA,NA,NA,NA,NA,NA,NA,NA,NA,NA,NA,NA
3ba52,"""Falsch""-Screen",canvas.Screen,1_1_0_0_2,NA,NA,timeout,4999.9,42295.899999619,42282.1,42298.7,47282.1,47283.099999428,2024-04-13T03:32:59Z,47298.6,"c(""distractor1"", ""distractor2"", ""distractor3"")",Gesundheit,salama,d,NA,NA,NA,NA,NA,0,NA,NA,NA,NA,NA,NA,NA,NA,NA,NA,NA,NA,NA,NA,NA,NA,NA,NA,NA,NA
3ba52,deep,flow.Sequence,1_1_0_0,NA,NA,completion,9550,37726.599999428,37715.424,37732.1,47282.1,47283.5,2024-04-13T03:32:59Z,47298.6,"c(""distractor1"", ""distractor2"", ""distractor3"")",Gesundheit,salama,d,NA,NA,NA,NA,NA,NA,NA,NA,NA,NA,NA,NA,NA,NA,NA,NA,NA,NA,NA,NA,NA,NA,NA,NA,NA,NA
3ba52,shallow,flow.Sequence,1_1_0_1,NA,NA,skipped,NA,47283.599999428,NA,NA,47282.1,47283.699999809,2024-04-13T03:32:59Z,47298.6,"c(""distractor1"", ""distractor2"", ""distractor3"")",Gesundheit,salama,d,NA,NA,NA,NA,NA,NA,NA,NA,NA,NA,NA,NA,NA,NA,NA,NA,NA,NA,NA,NA,NA,NA,NA,NA,NA,NA
3ba52,task,flow.Sequence,1_1_0,NA,NA,completion,9550,37726.599999428,37715.424,37732.1,47282.1,47283.899999619,2024-04-13T03:32:59Z,47298.6,"c(""distractor1"", ""distractor2"", ""distractor3"")",Gesundheit,salama,d,NA,NA,NA,NA,NA,NA,NA,NA,NA,NA,NA,NA,NA,NA,NA,NA,NA,NA,NA,NA,NA,NA,NA,NA,NA,NA
3ba52,deep,flow.Sequence,1_1_1_0,NA,NA,skipped,NA,47284.099999428,NA,NA,47282.1,47284.199999809,2024-04-13T03:32:59Z,47298.6,"c(""distractor1"", ""distractor2"", ""distractor3"")",Kritik,lawama,s,dereva,nafasi,mawazo,NA,NA,NA,NA,NA,NA,NA,NA,NA,NA,NA,NA,NA,NA,NA,NA,NA,NA,NA,NA,NA,NA,NA
3ba52,Shallow Question,html.Page,1_1_1_1_0,NA,NA,form submission,5277.5999998093,47284.399999619,47282.1,47298.6,52576.199999809,52576.5,2024-04-13T03:33:04Z,52582,"c(""distractor1"", ""distractor2"", ""distractor3"")",Kritik,lawama,s,dereva,nafasi,mawazo,dereva,NA,NA,NA,NA,NA,NA,NA,NA,NA,NA,NA,NA,NA,NA,NA,NA,NA,NA,NA,NA,NA,NA
3ba52,"""Richtig""-Screen",canvas.Screen,1_1_1_1_1,NA,NA,skipped,NA,52577.399999619,NA,NA,52576.199999809,52577.5,2024-04-13T03:33:04Z,52582,"c(""distractor1"", ""distractor2"", ""distractor3"")",Kritik,lawama,s,dereva,nafasi,mawazo,NA,NA,NA,NA,NA,NA,NA,NA,NA,NA,NA,NA,NA,NA,NA,NA,NA,NA,NA,NA,NA,NA,NA
3ba52,"""Falsch""-Screen",canvas.Screen,1_1_1_1_2,NA,NA,timeout,4999.9,52578.099999428,52565.428,52582,57565.3,57566.199999809,2024-04-13T03:33:09Z,57581.9,"c(""distractor1"", ""distractor2"", ""distractor3"")",Kritik,lawama,s,dereva,nafasi,mawazo,NA,NA,0,NA,NA,NA,NA,NA,NA,NA,NA,NA,NA,NA,NA,NA,NA,NA,NA,NA,NA,NA,NA
3ba52,shallow,flow.Sequence,1_1_1_1,NA,NA,completion,10266.7,47284.299999237,47282.1,47298.6,57565.3,57566.5,2024-04-13T03:33:09Z,57581.9,"c(""distractor1"", ""distractor2"", ""distractor3"")",Kritik,lawama,s,dereva,nafasi,mawazo,NA,NA,NA,NA,NA,NA,NA,NA,NA,NA,NA,NA,NA,NA,NA,NA,NA,NA,NA,NA,NA,NA,NA
3ba52,task,flow.Sequence,1_1_1,NA,NA,completion,10266.7,47284,47282.1,47298.6,57565.3,57566.699999809,2024-04-13T03:33:09Z,57581.9,"c(""distractor1"", ""distractor2"", ""distractor3"")",Kritik,lawama,s,dereva,nafasi,mawazo,NA,NA,NA,NA,NA,NA,NA,NA,NA,NA,NA,NA,NA,NA,NA,NA,NA,NA,NA,NA,NA,NA,NA
3ba52,deep,flow.Sequence,1_1_2_0,NA,NA,skipped,NA,57566.799999237,NA,NA,57565.3,57566.899999619,2024-04-13T03:33:09Z,57581.9,"c(""distractor1"", ""distractor2"", ""distractor3"")",Rückhalt,msaada,s,muhula,auwali,kiwimbe,NA,NA,NA,NA,NA,NA,NA,NA,NA,NA,NA,NA,NA,NA,NA,NA,NA,NA,NA,NA,NA,NA,NA
3ba52,Shallow Question,html.Page,1_1_2_1_0,NA,NA,form submission,4144.6,57567.099999428,57565.3,57581.9,61726.5,61726.599999428,2024-04-13T03:33:14Z,61731.9,"c(""distractor1"", ""distractor2"", ""distractor3"")",Rückhalt,msaada,s,muhula,auwali,kiwimbe,muhula,NA,NA,NA,NA,NA,NA,NA,NA,NA,NA,NA,NA,NA,NA,NA,NA,NA,NA,NA,NA,NA,NA
3ba52,"""Richtig""-Screen",canvas.Screen,1_1_2_1_1,NA,NA,skipped,NA,61727.099999428,NA,NA,61726.5,61727.299999237,2024-04-13T03:33:14Z,61731.9,"c(""distractor1"", ""distractor2"", ""distractor3"")",Rückhalt,msaada,s,muhula,auwali,kiwimbe,NA,NA,NA,NA,NA,NA,NA,NA,NA,NA,NA,NA,NA,NA,NA,NA,NA,NA,NA,NA,NA,NA,NA
3ba52,"""Falsch""-Screen",canvas.Screen,1_1_2_1_2,NA,NA,timeout,5000.2,61727.899999619,61715.3,61731.9,66715.2,66716,2024-04-13T03:33:19Z,66732.1,"c(""distractor1"", ""distractor2"", ""distractor3"")",Rückhalt,msaada,s,muhula,auwali,kiwimbe,NA,NA,0,NA,NA,NA,NA,NA,NA,NA,NA,NA,NA,NA,NA,NA,NA,NA,NA,NA,NA,NA,NA
3ba52,shallow,flow.Sequence,1_1_2_1,NA,NA,completion,9133.3,57567,57565.3,57581.9,66715.2,66716.199999809,2024-04-13T03:33:19Z,66732.1,"c(""distractor1"", ""distractor2"", ""distractor3"")",Rückhalt,msaada,s,muhula,auwali,kiwimbe,NA,NA,NA,NA,NA,NA,NA,NA,NA,NA,NA,NA,NA,NA,NA,NA,NA,NA,NA,NA,NA,NA,NA
3ba52,task,flow.Sequence,1_1_2,NA,NA,completion,9133.3,57566.799999237,57565.3,57581.9,66715.2,66716.5,2024-04-13T03:33:19Z,66732.1,"c(""distractor1"", ""distractor2"", ""distractor3"")",Rückhalt,msaada,s,muhula,auwali,kiwimbe,NA,NA,NA,NA,NA,NA,NA,NA,NA,NA,NA,NA,NA,NA,NA,NA,NA,NA,NA,NA,NA,NA,NA
3ba52,Deep Question,html.Page,1_1_3_0_0,NA,NA,form submission,2590.9999994278,66716.599999428,66715.2,66732.1,69323.099999428,69323.399999619,2024-04-13T03:33:21Z,69331.9,"c(""distractor1"", ""distractor2"", ""distractor3"")",Qualität,mtindo,d,NA,NA,NA,l,NA,NA,NA,NA,NA,NA,NA,NA,NA,NA,NA,NA,NA,NA,NA,NA,NA,NA,NA,NA,NA,NA
3ba52,"""Richtig""-Screen",canvas.Screen,1_1_3_0_1,NA,NA,skipped,NA,69325,NA,NA,69323.099999428,69325.199999809,2024-04-13T03:33:21Z,69331.9,"c(""distractor1"", ""distractor2"", ""distractor3"")",Qualität,mtindo,d,NA,NA,NA,NA,NA,NA,NA,NA,NA,NA,NA,NA,NA,NA,NA,NA,NA,NA,NA,NA,NA,NA,NA,NA,NA,NA
3ba52,"""Falsch""-Screen",canvas.Screen,1_1_3_0_2,NA,NA,timeout,5000.1,69325.899999619,69315.4,69331.9,74315.3,74316,2024-04-13T03:33:26Z,74332,"c(""distractor1"", ""distractor2"", ""distractor3"")",Qualität,mtindo,d,NA,NA,NA,NA,NA,0,NA,NA,NA,NA,NA,NA,NA,NA,NA,NA,NA,NA,NA,NA,NA,NA,NA,NA,NA,NA
3ba52,deep,flow.Sequence,1_1_3_0,NA,NA,completion,7583.2,66716.599999428,66715.2,66732.1,74315.3,74316.299999237,2024-04-13T03:33:26Z,74332,"c(""distractor1"", ""distractor2"", ""distractor3"")",Qualität,mtindo,d,NA,NA,NA,NA,NA,NA,NA,NA,NA,NA,NA,NA,NA,NA,NA,NA,NA,NA,NA,NA,NA,NA,NA,NA,NA,NA
3ba52,shallow,flow.Sequence,1_1_3_1,NA,NA,skipped,NA,74316.399999619,NA,NA,74315.3,74316.599999428,2024-04-13T03:33:26Z,74332,"c(""distractor1"", ""distractor2"", ""distractor3"")",Qualität,mtindo,d,NA,NA,NA,NA,NA,NA,NA,NA,NA,NA,NA,NA,NA,NA,NA,NA,NA,NA,NA,NA,NA,NA,NA,NA,NA,NA
3ba52,task,flow.Sequence,1_1_3,NA,NA,completion,7583.2,66716.5,66715.2,66732.1,74315.3,74316.699999809,2024-04-13T03:33:26Z,74332,"c(""distractor1"", ""distractor2"", ""distractor3"")",Qualität,mtindo,d,NA,NA,NA,NA,NA,NA,NA,NA,NA,NA,NA,NA,NA,NA,NA,NA,NA,NA,NA,NA,NA,NA,NA,NA,NA,NA
3ba52,deep,flow.Sequence,1_1_4_0,NA,NA,skipped,NA,74316.799999237,NA,NA,74315.3,74316.899999619,2024-04-13T03:33:26Z,74332,"c(""distractor1"", ""distractor2"", ""distractor3"")",Gegenwart,hadhara,s,katiba,jokofu,mikopo,NA,NA,NA,NA,NA,NA,NA,NA,NA,NA,NA,NA,NA,NA,NA,NA,NA,NA,NA,NA,NA,NA,NA
3ba52,Shallow Question,html.Page,1_1_4_1_0,NA,NA,form submission,2514.1999998093,74317,74315.3,74332,76846.199999809,76846.299999237,2024-04-13T03:33:29Z,76848.794,"c(""distractor1"", ""distractor2"", ""distractor3"")",Gegenwart,hadhara,s,katiba,jokofu,mikopo,mikopo,NA,NA,NA,NA,NA,NA,NA,NA,NA,NA,NA,NA,NA,NA,NA,NA,NA,NA,NA,NA,NA,NA
3ba52,"""Richtig""-Screen",canvas.Screen,1_1_4_1_1,NA,NA,skipped,NA,76848.099999428,NA,NA,76846.199999809,76848.299999237,2024-04-13T03:33:29Z,76848.794,"c(""distractor1"", ""distractor2"", ""distractor3"")",Gegenwart,hadhara,s,katiba,jokofu,mikopo,NA,NA,NA,NA,NA,NA,NA,NA,NA,NA,NA,NA,NA,NA,NA,NA,NA,NA,NA,NA,NA,NA,NA
3ba52,"""Falsch""-Screen",canvas.Screen,1_1_4_1_2,NA,NA,timeout,5000.006,76848.699999809,76848.794,76848.794,81832.1,81832.899999619,2024-04-13T03:33:34Z,81848.8,"c(""distractor1"", ""distractor2"", ""distractor3"")",Gegenwart,hadhara,s,katiba,jokofu,mikopo,NA,NA,0,NA,NA,NA,NA,NA,NA,NA,NA,NA,NA,NA,NA,NA,NA,NA,NA,NA,NA,NA,NA
3ba52,shallow,flow.Sequence,1_1_4_1,NA,NA,completion,7500.1,74317,74315.3,74332,81832.1,81833.099999428,2024-04-13T03:33:34Z,81848.8,"c(""distractor1"", ""distractor2"", ""distractor3"")",Gegenwart,hadhara,s,katiba,jokofu,mikopo,NA,NA,NA,NA,NA,NA,NA,NA,NA,NA,NA,NA,NA,NA,NA,NA,NA,NA,NA,NA,NA,NA,NA
3ba52,task,flow.Sequence,1_1_4,NA,NA,completion,7500.1,74316.699999809,74315.3,74332,81832.1,81833.199999809,2024-04-13T03:33:34Z,81848.8,"c(""distractor1"", ""distractor2"", ""distractor3"")",Gegenwart,hadhara,s,katiba,jokofu,mikopo,NA,NA,NA,NA,NA,NA,NA,NA,NA,NA,NA,NA,NA,NA,NA,NA,NA,NA,NA,NA,NA,NA,NA
3ba52,Deep Question,html.Page,1_1_5_0_0,NA,NA,form submission,1796.0999996185,81833.399999619,81832.1,81848.8,83644.899999619,83645,2024-04-13T03:33:35Z,83648.6,"c(""distractor1"", ""distractor2"", ""distractor3"")",Schatten,kivuli,d,NA,NA,NA,l,NA,NA,NA,NA,NA,NA,NA,NA,NA,NA,NA,NA,NA,NA,NA,NA,NA,NA,NA,NA,NA,NA
3ba52,"""Richtig""-Screen",canvas.Screen,1_1_5_0_1,NA,NA,skipped,NA,83646.599999428,NA,NA,83644.899999619,83646.699999809,2024-04-13T03:33:35Z,83648.6,"c(""distractor1"", ""distractor2"", ""distractor3"")",Schatten,kivuli,d,NA,NA,NA,NA,NA,NA,NA,NA,NA,NA,NA,NA,NA,NA,NA,NA,NA,NA,NA,NA,NA,NA,NA,NA,NA,NA
3ba52,"""Falsch""-Screen",canvas.Screen,1_1_5_0_2,NA,NA,timeout,5000,83647.199999809,83634.4,83648.6,88632,88632.699999809,2024-04-13T03:33:40Z,88648.6,"c(""distractor1"", ""distractor2"", ""distractor3"")",Schatten,kivuli,d,NA,NA,NA,NA,NA,0,NA,NA,NA,NA,NA,NA,NA,NA,NA,NA,NA,NA,NA,NA,NA,NA,NA,NA,NA,NA
3ba52,deep,flow.Sequence,1_1_5_0,NA,NA,completion,6783.2,81833.399999619,81832.1,81848.8,88632,88633,2024-04-13T03:33:40Z,88648.6,"c(""distractor1"", ""distractor2"", ""distractor3"")",Schatten,kivuli,d,NA,NA,NA,NA,NA,NA,NA,NA,NA,NA,NA,NA,NA,NA,NA,NA,NA,NA,NA,NA,NA,NA,NA,NA,NA,NA
3ba52,shallow,flow.Sequence,1_1_5_1,NA,NA,skipped,NA,88633.099999428,NA,NA,88632,88633.199999809,2024-04-13T03:33:40Z,88648.6,"c(""distractor1"", ""distractor2"", ""distractor3"")",Schatten,kivuli,d,NA,NA,NA,NA,NA,NA,NA,NA,NA,NA,NA,NA,NA,NA,NA,NA,NA,NA,NA,NA,NA,NA,NA,NA,NA,NA
3ba52,task,flow.Sequence,1_1_5,NA,NA,completion,6783.2,81833.399999619,81832.1,81848.8,88632,88633.299999237,2024-04-13T03:33:40Z,88648.6,"c(""distractor1"", ""distractor2"", ""distractor3"")",Schatten,kivuli,d,NA,NA,NA,NA,NA,NA,NA,NA,NA,NA,NA,NA,NA,NA,NA,NA,NA,NA,NA,NA,NA,NA,NA,NA,NA,NA
3ba52,block,flow.Loop,1_1,NA,NA,completion,50899.9,37726.399999619,37715.424,37732.1,88632,88633.5,2024-04-13T03:33:40Z,88648.6,"c(""distractor1"", ""distractor2"", ""distractor3"")",NA,NA,NA,NA,NA,NA,NA,NA,NA,NA,NA,NA,NA,NA,NA,NA,NA,NA,NA,NA,NA,NA,NA,NA,NA,NA,NA,NA,NA
3ba52,Practice,flow.Sequence,1,NA,NA,completion,55900,32722.299999237,32715.7,32732,88632,88633.699999809,2024-04-13T03:33:40Z,88648.6,NULL,NA,NA,NA,NA,NA,NA,NA,NA,NA,NA,NA,NA,NA,NA,NA,NA,NA,NA,NA,NA,NA,NA,NA,NA,NA,NA,NA,NA,NA
3ba52,Experiment start,canvas.Screen,2,weiter,keypress(q),response,244861.19999924,88633.799999237,88632,88648.6,333509.79999923997,333510.69999981,2024-04-13T03:37:45Z,333598.5,NULL,NA,NA,NA,NA,NA,NA,NA,NA,NA,NA,NA,NA,NA,NA,NA,NA,NA,NA,NA,NA,NA,NA,NA,NA,NA,NA,NA,NA,NA
3ba52,deep,flow.Sequence,3_0_0_0_0_0,NA,NA,skipped,NA,333585.69999981,NA,NA,333509.79999923997,333586,2024-04-13T03:37:45Z,333598.5,NULL,Spionage,upelelezi,s,maslahi,utokazo,magangao,NA,sdf,NA,0,NA,NA,NA,NA,NA,NA,NA,NA,NA,NA,NA,NA,NA,NA,NA,NA,NA,NA,NA
3ba52,Shallow Question,html.Page,3_0_0_0_0_1_0,NA,NA,form submission,9406.2999992371,333586.09999943,333580.6,333598.5,343004.79999923997,343005,2024-04-13T03:37:55Z,343015.1,NULL,Spionage,upelelezi,s,maslahi,utokazo,magangao,magangao,NA,NA,0,NA,NA,NA,NA,NA,NA,NA,NA,NA,NA,NA,NA,NA,NA,NA,NA,NA,NA,NA
3ba52,"""Richtig""-Screen",canvas.Screen,3_0_0_0_0_1_1,NA,NA,skipped,NA,343006.69999981,NA,NA,343004.79999923997,343006.79999924,2024-04-13T03:37:55Z,343015.1,NULL,Spionage,upelelezi,s,maslahi,utokazo,magangao,NA,sdf,NA,0,NA,NA,NA,NA,NA,NA,NA,NA,NA,NA,NA,NA,NA,NA,NA,NA,NA,NA,NA
3ba52,"""Falsch""-Screen",canvas.Screen,3_0_0_0_0_1_2,NA,NA,timeout,5000.1,343007.29999923997,342998.556,343015.1,347998.5,347999.19999981,2024-04-13T03:38:00Z,348015.2,NULL,Spionage,upelelezi,s,maslahi,utokazo,magangao,NA,sdf,0,0,NA,NA,NA,NA,NA,NA,NA,NA,NA,NA,NA,NA,NA,NA,NA,NA,NA,NA,NA
3ba52,shallow,flow.Sequence,3_0_0_0_0_1,NA,NA,completion,14400,333586.09999943,333580.6,333598.5,347998.5,347999.59999943,2024-04-13T03:38:00Z,348015.2,NULL,Spionage,upelelezi,s,maslahi,utokazo,magangao,NA,sdf,NA,0,NA,NA,NA,NA,NA,NA,NA,NA,NA,NA,NA,NA,NA,NA,NA,NA,NA,NA,NA
3ba52,task,flow.Sequence,3_0_0_0_0,NA,NA,completion,14400,333585.69999981,333580.6,333598.5,347998.5,347999.69999981,2024-04-13T03:38:00Z,348015.2,NULL,Spionage,upelelezi,s,maslahi,utokazo,magangao,NA,sdf,NA,0,NA,NA,NA,NA,NA,NA,NA,NA,NA,NA,NA,NA,NA,NA,NA,NA,NA,NA,NA
3ba52,deep,flow.Sequence,3_0_0_0_1_0,NA,NA,skipped,NA,347999.89999962,NA,NA,347998.5,347999.89999962,2024-04-13T03:38:00Z,348015.2,NULL,Vorwurf,mashtaka,s,msukumo,mtangulizi,uenyekiti,NA,sdf,NA,0,NA,NA,NA,NA,NA,NA,NA,NA,NA,NA,NA,NA,NA,NA,NA,NA,NA,NA,NA
3ba52,Shallow Question,html.Page,3_0_0_0_1_1_0,NA,NA,form submission,2275.4999998093,348000,347998.5,348015.2,350290.69999981,350291,2024-04-13T03:38:02Z,350298.3,NULL,Vorwurf,mashtaka,s,msukumo,mtangulizi,uenyekiti,msukumo,NA,NA,0,NA,NA,NA,NA,NA,NA,NA,NA,NA,NA,NA,NA,NA,NA,NA,NA,NA,NA,NA
3ba52,"""Richtig""-Screen",canvas.Screen,3_0_0_0_1_1_1,NA,NA,skipped,NA,350292.59999943,NA,NA,350290.69999981,350292.79999923997,2024-04-13T03:38:02Z,350298.3,NULL,Vorwurf,mashtaka,s,msukumo,mtangulizi,uenyekiti,NA,sdf,NA,0,NA,NA,NA,NA,NA,NA,NA,NA,NA,NA,NA,NA,NA,NA,NA,NA,NA,NA,NA
3ba52,"""Falsch""-Screen",canvas.Screen,3_0_0_0_1_1_2,NA,NA,timeout,5000.2,350293.29999924,350281.906,350298.3,355281.8,355282.69999981,2024-04-13T03:38:07Z,355298.5,NULL,Vorwurf,mashtaka,s,msukumo,mtangulizi,uenyekiti,NA,sdf,0,0,NA,NA,NA,NA,NA,NA,NA,NA,NA,NA,NA,NA,NA,NA,NA,NA,NA,NA,NA
3ba52,shallow,flow.Sequence,3_0_0_0_1_1,NA,NA,completion,7266.6,348000,347998.5,348015.2,355281.8,355282.89999962,2024-04-13T03:38:07Z,355298.5,NULL,Vorwurf,mashtaka,s,msukumo,mtangulizi,uenyekiti,NA,sdf,NA,0,NA,NA,NA,NA,NA,NA,NA,NA,NA,NA,NA,NA,NA,NA,NA,NA,NA,NA,NA
3ba52,task,flow.Sequence,3_0_0_0_1,NA,NA,completion,7266.6,347999.79999923997,347998.5,348015.2,355281.8,355283.09999943,2024-04-13T03:38:07Z,355298.5,NULL,Vorwurf,mashtaka,s,msukumo,mtangulizi,uenyekiti,NA,sdf,NA,0,NA,NA,NA,NA,NA,NA,NA,NA,NA,NA,NA,NA,NA,NA,NA,NA,NA,NA,NA
3ba52,deep,flow.Sequence,3_0_0_0_2_0,NA,NA,skipped,NA,355283.19999981,NA,NA,355281.8,355283.29999923997,2024-04-13T03:38:07Z,355298.5,NULL,Fenster,dirisha,s,walakini,tasawari,maarifa,NA,sdf,NA,0,NA,NA,NA,NA,NA,NA,NA,NA,NA,NA,NA,NA,NA,NA,NA,NA,NA,NA,NA
3ba52,Shallow Question,html.Page,3_0_0_0_2_1_0,NA,NA,form submission,4031.5999994278,355283.39999962,355281.8,355298.5,359330.09999943,359330.29999924,2024-04-13T03:38:11Z,359331.98,NULL,Fenster,dirisha,s,walakini,tasawari,maarifa,walakini,NA,NA,0,NA,NA,NA,NA,NA,NA,NA,NA,NA,NA,NA,NA,NA,NA,NA,NA,NA,NA,NA
3ba52,"""Richtig""-Screen",canvas.Screen,3_0_0_0_2_1_1,NA,NA,skipped,NA,359332,NA,NA,359330.09999943,359332.09999943,2024-04-13T03:38:11Z,359331.98,NULL,Fenster,dirisha,s,walakini,tasawari,maarifa,NA,sdf,NA,0,NA,NA,NA,NA,NA,NA,NA,NA,NA,NA,NA,NA,NA,NA,NA,NA,NA,NA,NA
3ba52,"""Falsch""-Screen",canvas.Screen,3_0_0_0_2_1_2,NA,NA,timeout,4999.92,359332.69999981,359331.98,359331.98,364315.2,364315.89999962,2024-04-13T03:38:16Z,364331.9,NULL,Fenster,dirisha,s,walakini,tasawari,maarifa,NA,sdf,0,0,NA,NA,NA,NA,NA,NA,NA,NA,NA,NA,NA,NA,NA,NA,NA,NA,NA,NA,NA
3ba52,shallow,flow.Sequence,3_0_0_0_2_1,NA,NA,completion,9016.7,355283.39999962,355281.8,355298.5,364315.2,364316.19999981,2024-04-13T03:38:16Z,364331.9,NULL,Fenster,dirisha,s,walakini,tasawari,maarifa,NA,sdf,NA,0,NA,NA,NA,NA,NA,NA,NA,NA,NA,NA,NA,NA,NA,NA,NA,NA,NA,NA,NA
3ba52,task,flow.Sequence,3_0_0_0_2,NA,NA,completion,9016.7,355283.19999981,355281.8,355298.5,364315.2,364316.39999962,2024-04-13T03:38:16Z,364331.9,NULL,Fenster,dirisha,s,walakini,tasawari,maarifa,NA,sdf,NA,0,NA,NA,NA,NA,NA,NA,NA,NA,NA,NA,NA,NA,NA,NA,NA,NA,NA,NA,NA
3ba52,Deep Question,html.Page,3_0_0_0_3_0_0,NA,NA,form submission,2670.7999998092,364316.5,364315.2,364331.9,367002.69999981,367002.89999962,2024-04-13T03:38:19Z,367015,NULL,Niveau,kiwango,d,NA,NA,NA,l,NA,NA,0,NA,NA,NA,NA,NA,NA,NA,NA,NA,NA,NA,NA,NA,NA,NA,NA,NA,NA,NA
3ba52,"""Richtig""-Screen",canvas.Screen,3_0_0_0_3_0_1,NA,NA,skipped,NA,367004.69999981,NA,NA,367002.69999981,367004.69999981,2024-04-13T03:38:19Z,367015,NULL,Niveau,kiwango,d,NA,NA,NA,NA,sdf,NA,0,NA,NA,NA,NA,NA,NA,NA,NA,NA,NA,NA,NA,NA,NA,NA,NA,NA,NA,NA
3ba52,"""Falsch""-Screen",canvas.Screen,3_0_0_0_3_0_2,NA,NA,timeout,5000.1,367005.29999924,366998.6,367015,371998.6,371999.39999962,2024-04-13T03:38:24Z,372015.1,NULL,Niveau,kiwango,d,NA,NA,NA,NA,sdf,0,0,NA,NA,NA,NA,NA,NA,NA,NA,NA,NA,NA,NA,NA,NA,NA,NA,NA,NA,NA
3ba52,deep,flow.Sequence,3_0_0_0_3_0,NA,NA,completion,7666.7,364316.5,364315.2,364331.9,371998.6,371999.69999981,2024-04-13T03:38:24Z,372015.1,NULL,Niveau,kiwango,d,NA,NA,NA,NA,sdf,NA,0,NA,NA,NA,NA,NA,NA,NA,NA,NA,NA,NA,NA,NA,NA,NA,NA,NA,NA,NA
3ba52,shallow,flow.Sequence,3_0_0_0_3_1,NA,NA,skipped,NA,371999.79999924,NA,NA,371998.6,372000,2024-04-13T03:38:24Z,372015.1,NULL,Niveau,kiwango,d,NA,NA,NA,NA,sdf,NA,0,NA,NA,NA,NA,NA,NA,NA,NA,NA,NA,NA,NA,NA,NA,NA,NA,NA,NA,NA
3ba52,task,flow.Sequence,3_0_0_0_3,NA,NA,completion,7666.7,364316.5,364315.2,364331.9,371998.6,372000,2024-04-13T03:38:24Z,372015.1,NULL,Niveau,kiwango,d,NA,NA,NA,NA,sdf,NA,0,NA,NA,NA,NA,NA,NA,NA,NA,NA,NA,NA,NA,NA,NA,NA,NA,NA,NA,NA
3ba52,Deep Question,html.Page,3_0_0_0_4_0_0,NA,NA,form submission,3353.5999998093,372000.19999981,371998.6,372015.1,375368.69999981,375368.89999962,2024-04-13T03:38:27Z,375381.9,NULL,Tester,wanaojaribu,d,NA,NA,NA,l,NA,NA,0,NA,NA,NA,NA,NA,NA,NA,NA,NA,NA,NA,NA,NA,NA,NA,NA,NA,NA,NA
3ba52,"""Richtig""-Screen",canvas.Screen,3_0_0_0_4_0_1,NA,NA,skipped,NA,375370.69999981,NA,NA,375368.69999981,375370.69999981,2024-04-13T03:38:27Z,375381.9,NULL,Tester,wanaojaribu,d,NA,NA,NA,NA,sdf,NA,0,NA,NA,NA,NA,NA,NA,NA,NA,NA,NA,NA,NA,NA,NA,NA,NA,NA,NA,NA
3ba52,"""Falsch""-Screen",canvas.Screen,3_0_0_0_4_0_2,NA,NA,timeout,4999.8,375371.29999924,375365.2,375381.9,380365.2,380366,2024-04-13T03:38:32Z,380381.7,NULL,Tester,wanaojaribu,d,NA,NA,NA,NA,sdf,0,0,NA,NA,NA,NA,NA,NA,NA,NA,NA,NA,NA,NA,NA,NA,NA,NA,NA,NA,NA
3ba52,deep,flow.Sequence,3_0_0_0_4_0,NA,NA,completion,8350.1,372000.19999981,371998.6,372015.1,380365.2,380366.29999924,2024-04-13T03:38:32Z,380381.7,NULL,Tester,wanaojaribu,d,NA,NA,NA,NA,sdf,NA,0,NA,NA,NA,NA,NA,NA,NA,NA,NA,NA,NA,NA,NA,NA,NA,NA,NA,NA,NA
3ba52,shallow,flow.Sequence,3_0_0_0_4_1,NA,NA,skipped,NA,380366.39999962,NA,NA,380365.2,380366.39999962,2024-04-13T03:38:32Z,380381.7,NULL,Tester,wanaojaribu,d,NA,NA,NA,NA,sdf,NA,0,NA,NA,NA,NA,NA,NA,NA,NA,NA,NA,NA,NA,NA,NA,NA,NA,NA,NA,NA
3ba52,task,flow.Sequence,3_0_0_0_4,NA,NA,completion,8350.1,372000.19999981,371998.6,372015.1,380365.2,380366.59999943,2024-04-13T03:38:32Z,380381.7,NULL,Tester,wanaojaribu,d,NA,NA,NA,NA,sdf,NA,0,NA,NA,NA,NA,NA,NA,NA,NA,NA,NA,NA,NA,NA,NA,NA,NA,NA,NA,NA
3ba52,deep,flow.Sequence,3_0_0_0_5_0,NA,NA,skipped,NA,380366.69999981,NA,NA,380365.2,380366.79999923997,2024-04-13T03:38:32Z,380381.7,NULL,Entwicklung,maendeleo,s,uangavu,mshindwa,badiliko,NA,sdf,NA,0,NA,NA,NA,NA,NA,NA,NA,NA,NA,NA,NA,NA,NA,NA,NA,NA,NA,NA,NA
3ba52,Shallow Question,html.Page,3_0_0_0_5_1_0,NA,NA,form submission,4804.3,380366.79999923997,380365.2,380381.7,385186,385186.19999981,2024-04-13T03:38:37Z,385198.5,NULL,Entwicklung,maendeleo,s,uangavu,mshindwa,badiliko,badiliko,NA,NA,0,NA,NA,NA,NA,NA,NA,NA,NA,NA,NA,NA,NA,NA,NA,NA,NA,NA,NA,NA
3ba52,"""Richtig""-Screen",canvas.Screen,3_0_0_0_5_1_1,NA,NA,skipped,NA,385188,NA,NA,385186,385188.09999943,2024-04-13T03:38:37Z,385198.5,NULL,Entwicklung,maendeleo,s,uangavu,mshindwa,badiliko,NA,sdf,NA,0,NA,NA,NA,NA,NA,NA,NA,NA,NA,NA,NA,NA,NA,NA,NA,NA,NA,NA,NA
3ba52,"""Falsch""-Screen",canvas.Screen,3_0_0_0_5_1_2,NA,NA,timeout,5000,385188.69999981,385182,385198.5,390181.8,390182.5,2024-04-13T03:38:42Z,390198.5,NULL,Entwicklung,maendeleo,s,uangavu,mshindwa,badiliko,NA,sdf,0,0,NA,NA,NA,NA,NA,NA,NA,NA,NA,NA,NA,NA,NA,NA,NA,NA,NA,NA,NA
3ba52,shallow,flow.Sequence,3_0_0_0_5_1,NA,NA,completion,9800.1,380366.79999923997,380365.2,380381.7,390181.8,390182.79999923997,2024-04-13T03:38:42Z,390198.5,NULL,Entwicklung,maendeleo,s,uangavu,mshindwa,badiliko,NA,sdf,NA,0,NA,NA,NA,NA,NA,NA,NA,NA,NA,NA,NA,NA,NA,NA,NA,NA,NA,NA,NA
3ba52,task,flow.Sequence,3_0_0_0_5,NA,NA,completion,9800.1,380366.69999981,380365.2,380381.7,390181.8,390183,2024-04-13T03:38:42Z,390198.5,NULL,Entwicklung,maendeleo,s,uangavu,mshindwa,badiliko,NA,sdf,NA,0,NA,NA,NA,NA,NA,NA,NA,NA,NA,NA,NA,NA,NA,NA,NA,NA,NA,NA,NA
3ba52,Deep Question,html.Page,3_0_0_0_6_0_0,NA,NA,form submission,5727.0999994278,390183,390181.8,390198.5,395925.59999943,395925.79999924,2024-04-13T03:38:48Z,395948.5,NULL,Schüler,mwanafunzi,d,NA,NA,NA,l,NA,NA,0,NA,NA,NA,NA,NA,NA,NA,NA,NA,NA,NA,NA,NA,NA,NA,NA,NA,NA,NA
3ba52,"""Richtig""-Screen",canvas.Screen,3_0_0_0_6_0_1,NA,NA,skipped,NA,395927.5,NA,NA,395925.59999943,395927.59999943,2024-04-13T03:38:48Z,395948.5,NULL,Schüler,mwanafunzi,d,NA,NA,NA,NA,sdf,NA,0,NA,NA,NA,NA,NA,NA,NA,NA,NA,NA,NA,NA,NA,NA,NA,NA,NA,NA,NA
3ba52,"""Falsch""-Screen",canvas.Screen,3_0_0_0_6_0_2,NA,NA,timeout,5000.1,395928.69999981,395915.288,395948.5,400931.8,400932.59999943,2024-04-13T03:38:53Z,400948.6,NULL,Schüler,mwanafunzi,d,NA,NA,NA,NA,sdf,0,0,NA,NA,NA,NA,NA,NA,NA,NA,NA,NA,NA,NA,NA,NA,NA,NA,NA,NA,NA
3ba52,deep,flow.Sequence,3_0_0_0_6_0,NA,NA,completion,10733.3,390183,390181.8,390198.5,400931.8,400932.89999962,2024-04-13T03:38:53Z,400948.6,NULL,Schüler,mwanafunzi,d,NA,NA,NA,NA,sdf,NA,0,NA,NA,NA,NA,NA,NA,NA,NA,NA,NA,NA,NA,NA,NA,NA,NA,NA,NA,NA
3ba52,shallow,flow.Sequence,3_0_0_0_6_1,NA,NA,skipped,NA,400933,NA,NA,400931.8,400933.09999943,2024-04-13T03:38:53Z,400948.6,NULL,Schüler,mwanafunzi,d,NA,NA,NA,NA,sdf,NA,0,NA,NA,NA,NA,NA,NA,NA,NA,NA,NA,NA,NA,NA,NA,NA,NA,NA,NA,NA
3ba52,task,flow.Sequence,3_0_0_0_6,NA,NA,completion,10733.3,390183,390181.8,390198.5,400931.8,400933.19999981,2024-04-13T03:38:53Z,400948.6,NULL,Schüler,mwanafunzi,d,NA,NA,NA,NA,sdf,NA,0,NA,NA,NA,NA,NA,NA,NA,NA,NA,NA,NA,NA,NA,NA,NA,NA,NA,NA,NA
3ba52,Deep Question,html.Page,3_0_0_0_7_0_0,NA,NA,form submission,2469.9999994278,400933.29999924,400931.8,400948.6,403418.59999943,403418.79999924,2024-04-13T03:38:55Z,403431.6,NULL,Papier,karatasi,d,NA,NA,NA,l,NA,NA,0,NA,NA,NA,NA,NA,NA,NA,NA,NA,NA,NA,NA,NA,NA,NA,NA,NA,NA,NA
3ba52,"""Richtig""-Screen",canvas.Screen,3_0_0_0_7_0_1,NA,NA,skipped,NA,403420.29999923997,NA,NA,403418.59999943,403420.5,2024-04-13T03:38:55Z,403431.6,NULL,Papier,karatasi,d,NA,NA,NA,NA,sdf,NA,0,NA,NA,NA,NA,NA,NA,NA,NA,NA,NA,NA,NA,NA,NA,NA,NA,NA,NA,NA
3ba52,"""Falsch""-Screen",canvas.Screen,3_0_0_0_7_0_2,NA,NA,timeout,5000.2,403420.89999962,403415.216,403431.6,408415.2,408416,2024-04-13T03:39:00Z,408431.8,NULL,Papier,karatasi,d,NA,NA,NA,NA,sdf,0,0,NA,NA,NA,NA,NA,NA,NA,NA,NA,NA,NA,NA,NA,NA,NA,NA,NA,NA,NA
3ba52,deep,flow.Sequence,3_0_0_0_7_0,NA,NA,completion,7466.6,400933.29999924,400931.8,400948.6,408415.2,408416.5,2024-04-13T03:39:00Z,408431.8,NULL,Papier,karatasi,d,NA,NA,NA,NA,sdf,NA,0,NA,NA,NA,NA,NA,NA,NA,NA,NA,NA,NA,NA,NA,NA,NA,NA,NA,NA,NA
3ba52,shallow,flow.Sequence,3_0_0_0_7_1,NA,NA,skipped,NA,408416.59999943,NA,NA,408415.2,408416.69999981,2024-04-13T03:39:00Z,408431.8,NULL,Papier,karatasi,d,NA,NA,NA,NA,sdf,NA,0,NA,NA,NA,NA,NA,NA,NA,NA,NA,NA,NA,NA,NA,NA,NA,NA,NA,NA,NA
3ba52,task,flow.Sequence,3_0_0_0_7,NA,NA,completion,7466.6,400933.29999924,400931.8,400948.6,408415.2,408416.79999923997,2024-04-13T03:39:00Z,408431.8,NULL,Papier,karatasi,d,NA,NA,NA,NA,sdf,NA,0,NA,NA,NA,NA,NA,NA,NA,NA,NA,NA,NA,NA,NA,NA,NA,NA,NA,NA,NA
3ba52,block,flow.Loop,3_0_0_0,NA,NA,completion,74816.7,333585.69999981,333580.6,333598.5,408415.2,408417,2024-04-13T03:39:00Z,408431.8,NULL,NA,NA,NA,NA,NA,NA,NA,sdf,NA,0,NA,NA,NA,NA,NA,NA,NA,NA,NA,NA,NA,NA,NA,NA,NA,NA,NA,NA,NA
3ba52,weiter,canvas.Screen,3_0_0_1,sdf,keypress(Space),response,1628.2999994278,408417.09999943,408415.2,408431.8,410060.09999943,410060.79999924,2024-04-13T03:39:02Z,410115.1,NULL,NA,NA,NA,NA,NA,NA,NA,sdf,NA,0,NA,NA,NA,NA,NA,NA,NA,NA,NA,NA,NA,NA,NA,NA,NA,NA,NA,NA,NA
3ba52,check continue,flow.Sequence,3_0_0,NA,NA,completion,76461.599999428,333585.69999981,333580.6,333598.5,410060.09999943,410061,2024-04-13T03:39:02Z,410115.1,NULL,NA,NA,NA,NA,NA,NA,NA,sdf,NA,0,NA,NA,NA,NA,NA,NA,NA,NA,NA,NA,NA,NA,NA,NA,NA,NA,NA,NA,NA
3ba52,Deep Question,html.Page,3_0_1_0_0_0_0,NA,NA,form submission,3698.4999994278,410099.19999981,410098.512,410115.1,413813.59999943,413813.89999962,2024-04-13T03:39:06Z,413815.21,NULL,Tester,wanaojaribu,d,NA,NA,NA,l,NA,NA,1,NA,NA,NA,NA,NA,NA,NA,NA,NA,NA,NA,NA,NA,NA,NA,NA,NA,NA,NA
3ba52,"""Richtig""-Screen",canvas.Screen,3_0_1_0_0_0_1,NA,NA,skipped,NA,413814.39999962,NA,NA,413813.59999943,413814.59999943,2024-04-13T03:39:06Z,413815.21,NULL,Tester,wanaojaribu,d,NA,NA,NA,NA,sdfdsf,NA,1,NA,NA,NA,NA,NA,NA,NA,NA,NA,NA,NA,NA,NA,NA,NA,NA,NA,NA,NA
3ba52,"""Falsch""-Screen",canvas.Screen,3_0_1_0_0_0_2,NA,NA,timeout,4999.99,413815,413815.21,413815.21,418798.5,418799.29999923997,2024-04-13T03:39:11Z,418815.2,NULL,Tester,wanaojaribu,d,NA,NA,NA,NA,sdfdsf,0,1,NA,NA,NA,NA,NA,NA,NA,NA,NA,NA,NA,NA,NA,NA,NA,NA,NA,NA,NA
3ba52,deep,flow.Sequence,3_0_1_0_0_0,NA,NA,completion,8683.4,410099.19999981,410098.512,410115.1,418798.5,418799.59999943,2024-04-13T03:39:11Z,418815.2,NULL,Tester,wanaojaribu,d,NA,NA,NA,NA,sdfdsf,NA,1,NA,NA,NA,NA,NA,NA,NA,NA,NA,NA,NA,NA,NA,NA,NA,NA,NA,NA,NA
3ba52,shallow,flow.Sequence,3_0_1_0_0_1,NA,NA,skipped,NA,418799.69999981,NA,NA,418798.5,418799.79999924,2024-04-13T03:39:11Z,418815.2,NULL,Tester,wanaojaribu,d,NA,NA,NA,NA,sdfdsf,NA,1,NA,NA,NA,NA,NA,NA,NA,NA,NA,NA,NA,NA,NA,NA,NA,NA,NA,NA,NA
3ba52,task,flow.Sequence,3_0_1_0_0,NA,NA,completion,8683.4,410099.19999981,410098.512,410115.1,418798.5,418799.89999962,2024-04-13T03:39:11Z,418815.2,NULL,Tester,wanaojaribu,d,NA,NA,NA,NA,sdfdsf,NA,1,NA,NA,NA,NA,NA,NA,NA,NA,NA,NA,NA,NA,NA,NA,NA,NA,NA,NA,NA
3ba52,Deep Question,html.Page,3_0_1_0_1_0_0,NA,NA,form submission,8122.099999237,418800,418798.5,418815.2,426937.29999924,426937.5,2024-04-13T03:39:19Z,426948.3,NULL,Niveau,kiwango,d,NA,NA,NA,kwanfumi,NA,NA,1,NA,NA,NA,NA,NA,NA,NA,NA,NA,NA,NA,NA,NA,NA,NA,NA,NA,NA,NA
3ba52,"""Richtig""-Screen",canvas.Screen,3_0_1_0_1_0_1,NA,NA,skipped,NA,426939.19999981,NA,NA,426937.29999924,426939.39999962,2024-04-13T03:39:19Z,426948.3,NULL,Niveau,kiwango,d,NA,NA,NA,NA,sdfdsf,NA,1,NA,NA,NA,NA,NA,NA,NA,NA,NA,NA,NA,NA,NA,NA,NA,NA,NA,NA,NA
3ba52,"""Falsch""-Screen",canvas.Screen,3_0_1_0_1_0_2,NA,NA,timeout,5000.1,426939.79999924,426931.8,426948.3,431931.8,431932.5,2024-04-13T03:39:24Z,431948.4,NULL,Niveau,kiwango,d,NA,NA,NA,NA,sdfdsf,0,1,NA,NA,NA,NA,NA,NA,NA,NA,NA,NA,NA,NA,NA,NA,NA,NA,NA,NA,NA
3ba52,deep,flow.Sequence,3_0_1_0_1_0,NA,NA,completion,13116.6,418800,418798.5,418815.2,431931.8,431932.79999923997,2024-04-13T03:39:24Z,431948.4,NULL,Niveau,kiwango,d,NA,NA,NA,NA,sdfdsf,NA,1,NA,NA,NA,NA,NA,NA,NA,NA,NA,NA,NA,NA,NA,NA,NA,NA,NA,NA,NA
3ba52,shallow,flow.Sequence,3_0_1_0_1_1,NA,NA,skipped,NA,431932.89999962,NA,NA,431931.8,431933,2024-04-13T03:39:24Z,431948.4,NULL,Niveau,kiwango,d,NA,NA,NA,NA,sdfdsf,NA,1,NA,NA,NA,NA,NA,NA,NA,NA,NA,NA,NA,NA,NA,NA,NA,NA,NA,NA,NA
3ba52,task,flow.Sequence,3_0_1_0_1,NA,NA,completion,13116.6,418800,418798.5,418815.2,431931.8,431933.19999981,2024-04-13T03:39:24Z,431948.4,NULL,Niveau,kiwango,d,NA,NA,NA,NA,sdfdsf,NA,1,NA,NA,NA,NA,NA,NA,NA,NA,NA,NA,NA,NA,NA,NA,NA,NA,NA,NA,NA
3ba52,deep,flow.Sequence,3_0_1_0_2_0,NA,NA,skipped,NA,431933.29999924,NA,NA,431931.8,431933.29999924,2024-04-13T03:39:24Z,431948.4,NULL,Fenster,dirisha,s,walakini,tasawari,maarifa,NA,sdfdsf,NA,1,NA,NA,NA,NA,NA,NA,NA,NA,NA,NA,NA,NA,NA,NA,NA,NA,NA,NA,NA
3ba52,Shallow Question,html.Page,3_0_1_0_2_1_0,NA,NA,form submission,7611.1999994278,431933.39999962,431931.8,431948.4,439559.59999943,439559.79999924,2024-04-13T03:39:31Z,439565.9,NULL,Fenster,dirisha,s,walakini,tasawari,maarifa,dirisha,NA,NA,1,NA,NA,NA,NA,NA,NA,NA,NA,NA,NA,NA,NA,NA,NA,NA,NA,NA,NA,NA
3ba52,"""Richtig""-Screen",canvas.Screen,3_0_1_0_2_1_1,NA,NA,timeout,4999.1,439561.39999962,439548.504,439565.9,444548.5,444549.19999981,2024-04-13T03:39:36Z,444565,NULL,Fenster,dirisha,s,walakini,tasawari,maarifa,NA,sdfdsf,1,1,NA,NA,NA,NA,NA,NA,NA,NA,NA,NA,NA,NA,NA,NA,NA,NA,NA,NA,NA
3ba52,"""Falsch""-Screen",canvas.Screen,3_0_1_0_2_1_2,NA,NA,skipped,NA,444553.39999962,NA,NA,444548.5,444553.5,2024-04-13T03:39:36Z,444565,NULL,Fenster,dirisha,s,walakini,tasawari,maarifa,NA,sdfdsf,NA,1,NA,NA,NA,NA,NA,NA,NA,NA,NA,NA,NA,NA,NA,NA,NA,NA,NA,NA,NA
3ba52,shallow,flow.Sequence,3_0_1_0_2_1,NA,NA,completion,12600.1,431933.39999962,431931.8,431948.4,444548.5,444553.79999924,2024-04-13T03:39:36Z,444565,NULL,Fenster,dirisha,s,walakini,tasawari,maarifa,NA,sdfdsf,NA,1,NA,NA,NA,NA,NA,NA,NA,NA,NA,NA,NA,NA,NA,NA,NA,NA,NA,NA,NA
3ba52,task,flow.Sequence,3_0_1_0_2,NA,NA,completion,12600.1,431933.29999924,431931.8,431948.4,444548.5,444553.89999962,2024-04-13T03:39:36Z,444565,NULL,Fenster,dirisha,s,walakini,tasawari,maarifa,NA,sdfdsf,NA,1,NA,NA,NA,NA,NA,NA,NA,NA,NA,NA,NA,NA,NA,NA,NA,NA,NA,NA,NA
3ba52,deep,flow.Sequence,3_0_1_0_3_0,NA,NA,skipped,NA,444554,NA,NA,444548.5,444554.09999943,2024-04-13T03:39:36Z,444565,NULL,Vorwurf,mashtaka,s,msukumo,mtangulizi,uenyekiti,NA,sdfdsf,NA,1,NA,NA,NA,NA,NA,NA,NA,NA,NA,NA,NA,NA,NA,NA,NA,NA,NA,NA,NA
3ba52,Shallow Question,html.Page,3_0_1_0_3_1_0,NA,NA,form submission,8942.5,444554.19999981,444548.5,444565,453507.5,453507.69999981,2024-04-13T03:39:45Z,453514.9,NULL,Vorwurf,mashtaka,s,msukumo,mtangulizi,uenyekiti,mashtaka,NA,NA,1,NA,NA,NA,NA,NA,NA,NA,NA,NA,NA,NA,NA,NA,NA,NA,NA,NA,NA,NA
3ba52,"""Richtig""-Screen",canvas.Screen,3_0_1_0_3_1_1,NA,NA,timeout,5000.2,453509.29999924,453498.49,453514.9,458498.4,458499.19999981,2024-04-13T03:39:50Z,458515.1,NULL,Vorwurf,mashtaka,s,msukumo,mtangulizi,uenyekiti,NA,sdfdsf,1,1,NA,NA,NA,NA,NA,NA,NA,NA,NA,NA,NA,NA,NA,NA,NA,NA,NA,NA,NA
3ba52,"""Falsch""-Screen",canvas.Screen,3_0_1_0_3_1_2,NA,NA,skipped,NA,458503.09999943,NA,NA,458498.4,458503.29999924,2024-04-13T03:39:50Z,458515.1,NULL,Vorwurf,mashtaka,s,msukumo,mtangulizi,uenyekiti,NA,sdfdsf,NA,1,NA,NA,NA,NA,NA,NA,NA,NA,NA,NA,NA,NA,NA,NA,NA,NA,NA,NA,NA
3ba52,shallow,flow.Sequence,3_0_1_0_3_1,NA,NA,completion,13933.4,444554.19999981,444548.5,444565,458498.4,458503.5,2024-04-13T03:39:50Z,458515.1,NULL,Vorwurf,mashtaka,s,msukumo,mtangulizi,uenyekiti,NA,sdfdsf,NA,1,NA,NA,NA,NA,NA,NA,NA,NA,NA,NA,NA,NA,NA,NA,NA,NA,NA,NA,NA
3ba52,task,flow.Sequence,3_0_1_0_3,NA,NA,completion,13933.4,444554,444548.5,444565,458498.4,458503.69999981,2024-04-13T03:39:50Z,458515.1,NULL,Vorwurf,mashtaka,s,msukumo,mtangulizi,uenyekiti,NA,sdfdsf,NA,1,NA,NA,NA,NA,NA,NA,NA,NA,NA,NA,NA,NA,NA,NA,NA,NA,NA,NA,NA
3ba52,Deep Question,html.Page,3_0_1_0_4_0_0,NA,NA,form submission,7034.1999992371,458503.79999923997,458498.4,458515.1,465549.29999924,465549.5,2024-04-13T03:39:57Z,465565.1,NULL,Schüler,mwanafunzi,d,NA,NA,NA,kawamfunzi,NA,NA,1,NA,NA,NA,NA,NA,NA,NA,NA,NA,NA,NA,NA,NA,NA,NA,NA,NA,NA,NA
3ba52,"""Richtig""-Screen",canvas.Screen,3_0_1_0_4_0_1,NA,NA,skipped,NA,465551.19999981,NA,NA,465549.29999924,465551.29999924,2024-04-13T03:39:57Z,465565.1,NULL,Schüler,mwanafunzi,d,NA,NA,NA,NA,sdfdsf,NA,1,NA,NA,NA,NA,NA,NA,NA,NA,NA,NA,NA,NA,NA,NA,NA,NA,NA,NA,NA
3ba52,"""Falsch""-Screen",canvas.Screen,3_0_1_0_4_0_2,NA,NA,timeout,5000,465551.79999924,465549.726,465565.1,470548.4,470549.09999943,2024-04-13T03:40:02Z,470565.1,NULL,Schüler,mwanafunzi,d,NA,NA,NA,NA,sdfdsf,0,1,NA,NA,NA,NA,NA,NA,NA,NA,NA,NA,NA,NA,NA,NA,NA,NA,NA,NA,NA
3ba52,deep,flow.Sequence,3_0_1_0_4_0,NA,NA,completion,12033.3,458503.79999923997,458498.4,458515.1,470548.4,470549.5,2024-04-13T03:40:02Z,470565.1,NULL,Schüler,mwanafunzi,d,NA,NA,NA,NA,sdfdsf,NA,1,NA,NA,NA,NA,NA,NA,NA,NA,NA,NA,NA,NA,NA,NA,NA,NA,NA,NA,NA
3ba52,shallow,flow.Sequence,3_0_1_0_4_1,NA,NA,skipped,NA,470549.59999943,NA,NA,470548.4,470549.79999923997,2024-04-13T03:40:02Z,470565.1,NULL,Schüler,mwanafunzi,d,NA,NA,NA,NA,sdfdsf,NA,1,NA,NA,NA,NA,NA,NA,NA,NA,NA,NA,NA,NA,NA,NA,NA,NA,NA,NA,NA
3ba52,task,flow.Sequence,3_0_1_0_4,NA,NA,completion,12033.3,458503.69999981,458498.4,458515.1,470548.4,470549.89999962,2024-04-13T03:40:02Z,470565.1,NULL,Schüler,mwanafunzi,d,NA,NA,NA,NA,sdfdsf,NA,1,NA,NA,NA,NA,NA,NA,NA,NA,NA,NA,NA,NA,NA,NA,NA,NA,NA,NA,NA
3ba52,deep,flow.Sequence,3_0_1_0_5_0,NA,NA,skipped,NA,470550,NA,NA,470548.4,470550.09999943,2024-04-13T03:40:02Z,470565.1,NULL,Spionage,upelelezi,s,maslahi,utokazo,magangao,NA,sdfdsf,NA,1,NA,NA,NA,NA,NA,NA,NA,NA,NA,NA,NA,NA,NA,NA,NA,NA,NA,NA,NA
3ba52,Shallow Question,html.Page,3_0_1_0_5_1_0,NA,NA,form submission,4981.4999994278,470550.09999943,470548.4,470565.1,475546.59999943,475546.79999924,2024-04-13T03:40:07Z,475548.62,NULL,Spionage,upelelezi,s,maslahi,utokazo,magangao,upelelezi,NA,NA,1,NA,NA,NA,NA,NA,NA,NA,NA,NA,NA,NA,NA,NA,NA,NA,NA,NA,NA,NA
3ba52,"""Richtig""-Screen",canvas.Screen,3_0_1_0_5_1_1,NA,NA,timeout,4999.88,475548.59999943,475548.62,475548.62,480531.7,480532.69999981,2024-04-13T03:40:12Z,480548.5,NULL,Spionage,upelelezi,s,maslahi,utokazo,magangao,NA,sdfdsf,1,1,NA,NA,NA,NA,NA,NA,NA,NA,NA,NA,NA,NA,NA,NA,NA,NA,NA,NA,NA
3ba52,"""Falsch""-Screen",canvas.Screen,3_0_1_0_5_1_2,NA,NA,skipped,NA,480536.59999943,NA,NA,480531.7,480536.79999924,2024-04-13T03:40:12Z,480548.5,NULL,Spionage,upelelezi,s,maslahi,utokazo,magangao,NA,sdfdsf,NA,1,NA,NA,NA,NA,NA,NA,NA,NA,NA,NA,NA,NA,NA,NA,NA,NA,NA,NA,NA
3ba52,shallow,flow.Sequence,3_0_1_0_5_1,NA,NA,completion,9966.6,470550.09999943,470548.4,470565.1,480531.7,480536.89999962,2024-04-13T03:40:12Z,480548.5,NULL,Spionage,upelelezi,s,maslahi,utokazo,magangao,NA,sdfdsf,NA,1,NA,NA,NA,NA,NA,NA,NA,NA,NA,NA,NA,NA,NA,NA,NA,NA,NA,NA,NA
3ba52,task,flow.Sequence,3_0_1_0_5,NA,NA,completion,9966.6,470550,470548.4,470565.1,480531.7,480537.09999943,2024-04-13T03:40:12Z,480548.5,NULL,Spionage,upelelezi,s,maslahi,utokazo,magangao,NA,sdfdsf,NA,1,NA,NA,NA,NA,NA,NA,NA,NA,NA,NA,NA,NA,NA,NA,NA,NA,NA,NA,NA
3ba52,Deep Question,html.Page,3_0_1_0_6_0_0,NA,NA,form submission,3075.7999992371,480537.19999981,480531.7,480548.5,483624.29999924,483624.5,2024-04-13T03:40:15Z,483631.828,NULL,Papier,karatasi,d,NA,NA,NA,l,NA,NA,1,NA,NA,NA,NA,NA,NA,NA,NA,NA,NA,NA,NA,NA,NA,NA,NA,NA,NA,NA
3ba52,"""Richtig""-Screen",canvas.Screen,3_0_1_0_6_0_1,NA,NA,skipped,NA,483626,NA,NA,483624.29999924,483626.09999943,2024-04-13T03:40:15Z,483631.828,NULL,Papier,karatasi,d,NA,NA,NA,NA,sdfdsf,NA,1,NA,NA,NA,NA,NA,NA,NA,NA,NA,NA,NA,NA,NA,NA,NA,NA,NA,NA,NA
3ba52,"""Falsch""-Screen",canvas.Screen,3_0_1_0_6_0_2,NA,NA,timeout,4999.972,483626.69999981,483631.828,483631.828,488615.1,488615.89999962,2024-04-13T03:40:20Z,488631.8,NULL,Papier,karatasi,d,NA,NA,NA,NA,sdfdsf,0,1,NA,NA,NA,NA,NA,NA,NA,NA,NA,NA,NA,NA,NA,NA,NA,NA,NA,NA,NA
3ba52,deep,flow.Sequence,3_0_1_0_6_0,NA,NA,completion,8066.6,480537.19999981,480531.7,480548.5,488615.1,488616.19999981,2024-04-13T03:40:20Z,488631.8,NULL,Papier,karatasi,d,NA,NA,NA,NA,sdfdsf,NA,1,NA,NA,NA,NA,NA,NA,NA,NA,NA,NA,NA,NA,NA,NA,NA,NA,NA,NA,NA
3ba52,shallow,flow.Sequence,3_0_1_0_6_1,NA,NA,skipped,NA,488616.29999924,NA,NA,488615.1,488616.39999962,2024-04-13T03:40:20Z,488631.8,NULL,Papier,karatasi,d,NA,NA,NA,NA,sdfdsf,NA,1,NA,NA,NA,NA,NA,NA,NA,NA,NA,NA,NA,NA,NA,NA,NA,NA,NA,NA,NA
3ba52,task,flow.Sequence,3_0_1_0_6,NA,NA,completion,8066.6,480537.19999981,480531.7,480548.5,488615.1,488616.5,2024-04-13T03:40:20Z,488631.8,NULL,Papier,karatasi,d,NA,NA,NA,NA,sdfdsf,NA,1,NA,NA,NA,NA,NA,NA,NA,NA,NA,NA,NA,NA,NA,NA,NA,NA,NA,NA,NA
3ba52,deep,flow.Sequence,3_0_1_0_7_0,NA,NA,skipped,NA,488616.59999943,NA,NA,488615.1,488616.69999981,2024-04-13T03:40:20Z,488631.8,NULL,Entwicklung,maendeleo,s,uangavu,mshindwa,badiliko,NA,sdfdsf,NA,1,NA,NA,NA,NA,NA,NA,NA,NA,NA,NA,NA,NA,NA,NA,NA,NA,NA,NA,NA
3ba52,Shallow Question,html.Page,3_0_1_0_7_1_0,NA,NA,form submission,5935.7999994278,488616.79999924,488615.1,488631.8,494567.59999943,494567.89999962,2024-04-13T03:40:26Z,494581.7,NULL,Entwicklung,maendeleo,s,uangavu,mshindwa,badiliko,maendeleo,NA,NA,1,NA,NA,NA,NA,NA,NA,NA,NA,NA,NA,NA,NA,NA,NA,NA,NA,NA,NA,NA
3ba52,"""Richtig""-Screen",canvas.Screen,3_0_1_0_7_1_1,NA,NA,timeout,5000,494569.59999943,494565.2,494581.7,499565.1,499565.69999981,2024-04-13T03:40:31Z,499581.7,NULL,Entwicklung,maendeleo,s,uangavu,mshindwa,badiliko,NA,sdfdsf,1,1,NA,NA,NA,NA,NA,NA,NA,NA,NA,NA,NA,NA,NA,NA,NA,NA,NA,NA,NA
3ba52,"""Falsch""-Screen",canvas.Screen,3_0_1_0_7_1_2,NA,NA,skipped,NA,499569.59999943,NA,NA,499565.1,499569.79999923997,2024-04-13T03:40:31Z,499581.7,NULL,Entwicklung,maendeleo,s,uangavu,mshindwa,badiliko,NA,sdfdsf,NA,1,NA,NA,NA,NA,NA,NA,NA,NA,NA,NA,NA,NA,NA,NA,NA,NA,NA,NA,NA
3ba52,shallow,flow.Sequence,3_0_1_0_7_1,NA,NA,completion,10933.3,488616.69999981,488615.1,488631.8,499565.1,499570,2024-04-13T03:40:31Z,499581.7,NULL,Entwicklung,maendeleo,s,uangavu,mshindwa,badiliko,NA,sdfdsf,NA,1,NA,NA,NA,NA,NA,NA,NA,NA,NA,NA,NA,NA,NA,NA,NA,NA,NA,NA,NA
3ba52,task,flow.Sequence,3_0_1_0_7,NA,NA,completion,10933.3,488616.59999943,488615.1,488631.8,499565.1,499570.19999981,2024-04-13T03:40:31Z,499581.7,NULL,Entwicklung,maendeleo,s,uangavu,mshindwa,badiliko,NA,sdfdsf,NA,1,NA,NA,NA,NA,NA,NA,NA,NA,NA,NA,NA,NA,NA,NA,NA,NA,NA,NA,NA
3ba52,block,flow.Loop,3_0_1_0,NA,NA,completion,89450,410099.19999981,410098.512,410115.1,499565.1,499570.39999962,2024-04-13T03:40:31Z,499581.7,NULL,NA,NA,NA,NA,NA,NA,NA,sdfdsf,NA,1,NA,NA,NA,NA,NA,NA,NA,NA,NA,NA,NA,NA,NA,NA,NA,NA,NA,NA,NA
3ba52,weiter,canvas.Screen,3_0_1_1,sdf,keypress(Space),response,1601.8,499570.5,499565.1,499581.7,501183.5,501184.39999962,2024-04-13T03:40:33Z,501231.6,NULL,NA,NA,NA,NA,NA,NA,NA,sdfdsf,NA,1,NA,NA,NA,NA,NA,NA,NA,NA,NA,NA,NA,NA,NA,NA,NA,NA,NA,NA,NA
3ba52,check continue,flow.Sequence,3_0_1,NA,NA,completion,91068.4,410099.19999981,410098.512,410115.1,501183.5,501184.59999943,2024-04-13T03:40:33Z,501231.6,NULL,NA,NA,NA,NA,NA,NA,NA,sdfdsf,NA,1,NA,NA,NA,NA,NA,NA,NA,NA,NA,NA,NA,NA,NA,NA,NA,NA,NA,NA,NA
3ba52,deep,flow.Sequence,3_0_2_0_0_0,NA,NA,skipped,NA,501219.5,NA,NA,501183.5,501219.5,2024-04-13T03:40:33Z,501231.6,NULL,Fenster,dirisha,s,walakini,tasawari,maarifa,NA,sdf,NA,2,NA,NA,NA,NA,NA,NA,NA,NA,NA,NA,NA,NA,NA,NA,NA,NA,NA,NA,NA
3ba52,Shallow Question,html.Page,3_0_2_0_0_1_0,NA,NA,form submission,5720.9,501219.69999981,501214.968,501231.6,506952.5,506952.59999943,2024-04-13T03:40:39Z,506965.1,NULL,Fenster,dirisha,s,walakini,tasawari,maarifa,dirisha,NA,NA,2,NA,NA,NA,NA,NA,NA,NA,NA,NA,NA,NA,NA,NA,NA,NA,NA,NA,NA,NA
3ba52,"""Richtig""-Screen",canvas.Screen,3_0_2_0_0_1_1,NA,NA,timeout,4999.9,506954.29999924,506948.466,506965.1,511948.4,511949.19999981,2024-04-13T03:40:44Z,511965,NULL,Fenster,dirisha,s,walakini,tasawari,maarifa,NA,sdf,1,2,NA,NA,NA,NA,NA,NA,NA,NA,NA,NA,NA,NA,NA,NA,NA,NA,NA,NA,NA
3ba52,"""Falsch""-Screen",canvas.Screen,3_0_2_0_0_1_2,NA,NA,skipped,NA,511953.19999981,NA,NA,511948.4,511953.29999924,2024-04-13T03:40:44Z,511965,NULL,Fenster,dirisha,s,walakini,tasawari,maarifa,NA,sdf,NA,2,NA,NA,NA,NA,NA,NA,NA,NA,NA,NA,NA,NA,NA,NA,NA,NA,NA,NA,NA
3ba52,shallow,flow.Sequence,3_0_2_0_0_1,NA,NA,completion,10716.8,501219.59999943,501214.968,501231.6,511948.4,511953.5,2024-04-13T03:40:44Z,511965,NULL,Fenster,dirisha,s,walakini,tasawari,maarifa,NA,sdf,NA,2,NA,NA,NA,NA,NA,NA,NA,NA,NA,NA,NA,NA,NA,NA,NA,NA,NA,NA,NA
3ba52,task,flow.Sequence,3_0_2_0_0,NA,NA,completion,10716.8,501219.39999962,501214.968,501231.6,511948.4,511953.69999981,2024-04-13T03:40:44Z,511965,NULL,Fenster,dirisha,s,walakini,tasawari,maarifa,NA,sdf,NA,2,NA,NA,NA,NA,NA,NA,NA,NA,NA,NA,NA,NA,NA,NA,NA,NA,NA,NA,NA
3ba52,Deep Question,html.Page,3_0_2_0_1_0_0,NA,NA,form submission,3753.5999994278,511953.69999981,511948.4,511965,515718.59999943,515718.69999981,2024-04-13T03:40:48Z,515731.6,NULL,Niveau,kiwango,d,NA,NA,NA,kiwango,NA,NA,2,NA,NA,NA,NA,NA,NA,NA,NA,NA,NA,NA,NA,NA,NA,NA,NA,NA,NA,NA
3ba52,"""Richtig""-Screen",canvas.Screen,3_0_2_0_1_0_1,NA,NA,timeout,5000.1,515720.29999923997,515715.598,515731.6,520715.1,520715.89999962,2024-04-13T03:40:53Z,520731.7,NULL,Niveau,kiwango,d,NA,NA,NA,NA,sdf,1,2,NA,NA,NA,NA,NA,NA,NA,NA,NA,NA,NA,NA,NA,NA,NA,NA,NA,NA,NA
3ba52,"""Falsch""-Screen",canvas.Screen,3_0_2_0_1_0_2,NA,NA,skipped,NA,520720,NA,NA,520715.1,520720.19999981,2024-04-13T03:40:53Z,520731.7,NULL,Niveau,kiwango,d,NA,NA,NA,NA,sdf,NA,2,NA,NA,NA,NA,NA,NA,NA,NA,NA,NA,NA,NA,NA,NA,NA,NA,NA,NA,NA
3ba52,deep,flow.Sequence,3_0_2_0_1_0,NA,NA,completion,8750.1,511953.69999981,511948.4,511965,520715.1,520720.29999923997,2024-04-13T03:40:53Z,520731.7,NULL,Niveau,kiwango,d,NA,NA,NA,NA,sdf,NA,2,NA,NA,NA,NA,NA,NA,NA,NA,NA,NA,NA,NA,NA,NA,NA,NA,NA,NA,NA
3ba52,shallow,flow.Sequence,3_0_2_0_1_1,NA,NA,skipped,NA,520720.5,NA,NA,520715.1,520720.59999943,2024-04-13T03:40:53Z,520731.7,NULL,Niveau,kiwango,d,NA,NA,NA,NA,sdf,NA,2,NA,NA,NA,NA,NA,NA,NA,NA,NA,NA,NA,NA,NA,NA,NA,NA,NA,NA,NA
3ba52,task,flow.Sequence,3_0_2_0_1,NA,NA,completion,8750.1,511953.69999981,511948.4,511965,520715.1,520720.69999981,2024-04-13T03:40:53Z,520731.7,NULL,Niveau,kiwango,d,NA,NA,NA,NA,sdf,NA,2,NA,NA,NA,NA,NA,NA,NA,NA,NA,NA,NA,NA,NA,NA,NA,NA,NA,NA,NA
3ba52,Deep Question,html.Page,3_0_2_0_2_0_0,NA,NA,form submission,7871.599999237,520720.79999924,520715.1,520731.7,528603.29999924,528603.5,2024-04-13T03:41:00Z,528614.9,NULL,Papier,karatasi,d,NA,NA,NA,mwanafunzi,NA,NA,2,NA,NA,NA,NA,NA,NA,NA,NA,NA,NA,NA,NA,NA,NA,NA,NA,NA,NA,NA
3ba52,"""Richtig""-Screen",canvas.Screen,3_0_2_0_2_0_1,NA,NA,skipped,NA,528605.29999924,NA,NA,528603.29999924,528605.39999962,2024-04-13T03:41:00Z,528614.9,NULL,Papier,karatasi,d,NA,NA,NA,NA,sdf,NA,2,NA,NA,NA,NA,NA,NA,NA,NA,NA,NA,NA,NA,NA,NA,NA,NA,NA,NA,NA
3ba52,"""Falsch""-Screen",canvas.Screen,3_0_2_0_2_0_2,NA,NA,timeout,5000.1,528606.09999943,528598.42,528614.9,533598.3,533599,2024-04-13T03:41:05Z,533615,NULL,Papier,karatasi,d,NA,NA,NA,NA,sdf,0,2,NA,NA,NA,NA,NA,NA,NA,NA,NA,NA,NA,NA,NA,NA,NA,NA,NA,NA,NA
3ba52,deep,flow.Sequence,3_0_2_0_2_0,NA,NA,completion,12866.6,520720.79999924,520715.1,520731.7,533598.3,533599.19999981,2024-04-13T03:41:05Z,533615,NULL,Papier,karatasi,d,NA,NA,NA,NA,sdf,NA,2,NA,NA,NA,NA,NA,NA,NA,NA,NA,NA,NA,NA,NA,NA,NA,NA,NA,NA,NA
3ba52,shallow,flow.Sequence,3_0_2_0_2_1,NA,NA,skipped,NA,533599.39999962,NA,NA,533598.3,533599.39999962,2024-04-13T03:41:05Z,533615,NULL,Papier,karatasi,d,NA,NA,NA,NA,sdf,NA,2,NA,NA,NA,NA,NA,NA,NA,NA,NA,NA,NA,NA,NA,NA,NA,NA,NA,NA,NA
3ba52,task,flow.Sequence,3_0_2_0_2,NA,NA,completion,12866.6,520720.79999924,520715.1,520731.7,533598.3,533599.59999943,2024-04-13T03:41:05Z,533615,NULL,Papier,karatasi,d,NA,NA,NA,NA,sdf,NA,2,NA,NA,NA,NA,NA,NA,NA,NA,NA,NA,NA,NA,NA,NA,NA,NA,NA,NA,NA
3ba52,Deep Question,html.Page,3_0_2_0_3_0_0,NA,NA,form submission,4347.2999992371,533599.69999981,533598.3,533615,537962.29999924,537962.39999962,2024-04-13T03:41:10Z,537965.32,NULL,Schüler,mwanafunzi,d,NA,NA,NA,kawafunzi,NA,NA,2,NA,NA,NA,NA,NA,NA,NA,NA,NA,NA,NA,NA,NA,NA,NA,NA,NA,NA,NA
3ba52,"""Richtig""-Screen",canvas.Screen,3_0_2_0_3_0_1,NA,NA,skipped,NA,537964.09999943,NA,NA,537962.29999924,537964.19999981,2024-04-13T03:41:10Z,537965.32,NULL,Schüler,mwanafunzi,d,NA,NA,NA,NA,sdf,NA,2,NA,NA,NA,NA,NA,NA,NA,NA,NA,NA,NA,NA,NA,NA,NA,NA,NA,NA,NA
3ba52,"""Falsch""-Screen",canvas.Screen,3_0_2_0_3_0_2,NA,NA,timeout,4999.78,537964.69999981,537965.32,537965.32,542948.4,542949.09999943,2024-04-13T03:41:15Z,542965.1,NULL,Schüler,mwanafunzi,d,NA,NA,NA,NA,sdf,0,2,NA,NA,NA,NA,NA,NA,NA,NA,NA,NA,NA,NA,NA,NA,NA,NA,NA,NA,NA
3ba52,deep,flow.Sequence,3_0_2_0_3_0,NA,NA,completion,9333.4,533599.69999981,533598.3,533615,542948.4,542949.39999962,2024-04-13T03:41:15Z,542965.1,NULL,Schüler,mwanafunzi,d,NA,NA,NA,NA,sdf,NA,2,NA,NA,NA,NA,NA,NA,NA,NA,NA,NA,NA,NA,NA,NA,NA,NA,NA,NA,NA
3ba52,shallow,flow.Sequence,3_0_2_0_3_1,NA,NA,skipped,NA,542949.5,NA,NA,542948.4,542949.59999943,2024-04-13T03:41:15Z,542965.1,NULL,Schüler,mwanafunzi,d,NA,NA,NA,NA,sdf,NA,2,NA,NA,NA,NA,NA,NA,NA,NA,NA,NA,NA,NA,NA,NA,NA,NA,NA,NA,NA
3ba52,task,flow.Sequence,3_0_2_0_3,NA,NA,completion,9333.4,533599.59999943,533598.3,533615,542948.4,542949.69999981,2024-04-13T03:41:15Z,542965.1,NULL,Schüler,mwanafunzi,d,NA,NA,NA,NA,sdf,NA,2,NA,NA,NA,NA,NA,NA,NA,NA,NA,NA,NA,NA,NA,NA,NA,NA,NA,NA,NA
3ba52,deep,flow.Sequence,3_0_2_0_4_0,NA,NA,skipped,NA,542949.79999924,NA,NA,542948.4,542949.79999924,2024-04-13T03:41:15Z,542965.1,NULL,Entwicklung,maendeleo,s,uangavu,mshindwa,badiliko,NA,sdf,NA,2,NA,NA,NA,NA,NA,NA,NA,NA,NA,NA,NA,NA,NA,NA,NA,NA,NA,NA,NA
3ba52,Shallow Question,html.Page,3_0_2_0_4_1_0,NA,NA,form submission,4971.4,542949.89999962,542948.4,542965.1,547936.5,547936.69999981,2024-04-13T03:41:20Z,547948.3,NULL,Entwicklung,maendeleo,s,uangavu,mshindwa,badiliko,maendeleo,NA,NA,2,NA,NA,NA,NA,NA,NA,NA,NA,NA,NA,NA,NA,NA,NA,NA,NA,NA,NA,NA
3ba52,"""Richtig""-Screen",canvas.Screen,3_0_2_0_4_1_1,NA,NA,timeout,5000,547938.29999924,547931.794,547948.3,552931.7,552932.5,2024-04-13T03:41:25Z,552948.3,NULL,Entwicklung,maendeleo,s,uangavu,mshindwa,badiliko,NA,sdf,1,2,NA,NA,NA,NA,NA,NA,NA,NA,NA,NA,NA,NA,NA,NA,NA,NA,NA,NA,NA
3ba52,"""Falsch""-Screen",canvas.Screen,3_0_2_0_4_1_2,NA,NA,skipped,NA,552936.59999943,NA,NA,552931.7,552936.79999924,2024-04-13T03:41:25Z,552948.3,NULL,Entwicklung,maendeleo,s,uangavu,mshindwa,badiliko,NA,sdf,NA,2,NA,NA,NA,NA,NA,NA,NA,NA,NA,NA,NA,NA,NA,NA,NA,NA,NA,NA,NA
3ba52,shallow,flow.Sequence,3_0_2_0_4_1,NA,NA,completion,9966.6,542949.89999962,542948.4,542965.1,552931.7,552937.09999943,2024-04-13T03:41:25Z,552948.3,NULL,Entwicklung,maendeleo,s,uangavu,mshindwa,badiliko,NA,sdf,NA,2,NA,NA,NA,NA,NA,NA,NA,NA,NA,NA,NA,NA,NA,NA,NA,NA,NA,NA,NA
3ba52,task,flow.Sequence,3_0_2_0_4,NA,NA,completion,9966.6,542949.79999924,542948.4,542965.1,552931.7,552937.09999943,2024-04-13T03:41:25Z,552948.3,NULL,Entwicklung,maendeleo,s,uangavu,mshindwa,badiliko,NA,sdf,NA,2,NA,NA,NA,NA,NA,NA,NA,NA,NA,NA,NA,NA,NA,NA,NA,NA,NA,NA,NA
3ba52,deep,flow.Sequence,3_0_2_0_5_0,NA,NA,skipped,NA,552937.29999924,NA,NA,552931.7,552937.39999962,2024-04-13T03:41:25Z,552948.3,NULL,Vorwurf,mashtaka,s,msukumo,mtangulizi,uenyekiti,NA,sdf,NA,2,NA,NA,NA,NA,NA,NA,NA,NA,NA,NA,NA,NA,NA,NA,NA,NA,NA,NA,NA
3ba52,Shallow Question,html.Page,3_0_2_0_5_1_0,NA,NA,form submission,3373.0999996185,552937.39999962,552931.7,552948.3,556321.39999962,556321.5,2024-04-13T03:41:28Z,556331.6,NULL,Vorwurf,mashtaka,s,msukumo,mtangulizi,uenyekiti,mashtaka,NA,NA,2,NA,NA,NA,NA,NA,NA,NA,NA,NA,NA,NA,NA,NA,NA,NA,NA,NA,NA,NA
3ba52,"""Richtig""-Screen",canvas.Screen,3_0_2_0_5_1_1,NA,NA,timeout,5000.1,556323,556315.4,556331.6,561315,561315.79999924,2024-04-13T03:41:33Z,561331.7,NULL,Vorwurf,mashtaka,s,msukumo,mtangulizi,uenyekiti,NA,sdf,1,2,NA,NA,NA,NA,NA,NA,NA,NA,NA,NA,NA,NA,NA,NA,NA,NA,NA,NA,NA
3ba52,"""Falsch""-Screen",canvas.Screen,3_0_2_0_5_1_2,NA,NA,skipped,NA,561319.89999962,NA,NA,561315,561320.09999943,2024-04-13T03:41:33Z,561331.7,NULL,Vorwurf,mashtaka,s,msukumo,mtangulizi,uenyekiti,NA,sdf,NA,2,NA,NA,NA,NA,NA,NA,NA,NA,NA,NA,NA,NA,NA,NA,NA,NA,NA,NA,NA
3ba52,shallow,flow.Sequence,3_0_2_0_5_1,NA,NA,completion,8366.7,552937.39999962,552931.7,552948.3,561315,561320.39999962,2024-04-13T03:41:33Z,561331.7,NULL,Vorwurf,mashtaka,s,msukumo,mtangulizi,uenyekiti,NA,sdf,NA,2,NA,NA,NA,NA,NA,NA,NA,NA,NA,NA,NA,NA,NA,NA,NA,NA,NA,NA,NA
3ba52,task,flow.Sequence,3_0_2_0_5,NA,NA,completion,8366.7,552937.19999981,552931.7,552948.3,561315,561320.5,2024-04-13T03:41:33Z,561331.7,NULL,Vorwurf,mashtaka,s,msukumo,mtangulizi,uenyekiti,NA,sdf,NA,2,NA,NA,NA,NA,NA,NA,NA,NA,NA,NA,NA,NA,NA,NA,NA,NA,NA,NA,NA
3ba52,deep,flow.Sequence,3_0_2_0_6_0,NA,NA,skipped,NA,561320.59999943,NA,NA,561315,561320.59999943,2024-04-13T03:41:33Z,561331.7,NULL,Spionage,upelelezi,s,maslahi,utokazo,magangao,NA,sdf,NA,2,NA,NA,NA,NA,NA,NA,NA,NA,NA,NA,NA,NA,NA,NA,NA,NA,NA,NA,NA
3ba52,Shallow Question,html.Page,3_0_2_0_6_1_0,NA,NA,form submission,4800.6999996186,561320.69999981,561315,561331.7,566132.39999962,566132.59999943,2024-04-13T03:41:38Z,566148.4,NULL,Spionage,upelelezi,s,maslahi,utokazo,magangao,upelelezi,NA,NA,2,NA,NA,NA,NA,NA,NA,NA,NA,NA,NA,NA,NA,NA,NA,NA,NA,NA,NA,NA
3ba52,"""Richtig""-Screen",canvas.Screen,3_0_2_0_6_1_1,NA,NA,timeout,5000,566134.19999981,566131.772,566148.4,571131.7,571132.5,2024-04-13T03:41:43Z,571148.4,NULL,Spionage,upelelezi,s,maslahi,utokazo,magangao,NA,sdf,1,2,NA,NA,NA,NA,NA,NA,NA,NA,NA,NA,NA,NA,NA,NA,NA,NA,NA,NA,NA
3ba52,"""Falsch""-Screen",canvas.Screen,3_0_2_0_6_1_2,NA,NA,skipped,NA,571136.39999962,NA,NA,571131.7,571136.59999943,2024-04-13T03:41:43Z,571148.4,NULL,Spionage,upelelezi,s,maslahi,utokazo,magangao,NA,sdf,NA,2,NA,NA,NA,NA,NA,NA,NA,NA,NA,NA,NA,NA,NA,NA,NA,NA,NA,NA,NA
3ba52,shallow,flow.Sequence,3_0_2_0_6_1,NA,NA,completion,9800,561320.69999981,561315,561331.7,571131.7,571136.79999924,2024-04-13T03:41:43Z,571148.4,NULL,Spionage,upelelezi,s,maslahi,utokazo,magangao,NA,sdf,NA,2,NA,NA,NA,NA,NA,NA,NA,NA,NA,NA,NA,NA,NA,NA,NA,NA,NA,NA,NA
3ba52,task,flow.Sequence,3_0_2_0_6,NA,NA,completion,9800,561320.5,561315,561331.7,571131.7,571136.89999962,2024-04-13T03:41:43Z,571148.4,NULL,Spionage,upelelezi,s,maslahi,utokazo,magangao,NA,sdf,NA,2,NA,NA,NA,NA,NA,NA,NA,NA,NA,NA,NA,NA,NA,NA,NA,NA,NA,NA,NA
3ba52,Deep Question,html.Page,3_0_2_0_7_0_0,NA,NA,form submission,1530.6,571137,571131.7,571148.4,572679,572679.19999981,2024-04-13T03:41:45Z,572681.6,NULL,Tester,wanaojaribu,d,NA,NA,NA,l,NA,NA,2,NA,NA,NA,NA,NA,NA,NA,NA,NA,NA,NA,NA,NA,NA,NA,NA,NA,NA,NA
3ba52,"""Richtig""-Screen",canvas.Screen,3_0_2_0_7_0_1,NA,NA,skipped,NA,572679.79999924,NA,NA,572679,572679.89999962,2024-04-13T03:41:45Z,572681.6,NULL,Tester,wanaojaribu,d,NA,NA,NA,NA,sdf,NA,2,NA,NA,NA,NA,NA,NA,NA,NA,NA,NA,NA,NA,NA,NA,NA,NA,NA,NA,NA
3ba52,"""Falsch""-Screen",canvas.Screen,3_0_2_0_7_0_2,NA,NA,timeout,5000.1,572680.19999981,572665.352,572681.6,577665,577665.69999981,2024-04-13T03:41:50Z,577681.7,NULL,Tester,wanaojaribu,d,NA,NA,NA,NA,sdf,0,2,NA,NA,NA,NA,NA,NA,NA,NA,NA,NA,NA,NA,NA,NA,NA,NA,NA,NA,NA
3ba52,deep,flow.Sequence,3_0_2_0_7_0,NA,NA,completion,6516.6,571137,571131.7,571148.4,577665,577665.89999962,2024-04-13T03:41:50Z,577681.7,NULL,Tester,wanaojaribu,d,NA,NA,NA,NA,sdf,NA,2,NA,NA,NA,NA,NA,NA,NA,NA,NA,NA,NA,NA,NA,NA,NA,NA,NA,NA,NA
3ba52,shallow,flow.Sequence,3_0_2_0_7_1,NA,NA,skipped,NA,577666.09999943,NA,NA,577665,577666.09999943,2024-04-13T03:41:50Z,577681.7,NULL,Tester,wanaojaribu,d,NA,NA,NA,NA,sdf,NA,2,NA,NA,NA,NA,NA,NA,NA,NA,NA,NA,NA,NA,NA,NA,NA,NA,NA,NA,NA
3ba52,task,flow.Sequence,3_0_2_0_7,NA,NA,completion,6516.6,571137,571131.7,571148.4,577665,577666.19999981,2024-04-13T03:41:50Z,577681.7,NULL,Tester,wanaojaribu,d,NA,NA,NA,NA,sdf,NA,2,NA,NA,NA,NA,NA,NA,NA,NA,NA,NA,NA,NA,NA,NA,NA,NA,NA,NA,NA
3ba52,block,flow.Loop,3_0_2_0,NA,NA,completion,76433.4,501219.39999962,501214.968,501231.6,577665,577666.39999962,2024-04-13T03:41:50Z,577681.7,NULL,NA,NA,NA,NA,NA,NA,NA,sdf,NA,2,NA,NA,NA,NA,NA,NA,NA,NA,NA,NA,NA,NA,NA,NA,NA,NA,NA,NA,NA
3ba52,weiter,canvas.Screen,3_0_2_1,sdf,keypress(Space),response,1125.6999996186,577666.39999962,577665,577681.7,578807.39999962,578808.19999981,2024-04-13T03:41:51Z,578864.9,NULL,NA,NA,NA,NA,NA,NA,NA,sdf,NA,2,NA,NA,NA,NA,NA,NA,NA,NA,NA,NA,NA,NA,NA,NA,NA,NA,NA,NA,NA
3ba52,check continue,flow.Sequence,3_0_2,NA,NA,completion,77575.799999619,501219.39999962,501214.968,501231.6,578807.39999962,578808.29999924,2024-04-13T03:41:51Z,578864.9,NULL,NA,NA,NA,NA,NA,NA,NA,sdf,NA,2,NA,NA,NA,NA,NA,NA,NA,NA,NA,NA,NA,NA,NA,NA,NA,NA,NA,NA,NA
3ba52,Deep Question,html.Page,3_0_3_0_0_0_0,NA,NA,form submission,2519.4999996185,578854.29999924,578848.6,578864.9,581384.39999962,581384.59999943,2024-04-13T03:41:53Z,581398.4,NULL,Papier,karatasi,d,NA,NA,NA,l,NA,NA,3,NA,NA,NA,NA,NA,NA,NA,NA,NA,NA,NA,NA,NA,NA,NA,NA,NA,NA,NA
3ba52,"""Richtig""-Screen",canvas.Screen,3_0_3_0_0_0_1,NA,NA,skipped,NA,581385.19999981,NA,NA,581384.39999962,581385.29999924,2024-04-13T03:41:53Z,581398.4,NULL,Papier,karatasi,d,NA,NA,NA,NA,qt,NA,3,NA,NA,NA,NA,NA,NA,NA,NA,NA,NA,NA,NA,NA,NA,NA,NA,NA,NA,NA
3ba52,"""Falsch""-Screen",canvas.Screen,3_0_3_0_0_0_2,NA,NA,timeout,5000,581385.79999924,581381.884,581398.4,586381.7,586382.39999962,2024-04-13T03:41:58Z,586398.4,NULL,Papier,karatasi,d,NA,NA,NA,NA,qt,0,3,NA,NA,NA,NA,NA,NA,NA,NA,NA,NA,NA,NA,NA,NA,NA,NA,NA,NA,NA
3ba52,deep,flow.Sequence,3_0_3_0_0_0,NA,NA,completion,7516.7999999999,578854.29999924,578848.6,578864.9,586381.7,586382.59999943,2024-04-13T03:41:58Z,586398.4,NULL,Papier,karatasi,d,NA,NA,NA,NA,qt,NA,3,NA,NA,NA,NA,NA,NA,NA,NA,NA,NA,NA,NA,NA,NA,NA,NA,NA,NA,NA
3ba52,shallow,flow.Sequence,3_0_3_0_0_1,NA,NA,skipped,NA,586382.79999924,NA,NA,586381.7,586382.79999924,2024-04-13T03:41:58Z,586398.4,NULL,Papier,karatasi,d,NA,NA,NA,NA,qt,NA,3,NA,NA,NA,NA,NA,NA,NA,NA,NA,NA,NA,NA,NA,NA,NA,NA,NA,NA,NA
3ba52,task,flow.Sequence,3_0_3_0_0,NA,NA,completion,7516.7999999999,578854.19999981,578848.6,578864.9,586381.7,586382.89999962,2024-04-13T03:41:58Z,586398.4,NULL,Papier,karatasi,d,NA,NA,NA,NA,qt,NA,3,NA,NA,NA,NA,NA,NA,NA,NA,NA,NA,NA,NA,NA,NA,NA,NA,NA,NA,NA
3ba52,deep,flow.Sequence,3_0_3_0_1_0,NA,NA,skipped,NA,586383.09999943,NA,NA,586381.7,586383.09999943,2024-04-13T03:41:58Z,586398.4,NULL,Spionage,upelelezi,s,maslahi,utokazo,magangao,NA,qt,NA,3,NA,NA,NA,NA,NA,NA,NA,NA,NA,NA,NA,NA,NA,NA,NA,NA,NA,NA,NA
3ba52,Shallow Question,html.Page,3_0_3_0_1_1_0,NA,NA,form submission,5128.899999237,586383.19999981,586381.7,586398.4,591527.29999924,591527.39999962,2024-04-13T03:42:03Z,591531.5,NULL,Spionage,upelelezi,s,maslahi,utokazo,magangao,upelelezi,NA,NA,3,NA,NA,NA,NA,NA,NA,NA,NA,NA,NA,NA,NA,NA,NA,NA,NA,NA,NA,NA
3ba52,"""Richtig""-Screen",canvas.Screen,3_0_3_0_1_1_1,NA,NA,timeout,5000.1,591529.19999981,591515.1,591531.5,596515.1,596515.89999962,2024-04-13T03:42:08Z,596531.6,NULL,Spionage,upelelezi,s,maslahi,utokazo,magangao,NA,qt,1,3,NA,NA,NA,NA,NA,NA,NA,NA,NA,NA,NA,NA,NA,NA,NA,NA,NA,NA,NA
3ba52,"""Falsch""-Screen",canvas.Screen,3_0_3_0_1_1_2,NA,NA,skipped,NA,596519.69999981,NA,NA,596515.1,596519.89999962,2024-04-13T03:42:08Z,596531.6,NULL,Spionage,upelelezi,s,maslahi,utokazo,magangao,NA,qt,NA,3,NA,NA,NA,NA,NA,NA,NA,NA,NA,NA,NA,NA,NA,NA,NA,NA,NA,NA,NA
3ba52,shallow,flow.Sequence,3_0_3_0_1_1,NA,NA,completion,10116.7,586383.19999981,586381.7,586398.4,596515.1,596520.09999943,2024-04-13T03:42:08Z,596531.6,NULL,Spionage,upelelezi,s,maslahi,utokazo,magangao,NA,qt,NA,3,NA,NA,NA,NA,NA,NA,NA,NA,NA,NA,NA,NA,NA,NA,NA,NA,NA,NA,NA
3ba52,task,flow.Sequence,3_0_3_0_1,NA,NA,completion,10116.7,586383,586381.7,586398.4,596515.1,596520.29999924,2024-04-13T03:42:08Z,596531.6,NULL,Spionage,upelelezi,s,maslahi,utokazo,magangao,NA,qt,NA,3,NA,NA,NA,NA,NA,NA,NA,NA,NA,NA,NA,NA,NA,NA,NA,NA,NA,NA,NA
3ba52,deep,flow.Sequence,3_0_3_0_2_0,NA,NA,skipped,NA,596520.29999924,NA,NA,596515.1,596520.5,2024-04-13T03:42:08Z,596531.6,NULL,Vorwurf,mashtaka,s,msukumo,mtangulizi,uenyekiti,NA,qt,NA,3,NA,NA,NA,NA,NA,NA,NA,NA,NA,NA,NA,NA,NA,NA,NA,NA,NA,NA,NA
3ba52,Shallow Question,html.Page,3_0_3_0_2_1_0,NA,NA,form submission,6777.9999994278,596520.59999943,596515.1,596531.6,603309.59999943,603309.79999924,2024-04-13T03:42:15Z,603314.8,NULL,Vorwurf,mashtaka,s,msukumo,mtangulizi,uenyekiti,mashtaka,NA,NA,3,NA,NA,NA,NA,NA,NA,NA,NA,NA,NA,NA,NA,NA,NA,NA,NA,NA,NA,NA
3ba52,"""Richtig""-Screen",canvas.Screen,3_0_3_0_2_1_1,NA,NA,timeout,5000.1,603311.29999924,603298.4,603314.8,608298.4,608299.09999943,2024-04-13T03:42:20Z,608314.9,NULL,Vorwurf,mashtaka,s,msukumo,mtangulizi,uenyekiti,NA,qt,1,3,NA,NA,NA,NA,NA,NA,NA,NA,NA,NA,NA,NA,NA,NA,NA,NA,NA,NA,NA
3ba52,"""Falsch""-Screen",canvas.Screen,3_0_3_0_2_1_2,NA,NA,skipped,NA,608303,NA,NA,608298.4,608303.19999981,2024-04-13T03:42:20Z,608314.9,NULL,Vorwurf,mashtaka,s,msukumo,mtangulizi,uenyekiti,NA,qt,NA,3,NA,NA,NA,NA,NA,NA,NA,NA,NA,NA,NA,NA,NA,NA,NA,NA,NA,NA,NA
3ba52,shallow,flow.Sequence,3_0_3_0_2_1,NA,NA,completion,11766.8,596520.59999943,596515.1,596531.6,608298.4,608303.39999962,2024-04-13T03:42:20Z,608314.9,NULL,Vorwurf,mashtaka,s,msukumo,mtangulizi,uenyekiti,NA,qt,NA,3,NA,NA,NA,NA,NA,NA,NA,NA,NA,NA,NA,NA,NA,NA,NA,NA,NA,NA,NA
3ba52,task,flow.Sequence,3_0_3_0_2,NA,NA,completion,11766.8,596520.29999924,596515.1,596531.6,608298.4,608303.5,2024-04-13T03:42:20Z,608314.9,NULL,Vorwurf,mashtaka,s,msukumo,mtangulizi,uenyekiti,NA,qt,NA,3,NA,NA,NA,NA,NA,NA,NA,NA,NA,NA,NA,NA,NA,NA,NA,NA,NA,NA,NA
3ba52,deep,flow.Sequence,3_0_3_0_3_0,NA,NA,skipped,NA,608303.59999943,NA,NA,608298.4,608303.69999981,2024-04-13T03:42:20Z,608314.9,NULL,Fenster,dirisha,s,walakini,tasawari,maarifa,NA,qt,NA,3,NA,NA,NA,NA,NA,NA,NA,NA,NA,NA,NA,NA,NA,NA,NA,NA,NA,NA,NA
3ba52,Shallow Question,html.Page,3_0_3_0_3_1_0,NA,NA,form submission,2836.7999998092,608303.79999924,608298.4,608314.9,611151.69999981,611151.89999962,2024-04-13T03:42:23Z,611164.9,NULL,Fenster,dirisha,s,walakini,tasawari,maarifa,dirisha,NA,NA,3,NA,NA,NA,NA,NA,NA,NA,NA,NA,NA,NA,NA,NA,NA,NA,NA,NA,NA,NA
3ba52,"""Richtig""-Screen",canvas.Screen,3_0_3_0_3_1_1,NA,NA,timeout,5000.1,611152.5,611148.414,611164.9,616148.3,616149.09999943,2024-04-13T03:42:28Z,616165,NULL,Fenster,dirisha,s,walakini,tasawari,maarifa,NA,qt,1,3,NA,NA,NA,NA,NA,NA,NA,NA,NA,NA,NA,NA,NA,NA,NA,NA,NA,NA,NA
3ba52,"""Falsch""-Screen",canvas.Screen,3_0_3_0_3_1_2,NA,NA,skipped,NA,616153.09999943,NA,NA,616148.3,616153.29999924,2024-04-13T03:42:28Z,616165,NULL,Fenster,dirisha,s,walakini,tasawari,maarifa,NA,qt,NA,3,NA,NA,NA,NA,NA,NA,NA,NA,NA,NA,NA,NA,NA,NA,NA,NA,NA,NA,NA
3ba52,shallow,flow.Sequence,3_0_3_0_3_1,NA,NA,completion,7833.4,608303.69999981,608298.4,608314.9,616148.3,616153.5,2024-04-13T03:42:28Z,616165,NULL,Fenster,dirisha,s,walakini,tasawari,maarifa,NA,qt,NA,3,NA,NA,NA,NA,NA,NA,NA,NA,NA,NA,NA,NA,NA,NA,NA,NA,NA,NA,NA
3ba52,task,flow.Sequence,3_0_3_0_3,NA,NA,completion,7833.4,608303.59999943,608298.4,608314.9,616148.3,616153.69999981,2024-04-13T03:42:28Z,616165,NULL,Fenster,dirisha,s,walakini,tasawari,maarifa,NA,qt,NA,3,NA,NA,NA,NA,NA,NA,NA,NA,NA,NA,NA,NA,NA,NA,NA,NA,NA,NA,NA
3ba52,Deep Question,html.Page,3_0_3_0_4_0_0,NA,NA,form submission,7513.1999998093,616153.79999924,616148.3,616165,623678.19999981,623678.39999962,2024-04-13T03:42:36Z,623681.4,NULL,Tester,wanaojaribu,d,NA,NA,NA,karatasi,NA,NA,3,NA,NA,NA,NA,NA,NA,NA,NA,NA,NA,NA,NA,NA,NA,NA,NA,NA,NA,NA
3ba52,"""Richtig""-Screen",canvas.Screen,3_0_3_0_4_0_1,NA,NA,skipped,NA,623680.09999943,NA,NA,623678.19999981,623680.19999981,2024-04-13T03:42:36Z,623681.4,NULL,Tester,wanaojaribu,d,NA,NA,NA,NA,qt,NA,3,NA,NA,NA,NA,NA,NA,NA,NA,NA,NA,NA,NA,NA,NA,NA,NA,NA,NA,NA
3ba52,"""Falsch""-Screen",canvas.Screen,3_0_3_0_4_0_2,NA,NA,timeout,5000.2999999999,623680.69999981,623665.776,623681.4,628665,628665.79999924,2024-04-13T03:42:41Z,628681.7,NULL,Tester,wanaojaribu,d,NA,NA,NA,NA,qt,0,3,NA,NA,NA,NA,NA,NA,NA,NA,NA,NA,NA,NA,NA,NA,NA,NA,NA,NA,NA
3ba52,deep,flow.Sequence,3_0_3_0_4_0,NA,NA,completion,12500,616153.69999981,616148.3,616165,628665,628666.09999943,2024-04-13T03:42:41Z,628681.7,NULL,Tester,wanaojaribu,d,NA,NA,NA,NA,qt,NA,3,NA,NA,NA,NA,NA,NA,NA,NA,NA,NA,NA,NA,NA,NA,NA,NA,NA,NA,NA
3ba52,shallow,flow.Sequence,3_0_3_0_4_1,NA,NA,skipped,NA,628666.19999981,NA,NA,628665,628666.29999924,2024-04-13T03:42:41Z,628681.7,NULL,Tester,wanaojaribu,d,NA,NA,NA,NA,qt,NA,3,NA,NA,NA,NA,NA,NA,NA,NA,NA,NA,NA,NA,NA,NA,NA,NA,NA,NA,NA
3ba52,task,flow.Sequence,3_0_3_0_4,NA,NA,completion,12500,616153.69999981,616148.3,616165,628665,628666.29999924,2024-04-13T03:42:41Z,628681.7,NULL,Tester,wanaojaribu,d,NA,NA,NA,NA,qt,NA,3,NA,NA,NA,NA,NA,NA,NA,NA,NA,NA,NA,NA,NA,NA,NA,NA,NA,NA,NA
3ba52,deep,flow.Sequence,3_0_3_0_5_0,NA,NA,skipped,NA,628666.5,NA,NA,628665,628666.5,2024-04-13T03:42:41Z,628681.7,NULL,Entwicklung,maendeleo,s,uangavu,mshindwa,badiliko,NA,qt,NA,3,NA,NA,NA,NA,NA,NA,NA,NA,NA,NA,NA,NA,NA,NA,NA,NA,NA,NA,NA
3ba52,Shallow Question,html.Page,3_0_3_0_5_1_0,NA,NA,form submission,2710.5999992371,628666.59999943,628665,628681.7,631392.29999924,631392.5,2024-04-13T03:42:43Z,631398.1,NULL,Entwicklung,maendeleo,s,uangavu,mshindwa,badiliko,maendeleo,NA,NA,3,NA,NA,NA,NA,NA,NA,NA,NA,NA,NA,NA,NA,NA,NA,NA,NA,NA,NA,NA
3ba52,"""Richtig""-Screen",canvas.Screen,3_0_3_0_5_1_1,NA,NA,timeout,5000.3,631394.09999943,631381.744,631398.1,636381.7,636382.39999962,2024-04-13T03:42:48Z,636398.4,NULL,Entwicklung,maendeleo,s,uangavu,mshindwa,badiliko,NA,qt,1,3,NA,NA,NA,NA,NA,NA,NA,NA,NA,NA,NA,NA,NA,NA,NA,NA,NA,NA,NA
3ba52,"""Falsch""-Screen",canvas.Screen,3_0_3_0_5_1_2,NA,NA,skipped,NA,636386.5,NA,NA,636381.7,636386.69999981,2024-04-13T03:42:48Z,636398.4,NULL,Entwicklung,maendeleo,s,uangavu,mshindwa,badiliko,NA,qt,NA,3,NA,NA,NA,NA,NA,NA,NA,NA,NA,NA,NA,NA,NA,NA,NA,NA,NA,NA,NA
3ba52,shallow,flow.Sequence,3_0_3_0_5_1,NA,NA,completion,7700,628666.59999943,628665,628681.7,636381.7,636386.89999962,2024-04-13T03:42:48Z,636398.4,NULL,Entwicklung,maendeleo,s,uangavu,mshindwa,badiliko,NA,qt,NA,3,NA,NA,NA,NA,NA,NA,NA,NA,NA,NA,NA,NA,NA,NA,NA,NA,NA,NA,NA
3ba52,task,flow.Sequence,3_0_3_0_5,NA,NA,completion,7700,628666.5,628665,628681.7,636381.7,636387.09999943,2024-04-13T03:42:48Z,636398.4,NULL,Entwicklung,maendeleo,s,uangavu,mshindwa,badiliko,NA,qt,NA,3,NA,NA,NA,NA,NA,NA,NA,NA,NA,NA,NA,NA,NA,NA,NA,NA,NA,NA,NA
3ba52,Deep Question,html.Page,3_0_3_0_6_0_0,NA,NA,form submission,5587.899999237,636387.09999943,636381.7,636398.4,641986.29999924,641986.39999962,2024-04-13T03:42:54Z,641998.1,NULL,Niveau,kiwango,d,NA,NA,NA,kawafumi,NA,NA,3,NA,NA,NA,NA,NA,NA,NA,NA,NA,NA,NA,NA,NA,NA,NA,NA,NA,NA,NA
3ba52,"""Richtig""-Screen",canvas.Screen,3_0_3_0_6_0_1,NA,NA,skipped,NA,641988,NA,NA,641986.29999924,641988.09999943,2024-04-13T03:42:54Z,641998.1,NULL,Niveau,kiwango,d,NA,NA,NA,NA,qt,NA,3,NA,NA,NA,NA,NA,NA,NA,NA,NA,NA,NA,NA,NA,NA,NA,NA,NA,NA,NA
3ba52,"""Falsch""-Screen",canvas.Screen,3_0_3_0_6_0_2,NA,NA,timeout,5000.3,641988.59999943,641986.724,641998.1,646981.6,646982.39999962,2024-04-13T03:42:59Z,646998.4,NULL,Niveau,kiwango,d,NA,NA,NA,NA,qt,0,3,NA,NA,NA,NA,NA,NA,NA,NA,NA,NA,NA,NA,NA,NA,NA,NA,NA,NA,NA
3ba52,deep,flow.Sequence,3_0_3_0_6_0,NA,NA,completion,10583.2,636387.09999943,636381.7,636398.4,646981.6,646982.69999981,2024-04-13T03:42:59Z,646998.4,NULL,Niveau,kiwango,d,NA,NA,NA,NA,qt,NA,3,NA,NA,NA,NA,NA,NA,NA,NA,NA,NA,NA,NA,NA,NA,NA,NA,NA,NA,NA
3ba52,shallow,flow.Sequence,3_0_3_0_6_1,NA,NA,skipped,NA,646982.79999924,NA,NA,646981.6,646982.89999962,2024-04-13T03:42:59Z,646998.4,NULL,Niveau,kiwango,d,NA,NA,NA,NA,qt,NA,3,NA,NA,NA,NA,NA,NA,NA,NA,NA,NA,NA,NA,NA,NA,NA,NA,NA,NA,NA
3ba52,task,flow.Sequence,3_0_3_0_6,NA,NA,completion,10583.2,636387.09999943,636381.7,636398.4,646981.6,646983.09999943,2024-04-13T03:42:59Z,646998.4,NULL,Niveau,kiwango,d,NA,NA,NA,NA,qt,NA,3,NA,NA,NA,NA,NA,NA,NA,NA,NA,NA,NA,NA,NA,NA,NA,NA,NA,NA,NA
3ba52,Deep Question,html.Page,3_0_3_0_7_0_0,NA,NA,form submission,9547.7999998092,646983.19999981,646981.6,646998.4,656546.19999981,656546.39999962,2024-04-13T03:43:08Z,656548.574,NULL,Schüler,mwanafunzi,d,NA,NA,NA,kawafunzi,NA,NA,3,NA,NA,NA,NA,NA,NA,NA,NA,NA,NA,NA,NA,NA,NA,NA,NA,NA,NA,NA
3ba52,"""Richtig""-Screen",canvas.Screen,3_0_3_0_7_0_1,NA,NA,skipped,NA,656548.19999981,NA,NA,656546.19999981,656548.19999981,2024-04-13T03:43:08Z,656548.574,NULL,Schüler,mwanafunzi,d,NA,NA,NA,NA,qt,NA,3,NA,NA,NA,NA,NA,NA,NA,NA,NA,NA,NA,NA,NA,NA,NA,NA,NA,NA,NA
3ba52,"""Falsch""-Screen",canvas.Screen,3_0_3_0_7_0_2,NA,NA,timeout,4999.826,656548.69999981,656548.574,656548.574,661531.7,661532.39999962,2024-04-13T03:43:14Z,661548.4,NULL,Schüler,mwanafunzi,d,NA,NA,NA,NA,qt,0,3,NA,NA,NA,NA,NA,NA,NA,NA,NA,NA,NA,NA,NA,NA,NA,NA,NA,NA,NA
3ba52,deep,flow.Sequence,3_0_3_0_7_0,NA,NA,completion,14533.3,646983.09999943,646981.6,646998.4,661531.7,661532.79999924,2024-04-13T03:43:14Z,661548.4,NULL,Schüler,mwanafunzi,d,NA,NA,NA,NA,qt,NA,3,NA,NA,NA,NA,NA,NA,NA,NA,NA,NA,NA,NA,NA,NA,NA,NA,NA,NA,NA
3ba52,shallow,flow.Sequence,3_0_3_0_7_1,NA,NA,skipped,NA,661532.89999962,NA,NA,661531.7,661533,2024-04-13T03:43:14Z,661548.4,NULL,Schüler,mwanafunzi,d,NA,NA,NA,NA,qt,NA,3,NA,NA,NA,NA,NA,NA,NA,NA,NA,NA,NA,NA,NA,NA,NA,NA,NA,NA,NA
3ba52,task,flow.Sequence,3_0_3_0_7,NA,NA,completion,14533.3,646983.09999943,646981.6,646998.4,661531.7,661533.09999943,2024-04-13T03:43:14Z,661548.4,NULL,Schüler,mwanafunzi,d,NA,NA,NA,NA,qt,NA,3,NA,NA,NA,NA,NA,NA,NA,NA,NA,NA,NA,NA,NA,NA,NA,NA,NA,NA,NA
3ba52,block,flow.Loop,3_0_3_0,NA,NA,completion,82666.8,578854.19999981,578848.6,578864.9,661531.7,661533.29999924,2024-04-13T03:43:14Z,661548.4,NULL,NA,NA,NA,NA,NA,NA,NA,qt,NA,3,NA,NA,NA,NA,NA,NA,NA,NA,NA,NA,NA,NA,NA,NA,NA,NA,NA,NA,NA
3ba52,weiter,canvas.Screen,3_0_3_1,sdf,keypress(Space),response,1070.1999994278,661533.29999924,661531.7,661548.4,662618.59999943,662619.29999924,2024-04-13T03:43:15Z,662681.6,NULL,NA,NA,NA,NA,NA,NA,NA,qt,NA,3,NA,NA,NA,NA,NA,NA,NA,NA,NA,NA,NA,NA,NA,NA,NA,NA,NA,NA,NA
3ba52,check continue,flow.Sequence,3_0_3,NA,NA,completion,83753.699999428,578854.19999981,578848.6,578864.9,662618.59999943,662619.59999943,2024-04-13T03:43:15Z,662681.6,NULL,NA,NA,NA,NA,NA,NA,NA,qt,NA,3,NA,NA,NA,NA,NA,NA,NA,NA,NA,NA,NA,NA,NA,NA,NA,NA,NA,NA,NA
3ba52,Deep Question,html.Page,3_0_4_0_0_0_0,NA,NA,form submission,4575.9,662669.39999962,662665.022,662681.6,667257.5,667257.69999981,2024-04-13T03:43:19Z,667264.9,NULL,Papier,karatasi,d,NA,NA,NA,k,NA,NA,4,NA,NA,NA,NA,NA,NA,NA,NA,NA,NA,NA,NA,NA,NA,NA,NA,NA,NA,NA
3ba52,"""Richtig""-Screen",canvas.Screen,3_0_4_0_0_0_1,NA,NA,skipped,NA,667259.39999962,NA,NA,667257.5,667259.39999962,2024-04-13T03:43:19Z,667264.9,NULL,Papier,karatasi,d,NA,NA,NA,NA,sd,NA,4,NA,NA,NA,NA,NA,NA,NA,NA,NA,NA,NA,NA,NA,NA,NA,NA,NA,NA,NA
3ba52,"""Falsch""-Screen",canvas.Screen,3_0_4_0_0_0_2,NA,NA,timeout,5000.1,667260,667248.458,667264.9,672248.3,672249,2024-04-13T03:43:24Z,672265,NULL,Papier,karatasi,d,NA,NA,NA,NA,sd,0,4,NA,NA,NA,NA,NA,NA,NA,NA,NA,NA,NA,NA,NA,NA,NA,NA,NA,NA,NA
3ba52,deep,flow.Sequence,3_0_4_0_0_0,NA,NA,completion,9566.7000000001,662669.39999962,662665.022,662681.6,672248.3,672249.29999924,2024-04-13T03:43:24Z,672265,NULL,Papier,karatasi,d,NA,NA,NA,NA,sd,NA,4,NA,NA,NA,NA,NA,NA,NA,NA,NA,NA,NA,NA,NA,NA,NA,NA,NA,NA,NA
3ba52,shallow,flow.Sequence,3_0_4_0_0_1,NA,NA,skipped,NA,672249.39999962,NA,NA,672248.3,672249.5,2024-04-13T03:43:24Z,672265,NULL,Papier,karatasi,d,NA,NA,NA,NA,sd,NA,4,NA,NA,NA,NA,NA,NA,NA,NA,NA,NA,NA,NA,NA,NA,NA,NA,NA,NA,NA
3ba52,task,flow.Sequence,3_0_4_0_0,NA,NA,completion,9566.7000000001,662669.39999962,662665.022,662681.6,672248.3,672249.59999943,2024-04-13T03:43:24Z,672265,NULL,Papier,karatasi,d,NA,NA,NA,NA,sd,NA,4,NA,NA,NA,NA,NA,NA,NA,NA,NA,NA,NA,NA,NA,NA,NA,NA,NA,NA,NA
3ba52,deep,flow.Sequence,3_0_4_0_1_0,NA,NA,skipped,NA,672249.69999981,NA,NA,672248.3,672249.69999981,2024-04-13T03:43:24Z,672265,NULL,Fenster,dirisha,s,walakini,tasawari,maarifa,NA,sd,NA,4,NA,NA,NA,NA,NA,NA,NA,NA,NA,NA,NA,NA,NA,NA,NA,NA,NA,NA,NA
3ba52,Shallow Question,html.Page,3_0_4_0_1_1_0,NA,NA,form submission,2015.1999998093,672249.89999962,672248.3,672265,674280.19999981,674280.29999924,2024-04-13T03:43:26Z,674281.714,NULL,Fenster,dirisha,s,walakini,tasawari,maarifa,dirisha,NA,NA,4,NA,NA,NA,NA,NA,NA,NA,NA,NA,NA,NA,NA,NA,NA,NA,NA,NA,NA,NA
3ba52,"""Richtig""-Screen",canvas.Screen,3_0_4_0_1_1_1,NA,NA,timeout,4999.786,674281.89999962,674281.714,674281.714,679265,679265.69999981,2024-04-13T03:43:31Z,679281.5,NULL,Fenster,dirisha,s,walakini,tasawari,maarifa,NA,sd,1,4,NA,NA,NA,NA,NA,NA,NA,NA,NA,NA,NA,NA,NA,NA,NA,NA,NA,NA,NA
3ba52,"""Falsch""-Screen",canvas.Screen,3_0_4_0_1_1_2,NA,NA,skipped,NA,679269.59999943,NA,NA,679265,679269.79999924,2024-04-13T03:43:31Z,679281.5,NULL,Fenster,dirisha,s,walakini,tasawari,maarifa,NA,sd,NA,4,NA,NA,NA,NA,NA,NA,NA,NA,NA,NA,NA,NA,NA,NA,NA,NA,NA,NA,NA
3ba52,shallow,flow.Sequence,3_0_4_0_1_1,NA,NA,completion,7000,672249.79999924,672248.3,672265,679265,679270,2024-04-13T03:43:31Z,679281.5,NULL,Fenster,dirisha,s,walakini,tasawari,maarifa,NA,sd,NA,4,NA,NA,NA,NA,NA,NA,NA,NA,NA,NA,NA,NA,NA,NA,NA,NA,NA,NA,NA
3ba52,task,flow.Sequence,3_0_4_0_1,NA,NA,completion,7000,672249.69999981,672248.3,672265,679265,679270.09999943,2024-04-13T03:43:31Z,679281.5,NULL,Fenster,dirisha,s,walakini,tasawari,maarifa,NA,sd,NA,4,NA,NA,NA,NA,NA,NA,NA,NA,NA,NA,NA,NA,NA,NA,NA,NA,NA,NA,NA
3ba52,deep,flow.Sequence,3_0_4_0_2_0,NA,NA,skipped,NA,679270.19999981,NA,NA,679265,679270.19999981,2024-04-13T03:43:31Z,679281.5,NULL,Entwicklung,maendeleo,s,uangavu,mshindwa,badiliko,NA,sd,NA,4,NA,NA,NA,NA,NA,NA,NA,NA,NA,NA,NA,NA,NA,NA,NA,NA,NA,NA,NA
3ba52,Shallow Question,html.Page,3_0_4_0_2_1_0,NA,NA,form submission,1699.5999994278,679270.29999924,679265,679281.5,680981.09999943,680981.29999924,2024-04-13T03:43:33Z,680998.3,NULL,Entwicklung,maendeleo,s,uangavu,mshindwa,badiliko,maendeleo,NA,NA,4,NA,NA,NA,NA,NA,NA,NA,NA,NA,NA,NA,NA,NA,NA,NA,NA,NA,NA,NA
3ba52,"""Richtig""-Screen",canvas.Screen,3_0_4_0_2_1_1,NA,NA,timeout,5000,680981.89999962,680981.798,680998.3,685981.6,685982.39999962,2024-04-13T03:43:38Z,685998.3,NULL,Entwicklung,maendeleo,s,uangavu,mshindwa,badiliko,NA,sd,1,4,NA,NA,NA,NA,NA,NA,NA,NA,NA,NA,NA,NA,NA,NA,NA,NA,NA,NA,NA
3ba52,"""Falsch""-Screen",canvas.Screen,3_0_4_0_2_1_2,NA,NA,skipped,NA,685986.29999924,NA,NA,685981.6,685986.5,2024-04-13T03:43:38Z,685998.3,NULL,Entwicklung,maendeleo,s,uangavu,mshindwa,badiliko,NA,sd,NA,4,NA,NA,NA,NA,NA,NA,NA,NA,NA,NA,NA,NA,NA,NA,NA,NA,NA,NA,NA
3ba52,shallow,flow.Sequence,3_0_4_0_2_1,NA,NA,completion,6700.1,679270.29999924,679265,679281.5,685981.6,685986.69999981,2024-04-13T03:43:38Z,685998.3,NULL,Entwicklung,maendeleo,s,uangavu,mshindwa,badiliko,NA,sd,NA,4,NA,NA,NA,NA,NA,NA,NA,NA,NA,NA,NA,NA,NA,NA,NA,NA,NA,NA,NA
3ba52,task,flow.Sequence,3_0_4_0_2,NA,NA,completion,6700.1,679270.19999981,679265,679281.5,685981.6,685986.89999962,2024-04-13T03:43:38Z,685998.3,NULL,Entwicklung,maendeleo,s,uangavu,mshindwa,badiliko,NA,sd,NA,4,NA,NA,NA,NA,NA,NA,NA,NA,NA,NA,NA,NA,NA,NA,NA,NA,NA,NA,NA
3ba52,Deep Question,html.Page,3_0_4_0_3_0_0,NA,NA,form submission,7415.0999996185,685986.89999962,685981.6,685998.3,693413.39999962,693413.5,2024-04-13T03:43:45Z,693415.05,NULL,Schüler,mwanafunzi,d,NA,NA,NA,mwanafunzi,NA,NA,4,NA,NA,NA,NA,NA,NA,NA,NA,NA,NA,NA,NA,NA,NA,NA,NA,NA,NA,NA
3ba52,"""Richtig""-Screen",canvas.Screen,3_0_4_0_3_0_1,NA,NA,timeout,4999.85,693415.19999981,693415.05,693415.05,698398.2,698398.89999962,2024-04-13T03:43:50Z,698414.9,NULL,Schüler,mwanafunzi,d,NA,NA,NA,NA,sd,1,4,NA,NA,NA,NA,NA,NA,NA,NA,NA,NA,NA,NA,NA,NA,NA,NA,NA,NA,NA
3ba52,"""Falsch""-Screen",canvas.Screen,3_0_4_0_3_0_2,NA,NA,skipped,NA,698403.09999943,NA,NA,698398.2,698403.29999924,2024-04-13T03:43:50Z,698414.9,NULL,Schüler,mwanafunzi,d,NA,NA,NA,NA,sd,NA,4,NA,NA,NA,NA,NA,NA,NA,NA,NA,NA,NA,NA,NA,NA,NA,NA,NA,NA,NA
3ba52,deep,flow.Sequence,3_0_4_0_3_0,NA,NA,completion,12399.9,685986.89999962,685981.6,685998.3,698398.2,698403.5,2024-04-13T03:43:50Z,698414.9,NULL,Schüler,mwanafunzi,d,NA,NA,NA,NA,sd,NA,4,NA,NA,NA,NA,NA,NA,NA,NA,NA,NA,NA,NA,NA,NA,NA,NA,NA,NA,NA
3ba52,shallow,flow.Sequence,3_0_4_0_3_1,NA,NA,skipped,NA,698403.5,NA,NA,698398.2,698403.69999981,2024-04-13T03:43:50Z,698414.9,NULL,Schüler,mwanafunzi,d,NA,NA,NA,NA,sd,NA,4,NA,NA,NA,NA,NA,NA,NA,NA,NA,NA,NA,NA,NA,NA,NA,NA,NA,NA,NA
3ba52,task,flow.Sequence,3_0_4_0_3,NA,NA,completion,12399.9,685986.89999962,685981.6,685998.3,698398.2,698403.79999924,2024-04-13T03:43:50Z,698414.9,NULL,Schüler,mwanafunzi,d,NA,NA,NA,NA,sd,NA,4,NA,NA,NA,NA,NA,NA,NA,NA,NA,NA,NA,NA,NA,NA,NA,NA,NA,NA,NA
3ba52,Deep Question,html.Page,3_0_4_0_4_0_0,NA,NA,form submission,1841.1999994278,698403.79999924,698398.2,698414.9,700256.09999943,700256.39999962,2024-04-13T03:43:52Z,700264.8,NULL,Tester,wanaojaribu,d,NA,NA,NA,k,NA,NA,4,NA,NA,NA,NA,NA,NA,NA,NA,NA,NA,NA,NA,NA,NA,NA,NA,NA,NA,NA
3ba52,"""Richtig""-Screen",canvas.Screen,3_0_4_0_4_0_1,NA,NA,skipped,NA,700257,NA,NA,700256.09999943,700257,2024-04-13T03:43:52Z,700264.8,NULL,Tester,wanaojaribu,d,NA,NA,NA,NA,sd,NA,4,NA,NA,NA,NA,NA,NA,NA,NA,NA,NA,NA,NA,NA,NA,NA,NA,NA,NA,NA
3ba52,"""Falsch""-Screen",canvas.Screen,3_0_4_0_4_0_2,NA,NA,timeout,5000.2,700257.5,700248.29,700264.8,705248.2,705249.09999943,2024-04-13T03:43:57Z,705265,NULL,Tester,wanaojaribu,d,NA,NA,NA,NA,sd,0,4,NA,NA,NA,NA,NA,NA,NA,NA,NA,NA,NA,NA,NA,NA,NA,NA,NA,NA,NA
3ba52,deep,flow.Sequence,3_0_4_0_4_0,NA,NA,completion,6833.2999999999,698403.79999924,698398.2,698414.9,705248.2,705249.19999981,2024-04-13T03:43:57Z,705265,NULL,Tester,wanaojaribu,d,NA,NA,NA,NA,sd,NA,4,NA,NA,NA,NA,NA,NA,NA,NA,NA,NA,NA,NA,NA,NA,NA,NA,NA,NA,NA
3ba52,shallow,flow.Sequence,3_0_4_0_4_1,NA,NA,skipped,NA,705249.29999924,NA,NA,705248.2,705249.5,2024-04-13T03:43:57Z,705265,NULL,Tester,wanaojaribu,d,NA,NA,NA,NA,sd,NA,4,NA,NA,NA,NA,NA,NA,NA,NA,NA,NA,NA,NA,NA,NA,NA,NA,NA,NA,NA
3ba52,task,flow.Sequence,3_0_4_0_4,NA,NA,completion,6833.2999999999,698403.79999924,698398.2,698414.9,705248.2,705249.59999943,2024-04-13T03:43:57Z,705265,NULL,Tester,wanaojaribu,d,NA,NA,NA,NA,sd,NA,4,NA,NA,NA,NA,NA,NA,NA,NA,NA,NA,NA,NA,NA,NA,NA,NA,NA,NA,NA
3ba52,Deep Question,html.Page,3_0_4_0_5_0_0,NA,NA,form submission,6545.0999994278,705249.69999981,705248.2,705265,711810.09999943,711810.29999924,2024-04-13T03:44:04Z,711814.8,NULL,Niveau,kiwango,d,NA,NA,NA,karatusi,NA,NA,4,NA,NA,NA,NA,NA,NA,NA,NA,NA,NA,NA,NA,NA,NA,NA,NA,NA,NA,NA
3ba52,"""Richtig""-Screen",canvas.Screen,3_0_4_0_5_0_1,NA,NA,skipped,NA,711812,NA,NA,711810.09999943,711812.09999943,2024-04-13T03:44:04Z,711814.8,NULL,Niveau,kiwango,d,NA,NA,NA,NA,sd,NA,4,NA,NA,NA,NA,NA,NA,NA,NA,NA,NA,NA,NA,NA,NA,NA,NA,NA,NA,NA
3ba52,"""Falsch""-Screen",canvas.Screen,3_0_4_0_5_0_2,NA,NA,timeout,5000,711812.59999943,711800.486,711814.8,716798.3,716799,2024-04-13T03:44:09Z,716814.8,NULL,Niveau,kiwango,d,NA,NA,NA,NA,sd,0,4,NA,NA,NA,NA,NA,NA,NA,NA,NA,NA,NA,NA,NA,NA,NA,NA,NA,NA,NA
3ba52,deep,flow.Sequence,3_0_4_0_5_0,NA,NA,completion,11533.3,705249.69999981,705248.2,705265,716798.3,716799.29999924,2024-04-13T03:44:09Z,716814.8,NULL,Niveau,kiwango,d,NA,NA,NA,NA,sd,NA,4,NA,NA,NA,NA,NA,NA,NA,NA,NA,NA,NA,NA,NA,NA,NA,NA,NA,NA,NA
3ba52,shallow,flow.Sequence,3_0_4_0_5_1,NA,NA,skipped,NA,716799.39999962,NA,NA,716798.3,716799.5,2024-04-13T03:44:09Z,716814.8,NULL,Niveau,kiwango,d,NA,NA,NA,NA,sd,NA,4,NA,NA,NA,NA,NA,NA,NA,NA,NA,NA,NA,NA,NA,NA,NA,NA,NA,NA,NA
3ba52,task,flow.Sequence,3_0_4_0_5,NA,NA,completion,11533.3,705249.59999943,705248.2,705265,716798.3,716799.69999981,2024-04-13T03:44:09Z,716814.8,NULL,Niveau,kiwango,d,NA,NA,NA,NA,sd,NA,4,NA,NA,NA,NA,NA,NA,NA,NA,NA,NA,NA,NA,NA,NA,NA,NA,NA,NA,NA
3ba52,deep,flow.Sequence,3_0_4_0_6_0,NA,NA,skipped,NA,716799.69999981,NA,NA,716798.3,716799.69999981,2024-04-13T03:44:09Z,716814.8,NULL,Vorwurf,mashtaka,s,msukumo,mtangulizi,uenyekiti,NA,sd,NA,4,NA,NA,NA,NA,NA,NA,NA,NA,NA,NA,NA,NA,NA,NA,NA,NA,NA,NA,NA
3ba52,Shallow Question,html.Page,3_0_4_0_6_1_0,NA,NA,form submission,3455.7,716799.89999962,716798.3,716814.8,720270.5,720270.69999981,2024-04-13T03:44:12Z,720281.4,NULL,Vorwurf,mashtaka,s,msukumo,mtangulizi,uenyekiti,mashtaka,NA,NA,4,NA,NA,NA,NA,NA,NA,NA,NA,NA,NA,NA,NA,NA,NA,NA,NA,NA,NA,NA
3ba52,"""Richtig""-Screen",canvas.Screen,3_0_4_0_6_1_1,NA,NA,timeout,5000.1,720272.39999962,720265.028,720281.4,725265,725265.69999981,2024-04-13T03:44:17Z,725281.5,NULL,Vorwurf,mashtaka,s,msukumo,mtangulizi,uenyekiti,NA,sd,1,4,NA,NA,NA,NA,NA,NA,NA,NA,NA,NA,NA,NA,NA,NA,NA,NA,NA,NA,NA
3ba52,"""Falsch""-Screen",canvas.Screen,3_0_4_0_6_1_2,NA,NA,skipped,NA,725269.59999943,NA,NA,725265,725269.79999924,2024-04-13T03:44:17Z,725281.5,NULL,Vorwurf,mashtaka,s,msukumo,mtangulizi,uenyekiti,NA,sd,NA,4,NA,NA,NA,NA,NA,NA,NA,NA,NA,NA,NA,NA,NA,NA,NA,NA,NA,NA,NA
3ba52,shallow,flow.Sequence,3_0_4_0_6_1,NA,NA,completion,8450.2,716799.79999924,716798.3,716814.8,725265,725270.09999943,2024-04-13T03:44:17Z,725281.5,NULL,Vorwurf,mashtaka,s,msukumo,mtangulizi,uenyekiti,NA,sd,NA,4,NA,NA,NA,NA,NA,NA,NA,NA,NA,NA,NA,NA,NA,NA,NA,NA,NA,NA,NA
3ba52,task,flow.Sequence,3_0_4_0_6,NA,NA,completion,8450.2,716799.69999981,716798.3,716814.8,725265,725270.19999981,2024-04-13T03:44:17Z,725281.5,NULL,Vorwurf,mashtaka,s,msukumo,mtangulizi,uenyekiti,NA,sd,NA,4,NA,NA,NA,NA,NA,NA,NA,NA,NA,NA,NA,NA,NA,NA,NA,NA,NA,NA,NA
3ba52,deep,flow.Sequence,3_0_4_0_7_0,NA,NA,skipped,NA,725270.19999981,NA,NA,725265,725270.29999924,2024-04-13T03:44:17Z,725281.5,NULL,Spionage,upelelezi,s,maslahi,utokazo,magangao,NA,sd,NA,4,NA,NA,NA,NA,NA,NA,NA,NA,NA,NA,NA,NA,NA,NA,NA,NA,NA,NA,NA
3ba52,Shallow Question,html.Page,3_0_4_0_7_1_0,NA,NA,form submission,2877.6999998093,725270.39999962,725265,725281.5,728159.19999981,728159.39999962,2024-04-13T03:44:20Z,728164.7,NULL,Spionage,upelelezi,s,maslahi,utokazo,magangao,upelelezi,NA,NA,4,NA,NA,NA,NA,NA,NA,NA,NA,NA,NA,NA,NA,NA,NA,NA,NA,NA,NA,NA
3ba52,"""Richtig""-Screen",canvas.Screen,3_0_4_0_7_1_1,NA,NA,timeout,5000.2000000001,728160,728148.332,728164.7,733148.2,733149.09999943,2024-04-13T03:44:25Z,733164.9,NULL,Spionage,upelelezi,s,maslahi,utokazo,magangao,NA,sd,1,4,NA,NA,NA,NA,NA,NA,NA,NA,NA,NA,NA,NA,NA,NA,NA,NA,NA,NA,NA
3ba52,"""Falsch""-Screen",canvas.Screen,3_0_4_0_7_1_2,NA,NA,skipped,NA,733153.19999981,NA,NA,733148.2,733153.39999962,2024-04-13T03:44:25Z,733164.9,NULL,Spionage,upelelezi,s,maslahi,utokazo,magangao,NA,sd,NA,4,NA,NA,NA,NA,NA,NA,NA,NA,NA,NA,NA,NA,NA,NA,NA,NA,NA,NA,NA
3ba52,shallow,flow.Sequence,3_0_4_0_7_1,NA,NA,completion,7866.7,725270.29999924,725265,725281.5,733148.2,733153.69999981,2024-04-13T03:44:25Z,733164.9,NULL,Spionage,upelelezi,s,maslahi,utokazo,magangao,NA,sd,NA,4,NA,NA,NA,NA,NA,NA,NA,NA,NA,NA,NA,NA,NA,NA,NA,NA,NA,NA,NA
3ba52,task,flow.Sequence,3_0_4_0_7,NA,NA,completion,7866.7,725270.19999981,725265,725281.5,733148.2,733153.79999924,2024-04-13T03:44:25Z,733164.9,NULL,Spionage,upelelezi,s,maslahi,utokazo,magangao,NA,sd,NA,4,NA,NA,NA,NA,NA,NA,NA,NA,NA,NA,NA,NA,NA,NA,NA,NA,NA,NA,NA
3ba52,block,flow.Loop,3_0_4_0,NA,NA,completion,70466.6,662669.39999962,662665.022,662681.6,733148.2,733153.89999962,2024-04-13T03:44:25Z,733164.9,NULL,NA,NA,NA,NA,NA,NA,NA,sd,NA,4,NA,NA,NA,NA,NA,NA,NA,NA,NA,NA,NA,NA,NA,NA,NA,NA,NA,NA,NA
3ba52,weiter,canvas.Screen,3_0_4_1,sdf,keypress(Space),response,1285.399999237,733154,733148.2,733164.9,734450.29999924,734451.19999981,2024-04-13T03:44:27Z,734498.2,NULL,NA,NA,NA,NA,NA,NA,NA,sd,NA,4,NA,NA,NA,NA,NA,NA,NA,NA,NA,NA,NA,NA,NA,NA,NA,NA,NA,NA,NA
3ba52,check continue,flow.Sequence,3_0_4,NA,NA,completion,71768.699999237,662669.39999962,662665.022,662681.6,734450.29999924,734451.39999962,2024-04-13T03:44:27Z,734498.2,NULL,NA,NA,NA,NA,NA,NA,NA,sd,NA,4,NA,NA,NA,NA,NA,NA,NA,NA,NA,NA,NA,NA,NA,NA,NA,NA,NA,NA,NA
3ba52,Deep Question,html.Page,3_0_5_0_0_0_0,NA,NA,form submission,2594.8999994278,734486.09999943,734481.514,734498.2,737093.09999943,737093.19999981,2024-04-13T03:44:29Z,737098.1,NULL,Tester,wanaojaribu,d,NA,NA,NA,k,NA,NA,5,NA,NA,NA,NA,NA,NA,NA,NA,NA,NA,NA,NA,NA,NA,NA,NA,NA,NA,NA
3ba52,"""Richtig""-Screen",canvas.Screen,3_0_5_0_0_0_1,NA,NA,skipped,NA,737093.79999924,NA,NA,737093.09999943,737093.89999962,2024-04-13T03:44:29Z,737098.1,NULL,Tester,wanaojaribu,d,NA,NA,NA,NA,sdf,NA,5,NA,NA,NA,NA,NA,NA,NA,NA,NA,NA,NA,NA,NA,NA,NA,NA,NA,NA,NA
3ba52,"""Falsch""-Screen",canvas.Screen,3_0_5_0_0_0_2,NA,NA,timeout,5000.2000000001,737094.29999924,737093.284,737098.1,742081.5,742082.5,2024-04-13T03:44:34Z,742098.3,NULL,Tester,wanaojaribu,d,NA,NA,NA,NA,sdf,0,5,NA,NA,NA,NA,NA,NA,NA,NA,NA,NA,NA,NA,NA,NA,NA,NA,NA,NA,NA
3ba52,deep,flow.Sequence,3_0_5_0_0_0,NA,NA,completion,7583.3,734486.09999943,734481.514,734498.2,742081.5,742082.89999962,2024-04-13T03:44:34Z,742098.3,NULL,Tester,wanaojaribu,d,NA,NA,NA,NA,sdf,NA,5,NA,NA,NA,NA,NA,NA,NA,NA,NA,NA,NA,NA,NA,NA,NA,NA,NA,NA,NA
3ba52,shallow,flow.Sequence,3_0_5_0_0_1,NA,NA,skipped,NA,742083,NA,NA,742081.5,742083.09999943,2024-04-13T03:44:34Z,742098.3,NULL,Tester,wanaojaribu,d,NA,NA,NA,NA,sdf,NA,5,NA,NA,NA,NA,NA,NA,NA,NA,NA,NA,NA,NA,NA,NA,NA,NA,NA,NA,NA
3ba52,task,flow.Sequence,3_0_5_0_0,NA,NA,completion,7583.3,734486.09999943,734481.514,734498.2,742081.5,742083.09999943,2024-04-13T03:44:34Z,742098.3,NULL,Tester,wanaojaribu,d,NA,NA,NA,NA,sdf,NA,5,NA,NA,NA,NA,NA,NA,NA,NA,NA,NA,NA,NA,NA,NA,NA,NA,NA,NA,NA
3ba52,deep,flow.Sequence,3_0_5_0_1_0,NA,NA,skipped,NA,742083.19999981,NA,NA,742081.5,742083.29999924,2024-04-13T03:44:34Z,742098.3,NULL,Fenster,dirisha,s,walakini,tasawari,maarifa,NA,sdf,NA,5,NA,NA,NA,NA,NA,NA,NA,NA,NA,NA,NA,NA,NA,NA,NA,NA,NA,NA,NA
3ba52,Shallow Question,html.Page,3_0_5_0_1_1_0,NA,NA,form submission,2736.2,742083.39999962,742081.5,742098.3,744834.5,744834.79999924,2024-04-13T03:44:37Z,744848.3,NULL,Fenster,dirisha,s,walakini,tasawari,maarifa,dirisha,NA,NA,5,NA,NA,NA,NA,NA,NA,NA,NA,NA,NA,NA,NA,NA,NA,NA,NA,NA,NA,NA
3ba52,"""Richtig""-Screen",canvas.Screen,3_0_5_0_1_1_1,NA,NA,timeout,4999.8999999999,744836.39999962,744831.652,744848.3,749831.5,749832.39999962,2024-04-13T03:44:42Z,749848.2,NULL,Fenster,dirisha,s,walakini,tasawari,maarifa,NA,sdf,1,5,NA,NA,NA,NA,NA,NA,NA,NA,NA,NA,NA,NA,NA,NA,NA,NA,NA,NA,NA
3ba52,"""Falsch""-Screen",canvas.Screen,3_0_5_0_1_1_2,NA,NA,skipped,NA,749836.29999924,NA,NA,749831.5,749836.5,2024-04-13T03:44:42Z,749848.2,NULL,Fenster,dirisha,s,walakini,tasawari,maarifa,NA,sdf,NA,5,NA,NA,NA,NA,NA,NA,NA,NA,NA,NA,NA,NA,NA,NA,NA,NA,NA,NA,NA
3ba52,shallow,flow.Sequence,3_0_5_0_1_1,NA,NA,completion,7733.2,742083.29999924,742081.5,742098.3,749831.5,749836.69999981,2024-04-13T03:44:42Z,749848.2,NULL,Fenster,dirisha,s,walakini,tasawari,maarifa,NA,sdf,NA,5,NA,NA,NA,NA,NA,NA,NA,NA,NA,NA,NA,NA,NA,NA,NA,NA,NA,NA,NA
3ba52,task,flow.Sequence,3_0_5_0_1,NA,NA,completion,7733.2,742083.19999981,742081.5,742098.3,749831.5,749836.79999924,2024-04-13T03:44:42Z,749848.2,NULL,Fenster,dirisha,s,walakini,tasawari,maarifa,NA,sdf,NA,5,NA,NA,NA,NA,NA,NA,NA,NA,NA,NA,NA,NA,NA,NA,NA,NA,NA,NA,NA
3ba52,deep,flow.Sequence,3_0_5_0_2_0,NA,NA,skipped,NA,749836.89999962,NA,NA,749831.5,749837,2024-04-13T03:44:42Z,749848.2,NULL,Entwicklung,maendeleo,s,uangavu,mshindwa,badiliko,NA,sdf,NA,5,NA,NA,NA,NA,NA,NA,NA,NA,NA,NA,NA,NA,NA,NA,NA,NA,NA,NA,NA
3ba52,Shallow Question,html.Page,3_0_5_0_2_1_0,NA,NA,form submission,2668.8,749837.09999943,749831.5,749848.2,752517,752517.29999924,2024-04-13T03:44:45Z,752531.5,NULL,Entwicklung,maendeleo,s,uangavu,mshindwa,badiliko,maendeleo,NA,NA,5,NA,NA,NA,NA,NA,NA,NA,NA,NA,NA,NA,NA,NA,NA,NA,NA,NA,NA,NA
3ba52,"""Richtig""-Screen",canvas.Screen,3_0_5_0_2_1_1,NA,NA,timeout,5000.1,752517.79999924,752516.93,752531.5,757514.9,757515.59999943,2024-04-13T03:44:50Z,757531.6,NULL,Entwicklung,maendeleo,s,uangavu,mshindwa,badiliko,NA,sdf,1,5,NA,NA,NA,NA,NA,NA,NA,NA,NA,NA,NA,NA,NA,NA,NA,NA,NA,NA,NA
3ba52,"""Falsch""-Screen",canvas.Screen,3_0_5_0_2_1_2,NA,NA,skipped,NA,757519.69999981,NA,NA,757514.9,757520,2024-04-13T03:44:50Z,757531.6,NULL,Entwicklung,maendeleo,s,uangavu,mshindwa,badiliko,NA,sdf,NA,5,NA,NA,NA,NA,NA,NA,NA,NA,NA,NA,NA,NA,NA,NA,NA,NA,NA,NA,NA
3ba52,shallow,flow.Sequence,3_0_5_0_2_1,NA,NA,completion,7666.7000000001,749837.09999943,749831.5,749848.2,757514.9,757520.09999943,2024-04-13T03:44:50Z,757531.6,NULL,Entwicklung,maendeleo,s,uangavu,mshindwa,badiliko,NA,sdf,NA,5,NA,NA,NA,NA,NA,NA,NA,NA,NA,NA,NA,NA,NA,NA,NA,NA,NA,NA,NA
3ba52,task,flow.Sequence,3_0_5_0_2,NA,NA,completion,7666.7000000001,749836.89999962,749831.5,749848.2,757514.9,757520.29999924,2024-04-13T03:44:50Z,757531.6,NULL,Entwicklung,maendeleo,s,uangavu,mshindwa,badiliko,NA,sdf,NA,5,NA,NA,NA,NA,NA,NA,NA,NA,NA,NA,NA,NA,NA,NA,NA,NA,NA,NA,NA
3ba52,Deep Question,html.Page,3_0_5_0_3_0_0,NA,NA,form submission,7066.2999996186,757520.5,757514.9,757531.6,764597.89999962,764598.09999943,2024-04-13T03:44:57Z,764615.2,NULL,Schüler,mwanafunzi,d,NA,NA,NA,mwanafunzi,NA,NA,5,NA,NA,NA,NA,NA,NA,NA,NA,NA,NA,NA,NA,NA,NA,NA,NA,NA,NA,NA
3ba52,"""Richtig""-Screen",canvas.Screen,3_0_5_0_3_0_1,NA,NA,timeout,4999.7000000001,764599.69999981,764585.072,764615.2,769598.3,769599,2024-04-13T03:45:02Z,769614.9,NULL,Schüler,mwanafunzi,d,NA,NA,NA,NA,sdf,1,5,NA,NA,NA,NA,NA,NA,NA,NA,NA,NA,NA,NA,NA,NA,NA,NA,NA,NA,NA
3ba52,"""Falsch""-Screen",canvas.Screen,3_0_5_0_3_0_2,NA,NA,skipped,NA,769603.09999943,NA,NA,769598.3,769603.19999981,2024-04-13T03:45:02Z,769614.9,NULL,Schüler,mwanafunzi,d,NA,NA,NA,NA,sdf,NA,5,NA,NA,NA,NA,NA,NA,NA,NA,NA,NA,NA,NA,NA,NA,NA,NA,NA,NA,NA
3ba52,deep,flow.Sequence,3_0_5_0_3_0,NA,NA,completion,12066.7,757520.39999962,757514.9,757531.6,769598.3,769603.39999962,2024-04-13T03:45:02Z,769614.9,NULL,Schüler,mwanafunzi,d,NA,NA,NA,NA,sdf,NA,5,NA,NA,NA,NA,NA,NA,NA,NA,NA,NA,NA,NA,NA,NA,NA,NA,NA,NA,NA
3ba52,shallow,flow.Sequence,3_0_5_0_3_1,NA,NA,skipped,NA,769603.5,NA,NA,769598.3,769603.59999943,2024-04-13T03:45:02Z,769614.9,NULL,Schüler,mwanafunzi,d,NA,NA,NA,NA,sdf,NA,5,NA,NA,NA,NA,NA,NA,NA,NA,NA,NA,NA,NA,NA,NA,NA,NA,NA,NA,NA
3ba52,task,flow.Sequence,3_0_5_0_3,NA,NA,completion,12066.7,757520.39999962,757514.9,757531.6,769598.3,769603.69999981,2024-04-13T03:45:02Z,769614.9,NULL,Schüler,mwanafunzi,d,NA,NA,NA,NA,sdf,NA,5,NA,NA,NA,NA,NA,NA,NA,NA,NA,NA,NA,NA,NA,NA,NA,NA,NA,NA,NA
3ba52,Deep Question,html.Page,3_0_5_0_4_0_0,NA,NA,form submission,3662.9999996185,769603.79999924,769598.3,769614.9,773277.89999962,773278.09999943,2024-04-13T03:45:05Z,773281.5,NULL,Niveau,kiwango,d,NA,NA,NA,kiwango,NA,NA,5,NA,NA,NA,NA,NA,NA,NA,NA,NA,NA,NA,NA,NA,NA,NA,NA,NA,NA,NA
3ba52,"""Richtig""-Screen",canvas.Screen,3_0_5_0_4_0_1,NA,NA,timeout,4999.9,773279.69999981,773264.928,773281.5,778264.9,778265.59999943,2024-04-13T03:45:10Z,778281.4,NULL,Niveau,kiwango,d,NA,NA,NA,NA,sdf,1,5,NA,NA,NA,NA,NA,NA,NA,NA,NA,NA,NA,NA,NA,NA,NA,NA,NA,NA,NA
3ba52,"""Falsch""-Screen",canvas.Screen,3_0_5_0_4_0_2,NA,NA,skipped,NA,778269.59999943,NA,NA,778264.9,778269.79999924,2024-04-13T03:45:10Z,778281.4,NULL,Niveau,kiwango,d,NA,NA,NA,NA,sdf,NA,5,NA,NA,NA,NA,NA,NA,NA,NA,NA,NA,NA,NA,NA,NA,NA,NA,NA,NA,NA
3ba52,deep,flow.Sequence,3_0_5_0_4_0,NA,NA,completion,8650,769603.79999924,769598.3,769614.9,778264.9,778270,2024-04-13T03:45:10Z,778281.4,NULL,Niveau,kiwango,d,NA,NA,NA,NA,sdf,NA,5,NA,NA,NA,NA,NA,NA,NA,NA,NA,NA,NA,NA,NA,NA,NA,NA,NA,NA,NA
3ba52,shallow,flow.Sequence,3_0_5_0_4_1,NA,NA,skipped,NA,778270.09999943,NA,NA,778264.9,778270.19999981,2024-04-13T03:45:10Z,778281.4,NULL,Niveau,kiwango,d,NA,NA,NA,NA,sdf,NA,5,NA,NA,NA,NA,NA,NA,NA,NA,NA,NA,NA,NA,NA,NA,NA,NA,NA,NA,NA
3ba52,task,flow.Sequence,3_0_5_0_4,NA,NA,completion,8650,769603.79999924,769598.3,769614.9,778264.9,778270.19999981,2024-04-13T03:45:10Z,778281.4,NULL,Niveau,kiwango,d,NA,NA,NA,NA,sdf,NA,5,NA,NA,NA,NA,NA,NA,NA,NA,NA,NA,NA,NA,NA,NA,NA,NA,NA,NA,NA
3ba52,deep,flow.Sequence,3_0_5_0_5_0,NA,NA,skipped,NA,778270.29999924,NA,NA,778264.9,778270.39999962,2024-04-13T03:45:10Z,778281.4,NULL,Spionage,upelelezi,s,maslahi,utokazo,magangao,NA,sdf,NA,5,NA,NA,NA,NA,NA,NA,NA,NA,NA,NA,NA,NA,NA,NA,NA,NA,NA,NA,NA
3ba52,Shallow Question,html.Page,3_0_5_0_5_1_0,NA,NA,form submission,2250.7999998092,778270.5,778264.9,778281.4,780532.19999981,780532.39999962,2024-04-13T03:45:13Z,780548.2,NULL,Spionage,upelelezi,s,maslahi,utokazo,magangao,upelelezi,NA,NA,5,NA,NA,NA,NA,NA,NA,NA,NA,NA,NA,NA,NA,NA,NA,NA,NA,NA,NA,NA
3ba52,"""Richtig""-Screen",canvas.Screen,3_0_5_0_5_1_1,NA,NA,timeout,5000,780533,780531.626,780548.2,785531.6,785532.29999924,2024-04-13T03:45:18Z,785548.2,NULL,Spionage,upelelezi,s,maslahi,utokazo,magangao,NA,sdf,1,5,NA,NA,NA,NA,NA,NA,NA,NA,NA,NA,NA,NA,NA,NA,NA,NA,NA,NA,NA
3ba52,"""Falsch""-Screen",canvas.Screen,3_0_5_0_5_1_2,NA,NA,skipped,NA,785536.29999924,NA,NA,785531.6,785536.5,2024-04-13T03:45:18Z,785548.2,NULL,Spionage,upelelezi,s,maslahi,utokazo,magangao,NA,sdf,NA,5,NA,NA,NA,NA,NA,NA,NA,NA,NA,NA,NA,NA,NA,NA,NA,NA,NA,NA,NA
3ba52,shallow,flow.Sequence,3_0_5_0_5_1,NA,NA,completion,7250.2,778270.39999962,778264.9,778281.4,785531.6,785536.69999981,2024-04-13T03:45:18Z,785548.2,NULL,Spionage,upelelezi,s,maslahi,utokazo,magangao,NA,sdf,NA,5,NA,NA,NA,NA,NA,NA,NA,NA,NA,NA,NA,NA,NA,NA,NA,NA,NA,NA,NA
3ba52,task,flow.Sequence,3_0_5_0_5,NA,NA,completion,7250.2,778270.29999924,778264.9,778281.4,785531.6,785536.89999962,2024-04-13T03:45:18Z,785548.2,NULL,Spionage,upelelezi,s,maslahi,utokazo,magangao,NA,sdf,NA,5,NA,NA,NA,NA,NA,NA,NA,NA,NA,NA,NA,NA,NA,NA,NA,NA,NA,NA,NA
3ba52,Deep Question,html.Page,3_0_5_0_6_0_0,NA,NA,form submission,1688.9999998093,785537,785531.6,785548.2,787237.19999981,787237.29999924,2024-04-13T03:45:19Z,787248.1,NULL,Papier,karatasi,d,NA,NA,NA,k,NA,NA,5,NA,NA,NA,NA,NA,NA,NA,NA,NA,NA,NA,NA,NA,NA,NA,NA,NA,NA,NA
3ba52,"""Richtig""-Screen",canvas.Screen,3_0_5_0_6_0_1,NA,NA,skipped,NA,787237.89999962,NA,NA,787237.19999981,787238,2024-04-13T03:45:19Z,787248.1,NULL,Papier,karatasi,d,NA,NA,NA,NA,sdf,NA,5,NA,NA,NA,NA,NA,NA,NA,NA,NA,NA,NA,NA,NA,NA,NA,NA,NA,NA,NA
3ba52,"""Falsch""-Screen",canvas.Screen,3_0_5_0_6_0_2,NA,NA,timeout,5000.2000000001,787238.39999962,787231.6,787248.1,792231.5,792232.39999962,2024-04-13T03:45:24Z,792248.3,NULL,Papier,karatasi,d,NA,NA,NA,NA,sdf,0,5,NA,NA,NA,NA,NA,NA,NA,NA,NA,NA,NA,NA,NA,NA,NA,NA,NA,NA,NA
3ba52,deep,flow.Sequence,3_0_5_0_6_0,NA,NA,completion,6683.3,785537,785531.6,785548.2,792231.5,792232.69999981,2024-04-13T03:45:24Z,792248.3,NULL,Papier,karatasi,d,NA,NA,NA,NA,sdf,NA,5,NA,NA,NA,NA,NA,NA,NA,NA,NA,NA,NA,NA,NA,NA,NA,NA,NA,NA,NA
3ba52,shallow,flow.Sequence,3_0_5_0_6_1,NA,NA,skipped,NA,792232.79999924,NA,NA,792231.5,792232.89999962,2024-04-13T03:45:24Z,792248.3,NULL,Papier,karatasi,d,NA,NA,NA,NA,sdf,NA,5,NA,NA,NA,NA,NA,NA,NA,NA,NA,NA,NA,NA,NA,NA,NA,NA,NA,NA,NA
3ba52,task,flow.Sequence,3_0_5_0_6,NA,NA,completion,6683.3,785536.89999962,785531.6,785548.2,792231.5,792233,2024-04-13T03:45:24Z,792248.3,NULL,Papier,karatasi,d,NA,NA,NA,NA,sdf,NA,5,NA,NA,NA,NA,NA,NA,NA,NA,NA,NA,NA,NA,NA,NA,NA,NA,NA,NA,NA
3ba52,deep,flow.Sequence,3_0_5_0_7_0,NA,NA,skipped,NA,792233.09999943,NA,NA,792231.5,792233.19999981,2024-04-13T03:45:24Z,792248.3,NULL,Vorwurf,mashtaka,s,msukumo,mtangulizi,uenyekiti,NA,sdf,NA,5,NA,NA,NA,NA,NA,NA,NA,NA,NA,NA,NA,NA,NA,NA,NA,NA,NA,NA,NA
3ba52,Shallow Question,html.Page,3_0_5_0_7_1_0,NA,NA,form submission,3493.7999994277,792233.29999924,792231.5,792248.3,795742.09999943,795742.39999962,2024-04-13T03:45:28Z,795748,NULL,Vorwurf,mashtaka,s,msukumo,mtangulizi,uenyekiti,mashtaka,NA,NA,5,NA,NA,NA,NA,NA,NA,NA,NA,NA,NA,NA,NA,NA,NA,NA,NA,NA,NA,NA
3ba52,"""Richtig""-Screen",canvas.Screen,3_0_5_0_7_1_1,NA,NA,timeout,5000.2,795744.09999943,795731.61,795748,800731.5,800732.29999924,2024-04-13T03:45:33Z,800748.2,NULL,Vorwurf,mashtaka,s,msukumo,mtangulizi,uenyekiti,NA,sdf,1,5,NA,NA,NA,NA,NA,NA,NA,NA,NA,NA,NA,NA,NA,NA,NA,NA,NA,NA,NA
3ba52,"""Falsch""-Screen",canvas.Screen,3_0_5_0_7_1_2,NA,NA,skipped,NA,800736.19999981,NA,NA,800731.5,800736.39999962,2024-04-13T03:45:33Z,800748.2,NULL,Vorwurf,mashtaka,s,msukumo,mtangulizi,uenyekiti,NA,sdf,NA,5,NA,NA,NA,NA,NA,NA,NA,NA,NA,NA,NA,NA,NA,NA,NA,NA,NA,NA,NA
3ba52,shallow,flow.Sequence,3_0_5_0_7_1,NA,NA,completion,8483.2,792233.29999924,792231.5,792248.3,800731.5,800736.59999943,2024-04-13T03:45:33Z,800748.2,NULL,Vorwurf,mashtaka,s,msukumo,mtangulizi,uenyekiti,NA,sdf,NA,5,NA,NA,NA,NA,NA,NA,NA,NA,NA,NA,NA,NA,NA,NA,NA,NA,NA,NA,NA
3ba52,task,flow.Sequence,3_0_5_0_7,NA,NA,completion,8483.2,792233.09999943,792231.5,792248.3,800731.5,800736.69999981,2024-04-13T03:45:33Z,800748.2,NULL,Vorwurf,mashtaka,s,msukumo,mtangulizi,uenyekiti,NA,sdf,NA,5,NA,NA,NA,NA,NA,NA,NA,NA,NA,NA,NA,NA,NA,NA,NA,NA,NA,NA,NA
3ba52,block,flow.Loop,3_0_5_0,NA,NA,completion,66233.3,734486,734481.514,734498.2,800731.5,800736.89999962,2024-04-13T03:45:33Z,800748.2,NULL,NA,NA,NA,NA,NA,NA,NA,sdf,NA,5,NA,NA,NA,NA,NA,NA,NA,NA,NA,NA,NA,NA,NA,NA,NA,NA,NA,NA,NA
3ba52,weiter,canvas.Screen,3_0_5_1,sdf,keypress(Space),response,1042.3,800737,800731.5,800748.2,801790.5,801791.29999924,2024-04-13T03:45:34Z,802148.25,NULL,NA,NA,NA,NA,NA,NA,NA,sdf,NA,5,NA,NA,NA,NA,NA,NA,NA,NA,NA,NA,NA,NA,NA,NA,NA,NA,NA,NA,NA
3ba52,check continue,flow.Sequence,3_0_5,NA,NA,completion,67292.3,734486,734481.514,734498.2,801790.5,801791.5,2024-04-13T03:45:34Z,802148.25,NULL,NA,NA,NA,NA,NA,NA,NA,sdf,NA,5,NA,NA,NA,NA,NA,NA,NA,NA,NA,NA,NA,NA,NA,NA,NA,NA,NA,NA,NA
3ba52,check continue,flow.Sequence,3_0_6,NA,NA,skipped,NA,801831.89999962,NA,NA,801790.5,801832.09999943,2024-04-13T03:45:34Z,802148.25,NULL,NA,NA,NA,NA,NA,NA,NA,dfs,NA,6,NA,NA,NA,NA,NA,NA,NA,NA,NA,NA,NA,NA,NA,NA,NA,NA,NA,NA,NA
3ba52,check continue,flow.Sequence,3_0_7,NA,NA,skipped,NA,801875.69999981,NA,NA,801790.5,801876.09999943,2024-04-13T03:45:34Z,802148.25,NULL,NA,NA,NA,NA,NA,NA,NA,df,NA,7,NA,NA,NA,NA,NA,NA,NA,NA,NA,NA,NA,NA,NA,NA,NA,NA,NA,NA,NA
3ba52,check continue,flow.Sequence,3_0_8,NA,NA,skipped,NA,801906.79999924,NA,NA,801790.5,801906.79999924,2024-04-13T03:45:34Z,802148.25,NULL,NA,NA,NA,NA,NA,NA,NA,dfs,NA,8,NA,NA,NA,NA,NA,NA,NA,NA,NA,NA,NA,NA,NA,NA,NA,NA,NA,NA,NA
3ba52,check continue,flow.Sequence,3_0_9,NA,NA,skipped,NA,801922.19999981,NA,NA,801790.5,801922.39999962,2024-04-13T03:45:34Z,802148.25,NULL,NA,NA,NA,NA,NA,NA,NA,dsf,NA,9,NA,NA,NA,NA,NA,NA,NA,NA,NA,NA,NA,NA,NA,NA,NA,NA,NA,NA,NA
3ba52,check continue,flow.Sequence,3_0_10,NA,NA,skipped,NA,801935.29999924,NA,NA,801790.5,801935.39999962,2024-04-13T03:45:34Z,802148.25,NULL,NA,NA,NA,NA,NA,NA,NA,df,NA,10,NA,NA,NA,NA,NA,NA,NA,NA,NA,NA,NA,NA,NA,NA,NA,NA,NA,NA,NA
3ba52,check continue,flow.Sequence,3_0_11,NA,NA,skipped,NA,801947.69999981,NA,NA,801790.5,801947.69999981,2024-04-13T03:45:34Z,802148.25,NULL,NA,NA,NA,NA,NA,NA,NA,dfs,NA,11,NA,NA,NA,NA,NA,NA,NA,NA,NA,NA,NA,NA,NA,NA,NA,NA,NA,NA,NA
3ba52,check continue,flow.Sequence,3_0_12,NA,NA,skipped,NA,801960.59999943,NA,NA,801790.5,801960.59999943,2024-04-13T03:45:34Z,802148.25,NULL,NA,NA,NA,NA,NA,NA,NA,dsf,NA,12,NA,NA,NA,NA,NA,NA,NA,NA,NA,NA,NA,NA,NA,NA,NA,NA,NA,NA,NA
3ba52,check continue,flow.Sequence,3_0_13,NA,NA,skipped,NA,801972.79999924,NA,NA,801790.5,801972.79999924,2024-04-13T03:45:34Z,802148.25,NULL,NA,NA,NA,NA,NA,NA,NA,dsf,NA,13,NA,NA,NA,NA,NA,NA,NA,NA,NA,NA,NA,NA,NA,NA,NA,NA,NA,NA,NA
3ba52,check continue,flow.Sequence,3_0_14,NA,NA,skipped,NA,801984.59999943,NA,NA,801790.5,801984.59999943,2024-04-13T03:45:34Z,802148.25,NULL,NA,NA,NA,NA,NA,NA,NA,NA,NA,14,NA,NA,NA,NA,NA,NA,NA,NA,NA,NA,NA,NA,NA,NA,NA,NA,NA,NA,NA
3ba52,check continue,flow.Sequence,3_0_15,NA,NA,skipped,NA,801995.29999924,NA,NA,801790.5,801995.29999924,2024-04-13T03:45:34Z,802148.25,NULL,NA,NA,NA,NA,NA,NA,NA,NA,NA,15,NA,NA,NA,NA,NA,NA,NA,NA,NA,NA,NA,NA,NA,NA,NA,NA,NA,NA,NA
3ba52,check continue,flow.Sequence,3_0_16,NA,NA,skipped,NA,802006.89999962,NA,NA,801790.5,802006.89999962,2024-04-13T03:45:34Z,802148.25,NULL,NA,NA,NA,NA,NA,NA,NA,NA,NA,16,NA,NA,NA,NA,NA,NA,NA,NA,NA,NA,NA,NA,NA,NA,NA,NA,NA,NA,NA
3ba52,check continue,flow.Sequence,3_0_17,NA,NA,skipped,NA,802017.79999924,NA,NA,801790.5,802017.89999962,2024-04-13T03:45:34Z,802148.25,NULL,NA,NA,NA,NA,NA,NA,NA,NA,NA,17,NA,NA,NA,NA,NA,NA,NA,NA,NA,NA,NA,NA,NA,NA,NA,NA,NA,NA,NA
3ba52,check continue,flow.Sequence,3_0_18,NA,NA,skipped,NA,802029.29999924,NA,NA,801790.5,802029.39999962,2024-04-13T03:45:34Z,802148.25,NULL,NA,NA,NA,NA,NA,NA,NA,NA,NA,18,NA,NA,NA,NA,NA,NA,NA,NA,NA,NA,NA,NA,NA,NA,NA,NA,NA,NA,NA
3ba52,check continue,flow.Sequence,3_0_19,NA,NA,skipped,NA,802041.09999943,NA,NA,801790.5,802041.19999981,2024-04-13T03:45:34Z,802148.25,NULL,NA,NA,NA,NA,NA,NA,NA,NA,NA,19,NA,NA,NA,NA,NA,NA,NA,NA,NA,NA,NA,NA,NA,NA,NA,NA,NA,NA,NA
3ba52,check continue,flow.Sequence,3_0_20,NA,NA,skipped,NA,802051.29999924,NA,NA,801790.5,802051.29999924,2024-04-13T03:45:34Z,802148.25,NULL,NA,NA,NA,NA,NA,NA,NA,NA,NA,20,NA,NA,NA,NA,NA,NA,NA,NA,NA,NA,NA,NA,NA,NA,NA,NA,NA,NA,NA
3ba52,check continue,flow.Sequence,3_0_21,NA,NA,skipped,NA,802062,NA,NA,801790.5,802062.09999943,2024-04-13T03:45:34Z,802148.25,NULL,NA,NA,NA,NA,NA,NA,NA,NA,NA,21,NA,NA,NA,NA,NA,NA,NA,NA,NA,NA,NA,NA,NA,NA,NA,NA,NA,NA,NA
3ba52,check continue,flow.Sequence,3_0_22,NA,NA,skipped,NA,802073.59999943,NA,NA,801790.5,802073.69999981,2024-04-13T03:45:34Z,802148.25,NULL,NA,NA,NA,NA,NA,NA,NA,NA,NA,22,NA,NA,NA,NA,NA,NA,NA,NA,NA,NA,NA,NA,NA,NA,NA,NA,NA,NA,NA
3ba52,check continue,flow.Sequence,3_0_23,NA,NA,skipped,NA,802084.5,NA,NA,801790.5,802084.59999943,2024-04-13T03:45:34Z,802148.25,NULL,NA,NA,NA,NA,NA,NA,NA,NA,NA,23,NA,NA,NA,NA,NA,NA,NA,NA,NA,NA,NA,NA,NA,NA,NA,NA,NA,NA,NA
3ba52,check continue,flow.Sequence,3_0_24,NA,NA,skipped,NA,802096.69999981,NA,NA,801790.5,802096.69999981,2024-04-13T03:45:34Z,802148.25,NULL,NA,NA,NA,NA,NA,NA,NA,NA,NA,24,NA,NA,NA,NA,NA,NA,NA,NA,NA,NA,NA,NA,NA,NA,NA,NA,NA,NA,NA
3ba52,check continue,flow.Sequence,3_0_25,NA,NA,skipped,NA,802106.29999924,NA,NA,801790.5,802106.39999962,2024-04-13T03:45:34Z,802148.25,NULL,NA,NA,NA,NA,NA,NA,NA,NA,NA,25,NA,NA,NA,NA,NA,NA,NA,NA,NA,NA,NA,NA,NA,NA,NA,NA,NA,NA,NA
3ba52,check continue,flow.Sequence,3_0_26,NA,NA,skipped,NA,802117.59999943,NA,NA,801790.5,802117.69999981,2024-04-13T03:45:34Z,802148.25,NULL,NA,NA,NA,NA,NA,NA,NA,NA,NA,26,NA,NA,NA,NA,NA,NA,NA,NA,NA,NA,NA,NA,NA,NA,NA,NA,NA,NA,NA
3ba52,check continue,flow.Sequence,3_0_27,NA,NA,skipped,NA,802127.5,NA,NA,801790.5,802127.59999943,2024-04-13T03:45:34Z,802148.25,NULL,NA,NA,NA,NA,NA,NA,NA,NA,NA,27,NA,NA,NA,NA,NA,NA,NA,NA,NA,NA,NA,NA,NA,NA,NA,NA,NA,NA,NA
3ba52,check continue,flow.Sequence,3_0_28,NA,NA,skipped,NA,802139.5,NA,NA,801790.5,802139.59999943,2024-04-13T03:45:34Z,802148.25,NULL,NA,NA,NA,NA,NA,NA,NA,NA,NA,28,NA,NA,NA,NA,NA,NA,NA,NA,NA,NA,NA,NA,NA,NA,NA,NA,NA,NA,NA
3ba52,check continue,flow.Sequence,3_0_29,NA,NA,skipped,NA,802149.69999981,NA,NA,801790.5,802149.79999924,2024-04-13T03:45:34Z,802148.25,NULL,NA,NA,NA,NA,NA,NA,NA,NA,NA,29,NA,NA,NA,NA,NA,NA,NA,NA,NA,NA,NA,NA,NA,NA,NA,NA,NA,NA,NA
3ba52,until continue,flow.Loop,3_0,NA,NA,completion,468192,333563.89999962,333580.6,333598.5,801790.5,802149.89999962,2024-04-13T03:45:34Z,802148.25,NULL,NA,NA,NA,NA,NA,NA,NA,NA,NA,NA,NA,NA,NA,NA,NA,NA,NA,NA,NA,NA,NA,NA,NA,NA,NA,NA,NA,NA,NA
3ba52,block 1,flow.Sequence,3,NA,NA,completion,468192,333563.79999924,333580.6,333598.5,801790.5,802149.89999962,2024-04-13T03:45:34Z,802148.25,NULL,NA,NA,NA,NA,NA,NA,NA,NA,NA,NA,NA,NA,NA,NA,NA,NA,NA,NA,NA,NA,NA,NA,NA,NA,NA,NA,NA,NA,NA
3ba52,1.Part Over,canvas.Screen,4,NA,keypress(Space),response,1365.9499998093,802149.89999962,802148.25,802148.25,803514.19999981,803515,2024-04-13T03:45:36Z,803598.1,NULL,NA,NA,NA,NA,NA,NA,NA,NA,NA,NA,NA,NA,NA,NA,NA,NA,NA,NA,NA,NA,NA,NA,NA,NA,NA,NA,NA,NA,NA
3ba52,deep,flow.Sequence,5_0_0_0_0_0,NA,NA,skipped,NA,803595.59999943,NA,NA,803514.19999981,803595.79999924,2024-04-13T03:45:36Z,803598.1,NULL,Toleranz,kuvumiliana,s,maombolezo,ujasusi,mchekeshaji,NA,sdf,NA,0,NA,NA,NA,NA,NA,NA,NA,NA,NA,NA,NA,NA,NA,NA,NA,NA,NA,NA,NA
