observation,sender,sender_type,sender_id,response,response_action,ended_on,duration,time_run,time_render,time_show,time_end,time_commit,timestamp,time_switch,distractors,german,swahili,enc,distractor1,distractor2,distractor3,response_2,x,correct,x_2,url_vp,url_sess,meta_labjs_version,meta_location,meta_user_agent,meta_platform,meta_language,meta_locale,meta_time_zone,meta_timezone_offset,meta_screen_width,meta_screen_height,meta_scroll_width,meta_scroll_height,meta_window_inner_width,meta_window_inner_height,meta_device_pixel_ratio,meta_labjs_build_flavor,meta_labjs_build_commit
09626,Introduction general,canvas.Screen,0,weiter,keypress(q),response,3249.8999999881,255,260.7,277.3,3527.1999999881,3531.8000000119,2024-06-15T13:32:27Z,3541.9,NULL,NA,NA,NA,NA,NA,NA,NA,NA,NA,NA,198,3,20.2.4,https://neurocog.fernuni.ch/studies/vweber/aberisha/encoding_immediate/index.html?vp=198&sess=3,"Mozilla/5.0 (Windows NT 10.0; Win64; x64) AppleWebKit/537.36 (KHTML, like Gecko) Chrome/125.0.0.0 Safari/537.36",Win32,de-DE,de,Europe/Zurich,-120,1536,864,1536,682,1536,730,1.25,production,f5b4a49f956347addd546a832a3327688c2c0fef
09626,Introduction practice,canvas.Screen,1_0,NA,keypress(Space),response,972.29999998808,3532.3999999762,3526.18,3541.9,4514.1999999881,4515.3000000119,2024-06-15T13:32:28Z,4524.7,NULL,NA,NA,NA,NA,NA,NA,NA,NA,NA,NA,NA,NA,NA,NA,NA,NA,NA,NA,NA,NA,NA,NA,NA,NA,NA,NA,NA,NA,NA
09626,Deep Question,html.Page,1_1_0_0_0,NA,NA,form submission,2992.8,4515.8000000119,4515.1,4524.7,7517.5,7517.8999999762,2024-06-15T13:32:31Z,7522.9,"c(""distractor1"", ""distractor2"", ""distractor3"")",Schatten,kivuli,d,NA,NA,NA,fgh,NA,NA,NA,NA,NA,NA,NA,NA,NA,NA,NA,NA,NA,NA,NA,NA,NA,NA,NA,NA,NA,NA
09626,"""Richtig""-Screen",canvas.Screen,1_1_0_0_1,NA,NA,skipped,NA,7519.3000000119,NA,NA,7517.5,7519.5,2024-06-15T13:32:31Z,7522.9,"c(""distractor1"", ""distractor2"", ""distractor3"")",Schatten,kivuli,d,NA,NA,NA,NA,NA,NA,NA,NA,NA,NA,NA,NA,NA,NA,NA,NA,NA,NA,NA,NA,NA,NA,NA,NA,NA,NA
09626,"""Falsch""-Screen",canvas.Screen,1_1_0_0_2,NA,NA,timeout,4997.5,7521,7510.774,7522.9,12503.5,12506.300000012,2024-06-15T13:32:36Z,12520.4,"c(""distractor1"", ""distractor2"", ""distractor3"")",Schatten,kivuli,d,NA,NA,NA,NA,NA,0,NA,NA,NA,NA,NA,NA,NA,NA,NA,NA,NA,NA,NA,NA,NA,NA,NA,NA,NA,NA
09626,deep,flow.Sequence,1_1_0_0,NA,NA,completion,7978.8,4515.8000000119,4515.1,4524.7,12503.5,12506.800000012,2024-06-15T13:32:36Z,12520.4,"c(""distractor1"", ""distractor2"", ""distractor3"")",Schatten,kivuli,d,NA,NA,NA,NA,NA,NA,NA,NA,NA,NA,NA,NA,NA,NA,NA,NA,NA,NA,NA,NA,NA,NA,NA,NA,NA,NA
09626,shallow,flow.Sequence,1_1_0_1,NA,NA,skipped,NA,12507,NA,NA,12503.5,12507.300000012,2024-06-15T13:32:36Z,12520.4,"c(""distractor1"", ""distractor2"", ""distractor3"")",Schatten,kivuli,d,NA,NA,NA,NA,NA,NA,NA,NA,NA,NA,NA,NA,NA,NA,NA,NA,NA,NA,NA,NA,NA,NA,NA,NA,NA,NA
09626,task,flow.Sequence,1_1_0,NA,NA,completion,7978.8,4515.8000000119,4515.1,4524.7,12503.5,12507.599999964,2024-06-15T13:32:36Z,12520.4,"c(""distractor1"", ""distractor2"", ""distractor3"")",Schatten,kivuli,d,NA,NA,NA,NA,NA,NA,NA,NA,NA,NA,NA,NA,NA,NA,NA,NA,NA,NA,NA,NA,NA,NA,NA,NA,NA,NA
09626,Deep Question,html.Page,1_1_1_0_0,NA,NA,form submission,1756.6999999642,12507.899999976,12503.5,12520.4,14277.099999964,14277.399999976,2024-06-15T13:32:37Z,14287.89,"c(""distractor1"", ""distractor2"", ""distractor3"")",Gesundheit,salama,d,NA,NA,NA,fgh,NA,NA,NA,NA,NA,NA,NA,NA,NA,NA,NA,NA,NA,NA,NA,NA,NA,NA,NA,NA,NA,NA
09626,"""Richtig""-Screen",canvas.Screen,1_1_1_0_1,NA,NA,skipped,NA,14278.699999988,NA,NA,14277.099999964,14279,2024-06-15T13:32:37Z,14287.89,"c(""distractor1"", ""distractor2"", ""distractor3"")",Gesundheit,salama,d,NA,NA,NA,NA,NA,NA,NA,NA,NA,NA,NA,NA,NA,NA,NA,NA,NA,NA,NA,NA,NA,NA,NA,NA,NA,NA
09626,"""Falsch""-Screen",canvas.Screen,1_1_1_0_2,NA,NA,timeout,4994.91,14280.099999964,14287.89,14287.89,19266.2,19268.899999976,2024-06-15T13:32:42Z,19282.8,"c(""distractor1"", ""distractor2"", ""distractor3"")",Gesundheit,salama,d,NA,NA,NA,NA,NA,0,NA,NA,NA,NA,NA,NA,NA,NA,NA,NA,NA,NA,NA,NA,NA,NA,NA,NA,NA,NA
09626,deep,flow.Sequence,1_1_1_0,NA,NA,completion,6745.8,12507.800000012,12503.5,12520.4,19266.2,19269.300000012,2024-06-15T13:32:42Z,19282.8,"c(""distractor1"", ""distractor2"", ""distractor3"")",Gesundheit,salama,d,NA,NA,NA,NA,NA,NA,NA,NA,NA,NA,NA,NA,NA,NA,NA,NA,NA,NA,NA,NA,NA,NA,NA,NA,NA,NA
09626,shallow,flow.Sequence,1_1_1_1,NA,NA,skipped,NA,19269.5,NA,NA,19266.2,19269.699999988,2024-06-15T13:32:42Z,19282.8,"c(""distractor1"", ""distractor2"", ""distractor3"")",Gesundheit,salama,d,NA,NA,NA,NA,NA,NA,NA,NA,NA,NA,NA,NA,NA,NA,NA,NA,NA,NA,NA,NA,NA,NA,NA,NA,NA,NA
09626,task,flow.Sequence,1_1_1,NA,NA,completion,6745.8,12507.800000012,12503.5,12520.4,19266.2,19269.899999976,2024-06-15T13:32:42Z,19282.8,"c(""distractor1"", ""distractor2"", ""distractor3"")",Gesundheit,salama,d,NA,NA,NA,NA,NA,NA,NA,NA,NA,NA,NA,NA,NA,NA,NA,NA,NA,NA,NA,NA,NA,NA,NA,NA,NA,NA
09626,Deep Question,html.Page,1_1_2_0_0,NA,NA,form submission,1720.2,19270.300000012,19266.2,19282.8,21003,21003.300000012,2024-06-15T13:32:44Z,21014.7,"c(""distractor1"", ""distractor2"", ""distractor3"")",Qualität,mtindo,d,NA,NA,NA,hk,NA,NA,NA,NA,NA,NA,NA,NA,NA,NA,NA,NA,NA,NA,NA,NA,NA,NA,NA,NA,NA,NA
09626,"""Richtig""-Screen",canvas.Screen,1_1_2_0_1,NA,NA,skipped,NA,21004.300000012,NA,NA,21003,21004.5,2024-06-15T13:32:44Z,21014.7,"c(""distractor1"", ""distractor2"", ""distractor3"")",Qualität,mtindo,d,NA,NA,NA,NA,NA,NA,NA,NA,NA,NA,NA,NA,NA,NA,NA,NA,NA,NA,NA,NA,NA,NA,NA,NA,NA,NA
09626,"""Falsch""-Screen",canvas.Screen,1_1_2_0_2,NA,NA,timeout,4997.2,21005.199999988,21003.378,21014.7,25995,25997.300000012,2024-06-15T13:32:49Z,26011.9,"c(""distractor1"", ""distractor2"", ""distractor3"")",Qualität,mtindo,d,NA,NA,NA,NA,NA,0,NA,NA,NA,NA,NA,NA,NA,NA,NA,NA,NA,NA,NA,NA,NA,NA,NA,NA,NA,NA
09626,deep,flow.Sequence,1_1_2_0,NA,NA,completion,6712.2,19270.199999988,19266.2,19282.8,25995,25997.599999964,2024-06-15T13:32:49Z,26011.9,"c(""distractor1"", ""distractor2"", ""distractor3"")",Qualität,mtindo,d,NA,NA,NA,NA,NA,NA,NA,NA,NA,NA,NA,NA,NA,NA,NA,NA,NA,NA,NA,NA,NA,NA,NA,NA,NA,NA
09626,shallow,flow.Sequence,1_1_2_1,NA,NA,skipped,NA,25997.800000012,NA,NA,25995,25997.899999976,2024-06-15T13:32:49Z,26011.9,"c(""distractor1"", ""distractor2"", ""distractor3"")",Qualität,mtindo,d,NA,NA,NA,NA,NA,NA,NA,NA,NA,NA,NA,NA,NA,NA,NA,NA,NA,NA,NA,NA,NA,NA,NA,NA,NA,NA
09626,task,flow.Sequence,1_1_2,NA,NA,completion,6712.2,19270.199999988,19266.2,19282.8,25995,25998.199999988,2024-06-15T13:32:49Z,26011.9,"c(""distractor1"", ""distractor2"", ""distractor3"")",Qualität,mtindo,d,NA,NA,NA,NA,NA,NA,NA,NA,NA,NA,NA,NA,NA,NA,NA,NA,NA,NA,NA,NA,NA,NA,NA,NA,NA,NA
09626,deep,flow.Sequence,1_1_3_0,NA,NA,skipped,NA,25998.300000012,NA,NA,25995,25998.399999976,2024-06-15T13:32:49Z,26011.9,"c(""distractor1"", ""distractor2"", ""distractor3"")",Gegenwart,hadhara,s,katiba,jokofu,mikopo,NA,NA,NA,NA,NA,NA,NA,NA,NA,NA,NA,NA,NA,NA,NA,NA,NA,NA,NA,NA,NA,NA,NA
09626,Shallow Question,html.Page,1_1_3_1_0,NA,NA,form submission,1437.1,25998.599999964,25995,26011.9,27449,27449.199999988,2024-06-15T13:32:50Z,27460.7,"c(""distractor1"", ""distractor2"", ""distractor3"")",Gegenwart,hadhara,s,katiba,jokofu,mikopo,hadhara,NA,NA,NA,NA,NA,NA,NA,NA,NA,NA,NA,NA,NA,NA,NA,NA,NA,NA,NA,NA,NA,NA
09626,"""Richtig""-Screen",canvas.Screen,1_1_3_1_1,NA,NA,timeout,4997,27450,27444.654,27460.7,32441,32442.5,2024-06-15T13:32:55Z,32457.7,"c(""distractor1"", ""distractor2"", ""distractor3"")",Gegenwart,hadhara,s,katiba,jokofu,mikopo,NA,NA,1,NA,NA,NA,NA,NA,NA,NA,NA,NA,NA,NA,NA,NA,NA,NA,NA,NA,NA,NA,NA
09626,"""Falsch""-Screen",canvas.Screen,1_1_3_1_2,NA,NA,skipped,NA,32445.199999988,NA,NA,32441,32445.5,2024-06-15T13:32:55Z,32457.7,"c(""distractor1"", ""distractor2"", ""distractor3"")",Gegenwart,hadhara,s,katiba,jokofu,mikopo,NA,NA,NA,NA,NA,NA,NA,NA,NA,NA,NA,NA,NA,NA,NA,NA,NA,NA,NA,NA,NA,NA,NA
09626,shallow,flow.Sequence,1_1_3_1,NA,NA,completion,6429.1,25998.599999964,25995,26011.9,32441,32445.800000012,2024-06-15T13:32:55Z,32457.7,"c(""distractor1"", ""distractor2"", ""distractor3"")",Gegenwart,hadhara,s,katiba,jokofu,mikopo,NA,NA,NA,NA,NA,NA,NA,NA,NA,NA,NA,NA,NA,NA,NA,NA,NA,NA,NA,NA,NA,NA,NA
09626,task,flow.Sequence,1_1_3,NA,NA,completion,6429.1,25998.199999988,25995,26011.9,32441,32446.099999964,2024-06-15T13:32:55Z,32457.7,"c(""distractor1"", ""distractor2"", ""distractor3"")",Gegenwart,hadhara,s,katiba,jokofu,mikopo,NA,NA,NA,NA,NA,NA,NA,NA,NA,NA,NA,NA,NA,NA,NA,NA,NA,NA,NA,NA,NA,NA,NA
09626,deep,flow.Sequence,1_1_4_0,NA,NA,skipped,NA,32446.300000012,NA,NA,32441,32446.5,2024-06-15T13:32:55Z,32457.7,"c(""distractor1"", ""distractor2"", ""distractor3"")",Rückhalt,msaada,s,muhula,auwali,kiwimbe,NA,NA,NA,NA,NA,NA,NA,NA,NA,NA,NA,NA,NA,NA,NA,NA,NA,NA,NA,NA,NA,NA,NA
09626,Shallow Question,html.Page,1_1_4_1_0,NA,NA,form submission,1081.4999999881,32446.699999988,32441,32457.7,33539.199999988,33539.5,2024-06-15T13:32:57Z,33541.028,"c(""distractor1"", ""distractor2"", ""distractor3"")",Rückhalt,msaada,s,muhula,auwali,kiwimbe,muhula,NA,NA,NA,NA,NA,NA,NA,NA,NA,NA,NA,NA,NA,NA,NA,NA,NA,NA,NA,NA,NA,NA
09626,"""Richtig""-Screen",canvas.Screen,1_1_4_1_1,NA,NA,skipped,NA,33540.399999976,NA,NA,33539.199999988,33540.599999964,2024-06-15T13:32:57Z,33541.028,"c(""distractor1"", ""distractor2"", ""distractor3"")",Rückhalt,msaada,s,muhula,auwali,kiwimbe,NA,NA,NA,NA,NA,NA,NA,NA,NA,NA,NA,NA,NA,NA,NA,NA,NA,NA,NA,NA,NA,NA,NA
09626,"""Falsch""-Screen",canvas.Screen,1_1_4_1_2,NA,NA,timeout,4996.772,33541.599999964,33541.028,33541.028,38520.9,38523.399999976,2024-06-15T13:33:02Z,38537.8,"c(""distractor1"", ""distractor2"", ""distractor3"")",Rückhalt,msaada,s,muhula,auwali,kiwimbe,NA,NA,0,NA,NA,NA,NA,NA,NA,NA,NA,NA,NA,NA,NA,NA,NA,NA,NA,NA,NA,NA,NA
09626,shallow,flow.Sequence,1_1_4_1,NA,NA,completion,6063.2,32446.599999964,32441,32457.7,38520.9,38523.699999988,2024-06-15T13:33:02Z,38537.8,"c(""distractor1"", ""distractor2"", ""distractor3"")",Rückhalt,msaada,s,muhula,auwali,kiwimbe,NA,NA,NA,NA,NA,NA,NA,NA,NA,NA,NA,NA,NA,NA,NA,NA,NA,NA,NA,NA,NA,NA,NA
09626,task,flow.Sequence,1_1_4,NA,NA,completion,6063.2,32446.300000012,32441,32457.7,38520.9,38523.899999976,2024-06-15T13:33:02Z,38537.8,"c(""distractor1"", ""distractor2"", ""distractor3"")",Rückhalt,msaada,s,muhula,auwali,kiwimbe,NA,NA,NA,NA,NA,NA,NA,NA,NA,NA,NA,NA,NA,NA,NA,NA,NA,NA,NA,NA,NA,NA,NA
09626,deep,flow.Sequence,1_1_5_0,NA,NA,skipped,NA,38524.099999964,NA,NA,38520.9,38524.300000012,2024-06-15T13:33:02Z,38537.8,"c(""distractor1"", ""distractor2"", ""distractor3"")",Kritik,lawama,s,dereva,nafasi,mawazo,NA,NA,NA,NA,NA,NA,NA,NA,NA,NA,NA,NA,NA,NA,NA,NA,NA,NA,NA,NA,NA,NA,NA
09626,Shallow Question,html.Page,1_1_5_1_0,NA,NA,form submission,1108.0000000119,38524.5,38520.9,38537.8,39645.800000012,39646,2024-06-15T13:33:03Z,39653.3,"c(""distractor1"", ""distractor2"", ""distractor3"")",Kritik,lawama,s,dereva,nafasi,mawazo,lawama,NA,NA,NA,NA,NA,NA,NA,NA,NA,NA,NA,NA,NA,NA,NA,NA,NA,NA,NA,NA,NA,NA
09626,"""Richtig""-Screen",canvas.Screen,1_1_5_1_1,NA,NA,timeout,4997.3,39646.899999976,39637.028,39653.3,44633.9,44636.699999988,2024-06-15T13:33:08Z,44650.6,"c(""distractor1"", ""distractor2"", ""distractor3"")",Kritik,lawama,s,dereva,nafasi,mawazo,NA,NA,1,NA,NA,NA,NA,NA,NA,NA,NA,NA,NA,NA,NA,NA,NA,NA,NA,NA,NA,NA,NA
09626,"""Falsch""-Screen",canvas.Screen,1_1_5_1_2,NA,NA,skipped,NA,44638.300000012,NA,NA,44633.9,44638.599999964,2024-06-15T13:33:08Z,44650.6,"c(""distractor1"", ""distractor2"", ""distractor3"")",Kritik,lawama,s,dereva,nafasi,mawazo,NA,NA,NA,NA,NA,NA,NA,NA,NA,NA,NA,NA,NA,NA,NA,NA,NA,NA,NA,NA,NA,NA,NA
09626,shallow,flow.Sequence,1_1_5_1,NA,NA,completion,6096.1,38524.5,38520.9,38537.8,44633.9,44638.899999976,2024-06-15T13:33:08Z,44650.6,"c(""distractor1"", ""distractor2"", ""distractor3"")",Kritik,lawama,s,dereva,nafasi,mawazo,NA,NA,NA,NA,NA,NA,NA,NA,NA,NA,NA,NA,NA,NA,NA,NA,NA,NA,NA,NA,NA,NA,NA
09626,task,flow.Sequence,1_1_5,NA,NA,completion,6096.1,38524.099999964,38520.9,38537.8,44633.9,44639.099999964,2024-06-15T13:33:08Z,44650.6,"c(""distractor1"", ""distractor2"", ""distractor3"")",Kritik,lawama,s,dereva,nafasi,mawazo,NA,NA,NA,NA,NA,NA,NA,NA,NA,NA,NA,NA,NA,NA,NA,NA,NA,NA,NA,NA,NA,NA,NA
09626,block,flow.Loop,1_1,NA,NA,completion,40109.2,4515.6999999881,4515.1,4524.7,44633.9,44639.5,2024-06-15T13:33:08Z,44650.6,"c(""distractor1"", ""distractor2"", ""distractor3"")",NA,NA,NA,NA,NA,NA,NA,NA,NA,NA,NA,NA,NA,NA,NA,NA,NA,NA,NA,NA,NA,NA,NA,NA,NA,NA,NA,NA,NA
09626,Practice,flow.Sequence,1,NA,NA,completion,41092,3532.3000000119,3526.18,3541.9,44633.9,44639.800000012,2024-06-15T13:33:08Z,44650.6,NULL,NA,NA,NA,NA,NA,NA,NA,NA,NA,NA,NA,NA,NA,NA,NA,NA,NA,NA,NA,NA,NA,NA,NA,NA,NA,NA,NA,NA,NA
09626,Experiment start,canvas.Screen,2,weiter,keypress(q),response,4764.9999999642,44640,44633.9,44650.6,49415.599999964,49416.599999964,2024-06-15T13:33:12Z,49480.7,NULL,NA,NA,NA,NA,NA,NA,NA,NA,NA,NA,NA,NA,NA,NA,NA,NA,NA,NA,NA,NA,NA,NA,NA,NA,NA,NA,NA,NA,NA
09626,Deep Question,html.Page,3_0_0_0_0_0_0,NA,NA,form submission,6262.8,49472.699999988,49470.8,49480.7,55743.5,55743.699999988,2024-06-15T13:33:19Z,55761.4,NULL,Aufstand,ugomaji,d,NA,NA,NA,aufstand,NA,NA,0,NA,NA,NA,NA,NA,NA,NA,NA,NA,NA,NA,NA,NA,NA,NA,NA,NA,NA,NA
09626,"""Richtig""-Screen",canvas.Screen,3_0_0_0_0_0_1,NA,NA,skipped,NA,55744.699999988,NA,NA,55743.5,55744.800000012,2024-06-15T13:33:19Z,55761.4,NULL,Aufstand,ugomaji,d,NA,NA,NA,NA,sdf,NA,0,NA,NA,NA,NA,NA,NA,NA,NA,NA,NA,NA,NA,NA,NA,NA,NA,NA,NA,NA
09626,"""Falsch""-Screen",canvas.Screen,3_0_0_0_0_0_2,NA,NA,timeout,4995.8,55745.5,55739.85,55761.4,60740.6,60741,2024-06-15T13:33:24Z,60757.2,NULL,Aufstand,ugomaji,d,NA,NA,NA,NA,sdf,0,0,NA,NA,NA,NA,NA,NA,NA,NA,NA,NA,NA,NA,NA,NA,NA,NA,NA,NA,NA
09626,deep,flow.Sequence,3_0_0_0_0_0,NA,NA,completion,11259.9,49472.699999988,49470.8,49480.7,60740.6,60741.199999988,2024-06-15T13:33:24Z,60757.2,NULL,Aufstand,ugomaji,d,NA,NA,NA,NA,sdf,NA,0,NA,NA,NA,NA,NA,NA,NA,NA,NA,NA,NA,NA,NA,NA,NA,NA,NA,NA,NA
09626,shallow,flow.Sequence,3_0_0_0_0_1,NA,NA,skipped,NA,60741.199999988,NA,NA,60740.6,60741.300000012,2024-06-15T13:33:24Z,60757.2,NULL,Aufstand,ugomaji,d,NA,NA,NA,NA,sdf,NA,0,NA,NA,NA,NA,NA,NA,NA,NA,NA,NA,NA,NA,NA,NA,NA,NA,NA,NA,NA
09626,task,flow.Sequence,3_0_0_0_0,NA,NA,completion,11259.9,49472.699999988,49470.8,49480.7,60740.6,60741.300000012,2024-06-15T13:33:24Z,60757.2,NULL,Aufstand,ugomaji,d,NA,NA,NA,NA,sdf,NA,0,NA,NA,NA,NA,NA,NA,NA,NA,NA,NA,NA,NA,NA,NA,NA,NA,NA,NA,NA
09626,deep,flow.Sequence,3_0_0_0_1_0,NA,NA,skipped,NA,60741.399999976,NA,NA,60740.6,60741.5,2024-06-15T13:33:24Z,60757.2,NULL,Begegnung,kukutana,s,mmasihiya,mpiganaji,husiano,NA,sdf,NA,0,NA,NA,NA,NA,NA,NA,NA,NA,NA,NA,NA,NA,NA,NA,NA,NA,NA,NA,NA
09626,Shallow Question,html.Page,3_0_0_0_1_1_0,NA,NA,form submission,7571.8999999642,60741.5,60740.6,60757.2,68329.099999964,68329.399999976,2024-06-15T13:33:31Z,68335.7,NULL,Begegnung,kukutana,s,mmasihiya,mpiganaji,husiano,kukutana,NA,NA,0,NA,NA,NA,NA,NA,NA,NA,NA,NA,NA,NA,NA,NA,NA,NA,NA,NA,NA,NA
09626,"""Richtig""-Screen",canvas.Screen,3_0_0_0_1_1_1,NA,NA,timeout,4997.1,68332.399999976,68326.6,68335.7,73316.1,73317.099999964,2024-06-15T13:33:36Z,73332.8,NULL,Begegnung,kukutana,s,mmasihiya,mpiganaji,husiano,NA,sdf,1,0,NA,NA,NA,NA,NA,NA,NA,NA,NA,NA,NA,NA,NA,NA,NA,NA,NA,NA,NA
09626,"""Falsch""-Screen",canvas.Screen,3_0_0_0_1_1_2,NA,NA,skipped,NA,73322.099999964,NA,NA,73316.1,73322.300000012,2024-06-15T13:33:36Z,73332.8,NULL,Begegnung,kukutana,s,mmasihiya,mpiganaji,husiano,NA,sdf,NA,0,NA,NA,NA,NA,NA,NA,NA,NA,NA,NA,NA,NA,NA,NA,NA,NA,NA,NA,NA
09626,shallow,flow.Sequence,3_0_0_0_1_1,NA,NA,completion,12558.9,60741.5,60740.6,60757.2,73316.1,73322.5,2024-06-15T13:33:36Z,73332.8,NULL,Begegnung,kukutana,s,mmasihiya,mpiganaji,husiano,NA,sdf,NA,0,NA,NA,NA,NA,NA,NA,NA,NA,NA,NA,NA,NA,NA,NA,NA,NA,NA,NA,NA
09626,task,flow.Sequence,3_0_0_0_1,NA,NA,completion,12558.9,60741.399999976,60740.6,60757.2,73316.1,73322.5,2024-06-15T13:33:36Z,73332.8,NULL,Begegnung,kukutana,s,mmasihiya,mpiganaji,husiano,NA,sdf,NA,0,NA,NA,NA,NA,NA,NA,NA,NA,NA,NA,NA,NA,NA,NA,NA,NA,NA,NA,NA
09626,deep,flow.Sequence,3_0_0_0_2_0,NA,NA,skipped,NA,73322.5,NA,NA,73316.1,73322.5,2024-06-15T13:33:36Z,73332.8,NULL,Verzögerung,kuchelewa,s,mwakilishi,mwanauchumi,jaribio,NA,sdf,NA,0,NA,NA,NA,NA,NA,NA,NA,NA,NA,NA,NA,NA,NA,NA,NA,NA,NA,NA,NA
09626,Shallow Question,html.Page,3_0_0_0_2_1_0,NA,NA,form submission,9775.7,73322.5,73316.1,73332.8,83108.5,83108.699999988,2024-06-15T13:33:46Z,83127.1,NULL,Verzögerung,kuchelewa,s,mwakilishi,mwanauchumi,jaribio,jaribio,NA,NA,0,NA,NA,NA,NA,NA,NA,NA,NA,NA,NA,NA,NA,NA,NA,NA,NA,NA,NA,NA
09626,"""Richtig""-Screen",canvas.Screen,3_0_0_0_2_1_1,NA,NA,skipped,NA,83111.800000012,NA,NA,83108.5,83112,2024-06-15T13:33:46Z,83127.1,NULL,Verzögerung,kuchelewa,s,mwakilishi,mwanauchumi,jaribio,NA,sdf,NA,0,NA,NA,NA,NA,NA,NA,NA,NA,NA,NA,NA,NA,NA,NA,NA,NA,NA,NA,NA
09626,"""Falsch""-Screen",canvas.Screen,3_0_0_0_2_1_2,NA,NA,timeout,4996.9,83112.800000012,83110.432,83127.1,88107.1,88108.699999988,2024-06-15T13:33:51Z,88124,NULL,Verzögerung,kuchelewa,s,mwakilishi,mwanauchumi,jaribio,NA,sdf,0,0,NA,NA,NA,NA,NA,NA,NA,NA,NA,NA,NA,NA,NA,NA,NA,NA,NA,NA,NA
09626,shallow,flow.Sequence,3_0_0_0_2_1,NA,NA,completion,14774.3,73322.5,73316.1,73332.8,88107.1,88109.099999964,2024-06-15T13:33:51Z,88124,NULL,Verzögerung,kuchelewa,s,mwakilishi,mwanauchumi,jaribio,NA,sdf,NA,0,NA,NA,NA,NA,NA,NA,NA,NA,NA,NA,NA,NA,NA,NA,NA,NA,NA,NA,NA
09626,task,flow.Sequence,3_0_0_0_2,NA,NA,completion,14774.3,73322.5,73316.1,73332.8,88107.1,88109.399999976,2024-06-15T13:33:51Z,88124,NULL,Verzögerung,kuchelewa,s,mwakilishi,mwanauchumi,jaribio,NA,sdf,NA,0,NA,NA,NA,NA,NA,NA,NA,NA,NA,NA,NA,NA,NA,NA,NA,NA,NA,NA,NA
09626,deep,flow.Sequence,3_0_0_0_3_0,NA,NA,skipped,NA,88109.5,NA,NA,88107.1,88109.699999988,2024-06-15T13:33:51Z,88124,NULL,Genehmigung,idhini,s,mwanamke,itikadi,fedheha,NA,sdf,NA,0,NA,NA,NA,NA,NA,NA,NA,NA,NA,NA,NA,NA,NA,NA,NA,NA,NA,NA,NA
09626,Shallow Question,html.Page,3_0_0_0_3_1_0,NA,NA,form submission,5257.0999999642,88109.800000012,88107.1,88124,93381.099999964,93381.199999988,2024-06-15T13:33:56Z,93387.972,NULL,Genehmigung,idhini,s,mwanamke,itikadi,fedheha,idhini,NA,NA,0,NA,NA,NA,NA,NA,NA,NA,NA,NA,NA,NA,NA,NA,NA,NA,NA,NA,NA,NA
09626,"""Richtig""-Screen",canvas.Screen,3_0_0_0_3_1_1,NA,NA,timeout,4996.528,93384.5,93387.972,93387.972,98367.6,98369.5,2024-06-15T13:34:01Z,98384.5,NULL,Genehmigung,idhini,s,mwanamke,itikadi,fedheha,NA,sdf,1,0,NA,NA,NA,NA,NA,NA,NA,NA,NA,NA,NA,NA,NA,NA,NA,NA,NA,NA,NA
09626,"""Falsch""-Screen",canvas.Screen,3_0_0_0_3_1_2,NA,NA,skipped,NA,98374.599999964,NA,NA,98367.6,98374.800000012,2024-06-15T13:34:01Z,98384.5,NULL,Genehmigung,idhini,s,mwanamke,itikadi,fedheha,NA,sdf,NA,0,NA,NA,NA,NA,NA,NA,NA,NA,NA,NA,NA,NA,NA,NA,NA,NA,NA,NA,NA
09626,shallow,flow.Sequence,3_0_0_0_3_1,NA,NA,completion,10243.6,88109.800000012,88107.1,88124,98367.6,98375,2024-06-15T13:34:01Z,98384.5,NULL,Genehmigung,idhini,s,mwanamke,itikadi,fedheha,NA,sdf,NA,0,NA,NA,NA,NA,NA,NA,NA,NA,NA,NA,NA,NA,NA,NA,NA,NA,NA,NA,NA
09626,task,flow.Sequence,3_0_0_0_3,NA,NA,completion,10243.6,88109.5,88107.1,88124,98367.6,98375.099999964,2024-06-15T13:34:01Z,98384.5,NULL,Genehmigung,idhini,s,mwanamke,itikadi,fedheha,NA,sdf,NA,0,NA,NA,NA,NA,NA,NA,NA,NA,NA,NA,NA,NA,NA,NA,NA,NA,NA,NA,NA
09626,Deep Question,html.Page,3_0_0_0_4_0_0,NA,NA,form submission,5923,98375.099999964,98367.6,98384.5,104307.5,104307.69999999,2024-06-15T13:34:07Z,104313.6,NULL,Prüfung,mtihani,d,NA,NA,NA,prüfung,NA,NA,0,NA,NA,NA,NA,NA,NA,NA,NA,NA,NA,NA,NA,NA,NA,NA,NA,NA,NA,NA
09626,"""Richtig""-Screen",canvas.Screen,3_0_0_0_4_0_1,NA,NA,skipped,NA,104309.89999998,NA,NA,104307.5,104310,2024-06-15T13:34:07Z,104313.6,NULL,Prüfung,mtihani,d,NA,NA,NA,NA,sdf,NA,0,NA,NA,NA,NA,NA,NA,NA,NA,NA,NA,NA,NA,NA,NA,NA,NA,NA,NA,NA
09626,"""Falsch""-Screen",canvas.Screen,3_0_0_0_4_0_2,NA,NA,timeout,4997.6,104310.59999996,104297.1,104313.6,109294.4,109297.5,2024-06-15T13:34:12Z,109311.2,NULL,Prüfung,mtihani,d,NA,NA,NA,NA,sdf,0,0,NA,NA,NA,NA,NA,NA,NA,NA,NA,NA,NA,NA,NA,NA,NA,NA,NA,NA,NA
09626,deep,flow.Sequence,3_0_0_0_4_0,NA,NA,completion,10909.9,98375.099999964,98367.6,98384.5,109294.4,109297.80000001,2024-06-15T13:34:12Z,109311.2,NULL,Prüfung,mtihani,d,NA,NA,NA,NA,sdf,NA,0,NA,NA,NA,NA,NA,NA,NA,NA,NA,NA,NA,NA,NA,NA,NA,NA,NA,NA,NA
09626,shallow,flow.Sequence,3_0_0_0_4_1,NA,NA,skipped,NA,109298,NA,NA,109294.4,109298.19999999,2024-06-15T13:34:12Z,109311.2,NULL,Prüfung,mtihani,d,NA,NA,NA,NA,sdf,NA,0,NA,NA,NA,NA,NA,NA,NA,NA,NA,NA,NA,NA,NA,NA,NA,NA,NA,NA,NA
09626,task,flow.Sequence,3_0_0_0_4,NA,NA,completion,10909.9,98375.099999964,98367.6,98384.5,109294.4,109298.30000001,2024-06-15T13:34:12Z,109311.2,NULL,Prüfung,mtihani,d,NA,NA,NA,NA,sdf,NA,0,NA,NA,NA,NA,NA,NA,NA,NA,NA,NA,NA,NA,NA,NA,NA,NA,NA,NA,NA
09626,deep,flow.Sequence,3_0_0_0_5_0,NA,NA,skipped,NA,109298.5,NA,NA,109294.4,109298.59999996,2024-06-15T13:34:12Z,109311.2,NULL,Kultur,utamaduni,s,shetani,gerezani,mazingira,NA,sdf,NA,0,NA,NA,NA,NA,NA,NA,NA,NA,NA,NA,NA,NA,NA,NA,NA,NA,NA,NA,NA
09626,Shallow Question,html.Page,3_0_0_0_5_1_0,NA,NA,form submission,24358.899999964,109298.69999999,109294.4,109311.2,133670.09999996,133670.30000001,2024-06-15T13:34:37Z,133679.6,NULL,Kultur,utamaduni,s,shetani,gerezani,mazingira,mazingira,NA,NA,0,NA,NA,NA,NA,NA,NA,NA,NA,NA,NA,NA,NA,NA,NA,NA,NA,NA,NA,NA
09626,"""Richtig""-Screen",canvas.Screen,3_0_0_0_5_1_1,NA,NA,skipped,NA,133673.30000001,NA,NA,133670.09999996,133673.39999998,2024-06-15T13:34:37Z,133679.6,NULL,Kultur,utamaduni,s,shetani,gerezani,mazingira,NA,sdf,NA,0,NA,NA,NA,NA,NA,NA,NA,NA,NA,NA,NA,NA,NA,NA,NA,NA,NA,NA,NA
09626,"""Falsch""-Screen",canvas.Screen,3_0_0_0_5_1_2,NA,NA,timeout,4996.9,133674.19999999,133664.116,133679.6,138659.8,138660.89999998,2024-06-15T13:34:42Z,138676.5,NULL,Kultur,utamaduni,s,shetani,gerezani,mazingira,NA,sdf,0,0,NA,NA,NA,NA,NA,NA,NA,NA,NA,NA,NA,NA,NA,NA,NA,NA,NA,NA,NA
09626,shallow,flow.Sequence,3_0_0_0_5_1,NA,NA,completion,29348.6,109298.69999999,109294.4,109311.2,138659.8,138661.19999999,2024-06-15T13:34:42Z,138676.5,NULL,Kultur,utamaduni,s,shetani,gerezani,mazingira,NA,sdf,NA,0,NA,NA,NA,NA,NA,NA,NA,NA,NA,NA,NA,NA,NA,NA,NA,NA,NA,NA,NA
09626,task,flow.Sequence,3_0_0_0_5,NA,NA,completion,29348.6,109298.39999998,109294.4,109311.2,138659.8,138661.39999998,2024-06-15T13:34:42Z,138676.5,NULL,Kultur,utamaduni,s,shetani,gerezani,mazingira,NA,sdf,NA,0,NA,NA,NA,NA,NA,NA,NA,NA,NA,NA,NA,NA,NA,NA,NA,NA,NA,NA,NA
09626,Deep Question,html.Page,3_0_0_0_6_0_0,NA,NA,form submission,14228,138661.69999999,138659.8,138676.5,152904.5,152904.69999999,2024-06-15T13:34:56Z,152917.4,NULL,Integrität,uadilifu,d,NA,NA,NA,lkj,NA,NA,0,NA,NA,NA,NA,NA,NA,NA,NA,NA,NA,NA,NA,NA,NA,NA,NA,NA,NA,NA
09626,"""Richtig""-Screen",canvas.Screen,3_0_0_0_6_0_1,NA,NA,skipped,NA,152907.80000001,NA,NA,152904.5,152908.39999998,2024-06-15T13:34:56Z,152917.4,NULL,Integrität,uadilifu,d,NA,NA,NA,NA,sdf,NA,0,NA,NA,NA,NA,NA,NA,NA,NA,NA,NA,NA,NA,NA,NA,NA,NA,NA,NA,NA
09626,"""Falsch""-Screen",canvas.Screen,3_0_0_0_6_0_2,NA,NA,timeout,4997.2,152909.09999996,152901.678,152917.4,157897.8,157898.69999999,2024-06-15T13:35:01Z,157914.6,NULL,Integrität,uadilifu,d,NA,NA,NA,NA,sdf,0,0,NA,NA,NA,NA,NA,NA,NA,NA,NA,NA,NA,NA,NA,NA,NA,NA,NA,NA,NA
09626,deep,flow.Sequence,3_0_0_0_6_0,NA,NA,completion,19221.3,138661.69999999,138659.8,138676.5,157897.8,157899,2024-06-15T13:35:01Z,157914.6,NULL,Integrität,uadilifu,d,NA,NA,NA,NA,sdf,NA,0,NA,NA,NA,NA,NA,NA,NA,NA,NA,NA,NA,NA,NA,NA,NA,NA,NA,NA,NA
09626,shallow,flow.Sequence,3_0_0_0_6_1,NA,NA,skipped,NA,157899.09999996,NA,NA,157897.8,157899.30000001,2024-06-15T13:35:01Z,157914.6,NULL,Integrität,uadilifu,d,NA,NA,NA,NA,sdf,NA,0,NA,NA,NA,NA,NA,NA,NA,NA,NA,NA,NA,NA,NA,NA,NA,NA,NA,NA,NA
09626,task,flow.Sequence,3_0_0_0_6,NA,NA,completion,19221.3,138661.59999996,138659.8,138676.5,157897.8,157899.5,2024-06-15T13:35:01Z,157914.6,NULL,Integrität,uadilifu,d,NA,NA,NA,NA,sdf,NA,0,NA,NA,NA,NA,NA,NA,NA,NA,NA,NA,NA,NA,NA,NA,NA,NA,NA,NA,NA
09626,Deep Question,html.Page,3_0_0_0_7_0_0,NA,NA,form submission,11157.299999976,157899.69999999,157897.8,157914.6,169071.89999998,169072.09999996,2024-06-15T13:35:12Z,169074.728,NULL,Fleisch,mshakiki,d,NA,NA,NA,fleisch,NA,NA,0,NA,NA,NA,NA,NA,NA,NA,NA,NA,NA,NA,NA,NA,NA,NA,NA,NA,NA,NA
09626,"""Richtig""-Screen",canvas.Screen,3_0_0_0_7_0_1,NA,NA,skipped,NA,169075.19999999,NA,NA,169071.89999998,169075.19999999,2024-06-15T13:35:12Z,169074.728,NULL,Fleisch,mshakiki,d,NA,NA,NA,NA,sdf,NA,0,NA,NA,NA,NA,NA,NA,NA,NA,NA,NA,NA,NA,NA,NA,NA,NA,NA,NA,NA
09626,"""Falsch""-Screen",canvas.Screen,3_0_0_0_7_0_2,NA,NA,timeout,4996.772,169076,169074.728,169074.728,174054.5,174055.59999996,2024-06-15T13:35:17Z,174071.5,NULL,Fleisch,mshakiki,d,NA,NA,NA,NA,sdf,0,0,NA,NA,NA,NA,NA,NA,NA,NA,NA,NA,NA,NA,NA,NA,NA,NA,NA,NA,NA
09626,deep,flow.Sequence,3_0_0_0_7_0,NA,NA,completion,16139.9,157899.69999999,157897.8,157914.6,174054.5,174056,2024-06-15T13:35:17Z,174071.5,NULL,Fleisch,mshakiki,d,NA,NA,NA,NA,sdf,NA,0,NA,NA,NA,NA,NA,NA,NA,NA,NA,NA,NA,NA,NA,NA,NA,NA,NA,NA,NA
09626,shallow,flow.Sequence,3_0_0_0_7_1,NA,NA,skipped,NA,174056.19999999,NA,NA,174054.5,174056.30000001,2024-06-15T13:35:17Z,174071.5,NULL,Fleisch,mshakiki,d,NA,NA,NA,NA,sdf,NA,0,NA,NA,NA,NA,NA,NA,NA,NA,NA,NA,NA,NA,NA,NA,NA,NA,NA,NA,NA
09626,task,flow.Sequence,3_0_0_0_7,NA,NA,completion,16139.9,157899.59999996,157897.8,157914.6,174054.5,174056.5,2024-06-15T13:35:17Z,174071.5,NULL,Fleisch,mshakiki,d,NA,NA,NA,NA,sdf,NA,0,NA,NA,NA,NA,NA,NA,NA,NA,NA,NA,NA,NA,NA,NA,NA,NA,NA,NA,NA
09626,block,flow.Loop,3_0_0_0,NA,NA,completion,124573.8,49472.699999988,49470.8,49480.7,174054.5,174056.80000001,2024-06-15T13:35:17Z,174071.5,NULL,NA,NA,NA,NA,NA,NA,NA,sdf,NA,0,NA,NA,NA,NA,NA,NA,NA,NA,NA,NA,NA,NA,NA,NA,NA,NA,NA,NA,NA
09626,weiter,canvas.Screen,3_0_0_1,sdf,keypress(Space),response,1781.3999999762,174056.89999998,174054.5,174071.5,175852.89999998,175853.89999998,2024-06-15T13:35:19Z,175903.7,NULL,NA,NA,NA,NA,NA,NA,NA,sdf,NA,0,NA,NA,NA,NA,NA,NA,NA,NA,NA,NA,NA,NA,NA,NA,NA,NA,NA,NA,NA
09626,check continue,flow.Sequence,3_0_0,NA,NA,completion,126372.19999998,49472.699999988,49470.8,49480.7,175852.89999998,175854.09999996,2024-06-15T13:35:19Z,175903.7,NULL,NA,NA,NA,NA,NA,NA,NA,sdf,NA,0,NA,NA,NA,NA,NA,NA,NA,NA,NA,NA,NA,NA,NA,NA,NA,NA,NA,NA,NA
09626,deep,flow.Sequence,3_0_1_0_0_0,NA,NA,skipped,NA,175873.5,NA,NA,175852.89999998,175873.5,2024-06-15T13:35:19Z,175903.7,NULL,Kultur,utamaduni,s,shetani,gerezani,mazingira,NA,sdfdsf,NA,1,NA,NA,NA,NA,NA,NA,NA,NA,NA,NA,NA,NA,NA,NA,NA,NA,NA,NA,NA
09626,Shallow Question,html.Page,3_0_1_0_0_1_0,NA,NA,form submission,10478.999999988,175873.5,175887.1,175903.7,186382.69999999,186382.89999998,2024-06-15T13:35:29Z,186397.4,NULL,Kultur,utamaduni,s,shetani,gerezani,mazingira,utamaduni,NA,NA,1,NA,NA,NA,NA,NA,NA,NA,NA,NA,NA,NA,NA,NA,NA,NA,NA,NA,NA,NA
09626,"""Richtig""-Screen",canvas.Screen,3_0_1_0_0_1_1,NA,NA,timeout,4996.9,186386,186384.598,186397.4,191377.5,191378.39999998,2024-06-15T13:35:34Z,191394.3,NULL,Kultur,utamaduni,s,shetani,gerezani,mazingira,NA,sdfdsf,1,1,NA,NA,NA,NA,NA,NA,NA,NA,NA,NA,NA,NA,NA,NA,NA,NA,NA,NA,NA
09626,"""Falsch""-Screen",canvas.Screen,3_0_1_0_0_1_2,NA,NA,skipped,NA,191383.39999998,NA,NA,191377.5,191383.5,2024-06-15T13:35:34Z,191394.3,NULL,Kultur,utamaduni,s,shetani,gerezani,mazingira,NA,sdfdsf,NA,1,NA,NA,NA,NA,NA,NA,NA,NA,NA,NA,NA,NA,NA,NA,NA,NA,NA,NA,NA
09626,shallow,flow.Sequence,3_0_1_0_0_1,NA,NA,completion,15473.8,175873.5,175887.1,175903.7,191377.5,191383.80000001,2024-06-15T13:35:34Z,191394.3,NULL,Kultur,utamaduni,s,shetani,gerezani,mazingira,NA,sdfdsf,NA,1,NA,NA,NA,NA,NA,NA,NA,NA,NA,NA,NA,NA,NA,NA,NA,NA,NA,NA,NA
09626,task,flow.Sequence,3_0_1_0_0,NA,NA,completion,15473.8,175873.5,175887.1,175903.7,191377.5,191383.80000001,2024-06-15T13:35:34Z,191394.3,NULL,Kultur,utamaduni,s,shetani,gerezani,mazingira,NA,sdfdsf,NA,1,NA,NA,NA,NA,NA,NA,NA,NA,NA,NA,NA,NA,NA,NA,NA,NA,NA,NA,NA
09626,Deep Question,html.Page,3_0_1_0_1_0_0,NA,NA,form submission,11180.899999988,191383.89999998,191377.5,191394.3,202575.19999999,202575.39999998,2024-06-15T13:35:46Z,202587,NULL,Prüfung,mtihani,d,NA,NA,NA,prüfung,NA,NA,1,NA,NA,NA,NA,NA,NA,NA,NA,NA,NA,NA,NA,NA,NA,NA,NA,NA,NA,NA
09626,"""Richtig""-Screen",canvas.Screen,3_0_1_0_1_0_1,NA,NA,skipped,NA,202578.39999998,NA,NA,202575.19999999,202578.69999999,2024-06-15T13:35:46Z,202587,NULL,Prüfung,mtihani,d,NA,NA,NA,NA,sdfdsf,NA,1,NA,NA,NA,NA,NA,NA,NA,NA,NA,NA,NA,NA,NA,NA,NA,NA,NA,NA,NA
09626,"""Falsch""-Screen",canvas.Screen,3_0_1_0_1_0_2,NA,NA,timeout,4997.2,202579.30000001,202578.974,202587,207567.6,207569.5,2024-06-15T13:35:51Z,207584.2,NULL,Prüfung,mtihani,d,NA,NA,NA,NA,sdfdsf,0,1,NA,NA,NA,NA,NA,NA,NA,NA,NA,NA,NA,NA,NA,NA,NA,NA,NA,NA,NA
09626,deep,flow.Sequence,3_0_1_0_1_0,NA,NA,completion,16173.3,191383.89999998,191377.5,191394.3,207567.6,207570,2024-06-15T13:35:51Z,207584.2,NULL,Prüfung,mtihani,d,NA,NA,NA,NA,sdfdsf,NA,1,NA,NA,NA,NA,NA,NA,NA,NA,NA,NA,NA,NA,NA,NA,NA,NA,NA,NA,NA
09626,shallow,flow.Sequence,3_0_1_0_1_1,NA,NA,skipped,NA,207570.09999996,NA,NA,207567.6,207570.19999999,2024-06-15T13:35:51Z,207584.2,NULL,Prüfung,mtihani,d,NA,NA,NA,NA,sdfdsf,NA,1,NA,NA,NA,NA,NA,NA,NA,NA,NA,NA,NA,NA,NA,NA,NA,NA,NA,NA,NA
09626,task,flow.Sequence,3_0_1_0_1,NA,NA,completion,16173.3,191383.89999998,191377.5,191394.3,207567.6,207570.5,2024-06-15T13:35:51Z,207584.2,NULL,Prüfung,mtihani,d,NA,NA,NA,NA,sdfdsf,NA,1,NA,NA,NA,NA,NA,NA,NA,NA,NA,NA,NA,NA,NA,NA,NA,NA,NA,NA,NA
09626,Deep Question,html.Page,3_0_1_0_2_0_0,NA,NA,form submission,9278.8,207570.69999999,207567.6,207584.2,216863,216863.09999996,2024-06-15T13:36:00Z,216878.4,NULL,Fleisch,mshakiki,d,NA,NA,NA,mshakiki,NA,NA,1,NA,NA,NA,NA,NA,NA,NA,NA,NA,NA,NA,NA,NA,NA,NA,NA,NA,NA,NA
09626,"""Richtig""-Screen",canvas.Screen,3_0_1_0_2_0_1,NA,NA,timeout,4997.4,216864.69999999,216861.946,216878.4,221859.1,221860.09999996,2024-06-15T13:36:05Z,221875.8,NULL,Fleisch,mshakiki,d,NA,NA,NA,NA,sdfdsf,1,1,NA,NA,NA,NA,NA,NA,NA,NA,NA,NA,NA,NA,NA,NA,NA,NA,NA,NA,NA
09626,"""Falsch""-Screen",canvas.Screen,3_0_1_0_2_0_2,NA,NA,skipped,NA,221865.39999998,NA,NA,221859.1,221865.59999996,2024-06-15T13:36:05Z,221875.8,NULL,Fleisch,mshakiki,d,NA,NA,NA,NA,sdfdsf,NA,1,NA,NA,NA,NA,NA,NA,NA,NA,NA,NA,NA,NA,NA,NA,NA,NA,NA,NA,NA
09626,deep,flow.Sequence,3_0_1_0_2_0,NA,NA,completion,14274.9,207570.59999996,207567.6,207584.2,221859.1,221865.59999996,2024-06-15T13:36:05Z,221875.8,NULL,Fleisch,mshakiki,d,NA,NA,NA,NA,sdfdsf,NA,1,NA,NA,NA,NA,NA,NA,NA,NA,NA,NA,NA,NA,NA,NA,NA,NA,NA,NA,NA
09626,shallow,flow.Sequence,3_0_1_0_2_1,NA,NA,skipped,NA,221865.59999996,NA,NA,221859.1,221865.69999999,2024-06-15T13:36:05Z,221875.8,NULL,Fleisch,mshakiki,d,NA,NA,NA,NA,sdfdsf,NA,1,NA,NA,NA,NA,NA,NA,NA,NA,NA,NA,NA,NA,NA,NA,NA,NA,NA,NA,NA
09626,task,flow.Sequence,3_0_1_0_2,NA,NA,completion,14274.9,207570.5,207567.6,207584.2,221859.1,221865.69999999,2024-06-15T13:36:05Z,221875.8,NULL,Fleisch,mshakiki,d,NA,NA,NA,NA,sdfdsf,NA,1,NA,NA,NA,NA,NA,NA,NA,NA,NA,NA,NA,NA,NA,NA,NA,NA,NA,NA,NA
09626,deep,flow.Sequence,3_0_1_0_3_0,NA,NA,skipped,NA,221865.69999999,NA,NA,221859.1,221865.80000001,2024-06-15T13:36:05Z,221875.8,NULL,Verzögerung,kuchelewa,s,mwakilishi,mwanauchumi,jaribio,NA,sdfdsf,NA,1,NA,NA,NA,NA,NA,NA,NA,NA,NA,NA,NA,NA,NA,NA,NA,NA,NA,NA,NA
09626,Shallow Question,html.Page,3_0_1_0_3_1_0,NA,NA,form submission,30988.299999964,221865.80000001,221859.1,221875.8,252864.09999996,252864.30000001,2024-06-15T13:36:36Z,252873.3,NULL,Verzögerung,kuchelewa,s,mwakilishi,mwanauchumi,jaribio,kuchelewa,NA,NA,1,NA,NA,NA,NA,NA,NA,NA,NA,NA,NA,NA,NA,NA,NA,NA,NA,NA,NA,NA
09626,"""Richtig""-Screen",canvas.Screen,3_0_1_0_3_1_1,NA,NA,timeout,4996.9,252867.19999999,252860.756,252873.3,257853.5,257855.80000001,2024-06-15T13:36:41Z,257870.2,NULL,Verzögerung,kuchelewa,s,mwakilishi,mwanauchumi,jaribio,NA,sdfdsf,1,1,NA,NA,NA,NA,NA,NA,NA,NA,NA,NA,NA,NA,NA,NA,NA,NA,NA,NA,NA
09626,"""Falsch""-Screen",canvas.Screen,3_0_1_0_3_1_2,NA,NA,skipped,NA,257861,NA,NA,257853.5,257861.19999999,2024-06-15T13:36:41Z,257870.2,NULL,Verzögerung,kuchelewa,s,mwakilishi,mwanauchumi,jaribio,NA,sdfdsf,NA,1,NA,NA,NA,NA,NA,NA,NA,NA,NA,NA,NA,NA,NA,NA,NA,NA,NA,NA,NA
09626,shallow,flow.Sequence,3_0_1_0_3_1,NA,NA,completion,35977.7,221865.80000001,221859.1,221875.8,257853.5,257861.30000001,2024-06-15T13:36:41Z,257870.2,NULL,Verzögerung,kuchelewa,s,mwakilishi,mwanauchumi,jaribio,NA,sdfdsf,NA,1,NA,NA,NA,NA,NA,NA,NA,NA,NA,NA,NA,NA,NA,NA,NA,NA,NA,NA,NA
09626,task,flow.Sequence,3_0_1_0_3,NA,NA,completion,35977.7,221865.69999999,221859.1,221875.8,257853.5,257861.39999998,2024-06-15T13:36:41Z,257870.2,NULL,Verzögerung,kuchelewa,s,mwakilishi,mwanauchumi,jaribio,NA,sdfdsf,NA,1,NA,NA,NA,NA,NA,NA,NA,NA,NA,NA,NA,NA,NA,NA,NA,NA,NA,NA,NA
09626,Deep Question,html.Page,3_0_1_0_4_0_0,NA,NA,form submission,11520.199999976,257861.5,257853.5,257870.2,269390.39999998,269390.69999999,2024-06-15T13:36:52Z,269396.2,NULL,Integrität,uadilifu,d,NA,NA,NA,uadlilfi,NA,NA,1,NA,NA,NA,NA,NA,NA,NA,NA,NA,NA,NA,NA,NA,NA,NA,NA,NA,NA,NA
09626,"""Richtig""-Screen",canvas.Screen,3_0_1_0_4_0_1,NA,NA,skipped,NA,269392.09999996,NA,NA,269390.39999998,269392.09999996,2024-06-15T13:36:52Z,269396.2,NULL,Integrität,uadilifu,d,NA,NA,NA,NA,sdfdsf,NA,1,NA,NA,NA,NA,NA,NA,NA,NA,NA,NA,NA,NA,NA,NA,NA,NA,NA,NA,NA
09626,"""Falsch""-Screen",canvas.Screen,3_0_1_0_4_0_2,NA,NA,timeout,4997.4,269392.5,269379.4,269396.2,274377,274377.89999998,2024-06-15T13:36:57Z,274393.6,NULL,Integrität,uadilifu,d,NA,NA,NA,NA,sdfdsf,0,1,NA,NA,NA,NA,NA,NA,NA,NA,NA,NA,NA,NA,NA,NA,NA,NA,NA,NA,NA
09626,deep,flow.Sequence,3_0_1_0_4_0,NA,NA,completion,16506.8,257861.39999998,257853.5,257870.2,274377,274378.39999998,2024-06-15T13:36:57Z,274393.6,NULL,Integrität,uadilifu,d,NA,NA,NA,NA,sdfdsf,NA,1,NA,NA,NA,NA,NA,NA,NA,NA,NA,NA,NA,NA,NA,NA,NA,NA,NA,NA,NA
09626,shallow,flow.Sequence,3_0_1_0_4_1,NA,NA,skipped,NA,274378.59999996,NA,NA,274377,274378.69999999,2024-06-15T13:36:57Z,274393.6,NULL,Integrität,uadilifu,d,NA,NA,NA,NA,sdfdsf,NA,1,NA,NA,NA,NA,NA,NA,NA,NA,NA,NA,NA,NA,NA,NA,NA,NA,NA,NA,NA
09626,task,flow.Sequence,3_0_1_0_4,NA,NA,completion,16506.8,257861.39999998,257853.5,257870.2,274377,274378.89999998,2024-06-15T13:36:57Z,274393.6,NULL,Integrität,uadilifu,d,NA,NA,NA,NA,sdfdsf,NA,1,NA,NA,NA,NA,NA,NA,NA,NA,NA,NA,NA,NA,NA,NA,NA,NA,NA,NA,NA
09626,deep,flow.Sequence,3_0_1_0_5_0,NA,NA,skipped,NA,274379,NA,NA,274377,274379.19999999,2024-06-15T13:36:57Z,274393.6,NULL,Begegnung,kukutana,s,mmasihiya,mpiganaji,husiano,NA,sdfdsf,NA,1,NA,NA,NA,NA,NA,NA,NA,NA,NA,NA,NA,NA,NA,NA,NA,NA,NA,NA,NA
09626,Shallow Question,html.Page,3_0_1_0_5_1_0,NA,NA,form submission,17661.9,274379.30000001,274377,274393.6,292055.5,292055.69999999,2024-06-15T13:37:15Z,292066.1,NULL,Begegnung,kukutana,s,mmasihiya,mpiganaji,husiano,kukutana,NA,NA,1,NA,NA,NA,NA,NA,NA,NA,NA,NA,NA,NA,NA,NA,NA,NA,NA,NA,NA,NA
09626,"""Richtig""-Screen",canvas.Screen,3_0_1_0_5_1_1,NA,NA,timeout,4996.9,292058.69999999,292052.708,292066.1,297046.4,297047.30000001,2024-06-15T13:37:20Z,297063,NULL,Begegnung,kukutana,s,mmasihiya,mpiganaji,husiano,NA,sdfdsf,1,1,NA,NA,NA,NA,NA,NA,NA,NA,NA,NA,NA,NA,NA,NA,NA,NA,NA,NA,NA
09626,"""Falsch""-Screen",canvas.Screen,3_0_1_0_5_1_2,NA,NA,skipped,NA,297052.5,NA,NA,297046.4,297052.69999999,2024-06-15T13:37:20Z,297063,NULL,Begegnung,kukutana,s,mmasihiya,mpiganaji,husiano,NA,sdfdsf,NA,1,NA,NA,NA,NA,NA,NA,NA,NA,NA,NA,NA,NA,NA,NA,NA,NA,NA,NA,NA
09626,shallow,flow.Sequence,3_0_1_0_5_1,NA,NA,completion,22652.8,274379.30000001,274377,274393.6,297046.4,297052.69999999,2024-06-15T13:37:20Z,297063,NULL,Begegnung,kukutana,s,mmasihiya,mpiganaji,husiano,NA,sdfdsf,NA,1,NA,NA,NA,NA,NA,NA,NA,NA,NA,NA,NA,NA,NA,NA,NA,NA,NA,NA,NA
09626,task,flow.Sequence,3_0_1_0_5,NA,NA,completion,22652.8,274379,274377,274393.6,297046.4,297052.80000001,2024-06-15T13:37:20Z,297063,NULL,Begegnung,kukutana,s,mmasihiya,mpiganaji,husiano,NA,sdfdsf,NA,1,NA,NA,NA,NA,NA,NA,NA,NA,NA,NA,NA,NA,NA,NA,NA,NA,NA,NA,NA
09626,deep,flow.Sequence,3_0_1_0_6_0,NA,NA,skipped,NA,297052.80000001,NA,NA,297046.4,297052.80000001,2024-06-15T13:37:20Z,297063,NULL,Genehmigung,idhini,s,mwanamke,itikadi,fedheha,NA,sdfdsf,NA,1,NA,NA,NA,NA,NA,NA,NA,NA,NA,NA,NA,NA,NA,NA,NA,NA,NA,NA,NA
09626,Shallow Question,html.Page,3_0_1_0_6_1_0,NA,NA,form submission,17519.699999988,297052.80000001,297046.4,297063,314582.69999999,314582.89999998,2024-06-15T13:37:38Z,314589.664,NULL,Genehmigung,idhini,s,mwanamke,itikadi,fedheha,idhini,NA,NA,1,NA,NA,NA,NA,NA,NA,NA,NA,NA,NA,NA,NA,NA,NA,NA,NA,NA,NA,NA
09626,"""Richtig""-Screen",canvas.Screen,3_0_1_0_6_1_1,NA,NA,timeout,4992.836,314585.89999998,314589.664,314589.664,319565.9,319566.89999998,2024-06-15T13:37:43Z,319582.5,NULL,Genehmigung,idhini,s,mwanamke,itikadi,fedheha,NA,sdfdsf,1,1,NA,NA,NA,NA,NA,NA,NA,NA,NA,NA,NA,NA,NA,NA,NA,NA,NA,NA,NA
09626,"""Falsch""-Screen",canvas.Screen,3_0_1_0_6_1_2,NA,NA,skipped,NA,319571.5,NA,NA,319565.9,319571.59999996,2024-06-15T13:37:43Z,319582.5,NULL,Genehmigung,idhini,s,mwanamke,itikadi,fedheha,NA,sdfdsf,NA,1,NA,NA,NA,NA,NA,NA,NA,NA,NA,NA,NA,NA,NA,NA,NA,NA,NA,NA,NA
09626,shallow,flow.Sequence,3_0_1_0_6_1,NA,NA,completion,22502.9,297052.80000001,297046.4,297063,319565.9,319571.69999999,2024-06-15T13:37:43Z,319582.5,NULL,Genehmigung,idhini,s,mwanamke,itikadi,fedheha,NA,sdfdsf,NA,1,NA,NA,NA,NA,NA,NA,NA,NA,NA,NA,NA,NA,NA,NA,NA,NA,NA,NA,NA
09626,task,flow.Sequence,3_0_1_0_6,NA,NA,completion,22502.9,297052.80000001,297046.4,297063,319565.9,319571.69999999,2024-06-15T13:37:43Z,319582.5,NULL,Genehmigung,idhini,s,mwanamke,itikadi,fedheha,NA,sdfdsf,NA,1,NA,NA,NA,NA,NA,NA,NA,NA,NA,NA,NA,NA,NA,NA,NA,NA,NA,NA,NA
09626,Deep Question,html.Page,3_0_1_0_7_0_0,NA,NA,form submission,10107.899999976,319571.80000001,319565.9,319582.5,329690.39999998,329690.59999996,2024-06-15T13:37:53Z,329692.6,NULL,Aufstand,ugomaji,d,NA,NA,NA,aufstand,NA,NA,1,NA,NA,NA,NA,NA,NA,NA,NA,NA,NA,NA,NA,NA,NA,NA,NA,NA,NA,NA
09626,"""Richtig""-Screen",canvas.Screen,3_0_1_0_7_0_1,NA,NA,skipped,NA,329693.80000001,NA,NA,329690.39999998,329693.89999998,2024-06-15T13:37:53Z,329692.6,NULL,Aufstand,ugomaji,d,NA,NA,NA,NA,sdfdsf,NA,1,NA,NA,NA,NA,NA,NA,NA,NA,NA,NA,NA,NA,NA,NA,NA,NA,NA,NA,NA
09626,"""Falsch""-Screen",canvas.Screen,3_0_1_0_7_0_2,NA,NA,timeout,4997.5,329694.5,329688.58,329692.6,334673.2,334674.09999996,2024-06-15T13:37:58Z,334690.1,NULL,Aufstand,ugomaji,d,NA,NA,NA,NA,sdfdsf,0,1,NA,NA,NA,NA,NA,NA,NA,NA,NA,NA,NA,NA,NA,NA,NA,NA,NA,NA,NA
09626,deep,flow.Sequence,3_0_1_0_7_0,NA,NA,completion,15090.7,319571.69999999,319565.9,319582.5,334673.2,334674.5,2024-06-15T13:37:58Z,334690.1,NULL,Aufstand,ugomaji,d,NA,NA,NA,NA,sdfdsf,NA,1,NA,NA,NA,NA,NA,NA,NA,NA,NA,NA,NA,NA,NA,NA,NA,NA,NA,NA,NA
09626,shallow,flow.Sequence,3_0_1_0_7_1,NA,NA,skipped,NA,334674.59999996,NA,NA,334673.2,334674.69999999,2024-06-15T13:37:58Z,334690.1,NULL,Aufstand,ugomaji,d,NA,NA,NA,NA,sdfdsf,NA,1,NA,NA,NA,NA,NA,NA,NA,NA,NA,NA,NA,NA,NA,NA,NA,NA,NA,NA,NA
09626,task,flow.Sequence,3_0_1_0_7,NA,NA,completion,15090.7,319571.69999999,319565.9,319582.5,334673.2,334674.89999998,2024-06-15T13:37:58Z,334690.1,NULL,Aufstand,ugomaji,d,NA,NA,NA,NA,sdfdsf,NA,1,NA,NA,NA,NA,NA,NA,NA,NA,NA,NA,NA,NA,NA,NA,NA,NA,NA,NA,NA
09626,block,flow.Loop,3_0_1_0,NA,NA,completion,158769.5,175873.19999999,175887.1,175903.7,334673.2,334675.09999996,2024-06-15T13:37:58Z,334690.1,NULL,NA,NA,NA,NA,NA,NA,NA,sdfdsf,NA,1,NA,NA,NA,NA,NA,NA,NA,NA,NA,NA,NA,NA,NA,NA,NA,NA,NA,NA,NA
09626,weiter,canvas.Screen,3_0_1_1,sdf,keypress(Space),response,1417.2000000119,334675.19999999,334673.2,334690.1,336107.30000001,336108.09999996,2024-06-15T13:37:59Z,336155.9,NULL,NA,NA,NA,NA,NA,NA,NA,sdfdsf,NA,1,NA,NA,NA,NA,NA,NA,NA,NA,NA,NA,NA,NA,NA,NA,NA,NA,NA,NA,NA
09626,check continue,flow.Sequence,3_0_1,NA,NA,completion,160203.60000001,175873.09999996,175887.1,175903.7,336107.30000001,336108.39999998,2024-06-15T13:37:59Z,336155.9,NULL,NA,NA,NA,NA,NA,NA,NA,sdfdsf,NA,1,NA,NA,NA,NA,NA,NA,NA,NA,NA,NA,NA,NA,NA,NA,NA,NA,NA,NA,NA
09626,deep,flow.Sequence,3_0_2_0_0_0,NA,NA,skipped,NA,336137.5,NA,NA,336107.30000001,336137.59999996,2024-06-15T13:37:59Z,336155.9,NULL,Genehmigung,idhini,s,mwanamke,itikadi,fedheha,NA,sdf,NA,2,NA,NA,NA,NA,NA,NA,NA,NA,NA,NA,NA,NA,NA,NA,NA,NA,NA,NA,NA
09626,Shallow Question,html.Page,3_0_2_0_0_1_0,NA,NA,form submission,2642.2999999881,336137.69999999,336129.3,336155.9,338798.19999999,338798.39999998,2024-06-15T13:38:02Z,338804,NULL,Genehmigung,idhini,s,mwanamke,itikadi,fedheha,idhini,NA,NA,2,NA,NA,NA,NA,NA,NA,NA,NA,NA,NA,NA,NA,NA,NA,NA,NA,NA,NA,NA
09626,"""Richtig""-Screen",canvas.Screen,3_0_2_0_0_1_1,NA,NA,timeout,4997.1,338799.30000001,338788.292,338804,343784.5,343786.80000001,2024-06-15T13:38:07Z,343801.1,NULL,Genehmigung,idhini,s,mwanamke,itikadi,fedheha,NA,sdf,1,2,NA,NA,NA,NA,NA,NA,NA,NA,NA,NA,NA,NA,NA,NA,NA,NA,NA,NA,NA
09626,"""Falsch""-Screen",canvas.Screen,3_0_2_0_0_1_2,NA,NA,skipped,NA,343791.89999998,NA,NA,343784.5,343792,2024-06-15T13:38:07Z,343801.1,NULL,Genehmigung,idhini,s,mwanamke,itikadi,fedheha,NA,sdf,NA,2,NA,NA,NA,NA,NA,NA,NA,NA,NA,NA,NA,NA,NA,NA,NA,NA,NA,NA,NA
09626,shallow,flow.Sequence,3_0_2_0_0_1,NA,NA,completion,7628.6,336137.69999999,336129.3,336155.9,343784.5,343792.19999999,2024-06-15T13:38:07Z,343801.1,NULL,Genehmigung,idhini,s,mwanamke,itikadi,fedheha,NA,sdf,NA,2,NA,NA,NA,NA,NA,NA,NA,NA,NA,NA,NA,NA,NA,NA,NA,NA,NA,NA,NA
09626,task,flow.Sequence,3_0_2_0_0,NA,NA,completion,7628.6,336137.5,336129.3,336155.9,343784.5,343792.19999999,2024-06-15T13:38:07Z,343801.1,NULL,Genehmigung,idhini,s,mwanamke,itikadi,fedheha,NA,sdf,NA,2,NA,NA,NA,NA,NA,NA,NA,NA,NA,NA,NA,NA,NA,NA,NA,NA,NA,NA,NA
09626,Deep Question,html.Page,3_0_2_0_1_0_0,NA,NA,form submission,8402.4999999643,343792.19999999,343784.5,343801.1,352203.59999996,352203.80000001,2024-06-15T13:38:15Z,352212.3,NULL,Integrität,uadilifu,d,NA,NA,NA,uadilifu,NA,NA,2,NA,NA,NA,NA,NA,NA,NA,NA,NA,NA,NA,NA,NA,NA,NA,NA,NA,NA,NA
09626,"""Richtig""-Screen",canvas.Screen,3_0_2_0_1_0_1,NA,NA,timeout,4997.3,352206.30000001,352195.9,352212.3,357192.7,357194.59999996,2024-06-15T13:38:20Z,357209.6,NULL,Integrität,uadilifu,d,NA,NA,NA,NA,sdf,1,2,NA,NA,NA,NA,NA,NA,NA,NA,NA,NA,NA,NA,NA,NA,NA,NA,NA,NA,NA
09626,"""Falsch""-Screen",canvas.Screen,3_0_2_0_1_0_2,NA,NA,skipped,NA,357199.5,NA,NA,357192.7,357199.5,2024-06-15T13:38:20Z,357209.6,NULL,Integrität,uadilifu,d,NA,NA,NA,NA,sdf,NA,2,NA,NA,NA,NA,NA,NA,NA,NA,NA,NA,NA,NA,NA,NA,NA,NA,NA,NA,NA
09626,deep,flow.Sequence,3_0_2_0_1_0,NA,NA,completion,13391.6,343792.19999999,343784.5,343801.1,357192.7,357199.69999999,2024-06-15T13:38:20Z,357209.6,NULL,Integrität,uadilifu,d,NA,NA,NA,NA,sdf,NA,2,NA,NA,NA,NA,NA,NA,NA,NA,NA,NA,NA,NA,NA,NA,NA,NA,NA,NA,NA
09626,shallow,flow.Sequence,3_0_2_0_1_1,NA,NA,skipped,NA,357199.69999999,NA,NA,357192.7,357199.69999999,2024-06-15T13:38:20Z,357209.6,NULL,Integrität,uadilifu,d,NA,NA,NA,NA,sdf,NA,2,NA,NA,NA,NA,NA,NA,NA,NA,NA,NA,NA,NA,NA,NA,NA,NA,NA,NA,NA
09626,task,flow.Sequence,3_0_2_0_1,NA,NA,completion,13391.6,343792.19999999,343784.5,343801.1,357192.7,357199.80000001,2024-06-15T13:38:20Z,357209.6,NULL,Integrität,uadilifu,d,NA,NA,NA,NA,sdf,NA,2,NA,NA,NA,NA,NA,NA,NA,NA,NA,NA,NA,NA,NA,NA,NA,NA,NA,NA,NA
09626,Deep Question,html.Page,3_0_2_0_2_0_0,NA,NA,form submission,8310.4,357199.89999998,357192.7,357209.6,365520,365520.30000001,2024-06-15T13:38:29Z,365520.7,NULL,Fleisch,mshakiki,d,NA,NA,NA,mshakiki,NA,NA,2,NA,NA,NA,NA,NA,NA,NA,NA,NA,NA,NA,NA,NA,NA,NA,NA,NA,NA,NA
09626,"""Richtig""-Screen",canvas.Screen,3_0_2_0_2_0_1,NA,NA,timeout,4997.4,365523.30000001,365507.876,365520.7,370501.3,370502.39999998,2024-06-15T13:38:34Z,370518.1,NULL,Fleisch,mshakiki,d,NA,NA,NA,NA,sdf,1,2,NA,NA,NA,NA,NA,NA,NA,NA,NA,NA,NA,NA,NA,NA,NA,NA,NA,NA,NA
09626,"""Falsch""-Screen",canvas.Screen,3_0_2_0_2_0_2,NA,NA,skipped,NA,370507.69999999,NA,NA,370501.3,370507.69999999,2024-06-15T13:38:34Z,370518.1,NULL,Fleisch,mshakiki,d,NA,NA,NA,NA,sdf,NA,2,NA,NA,NA,NA,NA,NA,NA,NA,NA,NA,NA,NA,NA,NA,NA,NA,NA,NA,NA
09626,deep,flow.Sequence,3_0_2_0_2_0,NA,NA,completion,13291.7,357199.89999998,357192.7,357209.6,370501.3,370507.89999998,2024-06-15T13:38:34Z,370518.1,NULL,Fleisch,mshakiki,d,NA,NA,NA,NA,sdf,NA,2,NA,NA,NA,NA,NA,NA,NA,NA,NA,NA,NA,NA,NA,NA,NA,NA,NA,NA,NA
09626,shallow,flow.Sequence,3_0_2_0_2_1,NA,NA,skipped,NA,370507.89999998,NA,NA,370501.3,370507.89999998,2024-06-15T13:38:34Z,370518.1,NULL,Fleisch,mshakiki,d,NA,NA,NA,NA,sdf,NA,2,NA,NA,NA,NA,NA,NA,NA,NA,NA,NA,NA,NA,NA,NA,NA,NA,NA,NA,NA
09626,task,flow.Sequence,3_0_2_0_2,NA,NA,completion,13291.7,357199.89999998,357192.7,357209.6,370501.3,370508,2024-06-15T13:38:34Z,370518.1,NULL,Fleisch,mshakiki,d,NA,NA,NA,NA,sdf,NA,2,NA,NA,NA,NA,NA,NA,NA,NA,NA,NA,NA,NA,NA,NA,NA,NA,NA,NA,NA
09626,deep,flow.Sequence,3_0_2_0_3_0,NA,NA,skipped,NA,370508,NA,NA,370501.3,370508,2024-06-15T13:38:34Z,370518.1,NULL,Verzögerung,kuchelewa,s,mwakilishi,mwanauchumi,jaribio,NA,sdf,NA,2,NA,NA,NA,NA,NA,NA,NA,NA,NA,NA,NA,NA,NA,NA,NA,NA,NA,NA,NA
09626,Shallow Question,html.Page,3_0_2_0_3_1_0,NA,NA,form submission,6513.7999999762,370508.09999996,370501.3,370518.1,377031.89999998,377032.09999996,2024-06-15T13:38:40Z,377047.6,NULL,Verzögerung,kuchelewa,s,mwakilishi,mwanauchumi,jaribio,kuchelewa,NA,NA,2,NA,NA,NA,NA,NA,NA,NA,NA,NA,NA,NA,NA,NA,NA,NA,NA,NA,NA,NA
09626,"""Richtig""-Screen",canvas.Screen,3_0_2_0_3_1_1,NA,NA,timeout,4996.8,377035,377032.242,377047.6,382027.5,382028.5,2024-06-15T13:38:45Z,382044.4,NULL,Verzögerung,kuchelewa,s,mwakilishi,mwanauchumi,jaribio,NA,sdf,1,2,NA,NA,NA,NA,NA,NA,NA,NA,NA,NA,NA,NA,NA,NA,NA,NA,NA,NA,NA
09626,"""Falsch""-Screen",canvas.Screen,3_0_2_0_3_1_2,NA,NA,skipped,NA,382033.59999996,NA,NA,382027.5,382033.69999999,2024-06-15T13:38:45Z,382044.4,NULL,Verzögerung,kuchelewa,s,mwakilishi,mwanauchumi,jaribio,NA,sdf,NA,2,NA,NA,NA,NA,NA,NA,NA,NA,NA,NA,NA,NA,NA,NA,NA,NA,NA,NA,NA
09626,shallow,flow.Sequence,3_0_2_0_3_1,NA,NA,completion,11509.4,370508.09999996,370501.3,370518.1,382027.5,382033.89999998,2024-06-15T13:38:45Z,382044.4,NULL,Verzögerung,kuchelewa,s,mwakilishi,mwanauchumi,jaribio,NA,sdf,NA,2,NA,NA,NA,NA,NA,NA,NA,NA,NA,NA,NA,NA,NA,NA,NA,NA,NA,NA,NA
09626,task,flow.Sequence,3_0_2_0_3,NA,NA,completion,11509.4,370508,370501.3,370518.1,382027.5,382033.89999998,2024-06-15T13:38:45Z,382044.4,NULL,Verzögerung,kuchelewa,s,mwakilishi,mwanauchumi,jaribio,NA,sdf,NA,2,NA,NA,NA,NA,NA,NA,NA,NA,NA,NA,NA,NA,NA,NA,NA,NA,NA,NA,NA
09626,deep,flow.Sequence,3_0_2_0_4_0,NA,NA,skipped,NA,382033.89999998,NA,NA,382027.5,382033.89999998,2024-06-15T13:38:45Z,382044.4,NULL,Kultur,utamaduni,s,shetani,gerezani,mazingira,NA,sdf,NA,2,NA,NA,NA,NA,NA,NA,NA,NA,NA,NA,NA,NA,NA,NA,NA,NA,NA,NA,NA
09626,Shallow Question,html.Page,3_0_2_0_4_1_0,NA,NA,form submission,8289.9999999761,382034,382027.5,382044.4,390334.39999998,390334.59999996,2024-06-15T13:38:53Z,390338.9,NULL,Kultur,utamaduni,s,shetani,gerezani,mazingira,utamaduni,NA,NA,2,NA,NA,NA,NA,NA,NA,NA,NA,NA,NA,NA,NA,NA,NA,NA,NA,NA,NA,NA
09626,"""Richtig""-Screen",canvas.Screen,3_0_2_0_4_1_1,NA,NA,timeout,4997.6,390337.80000001,390328.558,390338.9,395319.8,395320.69999999,2024-06-15T13:38:58Z,395336.5,NULL,Kultur,utamaduni,s,shetani,gerezani,mazingira,NA,sdf,1,2,NA,NA,NA,NA,NA,NA,NA,NA,NA,NA,NA,NA,NA,NA,NA,NA,NA,NA,NA
09626,"""Falsch""-Screen",canvas.Screen,3_0_2_0_4_1_2,NA,NA,skipped,NA,395326.09999996,NA,NA,395319.8,395326.19999999,2024-06-15T13:38:58Z,395336.5,NULL,Kultur,utamaduni,s,shetani,gerezani,mazingira,NA,sdf,NA,2,NA,NA,NA,NA,NA,NA,NA,NA,NA,NA,NA,NA,NA,NA,NA,NA,NA,NA,NA
09626,shallow,flow.Sequence,3_0_2_0_4_1,NA,NA,completion,13275.4,382033.89999998,382027.5,382044.4,395319.8,395326.19999999,2024-06-15T13:38:58Z,395336.5,NULL,Kultur,utamaduni,s,shetani,gerezani,mazingira,NA,sdf,NA,2,NA,NA,NA,NA,NA,NA,NA,NA,NA,NA,NA,NA,NA,NA,NA,NA,NA,NA,NA
09626,task,flow.Sequence,3_0_2_0_4,NA,NA,completion,13275.4,382033.89999998,382027.5,382044.4,395319.8,395326.30000001,2024-06-15T13:38:58Z,395336.5,NULL,Kultur,utamaduni,s,shetani,gerezani,mazingira,NA,sdf,NA,2,NA,NA,NA,NA,NA,NA,NA,NA,NA,NA,NA,NA,NA,NA,NA,NA,NA,NA,NA
09626,Deep Question,html.Page,3_0_2_0_5_0_0,NA,NA,form submission,8057.3000000119,395326.30000001,395319.8,395336.5,403393.80000001,403394.09999996,2024-06-15T13:39:06Z,403397.6,NULL,Prüfung,mtihani,d,NA,NA,NA,mtihani,NA,NA,2,NA,NA,NA,NA,NA,NA,NA,NA,NA,NA,NA,NA,NA,NA,NA,NA,NA,NA,NA
09626,"""Richtig""-Screen",canvas.Screen,3_0_2_0_5_0_1,NA,NA,timeout,4997.4,403396.30000001,403383.928,403397.6,408377.9,408378.89999998,2024-06-15T13:39:11Z,408395,NULL,Prüfung,mtihani,d,NA,NA,NA,NA,sdf,1,2,NA,NA,NA,NA,NA,NA,NA,NA,NA,NA,NA,NA,NA,NA,NA,NA,NA,NA,NA
09626,"""Falsch""-Screen",canvas.Screen,3_0_2_0_5_0_2,NA,NA,skipped,NA,408383.89999998,NA,NA,408377.9,408384.09999996,2024-06-15T13:39:11Z,408395,NULL,Prüfung,mtihani,d,NA,NA,NA,NA,sdf,NA,2,NA,NA,NA,NA,NA,NA,NA,NA,NA,NA,NA,NA,NA,NA,NA,NA,NA,NA,NA
09626,deep,flow.Sequence,3_0_2_0_5_0,NA,NA,completion,13041.4,395326.30000001,395319.8,395336.5,408377.9,408384.09999996,2024-06-15T13:39:11Z,408395,NULL,Prüfung,mtihani,d,NA,NA,NA,NA,sdf,NA,2,NA,NA,NA,NA,NA,NA,NA,NA,NA,NA,NA,NA,NA,NA,NA,NA,NA,NA,NA
09626,shallow,flow.Sequence,3_0_2_0_5_1,NA,NA,skipped,NA,408384.09999996,NA,NA,408377.9,408384.19999999,2024-06-15T13:39:11Z,408395,NULL,Prüfung,mtihani,d,NA,NA,NA,NA,sdf,NA,2,NA,NA,NA,NA,NA,NA,NA,NA,NA,NA,NA,NA,NA,NA,NA,NA,NA,NA,NA
09626,task,flow.Sequence,3_0_2_0_5,NA,NA,completion,13041.4,395326.30000001,395319.8,395336.5,408377.9,408384.19999999,2024-06-15T13:39:11Z,408395,NULL,Prüfung,mtihani,d,NA,NA,NA,NA,sdf,NA,2,NA,NA,NA,NA,NA,NA,NA,NA,NA,NA,NA,NA,NA,NA,NA,NA,NA,NA,NA
09626,deep,flow.Sequence,3_0_2_0_6_0,NA,NA,skipped,NA,408384.30000001,NA,NA,408377.9,408384.30000001,2024-06-15T13:39:11Z,408395,NULL,Begegnung,kukutana,s,mmasihiya,mpiganaji,husiano,NA,sdf,NA,2,NA,NA,NA,NA,NA,NA,NA,NA,NA,NA,NA,NA,NA,NA,NA,NA,NA,NA,NA
09626,Shallow Question,html.Page,3_0_2_0_6_1_0,NA,NA,form submission,5323.3000000119,408384.30000001,408377.9,408395,413718.30000001,413718.39999998,2024-06-15T13:39:17Z,413724.6,NULL,Begegnung,kukutana,s,mmasihiya,mpiganaji,husiano,kukutana,NA,NA,2,NA,NA,NA,NA,NA,NA,NA,NA,NA,NA,NA,NA,NA,NA,NA,NA,NA,NA,NA
09626,"""Richtig""-Screen",canvas.Screen,3_0_2_0_6_1_1,NA,NA,timeout,4997.3,413721.30000001,413711.4,413724.6,418704.9,418705.30000001,2024-06-15T13:39:22Z,418721.9,NULL,Begegnung,kukutana,s,mmasihiya,mpiganaji,husiano,NA,sdf,1,2,NA,NA,NA,NA,NA,NA,NA,NA,NA,NA,NA,NA,NA,NA,NA,NA,NA,NA,NA
09626,"""Falsch""-Screen",canvas.Screen,3_0_2_0_6_1_2,NA,NA,skipped,NA,418706.89999998,NA,NA,418704.9,418707,2024-06-15T13:39:22Z,418721.9,NULL,Begegnung,kukutana,s,mmasihiya,mpiganaji,husiano,NA,sdf,NA,2,NA,NA,NA,NA,NA,NA,NA,NA,NA,NA,NA,NA,NA,NA,NA,NA,NA,NA,NA
09626,shallow,flow.Sequence,3_0_2_0_6_1,NA,NA,completion,10309.9,408384.30000001,408377.9,408395,418704.9,418707.19999999,2024-06-15T13:39:22Z,418721.9,NULL,Begegnung,kukutana,s,mmasihiya,mpiganaji,husiano,NA,sdf,NA,2,NA,NA,NA,NA,NA,NA,NA,NA,NA,NA,NA,NA,NA,NA,NA,NA,NA,NA,NA
09626,task,flow.Sequence,3_0_2_0_6,NA,NA,completion,10309.9,408384.30000001,408377.9,408395,418704.9,418707.19999999,2024-06-15T13:39:22Z,418721.9,NULL,Begegnung,kukutana,s,mmasihiya,mpiganaji,husiano,NA,sdf,NA,2,NA,NA,NA,NA,NA,NA,NA,NA,NA,NA,NA,NA,NA,NA,NA,NA,NA,NA,NA
09626,Deep Question,html.Page,3_0_2_0_7_0_0,NA,NA,form submission,5230.4000000119,418707.19999999,418704.9,418721.9,423952.30000001,423952.5,2024-06-15T13:39:27Z,423968.4,NULL,Aufstand,ugomaji,d,NA,NA,NA,aufstand,NA,NA,2,NA,NA,NA,NA,NA,NA,NA,NA,NA,NA,NA,NA,NA,NA,NA,NA,NA,NA,NA
09626,"""Richtig""-Screen",canvas.Screen,3_0_2_0_7_0_1,NA,NA,skipped,NA,423955.39999998,NA,NA,423952.30000001,423955.39999998,2024-06-15T13:39:27Z,423968.4,NULL,Aufstand,ugomaji,d,NA,NA,NA,NA,sdf,NA,2,NA,NA,NA,NA,NA,NA,NA,NA,NA,NA,NA,NA,NA,NA,NA,NA,NA,NA,NA
09626,"""Falsch""-Screen",canvas.Screen,3_0_2_0_7_0_2,NA,NA,timeout,4997.4,423956.19999999,423954.608,423968.4,428949.2,428950.09999996,2024-06-15T13:39:32Z,428965.8,NULL,Aufstand,ugomaji,d,NA,NA,NA,NA,sdf,0,2,NA,NA,NA,NA,NA,NA,NA,NA,NA,NA,NA,NA,NA,NA,NA,NA,NA,NA,NA
09626,deep,flow.Sequence,3_0_2_0_7_0,NA,NA,completion,10227.3,418707.19999999,418704.9,418721.9,428949.2,428950.5,2024-06-15T13:39:32Z,428965.8,NULL,Aufstand,ugomaji,d,NA,NA,NA,NA,sdf,NA,2,NA,NA,NA,NA,NA,NA,NA,NA,NA,NA,NA,NA,NA,NA,NA,NA,NA,NA,NA
09626,shallow,flow.Sequence,3_0_2_0_7_1,NA,NA,skipped,NA,428950.59999996,NA,NA,428949.2,428950.69999999,2024-06-15T13:39:32Z,428965.8,NULL,Aufstand,ugomaji,d,NA,NA,NA,NA,sdf,NA,2,NA,NA,NA,NA,NA,NA,NA,NA,NA,NA,NA,NA,NA,NA,NA,NA,NA,NA,NA
09626,task,flow.Sequence,3_0_2_0_7,NA,NA,completion,10227.3,418707.19999999,418704.9,418721.9,428949.2,428950.89999998,2024-06-15T13:39:32Z,428965.8,NULL,Aufstand,ugomaji,d,NA,NA,NA,NA,sdf,NA,2,NA,NA,NA,NA,NA,NA,NA,NA,NA,NA,NA,NA,NA,NA,NA,NA,NA,NA,NA
09626,block,flow.Loop,3_0_2_0,NA,NA,completion,92793.3,336137.5,336129.3,336155.9,428949.2,428951.09999996,2024-06-15T13:39:32Z,428965.8,NULL,NA,NA,NA,NA,NA,NA,NA,sdf,NA,2,NA,NA,NA,NA,NA,NA,NA,NA,NA,NA,NA,NA,NA,NA,NA,NA,NA,NA,NA
09626,weiter,canvas.Screen,3_0_2_1,sdf,keypress(Space),response,1207.5000000119,428951.19999999,428949.2,428965.8,430173.30000001,430174.09999996,2024-06-15T13:39:33Z,430514.4,NULL,NA,NA,NA,NA,NA,NA,NA,sdf,NA,2,NA,NA,NA,NA,NA,NA,NA,NA,NA,NA,NA,NA,NA,NA,NA,NA,NA,NA,NA
09626,check continue,flow.Sequence,3_0_2,NA,NA,completion,94017.400000012,336137.5,336129.3,336155.9,430173.30000001,430174.39999998,2024-06-15T13:39:33Z,430514.4,NULL,NA,NA,NA,NA,NA,NA,NA,sdf,NA,2,NA,NA,NA,NA,NA,NA,NA,NA,NA,NA,NA,NA,NA,NA,NA,NA,NA,NA,NA
09626,check continue,flow.Sequence,3_0_3,NA,NA,skipped,NA,430193.5,NA,NA,430173.30000001,430193.5,2024-06-15T13:39:33Z,430514.4,NULL,NA,NA,NA,NA,NA,NA,NA,qt,NA,3,NA,NA,NA,NA,NA,NA,NA,NA,NA,NA,NA,NA,NA,NA,NA,NA,NA,NA,NA
09626,check continue,flow.Sequence,3_0_4,NA,NA,skipped,NA,430212.39999998,NA,NA,430173.30000001,430212.59999996,2024-06-15T13:39:33Z,430514.4,NULL,NA,NA,NA,NA,NA,NA,NA,sd,NA,4,NA,NA,NA,NA,NA,NA,NA,NA,NA,NA,NA,NA,NA,NA,NA,NA,NA,NA,NA
09626,check continue,flow.Sequence,3_0_5,NA,NA,skipped,NA,430226.19999999,NA,NA,430173.30000001,430226.19999999,2024-06-15T13:39:33Z,430514.4,NULL,NA,NA,NA,NA,NA,NA,NA,sdf,NA,5,NA,NA,NA,NA,NA,NA,NA,NA,NA,NA,NA,NA,NA,NA,NA,NA,NA,NA,NA
09626,check continue,flow.Sequence,3_0_6,NA,NA,skipped,NA,430239.30000001,NA,NA,430173.30000001,430239.39999998,2024-06-15T13:39:33Z,430514.4,NULL,NA,NA,NA,NA,NA,NA,NA,dfs,NA,6,NA,NA,NA,NA,NA,NA,NA,NA,NA,NA,NA,NA,NA,NA,NA,NA,NA,NA,NA
09626,check continue,flow.Sequence,3_0_7,NA,NA,skipped,NA,430252.5,NA,NA,430173.30000001,430252.69999999,2024-06-15T13:39:33Z,430514.4,NULL,NA,NA,NA,NA,NA,NA,NA,df,NA,7,NA,NA,NA,NA,NA,NA,NA,NA,NA,NA,NA,NA,NA,NA,NA,NA,NA,NA,NA
09626,check continue,flow.Sequence,3_0_8,NA,NA,skipped,NA,430266.80000001,NA,NA,430173.30000001,430266.89999998,2024-06-15T13:39:33Z,430514.4,NULL,NA,NA,NA,NA,NA,NA,NA,dfs,NA,8,NA,NA,NA,NA,NA,NA,NA,NA,NA,NA,NA,NA,NA,NA,NA,NA,NA,NA,NA
09626,check continue,flow.Sequence,3_0_9,NA,NA,skipped,NA,430280.09999996,NA,NA,430173.30000001,430280.09999996,2024-06-15T13:39:33Z,430514.4,NULL,NA,NA,NA,NA,NA,NA,NA,dsf,NA,9,NA,NA,NA,NA,NA,NA,NA,NA,NA,NA,NA,NA,NA,NA,NA,NA,NA,NA,NA
09626,check continue,flow.Sequence,3_0_10,NA,NA,skipped,NA,430293.19999999,NA,NA,430173.30000001,430293.30000001,2024-06-15T13:39:33Z,430514.4,NULL,NA,NA,NA,NA,NA,NA,NA,df,NA,10,NA,NA,NA,NA,NA,NA,NA,NA,NA,NA,NA,NA,NA,NA,NA,NA,NA,NA,NA
09626,check continue,flow.Sequence,3_0_11,NA,NA,skipped,NA,430304.5,NA,NA,430173.30000001,430304.5,2024-06-15T13:39:33Z,430514.4,NULL,NA,NA,NA,NA,NA,NA,NA,dfs,NA,11,NA,NA,NA,NA,NA,NA,NA,NA,NA,NA,NA,NA,NA,NA,NA,NA,NA,NA,NA
09626,check continue,flow.Sequence,3_0_12,NA,NA,skipped,NA,430316.59999996,NA,NA,430173.30000001,430316.59999996,2024-06-15T13:39:33Z,430514.4,NULL,NA,NA,NA,NA,NA,NA,NA,dsf,NA,12,NA,NA,NA,NA,NA,NA,NA,NA,NA,NA,NA,NA,NA,NA,NA,NA,NA,NA,NA
09626,check continue,flow.Sequence,3_0_13,NA,NA,skipped,NA,430328.39999998,NA,NA,430173.30000001,430328.5,2024-06-15T13:39:33Z,430514.4,NULL,NA,NA,NA,NA,NA,NA,NA,dsf,NA,13,NA,NA,NA,NA,NA,NA,NA,NA,NA,NA,NA,NA,NA,NA,NA,NA,NA,NA,NA
09626,check continue,flow.Sequence,3_0_14,NA,NA,skipped,NA,430340.59999996,NA,NA,430173.30000001,430340.69999999,2024-06-15T13:39:33Z,430514.4,NULL,NA,NA,NA,NA,NA,NA,NA,NA,NA,14,NA,NA,NA,NA,NA,NA,NA,NA,NA,NA,NA,NA,NA,NA,NA,NA,NA,NA,NA
09626,check continue,flow.Sequence,3_0_15,NA,NA,skipped,NA,430352,NA,NA,430173.30000001,430352,2024-06-15T13:39:33Z,430514.4,NULL,NA,NA,NA,NA,NA,NA,NA,NA,NA,15,NA,NA,NA,NA,NA,NA,NA,NA,NA,NA,NA,NA,NA,NA,NA,NA,NA,NA,NA
09626,check continue,flow.Sequence,3_0_16,NA,NA,skipped,NA,430362.5,NA,NA,430173.30000001,430362.59999996,2024-06-15T13:39:33Z,430514.4,NULL,NA,NA,NA,NA,NA,NA,NA,NA,NA,16,NA,NA,NA,NA,NA,NA,NA,NA,NA,NA,NA,NA,NA,NA,NA,NA,NA,NA,NA
09626,check continue,flow.Sequence,3_0_17,NA,NA,skipped,NA,430374.39999998,NA,NA,430173.30000001,430374.5,2024-06-15T13:39:33Z,430514.4,NULL,NA,NA,NA,NA,NA,NA,NA,NA,NA,17,NA,NA,NA,NA,NA,NA,NA,NA,NA,NA,NA,NA,NA,NA,NA,NA,NA,NA,NA
09626,check continue,flow.Sequence,3_0_18,NA,NA,skipped,NA,430386.30000001,NA,NA,430173.30000001,430386.39999998,2024-06-15T13:39:33Z,430514.4,NULL,NA,NA,NA,NA,NA,NA,NA,NA,NA,18,NA,NA,NA,NA,NA,NA,NA,NA,NA,NA,NA,NA,NA,NA,NA,NA,NA,NA,NA
09626,check continue,flow.Sequence,3_0_19,NA,NA,skipped,NA,430398,NA,NA,430173.30000001,430398.19999999,2024-06-15T13:39:33Z,430514.4,NULL,NA,NA,NA,NA,NA,NA,NA,NA,NA,19,NA,NA,NA,NA,NA,NA,NA,NA,NA,NA,NA,NA,NA,NA,NA,NA,NA,NA,NA
09626,check continue,flow.Sequence,3_0_20,NA,NA,skipped,NA,430410.39999998,NA,NA,430173.30000001,430410.5,2024-06-15T13:39:33Z,430514.4,NULL,NA,NA,NA,NA,NA,NA,NA,NA,NA,20,NA,NA,NA,NA,NA,NA,NA,NA,NA,NA,NA,NA,NA,NA,NA,NA,NA,NA,NA
09626,check continue,flow.Sequence,3_0_21,NA,NA,skipped,NA,430420.80000001,NA,NA,430173.30000001,430420.80000001,2024-06-15T13:39:33Z,430514.4,NULL,NA,NA,NA,NA,NA,NA,NA,NA,NA,21,NA,NA,NA,NA,NA,NA,NA,NA,NA,NA,NA,NA,NA,NA,NA,NA,NA,NA,NA
09626,check continue,flow.Sequence,3_0_22,NA,NA,skipped,NA,430432.39999998,NA,NA,430173.30000001,430432.39999998,2024-06-15T13:39:33Z,430514.4,NULL,NA,NA,NA,NA,NA,NA,NA,NA,NA,22,NA,NA,NA,NA,NA,NA,NA,NA,NA,NA,NA,NA,NA,NA,NA,NA,NA,NA,NA
09626,check continue,flow.Sequence,3_0_23,NA,NA,skipped,NA,430443.39999998,NA,NA,430173.30000001,430443.5,2024-06-15T13:39:33Z,430514.4,NULL,NA,NA,NA,NA,NA,NA,NA,NA,NA,23,NA,NA,NA,NA,NA,NA,NA,NA,NA,NA,NA,NA,NA,NA,NA,NA,NA,NA,NA
09626,check continue,flow.Sequence,3_0_24,NA,NA,skipped,NA,430455.30000001,NA,NA,430173.30000001,430455.39999998,2024-06-15T13:39:33Z,430514.4,NULL,NA,NA,NA,NA,NA,NA,NA,NA,NA,24,NA,NA,NA,NA,NA,NA,NA,NA,NA,NA,NA,NA,NA,NA,NA,NA,NA,NA,NA
09626,check continue,flow.Sequence,3_0_25,NA,NA,skipped,NA,430466,NA,NA,430173.30000001,430466,2024-06-15T13:39:33Z,430514.4,NULL,NA,NA,NA,NA,NA,NA,NA,NA,NA,25,NA,NA,NA,NA,NA,NA,NA,NA,NA,NA,NA,NA,NA,NA,NA,NA,NA,NA,NA
09626,check continue,flow.Sequence,3_0_26,NA,NA,skipped,NA,430477.59999996,NA,NA,430173.30000001,430477.59999996,2024-06-15T13:39:33Z,430514.4,NULL,NA,NA,NA,NA,NA,NA,NA,NA,NA,26,NA,NA,NA,NA,NA,NA,NA,NA,NA,NA,NA,NA,NA,NA,NA,NA,NA,NA,NA
09626,check continue,flow.Sequence,3_0_27,NA,NA,skipped,NA,430487.69999999,NA,NA,430173.30000001,430487.69999999,2024-06-15T13:39:33Z,430514.4,NULL,NA,NA,NA,NA,NA,NA,NA,NA,NA,27,NA,NA,NA,NA,NA,NA,NA,NA,NA,NA,NA,NA,NA,NA,NA,NA,NA,NA,NA
09626,check continue,flow.Sequence,3_0_28,NA,NA,skipped,NA,430498.39999998,NA,NA,430173.30000001,430498.39999998,2024-06-15T13:39:34Z,430514.4,NULL,NA,NA,NA,NA,NA,NA,NA,NA,NA,28,NA,NA,NA,NA,NA,NA,NA,NA,NA,NA,NA,NA,NA,NA,NA,NA,NA,NA,NA
09626,check continue,flow.Sequence,3_0_29,NA,NA,skipped,NA,430510.69999999,NA,NA,430173.30000001,430510.80000001,2024-06-15T13:39:34Z,430514.4,NULL,NA,NA,NA,NA,NA,NA,NA,NA,NA,29,NA,NA,NA,NA,NA,NA,NA,NA,NA,NA,NA,NA,NA,NA,NA,NA,NA,NA,NA
09626,until continue,flow.Loop,3_0,NA,NA,completion,380692.60000001,49457.399999976,49470.8,49480.7,430173.30000001,430510.89999998,2024-06-15T13:39:34Z,430514.4,NULL,NA,NA,NA,NA,NA,NA,NA,NA,NA,NA,NA,NA,NA,NA,NA,NA,NA,NA,NA,NA,NA,NA,NA,NA,NA,NA,NA,NA,NA
09626,block 1,flow.Sequence,3,NA,NA,completion,380692.60000001,49457.399999976,49470.8,49480.7,430173.30000001,430511,2024-06-15T13:39:34Z,430514.4,NULL,NA,NA,NA,NA,NA,NA,NA,NA,NA,NA,NA,NA,NA,NA,NA,NA,NA,NA,NA,NA,NA,NA,NA,NA,NA,NA,NA,NA,NA
09626,1.Part Over,canvas.Screen,4,NA,keypress(Space),response,3077.4999999761,430511,430505.9,430514.4,433591.89999998,433593,2024-06-15T13:39:37Z,433646.3,NULL,NA,NA,NA,NA,NA,NA,NA,NA,NA,NA,NA,NA,NA,NA,NA,NA,NA,NA,NA,NA,NA,NA,NA,NA,NA,NA,NA,NA,NA
09626,Deep Question,html.Page,5_0_0_0_0_0_0,NA,NA,form submission,12806.500000012,433633.30000001,433629.608,433646.3,446452.80000001,446453,2024-06-15T13:39:49Z,446454.7,NULL,Angreifer,mshambulizi,d,NA,NA,NA,angreifer,NA,NA,0,NA,NA,NA,NA,NA,NA,NA,NA,NA,NA,NA,NA,NA,NA,NA,NA,NA,NA,NA
09626,"""Richtig""-Screen",canvas.Screen,5_0_0_0_0_0_1,NA,NA,skipped,NA,446454.80000001,NA,NA,446452.80000001,446454.89999998,2024-06-15T13:39:49Z,446454.7,NULL,Angreifer,mshambulizi,d,NA,NA,NA,NA,sdf,NA,0,NA,NA,NA,NA,NA,NA,NA,NA,NA,NA,NA,NA,NA,NA,NA,NA,NA,NA,NA
09626,"""Falsch""-Screen",canvas.Screen,5_0_0_0_0_0_2,NA,NA,timeout,4997.4,446455.5,446446.306,446454.7,451435.3,451436.39999998,2024-06-15T13:39:54Z,451452.1,NULL,Angreifer,mshambulizi,d,NA,NA,NA,NA,sdf,0,0,NA,NA,NA,NA,NA,NA,NA,NA,NA,NA,NA,NA,NA,NA,NA,NA,NA,NA,NA
09626,deep,flow.Sequence,5_0_0_0_0_0,NA,NA,completion,17789,433633.30000001,433629.608,433646.3,451435.3,451436.89999998,2024-06-15T13:39:54Z,451452.1,NULL,Angreifer,mshambulizi,d,NA,NA,NA,NA,sdf,NA,0,NA,NA,NA,NA,NA,NA,NA,NA,NA,NA,NA,NA,NA,NA,NA,NA,NA,NA,NA
09626,shallow,flow.Sequence,5_0_0_0_0_1,NA,NA,skipped,NA,451437.09999996,NA,NA,451435.3,451437.19999999,2024-06-15T13:39:54Z,451452.1,NULL,Angreifer,mshambulizi,d,NA,NA,NA,NA,sdf,NA,0,NA,NA,NA,NA,NA,NA,NA,NA,NA,NA,NA,NA,NA,NA,NA,NA,NA,NA,NA
09626,task,flow.Sequence,5_0_0_0_0,NA,NA,completion,17789,433633.30000001,433629.608,433646.3,451435.3,451437.39999998,2024-06-15T13:39:54Z,451452.1,NULL,Angreifer,mshambulizi,d,NA,NA,NA,NA,sdf,NA,0,NA,NA,NA,NA,NA,NA,NA,NA,NA,NA,NA,NA,NA,NA,NA,NA,NA,NA,NA
09626,Deep Question,html.Page,5_0_0_0_1_0_0,NA,NA,form submission,17411.499999964,451437.59999996,451435.3,451452.1,468863.59999996,468863.80000001,2024-06-15T13:40:12Z,468874.2,NULL,Erneuerung,ukarabati,d,NA,NA,NA,erneuerung,NA,NA,0,NA,NA,NA,NA,NA,NA,NA,NA,NA,NA,NA,NA,NA,NA,NA,NA,NA,NA,NA
09626,"""Richtig""-Screen",canvas.Screen,5_0_0_0_1_0_1,NA,NA,skipped,NA,468867,NA,NA,468863.59999996,468867.09999996,2024-06-15T13:40:12Z,468874.2,NULL,Erneuerung,ukarabati,d,NA,NA,NA,NA,sdf,NA,0,NA,NA,NA,NA,NA,NA,NA,NA,NA,NA,NA,NA,NA,NA,NA,NA,NA,NA,NA
09626,"""Falsch""-Screen",canvas.Screen,5_0_0_0_1_0_2,NA,NA,timeout,4997.2,468867.89999998,468867.396,468874.2,473854.9,473857.30000001,2024-06-15T13:40:17Z,473871.4,NULL,Erneuerung,ukarabati,d,NA,NA,NA,NA,sdf,0,0,NA,NA,NA,NA,NA,NA,NA,NA,NA,NA,NA,NA,NA,NA,NA,NA,NA,NA,NA
09626,deep,flow.Sequence,5_0_0_0_1_0,NA,NA,completion,22402.8,451437.59999996,451435.3,451452.1,473854.9,473857.80000001,2024-06-15T13:40:17Z,473871.4,NULL,Erneuerung,ukarabati,d,NA,NA,NA,NA,sdf,NA,0,NA,NA,NA,NA,NA,NA,NA,NA,NA,NA,NA,NA,NA,NA,NA,NA,NA,NA,NA
09626,shallow,flow.Sequence,5_0_0_0_1_1,NA,NA,skipped,NA,473857.80000001,NA,NA,473854.9,473858,2024-06-15T13:40:17Z,473871.4,NULL,Erneuerung,ukarabati,d,NA,NA,NA,NA,sdf,NA,0,NA,NA,NA,NA,NA,NA,NA,NA,NA,NA,NA,NA,NA,NA,NA,NA,NA,NA,NA
09626,task,flow.Sequence,5_0_0_0_1,NA,NA,completion,22402.8,451437.5,451435.3,451452.1,473854.9,473858.19999999,2024-06-15T13:40:17Z,473871.4,NULL,Erneuerung,ukarabati,d,NA,NA,NA,NA,sdf,NA,0,NA,NA,NA,NA,NA,NA,NA,NA,NA,NA,NA,NA,NA,NA,NA,NA,NA,NA,NA
09626,Deep Question,html.Page,5_0_0_0_2_0_0,NA,NA,form submission,25878.999999976,473858.39999998,473854.9,473871.4,499750.39999998,499750.69999999,2024-06-15T13:40:43Z,499755.4,NULL,Sänger,mwimbaji,d,NA,NA,NA,sanger,NA,NA,0,NA,NA,NA,NA,NA,NA,NA,NA,NA,NA,NA,NA,NA,NA,NA,NA,NA,NA,NA
09626,"""Richtig""-Screen",canvas.Screen,5_0_0_0_2_0_1,NA,NA,skipped,NA,499753.80000001,NA,NA,499750.39999998,499753.89999998,2024-06-15T13:40:43Z,499755.4,NULL,Sänger,mwimbaji,d,NA,NA,NA,NA,sdf,NA,0,NA,NA,NA,NA,NA,NA,NA,NA,NA,NA,NA,NA,NA,NA,NA,NA,NA,NA,NA
09626,"""Falsch""-Screen",canvas.Screen,5_0_0_0_2_0_2,NA,NA,timeout,4997.4,499755,499746.488,499755.4,504736.1,504738.59999996,2024-06-15T13:40:48Z,504752.8,NULL,Sänger,mwimbaji,d,NA,NA,NA,NA,sdf,0,0,NA,NA,NA,NA,NA,NA,NA,NA,NA,NA,NA,NA,NA,NA,NA,NA,NA,NA,NA
09626,deep,flow.Sequence,5_0_0_0_2_0,NA,NA,completion,30864.7,473858.39999998,473854.9,473871.4,504736.1,504739,2024-06-15T13:40:48Z,504752.8,NULL,Sänger,mwimbaji,d,NA,NA,NA,NA,sdf,NA,0,NA,NA,NA,NA,NA,NA,NA,NA,NA,NA,NA,NA,NA,NA,NA,NA,NA,NA,NA
09626,shallow,flow.Sequence,5_0_0_0_2_1,NA,NA,skipped,NA,504739.30000001,NA,NA,504736.1,504739.39999998,2024-06-15T13:40:48Z,504752.8,NULL,Sänger,mwimbaji,d,NA,NA,NA,NA,sdf,NA,0,NA,NA,NA,NA,NA,NA,NA,NA,NA,NA,NA,NA,NA,NA,NA,NA,NA,NA,NA
09626,task,flow.Sequence,5_0_0_0_2,NA,NA,completion,30864.7,473858.30000001,473854.9,473871.4,504736.1,504739.59999996,2024-06-15T13:40:48Z,504752.8,NULL,Sänger,mwimbaji,d,NA,NA,NA,NA,sdf,NA,0,NA,NA,NA,NA,NA,NA,NA,NA,NA,NA,NA,NA,NA,NA,NA,NA,NA,NA,NA
09626,deep,flow.Sequence,5_0_0_0_3_0,NA,NA,skipped,NA,504739.80000001,NA,NA,504736.1,504739.89999998,2024-06-15T13:40:48Z,504752.8,NULL,Atmosphäre,angahewa,s,kuteseka,usahihi,kutoamini,NA,sdf,NA,0,NA,NA,NA,NA,NA,NA,NA,NA,NA,NA,NA,NA,NA,NA,NA,NA,NA,NA,NA
09626,Shallow Question,html.Page,5_0_0_0_3_1_0,NA,NA,form submission,17177.899999988,504740.09999996,504736.1,504752.8,521930.69999999,521931,2024-06-15T13:41:05Z,521942.5,NULL,Atmosphäre,angahewa,s,kuteseka,usahihi,kutoamini,kutoamini,NA,NA,0,NA,NA,NA,NA,NA,NA,NA,NA,NA,NA,NA,NA,NA,NA,NA,NA,NA,NA,NA
09626,"""Richtig""-Screen",canvas.Screen,5_0_0_0_3_1_1,NA,NA,skipped,NA,521934.09999996,NA,NA,521930.69999999,521934.19999999,2024-06-15T13:41:05Z,521942.5,NULL,Atmosphäre,angahewa,s,kuteseka,usahihi,kutoamini,NA,sdf,NA,0,NA,NA,NA,NA,NA,NA,NA,NA,NA,NA,NA,NA,NA,NA,NA,NA,NA,NA,NA
09626,"""Falsch""-Screen",canvas.Screen,5_0_0_0_3_1_2,NA,NA,timeout,4996.7,521935.09999996,521933.138,521942.5,526922.5,526924.30000001,2024-06-15T13:41:10Z,526939.2,NULL,Atmosphäre,angahewa,s,kuteseka,usahihi,kutoamini,NA,sdf,0,0,NA,NA,NA,NA,NA,NA,NA,NA,NA,NA,NA,NA,NA,NA,NA,NA,NA,NA,NA
09626,shallow,flow.Sequence,5_0_0_0_3_1,NA,NA,completion,22169.7,504740,504736.1,504752.8,526922.5,526924.5,2024-06-15T13:41:10Z,526939.2,NULL,Atmosphäre,angahewa,s,kuteseka,usahihi,kutoamini,NA,sdf,NA,0,NA,NA,NA,NA,NA,NA,NA,NA,NA,NA,NA,NA,NA,NA,NA,NA,NA,NA,NA
09626,task,flow.Sequence,5_0_0_0_3,NA,NA,completion,22169.7,504739.69999999,504736.1,504752.8,526922.5,526924.69999999006,2024-06-15T13:41:10Z,526939.2,NULL,Atmosphäre,angahewa,s,kuteseka,usahihi,kutoamini,NA,sdf,NA,0,NA,NA,NA,NA,NA,NA,NA,NA,NA,NA,NA,NA,NA,NA,NA,NA,NA,NA,NA
09626,deep,flow.Sequence,5_0_0_0_4_0,NA,NA,skipped,NA,526924.80000001,NA,NA,526922.5,526924.80000001,2024-06-15T13:41:10Z,526939.2,NULL,Abrechnung,uhasibu,s,kusahihisha,mpambano,mashambulizi,NA,sdf,NA,0,NA,NA,NA,NA,NA,NA,NA,NA,NA,NA,NA,NA,NA,NA,NA,NA,NA,NA,NA
09626,Shallow Question,html.Page,5_0_0_0_4_1_0,NA,NA,form submission,11116.8,526924.89999998,526922.5,526939.2,538056,538056.19999999006,2024-06-15T13:41:21Z,538065.3,NULL,Abrechnung,uhasibu,s,kusahihisha,mpambano,mashambulizi,uhasibu,NA,NA,0,NA,NA,NA,NA,NA,NA,NA,NA,NA,NA,NA,NA,NA,NA,NA,NA,NA,NA,NA
09626,"""Richtig""-Screen",canvas.Screen,5_0_0_0_4_1_1,NA,NA,timeout,4997.1,538059.30000000994,538049.438,538065.3,543046,543047,2024-06-15T13:41:26Z,543062.4,NULL,Abrechnung,uhasibu,s,kusahihisha,mpambano,mashambulizi,NA,sdf,1,0,NA,NA,NA,NA,NA,NA,NA,NA,NA,NA,NA,NA,NA,NA,NA,NA,NA,NA,NA
09626,"""Falsch""-Screen",canvas.Screen,5_0_0_0_4_1_2,NA,NA,skipped,NA,543052.19999999006,NA,NA,543046,543052.30000001,2024-06-15T13:41:26Z,543062.4,NULL,Abrechnung,uhasibu,s,kusahihisha,mpambano,mashambulizi,NA,sdf,NA,0,NA,NA,NA,NA,NA,NA,NA,NA,NA,NA,NA,NA,NA,NA,NA,NA,NA,NA,NA
09626,shallow,flow.Sequence,5_0_0_0_4_1,NA,NA,completion,16106.8,526924.89999998,526922.5,526939.2,543046,543052.39999998,2024-06-15T13:41:26Z,543062.4,NULL,Abrechnung,uhasibu,s,kusahihisha,mpambano,mashambulizi,NA,sdf,NA,0,NA,NA,NA,NA,NA,NA,NA,NA,NA,NA,NA,NA,NA,NA,NA,NA,NA,NA,NA
09626,task,flow.Sequence,5_0_0_0_4,NA,NA,completion,16106.8,526924.69999999006,526922.5,526939.2,543046,543052.39999998,2024-06-15T13:41:26Z,543062.4,NULL,Abrechnung,uhasibu,s,kusahihisha,mpambano,mashambulizi,NA,sdf,NA,0,NA,NA,NA,NA,NA,NA,NA,NA,NA,NA,NA,NA,NA,NA,NA,NA,NA,NA,NA
09626,deep,flow.Sequence,5_0_0_0_5_0,NA,NA,skipped,NA,543052.59999996,NA,NA,543046,543052.59999996,2024-06-15T13:41:26Z,543062.4,NULL,Flexibilität,kubadilika,s,enjini,usikilivu,hesabu,NA,sdf,NA,0,NA,NA,NA,NA,NA,NA,NA,NA,NA,NA,NA,NA,NA,NA,NA,NA,NA,NA,NA
09626,Shallow Question,html.Page,5_0_0_0_5_1_0,NA,NA,form submission,11490.199999964,543052.59999996,543046,543062.4,554552.59999996,554552.80000001,2024-06-15T13:41:38Z,554555.994,NULL,Flexibilität,kubadilika,s,enjini,usikilivu,hesabu,hesabu,NA,NA,0,NA,NA,NA,NA,NA,NA,NA,NA,NA,NA,NA,NA,NA,NA,NA,NA,NA,NA,NA
09626,"""Richtig""-Screen",canvas.Screen,5_0_0_0_5_1_1,NA,NA,skipped,NA,554555.80000001,NA,NA,554552.59999996,554556,2024-06-15T13:41:38Z,554555.994,NULL,Flexibilität,kubadilika,s,enjini,usikilivu,hesabu,NA,sdf,NA,0,NA,NA,NA,NA,NA,NA,NA,NA,NA,NA,NA,NA,NA,NA,NA,NA,NA,NA,NA
09626,"""Falsch""-Screen",canvas.Screen,5_0_0_0_5_1_2,NA,NA,timeout,4996.5060000001,554556.80000001,554555.994,554555.994,559535.9,559538.39999998,2024-06-15T13:41:43Z,559552.5,NULL,Flexibilität,kubadilika,s,enjini,usikilivu,hesabu,NA,sdf,0,0,NA,NA,NA,NA,NA,NA,NA,NA,NA,NA,NA,NA,NA,NA,NA,NA,NA,NA,NA
09626,shallow,flow.Sequence,5_0_0_0_5_1,NA,NA,completion,16473.5,543052.59999996,543046,543062.4,559535.9,559538.80000001,2024-06-15T13:41:43Z,559552.5,NULL,Flexibilität,kubadilika,s,enjini,usikilivu,hesabu,NA,sdf,NA,0,NA,NA,NA,NA,NA,NA,NA,NA,NA,NA,NA,NA,NA,NA,NA,NA,NA,NA,NA
09626,task,flow.Sequence,5_0_0_0_5,NA,NA,completion,16473.5,543052.59999996,543046,543062.4,559535.9,559539.09999996,2024-06-15T13:41:43Z,559552.5,NULL,Flexibilität,kubadilika,s,enjini,usikilivu,hesabu,NA,sdf,NA,0,NA,NA,NA,NA,NA,NA,NA,NA,NA,NA,NA,NA,NA,NA,NA,NA,NA,NA,NA
09626,deep,flow.Sequence,5_0_0_0_6_0,NA,NA,skipped,NA,559539.30000000994,NA,NA,559535.9,559539.5,2024-06-15T13:41:43Z,559552.5,NULL,Kanzler,diwani,s,rasilmali,mahitaji,maabudu,NA,sdf,NA,0,NA,NA,NA,NA,NA,NA,NA,NA,NA,NA,NA,NA,NA,NA,NA,NA,NA,NA,NA
09626,Shallow Question,html.Page,5_0_0_0_6_1_0,NA,NA,form submission,8410.5999999642,559539.59999996,559535.9,559552.5,567963.09999996,567963.30000001,2024-06-15T13:41:51Z,567964.83,NULL,Kanzler,diwani,s,rasilmali,mahitaji,maabudu,diwani,NA,NA,0,NA,NA,NA,NA,NA,NA,NA,NA,NA,NA,NA,NA,NA,NA,NA,NA,NA,NA,NA
09626,"""Richtig""-Screen",canvas.Screen,5_0_0_0_6_1_1,NA,NA,timeout,4996.4700000001,567966.39999998,567964.83,567964.83,572944.2,572945.30000000994,2024-06-15T13:41:56Z,572961.3,NULL,Kanzler,diwani,s,rasilmali,mahitaji,maabudu,NA,sdf,1,0,NA,NA,NA,NA,NA,NA,NA,NA,NA,NA,NA,NA,NA,NA,NA,NA,NA,NA,NA
09626,"""Falsch""-Screen",canvas.Screen,5_0_0_0_6_1_2,NA,NA,skipped,NA,572950.09999996,NA,NA,572944.2,572950.19999999006,2024-06-15T13:41:56Z,572961.3,NULL,Kanzler,diwani,s,rasilmali,mahitaji,maabudu,NA,sdf,NA,0,NA,NA,NA,NA,NA,NA,NA,NA,NA,NA,NA,NA,NA,NA,NA,NA,NA,NA,NA
09626,shallow,flow.Sequence,5_0_0_0_6_1,NA,NA,completion,13391.7,559539.59999996,559535.9,559552.5,572944.2,572950.30000000994,2024-06-15T13:41:56Z,572961.3,NULL,Kanzler,diwani,s,rasilmali,mahitaji,maabudu,NA,sdf,NA,0,NA,NA,NA,NA,NA,NA,NA,NA,NA,NA,NA,NA,NA,NA,NA,NA,NA,NA,NA
09626,task,flow.Sequence,5_0_0_0_6,NA,NA,completion,13391.7,559539.30000000994,559535.9,559552.5,572944.2,572950.30000000994,2024-06-15T13:41:56Z,572961.3,NULL,Kanzler,diwani,s,rasilmali,mahitaji,maabudu,NA,sdf,NA,0,NA,NA,NA,NA,NA,NA,NA,NA,NA,NA,NA,NA,NA,NA,NA,NA,NA,NA,NA
09626,Deep Question,html.Page,5_0_0_0_7_0_0,NA,NA,form submission,11448.399999988,572950.39999998,572944.2,572961.3,584409.69999999006,584409.89999998,2024-06-15T13:42:07Z,584437,NULL,Wechsel,ugeuzaji,d,NA,NA,NA,wechsel,NA,NA,0,NA,NA,NA,NA,NA,NA,NA,NA,NA,NA,NA,NA,NA,NA,NA,NA,NA,NA,NA
09626,"""Richtig""-Screen",canvas.Screen,5_0_0_0_7_0_1,NA,NA,skipped,NA,584412.89999998,NA,NA,584409.69999999006,584413.09999996,2024-06-15T13:42:07Z,584437,NULL,Wechsel,ugeuzaji,d,NA,NA,NA,NA,sdf,NA,0,NA,NA,NA,NA,NA,NA,NA,NA,NA,NA,NA,NA,NA,NA,NA,NA,NA,NA,NA
09626,"""Falsch""-Screen",canvas.Screen,5_0_0_0_7_0_2,NA,NA,timeout,4997,584413.69999999006,584420.4,584437,589417.8,589418.89999998,2024-06-15T13:42:12Z,589434,NULL,Wechsel,ugeuzaji,d,NA,NA,NA,NA,sdf,0,0,NA,NA,NA,NA,NA,NA,NA,NA,NA,NA,NA,NA,NA,NA,NA,NA,NA,NA,NA
09626,deep,flow.Sequence,5_0_0_0_7_0,NA,NA,completion,16456.5,572950.30000000994,572944.2,572961.3,589417.8,589419.30000001,2024-06-15T13:42:12Z,589434,NULL,Wechsel,ugeuzaji,d,NA,NA,NA,NA,sdf,NA,0,NA,NA,NA,NA,NA,NA,NA,NA,NA,NA,NA,NA,NA,NA,NA,NA,NA,NA,NA
09626,shallow,flow.Sequence,5_0_0_0_7_1,NA,NA,skipped,NA,589419.5,NA,NA,589417.8,589419.5,2024-06-15T13:42:12Z,589434,NULL,Wechsel,ugeuzaji,d,NA,NA,NA,NA,sdf,NA,0,NA,NA,NA,NA,NA,NA,NA,NA,NA,NA,NA,NA,NA,NA,NA,NA,NA,NA,NA
09626,task,flow.Sequence,5_0_0_0_7,NA,NA,completion,16456.5,572950.30000000994,572944.2,572961.3,589417.8,589419.80000001,2024-06-15T13:42:12Z,589434,NULL,Wechsel,ugeuzaji,d,NA,NA,NA,NA,sdf,NA,0,NA,NA,NA,NA,NA,NA,NA,NA,NA,NA,NA,NA,NA,NA,NA,NA,NA,NA,NA
09626,block,flow.Loop,5_0_0_0,NA,NA,completion,155771.5,433633.30000001,433629.608,433646.3,589417.8,589420,2024-06-15T13:42:12Z,589434,NULL,NA,NA,NA,NA,NA,NA,NA,sdf,NA,0,NA,NA,NA,NA,NA,NA,NA,NA,NA,NA,NA,NA,NA,NA,NA,NA,NA,NA,NA
09626,weiter,canvas.Screen,5_0_0_1,sdf,keypress(Space),response,1399.8000000119,589420.09999996,589417.8,589434,590833.80000001,590838.69999999006,2024-06-15T13:42:14Z,590867,NULL,NA,NA,NA,NA,NA,NA,NA,sdf,NA,0,NA,NA,NA,NA,NA,NA,NA,NA,NA,NA,NA,NA,NA,NA,NA,NA,NA,NA,NA
09626,check continue,flow.Sequence,5_0_0,NA,NA,completion,157187.50000001,433633.30000001,433629.608,433646.3,590833.80000001,590839,2024-06-15T13:42:14Z,590867,NULL,NA,NA,NA,NA,NA,NA,NA,sdf,NA,0,NA,NA,NA,NA,NA,NA,NA,NA,NA,NA,NA,NA,NA,NA,NA,NA,NA,NA,NA
09626,Deep Question,html.Page,5_0_1_0_0_0_0,NA,NA,form submission,12213.899999976,590855.39999998,590850.61,590867,603080.89999998,603081.09999996,2024-06-15T13:42:26Z,603092.2,NULL,Erneuerung,ukarabati,d,NA,NA,NA,erneuerung,NA,NA,1,NA,NA,NA,NA,NA,NA,NA,NA,NA,NA,NA,NA,NA,NA,NA,NA,NA,NA,NA
09626,"""Richtig""-Screen",canvas.Screen,5_0_1_0_0_0_1,NA,NA,skipped,NA,603084.39999998,NA,NA,603080.89999998,603084.59999996,2024-06-15T13:42:26Z,603092.2,NULL,Erneuerung,ukarabati,d,NA,NA,NA,NA,sdfdsf,NA,1,NA,NA,NA,NA,NA,NA,NA,NA,NA,NA,NA,NA,NA,NA,NA,NA,NA,NA,NA
09626,"""Falsch""-Screen",canvas.Screen,5_0_1_0_0_0_2,NA,NA,timeout,4997.5,603085.30000001,603080.86,603092.2,608072.8,608073.59999996,2024-06-15T13:42:31Z,608089.7,NULL,Erneuerung,ukarabati,d,NA,NA,NA,NA,sdfdsf,0,1,NA,NA,NA,NA,NA,NA,NA,NA,NA,NA,NA,NA,NA,NA,NA,NA,NA,NA,NA
09626,deep,flow.Sequence,5_0_1_0_0_0,NA,NA,completion,17205.8,590855.39999998,590850.61,590867,608072.8,608074,2024-06-15T13:42:31Z,608089.7,NULL,Erneuerung,ukarabati,d,NA,NA,NA,NA,sdfdsf,NA,1,NA,NA,NA,NA,NA,NA,NA,NA,NA,NA,NA,NA,NA,NA,NA,NA,NA,NA,NA
09626,shallow,flow.Sequence,5_0_1_0_0_1,NA,NA,skipped,NA,608074.19999999006,NA,NA,608072.8,608074.30000001,2024-06-15T13:42:31Z,608089.7,NULL,Erneuerung,ukarabati,d,NA,NA,NA,NA,sdfdsf,NA,1,NA,NA,NA,NA,NA,NA,NA,NA,NA,NA,NA,NA,NA,NA,NA,NA,NA,NA,NA
09626,task,flow.Sequence,5_0_1_0_0,NA,NA,completion,17205.8,590855.30000001,590850.61,590867,608072.8,608074.5,2024-06-15T13:42:31Z,608089.7,NULL,Erneuerung,ukarabati,d,NA,NA,NA,NA,sdfdsf,NA,1,NA,NA,NA,NA,NA,NA,NA,NA,NA,NA,NA,NA,NA,NA,NA,NA,NA,NA,NA
09626,deep,flow.Sequence,5_0_1_0_1_0,NA,NA,skipped,NA,608074.59999996,NA,NA,608072.8,608074.69999999006,2024-06-15T13:42:31Z,608089.7,NULL,Kanzler,diwani,s,rasilmali,mahitaji,maabudu,NA,sdfdsf,NA,1,NA,NA,NA,NA,NA,NA,NA,NA,NA,NA,NA,NA,NA,NA,NA,NA,NA,NA,NA
09626,Shallow Question,html.Page,5_0_1_0_1_1_0,NA,NA,form submission,4024.9999999881,608074.80000001,608072.8,608089.7,612114.69999999006,612114.89999998,2024-06-15T13:42:35Z,612120,NULL,Kanzler,diwani,s,rasilmali,mahitaji,maabudu,diwani,NA,NA,1,NA,NA,NA,NA,NA,NA,NA,NA,NA,NA,NA,NA,NA,NA,NA,NA,NA,NA,NA
09626,"""Richtig""-Screen",canvas.Screen,5_0_1_0_1_1_1,NA,NA,timeout,4997.6,612117.89999998,612106.968,612120,617100.9,617101.89999998,2024-06-15T13:42:40Z,617117.6,NULL,Kanzler,diwani,s,rasilmali,mahitaji,maabudu,NA,sdfdsf,1,1,NA,NA,NA,NA,NA,NA,NA,NA,NA,NA,NA,NA,NA,NA,NA,NA,NA,NA,NA
09626,"""Falsch""-Screen",canvas.Screen,5_0_1_0_1_1_2,NA,NA,skipped,NA,617107.19999999006,NA,NA,617100.9,617107.30000000994,2024-06-15T13:42:40Z,617117.6,NULL,Kanzler,diwani,s,rasilmali,mahitaji,maabudu,NA,sdfdsf,NA,1,NA,NA,NA,NA,NA,NA,NA,NA,NA,NA,NA,NA,NA,NA,NA,NA,NA,NA,NA
09626,shallow,flow.Sequence,5_0_1_0_1_1,NA,NA,completion,9011.2000000001,608074.80000001,608072.8,608089.7,617100.9,617107.39999998,2024-06-15T13:42:40Z,617117.6,NULL,Kanzler,diwani,s,rasilmali,mahitaji,maabudu,NA,sdfdsf,NA,1,NA,NA,NA,NA,NA,NA,NA,NA,NA,NA,NA,NA,NA,NA,NA,NA,NA,NA,NA
09626,task,flow.Sequence,5_0_1_0_1,NA,NA,completion,9011.2000000001,608074.59999996,608072.8,608089.7,617100.9,617107.5,2024-06-15T13:42:40Z,617117.6,NULL,Kanzler,diwani,s,rasilmali,mahitaji,maabudu,NA,sdfdsf,NA,1,NA,NA,NA,NA,NA,NA,NA,NA,NA,NA,NA,NA,NA,NA,NA,NA,NA,NA,NA
09626,deep,flow.Sequence,5_0_1_0_2_0,NA,NA,skipped,NA,617107.5,NA,NA,617100.9,617107.5,2024-06-15T13:42:40Z,617117.6,NULL,Atmosphäre,angahewa,s,kuteseka,usahihi,kutoamini,NA,sdfdsf,NA,1,NA,NA,NA,NA,NA,NA,NA,NA,NA,NA,NA,NA,NA,NA,NA,NA,NA,NA,NA
09626,Shallow Question,html.Page,5_0_1_0_2_1_0,NA,NA,form submission,16643.9,617107.5,617100.9,617117.6,633761.5,633761.69999999006,2024-06-15T13:42:57Z,633773.9,NULL,Atmosphäre,angahewa,s,kuteseka,usahihi,kutoamini,angahewa,NA,NA,1,NA,NA,NA,NA,NA,NA,NA,NA,NA,NA,NA,NA,NA,NA,NA,NA,NA,NA,NA
09626,"""Richtig""-Screen",canvas.Screen,5_0_1_0_2_1_1,NA,NA,timeout,4997,633764.69999999006,633758.876,633773.9,638753.9,638755,2024-06-15T13:43:02Z,638770.9,NULL,Atmosphäre,angahewa,s,kuteseka,usahihi,kutoamini,NA,sdfdsf,1,1,NA,NA,NA,NA,NA,NA,NA,NA,NA,NA,NA,NA,NA,NA,NA,NA,NA,NA,NA
09626,"""Falsch""-Screen",canvas.Screen,5_0_1_0_2_1_2,NA,NA,skipped,NA,638760.19999999006,NA,NA,638753.9,638760.39999998,2024-06-15T13:43:02Z,638770.9,NULL,Atmosphäre,angahewa,s,kuteseka,usahihi,kutoamini,NA,sdfdsf,NA,1,NA,NA,NA,NA,NA,NA,NA,NA,NA,NA,NA,NA,NA,NA,NA,NA,NA,NA,NA
09626,shallow,flow.Sequence,5_0_1_0_2_1,NA,NA,completion,21636.3,617107.5,617100.9,617117.6,638753.9,638760.5,2024-06-15T13:43:02Z,638770.9,NULL,Atmosphäre,angahewa,s,kuteseka,usahihi,kutoamini,NA,sdfdsf,NA,1,NA,NA,NA,NA,NA,NA,NA,NA,NA,NA,NA,NA,NA,NA,NA,NA,NA,NA,NA
09626,task,flow.Sequence,5_0_1_0_2,NA,NA,completion,21636.3,617107.5,617100.9,617117.6,638753.9,638760.5,2024-06-15T13:43:02Z,638770.9,NULL,Atmosphäre,angahewa,s,kuteseka,usahihi,kutoamini,NA,sdfdsf,NA,1,NA,NA,NA,NA,NA,NA,NA,NA,NA,NA,NA,NA,NA,NA,NA,NA,NA,NA,NA
09626,Deep Question,html.Page,5_0_1_0_3_0_0,NA,NA,form submission,8741.1999999642,638760.59999996,638753.9,638770.9,647512.09999996,647512.30000001,2024-06-15T13:43:11Z,647515.192,NULL,Wechsel,ugeuzaji,d,NA,NA,NA,guezaji,NA,NA,1,NA,NA,NA,NA,NA,NA,NA,NA,NA,NA,NA,NA,NA,NA,NA,NA,NA,NA,NA
09626,"""Richtig""-Screen",canvas.Screen,5_0_1_0_3_0_1,NA,NA,skipped,NA,647514.09999996,NA,NA,647512.09999996,647514.30000000994,2024-06-15T13:43:11Z,647515.192,NULL,Wechsel,ugeuzaji,d,NA,NA,NA,NA,sdfdsf,NA,1,NA,NA,NA,NA,NA,NA,NA,NA,NA,NA,NA,NA,NA,NA,NA,NA,NA,NA,NA
09626,"""Falsch""-Screen",canvas.Screen,5_0_1_0_3_0_2,NA,NA,timeout,4996.9079999999,647514.69999999006,647515.192,647515.192,652495.7,652497.59999996,2024-06-15T13:43:15Z,652512.1,NULL,Wechsel,ugeuzaji,d,NA,NA,NA,NA,sdfdsf,0,1,NA,NA,NA,NA,NA,NA,NA,NA,NA,NA,NA,NA,NA,NA,NA,NA,NA,NA,NA
09626,deep,flow.Sequence,5_0_1_0_3_0,NA,NA,completion,13724.8,638760.59999996,638753.9,638770.9,652495.7,652498,2024-06-15T13:43:15Z,652512.1,NULL,Wechsel,ugeuzaji,d,NA,NA,NA,NA,sdfdsf,NA,1,NA,NA,NA,NA,NA,NA,NA,NA,NA,NA,NA,NA,NA,NA,NA,NA,NA,NA,NA
09626,shallow,flow.Sequence,5_0_1_0_3_1,NA,NA,skipped,NA,652498.19999999006,NA,NA,652495.7,652498.30000001,2024-06-15T13:43:15Z,652512.1,NULL,Wechsel,ugeuzaji,d,NA,NA,NA,NA,sdfdsf,NA,1,NA,NA,NA,NA,NA,NA,NA,NA,NA,NA,NA,NA,NA,NA,NA,NA,NA,NA,NA
09626,task,flow.Sequence,5_0_1_0_3,NA,NA,completion,13724.8,638760.59999996,638753.9,638770.9,652495.7,652498.39999998,2024-06-15T13:43:16Z,652512.1,NULL,Wechsel,ugeuzaji,d,NA,NA,NA,NA,sdfdsf,NA,1,NA,NA,NA,NA,NA,NA,NA,NA,NA,NA,NA,NA,NA,NA,NA,NA,NA,NA,NA
09626,Deep Question,html.Page,5_0_1_0_4_0_0,NA,NA,form submission,13577.9,652498.69999999006,652495.7,652512.1,666090,666090.30000001,2024-06-15T13:43:29Z,666103.8,NULL,Sänger,mwimbaji,d,NA,NA,NA,mwimbaji,NA,NA,1,NA,NA,NA,NA,NA,NA,NA,NA,NA,NA,NA,NA,NA,NA,NA,NA,NA,NA,NA
09626,"""Richtig""-Screen",canvas.Screen,5_0_1_0_4_0_1,NA,NA,timeout,4997.3999999999,666093.80000001,666089.46,666103.8,671084.1,671086.59999996,2024-06-15T13:43:34Z,671101.2,NULL,Sänger,mwimbaji,d,NA,NA,NA,NA,sdfdsf,1,1,NA,NA,NA,NA,NA,NA,NA,NA,NA,NA,NA,NA,NA,NA,NA,NA,NA,NA,NA
09626,"""Falsch""-Screen",canvas.Screen,5_0_1_0_4_0_2,NA,NA,skipped,NA,671091,NA,NA,671084.1,671091.09999996,2024-06-15T13:43:34Z,671101.2,NULL,Sänger,mwimbaji,d,NA,NA,NA,NA,sdfdsf,NA,1,NA,NA,NA,NA,NA,NA,NA,NA,NA,NA,NA,NA,NA,NA,NA,NA,NA,NA,NA
09626,deep,flow.Sequence,5_0_1_0_4_0,NA,NA,completion,18572,652498.59999996,652495.7,652512.1,671084.1,671091.19999999006,2024-06-15T13:43:34Z,671101.2,NULL,Sänger,mwimbaji,d,NA,NA,NA,NA,sdfdsf,NA,1,NA,NA,NA,NA,NA,NA,NA,NA,NA,NA,NA,NA,NA,NA,NA,NA,NA,NA,NA
09626,shallow,flow.Sequence,5_0_1_0_4_1,NA,NA,skipped,NA,671091.30000001,NA,NA,671084.1,671091.30000001,2024-06-15T13:43:34Z,671101.2,NULL,Sänger,mwimbaji,d,NA,NA,NA,NA,sdfdsf,NA,1,NA,NA,NA,NA,NA,NA,NA,NA,NA,NA,NA,NA,NA,NA,NA,NA,NA,NA,NA
09626,task,flow.Sequence,5_0_1_0_4,NA,NA,completion,18572,652498.59999996,652495.7,652512.1,671084.1,671091.30000001,2024-06-15T13:43:34Z,671101.2,NULL,Sänger,mwimbaji,d,NA,NA,NA,NA,sdfdsf,NA,1,NA,NA,NA,NA,NA,NA,NA,NA,NA,NA,NA,NA,NA,NA,NA,NA,NA,NA,NA
09626,deep,flow.Sequence,5_0_1_0_5_0,NA,NA,skipped,NA,671091.39999998,NA,NA,671084.1,671091.39999998,2024-06-15T13:43:34Z,671101.2,NULL,Flexibilität,kubadilika,s,enjini,usikilivu,hesabu,NA,sdfdsf,NA,1,NA,NA,NA,NA,NA,NA,NA,NA,NA,NA,NA,NA,NA,NA,NA,NA,NA,NA,NA
09626,Shallow Question,html.Page,5_0_1_0_5_1_0,NA,NA,form submission,12114.8,671091.5,671084.1,671101.2,683216,683216.19999999006,2024-06-15T13:43:46Z,683226.7,NULL,Flexibilität,kubadilika,s,enjini,usikilivu,hesabu,kubadilika,NA,NA,1,NA,NA,NA,NA,NA,NA,NA,NA,NA,NA,NA,NA,NA,NA,NA,NA,NA,NA,NA
09626,"""Richtig""-Screen",canvas.Screen,5_0_1_0_5_1_1,NA,NA,timeout,4997.3,683219.19999999006,683211.33,683226.7,688207,688209.5,2024-06-15T13:43:51Z,688224,NULL,Flexibilität,kubadilika,s,enjini,usikilivu,hesabu,NA,sdfdsf,1,1,NA,NA,NA,NA,NA,NA,NA,NA,NA,NA,NA,NA,NA,NA,NA,NA,NA,NA,NA
09626,"""Falsch""-Screen",canvas.Screen,5_0_1_0_5_1_2,NA,NA,skipped,NA,688214.09999996,NA,NA,688207,688214.19999999006,2024-06-15T13:43:51Z,688224,NULL,Flexibilität,kubadilika,s,enjini,usikilivu,hesabu,NA,sdfdsf,NA,1,NA,NA,NA,NA,NA,NA,NA,NA,NA,NA,NA,NA,NA,NA,NA,NA,NA,NA,NA
09626,shallow,flow.Sequence,5_0_1_0_5_1,NA,NA,completion,17105.8,671091.5,671084.1,671101.2,688207,688214.30000000994,2024-06-15T13:43:51Z,688224,NULL,Flexibilität,kubadilika,s,enjini,usikilivu,hesabu,NA,sdfdsf,NA,1,NA,NA,NA,NA,NA,NA,NA,NA,NA,NA,NA,NA,NA,NA,NA,NA,NA,NA,NA
09626,task,flow.Sequence,5_0_1_0_5,NA,NA,completion,17105.8,671091.39999998,671084.1,671101.2,688207,688214.39999998,2024-06-15T13:43:51Z,688224,NULL,Flexibilität,kubadilika,s,enjini,usikilivu,hesabu,NA,sdfdsf,NA,1,NA,NA,NA,NA,NA,NA,NA,NA,NA,NA,NA,NA,NA,NA,NA,NA,NA,NA,NA
09626,Deep Question,html.Page,5_0_1_0_6_0_0,NA,NA,form submission,7652,688214.39999998,688207,688224,695876,695876.19999999006,2024-06-15T13:43:59Z,695885.7,NULL,Angreifer,mshambulizi,d,NA,NA,NA,mshabu,NA,NA,1,NA,NA,NA,NA,NA,NA,NA,NA,NA,NA,NA,NA,NA,NA,NA,NA,NA,NA,NA
09626,"""Richtig""-Screen",canvas.Screen,5_0_1_0_6_0_1,NA,NA,skipped,NA,695879.19999999006,NA,NA,695876,695879.30000000994,2024-06-15T13:43:59Z,695885.7,NULL,Angreifer,mshambulizi,d,NA,NA,NA,NA,sdfdsf,NA,1,NA,NA,NA,NA,NA,NA,NA,NA,NA,NA,NA,NA,NA,NA,NA,NA,NA,NA,NA
09626,"""Falsch""-Screen",canvas.Screen,5_0_1_0_6_0_2,NA,NA,timeout,4996.8,695879.69999999006,695875.276,695885.7,700866.1,700867.19999999006,2024-06-15T13:44:04Z,700882.5,NULL,Angreifer,mshambulizi,d,NA,NA,NA,NA,sdfdsf,0,1,NA,NA,NA,NA,NA,NA,NA,NA,NA,NA,NA,NA,NA,NA,NA,NA,NA,NA,NA
09626,deep,flow.Sequence,5_0_1_0_6_0,NA,NA,completion,12642.1,688214.39999998,688207,688224,700866.1,700867.59999996,2024-06-15T13:44:04Z,700882.5,NULL,Angreifer,mshambulizi,d,NA,NA,NA,NA,sdfdsf,NA,1,NA,NA,NA,NA,NA,NA,NA,NA,NA,NA,NA,NA,NA,NA,NA,NA,NA,NA,NA
09626,shallow,flow.Sequence,5_0_1_0_6_1,NA,NA,skipped,NA,700867.69999999006,NA,NA,700866.1,700867.89999998,2024-06-15T13:44:04Z,700882.5,NULL,Angreifer,mshambulizi,d,NA,NA,NA,NA,sdfdsf,NA,1,NA,NA,NA,NA,NA,NA,NA,NA,NA,NA,NA,NA,NA,NA,NA,NA,NA,NA,NA
09626,task,flow.Sequence,5_0_1_0_6,NA,NA,completion,12642.1,688214.39999998,688207,688224,700866.1,700868,2024-06-15T13:44:04Z,700882.5,NULL,Angreifer,mshambulizi,d,NA,NA,NA,NA,sdfdsf,NA,1,NA,NA,NA,NA,NA,NA,NA,NA,NA,NA,NA,NA,NA,NA,NA,NA,NA,NA,NA
09626,deep,flow.Sequence,5_0_1_0_7_0,NA,NA,skipped,NA,700868.30000001,NA,NA,700866.1,700868.30000001,2024-06-15T13:44:04Z,700882.5,NULL,Abrechnung,uhasibu,s,kusahihisha,mpambano,mashambulizi,NA,sdfdsf,NA,1,NA,NA,NA,NA,NA,NA,NA,NA,NA,NA,NA,NA,NA,NA,NA,NA,NA,NA,NA
09626,Shallow Question,html.Page,5_0_1_0_7_1_0,NA,NA,form submission,12323.699999988,700868.5,700866.1,700882.5,713206.19999999006,713206.5,2024-06-15T13:44:16Z,713210.198,NULL,Abrechnung,uhasibu,s,kusahihisha,mpambano,mashambulizi,uhasibu,NA,NA,1,NA,NA,NA,NA,NA,NA,NA,NA,NA,NA,NA,NA,NA,NA,NA,NA,NA,NA,NA
09626,"""Richtig""-Screen",canvas.Screen,5_0_1_0_7_1_1,NA,NA,timeout,4995.6020000001,713209.59999996,713210.198,713210.198,718189,718189.39999998,2024-06-15T13:44:21Z,718205.8,NULL,Abrechnung,uhasibu,s,kusahihisha,mpambano,mashambulizi,NA,sdfdsf,1,1,NA,NA,NA,NA,NA,NA,NA,NA,NA,NA,NA,NA,NA,NA,NA,NA,NA,NA,NA
09626,"""Falsch""-Screen",canvas.Screen,5_0_1_0_7_1_2,NA,NA,skipped,NA,718191,NA,NA,718189,718191,2024-06-15T13:44:21Z,718205.8,NULL,Abrechnung,uhasibu,s,kusahihisha,mpambano,mashambulizi,NA,sdfdsf,NA,1,NA,NA,NA,NA,NA,NA,NA,NA,NA,NA,NA,NA,NA,NA,NA,NA,NA,NA,NA
09626,shallow,flow.Sequence,5_0_1_0_7_1,NA,NA,completion,17306.5,700868.5,700866.1,700882.5,718189,718191.19999999006,2024-06-15T13:44:21Z,718205.8,NULL,Abrechnung,uhasibu,s,kusahihisha,mpambano,mashambulizi,NA,sdfdsf,NA,1,NA,NA,NA,NA,NA,NA,NA,NA,NA,NA,NA,NA,NA,NA,NA,NA,NA,NA,NA
09626,task,flow.Sequence,5_0_1_0_7,NA,NA,completion,17306.5,700868.19999999006,700866.1,700882.5,718189,718191.30000001,2024-06-15T13:44:21Z,718205.8,NULL,Abrechnung,uhasibu,s,kusahihisha,mpambano,mashambulizi,NA,sdfdsf,NA,1,NA,NA,NA,NA,NA,NA,NA,NA,NA,NA,NA,NA,NA,NA,NA,NA,NA,NA,NA
09626,block,flow.Loop,5_0_1_0,NA,NA,completion,127322,590855.30000001,590850.61,590867,718189,718191.30000001,2024-06-15T13:44:21Z,718205.8,NULL,NA,NA,NA,NA,NA,NA,NA,sdfdsf,NA,1,NA,NA,NA,NA,NA,NA,NA,NA,NA,NA,NA,NA,NA,NA,NA,NA,NA,NA,NA
09626,weiter,canvas.Screen,5_0_1_1,sdf,keypress(Space),response,1330.899999988,718191.30000001,718189,718205.8,719536.69999999006,719538,2024-06-15T13:44:23Z,719571.5,NULL,NA,NA,NA,NA,NA,NA,NA,sdfdsf,NA,1,NA,NA,NA,NA,NA,NA,NA,NA,NA,NA,NA,NA,NA,NA,NA,NA,NA,NA,NA
09626,check continue,flow.Sequence,5_0_1,NA,NA,completion,128669.69999999,590855.30000001,590850.61,590867,719536.69999999006,719538.19999999006,2024-06-15T13:44:23Z,719571.5,NULL,NA,NA,NA,NA,NA,NA,NA,sdfdsf,NA,1,NA,NA,NA,NA,NA,NA,NA,NA,NA,NA,NA,NA,NA,NA,NA,NA,NA,NA,NA
09626,Deep Question,html.Page,5_0_2_0_0_0_0,NA,NA,form submission,8805.8999999762,719556.89999998,719555.208,719571.5,728377.39999998,728377.5,2024-06-15T13:44:31Z,728382.4,NULL,Erneuerung,ukarabati,d,NA,NA,NA,ukarabati,NA,NA,2,NA,NA,NA,NA,NA,NA,NA,NA,NA,NA,NA,NA,NA,NA,NA,NA,NA,NA,NA
09626,"""Richtig""-Screen",canvas.Screen,5_0_2_0_0_0_1,NA,NA,timeout,4997.2999999999,728379.19999999006,728369.52,728382.4,733363,733363.80000001,2024-06-15T13:44:36Z,733379.7,NULL,Erneuerung,ukarabati,d,NA,NA,NA,NA,sdf,1,2,NA,NA,NA,NA,NA,NA,NA,NA,NA,NA,NA,NA,NA,NA,NA,NA,NA,NA,NA
09626,"""Falsch""-Screen",canvas.Screen,5_0_2_0_0_0_2,NA,NA,skipped,NA,733368.69999999006,NA,NA,733363,733368.89999998,2024-06-15T13:44:36Z,733379.7,NULL,Erneuerung,ukarabati,d,NA,NA,NA,NA,sdf,NA,2,NA,NA,NA,NA,NA,NA,NA,NA,NA,NA,NA,NA,NA,NA,NA,NA,NA,NA,NA
09626,deep,flow.Sequence,5_0_2_0_0_0,NA,NA,completion,13791.5,719556.89999998,719555.208,719571.5,733363,733369.09999996,2024-06-15T13:44:36Z,733379.7,NULL,Erneuerung,ukarabati,d,NA,NA,NA,NA,sdf,NA,2,NA,NA,NA,NA,NA,NA,NA,NA,NA,NA,NA,NA,NA,NA,NA,NA,NA,NA,NA
09626,shallow,flow.Sequence,5_0_2_0_0_1,NA,NA,skipped,NA,733369.30000000994,NA,NA,733363,733369.30000000994,2024-06-15T13:44:36Z,733379.7,NULL,Erneuerung,ukarabati,d,NA,NA,NA,NA,sdf,NA,2,NA,NA,NA,NA,NA,NA,NA,NA,NA,NA,NA,NA,NA,NA,NA,NA,NA,NA,NA
09626,task,flow.Sequence,5_0_2_0_0,NA,NA,completion,13791.5,719556.89999998,719555.208,719571.5,733363,733369.39999998,2024-06-15T13:44:36Z,733379.7,NULL,Erneuerung,ukarabati,d,NA,NA,NA,NA,sdf,NA,2,NA,NA,NA,NA,NA,NA,NA,NA,NA,NA,NA,NA,NA,NA,NA,NA,NA,NA,NA
09626,deep,flow.Sequence,5_0_2_0_1_0,NA,NA,skipped,NA,733369.39999998,NA,NA,733363,733369.39999998,2024-06-15T13:44:36Z,733379.7,NULL,Abrechnung,uhasibu,s,kusahihisha,mpambano,mashambulizi,NA,sdf,NA,2,NA,NA,NA,NA,NA,NA,NA,NA,NA,NA,NA,NA,NA,NA,NA,NA,NA,NA,NA
09626,Shallow Question,html.Page,5_0_2_0_1_1_0,NA,NA,form submission,4664.6999999762,733369.39999998,733363,733379.7,738044.39999998,738044.69999999006,2024-06-15T13:44:41Z,738060.5,NULL,Abrechnung,uhasibu,s,kusahihisha,mpambano,mashambulizi,uhasibu,NA,NA,2,NA,NA,NA,NA,NA,NA,NA,NA,NA,NA,NA,NA,NA,NA,NA,NA,NA,NA,NA
09626,"""Richtig""-Screen",canvas.Screen,5_0_2_0_1_1_1,NA,NA,timeout,4996.8,738047.39999998,738045.028,738060.5,743040.2,743041.19999999006,2024-06-15T13:44:46Z,743057.3,NULL,Abrechnung,uhasibu,s,kusahihisha,mpambano,mashambulizi,NA,sdf,1,2,NA,NA,NA,NA,NA,NA,NA,NA,NA,NA,NA,NA,NA,NA,NA,NA,NA,NA,NA
09626,"""Falsch""-Screen",canvas.Screen,5_0_2_0_1_1_2,NA,NA,skipped,NA,743045.59999996,NA,NA,743040.2,743045.80000001,2024-06-15T13:44:46Z,743057.3,NULL,Abrechnung,uhasibu,s,kusahihisha,mpambano,mashambulizi,NA,sdf,NA,2,NA,NA,NA,NA,NA,NA,NA,NA,NA,NA,NA,NA,NA,NA,NA,NA,NA,NA,NA
09626,shallow,flow.Sequence,5_0_2_0_1_1,NA,NA,completion,9660.5,733369.39999998,733363,733379.7,743040.2,743045.80000001,2024-06-15T13:44:46Z,743057.3,NULL,Abrechnung,uhasibu,s,kusahihisha,mpambano,mashambulizi,NA,sdf,NA,2,NA,NA,NA,NA,NA,NA,NA,NA,NA,NA,NA,NA,NA,NA,NA,NA,NA,NA,NA
09626,task,flow.Sequence,5_0_2_0_1,NA,NA,completion,9660.5,733369.39999998,733363,733379.7,743040.2,743045.89999998,2024-06-15T13:44:46Z,743057.3,NULL,Abrechnung,uhasibu,s,kusahihisha,mpambano,mashambulizi,NA,sdf,NA,2,NA,NA,NA,NA,NA,NA,NA,NA,NA,NA,NA,NA,NA,NA,NA,NA,NA,NA,NA
09626,Deep Question,html.Page,5_0_2_0_2_0_0,NA,NA,form submission,8859.399999988,743045.89999998,743040.2,743057.3,751916.69999999006,751917,2024-06-15T13:44:55Z,751918,NULL,Wechsel,ugeuzaji,d,NA,NA,NA,ugeuzaji,NA,NA,2,NA,NA,NA,NA,NA,NA,NA,NA,NA,NA,NA,NA,NA,NA,NA,NA,NA,NA,NA
09626,"""Richtig""-Screen",canvas.Screen,5_0_2_0_2_0_1,NA,NA,timeout,4997.4,751920,751906.456,751918,756898.9,756899.59999996,2024-06-15T13:45:00Z,756915.4,NULL,Wechsel,ugeuzaji,d,NA,NA,NA,NA,sdf,1,2,NA,NA,NA,NA,NA,NA,NA,NA,NA,NA,NA,NA,NA,NA,NA,NA,NA,NA,NA
09626,"""Falsch""-Screen",canvas.Screen,5_0_2_0_2_0_2,NA,NA,skipped,NA,756901.39999998,NA,NA,756898.9,756901.39999998,2024-06-15T13:45:00Z,756915.4,NULL,Wechsel,ugeuzaji,d,NA,NA,NA,NA,sdf,NA,2,NA,NA,NA,NA,NA,NA,NA,NA,NA,NA,NA,NA,NA,NA,NA,NA,NA,NA,NA
09626,deep,flow.Sequence,5_0_2_0_2_0,NA,NA,completion,13841.6,743045.89999998,743040.2,743057.3,756898.9,756901.5,2024-06-15T13:45:00Z,756915.4,NULL,Wechsel,ugeuzaji,d,NA,NA,NA,NA,sdf,NA,2,NA,NA,NA,NA,NA,NA,NA,NA,NA,NA,NA,NA,NA,NA,NA,NA,NA,NA,NA
09626,shallow,flow.Sequence,5_0_2_0_2_1,NA,NA,skipped,NA,756901.59999996,NA,NA,756898.9,756901.69999999006,2024-06-15T13:45:00Z,756915.4,NULL,Wechsel,ugeuzaji,d,NA,NA,NA,NA,sdf,NA,2,NA,NA,NA,NA,NA,NA,NA,NA,NA,NA,NA,NA,NA,NA,NA,NA,NA,NA,NA
09626,task,flow.Sequence,5_0_2_0_2,NA,NA,completion,13841.6,743045.89999998,743040.2,743057.3,756898.9,756901.69999999006,2024-06-15T13:45:00Z,756915.4,NULL,Wechsel,ugeuzaji,d,NA,NA,NA,NA,sdf,NA,2,NA,NA,NA,NA,NA,NA,NA,NA,NA,NA,NA,NA,NA,NA,NA,NA,NA,NA,NA
09626,deep,flow.Sequence,5_0_2_0_3_0,NA,NA,skipped,NA,756901.69999999006,NA,NA,756898.9,756901.80000001,2024-06-15T13:45:00Z,756915.4,NULL,Atmosphäre,angahewa,s,kuteseka,usahihi,kutoamini,NA,sdf,NA,2,NA,NA,NA,NA,NA,NA,NA,NA,NA,NA,NA,NA,NA,NA,NA,NA,NA,NA,NA
09626,Shallow Question,html.Page,5_0_2_0_3_1_0,NA,NA,form submission,9228.1999999642,756901.80000001,756898.9,756915.4,766143.59999996,766143.80000001,2024-06-15T13:45:09Z,766176.4,NULL,Atmosphäre,angahewa,s,kuteseka,usahihi,kutoamini,angahewa,NA,NA,2,NA,NA,NA,NA,NA,NA,NA,NA,NA,NA,NA,NA,NA,NA,NA,NA,NA,NA,NA
09626,"""Richtig""-Screen",canvas.Screen,5_0_2_0_3_1_1,NA,NA,timeout,4996.5,766146.69999999006,766160.076,766176.4,771156.2,771156.59999996,2024-06-15T13:45:14Z,771172.9,NULL,Atmosphäre,angahewa,s,kuteseka,usahihi,kutoamini,NA,sdf,1,2,NA,NA,NA,NA,NA,NA,NA,NA,NA,NA,NA,NA,NA,NA,NA,NA,NA,NA,NA
09626,"""Falsch""-Screen",canvas.Screen,5_0_2_0_3_1_2,NA,NA,skipped,NA,771158,NA,NA,771156.2,771158.09999996,2024-06-15T13:45:14Z,771172.9,NULL,Atmosphäre,angahewa,s,kuteseka,usahihi,kutoamini,NA,sdf,NA,2,NA,NA,NA,NA,NA,NA,NA,NA,NA,NA,NA,NA,NA,NA,NA,NA,NA,NA,NA
09626,shallow,flow.Sequence,5_0_2_0_3_1,NA,NA,completion,14240.8,756901.80000001,756898.9,756915.4,771156.2,771158.19999999006,2024-06-15T13:45:14Z,771172.9,NULL,Atmosphäre,angahewa,s,kuteseka,usahihi,kutoamini,NA,sdf,NA,2,NA,NA,NA,NA,NA,NA,NA,NA,NA,NA,NA,NA,NA,NA,NA,NA,NA,NA,NA
09626,task,flow.Sequence,5_0_2_0_3,NA,NA,completion,14240.8,756901.69999999006,756898.9,756915.4,771156.2,771158.19999999006,2024-06-15T13:45:14Z,771172.9,NULL,Atmosphäre,angahewa,s,kuteseka,usahihi,kutoamini,NA,sdf,NA,2,NA,NA,NA,NA,NA,NA,NA,NA,NA,NA,NA,NA,NA,NA,NA,NA,NA,NA,NA
09626,Deep Question,html.Page,5_0_2_0_4_0_0,NA,NA,form submission,5353.4000000119,771158.30000001,771156.2,771172.9,776526.30000001,776526.5,2024-06-15T13:45:20Z,776536.3,NULL,Angreifer,mshambulizi,d,NA,NA,NA,angreifer,NA,NA,2,NA,NA,NA,NA,NA,NA,NA,NA,NA,NA,NA,NA,NA,NA,NA,NA,NA,NA,NA
09626,"""Richtig""-Screen",canvas.Screen,5_0_2_0_4_0_1,NA,NA,skipped,NA,776529.39999998,NA,NA,776526.30000001,776529.5,2024-06-15T13:45:20Z,776536.3,NULL,Angreifer,mshambulizi,d,NA,NA,NA,NA,sdf,NA,2,NA,NA,NA,NA,NA,NA,NA,NA,NA,NA,NA,NA,NA,NA,NA,NA,NA,NA,NA
09626,"""Falsch""-Screen",canvas.Screen,5_0_2_0_4_0_2,NA,NA,timeout,4997.2999999999,776530.19999999006,776522.082,776536.3,781516.8,781517.89999998,2024-06-15T13:45:25Z,781533.6,NULL,Angreifer,mshambulizi,d,NA,NA,NA,NA,sdf,0,2,NA,NA,NA,NA,NA,NA,NA,NA,NA,NA,NA,NA,NA,NA,NA,NA,NA,NA,NA
09626,deep,flow.Sequence,5_0_2_0_4_0,NA,NA,completion,10343.9,771158.30000001,771156.2,771172.9,781516.8,781518.30000000994,2024-06-15T13:45:25Z,781533.6,NULL,Angreifer,mshambulizi,d,NA,NA,NA,NA,sdf,NA,2,NA,NA,NA,NA,NA,NA,NA,NA,NA,NA,NA,NA,NA,NA,NA,NA,NA,NA,NA
09626,shallow,flow.Sequence,5_0_2_0_4_1,NA,NA,skipped,NA,781518.39999998,NA,NA,781516.8,781518.59999996,2024-06-15T13:45:25Z,781533.6,NULL,Angreifer,mshambulizi,d,NA,NA,NA,NA,sdf,NA,2,NA,NA,NA,NA,NA,NA,NA,NA,NA,NA,NA,NA,NA,NA,NA,NA,NA,NA,NA
09626,task,flow.Sequence,5_0_2_0_4,NA,NA,completion,10343.9,771158.30000001,771156.2,771172.9,781516.8,781518.69999999006,2024-06-15T13:45:25Z,781533.6,NULL,Angreifer,mshambulizi,d,NA,NA,NA,NA,sdf,NA,2,NA,NA,NA,NA,NA,NA,NA,NA,NA,NA,NA,NA,NA,NA,NA,NA,NA,NA,NA
09626,Deep Question,html.Page,5_0_2_0_5_0_0,NA,NA,form submission,9271.9999999643,781519,781516.8,781533.6,790805.59999996,790805.80000001,2024-06-15T13:45:34Z,790827.9,NULL,Sänger,mwimbaji,d,NA,NA,NA,mwimbaji,NA,NA,2,NA,NA,NA,NA,NA,NA,NA,NA,NA,NA,NA,NA,NA,NA,NA,NA,NA,NA,NA
09626,"""Richtig""-Screen",canvas.Screen,5_0_2_0_5_0_1,NA,NA,timeout,4997,790809,790810.9,790827.9,795808.4,795809.39999998,2024-06-15T13:45:39Z,795824.9,NULL,Sänger,mwimbaji,d,NA,NA,NA,NA,sdf,1,2,NA,NA,NA,NA,NA,NA,NA,NA,NA,NA,NA,NA,NA,NA,NA,NA,NA,NA,NA
09626,"""Falsch""-Screen",canvas.Screen,5_0_2_0_5_0_2,NA,NA,skipped,NA,795814.80000001,NA,NA,795808.4,795814.89999998,2024-06-15T13:45:39Z,795824.9,NULL,Sänger,mwimbaji,d,NA,NA,NA,NA,sdf,NA,2,NA,NA,NA,NA,NA,NA,NA,NA,NA,NA,NA,NA,NA,NA,NA,NA,NA,NA,NA
09626,deep,flow.Sequence,5_0_2_0_5_0,NA,NA,completion,14274.8,781518.89999998,781516.8,781533.6,795808.4,795815.09999996,2024-06-15T13:45:39Z,795824.9,NULL,Sänger,mwimbaji,d,NA,NA,NA,NA,sdf,NA,2,NA,NA,NA,NA,NA,NA,NA,NA,NA,NA,NA,NA,NA,NA,NA,NA,NA,NA,NA
09626,shallow,flow.Sequence,5_0_2_0_5_1,NA,NA,skipped,NA,795815.09999996,NA,NA,795808.4,795815.09999996,2024-06-15T13:45:39Z,795824.9,NULL,Sänger,mwimbaji,d,NA,NA,NA,NA,sdf,NA,2,NA,NA,NA,NA,NA,NA,NA,NA,NA,NA,NA,NA,NA,NA,NA,NA,NA,NA,NA
09626,task,flow.Sequence,5_0_2_0_5,NA,NA,completion,14274.8,781518.80000000994,781516.8,781533.6,795808.4,795815.09999996,2024-06-15T13:45:39Z,795824.9,NULL,Sänger,mwimbaji,d,NA,NA,NA,NA,sdf,NA,2,NA,NA,NA,NA,NA,NA,NA,NA,NA,NA,NA,NA,NA,NA,NA,NA,NA,NA,NA
09626,deep,flow.Sequence,5_0_2_0_6_0,NA,NA,skipped,NA,795815.19999999006,NA,NA,795808.4,795815.19999999006,2024-06-15T13:45:39Z,795824.9,NULL,Kanzler,diwani,s,rasilmali,mahitaji,maabudu,NA,sdf,NA,2,NA,NA,NA,NA,NA,NA,NA,NA,NA,NA,NA,NA,NA,NA,NA,NA,NA,NA,NA
09626,Shallow Question,html.Page,5_0_2_0_6_1_0,NA,NA,form submission,2325.1999999642,795815.19999999006,795808.4,795824.9,798150.09999996,798150.39999998,2024-06-15T13:45:41Z,798156.4,NULL,Kanzler,diwani,s,rasilmali,mahitaji,maabudu,diwani,NA,NA,2,NA,NA,NA,NA,NA,NA,NA,NA,NA,NA,NA,NA,NA,NA,NA,NA,NA,NA,NA
09626,"""Richtig""-Screen",canvas.Screen,5_0_2_0_6_1_1,NA,NA,timeout,4997.4,798151.30000000994,798140.512,798156.4,803137,803139,2024-06-15T13:45:46Z,803153.8,NULL,Kanzler,diwani,s,rasilmali,mahitaji,maabudu,NA,sdf,1,2,NA,NA,NA,NA,NA,NA,NA,NA,NA,NA,NA,NA,NA,NA,NA,NA,NA,NA,NA
09626,"""Falsch""-Screen",canvas.Screen,5_0_2_0_6_1_2,NA,NA,skipped,NA,803143.69999999006,NA,NA,803137,803143.80000000994,2024-06-15T13:45:46Z,803153.8,NULL,Kanzler,diwani,s,rasilmali,mahitaji,maabudu,NA,sdf,NA,2,NA,NA,NA,NA,NA,NA,NA,NA,NA,NA,NA,NA,NA,NA,NA,NA,NA,NA,NA
09626,shallow,flow.Sequence,5_0_2_0_6_1,NA,NA,completion,7312.1,795815.19999999006,795808.4,795824.9,803137,803143.80000000994,2024-06-15T13:45:46Z,803153.8,NULL,Kanzler,diwani,s,rasilmali,mahitaji,maabudu,NA,sdf,NA,2,NA,NA,NA,NA,NA,NA,NA,NA,NA,NA,NA,NA,NA,NA,NA,NA,NA,NA,NA
09626,task,flow.Sequence,5_0_2_0_6,NA,NA,completion,7312.1,795815.09999996,795808.4,795824.9,803137,803143.89999998,2024-06-15T13:45:46Z,803153.8,NULL,Kanzler,diwani,s,rasilmali,mahitaji,maabudu,NA,sdf,NA,2,NA,NA,NA,NA,NA,NA,NA,NA,NA,NA,NA,NA,NA,NA,NA,NA,NA,NA,NA
09626,deep,flow.Sequence,5_0_2_0_7_0,NA,NA,skipped,NA,803144,NA,NA,803137,803144,2024-06-15T13:45:46Z,803153.8,NULL,Flexibilität,kubadilika,s,enjini,usikilivu,hesabu,NA,sdf,NA,2,NA,NA,NA,NA,NA,NA,NA,NA,NA,NA,NA,NA,NA,NA,NA,NA,NA,NA,NA
09626,Shallow Question,html.Page,5_0_2_0_7_1_0,NA,NA,form submission,7094.899999988,803144,803137,803153.8,810248.69999999006,810248.80000001,2024-06-15T13:45:53Z,810266.1,NULL,Flexibilität,kubadilika,s,enjini,usikilivu,hesabu,kubadilika,NA,NA,2,NA,NA,NA,NA,NA,NA,NA,NA,NA,NA,NA,NA,NA,NA,NA,NA,NA,NA,NA
09626,"""Richtig""-Screen",canvas.Screen,5_0_2_0_7_1_1,NA,NA,timeout,4996.5,810251.69999999006,810249.71,810266.1,815246,815247,2024-06-15T13:45:58Z,815262.6,NULL,Flexibilität,kubadilika,s,enjini,usikilivu,hesabu,NA,sdf,1,2,NA,NA,NA,NA,NA,NA,NA,NA,NA,NA,NA,NA,NA,NA,NA,NA,NA,NA,NA
09626,"""Falsch""-Screen",canvas.Screen,5_0_2_0_7_1_2,NA,NA,skipped,NA,815251.69999999006,NA,NA,815246,815251.69999999006,2024-06-15T13:45:58Z,815262.6,NULL,Flexibilität,kubadilika,s,enjini,usikilivu,hesabu,NA,sdf,NA,2,NA,NA,NA,NA,NA,NA,NA,NA,NA,NA,NA,NA,NA,NA,NA,NA,NA,NA,NA
