observation,sender,sender_type,sender_id,response,response_action,ended_on,duration,time_run,time_render,time_show,time_end,time_commit,timestamp,time_switch,german,swahili,enc,distractor1,distractor2,distractor3,response_2,x,correct,distractors,url_vp,url_sess,meta_labjs_version,meta_location,meta_user_agent,meta_platform,meta_language,meta_locale,meta_time_zone,meta_timezone_offset,meta_screen_width,meta_screen_height,meta_scroll_width,meta_scroll_height,meta_window_inner_width,meta_window_inner_height,meta_device_pixel_ratio,meta_labjs_build_flavor,meta_labjs_build_commit
b2ff4,Introduction delayed retrieval,canvas.Screen,0,weiter,keypress(Space),response,15323.74,830,824.6,841.26,16165,16176,2023-08-28T17:34:37Z,16179.52,NA,NA,NA,NA,NA,NA,NA,NA,NA,NULL,145,2,20.2.4,https://neurocog.fernuni.ch/studies/vweber/jbaenninger/delayed/index.html?vp=145&sess=2,Mozilla/5.0 (Windows NT 10.0; Win64; x64; rv:109.0) Gecko/20100101 Firefox/116.0,Win32,de,de-CH,Europe/Zurich,-120,1500,1000,1500,827,1500,875,2,production,f5b4a49f956347addd546a832a3327688c2c0fef
b2ff4,Deep Question,html.Page,1_0_0_0,NA,NA,form submission,8031.48,16179,16178.98,16179.52,24211,24212,2023-08-28T17:34:46Z,24213.7,Sympathie,mapendano,d,dhamiria,fungamano,maazimio,jkhgsethlie,NA,NA,NULL,NA,NA,NA,NA,NA,NA,NA,NA,NA,NA,NA,NA,NA,NA,NA,NA,NA,NA,NA
b2ff4,Save data screen,canvas.Screen,1_0_0_1,NA,NA,timeout,500.12,24219,24204.56,24213.7,24697.14,24698,2023-08-28T17:34:46Z,24713.82,Sympathie,mapendano,d,dhamiria,fungamano,maazimio,NA,NA,0,NULL,NA,NA,NA,NA,NA,NA,NA,NA,NA,NA,NA,NA,NA,NA,NA,NA,NA,NA,NA
b2ff4,deep,flow.Sequence,1_0_0,NA,NA,completion,8517.62,16179,16178.98,16179.52,24697.14,24699,2023-08-28T17:34:46Z,24713.82,Sympathie,mapendano,d,dhamiria,fungamano,maazimio,NA,NA,NA,NULL,NA,NA,NA,NA,NA,NA,NA,NA,NA,NA,NA,NA,NA,NA,NA,NA,NA,NA,NA
b2ff4,task,flow.Sequence,1_0,NA,NA,completion,8517.62,16179,16178.98,16179.52,24697.14,24700,2023-08-28T17:34:46Z,24713.82,Sympathie,mapendano,d,dhamiria,fungamano,maazimio,NA,NA,NA,NULL,NA,NA,NA,NA,NA,NA,NA,NA,NA,NA,NA,NA,NA,NA,NA,NA,NA,NA,NA
b2ff4,Deep Question,html.Page,1_1_0_0,NA,NA,form submission,10011.18,24700,24697.14,24713.82,34725,34725,2023-08-28T17:34:56Z,34733,Auftrag,uagizaji,s,ghanima,kuzingatia,msukani,hjggug,NA,NA,NULL,NA,NA,NA,NA,NA,NA,NA,NA,NA,NA,NA,NA,NA,NA,NA,NA,NA,NA,NA
b2ff4,Save data screen,canvas.Screen,1_1_0_1,NA,NA,timeout,500.14,34728,34723.28,34733,35216.46,35218,2023-08-28T17:34:57Z,35233.14,Auftrag,uagizaji,s,ghanima,kuzingatia,msukani,NA,NA,0,NULL,NA,NA,NA,NA,NA,NA,NA,NA,NA,NA,NA,NA,NA,NA,NA,NA,NA,NA,NA
b2ff4,deep,flow.Sequence,1_1_0,NA,NA,completion,10502.64,24700,24697.14,24713.82,35216.46,35219,2023-08-28T17:34:57Z,35233.14,Auftrag,uagizaji,s,ghanima,kuzingatia,msukani,NA,NA,NA,NULL,NA,NA,NA,NA,NA,NA,NA,NA,NA,NA,NA,NA,NA,NA,NA,NA,NA,NA,NA
b2ff4,task,flow.Sequence,1_1,NA,NA,completion,10502.64,24700,24697.14,24713.82,35216.46,35219,2023-08-28T17:34:57Z,35233.14,Auftrag,uagizaji,s,ghanima,kuzingatia,msukani,NA,NA,NA,NULL,NA,NA,NA,NA,NA,NA,NA,NA,NA,NA,NA,NA,NA,NA,NA,NA,NA,NA,NA
b2ff4,Deep Question,html.Page,1_2_0_0,NA,NA,form submission,6413.86,35220,35216.46,35233.14,41647,41648,2023-08-28T17:35:03Z,41651.42,Ausschluss,kutengwa,s,ununuzi,taratibu,madeni,gkjhggjg,NA,NA,NULL,NA,NA,NA,NA,NA,NA,NA,NA,NA,NA,NA,NA,NA,NA,NA,NA,NA,NA,NA
b2ff4,Save data screen,canvas.Screen,1_2_0_1,NA,NA,timeout,500.14,41652,41644.38,41651.42,42134.88,42140,2023-08-28T17:35:03Z,42151.56,Ausschluss,kutengwa,s,ununuzi,taratibu,madeni,NA,NA,0,NULL,NA,NA,NA,NA,NA,NA,NA,NA,NA,NA,NA,NA,NA,NA,NA,NA,NA,NA,NA
b2ff4,deep,flow.Sequence,1_2_0,NA,NA,completion,6901.74,35220,35216.46,35233.14,42134.88,42143,2023-08-28T17:35:03Z,42151.56,Ausschluss,kutengwa,s,ununuzi,taratibu,madeni,NA,NA,NA,NULL,NA,NA,NA,NA,NA,NA,NA,NA,NA,NA,NA,NA,NA,NA,NA,NA,NA,NA,NA
b2ff4,task,flow.Sequence,1_2,NA,NA,completion,6901.74,35220,35216.46,35233.14,42134.88,42144,2023-08-28T17:35:03Z,42151.56,Ausschluss,kutengwa,s,ununuzi,taratibu,madeni,NA,NA,NA,NULL,NA,NA,NA,NA,NA,NA,NA,NA,NA,NA,NA,NA,NA,NA,NA,NA,NA,NA,NA
b2ff4,Deep Question,html.Page,1_3_0_0,NA,NA,form submission,24583.44,42145,42134.88,42151.56,66735,66736,2023-08-28T17:35:28Z,66740.9,Schönheit,kirembo,d,mahojiano,msisimko,jitihadi,kempor,NA,NA,NULL,NA,NA,NA,NA,NA,NA,NA,NA,NA,NA,NA,NA,NA,NA,NA,NA,NA,NA,NA
b2ff4,Save data screen,canvas.Screen,1_3_0_1,NA,NA,timeout,500.22,66749,66730.82,66740.9,67224.44,67226,2023-08-28T17:35:29Z,67241.12,Schönheit,kirembo,d,mahojiano,msisimko,jitihadi,NA,NA,0,NULL,NA,NA,NA,NA,NA,NA,NA,NA,NA,NA,NA,NA,NA,NA,NA,NA,NA,NA,NA
b2ff4,deep,flow.Sequence,1_3_0,NA,NA,completion,25072.88,42145,42134.88,42151.56,67224.44,67228,2023-08-28T17:35:29Z,67241.12,Schönheit,kirembo,d,mahojiano,msisimko,jitihadi,NA,NA,NA,NULL,NA,NA,NA,NA,NA,NA,NA,NA,NA,NA,NA,NA,NA,NA,NA,NA,NA,NA,NA
b2ff4,task,flow.Sequence,1_3,NA,NA,completion,25072.88,42145,42134.88,42151.56,67224.44,67229,2023-08-28T17:35:29Z,67241.12,Schönheit,kirembo,d,mahojiano,msisimko,jitihadi,NA,NA,NA,NULL,NA,NA,NA,NA,NA,NA,NA,NA,NA,NA,NA,NA,NA,NA,NA,NA,NA,NA,NA
b2ff4,Deep Question,html.Page,1_4_0_0,NA,NA,form submission,4274.88,67230,67224.44,67241.12,71516,71517,2023-08-28T17:35:33Z,71525.44,Wettbewerb,ushindani,s,mapendezi,kichocheo,ubaguzi,bjggu,NA,NA,NULL,NA,NA,NA,NA,NA,NA,NA,NA,NA,NA,NA,NA,NA,NA,NA,NA,NA,NA,NA
b2ff4,Save data screen,canvas.Screen,1_4_0_1,NA,NA,timeout,500.22,71522,71513.36,71525.44,72009,72011,2023-08-28T17:35:33Z,72025.66,Wettbewerb,ushindani,s,mapendezi,kichocheo,ubaguzi,NA,NA,0,NULL,NA,NA,NA,NA,NA,NA,NA,NA,NA,NA,NA,NA,NA,NA,NA,NA,NA,NA,NA
b2ff4,deep,flow.Sequence,1_4_0,NA,NA,completion,4767.88,67230,67224.44,67241.12,72009,72012,2023-08-28T17:35:33Z,72025.66,Wettbewerb,ushindani,s,mapendezi,kichocheo,ubaguzi,NA,NA,NA,NULL,NA,NA,NA,NA,NA,NA,NA,NA,NA,NA,NA,NA,NA,NA,NA,NA,NA,NA,NA
b2ff4,task,flow.Sequence,1_4,NA,NA,completion,4767.88,67229,67224.44,67241.12,72009,72013,2023-08-28T17:35:33Z,72025.66,Wettbewerb,ushindani,s,mapendezi,kichocheo,ubaguzi,NA,NA,NA,NULL,NA,NA,NA,NA,NA,NA,NA,NA,NA,NA,NA,NA,NA,NA,NA,NA,NA,NA,NA
b2ff4,Deep Question,html.Page,1_5_0_0,NA,NA,form submission,4236.34,72014,72009,72025.66,76262,76266,2023-08-28T17:35:38Z,76276.56,Vorsorge,tahadhari,s,ufafanuzi,makini,mashambani,jkhgooiuzoi,NA,NA,NULL,NA,NA,NA,NA,NA,NA,NA,NA,NA,NA,NA,NA,NA,NA,NA,NA,NA,NA,NA
b2ff4,Save data screen,canvas.Screen,1_5_0_1,NA,NA,timeout,500.14,76283,76249.88,76276.56,76760.02,76762,2023-08-28T17:35:38Z,76776.7,Vorsorge,tahadhari,s,ufafanuzi,makini,mashambani,NA,NA,0,NULL,NA,NA,NA,NA,NA,NA,NA,NA,NA,NA,NA,NA,NA,NA,NA,NA,NA,NA,NA
b2ff4,deep,flow.Sequence,1_5_0,NA,NA,completion,4734.36,72014,72009,72025.66,76760.02,76763,2023-08-28T17:35:38Z,76776.7,Vorsorge,tahadhari,s,ufafanuzi,makini,mashambani,NA,NA,NA,NULL,NA,NA,NA,NA,NA,NA,NA,NA,NA,NA,NA,NA,NA,NA,NA,NA,NA,NA,NA
b2ff4,task,flow.Sequence,1_5,NA,NA,completion,4734.36,72014,72009,72025.66,76760.02,76764,2023-08-28T17:35:38Z,76776.7,Vorsorge,tahadhari,s,ufafanuzi,makini,mashambani,NA,NA,NA,NULL,NA,NA,NA,NA,NA,NA,NA,NA,NA,NA,NA,NA,NA,NA,NA,NA,NA,NA,NA
b2ff4,Deep Question,html.Page,1_6_0_0,NA,NA,form submission,5685.3,76764,76760.02,76776.7,82462,82463,2023-08-28T17:35:44Z,82461.42,Konkurrent,mshindani,s,msemaji,mvutaji,kipukusa,huituzd6,NA,NA,NULL,NA,NA,NA,NA,NA,NA,NA,NA,NA,NA,NA,NA,NA,NA,NA,NA,NA,NA,NA
b2ff4,Save data screen,canvas.Screen,1_6_0_1,NA,NA,timeout,500.10000000001,82469,82457.32,82461.42,82944.84,82945,2023-08-28T17:35:44Z,82961.52,Konkurrent,mshindani,s,msemaji,mvutaji,kipukusa,NA,NA,0,NULL,NA,NA,NA,NA,NA,NA,NA,NA,NA,NA,NA,NA,NA,NA,NA,NA,NA,NA,NA
b2ff4,deep,flow.Sequence,1_6_0,NA,NA,completion,6168.14,76764,76760.02,76776.7,82944.84,82947,2023-08-28T17:35:44Z,82961.52,Konkurrent,mshindani,s,msemaji,mvutaji,kipukusa,NA,NA,NA,NULL,NA,NA,NA,NA,NA,NA,NA,NA,NA,NA,NA,NA,NA,NA,NA,NA,NA,NA,NA
b2ff4,task,flow.Sequence,1_6,NA,NA,completion,6168.14,76764,76760.02,76776.7,82944.84,82948,2023-08-28T17:35:44Z,82961.52,Konkurrent,mshindani,s,msemaji,mvutaji,kipukusa,NA,NA,NA,NULL,NA,NA,NA,NA,NA,NA,NA,NA,NA,NA,NA,NA,NA,NA,NA,NA,NA,NA,NA
b2ff4,Deep Question,html.Page,1_7_0_0,NA,NA,form submission,4397.48,82948,82944.84,82961.52,87359,87360,2023-08-28T17:35:49Z,87362.62,Zuwachs,nyongeza,d,matilaba,udhibiti,hudhurio,jhguzotz,NA,NA,NULL,NA,NA,NA,NA,NA,NA,NA,NA,NA,NA,NA,NA,NA,NA,NA,NA,NA,NA,NA
b2ff4,Save data screen,canvas.Screen,1_7_0_1,NA,NA,timeout,500.10000000001,87364,87356.84,87362.62,87846.06,87847,2023-08-28T17:35:49Z,87862.72,Zuwachs,nyongeza,d,matilaba,udhibiti,hudhurio,NA,NA,0,NULL,NA,NA,NA,NA,NA,NA,NA,NA,NA,NA,NA,NA,NA,NA,NA,NA,NA,NA,NA
b2ff4,deep,flow.Sequence,1_7_0,NA,NA,completion,4884.54,82948,82944.84,82961.52,87846.06,87849,2023-08-28T17:35:49Z,87862.72,Zuwachs,nyongeza,d,matilaba,udhibiti,hudhurio,NA,NA,NA,NULL,NA,NA,NA,NA,NA,NA,NA,NA,NA,NA,NA,NA,NA,NA,NA,NA,NA,NA,NA
b2ff4,task,flow.Sequence,1_7,NA,NA,completion,4884.54,82948,82944.84,82961.52,87846.06,87849,2023-08-28T17:35:49Z,87862.72,Zuwachs,nyongeza,d,matilaba,udhibiti,hudhurio,NA,NA,NA,NULL,NA,NA,NA,NA,NA,NA,NA,NA,NA,NA,NA,NA,NA,NA,NA,NA,NA,NA,NA
b2ff4,Deep Question,html.Page,1_8_0_0,NA,NA,form submission,4489.28,87850,87846.06,87862.72,92352,92353,2023-08-28T17:35:54Z,92363.88,Widerstand,usulubu,d,kusababisha,mwalimu,mwenendo,guztetj,NA,NA,NULL,NA,NA,NA,NA,NA,NA,NA,NA,NA,NA,NA,NA,NA,NA,NA,NA,NA,NA,NA
b2ff4,Save data screen,canvas.Screen,1_8_0_1,NA,NA,timeout,500.12,92357,92348.76,92363.88,92847.32,92849,2023-08-28T17:35:54Z,92864,Widerstand,usulubu,d,kusababisha,mwalimu,mwenendo,NA,NA,0,NULL,NA,NA,NA,NA,NA,NA,NA,NA,NA,NA,NA,NA,NA,NA,NA,NA,NA,NA,NA
b2ff4,deep,flow.Sequence,1_8_0,NA,NA,completion,4984.6,87850,87846.06,87862.72,92847.32,92850,2023-08-28T17:35:54Z,92864,Widerstand,usulubu,d,kusababisha,mwalimu,mwenendo,NA,NA,NA,NULL,NA,NA,NA,NA,NA,NA,NA,NA,NA,NA,NA,NA,NA,NA,NA,NA,NA,NA,NA
b2ff4,task,flow.Sequence,1_8,NA,NA,completion,4984.6,87849,87846.06,87862.72,92847.32,92851,2023-08-28T17:35:54Z,92864,Widerstand,usulubu,d,kusababisha,mwalimu,mwenendo,NA,NA,NA,NULL,NA,NA,NA,NA,NA,NA,NA,NA,NA,NA,NA,NA,NA,NA,NA,NA,NA,NA,NA
b2ff4,Deep Question,html.Page,1_9_0_0,NA,NA,form submission,4993,92852,92847.32,92864,97857,97858,2023-08-28T17:35:59Z,97865.24,Beweis,ushahidi,s,marudio,kizuizi,mtendaji,hgtrwehrwez,NA,NA,NULL,NA,NA,NA,NA,NA,NA,NA,NA,NA,NA,NA,NA,NA,NA,NA,NA,NA,NA,NA
b2ff4,Save data screen,canvas.Screen,1_9_0_1,NA,NA,timeout,500.09999999999,97866,97849.08,97865.24,98348.66,98351,2023-08-28T17:36:00Z,98365.34,Beweis,ushahidi,s,marudio,kizuizi,mtendaji,NA,NA,0,NULL,NA,NA,NA,NA,NA,NA,NA,NA,NA,NA,NA,NA,NA,NA,NA,NA,NA,NA,NA
b2ff4,deep,flow.Sequence,1_9_0,NA,NA,completion,5484.66,92852,92847.32,92864,98348.66,98353,2023-08-28T17:36:00Z,98365.34,Beweis,ushahidi,s,marudio,kizuizi,mtendaji,NA,NA,NA,NULL,NA,NA,NA,NA,NA,NA,NA,NA,NA,NA,NA,NA,NA,NA,NA,NA,NA,NA,NA
b2ff4,task,flow.Sequence,1_9,NA,NA,completion,5484.66,92851,92847.32,92864,98348.66,98353,2023-08-28T17:36:00Z,98365.34,Beweis,ushahidi,s,marudio,kizuizi,mtendaji,NA,NA,NA,NULL,NA,NA,NA,NA,NA,NA,NA,NA,NA,NA,NA,NA,NA,NA,NA,NA,NA,NA,NA
b2ff4,Deep Question,html.Page,1_10_0_0,NA,NA,form submission,4027.66,98354,98348.66,98365.34,102393,102394,2023-08-28T17:36:04Z,102399.76,Annäherung,maegesho,d,madahili,kujiamini,mapendekezo,rtzetzterehb,NA,NA,NULL,NA,NA,NA,NA,NA,NA,NA,NA,NA,NA,NA,NA,NA,NA,NA,NA,NA,NA,NA
b2ff4,Save data screen,canvas.Screen,1_10_0_1,NA,NA,timeout,500.06000000001,102399,102388.94,102399.76,102883.1,102886,2023-08-28T17:36:04Z,102899.82,Annäherung,maegesho,d,madahili,kujiamini,mapendekezo,NA,NA,0,NULL,NA,NA,NA,NA,NA,NA,NA,NA,NA,NA,NA,NA,NA,NA,NA,NA,NA,NA,NA
b2ff4,deep,flow.Sequence,1_10_0,NA,NA,completion,4517.76,98354,98348.66,98365.34,102883.1,102887,2023-08-28T17:36:04Z,102899.82,Annäherung,maegesho,d,madahili,kujiamini,mapendekezo,NA,NA,NA,NULL,NA,NA,NA,NA,NA,NA,NA,NA,NA,NA,NA,NA,NA,NA,NA,NA,NA,NA,NA
b2ff4,task,flow.Sequence,1_10,NA,NA,completion,4517.76,98354,98348.66,98365.34,102883.1,102888,2023-08-28T17:36:04Z,102899.82,Annäherung,maegesho,d,madahili,kujiamini,mapendekezo,NA,NA,NA,NULL,NA,NA,NA,NA,NA,NA,NA,NA,NA,NA,NA,NA,NA,NA,NA,NA,NA,NA,NA
b2ff4,Deep Question,html.Page,1_11_0_0,NA,NA,form submission,5922.18,102889,102883.1,102899.82,108822,108822,2023-08-28T17:36:10Z,108817.94,Polizist,msongora,s,simanzi,mandhari,nidhamu,mkcopqaew,NA,NA,NULL,NA,NA,NA,NA,NA,NA,NA,NA,NA,NA,NA,NA,NA,NA,NA,NA,NA,NA,NA
b2ff4,Save data screen,canvas.Screen,1_11_0_1,NA,NA,timeout,500.14,108826,108816.72,108817.94,109301.42,109303,2023-08-28T17:36:11Z,109318.08,Polizist,msongora,s,simanzi,mandhari,nidhamu,NA,NA,0,NULL,NA,NA,NA,NA,NA,NA,NA,NA,NA,NA,NA,NA,NA,NA,NA,NA,NA,NA,NA
b2ff4,deep,flow.Sequence,1_11_0,NA,NA,completion,6401.6,102889,102883.1,102899.82,109301.42,109304,2023-08-28T17:36:11Z,109318.08,Polizist,msongora,s,simanzi,mandhari,nidhamu,NA,NA,NA,NULL,NA,NA,NA,NA,NA,NA,NA,NA,NA,NA,NA,NA,NA,NA,NA,NA,NA,NA,NA
b2ff4,task,flow.Sequence,1_11,NA,NA,completion,6401.6,102889,102883.1,102899.82,109301.42,109304,2023-08-28T17:36:11Z,109318.08,Polizist,msongora,s,simanzi,mandhari,nidhamu,NA,NA,NA,NULL,NA,NA,NA,NA,NA,NA,NA,NA,NA,NA,NA,NA,NA,NA,NA,NA,NA,NA,NA
b2ff4,Deep Question,html.Page,1_12_0_0,NA,NA,form submission,4890.92,109305,109301.42,109318.08,114209,114210,2023-08-28T17:36:16Z,114235.9,Gelegenheit,wakati,s,mchanganyiko,kipaumbele,kushuku,dlujnglwe,NA,NA,NULL,NA,NA,NA,NA,NA,NA,NA,NA,NA,NA,NA,NA,NA,NA,NA,NA,NA,NA,NA
b2ff4,Save data screen,canvas.Screen,1_12_0_1,NA,NA,timeout,500.12000000001,114216,114205.28,114235.9,114719.36,114722,2023-08-28T17:36:16Z,114736.02,Gelegenheit,wakati,s,mchanganyiko,kipaumbele,kushuku,NA,NA,0,NULL,NA,NA,NA,NA,NA,NA,NA,NA,NA,NA,NA,NA,NA,NA,NA,NA,NA,NA,NA
b2ff4,deep,flow.Sequence,1_12_0,NA,NA,completion,5401.28,109305,109301.42,109318.08,114719.36,114723,2023-08-28T17:36:16Z,114736.02,Gelegenheit,wakati,s,mchanganyiko,kipaumbele,kushuku,NA,NA,NA,NULL,NA,NA,NA,NA,NA,NA,NA,NA,NA,NA,NA,NA,NA,NA,NA,NA,NA,NA,NA
b2ff4,task,flow.Sequence,1_12,NA,NA,completion,5401.28,109305,109301.42,109318.08,114719.36,114724,2023-08-28T17:36:16Z,114736.02,Gelegenheit,wakati,s,mchanganyiko,kipaumbele,kushuku,NA,NA,NA,NULL,NA,NA,NA,NA,NA,NA,NA,NA,NA,NA,NA,NA,NA,NA,NA,NA,NA,NA,NA
b2ff4,Deep Question,html.Page,1_13_0_0,NA,NA,form submission,5008.98,114725,114719.36,114736.02,119745,119746,2023-08-28T17:36:21Z,119753.96,Zufall,kikuti,d,kukosekana,uchoraji,leseni,"few,nfwtrjo",NA,NA,NULL,NA,NA,NA,NA,NA,NA,NA,NA,NA,NA,NA,NA,NA,NA,NA,NA,NA,NA,NA
b2ff4,Save data screen,canvas.Screen,1_13_0_1,NA,NA,timeout,500.09999999999,119750,119742.06,119753.96,120237.38,120239,2023-08-28T17:36:22Z,120254.06,Zufall,kikuti,d,kukosekana,uchoraji,leseni,NA,NA,0,NULL,NA,NA,NA,NA,NA,NA,NA,NA,NA,NA,NA,NA,NA,NA,NA,NA,NA,NA,NA
b2ff4,deep,flow.Sequence,1_13_0,NA,NA,completion,5501.36,114725,114719.36,114736.02,120237.38,120239,2023-08-28T17:36:22Z,120254.06,Zufall,kikuti,d,kukosekana,uchoraji,leseni,NA,NA,NA,NULL,NA,NA,NA,NA,NA,NA,NA,NA,NA,NA,NA,NA,NA,NA,NA,NA,NA,NA,NA
b2ff4,task,flow.Sequence,1_13,NA,NA,completion,5501.36,114725,114719.36,114736.02,120237.38,120239,2023-08-28T17:36:22Z,120254.06,Zufall,kikuti,d,kukosekana,uchoraji,leseni,NA,NA,NA,NULL,NA,NA,NA,NA,NA,NA,NA,NA,NA,NA,NA,NA,NA,NA,NA,NA,NA,NA,NA
b2ff4,Deep Question,html.Page,1_14_0_0,NA,NA,form submission,3990.94,120239,120237.38,120254.06,124245,124246,2023-08-28T17:36:26Z,124255.06,Verstand,ufahamivu,d,shakawa,hadhari,mhandisi,ddcwlrq,NA,NA,NULL,NA,NA,NA,NA,NA,NA,NA,NA,NA,NA,NA,NA,NA,NA,NA,NA,NA,NA,NA
b2ff4,Save data screen,canvas.Screen,1_14_0_1,NA,NA,timeout,500.2,124249,124241.34,124255.06,124738.58,124748,2023-08-28T17:36:26Z,124755.26,Verstand,ufahamivu,d,shakawa,hadhari,mhandisi,NA,NA,0,NULL,NA,NA,NA,NA,NA,NA,NA,NA,NA,NA,NA,NA,NA,NA,NA,NA,NA,NA,NA
b2ff4,deep,flow.Sequence,1_14_0,NA,NA,completion,4484.52,120239,120237.38,120254.06,124738.58,124753,2023-08-28T17:36:26Z,124755.26,Verstand,ufahamivu,d,shakawa,hadhari,mhandisi,NA,NA,NA,NULL,NA,NA,NA,NA,NA,NA,NA,NA,NA,NA,NA,NA,NA,NA,NA,NA,NA,NA,NA
b2ff4,task,flow.Sequence,1_14,NA,NA,completion,4484.52,120239,120237.38,120254.06,124738.58,124754,2023-08-28T17:36:26Z,124755.26,Verstand,ufahamivu,d,shakawa,hadhari,mhandisi,NA,NA,NA,NULL,NA,NA,NA,NA,NA,NA,NA,NA,NA,NA,NA,NA,NA,NA,NA,NA,NA,NA,NA
b2ff4,Deep Question,html.Page,1_15_0_0,NA,NA,form submission,4831.74,124756,124738.58,124755.26,129587,129587,2023-08-28T17:36:31Z,129606.34,Symbol,kielezo,d,kinyume,nderemo,utayari,brherzhwr,NA,NA,NULL,NA,NA,NA,NA,NA,NA,NA,NA,NA,NA,NA,NA,NA,NA,NA,NA,NA,NA,NA
b2ff4,Save data screen,canvas.Screen,1_15_0_1,NA,NA,timeout,500.2,129602,129581.22,129606.34,130089.86,130092,2023-08-28T17:36:31Z,130106.54,Symbol,kielezo,d,kinyume,nderemo,utayari,NA,NA,0,NULL,NA,NA,NA,NA,NA,NA,NA,NA,NA,NA,NA,NA,NA,NA,NA,NA,NA,NA,NA
b2ff4,deep,flow.Sequence,1_15_0,NA,NA,completion,5334.6,124755,124738.58,124755.26,130089.86,130093,2023-08-28T17:36:31Z,130106.54,Symbol,kielezo,d,kinyume,nderemo,utayari,NA,NA,NA,NULL,NA,NA,NA,NA,NA,NA,NA,NA,NA,NA,NA,NA,NA,NA,NA,NA,NA,NA,NA
b2ff4,task,flow.Sequence,1_15,NA,NA,completion,5334.6,124755,124738.58,124755.26,130089.86,130095,2023-08-28T17:36:31Z,130106.54,Symbol,kielezo,d,kinyume,nderemo,utayari,NA,NA,NA,NULL,NA,NA,NA,NA,NA,NA,NA,NA,NA,NA,NA,NA,NA,NA,NA,NA,NA,NA,NA
b2ff4,retrieval block 1 (cued recall),flow.Loop,1,NA,NA,completion,113910.34,16178,16178.98,16179.52,130089.86,130096,2023-08-28T17:36:31Z,130106.54,NA,NA,NA,NA,NA,NA,NA,NA,NA,NULL,NA,NA,NA,NA,NA,NA,NA,NA,NA,NA,NA,NA,NA,NA,NA,NA,NA,NA,NA
b2ff4,Shallow Question,html.Page,2_0_0_0,NA,NA,form submission,11342.46,130097,130089.86,130106.54,141449,141450,2023-08-28T17:36:43Z,141459.32,Symbol,kielezo,d,kinyume,nderemo,utayari,utayari,NA,NA,"c(""distractor1"", ""distractor2"", ""distractor3"")",NA,NA,NA,NA,NA,NA,NA,NA,NA,NA,NA,NA,NA,NA,NA,NA,NA,NA,NA
b2ff4,Save data screen,canvas.Screen,2_0_0_1,NA,NA,timeout,500.12,141455,141445.5,141459.32,141942.76,141945,2023-08-28T17:36:43Z,141959.44,Symbol,kielezo,d,kinyume,nderemo,utayari,NA,NA,0,"c(""distractor1"", ""distractor2"", ""distractor3"")",NA,NA,NA,NA,NA,NA,NA,NA,NA,NA,NA,NA,NA,NA,NA,NA,NA,NA,NA
b2ff4,shallow,flow.Sequence,2_0_0,NA,NA,completion,11836.22,130096,130089.86,130106.54,141942.76,141946,2023-08-28T17:36:43Z,141959.44,Symbol,kielezo,d,kinyume,nderemo,utayari,NA,NA,NA,"c(""distractor1"", ""distractor2"", ""distractor3"")",NA,NA,NA,NA,NA,NA,NA,NA,NA,NA,NA,NA,NA,NA,NA,NA,NA,NA,NA
b2ff4,task,flow.Sequence,2_0,NA,NA,completion,11836.22,130096,130089.86,130106.54,141942.76,141948,2023-08-28T17:36:43Z,141959.44,Symbol,kielezo,d,kinyume,nderemo,utayari,NA,NA,NA,"c(""distractor1"", ""distractor2"", ""distractor3"")",NA,NA,NA,NA,NA,NA,NA,NA,NA,NA,NA,NA,NA,NA,NA,NA,NA,NA,NA
b2ff4,Shallow Question,html.Page,2_1_0_0,NA,NA,form submission,14008.56,141949,141942.76,141959.44,155968,155974,2023-08-28T17:36:57Z,155979.52,Zuwachs,nyongeza,d,matilaba,udhibiti,hudhurio,hudhurio,NA,NA,"c(""distractor1"", ""distractor2"", ""distractor3"")",NA,NA,NA,NA,NA,NA,NA,NA,NA,NA,NA,NA,NA,NA,NA,NA,NA,NA,NA
b2ff4,Save data screen,canvas.Screen,2_1_0_1,NA,NA,timeout,500.16,155988,155958.96,155979.52,156463,156465,2023-08-28T17:36:58Z,156479.68,Zuwachs,nyongeza,d,matilaba,udhibiti,hudhurio,NA,NA,0,"c(""distractor1"", ""distractor2"", ""distractor3"")",NA,NA,NA,NA,NA,NA,NA,NA,NA,NA,NA,NA,NA,NA,NA,NA,NA,NA,NA
b2ff4,shallow,flow.Sequence,2_1_0,NA,NA,completion,14503.56,141949,141942.76,141959.44,156463,156466,2023-08-28T17:36:58Z,156479.68,Zuwachs,nyongeza,d,matilaba,udhibiti,hudhurio,NA,NA,NA,"c(""distractor1"", ""distractor2"", ""distractor3"")",NA,NA,NA,NA,NA,NA,NA,NA,NA,NA,NA,NA,NA,NA,NA,NA,NA,NA,NA
b2ff4,task,flow.Sequence,2_1,NA,NA,completion,14503.56,141948,141942.76,141959.44,156463,156467,2023-08-28T17:36:58Z,156479.68,Zuwachs,nyongeza,d,matilaba,udhibiti,hudhurio,NA,NA,NA,"c(""distractor1"", ""distractor2"", ""distractor3"")",NA,NA,NA,NA,NA,NA,NA,NA,NA,NA,NA,NA,NA,NA,NA,NA,NA,NA,NA
b2ff4,Shallow Question,html.Page,2_2_0_0,NA,NA,form submission,8014.32,156469,156463,156479.68,164494,164495,2023-08-28T17:37:06Z,164498.36,Auftrag,uagizaji,s,ghanima,kuzingatia,msukani,uagizaji,NA,NA,"c(""distractor1"", ""distractor2"", ""distractor3"")",NA,NA,NA,NA,NA,NA,NA,NA,NA,NA,NA,NA,NA,NA,NA,NA,NA,NA,NA
b2ff4,Save data screen,canvas.Screen,2_2_0_1,NA,NA,timeout,500.18000000002,164500,164490.94,164498.36,164981.86,164984,2023-08-28T17:37:06Z,164998.54,Auftrag,uagizaji,s,ghanima,kuzingatia,msukani,NA,NA,1,"c(""distractor1"", ""distractor2"", ""distractor3"")",NA,NA,NA,NA,NA,NA,NA,NA,NA,NA,NA,NA,NA,NA,NA,NA,NA,NA,NA
b2ff4,shallow,flow.Sequence,2_2_0,NA,NA,completion,8502.18,156469,156463,156479.68,164981.86,164985,2023-08-28T17:37:06Z,164998.54,Auftrag,uagizaji,s,ghanima,kuzingatia,msukani,NA,NA,NA,"c(""distractor1"", ""distractor2"", ""distractor3"")",NA,NA,NA,NA,NA,NA,NA,NA,NA,NA,NA,NA,NA,NA,NA,NA,NA,NA,NA
b2ff4,task,flow.Sequence,2_2,NA,NA,completion,8502.18,156468,156463,156479.68,164981.86,164986,2023-08-28T17:37:06Z,164998.54,Auftrag,uagizaji,s,ghanima,kuzingatia,msukani,NA,NA,NA,"c(""distractor1"", ""distractor2"", ""distractor3"")",NA,NA,NA,NA,NA,NA,NA,NA,NA,NA,NA,NA,NA,NA,NA,NA,NA,NA,NA
b2ff4,Shallow Question,html.Page,2_3_0_0,NA,NA,form submission,9253.46,164987,164981.86,164998.54,174252,174253,2023-08-28T17:37:16Z,174250.82,Widerstand,usulubu,d,kusababisha,mwalimu,mwenendo,usulubu,NA,NA,"c(""distractor1"", ""distractor2"", ""distractor3"")",NA,NA,NA,NA,NA,NA,NA,NA,NA,NA,NA,NA,NA,NA,NA,NA,NA,NA,NA
b2ff4,Save data screen,canvas.Screen,2_3_0_1,NA,NA,timeout,500.10000000001,174256,174247.98,174250.82,174734.26,174736,2023-08-28T17:37:16Z,174750.92,Widerstand,usulubu,d,kusababisha,mwalimu,mwenendo,NA,NA,1,"c(""distractor1"", ""distractor2"", ""distractor3"")",NA,NA,NA,NA,NA,NA,NA,NA,NA,NA,NA,NA,NA,NA,NA,NA,NA,NA,NA
b2ff4,shallow,flow.Sequence,2_3_0,NA,NA,completion,9735.72,164987,164981.86,164998.54,174734.26,174737,2023-08-28T17:37:16Z,174750.92,Widerstand,usulubu,d,kusababisha,mwalimu,mwenendo,NA,NA,NA,"c(""distractor1"", ""distractor2"", ""distractor3"")",NA,NA,NA,NA,NA,NA,NA,NA,NA,NA,NA,NA,NA,NA,NA,NA,NA,NA,NA
b2ff4,task,flow.Sequence,2_3,NA,NA,completion,9735.72,164987,164981.86,164998.54,174734.26,174739,2023-08-28T17:37:16Z,174750.92,Widerstand,usulubu,d,kusababisha,mwalimu,mwenendo,NA,NA,NA,"c(""distractor1"", ""distractor2"", ""distractor3"")",NA,NA,NA,NA,NA,NA,NA,NA,NA,NA,NA,NA,NA,NA,NA,NA,NA,NA,NA
b2ff4,Shallow Question,html.Page,2_4_0_0,NA,NA,form submission,7202.08,174741,174734.26,174750.92,181953,181955,2023-08-28T17:37:23Z,181952.74,Schönheit,kirembo,d,mahojiano,msisimko,jitihadi,kirembo,NA,NA,"c(""distractor1"", ""distractor2"", ""distractor3"")",NA,NA,NA,NA,NA,NA,NA,NA,NA,NA,NA,NA,NA,NA,NA,NA,NA,NA,NA
b2ff4,Save data screen,canvas.Screen,2_4_0_1,NA,NA,timeout,500.02000000002,181959,181948.46,181952.74,182436.08,182438,2023-08-28T17:37:24Z,182452.76,Schönheit,kirembo,d,mahojiano,msisimko,jitihadi,NA,NA,1,"c(""distractor1"", ""distractor2"", ""distractor3"")",NA,NA,NA,NA,NA,NA,NA,NA,NA,NA,NA,NA,NA,NA,NA,NA,NA,NA,NA
b2ff4,shallow,flow.Sequence,2_4_0,NA,NA,completion,7685.16,174740,174734.26,174750.92,182436.08,182439,2023-08-28T17:37:24Z,182452.76,Schönheit,kirembo,d,mahojiano,msisimko,jitihadi,NA,NA,NA,"c(""distractor1"", ""distractor2"", ""distractor3"")",NA,NA,NA,NA,NA,NA,NA,NA,NA,NA,NA,NA,NA,NA,NA,NA,NA,NA,NA
b2ff4,task,flow.Sequence,2_4,NA,NA,completion,7685.16,174740,174734.26,174750.92,182436.08,182441,2023-08-28T17:37:24Z,182452.76,Schönheit,kirembo,d,mahojiano,msisimko,jitihadi,NA,NA,NA,"c(""distractor1"", ""distractor2"", ""distractor3"")",NA,NA,NA,NA,NA,NA,NA,NA,NA,NA,NA,NA,NA,NA,NA,NA,NA,NA,NA
b2ff4,Shallow Question,html.Page,2_5_0_0,NA,NA,form submission,11315.24,182442,182436.08,182452.76,193768,193768,2023-08-28T17:37:35Z,193772.2,Sympathie,mapendano,d,dhamiria,fungamano,maazimio,dhamiria,NA,NA,"c(""distractor1"", ""distractor2"", ""distractor3"")",NA,NA,NA,NA,NA,NA,NA,NA,NA,NA,NA,NA,NA,NA,NA,NA,NA,NA,NA
b2ff4,Save data screen,canvas.Screen,2_5_0_1,NA,NA,timeout,500.29999999999,193773,193761.46,193772.2,194255.82,194258,2023-08-28T17:37:36Z,194272.5,Sympathie,mapendano,d,dhamiria,fungamano,maazimio,NA,NA,0,"c(""distractor1"", ""distractor2"", ""distractor3"")",NA,NA,NA,NA,NA,NA,NA,NA,NA,NA,NA,NA,NA,NA,NA,NA,NA,NA,NA
b2ff4,shallow,flow.Sequence,2_5_0,NA,NA,completion,11803.06,182442,182436.08,182452.76,194255.82,194259,2023-08-28T17:37:36Z,194272.5,Sympathie,mapendano,d,dhamiria,fungamano,maazimio,NA,NA,NA,"c(""distractor1"", ""distractor2"", ""distractor3"")",NA,NA,NA,NA,NA,NA,NA,NA,NA,NA,NA,NA,NA,NA,NA,NA,NA,NA,NA
b2ff4,task,flow.Sequence,2_5,NA,NA,completion,11803.06,182442,182436.08,182452.76,194255.82,194259,2023-08-28T17:37:36Z,194272.5,Sympathie,mapendano,d,dhamiria,fungamano,maazimio,NA,NA,NA,"c(""distractor1"", ""distractor2"", ""distractor3"")",NA,NA,NA,NA,NA,NA,NA,NA,NA,NA,NA,NA,NA,NA,NA,NA,NA,NA,NA
b2ff4,Shallow Question,html.Page,2_6_0_0,NA,NA,form submission,7828.5,194261,194255.82,194272.5,202101,202102,2023-08-28T17:37:43Z,202107.7,Annäherung,maegesho,d,madahili,kujiamini,mapendekezo,kujiamini,NA,NA,"c(""distractor1"", ""distractor2"", ""distractor3"")",NA,NA,NA,NA,NA,NA,NA,NA,NA,NA,NA,NA,NA,NA,NA,NA,NA,NA,NA
b2ff4,Save data screen,canvas.Screen,2_6_0_1,NA,NA,timeout,500.13999999998,202105,202097.24,202107.7,202591.2,202594,2023-08-28T17:37:44Z,202607.84,Annäherung,maegesho,d,madahili,kujiamini,mapendekezo,NA,NA,0,"c(""distractor1"", ""distractor2"", ""distractor3"")",NA,NA,NA,NA,NA,NA,NA,NA,NA,NA,NA,NA,NA,NA,NA,NA,NA,NA,NA
b2ff4,shallow,flow.Sequence,2_6_0,NA,NA,completion,8318.7,194261,194255.82,194272.5,202591.2,202595,2023-08-28T17:37:44Z,202607.84,Annäherung,maegesho,d,madahili,kujiamini,mapendekezo,NA,NA,NA,"c(""distractor1"", ""distractor2"", ""distractor3"")",NA,NA,NA,NA,NA,NA,NA,NA,NA,NA,NA,NA,NA,NA,NA,NA,NA,NA,NA
b2ff4,task,flow.Sequence,2_6,NA,NA,completion,8318.7,194260,194255.82,194272.5,202591.2,202596,2023-08-28T17:37:44Z,202607.84,Annäherung,maegesho,d,madahili,kujiamini,mapendekezo,NA,NA,NA,"c(""distractor1"", ""distractor2"", ""distractor3"")",NA,NA,NA,NA,NA,NA,NA,NA,NA,NA,NA,NA,NA,NA,NA,NA,NA,NA,NA
b2ff4,Shallow Question,html.Page,2_7_0_0,NA,NA,form submission,8441.16,202597,202591.2,202607.84,211049,211050,2023-08-28T17:37:52Z,211059.8,Zufall,kikuti,d,kukosekana,uchoraji,leseni,kikuti,NA,NA,"c(""distractor1"", ""distractor2"", ""distractor3"")",NA,NA,NA,NA,NA,NA,NA,NA,NA,NA,NA,NA,NA,NA,NA,NA,NA,NA,NA
b2ff4,Save data screen,canvas.Screen,2_7_0_1,NA,NA,timeout,500.10000000001,211053,211045.68,211059.8,211543.24,211545,2023-08-28T17:37:53Z,211559.9,Zufall,kikuti,d,kukosekana,uchoraji,leseni,NA,NA,1,"c(""distractor1"", ""distractor2"", ""distractor3"")",NA,NA,NA,NA,NA,NA,NA,NA,NA,NA,NA,NA,NA,NA,NA,NA,NA,NA,NA
b2ff4,shallow,flow.Sequence,2_7_0,NA,NA,completion,8935.4,202596,202591.2,202607.84,211543.24,211547,2023-08-28T17:37:53Z,211559.9,Zufall,kikuti,d,kukosekana,uchoraji,leseni,NA,NA,NA,"c(""distractor1"", ""distractor2"", ""distractor3"")",NA,NA,NA,NA,NA,NA,NA,NA,NA,NA,NA,NA,NA,NA,NA,NA,NA,NA,NA
b2ff4,task,flow.Sequence,2_7,NA,NA,completion,8935.4,202596,202591.2,202607.84,211543.24,211547,2023-08-28T17:37:53Z,211559.9,Zufall,kikuti,d,kukosekana,uchoraji,leseni,NA,NA,NA,"c(""distractor1"", ""distractor2"", ""distractor3"")",NA,NA,NA,NA,NA,NA,NA,NA,NA,NA,NA,NA,NA,NA,NA,NA,NA,NA,NA
b2ff4,Shallow Question,html.Page,2_8_0_0,NA,NA,form submission,7333.1,211548,211543.24,211559.9,218893,218893,2023-08-28T17:38:00Z,218895.12,Beweis,ushahidi,s,marudio,kizuizi,mtendaji,ushahidi,NA,NA,"c(""distractor1"", ""distractor2"", ""distractor3"")",NA,NA,NA,NA,NA,NA,NA,NA,NA,NA,NA,NA,NA,NA,NA,NA,NA,NA,NA
b2ff4,Save data screen,canvas.Screen,2_8_0_1,NA,NA,timeout,500.20000000001,218899,218889.68,218895.12,219378.64,219380,2023-08-28T17:38:01Z,219395.32,Beweis,ushahidi,s,marudio,kizuizi,mtendaji,NA,NA,1,"c(""distractor1"", ""distractor2"", ""distractor3"")",NA,NA,NA,NA,NA,NA,NA,NA,NA,NA,NA,NA,NA,NA,NA,NA,NA,NA,NA
b2ff4,shallow,flow.Sequence,2_8_0,NA,NA,completion,7818.74,211547,211543.24,211559.9,219378.64,219382,2023-08-28T17:38:01Z,219395.32,Beweis,ushahidi,s,marudio,kizuizi,mtendaji,NA,NA,NA,"c(""distractor1"", ""distractor2"", ""distractor3"")",NA,NA,NA,NA,NA,NA,NA,NA,NA,NA,NA,NA,NA,NA,NA,NA,NA,NA,NA
b2ff4,task,flow.Sequence,2_8,NA,NA,completion,7818.74,211547,211543.24,211559.9,219378.64,219383,2023-08-28T17:38:01Z,219395.32,Beweis,ushahidi,s,marudio,kizuizi,mtendaji,NA,NA,NA,"c(""distractor1"", ""distractor2"", ""distractor3"")",NA,NA,NA,NA,NA,NA,NA,NA,NA,NA,NA,NA,NA,NA,NA,NA,NA,NA,NA
b2ff4,Shallow Question,html.Page,2_9_0_0,NA,NA,form submission,14388.68,219384,219378.64,219395.32,233784,233785,2023-08-28T17:38:15Z,233782.18,Wettbewerb,ushindani,s,mapendezi,kichocheo,ubaguzi,mapendezi,NA,NA,"c(""distractor1"", ""distractor2"", ""distractor3"")",NA,NA,NA,NA,NA,NA,NA,NA,NA,NA,NA,NA,NA,NA,NA,NA,NA,NA,NA
b2ff4,Save data screen,canvas.Screen,2_9_0_1,NA,NA,timeout,500.04000000001,233788,233779.36,233782.18,234265.66,234267,2023-08-28T17:38:16Z,234282.22,Wettbewerb,ushindani,s,mapendezi,kichocheo,ubaguzi,NA,NA,0,"c(""distractor1"", ""distractor2"", ""distractor3"")",NA,NA,NA,NA,NA,NA,NA,NA,NA,NA,NA,NA,NA,NA,NA,NA,NA,NA,NA
b2ff4,shallow,flow.Sequence,2_9_0,NA,NA,completion,14870.34,219383,219378.64,219395.32,234265.66,234268,2023-08-28T17:38:16Z,234282.22,Wettbewerb,ushindani,s,mapendezi,kichocheo,ubaguzi,NA,NA,NA,"c(""distractor1"", ""distractor2"", ""distractor3"")",NA,NA,NA,NA,NA,NA,NA,NA,NA,NA,NA,NA,NA,NA,NA,NA,NA,NA,NA
b2ff4,task,flow.Sequence,2_9,NA,NA,completion,14870.34,219383,219378.64,219395.32,234265.66,234268,2023-08-28T17:38:16Z,234282.22,Wettbewerb,ushindani,s,mapendezi,kichocheo,ubaguzi,NA,NA,NA,"c(""distractor1"", ""distractor2"", ""distractor3"")",NA,NA,NA,NA,NA,NA,NA,NA,NA,NA,NA,NA,NA,NA,NA,NA,NA,NA,NA
b2ff4,Shallow Question,html.Page,2_10_0_0,NA,NA,form submission,6099.78,234270,234265.66,234282.22,240382,240383,2023-08-28T17:38:22Z,240383.7,Konkurrent,mshindani,s,msemaji,mvutaji,kipukusa,mshindani,NA,NA,"c(""distractor1"", ""distractor2"", ""distractor3"")",NA,NA,NA,NA,NA,NA,NA,NA,NA,NA,NA,NA,NA,NA,NA,NA,NA,NA,NA
b2ff4,Save data screen,canvas.Screen,2_10_0_1,NA,NA,timeout,500.12,240386,240378.14,240383.7,240867.14,240874,2023-08-28T17:38:22Z,240883.82,Konkurrent,mshindani,s,msemaji,mvutaji,kipukusa,NA,NA,1,"c(""distractor1"", ""distractor2"", ""distractor3"")",NA,NA,NA,NA,NA,NA,NA,NA,NA,NA,NA,NA,NA,NA,NA,NA,NA,NA,NA
b2ff4,shallow,flow.Sequence,2_10_0,NA,NA,completion,6584.92,234269,234265.66,234282.22,240867.14,240877,2023-08-28T17:38:22Z,240883.82,Konkurrent,mshindani,s,msemaji,mvutaji,kipukusa,NA,NA,NA,"c(""distractor1"", ""distractor2"", ""distractor3"")",NA,NA,NA,NA,NA,NA,NA,NA,NA,NA,NA,NA,NA,NA,NA,NA,NA,NA,NA
b2ff4,task,flow.Sequence,2_10,NA,NA,completion,6584.92,234269,234265.66,234282.22,240867.14,240878,2023-08-28T17:38:22Z,240883.82,Konkurrent,mshindani,s,msemaji,mvutaji,kipukusa,NA,NA,NA,"c(""distractor1"", ""distractor2"", ""distractor3"")",NA,NA,NA,NA,NA,NA,NA,NA,NA,NA,NA,NA,NA,NA,NA,NA,NA,NA,NA
b2ff4,Shallow Question,html.Page,2_11_0_0,NA,NA,form submission,13770.18,240880,240867.14,240883.82,254654,254659,2023-08-28T17:38:36Z,254670.62,Ausschluss,kutengwa,s,ununuzi,taratibu,madeni,ununuzi,NA,NA,"c(""distractor1"", ""distractor2"", ""distractor3"")",NA,NA,NA,NA,NA,NA,NA,NA,NA,NA,NA,NA,NA,NA,NA,NA,NA,NA,NA
b2ff4,Save data screen,canvas.Screen,2_11_0_1,NA,NA,timeout,500.22,254674,254646.76,254670.62,255154.16,255156,2023-08-28T17:38:36Z,255170.84,Ausschluss,kutengwa,s,ununuzi,taratibu,madeni,NA,NA,0,"c(""distractor1"", ""distractor2"", ""distractor3"")",NA,NA,NA,NA,NA,NA,NA,NA,NA,NA,NA,NA,NA,NA,NA,NA,NA,NA,NA
b2ff4,shallow,flow.Sequence,2_11_0,NA,NA,completion,14270.34,240880,240867.14,240883.82,255154.16,255158,2023-08-28T17:38:36Z,255170.84,Ausschluss,kutengwa,s,ununuzi,taratibu,madeni,NA,NA,NA,"c(""distractor1"", ""distractor2"", ""distractor3"")",NA,NA,NA,NA,NA,NA,NA,NA,NA,NA,NA,NA,NA,NA,NA,NA,NA,NA,NA
b2ff4,task,flow.Sequence,2_11,NA,NA,completion,14270.34,240878,240867.14,240883.82,255154.16,255159,2023-08-28T17:38:36Z,255170.84,Ausschluss,kutengwa,s,ununuzi,taratibu,madeni,NA,NA,NA,"c(""distractor1"", ""distractor2"", ""distractor3"")",NA,NA,NA,NA,NA,NA,NA,NA,NA,NA,NA,NA,NA,NA,NA,NA,NA,NA,NA
b2ff4,Shallow Question,html.Page,2_12_0_0,NA,NA,form submission,11066.16,255162,255154.16,255170.84,266237,266238,2023-08-28T17:38:48Z,266240.2,Vorsorge,tahadhari,s,ufafanuzi,makini,mashambani,tahadhari,NA,NA,"c(""distractor1"", ""distractor2"", ""distractor3"")",NA,NA,NA,NA,NA,NA,NA,NA,NA,NA,NA,NA,NA,NA,NA,NA,NA,NA,NA
b2ff4,Save data screen,canvas.Screen,2_12_0_1,NA,NA,timeout,500,266242,266233.22,266240.2,266723.52,266726,2023-08-28T17:38:48Z,266740.2,Vorsorge,tahadhari,s,ufafanuzi,makini,mashambani,NA,NA,1,"c(""distractor1"", ""distractor2"", ""distractor3"")",NA,NA,NA,NA,NA,NA,NA,NA,NA,NA,NA,NA,NA,NA,NA,NA,NA,NA,NA
b2ff4,shallow,flow.Sequence,2_12_0,NA,NA,completion,11552.68,255161,255154.16,255170.84,266723.52,266727,2023-08-28T17:38:48Z,266740.2,Vorsorge,tahadhari,s,ufafanuzi,makini,mashambani,NA,NA,NA,"c(""distractor1"", ""distractor2"", ""distractor3"")",NA,NA,NA,NA,NA,NA,NA,NA,NA,NA,NA,NA,NA,NA,NA,NA,NA,NA,NA
b2ff4,task,flow.Sequence,2_12,NA,NA,completion,11552.68,255159,255154.16,255170.84,266723.52,266728,2023-08-28T17:38:48Z,266740.2,Vorsorge,tahadhari,s,ufafanuzi,makini,mashambani,NA,NA,NA,"c(""distractor1"", ""distractor2"", ""distractor3"")",NA,NA,NA,NA,NA,NA,NA,NA,NA,NA,NA,NA,NA,NA,NA,NA,NA,NA,NA
b2ff4,Shallow Question,html.Page,2_13_0_0,NA,NA,form submission,8191.8,266730,266723.52,266740.2,274932,274933,2023-08-28T17:38:56Z,274942.24,Polizist,msongora,s,simanzi,mandhari,nidhamu,mandhari,NA,NA,"c(""distractor1"", ""distractor2"", ""distractor3"")",NA,NA,NA,NA,NA,NA,NA,NA,NA,NA,NA,NA,NA,NA,NA,NA,NA,NA,NA
b2ff4,Save data screen,canvas.Screen,2_13_0_1,NA,NA,timeout,500.26000000001,274937,274928.56,274942.24,275425.82,275428,2023-08-28T17:38:57Z,275442.5,Polizist,msongora,s,simanzi,mandhari,nidhamu,NA,NA,0,"c(""distractor1"", ""distractor2"", ""distractor3"")",NA,NA,NA,NA,NA,NA,NA,NA,NA,NA,NA,NA,NA,NA,NA,NA,NA,NA,NA
b2ff4,shallow,flow.Sequence,2_13_0,NA,NA,completion,8685.62,266729,266723.52,266740.2,275425.82,275430,2023-08-28T17:38:57Z,275442.5,Polizist,msongora,s,simanzi,mandhari,nidhamu,NA,NA,NA,"c(""distractor1"", ""distractor2"", ""distractor3"")",NA,NA,NA,NA,NA,NA,NA,NA,NA,NA,NA,NA,NA,NA,NA,NA,NA,NA,NA
b2ff4,task,flow.Sequence,2_13,NA,NA,completion,8685.62,266729,266723.52,266740.2,275425.82,275431,2023-08-28T17:38:57Z,275442.5,Polizist,msongora,s,simanzi,mandhari,nidhamu,NA,NA,NA,"c(""distractor1"", ""distractor2"", ""distractor3"")",NA,NA,NA,NA,NA,NA,NA,NA,NA,NA,NA,NA,NA,NA,NA,NA,NA,NA,NA
b2ff4,Shallow Question,html.Page,2_14_0_0,NA,NA,form submission,8756.5,275432,275425.82,275442.5,284199,284200,2023-08-28T17:39:05Z,284211.24,Verstand,ufahamivu,d,shakawa,hadhari,mhandisi,hadhari,NA,NA,"c(""distractor1"", ""distractor2"", ""distractor3"")",NA,NA,NA,NA,NA,NA,NA,NA,NA,NA,NA,NA,NA,NA,NA,NA,NA,NA,NA
b2ff4,Save data screen,canvas.Screen,2_14_0_1,NA,NA,timeout,500.16000000003,284203,284194.82,284211.24,284694.72,284701,2023-08-28T17:39:06Z,284711.4,Verstand,ufahamivu,d,shakawa,hadhari,mhandisi,NA,NA,0,"c(""distractor1"", ""distractor2"", ""distractor3"")",NA,NA,NA,NA,NA,NA,NA,NA,NA,NA,NA,NA,NA,NA,NA,NA,NA,NA,NA
b2ff4,shallow,flow.Sequence,2_14_0,NA,NA,completion,9252.22,275432,275425.82,275442.5,284694.72,284704,2023-08-28T17:39:06Z,284711.4,Verstand,ufahamivu,d,shakawa,hadhari,mhandisi,NA,NA,NA,"c(""distractor1"", ""distractor2"", ""distractor3"")",NA,NA,NA,NA,NA,NA,NA,NA,NA,NA,NA,NA,NA,NA,NA,NA,NA,NA,NA
b2ff4,task,flow.Sequence,2_14,NA,NA,completion,9252.22,275431,275425.82,275442.5,284694.72,284706,2023-08-28T17:39:06Z,284711.4,Verstand,ufahamivu,d,shakawa,hadhari,mhandisi,NA,NA,NA,"c(""distractor1"", ""distractor2"", ""distractor3"")",NA,NA,NA,NA,NA,NA,NA,NA,NA,NA,NA,NA,NA,NA,NA,NA,NA,NA,NA
b2ff4,Shallow Question,html.Page,2_15_0_0,NA,NA,form submission,7974.6,284708,284694.72,284711.4,292686,292687,2023-08-28T17:39:14Z,292696.68,Gelegenheit,wakati,s,mchanganyiko,kipaumbele,kushuku,wakati,NA,NA,"c(""distractor1"", ""distractor2"", ""distractor3"")",NA,NA,NA,NA,NA,NA,NA,NA,NA,NA,NA,NA,NA,NA,NA,NA,NA,NA,NA
b2ff4,Save data screen,canvas.Screen,2_15_0_1,NA,NA,timeout,505.14000000001,292700,292678.54,292696.68,293180.08,293182,2023-08-28T17:39:14Z,293201.82,Gelegenheit,wakati,s,mchanganyiko,kipaumbele,kushuku,NA,NA,1,"c(""distractor1"", ""distractor2"", ""distractor3"")",NA,NA,NA,NA,NA,NA,NA,NA,NA,NA,NA,NA,NA,NA,NA,NA,NA,NA,NA
b2ff4,shallow,flow.Sequence,2_15_0,NA,NA,completion,8468.68,284708,284694.72,284711.4,293180.08,293183,2023-08-28T17:39:14Z,293201.82,Gelegenheit,wakati,s,mchanganyiko,kipaumbele,kushuku,NA,NA,NA,"c(""distractor1"", ""distractor2"", ""distractor3"")",NA,NA,NA,NA,NA,NA,NA,NA,NA,NA,NA,NA,NA,NA,NA,NA,NA,NA,NA
b2ff4,task,flow.Sequence,2_15,NA,NA,completion,8468.68,284707,284694.72,284711.4,293180.08,293185,2023-08-28T17:39:14Z,293201.82,Gelegenheit,wakati,s,mchanganyiko,kipaumbele,kushuku,NA,NA,NA,"c(""distractor1"", ""distractor2"", ""distractor3"")",NA,NA,NA,NA,NA,NA,NA,NA,NA,NA,NA,NA,NA,NA,NA,NA,NA,NA,NA
b2ff4,retrieval block 2 (multiple choice),flow.Loop,2,NA,NA,completion,163073.54,130096,130089.86,130106.54,293180.08,293185,2023-08-28T17:39:14Z,293201.82,NA,NA,NA,NA,NA,NA,NA,NA,NA,"c(""distractor1"", ""distractor2"", ""distractor3"")",NA,NA,NA,NA,NA,NA,NA,NA,NA,NA,NA,NA,NA,NA,NA,NA,NA,NA,NA
b2ff4,End,canvas.Screen,3,NA,keypress(Space),response,6634.18,293187,293180.08,293201.82,299836,299849,2023-08-28T17:39:21Z,299851.9,NA,NA,NA,NA,NA,NA,NA,NA,NA,NULL,NA,NA,NA,NA,NA,NA,NA,NA,NA,NA,NA,NA,NA,NA,NA,NA,NA,NA,NA
b2ff4,root,flow.Sequence,NA,NA,NA,completion,298994.74,829,824.6,841.26,299836,299851,2023-08-28T17:39:21Z,299851.9,NA,NA,NA,NA,NA,NA,NA,NA,NA,NULL,NA,NA,NA,NA,NA,NA,NA,NA,NA,NA,NA,NA,NA,NA,NA,NA,NA,NA,NA
