observation,sender,sender_type,sender_id,response,response_action,ended_on,duration,time_run,time_render,time_show,time_end,time_commit,timestamp,time_switch,distractors,german,swahili,enc,distractor1,distractor2,distractor3,response_2,x,correct,x_2,url_vp,url_sess,meta_labjs_version,meta_location,meta_user_agent,meta_platform,meta_language,meta_locale,meta_time_zone,meta_timezone_offset,meta_screen_width,meta_screen_height,meta_scroll_width,meta_scroll_height,meta_window_inner_width,meta_window_inner_height,meta_device_pixel_ratio,meta_labjs_build_flavor,meta_labjs_build_commit
2c376,Introduction general,canvas.Screen,0,weiter,keypress(q),response,98074.36,701,699.98,716.64,98791,98811,2023-08-26T14:30:45Z,98813.3,NULL,NA,NA,NA,NA,NA,NA,NA,NA,NA,NA,145,1,20.2.4,https://neurocog.fernuni.ch/studies/vweber/jbaenninger/encoding_immediate/index.html?vp=145&sess=1,Mozilla/5.0 (Windows NT 10.0; Win64; x64; rv:109.0) Gecko/20100101 Firefox/116.0,Win32,de,de-CH,Europe/Zurich,-120,1500,1000,1500,783,1500,831,2,production,f5b4a49f956347addd546a832a3327688c2c0fef
2c376,Introduction practice,canvas.Screen,1_0,NA,keypress(Space),response,7680.7,98813,98813.08,98813.3,106494,106513,2023-08-26T14:30:52Z,106526.06,NULL,NA,NA,NA,NA,NA,NA,NA,NA,NA,NA,NA,NA,NA,NA,NA,NA,NA,NA,NA,NA,NA,NA,NA,NA,NA,NA,NA,NA,NA
2c376,Deep Question,html.Page,1_1_0_0_0,NA,NA,form submission,23127.94,106514,106514.52,106526.06,129654,129655,2023-08-26T14:31:16Z,129665.14,"c(""distractor1"", ""distractor2"", ""distractor3"")",Gesundheit,salama,d,NA,NA,NA,hkhgg,NA,NA,NA,NA,NA,NA,NA,NA,NA,NA,NA,NA,NA,NA,NA,NA,NA,NA,NA,NA,NA,NA
2c376,"""Richtig""-Screen",canvas.Screen,1_1_0_0_1,NA,NA,skipped,NA,129659,NA,NA,129654,129659,2023-08-26T14:31:16Z,129665.14,"c(""distractor1"", ""distractor2"", ""distractor3"")",Gesundheit,salama,d,NA,NA,NA,NA,NA,NA,NA,NA,NA,NA,NA,NA,NA,NA,NA,NA,NA,NA,NA,NA,NA,NA,NA,NA,NA,NA
2c376,"""Falsch""-Screen",canvas.Screen,1_1_0_0_2,NA,NA,timeout,5001.2,129661,129650,129665.14,134649.68,134653,2023-08-26T14:31:21Z,134666.34,"c(""distractor1"", ""distractor2"", ""distractor3"")",Gesundheit,salama,d,NA,NA,NA,NA,NA,0,NA,NA,NA,NA,NA,NA,NA,NA,NA,NA,NA,NA,NA,NA,NA,NA,NA,NA,NA,NA
2c376,deep,flow.Sequence,1_1_0_0,NA,NA,completion,28123.62,106514,106514.52,106526.06,134649.68,134654,2023-08-26T14:31:21Z,134666.34,"c(""distractor1"", ""distractor2"", ""distractor3"")",Gesundheit,salama,d,NA,NA,NA,NA,NA,NA,NA,NA,NA,NA,NA,NA,NA,NA,NA,NA,NA,NA,NA,NA,NA,NA,NA,NA,NA,NA
2c376,shallow,flow.Sequence,1_1_0_1,NA,NA,skipped,NA,134656,NA,NA,134649.68,134657,2023-08-26T14:31:21Z,134666.34,"c(""distractor1"", ""distractor2"", ""distractor3"")",Gesundheit,salama,d,NA,NA,NA,NA,NA,NA,NA,NA,NA,NA,NA,NA,NA,NA,NA,NA,NA,NA,NA,NA,NA,NA,NA,NA,NA,NA
2c376,task,flow.Sequence,1_1_0,NA,NA,completion,28123.62,106514,106514.52,106526.06,134649.68,134658,2023-08-26T14:31:21Z,134666.34,"c(""distractor1"", ""distractor2"", ""distractor3"")",Gesundheit,salama,d,NA,NA,NA,NA,NA,NA,NA,NA,NA,NA,NA,NA,NA,NA,NA,NA,NA,NA,NA,NA,NA,NA,NA,NA,NA,NA
2c376,Deep Question,html.Page,1_1_1_0_0,NA,NA,form submission,8263.66,134660,134649.68,134666.34,142930,142930,2023-08-26T14:31:29Z,142935.08,"c(""distractor1"", ""distractor2"", ""distractor3"")",Schatten,kivuli,d,NA,NA,NA,aaaa,NA,NA,NA,NA,NA,NA,NA,NA,NA,NA,NA,NA,NA,NA,NA,NA,NA,NA,NA,NA,NA,NA
2c376,"""Richtig""-Screen",canvas.Screen,1_1_1_0_1,NA,NA,skipped,NA,142933,NA,NA,142930,142933,2023-08-26T14:31:29Z,142935.08,"c(""distractor1"", ""distractor2"", ""distractor3"")",Schatten,kivuli,d,NA,NA,NA,NA,NA,NA,NA,NA,NA,NA,NA,NA,NA,NA,NA,NA,NA,NA,NA,NA,NA,NA,NA,NA,NA,NA
2c376,"""Falsch""-Screen",canvas.Screen,1_1_1_0_2,NA,NA,timeout,5001.24,142934,142928.28,142935.08,147919.66,147925,2023-08-26T14:31:34Z,147936.32,"c(""distractor1"", ""distractor2"", ""distractor3"")",Schatten,kivuli,d,NA,NA,NA,NA,NA,0,NA,NA,NA,NA,NA,NA,NA,NA,NA,NA,NA,NA,NA,NA,NA,NA,NA,NA,NA,NA
2c376,deep,flow.Sequence,1_1_1_0,NA,NA,completion,13253.32,134660,134649.68,134666.34,147919.66,147928,2023-08-26T14:31:34Z,147936.32,"c(""distractor1"", ""distractor2"", ""distractor3"")",Schatten,kivuli,d,NA,NA,NA,NA,NA,NA,NA,NA,NA,NA,NA,NA,NA,NA,NA,NA,NA,NA,NA,NA,NA,NA,NA,NA,NA,NA
2c376,shallow,flow.Sequence,1_1_1_1,NA,NA,skipped,NA,147929,NA,NA,147919.66,147929,2023-08-26T14:31:34Z,147936.32,"c(""distractor1"", ""distractor2"", ""distractor3"")",Schatten,kivuli,d,NA,NA,NA,NA,NA,NA,NA,NA,NA,NA,NA,NA,NA,NA,NA,NA,NA,NA,NA,NA,NA,NA,NA,NA,NA,NA
2c376,task,flow.Sequence,1_1_1,NA,NA,completion,13253.32,134659,134649.68,134666.34,147919.66,147930,2023-08-26T14:31:34Z,147936.32,"c(""distractor1"", ""distractor2"", ""distractor3"")",Schatten,kivuli,d,NA,NA,NA,NA,NA,NA,NA,NA,NA,NA,NA,NA,NA,NA,NA,NA,NA,NA,NA,NA,NA,NA,NA,NA,NA,NA
2c376,deep,flow.Sequence,1_1_2_0,NA,NA,skipped,NA,147931,NA,NA,147919.66,147932,2023-08-26T14:31:34Z,147936.32,"c(""distractor1"", ""distractor2"", ""distractor3"")",Gegenwart,hadhara,s,katiba,jokofu,mikopo,NA,NA,NA,NA,NA,NA,NA,NA,NA,NA,NA,NA,NA,NA,NA,NA,NA,NA,NA,NA,NA,NA,NA
2c376,Shallow Question,html.Page,1_1_2_1_0,NA,NA,form submission,10565.68,147932,147919.66,147936.32,158502,158503,2023-08-26T14:31:44Z,158505.62,"c(""distractor1"", ""distractor2"", ""distractor3"")",Gegenwart,hadhara,s,katiba,jokofu,mikopo,hadhara,NA,NA,NA,NA,NA,NA,NA,NA,NA,NA,NA,NA,NA,NA,NA,NA,NA,NA,NA,NA,NA,NA
2c376,"""Richtig""-Screen",canvas.Screen,1_1_2_1_1,NA,NA,timeout,5001.2,158508,158500.1,158505.62,163490.14,163492,2023-08-26T14:31:49Z,163506.82,"c(""distractor1"", ""distractor2"", ""distractor3"")",Gegenwart,hadhara,s,katiba,jokofu,mikopo,NA,NA,1,NA,NA,NA,NA,NA,NA,NA,NA,NA,NA,NA,NA,NA,NA,NA,NA,NA,NA,NA,NA
2c376,"""Falsch""-Screen",canvas.Screen,1_1_2_1_2,NA,NA,skipped,NA,163497,NA,NA,163490.14,163497,2023-08-26T14:31:49Z,163506.82,"c(""distractor1"", ""distractor2"", ""distractor3"")",Gegenwart,hadhara,s,katiba,jokofu,mikopo,NA,NA,NA,NA,NA,NA,NA,NA,NA,NA,NA,NA,NA,NA,NA,NA,NA,NA,NA,NA,NA,NA,NA
2c376,shallow,flow.Sequence,1_1_2_1,NA,NA,completion,15553.82,147932,147919.66,147936.32,163490.14,163497,2023-08-26T14:31:49Z,163506.82,"c(""distractor1"", ""distractor2"", ""distractor3"")",Gegenwart,hadhara,s,katiba,jokofu,mikopo,NA,NA,NA,NA,NA,NA,NA,NA,NA,NA,NA,NA,NA,NA,NA,NA,NA,NA,NA,NA,NA,NA,NA
2c376,task,flow.Sequence,1_1_2,NA,NA,completion,15553.82,147931,147919.66,147936.32,163490.14,163497,2023-08-26T14:31:49Z,163506.82,"c(""distractor1"", ""distractor2"", ""distractor3"")",Gegenwart,hadhara,s,katiba,jokofu,mikopo,NA,NA,NA,NA,NA,NA,NA,NA,NA,NA,NA,NA,NA,NA,NA,NA,NA,NA,NA,NA,NA,NA,NA
2c376,deep,flow.Sequence,1_1_3_0,NA,NA,skipped,NA,163498,NA,NA,163490.14,163498,2023-08-26T14:31:49Z,163506.82,"c(""distractor1"", ""distractor2"", ""distractor3"")",Rückhalt,msaada,s,muhula,auwali,kiwimbe,NA,NA,NA,NA,NA,NA,NA,NA,NA,NA,NA,NA,NA,NA,NA,NA,NA,NA,NA,NA,NA,NA,NA
2c376,Shallow Question,html.Page,1_1_3_1_0,NA,NA,form submission,11744.18,163498,163490.14,163506.82,175251,175251,2023-08-26T14:32:01Z,175259.74,"c(""distractor1"", ""distractor2"", ""distractor3"")",Rückhalt,msaada,s,muhula,auwali,kiwimbe,auwali,NA,NA,NA,NA,NA,NA,NA,NA,NA,NA,NA,NA,NA,NA,NA,NA,NA,NA,NA,NA,NA,NA
2c376,"""Richtig""-Screen",canvas.Screen,1_1_3_1_1,NA,NA,skipped,NA,175253,NA,NA,175251,175253,2023-08-26T14:32:01Z,175259.74,"c(""distractor1"", ""distractor2"", ""distractor3"")",Rückhalt,msaada,s,muhula,auwali,kiwimbe,NA,NA,NA,NA,NA,NA,NA,NA,NA,NA,NA,NA,NA,NA,NA,NA,NA,NA,NA,NA,NA,NA,NA
2c376,"""Falsch""-Screen",canvas.Screen,1_1_3_1_2,NA,NA,timeout,5001.26,175255,175249.18,175259.74,180244.34,180246,2023-08-26T14:32:06Z,180261,"c(""distractor1"", ""distractor2"", ""distractor3"")",Rückhalt,msaada,s,muhula,auwali,kiwimbe,NA,NA,0,NA,NA,NA,NA,NA,NA,NA,NA,NA,NA,NA,NA,NA,NA,NA,NA,NA,NA,NA,NA
2c376,shallow,flow.Sequence,1_1_3_1,NA,NA,completion,16737.52,163498,163490.14,163506.82,180244.34,180247,2023-08-26T14:32:06Z,180261,"c(""distractor1"", ""distractor2"", ""distractor3"")",Rückhalt,msaada,s,muhula,auwali,kiwimbe,NA,NA,NA,NA,NA,NA,NA,NA,NA,NA,NA,NA,NA,NA,NA,NA,NA,NA,NA,NA,NA,NA,NA
2c376,task,flow.Sequence,1_1_3,NA,NA,completion,16737.52,163498,163490.14,163506.82,180244.34,180248,2023-08-26T14:32:06Z,180261,"c(""distractor1"", ""distractor2"", ""distractor3"")",Rückhalt,msaada,s,muhula,auwali,kiwimbe,NA,NA,NA,NA,NA,NA,NA,NA,NA,NA,NA,NA,NA,NA,NA,NA,NA,NA,NA,NA,NA,NA,NA
2c376,Deep Question,html.Page,1_1_4_0_0,NA,NA,form submission,6458,180250,180244.34,180261,186719,186719,2023-08-26T14:32:13Z,186729.26,"c(""distractor1"", ""distractor2"", ""distractor3"")",Qualität,mtindo,d,NA,NA,NA,hdzhf,NA,NA,NA,NA,NA,NA,NA,NA,NA,NA,NA,NA,NA,NA,NA,NA,NA,NA,NA,NA,NA,NA
2c376,"""Richtig""-Screen",canvas.Screen,1_1_4_0_1,NA,NA,skipped,NA,186722,NA,NA,186719,186722,2023-08-26T14:32:13Z,186729.26,"c(""distractor1"", ""distractor2"", ""distractor3"")",Qualität,mtindo,d,NA,NA,NA,NA,NA,NA,NA,NA,NA,NA,NA,NA,NA,NA,NA,NA,NA,NA,NA,NA,NA,NA,NA,NA,NA,NA
2c376,"""Falsch""-Screen",canvas.Screen,1_1_4_0_2,NA,NA,timeout,5001.2,186725,186718,186729.26,191713.8,191716,2023-08-26T14:32:18Z,191730.46,"c(""distractor1"", ""distractor2"", ""distractor3"")",Qualität,mtindo,d,NA,NA,NA,NA,NA,0,NA,NA,NA,NA,NA,NA,NA,NA,NA,NA,NA,NA,NA,NA,NA,NA,NA,NA,NA,NA
2c376,deep,flow.Sequence,1_1_4_0,NA,NA,completion,11452.8,180250,180244.34,180261,191713.8,191716,2023-08-26T14:32:18Z,191730.46,"c(""distractor1"", ""distractor2"", ""distractor3"")",Qualität,mtindo,d,NA,NA,NA,NA,NA,NA,NA,NA,NA,NA,NA,NA,NA,NA,NA,NA,NA,NA,NA,NA,NA,NA,NA,NA,NA,NA
2c376,shallow,flow.Sequence,1_1_4_1,NA,NA,skipped,NA,191717,NA,NA,191713.8,191717,2023-08-26T14:32:18Z,191730.46,"c(""distractor1"", ""distractor2"", ""distractor3"")",Qualität,mtindo,d,NA,NA,NA,NA,NA,NA,NA,NA,NA,NA,NA,NA,NA,NA,NA,NA,NA,NA,NA,NA,NA,NA,NA,NA,NA,NA
2c376,task,flow.Sequence,1_1_4,NA,NA,completion,11452.8,180249,180244.34,180261,191713.8,191718,2023-08-26T14:32:18Z,191730.46,"c(""distractor1"", ""distractor2"", ""distractor3"")",Qualität,mtindo,d,NA,NA,NA,NA,NA,NA,NA,NA,NA,NA,NA,NA,NA,NA,NA,NA,NA,NA,NA,NA,NA,NA,NA,NA,NA,NA
2c376,deep,flow.Sequence,1_1_5_0,NA,NA,skipped,NA,191718,NA,NA,191713.8,191718,2023-08-26T14:32:18Z,191730.46,"c(""distractor1"", ""distractor2"", ""distractor3"")",Kritik,lawama,s,dereva,nafasi,mawazo,NA,NA,NA,NA,NA,NA,NA,NA,NA,NA,NA,NA,NA,NA,NA,NA,NA,NA,NA,NA,NA,NA,NA
2c376,Shallow Question,html.Page,1_1_5_1_0,NA,NA,form submission,12634.54,191719,191713.8,191730.46,204365,204367,2023-08-26T14:32:30Z,204366.88,"c(""distractor1"", ""distractor2"", ""distractor3"")",Kritik,lawama,s,dereva,nafasi,mawazo,mawazo,NA,NA,NA,NA,NA,NA,NA,NA,NA,NA,NA,NA,NA,NA,NA,NA,NA,NA,NA,NA,NA,NA
2c376,"""Richtig""-Screen",canvas.Screen,1_1_5_1_1,NA,NA,skipped,NA,204373,NA,NA,204365,204373,2023-08-26T14:32:30Z,204366.88,"c(""distractor1"", ""distractor2"", ""distractor3"")",Kritik,lawama,s,dereva,nafasi,mawazo,NA,NA,NA,NA,NA,NA,NA,NA,NA,NA,NA,NA,NA,NA,NA,NA,NA,NA,NA,NA,NA,NA,NA
2c376,"""Falsch""-Screen",canvas.Screen,1_1_5_1_2,NA,NA,timeout,5001.26,204375,204362.26,204366.88,209351.48,209352,2023-08-26T14:32:35Z,209368.14,"c(""distractor1"", ""distractor2"", ""distractor3"")",Kritik,lawama,s,dereva,nafasi,mawazo,NA,NA,0,NA,NA,NA,NA,NA,NA,NA,NA,NA,NA,NA,NA,NA,NA,NA,NA,NA,NA,NA,NA
2c376,shallow,flow.Sequence,1_1_5_1,NA,NA,completion,17621.02,191719,191713.8,191730.46,209351.48,209353,2023-08-26T14:32:35Z,209368.14,"c(""distractor1"", ""distractor2"", ""distractor3"")",Kritik,lawama,s,dereva,nafasi,mawazo,NA,NA,NA,NA,NA,NA,NA,NA,NA,NA,NA,NA,NA,NA,NA,NA,NA,NA,NA,NA,NA,NA,NA
2c376,task,flow.Sequence,1_1_5,NA,NA,completion,17621.02,191718,191713.8,191730.46,209351.48,209353,2023-08-26T14:32:35Z,209368.14,"c(""distractor1"", ""distractor2"", ""distractor3"")",Kritik,lawama,s,dereva,nafasi,mawazo,NA,NA,NA,NA,NA,NA,NA,NA,NA,NA,NA,NA,NA,NA,NA,NA,NA,NA,NA,NA,NA,NA,NA
2c376,block,flow.Loop,1_1,NA,NA,completion,102825.42,106514,106514.52,106526.06,209351.48,209354,2023-08-26T14:32:35Z,209368.14,"c(""distractor1"", ""distractor2"", ""distractor3"")",NA,NA,NA,NA,NA,NA,NA,NA,NA,NA,NA,NA,NA,NA,NA,NA,NA,NA,NA,NA,NA,NA,NA,NA,NA,NA,NA,NA,NA
2c376,Practice,flow.Sequence,1,NA,NA,completion,110538.18,98813,98813.08,98813.3,209351.48,209354,2023-08-26T14:32:35Z,209368.14,NULL,NA,NA,NA,NA,NA,NA,NA,NA,NA,NA,NA,NA,NA,NA,NA,NA,NA,NA,NA,NA,NA,NA,NA,NA,NA,NA,NA,NA,NA
2c376,Experiment start,canvas.Screen,2,weiter,keypress(q),response,27422.86,209354,209351.48,209368.14,236791,236810,2023-08-26T14:33:03Z,236922.1,NULL,NA,NA,NA,NA,NA,NA,NA,NA,NA,NA,NA,NA,NA,NA,NA,NA,NA,NA,NA,NA,NA,NA,NA,NA,NA,NA,NA,NA,NA
2c376,deep,flow.Sequence,3_0_0_0_0_0,NA,NA,skipped,NA,236921,NA,NA,236791,236922,2023-08-26T14:33:03Z,236922.1,NULL,Notfall,dharura,s,rairai,malalamiko,ahueni,NA,sdf,NA,0,NA,NA,NA,NA,NA,NA,NA,NA,NA,NA,NA,NA,NA,NA,NA,NA,NA,NA,NA
2c376,Shallow Question,html.Page,3_0_0_0_0_1_0,NA,NA,form submission,10970.9,236922,236921.88,236922.1,247893,247893,2023-08-26T14:33:14Z,247894.34,NULL,Notfall,dharura,s,rairai,malalamiko,ahueni,rairai,NA,NA,0,NA,NA,NA,NA,NA,NA,NA,NA,NA,NA,NA,NA,NA,NA,NA,NA,NA,NA,NA
2c376,"""Richtig""-Screen",canvas.Screen,3_0_0_0_0_1_1,NA,NA,skipped,NA,247895,NA,NA,247893,247895,2023-08-26T14:33:14Z,247894.34,NULL,Notfall,dharura,s,rairai,malalamiko,ahueni,NA,sdf,NA,0,NA,NA,NA,NA,NA,NA,NA,NA,NA,NA,NA,NA,NA,NA,NA,NA,NA,NA,NA
2c376,"""Falsch""-Screen",canvas.Screen,3_0_0_0_0_1_2,NA,NA,timeout,5001.34,247897,247894.34,247894.34,252879,252881,2023-08-26T14:33:19Z,252895.68,NULL,Notfall,dharura,s,rairai,malalamiko,ahueni,NA,sdf,0,0,NA,NA,NA,NA,NA,NA,NA,NA,NA,NA,NA,NA,NA,NA,NA,NA,NA,NA,NA
2c376,shallow,flow.Sequence,3_0_0_0_0_1,NA,NA,completion,15956.9,236922,236921.88,236922.1,252879,252882,2023-08-26T14:33:19Z,252895.68,NULL,Notfall,dharura,s,rairai,malalamiko,ahueni,NA,sdf,NA,0,NA,NA,NA,NA,NA,NA,NA,NA,NA,NA,NA,NA,NA,NA,NA,NA,NA,NA,NA
2c376,task,flow.Sequence,3_0_0_0_0,NA,NA,completion,15956.9,236921,236921.88,236922.1,252879,252882,2023-08-26T14:33:19Z,252895.68,NULL,Notfall,dharura,s,rairai,malalamiko,ahueni,NA,sdf,NA,0,NA,NA,NA,NA,NA,NA,NA,NA,NA,NA,NA,NA,NA,NA,NA,NA,NA,NA,NA
2c376,deep,flow.Sequence,3_0_0_0_1_0,NA,NA,skipped,NA,252883,NA,NA,252879,252884,2023-08-26T14:33:19Z,252895.68,NULL,Gelegenheit,wakati,s,mchanganyiko,kipaumbele,kushuku,NA,sdf,NA,0,NA,NA,NA,NA,NA,NA,NA,NA,NA,NA,NA,NA,NA,NA,NA,NA,NA,NA,NA
2c376,Shallow Question,html.Page,3_0_0_0_1_1_0,NA,NA,form submission,8378.32,252884,252879,252895.68,261274,261274,2023-08-26T14:33:27Z,261280.96,NULL,Gelegenheit,wakati,s,mchanganyiko,kipaumbele,kushuku,wakati,NA,NA,0,NA,NA,NA,NA,NA,NA,NA,NA,NA,NA,NA,NA,NA,NA,NA,NA,NA,NA,NA
2c376,"""Richtig""-Screen",canvas.Screen,3_0_0_0_1_1_1,NA,NA,timeout,5017.88,261276,261273.28,261280.96,266265.66,266271,2023-08-26T14:33:32Z,266298.84,NULL,Gelegenheit,wakati,s,mchanganyiko,kipaumbele,kushuku,NA,sdf,1,0,NA,NA,NA,NA,NA,NA,NA,NA,NA,NA,NA,NA,NA,NA,NA,NA,NA,NA,NA
2c376,"""Falsch""-Screen",canvas.Screen,3_0_0_0_1_1_2,NA,NA,skipped,NA,266298,NA,NA,266265.66,266298,2023-08-26T14:33:32Z,266298.84,NULL,Gelegenheit,wakati,s,mchanganyiko,kipaumbele,kushuku,NA,sdf,NA,0,NA,NA,NA,NA,NA,NA,NA,NA,NA,NA,NA,NA,NA,NA,NA,NA,NA,NA,NA
2c376,shallow,flow.Sequence,3_0_0_0_1_1,NA,NA,completion,13369.98,252884,252879,252895.68,266265.66,266299,2023-08-26T14:33:32Z,266298.84,NULL,Gelegenheit,wakati,s,mchanganyiko,kipaumbele,kushuku,NA,sdf,NA,0,NA,NA,NA,NA,NA,NA,NA,NA,NA,NA,NA,NA,NA,NA,NA,NA,NA,NA,NA
2c376,task,flow.Sequence,3_0_0_0_1,NA,NA,completion,13369.98,252883,252879,252895.68,266265.66,266300,2023-08-26T14:33:32Z,266298.84,NULL,Gelegenheit,wakati,s,mchanganyiko,kipaumbele,kushuku,NA,sdf,NA,0,NA,NA,NA,NA,NA,NA,NA,NA,NA,NA,NA,NA,NA,NA,NA,NA,NA,NA,NA
2c376,deep,flow.Sequence,3_0_0_0_2_0,NA,NA,skipped,NA,266301,NA,NA,266265.66,266301,2023-08-26T14:33:32Z,266298.84,NULL,Ausschluss,kutengwa,s,ununuzi,taratibu,madeni,NA,sdf,NA,0,NA,NA,NA,NA,NA,NA,NA,NA,NA,NA,NA,NA,NA,NA,NA,NA,NA,NA,NA
2c376,Shallow Question,html.Page,3_0_0_0_2_1_0,NA,NA,form submission,13586.16,266302,266265.66,266298.84,279885,279885,2023-08-26T14:33:46Z,279885.54,NULL,Ausschluss,kutengwa,s,ununuzi,taratibu,madeni,taratibu,NA,NA,0,NA,NA,NA,NA,NA,NA,NA,NA,NA,NA,NA,NA,NA,NA,NA,NA,NA,NA,NA
2c376,"""Richtig""-Screen",canvas.Screen,3_0_0_0_2_1_1,NA,NA,skipped,NA,279888,NA,NA,279885,279888,2023-08-26T14:33:46Z,279885.54,NULL,Ausschluss,kutengwa,s,ununuzi,taratibu,madeni,NA,sdf,NA,0,NA,NA,NA,NA,NA,NA,NA,NA,NA,NA,NA,NA,NA,NA,NA,NA,NA,NA,NA
2c376,"""Falsch""-Screen",canvas.Screen,3_0_0_0_2_1_2,NA,NA,timeout,5001.2,279891,279882.84,279885.54,284870.08,284872,2023-08-26T14:33:51Z,284886.74,NULL,Ausschluss,kutengwa,s,ununuzi,taratibu,madeni,NA,sdf,0,0,NA,NA,NA,NA,NA,NA,NA,NA,NA,NA,NA,NA,NA,NA,NA,NA,NA,NA,NA
2c376,shallow,flow.Sequence,3_0_0_0_2_1,NA,NA,completion,18571.24,266302,266265.66,266298.84,284870.08,284873,2023-08-26T14:33:51Z,284886.74,NULL,Ausschluss,kutengwa,s,ununuzi,taratibu,madeni,NA,sdf,NA,0,NA,NA,NA,NA,NA,NA,NA,NA,NA,NA,NA,NA,NA,NA,NA,NA,NA,NA,NA
2c376,task,flow.Sequence,3_0_0_0_2,NA,NA,completion,18571.24,266301,266265.66,266298.84,284870.08,284874,2023-08-26T14:33:51Z,284886.74,NULL,Ausschluss,kutengwa,s,ununuzi,taratibu,madeni,NA,sdf,NA,0,NA,NA,NA,NA,NA,NA,NA,NA,NA,NA,NA,NA,NA,NA,NA,NA,NA,NA,NA
2c376,Deep Question,html.Page,3_0_0_0_3_0_0,NA,NA,form submission,5559.26,284875,284870.08,284886.74,290446,290446,2023-08-26T14:33:56Z,290454.8,NULL,Ergänzung,kijalizo,d,NA,NA,NA,hhhh,NA,NA,0,NA,NA,NA,NA,NA,NA,NA,NA,NA,NA,NA,NA,NA,NA,NA,NA,NA,NA,NA
2c376,"""Richtig""-Screen",canvas.Screen,3_0_0_0_3_0_1,NA,NA,skipped,NA,290448,NA,NA,290446,290448,2023-08-26T14:33:56Z,290454.8,NULL,Ergänzung,kijalizo,d,NA,NA,NA,NA,sdf,NA,0,NA,NA,NA,NA,NA,NA,NA,NA,NA,NA,NA,NA,NA,NA,NA,NA,NA,NA,NA
2c376,"""Falsch""-Screen",canvas.Screen,3_0_0_0_3_0_2,NA,NA,timeout,5001.36,290451,290444.56,290454.8,295439.5,295442,2023-08-26T14:34:01Z,295456.16,NULL,Ergänzung,kijalizo,d,NA,NA,NA,NA,sdf,0,0,NA,NA,NA,NA,NA,NA,NA,NA,NA,NA,NA,NA,NA,NA,NA,NA,NA,NA,NA
2c376,deep,flow.Sequence,3_0_0_0_3_0,NA,NA,completion,10552.76,284874,284870.08,284886.74,295439.5,295443,2023-08-26T14:34:01Z,295456.16,NULL,Ergänzung,kijalizo,d,NA,NA,NA,NA,sdf,NA,0,NA,NA,NA,NA,NA,NA,NA,NA,NA,NA,NA,NA,NA,NA,NA,NA,NA,NA,NA
2c376,shallow,flow.Sequence,3_0_0_0_3_1,NA,NA,skipped,NA,295444,NA,NA,295439.5,295444,2023-08-26T14:34:01Z,295456.16,NULL,Ergänzung,kijalizo,d,NA,NA,NA,NA,sdf,NA,0,NA,NA,NA,NA,NA,NA,NA,NA,NA,NA,NA,NA,NA,NA,NA,NA,NA,NA,NA
2c376,task,flow.Sequence,3_0_0_0_3,NA,NA,completion,10552.76,284874,284870.08,284886.74,295439.5,295445,2023-08-26T14:34:01Z,295456.16,NULL,Ergänzung,kijalizo,d,NA,NA,NA,NA,sdf,NA,0,NA,NA,NA,NA,NA,NA,NA,NA,NA,NA,NA,NA,NA,NA,NA,NA,NA,NA,NA
2c376,Deep Question,html.Page,3_0_0_0_4_0_0,NA,NA,form submission,9338.84,295445,295439.5,295456.16,304795,304795,2023-08-26T14:34:11Z,304808.34,NULL,Widerstand,usulubu,d,NA,NA,NA,ururn,NA,NA,0,NA,NA,NA,NA,NA,NA,NA,NA,NA,NA,NA,NA,NA,NA,NA,NA,NA,NA,NA
2c376,"""Richtig""-Screen",canvas.Screen,3_0_0_0_4_0_1,NA,NA,skipped,NA,304798,NA,NA,304795,304798,2023-08-26T14:34:11Z,304808.34,NULL,Widerstand,usulubu,d,NA,NA,NA,NA,sdf,NA,0,NA,NA,NA,NA,NA,NA,NA,NA,NA,NA,NA,NA,NA,NA,NA,NA,NA,NA,NA
2c376,"""Falsch""-Screen",canvas.Screen,3_0_0_0_4_0_2,NA,NA,timeout,5001.26,304800,304793.82,304808.34,309793,309793,2023-08-26T14:34:16Z,309809.6,NULL,Widerstand,usulubu,d,NA,NA,NA,NA,sdf,0,0,NA,NA,NA,NA,NA,NA,NA,NA,NA,NA,NA,NA,NA,NA,NA,NA,NA,NA,NA
2c376,deep,flow.Sequence,3_0_0_0_4_0,NA,NA,completion,14336.84,295445,295439.5,295456.16,309793,309794,2023-08-26T14:34:16Z,309809.6,NULL,Widerstand,usulubu,d,NA,NA,NA,NA,sdf,NA,0,NA,NA,NA,NA,NA,NA,NA,NA,NA,NA,NA,NA,NA,NA,NA,NA,NA,NA,NA
2c376,shallow,flow.Sequence,3_0_0_0_4_1,NA,NA,skipped,NA,309794,NA,NA,309793,309794,2023-08-26T14:34:16Z,309809.6,NULL,Widerstand,usulubu,d,NA,NA,NA,NA,sdf,NA,0,NA,NA,NA,NA,NA,NA,NA,NA,NA,NA,NA,NA,NA,NA,NA,NA,NA,NA,NA
2c376,task,flow.Sequence,3_0_0_0_4,NA,NA,completion,14336.84,295445,295439.5,295456.16,309793,309795,2023-08-26T14:34:16Z,309809.6,NULL,Widerstand,usulubu,d,NA,NA,NA,NA,sdf,NA,0,NA,NA,NA,NA,NA,NA,NA,NA,NA,NA,NA,NA,NA,NA,NA,NA,NA,NA,NA
2c376,Deep Question,html.Page,3_0_0_0_5_0_0,NA,NA,form submission,8382.4,309795,309793,309809.6,318192,318192,2023-08-26T14:34:24Z,318211.68,NULL,Verstand,ufahamivu,d,NA,NA,NA,klsdk,NA,NA,0,NA,NA,NA,NA,NA,NA,NA,NA,NA,NA,NA,NA,NA,NA,NA,NA,NA,NA,NA
2c376,"""Richtig""-Screen",canvas.Screen,3_0_0_0_5_0_1,NA,NA,skipped,NA,318194,NA,NA,318192,318194,2023-08-26T14:34:24Z,318211.68,NULL,Verstand,ufahamivu,d,NA,NA,NA,NA,sdf,NA,0,NA,NA,NA,NA,NA,NA,NA,NA,NA,NA,NA,NA,NA,NA,NA,NA,NA,NA,NA
2c376,"""Falsch""-Screen",canvas.Screen,3_0_0_0_5_0_2,NA,NA,timeout,5001.22,318197,318195.02,318211.68,323196.24,323204,2023-08-26T14:34:29Z,323212.9,NULL,Verstand,ufahamivu,d,NA,NA,NA,NA,sdf,0,0,NA,NA,NA,NA,NA,NA,NA,NA,NA,NA,NA,NA,NA,NA,NA,NA,NA,NA,NA
2c376,deep,flow.Sequence,3_0_0_0_5_0,NA,NA,completion,13386.64,309795,309793,309809.6,323196.24,323208,2023-08-26T14:34:29Z,323212.9,NULL,Verstand,ufahamivu,d,NA,NA,NA,NA,sdf,NA,0,NA,NA,NA,NA,NA,NA,NA,NA,NA,NA,NA,NA,NA,NA,NA,NA,NA,NA,NA
2c376,shallow,flow.Sequence,3_0_0_0_5_1,NA,NA,skipped,NA,323209,NA,NA,323196.24,323210,2023-08-26T14:34:29Z,323212.9,NULL,Verstand,ufahamivu,d,NA,NA,NA,NA,sdf,NA,0,NA,NA,NA,NA,NA,NA,NA,NA,NA,NA,NA,NA,NA,NA,NA,NA,NA,NA,NA
2c376,task,flow.Sequence,3_0_0_0_5,NA,NA,completion,13386.64,309795,309793,309809.6,323196.24,323212,2023-08-26T14:34:29Z,323212.9,NULL,Verstand,ufahamivu,d,NA,NA,NA,NA,sdf,NA,0,NA,NA,NA,NA,NA,NA,NA,NA,NA,NA,NA,NA,NA,NA,NA,NA,NA,NA,NA
2c376,deep,flow.Sequence,3_0_0_0_6_0,NA,NA,skipped,NA,323213,NA,NA,323196.24,323213,2023-08-26T14:34:29Z,323212.9,NULL,Vergnügen,kichekesho,s,dubwana,mpanuko,mtesaji,NA,sdf,NA,0,NA,NA,NA,NA,NA,NA,NA,NA,NA,NA,NA,NA,NA,NA,NA,NA,NA,NA,NA
2c376,Shallow Question,html.Page,3_0_0_0_6_1_0,NA,NA,form submission,7080.1,323215,323196.24,323212.9,330293,330293,2023-08-26T14:34:36Z,330297.98,NULL,Vergnügen,kichekesho,s,dubwana,mpanuko,mtesaji,kichekesho,NA,NA,0,NA,NA,NA,NA,NA,NA,NA,NA,NA,NA,NA,NA,NA,NA,NA,NA,NA,NA,NA
2c376,"""Richtig""-Screen",canvas.Screen,3_0_0_0_6_1_1,NA,NA,timeout,5001.3,330297,330290.2,330297.98,335282.62,335285,2023-08-26T14:34:41Z,335299.28,NULL,Vergnügen,kichekesho,s,dubwana,mpanuko,mtesaji,NA,sdf,1,0,NA,NA,NA,NA,NA,NA,NA,NA,NA,NA,NA,NA,NA,NA,NA,NA,NA,NA,NA
2c376,"""Falsch""-Screen",canvas.Screen,3_0_0_0_6_1_2,NA,NA,skipped,NA,335289,NA,NA,335282.62,335289,2023-08-26T14:34:41Z,335299.28,NULL,Vergnügen,kichekesho,s,dubwana,mpanuko,mtesaji,NA,sdf,NA,0,NA,NA,NA,NA,NA,NA,NA,NA,NA,NA,NA,NA,NA,NA,NA,NA,NA,NA,NA
2c376,shallow,flow.Sequence,3_0_0_0_6_1,NA,NA,completion,12069.72,323214,323196.24,323212.9,335282.62,335289,2023-08-26T14:34:41Z,335299.28,NULL,Vergnügen,kichekesho,s,dubwana,mpanuko,mtesaji,NA,sdf,NA,0,NA,NA,NA,NA,NA,NA,NA,NA,NA,NA,NA,NA,NA,NA,NA,NA,NA,NA,NA
2c376,task,flow.Sequence,3_0_0_0_6,NA,NA,completion,12069.72,323212,323196.24,323212.9,335282.62,335290,2023-08-26T14:34:41Z,335299.28,NULL,Vergnügen,kichekesho,s,dubwana,mpanuko,mtesaji,NA,sdf,NA,0,NA,NA,NA,NA,NA,NA,NA,NA,NA,NA,NA,NA,NA,NA,NA,NA,NA,NA,NA
2c376,Deep Question,html.Page,3_0_0_0_7_0_0,NA,NA,form submission,5599.72,335290,335282.62,335299.28,340899,340900,2023-08-26T14:34:47Z,340900.6,NULL,Wohlstand,mafanikio,d,NA,NA,NA,zdmfh,NA,NA,0,NA,NA,NA,NA,NA,NA,NA,NA,NA,NA,NA,NA,NA,NA,NA,NA,NA,NA,NA
2c376,"""Richtig""-Screen",canvas.Screen,3_0_0_0_7_0_1,NA,NA,skipped,NA,340902,NA,NA,340899,340903,2023-08-26T14:34:47Z,340900.6,NULL,Wohlstand,mafanikio,d,NA,NA,NA,NA,sdf,NA,0,NA,NA,NA,NA,NA,NA,NA,NA,NA,NA,NA,NA,NA,NA,NA,NA,NA,NA,NA
2c376,"""Falsch""-Screen",canvas.Screen,3_0_0_0_7_0_2,NA,NA,timeout,5001.34,340905,340897.18,340900.6,345885.26,345887,2023-08-26T14:34:52Z,345901.94,NULL,Wohlstand,mafanikio,d,NA,NA,NA,NA,sdf,0,0,NA,NA,NA,NA,NA,NA,NA,NA,NA,NA,NA,NA,NA,NA,NA,NA,NA,NA,NA
2c376,deep,flow.Sequence,3_0_0_0_7_0,NA,NA,completion,10585.98,335290,335282.62,335299.28,345885.26,345889,2023-08-26T14:34:52Z,345901.94,NULL,Wohlstand,mafanikio,d,NA,NA,NA,NA,sdf,NA,0,NA,NA,NA,NA,NA,NA,NA,NA,NA,NA,NA,NA,NA,NA,NA,NA,NA,NA,NA
2c376,shallow,flow.Sequence,3_0_0_0_7_1,NA,NA,skipped,NA,345889,NA,NA,345885.26,345889,2023-08-26T14:34:52Z,345901.94,NULL,Wohlstand,mafanikio,d,NA,NA,NA,NA,sdf,NA,0,NA,NA,NA,NA,NA,NA,NA,NA,NA,NA,NA,NA,NA,NA,NA,NA,NA,NA,NA
2c376,task,flow.Sequence,3_0_0_0_7,NA,NA,completion,10585.98,335290,335282.62,335299.28,345885.26,345890,2023-08-26T14:34:52Z,345901.94,NULL,Wohlstand,mafanikio,d,NA,NA,NA,NA,sdf,NA,0,NA,NA,NA,NA,NA,NA,NA,NA,NA,NA,NA,NA,NA,NA,NA,NA,NA,NA,NA
2c376,block,flow.Loop,3_0_0_0,NA,NA,completion,108963.16,236921,236921.88,236922.1,345885.26,345891,2023-08-26T14:34:52Z,345901.94,NULL,NA,NA,NA,NA,NA,NA,NA,sdf,NA,0,NA,NA,NA,NA,NA,NA,NA,NA,NA,NA,NA,NA,NA,NA,NA,NA,NA,NA,NA
2c376,weiter,canvas.Screen,3_0_0_1,sdf,keypress(Space),response,1577.06,345891,345885.26,345901.94,347479,347497,2023-08-26T14:34:53Z,347573.34,NULL,NA,NA,NA,NA,NA,NA,NA,sdf,NA,0,NA,NA,NA,NA,NA,NA,NA,NA,NA,NA,NA,NA,NA,NA,NA,NA,NA,NA,NA
2c376,check continue,flow.Sequence,3_0_0,NA,NA,completion,110556.9,236921,236921.88,236922.1,347479,347499,2023-08-26T14:34:53Z,347573.34,NULL,NA,NA,NA,NA,NA,NA,NA,sdf,NA,0,NA,NA,NA,NA,NA,NA,NA,NA,NA,NA,NA,NA,NA,NA,NA,NA,NA,NA,NA
2c376,Deep Question,html.Page,3_0_1_0_0_0_0,NA,NA,form submission,10646.66,347573,347573.06,347573.34,358220,358221,2023-08-26T14:35:04Z,358221.54,NULL,Verstand,ufahamivu,d,NA,NA,NA,tznjki,NA,NA,1,NA,NA,NA,NA,NA,NA,NA,NA,NA,NA,NA,NA,NA,NA,NA,NA,NA,NA,NA
2c376,"""Richtig""-Screen",canvas.Screen,3_0_1_0_0_0_1,NA,NA,skipped,NA,358223,NA,NA,358220,358223,2023-08-26T14:35:04Z,358221.54,NULL,Verstand,ufahamivu,d,NA,NA,NA,NA,sdfdsf,NA,1,NA,NA,NA,NA,NA,NA,NA,NA,NA,NA,NA,NA,NA,NA,NA,NA,NA,NA,NA
2c376,"""Falsch""-Screen",canvas.Screen,3_0_1_0_0_0_2,NA,NA,timeout,5001.3,358225,358217.3,358221.54,363206.18,363208,2023-08-26T14:35:09Z,363222.84,NULL,Verstand,ufahamivu,d,NA,NA,NA,NA,sdfdsf,0,1,NA,NA,NA,NA,NA,NA,NA,NA,NA,NA,NA,NA,NA,NA,NA,NA,NA,NA,NA
2c376,deep,flow.Sequence,3_0_1_0_0_0,NA,NA,completion,15632.84,347573,347573.06,347573.34,363206.18,363209,2023-08-26T14:35:09Z,363222.84,NULL,Verstand,ufahamivu,d,NA,NA,NA,NA,sdfdsf,NA,1,NA,NA,NA,NA,NA,NA,NA,NA,NA,NA,NA,NA,NA,NA,NA,NA,NA,NA,NA
2c376,shallow,flow.Sequence,3_0_1_0_0_1,NA,NA,skipped,NA,363209,NA,NA,363206.18,363209,2023-08-26T14:35:09Z,363222.84,NULL,Verstand,ufahamivu,d,NA,NA,NA,NA,sdfdsf,NA,1,NA,NA,NA,NA,NA,NA,NA,NA,NA,NA,NA,NA,NA,NA,NA,NA,NA,NA,NA
2c376,task,flow.Sequence,3_0_1_0_0,NA,NA,completion,15632.84,347573,347573.06,347573.34,363206.18,363211,2023-08-26T14:35:09Z,363222.84,NULL,Verstand,ufahamivu,d,NA,NA,NA,NA,sdfdsf,NA,1,NA,NA,NA,NA,NA,NA,NA,NA,NA,NA,NA,NA,NA,NA,NA,NA,NA,NA,NA
2c376,Deep Question,html.Page,3_0_1_0_1_0_0,NA,NA,form submission,6541.16,363211,363206.18,363222.84,369764,369765,2023-08-26T14:35:16Z,369774.38,NULL,Ergänzung,kijalizo,d,NA,NA,NA,uzktulziö,NA,NA,1,NA,NA,NA,NA,NA,NA,NA,NA,NA,NA,NA,NA,NA,NA,NA,NA,NA,NA,NA
2c376,"""Richtig""-Screen",canvas.Screen,3_0_1_0_1_0_1,NA,NA,skipped,NA,369767,NA,NA,369764,369767,2023-08-26T14:35:16Z,369774.38,NULL,Ergänzung,kijalizo,d,NA,NA,NA,NA,sdfdsf,NA,1,NA,NA,NA,NA,NA,NA,NA,NA,NA,NA,NA,NA,NA,NA,NA,NA,NA,NA,NA
2c376,"""Falsch""-Screen",canvas.Screen,3_0_1_0_1_0_2,NA,NA,timeout,5001.26,369769,369762.66,369774.38,374758.98,374761,2023-08-26T14:35:21Z,374775.64,NULL,Ergänzung,kijalizo,d,NA,NA,NA,NA,sdfdsf,0,1,NA,NA,NA,NA,NA,NA,NA,NA,NA,NA,NA,NA,NA,NA,NA,NA,NA,NA,NA
2c376,deep,flow.Sequence,3_0_1_0_1_0,NA,NA,completion,11536.14,363211,363206.18,363222.84,374758.98,374761,2023-08-26T14:35:21Z,374775.64,NULL,Ergänzung,kijalizo,d,NA,NA,NA,NA,sdfdsf,NA,1,NA,NA,NA,NA,NA,NA,NA,NA,NA,NA,NA,NA,NA,NA,NA,NA,NA,NA,NA
2c376,shallow,flow.Sequence,3_0_1_0_1_1,NA,NA,skipped,NA,374762,NA,NA,374758.98,374762,2023-08-26T14:35:21Z,374775.64,NULL,Ergänzung,kijalizo,d,NA,NA,NA,NA,sdfdsf,NA,1,NA,NA,NA,NA,NA,NA,NA,NA,NA,NA,NA,NA,NA,NA,NA,NA,NA,NA,NA
2c376,task,flow.Sequence,3_0_1_0_1,NA,NA,completion,11536.14,363211,363206.18,363222.84,374758.98,374763,2023-08-26T14:35:21Z,374775.64,NULL,Ergänzung,kijalizo,d,NA,NA,NA,NA,sdfdsf,NA,1,NA,NA,NA,NA,NA,NA,NA,NA,NA,NA,NA,NA,NA,NA,NA,NA,NA,NA,NA
2c376,deep,flow.Sequence,3_0_1_0_2_0,NA,NA,skipped,NA,374764,NA,NA,374758.98,374764,2023-08-26T14:35:21Z,374775.64,NULL,Notfall,dharura,s,rairai,malalamiko,ahueni,NA,sdfdsf,NA,1,NA,NA,NA,NA,NA,NA,NA,NA,NA,NA,NA,NA,NA,NA,NA,NA,NA,NA,NA
2c376,Shallow Question,html.Page,3_0_1_0_2_1_0,NA,NA,form submission,6215.36,374764,374758.98,374775.64,380991,380991,2023-08-26T14:35:27Z,380993.84,NULL,Notfall,dharura,s,rairai,malalamiko,ahueni,dharura,NA,NA,1,NA,NA,NA,NA,NA,NA,NA,NA,NA,NA,NA,NA,NA,NA,NA,NA,NA,NA,NA
2c376,"""Richtig""-Screen",canvas.Screen,3_0_1_0_2_1_1,NA,NA,timeout,5001.24,380993,380990.04,380993.84,385978.4,385980,2023-08-26T14:35:32Z,385995.08,NULL,Notfall,dharura,s,rairai,malalamiko,ahueni,NA,sdfdsf,1,1,NA,NA,NA,NA,NA,NA,NA,NA,NA,NA,NA,NA,NA,NA,NA,NA,NA,NA,NA
2c376,"""Falsch""-Screen",canvas.Screen,3_0_1_0_2_1_2,NA,NA,skipped,NA,385982,NA,NA,385978.4,385982,2023-08-26T14:35:32Z,385995.08,NULL,Notfall,dharura,s,rairai,malalamiko,ahueni,NA,sdfdsf,NA,1,NA,NA,NA,NA,NA,NA,NA,NA,NA,NA,NA,NA,NA,NA,NA,NA,NA,NA,NA
2c376,shallow,flow.Sequence,3_0_1_0_2_1,NA,NA,completion,11202.76,374764,374758.98,374775.64,385978.4,385983,2023-08-26T14:35:32Z,385995.08,NULL,Notfall,dharura,s,rairai,malalamiko,ahueni,NA,sdfdsf,NA,1,NA,NA,NA,NA,NA,NA,NA,NA,NA,NA,NA,NA,NA,NA,NA,NA,NA,NA,NA
2c376,task,flow.Sequence,3_0_1_0_2,NA,NA,completion,11202.76,374764,374758.98,374775.64,385978.4,385983,2023-08-26T14:35:32Z,385995.08,NULL,Notfall,dharura,s,rairai,malalamiko,ahueni,NA,sdfdsf,NA,1,NA,NA,NA,NA,NA,NA,NA,NA,NA,NA,NA,NA,NA,NA,NA,NA,NA,NA,NA
2c376,Deep Question,html.Page,3_0_1_0_3_0_0,NA,NA,form submission,12391.92,385983,385978.4,385995.08,398387,398388,2023-08-26T14:35:44Z,398398.12,NULL,Wohlstand,mafanikio,d,NA,NA,NA,iiuktiu,NA,NA,1,NA,NA,NA,NA,NA,NA,NA,NA,NA,NA,NA,NA,NA,NA,NA,NA,NA,NA,NA
2c376,"""Richtig""-Screen",canvas.Screen,3_0_1_0_3_0_1,NA,NA,skipped,NA,398390,NA,NA,398387,398390,2023-08-26T14:35:44Z,398398.12,NULL,Wohlstand,mafanikio,d,NA,NA,NA,NA,sdfdsf,NA,1,NA,NA,NA,NA,NA,NA,NA,NA,NA,NA,NA,NA,NA,NA,NA,NA,NA,NA,NA
2c376,"""Falsch""-Screen",canvas.Screen,3_0_1_0_3_0_2,NA,NA,timeout,5001.22,398391,398385.68,398398.12,403382.68,403384,2023-08-26T14:35:49Z,403399.34,NULL,Wohlstand,mafanikio,d,NA,NA,NA,NA,sdfdsf,0,1,NA,NA,NA,NA,NA,NA,NA,NA,NA,NA,NA,NA,NA,NA,NA,NA,NA,NA,NA
2c376,deep,flow.Sequence,3_0_1_0_3_0,NA,NA,completion,17387.6,385983,385978.4,385995.08,403382.68,403384,2023-08-26T14:35:49Z,403399.34,NULL,Wohlstand,mafanikio,d,NA,NA,NA,NA,sdfdsf,NA,1,NA,NA,NA,NA,NA,NA,NA,NA,NA,NA,NA,NA,NA,NA,NA,NA,NA,NA,NA
2c376,shallow,flow.Sequence,3_0_1_0_3_1,NA,NA,skipped,NA,403384,NA,NA,403382.68,403384,2023-08-26T14:35:49Z,403399.34,NULL,Wohlstand,mafanikio,d,NA,NA,NA,NA,sdfdsf,NA,1,NA,NA,NA,NA,NA,NA,NA,NA,NA,NA,NA,NA,NA,NA,NA,NA,NA,NA,NA
2c376,task,flow.Sequence,3_0_1_0_3,NA,NA,completion,17387.6,385983,385978.4,385995.08,403382.68,403385,2023-08-26T14:35:49Z,403399.34,NULL,Wohlstand,mafanikio,d,NA,NA,NA,NA,sdfdsf,NA,1,NA,NA,NA,NA,NA,NA,NA,NA,NA,NA,NA,NA,NA,NA,NA,NA,NA,NA,NA
2c376,deep,flow.Sequence,3_0_1_0_4_0,NA,NA,skipped,NA,403385,NA,NA,403382.68,403385,2023-08-26T14:35:49Z,403399.34,NULL,Gelegenheit,wakati,s,mchanganyiko,kipaumbele,kushuku,NA,sdfdsf,NA,1,NA,NA,NA,NA,NA,NA,NA,NA,NA,NA,NA,NA,NA,NA,NA,NA,NA,NA,NA
2c376,Shallow Question,html.Page,3_0_1_0_4_1_0,NA,NA,form submission,11910.66,403386,403382.68,403399.34,415310,415312,2023-08-26T14:36:01Z,415318.98,NULL,Gelegenheit,wakati,s,mchanganyiko,kipaumbele,kushuku,mchanganyiko,NA,NA,1,NA,NA,NA,NA,NA,NA,NA,NA,NA,NA,NA,NA,NA,NA,NA,NA,NA,NA,NA
2c376,"""Richtig""-Screen",canvas.Screen,3_0_1_0_4_1_1,NA,NA,skipped,NA,415317,NA,NA,415310,415318,2023-08-26T14:36:01Z,415318.98,NULL,Gelegenheit,wakati,s,mchanganyiko,kipaumbele,kushuku,NA,sdfdsf,NA,1,NA,NA,NA,NA,NA,NA,NA,NA,NA,NA,NA,NA,NA,NA,NA,NA,NA,NA,NA
2c376,"""Falsch""-Screen",canvas.Screen,3_0_1_0_4_1_2,NA,NA,timeout,5001.2,415320,415307.66,415318.98,420303.52,420306,2023-08-26T14:36:06Z,420320.18,NULL,Gelegenheit,wakati,s,mchanganyiko,kipaumbele,kushuku,NA,sdfdsf,0,1,NA,NA,NA,NA,NA,NA,NA,NA,NA,NA,NA,NA,NA,NA,NA,NA,NA,NA,NA
2c376,shallow,flow.Sequence,3_0_1_0_4_1,NA,NA,completion,16904.18,403386,403382.68,403399.34,420303.52,420307,2023-08-26T14:36:06Z,420320.18,NULL,Gelegenheit,wakati,s,mchanganyiko,kipaumbele,kushuku,NA,sdfdsf,NA,1,NA,NA,NA,NA,NA,NA,NA,NA,NA,NA,NA,NA,NA,NA,NA,NA,NA,NA,NA
2c376,task,flow.Sequence,3_0_1_0_4,NA,NA,completion,16904.18,403385,403382.68,403399.34,420303.52,420309,2023-08-26T14:36:06Z,420320.18,NULL,Gelegenheit,wakati,s,mchanganyiko,kipaumbele,kushuku,NA,sdfdsf,NA,1,NA,NA,NA,NA,NA,NA,NA,NA,NA,NA,NA,NA,NA,NA,NA,NA,NA,NA,NA
2c376,deep,flow.Sequence,3_0_1_0_5_0,NA,NA,skipped,NA,420309,NA,NA,420303.52,420310,2023-08-26T14:36:06Z,420320.18,NULL,Ausschluss,kutengwa,s,ununuzi,taratibu,madeni,NA,sdfdsf,NA,1,NA,NA,NA,NA,NA,NA,NA,NA,NA,NA,NA,NA,NA,NA,NA,NA,NA,NA,NA
2c376,Shallow Question,html.Page,3_0_1_0_5_1_0,NA,NA,form submission,9278.82,420311,420303.52,420320.18,429599,429599,2023-08-26T14:36:15Z,429605.78,NULL,Ausschluss,kutengwa,s,ununuzi,taratibu,madeni,kutengwa,NA,NA,1,NA,NA,NA,NA,NA,NA,NA,NA,NA,NA,NA,NA,NA,NA,NA,NA,NA,NA,NA
2c376,"""Richtig""-Screen",canvas.Screen,3_0_1_0_5_1_1,NA,NA,timeout,5001.3799999999,429601,429596.28,429605.78,434590.48,434592,2023-08-26T14:36:20Z,434607.16,NULL,Ausschluss,kutengwa,s,ununuzi,taratibu,madeni,NA,sdfdsf,1,1,NA,NA,NA,NA,NA,NA,NA,NA,NA,NA,NA,NA,NA,NA,NA,NA,NA,NA,NA
2c376,"""Falsch""-Screen",canvas.Screen,3_0_1_0_5_1_2,NA,NA,skipped,NA,434594,NA,NA,434590.48,434594,2023-08-26T14:36:20Z,434607.16,NULL,Ausschluss,kutengwa,s,ununuzi,taratibu,madeni,NA,sdfdsf,NA,1,NA,NA,NA,NA,NA,NA,NA,NA,NA,NA,NA,NA,NA,NA,NA,NA,NA,NA,NA
2c376,shallow,flow.Sequence,3_0_1_0_5_1,NA,NA,completion,14270.3,420311,420303.52,420320.18,434590.48,434595,2023-08-26T14:36:20Z,434607.16,NULL,Ausschluss,kutengwa,s,ununuzi,taratibu,madeni,NA,sdfdsf,NA,1,NA,NA,NA,NA,NA,NA,NA,NA,NA,NA,NA,NA,NA,NA,NA,NA,NA,NA,NA
2c376,task,flow.Sequence,3_0_1_0_5,NA,NA,completion,14270.3,420309,420303.52,420320.18,434590.48,434595,2023-08-26T14:36:20Z,434607.16,NULL,Ausschluss,kutengwa,s,ununuzi,taratibu,madeni,NA,sdfdsf,NA,1,NA,NA,NA,NA,NA,NA,NA,NA,NA,NA,NA,NA,NA,NA,NA,NA,NA,NA,NA
2c376,Deep Question,html.Page,3_0_1_0_6_0_0,NA,NA,form submission,6559.84,434596,434590.48,434607.16,441167,441167,2023-08-26T14:36:27Z,441175.38,NULL,Widerstand,usulubu,d,NA,NA,NA,gfdherhe,NA,NA,1,NA,NA,NA,NA,NA,NA,NA,NA,NA,NA,NA,NA,NA,NA,NA,NA,NA,NA,NA
2c376,"""Richtig""-Screen",canvas.Screen,3_0_1_0_6_0_1,NA,NA,skipped,NA,441169,NA,NA,441167,441170,2023-08-26T14:36:27Z,441175.38,NULL,Widerstand,usulubu,d,NA,NA,NA,NA,sdfdsf,NA,1,NA,NA,NA,NA,NA,NA,NA,NA,NA,NA,NA,NA,NA,NA,NA,NA,NA,NA,NA
2c376,"""Falsch""-Screen",canvas.Screen,3_0_1_0_6_0_2,NA,NA,timeout,5001.2,441173,441165.52,441175.38,446159.92,446162,2023-08-26T14:36:32Z,446176.58,NULL,Widerstand,usulubu,d,NA,NA,NA,NA,sdfdsf,0,1,NA,NA,NA,NA,NA,NA,NA,NA,NA,NA,NA,NA,NA,NA,NA,NA,NA,NA,NA
2c376,deep,flow.Sequence,3_0_1_0_6_0,NA,NA,completion,11552.76,434596,434590.48,434607.16,446159.92,446163,2023-08-26T14:36:32Z,446176.58,NULL,Widerstand,usulubu,d,NA,NA,NA,NA,sdfdsf,NA,1,NA,NA,NA,NA,NA,NA,NA,NA,NA,NA,NA,NA,NA,NA,NA,NA,NA,NA,NA
2c376,shallow,flow.Sequence,3_0_1_0_6_1,NA,NA,skipped,NA,446164,NA,NA,446159.92,446164,2023-08-26T14:36:32Z,446176.58,NULL,Widerstand,usulubu,d,NA,NA,NA,NA,sdfdsf,NA,1,NA,NA,NA,NA,NA,NA,NA,NA,NA,NA,NA,NA,NA,NA,NA,NA,NA,NA,NA
2c376,task,flow.Sequence,3_0_1_0_6,NA,NA,completion,11552.76,434596,434590.48,434607.16,446159.92,446165,2023-08-26T14:36:32Z,446176.58,NULL,Widerstand,usulubu,d,NA,NA,NA,NA,sdfdsf,NA,1,NA,NA,NA,NA,NA,NA,NA,NA,NA,NA,NA,NA,NA,NA,NA,NA,NA,NA,NA
2c376,deep,flow.Sequence,3_0_1_0_7_0,NA,NA,skipped,NA,446165,NA,NA,446159.92,446165,2023-08-26T14:36:32Z,446176.58,NULL,Vergnügen,kichekesho,s,dubwana,mpanuko,mtesaji,NA,sdfdsf,NA,1,NA,NA,NA,NA,NA,NA,NA,NA,NA,NA,NA,NA,NA,NA,NA,NA,NA,NA,NA
2c376,Shallow Question,html.Page,3_0_1_0_7_1_0,NA,NA,form submission,6309.42,446166,446159.92,446176.58,452486,452486,2023-08-26T14:36:38Z,452494.82,NULL,Vergnügen,kichekesho,s,dubwana,mpanuko,mtesaji,kichekesho,NA,NA,1,NA,NA,NA,NA,NA,NA,NA,NA,NA,NA,NA,NA,NA,NA,NA,NA,NA,NA,NA
2c376,"""Richtig""-Screen",canvas.Screen,3_0_1_0_7_1_1,NA,NA,timeout,5017.86,452488,452485.16,452494.82,457479.34,457486,2023-08-26T14:36:43Z,457512.68,NULL,Vergnügen,kichekesho,s,dubwana,mpanuko,mtesaji,NA,sdfdsf,1,1,NA,NA,NA,NA,NA,NA,NA,NA,NA,NA,NA,NA,NA,NA,NA,NA,NA,NA,NA
2c376,"""Falsch""-Screen",canvas.Screen,3_0_1_0_7_1_2,NA,NA,skipped,NA,457508,NA,NA,457479.34,457508,2023-08-26T14:36:43Z,457512.68,NULL,Vergnügen,kichekesho,s,dubwana,mpanuko,mtesaji,NA,sdfdsf,NA,1,NA,NA,NA,NA,NA,NA,NA,NA,NA,NA,NA,NA,NA,NA,NA,NA,NA,NA,NA
2c376,shallow,flow.Sequence,3_0_1_0_7_1,NA,NA,completion,11302.76,446165,446159.92,446176.58,457479.34,457509,2023-08-26T14:36:43Z,457512.68,NULL,Vergnügen,kichekesho,s,dubwana,mpanuko,mtesaji,NA,sdfdsf,NA,1,NA,NA,NA,NA,NA,NA,NA,NA,NA,NA,NA,NA,NA,NA,NA,NA,NA,NA,NA
2c376,task,flow.Sequence,3_0_1_0_7,NA,NA,completion,11302.76,446165,446159.92,446176.58,457479.34,457509,2023-08-26T14:36:43Z,457512.68,NULL,Vergnügen,kichekesho,s,dubwana,mpanuko,mtesaji,NA,sdfdsf,NA,1,NA,NA,NA,NA,NA,NA,NA,NA,NA,NA,NA,NA,NA,NA,NA,NA,NA,NA,NA
2c376,block,flow.Loop,3_0_1_0,NA,NA,completion,109906,347573,347573.06,347573.34,457479.34,457510,2023-08-26T14:36:43Z,457512.68,NULL,NA,NA,NA,NA,NA,NA,NA,sdfdsf,NA,1,NA,NA,NA,NA,NA,NA,NA,NA,NA,NA,NA,NA,NA,NA,NA,NA,NA,NA,NA
2c376,weiter,canvas.Screen,3_0_1_1,sdf,keypress(Space),response,1481.32,457510,457479.34,457512.68,458994,458997,2023-08-26T14:36:45Z,459058.8,NULL,NA,NA,NA,NA,NA,NA,NA,sdfdsf,NA,1,NA,NA,NA,NA,NA,NA,NA,NA,NA,NA,NA,NA,NA,NA,NA,NA,NA,NA,NA
2c376,check continue,flow.Sequence,3_0_1,NA,NA,completion,111420.66,347573,347573.06,347573.34,458994,458997,2023-08-26T14:36:45Z,459058.8,NULL,NA,NA,NA,NA,NA,NA,NA,sdfdsf,NA,1,NA,NA,NA,NA,NA,NA,NA,NA,NA,NA,NA,NA,NA,NA,NA,NA,NA,NA,NA
2c376,deep,flow.Sequence,3_0_2_0_0_0,NA,NA,skipped,NA,459058,NA,NA,458994,459059,2023-08-26T14:36:45Z,459058.8,NULL,Vergnügen,kichekesho,s,dubwana,mpanuko,mtesaji,NA,sdf,NA,2,NA,NA,NA,NA,NA,NA,NA,NA,NA,NA,NA,NA,NA,NA,NA,NA,NA,NA,NA
2c376,Shallow Question,html.Page,3_0_2_0_0_1_0,NA,NA,form submission,7409.2,459059,459058.54,459058.8,466468,466469,2023-08-26T14:36:52Z,466481.56,NULL,Vergnügen,kichekesho,s,dubwana,mpanuko,mtesaji,kichekesho,NA,NA,2,NA,NA,NA,NA,NA,NA,NA,NA,NA,NA,NA,NA,NA,NA,NA,NA,NA,NA,NA
2c376,"""Richtig""-Screen",canvas.Screen,3_0_2_0_0_1_1,NA,NA,timeout,5001.24,466470,466465.92,466481.56,471466.14,471468,2023-08-26T14:36:57Z,471482.8,NULL,Vergnügen,kichekesho,s,dubwana,mpanuko,mtesaji,NA,sdf,1,2,NA,NA,NA,NA,NA,NA,NA,NA,NA,NA,NA,NA,NA,NA,NA,NA,NA,NA,NA
2c376,"""Falsch""-Screen",canvas.Screen,3_0_2_0_0_1_2,NA,NA,skipped,NA,471472,NA,NA,471466.14,471472,2023-08-26T14:36:57Z,471482.8,NULL,Vergnügen,kichekesho,s,dubwana,mpanuko,mtesaji,NA,sdf,NA,2,NA,NA,NA,NA,NA,NA,NA,NA,NA,NA,NA,NA,NA,NA,NA,NA,NA,NA,NA
2c376,shallow,flow.Sequence,3_0_2_0_0_1,NA,NA,completion,12407.34,459059,459058.54,459058.8,471466.14,471473,2023-08-26T14:36:57Z,471482.8,NULL,Vergnügen,kichekesho,s,dubwana,mpanuko,mtesaji,NA,sdf,NA,2,NA,NA,NA,NA,NA,NA,NA,NA,NA,NA,NA,NA,NA,NA,NA,NA,NA,NA,NA
2c376,task,flow.Sequence,3_0_2_0_0,NA,NA,completion,12407.34,459058,459058.54,459058.8,471466.14,471473,2023-08-26T14:36:57Z,471482.8,NULL,Vergnügen,kichekesho,s,dubwana,mpanuko,mtesaji,NA,sdf,NA,2,NA,NA,NA,NA,NA,NA,NA,NA,NA,NA,NA,NA,NA,NA,NA,NA,NA,NA,NA
2c376,Deep Question,html.Page,3_0_2_0_1_0_0,NA,NA,form submission,15216.2,471473,471466.14,471482.8,486699,486699,2023-08-26T14:37:13Z,486719.88,NULL,Widerstand,usulubu,d,NA,NA,NA,uzulubu,NA,NA,2,NA,NA,NA,NA,NA,NA,NA,NA,NA,NA,NA,NA,NA,NA,NA,NA,NA,NA,NA
2c376,"""Richtig""-Screen",canvas.Screen,3_0_2_0_1_0_1,NA,NA,skipped,NA,486701,NA,NA,486699,486702,2023-08-26T14:37:13Z,486719.88,NULL,Widerstand,usulubu,d,NA,NA,NA,NA,sdf,NA,2,NA,NA,NA,NA,NA,NA,NA,NA,NA,NA,NA,NA,NA,NA,NA,NA,NA,NA,NA
2c376,"""Falsch""-Screen",canvas.Screen,3_0_2_0_1_0_2,NA,NA,timeout,5001.3,486703,486703.22,486719.88,491704.5,491706,2023-08-26T14:37:18Z,491721.18,NULL,Widerstand,usulubu,d,NA,NA,NA,NA,sdf,0,2,NA,NA,NA,NA,NA,NA,NA,NA,NA,NA,NA,NA,NA,NA,NA,NA,NA,NA,NA
2c376,deep,flow.Sequence,3_0_2_0_1_0,NA,NA,completion,20221.7,471473,471466.14,471482.8,491704.5,491707,2023-08-26T14:37:18Z,491721.18,NULL,Widerstand,usulubu,d,NA,NA,NA,NA,sdf,NA,2,NA,NA,NA,NA,NA,NA,NA,NA,NA,NA,NA,NA,NA,NA,NA,NA,NA,NA,NA
2c376,shallow,flow.Sequence,3_0_2_0_1_1,NA,NA,skipped,NA,491707,NA,NA,491704.5,491708,2023-08-26T14:37:18Z,491721.18,NULL,Widerstand,usulubu,d,NA,NA,NA,NA,sdf,NA,2,NA,NA,NA,NA,NA,NA,NA,NA,NA,NA,NA,NA,NA,NA,NA,NA,NA,NA,NA
2c376,task,flow.Sequence,3_0_2_0_1,NA,NA,completion,20221.7,471473,471466.14,471482.8,491704.5,491708,2023-08-26T14:37:18Z,491721.18,NULL,Widerstand,usulubu,d,NA,NA,NA,NA,sdf,NA,2,NA,NA,NA,NA,NA,NA,NA,NA,NA,NA,NA,NA,NA,NA,NA,NA,NA,NA,NA
2c376,deep,flow.Sequence,3_0_2_0_2_0,NA,NA,skipped,NA,491709,NA,NA,491704.5,491709,2023-08-26T14:37:18Z,491721.18,NULL,Gelegenheit,wakati,s,mchanganyiko,kipaumbele,kushuku,NA,sdf,NA,2,NA,NA,NA,NA,NA,NA,NA,NA,NA,NA,NA,NA,NA,NA,NA,NA,NA,NA,NA
2c376,Shallow Question,html.Page,3_0_2_0_2_1_0,NA,NA,form submission,26047.82,491710,491704.5,491721.18,517769,517771,2023-08-26T14:37:44Z,517777.6,NULL,Gelegenheit,wakati,s,mchanganyiko,kipaumbele,kushuku,kushuku,NA,NA,2,NA,NA,NA,NA,NA,NA,NA,NA,NA,NA,NA,NA,NA,NA,NA,NA,NA,NA,NA
2c376,"""Richtig""-Screen",canvas.Screen,3_0_2_0_2_1_1,NA,NA,skipped,NA,517776,NA,NA,517769,517776,2023-08-26T14:37:44Z,517777.6,NULL,Gelegenheit,wakati,s,mchanganyiko,kipaumbele,kushuku,NA,sdf,NA,2,NA,NA,NA,NA,NA,NA,NA,NA,NA,NA,NA,NA,NA,NA,NA,NA,NA,NA,NA
2c376,"""Falsch""-Screen",canvas.Screen,3_0_2_0_2_1_2,NA,NA,timeout,5001.28,517780,517766.34,517777.6,522762.28,522764,2023-08-26T14:37:49Z,522778.88,NULL,Gelegenheit,wakati,s,mchanganyiko,kipaumbele,kushuku,NA,sdf,0,2,NA,NA,NA,NA,NA,NA,NA,NA,NA,NA,NA,NA,NA,NA,NA,NA,NA,NA,NA
2c376,shallow,flow.Sequence,3_0_2_0_2_1,NA,NA,completion,31041.1,491710,491704.5,491721.18,522762.28,522766,2023-08-26T14:37:49Z,522778.88,NULL,Gelegenheit,wakati,s,mchanganyiko,kipaumbele,kushuku,NA,sdf,NA,2,NA,NA,NA,NA,NA,NA,NA,NA,NA,NA,NA,NA,NA,NA,NA,NA,NA,NA,NA
2c376,task,flow.Sequence,3_0_2_0_2,NA,NA,completion,31041.1,491709,491704.5,491721.18,522762.28,522766,2023-08-26T14:37:49Z,522778.88,NULL,Gelegenheit,wakati,s,mchanganyiko,kipaumbele,kushuku,NA,sdf,NA,2,NA,NA,NA,NA,NA,NA,NA,NA,NA,NA,NA,NA,NA,NA,NA,NA,NA,NA,NA
2c376,deep,flow.Sequence,3_0_2_0_3_0,NA,NA,skipped,NA,522767,NA,NA,522762.28,522767,2023-08-26T14:37:49Z,522778.88,NULL,Notfall,dharura,s,rairai,malalamiko,ahueni,NA,sdf,NA,2,NA,NA,NA,NA,NA,NA,NA,NA,NA,NA,NA,NA,NA,NA,NA,NA,NA,NA,NA
2c376,Shallow Question,html.Page,3_0_2_0_3_1_0,NA,NA,form submission,9624.12,522767,522762.28,522778.88,532403,532403,2023-08-26T14:37:58Z,532414.56,NULL,Notfall,dharura,s,rairai,malalamiko,ahueni,dharura,NA,NA,2,NA,NA,NA,NA,NA,NA,NA,NA,NA,NA,NA,NA,NA,NA,NA,NA,NA,NA,NA
2c376,"""Richtig""-Screen",canvas.Screen,3_0_2_0_3_1_1,NA,NA,timeout,5001.22,532405,532401.8,532414.56,537399.16,537402,2023-08-26T14:38:03Z,537415.78,NULL,Notfall,dharura,s,rairai,malalamiko,ahueni,NA,sdf,1,2,NA,NA,NA,NA,NA,NA,NA,NA,NA,NA,NA,NA,NA,NA,NA,NA,NA,NA,NA
2c376,"""Falsch""-Screen",canvas.Screen,3_0_2_0_3_1_2,NA,NA,skipped,NA,537405,NA,NA,537399.16,537406,2023-08-26T14:38:03Z,537415.78,NULL,Notfall,dharura,s,rairai,malalamiko,ahueni,NA,sdf,NA,2,NA,NA,NA,NA,NA,NA,NA,NA,NA,NA,NA,NA,NA,NA,NA,NA,NA,NA,NA
2c376,shallow,flow.Sequence,3_0_2_0_3_1,NA,NA,completion,14620.28,522767,522762.28,522778.88,537399.16,537406,2023-08-26T14:38:03Z,537415.78,NULL,Notfall,dharura,s,rairai,malalamiko,ahueni,NA,sdf,NA,2,NA,NA,NA,NA,NA,NA,NA,NA,NA,NA,NA,NA,NA,NA,NA,NA,NA,NA,NA
2c376,task,flow.Sequence,3_0_2_0_3,NA,NA,completion,14620.28,522767,522762.28,522778.88,537399.16,537406,2023-08-26T14:38:03Z,537415.78,NULL,Notfall,dharura,s,rairai,malalamiko,ahueni,NA,sdf,NA,2,NA,NA,NA,NA,NA,NA,NA,NA,NA,NA,NA,NA,NA,NA,NA,NA,NA,NA,NA
2c376,Deep Question,html.Page,3_0_2_0_4_0_0,NA,NA,form submission,5445.22,537407,537399.16,537415.78,542861,542861,2023-08-26T14:38:09Z,542867.1,NULL,Ergänzung,kijalizo,d,NA,NA,NA,rtejtzjrtjt,NA,NA,2,NA,NA,NA,NA,NA,NA,NA,NA,NA,NA,NA,NA,NA,NA,NA,NA,NA,NA,NA
2c376,"""Richtig""-Screen",canvas.Screen,3_0_2_0_4_0_1,NA,NA,skipped,NA,542863,NA,NA,542861,542863,2023-08-26T14:38:09Z,542867.1,NULL,Ergänzung,kijalizo,d,NA,NA,NA,NA,sdf,NA,2,NA,NA,NA,NA,NA,NA,NA,NA,NA,NA,NA,NA,NA,NA,NA,NA,NA,NA,NA
2c376,"""Falsch""-Screen",canvas.Screen,3_0_2_0_4_0_2,NA,NA,timeout,5001.22,542865,542858.6,542867.1,547851.72,547853,2023-08-26T14:38:14Z,547868.32,NULL,Ergänzung,kijalizo,d,NA,NA,NA,NA,sdf,0,2,NA,NA,NA,NA,NA,NA,NA,NA,NA,NA,NA,NA,NA,NA,NA,NA,NA,NA,NA
2c376,deep,flow.Sequence,3_0_2_0_4_0,NA,NA,completion,10435.94,537407,537399.16,537415.78,547851.72,547854,2023-08-26T14:38:14Z,547868.32,NULL,Ergänzung,kijalizo,d,NA,NA,NA,NA,sdf,NA,2,NA,NA,NA,NA,NA,NA,NA,NA,NA,NA,NA,NA,NA,NA,NA,NA,NA,NA,NA
2c376,shallow,flow.Sequence,3_0_2_0_4_1,NA,NA,skipped,NA,547854,NA,NA,547851.72,547855,2023-08-26T14:38:14Z,547868.32,NULL,Ergänzung,kijalizo,d,NA,NA,NA,NA,sdf,NA,2,NA,NA,NA,NA,NA,NA,NA,NA,NA,NA,NA,NA,NA,NA,NA,NA,NA,NA,NA
2c376,task,flow.Sequence,3_0_2_0_4,NA,NA,completion,10435.94,537407,537399.16,537415.78,547851.72,547856,2023-08-26T14:38:14Z,547868.32,NULL,Ergänzung,kijalizo,d,NA,NA,NA,NA,sdf,NA,2,NA,NA,NA,NA,NA,NA,NA,NA,NA,NA,NA,NA,NA,NA,NA,NA,NA,NA,NA
2c376,Deep Question,html.Page,3_0_2_0_5_0_0,NA,NA,form submission,16421.68,547856,547851.72,547868.32,564290,564291,2023-08-26T14:38:30Z,564289.04,NULL,Wohlstand,mafanikio,d,NA,NA,NA,usulusu,NA,NA,2,NA,NA,NA,NA,NA,NA,NA,NA,NA,NA,NA,NA,NA,NA,NA,NA,NA,NA,NA
2c376,"""Richtig""-Screen",canvas.Screen,3_0_2_0_5_0_1,NA,NA,skipped,NA,564293,NA,NA,564290,564293,2023-08-26T14:38:30Z,564289.04,NULL,Wohlstand,mafanikio,d,NA,NA,NA,NA,sdf,NA,2,NA,NA,NA,NA,NA,NA,NA,NA,NA,NA,NA,NA,NA,NA,NA,NA,NA,NA,NA
2c376,"""Falsch""-Screen",canvas.Screen,3_0_2_0_5_0_2,NA,NA,timeout,5001.2999999999,564295,564288.68,564289.04,569273.68,569278,2023-08-26T14:38:35Z,569290.34,NULL,Wohlstand,mafanikio,d,NA,NA,NA,NA,sdf,0,2,NA,NA,NA,NA,NA,NA,NA,NA,NA,NA,NA,NA,NA,NA,NA,NA,NA,NA,NA
2c376,deep,flow.Sequence,3_0_2_0_5_0,NA,NA,completion,21405.36,547856,547851.72,547868.32,569273.68,569282,2023-08-26T14:38:35Z,569290.34,NULL,Wohlstand,mafanikio,d,NA,NA,NA,NA,sdf,NA,2,NA,NA,NA,NA,NA,NA,NA,NA,NA,NA,NA,NA,NA,NA,NA,NA,NA,NA,NA
2c376,shallow,flow.Sequence,3_0_2_0_5_1,NA,NA,skipped,NA,569283,NA,NA,569273.68,569283,2023-08-26T14:38:35Z,569290.34,NULL,Wohlstand,mafanikio,d,NA,NA,NA,NA,sdf,NA,2,NA,NA,NA,NA,NA,NA,NA,NA,NA,NA,NA,NA,NA,NA,NA,NA,NA,NA,NA
2c376,task,flow.Sequence,3_0_2_0_5,NA,NA,completion,21405.36,547856,547851.72,547868.32,569273.68,569284,2023-08-26T14:38:35Z,569290.34,NULL,Wohlstand,mafanikio,d,NA,NA,NA,NA,sdf,NA,2,NA,NA,NA,NA,NA,NA,NA,NA,NA,NA,NA,NA,NA,NA,NA,NA,NA,NA,NA
2c376,Deep Question,html.Page,3_0_2_0_6_0_0,NA,NA,form submission,5007.66,569285,569273.68,569290.34,574298,574298,2023-08-26T14:38:40Z,574308.14,NULL,Verstand,ufahamivu,d,NA,NA,NA,fhgfjhf,NA,NA,2,NA,NA,NA,NA,NA,NA,NA,NA,NA,NA,NA,NA,NA,NA,NA,NA,NA,NA,NA
2c376,"""Richtig""-Screen",canvas.Screen,3_0_2_0_6_0_1,NA,NA,skipped,NA,574303,NA,NA,574298,574303,2023-08-26T14:38:40Z,574308.14,NULL,Verstand,ufahamivu,d,NA,NA,NA,NA,sdf,NA,2,NA,NA,NA,NA,NA,NA,NA,NA,NA,NA,NA,NA,NA,NA,NA,NA,NA,NA,NA
2c376,"""Falsch""-Screen",canvas.Screen,3_0_2_0_6_0_2,NA,NA,timeout,5001.38,574305,574294.96,574308.14,579292.86,579295,2023-08-26T14:38:45Z,579309.52,NULL,Verstand,ufahamivu,d,NA,NA,NA,NA,sdf,0,2,NA,NA,NA,NA,NA,NA,NA,NA,NA,NA,NA,NA,NA,NA,NA,NA,NA,NA,NA
2c376,deep,flow.Sequence,3_0_2_0_6_0,NA,NA,completion,10002.52,569285,569273.68,569290.34,579292.86,579296,2023-08-26T14:38:45Z,579309.52,NULL,Verstand,ufahamivu,d,NA,NA,NA,NA,sdf,NA,2,NA,NA,NA,NA,NA,NA,NA,NA,NA,NA,NA,NA,NA,NA,NA,NA,NA,NA,NA
2c376,shallow,flow.Sequence,3_0_2_0_6_1,NA,NA,skipped,NA,579297,NA,NA,579292.86,579297,2023-08-26T14:38:45Z,579309.52,NULL,Verstand,ufahamivu,d,NA,NA,NA,NA,sdf,NA,2,NA,NA,NA,NA,NA,NA,NA,NA,NA,NA,NA,NA,NA,NA,NA,NA,NA,NA,NA
2c376,task,flow.Sequence,3_0_2_0_6,NA,NA,completion,10002.52,569285,569273.68,569290.34,579292.86,579298,2023-08-26T14:38:45Z,579309.52,NULL,Verstand,ufahamivu,d,NA,NA,NA,NA,sdf,NA,2,NA,NA,NA,NA,NA,NA,NA,NA,NA,NA,NA,NA,NA,NA,NA,NA,NA,NA,NA
2c376,deep,flow.Sequence,3_0_2_0_7_0,NA,NA,skipped,NA,579300,NA,NA,579292.86,579301,2023-08-26T14:38:45Z,579309.52,NULL,Ausschluss,kutengwa,s,ununuzi,taratibu,madeni,NA,sdf,NA,2,NA,NA,NA,NA,NA,NA,NA,NA,NA,NA,NA,NA,NA,NA,NA,NA,NA,NA,NA
2c376,Shallow Question,html.Page,3_0_2_0_7_1_0,NA,NA,form submission,14451.48,579302,579292.86,579309.52,593761,593761,2023-08-26T14:39:00Z,593779.62,NULL,Ausschluss,kutengwa,s,ununuzi,taratibu,madeni,ununuzi,NA,NA,2,NA,NA,NA,NA,NA,NA,NA,NA,NA,NA,NA,NA,NA,NA,NA,NA,NA,NA,NA
2c376,"""Richtig""-Screen",canvas.Screen,3_0_2_0_7_1_1,NA,NA,skipped,NA,593765,NA,NA,593761,593765,2023-08-26T14:39:00Z,593779.62,NULL,Ausschluss,kutengwa,s,ununuzi,taratibu,madeni,NA,sdf,NA,2,NA,NA,NA,NA,NA,NA,NA,NA,NA,NA,NA,NA,NA,NA,NA,NA,NA,NA,NA
2c376,"""Falsch""-Screen",canvas.Screen,3_0_2_0_7_1_2,NA,NA,timeout,5001.34,593767,593762.94,593779.62,598764.28,598766,2023-08-26T14:39:05Z,598780.96,NULL,Ausschluss,kutengwa,s,ununuzi,taratibu,madeni,NA,sdf,0,2,NA,NA,NA,NA,NA,NA,NA,NA,NA,NA,NA,NA,NA,NA,NA,NA,NA,NA,NA
2c376,shallow,flow.Sequence,3_0_2_0_7_1,NA,NA,completion,19454.76,579301,579292.86,579309.52,598764.28,598767,2023-08-26T14:39:05Z,598780.96,NULL,Ausschluss,kutengwa,s,ununuzi,taratibu,madeni,NA,sdf,NA,2,NA,NA,NA,NA,NA,NA,NA,NA,NA,NA,NA,NA,NA,NA,NA,NA,NA,NA,NA
2c376,task,flow.Sequence,3_0_2_0_7,NA,NA,completion,19454.76,579299,579292.86,579309.52,598764.28,598768,2023-08-26T14:39:05Z,598780.96,NULL,Ausschluss,kutengwa,s,ununuzi,taratibu,madeni,NA,sdf,NA,2,NA,NA,NA,NA,NA,NA,NA,NA,NA,NA,NA,NA,NA,NA,NA,NA,NA,NA,NA
2c376,block,flow.Loop,3_0_2_0,NA,NA,completion,139705.48,459058,459058.54,459058.8,598764.28,598771,2023-08-26T14:39:05Z,598780.96,NULL,NA,NA,NA,NA,NA,NA,NA,sdf,NA,2,NA,NA,NA,NA,NA,NA,NA,NA,NA,NA,NA,NA,NA,NA,NA,NA,NA,NA,NA
2c376,weiter,canvas.Screen,3_0_2_1,sdf,keypress(Space),response,1182.04,598773,598764.28,598780.96,599963,599973,2023-08-26T14:39:06Z,600045.88,NULL,NA,NA,NA,NA,NA,NA,NA,sdf,NA,2,NA,NA,NA,NA,NA,NA,NA,NA,NA,NA,NA,NA,NA,NA,NA,NA,NA,NA,NA
2c376,check continue,flow.Sequence,3_0_2,NA,NA,completion,140904.2,459057,459058.54,459058.8,599963,599974,2023-08-26T14:39:06Z,600045.88,NULL,NA,NA,NA,NA,NA,NA,NA,sdf,NA,2,NA,NA,NA,NA,NA,NA,NA,NA,NA,NA,NA,NA,NA,NA,NA,NA,NA,NA,NA
2c376,Deep Question,html.Page,3_0_3_0_0_0_0,NA,NA,form submission,15194.12,600046,600045.66,600045.88,615240,615240,2023-08-26T14:39:21Z,615239.9,NULL,Ergänzung,kijalizo,d,NA,NA,NA,ununuzu,NA,NA,3,NA,NA,NA,NA,NA,NA,NA,NA,NA,NA,NA,NA,NA,NA,NA,NA,NA,NA,NA
2c376,"""Richtig""-Screen",canvas.Screen,3_0_3_0_0_0_1,NA,NA,skipped,NA,615242,NA,NA,615240,615242,2023-08-26T14:39:21Z,615239.9,NULL,Ergänzung,kijalizo,d,NA,NA,NA,NA,qt,NA,3,NA,NA,NA,NA,NA,NA,NA,NA,NA,NA,NA,NA,NA,NA,NA,NA,NA,NA,NA
2c376,"""Falsch""-Screen",canvas.Screen,3_0_3_0_0_0_2,NA,NA,timeout,5012.9199999999,615244,615239.66,615239.9,620219.48,620222,2023-08-26T14:39:26Z,620252.82,NULL,Ergänzung,kijalizo,d,NA,NA,NA,NA,qt,0,3,NA,NA,NA,NA,NA,NA,NA,NA,NA,NA,NA,NA,NA,NA,NA,NA,NA,NA,NA
2c376,deep,flow.Sequence,3_0_3_0_0_0,NA,NA,completion,20173.6,600046,600045.66,600045.88,620219.48,620223,2023-08-26T14:39:26Z,620252.82,NULL,Ergänzung,kijalizo,d,NA,NA,NA,NA,qt,NA,3,NA,NA,NA,NA,NA,NA,NA,NA,NA,NA,NA,NA,NA,NA,NA,NA,NA,NA,NA
2c376,shallow,flow.Sequence,3_0_3_0_0_1,NA,NA,skipped,NA,620226,NA,NA,620219.48,620228,2023-08-26T14:39:26Z,620252.82,NULL,Ergänzung,kijalizo,d,NA,NA,NA,NA,qt,NA,3,NA,NA,NA,NA,NA,NA,NA,NA,NA,NA,NA,NA,NA,NA,NA,NA,NA,NA,NA
2c376,task,flow.Sequence,3_0_3_0_0,NA,NA,completion,20173.6,600046,600045.66,600045.88,620219.48,620240,2023-08-26T14:39:26Z,620252.82,NULL,Ergänzung,kijalizo,d,NA,NA,NA,NA,qt,NA,3,NA,NA,NA,NA,NA,NA,NA,NA,NA,NA,NA,NA,NA,NA,NA,NA,NA,NA,NA
2c376,deep,flow.Sequence,3_0_3_0_1_0,NA,NA,skipped,NA,620241,NA,NA,620219.48,620242,2023-08-26T14:39:26Z,620252.82,NULL,Ausschluss,kutengwa,s,ununuzi,taratibu,madeni,NA,qt,NA,3,NA,NA,NA,NA,NA,NA,NA,NA,NA,NA,NA,NA,NA,NA,NA,NA,NA,NA,NA
2c376,Shallow Question,html.Page,3_0_3_0_1_1_0,NA,NA,form submission,9659.1800000001,620242,620219.48,620252.82,629912,629914,2023-08-26T14:39:36Z,629921.92,NULL,Ausschluss,kutengwa,s,ununuzi,taratibu,madeni,ununuzi,NA,NA,3,NA,NA,NA,NA,NA,NA,NA,NA,NA,NA,NA,NA,NA,NA,NA,NA,NA,NA,NA
2c376,"""Richtig""-Screen",canvas.Screen,3_0_3_0_1_1_1,NA,NA,skipped,NA,629923,NA,NA,629912,629923,2023-08-26T14:39:36Z,629921.92,NULL,Ausschluss,kutengwa,s,ununuzi,taratibu,madeni,NA,qt,NA,3,NA,NA,NA,NA,NA,NA,NA,NA,NA,NA,NA,NA,NA,NA,NA,NA,NA,NA,NA
2c376,"""Falsch""-Screen",canvas.Screen,3_0_3_0_1_1_2,NA,NA,timeout,5001.3199999999,629926,629909.54,629921.92,634906.56,634910,2023-08-26T14:39:41Z,634923.24,NULL,Ausschluss,kutengwa,s,ununuzi,taratibu,madeni,NA,qt,0,3,NA,NA,NA,NA,NA,NA,NA,NA,NA,NA,NA,NA,NA,NA,NA,NA,NA,NA,NA
2c376,shallow,flow.Sequence,3_0_3_0_1_1,NA,NA,completion,14653.74,620242,620219.48,620252.82,634906.56,634912,2023-08-26T14:39:41Z,634923.24,NULL,Ausschluss,kutengwa,s,ununuzi,taratibu,madeni,NA,qt,NA,3,NA,NA,NA,NA,NA,NA,NA,NA,NA,NA,NA,NA,NA,NA,NA,NA,NA,NA,NA
2c376,task,flow.Sequence,3_0_3_0_1,NA,NA,completion,14653.74,620241,620219.48,620252.82,634906.56,634913,2023-08-26T14:39:41Z,634923.24,NULL,Ausschluss,kutengwa,s,ununuzi,taratibu,madeni,NA,qt,NA,3,NA,NA,NA,NA,NA,NA,NA,NA,NA,NA,NA,NA,NA,NA,NA,NA,NA,NA,NA
2c376,deep,flow.Sequence,3_0_3_0_2_0,NA,NA,skipped,NA,634914,NA,NA,634906.56,634915,2023-08-26T14:39:41Z,634923.24,NULL,Vergnügen,kichekesho,s,dubwana,mpanuko,mtesaji,NA,qt,NA,3,NA,NA,NA,NA,NA,NA,NA,NA,NA,NA,NA,NA,NA,NA,NA,NA,NA,NA,NA
2c376,Shallow Question,html.Page,3_0_3_0_2_1_0,NA,NA,form submission,4325.76,634916,634906.56,634923.24,639249,639249,2023-08-26T14:39:45Z,639257.56,NULL,Vergnügen,kichekesho,s,dubwana,mpanuko,mtesaji,kichekesho,NA,NA,3,NA,NA,NA,NA,NA,NA,NA,NA,NA,NA,NA,NA,NA,NA,NA,NA,NA,NA,NA
2c376,"""Richtig""-Screen",canvas.Screen,3_0_3_0_2_1_1,NA,NA,timeout,5001.2,639251,639247.7,639257.56,644242.1,644243,2023-08-26T14:39:50Z,644258.76,NULL,Vergnügen,kichekesho,s,dubwana,mpanuko,mtesaji,NA,qt,1,3,NA,NA,NA,NA,NA,NA,NA,NA,NA,NA,NA,NA,NA,NA,NA,NA,NA,NA,NA
2c376,"""Falsch""-Screen",canvas.Screen,3_0_3_0_2_1_2,NA,NA,skipped,NA,644245,NA,NA,644242.1,644246,2023-08-26T14:39:50Z,644258.76,NULL,Vergnügen,kichekesho,s,dubwana,mpanuko,mtesaji,NA,qt,NA,3,NA,NA,NA,NA,NA,NA,NA,NA,NA,NA,NA,NA,NA,NA,NA,NA,NA,NA,NA
2c376,shallow,flow.Sequence,3_0_3_0_2_1,NA,NA,completion,9318.86,634916,634906.56,634923.24,644242.1,644246,2023-08-26T14:39:50Z,644258.76,NULL,Vergnügen,kichekesho,s,dubwana,mpanuko,mtesaji,NA,qt,NA,3,NA,NA,NA,NA,NA,NA,NA,NA,NA,NA,NA,NA,NA,NA,NA,NA,NA,NA,NA
2c376,task,flow.Sequence,3_0_3_0_2,NA,NA,completion,9318.86,634914,634906.56,634923.24,644242.1,644247,2023-08-26T14:39:50Z,644258.76,NULL,Vergnügen,kichekesho,s,dubwana,mpanuko,mtesaji,NA,qt,NA,3,NA,NA,NA,NA,NA,NA,NA,NA,NA,NA,NA,NA,NA,NA,NA,NA,NA,NA,NA
2c376,deep,flow.Sequence,3_0_3_0_3_0,NA,NA,skipped,NA,644247,NA,NA,644242.1,644248,2023-08-26T14:39:50Z,644258.76,NULL,Notfall,dharura,s,rairai,malalamiko,ahueni,NA,qt,NA,3,NA,NA,NA,NA,NA,NA,NA,NA,NA,NA,NA,NA,NA,NA,NA,NA,NA,NA,NA
2c376,Shallow Question,html.Page,3_0_3_0_3_1_0,NA,NA,form submission,3781.24,644250,644242.1,644258.76,648040,648040,2023-08-26T14:39:54Z,648043.04,NULL,Notfall,dharura,s,rairai,malalamiko,ahueni,dharura,NA,NA,3,NA,NA,NA,NA,NA,NA,NA,NA,NA,NA,NA,NA,NA,NA,NA,NA,NA,NA,NA
2c376,"""Richtig""-Screen",canvas.Screen,3_0_3_0_3_1_1,NA,NA,timeout,5001.2999999999,648042,648038.04,648043.04,653027.66,653029,2023-08-26T14:39:59Z,653044.34,NULL,Notfall,dharura,s,rairai,malalamiko,ahueni,NA,qt,1,3,NA,NA,NA,NA,NA,NA,NA,NA,NA,NA,NA,NA,NA,NA,NA,NA,NA,NA,NA
2c376,"""Falsch""-Screen",canvas.Screen,3_0_3_0_3_1_2,NA,NA,skipped,NA,653039,NA,NA,653027.66,653040,2023-08-26T14:39:59Z,653044.34,NULL,Notfall,dharura,s,rairai,malalamiko,ahueni,NA,qt,NA,3,NA,NA,NA,NA,NA,NA,NA,NA,NA,NA,NA,NA,NA,NA,NA,NA,NA,NA,NA
2c376,shallow,flow.Sequence,3_0_3_0_3_1,NA,NA,completion,8768.9,644249,644242.1,644258.76,653027.66,653041,2023-08-26T14:39:59Z,653044.34,NULL,Notfall,dharura,s,rairai,malalamiko,ahueni,NA,qt,NA,3,NA,NA,NA,NA,NA,NA,NA,NA,NA,NA,NA,NA,NA,NA,NA,NA,NA,NA,NA
2c376,task,flow.Sequence,3_0_3_0_3,NA,NA,completion,8768.9,644247,644242.1,644258.76,653027.66,653042,2023-08-26T14:39:59Z,653044.34,NULL,Notfall,dharura,s,rairai,malalamiko,ahueni,NA,qt,NA,3,NA,NA,NA,NA,NA,NA,NA,NA,NA,NA,NA,NA,NA,NA,NA,NA,NA,NA,NA
2c376,deep,flow.Sequence,3_0_3_0_4_0,NA,NA,skipped,NA,653042,NA,NA,653027.66,653043,2023-08-26T14:39:59Z,653044.34,NULL,Gelegenheit,wakati,s,mchanganyiko,kipaumbele,kushuku,NA,qt,NA,3,NA,NA,NA,NA,NA,NA,NA,NA,NA,NA,NA,NA,NA,NA,NA,NA,NA,NA,NA
2c376,Shallow Question,html.Page,3_0_3_0_4_1_0,NA,NA,form submission,10860.66,653044,653027.66,653044.34,663905,663905,2023-08-26T14:40:10Z,663913.66,NULL,Gelegenheit,wakati,s,mchanganyiko,kipaumbele,kushuku,mchanganyiko,NA,NA,3,NA,NA,NA,NA,NA,NA,NA,NA,NA,NA,NA,NA,NA,NA,NA,NA,NA,NA,NA
2c376,"""Richtig""-Screen",canvas.Screen,3_0_3_0_4_1_1,NA,NA,skipped,NA,663907,NA,NA,663905,663907,2023-08-26T14:40:10Z,663913.66,NULL,Gelegenheit,wakati,s,mchanganyiko,kipaumbele,kushuku,NA,qt,NA,3,NA,NA,NA,NA,NA,NA,NA,NA,NA,NA,NA,NA,NA,NA,NA,NA,NA,NA,NA
2c376,"""Falsch""-Screen",canvas.Screen,3_0_3_0_4_1_2,NA,NA,timeout,5001.22,663909,663903.74,663913.66,668898.22,668905,2023-08-26T14:40:15Z,668914.88,NULL,Gelegenheit,wakati,s,mchanganyiko,kipaumbele,kushuku,NA,qt,0,3,NA,NA,NA,NA,NA,NA,NA,NA,NA,NA,NA,NA,NA,NA,NA,NA,NA,NA,NA
2c376,shallow,flow.Sequence,3_0_3_0_4_1,NA,NA,completion,15853.88,653044,653027.66,653044.34,668898.22,668908,2023-08-26T14:40:15Z,668914.88,NULL,Gelegenheit,wakati,s,mchanganyiko,kipaumbele,kushuku,NA,qt,NA,3,NA,NA,NA,NA,NA,NA,NA,NA,NA,NA,NA,NA,NA,NA,NA,NA,NA,NA,NA
2c376,task,flow.Sequence,3_0_3_0_4,NA,NA,completion,15853.88,653042,653027.66,653044.34,668898.22,668911,2023-08-26T14:40:15Z,668914.88,NULL,Gelegenheit,wakati,s,mchanganyiko,kipaumbele,kushuku,NA,qt,NA,3,NA,NA,NA,NA,NA,NA,NA,NA,NA,NA,NA,NA,NA,NA,NA,NA,NA,NA,NA
2c376,Deep Question,html.Page,3_0_3_0_5_0_0,NA,NA,form submission,20315.12,668913,668898.22,668914.88,689230,689230,2023-08-26T14:40:35Z,689236.56,NULL,Wohlstand,mafanikio,d,NA,NA,NA,ununuzi,NA,NA,3,NA,NA,NA,NA,NA,NA,NA,NA,NA,NA,NA,NA,NA,NA,NA,NA,NA,NA,NA
2c376,"""Richtig""-Screen",canvas.Screen,3_0_3_0_5_0_1,NA,NA,skipped,NA,689235,NA,NA,689230,689235,2023-08-26T14:40:35Z,689236.56,NULL,Wohlstand,mafanikio,d,NA,NA,NA,NA,qt,NA,3,NA,NA,NA,NA,NA,NA,NA,NA,NA,NA,NA,NA,NA,NA,NA,NA,NA,NA,NA
2c376,"""Falsch""-Screen",canvas.Screen,3_0_3_0_5_0_2,NA,NA,timeout,5001.2999999999,689238,689228.76,689236.56,694221.24,694224,2023-08-26T14:40:40Z,694237.86,NULL,Wohlstand,mafanikio,d,NA,NA,NA,NA,qt,0,3,NA,NA,NA,NA,NA,NA,NA,NA,NA,NA,NA,NA,NA,NA,NA,NA,NA,NA,NA
2c376,deep,flow.Sequence,3_0_3_0_5_0,NA,NA,completion,25306.36,668913,668898.22,668914.88,694221.24,694225,2023-08-26T14:40:40Z,694237.86,NULL,Wohlstand,mafanikio,d,NA,NA,NA,NA,qt,NA,3,NA,NA,NA,NA,NA,NA,NA,NA,NA,NA,NA,NA,NA,NA,NA,NA,NA,NA,NA
2c376,shallow,flow.Sequence,3_0_3_0_5_1,NA,NA,skipped,NA,694226,NA,NA,694221.24,694228,2023-08-26T14:40:40Z,694237.86,NULL,Wohlstand,mafanikio,d,NA,NA,NA,NA,qt,NA,3,NA,NA,NA,NA,NA,NA,NA,NA,NA,NA,NA,NA,NA,NA,NA,NA,NA,NA,NA
2c376,task,flow.Sequence,3_0_3_0_5,NA,NA,completion,25306.36,668912,668898.22,668914.88,694221.24,694229,2023-08-26T14:40:40Z,694237.86,NULL,Wohlstand,mafanikio,d,NA,NA,NA,NA,qt,NA,3,NA,NA,NA,NA,NA,NA,NA,NA,NA,NA,NA,NA,NA,NA,NA,NA,NA,NA,NA
2c376,Deep Question,html.Page,3_0_3_0_6_0_0,NA,NA,form submission,12656.14,694231,694221.24,694237.86,706894,706894,2023-08-26T14:40:53Z,706907.56,NULL,Widerstand,usulubu,d,NA,NA,NA,hfjhfjhg,NA,NA,3,NA,NA,NA,NA,NA,NA,NA,NA,NA,NA,NA,NA,NA,NA,NA,NA,NA,NA,NA
2c376,"""Richtig""-Screen",canvas.Screen,3_0_3_0_6_0_1,NA,NA,skipped,NA,706896,NA,NA,706894,706897,2023-08-26T14:40:53Z,706907.56,NULL,Widerstand,usulubu,d,NA,NA,NA,NA,qt,NA,3,NA,NA,NA,NA,NA,NA,NA,NA,NA,NA,NA,NA,NA,NA,NA,NA,NA,NA,NA
2c376,"""Falsch""-Screen",canvas.Screen,3_0_3_0_6_0_2,NA,NA,timeout,5001.24,706899,706892.34,706907.56,711892.14,711894,2023-08-26T14:40:58Z,711908.8,NULL,Widerstand,usulubu,d,NA,NA,NA,NA,qt,0,3,NA,NA,NA,NA,NA,NA,NA,NA,NA,NA,NA,NA,NA,NA,NA,NA,NA,NA,NA
2c376,deep,flow.Sequence,3_0_3_0_6_0,NA,NA,completion,17654.28,694230,694221.24,694237.86,711892.14,711895,2023-08-26T14:40:58Z,711908.8,NULL,Widerstand,usulubu,d,NA,NA,NA,NA,qt,NA,3,NA,NA,NA,NA,NA,NA,NA,NA,NA,NA,NA,NA,NA,NA,NA,NA,NA,NA,NA
2c376,shallow,flow.Sequence,3_0_3_0_6_1,NA,NA,skipped,NA,711896,NA,NA,711892.14,711896,2023-08-26T14:40:58Z,711908.8,NULL,Widerstand,usulubu,d,NA,NA,NA,NA,qt,NA,3,NA,NA,NA,NA,NA,NA,NA,NA,NA,NA,NA,NA,NA,NA,NA,NA,NA,NA,NA
2c376,task,flow.Sequence,3_0_3_0_6,NA,NA,completion,17654.28,694230,694221.24,694237.86,711892.14,711897,2023-08-26T14:40:58Z,711908.8,NULL,Widerstand,usulubu,d,NA,NA,NA,NA,qt,NA,3,NA,NA,NA,NA,NA,NA,NA,NA,NA,NA,NA,NA,NA,NA,NA,NA,NA,NA,NA
2c376,Deep Question,html.Page,3_0_3_0_7_0_0,NA,NA,form submission,9537.2,711897,711892.14,711908.8,721446,721446,2023-08-26T14:41:07Z,721444.48,NULL,Verstand,ufahamivu,d,NA,NA,NA,gfdf,NA,NA,3,NA,NA,NA,NA,NA,NA,NA,NA,NA,NA,NA,NA,NA,NA,NA,NA,NA,NA,NA
2c376,"""Richtig""-Screen",canvas.Screen,3_0_3_0_7_0_1,NA,NA,skipped,NA,721449,NA,NA,721446,721449,2023-08-26T14:41:07Z,721444.48,NULL,Verstand,ufahamivu,d,NA,NA,NA,NA,qt,NA,3,NA,NA,NA,NA,NA,NA,NA,NA,NA,NA,NA,NA,NA,NA,NA,NA,NA,NA,NA
2c376,"""Falsch""-Screen",canvas.Screen,3_0_3_0_7_0_2,NA,NA,timeout,5001.22,721451,721444.32,721444.48,726429.04,726435,2023-08-26T14:41:12Z,726445.7,NULL,Verstand,ufahamivu,d,NA,NA,NA,NA,qt,0,3,NA,NA,NA,NA,NA,NA,NA,NA,NA,NA,NA,NA,NA,NA,NA,NA,NA,NA,NA
2c376,deep,flow.Sequence,3_0_3_0_7_0,NA,NA,completion,14520.24,711897,711892.14,711908.8,726429.04,726436,2023-08-26T14:41:12Z,726445.7,NULL,Verstand,ufahamivu,d,NA,NA,NA,NA,qt,NA,3,NA,NA,NA,NA,NA,NA,NA,NA,NA,NA,NA,NA,NA,NA,NA,NA,NA,NA,NA
2c376,shallow,flow.Sequence,3_0_3_0_7_1,NA,NA,skipped,NA,726436,NA,NA,726429.04,726436,2023-08-26T14:41:12Z,726445.7,NULL,Verstand,ufahamivu,d,NA,NA,NA,NA,qt,NA,3,NA,NA,NA,NA,NA,NA,NA,NA,NA,NA,NA,NA,NA,NA,NA,NA,NA,NA,NA
2c376,task,flow.Sequence,3_0_3_0_7,NA,NA,completion,14520.24,711897,711892.14,711908.8,726429.04,726436,2023-08-26T14:41:12Z,726445.7,NULL,Verstand,ufahamivu,d,NA,NA,NA,NA,qt,NA,3,NA,NA,NA,NA,NA,NA,NA,NA,NA,NA,NA,NA,NA,NA,NA,NA,NA,NA,NA
2c376,block,flow.Loop,3_0_3_0,NA,NA,completion,126383.16,600046,600045.66,600045.88,726429.04,726437,2023-08-26T14:41:12Z,726445.7,NULL,NA,NA,NA,NA,NA,NA,NA,qt,NA,3,NA,NA,NA,NA,NA,NA,NA,NA,NA,NA,NA,NA,NA,NA,NA,NA,NA,NA,NA
2c376,weiter,canvas.Screen,3_0_3_1,sdf,keypress(Space),response,1299.3,726437,726429.04,726445.7,727745,727750,2023-08-26T14:41:14Z,727830.24,NULL,NA,NA,NA,NA,NA,NA,NA,qt,NA,3,NA,NA,NA,NA,NA,NA,NA,NA,NA,NA,NA,NA,NA,NA,NA,NA,NA,NA,NA
2c376,check continue,flow.Sequence,3_0_3,NA,NA,completion,127699.12,600046,600045.66,600045.88,727745,727751,2023-08-26T14:41:14Z,727830.24,NULL,NA,NA,NA,NA,NA,NA,NA,qt,NA,3,NA,NA,NA,NA,NA,NA,NA,NA,NA,NA,NA,NA,NA,NA,NA,NA,NA,NA,NA
2c376,Deep Question,html.Page,3_0_4_0_0_0_0,NA,NA,form submission,8225.76,727830,727829.98,727830.24,736056,736057,2023-08-26T14:41:22Z,736064.78,NULL,Widerstand,usulubu,d,NA,NA,NA,usulubu,NA,NA,4,NA,NA,NA,NA,NA,NA,NA,NA,NA,NA,NA,NA,NA,NA,NA,NA,NA,NA,NA
2c376,"""Richtig""-Screen",canvas.Screen,3_0_4_0_0_0_1,NA,NA,timeout,5001.1599999999,736059,736056.16,736064.78,741049.28,741051,2023-08-26T14:41:27Z,741065.94,NULL,Widerstand,usulubu,d,NA,NA,NA,NA,sd,1,4,NA,NA,NA,NA,NA,NA,NA,NA,NA,NA,NA,NA,NA,NA,NA,NA,NA,NA,NA
2c376,"""Falsch""-Screen",canvas.Screen,3_0_4_0_0_0_2,NA,NA,skipped,NA,741055,NA,NA,741049.28,741055,2023-08-26T14:41:27Z,741065.94,NULL,Widerstand,usulubu,d,NA,NA,NA,NA,sd,NA,4,NA,NA,NA,NA,NA,NA,NA,NA,NA,NA,NA,NA,NA,NA,NA,NA,NA,NA,NA
2c376,deep,flow.Sequence,3_0_4_0_0_0,NA,NA,completion,13219.04,727830,727829.98,727830.24,741049.28,741056,2023-08-26T14:41:27Z,741065.94,NULL,Widerstand,usulubu,d,NA,NA,NA,NA,sd,NA,4,NA,NA,NA,NA,NA,NA,NA,NA,NA,NA,NA,NA,NA,NA,NA,NA,NA,NA,NA
2c376,shallow,flow.Sequence,3_0_4_0_0_1,NA,NA,skipped,NA,741056,NA,NA,741049.28,741056,2023-08-26T14:41:27Z,741065.94,NULL,Widerstand,usulubu,d,NA,NA,NA,NA,sd,NA,4,NA,NA,NA,NA,NA,NA,NA,NA,NA,NA,NA,NA,NA,NA,NA,NA,NA,NA,NA
2c376,task,flow.Sequence,3_0_4_0_0,NA,NA,completion,13219.04,727830,727829.98,727830.24,741049.28,741056,2023-08-26T14:41:27Z,741065.94,NULL,Widerstand,usulubu,d,NA,NA,NA,NA,sd,NA,4,NA,NA,NA,NA,NA,NA,NA,NA,NA,NA,NA,NA,NA,NA,NA,NA,NA,NA,NA
2c376,Deep Question,html.Page,3_0_4_0_1_0_0,NA,NA,form submission,28107.06,741056,741049.28,741065.94,769173,769173,2023-08-26T14:41:55Z,769172.86,NULL,Verstand,ufahamivu,d,NA,NA,NA,ununuzi,NA,NA,4,NA,NA,NA,NA,NA,NA,NA,NA,NA,NA,NA,NA,NA,NA,NA,NA,NA,NA,NA
2c376,"""Richtig""-Screen",canvas.Screen,3_0_4_0_1_0_1,NA,NA,skipped,NA,769176,NA,NA,769173,769176,2023-08-26T14:41:55Z,769172.86,NULL,Verstand,ufahamivu,d,NA,NA,NA,NA,sd,NA,4,NA,NA,NA,NA,NA,NA,NA,NA,NA,NA,NA,NA,NA,NA,NA,NA,NA,NA,NA
2c376,"""Falsch""-Screen",canvas.Screen,3_0_4_0_1_0_2,NA,NA,timeout,5001.4400000001,769179,769172.24,769172.86,774157.64,774163,2023-08-26T14:42:00Z,774174.3,NULL,Verstand,ufahamivu,d,NA,NA,NA,NA,sd,0,4,NA,NA,NA,NA,NA,NA,NA,NA,NA,NA,NA,NA,NA,NA,NA,NA,NA,NA,NA
2c376,deep,flow.Sequence,3_0_4_0_1_0,NA,NA,completion,33091.7,741056,741049.28,741065.94,774157.64,774166,2023-08-26T14:42:00Z,774174.3,NULL,Verstand,ufahamivu,d,NA,NA,NA,NA,sd,NA,4,NA,NA,NA,NA,NA,NA,NA,NA,NA,NA,NA,NA,NA,NA,NA,NA,NA,NA,NA
2c376,shallow,flow.Sequence,3_0_4_0_1_1,NA,NA,skipped,NA,774166,NA,NA,774157.64,774167,2023-08-26T14:42:00Z,774174.3,NULL,Verstand,ufahamivu,d,NA,NA,NA,NA,sd,NA,4,NA,NA,NA,NA,NA,NA,NA,NA,NA,NA,NA,NA,NA,NA,NA,NA,NA,NA,NA
2c376,task,flow.Sequence,3_0_4_0_1,NA,NA,completion,33091.7,741056,741049.28,741065.94,774157.64,774168,2023-08-26T14:42:00Z,774174.3,NULL,Verstand,ufahamivu,d,NA,NA,NA,NA,sd,NA,4,NA,NA,NA,NA,NA,NA,NA,NA,NA,NA,NA,NA,NA,NA,NA,NA,NA,NA,NA
2c376,Deep Question,html.Page,3_0_4_0_2_0_0,NA,NA,form submission,3937.7,774169,774157.64,774174.3,778112,778112,2023-08-26T14:42:04Z,778125.12,NULL,Ergänzung,kijalizo,d,NA,NA,NA,ggertger,NA,NA,4,NA,NA,NA,NA,NA,NA,NA,NA,NA,NA,NA,NA,NA,NA,NA,NA,NA,NA,NA
2c376,"""Richtig""-Screen",canvas.Screen,3_0_4_0_2_0_1,NA,NA,skipped,NA,778117,NA,NA,778112,778117,2023-08-26T14:42:04Z,778125.12,NULL,Ergänzung,kijalizo,d,NA,NA,NA,NA,sd,NA,4,NA,NA,NA,NA,NA,NA,NA,NA,NA,NA,NA,NA,NA,NA,NA,NA,NA,NA,NA
2c376,"""Falsch""-Screen",canvas.Screen,3_0_4_0_2_0_2,NA,NA,timeout,5001.26,778120,778108.92,778125.12,783109.7,783111,2023-08-26T14:42:09Z,783126.38,NULL,Ergänzung,kijalizo,d,NA,NA,NA,NA,sd,0,4,NA,NA,NA,NA,NA,NA,NA,NA,NA,NA,NA,NA,NA,NA,NA,NA,NA,NA,NA
2c376,deep,flow.Sequence,3_0_4_0_2_0,NA,NA,completion,8935.3999999999,774169,774157.64,774174.3,783109.7,783111,2023-08-26T14:42:09Z,783126.38,NULL,Ergänzung,kijalizo,d,NA,NA,NA,NA,sd,NA,4,NA,NA,NA,NA,NA,NA,NA,NA,NA,NA,NA,NA,NA,NA,NA,NA,NA,NA,NA
2c376,shallow,flow.Sequence,3_0_4_0_2_1,NA,NA,skipped,NA,783111,NA,NA,783109.7,783111,2023-08-26T14:42:09Z,783126.38,NULL,Ergänzung,kijalizo,d,NA,NA,NA,NA,sd,NA,4,NA,NA,NA,NA,NA,NA,NA,NA,NA,NA,NA,NA,NA,NA,NA,NA,NA,NA,NA
2c376,task,flow.Sequence,3_0_4_0_2,NA,NA,completion,8935.3999999999,774168,774157.64,774174.3,783109.7,783112,2023-08-26T14:42:09Z,783126.38,NULL,Ergänzung,kijalizo,d,NA,NA,NA,NA,sd,NA,4,NA,NA,NA,NA,NA,NA,NA,NA,NA,NA,NA,NA,NA,NA,NA,NA,NA,NA,NA
2c376,Deep Question,html.Page,3_0_4_0_3_0_0,NA,NA,form submission,14608.62,783112,783109.7,783126.38,797735,797736,2023-08-26T14:42:24Z,797734.6,NULL,Wohlstand,mafanikio,d,NA,NA,NA,ununuzi,NA,NA,4,NA,NA,NA,NA,NA,NA,NA,NA,NA,NA,NA,NA,NA,NA,NA,NA,NA,NA,NA
2c376,"""Richtig""-Screen",canvas.Screen,3_0_4_0_3_0_1,NA,NA,skipped,NA,797737,NA,NA,797735,797737,2023-08-26T14:42:24Z,797734.6,NULL,Wohlstand,mafanikio,d,NA,NA,NA,NA,sd,NA,4,NA,NA,NA,NA,NA,NA,NA,NA,NA,NA,NA,NA,NA,NA,NA,NA,NA,NA,NA
2c376,"""Falsch""-Screen",canvas.Screen,3_0_4_0_3_0_2,NA,NA,timeout,4996.64,797740,797734.4,797734.6,802714.58,802718,2023-08-26T14:42:29Z,802731.24,NULL,Wohlstand,mafanikio,d,NA,NA,NA,NA,sd,0,4,NA,NA,NA,NA,NA,NA,NA,NA,NA,NA,NA,NA,NA,NA,NA,NA,NA,NA,NA
2c376,deep,flow.Sequence,3_0_4_0_3_0,NA,NA,completion,19588.2,783112,783109.7,783126.38,802714.58,802720,2023-08-26T14:42:29Z,802731.24,NULL,Wohlstand,mafanikio,d,NA,NA,NA,NA,sd,NA,4,NA,NA,NA,NA,NA,NA,NA,NA,NA,NA,NA,NA,NA,NA,NA,NA,NA,NA,NA
2c376,shallow,flow.Sequence,3_0_4_0_3_1,NA,NA,skipped,NA,802721,NA,NA,802714.58,802722,2023-08-26T14:42:29Z,802731.24,NULL,Wohlstand,mafanikio,d,NA,NA,NA,NA,sd,NA,4,NA,NA,NA,NA,NA,NA,NA,NA,NA,NA,NA,NA,NA,NA,NA,NA,NA,NA,NA
2c376,task,flow.Sequence,3_0_4_0_3,NA,NA,completion,19588.2,783112,783109.7,783126.38,802714.58,802722,2023-08-26T14:42:29Z,802731.24,NULL,Wohlstand,mafanikio,d,NA,NA,NA,NA,sd,NA,4,NA,NA,NA,NA,NA,NA,NA,NA,NA,NA,NA,NA,NA,NA,NA,NA,NA,NA,NA
2c376,deep,flow.Sequence,3_0_4_0_4_0,NA,NA,skipped,NA,802722,NA,NA,802714.58,802723,2023-08-26T14:42:29Z,802731.24,NULL,Notfall,dharura,s,rairai,malalamiko,ahueni,NA,sd,NA,4,NA,NA,NA,NA,NA,NA,NA,NA,NA,NA,NA,NA,NA,NA,NA,NA,NA,NA,NA
2c376,Shallow Question,html.Page,3_0_4_0_4_1_0,NA,NA,form submission,6006.76,802724,802714.58,802731.24,808738,808738,2023-08-26T14:42:35Z,808749.36,NULL,Notfall,dharura,s,rairai,malalamiko,ahueni,dharura,NA,NA,4,NA,NA,NA,NA,NA,NA,NA,NA,NA,NA,NA,NA,NA,NA,NA,NA,NA,NA,NA
2c376,"""Richtig""-Screen",canvas.Screen,3_0_4_0_4_1_1,NA,NA,timeout,5017.88,808740,808736.58,808749.36,813734.08,813736,2023-08-26T14:42:40Z,813767.24,NULL,Notfall,dharura,s,rairai,malalamiko,ahueni,NA,sd,1,4,NA,NA,NA,NA,NA,NA,NA,NA,NA,NA,NA,NA,NA,NA,NA,NA,NA,NA,NA
2c376,"""Falsch""-Screen",canvas.Screen,3_0_4_0_4_1_2,NA,NA,skipped,NA,813753,NA,NA,813734.08,813754,2023-08-26T14:42:40Z,813767.24,NULL,Notfall,dharura,s,rairai,malalamiko,ahueni,NA,sd,NA,4,NA,NA,NA,NA,NA,NA,NA,NA,NA,NA,NA,NA,NA,NA,NA,NA,NA,NA,NA
2c376,shallow,flow.Sequence,3_0_4_0_4_1,NA,NA,completion,11002.84,802724,802714.58,802731.24,813734.08,813755,2023-08-26T14:42:40Z,813767.24,NULL,Notfall,dharura,s,rairai,malalamiko,ahueni,NA,sd,NA,4,NA,NA,NA,NA,NA,NA,NA,NA,NA,NA,NA,NA,NA,NA,NA,NA,NA,NA,NA
2c376,task,flow.Sequence,3_0_4_0_4,NA,NA,completion,11002.84,802722,802714.58,802731.24,813734.08,813756,2023-08-26T14:42:40Z,813767.24,NULL,Notfall,dharura,s,rairai,malalamiko,ahueni,NA,sd,NA,4,NA,NA,NA,NA,NA,NA,NA,NA,NA,NA,NA,NA,NA,NA,NA,NA,NA,NA,NA
2c376,deep,flow.Sequence,3_0_4_0_5_0,NA,NA,skipped,NA,813758,NA,NA,813734.08,813758,2023-08-26T14:42:40Z,813767.24,NULL,Vergnügen,kichekesho,s,dubwana,mpanuko,mtesaji,NA,sd,NA,4,NA,NA,NA,NA,NA,NA,NA,NA,NA,NA,NA,NA,NA,NA,NA,NA,NA,NA,NA
2c376,Shallow Question,html.Page,3_0_4_0_5_1_0,NA,NA,form submission,3955.76,813759,813734.08,813767.24,817723,817723,2023-08-26T14:42:44Z,817734.94,NULL,Vergnügen,kichekesho,s,dubwana,mpanuko,mtesaji,kichekesho,NA,NA,4,NA,NA,NA,NA,NA,NA,NA,NA,NA,NA,NA,NA,NA,NA,NA,NA,NA,NA,NA
2c376,"""Richtig""-Screen",canvas.Screen,3_0_4_0_5_1_1,NA,NA,timeout,5001.1800000001,817725,817722.3,817734.94,822719.46,822722,2023-08-26T14:42:49Z,822736.12,NULL,Vergnügen,kichekesho,s,dubwana,mpanuko,mtesaji,NA,sd,1,4,NA,NA,NA,NA,NA,NA,NA,NA,NA,NA,NA,NA,NA,NA,NA,NA,NA,NA,NA
2c376,"""Falsch""-Screen",canvas.Screen,3_0_4_0_5_1_2,NA,NA,skipped,NA,822728,NA,NA,822719.46,822728,2023-08-26T14:42:49Z,822736.12,NULL,Vergnügen,kichekesho,s,dubwana,mpanuko,mtesaji,NA,sd,NA,4,NA,NA,NA,NA,NA,NA,NA,NA,NA,NA,NA,NA,NA,NA,NA,NA,NA,NA,NA
2c376,shallow,flow.Sequence,3_0_4_0_5_1,NA,NA,completion,8952.22,813759,813734.08,813767.24,822719.46,822730,2023-08-26T14:42:49Z,822736.12,NULL,Vergnügen,kichekesho,s,dubwana,mpanuko,mtesaji,NA,sd,NA,4,NA,NA,NA,NA,NA,NA,NA,NA,NA,NA,NA,NA,NA,NA,NA,NA,NA,NA,NA
2c376,task,flow.Sequence,3_0_4_0_5,NA,NA,completion,8952.22,813757,813734.08,813767.24,822719.46,822730,2023-08-26T14:42:49Z,822736.12,NULL,Vergnügen,kichekesho,s,dubwana,mpanuko,mtesaji,NA,sd,NA,4,NA,NA,NA,NA,NA,NA,NA,NA,NA,NA,NA,NA,NA,NA,NA,NA,NA,NA,NA
2c376,deep,flow.Sequence,3_0_4_0_6_0,NA,NA,skipped,NA,822735,NA,NA,822719.46,822735,2023-08-26T14:42:49Z,822736.12,NULL,Ausschluss,kutengwa,s,ununuzi,taratibu,madeni,NA,sd,NA,4,NA,NA,NA,NA,NA,NA,NA,NA,NA,NA,NA,NA,NA,NA,NA,NA,NA,NA,NA
2c376,Shallow Question,html.Page,3_0_4_0_6_1_0,NA,NA,form submission,10192.88,822736,822719.46,822736.12,832929,832932,2023-08-26T14:42:59Z,832938.56,NULL,Ausschluss,kutengwa,s,ununuzi,taratibu,madeni,kutengwa,NA,NA,4,NA,NA,NA,NA,NA,NA,NA,NA,NA,NA,NA,NA,NA,NA,NA,NA,NA,NA,NA
2c376,"""Richtig""-Screen",canvas.Screen,3_0_4_0_6_1_1,NA,NA,timeout,5001.4199999999,832936,832927.06,832938.56,837923.3,837925,2023-08-26T14:43:04Z,837939.98,NULL,Ausschluss,kutengwa,s,ununuzi,taratibu,madeni,NA,sd,1,4,NA,NA,NA,NA,NA,NA,NA,NA,NA,NA,NA,NA,NA,NA,NA,NA,NA,NA,NA
2c376,"""Falsch""-Screen",canvas.Screen,3_0_4_0_6_1_2,NA,NA,skipped,NA,837930,NA,NA,837923.3,837930,2023-08-26T14:43:04Z,837939.98,NULL,Ausschluss,kutengwa,s,ununuzi,taratibu,madeni,NA,sd,NA,4,NA,NA,NA,NA,NA,NA,NA,NA,NA,NA,NA,NA,NA,NA,NA,NA,NA,NA,NA
2c376,shallow,flow.Sequence,3_0_4_0_6_1,NA,NA,completion,15187.18,822735,822719.46,822736.12,837923.3,837930,2023-08-26T14:43:04Z,837939.98,NULL,Ausschluss,kutengwa,s,ununuzi,taratibu,madeni,NA,sd,NA,4,NA,NA,NA,NA,NA,NA,NA,NA,NA,NA,NA,NA,NA,NA,NA,NA,NA,NA,NA
2c376,task,flow.Sequence,3_0_4_0_6,NA,NA,completion,15187.18,822734,822719.46,822736.12,837923.3,837930,2023-08-26T14:43:04Z,837939.98,NULL,Ausschluss,kutengwa,s,ununuzi,taratibu,madeni,NA,sd,NA,4,NA,NA,NA,NA,NA,NA,NA,NA,NA,NA,NA,NA,NA,NA,NA,NA,NA,NA,NA
2c376,deep,flow.Sequence,3_0_4_0_7_0,NA,NA,skipped,NA,837931,NA,NA,837923.3,837931,2023-08-26T14:43:04Z,837939.98,NULL,Gelegenheit,wakati,s,mchanganyiko,kipaumbele,kushuku,NA,sd,NA,4,NA,NA,NA,NA,NA,NA,NA,NA,NA,NA,NA,NA,NA,NA,NA,NA,NA,NA,NA
2c376,Shallow Question,html.Page,3_0_4_0_7_1_0,NA,NA,form submission,7027.02,837932,837923.3,837939.98,844967,844967,2023-08-26T14:43:11Z,844974.96,NULL,Gelegenheit,wakati,s,mchanganyiko,kipaumbele,kushuku,wakati,NA,NA,4,NA,NA,NA,NA,NA,NA,NA,NA,NA,NA,NA,NA,NA,NA,NA,NA,NA,NA,NA
2c376,"""Richtig""-Screen",canvas.Screen,3_0_4_0_7_1_1,NA,NA,timeout,5001.2200000001,844970,844965.38,844974.96,849959.5,849962,2023-08-26T14:43:16Z,849976.18,NULL,Gelegenheit,wakati,s,mchanganyiko,kipaumbele,kushuku,NA,sd,1,4,NA,NA,NA,NA,NA,NA,NA,NA,NA,NA,NA,NA,NA,NA,NA,NA,NA,NA,NA
2c376,"""Falsch""-Screen",canvas.Screen,3_0_4_0_7_1_2,NA,NA,skipped,NA,849970,NA,NA,849959.5,849970,2023-08-26T14:43:16Z,849976.18,NULL,Gelegenheit,wakati,s,mchanganyiko,kipaumbele,kushuku,NA,sd,NA,4,NA,NA,NA,NA,NA,NA,NA,NA,NA,NA,NA,NA,NA,NA,NA,NA,NA,NA,NA
2c376,shallow,flow.Sequence,3_0_4_0_7_1,NA,NA,completion,12019.52,837931,837923.3,837939.98,849959.5,849972,2023-08-26T14:43:16Z,849976.18,NULL,Gelegenheit,wakati,s,mchanganyiko,kipaumbele,kushuku,NA,sd,NA,4,NA,NA,NA,NA,NA,NA,NA,NA,NA,NA,NA,NA,NA,NA,NA,NA,NA,NA,NA
2c376,task,flow.Sequence,3_0_4_0_7,NA,NA,completion,12019.52,837930,837923.3,837939.98,849959.5,849975,2023-08-26T14:43:16Z,849976.18,NULL,Gelegenheit,wakati,s,mchanganyiko,kipaumbele,kushuku,NA,sd,NA,4,NA,NA,NA,NA,NA,NA,NA,NA,NA,NA,NA,NA,NA,NA,NA,NA,NA,NA,NA
2c376,block,flow.Loop,3_0_4_0,NA,NA,completion,122129.26,727830,727829.98,727830.24,849959.5,849976,2023-08-26T14:43:16Z,849976.18,NULL,NA,NA,NA,NA,NA,NA,NA,sd,NA,4,NA,NA,NA,NA,NA,NA,NA,NA,NA,NA,NA,NA,NA,NA,NA,NA,NA,NA,NA
2c376,weiter,canvas.Screen,3_0_4_1,sdf,keypress(Space),response,1253.8199999999,849977,849959.5,849976.18,851230,851236,2023-08-26T14:43:17Z,851302.96,NULL,NA,NA,NA,NA,NA,NA,NA,sd,NA,4,NA,NA,NA,NA,NA,NA,NA,NA,NA,NA,NA,NA,NA,NA,NA,NA,NA,NA,NA
2c376,check continue,flow.Sequence,3_0_4,NA,NA,completion,123399.76,727829,727829.98,727830.24,851230,851236,2023-08-26T14:43:17Z,851302.96,NULL,NA,NA,NA,NA,NA,NA,NA,sd,NA,4,NA,NA,NA,NA,NA,NA,NA,NA,NA,NA,NA,NA,NA,NA,NA,NA,NA,NA,NA
2c376,deep,flow.Sequence,3_0_5_0_0_0,NA,NA,skipped,NA,851303,NA,NA,851230,851303,2023-08-26T14:43:17Z,851302.96,NULL,Vergnügen,kichekesho,s,dubwana,mpanuko,mtesaji,NA,sdf,NA,5,NA,NA,NA,NA,NA,NA,NA,NA,NA,NA,NA,NA,NA,NA,NA,NA,NA,NA,NA
2c376,Shallow Question,html.Page,3_0_5_0_0_1_0,NA,NA,form submission,8075.04,851303,851302.76,851302.96,859378,859378,2023-08-26T14:43:25Z,859378.5,NULL,Vergnügen,kichekesho,s,dubwana,mpanuko,mtesaji,kichekesho,NA,NA,5,NA,NA,NA,NA,NA,NA,NA,NA,NA,NA,NA,NA,NA,NA,NA,NA,NA,NA,NA
2c376,"""Richtig""-Screen",canvas.Screen,3_0_5_0_0_1_1,NA,NA,timeout,5001.26,859380,859376.5,859378.5,864363.1,864365,2023-08-26T14:43:30Z,864379.76,NULL,Vergnügen,kichekesho,s,dubwana,mpanuko,mtesaji,NA,sdf,1,5,NA,NA,NA,NA,NA,NA,NA,NA,NA,NA,NA,NA,NA,NA,NA,NA,NA,NA,NA
2c376,"""Falsch""-Screen",canvas.Screen,3_0_5_0_0_1_2,NA,NA,skipped,NA,864374,NA,NA,864363.1,864375,2023-08-26T14:43:30Z,864379.76,NULL,Vergnügen,kichekesho,s,dubwana,mpanuko,mtesaji,NA,sdf,NA,5,NA,NA,NA,NA,NA,NA,NA,NA,NA,NA,NA,NA,NA,NA,NA,NA,NA,NA,NA
2c376,shallow,flow.Sequence,3_0_5_0_0_1,NA,NA,completion,13060.14,851303,851302.76,851302.96,864363.1,864376,2023-08-26T14:43:30Z,864379.76,NULL,Vergnügen,kichekesho,s,dubwana,mpanuko,mtesaji,NA,sdf,NA,5,NA,NA,NA,NA,NA,NA,NA,NA,NA,NA,NA,NA,NA,NA,NA,NA,NA,NA,NA
2c376,task,flow.Sequence,3_0_5_0_0,NA,NA,completion,13060.14,851303,851302.76,851302.96,864363.1,864376,2023-08-26T14:43:30Z,864379.76,NULL,Vergnügen,kichekesho,s,dubwana,mpanuko,mtesaji,NA,sdf,NA,5,NA,NA,NA,NA,NA,NA,NA,NA,NA,NA,NA,NA,NA,NA,NA,NA,NA,NA,NA
2c376,Deep Question,html.Page,3_0_5_0_1_0_0,NA,NA,form submission,7866.24,864377,864363.1,864379.76,872246,872246,2023-08-26T14:43:38Z,872248.34,NULL,Verstand,ufahamivu,d,NA,NA,NA,usululu,NA,NA,5,NA,NA,NA,NA,NA,NA,NA,NA,NA,NA,NA,NA,NA,NA,NA,NA,NA,NA,NA
2c376,"""Richtig""-Screen",canvas.Screen,3_0_5_0_1_0_1,NA,NA,skipped,NA,872248,NA,NA,872246,872249,2023-08-26T14:43:38Z,872248.34,NULL,Verstand,ufahamivu,d,NA,NA,NA,NA,sdf,NA,5,NA,NA,NA,NA,NA,NA,NA,NA,NA,NA,NA,NA,NA,NA,NA,NA,NA,NA,NA
2c376,"""Falsch""-Screen",canvas.Screen,3_0_5_0_1_0_2,NA,NA,timeout,5001.26,872251,872245.72,872248.34,877232.94,877245,2023-08-26T14:43:43Z,877249.6,NULL,Verstand,ufahamivu,d,NA,NA,NA,NA,sdf,0,5,NA,NA,NA,NA,NA,NA,NA,NA,NA,NA,NA,NA,NA,NA,NA,NA,NA,NA,NA
2c376,deep,flow.Sequence,3_0_5_0_1_0,NA,NA,completion,12853.18,864376,864363.1,864379.76,877232.94,877246,2023-08-26T14:43:43Z,877249.6,NULL,Verstand,ufahamivu,d,NA,NA,NA,NA,sdf,NA,5,NA,NA,NA,NA,NA,NA,NA,NA,NA,NA,NA,NA,NA,NA,NA,NA,NA,NA,NA
2c376,shallow,flow.Sequence,3_0_5_0_1_1,NA,NA,skipped,NA,877247,NA,NA,877232.94,877247,2023-08-26T14:43:43Z,877249.6,NULL,Verstand,ufahamivu,d,NA,NA,NA,NA,sdf,NA,5,NA,NA,NA,NA,NA,NA,NA,NA,NA,NA,NA,NA,NA,NA,NA,NA,NA,NA,NA
2c376,task,flow.Sequence,3_0_5_0_1,NA,NA,completion,12853.18,864376,864363.1,864379.76,877232.94,877247,2023-08-26T14:43:43Z,877249.6,NULL,Verstand,ufahamivu,d,NA,NA,NA,NA,sdf,NA,5,NA,NA,NA,NA,NA,NA,NA,NA,NA,NA,NA,NA,NA,NA,NA,NA,NA,NA,NA
2c376,deep,flow.Sequence,3_0_5_0_2_0,NA,NA,skipped,NA,877248,NA,NA,877232.94,877248,2023-08-26T14:43:43Z,877249.6,NULL,Notfall,dharura,s,rairai,malalamiko,ahueni,NA,sdf,NA,5,NA,NA,NA,NA,NA,NA,NA,NA,NA,NA,NA,NA,NA,NA,NA,NA,NA,NA,NA
2c376,Shallow Question,html.Page,3_0_5_0_2_1_0,NA,NA,form submission,5868.4,877248,877232.94,877249.6,883118,883118,2023-08-26T14:43:49Z,883117.72,NULL,Notfall,dharura,s,rairai,malalamiko,ahueni,dharura,NA,NA,5,NA,NA,NA,NA,NA,NA,NA,NA,NA,NA,NA,NA,NA,NA,NA,NA,NA,NA,NA
2c376,"""Richtig""-Screen",canvas.Screen,3_0_5_0_2_1_1,NA,NA,timeout,5001.22,883120,883116.08,883117.72,888102.26,888105,2023-08-26T14:43:54Z,888118.94,NULL,Notfall,dharura,s,rairai,malalamiko,ahueni,NA,sdf,1,5,NA,NA,NA,NA,NA,NA,NA,NA,NA,NA,NA,NA,NA,NA,NA,NA,NA,NA,NA
2c376,"""Falsch""-Screen",canvas.Screen,3_0_5_0_2_1_2,NA,NA,skipped,NA,888116,NA,NA,888102.26,888117,2023-08-26T14:43:54Z,888118.94,NULL,Notfall,dharura,s,rairai,malalamiko,ahueni,NA,sdf,NA,5,NA,NA,NA,NA,NA,NA,NA,NA,NA,NA,NA,NA,NA,NA,NA,NA,NA,NA,NA
2c376,shallow,flow.Sequence,3_0_5_0_2_1,NA,NA,completion,10852.66,877248,877232.94,877249.6,888102.26,888118,2023-08-26T14:43:54Z,888118.94,NULL,Notfall,dharura,s,rairai,malalamiko,ahueni,NA,sdf,NA,5,NA,NA,NA,NA,NA,NA,NA,NA,NA,NA,NA,NA,NA,NA,NA,NA,NA,NA,NA
2c376,task,flow.Sequence,3_0_5_0_2,NA,NA,completion,10852.66,877248,877232.94,877249.6,888102.26,888118,2023-08-26T14:43:54Z,888118.94,NULL,Notfall,dharura,s,rairai,malalamiko,ahueni,NA,sdf,NA,5,NA,NA,NA,NA,NA,NA,NA,NA,NA,NA,NA,NA,NA,NA,NA,NA,NA,NA,NA
2c376,Deep Question,html.Page,3_0_5_0_3_0_0,NA,NA,form submission,3521.0600000001,888124,888102.26,888118.94,891640,891640,2023-08-26T14:43:57Z,891653.14,NULL,Ergänzung,kijalizo,d,NA,NA,NA,fegegeg,NA,NA,5,NA,NA,NA,NA,NA,NA,NA,NA,NA,NA,NA,NA,NA,NA,NA,NA,NA,NA,NA
2c376,"""Richtig""-Screen",canvas.Screen,3_0_5_0_3_0_1,NA,NA,skipped,NA,891642,NA,NA,891640,891643,2023-08-26T14:43:57Z,891653.14,NULL,Ergänzung,kijalizo,d,NA,NA,NA,NA,sdf,NA,5,NA,NA,NA,NA,NA,NA,NA,NA,NA,NA,NA,NA,NA,NA,NA,NA,NA,NA,NA
2c376,"""Falsch""-Screen",canvas.Screen,3_0_5_0_3_0_2,NA,NA,timeout,5001.26,891645,891637.58,891653.14,896637.74,896640,2023-08-26T14:44:02Z,896654.4,NULL,Ergänzung,kijalizo,d,NA,NA,NA,NA,sdf,0,5,NA,NA,NA,NA,NA,NA,NA,NA,NA,NA,NA,NA,NA,NA,NA,NA,NA,NA,NA
2c376,deep,flow.Sequence,3_0_5_0_3_0,NA,NA,completion,8518.8,888124,888102.26,888118.94,896637.74,896641,2023-08-26T14:44:02Z,896654.4,NULL,Ergänzung,kijalizo,d,NA,NA,NA,NA,sdf,NA,5,NA,NA,NA,NA,NA,NA,NA,NA,NA,NA,NA,NA,NA,NA,NA,NA,NA,NA,NA
2c376,shallow,flow.Sequence,3_0_5_0_3_1,NA,NA,skipped,NA,896642,NA,NA,896637.74,896642,2023-08-26T14:44:02Z,896654.4,NULL,Ergänzung,kijalizo,d,NA,NA,NA,NA,sdf,NA,5,NA,NA,NA,NA,NA,NA,NA,NA,NA,NA,NA,NA,NA,NA,NA,NA,NA,NA,NA
2c376,task,flow.Sequence,3_0_5_0_3,NA,NA,completion,8518.8,888123,888102.26,888118.94,896637.74,896643,2023-08-26T14:44:02Z,896654.4,NULL,Ergänzung,kijalizo,d,NA,NA,NA,NA,sdf,NA,5,NA,NA,NA,NA,NA,NA,NA,NA,NA,NA,NA,NA,NA,NA,NA,NA,NA,NA,NA
2c376,Deep Question,html.Page,3_0_5_0_4_0_0,NA,NA,form submission,6299.6,896643,896637.74,896654.4,902954,902954,2023-08-26T14:44:09Z,902955.96,NULL,Widerstand,usulubu,d,NA,NA,NA,usululu,NA,NA,5,NA,NA,NA,NA,NA,NA,NA,NA,NA,NA,NA,NA,NA,NA,NA,NA,NA,NA,NA
2c376,"""Richtig""-Screen",canvas.Screen,3_0_5_0_4_0_1,NA,NA,skipped,NA,902957,NA,NA,902954,902957,2023-08-26T14:44:09Z,902955.96,NULL,Widerstand,usulubu,d,NA,NA,NA,NA,sdf,NA,5,NA,NA,NA,NA,NA,NA,NA,NA,NA,NA,NA,NA,NA,NA,NA,NA,NA,NA,NA
2c376,"""Falsch""-Screen",canvas.Screen,3_0_5_0_4_0_2,NA,NA,timeout,5001.2200000001,902958,902954.2,902955.96,907940.62,907942,2023-08-26T14:44:14Z,907957.18,NULL,Widerstand,usulubu,d,NA,NA,NA,NA,sdf,0,5,NA,NA,NA,NA,NA,NA,NA,NA,NA,NA,NA,NA,NA,NA,NA,NA,NA,NA,NA
2c376,deep,flow.Sequence,3_0_5_0_4_0,NA,NA,completion,11286.22,896643,896637.74,896654.4,907940.62,907943,2023-08-26T14:44:14Z,907957.18,NULL,Widerstand,usulubu,d,NA,NA,NA,NA,sdf,NA,5,NA,NA,NA,NA,NA,NA,NA,NA,NA,NA,NA,NA,NA,NA,NA,NA,NA,NA,NA
2c376,shallow,flow.Sequence,3_0_5_0_4_1,NA,NA,skipped,NA,907944,NA,NA,907940.62,907944,2023-08-26T14:44:14Z,907957.18,NULL,Widerstand,usulubu,d,NA,NA,NA,NA,sdf,NA,5,NA,NA,NA,NA,NA,NA,NA,NA,NA,NA,NA,NA,NA,NA,NA,NA,NA,NA,NA
2c376,task,flow.Sequence,3_0_5_0_4,NA,NA,completion,11286.22,896643,896637.74,896654.4,907940.62,907944,2023-08-26T14:44:14Z,907957.18,NULL,Widerstand,usulubu,d,NA,NA,NA,NA,sdf,NA,5,NA,NA,NA,NA,NA,NA,NA,NA,NA,NA,NA,NA,NA,NA,NA,NA,NA,NA,NA
2c376,Deep Question,html.Page,3_0_5_0_5_0_0,NA,NA,form submission,5673.8199999999,907945,907940.62,907957.18,913631,913631,2023-08-26T14:44:19Z,913641.9,NULL,Wohlstand,mafanikio,d,NA,NA,NA,dbdfbdfbdf,NA,NA,5,NA,NA,NA,NA,NA,NA,NA,NA,NA,NA,NA,NA,NA,NA,NA,NA,NA,NA,NA
2c376,"""Richtig""-Screen",canvas.Screen,3_0_5_0_5_0_1,NA,NA,skipped,NA,913633,NA,NA,913631,913634,2023-08-26T14:44:19Z,913641.9,NULL,Wohlstand,mafanikio,d,NA,NA,NA,NA,sdf,NA,5,NA,NA,NA,NA,NA,NA,NA,NA,NA,NA,NA,NA,NA,NA,NA,NA,NA,NA,NA
2c376,"""Falsch""-Screen",canvas.Screen,3_0_5_0_5_0_2,NA,NA,timeout,5001.26,913635,913630.2,913641.9,918626.56,918628,2023-08-26T14:44:24Z,918643.16,NULL,Wohlstand,mafanikio,d,NA,NA,NA,NA,sdf,0,5,NA,NA,NA,NA,NA,NA,NA,NA,NA,NA,NA,NA,NA,NA,NA,NA,NA,NA,NA
2c376,deep,flow.Sequence,3_0_5_0_5_0,NA,NA,completion,10669.38,907945,907940.62,907957.18,918626.56,918629,2023-08-26T14:44:24Z,918643.16,NULL,Wohlstand,mafanikio,d,NA,NA,NA,NA,sdf,NA,5,NA,NA,NA,NA,NA,NA,NA,NA,NA,NA,NA,NA,NA,NA,NA,NA,NA,NA,NA
2c376,shallow,flow.Sequence,3_0_5_0_5_1,NA,NA,skipped,NA,918630,NA,NA,918626.56,918630,2023-08-26T14:44:24Z,918643.16,NULL,Wohlstand,mafanikio,d,NA,NA,NA,NA,sdf,NA,5,NA,NA,NA,NA,NA,NA,NA,NA,NA,NA,NA,NA,NA,NA,NA,NA,NA,NA,NA
2c376,task,flow.Sequence,3_0_5_0_5,NA,NA,completion,10669.38,907945,907940.62,907957.18,918626.56,918631,2023-08-26T14:44:24Z,918643.16,NULL,Wohlstand,mafanikio,d,NA,NA,NA,NA,sdf,NA,5,NA,NA,NA,NA,NA,NA,NA,NA,NA,NA,NA,NA,NA,NA,NA,NA,NA,NA,NA
2c376,deep,flow.Sequence,3_0_5_0_6_0,NA,NA,skipped,NA,918632,NA,NA,918626.56,918632,2023-08-26T14:44:24Z,918643.16,NULL,Gelegenheit,wakati,s,mchanganyiko,kipaumbele,kushuku,NA,sdf,NA,5,NA,NA,NA,NA,NA,NA,NA,NA,NA,NA,NA,NA,NA,NA,NA,NA,NA,NA,NA
2c376,Shallow Question,html.Page,3_0_5_0_6_1_0,NA,NA,form submission,7338.84,918633,918626.56,918643.16,925982,925984,2023-08-26T14:44:32Z,925995.06,NULL,Gelegenheit,wakati,s,mchanganyiko,kipaumbele,kushuku,wakati,NA,NA,5,NA,NA,NA,NA,NA,NA,NA,NA,NA,NA,NA,NA,NA,NA,NA,NA,NA,NA,NA
2c376,"""Richtig""-Screen",canvas.Screen,3_0_5_0_6_1_1,NA,NA,timeout,5001.1799999999,925989,925979,925995.06,930979.56,930982,2023-08-26T14:44:37Z,930996.24,NULL,Gelegenheit,wakati,s,mchanganyiko,kipaumbele,kushuku,NA,sdf,1,5,NA,NA,NA,NA,NA,NA,NA,NA,NA,NA,NA,NA,NA,NA,NA,NA,NA,NA,NA
2c376,"""Falsch""-Screen",canvas.Screen,3_0_5_0_6_1_2,NA,NA,skipped,NA,930994,NA,NA,930979.56,930995,2023-08-26T14:44:37Z,930996.24,NULL,Gelegenheit,wakati,s,mchanganyiko,kipaumbele,kushuku,NA,sdf,NA,5,NA,NA,NA,NA,NA,NA,NA,NA,NA,NA,NA,NA,NA,NA,NA,NA,NA,NA,NA
2c376,shallow,flow.Sequence,3_0_5_0_6_1,NA,NA,completion,12336.4,918632,918626.56,918643.16,930979.56,930999,2023-08-26T14:44:37Z,930996.24,NULL,Gelegenheit,wakati,s,mchanganyiko,kipaumbele,kushuku,NA,sdf,NA,5,NA,NA,NA,NA,NA,NA,NA,NA,NA,NA,NA,NA,NA,NA,NA,NA,NA,NA,NA
2c376,task,flow.Sequence,3_0_5_0_6,NA,NA,completion,12336.4,918631,918626.56,918643.16,930979.56,931001,2023-08-26T14:44:37Z,930996.24,NULL,Gelegenheit,wakati,s,mchanganyiko,kipaumbele,kushuku,NA,sdf,NA,5,NA,NA,NA,NA,NA,NA,NA,NA,NA,NA,NA,NA,NA,NA,NA,NA,NA,NA,NA
2c376,deep,flow.Sequence,3_0_5_0_7_0,NA,NA,skipped,NA,931002,NA,NA,930979.56,931003,2023-08-26T14:44:37Z,930996.24,NULL,Ausschluss,kutengwa,s,ununuzi,taratibu,madeni,NA,sdf,NA,5,NA,NA,NA,NA,NA,NA,NA,NA,NA,NA,NA,NA,NA,NA,NA,NA,NA,NA,NA
2c376,Shallow Question,html.Page,3_0_5_0_7_1_0,NA,NA,form submission,8762.76,931004,930979.56,930996.24,939759,939759,2023-08-26T14:44:46Z,939764.98,NULL,Ausschluss,kutengwa,s,ununuzi,taratibu,madeni,kutengwa,NA,NA,5,NA,NA,NA,NA,NA,NA,NA,NA,NA,NA,NA,NA,NA,NA,NA,NA,NA,NA,NA
2c376,"""Richtig""-Screen",canvas.Screen,3_0_5_0_7_1_1,NA,NA,timeout,5001.3200000001,939761,939757.56,939764.98,944749.74,944751,2023-08-26T14:44:51Z,944766.3,NULL,Ausschluss,kutengwa,s,ununuzi,taratibu,madeni,NA,sdf,1,5,NA,NA,NA,NA,NA,NA,NA,NA,NA,NA,NA,NA,NA,NA,NA,NA,NA,NA,NA
2c376,"""Falsch""-Screen",canvas.Screen,3_0_5_0_7_1_2,NA,NA,skipped,NA,944760,NA,NA,944749.74,944761,2023-08-26T14:44:51Z,944766.3,NULL,Ausschluss,kutengwa,s,ununuzi,taratibu,madeni,NA,sdf,NA,5,NA,NA,NA,NA,NA,NA,NA,NA,NA,NA,NA,NA,NA,NA,NA,NA,NA,NA,NA
2c376,shallow,flow.Sequence,3_0_5_0_7_1,NA,NA,completion,13753.5,931004,930979.56,930996.24,944749.74,944762,2023-08-26T14:44:51Z,944766.3,NULL,Ausschluss,kutengwa,s,ununuzi,taratibu,madeni,NA,sdf,NA,5,NA,NA,NA,NA,NA,NA,NA,NA,NA,NA,NA,NA,NA,NA,NA,NA,NA,NA,NA
2c376,task,flow.Sequence,3_0_5_0_7,NA,NA,completion,13753.5,931002,930979.56,930996.24,944749.74,944764,2023-08-26T14:44:51Z,944766.3,NULL,Ausschluss,kutengwa,s,ununuzi,taratibu,madeni,NA,sdf,NA,5,NA,NA,NA,NA,NA,NA,NA,NA,NA,NA,NA,NA,NA,NA,NA,NA,NA,NA,NA
2c376,block,flow.Loop,3_0_5_0,NA,NA,completion,93446.78,851303,851302.76,851302.96,944749.74,944765,2023-08-26T14:44:51Z,944766.3,NULL,NA,NA,NA,NA,NA,NA,NA,sdf,NA,5,NA,NA,NA,NA,NA,NA,NA,NA,NA,NA,NA,NA,NA,NA,NA,NA,NA,NA,NA
2c376,weiter,canvas.Screen,3_0_5_1,sdf,keypress(Space),response,1290.7,944766,944749.74,944766.3,946057,946064,2023-08-26T14:44:52Z,946123.76,NULL,NA,NA,NA,NA,NA,NA,NA,sdf,NA,5,NA,NA,NA,NA,NA,NA,NA,NA,NA,NA,NA,NA,NA,NA,NA,NA,NA,NA,NA
2c376,check continue,flow.Sequence,3_0_5,NA,NA,completion,94754.04,851303,851302.76,851302.96,946057,946064,2023-08-26T14:44:52Z,946123.76,NULL,NA,NA,NA,NA,NA,NA,NA,sdf,NA,5,NA,NA,NA,NA,NA,NA,NA,NA,NA,NA,NA,NA,NA,NA,NA,NA,NA,NA,NA
2c376,Deep Question,html.Page,3_0_6_0_0_0_0,NA,NA,form submission,8186.24,946123,946123.5,946123.76,954310,954311,2023-08-26T14:45:00Z,954318.6,NULL,Verstand,ufahamivu,d,NA,NA,NA,cv bdfbdfbfd,NA,NA,6,NA,NA,NA,NA,NA,NA,NA,NA,NA,NA,NA,NA,NA,NA,NA,NA,NA,NA,NA
2c376,"""Richtig""-Screen",canvas.Screen,3_0_6_0_0_0_1,NA,NA,skipped,NA,954313,NA,NA,954310,954313,2023-08-26T14:45:00Z,954318.6,NULL,Verstand,ufahamivu,d,NA,NA,NA,NA,dfs,NA,6,NA,NA,NA,NA,NA,NA,NA,NA,NA,NA,NA,NA,NA,NA,NA,NA,NA,NA,NA
2c376,"""Falsch""-Screen",canvas.Screen,3_0_6_0_0_0_2,NA,NA,timeout,5001.24,954315,954309.02,954318.6,959303.16,959309,2023-08-26T14:45:05Z,959319.84,NULL,Verstand,ufahamivu,d,NA,NA,NA,NA,dfs,0,6,NA,NA,NA,NA,NA,NA,NA,NA,NA,NA,NA,NA,NA,NA,NA,NA,NA,NA,NA
2c376,deep,flow.Sequence,3_0_6_0_0_0,NA,NA,completion,13179.4,946123,946123.5,946123.76,959303.16,959312,2023-08-26T14:45:05Z,959319.84,NULL,Verstand,ufahamivu,d,NA,NA,NA,NA,dfs,NA,6,NA,NA,NA,NA,NA,NA,NA,NA,NA,NA,NA,NA,NA,NA,NA,NA,NA,NA,NA
2c376,shallow,flow.Sequence,3_0_6_0_0_1,NA,NA,skipped,NA,959313,NA,NA,959303.16,959313,2023-08-26T14:45:05Z,959319.84,NULL,Verstand,ufahamivu,d,NA,NA,NA,NA,dfs,NA,6,NA,NA,NA,NA,NA,NA,NA,NA,NA,NA,NA,NA,NA,NA,NA,NA,NA,NA,NA
2c376,task,flow.Sequence,3_0_6_0_0,NA,NA,completion,13179.4,946123,946123.5,946123.76,959303.16,959315,2023-08-26T14:45:05Z,959319.84,NULL,Verstand,ufahamivu,d,NA,NA,NA,NA,dfs,NA,6,NA,NA,NA,NA,NA,NA,NA,NA,NA,NA,NA,NA,NA,NA,NA,NA,NA,NA,NA
2c376,Deep Question,html.Page,3_0_6_0_1_0_0,NA,NA,form submission,9597.16,959317,959303.16,959319.84,968917,968918,2023-08-26T14:45:15Z,968922.22,NULL,Wohlstand,mafanikio,d,NA,NA,NA,dffvsgs,NA,NA,6,NA,NA,NA,NA,NA,NA,NA,NA,NA,NA,NA,NA,NA,NA,NA,NA,NA,NA,NA
2c376,"""Richtig""-Screen",canvas.Screen,3_0_6_0_1_0_1,NA,NA,skipped,NA,968923,NA,NA,968917,968923,2023-08-26T14:45:15Z,968922.22,NULL,Wohlstand,mafanikio,d,NA,NA,NA,NA,dfs,NA,6,NA,NA,NA,NA,NA,NA,NA,NA,NA,NA,NA,NA,NA,NA,NA,NA,NA,NA,NA
2c376,"""Falsch""-Screen",canvas.Screen,3_0_6_0_1_0_2,NA,NA,timeout,5001.22,968926,968914.78,968922.22,973906.88,973910,2023-08-26T14:45:20Z,973923.44,NULL,Wohlstand,mafanikio,d,NA,NA,NA,NA,dfs,0,6,NA,NA,NA,NA,NA,NA,NA,NA,NA,NA,NA,NA,NA,NA,NA,NA,NA,NA,NA
2c376,deep,flow.Sequence,3_0_6_0_1_0,NA,NA,completion,14587.04,959316,959303.16,959319.84,973906.88,973911,2023-08-26T14:45:20Z,973923.44,NULL,Wohlstand,mafanikio,d,NA,NA,NA,NA,dfs,NA,6,NA,NA,NA,NA,NA,NA,NA,NA,NA,NA,NA,NA,NA,NA,NA,NA,NA,NA,NA
2c376,shallow,flow.Sequence,3_0_6_0_1_1,NA,NA,skipped,NA,973911,NA,NA,973906.88,973912,2023-08-26T14:45:20Z,973923.44,NULL,Wohlstand,mafanikio,d,NA,NA,NA,NA,dfs,NA,6,NA,NA,NA,NA,NA,NA,NA,NA,NA,NA,NA,NA,NA,NA,NA,NA,NA,NA,NA
2c376,task,flow.Sequence,3_0_6_0_1,NA,NA,completion,14587.04,959315,959303.16,959319.84,973906.88,973913,2023-08-26T14:45:20Z,973923.44,NULL,Wohlstand,mafanikio,d,NA,NA,NA,NA,dfs,NA,6,NA,NA,NA,NA,NA,NA,NA,NA,NA,NA,NA,NA,NA,NA,NA,NA,NA,NA,NA
2c376,deep,flow.Sequence,3_0_6_0_2_0,NA,NA,skipped,NA,973913,NA,NA,973906.88,973914,2023-08-26T14:45:20Z,973923.44,NULL,Vergnügen,kichekesho,s,dubwana,mpanuko,mtesaji,NA,dfs,NA,6,NA,NA,NA,NA,NA,NA,NA,NA,NA,NA,NA,NA,NA,NA,NA,NA,NA,NA,NA
2c376,Shallow Question,html.Page,3_0_6_0_2_1_0,NA,NA,form submission,4803.5600000001,973915,973906.88,973923.44,978727,978728,2023-08-26T14:45:25Z,978741.3,NULL,Vergnügen,kichekesho,s,dubwana,mpanuko,mtesaji,kichekesho,NA,NA,6,NA,NA,NA,NA,NA,NA,NA,NA,NA,NA,NA,NA,NA,NA,NA,NA,NA,NA,NA
2c376,"""Richtig""-Screen",canvas.Screen,3_0_6_0_2_1_1,NA,NA,timeout,5001.3199999999,978730,978725.64,978741.3,983725.96,983728,2023-08-26T14:45:30Z,983742.62,NULL,Vergnügen,kichekesho,s,dubwana,mpanuko,mtesaji,NA,dfs,1,6,NA,NA,NA,NA,NA,NA,NA,NA,NA,NA,NA,NA,NA,NA,NA,NA,NA,NA,NA
2c376,"""Falsch""-Screen",canvas.Screen,3_0_6_0_2_1_2,NA,NA,skipped,NA,983733,NA,NA,983725.96,983733,2023-08-26T14:45:30Z,983742.62,NULL,Vergnügen,kichekesho,s,dubwana,mpanuko,mtesaji,NA,dfs,NA,6,NA,NA,NA,NA,NA,NA,NA,NA,NA,NA,NA,NA,NA,NA,NA,NA,NA,NA,NA
2c376,shallow,flow.Sequence,3_0_6_0_2_1,NA,NA,completion,9802.52,973914,973906.88,973923.44,983725.96,983733,2023-08-26T14:45:30Z,983742.62,NULL,Vergnügen,kichekesho,s,dubwana,mpanuko,mtesaji,NA,dfs,NA,6,NA,NA,NA,NA,NA,NA,NA,NA,NA,NA,NA,NA,NA,NA,NA,NA,NA,NA,NA
2c376,task,flow.Sequence,3_0_6_0_2,NA,NA,completion,9802.52,973913,973906.88,973923.44,983725.96,983733,2023-08-26T14:45:30Z,983742.62,NULL,Vergnügen,kichekesho,s,dubwana,mpanuko,mtesaji,NA,dfs,NA,6,NA,NA,NA,NA,NA,NA,NA,NA,NA,NA,NA,NA,NA,NA,NA,NA,NA,NA,NA
2c376,Deep Question,html.Page,3_0_6_0_3_0_0,NA,NA,form submission,11795.38,983734,983725.96,983742.62,995538,995538,2023-08-26T14:45:41Z,995545.42,NULL,Widerstand,usulubu,d,NA,NA,NA,usulubu,NA,NA,6,NA,NA,NA,NA,NA,NA,NA,NA,NA,NA,NA,NA,NA,NA,NA,NA,NA,NA,NA
2c376,"""Richtig""-Screen",canvas.Screen,3_0_6_0_3_0_1,NA,NA,timeout,5017.9399999999,995540,995536.32,995545.42,1000530.02,1000532,2023-08-26T14:45:46Z,1000563.36,NULL,Widerstand,usulubu,d,NA,NA,NA,NA,dfs,1,6,NA,NA,NA,NA,NA,NA,NA,NA,NA,NA,NA,NA,NA,NA,NA,NA,NA,NA,NA
2c376,"""Falsch""-Screen",canvas.Screen,3_0_6_0_3_0_2,NA,NA,skipped,NA,1000545,NA,NA,1000530.02,1000545,2023-08-26T14:45:46Z,1000563.36,NULL,Widerstand,usulubu,d,NA,NA,NA,NA,dfs,NA,6,NA,NA,NA,NA,NA,NA,NA,NA,NA,NA,NA,NA,NA,NA,NA,NA,NA,NA,NA
2c376,deep,flow.Sequence,3_0_6_0_3_0,NA,NA,completion,16787.4,983734,983725.96,983742.62,1000530.02,1000551,2023-08-26T14:45:46Z,1000563.36,NULL,Widerstand,usulubu,d,NA,NA,NA,NA,dfs,NA,6,NA,NA,NA,NA,NA,NA,NA,NA,NA,NA,NA,NA,NA,NA,NA,NA,NA,NA,NA
2c376,shallow,flow.Sequence,3_0_6_0_3_1,NA,NA,skipped,NA,1000552,NA,NA,1000530.02,1000552,2023-08-26T14:45:46Z,1000563.36,NULL,Widerstand,usulubu,d,NA,NA,NA,NA,dfs,NA,6,NA,NA,NA,NA,NA,NA,NA,NA,NA,NA,NA,NA,NA,NA,NA,NA,NA,NA,NA
2c376,task,flow.Sequence,3_0_6_0_3,NA,NA,completion,16787.4,983734,983725.96,983742.62,1000530.02,1000553,2023-08-26T14:45:46Z,1000563.36,NULL,Widerstand,usulubu,d,NA,NA,NA,NA,dfs,NA,6,NA,NA,NA,NA,NA,NA,NA,NA,NA,NA,NA,NA,NA,NA,NA,NA,NA,NA,NA
2c376,deep,flow.Sequence,3_0_6_0_4_0,NA,NA,skipped,NA,1000554,NA,NA,1000530.02,1000554,2023-08-26T14:45:46Z,1000563.36,NULL,Gelegenheit,wakati,s,mchanganyiko,kipaumbele,kushuku,NA,dfs,NA,6,NA,NA,NA,NA,NA,NA,NA,NA,NA,NA,NA,NA,NA,NA,NA,NA,NA,NA,NA
2c376,Shallow Question,html.Page,3_0_6_0_4_1_0,NA,NA,form submission,5820.64,1000555,1000530.02,1000563.36,1006384,1006384,2023-08-26T14:45:52Z,1006398.14,NULL,Gelegenheit,wakati,s,mchanganyiko,kipaumbele,kushuku,wakati,NA,NA,6,NA,NA,NA,NA,NA,NA,NA,NA,NA,NA,NA,NA,NA,NA,NA,NA,NA,NA,NA
2c376,"""Richtig""-Screen",canvas.Screen,3_0_6_0_4_1_1,NA,NA,timeout,5001.24,1006385,1006382.42,1006398.14,1011382.74,1011384,2023-08-26T14:45:57Z,1011399.38,NULL,Gelegenheit,wakati,s,mchanganyiko,kipaumbele,kushuku,NA,dfs,1,6,NA,NA,NA,NA,NA,NA,NA,NA,NA,NA,NA,NA,NA,NA,NA,NA,NA,NA,NA
2c376,"""Falsch""-Screen",canvas.Screen,3_0_6_0_4_1_2,NA,NA,skipped,NA,1011390,NA,NA,1011382.74,1011390,2023-08-26T14:45:57Z,1011399.38,NULL,Gelegenheit,wakati,s,mchanganyiko,kipaumbele,kushuku,NA,dfs,NA,6,NA,NA,NA,NA,NA,NA,NA,NA,NA,NA,NA,NA,NA,NA,NA,NA,NA,NA,NA
2c376,shallow,flow.Sequence,3_0_6_0_4_1,NA,NA,completion,10819.38,1000554,1000530.02,1000563.36,1011382.74,1011390,2023-08-26T14:45:57Z,1011399.38,NULL,Gelegenheit,wakati,s,mchanganyiko,kipaumbele,kushuku,NA,dfs,NA,6,NA,NA,NA,NA,NA,NA,NA,NA,NA,NA,NA,NA,NA,NA,NA,NA,NA,NA,NA
2c376,task,flow.Sequence,3_0_6_0_4,NA,NA,completion,10819.38,1000553,1000530.02,1000563.36,1011382.74,1011390,2023-08-26T14:45:57Z,1011399.38,NULL,Gelegenheit,wakati,s,mchanganyiko,kipaumbele,kushuku,NA,dfs,NA,6,NA,NA,NA,NA,NA,NA,NA,NA,NA,NA,NA,NA,NA,NA,NA,NA,NA,NA,NA
2c376,deep,flow.Sequence,3_0_6_0_5_0,NA,NA,skipped,NA,1011390,NA,NA,1011382.74,1011390,2023-08-26T14:45:57Z,1011399.38,NULL,Ausschluss,kutengwa,s,ununuzi,taratibu,madeni,NA,dfs,NA,6,NA,NA,NA,NA,NA,NA,NA,NA,NA,NA,NA,NA,NA,NA,NA,NA,NA,NA,NA
2c376,Shallow Question,html.Page,3_0_6_0_5_1_0,NA,NA,form submission,6708.62,1011390,1011382.74,1011399.38,1018108,1018110,2023-08-26T14:46:04Z,1018117.68,NULL,Ausschluss,kutengwa,s,ununuzi,taratibu,madeni,kutengwa,NA,NA,6,NA,NA,NA,NA,NA,NA,NA,NA,NA,NA,NA,NA,NA,NA,NA,NA,NA,NA,NA
2c376,"""Richtig""-Screen",canvas.Screen,3_0_6_0_5_1_1,NA,NA,timeout,5001.22,1018115,1018105.88,1018117.68,1023102.24,1023103,2023-08-26T14:46:09Z,1023118.9,NULL,Ausschluss,kutengwa,s,ununuzi,taratibu,madeni,NA,dfs,1,6,NA,NA,NA,NA,NA,NA,NA,NA,NA,NA,NA,NA,NA,NA,NA,NA,NA,NA,NA
2c376,"""Falsch""-Screen",canvas.Screen,3_0_6_0_5_1_2,NA,NA,skipped,NA,1023105,NA,NA,1023102.24,1023105,2023-08-26T14:46:09Z,1023118.9,NULL,Ausschluss,kutengwa,s,ununuzi,taratibu,madeni,NA,dfs,NA,6,NA,NA,NA,NA,NA,NA,NA,NA,NA,NA,NA,NA,NA,NA,NA,NA,NA,NA,NA
2c376,shallow,flow.Sequence,3_0_6_0_5_1,NA,NA,completion,11702.86,1011390,1011382.74,1011399.38,1023102.24,1023106,2023-08-26T14:46:09Z,1023118.9,NULL,Ausschluss,kutengwa,s,ununuzi,taratibu,madeni,NA,dfs,NA,6,NA,NA,NA,NA,NA,NA,NA,NA,NA,NA,NA,NA,NA,NA,NA,NA,NA,NA,NA
2c376,task,flow.Sequence,3_0_6_0_5,NA,NA,completion,11702.86,1011390,1011382.74,1011399.38,1023102.24,1023106,2023-08-26T14:46:09Z,1023118.9,NULL,Ausschluss,kutengwa,s,ununuzi,taratibu,madeni,NA,dfs,NA,6,NA,NA,NA,NA,NA,NA,NA,NA,NA,NA,NA,NA,NA,NA,NA,NA,NA,NA,NA
2c376,deep,flow.Sequence,3_0_6_0_6_0,NA,NA,skipped,NA,1023106,NA,NA,1023102.24,1023106,2023-08-26T14:46:09Z,1023118.9,NULL,Notfall,dharura,s,rairai,malalamiko,ahueni,NA,dfs,NA,6,NA,NA,NA,NA,NA,NA,NA,NA,NA,NA,NA,NA,NA,NA,NA,NA,NA,NA,NA
2c376,Shallow Question,html.Page,3_0_6_0_6_1_0,NA,NA,form submission,6351.1,1023107,1023102.24,1023118.9,1029470,1029470,2023-08-26T14:46:15Z,1029470.46,NULL,Notfall,dharura,s,rairai,malalamiko,ahueni,dharura,NA,NA,6,NA,NA,NA,NA,NA,NA,NA,NA,NA,NA,NA,NA,NA,NA,NA,NA,NA,NA,NA
2c376,"""Richtig""-Screen",canvas.Screen,3_0_6_0_6_1_1,NA,NA,timeout,5001.24,1029473,1029468.68,1029470.46,1034455.04,1034457,2023-08-26T14:46:20Z,1034471.7,NULL,Notfall,dharura,s,rairai,malalamiko,ahueni,NA,dfs,1,6,NA,NA,NA,NA,NA,NA,NA,NA,NA,NA,NA,NA,NA,NA,NA,NA,NA,NA,NA
2c376,"""Falsch""-Screen",canvas.Screen,3_0_6_0_6_1_2,NA,NA,skipped,NA,1034470,NA,NA,1034455.04,1034471,2023-08-26T14:46:20Z,1034471.7,NULL,Notfall,dharura,s,rairai,malalamiko,ahueni,NA,dfs,NA,6,NA,NA,NA,NA,NA,NA,NA,NA,NA,NA,NA,NA,NA,NA,NA,NA,NA,NA,NA
2c376,shallow,flow.Sequence,3_0_6_0_6_1,NA,NA,completion,11336.14,1023106,1023102.24,1023118.9,1034455.04,1034475,2023-08-26T14:46:20Z,1034471.7,NULL,Notfall,dharura,s,rairai,malalamiko,ahueni,NA,dfs,NA,6,NA,NA,NA,NA,NA,NA,NA,NA,NA,NA,NA,NA,NA,NA,NA,NA,NA,NA,NA
2c376,task,flow.Sequence,3_0_6_0_6,NA,NA,completion,11336.14,1023106,1023102.24,1023118.9,1034455.04,1034476,2023-08-26T14:46:20Z,1034471.7,NULL,Notfall,dharura,s,rairai,malalamiko,ahueni,NA,dfs,NA,6,NA,NA,NA,NA,NA,NA,NA,NA,NA,NA,NA,NA,NA,NA,NA,NA,NA,NA,NA
2c376,Deep Question,html.Page,3_0_6_0_7_0_0,NA,NA,form submission,16184.3,1034477,1034455.04,1034471.7,1050656,1050657,2023-08-26T14:46:37Z,1050658.96,NULL,Ergänzung,kijalizo,d,NA,NA,NA,hztjtz,NA,NA,6,NA,NA,NA,NA,NA,NA,NA,NA,NA,NA,NA,NA,NA,NA,NA,NA,NA,NA,NA
2c376,"""Richtig""-Screen",canvas.Screen,3_0_6_0_7_0_1,NA,NA,skipped,NA,1050659,NA,NA,1050656,1050659,2023-08-26T14:46:37Z,1050658.96,NULL,Ergänzung,kijalizo,d,NA,NA,NA,NA,dfs,NA,6,NA,NA,NA,NA,NA,NA,NA,NA,NA,NA,NA,NA,NA,NA,NA,NA,NA,NA,NA
