observation,sender,sender_type,sender_id,response,response_action,ended_on,duration,time_run,time_render,time_show,time_end,time_commit,timestamp,time_switch,distractors,german,swahili,enc,distractor1,distractor2,distractor3,response_2,x,correct,x_2,url_vp,url_sess,meta_labjs_version,meta_location,meta_user_agent,meta_platform,meta_language,meta_locale,meta_time_zone,meta_timezone_offset,meta_screen_width,meta_screen_height,meta_scroll_width,meta_scroll_height,meta_window_inner_width,meta_window_inner_height,meta_device_pixel_ratio,meta_labjs_build_flavor,meta_labjs_build_commit
d8175,Introduction general,canvas.Screen,0,weiter,keypress(q),response,244227.88,991,996.42,1013.12,245241,245258,2024-06-02T09:14:28Z,245259.42,NULL,NA,NA,NA,NA,NA,NA,NA,NA,NA,NA,164,1,20.2.4,https://neurocog.fernuni.ch/studies/vweber/jbaenninger/encoding_immediate/index.html?vp=164&sess=1,Mozilla/5.0 (Windows NT 10.0; Win64; x64; rv:126.0) Gecko/20100101 Firefox/126.0,Win32,de,de-CH,Europe/Zurich,-120,1280,800,1280,591,1280,639,1.5,production,f5b4a49f956347addd546a832a3327688c2c0fef
d8175,Introduction practice,canvas.Screen,1_0,NA,keypress(Space),response,4951.58,245259,245259.16,245259.42,250211,250227,2024-06-02T09:14:33Z,250232.16,NULL,NA,NA,NA,NA,NA,NA,NA,NA,NA,NA,NA,NA,NA,NA,NA,NA,NA,NA,NA,NA,NA,NA,NA,NA,NA,NA,NA,NA,NA
d8175,deep,flow.Sequence,1_1_0_0,NA,NA,skipped,NA,250227,NA,NA,250211,250227,2024-06-02T09:14:33Z,250232.16,"c(""distractor1"", ""distractor2"", ""distractor3"")",Rückhalt,msaada,s,muhula,auwali,kiwimbe,NA,NA,NA,NA,NA,NA,NA,NA,NA,NA,NA,NA,NA,NA,NA,NA,NA,NA,NA,NA,NA,NA,NA
d8175,Shallow Question,html.Page,1_1_0_1_0,NA,NA,form submission,6679.84,250228,250228.3,250232.16,256912,256913,2024-06-02T09:14:39Z,256922.24,"c(""distractor1"", ""distractor2"", ""distractor3"")",Rückhalt,msaada,s,muhula,auwali,kiwimbe,msaada,NA,NA,NA,NA,NA,NA,NA,NA,NA,NA,NA,NA,NA,NA,NA,NA,NA,NA,NA,NA,NA,NA
d8175,"""Richtig""-Screen",canvas.Screen,1_1_0_1_1,NA,NA,timeout,5005.42,256921,256894.42,256922.24,261911.02,261912,2024-06-02T09:14:44Z,261927.66,"c(""distractor1"", ""distractor2"", ""distractor3"")",Rückhalt,msaada,s,muhula,auwali,kiwimbe,NA,NA,1,NA,NA,NA,NA,NA,NA,NA,NA,NA,NA,NA,NA,NA,NA,NA,NA,NA,NA,NA,NA
d8175,"""Falsch""-Screen",canvas.Screen,1_1_0_1_2,NA,NA,skipped,NA,261915,NA,NA,261911.02,261915,2024-06-02T09:14:44Z,261927.66,"c(""distractor1"", ""distractor2"", ""distractor3"")",Rückhalt,msaada,s,muhula,auwali,kiwimbe,NA,NA,NA,NA,NA,NA,NA,NA,NA,NA,NA,NA,NA,NA,NA,NA,NA,NA,NA,NA,NA,NA,NA
d8175,shallow,flow.Sequence,1_1_0_1,NA,NA,completion,11678.86,250227,250228.3,250232.16,261911.02,261915,2024-06-02T09:14:44Z,261927.66,"c(""distractor1"", ""distractor2"", ""distractor3"")",Rückhalt,msaada,s,muhula,auwali,kiwimbe,NA,NA,NA,NA,NA,NA,NA,NA,NA,NA,NA,NA,NA,NA,NA,NA,NA,NA,NA,NA,NA,NA,NA
d8175,task,flow.Sequence,1_1_0,NA,NA,completion,11678.86,250227,250228.3,250232.16,261911.02,261916,2024-06-02T09:14:45Z,261927.66,"c(""distractor1"", ""distractor2"", ""distractor3"")",Rückhalt,msaada,s,muhula,auwali,kiwimbe,NA,NA,NA,NA,NA,NA,NA,NA,NA,NA,NA,NA,NA,NA,NA,NA,NA,NA,NA,NA,NA,NA,NA
d8175,Deep Question,html.Page,1_1_1_0_0,NA,NA,form submission,4143.34,261916,261911.02,261927.66,266071,266071,2024-06-02T09:14:49Z,266076.12,"c(""distractor1"", ""distractor2"", ""distractor3"")",Gesundheit,salama,d,NA,NA,NA,ghdhrtd,NA,NA,NA,NA,NA,NA,NA,NA,NA,NA,NA,NA,NA,NA,NA,NA,NA,NA,NA,NA,NA,NA
d8175,"""Richtig""-Screen",canvas.Screen,1_1_1_0_1,NA,NA,skipped,NA,266073,NA,NA,266071,266073,2024-06-02T09:14:49Z,266076.12,"c(""distractor1"", ""distractor2"", ""distractor3"")",Gesundheit,salama,d,NA,NA,NA,NA,NA,NA,NA,NA,NA,NA,NA,NA,NA,NA,NA,NA,NA,NA,NA,NA,NA,NA,NA,NA,NA,NA
d8175,"""Falsch""-Screen",canvas.Screen,1_1_1_0_2,NA,NA,timeout,4996.78,266075,266067.76,266076.12,271056.64,271058,2024-06-02T09:14:54Z,271072.9,"c(""distractor1"", ""distractor2"", ""distractor3"")",Gesundheit,salama,d,NA,NA,NA,NA,NA,0,NA,NA,NA,NA,NA,NA,NA,NA,NA,NA,NA,NA,NA,NA,NA,NA,NA,NA,NA,NA
d8175,deep,flow.Sequence,1_1_1_0,NA,NA,completion,9128.98,261916,261911.02,261927.66,271056.64,271059,2024-06-02T09:14:54Z,271072.9,"c(""distractor1"", ""distractor2"", ""distractor3"")",Gesundheit,salama,d,NA,NA,NA,NA,NA,NA,NA,NA,NA,NA,NA,NA,NA,NA,NA,NA,NA,NA,NA,NA,NA,NA,NA,NA,NA,NA
d8175,shallow,flow.Sequence,1_1_1_1,NA,NA,skipped,NA,271059,NA,NA,271056.64,271059,2024-06-02T09:14:54Z,271072.9,"c(""distractor1"", ""distractor2"", ""distractor3"")",Gesundheit,salama,d,NA,NA,NA,NA,NA,NA,NA,NA,NA,NA,NA,NA,NA,NA,NA,NA,NA,NA,NA,NA,NA,NA,NA,NA,NA,NA
d8175,task,flow.Sequence,1_1_1,NA,NA,completion,9128.98,261916,261911.02,261927.66,271056.64,271059,2024-06-02T09:14:54Z,271072.9,"c(""distractor1"", ""distractor2"", ""distractor3"")",Gesundheit,salama,d,NA,NA,NA,NA,NA,NA,NA,NA,NA,NA,NA,NA,NA,NA,NA,NA,NA,NA,NA,NA,NA,NA,NA,NA,NA,NA
d8175,deep,flow.Sequence,1_1_2_0,NA,NA,skipped,NA,271059,NA,NA,271056.64,271059,2024-06-02T09:14:54Z,271072.9,"c(""distractor1"", ""distractor2"", ""distractor3"")",Gegenwart,hadhara,s,katiba,jokofu,mikopo,NA,NA,NA,NA,NA,NA,NA,NA,NA,NA,NA,NA,NA,NA,NA,NA,NA,NA,NA,NA,NA,NA,NA
d8175,Shallow Question,html.Page,1_1_2_1_0,NA,NA,form submission,4395.1,271060,271056.64,271072.9,275468,275468,2024-06-02T09:14:58Z,275471.9,"c(""distractor1"", ""distractor2"", ""distractor3"")",Gegenwart,hadhara,s,katiba,jokofu,mikopo,katiba,NA,NA,NA,NA,NA,NA,NA,NA,NA,NA,NA,NA,NA,NA,NA,NA,NA,NA,NA,NA,NA,NA
d8175,"""Richtig""-Screen",canvas.Screen,1_1_2_1_1,NA,NA,skipped,NA,275470,NA,NA,275468,275471,2024-06-02T09:14:58Z,275471.9,"c(""distractor1"", ""distractor2"", ""distractor3"")",Gegenwart,hadhara,s,katiba,jokofu,mikopo,NA,NA,NA,NA,NA,NA,NA,NA,NA,NA,NA,NA,NA,NA,NA,NA,NA,NA,NA,NA,NA,NA,NA
d8175,"""Falsch""-Screen",canvas.Screen,1_1_2_1_2,NA,NA,timeout,4998.2,275472,275464.66,275471.9,280453.44,280454,2024-06-02T09:15:03Z,280470.1,"c(""distractor1"", ""distractor2"", ""distractor3"")",Gegenwart,hadhara,s,katiba,jokofu,mikopo,NA,NA,0,NA,NA,NA,NA,NA,NA,NA,NA,NA,NA,NA,NA,NA,NA,NA,NA,NA,NA,NA,NA
d8175,shallow,flow.Sequence,1_1_2_1,NA,NA,completion,9380.54,271060,271056.64,271072.9,280453.44,280455,2024-06-02T09:15:03Z,280470.1,"c(""distractor1"", ""distractor2"", ""distractor3"")",Gegenwart,hadhara,s,katiba,jokofu,mikopo,NA,NA,NA,NA,NA,NA,NA,NA,NA,NA,NA,NA,NA,NA,NA,NA,NA,NA,NA,NA,NA,NA,NA
d8175,task,flow.Sequence,1_1_2,NA,NA,completion,9380.54,271059,271056.64,271072.9,280453.44,280455,2024-06-02T09:15:03Z,280470.1,"c(""distractor1"", ""distractor2"", ""distractor3"")",Gegenwart,hadhara,s,katiba,jokofu,mikopo,NA,NA,NA,NA,NA,NA,NA,NA,NA,NA,NA,NA,NA,NA,NA,NA,NA,NA,NA,NA,NA,NA,NA
d8175,deep,flow.Sequence,1_1_3_0,NA,NA,skipped,NA,280456,NA,NA,280453.44,280456,2024-06-02T09:15:03Z,280470.1,"c(""distractor1"", ""distractor2"", ""distractor3"")",Kritik,lawama,s,dereva,nafasi,mawazo,NA,NA,NA,NA,NA,NA,NA,NA,NA,NA,NA,NA,NA,NA,NA,NA,NA,NA,NA,NA,NA,NA,NA
d8175,Shallow Question,html.Page,1_1_3_1_0,NA,NA,form submission,4621.9,280457,280453.44,280470.1,285092,285092,2024-06-02T09:15:08Z,285102.22,"c(""distractor1"", ""distractor2"", ""distractor3"")",Kritik,lawama,s,dereva,nafasi,mawazo,dereva,NA,NA,NA,NA,NA,NA,NA,NA,NA,NA,NA,NA,NA,NA,NA,NA,NA,NA,NA,NA,NA,NA
d8175,"""Richtig""-Screen",canvas.Screen,1_1_3_1_1,NA,NA,skipped,NA,285094,NA,NA,285092,285094,2024-06-02T09:15:08Z,285102.22,"c(""distractor1"", ""distractor2"", ""distractor3"")",Kritik,lawama,s,dereva,nafasi,mawazo,NA,NA,NA,NA,NA,NA,NA,NA,NA,NA,NA,NA,NA,NA,NA,NA,NA,NA,NA,NA,NA,NA,NA
d8175,"""Falsch""-Screen",canvas.Screen,1_1_3_1_2,NA,NA,timeout,5000.78,285095,285088.46,285102.22,290086.98,290089,2024-06-02T09:15:13Z,290103,"c(""distractor1"", ""distractor2"", ""distractor3"")",Kritik,lawama,s,dereva,nafasi,mawazo,NA,NA,0,NA,NA,NA,NA,NA,NA,NA,NA,NA,NA,NA,NA,NA,NA,NA,NA,NA,NA,NA,NA
d8175,shallow,flow.Sequence,1_1_3_1,NA,NA,completion,9616.88,280456,280453.44,280470.1,290086.98,290089,2024-06-02T09:15:13Z,290103,"c(""distractor1"", ""distractor2"", ""distractor3"")",Kritik,lawama,s,dereva,nafasi,mawazo,NA,NA,NA,NA,NA,NA,NA,NA,NA,NA,NA,NA,NA,NA,NA,NA,NA,NA,NA,NA,NA,NA,NA
d8175,task,flow.Sequence,1_1_3,NA,NA,completion,9616.88,280456,280453.44,280470.1,290086.98,290089,2024-06-02T09:15:13Z,290103,"c(""distractor1"", ""distractor2"", ""distractor3"")",Kritik,lawama,s,dereva,nafasi,mawazo,NA,NA,NA,NA,NA,NA,NA,NA,NA,NA,NA,NA,NA,NA,NA,NA,NA,NA,NA,NA,NA,NA,NA
d8175,Deep Question,html.Page,1_1_4_0_0,NA,NA,form submission,3299,290089,290086.98,290103,293402,293402,2024-06-02T09:15:16Z,293409.76,"c(""distractor1"", ""distractor2"", ""distractor3"")",Qualität,mtindo,d,NA,NA,NA,bfdbfhg,NA,NA,NA,NA,NA,NA,NA,NA,NA,NA,NA,NA,NA,NA,NA,NA,NA,NA,NA,NA,NA,NA
d8175,"""Richtig""-Screen",canvas.Screen,1_1_4_0_1,NA,NA,skipped,NA,293404,NA,NA,293402,293404,2024-06-02T09:15:16Z,293409.76,"c(""distractor1"", ""distractor2"", ""distractor3"")",Qualität,mtindo,d,NA,NA,NA,NA,NA,NA,NA,NA,NA,NA,NA,NA,NA,NA,NA,NA,NA,NA,NA,NA,NA,NA,NA,NA,NA,NA
d8175,"""Falsch""-Screen",canvas.Screen,1_1_4_0_2,NA,NA,timeout,4995.48,293405,293398.64,293409.76,298388.86,298390,2024-06-02T09:15:21Z,298405.24,"c(""distractor1"", ""distractor2"", ""distractor3"")",Qualität,mtindo,d,NA,NA,NA,NA,NA,0,NA,NA,NA,NA,NA,NA,NA,NA,NA,NA,NA,NA,NA,NA,NA,NA,NA,NA,NA,NA
d8175,deep,flow.Sequence,1_1_4_0,NA,NA,completion,8285.86,290089,290086.98,290103,298388.86,298391,2024-06-02T09:15:21Z,298405.24,"c(""distractor1"", ""distractor2"", ""distractor3"")",Qualität,mtindo,d,NA,NA,NA,NA,NA,NA,NA,NA,NA,NA,NA,NA,NA,NA,NA,NA,NA,NA,NA,NA,NA,NA,NA,NA,NA,NA
d8175,shallow,flow.Sequence,1_1_4_1,NA,NA,skipped,NA,298391,NA,NA,298388.86,298391,2024-06-02T09:15:21Z,298405.24,"c(""distractor1"", ""distractor2"", ""distractor3"")",Qualität,mtindo,d,NA,NA,NA,NA,NA,NA,NA,NA,NA,NA,NA,NA,NA,NA,NA,NA,NA,NA,NA,NA,NA,NA,NA,NA,NA,NA
d8175,task,flow.Sequence,1_1_4,NA,NA,completion,8285.86,290089,290086.98,290103,298388.86,298391,2024-06-02T09:15:21Z,298405.24,"c(""distractor1"", ""distractor2"", ""distractor3"")",Qualität,mtindo,d,NA,NA,NA,NA,NA,NA,NA,NA,NA,NA,NA,NA,NA,NA,NA,NA,NA,NA,NA,NA,NA,NA,NA,NA,NA,NA
d8175,Deep Question,html.Page,1_1_5_0_0,NA,NA,form submission,4235.76,298391,298388.86,298405.24,302641,302641,2024-06-02T09:15:25Z,302654.12,"c(""distractor1"", ""distractor2"", ""distractor3"")",Schatten,kivuli,d,NA,NA,NA,ghdzjuzd,NA,NA,NA,NA,NA,NA,NA,NA,NA,NA,NA,NA,NA,NA,NA,NA,NA,NA,NA,NA,NA,NA
d8175,"""Richtig""-Screen",canvas.Screen,1_1_5_0_1,NA,NA,skipped,NA,302642,NA,NA,302641,302642,2024-06-02T09:15:25Z,302654.12,"c(""distractor1"", ""distractor2"", ""distractor3"")",Schatten,kivuli,d,NA,NA,NA,NA,NA,NA,NA,NA,NA,NA,NA,NA,NA,NA,NA,NA,NA,NA,NA,NA,NA,NA,NA,NA,NA,NA
d8175,"""Falsch""-Screen",canvas.Screen,1_1_5_0_2,NA,NA,timeout,5002.4,302644,302637.16,302654.12,307636.06,307638,2024-06-02T09:15:30Z,307656.52,"c(""distractor1"", ""distractor2"", ""distractor3"")",Schatten,kivuli,d,NA,NA,NA,NA,NA,0,NA,NA,NA,NA,NA,NA,NA,NA,NA,NA,NA,NA,NA,NA,NA,NA,NA,NA,NA,NA
d8175,deep,flow.Sequence,1_1_5_0,NA,NA,completion,9230.82,298391,298388.86,298405.24,307636.06,307638,2024-06-02T09:15:30Z,307656.52,"c(""distractor1"", ""distractor2"", ""distractor3"")",Schatten,kivuli,d,NA,NA,NA,NA,NA,NA,NA,NA,NA,NA,NA,NA,NA,NA,NA,NA,NA,NA,NA,NA,NA,NA,NA,NA,NA,NA
d8175,shallow,flow.Sequence,1_1_5_1,NA,NA,skipped,NA,307638,NA,NA,307636.06,307638,2024-06-02T09:15:30Z,307656.52,"c(""distractor1"", ""distractor2"", ""distractor3"")",Schatten,kivuli,d,NA,NA,NA,NA,NA,NA,NA,NA,NA,NA,NA,NA,NA,NA,NA,NA,NA,NA,NA,NA,NA,NA,NA,NA,NA,NA
d8175,task,flow.Sequence,1_1_5,NA,NA,completion,9230.82,298391,298388.86,298405.24,307636.06,307638,2024-06-02T09:15:30Z,307656.52,"c(""distractor1"", ""distractor2"", ""distractor3"")",Schatten,kivuli,d,NA,NA,NA,NA,NA,NA,NA,NA,NA,NA,NA,NA,NA,NA,NA,NA,NA,NA,NA,NA,NA,NA,NA,NA,NA,NA
d8175,block,flow.Loop,1_1,NA,NA,completion,57403.9,250227,250228.3,250232.16,307636.06,307638,2024-06-02T09:15:30Z,307656.52,"c(""distractor1"", ""distractor2"", ""distractor3"")",NA,NA,NA,NA,NA,NA,NA,NA,NA,NA,NA,NA,NA,NA,NA,NA,NA,NA,NA,NA,NA,NA,NA,NA,NA,NA,NA,NA,NA
d8175,Practice,flow.Sequence,1,NA,NA,completion,62376.64,245259,245259.16,245259.42,307636.06,307639,2024-06-02T09:15:30Z,307656.52,NULL,NA,NA,NA,NA,NA,NA,NA,NA,NA,NA,NA,NA,NA,NA,NA,NA,NA,NA,NA,NA,NA,NA,NA,NA,NA,NA,NA,NA,NA
d8175,Experiment start,canvas.Screen,2,weiter,keypress(q),response,16130.48,307639,307636.06,307656.52,323787,323799,2024-06-02T09:15:46Z,323890.4,NULL,NA,NA,NA,NA,NA,NA,NA,NA,NA,NA,NA,NA,NA,NA,NA,NA,NA,NA,NA,NA,NA,NA,NA,NA,NA,NA,NA,NA,NA
d8175,Deep Question,html.Page,3_0_0_0_0_0_0,NA,NA,form submission,3713.6,323890,323890.14,323890.4,327604,327604,2024-06-02T09:15:50Z,327606.42,NULL,Körper,kiwiliwili,d,NA,NA,NA,vsgvjs,NA,NA,0,NA,NA,NA,NA,NA,NA,NA,NA,NA,NA,NA,NA,NA,NA,NA,NA,NA,NA,NA
d8175,"""Richtig""-Screen",canvas.Screen,3_0_0_0_0_0_1,NA,NA,skipped,NA,327606,NA,NA,327604,327606,2024-06-02T09:15:50Z,327606.42,NULL,Körper,kiwiliwili,d,NA,NA,NA,NA,sdf,NA,0,NA,NA,NA,NA,NA,NA,NA,NA,NA,NA,NA,NA,NA,NA,NA,NA,NA,NA,NA
d8175,"""Falsch""-Screen",canvas.Screen,3_0_0_0_0_0_2,NA,NA,timeout,6843.2,327607,327602.64,327606.42,333445.68,333447,2024-06-02T09:15:56Z,334449.62,NULL,Körper,kiwiliwili,d,NA,NA,NA,NA,sdf,0,0,NA,NA,NA,NA,NA,NA,NA,NA,NA,NA,NA,NA,NA,NA,NA,NA,NA,NA,NA
d8175,deep,flow.Sequence,3_0_0_0_0_0,NA,NA,completion,9555.28,323890,323890.14,323890.4,333445.68,333447,2024-06-02T09:15:56Z,334449.62,NULL,Körper,kiwiliwili,d,NA,NA,NA,NA,sdf,NA,0,NA,NA,NA,NA,NA,NA,NA,NA,NA,NA,NA,NA,NA,NA,NA,NA,NA,NA,NA
d8175,shallow,flow.Sequence,3_0_0_0_0_1,NA,NA,skipped,NA,333448,NA,NA,333445.68,333448,2024-06-02T09:15:56Z,334449.62,NULL,Körper,kiwiliwili,d,NA,NA,NA,NA,sdf,NA,0,NA,NA,NA,NA,NA,NA,NA,NA,NA,NA,NA,NA,NA,NA,NA,NA,NA,NA,NA
d8175,task,flow.Sequence,3_0_0_0_0,NA,NA,completion,9555.28,323890,323890.14,323890.4,333445.68,333448,2024-06-02T09:15:56Z,334449.62,NULL,Körper,kiwiliwili,d,NA,NA,NA,NA,sdf,NA,0,NA,NA,NA,NA,NA,NA,NA,NA,NA,NA,NA,NA,NA,NA,NA,NA,NA,NA,NA
d8175,deep,flow.Sequence,3_0_0_0_1_0,NA,NA,skipped,NA,333448,NA,NA,333445.68,333448,2024-06-02T09:15:56Z,334449.62,NULL,Vorsorge,tahadhari,s,ufafanuzi,makini,mashambani,NA,sdf,NA,0,NA,NA,NA,NA,NA,NA,NA,NA,NA,NA,NA,NA,NA,NA,NA,NA,NA,NA,NA
d8175,Shallow Question,html.Page,3_0_0_0_1_1_0,NA,NA,form submission,20474.38,333448,333445.68,334449.62,354924,354925,2024-06-02T09:16:18Z,354941.36,NULL,Vorsorge,tahadhari,s,ufafanuzi,makini,mashambani,mashambani,NA,NA,0,NA,NA,NA,NA,NA,NA,NA,NA,NA,NA,NA,NA,NA,NA,NA,NA,NA,NA,NA
d8175,"""Richtig""-Screen",canvas.Screen,3_0_0_0_1_1_1,NA,NA,skipped,NA,354927,NA,NA,354924,354927,2024-06-02T09:16:18Z,354941.36,NULL,Vorsorge,tahadhari,s,ufafanuzi,makini,mashambani,NA,sdf,NA,0,NA,NA,NA,NA,NA,NA,NA,NA,NA,NA,NA,NA,NA,NA,NA,NA,NA,NA,NA
d8175,"""Falsch""-Screen",canvas.Screen,3_0_0_0_1_1_2,NA,NA,timeout,5003.86,354928,354924.74,354941.36,359928.4,359930,2024-06-02T09:16:23Z,359945.22,NULL,Vorsorge,tahadhari,s,ufafanuzi,makini,mashambani,NA,sdf,0,0,NA,NA,NA,NA,NA,NA,NA,NA,NA,NA,NA,NA,NA,NA,NA,NA,NA,NA,NA
d8175,shallow,flow.Sequence,3_0_0_0_1_1,NA,NA,completion,25478.78,333448,333445.68,334449.62,359928.4,359930,2024-06-02T09:16:23Z,359945.22,NULL,Vorsorge,tahadhari,s,ufafanuzi,makini,mashambani,NA,sdf,NA,0,NA,NA,NA,NA,NA,NA,NA,NA,NA,NA,NA,NA,NA,NA,NA,NA,NA,NA,NA
d8175,task,flow.Sequence,3_0_0_0_1,NA,NA,completion,25478.78,333448,333445.68,334449.62,359928.4,359930,2024-06-02T09:16:23Z,359945.22,NULL,Vorsorge,tahadhari,s,ufafanuzi,makini,mashambani,NA,sdf,NA,0,NA,NA,NA,NA,NA,NA,NA,NA,NA,NA,NA,NA,NA,NA,NA,NA,NA,NA,NA
d8175,deep,flow.Sequence,3_0_0_0_2_0,NA,NA,skipped,NA,359930,NA,NA,359928.4,359930,2024-06-02T09:16:23Z,359945.22,NULL,Konkurrent,mshindani,s,msemaji,mvutaji,kipukusa,NA,sdf,NA,0,NA,NA,NA,NA,NA,NA,NA,NA,NA,NA,NA,NA,NA,NA,NA,NA,NA,NA,NA
d8175,Shallow Question,html.Page,3_0_0_0_2_1_0,NA,NA,form submission,5112.78,359930,359928.4,359945.22,365058,365058,2024-06-02T09:16:28Z,365056.14,NULL,Konkurrent,mshindani,s,msemaji,mvutaji,kipukusa,kipukusa,NA,NA,0,NA,NA,NA,NA,NA,NA,NA,NA,NA,NA,NA,NA,NA,NA,NA,NA,NA,NA,NA
d8175,"""Richtig""-Screen",canvas.Screen,3_0_0_0_2_1_1,NA,NA,skipped,NA,365060,NA,NA,365058,365060,2024-06-02T09:16:28Z,365056.14,NULL,Konkurrent,mshindani,s,msemaji,mvutaji,kipukusa,NA,sdf,NA,0,NA,NA,NA,NA,NA,NA,NA,NA,NA,NA,NA,NA,NA,NA,NA,NA,NA,NA,NA
d8175,"""Falsch""-Screen",canvas.Screen,3_0_0_0_2_1_2,NA,NA,timeout,5001.32,365062,365054.1,365056.14,370041.1,370044,2024-06-02T09:16:33Z,370057.46,NULL,Konkurrent,mshindani,s,msemaji,mvutaji,kipukusa,NA,sdf,0,0,NA,NA,NA,NA,NA,NA,NA,NA,NA,NA,NA,NA,NA,NA,NA,NA,NA,NA,NA
d8175,shallow,flow.Sequence,3_0_0_0_2_1,NA,NA,completion,10095.88,359930,359928.4,359945.22,370041.1,370046,2024-06-02T09:16:33Z,370057.46,NULL,Konkurrent,mshindani,s,msemaji,mvutaji,kipukusa,NA,sdf,NA,0,NA,NA,NA,NA,NA,NA,NA,NA,NA,NA,NA,NA,NA,NA,NA,NA,NA,NA,NA
d8175,task,flow.Sequence,3_0_0_0_2,NA,NA,completion,10095.88,359930,359928.4,359945.22,370041.1,370046,2024-06-02T09:16:33Z,370057.46,NULL,Konkurrent,mshindani,s,msemaji,mvutaji,kipukusa,NA,sdf,NA,0,NA,NA,NA,NA,NA,NA,NA,NA,NA,NA,NA,NA,NA,NA,NA,NA,NA,NA,NA
d8175,Deep Question,html.Page,3_0_0_0_3_0_0,NA,NA,form submission,3431.54,370047,370041.1,370057.46,373489,373490,2024-06-02T09:16:36Z,373493.84,NULL,Übersicht,kilindo,d,NA,NA,NA,ghdhtd,NA,NA,0,NA,NA,NA,NA,NA,NA,NA,NA,NA,NA,NA,NA,NA,NA,NA,NA,NA,NA,NA
d8175,"""Richtig""-Screen",canvas.Screen,3_0_0_0_3_0_1,NA,NA,skipped,NA,373496,NA,NA,373489,373497,2024-06-02T09:16:36Z,373493.84,NULL,Übersicht,kilindo,d,NA,NA,NA,NA,sdf,NA,0,NA,NA,NA,NA,NA,NA,NA,NA,NA,NA,NA,NA,NA,NA,NA,NA,NA,NA,NA
d8175,"""Falsch""-Screen",canvas.Screen,3_0_0_0_3_0_2,NA,NA,timeout,4995.78,373499,373484.94,373493.84,378473.4,378477,2024-06-02T09:16:41Z,378489.62,NULL,Übersicht,kilindo,d,NA,NA,NA,NA,sdf,0,0,NA,NA,NA,NA,NA,NA,NA,NA,NA,NA,NA,NA,NA,NA,NA,NA,NA,NA,NA
d8175,deep,flow.Sequence,3_0_0_0_3_0,NA,NA,completion,8415.94,370047,370041.1,370057.46,378473.4,378478,2024-06-02T09:16:41Z,378489.62,NULL,Übersicht,kilindo,d,NA,NA,NA,NA,sdf,NA,0,NA,NA,NA,NA,NA,NA,NA,NA,NA,NA,NA,NA,NA,NA,NA,NA,NA,NA,NA
d8175,shallow,flow.Sequence,3_0_0_0_3_1,NA,NA,skipped,NA,378478,NA,NA,378473.4,378479,2024-06-02T09:16:41Z,378489.62,NULL,Übersicht,kilindo,d,NA,NA,NA,NA,sdf,NA,0,NA,NA,NA,NA,NA,NA,NA,NA,NA,NA,NA,NA,NA,NA,NA,NA,NA,NA,NA
d8175,task,flow.Sequence,3_0_0_0_3,NA,NA,completion,8415.94,370047,370041.1,370057.46,378473.4,378479,2024-06-02T09:16:41Z,378489.62,NULL,Übersicht,kilindo,d,NA,NA,NA,NA,sdf,NA,0,NA,NA,NA,NA,NA,NA,NA,NA,NA,NA,NA,NA,NA,NA,NA,NA,NA,NA,NA
d8175,deep,flow.Sequence,3_0_0_0_4_0,NA,NA,skipped,NA,378479,NA,NA,378473.4,378479,2024-06-02T09:16:41Z,378489.62,NULL,System,maongozi,s,chokochoko,nuksani,mitaani,NA,sdf,NA,0,NA,NA,NA,NA,NA,NA,NA,NA,NA,NA,NA,NA,NA,NA,NA,NA,NA,NA,NA
d8175,Shallow Question,html.Page,3_0_0_0_4_1_0,NA,NA,form submission,3803.38,378479,378473.4,378489.62,382293,382293,2024-06-02T09:16:45Z,382295.94,NULL,System,maongozi,s,chokochoko,nuksani,mitaani,mitaani,NA,NA,0,NA,NA,NA,NA,NA,NA,NA,NA,NA,NA,NA,NA,NA,NA,NA,NA,NA,NA,NA
d8175,"""Richtig""-Screen",canvas.Screen,3_0_0_0_4_1_1,NA,NA,skipped,NA,382299,NA,NA,382293,382299,2024-06-02T09:16:45Z,382295.94,NULL,System,maongozi,s,chokochoko,nuksani,mitaani,NA,sdf,NA,0,NA,NA,NA,NA,NA,NA,NA,NA,NA,NA,NA,NA,NA,NA,NA,NA,NA,NA,NA
d8175,"""Falsch""-Screen",canvas.Screen,3_0_0_0_4_1_2,NA,NA,timeout,5004,382300,382288.42,382295.94,387283.12,387285,2024-06-02T09:16:50Z,387299.94,NULL,System,maongozi,s,chokochoko,nuksani,mitaani,NA,sdf,0,0,NA,NA,NA,NA,NA,NA,NA,NA,NA,NA,NA,NA,NA,NA,NA,NA,NA,NA,NA
d8175,shallow,flow.Sequence,3_0_0_0_4_1,NA,NA,completion,8793.5,378479,378473.4,378489.62,387283.12,387285,2024-06-02T09:16:50Z,387299.94,NULL,System,maongozi,s,chokochoko,nuksani,mitaani,NA,sdf,NA,0,NA,NA,NA,NA,NA,NA,NA,NA,NA,NA,NA,NA,NA,NA,NA,NA,NA,NA,NA
d8175,task,flow.Sequence,3_0_0_0_4,NA,NA,completion,8793.5,378479,378473.4,378489.62,387283.12,387285,2024-06-02T09:16:50Z,387299.94,NULL,System,maongozi,s,chokochoko,nuksani,mitaani,NA,sdf,NA,0,NA,NA,NA,NA,NA,NA,NA,NA,NA,NA,NA,NA,NA,NA,NA,NA,NA,NA,NA
d8175,Deep Question,html.Page,3_0_0_0_5_0_0,NA,NA,form submission,4073.06,387286,387283.12,387299.94,391373,391375,2024-06-02T09:16:54Z,391377.96,NULL,Zuwachs,nyongeza,d,NA,NA,NA,fghshsrt,NA,NA,0,NA,NA,NA,NA,NA,NA,NA,NA,NA,NA,NA,NA,NA,NA,NA,NA,NA,NA,NA
d8175,"""Richtig""-Screen",canvas.Screen,3_0_0_0_5_0_1,NA,NA,skipped,NA,391377,NA,NA,391373,391377,2024-06-02T09:16:54Z,391377.96,NULL,Zuwachs,nyongeza,d,NA,NA,NA,NA,sdf,NA,0,NA,NA,NA,NA,NA,NA,NA,NA,NA,NA,NA,NA,NA,NA,NA,NA,NA,NA,NA
d8175,"""Falsch""-Screen",canvas.Screen,3_0_0_0_5_0_2,NA,NA,timeout,4999.12,391378,391370.46,391377.96,396360.8,396362,2024-06-02T09:16:59Z,396377.08,NULL,Zuwachs,nyongeza,d,NA,NA,NA,NA,sdf,0,0,NA,NA,NA,NA,NA,NA,NA,NA,NA,NA,NA,NA,NA,NA,NA,NA,NA,NA,NA
d8175,deep,flow.Sequence,3_0_0_0_5_0,NA,NA,completion,9060.86,387285,387283.12,387299.94,396360.8,396363,2024-06-02T09:16:59Z,396377.08,NULL,Zuwachs,nyongeza,d,NA,NA,NA,NA,sdf,NA,0,NA,NA,NA,NA,NA,NA,NA,NA,NA,NA,NA,NA,NA,NA,NA,NA,NA,NA,NA
d8175,shallow,flow.Sequence,3_0_0_0_5_1,NA,NA,skipped,NA,396363,NA,NA,396360.8,396363,2024-06-02T09:16:59Z,396377.08,NULL,Zuwachs,nyongeza,d,NA,NA,NA,NA,sdf,NA,0,NA,NA,NA,NA,NA,NA,NA,NA,NA,NA,NA,NA,NA,NA,NA,NA,NA,NA,NA
d8175,task,flow.Sequence,3_0_0_0_5,NA,NA,completion,9060.86,387285,387283.12,387299.94,396360.8,396363,2024-06-02T09:16:59Z,396377.08,NULL,Zuwachs,nyongeza,d,NA,NA,NA,NA,sdf,NA,0,NA,NA,NA,NA,NA,NA,NA,NA,NA,NA,NA,NA,NA,NA,NA,NA,NA,NA,NA
d8175,deep,flow.Sequence,3_0_0_0_6_0,NA,NA,skipped,NA,396363,NA,NA,396360.8,396363,2024-06-02T09:16:59Z,396377.08,NULL,Lawine,banguko,s,maambukizi,usuluhishi,chekechea,NA,sdf,NA,0,NA,NA,NA,NA,NA,NA,NA,NA,NA,NA,NA,NA,NA,NA,NA,NA,NA,NA,NA
d8175,Shallow Question,html.Page,3_0_0_0_6_1_0,NA,NA,form submission,4858.92,396364,396360.8,396377.08,401236,401236,2024-06-02T09:17:04Z,401242.38,NULL,Lawine,banguko,s,maambukizi,usuluhishi,chekechea,chekechea,NA,NA,0,NA,NA,NA,NA,NA,NA,NA,NA,NA,NA,NA,NA,NA,NA,NA,NA,NA,NA,NA
d8175,"""Richtig""-Screen",canvas.Screen,3_0_0_0_6_1_1,NA,NA,skipped,NA,401238,NA,NA,401236,401238,2024-06-02T09:17:04Z,401242.38,NULL,Lawine,banguko,s,maambukizi,usuluhishi,chekechea,NA,sdf,NA,0,NA,NA,NA,NA,NA,NA,NA,NA,NA,NA,NA,NA,NA,NA,NA,NA,NA,NA,NA
d8175,"""Falsch""-Screen",canvas.Screen,3_0_0_0_6_1_2,NA,NA,timeout,5005.68,401240,401233.46,401242.38,406231.32,406232,2024-06-02T09:17:09Z,406248.06,NULL,Lawine,banguko,s,maambukizi,usuluhishi,chekechea,NA,sdf,0,0,NA,NA,NA,NA,NA,NA,NA,NA,NA,NA,NA,NA,NA,NA,NA,NA,NA,NA,NA
d8175,shallow,flow.Sequence,3_0_0_0_6_1,NA,NA,completion,9854.24,396363,396360.8,396377.08,406231.32,406233,2024-06-02T09:17:09Z,406248.06,NULL,Lawine,banguko,s,maambukizi,usuluhishi,chekechea,NA,sdf,NA,0,NA,NA,NA,NA,NA,NA,NA,NA,NA,NA,NA,NA,NA,NA,NA,NA,NA,NA,NA
d8175,task,flow.Sequence,3_0_0_0_6,NA,NA,completion,9854.24,396363,396360.8,396377.08,406231.32,406233,2024-06-02T09:17:09Z,406248.06,NULL,Lawine,banguko,s,maambukizi,usuluhishi,chekechea,NA,sdf,NA,0,NA,NA,NA,NA,NA,NA,NA,NA,NA,NA,NA,NA,NA,NA,NA,NA,NA,NA,NA
d8175,Deep Question,html.Page,3_0_0_0_7_0_0,NA,NA,form submission,3201.94,406233,406231.32,406248.06,409450,409451,2024-06-02T09:17:12Z,409458.6,NULL,Symbol,kielezo,d,NA,NA,NA,ghsdrhrt,NA,NA,0,NA,NA,NA,NA,NA,NA,NA,NA,NA,NA,NA,NA,NA,NA,NA,NA,NA,NA,NA
d8175,"""Richtig""-Screen",canvas.Screen,3_0_0_0_7_0_1,NA,NA,skipped,NA,409452,NA,NA,409450,409453,2024-06-02T09:17:12Z,409458.6,NULL,Symbol,kielezo,d,NA,NA,NA,NA,sdf,NA,0,NA,NA,NA,NA,NA,NA,NA,NA,NA,NA,NA,NA,NA,NA,NA,NA,NA,NA,NA
d8175,"""Falsch""-Screen",canvas.Screen,3_0_0_0_7_0_2,NA,NA,timeout,4999.3,409454,409446.94,409458.6,414441.08,414443,2024-06-02T09:17:17Z,414457.9,NULL,Symbol,kielezo,d,NA,NA,NA,NA,sdf,0,0,NA,NA,NA,NA,NA,NA,NA,NA,NA,NA,NA,NA,NA,NA,NA,NA,NA,NA,NA
d8175,deep,flow.Sequence,3_0_0_0_7_0,NA,NA,completion,8193.02,406233,406231.32,406248.06,414441.08,414443,2024-06-02T09:17:17Z,414457.9,NULL,Symbol,kielezo,d,NA,NA,NA,NA,sdf,NA,0,NA,NA,NA,NA,NA,NA,NA,NA,NA,NA,NA,NA,NA,NA,NA,NA,NA,NA,NA
d8175,shallow,flow.Sequence,3_0_0_0_7_1,NA,NA,skipped,NA,414443,NA,NA,414441.08,414443,2024-06-02T09:17:17Z,414457.9,NULL,Symbol,kielezo,d,NA,NA,NA,NA,sdf,NA,0,NA,NA,NA,NA,NA,NA,NA,NA,NA,NA,NA,NA,NA,NA,NA,NA,NA,NA,NA
d8175,task,flow.Sequence,3_0_0_0_7,NA,NA,completion,8193.02,406233,406231.32,406248.06,414441.08,414443,2024-06-02T09:17:17Z,414457.9,NULL,Symbol,kielezo,d,NA,NA,NA,NA,sdf,NA,0,NA,NA,NA,NA,NA,NA,NA,NA,NA,NA,NA,NA,NA,NA,NA,NA,NA,NA,NA
d8175,block,flow.Loop,3_0_0_0,NA,NA,completion,90550.68,323890,323890.14,323890.4,414441.08,414443,2024-06-02T09:17:17Z,414457.9,NULL,NA,NA,NA,NA,NA,NA,NA,sdf,NA,0,NA,NA,NA,NA,NA,NA,NA,NA,NA,NA,NA,NA,NA,NA,NA,NA,NA,NA,NA
d8175,weiter,canvas.Screen,3_0_0_1,sdf,keypress(Space),response,1078.1,414443,414441.08,414457.9,415536,415554,2024-06-02T09:17:18Z,415599.38,NULL,NA,NA,NA,NA,NA,NA,NA,sdf,NA,0,NA,NA,NA,NA,NA,NA,NA,NA,NA,NA,NA,NA,NA,NA,NA,NA,NA,NA,NA
d8175,check continue,flow.Sequence,3_0_0,NA,NA,completion,91645.6,323890,323890.14,323890.4,415536,415554,2024-06-02T09:17:18Z,415599.38,NULL,NA,NA,NA,NA,NA,NA,NA,sdf,NA,0,NA,NA,NA,NA,NA,NA,NA,NA,NA,NA,NA,NA,NA,NA,NA,NA,NA,NA,NA
d8175,Deep Question,html.Page,3_0_1_0_0_0_0,NA,NA,form submission,3892.62,415599,415599.06,415599.38,419492,419492,2024-06-02T09:17:22Z,419495.7,NULL,Zuwachs,nyongeza,d,NA,NA,NA,fgdkjti,NA,NA,1,NA,NA,NA,NA,NA,NA,NA,NA,NA,NA,NA,NA,NA,NA,NA,NA,NA,NA,NA
d8175,"""Richtig""-Screen",canvas.Screen,3_0_1_0_0_0_1,NA,NA,skipped,NA,419493,NA,NA,419492,419493,2024-06-02T09:17:22Z,419495.7,NULL,Zuwachs,nyongeza,d,NA,NA,NA,NA,sdfdsf,NA,1,NA,NA,NA,NA,NA,NA,NA,NA,NA,NA,NA,NA,NA,NA,NA,NA,NA,NA,NA
d8175,"""Falsch""-Screen",canvas.Screen,3_0_1_0_0_0_2,NA,NA,timeout,5006.8,419495,419490.7,419495.7,424485.68,424487,2024-06-02T09:17:27Z,424502.5,NULL,Zuwachs,nyongeza,d,NA,NA,NA,NA,sdfdsf,0,1,NA,NA,NA,NA,NA,NA,NA,NA,NA,NA,NA,NA,NA,NA,NA,NA,NA,NA,NA
d8175,deep,flow.Sequence,3_0_1_0_0_0,NA,NA,completion,8886.3,415599,415599.06,415599.38,424485.68,424487,2024-06-02T09:17:27Z,424502.5,NULL,Zuwachs,nyongeza,d,NA,NA,NA,NA,sdfdsf,NA,1,NA,NA,NA,NA,NA,NA,NA,NA,NA,NA,NA,NA,NA,NA,NA,NA,NA,NA,NA
d8175,shallow,flow.Sequence,3_0_1_0_0_1,NA,NA,skipped,NA,424487,NA,NA,424485.68,424488,2024-06-02T09:17:27Z,424502.5,NULL,Zuwachs,nyongeza,d,NA,NA,NA,NA,sdfdsf,NA,1,NA,NA,NA,NA,NA,NA,NA,NA,NA,NA,NA,NA,NA,NA,NA,NA,NA,NA,NA
d8175,task,flow.Sequence,3_0_1_0_0,NA,NA,completion,8886.3,415599,415599.06,415599.38,424485.68,424488,2024-06-02T09:17:27Z,424502.5,NULL,Zuwachs,nyongeza,d,NA,NA,NA,NA,sdfdsf,NA,1,NA,NA,NA,NA,NA,NA,NA,NA,NA,NA,NA,NA,NA,NA,NA,NA,NA,NA,NA
d8175,deep,flow.Sequence,3_0_1_0_1_0,NA,NA,skipped,NA,424488,NA,NA,424485.68,424488,2024-06-02T09:17:27Z,424502.5,NULL,Konkurrent,mshindani,s,msemaji,mvutaji,kipukusa,NA,sdfdsf,NA,1,NA,NA,NA,NA,NA,NA,NA,NA,NA,NA,NA,NA,NA,NA,NA,NA,NA,NA,NA
d8175,Shallow Question,html.Page,3_0_1_0_1_1_0,NA,NA,form submission,6905.5,424488,424485.68,424502.5,431408,431408,2024-06-02T09:17:34Z,431419.5,NULL,Konkurrent,mshindani,s,msemaji,mvutaji,kipukusa,mshindani,NA,NA,1,NA,NA,NA,NA,NA,NA,NA,NA,NA,NA,NA,NA,NA,NA,NA,NA,NA,NA,NA
d8175,"""Richtig""-Screen",canvas.Screen,3_0_1_0_1_1_1,NA,NA,timeout,5002.42,431410,431405.7,431419.5,436405.44,436407,2024-06-02T09:17:39Z,436421.92,NULL,Konkurrent,mshindani,s,msemaji,mvutaji,kipukusa,NA,sdfdsf,1,1,NA,NA,NA,NA,NA,NA,NA,NA,NA,NA,NA,NA,NA,NA,NA,NA,NA,NA,NA
d8175,"""Falsch""-Screen",canvas.Screen,3_0_1_0_1_1_2,NA,NA,skipped,NA,436416,NA,NA,436405.44,436416,2024-06-02T09:17:39Z,436421.92,NULL,Konkurrent,mshindani,s,msemaji,mvutaji,kipukusa,NA,sdfdsf,NA,1,NA,NA,NA,NA,NA,NA,NA,NA,NA,NA,NA,NA,NA,NA,NA,NA,NA,NA,NA
d8175,shallow,flow.Sequence,3_0_1_0_1_1,NA,NA,completion,11902.94,424488,424485.68,424502.5,436405.44,436416,2024-06-02T09:17:39Z,436421.92,NULL,Konkurrent,mshindani,s,msemaji,mvutaji,kipukusa,NA,sdfdsf,NA,1,NA,NA,NA,NA,NA,NA,NA,NA,NA,NA,NA,NA,NA,NA,NA,NA,NA,NA,NA
d8175,task,flow.Sequence,3_0_1_0_1,NA,NA,completion,11902.94,424488,424485.68,424502.5,436405.44,436417,2024-06-02T09:17:39Z,436421.92,NULL,Konkurrent,mshindani,s,msemaji,mvutaji,kipukusa,NA,sdfdsf,NA,1,NA,NA,NA,NA,NA,NA,NA,NA,NA,NA,NA,NA,NA,NA,NA,NA,NA,NA,NA
d8175,Deep Question,html.Page,3_0_1_0_2_0_0,NA,NA,form submission,4223.08,436417,436405.44,436421.92,440645,440646,2024-06-02T09:17:43Z,440647.22,NULL,Symbol,kielezo,d,NA,NA,NA,bewhjgejrh,NA,NA,1,NA,NA,NA,NA,NA,NA,NA,NA,NA,NA,NA,NA,NA,NA,NA,NA,NA,NA,NA
d8175,"""Richtig""-Screen",canvas.Screen,3_0_1_0_2_0_1,NA,NA,skipped,NA,440648,NA,NA,440645,440648,2024-06-02T09:17:43Z,440647.22,NULL,Symbol,kielezo,d,NA,NA,NA,NA,sdfdsf,NA,1,NA,NA,NA,NA,NA,NA,NA,NA,NA,NA,NA,NA,NA,NA,NA,NA,NA,NA,NA
d8175,"""Falsch""-Screen",canvas.Screen,3_0_1_0_2_0_2,NA,NA,timeout,4994.92,440649,440644.16,440647.22,445625.92,445627,2024-06-02T09:17:48Z,445642.14,NULL,Symbol,kielezo,d,NA,NA,NA,NA,sdfdsf,0,1,NA,NA,NA,NA,NA,NA,NA,NA,NA,NA,NA,NA,NA,NA,NA,NA,NA,NA,NA
d8175,deep,flow.Sequence,3_0_1_0_2_0,NA,NA,completion,9204,436417,436405.44,436421.92,445625.92,445628,2024-06-02T09:17:48Z,445642.14,NULL,Symbol,kielezo,d,NA,NA,NA,NA,sdfdsf,NA,1,NA,NA,NA,NA,NA,NA,NA,NA,NA,NA,NA,NA,NA,NA,NA,NA,NA,NA,NA
d8175,shallow,flow.Sequence,3_0_1_0_2_1,NA,NA,skipped,NA,445628,NA,NA,445625.92,445628,2024-06-02T09:17:48Z,445642.14,NULL,Symbol,kielezo,d,NA,NA,NA,NA,sdfdsf,NA,1,NA,NA,NA,NA,NA,NA,NA,NA,NA,NA,NA,NA,NA,NA,NA,NA,NA,NA,NA
d8175,task,flow.Sequence,3_0_1_0_2,NA,NA,completion,9204,436417,436405.44,436421.92,445625.92,445629,2024-06-02T09:17:48Z,445642.14,NULL,Symbol,kielezo,d,NA,NA,NA,NA,sdfdsf,NA,1,NA,NA,NA,NA,NA,NA,NA,NA,NA,NA,NA,NA,NA,NA,NA,NA,NA,NA,NA
d8175,deep,flow.Sequence,3_0_1_0_3_0,NA,NA,skipped,NA,445629,NA,NA,445625.92,445629,2024-06-02T09:17:48Z,445642.14,NULL,System,maongozi,s,chokochoko,nuksani,mitaani,NA,sdfdsf,NA,1,NA,NA,NA,NA,NA,NA,NA,NA,NA,NA,NA,NA,NA,NA,NA,NA,NA,NA,NA
d8175,Shallow Question,html.Page,3_0_1_0_3_1_0,NA,NA,form submission,3371.86,445630,445625.92,445642.14,449014,449014,2024-06-02T09:17:52Z,449024.92,NULL,System,maongozi,s,chokochoko,nuksani,mitaani,mitaani,NA,NA,1,NA,NA,NA,NA,NA,NA,NA,NA,NA,NA,NA,NA,NA,NA,NA,NA,NA,NA,NA
d8175,"""Richtig""-Screen",canvas.Screen,3_0_1_0_3_1_1,NA,NA,skipped,NA,449016,NA,NA,449014,449016,2024-06-02T09:17:52Z,449024.92,NULL,System,maongozi,s,chokochoko,nuksani,mitaani,NA,sdfdsf,NA,1,NA,NA,NA,NA,NA,NA,NA,NA,NA,NA,NA,NA,NA,NA,NA,NA,NA,NA,NA
d8175,"""Falsch""-Screen",canvas.Screen,3_0_1_0_3_1_2,NA,NA,timeout,5002.84,449017,449010.64,449024.92,454011.08,454013,2024-06-02T09:17:57Z,454027.76,NULL,System,maongozi,s,chokochoko,nuksani,mitaani,NA,sdfdsf,0,1,NA,NA,NA,NA,NA,NA,NA,NA,NA,NA,NA,NA,NA,NA,NA,NA,NA,NA,NA
d8175,shallow,flow.Sequence,3_0_1_0_3_1,NA,NA,completion,8368.94,445629,445625.92,445642.14,454011.08,454013,2024-06-02T09:17:57Z,454027.76,NULL,System,maongozi,s,chokochoko,nuksani,mitaani,NA,sdfdsf,NA,1,NA,NA,NA,NA,NA,NA,NA,NA,NA,NA,NA,NA,NA,NA,NA,NA,NA,NA,NA
d8175,task,flow.Sequence,3_0_1_0_3,NA,NA,completion,8368.94,445629,445625.92,445642.14,454011.08,454013,2024-06-02T09:17:57Z,454027.76,NULL,System,maongozi,s,chokochoko,nuksani,mitaani,NA,sdfdsf,NA,1,NA,NA,NA,NA,NA,NA,NA,NA,NA,NA,NA,NA,NA,NA,NA,NA,NA,NA,NA
d8175,deep,flow.Sequence,3_0_1_0_4_0,NA,NA,skipped,NA,454013,NA,NA,454011.08,454013,2024-06-02T09:17:57Z,454027.76,NULL,Lawine,banguko,s,maambukizi,usuluhishi,chekechea,NA,sdfdsf,NA,1,NA,NA,NA,NA,NA,NA,NA,NA,NA,NA,NA,NA,NA,NA,NA,NA,NA,NA,NA
d8175,Shallow Question,html.Page,3_0_1_0_4_1_0,NA,NA,form submission,4331.24,454014,454011.08,454027.76,458359,458360,2024-06-02T09:18:01Z,458361.16,NULL,Lawine,banguko,s,maambukizi,usuluhishi,chekechea,banguko,NA,NA,1,NA,NA,NA,NA,NA,NA,NA,NA,NA,NA,NA,NA,NA,NA,NA,NA,NA,NA,NA
d8175,"""Richtig""-Screen",canvas.Screen,3_0_1_0_4_1_1,NA,NA,timeout,5004.56,458362,458356.32,458361.16,463349.32,463350,2024-06-02T09:18:06Z,463365.72,NULL,Lawine,banguko,s,maambukizi,usuluhishi,chekechea,NA,sdfdsf,1,1,NA,NA,NA,NA,NA,NA,NA,NA,NA,NA,NA,NA,NA,NA,NA,NA,NA,NA,NA
d8175,"""Falsch""-Screen",canvas.Screen,3_0_1_0_4_1_2,NA,NA,skipped,NA,463354,NA,NA,463349.32,463354,2024-06-02T09:18:06Z,463365.72,NULL,Lawine,banguko,s,maambukizi,usuluhishi,chekechea,NA,sdfdsf,NA,1,NA,NA,NA,NA,NA,NA,NA,NA,NA,NA,NA,NA,NA,NA,NA,NA,NA,NA,NA
d8175,shallow,flow.Sequence,3_0_1_0_4_1,NA,NA,completion,9321.56,454014,454011.08,454027.76,463349.32,463354,2024-06-02T09:18:06Z,463365.72,NULL,Lawine,banguko,s,maambukizi,usuluhishi,chekechea,NA,sdfdsf,NA,1,NA,NA,NA,NA,NA,NA,NA,NA,NA,NA,NA,NA,NA,NA,NA,NA,NA,NA,NA
d8175,task,flow.Sequence,3_0_1_0_4,NA,NA,completion,9321.56,454013,454011.08,454027.76,463349.32,463355,2024-06-02T09:18:06Z,463365.72,NULL,Lawine,banguko,s,maambukizi,usuluhishi,chekechea,NA,sdfdsf,NA,1,NA,NA,NA,NA,NA,NA,NA,NA,NA,NA,NA,NA,NA,NA,NA,NA,NA,NA,NA
d8175,Deep Question,html.Page,3_0_1_0_5_0_0,NA,NA,form submission,3317.28,463355,463349.32,463365.72,466683,466683,2024-06-02T09:18:09Z,466686.8,NULL,Körper,kiwiliwili,d,NA,NA,NA,vbdfgre,NA,NA,1,NA,NA,NA,NA,NA,NA,NA,NA,NA,NA,NA,NA,NA,NA,NA,NA,NA,NA,NA
d8175,"""Richtig""-Screen",canvas.Screen,3_0_1_0_5_0_1,NA,NA,skipped,NA,466685,NA,NA,466683,466685,2024-06-02T09:18:09Z,466686.8,NULL,Körper,kiwiliwili,d,NA,NA,NA,NA,sdfdsf,NA,1,NA,NA,NA,NA,NA,NA,NA,NA,NA,NA,NA,NA,NA,NA,NA,NA,NA,NA,NA
d8175,"""Falsch""-Screen",canvas.Screen,3_0_1_0_5_0_2,NA,NA,timeout,5005.34,466686,466679.6,466686.8,471675.84,471677,2024-06-02T09:18:14Z,471692.14,NULL,Körper,kiwiliwili,d,NA,NA,NA,NA,sdfdsf,0,1,NA,NA,NA,NA,NA,NA,NA,NA,NA,NA,NA,NA,NA,NA,NA,NA,NA,NA,NA
d8175,deep,flow.Sequence,3_0_1_0_5_0,NA,NA,completion,8310.1200000001,463355,463349.32,463365.72,471675.84,471678,2024-06-02T09:18:14Z,471692.14,NULL,Körper,kiwiliwili,d,NA,NA,NA,NA,sdfdsf,NA,1,NA,NA,NA,NA,NA,NA,NA,NA,NA,NA,NA,NA,NA,NA,NA,NA,NA,NA,NA
d8175,shallow,flow.Sequence,3_0_1_0_5_1,NA,NA,skipped,NA,471678,NA,NA,471675.84,471678,2024-06-02T09:18:14Z,471692.14,NULL,Körper,kiwiliwili,d,NA,NA,NA,NA,sdfdsf,NA,1,NA,NA,NA,NA,NA,NA,NA,NA,NA,NA,NA,NA,NA,NA,NA,NA,NA,NA,NA
d8175,task,flow.Sequence,3_0_1_0_5,NA,NA,completion,8310.1200000001,463355,463349.32,463365.72,471675.84,471678,2024-06-02T09:18:14Z,471692.14,NULL,Körper,kiwiliwili,d,NA,NA,NA,NA,sdfdsf,NA,1,NA,NA,NA,NA,NA,NA,NA,NA,NA,NA,NA,NA,NA,NA,NA,NA,NA,NA,NA
d8175,deep,flow.Sequence,3_0_1_0_6_0,NA,NA,skipped,NA,471678,NA,NA,471675.84,471678,2024-06-02T09:18:14Z,471692.14,NULL,Vorsorge,tahadhari,s,ufafanuzi,makini,mashambani,NA,sdfdsf,NA,1,NA,NA,NA,NA,NA,NA,NA,NA,NA,NA,NA,NA,NA,NA,NA,NA,NA,NA,NA
d8175,Shallow Question,html.Page,3_0_1_0_6_1_0,NA,NA,form submission,6345.86,471678,471675.84,471692.14,478038,478038,2024-06-02T09:18:21Z,478036.88,NULL,Vorsorge,tahadhari,s,ufafanuzi,makini,mashambani,tahadhari,NA,NA,1,NA,NA,NA,NA,NA,NA,NA,NA,NA,NA,NA,NA,NA,NA,NA,NA,NA,NA,NA
d8175,"""Richtig""-Screen",canvas.Screen,3_0_1_0_6_1_1,NA,NA,timeout,4999.08,478039,478034.92,478036.88,483019.48,483021,2024-06-02T09:18:26Z,483035.96,NULL,Vorsorge,tahadhari,s,ufafanuzi,makini,mashambani,NA,sdfdsf,1,1,NA,NA,NA,NA,NA,NA,NA,NA,NA,NA,NA,NA,NA,NA,NA,NA,NA,NA,NA
d8175,"""Falsch""-Screen",canvas.Screen,3_0_1_0_6_1_2,NA,NA,skipped,NA,483023,NA,NA,483019.48,483023,2024-06-02T09:18:26Z,483035.96,NULL,Vorsorge,tahadhari,s,ufafanuzi,makini,mashambani,NA,sdfdsf,NA,1,NA,NA,NA,NA,NA,NA,NA,NA,NA,NA,NA,NA,NA,NA,NA,NA,NA,NA,NA
d8175,shallow,flow.Sequence,3_0_1_0_6_1,NA,NA,completion,11327.34,471678,471675.84,471692.14,483019.48,483024,2024-06-02T09:18:26Z,483035.96,NULL,Vorsorge,tahadhari,s,ufafanuzi,makini,mashambani,NA,sdfdsf,NA,1,NA,NA,NA,NA,NA,NA,NA,NA,NA,NA,NA,NA,NA,NA,NA,NA,NA,NA,NA
d8175,task,flow.Sequence,3_0_1_0_6,NA,NA,completion,11327.34,471678,471675.84,471692.14,483019.48,483024,2024-06-02T09:18:26Z,483035.96,NULL,Vorsorge,tahadhari,s,ufafanuzi,makini,mashambani,NA,sdfdsf,NA,1,NA,NA,NA,NA,NA,NA,NA,NA,NA,NA,NA,NA,NA,NA,NA,NA,NA,NA,NA
d8175,Deep Question,html.Page,3_0_1_0_7_0_0,NA,NA,form submission,2798.04,483024,483019.48,483035.96,485834,485834,2024-06-02T09:18:28Z,485834.52,NULL,Übersicht,kilindo,d,NA,NA,NA,gkzhf,NA,NA,1,NA,NA,NA,NA,NA,NA,NA,NA,NA,NA,NA,NA,NA,NA,NA,NA,NA,NA,NA
d8175,"""Richtig""-Screen",canvas.Screen,3_0_1_0_7_0_1,NA,NA,skipped,NA,485836,NA,NA,485834,485836,2024-06-02T09:18:28Z,485834.52,NULL,Übersicht,kilindo,d,NA,NA,NA,NA,sdfdsf,NA,1,NA,NA,NA,NA,NA,NA,NA,NA,NA,NA,NA,NA,NA,NA,NA,NA,NA,NA,NA
d8175,"""Falsch""-Screen",canvas.Screen,3_0_1_0_7_0_2,NA,NA,timeout,5004.98,485837,485832.54,485834.52,490823.28,490837,2024-06-02T09:18:33Z,490839.5,NULL,Übersicht,kilindo,d,NA,NA,NA,NA,sdfdsf,0,1,NA,NA,NA,NA,NA,NA,NA,NA,NA,NA,NA,NA,NA,NA,NA,NA,NA,NA,NA
d8175,deep,flow.Sequence,3_0_1_0_7_0,NA,NA,completion,7787.32,483024,483019.48,483035.96,490823.28,490838,2024-06-02T09:18:33Z,490839.5,NULL,Übersicht,kilindo,d,NA,NA,NA,NA,sdfdsf,NA,1,NA,NA,NA,NA,NA,NA,NA,NA,NA,NA,NA,NA,NA,NA,NA,NA,NA,NA,NA
d8175,shallow,flow.Sequence,3_0_1_0_7_1,NA,NA,skipped,NA,490838,NA,NA,490823.28,490838,2024-06-02T09:18:33Z,490839.5,NULL,Übersicht,kilindo,d,NA,NA,NA,NA,sdfdsf,NA,1,NA,NA,NA,NA,NA,NA,NA,NA,NA,NA,NA,NA,NA,NA,NA,NA,NA,NA,NA
d8175,task,flow.Sequence,3_0_1_0_7,NA,NA,completion,7787.32,483024,483019.48,483035.96,490823.28,490839,2024-06-02T09:18:33Z,490839.5,NULL,Übersicht,kilindo,d,NA,NA,NA,NA,sdfdsf,NA,1,NA,NA,NA,NA,NA,NA,NA,NA,NA,NA,NA,NA,NA,NA,NA,NA,NA,NA,NA
d8175,block,flow.Loop,3_0_1_0,NA,NA,completion,75223.9,415599,415599.06,415599.38,490823.28,490839,2024-06-02T09:18:33Z,490839.5,NULL,NA,NA,NA,NA,NA,NA,NA,sdfdsf,NA,1,NA,NA,NA,NA,NA,NA,NA,NA,NA,NA,NA,NA,NA,NA,NA,NA,NA,NA,NA
d8175,weiter,canvas.Screen,3_0_1_1,sdf,keypress(Space),response,1274.5,490839,490823.28,490839.5,492114,492125,2024-06-02T09:18:35Z,492174.12,NULL,NA,NA,NA,NA,NA,NA,NA,sdfdsf,NA,1,NA,NA,NA,NA,NA,NA,NA,NA,NA,NA,NA,NA,NA,NA,NA,NA,NA,NA,NA
d8175,check continue,flow.Sequence,3_0_1,NA,NA,completion,76514.62,415599,415599.06,415599.38,492114,492126,2024-06-02T09:18:35Z,492174.12,NULL,NA,NA,NA,NA,NA,NA,NA,sdfdsf,NA,1,NA,NA,NA,NA,NA,NA,NA,NA,NA,NA,NA,NA,NA,NA,NA,NA,NA,NA,NA
d8175,Deep Question,html.Page,3_0_2_0_0_0_0,NA,NA,form submission,33330.88,492174,492173.78,492174.12,525505,525507,2024-06-02T09:19:08Z,525519.9,NULL,Symbol,kielezo,d,NA,NA,NA,fgbdghdd,NA,NA,2,NA,NA,NA,NA,NA,NA,NA,NA,NA,NA,NA,NA,NA,NA,NA,NA,NA,NA,NA
d8175,"""Richtig""-Screen",canvas.Screen,3_0_2_0_0_0_1,NA,NA,skipped,NA,525514,NA,NA,525505,525514,2024-06-02T09:19:08Z,525519.9,NULL,Symbol,kielezo,d,NA,NA,NA,NA,sdf,NA,2,NA,NA,NA,NA,NA,NA,NA,NA,NA,NA,NA,NA,NA,NA,NA,NA,NA,NA,NA
d8175,"""Falsch""-Screen",canvas.Screen,3_0_2_0_0_0_2,NA,NA,timeout,5004.1799999999,525516,525503.42,525519.9,530507.5,530509,2024-06-02T09:19:13Z,530524.08,NULL,Symbol,kielezo,d,NA,NA,NA,NA,sdf,0,2,NA,NA,NA,NA,NA,NA,NA,NA,NA,NA,NA,NA,NA,NA,NA,NA,NA,NA,NA
d8175,deep,flow.Sequence,3_0_2_0_0_0,NA,NA,completion,38333.38,492174,492173.78,492174.12,530507.5,530510,2024-06-02T09:19:13Z,530524.08,NULL,Symbol,kielezo,d,NA,NA,NA,NA,sdf,NA,2,NA,NA,NA,NA,NA,NA,NA,NA,NA,NA,NA,NA,NA,NA,NA,NA,NA,NA,NA
d8175,shallow,flow.Sequence,3_0_2_0_0_1,NA,NA,skipped,NA,530510,NA,NA,530507.5,530510,2024-06-02T09:19:13Z,530524.08,NULL,Symbol,kielezo,d,NA,NA,NA,NA,sdf,NA,2,NA,NA,NA,NA,NA,NA,NA,NA,NA,NA,NA,NA,NA,NA,NA,NA,NA,NA,NA
d8175,task,flow.Sequence,3_0_2_0_0,NA,NA,completion,38333.38,492173,492173.78,492174.12,530507.5,530511,2024-06-02T09:19:13Z,530524.08,NULL,Symbol,kielezo,d,NA,NA,NA,NA,sdf,NA,2,NA,NA,NA,NA,NA,NA,NA,NA,NA,NA,NA,NA,NA,NA,NA,NA,NA,NA,NA
d8175,Deep Question,html.Page,3_0_2_0_1_0_0,NA,NA,form submission,10265.92,530511,530507.5,530524.08,540790,540791,2024-06-02T09:19:23Z,540788.96,NULL,Zuwachs,nyongeza,d,NA,NA,NA,gkfuzhjfg,NA,NA,2,NA,NA,NA,NA,NA,NA,NA,NA,NA,NA,NA,NA,NA,NA,NA,NA,NA,NA,NA
d8175,"""Richtig""-Screen",canvas.Screen,3_0_2_0_1_0_1,NA,NA,skipped,NA,540794,NA,NA,540790,540794,2024-06-02T09:19:23Z,540788.96,NULL,Zuwachs,nyongeza,d,NA,NA,NA,NA,sdf,NA,2,NA,NA,NA,NA,NA,NA,NA,NA,NA,NA,NA,NA,NA,NA,NA,NA,NA,NA,NA
d8175,"""Falsch""-Screen",canvas.Screen,3_0_2_0_1_0_2,NA,NA,timeout,5007.42,540797,540788.68,540788.96,545780.1,545782,2024-06-02T09:19:28Z,545796.38,NULL,Zuwachs,nyongeza,d,NA,NA,NA,NA,sdf,0,2,NA,NA,NA,NA,NA,NA,NA,NA,NA,NA,NA,NA,NA,NA,NA,NA,NA,NA,NA
d8175,deep,flow.Sequence,3_0_2_0_1_0,NA,NA,completion,15256.02,530511,530507.5,530524.08,545780.1,545783,2024-06-02T09:19:28Z,545796.38,NULL,Zuwachs,nyongeza,d,NA,NA,NA,NA,sdf,NA,2,NA,NA,NA,NA,NA,NA,NA,NA,NA,NA,NA,NA,NA,NA,NA,NA,NA,NA,NA
d8175,shallow,flow.Sequence,3_0_2_0_1_1,NA,NA,skipped,NA,545783,NA,NA,545780.1,545783,2024-06-02T09:19:28Z,545796.38,NULL,Zuwachs,nyongeza,d,NA,NA,NA,NA,sdf,NA,2,NA,NA,NA,NA,NA,NA,NA,NA,NA,NA,NA,NA,NA,NA,NA,NA,NA,NA,NA
d8175,task,flow.Sequence,3_0_2_0_1,NA,NA,completion,15256.02,530511,530507.5,530524.08,545780.1,545783,2024-06-02T09:19:28Z,545796.38,NULL,Zuwachs,nyongeza,d,NA,NA,NA,NA,sdf,NA,2,NA,NA,NA,NA,NA,NA,NA,NA,NA,NA,NA,NA,NA,NA,NA,NA,NA,NA,NA
d8175,deep,flow.Sequence,3_0_2_0_2_0,NA,NA,skipped,NA,545783,NA,NA,545780.1,545783,2024-06-02T09:19:28Z,545796.38,NULL,Vorsorge,tahadhari,s,ufafanuzi,makini,mashambani,NA,sdf,NA,2,NA,NA,NA,NA,NA,NA,NA,NA,NA,NA,NA,NA,NA,NA,NA,NA,NA,NA,NA
d8175,Shallow Question,html.Page,3_0_2_0_2_1_0,NA,NA,form submission,7350.62,545783,545780.1,545796.38,553147,553148,2024-06-02T09:19:36Z,553152.06,NULL,Vorsorge,tahadhari,s,ufafanuzi,makini,mashambani,tahadhari,NA,NA,2,NA,NA,NA,NA,NA,NA,NA,NA,NA,NA,NA,NA,NA,NA,NA,NA,NA,NA,NA
d8175,"""Richtig""-Screen",canvas.Screen,3_0_2_0_2_1_1,NA,NA,timeout,4999.6399999999,553156,553141.5,553152.06,558134.86,558137,2024-06-02T09:19:41Z,558151.7,NULL,Vorsorge,tahadhari,s,ufafanuzi,makini,mashambani,NA,sdf,1,2,NA,NA,NA,NA,NA,NA,NA,NA,NA,NA,NA,NA,NA,NA,NA,NA,NA,NA,NA
d8175,"""Falsch""-Screen",canvas.Screen,3_0_2_0_2_1_2,NA,NA,skipped,NA,558139,NA,NA,558134.86,558139,2024-06-02T09:19:41Z,558151.7,NULL,Vorsorge,tahadhari,s,ufafanuzi,makini,mashambani,NA,sdf,NA,2,NA,NA,NA,NA,NA,NA,NA,NA,NA,NA,NA,NA,NA,NA,NA,NA,NA,NA,NA
d8175,shallow,flow.Sequence,3_0_2_0_2_1,NA,NA,completion,12338.48,545783,545780.1,545796.38,558134.86,558140,2024-06-02T09:19:41Z,558151.7,NULL,Vorsorge,tahadhari,s,ufafanuzi,makini,mashambani,NA,sdf,NA,2,NA,NA,NA,NA,NA,NA,NA,NA,NA,NA,NA,NA,NA,NA,NA,NA,NA,NA,NA
d8175,task,flow.Sequence,3_0_2_0_2,NA,NA,completion,12338.48,545783,545780.1,545796.38,558134.86,558140,2024-06-02T09:19:41Z,558151.7,NULL,Vorsorge,tahadhari,s,ufafanuzi,makini,mashambani,NA,sdf,NA,2,NA,NA,NA,NA,NA,NA,NA,NA,NA,NA,NA,NA,NA,NA,NA,NA,NA,NA,NA
d8175,deep,flow.Sequence,3_0_2_0_3_0,NA,NA,skipped,NA,558140,NA,NA,558134.86,558140,2024-06-02T09:19:41Z,558151.7,NULL,Lawine,banguko,s,maambukizi,usuluhishi,chekechea,NA,sdf,NA,2,NA,NA,NA,NA,NA,NA,NA,NA,NA,NA,NA,NA,NA,NA,NA,NA,NA,NA,NA
d8175,Shallow Question,html.Page,3_0_2_0_3_1_0,NA,NA,form submission,3820.3,558140,558134.86,558151.7,561972,561972,2024-06-02T09:19:45Z,561969.5,NULL,Lawine,banguko,s,maambukizi,usuluhishi,chekechea,banguko,NA,NA,2,NA,NA,NA,NA,NA,NA,NA,NA,NA,NA,NA,NA,NA,NA,NA,NA,NA,NA,NA
d8175,"""Richtig""-Screen",canvas.Screen,3_0_2_0_3_1_1,NA,NA,timeout,4997.7,561974,561967.9,561969.5,566950.94,566956,2024-06-02T09:19:50Z,566967.2,NULL,Lawine,banguko,s,maambukizi,usuluhishi,chekechea,NA,sdf,1,2,NA,NA,NA,NA,NA,NA,NA,NA,NA,NA,NA,NA,NA,NA,NA,NA,NA,NA,NA
d8175,"""Falsch""-Screen",canvas.Screen,3_0_2_0_3_1_2,NA,NA,skipped,NA,566958,NA,NA,566950.94,566958,2024-06-02T09:19:50Z,566967.2,NULL,Lawine,banguko,s,maambukizi,usuluhishi,chekechea,NA,sdf,NA,2,NA,NA,NA,NA,NA,NA,NA,NA,NA,NA,NA,NA,NA,NA,NA,NA,NA,NA,NA
d8175,shallow,flow.Sequence,3_0_2_0_3_1,NA,NA,completion,8799.24,558140,558134.86,558151.7,566950.94,566958,2024-06-02T09:19:50Z,566967.2,NULL,Lawine,banguko,s,maambukizi,usuluhishi,chekechea,NA,sdf,NA,2,NA,NA,NA,NA,NA,NA,NA,NA,NA,NA,NA,NA,NA,NA,NA,NA,NA,NA,NA
d8175,task,flow.Sequence,3_0_2_0_3,NA,NA,completion,8799.24,558140,558134.86,558151.7,566950.94,566959,2024-06-02T09:19:50Z,566967.2,NULL,Lawine,banguko,s,maambukizi,usuluhishi,chekechea,NA,sdf,NA,2,NA,NA,NA,NA,NA,NA,NA,NA,NA,NA,NA,NA,NA,NA,NA,NA,NA,NA,NA
d8175,Deep Question,html.Page,3_0_2_0_4_0_0,NA,NA,form submission,9340.8,566959,566950.94,566967.2,576308,576308,2024-06-02T09:19:59Z,576315.64,NULL,Körper,kiwiliwili,d,NA,NA,NA,kiwli,NA,NA,2,NA,NA,NA,NA,NA,NA,NA,NA,NA,NA,NA,NA,NA,NA,NA,NA,NA,NA,NA
d8175,"""Richtig""-Screen",canvas.Screen,3_0_2_0_4_0_1,NA,NA,skipped,NA,576310,NA,NA,576308,576310,2024-06-02T09:19:59Z,576315.64,NULL,Körper,kiwiliwili,d,NA,NA,NA,NA,sdf,NA,2,NA,NA,NA,NA,NA,NA,NA,NA,NA,NA,NA,NA,NA,NA,NA,NA,NA,NA,NA
d8175,"""Falsch""-Screen",canvas.Screen,3_0_2_0_4_0_2,NA,NA,timeout,4994.22,576312,576306.68,576315.64,581293.04,581295,2024-06-02T09:20:04Z,581309.86,NULL,Körper,kiwiliwili,d,NA,NA,NA,NA,sdf,0,2,NA,NA,NA,NA,NA,NA,NA,NA,NA,NA,NA,NA,NA,NA,NA,NA,NA,NA,NA
d8175,deep,flow.Sequence,3_0_2_0_4_0,NA,NA,completion,14325.84,566959,566950.94,566967.2,581293.04,581295,2024-06-02T09:20:04Z,581309.86,NULL,Körper,kiwiliwili,d,NA,NA,NA,NA,sdf,NA,2,NA,NA,NA,NA,NA,NA,NA,NA,NA,NA,NA,NA,NA,NA,NA,NA,NA,NA,NA
d8175,shallow,flow.Sequence,3_0_2_0_4_1,NA,NA,skipped,NA,581295,NA,NA,581293.04,581295,2024-06-02T09:20:04Z,581309.86,NULL,Körper,kiwiliwili,d,NA,NA,NA,NA,sdf,NA,2,NA,NA,NA,NA,NA,NA,NA,NA,NA,NA,NA,NA,NA,NA,NA,NA,NA,NA,NA
d8175,task,flow.Sequence,3_0_2_0_4,NA,NA,completion,14325.84,566959,566950.94,566967.2,581293.04,581295,2024-06-02T09:20:04Z,581309.86,NULL,Körper,kiwiliwili,d,NA,NA,NA,NA,sdf,NA,2,NA,NA,NA,NA,NA,NA,NA,NA,NA,NA,NA,NA,NA,NA,NA,NA,NA,NA,NA
d8175,deep,flow.Sequence,3_0_2_0_5_0,NA,NA,skipped,NA,581296,NA,NA,581293.04,581296,2024-06-02T09:20:04Z,581309.86,NULL,System,maongozi,s,chokochoko,nuksani,mitaani,NA,sdf,NA,2,NA,NA,NA,NA,NA,NA,NA,NA,NA,NA,NA,NA,NA,NA,NA,NA,NA,NA,NA
d8175,Shallow Question,html.Page,3_0_2_0_5_1_0,NA,NA,form submission,5150.14,581296,581293.04,581309.86,586460,586461,2024-06-02T09:20:09Z,586465.5,NULL,System,maongozi,s,chokochoko,nuksani,mitaani,maongozi,NA,NA,2,NA,NA,NA,NA,NA,NA,NA,NA,NA,NA,NA,NA,NA,NA,NA,NA,NA,NA,NA
d8175,"""Richtig""-Screen",canvas.Screen,3_0_2_0_5_1_1,NA,NA,timeout,4996.3,586463,586457.08,586465.5,591445.38,591461,2024-06-02T09:20:14Z,591461.8,NULL,System,maongozi,s,chokochoko,nuksani,mitaani,NA,sdf,1,2,NA,NA,NA,NA,NA,NA,NA,NA,NA,NA,NA,NA,NA,NA,NA,NA,NA,NA,NA
d8175,"""Falsch""-Screen",canvas.Screen,3_0_2_0_5_1_2,NA,NA,skipped,NA,591463,NA,NA,591445.38,591463,2024-06-02T09:20:14Z,591461.8,NULL,System,maongozi,s,chokochoko,nuksani,mitaani,NA,sdf,NA,2,NA,NA,NA,NA,NA,NA,NA,NA,NA,NA,NA,NA,NA,NA,NA,NA,NA,NA,NA
d8175,shallow,flow.Sequence,3_0_2_0_5_1,NA,NA,completion,10135.52,581296,581293.04,581309.86,591445.38,591463,2024-06-02T09:20:14Z,591461.8,NULL,System,maongozi,s,chokochoko,nuksani,mitaani,NA,sdf,NA,2,NA,NA,NA,NA,NA,NA,NA,NA,NA,NA,NA,NA,NA,NA,NA,NA,NA,NA,NA
d8175,task,flow.Sequence,3_0_2_0_5,NA,NA,completion,10135.52,581296,581293.04,581309.86,591445.38,591463,2024-06-02T09:20:14Z,591461.8,NULL,System,maongozi,s,chokochoko,nuksani,mitaani,NA,sdf,NA,2,NA,NA,NA,NA,NA,NA,NA,NA,NA,NA,NA,NA,NA,NA,NA,NA,NA,NA,NA
d8175,Deep Question,html.Page,3_0_2_0_6_0_0,NA,NA,form submission,3328.2,591464,591445.38,591461.8,594790,594791,2024-06-02T09:20:17Z,594789.9,NULL,Übersicht,kilindo,d,NA,NA,NA,kilindo,NA,NA,2,NA,NA,NA,NA,NA,NA,NA,NA,NA,NA,NA,NA,NA,NA,NA,NA,NA,NA,NA
d8175,"""Richtig""-Screen",canvas.Screen,3_0_2_0_6_0_1,NA,NA,timeout,5021.98,594793,594789.5,594789.9,599776.64,599802,2024-06-02T09:20:22Z,599811.88,NULL,Übersicht,kilindo,d,NA,NA,NA,NA,sdf,1,2,NA,NA,NA,NA,NA,NA,NA,NA,NA,NA,NA,NA,NA,NA,NA,NA,NA,NA,NA
d8175,"""Falsch""-Screen",canvas.Screen,3_0_2_0_6_0_2,NA,NA,skipped,NA,599804,NA,NA,599776.64,599804,2024-06-02T09:20:22Z,599811.88,NULL,Übersicht,kilindo,d,NA,NA,NA,NA,sdf,NA,2,NA,NA,NA,NA,NA,NA,NA,NA,NA,NA,NA,NA,NA,NA,NA,NA,NA,NA,NA
d8175,deep,flow.Sequence,3_0_2_0_6_0,NA,NA,completion,8314.84,591464,591445.38,591461.8,599776.64,599804,2024-06-02T09:20:22Z,599811.88,NULL,Übersicht,kilindo,d,NA,NA,NA,NA,sdf,NA,2,NA,NA,NA,NA,NA,NA,NA,NA,NA,NA,NA,NA,NA,NA,NA,NA,NA,NA,NA
d8175,shallow,flow.Sequence,3_0_2_0_6_1,NA,NA,skipped,NA,599804,NA,NA,599776.64,599804,2024-06-02T09:20:22Z,599811.88,NULL,Übersicht,kilindo,d,NA,NA,NA,NA,sdf,NA,2,NA,NA,NA,NA,NA,NA,NA,NA,NA,NA,NA,NA,NA,NA,NA,NA,NA,NA,NA
d8175,task,flow.Sequence,3_0_2_0_6,NA,NA,completion,8314.84,591464,591445.38,591461.8,599776.64,599804,2024-06-02T09:20:22Z,599811.88,NULL,Übersicht,kilindo,d,NA,NA,NA,NA,sdf,NA,2,NA,NA,NA,NA,NA,NA,NA,NA,NA,NA,NA,NA,NA,NA,NA,NA,NA,NA,NA
d8175,deep,flow.Sequence,3_0_2_0_7_0,NA,NA,skipped,NA,599804,NA,NA,599776.64,599804,2024-06-02T09:20:22Z,599811.88,NULL,Konkurrent,mshindani,s,msemaji,mvutaji,kipukusa,NA,sdf,NA,2,NA,NA,NA,NA,NA,NA,NA,NA,NA,NA,NA,NA,NA,NA,NA,NA,NA,NA,NA
d8175,Shallow Question,html.Page,3_0_2_0_7_1_0,NA,NA,form submission,6374.12,599804,599776.64,599811.88,606186,606187,2024-06-02T09:20:29Z,606198.84,NULL,Konkurrent,mshindani,s,msemaji,mvutaji,kipukusa,mshindani,NA,NA,2,NA,NA,NA,NA,NA,NA,NA,NA,NA,NA,NA,NA,NA,NA,NA,NA,NA,NA,NA
d8175,"""Richtig""-Screen",canvas.Screen,3_0_2_0_7_1_1,NA,NA,timeout,5033.6,606188,606182.94,606198.84,611176.68,611202,2024-06-02T09:20:34Z,611232.44,NULL,Konkurrent,mshindani,s,msemaji,mvutaji,kipukusa,NA,sdf,1,2,NA,NA,NA,NA,NA,NA,NA,NA,NA,NA,NA,NA,NA,NA,NA,NA,NA,NA,NA
d8175,"""Falsch""-Screen",canvas.Screen,3_0_2_0_7_1_2,NA,NA,skipped,NA,611205,NA,NA,611176.68,611205,2024-06-02T09:20:34Z,611232.44,NULL,Konkurrent,mshindani,s,msemaji,mvutaji,kipukusa,NA,sdf,NA,2,NA,NA,NA,NA,NA,NA,NA,NA,NA,NA,NA,NA,NA,NA,NA,NA,NA,NA,NA
d8175,shallow,flow.Sequence,3_0_2_0_7_1,NA,NA,completion,11364.8,599804,599776.64,599811.88,611176.68,611205,2024-06-02T09:20:34Z,611232.44,NULL,Konkurrent,mshindani,s,msemaji,mvutaji,kipukusa,NA,sdf,NA,2,NA,NA,NA,NA,NA,NA,NA,NA,NA,NA,NA,NA,NA,NA,NA,NA,NA,NA,NA
d8175,task,flow.Sequence,3_0_2_0_7,NA,NA,completion,11364.8,599804,599776.64,599811.88,611176.68,611205,2024-06-02T09:20:34Z,611232.44,NULL,Konkurrent,mshindani,s,msemaji,mvutaji,kipukusa,NA,sdf,NA,2,NA,NA,NA,NA,NA,NA,NA,NA,NA,NA,NA,NA,NA,NA,NA,NA,NA,NA,NA
d8175,block,flow.Loop,3_0_2_0,NA,NA,completion,119002.56,492173,492173.78,492174.12,611176.68,611205,2024-06-02T09:20:34Z,611232.44,NULL,NA,NA,NA,NA,NA,NA,NA,sdf,NA,2,NA,NA,NA,NA,NA,NA,NA,NA,NA,NA,NA,NA,NA,NA,NA,NA,NA,NA,NA
d8175,weiter,canvas.Screen,3_0_2_1,sdf,keypress(Space),response,1021.5600000001,611205,611176.68,611232.44,612254,612270,2024-06-02T09:20:35Z,612316.98,NULL,NA,NA,NA,NA,NA,NA,NA,sdf,NA,2,NA,NA,NA,NA,NA,NA,NA,NA,NA,NA,NA,NA,NA,NA,NA,NA,NA,NA,NA
d8175,check continue,flow.Sequence,3_0_2,NA,NA,completion,120079.88,492173,492173.78,492174.12,612254,612271,2024-06-02T09:20:35Z,612316.98,NULL,NA,NA,NA,NA,NA,NA,NA,sdf,NA,2,NA,NA,NA,NA,NA,NA,NA,NA,NA,NA,NA,NA,NA,NA,NA,NA,NA,NA,NA
d8175,Deep Question,html.Page,3_0_3_0_0_0_0,NA,NA,form submission,5742.02,612316,612316.12,612316.98,618059,618059,2024-06-02T09:20:41Z,618059.76,NULL,Körper,kiwiliwili,d,NA,NA,NA,kiwil,NA,NA,3,NA,NA,NA,NA,NA,NA,NA,NA,NA,NA,NA,NA,NA,NA,NA,NA,NA,NA,NA
d8175,"""Richtig""-Screen",canvas.Screen,3_0_3_0_0_0_1,NA,NA,skipped,NA,618061,NA,NA,618059,618061,2024-06-02T09:20:41Z,618059.76,NULL,Körper,kiwiliwili,d,NA,NA,NA,NA,qt,NA,3,NA,NA,NA,NA,NA,NA,NA,NA,NA,NA,NA,NA,NA,NA,NA,NA,NA,NA,NA
d8175,"""Falsch""-Screen",canvas.Screen,3_0_3_0_0_0_2,NA,NA,timeout,5005.72,618062,618057.94,618059.76,623048.66,623050,2024-06-02T09:20:46Z,623065.48,NULL,Körper,kiwiliwili,d,NA,NA,NA,NA,qt,0,3,NA,NA,NA,NA,NA,NA,NA,NA,NA,NA,NA,NA,NA,NA,NA,NA,NA,NA,NA
d8175,deep,flow.Sequence,3_0_3_0_0_0,NA,NA,completion,10731.68,612316,612316.12,612316.98,623048.66,623050,2024-06-02T09:20:46Z,623065.48,NULL,Körper,kiwiliwili,d,NA,NA,NA,NA,qt,NA,3,NA,NA,NA,NA,NA,NA,NA,NA,NA,NA,NA,NA,NA,NA,NA,NA,NA,NA,NA
d8175,shallow,flow.Sequence,3_0_3_0_0_1,NA,NA,skipped,NA,623050,NA,NA,623048.66,623050,2024-06-02T09:20:46Z,623065.48,NULL,Körper,kiwiliwili,d,NA,NA,NA,NA,qt,NA,3,NA,NA,NA,NA,NA,NA,NA,NA,NA,NA,NA,NA,NA,NA,NA,NA,NA,NA,NA
d8175,task,flow.Sequence,3_0_3_0_0,NA,NA,completion,10731.68,612316,612316.12,612316.98,623048.66,623050,2024-06-02T09:20:46Z,623065.48,NULL,Körper,kiwiliwili,d,NA,NA,NA,NA,qt,NA,3,NA,NA,NA,NA,NA,NA,NA,NA,NA,NA,NA,NA,NA,NA,NA,NA,NA,NA,NA
d8175,deep,flow.Sequence,3_0_3_0_1_0,NA,NA,skipped,NA,623050,NA,NA,623048.66,623051,2024-06-02T09:20:46Z,623065.48,NULL,Vorsorge,tahadhari,s,ufafanuzi,makini,mashambani,NA,qt,NA,3,NA,NA,NA,NA,NA,NA,NA,NA,NA,NA,NA,NA,NA,NA,NA,NA,NA,NA,NA
d8175,Shallow Question,html.Page,3_0_3_0_1_1_0,NA,NA,form submission,5357.52,623051,623048.66,623065.48,628423,628423,2024-06-02T09:20:51Z,628436.06,NULL,Vorsorge,tahadhari,s,ufafanuzi,makini,mashambani,tahadhari,NA,NA,3,NA,NA,NA,NA,NA,NA,NA,NA,NA,NA,NA,NA,NA,NA,NA,NA,NA,NA,NA
d8175,"""Richtig""-Screen",canvas.Screen,3_0_3_0_1_1_1,NA,NA,timeout,4993.6799999999,628425,628419.98,628436.06,633413.36,633417,2024-06-02T09:20:56Z,633429.74,NULL,Vorsorge,tahadhari,s,ufafanuzi,makini,mashambani,NA,qt,1,3,NA,NA,NA,NA,NA,NA,NA,NA,NA,NA,NA,NA,NA,NA,NA,NA,NA,NA,NA
d8175,"""Falsch""-Screen",canvas.Screen,3_0_3_0_1_1_2,NA,NA,skipped,NA,633425,NA,NA,633413.36,633425,2024-06-02T09:20:56Z,633429.74,NULL,Vorsorge,tahadhari,s,ufafanuzi,makini,mashambani,NA,qt,NA,3,NA,NA,NA,NA,NA,NA,NA,NA,NA,NA,NA,NA,NA,NA,NA,NA,NA,NA,NA
d8175,shallow,flow.Sequence,3_0_3_0_1_1,NA,NA,completion,10347.88,623051,623048.66,623065.48,633413.36,633426,2024-06-02T09:20:56Z,633429.74,NULL,Vorsorge,tahadhari,s,ufafanuzi,makini,mashambani,NA,qt,NA,3,NA,NA,NA,NA,NA,NA,NA,NA,NA,NA,NA,NA,NA,NA,NA,NA,NA,NA,NA
d8175,task,flow.Sequence,3_0_3_0_1,NA,NA,completion,10347.88,623050,623048.66,623065.48,633413.36,633426,2024-06-02T09:20:56Z,633429.74,NULL,Vorsorge,tahadhari,s,ufafanuzi,makini,mashambani,NA,qt,NA,3,NA,NA,NA,NA,NA,NA,NA,NA,NA,NA,NA,NA,NA,NA,NA,NA,NA,NA,NA
d8175,deep,flow.Sequence,3_0_3_0_2_0,NA,NA,skipped,NA,633426,NA,NA,633413.36,633426,2024-06-02T09:20:56Z,633429.74,NULL,System,maongozi,s,chokochoko,nuksani,mitaani,NA,qt,NA,3,NA,NA,NA,NA,NA,NA,NA,NA,NA,NA,NA,NA,NA,NA,NA,NA,NA,NA,NA
d8175,Shallow Question,html.Page,3_0_3_0_2_1_0,NA,NA,form submission,5801.26,633427,633413.36,633429.74,639231,639232,2024-06-02T09:21:02Z,639239.46,NULL,System,maongozi,s,chokochoko,nuksani,mitaani,maongozi,NA,NA,3,NA,NA,NA,NA,NA,NA,NA,NA,NA,NA,NA,NA,NA,NA,NA,NA,NA,NA,NA
d8175,"""Richtig""-Screen",canvas.Screen,3_0_3_0_2_1_1,NA,NA,timeout,4995.24,639233,639227.1,639239.46,644218.14,644220,2024-06-02T09:21:07Z,644234.7,NULL,System,maongozi,s,chokochoko,nuksani,mitaani,NA,qt,1,3,NA,NA,NA,NA,NA,NA,NA,NA,NA,NA,NA,NA,NA,NA,NA,NA,NA,NA,NA
d8175,"""Falsch""-Screen",canvas.Screen,3_0_3_0_2_1_2,NA,NA,skipped,NA,644224,NA,NA,644218.14,644224,2024-06-02T09:21:07Z,644234.7,NULL,System,maongozi,s,chokochoko,nuksani,mitaani,NA,qt,NA,3,NA,NA,NA,NA,NA,NA,NA,NA,NA,NA,NA,NA,NA,NA,NA,NA,NA,NA,NA
d8175,shallow,flow.Sequence,3_0_3_0_2_1,NA,NA,completion,10788.4,633427,633413.36,633429.74,644218.14,644224,2024-06-02T09:21:07Z,644234.7,NULL,System,maongozi,s,chokochoko,nuksani,mitaani,NA,qt,NA,3,NA,NA,NA,NA,NA,NA,NA,NA,NA,NA,NA,NA,NA,NA,NA,NA,NA,NA,NA
d8175,task,flow.Sequence,3_0_3_0_2,NA,NA,completion,10788.4,633426,633413.36,633429.74,644218.14,644225,2024-06-02T09:21:07Z,644234.7,NULL,System,maongozi,s,chokochoko,nuksani,mitaani,NA,qt,NA,3,NA,NA,NA,NA,NA,NA,NA,NA,NA,NA,NA,NA,NA,NA,NA,NA,NA,NA,NA
d8175,deep,flow.Sequence,3_0_3_0_3_0,NA,NA,skipped,NA,644226,NA,NA,644218.14,644226,2024-06-02T09:21:07Z,644234.7,NULL,Konkurrent,mshindani,s,msemaji,mvutaji,kipukusa,NA,qt,NA,3,NA,NA,NA,NA,NA,NA,NA,NA,NA,NA,NA,NA,NA,NA,NA,NA,NA,NA,NA
d8175,Shallow Question,html.Page,3_0_3_0_3_1_0,NA,NA,form submission,4830.3,644226,644218.14,644234.7,649065,649065,2024-06-02T09:21:12Z,649066.26,NULL,Konkurrent,mshindani,s,msemaji,mvutaji,kipukusa,mshindani,NA,NA,3,NA,NA,NA,NA,NA,NA,NA,NA,NA,NA,NA,NA,NA,NA,NA,NA,NA,NA,NA
d8175,"""Richtig""-Screen",canvas.Screen,3_0_3_0_3_1_1,NA,NA,timeout,4999.8,649067,649061.56,649066.26,654049.82,654052,2024-06-02T09:21:17Z,654066.06,NULL,Konkurrent,mshindani,s,msemaji,mvutaji,kipukusa,NA,qt,1,3,NA,NA,NA,NA,NA,NA,NA,NA,NA,NA,NA,NA,NA,NA,NA,NA,NA,NA,NA
d8175,"""Falsch""-Screen",canvas.Screen,3_0_3_0_3_1_2,NA,NA,skipped,NA,654053,NA,NA,654049.82,654054,2024-06-02T09:21:17Z,654066.06,NULL,Konkurrent,mshindani,s,msemaji,mvutaji,kipukusa,NA,qt,NA,3,NA,NA,NA,NA,NA,NA,NA,NA,NA,NA,NA,NA,NA,NA,NA,NA,NA,NA,NA
d8175,shallow,flow.Sequence,3_0_3_0_3_1,NA,NA,completion,9815.12,644226,644218.14,644234.7,654049.82,654054,2024-06-02T09:21:17Z,654066.06,NULL,Konkurrent,mshindani,s,msemaji,mvutaji,kipukusa,NA,qt,NA,3,NA,NA,NA,NA,NA,NA,NA,NA,NA,NA,NA,NA,NA,NA,NA,NA,NA,NA,NA
d8175,task,flow.Sequence,3_0_3_0_3,NA,NA,completion,9815.12,644226,644218.14,644234.7,654049.82,654054,2024-06-02T09:21:17Z,654066.06,NULL,Konkurrent,mshindani,s,msemaji,mvutaji,kipukusa,NA,qt,NA,3,NA,NA,NA,NA,NA,NA,NA,NA,NA,NA,NA,NA,NA,NA,NA,NA,NA,NA,NA
d8175,deep,flow.Sequence,3_0_3_0_4_0,NA,NA,skipped,NA,654054,NA,NA,654049.82,654055,2024-06-02T09:21:17Z,654066.06,NULL,Lawine,banguko,s,maambukizi,usuluhishi,chekechea,NA,qt,NA,3,NA,NA,NA,NA,NA,NA,NA,NA,NA,NA,NA,NA,NA,NA,NA,NA,NA,NA,NA
d8175,Shallow Question,html.Page,3_0_3_0_4_1_0,NA,NA,form submission,5491.9399999999,654055,654049.82,654066.06,659558,659558,2024-06-02T09:21:22Z,659567.68,NULL,Lawine,banguko,s,maambukizi,usuluhishi,chekechea,banguko,NA,NA,3,NA,NA,NA,NA,NA,NA,NA,NA,NA,NA,NA,NA,NA,NA,NA,NA,NA,NA,NA
d8175,"""Richtig""-Screen",canvas.Screen,3_0_3_0_4_1_1,NA,NA,timeout,4997.0199999999,659560,659554.68,659567.68,664548.32,664550,2024-06-02T09:21:27Z,664564.7,NULL,Lawine,banguko,s,maambukizi,usuluhishi,chekechea,NA,qt,1,3,NA,NA,NA,NA,NA,NA,NA,NA,NA,NA,NA,NA,NA,NA,NA,NA,NA,NA,NA
d8175,"""Falsch""-Screen",canvas.Screen,3_0_3_0_4_1_2,NA,NA,skipped,NA,664551,NA,NA,664548.32,664552,2024-06-02T09:21:27Z,664564.7,NULL,Lawine,banguko,s,maambukizi,usuluhishi,chekechea,NA,qt,NA,3,NA,NA,NA,NA,NA,NA,NA,NA,NA,NA,NA,NA,NA,NA,NA,NA,NA,NA,NA
d8175,shallow,flow.Sequence,3_0_3_0_4_1,NA,NA,completion,10482.26,654055,654049.82,654066.06,664548.32,664552,2024-06-02T09:21:27Z,664564.7,NULL,Lawine,banguko,s,maambukizi,usuluhishi,chekechea,NA,qt,NA,3,NA,NA,NA,NA,NA,NA,NA,NA,NA,NA,NA,NA,NA,NA,NA,NA,NA,NA,NA
d8175,task,flow.Sequence,3_0_3_0_4,NA,NA,completion,10482.26,654054,654049.82,654066.06,664548.32,664552,2024-06-02T09:21:27Z,664564.7,NULL,Lawine,banguko,s,maambukizi,usuluhishi,chekechea,NA,qt,NA,3,NA,NA,NA,NA,NA,NA,NA,NA,NA,NA,NA,NA,NA,NA,NA,NA,NA,NA,NA
d8175,Deep Question,html.Page,3_0_3_0_5_0_0,NA,NA,form submission,5958.3,664552,664548.32,664564.7,670523,670523,2024-06-02T09:21:33Z,670532.14,NULL,Übersicht,kilindo,d,NA,NA,NA,kilindo,NA,NA,3,NA,NA,NA,NA,NA,NA,NA,NA,NA,NA,NA,NA,NA,NA,NA,NA,NA,NA,NA
d8175,"""Richtig""-Screen",canvas.Screen,3_0_3_0_5_0_1,NA,NA,timeout,4997.5599999999,670525,670521.96,670532.14,675512.88,675514,2024-06-02T09:21:38Z,675529.7,NULL,Übersicht,kilindo,d,NA,NA,NA,NA,qt,1,3,NA,NA,NA,NA,NA,NA,NA,NA,NA,NA,NA,NA,NA,NA,NA,NA,NA,NA,NA
d8175,"""Falsch""-Screen",canvas.Screen,3_0_3_0_5_0_2,NA,NA,skipped,NA,675516,NA,NA,675512.88,675517,2024-06-02T09:21:38Z,675529.7,NULL,Übersicht,kilindo,d,NA,NA,NA,NA,qt,NA,3,NA,NA,NA,NA,NA,NA,NA,NA,NA,NA,NA,NA,NA,NA,NA,NA,NA,NA,NA
d8175,deep,flow.Sequence,3_0_3_0_5_0,NA,NA,completion,10948.18,664552,664548.32,664564.7,675512.88,675517,2024-06-02T09:21:38Z,675529.7,NULL,Übersicht,kilindo,d,NA,NA,NA,NA,qt,NA,3,NA,NA,NA,NA,NA,NA,NA,NA,NA,NA,NA,NA,NA,NA,NA,NA,NA,NA,NA
d8175,shallow,flow.Sequence,3_0_3_0_5_1,NA,NA,skipped,NA,675517,NA,NA,675512.88,675517,2024-06-02T09:21:38Z,675529.7,NULL,Übersicht,kilindo,d,NA,NA,NA,NA,qt,NA,3,NA,NA,NA,NA,NA,NA,NA,NA,NA,NA,NA,NA,NA,NA,NA,NA,NA,NA,NA
d8175,task,flow.Sequence,3_0_3_0_5,NA,NA,completion,10948.18,664552,664548.32,664564.7,675512.88,675517,2024-06-02T09:21:38Z,675529.7,NULL,Übersicht,kilindo,d,NA,NA,NA,NA,qt,NA,3,NA,NA,NA,NA,NA,NA,NA,NA,NA,NA,NA,NA,NA,NA,NA,NA,NA,NA,NA
d8175,Deep Question,html.Page,3_0_3_0_6_0_0,NA,NA,form submission,36492.3,675517,675512.88,675529.7,712022,712023,2024-06-02T09:22:15Z,712032.6,NULL,Zuwachs,nyongeza,d,NA,NA,NA,bfbff,NA,NA,3,NA,NA,NA,NA,NA,NA,NA,NA,NA,NA,NA,NA,NA,NA,NA,NA,NA,NA,NA
d8175,"""Richtig""-Screen",canvas.Screen,3_0_3_0_6_0_1,NA,NA,skipped,NA,712030,NA,NA,712022,712031,2024-06-02T09:22:15Z,712032.6,NULL,Zuwachs,nyongeza,d,NA,NA,NA,NA,qt,NA,3,NA,NA,NA,NA,NA,NA,NA,NA,NA,NA,NA,NA,NA,NA,NA,NA,NA,NA,NA
d8175,"""Falsch""-Screen",canvas.Screen,3_0_3_0_6_0_2,NA,NA,timeout,4995.5600000001,712033,712016.1,712032.6,717011.76,717014,2024-06-02T09:22:20Z,717028.16,NULL,Zuwachs,nyongeza,d,NA,NA,NA,NA,qt,0,3,NA,NA,NA,NA,NA,NA,NA,NA,NA,NA,NA,NA,NA,NA,NA,NA,NA,NA,NA
d8175,deep,flow.Sequence,3_0_3_0_6_0,NA,NA,completion,41482.06,675517,675512.88,675529.7,717011.76,717014,2024-06-02T09:22:20Z,717028.16,NULL,Zuwachs,nyongeza,d,NA,NA,NA,NA,qt,NA,3,NA,NA,NA,NA,NA,NA,NA,NA,NA,NA,NA,NA,NA,NA,NA,NA,NA,NA,NA
d8175,shallow,flow.Sequence,3_0_3_0_6_1,NA,NA,skipped,NA,717014,NA,NA,717011.76,717014,2024-06-02T09:22:20Z,717028.16,NULL,Zuwachs,nyongeza,d,NA,NA,NA,NA,qt,NA,3,NA,NA,NA,NA,NA,NA,NA,NA,NA,NA,NA,NA,NA,NA,NA,NA,NA,NA,NA
d8175,task,flow.Sequence,3_0_3_0_6,NA,NA,completion,41482.06,675517,675512.88,675529.7,717011.76,717015,2024-06-02T09:22:20Z,717028.16,NULL,Zuwachs,nyongeza,d,NA,NA,NA,NA,qt,NA,3,NA,NA,NA,NA,NA,NA,NA,NA,NA,NA,NA,NA,NA,NA,NA,NA,NA,NA,NA
d8175,Deep Question,html.Page,3_0_3_0_7_0_0,NA,NA,form submission,3167.84,717015,717011.76,717028.16,720196,720196,2024-06-02T09:22:23Z,720194.24,NULL,Symbol,kielezo,d,NA,NA,NA,fhdhdh,NA,NA,3,NA,NA,NA,NA,NA,NA,NA,NA,NA,NA,NA,NA,NA,NA,NA,NA,NA,NA,NA
d8175,"""Richtig""-Screen",canvas.Screen,3_0_3_0_7_0_1,NA,NA,skipped,NA,720197,NA,NA,720196,720197,2024-06-02T09:22:23Z,720194.24,NULL,Symbol,kielezo,d,NA,NA,NA,NA,qt,NA,3,NA,NA,NA,NA,NA,NA,NA,NA,NA,NA,NA,NA,NA,NA,NA,NA,NA,NA,NA
d8175,"""Falsch""-Screen",canvas.Screen,3_0_3_0_7_0_2,NA,NA,timeout,5004.6,720199,720192.06,720194.24,725182.46,725184,2024-06-02T09:22:28Z,725198.84,NULL,Symbol,kielezo,d,NA,NA,NA,NA,qt,0,3,NA,NA,NA,NA,NA,NA,NA,NA,NA,NA,NA,NA,NA,NA,NA,NA,NA,NA,NA
d8175,deep,flow.Sequence,3_0_3_0_7_0,NA,NA,completion,8154.2999999999,717015,717011.76,717028.16,725182.46,725185,2024-06-02T09:22:28Z,725198.84,NULL,Symbol,kielezo,d,NA,NA,NA,NA,qt,NA,3,NA,NA,NA,NA,NA,NA,NA,NA,NA,NA,NA,NA,NA,NA,NA,NA,NA,NA,NA
d8175,shallow,flow.Sequence,3_0_3_0_7_1,NA,NA,skipped,NA,725185,NA,NA,725182.46,725185,2024-06-02T09:22:28Z,725198.84,NULL,Symbol,kielezo,d,NA,NA,NA,NA,qt,NA,3,NA,NA,NA,NA,NA,NA,NA,NA,NA,NA,NA,NA,NA,NA,NA,NA,NA,NA,NA
d8175,task,flow.Sequence,3_0_3_0_7,NA,NA,completion,8154.2999999999,717015,717011.76,717028.16,725182.46,725185,2024-06-02T09:22:28Z,725198.84,NULL,Symbol,kielezo,d,NA,NA,NA,NA,qt,NA,3,NA,NA,NA,NA,NA,NA,NA,NA,NA,NA,NA,NA,NA,NA,NA,NA,NA,NA,NA
d8175,block,flow.Loop,3_0_3_0,NA,NA,completion,112865.48,612316,612316.12,612316.98,725182.46,725186,2024-06-02T09:22:28Z,725198.84,NULL,NA,NA,NA,NA,NA,NA,NA,qt,NA,3,NA,NA,NA,NA,NA,NA,NA,NA,NA,NA,NA,NA,NA,NA,NA,NA,NA,NA,NA
d8175,weiter,canvas.Screen,3_0_3_1,sdf,keypress(Space),response,1430.16,725186,725182.46,725198.84,726629,726637,2024-06-02T09:22:29Z,726683.78,NULL,NA,NA,NA,NA,NA,NA,NA,qt,NA,3,NA,NA,NA,NA,NA,NA,NA,NA,NA,NA,NA,NA,NA,NA,NA,NA,NA,NA,NA
d8175,check continue,flow.Sequence,3_0_3,NA,NA,completion,114312.02,612316,612316.12,612316.98,726629,726638,2024-06-02T09:22:29Z,726683.78,NULL,NA,NA,NA,NA,NA,NA,NA,qt,NA,3,NA,NA,NA,NA,NA,NA,NA,NA,NA,NA,NA,NA,NA,NA,NA,NA,NA,NA,NA
d8175,Deep Question,html.Page,3_0_4_0_0_0_0,NA,NA,form submission,8962.22,726681,726681.76,726683.78,735646,735646,2024-06-02T09:22:38Z,735652.06,NULL,Körper,kiwiliwili,d,NA,NA,NA,kiwiliwili,NA,NA,4,NA,NA,NA,NA,NA,NA,NA,NA,NA,NA,NA,NA,NA,NA,NA,NA,NA,NA,NA
d8175,"""Richtig""-Screen",canvas.Screen,3_0_4_0_0_0_1,NA,NA,timeout,5000.5199999999,735648,735644.78,735652.06,740635.98,740637,2024-06-02T09:22:43Z,740652.58,NULL,Körper,kiwiliwili,d,NA,NA,NA,NA,sd,1,4,NA,NA,NA,NA,NA,NA,NA,NA,NA,NA,NA,NA,NA,NA,NA,NA,NA,NA,NA
d8175,"""Falsch""-Screen",canvas.Screen,3_0_4_0_0_0_2,NA,NA,skipped,NA,740639,NA,NA,740635.98,740639,2024-06-02T09:22:43Z,740652.58,NULL,Körper,kiwiliwili,d,NA,NA,NA,NA,sd,NA,4,NA,NA,NA,NA,NA,NA,NA,NA,NA,NA,NA,NA,NA,NA,NA,NA,NA,NA,NA
d8175,deep,flow.Sequence,3_0_4_0_0_0,NA,NA,completion,13952.2,726681,726681.76,726683.78,740635.98,740639,2024-06-02T09:22:43Z,740652.58,NULL,Körper,kiwiliwili,d,NA,NA,NA,NA,sd,NA,4,NA,NA,NA,NA,NA,NA,NA,NA,NA,NA,NA,NA,NA,NA,NA,NA,NA,NA,NA
d8175,shallow,flow.Sequence,3_0_4_0_0_1,NA,NA,skipped,NA,740639,NA,NA,740635.98,740639,2024-06-02T09:22:43Z,740652.58,NULL,Körper,kiwiliwili,d,NA,NA,NA,NA,sd,NA,4,NA,NA,NA,NA,NA,NA,NA,NA,NA,NA,NA,NA,NA,NA,NA,NA,NA,NA,NA
d8175,task,flow.Sequence,3_0_4_0_0,NA,NA,completion,13952.2,726681,726681.76,726683.78,740635.98,740639,2024-06-02T09:22:43Z,740652.58,NULL,Körper,kiwiliwili,d,NA,NA,NA,NA,sd,NA,4,NA,NA,NA,NA,NA,NA,NA,NA,NA,NA,NA,NA,NA,NA,NA,NA,NA,NA,NA
d8175,Deep Question,html.Page,3_0_4_0_1_0_0,NA,NA,form submission,5174.42,740640,740635.98,740652.58,745827,745827,2024-06-02T09:22:48Z,745825,NULL,Übersicht,kilindo,d,NA,NA,NA,kilindo,NA,NA,4,NA,NA,NA,NA,NA,NA,NA,NA,NA,NA,NA,NA,NA,NA,NA,NA,NA,NA,NA
d8175,"""Richtig""-Screen",canvas.Screen,3_0_4_0_1_0_1,NA,NA,timeout,4998.52,745828,745824.58,745825,750807.2,750809,2024-06-02T09:22:53Z,750823.52,NULL,Übersicht,kilindo,d,NA,NA,NA,NA,sd,1,4,NA,NA,NA,NA,NA,NA,NA,NA,NA,NA,NA,NA,NA,NA,NA,NA,NA,NA,NA
d8175,"""Falsch""-Screen",canvas.Screen,3_0_4_0_1_0_2,NA,NA,skipped,NA,750811,NA,NA,750807.2,750811,2024-06-02T09:22:53Z,750823.52,NULL,Übersicht,kilindo,d,NA,NA,NA,NA,sd,NA,4,NA,NA,NA,NA,NA,NA,NA,NA,NA,NA,NA,NA,NA,NA,NA,NA,NA,NA,NA
d8175,deep,flow.Sequence,3_0_4_0_1_0,NA,NA,completion,10154.62,740640,740635.98,740652.58,750807.2,750812,2024-06-02T09:22:53Z,750823.52,NULL,Übersicht,kilindo,d,NA,NA,NA,NA,sd,NA,4,NA,NA,NA,NA,NA,NA,NA,NA,NA,NA,NA,NA,NA,NA,NA,NA,NA,NA,NA
d8175,shallow,flow.Sequence,3_0_4_0_1_1,NA,NA,skipped,NA,750812,NA,NA,750807.2,750812,2024-06-02T09:22:53Z,750823.52,NULL,Übersicht,kilindo,d,NA,NA,NA,NA,sd,NA,4,NA,NA,NA,NA,NA,NA,NA,NA,NA,NA,NA,NA,NA,NA,NA,NA,NA,NA,NA
d8175,task,flow.Sequence,3_0_4_0_1,NA,NA,completion,10154.62,740639,740635.98,740652.58,750807.2,750812,2024-06-02T09:22:53Z,750823.52,NULL,Übersicht,kilindo,d,NA,NA,NA,NA,sd,NA,4,NA,NA,NA,NA,NA,NA,NA,NA,NA,NA,NA,NA,NA,NA,NA,NA,NA,NA,NA
d8175,deep,flow.Sequence,3_0_4_0_2_0,NA,NA,skipped,NA,750812,NA,NA,750807.2,750812,2024-06-02T09:22:53Z,750823.52,NULL,Konkurrent,mshindani,s,msemaji,mvutaji,kipukusa,NA,sd,NA,4,NA,NA,NA,NA,NA,NA,NA,NA,NA,NA,NA,NA,NA,NA,NA,NA,NA,NA,NA
d8175,Shallow Question,html.Page,3_0_4_0_2_1_0,NA,NA,form submission,7570.48,750812,750807.2,750823.52,758394,758396,2024-06-02T09:23:01Z,758399.72,NULL,Konkurrent,mshindani,s,msemaji,mvutaji,kipukusa,mshindani,NA,NA,4,NA,NA,NA,NA,NA,NA,NA,NA,NA,NA,NA,NA,NA,NA,NA,NA,NA,NA,NA
d8175,"""Richtig""-Screen",canvas.Screen,3_0_4_0_2_1_1,NA,NA,timeout,4994.48,758403,758389.06,758399.72,763377.54,763380,2024-06-02T09:23:06Z,763394.2,NULL,Konkurrent,mshindani,s,msemaji,mvutaji,kipukusa,NA,sd,1,4,NA,NA,NA,NA,NA,NA,NA,NA,NA,NA,NA,NA,NA,NA,NA,NA,NA,NA,NA
d8175,"""Falsch""-Screen",canvas.Screen,3_0_4_0_2_1_2,NA,NA,skipped,NA,763383,NA,NA,763377.54,763383,2024-06-02T09:23:06Z,763394.2,NULL,Konkurrent,mshindani,s,msemaji,mvutaji,kipukusa,NA,sd,NA,4,NA,NA,NA,NA,NA,NA,NA,NA,NA,NA,NA,NA,NA,NA,NA,NA,NA,NA,NA
d8175,shallow,flow.Sequence,3_0_4_0_2_1,NA,NA,completion,12554.02,750812,750807.2,750823.52,763377.54,763384,2024-06-02T09:23:06Z,763394.2,NULL,Konkurrent,mshindani,s,msemaji,mvutaji,kipukusa,NA,sd,NA,4,NA,NA,NA,NA,NA,NA,NA,NA,NA,NA,NA,NA,NA,NA,NA,NA,NA,NA,NA
d8175,task,flow.Sequence,3_0_4_0_2,NA,NA,completion,12554.02,750812,750807.2,750823.52,763377.54,763384,2024-06-02T09:23:06Z,763394.2,NULL,Konkurrent,mshindani,s,msemaji,mvutaji,kipukusa,NA,sd,NA,4,NA,NA,NA,NA,NA,NA,NA,NA,NA,NA,NA,NA,NA,NA,NA,NA,NA,NA,NA
d8175,deep,flow.Sequence,3_0_4_0_3_0,NA,NA,skipped,NA,763384,NA,NA,763377.54,763384,2024-06-02T09:23:06Z,763394.2,NULL,Lawine,banguko,s,maambukizi,usuluhishi,chekechea,NA,sd,NA,4,NA,NA,NA,NA,NA,NA,NA,NA,NA,NA,NA,NA,NA,NA,NA,NA,NA,NA,NA
d8175,Shallow Question,html.Page,3_0_4_0_3_1_0,NA,NA,form submission,8834.8,763385,763377.54,763394.2,772229,772230,2024-06-02T09:23:15Z,772236.9,NULL,Lawine,banguko,s,maambukizi,usuluhishi,chekechea,banguko,NA,NA,4,NA,NA,NA,NA,NA,NA,NA,NA,NA,NA,NA,NA,NA,NA,NA,NA,NA,NA,NA
d8175,"""Richtig""-Screen",canvas.Screen,3_0_4_0_3_1_1,NA,NA,timeout,5008.28,772232,772226.62,772236.9,777228.64,777230,2024-06-02T09:23:20Z,777245.18,NULL,Lawine,banguko,s,maambukizi,usuluhishi,chekechea,NA,sd,1,4,NA,NA,NA,NA,NA,NA,NA,NA,NA,NA,NA,NA,NA,NA,NA,NA,NA,NA,NA
d8175,"""Falsch""-Screen",canvas.Screen,3_0_4_0_3_1_2,NA,NA,skipped,NA,777233,NA,NA,777228.64,777233,2024-06-02T09:23:20Z,777245.18,NULL,Lawine,banguko,s,maambukizi,usuluhishi,chekechea,NA,sd,NA,4,NA,NA,NA,NA,NA,NA,NA,NA,NA,NA,NA,NA,NA,NA,NA,NA,NA,NA,NA
d8175,shallow,flow.Sequence,3_0_4_0_3_1,NA,NA,completion,13834.44,763384,763377.54,763394.2,777228.64,777234,2024-06-02T09:23:20Z,777245.18,NULL,Lawine,banguko,s,maambukizi,usuluhishi,chekechea,NA,sd,NA,4,NA,NA,NA,NA,NA,NA,NA,NA,NA,NA,NA,NA,NA,NA,NA,NA,NA,NA,NA
d8175,task,flow.Sequence,3_0_4_0_3,NA,NA,completion,13834.44,763384,763377.54,763394.2,777228.64,777234,2024-06-02T09:23:20Z,777245.18,NULL,Lawine,banguko,s,maambukizi,usuluhishi,chekechea,NA,sd,NA,4,NA,NA,NA,NA,NA,NA,NA,NA,NA,NA,NA,NA,NA,NA,NA,NA,NA,NA,NA
d8175,Deep Question,html.Page,3_0_4_0_4_0_0,NA,NA,form submission,46708.82,777235,777228.64,777245.18,823954,823956,2024-06-02T09:24:07Z,823966.26,NULL,Zuwachs,nyongeza,d,NA,NA,NA,bgfcgdh,NA,NA,4,NA,NA,NA,NA,NA,NA,NA,NA,NA,NA,NA,NA,NA,NA,NA,NA,NA,NA,NA
d8175,"""Richtig""-Screen",canvas.Screen,3_0_4_0_4_0_1,NA,NA,skipped,NA,823962,NA,NA,823954,823962,2024-06-02T09:24:07Z,823966.26,NULL,Zuwachs,nyongeza,d,NA,NA,NA,NA,sd,NA,4,NA,NA,NA,NA,NA,NA,NA,NA,NA,NA,NA,NA,NA,NA,NA,NA,NA,NA,NA
d8175,"""Falsch""-Screen",canvas.Screen,3_0_4_0_4_0_2,NA,NA,timeout,5002.24,823964,823948.28,823966.26,828951.8,828953,2024-06-02T09:24:12Z,828968.5,NULL,Zuwachs,nyongeza,d,NA,NA,NA,NA,sd,0,4,NA,NA,NA,NA,NA,NA,NA,NA,NA,NA,NA,NA,NA,NA,NA,NA,NA,NA,NA
d8175,deep,flow.Sequence,3_0_4_0_4_0,NA,NA,completion,51706.62,777235,777228.64,777245.18,828951.8,828954,2024-06-02T09:24:12Z,828968.5,NULL,Zuwachs,nyongeza,d,NA,NA,NA,NA,sd,NA,4,NA,NA,NA,NA,NA,NA,NA,NA,NA,NA,NA,NA,NA,NA,NA,NA,NA,NA,NA
d8175,shallow,flow.Sequence,3_0_4_0_4_1,NA,NA,skipped,NA,828955,NA,NA,828951.8,828955,2024-06-02T09:24:12Z,828968.5,NULL,Zuwachs,nyongeza,d,NA,NA,NA,NA,sd,NA,4,NA,NA,NA,NA,NA,NA,NA,NA,NA,NA,NA,NA,NA,NA,NA,NA,NA,NA,NA
d8175,task,flow.Sequence,3_0_4_0_4,NA,NA,completion,51706.62,777235,777228.64,777245.18,828951.8,828955,2024-06-02T09:24:12Z,828968.5,NULL,Zuwachs,nyongeza,d,NA,NA,NA,NA,sd,NA,4,NA,NA,NA,NA,NA,NA,NA,NA,NA,NA,NA,NA,NA,NA,NA,NA,NA,NA,NA
d8175,Deep Question,html.Page,3_0_4_0_5_0_0,NA,NA,form submission,17391.5,828955,828951.8,828968.5,846360,846361,2024-06-02T09:24:29Z,846366.8,NULL,Symbol,kielezo,d,NA,NA,NA,cmfjfjk,NA,NA,4,NA,NA,NA,NA,NA,NA,NA,NA,NA,NA,NA,NA,NA,NA,NA,NA,NA,NA,NA
d8175,"""Richtig""-Screen",canvas.Screen,3_0_4_0_5_0_1,NA,NA,skipped,NA,846363,NA,NA,846360,846363,2024-06-02T09:24:29Z,846366.8,NULL,Symbol,kielezo,d,NA,NA,NA,NA,sd,NA,4,NA,NA,NA,NA,NA,NA,NA,NA,NA,NA,NA,NA,NA,NA,NA,NA,NA,NA,NA
d8175,"""Falsch""-Screen",canvas.Screen,3_0_4_0_5_0_2,NA,NA,timeout,4991.74,846364,846359.54,846366.8,851342.12,851344,2024-06-02T09:24:34Z,851358.54,NULL,Symbol,kielezo,d,NA,NA,NA,NA,sd,0,4,NA,NA,NA,NA,NA,NA,NA,NA,NA,NA,NA,NA,NA,NA,NA,NA,NA,NA,NA
d8175,deep,flow.Sequence,3_0_4_0_5_0,NA,NA,completion,22373.62,828955,828951.8,828968.5,851342.12,851344,2024-06-02T09:24:34Z,851358.54,NULL,Symbol,kielezo,d,NA,NA,NA,NA,sd,NA,4,NA,NA,NA,NA,NA,NA,NA,NA,NA,NA,NA,NA,NA,NA,NA,NA,NA,NA,NA
d8175,shallow,flow.Sequence,3_0_4_0_5_1,NA,NA,skipped,NA,851344,NA,NA,851342.12,851345,2024-06-02T09:24:34Z,851358.54,NULL,Symbol,kielezo,d,NA,NA,NA,NA,sd,NA,4,NA,NA,NA,NA,NA,NA,NA,NA,NA,NA,NA,NA,NA,NA,NA,NA,NA,NA,NA
d8175,task,flow.Sequence,3_0_4_0_5,NA,NA,completion,22373.62,828955,828951.8,828968.5,851342.12,851345,2024-06-02T09:24:34Z,851358.54,NULL,Symbol,kielezo,d,NA,NA,NA,NA,sd,NA,4,NA,NA,NA,NA,NA,NA,NA,NA,NA,NA,NA,NA,NA,NA,NA,NA,NA,NA,NA
d8175,deep,flow.Sequence,3_0_4_0_6_0,NA,NA,skipped,NA,851345,NA,NA,851342.12,851345,2024-06-02T09:24:34Z,851358.54,NULL,Vorsorge,tahadhari,s,ufafanuzi,makini,mashambani,NA,sd,NA,4,NA,NA,NA,NA,NA,NA,NA,NA,NA,NA,NA,NA,NA,NA,NA,NA,NA,NA,NA
d8175,Shallow Question,html.Page,3_0_4_0_6_1_0,NA,NA,form submission,4873.46,851345,851342.12,851358.54,856232,856232,2024-06-02T09:24:39Z,856245.02,NULL,Vorsorge,tahadhari,s,ufafanuzi,makini,mashambani,tahadhari,NA,NA,4,NA,NA,NA,NA,NA,NA,NA,NA,NA,NA,NA,NA,NA,NA,NA,NA,NA,NA,NA
d8175,"""Richtig""-Screen",canvas.Screen,3_0_4_0_6_1_1,NA,NA,timeout,4995.38,856234,856228.66,856245.02,861223.84,861225,2024-06-02T09:24:44Z,861240.4,NULL,Vorsorge,tahadhari,s,ufafanuzi,makini,mashambani,NA,sd,1,4,NA,NA,NA,NA,NA,NA,NA,NA,NA,NA,NA,NA,NA,NA,NA,NA,NA,NA,NA
d8175,"""Falsch""-Screen",canvas.Screen,3_0_4_0_6_1_2,NA,NA,skipped,NA,861227,NA,NA,861223.84,861227,2024-06-02T09:24:44Z,861240.4,NULL,Vorsorge,tahadhari,s,ufafanuzi,makini,mashambani,NA,sd,NA,4,NA,NA,NA,NA,NA,NA,NA,NA,NA,NA,NA,NA,NA,NA,NA,NA,NA,NA,NA
d8175,shallow,flow.Sequence,3_0_4_0_6_1,NA,NA,completion,9865.2999999999,851345,851342.12,851358.54,861223.84,861227,2024-06-02T09:24:44Z,861240.4,NULL,Vorsorge,tahadhari,s,ufafanuzi,makini,mashambani,NA,sd,NA,4,NA,NA,NA,NA,NA,NA,NA,NA,NA,NA,NA,NA,NA,NA,NA,NA,NA,NA,NA
d8175,task,flow.Sequence,3_0_4_0_6,NA,NA,completion,9865.2999999999,851345,851342.12,851358.54,861223.84,861227,2024-06-02T09:24:44Z,861240.4,NULL,Vorsorge,tahadhari,s,ufafanuzi,makini,mashambani,NA,sd,NA,4,NA,NA,NA,NA,NA,NA,NA,NA,NA,NA,NA,NA,NA,NA,NA,NA,NA,NA,NA
d8175,deep,flow.Sequence,3_0_4_0_7_0,NA,NA,skipped,NA,861228,NA,NA,861223.84,861228,2024-06-02T09:24:44Z,861240.4,NULL,System,maongozi,s,chokochoko,nuksani,mitaani,NA,sd,NA,4,NA,NA,NA,NA,NA,NA,NA,NA,NA,NA,NA,NA,NA,NA,NA,NA,NA,NA,NA
d8175,Shallow Question,html.Page,3_0_4_0_7_1_0,NA,NA,form submission,4224.6,861228,861223.84,861240.4,865465,865465,2024-06-02T09:24:48Z,865476.58,NULL,System,maongozi,s,chokochoko,nuksani,mitaani,maongozi,NA,NA,4,NA,NA,NA,NA,NA,NA,NA,NA,NA,NA,NA,NA,NA,NA,NA,NA,NA,NA,NA
d8175,"""Richtig""-Screen",canvas.Screen,3_0_4_0_7_1_1,NA,NA,timeout,5001.64,865466,865461.02,865476.58,870461.4,870462,2024-06-02T09:24:53Z,870478.22,NULL,System,maongozi,s,chokochoko,nuksani,mitaani,NA,sd,1,4,NA,NA,NA,NA,NA,NA,NA,NA,NA,NA,NA,NA,NA,NA,NA,NA,NA,NA,NA
d8175,"""Falsch""-Screen",canvas.Screen,3_0_4_0_7_1_2,NA,NA,skipped,NA,870464,NA,NA,870461.4,870464,2024-06-02T09:24:53Z,870478.22,NULL,System,maongozi,s,chokochoko,nuksani,mitaani,NA,sd,NA,4,NA,NA,NA,NA,NA,NA,NA,NA,NA,NA,NA,NA,NA,NA,NA,NA,NA,NA,NA
d8175,shallow,flow.Sequence,3_0_4_0_7_1,NA,NA,completion,9221,861228,861223.84,861240.4,870461.4,870464,2024-06-02T09:24:53Z,870478.22,NULL,System,maongozi,s,chokochoko,nuksani,mitaani,NA,sd,NA,4,NA,NA,NA,NA,NA,NA,NA,NA,NA,NA,NA,NA,NA,NA,NA,NA,NA,NA,NA
d8175,task,flow.Sequence,3_0_4_0_7,NA,NA,completion,9221,861228,861223.84,861240.4,870461.4,870465,2024-06-02T09:24:53Z,870478.22,NULL,System,maongozi,s,chokochoko,nuksani,mitaani,NA,sd,NA,4,NA,NA,NA,NA,NA,NA,NA,NA,NA,NA,NA,NA,NA,NA,NA,NA,NA,NA,NA
d8175,block,flow.Loop,3_0_4_0,NA,NA,completion,143777.62,726681,726681.76,726683.78,870461.4,870465,2024-06-02T09:24:53Z,870478.22,NULL,NA,NA,NA,NA,NA,NA,NA,sd,NA,4,NA,NA,NA,NA,NA,NA,NA,NA,NA,NA,NA,NA,NA,NA,NA,NA,NA,NA,NA
d8175,weiter,canvas.Screen,3_0_4_1,sdf,keypress(Space),response,1025.78,870465,870461.4,870478.22,871504,871514,2024-06-02T09:24:54Z,872371.62,NULL,NA,NA,NA,NA,NA,NA,NA,sd,NA,4,NA,NA,NA,NA,NA,NA,NA,NA,NA,NA,NA,NA,NA,NA,NA,NA,NA,NA,NA
d8175,check continue,flow.Sequence,3_0_4,NA,NA,completion,144820.22,726681,726681.76,726683.78,871504,871514,2024-06-02T09:24:54Z,872371.62,NULL,NA,NA,NA,NA,NA,NA,NA,sd,NA,4,NA,NA,NA,NA,NA,NA,NA,NA,NA,NA,NA,NA,NA,NA,NA,NA,NA,NA,NA
d8175,check continue,flow.Sequence,3_0_5,NA,NA,skipped,NA,871562,NA,NA,871504,871562,2024-06-02T09:24:54Z,872371.62,NULL,NA,NA,NA,NA,NA,NA,NA,sdf,NA,5,NA,NA,NA,NA,NA,NA,NA,NA,NA,NA,NA,NA,NA,NA,NA,NA,NA,NA,NA
d8175,check continue,flow.Sequence,3_0_6,NA,NA,skipped,NA,871596,NA,NA,871504,871596,2024-06-02T09:24:54Z,872371.62,NULL,NA,NA,NA,NA,NA,NA,NA,dfs,NA,6,NA,NA,NA,NA,NA,NA,NA,NA,NA,NA,NA,NA,NA,NA,NA,NA,NA,NA,NA
d8175,check continue,flow.Sequence,3_0_7,NA,NA,skipped,NA,871632,NA,NA,871504,871632,2024-06-02T09:24:54Z,872371.62,NULL,NA,NA,NA,NA,NA,NA,NA,df,NA,7,NA,NA,NA,NA,NA,NA,NA,NA,NA,NA,NA,NA,NA,NA,NA,NA,NA,NA,NA
d8175,check continue,flow.Sequence,3_0_8,NA,NA,skipped,NA,871665,NA,NA,871504,871665,2024-06-02T09:24:54Z,872371.62,NULL,NA,NA,NA,NA,NA,NA,NA,dfs,NA,8,NA,NA,NA,NA,NA,NA,NA,NA,NA,NA,NA,NA,NA,NA,NA,NA,NA,NA,NA
d8175,check continue,flow.Sequence,3_0_9,NA,NA,skipped,NA,871701,NA,NA,871504,871701,2024-06-02T09:24:54Z,872371.62,NULL,NA,NA,NA,NA,NA,NA,NA,dsf,NA,9,NA,NA,NA,NA,NA,NA,NA,NA,NA,NA,NA,NA,NA,NA,NA,NA,NA,NA,NA
d8175,check continue,flow.Sequence,3_0_10,NA,NA,skipped,NA,871730,NA,NA,871504,871730,2024-06-02T09:24:54Z,872371.62,NULL,NA,NA,NA,NA,NA,NA,NA,df,NA,10,NA,NA,NA,NA,NA,NA,NA,NA,NA,NA,NA,NA,NA,NA,NA,NA,NA,NA,NA
d8175,check continue,flow.Sequence,3_0_11,NA,NA,skipped,NA,871762,NA,NA,871504,871762,2024-06-02T09:24:54Z,872371.62,NULL,NA,NA,NA,NA,NA,NA,NA,dfs,NA,11,NA,NA,NA,NA,NA,NA,NA,NA,NA,NA,NA,NA,NA,NA,NA,NA,NA,NA,NA
d8175,check continue,flow.Sequence,3_0_12,NA,NA,skipped,NA,871790,NA,NA,871504,871790,2024-06-02T09:24:54Z,872371.62,NULL,NA,NA,NA,NA,NA,NA,NA,dsf,NA,12,NA,NA,NA,NA,NA,NA,NA,NA,NA,NA,NA,NA,NA,NA,NA,NA,NA,NA,NA
d8175,check continue,flow.Sequence,3_0_13,NA,NA,skipped,NA,871825,NA,NA,871504,871825,2024-06-02T09:24:54Z,872371.62,NULL,NA,NA,NA,NA,NA,NA,NA,dsf,NA,13,NA,NA,NA,NA,NA,NA,NA,NA,NA,NA,NA,NA,NA,NA,NA,NA,NA,NA,NA
d8175,check continue,flow.Sequence,3_0_14,NA,NA,skipped,NA,871854,NA,NA,871504,871854,2024-06-02T09:24:54Z,872371.62,NULL,NA,NA,NA,NA,NA,NA,NA,NA,NA,14,NA,NA,NA,NA,NA,NA,NA,NA,NA,NA,NA,NA,NA,NA,NA,NA,NA,NA,NA
d8175,check continue,flow.Sequence,3_0_15,NA,NA,skipped,NA,871882,NA,NA,871504,871882,2024-06-02T09:24:54Z,872371.62,NULL,NA,NA,NA,NA,NA,NA,NA,NA,NA,15,NA,NA,NA,NA,NA,NA,NA,NA,NA,NA,NA,NA,NA,NA,NA,NA,NA,NA,NA
d8175,check continue,flow.Sequence,3_0_16,NA,NA,skipped,NA,871913,NA,NA,871504,871913,2024-06-02T09:24:54Z,872371.62,NULL,NA,NA,NA,NA,NA,NA,NA,NA,NA,16,NA,NA,NA,NA,NA,NA,NA,NA,NA,NA,NA,NA,NA,NA,NA,NA,NA,NA,NA
d8175,check continue,flow.Sequence,3_0_17,NA,NA,skipped,NA,871941,NA,NA,871504,871941,2024-06-02T09:24:55Z,872371.62,NULL,NA,NA,NA,NA,NA,NA,NA,NA,NA,17,NA,NA,NA,NA,NA,NA,NA,NA,NA,NA,NA,NA,NA,NA,NA,NA,NA,NA,NA
d8175,check continue,flow.Sequence,3_0_18,NA,NA,skipped,NA,871970,NA,NA,871504,871970,2024-06-02T09:24:55Z,872371.62,NULL,NA,NA,NA,NA,NA,NA,NA,NA,NA,18,NA,NA,NA,NA,NA,NA,NA,NA,NA,NA,NA,NA,NA,NA,NA,NA,NA,NA,NA
d8175,check continue,flow.Sequence,3_0_19,NA,NA,skipped,NA,872004,NA,NA,871504,872004,2024-06-02T09:24:55Z,872371.62,NULL,NA,NA,NA,NA,NA,NA,NA,NA,NA,19,NA,NA,NA,NA,NA,NA,NA,NA,NA,NA,NA,NA,NA,NA,NA,NA,NA,NA,NA
d8175,check continue,flow.Sequence,3_0_20,NA,NA,skipped,NA,872037,NA,NA,871504,872037,2024-06-02T09:24:55Z,872371.62,NULL,NA,NA,NA,NA,NA,NA,NA,NA,NA,20,NA,NA,NA,NA,NA,NA,NA,NA,NA,NA,NA,NA,NA,NA,NA,NA,NA,NA,NA
d8175,check continue,flow.Sequence,3_0_21,NA,NA,skipped,NA,872064,NA,NA,871504,872064,2024-06-02T09:24:55Z,872371.62,NULL,NA,NA,NA,NA,NA,NA,NA,NA,NA,21,NA,NA,NA,NA,NA,NA,NA,NA,NA,NA,NA,NA,NA,NA,NA,NA,NA,NA,NA
d8175,check continue,flow.Sequence,3_0_22,NA,NA,skipped,NA,872091,NA,NA,871504,872091,2024-06-02T09:24:55Z,872371.62,NULL,NA,NA,NA,NA,NA,NA,NA,NA,NA,22,NA,NA,NA,NA,NA,NA,NA,NA,NA,NA,NA,NA,NA,NA,NA,NA,NA,NA,NA
d8175,check continue,flow.Sequence,3_0_23,NA,NA,skipped,NA,872121,NA,NA,871504,872122,2024-06-02T09:24:55Z,872371.62,NULL,NA,NA,NA,NA,NA,NA,NA,NA,NA,23,NA,NA,NA,NA,NA,NA,NA,NA,NA,NA,NA,NA,NA,NA,NA,NA,NA,NA,NA
d8175,check continue,flow.Sequence,3_0_24,NA,NA,skipped,NA,872152,NA,NA,871504,872152,2024-06-02T09:24:55Z,872371.62,NULL,NA,NA,NA,NA,NA,NA,NA,NA,NA,24,NA,NA,NA,NA,NA,NA,NA,NA,NA,NA,NA,NA,NA,NA,NA,NA,NA,NA,NA
d8175,check continue,flow.Sequence,3_0_25,NA,NA,skipped,NA,872228,NA,NA,871504,872228,2024-06-02T09:24:55Z,872371.62,NULL,NA,NA,NA,NA,NA,NA,NA,NA,NA,25,NA,NA,NA,NA,NA,NA,NA,NA,NA,NA,NA,NA,NA,NA,NA,NA,NA,NA,NA
d8175,check continue,flow.Sequence,3_0_26,NA,NA,skipped,NA,872264,NA,NA,871504,872265,2024-06-02T09:24:55Z,872371.62,NULL,NA,NA,NA,NA,NA,NA,NA,NA,NA,26,NA,NA,NA,NA,NA,NA,NA,NA,NA,NA,NA,NA,NA,NA,NA,NA,NA,NA,NA
d8175,check continue,flow.Sequence,3_0_27,NA,NA,skipped,NA,872300,NA,NA,871504,872300,2024-06-02T09:24:55Z,872371.62,NULL,NA,NA,NA,NA,NA,NA,NA,NA,NA,27,NA,NA,NA,NA,NA,NA,NA,NA,NA,NA,NA,NA,NA,NA,NA,NA,NA,NA,NA
d8175,check continue,flow.Sequence,3_0_28,NA,NA,skipped,NA,872346,NA,NA,871504,872346,2024-06-02T09:24:55Z,872371.62,NULL,NA,NA,NA,NA,NA,NA,NA,NA,NA,28,NA,NA,NA,NA,NA,NA,NA,NA,NA,NA,NA,NA,NA,NA,NA,NA,NA,NA,NA
d8175,check continue,flow.Sequence,3_0_29,NA,NA,skipped,NA,872370,NA,NA,871504,872370,2024-06-02T09:24:55Z,872371.62,NULL,NA,NA,NA,NA,NA,NA,NA,NA,NA,29,NA,NA,NA,NA,NA,NA,NA,NA,NA,NA,NA,NA,NA,NA,NA,NA,NA,NA,NA
d8175,until continue,flow.Loop,3_0,NA,NA,completion,547613.6,323855,323890.14,323890.4,871504,872370,2024-06-02T09:24:55Z,872371.62,NULL,NA,NA,NA,NA,NA,NA,NA,NA,NA,NA,NA,NA,NA,NA,NA,NA,NA,NA,NA,NA,NA,NA,NA,NA,NA,NA,NA,NA,NA
d8175,block 1,flow.Sequence,3,NA,NA,completion,547613.6,323855,323890.14,323890.4,871504,872370,2024-06-02T09:24:55Z,872371.62,NULL,NA,NA,NA,NA,NA,NA,NA,NA,NA,NA,NA,NA,NA,NA,NA,NA,NA,NA,NA,NA,NA,NA,NA,NA,NA,NA,NA,NA,NA
d8175,1.Part Over,canvas.Screen,4,NA,keypress(Space),response,1336.38,872371,872370.96,872371.62,873708,873731,2024-06-02T09:24:56Z,873793.64,NULL,NA,NA,NA,NA,NA,NA,NA,NA,NA,NA,NA,NA,NA,NA,NA,NA,NA,NA,NA,NA,NA,NA,NA,NA,NA,NA,NA,NA,NA
d8175,deep,flow.Sequence,5_0_0_0_0_0,NA,NA,skipped,NA,873793,NA,NA,873708,873793,2024-06-02T09:24:56Z,873793.64,NULL,Beweis,ushahidi,s,marudio,kizuizi,mtendaji,NA,sdf,NA,0,NA,NA,NA,NA,NA,NA,NA,NA,NA,NA,NA,NA,NA,NA,NA,NA,NA,NA,NA
d8175,Shallow Question,html.Page,5_0_0_0_0_1_0,NA,NA,form submission,3790.36,873793,873793.24,873793.64,877584,877584,2024-06-02T09:25:00Z,877590.1,NULL,Beweis,ushahidi,s,marudio,kizuizi,mtendaji,mtendaji,NA,NA,0,NA,NA,NA,NA,NA,NA,NA,NA,NA,NA,NA,NA,NA,NA,NA,NA,NA,NA,NA
d8175,"""Richtig""-Screen",canvas.Screen,5_0_0_0_0_1_1,NA,NA,skipped,NA,877586,NA,NA,877584,877586,2024-06-02T09:25:00Z,877590.1,NULL,Beweis,ushahidi,s,marudio,kizuizi,mtendaji,NA,sdf,NA,0,NA,NA,NA,NA,NA,NA,NA,NA,NA,NA,NA,NA,NA,NA,NA,NA,NA,NA,NA
d8175,"""Falsch""-Screen",canvas.Screen,5_0_0_0_0_1_2,NA,NA,timeout,4998.76,877586,877580.6,877590.1,882572.12,882576,2024-06-02T09:25:05Z,882588.86,NULL,Beweis,ushahidi,s,marudio,kizuizi,mtendaji,NA,sdf,0,0,NA,NA,NA,NA,NA,NA,NA,NA,NA,NA,NA,NA,NA,NA,NA,NA,NA,NA,NA
d8175,shallow,flow.Sequence,5_0_0_0_0_1,NA,NA,completion,8778.48,873793,873793.24,873793.64,882572.12,882576,2024-06-02T09:25:05Z,882588.86,NULL,Beweis,ushahidi,s,marudio,kizuizi,mtendaji,NA,sdf,NA,0,NA,NA,NA,NA,NA,NA,NA,NA,NA,NA,NA,NA,NA,NA,NA,NA,NA,NA,NA
d8175,task,flow.Sequence,5_0_0_0_0,NA,NA,completion,8778.48,873793,873793.24,873793.64,882572.12,882577,2024-06-02T09:25:05Z,882588.86,NULL,Beweis,ushahidi,s,marudio,kizuizi,mtendaji,NA,sdf,NA,0,NA,NA,NA,NA,NA,NA,NA,NA,NA,NA,NA,NA,NA,NA,NA,NA,NA,NA,NA
d8175,deep,flow.Sequence,5_0_0_0_1_0,NA,NA,skipped,NA,882577,NA,NA,882572.12,882578,2024-06-02T09:25:05Z,882588.86,NULL,Polizist,msongora,s,simanzi,mandhari,nidhamu,NA,sdf,NA,0,NA,NA,NA,NA,NA,NA,NA,NA,NA,NA,NA,NA,NA,NA,NA,NA,NA,NA,NA
d8175,Shallow Question,html.Page,5_0_0_0_1_1_0,NA,NA,form submission,8151.14,882578,882572.12,882588.86,890740,890741,2024-06-02T09:25:13Z,890737.92,NULL,Polizist,msongora,s,simanzi,mandhari,nidhamu,simanzi,NA,NA,0,NA,NA,NA,NA,NA,NA,NA,NA,NA,NA,NA,NA,NA,NA,NA,NA,NA,NA,NA
d8175,"""Richtig""-Screen",canvas.Screen,5_0_0_0_1_1_1,NA,NA,skipped,NA,890747,NA,NA,890740,890747,2024-06-02T09:25:13Z,890737.92,NULL,Polizist,msongora,s,simanzi,mandhari,nidhamu,NA,sdf,NA,0,NA,NA,NA,NA,NA,NA,NA,NA,NA,NA,NA,NA,NA,NA,NA,NA,NA,NA,NA
d8175,"""Falsch""-Screen",canvas.Screen,5_0_0_0_1_1_2,NA,NA,timeout,4996.6599999999,890748,890735.76,890737.92,895718.04,895720,2024-06-02T09:25:18Z,895734.58,NULL,Polizist,msongora,s,simanzi,mandhari,nidhamu,NA,sdf,0,0,NA,NA,NA,NA,NA,NA,NA,NA,NA,NA,NA,NA,NA,NA,NA,NA,NA,NA,NA
d8175,shallow,flow.Sequence,5_0_0_0_1_1,NA,NA,completion,13129.18,882578,882572.12,882588.86,895718.04,895720,2024-06-02T09:25:18Z,895734.58,NULL,Polizist,msongora,s,simanzi,mandhari,nidhamu,NA,sdf,NA,0,NA,NA,NA,NA,NA,NA,NA,NA,NA,NA,NA,NA,NA,NA,NA,NA,NA,NA,NA
d8175,task,flow.Sequence,5_0_0_0_1,NA,NA,completion,13129.18,882577,882572.12,882588.86,895718.04,895721,2024-06-02T09:25:18Z,895734.58,NULL,Polizist,msongora,s,simanzi,mandhari,nidhamu,NA,sdf,NA,0,NA,NA,NA,NA,NA,NA,NA,NA,NA,NA,NA,NA,NA,NA,NA,NA,NA,NA,NA
d8175,deep,flow.Sequence,5_0_0_0_2_0,NA,NA,skipped,NA,895722,NA,NA,895718.04,895722,2024-06-02T09:25:18Z,895734.58,NULL,Prüfung,mtihani,s,mkulima,mtizamo,ufumbuzi,NA,sdf,NA,0,NA,NA,NA,NA,NA,NA,NA,NA,NA,NA,NA,NA,NA,NA,NA,NA,NA,NA,NA
d8175,Shallow Question,html.Page,5_0_0_0_2_1_0,NA,NA,form submission,8903.42,895722,895718.04,895734.58,904638,904638,2024-06-02T09:25:27Z,904642.86,NULL,Prüfung,mtihani,s,mkulima,mtizamo,ufumbuzi,ufumbuzi,NA,NA,0,NA,NA,NA,NA,NA,NA,NA,NA,NA,NA,NA,NA,NA,NA,NA,NA,NA,NA,NA
d8175,"""Richtig""-Screen",canvas.Screen,5_0_0_0_2_1_1,NA,NA,skipped,NA,904640,NA,NA,904638,904640,2024-06-02T09:25:27Z,904642.86,NULL,Prüfung,mtihani,s,mkulima,mtizamo,ufumbuzi,NA,sdf,NA,0,NA,NA,NA,NA,NA,NA,NA,NA,NA,NA,NA,NA,NA,NA,NA,NA,NA,NA,NA
d8175,"""Falsch""-Screen",canvas.Screen,5_0_0_0_2_1_2,NA,NA,timeout,4995.6800000001,904642,904634.6,904642.86,909622.12,909623,2024-06-02T09:25:32Z,909638.54,NULL,Prüfung,mtihani,s,mkulima,mtizamo,ufumbuzi,NA,sdf,0,0,NA,NA,NA,NA,NA,NA,NA,NA,NA,NA,NA,NA,NA,NA,NA,NA,NA,NA,NA
d8175,shallow,flow.Sequence,5_0_0_0_2_1,NA,NA,completion,13887.54,895722,895718.04,895734.58,909622.12,909624,2024-06-02T09:25:32Z,909638.54,NULL,Prüfung,mtihani,s,mkulima,mtizamo,ufumbuzi,NA,sdf,NA,0,NA,NA,NA,NA,NA,NA,NA,NA,NA,NA,NA,NA,NA,NA,NA,NA,NA,NA,NA
d8175,task,flow.Sequence,5_0_0_0_2,NA,NA,completion,13887.54,895722,895718.04,895734.58,909622.12,909624,2024-06-02T09:25:32Z,909638.54,NULL,Prüfung,mtihani,s,mkulima,mtizamo,ufumbuzi,NA,sdf,NA,0,NA,NA,NA,NA,NA,NA,NA,NA,NA,NA,NA,NA,NA,NA,NA,NA,NA,NA,NA
d8175,Deep Question,html.Page,5_0_0_0_3_0_0,NA,NA,form submission,3606.46,909624,909622.12,909638.54,913245,913246,2024-06-02T09:25:36Z,913258.64,NULL,Annäherung,maegesho,d,NA,NA,NA,fdjhpgs,NA,NA,0,NA,NA,NA,NA,NA,NA,NA,NA,NA,NA,NA,NA,NA,NA,NA,NA,NA,NA,NA
d8175,"""Richtig""-Screen",canvas.Screen,5_0_0_0_3_0_1,NA,NA,skipped,NA,913248,NA,NA,913245,913248,2024-06-02T09:25:36Z,913258.64,NULL,Annäherung,maegesho,d,NA,NA,NA,NA,sdf,NA,0,NA,NA,NA,NA,NA,NA,NA,NA,NA,NA,NA,NA,NA,NA,NA,NA,NA,NA,NA
d8175,"""Falsch""-Screen",canvas.Screen,5_0_0_0_3_0_2,NA,NA,timeout,4991.72,913250,913242.26,913258.64,918233.88,918235,2024-06-02T09:25:41Z,918250.36,NULL,Annäherung,maegesho,d,NA,NA,NA,NA,sdf,0,0,NA,NA,NA,NA,NA,NA,NA,NA,NA,NA,NA,NA,NA,NA,NA,NA,NA,NA,NA
d8175,deep,flow.Sequence,5_0_0_0_3_0,NA,NA,completion,8595.34,909624,909622.12,909638.54,918233.88,918236,2024-06-02T09:25:41Z,918250.36,NULL,Annäherung,maegesho,d,NA,NA,NA,NA,sdf,NA,0,NA,NA,NA,NA,NA,NA,NA,NA,NA,NA,NA,NA,NA,NA,NA,NA,NA,NA,NA
d8175,shallow,flow.Sequence,5_0_0_0_3_1,NA,NA,skipped,NA,918236,NA,NA,918233.88,918236,2024-06-02T09:25:41Z,918250.36,NULL,Annäherung,maegesho,d,NA,NA,NA,NA,sdf,NA,0,NA,NA,NA,NA,NA,NA,NA,NA,NA,NA,NA,NA,NA,NA,NA,NA,NA,NA,NA
d8175,task,flow.Sequence,5_0_0_0_3,NA,NA,completion,8595.34,909624,909622.12,909638.54,918233.88,918236,2024-06-02T09:25:41Z,918250.36,NULL,Annäherung,maegesho,d,NA,NA,NA,NA,sdf,NA,0,NA,NA,NA,NA,NA,NA,NA,NA,NA,NA,NA,NA,NA,NA,NA,NA,NA,NA,NA
d8175,Deep Question,html.Page,5_0_0_0_4_0_0,NA,NA,form submission,4267.64,918236,918233.88,918250.36,922518,922519,2024-06-02T09:25:45Z,922517.48,NULL,Sympathie,mapendano,d,NA,NA,NA,vkfdsf,NA,NA,0,NA,NA,NA,NA,NA,NA,NA,NA,NA,NA,NA,NA,NA,NA,NA,NA,NA,NA,NA
d8175,"""Richtig""-Screen",canvas.Screen,5_0_0_0_4_0_1,NA,NA,skipped,NA,922522,NA,NA,922518,922522,2024-06-02T09:25:45Z,922517.48,NULL,Sympathie,mapendano,d,NA,NA,NA,NA,sdf,NA,0,NA,NA,NA,NA,NA,NA,NA,NA,NA,NA,NA,NA,NA,NA,NA,NA,NA,NA,NA
d8175,"""Falsch""-Screen",canvas.Screen,5_0_0_0_4_0_2,NA,NA,timeout,5003.12,922523,922517.2,922517.48,927503.98,927505,2024-06-02T09:25:50Z,927520.6,NULL,Sympathie,mapendano,d,NA,NA,NA,NA,sdf,0,0,NA,NA,NA,NA,NA,NA,NA,NA,NA,NA,NA,NA,NA,NA,NA,NA,NA,NA,NA
d8175,deep,flow.Sequence,5_0_0_0_4_0,NA,NA,completion,9253.62,918236,918233.88,918250.36,927503.98,927505,2024-06-02T09:25:50Z,927520.6,NULL,Sympathie,mapendano,d,NA,NA,NA,NA,sdf,NA,0,NA,NA,NA,NA,NA,NA,NA,NA,NA,NA,NA,NA,NA,NA,NA,NA,NA,NA,NA
d8175,shallow,flow.Sequence,5_0_0_0_4_1,NA,NA,skipped,NA,927505,NA,NA,927503.98,927505,2024-06-02T09:25:50Z,927520.6,NULL,Sympathie,mapendano,d,NA,NA,NA,NA,sdf,NA,0,NA,NA,NA,NA,NA,NA,NA,NA,NA,NA,NA,NA,NA,NA,NA,NA,NA,NA,NA
d8175,task,flow.Sequence,5_0_0_0_4,NA,NA,completion,9253.62,918236,918233.88,918250.36,927503.98,927505,2024-06-02T09:25:50Z,927520.6,NULL,Sympathie,mapendano,d,NA,NA,NA,NA,sdf,NA,0,NA,NA,NA,NA,NA,NA,NA,NA,NA,NA,NA,NA,NA,NA,NA,NA,NA,NA,NA
d8175,Deep Question,html.Page,5_0_0_0_5_0_0,NA,NA,form submission,4034.4,927505,927503.98,927520.6,931555,931556,2024-06-02T09:25:54Z,931567.76,NULL,Kultur,utamaduni,d,NA,NA,NA,sfbgjgfr,NA,NA,0,NA,NA,NA,NA,NA,NA,NA,NA,NA,NA,NA,NA,NA,NA,NA,NA,NA,NA,NA
d8175,"""Richtig""-Screen",canvas.Screen,5_0_0_0_5_0_1,NA,NA,skipped,NA,931557,NA,NA,931555,931558,2024-06-02T09:25:54Z,931567.76,NULL,Kultur,utamaduni,d,NA,NA,NA,NA,sdf,NA,0,NA,NA,NA,NA,NA,NA,NA,NA,NA,NA,NA,NA,NA,NA,NA,NA,NA,NA,NA
d8175,"""Falsch""-Screen",canvas.Screen,5_0_0_0_5_0_2,NA,NA,timeout,4993.9399999999,931559,931553.98,931567.76,936544.88,936545,2024-06-02T09:25:59Z,936561.7,NULL,Kultur,utamaduni,d,NA,NA,NA,NA,sdf,0,0,NA,NA,NA,NA,NA,NA,NA,NA,NA,NA,NA,NA,NA,NA,NA,NA,NA,NA,NA
d8175,deep,flow.Sequence,5_0_0_0_5_0,NA,NA,completion,9024.28,927505,927503.98,927520.6,936544.88,936545,2024-06-02T09:25:59Z,936561.7,NULL,Kultur,utamaduni,d,NA,NA,NA,NA,sdf,NA,0,NA,NA,NA,NA,NA,NA,NA,NA,NA,NA,NA,NA,NA,NA,NA,NA,NA,NA,NA
d8175,shallow,flow.Sequence,5_0_0_0_5_1,NA,NA,skipped,NA,936545,NA,NA,936544.88,936546,2024-06-02T09:25:59Z,936561.7,NULL,Kultur,utamaduni,d,NA,NA,NA,NA,sdf,NA,0,NA,NA,NA,NA,NA,NA,NA,NA,NA,NA,NA,NA,NA,NA,NA,NA,NA,NA,NA
d8175,task,flow.Sequence,5_0_0_0_5,NA,NA,completion,9024.28,927505,927503.98,927520.6,936544.88,936546,2024-06-02T09:25:59Z,936561.7,NULL,Kultur,utamaduni,d,NA,NA,NA,NA,sdf,NA,0,NA,NA,NA,NA,NA,NA,NA,NA,NA,NA,NA,NA,NA,NA,NA,NA,NA,NA,NA
d8175,deep,flow.Sequence,5_0_0_0_6_0,NA,NA,skipped,NA,936546,NA,NA,936544.88,936546,2024-06-02T09:25:59Z,936561.7,NULL,Aufstand,ugomaji,s,mazidio,msingi,kujieleza,NA,sdf,NA,0,NA,NA,NA,NA,NA,NA,NA,NA,NA,NA,NA,NA,NA,NA,NA,NA,NA,NA,NA
d8175,Shallow Question,html.Page,5_0_0_0_6_1_0,NA,NA,form submission,4930.3,936546,936544.88,936561.7,941492,941493,2024-06-02T09:26:04Z,941499.12,NULL,Aufstand,ugomaji,s,mazidio,msingi,kujieleza,msingi,NA,NA,0,NA,NA,NA,NA,NA,NA,NA,NA,NA,NA,NA,NA,NA,NA,NA,NA,NA,NA,NA
d8175,"""Richtig""-Screen",canvas.Screen,5_0_0_0_6_1_1,NA,NA,skipped,NA,941494,NA,NA,941492,941494,2024-06-02T09:26:04Z,941499.12,NULL,Aufstand,ugomaji,s,mazidio,msingi,kujieleza,NA,sdf,NA,0,NA,NA,NA,NA,NA,NA,NA,NA,NA,NA,NA,NA,NA,NA,NA,NA,NA,NA,NA
d8175,"""Falsch""-Screen",canvas.Screen,5_0_0_0_6_1_2,NA,NA,timeout,4997.02,941495,941489.18,941499.12,946479.72,946482,2024-06-02T09:26:09Z,946496.14,NULL,Aufstand,ugomaji,s,mazidio,msingi,kujieleza,NA,sdf,0,0,NA,NA,NA,NA,NA,NA,NA,NA,NA,NA,NA,NA,NA,NA,NA,NA,NA,NA,NA
d8175,shallow,flow.Sequence,5_0_0_0_6_1,NA,NA,completion,9918.02,936546,936544.88,936561.7,946479.72,946482,2024-06-02T09:26:09Z,946496.14,NULL,Aufstand,ugomaji,s,mazidio,msingi,kujieleza,NA,sdf,NA,0,NA,NA,NA,NA,NA,NA,NA,NA,NA,NA,NA,NA,NA,NA,NA,NA,NA,NA,NA
d8175,task,flow.Sequence,5_0_0_0_6,NA,NA,completion,9918.02,936546,936544.88,936561.7,946479.72,946482,2024-06-02T09:26:09Z,946496.14,NULL,Aufstand,ugomaji,s,mazidio,msingi,kujieleza,NA,sdf,NA,0,NA,NA,NA,NA,NA,NA,NA,NA,NA,NA,NA,NA,NA,NA,NA,NA,NA,NA,NA
d8175,Deep Question,html.Page,5_0_0_0_7_0_0,NA,NA,form submission,2355.86,946482,946479.72,946496.14,948852,948853,2024-06-02T09:26:11Z,948852.26,NULL,Verzögerung,kuchelewa,d,NA,NA,NA,vbkhalg,NA,NA,0,NA,NA,NA,NA,NA,NA,NA,NA,NA,NA,NA,NA,NA,NA,NA,NA,NA,NA,NA
d8175,"""Richtig""-Screen",canvas.Screen,5_0_0_0_7_0_1,NA,NA,skipped,NA,948854,NA,NA,948852,948854,2024-06-02T09:26:11Z,948852.26,NULL,Verzögerung,kuchelewa,d,NA,NA,NA,NA,sdf,NA,0,NA,NA,NA,NA,NA,NA,NA,NA,NA,NA,NA,NA,NA,NA,NA,NA,NA,NA,NA
d8175,"""Falsch""-Screen",canvas.Screen,5_0_0_0_7_0_2,NA,NA,timeout,5006.38,948855,948851.88,948852.26,953841.82,953843,2024-06-02T09:26:16Z,953858.64,NULL,Verzögerung,kuchelewa,d,NA,NA,NA,NA,sdf,0,0,NA,NA,NA,NA,NA,NA,NA,NA,NA,NA,NA,NA,NA,NA,NA,NA,NA,NA,NA
d8175,deep,flow.Sequence,5_0_0_0_7_0,NA,NA,completion,7345.6799999999,946482,946479.72,946496.14,953841.82,953844,2024-06-02T09:26:16Z,953858.64,NULL,Verzögerung,kuchelewa,d,NA,NA,NA,NA,sdf,NA,0,NA,NA,NA,NA,NA,NA,NA,NA,NA,NA,NA,NA,NA,NA,NA,NA,NA,NA,NA
d8175,shallow,flow.Sequence,5_0_0_0_7_1,NA,NA,skipped,NA,953844,NA,NA,953841.82,953844,2024-06-02T09:26:16Z,953858.64,NULL,Verzögerung,kuchelewa,d,NA,NA,NA,NA,sdf,NA,0,NA,NA,NA,NA,NA,NA,NA,NA,NA,NA,NA,NA,NA,NA,NA,NA,NA,NA,NA
d8175,task,flow.Sequence,5_0_0_0_7,NA,NA,completion,7345.6799999999,946482,946479.72,946496.14,953841.82,953844,2024-06-02T09:26:16Z,953858.64,NULL,Verzögerung,kuchelewa,d,NA,NA,NA,NA,sdf,NA,0,NA,NA,NA,NA,NA,NA,NA,NA,NA,NA,NA,NA,NA,NA,NA,NA,NA,NA,NA
d8175,block,flow.Loop,5_0_0_0,NA,NA,completion,80048.18,873793,873793.24,873793.64,953841.82,953844,2024-06-02T09:26:16Z,953858.64,NULL,NA,NA,NA,NA,NA,NA,NA,sdf,NA,0,NA,NA,NA,NA,NA,NA,NA,NA,NA,NA,NA,NA,NA,NA,NA,NA,NA,NA,NA
d8175,weiter,canvas.Screen,5_0_0_1,sdf,keypress(Space),response,739.35999999999,953844,953841.82,953858.64,954598,954671,2024-06-02T09:26:17Z,954725.76,NULL,NA,NA,NA,NA,NA,NA,NA,sdf,NA,0,NA,NA,NA,NA,NA,NA,NA,NA,NA,NA,NA,NA,NA,NA,NA,NA,NA,NA,NA
d8175,check continue,flow.Sequence,5_0_0,NA,NA,completion,80804.36,873793,873793.24,873793.64,954598,954673,2024-06-02T09:26:17Z,954725.76,NULL,NA,NA,NA,NA,NA,NA,NA,sdf,NA,0,NA,NA,NA,NA,NA,NA,NA,NA,NA,NA,NA,NA,NA,NA,NA,NA,NA,NA,NA
d8175,Deep Question,html.Page,5_0_1_0_0_0_0,NA,NA,form submission,3698.24,954724,954723.96,954725.76,958424,958425,2024-06-02T09:26:21Z,958425.64,NULL,Annäherung,maegesho,d,NA,NA,NA,dfgsg,NA,NA,1,NA,NA,NA,NA,NA,NA,NA,NA,NA,NA,NA,NA,NA,NA,NA,NA,NA,NA,NA
d8175,"""Richtig""-Screen",canvas.Screen,5_0_1_0_0_0_1,NA,NA,skipped,NA,958433,NA,NA,958424,958434,2024-06-02T09:26:21Z,958425.64,NULL,Annäherung,maegesho,d,NA,NA,NA,NA,sdfdsf,NA,1,NA,NA,NA,NA,NA,NA,NA,NA,NA,NA,NA,NA,NA,NA,NA,NA,NA,NA,NA
d8175,"""Falsch""-Screen",canvas.Screen,5_0_1_0_0_0_2,NA,NA,timeout,5004.74,958435,958417.96,958425.64,963413.88,963415,2024-06-02T09:26:26Z,963430.38,NULL,Annäherung,maegesho,d,NA,NA,NA,NA,sdfdsf,0,1,NA,NA,NA,NA,NA,NA,NA,NA,NA,NA,NA,NA,NA,NA,NA,NA,NA,NA,NA
d8175,deep,flow.Sequence,5_0_1_0_0_0,NA,NA,completion,8688.12,954724,954723.96,954725.76,963413.88,963416,2024-06-02T09:26:26Z,963430.38,NULL,Annäherung,maegesho,d,NA,NA,NA,NA,sdfdsf,NA,1,NA,NA,NA,NA,NA,NA,NA,NA,NA,NA,NA,NA,NA,NA,NA,NA,NA,NA,NA
d8175,shallow,flow.Sequence,5_0_1_0_0_1,NA,NA,skipped,NA,963416,NA,NA,963413.88,963416,2024-06-02T09:26:26Z,963430.38,NULL,Annäherung,maegesho,d,NA,NA,NA,NA,sdfdsf,NA,1,NA,NA,NA,NA,NA,NA,NA,NA,NA,NA,NA,NA,NA,NA,NA,NA,NA,NA,NA
d8175,task,flow.Sequence,5_0_1_0_0,NA,NA,completion,8688.12,954724,954723.96,954725.76,963413.88,963416,2024-06-02T09:26:26Z,963430.38,NULL,Annäherung,maegesho,d,NA,NA,NA,NA,sdfdsf,NA,1,NA,NA,NA,NA,NA,NA,NA,NA,NA,NA,NA,NA,NA,NA,NA,NA,NA,NA,NA
d8175,Deep Question,html.Page,5_0_1_0_1_0_0,NA,NA,form submission,8596.62,963416,963413.88,963430.38,972027,972028,2024-06-02T09:26:35Z,972025.72,NULL,Sympathie,mapendano,d,NA,NA,NA,ghdrtht,NA,NA,1,NA,NA,NA,NA,NA,NA,NA,NA,NA,NA,NA,NA,NA,NA,NA,NA,NA,NA,NA
d8175,"""Richtig""-Screen",canvas.Screen,5_0_1_0_1_0_1,NA,NA,skipped,NA,972030,NA,NA,972027,972030,2024-06-02T09:26:35Z,972025.72,NULL,Sympathie,mapendano,d,NA,NA,NA,NA,sdfdsf,NA,1,NA,NA,NA,NA,NA,NA,NA,NA,NA,NA,NA,NA,NA,NA,NA,NA,NA,NA,NA
d8175,"""Falsch""-Screen",canvas.Screen,5_0_1_0_1_0_2,NA,NA,timeout,4995.12,972032,972023.8,972025.72,977004.38,977006,2024-06-02T09:26:40Z,977020.84,NULL,Sympathie,mapendano,d,NA,NA,NA,NA,sdfdsf,0,1,NA,NA,NA,NA,NA,NA,NA,NA,NA,NA,NA,NA,NA,NA,NA,NA,NA,NA,NA
d8175,deep,flow.Sequence,5_0_1_0_1_0,NA,NA,completion,13574,963416,963413.88,963430.38,977004.38,977007,2024-06-02T09:26:40Z,977020.84,NULL,Sympathie,mapendano,d,NA,NA,NA,NA,sdfdsf,NA,1,NA,NA,NA,NA,NA,NA,NA,NA,NA,NA,NA,NA,NA,NA,NA,NA,NA,NA,NA
d8175,shallow,flow.Sequence,5_0_1_0_1_1,NA,NA,skipped,NA,977007,NA,NA,977004.38,977007,2024-06-02T09:26:40Z,977020.84,NULL,Sympathie,mapendano,d,NA,NA,NA,NA,sdfdsf,NA,1,NA,NA,NA,NA,NA,NA,NA,NA,NA,NA,NA,NA,NA,NA,NA,NA,NA,NA,NA
d8175,task,flow.Sequence,5_0_1_0_1,NA,NA,completion,13574,963416,963413.88,963430.38,977004.38,977008,2024-06-02T09:26:40Z,977020.84,NULL,Sympathie,mapendano,d,NA,NA,NA,NA,sdfdsf,NA,1,NA,NA,NA,NA,NA,NA,NA,NA,NA,NA,NA,NA,NA,NA,NA,NA,NA,NA,NA
d8175,Deep Question,html.Page,5_0_1_0_2_0_0,NA,NA,form submission,3813.16,977008,977004.38,977020.84,980834,980834,2024-06-02T09:26:43Z,980833.02,NULL,Kultur,utamaduni,d,NA,NA,NA,utamaduni,NA,NA,1,NA,NA,NA,NA,NA,NA,NA,NA,NA,NA,NA,NA,NA,NA,NA,NA,NA,NA,NA
d8175,"""Richtig""-Screen",canvas.Screen,5_0_1_0_2_0_1,NA,NA,timeout,5004.7,980836,980832.42,980833.02,985820.9,985840,2024-06-02T09:26:48Z,985837.72,NULL,Kultur,utamaduni,d,NA,NA,NA,NA,sdfdsf,1,1,NA,NA,NA,NA,NA,NA,NA,NA,NA,NA,NA,NA,NA,NA,NA,NA,NA,NA,NA
d8175,"""Falsch""-Screen",canvas.Screen,5_0_1_0_2_0_2,NA,NA,skipped,NA,985843,NA,NA,985820.9,985843,2024-06-02T09:26:48Z,985837.72,NULL,Kultur,utamaduni,d,NA,NA,NA,NA,sdfdsf,NA,1,NA,NA,NA,NA,NA,NA,NA,NA,NA,NA,NA,NA,NA,NA,NA,NA,NA,NA,NA
d8175,deep,flow.Sequence,5_0_1_0_2_0,NA,NA,completion,8800.0600000001,977008,977004.38,977020.84,985820.9,985843,2024-06-02T09:26:48Z,985837.72,NULL,Kultur,utamaduni,d,NA,NA,NA,NA,sdfdsf,NA,1,NA,NA,NA,NA,NA,NA,NA,NA,NA,NA,NA,NA,NA,NA,NA,NA,NA,NA,NA
d8175,shallow,flow.Sequence,5_0_1_0_2_1,NA,NA,skipped,NA,985843,NA,NA,985820.9,985843,2024-06-02T09:26:48Z,985837.72,NULL,Kultur,utamaduni,d,NA,NA,NA,NA,sdfdsf,NA,1,NA,NA,NA,NA,NA,NA,NA,NA,NA,NA,NA,NA,NA,NA,NA,NA,NA,NA,NA
d8175,task,flow.Sequence,5_0_1_0_2,NA,NA,completion,8800.0600000001,977008,977004.38,977020.84,985820.9,985843,2024-06-02T09:26:48Z,985837.72,NULL,Kultur,utamaduni,d,NA,NA,NA,NA,sdfdsf,NA,1,NA,NA,NA,NA,NA,NA,NA,NA,NA,NA,NA,NA,NA,NA,NA,NA,NA,NA,NA
d8175,deep,flow.Sequence,5_0_1_0_3_0,NA,NA,skipped,NA,985844,NA,NA,985820.9,985844,2024-06-02T09:26:48Z,985837.72,NULL,Aufstand,ugomaji,s,mazidio,msingi,kujieleza,NA,sdfdsf,NA,1,NA,NA,NA,NA,NA,NA,NA,NA,NA,NA,NA,NA,NA,NA,NA,NA,NA,NA,NA
d8175,Shallow Question,html.Page,5_0_1_0_3_1_0,NA,NA,form submission,6595.28,985844,985820.9,985837.72,992433,992434,2024-06-02T09:26:55Z,992444.76,NULL,Aufstand,ugomaji,s,mazidio,msingi,kujieleza,ugomaji,NA,NA,1,NA,NA,NA,NA,NA,NA,NA,NA,NA,NA,NA,NA,NA,NA,NA,NA,NA,NA,NA
d8175,"""Richtig""-Screen",canvas.Screen,5_0_1_0_3_1_1,NA,NA,timeout,5004.1799999999,992435,992429.92,992444.76,997432.56,997434,2024-06-02T09:27:00Z,997448.94,NULL,Aufstand,ugomaji,s,mazidio,msingi,kujieleza,NA,sdfdsf,1,1,NA,NA,NA,NA,NA,NA,NA,NA,NA,NA,NA,NA,NA,NA,NA,NA,NA,NA,NA
d8175,"""Falsch""-Screen",canvas.Screen,5_0_1_0_3_1_2,NA,NA,skipped,NA,997436,NA,NA,997432.56,997437,2024-06-02T09:27:00Z,997448.94,NULL,Aufstand,ugomaji,s,mazidio,msingi,kujieleza,NA,sdfdsf,NA,1,NA,NA,NA,NA,NA,NA,NA,NA,NA,NA,NA,NA,NA,NA,NA,NA,NA,NA,NA
d8175,shallow,flow.Sequence,5_0_1_0_3_1,NA,NA,completion,11594.84,985844,985820.9,985837.72,997432.56,997437,2024-06-02T09:27:00Z,997448.94,NULL,Aufstand,ugomaji,s,mazidio,msingi,kujieleza,NA,sdfdsf,NA,1,NA,NA,NA,NA,NA,NA,NA,NA,NA,NA,NA,NA,NA,NA,NA,NA,NA,NA,NA
