observation,sender,sender_type,sender_id,response,response_action,ended_on,duration,time_run,time_render,time_show,time_end,time_commit,timestamp,time_switch,german,swahili,enc,distractor1,distractor2,distractor3,response_2,x,correct,distractors,url_vp,url_sess,meta_labjs_version,meta_location,meta_user_agent,meta_platform,meta_language,meta_locale,meta_time_zone,meta_timezone_offset,meta_screen_width,meta_screen_height,meta_scroll_width,meta_scroll_height,meta_window_inner_width,meta_window_inner_height,meta_device_pixel_ratio,meta_labjs_build_flavor,meta_labjs_build_commit
73396,Introduction delayed retrieval,canvas.Screen,0,weiter,keypress(Space),response,1347.601,241.39999997616,192.901,242.899,1590.5,1596.1000000238,2023-02-06T22:04:38Z,1609.511,NA,NA,NA,NA,NA,NA,NA,NA,NA,NULL,105,4,20.2.4,https://neurocog.fernuni.ch/studies/vweber/delayed/index.html?vp=105&sess=4,"Mozilla/5.0 (Macintosh; Intel Mac OS X 10_15_7) AppleWebKit/537.36 (KHTML, like Gecko) Chrome/109.0.0.0 Safari/537.36",MacIntel,en,en-GB,Europe/Zurich,-60,1440,900,1440,716,1440,764,2,production,f5b4a49f956347addd546a832a3327688c2c0fef
73396,Deep Question,html.Page,1_0_0_0,NA,NA,form submission,32193.689000048,1596.6000000238,1592.845,1609.511,33803.200000048,33803.700000048,2023-02-06T22:05:10Z,33810.384,Vorsorge,tahadhari,d,ufafanuzi,makini,mashambani,a,NA,NA,NULL,NA,NA,NA,NA,NA,NA,NA,NA,NA,NA,NA,NA,NA,NA,NA,NA,NA,NA,NA
73396,Save data screen,canvas.Screen,1_0_0_1,NA,NA,timeout,499.98,33805.5,33793.718,33810.384,34293.698,34302.100000024,2023-02-06T22:05:10Z,34310.364,Vorsorge,tahadhari,d,ufafanuzi,makini,mashambani,NA,NA,0,NULL,NA,NA,NA,NA,NA,NA,NA,NA,NA,NA,NA,NA,NA,NA,NA,NA,NA,NA,NA
73396,deep,flow.Sequence,1_0_0,NA,NA,completion,32684.187,1596.5,1592.845,1609.511,34293.698,34302.700000048,2023-02-06T22:05:10Z,34310.364,Vorsorge,tahadhari,d,ufafanuzi,makini,mashambani,NA,NA,NA,NULL,NA,NA,NA,NA,NA,NA,NA,NA,NA,NA,NA,NA,NA,NA,NA,NA,NA,NA,NA
73396,task,flow.Sequence,1_0,NA,NA,completion,32684.187,1596.5,1592.845,1609.511,34293.698,34302.799999952,2023-02-06T22:05:10Z,34310.364,Vorsorge,tahadhari,d,ufafanuzi,makini,mashambani,NA,NA,NA,NULL,NA,NA,NA,NA,NA,NA,NA,NA,NA,NA,NA,NA,NA,NA,NA,NA,NA,NA,NA
73396,Deep Question,html.Page,1_1_0_0,NA,NA,form submission,20295.935999952,34302.899999976,34293.698,34310.364,54606.299999952,54606.5,2023-02-06T22:05:31Z,54610.289,Beweis,ushahidi,d,marudio,kizuizi,mtendaji,upeleleza,NA,NA,NULL,NA,NA,NA,NA,NA,NA,NA,NA,NA,NA,NA,NA,NA,NA,NA,NA,NA,NA,NA
73396,Save data screen,canvas.Screen,1_1_0_1,NA,NA,timeout,499.98,54607,54593.623,54610.289,55093.603,55094.399999976,2023-02-06T22:05:31Z,55110.269,Beweis,ushahidi,d,marudio,kizuizi,mtendaji,NA,NA,0,NULL,NA,NA,NA,NA,NA,NA,NA,NA,NA,NA,NA,NA,NA,NA,NA,NA,NA,NA,NA
73396,deep,flow.Sequence,1_1_0,NA,NA,completion,20783.239,34302.899999976,34293.698,34310.364,55093.603,55094.799999952,2023-02-06T22:05:31Z,55110.269,Beweis,ushahidi,d,marudio,kizuizi,mtendaji,NA,NA,NA,NULL,NA,NA,NA,NA,NA,NA,NA,NA,NA,NA,NA,NA,NA,NA,NA,NA,NA,NA,NA
73396,task,flow.Sequence,1_1,NA,NA,completion,20783.239,34302.899999976,34293.698,34310.364,55093.603,55094.899999976,2023-02-06T22:05:31Z,55110.269,Beweis,ushahidi,d,marudio,kizuizi,mtendaji,NA,NA,NA,NULL,NA,NA,NA,NA,NA,NA,NA,NA,NA,NA,NA,NA,NA,NA,NA,NA,NA,NA,NA
73396,Deep Question,html.Page,1_2_0_0,NA,NA,form submission,8473.5309999523,55095.200000048,55093.603,55110.269,63583.799999952,63584.5,2023-02-06T22:05:40Z,63594.283,Zufall,kikuti,s,kukosekana,uchoraji,leseni,karimba,NA,NA,NULL,NA,NA,NA,NA,NA,NA,NA,NA,NA,NA,NA,NA,NA,NA,NA,NA,NA,NA,NA
73396,Save data screen,canvas.Screen,1_2_0_1,NA,NA,timeout,499.98,63588.200000048,63577.617,63594.283,64077.597,64080.5,2023-02-06T22:05:40Z,64094.263,Zufall,kikuti,s,kukosekana,uchoraji,leseni,NA,NA,0,NULL,NA,NA,NA,NA,NA,NA,NA,NA,NA,NA,NA,NA,NA,NA,NA,NA,NA,NA,NA
73396,deep,flow.Sequence,1_2_0,NA,NA,completion,8967.328,55095.100000024,55093.603,55110.269,64077.597,64080.700000048,2023-02-06T22:05:40Z,64094.263,Zufall,kikuti,s,kukosekana,uchoraji,leseni,NA,NA,NA,NULL,NA,NA,NA,NA,NA,NA,NA,NA,NA,NA,NA,NA,NA,NA,NA,NA,NA,NA,NA
73396,task,flow.Sequence,1_2,NA,NA,completion,8967.328,55095,55093.603,55110.269,64077.597,64081,2023-02-06T22:05:40Z,64094.263,Zufall,kikuti,s,kukosekana,uchoraji,leseni,NA,NA,NA,NULL,NA,NA,NA,NA,NA,NA,NA,NA,NA,NA,NA,NA,NA,NA,NA,NA,NA,NA,NA
73396,Deep Question,html.Page,1_3_0_0,NA,NA,form submission,41398.036999952,64081.200000048,64077.597,64094.263,105492.29999995,105493.10000002,2023-02-06T22:06:22Z,105495.811,Polizist,msongora,d,simanzi,mandhari,nidhamu,goram,NA,NA,NULL,NA,NA,NA,NA,NA,NA,NA,NA,NA,NA,NA,NA,NA,NA,NA,NA,NA,NA,NA
73396,Save data screen,canvas.Screen,1_3_0_1,NA,NA,timeout,499.98,105495.60000002,105479.145,105495.811,105979.125,105981.10000002,2023-02-06T22:06:22Z,105995.791,Polizist,msongora,d,simanzi,mandhari,nidhamu,NA,NA,0,NULL,NA,NA,NA,NA,NA,NA,NA,NA,NA,NA,NA,NA,NA,NA,NA,NA,NA,NA,NA
73396,deep,flow.Sequence,1_3_0,NA,NA,completion,41884.862,64081.100000024,64077.597,64094.263,105979.125,105981.60000002,2023-02-06T22:06:22Z,105995.791,Polizist,msongora,d,simanzi,mandhari,nidhamu,NA,NA,NA,NULL,NA,NA,NA,NA,NA,NA,NA,NA,NA,NA,NA,NA,NA,NA,NA,NA,NA,NA,NA
73396,task,flow.Sequence,1_3,NA,NA,completion,41884.862,64081,64077.597,64094.263,105979.125,105981.79999995,2023-02-06T22:06:22Z,105995.791,Polizist,msongora,d,simanzi,mandhari,nidhamu,NA,NA,NA,NULL,NA,NA,NA,NA,NA,NA,NA,NA,NA,NA,NA,NA,NA,NA,NA,NA,NA,NA,NA
73396,Deep Question,html.Page,1_4_0_0,NA,NA,form submission,14722.409000048,105982.10000002,105979.125,105995.791,120718.20000005,120718.5,2023-02-06T22:06:37Z,120729.249,Konkurrent,mshindani,d,msemaji,mvutaji,kipukusa,a,NA,NA,NULL,NA,NA,NA,NA,NA,NA,NA,NA,NA,NA,NA,NA,NA,NA,NA,NA,NA,NA,NA
73396,Save data screen,canvas.Screen,1_4_0_1,NA,NA,timeout,499.98000000001,120720.70000005,120712.583,120729.249,121212.563,121214.70000005,2023-02-06T22:06:37Z,121229.229,Konkurrent,mshindani,d,msemaji,mvutaji,kipukusa,NA,NA,0,NULL,NA,NA,NA,NA,NA,NA,NA,NA,NA,NA,NA,NA,NA,NA,NA,NA,NA,NA,NA
73396,deep,flow.Sequence,1_4_0,NA,NA,completion,15216.772,105982.10000002,105979.125,105995.791,121212.563,121215.10000002,2023-02-06T22:06:37Z,121229.229,Konkurrent,mshindani,d,msemaji,mvutaji,kipukusa,NA,NA,NA,NULL,NA,NA,NA,NA,NA,NA,NA,NA,NA,NA,NA,NA,NA,NA,NA,NA,NA,NA,NA
73396,task,flow.Sequence,1_4,NA,NA,completion,15216.772,105982,105979.125,105995.791,121212.563,121215.39999998,2023-02-06T22:06:37Z,121229.229,Konkurrent,mshindani,d,msemaji,mvutaji,kipukusa,NA,NA,NA,NULL,NA,NA,NA,NA,NA,NA,NA,NA,NA,NA,NA,NA,NA,NA,NA,NA,NA,NA,NA
73396,Deep Question,html.Page,1_5_0_0,NA,NA,form submission,11027.771,121215.70000005,121212.563,121229.229,132257,132257.20000005,2023-02-06T22:06:48Z,132262.998,Wettbewerb,ushindani,d,mapendezi,kichocheo,ubaguzi,ushindani,NA,NA,NULL,NA,NA,NA,NA,NA,NA,NA,NA,NA,NA,NA,NA,NA,NA,NA,NA,NA,NA,NA
73396,Save data screen,canvas.Screen,1_5_0_1,NA,NA,timeout,499.98000000001,132259.39999998,132246.332,132262.998,132746.312,132748.29999995,2023-02-06T22:06:49Z,132762.978,Wettbewerb,ushindani,d,mapendezi,kichocheo,ubaguzi,NA,NA,1,NULL,NA,NA,NA,NA,NA,NA,NA,NA,NA,NA,NA,NA,NA,NA,NA,NA,NA,NA,NA
73396,deep,flow.Sequence,1_5_0,NA,NA,completion,11517.083,121215.60000002,121212.563,121229.229,132746.312,132748.70000005,2023-02-06T22:06:49Z,132762.978,Wettbewerb,ushindani,d,mapendezi,kichocheo,ubaguzi,NA,NA,NA,NULL,NA,NA,NA,NA,NA,NA,NA,NA,NA,NA,NA,NA,NA,NA,NA,NA,NA,NA,NA
73396,task,flow.Sequence,1_5,NA,NA,completion,11517.083,121215.5,121212.563,121229.229,132746.312,132749,2023-02-06T22:06:49Z,132762.978,Wettbewerb,ushindani,d,mapendezi,kichocheo,ubaguzi,NA,NA,NA,NULL,NA,NA,NA,NA,NA,NA,NA,NA,NA,NA,NA,NA,NA,NA,NA,NA,NA,NA,NA
73396,Deep Question,html.Page,1_6_0_0,NA,NA,form submission,11038.421999976,132749.29999995,132746.312,132762.978,143801.39999998,143801.89999998,2023-02-06T22:07:00Z,143813.292,Zuwachs,nyongeza,s,matilaba,udhibiti,hudhurio,nyongeza,NA,NA,NULL,NA,NA,NA,NA,NA,NA,NA,NA,NA,NA,NA,NA,NA,NA,NA,NA,NA,NA,NA
73396,Save data screen,canvas.Screen,1_6_0_1,NA,NA,timeout,499.98000000001,143804.10000002,143796.626,143813.292,144296.606,144299.29999995,2023-02-06T22:07:00Z,144313.272,Zuwachs,nyongeza,s,matilaba,udhibiti,hudhurio,NA,NA,1,NULL,NA,NA,NA,NA,NA,NA,NA,NA,NA,NA,NA,NA,NA,NA,NA,NA,NA,NA,NA
73396,deep,flow.Sequence,1_6_0,NA,NA,completion,11533.628,132749.20000005,132746.312,132762.978,144296.606,144299.70000005,2023-02-06T22:07:00Z,144313.272,Zuwachs,nyongeza,s,matilaba,udhibiti,hudhurio,NA,NA,NA,NULL,NA,NA,NA,NA,NA,NA,NA,NA,NA,NA,NA,NA,NA,NA,NA,NA,NA,NA,NA
73396,task,flow.Sequence,1_6,NA,NA,completion,11533.628,132749.10000002,132746.312,132762.978,144296.606,144299.79999995,2023-02-06T22:07:00Z,144313.272,Zuwachs,nyongeza,s,matilaba,udhibiti,hudhurio,NA,NA,NA,NULL,NA,NA,NA,NA,NA,NA,NA,NA,NA,NA,NA,NA,NA,NA,NA,NA,NA,NA,NA
73396,Deep Question,html.Page,1_7_0_0,NA,NA,form submission,6638.0279999523,144300,144296.606,144313.272,150951.29999995,150951.60000002,2023-02-06T22:07:07Z,150963.657,Verstand,ufahamivu,s,shakawa,hadhari,mhandisi,karaji,NA,NA,NULL,NA,NA,NA,NA,NA,NA,NA,NA,NA,NA,NA,NA,NA,NA,NA,NA,NA,NA,NA
73396,Save data screen,canvas.Screen,1_7_0_1,NA,NA,timeout,499.97999999998,150954.5,150946.991,150963.657,151446.971,151449.70000005,2023-02-06T22:07:08Z,151463.637,Verstand,ufahamivu,s,shakawa,hadhari,mhandisi,NA,NA,0,NULL,NA,NA,NA,NA,NA,NA,NA,NA,NA,NA,NA,NA,NA,NA,NA,NA,NA,NA,NA
73396,deep,flow.Sequence,1_7_0,NA,NA,completion,7133.699,144299.89999998,144296.606,144313.272,151446.971,151450.10000002,2023-02-06T22:07:08Z,151463.637,Verstand,ufahamivu,s,shakawa,hadhari,mhandisi,NA,NA,NA,NULL,NA,NA,NA,NA,NA,NA,NA,NA,NA,NA,NA,NA,NA,NA,NA,NA,NA,NA,NA
73396,task,flow.Sequence,1_7,NA,NA,completion,7133.699,144299.79999995,144296.606,144313.272,151446.971,151450.29999995,2023-02-06T22:07:08Z,151463.637,Verstand,ufahamivu,s,shakawa,hadhari,mhandisi,NA,NA,NA,NULL,NA,NA,NA,NA,NA,NA,NA,NA,NA,NA,NA,NA,NA,NA,NA,NA,NA,NA,NA
73396,Deep Question,html.Page,1_8_0_0,NA,NA,form submission,25311.863,151450.60000002,151446.971,151463.637,176775.5,176775.89999998,2023-02-06T22:07:33Z,176781.446,Ausschluss,kutengwa,d,ununuzi,taratibu,madeni,a,NA,NA,NULL,NA,NA,NA,NA,NA,NA,NA,NA,NA,NA,NA,NA,NA,NA,NA,NA,NA,NA,NA
73396,Save data screen,canvas.Screen,1_8_0_1,NA,NA,timeout,499.98000000001,176778.5,176764.78,176781.446,177264.76,177266.20000005,2023-02-06T22:07:33Z,177281.426,Ausschluss,kutengwa,d,ununuzi,taratibu,madeni,NA,NA,0,NULL,NA,NA,NA,NA,NA,NA,NA,NA,NA,NA,NA,NA,NA,NA,NA,NA,NA,NA,NA
73396,deep,flow.Sequence,1_8_0,NA,NA,completion,25801.123,151450.5,151446.971,151463.637,177264.76,177266.39999998,2023-02-06T22:07:33Z,177281.426,Ausschluss,kutengwa,d,ununuzi,taratibu,madeni,NA,NA,NA,NULL,NA,NA,NA,NA,NA,NA,NA,NA,NA,NA,NA,NA,NA,NA,NA,NA,NA,NA,NA
73396,task,flow.Sequence,1_8,NA,NA,completion,25801.123,151450.5,151446.971,151463.637,177264.76,177266.60000002,2023-02-06T22:07:33Z,177281.426,Ausschluss,kutengwa,d,ununuzi,taratibu,madeni,NA,NA,NA,NULL,NA,NA,NA,NA,NA,NA,NA,NA,NA,NA,NA,NA,NA,NA,NA,NA,NA,NA,NA
73396,Deep Question,html.Page,1_9_0_0,NA,NA,form submission,11084.274000048,177266.70000005,177264.76,177281.426,188365.70000005,188366.29999995,2023-02-06T22:07:45Z,188365.129,Gelegenheit,wakati,d,mchanganyiko,kipaumbele,kushuku,daharni,NA,NA,NULL,NA,NA,NA,NA,NA,NA,NA,NA,NA,NA,NA,NA,NA,NA,NA,NA,NA,NA,NA
73396,Save data screen,canvas.Screen,1_9_0_1,NA,NA,timeout,499.98000000001,188369.60000002,188348.463,188365.129,188848.443,188850,2023-02-06T22:07:45Z,188865.109,Gelegenheit,wakati,d,mchanganyiko,kipaumbele,kushuku,NA,NA,0,NULL,NA,NA,NA,NA,NA,NA,NA,NA,NA,NA,NA,NA,NA,NA,NA,NA,NA,NA,NA
73396,deep,flow.Sequence,1_9_0,NA,NA,completion,11567.017,177266.60000002,177264.76,177281.426,188848.443,188850.39999998,2023-02-06T22:07:45Z,188865.109,Gelegenheit,wakati,d,mchanganyiko,kipaumbele,kushuku,NA,NA,NA,NULL,NA,NA,NA,NA,NA,NA,NA,NA,NA,NA,NA,NA,NA,NA,NA,NA,NA,NA,NA
73396,task,flow.Sequence,1_9,NA,NA,completion,11567.017,177266.60000002,177264.76,177281.426,188848.443,188850.5,2023-02-06T22:07:45Z,188865.109,Gelegenheit,wakati,d,mchanganyiko,kipaumbele,kushuku,NA,NA,NA,NULL,NA,NA,NA,NA,NA,NA,NA,NA,NA,NA,NA,NA,NA,NA,NA,NA,NA,NA,NA
73396,Deep Question,html.Page,1_10_0_0,NA,NA,form submission,14867.790999976,188850.70000005,188848.443,188865.109,203732.89999998,203733.39999998,2023-02-06T22:08:00Z,203748.549,Sympathie,mapendano,s,dhamiria,fungamano,maazimio,maegesho,NA,NA,NULL,NA,NA,NA,NA,NA,NA,NA,NA,NA,NA,NA,NA,NA,NA,NA,NA,NA,NA,NA
73396,Save data screen,canvas.Screen,1_10_0_1,NA,NA,timeout,499.98000000001,203735.70000005,203731.883,203748.549,204231.863,204232.5,2023-02-06T22:08:00Z,204248.529,Sympathie,mapendano,s,dhamiria,fungamano,maazimio,NA,NA,0,NULL,NA,NA,NA,NA,NA,NA,NA,NA,NA,NA,NA,NA,NA,NA,NA,NA,NA,NA,NA
73396,deep,flow.Sequence,1_10_0,NA,NA,completion,15366.754,188850.70000005,188848.443,188865.109,204231.863,204232.70000005,2023-02-06T22:08:00Z,204248.529,Sympathie,mapendano,s,dhamiria,fungamano,maazimio,NA,NA,NA,NULL,NA,NA,NA,NA,NA,NA,NA,NA,NA,NA,NA,NA,NA,NA,NA,NA,NA,NA,NA
73396,task,flow.Sequence,1_10,NA,NA,completion,15366.754,188850.60000002,188848.443,188865.109,204231.863,204232.79999995,2023-02-06T22:08:00Z,204248.529,Sympathie,mapendano,s,dhamiria,fungamano,maazimio,NA,NA,NA,NULL,NA,NA,NA,NA,NA,NA,NA,NA,NA,NA,NA,NA,NA,NA,NA,NA,NA,NA,NA
73396,Deep Question,html.Page,1_11_0_0,NA,NA,form submission,5383.471,204233,204231.863,204248.529,209632,209632.5,2023-02-06T22:08:06Z,209632.272,Annäherung,maegesho,s,madahili,kujiamini,mapendekezo,maegesho,NA,NA,NULL,NA,NA,NA,NA,NA,NA,NA,NA,NA,NA,NA,NA,NA,NA,NA,NA,NA,NA,NA
73396,Save data screen,canvas.Screen,1_11_0_1,NA,NA,timeout,499.98000000001,209635.29999995,209615.606,209632.272,210115.586,210118.29999995,2023-02-06T22:08:06Z,210132.252,Annäherung,maegesho,s,madahili,kujiamini,mapendekezo,NA,NA,1,NULL,NA,NA,NA,NA,NA,NA,NA,NA,NA,NA,NA,NA,NA,NA,NA,NA,NA,NA,NA
73396,deep,flow.Sequence,1_11_0,NA,NA,completion,5867.057,204232.89999998,204231.863,204248.529,210115.586,210118.70000005,2023-02-06T22:08:06Z,210132.252,Annäherung,maegesho,s,madahili,kujiamini,mapendekezo,NA,NA,NA,NULL,NA,NA,NA,NA,NA,NA,NA,NA,NA,NA,NA,NA,NA,NA,NA,NA,NA,NA,NA
73396,task,flow.Sequence,1_11,NA,NA,completion,5867.057,204232.79999995,204231.863,204248.529,210115.586,210119,2023-02-06T22:08:06Z,210132.252,Annäherung,maegesho,s,madahili,kujiamini,mapendekezo,NA,NA,NA,NULL,NA,NA,NA,NA,NA,NA,NA,NA,NA,NA,NA,NA,NA,NA,NA,NA,NA,NA,NA
73396,Deep Question,html.Page,1_12_0_0,NA,NA,form submission,10764.348000024,210119.20000005,210115.586,210132.252,220896.60000002,220897.10000002,2023-02-06T22:08:17Z,220899.198,Widerstand,usulubu,s,kusababisha,mwalimu,mwenendo,a,NA,NA,NULL,NA,NA,NA,NA,NA,NA,NA,NA,NA,NA,NA,NA,NA,NA,NA,NA,NA,NA,NA
73396,Save data screen,canvas.Screen,1_12_0_1,NA,NA,timeout,499.98000000001,220899.39999998,220882.532,220899.198,221382.512,221384,2023-02-06T22:08:18Z,221399.178,Widerstand,usulubu,s,kusababisha,mwalimu,mwenendo,NA,NA,0,NULL,NA,NA,NA,NA,NA,NA,NA,NA,NA,NA,NA,NA,NA,NA,NA,NA,NA,NA,NA
73396,deep,flow.Sequence,1_12_0,NA,NA,completion,11250.26,210119.10000002,210115.586,210132.252,221382.512,221384.29999995,2023-02-06T22:08:18Z,221399.178,Widerstand,usulubu,s,kusababisha,mwalimu,mwenendo,NA,NA,NA,NULL,NA,NA,NA,NA,NA,NA,NA,NA,NA,NA,NA,NA,NA,NA,NA,NA,NA,NA,NA
73396,task,flow.Sequence,1_12,NA,NA,completion,11250.26,210119.10000002,210115.586,210132.252,221382.512,221384.60000002,2023-02-06T22:08:18Z,221399.178,Widerstand,usulubu,s,kusababisha,mwalimu,mwenendo,NA,NA,NA,NULL,NA,NA,NA,NA,NA,NA,NA,NA,NA,NA,NA,NA,NA,NA,NA,NA,NA,NA,NA
73396,Deep Question,html.Page,1_13_0_0,NA,NA,form submission,25250.822,221384.79999995,221382.512,221399.178,246650,246650.10000002,2023-02-06T22:08:43Z,246666.424,Schönheit,kirembo,s,mahojiano,msisimko,jitihadi,a,NA,NA,NULL,NA,NA,NA,NA,NA,NA,NA,NA,NA,NA,NA,NA,NA,NA,NA,NA,NA,NA,NA
73396,Save data screen,canvas.Screen,1_13_0_1,NA,NA,timeout,499.98000000001,246652.29999995,246649.758,246666.424,247149.738,247151.20000005,2023-02-06T22:08:43Z,247166.404,Schönheit,kirembo,s,mahojiano,msisimko,jitihadi,NA,NA,0,NULL,NA,NA,NA,NA,NA,NA,NA,NA,NA,NA,NA,NA,NA,NA,NA,NA,NA,NA,NA
73396,deep,flow.Sequence,1_13_0,NA,NA,completion,25750.56,221384.79999995,221382.512,221399.178,247149.738,247151.5,2023-02-06T22:08:43Z,247166.404,Schönheit,kirembo,s,mahojiano,msisimko,jitihadi,NA,NA,NA,NULL,NA,NA,NA,NA,NA,NA,NA,NA,NA,NA,NA,NA,NA,NA,NA,NA,NA,NA,NA
73396,task,flow.Sequence,1_13,NA,NA,completion,25750.56,221384.60000002,221382.512,221399.178,247149.738,247151.60000002,2023-02-06T22:08:43Z,247166.404,Schönheit,kirembo,s,mahojiano,msisimko,jitihadi,NA,NA,NA,NULL,NA,NA,NA,NA,NA,NA,NA,NA,NA,NA,NA,NA,NA,NA,NA,NA,NA,NA,NA
73396,Deep Question,html.Page,1_14_0_0,NA,NA,form submission,6449.9959999761,247151.70000005,247149.738,247166.404,253616.39999998,253616.89999998,2023-02-06T22:08:50Z,253616.787,Symbol,kielezo,s,kinyume,nderemo,utayari,karimja,NA,NA,NULL,NA,NA,NA,NA,NA,NA,NA,NA,NA,NA,NA,NA,NA,NA,NA,NA,NA,NA,NA
73396,Save data screen,canvas.Screen,1_14_0_1,NA,NA,timeout,499.97999999998,253619.20000005,253600.121,253616.787,254100.101,254101.79999995,2023-02-06T22:08:50Z,254116.767,Symbol,kielezo,s,kinyume,nderemo,utayari,NA,NA,0,NULL,NA,NA,NA,NA,NA,NA,NA,NA,NA,NA,NA,NA,NA,NA,NA,NA,NA,NA,NA
73396,deep,flow.Sequence,1_14_0,NA,NA,completion,6933.697,247151.70000005,247149.738,247166.404,254100.101,254102.20000005,2023-02-06T22:08:50Z,254116.767,Symbol,kielezo,s,kinyume,nderemo,utayari,NA,NA,NA,NULL,NA,NA,NA,NA,NA,NA,NA,NA,NA,NA,NA,NA,NA,NA,NA,NA,NA,NA,NA
73396,task,flow.Sequence,1_14,NA,NA,completion,6933.697,247151.60000002,247149.738,247166.404,254100.101,254102.39999998,2023-02-06T22:08:50Z,254116.767,Symbol,kielezo,s,kinyume,nderemo,utayari,NA,NA,NA,NULL,NA,NA,NA,NA,NA,NA,NA,NA,NA,NA,NA,NA,NA,NA,NA,NA,NA,NA,NA
73396,Deep Question,html.Page,1_15_0_0,NA,NA,form submission,16410.632999976,254102.70000005,254100.101,254116.767,270527.39999998,270527.89999998,2023-02-06T22:09:07Z,270533.5,Auftrag,uagizaji,d,ghanima,kuzingatia,msukani,a,NA,NA,NULL,NA,NA,NA,NA,NA,NA,NA,NA,NA,NA,NA,NA,NA,NA,NA,NA,NA,NA,NA
73396,Save data screen,canvas.Screen,1_15_0_1,NA,NA,timeout,499.97999999998,270530.29999995,270516.834,270533.5,271016.814,271018.79999995,2023-02-06T22:09:07Z,271033.48,Auftrag,uagizaji,d,ghanima,kuzingatia,msukani,NA,NA,0,NULL,NA,NA,NA,NA,NA,NA,NA,NA,NA,NA,NA,NA,NA,NA,NA,NA,NA,NA,NA
73396,deep,flow.Sequence,1_15_0,NA,NA,completion,16900.047,254102.60000002,254100.101,254116.767,271016.814,271019.10000002,2023-02-06T22:09:07Z,271033.48,Auftrag,uagizaji,d,ghanima,kuzingatia,msukani,NA,NA,NA,NULL,NA,NA,NA,NA,NA,NA,NA,NA,NA,NA,NA,NA,NA,NA,NA,NA,NA,NA,NA
73396,task,flow.Sequence,1_15,NA,NA,completion,16900.047,254102.60000002,254100.101,254116.767,271016.814,271019.39999998,2023-02-06T22:09:07Z,271033.48,Auftrag,uagizaji,d,ghanima,kuzingatia,msukani,NA,NA,NA,NULL,NA,NA,NA,NA,NA,NA,NA,NA,NA,NA,NA,NA,NA,NA,NA,NA,NA,NA,NA
73396,retrieval block 1 (cued recall),flow.Loop,1,NA,NA,completion,269407.303,1596.3999999762,1592.845,1609.511,271016.814,271019.60000002,2023-02-06T22:09:07Z,271033.48,NA,NA,NA,NA,NA,NA,NA,NA,NA,NULL,NA,NA,NA,NA,NA,NA,NA,NA,NA,NA,NA,NA,NA,NA,NA,NA,NA,NA,NA
73396,Shallow Question,html.Page,2_0_0_0,NA,NA,form submission,6143.02,271020,271016.814,271033.48,277176.5,277176.89999998,2023-02-06T22:09:13Z,277183.234,Verstand,ufahamivu,s,shakawa,hadhari,mhandisi,ufahamivu,NA,NA,"c(""distractor1"", ""distractor2"", ""distractor3"")",NA,NA,NA,NA,NA,NA,NA,NA,NA,NA,NA,NA,NA,NA,NA,NA,NA,NA,NA
73396,Save data screen,canvas.Screen,2_0_0_1,NA,NA,timeout,499.97999999998,277178.89999998,277166.568,277183.234,277666.548,277668.89999998,2023-02-06T22:09:14Z,277683.214,Verstand,ufahamivu,s,shakawa,hadhari,mhandisi,NA,NA,1,"c(""distractor1"", ""distractor2"", ""distractor3"")",NA,NA,NA,NA,NA,NA,NA,NA,NA,NA,NA,NA,NA,NA,NA,NA,NA,NA,NA
73396,shallow,flow.Sequence,2_0_0,NA,NA,completion,6633.068,271019.89999998,271016.814,271033.48,277666.548,277669.29999995,2023-02-06T22:09:14Z,277683.214,Verstand,ufahamivu,s,shakawa,hadhari,mhandisi,NA,NA,NA,"c(""distractor1"", ""distractor2"", ""distractor3"")",NA,NA,NA,NA,NA,NA,NA,NA,NA,NA,NA,NA,NA,NA,NA,NA,NA,NA,NA
73396,task,flow.Sequence,2_0,NA,NA,completion,6633.068,271019.79999995,271016.814,271033.48,277666.548,277669.60000002,2023-02-06T22:09:14Z,277683.214,Verstand,ufahamivu,s,shakawa,hadhari,mhandisi,NA,NA,NA,"c(""distractor1"", ""distractor2"", ""distractor3"")",NA,NA,NA,NA,NA,NA,NA,NA,NA,NA,NA,NA,NA,NA,NA,NA,NA,NA,NA
73396,Shallow Question,html.Page,2_1_0_0,NA,NA,form submission,4676.286,277669.89999998,277666.548,277683.214,282359.5,282360.10000002,2023-02-06T22:09:19Z,282367.869,Konkurrent,mshindani,d,msemaji,mvutaji,kipukusa,mshindani,NA,NA,"c(""distractor1"", ""distractor2"", ""distractor3"")",NA,NA,NA,NA,NA,NA,NA,NA,NA,NA,NA,NA,NA,NA,NA,NA,NA,NA,NA
73396,Save data screen,canvas.Screen,2_1_0_1,NA,NA,timeout,499.97999999998,282362.60000002,282351.203,282367.869,282851.183,282853.10000002,2023-02-06T22:09:19Z,282867.849,Konkurrent,mshindani,d,msemaji,mvutaji,kipukusa,NA,NA,1,"c(""distractor1"", ""distractor2"", ""distractor3"")",NA,NA,NA,NA,NA,NA,NA,NA,NA,NA,NA,NA,NA,NA,NA,NA,NA,NA,NA
73396,shallow,flow.Sequence,2_1_0,NA,NA,completion,5167.969,277669.79999995,277666.548,277683.214,282851.183,282853.5,2023-02-06T22:09:19Z,282867.849,Konkurrent,mshindani,d,msemaji,mvutaji,kipukusa,NA,NA,NA,"c(""distractor1"", ""distractor2"", ""distractor3"")",NA,NA,NA,NA,NA,NA,NA,NA,NA,NA,NA,NA,NA,NA,NA,NA,NA,NA,NA
73396,task,flow.Sequence,2_1,NA,NA,completion,5167.969,277669.70000005,277666.548,277683.214,282851.183,282853.70000005,2023-02-06T22:09:19Z,282867.849,Konkurrent,mshindani,d,msemaji,mvutaji,kipukusa,NA,NA,NA,"c(""distractor1"", ""distractor2"", ""distractor3"")",NA,NA,NA,NA,NA,NA,NA,NA,NA,NA,NA,NA,NA,NA,NA,NA,NA,NA,NA
73396,Shallow Question,html.Page,2_2_0_0,NA,NA,form submission,7206.151,282854,282851.183,282867.849,290074,290074.20000005,2023-02-06T22:09:26Z,290084.784,Zufall,kikuti,s,kukosekana,uchoraji,leseni,kikuti,NA,NA,"c(""distractor1"", ""distractor2"", ""distractor3"")",NA,NA,NA,NA,NA,NA,NA,NA,NA,NA,NA,NA,NA,NA,NA,NA,NA,NA,NA
73396,Save data screen,canvas.Screen,2_2_0_1,NA,NA,timeout,499.98000000004,290075.10000002,290068.118,290084.784,290568.098,290568.89999998,2023-02-06T22:09:27Z,290584.764,Zufall,kikuti,s,kukosekana,uchoraji,leseni,NA,NA,1,"c(""distractor1"", ""distractor2"", ""distractor3"")",NA,NA,NA,NA,NA,NA,NA,NA,NA,NA,NA,NA,NA,NA,NA,NA,NA,NA,NA
73396,shallow,flow.Sequence,2_2_0,NA,NA,completion,7700.249,282853.89999998,282851.183,282867.849,290568.098,290569.10000002,2023-02-06T22:09:27Z,290584.764,Zufall,kikuti,s,kukosekana,uchoraji,leseni,NA,NA,NA,"c(""distractor1"", ""distractor2"", ""distractor3"")",NA,NA,NA,NA,NA,NA,NA,NA,NA,NA,NA,NA,NA,NA,NA,NA,NA,NA,NA
73396,task,flow.Sequence,2_2,NA,NA,completion,7700.249,282853.89999998,282851.183,282867.849,290568.098,290569.20000005,2023-02-06T22:09:27Z,290584.764,Zufall,kikuti,s,kukosekana,uchoraji,leseni,NA,NA,NA,"c(""distractor1"", ""distractor2"", ""distractor3"")",NA,NA,NA,NA,NA,NA,NA,NA,NA,NA,NA,NA,NA,NA,NA,NA,NA,NA,NA
73396,Shallow Question,html.Page,2_3_0_0,NA,NA,form submission,3192.5359999523,290569.39999998,290568.098,290584.764,293777.29999995,293777.70000005,2023-02-06T22:09:30Z,293784.636,Symbol,kielezo,s,kinyume,nderemo,utayari,kielezo,NA,NA,"c(""distractor1"", ""distractor2"", ""distractor3"")",NA,NA,NA,NA,NA,NA,NA,NA,NA,NA,NA,NA,NA,NA,NA,NA,NA,NA,NA
73396,Save data screen,canvas.Screen,2_3_0_1,NA,NA,timeout,499.97999999998,293778.79999995,293767.97,293784.636,294267.95,294268.89999998,2023-02-06T22:09:30Z,294284.616,Symbol,kielezo,s,kinyume,nderemo,utayari,NA,NA,1,"c(""distractor1"", ""distractor2"", ""distractor3"")",NA,NA,NA,NA,NA,NA,NA,NA,NA,NA,NA,NA,NA,NA,NA,NA,NA,NA,NA
73396,shallow,flow.Sequence,2_3_0,NA,NA,completion,3683.186,290569.29999995,290568.098,290584.764,294267.95,294269.20000005,2023-02-06T22:09:30Z,294284.616,Symbol,kielezo,s,kinyume,nderemo,utayari,NA,NA,NA,"c(""distractor1"", ""distractor2"", ""distractor3"")",NA,NA,NA,NA,NA,NA,NA,NA,NA,NA,NA,NA,NA,NA,NA,NA,NA,NA,NA
73396,task,flow.Sequence,2_3,NA,NA,completion,3683.186,290569.29999995,290568.098,290584.764,294267.95,294269.39999998,2023-02-06T22:09:30Z,294284.616,Symbol,kielezo,s,kinyume,nderemo,utayari,NA,NA,NA,"c(""distractor1"", ""distractor2"", ""distractor3"")",NA,NA,NA,NA,NA,NA,NA,NA,NA,NA,NA,NA,NA,NA,NA,NA,NA,NA,NA
73396,Shallow Question,html.Page,2_4_0_0,NA,NA,form submission,5956.9840000239,294269.5,294267.95,294284.616,300241.60000002,300241.79999995,2023-02-06T22:09:36Z,300251.79,Beweis,ushahidi,d,marudio,kizuizi,mtendaji,ushahidi,NA,NA,"c(""distractor1"", ""distractor2"", ""distractor3"")",NA,NA,NA,NA,NA,NA,NA,NA,NA,NA,NA,NA,NA,NA,NA,NA,NA,NA,NA
73396,Save data screen,canvas.Screen,2_4_0_1,NA,NA,timeout,499.98000000004,300243.79999995,300235.124,300251.79,300735.104,300736.29999995,2023-02-06T22:09:37Z,300751.77,Beweis,ushahidi,d,marudio,kizuizi,mtendaji,NA,NA,1,"c(""distractor1"", ""distractor2"", ""distractor3"")",NA,NA,NA,NA,NA,NA,NA,NA,NA,NA,NA,NA,NA,NA,NA,NA,NA,NA,NA
73396,shallow,flow.Sequence,2_4_0,NA,NA,completion,6450.488,294269.5,294267.95,294284.616,300735.104,300736.70000005,2023-02-06T22:09:37Z,300751.77,Beweis,ushahidi,d,marudio,kizuizi,mtendaji,NA,NA,NA,"c(""distractor1"", ""distractor2"", ""distractor3"")",NA,NA,NA,NA,NA,NA,NA,NA,NA,NA,NA,NA,NA,NA,NA,NA,NA,NA,NA
73396,task,flow.Sequence,2_4,NA,NA,completion,6450.488,294269.39999998,294267.95,294284.616,300735.104,300736.89999998,2023-02-06T22:09:37Z,300751.77,Beweis,ushahidi,d,marudio,kizuizi,mtendaji,NA,NA,NA,"c(""distractor1"", ""distractor2"", ""distractor3"")",NA,NA,NA,NA,NA,NA,NA,NA,NA,NA,NA,NA,NA,NA,NA,NA,NA,NA,NA
73396,Shallow Question,html.Page,2_5_0_0,NA,NA,form submission,3726.1299999761,300737.10000002,300735.104,300751.77,304477.89999998,304478.20000005,2023-02-06T22:09:41Z,304484.954,Schönheit,kirembo,s,mahojiano,msisimko,jitihadi,kirembo,NA,NA,"c(""distractor1"", ""distractor2"", ""distractor3"")",NA,NA,NA,NA,NA,NA,NA,NA,NA,NA,NA,NA,NA,NA,NA,NA,NA,NA,NA
73396,Save data screen,canvas.Screen,2_5_0_1,NA,NA,timeout,499.97999999998,304480.10000002,304468.288,304484.954,304968.268,304972.5,2023-02-06T22:09:41Z,304984.934,Schönheit,kirembo,s,mahojiano,msisimko,jitihadi,NA,NA,1,"c(""distractor1"", ""distractor2"", ""distractor3"")",NA,NA,NA,NA,NA,NA,NA,NA,NA,NA,NA,NA,NA,NA,NA,NA,NA,NA,NA
73396,shallow,flow.Sequence,2_5_0,NA,NA,completion,4216.498,300737.10000002,300735.104,300751.77,304968.268,304972.79999995,2023-02-06T22:09:41Z,304984.934,Schönheit,kirembo,s,mahojiano,msisimko,jitihadi,NA,NA,NA,"c(""distractor1"", ""distractor2"", ""distractor3"")",NA,NA,NA,NA,NA,NA,NA,NA,NA,NA,NA,NA,NA,NA,NA,NA,NA,NA,NA
73396,task,flow.Sequence,2_5,NA,NA,completion,4216.498,300737.10000002,300735.104,300751.77,304968.268,304972.79999995,2023-02-06T22:09:41Z,304984.934,Schönheit,kirembo,s,mahojiano,msisimko,jitihadi,NA,NA,NA,"c(""distractor1"", ""distractor2"", ""distractor3"")",NA,NA,NA,NA,NA,NA,NA,NA,NA,NA,NA,NA,NA,NA,NA,NA,NA,NA,NA
73396,Shallow Question,html.Page,2_6_0_0,NA,NA,form submission,7907.1660000238,304972.89999998,304968.268,304984.934,312892.10000002,312892.29999995,2023-02-06T22:09:49Z,312902.027,Auftrag,uagizaji,d,ghanima,kuzingatia,msukani,uagizaji,NA,NA,"c(""distractor1"", ""distractor2"", ""distractor3"")",NA,NA,NA,NA,NA,NA,NA,NA,NA,NA,NA,NA,NA,NA,NA,NA,NA,NA,NA
73396,Save data screen,canvas.Screen,2_6_0_1,NA,NA,timeout,499.97999999998,312894.79999995,312885.361,312902.027,313385.341,313387.10000002,2023-02-06T22:09:50Z,313402.007,Auftrag,uagizaji,d,ghanima,kuzingatia,msukani,NA,NA,1,"c(""distractor1"", ""distractor2"", ""distractor3"")",NA,NA,NA,NA,NA,NA,NA,NA,NA,NA,NA,NA,NA,NA,NA,NA,NA,NA,NA
73396,shallow,flow.Sequence,2_6_0,NA,NA,completion,8400.407,304972.89999998,304968.268,304984.934,313385.341,313387.39999998,2023-02-06T22:09:50Z,313402.007,Auftrag,uagizaji,d,ghanima,kuzingatia,msukani,NA,NA,NA,"c(""distractor1"", ""distractor2"", ""distractor3"")",NA,NA,NA,NA,NA,NA,NA,NA,NA,NA,NA,NA,NA,NA,NA,NA,NA,NA,NA
73396,task,flow.Sequence,2_6,NA,NA,completion,8400.407,304972.89999998,304968.268,304984.934,313385.341,313387.70000005,2023-02-06T22:09:50Z,313402.007,Auftrag,uagizaji,d,ghanima,kuzingatia,msukani,NA,NA,NA,"c(""distractor1"", ""distractor2"", ""distractor3"")",NA,NA,NA,NA,NA,NA,NA,NA,NA,NA,NA,NA,NA,NA,NA,NA,NA,NA,NA
73396,Shallow Question,html.Page,2_7_0_0,NA,NA,form submission,4907.3929999762,313387.89999998,313385.341,313402.007,318309.39999998,318309.70000005,2023-02-06T22:09:54Z,318318.477,Wettbewerb,ushindani,d,mapendezi,kichocheo,ubaguzi,ushindani,NA,NA,"c(""distractor1"", ""distractor2"", ""distractor3"")",NA,NA,NA,NA,NA,NA,NA,NA,NA,NA,NA,NA,NA,NA,NA,NA,NA,NA,NA
73396,Save data screen,canvas.Screen,2_7_0_1,NA,NA,timeout,499.97999999998,318311.70000005,318301.811,318318.477,318801.791,318804.5,2023-02-06T22:09:55Z,318818.457,Wettbewerb,ushindani,d,mapendezi,kichocheo,ubaguzi,NA,NA,1,"c(""distractor1"", ""distractor2"", ""distractor3"")",NA,NA,NA,NA,NA,NA,NA,NA,NA,NA,NA,NA,NA,NA,NA,NA,NA,NA,NA
73396,shallow,flow.Sequence,2_7_0,NA,NA,completion,5399.784,313387.89999998,313385.341,313402.007,318801.791,318804.89999998,2023-02-06T22:09:55Z,318818.457,Wettbewerb,ushindani,d,mapendezi,kichocheo,ubaguzi,NA,NA,NA,"c(""distractor1"", ""distractor2"", ""distractor3"")",NA,NA,NA,NA,NA,NA,NA,NA,NA,NA,NA,NA,NA,NA,NA,NA,NA,NA,NA
73396,task,flow.Sequence,2_7,NA,NA,completion,5399.784,313387.79999995,313385.341,313402.007,318801.791,318805.20000005,2023-02-06T22:09:55Z,318818.457,Wettbewerb,ushindani,d,mapendezi,kichocheo,ubaguzi,NA,NA,NA,"c(""distractor1"", ""distractor2"", ""distractor3"")",NA,NA,NA,NA,NA,NA,NA,NA,NA,NA,NA,NA,NA,NA,NA,NA,NA,NA,NA
73396,Shallow Question,html.Page,2_8_0_0,NA,NA,form submission,6457.4429999762,318805.5,318801.791,318818.457,325275.89999998,325276.20000005,2023-02-06T22:10:01Z,325285.58,Annäherung,maegesho,s,madahili,kujiamini,mapendekezo,maegesho,NA,NA,"c(""distractor1"", ""distractor2"", ""distractor3"")",NA,NA,NA,NA,NA,NA,NA,NA,NA,NA,NA,NA,NA,NA,NA,NA,NA,NA,NA
73396,Save data screen,canvas.Screen,2_8_0_1,NA,NA,timeout,499.97999999998,325278.70000005,325268.914,325285.58,325768.894,325770.10000002,2023-02-06T22:10:02Z,325785.56,Annäherung,maegesho,s,madahili,kujiamini,mapendekezo,NA,NA,1,"c(""distractor1"", ""distractor2"", ""distractor3"")",NA,NA,NA,NA,NA,NA,NA,NA,NA,NA,NA,NA,NA,NA,NA,NA,NA,NA,NA
73396,shallow,flow.Sequence,2_8_0,NA,NA,completion,6950.437,318805.5,318801.791,318818.457,325768.894,325770.5,2023-02-06T22:10:02Z,325785.56,Annäherung,maegesho,s,madahili,kujiamini,mapendekezo,NA,NA,NA,"c(""distractor1"", ""distractor2"", ""distractor3"")",NA,NA,NA,NA,NA,NA,NA,NA,NA,NA,NA,NA,NA,NA,NA,NA,NA,NA,NA
73396,task,flow.Sequence,2_8,NA,NA,completion,6950.437,318805.39999998,318801.791,318818.457,325768.894,325770.79999995,2023-02-06T22:10:02Z,325785.56,Annäherung,maegesho,s,madahili,kujiamini,mapendekezo,NA,NA,NA,"c(""distractor1"", ""distractor2"", ""distractor3"")",NA,NA,NA,NA,NA,NA,NA,NA,NA,NA,NA,NA,NA,NA,NA,NA,NA,NA,NA
73396,Shallow Question,html.Page,2_9_0_0,NA,NA,form submission,7041.6400000477,325771,325768.894,325785.56,332827.20000005,332827.5,2023-02-06T22:10:09Z,332836.001,Ausschluss,kutengwa,d,ununuzi,taratibu,madeni,kutengwa,NA,NA,"c(""distractor1"", ""distractor2"", ""distractor3"")",NA,NA,NA,NA,NA,NA,NA,NA,NA,NA,NA,NA,NA,NA,NA,NA,NA,NA,NA
73396,Save data screen,canvas.Screen,2_9_0_1,NA,NA,timeout,499.98000000004,332831,332819.335,332836.001,333319.315,333321.20000005,2023-02-06T22:10:09Z,333335.981,Ausschluss,kutengwa,d,ununuzi,taratibu,madeni,NA,NA,1,"c(""distractor1"", ""distractor2"", ""distractor3"")",NA,NA,NA,NA,NA,NA,NA,NA,NA,NA,NA,NA,NA,NA,NA,NA,NA,NA,NA
73396,shallow,flow.Sequence,2_9_0,NA,NA,completion,7533.755,325771,325768.894,325785.56,333319.315,333321.60000002,2023-02-06T22:10:09Z,333335.981,Ausschluss,kutengwa,d,ununuzi,taratibu,madeni,NA,NA,NA,"c(""distractor1"", ""distractor2"", ""distractor3"")",NA,NA,NA,NA,NA,NA,NA,NA,NA,NA,NA,NA,NA,NA,NA,NA,NA,NA,NA
73396,task,flow.Sequence,2_9,NA,NA,completion,7533.755,325771,325768.894,325785.56,333319.315,333321.79999995,2023-02-06T22:10:09Z,333335.981,Ausschluss,kutengwa,d,ununuzi,taratibu,madeni,NA,NA,NA,"c(""distractor1"", ""distractor2"", ""distractor3"")",NA,NA,NA,NA,NA,NA,NA,NA,NA,NA,NA,NA,NA,NA,NA,NA,NA,NA,NA
73396,Shallow Question,html.Page,2_10_0_0,NA,NA,form submission,10875.918999976,333322,333319.315,333335.981,344211.89999998,344212.39999998,2023-02-06T22:10:20Z,344219.46,Gelegenheit,wakati,d,mchanganyiko,kipaumbele,kushuku,wakati,NA,NA,"c(""distractor1"", ""distractor2"", ""distractor3"")",NA,NA,NA,NA,NA,NA,NA,NA,NA,NA,NA,NA,NA,NA,NA,NA,NA,NA,NA
73396,Save data screen,canvas.Screen,2_10_0_1,NA,NA,timeout,499.97999999998,344214.60000002,344202.794,344219.46,344702.774,344703.39999998,2023-02-06T22:10:21Z,344719.44,Gelegenheit,wakati,d,mchanganyiko,kipaumbele,kushuku,NA,NA,1,"c(""distractor1"", ""distractor2"", ""distractor3"")",NA,NA,NA,NA,NA,NA,NA,NA,NA,NA,NA,NA,NA,NA,NA,NA,NA,NA,NA
73396,shallow,flow.Sequence,2_10_0,NA,NA,completion,11366.793,333322,333319.315,333335.981,344702.774,344703.70000005,2023-02-06T22:10:21Z,344719.44,Gelegenheit,wakati,d,mchanganyiko,kipaumbele,kushuku,NA,NA,NA,"c(""distractor1"", ""distractor2"", ""distractor3"")",NA,NA,NA,NA,NA,NA,NA,NA,NA,NA,NA,NA,NA,NA,NA,NA,NA,NA,NA
73396,task,flow.Sequence,2_10,NA,NA,completion,11366.793,333321.89999998,333319.315,333335.981,344702.774,344703.89999998,2023-02-06T22:10:21Z,344719.44,Gelegenheit,wakati,d,mchanganyiko,kipaumbele,kushuku,NA,NA,NA,"c(""distractor1"", ""distractor2"", ""distractor3"")",NA,NA,NA,NA,NA,NA,NA,NA,NA,NA,NA,NA,NA,NA,NA,NA,NA,NA,NA
73396,Shallow Question,html.Page,2_11_0_0,NA,NA,form submission,11256.859999952,344704,344702.774,344719.44,355976.29999995,355976.5,2023-02-06T22:10:32Z,355986.683,Polizist,msongora,d,simanzi,mandhari,nidhamu,msongora,NA,NA,"c(""distractor1"", ""distractor2"", ""distractor3"")",NA,NA,NA,NA,NA,NA,NA,NA,NA,NA,NA,NA,NA,NA,NA,NA,NA,NA,NA
73396,Save data screen,canvas.Screen,2_11_0_1,NA,NA,timeout,499.97999999998,355978,355970.017,355986.683,356469.997,356471.5,2023-02-06T22:10:33Z,356486.663,Polizist,msongora,d,simanzi,mandhari,nidhamu,NA,NA,1,"c(""distractor1"", ""distractor2"", ""distractor3"")",NA,NA,NA,NA,NA,NA,NA,NA,NA,NA,NA,NA,NA,NA,NA,NA,NA,NA,NA
73396,shallow,flow.Sequence,2_11_0,NA,NA,completion,11750.557,344704,344702.774,344719.44,356469.997,356471.70000005,2023-02-06T22:10:33Z,356486.663,Polizist,msongora,d,simanzi,mandhari,nidhamu,NA,NA,NA,"c(""distractor1"", ""distractor2"", ""distractor3"")",NA,NA,NA,NA,NA,NA,NA,NA,NA,NA,NA,NA,NA,NA,NA,NA,NA,NA,NA
73396,task,flow.Sequence,2_11,NA,NA,completion,11750.557,344704,344702.774,344719.44,356469.997,356471.70000005,2023-02-06T22:10:33Z,356486.663,Polizist,msongora,d,simanzi,mandhari,nidhamu,NA,NA,NA,"c(""distractor1"", ""distractor2"", ""distractor3"")",NA,NA,NA,NA,NA,NA,NA,NA,NA,NA,NA,NA,NA,NA,NA,NA,NA,NA,NA
73396,Shallow Question,html.Page,2_12_0_0,NA,NA,form submission,11473.437000024,356471.79999995,356469.997,356486.663,367960.10000002,367960.29999995,2023-02-06T22:10:44Z,367970.288,Sympathie,mapendano,s,dhamiria,fungamano,maazimio,mapendano,NA,NA,"c(""distractor1"", ""distractor2"", ""distractor3"")",NA,NA,NA,NA,NA,NA,NA,NA,NA,NA,NA,NA,NA,NA,NA,NA,NA,NA,NA
73396,Save data screen,canvas.Screen,2_12_0_1,NA,NA,timeout,499.97999999998,367962.20000005,367953.622,367970.288,368453.602,368454.39999998,2023-02-06T22:10:45Z,368470.268,Sympathie,mapendano,s,dhamiria,fungamano,maazimio,NA,NA,1,"c(""distractor1"", ""distractor2"", ""distractor3"")",NA,NA,NA,NA,NA,NA,NA,NA,NA,NA,NA,NA,NA,NA,NA,NA,NA,NA,NA
73396,shallow,flow.Sequence,2_12_0,NA,NA,completion,11966.939,356471.79999995,356469.997,356486.663,368453.602,368454.5,2023-02-06T22:10:45Z,368470.268,Sympathie,mapendano,s,dhamiria,fungamano,maazimio,NA,NA,NA,"c(""distractor1"", ""distractor2"", ""distractor3"")",NA,NA,NA,NA,NA,NA,NA,NA,NA,NA,NA,NA,NA,NA,NA,NA,NA,NA,NA
73396,task,flow.Sequence,2_12,NA,NA,completion,11966.939,356471.79999995,356469.997,356486.663,368453.602,368454.60000002,2023-02-06T22:10:45Z,368470.268,Sympathie,mapendano,s,dhamiria,fungamano,maazimio,NA,NA,NA,"c(""distractor1"", ""distractor2"", ""distractor3"")",NA,NA,NA,NA,NA,NA,NA,NA,NA,NA,NA,NA,NA,NA,NA,NA,NA,NA,NA
73396,Shallow Question,html.Page,2_13_0_0,NA,NA,form submission,9824.1319999762,368454.79999995,368453.602,368470.268,378294.39999998,378294.70000005,2023-02-06T22:10:54Z,378303.946,Vorsorge,tahadhari,d,ufafanuzi,makini,mashambani,tahadhari,NA,NA,"c(""distractor1"", ""distractor2"", ""distractor3"")",NA,NA,NA,NA,NA,NA,NA,NA,NA,NA,NA,NA,NA,NA,NA,NA,NA,NA,NA
73396,Save data screen,canvas.Screen,2_13_0_1,NA,NA,timeout,499.97999999998,378297.29999995,378287.28,378303.946,378787.26,378789.10000002,2023-02-06T22:10:55Z,378803.926,Vorsorge,tahadhari,d,ufafanuzi,makini,mashambani,NA,NA,1,"c(""distractor1"", ""distractor2"", ""distractor3"")",NA,NA,NA,NA,NA,NA,NA,NA,NA,NA,NA,NA,NA,NA,NA,NA,NA,NA,NA
73396,shallow,flow.Sequence,2_13_0,NA,NA,completion,10316.992,368454.70000005,368453.602,368470.268,378787.26,378789.60000002,2023-02-06T22:10:55Z,378803.926,Vorsorge,tahadhari,d,ufafanuzi,makini,mashambani,NA,NA,NA,"c(""distractor1"", ""distractor2"", ""distractor3"")",NA,NA,NA,NA,NA,NA,NA,NA,NA,NA,NA,NA,NA,NA,NA,NA,NA,NA,NA
73396,task,flow.Sequence,2_13,NA,NA,completion,10316.992,368454.70000005,368453.602,368470.268,378787.26,378789.79999995,2023-02-06T22:10:55Z,378803.926,Vorsorge,tahadhari,d,ufafanuzi,makini,mashambani,NA,NA,NA,"c(""distractor1"", ""distractor2"", ""distractor3"")",NA,NA,NA,NA,NA,NA,NA,NA,NA,NA,NA,NA,NA,NA,NA,NA,NA,NA,NA
73396,Shallow Question,html.Page,2_14_0_0,NA,NA,form submission,4206.9739999762,378790.10000002,378787.26,378803.926,383010.89999998,383011.20000005,2023-02-06T22:10:59Z,383020.424,Zuwachs,nyongeza,s,matilaba,udhibiti,hudhurio,nyongeza,NA,NA,"c(""distractor1"", ""distractor2"", ""distractor3"")",NA,NA,NA,NA,NA,NA,NA,NA,NA,NA,NA,NA,NA,NA,NA,NA,NA,NA,NA
73396,Save data screen,canvas.Screen,2_14_0_1,NA,NA,timeout,499.97999999998,383013.20000005,383003.758,383020.424,383503.738,383505.20000005,2023-02-06T22:11:00Z,383520.404,Zuwachs,nyongeza,s,matilaba,udhibiti,hudhurio,NA,NA,1,"c(""distractor1"", ""distractor2"", ""distractor3"")",NA,NA,NA,NA,NA,NA,NA,NA,NA,NA,NA,NA,NA,NA,NA,NA,NA,NA,NA
73396,shallow,flow.Sequence,2_14_0,NA,NA,completion,4699.812,378790.10000002,378787.26,378803.926,383503.738,383505.29999995,2023-02-06T22:11:00Z,383520.404,Zuwachs,nyongeza,s,matilaba,udhibiti,hudhurio,NA,NA,NA,"c(""distractor1"", ""distractor2"", ""distractor3"")",NA,NA,NA,NA,NA,NA,NA,NA,NA,NA,NA,NA,NA,NA,NA,NA,NA,NA,NA
73396,task,flow.Sequence,2_14,NA,NA,completion,4699.812,378790.10000002,378787.26,378803.926,383503.738,383505.5,2023-02-06T22:11:00Z,383520.404,Zuwachs,nyongeza,s,matilaba,udhibiti,hudhurio,NA,NA,NA,"c(""distractor1"", ""distractor2"", ""distractor3"")",NA,NA,NA,NA,NA,NA,NA,NA,NA,NA,NA,NA,NA,NA,NA,NA,NA,NA,NA
73396,Shallow Question,html.Page,2_15_0_0,NA,NA,form submission,11257.796000048,383505.60000002,383503.738,383520.404,394778.20000005,394778.5,2023-02-06T22:11:11Z,394787.264,Widerstand,usulubu,s,kusababisha,mwalimu,mwenendo,usulubu,NA,NA,"c(""distractor1"", ""distractor2"", ""distractor3"")",NA,NA,NA,NA,NA,NA,NA,NA,NA,NA,NA,NA,NA,NA,NA,NA,NA,NA,NA
73396,Save data screen,canvas.Screen,2_15_0_1,NA,NA,timeout,499.97999999998,394781.10000002,394770.598,394787.264,395270.578,395273.20000005,2023-02-06T22:11:11Z,395287.244,Widerstand,usulubu,s,kusababisha,mwalimu,mwenendo,NA,NA,1,"c(""distractor1"", ""distractor2"", ""distractor3"")",NA,NA,NA,NA,NA,NA,NA,NA,NA,NA,NA,NA,NA,NA,NA,NA,NA,NA,NA
73396,shallow,flow.Sequence,2_15_0,NA,NA,completion,11750.174,383505.60000002,383503.738,383520.404,395270.578,395273.60000002,2023-02-06T22:11:11Z,395287.244,Widerstand,usulubu,s,kusababisha,mwalimu,mwenendo,NA,NA,NA,"c(""distractor1"", ""distractor2"", ""distractor3"")",NA,NA,NA,NA,NA,NA,NA,NA,NA,NA,NA,NA,NA,NA,NA,NA,NA,NA,NA
73396,task,flow.Sequence,2_15,NA,NA,completion,11750.174,383505.60000002,383503.738,383520.404,395270.578,395273.89999998,2023-02-06T22:11:11Z,395287.244,Widerstand,usulubu,s,kusababisha,mwalimu,mwenendo,NA,NA,NA,"c(""distractor1"", ""distractor2"", ""distractor3"")",NA,NA,NA,NA,NA,NA,NA,NA,NA,NA,NA,NA,NA,NA,NA,NA,NA,NA,NA
73396,retrieval block 2 (multiple choice),flow.Loop,2,NA,NA,completion,124237.098,271019.70000005,271016.814,271033.48,395270.578,395274.20000005,2023-02-06T22:11:11Z,395287.244,NA,NA,NA,NA,NA,NA,NA,NA,NA,"c(""distractor1"", ""distractor2"", ""distractor3"")",NA,NA,NA,NA,NA,NA,NA,NA,NA,NA,NA,NA,NA,NA,NA,NA,NA,NA,NA
73396,End,canvas.Screen,3,NA,keypress(Space),response,1210.4560000477,395274.29999995,395270.578,395287.244,396497.70000005,396501.79999995,2023-02-06T22:11:13Z,396503.862,NA,NA,NA,NA,NA,NA,NA,NA,NA,NULL,NA,NA,NA,NA,NA,NA,NA,NA,NA,NA,NA,NA,NA,NA,NA,NA,NA,NA,NA
73396,root,flow.Sequence,NA,NA,NA,completion,396254.80100005,241.29999995232,192.901,242.899,396497.70000005,396502.29999995,2023-02-06T22:11:13Z,396503.862,NA,NA,NA,NA,NA,NA,NA,NA,NA,NULL,NA,NA,NA,NA,NA,NA,NA,NA,NA,NA,NA,NA,NA,NA,NA,NA,NA,NA,NA
