observation,sender,sender_type,sender_id,response,response_action,ended_on,duration,time_run,time_render,time_show,time_end,time_commit,timestamp,time_switch,distractors,german,swahili,enc,distractor1,distractor2,distractor3,response_2,x,correct,x_2,url_vp,url_sess,meta_labjs_version,meta_location,meta_user_agent,meta_platform,meta_language,meta_locale,meta_time_zone,meta_timezone_offset,meta_screen_width,meta_screen_height,meta_scroll_width,meta_scroll_height,meta_window_inner_width,meta_window_inner_height,meta_device_pixel_ratio,meta_labjs_build_flavor,meta_labjs_build_commit
ab892,Introduction general,canvas.Screen,0,weiter,keypress(q),response,11856.778,2235.6000000238,1388.926,2322.222,14179,14191.400000036,2023-05-16T12:23:42Z,14221.746,NULL,NA,NA,NA,NA,NA,NA,NA,NA,NA,NA,123,3,20.2.4,https://neurocog.fernuni.ch/studies/vweber/encoding_immediate/index.html?vp=123&sess=3,"Mozilla/5.0 (Macintosh; Intel Mac OS X 10_15_7) AppleWebKit/537.36 (KHTML, like Gecko) Chrome/113.0.0.0 Safari/537.36",MacIntel,de-DE,de,Europe/Zurich,-120,1440,900,1440,694,1440,742,2,production,f5b4a49f956347addd546a832a3327688c2c0fef
ab892,Introduction practice,canvas.Screen,1_0,NA,keypress(Space),response,11415.953999988,14191.699999988,14188.414,14221.746,25637.699999988,25655.100000024,2023-05-16T12:23:54Z,25671.662,NULL,NA,NA,NA,NA,NA,NA,NA,NA,NA,NA,NA,NA,NA,NA,NA,NA,NA,NA,NA,NA,NA,NA,NA,NA,NA,NA,NA,NA,NA
ab892,Deep Question,html.Page,1_1_0_0_0,NA,NA,form submission,4965.838,25655.600000024,25654.996,25671.662,30637.5,30638.300000012,2023-05-16T12:23:59Z,30655.096,"c(""distractor1"", ""distractor2"", ""distractor3"")",Qualität,mtindo,d,NA,NA,NA,u,NA,NA,NA,NA,NA,NA,NA,NA,NA,NA,NA,NA,NA,NA,NA,NA,NA,NA,NA,NA,NA,NA
ab892,"""Richtig""-Screen",canvas.Screen,1_1_0_0_1,NA,NA,skipped,NA,30640.800000012,NA,NA,30637.5,30641,2023-05-16T12:23:59Z,30655.096,"c(""distractor1"", ""distractor2"", ""distractor3"")",Qualität,mtindo,d,NA,NA,NA,NA,NA,NA,NA,NA,NA,NA,NA,NA,NA,NA,NA,NA,NA,NA,NA,NA,NA,NA,NA,NA,NA,NA
ab892,"""Falsch""-Screen",canvas.Screen,1_1_0_0_2,NA,NA,timeout,4999.8,30642.100000024,30638.43,30655.096,35638.23,35639.900000036,2023-05-16T12:24:04Z,35654.896,"c(""distractor1"", ""distractor2"", ""distractor3"")",Qualität,mtindo,d,NA,NA,NA,NA,NA,0,NA,NA,NA,NA,NA,NA,NA,NA,NA,NA,NA,NA,NA,NA,NA,NA,NA,NA,NA,NA
ab892,deep,flow.Sequence,1_1_0_0,NA,NA,completion,9966.568,25655.600000024,25654.996,25671.662,35638.23,35640.300000012,2023-05-16T12:24:04Z,35654.896,"c(""distractor1"", ""distractor2"", ""distractor3"")",Qualität,mtindo,d,NA,NA,NA,NA,NA,NA,NA,NA,NA,NA,NA,NA,NA,NA,NA,NA,NA,NA,NA,NA,NA,NA,NA,NA,NA,NA
ab892,shallow,flow.Sequence,1_1_0_1,NA,NA,skipped,NA,35640.400000036,NA,NA,35638.23,35640.600000024,2023-05-16T12:24:04Z,35654.896,"c(""distractor1"", ""distractor2"", ""distractor3"")",Qualität,mtindo,d,NA,NA,NA,NA,NA,NA,NA,NA,NA,NA,NA,NA,NA,NA,NA,NA,NA,NA,NA,NA,NA,NA,NA,NA,NA,NA
ab892,task,flow.Sequence,1_1_0,NA,NA,completion,9966.568,25655.5,25654.996,25671.662,35638.23,35640.800000012,2023-05-16T12:24:04Z,35654.896,"c(""distractor1"", ""distractor2"", ""distractor3"")",Qualität,mtindo,d,NA,NA,NA,NA,NA,NA,NA,NA,NA,NA,NA,NA,NA,NA,NA,NA,NA,NA,NA,NA,NA,NA,NA,NA,NA,NA
ab892,deep,flow.Sequence,1_1_1_0,NA,NA,skipped,NA,35641,NA,NA,35638.23,35641.199999988,2023-05-16T12:24:04Z,35654.896,"c(""distractor1"", ""distractor2"", ""distractor3"")",Kritik,lawama,s,dereva,nafasi,mawazo,NA,NA,NA,NA,NA,NA,NA,NA,NA,NA,NA,NA,NA,NA,NA,NA,NA,NA,NA,NA,NA,NA,NA
ab892,Shallow Question,html.Page,1_1_1_1_0,NA,NA,form submission,6994.9040000119,35642.400000036,35638.23,35654.896,42649.800000012,42650.699999988,2023-05-16T12:24:11Z,42654.914,"c(""distractor1"", ""distractor2"", ""distractor3"")",Kritik,lawama,s,dereva,nafasi,mawazo,mawazo,NA,NA,NA,NA,NA,NA,NA,NA,NA,NA,NA,NA,NA,NA,NA,NA,NA,NA,NA,NA,NA,NA
ab892,"""Richtig""-Screen",canvas.Screen,1_1_1_1_1,NA,NA,skipped,NA,42652.300000012,NA,NA,42649.800000012,42652.5,2023-05-16T12:24:11Z,42654.914,"c(""distractor1"", ""distractor2"", ""distractor3"")",Kritik,lawama,s,dereva,nafasi,mawazo,NA,NA,NA,NA,NA,NA,NA,NA,NA,NA,NA,NA,NA,NA,NA,NA,NA,NA,NA,NA,NA,NA,NA
ab892,"""Falsch""-Screen",canvas.Screen,1_1_1_1_2,NA,NA,timeout,4999.8,42654.5,42638.248,42654.914,47638.048,47642,2023-05-16T12:24:16Z,47654.714,"c(""distractor1"", ""distractor2"", ""distractor3"")",Kritik,lawama,s,dereva,nafasi,mawazo,NA,NA,0,NA,NA,NA,NA,NA,NA,NA,NA,NA,NA,NA,NA,NA,NA,NA,NA,NA,NA,NA,NA
ab892,shallow,flow.Sequence,1_1_1_1,NA,NA,completion,11983.152,35642.100000024,35638.23,35654.896,47638.048,47642.5,2023-05-16T12:24:16Z,47654.714,"c(""distractor1"", ""distractor2"", ""distractor3"")",Kritik,lawama,s,dereva,nafasi,mawazo,NA,NA,NA,NA,NA,NA,NA,NA,NA,NA,NA,NA,NA,NA,NA,NA,NA,NA,NA,NA,NA,NA,NA
ab892,task,flow.Sequence,1_1_1,NA,NA,completion,11983.152,35640.900000036,35638.23,35654.896,47638.048,47642.800000012,2023-05-16T12:24:16Z,47654.714,"c(""distractor1"", ""distractor2"", ""distractor3"")",Kritik,lawama,s,dereva,nafasi,mawazo,NA,NA,NA,NA,NA,NA,NA,NA,NA,NA,NA,NA,NA,NA,NA,NA,NA,NA,NA,NA,NA,NA,NA
ab892,Deep Question,html.Page,1_1_2_0_0,NA,NA,form submission,3261.8860000238,47643.100000024,47638.048,47654.714,50916.600000024,50917.100000024,2023-05-16T12:24:19Z,50921.527,"c(""distractor1"", ""distractor2"", ""distractor3"")",Schatten,kivuli,d,NA,NA,NA,h,NA,NA,NA,NA,NA,NA,NA,NA,NA,NA,NA,NA,NA,NA,NA,NA,NA,NA,NA,NA,NA,NA
ab892,"""Richtig""-Screen",canvas.Screen,1_1_2_0_1,NA,NA,skipped,NA,50918.199999988,NA,NA,50916.600000024,50918.400000036,2023-05-16T12:24:19Z,50921.527,"c(""distractor1"", ""distractor2"", ""distractor3"")",Schatten,kivuli,d,NA,NA,NA,NA,NA,NA,NA,NA,NA,NA,NA,NA,NA,NA,NA,NA,NA,NA,NA,NA,NA,NA,NA,NA,NA,NA
ab892,"""Falsch""-Screen",canvas.Screen,1_1_2_0_2,NA,NA,timeout,4999.8,50919.300000012,50904.861,50921.527,55904.661,55908.100000024,2023-05-16T12:24:24Z,55921.327,"c(""distractor1"", ""distractor2"", ""distractor3"")",Schatten,kivuli,d,NA,NA,NA,NA,NA,0,NA,NA,NA,NA,NA,NA,NA,NA,NA,NA,NA,NA,NA,NA,NA,NA,NA,NA,NA,NA
ab892,deep,flow.Sequence,1_1_2_0,NA,NA,completion,8249.947,47643.100000024,47638.048,47654.714,55904.661,55908.5,2023-05-16T12:24:24Z,55921.327,"c(""distractor1"", ""distractor2"", ""distractor3"")",Schatten,kivuli,d,NA,NA,NA,NA,NA,NA,NA,NA,NA,NA,NA,NA,NA,NA,NA,NA,NA,NA,NA,NA,NA,NA,NA,NA,NA,NA
ab892,shallow,flow.Sequence,1_1_2_1,NA,NA,skipped,NA,55908.699999988,NA,NA,55904.661,55908.800000012,2023-05-16T12:24:24Z,55921.327,"c(""distractor1"", ""distractor2"", ""distractor3"")",Schatten,kivuli,d,NA,NA,NA,NA,NA,NA,NA,NA,NA,NA,NA,NA,NA,NA,NA,NA,NA,NA,NA,NA,NA,NA,NA,NA,NA,NA
ab892,task,flow.Sequence,1_1_2,NA,NA,completion,8249.947,47643,47638.048,47654.714,55904.661,55909,2023-05-16T12:24:24Z,55921.327,"c(""distractor1"", ""distractor2"", ""distractor3"")",Schatten,kivuli,d,NA,NA,NA,NA,NA,NA,NA,NA,NA,NA,NA,NA,NA,NA,NA,NA,NA,NA,NA,NA,NA,NA,NA,NA,NA,NA
ab892,deep,flow.Sequence,1_1_3_0,NA,NA,skipped,NA,55909.199999988,NA,NA,55904.661,55909.400000036,2023-05-16T12:24:24Z,55921.327,"c(""distractor1"", ""distractor2"", ""distractor3"")",Gegenwart,hadhara,s,katiba,jokofu,mikopo,NA,NA,NA,NA,NA,NA,NA,NA,NA,NA,NA,NA,NA,NA,NA,NA,NA,NA,NA,NA,NA,NA,NA
ab892,Shallow Question,html.Page,1_1_3_1_0,NA,NA,form submission,5774.2730000238,55909.400000036,55904.661,55921.327,61695.600000024,61695.900000036,2023-05-16T12:24:30Z,61704.695,"c(""distractor1"", ""distractor2"", ""distractor3"")",Gegenwart,hadhara,s,katiba,jokofu,mikopo,hadhara,NA,NA,NA,NA,NA,NA,NA,NA,NA,NA,NA,NA,NA,NA,NA,NA,NA,NA,NA,NA,NA,NA
ab892,"""Richtig""-Screen",canvas.Screen,1_1_3_1_1,NA,NA,timeout,4999.8,61697.5,61688.029,61704.695,66687.829,66691.800000012,2023-05-16T12:24:35Z,66704.495,"c(""distractor1"", ""distractor2"", ""distractor3"")",Gegenwart,hadhara,s,katiba,jokofu,mikopo,NA,NA,1,NA,NA,NA,NA,NA,NA,NA,NA,NA,NA,NA,NA,NA,NA,NA,NA,NA,NA,NA,NA
ab892,"""Falsch""-Screen",canvas.Screen,1_1_3_1_2,NA,NA,skipped,NA,66696.5,NA,NA,66687.829,66696.800000012,2023-05-16T12:24:35Z,66704.495,"c(""distractor1"", ""distractor2"", ""distractor3"")",Gegenwart,hadhara,s,katiba,jokofu,mikopo,NA,NA,NA,NA,NA,NA,NA,NA,NA,NA,NA,NA,NA,NA,NA,NA,NA,NA,NA,NA,NA,NA,NA
ab892,shallow,flow.Sequence,1_1_3_1,NA,NA,completion,10766.502,55909.400000036,55904.661,55921.327,66687.829,66697.100000024,2023-05-16T12:24:35Z,66704.495,"c(""distractor1"", ""distractor2"", ""distractor3"")",Gegenwart,hadhara,s,katiba,jokofu,mikopo,NA,NA,NA,NA,NA,NA,NA,NA,NA,NA,NA,NA,NA,NA,NA,NA,NA,NA,NA,NA,NA,NA,NA
ab892,task,flow.Sequence,1_1_3,NA,NA,completion,10766.502,55909.100000024,55904.661,55921.327,66687.829,66697.300000012,2023-05-16T12:24:35Z,66704.495,"c(""distractor1"", ""distractor2"", ""distractor3"")",Gegenwart,hadhara,s,katiba,jokofu,mikopo,NA,NA,NA,NA,NA,NA,NA,NA,NA,NA,NA,NA,NA,NA,NA,NA,NA,NA,NA,NA,NA,NA,NA
ab892,deep,flow.Sequence,1_1_4_0,NA,NA,skipped,NA,66697.400000036,NA,NA,66687.829,66697.5,2023-05-16T12:24:35Z,66704.495,"c(""distractor1"", ""distractor2"", ""distractor3"")",Rückhalt,msaada,s,muhula,auwali,kiwimbe,NA,NA,NA,NA,NA,NA,NA,NA,NA,NA,NA,NA,NA,NA,NA,NA,NA,NA,NA,NA,NA,NA,NA
ab892,Shallow Question,html.Page,1_1_4_1_0,NA,NA,form submission,7202.4050000358,66697.699999988,66687.829,66704.495,73906.900000036,73907.199999988,2023-05-16T12:24:42Z,73921.166,"c(""distractor1"", ""distractor2"", ""distractor3"")",Rückhalt,msaada,s,muhula,auwali,kiwimbe,kiwimbe,NA,NA,NA,NA,NA,NA,NA,NA,NA,NA,NA,NA,NA,NA,NA,NA,NA,NA,NA,NA,NA,NA
ab892,"""Richtig""-Screen",canvas.Screen,1_1_4_1_1,NA,NA,skipped,NA,73912.199999988,NA,NA,73906.900000036,73912.400000036,2023-05-16T12:24:42Z,73921.166,"c(""distractor1"", ""distractor2"", ""distractor3"")",Rückhalt,msaada,s,muhula,auwali,kiwimbe,NA,NA,NA,NA,NA,NA,NA,NA,NA,NA,NA,NA,NA,NA,NA,NA,NA,NA,NA,NA,NA,NA,NA
ab892,"""Falsch""-Screen",canvas.Screen,1_1_4_1_2,NA,NA,timeout,4999.8,73913.5,73904.5,73921.166,78904.3,78905.5,2023-05-16T12:24:47Z,78920.966,"c(""distractor1"", ""distractor2"", ""distractor3"")",Rückhalt,msaada,s,muhula,auwali,kiwimbe,NA,NA,0,NA,NA,NA,NA,NA,NA,NA,NA,NA,NA,NA,NA,NA,NA,NA,NA,NA,NA,NA,NA
ab892,shallow,flow.Sequence,1_1_4_1,NA,NA,completion,12199.805,66697.600000024,66687.829,66704.495,78904.3,78905.800000012,2023-05-16T12:24:47Z,78920.966,"c(""distractor1"", ""distractor2"", ""distractor3"")",Rückhalt,msaada,s,muhula,auwali,kiwimbe,NA,NA,NA,NA,NA,NA,NA,NA,NA,NA,NA,NA,NA,NA,NA,NA,NA,NA,NA,NA,NA,NA,NA
ab892,task,flow.Sequence,1_1_4,NA,NA,completion,12199.805,66697.300000012,66687.829,66704.495,78904.3,78906,2023-05-16T12:24:47Z,78920.966,"c(""distractor1"", ""distractor2"", ""distractor3"")",Rückhalt,msaada,s,muhula,auwali,kiwimbe,NA,NA,NA,NA,NA,NA,NA,NA,NA,NA,NA,NA,NA,NA,NA,NA,NA,NA,NA,NA,NA,NA,NA
ab892,Deep Question,html.Page,1_1_5_0_0,NA,NA,form submission,3006.3340000119,78906.300000012,78904.3,78920.966,81927.300000012,81927.600000024,2023-05-16T12:24:50Z,81937.805,"c(""distractor1"", ""distractor2"", ""distractor3"")",Gesundheit,salama,d,NA,NA,NA,o,NA,NA,NA,NA,NA,NA,NA,NA,NA,NA,NA,NA,NA,NA,NA,NA,NA,NA,NA,NA,NA,NA
ab892,"""Richtig""-Screen",canvas.Screen,1_1_5_0_1,NA,NA,skipped,NA,81930.600000024,NA,NA,81927.300000012,81930.800000012,2023-05-16T12:24:50Z,81937.805,"c(""distractor1"", ""distractor2"", ""distractor3"")",Gesundheit,salama,d,NA,NA,NA,NA,NA,NA,NA,NA,NA,NA,NA,NA,NA,NA,NA,NA,NA,NA,NA,NA,NA,NA,NA,NA,NA,NA
ab892,"""Falsch""-Screen",canvas.Screen,1_1_5_0_2,NA,NA,timeout,4999.8,81931.800000012,81921.139,81937.805,86920.939,86925.600000024,2023-05-16T12:24:55Z,86937.605,"c(""distractor1"", ""distractor2"", ""distractor3"")",Gesundheit,salama,d,NA,NA,NA,NA,NA,0,NA,NA,NA,NA,NA,NA,NA,NA,NA,NA,NA,NA,NA,NA,NA,NA,NA,NA,NA,NA
ab892,deep,flow.Sequence,1_1_5_0,NA,NA,completion,7999.973,78906.199999988,78904.3,78920.966,86920.939,86925.900000036,2023-05-16T12:24:55Z,86937.605,"c(""distractor1"", ""distractor2"", ""distractor3"")",Gesundheit,salama,d,NA,NA,NA,NA,NA,NA,NA,NA,NA,NA,NA,NA,NA,NA,NA,NA,NA,NA,NA,NA,NA,NA,NA,NA,NA,NA
ab892,shallow,flow.Sequence,1_1_5_1,NA,NA,skipped,NA,86926.100000024,NA,NA,86920.939,86926.199999988,2023-05-16T12:24:55Z,86937.605,"c(""distractor1"", ""distractor2"", ""distractor3"")",Gesundheit,salama,d,NA,NA,NA,NA,NA,NA,NA,NA,NA,NA,NA,NA,NA,NA,NA,NA,NA,NA,NA,NA,NA,NA,NA,NA,NA,NA
ab892,task,flow.Sequence,1_1_5,NA,NA,completion,7999.973,78906.100000024,78904.3,78920.966,86920.939,86926.400000036,2023-05-16T12:24:55Z,86937.605,"c(""distractor1"", ""distractor2"", ""distractor3"")",Gesundheit,salama,d,NA,NA,NA,NA,NA,NA,NA,NA,NA,NA,NA,NA,NA,NA,NA,NA,NA,NA,NA,NA,NA,NA,NA,NA,NA,NA
ab892,block,flow.Loop,1_1,NA,NA,completion,61249.277,25655.5,25654.996,25671.662,86920.939,86926.699999988,2023-05-16T12:24:55Z,86937.605,"c(""distractor1"", ""distractor2"", ""distractor3"")",NA,NA,NA,NA,NA,NA,NA,NA,NA,NA,NA,NA,NA,NA,NA,NA,NA,NA,NA,NA,NA,NA,NA,NA,NA,NA,NA,NA,NA
ab892,Practice,flow.Sequence,1,NA,NA,completion,72699.193,14191.699999988,14188.414,14221.746,86920.939,86927,2023-05-16T12:24:55Z,86937.605,NULL,NA,NA,NA,NA,NA,NA,NA,NA,NA,NA,NA,NA,NA,NA,NA,NA,NA,NA,NA,NA,NA,NA,NA,NA,NA,NA,NA,NA,NA
ab892,Experiment start,canvas.Screen,2,weiter,keypress(q),response,33645.395,86927.100000024,86920.939,86937.605,120583,120595.90000004,2023-05-16T12:25:29Z,120703.377,NULL,NA,NA,NA,NA,NA,NA,NA,NA,NA,NA,NA,NA,NA,NA,NA,NA,NA,NA,NA,NA,NA,NA,NA,NA,NA,NA,NA,NA,NA
ab892,deep,flow.Sequence,3_0_0_0_0_0,NA,NA,skipped,NA,120699.19999999,NA,NA,120583,120699.30000001,2023-05-16T12:25:29Z,120703.377,NULL,Körper,kiwiliwili,s,mapambano,mpatanishi,kiolezo,NA,sdf,NA,0,NA,NA,NA,NA,NA,NA,NA,NA,NA,NA,NA,NA,NA,NA,NA,NA,NA,NA,NA
ab892,Shallow Question,html.Page,3_0_0_0_0_1_0,NA,NA,form submission,9662.9230000119,120699.40000004,120686.711,120703.377,130366.30000001,130366.69999999,2023-05-16T12:25:38Z,130370.26,NULL,Körper,kiwiliwili,s,mapambano,mpatanishi,kiolezo,kiolezo,NA,NA,0,NA,NA,NA,NA,NA,NA,NA,NA,NA,NA,NA,NA,NA,NA,NA,NA,NA,NA,NA
ab892,"""Richtig""-Screen",canvas.Screen,3_0_0_0_0_1_1,NA,NA,skipped,NA,130368.90000004,NA,NA,130366.30000001,130369.10000002,2023-05-16T12:25:38Z,130370.26,NULL,Körper,kiwiliwili,s,mapambano,mpatanishi,kiolezo,NA,sdf,NA,0,NA,NA,NA,NA,NA,NA,NA,NA,NA,NA,NA,NA,NA,NA,NA,NA,NA,NA,NA
ab892,"""Falsch""-Screen",canvas.Screen,3_0_0_0_0_1_2,NA,NA,timeout,4999.8,130370,130353.594,130370.26,135353.394,135357.69999999,2023-05-16T12:25:43Z,135370.06,NULL,Körper,kiwiliwili,s,mapambano,mpatanishi,kiolezo,NA,sdf,0,0,NA,NA,NA,NA,NA,NA,NA,NA,NA,NA,NA,NA,NA,NA,NA,NA,NA,NA,NA
ab892,shallow,flow.Sequence,3_0_0_0_0_1,NA,NA,completion,14650.017,120699.40000004,120686.711,120703.377,135353.394,135358.10000002,2023-05-16T12:25:43Z,135370.06,NULL,Körper,kiwiliwili,s,mapambano,mpatanishi,kiolezo,NA,sdf,NA,0,NA,NA,NA,NA,NA,NA,NA,NA,NA,NA,NA,NA,NA,NA,NA,NA,NA,NA,NA
ab892,task,flow.Sequence,3_0_0_0_0,NA,NA,completion,14650.017,120699.19999999,120686.711,120703.377,135353.394,135358.40000004,2023-05-16T12:25:43Z,135370.06,NULL,Körper,kiwiliwili,s,mapambano,mpatanishi,kiolezo,NA,sdf,NA,0,NA,NA,NA,NA,NA,NA,NA,NA,NA,NA,NA,NA,NA,NA,NA,NA,NA,NA,NA
ab892,Deep Question,html.Page,3_0_0_0_1_0_0,NA,NA,form submission,6100.0400000238,135358.5,135353.394,135370.06,141470.10000002,141470.5,2023-05-16T12:25:49Z,141486.865,NULL,Konkurrent,mshindani,d,NA,NA,NA,u,NA,NA,0,NA,NA,NA,NA,NA,NA,NA,NA,NA,NA,NA,NA,NA,NA,NA,NA,NA,NA,NA
ab892,"""Richtig""-Screen",canvas.Screen,3_0_0_0_1_0_1,NA,NA,skipped,NA,141473.40000004,NA,NA,141470.10000002,141473.5,2023-05-16T12:25:49Z,141486.865,NULL,Konkurrent,mshindani,d,NA,NA,NA,NA,sdf,NA,0,NA,NA,NA,NA,NA,NA,NA,NA,NA,NA,NA,NA,NA,NA,NA,NA,NA,NA,NA
ab892,"""Falsch""-Screen",canvas.Screen,3_0_0_0_1_0_2,NA,NA,timeout,4999.8,141474.19999999,141470.199,141486.865,146469.999,146473.5,2023-05-16T12:25:54Z,146486.665,NULL,Konkurrent,mshindani,d,NA,NA,NA,NA,sdf,0,0,NA,NA,NA,NA,NA,NA,NA,NA,NA,NA,NA,NA,NA,NA,NA,NA,NA,NA,NA
ab892,deep,flow.Sequence,3_0_0_0_1_0,NA,NA,completion,11099.939,135358.5,135353.394,135370.06,146469.999,146473.90000004,2023-05-16T12:25:54Z,146486.665,NULL,Konkurrent,mshindani,d,NA,NA,NA,NA,sdf,NA,0,NA,NA,NA,NA,NA,NA,NA,NA,NA,NA,NA,NA,NA,NA,NA,NA,NA,NA,NA
ab892,shallow,flow.Sequence,3_0_0_0_1_1,NA,NA,skipped,NA,146474,NA,NA,146469.999,146474.10000002,2023-05-16T12:25:54Z,146486.665,NULL,Konkurrent,mshindani,d,NA,NA,NA,NA,sdf,NA,0,NA,NA,NA,NA,NA,NA,NA,NA,NA,NA,NA,NA,NA,NA,NA,NA,NA,NA,NA
ab892,task,flow.Sequence,3_0_0_0_1,NA,NA,completion,11099.939,135358.5,135353.394,135370.06,146469.999,146474.30000001,2023-05-16T12:25:54Z,146486.665,NULL,Konkurrent,mshindani,d,NA,NA,NA,NA,sdf,NA,0,NA,NA,NA,NA,NA,NA,NA,NA,NA,NA,NA,NA,NA,NA,NA,NA,NA,NA,NA
ab892,Deep Question,html.Page,3_0_0_0_2_0_0,NA,NA,form submission,4080.0349999881,146474.5,146469.999,146486.665,150566.69999999,150567.10000002,2023-05-16T12:25:58Z,150570.126,NULL,Vorsorge,tahadhari,d,NA,NA,NA,u,NA,NA,0,NA,NA,NA,NA,NA,NA,NA,NA,NA,NA,NA,NA,NA,NA,NA,NA,NA,NA,NA
ab892,"""Richtig""-Screen",canvas.Screen,3_0_0_0_2_0_1,NA,NA,skipped,NA,150570.10000002,NA,NA,150566.69999999,150570.30000001,2023-05-16T12:25:58Z,150570.126,NULL,Vorsorge,tahadhari,d,NA,NA,NA,NA,sdf,NA,0,NA,NA,NA,NA,NA,NA,NA,NA,NA,NA,NA,NA,NA,NA,NA,NA,NA,NA,NA
ab892,"""Falsch""-Screen",canvas.Screen,3_0_0_0_2_0_2,NA,NA,timeout,4999.8,150571.10000002,150553.46,150570.126,155553.26,155556.19999999,2023-05-16T12:26:03Z,155569.926,NULL,Vorsorge,tahadhari,d,NA,NA,NA,NA,sdf,0,0,NA,NA,NA,NA,NA,NA,NA,NA,NA,NA,NA,NA,NA,NA,NA,NA,NA,NA,NA
ab892,deep,flow.Sequence,3_0_0_0_2_0,NA,NA,completion,9066.595,146474.40000004,146469.999,146486.665,155553.26,155556.60000002,2023-05-16T12:26:03Z,155569.926,NULL,Vorsorge,tahadhari,d,NA,NA,NA,NA,sdf,NA,0,NA,NA,NA,NA,NA,NA,NA,NA,NA,NA,NA,NA,NA,NA,NA,NA,NA,NA,NA
ab892,shallow,flow.Sequence,3_0_0_0_2_1,NA,NA,skipped,NA,155556.69999999,NA,NA,155553.26,155556.80000001,2023-05-16T12:26:03Z,155569.926,NULL,Vorsorge,tahadhari,d,NA,NA,NA,NA,sdf,NA,0,NA,NA,NA,NA,NA,NA,NA,NA,NA,NA,NA,NA,NA,NA,NA,NA,NA,NA,NA
ab892,task,flow.Sequence,3_0_0_0_2,NA,NA,completion,9066.595,146474.40000004,146469.999,146486.665,155553.26,155557,2023-05-16T12:26:03Z,155569.926,NULL,Vorsorge,tahadhari,d,NA,NA,NA,NA,sdf,NA,0,NA,NA,NA,NA,NA,NA,NA,NA,NA,NA,NA,NA,NA,NA,NA,NA,NA,NA,NA
ab892,deep,flow.Sequence,3_0_0_0_3_0,NA,NA,skipped,NA,155557.19999999,NA,NA,155553.26,155557.30000001,2023-05-16T12:26:03Z,155569.926,NULL,Zuwachs,nyongeza,s,matilaba,udhibiti,hudhurio,NA,sdf,NA,0,NA,NA,NA,NA,NA,NA,NA,NA,NA,NA,NA,NA,NA,NA,NA,NA,NA,NA,NA
ab892,Shallow Question,html.Page,3_0_0_0_3_1_0,NA,NA,form submission,11038.574,155557.5,155553.26,155569.926,166608.5,166608.80000001,2023-05-16T12:26:15Z,166619.834,NULL,Zuwachs,nyongeza,s,matilaba,udhibiti,hudhurio,hudhurio,NA,NA,0,NA,NA,NA,NA,NA,NA,NA,NA,NA,NA,NA,NA,NA,NA,NA,NA,NA,NA,NA
ab892,"""Richtig""-Screen",canvas.Screen,3_0_0_0_3_1_1,NA,NA,skipped,NA,166612,NA,NA,166608.5,166612.19999999,2023-05-16T12:26:15Z,166619.834,NULL,Zuwachs,nyongeza,s,matilaba,udhibiti,hudhurio,NA,sdf,NA,0,NA,NA,NA,NA,NA,NA,NA,NA,NA,NA,NA,NA,NA,NA,NA,NA,NA,NA,NA
ab892,"""Falsch""-Screen",canvas.Screen,3_0_0_0_3_1_2,NA,NA,timeout,4999.8,166612.90000004,166603.168,166619.834,171602.968,171605.40000004,2023-05-16T12:26:20Z,171619.634,NULL,Zuwachs,nyongeza,s,matilaba,udhibiti,hudhurio,NA,sdf,0,0,NA,NA,NA,NA,NA,NA,NA,NA,NA,NA,NA,NA,NA,NA,NA,NA,NA,NA,NA
ab892,shallow,flow.Sequence,3_0_0_0_3_1,NA,NA,completion,16033.042,155557.40000004,155553.26,155569.926,171602.968,171605.69999999,2023-05-16T12:26:20Z,171619.634,NULL,Zuwachs,nyongeza,s,matilaba,udhibiti,hudhurio,NA,sdf,NA,0,NA,NA,NA,NA,NA,NA,NA,NA,NA,NA,NA,NA,NA,NA,NA,NA,NA,NA,NA
ab892,task,flow.Sequence,3_0_0_0_3,NA,NA,completion,16033.042,155557.19999999,155553.26,155569.926,171602.968,171605.90000004,2023-05-16T12:26:20Z,171619.634,NULL,Zuwachs,nyongeza,s,matilaba,udhibiti,hudhurio,NA,sdf,NA,0,NA,NA,NA,NA,NA,NA,NA,NA,NA,NA,NA,NA,NA,NA,NA,NA,NA,NA,NA
ab892,Deep Question,html.Page,3_0_0_0_4_0_0,NA,NA,form submission,5382.866,171606,171602.968,171619.634,177002.5,177002.90000004,2023-05-16T12:26:25Z,177019.725,NULL,System,maongozi,d,NA,NA,NA,u,NA,NA,0,NA,NA,NA,NA,NA,NA,NA,NA,NA,NA,NA,NA,NA,NA,NA,NA,NA,NA,NA
ab892,"""Richtig""-Screen",canvas.Screen,3_0_0_0_4_0_1,NA,NA,skipped,NA,177005.90000004,NA,NA,177002.5,177006.10000002,2023-05-16T12:26:25Z,177019.725,NULL,System,maongozi,d,NA,NA,NA,NA,sdf,NA,0,NA,NA,NA,NA,NA,NA,NA,NA,NA,NA,NA,NA,NA,NA,NA,NA,NA,NA,NA
ab892,"""Falsch""-Screen",canvas.Screen,3_0_0_0_4_0_2,NA,NA,timeout,4999.8,177007,177003.059,177019.725,182002.859,182004,2023-05-16T12:26:30Z,182019.525,NULL,System,maongozi,d,NA,NA,NA,NA,sdf,0,0,NA,NA,NA,NA,NA,NA,NA,NA,NA,NA,NA,NA,NA,NA,NA,NA,NA,NA,NA
ab892,deep,flow.Sequence,3_0_0_0_4_0,NA,NA,completion,10383.225,171606,171602.968,171619.634,182002.859,182004.40000004,2023-05-16T12:26:30Z,182019.525,NULL,System,maongozi,d,NA,NA,NA,NA,sdf,NA,0,NA,NA,NA,NA,NA,NA,NA,NA,NA,NA,NA,NA,NA,NA,NA,NA,NA,NA,NA
ab892,shallow,flow.Sequence,3_0_0_0_4_1,NA,NA,skipped,NA,182004.5,NA,NA,182002.859,182004.60000002,2023-05-16T12:26:30Z,182019.525,NULL,System,maongozi,d,NA,NA,NA,NA,sdf,NA,0,NA,NA,NA,NA,NA,NA,NA,NA,NA,NA,NA,NA,NA,NA,NA,NA,NA,NA,NA
ab892,task,flow.Sequence,3_0_0_0_4,NA,NA,completion,10383.225,171606,171602.968,171619.634,182002.859,182004.80000001,2023-05-16T12:26:30Z,182019.525,NULL,System,maongozi,d,NA,NA,NA,NA,sdf,NA,0,NA,NA,NA,NA,NA,NA,NA,NA,NA,NA,NA,NA,NA,NA,NA,NA,NA,NA,NA
ab892,Deep Question,html.Page,3_0_0_0_5_0_0,NA,NA,form submission,5730.1749999881,182005,182002.859,182019.525,187749.69999999,187750,2023-05-16T12:26:36Z,187752.901,NULL,Lawine,banguko,d,NA,NA,NA,u,NA,NA,0,NA,NA,NA,NA,NA,NA,NA,NA,NA,NA,NA,NA,NA,NA,NA,NA,NA,NA,NA
ab892,"""Richtig""-Screen",canvas.Screen,3_0_0_0_5_0_1,NA,NA,skipped,NA,187752.80000001,NA,NA,187749.69999999,187753,2023-05-16T12:26:36Z,187752.901,NULL,Lawine,banguko,d,NA,NA,NA,NA,sdf,NA,0,NA,NA,NA,NA,NA,NA,NA,NA,NA,NA,NA,NA,NA,NA,NA,NA,NA,NA,NA
ab892,"""Falsch""-Screen",canvas.Screen,3_0_0_0_5_0_2,NA,NA,timeout,4999.8,187753.90000004,187736.235,187752.901,192736.035,192738.69999999,2023-05-16T12:26:41Z,192752.701,NULL,Lawine,banguko,d,NA,NA,NA,NA,sdf,0,0,NA,NA,NA,NA,NA,NA,NA,NA,NA,NA,NA,NA,NA,NA,NA,NA,NA,NA,NA
ab892,deep,flow.Sequence,3_0_0_0_5_0,NA,NA,completion,10716.51,182005,182002.859,182019.525,192736.035,192739,2023-05-16T12:26:41Z,192752.701,NULL,Lawine,banguko,d,NA,NA,NA,NA,sdf,NA,0,NA,NA,NA,NA,NA,NA,NA,NA,NA,NA,NA,NA,NA,NA,NA,NA,NA,NA,NA
ab892,shallow,flow.Sequence,3_0_0_0_5_1,NA,NA,skipped,NA,192739,NA,NA,192736.035,192739.10000002,2023-05-16T12:26:41Z,192752.701,NULL,Lawine,banguko,d,NA,NA,NA,NA,sdf,NA,0,NA,NA,NA,NA,NA,NA,NA,NA,NA,NA,NA,NA,NA,NA,NA,NA,NA,NA,NA
ab892,task,flow.Sequence,3_0_0_0_5,NA,NA,completion,10716.51,182005,182002.859,182019.525,192736.035,192739.19999999,2023-05-16T12:26:41Z,192752.701,NULL,Lawine,banguko,d,NA,NA,NA,NA,sdf,NA,0,NA,NA,NA,NA,NA,NA,NA,NA,NA,NA,NA,NA,NA,NA,NA,NA,NA,NA,NA
ab892,deep,flow.Sequence,3_0_0_0_6_0,NA,NA,skipped,NA,192739.5,NA,NA,192736.035,192739.69999999,2023-05-16T12:26:41Z,192752.701,NULL,Übersicht,kilindo,s,mgusano,chipukizi,kulinganisha,NA,sdf,NA,0,NA,NA,NA,NA,NA,NA,NA,NA,NA,NA,NA,NA,NA,NA,NA,NA,NA,NA,NA
ab892,Shallow Question,html.Page,3_0_0_0_6_1_0,NA,NA,form submission,6889.3990000238,192739.69999999,192736.035,192752.701,199642.10000002,199642.5,2023-05-16T12:26:48Z,199652.706,NULL,Übersicht,kilindo,s,mgusano,chipukizi,kulinganisha,kilindo,NA,NA,0,NA,NA,NA,NA,NA,NA,NA,NA,NA,NA,NA,NA,NA,NA,NA,NA,NA,NA,NA
ab892,"""Richtig""-Screen",canvas.Screen,3_0_0_0_6_1_1,NA,NA,timeout,4999.8,199645.40000004,199636.04,199652.706,204635.84,204639.40000004,2023-05-16T12:26:53Z,204652.506,NULL,Übersicht,kilindo,s,mgusano,chipukizi,kulinganisha,NA,sdf,1,0,NA,NA,NA,NA,NA,NA,NA,NA,NA,NA,NA,NA,NA,NA,NA,NA,NA,NA,NA
ab892,"""Falsch""-Screen",canvas.Screen,3_0_0_0_6_1_2,NA,NA,skipped,NA,204643.40000004,NA,NA,204635.84,204643.60000002,2023-05-16T12:26:53Z,204652.506,NULL,Übersicht,kilindo,s,mgusano,chipukizi,kulinganisha,NA,sdf,NA,0,NA,NA,NA,NA,NA,NA,NA,NA,NA,NA,NA,NA,NA,NA,NA,NA,NA,NA,NA
ab892,shallow,flow.Sequence,3_0_0_0_6_1,NA,NA,completion,11883.139,192739.69999999,192736.035,192752.701,204635.84,204643.80000001,2023-05-16T12:26:53Z,204652.506,NULL,Übersicht,kilindo,s,mgusano,chipukizi,kulinganisha,NA,sdf,NA,0,NA,NA,NA,NA,NA,NA,NA,NA,NA,NA,NA,NA,NA,NA,NA,NA,NA,NA,NA
ab892,task,flow.Sequence,3_0_0_0_6,NA,NA,completion,11883.139,192739.5,192736.035,192752.701,204635.84,204644,2023-05-16T12:26:53Z,204652.506,NULL,Übersicht,kilindo,s,mgusano,chipukizi,kulinganisha,NA,sdf,NA,0,NA,NA,NA,NA,NA,NA,NA,NA,NA,NA,NA,NA,NA,NA,NA,NA,NA,NA,NA
ab892,deep,flow.Sequence,3_0_0_0_7_0,NA,NA,skipped,NA,204644.10000002,NA,NA,204635.84,204644.30000001,2023-05-16T12:26:53Z,204652.506,NULL,Symbol,kielezo,s,kinyume,nderemo,utayari,NA,sdf,NA,0,NA,NA,NA,NA,NA,NA,NA,NA,NA,NA,NA,NA,NA,NA,NA,NA,NA,NA,NA
ab892,Shallow Question,html.Page,3_0_0_0_7_1_0,NA,NA,form submission,7034.3940000358,204644.40000004,204635.84,204652.506,211686.90000004,211687.10000002,2023-05-16T12:27:00Z,211702.536,NULL,Symbol,kielezo,s,kinyume,nderemo,utayari,kielezo,NA,NA,0,NA,NA,NA,NA,NA,NA,NA,NA,NA,NA,NA,NA,NA,NA,NA,NA,NA,NA,NA
ab892,"""Richtig""-Screen",canvas.Screen,3_0_0_0_7_1_1,NA,NA,timeout,4999.8,211689.80000001,211685.87,211702.536,216685.67,216690.30000001,2023-05-16T12:27:05Z,216702.336,NULL,Symbol,kielezo,s,kinyume,nderemo,utayari,NA,sdf,1,0,NA,NA,NA,NA,NA,NA,NA,NA,NA,NA,NA,NA,NA,NA,NA,NA,NA,NA,NA
ab892,"""Falsch""-Screen",canvas.Screen,3_0_0_0_7_1_2,NA,NA,skipped,NA,216694.10000002,NA,NA,216685.67,216694.5,2023-05-16T12:27:05Z,216702.336,NULL,Symbol,kielezo,s,kinyume,nderemo,utayari,NA,sdf,NA,0,NA,NA,NA,NA,NA,NA,NA,NA,NA,NA,NA,NA,NA,NA,NA,NA,NA,NA,NA
ab892,shallow,flow.Sequence,3_0_0_0_7_1,NA,NA,completion,12033.164,204644.40000004,204635.84,204652.506,216685.67,216694.69999999,2023-05-16T12:27:05Z,216702.336,NULL,Symbol,kielezo,s,kinyume,nderemo,utayari,NA,sdf,NA,0,NA,NA,NA,NA,NA,NA,NA,NA,NA,NA,NA,NA,NA,NA,NA,NA,NA,NA,NA
ab892,task,flow.Sequence,3_0_0_0_7,NA,NA,completion,12033.164,204644.10000002,204635.84,204652.506,216685.67,216694.90000004,2023-05-16T12:27:05Z,216702.336,NULL,Symbol,kielezo,s,kinyume,nderemo,utayari,NA,sdf,NA,0,NA,NA,NA,NA,NA,NA,NA,NA,NA,NA,NA,NA,NA,NA,NA,NA,NA,NA,NA
ab892,block,flow.Loop,3_0_0_0,NA,NA,completion,95982.293,120699.19999999,120686.711,120703.377,216685.67,216695.10000002,2023-05-16T12:27:05Z,216702.336,NULL,NA,NA,NA,NA,NA,NA,NA,sdf,NA,0,NA,NA,NA,NA,NA,NA,NA,NA,NA,NA,NA,NA,NA,NA,NA,NA,NA,NA,NA
ab892,weiter,canvas.Screen,3_0_0_1,sdf,keypress(Space),response,993.26400002383,216695.19999999,216685.67,216702.336,217695.60000002,217703.5,2023-05-16T12:27:06Z,217752.609,NULL,NA,NA,NA,NA,NA,NA,NA,sdf,NA,0,NA,NA,NA,NA,NA,NA,NA,NA,NA,NA,NA,NA,NA,NA,NA,NA,NA,NA,NA
ab892,check continue,flow.Sequence,3_0_0,NA,NA,completion,96992.223000024,120699.19999999,120686.711,120703.377,217695.60000002,217703.90000004,2023-05-16T12:27:06Z,217752.609,NULL,NA,NA,NA,NA,NA,NA,NA,sdf,NA,0,NA,NA,NA,NA,NA,NA,NA,NA,NA,NA,NA,NA,NA,NA,NA,NA,NA,NA,NA
ab892,Deep Question,html.Page,3_0_1_0_0_0_0,NA,NA,form submission,4521.391,217745.40000004,217702.611,217752.609,222274,222274.69999999,2023-05-16T12:27:10Z,222302.427,NULL,System,maongozi,d,NA,NA,NA,u,NA,NA,1,NA,NA,NA,NA,NA,NA,NA,NA,NA,NA,NA,NA,NA,NA,NA,NA,NA,NA,NA
ab892,"""Richtig""-Screen",canvas.Screen,3_0_1_0_0_0_1,NA,NA,skipped,NA,222277.60000002,NA,NA,222274,222277.80000001,2023-05-16T12:27:10Z,222302.427,NULL,System,maongozi,d,NA,NA,NA,NA,sdfdsf,NA,1,NA,NA,NA,NA,NA,NA,NA,NA,NA,NA,NA,NA,NA,NA,NA,NA,NA,NA,NA
ab892,"""Falsch""-Screen",canvas.Screen,3_0_1_0_0_0_2,NA,NA,timeout,4999.8,222278.5,222285.761,222302.427,227285.561,227289.30000001,2023-05-16T12:27:15Z,227302.227,NULL,System,maongozi,d,NA,NA,NA,NA,sdfdsf,0,1,NA,NA,NA,NA,NA,NA,NA,NA,NA,NA,NA,NA,NA,NA,NA,NA,NA,NA,NA
ab892,deep,flow.Sequence,3_0_1_0_0_0,NA,NA,completion,9532.952,217745.40000004,217702.611,217752.609,227285.561,227289.60000002,2023-05-16T12:27:15Z,227302.227,NULL,System,maongozi,d,NA,NA,NA,NA,sdfdsf,NA,1,NA,NA,NA,NA,NA,NA,NA,NA,NA,NA,NA,NA,NA,NA,NA,NA,NA,NA,NA
ab892,shallow,flow.Sequence,3_0_1_0_0_1,NA,NA,skipped,NA,227289.80000001,NA,NA,227285.561,227289.90000004,2023-05-16T12:27:15Z,227302.227,NULL,System,maongozi,d,NA,NA,NA,NA,sdfdsf,NA,1,NA,NA,NA,NA,NA,NA,NA,NA,NA,NA,NA,NA,NA,NA,NA,NA,NA,NA,NA
ab892,task,flow.Sequence,3_0_1_0_0,NA,NA,completion,9532.952,217745.30000001,217702.611,217752.609,227285.561,227290.10000002,2023-05-16T12:27:15Z,227302.227,NULL,System,maongozi,d,NA,NA,NA,NA,sdfdsf,NA,1,NA,NA,NA,NA,NA,NA,NA,NA,NA,NA,NA,NA,NA,NA,NA,NA,NA,NA,NA
ab892,deep,flow.Sequence,3_0_1_0_1_0,NA,NA,skipped,NA,227290.19999999,NA,NA,227285.561,227290.30000001,2023-05-16T12:27:15Z,227302.227,NULL,Symbol,kielezo,s,kinyume,nderemo,utayari,NA,sdfdsf,NA,1,NA,NA,NA,NA,NA,NA,NA,NA,NA,NA,NA,NA,NA,NA,NA,NA,NA,NA,NA
ab892,Shallow Question,html.Page,3_0_1_0_1_1_0,NA,NA,form submission,4471.9729999881,227290.5,227285.561,227302.227,231774.19999999,231774.60000002,2023-05-16T12:27:20Z,231785.658,NULL,Symbol,kielezo,s,kinyume,nderemo,utayari,kielezo,NA,NA,1,NA,NA,NA,NA,NA,NA,NA,NA,NA,NA,NA,NA,NA,NA,NA,NA,NA,NA,NA
ab892,"""Richtig""-Screen",canvas.Screen,3_0_1_0_1_1_1,NA,NA,timeout,4999.8,231779.10000002,231768.992,231785.658,236768.792,236771.90000004,2023-05-16T12:27:25Z,236785.458,NULL,Symbol,kielezo,s,kinyume,nderemo,utayari,NA,sdfdsf,1,1,NA,NA,NA,NA,NA,NA,NA,NA,NA,NA,NA,NA,NA,NA,NA,NA,NA,NA,NA
ab892,"""Falsch""-Screen",canvas.Screen,3_0_1_0_1_1_2,NA,NA,skipped,NA,236775.60000002,NA,NA,236768.792,236775.69999999,2023-05-16T12:27:25Z,236785.458,NULL,Symbol,kielezo,s,kinyume,nderemo,utayari,NA,sdfdsf,NA,1,NA,NA,NA,NA,NA,NA,NA,NA,NA,NA,NA,NA,NA,NA,NA,NA,NA,NA,NA
ab892,shallow,flow.Sequence,3_0_1_0_1_1,NA,NA,completion,9466.565,227290.5,227285.561,227302.227,236768.792,236776.19999999,2023-05-16T12:27:25Z,236785.458,NULL,Symbol,kielezo,s,kinyume,nderemo,utayari,NA,sdfdsf,NA,1,NA,NA,NA,NA,NA,NA,NA,NA,NA,NA,NA,NA,NA,NA,NA,NA,NA,NA,NA
ab892,task,flow.Sequence,3_0_1_0_1,NA,NA,completion,9466.565,227290.19999999,227285.561,227302.227,236768.792,236777,2023-05-16T12:27:25Z,236785.458,NULL,Symbol,kielezo,s,kinyume,nderemo,utayari,NA,sdfdsf,NA,1,NA,NA,NA,NA,NA,NA,NA,NA,NA,NA,NA,NA,NA,NA,NA,NA,NA,NA,NA
ab892,Deep Question,html.Page,3_0_1_0_2_0_0,NA,NA,form submission,7601.042,236777.40000004,236768.792,236785.458,244386.5,244386.69999999,2023-05-16T12:27:32Z,244402.09,NULL,Lawine,banguko,d,NA,NA,NA,banguko,NA,NA,1,NA,NA,NA,NA,NA,NA,NA,NA,NA,NA,NA,NA,NA,NA,NA,NA,NA,NA,NA
ab892,"""Richtig""-Screen",canvas.Screen,3_0_1_0_2_0_1,NA,NA,timeout,4999.8,244388.69999999,244385.424,244402.09,249385.224,249387.40000004,2023-05-16T12:27:37Z,249401.89,NULL,Lawine,banguko,d,NA,NA,NA,NA,sdfdsf,1,1,NA,NA,NA,NA,NA,NA,NA,NA,NA,NA,NA,NA,NA,NA,NA,NA,NA,NA,NA
ab892,"""Falsch""-Screen",canvas.Screen,3_0_1_0_2_0_2,NA,NA,skipped,NA,249391,NA,NA,249385.224,249391.30000001,2023-05-16T12:27:37Z,249401.89,NULL,Lawine,banguko,d,NA,NA,NA,NA,sdfdsf,NA,1,NA,NA,NA,NA,NA,NA,NA,NA,NA,NA,NA,NA,NA,NA,NA,NA,NA,NA,NA
ab892,deep,flow.Sequence,3_0_1_0_2_0,NA,NA,completion,12599.766,236777.30000001,236768.792,236785.458,249385.224,249391.60000002,2023-05-16T12:27:37Z,249401.89,NULL,Lawine,banguko,d,NA,NA,NA,NA,sdfdsf,NA,1,NA,NA,NA,NA,NA,NA,NA,NA,NA,NA,NA,NA,NA,NA,NA,NA,NA,NA,NA
ab892,shallow,flow.Sequence,3_0_1_0_2_1,NA,NA,skipped,NA,249391.69999999,NA,NA,249385.224,249391.80000001,2023-05-16T12:27:37Z,249401.89,NULL,Lawine,banguko,d,NA,NA,NA,NA,sdfdsf,NA,1,NA,NA,NA,NA,NA,NA,NA,NA,NA,NA,NA,NA,NA,NA,NA,NA,NA,NA,NA
ab892,task,flow.Sequence,3_0_1_0_2,NA,NA,completion,12599.766,236777.30000001,236768.792,236785.458,249385.224,249392,2023-05-16T12:27:37Z,249401.89,NULL,Lawine,banguko,d,NA,NA,NA,NA,sdfdsf,NA,1,NA,NA,NA,NA,NA,NA,NA,NA,NA,NA,NA,NA,NA,NA,NA,NA,NA,NA,NA
ab892,deep,flow.Sequence,3_0_1_0_3_0,NA,NA,skipped,NA,249392.10000002,NA,NA,249385.224,249392.19999999,2023-05-16T12:27:37Z,249401.89,NULL,Zuwachs,nyongeza,s,matilaba,udhibiti,hudhurio,NA,sdfdsf,NA,1,NA,NA,NA,NA,NA,NA,NA,NA,NA,NA,NA,NA,NA,NA,NA,NA,NA,NA,NA
ab892,Shallow Question,html.Page,3_0_1_0_3_1_0,NA,NA,form submission,3336.0100000357,249392.40000004,249385.224,249401.89,252737.90000004,252738.19999999,2023-05-16T12:27:41Z,252752.064,NULL,Zuwachs,nyongeza,s,matilaba,udhibiti,hudhurio,nyongeza,NA,NA,1,NA,NA,NA,NA,NA,NA,NA,NA,NA,NA,NA,NA,NA,NA,NA,NA,NA,NA,NA
ab892,"""Richtig""-Screen",canvas.Screen,3_0_1_0_3_1_1,NA,NA,timeout,4999.8,252741.69999999,252735.398,252752.064,257735.198,257737.19999999,2023-05-16T12:27:46Z,257751.864,NULL,Zuwachs,nyongeza,s,matilaba,udhibiti,hudhurio,NA,sdfdsf,1,1,NA,NA,NA,NA,NA,NA,NA,NA,NA,NA,NA,NA,NA,NA,NA,NA,NA,NA,NA
ab892,"""Falsch""-Screen",canvas.Screen,3_0_1_0_3_1_2,NA,NA,skipped,NA,257741.40000004,NA,NA,257735.198,257741.60000002,2023-05-16T12:27:46Z,257751.864,NULL,Zuwachs,nyongeza,s,matilaba,udhibiti,hudhurio,NA,sdfdsf,NA,1,NA,NA,NA,NA,NA,NA,NA,NA,NA,NA,NA,NA,NA,NA,NA,NA,NA,NA,NA
ab892,shallow,flow.Sequence,3_0_1_0_3_1,NA,NA,completion,8333.308,249392.30000001,249385.224,249401.89,257735.198,257741.90000004,2023-05-16T12:27:46Z,257751.864,NULL,Zuwachs,nyongeza,s,matilaba,udhibiti,hudhurio,NA,sdfdsf,NA,1,NA,NA,NA,NA,NA,NA,NA,NA,NA,NA,NA,NA,NA,NA,NA,NA,NA,NA,NA
ab892,task,flow.Sequence,3_0_1_0_3,NA,NA,completion,8333.308,249392.10000002,249385.224,249401.89,257735.198,257742.10000002,2023-05-16T12:27:46Z,257751.864,NULL,Zuwachs,nyongeza,s,matilaba,udhibiti,hudhurio,NA,sdfdsf,NA,1,NA,NA,NA,NA,NA,NA,NA,NA,NA,NA,NA,NA,NA,NA,NA,NA,NA,NA,NA
ab892,Deep Question,html.Page,3_0_1_0_4_0_0,NA,NA,form submission,5954.7360000238,257742.30000001,257735.198,257751.864,263706.60000002,263707,2023-05-16T12:27:52Z,263718.556,NULL,Konkurrent,mshindani,d,NA,NA,NA,u,NA,NA,1,NA,NA,NA,NA,NA,NA,NA,NA,NA,NA,NA,NA,NA,NA,NA,NA,NA,NA,NA
ab892,"""Richtig""-Screen",canvas.Screen,3_0_1_0_4_0_1,NA,NA,skipped,NA,263709.69999999,NA,NA,263706.60000002,263709.90000004,2023-05-16T12:27:52Z,263718.556,NULL,Konkurrent,mshindani,d,NA,NA,NA,NA,sdfdsf,NA,1,NA,NA,NA,NA,NA,NA,NA,NA,NA,NA,NA,NA,NA,NA,NA,NA,NA,NA,NA
ab892,"""Falsch""-Screen",canvas.Screen,3_0_1_0_4_0_2,NA,NA,timeout,4999.8,263710.69999999,263701.89,263718.556,268701.69,268706.40000004,2023-05-16T12:27:57Z,268718.356,NULL,Konkurrent,mshindani,d,NA,NA,NA,NA,sdfdsf,0,1,NA,NA,NA,NA,NA,NA,NA,NA,NA,NA,NA,NA,NA,NA,NA,NA,NA,NA,NA
ab892,deep,flow.Sequence,3_0_1_0_4_0,NA,NA,completion,10949.826,257742.19999999,257735.198,257751.864,268701.69,268706.80000001,2023-05-16T12:27:57Z,268718.356,NULL,Konkurrent,mshindani,d,NA,NA,NA,NA,sdfdsf,NA,1,NA,NA,NA,NA,NA,NA,NA,NA,NA,NA,NA,NA,NA,NA,NA,NA,NA,NA,NA
ab892,shallow,flow.Sequence,3_0_1_0_4_1,NA,NA,skipped,NA,268707,NA,NA,268701.69,268707.19999999,2023-05-16T12:27:57Z,268718.356,NULL,Konkurrent,mshindani,d,NA,NA,NA,NA,sdfdsf,NA,1,NA,NA,NA,NA,NA,NA,NA,NA,NA,NA,NA,NA,NA,NA,NA,NA,NA,NA,NA
ab892,task,flow.Sequence,3_0_1_0_4,NA,NA,completion,10949.826,257742.19999999,257735.198,257751.864,268701.69,268707.30000001,2023-05-16T12:27:57Z,268718.356,NULL,Konkurrent,mshindani,d,NA,NA,NA,NA,sdfdsf,NA,1,NA,NA,NA,NA,NA,NA,NA,NA,NA,NA,NA,NA,NA,NA,NA,NA,NA,NA,NA
ab892,Deep Question,html.Page,3_0_1_0_5_0_0,NA,NA,form submission,9517.5440000357,268707.5,268701.69,268718.356,278235.90000004,278236.40000004,2023-05-16T12:28:06Z,278251.586,NULL,Vorsorge,tahadhari,d,NA,NA,NA,k,NA,NA,1,NA,NA,NA,NA,NA,NA,NA,NA,NA,NA,NA,NA,NA,NA,NA,NA,NA,NA,NA
ab892,"""Richtig""-Screen",canvas.Screen,3_0_1_0_5_0_1,NA,NA,skipped,NA,278239.10000002,NA,NA,278235.90000004,278239.30000001,2023-05-16T12:28:06Z,278251.586,NULL,Vorsorge,tahadhari,d,NA,NA,NA,NA,sdfdsf,NA,1,NA,NA,NA,NA,NA,NA,NA,NA,NA,NA,NA,NA,NA,NA,NA,NA,NA,NA,NA
ab892,"""Falsch""-Screen",canvas.Screen,3_0_1_0_5_0_2,NA,NA,timeout,4999.8,278240.19999999,278234.92,278251.586,283234.72,283236.10000002,2023-05-16T12:28:11Z,283251.386,NULL,Vorsorge,tahadhari,d,NA,NA,NA,NA,sdfdsf,0,1,NA,NA,NA,NA,NA,NA,NA,NA,NA,NA,NA,NA,NA,NA,NA,NA,NA,NA,NA
ab892,deep,flow.Sequence,3_0_1_0_5_0,NA,NA,completion,14516.364,268707.5,268701.69,268718.356,283234.72,283236.60000002,2023-05-16T12:28:11Z,283251.386,NULL,Vorsorge,tahadhari,d,NA,NA,NA,NA,sdfdsf,NA,1,NA,NA,NA,NA,NA,NA,NA,NA,NA,NA,NA,NA,NA,NA,NA,NA,NA,NA,NA
ab892,shallow,flow.Sequence,3_0_1_0_5_1,NA,NA,skipped,NA,283236.69999999,NA,NA,283234.72,283236.80000001,2023-05-16T12:28:11Z,283251.386,NULL,Vorsorge,tahadhari,d,NA,NA,NA,NA,sdfdsf,NA,1,NA,NA,NA,NA,NA,NA,NA,NA,NA,NA,NA,NA,NA,NA,NA,NA,NA,NA,NA
ab892,task,flow.Sequence,3_0_1_0_5,NA,NA,completion,14516.364,268707.40000004,268701.69,268718.356,283234.72,283237,2023-05-16T12:28:11Z,283251.386,NULL,Vorsorge,tahadhari,d,NA,NA,NA,NA,sdfdsf,NA,1,NA,NA,NA,NA,NA,NA,NA,NA,NA,NA,NA,NA,NA,NA,NA,NA,NA,NA,NA
ab892,deep,flow.Sequence,3_0_1_0_6_0,NA,NA,skipped,NA,283237.10000002,NA,NA,283234.72,283237.30000001,2023-05-16T12:28:11Z,283251.386,NULL,Körper,kiwiliwili,s,mapambano,mpatanishi,kiolezo,NA,sdfdsf,NA,1,NA,NA,NA,NA,NA,NA,NA,NA,NA,NA,NA,NA,NA,NA,NA,NA,NA,NA,NA
ab892,Shallow Question,html.Page,3_0_1_0_6_1_0,NA,NA,form submission,3261.7140000238,283237.40000004,283234.72,283251.386,286513.10000002,286513.40000004,2023-05-16T12:28:14Z,286518.265,NULL,Körper,kiwiliwili,s,mapambano,mpatanishi,kiolezo,kiwiliwili,NA,NA,1,NA,NA,NA,NA,NA,NA,NA,NA,NA,NA,NA,NA,NA,NA,NA,NA,NA,NA,NA
ab892,"""Richtig""-Screen",canvas.Screen,3_0_1_0_6_1_1,NA,NA,timeout,4999.8,286516,286501.599,286518.265,291501.399,291502.69999999,2023-05-16T12:28:19Z,291518.065,NULL,Körper,kiwiliwili,s,mapambano,mpatanishi,kiolezo,NA,sdfdsf,1,1,NA,NA,NA,NA,NA,NA,NA,NA,NA,NA,NA,NA,NA,NA,NA,NA,NA,NA,NA
ab892,"""Falsch""-Screen",canvas.Screen,3_0_1_0_6_1_2,NA,NA,skipped,NA,291506.60000002,NA,NA,291501.399,291506.90000004,2023-05-16T12:28:19Z,291518.065,NULL,Körper,kiwiliwili,s,mapambano,mpatanishi,kiolezo,NA,sdfdsf,NA,1,NA,NA,NA,NA,NA,NA,NA,NA,NA,NA,NA,NA,NA,NA,NA,NA,NA,NA,NA
ab892,shallow,flow.Sequence,3_0_1_0_6_1,NA,NA,completion,8250.013,283237.40000004,283234.72,283251.386,291501.399,291507.10000002,2023-05-16T12:28:19Z,291518.065,NULL,Körper,kiwiliwili,s,mapambano,mpatanishi,kiolezo,NA,sdfdsf,NA,1,NA,NA,NA,NA,NA,NA,NA,NA,NA,NA,NA,NA,NA,NA,NA,NA,NA,NA,NA
ab892,task,flow.Sequence,3_0_1_0_6,NA,NA,completion,8250.013,283237.10000002,283234.72,283251.386,291501.399,291507.30000001,2023-05-16T12:28:19Z,291518.065,NULL,Körper,kiwiliwili,s,mapambano,mpatanishi,kiolezo,NA,sdfdsf,NA,1,NA,NA,NA,NA,NA,NA,NA,NA,NA,NA,NA,NA,NA,NA,NA,NA,NA,NA,NA
ab892,deep,flow.Sequence,3_0_1_0_7_0,NA,NA,skipped,NA,291507.40000004,NA,NA,291501.399,291507.5,2023-05-16T12:28:19Z,291518.065,NULL,Übersicht,kilindo,s,mgusano,chipukizi,kulinganisha,NA,sdfdsf,NA,1,NA,NA,NA,NA,NA,NA,NA,NA,NA,NA,NA,NA,NA,NA,NA,NA,NA,NA,NA
ab892,Shallow Question,html.Page,3_0_1_0_7_1_0,NA,NA,form submission,4761.1349999881,291507.69999999,291501.399,291518.065,296279.19999999,296279.5,2023-05-16T12:28:24Z,296284.81,NULL,Übersicht,kilindo,s,mgusano,chipukizi,kulinganisha,kilindo,NA,NA,1,NA,NA,NA,NA,NA,NA,NA,NA,NA,NA,NA,NA,NA,NA,NA,NA,NA,NA,NA
ab892,"""Richtig""-Screen",canvas.Screen,3_0_1_0_7_1_1,NA,NA,timeout,4999.8,296282.60000002,296268.144,296284.81,301267.944,301272.19999999,2023-05-16T12:28:29Z,301284.61,NULL,Übersicht,kilindo,s,mgusano,chipukizi,kulinganisha,NA,sdfdsf,1,1,NA,NA,NA,NA,NA,NA,NA,NA,NA,NA,NA,NA,NA,NA,NA,NA,NA,NA,NA
ab892,"""Falsch""-Screen",canvas.Screen,3_0_1_0_7_1_2,NA,NA,skipped,NA,301278.5,NA,NA,301267.944,301279,2023-05-16T12:28:29Z,301284.61,NULL,Übersicht,kilindo,s,mgusano,chipukizi,kulinganisha,NA,sdfdsf,NA,1,NA,NA,NA,NA,NA,NA,NA,NA,NA,NA,NA,NA,NA,NA,NA,NA,NA,NA,NA
ab892,shallow,flow.Sequence,3_0_1_0_7_1,NA,NA,completion,9749.879,291507.60000002,291501.399,291518.065,301267.944,301279.30000001,2023-05-16T12:28:29Z,301284.61,NULL,Übersicht,kilindo,s,mgusano,chipukizi,kulinganisha,NA,sdfdsf,NA,1,NA,NA,NA,NA,NA,NA,NA,NA,NA,NA,NA,NA,NA,NA,NA,NA,NA,NA,NA
ab892,task,flow.Sequence,3_0_1_0_7,NA,NA,completion,9749.879,291507.40000004,291501.399,291518.065,301267.944,301279.5,2023-05-16T12:28:29Z,301284.61,NULL,Übersicht,kilindo,s,mgusano,chipukizi,kulinganisha,NA,sdfdsf,NA,1,NA,NA,NA,NA,NA,NA,NA,NA,NA,NA,NA,NA,NA,NA,NA,NA,NA,NA,NA
ab892,block,flow.Loop,3_0_1_0,NA,NA,completion,83515.335,217745.30000001,217702.611,217752.609,301267.944,301279.69999999,2023-05-16T12:28:29Z,301284.61,NULL,NA,NA,NA,NA,NA,NA,NA,sdfdsf,NA,1,NA,NA,NA,NA,NA,NA,NA,NA,NA,NA,NA,NA,NA,NA,NA,NA,NA,NA,NA
ab892,weiter,canvas.Screen,3_0_1_1,sdf,keypress(Space),response,857.39000000001,301279.80000001,301267.944,301284.61,302142,302150,2023-05-16T12:28:30Z,302184.574,NULL,NA,NA,NA,NA,NA,NA,NA,sdfdsf,NA,1,NA,NA,NA,NA,NA,NA,NA,NA,NA,NA,NA,NA,NA,NA,NA,NA,NA,NA,NA
ab892,check continue,flow.Sequence,3_0_1,NA,NA,completion,84389.391,217745.30000001,217702.611,217752.609,302142,302150.60000002,2023-05-16T12:28:30Z,302184.574,NULL,NA,NA,NA,NA,NA,NA,NA,sdfdsf,NA,1,NA,NA,NA,NA,NA,NA,NA,NA,NA,NA,NA,NA,NA,NA,NA,NA,NA,NA,NA
ab892,Deep Question,html.Page,3_0_2_0_0_0_0,NA,NA,form submission,3967.0260000238,302185,302134.576,302184.574,306151.60000002,306152,2023-05-16T12:28:34Z,306168.016,NULL,Vorsorge,tahadhari,d,NA,NA,NA,tahadhari,NA,NA,2,NA,NA,NA,NA,NA,NA,NA,NA,NA,NA,NA,NA,NA,NA,NA,NA,NA,NA,NA
ab892,"""Richtig""-Screen",canvas.Screen,3_0_2_0_0_0_1,NA,NA,timeout,4999.8,306155,306151.35,306168.016,311151.15,311156,2023-05-16T12:28:39Z,311167.816,NULL,Vorsorge,tahadhari,d,NA,NA,NA,NA,sdf,1,2,NA,NA,NA,NA,NA,NA,NA,NA,NA,NA,NA,NA,NA,NA,NA,NA,NA,NA,NA
ab892,"""Falsch""-Screen",canvas.Screen,3_0_2_0_0_0_2,NA,NA,skipped,NA,311159.80000001,NA,NA,311151.15,311160.10000002,2023-05-16T12:28:39Z,311167.816,NULL,Vorsorge,tahadhari,d,NA,NA,NA,NA,sdf,NA,2,NA,NA,NA,NA,NA,NA,NA,NA,NA,NA,NA,NA,NA,NA,NA,NA,NA,NA,NA
ab892,deep,flow.Sequence,3_0_2_0_0_0,NA,NA,completion,8966.576,302185,302134.576,302184.574,311151.15,311160.40000004,2023-05-16T12:28:39Z,311167.816,NULL,Vorsorge,tahadhari,d,NA,NA,NA,NA,sdf,NA,2,NA,NA,NA,NA,NA,NA,NA,NA,NA,NA,NA,NA,NA,NA,NA,NA,NA,NA,NA
ab892,shallow,flow.Sequence,3_0_2_0_0_1,NA,NA,skipped,NA,311160.5,NA,NA,311151.15,311160.60000002,2023-05-16T12:28:39Z,311167.816,NULL,Vorsorge,tahadhari,d,NA,NA,NA,NA,sdf,NA,2,NA,NA,NA,NA,NA,NA,NA,NA,NA,NA,NA,NA,NA,NA,NA,NA,NA,NA,NA
ab892,task,flow.Sequence,3_0_2_0_0,NA,NA,completion,8966.576,302185,302134.576,302184.574,311151.15,311160.90000004,2023-05-16T12:28:39Z,311167.816,NULL,Vorsorge,tahadhari,d,NA,NA,NA,NA,sdf,NA,2,NA,NA,NA,NA,NA,NA,NA,NA,NA,NA,NA,NA,NA,NA,NA,NA,NA,NA,NA
ab892,deep,flow.Sequence,3_0_2_0_1_0,NA,NA,skipped,NA,311161.30000001,NA,NA,311151.15,311161.40000004,2023-05-16T12:28:39Z,311167.816,NULL,Übersicht,kilindo,s,mgusano,chipukizi,kulinganisha,NA,sdf,NA,2,NA,NA,NA,NA,NA,NA,NA,NA,NA,NA,NA,NA,NA,NA,NA,NA,NA,NA,NA
ab892,Shallow Question,html.Page,3_0_2_0_1_1_0,NA,NA,form submission,2525.4840000119,311161.5,311151.15,311167.816,313693.30000001,313693.69999999,2023-05-16T12:28:42Z,313701.048,NULL,Übersicht,kilindo,s,mgusano,chipukizi,kulinganisha,kilindo,NA,NA,2,NA,NA,NA,NA,NA,NA,NA,NA,NA,NA,NA,NA,NA,NA,NA,NA,NA,NA,NA
ab892,"""Richtig""-Screen",canvas.Screen,3_0_2_0_1_1_1,NA,NA,timeout,4999.8,313694.60000002,313684.382,313701.048,318684.182,318686.19999999,2023-05-16T12:28:47Z,318700.848,NULL,Übersicht,kilindo,s,mgusano,chipukizi,kulinganisha,NA,sdf,1,2,NA,NA,NA,NA,NA,NA,NA,NA,NA,NA,NA,NA,NA,NA,NA,NA,NA,NA,NA
ab892,"""Falsch""-Screen",canvas.Screen,3_0_2_0_1_1_2,NA,NA,skipped,NA,318692.30000001,NA,NA,318684.182,318692.60000002,2023-05-16T12:28:47Z,318700.848,NULL,Übersicht,kilindo,s,mgusano,chipukizi,kulinganisha,NA,sdf,NA,2,NA,NA,NA,NA,NA,NA,NA,NA,NA,NA,NA,NA,NA,NA,NA,NA,NA,NA,NA
ab892,shallow,flow.Sequence,3_0_2_0_1_1,NA,NA,completion,7516.366,311161.5,311151.15,311167.816,318684.182,318692.80000001,2023-05-16T12:28:47Z,318700.848,NULL,Übersicht,kilindo,s,mgusano,chipukizi,kulinganisha,NA,sdf,NA,2,NA,NA,NA,NA,NA,NA,NA,NA,NA,NA,NA,NA,NA,NA,NA,NA,NA,NA,NA
ab892,task,flow.Sequence,3_0_2_0_1,NA,NA,completion,7516.366,311161.19999999,311151.15,311167.816,318684.182,318692.90000004,2023-05-16T12:28:47Z,318700.848,NULL,Übersicht,kilindo,s,mgusano,chipukizi,kulinganisha,NA,sdf,NA,2,NA,NA,NA,NA,NA,NA,NA,NA,NA,NA,NA,NA,NA,NA,NA,NA,NA,NA,NA
ab892,Deep Question,html.Page,3_0_2_0_2_0_0,NA,NA,form submission,3070.4520000119,318693,318684.182,318700.848,321771.30000001,321771.69999999,2023-05-16T12:28:50Z,321784.449,NULL,Lawine,banguko,d,NA,NA,NA,banguko,NA,NA,2,NA,NA,NA,NA,NA,NA,NA,NA,NA,NA,NA,NA,NA,NA,NA,NA,NA,NA,NA
ab892,"""Richtig""-Screen",canvas.Screen,3_0_2_0_2_0_1,NA,NA,timeout,4999.8,321772.69999999,321767.783,321784.449,326767.583,326769.80000001,2023-05-16T12:28:55Z,326784.249,NULL,Lawine,banguko,d,NA,NA,NA,NA,sdf,1,2,NA,NA,NA,NA,NA,NA,NA,NA,NA,NA,NA,NA,NA,NA,NA,NA,NA,NA,NA
ab892,"""Falsch""-Screen",canvas.Screen,3_0_2_0_2_0_2,NA,NA,skipped,NA,326773.5,NA,NA,326767.583,326773.60000002,2023-05-16T12:28:55Z,326784.249,NULL,Lawine,banguko,d,NA,NA,NA,NA,sdf,NA,2,NA,NA,NA,NA,NA,NA,NA,NA,NA,NA,NA,NA,NA,NA,NA,NA,NA,NA,NA
ab892,deep,flow.Sequence,3_0_2_0_2_0,NA,NA,completion,8066.735,318693,318684.182,318700.848,326767.583,326773.90000004,2023-05-16T12:28:55Z,326784.249,NULL,Lawine,banguko,d,NA,NA,NA,NA,sdf,NA,2,NA,NA,NA,NA,NA,NA,NA,NA,NA,NA,NA,NA,NA,NA,NA,NA,NA,NA,NA
ab892,shallow,flow.Sequence,3_0_2_0_2_1,NA,NA,skipped,NA,326774.10000002,NA,NA,326767.583,326774.19999999,2023-05-16T12:28:55Z,326784.249,NULL,Lawine,banguko,d,NA,NA,NA,NA,sdf,NA,2,NA,NA,NA,NA,NA,NA,NA,NA,NA,NA,NA,NA,NA,NA,NA,NA,NA,NA,NA
ab892,task,flow.Sequence,3_0_2_0_2,NA,NA,completion,8066.735,318693,318684.182,318700.848,326767.583,326774.40000004,2023-05-16T12:28:55Z,326784.249,NULL,Lawine,banguko,d,NA,NA,NA,NA,sdf,NA,2,NA,NA,NA,NA,NA,NA,NA,NA,NA,NA,NA,NA,NA,NA,NA,NA,NA,NA,NA
ab892,deep,flow.Sequence,3_0_2_0_3_0,NA,NA,skipped,NA,326774.5,NA,NA,326767.583,326774.60000002,2023-05-16T12:28:55Z,326784.249,NULL,Körper,kiwiliwili,s,mapambano,mpatanishi,kiolezo,NA,sdf,NA,2,NA,NA,NA,NA,NA,NA,NA,NA,NA,NA,NA,NA,NA,NA,NA,NA,NA,NA,NA
ab892,Shallow Question,html.Page,3_0_2_0_3_1_0,NA,NA,form submission,2093.9509999881,326774.69999999,326767.583,326784.249,328878.19999999,328878.69999999,2023-05-16T12:28:57Z,328884.43,NULL,Körper,kiwiliwili,s,mapambano,mpatanishi,kiolezo,kiwiliwili,NA,NA,2,NA,NA,NA,NA,NA,NA,NA,NA,NA,NA,NA,NA,NA,NA,NA,NA,NA,NA,NA
ab892,"""Richtig""-Screen",canvas.Screen,3_0_2_0_3_1_1,NA,NA,timeout,4999.8,328879.80000001,328867.764,328884.43,333867.564,333870.69999999,2023-05-16T12:29:02Z,333884.23,NULL,Körper,kiwiliwili,s,mapambano,mpatanishi,kiolezo,NA,sdf,1,2,NA,NA,NA,NA,NA,NA,NA,NA,NA,NA,NA,NA,NA,NA,NA,NA,NA,NA,NA
ab892,"""Falsch""-Screen",canvas.Screen,3_0_2_0_3_1_2,NA,NA,skipped,NA,333874.40000004,NA,NA,333867.564,333874.60000002,2023-05-16T12:29:02Z,333884.23,NULL,Körper,kiwiliwili,s,mapambano,mpatanishi,kiolezo,NA,sdf,NA,2,NA,NA,NA,NA,NA,NA,NA,NA,NA,NA,NA,NA,NA,NA,NA,NA,NA,NA,NA
ab892,shallow,flow.Sequence,3_0_2_0_3_1,NA,NA,completion,7083.315,326774.60000002,326767.583,326784.249,333867.564,333875,2023-05-16T12:29:02Z,333884.23,NULL,Körper,kiwiliwili,s,mapambano,mpatanishi,kiolezo,NA,sdf,NA,2,NA,NA,NA,NA,NA,NA,NA,NA,NA,NA,NA,NA,NA,NA,NA,NA,NA,NA,NA
ab892,task,flow.Sequence,3_0_2_0_3,NA,NA,completion,7083.315,326774.40000004,326767.583,326784.249,333867.564,333875.10000002,2023-05-16T12:29:02Z,333884.23,NULL,Körper,kiwiliwili,s,mapambano,mpatanishi,kiolezo,NA,sdf,NA,2,NA,NA,NA,NA,NA,NA,NA,NA,NA,NA,NA,NA,NA,NA,NA,NA,NA,NA,NA
ab892,deep,flow.Sequence,3_0_2_0_4_0,NA,NA,skipped,NA,333875.30000001,NA,NA,333867.564,333875.30000001,2023-05-16T12:29:02Z,333884.23,NULL,Zuwachs,nyongeza,s,matilaba,udhibiti,hudhurio,NA,sdf,NA,2,NA,NA,NA,NA,NA,NA,NA,NA,NA,NA,NA,NA,NA,NA,NA,NA,NA,NA,NA
ab892,Shallow Question,html.Page,3_0_2_0_4_1_0,NA,NA,form submission,2393.1700000358,333875.5,333867.564,333884.23,336277.40000004,336277.80000001,2023-05-16T12:29:04Z,336284.134,NULL,Zuwachs,nyongeza,s,matilaba,udhibiti,hudhurio,nyongeza,NA,NA,2,NA,NA,NA,NA,NA,NA,NA,NA,NA,NA,NA,NA,NA,NA,NA,NA,NA,NA,NA
ab892,"""Richtig""-Screen",canvas.Screen,3_0_2_0_4_1_1,NA,NA,timeout,4999.8,336278.60000002,336267.468,336284.134,341267.268,341271.90000004,2023-05-16T12:29:09Z,341283.934,NULL,Zuwachs,nyongeza,s,matilaba,udhibiti,hudhurio,NA,sdf,1,2,NA,NA,NA,NA,NA,NA,NA,NA,NA,NA,NA,NA,NA,NA,NA,NA,NA,NA,NA
ab892,"""Falsch""-Screen",canvas.Screen,3_0_2_0_4_1_2,NA,NA,skipped,NA,341275.40000004,NA,NA,341267.268,341275.69999999,2023-05-16T12:29:09Z,341283.934,NULL,Zuwachs,nyongeza,s,matilaba,udhibiti,hudhurio,NA,sdf,NA,2,NA,NA,NA,NA,NA,NA,NA,NA,NA,NA,NA,NA,NA,NA,NA,NA,NA,NA,NA
ab892,shallow,flow.Sequence,3_0_2_0_4_1,NA,NA,completion,7383.038,333875.5,333867.564,333884.23,341267.268,341275.90000004,2023-05-16T12:29:09Z,341283.934,NULL,Zuwachs,nyongeza,s,matilaba,udhibiti,hudhurio,NA,sdf,NA,2,NA,NA,NA,NA,NA,NA,NA,NA,NA,NA,NA,NA,NA,NA,NA,NA,NA,NA,NA
ab892,task,flow.Sequence,3_0_2_0_4,NA,NA,completion,7383.038,333875.30000001,333867.564,333884.23,341267.268,341276.10000002,2023-05-16T12:29:09Z,341283.934,NULL,Zuwachs,nyongeza,s,matilaba,udhibiti,hudhurio,NA,sdf,NA,2,NA,NA,NA,NA,NA,NA,NA,NA,NA,NA,NA,NA,NA,NA,NA,NA,NA,NA,NA
ab892,Deep Question,html.Page,3_0_2_0_5_0_0,NA,NA,form submission,5059.8660000119,341276.19999999,341267.268,341283.934,346343.80000001,346344.60000002,2023-05-16T12:29:14Z,346350.724,NULL,Konkurrent,mshindani,d,NA,NA,NA,mshindani,NA,NA,2,NA,NA,NA,NA,NA,NA,NA,NA,NA,NA,NA,NA,NA,NA,NA,NA,NA,NA,NA
ab892,"""Richtig""-Screen",canvas.Screen,3_0_2_0_5_0_1,NA,NA,timeout,4999.8,346347.30000001,346334.058,346350.724,351333.858,351337.30000001,2023-05-16T12:29:19Z,351350.524,NULL,Konkurrent,mshindani,d,NA,NA,NA,NA,sdf,1,2,NA,NA,NA,NA,NA,NA,NA,NA,NA,NA,NA,NA,NA,NA,NA,NA,NA,NA,NA
ab892,"""Falsch""-Screen",canvas.Screen,3_0_2_0_5_0_2,NA,NA,skipped,NA,351341.60000002,NA,NA,351333.858,351341.90000004,2023-05-16T12:29:19Z,351350.524,NULL,Konkurrent,mshindani,d,NA,NA,NA,NA,sdf,NA,2,NA,NA,NA,NA,NA,NA,NA,NA,NA,NA,NA,NA,NA,NA,NA,NA,NA,NA,NA
ab892,deep,flow.Sequence,3_0_2_0_5_0,NA,NA,completion,10049.924,341276.19999999,341267.268,341283.934,351333.858,351342.19999999,2023-05-16T12:29:19Z,351350.524,NULL,Konkurrent,mshindani,d,NA,NA,NA,NA,sdf,NA,2,NA,NA,NA,NA,NA,NA,NA,NA,NA,NA,NA,NA,NA,NA,NA,NA,NA,NA,NA
ab892,shallow,flow.Sequence,3_0_2_0_5_1,NA,NA,skipped,NA,351342.30000001,NA,NA,351333.858,351342.40000004,2023-05-16T12:29:19Z,351350.524,NULL,Konkurrent,mshindani,d,NA,NA,NA,NA,sdf,NA,2,NA,NA,NA,NA,NA,NA,NA,NA,NA,NA,NA,NA,NA,NA,NA,NA,NA,NA,NA
ab892,task,flow.Sequence,3_0_2_0_5,NA,NA,completion,10049.924,341276.19999999,341267.268,341283.934,351333.858,351342.60000002,2023-05-16T12:29:19Z,351350.524,NULL,Konkurrent,mshindani,d,NA,NA,NA,NA,sdf,NA,2,NA,NA,NA,NA,NA,NA,NA,NA,NA,NA,NA,NA,NA,NA,NA,NA,NA,NA,NA
ab892,deep,flow.Sequence,3_0_2_0_6_0,NA,NA,skipped,NA,351342.69999999,NA,NA,351333.858,351342.80000001,2023-05-16T12:29:19Z,351350.524,NULL,Symbol,kielezo,s,kinyume,nderemo,utayari,NA,sdf,NA,2,NA,NA,NA,NA,NA,NA,NA,NA,NA,NA,NA,NA,NA,NA,NA,NA,NA,NA,NA
ab892,Shallow Question,html.Page,3_0_2_0_6_1_0,NA,NA,form submission,2754.976,351343,351333.858,351350.524,354105.5,354105.69999999,2023-05-16T12:29:22Z,354117.343,NULL,Symbol,kielezo,s,kinyume,nderemo,utayari,kielezo,NA,NA,2,NA,NA,NA,NA,NA,NA,NA,NA,NA,NA,NA,NA,NA,NA,NA,NA,NA,NA,NA
ab892,"""Richtig""-Screen",canvas.Screen,3_0_2_0_6_1_1,NA,NA,timeout,4999.8,354106.69999999,354100.677,354117.343,359100.477,359104.5,2023-05-16T12:29:27Z,359117.143,NULL,Symbol,kielezo,s,kinyume,nderemo,utayari,NA,sdf,1,2,NA,NA,NA,NA,NA,NA,NA,NA,NA,NA,NA,NA,NA,NA,NA,NA,NA,NA,NA
ab892,"""Falsch""-Screen",canvas.Screen,3_0_2_0_6_1_2,NA,NA,skipped,NA,359108.19999999,NA,NA,359100.477,359108.5,2023-05-16T12:29:27Z,359117.143,NULL,Symbol,kielezo,s,kinyume,nderemo,utayari,NA,sdf,NA,2,NA,NA,NA,NA,NA,NA,NA,NA,NA,NA,NA,NA,NA,NA,NA,NA,NA,NA,NA
ab892,shallow,flow.Sequence,3_0_2_0_6_1,NA,NA,completion,7749.953,351342.90000004,351333.858,351350.524,359100.477,359108.69999999,2023-05-16T12:29:27Z,359117.143,NULL,Symbol,kielezo,s,kinyume,nderemo,utayari,NA,sdf,NA,2,NA,NA,NA,NA,NA,NA,NA,NA,NA,NA,NA,NA,NA,NA,NA,NA,NA,NA,NA
ab892,task,flow.Sequence,3_0_2_0_6,NA,NA,completion,7749.953,351342.60000002,351333.858,351350.524,359100.477,359108.80000001,2023-05-16T12:29:27Z,359117.143,NULL,Symbol,kielezo,s,kinyume,nderemo,utayari,NA,sdf,NA,2,NA,NA,NA,NA,NA,NA,NA,NA,NA,NA,NA,NA,NA,NA,NA,NA,NA,NA,NA
ab892,Deep Question,html.Page,3_0_2_0_7_0_0,NA,NA,form submission,11520.157000012,359109,359100.477,359117.143,370637.30000001,370637.60000002,2023-05-16T12:29:39Z,370650.285,NULL,System,maongozi,d,NA,NA,NA,mangozi,NA,NA,2,NA,NA,NA,NA,NA,NA,NA,NA,NA,NA,NA,NA,NA,NA,NA,NA,NA,NA,NA
ab892,"""Richtig""-Screen",canvas.Screen,3_0_2_0_7_0_1,NA,NA,skipped,NA,370639.80000001,NA,NA,370637.30000001,370639.90000004,2023-05-16T12:29:39Z,370650.285,NULL,System,maongozi,d,NA,NA,NA,NA,sdf,NA,2,NA,NA,NA,NA,NA,NA,NA,NA,NA,NA,NA,NA,NA,NA,NA,NA,NA,NA,NA
ab892,"""Falsch""-Screen",canvas.Screen,3_0_2_0_7_0_2,NA,NA,timeout,4999.8,370640.60000002,370633.619,370650.285,375633.419,375636.19999999,2023-05-16T12:29:44Z,375650.085,NULL,System,maongozi,d,NA,NA,NA,NA,sdf,0,2,NA,NA,NA,NA,NA,NA,NA,NA,NA,NA,NA,NA,NA,NA,NA,NA,NA,NA,NA
ab892,deep,flow.Sequence,3_0_2_0_7_0,NA,NA,completion,16516.276,359108.90000004,359100.477,359117.143,375633.419,375636.69999999,2023-05-16T12:29:44Z,375650.085,NULL,System,maongozi,d,NA,NA,NA,NA,sdf,NA,2,NA,NA,NA,NA,NA,NA,NA,NA,NA,NA,NA,NA,NA,NA,NA,NA,NA,NA,NA
ab892,shallow,flow.Sequence,3_0_2_0_7_1,NA,NA,skipped,NA,375636.80000001,NA,NA,375633.419,375636.90000004,2023-05-16T12:29:44Z,375650.085,NULL,System,maongozi,d,NA,NA,NA,NA,sdf,NA,2,NA,NA,NA,NA,NA,NA,NA,NA,NA,NA,NA,NA,NA,NA,NA,NA,NA,NA,NA
ab892,task,flow.Sequence,3_0_2_0_7,NA,NA,completion,16516.276,359108.90000004,359100.477,359117.143,375633.419,375637,2023-05-16T12:29:44Z,375650.085,NULL,System,maongozi,d,NA,NA,NA,NA,sdf,NA,2,NA,NA,NA,NA,NA,NA,NA,NA,NA,NA,NA,NA,NA,NA,NA,NA,NA,NA,NA
ab892,block,flow.Loop,3_0_2_0,NA,NA,completion,73448.845,302184.90000004,302134.576,302184.574,375633.419,375637.19999999,2023-05-16T12:29:44Z,375650.085,NULL,NA,NA,NA,NA,NA,NA,NA,sdf,NA,2,NA,NA,NA,NA,NA,NA,NA,NA,NA,NA,NA,NA,NA,NA,NA,NA,NA,NA,NA
ab892,weiter,canvas.Screen,3_0_2_1,sdf,keypress(Space),response,770.11499998806,375637.40000004,375633.419,375650.085,376420.19999999,376430.40000004,2023-05-16T12:29:44Z,377017.063,NULL,NA,NA,NA,NA,NA,NA,NA,sdf,NA,2,NA,NA,NA,NA,NA,NA,NA,NA,NA,NA,NA,NA,NA,NA,NA,NA,NA,NA,NA
ab892,check continue,flow.Sequence,3_0_2,NA,NA,completion,74235.625999988,302184.90000004,302134.576,302184.574,376420.19999999,376430.5,2023-05-16T12:29:44Z,377017.063,NULL,NA,NA,NA,NA,NA,NA,NA,sdf,NA,2,NA,NA,NA,NA,NA,NA,NA,NA,NA,NA,NA,NA,NA,NA,NA,NA,NA,NA,NA
ab892,check continue,flow.Sequence,3_0_3,NA,NA,skipped,NA,376464.69999999,NA,NA,376420.19999999,376464.90000004,2023-05-16T12:29:44Z,377017.063,NULL,NA,NA,NA,NA,NA,NA,NA,qt,NA,3,NA,NA,NA,NA,NA,NA,NA,NA,NA,NA,NA,NA,NA,NA,NA,NA,NA,NA,NA
ab892,check continue,flow.Sequence,3_0_4,NA,NA,skipped,NA,376503.90000004,NA,NA,376420.19999999,376504,2023-05-16T12:29:44Z,377017.063,NULL,NA,NA,NA,NA,NA,NA,NA,sd,NA,4,NA,NA,NA,NA,NA,NA,NA,NA,NA,NA,NA,NA,NA,NA,NA,NA,NA,NA,NA
ab892,check continue,flow.Sequence,3_0_5,NA,NA,skipped,NA,376533.30000001,NA,NA,376420.19999999,376533.30000001,2023-05-16T12:29:44Z,377017.063,NULL,NA,NA,NA,NA,NA,NA,NA,sdf,NA,5,NA,NA,NA,NA,NA,NA,NA,NA,NA,NA,NA,NA,NA,NA,NA,NA,NA,NA,NA
ab892,check continue,flow.Sequence,3_0_6,NA,NA,skipped,NA,376553.40000004,NA,NA,376420.19999999,376553.5,2023-05-16T12:29:44Z,377017.063,NULL,NA,NA,NA,NA,NA,NA,NA,dfs,NA,6,NA,NA,NA,NA,NA,NA,NA,NA,NA,NA,NA,NA,NA,NA,NA,NA,NA,NA,NA
ab892,check continue,flow.Sequence,3_0_7,NA,NA,skipped,NA,376571.5,NA,NA,376420.19999999,376571.60000002,2023-05-16T12:29:44Z,377017.063,NULL,NA,NA,NA,NA,NA,NA,NA,df,NA,7,NA,NA,NA,NA,NA,NA,NA,NA,NA,NA,NA,NA,NA,NA,NA,NA,NA,NA,NA
ab892,check continue,flow.Sequence,3_0_8,NA,NA,skipped,NA,376590.30000001,NA,NA,376420.19999999,376590.40000004,2023-05-16T12:29:45Z,377017.063,NULL,NA,NA,NA,NA,NA,NA,NA,dfs,NA,8,NA,NA,NA,NA,NA,NA,NA,NA,NA,NA,NA,NA,NA,NA,NA,NA,NA,NA,NA
ab892,check continue,flow.Sequence,3_0_9,NA,NA,skipped,NA,376610.30000001,NA,NA,376420.19999999,376610.40000004,2023-05-16T12:29:45Z,377017.063,NULL,NA,NA,NA,NA,NA,NA,NA,dsf,NA,9,NA,NA,NA,NA,NA,NA,NA,NA,NA,NA,NA,NA,NA,NA,NA,NA,NA,NA,NA
ab892,check continue,flow.Sequence,3_0_10,NA,NA,skipped,NA,376626.69999999,NA,NA,376420.19999999,376626.90000004,2023-05-16T12:29:45Z,377017.063,NULL,NA,NA,NA,NA,NA,NA,NA,df,NA,10,NA,NA,NA,NA,NA,NA,NA,NA,NA,NA,NA,NA,NA,NA,NA,NA,NA,NA,NA
ab892,check continue,flow.Sequence,3_0_11,NA,NA,skipped,NA,376643.10000002,NA,NA,376420.19999999,376643.19999999,2023-05-16T12:29:45Z,377017.063,NULL,NA,NA,NA,NA,NA,NA,NA,dfs,NA,11,NA,NA,NA,NA,NA,NA,NA,NA,NA,NA,NA,NA,NA,NA,NA,NA,NA,NA,NA
ab892,check continue,flow.Sequence,3_0_12,NA,NA,skipped,NA,376658.90000004,NA,NA,376420.19999999,376659.19999999,2023-05-16T12:29:45Z,377017.063,NULL,NA,NA,NA,NA,NA,NA,NA,dsf,NA,12,NA,NA,NA,NA,NA,NA,NA,NA,NA,NA,NA,NA,NA,NA,NA,NA,NA,NA,NA
ab892,check continue,flow.Sequence,3_0_13,NA,NA,skipped,NA,376675.69999999,NA,NA,376420.19999999,376675.80000001,2023-05-16T12:29:45Z,377017.063,NULL,NA,NA,NA,NA,NA,NA,NA,dsf,NA,13,NA,NA,NA,NA,NA,NA,NA,NA,NA,NA,NA,NA,NA,NA,NA,NA,NA,NA,NA
ab892,check continue,flow.Sequence,3_0_14,NA,NA,skipped,NA,376690.30000001,NA,NA,376420.19999999,376690.40000004,2023-05-16T12:29:45Z,377017.063,NULL,NA,NA,NA,NA,NA,NA,NA,NA,NA,14,NA,NA,NA,NA,NA,NA,NA,NA,NA,NA,NA,NA,NA,NA,NA,NA,NA,NA,NA
ab892,check continue,flow.Sequence,3_0_15,NA,NA,skipped,NA,376718.60000002,NA,NA,376420.19999999,376718.69999999,2023-05-16T12:29:45Z,377017.063,NULL,NA,NA,NA,NA,NA,NA,NA,NA,NA,15,NA,NA,NA,NA,NA,NA,NA,NA,NA,NA,NA,NA,NA,NA,NA,NA,NA,NA,NA
ab892,check continue,flow.Sequence,3_0_16,NA,NA,skipped,NA,376738.90000004,NA,NA,376420.19999999,376739,2023-05-16T12:29:45Z,377017.063,NULL,NA,NA,NA,NA,NA,NA,NA,NA,NA,16,NA,NA,NA,NA,NA,NA,NA,NA,NA,NA,NA,NA,NA,NA,NA,NA,NA,NA,NA
ab892,check continue,flow.Sequence,3_0_17,NA,NA,skipped,NA,376757.19999999,NA,NA,376420.19999999,376757.30000001,2023-05-16T12:29:45Z,377017.063,NULL,NA,NA,NA,NA,NA,NA,NA,NA,NA,17,NA,NA,NA,NA,NA,NA,NA,NA,NA,NA,NA,NA,NA,NA,NA,NA,NA,NA,NA
ab892,check continue,flow.Sequence,3_0_18,NA,NA,skipped,NA,376773,NA,NA,376420.19999999,376773.10000002,2023-05-16T12:29:45Z,377017.063,NULL,NA,NA,NA,NA,NA,NA,NA,NA,NA,18,NA,NA,NA,NA,NA,NA,NA,NA,NA,NA,NA,NA,NA,NA,NA,NA,NA,NA,NA
ab892,check continue,flow.Sequence,3_0_19,NA,NA,skipped,NA,376793.60000002,NA,NA,376420.19999999,376793.80000001,2023-05-16T12:29:45Z,377017.063,NULL,NA,NA,NA,NA,NA,NA,NA,NA,NA,19,NA,NA,NA,NA,NA,NA,NA,NA,NA,NA,NA,NA,NA,NA,NA,NA,NA,NA,NA
ab892,check continue,flow.Sequence,3_0_20,NA,NA,skipped,NA,376811.30000001,NA,NA,376420.19999999,376811.40000004,2023-05-16T12:29:45Z,377017.063,NULL,NA,NA,NA,NA,NA,NA,NA,NA,NA,20,NA,NA,NA,NA,NA,NA,NA,NA,NA,NA,NA,NA,NA,NA,NA,NA,NA,NA,NA
ab892,check continue,flow.Sequence,3_0_21,NA,NA,skipped,NA,376830.69999999,NA,NA,376420.19999999,376830.80000001,2023-05-16T12:29:45Z,377017.063,NULL,NA,NA,NA,NA,NA,NA,NA,NA,NA,21,NA,NA,NA,NA,NA,NA,NA,NA,NA,NA,NA,NA,NA,NA,NA,NA,NA,NA,NA
ab892,check continue,flow.Sequence,3_0_22,NA,NA,skipped,NA,376850.30000001,NA,NA,376420.19999999,376850.40000004,2023-05-16T12:29:45Z,377017.063,NULL,NA,NA,NA,NA,NA,NA,NA,NA,NA,22,NA,NA,NA,NA,NA,NA,NA,NA,NA,NA,NA,NA,NA,NA,NA,NA,NA,NA,NA
ab892,check continue,flow.Sequence,3_0_23,NA,NA,skipped,NA,376864.40000004,NA,NA,376420.19999999,376864.5,2023-05-16T12:29:45Z,377017.063,NULL,NA,NA,NA,NA,NA,NA,NA,NA,NA,23,NA,NA,NA,NA,NA,NA,NA,NA,NA,NA,NA,NA,NA,NA,NA,NA,NA,NA,NA
ab892,check continue,flow.Sequence,3_0_24,NA,NA,skipped,NA,376881.90000004,NA,NA,376420.19999999,376882,2023-05-16T12:29:45Z,377017.063,NULL,NA,NA,NA,NA,NA,NA,NA,NA,NA,24,NA,NA,NA,NA,NA,NA,NA,NA,NA,NA,NA,NA,NA,NA,NA,NA,NA,NA,NA
ab892,check continue,flow.Sequence,3_0_25,NA,NA,skipped,NA,376897.60000002,NA,NA,376420.19999999,376897.69999999,2023-05-16T12:29:45Z,377017.063,NULL,NA,NA,NA,NA,NA,NA,NA,NA,NA,25,NA,NA,NA,NA,NA,NA,NA,NA,NA,NA,NA,NA,NA,NA,NA,NA,NA,NA,NA
ab892,check continue,flow.Sequence,3_0_26,NA,NA,skipped,NA,376917.40000004,NA,NA,376420.19999999,376917.5,2023-05-16T12:29:45Z,377017.063,NULL,NA,NA,NA,NA,NA,NA,NA,NA,NA,26,NA,NA,NA,NA,NA,NA,NA,NA,NA,NA,NA,NA,NA,NA,NA,NA,NA,NA,NA
ab892,check continue,flow.Sequence,3_0_27,NA,NA,skipped,NA,376939.40000004,NA,NA,376420.19999999,376939.60000002,2023-05-16T12:29:45Z,377017.063,NULL,NA,NA,NA,NA,NA,NA,NA,NA,NA,27,NA,NA,NA,NA,NA,NA,NA,NA,NA,NA,NA,NA,NA,NA,NA,NA,NA,NA,NA
ab892,check continue,flow.Sequence,3_0_28,NA,NA,skipped,NA,376986.30000001,NA,NA,376420.19999999,376986.40000004,2023-05-16T12:29:45Z,377017.063,NULL,NA,NA,NA,NA,NA,NA,NA,NA,NA,28,NA,NA,NA,NA,NA,NA,NA,NA,NA,NA,NA,NA,NA,NA,NA,NA,NA,NA,NA
ab892,check continue,flow.Sequence,3_0_29,NA,NA,skipped,NA,377004.69999999,NA,NA,376420.19999999,377004.90000004,2023-05-16T12:29:45Z,377017.063,NULL,NA,NA,NA,NA,NA,NA,NA,NA,NA,29,NA,NA,NA,NA,NA,NA,NA,NA,NA,NA,NA,NA,NA,NA,NA,NA,NA,NA,NA
ab892,until continue,flow.Loop,3_0,NA,NA,completion,255716.82299999,120668.19999999,120686.711,120703.377,376420.19999999,377004.90000004,2023-05-16T12:29:45Z,377017.063,NULL,NA,NA,NA,NA,NA,NA,NA,NA,NA,NA,NA,NA,NA,NA,NA,NA,NA,NA,NA,NA,NA,NA,NA,NA,NA,NA,NA,NA,NA
ab892,block 1,flow.Sequence,3,NA,NA,completion,255716.82299999,120668.19999999,120686.711,120703.377,376420.19999999,377005,2023-05-16T12:29:45Z,377017.063,NULL,NA,NA,NA,NA,NA,NA,NA,NA,NA,NA,NA,NA,NA,NA,NA,NA,NA,NA,NA,NA,NA,NA,NA,NA,NA,NA,NA,NA,NA
ab892,1.Part Over,canvas.Screen,4,NA,keypress(Space),response,2446.2370000119,377005,377000.397,377017.063,379463.30000001,379470.80000001,2023-05-16T12:29:47Z,379550.295,NULL,NA,NA,NA,NA,NA,NA,NA,NA,NA,NA,NA,NA,NA,NA,NA,NA,NA,NA,NA,NA,NA,NA,NA,NA,NA,NA,NA,NA,NA
ab892,Deep Question,html.Page,5_0_0_0_0_0_0,NA,NA,form submission,3487.5050000119,379539.5,379533.629,379550.295,383037.80000001,383038.30000001,2023-05-16T12:29:51Z,383050.155,NULL,Polizist,msongora,d,NA,NA,NA,i,NA,NA,0,NA,NA,NA,NA,NA,NA,NA,NA,NA,NA,NA,NA,NA,NA,NA,NA,NA,NA,NA
ab892,"""Richtig""-Screen",canvas.Screen,5_0_0_0_0_0_1,NA,NA,skipped,NA,383039.60000002,NA,NA,383037.80000001,383039.69999999,2023-05-16T12:29:51Z,383050.155,NULL,Polizist,msongora,d,NA,NA,NA,NA,sdf,NA,0,NA,NA,NA,NA,NA,NA,NA,NA,NA,NA,NA,NA,NA,NA,NA,NA,NA,NA,NA
ab892,"""Falsch""-Screen",canvas.Screen,5_0_0_0_0_0_2,NA,NA,timeout,4999.8,383040.40000004,383033.489,383050.155,388033.289,388036.10000002,2023-05-16T12:29:56Z,388049.955,NULL,Polizist,msongora,d,NA,NA,NA,NA,sdf,0,0,NA,NA,NA,NA,NA,NA,NA,NA,NA,NA,NA,NA,NA,NA,NA,NA,NA,NA,NA
ab892,deep,flow.Sequence,5_0_0_0_0_0,NA,NA,completion,8482.994,379539.5,379533.629,379550.295,388033.289,388036.40000004,2023-05-16T12:29:56Z,388049.955,NULL,Polizist,msongora,d,NA,NA,NA,NA,sdf,NA,0,NA,NA,NA,NA,NA,NA,NA,NA,NA,NA,NA,NA,NA,NA,NA,NA,NA,NA,NA
ab892,shallow,flow.Sequence,5_0_0_0_0_1,NA,NA,skipped,NA,388036.5,NA,NA,388033.289,388036.69999999,2023-05-16T12:29:56Z,388049.955,NULL,Polizist,msongora,d,NA,NA,NA,NA,sdf,NA,0,NA,NA,NA,NA,NA,NA,NA,NA,NA,NA,NA,NA,NA,NA,NA,NA,NA,NA,NA
ab892,task,flow.Sequence,5_0_0_0_0,NA,NA,completion,8482.994,379539.5,379533.629,379550.295,388033.289,388036.80000001,2023-05-16T12:29:56Z,388049.955,NULL,Polizist,msongora,d,NA,NA,NA,NA,sdf,NA,0,NA,NA,NA,NA,NA,NA,NA,NA,NA,NA,NA,NA,NA,NA,NA,NA,NA,NA,NA
ab892,deep,flow.Sequence,5_0_0_0_1_0,NA,NA,skipped,NA,388036.90000004,NA,NA,388033.289,388037,2023-05-16T12:29:56Z,388049.955,NULL,Verzögerung,kuchelewa,s,mwakilishi,mwanauchumi,jaribio,NA,sdf,NA,0,NA,NA,NA,NA,NA,NA,NA,NA,NA,NA,NA,NA,NA,NA,NA,NA,NA,NA,NA
ab892,Shallow Question,html.Page,5_0_0_0_1_1_0,NA,NA,form submission,7538.6450000238,388037,388033.289,388049.955,395588.60000002,395588.90000004,2023-05-16T12:30:04Z,395599.977,NULL,Verzögerung,kuchelewa,s,mwakilishi,mwanauchumi,jaribio,mwakilishi,NA,NA,0,NA,NA,NA,NA,NA,NA,NA,NA,NA,NA,NA,NA,NA,NA,NA,NA,NA,NA,NA
ab892,"""Richtig""-Screen",canvas.Screen,5_0_0_0_1_1_1,NA,NA,skipped,NA,395591.30000001,NA,NA,395588.60000002,395591.40000004,2023-05-16T12:30:04Z,395599.977,NULL,Verzögerung,kuchelewa,s,mwakilishi,mwanauchumi,jaribio,NA,sdf,NA,0,NA,NA,NA,NA,NA,NA,NA,NA,NA,NA,NA,NA,NA,NA,NA,NA,NA,NA,NA
ab892,"""Falsch""-Screen",canvas.Screen,5_0_0_0_1_1_2,NA,NA,timeout,4999.8,395592.40000004,395583.311,395599.977,400583.111,400585,2023-05-16T12:30:09Z,400599.777,NULL,Verzögerung,kuchelewa,s,mwakilishi,mwanauchumi,jaribio,NA,sdf,0,0,NA,NA,NA,NA,NA,NA,NA,NA,NA,NA,NA,NA,NA,NA,NA,NA,NA,NA,NA
ab892,shallow,flow.Sequence,5_0_0_0_1_1,NA,NA,completion,12533.156,388037,388033.289,388049.955,400583.111,400585.30000001,2023-05-16T12:30:09Z,400599.777,NULL,Verzögerung,kuchelewa,s,mwakilishi,mwanauchumi,jaribio,NA,sdf,NA,0,NA,NA,NA,NA,NA,NA,NA,NA,NA,NA,NA,NA,NA,NA,NA,NA,NA,NA,NA
ab892,task,flow.Sequence,5_0_0_0_1,NA,NA,completion,12533.156,388036.80000001,388033.289,388049.955,400583.111,400585.40000004,2023-05-16T12:30:09Z,400599.777,NULL,Verzögerung,kuchelewa,s,mwakilishi,mwanauchumi,jaribio,NA,sdf,NA,0,NA,NA,NA,NA,NA,NA,NA,NA,NA,NA,NA,NA,NA,NA,NA,NA,NA,NA,NA
ab892,deep,flow.Sequence,5_0_0_0_2_0,NA,NA,skipped,NA,400585.5,NA,NA,400583.111,400585.60000002,2023-05-16T12:30:09Z,400599.777,NULL,Kultur,utamaduni,s,shetani,gerezani,mazingira,NA,sdf,NA,0,NA,NA,NA,NA,NA,NA,NA,NA,NA,NA,NA,NA,NA,NA,NA,NA,NA,NA,NA
ab892,Shallow Question,html.Page,5_0_0_0_2_1_0,NA,NA,form submission,6421.5230000119,400585.69999999,400583.111,400599.777,407021.30000001,407021.69999999,2023-05-16T12:30:15Z,407033.181,NULL,Kultur,utamaduni,s,shetani,gerezani,mazingira,utamaduni,NA,NA,0,NA,NA,NA,NA,NA,NA,NA,NA,NA,NA,NA,NA,NA,NA,NA,NA,NA,NA,NA
ab892,"""Richtig""-Screen",canvas.Screen,5_0_0_0_2_1_1,NA,NA,timeout,5000.078,407024.90000004,407016.515,407033.181,412016.593,412019.30000001,2023-05-16T12:30:20Z,412033.259,NULL,Kultur,utamaduni,s,shetani,gerezani,mazingira,NA,sdf,1,0,NA,NA,NA,NA,NA,NA,NA,NA,NA,NA,NA,NA,NA,NA,NA,NA,NA,NA,NA
ab892,"""Falsch""-Screen",canvas.Screen,5_0_0_0_2_1_2,NA,NA,skipped,NA,412023.30000001,NA,NA,412016.593,412023.5,2023-05-16T12:30:20Z,412033.259,NULL,Kultur,utamaduni,s,shetani,gerezani,mazingira,NA,sdf,NA,0,NA,NA,NA,NA,NA,NA,NA,NA,NA,NA,NA,NA,NA,NA,NA,NA,NA,NA,NA
ab892,shallow,flow.Sequence,5_0_0_0_2_1,NA,NA,completion,11416.816,400585.60000002,400583.111,400599.777,412016.593,412023.80000001,2023-05-16T12:30:20Z,412033.259,NULL,Kultur,utamaduni,s,shetani,gerezani,mazingira,NA,sdf,NA,0,NA,NA,NA,NA,NA,NA,NA,NA,NA,NA,NA,NA,NA,NA,NA,NA,NA,NA,NA
ab892,task,flow.Sequence,5_0_0_0_2,NA,NA,completion,11416.816,400585.5,400583.111,400599.777,412016.593,412024,2023-05-16T12:30:20Z,412033.259,NULL,Kultur,utamaduni,s,shetani,gerezani,mazingira,NA,sdf,NA,0,NA,NA,NA,NA,NA,NA,NA,NA,NA,NA,NA,NA,NA,NA,NA,NA,NA,NA,NA
ab892,Deep Question,html.Page,5_0_0_0_3_0_0,NA,NA,form submission,3078.4409999881,412024.10000002,412016.593,412033.259,415111.69999999,415112,2023-05-16T12:30:23Z,415116.469,NULL,Aufstand,ugomaji,d,NA,NA,NA,o,NA,NA,0,NA,NA,NA,NA,NA,NA,NA,NA,NA,NA,NA,NA,NA,NA,NA,NA,NA,NA,NA
ab892,"""Richtig""-Screen",canvas.Screen,5_0_0_0_3_0_1,NA,NA,skipped,NA,415114,NA,NA,415111.69999999,415114.10000002,2023-05-16T12:30:23Z,415116.469,NULL,Aufstand,ugomaji,d,NA,NA,NA,NA,sdf,NA,0,NA,NA,NA,NA,NA,NA,NA,NA,NA,NA,NA,NA,NA,NA,NA,NA,NA,NA,NA
ab892,"""Falsch""-Screen",canvas.Screen,5_0_0_0_3_0_2,NA,NA,timeout,4999.8,415114.80000001,415099.803,415116.469,420099.603,420104.90000004,2023-05-16T12:30:28Z,420116.269,NULL,Aufstand,ugomaji,d,NA,NA,NA,NA,sdf,0,0,NA,NA,NA,NA,NA,NA,NA,NA,NA,NA,NA,NA,NA,NA,NA,NA,NA,NA,NA
ab892,deep,flow.Sequence,5_0_0_0_3_0,NA,NA,completion,8066.344,412024.10000002,412016.593,412033.259,420099.603,420105.10000002,2023-05-16T12:30:28Z,420116.269,NULL,Aufstand,ugomaji,d,NA,NA,NA,NA,sdf,NA,0,NA,NA,NA,NA,NA,NA,NA,NA,NA,NA,NA,NA,NA,NA,NA,NA,NA,NA,NA
ab892,shallow,flow.Sequence,5_0_0_0_3_1,NA,NA,skipped,NA,420105.19999999,NA,NA,420099.603,420105.40000004,2023-05-16T12:30:28Z,420116.269,NULL,Aufstand,ugomaji,d,NA,NA,NA,NA,sdf,NA,0,NA,NA,NA,NA,NA,NA,NA,NA,NA,NA,NA,NA,NA,NA,NA,NA,NA,NA,NA
ab892,task,flow.Sequence,5_0_0_0_3,NA,NA,completion,8066.344,412024.10000002,412016.593,412033.259,420099.603,420105.60000002,2023-05-16T12:30:28Z,420116.269,NULL,Aufstand,ugomaji,d,NA,NA,NA,NA,sdf,NA,0,NA,NA,NA,NA,NA,NA,NA,NA,NA,NA,NA,NA,NA,NA,NA,NA,NA,NA,NA
ab892,Deep Question,html.Page,5_0_0_0_4_0_0,NA,NA,form submission,3358.3310000239,420105.69999999,420099.603,420116.269,423474.60000002,423474.90000004,2023-05-16T12:30:31Z,423483.094,NULL,Prüfung,mtihani,d,NA,NA,NA,e,NA,NA,0,NA,NA,NA,NA,NA,NA,NA,NA,NA,NA,NA,NA,NA,NA,NA,NA,NA,NA,NA
ab892,"""Richtig""-Screen",canvas.Screen,5_0_0_0_4_0_1,NA,NA,skipped,NA,423477.80000001,NA,NA,423474.60000002,423478,2023-05-16T12:30:31Z,423483.094,NULL,Prüfung,mtihani,d,NA,NA,NA,NA,sdf,NA,0,NA,NA,NA,NA,NA,NA,NA,NA,NA,NA,NA,NA,NA,NA,NA,NA,NA,NA,NA
ab892,"""Falsch""-Screen",canvas.Screen,5_0_0_0_4_0_2,NA,NA,timeout,4999.8,423478.80000001,423466.428,423483.094,428466.228,428468,2023-05-16T12:30:36Z,428482.894,NULL,Prüfung,mtihani,d,NA,NA,NA,NA,sdf,0,0,NA,NA,NA,NA,NA,NA,NA,NA,NA,NA,NA,NA,NA,NA,NA,NA,NA,NA,NA
ab892,deep,flow.Sequence,5_0_0_0_4_0,NA,NA,completion,8349.959,420105.69999999,420099.603,420116.269,428466.228,428468.40000004,2023-05-16T12:30:36Z,428482.894,NULL,Prüfung,mtihani,d,NA,NA,NA,NA,sdf,NA,0,NA,NA,NA,NA,NA,NA,NA,NA,NA,NA,NA,NA,NA,NA,NA,NA,NA,NA,NA
ab892,shallow,flow.Sequence,5_0_0_0_4_1,NA,NA,skipped,NA,428468.60000002,NA,NA,428466.228,428468.60000002,2023-05-16T12:30:36Z,428482.894,NULL,Prüfung,mtihani,d,NA,NA,NA,NA,sdf,NA,0,NA,NA,NA,NA,NA,NA,NA,NA,NA,NA,NA,NA,NA,NA,NA,NA,NA,NA,NA
ab892,task,flow.Sequence,5_0_0_0_4,NA,NA,completion,8349.959,420105.60000002,420099.603,420116.269,428466.228,428468.90000004,2023-05-16T12:30:36Z,428482.894,NULL,Prüfung,mtihani,d,NA,NA,NA,NA,sdf,NA,0,NA,NA,NA,NA,NA,NA,NA,NA,NA,NA,NA,NA,NA,NA,NA,NA,NA,NA,NA
ab892,deep,flow.Sequence,5_0_0_0_5_0,NA,NA,skipped,NA,428469,NA,NA,428466.228,428469,2023-05-16T12:30:36Z,428482.894,NULL,Annäherung,maegesho,s,madahili,kujiamini,mapendekezo,NA,sdf,NA,0,NA,NA,NA,NA,NA,NA,NA,NA,NA,NA,NA,NA,NA,NA,NA,NA,NA,NA,NA
ab892,Shallow Question,html.Page,5_0_0_0_5_1_0,NA,NA,form submission,8118.4060000119,428469.19999999,428466.228,428482.894,436601.30000001,436601.69999999,2023-05-16T12:30:45Z,436616.197,NULL,Annäherung,maegesho,s,madahili,kujiamini,mapendekezo,madahili,NA,NA,0,NA,NA,NA,NA,NA,NA,NA,NA,NA,NA,NA,NA,NA,NA,NA,NA,NA,NA,NA
ab892,"""Richtig""-Screen",canvas.Screen,5_0_0_0_5_1_1,NA,NA,skipped,NA,436604,NA,NA,436601.30000001,436604.19999999,2023-05-16T12:30:45Z,436616.197,NULL,Annäherung,maegesho,s,madahili,kujiamini,mapendekezo,NA,sdf,NA,0,NA,NA,NA,NA,NA,NA,NA,NA,NA,NA,NA,NA,NA,NA,NA,NA,NA,NA,NA
ab892,"""Falsch""-Screen",canvas.Screen,5_0_0_0_5_1_2,NA,NA,timeout,4999.8,436604.80000001,436599.531,436616.197,441599.331,441604.60000002,2023-05-16T12:30:50Z,441615.997,NULL,Annäherung,maegesho,s,madahili,kujiamini,mapendekezo,NA,sdf,0,0,NA,NA,NA,NA,NA,NA,NA,NA,NA,NA,NA,NA,NA,NA,NA,NA,NA,NA,NA
ab892,shallow,flow.Sequence,5_0_0_0_5_1,NA,NA,completion,13116.437,428469.19999999,428466.228,428482.894,441599.331,441604.69999999,2023-05-16T12:30:50Z,441615.997,NULL,Annäherung,maegesho,s,madahili,kujiamini,mapendekezo,NA,sdf,NA,0,NA,NA,NA,NA,NA,NA,NA,NA,NA,NA,NA,NA,NA,NA,NA,NA,NA,NA,NA
ab892,task,flow.Sequence,5_0_0_0_5,NA,NA,completion,13116.437,428468.90000004,428466.228,428482.894,441599.331,441604.90000004,2023-05-16T12:30:50Z,441615.997,NULL,Annäherung,maegesho,s,madahili,kujiamini,mapendekezo,NA,sdf,NA,0,NA,NA,NA,NA,NA,NA,NA,NA,NA,NA,NA,NA,NA,NA,NA,NA,NA,NA,NA
ab892,deep,flow.Sequence,5_0_0_0_6_0,NA,NA,skipped,NA,441605,NA,NA,441599.331,441605.10000002,2023-05-16T12:30:50Z,441615.997,NULL,Sympathie,mapendano,s,dhamiria,fungamano,maazimio,NA,sdf,NA,0,NA,NA,NA,NA,NA,NA,NA,NA,NA,NA,NA,NA,NA,NA,NA,NA,NA,NA,NA
ab892,Shallow Question,html.Page,5_0_0_0_6_1_0,NA,NA,form submission,11045.503,441605.19999999,441599.331,441615.997,452661.5,452661.69999999,2023-05-16T12:31:01Z,452665.821,NULL,Sympathie,mapendano,s,dhamiria,fungamano,maazimio,dhamiria,NA,NA,0,NA,NA,NA,NA,NA,NA,NA,NA,NA,NA,NA,NA,NA,NA,NA,NA,NA,NA,NA
ab892,"""Richtig""-Screen",canvas.Screen,5_0_0_0_6_1_1,NA,NA,skipped,NA,452665.40000004,NA,NA,452661.5,452665.5,2023-05-16T12:31:01Z,452665.821,NULL,Sympathie,mapendano,s,dhamiria,fungamano,maazimio,NA,sdf,NA,0,NA,NA,NA,NA,NA,NA,NA,NA,NA,NA,NA,NA,NA,NA,NA,NA,NA,NA,NA
ab892,"""Falsch""-Screen",canvas.Screen,5_0_0_0_6_1_2,NA,NA,timeout,4999.8,452666.30000001,452649.155,452665.821,457648.955,457652,2023-05-16T12:31:06Z,457665.621,NULL,Sympathie,mapendano,s,dhamiria,fungamano,maazimio,NA,sdf,0,0,NA,NA,NA,NA,NA,NA,NA,NA,NA,NA,NA,NA,NA,NA,NA,NA,NA,NA,NA
ab892,shallow,flow.Sequence,5_0_0_0_6_1,NA,NA,completion,16032.958,441605.19999999,441599.331,441615.997,457648.955,457652.40000004,2023-05-16T12:31:06Z,457665.621,NULL,Sympathie,mapendano,s,dhamiria,fungamano,maazimio,NA,sdf,NA,0,NA,NA,NA,NA,NA,NA,NA,NA,NA,NA,NA,NA,NA,NA,NA,NA,NA,NA,NA
ab892,task,flow.Sequence,5_0_0_0_6,NA,NA,completion,16032.958,441604.90000004,441599.331,441615.997,457648.955,457652.60000002,2023-05-16T12:31:06Z,457665.621,NULL,Sympathie,mapendano,s,dhamiria,fungamano,maazimio,NA,sdf,NA,0,NA,NA,NA,NA,NA,NA,NA,NA,NA,NA,NA,NA,NA,NA,NA,NA,NA,NA,NA
ab892,Deep Question,html.Page,5_0_0_0_7_0_0,NA,NA,form submission,2081.1790000119,457652.80000001,457648.955,457665.621,459746.80000001,459747.19999999,2023-05-16T12:31:08Z,459749.232,NULL,Beweis,ushahidi,d,NA,NA,NA,u,NA,NA,0,NA,NA,NA,NA,NA,NA,NA,NA,NA,NA,NA,NA,NA,NA,NA,NA,NA,NA,NA
ab892,"""Richtig""-Screen",canvas.Screen,5_0_0_0_7_0_1,NA,NA,skipped,NA,459750,NA,NA,459746.80000001,459750.30000001,2023-05-16T12:31:08Z,459749.232,NULL,Beweis,ushahidi,d,NA,NA,NA,NA,sdf,NA,0,NA,NA,NA,NA,NA,NA,NA,NA,NA,NA,NA,NA,NA,NA,NA,NA,NA,NA,NA
ab892,"""Falsch""-Screen",canvas.Screen,5_0_0_0_7_0_2,NA,NA,timeout,5016.466,459751.19999999,459732.566,459749.232,464732.366,464734.69999999,2023-05-16T12:31:13Z,464765.698,NULL,Beweis,ushahidi,d,NA,NA,NA,NA,sdf,0,0,NA,NA,NA,NA,NA,NA,NA,NA,NA,NA,NA,NA,NA,NA,NA,NA,NA,NA,NA
ab892,deep,flow.Sequence,5_0_0_0_7_0,NA,NA,completion,7066.745,457652.80000001,457648.955,457665.621,464732.366,464735.10000002,2023-05-16T12:31:13Z,464765.698,NULL,Beweis,ushahidi,d,NA,NA,NA,NA,sdf,NA,0,NA,NA,NA,NA,NA,NA,NA,NA,NA,NA,NA,NA,NA,NA,NA,NA,NA,NA,NA
ab892,shallow,flow.Sequence,5_0_0_0_7_1,NA,NA,skipped,NA,464735.19999999,NA,NA,464732.366,464735.30000001,2023-05-16T12:31:13Z,464765.698,NULL,Beweis,ushahidi,d,NA,NA,NA,NA,sdf,NA,0,NA,NA,NA,NA,NA,NA,NA,NA,NA,NA,NA,NA,NA,NA,NA,NA,NA,NA,NA
ab892,task,flow.Sequence,5_0_0_0_7,NA,NA,completion,7066.745,457652.80000001,457648.955,457665.621,464732.366,464735.5,2023-05-16T12:31:13Z,464765.698,NULL,Beweis,ushahidi,d,NA,NA,NA,NA,sdf,NA,0,NA,NA,NA,NA,NA,NA,NA,NA,NA,NA,NA,NA,NA,NA,NA,NA,NA,NA,NA
ab892,block,flow.Loop,5_0_0_0,NA,NA,completion,85182.071,379539.5,379533.629,379550.295,464732.366,464735.69999999,2023-05-16T12:31:13Z,464765.698,NULL,NA,NA,NA,NA,NA,NA,NA,sdf,NA,0,NA,NA,NA,NA,NA,NA,NA,NA,NA,NA,NA,NA,NA,NA,NA,NA,NA,NA,NA
ab892,weiter,canvas.Screen,5_0_0_1,sdf,keypress(Space),response,873.10200001195,464735.80000001,464732.366,464765.698,465638.80000001,465648.60000002,2023-05-16T12:31:14Z,465698.994,NULL,NA,NA,NA,NA,NA,NA,NA,sdf,NA,0,NA,NA,NA,NA,NA,NA,NA,NA,NA,NA,NA,NA,NA,NA,NA,NA,NA,NA,NA
ab892,check continue,flow.Sequence,5_0_0,NA,NA,completion,86088.505000012,379539.40000004,379533.629,379550.295,465638.80000001,465648.80000001,2023-05-16T12:31:14Z,465698.994,NULL,NA,NA,NA,NA,NA,NA,NA,sdf,NA,0,NA,NA,NA,NA,NA,NA,NA,NA,NA,NA,NA,NA,NA,NA,NA,NA,NA,NA,NA
ab892,deep,flow.Sequence,5_0_1_0_0_0,NA,NA,skipped,NA,465683.69999999,NA,NA,465638.80000001,465683.90000004,2023-05-16T12:31:14Z,465698.994,NULL,Annäherung,maegesho,s,madahili,kujiamini,mapendekezo,NA,sdfdsf,NA,1,NA,NA,NA,NA,NA,NA,NA,NA,NA,NA,NA,NA,NA,NA,NA,NA,NA,NA,NA
ab892,Shallow Question,html.Page,5_0_1_0_0_1_0,NA,NA,form submission,6826.6060000238,465683.90000004,465682.328,465698.994,472525.60000002,472525.80000001,2023-05-16T12:31:20Z,472548.997,NULL,Annäherung,maegesho,s,madahili,kujiamini,mapendekezo,maegesho,NA,NA,1,NA,NA,NA,NA,NA,NA,NA,NA,NA,NA,NA,NA,NA,NA,NA,NA,NA,NA,NA
ab892,"""Richtig""-Screen",canvas.Screen,5_0_1_0_0_1_1,NA,NA,timeout,4999.8,472529.10000002,472515.665,472548.997,477532.131,477534.90000004,2023-05-16T12:31:25Z,477548.797,NULL,Annäherung,maegesho,s,madahili,kujiamini,mapendekezo,NA,sdfdsf,1,1,NA,NA,NA,NA,NA,NA,NA,NA,NA,NA,NA,NA,NA,NA,NA,NA,NA,NA,NA
ab892,"""Falsch""-Screen",canvas.Screen,5_0_1_0_0_1_2,NA,NA,skipped,NA,477539.30000001,NA,NA,477532.131,477539.5,2023-05-16T12:31:25Z,477548.797,NULL,Annäherung,maegesho,s,madahili,kujiamini,mapendekezo,NA,sdfdsf,NA,1,NA,NA,NA,NA,NA,NA,NA,NA,NA,NA,NA,NA,NA,NA,NA,NA,NA,NA,NA
ab892,shallow,flow.Sequence,5_0_1_0_0_1,NA,NA,completion,11833.137,465683.90000004,465682.328,465698.994,477532.131,477539.90000004,2023-05-16T12:31:25Z,477548.797,NULL,Annäherung,maegesho,s,madahili,kujiamini,mapendekezo,NA,sdfdsf,NA,1,NA,NA,NA,NA,NA,NA,NA,NA,NA,NA,NA,NA,NA,NA,NA,NA,NA,NA,NA
ab892,task,flow.Sequence,5_0_1_0_0,NA,NA,completion,11833.137,465683.69999999,465682.328,465698.994,477532.131,477540.10000002,2023-05-16T12:31:25Z,477548.797,NULL,Annäherung,maegesho,s,madahili,kujiamini,mapendekezo,NA,sdfdsf,NA,1,NA,NA,NA,NA,NA,NA,NA,NA,NA,NA,NA,NA,NA,NA,NA,NA,NA,NA,NA
ab892,Deep Question,html.Page,5_0_1_0_1_0_0,NA,NA,form submission,7454.203,477540.19999999,477532.131,477548.797,485003,485003.60000002,2023-05-16T12:31:33Z,485015.44,NULL,Aufstand,ugomaji,d,NA,NA,NA,usha,NA,NA,1,NA,NA,NA,NA,NA,NA,NA,NA,NA,NA,NA,NA,NA,NA,NA,NA,NA,NA,NA
ab892,"""Richtig""-Screen",canvas.Screen,5_0_1_0_1_0_1,NA,NA,skipped,NA,485006.30000001,NA,NA,485003,485006.5,2023-05-16T12:31:33Z,485015.44,NULL,Aufstand,ugomaji,d,NA,NA,NA,NA,sdfdsf,NA,1,NA,NA,NA,NA,NA,NA,NA,NA,NA,NA,NA,NA,NA,NA,NA,NA,NA,NA,NA
ab892,"""Falsch""-Screen",canvas.Screen,5_0_1_0_1_0_2,NA,NA,timeout,4999.8,485007.30000001,484998.774,485015.44,489998.574,490000.5,2023-05-16T12:31:38Z,490015.24,NULL,Aufstand,ugomaji,d,NA,NA,NA,NA,sdfdsf,0,1,NA,NA,NA,NA,NA,NA,NA,NA,NA,NA,NA,NA,NA,NA,NA,NA,NA,NA,NA
ab892,deep,flow.Sequence,5_0_1_0_1_0,NA,NA,completion,12449.777,477540.19999999,477532.131,477548.797,489998.574,490000.80000001,2023-05-16T12:31:38Z,490015.24,NULL,Aufstand,ugomaji,d,NA,NA,NA,NA,sdfdsf,NA,1,NA,NA,NA,NA,NA,NA,NA,NA,NA,NA,NA,NA,NA,NA,NA,NA,NA,NA,NA
ab892,shallow,flow.Sequence,5_0_1_0_1_1,NA,NA,skipped,NA,490000.90000004,NA,NA,489998.574,490001.10000002,2023-05-16T12:31:38Z,490015.24,NULL,Aufstand,ugomaji,d,NA,NA,NA,NA,sdfdsf,NA,1,NA,NA,NA,NA,NA,NA,NA,NA,NA,NA,NA,NA,NA,NA,NA,NA,NA,NA,NA
ab892,task,flow.Sequence,5_0_1_0_1,NA,NA,completion,12449.777,477540.19999999,477532.131,477548.797,489998.574,490001.19999999,2023-05-16T12:31:38Z,490015.24,NULL,Aufstand,ugomaji,d,NA,NA,NA,NA,sdfdsf,NA,1,NA,NA,NA,NA,NA,NA,NA,NA,NA,NA,NA,NA,NA,NA,NA,NA,NA,NA,NA
ab892,Deep Question,html.Page,5_0_1_0_2_0_0,NA,NA,form submission,4436.0600000119,490001.5,489998.574,490015.24,494451.30000001,494451.60000002,2023-05-16T12:31:42Z,494465.356,NULL,Beweis,ushahidi,d,NA,NA,NA,o,NA,NA,1,NA,NA,NA,NA,NA,NA,NA,NA,NA,NA,NA,NA,NA,NA,NA,NA,NA,NA,NA
ab892,"""Richtig""-Screen",canvas.Screen,5_0_1_0_2_0_1,NA,NA,skipped,NA,494453.80000001,NA,NA,494451.30000001,494453.90000004,2023-05-16T12:31:42Z,494465.356,NULL,Beweis,ushahidi,d,NA,NA,NA,NA,sdfdsf,NA,1,NA,NA,NA,NA,NA,NA,NA,NA,NA,NA,NA,NA,NA,NA,NA,NA,NA,NA,NA
ab892,"""Falsch""-Screen",canvas.Screen,5_0_1_0_2_0_2,NA,NA,timeout,4999.8,494454.5,494448.69,494465.356,499448.49,499453.90000004,2023-05-16T12:31:47Z,499465.156,NULL,Beweis,ushahidi,d,NA,NA,NA,NA,sdfdsf,0,1,NA,NA,NA,NA,NA,NA,NA,NA,NA,NA,NA,NA,NA,NA,NA,NA,NA,NA,NA
ab892,deep,flow.Sequence,5_0_1_0_2_0,NA,NA,completion,9433.25,490001.5,489998.574,490015.24,499448.49,499454.30000001,2023-05-16T12:31:47Z,499465.156,NULL,Beweis,ushahidi,d,NA,NA,NA,NA,sdfdsf,NA,1,NA,NA,NA,NA,NA,NA,NA,NA,NA,NA,NA,NA,NA,NA,NA,NA,NA,NA,NA
ab892,shallow,flow.Sequence,5_0_1_0_2_1,NA,NA,skipped,NA,499454.30000001,NA,NA,499448.49,499454.5,2023-05-16T12:31:47Z,499465.156,NULL,Beweis,ushahidi,d,NA,NA,NA,NA,sdfdsf,NA,1,NA,NA,NA,NA,NA,NA,NA,NA,NA,NA,NA,NA,NA,NA,NA,NA,NA,NA,NA
ab892,task,flow.Sequence,5_0_1_0_2,NA,NA,completion,9433.25,490001.40000004,489998.574,490015.24,499448.49,499454.60000002,2023-05-16T12:31:47Z,499465.156,NULL,Beweis,ushahidi,d,NA,NA,NA,NA,sdfdsf,NA,1,NA,NA,NA,NA,NA,NA,NA,NA,NA,NA,NA,NA,NA,NA,NA,NA,NA,NA,NA
ab892,deep,flow.Sequence,5_0_1_0_3_0,NA,NA,skipped,NA,499454.80000001,NA,NA,499448.49,499454.80000001,2023-05-16T12:31:47Z,499465.156,NULL,Sympathie,mapendano,s,dhamiria,fungamano,maazimio,NA,sdfdsf,NA,1,NA,NA,NA,NA,NA,NA,NA,NA,NA,NA,NA,NA,NA,NA,NA,NA,NA,NA,NA
ab892,Shallow Question,html.Page,5_0_1_0_3_1_0,NA,NA,form submission,2892.4440000238,499455,499448.49,499465.156,502357.60000002,502357.90000004,2023-05-16T12:31:50Z,502365.323,NULL,Sympathie,mapendano,s,dhamiria,fungamano,maazimio,dhamiria,NA,NA,1,NA,NA,NA,NA,NA,NA,NA,NA,NA,NA,NA,NA,NA,NA,NA,NA,NA,NA,NA
ab892,"""Richtig""-Screen",canvas.Screen,5_0_1_0_3_1_1,NA,NA,skipped,NA,502360.60000002,NA,NA,502357.60000002,502360.69999999,2023-05-16T12:31:50Z,502365.323,NULL,Sympathie,mapendano,s,dhamiria,fungamano,maazimio,NA,sdfdsf,NA,1,NA,NA,NA,NA,NA,NA,NA,NA,NA,NA,NA,NA,NA,NA,NA,NA,NA,NA,NA
ab892,"""Falsch""-Screen",canvas.Screen,5_0_1_0_3_1_2,NA,NA,timeout,4999.8,502361.69999999,502348.657,502365.323,507348.457,507353.5,2023-05-16T12:31:55Z,507365.123,NULL,Sympathie,mapendano,s,dhamiria,fungamano,maazimio,NA,sdfdsf,0,1,NA,NA,NA,NA,NA,NA,NA,NA,NA,NA,NA,NA,NA,NA,NA,NA,NA,NA,NA
ab892,shallow,flow.Sequence,5_0_1_0_3_1,NA,NA,completion,7883.301,499454.90000004,499448.49,499465.156,507348.457,507353.90000004,2023-05-16T12:31:55Z,507365.123,NULL,Sympathie,mapendano,s,dhamiria,fungamano,maazimio,NA,sdfdsf,NA,1,NA,NA,NA,NA,NA,NA,NA,NA,NA,NA,NA,NA,NA,NA,NA,NA,NA,NA,NA
ab892,task,flow.Sequence,5_0_1_0_3,NA,NA,completion,7883.301,499454.69999999,499448.49,499465.156,507348.457,507354.10000002,2023-05-16T12:31:55Z,507365.123,NULL,Sympathie,mapendano,s,dhamiria,fungamano,maazimio,NA,sdfdsf,NA,1,NA,NA,NA,NA,NA,NA,NA,NA,NA,NA,NA,NA,NA,NA,NA,NA,NA,NA,NA
ab892,Deep Question,html.Page,5_0_1_0_4_0_0,NA,NA,form submission,5195.4770000238,507354.30000001,507348.457,507365.123,512560.60000002,512560.90000004,2023-05-16T12:32:00Z,512564.915,NULL,Prüfung,mtihani,d,NA,NA,NA,mdihani,NA,NA,1,NA,NA,NA,NA,NA,NA,NA,NA,NA,NA,NA,NA,NA,NA,NA,NA,NA,NA,NA
ab892,"""Richtig""-Screen",canvas.Screen,5_0_1_0_4_0_1,NA,NA,skipped,NA,512563.69999999,NA,NA,512560.60000002,512563.80000001,2023-05-16T12:32:00Z,512564.915,NULL,Prüfung,mtihani,d,NA,NA,NA,NA,sdfdsf,NA,1,NA,NA,NA,NA,NA,NA,NA,NA,NA,NA,NA,NA,NA,NA,NA,NA,NA,NA,NA
ab892,"""Falsch""-Screen",canvas.Screen,5_0_1_0_4_0_2,NA,NA,timeout,5016.466,512564.60000002,512548.249,512564.915,517548.049,517552.90000004,2023-05-16T12:32:05Z,517581.381,NULL,Prüfung,mtihani,d,NA,NA,NA,NA,sdfdsf,0,1,NA,NA,NA,NA,NA,NA,NA,NA,NA,NA,NA,NA,NA,NA,NA,NA,NA,NA,NA
ab892,deep,flow.Sequence,5_0_1_0_4_0,NA,NA,completion,10182.926,507354.19999999,507348.457,507365.123,517548.049,517553.19999999,2023-05-16T12:32:05Z,517581.381,NULL,Prüfung,mtihani,d,NA,NA,NA,NA,sdfdsf,NA,1,NA,NA,NA,NA,NA,NA,NA,NA,NA,NA,NA,NA,NA,NA,NA,NA,NA,NA,NA
ab892,shallow,flow.Sequence,5_0_1_0_4_1,NA,NA,skipped,NA,517553.40000004,NA,NA,517548.049,517553.5,2023-05-16T12:32:05Z,517581.381,NULL,Prüfung,mtihani,d,NA,NA,NA,NA,sdfdsf,NA,1,NA,NA,NA,NA,NA,NA,NA,NA,NA,NA,NA,NA,NA,NA,NA,NA,NA,NA,NA
ab892,task,flow.Sequence,5_0_1_0_4,NA,NA,completion,10182.926,507354.19999999,507348.457,507365.123,517548.049,517553.60000002,2023-05-16T12:32:05Z,517581.381,NULL,Prüfung,mtihani,d,NA,NA,NA,NA,sdfdsf,NA,1,NA,NA,NA,NA,NA,NA,NA,NA,NA,NA,NA,NA,NA,NA,NA,NA,NA,NA,NA
ab892,deep,flow.Sequence,5_0_1_0_5_0,NA,NA,skipped,NA,517553.80000001,NA,NA,517548.049,517553.90000004,2023-05-16T12:32:05Z,517581.381,NULL,Kultur,utamaduni,s,shetani,gerezani,mazingira,NA,sdfdsf,NA,1,NA,NA,NA,NA,NA,NA,NA,NA,NA,NA,NA,NA,NA,NA,NA,NA,NA,NA,NA
ab892,Shallow Question,html.Page,5_0_1_0_5_1_0,NA,NA,form submission,6295.119,517554,517548.049,517581.381,523876.5,523877,2023-05-16T12:32:12Z,523881.655,NULL,Kultur,utamaduni,s,shetani,gerezani,mazingira,utamaduni,NA,NA,1,NA,NA,NA,NA,NA,NA,NA,NA,NA,NA,NA,NA,NA,NA,NA,NA,NA,NA,NA
ab892,"""Richtig""-Screen",canvas.Screen,5_0_1_0_5_1_1,NA,NA,timeout,4999.7999999999,523879.90000004,523864.989,523881.655,528864.789,528866,2023-05-16T12:32:17Z,528881.455,NULL,Kultur,utamaduni,s,shetani,gerezani,mazingira,NA,sdfdsf,1,1,NA,NA,NA,NA,NA,NA,NA,NA,NA,NA,NA,NA,NA,NA,NA,NA,NA,NA,NA
ab892,"""Falsch""-Screen",canvas.Screen,5_0_1_0_5_1_2,NA,NA,skipped,NA,528870.10000002,NA,NA,528864.789,528870.40000004,2023-05-16T12:32:17Z,528881.455,NULL,Kultur,utamaduni,s,shetani,gerezani,mazingira,NA,sdfdsf,NA,1,NA,NA,NA,NA,NA,NA,NA,NA,NA,NA,NA,NA,NA,NA,NA,NA,NA,NA,NA
ab892,shallow,flow.Sequence,5_0_1_0_5_1,NA,NA,completion,11283.408,517554,517548.049,517581.381,528864.789,528870.69999999006,2023-05-16T12:32:17Z,528881.455,NULL,Kultur,utamaduni,s,shetani,gerezani,mazingira,NA,sdfdsf,NA,1,NA,NA,NA,NA,NA,NA,NA,NA,NA,NA,NA,NA,NA,NA,NA,NA,NA,NA,NA
ab892,task,flow.Sequence,5_0_1_0_5,NA,NA,completion,11283.408,517553.80000001,517548.049,517581.381,528864.789,528870.90000004,2023-05-16T12:32:17Z,528881.455,NULL,Kultur,utamaduni,s,shetani,gerezani,mazingira,NA,sdfdsf,NA,1,NA,NA,NA,NA,NA,NA,NA,NA,NA,NA,NA,NA,NA,NA,NA,NA,NA,NA,NA
ab892,Deep Question,html.Page,5_0_1_0_6_0_0,NA,NA,form submission,5297.845000012,528871.10000002,528864.789,528881.455,534179.30000001,534179.60000002,2023-05-16T12:32:22Z,534214.844,NULL,Polizist,msongora,d,NA,NA,NA,u,NA,NA,1,NA,NA,NA,NA,NA,NA,NA,NA,NA,NA,NA,NA,NA,NA,NA,NA,NA,NA,NA
ab892,"""Richtig""-Screen",canvas.Screen,5_0_1_0_6_0_1,NA,NA,skipped,NA,534182.5,NA,NA,534179.30000001,534182.80000001,2023-05-16T12:32:22Z,534214.844,NULL,Polizist,msongora,d,NA,NA,NA,NA,sdfdsf,NA,1,NA,NA,NA,NA,NA,NA,NA,NA,NA,NA,NA,NA,NA,NA,NA,NA,NA,NA,NA
ab892,"""Falsch""-Screen",canvas.Screen,5_0_1_0_6_0_2,NA,NA,timeout,4999.7999999999,534183.5,534181.512,534214.844,539197.978,539200.69999999006,2023-05-16T12:32:27Z,539214.644,NULL,Polizist,msongora,d,NA,NA,NA,NA,sdfdsf,0,1,NA,NA,NA,NA,NA,NA,NA,NA,NA,NA,NA,NA,NA,NA,NA,NA,NA,NA,NA
ab892,deep,flow.Sequence,5_0_1_0_6_0,NA,NA,completion,10316.523,528871.10000002,528864.789,528881.455,539197.978,539201.30000001,2023-05-16T12:32:27Z,539214.644,NULL,Polizist,msongora,d,NA,NA,NA,NA,sdfdsf,NA,1,NA,NA,NA,NA,NA,NA,NA,NA,NA,NA,NA,NA,NA,NA,NA,NA,NA,NA,NA
ab892,shallow,flow.Sequence,5_0_1_0_6_1,NA,NA,skipped,NA,539201.40000004,NA,NA,539197.978,539201.60000002,2023-05-16T12:32:27Z,539214.644,NULL,Polizist,msongora,d,NA,NA,NA,NA,sdfdsf,NA,1,NA,NA,NA,NA,NA,NA,NA,NA,NA,NA,NA,NA,NA,NA,NA,NA,NA,NA,NA
ab892,task,flow.Sequence,5_0_1_0_6,NA,NA,completion,10316.523,528871,528864.789,528881.455,539197.978,539201.69999999006,2023-05-16T12:32:27Z,539214.644,NULL,Polizist,msongora,d,NA,NA,NA,NA,sdfdsf,NA,1,NA,NA,NA,NA,NA,NA,NA,NA,NA,NA,NA,NA,NA,NA,NA,NA,NA,NA,NA
ab892,deep,flow.Sequence,5_0_1_0_7_0,NA,NA,skipped,NA,539201.90000004,NA,NA,539197.978,539202,2023-05-16T12:32:27Z,539214.644,NULL,Verzögerung,kuchelewa,s,mwakilishi,mwanauchumi,jaribio,NA,sdfdsf,NA,1,NA,NA,NA,NA,NA,NA,NA,NA,NA,NA,NA,NA,NA,NA,NA,NA,NA,NA,NA
ab892,Shallow Question,html.Page,5_0_1_0_7_1_0,NA,NA,form submission,7579.356,539202.10000002,539197.978,539214.644,546794,546794.19999999006,2023-05-16T12:32:35Z,546797.94,NULL,Verzögerung,kuchelewa,s,mwakilishi,mwanauchumi,jaribio,kuchelewa,NA,NA,1,NA,NA,NA,NA,NA,NA,NA,NA,NA,NA,NA,NA,NA,NA,NA,NA,NA,NA,NA
ab892,"""Richtig""-Screen",canvas.Screen,5_0_1_0_7_1_1,NA,NA,timeout,5016.466,546796.90000004,546781.274,546797.94,551781.074,551785,2023-05-16T12:32:40Z,551814.406,NULL,Verzögerung,kuchelewa,s,mwakilishi,mwanauchumi,jaribio,NA,sdfdsf,1,1,NA,NA,NA,NA,NA,NA,NA,NA,NA,NA,NA,NA,NA,NA,NA,NA,NA,NA,NA
ab892,"""Falsch""-Screen",canvas.Screen,5_0_1_0_7_1_2,NA,NA,skipped,NA,551788.90000004,NA,NA,551781.074,551789.19999999006,2023-05-16T12:32:40Z,551814.406,NULL,Verzögerung,kuchelewa,s,mwakilishi,mwanauchumi,jaribio,NA,sdfdsf,NA,1,NA,NA,NA,NA,NA,NA,NA,NA,NA,NA,NA,NA,NA,NA,NA,NA,NA,NA,NA
ab892,shallow,flow.Sequence,5_0_1_0_7_1,NA,NA,completion,12566.43,539202.10000002,539197.978,539214.644,551781.074,551789.40000004,2023-05-16T12:32:40Z,551814.406,NULL,Verzögerung,kuchelewa,s,mwakilishi,mwanauchumi,jaribio,NA,sdfdsf,NA,1,NA,NA,NA,NA,NA,NA,NA,NA,NA,NA,NA,NA,NA,NA,NA,NA,NA,NA,NA
ab892,task,flow.Sequence,5_0_1_0_7,NA,NA,completion,12566.43,539201.90000004,539197.978,539214.644,551781.074,551789.69999999006,2023-05-16T12:32:40Z,551814.406,NULL,Verzögerung,kuchelewa,s,mwakilishi,mwanauchumi,jaribio,NA,sdfdsf,NA,1,NA,NA,NA,NA,NA,NA,NA,NA,NA,NA,NA,NA,NA,NA,NA,NA,NA,NA,NA
ab892,block,flow.Loop,5_0_1_0,NA,NA,completion,86082.08,465683.69999999,465682.328,465698.994,551781.074,551789.90000004,2023-05-16T12:32:40Z,551814.406,NULL,NA,NA,NA,NA,NA,NA,NA,sdfdsf,NA,1,NA,NA,NA,NA,NA,NA,NA,NA,NA,NA,NA,NA,NA,NA,NA,NA,NA,NA,NA
ab892,weiter,canvas.Screen,5_0_1_1,sdf,keypress(Space),response,851.29399998812,551789.90000004,551781.074,551814.406,552665.69999999006,552673.30000001,2023-05-16T12:32:41Z,552714.644,NULL,NA,NA,NA,NA,NA,NA,NA,sdfdsf,NA,1,NA,NA,NA,NA,NA,NA,NA,NA,NA,NA,NA,NA,NA,NA,NA,NA,NA,NA,NA
ab892,check continue,flow.Sequence,5_0_1,NA,NA,completion,86966.705999988,465683.69999999,465682.328,465698.994,552665.69999999006,552673.80000000994,2023-05-16T12:32:41Z,552714.644,NULL,NA,NA,NA,NA,NA,NA,NA,sdfdsf,NA,1,NA,NA,NA,NA,NA,NA,NA,NA,NA,NA,NA,NA,NA,NA,NA,NA,NA,NA,NA
ab892,deep,flow.Sequence,5_0_2_0_0_0,NA,NA,skipped,NA,552706.80000001,NA,NA,552665.69999999006,552706.90000004,2023-05-16T12:32:41Z,552714.644,NULL,Verzögerung,kuchelewa,s,mwakilishi,mwanauchumi,jaribio,NA,sdf,NA,2,NA,NA,NA,NA,NA,NA,NA,NA,NA,NA,NA,NA,NA,NA,NA,NA,NA,NA,NA
ab892,Shallow Question,html.Page,5_0_2_0_0_1_0,NA,NA,form submission,3149.856,552706.90000004,552697.978,552714.644,555864.5,555865,2023-05-16T12:32:44Z,555881.184,NULL,Verzögerung,kuchelewa,s,mwakilishi,mwanauchumi,jaribio,kuchelewa,NA,NA,2,NA,NA,NA,NA,NA,NA,NA,NA,NA,NA,NA,NA,NA,NA,NA,NA,NA,NA,NA
ab892,"""Richtig""-Screen",canvas.Screen,5_0_2_0_0_1_1,NA,NA,timeout,4999.8,555867.60000002,555864.518,555881.184,560864.318,560868,2023-05-16T12:32:49Z,560880.984,NULL,Verzögerung,kuchelewa,s,mwakilishi,mwanauchumi,jaribio,NA,sdf,1,2,NA,NA,NA,NA,NA,NA,NA,NA,NA,NA,NA,NA,NA,NA,NA,NA,NA,NA,NA
ab892,"""Falsch""-Screen",canvas.Screen,5_0_2_0_0_1_2,NA,NA,skipped,NA,560872,NA,NA,560864.318,560872.19999999006,2023-05-16T12:32:49Z,560880.984,NULL,Verzögerung,kuchelewa,s,mwakilishi,mwanauchumi,jaribio,NA,sdf,NA,2,NA,NA,NA,NA,NA,NA,NA,NA,NA,NA,NA,NA,NA,NA,NA,NA,NA,NA,NA
ab892,shallow,flow.Sequence,5_0_2_0_0_1,NA,NA,completion,8149.674,552706.90000004,552697.978,552714.644,560864.318,560872.40000004,2023-05-16T12:32:49Z,560880.984,NULL,Verzögerung,kuchelewa,s,mwakilishi,mwanauchumi,jaribio,NA,sdf,NA,2,NA,NA,NA,NA,NA,NA,NA,NA,NA,NA,NA,NA,NA,NA,NA,NA,NA,NA,NA
ab892,task,flow.Sequence,5_0_2_0_0,NA,NA,completion,8149.674,552706.80000001,552697.978,552714.644,560864.318,560872.60000002,2023-05-16T12:32:49Z,560880.984,NULL,Verzögerung,kuchelewa,s,mwakilishi,mwanauchumi,jaribio,NA,sdf,NA,2,NA,NA,NA,NA,NA,NA,NA,NA,NA,NA,NA,NA,NA,NA,NA,NA,NA,NA,NA
ab892,deep,flow.Sequence,5_0_2_0_1_0,NA,NA,skipped,NA,560872.80000001,NA,NA,560864.318,560872.90000004,2023-05-16T12:32:49Z,560880.984,NULL,Kultur,utamaduni,s,shetani,gerezani,mazingira,NA,sdf,NA,2,NA,NA,NA,NA,NA,NA,NA,NA,NA,NA,NA,NA,NA,NA,NA,NA,NA,NA,NA
ab892,Shallow Question,html.Page,5_0_2_0_1_1_0,NA,NA,form submission,3103.3160000119,560873,560864.318,560880.984,563984.30000000994,563984.60000002,2023-05-16T12:32:52Z,563997.801,NULL,Kultur,utamaduni,s,shetani,gerezani,mazingira,utamaduni,NA,NA,2,NA,NA,NA,NA,NA,NA,NA,NA,NA,NA,NA,NA,NA,NA,NA,NA,NA,NA,NA
ab892,"""Richtig""-Screen",canvas.Screen,5_0_2_0_1_1_1,NA,NA,timeout,4999.8,563985.69999999006,563981.135,563997.801,568980.935,568985.19999999006,2023-05-16T12:32:57Z,568997.601,NULL,Kultur,utamaduni,s,shetani,gerezani,mazingira,NA,sdf,1,2,NA,NA,NA,NA,NA,NA,NA,NA,NA,NA,NA,NA,NA,NA,NA,NA,NA,NA,NA
ab892,"""Falsch""-Screen",canvas.Screen,5_0_2_0_1_1_2,NA,NA,skipped,NA,568988.90000004,NA,NA,568980.935,568989.19999999006,2023-05-16T12:32:57Z,568997.601,NULL,Kultur,utamaduni,s,shetani,gerezani,mazingira,NA,sdf,NA,2,NA,NA,NA,NA,NA,NA,NA,NA,NA,NA,NA,NA,NA,NA,NA,NA,NA,NA,NA
ab892,shallow,flow.Sequence,5_0_2_0_1_1,NA,NA,completion,8099.951,560873,560864.318,560880.984,568980.935,568989.40000004,2023-05-16T12:32:57Z,568997.601,NULL,Kultur,utamaduni,s,shetani,gerezani,mazingira,NA,sdf,NA,2,NA,NA,NA,NA,NA,NA,NA,NA,NA,NA,NA,NA,NA,NA,NA,NA,NA,NA,NA
ab892,task,flow.Sequence,5_0_2_0_1,NA,NA,completion,8099.951,560872.69999999006,560864.318,560880.984,568980.935,568989.5,2023-05-16T12:32:57Z,568997.601,NULL,Kultur,utamaduni,s,shetani,gerezani,mazingira,NA,sdf,NA,2,NA,NA,NA,NA,NA,NA,NA,NA,NA,NA,NA,NA,NA,NA,NA,NA,NA,NA,NA
ab892,Deep Question,html.Page,5_0_2_0_2_0_0,NA,NA,form submission,10020.799000036,568989.69999999006,568980.935,568997.601,579018.40000004,579018.69999999006,2023-05-16T12:33:07Z,579030.802,NULL,Aufstand,ugomaji,d,NA,NA,NA,osh,NA,NA,2,NA,NA,NA,NA,NA,NA,NA,NA,NA,NA,NA,NA,NA,NA,NA,NA,NA,NA,NA
ab892,"""Richtig""-Screen",canvas.Screen,5_0_2_0_2_0_1,NA,NA,skipped,NA,579021.60000002,NA,NA,579018.40000004,579021.90000004,2023-05-16T12:33:07Z,579030.802,NULL,Aufstand,ugomaji,d,NA,NA,NA,NA,sdf,NA,2,NA,NA,NA,NA,NA,NA,NA,NA,NA,NA,NA,NA,NA,NA,NA,NA,NA,NA,NA
ab892,"""Falsch""-Screen",canvas.Screen,5_0_2_0_2_0_2,NA,NA,timeout,4999.7999999999,579022.80000001,579014.136,579030.802,584013.936,584019.5,2023-05-16T12:33:12Z,584030.602,NULL,Aufstand,ugomaji,d,NA,NA,NA,NA,sdf,0,2,NA,NA,NA,NA,NA,NA,NA,NA,NA,NA,NA,NA,NA,NA,NA,NA,NA,NA,NA
ab892,deep,flow.Sequence,5_0_2_0_2_0,NA,NA,completion,15016.335,568989.60000002,568980.935,568997.601,584013.936,584019.80000001,2023-05-16T12:33:12Z,584030.602,NULL,Aufstand,ugomaji,d,NA,NA,NA,NA,sdf,NA,2,NA,NA,NA,NA,NA,NA,NA,NA,NA,NA,NA,NA,NA,NA,NA,NA,NA,NA,NA
ab892,shallow,flow.Sequence,5_0_2_0_2_1,NA,NA,skipped,NA,584019.90000004,NA,NA,584013.936,584020.10000002,2023-05-16T12:33:12Z,584030.602,NULL,Aufstand,ugomaji,d,NA,NA,NA,NA,sdf,NA,2,NA,NA,NA,NA,NA,NA,NA,NA,NA,NA,NA,NA,NA,NA,NA,NA,NA,NA,NA
ab892,task,flow.Sequence,5_0_2_0_2,NA,NA,completion,15016.335,568989.60000002,568980.935,568997.601,584013.936,584020.30000001,2023-05-16T12:33:12Z,584030.602,NULL,Aufstand,ugomaji,d,NA,NA,NA,NA,sdf,NA,2,NA,NA,NA,NA,NA,NA,NA,NA,NA,NA,NA,NA,NA,NA,NA,NA,NA,NA,NA
ab892,Deep Question,html.Page,5_0_2_0_3_0_0,NA,NA,form submission,6451.9980000239,584020.40000004,584013.936,584030.602,590482.60000002,590483,2023-05-16T12:33:18Z,590497.308,NULL,Polizist,msongora,d,NA,NA,NA,msongora,NA,NA,2,NA,NA,NA,NA,NA,NA,NA,NA,NA,NA,NA,NA,NA,NA,NA,NA,NA,NA,NA
ab892,"""Richtig""-Screen",canvas.Screen,5_0_2_0_3_0_1,NA,NA,timeout,4999.8,590485.80000001,590480.642,590497.308,595480.442,595487.40000004,2023-05-16T12:33:23Z,595497.108,NULL,Polizist,msongora,d,NA,NA,NA,NA,sdf,1,2,NA,NA,NA,NA,NA,NA,NA,NA,NA,NA,NA,NA,NA,NA,NA,NA,NA,NA,NA
ab892,"""Falsch""-Screen",canvas.Screen,5_0_2_0_3_0_2,NA,NA,skipped,NA,595491.19999999006,NA,NA,595480.442,595491.40000004,2023-05-16T12:33:23Z,595497.108,NULL,Polizist,msongora,d,NA,NA,NA,NA,sdf,NA,2,NA,NA,NA,NA,NA,NA,NA,NA,NA,NA,NA,NA,NA,NA,NA,NA,NA,NA,NA
ab892,deep,flow.Sequence,5_0_2_0_3_0,NA,NA,completion,11449.84,584020.40000004,584013.936,584030.602,595480.442,595491.60000002,2023-05-16T12:33:23Z,595497.108,NULL,Polizist,msongora,d,NA,NA,NA,NA,sdf,NA,2,NA,NA,NA,NA,NA,NA,NA,NA,NA,NA,NA,NA,NA,NA,NA,NA,NA,NA,NA
ab892,shallow,flow.Sequence,5_0_2_0_3_1,NA,NA,skipped,NA,595491.69999999006,NA,NA,595480.442,595491.69999999006,2023-05-16T12:33:23Z,595497.108,NULL,Polizist,msongora,d,NA,NA,NA,NA,sdf,NA,2,NA,NA,NA,NA,NA,NA,NA,NA,NA,NA,NA,NA,NA,NA,NA,NA,NA,NA,NA
ab892,task,flow.Sequence,5_0_2_0_3,NA,NA,completion,11449.84,584020.30000001,584013.936,584030.602,595480.442,595491.90000004,2023-05-16T12:33:23Z,595497.108,NULL,Polizist,msongora,d,NA,NA,NA,NA,sdf,NA,2,NA,NA,NA,NA,NA,NA,NA,NA,NA,NA,NA,NA,NA,NA,NA,NA,NA,NA,NA
ab892,deep,flow.Sequence,5_0_2_0_4_0,NA,NA,skipped,NA,595491.90000004,NA,NA,595480.442,595492.10000002,2023-05-16T12:33:23Z,595497.108,NULL,Annäherung,maegesho,s,madahili,kujiamini,mapendekezo,NA,sdf,NA,2,NA,NA,NA,NA,NA,NA,NA,NA,NA,NA,NA,NA,NA,NA,NA,NA,NA,NA,NA
ab892,Shallow Question,html.Page,5_0_2_0_4_1_0,NA,NA,form submission,7397.9920000238,595492.10000002,595480.442,595497.108,602895.10000002,602895.30000001,2023-05-16T12:33:31Z,602897.112,NULL,Annäherung,maegesho,s,madahili,kujiamini,mapendekezo,maegesho,NA,NA,2,NA,NA,NA,NA,NA,NA,NA,NA,NA,NA,NA,NA,NA,NA,NA,NA,NA,NA,NA
ab892,"""Richtig""-Screen",canvas.Screen,5_0_2_0_4_1_1,NA,NA,timeout,4999.8,602897.80000001,602880.446,602897.112,607880.246,607882.69999999006,2023-05-16T12:33:36Z,607896.912,NULL,Annäherung,maegesho,s,madahili,kujiamini,mapendekezo,NA,sdf,1,2,NA,NA,NA,NA,NA,NA,NA,NA,NA,NA,NA,NA,NA,NA,NA,NA,NA,NA,NA
ab892,"""Falsch""-Screen",canvas.Screen,5_0_2_0_4_1_2,NA,NA,skipped,NA,607886.90000004,NA,NA,607880.246,607887.30000000994,2023-05-16T12:33:36Z,607896.912,NULL,Annäherung,maegesho,s,madahili,kujiamini,mapendekezo,NA,sdf,NA,2,NA,NA,NA,NA,NA,NA,NA,NA,NA,NA,NA,NA,NA,NA,NA,NA,NA,NA,NA
ab892,shallow,flow.Sequence,5_0_2_0_4_1,NA,NA,completion,12383.138,595492.10000002,595480.442,595497.108,607880.246,607887.40000004,2023-05-16T12:33:36Z,607896.912,NULL,Annäherung,maegesho,s,madahili,kujiamini,mapendekezo,NA,sdf,NA,2,NA,NA,NA,NA,NA,NA,NA,NA,NA,NA,NA,NA,NA,NA,NA,NA,NA,NA,NA
ab892,task,flow.Sequence,5_0_2_0_4,NA,NA,completion,12383.138,595491.90000004,595480.442,595497.108,607880.246,607887.60000002,2023-05-16T12:33:36Z,607896.912,NULL,Annäherung,maegesho,s,madahili,kujiamini,mapendekezo,NA,sdf,NA,2,NA,NA,NA,NA,NA,NA,NA,NA,NA,NA,NA,NA,NA,NA,NA,NA,NA,NA,NA
ab892,Deep Question,html.Page,5_0_2_0_5_0_0,NA,NA,form submission,6699.8880000119,607887.69999999006,607880.246,607896.912,614596.80000001,614596.90000004,2023-05-16T12:33:43Z,614630.301,NULL,Prüfung,mtihani,d,NA,NA,NA,mtihani,NA,NA,2,NA,NA,NA,NA,NA,NA,NA,NA,NA,NA,NA,NA,NA,NA,NA,NA,NA,NA,NA
ab892,"""Richtig""-Screen",canvas.Screen,5_0_2_0_5_0_1,NA,NA,timeout,4999.8,614598.30000001,614596.969,614630.301,619613.435,619615.5,2023-05-16T12:33:48Z,619630.101,NULL,Prüfung,mtihani,d,NA,NA,NA,NA,sdf,1,2,NA,NA,NA,NA,NA,NA,NA,NA,NA,NA,NA,NA,NA,NA,NA,NA,NA,NA,NA
ab892,"""Falsch""-Screen",canvas.Screen,5_0_2_0_5_0_2,NA,NA,skipped,NA,619619.5,NA,NA,619613.435,619619.80000001,2023-05-16T12:33:48Z,619630.101,NULL,Prüfung,mtihani,d,NA,NA,NA,NA,sdf,NA,2,NA,NA,NA,NA,NA,NA,NA,NA,NA,NA,NA,NA,NA,NA,NA,NA,NA,NA,NA
ab892,deep,flow.Sequence,5_0_2_0_5_0,NA,NA,completion,11716.523,607887.69999999006,607880.246,607896.912,619613.435,619620.10000002,2023-05-16T12:33:48Z,619630.101,NULL,Prüfung,mtihani,d,NA,NA,NA,NA,sdf,NA,2,NA,NA,NA,NA,NA,NA,NA,NA,NA,NA,NA,NA,NA,NA,NA,NA,NA,NA,NA
ab892,shallow,flow.Sequence,5_0_2_0_5_1,NA,NA,skipped,NA,619620.10000002,NA,NA,619613.435,619620.19999999006,2023-05-16T12:33:48Z,619630.101,NULL,Prüfung,mtihani,d,NA,NA,NA,NA,sdf,NA,2,NA,NA,NA,NA,NA,NA,NA,NA,NA,NA,NA,NA,NA,NA,NA,NA,NA,NA,NA
ab892,task,flow.Sequence,5_0_2_0_5,NA,NA,completion,11716.523,607887.60000002,607880.246,607896.912,619613.435,619620.30000001,2023-05-16T12:33:48Z,619630.101,NULL,Prüfung,mtihani,d,NA,NA,NA,NA,sdf,NA,2,NA,NA,NA,NA,NA,NA,NA,NA,NA,NA,NA,NA,NA,NA,NA,NA,NA,NA,NA
ab892,Deep Question,html.Page,5_0_2_0_6_0_0,NA,NA,form submission,8444.6990000119,619620.5,619613.435,619630.101,628074.80000001,628075.30000001,2023-05-16T12:33:56Z,628080.07,NULL,Beweis,ushahidi,d,NA,NA,NA,usho,NA,NA,2,NA,NA,NA,NA,NA,NA,NA,NA,NA,NA,NA,NA,NA,NA,NA,NA,NA,NA,NA
ab892,"""Richtig""-Screen",canvas.Screen,5_0_2_0_6_0_1,NA,NA,skipped,NA,628078.10000002,NA,NA,628074.80000001,628078.19999999006,2023-05-16T12:33:56Z,628080.07,NULL,Beweis,ushahidi,d,NA,NA,NA,NA,sdf,NA,2,NA,NA,NA,NA,NA,NA,NA,NA,NA,NA,NA,NA,NA,NA,NA,NA,NA,NA,NA
ab892,"""Falsch""-Screen",canvas.Screen,5_0_2_0_6_0_2,NA,NA,timeout,4999.8,628079.10000002,628063.404,628080.07,633063.204,633065.30000001,2023-05-16T12:34:01Z,633079.87,NULL,Beweis,ushahidi,d,NA,NA,NA,NA,sdf,0,2,NA,NA,NA,NA,NA,NA,NA,NA,NA,NA,NA,NA,NA,NA,NA,NA,NA,NA,NA
