observation,sender,sender_type,sender_id,response,response_action,ended_on,duration,time_run,time_render,time_show,time_end,time_commit,timestamp,time_switch,german,swahili,enc,distractor1,distractor2,distractor3,response_2,x,correct,distractors,url_vp,url_sess,meta_labjs_version,meta_location,meta_user_agent,meta_platform,meta_language,meta_locale,meta_time_zone,meta_timezone_offset,meta_screen_width,meta_screen_height,meta_scroll_width,meta_scroll_height,meta_window_inner_width,meta_window_inner_height,meta_device_pixel_ratio,meta_labjs_build_flavor,meta_labjs_build_commit
1d149,Introduction delayed retrieval,canvas.Screen,0,weiter,keypress(Space),response,27366.608000024,839.29999995232,696.792,863.992,28230.600000024,28237.600000024,2023-05-18T08:19:02Z,28251.352,NA,NA,NA,NA,NA,NA,NA,NA,NA,NULL,123,4,20.2.4,https://neurocog.fernuni.ch/studies/vweber/delayed/index.html?vp=123&sess=4,"Mozilla/5.0 (Macintosh; Intel Mac OS X 10_15_7) AppleWebKit/537.36 (KHTML, like Gecko) Chrome/113.0.0.0 Safari/537.36",MacIntel,de-DE,de,Europe/Zurich,-120,1440,900,1440,673,1440,721,2,production,f5b4a49f956347addd546a832a3327688c2c0fef
1d149,Deep Question,html.Page,1_0_0_0,NA,NA,form submission,11094.648,28238.100000024,28234.632,28251.352,39346,39346.299999952,2023-05-18T08:19:13Z,39355.411,Sänger,mwimbaji,d,msichana,shughuli,mshirika,mwengezo,NA,NA,NULL,NA,NA,NA,NA,NA,NA,NA,NA,NA,NA,NA,NA,NA,NA,NA,NA,NA,NA,NA
1d149,Save data screen,canvas.Screen,1_0_0_1,NA,NA,timeout,501.6,39347.399999976,39338.691,39355.411,39840.291,39849.700000048,2023-05-18T08:19:13Z,39857.011,Sänger,mwimbaji,d,msichana,shughuli,mshirika,NA,NA,0,NULL,NA,NA,NA,NA,NA,NA,NA,NA,NA,NA,NA,NA,NA,NA,NA,NA,NA,NA,NA
1d149,deep,flow.Sequence,1_0_0,NA,NA,completion,11588.939,28238,28234.632,28251.352,39840.291,39850.200000048,2023-05-18T08:19:13Z,39857.011,Sänger,mwimbaji,d,msichana,shughuli,mshirika,NA,NA,NA,NULL,NA,NA,NA,NA,NA,NA,NA,NA,NA,NA,NA,NA,NA,NA,NA,NA,NA,NA,NA
1d149,task,flow.Sequence,1_0,NA,NA,completion,11588.939,28238,28234.632,28251.352,39840.291,39850.5,2023-05-18T08:19:13Z,39857.011,Sänger,mwimbaji,d,msichana,shughuli,mshirika,NA,NA,NA,NULL,NA,NA,NA,NA,NA,NA,NA,NA,NA,NA,NA,NA,NA,NA,NA,NA,NA,NA,NA
1d149,Deep Question,html.Page,1_1_0_0,NA,NA,form submission,12361.189000048,39850.600000024,39840.291,39857.011,52218.200000048,52218.700000048,2023-05-18T08:19:26Z,52230.274,Lawine,banguko,d,maambukizi,usuluhishi,chekechea,u,NA,NA,NULL,NA,NA,NA,NA,NA,NA,NA,NA,NA,NA,NA,NA,NA,NA,NA,NA,NA,NA,NA
1d149,Save data screen,canvas.Screen,1_1_0_1,NA,NA,timeout,501.60000000001,52219.899999976,52213.554,52230.274,52715.154,52721,2023-05-18T08:19:26Z,52731.874,Lawine,banguko,d,maambukizi,usuluhishi,chekechea,NA,NA,0,NULL,NA,NA,NA,NA,NA,NA,NA,NA,NA,NA,NA,NA,NA,NA,NA,NA,NA,NA,NA
1d149,deep,flow.Sequence,1_1_0,NA,NA,completion,12858.143,39850.600000024,39840.291,39857.011,52715.154,52721.399999976,2023-05-18T08:19:26Z,52731.874,Lawine,banguko,d,maambukizi,usuluhishi,chekechea,NA,NA,NA,NULL,NA,NA,NA,NA,NA,NA,NA,NA,NA,NA,NA,NA,NA,NA,NA,NA,NA,NA,NA
1d149,task,flow.Sequence,1_1,NA,NA,completion,12858.143,39850.5,39840.291,39857.011,52715.154,52721.799999952,2023-05-18T08:19:26Z,52731.874,Lawine,banguko,d,maambukizi,usuluhishi,chekechea,NA,NA,NA,NULL,NA,NA,NA,NA,NA,NA,NA,NA,NA,NA,NA,NA,NA,NA,NA,NA,NA,NA,NA
1d149,Deep Question,html.Page,1_2_0_0,NA,NA,form submission,8102.7260000238,52722.100000024,52715.154,52731.874,60834.600000024,60835,2023-05-18T08:19:34Z,60841.574,Kreativität,ubunifu,d,mratibu,mwendelezo,makubaliano,o,NA,NA,NULL,NA,NA,NA,NA,NA,NA,NA,NA,NA,NA,NA,NA,NA,NA,NA,NA,NA,NA,NA
1d149,Save data screen,canvas.Screen,1_2_0_1,NA,NA,timeout,501.6,60836,60824.854,60841.574,61326.454,61327.299999952,2023-05-18T08:19:35Z,61343.174,Kreativität,ubunifu,d,mratibu,mwendelezo,makubaliano,NA,NA,0,NULL,NA,NA,NA,NA,NA,NA,NA,NA,NA,NA,NA,NA,NA,NA,NA,NA,NA,NA,NA
1d149,deep,flow.Sequence,1_2_0,NA,NA,completion,8594.58,52722,52715.154,52731.874,61326.454,61327.600000024,2023-05-18T08:19:35Z,61343.174,Kreativität,ubunifu,d,mratibu,mwendelezo,makubaliano,NA,NA,NA,NULL,NA,NA,NA,NA,NA,NA,NA,NA,NA,NA,NA,NA,NA,NA,NA,NA,NA,NA,NA
1d149,task,flow.Sequence,1_2,NA,NA,completion,8594.58,52722,52715.154,52731.874,61326.454,61327.899999976,2023-05-18T08:19:35Z,61343.174,Kreativität,ubunifu,d,mratibu,mwendelezo,makubaliano,NA,NA,NA,NULL,NA,NA,NA,NA,NA,NA,NA,NA,NA,NA,NA,NA,NA,NA,NA,NA,NA,NA,NA
1d149,Deep Question,html.Page,1_3_0_0,NA,NA,form submission,4642.9260000238,61328.200000048,61326.454,61343.174,65986.100000024,65986.5,2023-05-18T08:19:40Z,65991.334,Kontrolle,kudhibiti,s,mbinguni,kufunga,utegemezi,e,NA,NA,NULL,NA,NA,NA,NA,NA,NA,NA,NA,NA,NA,NA,NA,NA,NA,NA,NA,NA,NA,NA
1d149,Save data screen,canvas.Screen,1_3_0_1,NA,NA,timeout,501.59999999999,65988.899999976,65974.614,65991.334,66476.214,66480.200000048,2023-05-18T08:19:40Z,66492.934,Kontrolle,kudhibiti,s,mbinguni,kufunga,utegemezi,NA,NA,0,NULL,NA,NA,NA,NA,NA,NA,NA,NA,NA,NA,NA,NA,NA,NA,NA,NA,NA,NA,NA
1d149,deep,flow.Sequence,1_3_0,NA,NA,completion,5133.04,61328.100000024,61326.454,61343.174,66476.214,66480.5,2023-05-18T08:19:40Z,66492.934,Kontrolle,kudhibiti,s,mbinguni,kufunga,utegemezi,NA,NA,NA,NULL,NA,NA,NA,NA,NA,NA,NA,NA,NA,NA,NA,NA,NA,NA,NA,NA,NA,NA,NA
1d149,task,flow.Sequence,1_3,NA,NA,completion,5133.04,61328,61326.454,61343.174,66476.214,66480.700000048,2023-05-18T08:19:40Z,66492.934,Kontrolle,kudhibiti,s,mbinguni,kufunga,utegemezi,NA,NA,NA,NULL,NA,NA,NA,NA,NA,NA,NA,NA,NA,NA,NA,NA,NA,NA,NA,NA,NA,NA,NA
1d149,Deep Question,html.Page,1_4_0_0,NA,NA,form submission,9508.9659999762,66480.899999976,66476.214,66492.934,76001.899999976,76002.200000048,2023-05-18T08:19:50Z,76007.224,Übersicht,kilindo,s,mgusano,chipukizi,kulinganisha,m,NA,NA,NULL,NA,NA,NA,NA,NA,NA,NA,NA,NA,NA,NA,NA,NA,NA,NA,NA,NA,NA,NA
1d149,Save data screen,canvas.Screen,1_4_0_1,NA,NA,timeout,501.59999999999,76004.700000048,75990.504,76007.224,76492.104,76493.399999976,2023-05-18T08:19:50Z,76508.824,Übersicht,kilindo,s,mgusano,chipukizi,kulinganisha,NA,NA,0,NULL,NA,NA,NA,NA,NA,NA,NA,NA,NA,NA,NA,NA,NA,NA,NA,NA,NA,NA,NA
1d149,deep,flow.Sequence,1_4_0,NA,NA,completion,9999.17,66480.899999976,66476.214,66492.934,76492.104,76493.700000048,2023-05-18T08:19:50Z,76508.824,Übersicht,kilindo,s,mgusano,chipukizi,kulinganisha,NA,NA,NA,NULL,NA,NA,NA,NA,NA,NA,NA,NA,NA,NA,NA,NA,NA,NA,NA,NA,NA,NA,NA
1d149,task,flow.Sequence,1_4,NA,NA,completion,9999.17,66480.899999976,66476.214,66492.934,76492.104,76493.899999976,2023-05-18T08:19:50Z,76508.824,Übersicht,kilindo,s,mgusano,chipukizi,kulinganisha,NA,NA,NA,NULL,NA,NA,NA,NA,NA,NA,NA,NA,NA,NA,NA,NA,NA,NA,NA,NA,NA,NA,NA
1d149,Deep Question,html.Page,1_5_0_0,NA,NA,form submission,9860.9759999523,76494.100000024,76492.104,76508.824,86369.799999952,86370.200000048,2023-05-18T08:20:00Z,86374.468,Können,unaweza,d,kiongozi,bustani,mienendo,o,NA,NA,NULL,NA,NA,NA,NA,NA,NA,NA,NA,NA,NA,NA,NA,NA,NA,NA,NA,NA,NA,NA
1d149,Save data screen,canvas.Screen,1_5_0_1,NA,NA,timeout,501.60000000001,86372.700000048,86357.748,86374.468,86859.348,86862,2023-05-18T08:20:00Z,86876.068,Können,unaweza,d,kiongozi,bustani,mienendo,NA,NA,0,NULL,NA,NA,NA,NA,NA,NA,NA,NA,NA,NA,NA,NA,NA,NA,NA,NA,NA,NA,NA
1d149,deep,flow.Sequence,1_5_0,NA,NA,completion,10350.524,76494,76492.104,76508.824,86859.348,86862.299999952,2023-05-18T08:20:00Z,86876.068,Können,unaweza,d,kiongozi,bustani,mienendo,NA,NA,NA,NULL,NA,NA,NA,NA,NA,NA,NA,NA,NA,NA,NA,NA,NA,NA,NA,NA,NA,NA,NA
1d149,task,flow.Sequence,1_5,NA,NA,completion,10350.524,76494,76492.104,76508.824,86859.348,86862.399999976,2023-05-18T08:20:00Z,86876.068,Können,unaweza,d,kiongozi,bustani,mienendo,NA,NA,NA,NULL,NA,NA,NA,NA,NA,NA,NA,NA,NA,NA,NA,NA,NA,NA,NA,NA,NA,NA,NA
1d149,Deep Question,html.Page,1_6_0_0,NA,NA,form submission,8125.8319999762,86862.700000048,86859.348,86876.068,95001.899999976,95002.100000024,2023-05-18T08:20:09Z,95001.988,Verzögerung,kuchelewa,s,mwakilishi,mwanauchumi,jaribio,q,NA,NA,NULL,NA,NA,NA,NA,NA,NA,NA,NA,NA,NA,NA,NA,NA,NA,NA,NA,NA,NA,NA
1d149,Save data screen,canvas.Screen,1_6_0_1,NA,NA,timeout,501.60000000001,95004.5,94985.268,95001.988,95486.868,95488.100000024,2023-05-18T08:20:09Z,95503.588,Verzögerung,kuchelewa,s,mwakilishi,mwanauchumi,jaribio,NA,NA,0,NULL,NA,NA,NA,NA,NA,NA,NA,NA,NA,NA,NA,NA,NA,NA,NA,NA,NA,NA,NA
1d149,deep,flow.Sequence,1_6_0,NA,NA,completion,8610.8,86862.600000024,86859.348,86876.068,95486.868,95488.399999976,2023-05-18T08:20:09Z,95503.588,Verzögerung,kuchelewa,s,mwakilishi,mwanauchumi,jaribio,NA,NA,NA,NULL,NA,NA,NA,NA,NA,NA,NA,NA,NA,NA,NA,NA,NA,NA,NA,NA,NA,NA,NA
1d149,task,flow.Sequence,1_6,NA,NA,completion,8610.8,86862.600000024,86859.348,86876.068,95486.868,95488.600000024,2023-05-18T08:20:09Z,95503.588,Verzögerung,kuchelewa,s,mwakilishi,mwanauchumi,jaribio,NA,NA,NA,NULL,NA,NA,NA,NA,NA,NA,NA,NA,NA,NA,NA,NA,NA,NA,NA,NA,NA,NA,NA
1d149,Deep Question,html.Page,1_7_0_0,NA,NA,form submission,14202.412,95488.700000048,95486.868,95503.588,109706,109706.20000005,2023-05-18T08:20:23Z,109716.473,System,maongozi,d,chokochoko,nuksani,mitaani,kiwango,NA,NA,NULL,NA,NA,NA,NA,NA,NA,NA,NA,NA,NA,NA,NA,NA,NA,NA,NA,NA,NA,NA
1d149,Save data screen,canvas.Screen,1_7_0_1,NA,NA,timeout,501.60000000001,109708.79999995,109699.753,109716.473,110201.353,110204.79999995,2023-05-18T08:20:24Z,110218.073,System,maongozi,d,chokochoko,nuksani,mitaani,NA,NA,0,NULL,NA,NA,NA,NA,NA,NA,NA,NA,NA,NA,NA,NA,NA,NA,NA,NA,NA,NA,NA
1d149,deep,flow.Sequence,1_7_0,NA,NA,completion,14697.765,95488.700000048,95486.868,95503.588,110201.353,110205.10000002,2023-05-18T08:20:24Z,110218.073,System,maongozi,d,chokochoko,nuksani,mitaani,NA,NA,NA,NULL,NA,NA,NA,NA,NA,NA,NA,NA,NA,NA,NA,NA,NA,NA,NA,NA,NA,NA,NA
1d149,task,flow.Sequence,1_7,NA,NA,completion,14697.765,95488.700000048,95486.868,95503.588,110201.353,110205.29999995,2023-05-18T08:20:24Z,110218.073,System,maongozi,d,chokochoko,nuksani,mitaani,NA,NA,NA,NULL,NA,NA,NA,NA,NA,NA,NA,NA,NA,NA,NA,NA,NA,NA,NA,NA,NA,NA,NA
1d149,Deep Question,html.Page,1_8_0_0,NA,NA,form submission,13471.927,110205.60000002,110201.353,110218.073,123690,123690.29999995,2023-05-18T08:20:37Z,123695.119,Kultur,utamaduni,s,shetani,gerezani,mazingira,w,NA,NA,NULL,NA,NA,NA,NA,NA,NA,NA,NA,NA,NA,NA,NA,NA,NA,NA,NA,NA,NA,NA
1d149,Save data screen,canvas.Screen,1_8_0_1,NA,NA,timeout,501.59999999999,123692.89999998,123678.399,123695.119,124179.999,124181.39999998,2023-05-18T08:20:38Z,124196.719,Kultur,utamaduni,s,shetani,gerezani,mazingira,NA,NA,0,NULL,NA,NA,NA,NA,NA,NA,NA,NA,NA,NA,NA,NA,NA,NA,NA,NA,NA,NA,NA
1d149,deep,flow.Sequence,1_8_0,NA,NA,completion,13961.926,110205.5,110201.353,110218.073,124179.999,124181.60000002,2023-05-18T08:20:38Z,124196.719,Kultur,utamaduni,s,shetani,gerezani,mazingira,NA,NA,NA,NULL,NA,NA,NA,NA,NA,NA,NA,NA,NA,NA,NA,NA,NA,NA,NA,NA,NA,NA,NA
1d149,task,flow.Sequence,1_8,NA,NA,completion,13961.926,110205.5,110201.353,110218.073,124179.999,124181.79999995,2023-05-18T08:20:38Z,124196.719,Kultur,utamaduni,s,shetani,gerezani,mazingira,NA,NA,NA,NULL,NA,NA,NA,NA,NA,NA,NA,NA,NA,NA,NA,NA,NA,NA,NA,NA,NA,NA,NA
1d149,Deep Question,html.Page,1_9_0_0,NA,NA,form submission,16133.481000048,124182,124179.999,124196.719,140330.20000005,140330.60000002,2023-05-18T08:20:54Z,140332.126,Kanzler,diwani,s,rasilmali,mahitaji,maabudu,diwani,NA,NA,NULL,NA,NA,NA,NA,NA,NA,NA,NA,NA,NA,NA,NA,NA,NA,NA,NA,NA,NA,NA
1d149,Save data screen,canvas.Screen,1_9_0_1,NA,NA,timeout,501.60000000001,140333.20000005,140315.406,140332.126,140817.006,140818.5,2023-05-18T08:20:54Z,140833.726,Kanzler,diwani,s,rasilmali,mahitaji,maabudu,NA,NA,1,NULL,NA,NA,NA,NA,NA,NA,NA,NA,NA,NA,NA,NA,NA,NA,NA,NA,NA,NA,NA
1d149,deep,flow.Sequence,1_9_0,NA,NA,completion,16620.287,124182,124179.999,124196.719,140817.006,140819,2023-05-18T08:20:54Z,140833.726,Kanzler,diwani,s,rasilmali,mahitaji,maabudu,NA,NA,NA,NULL,NA,NA,NA,NA,NA,NA,NA,NA,NA,NA,NA,NA,NA,NA,NA,NA,NA,NA,NA
1d149,task,flow.Sequence,1_9,NA,NA,completion,16620.287,124181.89999998,124179.999,124196.719,140817.006,140819.10000002,2023-05-18T08:20:54Z,140833.726,Kanzler,diwani,s,rasilmali,mahitaji,maabudu,NA,NA,NA,NULL,NA,NA,NA,NA,NA,NA,NA,NA,NA,NA,NA,NA,NA,NA,NA,NA,NA,NA,NA
1d149,Deep Question,html.Page,1_10_0_0,NA,NA,form submission,16784.073999952,140819.39999998,140817.006,140833.726,157617.79999995,157618.10000002,2023-05-18T08:21:11Z,157621.526,Prüfung,mtihani,d,mkulima,mtizamo,ufumbuzi,mtihani,NA,NA,NULL,NA,NA,NA,NA,NA,NA,NA,NA,NA,NA,NA,NA,NA,NA,NA,NA,NA,NA,NA
1d149,Save data screen,canvas.Screen,1_10_0_1,NA,NA,timeout,501.59999999998,157620.60000002,157604.806,157621.526,158106.406,158108.70000005,2023-05-18T08:21:12Z,158123.126,Prüfung,mtihani,d,mkulima,mtizamo,ufumbuzi,NA,NA,1,NULL,NA,NA,NA,NA,NA,NA,NA,NA,NA,NA,NA,NA,NA,NA,NA,NA,NA,NA,NA
1d149,deep,flow.Sequence,1_10_0,NA,NA,completion,17272.68,140819.29999995,140817.006,140833.726,158106.406,158109,2023-05-18T08:21:12Z,158123.126,Prüfung,mtihani,d,mkulima,mtizamo,ufumbuzi,NA,NA,NA,NULL,NA,NA,NA,NA,NA,NA,NA,NA,NA,NA,NA,NA,NA,NA,NA,NA,NA,NA,NA
1d149,task,flow.Sequence,1_10,NA,NA,completion,17272.68,140819.29999995,140817.006,140833.726,158106.406,158109.20000005,2023-05-18T08:21:12Z,158123.126,Prüfung,mtihani,d,mkulima,mtizamo,ufumbuzi,NA,NA,NA,NULL,NA,NA,NA,NA,NA,NA,NA,NA,NA,NA,NA,NA,NA,NA,NA,NA,NA,NA,NA
1d149,Deep Question,html.Page,1_11_0_0,NA,NA,form submission,9102.7739999762,158109.29999995,158106.406,158123.126,167225.89999998,167226.20000005,2023-05-18T08:21:21Z,167252.822,Angreifer,mshambulizi,d,kitengo,tasinia,usafirishaji,mshambulizi,NA,NA,NULL,NA,NA,NA,NA,NA,NA,NA,NA,NA,NA,NA,NA,NA,NA,NA,NA,NA,NA,NA
1d149,Save data screen,canvas.Screen,1_11_0_1,NA,NA,timeout,501.60000000001,167228.70000005,167236.102,167252.822,167737.702,167742.79999995,2023-05-18T08:21:21Z,167754.422,Angreifer,mshambulizi,d,kitengo,tasinia,usafirishaji,NA,NA,1,NULL,NA,NA,NA,NA,NA,NA,NA,NA,NA,NA,NA,NA,NA,NA,NA,NA,NA,NA,NA
1d149,deep,flow.Sequence,1_11_0,NA,NA,completion,9614.576,158109.29999995,158106.406,158123.126,167737.702,167743,2023-05-18T08:21:21Z,167754.422,Angreifer,mshambulizi,d,kitengo,tasinia,usafirishaji,NA,NA,NA,NULL,NA,NA,NA,NA,NA,NA,NA,NA,NA,NA,NA,NA,NA,NA,NA,NA,NA,NA,NA
1d149,task,flow.Sequence,1_11,NA,NA,completion,9614.576,158109.20000005,158106.406,158123.126,167737.702,167743.20000005,2023-05-18T08:21:21Z,167754.422,Angreifer,mshambulizi,d,kitengo,tasinia,usafirishaji,NA,NA,NA,NULL,NA,NA,NA,NA,NA,NA,NA,NA,NA,NA,NA,NA,NA,NA,NA,NA,NA,NA,NA
1d149,Deep Question,html.Page,1_12_0_0,NA,NA,form submission,18055.678000024,167743.39999998,167737.702,167754.422,185810.10000002,185810.39999998,2023-05-18T08:21:39Z,185812.995,Körper,kiwiliwili,s,mapambano,mpatanishi,kiolezo,mwengezalo,NA,NA,NULL,NA,NA,NA,NA,NA,NA,NA,NA,NA,NA,NA,NA,NA,NA,NA,NA,NA,NA,NA
1d149,Save data screen,canvas.Screen,1_12_0_1,NA,NA,timeout,501.60000000001,185812.89999998,185796.275,185812.995,186297.875,186301.5,2023-05-18T08:21:40Z,186314.595,Körper,kiwiliwili,s,mapambano,mpatanishi,kiolezo,NA,NA,0,NULL,NA,NA,NA,NA,NA,NA,NA,NA,NA,NA,NA,NA,NA,NA,NA,NA,NA,NA,NA
1d149,deep,flow.Sequence,1_12_0,NA,NA,completion,18543.453,167743.39999998,167737.702,167754.422,186297.875,186301.70000005,2023-05-18T08:21:40Z,186314.595,Körper,kiwiliwili,s,mapambano,mpatanishi,kiolezo,NA,NA,NA,NULL,NA,NA,NA,NA,NA,NA,NA,NA,NA,NA,NA,NA,NA,NA,NA,NA,NA,NA,NA
1d149,task,flow.Sequence,1_12,NA,NA,completion,18543.453,167743.29999995,167737.702,167754.422,186297.875,186302,2023-05-18T08:21:40Z,186314.595,Körper,kiwiliwili,s,mapambano,mpatanishi,kiolezo,NA,NA,NA,NULL,NA,NA,NA,NA,NA,NA,NA,NA,NA,NA,NA,NA,NA,NA,NA,NA,NA,NA,NA
1d149,Deep Question,html.Page,1_13_0_0,NA,NA,form submission,14303.505000024,186302.10000002,186297.875,186314.595,200618.10000002,200618.39999998,2023-05-18T08:21:54Z,200627.391,Abrechnung,uhasibu,s,kusahihisha,mpambano,mashambulizi,udhanifu,NA,NA,NULL,NA,NA,NA,NA,NA,NA,NA,NA,NA,NA,NA,NA,NA,NA,NA,NA,NA,NA,NA
1d149,Save data screen,canvas.Screen,1_13_0_1,NA,NA,timeout,501.60000000001,200620.89999998,200610.671,200627.391,201112.271,201116,2023-05-18T08:21:55Z,201128.991,Abrechnung,uhasibu,s,kusahihisha,mpambano,mashambulizi,NA,NA,0,NULL,NA,NA,NA,NA,NA,NA,NA,NA,NA,NA,NA,NA,NA,NA,NA,NA,NA,NA,NA
1d149,deep,flow.Sequence,1_13_0,NA,NA,completion,14797.676,186302.10000002,186297.875,186314.595,201112.271,201116.29999995,2023-05-18T08:21:55Z,201128.991,Abrechnung,uhasibu,s,kusahihisha,mpambano,mashambulizi,NA,NA,NA,NULL,NA,NA,NA,NA,NA,NA,NA,NA,NA,NA,NA,NA,NA,NA,NA,NA,NA,NA,NA
1d149,task,flow.Sequence,1_13,NA,NA,completion,14797.676,186302,186297.875,186314.595,201112.271,201116.5,2023-05-18T08:21:55Z,201128.991,Abrechnung,uhasibu,s,kusahihisha,mpambano,mashambulizi,NA,NA,NA,NULL,NA,NA,NA,NA,NA,NA,NA,NA,NA,NA,NA,NA,NA,NA,NA,NA,NA,NA,NA
1d149,Deep Question,html.Page,1_14_0_0,NA,NA,form submission,8857.009,201116.60000002,201112.271,201128.991,209986,209986.29999995,2023-05-18T08:22:04Z,209991.295,Gefährdung,kuhatarisha,s,uchokozi,udhaifu,makorowezo,u,NA,NA,NULL,NA,NA,NA,NA,NA,NA,NA,NA,NA,NA,NA,NA,NA,NA,NA,NA,NA,NA,NA
1d149,Save data screen,canvas.Screen,1_14_0_1,NA,NA,timeout,501.59999999998,209988.89999998,209974.575,209991.295,210476.175,210479.20000005,2023-05-18T08:22:04Z,210492.895,Gefährdung,kuhatarisha,s,uchokozi,udhaifu,makorowezo,NA,NA,0,NULL,NA,NA,NA,NA,NA,NA,NA,NA,NA,NA,NA,NA,NA,NA,NA,NA,NA,NA,NA
1d149,deep,flow.Sequence,1_14_0,NA,NA,completion,9347.184,201116.60000002,201112.271,201128.991,210476.175,210479.5,2023-05-18T08:22:04Z,210492.895,Gefährdung,kuhatarisha,s,uchokozi,udhaifu,makorowezo,NA,NA,NA,NULL,NA,NA,NA,NA,NA,NA,NA,NA,NA,NA,NA,NA,NA,NA,NA,NA,NA,NA,NA
1d149,task,flow.Sequence,1_14,NA,NA,completion,9347.184,201116.60000002,201112.271,201128.991,210476.175,210479.70000005,2023-05-18T08:22:04Z,210492.895,Gefährdung,kuhatarisha,s,uchokozi,udhaifu,makorowezo,NA,NA,NA,NULL,NA,NA,NA,NA,NA,NA,NA,NA,NA,NA,NA,NA,NA,NA,NA,NA,NA,NA,NA
1d149,Deep Question,html.Page,1_15_0_0,NA,NA,form submission,9597.0049999762,210479.79999995,210476.175,210492.895,220089.89999998,220090.20000005,2023-05-18T08:22:14Z,220090.672,Aufstand,ugomaji,d,mazidio,msingi,kujieleza,mshin,NA,NA,NULL,NA,NA,NA,NA,NA,NA,NA,NA,NA,NA,NA,NA,NA,NA,NA,NA,NA,NA,NA
1d149,Save data screen,canvas.Screen,1_15_0_1,NA,NA,timeout,501.60000000001,220092.60000002,220073.952,220090.672,220575.552,220579.39999998,2023-05-18T08:22:14Z,220592.272,Aufstand,ugomaji,d,mazidio,msingi,kujieleza,NA,NA,0,NULL,NA,NA,NA,NA,NA,NA,NA,NA,NA,NA,NA,NA,NA,NA,NA,NA,NA,NA,NA
1d149,deep,flow.Sequence,1_15_0,NA,NA,completion,10082.657,210479.79999995,210476.175,210492.895,220575.552,220579.60000002,2023-05-18T08:22:14Z,220592.272,Aufstand,ugomaji,d,mazidio,msingi,kujieleza,NA,NA,NA,NULL,NA,NA,NA,NA,NA,NA,NA,NA,NA,NA,NA,NA,NA,NA,NA,NA,NA,NA,NA
1d149,task,flow.Sequence,1_15,NA,NA,completion,10082.657,210479.79999995,210476.175,210492.895,220575.552,220579.89999998,2023-05-18T08:22:14Z,220592.272,Aufstand,ugomaji,d,mazidio,msingi,kujieleza,NA,NA,NA,NULL,NA,NA,NA,NA,NA,NA,NA,NA,NA,NA,NA,NA,NA,NA,NA,NA,NA,NA,NA
1d149,retrieval block 1 (cued recall),flow.Loop,1,NA,NA,completion,192324.2,28237.899999976,28234.632,28251.352,220575.552,220580,2023-05-18T08:22:14Z,220592.272,NA,NA,NA,NA,NA,NA,NA,NA,NA,NULL,NA,NA,NA,NA,NA,NA,NA,NA,NA,NA,NA,NA,NA,NA,NA,NA,NA,NA,NA
1d149,Shallow Question,html.Page,2_0_0_0,NA,NA,form submission,8076.228,220580.29999995,220575.552,220592.272,228668.5,228668.89999998,2023-05-18T08:22:22Z,228668.425,System,maongozi,d,chokochoko,nuksani,mitaani,maongozi,NA,NA,"c(""distractor1"", ""distractor2"", ""distractor3"")",NA,NA,NA,NA,NA,NA,NA,NA,NA,NA,NA,NA,NA,NA,NA,NA,NA,NA,NA
1d149,Save data screen,canvas.Screen,2_0_0_1,NA,NA,timeout,501.60000000001,228671.10000002,228651.705,228668.425,229153.305,229158.5,2023-05-18T08:22:23Z,229170.025,System,maongozi,d,chokochoko,nuksani,mitaani,NA,NA,1,"c(""distractor1"", ""distractor2"", ""distractor3"")",NA,NA,NA,NA,NA,NA,NA,NA,NA,NA,NA,NA,NA,NA,NA,NA,NA,NA,NA
1d149,shallow,flow.Sequence,2_0_0,NA,NA,completion,8561.033,220580.20000005,220575.552,220592.272,229153.305,229158.79999995,2023-05-18T08:22:23Z,229170.025,System,maongozi,d,chokochoko,nuksani,mitaani,NA,NA,NA,"c(""distractor1"", ""distractor2"", ""distractor3"")",NA,NA,NA,NA,NA,NA,NA,NA,NA,NA,NA,NA,NA,NA,NA,NA,NA,NA,NA
1d149,task,flow.Sequence,2_0,NA,NA,completion,8561.033,220580.20000005,220575.552,220592.272,229153.305,229159,2023-05-18T08:22:23Z,229170.025,System,maongozi,d,chokochoko,nuksani,mitaani,NA,NA,NA,"c(""distractor1"", ""distractor2"", ""distractor3"")",NA,NA,NA,NA,NA,NA,NA,NA,NA,NA,NA,NA,NA,NA,NA,NA,NA,NA,NA
1d149,Shallow Question,html.Page,2_1_0_0,NA,NA,form submission,10952.075000024,229159.10000002,229153.305,229170.025,240122.10000002,240122.5,2023-05-18T08:22:34Z,240121.625,Kreativität,ubunifu,d,mratibu,mwendelezo,makubaliano,ubunifu,NA,NA,"c(""distractor1"", ""distractor2"", ""distractor3"")",NA,NA,NA,NA,NA,NA,NA,NA,NA,NA,NA,NA,NA,NA,NA,NA,NA,NA,NA
1d149,Save data screen,canvas.Screen,2_1_0_1,NA,NA,timeout,502.22399999999,240124.79999995,240104.905,240121.625,240607.129,240612.10000002,2023-05-18T08:22:34Z,240623.849,Kreativität,ubunifu,d,mratibu,mwendelezo,makubaliano,NA,NA,1,"c(""distractor1"", ""distractor2"", ""distractor3"")",NA,NA,NA,NA,NA,NA,NA,NA,NA,NA,NA,NA,NA,NA,NA,NA,NA,NA,NA
1d149,shallow,flow.Sequence,2_1_0,NA,NA,completion,11437.104,229159.10000002,229153.305,229170.025,240607.129,240612.39999998,2023-05-18T08:22:34Z,240623.849,Kreativität,ubunifu,d,mratibu,mwendelezo,makubaliano,NA,NA,NA,"c(""distractor1"", ""distractor2"", ""distractor3"")",NA,NA,NA,NA,NA,NA,NA,NA,NA,NA,NA,NA,NA,NA,NA,NA,NA,NA,NA
1d149,task,flow.Sequence,2_1,NA,NA,completion,11437.104,229159.10000002,229153.305,229170.025,240607.129,240612.70000005,2023-05-18T08:22:34Z,240623.849,Kreativität,ubunifu,d,mratibu,mwendelezo,makubaliano,NA,NA,NA,"c(""distractor1"", ""distractor2"", ""distractor3"")",NA,NA,NA,NA,NA,NA,NA,NA,NA,NA,NA,NA,NA,NA,NA,NA,NA,NA,NA
1d149,Shallow Question,html.Page,2_2_0_0,NA,NA,form submission,4588.651,240612.89999998,240607.129,240623.849,245212.5,245212.79999995,2023-05-18T08:22:39Z,245221.849,Aufstand,ugomaji,d,mazidio,msingi,kujieleza,ugomaji,NA,NA,"c(""distractor1"", ""distractor2"", ""distractor3"")",NA,NA,NA,NA,NA,NA,NA,NA,NA,NA,NA,NA,NA,NA,NA,NA,NA,NA,NA
1d149,Save data screen,canvas.Screen,2_2_0_1,NA,NA,timeout,501.60000000001,245215.10000002,245205.129,245221.849,245706.729,245709.5,2023-05-18T08:22:39Z,245723.449,Aufstand,ugomaji,d,mazidio,msingi,kujieleza,NA,NA,1,"c(""distractor1"", ""distractor2"", ""distractor3"")",NA,NA,NA,NA,NA,NA,NA,NA,NA,NA,NA,NA,NA,NA,NA,NA,NA,NA,NA
1d149,shallow,flow.Sequence,2_2_0,NA,NA,completion,5082.88,240612.79999995,240607.129,240623.849,245706.729,245709.79999995,2023-05-18T08:22:39Z,245723.449,Aufstand,ugomaji,d,mazidio,msingi,kujieleza,NA,NA,NA,"c(""distractor1"", ""distractor2"", ""distractor3"")",NA,NA,NA,NA,NA,NA,NA,NA,NA,NA,NA,NA,NA,NA,NA,NA,NA,NA,NA
1d149,task,flow.Sequence,2_2,NA,NA,completion,5082.88,240612.79999995,240607.129,240623.849,245706.729,245709.89999998,2023-05-18T08:22:39Z,245723.449,Aufstand,ugomaji,d,mazidio,msingi,kujieleza,NA,NA,NA,"c(""distractor1"", ""distractor2"", ""distractor3"")",NA,NA,NA,NA,NA,NA,NA,NA,NA,NA,NA,NA,NA,NA,NA,NA,NA,NA,NA
1d149,Shallow Question,html.Page,2_3_0_0,NA,NA,form submission,4062.3509999523,245710.10000002,245706.729,245723.449,249785.79999995,249786.10000002,2023-05-18T08:22:43Z,249786.409,Verzögerung,kuchelewa,s,mwakilishi,mwanauchumi,jaribio,kuchelewa,NA,NA,"c(""distractor1"", ""distractor2"", ""distractor3"")",NA,NA,NA,NA,NA,NA,NA,NA,NA,NA,NA,NA,NA,NA,NA,NA,NA,NA,NA
1d149,Save data screen,canvas.Screen,2_3_0_1,NA,NA,timeout,501.59999999998,249788.29999995,249769.689,249786.409,250271.289,250275.29999995,2023-05-18T08:22:44Z,250288.009,Verzögerung,kuchelewa,s,mwakilishi,mwanauchumi,jaribio,NA,NA,1,"c(""distractor1"", ""distractor2"", ""distractor3"")",NA,NA,NA,NA,NA,NA,NA,NA,NA,NA,NA,NA,NA,NA,NA,NA,NA,NA,NA
1d149,shallow,flow.Sequence,2_3_0,NA,NA,completion,4547.84,245710.10000002,245706.729,245723.449,250271.289,250275.79999995,2023-05-18T08:22:44Z,250288.009,Verzögerung,kuchelewa,s,mwakilishi,mwanauchumi,jaribio,NA,NA,NA,"c(""distractor1"", ""distractor2"", ""distractor3"")",NA,NA,NA,NA,NA,NA,NA,NA,NA,NA,NA,NA,NA,NA,NA,NA,NA,NA,NA
1d149,task,flow.Sequence,2_3,NA,NA,completion,4547.84,245710.10000002,245706.729,245723.449,250271.289,250275.89999998,2023-05-18T08:22:44Z,250288.009,Verzögerung,kuchelewa,s,mwakilishi,mwanauchumi,jaribio,NA,NA,NA,"c(""distractor1"", ""distractor2"", ""distractor3"")",NA,NA,NA,NA,NA,NA,NA,NA,NA,NA,NA,NA,NA,NA,NA,NA,NA,NA,NA
1d149,Shallow Question,html.Page,2_4_0_0,NA,NA,form submission,3284.2909999523,250276.10000002,250271.289,250288.009,253572.29999995,253572.70000005,2023-05-18T08:22:47Z,253582.33,Können,unaweza,d,kiongozi,bustani,mienendo,unaweza,NA,NA,"c(""distractor1"", ""distractor2"", ""distractor3"")",NA,NA,NA,NA,NA,NA,NA,NA,NA,NA,NA,NA,NA,NA,NA,NA,NA,NA,NA
1d149,Save data screen,canvas.Screen,2_4_0_1,NA,NA,timeout,501.60000000001,253574.79999995,253565.61,253582.33,254067.21,254068.60000002,2023-05-18T08:22:48Z,254083.93,Können,unaweza,d,kiongozi,bustani,mienendo,NA,NA,1,"c(""distractor1"", ""distractor2"", ""distractor3"")",NA,NA,NA,NA,NA,NA,NA,NA,NA,NA,NA,NA,NA,NA,NA,NA,NA,NA,NA
1d149,shallow,flow.Sequence,2_4_0,NA,NA,completion,3779.201,250276.10000002,250271.289,250288.009,254067.21,254068.89999998,2023-05-18T08:22:48Z,254083.93,Können,unaweza,d,kiongozi,bustani,mienendo,NA,NA,NA,"c(""distractor1"", ""distractor2"", ""distractor3"")",NA,NA,NA,NA,NA,NA,NA,NA,NA,NA,NA,NA,NA,NA,NA,NA,NA,NA,NA
1d149,task,flow.Sequence,2_4,NA,NA,completion,3779.201,250276,250271.289,250288.009,254067.21,254069.20000005,2023-05-18T08:22:48Z,254083.93,Können,unaweza,d,kiongozi,bustani,mienendo,NA,NA,NA,"c(""distractor1"", ""distractor2"", ""distractor3"")",NA,NA,NA,NA,NA,NA,NA,NA,NA,NA,NA,NA,NA,NA,NA,NA,NA,NA,NA
1d149,Shallow Question,html.Page,2_5_0_0,NA,NA,form submission,3917.6700000238,254069.20000005,254067.21,254083.93,258001.60000002,258001.89999998,2023-05-18T08:22:52Z,258013.13,Körper,kiwiliwili,s,mapambano,mpatanishi,kiolezo,kiwiliwili,NA,NA,"c(""distractor1"", ""distractor2"", ""distractor3"")",NA,NA,NA,NA,NA,NA,NA,NA,NA,NA,NA,NA,NA,NA,NA,NA,NA,NA,NA
1d149,Save data screen,canvas.Screen,2_5_0_1,NA,NA,timeout,501.60000000001,258004.10000002,257996.41,258013.13,258498.01,258502.79999995,2023-05-18T08:22:52Z,258514.73,Körper,kiwiliwili,s,mapambano,mpatanishi,kiolezo,NA,NA,1,"c(""distractor1"", ""distractor2"", ""distractor3"")",NA,NA,NA,NA,NA,NA,NA,NA,NA,NA,NA,NA,NA,NA,NA,NA,NA,NA,NA
1d149,shallow,flow.Sequence,2_5_0,NA,NA,completion,4414.08,254069.20000005,254067.21,254083.93,258498.01,258503.10000002,2023-05-18T08:22:52Z,258514.73,Körper,kiwiliwili,s,mapambano,mpatanishi,kiolezo,NA,NA,NA,"c(""distractor1"", ""distractor2"", ""distractor3"")",NA,NA,NA,NA,NA,NA,NA,NA,NA,NA,NA,NA,NA,NA,NA,NA,NA,NA,NA
1d149,task,flow.Sequence,2_5,NA,NA,completion,4414.08,254069.20000005,254067.21,254083.93,258498.01,258507.89999998,2023-05-18T08:22:52Z,258514.73,Körper,kiwiliwili,s,mapambano,mpatanishi,kiolezo,NA,NA,NA,"c(""distractor1"", ""distractor2"", ""distractor3"")",NA,NA,NA,NA,NA,NA,NA,NA,NA,NA,NA,NA,NA,NA,NA,NA,NA,NA,NA
1d149,Shallow Question,html.Page,2_6_0_0,NA,NA,form submission,5377.6699999761,258508.20000005,258498.01,258514.73,263892.39999998,263892.70000005,2023-05-18T08:22:57Z,263899.272,Abrechnung,uhasibu,s,kusahihisha,mpambano,mashambulizi,uhasibu,NA,NA,"c(""distractor1"", ""distractor2"", ""distractor3"")",NA,NA,NA,NA,NA,NA,NA,NA,NA,NA,NA,NA,NA,NA,NA,NA,NA,NA,NA
1d149,Save data screen,canvas.Screen,2_6_0_1,NA,NA,timeout,501.59999999998,263895,263882.552,263899.272,264384.152,264389.20000005,2023-05-18T08:22:58Z,264400.872,Abrechnung,uhasibu,s,kusahihisha,mpambano,mashambulizi,NA,NA,1,"c(""distractor1"", ""distractor2"", ""distractor3"")",NA,NA,NA,NA,NA,NA,NA,NA,NA,NA,NA,NA,NA,NA,NA,NA,NA,NA,NA
1d149,shallow,flow.Sequence,2_6_0,NA,NA,completion,5869.422,258508.10000002,258498.01,258514.73,264384.152,264389.60000002,2023-05-18T08:22:58Z,264400.872,Abrechnung,uhasibu,s,kusahihisha,mpambano,mashambulizi,NA,NA,NA,"c(""distractor1"", ""distractor2"", ""distractor3"")",NA,NA,NA,NA,NA,NA,NA,NA,NA,NA,NA,NA,NA,NA,NA,NA,NA,NA,NA
1d149,task,flow.Sequence,2_6,NA,NA,completion,5869.422,258508.10000002,258498.01,258514.73,264384.152,264389.70000005,2023-05-18T08:22:58Z,264400.872,Abrechnung,uhasibu,s,kusahihisha,mpambano,mashambulizi,NA,NA,NA,"c(""distractor1"", ""distractor2"", ""distractor3"")",NA,NA,NA,NA,NA,NA,NA,NA,NA,NA,NA,NA,NA,NA,NA,NA,NA,NA,NA
1d149,Shallow Question,html.Page,2_7_0_0,NA,NA,form submission,3745.0279999762,264389.89999998,264384.152,264400.872,268145.89999998,268146.10000002,2023-05-18T08:23:02Z,268146.152,Lawine,banguko,d,maambukizi,usuluhishi,chekechea,banguko,NA,NA,"c(""distractor1"", ""distractor2"", ""distractor3"")",NA,NA,NA,NA,NA,NA,NA,NA,NA,NA,NA,NA,NA,NA,NA,NA,NA,NA,NA
1d149,Save data screen,canvas.Screen,2_7_0_1,NA,NA,timeout,501.59999999998,268148.39999998,268129.432,268146.152,268631.032,268633.5,2023-05-18T08:23:02Z,268647.752,Lawine,banguko,d,maambukizi,usuluhishi,chekechea,NA,NA,1,"c(""distractor1"", ""distractor2"", ""distractor3"")",NA,NA,NA,NA,NA,NA,NA,NA,NA,NA,NA,NA,NA,NA,NA,NA,NA,NA,NA
1d149,shallow,flow.Sequence,2_7_0,NA,NA,completion,4230.16,264389.79999995,264384.152,264400.872,268631.032,268633.89999998,2023-05-18T08:23:02Z,268647.752,Lawine,banguko,d,maambukizi,usuluhishi,chekechea,NA,NA,NA,"c(""distractor1"", ""distractor2"", ""distractor3"")",NA,NA,NA,NA,NA,NA,NA,NA,NA,NA,NA,NA,NA,NA,NA,NA,NA,NA,NA
1d149,task,flow.Sequence,2_7,NA,NA,completion,4230.16,264389.79999995,264384.152,264400.872,268631.032,268634.20000005,2023-05-18T08:23:02Z,268647.752,Lawine,banguko,d,maambukizi,usuluhishi,chekechea,NA,NA,NA,"c(""distractor1"", ""distractor2"", ""distractor3"")",NA,NA,NA,NA,NA,NA,NA,NA,NA,NA,NA,NA,NA,NA,NA,NA,NA,NA,NA
1d149,Shallow Question,html.Page,2_8_0_0,NA,NA,form submission,4212.6479999762,268634.39999998,268631.032,268647.752,272860.39999998,272860.60000002,2023-05-18T08:23:06Z,272861.673,Angreifer,mshambulizi,d,kitengo,tasinia,usafirishaji,mshambulizi,NA,NA,"c(""distractor1"", ""distractor2"", ""distractor3"")",NA,NA,NA,NA,NA,NA,NA,NA,NA,NA,NA,NA,NA,NA,NA,NA,NA,NA,NA
1d149,Save data screen,canvas.Screen,2_8_0_1,NA,NA,timeout,501.59999999998,272862.79999995,272844.953,272861.673,273346.553,273350.70000005,2023-05-18T08:23:07Z,273363.273,Angreifer,mshambulizi,d,kitengo,tasinia,usafirishaji,NA,NA,1,"c(""distractor1"", ""distractor2"", ""distractor3"")",NA,NA,NA,NA,NA,NA,NA,NA,NA,NA,NA,NA,NA,NA,NA,NA,NA,NA,NA
1d149,shallow,flow.Sequence,2_8_0,NA,NA,completion,4698.801,268634.39999998,268631.032,268647.752,273346.553,273351.10000002,2023-05-18T08:23:07Z,273363.273,Angreifer,mshambulizi,d,kitengo,tasinia,usafirishaji,NA,NA,NA,"c(""distractor1"", ""distractor2"", ""distractor3"")",NA,NA,NA,NA,NA,NA,NA,NA,NA,NA,NA,NA,NA,NA,NA,NA,NA,NA,NA
1d149,task,flow.Sequence,2_8,NA,NA,completion,4698.801,268634.29999995,268631.032,268647.752,273346.553,273351.29999995,2023-05-18T08:23:07Z,273363.273,Angreifer,mshambulizi,d,kitengo,tasinia,usafirishaji,NA,NA,NA,"c(""distractor1"", ""distractor2"", ""distractor3"")",NA,NA,NA,NA,NA,NA,NA,NA,NA,NA,NA,NA,NA,NA,NA,NA,NA,NA,NA
1d149,Shallow Question,html.Page,2_9_0_0,NA,NA,form submission,4278.9270000477,273351.5,273346.553,273363.273,277642.20000005,277642.39999998,2023-05-18T08:23:11Z,277643.593,Prüfung,mtihani,d,mkulima,mtizamo,ufumbuzi,mtihani,NA,NA,"c(""distractor1"", ""distractor2"", ""distractor3"")",NA,NA,NA,NA,NA,NA,NA,NA,NA,NA,NA,NA,NA,NA,NA,NA,NA,NA,NA
1d149,Save data screen,canvas.Screen,2_9_0_1,NA,NA,timeout,501.60000000003,277644.70000005,277626.873,277643.593,278128.473,278130.89999998,2023-05-18T08:23:12Z,278145.193,Prüfung,mtihani,d,mkulima,mtizamo,ufumbuzi,NA,NA,1,"c(""distractor1"", ""distractor2"", ""distractor3"")",NA,NA,NA,NA,NA,NA,NA,NA,NA,NA,NA,NA,NA,NA,NA,NA,NA,NA,NA
1d149,shallow,flow.Sequence,2_9_0,NA,NA,completion,4765.2,273351.39999998,273346.553,273363.273,278128.473,278131.20000005,2023-05-18T08:23:12Z,278145.193,Prüfung,mtihani,d,mkulima,mtizamo,ufumbuzi,NA,NA,NA,"c(""distractor1"", ""distractor2"", ""distractor3"")",NA,NA,NA,NA,NA,NA,NA,NA,NA,NA,NA,NA,NA,NA,NA,NA,NA,NA,NA
1d149,task,flow.Sequence,2_9,NA,NA,completion,4765.2,273351.39999998,273346.553,273363.273,278128.473,278131.39999998,2023-05-18T08:23:12Z,278145.193,Prüfung,mtihani,d,mkulima,mtizamo,ufumbuzi,NA,NA,NA,"c(""distractor1"", ""distractor2"", ""distractor3"")",NA,NA,NA,NA,NA,NA,NA,NA,NA,NA,NA,NA,NA,NA,NA,NA,NA,NA,NA
1d149,Shallow Question,html.Page,2_10_0_0,NA,NA,form submission,5019.2069999761,278131.5,278128.473,278145.193,283164.39999998,283164.70000005,2023-05-18T08:23:17Z,283178.423,Sänger,mwimbaji,d,msichana,shughuli,mshirika,mwimbaji,NA,NA,"c(""distractor1"", ""distractor2"", ""distractor3"")",NA,NA,NA,NA,NA,NA,NA,NA,NA,NA,NA,NA,NA,NA,NA,NA,NA,NA,NA
1d149,Save data screen,canvas.Screen,2_10_0_1,NA,NA,timeout,501.59999999998,283167,283161.703,283178.423,283663.303,283667.89999998,2023-05-18T08:23:17Z,283680.023,Sänger,mwimbaji,d,msichana,shughuli,mshirika,NA,NA,1,"c(""distractor1"", ""distractor2"", ""distractor3"")",NA,NA,NA,NA,NA,NA,NA,NA,NA,NA,NA,NA,NA,NA,NA,NA,NA,NA,NA
1d149,shallow,flow.Sequence,2_10_0,NA,NA,completion,5518.11,278131.5,278128.473,278145.193,283663.303,283668.29999995,2023-05-18T08:23:17Z,283680.023,Sänger,mwimbaji,d,msichana,shughuli,mshirika,NA,NA,NA,"c(""distractor1"", ""distractor2"", ""distractor3"")",NA,NA,NA,NA,NA,NA,NA,NA,NA,NA,NA,NA,NA,NA,NA,NA,NA,NA,NA
1d149,task,flow.Sequence,2_10,NA,NA,completion,5518.11,278131.5,278128.473,278145.193,283663.303,283668.39999998,2023-05-18T08:23:17Z,283680.023,Sänger,mwimbaji,d,msichana,shughuli,mshirika,NA,NA,NA,"c(""distractor1"", ""distractor2"", ""distractor3"")",NA,NA,NA,NA,NA,NA,NA,NA,NA,NA,NA,NA,NA,NA,NA,NA,NA,NA,NA
1d149,Shallow Question,html.Page,2_11_0_0,NA,NA,form submission,5273.8769999762,283668.60000002,283663.303,283680.023,288953.89999998,288954.20000005,2023-05-18T08:23:23Z,288963.543,Übersicht,kilindo,s,mgusano,chipukizi,kulinganisha,kilindo,NA,NA,"c(""distractor1"", ""distractor2"", ""distractor3"")",NA,NA,NA,NA,NA,NA,NA,NA,NA,NA,NA,NA,NA,NA,NA,NA,NA,NA,NA
1d149,Save data screen,canvas.Screen,2_11_0_1,NA,NA,timeout,501.59999999998,288956.60000002,288946.823,288963.543,289448.423,289451.20000005,2023-05-18T08:23:23Z,289465.143,Übersicht,kilindo,s,mgusano,chipukizi,kulinganisha,NA,NA,1,"c(""distractor1"", ""distractor2"", ""distractor3"")",NA,NA,NA,NA,NA,NA,NA,NA,NA,NA,NA,NA,NA,NA,NA,NA,NA,NA,NA
1d149,shallow,flow.Sequence,2_11_0,NA,NA,completion,5768.4,283668.60000002,283663.303,283680.023,289448.423,289451.39999998,2023-05-18T08:23:23Z,289465.143,Übersicht,kilindo,s,mgusano,chipukizi,kulinganisha,NA,NA,NA,"c(""distractor1"", ""distractor2"", ""distractor3"")",NA,NA,NA,NA,NA,NA,NA,NA,NA,NA,NA,NA,NA,NA,NA,NA,NA,NA,NA
1d149,task,flow.Sequence,2_11,NA,NA,completion,5768.4,283668.5,283663.303,283680.023,289448.423,289451.60000002,2023-05-18T08:23:23Z,289465.143,Übersicht,kilindo,s,mgusano,chipukizi,kulinganisha,NA,NA,NA,"c(""distractor1"", ""distractor2"", ""distractor3"")",NA,NA,NA,NA,NA,NA,NA,NA,NA,NA,NA,NA,NA,NA,NA,NA,NA,NA,NA
1d149,Shallow Question,html.Page,2_12_0_0,NA,NA,form submission,2434.9570000239,289451.79999995,289448.423,289465.143,291900.10000002,291900.39999998,2023-05-18T08:23:25Z,291906.263,Kanzler,diwani,s,rasilmali,mahitaji,maabudu,diwani,NA,NA,"c(""distractor1"", ""distractor2"", ""distractor3"")",NA,NA,NA,NA,NA,NA,NA,NA,NA,NA,NA,NA,NA,NA,NA,NA,NA,NA,NA
1d149,Save data screen,canvas.Screen,2_12_0_1,NA,NA,timeout,502.09700000001,291901.29999995,291889.543,291906.263,292391.64,292396.39999998,2023-05-18T08:23:26Z,292408.36,Kanzler,diwani,s,rasilmali,mahitaji,maabudu,NA,NA,1,"c(""distractor1"", ""distractor2"", ""distractor3"")",NA,NA,NA,NA,NA,NA,NA,NA,NA,NA,NA,NA,NA,NA,NA,NA,NA,NA,NA
1d149,shallow,flow.Sequence,2_12_0,NA,NA,completion,2926.497,289451.79999995,289448.423,289465.143,292391.64,292396.79999995,2023-05-18T08:23:26Z,292408.36,Kanzler,diwani,s,rasilmali,mahitaji,maabudu,NA,NA,NA,"c(""distractor1"", ""distractor2"", ""distractor3"")",NA,NA,NA,NA,NA,NA,NA,NA,NA,NA,NA,NA,NA,NA,NA,NA,NA,NA,NA
1d149,task,flow.Sequence,2_12,NA,NA,completion,2926.497,289451.70000005,289448.423,289465.143,292391.64,292396.89999998,2023-05-18T08:23:26Z,292408.36,Kanzler,diwani,s,rasilmali,mahitaji,maabudu,NA,NA,NA,"c(""distractor1"", ""distractor2"", ""distractor3"")",NA,NA,NA,NA,NA,NA,NA,NA,NA,NA,NA,NA,NA,NA,NA,NA,NA,NA,NA
1d149,Shallow Question,html.Page,2_13_0_0,NA,NA,form submission,10033.64,292397,292391.64,292408.36,302442,302442.20000005,2023-05-18T08:23:36Z,302457.08,Gefährdung,kuhatarisha,s,uchokozi,udhaifu,makorowezo,uchokozi,NA,NA,"c(""distractor1"", ""distractor2"", ""distractor3"")",NA,NA,NA,NA,NA,NA,NA,NA,NA,NA,NA,NA,NA,NA,NA,NA,NA,NA,NA
1d149,Save data screen,canvas.Screen,2_13_0_1,NA,NA,timeout,502.092,302444.5,302440.36,302457.08,302942.452,302946.70000005,2023-05-18T08:23:37Z,302959.172,Gefährdung,kuhatarisha,s,uchokozi,udhaifu,makorowezo,NA,NA,0,"c(""distractor1"", ""distractor2"", ""distractor3"")",NA,NA,NA,NA,NA,NA,NA,NA,NA,NA,NA,NA,NA,NA,NA,NA,NA,NA,NA
1d149,shallow,flow.Sequence,2_13_0,NA,NA,completion,10534.092,292397,292391.64,292408.36,302942.452,302947,2023-05-18T08:23:37Z,302959.172,Gefährdung,kuhatarisha,s,uchokozi,udhaifu,makorowezo,NA,NA,NA,"c(""distractor1"", ""distractor2"", ""distractor3"")",NA,NA,NA,NA,NA,NA,NA,NA,NA,NA,NA,NA,NA,NA,NA,NA,NA,NA,NA
1d149,task,flow.Sequence,2_13,NA,NA,completion,10534.092,292397,292391.64,292408.36,302942.452,302947.20000005,2023-05-18T08:23:37Z,302959.172,Gefährdung,kuhatarisha,s,uchokozi,udhaifu,makorowezo,NA,NA,NA,"c(""distractor1"", ""distractor2"", ""distractor3"")",NA,NA,NA,NA,NA,NA,NA,NA,NA,NA,NA,NA,NA,NA,NA,NA,NA,NA,NA
1d149,Shallow Question,html.Page,2_14_0_0,NA,NA,form submission,14613.028000048,302947.39999998,302942.452,302959.172,317572.20000005,317572.5,2023-05-18T08:23:51Z,317572.841,Kultur,utamaduni,s,shetani,gerezani,mazingira,utamaduni,NA,NA,"c(""distractor1"", ""distractor2"", ""distractor3"")",NA,NA,NA,NA,NA,NA,NA,NA,NA,NA,NA,NA,NA,NA,NA,NA,NA,NA,NA
1d149,Save data screen,canvas.Screen,2_14_0_1,NA,NA,timeout,501.59999999998,317575.10000002,317556.121,317572.841,318057.721,318062.60000002,2023-05-18T08:23:52Z,318074.441,Kultur,utamaduni,s,shetani,gerezani,mazingira,NA,NA,1,"c(""distractor1"", ""distractor2"", ""distractor3"")",NA,NA,NA,NA,NA,NA,NA,NA,NA,NA,NA,NA,NA,NA,NA,NA,NA,NA,NA
1d149,shallow,flow.Sequence,2_14_0,NA,NA,completion,15098.549,302947.39999998,302942.452,302959.172,318057.721,318062.89999998,2023-05-18T08:23:52Z,318074.441,Kultur,utamaduni,s,shetani,gerezani,mazingira,NA,NA,NA,"c(""distractor1"", ""distractor2"", ""distractor3"")",NA,NA,NA,NA,NA,NA,NA,NA,NA,NA,NA,NA,NA,NA,NA,NA,NA,NA,NA
1d149,task,flow.Sequence,2_14,NA,NA,completion,15098.549,302947.29999995,302942.452,302959.172,318057.721,318063.10000002,2023-05-18T08:23:52Z,318074.441,Kultur,utamaduni,s,shetani,gerezani,mazingira,NA,NA,NA,"c(""distractor1"", ""distractor2"", ""distractor3"")",NA,NA,NA,NA,NA,NA,NA,NA,NA,NA,NA,NA,NA,NA,NA,NA,NA,NA,NA
1d149,Shallow Question,html.Page,2_15_0_0,NA,NA,form submission,5639.059,318063.20000005,318057.721,318074.441,323713.5,323713.89999998,2023-05-18T08:23:57Z,323725.801,Kontrolle,kudhibiti,s,mbinguni,kufunga,utegemezi,kudhibiti,NA,NA,"c(""distractor1"", ""distractor2"", ""distractor3"")",NA,NA,NA,NA,NA,NA,NA,NA,NA,NA,NA,NA,NA,NA,NA,NA,NA,NA,NA
1d149,Save data screen,canvas.Screen,2_15_0_1,NA,NA,timeout,501.60000000003,323716.20000005,323709.081,323725.801,324210.681,324216.39999998,2023-05-18T08:23:58Z,324227.401,Kontrolle,kudhibiti,s,mbinguni,kufunga,utegemezi,NA,NA,1,"c(""distractor1"", ""distractor2"", ""distractor3"")",NA,NA,NA,NA,NA,NA,NA,NA,NA,NA,NA,NA,NA,NA,NA,NA,NA,NA,NA
1d149,shallow,flow.Sequence,2_15_0,NA,NA,completion,6136.24,318063.20000005,318057.721,318074.441,324210.681,324216.70000005,2023-05-18T08:23:58Z,324227.401,Kontrolle,kudhibiti,s,mbinguni,kufunga,utegemezi,NA,NA,NA,"c(""distractor1"", ""distractor2"", ""distractor3"")",NA,NA,NA,NA,NA,NA,NA,NA,NA,NA,NA,NA,NA,NA,NA,NA,NA,NA,NA
1d149,task,flow.Sequence,2_15,NA,NA,completion,6136.24,318063.20000005,318057.721,318074.441,324210.681,324216.89999998,2023-05-18T08:23:58Z,324227.401,Kontrolle,kudhibiti,s,mbinguni,kufunga,utegemezi,NA,NA,NA,"c(""distractor1"", ""distractor2"", ""distractor3"")",NA,NA,NA,NA,NA,NA,NA,NA,NA,NA,NA,NA,NA,NA,NA,NA,NA,NA,NA
1d149,retrieval block 2 (multiple choice),flow.Loop,2,NA,NA,completion,103618.409,220580.10000002,220575.552,220592.272,324210.681,324217.10000002,2023-05-18T08:23:58Z,324227.401,NA,NA,NA,NA,NA,NA,NA,NA,NA,"c(""distractor1"", ""distractor2"", ""distractor3"")",NA,NA,NA,NA,NA,NA,NA,NA,NA,NA,NA,NA,NA,NA,NA,NA,NA,NA,NA
1d149,End,canvas.Screen,3,NA,keypress(Space),response,3283.099,324217.20000005,324210.681,324227.401,327510.5,327513.79999995,2023-05-18T08:24:01Z,327521.85,NA,NA,NA,NA,NA,NA,NA,NA,NA,NULL,NA,NA,NA,NA,NA,NA,NA,NA,NA,NA,NA,NA,NA,NA,NA,NA,NA,NA,NA
1d149,root,flow.Sequence,NA,NA,NA,completion,326646.508,839.20000004768,696.792,863.992,327510.5,327514.20000005,2023-05-18T08:24:01Z,327521.85,NA,NA,NA,NA,NA,NA,NA,NA,NA,NULL,NA,NA,NA,NA,NA,NA,NA,NA,NA,NA,NA,NA,NA,NA,NA,NA,NA,NA,NA
