observation,sender,sender_type,sender_id,response,response_action,ended_on,duration,time_run,time_render,time_show,time_end,time_commit,timestamp,time_switch,distractors,german,swahili,enc,distractor1,distractor2,distractor3,response_2,x,correct,x_2,url_vp,url_sess,meta_labjs_version,meta_location,meta_user_agent,meta_platform,meta_language,meta_locale,meta_time_zone,meta_timezone_offset,meta_screen_width,meta_screen_height,meta_scroll_width,meta_scroll_height,meta_window_inner_width,meta_window_inner_height,meta_device_pixel_ratio,meta_labjs_build_flavor,meta_labjs_build_commit
296000000,Introduction general,canvas.Screen,0,weiter,keypress(q),response,572295.07100002,3124.900000006,2445.707,3145.129,575440.20000002,575444.90000001,2023-04-08T13:52:29Z,575442.041,NULL,NA,NA,NA,NA,NA,NA,NA,NA,NA,NA,202,3,20.2.4,https://neurocog.fernuni.ch/studies/vweber/sfink/encoding_immediate/index.html?vp=202&sess=3,"Mozilla/5.0 (Windows NT 10.0; Win64; x64) AppleWebKit/537.36 (KHTML, like Gecko) Chrome/111.0.0.0 Safari/537.36",Win32,de-CH,de,Europe/Zurich,-120,1536,864,1536,706,1536,754,1.25,production,f5b4a49f956347addd546a832a3327688c2c0fef
296000000,Introduction practice,canvas.Screen,1_0,NA,keypress(Space),response,5904.0590000239,575445.40000001,575433.268,575442.041,581346.10000002,581347.30000001,2023-04-08T13:52:35Z,581353.95,NULL,NA,NA,NA,NA,NA,NA,NA,NA,NA,NA,NA,NA,NA,NA,NA,NA,NA,NA,NA,NA,NA,NA,NA,NA,NA,NA,NA,NA,NA
296000000,deep,flow.Sequence,1_1_0_0,NA,NA,skipped,NA,581347.80000001,NA,NA,581346.10000002,581348.10000002,2023-04-08T13:52:35Z,581353.95,"c(""distractor1"", ""distractor2"", ""distractor3"")",Kritik,lawama,s,dereva,nafasi,mawazo,NA,NA,NA,NA,NA,NA,NA,NA,NA,NA,NA,NA,NA,NA,NA,NA,NA,NA,NA,NA,NA,NA,NA
296000000,Shallow Question,html.Page,1_1_0_1_0,NA,NA,form submission,22825.150000024,581348.40000001,581336.881,581353.95,604179.10000002,604179.60000002,2023-04-08T13:52:57Z,604201.803,"c(""distractor1"", ""distractor2"", ""distractor3"")",Kritik,lawama,s,dereva,nafasi,mawazo,nafasi,NA,NA,NA,NA,NA,NA,NA,NA,NA,NA,NA,NA,NA,NA,NA,NA,NA,NA,NA,NA,NA,NA
296000000,"""Richtig""-Screen",canvas.Screen,1_1_0_1_1,NA,NA,skipped,NA,604183.5,NA,NA,604179.10000002,604183.90000001,2023-04-08T13:52:57Z,604201.803,"c(""distractor1"", ""distractor2"", ""distractor3"")",Kritik,lawama,s,dereva,nafasi,mawazo,NA,NA,NA,NA,NA,NA,NA,NA,NA,NA,NA,NA,NA,NA,NA,NA,NA,NA,NA,NA,NA,NA,NA
296000000,"""Falsch""-Screen",canvas.Screen,1_1_0_1_2,NA,NA,timeout,4995.8940000001,604187.60000002,604168.716,604201.803,609181.543,609186.40000001,2023-04-08T13:53:02Z,609197.697,"c(""distractor1"", ""distractor2"", ""distractor3"")",Kritik,lawama,s,dereva,nafasi,mawazo,NA,NA,0,NA,NA,NA,NA,NA,NA,NA,NA,NA,NA,NA,NA,NA,NA,NA,NA,NA,NA,NA,NA
296000000,shallow,flow.Sequence,1_1_0_1,NA,NA,completion,27827.593,581348.40000001,581336.881,581353.95,609181.543,609186.60000002,2023-04-08T13:53:02Z,609197.697,"c(""distractor1"", ""distractor2"", ""distractor3"")",Kritik,lawama,s,dereva,nafasi,mawazo,NA,NA,NA,NA,NA,NA,NA,NA,NA,NA,NA,NA,NA,NA,NA,NA,NA,NA,NA,NA,NA,NA,NA
296000000,task,flow.Sequence,1_1_0,NA,NA,completion,27827.593,581347.70000002,581336.881,581353.95,609181.543,609186.60000002,2023-04-08T13:53:02Z,609197.697,"c(""distractor1"", ""distractor2"", ""distractor3"")",Kritik,lawama,s,dereva,nafasi,mawazo,NA,NA,NA,NA,NA,NA,NA,NA,NA,NA,NA,NA,NA,NA,NA,NA,NA,NA,NA,NA,NA,NA,NA
296000000,deep,flow.Sequence,1_1_1_0,NA,NA,skipped,NA,609186.70000002,NA,NA,609181.543,609186.70000002,2023-04-08T13:53:02Z,609197.697,"c(""distractor1"", ""distractor2"", ""distractor3"")",Gegenwart,hadhara,s,katiba,jokofu,mikopo,NA,NA,NA,NA,NA,NA,NA,NA,NA,NA,NA,NA,NA,NA,NA,NA,NA,NA,NA,NA,NA,NA,NA
296000000,Shallow Question,html.Page,1_1_1_1_0,NA,NA,form submission,5296.7030000059,609186.90000001,609181.543,609197.697,614494.40000001,614495,2023-04-08T13:53:08Z,614522.443,"c(""distractor1"", ""distractor2"", ""distractor3"")",Gegenwart,hadhara,s,katiba,jokofu,mikopo,mikopo,NA,NA,NA,NA,NA,NA,NA,NA,NA,NA,NA,NA,NA,NA,NA,NA,NA,NA,NA,NA,NA,NA
296000000,"""Richtig""-Screen",canvas.Screen,1_1_1_1_1,NA,NA,skipped,NA,614500.80000000994,NA,NA,614494.40000001,614501.20000002,2023-04-08T13:53:08Z,614522.443,"c(""distractor1"", ""distractor2"", ""distractor3"")",Gegenwart,hadhara,s,katiba,jokofu,mikopo,NA,NA,NA,NA,NA,NA,NA,NA,NA,NA,NA,NA,NA,NA,NA,NA,NA,NA,NA,NA,NA,NA,NA
296000000,"""Falsch""-Screen",canvas.Screen,1_1_1_1_2,NA,NA,timeout,5000.1090000001,614503.60000002,614476.762,614522.443,619506.486,619507.40000001,2023-04-08T13:53:13Z,619522.552,"c(""distractor1"", ""distractor2"", ""distractor3"")",Gegenwart,hadhara,s,katiba,jokofu,mikopo,NA,NA,0,NA,NA,NA,NA,NA,NA,NA,NA,NA,NA,NA,NA,NA,NA,NA,NA,NA,NA,NA,NA
296000000,shallow,flow.Sequence,1_1_1_1,NA,NA,completion,10308.789,609186.80000001,609181.543,609197.697,619506.486,619507.70000002,2023-04-08T13:53:13Z,619522.552,"c(""distractor1"", ""distractor2"", ""distractor3"")",Gegenwart,hadhara,s,katiba,jokofu,mikopo,NA,NA,NA,NA,NA,NA,NA,NA,NA,NA,NA,NA,NA,NA,NA,NA,NA,NA,NA,NA,NA,NA,NA
296000000,task,flow.Sequence,1_1_1,NA,NA,completion,10308.789,609186.60000002,609181.543,609197.697,619506.486,619508,2023-04-08T13:53:13Z,619522.552,"c(""distractor1"", ""distractor2"", ""distractor3"")",Gegenwart,hadhara,s,katiba,jokofu,mikopo,NA,NA,NA,NA,NA,NA,NA,NA,NA,NA,NA,NA,NA,NA,NA,NA,NA,NA,NA,NA,NA,NA,NA
296000000,Deep Question,html.Page,1_1_2_0_0,NA,NA,form submission,6621.448,619508.20000002,619506.486,619522.552,626144,626144.80000001,2023-04-08T13:53:19Z,626150.415,"c(""distractor1"", ""distractor2"", ""distractor3"")",Schatten,kivuli,d,NA,NA,NA,ghaloi,NA,NA,NA,NA,NA,NA,NA,NA,NA,NA,NA,NA,NA,NA,NA,NA,NA,NA,NA,NA,NA,NA
296000000,"""Richtig""-Screen",canvas.Screen,1_1_2_0_1,NA,NA,skipped,NA,626147.60000002,NA,NA,626144,626147.70000002,2023-04-08T13:53:19Z,626150.415,"c(""distractor1"", ""distractor2"", ""distractor3"")",Schatten,kivuli,d,NA,NA,NA,NA,NA,NA,NA,NA,NA,NA,NA,NA,NA,NA,NA,NA,NA,NA,NA,NA,NA,NA,NA,NA,NA,NA
296000000,"""Falsch""-Screen",canvas.Screen,1_1_2_0_2,NA,NA,timeout,4996.519,626148.40000001,626134.377,626150.415,631130.278,631131.20000002,2023-04-08T13:53:24Z,631146.934,"c(""distractor1"", ""distractor2"", ""distractor3"")",Schatten,kivuli,d,NA,NA,NA,NA,NA,0,NA,NA,NA,NA,NA,NA,NA,NA,NA,NA,NA,NA,NA,NA,NA,NA,NA,NA,NA,NA
296000000,deep,flow.Sequence,1_1_2_0,NA,NA,completion,11607.726,619508.20000002,619506.486,619522.552,631130.278,631131.60000002,2023-04-08T13:53:24Z,631146.934,"c(""distractor1"", ""distractor2"", ""distractor3"")",Schatten,kivuli,d,NA,NA,NA,NA,NA,NA,NA,NA,NA,NA,NA,NA,NA,NA,NA,NA,NA,NA,NA,NA,NA,NA,NA,NA,NA,NA
296000000,shallow,flow.Sequence,1_1_2_1,NA,NA,skipped,NA,631131.80000001,NA,NA,631130.278,631132,2023-04-08T13:53:24Z,631146.934,"c(""distractor1"", ""distractor2"", ""distractor3"")",Schatten,kivuli,d,NA,NA,NA,NA,NA,NA,NA,NA,NA,NA,NA,NA,NA,NA,NA,NA,NA,NA,NA,NA,NA,NA,NA,NA,NA,NA
296000000,task,flow.Sequence,1_1_2,NA,NA,completion,11607.726,619508.10000002,619506.486,619522.552,631130.278,631132.20000002,2023-04-08T13:53:24Z,631146.934,"c(""distractor1"", ""distractor2"", ""distractor3"")",Schatten,kivuli,d,NA,NA,NA,NA,NA,NA,NA,NA,NA,NA,NA,NA,NA,NA,NA,NA,NA,NA,NA,NA,NA,NA,NA,NA,NA,NA
296000000,Deep Question,html.Page,1_1_3_0_0,NA,NA,form submission,5790.1660000238,631132.5,631130.278,631146.934,636937.10000002,636937.60000002,2023-04-08T13:53:30Z,636941.56,"c(""distractor1"", ""distractor2"", ""distractor3"")",Gesundheit,salama,d,NA,NA,NA,nabako,NA,NA,NA,NA,NA,NA,NA,NA,NA,NA,NA,NA,NA,NA,NA,NA,NA,NA,NA,NA,NA,NA
296000000,"""Richtig""-Screen",canvas.Screen,1_1_3_0_1,NA,NA,skipped,NA,636940.80000001,NA,NA,636937.10000002,636940.80000001,2023-04-08T13:53:30Z,636941.56,"c(""distractor1"", ""distractor2"", ""distractor3"")",Gesundheit,salama,d,NA,NA,NA,NA,NA,NA,NA,NA,NA,NA,NA,NA,NA,NA,NA,NA,NA,NA,NA,NA,NA,NA,NA,NA,NA,NA
296000000,"""Falsch""-Screen",canvas.Screen,1_1_3_0_2,NA,NA,timeout,4996.5819999999,636941.5,636925.56,636941.56,641921.602,641922.10000002,2023-04-08T13:53:35Z,641938.142,"c(""distractor1"", ""distractor2"", ""distractor3"")",Gesundheit,salama,d,NA,NA,NA,NA,NA,0,NA,NA,NA,NA,NA,NA,NA,NA,NA,NA,NA,NA,NA,NA,NA,NA,NA,NA,NA,NA
296000000,deep,flow.Sequence,1_1_3_0,NA,NA,completion,10774.668,631132.5,631130.278,631146.934,641921.602,641922.20000002,2023-04-08T13:53:35Z,641938.142,"c(""distractor1"", ""distractor2"", ""distractor3"")",Gesundheit,salama,d,NA,NA,NA,NA,NA,NA,NA,NA,NA,NA,NA,NA,NA,NA,NA,NA,NA,NA,NA,NA,NA,NA,NA,NA,NA,NA
296000000,shallow,flow.Sequence,1_1_3_1,NA,NA,skipped,NA,641922.30000001,NA,NA,641921.602,641922.30000001,2023-04-08T13:53:35Z,641938.142,"c(""distractor1"", ""distractor2"", ""distractor3"")",Gesundheit,salama,d,NA,NA,NA,NA,NA,NA,NA,NA,NA,NA,NA,NA,NA,NA,NA,NA,NA,NA,NA,NA,NA,NA,NA,NA,NA,NA
296000000,task,flow.Sequence,1_1_3,NA,NA,completion,10774.668,631132.5,631130.278,631146.934,641921.602,641922.40000001,2023-04-08T13:53:35Z,641938.142,"c(""distractor1"", ""distractor2"", ""distractor3"")",Gesundheit,salama,d,NA,NA,NA,NA,NA,NA,NA,NA,NA,NA,NA,NA,NA,NA,NA,NA,NA,NA,NA,NA,NA,NA,NA,NA,NA,NA
296000000,Deep Question,html.Page,1_1_4_0_0,NA,NA,form submission,21167.858,641922.5,641921.602,641938.142,663106,663106.5,2023-04-08T13:53:56Z,663120.147,"c(""distractor1"", ""distractor2"", ""distractor3"")",Qualität,mtindo,d,NA,NA,NA,aharoti,NA,NA,NA,NA,NA,NA,NA,NA,NA,NA,NA,NA,NA,NA,NA,NA,NA,NA,NA,NA,NA,NA
296000000,"""Richtig""-Screen",canvas.Screen,1_1_4_0_1,NA,NA,skipped,NA,663114.30000001,NA,NA,663106,663114.70000002,2023-04-08T13:53:56Z,663120.147,"c(""distractor1"", ""distractor2"", ""distractor3"")",Qualität,mtindo,d,NA,NA,NA,NA,NA,NA,NA,NA,NA,NA,NA,NA,NA,NA,NA,NA,NA,NA,NA,NA,NA,NA,NA,NA,NA,NA
296000000,"""Falsch""-Screen",canvas.Screen,1_1_4_0_2,NA,NA,timeout,4996.6,663117.40000001,663104.156,663120.147,668099.9,668101,2023-04-08T13:54:01Z,668116.747,"c(""distractor1"", ""distractor2"", ""distractor3"")",Qualität,mtindo,d,NA,NA,NA,NA,NA,0,NA,NA,NA,NA,NA,NA,NA,NA,NA,NA,NA,NA,NA,NA,NA,NA,NA,NA,NA,NA
296000000,deep,flow.Sequence,1_1_4_0,NA,NA,completion,26161.758,641922.40000001,641921.602,641938.142,668099.9,668101.40000001,2023-04-08T13:54:01Z,668116.747,"c(""distractor1"", ""distractor2"", ""distractor3"")",Qualität,mtindo,d,NA,NA,NA,NA,NA,NA,NA,NA,NA,NA,NA,NA,NA,NA,NA,NA,NA,NA,NA,NA,NA,NA,NA,NA,NA,NA
296000000,shallow,flow.Sequence,1_1_4_1,NA,NA,skipped,NA,668101.60000002,NA,NA,668099.9,668101.70000002,2023-04-08T13:54:01Z,668116.747,"c(""distractor1"", ""distractor2"", ""distractor3"")",Qualität,mtindo,d,NA,NA,NA,NA,NA,NA,NA,NA,NA,NA,NA,NA,NA,NA,NA,NA,NA,NA,NA,NA,NA,NA,NA,NA,NA,NA
296000000,task,flow.Sequence,1_1_4,NA,NA,completion,26161.758,641922.40000001,641921.602,641938.142,668099.9,668101.90000001,2023-04-08T13:54:01Z,668116.747,"c(""distractor1"", ""distractor2"", ""distractor3"")",Qualität,mtindo,d,NA,NA,NA,NA,NA,NA,NA,NA,NA,NA,NA,NA,NA,NA,NA,NA,NA,NA,NA,NA,NA,NA,NA,NA,NA,NA
296000000,deep,flow.Sequence,1_1_5_0,NA,NA,skipped,NA,668102.20000002,NA,NA,668099.9,668102.40000001,2023-04-08T13:54:01Z,668116.747,"c(""distractor1"", ""distractor2"", ""distractor3"")",Rückhalt,msaada,s,muhula,auwali,kiwimbe,NA,NA,NA,NA,NA,NA,NA,NA,NA,NA,NA,NA,NA,NA,NA,NA,NA,NA,NA,NA,NA,NA,NA
296000000,Shallow Question,html.Page,1_1_5_1_0,NA,NA,form submission,8241.753,668102.60000002,668099.9,668116.747,676358.5,676358.70000002,2023-04-08T13:54:10Z,676359.2,"c(""distractor1"", ""distractor2"", ""distractor3"")",Rückhalt,msaada,s,muhula,auwali,kiwimbe,kiwimbe,NA,NA,NA,NA,NA,NA,NA,NA,NA,NA,NA,NA,NA,NA,NA,NA,NA,NA,NA,NA,NA,NA
296000000,"""Richtig""-Screen",canvas.Screen,1_1_5_1_1,NA,NA,skipped,NA,676361.10000002,NA,NA,676358.5,676361.20000002,2023-04-08T13:54:10Z,676359.2,"c(""distractor1"", ""distractor2"", ""distractor3"")",Rückhalt,msaada,s,muhula,auwali,kiwimbe,NA,NA,NA,NA,NA,NA,NA,NA,NA,NA,NA,NA,NA,NA,NA,NA,NA,NA,NA,NA,NA,NA,NA
296000000,"""Falsch""-Screen",canvas.Screen,1_1_5_1_2,NA,NA,timeout,4995.9790000001,676361.90000001,676342.885,676359.2,681339.056,681340,2023-04-08T13:54:15Z,681355.179,"c(""distractor1"", ""distractor2"", ""distractor3"")",Rückhalt,msaada,s,muhula,auwali,kiwimbe,NA,NA,0,NA,NA,NA,NA,NA,NA,NA,NA,NA,NA,NA,NA,NA,NA,NA,NA,NA,NA,NA,NA
296000000,shallow,flow.Sequence,1_1_5_1,NA,NA,completion,13222.309,668102.60000002,668099.9,668116.747,681339.056,681340.5,2023-04-08T13:54:15Z,681355.179,"c(""distractor1"", ""distractor2"", ""distractor3"")",Rückhalt,msaada,s,muhula,auwali,kiwimbe,NA,NA,NA,NA,NA,NA,NA,NA,NA,NA,NA,NA,NA,NA,NA,NA,NA,NA,NA,NA,NA,NA,NA
296000000,task,flow.Sequence,1_1_5,NA,NA,completion,13222.309,668102.10000002,668099.9,668116.747,681339.056,681341,2023-04-08T13:54:15Z,681355.179,"c(""distractor1"", ""distractor2"", ""distractor3"")",Rückhalt,msaada,s,muhula,auwali,kiwimbe,NA,NA,NA,NA,NA,NA,NA,NA,NA,NA,NA,NA,NA,NA,NA,NA,NA,NA,NA,NA,NA,NA,NA
296000000,block,flow.Loop,1_1,NA,NA,completion,99985.106,581347.60000002,581336.881,581353.95,681339.056,681341.30000001,2023-04-08T13:54:15Z,681355.179,"c(""distractor1"", ""distractor2"", ""distractor3"")",NA,NA,NA,NA,NA,NA,NA,NA,NA,NA,NA,NA,NA,NA,NA,NA,NA,NA,NA,NA,NA,NA,NA,NA,NA,NA,NA,NA,NA
296000000,Practice,flow.Sequence,1,NA,NA,completion,105897.015,575445.30000000994,575433.268,575442.041,681339.056,681341.60000002,2023-04-08T13:54:15Z,681355.179,NULL,NA,NA,NA,NA,NA,NA,NA,NA,NA,NA,NA,NA,NA,NA,NA,NA,NA,NA,NA,NA,NA,NA,NA,NA,NA,NA,NA,NA,NA
296000000,Experiment start,canvas.Screen,2,weiter,keypress(q),response,4885.821,681341.80000000994,681339.056,681355.179,686241,686242.40000001,2023-04-08T13:54:19Z,686317.693,NULL,NA,NA,NA,NA,NA,NA,NA,NA,NA,NA,NA,NA,NA,NA,NA,NA,NA,NA,NA,NA,NA,NA,NA,NA,NA,NA,NA,NA,NA
296000000,Deep Question,html.Page,3_0_0_0_0_0_0,NA,NA,form submission,13393.007000018,686319.80000000994,686234.727,686317.693,699710.70000002,699710.90000001,2023-04-08T13:54:33Z,699723.442,NULL,Respekt,heshima,d,NA,NA,NA,mahela,NA,NA,0,NA,NA,NA,NA,NA,NA,NA,NA,NA,NA,NA,NA,NA,NA,NA,NA,NA,NA,NA
296000000,"""Richtig""-Screen",canvas.Screen,3_0_0_0_0_0_1,NA,NA,skipped,NA,699712.70000002,NA,NA,699710.70000002,699712.90000001,2023-04-08T13:54:33Z,699723.442,NULL,Respekt,heshima,d,NA,NA,NA,NA,sdf,NA,0,NA,NA,NA,NA,NA,NA,NA,NA,NA,NA,NA,NA,NA,NA,NA,NA,NA,NA,NA
296000000,"""Falsch""-Screen",canvas.Screen,3_0_0_0_0_0_2,NA,NA,timeout,4996.3369999999,699713.40000001,699707.325,699723.442,704702.977,704703.90000001,2023-04-08T13:54:38Z,704719.779,NULL,Respekt,heshima,d,NA,NA,NA,NA,sdf,0,0,NA,NA,NA,NA,NA,NA,NA,NA,NA,NA,NA,NA,NA,NA,NA,NA,NA,NA,NA
296000000,deep,flow.Sequence,3_0_0_0_0_0,NA,NA,completion,18385.284,686319.80000000994,686234.727,686317.693,704702.977,704704.30000000994,2023-04-08T13:54:38Z,704719.779,NULL,Respekt,heshima,d,NA,NA,NA,NA,sdf,NA,0,NA,NA,NA,NA,NA,NA,NA,NA,NA,NA,NA,NA,NA,NA,NA,NA,NA,NA,NA
296000000,shallow,flow.Sequence,3_0_0_0_0_1,NA,NA,skipped,NA,704704.5,NA,NA,704702.977,704704.70000002,2023-04-08T13:54:38Z,704719.779,NULL,Respekt,heshima,d,NA,NA,NA,NA,sdf,NA,0,NA,NA,NA,NA,NA,NA,NA,NA,NA,NA,NA,NA,NA,NA,NA,NA,NA,NA,NA
296000000,task,flow.Sequence,3_0_0_0_0,NA,NA,completion,18385.284,686319.80000000994,686234.727,686317.693,704702.977,704704.90000001,2023-04-08T13:54:38Z,704719.779,NULL,Respekt,heshima,d,NA,NA,NA,NA,sdf,NA,0,NA,NA,NA,NA,NA,NA,NA,NA,NA,NA,NA,NA,NA,NA,NA,NA,NA,NA,NA
296000000,Deep Question,html.Page,3_0_0_0_1_0_0,NA,NA,form submission,10405.821000024,704705.10000002,704702.977,704719.779,715125.60000002,715126.30000001,2023-04-08T13:54:48Z,715127.446,NULL,Können,unaweza,d,NA,NA,NA,gahla,NA,NA,0,NA,NA,NA,NA,NA,NA,NA,NA,NA,NA,NA,NA,NA,NA,NA,NA,NA,NA,NA
296000000,"""Richtig""-Screen",canvas.Screen,3_0_0_0_1_0_1,NA,NA,skipped,NA,715133.60000002,NA,NA,715125.60000002,715134.10000002,2023-04-08T13:54:48Z,715127.446,NULL,Können,unaweza,d,NA,NA,NA,NA,sdf,NA,0,NA,NA,NA,NA,NA,NA,NA,NA,NA,NA,NA,NA,NA,NA,NA,NA,NA,NA,NA
296000000,"""Falsch""-Screen",canvas.Screen,3_0_0_0_1_0_2,NA,NA,timeout,4995.98,715135.80000001,715111.448,715127.446,720106.845,720109.30000001,2023-04-08T13:54:53Z,720123.426,NULL,Können,unaweza,d,NA,NA,NA,NA,sdf,0,0,NA,NA,NA,NA,NA,NA,NA,NA,NA,NA,NA,NA,NA,NA,NA,NA,NA,NA,NA
296000000,deep,flow.Sequence,3_0_0_0_1_0,NA,NA,completion,15387.066,704705.10000002,704702.977,704719.779,720106.845,720109.80000001,2023-04-08T13:54:53Z,720123.426,NULL,Können,unaweza,d,NA,NA,NA,NA,sdf,NA,0,NA,NA,NA,NA,NA,NA,NA,NA,NA,NA,NA,NA,NA,NA,NA,NA,NA,NA,NA
296000000,shallow,flow.Sequence,3_0_0_0_1_1,NA,NA,skipped,NA,720109.90000001,NA,NA,720106.845,720110.10000002,2023-04-08T13:54:53Z,720123.426,NULL,Können,unaweza,d,NA,NA,NA,NA,sdf,NA,0,NA,NA,NA,NA,NA,NA,NA,NA,NA,NA,NA,NA,NA,NA,NA,NA,NA,NA,NA
296000000,task,flow.Sequence,3_0_0_0_1,NA,NA,completion,15387.066,704705,704702.977,704719.779,720106.845,720110.30000001,2023-04-08T13:54:53Z,720123.426,NULL,Können,unaweza,d,NA,NA,NA,NA,sdf,NA,0,NA,NA,NA,NA,NA,NA,NA,NA,NA,NA,NA,NA,NA,NA,NA,NA,NA,NA,NA
296000000,deep,flow.Sequence,3_0_0_0_2_0,NA,NA,skipped,NA,720110.5,NA,NA,720106.845,720110.60000002,2023-04-08T13:54:53Z,720123.426,NULL,Stimmung,kinyongo,s,kilekile,kisambo,madhehebu,NA,sdf,NA,0,NA,NA,NA,NA,NA,NA,NA,NA,NA,NA,NA,NA,NA,NA,NA,NA,NA,NA,NA
296000000,Shallow Question,html.Page,3_0_0_0_2_1_0,NA,NA,form submission,11913.974000006,720110.80000000994,720106.845,720123.426,732037.40000001,732037.70000002,2023-04-08T13:55:05Z,732046.842,NULL,Stimmung,kinyongo,s,kilekile,kisambo,madhehebu,kinyongo,NA,NA,0,NA,NA,NA,NA,NA,NA,NA,NA,NA,NA,NA,NA,NA,NA,NA,NA,NA,NA,NA
296000000,"""Richtig""-Screen",canvas.Screen,3_0_0_0_2_1_1,NA,NA,timeout,4996.028,732040.70000002,732030.775,732046.842,737026.671,737027.70000002,2023-04-08T13:55:10Z,737042.87,NULL,Stimmung,kinyongo,s,kilekile,kisambo,madhehebu,NA,sdf,1,0,NA,NA,NA,NA,NA,NA,NA,NA,NA,NA,NA,NA,NA,NA,NA,NA,NA,NA,NA
296000000,"""Falsch""-Screen",canvas.Screen,3_0_0_0_2_1_2,NA,NA,skipped,NA,737032.30000000994,NA,NA,737026.671,737032.40000001,2023-04-08T13:55:10Z,737042.87,NULL,Stimmung,kinyongo,s,kilekile,kisambo,madhehebu,NA,sdf,NA,0,NA,NA,NA,NA,NA,NA,NA,NA,NA,NA,NA,NA,NA,NA,NA,NA,NA,NA,NA
296000000,shallow,flow.Sequence,3_0_0_0_2_1,NA,NA,completion,16903.245,720110.70000002,720106.845,720123.426,737026.671,737032.5,2023-04-08T13:55:10Z,737042.87,NULL,Stimmung,kinyongo,s,kilekile,kisambo,madhehebu,NA,sdf,NA,0,NA,NA,NA,NA,NA,NA,NA,NA,NA,NA,NA,NA,NA,NA,NA,NA,NA,NA,NA
296000000,task,flow.Sequence,3_0_0_0_2,NA,NA,completion,16903.245,720110.40000001,720106.845,720123.426,737026.671,737032.60000002,2023-04-08T13:55:10Z,737042.87,NULL,Stimmung,kinyongo,s,kilekile,kisambo,madhehebu,NA,sdf,NA,0,NA,NA,NA,NA,NA,NA,NA,NA,NA,NA,NA,NA,NA,NA,NA,NA,NA,NA,NA
296000000,deep,flow.Sequence,3_0_0_0_3_0,NA,NA,skipped,NA,737032.60000002,NA,NA,737026.671,737032.70000002,2023-04-08T13:55:10Z,737042.87,NULL,Kontrolle,kudhibiti,s,mbinguni,kufunga,utegemezi,NA,sdf,NA,0,NA,NA,NA,NA,NA,NA,NA,NA,NA,NA,NA,NA,NA,NA,NA,NA,NA,NA,NA
296000000,Shallow Question,html.Page,3_0_0_0_3_1_0,NA,NA,form submission,9096.13,737032.80000001,737026.671,737042.87,746139,746139.20000002,2023-04-08T13:55:19Z,746152.493,NULL,Kontrolle,kudhibiti,s,mbinguni,kufunga,utegemezi,kufunga,NA,NA,0,NA,NA,NA,NA,NA,NA,NA,NA,NA,NA,NA,NA,NA,NA,NA,NA,NA,NA,NA
296000000,"""Richtig""-Screen",canvas.Screen,3_0_0_0_3_1_1,NA,NA,skipped,NA,746140.70000002,NA,NA,746139,746140.80000000994,2023-04-08T13:55:19Z,746152.493,NULL,Kontrolle,kudhibiti,s,mbinguni,kufunga,utegemezi,NA,sdf,NA,0,NA,NA,NA,NA,NA,NA,NA,NA,NA,NA,NA,NA,NA,NA,NA,NA,NA,NA,NA
296000000,"""Falsch""-Screen",canvas.Screen,3_0_0_0_3_1_2,NA,NA,timeout,4995.814,746141.30000001,746136.013,746152.493,751131.281,751132.30000001,2023-04-08T13:55:24Z,751148.307,NULL,Kontrolle,kudhibiti,s,mbinguni,kufunga,utegemezi,NA,sdf,0,0,NA,NA,NA,NA,NA,NA,NA,NA,NA,NA,NA,NA,NA,NA,NA,NA,NA,NA,NA
296000000,shallow,flow.Sequence,3_0_0_0_3_1,NA,NA,completion,14088.411,737032.70000002,737026.671,737042.87,751131.281,751132.80000001,2023-04-08T13:55:24Z,751148.307,NULL,Kontrolle,kudhibiti,s,mbinguni,kufunga,utegemezi,NA,sdf,NA,0,NA,NA,NA,NA,NA,NA,NA,NA,NA,NA,NA,NA,NA,NA,NA,NA,NA,NA,NA
296000000,task,flow.Sequence,3_0_0_0_3,NA,NA,completion,14088.411,737032.60000002,737026.671,737042.87,751131.281,751133,2023-04-08T13:55:24Z,751148.307,NULL,Kontrolle,kudhibiti,s,mbinguni,kufunga,utegemezi,NA,sdf,NA,0,NA,NA,NA,NA,NA,NA,NA,NA,NA,NA,NA,NA,NA,NA,NA,NA,NA,NA,NA
296000000,Deep Question,html.Page,3_0_0_0_4_0_0,NA,NA,form submission,12034.293000024,751133.30000000994,751131.281,751148.307,763182.60000002,763183.30000001,2023-04-08T13:55:36Z,763188.002,NULL,Orientierung,urekebisho,d,NA,NA,NA,kahsheni,NA,NA,0,NA,NA,NA,NA,NA,NA,NA,NA,NA,NA,NA,NA,NA,NA,NA,NA,NA,NA,NA
296000000,"""Richtig""-Screen",canvas.Screen,3_0_0_0_4_0_1,NA,NA,skipped,NA,763190.20000002,NA,NA,763182.60000002,763190.70000002,2023-04-08T13:55:36Z,763188.002,NULL,Orientierung,urekebisho,d,NA,NA,NA,NA,sdf,NA,0,NA,NA,NA,NA,NA,NA,NA,NA,NA,NA,NA,NA,NA,NA,NA,NA,NA,NA,NA
296000000,"""Falsch""-Screen",canvas.Screen,3_0_0_0_4_0_2,NA,NA,timeout,4996.37,763193.5,763172.004,763188.002,768167.307,768168.20000002,2023-04-08T13:55:41Z,768184.372,NULL,Orientierung,urekebisho,d,NA,NA,NA,NA,sdf,0,0,NA,NA,NA,NA,NA,NA,NA,NA,NA,NA,NA,NA,NA,NA,NA,NA,NA,NA,NA
296000000,deep,flow.Sequence,3_0_0_0_4_0,NA,NA,completion,17019,751133.20000002,751131.281,751148.307,768167.307,768168.60000002,2023-04-08T13:55:41Z,768184.372,NULL,Orientierung,urekebisho,d,NA,NA,NA,NA,sdf,NA,0,NA,NA,NA,NA,NA,NA,NA,NA,NA,NA,NA,NA,NA,NA,NA,NA,NA,NA,NA
296000000,shallow,flow.Sequence,3_0_0_0_4_1,NA,NA,skipped,NA,768168.70000002,NA,NA,768167.307,768168.70000002,2023-04-08T13:55:41Z,768184.372,NULL,Orientierung,urekebisho,d,NA,NA,NA,NA,sdf,NA,0,NA,NA,NA,NA,NA,NA,NA,NA,NA,NA,NA,NA,NA,NA,NA,NA,NA,NA,NA
296000000,task,flow.Sequence,3_0_0_0_4,NA,NA,completion,17019,751133.10000002,751131.281,751148.307,768167.307,768168.80000001,2023-04-08T13:55:41Z,768184.372,NULL,Orientierung,urekebisho,d,NA,NA,NA,NA,sdf,NA,0,NA,NA,NA,NA,NA,NA,NA,NA,NA,NA,NA,NA,NA,NA,NA,NA,NA,NA,NA
296000000,Deep Question,html.Page,3_0_0_0_5_0_0,NA,NA,form submission,14306.928000012,768168.90000001,768167.307,768184.372,782491.30000001,782491.90000001,2023-04-08T13:55:56Z,782505.449,NULL,Kreativität,ubunifu,d,NA,NA,NA,ahlake,NA,NA,0,NA,NA,NA,NA,NA,NA,NA,NA,NA,NA,NA,NA,NA,NA,NA,NA,NA,NA,NA
296000000,"""Richtig""-Screen",canvas.Screen,3_0_0_0_5_0_1,NA,NA,skipped,NA,782494.90000001,NA,NA,782491.30000001,782494.90000001,2023-04-08T13:55:56Z,782505.449,NULL,Kreativität,ubunifu,d,NA,NA,NA,NA,sdf,NA,0,NA,NA,NA,NA,NA,NA,NA,NA,NA,NA,NA,NA,NA,NA,NA,NA,NA,NA,NA
296000000,"""Falsch""-Screen",canvas.Screen,3_0_0_0_5_0_2,NA,NA,timeout,4996.6359999999,782495.5,782489.47,782505.449,787484.896,787485.90000001,2023-04-08T13:56:01Z,787502.085,NULL,Kreativität,ubunifu,d,NA,NA,NA,NA,sdf,0,0,NA,NA,NA,NA,NA,NA,NA,NA,NA,NA,NA,NA,NA,NA,NA,NA,NA,NA,NA
296000000,deep,flow.Sequence,3_0_0_0_5_0,NA,NA,completion,19300.524,768168.90000001,768167.307,768184.372,787484.896,787486.20000002,2023-04-08T13:56:01Z,787502.085,NULL,Kreativität,ubunifu,d,NA,NA,NA,NA,sdf,NA,0,NA,NA,NA,NA,NA,NA,NA,NA,NA,NA,NA,NA,NA,NA,NA,NA,NA,NA,NA
296000000,shallow,flow.Sequence,3_0_0_0_5_1,NA,NA,skipped,NA,787486.40000001,NA,NA,787484.896,787486.60000002,2023-04-08T13:56:01Z,787502.085,NULL,Kreativität,ubunifu,d,NA,NA,NA,NA,sdf,NA,0,NA,NA,NA,NA,NA,NA,NA,NA,NA,NA,NA,NA,NA,NA,NA,NA,NA,NA,NA
296000000,task,flow.Sequence,3_0_0_0_5,NA,NA,completion,19300.524,768168.80000001,768167.307,768184.372,787484.896,787486.80000001,2023-04-08T13:56:01Z,787502.085,NULL,Kreativität,ubunifu,d,NA,NA,NA,NA,sdf,NA,0,NA,NA,NA,NA,NA,NA,NA,NA,NA,NA,NA,NA,NA,NA,NA,NA,NA,NA,NA
296000000,deep,flow.Sequence,3_0_0_0_6_0,NA,NA,skipped,NA,787487,NA,NA,787484.896,787487.20000002,2023-04-08T13:56:01Z,787502.085,NULL,Betrüger,mdanganyifu,s,mwanamuziki,wastani,mahakama,NA,sdf,NA,0,NA,NA,NA,NA,NA,NA,NA,NA,NA,NA,NA,NA,NA,NA,NA,NA,NA,NA,NA
296000000,Shallow Question,html.Page,3_0_0_0_6_1_0,NA,NA,form submission,6180.0150000239,787487.30000000994,787484.896,787502.085,793682.10000002,793682.80000001,2023-04-08T13:56:07Z,793696.221,NULL,Betrüger,mdanganyifu,s,mwanamuziki,wastani,mahakama,wastani,NA,NA,0,NA,NA,NA,NA,NA,NA,NA,NA,NA,NA,NA,NA,NA,NA,NA,NA,NA,NA,NA
296000000,"""Richtig""-Screen",canvas.Screen,3_0_0_0_6_1_1,NA,NA,skipped,NA,793684.90000001,NA,NA,793682.10000002,793685,2023-04-08T13:56:07Z,793696.221,NULL,Betrüger,mdanganyifu,s,mwanamuziki,wastani,mahakama,NA,sdf,NA,0,NA,NA,NA,NA,NA,NA,NA,NA,NA,NA,NA,NA,NA,NA,NA,NA,NA,NA,NA
296000000,"""Falsch""-Screen",canvas.Screen,3_0_0_0_6_1_2,NA,NA,timeout,4996.267,793685.5,793680.188,793696.221,798675.697,798676.80000000994,2023-04-08T13:56:12Z,798692.488,NULL,Betrüger,mdanganyifu,s,mwanamuziki,wastani,mahakama,NA,sdf,0,0,NA,NA,NA,NA,NA,NA,NA,NA,NA,NA,NA,NA,NA,NA,NA,NA,NA,NA,NA
296000000,shallow,flow.Sequence,3_0_0_0_6_1,NA,NA,completion,11173.612,787487.30000000994,787484.896,787502.085,798675.697,798677.20000002,2023-04-08T13:56:12Z,798692.488,NULL,Betrüger,mdanganyifu,s,mwanamuziki,wastani,mahakama,NA,sdf,NA,0,NA,NA,NA,NA,NA,NA,NA,NA,NA,NA,NA,NA,NA,NA,NA,NA,NA,NA,NA
296000000,task,flow.Sequence,3_0_0_0_6,NA,NA,completion,11173.612,787486.90000001,787484.896,787502.085,798675.697,798677.5,2023-04-08T13:56:12Z,798692.488,NULL,Betrüger,mdanganyifu,s,mwanamuziki,wastani,mahakama,NA,sdf,NA,0,NA,NA,NA,NA,NA,NA,NA,NA,NA,NA,NA,NA,NA,NA,NA,NA,NA,NA,NA
296000000,deep,flow.Sequence,3_0_0_0_7_0,NA,NA,skipped,NA,798677.70000002,NA,NA,798675.697,798677.80000001,2023-04-08T13:56:12Z,798692.488,NULL,Gefährdung,kuhatarisha,s,uchokozi,udhaifu,makorowezo,NA,sdf,NA,0,NA,NA,NA,NA,NA,NA,NA,NA,NA,NA,NA,NA,NA,NA,NA,NA,NA,NA,NA
296000000,Shallow Question,html.Page,3_0_0_0_7_1_0,NA,NA,form submission,5475.1120000238,798678,798675.697,798692.488,804167.60000002,804168.10000002,2023-04-08T13:56:17Z,804170.99,NULL,Gefährdung,kuhatarisha,s,uchokozi,udhaifu,makorowezo,uchokozi,NA,NA,0,NA,NA,NA,NA,NA,NA,NA,NA,NA,NA,NA,NA,NA,NA,NA,NA,NA,NA,NA
296000000,"""Richtig""-Screen",canvas.Screen,3_0_0_0_7_1_1,NA,NA,skipped,NA,804170.5,NA,NA,804167.60000002,804170.60000002,2023-04-08T13:56:17Z,804170.99,NULL,Gefährdung,kuhatarisha,s,uchokozi,udhaifu,makorowezo,NA,sdf,NA,0,NA,NA,NA,NA,NA,NA,NA,NA,NA,NA,NA,NA,NA,NA,NA,NA,NA,NA,NA
296000000,"""Falsch""-Screen",canvas.Screen,3_0_0_0_7_1_2,NA,NA,timeout,4996.509,804171.20000002,804154.722,804170.99,809150.884,809151.30000001,2023-04-08T13:56:22Z,809167.499,NULL,Gefährdung,kuhatarisha,s,uchokozi,udhaifu,makorowezo,NA,sdf,0,0,NA,NA,NA,NA,NA,NA,NA,NA,NA,NA,NA,NA,NA,NA,NA,NA,NA,NA,NA
296000000,shallow,flow.Sequence,3_0_0_0_7_1,NA,NA,completion,10458.396,798678,798675.697,798692.488,809150.884,809151.5,2023-04-08T13:56:22Z,809167.499,NULL,Gefährdung,kuhatarisha,s,uchokozi,udhaifu,makorowezo,NA,sdf,NA,0,NA,NA,NA,NA,NA,NA,NA,NA,NA,NA,NA,NA,NA,NA,NA,NA,NA,NA,NA
296000000,task,flow.Sequence,3_0_0_0_7,NA,NA,completion,10458.396,798677.60000002,798675.697,798692.488,809150.884,809151.60000002,2023-04-08T13:56:22Z,809167.499,NULL,Gefährdung,kuhatarisha,s,uchokozi,udhaifu,makorowezo,NA,sdf,NA,0,NA,NA,NA,NA,NA,NA,NA,NA,NA,NA,NA,NA,NA,NA,NA,NA,NA,NA,NA
296000000,block,flow.Loop,3_0_0_0,NA,NA,completion,122833.191,686319.70000002,686234.727,686317.693,809150.884,809151.70000002,2023-04-08T13:56:22Z,809167.499,NULL,NA,NA,NA,NA,NA,NA,NA,sdf,NA,0,NA,NA,NA,NA,NA,NA,NA,NA,NA,NA,NA,NA,NA,NA,NA,NA,NA,NA,NA
296000000,weiter,canvas.Screen,3_0_0_1,sdf,keypress(Space),response,1183.2010000179,809151.80000000994,809150.884,809167.499,810350.70000002,810351.40000001,2023-04-08T13:56:24Z,810382.562,NULL,NA,NA,NA,NA,NA,NA,NA,sdf,NA,0,NA,NA,NA,NA,NA,NA,NA,NA,NA,NA,NA,NA,NA,NA,NA,NA,NA,NA,NA
296000000,check continue,flow.Sequence,3_0_0,NA,NA,completion,124033.00700002,686319.70000002,686234.727,686317.693,810350.70000002,810351.60000002,2023-04-08T13:56:24Z,810382.562,NULL,NA,NA,NA,NA,NA,NA,NA,sdf,NA,0,NA,NA,NA,NA,NA,NA,NA,NA,NA,NA,NA,NA,NA,NA,NA,NA,NA,NA,NA
296000000,deep,flow.Sequence,3_0_1_0_0_0,NA,NA,skipped,NA,810389.70000002,NA,NA,810350.70000002,810389.90000001,2023-04-08T13:56:24Z,810382.562,NULL,Betrüger,mdanganyifu,s,mwanamuziki,wastani,mahakama,NA,sdfdsf,NA,1,NA,NA,NA,NA,NA,NA,NA,NA,NA,NA,NA,NA,NA,NA,NA,NA,NA,NA,NA
296000000,Shallow Question,html.Page,3_0_1_0_0_1_0,NA,NA,form submission,7474.438,810389.90000001,810349.729,810382.562,817857,817857.5,2023-04-08T13:56:31Z,817859.817,NULL,Betrüger,mdanganyifu,s,mwanamuziki,wastani,mahakama,mwanamuziki,NA,NA,1,NA,NA,NA,NA,NA,NA,NA,NA,NA,NA,NA,NA,NA,NA,NA,NA,NA,NA,NA
296000000,"""Richtig""-Screen",canvas.Screen,3_0_1_0_0_1_1,NA,NA,skipped,NA,817863.30000000994,NA,NA,817857,817863.70000002,2023-04-08T13:56:31Z,817859.817,NULL,Betrüger,mdanganyifu,s,mwanamuziki,wastani,mahakama,NA,sdfdsf,NA,1,NA,NA,NA,NA,NA,NA,NA,NA,NA,NA,NA,NA,NA,NA,NA,NA,NA,NA,NA
296000000,"""Falsch""-Screen",canvas.Screen,3_0_1_0_0_1_2,NA,NA,timeout,4996.3979999999,817865.5,817843.694,817859.817,822839.581,822840.5,2023-04-08T13:56:36Z,822856.215,NULL,Betrüger,mdanganyifu,s,mwanamuziki,wastani,mahakama,NA,sdfdsf,0,1,NA,NA,NA,NA,NA,NA,NA,NA,NA,NA,NA,NA,NA,NA,NA,NA,NA,NA,NA
296000000,shallow,flow.Sequence,3_0_1_0_0_1,NA,NA,completion,12457.019,810389.90000001,810349.729,810382.562,822839.581,822840.90000001,2023-04-08T13:56:36Z,822856.215,NULL,Betrüger,mdanganyifu,s,mwanamuziki,wastani,mahakama,NA,sdfdsf,NA,1,NA,NA,NA,NA,NA,NA,NA,NA,NA,NA,NA,NA,NA,NA,NA,NA,NA,NA,NA
296000000,task,flow.Sequence,3_0_1_0_0,NA,NA,completion,12457.019,810389.70000002,810349.729,810382.562,822839.581,822841.10000002,2023-04-08T13:56:36Z,822856.215,NULL,Betrüger,mdanganyifu,s,mwanamuziki,wastani,mahakama,NA,sdfdsf,NA,1,NA,NA,NA,NA,NA,NA,NA,NA,NA,NA,NA,NA,NA,NA,NA,NA,NA,NA,NA
296000000,deep,flow.Sequence,3_0_1_0_1_0,NA,NA,skipped,NA,822841.40000001,NA,NA,822839.581,822841.5,2023-04-08T13:56:36Z,822856.215,NULL,Gefährdung,kuhatarisha,s,uchokozi,udhaifu,makorowezo,NA,sdfdsf,NA,1,NA,NA,NA,NA,NA,NA,NA,NA,NA,NA,NA,NA,NA,NA,NA,NA,NA,NA,NA
296000000,Shallow Question,html.Page,3_0_1_0_1_1_0,NA,NA,form submission,10408.385000024,822841.60000002,822839.581,822856.215,833264.60000002,833265.20000002,2023-04-08T13:56:46Z,833292.332,NULL,Gefährdung,kuhatarisha,s,uchokozi,udhaifu,makorowezo,makorowezo,NA,NA,1,NA,NA,NA,NA,NA,NA,NA,NA,NA,NA,NA,NA,NA,NA,NA,NA,NA,NA,NA
296000000,"""Richtig""-Screen",canvas.Screen,3_0_1_0_1_1_1,NA,NA,skipped,NA,833269.80000000994,NA,NA,833264.60000002,833269.90000001,2023-04-08T13:56:46Z,833292.332,NULL,Gefährdung,kuhatarisha,s,uchokozi,udhaifu,makorowezo,NA,sdfdsf,NA,1,NA,NA,NA,NA,NA,NA,NA,NA,NA,NA,NA,NA,NA,NA,NA,NA,NA,NA,NA
296000000,"""Falsch""-Screen",canvas.Screen,3_0_1_0_1_1_2,NA,NA,timeout,5001.1279999999,833270.30000000994,833247.211,833292.332,838276.918,838277.90000001,2023-04-08T13:56:51Z,838293.46,NULL,Gefährdung,kuhatarisha,s,uchokozi,udhaifu,makorowezo,NA,sdfdsf,0,1,NA,NA,NA,NA,NA,NA,NA,NA,NA,NA,NA,NA,NA,NA,NA,NA,NA,NA,NA
296000000,shallow,flow.Sequence,3_0_1_0_1_1,NA,NA,completion,15420.703,822841.60000002,822839.581,822856.215,838276.918,838278.30000001,2023-04-08T13:56:51Z,838293.46,NULL,Gefährdung,kuhatarisha,s,uchokozi,udhaifu,makorowezo,NA,sdfdsf,NA,1,NA,NA,NA,NA,NA,NA,NA,NA,NA,NA,NA,NA,NA,NA,NA,NA,NA,NA,NA
296000000,task,flow.Sequence,3_0_1_0_1,NA,NA,completion,15420.703,822841.30000000994,822839.581,822856.215,838276.918,838278.60000002,2023-04-08T13:56:51Z,838293.46,NULL,Gefährdung,kuhatarisha,s,uchokozi,udhaifu,makorowezo,NA,sdfdsf,NA,1,NA,NA,NA,NA,NA,NA,NA,NA,NA,NA,NA,NA,NA,NA,NA,NA,NA,NA,NA
296000000,deep,flow.Sequence,3_0_1_0_2_0,NA,NA,skipped,NA,838278.90000001,NA,NA,838276.918,838279.10000002,2023-04-08T13:56:51Z,838293.46,NULL,Kontrolle,kudhibiti,s,mbinguni,kufunga,utegemezi,NA,sdfdsf,NA,1,NA,NA,NA,NA,NA,NA,NA,NA,NA,NA,NA,NA,NA,NA,NA,NA,NA,NA,NA
296000000,Shallow Question,html.Page,3_0_1_0_2_1_0,NA,NA,form submission,11196.640000024,838279.30000001,838276.918,838293.46,849490.10000002,849490.30000001,2023-04-08T13:57:03Z,849500.53,NULL,Kontrolle,kudhibiti,s,mbinguni,kufunga,utegemezi,kudhibiti,NA,NA,1,NA,NA,NA,NA,NA,NA,NA,NA,NA,NA,NA,NA,NA,NA,NA,NA,NA,NA,NA
296000000,"""Richtig""-Screen",canvas.Screen,3_0_1_0_2_1_1,NA,NA,timeout,4996.377,849492.10000002,849484.553,849500.53,854480.011,854481,2023-04-08T13:57:08Z,854496.907,NULL,Kontrolle,kudhibiti,s,mbinguni,kufunga,utegemezi,NA,sdfdsf,1,1,NA,NA,NA,NA,NA,NA,NA,NA,NA,NA,NA,NA,NA,NA,NA,NA,NA,NA,NA
296000000,"""Falsch""-Screen",canvas.Screen,3_0_1_0_2_1_2,NA,NA,skipped,NA,854485.5,NA,NA,854480.011,854485.70000002,2023-04-08T13:57:08Z,854496.907,NULL,Kontrolle,kudhibiti,s,mbinguni,kufunga,utegemezi,NA,sdfdsf,NA,1,NA,NA,NA,NA,NA,NA,NA,NA,NA,NA,NA,NA,NA,NA,NA,NA,NA,NA,NA
296000000,shallow,flow.Sequence,3_0_1_0_2_1,NA,NA,completion,16186.551,838279.20000002,838276.918,838293.46,854480.011,854485.80000000994,2023-04-08T13:57:08Z,854496.907,NULL,Kontrolle,kudhibiti,s,mbinguni,kufunga,utegemezi,NA,sdfdsf,NA,1,NA,NA,NA,NA,NA,NA,NA,NA,NA,NA,NA,NA,NA,NA,NA,NA,NA,NA,NA
296000000,task,flow.Sequence,3_0_1_0_2,NA,NA,completion,16186.551,838278.90000001,838276.918,838293.46,854480.011,854485.80000000994,2023-04-08T13:57:08Z,854496.907,NULL,Kontrolle,kudhibiti,s,mbinguni,kufunga,utegemezi,NA,sdfdsf,NA,1,NA,NA,NA,NA,NA,NA,NA,NA,NA,NA,NA,NA,NA,NA,NA,NA,NA,NA,NA
296000000,Deep Question,html.Page,3_0_1_0_3_0_0,NA,NA,form submission,11706.993000006,854485.90000001,854480.011,854496.907,866203.90000001,866204.70000002,2023-04-08T13:57:19Z,866203.446,NULL,Können,unaweza,d,NA,NA,NA,ughale,NA,NA,1,NA,NA,NA,NA,NA,NA,NA,NA,NA,NA,NA,NA,NA,NA,NA,NA,NA,NA,NA
296000000,"""Richtig""-Screen",canvas.Screen,3_0_1_0_3_0_1,NA,NA,skipped,NA,866210.60000002,NA,NA,866203.90000001,866210.90000001,2023-04-08T13:57:19Z,866203.446,NULL,Können,unaweza,d,NA,NA,NA,NA,sdfdsf,NA,1,NA,NA,NA,NA,NA,NA,NA,NA,NA,NA,NA,NA,NA,NA,NA,NA,NA,NA,NA
296000000,"""Falsch""-Screen",canvas.Screen,3_0_1_0_3_0_2,NA,NA,timeout,4996.129,866212.70000002,866187.416,866203.446,871182.694,871185.20000002,2023-04-08T13:57:24Z,871199.575,NULL,Können,unaweza,d,NA,NA,NA,NA,sdfdsf,0,1,NA,NA,NA,NA,NA,NA,NA,NA,NA,NA,NA,NA,NA,NA,NA,NA,NA,NA,NA
296000000,deep,flow.Sequence,3_0_1_0_3_0,NA,NA,completion,16685.787,854485.90000001,854480.011,854496.907,871182.694,871185.60000002,2023-04-08T13:57:24Z,871199.575,NULL,Können,unaweza,d,NA,NA,NA,NA,sdfdsf,NA,1,NA,NA,NA,NA,NA,NA,NA,NA,NA,NA,NA,NA,NA,NA,NA,NA,NA,NA,NA
296000000,shallow,flow.Sequence,3_0_1_0_3_1,NA,NA,skipped,NA,871185.70000002,NA,NA,871182.694,871185.90000001,2023-04-08T13:57:24Z,871199.575,NULL,Können,unaweza,d,NA,NA,NA,NA,sdfdsf,NA,1,NA,NA,NA,NA,NA,NA,NA,NA,NA,NA,NA,NA,NA,NA,NA,NA,NA,NA,NA
296000000,task,flow.Sequence,3_0_1_0_3,NA,NA,completion,16685.787,854485.90000001,854480.011,854496.907,871182.694,871186,2023-04-08T13:57:24Z,871199.575,NULL,Können,unaweza,d,NA,NA,NA,NA,sdfdsf,NA,1,NA,NA,NA,NA,NA,NA,NA,NA,NA,NA,NA,NA,NA,NA,NA,NA,NA,NA,NA
296000000,Deep Question,html.Page,3_0_1_0_4_0_0,NA,NA,form submission,7359.425,871186.30000001,871182.694,871199.575,878559,878559.60000002,2023-04-08T13:57:32Z,878559.997,NULL,Orientierung,urekebisho,d,NA,NA,NA,kenshi,NA,NA,1,NA,NA,NA,NA,NA,NA,NA,NA,NA,NA,NA,NA,NA,NA,NA,NA,NA,NA,NA
296000000,"""Richtig""-Screen",canvas.Screen,3_0_1_0_4_0_1,NA,NA,skipped,NA,878565.70000002,NA,NA,878559,878565.80000000994,2023-04-08T13:57:32Z,878559.997,NULL,Orientierung,urekebisho,d,NA,NA,NA,NA,sdfdsf,NA,1,NA,NA,NA,NA,NA,NA,NA,NA,NA,NA,NA,NA,NA,NA,NA,NA,NA,NA,NA
296000000,"""Falsch""-Screen",canvas.Screen,3_0_1_0_4_0_2,NA,NA,timeout,4996.388,878566.40000001,878543.866,878559.997,883539.389,883540.30000001,2023-04-08T13:57:37Z,883556.385,NULL,Orientierung,urekebisho,d,NA,NA,NA,NA,sdfdsf,0,1,NA,NA,NA,NA,NA,NA,NA,NA,NA,NA,NA,NA,NA,NA,NA,NA,NA,NA,NA
296000000,deep,flow.Sequence,3_0_1_0_4_0,NA,NA,completion,12339.814,871186.30000001,871182.694,871199.575,883539.389,883540.70000002,2023-04-08T13:57:37Z,883556.385,NULL,Orientierung,urekebisho,d,NA,NA,NA,NA,sdfdsf,NA,1,NA,NA,NA,NA,NA,NA,NA,NA,NA,NA,NA,NA,NA,NA,NA,NA,NA,NA,NA
296000000,shallow,flow.Sequence,3_0_1_0_4_1,NA,NA,skipped,NA,883540.90000001,NA,NA,883539.389,883541.10000002,2023-04-08T13:57:37Z,883556.385,NULL,Orientierung,urekebisho,d,NA,NA,NA,NA,sdfdsf,NA,1,NA,NA,NA,NA,NA,NA,NA,NA,NA,NA,NA,NA,NA,NA,NA,NA,NA,NA,NA
296000000,task,flow.Sequence,3_0_1_0_4,NA,NA,completion,12339.814,871186.20000002,871182.694,871199.575,883539.389,883541.40000001,2023-04-08T13:57:37Z,883556.385,NULL,Orientierung,urekebisho,d,NA,NA,NA,NA,sdfdsf,NA,1,NA,NA,NA,NA,NA,NA,NA,NA,NA,NA,NA,NA,NA,NA,NA,NA,NA,NA,NA
296000000,Deep Question,html.Page,3_0_1_0_5_0_0,NA,NA,form submission,5280.515000006,883541.60000002,883539.389,883556.385,888836.90000001,888837.10000002,2023-04-08T13:57:42Z,888852.009,NULL,Respekt,heshima,d,NA,NA,NA,kenshi,NA,NA,1,NA,NA,NA,NA,NA,NA,NA,NA,NA,NA,NA,NA,NA,NA,NA,NA,NA,NA,NA
296000000,"""Richtig""-Screen",canvas.Screen,3_0_1_0_5_0_1,NA,NA,skipped,NA,888839.90000001,NA,NA,888836.90000001,888840.10000002,2023-04-08T13:57:42Z,888852.009,NULL,Respekt,heshima,d,NA,NA,NA,NA,sdfdsf,NA,1,NA,NA,NA,NA,NA,NA,NA,NA,NA,NA,NA,NA,NA,NA,NA,NA,NA,NA,NA
296000000,"""Falsch""-Screen",canvas.Screen,3_0_1_0_5_0_2,NA,NA,timeout,4995.429,888840.80000001,888835.486,888852.009,893830.984,893831.90000001,2023-04-08T13:57:47Z,893847.438,NULL,Respekt,heshima,d,NA,NA,NA,NA,sdfdsf,0,1,NA,NA,NA,NA,NA,NA,NA,NA,NA,NA,NA,NA,NA,NA,NA,NA,NA,NA,NA
296000000,deep,flow.Sequence,3_0_1_0_5_0,NA,NA,completion,10274.599,883541.60000002,883539.389,883556.385,893830.984,893832.30000000994,2023-04-08T13:57:47Z,893847.438,NULL,Respekt,heshima,d,NA,NA,NA,NA,sdfdsf,NA,1,NA,NA,NA,NA,NA,NA,NA,NA,NA,NA,NA,NA,NA,NA,NA,NA,NA,NA,NA
296000000,shallow,flow.Sequence,3_0_1_0_5_1,NA,NA,skipped,NA,893832.5,NA,NA,893830.984,893832.70000002,2023-04-08T13:57:47Z,893847.438,NULL,Respekt,heshima,d,NA,NA,NA,NA,sdfdsf,NA,1,NA,NA,NA,NA,NA,NA,NA,NA,NA,NA,NA,NA,NA,NA,NA,NA,NA,NA,NA
296000000,task,flow.Sequence,3_0_1_0_5,NA,NA,completion,10274.599,883541.5,883539.389,883556.385,893830.984,893833,2023-04-08T13:57:47Z,893847.438,NULL,Respekt,heshima,d,NA,NA,NA,NA,sdfdsf,NA,1,NA,NA,NA,NA,NA,NA,NA,NA,NA,NA,NA,NA,NA,NA,NA,NA,NA,NA,NA
296000000,Deep Question,html.Page,3_0_1_0_6_0_0,NA,NA,form submission,10691.862000012,893833.20000002,893830.984,893847.438,904539.30000000994,904539.5,2023-04-08T13:57:58Z,904555.348,NULL,Kreativität,ubunifu,d,NA,NA,NA,akaroki,NA,NA,1,NA,NA,NA,NA,NA,NA,NA,NA,NA,NA,NA,NA,NA,NA,NA,NA,NA,NA,NA
296000000,"""Richtig""-Screen",canvas.Screen,3_0_1_0_6_0_1,NA,NA,skipped,NA,904542.70000002,NA,NA,904539.30000000994,904542.90000001,2023-04-08T13:57:58Z,904555.348,NULL,Kreativität,ubunifu,d,NA,NA,NA,NA,sdfdsf,NA,1,NA,NA,NA,NA,NA,NA,NA,NA,NA,NA,NA,NA,NA,NA,NA,NA,NA,NA,NA
296000000,"""Falsch""-Screen",canvas.Screen,3_0_1_0_6_0_2,NA,NA,timeout,4996.522,904544.40000001,904522.549,904555.348,909534.956,909536,2023-04-08T13:58:03Z,909551.87,NULL,Kreativität,ubunifu,d,NA,NA,NA,NA,sdfdsf,0,1,NA,NA,NA,NA,NA,NA,NA,NA,NA,NA,NA,NA,NA,NA,NA,NA,NA,NA,NA
296000000,deep,flow.Sequence,3_0_1_0_6_0,NA,NA,completion,15687.518,893833.20000002,893830.984,893847.438,909534.956,909536.5,2023-04-08T13:58:03Z,909551.87,NULL,Kreativität,ubunifu,d,NA,NA,NA,NA,sdfdsf,NA,1,NA,NA,NA,NA,NA,NA,NA,NA,NA,NA,NA,NA,NA,NA,NA,NA,NA,NA,NA
296000000,shallow,flow.Sequence,3_0_1_0_6_1,NA,NA,skipped,NA,909536.60000002,NA,NA,909534.956,909536.80000000994,2023-04-08T13:58:03Z,909551.87,NULL,Kreativität,ubunifu,d,NA,NA,NA,NA,sdfdsf,NA,1,NA,NA,NA,NA,NA,NA,NA,NA,NA,NA,NA,NA,NA,NA,NA,NA,NA,NA,NA
296000000,task,flow.Sequence,3_0_1_0_6,NA,NA,completion,15687.518,893833.20000002,893830.984,893847.438,909534.956,909537.10000002,2023-04-08T13:58:03Z,909551.87,NULL,Kreativität,ubunifu,d,NA,NA,NA,NA,sdfdsf,NA,1,NA,NA,NA,NA,NA,NA,NA,NA,NA,NA,NA,NA,NA,NA,NA,NA,NA,NA,NA
296000000,deep,flow.Sequence,3_0_1_0_7_0,NA,NA,skipped,NA,909537.20000002,NA,NA,909534.956,909537.30000001,2023-04-08T13:58:03Z,909551.87,NULL,Stimmung,kinyongo,s,kilekile,kisambo,madhehebu,NA,sdfdsf,NA,1,NA,NA,NA,NA,NA,NA,NA,NA,NA,NA,NA,NA,NA,NA,NA,NA,NA,NA,NA
296000000,Shallow Question,html.Page,3_0_1_0_7_1_0,NA,NA,form submission,9560.530000006,909537.5,909534.956,909551.87,919112.40000001,919112.90000001,2023-04-08T13:58:12Z,919126.658,NULL,Stimmung,kinyongo,s,kilekile,kisambo,madhehebu,kinyongo,NA,NA,1,NA,NA,NA,NA,NA,NA,NA,NA,NA,NA,NA,NA,NA,NA,NA,NA,NA,NA,NA
296000000,"""Richtig""-Screen",canvas.Screen,3_0_1_0_7_1_1,NA,NA,timeout,4996.1429999999,919116.60000002,919110.567,919126.658,924106.109,924107.10000002,2023-04-08T13:58:17Z,924122.801,NULL,Stimmung,kinyongo,s,kilekile,kisambo,madhehebu,NA,sdfdsf,1,1,NA,NA,NA,NA,NA,NA,NA,NA,NA,NA,NA,NA,NA,NA,NA,NA,NA,NA,NA
296000000,"""Falsch""-Screen",canvas.Screen,3_0_1_0_7_1_2,NA,NA,skipped,NA,924112.80000000994,NA,NA,924106.109,924113.10000002,2023-04-08T13:58:17Z,924122.801,NULL,Stimmung,kinyongo,s,kilekile,kisambo,madhehebu,NA,sdfdsf,NA,1,NA,NA,NA,NA,NA,NA,NA,NA,NA,NA,NA,NA,NA,NA,NA,NA,NA,NA,NA
296000000,shallow,flow.Sequence,3_0_1_0_7_1,NA,NA,completion,14554.239,909537.40000001,909534.956,909551.87,924106.109,924113.5,2023-04-08T13:58:17Z,924122.801,NULL,Stimmung,kinyongo,s,kilekile,kisambo,madhehebu,NA,sdfdsf,NA,1,NA,NA,NA,NA,NA,NA,NA,NA,NA,NA,NA,NA,NA,NA,NA,NA,NA,NA,NA
296000000,task,flow.Sequence,3_0_1_0_7,NA,NA,completion,14554.239,909537.10000002,909534.956,909551.87,924106.109,924113.90000001,2023-04-08T13:58:17Z,924122.801,NULL,Stimmung,kinyongo,s,kilekile,kisambo,madhehebu,NA,sdfdsf,NA,1,NA,NA,NA,NA,NA,NA,NA,NA,NA,NA,NA,NA,NA,NA,NA,NA,NA,NA,NA
296000000,block,flow.Loop,3_0_1_0,NA,NA,completion,113723.547,810389.70000002,810349.729,810382.562,924106.109,924114.10000002,2023-04-08T13:58:17Z,924122.801,NULL,NA,NA,NA,NA,NA,NA,NA,sdfdsf,NA,1,NA,NA,NA,NA,NA,NA,NA,NA,NA,NA,NA,NA,NA,NA,NA,NA,NA,NA,NA
296000000,weiter,canvas.Screen,3_0_1_1,sdf,keypress(Space),response,2916.099000006,924114.30000001,924106.109,924122.801,927038.90000001,927040.30000001,2023-04-08T13:58:20Z,927086.742,NULL,NA,NA,NA,NA,NA,NA,NA,sdfdsf,NA,1,NA,NA,NA,NA,NA,NA,NA,NA,NA,NA,NA,NA,NA,NA,NA,NA,NA,NA,NA
296000000,check continue,flow.Sequence,3_0_1,NA,NA,completion,116656.33800001,810389.70000002,810349.729,810382.562,927038.90000001,927040.70000002,2023-04-08T13:58:20Z,927086.742,NULL,NA,NA,NA,NA,NA,NA,NA,sdfdsf,NA,1,NA,NA,NA,NA,NA,NA,NA,NA,NA,NA,NA,NA,NA,NA,NA,NA,NA,NA,NA
296000000,Deep Question,html.Page,3_0_2_0_0_0_0,NA,NA,form submission,17202.358000024,927088.90000001,927037.363,927086.742,944289.10000002,944290.30000001,2023-04-08T13:58:37Z,944289.405,NULL,Kreativität,ubunifu,d,NA,NA,NA,unugheshi,NA,NA,2,NA,NA,NA,NA,NA,NA,NA,NA,NA,NA,NA,NA,NA,NA,NA,NA,NA,NA,NA
296000000,"""Richtig""-Screen",canvas.Screen,3_0_2_0_0_0_1,NA,NA,skipped,NA,944293.10000002,NA,NA,944289.10000002,944293.20000002,2023-04-08T13:58:37Z,944289.405,NULL,Kreativität,ubunifu,d,NA,NA,NA,NA,sdf,NA,2,NA,NA,NA,NA,NA,NA,NA,NA,NA,NA,NA,NA,NA,NA,NA,NA,NA,NA,NA
296000000,"""Falsch""-Screen",canvas.Screen,3_0_2_0_0_0_2,NA,NA,timeout,4995.796,944293.80000001,944273.261,944289.405,949268.874,949269.80000001,2023-04-08T13:58:42Z,949285.201,NULL,Kreativität,ubunifu,d,NA,NA,NA,NA,sdf,0,2,NA,NA,NA,NA,NA,NA,NA,NA,NA,NA,NA,NA,NA,NA,NA,NA,NA,NA,NA
296000000,deep,flow.Sequence,3_0_2_0_0_0,NA,NA,completion,22182.132,927088.90000001,927037.363,927086.742,949268.874,949270.20000002,2023-04-08T13:58:42Z,949285.201,NULL,Kreativität,ubunifu,d,NA,NA,NA,NA,sdf,NA,2,NA,NA,NA,NA,NA,NA,NA,NA,NA,NA,NA,NA,NA,NA,NA,NA,NA,NA,NA
296000000,shallow,flow.Sequence,3_0_2_0_0_1,NA,NA,skipped,NA,949270.40000001,NA,NA,949268.874,949270.60000002,2023-04-08T13:58:42Z,949285.201,NULL,Kreativität,ubunifu,d,NA,NA,NA,NA,sdf,NA,2,NA,NA,NA,NA,NA,NA,NA,NA,NA,NA,NA,NA,NA,NA,NA,NA,NA,NA,NA
296000000,task,flow.Sequence,3_0_2_0_0,NA,NA,completion,22182.132,927088.80000001,927037.363,927086.742,949268.874,949270.80000000994,2023-04-08T13:58:42Z,949285.201,NULL,Kreativität,ubunifu,d,NA,NA,NA,NA,sdf,NA,2,NA,NA,NA,NA,NA,NA,NA,NA,NA,NA,NA,NA,NA,NA,NA,NA,NA,NA,NA
296000000,deep,flow.Sequence,3_0_2_0_1_0,NA,NA,skipped,NA,949270.90000001,NA,NA,949268.874,949271.10000002,2023-04-08T13:58:42Z,949285.201,NULL,Stimmung,kinyongo,s,kilekile,kisambo,madhehebu,NA,sdf,NA,2,NA,NA,NA,NA,NA,NA,NA,NA,NA,NA,NA,NA,NA,NA,NA,NA,NA,NA,NA
296000000,Shallow Question,html.Page,3_0_2_0_1_1_0,NA,NA,form submission,4141.299,949271.20000002,949268.874,949285.201,953426.5,953427.10000002,2023-04-08T13:58:47Z,953431.862,NULL,Stimmung,kinyongo,s,kilekile,kisambo,madhehebu,kinyongo,NA,NA,2,NA,NA,NA,NA,NA,NA,NA,NA,NA,NA,NA,NA,NA,NA,NA,NA,NA,NA,NA
296000000,"""Richtig""-Screen",canvas.Screen,3_0_2_0_1_1_1,NA,NA,timeout,4995.971,953429.5,953415.741,953431.862,958411.678,958412.60000002,2023-04-08T13:58:52Z,958427.833,NULL,Stimmung,kinyongo,s,kilekile,kisambo,madhehebu,NA,sdf,1,2,NA,NA,NA,NA,NA,NA,NA,NA,NA,NA,NA,NA,NA,NA,NA,NA,NA,NA,NA
296000000,"""Falsch""-Screen",canvas.Screen,3_0_2_0_1_1_2,NA,NA,skipped,NA,958418,NA,NA,958411.678,958418.40000001,2023-04-08T13:58:52Z,958427.833,NULL,Stimmung,kinyongo,s,kilekile,kisambo,madhehebu,NA,sdf,NA,2,NA,NA,NA,NA,NA,NA,NA,NA,NA,NA,NA,NA,NA,NA,NA,NA,NA,NA,NA
296000000,shallow,flow.Sequence,3_0_2_0_1_1,NA,NA,completion,9126.477,949271.20000002,949268.874,949285.201,958411.678,958418.80000001,2023-04-08T13:58:52Z,958427.833,NULL,Stimmung,kinyongo,s,kilekile,kisambo,madhehebu,NA,sdf,NA,2,NA,NA,NA,NA,NA,NA,NA,NA,NA,NA,NA,NA,NA,NA,NA,NA,NA,NA,NA
296000000,task,flow.Sequence,3_0_2_0_1,NA,NA,completion,9126.477,949270.90000001,949268.874,949285.201,958411.678,958419.10000002,2023-04-08T13:58:52Z,958427.833,NULL,Stimmung,kinyongo,s,kilekile,kisambo,madhehebu,NA,sdf,NA,2,NA,NA,NA,NA,NA,NA,NA,NA,NA,NA,NA,NA,NA,NA,NA,NA,NA,NA,NA
296000000,Deep Question,html.Page,3_0_2_0_2_0_0,NA,NA,form submission,19652.967000012,958419.30000001,958411.678,958427.833,978080.80000000994,978081.40000001,2023-04-08T13:59:11Z,978095.349,NULL,Können,unaweza,d,NA,NA,NA,ukenshi,NA,NA,2,NA,NA,NA,NA,NA,NA,NA,NA,NA,NA,NA,NA,NA,NA,NA,NA,NA,NA,NA
296000000,"""Richtig""-Screen",canvas.Screen,3_0_2_0_2_0_1,NA,NA,skipped,NA,978084.40000001,NA,NA,978080.80000000994,978084.5,2023-04-08T13:59:11Z,978095.349,NULL,Können,unaweza,d,NA,NA,NA,NA,sdf,NA,2,NA,NA,NA,NA,NA,NA,NA,NA,NA,NA,NA,NA,NA,NA,NA,NA,NA,NA,NA
296000000,"""Falsch""-Screen",canvas.Screen,3_0_2_0_2_0_2,NA,NA,timeout,4996.134,978085,978078.85,978095.349,983074.682,983075.70000002,2023-04-08T13:59:16Z,983091.483,NULL,Können,unaweza,d,NA,NA,NA,NA,sdf,0,2,NA,NA,NA,NA,NA,NA,NA,NA,NA,NA,NA,NA,NA,NA,NA,NA,NA,NA,NA
296000000,deep,flow.Sequence,3_0_2_0_2_0,NA,NA,completion,24646.849,958419.30000001,958411.678,958427.833,983074.682,983076.10000002,2023-04-08T13:59:16Z,983091.483,NULL,Können,unaweza,d,NA,NA,NA,NA,sdf,NA,2,NA,NA,NA,NA,NA,NA,NA,NA,NA,NA,NA,NA,NA,NA,NA,NA,NA,NA,NA
296000000,shallow,flow.Sequence,3_0_2_0_2_1,NA,NA,skipped,NA,983076.30000000994,NA,NA,983074.682,983076.40000001,2023-04-08T13:59:16Z,983091.483,NULL,Können,unaweza,d,NA,NA,NA,NA,sdf,NA,2,NA,NA,NA,NA,NA,NA,NA,NA,NA,NA,NA,NA,NA,NA,NA,NA,NA,NA,NA
296000000,task,flow.Sequence,3_0_2_0_2,NA,NA,completion,24646.849,958419.20000002,958411.678,958427.833,983074.682,983076.70000002,2023-04-08T13:59:16Z,983091.483,NULL,Können,unaweza,d,NA,NA,NA,NA,sdf,NA,2,NA,NA,NA,NA,NA,NA,NA,NA,NA,NA,NA,NA,NA,NA,NA,NA,NA,NA,NA
296000000,Deep Question,html.Page,3_0_2_0_3_0_0,NA,NA,form submission,12331.417000006,983076.90000001,983074.682,983091.483,995422.90000001,995423.10000002,2023-04-08T13:59:29Z,995430.644,NULL,Respekt,heshima,d,NA,NA,NA,unkeshi,NA,NA,2,NA,NA,NA,NA,NA,NA,NA,NA,NA,NA,NA,NA,NA,NA,NA,NA,NA,NA,NA
296000000,"""Richtig""-Screen",canvas.Screen,3_0_2_0_3_0_1,NA,NA,skipped,NA,995424.80000001,NA,NA,995422.90000001,995425,2023-04-08T13:59:29Z,995430.644,NULL,Respekt,heshima,d,NA,NA,NA,NA,sdf,NA,2,NA,NA,NA,NA,NA,NA,NA,NA,NA,NA,NA,NA,NA,NA,NA,NA,NA,NA,NA
296000000,"""Falsch""-Screen",canvas.Screen,3_0_2_0_3_0_2,NA,NA,timeout,4996.672,995425.5,995414.63,995430.644,1000410.568,1000411.1,2023-04-08T13:59:34Z,1000427.316,NULL,Respekt,heshima,d,NA,NA,NA,NA,sdf,0,2,NA,NA,NA,NA,NA,NA,NA,NA,NA,NA,NA,NA,NA,NA,NA,NA,NA,NA,NA
296000000,deep,flow.Sequence,3_0_2_0_3_0,NA,NA,completion,17319.085,983076.90000001,983074.682,983091.483,1000410.568,1000411.2,2023-04-08T13:59:34Z,1000427.316,NULL,Respekt,heshima,d,NA,NA,NA,NA,sdf,NA,2,NA,NA,NA,NA,NA,NA,NA,NA,NA,NA,NA,NA,NA,NA,NA,NA,NA,NA,NA
296000000,shallow,flow.Sequence,3_0_2_0_3_1,NA,NA,skipped,NA,1000411.3,NA,NA,1000410.568,1000411.4,2023-04-08T13:59:34Z,1000427.316,NULL,Respekt,heshima,d,NA,NA,NA,NA,sdf,NA,2,NA,NA,NA,NA,NA,NA,NA,NA,NA,NA,NA,NA,NA,NA,NA,NA,NA,NA,NA
296000000,task,flow.Sequence,3_0_2_0_3,NA,NA,completion,17319.085,983076.80000001,983074.682,983091.483,1000410.568,1000411.5,2023-04-08T13:59:34Z,1000427.316,NULL,Respekt,heshima,d,NA,NA,NA,NA,sdf,NA,2,NA,NA,NA,NA,NA,NA,NA,NA,NA,NA,NA,NA,NA,NA,NA,NA,NA,NA,NA
296000000,deep,flow.Sequence,3_0_2_0_4_0,NA,NA,skipped,NA,1000411.5,NA,NA,1000410.568,1000411.6,2023-04-08T13:59:34Z,1000427.316,NULL,Kontrolle,kudhibiti,s,mbinguni,kufunga,utegemezi,NA,sdf,NA,2,NA,NA,NA,NA,NA,NA,NA,NA,NA,NA,NA,NA,NA,NA,NA,NA,NA,NA,NA
296000000,Shallow Question,html.Page,3_0_2_0_4_1_0,NA,NA,form submission,10904.184,1000411.7,1000410.568,1000427.316,1011331.5,1011332,2023-04-08T13:59:45Z,1011334.285,NULL,Kontrolle,kudhibiti,s,mbinguni,kufunga,utegemezi,kudhibiti,NA,NA,2,NA,NA,NA,NA,NA,NA,NA,NA,NA,NA,NA,NA,NA,NA,NA,NA,NA,NA,NA
296000000,"""Richtig""-Screen",canvas.Screen,3_0_2_0_4_1_1,NA,NA,timeout,4995.944,1011335.1,1011318.252,1011334.285,1016313.988,1016314.9,2023-04-08T13:59:49Z,1016330.229,NULL,Kontrolle,kudhibiti,s,mbinguni,kufunga,utegemezi,NA,sdf,1,2,NA,NA,NA,NA,NA,NA,NA,NA,NA,NA,NA,NA,NA,NA,NA,NA,NA,NA,NA
296000000,"""Falsch""-Screen",canvas.Screen,3_0_2_0_4_1_2,NA,NA,skipped,NA,1016320.4,NA,NA,1016313.988,1016320.7,2023-04-08T13:59:50Z,1016330.229,NULL,Kontrolle,kudhibiti,s,mbinguni,kufunga,utegemezi,NA,sdf,NA,2,NA,NA,NA,NA,NA,NA,NA,NA,NA,NA,NA,NA,NA,NA,NA,NA,NA,NA,NA
296000000,shallow,flow.Sequence,3_0_2_0_4_1,NA,NA,completion,15886.672,1000411.6,1000410.568,1000427.316,1016313.988,1016321,2023-04-08T13:59:50Z,1016330.229,NULL,Kontrolle,kudhibiti,s,mbinguni,kufunga,utegemezi,NA,sdf,NA,2,NA,NA,NA,NA,NA,NA,NA,NA,NA,NA,NA,NA,NA,NA,NA,NA,NA,NA,NA
296000000,task,flow.Sequence,3_0_2_0_4,NA,NA,completion,15886.672,1000411.5,1000410.568,1000427.316,1016313.988,1016321.4,2023-04-08T13:59:50Z,1016330.229,NULL,Kontrolle,kudhibiti,s,mbinguni,kufunga,utegemezi,NA,sdf,NA,2,NA,NA,NA,NA,NA,NA,NA,NA,NA,NA,NA,NA,NA,NA,NA,NA,NA,NA,NA
296000000,deep,flow.Sequence,3_0_2_0_5_0,NA,NA,skipped,NA,1016321.5,NA,NA,1016313.988,1016321.6,2023-04-08T13:59:50Z,1016330.229,NULL,Gefährdung,kuhatarisha,s,uchokozi,udhaifu,makorowezo,NA,sdf,NA,2,NA,NA,NA,NA,NA,NA,NA,NA,NA,NA,NA,NA,NA,NA,NA,NA,NA,NA,NA
296000000,Shallow Question,html.Page,3_0_2_0_5_1_0,NA,NA,form submission,8273.4710000178,1016321.8,1016313.988,1016330.229,1024603.7,1024604.1,2023-04-08T13:59:58Z,1024606.805,NULL,Gefährdung,kuhatarisha,s,uchokozi,udhaifu,makorowezo,kuhatarisha,NA,NA,2,NA,NA,NA,NA,NA,NA,NA,NA,NA,NA,NA,NA,NA,NA,NA,NA,NA,NA,NA
296000000,"""Richtig""-Screen",canvas.Screen,3_0_2_0_5_1_1,NA,NA,timeout,4995.8089999999,1024610.3,1024590.406,1024606.805,1029586.244,1029586.9,2023-04-08T14:00:03Z,1029602.614,NULL,Gefährdung,kuhatarisha,s,uchokozi,udhaifu,makorowezo,NA,sdf,1,2,NA,NA,NA,NA,NA,NA,NA,NA,NA,NA,NA,NA,NA,NA,NA,NA,NA,NA,NA
296000000,"""Falsch""-Screen",canvas.Screen,3_0_2_0_5_1_2,NA,NA,skipped,NA,1029588.6,NA,NA,1029586.244,1029588.7,2023-04-08T14:00:03Z,1029602.614,NULL,Gefährdung,kuhatarisha,s,uchokozi,udhaifu,makorowezo,NA,sdf,NA,2,NA,NA,NA,NA,NA,NA,NA,NA,NA,NA,NA,NA,NA,NA,NA,NA,NA,NA,NA
296000000,shallow,flow.Sequence,3_0_2_0_5_1,NA,NA,completion,13256.015,1016321.8,1016313.988,1016330.229,1029586.244,1029588.9,2023-04-08T14:00:03Z,1029602.614,NULL,Gefährdung,kuhatarisha,s,uchokozi,udhaifu,makorowezo,NA,sdf,NA,2,NA,NA,NA,NA,NA,NA,NA,NA,NA,NA,NA,NA,NA,NA,NA,NA,NA,NA,NA
296000000,task,flow.Sequence,3_0_2_0_5,NA,NA,completion,13256.015,1016321.5,1016313.988,1016330.229,1029586.244,1029589,2023-04-08T14:00:03Z,1029602.614,NULL,Gefährdung,kuhatarisha,s,uchokozi,udhaifu,makorowezo,NA,sdf,NA,2,NA,NA,NA,NA,NA,NA,NA,NA,NA,NA,NA,NA,NA,NA,NA,NA,NA,NA,NA
296000000,deep,flow.Sequence,3_0_2_0_6_0,NA,NA,skipped,NA,1029589,NA,NA,1029586.244,1029589,2023-04-08T14:00:03Z,1029602.614,NULL,Betrüger,mdanganyifu,s,mwanamuziki,wastani,mahakama,NA,sdf,NA,2,NA,NA,NA,NA,NA,NA,NA,NA,NA,NA,NA,NA,NA,NA,NA,NA,NA,NA,NA
296000000,Shallow Question,html.Page,3_0_2_0_6_1_0,NA,NA,form submission,3948.286000006,1029589.1,1029586.244,1029602.614,1033550.9,1033551.3,2023-04-08T14:00:07Z,1033581.653,NULL,Betrüger,mdanganyifu,s,mwanamuziki,wastani,mahakama,mdanganyifu,NA,NA,2,NA,NA,NA,NA,NA,NA,NA,NA,NA,NA,NA,NA,NA,NA,NA,NA,NA,NA,NA
296000000,"""Richtig""-Screen",canvas.Screen,3_0_2_0_6_1_1,NA,NA,timeout,4997.5029999999,1033555.2,1033533.314,1033581.653,1038562.542,1038563.1,2023-04-08T14:00:12Z,1038579.156,NULL,Betrüger,mdanganyifu,s,mwanamuziki,wastani,mahakama,NA,sdf,1,2,NA,NA,NA,NA,NA,NA,NA,NA,NA,NA,NA,NA,NA,NA,NA,NA,NA,NA,NA
296000000,"""Falsch""-Screen",canvas.Screen,3_0_2_0_6_1_2,NA,NA,skipped,NA,1038566.4,NA,NA,1038562.542,1038566.7,2023-04-08T14:00:12Z,1038579.156,NULL,Betrüger,mdanganyifu,s,mwanamuziki,wastani,mahakama,NA,sdf,NA,2,NA,NA,NA,NA,NA,NA,NA,NA,NA,NA,NA,NA,NA,NA,NA,NA,NA,NA,NA
296000000,shallow,flow.Sequence,3_0_2_0_6_1,NA,NA,completion,8959.9280000001,1029589.1,1029586.244,1029602.614,1038562.542,1038566.9,2023-04-08T14:00:12Z,1038579.156,NULL,Betrüger,mdanganyifu,s,mwanamuziki,wastani,mahakama,NA,sdf,NA,2,NA,NA,NA,NA,NA,NA,NA,NA,NA,NA,NA,NA,NA,NA,NA,NA,NA,NA,NA
296000000,task,flow.Sequence,3_0_2_0_6,NA,NA,completion,8959.9280000001,1029589,1029586.244,1029602.614,1038562.542,1038567,2023-04-08T14:00:12Z,1038579.156,NULL,Betrüger,mdanganyifu,s,mwanamuziki,wastani,mahakama,NA,sdf,NA,2,NA,NA,NA,NA,NA,NA,NA,NA,NA,NA,NA,NA,NA,NA,NA,NA,NA,NA,NA
296000000,Deep Question,html.Page,3_0_2_0_7_0_0,NA,NA,form submission,9461.844,1038567.2,1038562.542,1038579.156,1048041,1048041.7,2023-04-08T14:00:21Z,1048054.291,NULL,Orientierung,urekebisho,d,NA,NA,NA,ukenshi,NA,NA,2,NA,NA,NA,NA,NA,NA,NA,NA,NA,NA,NA,NA,NA,NA,NA,NA,NA,NA,NA
296000000,"""Richtig""-Screen",canvas.Screen,3_0_2_0_7_0_1,NA,NA,skipped,NA,1048045.2,NA,NA,1048041,1048045.2,2023-04-08T14:00:21Z,1048054.291,NULL,Orientierung,urekebisho,d,NA,NA,NA,NA,sdf,NA,2,NA,NA,NA,NA,NA,NA,NA,NA,NA,NA,NA,NA,NA,NA,NA,NA,NA,NA,NA
296000000,"""Falsch""-Screen",canvas.Screen,3_0_2_0_7_0_2,NA,NA,timeout,4996.3689999999,1048045.7,1048038.142,1048054.291,1053033.724,1053034.7,2023-04-08T14:00:26Z,1053050.66,NULL,Orientierung,urekebisho,d,NA,NA,NA,NA,sdf,0,2,NA,NA,NA,NA,NA,NA,NA,NA,NA,NA,NA,NA,NA,NA,NA,NA,NA,NA,NA
296000000,deep,flow.Sequence,3_0_2_0_7_0,NA,NA,completion,14454.568,1038567.2,1038562.542,1038579.156,1053033.724,1053035.1,2023-04-08T14:00:26Z,1053050.66,NULL,Orientierung,urekebisho,d,NA,NA,NA,NA,sdf,NA,2,NA,NA,NA,NA,NA,NA,NA,NA,NA,NA,NA,NA,NA,NA,NA,NA,NA,NA,NA
296000000,shallow,flow.Sequence,3_0_2_0_7_1,NA,NA,skipped,NA,1053035.2,NA,NA,1053033.724,1053035.4,2023-04-08T14:00:26Z,1053050.66,NULL,Orientierung,urekebisho,d,NA,NA,NA,NA,sdf,NA,2,NA,NA,NA,NA,NA,NA,NA,NA,NA,NA,NA,NA,NA,NA,NA,NA,NA,NA,NA
296000000,task,flow.Sequence,3_0_2_0_7,NA,NA,completion,14454.568,1038567.2,1038562.542,1038579.156,1053033.724,1053035.7,2023-04-08T14:00:26Z,1053050.66,NULL,Orientierung,urekebisho,d,NA,NA,NA,NA,sdf,NA,2,NA,NA,NA,NA,NA,NA,NA,NA,NA,NA,NA,NA,NA,NA,NA,NA,NA,NA,NA
296000000,block,flow.Loop,3_0_2_0,NA,NA,completion,125946.982,927088.80000001,927037.363,927086.742,1053033.724,1053035.9,2023-04-08T14:00:26Z,1053050.66,NULL,NA,NA,NA,NA,NA,NA,NA,sdf,NA,2,NA,NA,NA,NA,NA,NA,NA,NA,NA,NA,NA,NA,NA,NA,NA,NA,NA,NA,NA
296000000,weiter,canvas.Screen,3_0_2_1,sdf,keypress(Space),response,1132.640000012,1053036,1053033.724,1053050.66,1054183.3,1054184.9,2023-04-08T14:00:27Z,1054215.725,NULL,NA,NA,NA,NA,NA,NA,NA,sdf,NA,2,NA,NA,NA,NA,NA,NA,NA,NA,NA,NA,NA,NA,NA,NA,NA,NA,NA,NA,NA
296000000,check continue,flow.Sequence,3_0_2,NA,NA,completion,127096.55800001,927088.80000001,927037.363,927086.742,1054183.3,1054185.2,2023-04-08T14:00:27Z,1054215.725,NULL,NA,NA,NA,NA,NA,NA,NA,sdf,NA,2,NA,NA,NA,NA,NA,NA,NA,NA,NA,NA,NA,NA,NA,NA,NA,NA,NA,NA,NA
296000000,Deep Question,html.Page,3_0_3_0_0_0_0,NA,NA,form submission,36337.975000018,1054215.2,1054182.661,1054215.725,1090553.7,1090554,2023-04-08T14:01:04Z,1090569.221,NULL,Kreativität,ubunifu,d,NA,NA,NA,unguhai,NA,NA,3,NA,NA,NA,NA,NA,NA,NA,NA,NA,NA,NA,NA,NA,NA,NA,NA,NA,NA,NA
296000000,"""Richtig""-Screen",canvas.Screen,3_0_3_0_0_0_1,NA,NA,skipped,NA,1090557,NA,NA,1090553.7,1090557.2,2023-04-08T14:01:04Z,1090569.221,NULL,Kreativität,ubunifu,d,NA,NA,NA,NA,qt,NA,3,NA,NA,NA,NA,NA,NA,NA,NA,NA,NA,NA,NA,NA,NA,NA,NA,NA,NA,NA
296000000,"""Falsch""-Screen",canvas.Screen,3_0_3_0_0_0_2,NA,NA,timeout,4996.5290000001,1090558.2,1090536.71,1090569.221,1095548.817,1095549.8,2023-04-08T14:01:09Z,1095565.75,NULL,Kreativität,ubunifu,d,NA,NA,NA,NA,qt,0,3,NA,NA,NA,NA,NA,NA,NA,NA,NA,NA,NA,NA,NA,NA,NA,NA,NA,NA,NA
296000000,deep,flow.Sequence,3_0_3_0_0_0,NA,NA,completion,41333.092,1054215.2,1054182.661,1054215.725,1095548.817,1095550.2,2023-04-08T14:01:09Z,1095565.75,NULL,Kreativität,ubunifu,d,NA,NA,NA,NA,qt,NA,3,NA,NA,NA,NA,NA,NA,NA,NA,NA,NA,NA,NA,NA,NA,NA,NA,NA,NA,NA
296000000,shallow,flow.Sequence,3_0_3_0_0_1,NA,NA,skipped,NA,1095550.4,NA,NA,1095548.817,1095550.6,2023-04-08T14:01:09Z,1095565.75,NULL,Kreativität,ubunifu,d,NA,NA,NA,NA,qt,NA,3,NA,NA,NA,NA,NA,NA,NA,NA,NA,NA,NA,NA,NA,NA,NA,NA,NA,NA,NA
296000000,task,flow.Sequence,3_0_3_0_0,NA,NA,completion,41333.092,1054215.2,1054182.661,1054215.725,1095548.817,1095550.8,2023-04-08T14:01:09Z,1095565.75,NULL,Kreativität,ubunifu,d,NA,NA,NA,NA,qt,NA,3,NA,NA,NA,NA,NA,NA,NA,NA,NA,NA,NA,NA,NA,NA,NA,NA,NA,NA,NA
296000000,Deep Question,html.Page,3_0_3_0_1_0_0,NA,NA,form submission,15586.350000024,1095551,1095548.817,1095565.75,1111152.1,1111153.1,2023-04-08T14:01:24Z,1111152.426,NULL,Orientierung,urekebisho,d,NA,NA,NA,ukenisha,NA,NA,3,NA,NA,NA,NA,NA,NA,NA,NA,NA,NA,NA,NA,NA,NA,NA,NA,NA,NA,NA
296000000,"""Richtig""-Screen",canvas.Screen,3_0_3_0_1_0_1,NA,NA,skipped,NA,1111156.4,NA,NA,1111152.1,1111156.5,2023-04-08T14:01:24Z,1111152.426,NULL,Orientierung,urekebisho,d,NA,NA,NA,NA,qt,NA,3,NA,NA,NA,NA,NA,NA,NA,NA,NA,NA,NA,NA,NA,NA,NA,NA,NA,NA,NA
296000000,"""Falsch""-Screen",canvas.Screen,3_0_3_0_1_0_2,NA,NA,timeout,4996.368,1111157,1111136.366,1111152.426,1116131.693,1116133.1,2023-04-08T14:01:29Z,1116148.794,NULL,Orientierung,urekebisho,d,NA,NA,NA,NA,qt,0,3,NA,NA,NA,NA,NA,NA,NA,NA,NA,NA,NA,NA,NA,NA,NA,NA,NA,NA,NA
296000000,deep,flow.Sequence,3_0_3_0_1_0,NA,NA,completion,20565.943,1095551,1095548.817,1095565.75,1116131.693,1116133.4,2023-04-08T14:01:29Z,1116148.794,NULL,Orientierung,urekebisho,d,NA,NA,NA,NA,qt,NA,3,NA,NA,NA,NA,NA,NA,NA,NA,NA,NA,NA,NA,NA,NA,NA,NA,NA,NA,NA
296000000,shallow,flow.Sequence,3_0_3_0_1_1,NA,NA,skipped,NA,1116133.6,NA,NA,1116131.693,1116133.7,2023-04-08T14:01:29Z,1116148.794,NULL,Orientierung,urekebisho,d,NA,NA,NA,NA,qt,NA,3,NA,NA,NA,NA,NA,NA,NA,NA,NA,NA,NA,NA,NA,NA,NA,NA,NA,NA,NA
296000000,task,flow.Sequence,3_0_3_0_1,NA,NA,completion,20565.943,1095550.9,1095548.817,1095565.75,1116131.693,1116134,2023-04-08T14:01:29Z,1116148.794,NULL,Orientierung,urekebisho,d,NA,NA,NA,NA,qt,NA,3,NA,NA,NA,NA,NA,NA,NA,NA,NA,NA,NA,NA,NA,NA,NA,NA,NA,NA,NA
296000000,deep,flow.Sequence,3_0_3_0_2_0,NA,NA,skipped,NA,1116134.1,NA,NA,1116131.693,1116134.2,2023-04-08T14:01:29Z,1116148.794,NULL,Gefährdung,kuhatarisha,s,uchokozi,udhaifu,makorowezo,NA,qt,NA,3,NA,NA,NA,NA,NA,NA,NA,NA,NA,NA,NA,NA,NA,NA,NA,NA,NA,NA,NA
296000000,Shallow Question,html.Page,3_0_3_0_2_1_0,NA,NA,form submission,4655.9060000179,1116134.4,1116131.693,1116148.794,1120804.7,1120805.2,2023-04-08T14:01:34Z,1120811.101,NULL,Gefährdung,kuhatarisha,s,uchokozi,udhaifu,makorowezo,kuhatarisha,NA,NA,3,NA,NA,NA,NA,NA,NA,NA,NA,NA,NA,NA,NA,NA,NA,NA,NA,NA,NA,NA
296000000,"""Richtig""-Screen",canvas.Screen,3_0_3_0_2_1_1,NA,NA,timeout,4996.0959999999,1120808.7,1120794.456,1120811.101,1125790.9,1125791.7,2023-04-08T14:01:39Z,1125807.197,NULL,Gefährdung,kuhatarisha,s,uchokozi,udhaifu,makorowezo,NA,qt,1,3,NA,NA,NA,NA,NA,NA,NA,NA,NA,NA,NA,NA,NA,NA,NA,NA,NA,NA,NA
296000000,"""Falsch""-Screen",canvas.Screen,3_0_3_0_2_1_2,NA,NA,skipped,NA,1125797.2,NA,NA,1125790.9,1125797.5,2023-04-08T14:01:39Z,1125807.197,NULL,Gefährdung,kuhatarisha,s,uchokozi,udhaifu,makorowezo,NA,qt,NA,3,NA,NA,NA,NA,NA,NA,NA,NA,NA,NA,NA,NA,NA,NA,NA,NA,NA,NA,NA
296000000,shallow,flow.Sequence,3_0_3_0_2_1,NA,NA,completion,9642.1059999999,1116134.4,1116131.693,1116148.794,1125790.9,1125797.9,2023-04-08T14:01:39Z,1125807.197,NULL,Gefährdung,kuhatarisha,s,uchokozi,udhaifu,makorowezo,NA,qt,NA,3,NA,NA,NA,NA,NA,NA,NA,NA,NA,NA,NA,NA,NA,NA,NA,NA,NA,NA,NA
296000000,task,flow.Sequence,3_0_3_0_2,NA,NA,completion,9642.1059999999,1116134.1,1116131.693,1116148.794,1125790.9,1125798.1,2023-04-08T14:01:39Z,1125807.197,NULL,Gefährdung,kuhatarisha,s,uchokozi,udhaifu,makorowezo,NA,qt,NA,3,NA,NA,NA,NA,NA,NA,NA,NA,NA,NA,NA,NA,NA,NA,NA,NA,NA,NA,NA
296000000,Deep Question,html.Page,3_0_3_0_3_0_0,NA,NA,form submission,23395.903000024002,1125798.3,1125790.9,1125807.197,1149203.1,1149203.8,2023-04-08T14:02:02Z,1149204.527,NULL,Können,unaweza,d,NA,NA,NA,ugahria,NA,NA,3,NA,NA,NA,NA,NA,NA,NA,NA,NA,NA,NA,NA,NA,NA,NA,NA,NA,NA,NA
296000000,"""Richtig""-Screen",canvas.Screen,3_0_3_0_3_0_1,NA,NA,skipped,NA,1149210.9,NA,NA,1149203.1,1149211.1,2023-04-08T14:02:02Z,1149204.527,NULL,Können,unaweza,d,NA,NA,NA,NA,qt,NA,3,NA,NA,NA,NA,NA,NA,NA,NA,NA,NA,NA,NA,NA,NA,NA,NA,NA,NA,NA
296000000,"""Falsch""-Screen",canvas.Screen,3_0_3_0_3_0_2,NA,NA,timeout,4996.301,1149211.8,1149188.496,1149204.527,1154184.219,1154185.2,2023-04-08T14:02:07Z,1154200.828,NULL,Können,unaweza,d,NA,NA,NA,NA,qt,0,3,NA,NA,NA,NA,NA,NA,NA,NA,NA,NA,NA,NA,NA,NA,NA,NA,NA,NA,NA
296000000,deep,flow.Sequence,3_0_3_0_3_0,NA,NA,completion,28377.022,1125798.3,1125790.9,1125807.197,1154184.219,1154185.7,2023-04-08T14:02:07Z,1154200.828,NULL,Können,unaweza,d,NA,NA,NA,NA,qt,NA,3,NA,NA,NA,NA,NA,NA,NA,NA,NA,NA,NA,NA,NA,NA,NA,NA,NA,NA,NA
296000000,shallow,flow.Sequence,3_0_3_0_3_1,NA,NA,skipped,NA,1154185.8,NA,NA,1154184.219,1154186,2023-04-08T14:02:07Z,1154200.828,NULL,Können,unaweza,d,NA,NA,NA,NA,qt,NA,3,NA,NA,NA,NA,NA,NA,NA,NA,NA,NA,NA,NA,NA,NA,NA,NA,NA,NA,NA
296000000,task,flow.Sequence,3_0_3_0_3,NA,NA,completion,28377.022,1125798.2,1125790.9,1125807.197,1154184.219,1154186.2,2023-04-08T14:02:07Z,1154200.828,NULL,Können,unaweza,d,NA,NA,NA,NA,qt,NA,3,NA,NA,NA,NA,NA,NA,NA,NA,NA,NA,NA,NA,NA,NA,NA,NA,NA,NA,NA
296000000,deep,flow.Sequence,3_0_3_0_4_0,NA,NA,skipped,NA,1154186.4,NA,NA,1154184.219,1154186.5,2023-04-08T14:02:07Z,1154200.828,NULL,Betrüger,mdanganyifu,s,mwanamuziki,wastani,mahakama,NA,qt,NA,3,NA,NA,NA,NA,NA,NA,NA,NA,NA,NA,NA,NA,NA,NA,NA,NA,NA,NA,NA
296000000,Shallow Question,html.Page,3_0_3_0_4_1_0,NA,NA,form submission,10160.872000018,1154186.6,1154184.219,1154200.828,1164361.7,1164362.1,2023-04-08T14:02:18Z,1164375.403,NULL,Betrüger,mdanganyifu,s,mwanamuziki,wastani,mahakama,mdanganyifu,NA,NA,3,NA,NA,NA,NA,NA,NA,NA,NA,NA,NA,NA,NA,NA,NA,NA,NA,NA,NA,NA
296000000,"""Richtig""-Screen",canvas.Screen,3_0_3_0_4_1_1,NA,NA,timeout,4996.5930000001,1164367.9,1164359.3,1164375.403,1169354.715,1169355.7,2023-04-08T14:02:23Z,1169371.996,NULL,Betrüger,mdanganyifu,s,mwanamuziki,wastani,mahakama,NA,qt,1,3,NA,NA,NA,NA,NA,NA,NA,NA,NA,NA,NA,NA,NA,NA,NA,NA,NA,NA,NA
296000000,"""Falsch""-Screen",canvas.Screen,3_0_3_0_4_1_2,NA,NA,skipped,NA,1169360.9,NA,NA,1169354.715,1169360.9,2023-04-08T14:02:23Z,1169371.996,NULL,Betrüger,mdanganyifu,s,mwanamuziki,wastani,mahakama,NA,qt,NA,3,NA,NA,NA,NA,NA,NA,NA,NA,NA,NA,NA,NA,NA,NA,NA,NA,NA,NA,NA
296000000,shallow,flow.Sequence,3_0_3_0_4_1,NA,NA,completion,15153.887,1154186.6,1154184.219,1154200.828,1169354.715,1169361.1,2023-04-08T14:02:23Z,1169371.996,NULL,Betrüger,mdanganyifu,s,mwanamuziki,wastani,mahakama,NA,qt,NA,3,NA,NA,NA,NA,NA,NA,NA,NA,NA,NA,NA,NA,NA,NA,NA,NA,NA,NA,NA
296000000,task,flow.Sequence,3_0_3_0_4,NA,NA,completion,15153.887,1154186.4,1154184.219,1154200.828,1169354.715,1169361.2,2023-04-08T14:02:23Z,1169371.996,NULL,Betrüger,mdanganyifu,s,mwanamuziki,wastani,mahakama,NA,qt,NA,3,NA,NA,NA,NA,NA,NA,NA,NA,NA,NA,NA,NA,NA,NA,NA,NA,NA,NA,NA
296000000,deep,flow.Sequence,3_0_3_0_5_0,NA,NA,skipped,NA,1169361.2,NA,NA,1169354.715,1169361.3,2023-04-08T14:02:23Z,1169371.996,NULL,Stimmung,kinyongo,s,kilekile,kisambo,madhehebu,NA,qt,NA,3,NA,NA,NA,NA,NA,NA,NA,NA,NA,NA,NA,NA,NA,NA,NA,NA,NA,NA,NA
296000000,Shallow Question,html.Page,3_0_3_0_5_1_0,NA,NA,form submission,7775.7040000178,1169361.3,1169354.715,1169371.996,1177147.7,1177148.2,2023-04-08T14:02:30Z,1177148.259,NULL,Stimmung,kinyongo,s,kilekile,kisambo,madhehebu,kinyongo,NA,NA,3,NA,NA,NA,NA,NA,NA,NA,NA,NA,NA,NA,NA,NA,NA,NA,NA,NA,NA,NA
296000000,"""Richtig""-Screen",canvas.Screen,3_0_3_0_5_1_1,NA,NA,timeout,4995.892,1177151.6,1177131.658,1177148.259,1182127.561,1182129.1,2023-04-08T14:02:35Z,1182144.151,NULL,Stimmung,kinyongo,s,kilekile,kisambo,madhehebu,NA,qt,1,3,NA,NA,NA,NA,NA,NA,NA,NA,NA,NA,NA,NA,NA,NA,NA,NA,NA,NA,NA
296000000,"""Falsch""-Screen",canvas.Screen,3_0_3_0_5_1_2,NA,NA,skipped,NA,1182135,NA,NA,1182127.561,1182135.5,2023-04-08T14:02:35Z,1182144.151,NULL,Stimmung,kinyongo,s,kilekile,kisambo,madhehebu,NA,qt,NA,3,NA,NA,NA,NA,NA,NA,NA,NA,NA,NA,NA,NA,NA,NA,NA,NA,NA,NA,NA
296000000,shallow,flow.Sequence,3_0_3_0_5_1,NA,NA,completion,12755.565,1169361.3,1169354.715,1169371.996,1182127.561,1182135.8,2023-04-08T14:02:35Z,1182144.151,NULL,Stimmung,kinyongo,s,kilekile,kisambo,madhehebu,NA,qt,NA,3,NA,NA,NA,NA,NA,NA,NA,NA,NA,NA,NA,NA,NA,NA,NA,NA,NA,NA,NA
296000000,task,flow.Sequence,3_0_3_0_5,NA,NA,completion,12755.565,1169361.2,1169354.715,1169371.996,1182127.561,1182136.1,2023-04-08T14:02:35Z,1182144.151,NULL,Stimmung,kinyongo,s,kilekile,kisambo,madhehebu,NA,qt,NA,3,NA,NA,NA,NA,NA,NA,NA,NA,NA,NA,NA,NA,NA,NA,NA,NA,NA,NA,NA
296000000,Deep Question,html.Page,3_0_3_0_6_0_0,NA,NA,form submission,16315.849,1182136.3,1182127.561,1182144.151,1198460,1198460.6,2023-04-08T14:02:52Z,1198464.063,NULL,Respekt,heshima,d,NA,NA,NA,unkeshi,NA,NA,3,NA,NA,NA,NA,NA,NA,NA,NA,NA,NA,NA,NA,NA,NA,NA,NA,NA,NA,NA
296000000,"""Richtig""-Screen",canvas.Screen,3_0_3_0_6_0_1,NA,NA,skipped,NA,1198467.7,NA,NA,1198460,1198468,2023-04-08T14:02:52Z,1198464.063,NULL,Respekt,heshima,d,NA,NA,NA,NA,qt,NA,3,NA,NA,NA,NA,NA,NA,NA,NA,NA,NA,NA,NA,NA,NA,NA,NA,NA,NA,NA
296000000,"""Falsch""-Screen",canvas.Screen,3_0_3_0_6_0_2,NA,NA,timeout,4995.8759999999,1198469.8,1198448.134,1198464.063,1203443.672,1203445.4,2023-04-08T14:02:57Z,1203459.939,NULL,Respekt,heshima,d,NA,NA,NA,NA,qt,0,3,NA,NA,NA,NA,NA,NA,NA,NA,NA,NA,NA,NA,NA,NA,NA,NA,NA,NA,NA
296000000,deep,flow.Sequence,3_0_3_0_6_0,NA,NA,completion,21299.521,1182136.3,1182127.561,1182144.151,1203443.672,1203445.6,2023-04-08T14:02:57Z,1203459.939,NULL,Respekt,heshima,d,NA,NA,NA,NA,qt,NA,3,NA,NA,NA,NA,NA,NA,NA,NA,NA,NA,NA,NA,NA,NA,NA,NA,NA,NA,NA
296000000,shallow,flow.Sequence,3_0_3_0_6_1,NA,NA,skipped,NA,1203445.6,NA,NA,1203443.672,1203445.7,2023-04-08T14:02:57Z,1203459.939,NULL,Respekt,heshima,d,NA,NA,NA,NA,qt,NA,3,NA,NA,NA,NA,NA,NA,NA,NA,NA,NA,NA,NA,NA,NA,NA,NA,NA,NA,NA
296000000,task,flow.Sequence,3_0_3_0_6,NA,NA,completion,21299.521,1182136.1,1182127.561,1182144.151,1203443.672,1203445.9,2023-04-08T14:02:57Z,1203459.939,NULL,Respekt,heshima,d,NA,NA,NA,NA,qt,NA,3,NA,NA,NA,NA,NA,NA,NA,NA,NA,NA,NA,NA,NA,NA,NA,NA,NA,NA,NA
296000000,deep,flow.Sequence,3_0_3_0_7_0,NA,NA,skipped,NA,1203445.9,NA,NA,1203443.672,1203446.1,2023-04-08T14:02:57Z,1203459.939,NULL,Kontrolle,kudhibiti,s,mbinguni,kufunga,utegemezi,NA,qt,NA,3,NA,NA,NA,NA,NA,NA,NA,NA,NA,NA,NA,NA,NA,NA,NA,NA,NA,NA,NA
296000000,Shallow Question,html.Page,3_0_3_0_7_1_0,NA,NA,form submission,6354.1610000238,1203446.1,1203443.672,1203459.939,1209814.1,1209814.5,2023-04-08T14:03:03Z,1209821.335,NULL,Kontrolle,kudhibiti,s,mbinguni,kufunga,utegemezi,kudhibiti,NA,NA,3,NA,NA,NA,NA,NA,NA,NA,NA,NA,NA,NA,NA,NA,NA,NA,NA,NA,NA,NA
296000000,"""Richtig""-Screen",canvas.Screen,3_0_3_0_7_1_1,NA,NA,timeout,4996.49,1209818.7,1209805.43,1209821.335,1214801.224,1214801.8,2023-04-08T14:03:08Z,1214817.825,NULL,Kontrolle,kudhibiti,s,mbinguni,kufunga,utegemezi,NA,qt,1,3,NA,NA,NA,NA,NA,NA,NA,NA,NA,NA,NA,NA,NA,NA,NA,NA,NA,NA,NA
296000000,"""Falsch""-Screen",canvas.Screen,3_0_3_0_7_1_2,NA,NA,skipped,NA,1214804.9,NA,NA,1214801.224,1214805,2023-04-08T14:03:08Z,1214817.825,NULL,Kontrolle,kudhibiti,s,mbinguni,kufunga,utegemezi,NA,qt,NA,3,NA,NA,NA,NA,NA,NA,NA,NA,NA,NA,NA,NA,NA,NA,NA,NA,NA,NA,NA
296000000,shallow,flow.Sequence,3_0_3_0_7_1,NA,NA,completion,11341.285,1203446.1,1203443.672,1203459.939,1214801.224,1214805.3,2023-04-08T14:03:08Z,1214817.825,NULL,Kontrolle,kudhibiti,s,mbinguni,kufunga,utegemezi,NA,qt,NA,3,NA,NA,NA,NA,NA,NA,NA,NA,NA,NA,NA,NA,NA,NA,NA,NA,NA,NA,NA
296000000,task,flow.Sequence,3_0_3_0_7,NA,NA,completion,11341.285,1203445.9,1203443.672,1203459.939,1214801.224,1214805.4,2023-04-08T14:03:08Z,1214817.825,NULL,Kontrolle,kudhibiti,s,mbinguni,kufunga,utegemezi,NA,qt,NA,3,NA,NA,NA,NA,NA,NA,NA,NA,NA,NA,NA,NA,NA,NA,NA,NA,NA,NA,NA
296000000,block,flow.Loop,3_0_3_0,NA,NA,completion,160585.499,1054215.1,1054182.661,1054215.725,1214801.224,1214805.5,2023-04-08T14:03:08Z,1214817.825,NULL,NA,NA,NA,NA,NA,NA,NA,qt,NA,3,NA,NA,NA,NA,NA,NA,NA,NA,NA,NA,NA,NA,NA,NA,NA,NA,NA,NA,NA
296000000,weiter,canvas.Screen,3_0_3_1,sdf,keypress(Space),response,1083.475000012,1214805.6,1214801.224,1214817.825,1215901.3,1215902.9,2023-04-08T14:03:09Z,1215949.641,NULL,NA,NA,NA,NA,NA,NA,NA,qt,NA,3,NA,NA,NA,NA,NA,NA,NA,NA,NA,NA,NA,NA,NA,NA,NA,NA,NA,NA,NA
296000000,check continue,flow.Sequence,3_0_3,NA,NA,completion,161685.57500001,1054215.1,1054182.661,1054215.725,1215901.3,1215903.2,2023-04-08T14:03:09Z,1215949.641,NULL,NA,NA,NA,NA,NA,NA,NA,qt,NA,3,NA,NA,NA,NA,NA,NA,NA,NA,NA,NA,NA,NA,NA,NA,NA,NA,NA,NA,NA
296000000,Deep Question,html.Page,3_0_4_0_0_0_0,NA,NA,form submission,11603.359,1215951.9,1215900.204,1215949.641,1227553,1227553.5,2023-04-08T14:03:21Z,1227556.842,NULL,Kreativität,ubunifu,d,NA,NA,NA,heshiba,NA,NA,4,NA,NA,NA,NA,NA,NA,NA,NA,NA,NA,NA,NA,NA,NA,NA,NA,NA,NA,NA
296000000,"""Richtig""-Screen",canvas.Screen,3_0_4_0_0_0_1,NA,NA,skipped,NA,1227558.1,NA,NA,1227553,1227558.2,2023-04-08T14:03:21Z,1227556.842,NULL,Kreativität,ubunifu,d,NA,NA,NA,NA,sd,NA,4,NA,NA,NA,NA,NA,NA,NA,NA,NA,NA,NA,NA,NA,NA,NA,NA,NA,NA,NA
296000000,"""Falsch""-Screen",canvas.Screen,3_0_4_0_0_0_2,NA,NA,timeout,4996.156,1227558.9,1227540.521,1227556.842,1232536.142,1232537.5,2023-04-08T14:03:26Z,1232552.998,NULL,Kreativität,ubunifu,d,NA,NA,NA,NA,sd,0,4,NA,NA,NA,NA,NA,NA,NA,NA,NA,NA,NA,NA,NA,NA,NA,NA,NA,NA,NA
296000000,deep,flow.Sequence,3_0_4_0_0_0,NA,NA,completion,16586.501,1215951.6,1215900.204,1215949.641,1232536.142,1232537.8,2023-04-08T14:03:26Z,1232552.998,NULL,Kreativität,ubunifu,d,NA,NA,NA,NA,sd,NA,4,NA,NA,NA,NA,NA,NA,NA,NA,NA,NA,NA,NA,NA,NA,NA,NA,NA,NA,NA
296000000,shallow,flow.Sequence,3_0_4_0_0_1,NA,NA,skipped,NA,1232538,NA,NA,1232536.142,1232538.3,2023-04-08T14:03:26Z,1232552.998,NULL,Kreativität,ubunifu,d,NA,NA,NA,NA,sd,NA,4,NA,NA,NA,NA,NA,NA,NA,NA,NA,NA,NA,NA,NA,NA,NA,NA,NA,NA,NA
296000000,task,flow.Sequence,3_0_4_0_0,NA,NA,completion,16586.501,1215951.6,1215900.204,1215949.641,1232536.142,1232538.5,2023-04-08T14:03:26Z,1232552.998,NULL,Kreativität,ubunifu,d,NA,NA,NA,NA,sd,NA,4,NA,NA,NA,NA,NA,NA,NA,NA,NA,NA,NA,NA,NA,NA,NA,NA,NA,NA,NA
296000000,Deep Question,html.Page,3_0_4_0_1_0_0,NA,NA,form submission,7379.4020000061,1232538.7,1232536.142,1232552.998,1239932.4,1239933.2,2023-04-08T14:03:33Z,1239946.718,NULL,Können,unaweza,d,NA,NA,NA,heshiba,NA,NA,4,NA,NA,NA,NA,NA,NA,NA,NA,NA,NA,NA,NA,NA,NA,NA,NA,NA,NA,NA
296000000,"""Richtig""-Screen",canvas.Screen,3_0_4_0_1_0_1,NA,NA,skipped,NA,1239935.6,NA,NA,1239932.4,1239935.8,2023-04-08T14:03:33Z,1239946.718,NULL,Können,unaweza,d,NA,NA,NA,NA,sd,NA,4,NA,NA,NA,NA,NA,NA,NA,NA,NA,NA,NA,NA,NA,NA,NA,NA,NA,NA,NA
296000000,"""Falsch""-Screen",canvas.Screen,3_0_4_0_1_0_2,NA,NA,timeout,4996.338,1239936.4,1239930.582,1239946.718,1244926.322,1244927.3,2023-04-08T14:03:38Z,1244943.056,NULL,Können,unaweza,d,NA,NA,NA,NA,sd,0,4,NA,NA,NA,NA,NA,NA,NA,NA,NA,NA,NA,NA,NA,NA,NA,NA,NA,NA,NA
296000000,deep,flow.Sequence,3_0_4_0_1_0,NA,NA,completion,12373.324,1232538.6,1232536.142,1232552.998,1244926.322,1244927.7,2023-04-08T14:03:38Z,1244943.056,NULL,Können,unaweza,d,NA,NA,NA,NA,sd,NA,4,NA,NA,NA,NA,NA,NA,NA,NA,NA,NA,NA,NA,NA,NA,NA,NA,NA,NA,NA
296000000,shallow,flow.Sequence,3_0_4_0_1_1,NA,NA,skipped,NA,1244927.9,NA,NA,1244926.322,1244928,2023-04-08T14:03:38Z,1244943.056,NULL,Können,unaweza,d,NA,NA,NA,NA,sd,NA,4,NA,NA,NA,NA,NA,NA,NA,NA,NA,NA,NA,NA,NA,NA,NA,NA,NA,NA,NA
296000000,task,flow.Sequence,3_0_4_0_1,NA,NA,completion,12373.324,1232538.6,1232536.142,1232552.998,1244926.322,1244928.3,2023-04-08T14:03:38Z,1244943.056,NULL,Können,unaweza,d,NA,NA,NA,NA,sd,NA,4,NA,NA,NA,NA,NA,NA,NA,NA,NA,NA,NA,NA,NA,NA,NA,NA,NA,NA,NA
296000000,Deep Question,html.Page,3_0_4_0_2_0_0,NA,NA,form submission,6859.0440000237,1244928.6,1244926.322,1244943.056,1251802.1,1251802.3,2023-04-08T14:03:45Z,1251803.543,NULL,Orientierung,urekebisho,d,NA,NA,NA,heshiba,NA,NA,4,NA,NA,NA,NA,NA,NA,NA,NA,NA,NA,NA,NA,NA,NA,NA,NA,NA,NA,NA
296000000,"""Richtig""-Screen",canvas.Screen,3_0_4_0_2_0_1,NA,NA,skipped,NA,1251804.5,NA,NA,1251802.1,1251804.7,2023-04-08T14:03:45Z,1251803.543,NULL,Orientierung,urekebisho,d,NA,NA,NA,NA,sd,NA,4,NA,NA,NA,NA,NA,NA,NA,NA,NA,NA,NA,NA,NA,NA,NA,NA,NA,NA,NA
296000000,"""Falsch""-Screen",canvas.Screen,3_0_4_0_2_0_2,NA,NA,timeout,4996.703,1251805.3,1251787.384,1251803.543,1256783.102,1256785.2,2023-04-08T14:03:50Z,1256800.246,NULL,Orientierung,urekebisho,d,NA,NA,NA,NA,sd,0,4,NA,NA,NA,NA,NA,NA,NA,NA,NA,NA,NA,NA,NA,NA,NA,NA,NA,NA,NA
296000000,deep,flow.Sequence,3_0_4_0_2_0,NA,NA,completion,11840.046,1244928.5,1244926.322,1244943.056,1256783.102,1256785.7,2023-04-08T14:03:50Z,1256800.246,NULL,Orientierung,urekebisho,d,NA,NA,NA,NA,sd,NA,4,NA,NA,NA,NA,NA,NA,NA,NA,NA,NA,NA,NA,NA,NA,NA,NA,NA,NA,NA
296000000,shallow,flow.Sequence,3_0_4_0_2_1,NA,NA,skipped,NA,1256785.8,NA,NA,1256783.102,1256786,2023-04-08T14:03:50Z,1256800.246,NULL,Orientierung,urekebisho,d,NA,NA,NA,NA,sd,NA,4,NA,NA,NA,NA,NA,NA,NA,NA,NA,NA,NA,NA,NA,NA,NA,NA,NA,NA,NA
296000000,task,flow.Sequence,3_0_4_0_2,NA,NA,completion,11840.046,1244928.5,1244926.322,1244943.056,1256783.102,1256786.2,2023-04-08T14:03:50Z,1256800.246,NULL,Orientierung,urekebisho,d,NA,NA,NA,NA,sd,NA,4,NA,NA,NA,NA,NA,NA,NA,NA,NA,NA,NA,NA,NA,NA,NA,NA,NA,NA,NA
296000000,Deep Question,html.Page,3_0_4_0_3_0_0,NA,NA,form submission,6636.754,1256786.4,1256783.102,1256800.246,1263437,1263437.6,2023-04-08T14:03:57Z,1263443.994,NULL,Respekt,heshima,d,NA,NA,NA,heshiba,NA,NA,4,NA,NA,NA,NA,NA,NA,NA,NA,NA,NA,NA,NA,NA,NA,NA,NA,NA,NA,NA
296000000,"""Richtig""-Screen",canvas.Screen,3_0_4_0_3_0_1,NA,NA,skipped,NA,1263443.7,NA,NA,1263437,1263443.8,2023-04-08T14:03:57Z,1263443.994,NULL,Respekt,heshima,d,NA,NA,NA,NA,sd,NA,4,NA,NA,NA,NA,NA,NA,NA,NA,NA,NA,NA,NA,NA,NA,NA,NA,NA,NA,NA
296000000,"""Falsch""-Screen",canvas.Screen,3_0_4_0_3_0_2,NA,NA,timeout,4995.916,1263444.8,1263427.951,1263443.994,1268423.691,1268425.8,2023-04-08T14:04:02Z,1268439.91,NULL,Respekt,heshima,d,NA,NA,NA,NA,sd,0,4,NA,NA,NA,NA,NA,NA,NA,NA,NA,NA,NA,NA,NA,NA,NA,NA,NA,NA,NA
296000000,deep,flow.Sequence,3_0_4_0_3_0,NA,NA,completion,11623.445,1256786.4,1256783.102,1256800.246,1268423.691,1268425.9,2023-04-08T14:04:02Z,1268439.91,NULL,Respekt,heshima,d,NA,NA,NA,NA,sd,NA,4,NA,NA,NA,NA,NA,NA,NA,NA,NA,NA,NA,NA,NA,NA,NA,NA,NA,NA,NA
296000000,shallow,flow.Sequence,3_0_4_0_3_1,NA,NA,skipped,NA,1268426,NA,NA,1268423.691,1268426.1,2023-04-08T14:04:02Z,1268439.91,NULL,Respekt,heshima,d,NA,NA,NA,NA,sd,NA,4,NA,NA,NA,NA,NA,NA,NA,NA,NA,NA,NA,NA,NA,NA,NA,NA,NA,NA,NA
296000000,task,flow.Sequence,3_0_4_0_3,NA,NA,completion,11623.445,1256786.4,1256783.102,1256800.246,1268423.691,1268426.2,2023-04-08T14:04:02Z,1268439.91,NULL,Respekt,heshima,d,NA,NA,NA,NA,sd,NA,4,NA,NA,NA,NA,NA,NA,NA,NA,NA,NA,NA,NA,NA,NA,NA,NA,NA,NA,NA
296000000,deep,flow.Sequence,3_0_4_0_4_0,NA,NA,skipped,NA,1268426.2,NA,NA,1268423.691,1268426.3,2023-04-08T14:04:02Z,1268439.91,NULL,Gefährdung,kuhatarisha,s,uchokozi,udhaifu,makorowezo,NA,sd,NA,4,NA,NA,NA,NA,NA,NA,NA,NA,NA,NA,NA,NA,NA,NA,NA,NA,NA,NA,NA
296000000,Shallow Question,html.Page,3_0_4_0_4_1_0,NA,NA,form submission,6079.6900000239,1268426.3,1268423.691,1268439.91,1274519.6,1274519.8,2023-04-08T14:04:08Z,1274534.943,NULL,Gefährdung,kuhatarisha,s,uchokozi,udhaifu,makorowezo,kuhatarisha,NA,NA,4,NA,NA,NA,NA,NA,NA,NA,NA,NA,NA,NA,NA,NA,NA,NA,NA,NA,NA,NA
296000000,"""Richtig""-Screen",canvas.Screen,3_0_4_0_4_1_1,NA,NA,timeout,4996.308,1274521.7,1274518.856,1274534.943,1279514.248,1279515.3,2023-04-08T14:04:13Z,1279531.251,NULL,Gefährdung,kuhatarisha,s,uchokozi,udhaifu,makorowezo,NA,sd,1,4,NA,NA,NA,NA,NA,NA,NA,NA,NA,NA,NA,NA,NA,NA,NA,NA,NA,NA,NA
296000000,"""Falsch""-Screen",canvas.Screen,3_0_4_0_4_1_2,NA,NA,skipped,NA,1279519.8,NA,NA,1279514.248,1279519.9,2023-04-08T14:04:13Z,1279531.251,NULL,Gefährdung,kuhatarisha,s,uchokozi,udhaifu,makorowezo,NA,sd,NA,4,NA,NA,NA,NA,NA,NA,NA,NA,NA,NA,NA,NA,NA,NA,NA,NA,NA,NA,NA
296000000,shallow,flow.Sequence,3_0_4_0_4_1,NA,NA,completion,11074.338,1268426.3,1268423.691,1268439.91,1279514.248,1279519.9,2023-04-08T14:04:13Z,1279531.251,NULL,Gefährdung,kuhatarisha,s,uchokozi,udhaifu,makorowezo,NA,sd,NA,4,NA,NA,NA,NA,NA,NA,NA,NA,NA,NA,NA,NA,NA,NA,NA,NA,NA,NA,NA
296000000,task,flow.Sequence,3_0_4_0_4,NA,NA,completion,11074.338,1268426.2,1268423.691,1268439.91,1279514.248,1279520.1,2023-04-08T14:04:13Z,1279531.251,NULL,Gefährdung,kuhatarisha,s,uchokozi,udhaifu,makorowezo,NA,sd,NA,4,NA,NA,NA,NA,NA,NA,NA,NA,NA,NA,NA,NA,NA,NA,NA,NA,NA,NA,NA
296000000,deep,flow.Sequence,3_0_4_0_5_0,NA,NA,skipped,NA,1279520.1,NA,NA,1279514.248,1279520.1,2023-04-08T14:04:13Z,1279531.251,NULL,Betrüger,mdanganyifu,s,mwanamuziki,wastani,mahakama,NA,sd,NA,4,NA,NA,NA,NA,NA,NA,NA,NA,NA,NA,NA,NA,NA,NA,NA,NA,NA,NA,NA
296000000,Shallow Question,html.Page,3_0_4_0_5_1_0,NA,NA,form submission,4194.149000006,1279520.2,1279514.248,1279531.251,1283725.4,1283726.1,2023-04-08T14:04:17Z,1283727.38,NULL,Betrüger,mdanganyifu,s,mwanamuziki,wastani,mahakama,mdanganyifu,NA,NA,4,NA,NA,NA,NA,NA,NA,NA,NA,NA,NA,NA,NA,NA,NA,NA,NA,NA,NA,NA
296000000,"""Richtig""-Screen",canvas.Screen,3_0_4_0_5_1_1,NA,NA,timeout,4995.8640000001,1283728.8,1283711.315,1283727.38,1288706.885,1288709.1,2023-04-08T14:04:22Z,1288723.244,NULL,Betrüger,mdanganyifu,s,mwanamuziki,wastani,mahakama,NA,sd,1,4,NA,NA,NA,NA,NA,NA,NA,NA,NA,NA,NA,NA,NA,NA,NA,NA,NA,NA,NA
296000000,"""Falsch""-Screen",canvas.Screen,3_0_4_0_5_1_2,NA,NA,skipped,NA,1288714.2,NA,NA,1288706.885,1288714.4,2023-04-08T14:04:22Z,1288723.244,NULL,Betrüger,mdanganyifu,s,mwanamuziki,wastani,mahakama,NA,sd,NA,4,NA,NA,NA,NA,NA,NA,NA,NA,NA,NA,NA,NA,NA,NA,NA,NA,NA,NA,NA
296000000,shallow,flow.Sequence,3_0_4_0_5_1,NA,NA,completion,9175.6340000001,1279520.2,1279514.248,1279531.251,1288706.885,1288714.5,2023-04-08T14:04:22Z,1288723.244,NULL,Betrüger,mdanganyifu,s,mwanamuziki,wastani,mahakama,NA,sd,NA,4,NA,NA,NA,NA,NA,NA,NA,NA,NA,NA,NA,NA,NA,NA,NA,NA,NA,NA,NA
296000000,task,flow.Sequence,3_0_4_0_5,NA,NA,completion,9175.6340000001,1279520.1,1279514.248,1279531.251,1288706.885,1288714.6,2023-04-08T14:04:22Z,1288723.244,NULL,Betrüger,mdanganyifu,s,mwanamuziki,wastani,mahakama,NA,sd,NA,4,NA,NA,NA,NA,NA,NA,NA,NA,NA,NA,NA,NA,NA,NA,NA,NA,NA,NA,NA
296000000,deep,flow.Sequence,3_0_4_0_6_0,NA,NA,skipped,NA,1288714.7,NA,NA,1288706.885,1288714.7,2023-04-08T14:04:22Z,1288723.244,NULL,Stimmung,kinyongo,s,kilekile,kisambo,madhehebu,NA,sd,NA,4,NA,NA,NA,NA,NA,NA,NA,NA,NA,NA,NA,NA,NA,NA,NA,NA,NA,NA,NA
296000000,Shallow Question,html.Page,3_0_4_0_6_1_0,NA,NA,form submission,4178.156000006,1288714.7,1288706.885,1288723.244,1292901.4,1292901.9,2023-04-08T14:04:26Z,1292903.277,NULL,Stimmung,kinyongo,s,kilekile,kisambo,madhehebu,kinyongo,NA,NA,4,NA,NA,NA,NA,NA,NA,NA,NA,NA,NA,NA,NA,NA,NA,NA,NA,NA,NA,NA
296000000,"""Richtig""-Screen",canvas.Screen,3_0_4_0_6_1_1,NA,NA,timeout,4996.405,1292907.7,1292886.907,1292903.277,1297882.447,1297884.5,2023-04-08T14:04:31Z,1297899.682,NULL,Stimmung,kinyongo,s,kilekile,kisambo,madhehebu,NA,sd,1,4,NA,NA,NA,NA,NA,NA,NA,NA,NA,NA,NA,NA,NA,NA,NA,NA,NA,NA,NA
296000000,"""Falsch""-Screen",canvas.Screen,3_0_4_0_6_1_2,NA,NA,skipped,NA,1297886.7,NA,NA,1297882.447,1297886.8,2023-04-08T14:04:31Z,1297899.682,NULL,Stimmung,kinyongo,s,kilekile,kisambo,madhehebu,NA,sd,NA,4,NA,NA,NA,NA,NA,NA,NA,NA,NA,NA,NA,NA,NA,NA,NA,NA,NA,NA,NA
296000000,shallow,flow.Sequence,3_0_4_0_6_1,NA,NA,completion,9159.203,1288714.7,1288706.885,1288723.244,1297882.447,1297886.9,2023-04-08T14:04:31Z,1297899.682,NULL,Stimmung,kinyongo,s,kilekile,kisambo,madhehebu,NA,sd,NA,4,NA,NA,NA,NA,NA,NA,NA,NA,NA,NA,NA,NA,NA,NA,NA,NA,NA,NA,NA
296000000,task,flow.Sequence,3_0_4_0_6,NA,NA,completion,9159.203,1288714.7,1288706.885,1288723.244,1297882.447,1297887,2023-04-08T14:04:31Z,1297899.682,NULL,Stimmung,kinyongo,s,kilekile,kisambo,madhehebu,NA,sd,NA,4,NA,NA,NA,NA,NA,NA,NA,NA,NA,NA,NA,NA,NA,NA,NA,NA,NA,NA,NA
296000000,deep,flow.Sequence,3_0_4_0_7_0,NA,NA,skipped,NA,1297887.1,NA,NA,1297882.447,1297887.2,2023-04-08T14:04:31Z,1297899.682,NULL,Kontrolle,kudhibiti,s,mbinguni,kufunga,utegemezi,NA,sd,NA,4,NA,NA,NA,NA,NA,NA,NA,NA,NA,NA,NA,NA,NA,NA,NA,NA,NA,NA,NA
296000000,Shallow Question,html.Page,3_0_4_0_7_1_0,NA,NA,form submission,7445.6180000119,1297887.3,1297882.447,1297899.682,1305345.3,1305345.8,2023-04-08T14:04:39Z,1305359.582,NULL,Kontrolle,kudhibiti,s,mbinguni,kufunga,utegemezi,kudhibiti,NA,NA,4,NA,NA,NA,NA,NA,NA,NA,NA,NA,NA,NA,NA,NA,NA,NA,NA,NA,NA,NA
296000000,"""Richtig""-Screen",canvas.Screen,3_0_4_0_7_1_1,NA,NA,timeout,4996.0120000001,1305351.4,1305343.022,1305359.582,1310339.215,1310340.2,2023-04-08T14:04:44Z,1310355.594,NULL,Kontrolle,kudhibiti,s,mbinguni,kufunga,utegemezi,NA,sd,1,4,NA,NA,NA,NA,NA,NA,NA,NA,NA,NA,NA,NA,NA,NA,NA,NA,NA,NA,NA
296000000,"""Falsch""-Screen",canvas.Screen,3_0_4_0_7_1_2,NA,NA,skipped,NA,1310345.6,NA,NA,1310339.215,1310345.9,2023-04-08T14:04:44Z,1310355.594,NULL,Kontrolle,kudhibiti,s,mbinguni,kufunga,utegemezi,NA,sd,NA,4,NA,NA,NA,NA,NA,NA,NA,NA,NA,NA,NA,NA,NA,NA,NA,NA,NA,NA,NA
296000000,shallow,flow.Sequence,3_0_4_0_7_1,NA,NA,completion,12439.533,1297887.2,1297882.447,1297899.682,1310339.215,1310346.3,2023-04-08T14:04:44Z,1310355.594,NULL,Kontrolle,kudhibiti,s,mbinguni,kufunga,utegemezi,NA,sd,NA,4,NA,NA,NA,NA,NA,NA,NA,NA,NA,NA,NA,NA,NA,NA,NA,NA,NA,NA,NA
296000000,task,flow.Sequence,3_0_4_0_7,NA,NA,completion,12439.533,1297887.1,1297882.447,1297899.682,1310339.215,1310346.5,2023-04-08T14:04:44Z,1310355.594,NULL,Kontrolle,kudhibiti,s,mbinguni,kufunga,utegemezi,NA,sd,NA,4,NA,NA,NA,NA,NA,NA,NA,NA,NA,NA,NA,NA,NA,NA,NA,NA,NA,NA,NA
296000000,block,flow.Loop,3_0_4_0,NA,NA,completion,94389.574,1215951.6,1215900.204,1215949.641,1310339.215,1310346.8,2023-04-08T14:04:44Z,1310355.594,NULL,NA,NA,NA,NA,NA,NA,NA,sd,NA,4,NA,NA,NA,NA,NA,NA,NA,NA,NA,NA,NA,NA,NA,NA,NA,NA,NA,NA,NA
296000000,weiter,canvas.Screen,3_0_4_1,sdf,keypress(Space),response,1104.406,1310346.9,1310339.215,1310355.594,1311460,1311461.7,2023-04-08T14:04:45Z,1311487.919,NULL,NA,NA,NA,NA,NA,NA,NA,sd,NA,4,NA,NA,NA,NA,NA,NA,NA,NA,NA,NA,NA,NA,NA,NA,NA,NA,NA,NA,NA
296000000,check continue,flow.Sequence,3_0_4,NA,NA,completion,95510.359,1215951.5,1215900.204,1215949.641,1311460,1311462,2023-04-08T14:04:45Z,1311487.919,NULL,NA,NA,NA,NA,NA,NA,NA,sd,NA,4,NA,NA,NA,NA,NA,NA,NA,NA,NA,NA,NA,NA,NA,NA,NA,NA,NA,NA,NA
296000000,deep,flow.Sequence,3_0_5_0_0_0,NA,NA,skipped,NA,1311496.7,NA,NA,1311460,1311496.9,2023-04-08T14:04:45Z,1311487.919,NULL,Gefährdung,kuhatarisha,s,uchokozi,udhaifu,makorowezo,NA,sdf,NA,5,NA,NA,NA,NA,NA,NA,NA,NA,NA,NA,NA,NA,NA,NA,NA,NA,NA,NA,NA
296000000,Shallow Question,html.Page,3_0_5_0_0_1_0,NA,NA,form submission,4608.1810000238,1311497,1311455.006,1311487.919,1316096.1,1316096.4,2023-04-08T14:04:49Z,1316100.778,NULL,Gefährdung,kuhatarisha,s,uchokozi,udhaifu,makorowezo,kuhatarisha,NA,NA,5,NA,NA,NA,NA,NA,NA,NA,NA,NA,NA,NA,NA,NA,NA,NA,NA,NA,NA,NA
296000000,"""Richtig""-Screen",canvas.Screen,3_0_5_0_0_1_1,NA,NA,timeout,4996.1100000001,1316099.2,1316084.728,1316100.778,1321080.572,1321081.5,2023-04-08T14:04:54Z,1321096.888,NULL,Gefährdung,kuhatarisha,s,uchokozi,udhaifu,makorowezo,NA,sdf,1,5,NA,NA,NA,NA,NA,NA,NA,NA,NA,NA,NA,NA,NA,NA,NA,NA,NA,NA,NA
296000000,"""Falsch""-Screen",canvas.Screen,3_0_5_0_0_1_2,NA,NA,skipped,NA,1321087.3,NA,NA,1321080.572,1321087.7,2023-04-08T14:04:54Z,1321096.888,NULL,Gefährdung,kuhatarisha,s,uchokozi,udhaifu,makorowezo,NA,sdf,NA,5,NA,NA,NA,NA,NA,NA,NA,NA,NA,NA,NA,NA,NA,NA,NA,NA,NA,NA,NA
296000000,shallow,flow.Sequence,3_0_5_0_0_1,NA,NA,completion,9592.6529999999,1311496.9,1311455.006,1311487.919,1321080.572,1321088.1,2023-04-08T14:04:54Z,1321096.888,NULL,Gefährdung,kuhatarisha,s,uchokozi,udhaifu,makorowezo,NA,sdf,NA,5,NA,NA,NA,NA,NA,NA,NA,NA,NA,NA,NA,NA,NA,NA,NA,NA,NA,NA,NA
296000000,task,flow.Sequence,3_0_5_0_0,NA,NA,completion,9592.6529999999,1311496.7,1311455.006,1311487.919,1321080.572,1321088.3,2023-04-08T14:04:54Z,1321096.888,NULL,Gefährdung,kuhatarisha,s,uchokozi,udhaifu,makorowezo,NA,sdf,NA,5,NA,NA,NA,NA,NA,NA,NA,NA,NA,NA,NA,NA,NA,NA,NA,NA,NA,NA,NA
296000000,Deep Question,html.Page,3_0_5_0_1_0_0,NA,NA,form submission,5564.4120000119,1321088.6,1321080.572,1321096.888,1326661.3,1326661.9,2023-04-08T14:05:00Z,1326675.811,NULL,Orientierung,urekebisho,d,NA,NA,NA,henshima,NA,NA,5,NA,NA,NA,NA,NA,NA,NA,NA,NA,NA,NA,NA,NA,NA,NA,NA,NA,NA,NA
296000000,"""Richtig""-Screen",canvas.Screen,3_0_5_0_1_0_1,NA,NA,skipped,NA,1326664.7,NA,NA,1326661.3,1326664.8,2023-04-08T14:05:00Z,1326675.811,NULL,Orientierung,urekebisho,d,NA,NA,NA,NA,sdf,NA,5,NA,NA,NA,NA,NA,NA,NA,NA,NA,NA,NA,NA,NA,NA,NA,NA,NA,NA,NA
296000000,"""Falsch""-Screen",canvas.Screen,3_0_5_0_1_0_2,NA,NA,timeout,4995.5120000001,1326665.4,1326659.389,1326675.811,1331654.913,1331655.8,2023-04-08T14:05:05Z,1331671.323,NULL,Orientierung,urekebisho,d,NA,NA,NA,NA,sdf,0,5,NA,NA,NA,NA,NA,NA,NA,NA,NA,NA,NA,NA,NA,NA,NA,NA,NA,NA,NA
296000000,deep,flow.Sequence,3_0_5_0_1_0,NA,NA,completion,10558.025,1321088.6,1321080.572,1321096.888,1331654.913,1331656.2,2023-04-08T14:05:05Z,1331671.323,NULL,Orientierung,urekebisho,d,NA,NA,NA,NA,sdf,NA,5,NA,NA,NA,NA,NA,NA,NA,NA,NA,NA,NA,NA,NA,NA,NA,NA,NA,NA,NA
296000000,shallow,flow.Sequence,3_0_5_0_1_1,NA,NA,skipped,NA,1331656.4,NA,NA,1331654.913,1331656.6,2023-04-08T14:05:05Z,1331671.323,NULL,Orientierung,urekebisho,d,NA,NA,NA,NA,sdf,NA,5,NA,NA,NA,NA,NA,NA,NA,NA,NA,NA,NA,NA,NA,NA,NA,NA,NA,NA,NA
296000000,task,flow.Sequence,3_0_5_0_1,NA,NA,completion,10558.025,1321088.5,1321080.572,1321096.888,1331654.913,1331656.8,2023-04-08T14:05:05Z,1331671.323,NULL,Orientierung,urekebisho,d,NA,NA,NA,NA,sdf,NA,5,NA,NA,NA,NA,NA,NA,NA,NA,NA,NA,NA,NA,NA,NA,NA,NA,NA,NA,NA
296000000,deep,flow.Sequence,3_0_5_0_2_0,NA,NA,skipped,NA,1331657,NA,NA,1331654.913,1331657.1,2023-04-08T14:05:05Z,1331671.323,NULL,Betrüger,mdanganyifu,s,mwanamuziki,wastani,mahakama,NA,sdf,NA,5,NA,NA,NA,NA,NA,NA,NA,NA,NA,NA,NA,NA,NA,NA,NA,NA,NA,NA,NA
296000000,Shallow Question,html.Page,3_0_5_0_2_1_0,NA,NA,form submission,4704.7770000238,1331657.3,1331654.913,1331671.323,1336376.1,1336376.2,2023-04-08T14:05:10Z,1336384.22,NULL,Betrüger,mdanganyifu,s,mwanamuziki,wastani,mahakama,mdanganyifu,NA,NA,5,NA,NA,NA,NA,NA,NA,NA,NA,NA,NA,NA,NA,NA,NA,NA,NA,NA,NA,NA
296000000,"""Richtig""-Screen",canvas.Screen,3_0_5_0_2_1_1,NA,NA,timeout,4995.915,1336378,1336368.028,1336384.22,1341363.857,1341364.9,2023-04-08T14:05:15Z,1341380.135,NULL,Betrüger,mdanganyifu,s,mwanamuziki,wastani,mahakama,NA,sdf,1,5,NA,NA,NA,NA,NA,NA,NA,NA,NA,NA,NA,NA,NA,NA,NA,NA,NA,NA,NA
296000000,"""Falsch""-Screen",canvas.Screen,3_0_5_0_2_1_2,NA,NA,skipped,NA,1341371,NA,NA,1341363.857,1341371.2,2023-04-08T14:05:15Z,1341380.135,NULL,Betrüger,mdanganyifu,s,mwanamuziki,wastani,mahakama,NA,sdf,NA,5,NA,NA,NA,NA,NA,NA,NA,NA,NA,NA,NA,NA,NA,NA,NA,NA,NA,NA,NA
296000000,shallow,flow.Sequence,3_0_5_0_2_1,NA,NA,completion,9692.534,1331657.3,1331654.913,1331671.323,1341363.857,1341371.7,2023-04-08T14:05:15Z,1341380.135,NULL,Betrüger,mdanganyifu,s,mwanamuziki,wastani,mahakama,NA,sdf,NA,5,NA,NA,NA,NA,NA,NA,NA,NA,NA,NA,NA,NA,NA,NA,NA,NA,NA,NA,NA
296000000,task,flow.Sequence,3_0_5_0_2,NA,NA,completion,9692.534,1331657,1331654.913,1331671.323,1341363.857,1341371.9,2023-04-08T14:05:15Z,1341380.135,NULL,Betrüger,mdanganyifu,s,mwanamuziki,wastani,mahakama,NA,sdf,NA,5,NA,NA,NA,NA,NA,NA,NA,NA,NA,NA,NA,NA,NA,NA,NA,NA,NA,NA,NA
296000000,Deep Question,html.Page,3_0_5_0_3_0_0,NA,NA,form submission,5198.265000006,1341372.2,1341363.857,1341380.135,1346578.4,1346579.1,2023-04-08T14:05:20Z,1346592.467,NULL,Können,unaweza,d,NA,NA,NA,henshima,NA,NA,5,NA,NA,NA,NA,NA,NA,NA,NA,NA,NA,NA,NA,NA,NA,NA,NA,NA,NA,NA
296000000,"""Richtig""-Screen",canvas.Screen,3_0_5_0_3_0_1,NA,NA,skipped,NA,1346581.6,NA,NA,1346578.4,1346581.7,2023-04-08T14:05:20Z,1346592.467,NULL,Können,unaweza,d,NA,NA,NA,NA,sdf,NA,5,NA,NA,NA,NA,NA,NA,NA,NA,NA,NA,NA,NA,NA,NA,NA,NA,NA,NA,NA
296000000,"""Falsch""-Screen",canvas.Screen,3_0_5_0_3_0_2,NA,NA,timeout,4996.193,1346582.9,1346576.382,1346592.467,1351572.423,1351573,2023-04-08T14:05:25Z,1351588.66,NULL,Können,unaweza,d,NA,NA,NA,NA,sdf,0,5,NA,NA,NA,NA,NA,NA,NA,NA,NA,NA,NA,NA,NA,NA,NA,NA,NA,NA,NA
296000000,deep,flow.Sequence,3_0_5_0_3_0,NA,NA,completion,10192.288,1341372.2,1341363.857,1341380.135,1351572.423,1351573.2,2023-04-08T14:05:25Z,1351588.66,NULL,Können,unaweza,d,NA,NA,NA,NA,sdf,NA,5,NA,NA,NA,NA,NA,NA,NA,NA,NA,NA,NA,NA,NA,NA,NA,NA,NA,NA,NA
296000000,shallow,flow.Sequence,3_0_5_0_3_1,NA,NA,skipped,NA,1351573.3,NA,NA,1351572.423,1351573.4,2023-04-08T14:05:25Z,1351588.66,NULL,Können,unaweza,d,NA,NA,NA,NA,sdf,NA,5,NA,NA,NA,NA,NA,NA,NA,NA,NA,NA,NA,NA,NA,NA,NA,NA,NA,NA,NA
296000000,task,flow.Sequence,3_0_5_0_3,NA,NA,completion,10192.288,1341372.1,1341363.857,1341380.135,1351572.423,1351573.5,2023-04-08T14:05:25Z,1351588.66,NULL,Können,unaweza,d,NA,NA,NA,NA,sdf,NA,5,NA,NA,NA,NA,NA,NA,NA,NA,NA,NA,NA,NA,NA,NA,NA,NA,NA,NA,NA
296000000,deep,flow.Sequence,3_0_5_0_4_0,NA,NA,skipped,NA,1351573.5,NA,NA,1351572.423,1351573.6,2023-04-08T14:05:25Z,1351588.66,NULL,Stimmung,kinyongo,s,kilekile,kisambo,madhehebu,NA,sdf,NA,5,NA,NA,NA,NA,NA,NA,NA,NA,NA,NA,NA,NA,NA,NA,NA,NA,NA,NA,NA
296000000,Shallow Question,html.Page,3_0_5_0_4_1_0,NA,NA,form submission,4281.8400000001,1351573.6,1351572.423,1351588.66,1355870.5,1355870.9,2023-04-08T14:05:29Z,1355884.939,NULL,Stimmung,kinyongo,s,kilekile,kisambo,madhehebu,kinyongo,NA,NA,5,NA,NA,NA,NA,NA,NA,NA,NA,NA,NA,NA,NA,NA,NA,NA,NA,NA,NA,NA
296000000,"""Richtig""-Screen",canvas.Screen,3_0_5_0_4_1_1,NA,NA,timeout,4995.7830000001,1355875.2,1355868.832,1355884.939,1360864.622,1360865.2,2023-04-08T14:05:34Z,1360880.722,NULL,Stimmung,kinyongo,s,kilekile,kisambo,madhehebu,NA,sdf,1,5,NA,NA,NA,NA,NA,NA,NA,NA,NA,NA,NA,NA,NA,NA,NA,NA,NA,NA,NA
296000000,"""Falsch""-Screen",canvas.Screen,3_0_5_0_4_1_2,NA,NA,skipped,NA,1360867.6,NA,NA,1360864.622,1360867.8,2023-04-08T14:05:34Z,1360880.722,NULL,Stimmung,kinyongo,s,kilekile,kisambo,madhehebu,NA,sdf,NA,5,NA,NA,NA,NA,NA,NA,NA,NA,NA,NA,NA,NA,NA,NA,NA,NA,NA,NA,NA
296000000,shallow,flow.Sequence,3_0_5_0_4_1,NA,NA,completion,9275.9620000001,1351573.6,1351572.423,1351588.66,1360864.622,1360868,2023-04-08T14:05:34Z,1360880.722,NULL,Stimmung,kinyongo,s,kilekile,kisambo,madhehebu,NA,sdf,NA,5,NA,NA,NA,NA,NA,NA,NA,NA,NA,NA,NA,NA,NA,NA,NA,NA,NA,NA,NA
296000000,task,flow.Sequence,3_0_5_0_4,NA,NA,completion,9275.9620000001,1351573.5,1351572.423,1351588.66,1360864.622,1360868.1,2023-04-08T14:05:34Z,1360880.722,NULL,Stimmung,kinyongo,s,kilekile,kisambo,madhehebu,NA,sdf,NA,5,NA,NA,NA,NA,NA,NA,NA,NA,NA,NA,NA,NA,NA,NA,NA,NA,NA,NA,NA
296000000,deep,flow.Sequence,3_0_5_0_5_0,NA,NA,skipped,NA,1360868.2,NA,NA,1360864.622,1360868.3,2023-04-08T14:05:34Z,1360880.722,NULL,Kontrolle,kudhibiti,s,mbinguni,kufunga,utegemezi,NA,sdf,NA,5,NA,NA,NA,NA,NA,NA,NA,NA,NA,NA,NA,NA,NA,NA,NA,NA,NA,NA,NA
296000000,Shallow Question,html.Page,3_0_5_0_5_1_0,NA,NA,form submission,7887.1780000059,1360868.4,1360864.622,1360880.722,1368767.9,1368768.3,2023-04-08T14:05:42Z,1368774.211,NULL,Kontrolle,kudhibiti,s,mbinguni,kufunga,utegemezi,kudhibiti,NA,NA,5,NA,NA,NA,NA,NA,NA,NA,NA,NA,NA,NA,NA,NA,NA,NA,NA,NA,NA,NA
296000000,"""Richtig""-Screen",canvas.Screen,3_0_5_0_5_1_1,NA,NA,timeout,4995.9710000001,1368772.1,1368758.124,1368774.211,1373753.823,1373754.9,2023-04-08T14:05:47Z,1373770.182,NULL,Kontrolle,kudhibiti,s,mbinguni,kufunga,utegemezi,NA,sdf,1,5,NA,NA,NA,NA,NA,NA,NA,NA,NA,NA,NA,NA,NA,NA,NA,NA,NA,NA,NA
296000000,"""Falsch""-Screen",canvas.Screen,3_0_5_0_5_1_2,NA,NA,skipped,NA,1373760.3,NA,NA,1373753.823,1373760.5,2023-04-08T14:05:47Z,1373770.182,NULL,Kontrolle,kudhibiti,s,mbinguni,kufunga,utegemezi,NA,sdf,NA,5,NA,NA,NA,NA,NA,NA,NA,NA,NA,NA,NA,NA,NA,NA,NA,NA,NA,NA,NA
296000000,shallow,flow.Sequence,3_0_5_0_5_1,NA,NA,completion,12873.101,1360868.3,1360864.622,1360880.722,1373753.823,1373760.7,2023-04-08T14:05:47Z,1373770.182,NULL,Kontrolle,kudhibiti,s,mbinguni,kufunga,utegemezi,NA,sdf,NA,5,NA,NA,NA,NA,NA,NA,NA,NA,NA,NA,NA,NA,NA,NA,NA,NA,NA,NA,NA
296000000,task,flow.Sequence,3_0_5_0_5,NA,NA,completion,12873.101,1360868.2,1360864.622,1360880.722,1373753.823,1373760.8,2023-04-08T14:05:47Z,1373770.182,NULL,Kontrolle,kudhibiti,s,mbinguni,kufunga,utegemezi,NA,sdf,NA,5,NA,NA,NA,NA,NA,NA,NA,NA,NA,NA,NA,NA,NA,NA,NA,NA,NA,NA,NA
296000000,Deep Question,html.Page,3_0_5_0_6_0_0,NA,NA,form submission,5964.1180000119,1373760.8,1373753.823,1373770.182,1379734.3,1379734.9,2023-04-08T14:05:53Z,1379749.037,NULL,Respekt,heshima,d,NA,NA,NA,henshima,NA,NA,5,NA,NA,NA,NA,NA,NA,NA,NA,NA,NA,NA,NA,NA,NA,NA,NA,NA,NA,NA
296000000,"""Richtig""-Screen",canvas.Screen,3_0_5_0_6_0_1,NA,NA,skipped,NA,1379737.8,NA,NA,1379734.3,1379737.9,2023-04-08T14:05:53Z,1379749.037,NULL,Respekt,heshima,d,NA,NA,NA,NA,sdf,NA,5,NA,NA,NA,NA,NA,NA,NA,NA,NA,NA,NA,NA,NA,NA,NA,NA,NA,NA,NA
296000000,"""Falsch""-Screen",canvas.Screen,3_0_5_0_6_0_2,NA,NA,timeout,4995.939,1379738.4,1379732.148,1379749.037,1384728.189,1384729.1,2023-04-08T14:05:58Z,1384744.976,NULL,Respekt,heshima,d,NA,NA,NA,NA,sdf,0,5,NA,NA,NA,NA,NA,NA,NA,NA,NA,NA,NA,NA,NA,NA,NA,NA,NA,NA,NA
296000000,deep,flow.Sequence,3_0_5_0_6_0,NA,NA,completion,10958.007,1373760.8,1373753.823,1373770.182,1384728.189,1384729.5,2023-04-08T14:05:58Z,1384744.976,NULL,Respekt,heshima,d,NA,NA,NA,NA,sdf,NA,5,NA,NA,NA,NA,NA,NA,NA,NA,NA,NA,NA,NA,NA,NA,NA,NA,NA,NA,NA
296000000,shallow,flow.Sequence,3_0_5_0_6_1,NA,NA,skipped,NA,1384729.7,NA,NA,1384728.189,1384729.9,2023-04-08T14:05:58Z,1384744.976,NULL,Respekt,heshima,d,NA,NA,NA,NA,sdf,NA,5,NA,NA,NA,NA,NA,NA,NA,NA,NA,NA,NA,NA,NA,NA,NA,NA,NA,NA,NA
296000000,task,flow.Sequence,3_0_5_0_6,NA,NA,completion,10958.007,1373760.8,1373753.823,1373770.182,1384728.189,1384730.1,2023-04-08T14:05:58Z,1384744.976,NULL,Respekt,heshima,d,NA,NA,NA,NA,sdf,NA,5,NA,NA,NA,NA,NA,NA,NA,NA,NA,NA,NA,NA,NA,NA,NA,NA,NA,NA,NA
296000000,Deep Question,html.Page,3_0_5_0_7_0_0,NA,NA,form submission,6547.024,1384730.3,1384728.189,1384744.976,1391292,1391292.7,2023-04-08T14:06:04Z,1391305.71,NULL,Kreativität,ubunifu,d,NA,NA,NA,ughara,NA,NA,5,NA,NA,NA,NA,NA,NA,NA,NA,NA,NA,NA,NA,NA,NA,NA,NA,NA,NA,NA
296000000,"""Richtig""-Screen",canvas.Screen,3_0_5_0_7_0_1,NA,NA,skipped,NA,1391296.1,NA,NA,1391292,1391296.2,2023-04-08T14:06:04Z,1391305.71,NULL,Kreativität,ubunifu,d,NA,NA,NA,NA,sdf,NA,5,NA,NA,NA,NA,NA,NA,NA,NA,NA,NA,NA,NA,NA,NA,NA,NA,NA,NA,NA
296000000,"""Falsch""-Screen",canvas.Screen,3_0_5_0_7_0_2,NA,NA,timeout,4995.9650000001,1391296.7,1391289.605,1391305.71,1396285.06,1396286.8,2023-04-08T14:06:09Z,1396301.675,NULL,Kreativität,ubunifu,d,NA,NA,NA,NA,sdf,0,5,NA,NA,NA,NA,NA,NA,NA,NA,NA,NA,NA,NA,NA,NA,NA,NA,NA,NA,NA
296000000,deep,flow.Sequence,3_0_5_0_7_0,NA,NA,completion,11540.084,1384730.3,1384728.189,1384744.976,1396285.06,1396287.3,2023-04-08T14:06:09Z,1396301.675,NULL,Kreativität,ubunifu,d,NA,NA,NA,NA,sdf,NA,5,NA,NA,NA,NA,NA,NA,NA,NA,NA,NA,NA,NA,NA,NA,NA,NA,NA,NA,NA
296000000,shallow,flow.Sequence,3_0_5_0_7_1,NA,NA,skipped,NA,1396287.5,NA,NA,1396285.06,1396287.7,2023-04-08T14:06:09Z,1396301.675,NULL,Kreativität,ubunifu,d,NA,NA,NA,NA,sdf,NA,5,NA,NA,NA,NA,NA,NA,NA,NA,NA,NA,NA,NA,NA,NA,NA,NA,NA,NA,NA
296000000,task,flow.Sequence,3_0_5_0_7,NA,NA,completion,11540.084,1384730.2,1384728.189,1384744.976,1396285.06,1396287.9,2023-04-08T14:06:09Z,1396301.675,NULL,Kreativität,ubunifu,d,NA,NA,NA,NA,sdf,NA,5,NA,NA,NA,NA,NA,NA,NA,NA,NA,NA,NA,NA,NA,NA,NA,NA,NA,NA,NA
296000000,block,flow.Loop,3_0_5_0,NA,NA,completion,84797.141,1311496.7,1311455.006,1311487.919,1396285.06,1396288.2,2023-04-08T14:06:09Z,1396301.675,NULL,NA,NA,NA,NA,NA,NA,NA,sdf,NA,5,NA,NA,NA,NA,NA,NA,NA,NA,NA,NA,NA,NA,NA,NA,NA,NA,NA,NA,NA
296000000,weiter,canvas.Screen,3_0_5_1,sdf,keypress(Space),response,1711.7250000059,1396288.3,1396285.06,1396301.675,1398013.4,1398019.3,2023-04-08T14:06:11Z,1398033.56,NULL,NA,NA,NA,NA,NA,NA,NA,sdf,NA,5,NA,NA,NA,NA,NA,NA,NA,NA,NA,NA,NA,NA,NA,NA,NA,NA,NA,NA,NA
296000000,check continue,flow.Sequence,3_0_5,NA,NA,completion,86525.481000006,1311496.6,1311455.006,1311487.919,1398013.4,1398019.5,2023-04-08T14:06:11Z,1398033.56,NULL,NA,NA,NA,NA,NA,NA,NA,sdf,NA,5,NA,NA,NA,NA,NA,NA,NA,NA,NA,NA,NA,NA,NA,NA,NA,NA,NA,NA,NA
296000000,deep,flow.Sequence,3_0_6_0_0_0,NA,NA,skipped,NA,1398042.3,NA,NA,1398013.4,1398042.4,2023-04-08T14:06:11Z,1398033.56,NULL,Kontrolle,kudhibiti,s,mbinguni,kufunga,utegemezi,NA,dfs,NA,6,NA,NA,NA,NA,NA,NA,NA,NA,NA,NA,NA,NA,NA,NA,NA,NA,NA,NA,NA
296000000,Shallow Question,html.Page,3_0_6_0_0_1_0,NA,NA,form submission,4114.3400000059,1398042.5,1398000.667,1398033.56,1402147.9,1402148.4,2023-04-08T14:06:15Z,1402175.809,NULL,Kontrolle,kudhibiti,s,mbinguni,kufunga,utegemezi,kudhibiti,NA,NA,6,NA,NA,NA,NA,NA,NA,NA,NA,NA,NA,NA,NA,NA,NA,NA,NA,NA,NA,NA
296000000,"""Richtig""-Screen",canvas.Screen,3_0_6_0_0_1_1,NA,NA,timeout,5000.2830000001,1402154.2,1402130.889,1402175.809,1407159.442,1407161.3,2023-04-08T14:06:20Z,1407176.092,NULL,Kontrolle,kudhibiti,s,mbinguni,kufunga,utegemezi,NA,dfs,1,6,NA,NA,NA,NA,NA,NA,NA,NA,NA,NA,NA,NA,NA,NA,NA,NA,NA,NA,NA
296000000,"""Falsch""-Screen",canvas.Screen,3_0_6_0_0_1_2,NA,NA,skipped,NA,1407170.9,NA,NA,1407159.442,1407171.3,2023-04-08T14:06:20Z,1407176.092,NULL,Kontrolle,kudhibiti,s,mbinguni,kufunga,utegemezi,NA,dfs,NA,6,NA,NA,NA,NA,NA,NA,NA,NA,NA,NA,NA,NA,NA,NA,NA,NA,NA,NA,NA
296000000,shallow,flow.Sequence,3_0_6_0_0_1,NA,NA,completion,9125.882,1398042.5,1398000.667,1398033.56,1407159.442,1407171.8,2023-04-08T14:06:20Z,1407176.092,NULL,Kontrolle,kudhibiti,s,mbinguni,kufunga,utegemezi,NA,dfs,NA,6,NA,NA,NA,NA,NA,NA,NA,NA,NA,NA,NA,NA,NA,NA,NA,NA,NA,NA,NA
296000000,task,flow.Sequence,3_0_6_0_0,NA,NA,completion,9125.882,1398042.3,1398000.667,1398033.56,1407159.442,1407172.3,2023-04-08T14:06:20Z,1407176.092,NULL,Kontrolle,kudhibiti,s,mbinguni,kufunga,utegemezi,NA,dfs,NA,6,NA,NA,NA,NA,NA,NA,NA,NA,NA,NA,NA,NA,NA,NA,NA,NA,NA,NA,NA
296000000,deep,flow.Sequence,3_0_6_0_1_0,NA,NA,skipped,NA,1407172.6,NA,NA,1407159.442,1407173.9,2023-04-08T14:06:20Z,1407176.092,NULL,Stimmung,kinyongo,s,kilekile,kisambo,madhehebu,NA,dfs,NA,6,NA,NA,NA,NA,NA,NA,NA,NA,NA,NA,NA,NA,NA,NA,NA,NA,NA,NA,NA
296000000,Shallow Question,html.Page,3_0_6_0_1_1_0,NA,NA,form submission,7735.4080000001,1407174.2,1407159.442,1407176.092,1414911.5,1414912.1,2023-04-08T14:06:28Z,1414919.669,NULL,Stimmung,kinyongo,s,kilekile,kisambo,madhehebu,kinyongo,NA,NA,6,NA,NA,NA,NA,NA,NA,NA,NA,NA,NA,NA,NA,NA,NA,NA,NA,NA,NA,NA
296000000,"""Richtig""-Screen",canvas.Screen,3_0_6_0_1_1_1,NA,NA,timeout,4996.504,1414915,1414903.139,1414919.669,1419899.556,1419900.3,2023-04-08T14:06:33Z,1419916.173,NULL,Stimmung,kinyongo,s,kilekile,kisambo,madhehebu,NA,dfs,1,6,NA,NA,NA,NA,NA,NA,NA,NA,NA,NA,NA,NA,NA,NA,NA,NA,NA,NA,NA
296000000,"""Falsch""-Screen",canvas.Screen,3_0_6_0_1_1_2,NA,NA,skipped,NA,1419903.5,NA,NA,1419899.556,1419903.6,2023-04-08T14:06:33Z,1419916.173,NULL,Stimmung,kinyongo,s,kilekile,kisambo,madhehebu,NA,dfs,NA,6,NA,NA,NA,NA,NA,NA,NA,NA,NA,NA,NA,NA,NA,NA,NA,NA,NA,NA,NA
