observation,sender,sender_type,sender_id,response,response_action,ended_on,duration,time_run,time_render,time_show,time_end,time_commit,timestamp,time_switch,german,swahili,enc,distractor1,distractor2,distractor3,response_2,x,correct,distractors,url_vp,url_sess,meta_labjs_version,meta_location,meta_user_agent,meta_platform,meta_language,meta_locale,meta_time_zone,meta_timezone_offset,meta_screen_width,meta_screen_height,meta_scroll_width,meta_scroll_height,meta_window_inner_width,meta_window_inner_height,meta_device_pixel_ratio,meta_labjs_build_flavor,meta_labjs_build_commit
9b4c3,Introduction delayed retrieval,canvas.Screen,0,weiter,keypress(Space),response,36129.64,551,553.68,570.36,36700,36703,2023-04-10T08:27:52Z,36705.18,NA,NA,NA,NA,NA,NA,NA,NA,NA,NULL,202,4,20.2.4,https://neurocog.fernuni.ch/studies/vweber/sfink/delayed/index.html?vp=202&sess=4,Mozilla/5.0 (Windows NT 10.0; Win64; x64; rv:109.0) Gecko/20100101 Firefox/111.0,Win32,de,de-CH,Europe/Zurich,-120,1368,912,1368,731,1368,779,2,production,f5b4a49f956347addd546a832a3327688c2c0fef
9b4c3,Deep Question,html.Page,1_0_0_0,NA,NA,form submission,14862.82,36704,36704.16,36705.18,51568,51569,2023-04-10T08:28:07Z,51579.06,Integrität,uadilifu,d,muungano,mtiririko,upunguaji,akaratia,NA,NA,NULL,NA,NA,NA,NA,NA,NA,NA,NA,NA,NA,NA,NA,NA,NA,NA,NA,NA,NA,NA
9b4c3,Save data screen,canvas.Screen,1_0_0_1,NA,NA,timeout,500.4,51575,51567.38,51579.06,52062.78,52064,2023-04-10T08:28:07Z,52079.46,Integrität,uadilifu,d,muungano,mtiririko,upunguaji,NA,NA,0,NULL,NA,NA,NA,NA,NA,NA,NA,NA,NA,NA,NA,NA,NA,NA,NA,NA,NA,NA,NA
9b4c3,deep,flow.Sequence,1_0_0,NA,NA,completion,15357.6,36704,36704.16,36705.18,52062.78,52064,2023-04-10T08:28:07Z,52079.46,Integrität,uadilifu,d,muungano,mtiririko,upunguaji,NA,NA,NA,NULL,NA,NA,NA,NA,NA,NA,NA,NA,NA,NA,NA,NA,NA,NA,NA,NA,NA,NA,NA
9b4c3,task,flow.Sequence,1_0,NA,NA,completion,15357.6,36704,36704.16,36705.18,52062.78,52064,2023-04-10T08:28:07Z,52079.46,Integrität,uadilifu,d,muungano,mtiririko,upunguaji,NA,NA,NA,NULL,NA,NA,NA,NA,NA,NA,NA,NA,NA,NA,NA,NA,NA,NA,NA,NA,NA,NA,NA
9b4c3,Deep Question,html.Page,1_1_0_0,NA,NA,form submission,40306.54,52066,52062.78,52079.46,92386,92387,2023-04-10T08:28:48Z,92384.36,Niveau,kiwango,d,usimamizi,mwamali,mshairi,msbaji,NA,NA,NULL,NA,NA,NA,NA,NA,NA,NA,NA,NA,NA,NA,NA,NA,NA,NA,NA,NA,NA,NA
9b4c3,Save data screen,canvas.Screen,1_1_0_1,NA,NA,timeout,501.28,92392,92383.8,92384.36,92868.96,92871,2023-04-10T08:28:48Z,92885.64,Niveau,kiwango,d,usimamizi,mwamali,mshairi,NA,NA,0,NULL,NA,NA,NA,NA,NA,NA,NA,NA,NA,NA,NA,NA,NA,NA,NA,NA,NA,NA,NA
9b4c3,deep,flow.Sequence,1_1_0,NA,NA,completion,40789.5,52066,52062.78,52079.46,92868.96,92872,2023-04-10T08:28:48Z,92885.64,Niveau,kiwango,d,usimamizi,mwamali,mshairi,NA,NA,NA,NULL,NA,NA,NA,NA,NA,NA,NA,NA,NA,NA,NA,NA,NA,NA,NA,NA,NA,NA,NA
9b4c3,task,flow.Sequence,1_1,NA,NA,completion,40789.5,52066,52062.78,52079.46,92868.96,92873,2023-04-10T08:28:48Z,92885.64,Niveau,kiwango,d,usimamizi,mwamali,mshairi,NA,NA,NA,NULL,NA,NA,NA,NA,NA,NA,NA,NA,NA,NA,NA,NA,NA,NA,NA,NA,NA,NA,NA
9b4c3,Deep Question,html.Page,1_2_0_0,NA,NA,form submission,10974.36,92874,92868.96,92885.64,103860,103860,2023-04-10T08:28:59Z,103875.66,Erneuerung,ukarabati,d,ushawishi,ukalifu,unyonyaji,unekaji,NA,NA,NULL,NA,NA,NA,NA,NA,NA,NA,NA,NA,NA,NA,NA,NA,NA,NA,NA,NA,NA,NA
9b4c3,Save data screen,canvas.Screen,1_2_0_1,NA,NA,timeout,500.31999999999,103865,103859.4,103875.66,104359.3,104361,2023-04-10T08:29:00Z,104375.98,Erneuerung,ukarabati,d,ushawishi,ukalifu,unyonyaji,NA,NA,0,NULL,NA,NA,NA,NA,NA,NA,NA,NA,NA,NA,NA,NA,NA,NA,NA,NA,NA,NA,NA
9b4c3,deep,flow.Sequence,1_2_0,NA,NA,completion,11473.66,92874,92868.96,92885.64,104359.3,104362,2023-04-10T08:29:00Z,104375.98,Erneuerung,ukarabati,d,ushawishi,ukalifu,unyonyaji,NA,NA,NA,NULL,NA,NA,NA,NA,NA,NA,NA,NA,NA,NA,NA,NA,NA,NA,NA,NA,NA,NA,NA
9b4c3,task,flow.Sequence,1_2,NA,NA,completion,11473.66,92873,92868.96,92885.64,104359.3,104363,2023-04-10T08:29:00Z,104375.98,Erneuerung,ukarabati,d,ushawishi,ukalifu,unyonyaji,NA,NA,NA,NULL,NA,NA,NA,NA,NA,NA,NA,NA,NA,NA,NA,NA,NA,NA,NA,NA,NA,NA,NA
9b4c3,Deep Question,html.Page,1_3_0_0,NA,NA,form submission,15969.02,104363,104359.3,104375.98,120345,120346,2023-04-10T08:29:16Z,120348.82,Orientierung,urekebisho,d,uelekeo,marekebisho,utunzaji,okejaki,NA,NA,NULL,NA,NA,NA,NA,NA,NA,NA,NA,NA,NA,NA,NA,NA,NA,NA,NA,NA,NA,NA
9b4c3,Save data screen,canvas.Screen,1_3_0_1,NA,NA,timeout,500.39999999999,120350,120344.68,120348.82,120832.56,120834,2023-04-10T08:29:16Z,120849.22,Orientierung,urekebisho,d,uelekeo,marekebisho,utunzaji,NA,NA,0,NULL,NA,NA,NA,NA,NA,NA,NA,NA,NA,NA,NA,NA,NA,NA,NA,NA,NA,NA,NA
9b4c3,deep,flow.Sequence,1_3_0,NA,NA,completion,16456.58,104363,104359.3,104375.98,120832.56,120834,2023-04-10T08:29:16Z,120849.22,Orientierung,urekebisho,d,uelekeo,marekebisho,utunzaji,NA,NA,NA,NULL,NA,NA,NA,NA,NA,NA,NA,NA,NA,NA,NA,NA,NA,NA,NA,NA,NA,NA,NA
9b4c3,task,flow.Sequence,1_3,NA,NA,completion,16456.58,104363,104359.3,104375.98,120832.56,120835,2023-04-10T08:29:16Z,120849.22,Orientierung,urekebisho,d,uelekeo,marekebisho,utunzaji,NA,NA,NA,NULL,NA,NA,NA,NA,NA,NA,NA,NA,NA,NA,NA,NA,NA,NA,NA,NA,NA,NA,NA
9b4c3,Deep Question,html.Page,1_4_0_0,NA,NA,form submission,25042.78,120836,120832.56,120849.22,145892,145893,2023-04-10T08:29:41Z,145891.88,Respekt,heshima,d,changamnao,upinzani,ufanisi,mshaleka,NA,NA,NULL,NA,NA,NA,NA,NA,NA,NA,NA,NA,NA,NA,NA,NA,NA,NA,NA,NA,NA,NA
9b4c3,Save data screen,canvas.Screen,1_4_0_1,NA,NA,timeout,508.19999999998,145897,145891.32,145891.88,146383.4,146387,2023-04-10T08:29:42Z,146400.08,Respekt,heshima,d,changamnao,upinzani,ufanisi,NA,NA,0,NULL,NA,NA,NA,NA,NA,NA,NA,NA,NA,NA,NA,NA,NA,NA,NA,NA,NA,NA,NA
9b4c3,deep,flow.Sequence,1_4_0,NA,NA,completion,25534.18,120836,120832.56,120849.22,146383.4,146389,2023-04-10T08:29:42Z,146400.08,Respekt,heshima,d,changamnao,upinzani,ufanisi,NA,NA,NA,NULL,NA,NA,NA,NA,NA,NA,NA,NA,NA,NA,NA,NA,NA,NA,NA,NA,NA,NA,NA
9b4c3,task,flow.Sequence,1_4,NA,NA,completion,25534.18,120836,120832.56,120849.22,146383.4,146390,2023-04-10T08:29:42Z,146400.08,Respekt,heshima,d,changamnao,upinzani,ufanisi,NA,NA,NA,NULL,NA,NA,NA,NA,NA,NA,NA,NA,NA,NA,NA,NA,NA,NA,NA,NA,NA,NA,NA
9b4c3,Deep Question,html.Page,1_5_0_0,NA,NA,form submission,15378.92,146391,146383.4,146400.08,161779,161780,2023-04-10T08:29:57Z,161778.54,Stimmung,kinyongo,s,kilekile,kisambo,madhehebu,mtihani,NA,NA,NULL,NA,NA,NA,NA,NA,NA,NA,NA,NA,NA,NA,NA,NA,NA,NA,NA,NA,NA,NA
9b4c3,Save data screen,canvas.Screen,1_5_0_1,NA,NA,timeout,500.44,161785,161778.06,161778.54,162262.34,162265,2023-04-10T08:29:58Z,162278.98,Stimmung,kinyongo,s,kilekile,kisambo,madhehebu,NA,NA,0,NULL,NA,NA,NA,NA,NA,NA,NA,NA,NA,NA,NA,NA,NA,NA,NA,NA,NA,NA,NA
9b4c3,deep,flow.Sequence,1_5_0,NA,NA,completion,15862.26,146391,146383.4,146400.08,162262.34,162265,2023-04-10T08:29:58Z,162278.98,Stimmung,kinyongo,s,kilekile,kisambo,madhehebu,NA,NA,NA,NULL,NA,NA,NA,NA,NA,NA,NA,NA,NA,NA,NA,NA,NA,NA,NA,NA,NA,NA,NA
9b4c3,task,flow.Sequence,1_5,NA,NA,completion,15862.26,146391,146383.4,146400.08,162262.34,162266,2023-04-10T08:29:58Z,162278.98,Stimmung,kinyongo,s,kilekile,kisambo,madhehebu,NA,NA,NA,NULL,NA,NA,NA,NA,NA,NA,NA,NA,NA,NA,NA,NA,NA,NA,NA,NA,NA,NA,NA
9b4c3,Deep Question,html.Page,1_6_0_0,NA,NA,form submission,13373.02,162268,162262.34,162278.98,175652,175653,2023-04-10T08:30:11Z,175652.32,Atmosphäre,angahewa,s,kuteseka,usahihi,kutoamini,kiwiiwi,NA,NA,NULL,NA,NA,NA,NA,NA,NA,NA,NA,NA,NA,NA,NA,NA,NA,NA,NA,NA,NA,NA
9b4c3,Save data screen,canvas.Screen,1_6_0_1,NA,NA,timeout,495.79999999999,175657,175651.76,175652.32,176131.44,176132,2023-04-10T08:30:12Z,176148.12,Atmosphäre,angahewa,s,kuteseka,usahihi,kutoamini,NA,NA,0,NULL,NA,NA,NA,NA,NA,NA,NA,NA,NA,NA,NA,NA,NA,NA,NA,NA,NA,NA,NA
9b4c3,deep,flow.Sequence,1_6_0,NA,NA,completion,13852.46,162268,162262.34,162278.98,176131.44,176134,2023-04-10T08:30:12Z,176148.12,Atmosphäre,angahewa,s,kuteseka,usahihi,kutoamini,NA,NA,NA,NULL,NA,NA,NA,NA,NA,NA,NA,NA,NA,NA,NA,NA,NA,NA,NA,NA,NA,NA,NA
9b4c3,task,flow.Sequence,1_6,NA,NA,completion,13852.46,162266,162262.34,162278.98,176131.44,176135,2023-04-10T08:30:12Z,176148.12,Atmosphäre,angahewa,s,kuteseka,usahihi,kutoamini,NA,NA,NA,NULL,NA,NA,NA,NA,NA,NA,NA,NA,NA,NA,NA,NA,NA,NA,NA,NA,NA,NA,NA
9b4c3,Deep Question,html.Page,1_7_0_0,NA,NA,form submission,7829.88,176136,176131.44,176148.12,183978,183979,2023-04-10T08:30:19Z,183979.24,Vorwurf,mashtaka,s,msukumo,mtangulizi,uenyekiti,mkapua,NA,NA,NULL,NA,NA,NA,NA,NA,NA,NA,NA,NA,NA,NA,NA,NA,NA,NA,NA,NA,NA,NA
9b4c3,Save data screen,canvas.Screen,1_7_0_1,NA,NA,timeout,500.44,183984,183979.24,183979.24,184463.02,184465,2023-04-10T08:30:20Z,184479.68,Vorwurf,mashtaka,s,msukumo,mtangulizi,uenyekiti,NA,NA,0,NULL,NA,NA,NA,NA,NA,NA,NA,NA,NA,NA,NA,NA,NA,NA,NA,NA,NA,NA,NA
9b4c3,deep,flow.Sequence,1_7_0,NA,NA,completion,8314.9,176136,176131.44,176148.12,184463.02,184466,2023-04-10T08:30:20Z,184479.68,Vorwurf,mashtaka,s,msukumo,mtangulizi,uenyekiti,NA,NA,NA,NULL,NA,NA,NA,NA,NA,NA,NA,NA,NA,NA,NA,NA,NA,NA,NA,NA,NA,NA,NA
9b4c3,task,flow.Sequence,1_7,NA,NA,completion,8314.9,176136,176131.44,176148.12,184463.02,184466,2023-04-10T08:30:20Z,184479.68,Vorwurf,mashtaka,s,msukumo,mtangulizi,uenyekiti,NA,NA,NA,NULL,NA,NA,NA,NA,NA,NA,NA,NA,NA,NA,NA,NA,NA,NA,NA,NA,NA,NA,NA
9b4c3,Deep Question,html.Page,1_8_0_0,NA,NA,form submission,13854.32,184467,184463.02,184479.68,198334,198334,2023-04-10T08:30:34Z,198333.84,Betrüger,mdanganyifu,s,mwanamuziki,wastani,mahakama,ualake,NA,NA,NULL,NA,NA,NA,NA,NA,NA,NA,NA,NA,NA,NA,NA,NA,NA,NA,NA,NA,NA,NA
9b4c3,Save data screen,canvas.Screen,1_8_0_1,NA,NA,timeout,500.44,198339,198332.38,198333.84,198817.6,198819,2023-04-10T08:30:34Z,198834.28,Betrüger,mdanganyifu,s,mwanamuziki,wastani,mahakama,NA,NA,0,NULL,NA,NA,NA,NA,NA,NA,NA,NA,NA,NA,NA,NA,NA,NA,NA,NA,NA,NA,NA
9b4c3,deep,flow.Sequence,1_8_0,NA,NA,completion,14337.92,184467,184463.02,184479.68,198817.6,198819,2023-04-10T08:30:34Z,198834.28,Betrüger,mdanganyifu,s,mwanamuziki,wastani,mahakama,NA,NA,NA,NULL,NA,NA,NA,NA,NA,NA,NA,NA,NA,NA,NA,NA,NA,NA,NA,NA,NA,NA,NA
9b4c3,task,flow.Sequence,1_8,NA,NA,completion,14337.92,184467,184463.02,184479.68,198817.6,198820,2023-04-10T08:30:34Z,198834.28,Betrüger,mdanganyifu,s,mwanamuziki,wastani,mahakama,NA,NA,NA,NULL,NA,NA,NA,NA,NA,NA,NA,NA,NA,NA,NA,NA,NA,NA,NA,NA,NA,NA,NA
9b4c3,Deep Question,html.Page,1_9_0_0,NA,NA,form submission,29547.72,198821,198817.6,198834.28,228382,228383,2023-04-10T08:31:04Z,228384.38,Papier,karatasi,d,uchambuzi,usalama,kukataliwa,ukaleka,NA,NA,NULL,NA,NA,NA,NA,NA,NA,NA,NA,NA,NA,NA,NA,NA,NA,NA,NA,NA,NA,NA
9b4c3,Save data screen,canvas.Screen,1_9_0_1,NA,NA,timeout,500.39999999999,228388,228379.36,228384.38,228868.1,228870,2023-04-10T08:31:04Z,228884.78,Papier,karatasi,d,uchambuzi,usalama,kukataliwa,NA,NA,0,NULL,NA,NA,NA,NA,NA,NA,NA,NA,NA,NA,NA,NA,NA,NA,NA,NA,NA,NA,NA
9b4c3,deep,flow.Sequence,1_9_0,NA,NA,completion,30033.82,198821,198817.6,198834.28,228868.1,228871,2023-04-10T08:31:04Z,228884.78,Papier,karatasi,d,uchambuzi,usalama,kukataliwa,NA,NA,NA,NULL,NA,NA,NA,NA,NA,NA,NA,NA,NA,NA,NA,NA,NA,NA,NA,NA,NA,NA,NA
9b4c3,task,flow.Sequence,1_9,NA,NA,completion,30033.82,198821,198817.6,198834.28,228868.1,228872,2023-04-10T08:31:04Z,228884.78,Papier,karatasi,d,uchambuzi,usalama,kukataliwa,NA,NA,NA,NULL,NA,NA,NA,NA,NA,NA,NA,NA,NA,NA,NA,NA,NA,NA,NA,NA,NA,NA,NA
9b4c3,Deep Question,html.Page,1_10_0_0,NA,NA,form submission,9367.22,228873,228868.1,228884.78,238252,238252,2023-04-10T08:31:14Z,238266.58,Genehmigung,idhini,s,mwanamke,itikadi,fedheha,mtbi,NA,NA,NULL,NA,NA,NA,NA,NA,NA,NA,NA,NA,NA,NA,NA,NA,NA,NA,NA,NA,NA,NA
9b4c3,Save data screen,canvas.Screen,1_10_0_1,NA,NA,timeout,500.82000000001,238257,238250.18,238266.58,238750.72,238752,2023-04-10T08:31:14Z,238767.4,Genehmigung,idhini,s,mwanamke,itikadi,fedheha,NA,NA,0,NULL,NA,NA,NA,NA,NA,NA,NA,NA,NA,NA,NA,NA,NA,NA,NA,NA,NA,NA,NA
9b4c3,deep,flow.Sequence,1_10_0,NA,NA,completion,9865.94,228873,228868.1,228884.78,238750.72,238753,2023-04-10T08:31:14Z,238767.4,Genehmigung,idhini,s,mwanamke,itikadi,fedheha,NA,NA,NA,NULL,NA,NA,NA,NA,NA,NA,NA,NA,NA,NA,NA,NA,NA,NA,NA,NA,NA,NA,NA
9b4c3,task,flow.Sequence,1_10,NA,NA,completion,9865.94,228872,228868.1,228884.78,238750.72,238754,2023-04-10T08:31:14Z,238767.4,Genehmigung,idhini,s,mwanamke,itikadi,fedheha,NA,NA,NA,NULL,NA,NA,NA,NA,NA,NA,NA,NA,NA,NA,NA,NA,NA,NA,NA,NA,NA,NA,NA
9b4c3,Deep Question,html.Page,1_11_0_0,NA,NA,form submission,11018.6,238755,238750.72,238767.4,249786,249786,2023-04-10T08:31:25Z,249799.32,Flexibilität,kubadilika,s,enjini,usikilivu,hesabu,makapeta,NA,NA,NULL,NA,NA,NA,NA,NA,NA,NA,NA,NA,NA,NA,NA,NA,NA,NA,NA,NA,NA,NA
9b4c3,Save data screen,canvas.Screen,1_11_0_1,NA,NA,timeout,500.44,249791,249784.52,249799.32,250283.08,250286,2023-04-10T08:31:26Z,250299.76,Flexibilität,kubadilika,s,enjini,usikilivu,hesabu,NA,NA,0,NULL,NA,NA,NA,NA,NA,NA,NA,NA,NA,NA,NA,NA,NA,NA,NA,NA,NA,NA,NA
9b4c3,deep,flow.Sequence,1_11_0,NA,NA,completion,11515.68,238755,238750.72,238767.4,250283.08,250286,2023-04-10T08:31:26Z,250299.76,Flexibilität,kubadilika,s,enjini,usikilivu,hesabu,NA,NA,NA,NULL,NA,NA,NA,NA,NA,NA,NA,NA,NA,NA,NA,NA,NA,NA,NA,NA,NA,NA,NA
9b4c3,task,flow.Sequence,1_11,NA,NA,completion,11515.68,238754,238750.72,238767.4,250283.08,250287,2023-04-10T08:31:26Z,250299.76,Flexibilität,kubadilika,s,enjini,usikilivu,hesabu,NA,NA,NA,NULL,NA,NA,NA,NA,NA,NA,NA,NA,NA,NA,NA,NA,NA,NA,NA,NA,NA,NA,NA
9b4c3,Deep Question,html.Page,1_12_0_0,NA,NA,form submission,17366.24,250287,250283.08,250299.76,267666,267667,2023-04-10T08:31:43Z,267666.16,Fleisch,mshakiki,d,kizunguzungu,mshikamano,angusho,msbaji,NA,NA,NULL,NA,NA,NA,NA,NA,NA,NA,NA,NA,NA,NA,NA,NA,NA,NA,NA,NA,NA,NA
9b4c3,Save data screen,canvas.Screen,1_12_0_1,NA,NA,timeout,500.24000000005,267671,267664.84,267666.16,268149.72,268153,2023-04-10T08:31:44Z,268166.4,Fleisch,mshakiki,d,kizunguzungu,mshikamano,angusho,NA,NA,0,NULL,NA,NA,NA,NA,NA,NA,NA,NA,NA,NA,NA,NA,NA,NA,NA,NA,NA,NA,NA
9b4c3,deep,flow.Sequence,1_12_0,NA,NA,completion,17849.96,250287,250283.08,250299.76,268149.72,268155,2023-04-10T08:31:44Z,268166.4,Fleisch,mshakiki,d,kizunguzungu,mshikamano,angusho,NA,NA,NA,NULL,NA,NA,NA,NA,NA,NA,NA,NA,NA,NA,NA,NA,NA,NA,NA,NA,NA,NA,NA
9b4c3,task,flow.Sequence,1_12,NA,NA,completion,17849.96,250287,250283.08,250299.76,268149.72,268156,2023-04-10T08:31:44Z,268166.4,Fleisch,mshakiki,d,kizunguzungu,mshikamano,angusho,NA,NA,NA,NULL,NA,NA,NA,NA,NA,NA,NA,NA,NA,NA,NA,NA,NA,NA,NA,NA,NA,NA,NA
9b4c3,Deep Question,html.Page,1_13_0_0,NA,NA,form submission,15926.6,268156,268149.72,268166.4,284093,284093,2023-04-10T08:31:59Z,284096.04,Entwicklung,maendeleo,s,uangavu,mshindwa,badiliko,kabetra,NA,NA,NULL,NA,NA,NA,NA,NA,NA,NA,NA,NA,NA,NA,NA,NA,NA,NA,NA,NA,NA,NA
9b4c3,Save data screen,canvas.Screen,1_13_0_1,NA,NA,timeout,500.36000000004,284099,284091.74,284096.04,284579.72,284581,2023-04-10T08:32:00Z,284596.4,Entwicklung,maendeleo,s,uangavu,mshindwa,badiliko,NA,NA,0,NULL,NA,NA,NA,NA,NA,NA,NA,NA,NA,NA,NA,NA,NA,NA,NA,NA,NA,NA,NA
9b4c3,deep,flow.Sequence,1_13_0,NA,NA,completion,16413.32,268156,268149.72,268166.4,284579.72,284582,2023-04-10T08:32:00Z,284596.4,Entwicklung,maendeleo,s,uangavu,mshindwa,badiliko,NA,NA,NA,NULL,NA,NA,NA,NA,NA,NA,NA,NA,NA,NA,NA,NA,NA,NA,NA,NA,NA,NA,NA
9b4c3,task,flow.Sequence,1_13,NA,NA,completion,16413.32,268156,268149.72,268166.4,284579.72,284583,2023-04-10T08:32:00Z,284596.4,Entwicklung,maendeleo,s,uangavu,mshindwa,badiliko,NA,NA,NA,NULL,NA,NA,NA,NA,NA,NA,NA,NA,NA,NA,NA,NA,NA,NA,NA,NA,NA,NA,NA
9b4c3,Deep Question,html.Page,1_14_0_0,NA,NA,form submission,3963.6,284584,284579.72,284596.4,288560,288560,2023-04-10T08:32:04Z,288567.54,Begegnung,kukutana,s,mmasihiya,mpiganaji,husiano,makaluta,NA,NA,NULL,NA,NA,NA,NA,NA,NA,NA,NA,NA,NA,NA,NA,NA,NA,NA,NA,NA,NA,NA
9b4c3,Save data screen,canvas.Screen,1_14_0_1,NA,NA,timeout,500.36000000004,288564,288559.6,288567.54,289051.22,289052,2023-04-10T08:32:04Z,289067.9,Begegnung,kukutana,s,mmasihiya,mpiganaji,husiano,NA,NA,0,NULL,NA,NA,NA,NA,NA,NA,NA,NA,NA,NA,NA,NA,NA,NA,NA,NA,NA,NA,NA
9b4c3,deep,flow.Sequence,1_14_0,NA,NA,completion,4454.8199999999,284583,284579.72,284596.4,289051.22,289052,2023-04-10T08:32:04Z,289067.9,Begegnung,kukutana,s,mmasihiya,mpiganaji,husiano,NA,NA,NA,NULL,NA,NA,NA,NA,NA,NA,NA,NA,NA,NA,NA,NA,NA,NA,NA,NA,NA,NA,NA
9b4c3,task,flow.Sequence,1_14,NA,NA,completion,4454.8199999999,284583,284579.72,284596.4,289051.22,289053,2023-04-10T08:32:04Z,289067.9,Begegnung,kukutana,s,mmasihiya,mpiganaji,husiano,NA,NA,NA,NULL,NA,NA,NA,NA,NA,NA,NA,NA,NA,NA,NA,NA,NA,NA,NA,NA,NA,NA,NA
9b4c3,Deep Question,html.Page,1_15_0_0,NA,NA,form submission,3499.1,289053,289051.22,289067.9,292567,292567,2023-04-10T08:32:08Z,292569.06,Wechsel,ugeuzaji,d,utambulisho,kujenga,wasiwasi,ukelate,NA,NA,NULL,NA,NA,NA,NA,NA,NA,NA,NA,NA,NA,NA,NA,NA,NA,NA,NA,NA,NA,NA
9b4c3,Save data screen,canvas.Screen,1_15_0_1,NA,NA,timeout,506.85999999999,292570,292565.66,292569.06,293059.24,293061,2023-04-10T08:32:08Z,293075.92,Wechsel,ugeuzaji,d,utambulisho,kujenga,wasiwasi,NA,NA,0,NULL,NA,NA,NA,NA,NA,NA,NA,NA,NA,NA,NA,NA,NA,NA,NA,NA,NA,NA,NA
9b4c3,deep,flow.Sequence,1_15_0,NA,NA,completion,3991.34,289053,289051.22,289067.9,293059.24,293062,2023-04-10T08:32:08Z,293075.92,Wechsel,ugeuzaji,d,utambulisho,kujenga,wasiwasi,NA,NA,NA,NULL,NA,NA,NA,NA,NA,NA,NA,NA,NA,NA,NA,NA,NA,NA,NA,NA,NA,NA,NA
9b4c3,task,flow.Sequence,1_15,NA,NA,completion,3991.34,289053,289051.22,289067.9,293059.24,293062,2023-04-10T08:32:08Z,293075.92,Wechsel,ugeuzaji,d,utambulisho,kujenga,wasiwasi,NA,NA,NA,NULL,NA,NA,NA,NA,NA,NA,NA,NA,NA,NA,NA,NA,NA,NA,NA,NA,NA,NA,NA
9b4c3,retrieval block 1 (cued recall),flow.Loop,1,NA,NA,completion,256354.06,36704,36704.16,36705.18,293059.24,293063,2023-04-10T08:32:08Z,293075.92,NA,NA,NA,NA,NA,NA,NA,NA,NA,NULL,NA,NA,NA,NA,NA,NA,NA,NA,NA,NA,NA,NA,NA,NA,NA,NA,NA,NA,NA
9b4c3,Shallow Question,html.Page,2_0_0_0,NA,NA,form submission,12129.08,293063,293059.24,293075.92,305205,305205,2023-04-10T08:32:21Z,305211.16,Vorwurf,mashtaka,s,msukumo,mtangulizi,uenyekiti,mashtaka,NA,NA,"c(""distractor1"", ""distractor2"", ""distractor3"")",NA,NA,NA,NA,NA,NA,NA,NA,NA,NA,NA,NA,NA,NA,NA,NA,NA,NA,NA
9b4c3,Save data screen,canvas.Screen,2_0_0_1,NA,NA,timeout,500.34000000003,305209,305202.3,305211.16,305694.82,305696,2023-04-10T08:32:21Z,305711.5,Vorwurf,mashtaka,s,msukumo,mtangulizi,uenyekiti,NA,NA,1,"c(""distractor1"", ""distractor2"", ""distractor3"")",NA,NA,NA,NA,NA,NA,NA,NA,NA,NA,NA,NA,NA,NA,NA,NA,NA,NA,NA
9b4c3,shallow,flow.Sequence,2_0_0,NA,NA,completion,12618.9,293063,293059.24,293075.92,305694.82,305697,2023-04-10T08:32:21Z,305711.5,Vorwurf,mashtaka,s,msukumo,mtangulizi,uenyekiti,NA,NA,NA,"c(""distractor1"", ""distractor2"", ""distractor3"")",NA,NA,NA,NA,NA,NA,NA,NA,NA,NA,NA,NA,NA,NA,NA,NA,NA,NA,NA
9b4c3,task,flow.Sequence,2_0,NA,NA,completion,12618.9,293063,293059.24,293075.92,305694.82,305697,2023-04-10T08:32:21Z,305711.5,Vorwurf,mashtaka,s,msukumo,mtangulizi,uenyekiti,NA,NA,NA,"c(""distractor1"", ""distractor2"", ""distractor3"")",NA,NA,NA,NA,NA,NA,NA,NA,NA,NA,NA,NA,NA,NA,NA,NA,NA,NA,NA
9b4c3,Shallow Question,html.Page,2_1_0_0,NA,NA,form submission,5099.5,305698,305694.82,305711.5,310811,310811,2023-04-10T08:32:26Z,310816.78,Begegnung,kukutana,s,mmasihiya,mpiganaji,husiano,kukutana,NA,NA,"c(""distractor1"", ""distractor2"", ""distractor3"")",NA,NA,NA,NA,NA,NA,NA,NA,NA,NA,NA,NA,NA,NA,NA,NA,NA,NA,NA
9b4c3,Save data screen,canvas.Screen,2_1_0_1,NA,NA,timeout,500.69999999995,310814,310810.02,310816.78,311300.8,311302,2023-04-10T08:32:27Z,311317.48,Begegnung,kukutana,s,mmasihiya,mpiganaji,husiano,NA,NA,1,"c(""distractor1"", ""distractor2"", ""distractor3"")",NA,NA,NA,NA,NA,NA,NA,NA,NA,NA,NA,NA,NA,NA,NA,NA,NA,NA,NA
9b4c3,shallow,flow.Sequence,2_1_0,NA,NA,completion,5589.3,305698,305694.82,305711.5,311300.8,311302,2023-04-10T08:32:27Z,311317.48,Begegnung,kukutana,s,mmasihiya,mpiganaji,husiano,NA,NA,NA,"c(""distractor1"", ""distractor2"", ""distractor3"")",NA,NA,NA,NA,NA,NA,NA,NA,NA,NA,NA,NA,NA,NA,NA,NA,NA,NA,NA
9b4c3,task,flow.Sequence,2_1,NA,NA,completion,5589.3,305698,305694.82,305711.5,311300.8,311302,2023-04-10T08:32:27Z,311317.48,Begegnung,kukutana,s,mmasihiya,mpiganaji,husiano,NA,NA,NA,"c(""distractor1"", ""distractor2"", ""distractor3"")",NA,NA,NA,NA,NA,NA,NA,NA,NA,NA,NA,NA,NA,NA,NA,NA,NA,NA,NA
9b4c3,Shallow Question,html.Page,2_2_0_0,NA,NA,form submission,7443.52,311302,311300.8,311317.48,318761,318762,2023-04-10T08:32:34Z,318772.6,Betrüger,mdanganyifu,s,mwanamuziki,wastani,mahakama,mdanganyifu,NA,NA,"c(""distractor1"", ""distractor2"", ""distractor3"")",NA,NA,NA,NA,NA,NA,NA,NA,NA,NA,NA,NA,NA,NA,NA,NA,NA,NA,NA
9b4c3,Save data screen,canvas.Screen,2_2_0_1,NA,NA,timeout,500.38,318767,318756.78,318772.6,319256.3,319259,2023-04-10T08:32:35Z,319272.98,Betrüger,mdanganyifu,s,mwanamuziki,wastani,mahakama,NA,NA,1,"c(""distractor1"", ""distractor2"", ""distractor3"")",NA,NA,NA,NA,NA,NA,NA,NA,NA,NA,NA,NA,NA,NA,NA,NA,NA,NA,NA
9b4c3,shallow,flow.Sequence,2_2_0,NA,NA,completion,7938.82,311302,311300.8,311317.48,319256.3,319259,2023-04-10T08:32:35Z,319272.98,Betrüger,mdanganyifu,s,mwanamuziki,wastani,mahakama,NA,NA,NA,"c(""distractor1"", ""distractor2"", ""distractor3"")",NA,NA,NA,NA,NA,NA,NA,NA,NA,NA,NA,NA,NA,NA,NA,NA,NA,NA,NA
9b4c3,task,flow.Sequence,2_2,NA,NA,completion,7938.82,311302,311300.8,311317.48,319256.3,319260,2023-04-10T08:32:35Z,319272.98,Betrüger,mdanganyifu,s,mwanamuziki,wastani,mahakama,NA,NA,NA,"c(""distractor1"", ""distractor2"", ""distractor3"")",NA,NA,NA,NA,NA,NA,NA,NA,NA,NA,NA,NA,NA,NA,NA,NA,NA,NA,NA
9b4c3,Shallow Question,html.Page,2_3_0_0,NA,NA,form submission,5548.02,319261,319256.3,319272.98,324821,324821,2023-04-10T08:32:40Z,324830,Erneuerung,ukarabati,d,ushawishi,ukalifu,unyonyaji,ukarabati,NA,NA,"c(""distractor1"", ""distractor2"", ""distractor3"")",NA,NA,NA,NA,NA,NA,NA,NA,NA,NA,NA,NA,NA,NA,NA,NA,NA,NA,NA
9b4c3,Save data screen,canvas.Screen,2_3_0_1,NA,NA,timeout,500.71999999997,324826,324818.42,324830,325314.04,325315,2023-04-10T08:32:41Z,325330.72,Erneuerung,ukarabati,d,ushawishi,ukalifu,unyonyaji,NA,NA,1,"c(""distractor1"", ""distractor2"", ""distractor3"")",NA,NA,NA,NA,NA,NA,NA,NA,NA,NA,NA,NA,NA,NA,NA,NA,NA,NA,NA
9b4c3,shallow,flow.Sequence,2_3_0,NA,NA,completion,6041.06,319261,319256.3,319272.98,325314.04,325317,2023-04-10T08:32:41Z,325330.72,Erneuerung,ukarabati,d,ushawishi,ukalifu,unyonyaji,NA,NA,NA,"c(""distractor1"", ""distractor2"", ""distractor3"")",NA,NA,NA,NA,NA,NA,NA,NA,NA,NA,NA,NA,NA,NA,NA,NA,NA,NA,NA
9b4c3,task,flow.Sequence,2_3,NA,NA,completion,6041.06,319261,319256.3,319272.98,325314.04,325317,2023-04-10T08:32:41Z,325330.72,Erneuerung,ukarabati,d,ushawishi,ukalifu,unyonyaji,NA,NA,NA,"c(""distractor1"", ""distractor2"", ""distractor3"")",NA,NA,NA,NA,NA,NA,NA,NA,NA,NA,NA,NA,NA,NA,NA,NA,NA,NA,NA
9b4c3,Shallow Question,html.Page,2_4_0_0,NA,NA,form submission,8209.28,325318,325314.04,325330.72,333540,333542,2023-04-10T08:32:49Z,333545.04,Papier,karatasi,d,uchambuzi,usalama,kukataliwa,usalama,NA,NA,"c(""distractor1"", ""distractor2"", ""distractor3"")",NA,NA,NA,NA,NA,NA,NA,NA,NA,NA,NA,NA,NA,NA,NA,NA,NA,NA,NA
9b4c3,Save data screen,canvas.Screen,2_4_0_1,NA,NA,timeout,500.24000000005,333547,333536.38,333545.04,334028.6,334031,2023-04-10T08:32:49Z,334045.28,Papier,karatasi,d,uchambuzi,usalama,kukataliwa,NA,NA,0,"c(""distractor1"", ""distractor2"", ""distractor3"")",NA,NA,NA,NA,NA,NA,NA,NA,NA,NA,NA,NA,NA,NA,NA,NA,NA,NA,NA
9b4c3,shallow,flow.Sequence,2_4_0,NA,NA,completion,8697.88,325318,325314.04,325330.72,334028.6,334032,2023-04-10T08:32:49Z,334045.28,Papier,karatasi,d,uchambuzi,usalama,kukataliwa,NA,NA,NA,"c(""distractor1"", ""distractor2"", ""distractor3"")",NA,NA,NA,NA,NA,NA,NA,NA,NA,NA,NA,NA,NA,NA,NA,NA,NA,NA,NA
9b4c3,task,flow.Sequence,2_4,NA,NA,completion,8697.88,325317,325314.04,325330.72,334028.6,334033,2023-04-10T08:32:49Z,334045.28,Papier,karatasi,d,uchambuzi,usalama,kukataliwa,NA,NA,NA,"c(""distractor1"", ""distractor2"", ""distractor3"")",NA,NA,NA,NA,NA,NA,NA,NA,NA,NA,NA,NA,NA,NA,NA,NA,NA,NA,NA
9b4c3,Shallow Question,html.Page,2_5_0_0,NA,NA,form submission,8203.72,334034,334028.6,334045.28,342249,342250,2023-04-10T08:32:58Z,342251.48,Integrität,uadilifu,d,muungano,mtiririko,upunguaji,mtiririko,NA,NA,"c(""distractor1"", ""distractor2"", ""distractor3"")",NA,NA,NA,NA,NA,NA,NA,NA,NA,NA,NA,NA,NA,NA,NA,NA,NA,NA,NA
9b4c3,Save data screen,canvas.Screen,2_5_0_1,NA,NA,timeout,500.42000000004,342254,342246.6,342251.48,342735.22,342736,2023-04-10T08:32:58Z,342751.9,Integrität,uadilifu,d,muungano,mtiririko,upunguaji,NA,NA,0,"c(""distractor1"", ""distractor2"", ""distractor3"")",NA,NA,NA,NA,NA,NA,NA,NA,NA,NA,NA,NA,NA,NA,NA,NA,NA,NA,NA
9b4c3,shallow,flow.Sequence,2_5_0,NA,NA,completion,8689.9399999999,334034,334028.6,334045.28,342735.22,342737,2023-04-10T08:32:58Z,342751.9,Integrität,uadilifu,d,muungano,mtiririko,upunguaji,NA,NA,NA,"c(""distractor1"", ""distractor2"", ""distractor3"")",NA,NA,NA,NA,NA,NA,NA,NA,NA,NA,NA,NA,NA,NA,NA,NA,NA,NA,NA
9b4c3,task,flow.Sequence,2_5,NA,NA,completion,8689.9399999999,334033,334028.6,334045.28,342735.22,342737,2023-04-10T08:32:58Z,342751.9,Integrität,uadilifu,d,muungano,mtiririko,upunguaji,NA,NA,NA,"c(""distractor1"", ""distractor2"", ""distractor3"")",NA,NA,NA,NA,NA,NA,NA,NA,NA,NA,NA,NA,NA,NA,NA,NA,NA,NA,NA
9b4c3,Shallow Question,html.Page,2_6_0_0,NA,NA,form submission,5762.1,342738,342735.22,342751.9,348514,348515,2023-04-10T08:33:04Z,348528.76,Stimmung,kinyongo,s,kilekile,kisambo,madhehebu,kinyongo,NA,NA,"c(""distractor1"", ""distractor2"", ""distractor3"")",NA,NA,NA,NA,NA,NA,NA,NA,NA,NA,NA,NA,NA,NA,NA,NA,NA,NA,NA
9b4c3,Save data screen,canvas.Screen,2_6_0_1,NA,NA,timeout,500.35999999999,348519,348512.46,348528.76,349012.44,349015,2023-04-10T08:33:04Z,349029.12,Stimmung,kinyongo,s,kilekile,kisambo,madhehebu,NA,NA,1,"c(""distractor1"", ""distractor2"", ""distractor3"")",NA,NA,NA,NA,NA,NA,NA,NA,NA,NA,NA,NA,NA,NA,NA,NA,NA,NA,NA
9b4c3,shallow,flow.Sequence,2_6_0,NA,NA,completion,6260.54,342738,342735.22,342751.9,349012.44,349015,2023-04-10T08:33:04Z,349029.12,Stimmung,kinyongo,s,kilekile,kisambo,madhehebu,NA,NA,NA,"c(""distractor1"", ""distractor2"", ""distractor3"")",NA,NA,NA,NA,NA,NA,NA,NA,NA,NA,NA,NA,NA,NA,NA,NA,NA,NA,NA
9b4c3,task,flow.Sequence,2_6,NA,NA,completion,6260.54,342738,342735.22,342751.9,349012.44,349015,2023-04-10T08:33:04Z,349029.12,Stimmung,kinyongo,s,kilekile,kisambo,madhehebu,NA,NA,NA,"c(""distractor1"", ""distractor2"", ""distractor3"")",NA,NA,NA,NA,NA,NA,NA,NA,NA,NA,NA,NA,NA,NA,NA,NA,NA,NA,NA
9b4c3,Shallow Question,html.Page,2_7_0_0,NA,NA,form submission,5399.88,349016,349012.44,349029.12,354429,354429,2023-04-10T08:33:10Z,354427.6,Fleisch,mshakiki,d,kizunguzungu,mshikamano,angusho,mshakiki,NA,NA,"c(""distractor1"", ""distractor2"", ""distractor3"")",NA,NA,NA,NA,NA,NA,NA,NA,NA,NA,NA,NA,NA,NA,NA,NA,NA,NA,NA
9b4c3,Save data screen,canvas.Screen,2_7_0_1,NA,NA,timeout,500.36000000004,354433,354426.66,354427.6,354911.28,354913,2023-04-10T08:33:10Z,354927.96,Fleisch,mshakiki,d,kizunguzungu,mshikamano,angusho,NA,NA,1,"c(""distractor1"", ""distractor2"", ""distractor3"")",NA,NA,NA,NA,NA,NA,NA,NA,NA,NA,NA,NA,NA,NA,NA,NA,NA,NA,NA
9b4c3,shallow,flow.Sequence,2_7_0,NA,NA,completion,5882.16,349016,349012.44,349029.12,354911.28,354913,2023-04-10T08:33:10Z,354927.96,Fleisch,mshakiki,d,kizunguzungu,mshikamano,angusho,NA,NA,NA,"c(""distractor1"", ""distractor2"", ""distractor3"")",NA,NA,NA,NA,NA,NA,NA,NA,NA,NA,NA,NA,NA,NA,NA,NA,NA,NA,NA
9b4c3,task,flow.Sequence,2_7,NA,NA,completion,5882.16,349016,349012.44,349029.12,354911.28,354913,2023-04-10T08:33:10Z,354927.96,Fleisch,mshakiki,d,kizunguzungu,mshikamano,angusho,NA,NA,NA,"c(""distractor1"", ""distractor2"", ""distractor3"")",NA,NA,NA,NA,NA,NA,NA,NA,NA,NA,NA,NA,NA,NA,NA,NA,NA,NA,NA
9b4c3,Shallow Question,html.Page,2_8_0_0,NA,NA,form submission,9219.04,354913,354911.28,354927.96,364147,364148,2023-04-10T08:33:20Z,364146.12,Niveau,kiwango,d,usimamizi,mwamali,mshairi,mwamali,NA,NA,"c(""distractor1"", ""distractor2"", ""distractor3"")",NA,NA,NA,NA,NA,NA,NA,NA,NA,NA,NA,NA,NA,NA,NA,NA,NA,NA,NA
9b4c3,Save data screen,canvas.Screen,2_8_0_1,NA,NA,timeout,500.28000000003,364152,364144.5,364146.12,364629.72,364631,2023-04-10T08:33:20Z,364646.4,Niveau,kiwango,d,usimamizi,mwamali,mshairi,NA,NA,0,"c(""distractor1"", ""distractor2"", ""distractor3"")",NA,NA,NA,NA,NA,NA,NA,NA,NA,NA,NA,NA,NA,NA,NA,NA,NA,NA,NA
9b4c3,shallow,flow.Sequence,2_8_0,NA,NA,completion,9701.76,354913,354911.28,354927.96,364629.72,364632,2023-04-10T08:33:20Z,364646.4,Niveau,kiwango,d,usimamizi,mwamali,mshairi,NA,NA,NA,"c(""distractor1"", ""distractor2"", ""distractor3"")",NA,NA,NA,NA,NA,NA,NA,NA,NA,NA,NA,NA,NA,NA,NA,NA,NA,NA,NA
9b4c3,task,flow.Sequence,2_8,NA,NA,completion,9701.76,354913,354911.28,354927.96,364629.72,364632,2023-04-10T08:33:20Z,364646.4,Niveau,kiwango,d,usimamizi,mwamali,mshairi,NA,NA,NA,"c(""distractor1"", ""distractor2"", ""distractor3"")",NA,NA,NA,NA,NA,NA,NA,NA,NA,NA,NA,NA,NA,NA,NA,NA,NA,NA,NA
9b4c3,Shallow Question,html.Page,2_9_0_0,NA,NA,form submission,7805.6,364633,364629.72,364646.4,372452,372452,2023-04-10T08:33:28Z,372461.6,Flexibilität,kubadilika,s,enjini,usikilivu,hesabu,kubadilika,NA,NA,"c(""distractor1"", ""distractor2"", ""distractor3"")",NA,NA,NA,NA,NA,NA,NA,NA,NA,NA,NA,NA,NA,NA,NA,NA,NA,NA,NA
9b4c3,Save data screen,canvas.Screen,2_9_0_1,NA,NA,timeout,500.28000000003,372455,372448.64,372461.6,372945.2,372946,2023-04-10T08:33:28Z,372961.88,Flexibilität,kubadilika,s,enjini,usikilivu,hesabu,NA,NA,1,"c(""distractor1"", ""distractor2"", ""distractor3"")",NA,NA,NA,NA,NA,NA,NA,NA,NA,NA,NA,NA,NA,NA,NA,NA,NA,NA,NA
9b4c3,shallow,flow.Sequence,2_9_0,NA,NA,completion,8298.8,364633,364629.72,364646.4,372945.2,372947,2023-04-10T08:33:28Z,372961.88,Flexibilität,kubadilika,s,enjini,usikilivu,hesabu,NA,NA,NA,"c(""distractor1"", ""distractor2"", ""distractor3"")",NA,NA,NA,NA,NA,NA,NA,NA,NA,NA,NA,NA,NA,NA,NA,NA,NA,NA,NA
9b4c3,task,flow.Sequence,2_9,NA,NA,completion,8298.8,364633,364629.72,364646.4,372945.2,372947,2023-04-10T08:33:28Z,372961.88,Flexibilität,kubadilika,s,enjini,usikilivu,hesabu,NA,NA,NA,"c(""distractor1"", ""distractor2"", ""distractor3"")",NA,NA,NA,NA,NA,NA,NA,NA,NA,NA,NA,NA,NA,NA,NA,NA,NA,NA,NA
9b4c3,Shallow Question,html.Page,2_10_0_0,NA,NA,form submission,5722.12,372948,372945.2,372961.88,378684,378685,2023-04-10T08:33:34Z,378692.64,Orientierung,urekebisho,d,uelekeo,marekebisho,utunzaji,utunzaji,NA,NA,"c(""distractor1"", ""distractor2"", ""distractor3"")",NA,NA,NA,NA,NA,NA,NA,NA,NA,NA,NA,NA,NA,NA,NA,NA,NA,NA,NA
9b4c3,Save data screen,canvas.Screen,2_10_0_1,NA,NA,timeout,500.45999999996,378686,378682.9,378692.64,379176.42,379178,2023-04-10T08:33:35Z,379193.1,Orientierung,urekebisho,d,uelekeo,marekebisho,utunzaji,NA,NA,0,"c(""distractor1"", ""distractor2"", ""distractor3"")",NA,NA,NA,NA,NA,NA,NA,NA,NA,NA,NA,NA,NA,NA,NA,NA,NA,NA,NA
9b4c3,shallow,flow.Sequence,2_10_0,NA,NA,completion,6214.54,372948,372945.2,372961.88,379176.42,379179,2023-04-10T08:33:35Z,379193.1,Orientierung,urekebisho,d,uelekeo,marekebisho,utunzaji,NA,NA,NA,"c(""distractor1"", ""distractor2"", ""distractor3"")",NA,NA,NA,NA,NA,NA,NA,NA,NA,NA,NA,NA,NA,NA,NA,NA,NA,NA,NA
9b4c3,task,flow.Sequence,2_10,NA,NA,completion,6214.54,372948,372945.2,372961.88,379176.42,379179,2023-04-10T08:33:35Z,379193.1,Orientierung,urekebisho,d,uelekeo,marekebisho,utunzaji,NA,NA,NA,"c(""distractor1"", ""distractor2"", ""distractor3"")",NA,NA,NA,NA,NA,NA,NA,NA,NA,NA,NA,NA,NA,NA,NA,NA,NA,NA,NA
9b4c3,Shallow Question,html.Page,2_11_0_0,NA,NA,form submission,5318.9,379179,379176.42,379193.1,384512,384513,2023-04-10T08:33:40Z,384511.36,Genehmigung,idhini,s,mwanamke,itikadi,fedheha,mwanamke,NA,NA,"c(""distractor1"", ""distractor2"", ""distractor3"")",NA,NA,NA,NA,NA,NA,NA,NA,NA,NA,NA,NA,NA,NA,NA,NA,NA,NA,NA
9b4c3,Save data screen,canvas.Screen,2_11_0_1,NA,NA,timeout,500.35999999999,384517,384510.92,384511.36,384995.04,384997,2023-04-10T08:33:40Z,385011.72,Genehmigung,idhini,s,mwanamke,itikadi,fedheha,NA,NA,0,"c(""distractor1"", ""distractor2"", ""distractor3"")",NA,NA,NA,NA,NA,NA,NA,NA,NA,NA,NA,NA,NA,NA,NA,NA,NA,NA,NA
9b4c3,shallow,flow.Sequence,2_11_0,NA,NA,completion,5801.94,379179,379176.42,379193.1,384995.04,384997,2023-04-10T08:33:40Z,385011.72,Genehmigung,idhini,s,mwanamke,itikadi,fedheha,NA,NA,NA,"c(""distractor1"", ""distractor2"", ""distractor3"")",NA,NA,NA,NA,NA,NA,NA,NA,NA,NA,NA,NA,NA,NA,NA,NA,NA,NA,NA
9b4c3,task,flow.Sequence,2_11,NA,NA,completion,5801.94,379179,379176.42,379193.1,384995.04,384998,2023-04-10T08:33:40Z,385011.72,Genehmigung,idhini,s,mwanamke,itikadi,fedheha,NA,NA,NA,"c(""distractor1"", ""distractor2"", ""distractor3"")",NA,NA,NA,NA,NA,NA,NA,NA,NA,NA,NA,NA,NA,NA,NA,NA,NA,NA,NA
9b4c3,Shallow Question,html.Page,2_12_0_0,NA,NA,form submission,6202.28,384998,384995.04,385011.72,391214,391214,2023-04-10T08:33:47Z,391213.14,Entwicklung,maendeleo,s,uangavu,mshindwa,badiliko,maendeleo,NA,NA,"c(""distractor1"", ""distractor2"", ""distractor3"")",NA,NA,NA,NA,NA,NA,NA,NA,NA,NA,NA,NA,NA,NA,NA,NA,NA,NA,NA
9b4c3,Save data screen,canvas.Screen,2_12_0_1,NA,NA,timeout,500.27999999997,391219,391212.52,391213.14,391696.74,391699,2023-04-10T08:33:47Z,391713.42,Entwicklung,maendeleo,s,uangavu,mshindwa,badiliko,NA,NA,1,"c(""distractor1"", ""distractor2"", ""distractor3"")",NA,NA,NA,NA,NA,NA,NA,NA,NA,NA,NA,NA,NA,NA,NA,NA,NA,NA,NA
9b4c3,shallow,flow.Sequence,2_12_0,NA,NA,completion,6685.02,384998,384995.04,385011.72,391696.74,391699,2023-04-10T08:33:47Z,391713.42,Entwicklung,maendeleo,s,uangavu,mshindwa,badiliko,NA,NA,NA,"c(""distractor1"", ""distractor2"", ""distractor3"")",NA,NA,NA,NA,NA,NA,NA,NA,NA,NA,NA,NA,NA,NA,NA,NA,NA,NA,NA
9b4c3,task,flow.Sequence,2_12,NA,NA,completion,6685.02,384998,384995.04,385011.72,391696.74,391700,2023-04-10T08:33:47Z,391713.42,Entwicklung,maendeleo,s,uangavu,mshindwa,badiliko,NA,NA,NA,"c(""distractor1"", ""distractor2"", ""distractor3"")",NA,NA,NA,NA,NA,NA,NA,NA,NA,NA,NA,NA,NA,NA,NA,NA,NA,NA,NA
9b4c3,Shallow Question,html.Page,2_13_0_0,NA,NA,form submission,5457.58,391701,391696.74,391713.42,397171,397172,2023-04-10T08:33:53Z,397179.22,Respekt,heshima,d,changamnao,upinzani,ufanisi,heshima,NA,NA,"c(""distractor1"", ""distractor2"", ""distractor3"")",NA,NA,NA,NA,NA,NA,NA,NA,NA,NA,NA,NA,NA,NA,NA,NA,NA,NA,NA
9b4c3,Save data screen,canvas.Screen,2_13_0_1,NA,NA,timeout,500.30000000005,397176,397166.84,397179.22,397662.84,397665,2023-04-10T08:33:53Z,397679.52,Respekt,heshima,d,changamnao,upinzani,ufanisi,NA,NA,1,"c(""distractor1"", ""distractor2"", ""distractor3"")",NA,NA,NA,NA,NA,NA,NA,NA,NA,NA,NA,NA,NA,NA,NA,NA,NA,NA,NA
9b4c3,shallow,flow.Sequence,2_13_0,NA,NA,completion,5949.42,391700,391696.74,391713.42,397662.84,397665,2023-04-10T08:33:53Z,397679.52,Respekt,heshima,d,changamnao,upinzani,ufanisi,NA,NA,NA,"c(""distractor1"", ""distractor2"", ""distractor3"")",NA,NA,NA,NA,NA,NA,NA,NA,NA,NA,NA,NA,NA,NA,NA,NA,NA,NA,NA
9b4c3,task,flow.Sequence,2_13,NA,NA,completion,5949.42,391700,391696.74,391713.42,397662.84,397666,2023-04-10T08:33:53Z,397679.52,Respekt,heshima,d,changamnao,upinzani,ufanisi,NA,NA,NA,"c(""distractor1"", ""distractor2"", ""distractor3"")",NA,NA,NA,NA,NA,NA,NA,NA,NA,NA,NA,NA,NA,NA,NA,NA,NA,NA,NA
9b4c3,Shallow Question,html.Page,2_14_0_0,NA,NA,form submission,11666.48,397667,397662.84,397679.52,409346,409347,2023-04-10T08:34:05Z,409356.88,Wechsel,ugeuzaji,d,utambulisho,kujenga,wasiwasi,utambulisho,NA,NA,"c(""distractor1"", ""distractor2"", ""distractor3"")",NA,NA,NA,NA,NA,NA,NA,NA,NA,NA,NA,NA,NA,NA,NA,NA,NA,NA,NA
9b4c3,Save data screen,canvas.Screen,2_14_0_1,NA,NA,timeout,500.33999999997,409352,409344.48,409356.88,409840.54,409842,2023-04-10T08:34:05Z,409857.22,Wechsel,ugeuzaji,d,utambulisho,kujenga,wasiwasi,NA,NA,0,"c(""distractor1"", ""distractor2"", ""distractor3"")",NA,NA,NA,NA,NA,NA,NA,NA,NA,NA,NA,NA,NA,NA,NA,NA,NA,NA,NA
9b4c3,shallow,flow.Sequence,2_14_0,NA,NA,completion,12161.02,397667,397662.84,397679.52,409840.54,409843,2023-04-10T08:34:05Z,409857.22,Wechsel,ugeuzaji,d,utambulisho,kujenga,wasiwasi,NA,NA,NA,"c(""distractor1"", ""distractor2"", ""distractor3"")",NA,NA,NA,NA,NA,NA,NA,NA,NA,NA,NA,NA,NA,NA,NA,NA,NA,NA,NA
9b4c3,task,flow.Sequence,2_14,NA,NA,completion,12161.02,397667,397662.84,397679.52,409840.54,409843,2023-04-10T08:34:05Z,409857.22,Wechsel,ugeuzaji,d,utambulisho,kujenga,wasiwasi,NA,NA,NA,"c(""distractor1"", ""distractor2"", ""distractor3"")",NA,NA,NA,NA,NA,NA,NA,NA,NA,NA,NA,NA,NA,NA,NA,NA,NA,NA,NA
9b4c3,Shallow Question,html.Page,2_15_0_0,NA,NA,form submission,7685.78,409844,409840.54,409857.22,417543,417545,2023-04-10T08:34:13Z,417551.86,Atmosphäre,angahewa,s,kuteseka,usahihi,kutoamini,angahewa,NA,NA,"c(""distractor1"", ""distractor2"", ""distractor3"")",NA,NA,NA,NA,NA,NA,NA,NA,NA,NA,NA,NA,NA,NA,NA,NA,NA,NA,NA
9b4c3,Save data screen,canvas.Screen,2_15_0_1,NA,NA,timeout,500.35999999999,417550,417538.88,417551.86,418035.54,418037,2023-04-10T08:34:13Z,418052.22,Atmosphäre,angahewa,s,kuteseka,usahihi,kutoamini,NA,NA,1,"c(""distractor1"", ""distractor2"", ""distractor3"")",NA,NA,NA,NA,NA,NA,NA,NA,NA,NA,NA,NA,NA,NA,NA,NA,NA,NA,NA
9b4c3,shallow,flow.Sequence,2_15_0,NA,NA,completion,8178.32,409844,409840.54,409857.22,418035.54,418040,2023-04-10T08:34:13Z,418052.22,Atmosphäre,angahewa,s,kuteseka,usahihi,kutoamini,NA,NA,NA,"c(""distractor1"", ""distractor2"", ""distractor3"")",NA,NA,NA,NA,NA,NA,NA,NA,NA,NA,NA,NA,NA,NA,NA,NA,NA,NA,NA
9b4c3,task,flow.Sequence,2_15,NA,NA,completion,8178.32,409844,409840.54,409857.22,418035.54,418041,2023-04-10T08:34:13Z,418052.22,Atmosphäre,angahewa,s,kuteseka,usahihi,kutoamini,NA,NA,NA,"c(""distractor1"", ""distractor2"", ""distractor3"")",NA,NA,NA,NA,NA,NA,NA,NA,NA,NA,NA,NA,NA,NA,NA,NA,NA,NA,NA
9b4c3,retrieval block 2 (multiple choice),flow.Loop,2,NA,NA,completion,124959.62,293063,293059.24,293075.92,418035.54,418042,2023-04-10T08:34:13Z,418052.22,NA,NA,NA,NA,NA,NA,NA,NA,NA,"c(""distractor1"", ""distractor2"", ""distractor3"")",NA,NA,NA,NA,NA,NA,NA,NA,NA,NA,NA,NA,NA,NA,NA,NA,NA,NA,NA
9b4c3,End,canvas.Screen,3,NA,keypress(Space),response,1724.78,418042,418035.54,418052.22,419777,419792,2023-04-10T08:34:15Z,419794.46,NA,NA,NA,NA,NA,NA,NA,NA,NA,NULL,NA,NA,NA,NA,NA,NA,NA,NA,NA,NA,NA,NA,NA,NA,NA,NA,NA,NA,NA
9b4c3,root,flow.Sequence,NA,NA,NA,completion,419206.64,551,553.68,570.36,419777,419793,2023-04-10T08:34:15Z,419794.46,NA,NA,NA,NA,NA,NA,NA,NA,NA,NULL,NA,NA,NA,NA,NA,NA,NA,NA,NA,NA,NA,NA,NA,NA,NA,NA,NA,NA,NA
