observation,sender,sender_type,sender_id,response,response_action,ended_on,duration,time_run,time_render,time_show,time_end,time_commit,timestamp,time_switch,distractors,german,swahili,enc,distractor1,distractor2,distractor3,response_2,x,correct,x_2,url_vp,url_sess,meta_labjs_version,meta_location,meta_user_agent,meta_platform,meta_language,meta_locale,meta_time_zone,meta_timezone_offset,meta_screen_width,meta_screen_height,meta_scroll_width,meta_scroll_height,meta_window_inner_width,meta_window_inner_height,meta_device_pixel_ratio,meta_labjs_build_flavor,meta_labjs_build_commit
8220,Introduction general,canvas.Screen,0,weiter,keypress(q),response,42729.76,342,351.64,368.24,43098,43115,2023-09-28T12:19:59Z,43119.24,NULL,NA,NA,NA,NA,NA,NA,NA,NA,NA,NA,183,1,20.2.4,https://neurocog.fernuni.ch/studies/vweber/sliechti/encoding_immediate/index.html?vp=183&sess=1,Mozilla/5.0 (Windows NT 10.0; Win64; x64; rv:109.0) Gecko/20100101 Firefox/118.0,Win32,de,de-CH,Europe/Zurich,-120,1280,720,1280,587,1280,587,1.5,production,f5b4a49f956347addd546a832a3327688c2c0fef
8220,Introduction practice,canvas.Screen,1_0,NA,keypress(Space),response,8071.76,43118,43117.82,43119.24,51191,51206,2023-09-28T12:20:07Z,51212.14,NULL,NA,NA,NA,NA,NA,NA,NA,NA,NA,NA,NA,NA,NA,NA,NA,NA,NA,NA,NA,NA,NA,NA,NA,NA,NA,NA,NA,NA,NA
8220,deep,flow.Sequence,1_1_0_0,NA,NA,skipped,NA,51206,NA,NA,51191,51207,2023-09-28T12:20:07Z,51212.14,"c(""distractor1"", ""distractor2"", ""distractor3"")",Gegenwart,hadhara,s,katiba,jokofu,mikopo,NA,NA,NA,NA,NA,NA,NA,NA,NA,NA,NA,NA,NA,NA,NA,NA,NA,NA,NA,NA,NA,NA,NA
8220,Shallow Question,html.Page,1_1_0_1_0,NA,NA,form submission,22617.86,51208,51207.58,51212.14,73830,73830,2023-09-28T12:20:30Z,73826.76,"c(""distractor1"", ""distractor2"", ""distractor3"")",Gegenwart,hadhara,s,katiba,jokofu,mikopo,mikopo,NA,NA,NA,NA,NA,NA,NA,NA,NA,NA,NA,NA,NA,NA,NA,NA,NA,NA,NA,NA,NA,NA
8220,"""Richtig""-Screen",canvas.Screen,1_1_0_1_1,NA,NA,skipped,NA,73834,NA,NA,73830,73834,2023-09-28T12:20:30Z,73826.76,"c(""distractor1"", ""distractor2"", ""distractor3"")",Gegenwart,hadhara,s,katiba,jokofu,mikopo,NA,NA,NA,NA,NA,NA,NA,NA,NA,NA,NA,NA,NA,NA,NA,NA,NA,NA,NA,NA,NA,NA,NA
8220,"""Falsch""-Screen",canvas.Screen,1_1_0_1_2,NA,NA,timeout,4998.84,73836,73805.04,73826.76,78809,78811,2023-09-28T12:20:35Z,78825.6,"c(""distractor1"", ""distractor2"", ""distractor3"")",Gegenwart,hadhara,s,katiba,jokofu,mikopo,NA,NA,0,NA,NA,NA,NA,NA,NA,NA,NA,NA,NA,NA,NA,NA,NA,NA,NA,NA,NA,NA,NA
8220,shallow,flow.Sequence,1_1_0_1,NA,NA,completion,27596.86,51208,51207.58,51212.14,78809,78813,2023-09-28T12:20:35Z,78825.6,"c(""distractor1"", ""distractor2"", ""distractor3"")",Gegenwart,hadhara,s,katiba,jokofu,mikopo,NA,NA,NA,NA,NA,NA,NA,NA,NA,NA,NA,NA,NA,NA,NA,NA,NA,NA,NA,NA,NA,NA,NA
8220,task,flow.Sequence,1_1_0,NA,NA,completion,27596.86,51206,51207.58,51212.14,78809,78814,2023-09-28T12:20:35Z,78825.6,"c(""distractor1"", ""distractor2"", ""distractor3"")",Gegenwart,hadhara,s,katiba,jokofu,mikopo,NA,NA,NA,NA,NA,NA,NA,NA,NA,NA,NA,NA,NA,NA,NA,NA,NA,NA,NA,NA,NA,NA,NA
8220,Deep Question,html.Page,1_1_1_0_0,NA,NA,form submission,7915.4,78815,78809,78825.6,86741,86742,2023-09-28T12:20:43Z,86741.68,"c(""distractor1"", ""distractor2"", ""distractor3"")",Qualität,mtindo,d,NA,NA,NA,hallo,NA,NA,NA,NA,NA,NA,NA,NA,NA,NA,NA,NA,NA,NA,NA,NA,NA,NA,NA,NA,NA,NA
8220,"""Richtig""-Screen",canvas.Screen,1_1_1_0_1,NA,NA,skipped,NA,86746,NA,NA,86741,86747,2023-09-28T12:20:43Z,86741.68,"c(""distractor1"", ""distractor2"", ""distractor3"")",Qualität,mtindo,d,NA,NA,NA,NA,NA,NA,NA,NA,NA,NA,NA,NA,NA,NA,NA,NA,NA,NA,NA,NA,NA,NA,NA,NA,NA,NA
8220,"""Falsch""-Screen",canvas.Screen,1_1_1_0_2,NA,NA,timeout,4999.04,86750,86737.08,86741.68,91724.12,91727,2023-09-28T12:20:48Z,91740.72,"c(""distractor1"", ""distractor2"", ""distractor3"")",Qualität,mtindo,d,NA,NA,NA,NA,NA,0,NA,NA,NA,NA,NA,NA,NA,NA,NA,NA,NA,NA,NA,NA,NA,NA,NA,NA,NA,NA
8220,deep,flow.Sequence,1_1_1_0,NA,NA,completion,12898.52,78815,78809,78825.6,91724.12,91728,2023-09-28T12:20:48Z,91740.72,"c(""distractor1"", ""distractor2"", ""distractor3"")",Qualität,mtindo,d,NA,NA,NA,NA,NA,NA,NA,NA,NA,NA,NA,NA,NA,NA,NA,NA,NA,NA,NA,NA,NA,NA,NA,NA,NA,NA
8220,shallow,flow.Sequence,1_1_1_1,NA,NA,skipped,NA,91728,NA,NA,91724.12,91728,2023-09-28T12:20:48Z,91740.72,"c(""distractor1"", ""distractor2"", ""distractor3"")",Qualität,mtindo,d,NA,NA,NA,NA,NA,NA,NA,NA,NA,NA,NA,NA,NA,NA,NA,NA,NA,NA,NA,NA,NA,NA,NA,NA,NA,NA
8220,task,flow.Sequence,1_1_1,NA,NA,completion,12898.52,78815,78809,78825.6,91724.12,91729,2023-09-28T12:20:48Z,91740.72,"c(""distractor1"", ""distractor2"", ""distractor3"")",Qualität,mtindo,d,NA,NA,NA,NA,NA,NA,NA,NA,NA,NA,NA,NA,NA,NA,NA,NA,NA,NA,NA,NA,NA,NA,NA,NA,NA,NA
8220,deep,flow.Sequence,1_1_2_0,NA,NA,skipped,NA,91729,NA,NA,91724.12,91730,2023-09-28T12:20:48Z,91740.72,"c(""distractor1"", ""distractor2"", ""distractor3"")",Kritik,lawama,s,dereva,nafasi,mawazo,NA,NA,NA,NA,NA,NA,NA,NA,NA,NA,NA,NA,NA,NA,NA,NA,NA,NA,NA,NA,NA,NA,NA
8220,Shallow Question,html.Page,1_1_2_1_0,NA,NA,form submission,8495.28,91730,91724.12,91740.72,100236,100236,2023-09-28T12:20:56Z,100240.02,"c(""distractor1"", ""distractor2"", ""distractor3"")",Kritik,lawama,s,dereva,nafasi,mawazo,nafasi,NA,NA,NA,NA,NA,NA,NA,NA,NA,NA,NA,NA,NA,NA,NA,NA,NA,NA,NA,NA,NA,NA
8220,"""Richtig""-Screen",canvas.Screen,1_1_2_1_1,NA,NA,skipped,NA,100243,NA,NA,100236,100244,2023-09-28T12:20:56Z,100240.02,"c(""distractor1"", ""distractor2"", ""distractor3"")",Kritik,lawama,s,dereva,nafasi,mawazo,NA,NA,NA,NA,NA,NA,NA,NA,NA,NA,NA,NA,NA,NA,NA,NA,NA,NA,NA,NA,NA,NA,NA
8220,"""Falsch""-Screen",canvas.Screen,1_1_2_1_2,NA,NA,timeout,4999.06,100249,100232.44,100240.02,105222.48,105225,2023-09-28T12:21:01Z,105239.08,"c(""distractor1"", ""distractor2"", ""distractor3"")",Kritik,lawama,s,dereva,nafasi,mawazo,NA,NA,0,NA,NA,NA,NA,NA,NA,NA,NA,NA,NA,NA,NA,NA,NA,NA,NA,NA,NA,NA,NA
8220,shallow,flow.Sequence,1_1_2_1,NA,NA,completion,13481.76,91730,91724.12,91740.72,105222.48,105225,2023-09-28T12:21:01Z,105239.08,"c(""distractor1"", ""distractor2"", ""distractor3"")",Kritik,lawama,s,dereva,nafasi,mawazo,NA,NA,NA,NA,NA,NA,NA,NA,NA,NA,NA,NA,NA,NA,NA,NA,NA,NA,NA,NA,NA,NA,NA
8220,task,flow.Sequence,1_1_2,NA,NA,completion,13481.76,91729,91724.12,91740.72,105222.48,105226,2023-09-28T12:21:01Z,105239.08,"c(""distractor1"", ""distractor2"", ""distractor3"")",Kritik,lawama,s,dereva,nafasi,mawazo,NA,NA,NA,NA,NA,NA,NA,NA,NA,NA,NA,NA,NA,NA,NA,NA,NA,NA,NA,NA,NA,NA,NA
8220,Deep Question,html.Page,1_1_3_0_0,NA,NA,form submission,15120.92,105226,105222.48,105239.08,120360,120360,2023-09-28T12:21:16Z,120370.8,"c(""distractor1"", ""distractor2"", ""distractor3"")",Schatten,kivuli,d,NA,NA,NA,heute,NA,NA,NA,NA,NA,NA,NA,NA,NA,NA,NA,NA,NA,NA,NA,NA,NA,NA,NA,NA,NA,NA
8220,"""Richtig""-Screen",canvas.Screen,1_1_3_0_1,NA,NA,skipped,NA,120366,NA,NA,120360,120367,2023-09-28T12:21:16Z,120370.8,"c(""distractor1"", ""distractor2"", ""distractor3"")",Schatten,kivuli,d,NA,NA,NA,NA,NA,NA,NA,NA,NA,NA,NA,NA,NA,NA,NA,NA,NA,NA,NA,NA,NA,NA,NA,NA,NA,NA
8220,"""Falsch""-Screen",canvas.Screen,1_1_3_0_2,NA,NA,timeout,4998.88,120373,120356.52,120370.8,125353.08,125355,2023-09-28T12:21:21Z,125369.68,"c(""distractor1"", ""distractor2"", ""distractor3"")",Schatten,kivuli,d,NA,NA,NA,NA,NA,0,NA,NA,NA,NA,NA,NA,NA,NA,NA,NA,NA,NA,NA,NA,NA,NA,NA,NA,NA,NA
8220,deep,flow.Sequence,1_1_3_0,NA,NA,completion,20114,105226,105222.48,105239.08,125353.08,125356,2023-09-28T12:21:21Z,125369.68,"c(""distractor1"", ""distractor2"", ""distractor3"")",Schatten,kivuli,d,NA,NA,NA,NA,NA,NA,NA,NA,NA,NA,NA,NA,NA,NA,NA,NA,NA,NA,NA,NA,NA,NA,NA,NA,NA,NA
8220,shallow,flow.Sequence,1_1_3_1,NA,NA,skipped,NA,125356,NA,NA,125353.08,125357,2023-09-28T12:21:21Z,125369.68,"c(""distractor1"", ""distractor2"", ""distractor3"")",Schatten,kivuli,d,NA,NA,NA,NA,NA,NA,NA,NA,NA,NA,NA,NA,NA,NA,NA,NA,NA,NA,NA,NA,NA,NA,NA,NA,NA,NA
8220,task,flow.Sequence,1_1_3,NA,NA,completion,20114,105226,105222.48,105239.08,125353.08,125357,2023-09-28T12:21:21Z,125369.68,"c(""distractor1"", ""distractor2"", ""distractor3"")",Schatten,kivuli,d,NA,NA,NA,NA,NA,NA,NA,NA,NA,NA,NA,NA,NA,NA,NA,NA,NA,NA,NA,NA,NA,NA,NA,NA,NA,NA
8220,deep,flow.Sequence,1_1_4_0,NA,NA,skipped,NA,125358,NA,NA,125353.08,125359,2023-09-28T12:21:21Z,125369.68,"c(""distractor1"", ""distractor2"", ""distractor3"")",Rückhalt,msaada,s,muhula,auwali,kiwimbe,NA,NA,NA,NA,NA,NA,NA,NA,NA,NA,NA,NA,NA,NA,NA,NA,NA,NA,NA,NA,NA,NA,NA
8220,Shallow Question,html.Page,1_1_4_1_0,NA,NA,form submission,10728.32,125360,125353.08,125369.68,136098,136098,2023-09-28T12:21:32Z,136117.68,"c(""distractor1"", ""distractor2"", ""distractor3"")",Rückhalt,msaada,s,muhula,auwali,kiwimbe,auwali,NA,NA,NA,NA,NA,NA,NA,NA,NA,NA,NA,NA,NA,NA,NA,NA,NA,NA,NA,NA,NA,NA
8220,"""Richtig""-Screen",canvas.Screen,1_1_4_1_1,NA,NA,skipped,NA,136101,NA,NA,136098,136101,2023-09-28T12:21:32Z,136117.68,"c(""distractor1"", ""distractor2"", ""distractor3"")",Rückhalt,msaada,s,muhula,auwali,kiwimbe,NA,NA,NA,NA,NA,NA,NA,NA,NA,NA,NA,NA,NA,NA,NA,NA,NA,NA,NA,NA,NA,NA,NA
8220,"""Falsch""-Screen",canvas.Screen,1_1_4_1_2,NA,NA,timeout,5000.06,136104,136101.06,136117.68,141101.12,141102,2023-09-28T12:21:37Z,141117.74,"c(""distractor1"", ""distractor2"", ""distractor3"")",Rückhalt,msaada,s,muhula,auwali,kiwimbe,NA,NA,0,NA,NA,NA,NA,NA,NA,NA,NA,NA,NA,NA,NA,NA,NA,NA,NA,NA,NA,NA,NA
8220,shallow,flow.Sequence,1_1_4_1,NA,NA,completion,15731.44,125360,125353.08,125369.68,141101.12,141103,2023-09-28T12:21:37Z,141117.74,"c(""distractor1"", ""distractor2"", ""distractor3"")",Rückhalt,msaada,s,muhula,auwali,kiwimbe,NA,NA,NA,NA,NA,NA,NA,NA,NA,NA,NA,NA,NA,NA,NA,NA,NA,NA,NA,NA,NA,NA,NA
8220,task,flow.Sequence,1_1_4,NA,NA,completion,15731.44,125358,125353.08,125369.68,141101.12,141104,2023-09-28T12:21:37Z,141117.74,"c(""distractor1"", ""distractor2"", ""distractor3"")",Rückhalt,msaada,s,muhula,auwali,kiwimbe,NA,NA,NA,NA,NA,NA,NA,NA,NA,NA,NA,NA,NA,NA,NA,NA,NA,NA,NA,NA,NA,NA,NA
8220,Deep Question,html.Page,1_1_5_0_0,NA,NA,form submission,8836.26,141104,141101.12,141117.74,149954,149954,2023-09-28T12:21:46Z,149965.9,"c(""distractor1"", ""distractor2"", ""distractor3"")",Gesundheit,salama,d,NA,NA,NA,jetzt,NA,NA,NA,NA,NA,NA,NA,NA,NA,NA,NA,NA,NA,NA,NA,NA,NA,NA,NA,NA,NA,NA
8220,"""Richtig""-Screen",canvas.Screen,1_1_5_0_1,NA,NA,skipped,NA,149957,NA,NA,149954,149958,2023-09-28T12:21:46Z,149965.9,"c(""distractor1"", ""distractor2"", ""distractor3"")",Gesundheit,salama,d,NA,NA,NA,NA,NA,NA,NA,NA,NA,NA,NA,NA,NA,NA,NA,NA,NA,NA,NA,NA,NA,NA,NA,NA,NA,NA
8220,"""Falsch""-Screen",canvas.Screen,1_1_5_0_2,NA,NA,timeout,5000,149961,149950.62,149965.9,154949.3,154951,2023-09-28T12:21:51Z,154965.9,"c(""distractor1"", ""distractor2"", ""distractor3"")",Gesundheit,salama,d,NA,NA,NA,NA,NA,0,NA,NA,NA,NA,NA,NA,NA,NA,NA,NA,NA,NA,NA,NA,NA,NA,NA,NA,NA,NA
8220,deep,flow.Sequence,1_1_5_0,NA,NA,completion,13831.56,141104,141101.12,141117.74,154949.3,154952,2023-09-28T12:21:51Z,154965.9,"c(""distractor1"", ""distractor2"", ""distractor3"")",Gesundheit,salama,d,NA,NA,NA,NA,NA,NA,NA,NA,NA,NA,NA,NA,NA,NA,NA,NA,NA,NA,NA,NA,NA,NA,NA,NA,NA,NA
8220,shallow,flow.Sequence,1_1_5_1,NA,NA,skipped,NA,154952,NA,NA,154949.3,154952,2023-09-28T12:21:51Z,154965.9,"c(""distractor1"", ""distractor2"", ""distractor3"")",Gesundheit,salama,d,NA,NA,NA,NA,NA,NA,NA,NA,NA,NA,NA,NA,NA,NA,NA,NA,NA,NA,NA,NA,NA,NA,NA,NA,NA,NA
8220,task,flow.Sequence,1_1_5,NA,NA,completion,13831.56,141104,141101.12,141117.74,154949.3,154953,2023-09-28T12:21:51Z,154965.9,"c(""distractor1"", ""distractor2"", ""distractor3"")",Gesundheit,salama,d,NA,NA,NA,NA,NA,NA,NA,NA,NA,NA,NA,NA,NA,NA,NA,NA,NA,NA,NA,NA,NA,NA,NA,NA,NA,NA
8220,block,flow.Loop,1_1,NA,NA,completion,103737.16,51206,51207.58,51212.14,154949.3,154954,2023-09-28T12:21:51Z,154965.9,"c(""distractor1"", ""distractor2"", ""distractor3"")",NA,NA,NA,NA,NA,NA,NA,NA,NA,NA,NA,NA,NA,NA,NA,NA,NA,NA,NA,NA,NA,NA,NA,NA,NA,NA,NA,NA,NA
8220,Practice,flow.Sequence,1,NA,NA,completion,111830.06,43118,43117.82,43119.24,154949.3,154954,2023-09-28T12:21:51Z,154965.9,NULL,NA,NA,NA,NA,NA,NA,NA,NA,NA,NA,NA,NA,NA,NA,NA,NA,NA,NA,NA,NA,NA,NA,NA,NA,NA,NA,NA,NA,NA
8220,Experiment start,canvas.Screen,2,weiter,keypress(q),response,34428.1,154954,154949.3,154965.9,189394,189401,2023-09-28T12:22:25Z,189496.72,NULL,NA,NA,NA,NA,NA,NA,NA,NA,NA,NA,NA,NA,NA,NA,NA,NA,NA,NA,NA,NA,NA,NA,NA,NA,NA,NA,NA,NA,NA
8220,deep,flow.Sequence,3_0_0_0_0_0,NA,NA,skipped,NA,189496,NA,NA,189394,189496,2023-09-28T12:22:25Z,189496.72,NULL,Atmosphäre,angahewa,s,kuteseka,usahihi,kutoamini,NA,sdf,NA,0,NA,NA,NA,NA,NA,NA,NA,NA,NA,NA,NA,NA,NA,NA,NA,NA,NA,NA,NA
8220,Shallow Question,html.Page,3_0_0_0_0_1_0,NA,NA,form submission,8454.28,189496,189496.44,189496.72,197951,197952,2023-09-28T12:22:34Z,197960.82,NULL,Atmosphäre,angahewa,s,kuteseka,usahihi,kutoamini,usahihi,NA,NA,0,NA,NA,NA,NA,NA,NA,NA,NA,NA,NA,NA,NA,NA,NA,NA,NA,NA,NA,NA
8220,"""Richtig""-Screen",canvas.Screen,3_0_0_0_0_1_1,NA,NA,skipped,NA,197955,NA,NA,197951,197955,2023-09-28T12:22:34Z,197960.82,NULL,Atmosphäre,angahewa,s,kuteseka,usahihi,kutoamini,NA,sdf,NA,0,NA,NA,NA,NA,NA,NA,NA,NA,NA,NA,NA,NA,NA,NA,NA,NA,NA,NA,NA
8220,"""Falsch""-Screen",canvas.Screen,3_0_0_0_0_1_2,NA,NA,timeout,4998.68,197958,197949.18,197960.82,202942.9,202945,2023-09-28T12:22:39Z,202959.5,NULL,Atmosphäre,angahewa,s,kuteseka,usahihi,kutoamini,NA,sdf,0,0,NA,NA,NA,NA,NA,NA,NA,NA,NA,NA,NA,NA,NA,NA,NA,NA,NA,NA,NA
8220,shallow,flow.Sequence,3_0_0_0_0_1,NA,NA,completion,13446.18,189496,189496.44,189496.72,202942.9,202946,2023-09-28T12:22:39Z,202959.5,NULL,Atmosphäre,angahewa,s,kuteseka,usahihi,kutoamini,NA,sdf,NA,0,NA,NA,NA,NA,NA,NA,NA,NA,NA,NA,NA,NA,NA,NA,NA,NA,NA,NA,NA
8220,task,flow.Sequence,3_0_0_0_0,NA,NA,completion,13446.18,189496,189496.44,189496.72,202942.9,202946,2023-09-28T12:22:39Z,202959.5,NULL,Atmosphäre,angahewa,s,kuteseka,usahihi,kutoamini,NA,sdf,NA,0,NA,NA,NA,NA,NA,NA,NA,NA,NA,NA,NA,NA,NA,NA,NA,NA,NA,NA,NA
8220,deep,flow.Sequence,3_0_0_0_1_0,NA,NA,skipped,NA,202947,NA,NA,202942.9,202947,2023-09-28T12:22:39Z,202959.5,NULL,Theorie,nadharia,s,ushungi,mkutano,uwakilishi,NA,sdf,NA,0,NA,NA,NA,NA,NA,NA,NA,NA,NA,NA,NA,NA,NA,NA,NA,NA,NA,NA,NA
8220,Shallow Question,html.Page,3_0_0_0_1_1_0,NA,NA,form submission,8394.5,202948,202942.9,202959.5,211354,211354,2023-09-28T12:22:47Z,211359.06,NULL,Theorie,nadharia,s,ushungi,mkutano,uwakilishi,nadharia,NA,NA,0,NA,NA,NA,NA,NA,NA,NA,NA,NA,NA,NA,NA,NA,NA,NA,NA,NA,NA,NA
8220,"""Richtig""-Screen",canvas.Screen,3_0_0_0_1_1_1,NA,NA,timeout,4999.12,211356,211352.32,211359.06,216341.56,216347,2023-09-28T12:22:52Z,216358.18,NULL,Theorie,nadharia,s,ushungi,mkutano,uwakilishi,NA,sdf,1,0,NA,NA,NA,NA,NA,NA,NA,NA,NA,NA,NA,NA,NA,NA,NA,NA,NA,NA,NA
8220,"""Falsch""-Screen",canvas.Screen,3_0_0_0_1_1_2,NA,NA,skipped,NA,216361,NA,NA,216341.56,216361,2023-09-28T12:22:52Z,216358.18,NULL,Theorie,nadharia,s,ushungi,mkutano,uwakilishi,NA,sdf,NA,0,NA,NA,NA,NA,NA,NA,NA,NA,NA,NA,NA,NA,NA,NA,NA,NA,NA,NA,NA
8220,shallow,flow.Sequence,3_0_0_0_1_1,NA,NA,completion,13382.06,202947,202942.9,202959.5,216341.56,216361,2023-09-28T12:22:52Z,216358.18,NULL,Theorie,nadharia,s,ushungi,mkutano,uwakilishi,NA,sdf,NA,0,NA,NA,NA,NA,NA,NA,NA,NA,NA,NA,NA,NA,NA,NA,NA,NA,NA,NA,NA
8220,task,flow.Sequence,3_0_0_0_1,NA,NA,completion,13382.06,202947,202942.9,202959.5,216341.56,216362,2023-09-28T12:22:52Z,216358.18,NULL,Theorie,nadharia,s,ushungi,mkutano,uwakilishi,NA,sdf,NA,0,NA,NA,NA,NA,NA,NA,NA,NA,NA,NA,NA,NA,NA,NA,NA,NA,NA,NA,NA
8220,deep,flow.Sequence,3_0_0_0_2_0,NA,NA,skipped,NA,216362,NA,NA,216341.56,216362,2023-09-28T12:22:52Z,216358.18,NULL,Schock,mshtuko,s,biashara,kukataza,vichekesho,NA,sdf,NA,0,NA,NA,NA,NA,NA,NA,NA,NA,NA,NA,NA,NA,NA,NA,NA,NA,NA,NA,NA
8220,Shallow Question,html.Page,3_0_0_0_2_1_0,NA,NA,form submission,7766.82,216364,216341.56,216358.18,224125,224127,2023-09-28T12:23:00Z,224124.14,NULL,Schock,mshtuko,s,biashara,kukataza,vichekesho,kukataza,NA,NA,0,NA,NA,NA,NA,NA,NA,NA,NA,NA,NA,NA,NA,NA,NA,NA,NA,NA,NA,NA
8220,"""Richtig""-Screen",canvas.Screen,3_0_0_0_2_1_1,NA,NA,skipped,NA,224131,NA,NA,224125,224132,2023-09-28T12:23:00Z,224124.14,NULL,Schock,mshtuko,s,biashara,kukataza,vichekesho,NA,sdf,NA,0,NA,NA,NA,NA,NA,NA,NA,NA,NA,NA,NA,NA,NA,NA,NA,NA,NA,NA,NA
8220,"""Falsch""-Screen",canvas.Screen,3_0_0_0_2_1_2,NA,NA,timeout,4999.04,224135,224119.4,224124.14,229106.58,229107,2023-09-28T12:23:05Z,229123.18,NULL,Schock,mshtuko,s,biashara,kukataza,vichekesho,NA,sdf,0,0,NA,NA,NA,NA,NA,NA,NA,NA,NA,NA,NA,NA,NA,NA,NA,NA,NA,NA,NA
8220,shallow,flow.Sequence,3_0_0_0_2_1,NA,NA,completion,12748.4,216363,216341.56,216358.18,229106.58,229107,2023-09-28T12:23:05Z,229123.18,NULL,Schock,mshtuko,s,biashara,kukataza,vichekesho,NA,sdf,NA,0,NA,NA,NA,NA,NA,NA,NA,NA,NA,NA,NA,NA,NA,NA,NA,NA,NA,NA,NA
8220,task,flow.Sequence,3_0_0_0_2,NA,NA,completion,12748.4,216362,216341.56,216358.18,229106.58,229108,2023-09-28T12:23:05Z,229123.18,NULL,Schock,mshtuko,s,biashara,kukataza,vichekesho,NA,sdf,NA,0,NA,NA,NA,NA,NA,NA,NA,NA,NA,NA,NA,NA,NA,NA,NA,NA,NA,NA,NA
8220,deep,flow.Sequence,3_0_0_0_3_0,NA,NA,skipped,NA,229108,NA,NA,229106.58,229108,2023-09-28T12:23:05Z,229123.18,NULL,Flexibilität,kubadilika,s,enjini,usikilivu,hesabu,NA,sdf,NA,0,NA,NA,NA,NA,NA,NA,NA,NA,NA,NA,NA,NA,NA,NA,NA,NA,NA,NA,NA
8220,Shallow Question,html.Page,3_0_0_0_3_1_0,NA,NA,form submission,9927.82,229109,229106.58,229123.18,239051,239052,2023-09-28T12:23:15Z,239055.5,NULL,Flexibilität,kubadilika,s,enjini,usikilivu,hesabu,usikilivu,NA,NA,0,NA,NA,NA,NA,NA,NA,NA,NA,NA,NA,NA,NA,NA,NA,NA,NA,NA,NA,NA
8220,"""Richtig""-Screen",canvas.Screen,3_0_0_0_3_1_1,NA,NA,skipped,NA,239057,NA,NA,239051,239057,2023-09-28T12:23:15Z,239055.5,NULL,Flexibilität,kubadilika,s,enjini,usikilivu,hesabu,NA,sdf,NA,0,NA,NA,NA,NA,NA,NA,NA,NA,NA,NA,NA,NA,NA,NA,NA,NA,NA,NA,NA
8220,"""Falsch""-Screen",canvas.Screen,3_0_0_0_3_1_2,NA,NA,timeout,4999.08,239062,239047.84,239055.5,244037.96,244040,2023-09-28T12:23:20Z,244054.58,NULL,Flexibilität,kubadilika,s,enjini,usikilivu,hesabu,NA,sdf,0,0,NA,NA,NA,NA,NA,NA,NA,NA,NA,NA,NA,NA,NA,NA,NA,NA,NA,NA,NA
8220,shallow,flow.Sequence,3_0_0_0_3_1,NA,NA,completion,14914.78,229108,229106.58,229123.18,244037.96,244041,2023-09-28T12:23:20Z,244054.58,NULL,Flexibilität,kubadilika,s,enjini,usikilivu,hesabu,NA,sdf,NA,0,NA,NA,NA,NA,NA,NA,NA,NA,NA,NA,NA,NA,NA,NA,NA,NA,NA,NA,NA
8220,task,flow.Sequence,3_0_0_0_3,NA,NA,completion,14914.78,229108,229106.58,229123.18,244037.96,244042,2023-09-28T12:23:20Z,244054.58,NULL,Flexibilität,kubadilika,s,enjini,usikilivu,hesabu,NA,sdf,NA,0,NA,NA,NA,NA,NA,NA,NA,NA,NA,NA,NA,NA,NA,NA,NA,NA,NA,NA,NA
8220,Deep Question,html.Page,3_0_0_0_4_0_0,NA,NA,form submission,7685.42,244042,244037.96,244054.58,251740,251741,2023-09-28T12:23:28Z,251753.28,NULL,Hoffnung,matarajio,d,NA,NA,NA,hope,NA,NA,0,NA,NA,NA,NA,NA,NA,NA,NA,NA,NA,NA,NA,NA,NA,NA,NA,NA,NA,NA
8220,"""Richtig""-Screen",canvas.Screen,3_0_0_0_4_0_1,NA,NA,skipped,NA,251748,NA,NA,251740,251748,2023-09-28T12:23:28Z,251753.28,NULL,Hoffnung,matarajio,d,NA,NA,NA,NA,sdf,NA,0,NA,NA,NA,NA,NA,NA,NA,NA,NA,NA,NA,NA,NA,NA,NA,NA,NA,NA,NA
8220,"""Falsch""-Screen",canvas.Screen,3_0_0_0_4_0_2,NA,NA,timeout,4999.7,251754,251737.3,251753.28,256736.36,256739,2023-09-28T12:23:33Z,256752.98,NULL,Hoffnung,matarajio,d,NA,NA,NA,NA,sdf,0,0,NA,NA,NA,NA,NA,NA,NA,NA,NA,NA,NA,NA,NA,NA,NA,NA,NA,NA,NA
8220,deep,flow.Sequence,3_0_0_0_4_0,NA,NA,completion,12681.78,244042,244037.96,244054.58,256736.36,256740,2023-09-28T12:23:33Z,256752.98,NULL,Hoffnung,matarajio,d,NA,NA,NA,NA,sdf,NA,0,NA,NA,NA,NA,NA,NA,NA,NA,NA,NA,NA,NA,NA,NA,NA,NA,NA,NA,NA
8220,shallow,flow.Sequence,3_0_0_0_4_1,NA,NA,skipped,NA,256740,NA,NA,256736.36,256741,2023-09-28T12:23:33Z,256752.98,NULL,Hoffnung,matarajio,d,NA,NA,NA,NA,sdf,NA,0,NA,NA,NA,NA,NA,NA,NA,NA,NA,NA,NA,NA,NA,NA,NA,NA,NA,NA,NA
8220,task,flow.Sequence,3_0_0_0_4,NA,NA,completion,12681.78,244042,244037.96,244054.58,256736.36,256741,2023-09-28T12:23:33Z,256752.98,NULL,Hoffnung,matarajio,d,NA,NA,NA,NA,sdf,NA,0,NA,NA,NA,NA,NA,NA,NA,NA,NA,NA,NA,NA,NA,NA,NA,NA,NA,NA,NA
8220,Deep Question,html.Page,3_0_0_0_5_0_0,NA,NA,form submission,15079.02,256742,256736.36,256752.98,271832,271832,2023-09-28T12:23:48Z,271834.46,NULL,Wechsel,ugeuzaji,d,NA,NA,NA,change,NA,NA,0,NA,NA,NA,NA,NA,NA,NA,NA,NA,NA,NA,NA,NA,NA,NA,NA,NA,NA,NA
8220,"""Richtig""-Screen",canvas.Screen,3_0_0_0_5_0_1,NA,NA,skipped,NA,271835,NA,NA,271832,271835,2023-09-28T12:23:48Z,271834.46,NULL,Wechsel,ugeuzaji,d,NA,NA,NA,NA,sdf,NA,0,NA,NA,NA,NA,NA,NA,NA,NA,NA,NA,NA,NA,NA,NA,NA,NA,NA,NA,NA
8220,"""Falsch""-Screen",canvas.Screen,3_0_0_0_5_0_2,NA,NA,timeout,4999.46,271838,271831.36,271834.46,276817.3,276820,2023-09-28T12:23:53Z,276833.92,NULL,Wechsel,ugeuzaji,d,NA,NA,NA,NA,sdf,0,0,NA,NA,NA,NA,NA,NA,NA,NA,NA,NA,NA,NA,NA,NA,NA,NA,NA,NA,NA
8220,deep,flow.Sequence,3_0_0_0_5_0,NA,NA,completion,20064.32,256742,256736.36,256752.98,276817.3,276822,2023-09-28T12:23:53Z,276833.92,NULL,Wechsel,ugeuzaji,d,NA,NA,NA,NA,sdf,NA,0,NA,NA,NA,NA,NA,NA,NA,NA,NA,NA,NA,NA,NA,NA,NA,NA,NA,NA,NA
8220,shallow,flow.Sequence,3_0_0_0_5_1,NA,NA,skipped,NA,276823,NA,NA,276817.3,276823,2023-09-28T12:23:53Z,276833.92,NULL,Wechsel,ugeuzaji,d,NA,NA,NA,NA,sdf,NA,0,NA,NA,NA,NA,NA,NA,NA,NA,NA,NA,NA,NA,NA,NA,NA,NA,NA,NA,NA
8220,task,flow.Sequence,3_0_0_0_5,NA,NA,completion,20064.32,256742,256736.36,256752.98,276817.3,276824,2023-09-28T12:23:53Z,276833.92,NULL,Wechsel,ugeuzaji,d,NA,NA,NA,NA,sdf,NA,0,NA,NA,NA,NA,NA,NA,NA,NA,NA,NA,NA,NA,NA,NA,NA,NA,NA,NA,NA
8220,Deep Question,html.Page,3_0_0_0_6_0_0,NA,NA,form submission,8881.08,276826,276817.3,276833.92,285715,285715,2023-09-28T12:24:02Z,285716.32,NULL,Erneuerung,ukarabati,d,NA,NA,NA,renewal,NA,NA,0,NA,NA,NA,NA,NA,NA,NA,NA,NA,NA,NA,NA,NA,NA,NA,NA,NA,NA,NA
8220,"""Richtig""-Screen",canvas.Screen,3_0_0_0_6_0_1,NA,NA,skipped,NA,285722,NA,NA,285715,285723,2023-09-28T12:24:02Z,285716.32,NULL,Erneuerung,ukarabati,d,NA,NA,NA,NA,sdf,NA,0,NA,NA,NA,NA,NA,NA,NA,NA,NA,NA,NA,NA,NA,NA,NA,NA,NA,NA,NA
8220,"""Falsch""-Screen",canvas.Screen,3_0_0_0_6_0_2,NA,NA,timeout,4998.98,285726,285714.48,285716.32,290698.7,290700,2023-09-28T12:24:07Z,290715.3,NULL,Erneuerung,ukarabati,d,NA,NA,NA,NA,sdf,0,0,NA,NA,NA,NA,NA,NA,NA,NA,NA,NA,NA,NA,NA,NA,NA,NA,NA,NA,NA
8220,deep,flow.Sequence,3_0_0_0_6_0,NA,NA,completion,13864.78,276826,276817.3,276833.92,290698.7,290701,2023-09-28T12:24:07Z,290715.3,NULL,Erneuerung,ukarabati,d,NA,NA,NA,NA,sdf,NA,0,NA,NA,NA,NA,NA,NA,NA,NA,NA,NA,NA,NA,NA,NA,NA,NA,NA,NA,NA
8220,shallow,flow.Sequence,3_0_0_0_6_1,NA,NA,skipped,NA,290702,NA,NA,290698.7,290702,2023-09-28T12:24:07Z,290715.3,NULL,Erneuerung,ukarabati,d,NA,NA,NA,NA,sdf,NA,0,NA,NA,NA,NA,NA,NA,NA,NA,NA,NA,NA,NA,NA,NA,NA,NA,NA,NA,NA
8220,task,flow.Sequence,3_0_0_0_6,NA,NA,completion,13864.78,276825,276817.3,276833.92,290698.7,290703,2023-09-28T12:24:07Z,290715.3,NULL,Erneuerung,ukarabati,d,NA,NA,NA,NA,sdf,NA,0,NA,NA,NA,NA,NA,NA,NA,NA,NA,NA,NA,NA,NA,NA,NA,NA,NA,NA,NA
8220,Deep Question,html.Page,3_0_0_0_7_0_0,NA,NA,form submission,9025.7,290703,290698.7,290715.3,299741,299742,2023-09-28T12:24:16Z,299747.8,NULL,Verpackung,ufungaji,d,NA,NA,NA,package,NA,NA,0,NA,NA,NA,NA,NA,NA,NA,NA,NA,NA,NA,NA,NA,NA,NA,NA,NA,NA,NA
8220,"""Richtig""-Screen",canvas.Screen,3_0_0_0_7_0_1,NA,NA,skipped,NA,299748,NA,NA,299741,299748,2023-09-28T12:24:16Z,299747.8,NULL,Verpackung,ufungaji,d,NA,NA,NA,NA,sdf,NA,0,NA,NA,NA,NA,NA,NA,NA,NA,NA,NA,NA,NA,NA,NA,NA,NA,NA,NA,NA
8220,"""Falsch""-Screen",canvas.Screen,3_0_0_0_7_0_2,NA,NA,timeout,4999.02,299751,299740.72,299747.8,304730.2,304732,2023-09-28T12:24:21Z,304746.82,NULL,Verpackung,ufungaji,d,NA,NA,NA,NA,sdf,0,0,NA,NA,NA,NA,NA,NA,NA,NA,NA,NA,NA,NA,NA,NA,NA,NA,NA,NA,NA
8220,deep,flow.Sequence,3_0_0_0_7_0,NA,NA,completion,14014.9,290703,290698.7,290715.3,304730.2,304732,2023-09-28T12:24:21Z,304746.82,NULL,Verpackung,ufungaji,d,NA,NA,NA,NA,sdf,NA,0,NA,NA,NA,NA,NA,NA,NA,NA,NA,NA,NA,NA,NA,NA,NA,NA,NA,NA,NA
8220,shallow,flow.Sequence,3_0_0_0_7_1,NA,NA,skipped,NA,304733,NA,NA,304730.2,304733,2023-09-28T12:24:21Z,304746.82,NULL,Verpackung,ufungaji,d,NA,NA,NA,NA,sdf,NA,0,NA,NA,NA,NA,NA,NA,NA,NA,NA,NA,NA,NA,NA,NA,NA,NA,NA,NA,NA
8220,task,flow.Sequence,3_0_0_0_7,NA,NA,completion,14014.9,290703,290698.7,290715.3,304730.2,304734,2023-09-28T12:24:21Z,304746.82,NULL,Verpackung,ufungaji,d,NA,NA,NA,NA,sdf,NA,0,NA,NA,NA,NA,NA,NA,NA,NA,NA,NA,NA,NA,NA,NA,NA,NA,NA,NA,NA
8220,block,flow.Loop,3_0_0_0,NA,NA,completion,115233.48,189496,189496.44,189496.72,304730.2,304734,2023-09-28T12:24:21Z,304746.82,NULL,NA,NA,NA,NA,NA,NA,NA,sdf,NA,0,NA,NA,NA,NA,NA,NA,NA,NA,NA,NA,NA,NA,NA,NA,NA,NA,NA,NA,NA
8220,weiter,canvas.Screen,3_0_0_1,sdf,keypress(Space),response,4366.18,304735,304730.2,304746.82,309113,309119,2023-09-28T12:24:25Z,309179.28,NULL,NA,NA,NA,NA,NA,NA,NA,sdf,NA,0,NA,NA,NA,NA,NA,NA,NA,NA,NA,NA,NA,NA,NA,NA,NA,NA,NA,NA,NA
8220,check continue,flow.Sequence,3_0_0,NA,NA,completion,119616.28,189496,189496.44,189496.72,309113,309120,2023-09-28T12:24:25Z,309179.28,NULL,NA,NA,NA,NA,NA,NA,NA,sdf,NA,0,NA,NA,NA,NA,NA,NA,NA,NA,NA,NA,NA,NA,NA,NA,NA,NA,NA,NA,NA
8220,Deep Question,html.Page,3_0_1_0_0_0_0,NA,NA,form submission,9810.72,309179,309179,309179.28,318990,318990,2023-09-28T12:24:35Z,318989.86,NULL,Hoffnung,matarajio,d,NA,NA,NA,matarajio,NA,NA,1,NA,NA,NA,NA,NA,NA,NA,NA,NA,NA,NA,NA,NA,NA,NA,NA,NA,NA,NA
8220,"""Richtig""-Screen",canvas.Screen,3_0_1_0_0_0_1,NA,NA,timeout,5004.5,318993,318989.52,318989.86,323977.74,323979,2023-09-28T12:24:40Z,323994.36,NULL,Hoffnung,matarajio,d,NA,NA,NA,NA,sdfdsf,1,1,NA,NA,NA,NA,NA,NA,NA,NA,NA,NA,NA,NA,NA,NA,NA,NA,NA,NA,NA
8220,"""Falsch""-Screen",canvas.Screen,3_0_1_0_0_0_2,NA,NA,skipped,NA,323984,NA,NA,323977.74,323985,2023-09-28T12:24:40Z,323994.36,NULL,Hoffnung,matarajio,d,NA,NA,NA,NA,sdfdsf,NA,1,NA,NA,NA,NA,NA,NA,NA,NA,NA,NA,NA,NA,NA,NA,NA,NA,NA,NA,NA
8220,deep,flow.Sequence,3_0_1_0_0_0,NA,NA,completion,14798.46,309179,309179,309179.28,323977.74,323985,2023-09-28T12:24:40Z,323994.36,NULL,Hoffnung,matarajio,d,NA,NA,NA,NA,sdfdsf,NA,1,NA,NA,NA,NA,NA,NA,NA,NA,NA,NA,NA,NA,NA,NA,NA,NA,NA,NA,NA
8220,shallow,flow.Sequence,3_0_1_0_0_1,NA,NA,skipped,NA,323986,NA,NA,323977.74,323986,2023-09-28T12:24:40Z,323994.36,NULL,Hoffnung,matarajio,d,NA,NA,NA,NA,sdfdsf,NA,1,NA,NA,NA,NA,NA,NA,NA,NA,NA,NA,NA,NA,NA,NA,NA,NA,NA,NA,NA
8220,task,flow.Sequence,3_0_1_0_0,NA,NA,completion,14798.46,309179,309179,309179.28,323977.74,323986,2023-09-28T12:24:40Z,323994.36,NULL,Hoffnung,matarajio,d,NA,NA,NA,NA,sdfdsf,NA,1,NA,NA,NA,NA,NA,NA,NA,NA,NA,NA,NA,NA,NA,NA,NA,NA,NA,NA,NA
8220,Deep Question,html.Page,3_0_1_0_1_0_0,NA,NA,form submission,19843.64,323987,323977.74,323994.36,343838,343839,2023-09-28T12:25:00Z,343842.24,NULL,Erneuerung,ukarabati,d,NA,NA,NA,renewal,NA,NA,1,NA,NA,NA,NA,NA,NA,NA,NA,NA,NA,NA,NA,NA,NA,NA,NA,NA,NA,NA
8220,"""Richtig""-Screen",canvas.Screen,3_0_1_0_1_0_1,NA,NA,skipped,NA,343842,NA,NA,343838,343842,2023-09-28T12:25:00Z,343842.24,NULL,Erneuerung,ukarabati,d,NA,NA,NA,NA,sdfdsf,NA,1,NA,NA,NA,NA,NA,NA,NA,NA,NA,NA,NA,NA,NA,NA,NA,NA,NA,NA,NA
8220,"""Falsch""-Screen",canvas.Screen,3_0_1_0_1_0_2,NA,NA,timeout,4999.1,343845,343837.88,343842.24,348824.74,348826,2023-09-28T12:25:05Z,348841.34,NULL,Erneuerung,ukarabati,d,NA,NA,NA,NA,sdfdsf,0,1,NA,NA,NA,NA,NA,NA,NA,NA,NA,NA,NA,NA,NA,NA,NA,NA,NA,NA,NA
8220,deep,flow.Sequence,3_0_1_0_1_0,NA,NA,completion,24830.38,323986,323977.74,323994.36,348824.74,348827,2023-09-28T12:25:05Z,348841.34,NULL,Erneuerung,ukarabati,d,NA,NA,NA,NA,sdfdsf,NA,1,NA,NA,NA,NA,NA,NA,NA,NA,NA,NA,NA,NA,NA,NA,NA,NA,NA,NA,NA
8220,shallow,flow.Sequence,3_0_1_0_1_1,NA,NA,skipped,NA,348827,NA,NA,348824.74,348827,2023-09-28T12:25:05Z,348841.34,NULL,Erneuerung,ukarabati,d,NA,NA,NA,NA,sdfdsf,NA,1,NA,NA,NA,NA,NA,NA,NA,NA,NA,NA,NA,NA,NA,NA,NA,NA,NA,NA,NA
8220,task,flow.Sequence,3_0_1_0_1,NA,NA,completion,24830.38,323986,323977.74,323994.36,348824.74,348827,2023-09-28T12:25:05Z,348841.34,NULL,Erneuerung,ukarabati,d,NA,NA,NA,NA,sdfdsf,NA,1,NA,NA,NA,NA,NA,NA,NA,NA,NA,NA,NA,NA,NA,NA,NA,NA,NA,NA,NA
8220,Deep Question,html.Page,3_0_1_0_2_0_0,NA,NA,form submission,9155.66,348828,348824.74,348841.34,357997,357997,2023-09-28T12:25:14Z,358006.56,NULL,Wechsel,ugeuzaji,d,NA,NA,NA,change,NA,NA,1,NA,NA,NA,NA,NA,NA,NA,NA,NA,NA,NA,NA,NA,NA,NA,NA,NA,NA,NA
8220,"""Richtig""-Screen",canvas.Screen,3_0_1_0_2_0_1,NA,NA,skipped,NA,358000,NA,NA,357997,358000,2023-09-28T12:25:14Z,358006.56,NULL,Wechsel,ugeuzaji,d,NA,NA,NA,NA,sdfdsf,NA,1,NA,NA,NA,NA,NA,NA,NA,NA,NA,NA,NA,NA,NA,NA,NA,NA,NA,NA,NA
8220,"""Falsch""-Screen",canvas.Screen,3_0_1_0_2_0_2,NA,NA,timeout,4999.56,358003,357995.92,358006.56,362989.5,362991,2023-09-28T12:25:19Z,363006.12,NULL,Wechsel,ugeuzaji,d,NA,NA,NA,NA,sdfdsf,0,1,NA,NA,NA,NA,NA,NA,NA,NA,NA,NA,NA,NA,NA,NA,NA,NA,NA,NA,NA
8220,deep,flow.Sequence,3_0_1_0_2_0,NA,NA,completion,14148.16,348828,348824.74,348841.34,362989.5,362992,2023-09-28T12:25:19Z,363006.12,NULL,Wechsel,ugeuzaji,d,NA,NA,NA,NA,sdfdsf,NA,1,NA,NA,NA,NA,NA,NA,NA,NA,NA,NA,NA,NA,NA,NA,NA,NA,NA,NA,NA
8220,shallow,flow.Sequence,3_0_1_0_2_1,NA,NA,skipped,NA,362992,NA,NA,362989.5,362992,2023-09-28T12:25:19Z,363006.12,NULL,Wechsel,ugeuzaji,d,NA,NA,NA,NA,sdfdsf,NA,1,NA,NA,NA,NA,NA,NA,NA,NA,NA,NA,NA,NA,NA,NA,NA,NA,NA,NA,NA
8220,task,flow.Sequence,3_0_1_0_2,NA,NA,completion,14148.16,348828,348824.74,348841.34,362989.5,362992,2023-09-28T12:25:19Z,363006.12,NULL,Wechsel,ugeuzaji,d,NA,NA,NA,NA,sdfdsf,NA,1,NA,NA,NA,NA,NA,NA,NA,NA,NA,NA,NA,NA,NA,NA,NA,NA,NA,NA,NA
8220,Deep Question,html.Page,3_0_1_0_3_0_0,NA,NA,form submission,12177.88,362993,362989.5,363006.12,375184,375184,2023-09-28T12:25:31Z,375186.34,NULL,Verpackung,ufungaji,d,NA,NA,NA,ufungaji,NA,NA,1,NA,NA,NA,NA,NA,NA,NA,NA,NA,NA,NA,NA,NA,NA,NA,NA,NA,NA,NA
8220,"""Richtig""-Screen",canvas.Screen,3_0_1_0_3_0_1,NA,NA,timeout,5000.8799999999,375186,375182.9,375186.34,380170.6,380172,2023-09-28T12:25:36Z,380187.22,NULL,Verpackung,ufungaji,d,NA,NA,NA,NA,sdfdsf,1,1,NA,NA,NA,NA,NA,NA,NA,NA,NA,NA,NA,NA,NA,NA,NA,NA,NA,NA,NA
8220,"""Falsch""-Screen",canvas.Screen,3_0_1_0_3_0_2,NA,NA,skipped,NA,380178,NA,NA,380170.6,380178,2023-09-28T12:25:36Z,380187.22,NULL,Verpackung,ufungaji,d,NA,NA,NA,NA,sdfdsf,NA,1,NA,NA,NA,NA,NA,NA,NA,NA,NA,NA,NA,NA,NA,NA,NA,NA,NA,NA,NA
8220,deep,flow.Sequence,3_0_1_0_3_0,NA,NA,completion,17164.48,362993,362989.5,363006.12,380170.6,380179,2023-09-28T12:25:36Z,380187.22,NULL,Verpackung,ufungaji,d,NA,NA,NA,NA,sdfdsf,NA,1,NA,NA,NA,NA,NA,NA,NA,NA,NA,NA,NA,NA,NA,NA,NA,NA,NA,NA,NA
8220,shallow,flow.Sequence,3_0_1_0_3_1,NA,NA,skipped,NA,380179,NA,NA,380170.6,380179,2023-09-28T12:25:36Z,380187.22,NULL,Verpackung,ufungaji,d,NA,NA,NA,NA,sdfdsf,NA,1,NA,NA,NA,NA,NA,NA,NA,NA,NA,NA,NA,NA,NA,NA,NA,NA,NA,NA,NA
8220,task,flow.Sequence,3_0_1_0_3,NA,NA,completion,17164.48,362993,362989.5,363006.12,380170.6,380180,2023-09-28T12:25:36Z,380187.22,NULL,Verpackung,ufungaji,d,NA,NA,NA,NA,sdfdsf,NA,1,NA,NA,NA,NA,NA,NA,NA,NA,NA,NA,NA,NA,NA,NA,NA,NA,NA,NA,NA
8220,deep,flow.Sequence,3_0_1_0_4_0,NA,NA,skipped,NA,380180,NA,NA,380170.6,380180,2023-09-28T12:25:36Z,380187.22,NULL,Atmosphäre,angahewa,s,kuteseka,usahihi,kutoamini,NA,sdfdsf,NA,1,NA,NA,NA,NA,NA,NA,NA,NA,NA,NA,NA,NA,NA,NA,NA,NA,NA,NA,NA
8220,Shallow Question,html.Page,3_0_1_0_4_1_0,NA,NA,form submission,6862.78,380180,380170.6,380187.22,387050,387051,2023-09-28T12:25:43Z,387053.38,NULL,Atmosphäre,angahewa,s,kuteseka,usahihi,kutoamini,angahewa,NA,NA,1,NA,NA,NA,NA,NA,NA,NA,NA,NA,NA,NA,NA,NA,NA,NA,NA,NA,NA,NA
8220,"""Richtig""-Screen",canvas.Screen,3_0_1_0_4_1_1,NA,NA,timeout,4999,387055,387047.66,387053.38,392035.76,392040,2023-09-28T12:25:48Z,392052.38,NULL,Atmosphäre,angahewa,s,kuteseka,usahihi,kutoamini,NA,sdfdsf,1,1,NA,NA,NA,NA,NA,NA,NA,NA,NA,NA,NA,NA,NA,NA,NA,NA,NA,NA,NA
8220,"""Falsch""-Screen",canvas.Screen,3_0_1_0_4_1_2,NA,NA,skipped,NA,392054,NA,NA,392035.76,392055,2023-09-28T12:25:48Z,392052.38,NULL,Atmosphäre,angahewa,s,kuteseka,usahihi,kutoamini,NA,sdfdsf,NA,1,NA,NA,NA,NA,NA,NA,NA,NA,NA,NA,NA,NA,NA,NA,NA,NA,NA,NA,NA
8220,shallow,flow.Sequence,3_0_1_0_4_1,NA,NA,completion,11848.54,380180,380170.6,380187.22,392035.76,392055,2023-09-28T12:25:48Z,392052.38,NULL,Atmosphäre,angahewa,s,kuteseka,usahihi,kutoamini,NA,sdfdsf,NA,1,NA,NA,NA,NA,NA,NA,NA,NA,NA,NA,NA,NA,NA,NA,NA,NA,NA,NA,NA
8220,task,flow.Sequence,3_0_1_0_4,NA,NA,completion,11848.54,380180,380170.6,380187.22,392035.76,392055,2023-09-28T12:25:48Z,392052.38,NULL,Atmosphäre,angahewa,s,kuteseka,usahihi,kutoamini,NA,sdfdsf,NA,1,NA,NA,NA,NA,NA,NA,NA,NA,NA,NA,NA,NA,NA,NA,NA,NA,NA,NA,NA
8220,deep,flow.Sequence,3_0_1_0_5_0,NA,NA,skipped,NA,392056,NA,NA,392035.76,392056,2023-09-28T12:25:48Z,392052.38,NULL,Flexibilität,kubadilika,s,enjini,usikilivu,hesabu,NA,sdfdsf,NA,1,NA,NA,NA,NA,NA,NA,NA,NA,NA,NA,NA,NA,NA,NA,NA,NA,NA,NA,NA
8220,Shallow Question,html.Page,3_0_1_0_5_1_0,NA,NA,form submission,6786.62,392056,392035.76,392052.38,398839,398840,2023-09-28T12:25:55Z,398834.46,NULL,Flexibilität,kubadilika,s,enjini,usikilivu,hesabu,kubadilika,NA,NA,1,NA,NA,NA,NA,NA,NA,NA,NA,NA,NA,NA,NA,NA,NA,NA,NA,NA,NA,NA
8220,"""Richtig""-Screen",canvas.Screen,3_0_1_0_5_1_1,NA,NA,timeout,4999.64,398845,398833.44,398834.46,403817.48,403818,2023-09-28T12:26:00Z,403834.1,NULL,Flexibilität,kubadilika,s,enjini,usikilivu,hesabu,NA,sdfdsf,1,1,NA,NA,NA,NA,NA,NA,NA,NA,NA,NA,NA,NA,NA,NA,NA,NA,NA,NA,NA
8220,"""Falsch""-Screen",canvas.Screen,3_0_1_0_5_1_2,NA,NA,skipped,NA,403821,NA,NA,403817.48,403821,2023-09-28T12:26:00Z,403834.1,NULL,Flexibilität,kubadilika,s,enjini,usikilivu,hesabu,NA,sdfdsf,NA,1,NA,NA,NA,NA,NA,NA,NA,NA,NA,NA,NA,NA,NA,NA,NA,NA,NA,NA,NA
8220,shallow,flow.Sequence,3_0_1_0_5_1,NA,NA,completion,11765.1,392056,392035.76,392052.38,403817.48,403822,2023-09-28T12:26:00Z,403834.1,NULL,Flexibilität,kubadilika,s,enjini,usikilivu,hesabu,NA,sdfdsf,NA,1,NA,NA,NA,NA,NA,NA,NA,NA,NA,NA,NA,NA,NA,NA,NA,NA,NA,NA,NA
8220,task,flow.Sequence,3_0_1_0_5,NA,NA,completion,11765.1,392056,392035.76,392052.38,403817.48,403822,2023-09-28T12:26:00Z,403834.1,NULL,Flexibilität,kubadilika,s,enjini,usikilivu,hesabu,NA,sdfdsf,NA,1,NA,NA,NA,NA,NA,NA,NA,NA,NA,NA,NA,NA,NA,NA,NA,NA,NA,NA,NA
8220,deep,flow.Sequence,3_0_1_0_6_0,NA,NA,skipped,NA,403822,NA,NA,403817.48,403822,2023-09-28T12:26:00Z,403834.1,NULL,Theorie,nadharia,s,ushungi,mkutano,uwakilishi,NA,sdfdsf,NA,1,NA,NA,NA,NA,NA,NA,NA,NA,NA,NA,NA,NA,NA,NA,NA,NA,NA,NA,NA
8220,Shallow Question,html.Page,3_0_1_0_6_1_0,NA,NA,form submission,27240.9,403823,403817.48,403834.1,431075,431076,2023-09-28T12:26:27Z,431081.06,NULL,Theorie,nadharia,s,ushungi,mkutano,uwakilishi,mkutano,NA,NA,1,NA,NA,NA,NA,NA,NA,NA,NA,NA,NA,NA,NA,NA,NA,NA,NA,NA,NA,NA
8220,"""Richtig""-Screen",canvas.Screen,3_0_1_0_6_1_1,NA,NA,skipped,NA,431079,NA,NA,431075,431080,2023-09-28T12:26:27Z,431081.06,NULL,Theorie,nadharia,s,ushungi,mkutano,uwakilishi,NA,sdfdsf,NA,1,NA,NA,NA,NA,NA,NA,NA,NA,NA,NA,NA,NA,NA,NA,NA,NA,NA,NA,NA
8220,"""Falsch""-Screen",canvas.Screen,3_0_1_0_6_1_2,NA,NA,timeout,4998.96,431083,431071.26,431081.06,436063.4,436065,2023-09-28T12:26:32Z,436080.02,NULL,Theorie,nadharia,s,ushungi,mkutano,uwakilishi,NA,sdfdsf,0,1,NA,NA,NA,NA,NA,NA,NA,NA,NA,NA,NA,NA,NA,NA,NA,NA,NA,NA,NA
8220,shallow,flow.Sequence,3_0_1_0_6_1,NA,NA,completion,32229.3,403823,403817.48,403834.1,436063.4,436066,2023-09-28T12:26:32Z,436080.02,NULL,Theorie,nadharia,s,ushungi,mkutano,uwakilishi,NA,sdfdsf,NA,1,NA,NA,NA,NA,NA,NA,NA,NA,NA,NA,NA,NA,NA,NA,NA,NA,NA,NA,NA
8220,task,flow.Sequence,3_0_1_0_6,NA,NA,completion,32229.3,403822,403817.48,403834.1,436063.4,436066,2023-09-28T12:26:32Z,436080.02,NULL,Theorie,nadharia,s,ushungi,mkutano,uwakilishi,NA,sdfdsf,NA,1,NA,NA,NA,NA,NA,NA,NA,NA,NA,NA,NA,NA,NA,NA,NA,NA,NA,NA,NA
8220,deep,flow.Sequence,3_0_1_0_7_0,NA,NA,skipped,NA,436068,NA,NA,436063.4,436068,2023-09-28T12:26:32Z,436080.02,NULL,Schock,mshtuko,s,biashara,kukataza,vichekesho,NA,sdfdsf,NA,1,NA,NA,NA,NA,NA,NA,NA,NA,NA,NA,NA,NA,NA,NA,NA,NA,NA,NA,NA
8220,Shallow Question,html.Page,3_0_1_0_7_1_0,NA,NA,form submission,22057.98,436069,436063.4,436080.02,458138,458140,2023-09-28T12:26:54Z,458159.76,NULL,Schock,mshtuko,s,biashara,kukataza,vichekesho,biashara,NA,NA,1,NA,NA,NA,NA,NA,NA,NA,NA,NA,NA,NA,NA,NA,NA,NA,NA,NA,NA,NA
8220,"""Richtig""-Screen",canvas.Screen,3_0_1_0_7_1_1,NA,NA,skipped,NA,458149,NA,NA,458138,458149,2023-09-28T12:26:54Z,458159.76,NULL,Schock,mshtuko,s,biashara,kukataza,vichekesho,NA,sdfdsf,NA,1,NA,NA,NA,NA,NA,NA,NA,NA,NA,NA,NA,NA,NA,NA,NA,NA,NA,NA,NA
8220,"""Falsch""-Screen",canvas.Screen,3_0_1_0_7_1_2,NA,NA,timeout,5000.1,458152,458143.16,458159.76,463143.26,463146,2023-09-28T12:26:59Z,463159.86,NULL,Schock,mshtuko,s,biashara,kukataza,vichekesho,NA,sdfdsf,0,1,NA,NA,NA,NA,NA,NA,NA,NA,NA,NA,NA,NA,NA,NA,NA,NA,NA,NA,NA
8220,shallow,flow.Sequence,3_0_1_0_7_1,NA,NA,completion,27063.24,436069,436063.4,436080.02,463143.26,463146,2023-09-28T12:26:59Z,463159.86,NULL,Schock,mshtuko,s,biashara,kukataza,vichekesho,NA,sdfdsf,NA,1,NA,NA,NA,NA,NA,NA,NA,NA,NA,NA,NA,NA,NA,NA,NA,NA,NA,NA,NA
8220,task,flow.Sequence,3_0_1_0_7,NA,NA,completion,27063.24,436068,436063.4,436080.02,463143.26,463147,2023-09-28T12:26:59Z,463159.86,NULL,Schock,mshtuko,s,biashara,kukataza,vichekesho,NA,sdfdsf,NA,1,NA,NA,NA,NA,NA,NA,NA,NA,NA,NA,NA,NA,NA,NA,NA,NA,NA,NA,NA
8220,block,flow.Loop,3_0_1_0,NA,NA,completion,153963.98,309179,309179,309179.28,463143.26,463148,2023-09-28T12:26:59Z,463159.86,NULL,NA,NA,NA,NA,NA,NA,NA,sdfdsf,NA,1,NA,NA,NA,NA,NA,NA,NA,NA,NA,NA,NA,NA,NA,NA,NA,NA,NA,NA,NA
8220,weiter,canvas.Screen,3_0_1_1,sdf,keypress(Space),response,1218.14,463148,463143.26,463159.86,464378,464397,2023-09-28T12:27:00Z,464468.94,NULL,NA,NA,NA,NA,NA,NA,NA,sdfdsf,NA,1,NA,NA,NA,NA,NA,NA,NA,NA,NA,NA,NA,NA,NA,NA,NA,NA,NA,NA,NA
8220,check continue,flow.Sequence,3_0_1,NA,NA,completion,155198.72,309178,309179,309179.28,464378,464398,2023-09-28T12:27:00Z,464468.94,NULL,NA,NA,NA,NA,NA,NA,NA,sdfdsf,NA,1,NA,NA,NA,NA,NA,NA,NA,NA,NA,NA,NA,NA,NA,NA,NA,NA,NA,NA,NA
8220,Deep Question,html.Page,3_0_2_0_0_0_0,NA,NA,form submission,13854.06,464469,464468.64,464468.94,478323,478323,2023-09-28T12:27:14Z,478325.06,NULL,Verpackung,ufungaji,d,NA,NA,NA,matarajio,NA,NA,2,NA,NA,NA,NA,NA,NA,NA,NA,NA,NA,NA,NA,NA,NA,NA,NA,NA,NA,NA
8220,"""Richtig""-Screen",canvas.Screen,3_0_2_0_0_0_1,NA,NA,skipped,NA,478326,NA,NA,478323,478326,2023-09-28T12:27:14Z,478325.06,NULL,Verpackung,ufungaji,d,NA,NA,NA,NA,sdf,NA,2,NA,NA,NA,NA,NA,NA,NA,NA,NA,NA,NA,NA,NA,NA,NA,NA,NA,NA,NA
8220,"""Falsch""-Screen",canvas.Screen,3_0_2_0_0_0_2,NA,NA,timeout,4999.22,478328,478322.12,478325.06,483307.66,483310,2023-09-28T12:27:19Z,483324.28,NULL,Verpackung,ufungaji,d,NA,NA,NA,NA,sdf,0,2,NA,NA,NA,NA,NA,NA,NA,NA,NA,NA,NA,NA,NA,NA,NA,NA,NA,NA,NA
8220,deep,flow.Sequence,3_0_2_0_0_0,NA,NA,completion,18838.72,464469,464468.64,464468.94,483307.66,483310,2023-09-28T12:27:19Z,483324.28,NULL,Verpackung,ufungaji,d,NA,NA,NA,NA,sdf,NA,2,NA,NA,NA,NA,NA,NA,NA,NA,NA,NA,NA,NA,NA,NA,NA,NA,NA,NA,NA
8220,shallow,flow.Sequence,3_0_2_0_0_1,NA,NA,skipped,NA,483311,NA,NA,483307.66,483311,2023-09-28T12:27:19Z,483324.28,NULL,Verpackung,ufungaji,d,NA,NA,NA,NA,sdf,NA,2,NA,NA,NA,NA,NA,NA,NA,NA,NA,NA,NA,NA,NA,NA,NA,NA,NA,NA,NA
8220,task,flow.Sequence,3_0_2_0_0,NA,NA,completion,18838.72,464469,464468.64,464468.94,483307.66,483312,2023-09-28T12:27:19Z,483324.28,NULL,Verpackung,ufungaji,d,NA,NA,NA,NA,sdf,NA,2,NA,NA,NA,NA,NA,NA,NA,NA,NA,NA,NA,NA,NA,NA,NA,NA,NA,NA,NA
8220,Deep Question,html.Page,3_0_2_0_1_0_0,NA,NA,form submission,12942.72,483312,483307.66,483324.28,496267,496267,2023-09-28T12:27:32Z,496272.66,NULL,Wechsel,ugeuzaji,d,NA,NA,NA,ukarabati,NA,NA,2,NA,NA,NA,NA,NA,NA,NA,NA,NA,NA,NA,NA,NA,NA,NA,NA,NA,NA,NA
8220,"""Richtig""-Screen",canvas.Screen,3_0_2_0_1_0_1,NA,NA,skipped,NA,496270,NA,NA,496267,496270,2023-09-28T12:27:32Z,496272.66,NULL,Wechsel,ugeuzaji,d,NA,NA,NA,NA,sdf,NA,2,NA,NA,NA,NA,NA,NA,NA,NA,NA,NA,NA,NA,NA,NA,NA,NA,NA,NA,NA
8220,"""Falsch""-Screen",canvas.Screen,3_0_2_0_1_0_2,NA,NA,timeout,4999.16,496274,496266.62,496272.66,501255.2,501257,2023-09-28T12:27:37Z,501271.82,NULL,Wechsel,ugeuzaji,d,NA,NA,NA,NA,sdf,0,2,NA,NA,NA,NA,NA,NA,NA,NA,NA,NA,NA,NA,NA,NA,NA,NA,NA,NA,NA
8220,deep,flow.Sequence,3_0_2_0_1_0,NA,NA,completion,17930.92,483312,483307.66,483324.28,501255.2,501257,2023-09-28T12:27:37Z,501271.82,NULL,Wechsel,ugeuzaji,d,NA,NA,NA,NA,sdf,NA,2,NA,NA,NA,NA,NA,NA,NA,NA,NA,NA,NA,NA,NA,NA,NA,NA,NA,NA,NA
8220,shallow,flow.Sequence,3_0_2_0_1_1,NA,NA,skipped,NA,501258,NA,NA,501255.2,501258,2023-09-28T12:27:37Z,501271.82,NULL,Wechsel,ugeuzaji,d,NA,NA,NA,NA,sdf,NA,2,NA,NA,NA,NA,NA,NA,NA,NA,NA,NA,NA,NA,NA,NA,NA,NA,NA,NA,NA
8220,task,flow.Sequence,3_0_2_0_1,NA,NA,completion,17930.92,483312,483307.66,483324.28,501255.2,501258,2023-09-28T12:27:37Z,501271.82,NULL,Wechsel,ugeuzaji,d,NA,NA,NA,NA,sdf,NA,2,NA,NA,NA,NA,NA,NA,NA,NA,NA,NA,NA,NA,NA,NA,NA,NA,NA,NA,NA
8220,deep,flow.Sequence,3_0_2_0_2_0,NA,NA,skipped,NA,501258,NA,NA,501255.2,501259,2023-09-28T12:27:37Z,501271.82,NULL,Atmosphäre,angahewa,s,kuteseka,usahihi,kutoamini,NA,sdf,NA,2,NA,NA,NA,NA,NA,NA,NA,NA,NA,NA,NA,NA,NA,NA,NA,NA,NA,NA,NA
8220,Shallow Question,html.Page,3_0_2_0_2_1_0,NA,NA,form submission,4948.18,501259,501255.2,501271.82,506220,506220,2023-09-28T12:27:42Z,506221.7,NULL,Atmosphäre,angahewa,s,kuteseka,usahihi,kutoamini,angahewa,NA,NA,2,NA,NA,NA,NA,NA,NA,NA,NA,NA,NA,NA,NA,NA,NA,NA,NA,NA,NA,NA
8220,"""Richtig""-Screen",canvas.Screen,3_0_2_0_2_1_1,NA,NA,timeout,4998.7,506225,506216.68,506221.7,511203.78,511205,2023-09-28T12:27:47Z,511220.4,NULL,Atmosphäre,angahewa,s,kuteseka,usahihi,kutoamini,NA,sdf,1,2,NA,NA,NA,NA,NA,NA,NA,NA,NA,NA,NA,NA,NA,NA,NA,NA,NA,NA,NA
8220,"""Falsch""-Screen",canvas.Screen,3_0_2_0_2_1_2,NA,NA,skipped,NA,511212,NA,NA,511203.78,511212,2023-09-28T12:27:47Z,511220.4,NULL,Atmosphäre,angahewa,s,kuteseka,usahihi,kutoamini,NA,sdf,NA,2,NA,NA,NA,NA,NA,NA,NA,NA,NA,NA,NA,NA,NA,NA,NA,NA,NA,NA,NA
8220,shallow,flow.Sequence,3_0_2_0_2_1,NA,NA,completion,9931.96,501259,501255.2,501271.82,511203.78,511213,2023-09-28T12:27:47Z,511220.4,NULL,Atmosphäre,angahewa,s,kuteseka,usahihi,kutoamini,NA,sdf,NA,2,NA,NA,NA,NA,NA,NA,NA,NA,NA,NA,NA,NA,NA,NA,NA,NA,NA,NA,NA
8220,task,flow.Sequence,3_0_2_0_2,NA,NA,completion,9931.96,501258,501255.2,501271.82,511203.78,511213,2023-09-28T12:27:47Z,511220.4,NULL,Atmosphäre,angahewa,s,kuteseka,usahihi,kutoamini,NA,sdf,NA,2,NA,NA,NA,NA,NA,NA,NA,NA,NA,NA,NA,NA,NA,NA,NA,NA,NA,NA,NA
8220,Deep Question,html.Page,3_0_2_0_3_0_0,NA,NA,form submission,10869.6,511213,511203.78,511220.4,522090,522091,2023-09-28T12:27:58Z,522090.2,NULL,Erneuerung,ukarabati,d,NA,NA,NA,ukarabati,NA,NA,2,NA,NA,NA,NA,NA,NA,NA,NA,NA,NA,NA,NA,NA,NA,NA,NA,NA,NA,NA
8220,"""Richtig""-Screen",canvas.Screen,3_0_2_0_3_0_1,NA,NA,timeout,4994.84,522093,522089.84,522090.2,527068.44,527070,2023-09-28T12:28:03Z,527085.04,NULL,Erneuerung,ukarabati,d,NA,NA,NA,NA,sdf,1,2,NA,NA,NA,NA,NA,NA,NA,NA,NA,NA,NA,NA,NA,NA,NA,NA,NA,NA,NA
8220,"""Falsch""-Screen",canvas.Screen,3_0_2_0_3_0_2,NA,NA,skipped,NA,527075,NA,NA,527068.44,527076,2023-09-28T12:28:03Z,527085.04,NULL,Erneuerung,ukarabati,d,NA,NA,NA,NA,sdf,NA,2,NA,NA,NA,NA,NA,NA,NA,NA,NA,NA,NA,NA,NA,NA,NA,NA,NA,NA,NA
8220,deep,flow.Sequence,3_0_2_0_3_0,NA,NA,completion,15848.04,511213,511203.78,511220.4,527068.44,527076,2023-09-28T12:28:03Z,527085.04,NULL,Erneuerung,ukarabati,d,NA,NA,NA,NA,sdf,NA,2,NA,NA,NA,NA,NA,NA,NA,NA,NA,NA,NA,NA,NA,NA,NA,NA,NA,NA,NA
8220,shallow,flow.Sequence,3_0_2_0_3_1,NA,NA,skipped,NA,527076,NA,NA,527068.44,527077,2023-09-28T12:28:03Z,527085.04,NULL,Erneuerung,ukarabati,d,NA,NA,NA,NA,sdf,NA,2,NA,NA,NA,NA,NA,NA,NA,NA,NA,NA,NA,NA,NA,NA,NA,NA,NA,NA,NA
8220,task,flow.Sequence,3_0_2_0_3,NA,NA,completion,15848.04,511213,511203.78,511220.4,527068.44,527077,2023-09-28T12:28:03Z,527085.04,NULL,Erneuerung,ukarabati,d,NA,NA,NA,NA,sdf,NA,2,NA,NA,NA,NA,NA,NA,NA,NA,NA,NA,NA,NA,NA,NA,NA,NA,NA,NA,NA
8220,Deep Question,html.Page,3_0_2_0_4_0_0,NA,NA,form submission,6680.96,527077,527068.44,527085.04,533766,533766,2023-09-28T12:28:10Z,533767.96,NULL,Hoffnung,matarajio,d,NA,NA,NA,matarajio,NA,NA,2,NA,NA,NA,NA,NA,NA,NA,NA,NA,NA,NA,NA,NA,NA,NA,NA,NA,NA,NA
8220,"""Richtig""-Screen",canvas.Screen,3_0_2_0_4_0_1,NA,NA,timeout,4998.88,533769,533765.38,533767.96,538750.22,538752,2023-09-28T12:28:15Z,538766.84,NULL,Hoffnung,matarajio,d,NA,NA,NA,NA,sdf,1,2,NA,NA,NA,NA,NA,NA,NA,NA,NA,NA,NA,NA,NA,NA,NA,NA,NA,NA,NA
8220,"""Falsch""-Screen",canvas.Screen,3_0_2_0_4_0_2,NA,NA,skipped,NA,538754,NA,NA,538750.22,538755,2023-09-28T12:28:15Z,538766.84,NULL,Hoffnung,matarajio,d,NA,NA,NA,NA,sdf,NA,2,NA,NA,NA,NA,NA,NA,NA,NA,NA,NA,NA,NA,NA,NA,NA,NA,NA,NA,NA
8220,deep,flow.Sequence,3_0_2_0_4_0,NA,NA,completion,11665.18,527077,527068.44,527085.04,538750.22,538755,2023-09-28T12:28:15Z,538766.84,NULL,Hoffnung,matarajio,d,NA,NA,NA,NA,sdf,NA,2,NA,NA,NA,NA,NA,NA,NA,NA,NA,NA,NA,NA,NA,NA,NA,NA,NA,NA,NA
8220,shallow,flow.Sequence,3_0_2_0_4_1,NA,NA,skipped,NA,538755,NA,NA,538750.22,538756,2023-09-28T12:28:15Z,538766.84,NULL,Hoffnung,matarajio,d,NA,NA,NA,NA,sdf,NA,2,NA,NA,NA,NA,NA,NA,NA,NA,NA,NA,NA,NA,NA,NA,NA,NA,NA,NA,NA
8220,task,flow.Sequence,3_0_2_0_4,NA,NA,completion,11665.18,527077,527068.44,527085.04,538750.22,538756,2023-09-28T12:28:15Z,538766.84,NULL,Hoffnung,matarajio,d,NA,NA,NA,NA,sdf,NA,2,NA,NA,NA,NA,NA,NA,NA,NA,NA,NA,NA,NA,NA,NA,NA,NA,NA,NA,NA
8220,deep,flow.Sequence,3_0_2_0_5_0,NA,NA,skipped,NA,538756,NA,NA,538750.22,538756,2023-09-28T12:28:15Z,538766.84,NULL,Schock,mshtuko,s,biashara,kukataza,vichekesho,NA,sdf,NA,2,NA,NA,NA,NA,NA,NA,NA,NA,NA,NA,NA,NA,NA,NA,NA,NA,NA,NA,NA
8220,Shallow Question,html.Page,3_0_2_0_5_1_0,NA,NA,form submission,6012.16,538756,538750.22,538766.84,544779,544779,2023-09-28T12:28:21Z,544783.16,NULL,Schock,mshtuko,s,biashara,kukataza,vichekesho,mshtuko,NA,NA,2,NA,NA,NA,NA,NA,NA,NA,NA,NA,NA,NA,NA,NA,NA,NA,NA,NA,NA,NA
8220,"""Richtig""-Screen",canvas.Screen,3_0_2_0_5_1_1,NA,NA,timeout,4998.4,544780,544777.72,544783.16,549764.94,549767,2023-09-28T12:28:26Z,549781.56,NULL,Schock,mshtuko,s,biashara,kukataza,vichekesho,NA,sdf,1,2,NA,NA,NA,NA,NA,NA,NA,NA,NA,NA,NA,NA,NA,NA,NA,NA,NA,NA,NA
8220,"""Falsch""-Screen",canvas.Screen,3_0_2_0_5_1_2,NA,NA,skipped,NA,549771,NA,NA,549764.94,549771,2023-09-28T12:28:26Z,549781.56,NULL,Schock,mshtuko,s,biashara,kukataza,vichekesho,NA,sdf,NA,2,NA,NA,NA,NA,NA,NA,NA,NA,NA,NA,NA,NA,NA,NA,NA,NA,NA,NA,NA
8220,shallow,flow.Sequence,3_0_2_0_5_1,NA,NA,completion,10998.1,538756,538750.22,538766.84,549764.94,549772,2023-09-28T12:28:26Z,549781.56,NULL,Schock,mshtuko,s,biashara,kukataza,vichekesho,NA,sdf,NA,2,NA,NA,NA,NA,NA,NA,NA,NA,NA,NA,NA,NA,NA,NA,NA,NA,NA,NA,NA
8220,task,flow.Sequence,3_0_2_0_5,NA,NA,completion,10998.1,538756,538750.22,538766.84,549764.94,549772,2023-09-28T12:28:26Z,549781.56,NULL,Schock,mshtuko,s,biashara,kukataza,vichekesho,NA,sdf,NA,2,NA,NA,NA,NA,NA,NA,NA,NA,NA,NA,NA,NA,NA,NA,NA,NA,NA,NA,NA
8220,deep,flow.Sequence,3_0_2_0_6_0,NA,NA,skipped,NA,549772,NA,NA,549764.94,549772,2023-09-28T12:28:26Z,549781.56,NULL,Theorie,nadharia,s,ushungi,mkutano,uwakilishi,NA,sdf,NA,2,NA,NA,NA,NA,NA,NA,NA,NA,NA,NA,NA,NA,NA,NA,NA,NA,NA,NA,NA
8220,Shallow Question,html.Page,3_0_2_0_6_1_0,NA,NA,form submission,4609.4399999999,549772,549764.94,549781.56,554391,554392,2023-09-28T12:28:30Z,554398.6,NULL,Theorie,nadharia,s,ushungi,mkutano,uwakilishi,nadharia,NA,NA,2,NA,NA,NA,NA,NA,NA,NA,NA,NA,NA,NA,NA,NA,NA,NA,NA,NA,NA,NA
8220,"""Richtig""-Screen",canvas.Screen,3_0_2_0_6_1_1,NA,NA,timeout,4999.0800000001,554395,554390.08,554398.6,559381.08,559383,2023-09-28T12:28:35Z,559397.68,NULL,Theorie,nadharia,s,ushungi,mkutano,uwakilishi,NA,sdf,1,2,NA,NA,NA,NA,NA,NA,NA,NA,NA,NA,NA,NA,NA,NA,NA,NA,NA,NA,NA
8220,"""Falsch""-Screen",canvas.Screen,3_0_2_0_6_1_2,NA,NA,skipped,NA,559388,NA,NA,559381.08,559388,2023-09-28T12:28:35Z,559397.68,NULL,Theorie,nadharia,s,ushungi,mkutano,uwakilishi,NA,sdf,NA,2,NA,NA,NA,NA,NA,NA,NA,NA,NA,NA,NA,NA,NA,NA,NA,NA,NA,NA,NA
8220,shallow,flow.Sequence,3_0_2_0_6_1,NA,NA,completion,9599.5199999999,549772,549764.94,549781.56,559381.08,559388,2023-09-28T12:28:35Z,559397.68,NULL,Theorie,nadharia,s,ushungi,mkutano,uwakilishi,NA,sdf,NA,2,NA,NA,NA,NA,NA,NA,NA,NA,NA,NA,NA,NA,NA,NA,NA,NA,NA,NA,NA
8220,task,flow.Sequence,3_0_2_0_6,NA,NA,completion,9599.5199999999,549772,549764.94,549781.56,559381.08,559388,2023-09-28T12:28:35Z,559397.68,NULL,Theorie,nadharia,s,ushungi,mkutano,uwakilishi,NA,sdf,NA,2,NA,NA,NA,NA,NA,NA,NA,NA,NA,NA,NA,NA,NA,NA,NA,NA,NA,NA,NA
8220,deep,flow.Sequence,3_0_2_0_7_0,NA,NA,skipped,NA,559388,NA,NA,559381.08,559388,2023-09-28T12:28:35Z,559397.68,NULL,Flexibilität,kubadilika,s,enjini,usikilivu,hesabu,NA,sdf,NA,2,NA,NA,NA,NA,NA,NA,NA,NA,NA,NA,NA,NA,NA,NA,NA,NA,NA,NA,NA
8220,Shallow Question,html.Page,3_0_2_0_7_1_0,NA,NA,form submission,4550.3199999999,559388,559381.08,559397.68,563948,563949,2023-09-28T12:28:40Z,563947.42,NULL,Flexibilität,kubadilika,s,enjini,usikilivu,hesabu,kubadilika,NA,NA,2,NA,NA,NA,NA,NA,NA,NA,NA,NA,NA,NA,NA,NA,NA,NA,NA,NA,NA,NA
8220,"""Richtig""-Screen",canvas.Screen,3_0_2_0_7_1_1,NA,NA,timeout,4999.0199999999,563954,563942.22,563947.42,568929.82,568931,2023-09-28T12:28:45Z,568946.44,NULL,Flexibilität,kubadilika,s,enjini,usikilivu,hesabu,NA,sdf,1,2,NA,NA,NA,NA,NA,NA,NA,NA,NA,NA,NA,NA,NA,NA,NA,NA,NA,NA,NA
8220,"""Falsch""-Screen",canvas.Screen,3_0_2_0_7_1_2,NA,NA,skipped,NA,568938,NA,NA,568929.82,568938,2023-09-28T12:28:45Z,568946.44,NULL,Flexibilität,kubadilika,s,enjini,usikilivu,hesabu,NA,sdf,NA,2,NA,NA,NA,NA,NA,NA,NA,NA,NA,NA,NA,NA,NA,NA,NA,NA,NA,NA,NA
8220,shallow,flow.Sequence,3_0_2_0_7_1,NA,NA,completion,9532.1399999999,559388,559381.08,559397.68,568929.82,568939,2023-09-28T12:28:45Z,568946.44,NULL,Flexibilität,kubadilika,s,enjini,usikilivu,hesabu,NA,sdf,NA,2,NA,NA,NA,NA,NA,NA,NA,NA,NA,NA,NA,NA,NA,NA,NA,NA,NA,NA,NA
8220,task,flow.Sequence,3_0_2_0_7,NA,NA,completion,9532.1399999999,559388,559381.08,559397.68,568929.82,568939,2023-09-28T12:28:45Z,568946.44,NULL,Flexibilität,kubadilika,s,enjini,usikilivu,hesabu,NA,sdf,NA,2,NA,NA,NA,NA,NA,NA,NA,NA,NA,NA,NA,NA,NA,NA,NA,NA,NA,NA,NA
8220,block,flow.Loop,3_0_2_0,NA,NA,completion,104460.88,464469,464468.64,464468.94,568929.82,568940,2023-09-28T12:28:45Z,568946.44,NULL,NA,NA,NA,NA,NA,NA,NA,sdf,NA,2,NA,NA,NA,NA,NA,NA,NA,NA,NA,NA,NA,NA,NA,NA,NA,NA,NA,NA,NA
8220,weiter,canvas.Screen,3_0_2_1,sdf,keypress(Space),response,4291.5600000001,568941,568929.82,568946.44,573238,573246,2023-09-28T12:28:49Z,574003.3,NULL,NA,NA,NA,NA,NA,NA,NA,sdf,NA,2,NA,NA,NA,NA,NA,NA,NA,NA,NA,NA,NA,NA,NA,NA,NA,NA,NA,NA,NA
8220,check continue,flow.Sequence,3_0_2,NA,NA,completion,108769.06,464469,464468.64,464468.94,573238,573247,2023-09-28T12:28:49Z,574003.3,NULL,NA,NA,NA,NA,NA,NA,NA,sdf,NA,2,NA,NA,NA,NA,NA,NA,NA,NA,NA,NA,NA,NA,NA,NA,NA,NA,NA,NA,NA
8220,check continue,flow.Sequence,3_0_3,NA,NA,skipped,NA,573303,NA,NA,573238,573303,2023-09-28T12:28:49Z,574003.3,NULL,NA,NA,NA,NA,NA,NA,NA,qt,NA,3,NA,NA,NA,NA,NA,NA,NA,NA,NA,NA,NA,NA,NA,NA,NA,NA,NA,NA,NA
8220,check continue,flow.Sequence,3_0_4,NA,NA,skipped,NA,573333,NA,NA,573238,573333,2023-09-28T12:28:49Z,574003.3,NULL,NA,NA,NA,NA,NA,NA,NA,sd,NA,4,NA,NA,NA,NA,NA,NA,NA,NA,NA,NA,NA,NA,NA,NA,NA,NA,NA,NA,NA
8220,check continue,flow.Sequence,3_0_5,NA,NA,skipped,NA,573360,NA,NA,573238,573360,2023-09-28T12:28:49Z,574003.3,NULL,NA,NA,NA,NA,NA,NA,NA,sdf,NA,5,NA,NA,NA,NA,NA,NA,NA,NA,NA,NA,NA,NA,NA,NA,NA,NA,NA,NA,NA
8220,check continue,flow.Sequence,3_0_6,NA,NA,skipped,NA,573388,NA,NA,573238,573388,2023-09-28T12:28:49Z,574003.3,NULL,NA,NA,NA,NA,NA,NA,NA,dfs,NA,6,NA,NA,NA,NA,NA,NA,NA,NA,NA,NA,NA,NA,NA,NA,NA,NA,NA,NA,NA
8220,check continue,flow.Sequence,3_0_7,NA,NA,skipped,NA,573417,NA,NA,573238,573417,2023-09-28T12:28:49Z,574003.3,NULL,NA,NA,NA,NA,NA,NA,NA,df,NA,7,NA,NA,NA,NA,NA,NA,NA,NA,NA,NA,NA,NA,NA,NA,NA,NA,NA,NA,NA
8220,check continue,flow.Sequence,3_0_8,NA,NA,skipped,NA,573448,NA,NA,573238,573448,2023-09-28T12:28:49Z,574003.3,NULL,NA,NA,NA,NA,NA,NA,NA,dfs,NA,8,NA,NA,NA,NA,NA,NA,NA,NA,NA,NA,NA,NA,NA,NA,NA,NA,NA,NA,NA
8220,check continue,flow.Sequence,3_0_9,NA,NA,skipped,NA,573475,NA,NA,573238,573475,2023-09-28T12:28:49Z,574003.3,NULL,NA,NA,NA,NA,NA,NA,NA,dsf,NA,9,NA,NA,NA,NA,NA,NA,NA,NA,NA,NA,NA,NA,NA,NA,NA,NA,NA,NA,NA
8220,check continue,flow.Sequence,3_0_10,NA,NA,skipped,NA,573500,NA,NA,573238,573500,2023-09-28T12:28:49Z,574003.3,NULL,NA,NA,NA,NA,NA,NA,NA,df,NA,10,NA,NA,NA,NA,NA,NA,NA,NA,NA,NA,NA,NA,NA,NA,NA,NA,NA,NA,NA
8220,check continue,flow.Sequence,3_0_11,NA,NA,skipped,NA,573531,NA,NA,573238,573531,2023-09-28T12:28:49Z,574003.3,NULL,NA,NA,NA,NA,NA,NA,NA,dfs,NA,11,NA,NA,NA,NA,NA,NA,NA,NA,NA,NA,NA,NA,NA,NA,NA,NA,NA,NA,NA
8220,check continue,flow.Sequence,3_0_12,NA,NA,skipped,NA,573555,NA,NA,573238,573555,2023-09-28T12:28:49Z,574003.3,NULL,NA,NA,NA,NA,NA,NA,NA,dsf,NA,12,NA,NA,NA,NA,NA,NA,NA,NA,NA,NA,NA,NA,NA,NA,NA,NA,NA,NA,NA
8220,check continue,flow.Sequence,3_0_13,NA,NA,skipped,NA,573579,NA,NA,573238,573580,2023-09-28T12:28:49Z,574003.3,NULL,NA,NA,NA,NA,NA,NA,NA,dsf,NA,13,NA,NA,NA,NA,NA,NA,NA,NA,NA,NA,NA,NA,NA,NA,NA,NA,NA,NA,NA
8220,check continue,flow.Sequence,3_0_14,NA,NA,skipped,NA,573609,NA,NA,573238,573609,2023-09-28T12:28:49Z,574003.3,NULL,NA,NA,NA,NA,NA,NA,NA,NA,NA,14,NA,NA,NA,NA,NA,NA,NA,NA,NA,NA,NA,NA,NA,NA,NA,NA,NA,NA,NA
8220,check continue,flow.Sequence,3_0_15,NA,NA,skipped,NA,573632,NA,NA,573238,573632,2023-09-28T12:28:49Z,574003.3,NULL,NA,NA,NA,NA,NA,NA,NA,NA,NA,15,NA,NA,NA,NA,NA,NA,NA,NA,NA,NA,NA,NA,NA,NA,NA,NA,NA,NA,NA
8220,check continue,flow.Sequence,3_0_16,NA,NA,skipped,NA,573658,NA,NA,573238,573658,2023-09-28T12:28:49Z,574003.3,NULL,NA,NA,NA,NA,NA,NA,NA,NA,NA,16,NA,NA,NA,NA,NA,NA,NA,NA,NA,NA,NA,NA,NA,NA,NA,NA,NA,NA,NA
8220,check continue,flow.Sequence,3_0_17,NA,NA,skipped,NA,573684,NA,NA,573238,573684,2023-09-28T12:28:50Z,574003.3,NULL,NA,NA,NA,NA,NA,NA,NA,NA,NA,17,NA,NA,NA,NA,NA,NA,NA,NA,NA,NA,NA,NA,NA,NA,NA,NA,NA,NA,NA
8220,check continue,flow.Sequence,3_0_18,NA,NA,skipped,NA,573715,NA,NA,573238,573715,2023-09-28T12:28:50Z,574003.3,NULL,NA,NA,NA,NA,NA,NA,NA,NA,NA,18,NA,NA,NA,NA,NA,NA,NA,NA,NA,NA,NA,NA,NA,NA,NA,NA,NA,NA,NA
8220,check continue,flow.Sequence,3_0_19,NA,NA,skipped,NA,573739,NA,NA,573238,573739,2023-09-28T12:28:50Z,574003.3,NULL,NA,NA,NA,NA,NA,NA,NA,NA,NA,19,NA,NA,NA,NA,NA,NA,NA,NA,NA,NA,NA,NA,NA,NA,NA,NA,NA,NA,NA
8220,check continue,flow.Sequence,3_0_20,NA,NA,skipped,NA,573768,NA,NA,573238,573768,2023-09-28T12:28:50Z,574003.3,NULL,NA,NA,NA,NA,NA,NA,NA,NA,NA,20,NA,NA,NA,NA,NA,NA,NA,NA,NA,NA,NA,NA,NA,NA,NA,NA,NA,NA,NA
8220,check continue,flow.Sequence,3_0_21,NA,NA,skipped,NA,573794,NA,NA,573238,573794,2023-09-28T12:28:50Z,574003.3,NULL,NA,NA,NA,NA,NA,NA,NA,NA,NA,21,NA,NA,NA,NA,NA,NA,NA,NA,NA,NA,NA,NA,NA,NA,NA,NA,NA,NA,NA
8220,check continue,flow.Sequence,3_0_22,NA,NA,skipped,NA,573817,NA,NA,573238,573817,2023-09-28T12:28:50Z,574003.3,NULL,NA,NA,NA,NA,NA,NA,NA,NA,NA,22,NA,NA,NA,NA,NA,NA,NA,NA,NA,NA,NA,NA,NA,NA,NA,NA,NA,NA,NA
8220,check continue,flow.Sequence,3_0_23,NA,NA,skipped,NA,573846,NA,NA,573238,573846,2023-09-28T12:28:50Z,574003.3,NULL,NA,NA,NA,NA,NA,NA,NA,NA,NA,23,NA,NA,NA,NA,NA,NA,NA,NA,NA,NA,NA,NA,NA,NA,NA,NA,NA,NA,NA
8220,check continue,flow.Sequence,3_0_24,NA,NA,skipped,NA,573869,NA,NA,573238,573869,2023-09-28T12:28:50Z,574003.3,NULL,NA,NA,NA,NA,NA,NA,NA,NA,NA,24,NA,NA,NA,NA,NA,NA,NA,NA,NA,NA,NA,NA,NA,NA,NA,NA,NA,NA,NA
8220,check continue,flow.Sequence,3_0_25,NA,NA,skipped,NA,573894,NA,NA,573238,573894,2023-09-28T12:28:50Z,574003.3,NULL,NA,NA,NA,NA,NA,NA,NA,NA,NA,25,NA,NA,NA,NA,NA,NA,NA,NA,NA,NA,NA,NA,NA,NA,NA,NA,NA,NA,NA
8220,check continue,flow.Sequence,3_0_26,NA,NA,skipped,NA,573918,NA,NA,573238,573918,2023-09-28T12:28:50Z,574003.3,NULL,NA,NA,NA,NA,NA,NA,NA,NA,NA,26,NA,NA,NA,NA,NA,NA,NA,NA,NA,NA,NA,NA,NA,NA,NA,NA,NA,NA,NA
8220,check continue,flow.Sequence,3_0_27,NA,NA,skipped,NA,573946,NA,NA,573238,573947,2023-09-28T12:28:50Z,574003.3,NULL,NA,NA,NA,NA,NA,NA,NA,NA,NA,27,NA,NA,NA,NA,NA,NA,NA,NA,NA,NA,NA,NA,NA,NA,NA,NA,NA,NA,NA
8220,check continue,flow.Sequence,3_0_28,NA,NA,skipped,NA,573978,NA,NA,573238,573979,2023-09-28T12:28:50Z,574003.3,NULL,NA,NA,NA,NA,NA,NA,NA,NA,NA,28,NA,NA,NA,NA,NA,NA,NA,NA,NA,NA,NA,NA,NA,NA,NA,NA,NA,NA,NA
8220,check continue,flow.Sequence,3_0_29,NA,NA,skipped,NA,574003,NA,NA,573238,574003,2023-09-28T12:28:50Z,574003.3,NULL,NA,NA,NA,NA,NA,NA,NA,NA,NA,29,NA,NA,NA,NA,NA,NA,NA,NA,NA,NA,NA,NA,NA,NA,NA,NA,NA,NA,NA
8220,until continue,flow.Loop,3_0,NA,NA,completion,383741.28,189462,189496.44,189496.72,573238,574003,2023-09-28T12:28:50Z,574003.3,NULL,NA,NA,NA,NA,NA,NA,NA,NA,NA,NA,NA,NA,NA,NA,NA,NA,NA,NA,NA,NA,NA,NA,NA,NA,NA,NA,NA,NA,NA
8220,block 1,flow.Sequence,3,NA,NA,completion,383741.28,189462,189496.44,189496.72,573238,574003,2023-09-28T12:28:50Z,574003.3,NULL,NA,NA,NA,NA,NA,NA,NA,NA,NA,NA,NA,NA,NA,NA,NA,NA,NA,NA,NA,NA,NA,NA,NA,NA,NA,NA,NA,NA,NA
8220,1.Part Over,canvas.Screen,4,NA,keypress(Space),response,13078.7,574003,574003,574003.3,587082,587098,2023-09-28T12:29:03Z,587178.18,NULL,NA,NA,NA,NA,NA,NA,NA,NA,NA,NA,NA,NA,NA,NA,NA,NA,NA,NA,NA,NA,NA,NA,NA,NA,NA,NA,NA,NA,NA
8220,deep,flow.Sequence,5_0_0_0_0_0,NA,NA,skipped,NA,587177,NA,NA,587082,587177,2023-09-28T12:29:03Z,587178.18,NULL,Betrüger,mdanganyifu,s,mwanamuziki,wastani,mahakama,NA,sdf,NA,0,NA,NA,NA,NA,NA,NA,NA,NA,NA,NA,NA,NA,NA,NA,NA,NA,NA,NA,NA
8220,Shallow Question,html.Page,5_0_0_0_0_1_0,NA,NA,form submission,11101.82,587177,587177.04,587178.18,598280,598280,2023-09-28T12:29:14Z,598293.08,NULL,Betrüger,mdanganyifu,s,mwanamuziki,wastani,mahakama,mahakama,NA,NA,0,NA,NA,NA,NA,NA,NA,NA,NA,NA,NA,NA,NA,NA,NA,NA,NA,NA,NA,NA
8220,"""Richtig""-Screen",canvas.Screen,5_0_0_0_0_1_1,NA,NA,skipped,NA,598284,NA,NA,598280,598284,2023-09-28T12:29:14Z,598293.08,NULL,Betrüger,mdanganyifu,s,mwanamuziki,wastani,mahakama,NA,sdf,NA,0,NA,NA,NA,NA,NA,NA,NA,NA,NA,NA,NA,NA,NA,NA,NA,NA,NA,NA,NA
8220,"""Falsch""-Screen",canvas.Screen,5_0_0_0_0_1_2,NA,NA,timeout,4998.86,598287,598277.36,598293.08,603275.32,603277,2023-09-28T12:29:19Z,603291.94,NULL,Betrüger,mdanganyifu,s,mwanamuziki,wastani,mahakama,NA,sdf,0,0,NA,NA,NA,NA,NA,NA,NA,NA,NA,NA,NA,NA,NA,NA,NA,NA,NA,NA,NA
8220,shallow,flow.Sequence,5_0_0_0_0_1,NA,NA,completion,16097.14,587177,587177.04,587178.18,603275.32,603277,2023-09-28T12:29:19Z,603291.94,NULL,Betrüger,mdanganyifu,s,mwanamuziki,wastani,mahakama,NA,sdf,NA,0,NA,NA,NA,NA,NA,NA,NA,NA,NA,NA,NA,NA,NA,NA,NA,NA,NA,NA,NA
8220,task,flow.Sequence,5_0_0_0_0,NA,NA,completion,16097.14,587177,587177.04,587178.18,603275.32,603277,2023-09-28T12:29:19Z,603291.94,NULL,Betrüger,mdanganyifu,s,mwanamuziki,wastani,mahakama,NA,sdf,NA,0,NA,NA,NA,NA,NA,NA,NA,NA,NA,NA,NA,NA,NA,NA,NA,NA,NA,NA,NA
8220,Deep Question,html.Page,5_0_0_0_1_0_0,NA,NA,form submission,5489.0600000001,603278,603275.32,603291.94,608781,608781,2023-09-28T12:29:25Z,608791.64,NULL,Vergnügen,kichekesho,d,NA,NA,NA,verg,NA,NA,0,NA,NA,NA,NA,NA,NA,NA,NA,NA,NA,NA,NA,NA,NA,NA,NA,NA,NA,NA
8220,"""Richtig""-Screen",canvas.Screen,5_0_0_0_1_0_1,NA,NA,skipped,NA,608784,NA,NA,608781,608784,2023-09-28T12:29:25Z,608791.64,NULL,Vergnügen,kichekesho,d,NA,NA,NA,NA,sdf,NA,0,NA,NA,NA,NA,NA,NA,NA,NA,NA,NA,NA,NA,NA,NA,NA,NA,NA,NA,NA
8220,"""Falsch""-Screen",canvas.Screen,5_0_0_0_1_0_2,NA,NA,timeout,4999.14,608786,608780.3,608791.64,613774.16,613776,2023-09-28T12:29:30Z,613790.78,NULL,Vergnügen,kichekesho,d,NA,NA,NA,NA,sdf,0,0,NA,NA,NA,NA,NA,NA,NA,NA,NA,NA,NA,NA,NA,NA,NA,NA,NA,NA,NA
8220,deep,flow.Sequence,5_0_0_0_1_0,NA,NA,completion,10482.22,603278,603275.32,603291.94,613774.16,613776,2023-09-28T12:29:30Z,613790.78,NULL,Vergnügen,kichekesho,d,NA,NA,NA,NA,sdf,NA,0,NA,NA,NA,NA,NA,NA,NA,NA,NA,NA,NA,NA,NA,NA,NA,NA,NA,NA,NA
8220,shallow,flow.Sequence,5_0_0_0_1_1,NA,NA,skipped,NA,613777,NA,NA,613774.16,613777,2023-09-28T12:29:30Z,613790.78,NULL,Vergnügen,kichekesho,d,NA,NA,NA,NA,sdf,NA,0,NA,NA,NA,NA,NA,NA,NA,NA,NA,NA,NA,NA,NA,NA,NA,NA,NA,NA,NA
8220,task,flow.Sequence,5_0_0_0_1,NA,NA,completion,10482.22,603278,603275.32,603291.94,613774.16,613777,2023-09-28T12:29:30Z,613790.78,NULL,Vergnügen,kichekesho,d,NA,NA,NA,NA,sdf,NA,0,NA,NA,NA,NA,NA,NA,NA,NA,NA,NA,NA,NA,NA,NA,NA,NA,NA,NA,NA
8220,deep,flow.Sequence,5_0_0_0_2_0,NA,NA,skipped,NA,613778,NA,NA,613774.16,613778,2023-09-28T12:29:30Z,613790.78,NULL,Ergänzung,kijalizo,s,ulaghai,mustarehe,matangazo,NA,sdf,NA,0,NA,NA,NA,NA,NA,NA,NA,NA,NA,NA,NA,NA,NA,NA,NA,NA,NA,NA,NA
8220,Shallow Question,html.Page,5_0_0_0_2_1_0,NA,NA,form submission,19646.22,613779,613774.16,613790.78,633437,633438,2023-09-28T12:29:49Z,633438.52,NULL,Ergänzung,kijalizo,s,ulaghai,mustarehe,matangazo,matangazo,NA,NA,0,NA,NA,NA,NA,NA,NA,NA,NA,NA,NA,NA,NA,NA,NA,NA,NA,NA,NA,NA
8220,"""Richtig""-Screen",canvas.Screen,5_0_0_0_2_1_1,NA,NA,skipped,NA,633446,NA,NA,633437,633446,2023-09-28T12:29:49Z,633438.52,NULL,Ergänzung,kijalizo,s,ulaghai,mustarehe,matangazo,NA,sdf,NA,0,NA,NA,NA,NA,NA,NA,NA,NA,NA,NA,NA,NA,NA,NA,NA,NA,NA,NA,NA
8220,"""Falsch""-Screen",canvas.Screen,5_0_0_0_2_1_2,NA,NA,timeout,4999.16,633449,633430.52,633438.52,638421.06,638423,2023-09-28T12:29:54Z,638437.68,NULL,Ergänzung,kijalizo,s,ulaghai,mustarehe,matangazo,NA,sdf,0,0,NA,NA,NA,NA,NA,NA,NA,NA,NA,NA,NA,NA,NA,NA,NA,NA,NA,NA,NA
8220,shallow,flow.Sequence,5_0_0_0_2_1,NA,NA,completion,24630.28,613779,613774.16,613790.78,638421.06,638424,2023-09-28T12:29:54Z,638437.68,NULL,Ergänzung,kijalizo,s,ulaghai,mustarehe,matangazo,NA,sdf,NA,0,NA,NA,NA,NA,NA,NA,NA,NA,NA,NA,NA,NA,NA,NA,NA,NA,NA,NA,NA
8220,task,flow.Sequence,5_0_0_0_2,NA,NA,completion,24630.28,613777,613774.16,613790.78,638421.06,638425,2023-09-28T12:29:54Z,638437.68,NULL,Ergänzung,kijalizo,s,ulaghai,mustarehe,matangazo,NA,sdf,NA,0,NA,NA,NA,NA,NA,NA,NA,NA,NA,NA,NA,NA,NA,NA,NA,NA,NA,NA,NA
8220,deep,flow.Sequence,5_0_0_0_3_0,NA,NA,skipped,NA,638426,NA,NA,638421.06,638426,2023-09-28T12:29:54Z,638437.68,NULL,Wohlstand,mafanikio,s,chimbuko,kumbuko,mapwaji,NA,sdf,NA,0,NA,NA,NA,NA,NA,NA,NA,NA,NA,NA,NA,NA,NA,NA,NA,NA,NA,NA,NA
8220,Shallow Question,html.Page,5_0_0_0_3_1_0,NA,NA,form submission,21531.32,638427,638421.06,638437.68,659969,659970,2023-09-28T12:30:16Z,659968.58,NULL,Wohlstand,mafanikio,s,chimbuko,kumbuko,mapwaji,mapwaji,NA,NA,0,NA,NA,NA,NA,NA,NA,NA,NA,NA,NA,NA,NA,NA,NA,NA,NA,NA,NA,NA
8220,"""Richtig""-Screen",canvas.Screen,5_0_0_0_3_1_1,NA,NA,skipped,NA,659976,NA,NA,659969,659976,2023-09-28T12:30:16Z,659968.58,NULL,Wohlstand,mafanikio,s,chimbuko,kumbuko,mapwaji,NA,sdf,NA,0,NA,NA,NA,NA,NA,NA,NA,NA,NA,NA,NA,NA,NA,NA,NA,NA,NA,NA,NA
8220,"""Falsch""-Screen",canvas.Screen,5_0_0_0_3_1_2,NA,NA,timeout,4999.1000000001,659980,659965.98,659968.58,664951.06,664953,2023-09-28T12:30:21Z,664967.68,NULL,Wohlstand,mafanikio,s,chimbuko,kumbuko,mapwaji,NA,sdf,0,0,NA,NA,NA,NA,NA,NA,NA,NA,NA,NA,NA,NA,NA,NA,NA,NA,NA,NA,NA
8220,shallow,flow.Sequence,5_0_0_0_3_1,NA,NA,completion,26513.38,638426,638421.06,638437.68,664951.06,664954,2023-09-28T12:30:21Z,664967.68,NULL,Wohlstand,mafanikio,s,chimbuko,kumbuko,mapwaji,NA,sdf,NA,0,NA,NA,NA,NA,NA,NA,NA,NA,NA,NA,NA,NA,NA,NA,NA,NA,NA,NA,NA
8220,task,flow.Sequence,5_0_0_0_3,NA,NA,completion,26513.38,638425,638421.06,638437.68,664951.06,664955,2023-09-28T12:30:21Z,664967.68,NULL,Wohlstand,mafanikio,s,chimbuko,kumbuko,mapwaji,NA,sdf,NA,0,NA,NA,NA,NA,NA,NA,NA,NA,NA,NA,NA,NA,NA,NA,NA,NA,NA,NA,NA
8220,Deep Question,html.Page,5_0_0_0_4_0_0,NA,NA,form submission,20340.32,664956,664951.06,664967.68,685308,685308,2023-09-28T12:30:41Z,685315.18,NULL,Orientierung,urekebisho,d,NA,NA,NA,kichekesho,NA,NA,0,NA,NA,NA,NA,NA,NA,NA,NA,NA,NA,NA,NA,NA,NA,NA,NA,NA,NA,NA
8220,"""Richtig""-Screen",canvas.Screen,5_0_0_0_4_0_1,NA,NA,skipped,NA,685312,NA,NA,685308,685313,2023-09-28T12:30:41Z,685315.18,NULL,Orientierung,urekebisho,d,NA,NA,NA,NA,sdf,NA,0,NA,NA,NA,NA,NA,NA,NA,NA,NA,NA,NA,NA,NA,NA,NA,NA,NA,NA,NA
8220,"""Falsch""-Screen",canvas.Screen,5_0_0_0_4_0_2,NA,NA,timeout,4999.0599999999,685317,685304.66,685315.18,690297.64,690300,2023-09-28T12:30:46Z,690314.24,NULL,Orientierung,urekebisho,d,NA,NA,NA,NA,sdf,0,0,NA,NA,NA,NA,NA,NA,NA,NA,NA,NA,NA,NA,NA,NA,NA,NA,NA,NA,NA
8220,deep,flow.Sequence,5_0_0_0_4_0,NA,NA,completion,25329.96,664956,664951.06,664967.68,690297.64,690301,2023-09-28T12:30:46Z,690314.24,NULL,Orientierung,urekebisho,d,NA,NA,NA,NA,sdf,NA,0,NA,NA,NA,NA,NA,NA,NA,NA,NA,NA,NA,NA,NA,NA,NA,NA,NA,NA,NA
8220,shallow,flow.Sequence,5_0_0_0_4_1,NA,NA,skipped,NA,690301,NA,NA,690297.64,690302,2023-09-28T12:30:46Z,690314.24,NULL,Orientierung,urekebisho,d,NA,NA,NA,NA,sdf,NA,0,NA,NA,NA,NA,NA,NA,NA,NA,NA,NA,NA,NA,NA,NA,NA,NA,NA,NA,NA
8220,task,flow.Sequence,5_0_0_0_4,NA,NA,completion,25329.96,664955,664951.06,664967.68,690297.64,690302,2023-09-28T12:30:46Z,690314.24,NULL,Orientierung,urekebisho,d,NA,NA,NA,NA,sdf,NA,0,NA,NA,NA,NA,NA,NA,NA,NA,NA,NA,NA,NA,NA,NA,NA,NA,NA,NA,NA
8220,Deep Question,html.Page,5_0_0_0_5_0_0,NA,NA,form submission,35468.76,690303,690297.64,690314.24,725783,725784,2023-09-28T12:31:22Z,725783.68,NULL,Notfall,dharura,d,NA,NA,NA,emerg,NA,NA,0,NA,NA,NA,NA,NA,NA,NA,NA,NA,NA,NA,NA,NA,NA,NA,NA,NA,NA,NA
8220,"""Richtig""-Screen",canvas.Screen,5_0_0_0_5_0_1,NA,NA,skipped,NA,725787,NA,NA,725783,725787,2023-09-28T12:31:22Z,725783.68,NULL,Notfall,dharura,d,NA,NA,NA,NA,sdf,NA,0,NA,NA,NA,NA,NA,NA,NA,NA,NA,NA,NA,NA,NA,NA,NA,NA,NA,NA,NA
8220,"""Falsch""-Screen",canvas.Screen,5_0_0_0_5_0_2,NA,NA,timeout,4992.0599999999,725791,725783.38,725783.68,730759.14,730760,2023-09-28T12:31:27Z,730775.74,NULL,Notfall,dharura,d,NA,NA,NA,NA,sdf,0,0,NA,NA,NA,NA,NA,NA,NA,NA,NA,NA,NA,NA,NA,NA,NA,NA,NA,NA,NA
8220,deep,flow.Sequence,5_0_0_0_5_0,NA,NA,completion,40444.9,690303,690297.64,690314.24,730759.14,730762,2023-09-28T12:31:27Z,730775.74,NULL,Notfall,dharura,d,NA,NA,NA,NA,sdf,NA,0,NA,NA,NA,NA,NA,NA,NA,NA,NA,NA,NA,NA,NA,NA,NA,NA,NA,NA,NA
8220,shallow,flow.Sequence,5_0_0_0_5_1,NA,NA,skipped,NA,730762,NA,NA,730759.14,730763,2023-09-28T12:31:27Z,730775.74,NULL,Notfall,dharura,d,NA,NA,NA,NA,sdf,NA,0,NA,NA,NA,NA,NA,NA,NA,NA,NA,NA,NA,NA,NA,NA,NA,NA,NA,NA,NA
8220,task,flow.Sequence,5_0_0_0_5,NA,NA,completion,40444.9,690303,690297.64,690314.24,730759.14,730763,2023-09-28T12:31:27Z,730775.74,NULL,Notfall,dharura,d,NA,NA,NA,NA,sdf,NA,0,NA,NA,NA,NA,NA,NA,NA,NA,NA,NA,NA,NA,NA,NA,NA,NA,NA,NA,NA
8220,Deep Question,html.Page,5_0_0_0_6_0_0,NA,NA,form submission,36259.26,730764,730759.14,730775.74,767035,767035,2023-09-28T12:32:03Z,767038.2,NULL,Respekt,heshima,d,NA,NA,NA,resp,NA,NA,0,NA,NA,NA,NA,NA,NA,NA,NA,NA,NA,NA,NA,NA,NA,NA,NA,NA,NA,NA
8220,"""Richtig""-Screen",canvas.Screen,5_0_0_0_6_0_1,NA,NA,skipped,NA,767041,NA,NA,767035,767041,2023-09-28T12:32:03Z,767038.2,NULL,Respekt,heshima,d,NA,NA,NA,NA,sdf,NA,0,NA,NA,NA,NA,NA,NA,NA,NA,NA,NA,NA,NA,NA,NA,NA,NA,NA,NA,NA
8220,"""Falsch""-Screen",canvas.Screen,5_0_0_0_6_0_2,NA,NA,timeout,4998.92,767046,767032.2,767038.2,772020.5,772023,2023-09-28T12:32:08Z,772037.12,NULL,Respekt,heshima,d,NA,NA,NA,NA,sdf,0,0,NA,NA,NA,NA,NA,NA,NA,NA,NA,NA,NA,NA,NA,NA,NA,NA,NA,NA,NA
8220,deep,flow.Sequence,5_0_0_0_6_0,NA,NA,completion,41244.76,730764,730759.14,730775.74,772020.5,772023,2023-09-28T12:32:08Z,772037.12,NULL,Respekt,heshima,d,NA,NA,NA,NA,sdf,NA,0,NA,NA,NA,NA,NA,NA,NA,NA,NA,NA,NA,NA,NA,NA,NA,NA,NA,NA,NA
8220,shallow,flow.Sequence,5_0_0_0_6_1,NA,NA,skipped,NA,772024,NA,NA,772020.5,772024,2023-09-28T12:32:08Z,772037.12,NULL,Respekt,heshima,d,NA,NA,NA,NA,sdf,NA,0,NA,NA,NA,NA,NA,NA,NA,NA,NA,NA,NA,NA,NA,NA,NA,NA,NA,NA,NA
8220,task,flow.Sequence,5_0_0_0_6,NA,NA,completion,41244.76,730764,730759.14,730775.74,772020.5,772025,2023-09-28T12:32:08Z,772037.12,NULL,Respekt,heshima,d,NA,NA,NA,NA,sdf,NA,0,NA,NA,NA,NA,NA,NA,NA,NA,NA,NA,NA,NA,NA,NA,NA,NA,NA,NA,NA
8220,deep,flow.Sequence,5_0_0_0_7_0,NA,NA,skipped,NA,772025,NA,NA,772020.5,772026,2023-09-28T12:32:08Z,772037.12,NULL,Stimmung,kinyongo,s,kilekile,kisambo,madhehebu,NA,sdf,NA,0,NA,NA,NA,NA,NA,NA,NA,NA,NA,NA,NA,NA,NA,NA,NA,NA,NA,NA,NA
8220,Shallow Question,html.Page,5_0_0_0_7_1_0,NA,NA,form submission,14206.88,772026,772020.5,772037.12,786244,786244,2023-09-28T12:32:22Z,786252.32,NULL,Stimmung,kinyongo,s,kilekile,kisambo,madhehebu,kisambo,NA,NA,0,NA,NA,NA,NA,NA,NA,NA,NA,NA,NA,NA,NA,NA,NA,NA,NA,NA,NA,NA
8220,"""Richtig""-Screen",canvas.Screen,5_0_0_0_7_1_1,NA,NA,skipped,NA,786248,NA,NA,786244,786248,2023-09-28T12:32:22Z,786252.32,NULL,Stimmung,kinyongo,s,kilekile,kisambo,madhehebu,NA,sdf,NA,0,NA,NA,NA,NA,NA,NA,NA,NA,NA,NA,NA,NA,NA,NA,NA,NA,NA,NA,NA
8220,"""Falsch""-Screen",canvas.Screen,5_0_0_0_7_1_2,NA,NA,timeout,4999.04,786252,786241.9,786252.32,791234.76,791237,2023-09-28T12:32:27Z,791251.36,NULL,Stimmung,kinyongo,s,kilekile,kisambo,madhehebu,NA,sdf,0,0,NA,NA,NA,NA,NA,NA,NA,NA,NA,NA,NA,NA,NA,NA,NA,NA,NA,NA,NA
8220,shallow,flow.Sequence,5_0_0_0_7_1,NA,NA,completion,19197.64,772026,772020.5,772037.12,791234.76,791237,2023-09-28T12:32:27Z,791251.36,NULL,Stimmung,kinyongo,s,kilekile,kisambo,madhehebu,NA,sdf,NA,0,NA,NA,NA,NA,NA,NA,NA,NA,NA,NA,NA,NA,NA,NA,NA,NA,NA,NA,NA
8220,task,flow.Sequence,5_0_0_0_7,NA,NA,completion,19197.64,772025,772020.5,772037.12,791234.76,791238,2023-09-28T12:32:27Z,791251.36,NULL,Stimmung,kinyongo,s,kilekile,kisambo,madhehebu,NA,sdf,NA,0,NA,NA,NA,NA,NA,NA,NA,NA,NA,NA,NA,NA,NA,NA,NA,NA,NA,NA,NA
8220,block,flow.Loop,5_0_0_0,NA,NA,completion,204056.58,587177,587177.04,587178.18,791234.76,791239,2023-09-28T12:32:27Z,791251.36,NULL,NA,NA,NA,NA,NA,NA,NA,sdf,NA,0,NA,NA,NA,NA,NA,NA,NA,NA,NA,NA,NA,NA,NA,NA,NA,NA,NA,NA,NA
8220,weiter,canvas.Screen,5_0_0_1,sdf,keypress(Space),response,2455.64,791239,791234.76,791251.36,793707,793723,2023-09-28T12:32:30Z,793786.54,NULL,NA,NA,NA,NA,NA,NA,NA,sdf,NA,0,NA,NA,NA,NA,NA,NA,NA,NA,NA,NA,NA,NA,NA,NA,NA,NA,NA,NA,NA
8220,check continue,flow.Sequence,5_0_0,NA,NA,completion,206528.82,587177,587177.04,587178.18,793707,793724,2023-09-28T12:32:30Z,793786.54,NULL,NA,NA,NA,NA,NA,NA,NA,sdf,NA,0,NA,NA,NA,NA,NA,NA,NA,NA,NA,NA,NA,NA,NA,NA,NA,NA,NA,NA,NA
8220,deep,flow.Sequence,5_0_1_0_0_0,NA,NA,skipped,NA,793786,NA,NA,793707,793786,2023-09-28T12:32:30Z,793786.54,NULL,Wohlstand,mafanikio,s,chimbuko,kumbuko,mapwaji,NA,sdfdsf,NA,1,NA,NA,NA,NA,NA,NA,NA,NA,NA,NA,NA,NA,NA,NA,NA,NA,NA,NA,NA
8220,Shallow Question,html.Page,5_0_1_0_0_1_0,NA,NA,form submission,5607.46,793786,793786.28,793786.54,799394,799395,2023-09-28T12:32:35Z,799400.62,NULL,Wohlstand,mafanikio,s,chimbuko,kumbuko,mapwaji,mafanikio,NA,NA,1,NA,NA,NA,NA,NA,NA,NA,NA,NA,NA,NA,NA,NA,NA,NA,NA,NA,NA,NA
8220,"""Richtig""-Screen",canvas.Screen,5_0_1_0_0_1_1,NA,NA,timeout,4998.98,799398,799391.94,799400.62,804382.98,804390,2023-09-28T12:32:40Z,804399.6,NULL,Wohlstand,mafanikio,s,chimbuko,kumbuko,mapwaji,NA,sdfdsf,1,1,NA,NA,NA,NA,NA,NA,NA,NA,NA,NA,NA,NA,NA,NA,NA,NA,NA,NA,NA
8220,"""Falsch""-Screen",canvas.Screen,5_0_1_0_0_1_2,NA,NA,skipped,NA,804408,NA,NA,804382.98,804408,2023-09-28T12:32:40Z,804399.6,NULL,Wohlstand,mafanikio,s,chimbuko,kumbuko,mapwaji,NA,sdfdsf,NA,1,NA,NA,NA,NA,NA,NA,NA,NA,NA,NA,NA,NA,NA,NA,NA,NA,NA,NA,NA
8220,shallow,flow.Sequence,5_0_1_0_0_1,NA,NA,completion,10596.44,793786,793786.28,793786.54,804382.98,804409,2023-09-28T12:32:40Z,804399.6,NULL,Wohlstand,mafanikio,s,chimbuko,kumbuko,mapwaji,NA,sdfdsf,NA,1,NA,NA,NA,NA,NA,NA,NA,NA,NA,NA,NA,NA,NA,NA,NA,NA,NA,NA,NA
8220,task,flow.Sequence,5_0_1_0_0,NA,NA,completion,10596.44,793786,793786.28,793786.54,804382.98,804409,2023-09-28T12:32:40Z,804399.6,NULL,Wohlstand,mafanikio,s,chimbuko,kumbuko,mapwaji,NA,sdfdsf,NA,1,NA,NA,NA,NA,NA,NA,NA,NA,NA,NA,NA,NA,NA,NA,NA,NA,NA,NA,NA
8220,Deep Question,html.Page,5_0_1_0_1_0_0,NA,NA,form submission,5954.4,804410,804382.98,804399.6,810354,810355,2023-09-28T12:32:46Z,810354.06,NULL,Orientierung,urekebisho,d,NA,NA,NA,urekebisho,NA,NA,1,NA,NA,NA,NA,NA,NA,NA,NA,NA,NA,NA,NA,NA,NA,NA,NA,NA,NA,NA
8220,"""Richtig""-Screen",canvas.Screen,5_0_1_0_1_0_1,NA,NA,timeout,4994.3199999999,810358,810353.68,810354.06,815331.76,815334,2023-09-28T12:32:51Z,815348.38,NULL,Orientierung,urekebisho,d,NA,NA,NA,NA,sdfdsf,1,1,NA,NA,NA,NA,NA,NA,NA,NA,NA,NA,NA,NA,NA,NA,NA,NA,NA,NA,NA
8220,"""Falsch""-Screen",canvas.Screen,5_0_1_0_1_0_2,NA,NA,skipped,NA,815341,NA,NA,815331.76,815341,2023-09-28T12:32:51Z,815348.38,NULL,Orientierung,urekebisho,d,NA,NA,NA,NA,sdfdsf,NA,1,NA,NA,NA,NA,NA,NA,NA,NA,NA,NA,NA,NA,NA,NA,NA,NA,NA,NA,NA
8220,deep,flow.Sequence,5_0_1_0_1_0,NA,NA,completion,10932.16,804410,804382.98,804399.6,815331.76,815342,2023-09-28T12:32:51Z,815348.38,NULL,Orientierung,urekebisho,d,NA,NA,NA,NA,sdfdsf,NA,1,NA,NA,NA,NA,NA,NA,NA,NA,NA,NA,NA,NA,NA,NA,NA,NA,NA,NA,NA
8220,shallow,flow.Sequence,5_0_1_0_1_1,NA,NA,skipped,NA,815342,NA,NA,815331.76,815342,2023-09-28T12:32:51Z,815348.38,NULL,Orientierung,urekebisho,d,NA,NA,NA,NA,sdfdsf,NA,1,NA,NA,NA,NA,NA,NA,NA,NA,NA,NA,NA,NA,NA,NA,NA,NA,NA,NA,NA
8220,task,flow.Sequence,5_0_1_0_1,NA,NA,completion,10932.16,804409,804382.98,804399.6,815331.76,815343,2023-09-28T12:32:51Z,815348.38,NULL,Orientierung,urekebisho,d,NA,NA,NA,NA,sdfdsf,NA,1,NA,NA,NA,NA,NA,NA,NA,NA,NA,NA,NA,NA,NA,NA,NA,NA,NA,NA,NA
8220,Deep Question,html.Page,5_0_1_0_2_0_0,NA,NA,form submission,17531.62,815344,815331.76,815348.38,832880,832880,2023-09-28T12:33:09Z,832896.86,NULL,Vergnügen,kichekesho,d,NA,NA,NA,kichekesho,NA,NA,1,NA,NA,NA,NA,NA,NA,NA,NA,NA,NA,NA,NA,NA,NA,NA,NA,NA,NA,NA
8220,"""Richtig""-Screen",canvas.Screen,5_0_1_0_2_0_1,NA,NA,timeout,4998.64,832882,832879.02,832896.86,837878.9,837880,2023-09-28T12:33:14Z,837895.5,NULL,Vergnügen,kichekesho,d,NA,NA,NA,NA,sdfdsf,1,1,NA,NA,NA,NA,NA,NA,NA,NA,NA,NA,NA,NA,NA,NA,NA,NA,NA,NA,NA
8220,"""Falsch""-Screen",canvas.Screen,5_0_1_0_2_0_2,NA,NA,skipped,NA,837887,NA,NA,837878.9,837888,2023-09-28T12:33:14Z,837895.5,NULL,Vergnügen,kichekesho,d,NA,NA,NA,NA,sdfdsf,NA,1,NA,NA,NA,NA,NA,NA,NA,NA,NA,NA,NA,NA,NA,NA,NA,NA,NA,NA,NA
8220,deep,flow.Sequence,5_0_1_0_2_0,NA,NA,completion,22530.52,815344,815331.76,815348.38,837878.9,837889,2023-09-28T12:33:14Z,837895.5,NULL,Vergnügen,kichekesho,d,NA,NA,NA,NA,sdfdsf,NA,1,NA,NA,NA,NA,NA,NA,NA,NA,NA,NA,NA,NA,NA,NA,NA,NA,NA,NA,NA
8220,shallow,flow.Sequence,5_0_1_0_2_1,NA,NA,skipped,NA,837889,NA,NA,837878.9,837889,2023-09-28T12:33:14Z,837895.5,NULL,Vergnügen,kichekesho,d,NA,NA,NA,NA,sdfdsf,NA,1,NA,NA,NA,NA,NA,NA,NA,NA,NA,NA,NA,NA,NA,NA,NA,NA,NA,NA,NA
8220,task,flow.Sequence,5_0_1_0_2,NA,NA,completion,22530.52,815343,815331.76,815348.38,837878.9,837890,2023-09-28T12:33:14Z,837895.5,NULL,Vergnügen,kichekesho,d,NA,NA,NA,NA,sdfdsf,NA,1,NA,NA,NA,NA,NA,NA,NA,NA,NA,NA,NA,NA,NA,NA,NA,NA,NA,NA,NA
8220,Deep Question,html.Page,5_0_1_0_3_0_0,NA,NA,form submission,9548.5,837890,837878.9,837895.5,847444,847445,2023-09-28T12:33:23Z,847443.46,NULL,Notfall,dharura,d,NA,NA,NA,dharura,NA,NA,1,NA,NA,NA,NA,NA,NA,NA,NA,NA,NA,NA,NA,NA,NA,NA,NA,NA,NA,NA
8220,"""Richtig""-Screen",canvas.Screen,5_0_1_0_3_0_1,NA,NA,timeout,4999.92,847452,847441.34,847443.46,852426.78,852429,2023-09-28T12:33:28Z,852443.38,NULL,Notfall,dharura,d,NA,NA,NA,NA,sdfdsf,1,1,NA,NA,NA,NA,NA,NA,NA,NA,NA,NA,NA,NA,NA,NA,NA,NA,NA,NA,NA
8220,"""Falsch""-Screen",canvas.Screen,5_0_1_0_3_0_2,NA,NA,skipped,NA,852436,NA,NA,852426.78,852436,2023-09-28T12:33:28Z,852443.38,NULL,Notfall,dharura,d,NA,NA,NA,NA,sdfdsf,NA,1,NA,NA,NA,NA,NA,NA,NA,NA,NA,NA,NA,NA,NA,NA,NA,NA,NA,NA,NA
8220,deep,flow.Sequence,5_0_1_0_3_0,NA,NA,completion,14531.28,837890,837878.9,837895.5,852426.78,852437,2023-09-28T12:33:28Z,852443.38,NULL,Notfall,dharura,d,NA,NA,NA,NA,sdfdsf,NA,1,NA,NA,NA,NA,NA,NA,NA,NA,NA,NA,NA,NA,NA,NA,NA,NA,NA,NA,NA
8220,shallow,flow.Sequence,5_0_1_0_3_1,NA,NA,skipped,NA,852437,NA,NA,852426.78,852437,2023-09-28T12:33:28Z,852443.38,NULL,Notfall,dharura,d,NA,NA,NA,NA,sdfdsf,NA,1,NA,NA,NA,NA,NA,NA,NA,NA,NA,NA,NA,NA,NA,NA,NA,NA,NA,NA,NA
8220,task,flow.Sequence,5_0_1_0_3,NA,NA,completion,14531.28,837890,837878.9,837895.5,852426.78,852438,2023-09-28T12:33:28Z,852443.38,NULL,Notfall,dharura,d,NA,NA,NA,NA,sdfdsf,NA,1,NA,NA,NA,NA,NA,NA,NA,NA,NA,NA,NA,NA,NA,NA,NA,NA,NA,NA,NA
8220,deep,flow.Sequence,5_0_1_0_4_0,NA,NA,skipped,NA,852438,NA,NA,852426.78,852438,2023-09-28T12:33:28Z,852443.38,NULL,Betrüger,mdanganyifu,s,mwanamuziki,wastani,mahakama,NA,sdfdsf,NA,1,NA,NA,NA,NA,NA,NA,NA,NA,NA,NA,NA,NA,NA,NA,NA,NA,NA,NA,NA
8220,Shallow Question,html.Page,5_0_1_0_4_1_0,NA,NA,form submission,4452.62,852438,852426.78,852443.38,856896,856896,2023-09-28T12:33:33Z,856893.38,NULL,Betrüger,mdanganyifu,s,mwanamuziki,wastani,mahakama,mdanganyifu,NA,NA,1,NA,NA,NA,NA,NA,NA,NA,NA,NA,NA,NA,NA,NA,NA,NA,NA,NA,NA,NA
8220,"""Richtig""-Screen",canvas.Screen,5_0_1_0_4_1_1,NA,NA,timeout,4998.98,856901,856892.02,856893.38,861875.74,861882,2023-09-28T12:33:38Z,861892.36,NULL,Betrüger,mdanganyifu,s,mwanamuziki,wastani,mahakama,NA,sdfdsf,1,1,NA,NA,NA,NA,NA,NA,NA,NA,NA,NA,NA,NA,NA,NA,NA,NA,NA,NA,NA
8220,"""Falsch""-Screen",canvas.Screen,5_0_1_0_4_1_2,NA,NA,skipped,NA,861897,NA,NA,861875.74,861897,2023-09-28T12:33:38Z,861892.36,NULL,Betrüger,mdanganyifu,s,mwanamuziki,wastani,mahakama,NA,sdfdsf,NA,1,NA,NA,NA,NA,NA,NA,NA,NA,NA,NA,NA,NA,NA,NA,NA,NA,NA,NA,NA
8220,shallow,flow.Sequence,5_0_1_0_4_1,NA,NA,completion,9432.36,852438,852426.78,852443.38,861875.74,861897,2023-09-28T12:33:38Z,861892.36,NULL,Betrüger,mdanganyifu,s,mwanamuziki,wastani,mahakama,NA,sdfdsf,NA,1,NA,NA,NA,NA,NA,NA,NA,NA,NA,NA,NA,NA,NA,NA,NA,NA,NA,NA,NA
8220,task,flow.Sequence,5_0_1_0_4,NA,NA,completion,9432.36,852438,852426.78,852443.38,861875.74,861897,2023-09-28T12:33:38Z,861892.36,NULL,Betrüger,mdanganyifu,s,mwanamuziki,wastani,mahakama,NA,sdfdsf,NA,1,NA,NA,NA,NA,NA,NA,NA,NA,NA,NA,NA,NA,NA,NA,NA,NA,NA,NA,NA
8220,deep,flow.Sequence,5_0_1_0_5_0,NA,NA,skipped,NA,861898,NA,NA,861875.74,861898,2023-09-28T12:33:38Z,861892.36,NULL,Ergänzung,kijalizo,s,ulaghai,mustarehe,matangazo,NA,sdfdsf,NA,1,NA,NA,NA,NA,NA,NA,NA,NA,NA,NA,NA,NA,NA,NA,NA,NA,NA,NA,NA
8220,Shallow Question,html.Page,5_0_1_0_5_1_0,NA,NA,form submission,10688.64,861898,861875.74,861892.36,872581,872582,2023-09-28T12:33:48Z,872591.36,NULL,Ergänzung,kijalizo,s,ulaghai,mustarehe,matangazo,matangazo,NA,NA,1,NA,NA,NA,NA,NA,NA,NA,NA,NA,NA,NA,NA,NA,NA,NA,NA,NA,NA,NA
8220,"""Richtig""-Screen",canvas.Screen,5_0_1_0_5_1_1,NA,NA,skipped,NA,872587,NA,NA,872581,872588,2023-09-28T12:33:48Z,872591.36,NULL,Ergänzung,kijalizo,s,ulaghai,mustarehe,matangazo,NA,sdfdsf,NA,1,NA,NA,NA,NA,NA,NA,NA,NA,NA,NA,NA,NA,NA,NA,NA,NA,NA,NA,NA
8220,"""Falsch""-Screen",canvas.Screen,5_0_1_0_5_1_2,NA,NA,timeout,4999.1,872593,872575.58,872591.36,877573.84,877575,2023-09-28T12:33:53Z,877590.46,NULL,Ergänzung,kijalizo,s,ulaghai,mustarehe,matangazo,NA,sdfdsf,0,1,NA,NA,NA,NA,NA,NA,NA,NA,NA,NA,NA,NA,NA,NA,NA,NA,NA,NA,NA
8220,shallow,flow.Sequence,5_0_1_0_5_1,NA,NA,completion,15681.48,861898,861875.74,861892.36,877573.84,877576,2023-09-28T12:33:53Z,877590.46,NULL,Ergänzung,kijalizo,s,ulaghai,mustarehe,matangazo,NA,sdfdsf,NA,1,NA,NA,NA,NA,NA,NA,NA,NA,NA,NA,NA,NA,NA,NA,NA,NA,NA,NA,NA
8220,task,flow.Sequence,5_0_1_0_5,NA,NA,completion,15681.48,861898,861875.74,861892.36,877573.84,877577,2023-09-28T12:33:53Z,877590.46,NULL,Ergänzung,kijalizo,s,ulaghai,mustarehe,matangazo,NA,sdfdsf,NA,1,NA,NA,NA,NA,NA,NA,NA,NA,NA,NA,NA,NA,NA,NA,NA,NA,NA,NA,NA
8220,Deep Question,html.Page,5_0_1_0_6_0_0,NA,NA,form submission,17940.54,877578,877573.84,877590.46,895531,895532,2023-09-28T12:34:11Z,895530.54,NULL,Respekt,heshima,d,NA,NA,NA,heshima,NA,NA,1,NA,NA,NA,NA,NA,NA,NA,NA,NA,NA,NA,NA,NA,NA,NA,NA,NA,NA,NA
8220,"""Richtig""-Screen",canvas.Screen,5_0_1_0_6_0_1,NA,NA,timeout,5006.9399999999,895534,895530.12,895530.54,900520.86,900523,2023-09-28T12:34:16Z,900537.48,NULL,Respekt,heshima,d,NA,NA,NA,NA,sdfdsf,1,1,NA,NA,NA,NA,NA,NA,NA,NA,NA,NA,NA,NA,NA,NA,NA,NA,NA,NA,NA
8220,"""Falsch""-Screen",canvas.Screen,5_0_1_0_6_0_2,NA,NA,skipped,NA,900529,NA,NA,900520.86,900530,2023-09-28T12:34:16Z,900537.48,NULL,Respekt,heshima,d,NA,NA,NA,NA,sdfdsf,NA,1,NA,NA,NA,NA,NA,NA,NA,NA,NA,NA,NA,NA,NA,NA,NA,NA,NA,NA,NA
8220,deep,flow.Sequence,5_0_1_0_6_0,NA,NA,completion,22930.4,877578,877573.84,877590.46,900520.86,900530,2023-09-28T12:34:16Z,900537.48,NULL,Respekt,heshima,d,NA,NA,NA,NA,sdfdsf,NA,1,NA,NA,NA,NA,NA,NA,NA,NA,NA,NA,NA,NA,NA,NA,NA,NA,NA,NA,NA
8220,shallow,flow.Sequence,5_0_1_0_6_1,NA,NA,skipped,NA,900530,NA,NA,900520.86,900531,2023-09-28T12:34:16Z,900537.48,NULL,Respekt,heshima,d,NA,NA,NA,NA,sdfdsf,NA,1,NA,NA,NA,NA,NA,NA,NA,NA,NA,NA,NA,NA,NA,NA,NA,NA,NA,NA,NA
8220,task,flow.Sequence,5_0_1_0_6,NA,NA,completion,22930.4,877578,877573.84,877590.46,900520.86,900531,2023-09-28T12:34:16Z,900537.48,NULL,Respekt,heshima,d,NA,NA,NA,NA,sdfdsf,NA,1,NA,NA,NA,NA,NA,NA,NA,NA,NA,NA,NA,NA,NA,NA,NA,NA,NA,NA,NA
8220,deep,flow.Sequence,5_0_1_0_7_0,NA,NA,skipped,NA,900531,NA,NA,900520.86,900531,2023-09-28T12:34:16Z,900537.48,NULL,Stimmung,kinyongo,s,kilekile,kisambo,madhehebu,NA,sdfdsf,NA,1,NA,NA,NA,NA,NA,NA,NA,NA,NA,NA,NA,NA,NA,NA,NA,NA,NA,NA,NA
8220,Shallow Question,html.Page,5_0_1_0_7_1_0,NA,NA,form submission,6628.52,900532,900520.86,900537.48,907166,907166,2023-09-28T12:34:23Z,907170.26,NULL,Stimmung,kinyongo,s,kilekile,kisambo,madhehebu,kinyongo,NA,NA,1,NA,NA,NA,NA,NA,NA,NA,NA,NA,NA,NA,NA,NA,NA,NA,NA,NA,NA,NA
8220,"""Richtig""-Screen",canvas.Screen,5_0_1_0_7_1_1,NA,NA,timeout,4998.9399999999,907171,907162.24,907170.26,912152.58,912155,2023-09-28T12:34:28Z,912169.2,NULL,Stimmung,kinyongo,s,kilekile,kisambo,madhehebu,NA,sdfdsf,1,1,NA,NA,NA,NA,NA,NA,NA,NA,NA,NA,NA,NA,NA,NA,NA,NA,NA,NA,NA
8220,"""Falsch""-Screen",canvas.Screen,5_0_1_0_7_1_2,NA,NA,skipped,NA,912159,NA,NA,912152.58,912159,2023-09-28T12:34:28Z,912169.2,NULL,Stimmung,kinyongo,s,kilekile,kisambo,madhehebu,NA,sdfdsf,NA,1,NA,NA,NA,NA,NA,NA,NA,NA,NA,NA,NA,NA,NA,NA,NA,NA,NA,NA,NA
8220,shallow,flow.Sequence,5_0_1_0_7_1,NA,NA,completion,11615.1,900532,900520.86,900537.48,912152.58,912159,2023-09-28T12:34:28Z,912169.2,NULL,Stimmung,kinyongo,s,kilekile,kisambo,madhehebu,NA,sdfdsf,NA,1,NA,NA,NA,NA,NA,NA,NA,NA,NA,NA,NA,NA,NA,NA,NA,NA,NA,NA,NA
8220,task,flow.Sequence,5_0_1_0_7,NA,NA,completion,11615.1,900531,900520.86,900537.48,912152.58,912159,2023-09-28T12:34:28Z,912169.2,NULL,Stimmung,kinyongo,s,kilekile,kisambo,madhehebu,NA,sdfdsf,NA,1,NA,NA,NA,NA,NA,NA,NA,NA,NA,NA,NA,NA,NA,NA,NA,NA,NA,NA,NA
8220,block,flow.Loop,5_0_1_0,NA,NA,completion,118366.04,793786,793786.28,793786.54,912152.58,912159,2023-09-28T12:34:28Z,912169.2,NULL,NA,NA,NA,NA,NA,NA,NA,sdfdsf,NA,1,NA,NA,NA,NA,NA,NA,NA,NA,NA,NA,NA,NA,NA,NA,NA,NA,NA,NA,NA
8220,weiter,canvas.Screen,5_0_1_1,sdf,keypress(Space),response,1099.8,912159,912152.58,912169.2,913269,913281,2023-09-28T12:34:29Z,914017,NULL,NA,NA,NA,NA,NA,NA,NA,sdfdsf,NA,1,NA,NA,NA,NA,NA,NA,NA,NA,NA,NA,NA,NA,NA,NA,NA,NA,NA,NA,NA
8220,check continue,flow.Sequence,5_0_1,NA,NA,completion,119482.46,793786,793786.28,793786.54,913269,913282,2023-09-28T12:34:29Z,914017,NULL,NA,NA,NA,NA,NA,NA,NA,sdfdsf,NA,1,NA,NA,NA,NA,NA,NA,NA,NA,NA,NA,NA,NA,NA,NA,NA,NA,NA,NA,NA
8220,check continue,flow.Sequence,5_0_2,NA,NA,skipped,NA,913343,NA,NA,913269,913343,2023-09-28T12:34:29Z,914017,NULL,NA,NA,NA,NA,NA,NA,NA,sdf,NA,2,NA,NA,NA,NA,NA,NA,NA,NA,NA,NA,NA,NA,NA,NA,NA,NA,NA,NA,NA
8220,check continue,flow.Sequence,5_0_3,NA,NA,skipped,NA,913372,NA,NA,913269,913372,2023-09-28T12:34:29Z,914017,NULL,NA,NA,NA,NA,NA,NA,NA,qt,NA,3,NA,NA,NA,NA,NA,NA,NA,NA,NA,NA,NA,NA,NA,NA,NA,NA,NA,NA,NA
8220,check continue,flow.Sequence,5_0_4,NA,NA,skipped,NA,913399,NA,NA,913269,913399,2023-09-28T12:34:29Z,914017,NULL,NA,NA,NA,NA,NA,NA,NA,sd,NA,4,NA,NA,NA,NA,NA,NA,NA,NA,NA,NA,NA,NA,NA,NA,NA,NA,NA,NA,NA
8220,check continue,flow.Sequence,5_0_5,NA,NA,skipped,NA,913424,NA,NA,913269,913424,2023-09-28T12:34:29Z,914017,NULL,NA,NA,NA,NA,NA,NA,NA,sdf,NA,5,NA,NA,NA,NA,NA,NA,NA,NA,NA,NA,NA,NA,NA,NA,NA,NA,NA,NA,NA
8220,check continue,flow.Sequence,5_0_6,NA,NA,skipped,NA,913452,NA,NA,913269,913452,2023-09-28T12:34:29Z,914017,NULL,NA,NA,NA,NA,NA,NA,NA,dfs,NA,6,NA,NA,NA,NA,NA,NA,NA,NA,NA,NA,NA,NA,NA,NA,NA,NA,NA,NA,NA
8220,check continue,flow.Sequence,5_0_7,NA,NA,skipped,NA,913478,NA,NA,913269,913478,2023-09-28T12:34:29Z,914017,NULL,NA,NA,NA,NA,NA,NA,NA,df,NA,7,NA,NA,NA,NA,NA,NA,NA,NA,NA,NA,NA,NA,NA,NA,NA,NA,NA,NA,NA
8220,check continue,flow.Sequence,5_0_8,NA,NA,skipped,NA,913504,NA,NA,913269,913504,2023-09-28T12:34:29Z,914017,NULL,NA,NA,NA,NA,NA,NA,NA,dfs,NA,8,NA,NA,NA,NA,NA,NA,NA,NA,NA,NA,NA,NA,NA,NA,NA,NA,NA,NA,NA
8220,check continue,flow.Sequence,5_0_9,NA,NA,skipped,NA,913530,NA,NA,913269,913530,2023-09-28T12:34:29Z,914017,NULL,NA,NA,NA,NA,NA,NA,NA,dsf,NA,9,NA,NA,NA,NA,NA,NA,NA,NA,NA,NA,NA,NA,NA,NA,NA,NA,NA,NA,NA
8220,check continue,flow.Sequence,5_0_10,NA,NA,skipped,NA,913555,NA,NA,913269,913555,2023-09-28T12:34:29Z,914017,NULL,NA,NA,NA,NA,NA,NA,NA,df,NA,10,NA,NA,NA,NA,NA,NA,NA,NA,NA,NA,NA,NA,NA,NA,NA,NA,NA,NA,NA
8220,check continue,flow.Sequence,5_0_11,NA,NA,skipped,NA,913580,NA,NA,913269,913581,2023-09-28T12:34:29Z,914017,NULL,NA,NA,NA,NA,NA,NA,NA,dfs,NA,11,NA,NA,NA,NA,NA,NA,NA,NA,NA,NA,NA,NA,NA,NA,NA,NA,NA,NA,NA
8220,check continue,flow.Sequence,5_0_12,NA,NA,skipped,NA,913603,NA,NA,913269,913603,2023-09-28T12:34:29Z,914017,NULL,NA,NA,NA,NA,NA,NA,NA,dsf,NA,12,NA,NA,NA,NA,NA,NA,NA,NA,NA,NA,NA,NA,NA,NA,NA,NA,NA,NA,NA
8220,check continue,flow.Sequence,5_0_13,NA,NA,skipped,NA,913631,NA,NA,913269,913631,2023-09-28T12:34:29Z,914017,NULL,NA,NA,NA,NA,NA,NA,NA,dsf,NA,13,NA,NA,NA,NA,NA,NA,NA,NA,NA,NA,NA,NA,NA,NA,NA,NA,NA,NA,NA
8220,check continue,flow.Sequence,5_0_14,NA,NA,skipped,NA,913655,NA,NA,913269,913655,2023-09-28T12:34:29Z,914017,NULL,NA,NA,NA,NA,NA,NA,NA,NA,NA,14,NA,NA,NA,NA,NA,NA,NA,NA,NA,NA,NA,NA,NA,NA,NA,NA,NA,NA,NA
8220,check continue,flow.Sequence,5_0_15,NA,NA,skipped,NA,913677,NA,NA,913269,913677,2023-09-28T12:34:30Z,914017,NULL,NA,NA,NA,NA,NA,NA,NA,NA,NA,15,NA,NA,NA,NA,NA,NA,NA,NA,NA,NA,NA,NA,NA,NA,NA,NA,NA,NA,NA
8220,check continue,flow.Sequence,5_0_16,NA,NA,skipped,NA,913704,NA,NA,913269,913704,2023-09-28T12:34:30Z,914017,NULL,NA,NA,NA,NA,NA,NA,NA,NA,NA,16,NA,NA,NA,NA,NA,NA,NA,NA,NA,NA,NA,NA,NA,NA,NA,NA,NA,NA,NA
8220,check continue,flow.Sequence,5_0_17,NA,NA,skipped,NA,913726,NA,NA,913269,913727,2023-09-28T12:34:30Z,914017,NULL,NA,NA,NA,NA,NA,NA,NA,NA,NA,17,NA,NA,NA,NA,NA,NA,NA,NA,NA,NA,NA,NA,NA,NA,NA,NA,NA,NA,NA
8220,check continue,flow.Sequence,5_0_18,NA,NA,skipped,NA,913750,NA,NA,913269,913750,2023-09-28T12:34:30Z,914017,NULL,NA,NA,NA,NA,NA,NA,NA,NA,NA,18,NA,NA,NA,NA,NA,NA,NA,NA,NA,NA,NA,NA,NA,NA,NA,NA,NA,NA,NA
8220,check continue,flow.Sequence,5_0_19,NA,NA,skipped,NA,913775,NA,NA,913269,913775,2023-09-28T12:34:30Z,914017,NULL,NA,NA,NA,NA,NA,NA,NA,NA,NA,19,NA,NA,NA,NA,NA,NA,NA,NA,NA,NA,NA,NA,NA,NA,NA,NA,NA,NA,NA
8220,check continue,flow.Sequence,5_0_20,NA,NA,skipped,NA,913800,NA,NA,913269,913800,2023-09-28T12:34:30Z,914017,NULL,NA,NA,NA,NA,NA,NA,NA,NA,NA,20,NA,NA,NA,NA,NA,NA,NA,NA,NA,NA,NA,NA,NA,NA,NA,NA,NA,NA,NA
8220,check continue,flow.Sequence,5_0_21,NA,NA,skipped,NA,913822,NA,NA,913269,913822,2023-09-28T12:34:30Z,914017,NULL,NA,NA,NA,NA,NA,NA,NA,NA,NA,21,NA,NA,NA,NA,NA,NA,NA,NA,NA,NA,NA,NA,NA,NA,NA,NA,NA,NA,NA
8220,check continue,flow.Sequence,5_0_22,NA,NA,skipped,NA,913848,NA,NA,913269,913848,2023-09-28T12:34:30Z,914017,NULL,NA,NA,NA,NA,NA,NA,NA,NA,NA,22,NA,NA,NA,NA,NA,NA,NA,NA,NA,NA,NA,NA,NA,NA,NA,NA,NA,NA,NA
8220,check continue,flow.Sequence,5_0_23,NA,NA,skipped,NA,913870,NA,NA,913269,913870,2023-09-28T12:34:30Z,914017,NULL,NA,NA,NA,NA,NA,NA,NA,NA,NA,23,NA,NA,NA,NA,NA,NA,NA,NA,NA,NA,NA,NA,NA,NA,NA,NA,NA,NA,NA
8220,check continue,flow.Sequence,5_0_24,NA,NA,skipped,NA,913896,NA,NA,913269,913896,2023-09-28T12:34:30Z,914017,NULL,NA,NA,NA,NA,NA,NA,NA,NA,NA,24,NA,NA,NA,NA,NA,NA,NA,NA,NA,NA,NA,NA,NA,NA,NA,NA,NA,NA,NA
8220,check continue,flow.Sequence,5_0_25,NA,NA,skipped,NA,913919,NA,NA,913269,913919,2023-09-28T12:34:30Z,914017,NULL,NA,NA,NA,NA,NA,NA,NA,NA,NA,25,NA,NA,NA,NA,NA,NA,NA,NA,NA,NA,NA,NA,NA,NA,NA,NA,NA,NA,NA
8220,check continue,flow.Sequence,5_0_26,NA,NA,skipped,NA,913943,NA,NA,913269,913943,2023-09-28T12:34:30Z,914017,NULL,NA,NA,NA,NA,NA,NA,NA,NA,NA,26,NA,NA,NA,NA,NA,NA,NA,NA,NA,NA,NA,NA,NA,NA,NA,NA,NA,NA,NA
8220,check continue,flow.Sequence,5_0_27,NA,NA,skipped,NA,913969,NA,NA,913269,913969,2023-09-28T12:34:30Z,914017,NULL,NA,NA,NA,NA,NA,NA,NA,NA,NA,27,NA,NA,NA,NA,NA,NA,NA,NA,NA,NA,NA,NA,NA,NA,NA,NA,NA,NA,NA
8220,check continue,flow.Sequence,5_0_28,NA,NA,skipped,NA,913992,NA,NA,913269,913992,2023-09-28T12:34:30Z,914017,NULL,NA,NA,NA,NA,NA,NA,NA,NA,NA,28,NA,NA,NA,NA,NA,NA,NA,NA,NA,NA,NA,NA,NA,NA,NA,NA,NA,NA,NA
8220,check continue,flow.Sequence,5_0_29,NA,NA,skipped,NA,914016,NA,NA,913269,914016,2023-09-28T12:34:30Z,914017,NULL,NA,NA,NA,NA,NA,NA,NA,NA,NA,29,NA,NA,NA,NA,NA,NA,NA,NA,NA,NA,NA,NA,NA,NA,NA,NA,NA,NA,NA
8220,until continue,flow.Loop,5_0,NA,NA,completion,326090.82,587151,587177.04,587178.18,913269,914016,2023-09-28T12:34:30Z,914017,NULL,NA,NA,NA,NA,NA,NA,NA,NA,NA,NA,NA,NA,NA,NA,NA,NA,NA,NA,NA,NA,NA,NA,NA,NA,NA,NA,NA,NA,NA
8220,block 2,flow.Sequence,5,NA,NA,completion,326090.82,587151,587177.04,587178.18,913269,914016,2023-09-28T12:34:30Z,914017,NULL,NA,NA,NA,NA,NA,NA,NA,NA,NA,NA,NA,NA,NA,NA,NA,NA,NA,NA,NA,NA,NA,NA,NA,NA,NA,NA,NA,NA,NA
8220,2.Part Over,canvas.Screen,6,NA,keypress(Space),response,3456,914016,914016.42,914017,917473,917485,2023-09-28T12:34:33Z,917554.22,NULL,NA,NA,NA,NA,NA,NA,NA,NA,NA,NA,NA,NA,NA,NA,NA,NA,NA,NA,NA,NA,NA,NA,NA,NA,NA,NA,NA,NA,NA
8220,deep,flow.Sequence,7_0_0_0_0_0,NA,NA,skipped,NA,917553,NA,NA,917473,917553,2023-09-28T12:34:33Z,917554.22,NULL,Spionage,upelelezi,s,maslahi,utokazo,magangao,NA,sdf,NA,0,NA,NA,NA,NA,NA,NA,NA,NA,NA,NA,NA,NA,NA,NA,NA,NA,NA,NA,NA
8220,Shallow Question,html.Page,7_0_0_0_0_1_0,NA,NA,form submission,9597.78,917554,917553.88,917554.22,927152,927152,2023-09-28T12:34:43Z,927150.66,NULL,Spionage,upelelezi,s,maslahi,utokazo,magangao,magangao,NA,NA,0,NA,NA,NA,NA,NA,NA,NA,NA,NA,NA,NA,NA,NA,NA,NA,NA,NA,NA,NA
8220,"""Richtig""-Screen",canvas.Screen,7_0_0_0_0_1_1,NA,NA,skipped,NA,927158,NA,NA,927152,927158,2023-09-28T12:34:43Z,927150.66,NULL,Spionage,upelelezi,s,maslahi,utokazo,magangao,NA,sdf,NA,0,NA,NA,NA,NA,NA,NA,NA,NA,NA,NA,NA,NA,NA,NA,NA,NA,NA,NA,NA
8220,"""Falsch""-Screen",canvas.Screen,7_0_0_0_0_1_2,NA,NA,timeout,4999.3199999999,927163,927149.64,927150.66,932133.36,932135,2023-09-28T12:34:48Z,932149.98,NULL,Spionage,upelelezi,s,maslahi,utokazo,magangao,NA,sdf,0,0,NA,NA,NA,NA,NA,NA,NA,NA,NA,NA,NA,NA,NA,NA,NA,NA,NA,NA,NA
8220,shallow,flow.Sequence,7_0_0_0_0_1,NA,NA,completion,14579.14,917554,917553.88,917554.22,932133.36,932135,2023-09-28T12:34:48Z,932149.98,NULL,Spionage,upelelezi,s,maslahi,utokazo,magangao,NA,sdf,NA,0,NA,NA,NA,NA,NA,NA,NA,NA,NA,NA,NA,NA,NA,NA,NA,NA,NA,NA,NA
8220,task,flow.Sequence,7_0_0_0_0,NA,NA,completion,14579.14,917553,917553.88,917554.22,932133.36,932135,2023-09-28T12:34:48Z,932149.98,NULL,Spionage,upelelezi,s,maslahi,utokazo,magangao,NA,sdf,NA,0,NA,NA,NA,NA,NA,NA,NA,NA,NA,NA,NA,NA,NA,NA,NA,NA,NA,NA,NA
8220,Deep Question,html.Page,7_0_0_0_1_0_0,NA,NA,form submission,14507.02,932135,932133.36,932149.98,946657,946658,2023-09-28T12:35:02Z,946665.2,NULL,Niveau,kiwango,d,NA,NA,NA,niv,NA,NA,0,NA,NA,NA,NA,NA,NA,NA,NA,NA,NA,NA,NA,NA,NA,NA,NA,NA,NA,NA
8220,"""Richtig""-Screen",canvas.Screen,7_0_0_0_1_0_1,NA,NA,skipped,NA,946660,NA,NA,946657,946660,2023-09-28T12:35:03Z,946665.2,NULL,Niveau,kiwango,d,NA,NA,NA,NA,sdf,NA,0,NA,NA,NA,NA,NA,NA,NA,NA,NA,NA,NA,NA,NA,NA,NA,NA,NA,NA,NA
8220,"""Falsch""-Screen",canvas.Screen,7_0_0_0_1_0_2,NA,NA,timeout,4999.14,946662,946656.64,946665.2,951647.72,951651,2023-09-28T12:35:07Z,951664.34,NULL,Niveau,kiwango,d,NA,NA,NA,NA,sdf,0,0,NA,NA,NA,NA,NA,NA,NA,NA,NA,NA,NA,NA,NA,NA,NA,NA,NA,NA,NA
8220,deep,flow.Sequence,7_0_0_0_1_0,NA,NA,completion,19497.74,932135,932133.36,932149.98,951647.72,951653,2023-09-28T12:35:07Z,951664.34,NULL,Niveau,kiwango,d,NA,NA,NA,NA,sdf,NA,0,NA,NA,NA,NA,NA,NA,NA,NA,NA,NA,NA,NA,NA,NA,NA,NA,NA,NA,NA
8220,shallow,flow.Sequence,7_0_0_0_1_1,NA,NA,skipped,NA,951654,NA,NA,951647.72,951654,2023-09-28T12:35:07Z,951664.34,NULL,Niveau,kiwango,d,NA,NA,NA,NA,sdf,NA,0,NA,NA,NA,NA,NA,NA,NA,NA,NA,NA,NA,NA,NA,NA,NA,NA,NA,NA,NA
8220,task,flow.Sequence,7_0_0_0_1,NA,NA,completion,19497.74,932135,932133.36,932149.98,951647.72,951656,2023-09-28T12:35:07Z,951664.34,NULL,Niveau,kiwango,d,NA,NA,NA,NA,sdf,NA,0,NA,NA,NA,NA,NA,NA,NA,NA,NA,NA,NA,NA,NA,NA,NA,NA,NA,NA,NA
8220,Deep Question,html.Page,7_0_0_0_2_0_0,NA,NA,form submission,32505.66,951657,951647.72,951664.34,984170,984171,2023-09-28T12:35:40Z,984177.04,NULL,Schüler,mwanafunzi,d,NA,NA,NA,kiwango,NA,NA,0,NA,NA,NA,NA,NA,NA,NA,NA,NA,NA,NA,NA,NA,NA,NA,NA,NA,NA,NA
8220,"""Richtig""-Screen",canvas.Screen,7_0_0_0_2_0_1,NA,NA,skipped,NA,984176,NA,NA,984170,984176,2023-09-28T12:35:40Z,984177.04,NULL,Schüler,mwanafunzi,d,NA,NA,NA,NA,sdf,NA,0,NA,NA,NA,NA,NA,NA,NA,NA,NA,NA,NA,NA,NA,NA,NA,NA,NA,NA,NA
8220,"""Falsch""-Screen",canvas.Screen,7_0_0_0_2_0_2,NA,NA,timeout,4999.14,984178,984169.42,984177.04,989159.56,989161,2023-09-28T12:35:45Z,989176.18,NULL,Schüler,mwanafunzi,d,NA,NA,NA,NA,sdf,0,0,NA,NA,NA,NA,NA,NA,NA,NA,NA,NA,NA,NA,NA,NA,NA,NA,NA,NA,NA
8220,deep,flow.Sequence,7_0_0_0_2_0,NA,NA,completion,37495.22,951656,951647.72,951664.34,989159.56,989161,2023-09-28T12:35:45Z,989176.18,NULL,Schüler,mwanafunzi,d,NA,NA,NA,NA,sdf,NA,0,NA,NA,NA,NA,NA,NA,NA,NA,NA,NA,NA,NA,NA,NA,NA,NA,NA,NA,NA
8220,shallow,flow.Sequence,7_0_0_0_2_1,NA,NA,skipped,NA,989162,NA,NA,989159.56,989162,2023-09-28T12:35:45Z,989176.18,NULL,Schüler,mwanafunzi,d,NA,NA,NA,NA,sdf,NA,0,NA,NA,NA,NA,NA,NA,NA,NA,NA,NA,NA,NA,NA,NA,NA,NA,NA,NA,NA
8220,task,flow.Sequence,7_0_0_0_2,NA,NA,completion,37495.22,951656,951647.72,951664.34,989159.56,989163,2023-09-28T12:35:45Z,989176.18,NULL,Schüler,mwanafunzi,d,NA,NA,NA,NA,sdf,NA,0,NA,NA,NA,NA,NA,NA,NA,NA,NA,NA,NA,NA,NA,NA,NA,NA,NA,NA,NA
8220,deep,flow.Sequence,7_0_0_0_3_0,NA,NA,skipped,NA,989163,NA,NA,989159.56,989164,2023-09-28T12:35:45Z,989176.18,NULL,Fenster,dirisha,s,walakini,tasawari,maarifa,NA,sdf,NA,0,NA,NA,NA,NA,NA,NA,NA,NA,NA,NA,NA,NA,NA,NA,NA,NA,NA,NA,NA
8220,Shallow Question,html.Page,7_0_0_0_3_1_0,NA,NA,form submission,55731.82,989165,989159.56,989176.18,1044908,1044910,2023-09-28T12:36:41Z,1044919.34,NULL,Fenster,dirisha,s,walakini,tasawari,maarifa,maarifa,NA,NA,0,NA,NA,NA,NA,NA,NA,NA,NA,NA,NA,NA,NA,NA,NA,NA,NA,NA,NA,NA
8220,"""Richtig""-Screen",canvas.Screen,7_0_0_0_3_1_1,NA,NA,skipped,NA,1044918,NA,NA,1044908,1044918,2023-09-28T12:36:41Z,1044919.34,NULL,Fenster,dirisha,s,walakini,tasawari,maarifa,NA,sdf,NA,0,NA,NA,NA,NA,NA,NA,NA,NA,NA,NA,NA,NA,NA,NA,NA,NA,NA,NA,NA
8220,"""Falsch""-Screen",canvas.Screen,7_0_0_0_3_1_2,NA,NA,timeout,4998.1800000001,1044921,1044904.28,1044919.34,1049900.9,1049903,2023-09-28T12:36:46Z,1049917.52,NULL,Fenster,dirisha,s,walakini,tasawari,maarifa,NA,sdf,0,0,NA,NA,NA,NA,NA,NA,NA,NA,NA,NA,NA,NA,NA,NA,NA,NA,NA,NA,NA
8220,shallow,flow.Sequence,7_0_0_0_3_1,NA,NA,completion,60724.72,989165,989159.56,989176.18,1049900.9,1049904,2023-09-28T12:36:46Z,1049917.52,NULL,Fenster,dirisha,s,walakini,tasawari,maarifa,NA,sdf,NA,0,NA,NA,NA,NA,NA,NA,NA,NA,NA,NA,NA,NA,NA,NA,NA,NA,NA,NA,NA
8220,task,flow.Sequence,7_0_0_0_3,NA,NA,completion,60724.72,989163,989159.56,989176.18,1049900.9,1049904,2023-09-28T12:36:46Z,1049917.52,NULL,Fenster,dirisha,s,walakini,tasawari,maarifa,NA,sdf,NA,0,NA,NA,NA,NA,NA,NA,NA,NA,NA,NA,NA,NA,NA,NA,NA,NA,NA,NA,NA
8220,deep,flow.Sequence,7_0_0_0_4_0,NA,NA,skipped,NA,1049904,NA,NA,1049900.9,1049905,2023-09-28T12:36:46Z,1049917.52,NULL,Vorwurf,mashtaka,s,msukumo,mtangulizi,uenyekiti,NA,sdf,NA,0,NA,NA,NA,NA,NA,NA,NA,NA,NA,NA,NA,NA,NA,NA,NA,NA,NA,NA,NA
8220,Shallow Question,html.Page,7_0_0_0_4_1_0,NA,NA,form submission,21778.48,1049905,1049900.9,1049917.52,1071696,1071697,2023-09-28T12:37:08Z,1071699.28,NULL,Vorwurf,mashtaka,s,msukumo,mtangulizi,uenyekiti,mashtaka,NA,NA,0,NA,NA,NA,NA,NA,NA,NA,NA,NA,NA,NA,NA,NA,NA,NA,NA,NA,NA,NA
8220,"""Richtig""-Screen",canvas.Screen,7_0_0_0_4_1_1,NA,NA,timeout,4998.8999999999,1071702,1071693.6,1071699.28,1076681.56,1076684,2023-09-28T12:37:13Z,1076698.18,NULL,Vorwurf,mashtaka,s,msukumo,mtangulizi,uenyekiti,NA,sdf,1,0,NA,NA,NA,NA,NA,NA,NA,NA,NA,NA,NA,NA,NA,NA,NA,NA,NA,NA,NA
8220,"""Falsch""-Screen",canvas.Screen,7_0_0_0_4_1_2,NA,NA,skipped,NA,1076691,NA,NA,1076681.56,1076692,2023-09-28T12:37:13Z,1076698.18,NULL,Vorwurf,mashtaka,s,msukumo,mtangulizi,uenyekiti,NA,sdf,NA,0,NA,NA,NA,NA,NA,NA,NA,NA,NA,NA,NA,NA,NA,NA,NA,NA,NA,NA,NA
8220,shallow,flow.Sequence,7_0_0_0_4_1,NA,NA,completion,26764.04,1049905,1049900.9,1049917.52,1076681.56,1076692,2023-09-28T12:37:13Z,1076698.18,NULL,Vorwurf,mashtaka,s,msukumo,mtangulizi,uenyekiti,NA,sdf,NA,0,NA,NA,NA,NA,NA,NA,NA,NA,NA,NA,NA,NA,NA,NA,NA,NA,NA,NA,NA
8220,task,flow.Sequence,7_0_0_0_4,NA,NA,completion,26764.04,1049904,1049900.9,1049917.52,1076681.56,1076694,2023-09-28T12:37:13Z,1076698.18,NULL,Vorwurf,mashtaka,s,msukumo,mtangulizi,uenyekiti,NA,sdf,NA,0,NA,NA,NA,NA,NA,NA,NA,NA,NA,NA,NA,NA,NA,NA,NA,NA,NA,NA,NA
8220,Deep Question,html.Page,7_0_0_0_5_0_0,NA,NA,form submission,38578.82,1076694,1076681.56,1076698.18,1115277,1115277,2023-09-28T12:37:51Z,1115276.16,NULL,Tester,wanaojaribu,d,NA,NA,NA,"mwanafunzi, kiwango, dirisha",NA,NA,0,NA,NA,NA,NA,NA,NA,NA,NA,NA,NA,NA,NA,NA,NA,NA,NA,NA,NA,NA
8220,"""Richtig""-Screen",canvas.Screen,7_0_0_0_5_0_1,NA,NA,skipped,NA,1115280,NA,NA,1115277,1115280,2023-09-28T12:37:51Z,1115276.16,NULL,Tester,wanaojaribu,d,NA,NA,NA,NA,sdf,NA,0,NA,NA,NA,NA,NA,NA,NA,NA,NA,NA,NA,NA,NA,NA,NA,NA,NA,NA,NA
8220,"""Falsch""-Screen",canvas.Screen,7_0_0_0_5_0_2,NA,NA,timeout,5004.3600000001,1115282,1115274.88,1115276.16,1120259.34,1120261,2023-09-28T12:37:56Z,1120280.52,NULL,Tester,wanaojaribu,d,NA,NA,NA,NA,sdf,0,0,NA,NA,NA,NA,NA,NA,NA,NA,NA,NA,NA,NA,NA,NA,NA,NA,NA,NA,NA
8220,deep,flow.Sequence,7_0_0_0_5_0,NA,NA,completion,43561.16,1076694,1076681.56,1076698.18,1120259.34,1120262,2023-09-28T12:37:56Z,1120280.52,NULL,Tester,wanaojaribu,d,NA,NA,NA,NA,sdf,NA,0,NA,NA,NA,NA,NA,NA,NA,NA,NA,NA,NA,NA,NA,NA,NA,NA,NA,NA,NA
8220,shallow,flow.Sequence,7_0_0_0_5_1,NA,NA,skipped,NA,1120262,NA,NA,1120259.34,1120262,2023-09-28T12:37:56Z,1120280.52,NULL,Tester,wanaojaribu,d,NA,NA,NA,NA,sdf,NA,0,NA,NA,NA,NA,NA,NA,NA,NA,NA,NA,NA,NA,NA,NA,NA,NA,NA,NA,NA
8220,task,flow.Sequence,7_0_0_0_5,NA,NA,completion,43561.16,1076694,1076681.56,1076698.18,1120259.34,1120263,2023-09-28T12:37:56Z,1120280.52,NULL,Tester,wanaojaribu,d,NA,NA,NA,NA,sdf,NA,0,NA,NA,NA,NA,NA,NA,NA,NA,NA,NA,NA,NA,NA,NA,NA,NA,NA,NA,NA
8220,deep,flow.Sequence,7_0_0_0_6_0,NA,NA,skipped,NA,1120263,NA,NA,1120259.34,1120264,2023-09-28T12:37:56Z,1120280.52,NULL,Entwicklung,maendeleo,s,uangavu,mshindwa,badiliko,NA,sdf,NA,0,NA,NA,NA,NA,NA,NA,NA,NA,NA,NA,NA,NA,NA,NA,NA,NA,NA,NA,NA
8220,Shallow Question,html.Page,7_0_0_0_6_1_0,NA,NA,form submission,43740.48,1120264,1120259.34,1120280.52,1164021,1164022,2023-09-28T12:38:40Z,1164020.82,NULL,Entwicklung,maendeleo,s,uangavu,mshindwa,badiliko,maendeleo,NA,NA,0,NA,NA,NA,NA,NA,NA,NA,NA,NA,NA,NA,NA,NA,NA,NA,NA,NA,NA,NA
8220,"""Richtig""-Screen",canvas.Screen,7_0_0_0_6_1_1,NA,NA,timeout,4998.72,1164027,1164017.72,1164020.82,1169002.94,1169005,2023-09-28T12:38:45Z,1169019.54,NULL,Entwicklung,maendeleo,s,uangavu,mshindwa,badiliko,NA,sdf,1,0,NA,NA,NA,NA,NA,NA,NA,NA,NA,NA,NA,NA,NA,NA,NA,NA,NA,NA,NA
8220,"""Falsch""-Screen",canvas.Screen,7_0_0_0_6_1_2,NA,NA,skipped,NA,1169010,NA,NA,1169002.94,1169010,2023-09-28T12:38:45Z,1169019.54,NULL,Entwicklung,maendeleo,s,uangavu,mshindwa,badiliko,NA,sdf,NA,0,NA,NA,NA,NA,NA,NA,NA,NA,NA,NA,NA,NA,NA,NA,NA,NA,NA,NA,NA
8220,shallow,flow.Sequence,7_0_0_0_6_1,NA,NA,completion,48722.42,1120264,1120259.34,1120280.52,1169002.94,1169010,2023-09-28T12:38:45Z,1169019.54,NULL,Entwicklung,maendeleo,s,uangavu,mshindwa,badiliko,NA,sdf,NA,0,NA,NA,NA,NA,NA,NA,NA,NA,NA,NA,NA,NA,NA,NA,NA,NA,NA,NA,NA
8220,task,flow.Sequence,7_0_0_0_6,NA,NA,completion,48722.42,1120263,1120259.34,1120280.52,1169002.94,1169011,2023-09-28T12:38:45Z,1169019.54,NULL,Entwicklung,maendeleo,s,uangavu,mshindwa,badiliko,NA,sdf,NA,0,NA,NA,NA,NA,NA,NA,NA,NA,NA,NA,NA,NA,NA,NA,NA,NA,NA,NA,NA
8220,Deep Question,html.Page,7_0_0_0_7_0_0,NA,NA,form submission,46114.46,1169011,1169002.94,1169019.54,1215134,1215134,2023-09-28T12:39:31Z,1215130.22,NULL,Papier,karatasi,d,NA,NA,NA,"wanaojaribou, mwanafunzi, kiwango",NA,NA,0,NA,NA,NA,NA,NA,NA,NA,NA,NA,NA,NA,NA,NA,NA,NA,NA,NA,NA,NA
8220,"""Richtig""-Screen",canvas.Screen,7_0_0_0_7_0_1,NA,NA,skipped,NA,1215140,NA,NA,1215134,1215140,2023-09-28T12:39:31Z,1215130.22,NULL,Papier,karatasi,d,NA,NA,NA,NA,sdf,NA,0,NA,NA,NA,NA,NA,NA,NA,NA,NA,NA,NA,NA,NA,NA,NA,NA,NA,NA,NA
