observation,sender,sender_type,sender_id,response,response_action,ended_on,duration,time_run,time_render,time_show,time_end,time_commit,timestamp,time_switch,german,swahili,enc,distractor1,distractor2,distractor3,response_2,x,correct,distractors,url_vp,url_sess,meta_labjs_version,meta_location,meta_user_agent,meta_platform,meta_language,meta_locale,meta_time_zone,meta_timezone_offset,meta_screen_width,meta_screen_height,meta_scroll_width,meta_scroll_height,meta_window_inner_width,meta_window_inner_height,meta_device_pixel_ratio,meta_labjs_build_flavor,meta_labjs_build_commit
a81c8,Introduction delayed retrieval,canvas.Screen,0,weiter,keypress(Space),response,1775.2610000358,831.19999998808,303.873,837.139,2612.4000000358,2614.5,2023-10-21T10:22:26Z,2637.147,NA,NA,NA,NA,NA,NA,NA,NA,NA,NULL,183,4,20.2.4,https://neurocog.fernuni.ch/studies/vweber/sliechti/delayed/index.html?vp=183&sess=4,"Mozilla/5.0 (Windows NT 10.0; Win64; x64) AppleWebKit/537.36 (KHTML, like Gecko) Chrome/118.0.0.0 Safari/537.36 Edg/118.0.2088.57",Win32,de,de-CH,Europe/Zurich,-120,1536,864,766,686,766,734,1.25,production,f5b4a49f956347addd546a832a3327688c2c0fef
a81c8,Deep Question,html.Page,1_0_0_0,NA,NA,form submission,24913.052999988,2614.6999999881,2603.804,2637.147,27550.199999988,27550.400000036,2023-10-21T10:22:51Z,27570.05,Sänger,mwimbaji,d,msichana,shughuli,mshirika,msimbaji,NA,NA,NULL,NA,NA,NA,NA,NA,NA,NA,NA,NA,NA,NA,NA,NA,NA,NA,NA,NA,NA,NA
a81c8,Save data screen,canvas.Screen,1_0_0_1,NA,NA,timeout,500.329,27550.800000012,27536.679,27570.05,28053.766,28055.300000012,2023-10-21T10:22:52Z,28070.379,Sänger,mwimbaji,d,msichana,shughuli,mshirika,NA,NA,0,NULL,NA,NA,NA,NA,NA,NA,NA,NA,NA,NA,NA,NA,NA,NA,NA,NA,NA,NA,NA
a81c8,deep,flow.Sequence,1_0_0,NA,NA,completion,25416.619,2614.6999999881,2603.804,2637.147,28053.766,28055.5,2023-10-21T10:22:52Z,28070.379,Sänger,mwimbaji,d,msichana,shughuli,mshirika,NA,NA,NA,NULL,NA,NA,NA,NA,NA,NA,NA,NA,NA,NA,NA,NA,NA,NA,NA,NA,NA,NA,NA
a81c8,task,flow.Sequence,1_0,NA,NA,completion,25416.619,2614.6999999881,2603.804,2637.147,28053.766,28055.699999988,2023-10-21T10:22:52Z,28070.379,Sänger,mwimbaji,d,msichana,shughuli,mshirika,NA,NA,NA,NULL,NA,NA,NA,NA,NA,NA,NA,NA,NA,NA,NA,NA,NA,NA,NA,NA,NA,NA,NA
a81c8,Deep Question,html.Page,1_1_0_0,NA,NA,form submission,9384.0210000358,28055.699999988,28053.766,28070.379,37454.400000036,37454.800000012,2023-10-21T10:23:01Z,37486.576,Angreifer,mshambulizi,d,kitengo,tasinia,usafirishaji,ushindani,NA,NA,NULL,NA,NA,NA,NA,NA,NA,NA,NA,NA,NA,NA,NA,NA,NA,NA,NA,NA,NA,NA
a81c8,Save data screen,canvas.Screen,1_1_0_1,NA,NA,timeout,499.956,37455.900000036,37453.366,37486.576,37953.667,37955,2023-10-21T10:23:01Z,37986.532,Angreifer,mshambulizi,d,kitengo,tasinia,usafirishaji,NA,NA,0,NULL,NA,NA,NA,NA,NA,NA,NA,NA,NA,NA,NA,NA,NA,NA,NA,NA,NA,NA,NA
a81c8,deep,flow.Sequence,1_1_0,NA,NA,completion,9883.288,28055.699999988,28053.766,28070.379,37953.667,37955.199999988,2023-10-21T10:23:01Z,37986.532,Angreifer,mshambulizi,d,kitengo,tasinia,usafirishaji,NA,NA,NA,NULL,NA,NA,NA,NA,NA,NA,NA,NA,NA,NA,NA,NA,NA,NA,NA,NA,NA,NA,NA
a81c8,task,flow.Sequence,1_1,NA,NA,completion,9883.288,28055.699999988,28053.766,28070.379,37953.667,37955.5,2023-10-21T10:23:01Z,37986.532,Angreifer,mshambulizi,d,kitengo,tasinia,usafirishaji,NA,NA,NA,NULL,NA,NA,NA,NA,NA,NA,NA,NA,NA,NA,NA,NA,NA,NA,NA,NA,NA,NA,NA
a81c8,Deep Question,html.Page,1_2_0_0,NA,NA,form submission,16794.768000012,37955.699999988,37953.667,37986.532,54781.300000012,54781.600000024,2023-10-21T10:23:18Z,54802.972,System,maongozi,d,chokochoko,nuksani,mitaani,uagibaji,NA,NA,NULL,NA,NA,NA,NA,NA,NA,NA,NA,NA,NA,NA,NA,NA,NA,NA,NA,NA,NA,NA
a81c8,Save data screen,canvas.Screen,1_2_0_1,NA,NA,timeout,500.143,54782.600000024,54769.769,54802.972,55269.677,55270.800000012,2023-10-21T10:23:19Z,55303.115,System,maongozi,d,chokochoko,nuksani,mitaani,NA,NA,0,NULL,NA,NA,NA,NA,NA,NA,NA,NA,NA,NA,NA,NA,NA,NA,NA,NA,NA,NA,NA
a81c8,deep,flow.Sequence,1_2_0,NA,NA,completion,17283.145,37955.600000024,37953.667,37986.532,55269.677,55271.199999988,2023-10-21T10:23:19Z,55303.115,System,maongozi,d,chokochoko,nuksani,mitaani,NA,NA,NA,NULL,NA,NA,NA,NA,NA,NA,NA,NA,NA,NA,NA,NA,NA,NA,NA,NA,NA,NA,NA
a81c8,task,flow.Sequence,1_2,NA,NA,completion,17283.145,37955.600000024,37953.667,37986.532,55269.677,55271.5,2023-10-21T10:23:19Z,55303.115,System,maongozi,d,chokochoko,nuksani,mitaani,NA,NA,NA,NULL,NA,NA,NA,NA,NA,NA,NA,NA,NA,NA,NA,NA,NA,NA,NA,NA,NA,NA,NA
a81c8,Deep Question,html.Page,1_3_0_0,NA,NA,form submission,4396.6850000119,55271.600000024,55269.677,55303.115,59699.800000012,59700.199999988,2023-10-21T10:23:23Z,59702.973,Kultur,utamaduni,s,shetani,gerezani,mazingira,x,NA,NA,NULL,NA,NA,NA,NA,NA,NA,NA,NA,NA,NA,NA,NA,NA,NA,NA,NA,NA,NA,NA
a81c8,Save data screen,canvas.Screen,1_3_0_1,NA,NA,timeout,499.964,59701.400000036,59691.489,59702.973,60169.578,60170.699999988,2023-10-21T10:23:24Z,60202.937,Kultur,utamaduni,s,shetani,gerezani,mazingira,NA,NA,0,NULL,NA,NA,NA,NA,NA,NA,NA,NA,NA,NA,NA,NA,NA,NA,NA,NA,NA,NA,NA
a81c8,deep,flow.Sequence,1_3_0,NA,NA,completion,4866.463,55271.5,55269.677,55303.115,60169.578,60170.900000036,2023-10-21T10:23:24Z,60202.937,Kultur,utamaduni,s,shetani,gerezani,mazingira,NA,NA,NA,NULL,NA,NA,NA,NA,NA,NA,NA,NA,NA,NA,NA,NA,NA,NA,NA,NA,NA,NA,NA
a81c8,task,flow.Sequence,1_3,NA,NA,completion,4866.463,55271.5,55269.677,55303.115,60169.578,60171,2023-10-21T10:23:24Z,60202.937,Kultur,utamaduni,s,shetani,gerezani,mazingira,NA,NA,NA,NULL,NA,NA,NA,NA,NA,NA,NA,NA,NA,NA,NA,NA,NA,NA,NA,NA,NA,NA,NA
a81c8,Deep Question,html.Page,1_4_0_0,NA,NA,form submission,6032.2629999881,60171.100000024,60169.578,60202.937,66235.199999988,66235.5,2023-10-21T10:23:30Z,66236.138,Gefährdung,kuhatarisha,s,uchokozi,udhaifu,makorowezo,x,NA,NA,NULL,NA,NA,NA,NA,NA,NA,NA,NA,NA,NA,NA,NA,NA,NA,NA,NA,NA,NA,NA
a81c8,Save data screen,canvas.Screen,1_4_0_1,NA,NA,timeout,500.155,66238.300000012,66219.487,66236.138,66702.848,66704,2023-10-21T10:23:30Z,66736.293,Gefährdung,kuhatarisha,s,uchokozi,udhaifu,makorowezo,NA,NA,0,NULL,NA,NA,NA,NA,NA,NA,NA,NA,NA,NA,NA,NA,NA,NA,NA,NA,NA,NA,NA
a81c8,deep,flow.Sequence,1_4_0,NA,NA,completion,6499.911,60171.100000024,60169.578,60202.937,66702.848,66704.300000012,2023-10-21T10:23:30Z,66736.293,Gefährdung,kuhatarisha,s,uchokozi,udhaifu,makorowezo,NA,NA,NA,NULL,NA,NA,NA,NA,NA,NA,NA,NA,NA,NA,NA,NA,NA,NA,NA,NA,NA,NA,NA
a81c8,task,flow.Sequence,1_4,NA,NA,completion,6499.911,60171.100000024,60169.578,60202.937,66702.848,66704.5,2023-10-21T10:23:30Z,66736.293,Gefährdung,kuhatarisha,s,uchokozi,udhaifu,makorowezo,NA,NA,NA,NULL,NA,NA,NA,NA,NA,NA,NA,NA,NA,NA,NA,NA,NA,NA,NA,NA,NA,NA,NA
a81c8,Deep Question,html.Page,1_5_0_0,NA,NA,form submission,8895.9069999881,66704.699999988,66702.848,66736.293,75632.199999988,75632.5,2023-10-21T10:23:39Z,75652.667,Lawine,banguko,d,maambukizi,usuluhishi,chekechea,ubulu,NA,NA,NULL,NA,NA,NA,NA,NA,NA,NA,NA,NA,NA,NA,NA,NA,NA,NA,NA,NA,NA,NA
a81c8,Save data screen,canvas.Screen,1_5_0_1,NA,NA,timeout,500.014,75635,75619.311,75652.667,76119.327,76120.5,2023-10-21T10:23:40Z,76152.681,Lawine,banguko,d,maambukizi,usuluhishi,chekechea,NA,NA,0,NULL,NA,NA,NA,NA,NA,NA,NA,NA,NA,NA,NA,NA,NA,NA,NA,NA,NA,NA,NA
a81c8,deep,flow.Sequence,1_5_0,NA,NA,completion,9383.034,66704.600000024,66702.848,66736.293,76119.327,76120.699999988,2023-10-21T10:23:40Z,76152.681,Lawine,banguko,d,maambukizi,usuluhishi,chekechea,NA,NA,NA,NULL,NA,NA,NA,NA,NA,NA,NA,NA,NA,NA,NA,NA,NA,NA,NA,NA,NA,NA,NA
a81c8,task,flow.Sequence,1_5,NA,NA,completion,9383.034,66704.600000024,66702.848,66736.293,76119.327,76120.800000012,2023-10-21T10:23:40Z,76152.681,Lawine,banguko,d,maambukizi,usuluhishi,chekechea,NA,NA,NA,NULL,NA,NA,NA,NA,NA,NA,NA,NA,NA,NA,NA,NA,NA,NA,NA,NA,NA,NA,NA
a81c8,Deep Question,html.Page,1_6_0_0,NA,NA,form submission,34325.018999988,76120.900000036,76119.327,76152.681,110477.69999999,110478.10000002,2023-10-21T10:24:14Z,110485.38,Aufstand,ugomaji,d,mazidio,msingi,kujieleza,x,NA,NA,NULL,NA,NA,NA,NA,NA,NA,NA,NA,NA,NA,NA,NA,NA,NA,NA,NA,NA,NA,NA
a81c8,Save data screen,canvas.Screen,1_6_0_1,NA,NA,timeout,500.12599999999,110480.80000001,110468.781,110485.38,110952.293,110953.30000001,2023-10-21T10:24:14Z,110985.506,Aufstand,ugomaji,d,mazidio,msingi,kujieleza,NA,NA,0,NULL,NA,NA,NA,NA,NA,NA,NA,NA,NA,NA,NA,NA,NA,NA,NA,NA,NA,NA,NA
a81c8,deep,flow.Sequence,1_6_0,NA,NA,completion,34799.612,76120.900000036,76119.327,76152.681,110952.293,110953.60000002,2023-10-21T10:24:14Z,110985.506,Aufstand,ugomaji,d,mazidio,msingi,kujieleza,NA,NA,NA,NULL,NA,NA,NA,NA,NA,NA,NA,NA,NA,NA,NA,NA,NA,NA,NA,NA,NA,NA,NA
a81c8,task,flow.Sequence,1_6,NA,NA,completion,34799.612,76120.900000036,76119.327,76152.681,110952.293,110953.80000001,2023-10-21T10:24:14Z,110985.506,Aufstand,ugomaji,d,mazidio,msingi,kujieleza,NA,NA,NA,NULL,NA,NA,NA,NA,NA,NA,NA,NA,NA,NA,NA,NA,NA,NA,NA,NA,NA,NA,NA
a81c8,Deep Question,html.Page,1_7_0_0,NA,NA,form submission,13663.094000024,110954,110952.293,110985.506,124648.60000002,124649,2023-10-21T10:24:28Z,124668.601,Prüfung,mtihani,d,mkulima,mtizamo,ufumbuzi,mtihani,NA,NA,NULL,NA,NA,NA,NA,NA,NA,NA,NA,NA,NA,NA,NA,NA,NA,NA,NA,NA,NA,NA
a81c8,Save data screen,canvas.Screen,1_7_0_1,NA,NA,timeout,483.20000000001,124651.40000004,124635.506,124668.601,125118.594,125119.60000002,2023-10-21T10:24:29Z,125151.801,Prüfung,mtihani,d,mkulima,mtizamo,ufumbuzi,NA,NA,1,NULL,NA,NA,NA,NA,NA,NA,NA,NA,NA,NA,NA,NA,NA,NA,NA,NA,NA,NA,NA
a81c8,deep,flow.Sequence,1_7_0,NA,NA,completion,14133.088,110953.90000004,110952.293,110985.506,125118.594,125119.80000001,2023-10-21T10:24:29Z,125151.801,Prüfung,mtihani,d,mkulima,mtizamo,ufumbuzi,NA,NA,NA,NULL,NA,NA,NA,NA,NA,NA,NA,NA,NA,NA,NA,NA,NA,NA,NA,NA,NA,NA,NA
a81c8,task,flow.Sequence,1_7,NA,NA,completion,14133.088,110953.90000004,110952.293,110985.506,125118.594,125120,2023-10-21T10:24:29Z,125151.801,Prüfung,mtihani,d,mkulima,mtizamo,ufumbuzi,NA,NA,NA,NULL,NA,NA,NA,NA,NA,NA,NA,NA,NA,NA,NA,NA,NA,NA,NA,NA,NA,NA,NA
a81c8,Deep Question,html.Page,1_8_0_0,NA,NA,form submission,4353.199,125120.10000002,125118.594,125151.801,129505,129505.40000004,2023-10-21T10:24:33Z,129535.09,Kontrolle,kudhibiti,s,mbinguni,kufunga,utegemezi,x,NA,NA,NULL,NA,NA,NA,NA,NA,NA,NA,NA,NA,NA,NA,NA,NA,NA,NA,NA,NA,NA,NA
a81c8,Save data screen,canvas.Screen,1_8_0_1,NA,NA,timeout,500.054,129507.69999999,129502.328,129535.09,130001.861,130002.80000001,2023-10-21T10:24:33Z,130035.144,Kontrolle,kudhibiti,s,mbinguni,kufunga,utegemezi,NA,NA,0,NULL,NA,NA,NA,NA,NA,NA,NA,NA,NA,NA,NA,NA,NA,NA,NA,NA,NA,NA,NA
a81c8,deep,flow.Sequence,1_8_0,NA,NA,completion,4850.06,125120.10000002,125118.594,125151.801,130001.861,130003.10000002,2023-10-21T10:24:33Z,130035.144,Kontrolle,kudhibiti,s,mbinguni,kufunga,utegemezi,NA,NA,NA,NULL,NA,NA,NA,NA,NA,NA,NA,NA,NA,NA,NA,NA,NA,NA,NA,NA,NA,NA,NA
a81c8,task,flow.Sequence,1_8,NA,NA,completion,4850.06,125120.10000002,125118.594,125151.801,130001.861,130003.10000002,2023-10-21T10:24:33Z,130035.144,Kontrolle,kudhibiti,s,mbinguni,kufunga,utegemezi,NA,NA,NA,NULL,NA,NA,NA,NA,NA,NA,NA,NA,NA,NA,NA,NA,NA,NA,NA,NA,NA,NA,NA
a81c8,Deep Question,html.Page,1_9_0_0,NA,NA,form submission,10276.656000012,130003.19999999,130001.861,130035.144,140311.80000001,140312.10000002,2023-10-21T10:24:44Z,140334.945,Verzögerung,kuchelewa,s,mwakilishi,mwanauchumi,jaribio,x,NA,NA,NULL,NA,NA,NA,NA,NA,NA,NA,NA,NA,NA,NA,NA,NA,NA,NA,NA,NA,NA,NA
a81c8,Save data screen,canvas.Screen,1_9_0_1,NA,NA,timeout,499.946,140314.40000004,140302.294,140334.945,140801.61,140802.5,2023-10-21T10:24:44Z,140834.891,Verzögerung,kuchelewa,s,mwakilishi,mwanauchumi,jaribio,NA,NA,0,NULL,NA,NA,NA,NA,NA,NA,NA,NA,NA,NA,NA,NA,NA,NA,NA,NA,NA,NA,NA
a81c8,deep,flow.Sequence,1_9_0,NA,NA,completion,10766.466,130003.19999999,130001.861,130035.144,140801.61,140802.80000001,2023-10-21T10:24:44Z,140834.891,Verzögerung,kuchelewa,s,mwakilishi,mwanauchumi,jaribio,NA,NA,NA,NULL,NA,NA,NA,NA,NA,NA,NA,NA,NA,NA,NA,NA,NA,NA,NA,NA,NA,NA,NA
a81c8,task,flow.Sequence,1_9,NA,NA,completion,10766.466,130003.19999999,130001.861,130035.144,140801.61,140802.90000004,2023-10-21T10:24:44Z,140834.891,Verzögerung,kuchelewa,s,mwakilishi,mwanauchumi,jaribio,NA,NA,NA,NULL,NA,NA,NA,NA,NA,NA,NA,NA,NA,NA,NA,NA,NA,NA,NA,NA,NA,NA,NA
a81c8,Deep Question,html.Page,1_10_0_0,NA,NA,form submission,11898.009000036,140803.10000002,140801.61,140834.891,152732.90000004,152733.19999999,2023-10-21T10:24:56Z,152751.418,Abrechnung,uhasibu,s,kusahihisha,mpambano,mashambulizi,x,NA,NA,NULL,NA,NA,NA,NA,NA,NA,NA,NA,NA,NA,NA,NA,NA,NA,NA,NA,NA,NA,NA
a81c8,Save data screen,canvas.Screen,1_10_0_1,NA,NA,timeout,499.99899999998,152735.60000002,152718.036,152751.418,153234.77,153235.60000002,2023-10-21T10:24:57Z,153251.417,Abrechnung,uhasibu,s,kusahihisha,mpambano,mashambulizi,NA,NA,0,NULL,NA,NA,NA,NA,NA,NA,NA,NA,NA,NA,NA,NA,NA,NA,NA,NA,NA,NA,NA
a81c8,deep,flow.Sequence,1_10_0,NA,NA,completion,12399.879,140803.10000002,140801.61,140834.891,153234.77,153235.80000001,2023-10-21T10:24:57Z,153251.417,Abrechnung,uhasibu,s,kusahihisha,mpambano,mashambulizi,NA,NA,NA,NULL,NA,NA,NA,NA,NA,NA,NA,NA,NA,NA,NA,NA,NA,NA,NA,NA,NA,NA,NA
a81c8,task,flow.Sequence,1_10,NA,NA,completion,12399.879,140802.90000004,140801.61,140834.891,153234.77,153236,2023-10-21T10:24:57Z,153251.417,Abrechnung,uhasibu,s,kusahihisha,mpambano,mashambulizi,NA,NA,NA,NULL,NA,NA,NA,NA,NA,NA,NA,NA,NA,NA,NA,NA,NA,NA,NA,NA,NA,NA,NA
a81c8,Deep Question,html.Page,1_11_0_0,NA,NA,form submission,22182.782999988,153236.19999999,153234.77,153251.417,175434.19999999,175434.40000004,2023-10-21T10:25:19Z,175455.704,Können,unaweza,d,kiongozi,bustani,mienendo,kutengwa,NA,NA,NULL,NA,NA,NA,NA,NA,NA,NA,NA,NA,NA,NA,NA,NA,NA,NA,NA,NA,NA,NA
a81c8,Save data screen,canvas.Screen,1_11_0_1,NA,NA,timeout,511.98999999999,175436.80000001,175417.782,175455.704,175934.79,175935.90000004,2023-10-21T10:25:19Z,175967.694,Können,unaweza,d,kiongozi,bustani,mienendo,NA,NA,0,NULL,NA,NA,NA,NA,NA,NA,NA,NA,NA,NA,NA,NA,NA,NA,NA,NA,NA,NA,NA
a81c8,deep,flow.Sequence,1_11_0,NA,NA,completion,22683.373,153236.10000002,153234.77,153251.417,175934.79,175936,2023-10-21T10:25:19Z,175967.694,Können,unaweza,d,kiongozi,bustani,mienendo,NA,NA,NA,NULL,NA,NA,NA,NA,NA,NA,NA,NA,NA,NA,NA,NA,NA,NA,NA,NA,NA,NA,NA
a81c8,task,flow.Sequence,1_11,NA,NA,completion,22683.373,153236.10000002,153234.77,153251.417,175934.79,175936.10000002,2023-10-21T10:25:19Z,175967.694,Können,unaweza,d,kiongozi,bustani,mienendo,NA,NA,NA,NULL,NA,NA,NA,NA,NA,NA,NA,NA,NA,NA,NA,NA,NA,NA,NA,NA,NA,NA,NA
a81c8,Deep Question,html.Page,1_12_0_0,NA,NA,form submission,13202.906000024,175936.19999999,175934.79,175967.694,189170.60000002,189170.90000004,2023-10-21T10:25:33Z,189200.994,Körper,kiwiliwili,s,mapambano,mpatanishi,kiolezo,kiwiliwi,NA,NA,NULL,NA,NA,NA,NA,NA,NA,NA,NA,NA,NA,NA,NA,NA,NA,NA,NA,NA,NA,NA
a81c8,Save data screen,canvas.Screen,1_12_0_1,NA,NA,timeout,499.902,189173.5,189167.724,189200.994,189684.179,189685.40000004,2023-10-21T10:25:33Z,189700.896,Körper,kiwiliwili,s,mapambano,mpatanishi,kiolezo,NA,NA,0,NULL,NA,NA,NA,NA,NA,NA,NA,NA,NA,NA,NA,NA,NA,NA,NA,NA,NA,NA,NA
a81c8,deep,flow.Sequence,1_12_0,NA,NA,completion,13716.485,175936.19999999,175934.79,175967.694,189684.179,189685.69999999,2023-10-21T10:25:33Z,189700.896,Körper,kiwiliwili,s,mapambano,mpatanishi,kiolezo,NA,NA,NA,NULL,NA,NA,NA,NA,NA,NA,NA,NA,NA,NA,NA,NA,NA,NA,NA,NA,NA,NA,NA
a81c8,task,flow.Sequence,1_12,NA,NA,completion,13716.485,175936.19999999,175934.79,175967.694,189684.179,189686,2023-10-21T10:25:33Z,189700.896,Körper,kiwiliwili,s,mapambano,mpatanishi,kiolezo,NA,NA,NA,NULL,NA,NA,NA,NA,NA,NA,NA,NA,NA,NA,NA,NA,NA,NA,NA,NA,NA,NA,NA
a81c8,Deep Question,html.Page,1_13_0_0,NA,NA,form submission,17825.104,189686.30000001,189684.179,189700.896,207526,207526.30000001,2023-10-21T10:25:51Z,207550.571,Kreativität,ubunifu,d,mratibu,mwendelezo,makubaliano,ugomaji,NA,NA,NULL,NA,NA,NA,NA,NA,NA,NA,NA,NA,NA,NA,NA,NA,NA,NA,NA,NA,NA,NA
a81c8,Save data screen,canvas.Screen,1_13_0_1,NA,NA,timeout,500.30600000001,207529.19999999,207517.603,207550.571,208034.317,208035.5,2023-10-21T10:25:52Z,208050.877,Kreativität,ubunifu,d,mratibu,mwendelezo,makubaliano,NA,NA,0,NULL,NA,NA,NA,NA,NA,NA,NA,NA,NA,NA,NA,NA,NA,NA,NA,NA,NA,NA,NA
a81c8,deep,flow.Sequence,1_13_0,NA,NA,completion,18333.421,189686.30000001,189684.179,189700.896,208034.317,208036.10000002,2023-10-21T10:25:52Z,208050.877,Kreativität,ubunifu,d,mratibu,mwendelezo,makubaliano,NA,NA,NA,NULL,NA,NA,NA,NA,NA,NA,NA,NA,NA,NA,NA,NA,NA,NA,NA,NA,NA,NA,NA
a81c8,task,flow.Sequence,1_13,NA,NA,completion,18333.421,189686.10000002,189684.179,189700.896,208034.317,208036.30000001,2023-10-21T10:25:52Z,208050.877,Kreativität,ubunifu,d,mratibu,mwendelezo,makubaliano,NA,NA,NA,NULL,NA,NA,NA,NA,NA,NA,NA,NA,NA,NA,NA,NA,NA,NA,NA,NA,NA,NA,NA
a81c8,Deep Question,html.Page,1_14_0_0,NA,NA,form submission,3090.3229999881,208036.60000002,208034.317,208050.877,211141.19999999,211141.5,2023-10-21T10:25:55Z,211167.17,Übersicht,kilindo,s,mgusano,chipukizi,kulinganisha,x,NA,NA,NULL,NA,NA,NA,NA,NA,NA,NA,NA,NA,NA,NA,NA,NA,NA,NA,NA,NA,NA,NA
a81c8,Save data screen,canvas.Screen,1_14_0_1,NA,NA,timeout,500.03199999998,211142.19999999,211134.188,211167.17,211650.544,211652.40000004,2023-10-21T10:25:55Z,211667.202,Übersicht,kilindo,s,mgusano,chipukizi,kulinganisha,NA,NA,0,NULL,NA,NA,NA,NA,NA,NA,NA,NA,NA,NA,NA,NA,NA,NA,NA,NA,NA,NA,NA
a81c8,deep,flow.Sequence,1_14_0,NA,NA,completion,3599.667,208036.5,208034.317,208050.877,211650.544,211652.5,2023-10-21T10:25:55Z,211667.202,Übersicht,kilindo,s,mgusano,chipukizi,kulinganisha,NA,NA,NA,NULL,NA,NA,NA,NA,NA,NA,NA,NA,NA,NA,NA,NA,NA,NA,NA,NA,NA,NA,NA
a81c8,task,flow.Sequence,1_14,NA,NA,completion,3599.667,208036.5,208034.317,208050.877,211650.544,211652.69999999,2023-10-21T10:25:55Z,211667.202,Übersicht,kilindo,s,mgusano,chipukizi,kulinganisha,NA,NA,NA,NULL,NA,NA,NA,NA,NA,NA,NA,NA,NA,NA,NA,NA,NA,NA,NA,NA,NA,NA,NA
a81c8,Deep Question,html.Page,1_15_0_0,NA,NA,form submission,10344.098000012,211652.80000001,211650.544,211667.202,222011.30000001,222011.5,2023-10-21T10:26:05Z,222033.946,Kanzler,diwani,s,rasilmali,mahitaji,maabudu,x,NA,NA,NULL,NA,NA,NA,NA,NA,NA,NA,NA,NA,NA,NA,NA,NA,NA,NA,NA,NA,NA,NA
a81c8,Save data screen,canvas.Screen,1_15_0_1,NA,NA,timeout,499.682,222013.69999999,222000.672,222033.946,222500.62,222501.90000004,2023-10-21T10:26:06Z,222533.628,Kanzler,diwani,s,rasilmali,mahitaji,maabudu,NA,NA,0,NULL,NA,NA,NA,NA,NA,NA,NA,NA,NA,NA,NA,NA,NA,NA,NA,NA,NA,NA,NA
a81c8,deep,flow.Sequence,1_15_0,NA,NA,completion,10833.418,211652.80000001,211650.544,211667.202,222500.62,222502.10000002,2023-10-21T10:26:06Z,222533.628,Kanzler,diwani,s,rasilmali,mahitaji,maabudu,NA,NA,NA,NULL,NA,NA,NA,NA,NA,NA,NA,NA,NA,NA,NA,NA,NA,NA,NA,NA,NA,NA,NA
a81c8,task,flow.Sequence,1_15,NA,NA,completion,10833.418,211652.69999999,211650.544,211667.202,222500.62,222502.19999999,2023-10-21T10:26:06Z,222533.628,Kanzler,diwani,s,rasilmali,mahitaji,maabudu,NA,NA,NA,NULL,NA,NA,NA,NA,NA,NA,NA,NA,NA,NA,NA,NA,NA,NA,NA,NA,NA,NA,NA
a81c8,retrieval block 1 (cued recall),flow.Loop,1,NA,NA,completion,219863.473,2614.6999999881,2603.804,2637.147,222500.62,222502.40000004,2023-10-21T10:26:06Z,222533.628,NA,NA,NA,NA,NA,NA,NA,NA,NA,NULL,NA,NA,NA,NA,NA,NA,NA,NA,NA,NA,NA,NA,NA,NA,NA,NA,NA,NA,NA
a81c8,Shallow Question,html.Page,2_0_0_0,NA,NA,form submission,10289.272000036,222502.69999999,222500.62,222533.628,232822.90000004,232823.19999999,2023-10-21T10:26:16Z,232850.115,Körper,kiwiliwili,s,mapambano,mpatanishi,kiolezo,kiwiliwili,NA,NA,"c(""distractor1"", ""distractor2"", ""distractor3"")",NA,NA,NA,NA,NA,NA,NA,NA,NA,NA,NA,NA,NA,NA,NA,NA,NA,NA,NA
a81c8,Save data screen,canvas.Screen,2_0_0_1,NA,NA,timeout,1233.345,232825.90000004,232818.751,232850.115,234064.10000002,234064.40000004,2023-10-21T10:26:18Z,234083.46,Körper,kiwiliwili,s,mapambano,mpatanishi,kiolezo,NA,NA,1,"c(""distractor1"", ""distractor2"", ""distractor3"")",NA,NA,NA,NA,NA,NA,NA,NA,NA,NA,NA,NA,NA,NA,NA,NA,NA,NA,NA
a81c8,shallow,flow.Sequence,2_0_0,NA,NA,completion,11530.472000024,222502.69999999,222500.62,222533.628,234064.10000002,234064.60000002,2023-10-21T10:26:18Z,234083.46,Körper,kiwiliwili,s,mapambano,mpatanishi,kiolezo,NA,NA,NA,"c(""distractor1"", ""distractor2"", ""distractor3"")",NA,NA,NA,NA,NA,NA,NA,NA,NA,NA,NA,NA,NA,NA,NA,NA,NA,NA,NA
a81c8,task,flow.Sequence,2_0,NA,NA,completion,11530.472000024,222502.60000002,222500.62,222533.628,234064.10000002,234064.69999999,2023-10-21T10:26:18Z,234083.46,Körper,kiwiliwili,s,mapambano,mpatanishi,kiolezo,NA,NA,NA,"c(""distractor1"", ""distractor2"", ""distractor3"")",NA,NA,NA,NA,NA,NA,NA,NA,NA,NA,NA,NA,NA,NA,NA,NA,NA,NA,NA
a81c8,Shallow Question,html.Page,2_1_0_0,NA,NA,form submission,8029.54,234064.90000004,234064.10000002,234083.46,242113,242113.30000001,2023-10-21T10:26:26Z,242116.635,Sänger,mwimbaji,d,msichana,shughuli,mshirika,mwimbaji,NA,NA,"c(""distractor1"", ""distractor2"", ""distractor3"")",NA,NA,NA,NA,NA,NA,NA,NA,NA,NA,NA,NA,NA,NA,NA,NA,NA,NA,NA
a81c8,Save data screen,canvas.Screen,2_1_0_1,NA,NA,timeout,500.065,242116.10000002,242100.239,242116.635,242600.409,242601.60000002,2023-10-21T10:26:26Z,242616.7,Sänger,mwimbaji,d,msichana,shughuli,mshirika,NA,NA,1,"c(""distractor1"", ""distractor2"", ""distractor3"")",NA,NA,NA,NA,NA,NA,NA,NA,NA,NA,NA,NA,NA,NA,NA,NA,NA,NA,NA
a81c8,shallow,flow.Sequence,2_1_0,NA,NA,completion,8516.949,234064.80000001,234064.10000002,234083.46,242600.409,242601.80000001,2023-10-21T10:26:26Z,242616.7,Sänger,mwimbaji,d,msichana,shughuli,mshirika,NA,NA,NA,"c(""distractor1"", ""distractor2"", ""distractor3"")",NA,NA,NA,NA,NA,NA,NA,NA,NA,NA,NA,NA,NA,NA,NA,NA,NA,NA,NA
a81c8,task,flow.Sequence,2_1,NA,NA,completion,8516.949,234064.80000001,234064.10000002,234083.46,242600.409,242602,2023-10-21T10:26:26Z,242616.7,Sänger,mwimbaji,d,msichana,shughuli,mshirika,NA,NA,NA,"c(""distractor1"", ""distractor2"", ""distractor3"")",NA,NA,NA,NA,NA,NA,NA,NA,NA,NA,NA,NA,NA,NA,NA,NA,NA,NA,NA
a81c8,Shallow Question,html.Page,2_2_0_0,NA,NA,form submission,7100.6000000119,242602.10000002,242600.409,242616.7,249717.30000001,249717.60000002,2023-10-21T10:26:33Z,249737.925,Verzögerung,kuchelewa,s,mwakilishi,mwanauchumi,jaribio,kuchelewa,NA,NA,"c(""distractor1"", ""distractor2"", ""distractor3"")",NA,NA,NA,NA,NA,NA,NA,NA,NA,NA,NA,NA,NA,NA,NA,NA,NA,NA,NA
a81c8,Save data screen,canvas.Screen,2_2_0_1,NA,NA,timeout,495.22500000001,249719.90000004,249699.94,249737.925,250199.929,250200.80000001,2023-10-21T10:26:34Z,250233.15,Verzögerung,kuchelewa,s,mwakilishi,mwanauchumi,jaribio,NA,NA,1,"c(""distractor1"", ""distractor2"", ""distractor3"")",NA,NA,NA,NA,NA,NA,NA,NA,NA,NA,NA,NA,NA,NA,NA,NA,NA,NA,NA
a81c8,shallow,flow.Sequence,2_2_0,NA,NA,completion,7583.229,242602.10000002,242600.409,242616.7,250199.929,250201,2023-10-21T10:26:34Z,250233.15,Verzögerung,kuchelewa,s,mwakilishi,mwanauchumi,jaribio,NA,NA,NA,"c(""distractor1"", ""distractor2"", ""distractor3"")",NA,NA,NA,NA,NA,NA,NA,NA,NA,NA,NA,NA,NA,NA,NA,NA,NA,NA,NA
a81c8,task,flow.Sequence,2_2,NA,NA,completion,7583.229,242602,242600.409,242616.7,250199.929,250201.10000002,2023-10-21T10:26:34Z,250233.15,Verzögerung,kuchelewa,s,mwakilishi,mwanauchumi,jaribio,NA,NA,NA,"c(""distractor1"", ""distractor2"", ""distractor3"")",NA,NA,NA,NA,NA,NA,NA,NA,NA,NA,NA,NA,NA,NA,NA,NA,NA,NA,NA
a81c8,Shallow Question,html.Page,2_3_0_0,NA,NA,form submission,6421.4500000238,250201.30000001,250199.929,250233.15,256654.60000002,256655,2023-10-21T10:26:40Z,256666.427,Kanzler,diwani,s,rasilmali,mahitaji,maabudu,diwani,NA,NA,"c(""distractor1"", ""distractor2"", ""distractor3"")",NA,NA,NA,NA,NA,NA,NA,NA,NA,NA,NA,NA,NA,NA,NA,NA,NA,NA,NA
a81c8,Save data screen,canvas.Screen,2_3_0_1,NA,NA,timeout,499.97400000002,256657.40000004,256649.751,256666.427,257149.757,257153,2023-10-21T10:26:41Z,257166.401,Kanzler,diwani,s,rasilmali,mahitaji,maabudu,NA,NA,1,"c(""distractor1"", ""distractor2"", ""distractor3"")",NA,NA,NA,NA,NA,NA,NA,NA,NA,NA,NA,NA,NA,NA,NA,NA,NA,NA,NA
a81c8,shallow,flow.Sequence,2_3_0,NA,NA,completion,6916.607,250201.30000001,250199.929,250233.15,257149.757,257153.19999999,2023-10-21T10:26:41Z,257166.401,Kanzler,diwani,s,rasilmali,mahitaji,maabudu,NA,NA,NA,"c(""distractor1"", ""distractor2"", ""distractor3"")",NA,NA,NA,NA,NA,NA,NA,NA,NA,NA,NA,NA,NA,NA,NA,NA,NA,NA,NA
a81c8,task,flow.Sequence,2_3,NA,NA,completion,6916.607,250201.19999999,250199.929,250233.15,257149.757,257153.30000001,2023-10-21T10:26:41Z,257166.401,Kanzler,diwani,s,rasilmali,mahitaji,maabudu,NA,NA,NA,"c(""distractor1"", ""distractor2"", ""distractor3"")",NA,NA,NA,NA,NA,NA,NA,NA,NA,NA,NA,NA,NA,NA,NA,NA,NA,NA,NA
a81c8,Shallow Question,html.Page,2_4_0_0,NA,NA,form submission,8765.3990000119,257153.40000004,257149.757,257166.401,265931.80000001,265932.10000002,2023-10-21T10:26:49Z,265932.927,Abrechnung,uhasibu,s,kusahihisha,mpambano,mashambulizi,uhasibu,NA,NA,"c(""distractor1"", ""distractor2"", ""distractor3"")",NA,NA,NA,NA,NA,NA,NA,NA,NA,NA,NA,NA,NA,NA,NA,NA,NA,NA,NA
a81c8,Save data screen,canvas.Screen,2_4_0_1,NA,NA,timeout,499.94399999996,265934.60000002,265916.314,265932.927,266416.22,266416.80000001,2023-10-21T10:26:50Z,266432.871,Abrechnung,uhasibu,s,kusahihisha,mpambano,mashambulizi,NA,NA,1,"c(""distractor1"", ""distractor2"", ""distractor3"")",NA,NA,NA,NA,NA,NA,NA,NA,NA,NA,NA,NA,NA,NA,NA,NA,NA,NA,NA
a81c8,shallow,flow.Sequence,2_4_0,NA,NA,completion,9249.819,257153.40000004,257149.757,257166.401,266416.22,266417.10000002,2023-10-21T10:26:50Z,266432.871,Abrechnung,uhasibu,s,kusahihisha,mpambano,mashambulizi,NA,NA,NA,"c(""distractor1"", ""distractor2"", ""distractor3"")",NA,NA,NA,NA,NA,NA,NA,NA,NA,NA,NA,NA,NA,NA,NA,NA,NA,NA,NA
a81c8,task,flow.Sequence,2_4,NA,NA,completion,9249.819,257153.40000004,257149.757,257166.401,266416.22,266417.10000002,2023-10-21T10:26:50Z,266432.871,Abrechnung,uhasibu,s,kusahihisha,mpambano,mashambulizi,NA,NA,NA,"c(""distractor1"", ""distractor2"", ""distractor3"")",NA,NA,NA,NA,NA,NA,NA,NA,NA,NA,NA,NA,NA,NA,NA,NA,NA,NA,NA
a81c8,Shallow Question,html.Page,2_5_0_0,NA,NA,form submission,10626.029000036,266417.30000001,266416.22,266432.871,277058.90000004,277059.10000002,2023-10-21T10:27:01Z,277066.068,Kontrolle,kudhibiti,s,mbinguni,kufunga,utegemezi,kudhibiti,NA,NA,"c(""distractor1"", ""distractor2"", ""distractor3"")",NA,NA,NA,NA,NA,NA,NA,NA,NA,NA,NA,NA,NA,NA,NA,NA,NA,NA,NA
a81c8,Save data screen,canvas.Screen,2_5_0_1,NA,NA,timeout,499.99799999996,277061.40000004,277049.369,277066.068,277549.371,277550,2023-10-21T10:27:01Z,277566.066,Kontrolle,kudhibiti,s,mbinguni,kufunga,utegemezi,NA,NA,1,"c(""distractor1"", ""distractor2"", ""distractor3"")",NA,NA,NA,NA,NA,NA,NA,NA,NA,NA,NA,NA,NA,NA,NA,NA,NA,NA,NA
a81c8,shallow,flow.Sequence,2_5_0,NA,NA,completion,11116.5,266417.30000001,266416.22,266432.871,277549.371,277550.10000002,2023-10-21T10:27:01Z,277566.066,Kontrolle,kudhibiti,s,mbinguni,kufunga,utegemezi,NA,NA,NA,"c(""distractor1"", ""distractor2"", ""distractor3"")",NA,NA,NA,NA,NA,NA,NA,NA,NA,NA,NA,NA,NA,NA,NA,NA,NA,NA,NA
a81c8,task,flow.Sequence,2_5,NA,NA,completion,11116.5,266417.19999999,266416.22,266432.871,277549.371,277550.30000001,2023-10-21T10:27:01Z,277566.066,Kontrolle,kudhibiti,s,mbinguni,kufunga,utegemezi,NA,NA,NA,"c(""distractor1"", ""distractor2"", ""distractor3"")",NA,NA,NA,NA,NA,NA,NA,NA,NA,NA,NA,NA,NA,NA,NA,NA,NA,NA,NA
a81c8,Shallow Question,html.Page,2_6_0_0,NA,NA,form submission,6029.0340000239,277550.30000001,277549.371,277566.066,283595.10000002,283595.30000001,2023-10-21T10:27:07Z,283599.28,System,maongozi,d,chokochoko,nuksani,mitaani,maongozi,NA,NA,"c(""distractor1"", ""distractor2"", ""distractor3"")",NA,NA,NA,NA,NA,NA,NA,NA,NA,NA,NA,NA,NA,NA,NA,NA,NA,NA,NA
a81c8,Save data screen,canvas.Screen,2_6_0_1,NA,NA,timeout,500.03899999999,283597.60000002,283582.554,283599.28,284082.649,284083.5,2023-10-21T10:27:08Z,284099.319,System,maongozi,d,chokochoko,nuksani,mitaani,NA,NA,1,"c(""distractor1"", ""distractor2"", ""distractor3"")",NA,NA,NA,NA,NA,NA,NA,NA,NA,NA,NA,NA,NA,NA,NA,NA,NA,NA,NA
a81c8,shallow,flow.Sequence,2_6_0,NA,NA,completion,6516.583,277550.30000001,277549.371,277566.066,284082.649,284083.80000001,2023-10-21T10:27:08Z,284099.319,System,maongozi,d,chokochoko,nuksani,mitaani,NA,NA,NA,"c(""distractor1"", ""distractor2"", ""distractor3"")",NA,NA,NA,NA,NA,NA,NA,NA,NA,NA,NA,NA,NA,NA,NA,NA,NA,NA,NA
a81c8,task,flow.Sequence,2_6,NA,NA,completion,6516.583,277550.30000001,277549.371,277566.066,284082.649,284084,2023-10-21T10:27:08Z,284099.319,System,maongozi,d,chokochoko,nuksani,mitaani,NA,NA,NA,"c(""distractor1"", ""distractor2"", ""distractor3"")",NA,NA,NA,NA,NA,NA,NA,NA,NA,NA,NA,NA,NA,NA,NA,NA,NA,NA,NA
a81c8,Shallow Question,html.Page,2_7_0_0,NA,NA,form submission,7453.9810000119,284084.19999999,284082.649,284099.319,291553.30000001,291553.5,2023-10-21T10:27:15Z,291565.818,Lawine,banguko,d,maambukizi,usuluhishi,chekechea,banguko,NA,NA,"c(""distractor1"", ""distractor2"", ""distractor3"")",NA,NA,NA,NA,NA,NA,NA,NA,NA,NA,NA,NA,NA,NA,NA,NA,NA,NA,NA
a81c8,Save data screen,canvas.Screen,2_7_0_1,NA,NA,timeout,500.00599999999,291556.40000004,291538.696,291565.818,292032.49,292033.10000002,2023-10-21T10:27:16Z,292065.824,Lawine,banguko,d,maambukizi,usuluhishi,chekechea,NA,NA,1,"c(""distractor1"", ""distractor2"", ""distractor3"")",NA,NA,NA,NA,NA,NA,NA,NA,NA,NA,NA,NA,NA,NA,NA,NA,NA,NA,NA
a81c8,shallow,flow.Sequence,2_7_0,NA,NA,completion,7933.171,284084.19999999,284082.649,284099.319,292032.49,292033.30000001,2023-10-21T10:27:16Z,292065.824,Lawine,banguko,d,maambukizi,usuluhishi,chekechea,NA,NA,NA,"c(""distractor1"", ""distractor2"", ""distractor3"")",NA,NA,NA,NA,NA,NA,NA,NA,NA,NA,NA,NA,NA,NA,NA,NA,NA,NA,NA
a81c8,task,flow.Sequence,2_7,NA,NA,completion,7933.171,284084.19999999,284082.649,284099.319,292032.49,292033.40000004,2023-10-21T10:27:16Z,292065.824,Lawine,banguko,d,maambukizi,usuluhishi,chekechea,NA,NA,NA,"c(""distractor1"", ""distractor2"", ""distractor3"")",NA,NA,NA,NA,NA,NA,NA,NA,NA,NA,NA,NA,NA,NA,NA,NA,NA,NA,NA
a81c8,Shallow Question,html.Page,2_8_0_0,NA,NA,form submission,9747.0760000357,292033.5,292032.49,292065.824,301812.90000004,301813.10000002,2023-10-21T10:27:25Z,301815.712,Übersicht,kilindo,s,mgusano,chipukizi,kulinganisha,kilindo,NA,NA,"c(""distractor1"", ""distractor2"", ""distractor3"")",NA,NA,NA,NA,NA,NA,NA,NA,NA,NA,NA,NA,NA,NA,NA,NA,NA,NA,NA
a81c8,Save data screen,canvas.Screen,2_8_0_1,NA,NA,timeout,500.33899999998,301815.5,301799.211,301815.712,302299.368,302300.5,2023-10-21T10:27:26Z,302316.051,Übersicht,kilindo,s,mgusano,chipukizi,kulinganisha,NA,NA,1,"c(""distractor1"", ""distractor2"", ""distractor3"")",NA,NA,NA,NA,NA,NA,NA,NA,NA,NA,NA,NA,NA,NA,NA,NA,NA,NA,NA
a81c8,shallow,flow.Sequence,2_8_0,NA,NA,completion,10233.544,292033.5,292032.49,292065.824,302299.368,302300.80000001,2023-10-21T10:27:26Z,302316.051,Übersicht,kilindo,s,mgusano,chipukizi,kulinganisha,NA,NA,NA,"c(""distractor1"", ""distractor2"", ""distractor3"")",NA,NA,NA,NA,NA,NA,NA,NA,NA,NA,NA,NA,NA,NA,NA,NA,NA,NA,NA
a81c8,task,flow.Sequence,2_8,NA,NA,completion,10233.544,292033.5,292032.49,292065.824,302299.368,302300.90000004,2023-10-21T10:27:26Z,302316.051,Übersicht,kilindo,s,mgusano,chipukizi,kulinganisha,NA,NA,NA,"c(""distractor1"", ""distractor2"", ""distractor3"")",NA,NA,NA,NA,NA,NA,NA,NA,NA,NA,NA,NA,NA,NA,NA,NA,NA,NA,NA
a81c8,Shallow Question,html.Page,2_9_0_0,NA,NA,form submission,7457.449,302301.10000002,302299.368,302316.051,309773.5,309773.90000004,2023-10-21T10:27:33Z,309798.871,Können,unaweza,d,kiongozi,bustani,mienendo,unaweza,NA,NA,"c(""distractor1"", ""distractor2"", ""distractor3"")",NA,NA,NA,NA,NA,NA,NA,NA,NA,NA,NA,NA,NA,NA,NA,NA,NA,NA,NA
a81c8,Save data screen,canvas.Screen,2_9_0_1,NA,NA,timeout,500.07400000002,309776.19999999,309765.88,309798.871,310265.618,310266.5,2023-10-21T10:27:34Z,310298.945,Können,unaweza,d,kiongozi,bustani,mienendo,NA,NA,1,"c(""distractor1"", ""distractor2"", ""distractor3"")",NA,NA,NA,NA,NA,NA,NA,NA,NA,NA,NA,NA,NA,NA,NA,NA,NA,NA,NA
a81c8,shallow,flow.Sequence,2_9_0,NA,NA,completion,7949.567,302301.10000002,302299.368,302316.051,310265.618,310266.69999999,2023-10-21T10:27:34Z,310298.945,Können,unaweza,d,kiongozi,bustani,mienendo,NA,NA,NA,"c(""distractor1"", ""distractor2"", ""distractor3"")",NA,NA,NA,NA,NA,NA,NA,NA,NA,NA,NA,NA,NA,NA,NA,NA,NA,NA,NA
a81c8,task,flow.Sequence,2_9,NA,NA,completion,7949.567,302301.10000002,302299.368,302316.051,310265.618,310266.80000001,2023-10-21T10:27:34Z,310298.945,Können,unaweza,d,kiongozi,bustani,mienendo,NA,NA,NA,"c(""distractor1"", ""distractor2"", ""distractor3"")",NA,NA,NA,NA,NA,NA,NA,NA,NA,NA,NA,NA,NA,NA,NA,NA,NA,NA,NA
a81c8,Shallow Question,html.Page,2_10_0_0,NA,NA,form submission,8500.7549999881,310266.90000004,310265.618,310298.945,318799.69999999,318800,2023-10-21T10:27:42Z,318822.392,Prüfung,mtihani,d,mkulima,mtizamo,ufumbuzi,mtihani,NA,NA,"c(""distractor1"", ""distractor2"", ""distractor3"")",NA,NA,NA,NA,NA,NA,NA,NA,NA,NA,NA,NA,NA,NA,NA,NA,NA,NA,NA
a81c8,Save data screen,canvas.Screen,2_10_0_1,NA,NA,timeout,493.01799999998,318802.40000004,318782.038,318822.392,319298.913,319308.10000002,2023-10-21T10:27:43Z,319315.41,Prüfung,mtihani,d,mkulima,mtizamo,ufumbuzi,NA,NA,1,"c(""distractor1"", ""distractor2"", ""distractor3"")",NA,NA,NA,NA,NA,NA,NA,NA,NA,NA,NA,NA,NA,NA,NA,NA,NA,NA,NA
a81c8,shallow,flow.Sequence,2_10_0,NA,NA,completion,8999.968,310266.90000004,310265.618,310298.945,319298.913,319308.5,2023-10-21T10:27:43Z,319315.41,Prüfung,mtihani,d,mkulima,mtizamo,ufumbuzi,NA,NA,NA,"c(""distractor1"", ""distractor2"", ""distractor3"")",NA,NA,NA,NA,NA,NA,NA,NA,NA,NA,NA,NA,NA,NA,NA,NA,NA,NA,NA
a81c8,task,flow.Sequence,2_10,NA,NA,completion,8999.968,310266.80000001,310265.618,310298.945,319298.913,319308.69999999,2023-10-21T10:27:43Z,319315.41,Prüfung,mtihani,d,mkulima,mtizamo,ufumbuzi,NA,NA,NA,"c(""distractor1"", ""distractor2"", ""distractor3"")",NA,NA,NA,NA,NA,NA,NA,NA,NA,NA,NA,NA,NA,NA,NA,NA,NA,NA,NA
a81c8,Shallow Question,html.Page,2_11_0_0,NA,NA,form submission,8654.09,319308.80000001,319298.913,319315.41,327969.5,327969.80000001,2023-10-21T10:27:51Z,327981.914,Kreativität,ubunifu,d,mratibu,mwendelezo,makubaliano,ubunifu,NA,NA,"c(""distractor1"", ""distractor2"", ""distractor3"")",NA,NA,NA,NA,NA,NA,NA,NA,NA,NA,NA,NA,NA,NA,NA,NA,NA,NA,NA
a81c8,Save data screen,canvas.Screen,2_11_0_1,NA,NA,timeout,500.11800000002,327972.30000001,327965.209,327981.914,328465.616,328466.80000001,2023-10-21T10:27:52Z,328482.032,Kreativität,ubunifu,d,mratibu,mwendelezo,makubaliano,NA,NA,1,"c(""distractor1"", ""distractor2"", ""distractor3"")",NA,NA,NA,NA,NA,NA,NA,NA,NA,NA,NA,NA,NA,NA,NA,NA,NA,NA,NA
a81c8,shallow,flow.Sequence,2_11_0,NA,NA,completion,9150.206,319308.80000001,319298.913,319315.41,328465.616,328467.10000002,2023-10-21T10:27:52Z,328482.032,Kreativität,ubunifu,d,mratibu,mwendelezo,makubaliano,NA,NA,NA,"c(""distractor1"", ""distractor2"", ""distractor3"")",NA,NA,NA,NA,NA,NA,NA,NA,NA,NA,NA,NA,NA,NA,NA,NA,NA,NA,NA
a81c8,task,flow.Sequence,2_11,NA,NA,completion,9150.206,319308.80000001,319298.913,319315.41,328465.616,328467.30000001,2023-10-21T10:27:52Z,328482.032,Kreativität,ubunifu,d,mratibu,mwendelezo,makubaliano,NA,NA,NA,"c(""distractor1"", ""distractor2"", ""distractor3"")",NA,NA,NA,NA,NA,NA,NA,NA,NA,NA,NA,NA,NA,NA,NA,NA,NA,NA,NA
a81c8,Shallow Question,html.Page,2_12_0_0,NA,NA,form submission,7425.8680000358,328467.5,328465.616,328482.032,335907.90000004,335908.19999999,2023-10-21T10:27:59Z,335915.238,Kultur,utamaduni,s,shetani,gerezani,mazingira,utamaduni,NA,NA,"c(""distractor1"", ""distractor2"", ""distractor3"")",NA,NA,NA,NA,NA,NA,NA,NA,NA,NA,NA,NA,NA,NA,NA,NA,NA,NA,NA
a81c8,Save data screen,canvas.Screen,2_12_0_1,NA,NA,timeout,483.33399999997,335910.60000002,335898.431,335915.238,336365.52,336366.69999999,2023-10-21T10:28:00Z,336398.572,Kultur,utamaduni,s,shetani,gerezani,mazingira,NA,NA,1,"c(""distractor1"", ""distractor2"", ""distractor3"")",NA,NA,NA,NA,NA,NA,NA,NA,NA,NA,NA,NA,NA,NA,NA,NA,NA,NA,NA
a81c8,shallow,flow.Sequence,2_12_0,NA,NA,completion,7883.488,328467.5,328465.616,328482.032,336365.52,336367.10000002,2023-10-21T10:28:00Z,336398.572,Kultur,utamaduni,s,shetani,gerezani,mazingira,NA,NA,NA,"c(""distractor1"", ""distractor2"", ""distractor3"")",NA,NA,NA,NA,NA,NA,NA,NA,NA,NA,NA,NA,NA,NA,NA,NA,NA,NA,NA
a81c8,task,flow.Sequence,2_12,NA,NA,completion,7883.488,328467.40000004,328465.616,328482.032,336365.52,336367.30000001,2023-10-21T10:28:00Z,336398.572,Kultur,utamaduni,s,shetani,gerezani,mazingira,NA,NA,NA,"c(""distractor1"", ""distractor2"", ""distractor3"")",NA,NA,NA,NA,NA,NA,NA,NA,NA,NA,NA,NA,NA,NA,NA,NA,NA,NA,NA
a81c8,Shallow Question,html.Page,2_13_0_0,NA,NA,form submission,8248.7280000119,336367.5,336365.52,336398.572,344647.30000001,344647.60000002,2023-10-21T10:28:08Z,344665.149,Aufstand,ugomaji,d,mazidio,msingi,kujieleza,ugomaji,NA,NA,"c(""distractor1"", ""distractor2"", ""distractor3"")",NA,NA,NA,NA,NA,NA,NA,NA,NA,NA,NA,NA,NA,NA,NA,NA,NA,NA,NA
a81c8,Save data screen,canvas.Screen,2_13_0_1,NA,NA,timeout,499.88400000002,344649.90000004,344632.065,344665.149,345132.208,345133.30000001,2023-10-21T10:28:09Z,345165.033,Aufstand,ugomaji,d,mazidio,msingi,kujieleza,NA,NA,1,"c(""distractor1"", ""distractor2"", ""distractor3"")",NA,NA,NA,NA,NA,NA,NA,NA,NA,NA,NA,NA,NA,NA,NA,NA,NA,NA,NA
a81c8,shallow,flow.Sequence,2_13_0,NA,NA,completion,8733.636,336367.40000004,336365.52,336398.572,345132.208,345133.40000004,2023-10-21T10:28:09Z,345165.033,Aufstand,ugomaji,d,mazidio,msingi,kujieleza,NA,NA,NA,"c(""distractor1"", ""distractor2"", ""distractor3"")",NA,NA,NA,NA,NA,NA,NA,NA,NA,NA,NA,NA,NA,NA,NA,NA,NA,NA,NA
a81c8,task,flow.Sequence,2_13,NA,NA,completion,8733.636,336367.40000004,336365.52,336398.572,345132.208,345133.60000002,2023-10-21T10:28:09Z,345165.033,Aufstand,ugomaji,d,mazidio,msingi,kujieleza,NA,NA,NA,"c(""distractor1"", ""distractor2"", ""distractor3"")",NA,NA,NA,NA,NA,NA,NA,NA,NA,NA,NA,NA,NA,NA,NA,NA,NA,NA,NA
a81c8,Shallow Question,html.Page,2_14_0_0,NA,NA,form submission,14503.967,345133.69999999,345132.208,345165.033,359669,359669.30000001,2023-10-21T10:28:23Z,359698.1,Gefährdung,kuhatarisha,s,uchokozi,udhaifu,makorowezo,kuhatarisha,NA,NA,"c(""distractor1"", ""distractor2"", ""distractor3"")",NA,NA,NA,NA,NA,NA,NA,NA,NA,NA,NA,NA,NA,NA,NA,NA,NA,NA,NA
a81c8,Save data screen,canvas.Screen,2_14_0_1,NA,NA,timeout,500.04600000003,359671.5,359664.956,359698.1,360164.786,360165.60000002,2023-10-21T10:28:24Z,360198.146,Gefährdung,kuhatarisha,s,uchokozi,udhaifu,makorowezo,NA,NA,1,"c(""distractor1"", ""distractor2"", ""distractor3"")",NA,NA,NA,NA,NA,NA,NA,NA,NA,NA,NA,NA,NA,NA,NA,NA,NA,NA,NA
a81c8,shallow,flow.Sequence,2_14_0,NA,NA,completion,14999.753,345133.60000002,345132.208,345165.033,360164.786,360165.80000001,2023-10-21T10:28:24Z,360198.146,Gefährdung,kuhatarisha,s,uchokozi,udhaifu,makorowezo,NA,NA,NA,"c(""distractor1"", ""distractor2"", ""distractor3"")",NA,NA,NA,NA,NA,NA,NA,NA,NA,NA,NA,NA,NA,NA,NA,NA,NA,NA,NA
a81c8,task,flow.Sequence,2_14,NA,NA,completion,14999.753,345133.60000002,345132.208,345165.033,360164.786,360166,2023-10-21T10:28:24Z,360198.146,Gefährdung,kuhatarisha,s,uchokozi,udhaifu,makorowezo,NA,NA,NA,"c(""distractor1"", ""distractor2"", ""distractor3"")",NA,NA,NA,NA,NA,NA,NA,NA,NA,NA,NA,NA,NA,NA,NA,NA,NA,NA,NA
a81c8,Shallow Question,html.Page,2_15_0_0,NA,NA,form submission,7860.9540000238,360166.10000002,360164.786,360198.146,368059.10000002,368059.19999999,2023-10-21T10:28:32Z,368081.317,Angreifer,mshambulizi,d,kitengo,tasinia,usafirishaji,mshambulizi,NA,NA,"c(""distractor1"", ""distractor2"", ""distractor3"")",NA,NA,NA,NA,NA,NA,NA,NA,NA,NA,NA,NA,NA,NA,NA,NA,NA,NA,NA
a81c8,Save data screen,canvas.Screen,2_15_0_1,NA,NA,timeout,500.08900000004,368061.80000001,368048.309,368081.317,368548.106,368549,2023-10-21T10:28:32Z,368581.406,Angreifer,mshambulizi,d,kitengo,tasinia,usafirishaji,NA,NA,1,"c(""distractor1"", ""distractor2"", ""distractor3"")",NA,NA,NA,NA,NA,NA,NA,NA,NA,NA,NA,NA,NA,NA,NA,NA,NA,NA,NA
a81c8,shallow,flow.Sequence,2_15_0,NA,NA,completion,8349.96,360166.10000002,360164.786,360198.146,368548.106,368549.10000002,2023-10-21T10:28:32Z,368581.406,Angreifer,mshambulizi,d,kitengo,tasinia,usafirishaji,NA,NA,NA,"c(""distractor1"", ""distractor2"", ""distractor3"")",NA,NA,NA,NA,NA,NA,NA,NA,NA,NA,NA,NA,NA,NA,NA,NA,NA,NA,NA
a81c8,task,flow.Sequence,2_15,NA,NA,completion,8349.96,360166.10000002,360164.786,360198.146,368548.106,368549.19999999,2023-10-21T10:28:32Z,368581.406,Angreifer,mshambulizi,d,kitengo,tasinia,usafirishaji,NA,NA,NA,"c(""distractor1"", ""distractor2"", ""distractor3"")",NA,NA,NA,NA,NA,NA,NA,NA,NA,NA,NA,NA,NA,NA,NA,NA,NA,NA,NA
a81c8,retrieval block 2 (multiple choice),flow.Loop,2,NA,NA,completion,146014.478,222502.5,222500.62,222533.628,368548.106,368549.30000001,2023-10-21T10:28:32Z,368581.406,NA,NA,NA,NA,NA,NA,NA,NA,NA,"c(""distractor1"", ""distractor2"", ""distractor3"")",NA,NA,NA,NA,NA,NA,NA,NA,NA,NA,NA,NA,NA,NA,NA,NA,NA,NA,NA
a81c8,End,canvas.Screen,3,NA,keypress(Space),response,2501.7939999881,368549.40000004,368548.106,368581.406,371083.19999999,371085.5,2023-10-21T10:28:35Z,371097.969,NA,NA,NA,NA,NA,NA,NA,NA,NA,NULL,NA,NA,NA,NA,NA,NA,NA,NA,NA,NA,NA,NA,NA,NA,NA,NA,NA,NA,NA
a81c8,root,flow.Sequence,NA,NA,NA,completion,370246.06099999,830.90000003576,303.873,837.139,371083.19999999,371086,2023-10-21T10:28:35Z,371097.969,NA,NA,NA,NA,NA,NA,NA,NA,NA,NULL,NA,NA,NA,NA,NA,NA,NA,NA,NA,NA,NA,NA,NA,NA,NA,NA,NA,NA,NA
