observation,sender,sender_type,sender_id,response,response_action,ended_on,duration,time_run,time_render,time_show,time_end,time_commit,timestamp,time_switch,german,swahili,enc,distractor1,distractor2,distractor3,response_2,x,correct,distractors,url_vp,url_sess,meta_labjs_version,meta_location,meta_user_agent,meta_platform,meta_language,meta_locale,meta_time_zone,meta_timezone_offset,meta_screen_width,meta_screen_height,meta_scroll_width,meta_scroll_height,meta_window_inner_width,meta_window_inner_height,meta_device_pixel_ratio,meta_labjs_build_flavor,meta_labjs_build_commit
7dda3,Introduction delayed retrieval,canvas.Screen,0,weiter,keypress(Space),response,24734.434,1544.4,1550.127,1583.466,26317.9,26326.6,2023-01-22T17:36:00Z,26325.076,NA,NA,NA,NA,NA,NA,NA,NA,NA,NULL,107,2,20.2.4,https://neurocog.fernuni.ch/studies/vweber/delayed/index.html?vp=107&sess=2,"Mozilla/5.0 (Windows NT 10.0; Win64; x64) AppleWebKit/537.36 (KHTML, like Gecko) Chrome/109.0.0.0 Safari/537.36",Win32,de-DE,de,Europe/Berlin,-60,1536,864,1536,674,1536,722,1.25,production,f5b4a49f956347addd546a832a3327688c2c0fef
7dda3,Deep Question,html.Page,1_0_0_0,NA,NA,form submission,23356.124,26327.1,26308.401,26325.076,49681.2,49681.6,2023-01-22T17:36:24Z,49683.838,Integrität,uadilifu,d,muungano,mtiririko,upunguaji,hakaji,NA,NA,NULL,NA,NA,NA,NA,NA,NA,NA,NA,NA,NA,NA,NA,NA,NA,NA,NA,NA,NA,NA
7dda3,Save data screen,canvas.Screen,1_0_0_1,NA,NA,timeout,499.88099999999,49682.9,49667.311,49683.838,50167.055,50168.3,2023-01-22T17:36:24Z,50183.719,Integrität,uadilifu,d,muungano,mtiririko,upunguaji,NA,NA,0,NULL,NA,NA,NA,NA,NA,NA,NA,NA,NA,NA,NA,NA,NA,NA,NA,NA,NA,NA,NA
7dda3,deep,flow.Sequence,1_0_0,NA,NA,completion,23841.979,26327,26308.401,26325.076,50167.055,50168.6,2023-01-22T17:36:24Z,50183.719,Integrität,uadilifu,d,muungano,mtiririko,upunguaji,NA,NA,NA,NULL,NA,NA,NA,NA,NA,NA,NA,NA,NA,NA,NA,NA,NA,NA,NA,NA,NA,NA,NA
7dda3,task,flow.Sequence,1_0,NA,NA,completion,23841.979,26327,26308.401,26325.076,50167.055,50168.7,2023-01-22T17:36:24Z,50183.719,Integrität,uadilifu,d,muungano,mtiririko,upunguaji,NA,NA,NA,NULL,NA,NA,NA,NA,NA,NA,NA,NA,NA,NA,NA,NA,NA,NA,NA,NA,NA,NA,NA
7dda3,Deep Question,html.Page,1_1_0_0,NA,NA,form submission,5814.481,50168.9,50167.055,50183.719,55998.2,55998.7,2023-01-22T17:36:30Z,56019.199,Stimmung,kinyongo,s,kilekile,kisambo,madhehebu,NA,NA,NA,NULL,NA,NA,NA,NA,NA,NA,NA,NA,NA,NA,NA,NA,NA,NA,NA,NA,NA,NA,NA
7dda3,Save data screen,canvas.Screen,1_1_0_1,NA,NA,timeout,495.677,56000.1,55981.951,56019.199,56498.225,56498.8,2023-01-22T17:36:30Z,56514.876,Stimmung,kinyongo,s,kilekile,kisambo,madhehebu,NA,NA,0,NULL,NA,NA,NA,NA,NA,NA,NA,NA,NA,NA,NA,NA,NA,NA,NA,NA,NA,NA,NA
7dda3,deep,flow.Sequence,1_1_0,NA,NA,completion,6314.506,50168.9,50167.055,50183.719,56498.225,56499.4,2023-01-22T17:36:30Z,56514.876,Stimmung,kinyongo,s,kilekile,kisambo,madhehebu,NA,NA,NA,NULL,NA,NA,NA,NA,NA,NA,NA,NA,NA,NA,NA,NA,NA,NA,NA,NA,NA,NA,NA
7dda3,task,flow.Sequence,1_1,NA,NA,completion,6314.506,50168.9,50167.055,50183.719,56498.225,56499.7,2023-01-22T17:36:30Z,56514.876,Stimmung,kinyongo,s,kilekile,kisambo,madhehebu,NA,NA,NA,NULL,NA,NA,NA,NA,NA,NA,NA,NA,NA,NA,NA,NA,NA,NA,NA,NA,NA,NA,NA
7dda3,Deep Question,html.Page,1_2_0_0,NA,NA,form submission,23252.724,56508.4,56498.225,56514.876,79767.6,79767.9,2023-01-22T17:36:54Z,79773.734,Atmosphäre,angahewa,s,kuteseka,usahihi,kutoamini,kiwilili,NA,NA,NULL,NA,NA,NA,NA,NA,NA,NA,NA,NA,NA,NA,NA,NA,NA,NA,NA,NA,NA,NA
7dda3,Save data screen,canvas.Screen,1_2_0_1,NA,NA,timeout,499.774,79770.3,79756.986,79773.734,80256.833,80257.6,2023-01-22T17:36:54Z,80273.508,Atmosphäre,angahewa,s,kuteseka,usahihi,kutoamini,NA,NA,0,NULL,NA,NA,NA,NA,NA,NA,NA,NA,NA,NA,NA,NA,NA,NA,NA,NA,NA,NA,NA
7dda3,deep,flow.Sequence,1_2_0,NA,NA,completion,23741.957,56499.8,56498.225,56514.876,80256.833,80258,2023-01-22T17:36:54Z,80273.508,Atmosphäre,angahewa,s,kuteseka,usahihi,kutoamini,NA,NA,NA,NULL,NA,NA,NA,NA,NA,NA,NA,NA,NA,NA,NA,NA,NA,NA,NA,NA,NA,NA,NA
7dda3,task,flow.Sequence,1_2,NA,NA,completion,23741.957,56499.7,56498.225,56514.876,80256.833,80258.2,2023-01-22T17:36:54Z,80273.508,Atmosphäre,angahewa,s,kuteseka,usahihi,kutoamini,NA,NA,NA,NULL,NA,NA,NA,NA,NA,NA,NA,NA,NA,NA,NA,NA,NA,NA,NA,NA,NA,NA,NA
7dda3,Deep Question,html.Page,1_3_0_0,NA,NA,form submission,40049.192,80258.4,80256.833,80273.508,120322.7,120323,2023-01-22T17:37:34Z,120343.369,Erneuerung,ukarabati,d,ushawishi,ukalifu,unyonyaji,ahsawti,NA,NA,NULL,NA,NA,NA,NA,NA,NA,NA,NA,NA,NA,NA,NA,NA,NA,NA,NA,NA,NA,NA
7dda3,Save data screen,canvas.Screen,1_3_0_1,NA,NA,timeout,499.73,120325,120326.697,120343.369,120826.472,120827,2023-01-22T17:37:35Z,120843.099,Erneuerung,ukarabati,d,ushawishi,ukalifu,unyonyaji,NA,NA,0,NULL,NA,NA,NA,NA,NA,NA,NA,NA,NA,NA,NA,NA,NA,NA,NA,NA,NA,NA,NA
7dda3,deep,flow.Sequence,1_3_0,NA,NA,completion,40552.964,80258.3,80256.833,80273.508,120826.472,120827.4,2023-01-22T17:37:35Z,120843.099,Erneuerung,ukarabati,d,ushawishi,ukalifu,unyonyaji,NA,NA,NA,NULL,NA,NA,NA,NA,NA,NA,NA,NA,NA,NA,NA,NA,NA,NA,NA,NA,NA,NA,NA
7dda3,task,flow.Sequence,1_3,NA,NA,completion,40552.964,80258.3,80256.833,80273.508,120826.472,120827.6,2023-01-22T17:37:35Z,120843.099,Erneuerung,ukarabati,d,ushawishi,ukalifu,unyonyaji,NA,NA,NA,NULL,NA,NA,NA,NA,NA,NA,NA,NA,NA,NA,NA,NA,NA,NA,NA,NA,NA,NA,NA
7dda3,Deep Question,html.Page,1_4_0_0,NA,NA,form submission,18633.301,120827.8,120826.472,120843.099,139476.4,139476.8,2023-01-22T17:37:53Z,139486.829,Begegnung,kukutana,s,mmasihiya,mpiganaji,husiano,NA,NA,NA,NULL,NA,NA,NA,NA,NA,NA,NA,NA,NA,NA,NA,NA,NA,NA,NA,NA,NA,NA,NA
7dda3,Save data screen,canvas.Screen,1_4_0_1,NA,NA,timeout,499.78200000001,139479.9,139470.121,139486.829,139969.962,139970.5,2023-01-22T17:37:54Z,139986.611,Begegnung,kukutana,s,mmasihiya,mpiganaji,husiano,NA,NA,0,NULL,NA,NA,NA,NA,NA,NA,NA,NA,NA,NA,NA,NA,NA,NA,NA,NA,NA,NA,NA
7dda3,deep,flow.Sequence,1_4_0,NA,NA,completion,19126.863,120827.8,120826.472,120843.099,139969.962,139970.9,2023-01-22T17:37:54Z,139986.611,Begegnung,kukutana,s,mmasihiya,mpiganaji,husiano,NA,NA,NA,NULL,NA,NA,NA,NA,NA,NA,NA,NA,NA,NA,NA,NA,NA,NA,NA,NA,NA,NA,NA
7dda3,task,flow.Sequence,1_4,NA,NA,completion,19126.863,120827.8,120826.472,120843.099,139969.962,139971,2023-01-22T17:37:54Z,139986.611,Begegnung,kukutana,s,mmasihiya,mpiganaji,husiano,NA,NA,NA,NULL,NA,NA,NA,NA,NA,NA,NA,NA,NA,NA,NA,NA,NA,NA,NA,NA,NA,NA,NA
7dda3,Deep Question,html.Page,1_5_0_0,NA,NA,form submission,28954.689,139971.3,139969.962,139986.611,168941.3,168941.5,2023-01-22T17:38:23Z,168943.474,Respekt,heshima,d,changamnao,upinzani,ufanisi,NA,NA,NA,NULL,NA,NA,NA,NA,NA,NA,NA,NA,NA,NA,NA,NA,NA,NA,NA,NA,NA,NA,NA
7dda3,Save data screen,canvas.Screen,1_5_0_1,NA,NA,timeout,500.01800000001,168944.9,168926.827,168943.474,169426.776,169427.5,2023-01-22T17:38:23Z,169443.492,Respekt,heshima,d,changamnao,upinzani,ufanisi,NA,NA,0,NULL,NA,NA,NA,NA,NA,NA,NA,NA,NA,NA,NA,NA,NA,NA,NA,NA,NA,NA,NA
7dda3,deep,flow.Sequence,1_5_0,NA,NA,completion,29440.165,139971.2,139969.962,139986.611,169426.776,169428,2023-01-22T17:38:23Z,169443.492,Respekt,heshima,d,changamnao,upinzani,ufanisi,NA,NA,NA,NULL,NA,NA,NA,NA,NA,NA,NA,NA,NA,NA,NA,NA,NA,NA,NA,NA,NA,NA,NA
7dda3,task,flow.Sequence,1_5,NA,NA,completion,29440.165,139971.2,139969.962,139986.611,169426.776,169428.2,2023-01-22T17:38:23Z,169443.492,Respekt,heshima,d,changamnao,upinzani,ufanisi,NA,NA,NA,NULL,NA,NA,NA,NA,NA,NA,NA,NA,NA,NA,NA,NA,NA,NA,NA,NA,NA,NA,NA
7dda3,Deep Question,html.Page,1_6_0_0,NA,NA,form submission,10944.508,169428.4,169426.776,169443.492,180388,180388.3,2023-01-22T17:38:34Z,180389.614,Fleisch,mshakiki,d,kizunguzungu,mshikamano,angusho,bomaji,NA,NA,NULL,NA,NA,NA,NA,NA,NA,NA,NA,NA,NA,NA,NA,NA,NA,NA,NA,NA,NA,NA
7dda3,Save data screen,canvas.Screen,1_6_0_1,NA,NA,timeout,499.856,180391.6,180372.952,180389.614,180872.838,180873.4,2023-01-22T17:38:35Z,180889.47,Fleisch,mshakiki,d,kizunguzungu,mshikamano,angusho,NA,NA,0,NULL,NA,NA,NA,NA,NA,NA,NA,NA,NA,NA,NA,NA,NA,NA,NA,NA,NA,NA,NA
7dda3,deep,flow.Sequence,1_6_0,NA,NA,completion,11429.346,169428.4,169426.776,169443.492,180872.838,180873.8,2023-01-22T17:38:35Z,180889.47,Fleisch,mshakiki,d,kizunguzungu,mshikamano,angusho,NA,NA,NA,NULL,NA,NA,NA,NA,NA,NA,NA,NA,NA,NA,NA,NA,NA,NA,NA,NA,NA,NA,NA
7dda3,task,flow.Sequence,1_6,NA,NA,completion,11429.346,169428.3,169426.776,169443.492,180872.838,180874.1,2023-01-22T17:38:35Z,180889.47,Fleisch,mshakiki,d,kizunguzungu,mshikamano,angusho,NA,NA,NA,NULL,NA,NA,NA,NA,NA,NA,NA,NA,NA,NA,NA,NA,NA,NA,NA,NA,NA,NA,NA
7dda3,Deep Question,html.Page,1_7_0_0,NA,NA,form submission,25676.83,180874.2,180872.838,180889.47,206566.3,206566.6,2023-01-22T17:39:01Z,206580.91,Betrüger,mdanganyifu,s,mwanamuziki,wastani,mahakama,NA,NA,NA,NULL,NA,NA,NA,NA,NA,NA,NA,NA,NA,NA,NA,NA,NA,NA,NA,NA,NA,NA,NA
7dda3,Save data screen,canvas.Screen,1_7_0_1,NA,NA,timeout,499.851,206568.8,206564.291,206580.91,207064.083,207064.6,2023-01-22T17:39:01Z,207080.761,Betrüger,mdanganyifu,s,mwanamuziki,wastani,mahakama,NA,NA,0,NULL,NA,NA,NA,NA,NA,NA,NA,NA,NA,NA,NA,NA,NA,NA,NA,NA,NA,NA,NA
7dda3,deep,flow.Sequence,1_7_0,NA,NA,completion,26174.613,180874.2,180872.838,180889.47,207064.083,207065,2023-01-22T17:39:01Z,207080.761,Betrüger,mdanganyifu,s,mwanamuziki,wastani,mahakama,NA,NA,NA,NULL,NA,NA,NA,NA,NA,NA,NA,NA,NA,NA,NA,NA,NA,NA,NA,NA,NA,NA,NA
7dda3,task,flow.Sequence,1_7,NA,NA,completion,26174.613,180874.2,180872.838,180889.47,207064.083,207065.3,2023-01-22T17:39:01Z,207080.761,Betrüger,mdanganyifu,s,mwanamuziki,wastani,mahakama,NA,NA,NA,NULL,NA,NA,NA,NA,NA,NA,NA,NA,NA,NA,NA,NA,NA,NA,NA,NA,NA,NA,NA
7dda3,Deep Question,html.Page,1_8_0_0,NA,NA,form submission,5899.839,207065.5,207064.083,207080.761,212980.6,212981,2023-01-22T17:39:07Z,212995.313,Entwicklung,maendeleo,s,uangavu,mshindwa,badiliko,NA,NA,NA,NULL,NA,NA,NA,NA,NA,NA,NA,NA,NA,NA,NA,NA,NA,NA,NA,NA,NA,NA,NA
7dda3,Save data screen,canvas.Screen,1_8_0_1,NA,NA,timeout,499.84900000002,212982.8,212978.787,212995.313,213478.571,213479.4,2023-01-22T17:39:07Z,213495.162,Entwicklung,maendeleo,s,uangavu,mshindwa,badiliko,NA,NA,0,NULL,NA,NA,NA,NA,NA,NA,NA,NA,NA,NA,NA,NA,NA,NA,NA,NA,NA,NA,NA
7dda3,deep,flow.Sequence,1_8_0,NA,NA,completion,6397.81,207065.4,207064.083,207080.761,213478.571,213479.7,2023-01-22T17:39:07Z,213495.162,Entwicklung,maendeleo,s,uangavu,mshindwa,badiliko,NA,NA,NA,NULL,NA,NA,NA,NA,NA,NA,NA,NA,NA,NA,NA,NA,NA,NA,NA,NA,NA,NA,NA
7dda3,task,flow.Sequence,1_8,NA,NA,completion,6397.81,207065.4,207064.083,207080.761,213478.571,213479.9,2023-01-22T17:39:07Z,213495.162,Entwicklung,maendeleo,s,uangavu,mshindwa,badiliko,NA,NA,NA,NULL,NA,NA,NA,NA,NA,NA,NA,NA,NA,NA,NA,NA,NA,NA,NA,NA,NA,NA,NA
7dda3,Deep Question,html.Page,1_9_0_0,NA,NA,form submission,3388.838,213480,213478.571,213495.162,216884,216884.2,2023-01-22T17:39:11Z,216894.03,Genehmigung,idhini,s,mwanamke,itikadi,fedheha,NA,NA,NA,NULL,NA,NA,NA,NA,NA,NA,NA,NA,NA,NA,NA,NA,NA,NA,NA,NA,NA,NA,NA
7dda3,Save data screen,canvas.Screen,1_9_0_1,NA,NA,timeout,499.74299999999,216886.2,216877.477,216894.03,217377.237,217377.8,2023-01-22T17:39:11Z,217393.773,Genehmigung,idhini,s,mwanamke,itikadi,fedheha,NA,NA,0,NULL,NA,NA,NA,NA,NA,NA,NA,NA,NA,NA,NA,NA,NA,NA,NA,NA,NA,NA,NA
7dda3,deep,flow.Sequence,1_9_0,NA,NA,completion,3882.075,213480,213478.571,213495.162,217377.237,217378.3,2023-01-22T17:39:11Z,217393.773,Genehmigung,idhini,s,mwanamke,itikadi,fedheha,NA,NA,NA,NULL,NA,NA,NA,NA,NA,NA,NA,NA,NA,NA,NA,NA,NA,NA,NA,NA,NA,NA,NA
7dda3,task,flow.Sequence,1_9,NA,NA,completion,3882.075,213480,213478.571,213495.162,217377.237,217378.5,2023-01-22T17:39:11Z,217393.773,Genehmigung,idhini,s,mwanamke,itikadi,fedheha,NA,NA,NA,NULL,NA,NA,NA,NA,NA,NA,NA,NA,NA,NA,NA,NA,NA,NA,NA,NA,NA,NA,NA
7dda3,Deep Question,html.Page,1_10_0_0,NA,NA,form submission,5449.527,217378.7,217377.237,217393.773,222843.3,222843.4,2023-01-22T17:39:17Z,222858.575,Niveau,kiwango,d,usimamizi,mwamali,mshairi,NA,NA,NA,NULL,NA,NA,NA,NA,NA,NA,NA,NA,NA,NA,NA,NA,NA,NA,NA,NA,NA,NA,NA
7dda3,Save data screen,canvas.Screen,1_10_0_1,NA,NA,timeout,499.99399999998,222845.7,222842.141,222858.575,223341.955,223342.5,2023-01-22T17:39:17Z,223358.569,Niveau,kiwango,d,usimamizi,mwamali,mshairi,NA,NA,0,NULL,NA,NA,NA,NA,NA,NA,NA,NA,NA,NA,NA,NA,NA,NA,NA,NA,NA,NA,NA
7dda3,deep,flow.Sequence,1_10_0,NA,NA,completion,5948.182,217378.7,217377.237,217393.773,223341.955,223342.8,2023-01-22T17:39:17Z,223358.569,Niveau,kiwango,d,usimamizi,mwamali,mshairi,NA,NA,NA,NULL,NA,NA,NA,NA,NA,NA,NA,NA,NA,NA,NA,NA,NA,NA,NA,NA,NA,NA,NA
7dda3,task,flow.Sequence,1_10,NA,NA,completion,5948.182,217378.7,217377.237,217393.773,223341.955,223343.1,2023-01-22T17:39:17Z,223358.569,Niveau,kiwango,d,usimamizi,mwamali,mshairi,NA,NA,NA,NULL,NA,NA,NA,NA,NA,NA,NA,NA,NA,NA,NA,NA,NA,NA,NA,NA,NA,NA,NA
7dda3,Deep Question,html.Page,1_11_0_0,NA,NA,form submission,10881.631,223343.3,223341.955,223358.569,234240.2,234240.5,2023-01-22T17:39:28Z,234254.884,Flexibilität,kubadilika,s,enjini,usikilivu,hesabu,NA,NA,NA,NULL,NA,NA,NA,NA,NA,NA,NA,NA,NA,NA,NA,NA,NA,NA,NA,NA,NA,NA,NA
7dda3,Save data screen,canvas.Screen,1_11_0_1,NA,NA,timeout,499.845,234242.9,234238.274,234254.884,234738.05,234738.6,2023-01-22T17:39:29Z,234754.729,Flexibilität,kubadilika,s,enjini,usikilivu,hesabu,NA,NA,0,NULL,NA,NA,NA,NA,NA,NA,NA,NA,NA,NA,NA,NA,NA,NA,NA,NA,NA,NA,NA
7dda3,deep,flow.Sequence,1_11_0,NA,NA,completion,11379.481,223343.3,223341.955,223358.569,234738.05,234738.9,2023-01-22T17:39:29Z,234754.729,Flexibilität,kubadilika,s,enjini,usikilivu,hesabu,NA,NA,NA,NULL,NA,NA,NA,NA,NA,NA,NA,NA,NA,NA,NA,NA,NA,NA,NA,NA,NA,NA,NA
7dda3,task,flow.Sequence,1_11,NA,NA,completion,11379.481,223343.2,223341.955,223358.569,234738.05,234739.3,2023-01-22T17:39:29Z,234754.729,Flexibilität,kubadilika,s,enjini,usikilivu,hesabu,NA,NA,NA,NULL,NA,NA,NA,NA,NA,NA,NA,NA,NA,NA,NA,NA,NA,NA,NA,NA,NA,NA,NA
7dda3,Deep Question,html.Page,1_12_0_0,NA,NA,form submission,3651.871,234739.4,234738.05,234754.729,238406.6,238406.8,2023-01-22T17:39:32Z,238420.148,Vorwurf,mashtaka,s,msukumo,mtangulizi,uenyekiti,NA,NA,NA,NULL,NA,NA,NA,NA,NA,NA,NA,NA,NA,NA,NA,NA,NA,NA,NA,NA,NA,NA,NA
7dda3,Save data screen,canvas.Screen,1_12_0_1,NA,NA,timeout,499.785,238408.3,238403.528,238420.148,238903.294,238903.9,2023-01-22T17:39:33Z,238919.933,Vorwurf,mashtaka,s,msukumo,mtangulizi,uenyekiti,NA,NA,0,NULL,NA,NA,NA,NA,NA,NA,NA,NA,NA,NA,NA,NA,NA,NA,NA,NA,NA,NA,NA
7dda3,deep,flow.Sequence,1_12_0,NA,NA,completion,4148.565,234739.4,234738.05,234754.729,238903.294,238904.2,2023-01-22T17:39:33Z,238919.933,Vorwurf,mashtaka,s,msukumo,mtangulizi,uenyekiti,NA,NA,NA,NULL,NA,NA,NA,NA,NA,NA,NA,NA,NA,NA,NA,NA,NA,NA,NA,NA,NA,NA,NA
7dda3,task,flow.Sequence,1_12,NA,NA,completion,4148.565,234739.4,234738.05,234754.729,238903.294,238904.6,2023-01-22T17:39:33Z,238919.933,Vorwurf,mashtaka,s,msukumo,mtangulizi,uenyekiti,NA,NA,NA,NULL,NA,NA,NA,NA,NA,NA,NA,NA,NA,NA,NA,NA,NA,NA,NA,NA,NA,NA,NA
7dda3,Deep Question,html.Page,1_13_0_0,NA,NA,form submission,2700.667,238904.7,238903.294,238919.933,241620.6,241620.8,2023-01-22T17:39:36Z,241635.726,Orientierung,urekebisho,d,uelekeo,marekebisho,utunzaji,NA,NA,NA,NULL,NA,NA,NA,NA,NA,NA,NA,NA,NA,NA,NA,NA,NA,NA,NA,NA,NA,NA,NA
7dda3,Save data screen,canvas.Screen,1_13_0_1,NA,NA,timeout,499.856,241621.8,241619.105,241635.726,242118.89,242119.5,2023-01-22T17:39:36Z,242135.582,Orientierung,urekebisho,d,uelekeo,marekebisho,utunzaji,NA,NA,0,NULL,NA,NA,NA,NA,NA,NA,NA,NA,NA,NA,NA,NA,NA,NA,NA,NA,NA,NA,NA
7dda3,deep,flow.Sequence,1_13_0,NA,NA,completion,3198.957,238904.7,238903.294,238919.933,242118.89,242120,2023-01-22T17:39:36Z,242135.582,Orientierung,urekebisho,d,uelekeo,marekebisho,utunzaji,NA,NA,NA,NULL,NA,NA,NA,NA,NA,NA,NA,NA,NA,NA,NA,NA,NA,NA,NA,NA,NA,NA,NA
7dda3,task,flow.Sequence,1_13,NA,NA,completion,3198.957,238904.7,238903.294,238919.933,242118.89,242120.3,2023-01-22T17:39:36Z,242135.582,Orientierung,urekebisho,d,uelekeo,marekebisho,utunzaji,NA,NA,NA,NULL,NA,NA,NA,NA,NA,NA,NA,NA,NA,NA,NA,NA,NA,NA,NA,NA,NA,NA,NA
7dda3,Deep Question,html.Page,1_14_0_0,NA,NA,form submission,1678.318,242120.4,242118.89,242135.582,243813.9,243814.1,2023-01-22T17:39:38Z,243818.129,Wechsel,ugeuzaji,d,utambulisho,kujenga,wasiwasi,NA,NA,NA,NULL,NA,NA,NA,NA,NA,NA,NA,NA,NA,NA,NA,NA,NA,NA,NA,NA,NA,NA,NA
7dda3,Save data screen,canvas.Screen,1_14_0_1,NA,NA,timeout,500.13500000001,243814.6,243801.701,243818.129,244301.51,244302.2,2023-01-22T17:39:38Z,244318.264,Wechsel,ugeuzaji,d,utambulisho,kujenga,wasiwasi,NA,NA,0,NULL,NA,NA,NA,NA,NA,NA,NA,NA,NA,NA,NA,NA,NA,NA,NA,NA,NA,NA,NA
7dda3,deep,flow.Sequence,1_14_0,NA,NA,completion,2165.928,242120.4,242118.89,242135.582,244301.51,244302.7,2023-01-22T17:39:38Z,244318.264,Wechsel,ugeuzaji,d,utambulisho,kujenga,wasiwasi,NA,NA,NA,NULL,NA,NA,NA,NA,NA,NA,NA,NA,NA,NA,NA,NA,NA,NA,NA,NA,NA,NA,NA
7dda3,task,flow.Sequence,1_14,NA,NA,completion,2165.928,242120.4,242118.89,242135.582,244301.51,244302.9,2023-01-22T17:39:38Z,244318.264,Wechsel,ugeuzaji,d,utambulisho,kujenga,wasiwasi,NA,NA,NA,NULL,NA,NA,NA,NA,NA,NA,NA,NA,NA,NA,NA,NA,NA,NA,NA,NA,NA,NA,NA
7dda3,Deep Question,html.Page,1_15_0_0,NA,NA,form submission,5387.036,244303.1,244301.51,244318.264,249705.3,249705.6,2023-01-22T17:39:44Z,249716.218,Papier,karatasi,d,uchambuzi,usalama,kukataliwa,NA,NA,NA,NULL,NA,NA,NA,NA,NA,NA,NA,NA,NA,NA,NA,NA,NA,NA,NA,NA,NA,NA,NA
7dda3,Save data screen,canvas.Screen,1_15_0_1,NA,NA,timeout,499.82500000001,249707.5,249699.712,249716.218,250199.478,250200.2,2023-01-22T17:39:44Z,250216.043,Papier,karatasi,d,uchambuzi,usalama,kukataliwa,NA,NA,0,NULL,NA,NA,NA,NA,NA,NA,NA,NA,NA,NA,NA,NA,NA,NA,NA,NA,NA,NA,NA
7dda3,deep,flow.Sequence,1_15_0,NA,NA,completion,5881.214,244303,244301.51,244318.264,250199.478,250200.6,2023-01-22T17:39:44Z,250216.043,Papier,karatasi,d,uchambuzi,usalama,kukataliwa,NA,NA,NA,NULL,NA,NA,NA,NA,NA,NA,NA,NA,NA,NA,NA,NA,NA,NA,NA,NA,NA,NA,NA
7dda3,task,flow.Sequence,1_15,NA,NA,completion,5881.214,244303,244301.51,244318.264,250199.478,250200.8,2023-01-22T17:39:44Z,250216.043,Papier,karatasi,d,uchambuzi,usalama,kukataliwa,NA,NA,NA,NULL,NA,NA,NA,NA,NA,NA,NA,NA,NA,NA,NA,NA,NA,NA,NA,NA,NA,NA,NA
7dda3,retrieval block 1 (cued recall),flow.Loop,1,NA,NA,completion,223874.402,26327,26308.401,26325.076,250199.478,250200.9,2023-01-22T17:39:44Z,250216.043,NA,NA,NA,NA,NA,NA,NA,NA,NA,NULL,NA,NA,NA,NA,NA,NA,NA,NA,NA,NA,NA,NA,NA,NA,NA,NA,NA,NA,NA
7dda3,Shallow Question,html.Page,2_0_0_0,NA,NA,form submission,9822.857,250201.1,250199.478,250216.043,260038.9,260039.1,2023-01-22T17:39:54Z,260046.016,Erneuerung,ukarabati,d,ushawishi,ukalifu,unyonyaji,ukalifu,NA,NA,"c(""distractor1"", ""distractor2"", ""distractor3"")",NA,NA,NA,NA,NA,NA,NA,NA,NA,NA,NA,NA,NA,NA,NA,NA,NA,NA,NA
7dda3,Save data screen,canvas.Screen,2_0_0_1,NA,NA,timeout,499.96100000001,260040.8,260029.584,260046.016,260529.322,260530.1,2023-01-22T17:39:54Z,260545.977,Erneuerung,ukarabati,d,ushawishi,ukalifu,unyonyaji,NA,NA,0,"c(""distractor1"", ""distractor2"", ""distractor3"")",NA,NA,NA,NA,NA,NA,NA,NA,NA,NA,NA,NA,NA,NA,NA,NA,NA,NA,NA
7dda3,shallow,flow.Sequence,2_0_0,NA,NA,completion,10313.279,250201,250199.478,250216.043,260529.322,260530.5,2023-01-22T17:39:54Z,260545.977,Erneuerung,ukarabati,d,ushawishi,ukalifu,unyonyaji,NA,NA,NA,"c(""distractor1"", ""distractor2"", ""distractor3"")",NA,NA,NA,NA,NA,NA,NA,NA,NA,NA,NA,NA,NA,NA,NA,NA,NA,NA,NA
7dda3,task,flow.Sequence,2_0,NA,NA,completion,10313.279,250201,250199.478,250216.043,260529.322,260530.7,2023-01-22T17:39:54Z,260545.977,Erneuerung,ukarabati,d,ushawishi,ukalifu,unyonyaji,NA,NA,NA,"c(""distractor1"", ""distractor2"", ""distractor3"")",NA,NA,NA,NA,NA,NA,NA,NA,NA,NA,NA,NA,NA,NA,NA,NA,NA,NA,NA
7dda3,Shallow Question,html.Page,2_1_0_0,NA,NA,form submission,11237.523,260530.8,260529.322,260545.977,271783.5,271783.8,2023-01-22T17:40:06Z,271792.123,Papier,karatasi,d,uchambuzi,usalama,kukataliwa,karatasi,NA,NA,"c(""distractor1"", ""distractor2"", ""distractor3"")",NA,NA,NA,NA,NA,NA,NA,NA,NA,NA,NA,NA,NA,NA,NA,NA,NA,NA,NA
7dda3,Save data screen,canvas.Screen,2_1_0_1,NA,NA,timeout,499.86799999996,271785.7,271775.551,271792.123,272275.361,272276,2023-01-22T17:40:06Z,272291.991,Papier,karatasi,d,uchambuzi,usalama,kukataliwa,NA,NA,1,"c(""distractor1"", ""distractor2"", ""distractor3"")",NA,NA,NA,NA,NA,NA,NA,NA,NA,NA,NA,NA,NA,NA,NA,NA,NA,NA,NA
7dda3,shallow,flow.Sequence,2_1_0,NA,NA,completion,11729.384,260530.8,260529.322,260545.977,272275.361,272276.5,2023-01-22T17:40:06Z,272291.991,Papier,karatasi,d,uchambuzi,usalama,kukataliwa,NA,NA,NA,"c(""distractor1"", ""distractor2"", ""distractor3"")",NA,NA,NA,NA,NA,NA,NA,NA,NA,NA,NA,NA,NA,NA,NA,NA,NA,NA,NA
7dda3,task,flow.Sequence,2_1,NA,NA,completion,11729.384,260530.8,260529.322,260545.977,272275.361,272276.7,2023-01-22T17:40:06Z,272291.991,Papier,karatasi,d,uchambuzi,usalama,kukataliwa,NA,NA,NA,"c(""distractor1"", ""distractor2"", ""distractor3"")",NA,NA,NA,NA,NA,NA,NA,NA,NA,NA,NA,NA,NA,NA,NA,NA,NA,NA,NA
7dda3,Shallow Question,html.Page,2_2_0_0,NA,NA,form submission,5896.6090000001,272276.8,272275.361,272291.991,278188.6,278188.9,2023-01-22T17:40:12Z,278189.87,Atmosphäre,angahewa,s,kuteseka,usahihi,kutoamini,angahewa,NA,NA,"c(""distractor1"", ""distractor2"", ""distractor3"")",NA,NA,NA,NA,NA,NA,NA,NA,NA,NA,NA,NA,NA,NA,NA,NA,NA,NA,NA
7dda3,Save data screen,canvas.Screen,2_2_0_1,NA,NA,timeout,499.859,278191.1,278173.168,278189.87,278673.195,278673.7,2023-01-22T17:40:13Z,278689.729,Atmosphäre,angahewa,s,kuteseka,usahihi,kutoamini,NA,NA,1,"c(""distractor1"", ""distractor2"", ""distractor3"")",NA,NA,NA,NA,NA,NA,NA,NA,NA,NA,NA,NA,NA,NA,NA,NA,NA,NA,NA
7dda3,shallow,flow.Sequence,2_2_0,NA,NA,completion,6381.204,272276.8,272275.361,272291.991,278673.195,278674.1,2023-01-22T17:40:13Z,278689.729,Atmosphäre,angahewa,s,kuteseka,usahihi,kutoamini,NA,NA,NA,"c(""distractor1"", ""distractor2"", ""distractor3"")",NA,NA,NA,NA,NA,NA,NA,NA,NA,NA,NA,NA,NA,NA,NA,NA,NA,NA,NA
7dda3,task,flow.Sequence,2_2,NA,NA,completion,6381.204,272276.8,272275.361,272291.991,278673.195,278674.5,2023-01-22T17:40:13Z,278689.729,Atmosphäre,angahewa,s,kuteseka,usahihi,kutoamini,NA,NA,NA,"c(""distractor1"", ""distractor2"", ""distractor3"")",NA,NA,NA,NA,NA,NA,NA,NA,NA,NA,NA,NA,NA,NA,NA,NA,NA,NA,NA
7dda3,Shallow Question,html.Page,2_3_0_0,NA,NA,form submission,8023.871,278674.6,278673.195,278689.729,286713.6,286713.8,2023-01-22T17:40:21Z,286720.346,Entwicklung,maendeleo,s,uangavu,mshindwa,badiliko,maendeleo,NA,NA,"c(""distractor1"", ""distractor2"", ""distractor3"")",NA,NA,NA,NA,NA,NA,NA,NA,NA,NA,NA,NA,NA,NA,NA,NA,NA,NA,NA
7dda3,Save data screen,canvas.Screen,2_3_0_1,NA,NA,timeout,499.94500000001,286715.5,286703.765,286720.346,287203.637,287204.3,2023-01-22T17:40:21Z,287220.291,Entwicklung,maendeleo,s,uangavu,mshindwa,badiliko,NA,NA,1,"c(""distractor1"", ""distractor2"", ""distractor3"")",NA,NA,NA,NA,NA,NA,NA,NA,NA,NA,NA,NA,NA,NA,NA,NA,NA,NA,NA
7dda3,shallow,flow.Sequence,2_3_0,NA,NA,completion,8513.908,278674.6,278673.195,278689.729,287203.637,287204.7,2023-01-22T17:40:21Z,287220.291,Entwicklung,maendeleo,s,uangavu,mshindwa,badiliko,NA,NA,NA,"c(""distractor1"", ""distractor2"", ""distractor3"")",NA,NA,NA,NA,NA,NA,NA,NA,NA,NA,NA,NA,NA,NA,NA,NA,NA,NA,NA
7dda3,task,flow.Sequence,2_3,NA,NA,completion,8513.908,278674.6,278673.195,278689.729,287203.637,287205.1,2023-01-22T17:40:21Z,287220.291,Entwicklung,maendeleo,s,uangavu,mshindwa,badiliko,NA,NA,NA,"c(""distractor1"", ""distractor2"", ""distractor3"")",NA,NA,NA,NA,NA,NA,NA,NA,NA,NA,NA,NA,NA,NA,NA,NA,NA,NA,NA
7dda3,Shallow Question,html.Page,2_4_0_0,NA,NA,form submission,8553.809,287205.3,287203.637,287220.291,295774.1,295774.3,2023-01-22T17:40:30Z,295784.18,Respekt,heshima,d,changamnao,upinzani,ufanisi,heshima,NA,NA,"c(""distractor1"", ""distractor2"", ""distractor3"")",NA,NA,NA,NA,NA,NA,NA,NA,NA,NA,NA,NA,NA,NA,NA,NA,NA,NA,NA
7dda3,Save data screen,canvas.Screen,2_4_0_1,NA,NA,timeout,499.55100000004,295776.2,295767.27,295784.18,296267.101,296267.7,2023-01-22T17:40:30Z,296283.731,Respekt,heshima,d,changamnao,upinzani,ufanisi,NA,NA,1,"c(""distractor1"", ""distractor2"", ""distractor3"")",NA,NA,NA,NA,NA,NA,NA,NA,NA,NA,NA,NA,NA,NA,NA,NA,NA,NA,NA
7dda3,shallow,flow.Sequence,2_4_0,NA,NA,completion,9046.81,287205.2,287203.637,287220.291,296267.101,296268.1,2023-01-22T17:40:30Z,296283.731,Respekt,heshima,d,changamnao,upinzani,ufanisi,NA,NA,NA,"c(""distractor1"", ""distractor2"", ""distractor3"")",NA,NA,NA,NA,NA,NA,NA,NA,NA,NA,NA,NA,NA,NA,NA,NA,NA,NA,NA
7dda3,task,flow.Sequence,2_4,NA,NA,completion,9046.81,287205.2,287203.637,287220.291,296267.101,296268.4,2023-01-22T17:40:30Z,296283.731,Respekt,heshima,d,changamnao,upinzani,ufanisi,NA,NA,NA,"c(""distractor1"", ""distractor2"", ""distractor3"")",NA,NA,NA,NA,NA,NA,NA,NA,NA,NA,NA,NA,NA,NA,NA,NA,NA,NA,NA
7dda3,Shallow Question,html.Page,2_5_0_0,NA,NA,form submission,12802.669,296268.5,296267.101,296283.731,309086.4,309086.8,2023-01-22T17:40:43Z,309096.286,Orientierung,urekebisho,d,uelekeo,marekebisho,utunzaji,marekebisho,NA,NA,"c(""distractor1"", ""distractor2"", ""distractor3"")",NA,NA,NA,NA,NA,NA,NA,NA,NA,NA,NA,NA,NA,NA,NA,NA,NA,NA,NA
7dda3,Save data screen,canvas.Screen,2_5_0_1,NA,NA,timeout,499.74799999996,309088.8,309079.497,309096.286,309579.437,309580,2023-01-22T17:40:44Z,309596.034,Orientierung,urekebisho,d,uelekeo,marekebisho,utunzaji,NA,NA,0,"c(""distractor1"", ""distractor2"", ""distractor3"")",NA,NA,NA,NA,NA,NA,NA,NA,NA,NA,NA,NA,NA,NA,NA,NA,NA,NA,NA
7dda3,shallow,flow.Sequence,2_5_0,NA,NA,completion,13295.706,296268.5,296267.101,296283.731,309579.437,309580.4,2023-01-22T17:40:44Z,309596.034,Orientierung,urekebisho,d,uelekeo,marekebisho,utunzaji,NA,NA,NA,"c(""distractor1"", ""distractor2"", ""distractor3"")",NA,NA,NA,NA,NA,NA,NA,NA,NA,NA,NA,NA,NA,NA,NA,NA,NA,NA,NA
7dda3,task,flow.Sequence,2_5,NA,NA,completion,13295.706,296268.5,296267.101,296283.731,309579.437,309580.6,2023-01-22T17:40:44Z,309596.034,Orientierung,urekebisho,d,uelekeo,marekebisho,utunzaji,NA,NA,NA,"c(""distractor1"", ""distractor2"", ""distractor3"")",NA,NA,NA,NA,NA,NA,NA,NA,NA,NA,NA,NA,NA,NA,NA,NA,NA,NA,NA
7dda3,Shallow Question,html.Page,2_6_0_0,NA,NA,form submission,8115.366,309580.7,309579.437,309596.034,317711.4,317711.7,2023-01-22T17:40:52Z,317726.667,Fleisch,mshakiki,d,kizunguzungu,mshikamano,angusho,mshakiki,NA,NA,"c(""distractor1"", ""distractor2"", ""distractor3"")",NA,NA,NA,NA,NA,NA,NA,NA,NA,NA,NA,NA,NA,NA,NA,NA,NA,NA,NA
7dda3,Save data screen,canvas.Screen,2_6_0_1,NA,NA,timeout,499.69799999997,317713.7,317710.004,317726.667,318209.793,318210.5,2023-01-22T17:40:52Z,318226.365,Fleisch,mshakiki,d,kizunguzungu,mshikamano,angusho,NA,NA,1,"c(""distractor1"", ""distractor2"", ""distractor3"")",NA,NA,NA,NA,NA,NA,NA,NA,NA,NA,NA,NA,NA,NA,NA,NA,NA,NA,NA
7dda3,shallow,flow.Sequence,2_6_0,NA,NA,completion,8613.759,309580.7,309579.437,309596.034,318209.793,318210.9,2023-01-22T17:40:52Z,318226.365,Fleisch,mshakiki,d,kizunguzungu,mshikamano,angusho,NA,NA,NA,"c(""distractor1"", ""distractor2"", ""distractor3"")",NA,NA,NA,NA,NA,NA,NA,NA,NA,NA,NA,NA,NA,NA,NA,NA,NA,NA,NA
7dda3,task,flow.Sequence,2_6,NA,NA,completion,8613.759,309580.6,309579.437,309596.034,318209.793,318211.1,2023-01-22T17:40:52Z,318226.365,Fleisch,mshakiki,d,kizunguzungu,mshikamano,angusho,NA,NA,NA,"c(""distractor1"", ""distractor2"", ""distractor3"")",NA,NA,NA,NA,NA,NA,NA,NA,NA,NA,NA,NA,NA,NA,NA,NA,NA,NA,NA
7dda3,Shallow Question,html.Page,2_7_0_0,NA,NA,form submission,13327.535,318211.3,318209.793,318226.365,331553.9,331554.2,2023-01-22T17:41:05Z,331555.136,Flexibilität,kubadilika,s,enjini,usikilivu,hesabu,usikilivu,NA,NA,"c(""distractor1"", ""distractor2"", ""distractor3"")",NA,NA,NA,NA,NA,NA,NA,NA,NA,NA,NA,NA,NA,NA,NA,NA,NA,NA,NA
7dda3,Save data screen,canvas.Screen,2_7_0_1,NA,NA,timeout,499.96500000003,331556.8,331538.405,331555.136,332038.309,332038.8,2023-01-22T17:41:06Z,332055.101,Flexibilität,kubadilika,s,enjini,usikilivu,hesabu,NA,NA,0,"c(""distractor1"", ""distractor2"", ""distractor3"")",NA,NA,NA,NA,NA,NA,NA,NA,NA,NA,NA,NA,NA,NA,NA,NA,NA,NA,NA
7dda3,shallow,flow.Sequence,2_7_0,NA,NA,completion,13811.944,318211.2,318209.793,318226.365,332038.309,332039,2023-01-22T17:41:06Z,332055.101,Flexibilität,kubadilika,s,enjini,usikilivu,hesabu,NA,NA,NA,"c(""distractor1"", ""distractor2"", ""distractor3"")",NA,NA,NA,NA,NA,NA,NA,NA,NA,NA,NA,NA,NA,NA,NA,NA,NA,NA,NA
7dda3,task,flow.Sequence,2_7,NA,NA,completion,13811.944,318211.2,318209.793,318226.365,332038.309,332039.4,2023-01-22T17:41:06Z,332055.101,Flexibilität,kubadilika,s,enjini,usikilivu,hesabu,NA,NA,NA,"c(""distractor1"", ""distractor2"", ""distractor3"")",NA,NA,NA,NA,NA,NA,NA,NA,NA,NA,NA,NA,NA,NA,NA,NA,NA,NA,NA
7dda3,Shallow Question,html.Page,2_8_0_0,NA,NA,form submission,7015.599,332039.6,332038.309,332055.101,339070.7,339070.9,2023-01-22T17:41:13Z,339086.053,Genehmigung,idhini,s,mwanamke,itikadi,fedheha,mwanamke,NA,NA,"c(""distractor1"", ""distractor2"", ""distractor3"")",NA,NA,NA,NA,NA,NA,NA,NA,NA,NA,NA,NA,NA,NA,NA,NA,NA,NA,NA
7dda3,Save data screen,canvas.Screen,2_8_0_1,NA,NA,timeout,499.86300000001,339072.7,339069.439,339086.053,339569.219,339569.8,2023-01-22T17:41:14Z,339585.916,Genehmigung,idhini,s,mwanamke,itikadi,fedheha,NA,NA,0,"c(""distractor1"", ""distractor2"", ""distractor3"")",NA,NA,NA,NA,NA,NA,NA,NA,NA,NA,NA,NA,NA,NA,NA,NA,NA,NA,NA
7dda3,shallow,flow.Sequence,2_8_0,NA,NA,completion,7514.118,332039.5,332038.309,332055.101,339569.219,339570.1,2023-01-22T17:41:14Z,339585.916,Genehmigung,idhini,s,mwanamke,itikadi,fedheha,NA,NA,NA,"c(""distractor1"", ""distractor2"", ""distractor3"")",NA,NA,NA,NA,NA,NA,NA,NA,NA,NA,NA,NA,NA,NA,NA,NA,NA,NA,NA
7dda3,task,flow.Sequence,2_8,NA,NA,completion,7514.118,332039.5,332038.309,332055.101,339569.219,339570.5,2023-01-22T17:41:14Z,339585.916,Genehmigung,idhini,s,mwanamke,itikadi,fedheha,NA,NA,NA,"c(""distractor1"", ""distractor2"", ""distractor3"")",NA,NA,NA,NA,NA,NA,NA,NA,NA,NA,NA,NA,NA,NA,NA,NA,NA,NA,NA
7dda3,Shallow Question,html.Page,2_9_0_0,NA,NA,form submission,12140.984,339570.7,339569.219,339585.916,351726.9,351727.2,2023-01-22T17:41:26Z,351731.614,Wechsel,ugeuzaji,d,utambulisho,kujenga,wasiwasi,kujenga,NA,NA,"c(""distractor1"", ""distractor2"", ""distractor3"")",NA,NA,NA,NA,NA,NA,NA,NA,NA,NA,NA,NA,NA,NA,NA,NA,NA,NA,NA
7dda3,Save data screen,canvas.Screen,2_9_0_1,NA,NA,timeout,500.03399999999,351729.1,351715.081,351731.614,352214.831,352215.3,2023-01-22T17:41:26Z,352231.648,Wechsel,ugeuzaji,d,utambulisho,kujenga,wasiwasi,NA,NA,0,"c(""distractor1"", ""distractor2"", ""distractor3"")",NA,NA,NA,NA,NA,NA,NA,NA,NA,NA,NA,NA,NA,NA,NA,NA,NA,NA,NA
7dda3,shallow,flow.Sequence,2_9_0,NA,NA,completion,12628.915,339570.7,339569.219,339585.916,352214.831,352215.7,2023-01-22T17:41:26Z,352231.648,Wechsel,ugeuzaji,d,utambulisho,kujenga,wasiwasi,NA,NA,NA,"c(""distractor1"", ""distractor2"", ""distractor3"")",NA,NA,NA,NA,NA,NA,NA,NA,NA,NA,NA,NA,NA,NA,NA,NA,NA,NA,NA
7dda3,task,flow.Sequence,2_9,NA,NA,completion,12628.915,339570.6,339569.219,339585.916,352214.831,352216,2023-01-22T17:41:26Z,352231.648,Wechsel,ugeuzaji,d,utambulisho,kujenga,wasiwasi,NA,NA,NA,"c(""distractor1"", ""distractor2"", ""distractor3"")",NA,NA,NA,NA,NA,NA,NA,NA,NA,NA,NA,NA,NA,NA,NA,NA,NA,NA,NA
7dda3,Shallow Question,html.Page,2_10_0_0,NA,NA,form submission,7100.452,352216.1,352214.831,352231.648,359332.1,359332.3,2023-01-22T17:41:33Z,359345.874,Vorwurf,mashtaka,s,msukumo,mtangulizi,uenyekiti,mashtaka,NA,NA,"c(""distractor1"", ""distractor2"", ""distractor3"")",NA,NA,NA,NA,NA,NA,NA,NA,NA,NA,NA,NA,NA,NA,NA,NA,NA,NA,NA
7dda3,Save data screen,canvas.Screen,2_10_0_1,NA,NA,timeout,499.82299999997,359334,359329.087,359345.874,359829.085,359829.7,2023-01-22T17:41:34Z,359845.697,Vorwurf,mashtaka,s,msukumo,mtangulizi,uenyekiti,NA,NA,1,"c(""distractor1"", ""distractor2"", ""distractor3"")",NA,NA,NA,NA,NA,NA,NA,NA,NA,NA,NA,NA,NA,NA,NA,NA,NA,NA,NA
7dda3,shallow,flow.Sequence,2_10_0,NA,NA,completion,7597.437,352216.1,352214.831,352231.648,359829.085,359830.2,2023-01-22T17:41:34Z,359845.697,Vorwurf,mashtaka,s,msukumo,mtangulizi,uenyekiti,NA,NA,NA,"c(""distractor1"", ""distractor2"", ""distractor3"")",NA,NA,NA,NA,NA,NA,NA,NA,NA,NA,NA,NA,NA,NA,NA,NA,NA,NA,NA
7dda3,task,flow.Sequence,2_10,NA,NA,completion,7597.437,352216,352214.831,352231.648,359829.085,359830.4,2023-01-22T17:41:34Z,359845.697,Vorwurf,mashtaka,s,msukumo,mtangulizi,uenyekiti,NA,NA,NA,"c(""distractor1"", ""distractor2"", ""distractor3"")",NA,NA,NA,NA,NA,NA,NA,NA,NA,NA,NA,NA,NA,NA,NA,NA,NA,NA,NA
7dda3,Shallow Question,html.Page,2_11_0_0,NA,NA,form submission,24378.503,359830.5,359829.085,359845.697,384224.2,384224.4,2023-01-22T17:41:58Z,384237.622,Stimmung,kinyongo,s,kilekile,kisambo,madhehebu,kinyongo,NA,NA,"c(""distractor1"", ""distractor2"", ""distractor3"")",NA,NA,NA,NA,NA,NA,NA,NA,NA,NA,NA,NA,NA,NA,NA,NA,NA,NA,NA
7dda3,Save data screen,canvas.Screen,2_11_0_1,NA,NA,timeout,499.49200000003,384227.2,384220.573,384237.622,384720.446,384721,2023-01-22T17:41:59Z,384737.114,Stimmung,kinyongo,s,kilekile,kisambo,madhehebu,NA,NA,1,"c(""distractor1"", ""distractor2"", ""distractor3"")",NA,NA,NA,NA,NA,NA,NA,NA,NA,NA,NA,NA,NA,NA,NA,NA,NA,NA,NA
7dda3,shallow,flow.Sequence,2_11_0,NA,NA,completion,24874.749,359830.5,359829.085,359845.697,384720.446,384721.2,2023-01-22T17:41:59Z,384737.114,Stimmung,kinyongo,s,kilekile,kisambo,madhehebu,NA,NA,NA,"c(""distractor1"", ""distractor2"", ""distractor3"")",NA,NA,NA,NA,NA,NA,NA,NA,NA,NA,NA,NA,NA,NA,NA,NA,NA,NA,NA
7dda3,task,flow.Sequence,2_11,NA,NA,completion,24874.749,359830.5,359829.085,359845.697,384720.446,384721.4,2023-01-22T17:41:59Z,384737.114,Stimmung,kinyongo,s,kilekile,kisambo,madhehebu,NA,NA,NA,"c(""distractor1"", ""distractor2"", ""distractor3"")",NA,NA,NA,NA,NA,NA,NA,NA,NA,NA,NA,NA,NA,NA,NA,NA,NA,NA,NA
7dda3,Shallow Question,html.Page,2_12_0_0,NA,NA,form submission,18072.586,384721.6,384720.446,384737.114,402809.7,402810,2023-01-22T17:42:17Z,402814.391,Betrüger,mdanganyifu,s,mwanamuziki,wastani,mahakama,mdanganyifu,NA,NA,"c(""distractor1"", ""distractor2"", ""distractor3"")",NA,NA,NA,NA,NA,NA,NA,NA,NA,NA,NA,NA,NA,NA,NA,NA,NA,NA,NA
7dda3,Save data screen,canvas.Screen,2_12_0_1,NA,NA,timeout,499.80200000003,402812.7,402797.683,402814.391,403297.541,403298.1,2023-01-22T17:42:17Z,403314.193,Betrüger,mdanganyifu,s,mwanamuziki,wastani,mahakama,NA,NA,1,"c(""distractor1"", ""distractor2"", ""distractor3"")",NA,NA,NA,NA,NA,NA,NA,NA,NA,NA,NA,NA,NA,NA,NA,NA,NA,NA,NA
7dda3,shallow,flow.Sequence,2_12_0,NA,NA,completion,18560.427,384721.6,384720.446,384737.114,403297.541,403298.4,2023-01-22T17:42:17Z,403314.193,Betrüger,mdanganyifu,s,mwanamuziki,wastani,mahakama,NA,NA,NA,"c(""distractor1"", ""distractor2"", ""distractor3"")",NA,NA,NA,NA,NA,NA,NA,NA,NA,NA,NA,NA,NA,NA,NA,NA,NA,NA,NA
7dda3,task,flow.Sequence,2_12,NA,NA,completion,18560.427,384721.5,384720.446,384737.114,403297.541,403298.6,2023-01-22T17:42:17Z,403314.193,Betrüger,mdanganyifu,s,mwanamuziki,wastani,mahakama,NA,NA,NA,"c(""distractor1"", ""distractor2"", ""distractor3"")",NA,NA,NA,NA,NA,NA,NA,NA,NA,NA,NA,NA,NA,NA,NA,NA,NA,NA,NA
7dda3,Shallow Question,html.Page,2_13_0_0,NA,NA,form submission,5650.107,403298.8,403297.541,403314.193,408964.3,408964.6,2023-01-22T17:42:23Z,408978.948,Begegnung,kukutana,s,mmasihiya,mpiganaji,husiano,kukutana,NA,NA,"c(""distractor1"", ""distractor2"", ""distractor3"")",NA,NA,NA,NA,NA,NA,NA,NA,NA,NA,NA,NA,NA,NA,NA,NA,NA,NA,NA
7dda3,Save data screen,canvas.Screen,2_13_0_1,NA,NA,timeout,499.837,408966.3,408962.277,408978.948,409462.105,409462.6,2023-01-22T17:42:23Z,409478.785,Begegnung,kukutana,s,mmasihiya,mpiganaji,husiano,NA,NA,1,"c(""distractor1"", ""distractor2"", ""distractor3"")",NA,NA,NA,NA,NA,NA,NA,NA,NA,NA,NA,NA,NA,NA,NA,NA,NA,NA,NA
7dda3,shallow,flow.Sequence,2_13_0,NA,NA,completion,6147.912,403298.8,403297.541,403314.193,409462.105,409462.8,2023-01-22T17:42:23Z,409478.785,Begegnung,kukutana,s,mmasihiya,mpiganaji,husiano,NA,NA,NA,"c(""distractor1"", ""distractor2"", ""distractor3"")",NA,NA,NA,NA,NA,NA,NA,NA,NA,NA,NA,NA,NA,NA,NA,NA,NA,NA,NA
7dda3,task,flow.Sequence,2_13,NA,NA,completion,6147.912,403298.7,403297.541,403314.193,409462.105,409463,2023-01-22T17:42:23Z,409478.785,Begegnung,kukutana,s,mmasihiya,mpiganaji,husiano,NA,NA,NA,"c(""distractor1"", ""distractor2"", ""distractor3"")",NA,NA,NA,NA,NA,NA,NA,NA,NA,NA,NA,NA,NA,NA,NA,NA,NA,NA,NA
7dda3,Shallow Question,html.Page,2_14_0_0,NA,NA,form submission,7823.2150000001,409463.2,409462.105,409478.785,417302,417302.2,2023-01-22T17:42:31Z,417309.416,Niveau,kiwango,d,usimamizi,mwamali,mshairi,kiwango,NA,NA,"c(""distractor1"", ""distractor2"", ""distractor3"")",NA,NA,NA,NA,NA,NA,NA,NA,NA,NA,NA,NA,NA,NA,NA,NA,NA,NA,NA
7dda3,Save data screen,canvas.Screen,2_14_0_1,NA,NA,timeout,499.87599999999,417304.5,417292.781,417309.416,417792.632,417793.2,2023-01-22T17:42:32Z,417809.292,Niveau,kiwango,d,usimamizi,mwamali,mshairi,NA,NA,1,"c(""distractor1"", ""distractor2"", ""distractor3"")",NA,NA,NA,NA,NA,NA,NA,NA,NA,NA,NA,NA,NA,NA,NA,NA,NA,NA,NA
7dda3,shallow,flow.Sequence,2_14_0,NA,NA,completion,8313.847,409463.2,409462.105,409478.785,417792.632,417793.4,2023-01-22T17:42:32Z,417809.292,Niveau,kiwango,d,usimamizi,mwamali,mshairi,NA,NA,NA,"c(""distractor1"", ""distractor2"", ""distractor3"")",NA,NA,NA,NA,NA,NA,NA,NA,NA,NA,NA,NA,NA,NA,NA,NA,NA,NA,NA
7dda3,task,flow.Sequence,2_14,NA,NA,completion,8313.847,409463.2,409462.105,409478.785,417792.632,417793.6,2023-01-22T17:42:32Z,417809.292,Niveau,kiwango,d,usimamizi,mwamali,mshairi,NA,NA,NA,"c(""distractor1"", ""distractor2"", ""distractor3"")",NA,NA,NA,NA,NA,NA,NA,NA,NA,NA,NA,NA,NA,NA,NA,NA,NA,NA,NA
7dda3,Shallow Question,html.Page,2_15_0_0,NA,NA,form submission,16876.608,417793.8,417792.632,417809.292,434685.9,434686.1,2023-01-22T17:42:49Z,434686.882,Integrität,uadilifu,d,muungano,mtiririko,upunguaji,upunguaji,NA,NA,"c(""distractor1"", ""distractor2"", ""distractor3"")",NA,NA,NA,NA,NA,NA,NA,NA,NA,NA,NA,NA,NA,NA,NA,NA,NA,NA,NA
7dda3,Save data screen,canvas.Screen,2_15_0_1,NA,NA,timeout,499.93100000004,434688.9,434670.207,434686.882,435170.075,435170.7,2023-01-22T17:42:49Z,435186.813,Integrität,uadilifu,d,muungano,mtiririko,upunguaji,NA,NA,0,"c(""distractor1"", ""distractor2"", ""distractor3"")",NA,NA,NA,NA,NA,NA,NA,NA,NA,NA,NA,NA,NA,NA,NA,NA,NA,NA,NA
7dda3,shallow,flow.Sequence,2_15_0,NA,NA,completion,17360.783,417793.8,417792.632,417809.292,435170.075,435171.2,2023-01-22T17:42:49Z,435186.813,Integrität,uadilifu,d,muungano,mtiririko,upunguaji,NA,NA,NA,"c(""distractor1"", ""distractor2"", ""distractor3"")",NA,NA,NA,NA,NA,NA,NA,NA,NA,NA,NA,NA,NA,NA,NA,NA,NA,NA,NA
7dda3,task,flow.Sequence,2_15,NA,NA,completion,17360.783,417793.7,417792.632,417809.292,435170.075,435171.4,2023-01-22T17:42:49Z,435186.813,Integrität,uadilifu,d,muungano,mtiririko,upunguaji,NA,NA,NA,"c(""distractor1"", ""distractor2"", ""distractor3"")",NA,NA,NA,NA,NA,NA,NA,NA,NA,NA,NA,NA,NA,NA,NA,NA,NA,NA,NA
7dda3,retrieval block 2 (multiple choice),flow.Loop,2,NA,NA,completion,184954.032,250201,250199.478,250216.043,435170.075,435171.5,2023-01-22T17:42:49Z,435186.813,NA,NA,NA,NA,NA,NA,NA,NA,NA,"c(""distractor1"", ""distractor2"", ""distractor3"")",NA,NA,NA,NA,NA,NA,NA,NA,NA,NA,NA,NA,NA,NA,NA,NA,NA,NA,NA
7dda3,End,canvas.Screen,3,NA,keypress(Space),response,1749.287,435171.6,435170.075,435186.813,436936.1,436937.3,2023-01-22T17:42:51Z,436952.797,NA,NA,NA,NA,NA,NA,NA,NA,NA,NULL,NA,NA,NA,NA,NA,NA,NA,NA,NA,NA,NA,NA,NA,NA,NA,NA,NA,NA,NA
7dda3,root,flow.Sequence,NA,NA,NA,completion,435352.634,1543.9,1550.127,1583.466,436936.1,436937.7,2023-01-22T17:42:51Z,436952.797,NA,NA,NA,NA,NA,NA,NA,NA,NA,NULL,NA,NA,NA,NA,NA,NA,NA,NA,NA,NA,NA,NA,NA,NA,NA,NA,NA,NA,NA
