observation,sender,sender_type,sender_id,response,response_action,ended_on,duration,time_run,time_render,time_show,time_end,time_commit,timestamp,time_switch,distractors,german,swahili,enc,distractor1,distractor2,distractor3,response_2,x,correct,x_2,url_vp,url_sess,meta_labjs_version,meta_location,meta_user_agent,meta_platform,meta_language,meta_locale,meta_time_zone,meta_timezone_offset,meta_screen_width,meta_screen_height,meta_scroll_width,meta_scroll_height,meta_window_inner_width,meta_window_inner_height,meta_device_pixel_ratio,meta_labjs_build_flavor,meta_labjs_build_commit
8fdc3,Introduction general,canvas.Screen,0,weiter,keypress(q),response,200343.5,693.20000004768,1460.9,1477.5,201821,201830.10000014,2024-03-07T08:47:41Z,201838.2,NULL,NA,NA,NA,NA,NA,NA,NA,NA,NA,NA,143,1,20.2.4,https://neurocog.fernuni.ch/studies/vweber/aberisha/encoding_immediate/index.html?vp=143&sess=1,"Mozilla/5.0 (Windows NT 10.0; Win64; x64) AppleWebKit/537.36 (KHTML, like Gecko) Chrome/122.0.0.0 Safari/537.36",Win32,de-DE,de,Europe/Zurich,-60,1739,979,1740,763,1740,811,1.1041666269302,production,f5b4a49f956347addd546a832a3327688c2c0fef
8fdc3,Introduction practice,canvas.Screen,1_0,NA,keypress(Space),response,11173.3,201830.4000001,201819.52,201838.2,213011.5,213012.60000014,2024-03-07T08:47:53Z,213031.4,NULL,NA,NA,NA,NA,NA,NA,NA,NA,NA,NA,NA,NA,NA,NA,NA,NA,NA,NA,NA,NA,NA,NA,NA,NA,NA,NA,NA,NA,NA
8fdc3,deep,flow.Sequence,1_1_0_0,NA,NA,skipped,NA,213013.10000014,NA,NA,213011.5,213016.9000001,2024-03-07T08:47:53Z,213031.4,"c(""distractor1"", ""distractor2"", ""distractor3"")",Kritik,lawama,s,dereva,nafasi,mawazo,NA,NA,NA,NA,NA,NA,NA,NA,NA,NA,NA,NA,NA,NA,NA,NA,NA,NA,NA,NA,NA,NA,NA
8fdc3,Shallow Question,html.Page,1_1_0_1_0,NA,NA,form submission,9268.4000001907,213017.10000014,213004.154,213031.4,222299.80000019,222300.10000014,2024-03-07T08:48:02Z,222309,"c(""distractor1"", ""distractor2"", ""distractor3"")",Kritik,lawama,s,dereva,nafasi,mawazo,nafasi,NA,NA,NA,NA,NA,NA,NA,NA,NA,NA,NA,NA,NA,NA,NA,NA,NA,NA,NA,NA,NA,NA
8fdc3,"""Richtig""-Screen",canvas.Screen,1_1_0_1_1,NA,NA,skipped,NA,222301.30000019,NA,NA,222299.80000019,222301.4000001,2024-03-07T08:48:02Z,222309,"c(""distractor1"", ""distractor2"", ""distractor3"")",Kritik,lawama,s,dereva,nafasi,mawazo,NA,NA,NA,NA,NA,NA,NA,NA,NA,NA,NA,NA,NA,NA,NA,NA,NA,NA,NA,NA,NA,NA,NA
8fdc3,"""Falsch""-Screen",canvas.Screen,1_1_0_1_2,NA,NA,timeout,4997.3,222306.9000001,222295.16,222309,227289.3,227290.80000019,2024-03-07T08:48:07Z,227306.3,"c(""distractor1"", ""distractor2"", ""distractor3"")",Kritik,lawama,s,dereva,nafasi,mawazo,NA,NA,0,NA,NA,NA,NA,NA,NA,NA,NA,NA,NA,NA,NA,NA,NA,NA,NA,NA,NA,NA,NA
8fdc3,shallow,flow.Sequence,1_1_0_1,NA,NA,completion,14257.9,213017,213004.154,213031.4,227289.3,227291,2024-03-07T08:48:07Z,227306.3,"c(""distractor1"", ""distractor2"", ""distractor3"")",Kritik,lawama,s,dereva,nafasi,mawazo,NA,NA,NA,NA,NA,NA,NA,NA,NA,NA,NA,NA,NA,NA,NA,NA,NA,NA,NA,NA,NA,NA,NA
8fdc3,task,flow.Sequence,1_1_0,NA,NA,completion,14257.9,213013,213004.154,213031.4,227289.3,227291.10000014,2024-03-07T08:48:07Z,227306.3,"c(""distractor1"", ""distractor2"", ""distractor3"")",Kritik,lawama,s,dereva,nafasi,mawazo,NA,NA,NA,NA,NA,NA,NA,NA,NA,NA,NA,NA,NA,NA,NA,NA,NA,NA,NA,NA,NA,NA,NA
8fdc3,deep,flow.Sequence,1_1_1_0,NA,NA,skipped,NA,227291.20000005,NA,NA,227289.3,227291.20000005,2024-03-07T08:48:07Z,227306.3,"c(""distractor1"", ""distractor2"", ""distractor3"")",Rückhalt,msaada,s,muhula,auwali,kiwimbe,NA,NA,NA,NA,NA,NA,NA,NA,NA,NA,NA,NA,NA,NA,NA,NA,NA,NA,NA,NA,NA,NA,NA
8fdc3,Shallow Question,html.Page,1_1_1_1_0,NA,NA,form submission,6264.5000001907,227291.30000019,227289.3,227306.3,233570.80000019,233571.10000014,2024-03-07T08:48:13Z,233585.9,"c(""distractor1"", ""distractor2"", ""distractor3"")",Rückhalt,msaada,s,muhula,auwali,kiwimbe,muhula,NA,NA,NA,NA,NA,NA,NA,NA,NA,NA,NA,NA,NA,NA,NA,NA,NA,NA,NA,NA,NA,NA
8fdc3,"""Richtig""-Screen",canvas.Screen,1_1_1_1_1,NA,NA,skipped,NA,233572.80000019,NA,NA,233570.80000019,233573,2024-03-07T08:48:13Z,233585.9,"c(""distractor1"", ""distractor2"", ""distractor3"")",Rückhalt,msaada,s,muhula,auwali,kiwimbe,NA,NA,NA,NA,NA,NA,NA,NA,NA,NA,NA,NA,NA,NA,NA,NA,NA,NA,NA,NA,NA,NA,NA
8fdc3,"""Falsch""-Screen",canvas.Screen,1_1_1_1_2,NA,NA,timeout,4996.8,233573.5,233569.4,233585.9,238566.2,238567.30000019,2024-03-07T08:48:18Z,238582.7,"c(""distractor1"", ""distractor2"", ""distractor3"")",Rückhalt,msaada,s,muhula,auwali,kiwimbe,NA,NA,0,NA,NA,NA,NA,NA,NA,NA,NA,NA,NA,NA,NA,NA,NA,NA,NA,NA,NA,NA,NA
8fdc3,shallow,flow.Sequence,1_1_1_1,NA,NA,completion,11259.9,227291.20000005,227289.3,227306.3,238566.2,238567.70000005,2024-03-07T08:48:18Z,238582.7,"c(""distractor1"", ""distractor2"", ""distractor3"")",Rückhalt,msaada,s,muhula,auwali,kiwimbe,NA,NA,NA,NA,NA,NA,NA,NA,NA,NA,NA,NA,NA,NA,NA,NA,NA,NA,NA,NA,NA,NA,NA
8fdc3,task,flow.Sequence,1_1_1,NA,NA,completion,11259.9,227291.10000014,227289.3,227306.3,238566.2,238568,2024-03-07T08:48:18Z,238582.7,"c(""distractor1"", ""distractor2"", ""distractor3"")",Rückhalt,msaada,s,muhula,auwali,kiwimbe,NA,NA,NA,NA,NA,NA,NA,NA,NA,NA,NA,NA,NA,NA,NA,NA,NA,NA,NA,NA,NA,NA,NA
8fdc3,deep,flow.Sequence,1_1_2_0,NA,NA,skipped,NA,238568.10000014,NA,NA,238566.2,238568.4000001,2024-03-07T08:48:18Z,238582.7,"c(""distractor1"", ""distractor2"", ""distractor3"")",Gegenwart,hadhara,s,katiba,jokofu,mikopo,NA,NA,NA,NA,NA,NA,NA,NA,NA,NA,NA,NA,NA,NA,NA,NA,NA,NA,NA,NA,NA,NA,NA
8fdc3,Shallow Question,html.Page,1_1_2_1_0,NA,NA,form submission,5133.0000000477,238568.5,238566.2,238582.7,243715.70000005,243716,2024-03-07T08:48:23Z,243729.3,"c(""distractor1"", ""distractor2"", ""distractor3"")",Gegenwart,hadhara,s,katiba,jokofu,mikopo,mikopo,NA,NA,NA,NA,NA,NA,NA,NA,NA,NA,NA,NA,NA,NA,NA,NA,NA,NA,NA,NA,NA,NA
8fdc3,"""Richtig""-Screen",canvas.Screen,1_1_2_1_1,NA,NA,skipped,NA,243719.10000014,NA,NA,243715.70000005,243719.30000019,2024-03-07T08:48:23Z,243729.3,"c(""distractor1"", ""distractor2"", ""distractor3"")",Gegenwart,hadhara,s,katiba,jokofu,mikopo,NA,NA,NA,NA,NA,NA,NA,NA,NA,NA,NA,NA,NA,NA,NA,NA,NA,NA,NA,NA,NA,NA,NA
8fdc3,"""Falsch""-Screen",canvas.Screen,1_1_2_1_2,NA,NA,timeout,4996.8,243720.20000005,243713.2,243729.3,248710,248711,2024-03-07T08:48:28Z,248726.1,"c(""distractor1"", ""distractor2"", ""distractor3"")",Gegenwart,hadhara,s,katiba,jokofu,mikopo,NA,NA,0,NA,NA,NA,NA,NA,NA,NA,NA,NA,NA,NA,NA,NA,NA,NA,NA,NA,NA,NA,NA
8fdc3,shallow,flow.Sequence,1_1_2_1,NA,NA,completion,10127.3,238568.5,238566.2,238582.7,248710,248711.30000019,2024-03-07T08:48:28Z,248726.1,"c(""distractor1"", ""distractor2"", ""distractor3"")",Gegenwart,hadhara,s,katiba,jokofu,mikopo,NA,NA,NA,NA,NA,NA,NA,NA,NA,NA,NA,NA,NA,NA,NA,NA,NA,NA,NA,NA,NA,NA,NA
8fdc3,task,flow.Sequence,1_1_2,NA,NA,completion,10127.3,238568.10000014,238566.2,238582.7,248710,248711.60000014,2024-03-07T08:48:28Z,248726.1,"c(""distractor1"", ""distractor2"", ""distractor3"")",Gegenwart,hadhara,s,katiba,jokofu,mikopo,NA,NA,NA,NA,NA,NA,NA,NA,NA,NA,NA,NA,NA,NA,NA,NA,NA,NA,NA,NA,NA,NA,NA
8fdc3,Deep Question,html.Page,1_1_3_0_0,NA,NA,form submission,10134.4,248711.80000019,248710,248726.1,258860.5,258860.70000005,2024-03-07T08:48:39Z,258887.2,"c(""distractor1"", ""distractor2"", ""distractor3"")",Qualität,mtindo,d,NA,NA,NA,NA,NA,NA,NA,NA,NA,NA,NA,NA,NA,NA,NA,NA,NA,NA,NA,NA,NA,NA,NA,NA,NA,NA
8fdc3,"""Richtig""-Screen",canvas.Screen,1_1_3_0_1,NA,NA,skipped,NA,258864,NA,NA,258860.5,258864.20000005,2024-03-07T08:48:39Z,258887.2,"c(""distractor1"", ""distractor2"", ""distractor3"")",Qualität,mtindo,d,NA,NA,NA,NA,NA,NA,NA,NA,NA,NA,NA,NA,NA,NA,NA,NA,NA,NA,NA,NA,NA,NA,NA,NA,NA,NA
8fdc3,"""Falsch""-Screen",canvas.Screen,1_1_3_0_2,NA,NA,timeout,4996.4,258865.20000005,258870.332,258887.2,263867.4,263868.5,2024-03-07T08:48:44Z,263883.6,"c(""distractor1"", ""distractor2"", ""distractor3"")",Qualität,mtindo,d,NA,NA,NA,NA,NA,0,NA,NA,NA,NA,NA,NA,NA,NA,NA,NA,NA,NA,NA,NA,NA,NA,NA,NA,NA,NA
8fdc3,deep,flow.Sequence,1_1_3_0,NA,NA,completion,15141.3,248711.80000019,248710,248726.1,263867.4,263868.9000001,2024-03-07T08:48:44Z,263883.6,"c(""distractor1"", ""distractor2"", ""distractor3"")",Qualität,mtindo,d,NA,NA,NA,NA,NA,NA,NA,NA,NA,NA,NA,NA,NA,NA,NA,NA,NA,NA,NA,NA,NA,NA,NA,NA,NA,NA
8fdc3,shallow,flow.Sequence,1_1_3_1,NA,NA,skipped,NA,263869,NA,NA,263867.4,263869.20000005,2024-03-07T08:48:44Z,263883.6,"c(""distractor1"", ""distractor2"", ""distractor3"")",Qualität,mtindo,d,NA,NA,NA,NA,NA,NA,NA,NA,NA,NA,NA,NA,NA,NA,NA,NA,NA,NA,NA,NA,NA,NA,NA,NA,NA,NA
8fdc3,task,flow.Sequence,1_1_3,NA,NA,completion,15141.3,248711.70000005,248710,248726.1,263867.4,263869.5,2024-03-07T08:48:44Z,263883.6,"c(""distractor1"", ""distractor2"", ""distractor3"")",Qualität,mtindo,d,NA,NA,NA,NA,NA,NA,NA,NA,NA,NA,NA,NA,NA,NA,NA,NA,NA,NA,NA,NA,NA,NA,NA,NA,NA,NA
8fdc3,Deep Question,html.Page,1_1_4_0_0,NA,NA,form submission,3064.8000000954,263869.70000005,263867.4,263883.6,266948.4000001,266948.70000005,2024-03-07T08:48:47Z,266965.9,"c(""distractor1"", ""distractor2"", ""distractor3"")",Gesundheit,salama,d,NA,NA,NA,NA,NA,NA,NA,NA,NA,NA,NA,NA,NA,NA,NA,NA,NA,NA,NA,NA,NA,NA,NA,NA,NA,NA
8fdc3,"""Richtig""-Screen",canvas.Screen,1_1_4_0_1,NA,NA,skipped,NA,266952.10000014,NA,NA,266948.4000001,266952.30000019,2024-03-07T08:48:47Z,266965.9,"c(""distractor1"", ""distractor2"", ""distractor3"")",Gesundheit,salama,d,NA,NA,NA,NA,NA,NA,NA,NA,NA,NA,NA,NA,NA,NA,NA,NA,NA,NA,NA,NA,NA,NA,NA,NA,NA,NA
8fdc3,"""Falsch""-Screen",canvas.Screen,1_1_4_0_2,NA,NA,timeout,4996.3,266952.70000005,266949.092,266965.9,271945.8,271946.80000019,2024-03-07T08:48:52Z,271962.2,"c(""distractor1"", ""distractor2"", ""distractor3"")",Gesundheit,salama,d,NA,NA,NA,NA,NA,0,NA,NA,NA,NA,NA,NA,NA,NA,NA,NA,NA,NA,NA,NA,NA,NA,NA,NA,NA,NA
8fdc3,deep,flow.Sequence,1_1_4_0,NA,NA,completion,8062.2,263869.60000014,263867.4,263883.6,271945.8,271947.20000005,2024-03-07T08:48:52Z,271962.2,"c(""distractor1"", ""distractor2"", ""distractor3"")",Gesundheit,salama,d,NA,NA,NA,NA,NA,NA,NA,NA,NA,NA,NA,NA,NA,NA,NA,NA,NA,NA,NA,NA,NA,NA,NA,NA,NA,NA
8fdc3,shallow,flow.Sequence,1_1_4_1,NA,NA,skipped,NA,271947.4000001,NA,NA,271945.8,271947.5,2024-03-07T08:48:52Z,271962.2,"c(""distractor1"", ""distractor2"", ""distractor3"")",Gesundheit,salama,d,NA,NA,NA,NA,NA,NA,NA,NA,NA,NA,NA,NA,NA,NA,NA,NA,NA,NA,NA,NA,NA,NA,NA,NA,NA,NA
8fdc3,task,flow.Sequence,1_1_4,NA,NA,completion,8062.2,263869.5,263867.4,263883.6,271945.8,271947.70000005,2024-03-07T08:48:52Z,271962.2,"c(""distractor1"", ""distractor2"", ""distractor3"")",Gesundheit,salama,d,NA,NA,NA,NA,NA,NA,NA,NA,NA,NA,NA,NA,NA,NA,NA,NA,NA,NA,NA,NA,NA,NA,NA,NA,NA,NA
8fdc3,Deep Question,html.Page,1_1_5_0_0,NA,NA,form submission,2866.2000000954,271947.9000001,271945.8,271962.2,274828.4000001,274828.60000014,2024-03-07T08:48:54Z,274844,"c(""distractor1"", ""distractor2"", ""distractor3"")",Schatten,kivuli,d,NA,NA,NA,NA,NA,NA,NA,NA,NA,NA,NA,NA,NA,NA,NA,NA,NA,NA,NA,NA,NA,NA,NA,NA,NA,NA
8fdc3,"""Richtig""-Screen",canvas.Screen,1_1_5_0_1,NA,NA,skipped,NA,274831.4000001,NA,NA,274828.4000001,274831.5,2024-03-07T08:48:54Z,274844,"c(""distractor1"", ""distractor2"", ""distractor3"")",Schatten,kivuli,d,NA,NA,NA,NA,NA,NA,NA,NA,NA,NA,NA,NA,NA,NA,NA,NA,NA,NA,NA,NA,NA,NA,NA,NA,NA,NA
8fdc3,"""Falsch""-Screen",canvas.Screen,1_1_5_0_2,NA,NA,timeout,4996.7,274832.30000019,274827.492,274844,279824.2,279825.20000005,2024-03-07T08:48:59Z,279840.7,"c(""distractor1"", ""distractor2"", ""distractor3"")",Schatten,kivuli,d,NA,NA,NA,NA,NA,0,NA,NA,NA,NA,NA,NA,NA,NA,NA,NA,NA,NA,NA,NA,NA,NA,NA,NA,NA,NA
8fdc3,deep,flow.Sequence,1_1_5_0,NA,NA,completion,7862,271947.80000019,271945.8,271962.2,279824.2,279825.5,2024-03-07T08:48:59Z,279840.7,"c(""distractor1"", ""distractor2"", ""distractor3"")",Schatten,kivuli,d,NA,NA,NA,NA,NA,NA,NA,NA,NA,NA,NA,NA,NA,NA,NA,NA,NA,NA,NA,NA,NA,NA,NA,NA,NA,NA
8fdc3,shallow,flow.Sequence,1_1_5_1,NA,NA,skipped,NA,279825.60000014,NA,NA,279824.2,279825.80000019,2024-03-07T08:48:59Z,279840.7,"c(""distractor1"", ""distractor2"", ""distractor3"")",Schatten,kivuli,d,NA,NA,NA,NA,NA,NA,NA,NA,NA,NA,NA,NA,NA,NA,NA,NA,NA,NA,NA,NA,NA,NA,NA,NA,NA,NA
8fdc3,task,flow.Sequence,1_1_5,NA,NA,completion,7862,271947.80000019,271945.8,271962.2,279824.2,279826,2024-03-07T08:48:59Z,279840.7,"c(""distractor1"", ""distractor2"", ""distractor3"")",Schatten,kivuli,d,NA,NA,NA,NA,NA,NA,NA,NA,NA,NA,NA,NA,NA,NA,NA,NA,NA,NA,NA,NA,NA,NA,NA,NA,NA,NA
8fdc3,block,flow.Loop,1_1,NA,NA,completion,66792.8,213012.9000001,213004.154,213031.4,279824.2,279826.5,2024-03-07T08:48:59Z,279840.7,"c(""distractor1"", ""distractor2"", ""distractor3"")",NA,NA,NA,NA,NA,NA,NA,NA,NA,NA,NA,NA,NA,NA,NA,NA,NA,NA,NA,NA,NA,NA,NA,NA,NA,NA,NA,NA,NA
8fdc3,Practice,flow.Sequence,1,NA,NA,completion,77986,201830.4000001,201819.52,201838.2,279824.2,279826.70000005,2024-03-07T08:48:59Z,279840.7,NULL,NA,NA,NA,NA,NA,NA,NA,NA,NA,NA,NA,NA,NA,NA,NA,NA,NA,NA,NA,NA,NA,NA,NA,NA,NA,NA,NA,NA,NA
8fdc3,Experiment start,canvas.Screen,2,weiter,keypress(q),response,101771.3,279826.80000019,279824.2,279840.7,381612,381613.20000005,2024-03-07T08:50:41Z,381668.632,NULL,NA,NA,NA,NA,NA,NA,NA,NA,NA,NA,NA,NA,NA,NA,NA,NA,NA,NA,NA,NA,NA,NA,NA,NA,NA,NA,NA,NA,NA
8fdc3,deep,flow.Sequence,3_0_0_0_0_0,NA,NA,skipped,NA,381669.10000014,NA,NA,381612,381669.20000005,2024-03-07T08:50:41Z,381668.632,NULL,Wettbewerb,ushindani,s,mapendezi,kichocheo,ubaguzi,NA,sdf,NA,0,NA,NA,NA,NA,NA,NA,NA,NA,NA,NA,NA,NA,NA,NA,NA,NA,NA,NA,NA
8fdc3,Shallow Question,html.Page,3_0_0_0_0_1_0,NA,NA,form submission,8976.9680001431,381669.30000019,381668.632,381668.632,390645.60000014,390645.9000001,2024-03-07T08:50:50Z,390656,NULL,Wettbewerb,ushindani,s,mapendezi,kichocheo,ubaguzi,ushindani,NA,NA,0,NA,NA,NA,NA,NA,NA,NA,NA,NA,NA,NA,NA,NA,NA,NA,NA,NA,NA,NA
8fdc3,"""Richtig""-Screen",canvas.Screen,3_0_0_0_0_1_1,NA,NA,timeout,4997.3,390648.9000001,390639.924,390656,395636.8,395637.30000019,2024-03-07T08:50:55Z,395653.3,NULL,Wettbewerb,ushindani,s,mapendezi,kichocheo,ubaguzi,NA,sdf,1,0,NA,NA,NA,NA,NA,NA,NA,NA,NA,NA,NA,NA,NA,NA,NA,NA,NA,NA,NA
8fdc3,"""Falsch""-Screen",canvas.Screen,3_0_0_0_0_1_2,NA,NA,skipped,NA,395639.80000019,NA,NA,395636.8,395639.9000001,2024-03-07T08:50:55Z,395653.3,NULL,Wettbewerb,ushindani,s,mapendezi,kichocheo,ubaguzi,NA,sdf,NA,0,NA,NA,NA,NA,NA,NA,NA,NA,NA,NA,NA,NA,NA,NA,NA,NA,NA,NA,NA
8fdc3,shallow,flow.Sequence,3_0_0_0_0_1,NA,NA,completion,13968.168,381669.30000019,381668.632,381668.632,395636.8,395639.9000001,2024-03-07T08:50:55Z,395653.3,NULL,Wettbewerb,ushindani,s,mapendezi,kichocheo,ubaguzi,NA,sdf,NA,0,NA,NA,NA,NA,NA,NA,NA,NA,NA,NA,NA,NA,NA,NA,NA,NA,NA,NA,NA
8fdc3,task,flow.Sequence,3_0_0_0_0,NA,NA,completion,13968.168,381669.10000014,381668.632,381668.632,395636.8,395640,2024-03-07T08:50:55Z,395653.3,NULL,Wettbewerb,ushindani,s,mapendezi,kichocheo,ubaguzi,NA,sdf,NA,0,NA,NA,NA,NA,NA,NA,NA,NA,NA,NA,NA,NA,NA,NA,NA,NA,NA,NA,NA
8fdc3,Deep Question,html.Page,3_0_0_0_1_0_0,NA,NA,form submission,3312.8000001431,395640,395636.8,395653.3,398966.10000014,398966.30000019,2024-03-07T08:50:59Z,398968.12,NULL,Theorie,nadharia,d,NA,NA,NA,NA,NA,NA,0,NA,NA,NA,NA,NA,NA,NA,NA,NA,NA,NA,NA,NA,NA,NA,NA,NA,NA,NA
8fdc3,"""Richtig""-Screen",canvas.Screen,3_0_0_0_1_0_1,NA,NA,skipped,NA,398969.20000005,NA,NA,398966.10000014,398969.4000001,2024-03-07T08:50:59Z,398968.12,NULL,Theorie,nadharia,d,NA,NA,NA,NA,sdf,NA,0,NA,NA,NA,NA,NA,NA,NA,NA,NA,NA,NA,NA,NA,NA,NA,NA,NA,NA,NA
8fdc3,"""Falsch""-Screen",canvas.Screen,3_0_0_0_1_0_2,NA,NA,timeout,4996.78,398970.20000005,398968.12,398968.12,403948.3,403948.70000005,2024-03-07T08:51:04Z,403964.9,NULL,Theorie,nadharia,d,NA,NA,NA,NA,sdf,0,0,NA,NA,NA,NA,NA,NA,NA,NA,NA,NA,NA,NA,NA,NA,NA,NA,NA,NA,NA
8fdc3,deep,flow.Sequence,3_0_0_0_1_0,NA,NA,completion,8295,395640,395636.8,395653.3,403948.3,403948.9000001,2024-03-07T08:51:04Z,403964.9,NULL,Theorie,nadharia,d,NA,NA,NA,NA,sdf,NA,0,NA,NA,NA,NA,NA,NA,NA,NA,NA,NA,NA,NA,NA,NA,NA,NA,NA,NA,NA
8fdc3,shallow,flow.Sequence,3_0_0_0_1_1,NA,NA,skipped,NA,403948.9000001,NA,NA,403948.3,403949,2024-03-07T08:51:04Z,403964.9,NULL,Theorie,nadharia,d,NA,NA,NA,NA,sdf,NA,0,NA,NA,NA,NA,NA,NA,NA,NA,NA,NA,NA,NA,NA,NA,NA,NA,NA,NA,NA
8fdc3,task,flow.Sequence,3_0_0_0_1,NA,NA,completion,8295,395640,395636.8,395653.3,403948.3,403949,2024-03-07T08:51:04Z,403964.9,NULL,Theorie,nadharia,d,NA,NA,NA,NA,sdf,NA,0,NA,NA,NA,NA,NA,NA,NA,NA,NA,NA,NA,NA,NA,NA,NA,NA,NA,NA,NA
8fdc3,deep,flow.Sequence,3_0_0_0_2_0,NA,NA,skipped,NA,403949.10000014,NA,NA,403948.3,403949.10000014,2024-03-07T08:51:04Z,403964.9,NULL,Verpackung,ufungaji,s,uhusiano,upimaji,uchunguzi,NA,sdf,NA,0,NA,NA,NA,NA,NA,NA,NA,NA,NA,NA,NA,NA,NA,NA,NA,NA,NA,NA,NA
8fdc3,Shallow Question,html.Page,3_0_0_0_2_1_0,NA,NA,form submission,6268.700000143,403949.10000014,403948.3,403964.9,410233.60000014,410233.80000019,2024-03-07T08:51:10Z,410244,NULL,Verpackung,ufungaji,s,uhusiano,upimaji,uchunguzi,upimaji,NA,NA,0,NA,NA,NA,NA,NA,NA,NA,NA,NA,NA,NA,NA,NA,NA,NA,NA,NA,NA,NA
8fdc3,"""Richtig""-Screen",canvas.Screen,3_0_0_0_2_1_1,NA,NA,skipped,NA,410236.9000001,NA,NA,410233.60000014,410237,2024-03-07T08:51:10Z,410244,NULL,Verpackung,ufungaji,s,uhusiano,upimaji,uchunguzi,NA,sdf,NA,0,NA,NA,NA,NA,NA,NA,NA,NA,NA,NA,NA,NA,NA,NA,NA,NA,NA,NA,NA
8fdc3,"""Falsch""-Screen",canvas.Screen,3_0_0_0_2_1_2,NA,NA,timeout,4997.2,410238,410227.886,410244,415224.7,415225.70000005,2024-03-07T08:51:15Z,415241.2,NULL,Verpackung,ufungaji,s,uhusiano,upimaji,uchunguzi,NA,sdf,0,0,NA,NA,NA,NA,NA,NA,NA,NA,NA,NA,NA,NA,NA,NA,NA,NA,NA,NA,NA
8fdc3,shallow,flow.Sequence,3_0_0_0_2_1,NA,NA,completion,11259.8,403949.10000014,403948.3,403964.9,415224.7,415228.10000014,2024-03-07T08:51:15Z,415241.2,NULL,Verpackung,ufungaji,s,uhusiano,upimaji,uchunguzi,NA,sdf,NA,0,NA,NA,NA,NA,NA,NA,NA,NA,NA,NA,NA,NA,NA,NA,NA,NA,NA,NA,NA
8fdc3,task,flow.Sequence,3_0_0_0_2,NA,NA,completion,11259.8,403949.10000014,403948.3,403964.9,415224.7,415228.30000019,2024-03-07T08:51:15Z,415241.2,NULL,Verpackung,ufungaji,s,uhusiano,upimaji,uchunguzi,NA,sdf,NA,0,NA,NA,NA,NA,NA,NA,NA,NA,NA,NA,NA,NA,NA,NA,NA,NA,NA,NA,NA
8fdc3,Deep Question,html.Page,3_0_0_0_3_0_0,NA,NA,form submission,3421.5000000477,415228.5,415224.7,415241.2,418662.70000005,418662.9000001,2024-03-07T08:51:18Z,418672.2,NULL,Schönheit,kirembo,d,NA,NA,NA,NA,NA,NA,0,NA,NA,NA,NA,NA,NA,NA,NA,NA,NA,NA,NA,NA,NA,NA,NA,NA,NA,NA
8fdc3,"""Richtig""-Screen",canvas.Screen,3_0_0_0_3_0_1,NA,NA,skipped,NA,418664.4000001,NA,NA,418662.70000005,418664.5,2024-03-07T08:51:18Z,418672.2,NULL,Schönheit,kirembo,d,NA,NA,NA,NA,sdf,NA,0,NA,NA,NA,NA,NA,NA,NA,NA,NA,NA,NA,NA,NA,NA,NA,NA,NA,NA,NA
8fdc3,"""Falsch""-Screen",canvas.Screen,3_0_0_0_3_0_2,NA,NA,timeout,4997.4,418664.80000019,418655.7,418672.2,423652.7,423653.20000005,2024-03-07T08:51:23Z,423669.6,NULL,Schönheit,kirembo,d,NA,NA,NA,NA,sdf,0,0,NA,NA,NA,NA,NA,NA,NA,NA,NA,NA,NA,NA,NA,NA,NA,NA,NA,NA,NA
8fdc3,deep,flow.Sequence,3_0_0_0_3_0,NA,NA,completion,8411.5,415228.4000001,415224.7,415241.2,423652.7,423653.30000019,2024-03-07T08:51:23Z,423669.6,NULL,Schönheit,kirembo,d,NA,NA,NA,NA,sdf,NA,0,NA,NA,NA,NA,NA,NA,NA,NA,NA,NA,NA,NA,NA,NA,NA,NA,NA,NA,NA
8fdc3,shallow,flow.Sequence,3_0_0_0_3_1,NA,NA,skipped,NA,423653.4000001,NA,NA,423652.7,423653.5,2024-03-07T08:51:23Z,423669.6,NULL,Schönheit,kirembo,d,NA,NA,NA,NA,sdf,NA,0,NA,NA,NA,NA,NA,NA,NA,NA,NA,NA,NA,NA,NA,NA,NA,NA,NA,NA,NA
8fdc3,task,flow.Sequence,3_0_0_0_3,NA,NA,completion,8411.5,415228.30000019,415224.7,415241.2,423652.7,423653.5,2024-03-07T08:51:23Z,423669.6,NULL,Schönheit,kirembo,d,NA,NA,NA,NA,sdf,NA,0,NA,NA,NA,NA,NA,NA,NA,NA,NA,NA,NA,NA,NA,NA,NA,NA,NA,NA,NA
8fdc3,Deep Question,html.Page,3_0_0_0_4_0_0,NA,NA,form submission,4890.6000000477,423653.5,423652.7,423669.6,428560.20000005,428560.5,2024-03-07T08:51:28Z,428566.1,NULL,Zufall,kikuti,d,NA,NA,NA,NA,NA,NA,0,NA,NA,NA,NA,NA,NA,NA,NA,NA,NA,NA,NA,NA,NA,NA,NA,NA,NA,NA
8fdc3,"""Richtig""-Screen",canvas.Screen,3_0_0_0_4_0_1,NA,NA,skipped,NA,428563.60000014,NA,NA,428560.20000005,428563.9000001,2024-03-07T08:51:28Z,428566.1,NULL,Zufall,kikuti,d,NA,NA,NA,NA,sdf,NA,0,NA,NA,NA,NA,NA,NA,NA,NA,NA,NA,NA,NA,NA,NA,NA,NA,NA,NA,NA
8fdc3,"""Falsch""-Screen",canvas.Screen,3_0_0_0_4_0_2,NA,NA,timeout,4997.4,428564.60000014,428550.1,428566.1,433546.8,433547.70000005,2024-03-07T08:51:33Z,433563.5,NULL,Zufall,kikuti,d,NA,NA,NA,NA,sdf,0,0,NA,NA,NA,NA,NA,NA,NA,NA,NA,NA,NA,NA,NA,NA,NA,NA,NA,NA,NA
8fdc3,deep,flow.Sequence,3_0_0_0_4_0,NA,NA,completion,9877.2,423653.5,423652.7,423669.6,433546.8,433548,2024-03-07T08:51:33Z,433563.5,NULL,Zufall,kikuti,d,NA,NA,NA,NA,sdf,NA,0,NA,NA,NA,NA,NA,NA,NA,NA,NA,NA,NA,NA,NA,NA,NA,NA,NA,NA,NA
8fdc3,shallow,flow.Sequence,3_0_0_0_4_1,NA,NA,skipped,NA,433548.10000014,NA,NA,433546.8,433548.20000005,2024-03-07T08:51:33Z,433563.5,NULL,Zufall,kikuti,d,NA,NA,NA,NA,sdf,NA,0,NA,NA,NA,NA,NA,NA,NA,NA,NA,NA,NA,NA,NA,NA,NA,NA,NA,NA,NA
8fdc3,task,flow.Sequence,3_0_0_0_4,NA,NA,completion,9877.2,423653.5,423652.7,423669.6,433546.8,433548.4000001,2024-03-07T08:51:33Z,433563.5,NULL,Zufall,kikuti,d,NA,NA,NA,NA,sdf,NA,0,NA,NA,NA,NA,NA,NA,NA,NA,NA,NA,NA,NA,NA,NA,NA,NA,NA,NA,NA
8fdc3,deep,flow.Sequence,3_0_0_0_5_0,NA,NA,skipped,NA,433548.60000014,NA,NA,433546.8,433548.80000019,2024-03-07T08:51:33Z,433563.5,NULL,Auftrag,uagizaji,s,ghanima,kuzingatia,msukani,NA,sdf,NA,0,NA,NA,NA,NA,NA,NA,NA,NA,NA,NA,NA,NA,NA,NA,NA,NA,NA,NA,NA
8fdc3,Shallow Question,html.Page,3_0_0_0_5_1_0,NA,NA,form submission,6787.7000000477,433548.9000001,433546.8,433563.5,440351.20000005,440351.30000019,2024-03-07T08:51:40Z,440359,NULL,Auftrag,uagizaji,s,ghanima,kuzingatia,msukani,ghanima,NA,NA,0,NA,NA,NA,NA,NA,NA,NA,NA,NA,NA,NA,NA,NA,NA,NA,NA,NA,NA,NA
8fdc3,"""Richtig""-Screen",canvas.Screen,3_0_0_0_5_1_1,NA,NA,skipped,NA,440352.9000001,NA,NA,440351.20000005,440353,2024-03-07T08:51:40Z,440359,NULL,Auftrag,uagizaji,s,ghanima,kuzingatia,msukani,NA,sdf,NA,0,NA,NA,NA,NA,NA,NA,NA,NA,NA,NA,NA,NA,NA,NA,NA,NA,NA,NA,NA
8fdc3,"""Falsch""-Screen",canvas.Screen,3_0_0_0_5_1_2,NA,NA,timeout,4997.2,440353.30000019,440342.694,440359,445339.8,445340.60000014,2024-03-07T08:51:45Z,445356.2,NULL,Auftrag,uagizaji,s,ghanima,kuzingatia,msukani,NA,sdf,0,0,NA,NA,NA,NA,NA,NA,NA,NA,NA,NA,NA,NA,NA,NA,NA,NA,NA,NA,NA
8fdc3,shallow,flow.Sequence,3_0_0_0_5_1,NA,NA,completion,11776.3,433548.80000019,433546.8,433563.5,445339.8,445340.9000001,2024-03-07T08:51:45Z,445356.2,NULL,Auftrag,uagizaji,s,ghanima,kuzingatia,msukani,NA,sdf,NA,0,NA,NA,NA,NA,NA,NA,NA,NA,NA,NA,NA,NA,NA,NA,NA,NA,NA,NA,NA
8fdc3,task,flow.Sequence,3_0_0_0_5,NA,NA,completion,11776.3,433548.5,433546.8,433563.5,445339.8,445341.20000005,2024-03-07T08:51:45Z,445356.2,NULL,Auftrag,uagizaji,s,ghanima,kuzingatia,msukani,NA,sdf,NA,0,NA,NA,NA,NA,NA,NA,NA,NA,NA,NA,NA,NA,NA,NA,NA,NA,NA,NA,NA
8fdc3,Deep Question,html.Page,3_0_0_0_6_0_0,NA,NA,form submission,3012.3,445341.4000001,445339.8,445356.2,448368.5,448368.70000005,2024-03-07T08:51:48Z,448370.794,NULL,Schock,mshtuko,d,NA,NA,NA,NA,NA,NA,0,NA,NA,NA,NA,NA,NA,NA,NA,NA,NA,NA,NA,NA,NA,NA,NA,NA,NA,NA
8fdc3,"""Richtig""-Screen",canvas.Screen,3_0_0_0_6_0_1,NA,NA,skipped,NA,448370,NA,NA,448368.5,448370.10000014,2024-03-07T08:51:48Z,448370.794,NULL,Schock,mshtuko,d,NA,NA,NA,NA,sdf,NA,0,NA,NA,NA,NA,NA,NA,NA,NA,NA,NA,NA,NA,NA,NA,NA,NA,NA,NA,NA
8fdc3,"""Falsch""-Screen",canvas.Screen,3_0_0_0_6_0_2,NA,NA,timeout,4996.906,448370.5,448370.794,448370.794,453351.2,453352.10000014,2024-03-07T08:51:53Z,453367.7,NULL,Schock,mshtuko,d,NA,NA,NA,NA,sdf,0,0,NA,NA,NA,NA,NA,NA,NA,NA,NA,NA,NA,NA,NA,NA,NA,NA,NA,NA,NA
8fdc3,deep,flow.Sequence,3_0_0_0_6_0,NA,NA,completion,7995,445341.30000019,445339.8,445356.2,453351.2,453352.4000001,2024-03-07T08:51:53Z,453367.7,NULL,Schock,mshtuko,d,NA,NA,NA,NA,sdf,NA,0,NA,NA,NA,NA,NA,NA,NA,NA,NA,NA,NA,NA,NA,NA,NA,NA,NA,NA,NA
8fdc3,shallow,flow.Sequence,3_0_0_0_6_1,NA,NA,skipped,NA,453352.60000014,NA,NA,453351.2,453352.70000005,2024-03-07T08:51:53Z,453367.7,NULL,Schock,mshtuko,d,NA,NA,NA,NA,sdf,NA,0,NA,NA,NA,NA,NA,NA,NA,NA,NA,NA,NA,NA,NA,NA,NA,NA,NA,NA,NA
8fdc3,task,flow.Sequence,3_0_0_0_6,NA,NA,completion,7995,445341.30000019,445339.8,445356.2,453351.2,453353,2024-03-07T08:51:53Z,453367.7,NULL,Schock,mshtuko,d,NA,NA,NA,NA,sdf,NA,0,NA,NA,NA,NA,NA,NA,NA,NA,NA,NA,NA,NA,NA,NA,NA,NA,NA,NA,NA
8fdc3,deep,flow.Sequence,3_0_0_0_7_0,NA,NA,skipped,NA,453353.10000014,NA,NA,453351.2,453353.20000005,2024-03-07T08:51:53Z,453367.7,NULL,Hoffnung,matarajio,s,kutaalamika,uratibu,mvumbuzi,NA,sdf,NA,0,NA,NA,NA,NA,NA,NA,NA,NA,NA,NA,NA,NA,NA,NA,NA,NA,NA,NA,NA
8fdc3,Shallow Question,html.Page,3_0_0_0_7_1_0,NA,NA,form submission,6422.900000143,453353.30000019,453351.2,453367.7,459790.60000014,459790.80000019,2024-03-07T08:51:59Z,459797.526,NULL,Hoffnung,matarajio,s,kutaalamika,uratibu,mvumbuzi,kutaalamika,NA,NA,0,NA,NA,NA,NA,NA,NA,NA,NA,NA,NA,NA,NA,NA,NA,NA,NA,NA,NA,NA
8fdc3,"""Richtig""-Screen",canvas.Screen,3_0_0_0_7_1_1,NA,NA,skipped,NA,459793.60000014,NA,NA,459790.60000014,459793.70000005,2024-03-07T08:51:59Z,459797.526,NULL,Hoffnung,matarajio,s,kutaalamika,uratibu,mvumbuzi,NA,sdf,NA,0,NA,NA,NA,NA,NA,NA,NA,NA,NA,NA,NA,NA,NA,NA,NA,NA,NA,NA,NA
8fdc3,"""Falsch""-Screen",canvas.Screen,3_0_0_0_7_1_2,NA,NA,timeout,4996.974,459794.10000014,459797.526,459797.526,464777.8,464778.70000005,2024-03-07T08:52:04Z,464794.5,NULL,Hoffnung,matarajio,s,kutaalamika,uratibu,mvumbuzi,NA,sdf,0,0,NA,NA,NA,NA,NA,NA,NA,NA,NA,NA,NA,NA,NA,NA,NA,NA,NA,NA,NA
8fdc3,shallow,flow.Sequence,3_0_0_0_7_1,NA,NA,completion,11410.1,453353.30000019,453351.2,453367.7,464777.8,464779.30000019,2024-03-07T08:52:04Z,464794.5,NULL,Hoffnung,matarajio,s,kutaalamika,uratibu,mvumbuzi,NA,sdf,NA,0,NA,NA,NA,NA,NA,NA,NA,NA,NA,NA,NA,NA,NA,NA,NA,NA,NA,NA,NA
8fdc3,task,flow.Sequence,3_0_0_0_7,NA,NA,completion,11410.1,453353.10000014,453351.2,453367.7,464777.8,464779.4000001,2024-03-07T08:52:04Z,464794.5,NULL,Hoffnung,matarajio,s,kutaalamika,uratibu,mvumbuzi,NA,sdf,NA,0,NA,NA,NA,NA,NA,NA,NA,NA,NA,NA,NA,NA,NA,NA,NA,NA,NA,NA,NA
8fdc3,block,flow.Loop,3_0_0_0,NA,NA,completion,83109.168,381669.10000014,381668.632,381668.632,464777.8,464779.70000005,2024-03-07T08:52:04Z,464794.5,NULL,NA,NA,NA,NA,NA,NA,NA,sdf,NA,0,NA,NA,NA,NA,NA,NA,NA,NA,NA,NA,NA,NA,NA,NA,NA,NA,NA,NA,NA
8fdc3,weiter,canvas.Screen,3_0_0_1,sdf,keypress(Space),response,1479.1000001431,464779.80000019,464777.8,464794.5,466273.60000014,466274.10000014,2024-03-07T08:52:06Z,466293.3,NULL,NA,NA,NA,NA,NA,NA,NA,sdf,NA,0,NA,NA,NA,NA,NA,NA,NA,NA,NA,NA,NA,NA,NA,NA,NA,NA,NA,NA,NA
8fdc3,check continue,flow.Sequence,3_0_0,NA,NA,completion,84604.968000143,381669.10000014,381668.632,381668.632,466273.60000014,466274.20000005,2024-03-07T08:52:06Z,466293.3,NULL,NA,NA,NA,NA,NA,NA,NA,sdf,NA,0,NA,NA,NA,NA,NA,NA,NA,NA,NA,NA,NA,NA,NA,NA,NA,NA,NA,NA,NA
8fdc3,deep,flow.Sequence,3_0_1_0_0_0,NA,NA,skipped,NA,466293.80000019,NA,NA,466273.60000014,466293.9000001,2024-03-07T08:52:06Z,466293.3,NULL,Hoffnung,matarajio,s,kutaalamika,uratibu,mvumbuzi,NA,sdfdsf,NA,1,NA,NA,NA,NA,NA,NA,NA,NA,NA,NA,NA,NA,NA,NA,NA,NA,NA,NA,NA
8fdc3,Shallow Question,html.Page,3_0_1_0_0_1_0,NA,NA,form submission,3569.2,466293.9000001,466277.774,466293.3,469862.5,469862.70000005,2024-03-07T08:52:10Z,469874.3,NULL,Hoffnung,matarajio,s,kutaalamika,uratibu,mvumbuzi,matarajio,NA,NA,1,NA,NA,NA,NA,NA,NA,NA,NA,NA,NA,NA,NA,NA,NA,NA,NA,NA,NA,NA
8fdc3,"""Richtig""-Screen",canvas.Screen,3_0_1_0_0_1_1,NA,NA,timeout,4997.1,469865.80000019,469857.9,469874.3,474854.9,474855.70000005,2024-03-07T08:52:15Z,474871.4,NULL,Hoffnung,matarajio,s,kutaalamika,uratibu,mvumbuzi,NA,sdfdsf,1,1,NA,NA,NA,NA,NA,NA,NA,NA,NA,NA,NA,NA,NA,NA,NA,NA,NA,NA,NA
8fdc3,"""Falsch""-Screen",canvas.Screen,3_0_1_0_0_1_2,NA,NA,skipped,NA,474860.30000019,NA,NA,474854.9,474860.5,2024-03-07T08:52:15Z,474871.4,NULL,Hoffnung,matarajio,s,kutaalamika,uratibu,mvumbuzi,NA,sdfdsf,NA,1,NA,NA,NA,NA,NA,NA,NA,NA,NA,NA,NA,NA,NA,NA,NA,NA,NA,NA,NA
8fdc3,shallow,flow.Sequence,3_0_1_0_0_1,NA,NA,completion,8561.6,466293.9000001,466277.774,466293.3,474854.9,474860.70000005,2024-03-07T08:52:15Z,474871.4,NULL,Hoffnung,matarajio,s,kutaalamika,uratibu,mvumbuzi,NA,sdfdsf,NA,1,NA,NA,NA,NA,NA,NA,NA,NA,NA,NA,NA,NA,NA,NA,NA,NA,NA,NA,NA
8fdc3,task,flow.Sequence,3_0_1_0_0,NA,NA,completion,8561.6,466293.80000019,466277.774,466293.3,474854.9,474860.70000005,2024-03-07T08:52:15Z,474871.4,NULL,Hoffnung,matarajio,s,kutaalamika,uratibu,mvumbuzi,NA,sdfdsf,NA,1,NA,NA,NA,NA,NA,NA,NA,NA,NA,NA,NA,NA,NA,NA,NA,NA,NA,NA,NA
8fdc3,deep,flow.Sequence,3_0_1_0_1_0,NA,NA,skipped,NA,474860.80000019,NA,NA,474854.9,474860.80000019,2024-03-07T08:52:15Z,474871.4,NULL,Verpackung,ufungaji,s,uhusiano,upimaji,uchunguzi,NA,sdfdsf,NA,1,NA,NA,NA,NA,NA,NA,NA,NA,NA,NA,NA,NA,NA,NA,NA,NA,NA,NA,NA
8fdc3,Shallow Question,html.Page,3_0_1_0_1_1_0,NA,NA,form submission,12124.000000095,474860.80000019,474854.9,474871.4,486995.4000001,486995.60000014,2024-03-07T08:52:27Z,486997.594,NULL,Verpackung,ufungaji,s,uhusiano,upimaji,uchunguzi,ufungaji,NA,NA,1,NA,NA,NA,NA,NA,NA,NA,NA,NA,NA,NA,NA,NA,NA,NA,NA,NA,NA,NA
8fdc3,"""Richtig""-Screen",canvas.Screen,3_0_1_0_1_1_1,NA,NA,timeout,4996.906,486998.80000019,486997.594,486997.594,491977.7,491978.60000014,2024-03-07T08:52:32Z,491994.5,NULL,Verpackung,ufungaji,s,uhusiano,upimaji,uchunguzi,NA,sdfdsf,1,1,NA,NA,NA,NA,NA,NA,NA,NA,NA,NA,NA,NA,NA,NA,NA,NA,NA,NA,NA
8fdc3,"""Falsch""-Screen",canvas.Screen,3_0_1_0_1_1_2,NA,NA,skipped,NA,491984,NA,NA,491977.7,491984.10000014,2024-03-07T08:52:32Z,491994.5,NULL,Verpackung,ufungaji,s,uhusiano,upimaji,uchunguzi,NA,sdfdsf,NA,1,NA,NA,NA,NA,NA,NA,NA,NA,NA,NA,NA,NA,NA,NA,NA,NA,NA,NA,NA
8fdc3,shallow,flow.Sequence,3_0_1_0_1_1,NA,NA,completion,17106.3,474860.80000019,474854.9,474871.4,491977.7,491984.10000014,2024-03-07T08:52:32Z,491994.5,NULL,Verpackung,ufungaji,s,uhusiano,upimaji,uchunguzi,NA,sdfdsf,NA,1,NA,NA,NA,NA,NA,NA,NA,NA,NA,NA,NA,NA,NA,NA,NA,NA,NA,NA,NA
8fdc3,task,flow.Sequence,3_0_1_0_1,NA,NA,completion,17106.3,474860.70000005,474854.9,474871.4,491977.7,491984.20000005,2024-03-07T08:52:32Z,491994.5,NULL,Verpackung,ufungaji,s,uhusiano,upimaji,uchunguzi,NA,sdfdsf,NA,1,NA,NA,NA,NA,NA,NA,NA,NA,NA,NA,NA,NA,NA,NA,NA,NA,NA,NA,NA
8fdc3,Deep Question,html.Page,3_0_1_0_2_0_0,NA,NA,form submission,3739.4000000954,491984.30000019,491977.7,491994.5,495733.9000001,495734.20000005,2024-03-07T08:52:35Z,495742.422,NULL,Zufall,kikuti,d,NA,NA,NA,NA,NA,NA,1,NA,NA,NA,NA,NA,NA,NA,NA,NA,NA,NA,NA,NA,NA,NA,NA,NA,NA,NA
8fdc3,"""Richtig""-Screen",canvas.Screen,3_0_1_0_2_0_1,NA,NA,skipped,NA,495737.20000005,NA,NA,495733.9000001,495737.4000001,2024-03-07T08:52:35Z,495742.422,NULL,Zufall,kikuti,d,NA,NA,NA,NA,sdfdsf,NA,1,NA,NA,NA,NA,NA,NA,NA,NA,NA,NA,NA,NA,NA,NA,NA,NA,NA,NA,NA
8fdc3,"""Falsch""-Screen",canvas.Screen,3_0_1_0_2_0_2,NA,NA,timeout,4996.778,495738,495742.422,495742.422,500722.2,500725.20000005,2024-03-07T08:52:40Z,500739.2,NULL,Zufall,kikuti,d,NA,NA,NA,NA,sdfdsf,0,1,NA,NA,NA,NA,NA,NA,NA,NA,NA,NA,NA,NA,NA,NA,NA,NA,NA,NA,NA
8fdc3,deep,flow.Sequence,3_0_1_0_2_0,NA,NA,completion,8727.7,491984.30000019,491977.7,491994.5,500722.2,500725.70000005,2024-03-07T08:52:40Z,500739.2,NULL,Zufall,kikuti,d,NA,NA,NA,NA,sdfdsf,NA,1,NA,NA,NA,NA,NA,NA,NA,NA,NA,NA,NA,NA,NA,NA,NA,NA,NA,NA,NA
8fdc3,shallow,flow.Sequence,3_0_1_0_2_1,NA,NA,skipped,NA,500725.80000019,NA,NA,500722.2,500726,2024-03-07T08:52:40Z,500739.2,NULL,Zufall,kikuti,d,NA,NA,NA,NA,sdfdsf,NA,1,NA,NA,NA,NA,NA,NA,NA,NA,NA,NA,NA,NA,NA,NA,NA,NA,NA,NA,NA
8fdc3,task,flow.Sequence,3_0_1_0_2,NA,NA,completion,8727.7,491984.30000019,491977.7,491994.5,500722.2,500726.30000019,2024-03-07T08:52:40Z,500739.2,NULL,Zufall,kikuti,d,NA,NA,NA,NA,sdfdsf,NA,1,NA,NA,NA,NA,NA,NA,NA,NA,NA,NA,NA,NA,NA,NA,NA,NA,NA,NA,NA
8fdc3,Deep Question,html.Page,3_0_1_0_3_0_0,NA,NA,form submission,2643.5000000477,500726.5,500722.2,500739.2,503382.70000005,503382.9000001,2024-03-07T08:52:43Z,503387,NULL,Schock,mshtuko,d,NA,NA,NA,NA,NA,NA,1,NA,NA,NA,NA,NA,NA,NA,NA,NA,NA,NA,NA,NA,NA,NA,NA,NA,NA,NA
8fdc3,"""Richtig""-Screen",canvas.Screen,3_0_1_0_3_0_1,NA,NA,skipped,NA,503385.10000014,NA,NA,503382.70000005,503385.20000005,2024-03-07T08:52:43Z,503387,NULL,Schock,mshtuko,d,NA,NA,NA,NA,sdfdsf,NA,1,NA,NA,NA,NA,NA,NA,NA,NA,NA,NA,NA,NA,NA,NA,NA,NA,NA,NA,NA
8fdc3,"""Falsch""-Screen",canvas.Screen,3_0_1_0_3_0_2,NA,NA,timeout,4997,503385.70000005,503370.858,503387,508367.8,508368.60000014,2024-03-07T08:52:48Z,508384,NULL,Schock,mshtuko,d,NA,NA,NA,NA,sdfdsf,0,1,NA,NA,NA,NA,NA,NA,NA,NA,NA,NA,NA,NA,NA,NA,NA,NA,NA,NA,NA
8fdc3,deep,flow.Sequence,3_0_1_0_3_0,NA,NA,completion,7628.6,500726.4000001,500722.2,500739.2,508367.8,508368.9000001,2024-03-07T08:52:48Z,508384,NULL,Schock,mshtuko,d,NA,NA,NA,NA,sdfdsf,NA,1,NA,NA,NA,NA,NA,NA,NA,NA,NA,NA,NA,NA,NA,NA,NA,NA,NA,NA,NA
8fdc3,shallow,flow.Sequence,3_0_1_0_3_1,NA,NA,skipped,NA,508369.10000014,NA,NA,508367.8,508369.20000005,2024-03-07T08:52:48Z,508384,NULL,Schock,mshtuko,d,NA,NA,NA,NA,sdfdsf,NA,1,NA,NA,NA,NA,NA,NA,NA,NA,NA,NA,NA,NA,NA,NA,NA,NA,NA,NA,NA
8fdc3,task,flow.Sequence,3_0_1_0_3,NA,NA,completion,7628.6,500726.4000001,500722.2,500739.2,508367.8,508369.4000001,2024-03-07T08:52:48Z,508384,NULL,Schock,mshtuko,d,NA,NA,NA,NA,sdfdsf,NA,1,NA,NA,NA,NA,NA,NA,NA,NA,NA,NA,NA,NA,NA,NA,NA,NA,NA,NA,NA
8fdc3,Deep Question,html.Page,3_0_1_0_4_0_0,NA,NA,form submission,3957,508369.5,508367.8,508384,512341,512341.10000014,2024-03-07T08:52:52Z,512348.4,NULL,Schönheit,kirembo,d,NA,NA,NA,NA,NA,NA,1,NA,NA,NA,NA,NA,NA,NA,NA,NA,NA,NA,NA,NA,NA,NA,NA,NA,NA,NA
8fdc3,"""Richtig""-Screen",canvas.Screen,3_0_1_0_4_0_1,NA,NA,skipped,NA,512342.70000005,NA,NA,512341,512342.80000019,2024-03-07T08:52:52Z,512348.4,NULL,Schönheit,kirembo,d,NA,NA,NA,NA,sdfdsf,NA,1,NA,NA,NA,NA,NA,NA,NA,NA,NA,NA,NA,NA,NA,NA,NA,NA,NA,NA,NA
8fdc3,"""Falsch""-Screen",canvas.Screen,3_0_1_0_4_0_2,NA,NA,timeout,4996.7,512343.20000005,512332.226,512348.4,517329,517329.60000014,2024-03-07T08:52:57Z,517345.1,NULL,Schönheit,kirembo,d,NA,NA,NA,NA,sdfdsf,0,1,NA,NA,NA,NA,NA,NA,NA,NA,NA,NA,NA,NA,NA,NA,NA,NA,NA,NA,NA
8fdc3,deep,flow.Sequence,3_0_1_0_4_0,NA,NA,completion,8945,508369.5,508367.8,508384,517329,517329.80000019,2024-03-07T08:52:57Z,517345.1,NULL,Schönheit,kirembo,d,NA,NA,NA,NA,sdfdsf,NA,1,NA,NA,NA,NA,NA,NA,NA,NA,NA,NA,NA,NA,NA,NA,NA,NA,NA,NA,NA
8fdc3,shallow,flow.Sequence,3_0_1_0_4_1,NA,NA,skipped,NA,517329.9000001,NA,NA,517329,517330,2024-03-07T08:52:57Z,517345.1,NULL,Schönheit,kirembo,d,NA,NA,NA,NA,sdfdsf,NA,1,NA,NA,NA,NA,NA,NA,NA,NA,NA,NA,NA,NA,NA,NA,NA,NA,NA,NA,NA
8fdc3,task,flow.Sequence,3_0_1_0_4,NA,NA,completion,8945,508369.4000001,508367.8,508384,517329,517330.10000014,2024-03-07T08:52:57Z,517345.1,NULL,Schönheit,kirembo,d,NA,NA,NA,NA,sdfdsf,NA,1,NA,NA,NA,NA,NA,NA,NA,NA,NA,NA,NA,NA,NA,NA,NA,NA,NA,NA,NA
8fdc3,Deep Question,html.Page,3_0_1_0_5_0_0,NA,NA,form submission,2553.3000000954,517330.20000005,517329,517345.1,519898.4000001,519898.5,2024-03-07T08:53:00Z,519910.2,NULL,Theorie,nadharia,d,NA,NA,NA,NA,NA,NA,1,NA,NA,NA,NA,NA,NA,NA,NA,NA,NA,NA,NA,NA,NA,NA,NA,NA,NA,NA
8fdc3,"""Richtig""-Screen",canvas.Screen,3_0_1_0_5_0_1,NA,NA,skipped,NA,519900.4000001,NA,NA,519898.4000001,519900.5,2024-03-07T08:53:00Z,519910.2,NULL,Theorie,nadharia,d,NA,NA,NA,NA,sdfdsf,NA,1,NA,NA,NA,NA,NA,NA,NA,NA,NA,NA,NA,NA,NA,NA,NA,NA,NA,NA,NA
8fdc3,"""Falsch""-Screen",canvas.Screen,3_0_1_0_5_0_2,NA,NA,timeout,4997.2,519901.10000014,519893.728,519910.2,524890.8,524891.70000005,2024-03-07T08:53:05Z,524907.4,NULL,Theorie,nadharia,d,NA,NA,NA,NA,sdfdsf,0,1,NA,NA,NA,NA,NA,NA,NA,NA,NA,NA,NA,NA,NA,NA,NA,NA,NA,NA,NA
8fdc3,deep,flow.Sequence,3_0_1_0_5_0,NA,NA,completion,7545.7000000001,517330.20000005,517329,517345.1,524890.8,524892,2024-03-07T08:53:05Z,524907.4,NULL,Theorie,nadharia,d,NA,NA,NA,NA,sdfdsf,NA,1,NA,NA,NA,NA,NA,NA,NA,NA,NA,NA,NA,NA,NA,NA,NA,NA,NA,NA,NA
8fdc3,shallow,flow.Sequence,3_0_1_0_5_1,NA,NA,skipped,NA,524892.20000005,NA,NA,524890.8,524892.20000005,2024-03-07T08:53:05Z,524907.4,NULL,Theorie,nadharia,d,NA,NA,NA,NA,sdfdsf,NA,1,NA,NA,NA,NA,NA,NA,NA,NA,NA,NA,NA,NA,NA,NA,NA,NA,NA,NA,NA
8fdc3,task,flow.Sequence,3_0_1_0_5,NA,NA,completion,7545.7000000001,517330.20000005,517329,517345.1,524890.8,524892.4000001,2024-03-07T08:53:05Z,524907.4,NULL,Theorie,nadharia,d,NA,NA,NA,NA,sdfdsf,NA,1,NA,NA,NA,NA,NA,NA,NA,NA,NA,NA,NA,NA,NA,NA,NA,NA,NA,NA,NA
8fdc3,deep,flow.Sequence,3_0_1_0_6_0,NA,NA,skipped,NA,524892.60000014,NA,NA,524890.8,524892.70000005,2024-03-07T08:53:05Z,524907.4,NULL,Wettbewerb,ushindani,s,mapendezi,kichocheo,ubaguzi,NA,sdfdsf,NA,1,NA,NA,NA,NA,NA,NA,NA,NA,NA,NA,NA,NA,NA,NA,NA,NA,NA,NA,NA
8fdc3,Shallow Question,html.Page,3_0_1_0_6_1_0,NA,NA,form submission,9462.0000000953,524892.80000019,524890.8,524907.4,534369.4000001,534369.60000014,2024-03-07T08:53:14Z,534384.9,NULL,Wettbewerb,ushindani,s,mapendezi,kichocheo,ubaguzi,ushindani,NA,NA,1,NA,NA,NA,NA,NA,NA,NA,NA,NA,NA,NA,NA,NA,NA,NA,NA,NA,NA,NA
8fdc3,"""Richtig""-Screen",canvas.Screen,3_0_1_0_6_1_1,NA,NA,timeout,4997,534372.70000005,534368.69,534384.9,539365.2,539366.30000019,2024-03-07T08:53:19Z,539381.9,NULL,Wettbewerb,ushindani,s,mapendezi,kichocheo,ubaguzi,NA,sdfdsf,1,1,NA,NA,NA,NA,NA,NA,NA,NA,NA,NA,NA,NA,NA,NA,NA,NA,NA,NA,NA
8fdc3,"""Falsch""-Screen",canvas.Screen,3_0_1_0_6_1_2,NA,NA,skipped,NA,539371.80000019,NA,NA,539365.2,539371.9000001,2024-03-07T08:53:19Z,539381.9,NULL,Wettbewerb,ushindani,s,mapendezi,kichocheo,ubaguzi,NA,sdfdsf,NA,1,NA,NA,NA,NA,NA,NA,NA,NA,NA,NA,NA,NA,NA,NA,NA,NA,NA,NA,NA
8fdc3,shallow,flow.Sequence,3_0_1_0_6_1,NA,NA,completion,14457.8,524892.80000019,524890.8,524907.4,539365.2,539371.9000001,2024-03-07T08:53:19Z,539381.9,NULL,Wettbewerb,ushindani,s,mapendezi,kichocheo,ubaguzi,NA,sdfdsf,NA,1,NA,NA,NA,NA,NA,NA,NA,NA,NA,NA,NA,NA,NA,NA,NA,NA,NA,NA,NA
8fdc3,task,flow.Sequence,3_0_1_0_6,NA,NA,completion,14457.8,524892.5,524890.8,524907.4,539365.2,539372,2024-03-07T08:53:19Z,539381.9,NULL,Wettbewerb,ushindani,s,mapendezi,kichocheo,ubaguzi,NA,sdfdsf,NA,1,NA,NA,NA,NA,NA,NA,NA,NA,NA,NA,NA,NA,NA,NA,NA,NA,NA,NA,NA
8fdc3,deep,flow.Sequence,3_0_1_0_7_0,NA,NA,skipped,NA,539372,NA,NA,539365.2,539372.10000014,2024-03-07T08:53:19Z,539381.9,NULL,Auftrag,uagizaji,s,ghanima,kuzingatia,msukani,NA,sdfdsf,NA,1,NA,NA,NA,NA,NA,NA,NA,NA,NA,NA,NA,NA,NA,NA,NA,NA,NA,NA,NA
8fdc3,Shallow Question,html.Page,3_0_1_0_7_1_0,NA,NA,form submission,7260.1,539372.10000014,539365.2,539381.9,546642,546642.20000005,2024-03-07T08:53:26Z,546643.9,NULL,Auftrag,uagizaji,s,ghanima,kuzingatia,msukani,uagizaji,NA,NA,1,NA,NA,NA,NA,NA,NA,NA,NA,NA,NA,NA,NA,NA,NA,NA,NA,NA,NA,NA
8fdc3,"""Richtig""-Screen",canvas.Screen,3_0_1_0_7_1_1,NA,NA,timeout,4996.9,546643.60000014,546627.796,546643.9,551624.7,551625.10000014,2024-03-07T08:53:31Z,551640.8,NULL,Auftrag,uagizaji,s,ghanima,kuzingatia,msukani,NA,sdfdsf,1,1,NA,NA,NA,NA,NA,NA,NA,NA,NA,NA,NA,NA,NA,NA,NA,NA,NA,NA,NA
8fdc3,"""Falsch""-Screen",canvas.Screen,3_0_1_0_7_1_2,NA,NA,skipped,NA,551626.4000001,NA,NA,551624.7,551626.4000001,2024-03-07T08:53:31Z,551640.8,NULL,Auftrag,uagizaji,s,ghanima,kuzingatia,msukani,NA,sdfdsf,NA,1,NA,NA,NA,NA,NA,NA,NA,NA,NA,NA,NA,NA,NA,NA,NA,NA,NA,NA,NA
8fdc3,shallow,flow.Sequence,3_0_1_0_7_1,NA,NA,completion,12242.8,539372.10000014,539365.2,539381.9,551624.7,551626.60000014,2024-03-07T08:53:31Z,551640.8,NULL,Auftrag,uagizaji,s,ghanima,kuzingatia,msukani,NA,sdfdsf,NA,1,NA,NA,NA,NA,NA,NA,NA,NA,NA,NA,NA,NA,NA,NA,NA,NA,NA,NA,NA
8fdc3,task,flow.Sequence,3_0_1_0_7,NA,NA,completion,12242.8,539372,539365.2,539381.9,551624.7,551626.60000014,2024-03-07T08:53:31Z,551640.8,NULL,Auftrag,uagizaji,s,ghanima,kuzingatia,msukani,NA,sdfdsf,NA,1,NA,NA,NA,NA,NA,NA,NA,NA,NA,NA,NA,NA,NA,NA,NA,NA,NA,NA,NA
8fdc3,block,flow.Loop,3_0_1_0,NA,NA,completion,85331.4,466293.70000005,466277.774,466293.3,551624.7,551626.60000014,2024-03-07T08:53:31Z,551640.8,NULL,NA,NA,NA,NA,NA,NA,NA,sdfdsf,NA,1,NA,NA,NA,NA,NA,NA,NA,NA,NA,NA,NA,NA,NA,NA,NA,NA,NA,NA,NA
8fdc3,weiter,canvas.Screen,3_0_1_1,sdf,keypress(Space),response,1288.6000000953,551626.80000019,551624.7,551640.8,552929.4000001,552930.4000001,2024-03-07T08:53:33Z,552940.748,NULL,NA,NA,NA,NA,NA,NA,NA,sdfdsf,NA,1,NA,NA,NA,NA,NA,NA,NA,NA,NA,NA,NA,NA,NA,NA,NA,NA,NA,NA,NA
8fdc3,check continue,flow.Sequence,3_0_1,NA,NA,completion,86636.100000095,466293.70000005,466277.774,466293.3,552929.4000001,552930.70000005,2024-03-07T08:53:33Z,552940.748,NULL,NA,NA,NA,NA,NA,NA,NA,sdfdsf,NA,1,NA,NA,NA,NA,NA,NA,NA,NA,NA,NA,NA,NA,NA,NA,NA,NA,NA,NA,NA
8fdc3,Deep Question,html.Page,3_0_2_0_0_0_0,NA,NA,form submission,6845.0520001907,552948.5,552940.748,552940.748,559785.80000019,559786.10000014,2024-03-07T08:53:39Z,559804,NULL,Schock,mshtuko,d,NA,NA,NA,NA,NA,NA,2,NA,NA,NA,NA,NA,NA,NA,NA,NA,NA,NA,NA,NA,NA,NA,NA,NA,NA,NA
8fdc3,"""Richtig""-Screen",canvas.Screen,3_0_2_0_0_0_1,NA,NA,skipped,NA,559789,NA,NA,559785.80000019,559789.20000005,2024-03-07T08:53:39Z,559804,NULL,Schock,mshtuko,d,NA,NA,NA,NA,sdf,NA,2,NA,NA,NA,NA,NA,NA,NA,NA,NA,NA,NA,NA,NA,NA,NA,NA,NA,NA,NA
8fdc3,"""Falsch""-Screen",canvas.Screen,3_0_2_0_0_0_2,NA,NA,timeout,4995.9,559790,559786.494,559804,564783.2,564783.60000014,2024-03-07T08:53:44Z,564799.9,NULL,Schock,mshtuko,d,NA,NA,NA,NA,sdf,0,2,NA,NA,NA,NA,NA,NA,NA,NA,NA,NA,NA,NA,NA,NA,NA,NA,NA,NA,NA
8fdc3,deep,flow.Sequence,3_0_2_0_0_0,NA,NA,completion,11842.452,552948.5,552940.748,552940.748,564783.2,564783.70000005,2024-03-07T08:53:44Z,564799.9,NULL,Schock,mshtuko,d,NA,NA,NA,NA,sdf,NA,2,NA,NA,NA,NA,NA,NA,NA,NA,NA,NA,NA,NA,NA,NA,NA,NA,NA,NA,NA
8fdc3,shallow,flow.Sequence,3_0_2_0_0_1,NA,NA,skipped,NA,564783.80000019,NA,NA,564783.2,564783.80000019,2024-03-07T08:53:44Z,564799.9,NULL,Schock,mshtuko,d,NA,NA,NA,NA,sdf,NA,2,NA,NA,NA,NA,NA,NA,NA,NA,NA,NA,NA,NA,NA,NA,NA,NA,NA,NA,NA
8fdc3,task,flow.Sequence,3_0_2_0_0,NA,NA,completion,11842.452,552948.5,552940.748,552940.748,564783.2,564783.9000001,2024-03-07T08:53:44Z,564799.9,NULL,Schock,mshtuko,d,NA,NA,NA,NA,sdf,NA,2,NA,NA,NA,NA,NA,NA,NA,NA,NA,NA,NA,NA,NA,NA,NA,NA,NA,NA,NA
8fdc3,Deep Question,html.Page,3_0_2_0_1_0_0,NA,NA,form submission,7059.0000000953,564783.9000001,564783.2,564799.9,571858.9000001,571859,2024-03-07T08:53:52Z,571861.928,NULL,Zufall,kikuti,d,NA,NA,NA,nadhara,NA,NA,2,NA,NA,NA,NA,NA,NA,NA,NA,NA,NA,NA,NA,NA,NA,NA,NA,NA,NA,NA
8fdc3,"""Richtig""-Screen",canvas.Screen,3_0_2_0_1_0_1,NA,NA,skipped,NA,571860.5,NA,NA,571858.9000001,571860.5,2024-03-07T08:53:52Z,571861.928,NULL,Zufall,kikuti,d,NA,NA,NA,NA,sdf,NA,2,NA,NA,NA,NA,NA,NA,NA,NA,NA,NA,NA,NA,NA,NA,NA,NA,NA,NA,NA
8fdc3,"""Falsch""-Screen",canvas.Screen,3_0_2_0_1_0_2,NA,NA,timeout,4996.772,571861,571861.928,571861.928,576842.2,576843.20000005,2024-03-07T08:53:57Z,576858.7,NULL,Zufall,kikuti,d,NA,NA,NA,NA,sdf,0,2,NA,NA,NA,NA,NA,NA,NA,NA,NA,NA,NA,NA,NA,NA,NA,NA,NA,NA,NA
8fdc3,deep,flow.Sequence,3_0_2_0_1_0,NA,NA,completion,12042.3,564783.9000001,564783.2,564799.9,576842.2,576843.4000001,2024-03-07T08:53:57Z,576858.7,NULL,Zufall,kikuti,d,NA,NA,NA,NA,sdf,NA,2,NA,NA,NA,NA,NA,NA,NA,NA,NA,NA,NA,NA,NA,NA,NA,NA,NA,NA,NA
8fdc3,shallow,flow.Sequence,3_0_2_0_1_1,NA,NA,skipped,NA,576843.4000001,NA,NA,576842.2,576843.5,2024-03-07T08:53:57Z,576858.7,NULL,Zufall,kikuti,d,NA,NA,NA,NA,sdf,NA,2,NA,NA,NA,NA,NA,NA,NA,NA,NA,NA,NA,NA,NA,NA,NA,NA,NA,NA,NA
8fdc3,task,flow.Sequence,3_0_2_0_1,NA,NA,completion,12042.3,564783.9000001,564783.2,564799.9,576842.2,576843.5,2024-03-07T08:53:57Z,576858.7,NULL,Zufall,kikuti,d,NA,NA,NA,NA,sdf,NA,2,NA,NA,NA,NA,NA,NA,NA,NA,NA,NA,NA,NA,NA,NA,NA,NA,NA,NA,NA
8fdc3,deep,flow.Sequence,3_0_2_0_2_0,NA,NA,skipped,NA,576843.5,NA,NA,576842.2,576843.60000014,2024-03-07T08:53:57Z,576858.7,NULL,Hoffnung,matarajio,s,kutaalamika,uratibu,mvumbuzi,NA,sdf,NA,2,NA,NA,NA,NA,NA,NA,NA,NA,NA,NA,NA,NA,NA,NA,NA,NA,NA,NA,NA
8fdc3,Shallow Question,html.Page,3_0_2_0_2_1_0,NA,NA,form submission,4748.7000000954,576843.60000014,576842.2,576858.7,581607.4000001,581607.60000014,2024-03-07T08:54:01Z,581622.7,NULL,Hoffnung,matarajio,s,kutaalamika,uratibu,mvumbuzi,matarajio,NA,NA,2,NA,NA,NA,NA,NA,NA,NA,NA,NA,NA,NA,NA,NA,NA,NA,NA,NA,NA,NA
8fdc3,"""Richtig""-Screen",canvas.Screen,3_0_2_0_2_1_1,NA,NA,timeout,4997.2000000001,581612.20000005,581606.362,581622.7,586603,586603.5,2024-03-07T08:54:06Z,586619.9,NULL,Hoffnung,matarajio,s,kutaalamika,uratibu,mvumbuzi,NA,sdf,1,2,NA,NA,NA,NA,NA,NA,NA,NA,NA,NA,NA,NA,NA,NA,NA,NA,NA,NA,NA
8fdc3,"""Falsch""-Screen",canvas.Screen,3_0_2_0_2_1_2,NA,NA,skipped,NA,586605.20000005,NA,NA,586603,586605.30000019,2024-03-07T08:54:06Z,586619.9,NULL,Hoffnung,matarajio,s,kutaalamika,uratibu,mvumbuzi,NA,sdf,NA,2,NA,NA,NA,NA,NA,NA,NA,NA,NA,NA,NA,NA,NA,NA,NA,NA,NA,NA,NA
8fdc3,shallow,flow.Sequence,3_0_2_0_2_1,NA,NA,completion,9744.3,576843.60000014,576842.2,576858.7,586603,586605.30000019,2024-03-07T08:54:06Z,586619.9,NULL,Hoffnung,matarajio,s,kutaalamika,uratibu,mvumbuzi,NA,sdf,NA,2,NA,NA,NA,NA,NA,NA,NA,NA,NA,NA,NA,NA,NA,NA,NA,NA,NA,NA,NA
8fdc3,task,flow.Sequence,3_0_2_0_2,NA,NA,completion,9744.3,576843.5,576842.2,576858.7,586603,586605.30000019,2024-03-07T08:54:06Z,586619.9,NULL,Hoffnung,matarajio,s,kutaalamika,uratibu,mvumbuzi,NA,sdf,NA,2,NA,NA,NA,NA,NA,NA,NA,NA,NA,NA,NA,NA,NA,NA,NA,NA,NA,NA,NA
8fdc3,deep,flow.Sequence,3_0_2_0_3_0,NA,NA,skipped,NA,586605.5,NA,NA,586603,586605.5,2024-03-07T08:54:06Z,586619.9,NULL,Auftrag,uagizaji,s,ghanima,kuzingatia,msukani,NA,sdf,NA,2,NA,NA,NA,NA,NA,NA,NA,NA,NA,NA,NA,NA,NA,NA,NA,NA,NA,NA,NA
8fdc3,Shallow Question,html.Page,3_0_2_0_3_1_0,NA,NA,form submission,5695.700000143,586605.5,586603,586619.9,592315.60000014,592315.9000001,2024-03-07T08:54:12Z,592316.874,NULL,Auftrag,uagizaji,s,ghanima,kuzingatia,msukani,uagizaji,NA,NA,2,NA,NA,NA,NA,NA,NA,NA,NA,NA,NA,NA,NA,NA,NA,NA,NA,NA,NA,NA
8fdc3,"""Richtig""-Screen",canvas.Screen,3_0_2_0_3_1_1,NA,NA,timeout,4996.4260000001,592318.80000019,592316.874,592316.874,597296.7,597297.60000014,2024-03-07T08:54:17Z,597313.3,NULL,Auftrag,uagizaji,s,ghanima,kuzingatia,msukani,NA,sdf,1,2,NA,NA,NA,NA,NA,NA,NA,NA,NA,NA,NA,NA,NA,NA,NA,NA,NA,NA,NA
8fdc3,"""Falsch""-Screen",canvas.Screen,3_0_2_0_3_1_2,NA,NA,skipped,NA,597302.60000014,NA,NA,597296.7,597302.9000001,2024-03-07T08:54:17Z,597313.3,NULL,Auftrag,uagizaji,s,ghanima,kuzingatia,msukani,NA,sdf,NA,2,NA,NA,NA,NA,NA,NA,NA,NA,NA,NA,NA,NA,NA,NA,NA,NA,NA,NA,NA
8fdc3,shallow,flow.Sequence,3_0_2_0_3_1,NA,NA,completion,10676.8,586605.5,586603,586619.9,597296.7,597303,2024-03-07T08:54:17Z,597313.3,NULL,Auftrag,uagizaji,s,ghanima,kuzingatia,msukani,NA,sdf,NA,2,NA,NA,NA,NA,NA,NA,NA,NA,NA,NA,NA,NA,NA,NA,NA,NA,NA,NA,NA
8fdc3,task,flow.Sequence,3_0_2_0_3,NA,NA,completion,10676.8,586605.4000001,586603,586619.9,597296.7,597303,2024-03-07T08:54:17Z,597313.3,NULL,Auftrag,uagizaji,s,ghanima,kuzingatia,msukani,NA,sdf,NA,2,NA,NA,NA,NA,NA,NA,NA,NA,NA,NA,NA,NA,NA,NA,NA,NA,NA,NA,NA
8fdc3,Deep Question,html.Page,3_0_2_0_4_0_0,NA,NA,form submission,7145.9000000476,597303.10000014,597296.7,597313.3,604459.20000005,604459.30000019,2024-03-07T08:54:24Z,604475.4,NULL,Theorie,nadharia,d,NA,NA,NA,nadhara,NA,NA,2,NA,NA,NA,NA,NA,NA,NA,NA,NA,NA,NA,NA,NA,NA,NA,NA,NA,NA,NA
8fdc3,"""Richtig""-Screen",canvas.Screen,3_0_2_0_4_0_1,NA,NA,skipped,NA,604460.80000019,NA,NA,604459.20000005,604460.9000001,2024-03-07T08:54:24Z,604475.4,NULL,Theorie,nadharia,d,NA,NA,NA,NA,sdf,NA,2,NA,NA,NA,NA,NA,NA,NA,NA,NA,NA,NA,NA,NA,NA,NA,NA,NA,NA,NA
8fdc3,"""Falsch""-Screen",canvas.Screen,3_0_2_0_4_0_2,NA,NA,timeout,4996.7,604461.20000005,604458.594,604475.4,609455.9,609456.80000019,2024-03-07T08:54:29Z,609472.1,NULL,Theorie,nadharia,d,NA,NA,NA,NA,sdf,0,2,NA,NA,NA,NA,NA,NA,NA,NA,NA,NA,NA,NA,NA,NA,NA,NA,NA,NA,NA
8fdc3,deep,flow.Sequence,3_0_2_0_4_0,NA,NA,completion,12142.6,597303.10000014,597296.7,597313.3,609455.9,609457.10000014,2024-03-07T08:54:29Z,609472.1,NULL,Theorie,nadharia,d,NA,NA,NA,NA,sdf,NA,2,NA,NA,NA,NA,NA,NA,NA,NA,NA,NA,NA,NA,NA,NA,NA,NA,NA,NA,NA
8fdc3,shallow,flow.Sequence,3_0_2_0_4_1,NA,NA,skipped,NA,609457.30000019,NA,NA,609455.9,609457.5,2024-03-07T08:54:29Z,609472.1,NULL,Theorie,nadharia,d,NA,NA,NA,NA,sdf,NA,2,NA,NA,NA,NA,NA,NA,NA,NA,NA,NA,NA,NA,NA,NA,NA,NA,NA,NA,NA
8fdc3,task,flow.Sequence,3_0_2_0_4,NA,NA,completion,12142.6,597303,597296.7,597313.3,609455.9,609457.70000005,2024-03-07T08:54:29Z,609472.1,NULL,Theorie,nadharia,d,NA,NA,NA,NA,sdf,NA,2,NA,NA,NA,NA,NA,NA,NA,NA,NA,NA,NA,NA,NA,NA,NA,NA,NA,NA,NA
8fdc3,deep,flow.Sequence,3_0_2_0_5_0,NA,NA,skipped,NA,609457.80000019,NA,NA,609455.9,609457.80000019,2024-03-07T08:54:29Z,609472.1,NULL,Verpackung,ufungaji,s,uhusiano,upimaji,uchunguzi,NA,sdf,NA,2,NA,NA,NA,NA,NA,NA,NA,NA,NA,NA,NA,NA,NA,NA,NA,NA,NA,NA,NA
8fdc3,Shallow Question,html.Page,3_0_2_0_5_1_0,NA,NA,form submission,5868.6000000477,609458.10000014,609455.9,609472.1,615340.70000005,615340.70000005,2024-03-07T08:54:35Z,615351.8,NULL,Verpackung,ufungaji,s,uhusiano,upimaji,uchunguzi,ufungaji,NA,NA,2,NA,NA,NA,NA,NA,NA,NA,NA,NA,NA,NA,NA,NA,NA,NA,NA,NA,NA,NA
8fdc3,"""Richtig""-Screen",canvas.Screen,3_0_2_0_5_1_1,NA,NA,timeout,4997.3999999999,615342.20000005,615335.692,615351.8,620332.2,620332.70000005,2024-03-07T08:54:40Z,620349.2,NULL,Verpackung,ufungaji,s,uhusiano,upimaji,uchunguzi,NA,sdf,1,2,NA,NA,NA,NA,NA,NA,NA,NA,NA,NA,NA,NA,NA,NA,NA,NA,NA,NA,NA
8fdc3,"""Falsch""-Screen",canvas.Screen,3_0_2_0_5_1_2,NA,NA,skipped,NA,620335.60000014,NA,NA,620332.2,620335.70000005,2024-03-07T08:54:40Z,620349.2,NULL,Verpackung,ufungaji,s,uhusiano,upimaji,uchunguzi,NA,sdf,NA,2,NA,NA,NA,NA,NA,NA,NA,NA,NA,NA,NA,NA,NA,NA,NA,NA,NA,NA,NA
8fdc3,shallow,flow.Sequence,3_0_2_0_5_1,NA,NA,completion,10860.1,609458,609455.9,609472.1,620332.2,620335.9000001,2024-03-07T08:54:40Z,620349.2,NULL,Verpackung,ufungaji,s,uhusiano,upimaji,uchunguzi,NA,sdf,NA,2,NA,NA,NA,NA,NA,NA,NA,NA,NA,NA,NA,NA,NA,NA,NA,NA,NA,NA,NA
8fdc3,task,flow.Sequence,3_0_2_0_5,NA,NA,completion,10860.1,609457.80000019,609455.9,609472.1,620332.2,620336,2024-03-07T08:54:40Z,620349.2,NULL,Verpackung,ufungaji,s,uhusiano,upimaji,uchunguzi,NA,sdf,NA,2,NA,NA,NA,NA,NA,NA,NA,NA,NA,NA,NA,NA,NA,NA,NA,NA,NA,NA,NA
8fdc3,Deep Question,html.Page,3_0_2_0_6_0_0,NA,NA,form submission,8875.1000001908,620336.10000014,620332.2,620349.2,629224.30000019,629224.5,2024-03-07T08:54:49Z,629226.7,NULL,Schönheit,kirembo,d,NA,NA,NA,kikuti,NA,NA,2,NA,NA,NA,NA,NA,NA,NA,NA,NA,NA,NA,NA,NA,NA,NA,NA,NA,NA,NA
8fdc3,"""Richtig""-Screen",canvas.Screen,3_0_2_0_6_0_1,NA,NA,skipped,NA,629225.9000001,NA,NA,629224.30000019,629225.9000001,2024-03-07T08:54:49Z,629226.7,NULL,Schönheit,kirembo,d,NA,NA,NA,NA,sdf,NA,2,NA,NA,NA,NA,NA,NA,NA,NA,NA,NA,NA,NA,NA,NA,NA,NA,NA,NA,NA
8fdc3,"""Falsch""-Screen",canvas.Screen,3_0_2_0_6_0_2,NA,NA,timeout,4997.1000000001,629226.30000019,629210.558,629226.7,634207.5,634208.4000001,2024-03-07T08:54:54Z,634223.8,NULL,Schönheit,kirembo,d,NA,NA,NA,NA,sdf,0,2,NA,NA,NA,NA,NA,NA,NA,NA,NA,NA,NA,NA,NA,NA,NA,NA,NA,NA,NA
8fdc3,deep,flow.Sequence,3_0_2_0_6_0,NA,NA,completion,13858.3,620336.10000014,620332.2,620349.2,634207.5,634208.80000019,2024-03-07T08:54:54Z,634223.8,NULL,Schönheit,kirembo,d,NA,NA,NA,NA,sdf,NA,2,NA,NA,NA,NA,NA,NA,NA,NA,NA,NA,NA,NA,NA,NA,NA,NA,NA,NA,NA
8fdc3,shallow,flow.Sequence,3_0_2_0_6_1,NA,NA,skipped,NA,634209,NA,NA,634207.5,634209.10000014,2024-03-07T08:54:54Z,634223.8,NULL,Schönheit,kirembo,d,NA,NA,NA,NA,sdf,NA,2,NA,NA,NA,NA,NA,NA,NA,NA,NA,NA,NA,NA,NA,NA,NA,NA,NA,NA,NA
8fdc3,task,flow.Sequence,3_0_2_0_6,NA,NA,completion,13858.3,620336.10000014,620332.2,620349.2,634207.5,634209.30000019,2024-03-07T08:54:54Z,634223.8,NULL,Schönheit,kirembo,d,NA,NA,NA,NA,sdf,NA,2,NA,NA,NA,NA,NA,NA,NA,NA,NA,NA,NA,NA,NA,NA,NA,NA,NA,NA,NA
8fdc3,deep,flow.Sequence,3_0_2_0_7_0,NA,NA,skipped,NA,634209.4000001,NA,NA,634207.5,634209.5,2024-03-07T08:54:54Z,634223.8,NULL,Wettbewerb,ushindani,s,mapendezi,kichocheo,ubaguzi,NA,sdf,NA,2,NA,NA,NA,NA,NA,NA,NA,NA,NA,NA,NA,NA,NA,NA,NA,NA,NA,NA,NA
8fdc3,Shallow Question,html.Page,3_0_2_0_7_1_0,NA,NA,form submission,5553.7,634209.60000014,634207.5,634223.8,639777.5,639777.60000014,2024-03-07T08:54:59Z,639787.1,NULL,Wettbewerb,ushindani,s,mapendezi,kichocheo,ubaguzi,ushindani,NA,NA,2,NA,NA,NA,NA,NA,NA,NA,NA,NA,NA,NA,NA,NA,NA,NA,NA,NA,NA,NA
8fdc3,"""Richtig""-Screen",canvas.Screen,3_0_2_0_7_1_1,NA,NA,timeout,4996.9,639780.70000005,639770.762,639787.1,644767.7,644768.60000014,2024-03-07T08:55:04Z,644784,NULL,Wettbewerb,ushindani,s,mapendezi,kichocheo,ubaguzi,NA,sdf,1,2,NA,NA,NA,NA,NA,NA,NA,NA,NA,NA,NA,NA,NA,NA,NA,NA,NA,NA,NA
8fdc3,"""Falsch""-Screen",canvas.Screen,3_0_2_0_7_1_2,NA,NA,skipped,NA,644773.9000001,NA,NA,644767.7,644774,2024-03-07T08:55:04Z,644784,NULL,Wettbewerb,ushindani,s,mapendezi,kichocheo,ubaguzi,NA,sdf,NA,2,NA,NA,NA,NA,NA,NA,NA,NA,NA,NA,NA,NA,NA,NA,NA,NA,NA,NA,NA
8fdc3,shallow,flow.Sequence,3_0_2_0_7_1,NA,NA,completion,10543.9,634209.60000014,634207.5,634223.8,644767.7,644774.10000014,2024-03-07T08:55:04Z,644784,NULL,Wettbewerb,ushindani,s,mapendezi,kichocheo,ubaguzi,NA,sdf,NA,2,NA,NA,NA,NA,NA,NA,NA,NA,NA,NA,NA,NA,NA,NA,NA,NA,NA,NA,NA
8fdc3,task,flow.Sequence,3_0_2_0_7,NA,NA,completion,10543.9,634209.4000001,634207.5,634223.8,644767.7,644774.20000005,2024-03-07T08:55:04Z,644784,NULL,Wettbewerb,ushindani,s,mapendezi,kichocheo,ubaguzi,NA,sdf,NA,2,NA,NA,NA,NA,NA,NA,NA,NA,NA,NA,NA,NA,NA,NA,NA,NA,NA,NA,NA
8fdc3,block,flow.Loop,3_0_2_0,NA,NA,completion,91826.952,552948.5,552940.748,552940.748,644767.7,644774.20000005,2024-03-07T08:55:04Z,644784,NULL,NA,NA,NA,NA,NA,NA,NA,sdf,NA,2,NA,NA,NA,NA,NA,NA,NA,NA,NA,NA,NA,NA,NA,NA,NA,NA,NA,NA,NA
8fdc3,weiter,canvas.Screen,3_0_2_1,sdf,keypress(Space),response,1063.9000000954,644774.30000019,644767.7,644784,645847.9000001,645848.80000019,2024-03-07T08:55:06Z,645883.956,NULL,NA,NA,NA,NA,NA,NA,NA,sdf,NA,2,NA,NA,NA,NA,NA,NA,NA,NA,NA,NA,NA,NA,NA,NA,NA,NA,NA,NA,NA
8fdc3,check continue,flow.Sequence,3_0_2,NA,NA,completion,92907.152000095,552948.5,552940.748,552940.748,645847.9000001,645849.10000014,2024-03-07T08:55:06Z,645883.956,NULL,NA,NA,NA,NA,NA,NA,NA,sdf,NA,2,NA,NA,NA,NA,NA,NA,NA,NA,NA,NA,NA,NA,NA,NA,NA,NA,NA,NA,NA
8fdc3,deep,flow.Sequence,3_0_3_0_0_0,NA,NA,skipped,NA,645884,NA,NA,645847.9000001,645884,2024-03-07T08:55:06Z,645883.956,NULL,Verpackung,ufungaji,s,uhusiano,upimaji,uchunguzi,NA,qt,NA,3,NA,NA,NA,NA,NA,NA,NA,NA,NA,NA,NA,NA,NA,NA,NA,NA,NA,NA,NA
8fdc3,Shallow Question,html.Page,3_0_3_0_0_1_0,NA,NA,form submission,4035.044,645884.20000005,645883.956,645883.956,649919,649919.20000005,2024-03-07T08:55:10Z,649930.7,NULL,Verpackung,ufungaji,s,uhusiano,upimaji,uchunguzi,ufungaji,NA,NA,3,NA,NA,NA,NA,NA,NA,NA,NA,NA,NA,NA,NA,NA,NA,NA,NA,NA,NA,NA
8fdc3,"""Richtig""-Screen",canvas.Screen,3_0_3_0_0_1_1,NA,NA,timeout,4997.3,649922.10000014,649914.558,649930.7,654911.4,654912.30000019,2024-03-07T08:55:15Z,654928,NULL,Verpackung,ufungaji,s,uhusiano,upimaji,uchunguzi,NA,qt,1,3,NA,NA,NA,NA,NA,NA,NA,NA,NA,NA,NA,NA,NA,NA,NA,NA,NA,NA,NA
8fdc3,"""Falsch""-Screen",canvas.Screen,3_0_3_0_0_1_2,NA,NA,skipped,NA,654917.5,NA,NA,654911.4,654917.70000005,2024-03-07T08:55:15Z,654928,NULL,Verpackung,ufungaji,s,uhusiano,upimaji,uchunguzi,NA,qt,NA,3,NA,NA,NA,NA,NA,NA,NA,NA,NA,NA,NA,NA,NA,NA,NA,NA,NA,NA,NA
8fdc3,shallow,flow.Sequence,3_0_3_0_0_1,NA,NA,completion,9027.444,645884.20000005,645883.956,645883.956,654911.4,654917.70000005,2024-03-07T08:55:15Z,654928,NULL,Verpackung,ufungaji,s,uhusiano,upimaji,uchunguzi,NA,qt,NA,3,NA,NA,NA,NA,NA,NA,NA,NA,NA,NA,NA,NA,NA,NA,NA,NA,NA,NA,NA
8fdc3,task,flow.Sequence,3_0_3_0_0,NA,NA,completion,9027.444,645883.9000001,645883.956,645883.956,654911.4,654917.9000001,2024-03-07T08:55:15Z,654928,NULL,Verpackung,ufungaji,s,uhusiano,upimaji,uchunguzi,NA,qt,NA,3,NA,NA,NA,NA,NA,NA,NA,NA,NA,NA,NA,NA,NA,NA,NA,NA,NA,NA,NA
8fdc3,Deep Question,html.Page,3_0_3_0_1_0_0,NA,NA,form submission,4652,654917.9000001,654911.4,654928,659580,659580.20000005,2024-03-07T08:55:19Z,659591.4,NULL,Schönheit,kirembo,d,NA,NA,NA,kirembo,NA,NA,3,NA,NA,NA,NA,NA,NA,NA,NA,NA,NA,NA,NA,NA,NA,NA,NA,NA,NA,NA
8fdc3,"""Richtig""-Screen",canvas.Screen,3_0_3_0_1_0_1,NA,NA,timeout,4997.1,659583.20000005,659584.694,659591.4,664572,664572.80000019,2024-03-07T08:55:24Z,664588.5,NULL,Schönheit,kirembo,d,NA,NA,NA,NA,qt,1,3,NA,NA,NA,NA,NA,NA,NA,NA,NA,NA,NA,NA,NA,NA,NA,NA,NA,NA,NA
8fdc3,"""Falsch""-Screen",canvas.Screen,3_0_3_0_1_0_2,NA,NA,skipped,NA,664577.5,NA,NA,664572,664577.70000005,2024-03-07T08:55:24Z,664588.5,NULL,Schönheit,kirembo,d,NA,NA,NA,NA,qt,NA,3,NA,NA,NA,NA,NA,NA,NA,NA,NA,NA,NA,NA,NA,NA,NA,NA,NA,NA,NA
8fdc3,deep,flow.Sequence,3_0_3_0_1_0,NA,NA,completion,9644,654917.9000001,654911.4,654928,664572,664578,2024-03-07T08:55:24Z,664588.5,NULL,Schönheit,kirembo,d,NA,NA,NA,NA,qt,NA,3,NA,NA,NA,NA,NA,NA,NA,NA,NA,NA,NA,NA,NA,NA,NA,NA,NA,NA,NA
8fdc3,shallow,flow.Sequence,3_0_3_0_1_1,NA,NA,skipped,NA,664578.10000014,NA,NA,664572,664578.20000005,2024-03-07T08:55:24Z,664588.5,NULL,Schönheit,kirembo,d,NA,NA,NA,NA,qt,NA,3,NA,NA,NA,NA,NA,NA,NA,NA,NA,NA,NA,NA,NA,NA,NA,NA,NA,NA,NA
8fdc3,task,flow.Sequence,3_0_3_0_1,NA,NA,completion,9644,654917.9000001,654911.4,654928,664572,664578.4000001,2024-03-07T08:55:24Z,664588.5,NULL,Schönheit,kirembo,d,NA,NA,NA,NA,qt,NA,3,NA,NA,NA,NA,NA,NA,NA,NA,NA,NA,NA,NA,NA,NA,NA,NA,NA,NA,NA
8fdc3,Deep Question,html.Page,3_0_3_0_2_0_0,NA,NA,form submission,4497.1000001431,664578.5,664572,664588.5,669085.60000014,669085.80000019,2024-03-07T08:55:29Z,669103.1,NULL,Schock,mshtuko,d,NA,NA,NA,NA,NA,NA,3,NA,NA,NA,NA,NA,NA,NA,NA,NA,NA,NA,NA,NA,NA,NA,NA,NA,NA,NA
8fdc3,"""Richtig""-Screen",canvas.Screen,3_0_3_0_2_0_1,NA,NA,skipped,NA,669088.80000019,NA,NA,669085.60000014,669088.9000001,2024-03-07T08:55:29Z,669103.1,NULL,Schock,mshtuko,d,NA,NA,NA,NA,qt,NA,3,NA,NA,NA,NA,NA,NA,NA,NA,NA,NA,NA,NA,NA,NA,NA,NA,NA,NA,NA
8fdc3,"""Falsch""-Screen",canvas.Screen,3_0_3_0_2_0_2,NA,NA,timeout,4996.5,669089.70000005,669086.028,669103.1,674082.9,674083.70000005,2024-03-07T08:55:34Z,674099.6,NULL,Schock,mshtuko,d,NA,NA,NA,NA,qt,0,3,NA,NA,NA,NA,NA,NA,NA,NA,NA,NA,NA,NA,NA,NA,NA,NA,NA,NA,NA
8fdc3,deep,flow.Sequence,3_0_3_0_2_0,NA,NA,completion,9494.4,664578.5,664572,664588.5,674082.9,674084.10000014,2024-03-07T08:55:34Z,674099.6,NULL,Schock,mshtuko,d,NA,NA,NA,NA,qt,NA,3,NA,NA,NA,NA,NA,NA,NA,NA,NA,NA,NA,NA,NA,NA,NA,NA,NA,NA,NA
8fdc3,shallow,flow.Sequence,3_0_3_0_2_1,NA,NA,skipped,NA,674084.30000019,NA,NA,674082.9,674084.4000001,2024-03-07T08:55:34Z,674099.6,NULL,Schock,mshtuko,d,NA,NA,NA,NA,qt,NA,3,NA,NA,NA,NA,NA,NA,NA,NA,NA,NA,NA,NA,NA,NA,NA,NA,NA,NA,NA
8fdc3,task,flow.Sequence,3_0_3_0_2,NA,NA,completion,9494.4,664578.5,664572,664588.5,674082.9,674084.60000014,2024-03-07T08:55:34Z,674099.6,NULL,Schock,mshtuko,d,NA,NA,NA,NA,qt,NA,3,NA,NA,NA,NA,NA,NA,NA,NA,NA,NA,NA,NA,NA,NA,NA,NA,NA,NA,NA
8fdc3,deep,flow.Sequence,3_0_3_0_3_0,NA,NA,skipped,NA,674084.80000019,NA,NA,674082.9,674084.80000019,2024-03-07T08:55:34Z,674099.6,NULL,Wettbewerb,ushindani,s,mapendezi,kichocheo,ubaguzi,NA,qt,NA,3,NA,NA,NA,NA,NA,NA,NA,NA,NA,NA,NA,NA,NA,NA,NA,NA,NA,NA,NA
8fdc3,Shallow Question,html.Page,3_0_3_0_3_1_0,NA,NA,form submission,5237.6000000477,674085,674082.9,674099.6,679337.20000005,679337.4000001,2024-03-07T08:55:39Z,679346.2,NULL,Wettbewerb,ushindani,s,mapendezi,kichocheo,ubaguzi,ushindani,NA,NA,3,NA,NA,NA,NA,NA,NA,NA,NA,NA,NA,NA,NA,NA,NA,NA,NA,NA,NA,NA
8fdc3,"""Richtig""-Screen",canvas.Screen,3_0_3_0_3_1_1,NA,NA,timeout,4996.8,679340.4000001,679330.028,679346.2,684326.8,684327.70000005,2024-03-07T08:55:44Z,684343,NULL,Wettbewerb,ushindani,s,mapendezi,kichocheo,ubaguzi,NA,qt,1,3,NA,NA,NA,NA,NA,NA,NA,NA,NA,NA,NA,NA,NA,NA,NA,NA,NA,NA,NA
8fdc3,"""Falsch""-Screen",canvas.Screen,3_0_3_0_3_1_2,NA,NA,skipped,NA,684332.9000001,NA,NA,684326.8,684333.10000014,2024-03-07T08:55:44Z,684343,NULL,Wettbewerb,ushindani,s,mapendezi,kichocheo,ubaguzi,NA,qt,NA,3,NA,NA,NA,NA,NA,NA,NA,NA,NA,NA,NA,NA,NA,NA,NA,NA,NA,NA,NA
8fdc3,shallow,flow.Sequence,3_0_3_0_3_1,NA,NA,completion,10227.2,674085,674082.9,674099.6,684326.8,684333.30000019,2024-03-07T08:55:44Z,684343,NULL,Wettbewerb,ushindani,s,mapendezi,kichocheo,ubaguzi,NA,qt,NA,3,NA,NA,NA,NA,NA,NA,NA,NA,NA,NA,NA,NA,NA,NA,NA,NA,NA,NA,NA
8fdc3,task,flow.Sequence,3_0_3_0_3,NA,NA,completion,10227.2,674084.70000005,674082.9,674099.6,684326.8,684333.60000014,2024-03-07T08:55:44Z,684343,NULL,Wettbewerb,ushindani,s,mapendezi,kichocheo,ubaguzi,NA,qt,NA,3,NA,NA,NA,NA,NA,NA,NA,NA,NA,NA,NA,NA,NA,NA,NA,NA,NA,NA,NA
8fdc3,deep,flow.Sequence,3_0_3_0_4_0,NA,NA,skipped,NA,684333.70000005,NA,NA,684326.8,684333.70000005,2024-03-07T08:55:44Z,684343,NULL,Hoffnung,matarajio,s,kutaalamika,uratibu,mvumbuzi,NA,qt,NA,3,NA,NA,NA,NA,NA,NA,NA,NA,NA,NA,NA,NA,NA,NA,NA,NA,NA,NA,NA
8fdc3,Shallow Question,html.Page,3_0_3_0_4_1_0,NA,NA,form submission,6669.9000000954,684333.9000001,684326.8,684343,691012.9000001,691013.20000005,2024-03-07T08:55:51Z,691022.724,NULL,Hoffnung,matarajio,s,kutaalamika,uratibu,mvumbuzi,matarajio,NA,NA,3,NA,NA,NA,NA,NA,NA,NA,NA,NA,NA,NA,NA,NA,NA,NA,NA,NA,NA,NA
8fdc3,"""Richtig""-Screen",canvas.Screen,3_0_3_0_4_1_1,NA,NA,timeout,4996.8759999999,691016,691022.724,691022.724,696002.5,696003.60000014,2024-03-07T08:55:56Z,696019.6,NULL,Hoffnung,matarajio,s,kutaalamika,uratibu,mvumbuzi,NA,qt,1,3,NA,NA,NA,NA,NA,NA,NA,NA,NA,NA,NA,NA,NA,NA,NA,NA,NA,NA,NA
8fdc3,"""Falsch""-Screen",canvas.Screen,3_0_3_0_4_1_2,NA,NA,skipped,NA,696008.9000001,NA,NA,696002.5,696009.10000014,2024-03-07T08:55:56Z,696019.6,NULL,Hoffnung,matarajio,s,kutaalamika,uratibu,mvumbuzi,NA,qt,NA,3,NA,NA,NA,NA,NA,NA,NA,NA,NA,NA,NA,NA,NA,NA,NA,NA,NA,NA,NA
8fdc3,shallow,flow.Sequence,3_0_3_0_4_1,NA,NA,completion,11659.5,684333.80000019,684326.8,684343,696002.5,696009.10000014,2024-03-07T08:55:56Z,696019.6,NULL,Hoffnung,matarajio,s,kutaalamika,uratibu,mvumbuzi,NA,qt,NA,3,NA,NA,NA,NA,NA,NA,NA,NA,NA,NA,NA,NA,NA,NA,NA,NA,NA,NA,NA
8fdc3,task,flow.Sequence,3_0_3_0_4,NA,NA,completion,11659.5,684333.60000014,684326.8,684343,696002.5,696009.30000019,2024-03-07T08:55:56Z,696019.6,NULL,Hoffnung,matarajio,s,kutaalamika,uratibu,mvumbuzi,NA,qt,NA,3,NA,NA,NA,NA,NA,NA,NA,NA,NA,NA,NA,NA,NA,NA,NA,NA,NA,NA,NA
8fdc3,Deep Question,html.Page,3_0_3_0_5_0_0,NA,NA,form submission,8979.5000001431,696009.30000019,696002.5,696019.6,704999.10000014,704999.4000001,2024-03-07T08:56:05Z,705013.9,NULL,Zufall,kikuti,d,NA,NA,NA,kikuti,NA,NA,3,NA,NA,NA,NA,NA,NA,NA,NA,NA,NA,NA,NA,NA,NA,NA,NA,NA,NA,NA
8fdc3,"""Richtig""-Screen",canvas.Screen,3_0_3_0_5_0_1,NA,NA,timeout,4997,705002.30000019,704997.43,705013.9,709994.3,709995.30000019,2024-03-07T08:56:10Z,710010.9,NULL,Zufall,kikuti,d,NA,NA,NA,NA,qt,1,3,NA,NA,NA,NA,NA,NA,NA,NA,NA,NA,NA,NA,NA,NA,NA,NA,NA,NA,NA
8fdc3,"""Falsch""-Screen",canvas.Screen,3_0_3_0_5_0_2,NA,NA,skipped,NA,710000.4000001,NA,NA,709994.3,710000.60000014,2024-03-07T08:56:10Z,710010.9,NULL,Zufall,kikuti,d,NA,NA,NA,NA,qt,NA,3,NA,NA,NA,NA,NA,NA,NA,NA,NA,NA,NA,NA,NA,NA,NA,NA,NA,NA,NA
8fdc3,deep,flow.Sequence,3_0_3_0_5_0,NA,NA,completion,13974.7,696009.30000019,696002.5,696019.6,709994.3,710000.70000005,2024-03-07T08:56:10Z,710010.9,NULL,Zufall,kikuti,d,NA,NA,NA,NA,qt,NA,3,NA,NA,NA,NA,NA,NA,NA,NA,NA,NA,NA,NA,NA,NA,NA,NA,NA,NA,NA
8fdc3,shallow,flow.Sequence,3_0_3_0_5_1,NA,NA,skipped,NA,710000.70000005,NA,NA,709994.3,710000.70000005,2024-03-07T08:56:10Z,710010.9,NULL,Zufall,kikuti,d,NA,NA,NA,NA,qt,NA,3,NA,NA,NA,NA,NA,NA,NA,NA,NA,NA,NA,NA,NA,NA,NA,NA,NA,NA,NA
8fdc3,task,flow.Sequence,3_0_3_0_5,NA,NA,completion,13974.7,696009.30000019,696002.5,696019.6,709994.3,710000.80000019,2024-03-07T08:56:10Z,710010.9,NULL,Zufall,kikuti,d,NA,NA,NA,NA,qt,NA,3,NA,NA,NA,NA,NA,NA,NA,NA,NA,NA,NA,NA,NA,NA,NA,NA,NA,NA,NA
8fdc3,Deep Question,html.Page,3_0_3_0_6_0_0,NA,NA,form submission,9770.9000001907,710000.80000019,709994.3,710010.9,719781.80000019,719782,2024-03-07T08:56:19Z,719788.1,NULL,Theorie,nadharia,d,NA,NA,NA,nadharia,NA,NA,3,NA,NA,NA,NA,NA,NA,NA,NA,NA,NA,NA,NA,NA,NA,NA,NA,NA,NA,NA
8fdc3,"""Richtig""-Screen",canvas.Screen,3_0_3_0_6_0_1,NA,NA,timeout,4997.3,719783.70000005,719771.858,719788.1,724768.9,724769.30000019,2024-03-07T08:56:24Z,724785.4,NULL,Theorie,nadharia,d,NA,NA,NA,NA,qt,1,3,NA,NA,NA,NA,NA,NA,NA,NA,NA,NA,NA,NA,NA,NA,NA,NA,NA,NA,NA
8fdc3,"""Falsch""-Screen",canvas.Screen,3_0_3_0_6_0_2,NA,NA,skipped,NA,724770.60000014,NA,NA,724768.9,724770.70000005,2024-03-07T08:56:24Z,724785.4,NULL,Theorie,nadharia,d,NA,NA,NA,NA,qt,NA,3,NA,NA,NA,NA,NA,NA,NA,NA,NA,NA,NA,NA,NA,NA,NA,NA,NA,NA,NA
8fdc3,deep,flow.Sequence,3_0_3_0_6_0,NA,NA,completion,14758,710000.80000019,709994.3,710010.9,724768.9,724770.80000019,2024-03-07T08:56:24Z,724785.4,NULL,Theorie,nadharia,d,NA,NA,NA,NA,qt,NA,3,NA,NA,NA,NA,NA,NA,NA,NA,NA,NA,NA,NA,NA,NA,NA,NA,NA,NA,NA
8fdc3,shallow,flow.Sequence,3_0_3_0_6_1,NA,NA,skipped,NA,724770.9000001,NA,NA,724768.9,724770.9000001,2024-03-07T08:56:24Z,724785.4,NULL,Theorie,nadharia,d,NA,NA,NA,NA,qt,NA,3,NA,NA,NA,NA,NA,NA,NA,NA,NA,NA,NA,NA,NA,NA,NA,NA,NA,NA,NA
8fdc3,task,flow.Sequence,3_0_3_0_6,NA,NA,completion,14758,710000.80000019,709994.3,710010.9,724768.9,724771,2024-03-07T08:56:24Z,724785.4,NULL,Theorie,nadharia,d,NA,NA,NA,NA,qt,NA,3,NA,NA,NA,NA,NA,NA,NA,NA,NA,NA,NA,NA,NA,NA,NA,NA,NA,NA,NA
8fdc3,deep,flow.Sequence,3_0_3_0_7_0,NA,NA,skipped,NA,724771,NA,NA,724768.9,724771,2024-03-07T08:56:24Z,724785.4,NULL,Auftrag,uagizaji,s,ghanima,kuzingatia,msukani,NA,qt,NA,3,NA,NA,NA,NA,NA,NA,NA,NA,NA,NA,NA,NA,NA,NA,NA,NA,NA,NA,NA
8fdc3,Shallow Question,html.Page,3_0_3_0_7_1_0,NA,NA,form submission,4637.3000000477,724771.10000014,724768.9,724785.4,729422.70000005,729423,2024-03-07T08:56:29Z,729432.2,NULL,Auftrag,uagizaji,s,ghanima,kuzingatia,msukani,uagizaji,NA,NA,3,NA,NA,NA,NA,NA,NA,NA,NA,NA,NA,NA,NA,NA,NA,NA,NA,NA,NA,NA
8fdc3,"""Richtig""-Screen",canvas.Screen,3_0_3_0_7_1_1,NA,NA,timeout,4996.8,729425.80000019,729416.458,729432.2,734412.6,734413.4000001,2024-03-07T08:56:34Z,734429,NULL,Auftrag,uagizaji,s,ghanima,kuzingatia,msukani,NA,qt,1,3,NA,NA,NA,NA,NA,NA,NA,NA,NA,NA,NA,NA,NA,NA,NA,NA,NA,NA,NA
8fdc3,"""Falsch""-Screen",canvas.Screen,3_0_3_0_7_1_2,NA,NA,skipped,NA,734418.20000005,NA,NA,734412.6,734418.4000001,2024-03-07T08:56:34Z,734429,NULL,Auftrag,uagizaji,s,ghanima,kuzingatia,msukani,NA,qt,NA,3,NA,NA,NA,NA,NA,NA,NA,NA,NA,NA,NA,NA,NA,NA,NA,NA,NA,NA,NA
8fdc3,shallow,flow.Sequence,3_0_3_0_7_1,NA,NA,completion,9627.2,724771.10000014,724768.9,724785.4,734412.6,734418.70000005,2024-03-07T08:56:34Z,734429,NULL,Auftrag,uagizaji,s,ghanima,kuzingatia,msukani,NA,qt,NA,3,NA,NA,NA,NA,NA,NA,NA,NA,NA,NA,NA,NA,NA,NA,NA,NA,NA,NA,NA
8fdc3,task,flow.Sequence,3_0_3_0_7,NA,NA,completion,9627.2,724771,724768.9,724785.4,734412.6,734418.9000001,2024-03-07T08:56:34Z,734429,NULL,Auftrag,uagizaji,s,ghanima,kuzingatia,msukani,NA,qt,NA,3,NA,NA,NA,NA,NA,NA,NA,NA,NA,NA,NA,NA,NA,NA,NA,NA,NA,NA,NA
8fdc3,block,flow.Loop,3_0_3_0,NA,NA,completion,88528.644,645883.9000001,645883.956,645883.956,734412.6,734419.10000014,2024-03-07T08:56:34Z,734429,NULL,NA,NA,NA,NA,NA,NA,NA,qt,NA,3,NA,NA,NA,NA,NA,NA,NA,NA,NA,NA,NA,NA,NA,NA,NA,NA,NA,NA,NA
8fdc3,weiter,canvas.Screen,3_0_3_1,sdf,keypress(Space),response,1176.5,734419.20000005,734412.6,734429,735605.5,735606,2024-03-07T08:56:35Z,735912.274,NULL,NA,NA,NA,NA,NA,NA,NA,qt,NA,3,NA,NA,NA,NA,NA,NA,NA,NA,NA,NA,NA,NA,NA,NA,NA,NA,NA,NA,NA
8fdc3,check continue,flow.Sequence,3_0_3,NA,NA,completion,89721.544,645883.9000001,645883.956,645883.956,735605.5,735606.10000014,2024-03-07T08:56:35Z,735912.274,NULL,NA,NA,NA,NA,NA,NA,NA,qt,NA,3,NA,NA,NA,NA,NA,NA,NA,NA,NA,NA,NA,NA,NA,NA,NA,NA,NA,NA,NA
8fdc3,check continue,flow.Sequence,3_0_4,NA,NA,skipped,NA,735622.20000005,NA,NA,735605.5,735622.20000005,2024-03-07T08:56:35Z,735912.274,NULL,NA,NA,NA,NA,NA,NA,NA,sd,NA,4,NA,NA,NA,NA,NA,NA,NA,NA,NA,NA,NA,NA,NA,NA,NA,NA,NA,NA,NA
8fdc3,check continue,flow.Sequence,3_0_5,NA,NA,skipped,NA,735635.80000019,NA,NA,735605.5,735635.9000001,2024-03-07T08:56:35Z,735912.274,NULL,NA,NA,NA,NA,NA,NA,NA,sdf,NA,5,NA,NA,NA,NA,NA,NA,NA,NA,NA,NA,NA,NA,NA,NA,NA,NA,NA,NA,NA
8fdc3,check continue,flow.Sequence,3_0_6,NA,NA,skipped,NA,735650,NA,NA,735605.5,735650.10000014,2024-03-07T08:56:35Z,735912.274,NULL,NA,NA,NA,NA,NA,NA,NA,dfs,NA,6,NA,NA,NA,NA,NA,NA,NA,NA,NA,NA,NA,NA,NA,NA,NA,NA,NA,NA,NA
8fdc3,check continue,flow.Sequence,3_0_7,NA,NA,skipped,NA,735663.10000014,NA,NA,735605.5,735663.20000005,2024-03-07T08:56:35Z,735912.274,NULL,NA,NA,NA,NA,NA,NA,NA,df,NA,7,NA,NA,NA,NA,NA,NA,NA,NA,NA,NA,NA,NA,NA,NA,NA,NA,NA,NA,NA
8fdc3,check continue,flow.Sequence,3_0_8,NA,NA,skipped,NA,735676.9000001,NA,NA,735605.5,735677.10000014,2024-03-07T08:56:35Z,735912.274,NULL,NA,NA,NA,NA,NA,NA,NA,dfs,NA,8,NA,NA,NA,NA,NA,NA,NA,NA,NA,NA,NA,NA,NA,NA,NA,NA,NA,NA,NA
8fdc3,check continue,flow.Sequence,3_0_9,NA,NA,skipped,NA,735688.9000001,NA,NA,735605.5,735689,2024-03-07T08:56:35Z,735912.274,NULL,NA,NA,NA,NA,NA,NA,NA,dsf,NA,9,NA,NA,NA,NA,NA,NA,NA,NA,NA,NA,NA,NA,NA,NA,NA,NA,NA,NA,NA
8fdc3,check continue,flow.Sequence,3_0_10,NA,NA,skipped,NA,735701,NA,NA,735605.5,735701.10000014,2024-03-07T08:56:35Z,735912.274,NULL,NA,NA,NA,NA,NA,NA,NA,df,NA,10,NA,NA,NA,NA,NA,NA,NA,NA,NA,NA,NA,NA,NA,NA,NA,NA,NA,NA,NA
8fdc3,check continue,flow.Sequence,3_0_11,NA,NA,skipped,NA,735713.70000005,NA,NA,735605.5,735713.80000019,2024-03-07T08:56:35Z,735912.274,NULL,NA,NA,NA,NA,NA,NA,NA,dfs,NA,11,NA,NA,NA,NA,NA,NA,NA,NA,NA,NA,NA,NA,NA,NA,NA,NA,NA,NA,NA
8fdc3,check continue,flow.Sequence,3_0_12,NA,NA,skipped,NA,735726.70000005,NA,NA,735605.5,735726.80000019,2024-03-07T08:56:35Z,735912.274,NULL,NA,NA,NA,NA,NA,NA,NA,dsf,NA,12,NA,NA,NA,NA,NA,NA,NA,NA,NA,NA,NA,NA,NA,NA,NA,NA,NA,NA,NA
8fdc3,check continue,flow.Sequence,3_0_13,NA,NA,skipped,NA,735739.10000014,NA,NA,735605.5,735739.10000014,2024-03-07T08:56:35Z,735912.274,NULL,NA,NA,NA,NA,NA,NA,NA,dsf,NA,13,NA,NA,NA,NA,NA,NA,NA,NA,NA,NA,NA,NA,NA,NA,NA,NA,NA,NA,NA
8fdc3,check continue,flow.Sequence,3_0_14,NA,NA,skipped,NA,735751.9000001,NA,NA,735605.5,735751.9000001,2024-03-07T08:56:35Z,735912.274,NULL,NA,NA,NA,NA,NA,NA,NA,NA,NA,14,NA,NA,NA,NA,NA,NA,NA,NA,NA,NA,NA,NA,NA,NA,NA,NA,NA,NA,NA
8fdc3,check continue,flow.Sequence,3_0_15,NA,NA,skipped,NA,735762.9000001,NA,NA,735605.5,735763,2024-03-07T08:56:35Z,735912.274,NULL,NA,NA,NA,NA,NA,NA,NA,NA,NA,15,NA,NA,NA,NA,NA,NA,NA,NA,NA,NA,NA,NA,NA,NA,NA,NA,NA,NA,NA
8fdc3,check continue,flow.Sequence,3_0_16,NA,NA,skipped,NA,735774.10000014,NA,NA,735605.5,735774.10000014,2024-03-07T08:56:35Z,735912.274,NULL,NA,NA,NA,NA,NA,NA,NA,NA,NA,16,NA,NA,NA,NA,NA,NA,NA,NA,NA,NA,NA,NA,NA,NA,NA,NA,NA,NA,NA
8fdc3,check continue,flow.Sequence,3_0_17,NA,NA,skipped,NA,735785.70000005,NA,NA,735605.5,735785.80000019,2024-03-07T08:56:35Z,735912.274,NULL,NA,NA,NA,NA,NA,NA,NA,NA,NA,17,NA,NA,NA,NA,NA,NA,NA,NA,NA,NA,NA,NA,NA,NA,NA,NA,NA,NA,NA
8fdc3,check continue,flow.Sequence,3_0_18,NA,NA,skipped,NA,735796.80000019,NA,NA,735605.5,735796.80000019,2024-03-07T08:56:35Z,735912.274,NULL,NA,NA,NA,NA,NA,NA,NA,NA,NA,18,NA,NA,NA,NA,NA,NA,NA,NA,NA,NA,NA,NA,NA,NA,NA,NA,NA,NA,NA
8fdc3,check continue,flow.Sequence,3_0_19,NA,NA,skipped,NA,735808,NA,NA,735605.5,735808,2024-03-07T08:56:35Z,735912.274,NULL,NA,NA,NA,NA,NA,NA,NA,NA,NA,19,NA,NA,NA,NA,NA,NA,NA,NA,NA,NA,NA,NA,NA,NA,NA,NA,NA,NA,NA
8fdc3,check continue,flow.Sequence,3_0_20,NA,NA,skipped,NA,735818.9000001,NA,NA,735605.5,735819,2024-03-07T08:56:35Z,735912.274,NULL,NA,NA,NA,NA,NA,NA,NA,NA,NA,20,NA,NA,NA,NA,NA,NA,NA,NA,NA,NA,NA,NA,NA,NA,NA,NA,NA,NA,NA
8fdc3,check continue,flow.Sequence,3_0_21,NA,NA,skipped,NA,735831.9000001,NA,NA,735605.5,735832,2024-03-07T08:56:35Z,735912.274,NULL,NA,NA,NA,NA,NA,NA,NA,NA,NA,21,NA,NA,NA,NA,NA,NA,NA,NA,NA,NA,NA,NA,NA,NA,NA,NA,NA,NA,NA
8fdc3,check continue,flow.Sequence,3_0_22,NA,NA,skipped,NA,735844.20000005,NA,NA,735605.5,735844.30000019,2024-03-07T08:56:36Z,735912.274,NULL,NA,NA,NA,NA,NA,NA,NA,NA,NA,22,NA,NA,NA,NA,NA,NA,NA,NA,NA,NA,NA,NA,NA,NA,NA,NA,NA,NA,NA
8fdc3,check continue,flow.Sequence,3_0_23,NA,NA,skipped,NA,735856.70000005,NA,NA,735605.5,735856.80000019,2024-03-07T08:56:36Z,735912.274,NULL,NA,NA,NA,NA,NA,NA,NA,NA,NA,23,NA,NA,NA,NA,NA,NA,NA,NA,NA,NA,NA,NA,NA,NA,NA,NA,NA,NA,NA
8fdc3,check continue,flow.Sequence,3_0_24,NA,NA,skipped,NA,735867.60000014,NA,NA,735605.5,735867.70000005,2024-03-07T08:56:36Z,735912.274,NULL,NA,NA,NA,NA,NA,NA,NA,NA,NA,24,NA,NA,NA,NA,NA,NA,NA,NA,NA,NA,NA,NA,NA,NA,NA,NA,NA,NA,NA
8fdc3,check continue,flow.Sequence,3_0_25,NA,NA,skipped,NA,735879,NA,NA,735605.5,735879.10000014,2024-03-07T08:56:36Z,735912.274,NULL,NA,NA,NA,NA,NA,NA,NA,NA,NA,25,NA,NA,NA,NA,NA,NA,NA,NA,NA,NA,NA,NA,NA,NA,NA,NA,NA,NA,NA
8fdc3,check continue,flow.Sequence,3_0_26,NA,NA,skipped,NA,735889,NA,NA,735605.5,735889.10000014,2024-03-07T08:56:36Z,735912.274,NULL,NA,NA,NA,NA,NA,NA,NA,NA,NA,26,NA,NA,NA,NA,NA,NA,NA,NA,NA,NA,NA,NA,NA,NA,NA,NA,NA,NA,NA
8fdc3,check continue,flow.Sequence,3_0_27,NA,NA,skipped,NA,735901.20000005,NA,NA,735605.5,735901.30000019,2024-03-07T08:56:36Z,735912.274,NULL,NA,NA,NA,NA,NA,NA,NA,NA,NA,27,NA,NA,NA,NA,NA,NA,NA,NA,NA,NA,NA,NA,NA,NA,NA,NA,NA,NA,NA
8fdc3,check continue,flow.Sequence,3_0_28,NA,NA,skipped,NA,735912,NA,NA,735605.5,735912.10000014,2024-03-07T08:56:36Z,735912.274,NULL,NA,NA,NA,NA,NA,NA,NA,NA,NA,28,NA,NA,NA,NA,NA,NA,NA,NA,NA,NA,NA,NA,NA,NA,NA,NA,NA,NA,NA
8fdc3,check continue,flow.Sequence,3_0_29,NA,NA,skipped,NA,735922.9000001,NA,NA,735605.5,735923,2024-03-07T08:56:36Z,735912.274,NULL,NA,NA,NA,NA,NA,NA,NA,NA,NA,29,NA,NA,NA,NA,NA,NA,NA,NA,NA,NA,NA,NA,NA,NA,NA,NA,NA,NA,NA
8fdc3,until continue,flow.Loop,3_0,NA,NA,completion,353936.868,381653.60000014,381668.632,381668.632,735605.5,735923,2024-03-07T08:56:36Z,735912.274,NULL,NA,NA,NA,NA,NA,NA,NA,NA,NA,NA,NA,NA,NA,NA,NA,NA,NA,NA,NA,NA,NA,NA,NA,NA,NA,NA,NA,NA,NA
8fdc3,block 1,flow.Sequence,3,NA,NA,completion,353936.868,381653.60000014,381668.632,381668.632,735605.5,735923,2024-03-07T08:56:36Z,735912.274,NULL,NA,NA,NA,NA,NA,NA,NA,NA,NA,NA,NA,NA,NA,NA,NA,NA,NA,NA,NA,NA,NA,NA,NA,NA,NA,NA,NA,NA,NA
8fdc3,1.Part Over,canvas.Screen,4,NA,keypress(Space),response,2030.6260000954,735923,735912.274,735912.274,737942.9000001,737943.30000019,2024-03-07T08:56:38Z,737993.7,NULL,NA,NA,NA,NA,NA,NA,NA,NA,NA,NA,NA,NA,NA,NA,NA,NA,NA,NA,NA,NA,NA,NA,NA,NA,NA,NA,NA,NA,NA
8fdc3,deep,flow.Sequence,5_0_0_0_0_0,NA,NA,skipped,NA,737983.10000014,NA,NA,737942.9000001,737983.20000005,2024-03-07T08:56:38Z,737993.7,NULL,Vergnügen,kichekesho,s,dubwana,mpanuko,mtesaji,NA,sdf,NA,0,NA,NA,NA,NA,NA,NA,NA,NA,NA,NA,NA,NA,NA,NA,NA,NA,NA,NA,NA
8fdc3,Shallow Question,html.Page,5_0_0_0_0_1_0,NA,NA,form submission,7557.3,737983.20000005,737977.768,737993.7,745551,745551.20000005,2024-03-07T08:56:45Z,745555.4,NULL,Vergnügen,kichekesho,s,dubwana,mpanuko,mtesaji,dubwana,NA,NA,0,NA,NA,NA,NA,NA,NA,NA,NA,NA,NA,NA,NA,NA,NA,NA,NA,NA,NA,NA
8fdc3,"""Richtig""-Screen",canvas.Screen,5_0_0_0_0_1_1,NA,NA,skipped,NA,745553,NA,NA,745551,745553.20000005,2024-03-07T08:56:45Z,745555.4,NULL,Vergnügen,kichekesho,s,dubwana,mpanuko,mtesaji,NA,sdf,NA,0,NA,NA,NA,NA,NA,NA,NA,NA,NA,NA,NA,NA,NA,NA,NA,NA,NA,NA,NA
8fdc3,"""Falsch""-Screen",canvas.Screen,5_0_0_0_0_1_2,NA,NA,timeout,4997.2999999999,745553.60000014,745539.024,745555.4,750536.3,750536.9000001,2024-03-07T08:56:50Z,750552.7,NULL,Vergnügen,kichekesho,s,dubwana,mpanuko,mtesaji,NA,sdf,0,0,NA,NA,NA,NA,NA,NA,NA,NA,NA,NA,NA,NA,NA,NA,NA,NA,NA,NA,NA
8fdc3,shallow,flow.Sequence,5_0_0_0_0_1,NA,NA,completion,12542.6,737983.20000005,737977.768,737993.7,750536.3,750537,2024-03-07T08:56:50Z,750552.7,NULL,Vergnügen,kichekesho,s,dubwana,mpanuko,mtesaji,NA,sdf,NA,0,NA,NA,NA,NA,NA,NA,NA,NA,NA,NA,NA,NA,NA,NA,NA,NA,NA,NA,NA
8fdc3,task,flow.Sequence,5_0_0_0_0,NA,NA,completion,12542.6,737983.10000014,737977.768,737993.7,750536.3,750537,2024-03-07T08:56:50Z,750552.7,NULL,Vergnügen,kichekesho,s,dubwana,mpanuko,mtesaji,NA,sdf,NA,0,NA,NA,NA,NA,NA,NA,NA,NA,NA,NA,NA,NA,NA,NA,NA,NA,NA,NA,NA
8fdc3,deep,flow.Sequence,5_0_0_0_1_0,NA,NA,skipped,NA,750537.10000014,NA,NA,750536.3,750537.10000014,2024-03-07T08:56:50Z,750552.7,NULL,Notfall,dharura,s,rairai,malalamiko,ahueni,NA,sdf,NA,0,NA,NA,NA,NA,NA,NA,NA,NA,NA,NA,NA,NA,NA,NA,NA,NA,NA,NA,NA
8fdc3,Shallow Question,html.Page,5_0_0_0_1_1_0,NA,NA,form submission,4576.7000000954,750537.20000005,750536.3,750552.7,755129.4000001,755129.5,2024-03-07T08:56:55Z,755133.582,NULL,Notfall,dharura,s,rairai,malalamiko,ahueni,dharura,NA,NA,0,NA,NA,NA,NA,NA,NA,NA,NA,NA,NA,NA,NA,NA,NA,NA,NA,NA,NA,NA
8fdc3,"""Richtig""-Screen",canvas.Screen,5_0_0_0_1_1_1,NA,NA,timeout,5079.5179999999,755133.10000014,755133.582,755133.582,760196.6,760207,2024-03-07T08:57:00Z,760213.1,NULL,Notfall,dharura,s,rairai,malalamiko,ahueni,NA,sdf,1,0,NA,NA,NA,NA,NA,NA,NA,NA,NA,NA,NA,NA,NA,NA,NA,NA,NA,NA,NA
8fdc3,"""Falsch""-Screen",canvas.Screen,5_0_0_0_1_1_2,NA,NA,skipped,NA,760209.70000005,NA,NA,760196.6,760209.80000019,2024-03-07T08:57:00Z,760213.1,NULL,Notfall,dharura,s,rairai,malalamiko,ahueni,NA,sdf,NA,0,NA,NA,NA,NA,NA,NA,NA,NA,NA,NA,NA,NA,NA,NA,NA,NA,NA,NA,NA
8fdc3,shallow,flow.Sequence,5_0_0_0_1_1,NA,NA,completion,9643.9,750537.20000005,750536.3,750552.7,760196.6,760209.9000001,2024-03-07T08:57:00Z,760213.1,NULL,Notfall,dharura,s,rairai,malalamiko,ahueni,NA,sdf,NA,0,NA,NA,NA,NA,NA,NA,NA,NA,NA,NA,NA,NA,NA,NA,NA,NA,NA,NA,NA
8fdc3,task,flow.Sequence,5_0_0_0_1,NA,NA,completion,9643.9,750537,750536.3,750552.7,760196.6,760210,2024-03-07T08:57:00Z,760213.1,NULL,Notfall,dharura,s,rairai,malalamiko,ahueni,NA,sdf,NA,0,NA,NA,NA,NA,NA,NA,NA,NA,NA,NA,NA,NA,NA,NA,NA,NA,NA,NA,NA
8fdc3,Deep Question,html.Page,5_0_0_0_2_0_0,NA,NA,form submission,2284.5000001431,760210,760196.6,760213.1,762497.60000014,762497.9000001,2024-03-07T08:57:02Z,762512,NULL,Verstand,ufahamivu,d,NA,NA,NA,NA,NA,NA,0,NA,NA,NA,NA,NA,NA,NA,NA,NA,NA,NA,NA,NA,NA,NA,NA,NA,NA,NA
8fdc3,"""Richtig""-Screen",canvas.Screen,5_0_0_0_2_0_1,NA,NA,skipped,NA,762498.70000005,NA,NA,762497.60000014,762498.9000001,2024-03-07T08:57:02Z,762512,NULL,Verstand,ufahamivu,d,NA,NA,NA,NA,sdf,NA,0,NA,NA,NA,NA,NA,NA,NA,NA,NA,NA,NA,NA,NA,NA,NA,NA,NA,NA,NA
8fdc3,"""Falsch""-Screen",canvas.Screen,5_0_0_0_2_0_2,NA,NA,timeout,4997.2,762499.5,762495.5,762512,767492.4,767493,2024-03-07T08:57:07Z,767509.2,NULL,Verstand,ufahamivu,d,NA,NA,NA,NA,sdf,0,0,NA,NA,NA,NA,NA,NA,NA,NA,NA,NA,NA,NA,NA,NA,NA,NA,NA,NA,NA
8fdc3,deep,flow.Sequence,5_0_0_0_2_0,NA,NA,completion,7279.3,760210,760196.6,760213.1,767492.4,767493.20000005,2024-03-07T08:57:07Z,767509.2,NULL,Verstand,ufahamivu,d,NA,NA,NA,NA,sdf,NA,0,NA,NA,NA,NA,NA,NA,NA,NA,NA,NA,NA,NA,NA,NA,NA,NA,NA,NA,NA
8fdc3,shallow,flow.Sequence,5_0_0_0_2_1,NA,NA,skipped,NA,767493.4000001,NA,NA,767492.4,767493.4000001,2024-03-07T08:57:07Z,767509.2,NULL,Verstand,ufahamivu,d,NA,NA,NA,NA,sdf,NA,0,NA,NA,NA,NA,NA,NA,NA,NA,NA,NA,NA,NA,NA,NA,NA,NA,NA,NA,NA
8fdc3,task,flow.Sequence,5_0_0_0_2,NA,NA,completion,7279.3,760210,760196.6,760213.1,767492.4,767493.5,2024-03-07T08:57:07Z,767509.2,NULL,Verstand,ufahamivu,d,NA,NA,NA,NA,sdf,NA,0,NA,NA,NA,NA,NA,NA,NA,NA,NA,NA,NA,NA,NA,NA,NA,NA,NA,NA,NA
8fdc3,Deep Question,html.Page,5_0_0_0_3_0_0,NA,NA,form submission,5040.3,767493.70000005,767492.4,767509.2,772549.5,772549.70000005,2024-03-07T08:57:12Z,772555.7,NULL,Ergänzung,kijalizo,d,NA,NA,NA,NA,NA,NA,0,NA,NA,NA,NA,NA,NA,NA,NA,NA,NA,NA,NA,NA,NA,NA,NA,NA,NA,NA
8fdc3,"""Richtig""-Screen",canvas.Screen,5_0_0_0_3_0_1,NA,NA,skipped,NA,772553,NA,NA,772549.5,772553.20000005,2024-03-07T08:57:12Z,772555.7,NULL,Ergänzung,kijalizo,d,NA,NA,NA,NA,sdf,NA,0,NA,NA,NA,NA,NA,NA,NA,NA,NA,NA,NA,NA,NA,NA,NA,NA,NA,NA,NA
8fdc3,"""Falsch""-Screen",canvas.Screen,5_0_0_0_3_0_2,NA,NA,timeout,4997.2000000001,772554.10000014,772540.738,772555.7,777536.5,777537.4000001,2024-03-07T08:57:17Z,777552.9,NULL,Ergänzung,kijalizo,d,NA,NA,NA,NA,sdf,0,0,NA,NA,NA,NA,NA,NA,NA,NA,NA,NA,NA,NA,NA,NA,NA,NA,NA,NA,NA
8fdc3,deep,flow.Sequence,5_0_0_0_3_0,NA,NA,completion,10027.3,767493.70000005,767492.4,767509.2,777536.5,777537.80000019,2024-03-07T08:57:17Z,777552.9,NULL,Ergänzung,kijalizo,d,NA,NA,NA,NA,sdf,NA,0,NA,NA,NA,NA,NA,NA,NA,NA,NA,NA,NA,NA,NA,NA,NA,NA,NA,NA,NA
8fdc3,shallow,flow.Sequence,5_0_0_0_3_1,NA,NA,skipped,NA,777538,NA,NA,777536.5,777538.20000005,2024-03-07T08:57:17Z,777552.9,NULL,Ergänzung,kijalizo,d,NA,NA,NA,NA,sdf,NA,0,NA,NA,NA,NA,NA,NA,NA,NA,NA,NA,NA,NA,NA,NA,NA,NA,NA,NA,NA
8fdc3,task,flow.Sequence,5_0_0_0_3,NA,NA,completion,10027.3,767493.60000014,767492.4,767509.2,777536.5,777538.4000001,2024-03-07T08:57:17Z,777552.9,NULL,Ergänzung,kijalizo,d,NA,NA,NA,NA,sdf,NA,0,NA,NA,NA,NA,NA,NA,NA,NA,NA,NA,NA,NA,NA,NA,NA,NA,NA,NA,NA
8fdc3,deep,flow.Sequence,5_0_0_0_4_0,NA,NA,skipped,NA,777538.60000014,NA,NA,777536.5,777538.70000005,2024-03-07T08:57:17Z,777552.9,NULL,Ausschluss,kutengwa,s,ununuzi,taratibu,madeni,NA,sdf,NA,0,NA,NA,NA,NA,NA,NA,NA,NA,NA,NA,NA,NA,NA,NA,NA,NA,NA,NA,NA
8fdc3,Shallow Question,html.Page,5_0_0_0_4_1_0,NA,NA,form submission,5140.9000001907,777538.9000001,777536.5,777552.9,782693.80000019,782694,2024-03-07T08:57:22Z,782699.4,NULL,Ausschluss,kutengwa,s,ununuzi,taratibu,madeni,ununuzi,NA,NA,0,NA,NA,NA,NA,NA,NA,NA,NA,NA,NA,NA,NA,NA,NA,NA,NA,NA,NA,NA
8fdc3,"""Richtig""-Screen",canvas.Screen,5_0_0_0_4_1_1,NA,NA,skipped,NA,782695.4000001,NA,NA,782693.80000019,782695.5,2024-03-07T08:57:22Z,782699.4,NULL,Ausschluss,kutengwa,s,ununuzi,taratibu,madeni,NA,sdf,NA,0,NA,NA,NA,NA,NA,NA,NA,NA,NA,NA,NA,NA,NA,NA,NA,NA,NA,NA,NA
8fdc3,"""Falsch""-Screen",canvas.Screen,5_0_0_0_4_1_2,NA,NA,timeout,4997.4,782695.9000001,782683.5,782699.4,787680,787681,2024-03-07T08:57:27Z,787696.8,NULL,Ausschluss,kutengwa,s,ununuzi,taratibu,madeni,NA,sdf,0,0,NA,NA,NA,NA,NA,NA,NA,NA,NA,NA,NA,NA,NA,NA,NA,NA,NA,NA,NA
8fdc3,shallow,flow.Sequence,5_0_0_0_4_1,NA,NA,completion,10127.1,777538.80000019,777536.5,777552.9,787680,787681.5,2024-03-07T08:57:27Z,787696.8,NULL,Ausschluss,kutengwa,s,ununuzi,taratibu,madeni,NA,sdf,NA,0,NA,NA,NA,NA,NA,NA,NA,NA,NA,NA,NA,NA,NA,NA,NA,NA,NA,NA,NA
8fdc3,task,flow.Sequence,5_0_0_0_4,NA,NA,completion,10127.1,777538.5,777536.5,777552.9,787680,787681.70000005,2024-03-07T08:57:27Z,787696.8,NULL,Ausschluss,kutengwa,s,ununuzi,taratibu,madeni,NA,sdf,NA,0,NA,NA,NA,NA,NA,NA,NA,NA,NA,NA,NA,NA,NA,NA,NA,NA,NA,NA,NA
8fdc3,Deep Question,html.Page,5_0_0_0_5_0_0,NA,NA,form submission,3195.0000001907,787682,787680,787696.8,790891.80000019,790892.10000014,2024-03-07T08:57:31Z,790894.52,NULL,Widerstand,usulubu,d,NA,NA,NA,NA,NA,NA,0,NA,NA,NA,NA,NA,NA,NA,NA,NA,NA,NA,NA,NA,NA,NA,NA,NA,NA,NA
8fdc3,"""Richtig""-Screen",canvas.Screen,5_0_0_0_5_0_1,NA,NA,skipped,NA,790895.20000005,NA,NA,790891.80000019,790895.4000001,2024-03-07T08:57:31Z,790894.52,NULL,Widerstand,usulubu,d,NA,NA,NA,NA,sdf,NA,0,NA,NA,NA,NA,NA,NA,NA,NA,NA,NA,NA,NA,NA,NA,NA,NA,NA,NA,NA
8fdc3,"""Falsch""-Screen",canvas.Screen,5_0_0_0_5_0_2,NA,NA,timeout,4997.28,790896,790894.52,790894.52,795875.2,795875.80000019,2024-03-07T08:57:36Z,795891.8,NULL,Widerstand,usulubu,d,NA,NA,NA,NA,sdf,0,0,NA,NA,NA,NA,NA,NA,NA,NA,NA,NA,NA,NA,NA,NA,NA,NA,NA,NA,NA
8fdc3,deep,flow.Sequence,5_0_0_0_5_0,NA,NA,completion,8178.3999999999,787681.9000001,787680,787696.8,795875.2,795875.9000001,2024-03-07T08:57:36Z,795891.8,NULL,Widerstand,usulubu,d,NA,NA,NA,NA,sdf,NA,0,NA,NA,NA,NA,NA,NA,NA,NA,NA,NA,NA,NA,NA,NA,NA,NA,NA,NA,NA
8fdc3,shallow,flow.Sequence,5_0_0_0_5_1,NA,NA,skipped,NA,795875.9000001,NA,NA,795875.2,795876,2024-03-07T08:57:36Z,795891.8,NULL,Widerstand,usulubu,d,NA,NA,NA,NA,sdf,NA,0,NA,NA,NA,NA,NA,NA,NA,NA,NA,NA,NA,NA,NA,NA,NA,NA,NA,NA,NA
8fdc3,task,flow.Sequence,5_0_0_0_5,NA,NA,completion,8178.3999999999,787681.9000001,787680,787696.8,795875.2,795876.10000014,2024-03-07T08:57:36Z,795891.8,NULL,Widerstand,usulubu,d,NA,NA,NA,NA,sdf,NA,0,NA,NA,NA,NA,NA,NA,NA,NA,NA,NA,NA,NA,NA,NA,NA,NA,NA,NA,NA
8fdc3,Deep Question,html.Page,5_0_0_0_6_0_0,NA,NA,form submission,3577.1000000953,795876.10000014,795875.2,795891.8,799468.9000001,799469,2024-03-07T08:57:39Z,799472.4,NULL,Wohlstand,mafanikio,d,NA,NA,NA,NA,NA,NA,0,NA,NA,NA,NA,NA,NA,NA,NA,NA,NA,NA,NA,NA,NA,NA,NA,NA,NA,NA
8fdc3,"""Richtig""-Screen",canvas.Screen,5_0_0_0_6_0_1,NA,NA,skipped,NA,799470.5,NA,NA,799468.9000001,799470.60000014,2024-03-07T08:57:39Z,799472.4,NULL,Wohlstand,mafanikio,d,NA,NA,NA,NA,sdf,NA,0,NA,NA,NA,NA,NA,NA,NA,NA,NA,NA,NA,NA,NA,NA,NA,NA,NA,NA,NA
8fdc3,"""Falsch""-Screen",canvas.Screen,5_0_0_0_6_0_2,NA,NA,timeout,4997.6,799471,799456.676,799472.4,804453.2,804453.70000005,2024-03-07T08:57:44Z,804470,NULL,Wohlstand,mafanikio,d,NA,NA,NA,NA,sdf,0,0,NA,NA,NA,NA,NA,NA,NA,NA,NA,NA,NA,NA,NA,NA,NA,NA,NA,NA,NA
8fdc3,deep,flow.Sequence,5_0_0_0_6_0,NA,NA,completion,8561.3999999999,795876.10000014,795875.2,795891.8,804453.2,804453.70000005,2024-03-07T08:57:44Z,804470,NULL,Wohlstand,mafanikio,d,NA,NA,NA,NA,sdf,NA,0,NA,NA,NA,NA,NA,NA,NA,NA,NA,NA,NA,NA,NA,NA,NA,NA,NA,NA,NA
8fdc3,shallow,flow.Sequence,5_0_0_0_6_1,NA,NA,skipped,NA,804453.80000019,NA,NA,804453.2,804453.80000019,2024-03-07T08:57:44Z,804470,NULL,Wohlstand,mafanikio,d,NA,NA,NA,NA,sdf,NA,0,NA,NA,NA,NA,NA,NA,NA,NA,NA,NA,NA,NA,NA,NA,NA,NA,NA,NA,NA
8fdc3,task,flow.Sequence,5_0_0_0_6,NA,NA,completion,8561.3999999999,795876.10000014,795875.2,795891.8,804453.2,804453.9000001,2024-03-07T08:57:44Z,804470,NULL,Wohlstand,mafanikio,d,NA,NA,NA,NA,sdf,NA,0,NA,NA,NA,NA,NA,NA,NA,NA,NA,NA,NA,NA,NA,NA,NA,NA,NA,NA,NA
8fdc3,deep,flow.Sequence,5_0_0_0_7_0,NA,NA,skipped,NA,804454,NA,NA,804453.2,804454,2024-03-07T08:57:44Z,804470,NULL,Gelegenheit,wakati,s,mchanganyiko,kipaumbele,kushuku,NA,sdf,NA,0,NA,NA,NA,NA,NA,NA,NA,NA,NA,NA,NA,NA,NA,NA,NA,NA,NA,NA,NA
8fdc3,Shallow Question,html.Page,5_0_0_0_7_1_0,NA,NA,form submission,4241.3000001907,804454,804453.2,804470,808711.30000019,808711.5,2024-03-07T08:57:48Z,808716.8,NULL,Gelegenheit,wakati,s,mchanganyiko,kipaumbele,kushuku,wakati,NA,NA,0,NA,NA,NA,NA,NA,NA,NA,NA,NA,NA,NA,NA,NA,NA,NA,NA,NA,NA,NA
8fdc3,"""Richtig""-Screen",canvas.Screen,5_0_0_0_7_1_1,NA,NA,timeout,4997.3999999999,808714.60000014,808700.924,808716.8,813697.6,813698,2024-03-07T08:57:53Z,813714.2,NULL,Gelegenheit,wakati,s,mchanganyiko,kipaumbele,kushuku,NA,sdf,1,0,NA,NA,NA,NA,NA,NA,NA,NA,NA,NA,NA,NA,NA,NA,NA,NA,NA,NA,NA
8fdc3,"""Falsch""-Screen",canvas.Screen,5_0_0_0_7_1_2,NA,NA,skipped,NA,813699.70000005,NA,NA,813697.6,813699.80000019,2024-03-07T08:57:53Z,813714.2,NULL,Gelegenheit,wakati,s,mchanganyiko,kipaumbele,kushuku,NA,sdf,NA,0,NA,NA,NA,NA,NA,NA,NA,NA,NA,NA,NA,NA,NA,NA,NA,NA,NA,NA,NA
8fdc3,shallow,flow.Sequence,5_0_0_0_7_1,NA,NA,completion,9227.6,804454,804453.2,804470,813697.6,813699.9000001,2024-03-07T08:57:53Z,813714.2,NULL,Gelegenheit,wakati,s,mchanganyiko,kipaumbele,kushuku,NA,sdf,NA,0,NA,NA,NA,NA,NA,NA,NA,NA,NA,NA,NA,NA,NA,NA,NA,NA,NA,NA,NA
8fdc3,task,flow.Sequence,5_0_0_0_7,NA,NA,completion,9227.6,804454,804453.2,804470,813697.6,813700,2024-03-07T08:57:53Z,813714.2,NULL,Gelegenheit,wakati,s,mchanganyiko,kipaumbele,kushuku,NA,sdf,NA,0,NA,NA,NA,NA,NA,NA,NA,NA,NA,NA,NA,NA,NA,NA,NA,NA,NA,NA,NA
8fdc3,block,flow.Loop,5_0_0_0,NA,NA,completion,75703.9,737983.10000014,737977.768,737993.7,813697.6,813700.10000014,2024-03-07T08:57:53Z,813714.2,NULL,NA,NA,NA,NA,NA,NA,NA,sdf,NA,0,NA,NA,NA,NA,NA,NA,NA,NA,NA,NA,NA,NA,NA,NA,NA,NA,NA,NA,NA
8fdc3,weiter,canvas.Screen,5_0_0_1,sdf,keypress(Space),response,1174.4000001431,813700.10000014,813697.6,813714.2,814888.60000014,814890.10000014,2024-03-07T08:57:55Z,814896.692,NULL,NA,NA,NA,NA,NA,NA,NA,sdf,NA,0,NA,NA,NA,NA,NA,NA,NA,NA,NA,NA,NA,NA,NA,NA,NA,NA,NA,NA,NA
8fdc3,check continue,flow.Sequence,5_0_0,NA,NA,completion,76894.900000143,737983.10000014,737977.768,737993.7,814888.60000014,814890.4000001,2024-03-07T08:57:55Z,814896.692,NULL,NA,NA,NA,NA,NA,NA,NA,sdf,NA,0,NA,NA,NA,NA,NA,NA,NA,NA,NA,NA,NA,NA,NA,NA,NA,NA,NA,NA,NA
8fdc3,deep,flow.Sequence,5_0_1_0_0_0,NA,NA,skipped,NA,814908,NA,NA,814888.60000014,814908,2024-03-07T08:57:55Z,814896.692,NULL,Ausschluss,kutengwa,s,ununuzi,taratibu,madeni,NA,sdfdsf,NA,1,NA,NA,NA,NA,NA,NA,NA,NA,NA,NA,NA,NA,NA,NA,NA,NA,NA,NA,NA
8fdc3,Shallow Question,html.Page,5_0_1_0_0_1_0,NA,NA,form submission,5199.2080000953,814908.10000014,814896.692,814896.692,820095.9000001,820096,2024-03-07T08:58:00Z,820109.9,NULL,Ausschluss,kutengwa,s,ununuzi,taratibu,madeni,kutengwa,NA,NA,1,NA,NA,NA,NA,NA,NA,NA,NA,NA,NA,NA,NA,NA,NA,NA,NA,NA,NA,NA
8fdc3,"""Richtig""-Screen",canvas.Screen,5_0_1_0_0_1_1,NA,NA,timeout,4996.9,820097.4000001,820093.328,820109.9,825090.7,825091.9000001,2024-03-07T08:58:05Z,825106.8,NULL,Ausschluss,kutengwa,s,ununuzi,taratibu,madeni,NA,sdfdsf,1,1,NA,NA,NA,NA,NA,NA,NA,NA,NA,NA,NA,NA,NA,NA,NA,NA,NA,NA,NA
8fdc3,"""Falsch""-Screen",canvas.Screen,5_0_1_0_0_1_2,NA,NA,skipped,NA,825097.80000019,NA,NA,825090.7,825098,2024-03-07T08:58:05Z,825106.8,NULL,Ausschluss,kutengwa,s,ununuzi,taratibu,madeni,NA,sdfdsf,NA,1,NA,NA,NA,NA,NA,NA,NA,NA,NA,NA,NA,NA,NA,NA,NA,NA,NA,NA,NA
8fdc3,shallow,flow.Sequence,5_0_1_0_0_1,NA,NA,completion,10194.008,814908.10000014,814896.692,814896.692,825090.7,825098.30000019,2024-03-07T08:58:05Z,825106.8,NULL,Ausschluss,kutengwa,s,ununuzi,taratibu,madeni,NA,sdfdsf,NA,1,NA,NA,NA,NA,NA,NA,NA,NA,NA,NA,NA,NA,NA,NA,NA,NA,NA,NA,NA
8fdc3,task,flow.Sequence,5_0_1_0_0,NA,NA,completion,10194.008,814908,814896.692,814896.692,825090.7,825098.4000001,2024-03-07T08:58:05Z,825106.8,NULL,Ausschluss,kutengwa,s,ununuzi,taratibu,madeni,NA,sdfdsf,NA,1,NA,NA,NA,NA,NA,NA,NA,NA,NA,NA,NA,NA,NA,NA,NA,NA,NA,NA,NA
8fdc3,deep,flow.Sequence,5_0_1_0_1_0,NA,NA,skipped,NA,825098.60000014,NA,NA,825090.7,825098.70000005,2024-03-07T08:58:05Z,825106.8,NULL,Vergnügen,kichekesho,s,dubwana,mpanuko,mtesaji,NA,sdfdsf,NA,1,NA,NA,NA,NA,NA,NA,NA,NA,NA,NA,NA,NA,NA,NA,NA,NA,NA,NA,NA
8fdc3,Shallow Question,html.Page,5_0_1_0_1_1_0,NA,NA,form submission,5435.5000001907,825098.80000019,825090.7,825106.8,830542.30000019,830542.4000001,2024-03-07T08:58:10Z,830553.4,NULL,Vergnügen,kichekesho,s,dubwana,mpanuko,mtesaji,kichekesho,NA,NA,1,NA,NA,NA,NA,NA,NA,NA,NA,NA,NA,NA,NA,NA,NA,NA,NA,NA,NA,NA
8fdc3,"""Richtig""-Screen",canvas.Screen,5_0_1_0_1_1_1,NA,NA,timeout,4997.5,830543.80000019,830537.702,830553.4,835534.2,835535.10000014,2024-03-07T08:58:15Z,835550.9,NULL,Vergnügen,kichekesho,s,dubwana,mpanuko,mtesaji,NA,sdfdsf,1,1,NA,NA,NA,NA,NA,NA,NA,NA,NA,NA,NA,NA,NA,NA,NA,NA,NA,NA,NA
8fdc3,"""Falsch""-Screen",canvas.Screen,5_0_1_0_1_1_2,NA,NA,skipped,NA,835540.5,NA,NA,835534.2,835540.60000014,2024-03-07T08:58:15Z,835550.9,NULL,Vergnügen,kichekesho,s,dubwana,mpanuko,mtesaji,NA,sdfdsf,NA,1,NA,NA,NA,NA,NA,NA,NA,NA,NA,NA,NA,NA,NA,NA,NA,NA,NA,NA,NA
8fdc3,shallow,flow.Sequence,5_0_1_0_1_1,NA,NA,completion,10427.4,825098.80000019,825090.7,825106.8,835534.2,835540.70000005,2024-03-07T08:58:15Z,835550.9,NULL,Vergnügen,kichekesho,s,dubwana,mpanuko,mtesaji,NA,sdfdsf,NA,1,NA,NA,NA,NA,NA,NA,NA,NA,NA,NA,NA,NA,NA,NA,NA,NA,NA,NA,NA
8fdc3,task,flow.Sequence,5_0_1_0_1,NA,NA,completion,10427.4,825098.60000014,825090.7,825106.8,835534.2,835540.80000019,2024-03-07T08:58:15Z,835550.9,NULL,Vergnügen,kichekesho,s,dubwana,mpanuko,mtesaji,NA,sdfdsf,NA,1,NA,NA,NA,NA,NA,NA,NA,NA,NA,NA,NA,NA,NA,NA,NA,NA,NA,NA,NA
8fdc3,deep,flow.Sequence,5_0_1_0_2_0,NA,NA,skipped,NA,835540.80000019,NA,NA,835534.2,835540.80000019,2024-03-07T08:58:15Z,835550.9,NULL,Notfall,dharura,s,rairai,malalamiko,ahueni,NA,sdfdsf,NA,1,NA,NA,NA,NA,NA,NA,NA,NA,NA,NA,NA,NA,NA,NA,NA,NA,NA,NA,NA
8fdc3,Shallow Question,html.Page,5_0_1_0_2_1_0,NA,NA,form submission,4323.700000143,835540.9000001,835534.2,835550.9,839874.60000014,839874.80000019,2024-03-07T08:58:20Z,839881.1,NULL,Notfall,dharura,s,rairai,malalamiko,ahueni,dharura,NA,NA,1,NA,NA,NA,NA,NA,NA,NA,NA,NA,NA,NA,NA,NA,NA,NA,NA,NA,NA,NA
8fdc3,"""Richtig""-Screen",canvas.Screen,5_0_1_0_2_1_1,NA,NA,timeout,4997.5,839877.80000019,839864.992,839881.1,844861.6,844862.5,2024-03-07T08:58:25Z,844878.6,NULL,Notfall,dharura,s,rairai,malalamiko,ahueni,NA,sdfdsf,1,1,NA,NA,NA,NA,NA,NA,NA,NA,NA,NA,NA,NA,NA,NA,NA,NA,NA,NA,NA
8fdc3,"""Falsch""-Screen",canvas.Screen,5_0_1_0_2_1_2,NA,NA,skipped,NA,844867.5,NA,NA,844861.6,844867.60000014,2024-03-07T08:58:25Z,844878.6,NULL,Notfall,dharura,s,rairai,malalamiko,ahueni,NA,sdfdsf,NA,1,NA,NA,NA,NA,NA,NA,NA,NA,NA,NA,NA,NA,NA,NA,NA,NA,NA,NA,NA
8fdc3,shallow,flow.Sequence,5_0_1_0_2_1,NA,NA,completion,9310.7,835540.9000001,835534.2,835550.9,844861.6,844867.9000001,2024-03-07T08:58:25Z,844878.6,NULL,Notfall,dharura,s,rairai,malalamiko,ahueni,NA,sdfdsf,NA,1,NA,NA,NA,NA,NA,NA,NA,NA,NA,NA,NA,NA,NA,NA,NA,NA,NA,NA,NA
8fdc3,task,flow.Sequence,5_0_1_0_2,NA,NA,completion,9310.7,835540.80000019,835534.2,835550.9,844861.6,844868,2024-03-07T08:58:25Z,844878.6,NULL,Notfall,dharura,s,rairai,malalamiko,ahueni,NA,sdfdsf,NA,1,NA,NA,NA,NA,NA,NA,NA,NA,NA,NA,NA,NA,NA,NA,NA,NA,NA,NA,NA
8fdc3,deep,flow.Sequence,5_0_1_0_3_0,NA,NA,skipped,NA,844868.10000014,NA,NA,844861.6,844868.10000014,2024-03-07T08:58:25Z,844878.6,NULL,Gelegenheit,wakati,s,mchanganyiko,kipaumbele,kushuku,NA,sdfdsf,NA,1,NA,NA,NA,NA,NA,NA,NA,NA,NA,NA,NA,NA,NA,NA,NA,NA,NA,NA,NA
8fdc3,Shallow Question,html.Page,5_0_1_0_3_1_0,NA,NA,form submission,4477.6000000477,844868.10000014,844861.6,844878.6,849356.20000005,849356.30000019,2024-03-07T08:58:29Z,849358.7,NULL,Gelegenheit,wakati,s,mchanganyiko,kipaumbele,kushuku,wakati,NA,NA,1,NA,NA,NA,NA,NA,NA,NA,NA,NA,NA,NA,NA,NA,NA,NA,NA,NA,NA,NA
8fdc3,"""Richtig""-Screen",canvas.Screen,5_0_1_0_3_1_1,NA,NA,timeout,4997.4,849357.70000005,849343.7,849358.7,854339.2,854340.30000019,2024-03-07T08:58:34Z,854356.1,NULL,Gelegenheit,wakati,s,mchanganyiko,kipaumbele,kushuku,NA,sdfdsf,1,1,NA,NA,NA,NA,NA,NA,NA,NA,NA,NA,NA,NA,NA,NA,NA,NA,NA,NA,NA
8fdc3,"""Falsch""-Screen",canvas.Screen,5_0_1_0_3_1_2,NA,NA,skipped,NA,854345.4000001,NA,NA,854339.2,854345.4000001,2024-03-07T08:58:34Z,854356.1,NULL,Gelegenheit,wakati,s,mchanganyiko,kipaumbele,kushuku,NA,sdfdsf,NA,1,NA,NA,NA,NA,NA,NA,NA,NA,NA,NA,NA,NA,NA,NA,NA,NA,NA,NA,NA
8fdc3,shallow,flow.Sequence,5_0_1_0_3_1,NA,NA,completion,9460.6,844868.10000014,844861.6,844878.6,854339.2,854345.5,2024-03-07T08:58:34Z,854356.1,NULL,Gelegenheit,wakati,s,mchanganyiko,kipaumbele,kushuku,NA,sdfdsf,NA,1,NA,NA,NA,NA,NA,NA,NA,NA,NA,NA,NA,NA,NA,NA,NA,NA,NA,NA,NA
8fdc3,task,flow.Sequence,5_0_1_0_3,NA,NA,completion,9460.6,844868.10000014,844861.6,844878.6,854339.2,854345.60000014,2024-03-07T08:58:34Z,854356.1,NULL,Gelegenheit,wakati,s,mchanganyiko,kipaumbele,kushuku,NA,sdfdsf,NA,1,NA,NA,NA,NA,NA,NA,NA,NA,NA,NA,NA,NA,NA,NA,NA,NA,NA,NA,NA
8fdc3,Deep Question,html.Page,5_0_1_0_4_0_0,NA,NA,form submission,2915.4,854345.60000014,854339.2,854356.1,857271.5,857271.70000005,2024-03-07T08:58:37Z,857287.8,NULL,Ergänzung,kijalizo,d,NA,NA,NA,NA,NA,NA,1,NA,NA,NA,NA,NA,NA,NA,NA,NA,NA,NA,NA,NA,NA,NA,NA,NA,NA,NA
8fdc3,"""Richtig""-Screen",canvas.Screen,5_0_1_0_4_0_1,NA,NA,skipped,NA,857274.60000014,NA,NA,857271.5,857274.70000005,2024-03-07T08:58:37Z,857287.8,NULL,Ergänzung,kijalizo,d,NA,NA,NA,NA,sdfdsf,NA,1,NA,NA,NA,NA,NA,NA,NA,NA,NA,NA,NA,NA,NA,NA,NA,NA,NA,NA,NA
8fdc3,"""Falsch""-Screen",canvas.Screen,5_0_1_0_4_0_2,NA,NA,timeout,4996.7999999999,857275.60000014,857270.762,857287.8,862267.9,862268.9000001,2024-03-07T08:58:42Z,862284.6,NULL,Ergänzung,kijalizo,d,NA,NA,NA,NA,sdfdsf,0,1,NA,NA,NA,NA,NA,NA,NA,NA,NA,NA,NA,NA,NA,NA,NA,NA,NA,NA,NA
8fdc3,deep,flow.Sequence,5_0_1_0_4_0,NA,NA,completion,7911.8,854345.60000014,854339.2,854356.1,862267.9,862269.30000019,2024-03-07T08:58:42Z,862284.6,NULL,Ergänzung,kijalizo,d,NA,NA,NA,NA,sdfdsf,NA,1,NA,NA,NA,NA,NA,NA,NA,NA,NA,NA,NA,NA,NA,NA,NA,NA,NA,NA,NA
8fdc3,shallow,flow.Sequence,5_0_1_0_4_1,NA,NA,skipped,NA,862269.4000001,NA,NA,862267.9,862269.60000014,2024-03-07T08:58:42Z,862284.6,NULL,Ergänzung,kijalizo,d,NA,NA,NA,NA,sdfdsf,NA,1,NA,NA,NA,NA,NA,NA,NA,NA,NA,NA,NA,NA,NA,NA,NA,NA,NA,NA,NA
8fdc3,task,flow.Sequence,5_0_1_0_4,NA,NA,completion,7911.8,854345.60000014,854339.2,854356.1,862267.9,862269.80000019,2024-03-07T08:58:42Z,862284.6,NULL,Ergänzung,kijalizo,d,NA,NA,NA,NA,sdfdsf,NA,1,NA,NA,NA,NA,NA,NA,NA,NA,NA,NA,NA,NA,NA,NA,NA,NA,NA,NA,NA
8fdc3,Deep Question,html.Page,5_0_1_0_5_0_0,NA,NA,form submission,8410.7000001908,862270,862267.9,862284.6,870695.30000019,870695.4000001,2024-03-07T08:58:50Z,870696.556,NULL,Wohlstand,mafanikio,d,NA,NA,NA,NA,NA,NA,1,NA,NA,NA,NA,NA,NA,NA,NA,NA,NA,NA,NA,NA,NA,NA,NA,NA,NA,NA
8fdc3,"""Richtig""-Screen",canvas.Screen,5_0_1_0_5_0_1,NA,NA,skipped,NA,870697,NA,NA,870695.30000019,870697.20000005,2024-03-07T08:58:50Z,870696.556,NULL,Wohlstand,mafanikio,d,NA,NA,NA,NA,sdfdsf,NA,1,NA,NA,NA,NA,NA,NA,NA,NA,NA,NA,NA,NA,NA,NA,NA,NA,NA,NA,NA
8fdc3,"""Falsch""-Screen",canvas.Screen,5_0_1_0_5_0_2,NA,NA,timeout,4996.044,870697.80000019,870696.556,870696.556,875676.1,875677.20000005,2024-03-07T08:58:55Z,875692.6,NULL,Wohlstand,mafanikio,d,NA,NA,NA,NA,sdfdsf,0,1,NA,NA,NA,NA,NA,NA,NA,NA,NA,NA,NA,NA,NA,NA,NA,NA,NA,NA,NA
8fdc3,deep,flow.Sequence,5_0_1_0_5_0,NA,NA,completion,13391.5,862269.9000001,862267.9,862284.6,875676.1,875677.60000014,2024-03-07T08:58:55Z,875692.6,NULL,Wohlstand,mafanikio,d,NA,NA,NA,NA,sdfdsf,NA,1,NA,NA,NA,NA,NA,NA,NA,NA,NA,NA,NA,NA,NA,NA,NA,NA,NA,NA,NA
8fdc3,shallow,flow.Sequence,5_0_1_0_5_1,NA,NA,skipped,NA,875677.70000005,NA,NA,875676.1,875677.80000019,2024-03-07T08:58:55Z,875692.6,NULL,Wohlstand,mafanikio,d,NA,NA,NA,NA,sdfdsf,NA,1,NA,NA,NA,NA,NA,NA,NA,NA,NA,NA,NA,NA,NA,NA,NA,NA,NA,NA,NA
8fdc3,task,flow.Sequence,5_0_1_0_5,NA,NA,completion,13391.5,862269.9000001,862267.9,862284.6,875676.1,875678.10000014,2024-03-07T08:58:55Z,875692.6,NULL,Wohlstand,mafanikio,d,NA,NA,NA,NA,sdfdsf,NA,1,NA,NA,NA,NA,NA,NA,NA,NA,NA,NA,NA,NA,NA,NA,NA,NA,NA,NA,NA
8fdc3,Deep Question,html.Page,5_0_1_0_6_0_0,NA,NA,form submission,3601.9,875678.30000019,875676.1,875692.6,879294.5,879294.70000005,2024-03-07T08:58:59Z,879307.4,NULL,Widerstand,usulubu,d,NA,NA,NA,NA,NA,NA,1,NA,NA,NA,NA,NA,NA,NA,NA,NA,NA,NA,NA,NA,NA,NA,NA,NA,NA,NA
8fdc3,"""Richtig""-Screen",canvas.Screen,5_0_1_0_6_0_1,NA,NA,skipped,NA,879296.60000014,NA,NA,879294.5,879296.80000019,2024-03-07T08:58:59Z,879307.4,NULL,Widerstand,usulubu,d,NA,NA,NA,NA,sdfdsf,NA,1,NA,NA,NA,NA,NA,NA,NA,NA,NA,NA,NA,NA,NA,NA,NA,NA,NA,NA,NA
8fdc3,"""Falsch""-Screen",canvas.Screen,5_0_1_0_6_0_2,NA,NA,timeout,4996.5,879297.20000005,879292.662,879307.4,884287.3,884288.60000014,2024-03-07T08:59:04Z,884303.9,NULL,Widerstand,usulubu,d,NA,NA,NA,NA,sdfdsf,0,1,NA,NA,NA,NA,NA,NA,NA,NA,NA,NA,NA,NA,NA,NA,NA,NA,NA,NA,NA
8fdc3,deep,flow.Sequence,5_0_1_0_6_0,NA,NA,completion,8594.7000000001,875678.20000005,875676.1,875692.6,884287.3,884288.80000019,2024-03-07T08:59:04Z,884303.9,NULL,Widerstand,usulubu,d,NA,NA,NA,NA,sdfdsf,NA,1,NA,NA,NA,NA,NA,NA,NA,NA,NA,NA,NA,NA,NA,NA,NA,NA,NA,NA,NA
8fdc3,shallow,flow.Sequence,5_0_1_0_6_1,NA,NA,skipped,NA,884288.80000019,NA,NA,884287.3,884288.9000001,2024-03-07T08:59:04Z,884303.9,NULL,Widerstand,usulubu,d,NA,NA,NA,NA,sdfdsf,NA,1,NA,NA,NA,NA,NA,NA,NA,NA,NA,NA,NA,NA,NA,NA,NA,NA,NA,NA,NA
8fdc3,task,flow.Sequence,5_0_1_0_6,NA,NA,completion,8594.7000000001,875678.20000005,875676.1,875692.6,884287.3,884288.9000001,2024-03-07T08:59:04Z,884303.9,NULL,Widerstand,usulubu,d,NA,NA,NA,NA,sdfdsf,NA,1,NA,NA,NA,NA,NA,NA,NA,NA,NA,NA,NA,NA,NA,NA,NA,NA,NA,NA,NA
8fdc3,Deep Question,html.Page,5_0_1_0_7_0_0,NA,NA,form submission,3423.5000000953,884288.9000001,884287.3,884303.9,887727.4000001,887727.60000014,2024-03-07T08:59:07Z,887735.2,NULL,Verstand,ufahamivu,d,NA,NA,NA,NA,NA,NA,1,NA,NA,NA,NA,NA,NA,NA,NA,NA,NA,NA,NA,NA,NA,NA,NA,NA,NA,NA
8fdc3,"""Richtig""-Screen",canvas.Screen,5_0_1_0_7_0_1,NA,NA,skipped,NA,887730.9000001,NA,NA,887727.4000001,887731.10000014,2024-03-07T08:59:07Z,887735.2,NULL,Verstand,ufahamivu,d,NA,NA,NA,NA,sdfdsf,NA,1,NA,NA,NA,NA,NA,NA,NA,NA,NA,NA,NA,NA,NA,NA,NA,NA,NA,NA,NA
8fdc3,"""Falsch""-Screen",canvas.Screen,5_0_1_0_7_0_2,NA,NA,timeout,4996.9,887731.80000019,887719.096,887735.2,892715.9,892717,2024-03-07T08:59:12Z,892732.1,NULL,Verstand,ufahamivu,d,NA,NA,NA,NA,sdfdsf,0,1,NA,NA,NA,NA,NA,NA,NA,NA,NA,NA,NA,NA,NA,NA,NA,NA,NA,NA,NA
8fdc3,deep,flow.Sequence,5_0_1_0_7_0,NA,NA,completion,8412,884288.9000001,884287.3,884303.9,892715.9,892717.4000001,2024-03-07T08:59:12Z,892732.1,NULL,Verstand,ufahamivu,d,NA,NA,NA,NA,sdfdsf,NA,1,NA,NA,NA,NA,NA,NA,NA,NA,NA,NA,NA,NA,NA,NA,NA,NA,NA,NA,NA
8fdc3,shallow,flow.Sequence,5_0_1_0_7_1,NA,NA,skipped,NA,892717.60000014,NA,NA,892715.9,892717.70000005,2024-03-07T08:59:12Z,892732.1,NULL,Verstand,ufahamivu,d,NA,NA,NA,NA,sdfdsf,NA,1,NA,NA,NA,NA,NA,NA,NA,NA,NA,NA,NA,NA,NA,NA,NA,NA,NA,NA,NA
8fdc3,task,flow.Sequence,5_0_1_0_7,NA,NA,completion,8412,884288.9000001,884287.3,884303.9,892715.9,892718,2024-03-07T08:59:12Z,892732.1,NULL,Verstand,ufahamivu,d,NA,NA,NA,NA,sdfdsf,NA,1,NA,NA,NA,NA,NA,NA,NA,NA,NA,NA,NA,NA,NA,NA,NA,NA,NA,NA,NA
8fdc3,block,flow.Loop,5_0_1_0,NA,NA,completion,77819.208,814908,814896.692,814896.692,892715.9,892718.10000014,2024-03-07T08:59:12Z,892732.1,NULL,NA,NA,NA,NA,NA,NA,NA,sdfdsf,NA,1,NA,NA,NA,NA,NA,NA,NA,NA,NA,NA,NA,NA,NA,NA,NA,NA,NA,NA,NA
8fdc3,weiter,canvas.Screen,5_0_1_1,sdf,keypress(Space),response,1120.4,892718.20000005,892715.9,892732.1,893852.5,893854.80000019,2024-03-07T08:59:14Z,893865.388,NULL,NA,NA,NA,NA,NA,NA,NA,sdfdsf,NA,1,NA,NA,NA,NA,NA,NA,NA,NA,NA,NA,NA,NA,NA,NA,NA,NA,NA,NA,NA
