observation,sender,sender_type,sender_id,response,response_action,ended_on,duration,time_run,time_render,time_show,time_end,time_commit,timestamp,time_switch,distractors,german,swahili,enc,distractor1,distractor2,distractor3,response_2,x,correct,x_2,url_vp,url_sess,meta_labjs_version,meta_location,meta_user_agent,meta_platform,meta_language,meta_locale,meta_time_zone,meta_timezone_offset,meta_screen_width,meta_screen_height,meta_scroll_width,meta_scroll_height,meta_window_inner_width,meta_window_inner_height,meta_device_pixel_ratio,meta_labjs_build_flavor,meta_labjs_build_commit
5c441,Introduction general,canvas.Screen,0,weiter,keypress(q),response,13749.699999928,373.10000002384,128.6,378.5,14128.199999928,14130.299999952,2024-06-03T14:54:11Z,14136.7,NULL,NA,NA,NA,NA,NA,NA,NA,NA,NA,NA,197,3,20.2.4,https://neurocog.fernuni.ch/studies/vweber/aberisha/encoding_immediate/index.html?vp=197&sess=3,"Mozilla/5.0 (Windows NT 10.0; Win64; x64) AppleWebKit/537.36 (KHTML, like Gecko) Chrome/125.0.0.0 Safari/537.36",Win32,de-DE,de,Europe/Zurich,-120,1536,864,1536,682,1536,730,1.25,production,f5b4a49f956347addd546a832a3327688c2c0fef
5c441,Introduction practice,canvas.Screen,1_0,NA,keypress(Space),response,3576.0999999523,14130.899999976,14127.888,14136.7,17712.799999952,17713.399999976,2024-06-03T14:54:15Z,17717.8,NULL,NA,NA,NA,NA,NA,NA,NA,NA,NA,NA,NA,NA,NA,NA,NA,NA,NA,NA,NA,NA,NA,NA,NA,NA,NA,NA,NA,NA,NA
5c441,deep,flow.Sequence,1_1_0_0,NA,NA,skipped,NA,17713.600000024,NA,NA,17712.799999952,17713.799999952,2024-06-03T14:54:15Z,17717.8,"c(""distractor1"", ""distractor2"", ""distractor3"")",Kritik,lawama,s,dereva,nafasi,mawazo,NA,NA,NA,NA,NA,NA,NA,NA,NA,NA,NA,NA,NA,NA,NA,NA,NA,NA,NA,NA,NA,NA,NA
5c441,Shallow Question,html.Page,1_1_0_1_0,NA,NA,form submission,9309.8000000238,17714,17703.224,17717.8,27027.600000024,27027.899999976,2024-06-03T14:54:24Z,27045.5,"c(""distractor1"", ""distractor2"", ""distractor3"")",Kritik,lawama,s,dereva,nafasi,mawazo,dereva,NA,NA,NA,NA,NA,NA,NA,NA,NA,NA,NA,NA,NA,NA,NA,NA,NA,NA,NA,NA,NA,NA
5c441,"""Richtig""-Screen",canvas.Screen,1_1_0_1_1,NA,NA,skipped,NA,27029.299999952,NA,NA,27027.600000024,27029.399999976,2024-06-03T14:54:24Z,27045.5,"c(""distractor1"", ""distractor2"", ""distractor3"")",Kritik,lawama,s,dereva,nafasi,mawazo,NA,NA,NA,NA,NA,NA,NA,NA,NA,NA,NA,NA,NA,NA,NA,NA,NA,NA,NA,NA,NA,NA,NA
5c441,"""Falsch""-Screen",canvas.Screen,1_1_0_1_2,NA,NA,timeout,4997.5,27031.100000024,27032.266,27045.5,32025.8,32029.100000024,2024-06-03T14:54:29Z,32043,"c(""distractor1"", ""distractor2"", ""distractor3"")",Kritik,lawama,s,dereva,nafasi,mawazo,NA,NA,0,NA,NA,NA,NA,NA,NA,NA,NA,NA,NA,NA,NA,NA,NA,NA,NA,NA,NA,NA,NA
5c441,shallow,flow.Sequence,1_1_0_1,NA,NA,completion,14308,17713.899999976,17703.224,17717.8,32025.8,32029.600000024,2024-06-03T14:54:29Z,32043,"c(""distractor1"", ""distractor2"", ""distractor3"")",Kritik,lawama,s,dereva,nafasi,mawazo,NA,NA,NA,NA,NA,NA,NA,NA,NA,NA,NA,NA,NA,NA,NA,NA,NA,NA,NA,NA,NA,NA,NA
5c441,task,flow.Sequence,1_1_0,NA,NA,completion,14308,17713.600000024,17703.224,17717.8,32025.8,32029.899999976,2024-06-03T14:54:29Z,32043,"c(""distractor1"", ""distractor2"", ""distractor3"")",Kritik,lawama,s,dereva,nafasi,mawazo,NA,NA,NA,NA,NA,NA,NA,NA,NA,NA,NA,NA,NA,NA,NA,NA,NA,NA,NA,NA,NA,NA,NA
5c441,Deep Question,html.Page,1_1_1_0_0,NA,NA,form submission,4227.3999999762,32030.399999976,32025.8,32043,36270.399999976,36270.699999928,2024-06-03T14:54:33Z,36274.088,"c(""distractor1"", ""distractor2"", ""distractor3"")",Gesundheit,salama,d,NA,NA,NA,s,NA,NA,NA,NA,NA,NA,NA,NA,NA,NA,NA,NA,NA,NA,NA,NA,NA,NA,NA,NA,NA,NA
5c441,"""Richtig""-Screen",canvas.Screen,1_1_1_0_1,NA,NA,skipped,NA,36272.199999928,NA,NA,36270.399999976,36272.399999976,2024-06-03T14:54:33Z,36274.088,"c(""distractor1"", ""distractor2"", ""distractor3"")",Gesundheit,salama,d,NA,NA,NA,NA,NA,NA,NA,NA,NA,NA,NA,NA,NA,NA,NA,NA,NA,NA,NA,NA,NA,NA,NA,NA,NA,NA
5c441,"""Falsch""-Screen",canvas.Screen,1_1_1_0_2,NA,NA,timeout,4996.012,36273.699999928,36274.088,36274.088,41253.9,41254.899999976,2024-06-03T14:54:38Z,41270.1,"c(""distractor1"", ""distractor2"", ""distractor3"")",Gesundheit,salama,d,NA,NA,NA,NA,NA,0,NA,NA,NA,NA,NA,NA,NA,NA,NA,NA,NA,NA,NA,NA,NA,NA,NA,NA,NA,NA
5c441,deep,flow.Sequence,1_1_1_0,NA,NA,completion,9210.9,32030.199999928,32025.8,32043,41253.9,41255.5,2024-06-03T14:54:38Z,41270.1,"c(""distractor1"", ""distractor2"", ""distractor3"")",Gesundheit,salama,d,NA,NA,NA,NA,NA,NA,NA,NA,NA,NA,NA,NA,NA,NA,NA,NA,NA,NA,NA,NA,NA,NA,NA,NA,NA,NA
5c441,shallow,flow.Sequence,1_1_1_1,NA,NA,skipped,NA,41255.699999928,NA,NA,41253.9,41255.899999976,2024-06-03T14:54:38Z,41270.1,"c(""distractor1"", ""distractor2"", ""distractor3"")",Gesundheit,salama,d,NA,NA,NA,NA,NA,NA,NA,NA,NA,NA,NA,NA,NA,NA,NA,NA,NA,NA,NA,NA,NA,NA,NA,NA,NA,NA
5c441,task,flow.Sequence,1_1_1,NA,NA,completion,9210.9,32030.199999928,32025.8,32043,41253.9,41256.100000024,2024-06-03T14:54:38Z,41270.1,"c(""distractor1"", ""distractor2"", ""distractor3"")",Gesundheit,salama,d,NA,NA,NA,NA,NA,NA,NA,NA,NA,NA,NA,NA,NA,NA,NA,NA,NA,NA,NA,NA,NA,NA,NA,NA,NA,NA
5c441,deep,flow.Sequence,1_1_2_0,NA,NA,skipped,NA,41256.299999952,NA,NA,41253.9,41256.399999976,2024-06-03T14:54:38Z,41270.1,"c(""distractor1"", ""distractor2"", ""distractor3"")",Rückhalt,msaada,s,muhula,auwali,kiwimbe,NA,NA,NA,NA,NA,NA,NA,NA,NA,NA,NA,NA,NA,NA,NA,NA,NA,NA,NA,NA,NA,NA,NA
5c441,Shallow Question,html.Page,1_1_2_1_0,NA,NA,form submission,3419.7999999762,41256.600000024,41253.9,41270.1,44689.899999976,44690.199999928,2024-06-03T14:54:42Z,44701.4,"c(""distractor1"", ""distractor2"", ""distractor3"")",Rückhalt,msaada,s,muhula,auwali,kiwimbe,muhula,NA,NA,NA,NA,NA,NA,NA,NA,NA,NA,NA,NA,NA,NA,NA,NA,NA,NA,NA,NA,NA,NA
5c441,"""Richtig""-Screen",canvas.Screen,1_1_2_1_1,NA,NA,skipped,NA,44691.199999928,NA,NA,44689.899999976,44691.399999976,2024-06-03T14:54:42Z,44701.4,"c(""distractor1"", ""distractor2"", ""distractor3"")",Rückhalt,msaada,s,muhula,auwali,kiwimbe,NA,NA,NA,NA,NA,NA,NA,NA,NA,NA,NA,NA,NA,NA,NA,NA,NA,NA,NA,NA,NA,NA,NA
5c441,"""Falsch""-Screen",canvas.Screen,1_1_2_1_2,NA,NA,timeout,4997.2,44692.5,44685.9,44701.4,49682.1,49684.899999976,2024-06-03T14:54:47Z,49698.6,"c(""distractor1"", ""distractor2"", ""distractor3"")",Rückhalt,msaada,s,muhula,auwali,kiwimbe,NA,NA,0,NA,NA,NA,NA,NA,NA,NA,NA,NA,NA,NA,NA,NA,NA,NA,NA,NA,NA,NA,NA
5c441,shallow,flow.Sequence,1_1_2_1,NA,NA,completion,8412,41256.600000024,41253.9,41270.1,49682.1,49685.299999952,2024-06-03T14:54:47Z,49698.6,"c(""distractor1"", ""distractor2"", ""distractor3"")",Rückhalt,msaada,s,muhula,auwali,kiwimbe,NA,NA,NA,NA,NA,NA,NA,NA,NA,NA,NA,NA,NA,NA,NA,NA,NA,NA,NA,NA,NA,NA,NA
5c441,task,flow.Sequence,1_1_2,NA,NA,completion,8412,41256.199999928,41253.9,41270.1,49682.1,49685.5,2024-06-03T14:54:47Z,49698.6,"c(""distractor1"", ""distractor2"", ""distractor3"")",Rückhalt,msaada,s,muhula,auwali,kiwimbe,NA,NA,NA,NA,NA,NA,NA,NA,NA,NA,NA,NA,NA,NA,NA,NA,NA,NA,NA,NA,NA,NA,NA
5c441,Deep Question,html.Page,1_1_3_0_0,NA,NA,form submission,5427.5000000238,49685.799999952,49682.1,49698.6,55126.100000024,55126.299999952,2024-06-03T14:54:52Z,55128.86,"c(""distractor1"", ""distractor2"", ""distractor3"")",Qualität,mtindo,d,NA,NA,NA,f,NA,NA,NA,NA,NA,NA,NA,NA,NA,NA,NA,NA,NA,NA,NA,NA,NA,NA,NA,NA,NA,NA
5c441,"""Richtig""-Screen",canvas.Screen,1_1_3_0_1,NA,NA,skipped,NA,55127.299999952,NA,NA,55126.100000024,55127.5,2024-06-03T14:54:52Z,55128.86,"c(""distractor1"", ""distractor2"", ""distractor3"")",Qualität,mtindo,d,NA,NA,NA,NA,NA,NA,NA,NA,NA,NA,NA,NA,NA,NA,NA,NA,NA,NA,NA,NA,NA,NA,NA,NA,NA,NA
5c441,"""Falsch""-Screen",canvas.Screen,1_1_3_0_2,NA,NA,timeout,4996.74,55128.399999976,55128.86,55128.86,60108.9,60109.899999976,2024-06-03T14:54:57Z,60125.6,"c(""distractor1"", ""distractor2"", ""distractor3"")",Qualität,mtindo,d,NA,NA,NA,NA,NA,0,NA,NA,NA,NA,NA,NA,NA,NA,NA,NA,NA,NA,NA,NA,NA,NA,NA,NA,NA,NA
5c441,deep,flow.Sequence,1_1_3_0,NA,NA,completion,10410.3,49685.699999928,49682.1,49698.6,60108.9,60110.299999952,2024-06-03T14:54:57Z,60125.6,"c(""distractor1"", ""distractor2"", ""distractor3"")",Qualität,mtindo,d,NA,NA,NA,NA,NA,NA,NA,NA,NA,NA,NA,NA,NA,NA,NA,NA,NA,NA,NA,NA,NA,NA,NA,NA,NA,NA
5c441,shallow,flow.Sequence,1_1_3_1,NA,NA,skipped,NA,60110.399999976,NA,NA,60108.9,60110.5,2024-06-03T14:54:57Z,60125.6,"c(""distractor1"", ""distractor2"", ""distractor3"")",Qualität,mtindo,d,NA,NA,NA,NA,NA,NA,NA,NA,NA,NA,NA,NA,NA,NA,NA,NA,NA,NA,NA,NA,NA,NA,NA,NA,NA,NA
5c441,task,flow.Sequence,1_1_3,NA,NA,completion,10410.3,49685.699999928,49682.1,49698.6,60108.9,60110.799999952,2024-06-03T14:54:57Z,60125.6,"c(""distractor1"", ""distractor2"", ""distractor3"")",Qualität,mtindo,d,NA,NA,NA,NA,NA,NA,NA,NA,NA,NA,NA,NA,NA,NA,NA,NA,NA,NA,NA,NA,NA,NA,NA,NA,NA,NA
5c441,Deep Question,html.Page,1_1_4_0_0,NA,NA,form submission,3952.7999999762,60111,60108.9,60125.6,64078.399999976,64078.600000024,2024-06-03T14:55:01Z,64089.5,"c(""distractor1"", ""distractor2"", ""distractor3"")",Schatten,kivuli,d,NA,NA,NA,d,NA,NA,NA,NA,NA,NA,NA,NA,NA,NA,NA,NA,NA,NA,NA,NA,NA,NA,NA,NA,NA,NA
5c441,"""Richtig""-Screen",canvas.Screen,1_1_4_0_1,NA,NA,skipped,NA,64081.299999952,NA,NA,64078.399999976,64081.5,2024-06-03T14:55:01Z,64089.5,"c(""distractor1"", ""distractor2"", ""distractor3"")",Schatten,kivuli,d,NA,NA,NA,NA,NA,NA,NA,NA,NA,NA,NA,NA,NA,NA,NA,NA,NA,NA,NA,NA,NA,NA,NA,NA,NA,NA
5c441,"""Falsch""-Screen",canvas.Screen,1_1_4_0_2,NA,NA,timeout,4997.3,64081.799999952,64073.55,64089.5,69070.2,69071.100000024,2024-06-03T14:55:06Z,69086.8,"c(""distractor1"", ""distractor2"", ""distractor3"")",Schatten,kivuli,d,NA,NA,NA,NA,NA,0,NA,NA,NA,NA,NA,NA,NA,NA,NA,NA,NA,NA,NA,NA,NA,NA,NA,NA,NA,NA
5c441,deep,flow.Sequence,1_1_4_0,NA,NA,completion,8944.6,60111,60108.9,60125.6,69070.2,69071.5,2024-06-03T14:55:06Z,69086.8,"c(""distractor1"", ""distractor2"", ""distractor3"")",Schatten,kivuli,d,NA,NA,NA,NA,NA,NA,NA,NA,NA,NA,NA,NA,NA,NA,NA,NA,NA,NA,NA,NA,NA,NA,NA,NA,NA,NA
5c441,shallow,flow.Sequence,1_1_4_1,NA,NA,skipped,NA,69071.699999928,NA,NA,69070.2,69071.899999976,2024-06-03T14:55:06Z,69086.8,"c(""distractor1"", ""distractor2"", ""distractor3"")",Schatten,kivuli,d,NA,NA,NA,NA,NA,NA,NA,NA,NA,NA,NA,NA,NA,NA,NA,NA,NA,NA,NA,NA,NA,NA,NA,NA,NA,NA
5c441,task,flow.Sequence,1_1_4,NA,NA,completion,8944.6,60110.899999976,60108.9,60125.6,69070.2,69072,2024-06-03T14:55:06Z,69086.8,"c(""distractor1"", ""distractor2"", ""distractor3"")",Schatten,kivuli,d,NA,NA,NA,NA,NA,NA,NA,NA,NA,NA,NA,NA,NA,NA,NA,NA,NA,NA,NA,NA,NA,NA,NA,NA,NA,NA
5c441,deep,flow.Sequence,1_1_5_0,NA,NA,skipped,NA,69072.299999952,NA,NA,69070.2,69072.399999976,2024-06-03T14:55:06Z,69086.8,"c(""distractor1"", ""distractor2"", ""distractor3"")",Gegenwart,hadhara,s,katiba,jokofu,mikopo,NA,NA,NA,NA,NA,NA,NA,NA,NA,NA,NA,NA,NA,NA,NA,NA,NA,NA,NA,NA,NA,NA,NA
5c441,Shallow Question,html.Page,1_1_5_1_0,NA,NA,form submission,3664.9999999523,69072.5,69070.2,69086.8,72751.799999952,72752,2024-06-03T14:55:10Z,72767.9,"c(""distractor1"", ""distractor2"", ""distractor3"")",Gegenwart,hadhara,s,katiba,jokofu,mikopo,hadhara,NA,NA,NA,NA,NA,NA,NA,NA,NA,NA,NA,NA,NA,NA,NA,NA,NA,NA,NA,NA,NA,NA
5c441,"""Richtig""-Screen",canvas.Screen,1_1_5_1_1,NA,NA,timeout,4996.7,72755.299999952,72751.646,72767.9,77747.8,77750.199999928,2024-06-03T14:55:15Z,77764.6,"c(""distractor1"", ""distractor2"", ""distractor3"")",Gegenwart,hadhara,s,katiba,jokofu,mikopo,NA,NA,1,NA,NA,NA,NA,NA,NA,NA,NA,NA,NA,NA,NA,NA,NA,NA,NA,NA,NA,NA,NA
5c441,"""Falsch""-Screen",canvas.Screen,1_1_5_1_2,NA,NA,skipped,NA,77751.600000024,NA,NA,77747.8,77751.699999928,2024-06-03T14:55:15Z,77764.6,"c(""distractor1"", ""distractor2"", ""distractor3"")",Gegenwart,hadhara,s,katiba,jokofu,mikopo,NA,NA,NA,NA,NA,NA,NA,NA,NA,NA,NA,NA,NA,NA,NA,NA,NA,NA,NA,NA,NA,NA,NA
5c441,shallow,flow.Sequence,1_1_5_1,NA,NA,completion,8661,69072.5,69070.2,69086.8,77747.8,77751.799999952,2024-06-03T14:55:15Z,77764.6,"c(""distractor1"", ""distractor2"", ""distractor3"")",Gegenwart,hadhara,s,katiba,jokofu,mikopo,NA,NA,NA,NA,NA,NA,NA,NA,NA,NA,NA,NA,NA,NA,NA,NA,NA,NA,NA,NA,NA,NA,NA
5c441,task,flow.Sequence,1_1_5,NA,NA,completion,8661,69072.100000024,69070.2,69086.8,77747.8,77751.899999976,2024-06-03T14:55:15Z,77764.6,"c(""distractor1"", ""distractor2"", ""distractor3"")",Gegenwart,hadhara,s,katiba,jokofu,mikopo,NA,NA,NA,NA,NA,NA,NA,NA,NA,NA,NA,NA,NA,NA,NA,NA,NA,NA,NA,NA,NA,NA,NA
5c441,block,flow.Loop,1_1,NA,NA,completion,60030,17713.600000024,17703.224,17717.8,77747.8,77752,2024-06-03T14:55:15Z,77764.6,"c(""distractor1"", ""distractor2"", ""distractor3"")",NA,NA,NA,NA,NA,NA,NA,NA,NA,NA,NA,NA,NA,NA,NA,NA,NA,NA,NA,NA,NA,NA,NA,NA,NA,NA,NA,NA,NA
5c441,Practice,flow.Sequence,1,NA,NA,completion,63611.1,14130.899999976,14127.888,14136.7,77747.8,77752,2024-06-03T14:55:15Z,77764.6,NULL,NA,NA,NA,NA,NA,NA,NA,NA,NA,NA,NA,NA,NA,NA,NA,NA,NA,NA,NA,NA,NA,NA,NA,NA,NA,NA,NA,NA,NA
5c441,Experiment start,canvas.Screen,2,weiter,keypress(q),response,28953.000000024,77752.100000024,77747.8,77764.6,106717.60000002,106718.10000002,2024-06-03T14:55:44Z,106763.4,NULL,NA,NA,NA,NA,NA,NA,NA,NA,NA,NA,NA,NA,NA,NA,NA,NA,NA,NA,NA,NA,NA,NA,NA,NA,NA,NA,NA,NA,NA
5c441,Deep Question,html.Page,3_0_0_0_0_0_0,NA,NA,form submission,6965.1,106772.29999995,106762.16,106763.4,113728.5,113728.79999995,2024-06-03T14:55:51Z,113759.5,NULL,Integrität,uadilifu,d,NA,NA,NA,s,NA,NA,0,NA,NA,NA,NA,NA,NA,NA,NA,NA,NA,NA,NA,NA,NA,NA,NA,NA,NA,NA
5c441,"""Richtig""-Screen",canvas.Screen,3_0_0_0_0_0_1,NA,NA,skipped,NA,113731.89999998,NA,NA,113728.5,113732.10000002,2024-06-03T14:55:51Z,113759.5,NULL,Integrität,uadilifu,d,NA,NA,NA,NA,sdf,NA,0,NA,NA,NA,NA,NA,NA,NA,NA,NA,NA,NA,NA,NA,NA,NA,NA,NA,NA,NA
5c441,"""Falsch""-Screen",canvas.Screen,3_0_0_0_0_0_2,NA,NA,timeout,4996.8,113733,113743,113759.5,118739.6,118740.39999998,2024-06-03T14:55:56Z,118756.3,NULL,Integrität,uadilifu,d,NA,NA,NA,NA,sdf,0,0,NA,NA,NA,NA,NA,NA,NA,NA,NA,NA,NA,NA,NA,NA,NA,NA,NA,NA,NA
5c441,deep,flow.Sequence,3_0_0_0_0_0,NA,NA,completion,11976.2,106772.19999993,106762.16,106763.4,118739.6,118740.89999998,2024-06-03T14:55:56Z,118756.3,NULL,Integrität,uadilifu,d,NA,NA,NA,NA,sdf,NA,0,NA,NA,NA,NA,NA,NA,NA,NA,NA,NA,NA,NA,NA,NA,NA,NA,NA,NA,NA
5c441,shallow,flow.Sequence,3_0_0_0_0_1,NA,NA,skipped,NA,118741,NA,NA,118739.6,118741.10000002,2024-06-03T14:55:56Z,118756.3,NULL,Integrität,uadilifu,d,NA,NA,NA,NA,sdf,NA,0,NA,NA,NA,NA,NA,NA,NA,NA,NA,NA,NA,NA,NA,NA,NA,NA,NA,NA,NA
5c441,task,flow.Sequence,3_0_0_0_0,NA,NA,completion,11976.2,106772.19999993,106762.16,106763.4,118739.6,118741.29999995,2024-06-03T14:55:56Z,118756.3,NULL,Integrität,uadilifu,d,NA,NA,NA,NA,sdf,NA,0,NA,NA,NA,NA,NA,NA,NA,NA,NA,NA,NA,NA,NA,NA,NA,NA,NA,NA,NA
5c441,Deep Question,html.Page,3_0_0_0_1_0_0,NA,NA,form submission,28233.999999952,118741.60000002,118739.6,118756.3,146990.29999995,146990.5,2024-06-03T14:56:24Z,147006,NULL,Fleisch,mshakiki,d,NA,NA,NA,d,NA,NA,0,NA,NA,NA,NA,NA,NA,NA,NA,NA,NA,NA,NA,NA,NA,NA,NA,NA,NA,NA
5c441,"""Richtig""-Screen",canvas.Screen,3_0_0_0_1_0_1,NA,NA,skipped,NA,146993.69999993,NA,NA,146990.29999995,146993.79999995,2024-06-03T14:56:24Z,147006,NULL,Fleisch,mshakiki,d,NA,NA,NA,NA,sdf,NA,0,NA,NA,NA,NA,NA,NA,NA,NA,NA,NA,NA,NA,NA,NA,NA,NA,NA,NA,NA
5c441,"""Falsch""-Screen",canvas.Screen,3_0_0_0_1_0_2,NA,NA,timeout,4996.9,146994.19999993,146989.454,147006,151986.2,151986.60000002,2024-06-03T14:56:29Z,152002.9,NULL,Fleisch,mshakiki,d,NA,NA,NA,NA,sdf,0,0,NA,NA,NA,NA,NA,NA,NA,NA,NA,NA,NA,NA,NA,NA,NA,NA,NA,NA,NA
5c441,deep,flow.Sequence,3_0_0_0_1_0,NA,NA,completion,33229.9,118741.60000002,118739.6,118756.3,151986.2,151986.79999995,2024-06-03T14:56:29Z,152002.9,NULL,Fleisch,mshakiki,d,NA,NA,NA,NA,sdf,NA,0,NA,NA,NA,NA,NA,NA,NA,NA,NA,NA,NA,NA,NA,NA,NA,NA,NA,NA,NA
5c441,shallow,flow.Sequence,3_0_0_0_1_1,NA,NA,skipped,NA,151986.79999995,NA,NA,151986.2,151986.79999995,2024-06-03T14:56:29Z,152002.9,NULL,Fleisch,mshakiki,d,NA,NA,NA,NA,sdf,NA,0,NA,NA,NA,NA,NA,NA,NA,NA,NA,NA,NA,NA,NA,NA,NA,NA,NA,NA,NA
5c441,task,flow.Sequence,3_0_0_0_1,NA,NA,completion,33229.9,118741.39999998,118739.6,118756.3,151986.2,151986.89999998,2024-06-03T14:56:29Z,152002.9,NULL,Fleisch,mshakiki,d,NA,NA,NA,NA,sdf,NA,0,NA,NA,NA,NA,NA,NA,NA,NA,NA,NA,NA,NA,NA,NA,NA,NA,NA,NA,NA
5c441,deep,flow.Sequence,3_0_0_0_2_0,NA,NA,skipped,NA,151986.89999998,NA,NA,151986.2,151986.89999998,2024-06-03T14:56:29Z,152002.9,NULL,Kultur,utamaduni,s,shetani,gerezani,mazingira,NA,sdf,NA,0,NA,NA,NA,NA,NA,NA,NA,NA,NA,NA,NA,NA,NA,NA,NA,NA,NA,NA,NA
5c441,Shallow Question,html.Page,3_0_0_0_2_1_0,NA,NA,form submission,4328.8999999523,151987,151986.2,152002.9,156331.79999995,156332,2024-06-03T14:56:34Z,156333.888,NULL,Kultur,utamaduni,s,shetani,gerezani,mazingira,gerezani,NA,NA,0,NA,NA,NA,NA,NA,NA,NA,NA,NA,NA,NA,NA,NA,NA,NA,NA,NA,NA,NA
5c441,"""Richtig""-Screen",canvas.Screen,3_0_0_0_2_1_1,NA,NA,skipped,NA,156335.29999995,NA,NA,156331.79999995,156335.5,2024-06-03T14:56:34Z,156333.888,NULL,Kultur,utamaduni,s,shetani,gerezani,mazingira,NA,sdf,NA,0,NA,NA,NA,NA,NA,NA,NA,NA,NA,NA,NA,NA,NA,NA,NA,NA,NA,NA,NA
5c441,"""Falsch""-Screen",canvas.Screen,3_0_0_0_2_1_2,NA,NA,timeout,4996.412,156336.19999993,156333.888,156333.888,161313.4,161314.39999998,2024-06-03T14:56:39Z,161330.3,NULL,Kultur,utamaduni,s,shetani,gerezani,mazingira,NA,sdf,0,0,NA,NA,NA,NA,NA,NA,NA,NA,NA,NA,NA,NA,NA,NA,NA,NA,NA,NA,NA
5c441,shallow,flow.Sequence,3_0_0_0_2_1,NA,NA,completion,9310.5,151987,151986.2,152002.9,161313.4,161314.79999995,2024-06-03T14:56:39Z,161330.3,NULL,Kultur,utamaduni,s,shetani,gerezani,mazingira,NA,sdf,NA,0,NA,NA,NA,NA,NA,NA,NA,NA,NA,NA,NA,NA,NA,NA,NA,NA,NA,NA,NA
5c441,task,flow.Sequence,3_0_0_0_2,NA,NA,completion,9310.5,151986.89999998,151986.2,152002.9,161313.4,161314.89999998,2024-06-03T14:56:39Z,161330.3,NULL,Kultur,utamaduni,s,shetani,gerezani,mazingira,NA,sdf,NA,0,NA,NA,NA,NA,NA,NA,NA,NA,NA,NA,NA,NA,NA,NA,NA,NA,NA,NA,NA
5c441,deep,flow.Sequence,3_0_0_0_3_0,NA,NA,skipped,NA,161315.19999993,NA,NA,161313.4,161315.39999998,2024-06-03T14:56:39Z,161330.3,NULL,Genehmigung,idhini,s,mwanamke,itikadi,fedheha,NA,sdf,NA,0,NA,NA,NA,NA,NA,NA,NA,NA,NA,NA,NA,NA,NA,NA,NA,NA,NA,NA,NA
5c441,Shallow Question,html.Page,3_0_0_0_3_1_0,NA,NA,form submission,5125.5999999762,161315.5,161313.4,161330.3,166455.89999998,166456.10000002,2024-06-03T14:56:44Z,166477.2,NULL,Genehmigung,idhini,s,mwanamke,itikadi,fedheha,fedheha,NA,NA,0,NA,NA,NA,NA,NA,NA,NA,NA,NA,NA,NA,NA,NA,NA,NA,NA,NA,NA,NA
5c441,"""Richtig""-Screen",canvas.Screen,3_0_0_0_3_1_1,NA,NA,skipped,NA,166459.19999993,NA,NA,166455.89999998,166459.39999998,2024-06-03T14:56:44Z,166477.2,NULL,Genehmigung,idhini,s,mwanamke,itikadi,fedheha,NA,sdf,NA,0,NA,NA,NA,NA,NA,NA,NA,NA,NA,NA,NA,NA,NA,NA,NA,NA,NA,NA,NA
5c441,"""Falsch""-Screen",canvas.Screen,3_0_0_0_3_1_2,NA,NA,timeout,4996.7,166460,166460.566,166477.2,171457.3,171459.89999998,2024-06-03T14:56:49Z,171473.9,NULL,Genehmigung,idhini,s,mwanamke,itikadi,fedheha,NA,sdf,0,0,NA,NA,NA,NA,NA,NA,NA,NA,NA,NA,NA,NA,NA,NA,NA,NA,NA,NA,NA
5c441,shallow,flow.Sequence,3_0_0_0_3_1,NA,NA,completion,10127,161315.5,161313.4,161330.3,171457.3,171460.39999998,2024-06-03T14:56:49Z,171473.9,NULL,Genehmigung,idhini,s,mwanamke,itikadi,fedheha,NA,sdf,NA,0,NA,NA,NA,NA,NA,NA,NA,NA,NA,NA,NA,NA,NA,NA,NA,NA,NA,NA,NA
5c441,task,flow.Sequence,3_0_0_0_3,NA,NA,completion,10127,161315.10000002,161313.4,161330.3,171457.3,171460.60000002,2024-06-03T14:56:49Z,171473.9,NULL,Genehmigung,idhini,s,mwanamke,itikadi,fedheha,NA,sdf,NA,0,NA,NA,NA,NA,NA,NA,NA,NA,NA,NA,NA,NA,NA,NA,NA,NA,NA,NA,NA
5c441,Deep Question,html.Page,3_0_0_0_4_0_0,NA,NA,form submission,3862.2999999285,171460.79999995,171457.3,171473.9,175336.19999993,175336.39999998,2024-06-03T14:56:53Z,175338.912,NULL,Aufstand,ugomaji,d,NA,NA,NA,g,NA,NA,0,NA,NA,NA,NA,NA,NA,NA,NA,NA,NA,NA,NA,NA,NA,NA,NA,NA,NA,NA
5c441,"""Richtig""-Screen",canvas.Screen,3_0_0_0_4_0_1,NA,NA,skipped,NA,175339.69999993,NA,NA,175336.19999993,175339.69999993,2024-06-03T14:56:53Z,175338.912,NULL,Aufstand,ugomaji,d,NA,NA,NA,NA,sdf,NA,0,NA,NA,NA,NA,NA,NA,NA,NA,NA,NA,NA,NA,NA,NA,NA,NA,NA,NA,NA
5c441,"""Falsch""-Screen",canvas.Screen,3_0_0_0_4_0_2,NA,NA,timeout,4996.588,175340.29999995,175338.912,175338.912,180318.8,180319.5,2024-06-03T14:56:58Z,180335.5,NULL,Aufstand,ugomaji,d,NA,NA,NA,NA,sdf,0,0,NA,NA,NA,NA,NA,NA,NA,NA,NA,NA,NA,NA,NA,NA,NA,NA,NA,NA,NA
5c441,deep,flow.Sequence,3_0_0_0_4_0,NA,NA,completion,8844.9,171460.79999995,171457.3,171473.9,180318.8,180319.79999995,2024-06-03T14:56:58Z,180335.5,NULL,Aufstand,ugomaji,d,NA,NA,NA,NA,sdf,NA,0,NA,NA,NA,NA,NA,NA,NA,NA,NA,NA,NA,NA,NA,NA,NA,NA,NA,NA,NA
5c441,shallow,flow.Sequence,3_0_0_0_4_1,NA,NA,skipped,NA,180319.89999998,NA,NA,180318.8,180320,2024-06-03T14:56:58Z,180335.5,NULL,Aufstand,ugomaji,d,NA,NA,NA,NA,sdf,NA,0,NA,NA,NA,NA,NA,NA,NA,NA,NA,NA,NA,NA,NA,NA,NA,NA,NA,NA,NA
5c441,task,flow.Sequence,3_0_0_0_4,NA,NA,completion,8844.9,171460.79999995,171457.3,171473.9,180318.8,180320.19999993,2024-06-03T14:56:58Z,180335.5,NULL,Aufstand,ugomaji,d,NA,NA,NA,NA,sdf,NA,0,NA,NA,NA,NA,NA,NA,NA,NA,NA,NA,NA,NA,NA,NA,NA,NA,NA,NA,NA
5c441,Deep Question,html.Page,3_0_0_0_5_0_0,NA,NA,form submission,4338.7999999523,180320.29999995,180318.8,180335.5,184674.29999995,184674.5,2024-06-03T14:57:02Z,184682.4,NULL,Prüfung,mtihani,d,NA,NA,NA,a,NA,NA,0,NA,NA,NA,NA,NA,NA,NA,NA,NA,NA,NA,NA,NA,NA,NA,NA,NA,NA,NA
5c441,"""Richtig""-Screen",canvas.Screen,3_0_0_0_5_0_1,NA,NA,skipped,NA,184677.60000002,NA,NA,184674.29999995,184677.69999993,2024-06-03T14:57:02Z,184682.4,NULL,Prüfung,mtihani,d,NA,NA,NA,NA,sdf,NA,0,NA,NA,NA,NA,NA,NA,NA,NA,NA,NA,NA,NA,NA,NA,NA,NA,NA,NA,NA
5c441,"""Falsch""-Screen",canvas.Screen,3_0_0_0_5_0_2,NA,NA,timeout,4997.4,184678.60000002,184666.51,184682.4,189662.9,189663.89999998,2024-06-03T14:57:07Z,189679.8,NULL,Prüfung,mtihani,d,NA,NA,NA,NA,sdf,0,0,NA,NA,NA,NA,NA,NA,NA,NA,NA,NA,NA,NA,NA,NA,NA,NA,NA,NA,NA
5c441,deep,flow.Sequence,3_0_0_0_5_0,NA,NA,completion,9327.4,180320.29999995,180318.8,180335.5,189662.9,189664.19999993,2024-06-03T14:57:07Z,189679.8,NULL,Prüfung,mtihani,d,NA,NA,NA,NA,sdf,NA,0,NA,NA,NA,NA,NA,NA,NA,NA,NA,NA,NA,NA,NA,NA,NA,NA,NA,NA,NA
5c441,shallow,flow.Sequence,3_0_0_0_5_1,NA,NA,skipped,NA,189664.29999995,NA,NA,189662.9,189664.5,2024-06-03T14:57:07Z,189679.8,NULL,Prüfung,mtihani,d,NA,NA,NA,NA,sdf,NA,0,NA,NA,NA,NA,NA,NA,NA,NA,NA,NA,NA,NA,NA,NA,NA,NA,NA,NA,NA
5c441,task,flow.Sequence,3_0_0_0_5,NA,NA,completion,9327.4,180320.29999995,180318.8,180335.5,189662.9,189664.69999993,2024-06-03T14:57:07Z,189679.8,NULL,Prüfung,mtihani,d,NA,NA,NA,NA,sdf,NA,0,NA,NA,NA,NA,NA,NA,NA,NA,NA,NA,NA,NA,NA,NA,NA,NA,NA,NA,NA
5c441,deep,flow.Sequence,3_0_0_0_6_0,NA,NA,skipped,NA,189664.79999995,NA,NA,189662.9,189664.89999998,2024-06-03T14:57:07Z,189679.8,NULL,Verzögerung,kuchelewa,s,mwakilishi,mwanauchumi,jaribio,NA,sdf,NA,0,NA,NA,NA,NA,NA,NA,NA,NA,NA,NA,NA,NA,NA,NA,NA,NA,NA,NA,NA
5c441,Shallow Question,html.Page,3_0_0_0_6_1_0,NA,NA,form submission,4874.0999999762,189665,189662.9,189679.8,194553.89999998,194554.10000002,2024-06-03T14:57:12Z,194559.9,NULL,Verzögerung,kuchelewa,s,mwakilishi,mwanauchumi,jaribio,jaribio,NA,NA,0,NA,NA,NA,NA,NA,NA,NA,NA,NA,NA,NA,NA,NA,NA,NA,NA,NA,NA,NA
5c441,"""Richtig""-Screen",canvas.Screen,3_0_0_0_6_1_1,NA,NA,skipped,NA,194557.39999998,NA,NA,194553.89999998,194557.5,2024-06-03T14:57:12Z,194559.9,NULL,Verzögerung,kuchelewa,s,mwakilishi,mwanauchumi,jaribio,NA,sdf,NA,0,NA,NA,NA,NA,NA,NA,NA,NA,NA,NA,NA,NA,NA,NA,NA,NA,NA,NA,NA
5c441,"""Falsch""-Screen",canvas.Screen,3_0_0_0_6_1_2,NA,NA,timeout,4997.2,194558.39999998,194543.79,194559.9,199540.2,199541.19999993,2024-06-03T14:57:17Z,199557.1,NULL,Verzögerung,kuchelewa,s,mwakilishi,mwanauchumi,jaribio,NA,sdf,0,0,NA,NA,NA,NA,NA,NA,NA,NA,NA,NA,NA,NA,NA,NA,NA,NA,NA,NA,NA
5c441,shallow,flow.Sequence,3_0_0_0_6_1,NA,NA,completion,9860.4,189665,189662.9,189679.8,199540.2,199541.60000002,2024-06-03T14:57:17Z,199557.1,NULL,Verzögerung,kuchelewa,s,mwakilishi,mwanauchumi,jaribio,NA,sdf,NA,0,NA,NA,NA,NA,NA,NA,NA,NA,NA,NA,NA,NA,NA,NA,NA,NA,NA,NA,NA
5c441,task,flow.Sequence,3_0_0_0_6,NA,NA,completion,9860.4,189664.79999995,189662.9,189679.8,199540.2,199541.79999995,2024-06-03T14:57:17Z,199557.1,NULL,Verzögerung,kuchelewa,s,mwakilishi,mwanauchumi,jaribio,NA,sdf,NA,0,NA,NA,NA,NA,NA,NA,NA,NA,NA,NA,NA,NA,NA,NA,NA,NA,NA,NA,NA
5c441,deep,flow.Sequence,3_0_0_0_7_0,NA,NA,skipped,NA,199542,NA,NA,199540.2,199542.10000002,2024-06-03T14:57:17Z,199557.1,NULL,Begegnung,kukutana,s,mmasihiya,mpiganaji,husiano,NA,sdf,NA,0,NA,NA,NA,NA,NA,NA,NA,NA,NA,NA,NA,NA,NA,NA,NA,NA,NA,NA,NA
5c441,Shallow Question,html.Page,3_0_0_0_7_1_0,NA,NA,form submission,5252.0999999285,199542.29999995,199540.2,199557.1,204809.19999993,204809.29999995,2024-06-03T14:57:22Z,204820.3,NULL,Begegnung,kukutana,s,mmasihiya,mpiganaji,husiano,husiano,NA,NA,0,NA,NA,NA,NA,NA,NA,NA,NA,NA,NA,NA,NA,NA,NA,NA,NA,NA,NA,NA
5c441,"""Richtig""-Screen",canvas.Screen,3_0_0_0_7_1_1,NA,NA,skipped,NA,204810.69999993,NA,NA,204809.19999993,204810.89999998,2024-06-03T14:57:22Z,204820.3,NULL,Begegnung,kukutana,s,mmasihiya,mpiganaji,husiano,NA,sdf,NA,0,NA,NA,NA,NA,NA,NA,NA,NA,NA,NA,NA,NA,NA,NA,NA,NA,NA,NA,NA
5c441,"""Falsch""-Screen",canvas.Screen,3_0_0_0_7_1_2,NA,NA,timeout,4996.8,204811.19999993,204806.288,204820.3,209800.7,209801.60000002,2024-06-03T14:57:27Z,209817.1,NULL,Begegnung,kukutana,s,mmasihiya,mpiganaji,husiano,NA,sdf,0,0,NA,NA,NA,NA,NA,NA,NA,NA,NA,NA,NA,NA,NA,NA,NA,NA,NA,NA,NA
5c441,shallow,flow.Sequence,3_0_0_0_7_1,NA,NA,completion,10243.6,199542.19999993,199540.2,199557.1,209800.7,209802,2024-06-03T14:57:27Z,209817.1,NULL,Begegnung,kukutana,s,mmasihiya,mpiganaji,husiano,NA,sdf,NA,0,NA,NA,NA,NA,NA,NA,NA,NA,NA,NA,NA,NA,NA,NA,NA,NA,NA,NA,NA
5c441,task,flow.Sequence,3_0_0_0_7,NA,NA,completion,10243.6,199541.89999998,199540.2,199557.1,209800.7,209802.19999993,2024-06-03T14:57:27Z,209817.1,NULL,Begegnung,kukutana,s,mmasihiya,mpiganaji,husiano,NA,sdf,NA,0,NA,NA,NA,NA,NA,NA,NA,NA,NA,NA,NA,NA,NA,NA,NA,NA,NA,NA,NA
5c441,block,flow.Loop,3_0_0_0,NA,NA,completion,103037.3,106772.19999993,106762.16,106763.4,209800.7,209802.5,2024-06-03T14:57:27Z,209817.1,NULL,NA,NA,NA,NA,NA,NA,NA,sdf,NA,0,NA,NA,NA,NA,NA,NA,NA,NA,NA,NA,NA,NA,NA,NA,NA,NA,NA,NA,NA
5c441,weiter,canvas.Screen,3_0_0_1,sdf,keypress(Space),response,2165.5999999285,209802.60000002,209800.7,209817.1,211982.69999993,211983.89999998,2024-06-03T14:57:29Z,211999.684,NULL,NA,NA,NA,NA,NA,NA,NA,sdf,NA,0,NA,NA,NA,NA,NA,NA,NA,NA,NA,NA,NA,NA,NA,NA,NA,NA,NA,NA,NA
5c441,check continue,flow.Sequence,3_0_0,NA,NA,completion,105219.29999993,106772.19999993,106762.16,106763.4,211982.69999993,211984.19999993,2024-06-03T14:57:29Z,211999.684,NULL,NA,NA,NA,NA,NA,NA,NA,sdf,NA,0,NA,NA,NA,NA,NA,NA,NA,NA,NA,NA,NA,NA,NA,NA,NA,NA,NA,NA,NA
5c441,deep,flow.Sequence,3_0_1_0_0_0,NA,NA,skipped,NA,212007.60000002,NA,NA,211982.69999993,212007.69999993,2024-06-03T14:57:29Z,211999.684,NULL,Kultur,utamaduni,s,shetani,gerezani,mazingira,NA,sdfdsf,NA,1,NA,NA,NA,NA,NA,NA,NA,NA,NA,NA,NA,NA,NA,NA,NA,NA,NA,NA,NA
5c441,Shallow Question,html.Page,3_0_1_0_0_1_0,NA,NA,form submission,8963.5159999285,212007.79999995,211999.684,211999.684,220963.19999993,220963.39999998,2024-06-03T14:57:38Z,220977.2,NULL,Kultur,utamaduni,s,shetani,gerezani,mazingira,utamaduni,NA,NA,1,NA,NA,NA,NA,NA,NA,NA,NA,NA,NA,NA,NA,NA,NA,NA,NA,NA,NA,NA
5c441,"""Richtig""-Screen",canvas.Screen,3_0_1_0_0_1_1,NA,NA,timeout,4996.7,220966.5,220960.948,220977.2,225957.5,225958.69999993,2024-06-03T14:57:43Z,225973.9,NULL,Kultur,utamaduni,s,shetani,gerezani,mazingira,NA,sdfdsf,1,1,NA,NA,NA,NA,NA,NA,NA,NA,NA,NA,NA,NA,NA,NA,NA,NA,NA,NA,NA
5c441,"""Falsch""-Screen",canvas.Screen,3_0_1_0_0_1_2,NA,NA,skipped,NA,225964.19999993,NA,NA,225957.5,225964.39999998,2024-06-03T14:57:43Z,225973.9,NULL,Kultur,utamaduni,s,shetani,gerezani,mazingira,NA,sdfdsf,NA,1,NA,NA,NA,NA,NA,NA,NA,NA,NA,NA,NA,NA,NA,NA,NA,NA,NA,NA,NA
5c441,shallow,flow.Sequence,3_0_1_0_0_1,NA,NA,completion,13957.816,212007.79999995,211999.684,211999.684,225957.5,225964.69999993,2024-06-03T14:57:43Z,225973.9,NULL,Kultur,utamaduni,s,shetani,gerezani,mazingira,NA,sdfdsf,NA,1,NA,NA,NA,NA,NA,NA,NA,NA,NA,NA,NA,NA,NA,NA,NA,NA,NA,NA,NA
5c441,task,flow.Sequence,3_0_1_0_0,NA,NA,completion,13957.816,212007.60000002,211999.684,211999.684,225957.5,225965,2024-06-03T14:57:43Z,225973.9,NULL,Kultur,utamaduni,s,shetani,gerezani,mazingira,NA,sdfdsf,NA,1,NA,NA,NA,NA,NA,NA,NA,NA,NA,NA,NA,NA,NA,NA,NA,NA,NA,NA,NA
5c441,deep,flow.Sequence,3_0_1_0_1_0,NA,NA,skipped,NA,225965.10000002,NA,NA,225957.5,225965.19999993,2024-06-03T14:57:43Z,225973.9,NULL,Verzögerung,kuchelewa,s,mwakilishi,mwanauchumi,jaribio,NA,sdfdsf,NA,1,NA,NA,NA,NA,NA,NA,NA,NA,NA,NA,NA,NA,NA,NA,NA,NA,NA,NA,NA
5c441,Shallow Question,html.Page,3_0_1_0_1_1_0,NA,NA,form submission,4045.1,225965.39999998,225957.5,225973.9,230019,230019.19999993,2024-06-03T14:57:47Z,230021.994,NULL,Verzögerung,kuchelewa,s,mwakilishi,mwanauchumi,jaribio,kuchelewa,NA,NA,1,NA,NA,NA,NA,NA,NA,NA,NA,NA,NA,NA,NA,NA,NA,NA,NA,NA,NA,NA
5c441,"""Richtig""-Screen",canvas.Screen,3_0_1_0_1_1_1,NA,NA,timeout,4996.706,230022.10000002,230021.994,230021.994,235001.7,235002.60000002,2024-06-03T14:57:52Z,235018.7,NULL,Verzögerung,kuchelewa,s,mwakilishi,mwanauchumi,jaribio,NA,sdfdsf,1,1,NA,NA,NA,NA,NA,NA,NA,NA,NA,NA,NA,NA,NA,NA,NA,NA,NA,NA,NA
5c441,"""Falsch""-Screen",canvas.Screen,3_0_1_0_1_1_2,NA,NA,skipped,NA,235007.69999993,NA,NA,235001.7,235007.79999995,2024-06-03T14:57:52Z,235018.7,NULL,Verzögerung,kuchelewa,s,mwakilishi,mwanauchumi,jaribio,NA,sdfdsf,NA,1,NA,NA,NA,NA,NA,NA,NA,NA,NA,NA,NA,NA,NA,NA,NA,NA,NA,NA,NA
5c441,shallow,flow.Sequence,3_0_1_0_1_1,NA,NA,completion,9027.8,225965.29999995,225957.5,225973.9,235001.7,235008,2024-06-03T14:57:52Z,235018.7,NULL,Verzögerung,kuchelewa,s,mwakilishi,mwanauchumi,jaribio,NA,sdfdsf,NA,1,NA,NA,NA,NA,NA,NA,NA,NA,NA,NA,NA,NA,NA,NA,NA,NA,NA,NA,NA
5c441,task,flow.Sequence,3_0_1_0_1,NA,NA,completion,9027.8,225965.10000002,225957.5,225973.9,235001.7,235008,2024-06-03T14:57:52Z,235018.7,NULL,Verzögerung,kuchelewa,s,mwakilishi,mwanauchumi,jaribio,NA,sdfdsf,NA,1,NA,NA,NA,NA,NA,NA,NA,NA,NA,NA,NA,NA,NA,NA,NA,NA,NA,NA,NA
5c441,deep,flow.Sequence,3_0_1_0_2_0,NA,NA,skipped,NA,235008,NA,NA,235001.7,235008,2024-06-03T14:57:52Z,235018.7,NULL,Begegnung,kukutana,s,mmasihiya,mpiganaji,husiano,NA,sdfdsf,NA,1,NA,NA,NA,NA,NA,NA,NA,NA,NA,NA,NA,NA,NA,NA,NA,NA,NA,NA,NA
5c441,Shallow Question,html.Page,3_0_1_0_2_1_0,NA,NA,form submission,5365.0999999523,235008,235001.7,235018.7,240383.79999995,240384,2024-06-03T14:57:58Z,240398.8,NULL,Begegnung,kukutana,s,mmasihiya,mpiganaji,husiano,kukutana,NA,NA,1,NA,NA,NA,NA,NA,NA,NA,NA,NA,NA,NA,NA,NA,NA,NA,NA,NA,NA,NA
5c441,"""Richtig""-Screen",canvas.Screen,3_0_1_0_2_1_1,NA,NA,timeout,4997.1,240386.89999998,240382.454,240398.8,245378.6,245379.60000002,2024-06-03T14:58:03Z,245395.9,NULL,Begegnung,kukutana,s,mmasihiya,mpiganaji,husiano,NA,sdfdsf,1,1,NA,NA,NA,NA,NA,NA,NA,NA,NA,NA,NA,NA,NA,NA,NA,NA,NA,NA,NA
5c441,"""Falsch""-Screen",canvas.Screen,3_0_1_0_2_1_2,NA,NA,skipped,NA,245384.89999998,NA,NA,245378.6,245385,2024-06-03T14:58:03Z,245395.9,NULL,Begegnung,kukutana,s,mmasihiya,mpiganaji,husiano,NA,sdfdsf,NA,1,NA,NA,NA,NA,NA,NA,NA,NA,NA,NA,NA,NA,NA,NA,NA,NA,NA,NA,NA
5c441,shallow,flow.Sequence,3_0_1_0_2_1,NA,NA,completion,10359.9,235008,235001.7,235018.7,245378.6,245385,2024-06-03T14:58:03Z,245395.9,NULL,Begegnung,kukutana,s,mmasihiya,mpiganaji,husiano,NA,sdfdsf,NA,1,NA,NA,NA,NA,NA,NA,NA,NA,NA,NA,NA,NA,NA,NA,NA,NA,NA,NA,NA
5c441,task,flow.Sequence,3_0_1_0_2,NA,NA,completion,10359.9,235008,235001.7,235018.7,245378.6,245385.19999993,2024-06-03T14:58:03Z,245395.9,NULL,Begegnung,kukutana,s,mmasihiya,mpiganaji,husiano,NA,sdfdsf,NA,1,NA,NA,NA,NA,NA,NA,NA,NA,NA,NA,NA,NA,NA,NA,NA,NA,NA,NA,NA
5c441,deep,flow.Sequence,3_0_1_0_3_0,NA,NA,skipped,NA,245385.19999993,NA,NA,245378.6,245385.19999993,2024-06-03T14:58:03Z,245395.9,NULL,Genehmigung,idhini,s,mwanamke,itikadi,fedheha,NA,sdfdsf,NA,1,NA,NA,NA,NA,NA,NA,NA,NA,NA,NA,NA,NA,NA,NA,NA,NA,NA,NA,NA
5c441,Shallow Question,html.Page,3_0_1_0_3_1_0,NA,NA,form submission,11123.999999976,245385.19999993,245378.6,245395.9,256519.89999998,256520.10000002,2024-06-03T14:58:14Z,256538.9,NULL,Genehmigung,idhini,s,mwanamke,itikadi,fedheha,fedheha,NA,NA,1,NA,NA,NA,NA,NA,NA,NA,NA,NA,NA,NA,NA,NA,NA,NA,NA,NA,NA,NA
5c441,"""Richtig""-Screen",canvas.Screen,3_0_1_0_3_1_1,NA,NA,skipped,NA,256523.39999998,NA,NA,256519.89999998,256523.5,2024-06-03T14:58:14Z,256538.9,NULL,Genehmigung,idhini,s,mwanamke,itikadi,fedheha,NA,sdfdsf,NA,1,NA,NA,NA,NA,NA,NA,NA,NA,NA,NA,NA,NA,NA,NA,NA,NA,NA,NA,NA
5c441,"""Falsch""-Screen",canvas.Screen,3_0_1_0_3_1_2,NA,NA,timeout,4996.8,256524.29999995,256523.566,256538.9,261518.8,261520.39999998,2024-06-03T14:58:19Z,261535.7,NULL,Genehmigung,idhini,s,mwanamke,itikadi,fedheha,NA,sdfdsf,0,1,NA,NA,NA,NA,NA,NA,NA,NA,NA,NA,NA,NA,NA,NA,NA,NA,NA,NA,NA
5c441,shallow,flow.Sequence,3_0_1_0_3_1,NA,NA,completion,16122.9,245385.19999993,245378.6,245395.9,261518.8,261520.69999993,2024-06-03T14:58:19Z,261535.7,NULL,Genehmigung,idhini,s,mwanamke,itikadi,fedheha,NA,sdfdsf,NA,1,NA,NA,NA,NA,NA,NA,NA,NA,NA,NA,NA,NA,NA,NA,NA,NA,NA,NA,NA
5c441,task,flow.Sequence,3_0_1_0_3,NA,NA,completion,16122.9,245385.19999993,245378.6,245395.9,261518.8,261520.89999998,2024-06-03T14:58:19Z,261535.7,NULL,Genehmigung,idhini,s,mwanamke,itikadi,fedheha,NA,sdfdsf,NA,1,NA,NA,NA,NA,NA,NA,NA,NA,NA,NA,NA,NA,NA,NA,NA,NA,NA,NA,NA
5c441,Deep Question,html.Page,3_0_1_0_4_0_0,NA,NA,form submission,3430.6999999761,261521.10000002,261518.8,261535.7,264966.39999998,264967.10000002,2024-06-03T14:58:22Z,264967.224,NULL,Prüfung,mtihani,d,NA,NA,NA,d,NA,NA,1,NA,NA,NA,NA,NA,NA,NA,NA,NA,NA,NA,NA,NA,NA,NA,NA,NA,NA,NA
5c441,"""Richtig""-Screen",canvas.Screen,3_0_1_0_4_0_1,NA,NA,skipped,NA,264970.19999993,NA,NA,264966.39999998,264970.39999998,2024-06-03T14:58:22Z,264967.224,NULL,Prüfung,mtihani,d,NA,NA,NA,NA,sdfdsf,NA,1,NA,NA,NA,NA,NA,NA,NA,NA,NA,NA,NA,NA,NA,NA,NA,NA,NA,NA,NA
5c441,"""Falsch""-Screen",canvas.Screen,3_0_1_0_4_0_2,NA,NA,timeout,4996.876,264971.29999995,264967.224,264967.224,269947.2,269947.89999998,2024-06-03T14:58:27Z,269964.1,NULL,Prüfung,mtihani,d,NA,NA,NA,NA,sdfdsf,0,1,NA,NA,NA,NA,NA,NA,NA,NA,NA,NA,NA,NA,NA,NA,NA,NA,NA,NA,NA
5c441,deep,flow.Sequence,3_0_1_0_4_0,NA,NA,completion,8411.5,261521.10000002,261518.8,261535.7,269947.2,269948.10000002,2024-06-03T14:58:27Z,269964.1,NULL,Prüfung,mtihani,d,NA,NA,NA,NA,sdfdsf,NA,1,NA,NA,NA,NA,NA,NA,NA,NA,NA,NA,NA,NA,NA,NA,NA,NA,NA,NA,NA
5c441,shallow,flow.Sequence,3_0_1_0_4_1,NA,NA,skipped,NA,269948.29999995,NA,NA,269947.2,269948.29999995,2024-06-03T14:58:27Z,269964.1,NULL,Prüfung,mtihani,d,NA,NA,NA,NA,sdfdsf,NA,1,NA,NA,NA,NA,NA,NA,NA,NA,NA,NA,NA,NA,NA,NA,NA,NA,NA,NA,NA
5c441,task,flow.Sequence,3_0_1_0_4,NA,NA,completion,8411.5,261521,261518.8,261535.7,269947.2,269948.39999998,2024-06-03T14:58:27Z,269964.1,NULL,Prüfung,mtihani,d,NA,NA,NA,NA,sdfdsf,NA,1,NA,NA,NA,NA,NA,NA,NA,NA,NA,NA,NA,NA,NA,NA,NA,NA,NA,NA,NA
5c441,Deep Question,html.Page,3_0_1_0_5_0_0,NA,NA,form submission,2946.0000000239,269948.60000002,269947.2,269964.1,272910.10000002,272910.39999998,2024-06-03T14:58:30Z,272912.554,NULL,Aufstand,ugomaji,d,NA,NA,NA,d,NA,NA,1,NA,NA,NA,NA,NA,NA,NA,NA,NA,NA,NA,NA,NA,NA,NA,NA,NA,NA,NA
5c441,"""Richtig""-Screen",canvas.Screen,3_0_1_0_5_0_1,NA,NA,skipped,NA,272913.29999995,NA,NA,272910.10000002,272913.5,2024-06-03T14:58:30Z,272912.554,NULL,Aufstand,ugomaji,d,NA,NA,NA,NA,sdfdsf,NA,1,NA,NA,NA,NA,NA,NA,NA,NA,NA,NA,NA,NA,NA,NA,NA,NA,NA,NA,NA
5c441,"""Falsch""-Screen",canvas.Screen,3_0_1_0_5_0_2,NA,NA,timeout,4996.646,272914.29999995,272912.554,272912.554,277892.6,277893.5,2024-06-03T14:58:35Z,277909.2,NULL,Aufstand,ugomaji,d,NA,NA,NA,NA,sdfdsf,0,1,NA,NA,NA,NA,NA,NA,NA,NA,NA,NA,NA,NA,NA,NA,NA,NA,NA,NA,NA
5c441,deep,flow.Sequence,3_0_1_0_5_0,NA,NA,completion,7928.5,269948.60000002,269947.2,269964.1,277892.6,277893.79999995,2024-06-03T14:58:35Z,277909.2,NULL,Aufstand,ugomaji,d,NA,NA,NA,NA,sdfdsf,NA,1,NA,NA,NA,NA,NA,NA,NA,NA,NA,NA,NA,NA,NA,NA,NA,NA,NA,NA,NA
5c441,shallow,flow.Sequence,3_0_1_0_5_1,NA,NA,skipped,NA,277894,NA,NA,277892.6,277894.10000002,2024-06-03T14:58:35Z,277909.2,NULL,Aufstand,ugomaji,d,NA,NA,NA,NA,sdfdsf,NA,1,NA,NA,NA,NA,NA,NA,NA,NA,NA,NA,NA,NA,NA,NA,NA,NA,NA,NA,NA
5c441,task,flow.Sequence,3_0_1_0_5,NA,NA,completion,7928.5,269948.60000002,269947.2,269964.1,277892.6,277894.29999995,2024-06-03T14:58:35Z,277909.2,NULL,Aufstand,ugomaji,d,NA,NA,NA,NA,sdfdsf,NA,1,NA,NA,NA,NA,NA,NA,NA,NA,NA,NA,NA,NA,NA,NA,NA,NA,NA,NA,NA
5c441,Deep Question,html.Page,3_0_1_0_6_0_0,NA,NA,form submission,2835.0999999523,277894.5,277892.6,277909.2,280744.29999995,280744.5,2024-06-03T14:58:38Z,280757.1,NULL,Fleisch,mshakiki,d,NA,NA,NA,f,NA,NA,1,NA,NA,NA,NA,NA,NA,NA,NA,NA,NA,NA,NA,NA,NA,NA,NA,NA,NA,NA
5c441,"""Richtig""-Screen",canvas.Screen,3_0_1_0_6_0_1,NA,NA,skipped,NA,280747.69999993,NA,NA,280744.29999995,280747.89999998,2024-06-03T14:58:38Z,280757.1,NULL,Fleisch,mshakiki,d,NA,NA,NA,NA,sdfdsf,NA,1,NA,NA,NA,NA,NA,NA,NA,NA,NA,NA,NA,NA,NA,NA,NA,NA,NA,NA,NA
5c441,"""Falsch""-Screen",canvas.Screen,3_0_1_0_6_0_2,NA,NA,timeout,4997,280748.19999993,280740.9,280757.1,285737.7,285738.60000002,2024-06-03T14:58:43Z,285754.1,NULL,Fleisch,mshakiki,d,NA,NA,NA,NA,sdfdsf,0,1,NA,NA,NA,NA,NA,NA,NA,NA,NA,NA,NA,NA,NA,NA,NA,NA,NA,NA,NA
5c441,deep,flow.Sequence,3_0_1_0_6_0,NA,NA,completion,7828.5,277894.5,277892.6,277909.2,285737.7,285739.10000002,2024-06-03T14:58:43Z,285754.1,NULL,Fleisch,mshakiki,d,NA,NA,NA,NA,sdfdsf,NA,1,NA,NA,NA,NA,NA,NA,NA,NA,NA,NA,NA,NA,NA,NA,NA,NA,NA,NA,NA
5c441,shallow,flow.Sequence,3_0_1_0_6_1,NA,NA,skipped,NA,285739.19999993,NA,NA,285737.7,285739.29999995,2024-06-03T14:58:43Z,285754.1,NULL,Fleisch,mshakiki,d,NA,NA,NA,NA,sdfdsf,NA,1,NA,NA,NA,NA,NA,NA,NA,NA,NA,NA,NA,NA,NA,NA,NA,NA,NA,NA,NA
5c441,task,flow.Sequence,3_0_1_0_6,NA,NA,completion,7828.5,277894.39999998,277892.6,277909.2,285737.7,285739.5,2024-06-03T14:58:43Z,285754.1,NULL,Fleisch,mshakiki,d,NA,NA,NA,NA,sdfdsf,NA,1,NA,NA,NA,NA,NA,NA,NA,NA,NA,NA,NA,NA,NA,NA,NA,NA,NA,NA,NA
5c441,Deep Question,html.Page,3_0_1_0_7_0_0,NA,NA,form submission,8054.1999999523,285739.69999993,285737.7,285754.1,293808.29999995,293808.5,2024-06-03T14:58:51Z,293815.6,NULL,Integrität,uadilifu,d,NA,NA,NA,uadilifu,NA,NA,1,NA,NA,NA,NA,NA,NA,NA,NA,NA,NA,NA,NA,NA,NA,NA,NA,NA,NA,NA
5c441,"""Richtig""-Screen",canvas.Screen,3_0_1_0_7_0_1,NA,NA,timeout,4997.5,293811.69999993,293799.65,293815.6,298796,298796.89999998,2024-06-03T14:58:56Z,298813.1,NULL,Integrität,uadilifu,d,NA,NA,NA,NA,sdfdsf,1,1,NA,NA,NA,NA,NA,NA,NA,NA,NA,NA,NA,NA,NA,NA,NA,NA,NA,NA,NA
5c441,"""Falsch""-Screen",canvas.Screen,3_0_1_0_7_0_2,NA,NA,skipped,NA,298802.19999993,NA,NA,298796,298802.29999995,2024-06-03T14:58:56Z,298813.1,NULL,Integrität,uadilifu,d,NA,NA,NA,NA,sdfdsf,NA,1,NA,NA,NA,NA,NA,NA,NA,NA,NA,NA,NA,NA,NA,NA,NA,NA,NA,NA,NA
5c441,deep,flow.Sequence,3_0_1_0_7_0,NA,NA,completion,13041.9,285739.69999993,285737.7,285754.1,298796,298802.39999998,2024-06-03T14:58:56Z,298813.1,NULL,Integrität,uadilifu,d,NA,NA,NA,NA,sdfdsf,NA,1,NA,NA,NA,NA,NA,NA,NA,NA,NA,NA,NA,NA,NA,NA,NA,NA,NA,NA,NA
5c441,shallow,flow.Sequence,3_0_1_0_7_1,NA,NA,skipped,NA,298802.39999998,NA,NA,298796,298802.39999998,2024-06-03T14:58:56Z,298813.1,NULL,Integrität,uadilifu,d,NA,NA,NA,NA,sdfdsf,NA,1,NA,NA,NA,NA,NA,NA,NA,NA,NA,NA,NA,NA,NA,NA,NA,NA,NA,NA,NA
5c441,task,flow.Sequence,3_0_1_0_7,NA,NA,completion,13041.9,285739.60000002,285737.7,285754.1,298796,298802.5,2024-06-03T14:58:56Z,298813.1,NULL,Integrität,uadilifu,d,NA,NA,NA,NA,sdfdsf,NA,1,NA,NA,NA,NA,NA,NA,NA,NA,NA,NA,NA,NA,NA,NA,NA,NA,NA,NA,NA
5c441,block,flow.Loop,3_0_1_0,NA,NA,completion,86796.316,212007.60000002,211999.684,211999.684,298796,298802.60000002,2024-06-03T14:58:56Z,298813.1,NULL,NA,NA,NA,NA,NA,NA,NA,sdfdsf,NA,1,NA,NA,NA,NA,NA,NA,NA,NA,NA,NA,NA,NA,NA,NA,NA,NA,NA,NA,NA
5c441,weiter,canvas.Screen,3_0_1_1,sdf,keypress(Space),response,1667.5000000239,298802.60000002,298796,298813.1,300480.60000002,300481.60000002,2024-06-03T14:58:58Z,300496.366,NULL,NA,NA,NA,NA,NA,NA,NA,sdfdsf,NA,1,NA,NA,NA,NA,NA,NA,NA,NA,NA,NA,NA,NA,NA,NA,NA,NA,NA,NA,NA
5c441,check continue,flow.Sequence,3_0_1,NA,NA,completion,88480.916000024,212007.60000002,211999.684,211999.684,300480.60000002,300481.89999998,2024-06-03T14:58:58Z,300496.366,NULL,NA,NA,NA,NA,NA,NA,NA,sdfdsf,NA,1,NA,NA,NA,NA,NA,NA,NA,NA,NA,NA,NA,NA,NA,NA,NA,NA,NA,NA,NA
5c441,deep,flow.Sequence,3_0_2_0_0_0,NA,NA,skipped,NA,300500.19999993,NA,NA,300480.60000002,300500.19999993,2024-06-03T14:58:58Z,300496.366,NULL,Genehmigung,idhini,s,mwanamke,itikadi,fedheha,NA,sdf,NA,2,NA,NA,NA,NA,NA,NA,NA,NA,NA,NA,NA,NA,NA,NA,NA,NA,NA,NA,NA
5c441,Shallow Question,html.Page,3_0_2_0_0_1_0,NA,NA,form submission,12910.433999952,300500.39999998,300496.366,300496.366,313406.79999995,313407,2024-06-03T14:59:11Z,313420.7,NULL,Genehmigung,idhini,s,mwanamke,itikadi,fedheha,idhini,NA,NA,2,NA,NA,NA,NA,NA,NA,NA,NA,NA,NA,NA,NA,NA,NA,NA,NA,NA,NA,NA
5c441,"""Richtig""-Screen",canvas.Screen,3_0_2_0_0_1_1,NA,NA,timeout,4996.9,313409.19999993,313404.222,313420.7,318400.9,318401.5,2024-06-03T14:59:16Z,318417.6,NULL,Genehmigung,idhini,s,mwanamke,itikadi,fedheha,NA,sdf,1,2,NA,NA,NA,NA,NA,NA,NA,NA,NA,NA,NA,NA,NA,NA,NA,NA,NA,NA,NA
5c441,"""Falsch""-Screen",canvas.Screen,3_0_2_0_0_1_2,NA,NA,skipped,NA,318405,NA,NA,318400.9,318405.10000002,2024-06-03T14:59:16Z,318417.6,NULL,Genehmigung,idhini,s,mwanamke,itikadi,fedheha,NA,sdf,NA,2,NA,NA,NA,NA,NA,NA,NA,NA,NA,NA,NA,NA,NA,NA,NA,NA,NA,NA,NA
5c441,shallow,flow.Sequence,3_0_2_0_0_1,NA,NA,completion,17904.534,300500.39999998,300496.366,300496.366,318400.9,318405.29999995,2024-06-03T14:59:16Z,318417.6,NULL,Genehmigung,idhini,s,mwanamke,itikadi,fedheha,NA,sdf,NA,2,NA,NA,NA,NA,NA,NA,NA,NA,NA,NA,NA,NA,NA,NA,NA,NA,NA,NA,NA
5c441,task,flow.Sequence,3_0_2_0_0,NA,NA,completion,17904.534,300500.19999993,300496.366,300496.366,318400.9,318405.39999998,2024-06-03T14:59:16Z,318417.6,NULL,Genehmigung,idhini,s,mwanamke,itikadi,fedheha,NA,sdf,NA,2,NA,NA,NA,NA,NA,NA,NA,NA,NA,NA,NA,NA,NA,NA,NA,NA,NA,NA,NA
5c441,deep,flow.Sequence,3_0_2_0_1_0,NA,NA,skipped,NA,318405.39999998,NA,NA,318400.9,318405.5,2024-06-03T14:59:16Z,318417.6,NULL,Begegnung,kukutana,s,mmasihiya,mpiganaji,husiano,NA,sdf,NA,2,NA,NA,NA,NA,NA,NA,NA,NA,NA,NA,NA,NA,NA,NA,NA,NA,NA,NA,NA
5c441,Shallow Question,html.Page,3_0_2_0_1_1_0,NA,NA,form submission,4100.0999999285,318405.69999993,318400.9,318417.6,322517.69999993,322517.79999995,2024-06-03T14:59:20Z,322531.7,NULL,Begegnung,kukutana,s,mmasihiya,mpiganaji,husiano,kukutana,NA,NA,2,NA,NA,NA,NA,NA,NA,NA,NA,NA,NA,NA,NA,NA,NA,NA,NA,NA,NA,NA
5c441,"""Richtig""-Screen",canvas.Screen,3_0_2_0_1_1_1,NA,NA,timeout,4997,322520.79999995,322515.514,322531.7,327512.3,327512.79999995,2024-06-03T14:59:25Z,327528.7,NULL,Begegnung,kukutana,s,mmasihiya,mpiganaji,husiano,NA,sdf,1,2,NA,NA,NA,NA,NA,NA,NA,NA,NA,NA,NA,NA,NA,NA,NA,NA,NA,NA,NA
5c441,"""Falsch""-Screen",canvas.Screen,3_0_2_0_1_1_2,NA,NA,skipped,NA,327514.89999998,NA,NA,327512.3,327515.10000002,2024-06-03T14:59:25Z,327528.7,NULL,Begegnung,kukutana,s,mmasihiya,mpiganaji,husiano,NA,sdf,NA,2,NA,NA,NA,NA,NA,NA,NA,NA,NA,NA,NA,NA,NA,NA,NA,NA,NA,NA,NA
5c441,shallow,flow.Sequence,3_0_2_0_1_1,NA,NA,completion,9094.7,318405.60000002,318400.9,318417.6,327512.3,327515.10000002,2024-06-03T14:59:25Z,327528.7,NULL,Begegnung,kukutana,s,mmasihiya,mpiganaji,husiano,NA,sdf,NA,2,NA,NA,NA,NA,NA,NA,NA,NA,NA,NA,NA,NA,NA,NA,NA,NA,NA,NA,NA
5c441,task,flow.Sequence,3_0_2_0_1,NA,NA,completion,9094.7,318405.39999998,318400.9,318417.6,327512.3,327515.10000002,2024-06-03T14:59:25Z,327528.7,NULL,Begegnung,kukutana,s,mmasihiya,mpiganaji,husiano,NA,sdf,NA,2,NA,NA,NA,NA,NA,NA,NA,NA,NA,NA,NA,NA,NA,NA,NA,NA,NA,NA,NA
5c441,Deep Question,html.Page,3_0_2_0_2_0_0,NA,NA,form submission,4451.4999999285,327515.19999993,327512.3,327528.7,331980.19999993,331980.39999998,2024-06-03T14:59:29Z,331992.4,NULL,Prüfung,mtihani,d,NA,NA,NA,h,NA,NA,2,NA,NA,NA,NA,NA,NA,NA,NA,NA,NA,NA,NA,NA,NA,NA,NA,NA,NA,NA
5c441,"""Richtig""-Screen",canvas.Screen,3_0_2_0_2_0_1,NA,NA,skipped,NA,331981.79999995,NA,NA,331980.19999993,331981.79999995,2024-06-03T14:59:29Z,331992.4,NULL,Prüfung,mtihani,d,NA,NA,NA,NA,sdf,NA,2,NA,NA,NA,NA,NA,NA,NA,NA,NA,NA,NA,NA,NA,NA,NA,NA,NA,NA,NA
5c441,"""Falsch""-Screen",canvas.Screen,3_0_2_0_2_0_2,NA,NA,timeout,4997.4,331982.10000002,331976.2,331992.4,336973.1,336974.10000002,2024-06-03T14:59:34Z,336989.8,NULL,Prüfung,mtihani,d,NA,NA,NA,NA,sdf,0,2,NA,NA,NA,NA,NA,NA,NA,NA,NA,NA,NA,NA,NA,NA,NA,NA,NA,NA,NA
5c441,deep,flow.Sequence,3_0_2_0_2_0,NA,NA,completion,9444.4,327515.19999993,327512.3,327528.7,336973.1,336974.39999998,2024-06-03T14:59:34Z,336989.8,NULL,Prüfung,mtihani,d,NA,NA,NA,NA,sdf,NA,2,NA,NA,NA,NA,NA,NA,NA,NA,NA,NA,NA,NA,NA,NA,NA,NA,NA,NA,NA
5c441,shallow,flow.Sequence,3_0_2_0_2_1,NA,NA,skipped,NA,336974.60000002,NA,NA,336973.1,336974.69999993,2024-06-03T14:59:34Z,336989.8,NULL,Prüfung,mtihani,d,NA,NA,NA,NA,sdf,NA,2,NA,NA,NA,NA,NA,NA,NA,NA,NA,NA,NA,NA,NA,NA,NA,NA,NA,NA,NA
5c441,task,flow.Sequence,3_0_2_0_2,NA,NA,completion,9444.4,327515.19999993,327512.3,327528.7,336973.1,336974.89999998,2024-06-03T14:59:34Z,336989.8,NULL,Prüfung,mtihani,d,NA,NA,NA,NA,sdf,NA,2,NA,NA,NA,NA,NA,NA,NA,NA,NA,NA,NA,NA,NA,NA,NA,NA,NA,NA,NA
5c441,deep,flow.Sequence,3_0_2_0_3_0,NA,NA,skipped,NA,336975,NA,NA,336973.1,336975.19999993,2024-06-03T14:59:34Z,336989.8,NULL,Kultur,utamaduni,s,shetani,gerezani,mazingira,NA,sdf,NA,2,NA,NA,NA,NA,NA,NA,NA,NA,NA,NA,NA,NA,NA,NA,NA,NA,NA,NA,NA
5c441,Shallow Question,html.Page,3_0_2_0_3_1_0,NA,NA,form submission,7885.3000000239,336975.29999995,336973.1,336989.8,344875.10000002,344875.29999995,2024-06-03T14:59:42Z,344884.7,NULL,Kultur,utamaduni,s,shetani,gerezani,mazingira,utamaduni,NA,NA,2,NA,NA,NA,NA,NA,NA,NA,NA,NA,NA,NA,NA,NA,NA,NA,NA,NA,NA,NA
5c441,"""Richtig""-Screen",canvas.Screen,3_0_2_0_3_1_1,NA,NA,timeout,4997.1,344878.39999998,344868.52,344884.7,349865.1,349866,2024-06-03T14:59:47Z,349881.8,NULL,Kultur,utamaduni,s,shetani,gerezani,mazingira,NA,sdf,1,2,NA,NA,NA,NA,NA,NA,NA,NA,NA,NA,NA,NA,NA,NA,NA,NA,NA,NA,NA
5c441,"""Falsch""-Screen",canvas.Screen,3_0_2_0_3_1_2,NA,NA,skipped,NA,349870.5,NA,NA,349865.1,349870.60000002,2024-06-03T14:59:47Z,349881.8,NULL,Kultur,utamaduni,s,shetani,gerezani,mazingira,NA,sdf,NA,2,NA,NA,NA,NA,NA,NA,NA,NA,NA,NA,NA,NA,NA,NA,NA,NA,NA,NA,NA
5c441,shallow,flow.Sequence,3_0_2_0_3_1,NA,NA,completion,12875.3,336975.29999995,336973.1,336989.8,349865.1,349870.69999993,2024-06-03T14:59:47Z,349881.8,NULL,Kultur,utamaduni,s,shetani,gerezani,mazingira,NA,sdf,NA,2,NA,NA,NA,NA,NA,NA,NA,NA,NA,NA,NA,NA,NA,NA,NA,NA,NA,NA,NA
5c441,task,flow.Sequence,3_0_2_0_3,NA,NA,completion,12875.3,336975,336973.1,336989.8,349865.1,349870.69999993,2024-06-03T14:59:47Z,349881.8,NULL,Kultur,utamaduni,s,shetani,gerezani,mazingira,NA,sdf,NA,2,NA,NA,NA,NA,NA,NA,NA,NA,NA,NA,NA,NA,NA,NA,NA,NA,NA,NA,NA
5c441,Deep Question,html.Page,3_0_2_0_4_0_0,NA,NA,form submission,3388.3000000239,349870.79999995,349865.1,349881.8,353270.10000002,353270.29999995,2024-06-03T14:59:50Z,353279.5,NULL,Aufstand,ugomaji,d,NA,NA,NA,f,NA,NA,2,NA,NA,NA,NA,NA,NA,NA,NA,NA,NA,NA,NA,NA,NA,NA,NA,NA,NA,NA
5c441,"""Richtig""-Screen",canvas.Screen,3_0_2_0_4_0_1,NA,NA,skipped,NA,353273.19999993,NA,NA,353270.10000002,353273.39999998,2024-06-03T14:59:50Z,353279.5,NULL,Aufstand,ugomaji,d,NA,NA,NA,NA,sdf,NA,2,NA,NA,NA,NA,NA,NA,NA,NA,NA,NA,NA,NA,NA,NA,NA,NA,NA,NA,NA
5c441,"""Falsch""-Screen",canvas.Screen,3_0_2_0_4_0_2,NA,NA,timeout,4997.1,353274.10000002,353263.294,353279.5,358259.8,358260.69999993,2024-06-03T14:59:55Z,358276.6,NULL,Aufstand,ugomaji,d,NA,NA,NA,NA,sdf,0,2,NA,NA,NA,NA,NA,NA,NA,NA,NA,NA,NA,NA,NA,NA,NA,NA,NA,NA,NA
5c441,deep,flow.Sequence,3_0_2_0_4_0,NA,NA,completion,8378,349870.79999995,349865.1,349881.8,358259.8,358261.19999993,2024-06-03T14:59:55Z,358276.6,NULL,Aufstand,ugomaji,d,NA,NA,NA,NA,sdf,NA,2,NA,NA,NA,NA,NA,NA,NA,NA,NA,NA,NA,NA,NA,NA,NA,NA,NA,NA,NA
5c441,shallow,flow.Sequence,3_0_2_0_4_1,NA,NA,skipped,NA,358261.29999995,NA,NA,358259.8,358261.39999998,2024-06-03T14:59:55Z,358276.6,NULL,Aufstand,ugomaji,d,NA,NA,NA,NA,sdf,NA,2,NA,NA,NA,NA,NA,NA,NA,NA,NA,NA,NA,NA,NA,NA,NA,NA,NA,NA,NA
5c441,task,flow.Sequence,3_0_2_0_4,NA,NA,completion,8378,349870.79999995,349865.1,349881.8,358259.8,358261.60000002,2024-06-03T14:59:55Z,358276.6,NULL,Aufstand,ugomaji,d,NA,NA,NA,NA,sdf,NA,2,NA,NA,NA,NA,NA,NA,NA,NA,NA,NA,NA,NA,NA,NA,NA,NA,NA,NA,NA
5c441,Deep Question,html.Page,3_0_2_0_5_0_0,NA,NA,form submission,3533.1999999523,358261.79999995,358259.8,358276.6,361809.79999995,361810,2024-06-03T14:59:59Z,361824.2,NULL,Fleisch,mshakiki,d,NA,NA,NA,g,NA,NA,2,NA,NA,NA,NA,NA,NA,NA,NA,NA,NA,NA,NA,NA,NA,NA,NA,NA,NA,NA
5c441,"""Richtig""-Screen",canvas.Screen,3_0_2_0_5_0_1,NA,NA,skipped,NA,361813.10000002,NA,NA,361809.79999995,361813.19999993,2024-06-03T14:59:59Z,361824.2,NULL,Fleisch,mshakiki,d,NA,NA,NA,NA,sdf,NA,2,NA,NA,NA,NA,NA,NA,NA,NA,NA,NA,NA,NA,NA,NA,NA,NA,NA,NA,NA
5c441,"""Falsch""-Screen",canvas.Screen,3_0_2_0_5_0_2,NA,NA,timeout,4996.9,361814.10000002,361808.306,361824.2,366804.9,366805.79999995,2024-06-03T15:00:04Z,366821.1,NULL,Fleisch,mshakiki,d,NA,NA,NA,NA,sdf,0,2,NA,NA,NA,NA,NA,NA,NA,NA,NA,NA,NA,NA,NA,NA,NA,NA,NA,NA,NA
5c441,deep,flow.Sequence,3_0_2_0_5_0,NA,NA,completion,8528.3,358261.69999993,358259.8,358276.6,366804.9,366806.19999993,2024-06-03T15:00:04Z,366821.1,NULL,Fleisch,mshakiki,d,NA,NA,NA,NA,sdf,NA,2,NA,NA,NA,NA,NA,NA,NA,NA,NA,NA,NA,NA,NA,NA,NA,NA,NA,NA,NA
5c441,shallow,flow.Sequence,3_0_2_0_5_1,NA,NA,skipped,NA,366806.39999998,NA,NA,366804.9,366806.60000002,2024-06-03T15:00:04Z,366821.1,NULL,Fleisch,mshakiki,d,NA,NA,NA,NA,sdf,NA,2,NA,NA,NA,NA,NA,NA,NA,NA,NA,NA,NA,NA,NA,NA,NA,NA,NA,NA,NA
5c441,task,flow.Sequence,3_0_2_0_5,NA,NA,completion,8528.3,358261.69999993,358259.8,358276.6,366804.9,366806.69999993,2024-06-03T15:00:04Z,366821.1,NULL,Fleisch,mshakiki,d,NA,NA,NA,NA,sdf,NA,2,NA,NA,NA,NA,NA,NA,NA,NA,NA,NA,NA,NA,NA,NA,NA,NA,NA,NA,NA
5c441,Deep Question,html.Page,3_0_2_0_6_0_0,NA,NA,form submission,22315.299999976,366807,366804.9,366821.1,389136.39999998,389136.69999993,2024-06-03T15:00:26Z,389141.36,NULL,Integrität,uadilifu,d,NA,NA,NA,uatanifu,NA,NA,2,NA,NA,NA,NA,NA,NA,NA,NA,NA,NA,NA,NA,NA,NA,NA,NA,NA,NA,NA
5c441,"""Richtig""-Screen",canvas.Screen,3_0_2_0_6_0_1,NA,NA,skipped,NA,389139.79999995,NA,NA,389136.39999998,389140,2024-06-03T15:00:26Z,389141.36,NULL,Integrität,uadilifu,d,NA,NA,NA,NA,sdf,NA,2,NA,NA,NA,NA,NA,NA,NA,NA,NA,NA,NA,NA,NA,NA,NA,NA,NA,NA,NA
5c441,"""Falsch""-Screen",canvas.Screen,3_0_2_0_6_0_2,NA,NA,timeout,4996.74,389140.79999995,389141.36,389141.36,394121.1,394122,2024-06-03T15:00:31Z,394138.1,NULL,Integrität,uadilifu,d,NA,NA,NA,NA,sdf,0,2,NA,NA,NA,NA,NA,NA,NA,NA,NA,NA,NA,NA,NA,NA,NA,NA,NA,NA,NA
5c441,deep,flow.Sequence,3_0_2_0_6_0,NA,NA,completion,27300,366806.89999998,366804.9,366821.1,394121.1,394122.29999995,2024-06-03T15:00:31Z,394138.1,NULL,Integrität,uadilifu,d,NA,NA,NA,NA,sdf,NA,2,NA,NA,NA,NA,NA,NA,NA,NA,NA,NA,NA,NA,NA,NA,NA,NA,NA,NA,NA
5c441,shallow,flow.Sequence,3_0_2_0_6_1,NA,NA,skipped,NA,394122.5,NA,NA,394121.1,394122.60000002,2024-06-03T15:00:31Z,394138.1,NULL,Integrität,uadilifu,d,NA,NA,NA,NA,sdf,NA,2,NA,NA,NA,NA,NA,NA,NA,NA,NA,NA,NA,NA,NA,NA,NA,NA,NA,NA,NA
5c441,task,flow.Sequence,3_0_2_0_6,NA,NA,completion,27300,366806.89999998,366804.9,366821.1,394121.1,394122.79999995,2024-06-03T15:00:31Z,394138.1,NULL,Integrität,uadilifu,d,NA,NA,NA,NA,sdf,NA,2,NA,NA,NA,NA,NA,NA,NA,NA,NA,NA,NA,NA,NA,NA,NA,NA,NA,NA,NA
5c441,deep,flow.Sequence,3_0_2_0_7_0,NA,NA,skipped,NA,394123,NA,NA,394121.1,394123.10000002,2024-06-03T15:00:31Z,394138.1,NULL,Verzögerung,kuchelewa,s,mwakilishi,mwanauchumi,jaribio,NA,sdf,NA,2,NA,NA,NA,NA,NA,NA,NA,NA,NA,NA,NA,NA,NA,NA,NA,NA,NA,NA,NA
5c441,Shallow Question,html.Page,3_0_2_0_7_1_0,NA,NA,form submission,4981.4,394123.10000002,394121.1,394138.1,399119.5,399119.69999993,2024-06-03T15:00:36Z,399135.1,NULL,Verzögerung,kuchelewa,s,mwakilishi,mwanauchumi,jaribio,kuchelewa,NA,NA,2,NA,NA,NA,NA,NA,NA,NA,NA,NA,NA,NA,NA,NA,NA,NA,NA,NA,NA,NA
5c441,"""Richtig""-Screen",canvas.Screen,3_0_2_0_7_1_1,NA,NA,timeout,4996.9,399122.89999998,399118.456,399135.1,404115.3,404116.5,2024-06-03T15:00:41Z,404132,NULL,Verzögerung,kuchelewa,s,mwakilishi,mwanauchumi,jaribio,NA,sdf,1,2,NA,NA,NA,NA,NA,NA,NA,NA,NA,NA,NA,NA,NA,NA,NA,NA,NA,NA,NA
5c441,"""Falsch""-Screen",canvas.Screen,3_0_2_0_7_1_2,NA,NA,skipped,NA,404120.89999998,NA,NA,404115.3,404121,2024-06-03T15:00:41Z,404132,NULL,Verzögerung,kuchelewa,s,mwakilishi,mwanauchumi,jaribio,NA,sdf,NA,2,NA,NA,NA,NA,NA,NA,NA,NA,NA,NA,NA,NA,NA,NA,NA,NA,NA,NA,NA
5c441,shallow,flow.Sequence,3_0_2_0_7_1,NA,NA,completion,9977.2,394123.10000002,394121.1,394138.1,404115.3,404121,2024-06-03T15:00:41Z,404132,NULL,Verzögerung,kuchelewa,s,mwakilishi,mwanauchumi,jaribio,NA,sdf,NA,2,NA,NA,NA,NA,NA,NA,NA,NA,NA,NA,NA,NA,NA,NA,NA,NA,NA,NA,NA
5c441,task,flow.Sequence,3_0_2_0_7,NA,NA,completion,9977.2,394122.89999998,394121.1,394138.1,404115.3,404121.10000002,2024-06-03T15:00:41Z,404132,NULL,Verzögerung,kuchelewa,s,mwakilishi,mwanauchumi,jaribio,NA,sdf,NA,2,NA,NA,NA,NA,NA,NA,NA,NA,NA,NA,NA,NA,NA,NA,NA,NA,NA,NA,NA
5c441,block,flow.Loop,3_0_2_0,NA,NA,completion,103618.934,300500.19999993,300496.366,300496.366,404115.3,404121.10000002,2024-06-03T15:00:41Z,404132,NULL,NA,NA,NA,NA,NA,NA,NA,sdf,NA,2,NA,NA,NA,NA,NA,NA,NA,NA,NA,NA,NA,NA,NA,NA,NA,NA,NA,NA,NA
5c441,weiter,canvas.Screen,3_0_2_1,sdf,keypress(Space),response,1421.1000000238,404121.19999993,404115.3,404132,405553.10000002,405554.29999995,2024-06-03T15:00:43Z,405564.55,NULL,NA,NA,NA,NA,NA,NA,NA,sdf,NA,2,NA,NA,NA,NA,NA,NA,NA,NA,NA,NA,NA,NA,NA,NA,NA,NA,NA,NA,NA
5c441,check continue,flow.Sequence,3_0_2,NA,NA,completion,105056.73400002,300500.19999993,300496.366,300496.366,405553.10000002,405554.60000002,2024-06-03T15:00:43Z,405564.55,NULL,NA,NA,NA,NA,NA,NA,NA,sdf,NA,2,NA,NA,NA,NA,NA,NA,NA,NA,NA,NA,NA,NA,NA,NA,NA,NA,NA,NA,NA
5c441,Deep Question,html.Page,3_0_3_0_0_0_0,NA,NA,form submission,6071.7499999523,405572.60000002,405564.55,405564.55,411636.29999995,411636.5,2024-06-03T15:00:49Z,411644.482,NULL,Aufstand,ugomaji,d,NA,NA,NA,h,NA,NA,3,NA,NA,NA,NA,NA,NA,NA,NA,NA,NA,NA,NA,NA,NA,NA,NA,NA,NA,NA
5c441,"""Richtig""-Screen",canvas.Screen,3_0_3_0_0_0_1,NA,NA,skipped,NA,411639.39999998,NA,NA,411636.29999995,411639.5,2024-06-03T15:00:49Z,411644.482,NULL,Aufstand,ugomaji,d,NA,NA,NA,NA,qt,NA,3,NA,NA,NA,NA,NA,NA,NA,NA,NA,NA,NA,NA,NA,NA,NA,NA,NA,NA,NA
5c441,"""Falsch""-Screen",canvas.Screen,3_0_3_0_0_0_2,NA,NA,timeout,4996.418,411640.29999995,411644.482,411644.482,416624.1,416625.10000002,2024-06-03T15:00:54Z,416640.9,NULL,Aufstand,ugomaji,d,NA,NA,NA,NA,qt,0,3,NA,NA,NA,NA,NA,NA,NA,NA,NA,NA,NA,NA,NA,NA,NA,NA,NA,NA,NA
5c441,deep,flow.Sequence,3_0_3_0_0_0,NA,NA,completion,11059.55,405572.60000002,405564.55,405564.55,416624.1,416625.60000002,2024-06-03T15:00:54Z,416640.9,NULL,Aufstand,ugomaji,d,NA,NA,NA,NA,qt,NA,3,NA,NA,NA,NA,NA,NA,NA,NA,NA,NA,NA,NA,NA,NA,NA,NA,NA,NA,NA
5c441,shallow,flow.Sequence,3_0_3_0_0_1,NA,NA,skipped,NA,416625.79999995,NA,NA,416624.1,416625.89999998,2024-06-03T15:00:54Z,416640.9,NULL,Aufstand,ugomaji,d,NA,NA,NA,NA,qt,NA,3,NA,NA,NA,NA,NA,NA,NA,NA,NA,NA,NA,NA,NA,NA,NA,NA,NA,NA,NA
5c441,task,flow.Sequence,3_0_3_0_0,NA,NA,completion,11059.55,405572.60000002,405564.55,405564.55,416624.1,416626.10000002,2024-06-03T15:00:54Z,416640.9,NULL,Aufstand,ugomaji,d,NA,NA,NA,NA,qt,NA,3,NA,NA,NA,NA,NA,NA,NA,NA,NA,NA,NA,NA,NA,NA,NA,NA,NA,NA,NA
5c441,deep,flow.Sequence,3_0_3_0_1_0,NA,NA,skipped,NA,416626.29999995,NA,NA,416624.1,416626.5,2024-06-03T15:00:54Z,416640.9,NULL,Genehmigung,idhini,s,mwanamke,itikadi,fedheha,NA,qt,NA,3,NA,NA,NA,NA,NA,NA,NA,NA,NA,NA,NA,NA,NA,NA,NA,NA,NA,NA,NA
5c441,Shallow Question,html.Page,3_0_3_0_1_1_0,NA,NA,form submission,5110.7000000238,416626.60000002,416624.1,416640.9,421751.60000002,421751.79999995,2024-06-03T15:00:59Z,421754.794,NULL,Genehmigung,idhini,s,mwanamke,itikadi,fedheha,idhini,NA,NA,3,NA,NA,NA,NA,NA,NA,NA,NA,NA,NA,NA,NA,NA,NA,NA,NA,NA,NA,NA
5c441,"""Richtig""-Screen",canvas.Screen,3_0_3_0_1_1_1,NA,NA,timeout,4996.806,421755.10000002,421754.794,421754.794,426734.4,426735.29999995,2024-06-03T15:01:04Z,426751.6,NULL,Genehmigung,idhini,s,mwanamke,itikadi,fedheha,NA,qt,1,3,NA,NA,NA,NA,NA,NA,NA,NA,NA,NA,NA,NA,NA,NA,NA,NA,NA,NA,NA
5c441,"""Falsch""-Screen",canvas.Screen,3_0_3_0_1_1_2,NA,NA,skipped,NA,426740.10000002,NA,NA,426734.4,426740.29999995,2024-06-03T15:01:04Z,426751.6,NULL,Genehmigung,idhini,s,mwanamke,itikadi,fedheha,NA,qt,NA,3,NA,NA,NA,NA,NA,NA,NA,NA,NA,NA,NA,NA,NA,NA,NA,NA,NA,NA,NA
5c441,shallow,flow.Sequence,3_0_3_0_1_1,NA,NA,completion,10093.5,416626.60000002,416624.1,416640.9,426734.4,426740.5,2024-06-03T15:01:04Z,426751.6,NULL,Genehmigung,idhini,s,mwanamke,itikadi,fedheha,NA,qt,NA,3,NA,NA,NA,NA,NA,NA,NA,NA,NA,NA,NA,NA,NA,NA,NA,NA,NA,NA,NA
5c441,task,flow.Sequence,3_0_3_0_1,NA,NA,completion,10093.5,416626.29999995,416624.1,416640.9,426734.4,426740.69999993,2024-06-03T15:01:04Z,426751.6,NULL,Genehmigung,idhini,s,mwanamke,itikadi,fedheha,NA,qt,NA,3,NA,NA,NA,NA,NA,NA,NA,NA,NA,NA,NA,NA,NA,NA,NA,NA,NA,NA,NA
5c441,Deep Question,html.Page,3_0_3_0_2_0_0,NA,NA,form submission,3346.6999999523,426740.79999995,426734.4,426751.6,430098.29999995,430098.5,2024-06-03T15:01:07Z,430099.68,NULL,Fleisch,mshakiki,d,NA,NA,NA,g,NA,NA,3,NA,NA,NA,NA,NA,NA,NA,NA,NA,NA,NA,NA,NA,NA,NA,NA,NA,NA,NA
5c441,"""Richtig""-Screen",canvas.Screen,3_0_3_0_2_0_1,NA,NA,skipped,NA,430101.5,NA,NA,430098.29999995,430101.69999993,2024-06-03T15:01:07Z,430099.68,NULL,Fleisch,mshakiki,d,NA,NA,NA,NA,qt,NA,3,NA,NA,NA,NA,NA,NA,NA,NA,NA,NA,NA,NA,NA,NA,NA,NA,NA,NA,NA
5c441,"""Falsch""-Screen",canvas.Screen,3_0_3_0_2_0_2,NA,NA,timeout,4996.32,430102.5,430099.68,430099.68,435079.3,435080.39999998,2024-06-03T15:01:12Z,435096,NULL,Fleisch,mshakiki,d,NA,NA,NA,NA,qt,0,3,NA,NA,NA,NA,NA,NA,NA,NA,NA,NA,NA,NA,NA,NA,NA,NA,NA,NA,NA
5c441,deep,flow.Sequence,3_0_3_0_2_0,NA,NA,completion,8327.7,426740.79999995,426734.4,426751.6,435079.3,435080.69999993,2024-06-03T15:01:12Z,435096,NULL,Fleisch,mshakiki,d,NA,NA,NA,NA,qt,NA,3,NA,NA,NA,NA,NA,NA,NA,NA,NA,NA,NA,NA,NA,NA,NA,NA,NA,NA,NA
5c441,shallow,flow.Sequence,3_0_3_0_2_1,NA,NA,skipped,NA,435080.89999998,NA,NA,435079.3,435081,2024-06-03T15:01:12Z,435096,NULL,Fleisch,mshakiki,d,NA,NA,NA,NA,qt,NA,3,NA,NA,NA,NA,NA,NA,NA,NA,NA,NA,NA,NA,NA,NA,NA,NA,NA,NA,NA
5c441,task,flow.Sequence,3_0_3_0_2,NA,NA,completion,8327.7,426740.69999993,426734.4,426751.6,435079.3,435081.19999993,2024-06-03T15:01:12Z,435096,NULL,Fleisch,mshakiki,d,NA,NA,NA,NA,qt,NA,3,NA,NA,NA,NA,NA,NA,NA,NA,NA,NA,NA,NA,NA,NA,NA,NA,NA,NA,NA
5c441,Deep Question,html.Page,3_0_3_0_3_0_0,NA,NA,form submission,14236.5,435081.29999995,435079.3,435096,449332.5,449332.69999993,2024-06-03T15:01:27Z,449337.2,NULL,Integrität,uadilifu,d,NA,NA,NA,uadanifu,NA,NA,3,NA,NA,NA,NA,NA,NA,NA,NA,NA,NA,NA,NA,NA,NA,NA,NA,NA,NA,NA
5c441,"""Richtig""-Screen",canvas.Screen,3_0_3_0_3_0_1,NA,NA,skipped,NA,449335.89999998,NA,NA,449332.5,449336,2024-06-03T15:01:27Z,449337.2,NULL,Integrität,uadilifu,d,NA,NA,NA,NA,qt,NA,3,NA,NA,NA,NA,NA,NA,NA,NA,NA,NA,NA,NA,NA,NA,NA,NA,NA,NA,NA
5c441,"""Falsch""-Screen",canvas.Screen,3_0_3_0_3_0_2,NA,NA,timeout,4997.6,449336.69999993,449321.35,449337.2,454317.6,454318.29999995,2024-06-03T15:01:32Z,454334.8,NULL,Integrität,uadilifu,d,NA,NA,NA,NA,qt,0,3,NA,NA,NA,NA,NA,NA,NA,NA,NA,NA,NA,NA,NA,NA,NA,NA,NA,NA,NA
5c441,deep,flow.Sequence,3_0_3_0_3_0,NA,NA,completion,19221.6,435081.29999995,435079.3,435096,454317.6,454318.69999993,2024-06-03T15:01:32Z,454334.8,NULL,Integrität,uadilifu,d,NA,NA,NA,NA,qt,NA,3,NA,NA,NA,NA,NA,NA,NA,NA,NA,NA,NA,NA,NA,NA,NA,NA,NA,NA,NA
5c441,shallow,flow.Sequence,3_0_3_0_3_1,NA,NA,skipped,NA,454318.79999995,NA,NA,454317.6,454318.89999998,2024-06-03T15:01:32Z,454334.8,NULL,Integrität,uadilifu,d,NA,NA,NA,NA,qt,NA,3,NA,NA,NA,NA,NA,NA,NA,NA,NA,NA,NA,NA,NA,NA,NA,NA,NA,NA,NA
5c441,task,flow.Sequence,3_0_3_0_3,NA,NA,completion,19221.6,435081.19999993,435079.3,435096,454317.6,454319.10000002,2024-06-03T15:01:32Z,454334.8,NULL,Integrität,uadilifu,d,NA,NA,NA,NA,qt,NA,3,NA,NA,NA,NA,NA,NA,NA,NA,NA,NA,NA,NA,NA,NA,NA,NA,NA,NA,NA
5c441,deep,flow.Sequence,3_0_3_0_4_0,NA,NA,skipped,NA,454319.29999995,NA,NA,454317.6,454319.29999995,2024-06-03T15:01:32Z,454334.8,NULL,Begegnung,kukutana,s,mmasihiya,mpiganaji,husiano,NA,qt,NA,3,NA,NA,NA,NA,NA,NA,NA,NA,NA,NA,NA,NA,NA,NA,NA,NA,NA,NA,NA
5c441,Shallow Question,html.Page,3_0_3_0_4_1_0,NA,NA,form submission,3728.8000000239,454319.5,454317.6,454334.8,458063.60000002,458063.79999995,2024-06-03T15:01:35Z,458065.824,NULL,Begegnung,kukutana,s,mmasihiya,mpiganaji,husiano,kukutana,NA,NA,3,NA,NA,NA,NA,NA,NA,NA,NA,NA,NA,NA,NA,NA,NA,NA,NA,NA,NA,NA
5c441,"""Richtig""-Screen",canvas.Screen,3_0_3_0_4_1_1,NA,NA,timeout,4996.376,458067,458065.824,458065.824,463045.8,463047.10000002,2024-06-03T15:01:40Z,463062.2,NULL,Begegnung,kukutana,s,mmasihiya,mpiganaji,husiano,NA,qt,1,3,NA,NA,NA,NA,NA,NA,NA,NA,NA,NA,NA,NA,NA,NA,NA,NA,NA,NA,NA
5c441,"""Falsch""-Screen",canvas.Screen,3_0_3_0_4_1_2,NA,NA,skipped,NA,463053.19999993,NA,NA,463045.8,463053.5,2024-06-03T15:01:40Z,463062.2,NULL,Begegnung,kukutana,s,mmasihiya,mpiganaji,husiano,NA,qt,NA,3,NA,NA,NA,NA,NA,NA,NA,NA,NA,NA,NA,NA,NA,NA,NA,NA,NA,NA,NA
5c441,shallow,flow.Sequence,3_0_3_0_4_1,NA,NA,completion,8711,454319.5,454317.6,454334.8,463045.8,463053.69999993,2024-06-03T15:01:40Z,463062.2,NULL,Begegnung,kukutana,s,mmasihiya,mpiganaji,husiano,NA,qt,NA,3,NA,NA,NA,NA,NA,NA,NA,NA,NA,NA,NA,NA,NA,NA,NA,NA,NA,NA,NA
5c441,task,flow.Sequence,3_0_3_0_4,NA,NA,completion,8711,454319.19999993,454317.6,454334.8,463045.8,463054,2024-06-03T15:01:40Z,463062.2,NULL,Begegnung,kukutana,s,mmasihiya,mpiganaji,husiano,NA,qt,NA,3,NA,NA,NA,NA,NA,NA,NA,NA,NA,NA,NA,NA,NA,NA,NA,NA,NA,NA,NA
5c441,Deep Question,html.Page,3_0_3_0_5_0_0,NA,NA,form submission,6329.4999999285,463054.10000002,463045.8,463062.2,469391.69999993,469391.89999998,2024-06-03T15:01:47Z,469408.8,NULL,Prüfung,mtihani,d,NA,NA,NA,mtihani,NA,NA,3,NA,NA,NA,NA,NA,NA,NA,NA,NA,NA,NA,NA,NA,NA,NA,NA,NA,NA,NA
5c441,"""Richtig""-Screen",canvas.Screen,3_0_3_0_5_0_1,NA,NA,timeout,4996.9,469393.29999995,469392.32,469408.8,474388.6,474389.69999993,2024-06-03T15:01:52Z,474405.7,NULL,Prüfung,mtihani,d,NA,NA,NA,NA,qt,1,3,NA,NA,NA,NA,NA,NA,NA,NA,NA,NA,NA,NA,NA,NA,NA,NA,NA,NA,NA
5c441,"""Falsch""-Screen",canvas.Screen,3_0_3_0_5_0_2,NA,NA,skipped,NA,474394.29999995,NA,NA,474388.6,474394.39999998,2024-06-03T15:01:52Z,474405.7,NULL,Prüfung,mtihani,d,NA,NA,NA,NA,qt,NA,3,NA,NA,NA,NA,NA,NA,NA,NA,NA,NA,NA,NA,NA,NA,NA,NA,NA,NA,NA
5c441,deep,flow.Sequence,3_0_3_0_5_0,NA,NA,completion,11326.4,463054.10000002,463045.8,463062.2,474388.6,474394.5,2024-06-03T15:01:52Z,474405.7,NULL,Prüfung,mtihani,d,NA,NA,NA,NA,qt,NA,3,NA,NA,NA,NA,NA,NA,NA,NA,NA,NA,NA,NA,NA,NA,NA,NA,NA,NA,NA
5c441,shallow,flow.Sequence,3_0_3_0_5_1,NA,NA,skipped,NA,474394.60000002,NA,NA,474388.6,474394.60000002,2024-06-03T15:01:52Z,474405.7,NULL,Prüfung,mtihani,d,NA,NA,NA,NA,qt,NA,3,NA,NA,NA,NA,NA,NA,NA,NA,NA,NA,NA,NA,NA,NA,NA,NA,NA,NA,NA
5c441,task,flow.Sequence,3_0_3_0_5,NA,NA,completion,11326.4,463054.10000002,463045.8,463062.2,474388.6,474394.60000002,2024-06-03T15:01:52Z,474405.7,NULL,Prüfung,mtihani,d,NA,NA,NA,NA,qt,NA,3,NA,NA,NA,NA,NA,NA,NA,NA,NA,NA,NA,NA,NA,NA,NA,NA,NA,NA,NA
5c441,deep,flow.Sequence,3_0_3_0_6_0,NA,NA,skipped,NA,474394.60000002,NA,NA,474388.6,474394.60000002,2024-06-03T15:01:52Z,474405.7,NULL,Verzögerung,kuchelewa,s,mwakilishi,mwanauchumi,jaribio,NA,qt,NA,3,NA,NA,NA,NA,NA,NA,NA,NA,NA,NA,NA,NA,NA,NA,NA,NA,NA,NA,NA
5c441,Shallow Question,html.Page,3_0_3_0_6_1_0,NA,NA,form submission,4865.9000000238,474394.69999993,474388.6,474405.7,479271.60000002,479271.69999993,2024-06-03T15:01:56Z,479286.1,NULL,Verzögerung,kuchelewa,s,mwakilishi,mwanauchumi,jaribio,kuchelewa,NA,NA,3,NA,NA,NA,NA,NA,NA,NA,NA,NA,NA,NA,NA,NA,NA,NA,NA,NA,NA,NA
5c441,"""Richtig""-Screen",canvas.Screen,3_0_3_0_6_1_1,NA,NA,timeout,4996.5,479274.69999993,479269.556,479286.1,484266.2,484267,2024-06-03T15:02:01Z,484282.6,NULL,Verzögerung,kuchelewa,s,mwakilishi,mwanauchumi,jaribio,NA,qt,1,3,NA,NA,NA,NA,NA,NA,NA,NA,NA,NA,NA,NA,NA,NA,NA,NA,NA,NA,NA
5c441,"""Falsch""-Screen",canvas.Screen,3_0_3_0_6_1_2,NA,NA,skipped,NA,484272.29999995,NA,NA,484266.2,484272.5,2024-06-03T15:02:01Z,484282.6,NULL,Verzögerung,kuchelewa,s,mwakilishi,mwanauchumi,jaribio,NA,qt,NA,3,NA,NA,NA,NA,NA,NA,NA,NA,NA,NA,NA,NA,NA,NA,NA,NA,NA,NA,NA
5c441,shallow,flow.Sequence,3_0_3_0_6_1,NA,NA,completion,9860.5,474394.69999993,474388.6,474405.7,484266.2,484272.5,2024-06-03T15:02:01Z,484282.6,NULL,Verzögerung,kuchelewa,s,mwakilishi,mwanauchumi,jaribio,NA,qt,NA,3,NA,NA,NA,NA,NA,NA,NA,NA,NA,NA,NA,NA,NA,NA,NA,NA,NA,NA,NA
5c441,task,flow.Sequence,3_0_3_0_6,NA,NA,completion,9860.5,474394.60000002,474388.6,474405.7,484266.2,484272.60000002,2024-06-03T15:02:01Z,484282.6,NULL,Verzögerung,kuchelewa,s,mwakilishi,mwanauchumi,jaribio,NA,qt,NA,3,NA,NA,NA,NA,NA,NA,NA,NA,NA,NA,NA,NA,NA,NA,NA,NA,NA,NA,NA
5c441,deep,flow.Sequence,3_0_3_0_7_0,NA,NA,skipped,NA,484272.60000002,NA,NA,484266.2,484272.69999993,2024-06-03T15:02:01Z,484282.6,NULL,Kultur,utamaduni,s,shetani,gerezani,mazingira,NA,qt,NA,3,NA,NA,NA,NA,NA,NA,NA,NA,NA,NA,NA,NA,NA,NA,NA,NA,NA,NA,NA
5c441,Shallow Question,html.Page,3_0_3_0_7_1_0,NA,NA,form submission,7739.0999999285,484272.69999993,484266.2,484282.6,492021.69999993,492021.89999998,2024-06-03T15:02:09Z,492045.1,NULL,Kultur,utamaduni,s,shetani,gerezani,mazingira,shetani,NA,NA,3,NA,NA,NA,NA,NA,NA,NA,NA,NA,NA,NA,NA,NA,NA,NA,NA,NA,NA,NA
5c441,"""Richtig""-Screen",canvas.Screen,3_0_3_0_7_1_1,NA,NA,skipped,NA,492024.79999995,NA,NA,492021.69999993,492024.89999998,2024-06-03T15:02:09Z,492045.1,NULL,Kultur,utamaduni,s,shetani,gerezani,mazingira,NA,qt,NA,3,NA,NA,NA,NA,NA,NA,NA,NA,NA,NA,NA,NA,NA,NA,NA,NA,NA,NA,NA
5c441,"""Falsch""-Screen",canvas.Screen,3_0_3_0_7_1_2,NA,NA,timeout,4996.6,492025.19999993,492028.1,492045.1,497025.3,497026.19999993,2024-06-03T15:02:14Z,497041.7,NULL,Kultur,utamaduni,s,shetani,gerezani,mazingira,NA,qt,0,3,NA,NA,NA,NA,NA,NA,NA,NA,NA,NA,NA,NA,NA,NA,NA,NA,NA,NA,NA
5c441,shallow,flow.Sequence,3_0_3_0_7_1,NA,NA,completion,12742.7,484272.69999993,484266.2,484282.6,497025.3,497026.5,2024-06-03T15:02:14Z,497041.7,NULL,Kultur,utamaduni,s,shetani,gerezani,mazingira,NA,qt,NA,3,NA,NA,NA,NA,NA,NA,NA,NA,NA,NA,NA,NA,NA,NA,NA,NA,NA,NA,NA
5c441,task,flow.Sequence,3_0_3_0_7,NA,NA,completion,12742.7,484272.60000002,484266.2,484282.6,497025.3,497026.79999995,2024-06-03T15:02:14Z,497041.7,NULL,Kultur,utamaduni,s,shetani,gerezani,mazingira,NA,qt,NA,3,NA,NA,NA,NA,NA,NA,NA,NA,NA,NA,NA,NA,NA,NA,NA,NA,NA,NA,NA
5c441,block,flow.Loop,3_0_3_0,NA,NA,completion,91460.75,405572.5,405564.55,405564.55,497025.3,497027,2024-06-03T15:02:14Z,497041.7,NULL,NA,NA,NA,NA,NA,NA,NA,qt,NA,3,NA,NA,NA,NA,NA,NA,NA,NA,NA,NA,NA,NA,NA,NA,NA,NA,NA,NA,NA
5c441,weiter,canvas.Screen,3_0_3_1,sdf,keypress(Space),response,1255.9000000238,497027.19999993,497025.3,497041.7,498297.60000002,498298.69999993,2024-06-03T15:02:16Z,498308.316,NULL,NA,NA,NA,NA,NA,NA,NA,qt,NA,3,NA,NA,NA,NA,NA,NA,NA,NA,NA,NA,NA,NA,NA,NA,NA,NA,NA,NA,NA
5c441,check continue,flow.Sequence,3_0_3,NA,NA,completion,92733.050000024,405572.5,405564.55,405564.55,498297.60000002,498299.10000002,2024-06-03T15:02:16Z,498308.316,NULL,NA,NA,NA,NA,NA,NA,NA,qt,NA,3,NA,NA,NA,NA,NA,NA,NA,NA,NA,NA,NA,NA,NA,NA,NA,NA,NA,NA,NA
5c441,deep,flow.Sequence,3_0_4_0_0_0,NA,NA,skipped,NA,498317.89999998,NA,NA,498297.60000002,498318,2024-06-03T15:02:16Z,498308.316,NULL,Kultur,utamaduni,s,shetani,gerezani,mazingira,NA,sd,NA,4,NA,NA,NA,NA,NA,NA,NA,NA,NA,NA,NA,NA,NA,NA,NA,NA,NA,NA,NA
5c441,Shallow Question,html.Page,3_0_4_0_0_1_0,NA,NA,form submission,6203.184,498318,498308.316,498308.316,504511.5,504511.69999993,2024-06-03T15:02:22Z,504520.4,NULL,Kultur,utamaduni,s,shetani,gerezani,mazingira,utamaduni,NA,NA,4,NA,NA,NA,NA,NA,NA,NA,NA,NA,NA,NA,NA,NA,NA,NA,NA,NA,NA,NA
5c441,"""Richtig""-Screen",canvas.Screen,3_0_4_0_0_1_1,NA,NA,timeout,4997.1,504514.79999995,504503.924,504520.4,509500.6,509501.29999995,2024-06-03T15:02:27Z,509517.5,NULL,Kultur,utamaduni,s,shetani,gerezani,mazingira,NA,sd,1,4,NA,NA,NA,NA,NA,NA,NA,NA,NA,NA,NA,NA,NA,NA,NA,NA,NA,NA,NA
5c441,"""Falsch""-Screen",canvas.Screen,3_0_4_0_0_1_2,NA,NA,skipped,NA,509506.29999995,NA,NA,509500.6,509506.39999998,2024-06-03T15:02:27Z,509517.5,NULL,Kultur,utamaduni,s,shetani,gerezani,mazingira,NA,sd,NA,4,NA,NA,NA,NA,NA,NA,NA,NA,NA,NA,NA,NA,NA,NA,NA,NA,NA,NA,NA
5c441,shallow,flow.Sequence,3_0_4_0_0_1,NA,NA,completion,11192.284,498318,498308.316,498308.316,509500.6,509506.5,2024-06-03T15:02:27Z,509517.5,NULL,Kultur,utamaduni,s,shetani,gerezani,mazingira,NA,sd,NA,4,NA,NA,NA,NA,NA,NA,NA,NA,NA,NA,NA,NA,NA,NA,NA,NA,NA,NA,NA
5c441,task,flow.Sequence,3_0_4_0_0,NA,NA,completion,11192.284,498317.89999998,498308.316,498308.316,509500.6,509506.60000002,2024-06-03T15:02:27Z,509517.5,NULL,Kultur,utamaduni,s,shetani,gerezani,mazingira,NA,sd,NA,4,NA,NA,NA,NA,NA,NA,NA,NA,NA,NA,NA,NA,NA,NA,NA,NA,NA,NA,NA
5c441,Deep Question,html.Page,3_0_4_0_1_0_0,NA,NA,form submission,6718.5,509506.60000002,509500.6,509517.5,516236,516236.19999993,2024-06-03T15:02:33Z,516246.4,NULL,Prüfung,mtihani,d,NA,NA,NA,mtihani,NA,NA,4,NA,NA,NA,NA,NA,NA,NA,NA,NA,NA,NA,NA,NA,NA,NA,NA,NA,NA,NA
5c441,"""Richtig""-Screen",canvas.Screen,3_0_4_0_1_0_1,NA,NA,timeout,4997,516239.10000002,516230.28,516246.4,521226.9,521227.79999995,2024-06-03T15:02:38Z,521243.4,NULL,Prüfung,mtihani,d,NA,NA,NA,NA,sd,1,4,NA,NA,NA,NA,NA,NA,NA,NA,NA,NA,NA,NA,NA,NA,NA,NA,NA,NA,NA
5c441,"""Falsch""-Screen",canvas.Screen,3_0_4_0_1_0_2,NA,NA,skipped,NA,521233.19999993,NA,NA,521226.9,521233.29999995,2024-06-03T15:02:38Z,521243.4,NULL,Prüfung,mtihani,d,NA,NA,NA,NA,sd,NA,4,NA,NA,NA,NA,NA,NA,NA,NA,NA,NA,NA,NA,NA,NA,NA,NA,NA,NA,NA
5c441,deep,flow.Sequence,3_0_4_0_1_0,NA,NA,completion,11709.4,509506.60000002,509500.6,509517.5,521226.9,521233.39999998,2024-06-03T15:02:38Z,521243.4,NULL,Prüfung,mtihani,d,NA,NA,NA,NA,sd,NA,4,NA,NA,NA,NA,NA,NA,NA,NA,NA,NA,NA,NA,NA,NA,NA,NA,NA,NA,NA
5c441,shallow,flow.Sequence,3_0_4_0_1_1,NA,NA,skipped,NA,521233.39999998,NA,NA,521226.9,521233.5,2024-06-03T15:02:38Z,521243.4,NULL,Prüfung,mtihani,d,NA,NA,NA,NA,sd,NA,4,NA,NA,NA,NA,NA,NA,NA,NA,NA,NA,NA,NA,NA,NA,NA,NA,NA,NA,NA
5c441,task,flow.Sequence,3_0_4_0_1,NA,NA,completion,11709.4,509506.60000002,509500.6,509517.5,521226.9,521233.5,2024-06-03T15:02:38Z,521243.4,NULL,Prüfung,mtihani,d,NA,NA,NA,NA,sd,NA,4,NA,NA,NA,NA,NA,NA,NA,NA,NA,NA,NA,NA,NA,NA,NA,NA,NA,NA,NA
5c441,Deep Question,html.Page,3_0_4_0_2_0_0,NA,NA,form submission,3354.8999999523,521233.60000002,521226.9,521243.4,524598.29999995,524598.5,2024-06-03T15:02:42Z,524608.2,NULL,Fleisch,mshakiki,d,NA,NA,NA,g,NA,NA,4,NA,NA,NA,NA,NA,NA,NA,NA,NA,NA,NA,NA,NA,NA,NA,NA,NA,NA,NA
5c441,"""Richtig""-Screen",canvas.Screen,3_0_4_0_2_0_1,NA,NA,skipped,NA,524601.5,NA,NA,524598.29999995,524601.60000002,2024-06-03T15:02:42Z,524608.2,NULL,Fleisch,mshakiki,d,NA,NA,NA,NA,sd,NA,4,NA,NA,NA,NA,NA,NA,NA,NA,NA,NA,NA,NA,NA,NA,NA,NA,NA,NA,NA
5c441,"""Falsch""-Screen",canvas.Screen,3_0_4_0_2_0_2,NA,NA,timeout,4997,524602.39999998,524592.052,524608.2,529588.3,529589.19999993,2024-06-03T15:02:47Z,529605.2,NULL,Fleisch,mshakiki,d,NA,NA,NA,NA,sd,0,4,NA,NA,NA,NA,NA,NA,NA,NA,NA,NA,NA,NA,NA,NA,NA,NA,NA,NA,NA
5c441,deep,flow.Sequence,3_0_4_0_2_0,NA,NA,completion,8344.9,521233.60000002,521226.9,521243.4,529588.3,529589.60000002,2024-06-03T15:02:47Z,529605.2,NULL,Fleisch,mshakiki,d,NA,NA,NA,NA,sd,NA,4,NA,NA,NA,NA,NA,NA,NA,NA,NA,NA,NA,NA,NA,NA,NA,NA,NA,NA,NA
5c441,shallow,flow.Sequence,3_0_4_0_2_1,NA,NA,skipped,NA,529589.69999993,NA,NA,529588.3,529589.79999995,2024-06-03T15:02:47Z,529605.2,NULL,Fleisch,mshakiki,d,NA,NA,NA,NA,sd,NA,4,NA,NA,NA,NA,NA,NA,NA,NA,NA,NA,NA,NA,NA,NA,NA,NA,NA,NA,NA
5c441,task,flow.Sequence,3_0_4_0_2,NA,NA,completion,8344.9,521233.60000002,521226.9,521243.4,529588.3,529590.10000002,2024-06-03T15:02:47Z,529605.2,NULL,Fleisch,mshakiki,d,NA,NA,NA,NA,sd,NA,4,NA,NA,NA,NA,NA,NA,NA,NA,NA,NA,NA,NA,NA,NA,NA,NA,NA,NA,NA
5c441,Deep Question,html.Page,3_0_4_0_3_0_0,NA,NA,form submission,9906.8,529590.29999995,529588.3,529605.2,539512,539512.19999993,2024-06-03T15:02:57Z,539516.222,NULL,Integrität,uadilifu,d,NA,NA,NA,uadalifu,NA,NA,4,NA,NA,NA,NA,NA,NA,NA,NA,NA,NA,NA,NA,NA,NA,NA,NA,NA,NA,NA
5c441,"""Richtig""-Screen",canvas.Screen,3_0_4_0_3_0_1,NA,NA,skipped,NA,539515.29999995,NA,NA,539512,539515.60000002,2024-06-03T15:02:57Z,539516.222,NULL,Integrität,uadilifu,d,NA,NA,NA,NA,sd,NA,4,NA,NA,NA,NA,NA,NA,NA,NA,NA,NA,NA,NA,NA,NA,NA,NA,NA,NA,NA
5c441,"""Falsch""-Screen",canvas.Screen,3_0_4_0_3_0_2,NA,NA,timeout,4996.478,539516.10000002,539516.222,539516.222,544495.7,544496.69999993,2024-06-03T15:03:02Z,544512.7,NULL,Integrität,uadilifu,d,NA,NA,NA,NA,sd,0,4,NA,NA,NA,NA,NA,NA,NA,NA,NA,NA,NA,NA,NA,NA,NA,NA,NA,NA,NA
5c441,deep,flow.Sequence,3_0_4_0_3_0,NA,NA,completion,14890.5,529590.19999993,529588.3,529605.2,544495.7,544497,2024-06-03T15:03:02Z,544512.7,NULL,Integrität,uadilifu,d,NA,NA,NA,NA,sd,NA,4,NA,NA,NA,NA,NA,NA,NA,NA,NA,NA,NA,NA,NA,NA,NA,NA,NA,NA,NA
5c441,shallow,flow.Sequence,3_0_4_0_3_1,NA,NA,skipped,NA,544497.10000002,NA,NA,544495.7,544497.19999993,2024-06-03T15:03:02Z,544512.7,NULL,Integrität,uadilifu,d,NA,NA,NA,NA,sd,NA,4,NA,NA,NA,NA,NA,NA,NA,NA,NA,NA,NA,NA,NA,NA,NA,NA,NA,NA,NA
5c441,task,flow.Sequence,3_0_4_0_3,NA,NA,completion,14890.5,529590.19999993,529588.3,529605.2,544495.7,544497.39999998,2024-06-03T15:03:02Z,544512.7,NULL,Integrität,uadilifu,d,NA,NA,NA,NA,sd,NA,4,NA,NA,NA,NA,NA,NA,NA,NA,NA,NA,NA,NA,NA,NA,NA,NA,NA,NA,NA
5c441,Deep Question,html.Page,3_0_4_0_4_0_0,NA,NA,form submission,3709.4000000239,544497.60000002,544495.7,544512.7,548222.10000002,548222.39999998,2024-06-03T15:03:05Z,548226.9,NULL,Aufstand,ugomaji,d,NA,NA,NA,g,NA,NA,4,NA,NA,NA,NA,NA,NA,NA,NA,NA,NA,NA,NA,NA,NA,NA,NA,NA,NA,NA
5c441,"""Richtig""-Screen",canvas.Screen,3_0_4_0_4_0_1,NA,NA,skipped,NA,548225.60000002,NA,NA,548222.10000002,548225.69999993,2024-06-03T15:03:05Z,548226.9,NULL,Aufstand,ugomaji,d,NA,NA,NA,NA,sd,NA,4,NA,NA,NA,NA,NA,NA,NA,NA,NA,NA,NA,NA,NA,NA,NA,NA,NA,NA,NA
5c441,"""Falsch""-Screen",canvas.Screen,3_0_4_0_4_0_2,NA,NA,timeout,4997.2,548226.5,548210.888,548226.9,553207.4,553207.79999995,2024-06-03T15:03:10Z,553224.1,NULL,Aufstand,ugomaji,d,NA,NA,NA,NA,sd,0,4,NA,NA,NA,NA,NA,NA,NA,NA,NA,NA,NA,NA,NA,NA,NA,NA,NA,NA,NA
5c441,deep,flow.Sequence,3_0_4_0_4_0,NA,NA,completion,8694.7000000001,544497.60000002,544495.7,544512.7,553207.4,553207.89999998,2024-06-03T15:03:10Z,553224.1,NULL,Aufstand,ugomaji,d,NA,NA,NA,NA,sd,NA,4,NA,NA,NA,NA,NA,NA,NA,NA,NA,NA,NA,NA,NA,NA,NA,NA,NA,NA,NA
5c441,shallow,flow.Sequence,3_0_4_0_4_1,NA,NA,skipped,NA,553208,NA,NA,553207.4,553208.10000002,2024-06-03T15:03:10Z,553224.1,NULL,Aufstand,ugomaji,d,NA,NA,NA,NA,sd,NA,4,NA,NA,NA,NA,NA,NA,NA,NA,NA,NA,NA,NA,NA,NA,NA,NA,NA,NA,NA
5c441,task,flow.Sequence,3_0_4_0_4,NA,NA,completion,8694.7000000001,544497.60000002,544495.7,544512.7,553207.4,553208.19999993,2024-06-03T15:03:10Z,553224.1,NULL,Aufstand,ugomaji,d,NA,NA,NA,NA,sd,NA,4,NA,NA,NA,NA,NA,NA,NA,NA,NA,NA,NA,NA,NA,NA,NA,NA,NA,NA,NA
5c441,deep,flow.Sequence,3_0_4_0_5_0,NA,NA,skipped,NA,553208.29999995,NA,NA,553207.4,553208.29999995,2024-06-03T15:03:10Z,553224.1,NULL,Verzögerung,kuchelewa,s,mwakilishi,mwanauchumi,jaribio,NA,sd,NA,4,NA,NA,NA,NA,NA,NA,NA,NA,NA,NA,NA,NA,NA,NA,NA,NA,NA,NA,NA
5c441,Shallow Question,html.Page,3_0_4_0_5_1_0,NA,NA,form submission,7381.0999999285,553208.29999995,553207.4,553224.1,560605.19999993,560605.39999998,2024-06-03T15:03:18Z,560619.2,NULL,Verzögerung,kuchelewa,s,mwakilishi,mwanauchumi,jaribio,kuchelewa,NA,NA,4,NA,NA,NA,NA,NA,NA,NA,NA,NA,NA,NA,NA,NA,NA,NA,NA,NA,NA,NA
5c441,"""Richtig""-Screen",canvas.Screen,3_0_4_0_5_1_1,NA,NA,timeout,4997.3,560608.5,560603.37,560619.2,565599.9,565600.69999993,2024-06-03T15:03:23Z,565616.5,NULL,Verzögerung,kuchelewa,s,mwakilishi,mwanauchumi,jaribio,NA,sd,1,4,NA,NA,NA,NA,NA,NA,NA,NA,NA,NA,NA,NA,NA,NA,NA,NA,NA,NA,NA
5c441,"""Falsch""-Screen",canvas.Screen,3_0_4_0_5_1_2,NA,NA,skipped,NA,565605.5,NA,NA,565599.9,565605.69999993,2024-06-03T15:03:23Z,565616.5,NULL,Verzögerung,kuchelewa,s,mwakilishi,mwanauchumi,jaribio,NA,sd,NA,4,NA,NA,NA,NA,NA,NA,NA,NA,NA,NA,NA,NA,NA,NA,NA,NA,NA,NA,NA
5c441,shallow,flow.Sequence,3_0_4_0_5_1,NA,NA,completion,12375.8,553208.29999995,553207.4,553224.1,565599.9,565605.89999998,2024-06-03T15:03:23Z,565616.5,NULL,Verzögerung,kuchelewa,s,mwakilishi,mwanauchumi,jaribio,NA,sd,NA,4,NA,NA,NA,NA,NA,NA,NA,NA,NA,NA,NA,NA,NA,NA,NA,NA,NA,NA,NA
5c441,task,flow.Sequence,3_0_4_0_5,NA,NA,completion,12375.8,553208.29999995,553207.4,553224.1,565599.9,565606.10000002,2024-06-03T15:03:23Z,565616.5,NULL,Verzögerung,kuchelewa,s,mwakilishi,mwanauchumi,jaribio,NA,sd,NA,4,NA,NA,NA,NA,NA,NA,NA,NA,NA,NA,NA,NA,NA,NA,NA,NA,NA,NA,NA
5c441,deep,flow.Sequence,3_0_4_0_6_0,NA,NA,skipped,NA,565606.29999995,NA,NA,565599.9,565606.29999995,2024-06-03T15:03:23Z,565616.5,NULL,Genehmigung,idhini,s,mwanamke,itikadi,fedheha,NA,sd,NA,4,NA,NA,NA,NA,NA,NA,NA,NA,NA,NA,NA,NA,NA,NA,NA,NA,NA,NA,NA
5c441,Shallow Question,html.Page,3_0_4_0_6_1_0,NA,NA,form submission,5362.7999999523,565606.29999995,565599.9,565616.5,570979.29999995,570979.5,2024-06-03T15:03:28Z,570998,NULL,Genehmigung,idhini,s,mwanamke,itikadi,fedheha,idhini,NA,NA,4,NA,NA,NA,NA,NA,NA,NA,NA,NA,NA,NA,NA,NA,NA,NA,NA,NA,NA,NA
5c441,"""Richtig""-Screen",canvas.Screen,3_0_4_0_6_1_1,NA,NA,timeout,4995.6,570982.60000002,570980.182,570998,575976.5,575977.39999998,2024-06-03T15:03:33Z,575993.6,NULL,Genehmigung,idhini,s,mwanamke,itikadi,fedheha,NA,sd,1,4,NA,NA,NA,NA,NA,NA,NA,NA,NA,NA,NA,NA,NA,NA,NA,NA,NA,NA,NA
5c441,"""Falsch""-Screen",canvas.Screen,3_0_4_0_6_1_2,NA,NA,skipped,NA,575982.19999993,NA,NA,575976.5,575982.39999998,2024-06-03T15:03:33Z,575993.6,NULL,Genehmigung,idhini,s,mwanamke,itikadi,fedheha,NA,sd,NA,4,NA,NA,NA,NA,NA,NA,NA,NA,NA,NA,NA,NA,NA,NA,NA,NA,NA,NA,NA
5c441,shallow,flow.Sequence,3_0_4_0_6_1,NA,NA,completion,10360,565606.29999995,565599.9,565616.5,575976.5,575982.5,2024-06-03T15:03:33Z,575993.6,NULL,Genehmigung,idhini,s,mwanamke,itikadi,fedheha,NA,sd,NA,4,NA,NA,NA,NA,NA,NA,NA,NA,NA,NA,NA,NA,NA,NA,NA,NA,NA,NA,NA
5c441,task,flow.Sequence,3_0_4_0_6,NA,NA,completion,10360,565606.19999993,565599.9,565616.5,575976.5,575982.5,2024-06-03T15:03:33Z,575993.6,NULL,Genehmigung,idhini,s,mwanamke,itikadi,fedheha,NA,sd,NA,4,NA,NA,NA,NA,NA,NA,NA,NA,NA,NA,NA,NA,NA,NA,NA,NA,NA,NA,NA
5c441,deep,flow.Sequence,3_0_4_0_7_0,NA,NA,skipped,NA,575982.5,NA,NA,575976.5,575982.60000002,2024-06-03T15:03:33Z,575993.6,NULL,Begegnung,kukutana,s,mmasihiya,mpiganaji,husiano,NA,sd,NA,4,NA,NA,NA,NA,NA,NA,NA,NA,NA,NA,NA,NA,NA,NA,NA,NA,NA,NA,NA
5c441,Shallow Question,html.Page,3_0_4_0_7_1_0,NA,NA,form submission,4449.1999999523,575982.69999993,575976.5,575993.6,580442.79999995,580443.10000002,2024-06-03T15:03:38Z,580457,NULL,Begegnung,kukutana,s,mmasihiya,mpiganaji,husiano,kukutana,NA,NA,4,NA,NA,NA,NA,NA,NA,NA,NA,NA,NA,NA,NA,NA,NA,NA,NA,NA,NA,NA
5c441,"""Richtig""-Screen",canvas.Screen,3_0_4_0_7_1_1,NA,NA,timeout,4997.2,580446.10000002,580443.26,580457,585437.6,585438.60000002,2024-06-03T15:03:43Z,585454.2,NULL,Begegnung,kukutana,s,mmasihiya,mpiganaji,husiano,NA,sd,1,4,NA,NA,NA,NA,NA,NA,NA,NA,NA,NA,NA,NA,NA,NA,NA,NA,NA,NA,NA
5c441,"""Falsch""-Screen",canvas.Screen,3_0_4_0_7_1_2,NA,NA,skipped,NA,585444.10000002,NA,NA,585437.6,585444.39999998,2024-06-03T15:03:43Z,585454.2,NULL,Begegnung,kukutana,s,mmasihiya,mpiganaji,husiano,NA,sd,NA,4,NA,NA,NA,NA,NA,NA,NA,NA,NA,NA,NA,NA,NA,NA,NA,NA,NA,NA,NA
5c441,shallow,flow.Sequence,3_0_4_0_7_1,NA,NA,completion,9444,575982.60000002,575976.5,575993.6,585437.6,585444.69999993,2024-06-03T15:03:43Z,585454.2,NULL,Begegnung,kukutana,s,mmasihiya,mpiganaji,husiano,NA,sd,NA,4,NA,NA,NA,NA,NA,NA,NA,NA,NA,NA,NA,NA,NA,NA,NA,NA,NA,NA,NA
5c441,task,flow.Sequence,3_0_4_0_7,NA,NA,completion,9444,575982.5,575976.5,575993.6,585437.6,585444.89999998,2024-06-03T15:03:43Z,585454.2,NULL,Begegnung,kukutana,s,mmasihiya,mpiganaji,husiano,NA,sd,NA,4,NA,NA,NA,NA,NA,NA,NA,NA,NA,NA,NA,NA,NA,NA,NA,NA,NA,NA,NA
5c441,block,flow.Loop,3_0_4_0,NA,NA,completion,87129.284,498317.89999998,498308.316,498308.316,585437.6,585445.10000002,2024-06-03T15:03:43Z,585454.2,NULL,NA,NA,NA,NA,NA,NA,NA,sd,NA,4,NA,NA,NA,NA,NA,NA,NA,NA,NA,NA,NA,NA,NA,NA,NA,NA,NA,NA,NA
5c441,weiter,canvas.Screen,3_0_4_1,sdf,keypress(Space),response,1315.8,585445.19999993,585437.6,585454.2,586770,586770.89999998,2024-06-03T15:03:44Z,587070.312,NULL,NA,NA,NA,NA,NA,NA,NA,sd,NA,4,NA,NA,NA,NA,NA,NA,NA,NA,NA,NA,NA,NA,NA,NA,NA,NA,NA,NA,NA
5c441,check continue,flow.Sequence,3_0_4,NA,NA,completion,88461.684,498317.89999998,498308.316,498308.316,586770,586771.19999993,2024-06-03T15:03:44Z,587070.312,NULL,NA,NA,NA,NA,NA,NA,NA,sd,NA,4,NA,NA,NA,NA,NA,NA,NA,NA,NA,NA,NA,NA,NA,NA,NA,NA,NA,NA,NA
5c441,check continue,flow.Sequence,3_0_5,NA,NA,skipped,NA,586788.5,NA,NA,586770,586788.5,2024-06-03T15:03:44Z,587070.312,NULL,NA,NA,NA,NA,NA,NA,NA,sdf,NA,5,NA,NA,NA,NA,NA,NA,NA,NA,NA,NA,NA,NA,NA,NA,NA,NA,NA,NA,NA
5c441,check continue,flow.Sequence,3_0_6,NA,NA,skipped,NA,586807.19999993,NA,NA,586770,586807.29999995,2024-06-03T15:03:44Z,587070.312,NULL,NA,NA,NA,NA,NA,NA,NA,dfs,NA,6,NA,NA,NA,NA,NA,NA,NA,NA,NA,NA,NA,NA,NA,NA,NA,NA,NA,NA,NA
5c441,check continue,flow.Sequence,3_0_7,NA,NA,skipped,NA,586821.69999993,NA,NA,586770,586821.69999993,2024-06-03T15:03:44Z,587070.312,NULL,NA,NA,NA,NA,NA,NA,NA,df,NA,7,NA,NA,NA,NA,NA,NA,NA,NA,NA,NA,NA,NA,NA,NA,NA,NA,NA,NA,NA
5c441,check continue,flow.Sequence,3_0_8,NA,NA,skipped,NA,586834.69999993,NA,NA,586770,586834.69999993,2024-06-03T15:03:44Z,587070.312,NULL,NA,NA,NA,NA,NA,NA,NA,dfs,NA,8,NA,NA,NA,NA,NA,NA,NA,NA,NA,NA,NA,NA,NA,NA,NA,NA,NA,NA,NA
5c441,check continue,flow.Sequence,3_0_9,NA,NA,skipped,NA,586847.5,NA,NA,586770,586847.69999993,2024-06-03T15:03:44Z,587070.312,NULL,NA,NA,NA,NA,NA,NA,NA,dsf,NA,9,NA,NA,NA,NA,NA,NA,NA,NA,NA,NA,NA,NA,NA,NA,NA,NA,NA,NA,NA
5c441,check continue,flow.Sequence,3_0_10,NA,NA,skipped,NA,586859.29999995,NA,NA,586770,586859.29999995,2024-06-03T15:03:44Z,587070.312,NULL,NA,NA,NA,NA,NA,NA,NA,df,NA,10,NA,NA,NA,NA,NA,NA,NA,NA,NA,NA,NA,NA,NA,NA,NA,NA,NA,NA,NA
5c441,check continue,flow.Sequence,3_0_11,NA,NA,skipped,NA,586871.39999998,NA,NA,586770,586871.5,2024-06-03T15:03:44Z,587070.312,NULL,NA,NA,NA,NA,NA,NA,NA,dfs,NA,11,NA,NA,NA,NA,NA,NA,NA,NA,NA,NA,NA,NA,NA,NA,NA,NA,NA,NA,NA
5c441,check continue,flow.Sequence,3_0_12,NA,NA,skipped,NA,586884.69999993,NA,NA,586770,586884.69999993,2024-06-03T15:03:44Z,587070.312,NULL,NA,NA,NA,NA,NA,NA,NA,dsf,NA,12,NA,NA,NA,NA,NA,NA,NA,NA,NA,NA,NA,NA,NA,NA,NA,NA,NA,NA,NA
5c441,check continue,flow.Sequence,3_0_13,NA,NA,skipped,NA,586896.29999995,NA,NA,586770,586896.5,2024-06-03T15:03:44Z,587070.312,NULL,NA,NA,NA,NA,NA,NA,NA,dsf,NA,13,NA,NA,NA,NA,NA,NA,NA,NA,NA,NA,NA,NA,NA,NA,NA,NA,NA,NA,NA
5c441,check continue,flow.Sequence,3_0_14,NA,NA,skipped,NA,586908.10000002,NA,NA,586770,586908.19999993,2024-06-03T15:03:44Z,587070.312,NULL,NA,NA,NA,NA,NA,NA,NA,NA,NA,14,NA,NA,NA,NA,NA,NA,NA,NA,NA,NA,NA,NA,NA,NA,NA,NA,NA,NA,NA
5c441,check continue,flow.Sequence,3_0_15,NA,NA,skipped,NA,586919.29999995,NA,NA,586770,586919.29999995,2024-06-03T15:03:44Z,587070.312,NULL,NA,NA,NA,NA,NA,NA,NA,NA,NA,15,NA,NA,NA,NA,NA,NA,NA,NA,NA,NA,NA,NA,NA,NA,NA,NA,NA,NA,NA
5c441,check continue,flow.Sequence,3_0_16,NA,NA,skipped,NA,586930.60000002,NA,NA,586770,586930.69999993,2024-06-03T15:03:44Z,587070.312,NULL,NA,NA,NA,NA,NA,NA,NA,NA,NA,16,NA,NA,NA,NA,NA,NA,NA,NA,NA,NA,NA,NA,NA,NA,NA,NA,NA,NA,NA
5c441,check continue,flow.Sequence,3_0_17,NA,NA,skipped,NA,586941.5,NA,NA,586770,586941.69999993,2024-06-03T15:03:44Z,587070.312,NULL,NA,NA,NA,NA,NA,NA,NA,NA,NA,17,NA,NA,NA,NA,NA,NA,NA,NA,NA,NA,NA,NA,NA,NA,NA,NA,NA,NA,NA
5c441,check continue,flow.Sequence,3_0_18,NA,NA,skipped,NA,586952.69999993,NA,NA,586770,586952.79999995,2024-06-03T15:03:44Z,587070.312,NULL,NA,NA,NA,NA,NA,NA,NA,NA,NA,18,NA,NA,NA,NA,NA,NA,NA,NA,NA,NA,NA,NA,NA,NA,NA,NA,NA,NA,NA
5c441,check continue,flow.Sequence,3_0_19,NA,NA,skipped,NA,586964.29999995,NA,NA,586770,586964.39999998,2024-06-03T15:03:44Z,587070.312,NULL,NA,NA,NA,NA,NA,NA,NA,NA,NA,19,NA,NA,NA,NA,NA,NA,NA,NA,NA,NA,NA,NA,NA,NA,NA,NA,NA,NA,NA
5c441,check continue,flow.Sequence,3_0_20,NA,NA,skipped,NA,586976,NA,NA,586770,586976.10000002,2024-06-03T15:03:44Z,587070.312,NULL,NA,NA,NA,NA,NA,NA,NA,NA,NA,20,NA,NA,NA,NA,NA,NA,NA,NA,NA,NA,NA,NA,NA,NA,NA,NA,NA,NA,NA
5c441,check continue,flow.Sequence,3_0_21,NA,NA,skipped,NA,586987.69999993,NA,NA,586770,586987.69999993,2024-06-03T15:03:44Z,587070.312,NULL,NA,NA,NA,NA,NA,NA,NA,NA,NA,21,NA,NA,NA,NA,NA,NA,NA,NA,NA,NA,NA,NA,NA,NA,NA,NA,NA,NA,NA
5c441,check continue,flow.Sequence,3_0_22,NA,NA,skipped,NA,586999.69999993,NA,NA,586770,586999.79999995,2024-06-03T15:03:44Z,587070.312,NULL,NA,NA,NA,NA,NA,NA,NA,NA,NA,22,NA,NA,NA,NA,NA,NA,NA,NA,NA,NA,NA,NA,NA,NA,NA,NA,NA,NA,NA
5c441,check continue,flow.Sequence,3_0_23,NA,NA,skipped,NA,587010,NA,NA,586770,587010.10000002,2024-06-03T15:03:44Z,587070.312,NULL,NA,NA,NA,NA,NA,NA,NA,NA,NA,23,NA,NA,NA,NA,NA,NA,NA,NA,NA,NA,NA,NA,NA,NA,NA,NA,NA,NA,NA
5c441,check continue,flow.Sequence,3_0_24,NA,NA,skipped,NA,587021.69999993,NA,NA,586770,587021.69999993,2024-06-03T15:03:44Z,587070.312,NULL,NA,NA,NA,NA,NA,NA,NA,NA,NA,24,NA,NA,NA,NA,NA,NA,NA,NA,NA,NA,NA,NA,NA,NA,NA,NA,NA,NA,NA
5c441,check continue,flow.Sequence,3_0_25,NA,NA,skipped,NA,587032.5,NA,NA,586770,587032.60000002,2024-06-03T15:03:44Z,587070.312,NULL,NA,NA,NA,NA,NA,NA,NA,NA,NA,25,NA,NA,NA,NA,NA,NA,NA,NA,NA,NA,NA,NA,NA,NA,NA,NA,NA,NA,NA
5c441,check continue,flow.Sequence,3_0_26,NA,NA,skipped,NA,587044,NA,NA,586770,587044.10000002,2024-06-03T15:03:44Z,587070.312,NULL,NA,NA,NA,NA,NA,NA,NA,NA,NA,26,NA,NA,NA,NA,NA,NA,NA,NA,NA,NA,NA,NA,NA,NA,NA,NA,NA,NA,NA
5c441,check continue,flow.Sequence,3_0_27,NA,NA,skipped,NA,587054.10000002,NA,NA,586770,587054.19999993,2024-06-03T15:03:44Z,587070.312,NULL,NA,NA,NA,NA,NA,NA,NA,NA,NA,27,NA,NA,NA,NA,NA,NA,NA,NA,NA,NA,NA,NA,NA,NA,NA,NA,NA,NA,NA
5c441,check continue,flow.Sequence,3_0_28,NA,NA,skipped,NA,587065.39999998,NA,NA,586770,587065.5,2024-06-03T15:03:44Z,587070.312,NULL,NA,NA,NA,NA,NA,NA,NA,NA,NA,28,NA,NA,NA,NA,NA,NA,NA,NA,NA,NA,NA,NA,NA,NA,NA,NA,NA,NA,NA
5c441,check continue,flow.Sequence,3_0_29,NA,NA,skipped,NA,587076.69999993,NA,NA,586770,587076.79999995,2024-06-03T15:03:44Z,587070.312,NULL,NA,NA,NA,NA,NA,NA,NA,NA,NA,29,NA,NA,NA,NA,NA,NA,NA,NA,NA,NA,NA,NA,NA,NA,NA,NA,NA,NA,NA
5c441,until continue,flow.Loop,3_0,NA,NA,completion,480006.6,106753.79999995,106762.16,106763.4,586770,587076.79999995,2024-06-03T15:03:44Z,587070.312,NULL,NA,NA,NA,NA,NA,NA,NA,NA,NA,NA,NA,NA,NA,NA,NA,NA,NA,NA,NA,NA,NA,NA,NA,NA,NA,NA,NA,NA,NA
5c441,block 1,flow.Sequence,3,NA,NA,completion,480006.6,106753.69999993,106762.16,106763.4,586770,587076.89999998,2024-06-03T15:03:44Z,587070.312,NULL,NA,NA,NA,NA,NA,NA,NA,NA,NA,NA,NA,NA,NA,NA,NA,NA,NA,NA,NA,NA,NA,NA,NA,NA,NA,NA,NA,NA,NA
5c441,1.Part Over,canvas.Screen,4,NA,keypress(Space),response,3760.188,587076.89999998,587070.312,587070.312,590830.5,590830.89999998,2024-06-03T15:03:48Z,590884.3,NULL,NA,NA,NA,NA,NA,NA,NA,NA,NA,NA,NA,NA,NA,NA,NA,NA,NA,NA,NA,NA,NA,NA,NA,NA,NA,NA,NA,NA,NA
5c441,deep,flow.Sequence,5_0_0_0_0_0,NA,NA,skipped,NA,590878,NA,NA,590830.5,590878.10000002,2024-06-03T15:03:48Z,590884.3,NULL,Flexibilität,kubadilika,s,enjini,usikilivu,hesabu,NA,sdf,NA,0,NA,NA,NA,NA,NA,NA,NA,NA,NA,NA,NA,NA,NA,NA,NA,NA,NA,NA,NA
5c441,Shallow Question,html.Page,5_0_0_0_0_1_0,NA,NA,form submission,5892.8999999284,590878.19999993,590868.476,590884.3,596777.19999993,596777.5,2024-06-03T15:03:54Z,596797.4,NULL,Flexibilität,kubadilika,s,enjini,usikilivu,hesabu,hesabu,NA,NA,0,NA,NA,NA,NA,NA,NA,NA,NA,NA,NA,NA,NA,NA,NA,NA,NA,NA,NA,NA
5c441,"""Richtig""-Screen",canvas.Screen,5_0_0_0_0_1_1,NA,NA,skipped,NA,596781.10000002,NA,NA,596777.19999993,596781.10000002,2024-06-03T15:03:54Z,596797.4,NULL,Flexibilität,kubadilika,s,enjini,usikilivu,hesabu,NA,sdf,NA,0,NA,NA,NA,NA,NA,NA,NA,NA,NA,NA,NA,NA,NA,NA,NA,NA,NA,NA,NA
5c441,"""Falsch""-Screen",canvas.Screen,5_0_0_0_0_1_2,NA,NA,timeout,4997.2999999999,596781.79999995,596781.182,596797.4,601777.4,601778.39999998,2024-06-03T15:03:59Z,601794.7,NULL,Flexibilität,kubadilika,s,enjini,usikilivu,hesabu,NA,sdf,0,0,NA,NA,NA,NA,NA,NA,NA,NA,NA,NA,NA,NA,NA,NA,NA,NA,NA,NA,NA
5c441,shallow,flow.Sequence,5_0_0_0_0_1,NA,NA,completion,10893.1,590878.19999993,590868.476,590884.3,601777.4,601778.79999995,2024-06-03T15:03:59Z,601794.7,NULL,Flexibilität,kubadilika,s,enjini,usikilivu,hesabu,NA,sdf,NA,0,NA,NA,NA,NA,NA,NA,NA,NA,NA,NA,NA,NA,NA,NA,NA,NA,NA,NA,NA
5c441,task,flow.Sequence,5_0_0_0_0,NA,NA,completion,10893.1,590878,590868.476,590884.3,601777.4,601779,2024-06-03T15:03:59Z,601794.7,NULL,Flexibilität,kubadilika,s,enjini,usikilivu,hesabu,NA,sdf,NA,0,NA,NA,NA,NA,NA,NA,NA,NA,NA,NA,NA,NA,NA,NA,NA,NA,NA,NA,NA
5c441,Deep Question,html.Page,5_0_0_0_1_0_0,NA,NA,form submission,18872.999999929,601779.19999993,601777.4,601794.7,620667.69999993,620668,2024-06-03T15:04:18Z,620682.5,NULL,Erneuerung,ukarabati,d,NA,NA,NA,s,NA,NA,0,NA,NA,NA,NA,NA,NA,NA,NA,NA,NA,NA,NA,NA,NA,NA,NA,NA,NA,NA
5c441,"""Richtig""-Screen",canvas.Screen,5_0_0_0_1_0_1,NA,NA,skipped,NA,620671.19999993,NA,NA,620667.69999993,620671.39999998,2024-06-03T15:04:18Z,620682.5,NULL,Erneuerung,ukarabati,d,NA,NA,NA,NA,sdf,NA,0,NA,NA,NA,NA,NA,NA,NA,NA,NA,NA,NA,NA,NA,NA,NA,NA,NA,NA,NA
5c441,"""Falsch""-Screen",canvas.Screen,5_0_0_0_1_0_2,NA,NA,timeout,4997.4,620672,620666.326,620682.5,625663.3,625664,2024-06-03T15:04:23Z,625679.9,NULL,Erneuerung,ukarabati,d,NA,NA,NA,NA,sdf,0,0,NA,NA,NA,NA,NA,NA,NA,NA,NA,NA,NA,NA,NA,NA,NA,NA,NA,NA,NA
5c441,deep,flow.Sequence,5_0_0_0_1_0,NA,NA,completion,23868.6,601779.19999993,601777.4,601794.7,625663.3,625664.5,2024-06-03T15:04:23Z,625679.9,NULL,Erneuerung,ukarabati,d,NA,NA,NA,NA,sdf,NA,0,NA,NA,NA,NA,NA,NA,NA,NA,NA,NA,NA,NA,NA,NA,NA,NA,NA,NA,NA
5c441,shallow,flow.Sequence,5_0_0_0_1_1,NA,NA,skipped,NA,625664.60000002,NA,NA,625663.3,625664.69999993,2024-06-03T15:04:23Z,625679.9,NULL,Erneuerung,ukarabati,d,NA,NA,NA,NA,sdf,NA,0,NA,NA,NA,NA,NA,NA,NA,NA,NA,NA,NA,NA,NA,NA,NA,NA,NA,NA,NA
5c441,task,flow.Sequence,5_0_0_0_1,NA,NA,completion,23868.6,601779.19999993,601777.4,601794.7,625663.3,625664.89999998,2024-06-03T15:04:23Z,625679.9,NULL,Erneuerung,ukarabati,d,NA,NA,NA,NA,sdf,NA,0,NA,NA,NA,NA,NA,NA,NA,NA,NA,NA,NA,NA,NA,NA,NA,NA,NA,NA,NA
5c441,Deep Question,html.Page,5_0_0_0_2_0_0,NA,NA,form submission,6785.9999999761,625665.10000002,625663.3,625679.9,632465.89999998,632466.10000002,2024-06-03T15:04:30Z,632475.2,NULL,Wechsel,ugeuzaji,d,NA,NA,NA,s,NA,NA,0,NA,NA,NA,NA,NA,NA,NA,NA,NA,NA,NA,NA,NA,NA,NA,NA,NA,NA,NA
5c441,"""Richtig""-Screen",canvas.Screen,5_0_0_0_2_0_1,NA,NA,skipped,NA,632469.29999995,NA,NA,632465.89999998,632469.5,2024-06-03T15:04:30Z,632475.2,NULL,Wechsel,ugeuzaji,d,NA,NA,NA,NA,sdf,NA,0,NA,NA,NA,NA,NA,NA,NA,NA,NA,NA,NA,NA,NA,NA,NA,NA,NA,NA,NA
5c441,"""Falsch""-Screen",canvas.Screen,5_0_0_0_2_0_2,NA,NA,timeout,4997.1000000001,632470.5,632459.314,632475.2,637455.7,637456.79999995,2024-06-03T15:04:35Z,637472.3,NULL,Wechsel,ugeuzaji,d,NA,NA,NA,NA,sdf,0,0,NA,NA,NA,NA,NA,NA,NA,NA,NA,NA,NA,NA,NA,NA,NA,NA,NA,NA,NA
5c441,deep,flow.Sequence,5_0_0_0_2_0,NA,NA,completion,11775.8,625665,625663.3,625679.9,637455.7,637457.29999995,2024-06-03T15:04:35Z,637472.3,NULL,Wechsel,ugeuzaji,d,NA,NA,NA,NA,sdf,NA,0,NA,NA,NA,NA,NA,NA,NA,NA,NA,NA,NA,NA,NA,NA,NA,NA,NA,NA,NA
5c441,shallow,flow.Sequence,5_0_0_0_2_1,NA,NA,skipped,NA,637457.5,NA,NA,637455.7,637457.69999993,2024-06-03T15:04:35Z,637472.3,NULL,Wechsel,ugeuzaji,d,NA,NA,NA,NA,sdf,NA,0,NA,NA,NA,NA,NA,NA,NA,NA,NA,NA,NA,NA,NA,NA,NA,NA,NA,NA,NA
5c441,task,flow.Sequence,5_0_0_0_2,NA,NA,completion,11775.8,625665,625663.3,625679.9,637455.7,637457.89999998,2024-06-03T15:04:35Z,637472.3,NULL,Wechsel,ugeuzaji,d,NA,NA,NA,NA,sdf,NA,0,NA,NA,NA,NA,NA,NA,NA,NA,NA,NA,NA,NA,NA,NA,NA,NA,NA,NA,NA
5c441,Deep Question,html.Page,5_0_0_0_3_0_0,NA,NA,form submission,2983.3000000238,637458.10000002,637455.7,637472.3,640455.60000002,640455.69999993,2024-06-03T15:04:38Z,640470.9,NULL,Sänger,mwimbaji,d,NA,NA,NA,g,NA,NA,0,NA,NA,NA,NA,NA,NA,NA,NA,NA,NA,NA,NA,NA,NA,NA,NA,NA,NA,NA
5c441,"""Richtig""-Screen",canvas.Screen,5_0_0_0_3_0_1,NA,NA,skipped,NA,640459,NA,NA,640455.60000002,640459.19999993,2024-06-03T15:04:38Z,640470.9,NULL,Sänger,mwimbaji,d,NA,NA,NA,NA,sdf,NA,0,NA,NA,NA,NA,NA,NA,NA,NA,NA,NA,NA,NA,NA,NA,NA,NA,NA,NA,NA
5c441,"""Falsch""-Screen",canvas.Screen,5_0_0_0_3_0_2,NA,NA,timeout,4996.7,640460.19999993,640453.798,640470.9,645451.1,645452.10000002,2024-06-03T15:04:43Z,645467.6,NULL,Sänger,mwimbaji,d,NA,NA,NA,NA,sdf,0,0,NA,NA,NA,NA,NA,NA,NA,NA,NA,NA,NA,NA,NA,NA,NA,NA,NA,NA,NA
5c441,deep,flow.Sequence,5_0_0_0_3_0,NA,NA,completion,7978.7999999999,637458,637455.7,637472.3,645451.1,645452.69999993,2024-06-03T15:04:43Z,645467.6,NULL,Sänger,mwimbaji,d,NA,NA,NA,NA,sdf,NA,0,NA,NA,NA,NA,NA,NA,NA,NA,NA,NA,NA,NA,NA,NA,NA,NA,NA,NA,NA
5c441,shallow,flow.Sequence,5_0_0_0_3_1,NA,NA,skipped,NA,645452.89999998,NA,NA,645451.1,645453.10000002,2024-06-03T15:04:43Z,645467.6,NULL,Sänger,mwimbaji,d,NA,NA,NA,NA,sdf,NA,0,NA,NA,NA,NA,NA,NA,NA,NA,NA,NA,NA,NA,NA,NA,NA,NA,NA,NA,NA
5c441,task,flow.Sequence,5_0_0_0_3,NA,NA,completion,7978.7999999999,637458,637455.7,637472.3,645451.1,645453.29999995,2024-06-03T15:04:43Z,645467.6,NULL,Sänger,mwimbaji,d,NA,NA,NA,NA,sdf,NA,0,NA,NA,NA,NA,NA,NA,NA,NA,NA,NA,NA,NA,NA,NA,NA,NA,NA,NA,NA
5c441,deep,flow.Sequence,5_0_0_0_4_0,NA,NA,skipped,NA,645453.5,NA,NA,645451.1,645453.5,2024-06-03T15:04:43Z,645467.6,NULL,Kanzler,diwani,s,rasilmali,mahitaji,maabudu,NA,sdf,NA,0,NA,NA,NA,NA,NA,NA,NA,NA,NA,NA,NA,NA,NA,NA,NA,NA,NA,NA,NA
5c441,Shallow Question,html.Page,5_0_0_0_4_1_0,NA,NA,form submission,4083.6999999523,645453.69999993,645451.1,645467.6,649551.29999995,649551.5,2024-06-03T15:04:47Z,649565.2,NULL,Kanzler,diwani,s,rasilmali,mahitaji,maabudu,rasilmali,NA,NA,0,NA,NA,NA,NA,NA,NA,NA,NA,NA,NA,NA,NA,NA,NA,NA,NA,NA,NA,NA
5c441,"""Richtig""-Screen",canvas.Screen,5_0_0_0_4_1_1,NA,NA,skipped,NA,649554.69999993,NA,NA,649551.29999995,649554.89999998,2024-06-03T15:04:47Z,649565.2,NULL,Kanzler,diwani,s,rasilmali,mahitaji,maabudu,NA,sdf,NA,0,NA,NA,NA,NA,NA,NA,NA,NA,NA,NA,NA,NA,NA,NA,NA,NA,NA,NA,NA
5c441,"""Falsch""-Screen",canvas.Screen,5_0_0_0_4_1_2,NA,NA,timeout,4997.1000000001,649555.5,649549.11,649565.2,654545.6,654546.5,2024-06-03T15:04:52Z,654562.3,NULL,Kanzler,diwani,s,rasilmali,mahitaji,maabudu,NA,sdf,0,0,NA,NA,NA,NA,NA,NA,NA,NA,NA,NA,NA,NA,NA,NA,NA,NA,NA,NA,NA
5c441,shallow,flow.Sequence,5_0_0_0_4_1,NA,NA,completion,9078,645453.69999993,645451.1,645467.6,654545.6,654547,2024-06-03T15:04:52Z,654562.3,NULL,Kanzler,diwani,s,rasilmali,mahitaji,maabudu,NA,sdf,NA,0,NA,NA,NA,NA,NA,NA,NA,NA,NA,NA,NA,NA,NA,NA,NA,NA,NA,NA,NA
5c441,task,flow.Sequence,5_0_0_0_4,NA,NA,completion,9078,645453.39999998,645451.1,645467.6,654545.6,654547.19999993,2024-06-03T15:04:52Z,654562.3,NULL,Kanzler,diwani,s,rasilmali,mahitaji,maabudu,NA,sdf,NA,0,NA,NA,NA,NA,NA,NA,NA,NA,NA,NA,NA,NA,NA,NA,NA,NA,NA,NA,NA
5c441,deep,flow.Sequence,5_0_0_0_5_0,NA,NA,skipped,NA,654547.39999998,NA,NA,654545.6,654547.5,2024-06-03T15:04:52Z,654562.3,NULL,Atmosphäre,angahewa,s,kuteseka,usahihi,kutoamini,NA,sdf,NA,0,NA,NA,NA,NA,NA,NA,NA,NA,NA,NA,NA,NA,NA,NA,NA,NA,NA,NA,NA
5c441,Shallow Question,html.Page,5_0_0_0_5_1_0,NA,NA,form submission,2945.2,654547.69999993,654545.6,654562.3,657507.5,657507.79999995,2024-06-03T15:04:55Z,657510.776,NULL,Atmosphäre,angahewa,s,kuteseka,usahihi,kutoamini,angahewa,NA,NA,0,NA,NA,NA,NA,NA,NA,NA,NA,NA,NA,NA,NA,NA,NA,NA,NA,NA,NA,NA
5c441,"""Richtig""-Screen",canvas.Screen,5_0_0_0_5_1_1,NA,NA,timeout,4996.1240000001,657510.89999998,657510.776,657510.776,662490.3,662491.10000002,2024-06-03T15:05:00Z,662506.9,NULL,Atmosphäre,angahewa,s,kuteseka,usahihi,kutoamini,NA,sdf,1,0,NA,NA,NA,NA,NA,NA,NA,NA,NA,NA,NA,NA,NA,NA,NA,NA,NA,NA,NA
5c441,"""Falsch""-Screen",canvas.Screen,5_0_0_0_5_1_2,NA,NA,skipped,NA,662496.69999993,NA,NA,662490.3,662497,2024-06-03T15:05:00Z,662506.9,NULL,Atmosphäre,angahewa,s,kuteseka,usahihi,kutoamini,NA,sdf,NA,0,NA,NA,NA,NA,NA,NA,NA,NA,NA,NA,NA,NA,NA,NA,NA,NA,NA,NA,NA
5c441,shallow,flow.Sequence,5_0_0_0_5_1,NA,NA,completion,7928,654547.60000002,654545.6,654562.3,662490.3,662497.19999993,2024-06-03T15:05:00Z,662506.9,NULL,Atmosphäre,angahewa,s,kuteseka,usahihi,kutoamini,NA,sdf,NA,0,NA,NA,NA,NA,NA,NA,NA,NA,NA,NA,NA,NA,NA,NA,NA,NA,NA,NA,NA
5c441,task,flow.Sequence,5_0_0_0_5,NA,NA,completion,7928,654547.29999995,654545.6,654562.3,662490.3,662497.39999998,2024-06-03T15:05:00Z,662506.9,NULL,Atmosphäre,angahewa,s,kuteseka,usahihi,kutoamini,NA,sdf,NA,0,NA,NA,NA,NA,NA,NA,NA,NA,NA,NA,NA,NA,NA,NA,NA,NA,NA,NA,NA
5c441,deep,flow.Sequence,5_0_0_0_6_0,NA,NA,skipped,NA,662497.60000002,NA,NA,662490.3,662497.60000002,2024-06-03T15:05:00Z,662506.9,NULL,Abrechnung,uhasibu,s,kusahihisha,mpambano,mashambulizi,NA,sdf,NA,0,NA,NA,NA,NA,NA,NA,NA,NA,NA,NA,NA,NA,NA,NA,NA,NA,NA,NA,NA
5c441,Shallow Question,html.Page,5_0_0_0_6_1_0,NA,NA,form submission,7080.8999999523,662497.79999995,662490.3,662506.9,669587.79999995,669587.89999998,2024-06-03T15:05:07Z,669602.5,NULL,Abrechnung,uhasibu,s,kusahihisha,mpambano,mashambulizi,mpambano,NA,NA,0,NA,NA,NA,NA,NA,NA,NA,NA,NA,NA,NA,NA,NA,NA,NA,NA,NA,NA,NA
5c441,"""Richtig""-Screen",canvas.Screen,5_0_0_0_6_1_1,NA,NA,skipped,NA,669589.39999998,NA,NA,669587.79999995,669589.5,2024-06-03T15:05:07Z,669602.5,NULL,Abrechnung,uhasibu,s,kusahihisha,mpambano,mashambulizi,NA,sdf,NA,0,NA,NA,NA,NA,NA,NA,NA,NA,NA,NA,NA,NA,NA,NA,NA,NA,NA,NA,NA
5c441,"""Falsch""-Screen",canvas.Screen,5_0_0_0_6_1_2,NA,NA,timeout,4997.3,669589.89999998,669587.678,669602.5,674583,674584.19999993,2024-06-03T15:05:12Z,674599.8,NULL,Abrechnung,uhasibu,s,kusahihisha,mpambano,mashambulizi,NA,sdf,0,0,NA,NA,NA,NA,NA,NA,NA,NA,NA,NA,NA,NA,NA,NA,NA,NA,NA,NA,NA
5c441,shallow,flow.Sequence,5_0_0_0_6_1,NA,NA,completion,12076.1,662497.69999993,662490.3,662506.9,674583,674584.60000002,2024-06-03T15:05:12Z,674599.8,NULL,Abrechnung,uhasibu,s,kusahihisha,mpambano,mashambulizi,NA,sdf,NA,0,NA,NA,NA,NA,NA,NA,NA,NA,NA,NA,NA,NA,NA,NA,NA,NA,NA,NA,NA
5c441,task,flow.Sequence,5_0_0_0_6,NA,NA,completion,12076.1,662497.60000002,662490.3,662506.9,674583,674584.79999995,2024-06-03T15:05:12Z,674599.8,NULL,Abrechnung,uhasibu,s,kusahihisha,mpambano,mashambulizi,NA,sdf,NA,0,NA,NA,NA,NA,NA,NA,NA,NA,NA,NA,NA,NA,NA,NA,NA,NA,NA,NA,NA
5c441,Deep Question,html.Page,5_0_0_0_7_0_0,NA,NA,form submission,3509.3000000238,674585,674583,674599.8,678109.10000002,678109.29999995,2024-06-03T15:05:15Z,678131.1,NULL,Angreifer,mshambulizi,d,NA,NA,NA,g,NA,NA,0,NA,NA,NA,NA,NA,NA,NA,NA,NA,NA,NA,NA,NA,NA,NA,NA,NA,NA,NA
5c441,"""Richtig""-Screen",canvas.Screen,5_0_0_0_7_0_1,NA,NA,skipped,NA,678110.79999995,NA,NA,678109.10000002,678110.79999995,2024-06-03T15:05:15Z,678131.1,NULL,Angreifer,mshambulizi,d,NA,NA,NA,NA,sdf,NA,0,NA,NA,NA,NA,NA,NA,NA,NA,NA,NA,NA,NA,NA,NA,NA,NA,NA,NA,NA
5c441,"""Falsch""-Screen",canvas.Screen,5_0_0_0_7_0_2,NA,NA,timeout,4996.9,678111.19999993,678114.532,678131.1,683111.3,683112,2024-06-03T15:05:20Z,683128,NULL,Angreifer,mshambulizi,d,NA,NA,NA,NA,sdf,0,0,NA,NA,NA,NA,NA,NA,NA,NA,NA,NA,NA,NA,NA,NA,NA,NA,NA,NA,NA
5c441,deep,flow.Sequence,5_0_0_0_7_0,NA,NA,completion,8511.5,674585,674583,674599.8,683111.3,683112.29999995,2024-06-03T15:05:20Z,683128,NULL,Angreifer,mshambulizi,d,NA,NA,NA,NA,sdf,NA,0,NA,NA,NA,NA,NA,NA,NA,NA,NA,NA,NA,NA,NA,NA,NA,NA,NA,NA,NA
5c441,shallow,flow.Sequence,5_0_0_0_7_1,NA,NA,skipped,NA,683112.39999998,NA,NA,683111.3,683112.39999998,2024-06-03T15:05:20Z,683128,NULL,Angreifer,mshambulizi,d,NA,NA,NA,NA,sdf,NA,0,NA,NA,NA,NA,NA,NA,NA,NA,NA,NA,NA,NA,NA,NA,NA,NA,NA,NA,NA
5c441,task,flow.Sequence,5_0_0_0_7,NA,NA,completion,8511.5,674584.89999998,674583,674599.8,683111.3,683112.60000002,2024-06-03T15:05:20Z,683128,NULL,Angreifer,mshambulizi,d,NA,NA,NA,NA,sdf,NA,0,NA,NA,NA,NA,NA,NA,NA,NA,NA,NA,NA,NA,NA,NA,NA,NA,NA,NA,NA
5c441,block,flow.Loop,5_0_0_0,NA,NA,completion,92227,590878,590868.476,590884.3,683111.3,683112.69999993,2024-06-03T15:05:20Z,683128,NULL,NA,NA,NA,NA,NA,NA,NA,sdf,NA,0,NA,NA,NA,NA,NA,NA,NA,NA,NA,NA,NA,NA,NA,NA,NA,NA,NA,NA,NA
