observation,sender,sender_type,sender_id,response,response_action,ended_on,duration,time_run,time_render,time_show,time_end,time_commit,timestamp,time_switch,distractors,german,swahili,enc,distractor1,distractor2,distractor3,response_2,x,correct,x_2,url_vp,url_sess,meta_labjs_version,meta_location,meta_user_agent,meta_platform,meta_language,meta_locale,meta_time_zone,meta_timezone_offset,meta_screen_width,meta_screen_height,meta_scroll_width,meta_scroll_height,meta_window_inner_width,meta_window_inner_height,meta_device_pixel_ratio,meta_labjs_build_flavor,meta_labjs_build_commit
50030,Introduction general,canvas.Screen,0,weiter,keypress(q),response,81141.899999619,361.89999961853,144.8,361.5,81503.399999619,81509.5,2024-04-13T09:29:38Z,81511.5,NULL,NA,NA,NA,NA,NA,NA,NA,NA,NA,NA,158,1,20.2.4,https://neurocog.fernuni.ch/studies/vweber/jbaenninger/encoding_immediate/index.html?vp=158&sess=1,"Mozilla/5.0 (Windows NT 10.0; Win64; x64) AppleWebKit/537.36 (KHTML, like Gecko) Chrome/123.0.0.0 Safari/537.36 Edg/123.0.0.0",Win32,de,de-CH,Europe/Zurich,-120,1920,1080,1872,910,1872,958,1,production,f5b4a49f956347addd546a832a3327688c2c0fef
50030,Introduction practice,canvas.Screen,1_0,NA,keypress(Space),response,14435.5,81510.100000381,81511.374,81511.5,95947,95948,2024-04-13T09:29:52Z,95961.6,NULL,NA,NA,NA,NA,NA,NA,NA,NA,NA,NA,NA,NA,NA,NA,NA,NA,NA,NA,NA,NA,NA,NA,NA,NA,NA,NA,NA,NA,NA
50030,deep,flow.Sequence,1_1_0_0,NA,NA,skipped,NA,95948.300000191,NA,NA,95947,95951.5,2024-04-13T09:29:52Z,95961.6,"c(""distractor1"", ""distractor2"", ""distractor3"")",Kritik,lawama,s,dereva,nafasi,mawazo,NA,NA,NA,NA,NA,NA,NA,NA,NA,NA,NA,NA,NA,NA,NA,NA,NA,NA,NA,NA,NA,NA,NA
50030,Shallow Question,html.Page,1_1_0_1_0,NA,NA,form submission,15466.000000381,95951.800000191,95944.328,95961.6,111427.60000038,111427.80000019,2024-04-13T09:30:08Z,111428.344,"c(""distractor1"", ""distractor2"", ""distractor3"")",Kritik,lawama,s,dereva,nafasi,mawazo,dereva,NA,NA,NA,NA,NA,NA,NA,NA,NA,NA,NA,NA,NA,NA,NA,NA,NA,NA,NA,NA,NA,NA
50030,"""Richtig""-Screen",canvas.Screen,1_1_0_1_1,NA,NA,skipped,NA,111429.10000038,NA,NA,111427.60000038,111429.30000019,2024-04-13T09:30:08Z,111428.344,"c(""distractor1"", ""distractor2"", ""distractor3"")",Kritik,lawama,s,dereva,nafasi,mawazo,NA,NA,NA,NA,NA,NA,NA,NA,NA,NA,NA,NA,NA,NA,NA,NA,NA,NA,NA,NA,NA,NA,NA
50030,"""Falsch""-Screen",canvas.Screen,1_1_0_1_2,NA,NA,timeout,4999.956,111430,111428.344,111428.344,116411.7,116415.5,2024-04-13T09:30:13Z,116428.3,"c(""distractor1"", ""distractor2"", ""distractor3"")",Kritik,lawama,s,dereva,nafasi,mawazo,NA,NA,0,NA,NA,NA,NA,NA,NA,NA,NA,NA,NA,NA,NA,NA,NA,NA,NA,NA,NA,NA,NA
50030,shallow,flow.Sequence,1_1_0_1,NA,NA,completion,20450.1,95951.800000191,95944.328,95961.6,116411.7,116415.89999962,2024-04-13T09:30:13Z,116428.3,"c(""distractor1"", ""distractor2"", ""distractor3"")",Kritik,lawama,s,dereva,nafasi,mawazo,NA,NA,NA,NA,NA,NA,NA,NA,NA,NA,NA,NA,NA,NA,NA,NA,NA,NA,NA,NA,NA,NA,NA
50030,task,flow.Sequence,1_1_0,NA,NA,completion,20450.1,95948.300000191,95944.328,95961.6,116411.7,116416.19999981,2024-04-13T09:30:13Z,116428.3,"c(""distractor1"", ""distractor2"", ""distractor3"")",Kritik,lawama,s,dereva,nafasi,mawazo,NA,NA,NA,NA,NA,NA,NA,NA,NA,NA,NA,NA,NA,NA,NA,NA,NA,NA,NA,NA,NA,NA,NA
50030,Deep Question,html.Page,1_1_1_0_0,NA,NA,form submission,23913.2,116416.39999962,116411.7,116428.3,140341.5,140341.80000019,2024-04-13T09:30:36Z,140345.022,"c(""distractor1"", ""distractor2"", ""distractor3"")",Qualität,mtindo,d,NA,NA,NA,asdf,NA,NA,NA,NA,NA,NA,NA,NA,NA,NA,NA,NA,NA,NA,NA,NA,NA,NA,NA,NA,NA,NA
50030,"""Richtig""-Screen",canvas.Screen,1_1_1_0_1,NA,NA,skipped,NA,140344,NA,NA,140341.5,140344.10000038,2024-04-13T09:30:36Z,140345.022,"c(""distractor1"", ""distractor2"", ""distractor3"")",Qualität,mtindo,d,NA,NA,NA,NA,NA,NA,NA,NA,NA,NA,NA,NA,NA,NA,NA,NA,NA,NA,NA,NA,NA,NA,NA,NA,NA,NA
50030,"""Falsch""-Screen",canvas.Screen,1_1_1_0_2,NA,NA,timeout,4999.878,140344.89999962,140345.022,140345.022,145328.3,145329,2024-04-13T09:30:41Z,145344.9,"c(""distractor1"", ""distractor2"", ""distractor3"")",Qualität,mtindo,d,NA,NA,NA,NA,NA,0,NA,NA,NA,NA,NA,NA,NA,NA,NA,NA,NA,NA,NA,NA,NA,NA,NA,NA,NA,NA
50030,deep,flow.Sequence,1_1_1_0,NA,NA,completion,28900,116416.39999962,116411.7,116428.3,145328.3,145329.30000019,2024-04-13T09:30:41Z,145344.9,"c(""distractor1"", ""distractor2"", ""distractor3"")",Qualität,mtindo,d,NA,NA,NA,NA,NA,NA,NA,NA,NA,NA,NA,NA,NA,NA,NA,NA,NA,NA,NA,NA,NA,NA,NA,NA,NA,NA
50030,shallow,flow.Sequence,1_1_1_1,NA,NA,skipped,NA,145329.5,NA,NA,145328.3,145329.60000038,2024-04-13T09:30:41Z,145344.9,"c(""distractor1"", ""distractor2"", ""distractor3"")",Qualität,mtindo,d,NA,NA,NA,NA,NA,NA,NA,NA,NA,NA,NA,NA,NA,NA,NA,NA,NA,NA,NA,NA,NA,NA,NA,NA,NA,NA
50030,task,flow.Sequence,1_1_1,NA,NA,completion,28900,116416.30000019,116411.7,116428.3,145328.3,145329.69999981,2024-04-13T09:30:41Z,145344.9,"c(""distractor1"", ""distractor2"", ""distractor3"")",Qualität,mtindo,d,NA,NA,NA,NA,NA,NA,NA,NA,NA,NA,NA,NA,NA,NA,NA,NA,NA,NA,NA,NA,NA,NA,NA,NA,NA,NA
50030,deep,flow.Sequence,1_1_2_0,NA,NA,skipped,NA,145329.89999962,NA,NA,145328.3,145329.89999962,2024-04-13T09:30:41Z,145344.9,"c(""distractor1"", ""distractor2"", ""distractor3"")",Rückhalt,msaada,s,muhula,auwali,kiwimbe,NA,NA,NA,NA,NA,NA,NA,NA,NA,NA,NA,NA,NA,NA,NA,NA,NA,NA,NA,NA,NA,NA,NA
50030,Shallow Question,html.Page,1_1_2_1_0,NA,NA,form submission,8604.4000001907,145330,145328.3,145344.9,153949.30000019,153949.5,2024-04-13T09:30:50Z,153961.6,"c(""distractor1"", ""distractor2"", ""distractor3"")",Rückhalt,msaada,s,muhula,auwali,kiwimbe,kiwimbe,NA,NA,NA,NA,NA,NA,NA,NA,NA,NA,NA,NA,NA,NA,NA,NA,NA,NA,NA,NA,NA,NA
50030,"""Richtig""-Screen",canvas.Screen,1_1_2_1_1,NA,NA,skipped,NA,153951.30000019,NA,NA,153949.30000019,153951.39999962,2024-04-13T09:30:50Z,153961.6,"c(""distractor1"", ""distractor2"", ""distractor3"")",Rückhalt,msaada,s,muhula,auwali,kiwimbe,NA,NA,NA,NA,NA,NA,NA,NA,NA,NA,NA,NA,NA,NA,NA,NA,NA,NA,NA,NA,NA,NA,NA
50030,"""Falsch""-Screen",canvas.Screen,1_1_2_1_2,NA,NA,timeout,5000,153952.19999981,153944.99,153961.6,158944.9,158945.80000019,2024-04-13T09:30:55Z,158961.6,"c(""distractor1"", ""distractor2"", ""distractor3"")",Rückhalt,msaada,s,muhula,auwali,kiwimbe,NA,NA,0,NA,NA,NA,NA,NA,NA,NA,NA,NA,NA,NA,NA,NA,NA,NA,NA,NA,NA,NA,NA
50030,shallow,flow.Sequence,1_1_2_1,NA,NA,completion,13600,145330,145328.3,145344.9,158944.9,158946.10000038,2024-04-13T09:30:55Z,158961.6,"c(""distractor1"", ""distractor2"", ""distractor3"")",Rückhalt,msaada,s,muhula,auwali,kiwimbe,NA,NA,NA,NA,NA,NA,NA,NA,NA,NA,NA,NA,NA,NA,NA,NA,NA,NA,NA,NA,NA,NA,NA
50030,task,flow.Sequence,1_1_2,NA,NA,completion,13600,145329.80000019,145328.3,145344.9,158944.9,158946.30000019,2024-04-13T09:30:55Z,158961.6,"c(""distractor1"", ""distractor2"", ""distractor3"")",Rückhalt,msaada,s,muhula,auwali,kiwimbe,NA,NA,NA,NA,NA,NA,NA,NA,NA,NA,NA,NA,NA,NA,NA,NA,NA,NA,NA,NA,NA,NA,NA
50030,deep,flow.Sequence,1_1_3_0,NA,NA,skipped,NA,158946.39999962,NA,NA,158944.9,158946.5,2024-04-13T09:30:55Z,158961.6,"c(""distractor1"", ""distractor2"", ""distractor3"")",Gegenwart,hadhara,s,katiba,jokofu,mikopo,NA,NA,NA,NA,NA,NA,NA,NA,NA,NA,NA,NA,NA,NA,NA,NA,NA,NA,NA,NA,NA,NA,NA
50030,Shallow Question,html.Page,1_1_3_1_0,NA,NA,form submission,6978.9,158946.69999981,158944.9,158961.6,165940.5,165940.69999981,2024-04-13T09:31:02Z,165944.7,"c(""distractor1"", ""distractor2"", ""distractor3"")",Gegenwart,hadhara,s,katiba,jokofu,mikopo,katiba,NA,NA,NA,NA,NA,NA,NA,NA,NA,NA,NA,NA,NA,NA,NA,NA,NA,NA,NA,NA,NA,NA
50030,"""Richtig""-Screen",canvas.Screen,1_1_3_1_1,NA,NA,skipped,NA,165942.30000019,NA,NA,165940.5,165942.5,2024-04-13T09:31:02Z,165944.7,"c(""distractor1"", ""distractor2"", ""distractor3"")",Gegenwart,hadhara,s,katiba,jokofu,mikopo,NA,NA,NA,NA,NA,NA,NA,NA,NA,NA,NA,NA,NA,NA,NA,NA,NA,NA,NA,NA,NA,NA,NA
50030,"""Falsch""-Screen",canvas.Screen,1_1_3_1_2,NA,NA,timeout,5000.2,165943.10000038,165928.324,165944.7,170928.2,170928.89999962,2024-04-13T09:31:07Z,170944.9,"c(""distractor1"", ""distractor2"", ""distractor3"")",Gegenwart,hadhara,s,katiba,jokofu,mikopo,NA,NA,0,NA,NA,NA,NA,NA,NA,NA,NA,NA,NA,NA,NA,NA,NA,NA,NA,NA,NA,NA,NA
50030,shallow,flow.Sequence,1_1_3_1,NA,NA,completion,11966.6,158946.60000038,158944.9,158961.6,170928.2,170929.19999981,2024-04-13T09:31:07Z,170944.9,"c(""distractor1"", ""distractor2"", ""distractor3"")",Gegenwart,hadhara,s,katiba,jokofu,mikopo,NA,NA,NA,NA,NA,NA,NA,NA,NA,NA,NA,NA,NA,NA,NA,NA,NA,NA,NA,NA,NA,NA,NA
50030,task,flow.Sequence,1_1_3,NA,NA,completion,11966.6,158946.30000019,158944.9,158961.6,170928.2,170929.30000019,2024-04-13T09:31:07Z,170944.9,"c(""distractor1"", ""distractor2"", ""distractor3"")",Gegenwart,hadhara,s,katiba,jokofu,mikopo,NA,NA,NA,NA,NA,NA,NA,NA,NA,NA,NA,NA,NA,NA,NA,NA,NA,NA,NA,NA,NA,NA,NA
50030,Deep Question,html.Page,1_1_4_0_0,NA,NA,form submission,6815.7000003815,170929.5,170928.2,170944.9,177760.60000038,177760.80000019,2024-04-13T09:31:14Z,177761.666,"c(""distractor1"", ""distractor2"", ""distractor3"")",Schatten,kivuli,d,NA,NA,NA,yxcv,NA,NA,NA,NA,NA,NA,NA,NA,NA,NA,NA,NA,NA,NA,NA,NA,NA,NA,NA,NA,NA,NA
50030,"""Richtig""-Screen",canvas.Screen,1_1_4_0_1,NA,NA,skipped,NA,177762.60000038,NA,NA,177760.60000038,177762.69999981,2024-04-13T09:31:14Z,177761.666,"c(""distractor1"", ""distractor2"", ""distractor3"")",Schatten,kivuli,d,NA,NA,NA,NA,NA,NA,NA,NA,NA,NA,NA,NA,NA,NA,NA,NA,NA,NA,NA,NA,NA,NA,NA,NA,NA,NA
50030,"""Falsch""-Screen",canvas.Screen,1_1_4_0_2,NA,NA,timeout,4999.934,177763.39999962,177761.666,177761.666,182744.8,182745.69999981,2024-04-13T09:31:19Z,182761.6,"c(""distractor1"", ""distractor2"", ""distractor3"")",Schatten,kivuli,d,NA,NA,NA,NA,NA,0,NA,NA,NA,NA,NA,NA,NA,NA,NA,NA,NA,NA,NA,NA,NA,NA,NA,NA,NA,NA
50030,deep,flow.Sequence,1_1_4_0,NA,NA,completion,11799.9,170929.5,170928.2,170944.9,182744.8,182746.10000038,2024-04-13T09:31:19Z,182761.6,"c(""distractor1"", ""distractor2"", ""distractor3"")",Schatten,kivuli,d,NA,NA,NA,NA,NA,NA,NA,NA,NA,NA,NA,NA,NA,NA,NA,NA,NA,NA,NA,NA,NA,NA,NA,NA,NA,NA
50030,shallow,flow.Sequence,1_1_4_1,NA,NA,skipped,NA,182746.19999981,NA,NA,182744.8,182746.19999981,2024-04-13T09:31:19Z,182761.6,"c(""distractor1"", ""distractor2"", ""distractor3"")",Schatten,kivuli,d,NA,NA,NA,NA,NA,NA,NA,NA,NA,NA,NA,NA,NA,NA,NA,NA,NA,NA,NA,NA,NA,NA,NA,NA,NA,NA
50030,task,flow.Sequence,1_1_4,NA,NA,completion,11799.9,170929.39999962,170928.2,170944.9,182744.8,182746.39999962,2024-04-13T09:31:19Z,182761.6,"c(""distractor1"", ""distractor2"", ""distractor3"")",Schatten,kivuli,d,NA,NA,NA,NA,NA,NA,NA,NA,NA,NA,NA,NA,NA,NA,NA,NA,NA,NA,NA,NA,NA,NA,NA,NA,NA,NA
50030,Deep Question,html.Page,1_1_5_0_0,NA,NA,form submission,6199.0000003815,182746.5,182744.8,182761.6,188960.60000038,188960.80000019,2024-04-13T09:31:25Z,188961.596,"c(""distractor1"", ""distractor2"", ""distractor3"")",Gesundheit,salama,d,NA,NA,NA,qwer,NA,NA,NA,NA,NA,NA,NA,NA,NA,NA,NA,NA,NA,NA,NA,NA,NA,NA,NA,NA,NA,NA
50030,"""Richtig""-Screen",canvas.Screen,1_1_5_0_1,NA,NA,skipped,NA,188962.60000038,NA,NA,188960.60000038,188962.69999981,2024-04-13T09:31:25Z,188961.596,"c(""distractor1"", ""distractor2"", ""distractor3"")",Gesundheit,salama,d,NA,NA,NA,NA,NA,NA,NA,NA,NA,NA,NA,NA,NA,NA,NA,NA,NA,NA,NA,NA,NA,NA,NA,NA,NA,NA
50030,"""Falsch""-Screen",canvas.Screen,1_1_5_0_2,NA,NA,timeout,4999.904,188963.19999981,188961.596,188961.596,193944.9,193945.5,2024-04-13T09:31:30Z,193961.5,"c(""distractor1"", ""distractor2"", ""distractor3"")",Gesundheit,salama,d,NA,NA,NA,NA,NA,0,NA,NA,NA,NA,NA,NA,NA,NA,NA,NA,NA,NA,NA,NA,NA,NA,NA,NA,NA,NA
50030,deep,flow.Sequence,1_1_5_0,NA,NA,completion,11183.3,182746.5,182744.8,182761.6,193944.9,193945.80000019,2024-04-13T09:31:30Z,193961.5,"c(""distractor1"", ""distractor2"", ""distractor3"")",Gesundheit,salama,d,NA,NA,NA,NA,NA,NA,NA,NA,NA,NA,NA,NA,NA,NA,NA,NA,NA,NA,NA,NA,NA,NA,NA,NA,NA,NA
50030,shallow,flow.Sequence,1_1_5_1,NA,NA,skipped,NA,193945.89999962,NA,NA,193944.9,193946,2024-04-13T09:31:30Z,193961.5,"c(""distractor1"", ""distractor2"", ""distractor3"")",Gesundheit,salama,d,NA,NA,NA,NA,NA,NA,NA,NA,NA,NA,NA,NA,NA,NA,NA,NA,NA,NA,NA,NA,NA,NA,NA,NA,NA,NA
50030,task,flow.Sequence,1_1_5,NA,NA,completion,11183.3,182746.39999962,182744.8,182761.6,193944.9,193946.10000038,2024-04-13T09:31:30Z,193961.5,"c(""distractor1"", ""distractor2"", ""distractor3"")",Gesundheit,salama,d,NA,NA,NA,NA,NA,NA,NA,NA,NA,NA,NA,NA,NA,NA,NA,NA,NA,NA,NA,NA,NA,NA,NA,NA,NA,NA
50030,block,flow.Loop,1_1,NA,NA,completion,97983.3,95948.300000191,95944.328,95961.6,193944.9,193946.30000019,2024-04-13T09:31:30Z,193961.5,"c(""distractor1"", ""distractor2"", ""distractor3"")",NA,NA,NA,NA,NA,NA,NA,NA,NA,NA,NA,NA,NA,NA,NA,NA,NA,NA,NA,NA,NA,NA,NA,NA,NA,NA,NA,NA,NA
50030,Practice,flow.Sequence,1,NA,NA,completion,112433.4,81510.100000381,81511.374,81511.5,193944.9,193946.5,2024-04-13T09:31:30Z,193961.5,NULL,NA,NA,NA,NA,NA,NA,NA,NA,NA,NA,NA,NA,NA,NA,NA,NA,NA,NA,NA,NA,NA,NA,NA,NA,NA,NA,NA,NA,NA
50030,Experiment start,canvas.Screen,2,weiter,keypress(q),response,57226.399999619,193946.60000038,193944.9,193961.5,251187.89999962,251188.80000019,2024-04-13T09:32:27Z,251278.1,NULL,NA,NA,NA,NA,NA,NA,NA,NA,NA,NA,NA,NA,NA,NA,NA,NA,NA,NA,NA,NA,NA,NA,NA,NA,NA,NA,NA,NA,NA
50030,Deep Question,html.Page,3_0_0_0_0_0_0,NA,NA,form submission,8283.5999998093,251283,251276.264,251278.1,259561.69999981,259562,2024-04-13T09:32:36Z,259578.5,NULL,Kultur,utamaduni,d,NA,NA,NA,bnmv,NA,NA,0,NA,NA,NA,NA,NA,NA,NA,NA,NA,NA,NA,NA,NA,NA,NA,NA,NA,NA,NA
50030,"""Richtig""-Screen",canvas.Screen,3_0_0_0_0_0_1,NA,NA,skipped,NA,259563.80000019,NA,NA,259561.69999981,259564,2024-04-13T09:32:36Z,259578.5,NULL,Kultur,utamaduni,d,NA,NA,NA,NA,sdf,NA,0,NA,NA,NA,NA,NA,NA,NA,NA,NA,NA,NA,NA,NA,NA,NA,NA,NA,NA,NA
50030,"""Falsch""-Screen",canvas.Screen,3_0_0_0_0_0_2,NA,NA,timeout,4999.8,259564.5,259561.528,259578.5,264561.5,264562.19999981,2024-04-13T09:32:41Z,264578.3,NULL,Kultur,utamaduni,d,NA,NA,NA,NA,sdf,0,0,NA,NA,NA,NA,NA,NA,NA,NA,NA,NA,NA,NA,NA,NA,NA,NA,NA,NA,NA
50030,deep,flow.Sequence,3_0_0_0_0_0,NA,NA,completion,13283.4,251283,251276.264,251278.1,264561.5,264562.39999962,2024-04-13T09:32:41Z,264578.3,NULL,Kultur,utamaduni,d,NA,NA,NA,NA,sdf,NA,0,NA,NA,NA,NA,NA,NA,NA,NA,NA,NA,NA,NA,NA,NA,NA,NA,NA,NA,NA
50030,shallow,flow.Sequence,3_0_0_0_0_1,NA,NA,skipped,NA,264562.5,NA,NA,264561.5,264562.60000038,2024-04-13T09:32:41Z,264578.3,NULL,Kultur,utamaduni,d,NA,NA,NA,NA,sdf,NA,0,NA,NA,NA,NA,NA,NA,NA,NA,NA,NA,NA,NA,NA,NA,NA,NA,NA,NA,NA
50030,task,flow.Sequence,3_0_0_0_0,NA,NA,completion,13283.4,251283,251276.264,251278.1,264561.5,264562.80000019,2024-04-13T09:32:41Z,264578.3,NULL,Kultur,utamaduni,d,NA,NA,NA,NA,sdf,NA,0,NA,NA,NA,NA,NA,NA,NA,NA,NA,NA,NA,NA,NA,NA,NA,NA,NA,NA,NA
50030,Deep Question,html.Page,3_0_0_0_1_0_0,NA,NA,form submission,6490.0999996185,264562.80000019,264561.5,264578.3,271068.39999962,271068.60000038,2024-04-13T09:32:47Z,271078.1,NULL,Sympathie,mapendano,d,NA,NA,NA,rtzu,NA,NA,0,NA,NA,NA,NA,NA,NA,NA,NA,NA,NA,NA,NA,NA,NA,NA,NA,NA,NA,NA
50030,"""Richtig""-Screen",canvas.Screen,3_0_0_0_1_0_1,NA,NA,skipped,NA,271070.39999962,NA,NA,271068.39999962,271070.5,2024-04-13T09:32:47Z,271078.1,NULL,Sympathie,mapendano,d,NA,NA,NA,NA,sdf,NA,0,NA,NA,NA,NA,NA,NA,NA,NA,NA,NA,NA,NA,NA,NA,NA,NA,NA,NA,NA
50030,"""Falsch""-Screen",canvas.Screen,3_0_0_0_1_0_2,NA,NA,timeout,5000.1,271071.10000038,271061.596,271078.1,276061.5,276062.19999981,2024-04-13T09:32:52Z,276078.2,NULL,Sympathie,mapendano,d,NA,NA,NA,NA,sdf,0,0,NA,NA,NA,NA,NA,NA,NA,NA,NA,NA,NA,NA,NA,NA,NA,NA,NA,NA,NA
50030,deep,flow.Sequence,3_0_0_0_1_0,NA,NA,completion,11483.2,264562.80000019,264561.5,264578.3,276061.5,276062.39999962,2024-04-13T09:32:52Z,276078.2,NULL,Sympathie,mapendano,d,NA,NA,NA,NA,sdf,NA,0,NA,NA,NA,NA,NA,NA,NA,NA,NA,NA,NA,NA,NA,NA,NA,NA,NA,NA,NA
50030,shallow,flow.Sequence,3_0_0_0_1_1,NA,NA,skipped,NA,276062.60000038,NA,NA,276061.5,276062.60000038,2024-04-13T09:32:52Z,276078.2,NULL,Sympathie,mapendano,d,NA,NA,NA,NA,sdf,NA,0,NA,NA,NA,NA,NA,NA,NA,NA,NA,NA,NA,NA,NA,NA,NA,NA,NA,NA,NA
50030,task,flow.Sequence,3_0_0_0_1,NA,NA,completion,11483.2,264562.80000019,264561.5,264578.3,276061.5,276062.80000019,2024-04-13T09:32:52Z,276078.2,NULL,Sympathie,mapendano,d,NA,NA,NA,NA,sdf,NA,0,NA,NA,NA,NA,NA,NA,NA,NA,NA,NA,NA,NA,NA,NA,NA,NA,NA,NA,NA
50030,deep,flow.Sequence,3_0_0_0_2_0,NA,NA,skipped,NA,276062.80000019,NA,NA,276061.5,276062.89999962,2024-04-13T09:32:52Z,276078.2,NULL,Aufstand,ugomaji,s,mazidio,msingi,kujieleza,NA,sdf,NA,0,NA,NA,NA,NA,NA,NA,NA,NA,NA,NA,NA,NA,NA,NA,NA,NA,NA,NA,NA
50030,Shallow Question,html.Page,3_0_0_0_2_1_0,NA,NA,form submission,12501.100000191,276062.89999962,276061.5,276078.2,288579.30000019,288579.5,2024-04-13T09:33:05Z,288594.9,NULL,Aufstand,ugomaji,s,mazidio,msingi,kujieleza,ugomaji,NA,NA,0,NA,NA,NA,NA,NA,NA,NA,NA,NA,NA,NA,NA,NA,NA,NA,NA,NA,NA,NA
50030,"""Richtig""-Screen",canvas.Screen,3_0_0_0_2_1_1,NA,NA,timeout,4999.9,288581.19999981,288578.256,288594.9,293578.2,293578.80000019,2024-04-13T09:33:10Z,293594.8,NULL,Aufstand,ugomaji,s,mazidio,msingi,kujieleza,NA,sdf,1,0,NA,NA,NA,NA,NA,NA,NA,NA,NA,NA,NA,NA,NA,NA,NA,NA,NA,NA,NA
50030,"""Falsch""-Screen",canvas.Screen,3_0_0_0_2_1_2,NA,NA,skipped,NA,293582.89999962,NA,NA,293578.2,293583.10000038,2024-04-13T09:33:10Z,293594.8,NULL,Aufstand,ugomaji,s,mazidio,msingi,kujieleza,NA,sdf,NA,0,NA,NA,NA,NA,NA,NA,NA,NA,NA,NA,NA,NA,NA,NA,NA,NA,NA,NA,NA
50030,shallow,flow.Sequence,3_0_0_0_2_1,NA,NA,completion,17500,276062.89999962,276061.5,276078.2,293578.2,293583.39999962,2024-04-13T09:33:10Z,293594.8,NULL,Aufstand,ugomaji,s,mazidio,msingi,kujieleza,NA,sdf,NA,0,NA,NA,NA,NA,NA,NA,NA,NA,NA,NA,NA,NA,NA,NA,NA,NA,NA,NA,NA
50030,task,flow.Sequence,3_0_0_0_2,NA,NA,completion,17500,276062.80000019,276061.5,276078.2,293578.2,293583.39999962,2024-04-13T09:33:10Z,293594.8,NULL,Aufstand,ugomaji,s,mazidio,msingi,kujieleza,NA,sdf,NA,0,NA,NA,NA,NA,NA,NA,NA,NA,NA,NA,NA,NA,NA,NA,NA,NA,NA,NA,NA
50030,deep,flow.Sequence,3_0_0_0_3_0,NA,NA,skipped,NA,293583.60000038,NA,NA,293578.2,293583.60000038,2024-04-13T09:33:10Z,293594.8,NULL,Beweis,ushahidi,s,marudio,kizuizi,mtendaji,NA,sdf,NA,0,NA,NA,NA,NA,NA,NA,NA,NA,NA,NA,NA,NA,NA,NA,NA,NA,NA,NA,NA
50030,Shallow Question,html.Page,3_0_0_0_3_1_0,NA,NA,form submission,7703.5000001907,293583.69999981,293578.2,293594.8,301298.30000019,301298.5,2024-04-13T09:33:17Z,301311.5,NULL,Beweis,ushahidi,s,marudio,kizuizi,mtendaji,ushahidi,NA,NA,0,NA,NA,NA,NA,NA,NA,NA,NA,NA,NA,NA,NA,NA,NA,NA,NA,NA,NA,NA
50030,"""Richtig""-Screen",canvas.Screen,3_0_0_0_3_1_1,NA,NA,timeout,4999.9,301300.30000019,301294.9,301311.5,306294.8,306295.5,2024-04-13T09:33:22Z,306311.4,NULL,Beweis,ushahidi,s,marudio,kizuizi,mtendaji,NA,sdf,1,0,NA,NA,NA,NA,NA,NA,NA,NA,NA,NA,NA,NA,NA,NA,NA,NA,NA,NA,NA
50030,"""Falsch""-Screen",canvas.Screen,3_0_0_0_3_1_2,NA,NA,skipped,NA,306299.39999962,NA,NA,306294.8,306299.60000038,2024-04-13T09:33:22Z,306311.4,NULL,Beweis,ushahidi,s,marudio,kizuizi,mtendaji,NA,sdf,NA,0,NA,NA,NA,NA,NA,NA,NA,NA,NA,NA,NA,NA,NA,NA,NA,NA,NA,NA,NA
50030,shallow,flow.Sequence,3_0_0_0_3_1,NA,NA,completion,12700,293583.69999981,293578.2,293594.8,306294.8,306299.89999962,2024-04-13T09:33:22Z,306311.4,NULL,Beweis,ushahidi,s,marudio,kizuizi,mtendaji,NA,sdf,NA,0,NA,NA,NA,NA,NA,NA,NA,NA,NA,NA,NA,NA,NA,NA,NA,NA,NA,NA,NA
50030,task,flow.Sequence,3_0_0_0_3,NA,NA,completion,12700,293583.60000038,293578.2,293594.8,306294.8,306300,2024-04-13T09:33:22Z,306311.4,NULL,Beweis,ushahidi,s,marudio,kizuizi,mtendaji,NA,sdf,NA,0,NA,NA,NA,NA,NA,NA,NA,NA,NA,NA,NA,NA,NA,NA,NA,NA,NA,NA,NA
50030,deep,flow.Sequence,3_0_0_0_4_0,NA,NA,skipped,NA,306300.19999981,NA,NA,306294.8,306300.19999981,2024-04-13T09:33:22Z,306311.4,NULL,Prüfung,mtihani,s,mkulima,mtizamo,ufumbuzi,NA,sdf,NA,0,NA,NA,NA,NA,NA,NA,NA,NA,NA,NA,NA,NA,NA,NA,NA,NA,NA,NA,NA
50030,Shallow Question,html.Page,3_0_0_0_4_1_0,NA,NA,form submission,8577.7000003814,306300.30000019,306294.8,306311.4,314889.10000038,314889.30000019,2024-04-13T09:33:31Z,314911.5,NULL,Prüfung,mtihani,s,mkulima,mtizamo,ufumbuzi,mtihani,NA,NA,0,NA,NA,NA,NA,NA,NA,NA,NA,NA,NA,NA,NA,NA,NA,NA,NA,NA,NA,NA
50030,"""Richtig""-Screen",canvas.Screen,3_0_0_0_4_1_1,NA,NA,timeout,5000.1,314890.80000019,314894.966,314911.5,319894.8,319895.5,2024-04-13T09:33:36Z,319911.6,NULL,Prüfung,mtihani,s,mkulima,mtizamo,ufumbuzi,NA,sdf,1,0,NA,NA,NA,NA,NA,NA,NA,NA,NA,NA,NA,NA,NA,NA,NA,NA,NA,NA,NA
50030,"""Falsch""-Screen",canvas.Screen,3_0_0_0_4_1_2,NA,NA,skipped,NA,319899.39999962,NA,NA,319894.8,319899.5,2024-04-13T09:33:36Z,319911.6,NULL,Prüfung,mtihani,s,mkulima,mtizamo,ufumbuzi,NA,sdf,NA,0,NA,NA,NA,NA,NA,NA,NA,NA,NA,NA,NA,NA,NA,NA,NA,NA,NA,NA,NA
50030,shallow,flow.Sequence,3_0_0_0_4_1,NA,NA,completion,13583.4,306300.30000019,306294.8,306311.4,319894.8,319899.69999981,2024-04-13T09:33:36Z,319911.6,NULL,Prüfung,mtihani,s,mkulima,mtizamo,ufumbuzi,NA,sdf,NA,0,NA,NA,NA,NA,NA,NA,NA,NA,NA,NA,NA,NA,NA,NA,NA,NA,NA,NA,NA
50030,task,flow.Sequence,3_0_0_0_4,NA,NA,completion,13583.4,306300.19999981,306294.8,306311.4,319894.8,319899.89999962,2024-04-13T09:33:36Z,319911.6,NULL,Prüfung,mtihani,s,mkulima,mtizamo,ufumbuzi,NA,sdf,NA,0,NA,NA,NA,NA,NA,NA,NA,NA,NA,NA,NA,NA,NA,NA,NA,NA,NA,NA,NA
50030,Deep Question,html.Page,3_0_0_0_5_0_0,NA,NA,form submission,5795.7000001908,319899.89999962,319894.8,319911.6,325707.30000019,325707.60000038,2024-04-13T09:33:42Z,325711.3,NULL,Verzögerung,kuchelewa,d,NA,NA,NA,qwerr,NA,NA,0,NA,NA,NA,NA,NA,NA,NA,NA,NA,NA,NA,NA,NA,NA,NA,NA,NA,NA,NA
50030,"""Richtig""-Screen",canvas.Screen,3_0_0_0_5_0_1,NA,NA,skipped,NA,325709,NA,NA,325707.30000019,325709.19999981,2024-04-13T09:33:42Z,325711.3,NULL,Verzögerung,kuchelewa,d,NA,NA,NA,NA,sdf,NA,0,NA,NA,NA,NA,NA,NA,NA,NA,NA,NA,NA,NA,NA,NA,NA,NA,NA,NA,NA
50030,"""Falsch""-Screen",canvas.Screen,3_0_0_0_5_0_2,NA,NA,timeout,5000.2,325709.69999981,325694.894,325711.3,330694.8,330695.5,2024-04-13T09:33:47Z,330711.5,NULL,Verzögerung,kuchelewa,d,NA,NA,NA,NA,sdf,0,0,NA,NA,NA,NA,NA,NA,NA,NA,NA,NA,NA,NA,NA,NA,NA,NA,NA,NA,NA
50030,deep,flow.Sequence,3_0_0_0_5_0,NA,NA,completion,10783.2,319899.89999962,319894.8,319911.6,330694.8,330695.80000019,2024-04-13T09:33:47Z,330711.5,NULL,Verzögerung,kuchelewa,d,NA,NA,NA,NA,sdf,NA,0,NA,NA,NA,NA,NA,NA,NA,NA,NA,NA,NA,NA,NA,NA,NA,NA,NA,NA,NA
50030,shallow,flow.Sequence,3_0_0_0_5_1,NA,NA,skipped,NA,330695.80000019,NA,NA,330694.8,330695.89999962,2024-04-13T09:33:47Z,330711.5,NULL,Verzögerung,kuchelewa,d,NA,NA,NA,NA,sdf,NA,0,NA,NA,NA,NA,NA,NA,NA,NA,NA,NA,NA,NA,NA,NA,NA,NA,NA,NA,NA
50030,task,flow.Sequence,3_0_0_0_5,NA,NA,completion,10783.2,319899.89999962,319894.8,319911.6,330694.8,330696.10000038,2024-04-13T09:33:47Z,330711.5,NULL,Verzögerung,kuchelewa,d,NA,NA,NA,NA,sdf,NA,0,NA,NA,NA,NA,NA,NA,NA,NA,NA,NA,NA,NA,NA,NA,NA,NA,NA,NA,NA
50030,deep,flow.Sequence,3_0_0_0_6_0,NA,NA,skipped,NA,330696.19999981,NA,NA,330694.8,330696.19999981,2024-04-13T09:33:47Z,330711.5,NULL,Polizist,msongora,s,simanzi,mandhari,nidhamu,NA,sdf,NA,0,NA,NA,NA,NA,NA,NA,NA,NA,NA,NA,NA,NA,NA,NA,NA,NA,NA,NA,NA
50030,Shallow Question,html.Page,3_0_0_0_6_1_0,NA,NA,form submission,8332.6999998093,330696.30000019,330694.8,330711.5,339044.19999981,339044.39999962,2024-04-13T09:33:55Z,339061.4,NULL,Polizist,msongora,s,simanzi,mandhari,nidhamu,mandhari,NA,NA,0,NA,NA,NA,NA,NA,NA,NA,NA,NA,NA,NA,NA,NA,NA,NA,NA,NA,NA,NA
50030,"""Richtig""-Screen",canvas.Screen,3_0_0_0_6_1_1,NA,NA,skipped,NA,339046.10000038,NA,NA,339044.19999981,339046.19999981,2024-04-13T09:33:55Z,339061.4,NULL,Polizist,msongora,s,simanzi,mandhari,nidhamu,NA,sdf,NA,0,NA,NA,NA,NA,NA,NA,NA,NA,NA,NA,NA,NA,NA,NA,NA,NA,NA,NA,NA
50030,"""Falsch""-Screen",canvas.Screen,3_0_0_0_6_1_2,NA,NA,timeout,5000.2,339046.69999981,339044.874,339061.4,344044.8,344045.60000038,2024-04-13T09:34:00Z,344061.6,NULL,Polizist,msongora,s,simanzi,mandhari,nidhamu,NA,sdf,0,0,NA,NA,NA,NA,NA,NA,NA,NA,NA,NA,NA,NA,NA,NA,NA,NA,NA,NA,NA
50030,shallow,flow.Sequence,3_0_0_0_6_1,NA,NA,completion,13333.3,330696.30000019,330694.8,330711.5,344044.8,344045.80000019,2024-04-13T09:34:00Z,344061.6,NULL,Polizist,msongora,s,simanzi,mandhari,nidhamu,NA,sdf,NA,0,NA,NA,NA,NA,NA,NA,NA,NA,NA,NA,NA,NA,NA,NA,NA,NA,NA,NA,NA
50030,task,flow.Sequence,3_0_0_0_6,NA,NA,completion,13333.3,330696.19999981,330694.8,330711.5,344044.8,344046,2024-04-13T09:34:00Z,344061.6,NULL,Polizist,msongora,s,simanzi,mandhari,nidhamu,NA,sdf,NA,0,NA,NA,NA,NA,NA,NA,NA,NA,NA,NA,NA,NA,NA,NA,NA,NA,NA,NA,NA
50030,Deep Question,html.Page,3_0_0_0_7_0_0,NA,NA,form submission,4554.7999996186,344046.19999981,344044.8,344061.6,348616.39999962,348616.5,2024-04-13T09:34:05Z,348628.1,NULL,Annäherung,maegesho,d,NA,NA,NA,fghjk,NA,NA,0,NA,NA,NA,NA,NA,NA,NA,NA,NA,NA,NA,NA,NA,NA,NA,NA,NA,NA,NA
50030,"""Richtig""-Screen",canvas.Screen,3_0_0_0_7_0_1,NA,NA,skipped,NA,348618.30000019,NA,NA,348616.39999962,348618.39999962,2024-04-13T09:34:05Z,348628.1,NULL,Annäherung,maegesho,d,NA,NA,NA,NA,sdf,NA,0,NA,NA,NA,NA,NA,NA,NA,NA,NA,NA,NA,NA,NA,NA,NA,NA,NA,NA,NA
50030,"""Falsch""-Screen",canvas.Screen,3_0_0_0_7_0_2,NA,NA,timeout,5000,348618.89999962,348611.58,348628.1,353611.5,353612.10000038,2024-04-13T09:34:10Z,353628.1,NULL,Annäherung,maegesho,d,NA,NA,NA,NA,sdf,0,0,NA,NA,NA,NA,NA,NA,NA,NA,NA,NA,NA,NA,NA,NA,NA,NA,NA,NA,NA
50030,deep,flow.Sequence,3_0_0_0_7_0,NA,NA,completion,9549.9,344046.10000038,344044.8,344061.6,353611.5,353612.39999962,2024-04-13T09:34:10Z,353628.1,NULL,Annäherung,maegesho,d,NA,NA,NA,NA,sdf,NA,0,NA,NA,NA,NA,NA,NA,NA,NA,NA,NA,NA,NA,NA,NA,NA,NA,NA,NA,NA
50030,shallow,flow.Sequence,3_0_0_0_7_1,NA,NA,skipped,NA,353612.5,NA,NA,353611.5,353612.60000038,2024-04-13T09:34:10Z,353628.1,NULL,Annäherung,maegesho,d,NA,NA,NA,NA,sdf,NA,0,NA,NA,NA,NA,NA,NA,NA,NA,NA,NA,NA,NA,NA,NA,NA,NA,NA,NA,NA
50030,task,flow.Sequence,3_0_0_0_7,NA,NA,completion,9549.9,344046.10000038,344044.8,344061.6,353611.5,353612.69999981,2024-04-13T09:34:10Z,353628.1,NULL,Annäherung,maegesho,d,NA,NA,NA,NA,sdf,NA,0,NA,NA,NA,NA,NA,NA,NA,NA,NA,NA,NA,NA,NA,NA,NA,NA,NA,NA,NA
50030,block,flow.Loop,3_0_0_0,NA,NA,completion,102333.4,251283,251276.264,251278.1,353611.5,353612.89999962,2024-04-13T09:34:10Z,353628.1,NULL,NA,NA,NA,NA,NA,NA,NA,sdf,NA,0,NA,NA,NA,NA,NA,NA,NA,NA,NA,NA,NA,NA,NA,NA,NA,NA,NA,NA,NA
50030,weiter,canvas.Screen,3_0_0_1,sdf,keypress(Space),response,3495.2000001908,353613,353611.5,353628.1,357123.30000019,357124.10000038,2024-04-13T09:34:13Z,357178.1,NULL,NA,NA,NA,NA,NA,NA,NA,sdf,NA,0,NA,NA,NA,NA,NA,NA,NA,NA,NA,NA,NA,NA,NA,NA,NA,NA,NA,NA,NA
50030,check continue,flow.Sequence,3_0_0,NA,NA,completion,105845.20000019,251283,251276.264,251278.1,357123.30000019,357124.39999962,2024-04-13T09:34:13Z,357178.1,NULL,NA,NA,NA,NA,NA,NA,NA,sdf,NA,0,NA,NA,NA,NA,NA,NA,NA,NA,NA,NA,NA,NA,NA,NA,NA,NA,NA,NA,NA
50030,Deep Question,html.Page,3_0_1_0_0_0_0,NA,NA,form submission,9155.2000001908,357179.5,357177.958,357178.1,366333.30000019,366333.39999962,2024-04-13T09:34:22Z,366361.5,NULL,Verzögerung,kuchelewa,d,NA,NA,NA,ghjk,NA,NA,1,NA,NA,NA,NA,NA,NA,NA,NA,NA,NA,NA,NA,NA,NA,NA,NA,NA,NA,NA
50030,"""Richtig""-Screen",canvas.Screen,3_0_1_0_0_0_1,NA,NA,skipped,NA,366335.10000038,NA,NA,366333.30000019,366335.30000019,2024-04-13T09:34:22Z,366361.5,NULL,Verzögerung,kuchelewa,d,NA,NA,NA,NA,sdfdsf,NA,1,NA,NA,NA,NA,NA,NA,NA,NA,NA,NA,NA,NA,NA,NA,NA,NA,NA,NA,NA
50030,"""Falsch""-Screen",canvas.Screen,3_0_1_0_0_0_2,NA,NA,timeout,5000,366335.89999962,366344.916,366361.5,371344.7,371345.39999962,2024-04-13T09:34:27Z,371361.5,NULL,Verzögerung,kuchelewa,d,NA,NA,NA,NA,sdfdsf,0,1,NA,NA,NA,NA,NA,NA,NA,NA,NA,NA,NA,NA,NA,NA,NA,NA,NA,NA,NA
50030,deep,flow.Sequence,3_0_1_0_0_0,NA,NA,completion,14166.6,357179.5,357177.958,357178.1,371344.7,371345.60000038,2024-04-13T09:34:27Z,371361.5,NULL,Verzögerung,kuchelewa,d,NA,NA,NA,NA,sdfdsf,NA,1,NA,NA,NA,NA,NA,NA,NA,NA,NA,NA,NA,NA,NA,NA,NA,NA,NA,NA,NA
50030,shallow,flow.Sequence,3_0_1_0_0_1,NA,NA,skipped,NA,371345.69999981,NA,NA,371344.7,371345.80000019,2024-04-13T09:34:27Z,371361.5,NULL,Verzögerung,kuchelewa,d,NA,NA,NA,NA,sdfdsf,NA,1,NA,NA,NA,NA,NA,NA,NA,NA,NA,NA,NA,NA,NA,NA,NA,NA,NA,NA,NA
50030,task,flow.Sequence,3_0_1_0_0,NA,NA,completion,14166.6,357179.5,357177.958,357178.1,371344.7,371345.89999962,2024-04-13T09:34:27Z,371361.5,NULL,Verzögerung,kuchelewa,d,NA,NA,NA,NA,sdfdsf,NA,1,NA,NA,NA,NA,NA,NA,NA,NA,NA,NA,NA,NA,NA,NA,NA,NA,NA,NA,NA
50030,Deep Question,html.Page,3_0_1_0_1_0_0,NA,NA,form submission,8953.8999996185,371346.10000038,371344.7,371361.5,380315.39999962,380315.60000038,2024-04-13T09:34:36Z,380328.1,NULL,Kultur,utamaduni,d,NA,NA,NA,tzzuio,NA,NA,1,NA,NA,NA,NA,NA,NA,NA,NA,NA,NA,NA,NA,NA,NA,NA,NA,NA,NA,NA
50030,"""Richtig""-Screen",canvas.Screen,3_0_1_0_1_0_1,NA,NA,skipped,NA,380317.39999962,NA,NA,380315.39999962,380317.60000038,2024-04-13T09:34:36Z,380328.1,NULL,Kultur,utamaduni,d,NA,NA,NA,NA,sdfdsf,NA,1,NA,NA,NA,NA,NA,NA,NA,NA,NA,NA,NA,NA,NA,NA,NA,NA,NA,NA,NA
50030,"""Falsch""-Screen",canvas.Screen,3_0_1_0_1_0_2,NA,NA,timeout,5000.1,380318.10000038,380311.6,380328.1,385311.5,385312.10000038,2024-04-13T09:34:41Z,385328.2,NULL,Kultur,utamaduni,d,NA,NA,NA,NA,sdfdsf,0,1,NA,NA,NA,NA,NA,NA,NA,NA,NA,NA,NA,NA,NA,NA,NA,NA,NA,NA,NA
50030,deep,flow.Sequence,3_0_1_0_1_0,NA,NA,completion,13950,371346,371344.7,371361.5,385311.5,385312.39999962,2024-04-13T09:34:41Z,385328.2,NULL,Kultur,utamaduni,d,NA,NA,NA,NA,sdfdsf,NA,1,NA,NA,NA,NA,NA,NA,NA,NA,NA,NA,NA,NA,NA,NA,NA,NA,NA,NA,NA
50030,shallow,flow.Sequence,3_0_1_0_1_1,NA,NA,skipped,NA,385312.39999962,NA,NA,385311.5,385312.60000038,2024-04-13T09:34:41Z,385328.2,NULL,Kultur,utamaduni,d,NA,NA,NA,NA,sdfdsf,NA,1,NA,NA,NA,NA,NA,NA,NA,NA,NA,NA,NA,NA,NA,NA,NA,NA,NA,NA,NA
50030,task,flow.Sequence,3_0_1_0_1,NA,NA,completion,13950,371346,371344.7,371361.5,385311.5,385312.60000038,2024-04-13T09:34:41Z,385328.2,NULL,Kultur,utamaduni,d,NA,NA,NA,NA,sdfdsf,NA,1,NA,NA,NA,NA,NA,NA,NA,NA,NA,NA,NA,NA,NA,NA,NA,NA,NA,NA,NA
50030,deep,flow.Sequence,3_0_1_0_2_0,NA,NA,skipped,NA,385312.80000019,NA,NA,385311.5,385312.80000019,2024-04-13T09:34:41Z,385328.2,NULL,Polizist,msongora,s,simanzi,mandhari,nidhamu,NA,sdfdsf,NA,1,NA,NA,NA,NA,NA,NA,NA,NA,NA,NA,NA,NA,NA,NA,NA,NA,NA,NA,NA
50030,Shallow Question,html.Page,3_0_1_0_2_1_0,NA,NA,form submission,7360.8,385312.89999962,385311.5,385328.2,392689,392689.19999981,2024-04-13T09:34:49Z,392694.6,NULL,Polizist,msongora,s,simanzi,mandhari,nidhamu,msongora,NA,NA,1,NA,NA,NA,NA,NA,NA,NA,NA,NA,NA,NA,NA,NA,NA,NA,NA,NA,NA,NA
50030,"""Richtig""-Screen",canvas.Screen,3_0_1_0_2_1_1,NA,NA,timeout,5000.1,392690.89999962,392678.218,392694.6,397678.1,397678.80000019,2024-04-13T09:34:54Z,397694.7,NULL,Polizist,msongora,s,simanzi,mandhari,nidhamu,NA,sdfdsf,1,1,NA,NA,NA,NA,NA,NA,NA,NA,NA,NA,NA,NA,NA,NA,NA,NA,NA,NA,NA
50030,"""Falsch""-Screen",canvas.Screen,3_0_1_0_2_1_2,NA,NA,skipped,NA,397682.69999981,NA,NA,397678.1,397682.80000019,2024-04-13T09:34:54Z,397694.7,NULL,Polizist,msongora,s,simanzi,mandhari,nidhamu,NA,sdfdsf,NA,1,NA,NA,NA,NA,NA,NA,NA,NA,NA,NA,NA,NA,NA,NA,NA,NA,NA,NA,NA
50030,shallow,flow.Sequence,3_0_1_0_2_1,NA,NA,completion,12349.9,385312.89999962,385311.5,385328.2,397678.1,397683.10000038,2024-04-13T09:34:54Z,397694.7,NULL,Polizist,msongora,s,simanzi,mandhari,nidhamu,NA,sdfdsf,NA,1,NA,NA,NA,NA,NA,NA,NA,NA,NA,NA,NA,NA,NA,NA,NA,NA,NA,NA,NA
50030,task,flow.Sequence,3_0_1_0_2,NA,NA,completion,12349.9,385312.69999981,385311.5,385328.2,397678.1,397683.19999981,2024-04-13T09:34:54Z,397694.7,NULL,Polizist,msongora,s,simanzi,mandhari,nidhamu,NA,sdfdsf,NA,1,NA,NA,NA,NA,NA,NA,NA,NA,NA,NA,NA,NA,NA,NA,NA,NA,NA,NA,NA
50030,Deep Question,html.Page,3_0_1_0_3_0_0,NA,NA,form submission,5163.6000001907,397683.30000019,397678.1,397694.7,402858.30000019,402858.60000038,2024-04-13T09:34:59Z,402861.546,NULL,Sympathie,mapendano,d,NA,NA,NA,qwer,NA,NA,1,NA,NA,NA,NA,NA,NA,NA,NA,NA,NA,NA,NA,NA,NA,NA,NA,NA,NA,NA
50030,"""Richtig""-Screen",canvas.Screen,3_0_1_0_3_0_1,NA,NA,skipped,NA,402860.10000038,NA,NA,402858.30000019,402860.30000019,2024-04-13T09:34:59Z,402861.546,NULL,Sympathie,mapendano,d,NA,NA,NA,NA,sdfdsf,NA,1,NA,NA,NA,NA,NA,NA,NA,NA,NA,NA,NA,NA,NA,NA,NA,NA,NA,NA,NA
50030,"""Falsch""-Screen",canvas.Screen,3_0_1_0_3_0_2,NA,NA,timeout,4999.8540000001,402860.80000019,402861.546,402861.546,407844.8,407845.5,2024-04-13T09:35:04Z,407861.4,NULL,Sympathie,mapendano,d,NA,NA,NA,NA,sdfdsf,0,1,NA,NA,NA,NA,NA,NA,NA,NA,NA,NA,NA,NA,NA,NA,NA,NA,NA,NA,NA
50030,deep,flow.Sequence,3_0_1_0_3_0,NA,NA,completion,10150.1,397683.30000019,397678.1,397694.7,407844.8,407845.80000019,2024-04-13T09:35:04Z,407861.4,NULL,Sympathie,mapendano,d,NA,NA,NA,NA,sdfdsf,NA,1,NA,NA,NA,NA,NA,NA,NA,NA,NA,NA,NA,NA,NA,NA,NA,NA,NA,NA,NA
50030,shallow,flow.Sequence,3_0_1_0_3_1,NA,NA,skipped,NA,407845.89999962,NA,NA,407844.8,407846,2024-04-13T09:35:04Z,407861.4,NULL,Sympathie,mapendano,d,NA,NA,NA,NA,sdfdsf,NA,1,NA,NA,NA,NA,NA,NA,NA,NA,NA,NA,NA,NA,NA,NA,NA,NA,NA,NA,NA
50030,task,flow.Sequence,3_0_1_0_3,NA,NA,completion,10150.1,397683.30000019,397678.1,397694.7,407844.8,407846.10000038,2024-04-13T09:35:04Z,407861.4,NULL,Sympathie,mapendano,d,NA,NA,NA,NA,sdfdsf,NA,1,NA,NA,NA,NA,NA,NA,NA,NA,NA,NA,NA,NA,NA,NA,NA,NA,NA,NA,NA
50030,deep,flow.Sequence,3_0_1_0_4_0,NA,NA,skipped,NA,407846.19999981,NA,NA,407844.8,407846.30000019,2024-04-13T09:35:04Z,407861.4,NULL,Aufstand,ugomaji,s,mazidio,msingi,kujieleza,NA,sdfdsf,NA,1,NA,NA,NA,NA,NA,NA,NA,NA,NA,NA,NA,NA,NA,NA,NA,NA,NA,NA,NA
50030,Shallow Question,html.Page,3_0_1_0_4_1_0,NA,NA,form submission,8767.6,407846.39999962,407844.8,407861.4,416629,416629.19999981,2024-04-13T09:35:13Z,416644.8,NULL,Aufstand,ugomaji,s,mazidio,msingi,kujieleza,ugomaji,NA,NA,1,NA,NA,NA,NA,NA,NA,NA,NA,NA,NA,NA,NA,NA,NA,NA,NA,NA,NA,NA
50030,"""Richtig""-Screen",canvas.Screen,3_0_1_0_4_1_1,NA,NA,timeout,5000,416630.89999962,416628.164,416644.8,421628.1,421628.80000019,2024-04-13T09:35:18Z,421644.8,NULL,Aufstand,ugomaji,s,mazidio,msingi,kujieleza,NA,sdfdsf,1,1,NA,NA,NA,NA,NA,NA,NA,NA,NA,NA,NA,NA,NA,NA,NA,NA,NA,NA,NA
50030,"""Falsch""-Screen",canvas.Screen,3_0_1_0_4_1_2,NA,NA,skipped,NA,421633,NA,NA,421628.1,421633.30000019,2024-04-13T09:35:18Z,421644.8,NULL,Aufstand,ugomaji,s,mazidio,msingi,kujieleza,NA,sdfdsf,NA,1,NA,NA,NA,NA,NA,NA,NA,NA,NA,NA,NA,NA,NA,NA,NA,NA,NA,NA,NA
50030,shallow,flow.Sequence,3_0_1_0_4_1,NA,NA,completion,13766.7,407846.30000019,407844.8,407861.4,421628.1,421633.60000038,2024-04-13T09:35:18Z,421644.8,NULL,Aufstand,ugomaji,s,mazidio,msingi,kujieleza,NA,sdfdsf,NA,1,NA,NA,NA,NA,NA,NA,NA,NA,NA,NA,NA,NA,NA,NA,NA,NA,NA,NA,NA
50030,task,flow.Sequence,3_0_1_0_4,NA,NA,completion,13766.7,407846.19999981,407844.8,407861.4,421628.1,421633.60000038,2024-04-13T09:35:18Z,421644.8,NULL,Aufstand,ugomaji,s,mazidio,msingi,kujieleza,NA,sdfdsf,NA,1,NA,NA,NA,NA,NA,NA,NA,NA,NA,NA,NA,NA,NA,NA,NA,NA,NA,NA,NA
50030,deep,flow.Sequence,3_0_1_0_5_0,NA,NA,skipped,NA,421633.69999981,NA,NA,421628.1,421633.80000019,2024-04-13T09:35:18Z,421644.8,NULL,Beweis,ushahidi,s,marudio,kizuizi,mtendaji,NA,sdfdsf,NA,1,NA,NA,NA,NA,NA,NA,NA,NA,NA,NA,NA,NA,NA,NA,NA,NA,NA,NA,NA
50030,Shallow Question,html.Page,3_0_1_0_5_1_0,NA,NA,form submission,7100.3000003815,421633.89999962,421628.1,421644.8,428745.10000038,428745.30000019,2024-04-13T09:35:25Z,428761.7,NULL,Beweis,ushahidi,s,marudio,kizuizi,mtendaji,ushahidi,NA,NA,1,NA,NA,NA,NA,NA,NA,NA,NA,NA,NA,NA,NA,NA,NA,NA,NA,NA,NA,NA
50030,"""Richtig""-Screen",canvas.Screen,3_0_1_0_5_1_1,NA,NA,timeout,4999.8,428747.10000038,428744.844,428761.7,433744.7,433745.60000038,2024-04-13T09:35:30Z,433761.5,NULL,Beweis,ushahidi,s,marudio,kizuizi,mtendaji,NA,sdfdsf,1,1,NA,NA,NA,NA,NA,NA,NA,NA,NA,NA,NA,NA,NA,NA,NA,NA,NA,NA,NA
50030,"""Falsch""-Screen",canvas.Screen,3_0_1_0_5_1_2,NA,NA,skipped,NA,433749.60000038,NA,NA,433744.7,433749.69999981,2024-04-13T09:35:30Z,433761.5,NULL,Beweis,ushahidi,s,marudio,kizuizi,mtendaji,NA,sdfdsf,NA,1,NA,NA,NA,NA,NA,NA,NA,NA,NA,NA,NA,NA,NA,NA,NA,NA,NA,NA,NA
50030,shallow,flow.Sequence,3_0_1_0_5_1,NA,NA,completion,12099.9,421633.89999962,421628.1,421644.8,433744.7,433749.89999962,2024-04-13T09:35:30Z,433761.5,NULL,Beweis,ushahidi,s,marudio,kizuizi,mtendaji,NA,sdfdsf,NA,1,NA,NA,NA,NA,NA,NA,NA,NA,NA,NA,NA,NA,NA,NA,NA,NA,NA,NA,NA
50030,task,flow.Sequence,3_0_1_0_5,NA,NA,completion,12099.9,421633.69999981,421628.1,421644.8,433744.7,433750.10000038,2024-04-13T09:35:30Z,433761.5,NULL,Beweis,ushahidi,s,marudio,kizuizi,mtendaji,NA,sdfdsf,NA,1,NA,NA,NA,NA,NA,NA,NA,NA,NA,NA,NA,NA,NA,NA,NA,NA,NA,NA,NA
50030,Deep Question,html.Page,3_0_1_0_6_0_0,NA,NA,form submission,8437.6000003815,433750.10000038,433744.7,433761.5,442199.10000038,442199.30000019,2024-04-13T09:35:38Z,442211.5,NULL,Annäherung,maegesho,d,NA,NA,NA,kuchalewea,NA,NA,1,NA,NA,NA,NA,NA,NA,NA,NA,NA,NA,NA,NA,NA,NA,NA,NA,NA,NA,NA
50030,"""Richtig""-Screen",canvas.Screen,3_0_1_0_6_0_1,NA,NA,skipped,NA,442201,NA,NA,442199.10000038,442201.19999981,2024-04-13T09:35:38Z,442211.5,NULL,Annäherung,maegesho,d,NA,NA,NA,NA,sdfdsf,NA,1,NA,NA,NA,NA,NA,NA,NA,NA,NA,NA,NA,NA,NA,NA,NA,NA,NA,NA,NA
50030,"""Falsch""-Screen",canvas.Screen,3_0_1_0_6_0_2,NA,NA,timeout,4999.8,442201.69999981,442194.826,442211.5,447194.7,447195.39999962,2024-04-13T09:35:43Z,447211.3,NULL,Annäherung,maegesho,d,NA,NA,NA,NA,sdfdsf,0,1,NA,NA,NA,NA,NA,NA,NA,NA,NA,NA,NA,NA,NA,NA,NA,NA,NA,NA,NA
50030,deep,flow.Sequence,3_0_1_0_6_0,NA,NA,completion,13433.2,433750.10000038,433744.7,433761.5,447194.7,447195.69999981,2024-04-13T09:35:43Z,447211.3,NULL,Annäherung,maegesho,d,NA,NA,NA,NA,sdfdsf,NA,1,NA,NA,NA,NA,NA,NA,NA,NA,NA,NA,NA,NA,NA,NA,NA,NA,NA,NA,NA
50030,shallow,flow.Sequence,3_0_1_0_6_1,NA,NA,skipped,NA,447195.80000019,NA,NA,447194.7,447195.89999962,2024-04-13T09:35:43Z,447211.3,NULL,Annäherung,maegesho,d,NA,NA,NA,NA,sdfdsf,NA,1,NA,NA,NA,NA,NA,NA,NA,NA,NA,NA,NA,NA,NA,NA,NA,NA,NA,NA,NA
50030,task,flow.Sequence,3_0_1_0_6,NA,NA,completion,13433.2,433750.10000038,433744.7,433761.5,447194.7,447196,2024-04-13T09:35:43Z,447211.3,NULL,Annäherung,maegesho,d,NA,NA,NA,NA,sdfdsf,NA,1,NA,NA,NA,NA,NA,NA,NA,NA,NA,NA,NA,NA,NA,NA,NA,NA,NA,NA,NA
50030,deep,flow.Sequence,3_0_1_0_7_0,NA,NA,skipped,NA,447196.10000038,NA,NA,447194.7,447196.10000038,2024-04-13T09:35:43Z,447211.3,NULL,Prüfung,mtihani,s,mkulima,mtizamo,ufumbuzi,NA,sdfdsf,NA,1,NA,NA,NA,NA,NA,NA,NA,NA,NA,NA,NA,NA,NA,NA,NA,NA,NA,NA,NA
50030,Shallow Question,html.Page,3_0_1_0_7_1_0,NA,NA,form submission,12242.800000381,447196.19999981,447194.7,447211.3,459454.10000038,459454.39999962,2024-04-13T09:35:56Z,459461.496,NULL,Prüfung,mtihani,s,mkulima,mtizamo,ufumbuzi,mtizamo,NA,NA,1,NA,NA,NA,NA,NA,NA,NA,NA,NA,NA,NA,NA,NA,NA,NA,NA,NA,NA,NA
50030,"""Richtig""-Screen",canvas.Screen,3_0_1_0_7_1_1,NA,NA,skipped,NA,459456,NA,NA,459454.10000038,459456.10000038,2024-04-13T09:35:56Z,459461.496,NULL,Prüfung,mtihani,s,mkulima,mtizamo,ufumbuzi,NA,sdfdsf,NA,1,NA,NA,NA,NA,NA,NA,NA,NA,NA,NA,NA,NA,NA,NA,NA,NA,NA,NA,NA
50030,"""Falsch""-Screen",canvas.Screen,3_0_1_0_7_1_2,NA,NA,timeout,5000.004,459456.60000038,459461.496,459461.496,464444.8,464445.60000038,2024-04-13T09:36:01Z,464461.5,NULL,Prüfung,mtihani,s,mkulima,mtizamo,ufumbuzi,NA,sdfdsf,0,1,NA,NA,NA,NA,NA,NA,NA,NA,NA,NA,NA,NA,NA,NA,NA,NA,NA,NA,NA
50030,shallow,flow.Sequence,3_0_1_0_7_1,NA,NA,completion,17233.5,447196.19999981,447194.7,447211.3,464444.8,464445.89999962,2024-04-13T09:36:01Z,464461.5,NULL,Prüfung,mtihani,s,mkulima,mtizamo,ufumbuzi,NA,sdfdsf,NA,1,NA,NA,NA,NA,NA,NA,NA,NA,NA,NA,NA,NA,NA,NA,NA,NA,NA,NA,NA
50030,task,flow.Sequence,3_0_1_0_7,NA,NA,completion,17233.5,447196,447194.7,447211.3,464444.8,464446.10000038,2024-04-13T09:36:01Z,464461.5,NULL,Prüfung,mtihani,s,mkulima,mtizamo,ufumbuzi,NA,sdfdsf,NA,1,NA,NA,NA,NA,NA,NA,NA,NA,NA,NA,NA,NA,NA,NA,NA,NA,NA,NA,NA
50030,block,flow.Loop,3_0_1_0,NA,NA,completion,107266.7,357179.5,357177.958,357178.1,464444.8,464446.30000019,2024-04-13T09:36:01Z,464461.5,NULL,NA,NA,NA,NA,NA,NA,NA,sdfdsf,NA,1,NA,NA,NA,NA,NA,NA,NA,NA,NA,NA,NA,NA,NA,NA,NA,NA,NA,NA,NA
50030,weiter,canvas.Screen,3_0_1_1,sdf,keypress(Space),response,1521.5,464446.30000019,464444.8,464461.5,465983,465983.80000019,2024-04-13T09:36:02Z,466028.262,NULL,NA,NA,NA,NA,NA,NA,NA,sdfdsf,NA,1,NA,NA,NA,NA,NA,NA,NA,NA,NA,NA,NA,NA,NA,NA,NA,NA,NA,NA,NA
50030,check continue,flow.Sequence,3_0_1,NA,NA,completion,108804.9,357179.39999962,357177.958,357178.1,465983,465984.10000038,2024-04-13T09:36:02Z,466028.262,NULL,NA,NA,NA,NA,NA,NA,NA,sdfdsf,NA,1,NA,NA,NA,NA,NA,NA,NA,NA,NA,NA,NA,NA,NA,NA,NA,NA,NA,NA,NA
50030,deep,flow.Sequence,3_0_2_0_0_0,NA,NA,skipped,NA,466027.60000038,NA,NA,465983,466027.69999981,2024-04-13T09:36:02Z,466028.262,NULL,Prüfung,mtihani,s,mkulima,mtizamo,ufumbuzi,NA,sdf,NA,2,NA,NA,NA,NA,NA,NA,NA,NA,NA,NA,NA,NA,NA,NA,NA,NA,NA,NA,NA
50030,Shallow Question,html.Page,3_0_2_0_0_1_0,NA,NA,form submission,6430.738,466027.89999962,466028.262,466028.262,472459,472459.19999981,2024-04-13T09:36:09Z,472478,NULL,Prüfung,mtihani,s,mkulima,mtizamo,ufumbuzi,mtizamo,NA,NA,2,NA,NA,NA,NA,NA,NA,NA,NA,NA,NA,NA,NA,NA,NA,NA,NA,NA,NA,NA
50030,"""Richtig""-Screen",canvas.Screen,3_0_2_0_0_1_1,NA,NA,skipped,NA,472461,NA,NA,472459,472461.10000038,2024-04-13T09:36:09Z,472478,NULL,Prüfung,mtihani,s,mkulima,mtizamo,ufumbuzi,NA,sdf,NA,2,NA,NA,NA,NA,NA,NA,NA,NA,NA,NA,NA,NA,NA,NA,NA,NA,NA,NA,NA
50030,"""Falsch""-Screen",canvas.Screen,3_0_2_0_0_1_2,NA,NA,timeout,5000.2,472461.60000038,472461.516,472478,477461.4,477462.10000038,2024-04-13T09:36:14Z,477478.2,NULL,Prüfung,mtihani,s,mkulima,mtizamo,ufumbuzi,NA,sdf,0,2,NA,NA,NA,NA,NA,NA,NA,NA,NA,NA,NA,NA,NA,NA,NA,NA,NA,NA,NA
50030,shallow,flow.Sequence,3_0_2_0_0_1,NA,NA,completion,11433.138,466027.89999962,466028.262,466028.262,477461.4,477462.30000019,2024-04-13T09:36:14Z,477478.2,NULL,Prüfung,mtihani,s,mkulima,mtizamo,ufumbuzi,NA,sdf,NA,2,NA,NA,NA,NA,NA,NA,NA,NA,NA,NA,NA,NA,NA,NA,NA,NA,NA,NA,NA
50030,task,flow.Sequence,3_0_2_0_0,NA,NA,completion,11433.138,466027.60000038,466028.262,466028.262,477461.4,477462.60000038,2024-04-13T09:36:14Z,477478.2,NULL,Prüfung,mtihani,s,mkulima,mtizamo,ufumbuzi,NA,sdf,NA,2,NA,NA,NA,NA,NA,NA,NA,NA,NA,NA,NA,NA,NA,NA,NA,NA,NA,NA,NA
50030,deep,flow.Sequence,3_0_2_0_1_0,NA,NA,skipped,NA,477462.69999981,NA,NA,477461.4,477462.69999981,2024-04-13T09:36:14Z,477478.2,NULL,Beweis,ushahidi,s,marudio,kizuizi,mtendaji,NA,sdf,NA,2,NA,NA,NA,NA,NA,NA,NA,NA,NA,NA,NA,NA,NA,NA,NA,NA,NA,NA,NA
50030,Shallow Question,html.Page,3_0_2_0_1_1_0,NA,NA,form submission,9773.6999996185,477462.89999962,477461.4,477478.2,487251.89999962,487252.19999981,2024-04-13T09:36:23Z,487261.4,NULL,Beweis,ushahidi,s,marudio,kizuizi,mtendaji,ushahidi,NA,NA,2,NA,NA,NA,NA,NA,NA,NA,NA,NA,NA,NA,NA,NA,NA,NA,NA,NA,NA,NA
50030,"""Richtig""-Screen",canvas.Screen,3_0_2_0_1_1_1,NA,NA,timeout,5000.1,487253.89999962,487244.826,487261.4,492244.7,492245.39999962,2024-04-13T09:36:28Z,492261.5,NULL,Beweis,ushahidi,s,marudio,kizuizi,mtendaji,NA,sdf,1,2,NA,NA,NA,NA,NA,NA,NA,NA,NA,NA,NA,NA,NA,NA,NA,NA,NA,NA,NA
50030,"""Falsch""-Screen",canvas.Screen,3_0_2_0_1_1_2,NA,NA,skipped,NA,492249.30000019,NA,NA,492244.7,492249.39999962,2024-04-13T09:36:28Z,492261.5,NULL,Beweis,ushahidi,s,marudio,kizuizi,mtendaji,NA,sdf,NA,2,NA,NA,NA,NA,NA,NA,NA,NA,NA,NA,NA,NA,NA,NA,NA,NA,NA,NA,NA
50030,shallow,flow.Sequence,3_0_2_0_1_1,NA,NA,completion,14766.5,477462.69999981,477461.4,477478.2,492244.7,492249.60000038,2024-04-13T09:36:28Z,492261.5,NULL,Beweis,ushahidi,s,marudio,kizuizi,mtendaji,NA,sdf,NA,2,NA,NA,NA,NA,NA,NA,NA,NA,NA,NA,NA,NA,NA,NA,NA,NA,NA,NA,NA
50030,task,flow.Sequence,3_0_2_0_1,NA,NA,completion,14766.5,477462.60000038,477461.4,477478.2,492244.7,492249.80000019,2024-04-13T09:36:28Z,492261.5,NULL,Beweis,ushahidi,s,marudio,kizuizi,mtendaji,NA,sdf,NA,2,NA,NA,NA,NA,NA,NA,NA,NA,NA,NA,NA,NA,NA,NA,NA,NA,NA,NA,NA
50030,Deep Question,html.Page,3_0_2_0_2_0_0,NA,NA,form submission,6796.6999998093,492249.89999962,492244.7,492261.5,499058.19999981,499058.39999962,2024-04-13T09:36:35Z,499061.516,NULL,Kultur,utamaduni,d,NA,NA,NA,kuchalewa,NA,NA,2,NA,NA,NA,NA,NA,NA,NA,NA,NA,NA,NA,NA,NA,NA,NA,NA,NA,NA,NA
50030,"""Richtig""-Screen",canvas.Screen,3_0_2_0_2_0_1,NA,NA,skipped,NA,499060,NA,NA,499058.19999981,499060.19999981,2024-04-13T09:36:35Z,499061.516,NULL,Kultur,utamaduni,d,NA,NA,NA,NA,sdf,NA,2,NA,NA,NA,NA,NA,NA,NA,NA,NA,NA,NA,NA,NA,NA,NA,NA,NA,NA,NA
50030,"""Falsch""-Screen",canvas.Screen,3_0_2_0_2_0_2,NA,NA,timeout,4999.984,499060.69999981,499061.516,499061.516,504044.7,504045.39999962,2024-04-13T09:36:40Z,504061.5,NULL,Kultur,utamaduni,d,NA,NA,NA,NA,sdf,0,2,NA,NA,NA,NA,NA,NA,NA,NA,NA,NA,NA,NA,NA,NA,NA,NA,NA,NA,NA
50030,deep,flow.Sequence,3_0_2_0_2_0,NA,NA,completion,11783.2,492249.89999962,492244.7,492261.5,504044.7,504045.69999981,2024-04-13T09:36:40Z,504061.5,NULL,Kultur,utamaduni,d,NA,NA,NA,NA,sdf,NA,2,NA,NA,NA,NA,NA,NA,NA,NA,NA,NA,NA,NA,NA,NA,NA,NA,NA,NA,NA
50030,shallow,flow.Sequence,3_0_2_0_2_1,NA,NA,skipped,NA,504045.80000019,NA,NA,504044.7,504045.89999962,2024-04-13T09:36:40Z,504061.5,NULL,Kultur,utamaduni,d,NA,NA,NA,NA,sdf,NA,2,NA,NA,NA,NA,NA,NA,NA,NA,NA,NA,NA,NA,NA,NA,NA,NA,NA,NA,NA
50030,task,flow.Sequence,3_0_2_0_2,NA,NA,completion,11783.2,492249.89999962,492244.7,492261.5,504044.7,504046,2024-04-13T09:36:40Z,504061.5,NULL,Kultur,utamaduni,d,NA,NA,NA,NA,sdf,NA,2,NA,NA,NA,NA,NA,NA,NA,NA,NA,NA,NA,NA,NA,NA,NA,NA,NA,NA,NA
50030,Deep Question,html.Page,3_0_2_0_3_0_0,NA,NA,form submission,5902.3000001907,504046.10000038,504044.7,504061.5,509963.80000019,509964,2024-04-13T09:36:46Z,509994.7,NULL,Sympathie,mapendano,d,NA,NA,NA,kuchalewa,NA,NA,2,NA,NA,NA,NA,NA,NA,NA,NA,NA,NA,NA,NA,NA,NA,NA,NA,NA,NA,NA
50030,"""Richtig""-Screen",canvas.Screen,3_0_2_0_3_0_1,NA,NA,skipped,NA,509965.60000038,NA,NA,509963.80000019,509965.80000019,2024-04-13T09:36:46Z,509994.7,NULL,Sympathie,mapendano,d,NA,NA,NA,NA,sdf,NA,2,NA,NA,NA,NA,NA,NA,NA,NA,NA,NA,NA,NA,NA,NA,NA,NA,NA,NA,NA
50030,"""Falsch""-Screen",canvas.Screen,3_0_2_0_3_0_2,NA,NA,timeout,5000.1,509966.30000019,509978.162,509994.7,514978,514978.69999981,2024-04-13T09:36:51Z,514994.8,NULL,Sympathie,mapendano,d,NA,NA,NA,NA,sdf,0,2,NA,NA,NA,NA,NA,NA,NA,NA,NA,NA,NA,NA,NA,NA,NA,NA,NA,NA,NA
50030,deep,flow.Sequence,3_0_2_0_3_0,NA,NA,completion,10916.5,504046,504044.7,504061.5,514978,514979.10000038,2024-04-13T09:36:51Z,514994.8,NULL,Sympathie,mapendano,d,NA,NA,NA,NA,sdf,NA,2,NA,NA,NA,NA,NA,NA,NA,NA,NA,NA,NA,NA,NA,NA,NA,NA,NA,NA,NA
50030,shallow,flow.Sequence,3_0_2_0_3_1,NA,NA,skipped,NA,514979.19999981,NA,NA,514978,514979.19999981,2024-04-13T09:36:51Z,514994.8,NULL,Sympathie,mapendano,d,NA,NA,NA,NA,sdf,NA,2,NA,NA,NA,NA,NA,NA,NA,NA,NA,NA,NA,NA,NA,NA,NA,NA,NA,NA,NA
50030,task,flow.Sequence,3_0_2_0_3,NA,NA,completion,10916.5,504046,504044.7,504061.5,514978,514979.39999962,2024-04-13T09:36:51Z,514994.8,NULL,Sympathie,mapendano,d,NA,NA,NA,NA,sdf,NA,2,NA,NA,NA,NA,NA,NA,NA,NA,NA,NA,NA,NA,NA,NA,NA,NA,NA,NA,NA
50030,Deep Question,html.Page,3_0_2_0_4_0_0,NA,NA,form submission,6792.3999998093,514979.5,514978,514994.8,521787.19999981,521787.39999962,2024-04-13T09:36:58Z,521794.6,NULL,Verzögerung,kuchelewa,d,NA,NA,NA,kuchalewa,NA,NA,2,NA,NA,NA,NA,NA,NA,NA,NA,NA,NA,NA,NA,NA,NA,NA,NA,NA,NA,NA
50030,"""Richtig""-Screen",canvas.Screen,3_0_2_0_4_0_1,NA,NA,skipped,NA,521789.10000038,NA,NA,521787.19999981,521789.30000019,2024-04-13T09:36:58Z,521794.6,NULL,Verzögerung,kuchelewa,d,NA,NA,NA,NA,sdf,NA,2,NA,NA,NA,NA,NA,NA,NA,NA,NA,NA,NA,NA,NA,NA,NA,NA,NA,NA,NA
50030,"""Falsch""-Screen",canvas.Screen,3_0_2_0_4_0_2,NA,NA,timeout,5000.2000000001,521789.80000019,521778.15,521794.6,526778,526778.69999981,2024-04-13T09:37:03Z,526794.8,NULL,Verzögerung,kuchelewa,d,NA,NA,NA,NA,sdf,0,2,NA,NA,NA,NA,NA,NA,NA,NA,NA,NA,NA,NA,NA,NA,NA,NA,NA,NA,NA
50030,deep,flow.Sequence,3_0_2_0_4_0,NA,NA,completion,11783.2,514979.5,514978,514994.8,526778,526779,2024-04-13T09:37:03Z,526794.8,NULL,Verzögerung,kuchelewa,d,NA,NA,NA,NA,sdf,NA,2,NA,NA,NA,NA,NA,NA,NA,NA,NA,NA,NA,NA,NA,NA,NA,NA,NA,NA,NA
50030,shallow,flow.Sequence,3_0_2_0_4_1,NA,NA,skipped,NA,526779,NA,NA,526778,526779.10000038,2024-04-13T09:37:03Z,526794.8,NULL,Verzögerung,kuchelewa,d,NA,NA,NA,NA,sdf,NA,2,NA,NA,NA,NA,NA,NA,NA,NA,NA,NA,NA,NA,NA,NA,NA,NA,NA,NA,NA
50030,task,flow.Sequence,3_0_2_0_4,NA,NA,completion,11783.2,514979.39999962,514978,514994.8,526778,526779.30000019,2024-04-13T09:37:03Z,526794.8,NULL,Verzögerung,kuchelewa,d,NA,NA,NA,NA,sdf,NA,2,NA,NA,NA,NA,NA,NA,NA,NA,NA,NA,NA,NA,NA,NA,NA,NA,NA,NA,NA
50030,deep,flow.Sequence,3_0_2_0_5_0,NA,NA,skipped,NA,526779.39999962,NA,NA,526778,526779.39999962,2024-04-13T09:37:03Z,526794.8,NULL,Polizist,msongora,s,simanzi,mandhari,nidhamu,NA,sdf,NA,2,NA,NA,NA,NA,NA,NA,NA,NA,NA,NA,NA,NA,NA,NA,NA,NA,NA,NA,NA
50030,Shallow Question,html.Page,3_0_2_0_5_1_0,NA,NA,form submission,4350.3000003814,526779.5,526778,526794.8,531145.10000038,531145.30000019,2024-04-13T09:37:07Z,531161.7,NULL,Polizist,msongora,s,simanzi,mandhari,nidhamu,mandhari,NA,NA,2,NA,NA,NA,NA,NA,NA,NA,NA,NA,NA,NA,NA,NA,NA,NA,NA,NA,NA,NA
50030,"""Richtig""-Screen",canvas.Screen,3_0_2_0_5_1_1,NA,NA,skipped,NA,531146.89999962,NA,NA,531145.10000038,531147,2024-04-13T09:37:07Z,531161.7,NULL,Polizist,msongora,s,simanzi,mandhari,nidhamu,NA,sdf,NA,2,NA,NA,NA,NA,NA,NA,NA,NA,NA,NA,NA,NA,NA,NA,NA,NA,NA,NA,NA
50030,"""Falsch""-Screen",canvas.Screen,3_0_2_0_5_1_2,NA,NA,timeout,4999.7000000001,531147.60000038,531144.79,531161.7,536144.7,536145.39999962,2024-04-13T09:37:12Z,536161.4,NULL,Polizist,msongora,s,simanzi,mandhari,nidhamu,NA,sdf,0,2,NA,NA,NA,NA,NA,NA,NA,NA,NA,NA,NA,NA,NA,NA,NA,NA,NA,NA,NA
50030,shallow,flow.Sequence,3_0_2_0_5_1,NA,NA,completion,9349.8999999999,526779.39999962,526778,526794.8,536144.7,536145.69999981,2024-04-13T09:37:12Z,536161.4,NULL,Polizist,msongora,s,simanzi,mandhari,nidhamu,NA,sdf,NA,2,NA,NA,NA,NA,NA,NA,NA,NA,NA,NA,NA,NA,NA,NA,NA,NA,NA,NA,NA
50030,task,flow.Sequence,3_0_2_0_5,NA,NA,completion,9349.8999999999,526779.30000019,526778,526794.8,536144.7,536145.80000019,2024-04-13T09:37:12Z,536161.4,NULL,Polizist,msongora,s,simanzi,mandhari,nidhamu,NA,sdf,NA,2,NA,NA,NA,NA,NA,NA,NA,NA,NA,NA,NA,NA,NA,NA,NA,NA,NA,NA,NA
50030,Deep Question,html.Page,3_0_2_0_6_0_0,NA,NA,form submission,31345.6,536146,536144.7,536161.4,567507,567507.30000019,2024-04-13T09:37:44Z,567511.3,NULL,Annäherung,maegesho,d,NA,NA,NA,kuchelewa,NA,NA,2,NA,NA,NA,NA,NA,NA,NA,NA,NA,NA,NA,NA,NA,NA,NA,NA,NA,NA,NA
50030,"""Richtig""-Screen",canvas.Screen,3_0_2_0_6_0_1,NA,NA,skipped,NA,567508.89999962,NA,NA,567507,567509,2024-04-13T09:37:44Z,567511.3,NULL,Annäherung,maegesho,d,NA,NA,NA,NA,sdf,NA,2,NA,NA,NA,NA,NA,NA,NA,NA,NA,NA,NA,NA,NA,NA,NA,NA,NA,NA,NA
50030,"""Falsch""-Screen",canvas.Screen,3_0_2_0_6_0_2,NA,NA,timeout,5000,567509.60000038,567494.786,567511.3,572494.7,572495.30000019,2024-04-13T09:37:49Z,572511.3,NULL,Annäherung,maegesho,d,NA,NA,NA,NA,sdf,0,2,NA,NA,NA,NA,NA,NA,NA,NA,NA,NA,NA,NA,NA,NA,NA,NA,NA,NA,NA
50030,deep,flow.Sequence,3_0_2_0_6_0,NA,NA,completion,36333.3,536145.89999962,536144.7,536161.4,572494.7,572495.60000038,2024-04-13T09:37:49Z,572511.3,NULL,Annäherung,maegesho,d,NA,NA,NA,NA,sdf,NA,2,NA,NA,NA,NA,NA,NA,NA,NA,NA,NA,NA,NA,NA,NA,NA,NA,NA,NA,NA
50030,shallow,flow.Sequence,3_0_2_0_6_1,NA,NA,skipped,NA,572495.69999981,NA,NA,572494.7,572495.69999981,2024-04-13T09:37:49Z,572511.3,NULL,Annäherung,maegesho,d,NA,NA,NA,NA,sdf,NA,2,NA,NA,NA,NA,NA,NA,NA,NA,NA,NA,NA,NA,NA,NA,NA,NA,NA,NA,NA
50030,task,flow.Sequence,3_0_2_0_6,NA,NA,completion,36333.3,536145.89999962,536144.7,536161.4,572494.7,572495.89999962,2024-04-13T09:37:49Z,572511.3,NULL,Annäherung,maegesho,d,NA,NA,NA,NA,sdf,NA,2,NA,NA,NA,NA,NA,NA,NA,NA,NA,NA,NA,NA,NA,NA,NA,NA,NA,NA,NA
50030,deep,flow.Sequence,3_0_2_0_7_0,NA,NA,skipped,NA,572496,NA,NA,572494.7,572496.10000038,2024-04-13T09:37:49Z,572511.3,NULL,Aufstand,ugomaji,s,mazidio,msingi,kujieleza,NA,sdf,NA,2,NA,NA,NA,NA,NA,NA,NA,NA,NA,NA,NA,NA,NA,NA,NA,NA,NA,NA,NA
50030,Shallow Question,html.Page,3_0_2_0_7_1_0,NA,NA,form submission,4108.5999996185,572496.10000038,572494.7,572511.3,576619.89999962,576620.10000038,2024-04-13T09:37:53Z,576627.9,NULL,Aufstand,ugomaji,s,mazidio,msingi,kujieleza,ugomaji,NA,NA,2,NA,NA,NA,NA,NA,NA,NA,NA,NA,NA,NA,NA,NA,NA,NA,NA,NA,NA,NA
50030,"""Richtig""-Screen",canvas.Screen,3_0_2_0_7_1_1,NA,NA,timeout,5000.1,576621.80000019,576611.474,576627.9,581611.4,581612,2024-04-13T09:37:58Z,581628,NULL,Aufstand,ugomaji,s,mazidio,msingi,kujieleza,NA,sdf,1,2,NA,NA,NA,NA,NA,NA,NA,NA,NA,NA,NA,NA,NA,NA,NA,NA,NA,NA,NA
50030,"""Falsch""-Screen",canvas.Screen,3_0_2_0_7_1_2,NA,NA,skipped,NA,581616.10000038,NA,NA,581611.4,581616.39999962,2024-04-13T09:37:58Z,581628,NULL,Aufstand,ugomaji,s,mazidio,msingi,kujieleza,NA,sdf,NA,2,NA,NA,NA,NA,NA,NA,NA,NA,NA,NA,NA,NA,NA,NA,NA,NA,NA,NA,NA
50030,shallow,flow.Sequence,3_0_2_0_7_1,NA,NA,completion,9100.1,572496.10000038,572494.7,572511.3,581611.4,581616.5,2024-04-13T09:37:58Z,581628,NULL,Aufstand,ugomaji,s,mazidio,msingi,kujieleza,NA,sdf,NA,2,NA,NA,NA,NA,NA,NA,NA,NA,NA,NA,NA,NA,NA,NA,NA,NA,NA,NA,NA
50030,task,flow.Sequence,3_0_2_0_7,NA,NA,completion,9100.1,572496,572494.7,572511.3,581611.4,581616.60000038,2024-04-13T09:37:58Z,581628,NULL,Aufstand,ugomaji,s,mazidio,msingi,kujieleza,NA,sdf,NA,2,NA,NA,NA,NA,NA,NA,NA,NA,NA,NA,NA,NA,NA,NA,NA,NA,NA,NA,NA
50030,block,flow.Loop,3_0_2_0,NA,NA,completion,115583.138,466027.5,466028.262,466028.262,581611.4,581616.80000019,2024-04-13T09:37:58Z,581628,NULL,NA,NA,NA,NA,NA,NA,NA,sdf,NA,2,NA,NA,NA,NA,NA,NA,NA,NA,NA,NA,NA,NA,NA,NA,NA,NA,NA,NA,NA
50030,weiter,canvas.Screen,3_0_2_1,sdf,keypress(Space),response,1840.6999998093,581616.89999962,581611.4,581628,583468.69999981,583469.60000038,2024-04-13T09:38:00Z,583494.73,NULL,NA,NA,NA,NA,NA,NA,NA,sdf,NA,2,NA,NA,NA,NA,NA,NA,NA,NA,NA,NA,NA,NA,NA,NA,NA,NA,NA,NA,NA
50030,check continue,flow.Sequence,3_0_2,NA,NA,completion,117440.43799981,466027.5,466028.262,466028.262,583468.69999981,583469.69999981,2024-04-13T09:38:00Z,583494.73,NULL,NA,NA,NA,NA,NA,NA,NA,sdf,NA,2,NA,NA,NA,NA,NA,NA,NA,NA,NA,NA,NA,NA,NA,NA,NA,NA,NA,NA,NA
50030,deep,flow.Sequence,3_0_3_0_0_0,NA,NA,skipped,NA,583504.10000038,NA,NA,583468.69999981,583504.30000019,2024-04-13T09:38:00Z,583494.73,NULL,Prüfung,mtihani,s,mkulima,mtizamo,ufumbuzi,NA,qt,NA,3,NA,NA,NA,NA,NA,NA,NA,NA,NA,NA,NA,NA,NA,NA,NA,NA,NA,NA,NA
50030,Shallow Question,html.Page,3_0_3_0_0_1_0,NA,NA,form submission,7251.3700003815,583504.30000019,583494.73,583494.73,590746.10000038,590746.19999981,2024-04-13T09:38:07Z,590761.4,NULL,Prüfung,mtihani,s,mkulima,mtizamo,ufumbuzi,mtizamo,NA,NA,3,NA,NA,NA,NA,NA,NA,NA,NA,NA,NA,NA,NA,NA,NA,NA,NA,NA,NA,NA
50030,"""Richtig""-Screen",canvas.Screen,3_0_3_0_0_1_1,NA,NA,skipped,NA,590748,NA,NA,590746.10000038,590748.10000038,2024-04-13T09:38:07Z,590761.4,NULL,Prüfung,mtihani,s,mkulima,mtizamo,ufumbuzi,NA,qt,NA,3,NA,NA,NA,NA,NA,NA,NA,NA,NA,NA,NA,NA,NA,NA,NA,NA,NA,NA,NA
50030,"""Falsch""-Screen",canvas.Screen,3_0_3_0_0_1_2,NA,NA,timeout,5000,590748.5,590744.796,590761.4,595744.7,595745.39999962,2024-04-13T09:38:12Z,595761.4,NULL,Prüfung,mtihani,s,mkulima,mtizamo,ufumbuzi,NA,qt,0,3,NA,NA,NA,NA,NA,NA,NA,NA,NA,NA,NA,NA,NA,NA,NA,NA,NA,NA,NA
50030,shallow,flow.Sequence,3_0_3_0_0_1,NA,NA,completion,12249.97,583504.30000019,583494.73,583494.73,595744.7,595745.69999981,2024-04-13T09:38:12Z,595761.4,NULL,Prüfung,mtihani,s,mkulima,mtizamo,ufumbuzi,NA,qt,NA,3,NA,NA,NA,NA,NA,NA,NA,NA,NA,NA,NA,NA,NA,NA,NA,NA,NA,NA,NA
50030,task,flow.Sequence,3_0_3_0_0,NA,NA,completion,12249.97,583504.10000038,583494.73,583494.73,595744.7,595745.80000019,2024-04-13T09:38:12Z,595761.4,NULL,Prüfung,mtihani,s,mkulima,mtizamo,ufumbuzi,NA,qt,NA,3,NA,NA,NA,NA,NA,NA,NA,NA,NA,NA,NA,NA,NA,NA,NA,NA,NA,NA,NA
50030,Deep Question,html.Page,3_0_3_0_1_0_0,NA,NA,form submission,9291.2999998092,595746,595744.7,595761.4,605052.69999981,605052.89999962,2024-04-13T09:38:21Z,605061.4,NULL,Verzögerung,kuchelewa,d,NA,NA,NA,kuchelewa,NA,NA,3,NA,NA,NA,NA,NA,NA,NA,NA,NA,NA,NA,NA,NA,NA,NA,NA,NA,NA,NA
50030,"""Richtig""-Screen",canvas.Screen,3_0_3_0_1_0_1,NA,NA,timeout,4999.9,605054.60000038,605044.7,605061.4,610044.7,610046,2024-04-13T09:38:26Z,610061.3,NULL,Verzögerung,kuchelewa,d,NA,NA,NA,NA,qt,1,3,NA,NA,NA,NA,NA,NA,NA,NA,NA,NA,NA,NA,NA,NA,NA,NA,NA,NA,NA
50030,"""Falsch""-Screen",canvas.Screen,3_0_3_0_1_0_2,NA,NA,skipped,NA,610049.89999962,NA,NA,610044.7,610050,2024-04-13T09:38:26Z,610061.3,NULL,Verzögerung,kuchelewa,d,NA,NA,NA,NA,qt,NA,3,NA,NA,NA,NA,NA,NA,NA,NA,NA,NA,NA,NA,NA,NA,NA,NA,NA,NA,NA
50030,deep,flow.Sequence,3_0_3_0_1_0,NA,NA,completion,14283.3,595745.89999962,595744.7,595761.4,610044.7,610050.30000019,2024-04-13T09:38:26Z,610061.3,NULL,Verzögerung,kuchelewa,d,NA,NA,NA,NA,qt,NA,3,NA,NA,NA,NA,NA,NA,NA,NA,NA,NA,NA,NA,NA,NA,NA,NA,NA,NA,NA
50030,shallow,flow.Sequence,3_0_3_0_1_1,NA,NA,skipped,NA,610050.39999962,NA,NA,610044.7,610050.5,2024-04-13T09:38:26Z,610061.3,NULL,Verzögerung,kuchelewa,d,NA,NA,NA,NA,qt,NA,3,NA,NA,NA,NA,NA,NA,NA,NA,NA,NA,NA,NA,NA,NA,NA,NA,NA,NA,NA
50030,task,flow.Sequence,3_0_3_0_1,NA,NA,completion,14283.3,595745.89999962,595744.7,595761.4,610044.7,610050.60000038,2024-04-13T09:38:26Z,610061.3,NULL,Verzögerung,kuchelewa,d,NA,NA,NA,NA,qt,NA,3,NA,NA,NA,NA,NA,NA,NA,NA,NA,NA,NA,NA,NA,NA,NA,NA,NA,NA,NA
50030,deep,flow.Sequence,3_0_3_0_2_0,NA,NA,skipped,NA,610050.60000038,NA,NA,610044.7,610050.69999981,2024-04-13T09:38:26Z,610061.3,NULL,Polizist,msongora,s,simanzi,mandhari,nidhamu,NA,qt,NA,3,NA,NA,NA,NA,NA,NA,NA,NA,NA,NA,NA,NA,NA,NA,NA,NA,NA,NA,NA
50030,Shallow Question,html.Page,3_0_3_0_2_1_0,NA,NA,form submission,5891.5999996185,610050.80000019,610044.7,610061.3,615952.89999962,615953.10000038,2024-04-13T09:38:32Z,615961.414,NULL,Polizist,msongora,s,simanzi,mandhari,nidhamu,mandhari,NA,NA,3,NA,NA,NA,NA,NA,NA,NA,NA,NA,NA,NA,NA,NA,NA,NA,NA,NA,NA,NA
50030,"""Richtig""-Screen",canvas.Screen,3_0_3_0_2_1_1,NA,NA,skipped,NA,615954.60000038,NA,NA,615952.89999962,615954.80000019,2024-04-13T09:38:32Z,615961.414,NULL,Polizist,msongora,s,simanzi,mandhari,nidhamu,NA,qt,NA,3,NA,NA,NA,NA,NA,NA,NA,NA,NA,NA,NA,NA,NA,NA,NA,NA,NA,NA,NA
50030,"""Falsch""-Screen",canvas.Screen,3_0_3_0_2_1_2,NA,NA,timeout,4999.8860000001,615955.30000019,615961.414,615961.414,620944.7,620945.30000019,2024-04-13T09:38:37Z,620961.3,NULL,Polizist,msongora,s,simanzi,mandhari,nidhamu,NA,qt,0,3,NA,NA,NA,NA,NA,NA,NA,NA,NA,NA,NA,NA,NA,NA,NA,NA,NA,NA,NA
50030,shallow,flow.Sequence,3_0_3_0_2_1,NA,NA,completion,10883.4,610050.80000019,610044.7,610061.3,620944.7,620945.69999981,2024-04-13T09:38:37Z,620961.3,NULL,Polizist,msongora,s,simanzi,mandhari,nidhamu,NA,qt,NA,3,NA,NA,NA,NA,NA,NA,NA,NA,NA,NA,NA,NA,NA,NA,NA,NA,NA,NA,NA
50030,task,flow.Sequence,3_0_3_0_2,NA,NA,completion,10883.4,610050.60000038,610044.7,610061.3,620944.7,620945.80000019,2024-04-13T09:38:37Z,620961.3,NULL,Polizist,msongora,s,simanzi,mandhari,nidhamu,NA,qt,NA,3,NA,NA,NA,NA,NA,NA,NA,NA,NA,NA,NA,NA,NA,NA,NA,NA,NA,NA,NA
50030,deep,flow.Sequence,3_0_3_0_3_0,NA,NA,skipped,NA,620945.89999962,NA,NA,620944.7,620946,2024-04-13T09:38:37Z,620961.3,NULL,Beweis,ushahidi,s,marudio,kizuizi,mtendaji,NA,qt,NA,3,NA,NA,NA,NA,NA,NA,NA,NA,NA,NA,NA,NA,NA,NA,NA,NA,NA,NA,NA
50030,Shallow Question,html.Page,3_0_3_0_3_1_0,NA,NA,form submission,7934.5000001907,620946.10000038,620944.7,620961.3,628895.80000019,628896,2024-04-13T09:38:45Z,628911.4,NULL,Beweis,ushahidi,s,marudio,kizuizi,mtendaji,mtendaji,NA,NA,3,NA,NA,NA,NA,NA,NA,NA,NA,NA,NA,NA,NA,NA,NA,NA,NA,NA,NA,NA
50030,"""Richtig""-Screen",canvas.Screen,3_0_3_0_3_1_1,NA,NA,skipped,NA,628897.80000019,NA,NA,628895.80000019,628897.80000019,2024-04-13T09:38:45Z,628911.4,NULL,Beweis,ushahidi,s,marudio,kizuizi,mtendaji,NA,qt,NA,3,NA,NA,NA,NA,NA,NA,NA,NA,NA,NA,NA,NA,NA,NA,NA,NA,NA,NA,NA
50030,"""Falsch""-Screen",canvas.Screen,3_0_3_0_3_1_2,NA,NA,timeout,5000,628898.30000019,628894.742,628911.4,633894.7,633895.30000019,2024-04-13T09:38:50Z,633911.4,NULL,Beweis,ushahidi,s,marudio,kizuizi,mtendaji,NA,qt,0,3,NA,NA,NA,NA,NA,NA,NA,NA,NA,NA,NA,NA,NA,NA,NA,NA,NA,NA,NA
50030,shallow,flow.Sequence,3_0_3_0_3_1,NA,NA,completion,12933.4,620946.10000038,620944.7,620961.3,633894.7,633895.5,2024-04-13T09:38:50Z,633911.4,NULL,Beweis,ushahidi,s,marudio,kizuizi,mtendaji,NA,qt,NA,3,NA,NA,NA,NA,NA,NA,NA,NA,NA,NA,NA,NA,NA,NA,NA,NA,NA,NA,NA
50030,task,flow.Sequence,3_0_3_0_3,NA,NA,completion,12933.4,620945.89999962,620944.7,620961.3,633894.7,633895.69999981,2024-04-13T09:38:50Z,633911.4,NULL,Beweis,ushahidi,s,marudio,kizuizi,mtendaji,NA,qt,NA,3,NA,NA,NA,NA,NA,NA,NA,NA,NA,NA,NA,NA,NA,NA,NA,NA,NA,NA,NA
50030,Deep Question,html.Page,3_0_3_0_4_0_0,NA,NA,form submission,5971.4999996185,633895.80000019,633894.7,633911.4,639882.89999962,639883.10000038,2024-04-13T09:38:56Z,639894.6,NULL,Sympathie,mapendano,d,NA,NA,NA,kuchelewa,NA,NA,3,NA,NA,NA,NA,NA,NA,NA,NA,NA,NA,NA,NA,NA,NA,NA,NA,NA,NA,NA
50030,"""Richtig""-Screen",canvas.Screen,3_0_3_0_4_0_1,NA,NA,skipped,NA,639884.80000019,NA,NA,639882.89999962,639885,2024-04-13T09:38:56Z,639894.6,NULL,Sympathie,mapendano,d,NA,NA,NA,NA,qt,NA,3,NA,NA,NA,NA,NA,NA,NA,NA,NA,NA,NA,NA,NA,NA,NA,NA,NA,NA,NA
50030,"""Falsch""-Screen",canvas.Screen,3_0_3_0_4_0_2,NA,NA,timeout,5000,639885.39999962,639878.074,639894.6,644878,644878.60000038,2024-04-13T09:39:01Z,644894.6,NULL,Sympathie,mapendano,d,NA,NA,NA,NA,qt,0,3,NA,NA,NA,NA,NA,NA,NA,NA,NA,NA,NA,NA,NA,NA,NA,NA,NA,NA,NA
50030,deep,flow.Sequence,3_0_3_0_4_0,NA,NA,completion,10966.6,633895.80000019,633894.7,633911.4,644878,644878.89999962,2024-04-13T09:39:01Z,644894.6,NULL,Sympathie,mapendano,d,NA,NA,NA,NA,qt,NA,3,NA,NA,NA,NA,NA,NA,NA,NA,NA,NA,NA,NA,NA,NA,NA,NA,NA,NA,NA
50030,shallow,flow.Sequence,3_0_3_0_4_1,NA,NA,skipped,NA,644878.89999962,NA,NA,644878,644879,2024-04-13T09:39:01Z,644894.6,NULL,Sympathie,mapendano,d,NA,NA,NA,NA,qt,NA,3,NA,NA,NA,NA,NA,NA,NA,NA,NA,NA,NA,NA,NA,NA,NA,NA,NA,NA,NA
50030,task,flow.Sequence,3_0_3_0_4,NA,NA,completion,10966.6,633895.69999981,633894.7,633911.4,644878,644879.19999981,2024-04-13T09:39:01Z,644894.6,NULL,Sympathie,mapendano,d,NA,NA,NA,NA,qt,NA,3,NA,NA,NA,NA,NA,NA,NA,NA,NA,NA,NA,NA,NA,NA,NA,NA,NA,NA,NA
50030,deep,flow.Sequence,3_0_3_0_5_0,NA,NA,skipped,NA,644879.19999981,NA,NA,644878,644879.39999962,2024-04-13T09:39:01Z,644894.6,NULL,Aufstand,ugomaji,s,mazidio,msingi,kujieleza,NA,qt,NA,3,NA,NA,NA,NA,NA,NA,NA,NA,NA,NA,NA,NA,NA,NA,NA,NA,NA,NA,NA
50030,Shallow Question,html.Page,3_0_3_0_5_1_0,NA,NA,form submission,7858.2000001908,644879.39999962,644878,644894.6,652752.80000019,652753,2024-04-13T09:39:09Z,652761.3,NULL,Aufstand,ugomaji,s,mazidio,msingi,kujieleza,ugomaji,NA,NA,3,NA,NA,NA,NA,NA,NA,NA,NA,NA,NA,NA,NA,NA,NA,NA,NA,NA,NA,NA
50030,"""Richtig""-Screen",canvas.Screen,3_0_3_0_5_1_1,NA,NA,timeout,5000.1,652754.60000038,652744.736,652761.3,657744.6,657745.30000019,2024-04-13T09:39:14Z,657761.4,NULL,Aufstand,ugomaji,s,mazidio,msingi,kujieleza,NA,qt,1,3,NA,NA,NA,NA,NA,NA,NA,NA,NA,NA,NA,NA,NA,NA,NA,NA,NA,NA,NA
50030,"""Falsch""-Screen",canvas.Screen,3_0_3_0_5_1_2,NA,NA,skipped,NA,657749.30000019,NA,NA,657744.6,657749.5,2024-04-13T09:39:14Z,657761.4,NULL,Aufstand,ugomaji,s,mazidio,msingi,kujieleza,NA,qt,NA,3,NA,NA,NA,NA,NA,NA,NA,NA,NA,NA,NA,NA,NA,NA,NA,NA,NA,NA,NA
50030,shallow,flow.Sequence,3_0_3_0_5_1,NA,NA,completion,12850,644879.39999962,644878,644894.6,657744.6,657749.69999981,2024-04-13T09:39:14Z,657761.4,NULL,Aufstand,ugomaji,s,mazidio,msingi,kujieleza,NA,qt,NA,3,NA,NA,NA,NA,NA,NA,NA,NA,NA,NA,NA,NA,NA,NA,NA,NA,NA,NA,NA
50030,task,flow.Sequence,3_0_3_0_5,NA,NA,completion,12850,644879.19999981,644878,644894.6,657744.6,657749.80000019,2024-04-13T09:39:14Z,657761.4,NULL,Aufstand,ugomaji,s,mazidio,msingi,kujieleza,NA,qt,NA,3,NA,NA,NA,NA,NA,NA,NA,NA,NA,NA,NA,NA,NA,NA,NA,NA,NA,NA,NA
50030,Deep Question,html.Page,3_0_3_0_6_0_0,NA,NA,form submission,5583.4999996185,657749.89999962,657744.6,657761.4,663344.89999962,663345.10000038,2024-04-13T09:39:19Z,663361.6,NULL,Kultur,utamaduni,d,NA,NA,NA,kuchelewa,NA,NA,3,NA,NA,NA,NA,NA,NA,NA,NA,NA,NA,NA,NA,NA,NA,NA,NA,NA,NA,NA
50030,"""Richtig""-Screen",canvas.Screen,3_0_3_0_6_0_1,NA,NA,skipped,NA,663346.60000038,NA,NA,663344.89999962,663346.80000019,2024-04-13T09:39:19Z,663361.6,NULL,Kultur,utamaduni,d,NA,NA,NA,NA,qt,NA,3,NA,NA,NA,NA,NA,NA,NA,NA,NA,NA,NA,NA,NA,NA,NA,NA,NA,NA,NA
50030,"""Falsch""-Screen",canvas.Screen,3_0_3_0_6_0_2,NA,NA,timeout,4999.8,663347.30000019,663344.726,663361.6,668344.6,668345.5,2024-04-13T09:39:24Z,668361.4,NULL,Kultur,utamaduni,d,NA,NA,NA,NA,qt,0,3,NA,NA,NA,NA,NA,NA,NA,NA,NA,NA,NA,NA,NA,NA,NA,NA,NA,NA,NA
50030,deep,flow.Sequence,3_0_3_0_6_0,NA,NA,completion,10583.2,657749.80000019,657744.6,657761.4,668344.6,668345.69999981,2024-04-13T09:39:24Z,668361.4,NULL,Kultur,utamaduni,d,NA,NA,NA,NA,qt,NA,3,NA,NA,NA,NA,NA,NA,NA,NA,NA,NA,NA,NA,NA,NA,NA,NA,NA,NA,NA
50030,shallow,flow.Sequence,3_0_3_0_6_1,NA,NA,skipped,NA,668345.89999962,NA,NA,668344.6,668346,2024-04-13T09:39:24Z,668361.4,NULL,Kultur,utamaduni,d,NA,NA,NA,NA,qt,NA,3,NA,NA,NA,NA,NA,NA,NA,NA,NA,NA,NA,NA,NA,NA,NA,NA,NA,NA,NA
50030,task,flow.Sequence,3_0_3_0_6,NA,NA,completion,10583.2,657749.80000019,657744.6,657761.4,668344.6,668346,2024-04-13T09:39:24Z,668361.4,NULL,Kultur,utamaduni,d,NA,NA,NA,NA,qt,NA,3,NA,NA,NA,NA,NA,NA,NA,NA,NA,NA,NA,NA,NA,NA,NA,NA,NA,NA,NA
50030,Deep Question,html.Page,3_0_3_0_7_0_0,NA,NA,form submission,5554.4999996185,668346.30000019,668344.6,668361.4,673915.89999962,673916.10000038,2024-04-13T09:39:30Z,673927.9,NULL,Annäherung,maegesho,d,NA,NA,NA,kuchelewa,NA,NA,3,NA,NA,NA,NA,NA,NA,NA,NA,NA,NA,NA,NA,NA,NA,NA,NA,NA,NA,NA
50030,"""Richtig""-Screen",canvas.Screen,3_0_3_0_7_0_1,NA,NA,skipped,NA,673917.89999962,NA,NA,673915.89999962,673918,2024-04-13T09:39:30Z,673927.9,NULL,Annäherung,maegesho,d,NA,NA,NA,NA,qt,NA,3,NA,NA,NA,NA,NA,NA,NA,NA,NA,NA,NA,NA,NA,NA,NA,NA,NA,NA,NA
50030,"""Falsch""-Screen",canvas.Screen,3_0_3_0_7_0_2,NA,NA,timeout,5000.1,673918.69999981,673912.2,673927.9,678911.3,678912.80000019,2024-04-13T09:39:35Z,678928,NULL,Annäherung,maegesho,d,NA,NA,NA,NA,qt,0,3,NA,NA,NA,NA,NA,NA,NA,NA,NA,NA,NA,NA,NA,NA,NA,NA,NA,NA,NA
50030,deep,flow.Sequence,3_0_3_0_7_0,NA,NA,completion,10549.9,668346.19999981,668344.6,668361.4,678911.3,678913,2024-04-13T09:39:35Z,678928,NULL,Annäherung,maegesho,d,NA,NA,NA,NA,qt,NA,3,NA,NA,NA,NA,NA,NA,NA,NA,NA,NA,NA,NA,NA,NA,NA,NA,NA,NA,NA
50030,shallow,flow.Sequence,3_0_3_0_7_1,NA,NA,skipped,NA,678913.10000038,NA,NA,678911.3,678913.19999981,2024-04-13T09:39:35Z,678928,NULL,Annäherung,maegesho,d,NA,NA,NA,NA,qt,NA,3,NA,NA,NA,NA,NA,NA,NA,NA,NA,NA,NA,NA,NA,NA,NA,NA,NA,NA,NA
50030,task,flow.Sequence,3_0_3_0_7,NA,NA,completion,10549.9,668346.19999981,668344.6,668361.4,678911.3,678913.30000019,2024-04-13T09:39:35Z,678928,NULL,Annäherung,maegesho,d,NA,NA,NA,NA,qt,NA,3,NA,NA,NA,NA,NA,NA,NA,NA,NA,NA,NA,NA,NA,NA,NA,NA,NA,NA,NA
50030,block,flow.Loop,3_0_3_0,NA,NA,completion,95416.57,583504.10000038,583494.73,583494.73,678911.3,678913.5,2024-04-13T09:39:35Z,678928,NULL,NA,NA,NA,NA,NA,NA,NA,qt,NA,3,NA,NA,NA,NA,NA,NA,NA,NA,NA,NA,NA,NA,NA,NA,NA,NA,NA,NA,NA
50030,weiter,canvas.Screen,3_0_3_1,sdf,keypress(Space),response,1059.8999996185,678913.5,678911.3,678928,679987.89999962,679988.60000038,2024-04-13T09:39:36Z,680027.9,NULL,NA,NA,NA,NA,NA,NA,NA,qt,NA,3,NA,NA,NA,NA,NA,NA,NA,NA,NA,NA,NA,NA,NA,NA,NA,NA,NA,NA,NA
50030,check continue,flow.Sequence,3_0_3,NA,NA,completion,96493.169999619,583504.10000038,583494.73,583494.73,679987.89999962,679988.89999962,2024-04-13T09:39:36Z,680027.9,NULL,NA,NA,NA,NA,NA,NA,NA,qt,NA,3,NA,NA,NA,NA,NA,NA,NA,NA,NA,NA,NA,NA,NA,NA,NA,NA,NA,NA,NA
50030,deep,flow.Sequence,3_0_4_0_0_0,NA,NA,skipped,NA,680026,NA,NA,679987.89999962,680026,2024-04-13T09:39:36Z,680027.9,NULL,Aufstand,ugomaji,s,mazidio,msingi,kujieleza,NA,sd,NA,4,NA,NA,NA,NA,NA,NA,NA,NA,NA,NA,NA,NA,NA,NA,NA,NA,NA,NA,NA
50030,Shallow Question,html.Page,3_0_4_0_0_1_0,NA,NA,form submission,6090.7999998092,680026.10000038,680011.37,680027.9,686118.69999981,686118.89999962,2024-04-13T09:39:42Z,686128,NULL,Aufstand,ugomaji,s,mazidio,msingi,kujieleza,msingi,NA,NA,4,NA,NA,NA,NA,NA,NA,NA,NA,NA,NA,NA,NA,NA,NA,NA,NA,NA,NA,NA
50030,"""Richtig""-Screen",canvas.Screen,3_0_4_0_0_1_1,NA,NA,skipped,NA,686120.39999962,NA,NA,686118.69999981,686120.5,2024-04-13T09:39:42Z,686128,NULL,Aufstand,ugomaji,s,mazidio,msingi,kujieleza,NA,sd,NA,4,NA,NA,NA,NA,NA,NA,NA,NA,NA,NA,NA,NA,NA,NA,NA,NA,NA,NA,NA
50030,"""Falsch""-Screen",canvas.Screen,3_0_4_0_0_1_2,NA,NA,timeout,4999.9,686121.10000038,686111.39,686128,691111.3,691111.89999962,2024-04-13T09:39:47Z,691127.9,NULL,Aufstand,ugomaji,s,mazidio,msingi,kujieleza,NA,sd,0,4,NA,NA,NA,NA,NA,NA,NA,NA,NA,NA,NA,NA,NA,NA,NA,NA,NA,NA,NA
50030,shallow,flow.Sequence,3_0_4_0_0_1,NA,NA,completion,11083.4,680026.10000038,680011.37,680027.9,691111.3,691112.19999981,2024-04-13T09:39:47Z,691127.9,NULL,Aufstand,ugomaji,s,mazidio,msingi,kujieleza,NA,sd,NA,4,NA,NA,NA,NA,NA,NA,NA,NA,NA,NA,NA,NA,NA,NA,NA,NA,NA,NA,NA
50030,task,flow.Sequence,3_0_4_0_0,NA,NA,completion,11083.4,680026,680011.37,680027.9,691111.3,691112.39999962,2024-04-13T09:39:47Z,691127.9,NULL,Aufstand,ugomaji,s,mazidio,msingi,kujieleza,NA,sd,NA,4,NA,NA,NA,NA,NA,NA,NA,NA,NA,NA,NA,NA,NA,NA,NA,NA,NA,NA,NA
50030,Deep Question,html.Page,3_0_4_0_1_0_0,NA,NA,form submission,7229.9999996185,691112.5,691111.3,691127.9,698357.89999962,698358.10000038,2024-04-13T09:39:54Z,698361.296,NULL,Sympathie,mapendano,d,NA,NA,NA,kuchelewa,NA,NA,4,NA,NA,NA,NA,NA,NA,NA,NA,NA,NA,NA,NA,NA,NA,NA,NA,NA,NA,NA
50030,"""Richtig""-Screen",canvas.Screen,3_0_4_0_1_0_1,NA,NA,skipped,NA,698359.80000019,NA,NA,698357.89999962,698359.89999962,2024-04-13T09:39:54Z,698361.296,NULL,Sympathie,mapendano,d,NA,NA,NA,NA,sd,NA,4,NA,NA,NA,NA,NA,NA,NA,NA,NA,NA,NA,NA,NA,NA,NA,NA,NA,NA,NA
50030,"""Falsch""-Screen",canvas.Screen,3_0_4_0_1_0_2,NA,NA,timeout,5000.1040000001,698360.5,698361.296,698361.296,703344.6,703345.30000019,2024-04-13T09:39:59Z,703361.4,NULL,Sympathie,mapendano,d,NA,NA,NA,NA,sd,0,4,NA,NA,NA,NA,NA,NA,NA,NA,NA,NA,NA,NA,NA,NA,NA,NA,NA,NA,NA
50030,deep,flow.Sequence,3_0_4_0_1_0,NA,NA,completion,12216.7,691112.5,691111.3,691127.9,703344.6,703345.60000038,2024-04-13T09:39:59Z,703361.4,NULL,Sympathie,mapendano,d,NA,NA,NA,NA,sd,NA,4,NA,NA,NA,NA,NA,NA,NA,NA,NA,NA,NA,NA,NA,NA,NA,NA,NA,NA,NA
50030,shallow,flow.Sequence,3_0_4_0_1_1,NA,NA,skipped,NA,703345.80000019,NA,NA,703344.6,703345.89999962,2024-04-13T09:39:59Z,703361.4,NULL,Sympathie,mapendano,d,NA,NA,NA,NA,sd,NA,4,NA,NA,NA,NA,NA,NA,NA,NA,NA,NA,NA,NA,NA,NA,NA,NA,NA,NA,NA
50030,task,flow.Sequence,3_0_4_0_1,NA,NA,completion,12216.7,691112.39999962,691111.3,691127.9,703344.6,703346,2024-04-13T09:39:59Z,703361.4,NULL,Sympathie,mapendano,d,NA,NA,NA,NA,sd,NA,4,NA,NA,NA,NA,NA,NA,NA,NA,NA,NA,NA,NA,NA,NA,NA,NA,NA,NA,NA
50030,Deep Question,html.Page,3_0_4_0_2_0_0,NA,NA,form submission,5744.4000001907,703346.10000038,703344.6,703361.4,709105.80000019,709106.10000038,2024-04-13T09:40:05Z,709111.1,NULL,Kultur,utamaduni,d,NA,NA,NA,kuchelewa,NA,NA,4,NA,NA,NA,NA,NA,NA,NA,NA,NA,NA,NA,NA,NA,NA,NA,NA,NA,NA,NA
50030,"""Richtig""-Screen",canvas.Screen,3_0_4_0_2_0_1,NA,NA,skipped,NA,709107.80000019,NA,NA,709105.80000019,709108,2024-04-13T09:40:05Z,709111.1,NULL,Kultur,utamaduni,d,NA,NA,NA,NA,sd,NA,4,NA,NA,NA,NA,NA,NA,NA,NA,NA,NA,NA,NA,NA,NA,NA,NA,NA,NA,NA
50030,"""Falsch""-Screen",canvas.Screen,3_0_4_0_2_0_2,NA,NA,timeout,5000.1,709108.39999962,709094.7,709111.1,714094.7,714096.19999981,2024-04-13T09:40:10Z,714111.2,NULL,Kultur,utamaduni,d,NA,NA,NA,NA,sd,0,4,NA,NA,NA,NA,NA,NA,NA,NA,NA,NA,NA,NA,NA,NA,NA,NA,NA,NA,NA
50030,deep,flow.Sequence,3_0_4_0_2_0,NA,NA,completion,10733.3,703346.10000038,703344.6,703361.4,714094.7,714096.5,2024-04-13T09:40:10Z,714111.2,NULL,Kultur,utamaduni,d,NA,NA,NA,NA,sd,NA,4,NA,NA,NA,NA,NA,NA,NA,NA,NA,NA,NA,NA,NA,NA,NA,NA,NA,NA,NA
50030,shallow,flow.Sequence,3_0_4_0_2_1,NA,NA,skipped,NA,714096.60000038,NA,NA,714094.7,714096.69999981,2024-04-13T09:40:10Z,714111.2,NULL,Kultur,utamaduni,d,NA,NA,NA,NA,sd,NA,4,NA,NA,NA,NA,NA,NA,NA,NA,NA,NA,NA,NA,NA,NA,NA,NA,NA,NA,NA
50030,task,flow.Sequence,3_0_4_0_2,NA,NA,completion,10733.3,703346.10000038,703344.6,703361.4,714094.7,714096.80000019,2024-04-13T09:40:10Z,714111.2,NULL,Kultur,utamaduni,d,NA,NA,NA,NA,sd,NA,4,NA,NA,NA,NA,NA,NA,NA,NA,NA,NA,NA,NA,NA,NA,NA,NA,NA,NA,NA
50030,Deep Question,html.Page,3_0_4_0_3_0_0,NA,NA,form submission,5445.6999996186,714096.89999962,714094.7,714111.2,719556.89999962,719557.10000038,2024-04-13T09:40:16Z,719561.1,NULL,Verzögerung,kuchelewa,d,NA,NA,NA,kuchelewa,NA,NA,4,NA,NA,NA,NA,NA,NA,NA,NA,NA,NA,NA,NA,NA,NA,NA,NA,NA,NA,NA
50030,"""Richtig""-Screen",canvas.Screen,3_0_4_0_3_0_1,NA,NA,timeout,5000.2000000001,719558.80000019,719544.73,719561.1,724544.6,724545.30000019,2024-04-13T09:40:21Z,724561.3,NULL,Verzögerung,kuchelewa,d,NA,NA,NA,NA,sd,1,4,NA,NA,NA,NA,NA,NA,NA,NA,NA,NA,NA,NA,NA,NA,NA,NA,NA,NA,NA
50030,"""Falsch""-Screen",canvas.Screen,3_0_4_0_3_0_2,NA,NA,skipped,NA,724549.19999981,NA,NA,724544.6,724549.5,2024-04-13T09:40:21Z,724561.3,NULL,Verzögerung,kuchelewa,d,NA,NA,NA,NA,sd,NA,4,NA,NA,NA,NA,NA,NA,NA,NA,NA,NA,NA,NA,NA,NA,NA,NA,NA,NA,NA
50030,deep,flow.Sequence,3_0_4_0_3_0,NA,NA,completion,10433.4,714096.89999962,714094.7,714111.2,724544.6,724549.60000038,2024-04-13T09:40:21Z,724561.3,NULL,Verzögerung,kuchelewa,d,NA,NA,NA,NA,sd,NA,4,NA,NA,NA,NA,NA,NA,NA,NA,NA,NA,NA,NA,NA,NA,NA,NA,NA,NA,NA
50030,shallow,flow.Sequence,3_0_4_0_3_1,NA,NA,skipped,NA,724549.80000019,NA,NA,724544.6,724549.80000019,2024-04-13T09:40:21Z,724561.3,NULL,Verzögerung,kuchelewa,d,NA,NA,NA,NA,sd,NA,4,NA,NA,NA,NA,NA,NA,NA,NA,NA,NA,NA,NA,NA,NA,NA,NA,NA,NA,NA
50030,task,flow.Sequence,3_0_4_0_3,NA,NA,completion,10433.4,714096.89999962,714094.7,714111.2,724544.6,724549.89999962,2024-04-13T09:40:21Z,724561.3,NULL,Verzögerung,kuchelewa,d,NA,NA,NA,NA,sd,NA,4,NA,NA,NA,NA,NA,NA,NA,NA,NA,NA,NA,NA,NA,NA,NA,NA,NA,NA,NA
50030,deep,flow.Sequence,3_0_4_0_4_0,NA,NA,skipped,NA,724550,NA,NA,724544.6,724550.10000038,2024-04-13T09:40:21Z,724561.3,NULL,Prüfung,mtihani,s,mkulima,mtizamo,ufumbuzi,NA,sd,NA,4,NA,NA,NA,NA,NA,NA,NA,NA,NA,NA,NA,NA,NA,NA,NA,NA,NA,NA,NA
50030,Shallow Question,html.Page,3_0_4_0_4_1_0,NA,NA,form submission,9238.5999996185,724550.10000038,724544.6,724561.3,733799.89999962,733800.10000038,2024-04-13T09:40:30Z,733811.3,NULL,Prüfung,mtihani,s,mkulima,mtizamo,ufumbuzi,mtizamo,NA,NA,4,NA,NA,NA,NA,NA,NA,NA,NA,NA,NA,NA,NA,NA,NA,NA,NA,NA,NA,NA
50030,"""Richtig""-Screen",canvas.Screen,3_0_4_0_4_1_1,NA,NA,skipped,NA,733801.69999981,NA,NA,733799.89999962,733801.89999962,2024-04-13T09:40:30Z,733811.3,NULL,Prüfung,mtihani,s,mkulima,mtizamo,ufumbuzi,NA,sd,NA,4,NA,NA,NA,NA,NA,NA,NA,NA,NA,NA,NA,NA,NA,NA,NA,NA,NA,NA,NA
50030,"""Falsch""-Screen",canvas.Screen,3_0_4_0_4_1_2,NA,NA,timeout,4999.8999999999,733802.30000019,733794.692,733811.3,738794.7,738795.30000019,2024-04-13T09:40:35Z,738811.2,NULL,Prüfung,mtihani,s,mkulima,mtizamo,ufumbuzi,NA,sd,0,4,NA,NA,NA,NA,NA,NA,NA,NA,NA,NA,NA,NA,NA,NA,NA,NA,NA,NA,NA
50030,shallow,flow.Sequence,3_0_4_0_4_1,NA,NA,completion,14233.4,724550.10000038,724544.6,724561.3,738794.7,738795.60000038,2024-04-13T09:40:35Z,738811.2,NULL,Prüfung,mtihani,s,mkulima,mtizamo,ufumbuzi,NA,sd,NA,4,NA,NA,NA,NA,NA,NA,NA,NA,NA,NA,NA,NA,NA,NA,NA,NA,NA,NA,NA
50030,task,flow.Sequence,3_0_4_0_4,NA,NA,completion,14233.4,724550,724544.6,724561.3,738794.7,738795.60000038,2024-04-13T09:40:35Z,738811.2,NULL,Prüfung,mtihani,s,mkulima,mtizamo,ufumbuzi,NA,sd,NA,4,NA,NA,NA,NA,NA,NA,NA,NA,NA,NA,NA,NA,NA,NA,NA,NA,NA,NA,NA
50030,deep,flow.Sequence,3_0_4_0_5_0,NA,NA,skipped,NA,738795.80000019,NA,NA,738794.7,738795.80000019,2024-04-13T09:40:35Z,738811.2,NULL,Polizist,msongora,s,simanzi,mandhari,nidhamu,NA,sd,NA,4,NA,NA,NA,NA,NA,NA,NA,NA,NA,NA,NA,NA,NA,NA,NA,NA,NA,NA,NA
50030,Shallow Question,html.Page,3_0_4_0_5_1_0,NA,NA,form submission,6873.4999998093,738795.89999962,738794.7,738811.2,745684.69999981,745684.89999962,2024-04-13T09:40:42Z,745694.5,NULL,Polizist,msongora,s,simanzi,mandhari,nidhamu,mandhari,NA,NA,4,NA,NA,NA,NA,NA,NA,NA,NA,NA,NA,NA,NA,NA,NA,NA,NA,NA,NA,NA
50030,"""Richtig""-Screen",canvas.Screen,3_0_4_0_5_1_1,NA,NA,skipped,NA,745686.60000038,NA,NA,745684.69999981,745686.60000038,2024-04-13T09:40:42Z,745694.5,NULL,Polizist,msongora,s,simanzi,mandhari,nidhamu,NA,sd,NA,4,NA,NA,NA,NA,NA,NA,NA,NA,NA,NA,NA,NA,NA,NA,NA,NA,NA,NA,NA
50030,"""Falsch""-Screen",canvas.Screen,3_0_4_0_5_1_2,NA,NA,timeout,5000.1,745687.10000038,745678.072,745694.5,750677.9,750679.69999981,2024-04-13T09:40:47Z,750694.6,NULL,Polizist,msongora,s,simanzi,mandhari,nidhamu,NA,sd,0,4,NA,NA,NA,NA,NA,NA,NA,NA,NA,NA,NA,NA,NA,NA,NA,NA,NA,NA,NA
50030,shallow,flow.Sequence,3_0_4_0_5_1,NA,NA,completion,11866.7,738795.89999962,738794.7,738811.2,750677.9,750680,2024-04-13T09:40:47Z,750694.6,NULL,Polizist,msongora,s,simanzi,mandhari,nidhamu,NA,sd,NA,4,NA,NA,NA,NA,NA,NA,NA,NA,NA,NA,NA,NA,NA,NA,NA,NA,NA,NA,NA
50030,task,flow.Sequence,3_0_4_0_5,NA,NA,completion,11866.7,738795.80000019,738794.7,738811.2,750677.9,750680.19999981,2024-04-13T09:40:47Z,750694.6,NULL,Polizist,msongora,s,simanzi,mandhari,nidhamu,NA,sd,NA,4,NA,NA,NA,NA,NA,NA,NA,NA,NA,NA,NA,NA,NA,NA,NA,NA,NA,NA,NA
50030,deep,flow.Sequence,3_0_4_0_6_0,NA,NA,skipped,NA,750680.39999962,NA,NA,750677.9,750680.39999962,2024-04-13T09:40:47Z,750694.6,NULL,Beweis,ushahidi,s,marudio,kizuizi,mtendaji,NA,sd,NA,4,NA,NA,NA,NA,NA,NA,NA,NA,NA,NA,NA,NA,NA,NA,NA,NA,NA,NA,NA
50030,Shallow Question,html.Page,3_0_4_0_6_1_0,NA,NA,form submission,6048.2999996186,750680.60000038,750677.9,750694.6,756742.89999962,756743.10000038,2024-04-13T09:40:53Z,756744.696,NULL,Beweis,ushahidi,s,marudio,kizuizi,mtendaji,mtendaji,NA,NA,4,NA,NA,NA,NA,NA,NA,NA,NA,NA,NA,NA,NA,NA,NA,NA,NA,NA,NA,NA
50030,"""Richtig""-Screen",canvas.Screen,3_0_4_0_6_1_1,NA,NA,skipped,NA,756744.89999962,NA,NA,756742.89999962,756745,2024-04-13T09:40:53Z,756744.696,NULL,Beweis,ushahidi,s,marudio,kizuizi,mtendaji,NA,sd,NA,4,NA,NA,NA,NA,NA,NA,NA,NA,NA,NA,NA,NA,NA,NA,NA,NA,NA,NA,NA
50030,"""Falsch""-Screen",canvas.Screen,3_0_4_0_6_1_2,NA,NA,timeout,4999.904,756745.5,756744.696,756744.696,761728,761728.60000038,2024-04-13T09:40:58Z,761744.6,NULL,Beweis,ushahidi,s,marudio,kizuizi,mtendaji,NA,sd,0,4,NA,NA,NA,NA,NA,NA,NA,NA,NA,NA,NA,NA,NA,NA,NA,NA,NA,NA,NA
50030,shallow,flow.Sequence,3_0_4_0_6_1,NA,NA,completion,11033.4,750680.5,750677.9,750694.6,761728,761728.80000019,2024-04-13T09:40:58Z,761744.6,NULL,Beweis,ushahidi,s,marudio,kizuizi,mtendaji,NA,sd,NA,4,NA,NA,NA,NA,NA,NA,NA,NA,NA,NA,NA,NA,NA,NA,NA,NA,NA,NA,NA
50030,task,flow.Sequence,3_0_4_0_6,NA,NA,completion,11033.4,750680.30000019,750677.9,750694.6,761728,761729,2024-04-13T09:40:58Z,761744.6,NULL,Beweis,ushahidi,s,marudio,kizuizi,mtendaji,NA,sd,NA,4,NA,NA,NA,NA,NA,NA,NA,NA,NA,NA,NA,NA,NA,NA,NA,NA,NA,NA,NA
50030,Deep Question,html.Page,3_0_4_0_7_0_0,NA,NA,form submission,6777.0000003815,761729.10000038,761728,761744.6,768521.60000038,768521.80000019,2024-04-13T09:41:05Z,768544.7,NULL,Annäherung,maegesho,d,NA,NA,NA,kuchelewa,NA,NA,4,NA,NA,NA,NA,NA,NA,NA,NA,NA,NA,NA,NA,NA,NA,NA,NA,NA,NA,NA
50030,"""Richtig""-Screen",canvas.Screen,3_0_4_0_7_0_1,NA,NA,skipped,NA,768523.5,NA,NA,768521.60000038,768523.60000038,2024-04-13T09:41:05Z,768544.7,NULL,Annäherung,maegesho,d,NA,NA,NA,NA,sd,NA,4,NA,NA,NA,NA,NA,NA,NA,NA,NA,NA,NA,NA,NA,NA,NA,NA,NA,NA,NA
50030,"""Falsch""-Screen",canvas.Screen,3_0_4_0_7_0_2,NA,NA,timeout,4999.9,768524.10000038,768528.032,768544.7,773527.9,773528.60000038,2024-04-13T09:41:10Z,773544.6,NULL,Annäherung,maegesho,d,NA,NA,NA,NA,sd,0,4,NA,NA,NA,NA,NA,NA,NA,NA,NA,NA,NA,NA,NA,NA,NA,NA,NA,NA,NA
50030,deep,flow.Sequence,3_0_4_0_7_0,NA,NA,completion,11783.3,761729.10000038,761728,761744.6,773527.9,773528.80000019,2024-04-13T09:41:10Z,773544.6,NULL,Annäherung,maegesho,d,NA,NA,NA,NA,sd,NA,4,NA,NA,NA,NA,NA,NA,NA,NA,NA,NA,NA,NA,NA,NA,NA,NA,NA,NA,NA
50030,shallow,flow.Sequence,3_0_4_0_7_1,NA,NA,skipped,NA,773529,NA,NA,773527.9,773529,2024-04-13T09:41:10Z,773544.6,NULL,Annäherung,maegesho,d,NA,NA,NA,NA,sd,NA,4,NA,NA,NA,NA,NA,NA,NA,NA,NA,NA,NA,NA,NA,NA,NA,NA,NA,NA,NA
50030,task,flow.Sequence,3_0_4_0_7,NA,NA,completion,11783.3,761729.10000038,761728,761744.6,773527.9,773529.10000038,2024-04-13T09:41:10Z,773544.6,NULL,Annäherung,maegesho,d,NA,NA,NA,NA,sd,NA,4,NA,NA,NA,NA,NA,NA,NA,NA,NA,NA,NA,NA,NA,NA,NA,NA,NA,NA,NA
50030,block,flow.Loop,3_0_4_0,NA,NA,completion,93500,680026,680011.37,680027.9,773527.9,773529.30000019,2024-04-13T09:41:10Z,773544.6,NULL,NA,NA,NA,NA,NA,NA,NA,sd,NA,4,NA,NA,NA,NA,NA,NA,NA,NA,NA,NA,NA,NA,NA,NA,NA,NA,NA,NA,NA
50030,weiter,canvas.Screen,3_0_4_1,sdf,keypress(Space),response,1051.2000001908,773529.30000019,773527.9,773544.6,774595.80000019,774596.69999981,2024-04-13T09:41:11Z,774627.89,NULL,NA,NA,NA,NA,NA,NA,NA,sd,NA,4,NA,NA,NA,NA,NA,NA,NA,NA,NA,NA,NA,NA,NA,NA,NA,NA,NA,NA,NA
50030,check continue,flow.Sequence,3_0_4,NA,NA,completion,94567.900000191,680025.89999962,680011.37,680027.9,774595.80000019,774597,2024-04-13T09:41:11Z,774627.89,NULL,NA,NA,NA,NA,NA,NA,NA,sd,NA,4,NA,NA,NA,NA,NA,NA,NA,NA,NA,NA,NA,NA,NA,NA,NA,NA,NA,NA,NA
50030,Deep Question,html.Page,3_0_5_0_0_0_0,NA,NA,form submission,6442.8099998093,774634.5,774627.89,774627.89,781070.69999981,781071,2024-04-13T09:41:17Z,781077.8,NULL,Verzögerung,kuchelewa,d,NA,NA,NA,kuchelewa,NA,NA,5,NA,NA,NA,NA,NA,NA,NA,NA,NA,NA,NA,NA,NA,NA,NA,NA,NA,NA,NA
50030,"""Richtig""-Screen",canvas.Screen,3_0_5_0_0_0_1,NA,NA,timeout,5000.1,781072.5,781061.328,781077.8,786061.3,786062,2024-04-13T09:41:22Z,786077.9,NULL,Verzögerung,kuchelewa,d,NA,NA,NA,NA,sdf,1,5,NA,NA,NA,NA,NA,NA,NA,NA,NA,NA,NA,NA,NA,NA,NA,NA,NA,NA,NA
50030,"""Falsch""-Screen",canvas.Screen,3_0_5_0_0_0_2,NA,NA,skipped,NA,786066,NA,NA,786061.3,786066.19999981,2024-04-13T09:41:22Z,786077.9,NULL,Verzögerung,kuchelewa,d,NA,NA,NA,NA,sdf,NA,5,NA,NA,NA,NA,NA,NA,NA,NA,NA,NA,NA,NA,NA,NA,NA,NA,NA,NA,NA
50030,deep,flow.Sequence,3_0_5_0_0_0,NA,NA,completion,11433.41,774634.39999962,774627.89,774627.89,786061.3,786066.39999962,2024-04-13T09:41:22Z,786077.9,NULL,Verzögerung,kuchelewa,d,NA,NA,NA,NA,sdf,NA,5,NA,NA,NA,NA,NA,NA,NA,NA,NA,NA,NA,NA,NA,NA,NA,NA,NA,NA,NA
50030,shallow,flow.Sequence,3_0_5_0_0_1,NA,NA,skipped,NA,786066.5,NA,NA,786061.3,786066.5,2024-04-13T09:41:22Z,786077.9,NULL,Verzögerung,kuchelewa,d,NA,NA,NA,NA,sdf,NA,5,NA,NA,NA,NA,NA,NA,NA,NA,NA,NA,NA,NA,NA,NA,NA,NA,NA,NA,NA
50030,task,flow.Sequence,3_0_5_0_0,NA,NA,completion,11433.41,774634.39999962,774627.89,774627.89,786061.3,786066.69999981,2024-04-13T09:41:22Z,786077.9,NULL,Verzögerung,kuchelewa,d,NA,NA,NA,NA,sdf,NA,5,NA,NA,NA,NA,NA,NA,NA,NA,NA,NA,NA,NA,NA,NA,NA,NA,NA,NA,NA
50030,deep,flow.Sequence,3_0_5_0_1_0,NA,NA,skipped,NA,786066.80000019,NA,NA,786061.3,786066.89999962,2024-04-13T09:41:22Z,786077.9,NULL,Aufstand,ugomaji,s,mazidio,msingi,kujieleza,NA,sdf,NA,5,NA,NA,NA,NA,NA,NA,NA,NA,NA,NA,NA,NA,NA,NA,NA,NA,NA,NA,NA
50030,Shallow Question,html.Page,3_0_5_0_1_1_0,NA,NA,form submission,6357.7000003814,786066.89999962,786061.3,786077.9,792435.60000038,792436,2024-04-13T09:41:29Z,792444.6,NULL,Aufstand,ugomaji,s,mazidio,msingi,kujieleza,msingi,NA,NA,5,NA,NA,NA,NA,NA,NA,NA,NA,NA,NA,NA,NA,NA,NA,NA,NA,NA,NA,NA
50030,"""Richtig""-Screen",canvas.Screen,3_0_5_0_1_1_1,NA,NA,skipped,NA,792437.60000038,NA,NA,792435.60000038,792437.69999981,2024-04-13T09:41:29Z,792444.6,NULL,Aufstand,ugomaji,s,mazidio,msingi,kujieleza,NA,sdf,NA,5,NA,NA,NA,NA,NA,NA,NA,NA,NA,NA,NA,NA,NA,NA,NA,NA,NA,NA,NA
50030,"""Falsch""-Screen",canvas.Screen,3_0_5_0_1_1_2,NA,NA,timeout,5000,792438.10000038,792428.014,792444.6,797428,797428.80000019,2024-04-13T09:41:34Z,797444.6,NULL,Aufstand,ugomaji,s,mazidio,msingi,kujieleza,NA,sdf,0,5,NA,NA,NA,NA,NA,NA,NA,NA,NA,NA,NA,NA,NA,NA,NA,NA,NA,NA,NA
50030,shallow,flow.Sequence,3_0_5_0_1_1,NA,NA,completion,11350.1,786066.89999962,786061.3,786077.9,797428,797429,2024-04-13T09:41:34Z,797444.6,NULL,Aufstand,ugomaji,s,mazidio,msingi,kujieleza,NA,sdf,NA,5,NA,NA,NA,NA,NA,NA,NA,NA,NA,NA,NA,NA,NA,NA,NA,NA,NA,NA,NA
50030,task,flow.Sequence,3_0_5_0_1,NA,NA,completion,11350.1,786066.80000019,786061.3,786077.9,797428,797429.10000038,2024-04-13T09:41:34Z,797444.6,NULL,Aufstand,ugomaji,s,mazidio,msingi,kujieleza,NA,sdf,NA,5,NA,NA,NA,NA,NA,NA,NA,NA,NA,NA,NA,NA,NA,NA,NA,NA,NA,NA,NA
50030,deep,flow.Sequence,3_0_5_0_2_0,NA,NA,skipped,NA,797429.19999981,NA,NA,797428,797429.30000019,2024-04-13T09:41:34Z,797444.6,NULL,Beweis,ushahidi,s,marudio,kizuizi,mtendaji,NA,sdf,NA,5,NA,NA,NA,NA,NA,NA,NA,NA,NA,NA,NA,NA,NA,NA,NA,NA,NA,NA,NA
50030,Shallow Question,html.Page,3_0_5_0_2_1_0,NA,NA,form submission,7612.0000003815,797429.39999962,797428,797444.6,805056.60000038,805056.80000019,2024-04-13T09:41:41Z,805061.1,NULL,Beweis,ushahidi,s,marudio,kizuizi,mtendaji,ushahidi,NA,NA,5,NA,NA,NA,NA,NA,NA,NA,NA,NA,NA,NA,NA,NA,NA,NA,NA,NA,NA,NA
50030,"""Richtig""-Screen",canvas.Screen,3_0_5_0_2_1_1,NA,NA,timeout,5000.1,805058.39999962,805044.964,805061.1,810044.7,810045.39999962,2024-04-13T09:41:46Z,810061.2,NULL,Beweis,ushahidi,s,marudio,kizuizi,mtendaji,NA,sdf,1,5,NA,NA,NA,NA,NA,NA,NA,NA,NA,NA,NA,NA,NA,NA,NA,NA,NA,NA,NA
50030,"""Falsch""-Screen",canvas.Screen,3_0_5_0_2_1_2,NA,NA,skipped,NA,810049.30000019,NA,NA,810044.7,810049.5,2024-04-13T09:41:46Z,810061.2,NULL,Beweis,ushahidi,s,marudio,kizuizi,mtendaji,NA,sdf,NA,5,NA,NA,NA,NA,NA,NA,NA,NA,NA,NA,NA,NA,NA,NA,NA,NA,NA,NA,NA
50030,shallow,flow.Sequence,3_0_5_0_2_1,NA,NA,completion,12600.1,797429.39999962,797428,797444.6,810044.7,810049.69999981,2024-04-13T09:41:46Z,810061.2,NULL,Beweis,ushahidi,s,marudio,kizuizi,mtendaji,NA,sdf,NA,5,NA,NA,NA,NA,NA,NA,NA,NA,NA,NA,NA,NA,NA,NA,NA,NA,NA,NA,NA
50030,task,flow.Sequence,3_0_5_0_2,NA,NA,completion,12600.1,797429.19999981,797428,797444.6,810044.7,810049.80000019,2024-04-13T09:41:46Z,810061.2,NULL,Beweis,ushahidi,s,marudio,kizuizi,mtendaji,NA,sdf,NA,5,NA,NA,NA,NA,NA,NA,NA,NA,NA,NA,NA,NA,NA,NA,NA,NA,NA,NA,NA
50030,deep,flow.Sequence,3_0_5_0_3_0,NA,NA,skipped,NA,810049.89999962,NA,NA,810044.7,810050,2024-04-13T09:41:46Z,810061.2,NULL,Polizist,msongora,s,simanzi,mandhari,nidhamu,NA,sdf,NA,5,NA,NA,NA,NA,NA,NA,NA,NA,NA,NA,NA,NA,NA,NA,NA,NA,NA,NA,NA
50030,Shallow Question,html.Page,3_0_5_0_3_1_0,NA,NA,form submission,4062.6999996186,810050.10000038,810044.7,810061.2,814123.89999962,814124.10000038,2024-04-13T09:41:50Z,814127.8,NULL,Polizist,msongora,s,simanzi,mandhari,nidhamu,msongora,NA,NA,5,NA,NA,NA,NA,NA,NA,NA,NA,NA,NA,NA,NA,NA,NA,NA,NA,NA,NA,NA
50030,"""Richtig""-Screen",canvas.Screen,3_0_5_0_3_1_1,NA,NA,timeout,5000,814125.60000038,814111.352,814127.8,819111.2,819111.89999962,2024-04-13T09:41:55Z,819127.8,NULL,Polizist,msongora,s,simanzi,mandhari,nidhamu,NA,sdf,1,5,NA,NA,NA,NA,NA,NA,NA,NA,NA,NA,NA,NA,NA,NA,NA,NA,NA,NA,NA
50030,"""Falsch""-Screen",canvas.Screen,3_0_5_0_3_1_2,NA,NA,skipped,NA,819116,NA,NA,819111.2,819116.10000038,2024-04-13T09:41:55Z,819127.8,NULL,Polizist,msongora,s,simanzi,mandhari,nidhamu,NA,sdf,NA,5,NA,NA,NA,NA,NA,NA,NA,NA,NA,NA,NA,NA,NA,NA,NA,NA,NA,NA,NA
50030,shallow,flow.Sequence,3_0_5_0_3_1,NA,NA,completion,9050,810050.10000038,810044.7,810061.2,819111.2,819116.30000019,2024-04-13T09:41:55Z,819127.8,NULL,Polizist,msongora,s,simanzi,mandhari,nidhamu,NA,sdf,NA,5,NA,NA,NA,NA,NA,NA,NA,NA,NA,NA,NA,NA,NA,NA,NA,NA,NA,NA,NA
50030,task,flow.Sequence,3_0_5_0_3,NA,NA,completion,9050,810049.89999962,810044.7,810061.2,819111.2,819116.39999962,2024-04-13T09:41:55Z,819127.8,NULL,Polizist,msongora,s,simanzi,mandhari,nidhamu,NA,sdf,NA,5,NA,NA,NA,NA,NA,NA,NA,NA,NA,NA,NA,NA,NA,NA,NA,NA,NA,NA,NA
50030,Deep Question,html.Page,3_0_5_0_4_0_0,NA,NA,form submission,7016.8000003814,819116.60000038,819111.2,819127.8,826144.60000038,826144.80000019,2024-04-13T09:42:02Z,826161.1,NULL,Kultur,utamaduni,d,NA,NA,NA,kuchelewa,NA,NA,5,NA,NA,NA,NA,NA,NA,NA,NA,NA,NA,NA,NA,NA,NA,NA,NA,NA,NA,NA
50030,"""Richtig""-Screen",canvas.Screen,3_0_5_0_4_0_1,NA,NA,skipped,NA,826146.39999962,NA,NA,826144.60000038,826146.5,2024-04-13T09:42:02Z,826161.1,NULL,Kultur,utamaduni,d,NA,NA,NA,NA,sdf,NA,5,NA,NA,NA,NA,NA,NA,NA,NA,NA,NA,NA,NA,NA,NA,NA,NA,NA,NA,NA
50030,"""Falsch""-Screen",canvas.Screen,3_0_5_0_4_0_2,NA,NA,timeout,5000.2000000001,826147.19999981,826144.66,826161.1,831144.5,831145.89999962,2024-04-13T09:42:07Z,831161.3,NULL,Kultur,utamaduni,d,NA,NA,NA,NA,sdf,0,5,NA,NA,NA,NA,NA,NA,NA,NA,NA,NA,NA,NA,NA,NA,NA,NA,NA,NA,NA
50030,deep,flow.Sequence,3_0_5_0_4_0,NA,NA,completion,12016.7,819116.5,819111.2,819127.8,831144.5,831146.30000019,2024-04-13T09:42:07Z,831161.3,NULL,Kultur,utamaduni,d,NA,NA,NA,NA,sdf,NA,5,NA,NA,NA,NA,NA,NA,NA,NA,NA,NA,NA,NA,NA,NA,NA,NA,NA,NA,NA
50030,shallow,flow.Sequence,3_0_5_0_4_1,NA,NA,skipped,NA,831146.39999962,NA,NA,831144.5,831146.5,2024-04-13T09:42:07Z,831161.3,NULL,Kultur,utamaduni,d,NA,NA,NA,NA,sdf,NA,5,NA,NA,NA,NA,NA,NA,NA,NA,NA,NA,NA,NA,NA,NA,NA,NA,NA,NA,NA
50030,task,flow.Sequence,3_0_5_0_4,NA,NA,completion,12016.7,819116.5,819111.2,819127.8,831144.5,831146.60000038,2024-04-13T09:42:07Z,831161.3,NULL,Kultur,utamaduni,d,NA,NA,NA,NA,sdf,NA,5,NA,NA,NA,NA,NA,NA,NA,NA,NA,NA,NA,NA,NA,NA,NA,NA,NA,NA,NA
50030,Deep Question,html.Page,3_0_5_0_5_0_0,NA,NA,form submission,9225.5000001907,831146.69999981,831144.5,831161.3,840386.80000019,840387,2024-04-13T09:42:17Z,840394.5,NULL,Sympathie,mapendano,d,NA,NA,NA,utamaduni,NA,NA,5,NA,NA,NA,NA,NA,NA,NA,NA,NA,NA,NA,NA,NA,NA,NA,NA,NA,NA,NA
50030,"""Richtig""-Screen",canvas.Screen,3_0_5_0_5_0_1,NA,NA,skipped,NA,840388.80000019,NA,NA,840386.80000019,840388.89999962,2024-04-13T09:42:17Z,840394.5,NULL,Sympathie,mapendano,d,NA,NA,NA,NA,sdf,NA,5,NA,NA,NA,NA,NA,NA,NA,NA,NA,NA,NA,NA,NA,NA,NA,NA,NA,NA,NA
50030,"""Falsch""-Screen",canvas.Screen,3_0_5_0_5_0_2,NA,NA,timeout,5000.1,840389.39999962,840378,840394.5,845377.8,845378.69999981,2024-04-13T09:42:21Z,845394.6,NULL,Sympathie,mapendano,d,NA,NA,NA,NA,sdf,0,5,NA,NA,NA,NA,NA,NA,NA,NA,NA,NA,NA,NA,NA,NA,NA,NA,NA,NA,NA
50030,deep,flow.Sequence,3_0_5_0_5_0,NA,NA,completion,14216.5,831146.69999981,831144.5,831161.3,845377.8,845379,2024-04-13T09:42:21Z,845394.6,NULL,Sympathie,mapendano,d,NA,NA,NA,NA,sdf,NA,5,NA,NA,NA,NA,NA,NA,NA,NA,NA,NA,NA,NA,NA,NA,NA,NA,NA,NA,NA
50030,shallow,flow.Sequence,3_0_5_0_5_1,NA,NA,skipped,NA,845379.10000038,NA,NA,845377.8,845379.19999981,2024-04-13T09:42:21Z,845394.6,NULL,Sympathie,mapendano,d,NA,NA,NA,NA,sdf,NA,5,NA,NA,NA,NA,NA,NA,NA,NA,NA,NA,NA,NA,NA,NA,NA,NA,NA,NA,NA
50030,task,flow.Sequence,3_0_5_0_5,NA,NA,completion,14216.5,831146.69999981,831144.5,831161.3,845377.8,845379.30000019,2024-04-13T09:42:21Z,845394.6,NULL,Sympathie,mapendano,d,NA,NA,NA,NA,sdf,NA,5,NA,NA,NA,NA,NA,NA,NA,NA,NA,NA,NA,NA,NA,NA,NA,NA,NA,NA,NA
50030,Deep Question,html.Page,3_0_5_0_6_0_0,NA,NA,form submission,6038.9,845379.5,845377.8,845394.6,851433.5,851433.69999981,2024-04-13T09:42:28Z,851444.4,NULL,Annäherung,maegesho,d,NA,NA,NA,utamaduni,NA,NA,5,NA,NA,NA,NA,NA,NA,NA,NA,NA,NA,NA,NA,NA,NA,NA,NA,NA,NA,NA
50030,"""Richtig""-Screen",canvas.Screen,3_0_5_0_6_0_1,NA,NA,skipped,NA,851435.39999962,NA,NA,851433.5,851435.5,2024-04-13T09:42:28Z,851444.4,NULL,Annäherung,maegesho,d,NA,NA,NA,NA,sdf,NA,5,NA,NA,NA,NA,NA,NA,NA,NA,NA,NA,NA,NA,NA,NA,NA,NA,NA,NA,NA
50030,"""Falsch""-Screen",canvas.Screen,3_0_5_0_6_0_2,NA,NA,timeout,5000.2,851436,851428.266,851444.4,856427.8,856428.5,2024-04-13T09:42:33Z,856444.6,NULL,Annäherung,maegesho,d,NA,NA,NA,NA,sdf,0,5,NA,NA,NA,NA,NA,NA,NA,NA,NA,NA,NA,NA,NA,NA,NA,NA,NA,NA,NA
50030,deep,flow.Sequence,3_0_5_0_6_0,NA,NA,completion,11033.2,845379.5,845377.8,845394.6,856427.8,856428.80000019,2024-04-13T09:42:33Z,856444.6,NULL,Annäherung,maegesho,d,NA,NA,NA,NA,sdf,NA,5,NA,NA,NA,NA,NA,NA,NA,NA,NA,NA,NA,NA,NA,NA,NA,NA,NA,NA,NA
50030,shallow,flow.Sequence,3_0_5_0_6_1,NA,NA,skipped,NA,856428.89999962,NA,NA,856427.8,856428.89999962,2024-04-13T09:42:33Z,856444.6,NULL,Annäherung,maegesho,d,NA,NA,NA,NA,sdf,NA,5,NA,NA,NA,NA,NA,NA,NA,NA,NA,NA,NA,NA,NA,NA,NA,NA,NA,NA,NA
50030,task,flow.Sequence,3_0_5_0_6,NA,NA,completion,11033.2,845379.5,845377.8,845394.6,856427.8,856429,2024-04-13T09:42:33Z,856444.6,NULL,Annäherung,maegesho,d,NA,NA,NA,NA,sdf,NA,5,NA,NA,NA,NA,NA,NA,NA,NA,NA,NA,NA,NA,NA,NA,NA,NA,NA,NA,NA
50030,deep,flow.Sequence,3_0_5_0_7_0,NA,NA,skipped,NA,856429.19999981,NA,NA,856427.8,856429.30000019,2024-04-13T09:42:33Z,856444.6,NULL,Prüfung,mtihani,s,mkulima,mtizamo,ufumbuzi,NA,sdf,NA,5,NA,NA,NA,NA,NA,NA,NA,NA,NA,NA,NA,NA,NA,NA,NA,NA,NA,NA,NA
50030,Shallow Question,html.Page,3_0_5_0_7_1_0,NA,NA,form submission,5944.5999998093,856429.30000019,856427.8,856444.6,862389.19999981,862389.39999962,2024-04-13T09:42:39Z,862394.4,NULL,Prüfung,mtihani,s,mkulima,mtizamo,ufumbuzi,mtihani,NA,NA,5,NA,NA,NA,NA,NA,NA,NA,NA,NA,NA,NA,NA,NA,NA,NA,NA,NA,NA,NA
50030,"""Richtig""-Screen",canvas.Screen,3_0_5_0_7_1_1,NA,NA,timeout,5000.4,862391.10000038,862377.964,862394.4,867377.8,867378.60000038,2024-04-13T09:42:43Z,867394.8,NULL,Prüfung,mtihani,s,mkulima,mtizamo,ufumbuzi,NA,sdf,1,5,NA,NA,NA,NA,NA,NA,NA,NA,NA,NA,NA,NA,NA,NA,NA,NA,NA,NA,NA
50030,"""Falsch""-Screen",canvas.Screen,3_0_5_0_7_1_2,NA,NA,skipped,NA,867382.5,NA,NA,867377.8,867382.69999981,2024-04-13T09:42:44Z,867394.8,NULL,Prüfung,mtihani,s,mkulima,mtizamo,ufumbuzi,NA,sdf,NA,5,NA,NA,NA,NA,NA,NA,NA,NA,NA,NA,NA,NA,NA,NA,NA,NA,NA,NA,NA
50030,shallow,flow.Sequence,3_0_5_0_7_1,NA,NA,completion,10933.2,856429.30000019,856427.8,856444.6,867377.8,867382.89999962,2024-04-13T09:42:44Z,867394.8,NULL,Prüfung,mtihani,s,mkulima,mtizamo,ufumbuzi,NA,sdf,NA,5,NA,NA,NA,NA,NA,NA,NA,NA,NA,NA,NA,NA,NA,NA,NA,NA,NA,NA,NA
50030,task,flow.Sequence,3_0_5_0_7,NA,NA,completion,10933.2,856429.19999981,856427.8,856444.6,867377.8,867383.10000038,2024-04-13T09:42:44Z,867394.8,NULL,Prüfung,mtihani,s,mkulima,mtizamo,ufumbuzi,NA,sdf,NA,5,NA,NA,NA,NA,NA,NA,NA,NA,NA,NA,NA,NA,NA,NA,NA,NA,NA,NA,NA
50030,block,flow.Loop,3_0_5_0,NA,NA,completion,92749.91,774634.39999962,774627.89,774627.89,867377.8,867383.10000038,2024-04-13T09:42:44Z,867394.8,NULL,NA,NA,NA,NA,NA,NA,NA,sdf,NA,5,NA,NA,NA,NA,NA,NA,NA,NA,NA,NA,NA,NA,NA,NA,NA,NA,NA,NA,NA
50030,weiter,canvas.Screen,3_0_5_1,sdf,keypress(Space),response,1697.7,867383.19999981,867377.8,867394.8,869092.5,869093.30000019,2024-04-13T09:42:45Z,869427.946,NULL,NA,NA,NA,NA,NA,NA,NA,sdf,NA,5,NA,NA,NA,NA,NA,NA,NA,NA,NA,NA,NA,NA,NA,NA,NA,NA,NA,NA,NA
50030,check continue,flow.Sequence,3_0_5,NA,NA,completion,94464.61,774634.39999962,774627.89,774627.89,869092.5,869093.60000038,2024-04-13T09:42:45Z,869427.946,NULL,NA,NA,NA,NA,NA,NA,NA,sdf,NA,5,NA,NA,NA,NA,NA,NA,NA,NA,NA,NA,NA,NA,NA,NA,NA,NA,NA,NA,NA
50030,check continue,flow.Sequence,3_0_6,NA,NA,skipped,NA,869129.30000019,NA,NA,869092.5,869129.39999962,2024-04-13T09:42:45Z,869427.946,NULL,NA,NA,NA,NA,NA,NA,NA,dfs,NA,6,NA,NA,NA,NA,NA,NA,NA,NA,NA,NA,NA,NA,NA,NA,NA,NA,NA,NA,NA
50030,check continue,flow.Sequence,3_0_7,NA,NA,skipped,NA,869145.80000019,NA,NA,869092.5,869145.80000019,2024-04-13T09:42:45Z,869427.946,NULL,NA,NA,NA,NA,NA,NA,NA,df,NA,7,NA,NA,NA,NA,NA,NA,NA,NA,NA,NA,NA,NA,NA,NA,NA,NA,NA,NA,NA
50030,check continue,flow.Sequence,3_0_8,NA,NA,skipped,NA,869174.19999981,NA,NA,869092.5,869174.30000019,2024-04-13T09:42:45Z,869427.946,NULL,NA,NA,NA,NA,NA,NA,NA,dfs,NA,8,NA,NA,NA,NA,NA,NA,NA,NA,NA,NA,NA,NA,NA,NA,NA,NA,NA,NA,NA
50030,check continue,flow.Sequence,3_0_9,NA,NA,skipped,NA,869192.5,NA,NA,869092.5,869192.60000038,2024-04-13T09:42:45Z,869427.946,NULL,NA,NA,NA,NA,NA,NA,NA,dsf,NA,9,NA,NA,NA,NA,NA,NA,NA,NA,NA,NA,NA,NA,NA,NA,NA,NA,NA,NA,NA
50030,check continue,flow.Sequence,3_0_10,NA,NA,skipped,NA,869205.30000019,NA,NA,869092.5,869205.39999962,2024-04-13T09:42:45Z,869427.946,NULL,NA,NA,NA,NA,NA,NA,NA,df,NA,10,NA,NA,NA,NA,NA,NA,NA,NA,NA,NA,NA,NA,NA,NA,NA,NA,NA,NA,NA
50030,check continue,flow.Sequence,3_0_11,NA,NA,skipped,NA,869218.39999962,NA,NA,869092.5,869218.39999962,2024-04-13T09:42:45Z,869427.946,NULL,NA,NA,NA,NA,NA,NA,NA,dfs,NA,11,NA,NA,NA,NA,NA,NA,NA,NA,NA,NA,NA,NA,NA,NA,NA,NA,NA,NA,NA
50030,check continue,flow.Sequence,3_0_12,NA,NA,skipped,NA,869231.19999981,NA,NA,869092.5,869231.19999981,2024-04-13T09:42:45Z,869427.946,NULL,NA,NA,NA,NA,NA,NA,NA,dsf,NA,12,NA,NA,NA,NA,NA,NA,NA,NA,NA,NA,NA,NA,NA,NA,NA,NA,NA,NA,NA
50030,check continue,flow.Sequence,3_0_13,NA,NA,skipped,NA,869243.19999981,NA,NA,869092.5,869243.30000019,2024-04-13T09:42:45Z,869427.946,NULL,NA,NA,NA,NA,NA,NA,NA,dsf,NA,13,NA,NA,NA,NA,NA,NA,NA,NA,NA,NA,NA,NA,NA,NA,NA,NA,NA,NA,NA
50030,check continue,flow.Sequence,3_0_14,NA,NA,skipped,NA,869255.10000038,NA,NA,869092.5,869255.19999981,2024-04-13T09:42:45Z,869427.946,NULL,NA,NA,NA,NA,NA,NA,NA,NA,NA,14,NA,NA,NA,NA,NA,NA,NA,NA,NA,NA,NA,NA,NA,NA,NA,NA,NA,NA,NA
50030,check continue,flow.Sequence,3_0_15,NA,NA,skipped,NA,869267.10000038,NA,NA,869092.5,869267.10000038,2024-04-13T09:42:45Z,869427.946,NULL,NA,NA,NA,NA,NA,NA,NA,NA,NA,15,NA,NA,NA,NA,NA,NA,NA,NA,NA,NA,NA,NA,NA,NA,NA,NA,NA,NA,NA
50030,check continue,flow.Sequence,3_0_16,NA,NA,skipped,NA,869277.69999981,NA,NA,869092.5,869277.80000019,2024-04-13T09:42:45Z,869427.946,NULL,NA,NA,NA,NA,NA,NA,NA,NA,NA,16,NA,NA,NA,NA,NA,NA,NA,NA,NA,NA,NA,NA,NA,NA,NA,NA,NA,NA,NA
50030,check continue,flow.Sequence,3_0_17,NA,NA,skipped,NA,869288.80000019,NA,NA,869092.5,869288.80000019,2024-04-13T09:42:45Z,869427.946,NULL,NA,NA,NA,NA,NA,NA,NA,NA,NA,17,NA,NA,NA,NA,NA,NA,NA,NA,NA,NA,NA,NA,NA,NA,NA,NA,NA,NA,NA
50030,check continue,flow.Sequence,3_0_18,NA,NA,skipped,NA,869299.30000019,NA,NA,869092.5,869299.39999962,2024-04-13T09:42:45Z,869427.946,NULL,NA,NA,NA,NA,NA,NA,NA,NA,NA,18,NA,NA,NA,NA,NA,NA,NA,NA,NA,NA,NA,NA,NA,NA,NA,NA,NA,NA,NA
50030,check continue,flow.Sequence,3_0_19,NA,NA,skipped,NA,869310,NA,NA,869092.5,869310,2024-04-13T09:42:45Z,869427.946,NULL,NA,NA,NA,NA,NA,NA,NA,NA,NA,19,NA,NA,NA,NA,NA,NA,NA,NA,NA,NA,NA,NA,NA,NA,NA,NA,NA,NA,NA
50030,check continue,flow.Sequence,3_0_20,NA,NA,skipped,NA,869320.69999981,NA,NA,869092.5,869320.69999981,2024-04-13T09:42:45Z,869427.946,NULL,NA,NA,NA,NA,NA,NA,NA,NA,NA,20,NA,NA,NA,NA,NA,NA,NA,NA,NA,NA,NA,NA,NA,NA,NA,NA,NA,NA,NA
50030,check continue,flow.Sequence,3_0_21,NA,NA,skipped,NA,869340.10000038,NA,NA,869092.5,869340.10000038,2024-04-13T09:42:45Z,869427.946,NULL,NA,NA,NA,NA,NA,NA,NA,NA,NA,21,NA,NA,NA,NA,NA,NA,NA,NA,NA,NA,NA,NA,NA,NA,NA,NA,NA,NA,NA
50030,check continue,flow.Sequence,3_0_22,NA,NA,skipped,NA,869358.5,NA,NA,869092.5,869358.60000038,2024-04-13T09:42:45Z,869427.946,NULL,NA,NA,NA,NA,NA,NA,NA,NA,NA,22,NA,NA,NA,NA,NA,NA,NA,NA,NA,NA,NA,NA,NA,NA,NA,NA,NA,NA,NA
50030,check continue,flow.Sequence,3_0_23,NA,NA,skipped,NA,869370.5,NA,NA,869092.5,869370.60000038,2024-04-13T09:42:45Z,869427.946,NULL,NA,NA,NA,NA,NA,NA,NA,NA,NA,23,NA,NA,NA,NA,NA,NA,NA,NA,NA,NA,NA,NA,NA,NA,NA,NA,NA,NA,NA
50030,check continue,flow.Sequence,3_0_24,NA,NA,skipped,NA,869381.69999981,NA,NA,869092.5,869381.69999981,2024-04-13T09:42:46Z,869427.946,NULL,NA,NA,NA,NA,NA,NA,NA,NA,NA,24,NA,NA,NA,NA,NA,NA,NA,NA,NA,NA,NA,NA,NA,NA,NA,NA,NA,NA,NA
50030,check continue,flow.Sequence,3_0_25,NA,NA,skipped,NA,869393.80000019,NA,NA,869092.5,869393.89999962,2024-04-13T09:42:46Z,869427.946,NULL,NA,NA,NA,NA,NA,NA,NA,NA,NA,25,NA,NA,NA,NA,NA,NA,NA,NA,NA,NA,NA,NA,NA,NA,NA,NA,NA,NA,NA
50030,check continue,flow.Sequence,3_0_26,NA,NA,skipped,NA,869403.60000038,NA,NA,869092.5,869403.60000038,2024-04-13T09:42:46Z,869427.946,NULL,NA,NA,NA,NA,NA,NA,NA,NA,NA,26,NA,NA,NA,NA,NA,NA,NA,NA,NA,NA,NA,NA,NA,NA,NA,NA,NA,NA,NA
50030,check continue,flow.Sequence,3_0_27,NA,NA,skipped,NA,869415,NA,NA,869092.5,869415,2024-04-13T09:42:46Z,869427.946,NULL,NA,NA,NA,NA,NA,NA,NA,NA,NA,27,NA,NA,NA,NA,NA,NA,NA,NA,NA,NA,NA,NA,NA,NA,NA,NA,NA,NA,NA
50030,check continue,flow.Sequence,3_0_28,NA,NA,skipped,NA,869425,NA,NA,869092.5,869425,2024-04-13T09:42:46Z,869427.946,NULL,NA,NA,NA,NA,NA,NA,NA,NA,NA,28,NA,NA,NA,NA,NA,NA,NA,NA,NA,NA,NA,NA,NA,NA,NA,NA,NA,NA,NA
50030,check continue,flow.Sequence,3_0_29,NA,NA,skipped,NA,869435.69999981,NA,NA,869092.5,869435.80000019,2024-04-13T09:42:46Z,869427.946,NULL,NA,NA,NA,NA,NA,NA,NA,NA,NA,29,NA,NA,NA,NA,NA,NA,NA,NA,NA,NA,NA,NA,NA,NA,NA,NA,NA,NA,NA
50030,until continue,flow.Loop,3_0,NA,NA,completion,617814.4,251262.19999981,251276.264,251278.1,869092.5,869435.80000019,2024-04-13T09:42:46Z,869427.946,NULL,NA,NA,NA,NA,NA,NA,NA,NA,NA,NA,NA,NA,NA,NA,NA,NA,NA,NA,NA,NA,NA,NA,NA,NA,NA,NA,NA,NA,NA
