observation,sender,sender_type,sender_id,response,response_action,ended_on,duration,time_run,time_render,time_show,time_end,time_commit,timestamp,time_switch,distractors,german,swahili,enc,distractor1,distractor2,distractor3,response_2,x,correct,x_2,url_vp,url_sess,meta_labjs_version,meta_location,meta_user_agent,meta_platform,meta_language,meta_locale,meta_time_zone,meta_timezone_offset,meta_screen_width,meta_screen_height,meta_scroll_width,meta_scroll_height,meta_window_inner_width,meta_window_inner_height,meta_device_pixel_ratio,meta_labjs_build_flavor,meta_labjs_build_commit
ebaec,Introduction general,canvas.Screen,0,weiter,keypress(q),response,70059.1,465,470.24,486.9,70546,70570,2023-05-12T13:37:06Z,70578.2,NULL,NA,NA,NA,NA,NA,NA,NA,NA,NA,NA,171,1,20.2.4,https://neurocog.fernuni.ch/studies/vweber/sliechti/encoding_immediate/index.html?vp=171&sess=1,Mozilla/5.0 (Windows NT 10.0; Win64; x64; rv:109.0) Gecko/20100101 Firefox/112.0,Win32,de,de-CH,Europe/Zurich,-120,1280,720,1280,587,1280,587,1.5,production,f5b4a49f956347addd546a832a3327688c2c0fef
ebaec,Introduction practice,canvas.Screen,1_0,NA,keypress(Space),response,5028.8,70574,70574.72,70578.2,75607,75631,2023-05-12T13:37:11Z,75634.78,NULL,NA,NA,NA,NA,NA,NA,NA,NA,NA,NA,NA,NA,NA,NA,NA,NA,NA,NA,NA,NA,NA,NA,NA,NA,NA,NA,NA,NA,NA
ebaec,Deep Question,html.Page,1_1_0_0_0,NA,NA,form submission,13393.22,75634,75634.2,75634.78,89028,89029,2023-05-12T13:37:25Z,89043.84,"c(""distractor1"", ""distractor2"", ""distractor3"")",Qualität,mtindo,d,NA,NA,NA,joka,NA,NA,NA,NA,NA,NA,NA,NA,NA,NA,NA,NA,NA,NA,NA,NA,NA,NA,NA,NA,NA,NA
ebaec,"""Richtig""-Screen",canvas.Screen,1_1_0_0_1,NA,NA,skipped,NA,89035,NA,NA,89028,89035,2023-05-12T13:37:25Z,89043.84,"c(""distractor1"", ""distractor2"", ""distractor3"")",Qualität,mtindo,d,NA,NA,NA,NA,NA,NA,NA,NA,NA,NA,NA,NA,NA,NA,NA,NA,NA,NA,NA,NA,NA,NA,NA,NA,NA,NA
ebaec,"""Falsch""-Screen",canvas.Screen,1_1_0_0_2,NA,NA,timeout,4997.98,89038,89027.14,89043.84,94025.16,94027,2023-05-12T13:37:30Z,94041.82,"c(""distractor1"", ""distractor2"", ""distractor3"")",Qualität,mtindo,d,NA,NA,NA,NA,NA,0,NA,NA,NA,NA,NA,NA,NA,NA,NA,NA,NA,NA,NA,NA,NA,NA,NA,NA,NA,NA
ebaec,deep,flow.Sequence,1_1_0_0,NA,NA,completion,18390.38,75633,75634.2,75634.78,94025.16,94029,2023-05-12T13:37:30Z,94041.82,"c(""distractor1"", ""distractor2"", ""distractor3"")",Qualität,mtindo,d,NA,NA,NA,NA,NA,NA,NA,NA,NA,NA,NA,NA,NA,NA,NA,NA,NA,NA,NA,NA,NA,NA,NA,NA,NA,NA
ebaec,shallow,flow.Sequence,1_1_0_1,NA,NA,skipped,NA,94030,NA,NA,94025.16,94031,2023-05-12T13:37:30Z,94041.82,"c(""distractor1"", ""distractor2"", ""distractor3"")",Qualität,mtindo,d,NA,NA,NA,NA,NA,NA,NA,NA,NA,NA,NA,NA,NA,NA,NA,NA,NA,NA,NA,NA,NA,NA,NA,NA,NA,NA
ebaec,task,flow.Sequence,1_1_0,NA,NA,completion,18390.38,75633,75634.2,75634.78,94025.16,94032,2023-05-12T13:37:30Z,94041.82,"c(""distractor1"", ""distractor2"", ""distractor3"")",Qualität,mtindo,d,NA,NA,NA,NA,NA,NA,NA,NA,NA,NA,NA,NA,NA,NA,NA,NA,NA,NA,NA,NA,NA,NA,NA,NA,NA,NA
ebaec,deep,flow.Sequence,1_1_1_0,NA,NA,skipped,NA,94035,NA,NA,94025.16,94035,2023-05-12T13:37:30Z,94041.82,"c(""distractor1"", ""distractor2"", ""distractor3"")",Kritik,lawama,s,dereva,nafasi,mawazo,NA,NA,NA,NA,NA,NA,NA,NA,NA,NA,NA,NA,NA,NA,NA,NA,NA,NA,NA,NA,NA,NA,NA
ebaec,Shallow Question,html.Page,1_1_1_1_0,NA,NA,form submission,12036.18,94036,94025.16,94041.82,106078,106078,2023-05-12T13:37:42Z,106090.26,"c(""distractor1"", ""distractor2"", ""distractor3"")",Kritik,lawama,s,dereva,nafasi,mawazo,lawama,NA,NA,NA,NA,NA,NA,NA,NA,NA,NA,NA,NA,NA,NA,NA,NA,NA,NA,NA,NA,NA,NA
ebaec,"""Richtig""-Screen",canvas.Screen,1_1_1_1_1,NA,NA,timeout,4999.38,106081,106075.18,106090.26,111072.98,111074,2023-05-12T13:37:47Z,111089.64,"c(""distractor1"", ""distractor2"", ""distractor3"")",Kritik,lawama,s,dereva,nafasi,mawazo,NA,NA,1,NA,NA,NA,NA,NA,NA,NA,NA,NA,NA,NA,NA,NA,NA,NA,NA,NA,NA,NA,NA
ebaec,"""Falsch""-Screen",canvas.Screen,1_1_1_1_2,NA,NA,skipped,NA,111079,NA,NA,111072.98,111080,2023-05-12T13:37:47Z,111089.64,"c(""distractor1"", ""distractor2"", ""distractor3"")",Kritik,lawama,s,dereva,nafasi,mawazo,NA,NA,NA,NA,NA,NA,NA,NA,NA,NA,NA,NA,NA,NA,NA,NA,NA,NA,NA,NA,NA,NA,NA
ebaec,shallow,flow.Sequence,1_1_1_1,NA,NA,completion,17031.16,94036,94025.16,94041.82,111072.98,111080,2023-05-12T13:37:47Z,111089.64,"c(""distractor1"", ""distractor2"", ""distractor3"")",Kritik,lawama,s,dereva,nafasi,mawazo,NA,NA,NA,NA,NA,NA,NA,NA,NA,NA,NA,NA,NA,NA,NA,NA,NA,NA,NA,NA,NA,NA,NA
ebaec,task,flow.Sequence,1_1_1,NA,NA,completion,17031.16,94034,94025.16,94041.82,111072.98,111080,2023-05-12T13:37:47Z,111089.64,"c(""distractor1"", ""distractor2"", ""distractor3"")",Kritik,lawama,s,dereva,nafasi,mawazo,NA,NA,NA,NA,NA,NA,NA,NA,NA,NA,NA,NA,NA,NA,NA,NA,NA,NA,NA,NA,NA,NA,NA
ebaec,deep,flow.Sequence,1_1_2_0,NA,NA,skipped,NA,111081,NA,NA,111072.98,111081,2023-05-12T13:37:47Z,111089.64,"c(""distractor1"", ""distractor2"", ""distractor3"")",Gegenwart,hadhara,s,katiba,jokofu,mikopo,NA,NA,NA,NA,NA,NA,NA,NA,NA,NA,NA,NA,NA,NA,NA,NA,NA,NA,NA,NA,NA,NA,NA
ebaec,Shallow Question,html.Page,1_1_2_1_0,NA,NA,form submission,6599.36,111081,111072.98,111089.64,117689,117689,2023-05-12T13:37:54Z,117688.84,"c(""distractor1"", ""distractor2"", ""distractor3"")",Gegenwart,hadhara,s,katiba,jokofu,mikopo,hadhara,NA,NA,NA,NA,NA,NA,NA,NA,NA,NA,NA,NA,NA,NA,NA,NA,NA,NA,NA,NA,NA,NA
ebaec,"""Richtig""-Screen",canvas.Screen,1_1_2_1_1,NA,NA,timeout,4999.34,117696,117681.84,117688.84,122671.52,122673,2023-05-12T13:37:59Z,122688.18,"c(""distractor1"", ""distractor2"", ""distractor3"")",Gegenwart,hadhara,s,katiba,jokofu,mikopo,NA,NA,1,NA,NA,NA,NA,NA,NA,NA,NA,NA,NA,NA,NA,NA,NA,NA,NA,NA,NA,NA,NA
ebaec,"""Falsch""-Screen",canvas.Screen,1_1_2_1_2,NA,NA,skipped,NA,122683,NA,NA,122671.52,122684,2023-05-12T13:37:59Z,122688.18,"c(""distractor1"", ""distractor2"", ""distractor3"")",Gegenwart,hadhara,s,katiba,jokofu,mikopo,NA,NA,NA,NA,NA,NA,NA,NA,NA,NA,NA,NA,NA,NA,NA,NA,NA,NA,NA,NA,NA,NA,NA
ebaec,shallow,flow.Sequence,1_1_2_1,NA,NA,completion,11581.88,111081,111072.98,111089.64,122671.52,122684,2023-05-12T13:37:59Z,122688.18,"c(""distractor1"", ""distractor2"", ""distractor3"")",Gegenwart,hadhara,s,katiba,jokofu,mikopo,NA,NA,NA,NA,NA,NA,NA,NA,NA,NA,NA,NA,NA,NA,NA,NA,NA,NA,NA,NA,NA,NA,NA
ebaec,task,flow.Sequence,1_1_2,NA,NA,completion,11581.88,111081,111072.98,111089.64,122671.52,122685,2023-05-12T13:37:59Z,122688.18,"c(""distractor1"", ""distractor2"", ""distractor3"")",Gegenwart,hadhara,s,katiba,jokofu,mikopo,NA,NA,NA,NA,NA,NA,NA,NA,NA,NA,NA,NA,NA,NA,NA,NA,NA,NA,NA,NA,NA,NA,NA
ebaec,Deep Question,html.Page,1_1_3_0_0,NA,NA,form submission,7347.82,122686,122671.52,122688.18,130036,130036,2023-05-12T13:38:06Z,130037.22,"c(""distractor1"", ""distractor2"", ""distractor3"")",Gesundheit,salama,d,NA,NA,NA,jota,NA,NA,NA,NA,NA,NA,NA,NA,NA,NA,NA,NA,NA,NA,NA,NA,NA,NA,NA,NA,NA,NA
ebaec,"""Richtig""-Screen",canvas.Screen,1_1_3_0_1,NA,NA,skipped,NA,130041,NA,NA,130036,130042,2023-05-12T13:38:06Z,130037.22,"c(""distractor1"", ""distractor2"", ""distractor3"")",Gesundheit,salama,d,NA,NA,NA,NA,NA,NA,NA,NA,NA,NA,NA,NA,NA,NA,NA,NA,NA,NA,NA,NA,NA,NA,NA,NA,NA,NA
ebaec,"""Falsch""-Screen",canvas.Screen,1_1_3_0_2,NA,NA,timeout,4999.38,130045,130030.86,130037.22,135019.96,135022,2023-05-12T13:38:11Z,135036.6,"c(""distractor1"", ""distractor2"", ""distractor3"")",Gesundheit,salama,d,NA,NA,NA,NA,NA,0,NA,NA,NA,NA,NA,NA,NA,NA,NA,NA,NA,NA,NA,NA,NA,NA,NA,NA,NA,NA
ebaec,deep,flow.Sequence,1_1_3_0,NA,NA,completion,12331.78,122686,122671.52,122688.18,135019.96,135023,2023-05-12T13:38:11Z,135036.6,"c(""distractor1"", ""distractor2"", ""distractor3"")",Gesundheit,salama,d,NA,NA,NA,NA,NA,NA,NA,NA,NA,NA,NA,NA,NA,NA,NA,NA,NA,NA,NA,NA,NA,NA,NA,NA,NA,NA
ebaec,shallow,flow.Sequence,1_1_3_1,NA,NA,skipped,NA,135023,NA,NA,135019.96,135024,2023-05-12T13:38:11Z,135036.6,"c(""distractor1"", ""distractor2"", ""distractor3"")",Gesundheit,salama,d,NA,NA,NA,NA,NA,NA,NA,NA,NA,NA,NA,NA,NA,NA,NA,NA,NA,NA,NA,NA,NA,NA,NA,NA,NA,NA
ebaec,task,flow.Sequence,1_1_3,NA,NA,completion,12331.78,122686,122671.52,122688.18,135019.96,135024,2023-05-12T13:38:11Z,135036.6,"c(""distractor1"", ""distractor2"", ""distractor3"")",Gesundheit,salama,d,NA,NA,NA,NA,NA,NA,NA,NA,NA,NA,NA,NA,NA,NA,NA,NA,NA,NA,NA,NA,NA,NA,NA,NA,NA,NA
ebaec,deep,flow.Sequence,1_1_4_0,NA,NA,skipped,NA,135025,NA,NA,135019.96,135025,2023-05-12T13:38:11Z,135036.6,"c(""distractor1"", ""distractor2"", ""distractor3"")",Rückhalt,msaada,s,muhula,auwali,kiwimbe,NA,NA,NA,NA,NA,NA,NA,NA,NA,NA,NA,NA,NA,NA,NA,NA,NA,NA,NA,NA,NA,NA,NA
ebaec,Shallow Question,html.Page,1_1_4_1_0,NA,NA,form submission,5963.4,135026,135019.96,135036.6,141000,141000,2023-05-12T13:38:17Z,141002.46,"c(""distractor1"", ""distractor2"", ""distractor3"")",Rückhalt,msaada,s,muhula,auwali,kiwimbe,auwali,NA,NA,NA,NA,NA,NA,NA,NA,NA,NA,NA,NA,NA,NA,NA,NA,NA,NA,NA,NA,NA,NA
ebaec,"""Richtig""-Screen",canvas.Screen,1_1_4_1_1,NA,NA,skipped,NA,141005,NA,NA,141000,141005,2023-05-12T13:38:17Z,141002.46,"c(""distractor1"", ""distractor2"", ""distractor3"")",Rückhalt,msaada,s,muhula,auwali,kiwimbe,NA,NA,NA,NA,NA,NA,NA,NA,NA,NA,NA,NA,NA,NA,NA,NA,NA,NA,NA,NA,NA,NA,NA
ebaec,"""Falsch""-Screen",canvas.Screen,1_1_4_1_2,NA,NA,timeout,4999.48,141009,140995.12,141002.46,145985.3,145987,2023-05-12T13:38:22Z,146001.94,"c(""distractor1"", ""distractor2"", ""distractor3"")",Rückhalt,msaada,s,muhula,auwali,kiwimbe,NA,NA,0,NA,NA,NA,NA,NA,NA,NA,NA,NA,NA,NA,NA,NA,NA,NA,NA,NA,NA,NA,NA
ebaec,shallow,flow.Sequence,1_1_4_1,NA,NA,completion,10948.7,135025,135019.96,135036.6,145985.3,145988,2023-05-12T13:38:22Z,146001.94,"c(""distractor1"", ""distractor2"", ""distractor3"")",Rückhalt,msaada,s,muhula,auwali,kiwimbe,NA,NA,NA,NA,NA,NA,NA,NA,NA,NA,NA,NA,NA,NA,NA,NA,NA,NA,NA,NA,NA,NA,NA
ebaec,task,flow.Sequence,1_1_4,NA,NA,completion,10948.7,135024,135019.96,135036.6,145985.3,145989,2023-05-12T13:38:22Z,146001.94,"c(""distractor1"", ""distractor2"", ""distractor3"")",Rückhalt,msaada,s,muhula,auwali,kiwimbe,NA,NA,NA,NA,NA,NA,NA,NA,NA,NA,NA,NA,NA,NA,NA,NA,NA,NA,NA,NA,NA,NA,NA
ebaec,Deep Question,html.Page,1_1_5_0_0,NA,NA,form submission,4739.06,145989,145985.3,146001.94,150741,150742,2023-05-12T13:38:27Z,150751.26,"c(""distractor1"", ""distractor2"", ""distractor3"")",Schatten,kivuli,d,NA,NA,NA,j,NA,NA,NA,NA,NA,NA,NA,NA,NA,NA,NA,NA,NA,NA,NA,NA,NA,NA,NA,NA,NA,NA
ebaec,"""Richtig""-Screen",canvas.Screen,1_1_5_0_1,NA,NA,skipped,NA,150748,NA,NA,150741,150749,2023-05-12T13:38:27Z,150751.26,"c(""distractor1"", ""distractor2"", ""distractor3"")",Schatten,kivuli,d,NA,NA,NA,NA,NA,NA,NA,NA,NA,NA,NA,NA,NA,NA,NA,NA,NA,NA,NA,NA,NA,NA,NA,NA,NA,NA
ebaec,"""Falsch""-Screen",canvas.Screen,1_1_5_0_2,NA,NA,timeout,4999.38,150753,150734.72,150751.26,155733.98,155735,2023-05-12T13:38:32Z,155750.64,"c(""distractor1"", ""distractor2"", ""distractor3"")",Schatten,kivuli,d,NA,NA,NA,NA,NA,0,NA,NA,NA,NA,NA,NA,NA,NA,NA,NA,NA,NA,NA,NA,NA,NA,NA,NA,NA,NA
ebaec,deep,flow.Sequence,1_1_5_0,NA,NA,completion,9732.04,145989,145985.3,146001.94,155733.98,155735,2023-05-12T13:38:32Z,155750.64,"c(""distractor1"", ""distractor2"", ""distractor3"")",Schatten,kivuli,d,NA,NA,NA,NA,NA,NA,NA,NA,NA,NA,NA,NA,NA,NA,NA,NA,NA,NA,NA,NA,NA,NA,NA,NA,NA,NA
ebaec,shallow,flow.Sequence,1_1_5_1,NA,NA,skipped,NA,155735,NA,NA,155733.98,155735,2023-05-12T13:38:32Z,155750.64,"c(""distractor1"", ""distractor2"", ""distractor3"")",Schatten,kivuli,d,NA,NA,NA,NA,NA,NA,NA,NA,NA,NA,NA,NA,NA,NA,NA,NA,NA,NA,NA,NA,NA,NA,NA,NA,NA,NA
ebaec,task,flow.Sequence,1_1_5,NA,NA,completion,9732.04,145989,145985.3,146001.94,155733.98,155735,2023-05-12T13:38:32Z,155750.64,"c(""distractor1"", ""distractor2"", ""distractor3"")",Schatten,kivuli,d,NA,NA,NA,NA,NA,NA,NA,NA,NA,NA,NA,NA,NA,NA,NA,NA,NA,NA,NA,NA,NA,NA,NA,NA,NA,NA
ebaec,block,flow.Loop,1_1,NA,NA,completion,80099.2,75632,75634.2,75634.78,155733.98,155736,2023-05-12T13:38:32Z,155750.64,"c(""distractor1"", ""distractor2"", ""distractor3"")",NA,NA,NA,NA,NA,NA,NA,NA,NA,NA,NA,NA,NA,NA,NA,NA,NA,NA,NA,NA,NA,NA,NA,NA,NA,NA,NA,NA,NA
ebaec,Practice,flow.Sequence,1,NA,NA,completion,85155.78,70574,70574.72,70578.2,155733.98,155736,2023-05-12T13:38:32Z,155750.64,NULL,NA,NA,NA,NA,NA,NA,NA,NA,NA,NA,NA,NA,NA,NA,NA,NA,NA,NA,NA,NA,NA,NA,NA,NA,NA,NA,NA,NA,NA
ebaec,Experiment start,canvas.Screen,2,weiter,keypress(q),response,6529.36,155736,155733.98,155750.64,162280,162297,2023-05-12T13:38:38Z,162404.96,NULL,NA,NA,NA,NA,NA,NA,NA,NA,NA,NA,NA,NA,NA,NA,NA,NA,NA,NA,NA,NA,NA,NA,NA,NA,NA,NA,NA,NA,NA
ebaec,deep,flow.Sequence,3_0_0_0_0_0,NA,NA,skipped,NA,162404,NA,NA,162280,162405,2023-05-12T13:38:38Z,162404.96,NULL,Vorwurf,mashtaka,s,msukumo,mtangulizi,uenyekiti,NA,sdf,NA,0,NA,NA,NA,NA,NA,NA,NA,NA,NA,NA,NA,NA,NA,NA,NA,NA,NA,NA,NA
ebaec,Shallow Question,html.Page,3_0_0_0_0_1_0,NA,NA,form submission,7262.04,162405,162404.74,162404.96,169667,169667,2023-05-12T13:38:46Z,169682.3,NULL,Vorwurf,mashtaka,s,msukumo,mtangulizi,uenyekiti,mtangulizi,NA,NA,0,NA,NA,NA,NA,NA,NA,NA,NA,NA,NA,NA,NA,NA,NA,NA,NA,NA,NA,NA
ebaec,"""Richtig""-Screen",canvas.Screen,3_0_0_0_0_1_1,NA,NA,skipped,NA,169673,NA,NA,169667,169674,2023-05-12T13:38:46Z,169682.3,NULL,Vorwurf,mashtaka,s,msukumo,mtangulizi,uenyekiti,NA,sdf,NA,0,NA,NA,NA,NA,NA,NA,NA,NA,NA,NA,NA,NA,NA,NA,NA,NA,NA,NA,NA
ebaec,"""Falsch""-Screen",canvas.Screen,3_0_0_0_0_1_2,NA,NA,timeout,4999.22,169679,169661.42,169682.3,174664.86,174671,2023-05-12T13:38:51Z,174681.52,NULL,Vorwurf,mashtaka,s,msukumo,mtangulizi,uenyekiti,NA,sdf,0,0,NA,NA,NA,NA,NA,NA,NA,NA,NA,NA,NA,NA,NA,NA,NA,NA,NA,NA,NA
ebaec,shallow,flow.Sequence,3_0_0_0_0_1,NA,NA,completion,12259.9,162405,162404.74,162404.96,174664.86,174675,2023-05-12T13:38:51Z,174681.52,NULL,Vorwurf,mashtaka,s,msukumo,mtangulizi,uenyekiti,NA,sdf,NA,0,NA,NA,NA,NA,NA,NA,NA,NA,NA,NA,NA,NA,NA,NA,NA,NA,NA,NA,NA
ebaec,task,flow.Sequence,3_0_0_0_0,NA,NA,completion,12259.9,162404,162404.74,162404.96,174664.86,174677,2023-05-12T13:38:51Z,174681.52,NULL,Vorwurf,mashtaka,s,msukumo,mtangulizi,uenyekiti,NA,sdf,NA,0,NA,NA,NA,NA,NA,NA,NA,NA,NA,NA,NA,NA,NA,NA,NA,NA,NA,NA,NA
ebaec,Deep Question,html.Page,3_0_0_0_1_0_0,NA,NA,form submission,4971.48,174678,174664.86,174681.52,179653,179654,2023-05-12T13:38:56Z,179664.24,NULL,Lawine,banguko,d,NA,NA,NA,k,NA,NA,0,NA,NA,NA,NA,NA,NA,NA,NA,NA,NA,NA,NA,NA,NA,NA,NA,NA,NA,NA
ebaec,"""Richtig""-Screen",canvas.Screen,3_0_0_0_1_0_1,NA,NA,skipped,NA,179657,NA,NA,179653,179657,2023-05-12T13:38:56Z,179664.24,NULL,Lawine,banguko,d,NA,NA,NA,NA,sdf,NA,0,NA,NA,NA,NA,NA,NA,NA,NA,NA,NA,NA,NA,NA,NA,NA,NA,NA,NA,NA
ebaec,"""Falsch""-Screen",canvas.Screen,3_0_0_0_1_0_2,NA,NA,timeout,4999.5,179659,179651.62,179664.24,184647.08,184649,2023-05-12T13:39:01Z,184663.74,NULL,Lawine,banguko,d,NA,NA,NA,NA,sdf,0,0,NA,NA,NA,NA,NA,NA,NA,NA,NA,NA,NA,NA,NA,NA,NA,NA,NA,NA,NA
ebaec,deep,flow.Sequence,3_0_0_0_1_0,NA,NA,completion,9965.56,174678,174664.86,174681.52,184647.08,184650,2023-05-12T13:39:01Z,184663.74,NULL,Lawine,banguko,d,NA,NA,NA,NA,sdf,NA,0,NA,NA,NA,NA,NA,NA,NA,NA,NA,NA,NA,NA,NA,NA,NA,NA,NA,NA,NA
ebaec,shallow,flow.Sequence,3_0_0_0_1_1,NA,NA,skipped,NA,184650,NA,NA,184647.08,184651,2023-05-12T13:39:01Z,184663.74,NULL,Lawine,banguko,d,NA,NA,NA,NA,sdf,NA,0,NA,NA,NA,NA,NA,NA,NA,NA,NA,NA,NA,NA,NA,NA,NA,NA,NA,NA,NA
ebaec,task,flow.Sequence,3_0_0_0_1,NA,NA,completion,9965.56,174678,174664.86,174681.52,184647.08,184651,2023-05-12T13:39:01Z,184663.74,NULL,Lawine,banguko,d,NA,NA,NA,NA,sdf,NA,0,NA,NA,NA,NA,NA,NA,NA,NA,NA,NA,NA,NA,NA,NA,NA,NA,NA,NA,NA
ebaec,deep,flow.Sequence,3_0_0_0_2_0,NA,NA,skipped,NA,184652,NA,NA,184647.08,184652,2023-05-12T13:39:01Z,184663.74,NULL,Übersicht,kilindo,s,mgusano,chipukizi,kulinganisha,NA,sdf,NA,0,NA,NA,NA,NA,NA,NA,NA,NA,NA,NA,NA,NA,NA,NA,NA,NA,NA,NA,NA
ebaec,Shallow Question,html.Page,3_0_0_0_2_1_0,NA,NA,form submission,4667.26,184654,184647.08,184663.74,189331,189331,2023-05-12T13:39:05Z,189329.72,NULL,Übersicht,kilindo,s,mgusano,chipukizi,kulinganisha,chipukizi,NA,NA,0,NA,NA,NA,NA,NA,NA,NA,NA,NA,NA,NA,NA,NA,NA,NA,NA,NA,NA,NA
ebaec,"""Richtig""-Screen",canvas.Screen,3_0_0_0_2_1_1,NA,NA,skipped,NA,189334,NA,NA,189331,189334,2023-05-12T13:39:05Z,189329.72,NULL,Übersicht,kilindo,s,mgusano,chipukizi,kulinganisha,NA,sdf,NA,0,NA,NA,NA,NA,NA,NA,NA,NA,NA,NA,NA,NA,NA,NA,NA,NA,NA,NA,NA
ebaec,"""Falsch""-Screen",canvas.Screen,3_0_0_0_2_1_2,NA,NA,timeout,4999.32,189336,189328.68,189329.72,194312.38,194314,2023-05-12T13:39:10Z,194329.04,NULL,Übersicht,kilindo,s,mgusano,chipukizi,kulinganisha,NA,sdf,0,0,NA,NA,NA,NA,NA,NA,NA,NA,NA,NA,NA,NA,NA,NA,NA,NA,NA,NA,NA
ebaec,shallow,flow.Sequence,3_0_0_0_2_1,NA,NA,completion,9648.64,184653,184647.08,184663.74,194312.38,194315,2023-05-12T13:39:10Z,194329.04,NULL,Übersicht,kilindo,s,mgusano,chipukizi,kulinganisha,NA,sdf,NA,0,NA,NA,NA,NA,NA,NA,NA,NA,NA,NA,NA,NA,NA,NA,NA,NA,NA,NA,NA
ebaec,task,flow.Sequence,3_0_0_0_2,NA,NA,completion,9648.64,184652,184647.08,184663.74,194312.38,194316,2023-05-12T13:39:10Z,194329.04,NULL,Übersicht,kilindo,s,mgusano,chipukizi,kulinganisha,NA,sdf,NA,0,NA,NA,NA,NA,NA,NA,NA,NA,NA,NA,NA,NA,NA,NA,NA,NA,NA,NA,NA
ebaec,Deep Question,html.Page,3_0_0_0_3_0_0,NA,NA,form submission,4371.96,194316,194312.38,194329.04,198701,198702,2023-05-12T13:39:15Z,198711.8,NULL,Papier,karatasi,d,NA,NA,NA,k,NA,NA,0,NA,NA,NA,NA,NA,NA,NA,NA,NA,NA,NA,NA,NA,NA,NA,NA,NA,NA,NA
ebaec,"""Richtig""-Screen",canvas.Screen,3_0_0_0_3_0_1,NA,NA,skipped,NA,198708,NA,NA,198701,198708,2023-05-12T13:39:15Z,198711.8,NULL,Papier,karatasi,d,NA,NA,NA,NA,sdf,NA,0,NA,NA,NA,NA,NA,NA,NA,NA,NA,NA,NA,NA,NA,NA,NA,NA,NA,NA,NA
ebaec,"""Falsch""-Screen",canvas.Screen,3_0_0_0_3_0_2,NA,NA,timeout,4999.52,198714,198694.6,198711.8,203694.66,203696,2023-05-12T13:39:20Z,203711.32,NULL,Papier,karatasi,d,NA,NA,NA,NA,sdf,0,0,NA,NA,NA,NA,NA,NA,NA,NA,NA,NA,NA,NA,NA,NA,NA,NA,NA,NA,NA
ebaec,deep,flow.Sequence,3_0_0_0_3_0,NA,NA,completion,9365.62,194316,194312.38,194329.04,203694.66,203697,2023-05-12T13:39:20Z,203711.32,NULL,Papier,karatasi,d,NA,NA,NA,NA,sdf,NA,0,NA,NA,NA,NA,NA,NA,NA,NA,NA,NA,NA,NA,NA,NA,NA,NA,NA,NA,NA
ebaec,shallow,flow.Sequence,3_0_0_0_3_1,NA,NA,skipped,NA,203697,NA,NA,203694.66,203697,2023-05-12T13:39:20Z,203711.32,NULL,Papier,karatasi,d,NA,NA,NA,NA,sdf,NA,0,NA,NA,NA,NA,NA,NA,NA,NA,NA,NA,NA,NA,NA,NA,NA,NA,NA,NA,NA
ebaec,task,flow.Sequence,3_0_0_0_3,NA,NA,completion,9365.62,194316,194312.38,194329.04,203694.66,203698,2023-05-12T13:39:20Z,203711.32,NULL,Papier,karatasi,d,NA,NA,NA,NA,sdf,NA,0,NA,NA,NA,NA,NA,NA,NA,NA,NA,NA,NA,NA,NA,NA,NA,NA,NA,NA,NA
ebaec,deep,flow.Sequence,3_0_0_0_4_0,NA,NA,skipped,NA,203698,NA,NA,203694.66,203698,2023-05-12T13:39:20Z,203711.32,NULL,Körper,kiwiliwili,s,mapambano,mpatanishi,kiolezo,NA,sdf,NA,0,NA,NA,NA,NA,NA,NA,NA,NA,NA,NA,NA,NA,NA,NA,NA,NA,NA,NA,NA
ebaec,Shallow Question,html.Page,3_0_0_0_4_1_0,NA,NA,form submission,7566.68,203699,203694.66,203711.32,211278,211279,2023-05-12T13:39:27Z,211276.98,NULL,Körper,kiwiliwili,s,mapambano,mpatanishi,kiolezo,kiwiliwili,NA,NA,0,NA,NA,NA,NA,NA,NA,NA,NA,NA,NA,NA,NA,NA,NA,NA,NA,NA,NA,NA
ebaec,"""Richtig""-Screen",canvas.Screen,3_0_0_0_4_1_1,NA,NA,timeout,4999.32,211283,211274.96,211276.98,216259.74,216260,2023-05-12T13:39:32Z,216276.3,NULL,Körper,kiwiliwili,s,mapambano,mpatanishi,kiolezo,NA,sdf,1,0,NA,NA,NA,NA,NA,NA,NA,NA,NA,NA,NA,NA,NA,NA,NA,NA,NA,NA,NA
ebaec,"""Falsch""-Screen",canvas.Screen,3_0_0_0_4_1_2,NA,NA,skipped,NA,216266,NA,NA,216259.74,216266,2023-05-12T13:39:32Z,216276.3,NULL,Körper,kiwiliwili,s,mapambano,mpatanishi,kiolezo,NA,sdf,NA,0,NA,NA,NA,NA,NA,NA,NA,NA,NA,NA,NA,NA,NA,NA,NA,NA,NA,NA,NA
ebaec,shallow,flow.Sequence,3_0_0_0_4_1,NA,NA,completion,12548.42,203699,203694.66,203711.32,216259.74,216267,2023-05-12T13:39:32Z,216276.3,NULL,Körper,kiwiliwili,s,mapambano,mpatanishi,kiolezo,NA,sdf,NA,0,NA,NA,NA,NA,NA,NA,NA,NA,NA,NA,NA,NA,NA,NA,NA,NA,NA,NA,NA
ebaec,task,flow.Sequence,3_0_0_0_4,NA,NA,completion,12548.42,203698,203694.66,203711.32,216259.74,216267,2023-05-12T13:39:32Z,216276.3,NULL,Körper,kiwiliwili,s,mapambano,mpatanishi,kiolezo,NA,sdf,NA,0,NA,NA,NA,NA,NA,NA,NA,NA,NA,NA,NA,NA,NA,NA,NA,NA,NA,NA,NA
ebaec,deep,flow.Sequence,3_0_0_0_5_0,NA,NA,skipped,NA,216267,NA,NA,216259.74,216267,2023-05-12T13:39:32Z,216276.3,NULL,Entwicklung,maendeleo,s,uangavu,mshindwa,badiliko,NA,sdf,NA,0,NA,NA,NA,NA,NA,NA,NA,NA,NA,NA,NA,NA,NA,NA,NA,NA,NA,NA,NA
ebaec,Shallow Question,html.Page,3_0_0_0_5_1_0,NA,NA,form submission,3253.7,216267,216259.74,216276.3,219530,219531,2023-05-12T13:39:35Z,219542.54,NULL,Entwicklung,maendeleo,s,uangavu,mshindwa,badiliko,badiliko,NA,NA,0,NA,NA,NA,NA,NA,NA,NA,NA,NA,NA,NA,NA,NA,NA,NA,NA,NA,NA,NA
ebaec,"""Richtig""-Screen",canvas.Screen,3_0_0_0_5_1_1,NA,NA,skipped,NA,219538,NA,NA,219530,219538,2023-05-12T13:39:35Z,219542.54,NULL,Entwicklung,maendeleo,s,uangavu,mshindwa,badiliko,NA,sdf,NA,0,NA,NA,NA,NA,NA,NA,NA,NA,NA,NA,NA,NA,NA,NA,NA,NA,NA,NA,NA
ebaec,"""Falsch""-Screen",canvas.Screen,3_0_0_0_5_1_2,NA,NA,timeout,4999.42,219544,219524.1,219542.54,224525.28,224527,2023-05-12T13:39:40Z,224541.96,NULL,Entwicklung,maendeleo,s,uangavu,mshindwa,badiliko,NA,sdf,0,0,NA,NA,NA,NA,NA,NA,NA,NA,NA,NA,NA,NA,NA,NA,NA,NA,NA,NA,NA
ebaec,shallow,flow.Sequence,3_0_0_0_5_1,NA,NA,completion,8248.98,216267,216259.74,216276.3,224525.28,224527,2023-05-12T13:39:40Z,224541.96,NULL,Entwicklung,maendeleo,s,uangavu,mshindwa,badiliko,NA,sdf,NA,0,NA,NA,NA,NA,NA,NA,NA,NA,NA,NA,NA,NA,NA,NA,NA,NA,NA,NA,NA
ebaec,task,flow.Sequence,3_0_0_0_5,NA,NA,completion,8248.98,216267,216259.74,216276.3,224525.28,224528,2023-05-12T13:39:40Z,224541.96,NULL,Entwicklung,maendeleo,s,uangavu,mshindwa,badiliko,NA,sdf,NA,0,NA,NA,NA,NA,NA,NA,NA,NA,NA,NA,NA,NA,NA,NA,NA,NA,NA,NA,NA
ebaec,Deep Question,html.Page,3_0_0_0_6_0_0,NA,NA,form submission,4422.04,224528,224525.28,224541.96,228964,228965,2023-05-12T13:39:45Z,228974.66,NULL,Niveau,kiwango,d,NA,NA,NA,j,NA,NA,0,NA,NA,NA,NA,NA,NA,NA,NA,NA,NA,NA,NA,NA,NA,NA,NA,NA,NA,NA
ebaec,"""Richtig""-Screen",canvas.Screen,3_0_0_0_6_0_1,NA,NA,skipped,NA,228971,NA,NA,228964,228971,2023-05-12T13:39:45Z,228974.66,NULL,Niveau,kiwango,d,NA,NA,NA,NA,sdf,NA,0,NA,NA,NA,NA,NA,NA,NA,NA,NA,NA,NA,NA,NA,NA,NA,NA,NA,NA,NA
ebaec,"""Falsch""-Screen",canvas.Screen,3_0_0_0_6_0_2,NA,NA,timeout,4999.4,228977,228957.9,228974.66,233957.4,233960,2023-05-12T13:39:50Z,233974.06,NULL,Niveau,kiwango,d,NA,NA,NA,NA,sdf,0,0,NA,NA,NA,NA,NA,NA,NA,NA,NA,NA,NA,NA,NA,NA,NA,NA,NA,NA,NA
ebaec,deep,flow.Sequence,3_0_0_0_6_0,NA,NA,completion,9415.44,224528,224525.28,224541.96,233957.4,233962,2023-05-12T13:39:50Z,233974.06,NULL,Niveau,kiwango,d,NA,NA,NA,NA,sdf,NA,0,NA,NA,NA,NA,NA,NA,NA,NA,NA,NA,NA,NA,NA,NA,NA,NA,NA,NA,NA
ebaec,shallow,flow.Sequence,3_0_0_0_6_1,NA,NA,skipped,NA,233963,NA,NA,233957.4,233964,2023-05-12T13:39:50Z,233974.06,NULL,Niveau,kiwango,d,NA,NA,NA,NA,sdf,NA,0,NA,NA,NA,NA,NA,NA,NA,NA,NA,NA,NA,NA,NA,NA,NA,NA,NA,NA,NA
ebaec,task,flow.Sequence,3_0_0_0_6,NA,NA,completion,9415.44,224528,224525.28,224541.96,233957.4,233964,2023-05-12T13:39:50Z,233974.06,NULL,Niveau,kiwango,d,NA,NA,NA,NA,sdf,NA,0,NA,NA,NA,NA,NA,NA,NA,NA,NA,NA,NA,NA,NA,NA,NA,NA,NA,NA,NA
ebaec,Deep Question,html.Page,3_0_0_0_7_0_0,NA,NA,form submission,4062.94,233964,233957.4,233974.06,238037,238038,2023-05-12T13:39:54Z,238057,NULL,System,maongozi,d,NA,NA,NA,h,NA,NA,0,NA,NA,NA,NA,NA,NA,NA,NA,NA,NA,NA,NA,NA,NA,NA,NA,NA,NA,NA
ebaec,"""Richtig""-Screen",canvas.Screen,3_0_0_0_7_0_1,NA,NA,skipped,NA,238052,NA,NA,238037,238052,2023-05-12T13:39:54Z,238057,NULL,System,maongozi,d,NA,NA,NA,NA,sdf,NA,0,NA,NA,NA,NA,NA,NA,NA,NA,NA,NA,NA,NA,NA,NA,NA,NA,NA,NA,NA
ebaec,"""Falsch""-Screen",canvas.Screen,3_0_0_0_7_0_2,NA,NA,timeout,4999.36,238059,238027.98,238057,243039.7,243042,2023-05-12T13:39:59Z,243056.36,NULL,System,maongozi,d,NA,NA,NA,NA,sdf,0,0,NA,NA,NA,NA,NA,NA,NA,NA,NA,NA,NA,NA,NA,NA,NA,NA,NA,NA,NA
ebaec,deep,flow.Sequence,3_0_0_0_7_0,NA,NA,completion,9065.64,233964,233957.4,233974.06,243039.7,243044,2023-05-12T13:39:59Z,243056.36,NULL,System,maongozi,d,NA,NA,NA,NA,sdf,NA,0,NA,NA,NA,NA,NA,NA,NA,NA,NA,NA,NA,NA,NA,NA,NA,NA,NA,NA,NA
ebaec,shallow,flow.Sequence,3_0_0_0_7_1,NA,NA,skipped,NA,243045,NA,NA,243039.7,243045,2023-05-12T13:39:59Z,243056.36,NULL,System,maongozi,d,NA,NA,NA,NA,sdf,NA,0,NA,NA,NA,NA,NA,NA,NA,NA,NA,NA,NA,NA,NA,NA,NA,NA,NA,NA,NA
ebaec,task,flow.Sequence,3_0_0_0_7,NA,NA,completion,9065.64,233964,233957.4,233974.06,243039.7,243047,2023-05-12T13:39:59Z,243056.36,NULL,System,maongozi,d,NA,NA,NA,NA,sdf,NA,0,NA,NA,NA,NA,NA,NA,NA,NA,NA,NA,NA,NA,NA,NA,NA,NA,NA,NA,NA
ebaec,block,flow.Loop,3_0_0_0,NA,NA,completion,80634.74,162404,162404.74,162404.96,243039.7,243049,2023-05-12T13:39:59Z,243056.36,NULL,NA,NA,NA,NA,NA,NA,NA,sdf,NA,0,NA,NA,NA,NA,NA,NA,NA,NA,NA,NA,NA,NA,NA,NA,NA,NA,NA,NA,NA
ebaec,weiter,canvas.Screen,3_0_0_1,sdf,keypress(Space),response,1456.64,243050,243039.7,243056.36,244513,244539,2023-05-12T13:40:00Z,244623.36,NULL,NA,NA,NA,NA,NA,NA,NA,sdf,NA,0,NA,NA,NA,NA,NA,NA,NA,NA,NA,NA,NA,NA,NA,NA,NA,NA,NA,NA,NA
ebaec,check continue,flow.Sequence,3_0_0,NA,NA,completion,82108.04,162404,162404.74,162404.96,244513,244540,2023-05-12T13:40:00Z,244623.36,NULL,NA,NA,NA,NA,NA,NA,NA,sdf,NA,0,NA,NA,NA,NA,NA,NA,NA,NA,NA,NA,NA,NA,NA,NA,NA,NA,NA,NA,NA
ebaec,deep,flow.Sequence,3_0_1_0_0_0,NA,NA,skipped,NA,244623,NA,NA,244513,244623,2023-05-12T13:40:00Z,244623.36,NULL,Vorwurf,mashtaka,s,msukumo,mtangulizi,uenyekiti,NA,sdfdsf,NA,1,NA,NA,NA,NA,NA,NA,NA,NA,NA,NA,NA,NA,NA,NA,NA,NA,NA,NA,NA
ebaec,Shallow Question,html.Page,3_0_1_0_0_1_0,NA,NA,form submission,8723.64,244623,244623.12,244623.36,253347,253347,2023-05-12T13:40:09Z,253355,NULL,Vorwurf,mashtaka,s,msukumo,mtangulizi,uenyekiti,mashtaka,NA,NA,1,NA,NA,NA,NA,NA,NA,NA,NA,NA,NA,NA,NA,NA,NA,NA,NA,NA,NA,NA
ebaec,"""Richtig""-Screen",canvas.Screen,3_0_1_0_0_1_1,NA,NA,timeout,4999.28,253350,253340.34,253355,258337.62,258339,2023-05-12T13:40:14Z,258354.28,NULL,Vorwurf,mashtaka,s,msukumo,mtangulizi,uenyekiti,NA,sdfdsf,1,1,NA,NA,NA,NA,NA,NA,NA,NA,NA,NA,NA,NA,NA,NA,NA,NA,NA,NA,NA
ebaec,"""Falsch""-Screen",canvas.Screen,3_0_1_0_0_1_2,NA,NA,skipped,NA,258341,NA,NA,258337.62,258341,2023-05-12T13:40:14Z,258354.28,NULL,Vorwurf,mashtaka,s,msukumo,mtangulizi,uenyekiti,NA,sdfdsf,NA,1,NA,NA,NA,NA,NA,NA,NA,NA,NA,NA,NA,NA,NA,NA,NA,NA,NA,NA,NA
ebaec,shallow,flow.Sequence,3_0_1_0_0_1,NA,NA,completion,13714.26,244623,244623.12,244623.36,258337.62,258341,2023-05-12T13:40:14Z,258354.28,NULL,Vorwurf,mashtaka,s,msukumo,mtangulizi,uenyekiti,NA,sdfdsf,NA,1,NA,NA,NA,NA,NA,NA,NA,NA,NA,NA,NA,NA,NA,NA,NA,NA,NA,NA,NA
ebaec,task,flow.Sequence,3_0_1_0_0,NA,NA,completion,13714.26,244623,244623.12,244623.36,258337.62,258342,2023-05-12T13:40:14Z,258354.28,NULL,Vorwurf,mashtaka,s,msukumo,mtangulizi,uenyekiti,NA,sdfdsf,NA,1,NA,NA,NA,NA,NA,NA,NA,NA,NA,NA,NA,NA,NA,NA,NA,NA,NA,NA,NA
ebaec,Deep Question,html.Page,3_0_1_0_1_0_0,NA,NA,form submission,5319.72,258342,258337.62,258354.28,263674,263675,2023-05-12T13:40:20Z,263670.32,NULL,System,maongozi,d,NA,NA,NA,k,NA,NA,1,NA,NA,NA,NA,NA,NA,NA,NA,NA,NA,NA,NA,NA,NA,NA,NA,NA,NA,NA
ebaec,"""Richtig""-Screen",canvas.Screen,3_0_1_0_1_0_1,NA,NA,skipped,NA,263678,NA,NA,263674,263678,2023-05-12T13:40:20Z,263670.32,NULL,System,maongozi,d,NA,NA,NA,NA,sdfdsf,NA,1,NA,NA,NA,NA,NA,NA,NA,NA,NA,NA,NA,NA,NA,NA,NA,NA,NA,NA,NA
ebaec,"""Falsch""-Screen",canvas.Screen,3_0_1_0_1_0_2,NA,NA,timeout,4999.38,263682,263667.4,263670.32,268653.1,268655,2023-05-12T13:40:25Z,268669.7,NULL,System,maongozi,d,NA,NA,NA,NA,sdfdsf,0,1,NA,NA,NA,NA,NA,NA,NA,NA,NA,NA,NA,NA,NA,NA,NA,NA,NA,NA,NA
ebaec,deep,flow.Sequence,3_0_1_0_1_0,NA,NA,completion,10298.82,258342,258337.62,258354.28,268653.1,268655,2023-05-12T13:40:25Z,268669.7,NULL,System,maongozi,d,NA,NA,NA,NA,sdfdsf,NA,1,NA,NA,NA,NA,NA,NA,NA,NA,NA,NA,NA,NA,NA,NA,NA,NA,NA,NA,NA
ebaec,shallow,flow.Sequence,3_0_1_0_1_1,NA,NA,skipped,NA,268656,NA,NA,268653.1,268656,2023-05-12T13:40:25Z,268669.7,NULL,System,maongozi,d,NA,NA,NA,NA,sdfdsf,NA,1,NA,NA,NA,NA,NA,NA,NA,NA,NA,NA,NA,NA,NA,NA,NA,NA,NA,NA,NA
ebaec,task,flow.Sequence,3_0_1_0_1,NA,NA,completion,10298.82,258342,258337.62,258354.28,268653.1,268657,2023-05-12T13:40:25Z,268669.7,NULL,System,maongozi,d,NA,NA,NA,NA,sdfdsf,NA,1,NA,NA,NA,NA,NA,NA,NA,NA,NA,NA,NA,NA,NA,NA,NA,NA,NA,NA,NA
ebaec,Deep Question,html.Page,3_0_1_0_2_0_0,NA,NA,form submission,4997.3,268657,268653.1,268669.7,273667,273669,2023-05-12T13:40:30Z,273669.04,NULL,Papier,karatasi,d,NA,NA,NA,j,NA,NA,1,NA,NA,NA,NA,NA,NA,NA,NA,NA,NA,NA,NA,NA,NA,NA,NA,NA,NA,NA
ebaec,"""Richtig""-Screen",canvas.Screen,3_0_1_0_2_0_1,NA,NA,skipped,NA,273675,NA,NA,273667,273675,2023-05-12T13:40:30Z,273669.04,NULL,Papier,karatasi,d,NA,NA,NA,NA,sdfdsf,NA,1,NA,NA,NA,NA,NA,NA,NA,NA,NA,NA,NA,NA,NA,NA,NA,NA,NA,NA,NA
ebaec,"""Falsch""-Screen",canvas.Screen,3_0_1_0_2_0_2,NA,NA,timeout,4999.44,273678,273658.44,273669.04,278651.82,278654,2023-05-12T13:40:35Z,278668.48,NULL,Papier,karatasi,d,NA,NA,NA,NA,sdfdsf,0,1,NA,NA,NA,NA,NA,NA,NA,NA,NA,NA,NA,NA,NA,NA,NA,NA,NA,NA,NA
ebaec,deep,flow.Sequence,3_0_1_0_2_0,NA,NA,completion,9982.12,268657,268653.1,268669.7,278651.82,278656,2023-05-12T13:40:35Z,278668.48,NULL,Papier,karatasi,d,NA,NA,NA,NA,sdfdsf,NA,1,NA,NA,NA,NA,NA,NA,NA,NA,NA,NA,NA,NA,NA,NA,NA,NA,NA,NA,NA
ebaec,shallow,flow.Sequence,3_0_1_0_2_1,NA,NA,skipped,NA,278656,NA,NA,278651.82,278657,2023-05-12T13:40:35Z,278668.48,NULL,Papier,karatasi,d,NA,NA,NA,NA,sdfdsf,NA,1,NA,NA,NA,NA,NA,NA,NA,NA,NA,NA,NA,NA,NA,NA,NA,NA,NA,NA,NA
ebaec,task,flow.Sequence,3_0_1_0_2,NA,NA,completion,9982.12,268657,268653.1,268669.7,278651.82,278659,2023-05-12T13:40:35Z,278668.48,NULL,Papier,karatasi,d,NA,NA,NA,NA,sdfdsf,NA,1,NA,NA,NA,NA,NA,NA,NA,NA,NA,NA,NA,NA,NA,NA,NA,NA,NA,NA,NA
ebaec,Deep Question,html.Page,3_0_1_0_3_0_0,NA,NA,form submission,5093.52,278661,278651.82,278668.48,283762,283763,2023-05-12T13:40:40Z,283767.74,NULL,Niveau,kiwango,d,NA,NA,NA,f,NA,NA,1,NA,NA,NA,NA,NA,NA,NA,NA,NA,NA,NA,NA,NA,NA,NA,NA,NA,NA,NA
ebaec,"""Richtig""-Screen",canvas.Screen,3_0_1_0_3_0_1,NA,NA,skipped,NA,283767,NA,NA,283762,283767,2023-05-12T13:40:40Z,283767.74,NULL,Niveau,kiwango,d,NA,NA,NA,NA,sdfdsf,NA,1,NA,NA,NA,NA,NA,NA,NA,NA,NA,NA,NA,NA,NA,NA,NA,NA,NA,NA,NA
ebaec,"""Falsch""-Screen",canvas.Screen,3_0_1_0_3_0_2,NA,NA,timeout,4999.38,283772,283752.18,283767.74,288750.46,288752,2023-05-12T13:40:45Z,288767.12,NULL,Niveau,kiwango,d,NA,NA,NA,NA,sdfdsf,0,1,NA,NA,NA,NA,NA,NA,NA,NA,NA,NA,NA,NA,NA,NA,NA,NA,NA,NA,NA
ebaec,deep,flow.Sequence,3_0_1_0_3_0,NA,NA,completion,10081.98,278660,278651.82,278668.48,288750.46,288753,2023-05-12T13:40:45Z,288767.12,NULL,Niveau,kiwango,d,NA,NA,NA,NA,sdfdsf,NA,1,NA,NA,NA,NA,NA,NA,NA,NA,NA,NA,NA,NA,NA,NA,NA,NA,NA,NA,NA
ebaec,shallow,flow.Sequence,3_0_1_0_3_1,NA,NA,skipped,NA,288754,NA,NA,288750.46,288755,2023-05-12T13:40:45Z,288767.12,NULL,Niveau,kiwango,d,NA,NA,NA,NA,sdfdsf,NA,1,NA,NA,NA,NA,NA,NA,NA,NA,NA,NA,NA,NA,NA,NA,NA,NA,NA,NA,NA
ebaec,task,flow.Sequence,3_0_1_0_3,NA,NA,completion,10081.98,278660,278651.82,278668.48,288750.46,288756,2023-05-12T13:40:45Z,288767.12,NULL,Niveau,kiwango,d,NA,NA,NA,NA,sdfdsf,NA,1,NA,NA,NA,NA,NA,NA,NA,NA,NA,NA,NA,NA,NA,NA,NA,NA,NA,NA,NA
ebaec,deep,flow.Sequence,3_0_1_0_4_0,NA,NA,skipped,NA,288756,NA,NA,288750.46,288757,2023-05-12T13:40:45Z,288767.12,NULL,Entwicklung,maendeleo,s,uangavu,mshindwa,badiliko,NA,sdfdsf,NA,1,NA,NA,NA,NA,NA,NA,NA,NA,NA,NA,NA,NA,NA,NA,NA,NA,NA,NA,NA
ebaec,Shallow Question,html.Page,3_0_1_0_4_1_0,NA,NA,form submission,7873.88,288758,288750.46,288767.12,296641,296642,2023-05-12T13:40:53Z,296649.46,NULL,Entwicklung,maendeleo,s,uangavu,mshindwa,badiliko,maendeleo,NA,NA,1,NA,NA,NA,NA,NA,NA,NA,NA,NA,NA,NA,NA,NA,NA,NA,NA,NA,NA,NA
ebaec,"""Richtig""-Screen",canvas.Screen,3_0_1_0_4_1_1,NA,NA,timeout,4999.42,296645,296636.88,296649.46,301632.26,301634,2023-05-12T13:40:57Z,301648.88,NULL,Entwicklung,maendeleo,s,uangavu,mshindwa,badiliko,NA,sdfdsf,1,1,NA,NA,NA,NA,NA,NA,NA,NA,NA,NA,NA,NA,NA,NA,NA,NA,NA,NA,NA
ebaec,"""Falsch""-Screen",canvas.Screen,3_0_1_0_4_1_2,NA,NA,skipped,NA,301644,NA,NA,301632.26,301644,2023-05-12T13:40:58Z,301648.88,NULL,Entwicklung,maendeleo,s,uangavu,mshindwa,badiliko,NA,sdfdsf,NA,1,NA,NA,NA,NA,NA,NA,NA,NA,NA,NA,NA,NA,NA,NA,NA,NA,NA,NA,NA
ebaec,shallow,flow.Sequence,3_0_1_0_4_1,NA,NA,completion,12865.14,288757,288750.46,288767.12,301632.26,301645,2023-05-12T13:40:58Z,301648.88,NULL,Entwicklung,maendeleo,s,uangavu,mshindwa,badiliko,NA,sdfdsf,NA,1,NA,NA,NA,NA,NA,NA,NA,NA,NA,NA,NA,NA,NA,NA,NA,NA,NA,NA,NA
ebaec,task,flow.Sequence,3_0_1_0_4,NA,NA,completion,12865.14,288756,288750.46,288767.12,301632.26,301645,2023-05-12T13:40:58Z,301648.88,NULL,Entwicklung,maendeleo,s,uangavu,mshindwa,badiliko,NA,sdfdsf,NA,1,NA,NA,NA,NA,NA,NA,NA,NA,NA,NA,NA,NA,NA,NA,NA,NA,NA,NA,NA
ebaec,deep,flow.Sequence,3_0_1_0_5_0,NA,NA,skipped,NA,301646,NA,NA,301632.26,301646,2023-05-12T13:40:58Z,301648.88,NULL,Übersicht,kilindo,s,mgusano,chipukizi,kulinganisha,NA,sdfdsf,NA,1,NA,NA,NA,NA,NA,NA,NA,NA,NA,NA,NA,NA,NA,NA,NA,NA,NA,NA,NA
ebaec,Shallow Question,html.Page,3_0_1_0_5_1_0,NA,NA,form submission,7068.12,301646,301632.26,301648.88,308717,308718,2023-05-12T13:41:05Z,308731.32,NULL,Übersicht,kilindo,s,mgusano,chipukizi,kulinganisha,mgusano,NA,NA,1,NA,NA,NA,NA,NA,NA,NA,NA,NA,NA,NA,NA,NA,NA,NA,NA,NA,NA,NA
ebaec,"""Richtig""-Screen",canvas.Screen,3_0_1_0_5_1_1,NA,NA,skipped,NA,308724,NA,NA,308717,308724,2023-05-12T13:41:05Z,308731.32,NULL,Übersicht,kilindo,s,mgusano,chipukizi,kulinganisha,NA,sdfdsf,NA,1,NA,NA,NA,NA,NA,NA,NA,NA,NA,NA,NA,NA,NA,NA,NA,NA,NA,NA,NA
ebaec,"""Falsch""-Screen",canvas.Screen,3_0_1_0_5_1_2,NA,NA,timeout,4999.3,308729,308712.56,308731.32,313713.96,313715,2023-05-12T13:41:10Z,313730.62,NULL,Übersicht,kilindo,s,mgusano,chipukizi,kulinganisha,NA,sdfdsf,0,1,NA,NA,NA,NA,NA,NA,NA,NA,NA,NA,NA,NA,NA,NA,NA,NA,NA,NA,NA
ebaec,shallow,flow.Sequence,3_0_1_0_5_1,NA,NA,completion,12065.08,301646,301632.26,301648.88,313713.96,313716,2023-05-12T13:41:10Z,313730.62,NULL,Übersicht,kilindo,s,mgusano,chipukizi,kulinganisha,NA,sdfdsf,NA,1,NA,NA,NA,NA,NA,NA,NA,NA,NA,NA,NA,NA,NA,NA,NA,NA,NA,NA,NA
ebaec,task,flow.Sequence,3_0_1_0_5,NA,NA,completion,12065.08,301645,301632.26,301648.88,313713.96,313716,2023-05-12T13:41:10Z,313730.62,NULL,Übersicht,kilindo,s,mgusano,chipukizi,kulinganisha,NA,sdfdsf,NA,1,NA,NA,NA,NA,NA,NA,NA,NA,NA,NA,NA,NA,NA,NA,NA,NA,NA,NA,NA
ebaec,Deep Question,html.Page,3_0_1_0_6_0_0,NA,NA,form submission,5963.38,313718,313713.96,313730.62,319694,319694,2023-05-12T13:41:16Z,319696.48,NULL,Lawine,banguko,d,NA,NA,NA,asdf,NA,NA,1,NA,NA,NA,NA,NA,NA,NA,NA,NA,NA,NA,NA,NA,NA,NA,NA,NA,NA,NA
ebaec,"""Richtig""-Screen",canvas.Screen,3_0_1_0_6_0_1,NA,NA,skipped,NA,319697,NA,NA,319694,319697,2023-05-12T13:41:16Z,319696.48,NULL,Lawine,banguko,d,NA,NA,NA,NA,sdfdsf,NA,1,NA,NA,NA,NA,NA,NA,NA,NA,NA,NA,NA,NA,NA,NA,NA,NA,NA,NA,NA
ebaec,"""Falsch""-Screen",canvas.Screen,3_0_1_0_6_0_2,NA,NA,timeout,4999.48,319699,319691.74,319696.48,324679.3,324681,2023-05-12T13:41:21Z,324695.96,NULL,Lawine,banguko,d,NA,NA,NA,NA,sdfdsf,0,1,NA,NA,NA,NA,NA,NA,NA,NA,NA,NA,NA,NA,NA,NA,NA,NA,NA,NA,NA
ebaec,deep,flow.Sequence,3_0_1_0_6_0,NA,NA,completion,10948.68,313718,313713.96,313730.62,324679.3,324682,2023-05-12T13:41:21Z,324695.96,NULL,Lawine,banguko,d,NA,NA,NA,NA,sdfdsf,NA,1,NA,NA,NA,NA,NA,NA,NA,NA,NA,NA,NA,NA,NA,NA,NA,NA,NA,NA,NA
ebaec,shallow,flow.Sequence,3_0_1_0_6_1,NA,NA,skipped,NA,324683,NA,NA,324679.3,324683,2023-05-12T13:41:21Z,324695.96,NULL,Lawine,banguko,d,NA,NA,NA,NA,sdfdsf,NA,1,NA,NA,NA,NA,NA,NA,NA,NA,NA,NA,NA,NA,NA,NA,NA,NA,NA,NA,NA
ebaec,task,flow.Sequence,3_0_1_0_6,NA,NA,completion,10948.68,313718,313713.96,313730.62,324679.3,324684,2023-05-12T13:41:21Z,324695.96,NULL,Lawine,banguko,d,NA,NA,NA,NA,sdfdsf,NA,1,NA,NA,NA,NA,NA,NA,NA,NA,NA,NA,NA,NA,NA,NA,NA,NA,NA,NA,NA
ebaec,deep,flow.Sequence,3_0_1_0_7_0,NA,NA,skipped,NA,324684,NA,NA,324679.3,324684,2023-05-12T13:41:21Z,324695.96,NULL,Körper,kiwiliwili,s,mapambano,mpatanishi,kiolezo,NA,sdfdsf,NA,1,NA,NA,NA,NA,NA,NA,NA,NA,NA,NA,NA,NA,NA,NA,NA,NA,NA,NA,NA
ebaec,Shallow Question,html.Page,3_0_1_0_7_1_0,NA,NA,form submission,9191.04,324685,324679.3,324695.96,333887,333889,2023-05-12T13:41:30Z,333894.8,NULL,Körper,kiwiliwili,s,mapambano,mpatanishi,kiolezo,kiwiliwili,NA,NA,1,NA,NA,NA,NA,NA,NA,NA,NA,NA,NA,NA,NA,NA,NA,NA,NA,NA,NA,NA
ebaec,"""Richtig""-Screen",canvas.Screen,3_0_1_0_7_1_1,NA,NA,timeout,4999.36,333898,333877.48,333894.8,338877.54,338880,2023-05-12T13:41:35Z,338894.16,NULL,Körper,kiwiliwili,s,mapambano,mpatanishi,kiolezo,NA,sdfdsf,1,1,NA,NA,NA,NA,NA,NA,NA,NA,NA,NA,NA,NA,NA,NA,NA,NA,NA,NA,NA
ebaec,"""Falsch""-Screen",canvas.Screen,3_0_1_0_7_1_2,NA,NA,skipped,NA,338892,NA,NA,338877.54,338892,2023-05-12T13:41:35Z,338894.16,NULL,Körper,kiwiliwili,s,mapambano,mpatanishi,kiolezo,NA,sdfdsf,NA,1,NA,NA,NA,NA,NA,NA,NA,NA,NA,NA,NA,NA,NA,NA,NA,NA,NA,NA,NA
ebaec,shallow,flow.Sequence,3_0_1_0_7_1,NA,NA,completion,14181.58,324685,324679.3,324695.96,338877.54,338893,2023-05-12T13:41:35Z,338894.16,NULL,Körper,kiwiliwili,s,mapambano,mpatanishi,kiolezo,NA,sdfdsf,NA,1,NA,NA,NA,NA,NA,NA,NA,NA,NA,NA,NA,NA,NA,NA,NA,NA,NA,NA,NA
ebaec,task,flow.Sequence,3_0_1_0_7,NA,NA,completion,14181.58,324684,324679.3,324695.96,338877.54,338894,2023-05-12T13:41:35Z,338894.16,NULL,Körper,kiwiliwili,s,mapambano,mpatanishi,kiolezo,NA,sdfdsf,NA,1,NA,NA,NA,NA,NA,NA,NA,NA,NA,NA,NA,NA,NA,NA,NA,NA,NA,NA,NA
ebaec,block,flow.Loop,3_0_1_0,NA,NA,completion,94254.18,244623,244623.12,244623.36,338877.54,338895,2023-05-12T13:41:35Z,338894.16,NULL,NA,NA,NA,NA,NA,NA,NA,sdfdsf,NA,1,NA,NA,NA,NA,NA,NA,NA,NA,NA,NA,NA,NA,NA,NA,NA,NA,NA,NA,NA
ebaec,weiter,canvas.Screen,3_0_1_1,sdf,keypress(Space),response,1978.84,338896,338877.54,338894.16,340873,340889,2023-05-12T13:41:37Z,340952.1,NULL,NA,NA,NA,NA,NA,NA,NA,sdfdsf,NA,1,NA,NA,NA,NA,NA,NA,NA,NA,NA,NA,NA,NA,NA,NA,NA,NA,NA,NA,NA
ebaec,check continue,flow.Sequence,3_0_1,NA,NA,completion,96249.64,244623,244623.12,244623.36,340873,340890,2023-05-12T13:41:37Z,340952.1,NULL,NA,NA,NA,NA,NA,NA,NA,sdfdsf,NA,1,NA,NA,NA,NA,NA,NA,NA,NA,NA,NA,NA,NA,NA,NA,NA,NA,NA,NA,NA
ebaec,deep,flow.Sequence,3_0_2_0_0_0,NA,NA,skipped,NA,340952,NA,NA,340873,340952,2023-05-12T13:41:37Z,340952.1,NULL,Vorwurf,mashtaka,s,msukumo,mtangulizi,uenyekiti,NA,sdf,NA,2,NA,NA,NA,NA,NA,NA,NA,NA,NA,NA,NA,NA,NA,NA,NA,NA,NA,NA,NA
ebaec,Shallow Question,html.Page,3_0_2_0_0_1_0,NA,NA,form submission,8674.9,340952,340951.72,340952.1,349627,349628,2023-05-12T13:41:45Z,349626.1,NULL,Vorwurf,mashtaka,s,msukumo,mtangulizi,uenyekiti,mashtaka,NA,NA,2,NA,NA,NA,NA,NA,NA,NA,NA,NA,NA,NA,NA,NA,NA,NA,NA,NA,NA,NA
ebaec,"""Richtig""-Screen",canvas.Screen,3_0_2_0_0_1_1,NA,NA,timeout,4999.4,349631,349621.8,349626.1,354608.82,354612,2023-05-12T13:41:50Z,354625.5,NULL,Vorwurf,mashtaka,s,msukumo,mtangulizi,uenyekiti,NA,sdf,1,2,NA,NA,NA,NA,NA,NA,NA,NA,NA,NA,NA,NA,NA,NA,NA,NA,NA,NA,NA
ebaec,"""Falsch""-Screen",canvas.Screen,3_0_2_0_0_1_2,NA,NA,skipped,NA,354619,NA,NA,354608.82,354620,2023-05-12T13:41:50Z,354625.5,NULL,Vorwurf,mashtaka,s,msukumo,mtangulizi,uenyekiti,NA,sdf,NA,2,NA,NA,NA,NA,NA,NA,NA,NA,NA,NA,NA,NA,NA,NA,NA,NA,NA,NA,NA
ebaec,shallow,flow.Sequence,3_0_2_0_0_1,NA,NA,completion,13656.72,340952,340951.72,340952.1,354608.82,354620,2023-05-12T13:41:50Z,354625.5,NULL,Vorwurf,mashtaka,s,msukumo,mtangulizi,uenyekiti,NA,sdf,NA,2,NA,NA,NA,NA,NA,NA,NA,NA,NA,NA,NA,NA,NA,NA,NA,NA,NA,NA,NA
ebaec,task,flow.Sequence,3_0_2_0_0,NA,NA,completion,13656.72,340952,340951.72,340952.1,354608.82,354621,2023-05-12T13:41:50Z,354625.5,NULL,Vorwurf,mashtaka,s,msukumo,mtangulizi,uenyekiti,NA,sdf,NA,2,NA,NA,NA,NA,NA,NA,NA,NA,NA,NA,NA,NA,NA,NA,NA,NA,NA,NA,NA
ebaec,deep,flow.Sequence,3_0_2_0_1_0,NA,NA,skipped,NA,354621,NA,NA,354608.82,354622,2023-05-12T13:41:50Z,354625.5,NULL,Übersicht,kilindo,s,mgusano,chipukizi,kulinganisha,NA,sdf,NA,2,NA,NA,NA,NA,NA,NA,NA,NA,NA,NA,NA,NA,NA,NA,NA,NA,NA,NA,NA
ebaec,Shallow Question,html.Page,3_0_2_0_1_1_0,NA,NA,form submission,8623.5,354622,354608.82,354625.5,363249,363251,2023-05-12T13:41:59Z,363257.66,NULL,Übersicht,kilindo,s,mgusano,chipukizi,kulinganisha,mgusano,NA,NA,2,NA,NA,NA,NA,NA,NA,NA,NA,NA,NA,NA,NA,NA,NA,NA,NA,NA,NA,NA
ebaec,"""Richtig""-Screen",canvas.Screen,3_0_2_0_1_1_1,NA,NA,skipped,NA,363259,NA,NA,363249,363259,2023-05-12T13:41:59Z,363257.66,NULL,Übersicht,kilindo,s,mgusano,chipukizi,kulinganisha,NA,sdf,NA,2,NA,NA,NA,NA,NA,NA,NA,NA,NA,NA,NA,NA,NA,NA,NA,NA,NA,NA,NA
ebaec,"""Falsch""-Screen",canvas.Screen,3_0_2_0_1_1_2,NA,NA,timeout,4999.44,363261,363243.1,363257.66,368240.46,368242,2023-05-12T13:42:04Z,368257.1,NULL,Übersicht,kilindo,s,mgusano,chipukizi,kulinganisha,NA,sdf,0,2,NA,NA,NA,NA,NA,NA,NA,NA,NA,NA,NA,NA,NA,NA,NA,NA,NA,NA,NA
ebaec,shallow,flow.Sequence,3_0_2_0_1_1,NA,NA,completion,13614.96,354622,354608.82,354625.5,368240.46,368245,2023-05-12T13:42:04Z,368257.1,NULL,Übersicht,kilindo,s,mgusano,chipukizi,kulinganisha,NA,sdf,NA,2,NA,NA,NA,NA,NA,NA,NA,NA,NA,NA,NA,NA,NA,NA,NA,NA,NA,NA,NA
ebaec,task,flow.Sequence,3_0_2_0_1,NA,NA,completion,13614.96,354621,354608.82,354625.5,368240.46,368246,2023-05-12T13:42:04Z,368257.1,NULL,Übersicht,kilindo,s,mgusano,chipukizi,kulinganisha,NA,sdf,NA,2,NA,NA,NA,NA,NA,NA,NA,NA,NA,NA,NA,NA,NA,NA,NA,NA,NA,NA,NA
ebaec,Deep Question,html.Page,3_0_2_0_2_0_0,NA,NA,form submission,4130.9,368248,368240.46,368257.1,372388,372388,2023-05-12T13:42:08Z,372389.84,NULL,Papier,karatasi,d,NA,NA,NA,asdf,NA,NA,2,NA,NA,NA,NA,NA,NA,NA,NA,NA,NA,NA,NA,NA,NA,NA,NA,NA,NA,NA
ebaec,"""Richtig""-Screen",canvas.Screen,3_0_2_0_2_0_1,NA,NA,skipped,NA,372390,NA,NA,372388,372391,2023-05-12T13:42:08Z,372389.84,NULL,Papier,karatasi,d,NA,NA,NA,NA,sdf,NA,2,NA,NA,NA,NA,NA,NA,NA,NA,NA,NA,NA,NA,NA,NA,NA,NA,NA,NA,NA
ebaec,"""Falsch""-Screen",canvas.Screen,3_0_2_0_2_0_2,NA,NA,timeout,4999.46,372393,372385.32,372389.84,377372.64,377374,2023-05-12T13:42:13Z,377389.3,NULL,Papier,karatasi,d,NA,NA,NA,NA,sdf,0,2,NA,NA,NA,NA,NA,NA,NA,NA,NA,NA,NA,NA,NA,NA,NA,NA,NA,NA,NA
ebaec,deep,flow.Sequence,3_0_2_0_2_0,NA,NA,completion,9115.54,368247,368240.46,368257.1,377372.64,377374,2023-05-12T13:42:13Z,377389.3,NULL,Papier,karatasi,d,NA,NA,NA,NA,sdf,NA,2,NA,NA,NA,NA,NA,NA,NA,NA,NA,NA,NA,NA,NA,NA,NA,NA,NA,NA,NA
ebaec,shallow,flow.Sequence,3_0_2_0_2_1,NA,NA,skipped,NA,377374,NA,NA,377372.64,377374,2023-05-12T13:42:13Z,377389.3,NULL,Papier,karatasi,d,NA,NA,NA,NA,sdf,NA,2,NA,NA,NA,NA,NA,NA,NA,NA,NA,NA,NA,NA,NA,NA,NA,NA,NA,NA,NA
ebaec,task,flow.Sequence,3_0_2_0_2,NA,NA,completion,9115.54,368247,368240.46,368257.1,377372.64,377374,2023-05-12T13:42:13Z,377389.3,NULL,Papier,karatasi,d,NA,NA,NA,NA,sdf,NA,2,NA,NA,NA,NA,NA,NA,NA,NA,NA,NA,NA,NA,NA,NA,NA,NA,NA,NA,NA
ebaec,deep,flow.Sequence,3_0_2_0_3_0,NA,NA,skipped,NA,377375,NA,NA,377372.64,377375,2023-05-12T13:42:13Z,377389.3,NULL,Körper,kiwiliwili,s,mapambano,mpatanishi,kiolezo,NA,sdf,NA,2,NA,NA,NA,NA,NA,NA,NA,NA,NA,NA,NA,NA,NA,NA,NA,NA,NA,NA,NA
ebaec,Shallow Question,html.Page,3_0_2_0_3_1_0,NA,NA,form submission,21783.7,377375,377372.64,377389.3,399173,399174,2023-05-12T13:42:35Z,399169.8,NULL,Körper,kiwiliwili,s,mapambano,mpatanishi,kiolezo,kiwiliwili,NA,NA,2,NA,NA,NA,NA,NA,NA,NA,NA,NA,NA,NA,NA,NA,NA,NA,NA,NA,NA,NA
ebaec,"""Richtig""-Screen",canvas.Screen,3_0_2_0_3_1_1,NA,NA,timeout,4999.46,399177,399168.16,399169.8,404152.58,404155,2023-05-12T13:42:40Z,404169.26,NULL,Körper,kiwiliwili,s,mapambano,mpatanishi,kiolezo,NA,sdf,1,2,NA,NA,NA,NA,NA,NA,NA,NA,NA,NA,NA,NA,NA,NA,NA,NA,NA,NA,NA
ebaec,"""Falsch""-Screen",canvas.Screen,3_0_2_0_3_1_2,NA,NA,skipped,NA,404168,NA,NA,404152.58,404169,2023-05-12T13:42:40Z,404169.26,NULL,Körper,kiwiliwili,s,mapambano,mpatanishi,kiolezo,NA,sdf,NA,2,NA,NA,NA,NA,NA,NA,NA,NA,NA,NA,NA,NA,NA,NA,NA,NA,NA,NA,NA
ebaec,shallow,flow.Sequence,3_0_2_0_3_1,NA,NA,completion,26763.28,377375,377372.64,377389.3,404152.58,404169,2023-05-12T13:42:40Z,404169.26,NULL,Körper,kiwiliwili,s,mapambano,mpatanishi,kiolezo,NA,sdf,NA,2,NA,NA,NA,NA,NA,NA,NA,NA,NA,NA,NA,NA,NA,NA,NA,NA,NA,NA,NA
ebaec,task,flow.Sequence,3_0_2_0_3,NA,NA,completion,26763.28,377375,377372.64,377389.3,404152.58,404170,2023-05-12T13:42:40Z,404169.26,NULL,Körper,kiwiliwili,s,mapambano,mpatanishi,kiolezo,NA,sdf,NA,2,NA,NA,NA,NA,NA,NA,NA,NA,NA,NA,NA,NA,NA,NA,NA,NA,NA,NA,NA
ebaec,Deep Question,html.Page,3_0_2_0_4_0_0,NA,NA,form submission,3472.74,404171,404152.58,404169.26,407642,407642,2023-05-12T13:42:44Z,407652.12,NULL,System,maongozi,d,NA,NA,NA,asdf,NA,NA,2,NA,NA,NA,NA,NA,NA,NA,NA,NA,NA,NA,NA,NA,NA,NA,NA,NA,NA,NA
ebaec,"""Richtig""-Screen",canvas.Screen,3_0_2_0_4_0_1,NA,NA,skipped,NA,407648,NA,NA,407642,407648,2023-05-12T13:42:44Z,407652.12,NULL,System,maongozi,d,NA,NA,NA,NA,sdf,NA,2,NA,NA,NA,NA,NA,NA,NA,NA,NA,NA,NA,NA,NA,NA,NA,NA,NA,NA,NA
ebaec,"""Falsch""-Screen",canvas.Screen,3_0_2_0_4_0_2,NA,NA,timeout,4999.26,407653,407633.58,407652.12,412634.72,412636,2023-05-12T13:42:48Z,412651.38,NULL,System,maongozi,d,NA,NA,NA,NA,sdf,0,2,NA,NA,NA,NA,NA,NA,NA,NA,NA,NA,NA,NA,NA,NA,NA,NA,NA,NA,NA
ebaec,deep,flow.Sequence,3_0_2_0_4_0,NA,NA,completion,8465.46,404171,404152.58,404169.26,412634.72,412637,2023-05-12T13:42:48Z,412651.38,NULL,System,maongozi,d,NA,NA,NA,NA,sdf,NA,2,NA,NA,NA,NA,NA,NA,NA,NA,NA,NA,NA,NA,NA,NA,NA,NA,NA,NA,NA
ebaec,shallow,flow.Sequence,3_0_2_0_4_1,NA,NA,skipped,NA,412638,NA,NA,412634.72,412638,2023-05-12T13:42:48Z,412651.38,NULL,System,maongozi,d,NA,NA,NA,NA,sdf,NA,2,NA,NA,NA,NA,NA,NA,NA,NA,NA,NA,NA,NA,NA,NA,NA,NA,NA,NA,NA
ebaec,task,flow.Sequence,3_0_2_0_4,NA,NA,completion,8465.46,404171,404152.58,404169.26,412634.72,412639,2023-05-12T13:42:48Z,412651.38,NULL,System,maongozi,d,NA,NA,NA,NA,sdf,NA,2,NA,NA,NA,NA,NA,NA,NA,NA,NA,NA,NA,NA,NA,NA,NA,NA,NA,NA,NA
ebaec,deep,flow.Sequence,3_0_2_0_5_0,NA,NA,skipped,NA,412640,NA,NA,412634.72,412640,2023-05-12T13:42:49Z,412651.38,NULL,Entwicklung,maendeleo,s,uangavu,mshindwa,badiliko,NA,sdf,NA,2,NA,NA,NA,NA,NA,NA,NA,NA,NA,NA,NA,NA,NA,NA,NA,NA,NA,NA,NA
ebaec,Shallow Question,html.Page,3_0_2_0_5_1_0,NA,NA,form submission,16326.62,412640,412634.72,412651.38,428978,428982,2023-05-12T13:43:05Z,428982.76,NULL,Entwicklung,maendeleo,s,uangavu,mshindwa,badiliko,maendeleo,NA,NA,2,NA,NA,NA,NA,NA,NA,NA,NA,NA,NA,NA,NA,NA,NA,NA,NA,NA,NA,NA
ebaec,"""Richtig""-Screen",canvas.Screen,3_0_2_0_5_1_1,NA,NA,timeout,4999.32,428995,428968.18,428982.76,433965.42,433967,2023-05-12T13:43:10Z,433982.08,NULL,Entwicklung,maendeleo,s,uangavu,mshindwa,badiliko,NA,sdf,1,2,NA,NA,NA,NA,NA,NA,NA,NA,NA,NA,NA,NA,NA,NA,NA,NA,NA,NA,NA
ebaec,"""Falsch""-Screen",canvas.Screen,3_0_2_0_5_1_2,NA,NA,skipped,NA,433974,NA,NA,433965.42,433974,2023-05-12T13:43:10Z,433982.08,NULL,Entwicklung,maendeleo,s,uangavu,mshindwa,badiliko,NA,sdf,NA,2,NA,NA,NA,NA,NA,NA,NA,NA,NA,NA,NA,NA,NA,NA,NA,NA,NA,NA,NA
ebaec,shallow,flow.Sequence,3_0_2_0_5_1,NA,NA,completion,21314.04,412640,412634.72,412651.38,433965.42,433975,2023-05-12T13:43:10Z,433982.08,NULL,Entwicklung,maendeleo,s,uangavu,mshindwa,badiliko,NA,sdf,NA,2,NA,NA,NA,NA,NA,NA,NA,NA,NA,NA,NA,NA,NA,NA,NA,NA,NA,NA,NA
ebaec,task,flow.Sequence,3_0_2_0_5,NA,NA,completion,21314.04,412639,412634.72,412651.38,433965.42,433975,2023-05-12T13:43:10Z,433982.08,NULL,Entwicklung,maendeleo,s,uangavu,mshindwa,badiliko,NA,sdf,NA,2,NA,NA,NA,NA,NA,NA,NA,NA,NA,NA,NA,NA,NA,NA,NA,NA,NA,NA,NA
ebaec,Deep Question,html.Page,3_0_2_0_6_0_0,NA,NA,form submission,4310.92,433976,433965.42,433982.08,438293,438293,2023-05-12T13:43:14Z,438298.16,NULL,Lawine,banguko,d,NA,NA,NA,asdf,NA,NA,2,NA,NA,NA,NA,NA,NA,NA,NA,NA,NA,NA,NA,NA,NA,NA,NA,NA,NA,NA
ebaec,"""Richtig""-Screen",canvas.Screen,3_0_2_0_6_0_1,NA,NA,skipped,NA,438295,NA,NA,438293,438295,2023-05-12T13:43:14Z,438298.16,NULL,Lawine,banguko,d,NA,NA,NA,NA,sdf,NA,2,NA,NA,NA,NA,NA,NA,NA,NA,NA,NA,NA,NA,NA,NA,NA,NA,NA,NA,NA
ebaec,"""Falsch""-Screen",canvas.Screen,3_0_2_0_6_0_2,NA,NA,timeout,4999.36,438298,438291.14,438298.16,443280.86,443283,2023-05-12T13:43:19Z,443297.52,NULL,Lawine,banguko,d,NA,NA,NA,NA,sdf,0,2,NA,NA,NA,NA,NA,NA,NA,NA,NA,NA,NA,NA,NA,NA,NA,NA,NA,NA,NA
ebaec,deep,flow.Sequence,3_0_2_0_6_0,NA,NA,completion,9298.78,433976,433965.42,433982.08,443280.86,443284,2023-05-12T13:43:19Z,443297.52,NULL,Lawine,banguko,d,NA,NA,NA,NA,sdf,NA,2,NA,NA,NA,NA,NA,NA,NA,NA,NA,NA,NA,NA,NA,NA,NA,NA,NA,NA,NA
ebaec,shallow,flow.Sequence,3_0_2_0_6_1,NA,NA,skipped,NA,443285,NA,NA,443280.86,443285,2023-05-12T13:43:19Z,443297.52,NULL,Lawine,banguko,d,NA,NA,NA,NA,sdf,NA,2,NA,NA,NA,NA,NA,NA,NA,NA,NA,NA,NA,NA,NA,NA,NA,NA,NA,NA,NA
ebaec,task,flow.Sequence,3_0_2_0_6,NA,NA,completion,9298.78,433976,433965.42,433982.08,443280.86,443287,2023-05-12T13:43:19Z,443297.52,NULL,Lawine,banguko,d,NA,NA,NA,NA,sdf,NA,2,NA,NA,NA,NA,NA,NA,NA,NA,NA,NA,NA,NA,NA,NA,NA,NA,NA,NA,NA
ebaec,Deep Question,html.Page,3_0_2_0_7_0_0,NA,NA,form submission,5761.48,443288,443280.86,443297.52,449059,449059,2023-05-12T13:43:25Z,449063.46,NULL,Niveau,kiwango,d,NA,NA,NA,asdf,NA,NA,2,NA,NA,NA,NA,NA,NA,NA,NA,NA,NA,NA,NA,NA,NA,NA,NA,NA,NA,NA
ebaec,"""Richtig""-Screen",canvas.Screen,3_0_2_0_7_0_1,NA,NA,skipped,NA,449061,NA,NA,449059,449061,2023-05-12T13:43:25Z,449063.46,NULL,Niveau,kiwango,d,NA,NA,NA,NA,sdf,NA,2,NA,NA,NA,NA,NA,NA,NA,NA,NA,NA,NA,NA,NA,NA,NA,NA,NA,NA,NA
ebaec,"""Falsch""-Screen",canvas.Screen,3_0_2_0_7_0_2,NA,NA,timeout,4999.38,449064,449057.42,449063.46,454046.18,454048,2023-05-12T13:43:30Z,454062.84,NULL,Niveau,kiwango,d,NA,NA,NA,NA,sdf,0,2,NA,NA,NA,NA,NA,NA,NA,NA,NA,NA,NA,NA,NA,NA,NA,NA,NA,NA,NA
ebaec,deep,flow.Sequence,3_0_2_0_7_0,NA,NA,completion,10748.66,443288,443280.86,443297.52,454046.18,454049,2023-05-12T13:43:30Z,454062.84,NULL,Niveau,kiwango,d,NA,NA,NA,NA,sdf,NA,2,NA,NA,NA,NA,NA,NA,NA,NA,NA,NA,NA,NA,NA,NA,NA,NA,NA,NA,NA
ebaec,shallow,flow.Sequence,3_0_2_0_7_1,NA,NA,skipped,NA,454050,NA,NA,454046.18,454050,2023-05-12T13:43:30Z,454062.84,NULL,Niveau,kiwango,d,NA,NA,NA,NA,sdf,NA,2,NA,NA,NA,NA,NA,NA,NA,NA,NA,NA,NA,NA,NA,NA,NA,NA,NA,NA,NA
ebaec,task,flow.Sequence,3_0_2_0_7,NA,NA,completion,10748.66,443287,443280.86,443297.52,454046.18,454050,2023-05-12T13:43:30Z,454062.84,NULL,Niveau,kiwango,d,NA,NA,NA,NA,sdf,NA,2,NA,NA,NA,NA,NA,NA,NA,NA,NA,NA,NA,NA,NA,NA,NA,NA,NA,NA,NA
ebaec,block,flow.Loop,3_0_2_0,NA,NA,completion,113094.08,340951,340951.72,340952.1,454046.18,454051,2023-05-12T13:43:30Z,454062.84,NULL,NA,NA,NA,NA,NA,NA,NA,sdf,NA,2,NA,NA,NA,NA,NA,NA,NA,NA,NA,NA,NA,NA,NA,NA,NA,NA,NA,NA,NA
ebaec,weiter,canvas.Screen,3_0_2_1,sdf,keypress(Space),response,1247.16,454051,454046.18,454062.84,455310,455314,2023-05-12T13:43:31Z,455362.64,NULL,NA,NA,NA,NA,NA,NA,NA,sdf,NA,2,NA,NA,NA,NA,NA,NA,NA,NA,NA,NA,NA,NA,NA,NA,NA,NA,NA,NA,NA
ebaec,check continue,flow.Sequence,3_0_2,NA,NA,completion,114357.9,340951,340951.72,340952.1,455310,455315,2023-05-12T13:43:31Z,455362.64,NULL,NA,NA,NA,NA,NA,NA,NA,sdf,NA,2,NA,NA,NA,NA,NA,NA,NA,NA,NA,NA,NA,NA,NA,NA,NA,NA,NA,NA,NA
ebaec,deep,flow.Sequence,3_0_3_0_0_0,NA,NA,skipped,NA,455362,NA,NA,455310,455362,2023-05-12T13:43:31Z,455362.64,NULL,Vorwurf,mashtaka,s,msukumo,mtangulizi,uenyekiti,NA,qt,NA,3,NA,NA,NA,NA,NA,NA,NA,NA,NA,NA,NA,NA,NA,NA,NA,NA,NA,NA,NA
ebaec,Shallow Question,html.Page,3_0_3_0_0_1_0,NA,NA,form submission,5673.36,455363,455362.18,455362.64,461036,461038,2023-05-12T13:43:37Z,461045.32,NULL,Vorwurf,mashtaka,s,msukumo,mtangulizi,uenyekiti,mashtaka,NA,NA,3,NA,NA,NA,NA,NA,NA,NA,NA,NA,NA,NA,NA,NA,NA,NA,NA,NA,NA,NA
ebaec,"""Richtig""-Screen",canvas.Screen,3_0_3_0_0_1_1,NA,NA,timeout,4999.38,461049,461029.68,461045.32,466028.04,466033,2023-05-12T13:43:42Z,466044.7,NULL,Vorwurf,mashtaka,s,msukumo,mtangulizi,uenyekiti,NA,qt,1,3,NA,NA,NA,NA,NA,NA,NA,NA,NA,NA,NA,NA,NA,NA,NA,NA,NA,NA,NA
ebaec,"""Falsch""-Screen",canvas.Screen,3_0_3_0_0_1_2,NA,NA,skipped,NA,466048,NA,NA,466028.04,466049,2023-05-12T13:43:42Z,466044.7,NULL,Vorwurf,mashtaka,s,msukumo,mtangulizi,uenyekiti,NA,qt,NA,3,NA,NA,NA,NA,NA,NA,NA,NA,NA,NA,NA,NA,NA,NA,NA,NA,NA,NA,NA
ebaec,shallow,flow.Sequence,3_0_3_0_0_1,NA,NA,completion,10665.4,455363,455362.18,455362.64,466028.04,466050,2023-05-12T13:43:42Z,466044.7,NULL,Vorwurf,mashtaka,s,msukumo,mtangulizi,uenyekiti,NA,qt,NA,3,NA,NA,NA,NA,NA,NA,NA,NA,NA,NA,NA,NA,NA,NA,NA,NA,NA,NA,NA
ebaec,task,flow.Sequence,3_0_3_0_0,NA,NA,completion,10665.4,455362,455362.18,455362.64,466028.04,466051,2023-05-12T13:43:42Z,466044.7,NULL,Vorwurf,mashtaka,s,msukumo,mtangulizi,uenyekiti,NA,qt,NA,3,NA,NA,NA,NA,NA,NA,NA,NA,NA,NA,NA,NA,NA,NA,NA,NA,NA,NA,NA
ebaec,Deep Question,html.Page,3_0_3_0_1_0_0,NA,NA,form submission,11810.3,466051,466028.04,466044.7,477855,477856,2023-05-12T13:43:54Z,477859.78,NULL,System,maongozi,d,NA,NA,NA,maendleo,NA,NA,3,NA,NA,NA,NA,NA,NA,NA,NA,NA,NA,NA,NA,NA,NA,NA,NA,NA,NA,NA
ebaec,"""Richtig""-Screen",canvas.Screen,3_0_3_0_1_0_1,NA,NA,skipped,NA,477864,NA,NA,477855,477865,2023-05-12T13:43:54Z,477859.78,NULL,System,maongozi,d,NA,NA,NA,NA,qt,NA,3,NA,NA,NA,NA,NA,NA,NA,NA,NA,NA,NA,NA,NA,NA,NA,NA,NA,NA,NA
ebaec,"""Falsch""-Screen",canvas.Screen,3_0_3_0_1_0_2,NA,NA,timeout,4999.46,477871,477844.42,477859.78,482842.66,482845,2023-05-12T13:43:59Z,482859.24,NULL,System,maongozi,d,NA,NA,NA,NA,qt,0,3,NA,NA,NA,NA,NA,NA,NA,NA,NA,NA,NA,NA,NA,NA,NA,NA,NA,NA,NA
ebaec,deep,flow.Sequence,3_0_3_0_1_0,NA,NA,completion,16797.96,466051,466028.04,466044.7,482842.66,482846,2023-05-12T13:43:59Z,482859.24,NULL,System,maongozi,d,NA,NA,NA,NA,qt,NA,3,NA,NA,NA,NA,NA,NA,NA,NA,NA,NA,NA,NA,NA,NA,NA,NA,NA,NA,NA
ebaec,shallow,flow.Sequence,3_0_3_0_1_1,NA,NA,skipped,NA,482846,NA,NA,482842.66,482847,2023-05-12T13:43:59Z,482859.24,NULL,System,maongozi,d,NA,NA,NA,NA,qt,NA,3,NA,NA,NA,NA,NA,NA,NA,NA,NA,NA,NA,NA,NA,NA,NA,NA,NA,NA,NA
ebaec,task,flow.Sequence,3_0_3_0_1,NA,NA,completion,16797.96,466051,466028.04,466044.7,482842.66,482848,2023-05-12T13:43:59Z,482859.24,NULL,System,maongozi,d,NA,NA,NA,NA,qt,NA,3,NA,NA,NA,NA,NA,NA,NA,NA,NA,NA,NA,NA,NA,NA,NA,NA,NA,NA,NA
ebaec,Deep Question,html.Page,3_0_3_0_2_0_0,NA,NA,form submission,5610.76,482849,482842.66,482859.24,488470,488470,2023-05-12T13:44:04Z,488475.2,NULL,Lawine,banguko,d,NA,NA,NA,kipuze,NA,NA,3,NA,NA,NA,NA,NA,NA,NA,NA,NA,NA,NA,NA,NA,NA,NA,NA,NA,NA,NA
ebaec,"""Richtig""-Screen",canvas.Screen,3_0_3_0_2_0_1,NA,NA,skipped,NA,488472,NA,NA,488470,488472,2023-05-12T13:44:04Z,488475.2,NULL,Lawine,banguko,d,NA,NA,NA,NA,qt,NA,3,NA,NA,NA,NA,NA,NA,NA,NA,NA,NA,NA,NA,NA,NA,NA,NA,NA,NA,NA
ebaec,"""Falsch""-Screen",canvas.Screen,3_0_3_0_2_0_2,NA,NA,timeout,4999.38,488474,488467.1,488475.2,493457.92,493459,2023-05-12T13:44:09Z,493474.58,NULL,Lawine,banguko,d,NA,NA,NA,NA,qt,0,3,NA,NA,NA,NA,NA,NA,NA,NA,NA,NA,NA,NA,NA,NA,NA,NA,NA,NA,NA
ebaec,deep,flow.Sequence,3_0_3_0_2_0,NA,NA,completion,10598.68,482849,482842.66,482859.24,493457.92,493459,2023-05-12T13:44:09Z,493474.58,NULL,Lawine,banguko,d,NA,NA,NA,NA,qt,NA,3,NA,NA,NA,NA,NA,NA,NA,NA,NA,NA,NA,NA,NA,NA,NA,NA,NA,NA,NA
ebaec,shallow,flow.Sequence,3_0_3_0_2_1,NA,NA,skipped,NA,493459,NA,NA,493457.92,493459,2023-05-12T13:44:09Z,493474.58,NULL,Lawine,banguko,d,NA,NA,NA,NA,qt,NA,3,NA,NA,NA,NA,NA,NA,NA,NA,NA,NA,NA,NA,NA,NA,NA,NA,NA,NA,NA
ebaec,task,flow.Sequence,3_0_3_0_2,NA,NA,completion,10598.68,482848,482842.66,482859.24,493457.92,493460,2023-05-12T13:44:09Z,493474.58,NULL,Lawine,banguko,d,NA,NA,NA,NA,qt,NA,3,NA,NA,NA,NA,NA,NA,NA,NA,NA,NA,NA,NA,NA,NA,NA,NA,NA,NA,NA
ebaec,Deep Question,html.Page,3_0_3_0_3_0_0,NA,NA,form submission,7520.42,493460,493457.92,493474.58,500995,500996,2023-05-12T13:44:17Z,501006.96,NULL,Papier,karatasi,d,NA,NA,NA,manendleo,NA,NA,3,NA,NA,NA,NA,NA,NA,NA,NA,NA,NA,NA,NA,NA,NA,NA,NA,NA,NA,NA
ebaec,"""Richtig""-Screen",canvas.Screen,3_0_3_0_3_0_1,NA,NA,skipped,NA,501001,NA,NA,500995,501001,2023-05-12T13:44:17Z,501006.96,NULL,Papier,karatasi,d,NA,NA,NA,NA,qt,NA,3,NA,NA,NA,NA,NA,NA,NA,NA,NA,NA,NA,NA,NA,NA,NA,NA,NA,NA,NA
ebaec,"""Falsch""-Screen",canvas.Screen,3_0_3_0_3_0_2,NA,NA,timeout,4999.38,501006,500990.1,501006.96,505989.68,505992,2023-05-12T13:44:22Z,506006.34,NULL,Papier,karatasi,d,NA,NA,NA,NA,qt,0,3,NA,NA,NA,NA,NA,NA,NA,NA,NA,NA,NA,NA,NA,NA,NA,NA,NA,NA,NA
ebaec,deep,flow.Sequence,3_0_3_0_3_0,NA,NA,completion,12515.1,493460,493457.92,493474.58,505989.68,505992,2023-05-12T13:44:22Z,506006.34,NULL,Papier,karatasi,d,NA,NA,NA,NA,qt,NA,3,NA,NA,NA,NA,NA,NA,NA,NA,NA,NA,NA,NA,NA,NA,NA,NA,NA,NA,NA
ebaec,shallow,flow.Sequence,3_0_3_0_3_1,NA,NA,skipped,NA,505993,NA,NA,505989.68,505993,2023-05-12T13:44:22Z,506006.34,NULL,Papier,karatasi,d,NA,NA,NA,NA,qt,NA,3,NA,NA,NA,NA,NA,NA,NA,NA,NA,NA,NA,NA,NA,NA,NA,NA,NA,NA,NA
ebaec,task,flow.Sequence,3_0_3_0_3,NA,NA,completion,12515.1,493460,493457.92,493474.58,505989.68,505994,2023-05-12T13:44:22Z,506006.34,NULL,Papier,karatasi,d,NA,NA,NA,NA,qt,NA,3,NA,NA,NA,NA,NA,NA,NA,NA,NA,NA,NA,NA,NA,NA,NA,NA,NA,NA,NA
ebaec,deep,flow.Sequence,3_0_3_0_4_0,NA,NA,skipped,NA,505994,NA,NA,505989.68,505995,2023-05-12T13:44:22Z,506006.34,NULL,Körper,kiwiliwili,s,mapambano,mpatanishi,kiolezo,NA,qt,NA,3,NA,NA,NA,NA,NA,NA,NA,NA,NA,NA,NA,NA,NA,NA,NA,NA,NA,NA,NA
ebaec,Shallow Question,html.Page,3_0_3_0_4_1_0,NA,NA,form submission,10018.66,505995,505989.68,506006.34,516025,516026,2023-05-12T13:44:32Z,516021.68,NULL,Körper,kiwiliwili,s,mapambano,mpatanishi,kiolezo,kiwiliwili,NA,NA,3,NA,NA,NA,NA,NA,NA,NA,NA,NA,NA,NA,NA,NA,NA,NA,NA,NA,NA,NA
ebaec,"""Richtig""-Screen",canvas.Screen,3_0_3_0_4_1_1,NA,NA,timeout,4999.38,516032,516019.46,516021.68,521004.46,521009,2023-05-12T13:44:37Z,521021.06,NULL,Körper,kiwiliwili,s,mapambano,mpatanishi,kiolezo,NA,qt,1,3,NA,NA,NA,NA,NA,NA,NA,NA,NA,NA,NA,NA,NA,NA,NA,NA,NA,NA,NA
ebaec,"""Falsch""-Screen",canvas.Screen,3_0_3_0_4_1_2,NA,NA,skipped,NA,521025,NA,NA,521004.46,521026,2023-05-12T13:44:37Z,521021.06,NULL,Körper,kiwiliwili,s,mapambano,mpatanishi,kiolezo,NA,qt,NA,3,NA,NA,NA,NA,NA,NA,NA,NA,NA,NA,NA,NA,NA,NA,NA,NA,NA,NA,NA
ebaec,shallow,flow.Sequence,3_0_3_0_4_1,NA,NA,completion,14998.12,505995,505989.68,506006.34,521004.46,521026,2023-05-12T13:44:37Z,521021.06,NULL,Körper,kiwiliwili,s,mapambano,mpatanishi,kiolezo,NA,qt,NA,3,NA,NA,NA,NA,NA,NA,NA,NA,NA,NA,NA,NA,NA,NA,NA,NA,NA,NA,NA
ebaec,task,flow.Sequence,3_0_3_0_4,NA,NA,completion,14998.12,505994,505989.68,506006.34,521004.46,521026,2023-05-12T13:44:37Z,521021.06,NULL,Körper,kiwiliwili,s,mapambano,mpatanishi,kiolezo,NA,qt,NA,3,NA,NA,NA,NA,NA,NA,NA,NA,NA,NA,NA,NA,NA,NA,NA,NA,NA,NA,NA
ebaec,deep,flow.Sequence,3_0_3_0_5_0,NA,NA,skipped,NA,521028,NA,NA,521004.46,521028,2023-05-12T13:44:37Z,521021.06,NULL,Entwicklung,maendeleo,s,uangavu,mshindwa,badiliko,NA,qt,NA,3,NA,NA,NA,NA,NA,NA,NA,NA,NA,NA,NA,NA,NA,NA,NA,NA,NA,NA,NA
ebaec,Shallow Question,html.Page,3_0_3_0_5_1_0,NA,NA,form submission,15852.94,521028,521004.46,521021.06,536874,536875,2023-05-12T13:44:53Z,536869.06,NULL,Entwicklung,maendeleo,s,uangavu,mshindwa,badiliko,maendeleo,NA,NA,3,NA,NA,NA,NA,NA,NA,NA,NA,NA,NA,NA,NA,NA,NA,NA,NA,NA,NA,NA
ebaec,"""Richtig""-Screen",canvas.Screen,3_0_3_0_5_1_1,NA,NA,timeout,4999.4399999999,536880,536867.96,536869.06,541851.84,541854,2023-05-12T13:44:58Z,541868.5,NULL,Entwicklung,maendeleo,s,uangavu,mshindwa,badiliko,NA,qt,1,3,NA,NA,NA,NA,NA,NA,NA,NA,NA,NA,NA,NA,NA,NA,NA,NA,NA,NA,NA
ebaec,"""Falsch""-Screen",canvas.Screen,3_0_3_0_5_1_2,NA,NA,skipped,NA,541863,NA,NA,541851.84,541864,2023-05-12T13:44:58Z,541868.5,NULL,Entwicklung,maendeleo,s,uangavu,mshindwa,badiliko,NA,qt,NA,3,NA,NA,NA,NA,NA,NA,NA,NA,NA,NA,NA,NA,NA,NA,NA,NA,NA,NA,NA
ebaec,shallow,flow.Sequence,3_0_3_0_5_1,NA,NA,completion,20830.78,521028,521004.46,521021.06,541851.84,541864,2023-05-12T13:44:58Z,541868.5,NULL,Entwicklung,maendeleo,s,uangavu,mshindwa,badiliko,NA,qt,NA,3,NA,NA,NA,NA,NA,NA,NA,NA,NA,NA,NA,NA,NA,NA,NA,NA,NA,NA,NA
ebaec,task,flow.Sequence,3_0_3_0_5,NA,NA,completion,20830.78,521028,521004.46,521021.06,541851.84,541866,2023-05-12T13:44:58Z,541868.5,NULL,Entwicklung,maendeleo,s,uangavu,mshindwa,badiliko,NA,qt,NA,3,NA,NA,NA,NA,NA,NA,NA,NA,NA,NA,NA,NA,NA,NA,NA,NA,NA,NA,NA
ebaec,Deep Question,html.Page,3_0_3_0_6_0_0,NA,NA,form submission,3163.5,541867,541851.84,541868.5,545032,545033,2023-05-12T13:45:01Z,545034.68,NULL,Niveau,kiwango,d,NA,NA,NA,asd,NA,NA,3,NA,NA,NA,NA,NA,NA,NA,NA,NA,NA,NA,NA,NA,NA,NA,NA,NA,NA,NA
ebaec,"""Richtig""-Screen",canvas.Screen,3_0_3_0_6_0_1,NA,NA,skipped,NA,545039,NA,NA,545032,545039,2023-05-12T13:45:01Z,545034.68,NULL,Niveau,kiwango,d,NA,NA,NA,NA,qt,NA,3,NA,NA,NA,NA,NA,NA,NA,NA,NA,NA,NA,NA,NA,NA,NA,NA,NA,NA,NA
ebaec,"""Falsch""-Screen",canvas.Screen,3_0_3_0_6_0_2,NA,NA,timeout,4999.38,545043,545020.32,545034.68,550017.38,550019,2023-05-12T13:45:06Z,550034.06,NULL,Niveau,kiwango,d,NA,NA,NA,NA,qt,0,3,NA,NA,NA,NA,NA,NA,NA,NA,NA,NA,NA,NA,NA,NA,NA,NA,NA,NA,NA
ebaec,deep,flow.Sequence,3_0_3_0_6_0,NA,NA,completion,8148.88,541867,541851.84,541868.5,550017.38,550019,2023-05-12T13:45:06Z,550034.06,NULL,Niveau,kiwango,d,NA,NA,NA,NA,qt,NA,3,NA,NA,NA,NA,NA,NA,NA,NA,NA,NA,NA,NA,NA,NA,NA,NA,NA,NA,NA
ebaec,shallow,flow.Sequence,3_0_3_0_6_1,NA,NA,skipped,NA,550019,NA,NA,550017.38,550020,2023-05-12T13:45:06Z,550034.06,NULL,Niveau,kiwango,d,NA,NA,NA,NA,qt,NA,3,NA,NA,NA,NA,NA,NA,NA,NA,NA,NA,NA,NA,NA,NA,NA,NA,NA,NA,NA
ebaec,task,flow.Sequence,3_0_3_0_6,NA,NA,completion,8148.88,541867,541851.84,541868.5,550017.38,550020,2023-05-12T13:45:06Z,550034.06,NULL,Niveau,kiwango,d,NA,NA,NA,NA,qt,NA,3,NA,NA,NA,NA,NA,NA,NA,NA,NA,NA,NA,NA,NA,NA,NA,NA,NA,NA,NA
ebaec,deep,flow.Sequence,3_0_3_0_7_0,NA,NA,skipped,NA,550020,NA,NA,550017.38,550020,2023-05-12T13:45:06Z,550034.06,NULL,Übersicht,kilindo,s,mgusano,chipukizi,kulinganisha,NA,qt,NA,3,NA,NA,NA,NA,NA,NA,NA,NA,NA,NA,NA,NA,NA,NA,NA,NA,NA,NA,NA
ebaec,Shallow Question,html.Page,3_0_3_0_7_1_0,NA,NA,form submission,9061.9399999999,550021,550017.38,550034.06,559096,559096,2023-05-12T13:45:15Z,559099.52,NULL,Übersicht,kilindo,s,mgusano,chipukizi,kulinganisha,kilindo,NA,NA,3,NA,NA,NA,NA,NA,NA,NA,NA,NA,NA,NA,NA,NA,NA,NA,NA,NA,NA,NA
ebaec,"""Richtig""-Screen",canvas.Screen,3_0_3_0_7_1_1,NA,NA,timeout,4999.4399999999,559102,559091.9,559099.52,564082.36,564085,2023-05-12T13:45:20Z,564098.96,NULL,Übersicht,kilindo,s,mgusano,chipukizi,kulinganisha,NA,qt,1,3,NA,NA,NA,NA,NA,NA,NA,NA,NA,NA,NA,NA,NA,NA,NA,NA,NA,NA,NA
ebaec,"""Falsch""-Screen",canvas.Screen,3_0_3_0_7_1_2,NA,NA,skipped,NA,564094,NA,NA,564082.36,564095,2023-05-12T13:45:20Z,564098.96,NULL,Übersicht,kilindo,s,mgusano,chipukizi,kulinganisha,NA,qt,NA,3,NA,NA,NA,NA,NA,NA,NA,NA,NA,NA,NA,NA,NA,NA,NA,NA,NA,NA,NA
ebaec,shallow,flow.Sequence,3_0_3_0_7_1,NA,NA,completion,14048.3,550020,550017.38,550034.06,564082.36,564096,2023-05-12T13:45:20Z,564098.96,NULL,Übersicht,kilindo,s,mgusano,chipukizi,kulinganisha,NA,qt,NA,3,NA,NA,NA,NA,NA,NA,NA,NA,NA,NA,NA,NA,NA,NA,NA,NA,NA,NA,NA
ebaec,task,flow.Sequence,3_0_3_0_7,NA,NA,completion,14048.3,550020,550017.38,550034.06,564082.36,564097,2023-05-12T13:45:20Z,564098.96,NULL,Übersicht,kilindo,s,mgusano,chipukizi,kulinganisha,NA,qt,NA,3,NA,NA,NA,NA,NA,NA,NA,NA,NA,NA,NA,NA,NA,NA,NA,NA,NA,NA,NA
ebaec,block,flow.Loop,3_0_3_0,NA,NA,completion,108719.72,455362,455362.18,455362.64,564082.36,564098,2023-05-12T13:45:20Z,564098.96,NULL,NA,NA,NA,NA,NA,NA,NA,qt,NA,3,NA,NA,NA,NA,NA,NA,NA,NA,NA,NA,NA,NA,NA,NA,NA,NA,NA,NA,NA
ebaec,weiter,canvas.Screen,3_0_3_1,sdf,keypress(Space),response,1681.04,564098,564082.36,564098.96,565780,565785,2023-05-12T13:45:22Z,565850.72,NULL,NA,NA,NA,NA,NA,NA,NA,qt,NA,3,NA,NA,NA,NA,NA,NA,NA,NA,NA,NA,NA,NA,NA,NA,NA,NA,NA,NA,NA
ebaec,check continue,flow.Sequence,3_0_3,NA,NA,completion,110417.36,455362,455362.18,455362.64,565780,565785,2023-05-12T13:45:22Z,565850.72,NULL,NA,NA,NA,NA,NA,NA,NA,qt,NA,3,NA,NA,NA,NA,NA,NA,NA,NA,NA,NA,NA,NA,NA,NA,NA,NA,NA,NA,NA
ebaec,deep,flow.Sequence,3_0_4_0_0_0,NA,NA,skipped,NA,565850,NA,NA,565780,565850,2023-05-12T13:45:22Z,565850.72,NULL,Übersicht,kilindo,s,mgusano,chipukizi,kulinganisha,NA,sd,NA,4,NA,NA,NA,NA,NA,NA,NA,NA,NA,NA,NA,NA,NA,NA,NA,NA,NA,NA,NA
ebaec,Shallow Question,html.Page,3_0_4_0_0_1_0,NA,NA,form submission,5369.28,565850,565850.36,565850.72,571220,571221,2023-05-12T13:45:27Z,571231.4,NULL,Übersicht,kilindo,s,mgusano,chipukizi,kulinganisha,kilindo,NA,NA,4,NA,NA,NA,NA,NA,NA,NA,NA,NA,NA,NA,NA,NA,NA,NA,NA,NA,NA,NA
ebaec,"""Richtig""-Screen",canvas.Screen,3_0_4_0_0_1_1,NA,NA,timeout,4999.36,571222,571219.28,571231.4,576214.14,576216,2023-05-12T13:45:32Z,576230.76,NULL,Übersicht,kilindo,s,mgusano,chipukizi,kulinganisha,NA,sd,1,4,NA,NA,NA,NA,NA,NA,NA,NA,NA,NA,NA,NA,NA,NA,NA,NA,NA,NA,NA
ebaec,"""Falsch""-Screen",canvas.Screen,3_0_4_0_0_1_2,NA,NA,skipped,NA,576225,NA,NA,576214.14,576225,2023-05-12T13:45:32Z,576230.76,NULL,Übersicht,kilindo,s,mgusano,chipukizi,kulinganisha,NA,sd,NA,4,NA,NA,NA,NA,NA,NA,NA,NA,NA,NA,NA,NA,NA,NA,NA,NA,NA,NA,NA
ebaec,shallow,flow.Sequence,3_0_4_0_0_1,NA,NA,completion,10363.42,565850,565850.36,565850.72,576214.14,576226,2023-05-12T13:45:32Z,576230.76,NULL,Übersicht,kilindo,s,mgusano,chipukizi,kulinganisha,NA,sd,NA,4,NA,NA,NA,NA,NA,NA,NA,NA,NA,NA,NA,NA,NA,NA,NA,NA,NA,NA,NA
ebaec,task,flow.Sequence,3_0_4_0_0,NA,NA,completion,10363.42,565850,565850.36,565850.72,576214.14,576226,2023-05-12T13:45:32Z,576230.76,NULL,Übersicht,kilindo,s,mgusano,chipukizi,kulinganisha,NA,sd,NA,4,NA,NA,NA,NA,NA,NA,NA,NA,NA,NA,NA,NA,NA,NA,NA,NA,NA,NA,NA
ebaec,deep,flow.Sequence,3_0_4_0_1_0,NA,NA,skipped,NA,576227,NA,NA,576214.14,576227,2023-05-12T13:45:32Z,576230.76,NULL,Entwicklung,maendeleo,s,uangavu,mshindwa,badiliko,NA,sd,NA,4,NA,NA,NA,NA,NA,NA,NA,NA,NA,NA,NA,NA,NA,NA,NA,NA,NA,NA,NA
ebaec,Shallow Question,html.Page,3_0_4_0_1_1_0,NA,NA,form submission,4802.24,576227,576214.14,576230.76,581033,581034,2023-05-12T13:45:37Z,581030.16,NULL,Entwicklung,maendeleo,s,uangavu,mshindwa,badiliko,maendeleo,NA,NA,4,NA,NA,NA,NA,NA,NA,NA,NA,NA,NA,NA,NA,NA,NA,NA,NA,NA,NA,NA
ebaec,"""Richtig""-Screen",canvas.Screen,3_0_4_0_1_1_1,NA,NA,timeout,4999.4399999999,581040,581026.96,581030.16,586012.94,586015,2023-05-12T13:45:42Z,586029.6,NULL,Entwicklung,maendeleo,s,uangavu,mshindwa,badiliko,NA,sd,1,4,NA,NA,NA,NA,NA,NA,NA,NA,NA,NA,NA,NA,NA,NA,NA,NA,NA,NA,NA
ebaec,"""Falsch""-Screen",canvas.Screen,3_0_4_0_1_1_2,NA,NA,skipped,NA,586022,NA,NA,586012.94,586022,2023-05-12T13:45:42Z,586029.6,NULL,Entwicklung,maendeleo,s,uangavu,mshindwa,badiliko,NA,sd,NA,4,NA,NA,NA,NA,NA,NA,NA,NA,NA,NA,NA,NA,NA,NA,NA,NA,NA,NA,NA
ebaec,shallow,flow.Sequence,3_0_4_0_1_1,NA,NA,completion,9782.1799999999,576227,576214.14,576230.76,586012.94,586023,2023-05-12T13:45:42Z,586029.6,NULL,Entwicklung,maendeleo,s,uangavu,mshindwa,badiliko,NA,sd,NA,4,NA,NA,NA,NA,NA,NA,NA,NA,NA,NA,NA,NA,NA,NA,NA,NA,NA,NA,NA
ebaec,task,flow.Sequence,3_0_4_0_1,NA,NA,completion,9782.1799999999,576227,576214.14,576230.76,586012.94,586023,2023-05-12T13:45:42Z,586029.6,NULL,Entwicklung,maendeleo,s,uangavu,mshindwa,badiliko,NA,sd,NA,4,NA,NA,NA,NA,NA,NA,NA,NA,NA,NA,NA,NA,NA,NA,NA,NA,NA,NA,NA
ebaec,deep,flow.Sequence,3_0_4_0_2_0,NA,NA,skipped,NA,586023,NA,NA,586012.94,586024,2023-05-12T13:45:42Z,586029.6,NULL,Körper,kiwiliwili,s,mapambano,mpatanishi,kiolezo,NA,sd,NA,4,NA,NA,NA,NA,NA,NA,NA,NA,NA,NA,NA,NA,NA,NA,NA,NA,NA,NA,NA
ebaec,Shallow Question,html.Page,3_0_4_0_2_1_0,NA,NA,form submission,5650.4,586024,586012.94,586029.6,591680,591681,2023-05-12T13:45:48Z,591678.74,NULL,Körper,kiwiliwili,s,mapambano,mpatanishi,kiolezo,kiwiliwili,NA,NA,4,NA,NA,NA,NA,NA,NA,NA,NA,NA,NA,NA,NA,NA,NA,NA,NA,NA,NA,NA
ebaec,"""Richtig""-Screen",canvas.Screen,3_0_4_0_2_1_1,NA,NA,timeout,4999.36,591684,591676,591678.74,596661.44,596664,2023-05-12T13:45:53Z,596678.1,NULL,Körper,kiwiliwili,s,mapambano,mpatanishi,kiolezo,NA,sd,1,4,NA,NA,NA,NA,NA,NA,NA,NA,NA,NA,NA,NA,NA,NA,NA,NA,NA,NA,NA
ebaec,"""Falsch""-Screen",canvas.Screen,3_0_4_0_2_1_2,NA,NA,skipped,NA,596670,NA,NA,596661.44,596671,2023-05-12T13:45:53Z,596678.1,NULL,Körper,kiwiliwili,s,mapambano,mpatanishi,kiolezo,NA,sd,NA,4,NA,NA,NA,NA,NA,NA,NA,NA,NA,NA,NA,NA,NA,NA,NA,NA,NA,NA,NA
ebaec,shallow,flow.Sequence,3_0_4_0_2_1,NA,NA,completion,10631.84,586024,586012.94,586029.6,596661.44,596671,2023-05-12T13:45:53Z,596678.1,NULL,Körper,kiwiliwili,s,mapambano,mpatanishi,kiolezo,NA,sd,NA,4,NA,NA,NA,NA,NA,NA,NA,NA,NA,NA,NA,NA,NA,NA,NA,NA,NA,NA,NA
ebaec,task,flow.Sequence,3_0_4_0_2,NA,NA,completion,10631.84,586023,586012.94,586029.6,596661.44,596671,2023-05-12T13:45:53Z,596678.1,NULL,Körper,kiwiliwili,s,mapambano,mpatanishi,kiolezo,NA,sd,NA,4,NA,NA,NA,NA,NA,NA,NA,NA,NA,NA,NA,NA,NA,NA,NA,NA,NA,NA,NA
ebaec,Deep Question,html.Page,3_0_4_0_3_0_0,NA,NA,form submission,4896.9,596672,596661.44,596678.1,601575,601576,2023-05-12T13:45:57Z,601577.52,NULL,Lawine,banguko,d,NA,NA,NA,as,NA,NA,4,NA,NA,NA,NA,NA,NA,NA,NA,NA,NA,NA,NA,NA,NA,NA,NA,NA,NA,NA
ebaec,"""Richtig""-Screen",canvas.Screen,3_0_4_0_3_0_1,NA,NA,skipped,NA,601582,NA,NA,601575,601582,2023-05-12T13:45:57Z,601577.52,NULL,Lawine,banguko,d,NA,NA,NA,NA,sd,NA,4,NA,NA,NA,NA,NA,NA,NA,NA,NA,NA,NA,NA,NA,NA,NA,NA,NA,NA,NA
ebaec,"""Falsch""-Screen",canvas.Screen,3_0_4_0_3_0_2,NA,NA,timeout,4999.3199999999,601587,601568.8,601577.52,606560.18,606562,2023-05-12T13:46:02Z,606576.84,NULL,Lawine,banguko,d,NA,NA,NA,NA,sd,0,4,NA,NA,NA,NA,NA,NA,NA,NA,NA,NA,NA,NA,NA,NA,NA,NA,NA,NA,NA
ebaec,deep,flow.Sequence,3_0_4_0_3_0,NA,NA,completion,9882.0800000001,596672,596661.44,596678.1,606560.18,606563,2023-05-12T13:46:02Z,606576.84,NULL,Lawine,banguko,d,NA,NA,NA,NA,sd,NA,4,NA,NA,NA,NA,NA,NA,NA,NA,NA,NA,NA,NA,NA,NA,NA,NA,NA,NA,NA
ebaec,shallow,flow.Sequence,3_0_4_0_3_1,NA,NA,skipped,NA,606563,NA,NA,606560.18,606564,2023-05-12T13:46:02Z,606576.84,NULL,Lawine,banguko,d,NA,NA,NA,NA,sd,NA,4,NA,NA,NA,NA,NA,NA,NA,NA,NA,NA,NA,NA,NA,NA,NA,NA,NA,NA,NA
ebaec,task,flow.Sequence,3_0_4_0_3,NA,NA,completion,9882.0800000001,596672,596661.44,596678.1,606560.18,606564,2023-05-12T13:46:02Z,606576.84,NULL,Lawine,banguko,d,NA,NA,NA,NA,sd,NA,4,NA,NA,NA,NA,NA,NA,NA,NA,NA,NA,NA,NA,NA,NA,NA,NA,NA,NA,NA
ebaec,Deep Question,html.Page,3_0_4_0_4_0_0,NA,NA,form submission,3924.16,606565,606560.18,606576.84,610501,610501,2023-05-12T13:46:06Z,610509.68,NULL,System,maongozi,d,NA,NA,NA,as,NA,NA,4,NA,NA,NA,NA,NA,NA,NA,NA,NA,NA,NA,NA,NA,NA,NA,NA,NA,NA,NA
ebaec,"""Richtig""-Screen",canvas.Screen,3_0_4_0_4_0_1,NA,NA,skipped,NA,610507,NA,NA,610501,610508,2023-05-12T13:46:06Z,610509.68,NULL,System,maongozi,d,NA,NA,NA,NA,sd,NA,4,NA,NA,NA,NA,NA,NA,NA,NA,NA,NA,NA,NA,NA,NA,NA,NA,NA,NA,NA
ebaec,"""Falsch""-Screen",canvas.Screen,3_0_4_0_4_0_2,NA,NA,timeout,4999.38,610514,610495.36,610509.68,615492.4,615494,2023-05-12T13:46:11Z,615509.06,NULL,System,maongozi,d,NA,NA,NA,NA,sd,0,4,NA,NA,NA,NA,NA,NA,NA,NA,NA,NA,NA,NA,NA,NA,NA,NA,NA,NA,NA
ebaec,deep,flow.Sequence,3_0_4_0_4_0,NA,NA,completion,8915.5600000001,606564,606560.18,606576.84,615492.4,615495,2023-05-12T13:46:11Z,615509.06,NULL,System,maongozi,d,NA,NA,NA,NA,sd,NA,4,NA,NA,NA,NA,NA,NA,NA,NA,NA,NA,NA,NA,NA,NA,NA,NA,NA,NA,NA
ebaec,shallow,flow.Sequence,3_0_4_0_4_1,NA,NA,skipped,NA,615495,NA,NA,615492.4,615496,2023-05-12T13:46:11Z,615509.06,NULL,System,maongozi,d,NA,NA,NA,NA,sd,NA,4,NA,NA,NA,NA,NA,NA,NA,NA,NA,NA,NA,NA,NA,NA,NA,NA,NA,NA,NA
ebaec,task,flow.Sequence,3_0_4_0_4,NA,NA,completion,8915.5600000001,606564,606560.18,606576.84,615492.4,615496,2023-05-12T13:46:11Z,615509.06,NULL,System,maongozi,d,NA,NA,NA,NA,sd,NA,4,NA,NA,NA,NA,NA,NA,NA,NA,NA,NA,NA,NA,NA,NA,NA,NA,NA,NA,NA
ebaec,Deep Question,html.Page,3_0_4_0_5_0_0,NA,NA,form submission,4133.9399999999,615497,615492.4,615509.06,619643,619644,2023-05-12T13:46:16Z,619658.5,NULL,Papier,karatasi,d,NA,NA,NA,as,NA,NA,4,NA,NA,NA,NA,NA,NA,NA,NA,NA,NA,NA,NA,NA,NA,NA,NA,NA,NA,NA
ebaec,"""Richtig""-Screen",canvas.Screen,3_0_4_0_5_0_1,NA,NA,skipped,NA,619651,NA,NA,619643,619653,2023-05-12T13:46:16Z,619658.5,NULL,Papier,karatasi,d,NA,NA,NA,NA,sd,NA,4,NA,NA,NA,NA,NA,NA,NA,NA,NA,NA,NA,NA,NA,NA,NA,NA,NA,NA,NA
ebaec,"""Falsch""-Screen",canvas.Screen,3_0_4_0_5_0_2,NA,NA,timeout,4999.4399999999,619657,619636.28,619658.5,624641.3,624644,2023-05-12T13:46:21Z,624657.94,NULL,Papier,karatasi,d,NA,NA,NA,NA,sd,0,4,NA,NA,NA,NA,NA,NA,NA,NA,NA,NA,NA,NA,NA,NA,NA,NA,NA,NA,NA
ebaec,deep,flow.Sequence,3_0_4_0_5_0,NA,NA,completion,9132.24,615497,615492.4,615509.06,624641.3,624645,2023-05-12T13:46:21Z,624657.94,NULL,Papier,karatasi,d,NA,NA,NA,NA,sd,NA,4,NA,NA,NA,NA,NA,NA,NA,NA,NA,NA,NA,NA,NA,NA,NA,NA,NA,NA,NA
ebaec,shallow,flow.Sequence,3_0_4_0_5_1,NA,NA,skipped,NA,624646,NA,NA,624641.3,624647,2023-05-12T13:46:21Z,624657.94,NULL,Papier,karatasi,d,NA,NA,NA,NA,sd,NA,4,NA,NA,NA,NA,NA,NA,NA,NA,NA,NA,NA,NA,NA,NA,NA,NA,NA,NA,NA
ebaec,task,flow.Sequence,3_0_4_0_5,NA,NA,completion,9132.24,615497,615492.4,615509.06,624641.3,624649,2023-05-12T13:46:21Z,624657.94,NULL,Papier,karatasi,d,NA,NA,NA,NA,sd,NA,4,NA,NA,NA,NA,NA,NA,NA,NA,NA,NA,NA,NA,NA,NA,NA,NA,NA,NA,NA
ebaec,deep,flow.Sequence,3_0_4_0_6_0,NA,NA,skipped,NA,624650,NA,NA,624641.3,624651,2023-05-12T13:46:21Z,624657.94,NULL,Vorwurf,mashtaka,s,msukumo,mtangulizi,uenyekiti,NA,sd,NA,4,NA,NA,NA,NA,NA,NA,NA,NA,NA,NA,NA,NA,NA,NA,NA,NA,NA,NA,NA
ebaec,Shallow Question,html.Page,3_0_4_0_6_1_0,NA,NA,form submission,5452.0600000001,624651,624641.3,624657.94,630110,630111,2023-05-12T13:46:26Z,630107.22,NULL,Vorwurf,mashtaka,s,msukumo,mtangulizi,uenyekiti,mashtaka,NA,NA,4,NA,NA,NA,NA,NA,NA,NA,NA,NA,NA,NA,NA,NA,NA,NA,NA,NA,NA,NA
ebaec,"""Richtig""-Screen",canvas.Screen,3_0_4_0_6_1_1,NA,NA,timeout,4999.42,630119,630100.92,630107.22,635089.98,635091,2023-05-12T13:46:31Z,635106.64,NULL,Vorwurf,mashtaka,s,msukumo,mtangulizi,uenyekiti,NA,sd,1,4,NA,NA,NA,NA,NA,NA,NA,NA,NA,NA,NA,NA,NA,NA,NA,NA,NA,NA,NA
ebaec,"""Falsch""-Screen",canvas.Screen,3_0_4_0_6_1_2,NA,NA,skipped,NA,635095,NA,NA,635089.98,635096,2023-05-12T13:46:31Z,635106.64,NULL,Vorwurf,mashtaka,s,msukumo,mtangulizi,uenyekiti,NA,sd,NA,4,NA,NA,NA,NA,NA,NA,NA,NA,NA,NA,NA,NA,NA,NA,NA,NA,NA,NA,NA
ebaec,shallow,flow.Sequence,3_0_4_0_6_1,NA,NA,completion,10432.04,624651,624641.3,624657.94,635089.98,635096,2023-05-12T13:46:31Z,635106.64,NULL,Vorwurf,mashtaka,s,msukumo,mtangulizi,uenyekiti,NA,sd,NA,4,NA,NA,NA,NA,NA,NA,NA,NA,NA,NA,NA,NA,NA,NA,NA,NA,NA,NA,NA
ebaec,task,flow.Sequence,3_0_4_0_6,NA,NA,completion,10432.04,624650,624641.3,624657.94,635089.98,635098,2023-05-12T13:46:31Z,635106.64,NULL,Vorwurf,mashtaka,s,msukumo,mtangulizi,uenyekiti,NA,sd,NA,4,NA,NA,NA,NA,NA,NA,NA,NA,NA,NA,NA,NA,NA,NA,NA,NA,NA,NA,NA
ebaec,Deep Question,html.Page,3_0_4_0_7_0_0,NA,NA,form submission,4116.36,635098,635089.98,635106.64,639223,639224,2023-05-12T13:46:35Z,639239.36,NULL,Niveau,kiwango,d,NA,NA,NA,a,NA,NA,4,NA,NA,NA,NA,NA,NA,NA,NA,NA,NA,NA,NA,NA,NA,NA,NA,NA,NA,NA
ebaec,"""Richtig""-Screen",canvas.Screen,3_0_4_0_7_0_1,NA,NA,skipped,NA,639230,NA,NA,639223,639230,2023-05-12T13:46:35Z,639239.36,NULL,Niveau,kiwango,d,NA,NA,NA,NA,sd,NA,4,NA,NA,NA,NA,NA,NA,NA,NA,NA,NA,NA,NA,NA,NA,NA,NA,NA,NA,NA
ebaec,"""Falsch""-Screen",canvas.Screen,3_0_4_0_7_0_2,NA,NA,timeout,4999.4,639238,639214.52,639239.36,644222.1,644223,2023-05-12T13:46:40Z,644238.76,NULL,Niveau,kiwango,d,NA,NA,NA,NA,sd,0,4,NA,NA,NA,NA,NA,NA,NA,NA,NA,NA,NA,NA,NA,NA,NA,NA,NA,NA,NA
ebaec,deep,flow.Sequence,3_0_4_0_7_0,NA,NA,completion,9115.46,635098,635089.98,635106.64,644222.1,644223,2023-05-12T13:46:40Z,644238.76,NULL,Niveau,kiwango,d,NA,NA,NA,NA,sd,NA,4,NA,NA,NA,NA,NA,NA,NA,NA,NA,NA,NA,NA,NA,NA,NA,NA,NA,NA,NA
ebaec,shallow,flow.Sequence,3_0_4_0_7_1,NA,NA,skipped,NA,644223,NA,NA,644222.1,644223,2023-05-12T13:46:40Z,644238.76,NULL,Niveau,kiwango,d,NA,NA,NA,NA,sd,NA,4,NA,NA,NA,NA,NA,NA,NA,NA,NA,NA,NA,NA,NA,NA,NA,NA,NA,NA,NA
ebaec,task,flow.Sequence,3_0_4_0_7,NA,NA,completion,9115.46,635098,635089.98,635106.64,644222.1,644223,2023-05-12T13:46:40Z,644238.76,NULL,Niveau,kiwango,d,NA,NA,NA,NA,sd,NA,4,NA,NA,NA,NA,NA,NA,NA,NA,NA,NA,NA,NA,NA,NA,NA,NA,NA,NA,NA
ebaec,block,flow.Loop,3_0_4_0,NA,NA,completion,78371.38,565850,565850.36,565850.72,644222.1,644223,2023-05-12T13:46:40Z,644238.76,NULL,NA,NA,NA,NA,NA,NA,NA,sd,NA,4,NA,NA,NA,NA,NA,NA,NA,NA,NA,NA,NA,NA,NA,NA,NA,NA,NA,NA,NA
ebaec,weiter,canvas.Screen,3_0_4_1,sdf,keypress(Space),response,963.23999999999,644224,644222.1,644238.76,645202,645210,2023-05-12T13:46:41Z,645271.96,NULL,NA,NA,NA,NA,NA,NA,NA,sd,NA,4,NA,NA,NA,NA,NA,NA,NA,NA,NA,NA,NA,NA,NA,NA,NA,NA,NA,NA,NA
ebaec,check continue,flow.Sequence,3_0_4,NA,NA,completion,79351.28,565850,565850.36,565850.72,645202,645210,2023-05-12T13:46:41Z,645271.96,NULL,NA,NA,NA,NA,NA,NA,NA,sd,NA,4,NA,NA,NA,NA,NA,NA,NA,NA,NA,NA,NA,NA,NA,NA,NA,NA,NA,NA,NA
ebaec,deep,flow.Sequence,3_0_5_0_0_0,NA,NA,skipped,NA,645269,NA,NA,645202,645269,2023-05-12T13:46:41Z,645271.96,NULL,Körper,kiwiliwili,s,mapambano,mpatanishi,kiolezo,NA,sdf,NA,5,NA,NA,NA,NA,NA,NA,NA,NA,NA,NA,NA,NA,NA,NA,NA,NA,NA,NA,NA
ebaec,Shallow Question,html.Page,3_0_5_0_0_1_0,NA,NA,form submission,5173.04,645270,645269.84,645271.96,650445,650446,2023-05-12T13:46:46Z,650454.66,NULL,Körper,kiwiliwili,s,mapambano,mpatanishi,kiolezo,kiwiliwili,NA,NA,5,NA,NA,NA,NA,NA,NA,NA,NA,NA,NA,NA,NA,NA,NA,NA,NA,NA,NA,NA
ebaec,"""Richtig""-Screen",canvas.Screen,3_0_5_0_0_1_1,NA,NA,timeout,4999.4399999999,650451,650439.74,650454.66,655437.44,655439,2023-05-12T13:46:51Z,655454.1,NULL,Körper,kiwiliwili,s,mapambano,mpatanishi,kiolezo,NA,sdf,1,5,NA,NA,NA,NA,NA,NA,NA,NA,NA,NA,NA,NA,NA,NA,NA,NA,NA,NA,NA
ebaec,"""Falsch""-Screen",canvas.Screen,3_0_5_0_0_1_2,NA,NA,skipped,NA,655443,NA,NA,655437.44,655444,2023-05-12T13:46:51Z,655454.1,NULL,Körper,kiwiliwili,s,mapambano,mpatanishi,kiolezo,NA,sdf,NA,5,NA,NA,NA,NA,NA,NA,NA,NA,NA,NA,NA,NA,NA,NA,NA,NA,NA,NA,NA
ebaec,shallow,flow.Sequence,3_0_5_0_0_1,NA,NA,completion,10165.48,645270,645269.84,645271.96,655437.44,655444,2023-05-12T13:46:51Z,655454.1,NULL,Körper,kiwiliwili,s,mapambano,mpatanishi,kiolezo,NA,sdf,NA,5,NA,NA,NA,NA,NA,NA,NA,NA,NA,NA,NA,NA,NA,NA,NA,NA,NA,NA,NA
ebaec,task,flow.Sequence,3_0_5_0_0,NA,NA,completion,10165.48,645269,645269.84,645271.96,655437.44,655444,2023-05-12T13:46:51Z,655454.1,NULL,Körper,kiwiliwili,s,mapambano,mpatanishi,kiolezo,NA,sdf,NA,5,NA,NA,NA,NA,NA,NA,NA,NA,NA,NA,NA,NA,NA,NA,NA,NA,NA,NA,NA
ebaec,deep,flow.Sequence,3_0_5_0_1_0,NA,NA,skipped,NA,655445,NA,NA,655437.44,655445,2023-05-12T13:46:51Z,655454.1,NULL,Vorwurf,mashtaka,s,msukumo,mtangulizi,uenyekiti,NA,sdf,NA,5,NA,NA,NA,NA,NA,NA,NA,NA,NA,NA,NA,NA,NA,NA,NA,NA,NA,NA,NA
ebaec,Shallow Question,html.Page,3_0_5_0_1_1_0,NA,NA,form submission,7662.9,655445,655437.44,655454.1,663117,663117,2023-05-12T13:46:59Z,663119.72,NULL,Vorwurf,mashtaka,s,msukumo,mtangulizi,uenyekiti,mashtaka,NA,NA,5,NA,NA,NA,NA,NA,NA,NA,NA,NA,NA,NA,NA,NA,NA,NA,NA,NA,NA,NA
ebaec,"""Richtig""-Screen",canvas.Screen,3_0_5_0_1_1_1,NA,NA,timeout,4999.4,663120,663112.76,663119.72,668102.5,668104,2023-05-12T13:47:04Z,668119.12,NULL,Vorwurf,mashtaka,s,msukumo,mtangulizi,uenyekiti,NA,sdf,1,5,NA,NA,NA,NA,NA,NA,NA,NA,NA,NA,NA,NA,NA,NA,NA,NA,NA,NA,NA
ebaec,"""Falsch""-Screen",canvas.Screen,3_0_5_0_1_1_2,NA,NA,skipped,NA,668112,NA,NA,668102.5,668112,2023-05-12T13:47:04Z,668119.12,NULL,Vorwurf,mashtaka,s,msukumo,mtangulizi,uenyekiti,NA,sdf,NA,5,NA,NA,NA,NA,NA,NA,NA,NA,NA,NA,NA,NA,NA,NA,NA,NA,NA,NA,NA
ebaec,shallow,flow.Sequence,3_0_5_0_1_1,NA,NA,completion,12648.4,655445,655437.44,655454.1,668102.5,668113,2023-05-12T13:47:04Z,668119.12,NULL,Vorwurf,mashtaka,s,msukumo,mtangulizi,uenyekiti,NA,sdf,NA,5,NA,NA,NA,NA,NA,NA,NA,NA,NA,NA,NA,NA,NA,NA,NA,NA,NA,NA,NA
ebaec,task,flow.Sequence,3_0_5_0_1,NA,NA,completion,12648.4,655445,655437.44,655454.1,668102.5,668113,2023-05-12T13:47:04Z,668119.12,NULL,Vorwurf,mashtaka,s,msukumo,mtangulizi,uenyekiti,NA,sdf,NA,5,NA,NA,NA,NA,NA,NA,NA,NA,NA,NA,NA,NA,NA,NA,NA,NA,NA,NA,NA
ebaec,Deep Question,html.Page,3_0_5_0_2_0_0,NA,NA,form submission,3794.88,668113,668102.5,668119.12,671914,671915,2023-05-12T13:47:08Z,671918.6,NULL,System,maongozi,d,NA,NA,NA,a,NA,NA,5,NA,NA,NA,NA,NA,NA,NA,NA,NA,NA,NA,NA,NA,NA,NA,NA,NA,NA,NA
ebaec,"""Richtig""-Screen",canvas.Screen,3_0_5_0_2_0_1,NA,NA,skipped,NA,671916,NA,NA,671914,671916,2023-05-12T13:47:08Z,671918.6,NULL,System,maongozi,d,NA,NA,NA,NA,sdf,NA,5,NA,NA,NA,NA,NA,NA,NA,NA,NA,NA,NA,NA,NA,NA,NA,NA,NA,NA,NA
ebaec,"""Falsch""-Screen",canvas.Screen,3_0_5_0_2_0_2,NA,NA,timeout,4999.4,671918,671911.6,671918.6,676901.36,676903,2023-05-12T13:47:13Z,676918,NULL,System,maongozi,d,NA,NA,NA,NA,sdf,0,5,NA,NA,NA,NA,NA,NA,NA,NA,NA,NA,NA,NA,NA,NA,NA,NA,NA,NA,NA
ebaec,deep,flow.Sequence,3_0_5_0_2_0,NA,NA,completion,8782.24,668113,668102.5,668119.12,676901.36,676904,2023-05-12T13:47:13Z,676918,NULL,System,maongozi,d,NA,NA,NA,NA,sdf,NA,5,NA,NA,NA,NA,NA,NA,NA,NA,NA,NA,NA,NA,NA,NA,NA,NA,NA,NA,NA
ebaec,shallow,flow.Sequence,3_0_5_0_2_1,NA,NA,skipped,NA,676904,NA,NA,676901.36,676905,2023-05-12T13:47:13Z,676918,NULL,System,maongozi,d,NA,NA,NA,NA,sdf,NA,5,NA,NA,NA,NA,NA,NA,NA,NA,NA,NA,NA,NA,NA,NA,NA,NA,NA,NA,NA
ebaec,task,flow.Sequence,3_0_5_0_2,NA,NA,completion,8782.24,668113,668102.5,668119.12,676901.36,676905,2023-05-12T13:47:13Z,676918,NULL,System,maongozi,d,NA,NA,NA,NA,sdf,NA,5,NA,NA,NA,NA,NA,NA,NA,NA,NA,NA,NA,NA,NA,NA,NA,NA,NA,NA,NA
ebaec,deep,flow.Sequence,3_0_5_0_3_0,NA,NA,skipped,NA,676906,NA,NA,676901.36,676906,2023-05-12T13:47:13Z,676918,NULL,Entwicklung,maendeleo,s,uangavu,mshindwa,badiliko,NA,sdf,NA,5,NA,NA,NA,NA,NA,NA,NA,NA,NA,NA,NA,NA,NA,NA,NA,NA,NA,NA,NA
ebaec,Shallow Question,html.Page,3_0_5_0_3_1_0,NA,NA,form submission,5856,676907,676901.36,676918,682774,682775,2023-05-12T13:47:19Z,682783.86,NULL,Entwicklung,maendeleo,s,uangavu,mshindwa,badiliko,maendeleo,NA,NA,5,NA,NA,NA,NA,NA,NA,NA,NA,NA,NA,NA,NA,NA,NA,NA,NA,NA,NA,NA
ebaec,"""Richtig""-Screen",canvas.Screen,3_0_5_0_3_1_1,NA,NA,timeout,4999.38,682784,682767.5,682783.86,687766.68,687768,2023-05-12T13:47:24Z,687783.24,NULL,Entwicklung,maendeleo,s,uangavu,mshindwa,badiliko,NA,sdf,1,5,NA,NA,NA,NA,NA,NA,NA,NA,NA,NA,NA,NA,NA,NA,NA,NA,NA,NA,NA
ebaec,"""Falsch""-Screen",canvas.Screen,3_0_5_0_3_1_2,NA,NA,skipped,NA,687774,NA,NA,687766.68,687774,2023-05-12T13:47:24Z,687783.24,NULL,Entwicklung,maendeleo,s,uangavu,mshindwa,badiliko,NA,sdf,NA,5,NA,NA,NA,NA,NA,NA,NA,NA,NA,NA,NA,NA,NA,NA,NA,NA,NA,NA,NA
ebaec,shallow,flow.Sequence,3_0_5_0_3_1,NA,NA,completion,10848.68,676906,676901.36,676918,687766.68,687775,2023-05-12T13:47:24Z,687783.24,NULL,Entwicklung,maendeleo,s,uangavu,mshindwa,badiliko,NA,sdf,NA,5,NA,NA,NA,NA,NA,NA,NA,NA,NA,NA,NA,NA,NA,NA,NA,NA,NA,NA,NA
ebaec,task,flow.Sequence,3_0_5_0_3,NA,NA,completion,10848.68,676906,676901.36,676918,687766.68,687775,2023-05-12T13:47:24Z,687783.24,NULL,Entwicklung,maendeleo,s,uangavu,mshindwa,badiliko,NA,sdf,NA,5,NA,NA,NA,NA,NA,NA,NA,NA,NA,NA,NA,NA,NA,NA,NA,NA,NA,NA,NA
ebaec,Deep Question,html.Page,3_0_5_0_4_0_0,NA,NA,form submission,7581.76,687776,687766.68,687783.24,695365,695366,2023-05-12T13:47:31Z,695365.66,NULL,Papier,karatasi,d,NA,NA,NA,karatasi,NA,NA,5,NA,NA,NA,NA,NA,NA,NA,NA,NA,NA,NA,NA,NA,NA,NA,NA,NA,NA,NA
ebaec,"""Richtig""-Screen",canvas.Screen,3_0_5_0_4_0_1,NA,NA,timeout,4999.34,695369,695360.56,695365.66,700348.34,700349,2023-05-12T13:47:36Z,700365,NULL,Papier,karatasi,d,NA,NA,NA,NA,sdf,1,5,NA,NA,NA,NA,NA,NA,NA,NA,NA,NA,NA,NA,NA,NA,NA,NA,NA,NA,NA
ebaec,"""Falsch""-Screen",canvas.Screen,3_0_5_0_4_0_2,NA,NA,skipped,NA,700356,NA,NA,700348.34,700356,2023-05-12T13:47:36Z,700365,NULL,Papier,karatasi,d,NA,NA,NA,NA,sdf,NA,5,NA,NA,NA,NA,NA,NA,NA,NA,NA,NA,NA,NA,NA,NA,NA,NA,NA,NA,NA
ebaec,deep,flow.Sequence,3_0_5_0_4_0,NA,NA,completion,12565.1,687776,687766.68,687783.24,700348.34,700356,2023-05-12T13:47:36Z,700365,NULL,Papier,karatasi,d,NA,NA,NA,NA,sdf,NA,5,NA,NA,NA,NA,NA,NA,NA,NA,NA,NA,NA,NA,NA,NA,NA,NA,NA,NA,NA
ebaec,shallow,flow.Sequence,3_0_5_0_4_1,NA,NA,skipped,NA,700357,NA,NA,700348.34,700357,2023-05-12T13:47:36Z,700365,NULL,Papier,karatasi,d,NA,NA,NA,NA,sdf,NA,5,NA,NA,NA,NA,NA,NA,NA,NA,NA,NA,NA,NA,NA,NA,NA,NA,NA,NA,NA
ebaec,task,flow.Sequence,3_0_5_0_4,NA,NA,completion,12565.1,687776,687766.68,687783.24,700348.34,700358,2023-05-12T13:47:36Z,700365,NULL,Papier,karatasi,d,NA,NA,NA,NA,sdf,NA,5,NA,NA,NA,NA,NA,NA,NA,NA,NA,NA,NA,NA,NA,NA,NA,NA,NA,NA,NA
ebaec,Deep Question,html.Page,3_0_5_0_5_0_0,NA,NA,form submission,5327,700358,700348.34,700365,705692,705693,2023-05-12T13:47:42Z,705697.7,NULL,Niveau,kiwango,d,NA,NA,NA,ba,NA,NA,5,NA,NA,NA,NA,NA,NA,NA,NA,NA,NA,NA,NA,NA,NA,NA,NA,NA,NA,NA
ebaec,"""Richtig""-Screen",canvas.Screen,3_0_5_0_5_0_1,NA,NA,skipped,NA,705699,NA,NA,705692,705699,2023-05-12T13:47:42Z,705697.7,NULL,Niveau,kiwango,d,NA,NA,NA,NA,sdf,NA,5,NA,NA,NA,NA,NA,NA,NA,NA,NA,NA,NA,NA,NA,NA,NA,NA,NA,NA,NA
ebaec,"""Falsch""-Screen",canvas.Screen,3_0_5_0_5_0_2,NA,NA,timeout,4999.4,705704,705681.08,705697.7,710680.44,710682,2023-05-12T13:47:47Z,710697.1,NULL,Niveau,kiwango,d,NA,NA,NA,NA,sdf,0,5,NA,NA,NA,NA,NA,NA,NA,NA,NA,NA,NA,NA,NA,NA,NA,NA,NA,NA,NA
ebaec,deep,flow.Sequence,3_0_5_0_5_0,NA,NA,completion,10315.44,700358,700348.34,700365,710680.44,710682,2023-05-12T13:47:47Z,710697.1,NULL,Niveau,kiwango,d,NA,NA,NA,NA,sdf,NA,5,NA,NA,NA,NA,NA,NA,NA,NA,NA,NA,NA,NA,NA,NA,NA,NA,NA,NA,NA
ebaec,shallow,flow.Sequence,3_0_5_0_5_1,NA,NA,skipped,NA,710683,NA,NA,710680.44,710683,2023-05-12T13:47:47Z,710697.1,NULL,Niveau,kiwango,d,NA,NA,NA,NA,sdf,NA,5,NA,NA,NA,NA,NA,NA,NA,NA,NA,NA,NA,NA,NA,NA,NA,NA,NA,NA,NA
ebaec,task,flow.Sequence,3_0_5_0_5,NA,NA,completion,10315.44,700358,700348.34,700365,710680.44,710683,2023-05-12T13:47:47Z,710697.1,NULL,Niveau,kiwango,d,NA,NA,NA,NA,sdf,NA,5,NA,NA,NA,NA,NA,NA,NA,NA,NA,NA,NA,NA,NA,NA,NA,NA,NA,NA,NA
ebaec,Deep Question,html.Page,3_0_5_0_6_0_0,NA,NA,form submission,5932.9,710684,710680.44,710697.1,716630,716630,2023-05-12T13:47:52Z,716629.56,NULL,Lawine,banguko,d,NA,NA,NA,as,NA,NA,5,NA,NA,NA,NA,NA,NA,NA,NA,NA,NA,NA,NA,NA,NA,NA,NA,NA,NA,NA
ebaec,"""Richtig""-Screen",canvas.Screen,3_0_5_0_6_0_1,NA,NA,skipped,NA,716632,NA,NA,716630,716632,2023-05-12T13:47:52Z,716629.56,NULL,Lawine,banguko,d,NA,NA,NA,NA,sdf,NA,5,NA,NA,NA,NA,NA,NA,NA,NA,NA,NA,NA,NA,NA,NA,NA,NA,NA,NA,NA
ebaec,"""Falsch""-Screen",canvas.Screen,3_0_5_0_6_0_2,NA,NA,timeout,4999.4399999999,716635,716628.08,716629.56,721612.34,721614,2023-05-12T13:47:57Z,721629,NULL,Lawine,banguko,d,NA,NA,NA,NA,sdf,0,5,NA,NA,NA,NA,NA,NA,NA,NA,NA,NA,NA,NA,NA,NA,NA,NA,NA,NA,NA
ebaec,deep,flow.Sequence,3_0_5_0_6_0,NA,NA,completion,10915.24,710683,710680.44,710697.1,721612.34,721615,2023-05-12T13:47:57Z,721629,NULL,Lawine,banguko,d,NA,NA,NA,NA,sdf,NA,5,NA,NA,NA,NA,NA,NA,NA,NA,NA,NA,NA,NA,NA,NA,NA,NA,NA,NA,NA
ebaec,shallow,flow.Sequence,3_0_5_0_6_1,NA,NA,skipped,NA,721616,NA,NA,721612.34,721616,2023-05-12T13:47:57Z,721629,NULL,Lawine,banguko,d,NA,NA,NA,NA,sdf,NA,5,NA,NA,NA,NA,NA,NA,NA,NA,NA,NA,NA,NA,NA,NA,NA,NA,NA,NA,NA
ebaec,task,flow.Sequence,3_0_5_0_6,NA,NA,completion,10915.24,710683,710680.44,710697.1,721612.34,721617,2023-05-12T13:47:57Z,721629,NULL,Lawine,banguko,d,NA,NA,NA,NA,sdf,NA,5,NA,NA,NA,NA,NA,NA,NA,NA,NA,NA,NA,NA,NA,NA,NA,NA,NA,NA,NA
ebaec,deep,flow.Sequence,3_0_5_0_7_0,NA,NA,skipped,NA,721617,NA,NA,721612.34,721618,2023-05-12T13:47:57Z,721629,NULL,Übersicht,kilindo,s,mgusano,chipukizi,kulinganisha,NA,sdf,NA,5,NA,NA,NA,NA,NA,NA,NA,NA,NA,NA,NA,NA,NA,NA,NA,NA,NA,NA,NA
ebaec,Shallow Question,html.Page,3_0_5_0_7_1_0,NA,NA,form submission,5729,721618,721612.34,721629,727358,727359,2023-05-12T13:48:03Z,727361.58,NULL,Übersicht,kilindo,s,mgusano,chipukizi,kulinganisha,kilindo,NA,NA,5,NA,NA,NA,NA,NA,NA,NA,NA,NA,NA,NA,NA,NA,NA,NA,NA,NA,NA,NA
ebaec,"""Richtig""-Screen",canvas.Screen,3_0_5_0_7_1_1,NA,NA,timeout,4999.36,727363,727354.7,727361.58,732344.4,732346,2023-05-12T13:48:08Z,732360.94,NULL,Übersicht,kilindo,s,mgusano,chipukizi,kulinganisha,NA,sdf,1,5,NA,NA,NA,NA,NA,NA,NA,NA,NA,NA,NA,NA,NA,NA,NA,NA,NA,NA,NA
ebaec,"""Falsch""-Screen",canvas.Screen,3_0_5_0_7_1_2,NA,NA,skipped,NA,732353,NA,NA,732344.4,732353,2023-05-12T13:48:08Z,732360.94,NULL,Übersicht,kilindo,s,mgusano,chipukizi,kulinganisha,NA,sdf,NA,5,NA,NA,NA,NA,NA,NA,NA,NA,NA,NA,NA,NA,NA,NA,NA,NA,NA,NA,NA
ebaec,shallow,flow.Sequence,3_0_5_0_7_1,NA,NA,completion,10715.4,721618,721612.34,721629,732344.4,732354,2023-05-12T13:48:08Z,732360.94,NULL,Übersicht,kilindo,s,mgusano,chipukizi,kulinganisha,NA,sdf,NA,5,NA,NA,NA,NA,NA,NA,NA,NA,NA,NA,NA,NA,NA,NA,NA,NA,NA,NA,NA
ebaec,task,flow.Sequence,3_0_5_0_7,NA,NA,completion,10715.4,721617,721612.34,721629,732344.4,732354,2023-05-12T13:48:08Z,732360.94,NULL,Übersicht,kilindo,s,mgusano,chipukizi,kulinganisha,NA,sdf,NA,5,NA,NA,NA,NA,NA,NA,NA,NA,NA,NA,NA,NA,NA,NA,NA,NA,NA,NA,NA
ebaec,block,flow.Loop,3_0_5_0,NA,NA,completion,87072.44,645269,645269.84,645271.96,732344.4,732354,2023-05-12T13:48:08Z,732360.94,NULL,NA,NA,NA,NA,NA,NA,NA,sdf,NA,5,NA,NA,NA,NA,NA,NA,NA,NA,NA,NA,NA,NA,NA,NA,NA,NA,NA,NA,NA
ebaec,weiter,canvas.Screen,3_0_5_1,sdf,keypress(Space),response,1090.0600000001,732355,732344.4,732360.94,733451,733459,2023-05-12T13:48:09Z,733534.36,NULL,NA,NA,NA,NA,NA,NA,NA,sdf,NA,5,NA,NA,NA,NA,NA,NA,NA,NA,NA,NA,NA,NA,NA,NA,NA,NA,NA,NA,NA
ebaec,check continue,flow.Sequence,3_0_5,NA,NA,completion,88179.04,645269,645269.84,645271.96,733451,733459,2023-05-12T13:48:09Z,733534.36,NULL,NA,NA,NA,NA,NA,NA,NA,sdf,NA,5,NA,NA,NA,NA,NA,NA,NA,NA,NA,NA,NA,NA,NA,NA,NA,NA,NA,NA,NA
ebaec,Deep Question,html.Page,3_0_6_0_0_0_0,NA,NA,form submission,7796.64,733534,733533.94,733534.36,741331,741333,2023-05-12T13:48:17Z,741343.18,NULL,Niveau,kiwango,d,NA,NA,NA,bankuko,NA,NA,6,NA,NA,NA,NA,NA,NA,NA,NA,NA,NA,NA,NA,NA,NA,NA,NA,NA,NA,NA
ebaec,"""Richtig""-Screen",canvas.Screen,3_0_6_0_0_0_1,NA,NA,skipped,NA,741341,NA,NA,741331,741341,2023-05-12T13:48:17Z,741343.18,NULL,Niveau,kiwango,d,NA,NA,NA,NA,dfs,NA,6,NA,NA,NA,NA,NA,NA,NA,NA,NA,NA,NA,NA,NA,NA,NA,NA,NA,NA,NA
ebaec,"""Falsch""-Screen",canvas.Screen,3_0_6_0_0_0_2,NA,NA,timeout,4999.34,741346,741324.5,741343.18,746326.02,746328,2023-05-12T13:48:22Z,746342.52,NULL,Niveau,kiwango,d,NA,NA,NA,NA,dfs,0,6,NA,NA,NA,NA,NA,NA,NA,NA,NA,NA,NA,NA,NA,NA,NA,NA,NA,NA,NA
ebaec,deep,flow.Sequence,3_0_6_0_0_0,NA,NA,completion,12791.66,733534,733533.94,733534.36,746326.02,746330,2023-05-12T13:48:22Z,746342.52,NULL,Niveau,kiwango,d,NA,NA,NA,NA,dfs,NA,6,NA,NA,NA,NA,NA,NA,NA,NA,NA,NA,NA,NA,NA,NA,NA,NA,NA,NA,NA
ebaec,shallow,flow.Sequence,3_0_6_0_0_1,NA,NA,skipped,NA,746331,NA,NA,746326.02,746331,2023-05-12T13:48:22Z,746342.52,NULL,Niveau,kiwango,d,NA,NA,NA,NA,dfs,NA,6,NA,NA,NA,NA,NA,NA,NA,NA,NA,NA,NA,NA,NA,NA,NA,NA,NA,NA,NA
ebaec,task,flow.Sequence,3_0_6_0_0,NA,NA,completion,12791.66,733534,733533.94,733534.36,746326.02,746333,2023-05-12T13:48:22Z,746342.52,NULL,Niveau,kiwango,d,NA,NA,NA,NA,dfs,NA,6,NA,NA,NA,NA,NA,NA,NA,NA,NA,NA,NA,NA,NA,NA,NA,NA,NA,NA,NA
ebaec,deep,flow.Sequence,3_0_6_0_1_0,NA,NA,skipped,NA,746335,NA,NA,746326.02,746336,2023-05-12T13:48:22Z,746342.52,NULL,Entwicklung,maendeleo,s,uangavu,mshindwa,badiliko,NA,dfs,NA,6,NA,NA,NA,NA,NA,NA,NA,NA,NA,NA,NA,NA,NA,NA,NA,NA,NA,NA,NA
ebaec,Shallow Question,html.Page,3_0_6_0_1_1_0,NA,NA,form submission,4896.48,746336,746326.02,746342.52,751239,751240,2023-05-12T13:48:27Z,751241.88,NULL,Entwicklung,maendeleo,s,uangavu,mshindwa,badiliko,maendeleo,NA,NA,6,NA,NA,NA,NA,NA,NA,NA,NA,NA,NA,NA,NA,NA,NA,NA,NA,NA,NA,NA
ebaec,"""Richtig""-Screen",canvas.Screen,3_0_6_0_1_1_1,NA,NA,timeout,4999.4399999999,751247,751229.58,751241.88,756224.66,756226,2023-05-12T13:48:32Z,756241.32,NULL,Entwicklung,maendeleo,s,uangavu,mshindwa,badiliko,NA,dfs,1,6,NA,NA,NA,NA,NA,NA,NA,NA,NA,NA,NA,NA,NA,NA,NA,NA,NA,NA,NA
ebaec,"""Falsch""-Screen",canvas.Screen,3_0_6_0_1_1_2,NA,NA,skipped,NA,756235,NA,NA,756224.66,756235,2023-05-12T13:48:32Z,756241.32,NULL,Entwicklung,maendeleo,s,uangavu,mshindwa,badiliko,NA,dfs,NA,6,NA,NA,NA,NA,NA,NA,NA,NA,NA,NA,NA,NA,NA,NA,NA,NA,NA,NA,NA
ebaec,shallow,flow.Sequence,3_0_6_0_1_1,NA,NA,completion,9882.14,746336,746326.02,746342.52,756224.66,756237,2023-05-12T13:48:32Z,756241.32,NULL,Entwicklung,maendeleo,s,uangavu,mshindwa,badiliko,NA,dfs,NA,6,NA,NA,NA,NA,NA,NA,NA,NA,NA,NA,NA,NA,NA,NA,NA,NA,NA,NA,NA
ebaec,task,flow.Sequence,3_0_6_0_1,NA,NA,completion,9882.14,746335,746326.02,746342.52,756224.66,756238,2023-05-12T13:48:32Z,756241.32,NULL,Entwicklung,maendeleo,s,uangavu,mshindwa,badiliko,NA,dfs,NA,6,NA,NA,NA,NA,NA,NA,NA,NA,NA,NA,NA,NA,NA,NA,NA,NA,NA,NA,NA
ebaec,deep,flow.Sequence,3_0_6_0_2_0,NA,NA,skipped,NA,756239,NA,NA,756224.66,756240,2023-05-12T13:48:32Z,756241.32,NULL,Vorwurf,mashtaka,s,msukumo,mtangulizi,uenyekiti,NA,dfs,NA,6,NA,NA,NA,NA,NA,NA,NA,NA,NA,NA,NA,NA,NA,NA,NA,NA,NA,NA,NA
ebaec,Shallow Question,html.Page,3_0_6_0_2_1_0,NA,NA,form submission,4467.6800000001,756241,756224.66,756241.32,760709,760710,2023-05-12T13:48:37Z,760707.38,NULL,Vorwurf,mashtaka,s,msukumo,mtangulizi,uenyekiti,mashtaka,NA,NA,6,NA,NA,NA,NA,NA,NA,NA,NA,NA,NA,NA,NA,NA,NA,NA,NA,NA,NA,NA
ebaec,"""Richtig""-Screen",canvas.Screen,3_0_6_0_2_1_1,NA,NA,timeout,4999.38,760713,760706.02,760707.38,765690.14,765692,2023-05-12T13:48:42Z,765706.76,NULL,Vorwurf,mashtaka,s,msukumo,mtangulizi,uenyekiti,NA,dfs,1,6,NA,NA,NA,NA,NA,NA,NA,NA,NA,NA,NA,NA,NA,NA,NA,NA,NA,NA,NA
ebaec,"""Falsch""-Screen",canvas.Screen,3_0_6_0_2_1_2,NA,NA,skipped,NA,765701,NA,NA,765690.14,765702,2023-05-12T13:48:42Z,765706.76,NULL,Vorwurf,mashtaka,s,msukumo,mtangulizi,uenyekiti,NA,dfs,NA,6,NA,NA,NA,NA,NA,NA,NA,NA,NA,NA,NA,NA,NA,NA,NA,NA,NA,NA,NA
ebaec,shallow,flow.Sequence,3_0_6_0_2_1,NA,NA,completion,9448.8200000001,756240,756224.66,756241.32,765690.14,765702,2023-05-12T13:48:42Z,765706.76,NULL,Vorwurf,mashtaka,s,msukumo,mtangulizi,uenyekiti,NA,dfs,NA,6,NA,NA,NA,NA,NA,NA,NA,NA,NA,NA,NA,NA,NA,NA,NA,NA,NA,NA,NA
ebaec,task,flow.Sequence,3_0_6_0_2,NA,NA,completion,9448.8200000001,756239,756224.66,756241.32,765690.14,765703,2023-05-12T13:48:42Z,765706.76,NULL,Vorwurf,mashtaka,s,msukumo,mtangulizi,uenyekiti,NA,dfs,NA,6,NA,NA,NA,NA,NA,NA,NA,NA,NA,NA,NA,NA,NA,NA,NA,NA,NA,NA,NA
ebaec,deep,flow.Sequence,3_0_6_0_3_0,NA,NA,skipped,NA,765703,NA,NA,765690.14,765703,2023-05-12T13:48:42Z,765706.76,NULL,Übersicht,kilindo,s,mgusano,chipukizi,kulinganisha,NA,dfs,NA,6,NA,NA,NA,NA,NA,NA,NA,NA,NA,NA,NA,NA,NA,NA,NA,NA,NA,NA,NA
ebaec,Shallow Question,html.Page,3_0_6_0_3_1_0,NA,NA,form submission,4097.24,765705,765690.14,765706.76,769804,769804,2023-05-12T13:48:46Z,769806.24,NULL,Übersicht,kilindo,s,mgusano,chipukizi,kulinganisha,kilindo,NA,NA,6,NA,NA,NA,NA,NA,NA,NA,NA,NA,NA,NA,NA,NA,NA,NA,NA,NA,NA,NA
ebaec,"""Richtig""-Screen",canvas.Screen,3_0_6_0_3_1_1,NA,NA,timeout,4999.3,769809,769801.56,769806.24,774788.88,774791,2023-05-12T13:48:51Z,774805.54,NULL,Übersicht,kilindo,s,mgusano,chipukizi,kulinganisha,NA,dfs,1,6,NA,NA,NA,NA,NA,NA,NA,NA,NA,NA,NA,NA,NA,NA,NA,NA,NA,NA,NA
ebaec,"""Falsch""-Screen",canvas.Screen,3_0_6_0_3_1_2,NA,NA,skipped,NA,774796,NA,NA,774788.88,774796,2023-05-12T13:48:51Z,774805.54,NULL,Übersicht,kilindo,s,mgusano,chipukizi,kulinganisha,NA,dfs,NA,6,NA,NA,NA,NA,NA,NA,NA,NA,NA,NA,NA,NA,NA,NA,NA,NA,NA,NA,NA
ebaec,shallow,flow.Sequence,3_0_6_0_3_1,NA,NA,completion,9082.12,765705,765690.14,765706.76,774788.88,774796,2023-05-12T13:48:51Z,774805.54,NULL,Übersicht,kilindo,s,mgusano,chipukizi,kulinganisha,NA,dfs,NA,6,NA,NA,NA,NA,NA,NA,NA,NA,NA,NA,NA,NA,NA,NA,NA,NA,NA,NA,NA
ebaec,task,flow.Sequence,3_0_6_0_3,NA,NA,completion,9082.12,765703,765690.14,765706.76,774788.88,774797,2023-05-12T13:48:51Z,774805.54,NULL,Übersicht,kilindo,s,mgusano,chipukizi,kulinganisha,NA,dfs,NA,6,NA,NA,NA,NA,NA,NA,NA,NA,NA,NA,NA,NA,NA,NA,NA,NA,NA,NA,NA
ebaec,deep,flow.Sequence,3_0_6_0_4_0,NA,NA,skipped,NA,774797,NA,NA,774788.88,774797,2023-05-12T13:48:51Z,774805.54,NULL,Körper,kiwiliwili,s,mapambano,mpatanishi,kiolezo,NA,dfs,NA,6,NA,NA,NA,NA,NA,NA,NA,NA,NA,NA,NA,NA,NA,NA,NA,NA,NA,NA,NA
ebaec,Shallow Question,html.Page,3_0_6_0_4_1_0,NA,NA,form submission,4332.46,774797,774788.88,774805.54,779138,779138,2023-05-12T13:48:55Z,779138.4,NULL,Körper,kiwiliwili,s,mapambano,mpatanishi,kiolezo,kiwiliwili,NA,NA,6,NA,NA,NA,NA,NA,NA,NA,NA,NA,NA,NA,NA,NA,NA,NA,NA,NA,NA,NA
ebaec,"""Richtig""-Screen",canvas.Screen,3_0_6_0_4_1_1,NA,NA,timeout,4999.36,779145,779129.82,779138.4,784121.18,784123,2023-05-12T13:49:00Z,784137.76,NULL,Körper,kiwiliwili,s,mapambano,mpatanishi,kiolezo,NA,dfs,1,6,NA,NA,NA,NA,NA,NA,NA,NA,NA,NA,NA,NA,NA,NA,NA,NA,NA,NA,NA
ebaec,"""Falsch""-Screen",canvas.Screen,3_0_6_0_4_1_2,NA,NA,skipped,NA,784132,NA,NA,784121.18,784132,2023-05-12T13:49:00Z,784137.76,NULL,Körper,kiwiliwili,s,mapambano,mpatanishi,kiolezo,NA,dfs,NA,6,NA,NA,NA,NA,NA,NA,NA,NA,NA,NA,NA,NA,NA,NA,NA,NA,NA,NA,NA
ebaec,shallow,flow.Sequence,3_0_6_0_4_1,NA,NA,completion,9315.64,774797,774788.88,774805.54,784121.18,784133,2023-05-12T13:49:00Z,784137.76,NULL,Körper,kiwiliwili,s,mapambano,mpatanishi,kiolezo,NA,dfs,NA,6,NA,NA,NA,NA,NA,NA,NA,NA,NA,NA,NA,NA,NA,NA,NA,NA,NA,NA,NA
ebaec,task,flow.Sequence,3_0_6_0_4,NA,NA,completion,9315.64,774797,774788.88,774805.54,784121.18,784134,2023-05-12T13:49:00Z,784137.76,NULL,Körper,kiwiliwili,s,mapambano,mpatanishi,kiolezo,NA,dfs,NA,6,NA,NA,NA,NA,NA,NA,NA,NA,NA,NA,NA,NA,NA,NA,NA,NA,NA,NA,NA
ebaec,Deep Question,html.Page,3_0_6_0_5_0_0,NA,NA,form submission,5084.24,784135,784121.18,784137.76,789222,789223,2023-05-12T13:49:05Z,789220.38,NULL,Lawine,banguko,d,NA,NA,NA,ka,NA,NA,6,NA,NA,NA,NA,NA,NA,NA,NA,NA,NA,NA,NA,NA,NA,NA,NA,NA,NA,NA
ebaec,"""Richtig""-Screen",canvas.Screen,3_0_6_0_5_0_1,NA,NA,skipped,NA,789226,NA,NA,789222,789226,2023-05-12T13:49:05Z,789220.38,NULL,Lawine,banguko,d,NA,NA,NA,NA,dfs,NA,6,NA,NA,NA,NA,NA,NA,NA,NA,NA,NA,NA,NA,NA,NA,NA,NA,NA,NA,NA
ebaec,"""Falsch""-Screen",canvas.Screen,3_0_6_0_5_0_2,NA,NA,timeout,4999.4399999999,789229,789217.34,789220.38,794203.16,794205,2023-05-12T13:49:10Z,794219.82,NULL,Lawine,banguko,d,NA,NA,NA,NA,dfs,0,6,NA,NA,NA,NA,NA,NA,NA,NA,NA,NA,NA,NA,NA,NA,NA,NA,NA,NA,NA
ebaec,deep,flow.Sequence,3_0_6_0_5_0,NA,NA,completion,10065.4,784135,784121.18,784137.76,794203.16,794206,2023-05-12T13:49:10Z,794219.82,NULL,Lawine,banguko,d,NA,NA,NA,NA,dfs,NA,6,NA,NA,NA,NA,NA,NA,NA,NA,NA,NA,NA,NA,NA,NA,NA,NA,NA,NA,NA
ebaec,shallow,flow.Sequence,3_0_6_0_5_1,NA,NA,skipped,NA,794207,NA,NA,794203.16,794207,2023-05-12T13:49:10Z,794219.82,NULL,Lawine,banguko,d,NA,NA,NA,NA,dfs,NA,6,NA,NA,NA,NA,NA,NA,NA,NA,NA,NA,NA,NA,NA,NA,NA,NA,NA,NA,NA
ebaec,task,flow.Sequence,3_0_6_0_5,NA,NA,completion,10065.4,784134,784121.18,784137.76,794203.16,794208,2023-05-12T13:49:10Z,794219.82,NULL,Lawine,banguko,d,NA,NA,NA,NA,dfs,NA,6,NA,NA,NA,NA,NA,NA,NA,NA,NA,NA,NA,NA,NA,NA,NA,NA,NA,NA,NA
ebaec,Deep Question,html.Page,3_0_6_0_6_0_0,NA,NA,form submission,5578.1800000001,794209,794203.16,794219.82,799798,799798,2023-05-12T13:49:16Z,799802.44,NULL,System,maongozi,d,NA,NA,NA,as,NA,NA,6,NA,NA,NA,NA,NA,NA,NA,NA,NA,NA,NA,NA,NA,NA,NA,NA,NA,NA,NA
ebaec,"""Richtig""-Screen",canvas.Screen,3_0_6_0_6_0_1,NA,NA,skipped,NA,799804,NA,NA,799798,799804,2023-05-12T13:49:16Z,799802.44,NULL,System,maongozi,d,NA,NA,NA,NA,dfs,NA,6,NA,NA,NA,NA,NA,NA,NA,NA,NA,NA,NA,NA,NA,NA,NA,NA,NA,NA,NA
ebaec,"""Falsch""-Screen",canvas.Screen,3_0_6_0_6_0_2,NA,NA,timeout,4999.28,799809,799784.86,799802.44,804785.06,804786,2023-05-12T13:49:21Z,804801.72,NULL,System,maongozi,d,NA,NA,NA,NA,dfs,0,6,NA,NA,NA,NA,NA,NA,NA,NA,NA,NA,NA,NA,NA,NA,NA,NA,NA,NA,NA
ebaec,deep,flow.Sequence,3_0_6_0_6_0,NA,NA,completion,10565.24,794209,794203.16,794219.82,804785.06,804787,2023-05-12T13:49:21Z,804801.72,NULL,System,maongozi,d,NA,NA,NA,NA,dfs,NA,6,NA,NA,NA,NA,NA,NA,NA,NA,NA,NA,NA,NA,NA,NA,NA,NA,NA,NA,NA
ebaec,shallow,flow.Sequence,3_0_6_0_6_1,NA,NA,skipped,NA,804787,NA,NA,804785.06,804787,2023-05-12T13:49:21Z,804801.72,NULL,System,maongozi,d,NA,NA,NA,NA,dfs,NA,6,NA,NA,NA,NA,NA,NA,NA,NA,NA,NA,NA,NA,NA,NA,NA,NA,NA,NA,NA
ebaec,task,flow.Sequence,3_0_6_0_6,NA,NA,completion,10565.24,794209,794203.16,794219.82,804785.06,804787,2023-05-12T13:49:21Z,804801.72,NULL,System,maongozi,d,NA,NA,NA,NA,dfs,NA,6,NA,NA,NA,NA,NA,NA,NA,NA,NA,NA,NA,NA,NA,NA,NA,NA,NA,NA,NA
ebaec,Deep Question,html.Page,3_0_6_0_7_0_0,NA,NA,form submission,7085.28,804787,804785.06,804801.72,811887,811889,2023-05-12T13:49:28Z,811900.8,NULL,Papier,karatasi,d,NA,NA,NA,karatasi,NA,NA,6,NA,NA,NA,NA,NA,NA,NA,NA,NA,NA,NA,NA,NA,NA,NA,NA,NA,NA,NA
ebaec,"""Richtig""-Screen",canvas.Screen,3_0_6_0_7_0_1,NA,NA,timeout,4999.48,811899,811875.4,811900.8,816883.66,816885,2023-05-12T13:49:33Z,816900.28,NULL,Papier,karatasi,d,NA,NA,NA,NA,dfs,1,6,NA,NA,NA,NA,NA,NA,NA,NA,NA,NA,NA,NA,NA,NA,NA,NA,NA,NA,NA
ebaec,"""Falsch""-Screen",canvas.Screen,3_0_6_0_7_0_2,NA,NA,skipped,NA,816893,NA,NA,816883.66,816893,2023-05-12T13:49:33Z,816900.28,NULL,Papier,karatasi,d,NA,NA,NA,NA,dfs,NA,6,NA,NA,NA,NA,NA,NA,NA,NA,NA,NA,NA,NA,NA,NA,NA,NA,NA,NA,NA
ebaec,deep,flow.Sequence,3_0_6_0_7_0,NA,NA,completion,12081.94,804787,804785.06,804801.72,816883.66,816894,2023-05-12T13:49:33Z,816900.28,NULL,Papier,karatasi,d,NA,NA,NA,NA,dfs,NA,6,NA,NA,NA,NA,NA,NA,NA,NA,NA,NA,NA,NA,NA,NA,NA,NA,NA,NA,NA
ebaec,shallow,flow.Sequence,3_0_6_0_7_1,NA,NA,skipped,NA,816894,NA,NA,816883.66,816894,2023-05-12T13:49:33Z,816900.28,NULL,Papier,karatasi,d,NA,NA,NA,NA,dfs,NA,6,NA,NA,NA,NA,NA,NA,NA,NA,NA,NA,NA,NA,NA,NA,NA,NA,NA,NA,NA
