observation,sender,sender_type,sender_id,response,response_action,ended_on,duration,time_run,time_render,time_show,time_end,time_commit,timestamp,time_switch,distractors,german,swahili,enc,distractor1,distractor2,distractor3,response_2,x,correct,x_2,url_vp,url_sess,meta_labjs_version,meta_location,meta_user_agent,meta_platform,meta_language,meta_locale,meta_time_zone,meta_timezone_offset,meta_screen_width,meta_screen_height,meta_scroll_width,meta_scroll_height,meta_window_inner_width,meta_window_inner_height,meta_device_pixel_ratio,meta_labjs_build_flavor,meta_labjs_build_commit
d9c5c,Introduction general,canvas.Screen,0,weiter,keypress(q),response,227443,135,139,167,227582,227642,2023-03-13T10:59:59Z,227685,NULL,NA,NA,NA,NA,NA,NA,NA,NA,NA,NA,201,1,20.2.4,https://neurocog.fernuni.ch/studies/vweber/sfink/encoding_immediate/index.html?vp=201&sess=1,"Mozilla/5.0 (Macintosh; Intel Mac OS X 10_15_7) AppleWebKit/605.1.15 (KHTML, like Gecko) Version/16.3 Safari/605.1.15",MacIntel,de-DE,de-DE,Europe/Zurich,-60,1792,1120,1792,938,1792,986,2,production,f5b4a49f956347addd546a832a3327688c2c0fef
d9c5c,Introduction practice,canvas.Screen,1_0,NA,keypress(Space),response,10858,227642,227652,227685,238510,238569,2023-03-13T11:00:09Z,238620,NULL,NA,NA,NA,NA,NA,NA,NA,NA,NA,NA,NA,NA,NA,NA,NA,NA,NA,NA,NA,NA,NA,NA,NA,NA,NA,NA,NA,NA,NA
d9c5c,Deep Question,html.Page,1_1_0_0_0,NA,NA,form submission,4888,238570,238586,238620,243508,243508,2023-03-13T11:00:14Z,243552,"c(""distractor1"", ""distractor2"", ""distractor3"")",Schatten,kivuli,d,NA,NA,NA,zubar,NA,NA,NA,NA,NA,NA,NA,NA,NA,NA,NA,NA,NA,NA,NA,NA,NA,NA,NA,NA,NA,NA
d9c5c,"""Richtig""-Screen",canvas.Screen,1_1_0_0_1,NA,NA,skipped,NA,243509,NA,NA,243508,243509,2023-03-13T11:00:14Z,243552,"c(""distractor1"", ""distractor2"", ""distractor3"")",Schatten,kivuli,d,NA,NA,NA,NA,NA,NA,NA,NA,NA,NA,NA,NA,NA,NA,NA,NA,NA,NA,NA,NA,NA,NA,NA,NA,NA,NA
d9c5c,"""Falsch""-Screen",canvas.Screen,1_1_0_0_2,NA,NA,timeout,5002,243510,243521,243552,248522,248523,2023-03-13T11:00:19Z,248554,"c(""distractor1"", ""distractor2"", ""distractor3"")",Schatten,kivuli,d,NA,NA,NA,NA,NA,0,NA,NA,NA,NA,NA,NA,NA,NA,NA,NA,NA,NA,NA,NA,NA,NA,NA,NA,NA,NA
d9c5c,deep,flow.Sequence,1_1_0_0,NA,NA,completion,9902,238570,238586,238620,248522,248523,2023-03-13T11:00:19Z,248554,"c(""distractor1"", ""distractor2"", ""distractor3"")",Schatten,kivuli,d,NA,NA,NA,NA,NA,NA,NA,NA,NA,NA,NA,NA,NA,NA,NA,NA,NA,NA,NA,NA,NA,NA,NA,NA,NA,NA
d9c5c,shallow,flow.Sequence,1_1_0_1,NA,NA,skipped,NA,248523,NA,NA,248522,248523,2023-03-13T11:00:19Z,248554,"c(""distractor1"", ""distractor2"", ""distractor3"")",Schatten,kivuli,d,NA,NA,NA,NA,NA,NA,NA,NA,NA,NA,NA,NA,NA,NA,NA,NA,NA,NA,NA,NA,NA,NA,NA,NA,NA,NA
d9c5c,task,flow.Sequence,1_1_0,NA,NA,completion,9902,238570,238586,238620,248522,248523,2023-03-13T11:00:19Z,248554,"c(""distractor1"", ""distractor2"", ""distractor3"")",Schatten,kivuli,d,NA,NA,NA,NA,NA,NA,NA,NA,NA,NA,NA,NA,NA,NA,NA,NA,NA,NA,NA,NA,NA,NA,NA,NA,NA,NA
d9c5c,Deep Question,html.Page,1_1_1_0_0,NA,NA,form submission,5837,248524,248522,248554,254391,254391,2023-03-13T11:00:25Z,254463,"c(""distractor1"", ""distractor2"", ""distractor3"")",Gesundheit,salama,d,NA,NA,NA,helta,NA,NA,NA,NA,NA,NA,NA,NA,NA,NA,NA,NA,NA,NA,NA,NA,NA,NA,NA,NA,NA,NA
d9c5c,"""Richtig""-Screen",canvas.Screen,1_1_1_0_1,NA,NA,skipped,NA,254392,NA,NA,254391,254392,2023-03-13T11:00:25Z,254463,"c(""distractor1"", ""distractor2"", ""distractor3"")",Gesundheit,salama,d,NA,NA,NA,NA,NA,NA,NA,NA,NA,NA,NA,NA,NA,NA,NA,NA,NA,NA,NA,NA,NA,NA,NA,NA,NA,NA
d9c5c,"""Falsch""-Screen",canvas.Screen,1_1_1_0_2,NA,NA,timeout,4998,254393,254429,254463,259428,259428,2023-03-13T11:00:30Z,259461,"c(""distractor1"", ""distractor2"", ""distractor3"")",Gesundheit,salama,d,NA,NA,NA,NA,NA,0,NA,NA,NA,NA,NA,NA,NA,NA,NA,NA,NA,NA,NA,NA,NA,NA,NA,NA,NA,NA
d9c5c,deep,flow.Sequence,1_1_1_0,NA,NA,completion,10874,248524,248522,248554,259428,259429,2023-03-13T11:00:30Z,259461,"c(""distractor1"", ""distractor2"", ""distractor3"")",Gesundheit,salama,d,NA,NA,NA,NA,NA,NA,NA,NA,NA,NA,NA,NA,NA,NA,NA,NA,NA,NA,NA,NA,NA,NA,NA,NA,NA,NA
d9c5c,shallow,flow.Sequence,1_1_1_1,NA,NA,skipped,NA,259429,NA,NA,259428,259429,2023-03-13T11:00:30Z,259461,"c(""distractor1"", ""distractor2"", ""distractor3"")",Gesundheit,salama,d,NA,NA,NA,NA,NA,NA,NA,NA,NA,NA,NA,NA,NA,NA,NA,NA,NA,NA,NA,NA,NA,NA,NA,NA,NA,NA
d9c5c,task,flow.Sequence,1_1_1,NA,NA,completion,10874,248523,248522,248554,259428,259429,2023-03-13T11:00:30Z,259461,"c(""distractor1"", ""distractor2"", ""distractor3"")",Gesundheit,salama,d,NA,NA,NA,NA,NA,NA,NA,NA,NA,NA,NA,NA,NA,NA,NA,NA,NA,NA,NA,NA,NA,NA,NA,NA,NA,NA
d9c5c,Deep Question,html.Page,1_1_2_0_0,NA,NA,form submission,5803,259429,259428,259461,265264,265264,2023-03-13T11:00:36Z,265305,"c(""distractor1"", ""distractor2"", ""distractor3"")",Qualität,mtindo,d,NA,NA,NA,uiu,NA,NA,NA,NA,NA,NA,NA,NA,NA,NA,NA,NA,NA,NA,NA,NA,NA,NA,NA,NA,NA,NA
d9c5c,"""Richtig""-Screen",canvas.Screen,1_1_2_0_1,NA,NA,skipped,NA,265265,NA,NA,265264,265265,2023-03-13T11:00:36Z,265305,"c(""distractor1"", ""distractor2"", ""distractor3"")",Qualität,mtindo,d,NA,NA,NA,NA,NA,NA,NA,NA,NA,NA,NA,NA,NA,NA,NA,NA,NA,NA,NA,NA,NA,NA,NA,NA,NA,NA
d9c5c,"""Falsch""-Screen",canvas.Screen,1_1_2_0_2,NA,NA,timeout,5005,265266,265271,265305,270276,270276,2023-03-13T11:00:41Z,270310,"c(""distractor1"", ""distractor2"", ""distractor3"")",Qualität,mtindo,d,NA,NA,NA,NA,NA,0,NA,NA,NA,NA,NA,NA,NA,NA,NA,NA,NA,NA,NA,NA,NA,NA,NA,NA,NA,NA
d9c5c,deep,flow.Sequence,1_1_2_0,NA,NA,completion,10815,259429,259428,259461,270276,270277,2023-03-13T11:00:41Z,270310,"c(""distractor1"", ""distractor2"", ""distractor3"")",Qualität,mtindo,d,NA,NA,NA,NA,NA,NA,NA,NA,NA,NA,NA,NA,NA,NA,NA,NA,NA,NA,NA,NA,NA,NA,NA,NA,NA,NA
d9c5c,shallow,flow.Sequence,1_1_2_1,NA,NA,skipped,NA,270277,NA,NA,270276,270277,2023-03-13T11:00:41Z,270310,"c(""distractor1"", ""distractor2"", ""distractor3"")",Qualität,mtindo,d,NA,NA,NA,NA,NA,NA,NA,NA,NA,NA,NA,NA,NA,NA,NA,NA,NA,NA,NA,NA,NA,NA,NA,NA,NA,NA
d9c5c,task,flow.Sequence,1_1_2,NA,NA,completion,10815,259429,259428,259461,270276,270277,2023-03-13T11:00:41Z,270310,"c(""distractor1"", ""distractor2"", ""distractor3"")",Qualität,mtindo,d,NA,NA,NA,NA,NA,NA,NA,NA,NA,NA,NA,NA,NA,NA,NA,NA,NA,NA,NA,NA,NA,NA,NA,NA,NA,NA
d9c5c,deep,flow.Sequence,1_1_3_0,NA,NA,skipped,NA,270277,NA,NA,270276,270278,2023-03-13T11:00:41Z,270310,"c(""distractor1"", ""distractor2"", ""distractor3"")",Kritik,lawama,s,dereva,nafasi,mawazo,NA,NA,NA,NA,NA,NA,NA,NA,NA,NA,NA,NA,NA,NA,NA,NA,NA,NA,NA,NA,NA,NA,NA
d9c5c,Shallow Question,html.Page,1_1_3_1_0,NA,NA,form submission,6447,270278,270276,270310,276757,276757,2023-03-13T11:00:48Z,276787,"c(""distractor1"", ""distractor2"", ""distractor3"")",Kritik,lawama,s,dereva,nafasi,mawazo,lawama,NA,NA,NA,NA,NA,NA,NA,NA,NA,NA,NA,NA,NA,NA,NA,NA,NA,NA,NA,NA,NA,NA
d9c5c,"""Richtig""-Screen",canvas.Screen,1_1_3_1_1,NA,NA,timeout,5013,276758,276760,276787,281767,281767,2023-03-13T11:00:53Z,281800,"c(""distractor1"", ""distractor2"", ""distractor3"")",Kritik,lawama,s,dereva,nafasi,mawazo,NA,NA,1,NA,NA,NA,NA,NA,NA,NA,NA,NA,NA,NA,NA,NA,NA,NA,NA,NA,NA,NA,NA
d9c5c,"""Falsch""-Screen",canvas.Screen,1_1_3_1_2,NA,NA,skipped,NA,281769,NA,NA,281767,281769,2023-03-13T11:00:53Z,281800,"c(""distractor1"", ""distractor2"", ""distractor3"")",Kritik,lawama,s,dereva,nafasi,mawazo,NA,NA,NA,NA,NA,NA,NA,NA,NA,NA,NA,NA,NA,NA,NA,NA,NA,NA,NA,NA,NA,NA,NA
d9c5c,shallow,flow.Sequence,1_1_3_1,NA,NA,completion,11457,270278,270276,270310,281767,281769,2023-03-13T11:00:53Z,281800,"c(""distractor1"", ""distractor2"", ""distractor3"")",Kritik,lawama,s,dereva,nafasi,mawazo,NA,NA,NA,NA,NA,NA,NA,NA,NA,NA,NA,NA,NA,NA,NA,NA,NA,NA,NA,NA,NA,NA,NA
d9c5c,task,flow.Sequence,1_1_3,NA,NA,completion,11457,270277,270276,270310,281767,281769,2023-03-13T11:00:53Z,281800,"c(""distractor1"", ""distractor2"", ""distractor3"")",Kritik,lawama,s,dereva,nafasi,mawazo,NA,NA,NA,NA,NA,NA,NA,NA,NA,NA,NA,NA,NA,NA,NA,NA,NA,NA,NA,NA,NA,NA,NA
d9c5c,deep,flow.Sequence,1_1_4_0,NA,NA,skipped,NA,281770,NA,NA,281767,281770,2023-03-13T11:00:53Z,281800,"c(""distractor1"", ""distractor2"", ""distractor3"")",Gegenwart,hadhara,s,katiba,jokofu,mikopo,NA,NA,NA,NA,NA,NA,NA,NA,NA,NA,NA,NA,NA,NA,NA,NA,NA,NA,NA,NA,NA,NA,NA
d9c5c,Shallow Question,html.Page,1_1_4_1_0,NA,NA,form submission,5636,281770,281767,281800,287436,287436,2023-03-13T11:00:58Z,287477,"c(""distractor1"", ""distractor2"", ""distractor3"")",Gegenwart,hadhara,s,katiba,jokofu,mikopo,katiba,NA,NA,NA,NA,NA,NA,NA,NA,NA,NA,NA,NA,NA,NA,NA,NA,NA,NA,NA,NA,NA,NA
d9c5c,"""Richtig""-Screen",canvas.Screen,1_1_4_1_1,NA,NA,skipped,NA,287437,NA,NA,287436,287438,2023-03-13T11:00:58Z,287477,"c(""distractor1"", ""distractor2"", ""distractor3"")",Gegenwart,hadhara,s,katiba,jokofu,mikopo,NA,NA,NA,NA,NA,NA,NA,NA,NA,NA,NA,NA,NA,NA,NA,NA,NA,NA,NA,NA,NA,NA,NA
d9c5c,"""Falsch""-Screen",canvas.Screen,1_1_4_1_2,NA,NA,timeout,5009,287438,287457,287477,292452,292452,2023-03-13T11:01:03Z,292486,"c(""distractor1"", ""distractor2"", ""distractor3"")",Gegenwart,hadhara,s,katiba,jokofu,mikopo,NA,NA,0,NA,NA,NA,NA,NA,NA,NA,NA,NA,NA,NA,NA,NA,NA,NA,NA,NA,NA,NA,NA
d9c5c,shallow,flow.Sequence,1_1_4_1,NA,NA,completion,10652,281770,281767,281800,292452,292452,2023-03-13T11:01:03Z,292486,"c(""distractor1"", ""distractor2"", ""distractor3"")",Gegenwart,hadhara,s,katiba,jokofu,mikopo,NA,NA,NA,NA,NA,NA,NA,NA,NA,NA,NA,NA,NA,NA,NA,NA,NA,NA,NA,NA,NA,NA,NA
d9c5c,task,flow.Sequence,1_1_4,NA,NA,completion,10652,281770,281767,281800,292452,292452,2023-03-13T11:01:03Z,292486,"c(""distractor1"", ""distractor2"", ""distractor3"")",Gegenwart,hadhara,s,katiba,jokofu,mikopo,NA,NA,NA,NA,NA,NA,NA,NA,NA,NA,NA,NA,NA,NA,NA,NA,NA,NA,NA,NA,NA,NA,NA
d9c5c,deep,flow.Sequence,1_1_5_0,NA,NA,skipped,NA,292453,NA,NA,292452,292453,2023-03-13T11:01:03Z,292486,"c(""distractor1"", ""distractor2"", ""distractor3"")",Rückhalt,msaada,s,muhula,auwali,kiwimbe,NA,NA,NA,NA,NA,NA,NA,NA,NA,NA,NA,NA,NA,NA,NA,NA,NA,NA,NA,NA,NA,NA,NA
d9c5c,Shallow Question,html.Page,1_1_5_1_0,NA,NA,form submission,5868,292453,292452,292486,298354,298355,2023-03-13T11:01:09Z,298394,"c(""distractor1"", ""distractor2"", ""distractor3"")",Rückhalt,msaada,s,muhula,auwali,kiwimbe,auwali,NA,NA,NA,NA,NA,NA,NA,NA,NA,NA,NA,NA,NA,NA,NA,NA,NA,NA,NA,NA,NA,NA
d9c5c,"""Richtig""-Screen",canvas.Screen,1_1_5_1_1,NA,NA,skipped,NA,298356,NA,NA,298354,298356,2023-03-13T11:01:09Z,298394,"c(""distractor1"", ""distractor2"", ""distractor3"")",Rückhalt,msaada,s,muhula,auwali,kiwimbe,NA,NA,NA,NA,NA,NA,NA,NA,NA,NA,NA,NA,NA,NA,NA,NA,NA,NA,NA,NA,NA,NA,NA
d9c5c,"""Falsch""-Screen",canvas.Screen,1_1_5_1_2,NA,NA,timeout,5009,298357,298374,298394,303370,303371,2023-03-13T11:01:14Z,303403,"c(""distractor1"", ""distractor2"", ""distractor3"")",Rückhalt,msaada,s,muhula,auwali,kiwimbe,NA,NA,0,NA,NA,NA,NA,NA,NA,NA,NA,NA,NA,NA,NA,NA,NA,NA,NA,NA,NA,NA,NA
d9c5c,shallow,flow.Sequence,1_1_5_1,NA,NA,completion,10884,292453,292452,292486,303370,303371,2023-03-13T11:01:14Z,303403,"c(""distractor1"", ""distractor2"", ""distractor3"")",Rückhalt,msaada,s,muhula,auwali,kiwimbe,NA,NA,NA,NA,NA,NA,NA,NA,NA,NA,NA,NA,NA,NA,NA,NA,NA,NA,NA,NA,NA,NA,NA
d9c5c,task,flow.Sequence,1_1_5,NA,NA,completion,10884,292452,292452,292486,303370,303372,2023-03-13T11:01:14Z,303403,"c(""distractor1"", ""distractor2"", ""distractor3"")",Rückhalt,msaada,s,muhula,auwali,kiwimbe,NA,NA,NA,NA,NA,NA,NA,NA,NA,NA,NA,NA,NA,NA,NA,NA,NA,NA,NA,NA,NA,NA,NA
d9c5c,block,flow.Loop,1_1,NA,NA,completion,64750,238570,238586,238620,303370,303372,2023-03-13T11:01:14Z,303403,"c(""distractor1"", ""distractor2"", ""distractor3"")",NA,NA,NA,NA,NA,NA,NA,NA,NA,NA,NA,NA,NA,NA,NA,NA,NA,NA,NA,NA,NA,NA,NA,NA,NA,NA,NA,NA,NA
d9c5c,Practice,flow.Sequence,1,NA,NA,completion,75685,227642,227652,227685,303370,303372,2023-03-13T11:01:14Z,303403,NULL,NA,NA,NA,NA,NA,NA,NA,NA,NA,NA,NA,NA,NA,NA,NA,NA,NA,NA,NA,NA,NA,NA,NA,NA,NA,NA,NA,NA,NA
d9c5c,Experiment start,canvas.Screen,2,weiter,keypress(q),response,69080,303372,303370,303403,372450,372514,2023-03-13T11:02:23Z,372616,NULL,NA,NA,NA,NA,NA,NA,NA,NA,NA,NA,NA,NA,NA,NA,NA,NA,NA,NA,NA,NA,NA,NA,NA,NA,NA,NA,NA,NA,NA
d9c5c,Deep Question,html.Page,3_0_0_0_0_0_0,NA,NA,form submission,3578,372575,372583,372616,376194,376194,2023-03-13T11:02:27Z,376231,NULL,Notfall,dharura,d,NA,NA,NA,zura,NA,NA,0,NA,NA,NA,NA,NA,NA,NA,NA,NA,NA,NA,NA,NA,NA,NA,NA,NA,NA,NA
d9c5c,"""Richtig""-Screen",canvas.Screen,3_0_0_0_0_0_1,NA,NA,skipped,NA,376195,NA,NA,376194,376195,2023-03-13T11:02:27Z,376231,NULL,Notfall,dharura,d,NA,NA,NA,NA,sdf,NA,0,NA,NA,NA,NA,NA,NA,NA,NA,NA,NA,NA,NA,NA,NA,NA,NA,NA,NA,NA
d9c5c,"""Falsch""-Screen",canvas.Screen,3_0_0_0_0_0_2,NA,NA,timeout,4997,376196,376201,376231,381195,381197,2023-03-13T11:02:32Z,381228,NULL,Notfall,dharura,d,NA,NA,NA,NA,sdf,0,0,NA,NA,NA,NA,NA,NA,NA,NA,NA,NA,NA,NA,NA,NA,NA,NA,NA,NA,NA
d9c5c,deep,flow.Sequence,3_0_0_0_0_0,NA,NA,completion,8579,372575,372583,372616,381195,381197,2023-03-13T11:02:32Z,381228,NULL,Notfall,dharura,d,NA,NA,NA,NA,sdf,NA,0,NA,NA,NA,NA,NA,NA,NA,NA,NA,NA,NA,NA,NA,NA,NA,NA,NA,NA,NA
d9c5c,shallow,flow.Sequence,3_0_0_0_0_1,NA,NA,skipped,NA,381197,NA,NA,381195,381198,2023-03-13T11:02:32Z,381228,NULL,Notfall,dharura,d,NA,NA,NA,NA,sdf,NA,0,NA,NA,NA,NA,NA,NA,NA,NA,NA,NA,NA,NA,NA,NA,NA,NA,NA,NA,NA
d9c5c,task,flow.Sequence,3_0_0_0_0,NA,NA,completion,8579,372575,372583,372616,381195,381198,2023-03-13T11:02:32Z,381228,NULL,Notfall,dharura,d,NA,NA,NA,NA,sdf,NA,0,NA,NA,NA,NA,NA,NA,NA,NA,NA,NA,NA,NA,NA,NA,NA,NA,NA,NA,NA
d9c5c,Deep Question,html.Page,3_0_0_0_1_0_0,NA,NA,form submission,10150,381198,381195,381228,391378,391378,2023-03-13T11:02:42Z,391424,NULL,Ausschluss,kutengwa,d,NA,NA,NA,a,NA,NA,0,NA,NA,NA,NA,NA,NA,NA,NA,NA,NA,NA,NA,NA,NA,NA,NA,NA,NA,NA
d9c5c,"""Richtig""-Screen",canvas.Screen,3_0_0_0_1_0_1,NA,NA,skipped,NA,391379,NA,NA,391378,391379,2023-03-13T11:02:42Z,391424,NULL,Ausschluss,kutengwa,d,NA,NA,NA,NA,sdf,NA,0,NA,NA,NA,NA,NA,NA,NA,NA,NA,NA,NA,NA,NA,NA,NA,NA,NA,NA,NA
d9c5c,"""Falsch""-Screen",canvas.Screen,3_0_0_0_1_0_2,NA,NA,timeout,5000,391380,391391,391424,396390,396391,2023-03-13T11:02:47Z,396424,NULL,Ausschluss,kutengwa,d,NA,NA,NA,NA,sdf,0,0,NA,NA,NA,NA,NA,NA,NA,NA,NA,NA,NA,NA,NA,NA,NA,NA,NA,NA,NA
d9c5c,deep,flow.Sequence,3_0_0_0_1_0,NA,NA,completion,15162,381198,381195,381228,396390,396391,2023-03-13T11:02:47Z,396424,NULL,Ausschluss,kutengwa,d,NA,NA,NA,NA,sdf,NA,0,NA,NA,NA,NA,NA,NA,NA,NA,NA,NA,NA,NA,NA,NA,NA,NA,NA,NA,NA
d9c5c,shallow,flow.Sequence,3_0_0_0_1_1,NA,NA,skipped,NA,396391,NA,NA,396390,396391,2023-03-13T11:02:47Z,396424,NULL,Ausschluss,kutengwa,d,NA,NA,NA,NA,sdf,NA,0,NA,NA,NA,NA,NA,NA,NA,NA,NA,NA,NA,NA,NA,NA,NA,NA,NA,NA,NA
d9c5c,task,flow.Sequence,3_0_0_0_1,NA,NA,completion,15162,381198,381195,381228,396390,396391,2023-03-13T11:02:47Z,396424,NULL,Ausschluss,kutengwa,d,NA,NA,NA,NA,sdf,NA,0,NA,NA,NA,NA,NA,NA,NA,NA,NA,NA,NA,NA,NA,NA,NA,NA,NA,NA,NA
d9c5c,deep,flow.Sequence,3_0_0_0_2_0,NA,NA,skipped,NA,396392,NA,NA,396390,396392,2023-03-13T11:02:47Z,396424,NULL,Wohlstand,mafanikio,s,chimbuko,kumbuko,mapwaji,NA,sdf,NA,0,NA,NA,NA,NA,NA,NA,NA,NA,NA,NA,NA,NA,NA,NA,NA,NA,NA,NA,NA
d9c5c,Shallow Question,html.Page,3_0_0_0_2_1_0,NA,NA,form submission,11545,396392,396390,396424,407969,407969,2023-03-13T11:02:59Z,408014,NULL,Wohlstand,mafanikio,s,chimbuko,kumbuko,mapwaji,kumbuko,NA,NA,0,NA,NA,NA,NA,NA,NA,NA,NA,NA,NA,NA,NA,NA,NA,NA,NA,NA,NA,NA
d9c5c,"""Richtig""-Screen",canvas.Screen,3_0_0_0_2_1_1,NA,NA,skipped,NA,407969,NA,NA,407969,407970,2023-03-13T11:02:59Z,408014,NULL,Wohlstand,mafanikio,s,chimbuko,kumbuko,mapwaji,NA,sdf,NA,0,NA,NA,NA,NA,NA,NA,NA,NA,NA,NA,NA,NA,NA,NA,NA,NA,NA,NA,NA
d9c5c,"""Falsch""-Screen",canvas.Screen,3_0_0_0_2_1_2,NA,NA,timeout,5000,407970,407978,408014,412982,412982,2023-03-13T11:03:04Z,413014,NULL,Wohlstand,mafanikio,s,chimbuko,kumbuko,mapwaji,NA,sdf,0,0,NA,NA,NA,NA,NA,NA,NA,NA,NA,NA,NA,NA,NA,NA,NA,NA,NA,NA,NA
d9c5c,shallow,flow.Sequence,3_0_0_0_2_1,NA,NA,completion,16558,396392,396390,396424,412982,412983,2023-03-13T11:03:04Z,413014,NULL,Wohlstand,mafanikio,s,chimbuko,kumbuko,mapwaji,NA,sdf,NA,0,NA,NA,NA,NA,NA,NA,NA,NA,NA,NA,NA,NA,NA,NA,NA,NA,NA,NA,NA
d9c5c,task,flow.Sequence,3_0_0_0_2,NA,NA,completion,16558,396392,396390,396424,412982,412983,2023-03-13T11:03:04Z,413014,NULL,Wohlstand,mafanikio,s,chimbuko,kumbuko,mapwaji,NA,sdf,NA,0,NA,NA,NA,NA,NA,NA,NA,NA,NA,NA,NA,NA,NA,NA,NA,NA,NA,NA,NA
d9c5c,Deep Question,html.Page,3_0_0_0_3_0_0,NA,NA,form submission,2348,412983,412982,413014,415362,415362,2023-03-13T11:03:06Z,415403,NULL,Vergnügen,kichekesho,d,NA,NA,NA,j,NA,NA,0,NA,NA,NA,NA,NA,NA,NA,NA,NA,NA,NA,NA,NA,NA,NA,NA,NA,NA,NA
d9c5c,"""Richtig""-Screen",canvas.Screen,3_0_0_0_3_0_1,NA,NA,skipped,NA,415363,NA,NA,415362,415364,2023-03-13T11:03:06Z,415403,NULL,Vergnügen,kichekesho,d,NA,NA,NA,NA,sdf,NA,0,NA,NA,NA,NA,NA,NA,NA,NA,NA,NA,NA,NA,NA,NA,NA,NA,NA,NA,NA
d9c5c,"""Falsch""-Screen",canvas.Screen,3_0_0_0_3_0_2,NA,NA,timeout,5011,415364,415368,415403,420379,420380,2023-03-13T11:03:11Z,420414,NULL,Vergnügen,kichekesho,d,NA,NA,NA,NA,sdf,0,0,NA,NA,NA,NA,NA,NA,NA,NA,NA,NA,NA,NA,NA,NA,NA,NA,NA,NA,NA
d9c5c,deep,flow.Sequence,3_0_0_0_3_0,NA,NA,completion,7365,412983,412982,413014,420379,420380,2023-03-13T11:03:11Z,420414,NULL,Vergnügen,kichekesho,d,NA,NA,NA,NA,sdf,NA,0,NA,NA,NA,NA,NA,NA,NA,NA,NA,NA,NA,NA,NA,NA,NA,NA,NA,NA,NA
d9c5c,shallow,flow.Sequence,3_0_0_0_3_1,NA,NA,skipped,NA,420380,NA,NA,420379,420380,2023-03-13T11:03:11Z,420414,NULL,Vergnügen,kichekesho,d,NA,NA,NA,NA,sdf,NA,0,NA,NA,NA,NA,NA,NA,NA,NA,NA,NA,NA,NA,NA,NA,NA,NA,NA,NA,NA
d9c5c,task,flow.Sequence,3_0_0_0_3,NA,NA,completion,7365,412983,412982,413014,420379,420380,2023-03-13T11:03:11Z,420414,NULL,Vergnügen,kichekesho,d,NA,NA,NA,NA,sdf,NA,0,NA,NA,NA,NA,NA,NA,NA,NA,NA,NA,NA,NA,NA,NA,NA,NA,NA,NA,NA
d9c5c,deep,flow.Sequence,3_0_0_0_4_0,NA,NA,skipped,NA,420380,NA,NA,420379,420381,2023-03-13T11:03:11Z,420414,NULL,Widerstand,usulubu,s,kusababisha,mwalimu,mwenendo,NA,sdf,NA,0,NA,NA,NA,NA,NA,NA,NA,NA,NA,NA,NA,NA,NA,NA,NA,NA,NA,NA,NA
d9c5c,Shallow Question,html.Page,3_0_0_0_4_1_0,NA,NA,form submission,8551.0000000001,420381,420379,420414,428965,428965,2023-03-13T11:03:20Z,429005,NULL,Widerstand,usulubu,s,kusababisha,mwalimu,mwenendo,usulubu,NA,NA,0,NA,NA,NA,NA,NA,NA,NA,NA,NA,NA,NA,NA,NA,NA,NA,NA,NA,NA,NA
d9c5c,"""Richtig""-Screen",canvas.Screen,3_0_0_0_4_1_1,NA,NA,timeout,5002,428966,428972,429005,433973,433974,2023-03-13T11:03:25Z,434007,NULL,Widerstand,usulubu,s,kusababisha,mwalimu,mwenendo,NA,sdf,1,0,NA,NA,NA,NA,NA,NA,NA,NA,NA,NA,NA,NA,NA,NA,NA,NA,NA,NA,NA
d9c5c,"""Falsch""-Screen",canvas.Screen,3_0_0_0_4_1_2,NA,NA,skipped,NA,433975,NA,NA,433973,433975,2023-03-13T11:03:25Z,434007,NULL,Widerstand,usulubu,s,kusababisha,mwalimu,mwenendo,NA,sdf,NA,0,NA,NA,NA,NA,NA,NA,NA,NA,NA,NA,NA,NA,NA,NA,NA,NA,NA,NA,NA
d9c5c,shallow,flow.Sequence,3_0_0_0_4_1,NA,NA,completion,13559,420381,420379,420414,433973,433975,2023-03-13T11:03:25Z,434007,NULL,Widerstand,usulubu,s,kusababisha,mwalimu,mwenendo,NA,sdf,NA,0,NA,NA,NA,NA,NA,NA,NA,NA,NA,NA,NA,NA,NA,NA,NA,NA,NA,NA,NA
d9c5c,task,flow.Sequence,3_0_0_0_4,NA,NA,completion,13559,420380,420379,420414,433973,433976,2023-03-13T11:03:25Z,434007,NULL,Widerstand,usulubu,s,kusababisha,mwalimu,mwenendo,NA,sdf,NA,0,NA,NA,NA,NA,NA,NA,NA,NA,NA,NA,NA,NA,NA,NA,NA,NA,NA,NA,NA
d9c5c,Deep Question,html.Page,3_0_0_0_5_0_0,NA,NA,form submission,3215.0000000001,433976,433973,434007,437222,437222,2023-03-13T11:03:28Z,437282,NULL,Gelegenheit,wakati,d,NA,NA,NA,g,NA,NA,0,NA,NA,NA,NA,NA,NA,NA,NA,NA,NA,NA,NA,NA,NA,NA,NA,NA,NA,NA
d9c5c,"""Richtig""-Screen",canvas.Screen,3_0_0_0_5_0_1,NA,NA,skipped,NA,437223,NA,NA,437222,437223,2023-03-13T11:03:28Z,437282,NULL,Gelegenheit,wakati,d,NA,NA,NA,NA,sdf,NA,0,NA,NA,NA,NA,NA,NA,NA,NA,NA,NA,NA,NA,NA,NA,NA,NA,NA,NA,NA
d9c5c,"""Falsch""-Screen",canvas.Screen,3_0_0_0_5_0_2,NA,NA,timeout,5002,437224,437245,437282,442251,442251,2023-03-13T11:03:33Z,442284,NULL,Gelegenheit,wakati,d,NA,NA,NA,NA,sdf,0,0,NA,NA,NA,NA,NA,NA,NA,NA,NA,NA,NA,NA,NA,NA,NA,NA,NA,NA,NA
d9c5c,deep,flow.Sequence,3_0_0_0_5_0,NA,NA,completion,8244,433976,433973,434007,442251,442251,2023-03-13T11:03:33Z,442284,NULL,Gelegenheit,wakati,d,NA,NA,NA,NA,sdf,NA,0,NA,NA,NA,NA,NA,NA,NA,NA,NA,NA,NA,NA,NA,NA,NA,NA,NA,NA,NA
d9c5c,shallow,flow.Sequence,3_0_0_0_5_1,NA,NA,skipped,NA,442251,NA,NA,442251,442251,2023-03-13T11:03:33Z,442284,NULL,Gelegenheit,wakati,d,NA,NA,NA,NA,sdf,NA,0,NA,NA,NA,NA,NA,NA,NA,NA,NA,NA,NA,NA,NA,NA,NA,NA,NA,NA,NA
d9c5c,task,flow.Sequence,3_0_0_0_5,NA,NA,completion,8244,433976,433973,434007,442251,442252,2023-03-13T11:03:33Z,442284,NULL,Gelegenheit,wakati,d,NA,NA,NA,NA,sdf,NA,0,NA,NA,NA,NA,NA,NA,NA,NA,NA,NA,NA,NA,NA,NA,NA,NA,NA,NA,NA
d9c5c,deep,flow.Sequence,3_0_0_0_6_0,NA,NA,skipped,NA,442252,NA,NA,442251,442252,2023-03-13T11:03:33Z,442284,NULL,Ergänzung,kijalizo,s,ulaghai,mustarehe,matangazo,NA,sdf,NA,0,NA,NA,NA,NA,NA,NA,NA,NA,NA,NA,NA,NA,NA,NA,NA,NA,NA,NA,NA
d9c5c,Shallow Question,html.Page,3_0_0_0_6_1_0,NA,NA,form submission,29020,442252,442251,442284,471304,471305,2023-03-13T11:04:02Z,471344,NULL,Ergänzung,kijalizo,s,ulaghai,mustarehe,matangazo,kijalizo,NA,NA,0,NA,NA,NA,NA,NA,NA,NA,NA,NA,NA,NA,NA,NA,NA,NA,NA,NA,NA,NA
d9c5c,"""Richtig""-Screen",canvas.Screen,3_0_0_0_6_1_1,NA,NA,timeout,5005,471306,471310,471344,476316,476317,2023-03-13T11:04:07Z,476349,NULL,Ergänzung,kijalizo,s,ulaghai,mustarehe,matangazo,NA,sdf,1,0,NA,NA,NA,NA,NA,NA,NA,NA,NA,NA,NA,NA,NA,NA,NA,NA,NA,NA,NA
d9c5c,"""Falsch""-Screen",canvas.Screen,3_0_0_0_6_1_2,NA,NA,skipped,NA,476318,NA,NA,476316,476318,2023-03-13T11:04:07Z,476349,NULL,Ergänzung,kijalizo,s,ulaghai,mustarehe,matangazo,NA,sdf,NA,0,NA,NA,NA,NA,NA,NA,NA,NA,NA,NA,NA,NA,NA,NA,NA,NA,NA,NA,NA
d9c5c,shallow,flow.Sequence,3_0_0_0_6_1,NA,NA,completion,34032,442252,442251,442284,476316,476318,2023-03-13T11:04:07Z,476349,NULL,Ergänzung,kijalizo,s,ulaghai,mustarehe,matangazo,NA,sdf,NA,0,NA,NA,NA,NA,NA,NA,NA,NA,NA,NA,NA,NA,NA,NA,NA,NA,NA,NA,NA
d9c5c,task,flow.Sequence,3_0_0_0_6,NA,NA,completion,34032,442252,442251,442284,476316,476318,2023-03-13T11:04:07Z,476349,NULL,Ergänzung,kijalizo,s,ulaghai,mustarehe,matangazo,NA,sdf,NA,0,NA,NA,NA,NA,NA,NA,NA,NA,NA,NA,NA,NA,NA,NA,NA,NA,NA,NA,NA
d9c5c,deep,flow.Sequence,3_0_0_0_7_0,NA,NA,skipped,NA,476319,NA,NA,476316,476319,2023-03-13T11:04:07Z,476349,NULL,Verstand,ufahamivu,s,shakawa,hadhari,mhandisi,NA,sdf,NA,0,NA,NA,NA,NA,NA,NA,NA,NA,NA,NA,NA,NA,NA,NA,NA,NA,NA,NA,NA
d9c5c,Shallow Question,html.Page,3_0_0_0_7_1_0,NA,NA,form submission,7639,476319,476316,476349,483988,483988,2023-03-13T11:04:15Z,484034,NULL,Verstand,ufahamivu,s,shakawa,hadhari,mhandisi,hadhari,NA,NA,0,NA,NA,NA,NA,NA,NA,NA,NA,NA,NA,NA,NA,NA,NA,NA,NA,NA,NA,NA
d9c5c,"""Richtig""-Screen",canvas.Screen,3_0_0_0_7_1_1,NA,NA,skipped,NA,483989,NA,NA,483988,483989,2023-03-13T11:04:15Z,484034,NULL,Verstand,ufahamivu,s,shakawa,hadhari,mhandisi,NA,sdf,NA,0,NA,NA,NA,NA,NA,NA,NA,NA,NA,NA,NA,NA,NA,NA,NA,NA,NA,NA,NA
d9c5c,"""Falsch""-Screen",canvas.Screen,3_0_0_0_7_1_2,NA,NA,timeout,5000,483990,484000,484034,489000,489001,2023-03-13T11:04:20Z,489034,NULL,Verstand,ufahamivu,s,shakawa,hadhari,mhandisi,NA,sdf,0,0,NA,NA,NA,NA,NA,NA,NA,NA,NA,NA,NA,NA,NA,NA,NA,NA,NA,NA,NA
d9c5c,shallow,flow.Sequence,3_0_0_0_7_1,NA,NA,completion,12651,476319,476316,476349,489000,489001,2023-03-13T11:04:20Z,489034,NULL,Verstand,ufahamivu,s,shakawa,hadhari,mhandisi,NA,sdf,NA,0,NA,NA,NA,NA,NA,NA,NA,NA,NA,NA,NA,NA,NA,NA,NA,NA,NA,NA,NA
d9c5c,task,flow.Sequence,3_0_0_0_7,NA,NA,completion,12651,476319,476316,476349,489000,489001,2023-03-13T11:04:20Z,489034,NULL,Verstand,ufahamivu,s,shakawa,hadhari,mhandisi,NA,sdf,NA,0,NA,NA,NA,NA,NA,NA,NA,NA,NA,NA,NA,NA,NA,NA,NA,NA,NA,NA,NA
d9c5c,block,flow.Loop,3_0_0_0,NA,NA,completion,116384,372575,372583,372616,489000,489002,2023-03-13T11:04:20Z,489034,NULL,NA,NA,NA,NA,NA,NA,NA,sdf,NA,0,NA,NA,NA,NA,NA,NA,NA,NA,NA,NA,NA,NA,NA,NA,NA,NA,NA,NA,NA
d9c5c,weiter,canvas.Screen,3_0_0_1,sdf,keypress(Space),response,2306,489002,489000,489034,491306,491370,2023-03-13T11:04:22Z,491440,NULL,NA,NA,NA,NA,NA,NA,NA,sdf,NA,0,NA,NA,NA,NA,NA,NA,NA,NA,NA,NA,NA,NA,NA,NA,NA,NA,NA,NA,NA
d9c5c,check continue,flow.Sequence,3_0_0,NA,NA,completion,118690,372575,372583,372616,491306,491370,2023-03-13T11:04:22Z,491440,NULL,NA,NA,NA,NA,NA,NA,NA,sdf,NA,0,NA,NA,NA,NA,NA,NA,NA,NA,NA,NA,NA,NA,NA,NA,NA,NA,NA,NA,NA
d9c5c,deep,flow.Sequence,3_0_1_0_0_0,NA,NA,skipped,NA,491393,NA,NA,491306,491393,2023-03-13T11:04:22Z,491440,NULL,Widerstand,usulubu,s,kusababisha,mwalimu,mwenendo,NA,sdfdsf,NA,1,NA,NA,NA,NA,NA,NA,NA,NA,NA,NA,NA,NA,NA,NA,NA,NA,NA,NA,NA
d9c5c,Shallow Question,html.Page,3_0_1_0_0_1_0,NA,NA,form submission,16682,491393,491406,491440,508122,508122,2023-03-13T11:04:39Z,508186,NULL,Widerstand,usulubu,s,kusababisha,mwalimu,mwenendo,mwenendo,NA,NA,1,NA,NA,NA,NA,NA,NA,NA,NA,NA,NA,NA,NA,NA,NA,NA,NA,NA,NA,NA
d9c5c,"""Richtig""-Screen",canvas.Screen,3_0_1_0_0_1_1,NA,NA,skipped,NA,508123,NA,NA,508122,508123,2023-03-13T11:04:39Z,508186,NULL,Widerstand,usulubu,s,kusababisha,mwalimu,mwenendo,NA,sdfdsf,NA,1,NA,NA,NA,NA,NA,NA,NA,NA,NA,NA,NA,NA,NA,NA,NA,NA,NA,NA,NA
d9c5c,"""Falsch""-Screen",canvas.Screen,3_0_1_0_0_1_2,NA,NA,timeout,5005,508124,508153,508186,513157,513158,2023-03-13T11:04:44Z,513191,NULL,Widerstand,usulubu,s,kusababisha,mwalimu,mwenendo,NA,sdfdsf,0,1,NA,NA,NA,NA,NA,NA,NA,NA,NA,NA,NA,NA,NA,NA,NA,NA,NA,NA,NA
d9c5c,shallow,flow.Sequence,3_0_1_0_0_1,NA,NA,completion,21717,491393,491406,491440,513157,513158,2023-03-13T11:04:44Z,513191,NULL,Widerstand,usulubu,s,kusababisha,mwalimu,mwenendo,NA,sdfdsf,NA,1,NA,NA,NA,NA,NA,NA,NA,NA,NA,NA,NA,NA,NA,NA,NA,NA,NA,NA,NA
d9c5c,task,flow.Sequence,3_0_1_0_0,NA,NA,completion,21717,491393,491406,491440,513157,513159,2023-03-13T11:04:44Z,513191,NULL,Widerstand,usulubu,s,kusababisha,mwalimu,mwenendo,NA,sdfdsf,NA,1,NA,NA,NA,NA,NA,NA,NA,NA,NA,NA,NA,NA,NA,NA,NA,NA,NA,NA,NA
d9c5c,deep,flow.Sequence,3_0_1_0_1_0,NA,NA,skipped,NA,513159,NA,NA,513157,513159,2023-03-13T11:04:44Z,513191,NULL,Verstand,ufahamivu,s,shakawa,hadhari,mhandisi,NA,sdfdsf,NA,1,NA,NA,NA,NA,NA,NA,NA,NA,NA,NA,NA,NA,NA,NA,NA,NA,NA,NA,NA
d9c5c,Shallow Question,html.Page,3_0_1_0_1_1_0,NA,NA,form submission,13114,513159,513157,513191,526305,526305,2023-03-13T11:04:57Z,526350,NULL,Verstand,ufahamivu,s,shakawa,hadhari,mhandisi,ufahamivu,NA,NA,1,NA,NA,NA,NA,NA,NA,NA,NA,NA,NA,NA,NA,NA,NA,NA,NA,NA,NA,NA
d9c5c,"""Richtig""-Screen",canvas.Screen,3_0_1_0_1_1_1,NA,NA,timeout,5007,526306,526317,526350,531323,531324,2023-03-13T11:05:02Z,531357,NULL,Verstand,ufahamivu,s,shakawa,hadhari,mhandisi,NA,sdfdsf,1,1,NA,NA,NA,NA,NA,NA,NA,NA,NA,NA,NA,NA,NA,NA,NA,NA,NA,NA,NA
d9c5c,"""Falsch""-Screen",canvas.Screen,3_0_1_0_1_1_2,NA,NA,skipped,NA,531325,NA,NA,531323,531325,2023-03-13T11:05:02Z,531357,NULL,Verstand,ufahamivu,s,shakawa,hadhari,mhandisi,NA,sdfdsf,NA,1,NA,NA,NA,NA,NA,NA,NA,NA,NA,NA,NA,NA,NA,NA,NA,NA,NA,NA,NA
d9c5c,shallow,flow.Sequence,3_0_1_0_1_1,NA,NA,completion,18132,513159,513157,513191,531323,531325,2023-03-13T11:05:02Z,531357,NULL,Verstand,ufahamivu,s,shakawa,hadhari,mhandisi,NA,sdfdsf,NA,1,NA,NA,NA,NA,NA,NA,NA,NA,NA,NA,NA,NA,NA,NA,NA,NA,NA,NA,NA
d9c5c,task,flow.Sequence,3_0_1_0_1,NA,NA,completion,18132,513159,513157,513191,531323,531325,2023-03-13T11:05:02Z,531357,NULL,Verstand,ufahamivu,s,shakawa,hadhari,mhandisi,NA,sdfdsf,NA,1,NA,NA,NA,NA,NA,NA,NA,NA,NA,NA,NA,NA,NA,NA,NA,NA,NA,NA,NA
d9c5c,Deep Question,html.Page,3_0_1_0_2_0_0,NA,NA,form submission,17232,531326,531323,531357,548589,548589,2023-03-13T11:05:19Z,548653,NULL,Vergnügen,kichekesho,d,NA,NA,NA,v,NA,NA,1,NA,NA,NA,NA,NA,NA,NA,NA,NA,NA,NA,NA,NA,NA,NA,NA,NA,NA,NA
d9c5c,"""Richtig""-Screen",canvas.Screen,3_0_1_0_2_0_1,NA,NA,skipped,NA,548590,NA,NA,548589,548590,2023-03-13T11:05:19Z,548653,NULL,Vergnügen,kichekesho,d,NA,NA,NA,NA,sdfdsf,NA,1,NA,NA,NA,NA,NA,NA,NA,NA,NA,NA,NA,NA,NA,NA,NA,NA,NA,NA,NA
d9c5c,"""Falsch""-Screen",canvas.Screen,3_0_1_0_2_0_2,NA,NA,timeout,4997,548591,548608,548653,553617,553618,2023-03-13T11:05:25Z,553650,NULL,Vergnügen,kichekesho,d,NA,NA,NA,NA,sdfdsf,0,1,NA,NA,NA,NA,NA,NA,NA,NA,NA,NA,NA,NA,NA,NA,NA,NA,NA,NA,NA
d9c5c,deep,flow.Sequence,3_0_1_0_2_0,NA,NA,completion,22260,531325,531323,531357,553617,553619,2023-03-13T11:05:25Z,553650,NULL,Vergnügen,kichekesho,d,NA,NA,NA,NA,sdfdsf,NA,1,NA,NA,NA,NA,NA,NA,NA,NA,NA,NA,NA,NA,NA,NA,NA,NA,NA,NA,NA
d9c5c,shallow,flow.Sequence,3_0_1_0_2_1,NA,NA,skipped,NA,553619,NA,NA,553617,553619,2023-03-13T11:05:25Z,553650,NULL,Vergnügen,kichekesho,d,NA,NA,NA,NA,sdfdsf,NA,1,NA,NA,NA,NA,NA,NA,NA,NA,NA,NA,NA,NA,NA,NA,NA,NA,NA,NA,NA
d9c5c,task,flow.Sequence,3_0_1_0_2,NA,NA,completion,22260,531325,531323,531357,553617,553619,2023-03-13T11:05:25Z,553650,NULL,Vergnügen,kichekesho,d,NA,NA,NA,NA,sdfdsf,NA,1,NA,NA,NA,NA,NA,NA,NA,NA,NA,NA,NA,NA,NA,NA,NA,NA,NA,NA,NA
d9c5c,Deep Question,html.Page,3_0_1_0_3_0_0,NA,NA,form submission,10671,553619,553617,553650,564321,564321,2023-03-13T11:05:35Z,564363,NULL,Gelegenheit,wakati,d,NA,NA,NA,k,NA,NA,1,NA,NA,NA,NA,NA,NA,NA,NA,NA,NA,NA,NA,NA,NA,NA,NA,NA,NA,NA
d9c5c,"""Richtig""-Screen",canvas.Screen,3_0_1_0_3_0_1,NA,NA,skipped,NA,564322,NA,NA,564321,564323,2023-03-13T11:05:35Z,564363,NULL,Gelegenheit,wakati,d,NA,NA,NA,NA,sdfdsf,NA,1,NA,NA,NA,NA,NA,NA,NA,NA,NA,NA,NA,NA,NA,NA,NA,NA,NA,NA,NA
d9c5c,"""Falsch""-Screen",canvas.Screen,3_0_1_0_3_0_2,NA,NA,timeout,5005,564323,564327,564363,569335,569336,2023-03-13T11:05:40Z,569368,NULL,Gelegenheit,wakati,d,NA,NA,NA,NA,sdfdsf,0,1,NA,NA,NA,NA,NA,NA,NA,NA,NA,NA,NA,NA,NA,NA,NA,NA,NA,NA,NA
d9c5c,deep,flow.Sequence,3_0_1_0_3_0,NA,NA,completion,15685,553619,553617,553650,569335,569336,2023-03-13T11:05:40Z,569368,NULL,Gelegenheit,wakati,d,NA,NA,NA,NA,sdfdsf,NA,1,NA,NA,NA,NA,NA,NA,NA,NA,NA,NA,NA,NA,NA,NA,NA,NA,NA,NA,NA
d9c5c,shallow,flow.Sequence,3_0_1_0_3_1,NA,NA,skipped,NA,569336,NA,NA,569335,569336,2023-03-13T11:05:40Z,569368,NULL,Gelegenheit,wakati,d,NA,NA,NA,NA,sdfdsf,NA,1,NA,NA,NA,NA,NA,NA,NA,NA,NA,NA,NA,NA,NA,NA,NA,NA,NA,NA,NA
d9c5c,task,flow.Sequence,3_0_1_0_3,NA,NA,completion,15685,553619,553617,553650,569335,569336,2023-03-13T11:05:40Z,569368,NULL,Gelegenheit,wakati,d,NA,NA,NA,NA,sdfdsf,NA,1,NA,NA,NA,NA,NA,NA,NA,NA,NA,NA,NA,NA,NA,NA,NA,NA,NA,NA,NA
d9c5c,deep,flow.Sequence,3_0_1_0_4_0,NA,NA,skipped,NA,569336,NA,NA,569335,569336,2023-03-13T11:05:40Z,569368,NULL,Ergänzung,kijalizo,s,ulaghai,mustarehe,matangazo,NA,sdfdsf,NA,1,NA,NA,NA,NA,NA,NA,NA,NA,NA,NA,NA,NA,NA,NA,NA,NA,NA,NA,NA
d9c5c,Shallow Question,html.Page,3_0_1_0_4_1_0,NA,NA,form submission,23328,569337,569335,569368,592696,592696,2023-03-13T11:06:04Z,592755,NULL,Ergänzung,kijalizo,s,ulaghai,mustarehe,matangazo,matangazo,NA,NA,1,NA,NA,NA,NA,NA,NA,NA,NA,NA,NA,NA,NA,NA,NA,NA,NA,NA,NA,NA
d9c5c,"""Richtig""-Screen",canvas.Screen,3_0_1_0_4_1_1,NA,NA,skipped,NA,592697,NA,NA,592696,592697,2023-03-13T11:06:04Z,592755,NULL,Ergänzung,kijalizo,s,ulaghai,mustarehe,matangazo,NA,sdfdsf,NA,1,NA,NA,NA,NA,NA,NA,NA,NA,NA,NA,NA,NA,NA,NA,NA,NA,NA,NA,NA
d9c5c,"""Falsch""-Screen",canvas.Screen,3_0_1_0_4_1_2,NA,NA,timeout,5003,592698,592719,592755,597724,597725,2023-03-13T11:06:09Z,597758,NULL,Ergänzung,kijalizo,s,ulaghai,mustarehe,matangazo,NA,sdfdsf,0,1,NA,NA,NA,NA,NA,NA,NA,NA,NA,NA,NA,NA,NA,NA,NA,NA,NA,NA,NA
d9c5c,shallow,flow.Sequence,3_0_1_0_4_1,NA,NA,completion,28356,569337,569335,569368,597724,597725,2023-03-13T11:06:09Z,597758,NULL,Ergänzung,kijalizo,s,ulaghai,mustarehe,matangazo,NA,sdfdsf,NA,1,NA,NA,NA,NA,NA,NA,NA,NA,NA,NA,NA,NA,NA,NA,NA,NA,NA,NA,NA
d9c5c,task,flow.Sequence,3_0_1_0_4,NA,NA,completion,28356,569336,569335,569368,597724,597725,2023-03-13T11:06:09Z,597758,NULL,Ergänzung,kijalizo,s,ulaghai,mustarehe,matangazo,NA,sdfdsf,NA,1,NA,NA,NA,NA,NA,NA,NA,NA,NA,NA,NA,NA,NA,NA,NA,NA,NA,NA,NA
d9c5c,Deep Question,html.Page,3_0_1_0_5_0_0,NA,NA,form submission,11413,597725,597724,597758,609171,609171,2023-03-13T11:06:20Z,609217,NULL,Ausschluss,kutengwa,d,NA,NA,NA,ka,NA,NA,1,NA,NA,NA,NA,NA,NA,NA,NA,NA,NA,NA,NA,NA,NA,NA,NA,NA,NA,NA
d9c5c,"""Richtig""-Screen",canvas.Screen,3_0_1_0_5_0_1,NA,NA,skipped,NA,609172,NA,NA,609171,609172,2023-03-13T11:06:20Z,609217,NULL,Ausschluss,kutengwa,d,NA,NA,NA,NA,sdfdsf,NA,1,NA,NA,NA,NA,NA,NA,NA,NA,NA,NA,NA,NA,NA,NA,NA,NA,NA,NA,NA
d9c5c,"""Falsch""-Screen",canvas.Screen,3_0_1_0_5_0_2,NA,NA,timeout,5000,609173,609183,609217,614182,614183,2023-03-13T11:06:25Z,614217,NULL,Ausschluss,kutengwa,d,NA,NA,NA,NA,sdfdsf,0,1,NA,NA,NA,NA,NA,NA,NA,NA,NA,NA,NA,NA,NA,NA,NA,NA,NA,NA,NA
d9c5c,deep,flow.Sequence,3_0_1_0_5_0,NA,NA,completion,16424,597725,597724,597758,614182,614183,2023-03-13T11:06:25Z,614217,NULL,Ausschluss,kutengwa,d,NA,NA,NA,NA,sdfdsf,NA,1,NA,NA,NA,NA,NA,NA,NA,NA,NA,NA,NA,NA,NA,NA,NA,NA,NA,NA,NA
d9c5c,shallow,flow.Sequence,3_0_1_0_5_1,NA,NA,skipped,NA,614183,NA,NA,614182,614183,2023-03-13T11:06:25Z,614217,NULL,Ausschluss,kutengwa,d,NA,NA,NA,NA,sdfdsf,NA,1,NA,NA,NA,NA,NA,NA,NA,NA,NA,NA,NA,NA,NA,NA,NA,NA,NA,NA,NA
d9c5c,task,flow.Sequence,3_0_1_0_5,NA,NA,completion,16424,597725,597724,597758,614182,614183,2023-03-13T11:06:25Z,614217,NULL,Ausschluss,kutengwa,d,NA,NA,NA,NA,sdfdsf,NA,1,NA,NA,NA,NA,NA,NA,NA,NA,NA,NA,NA,NA,NA,NA,NA,NA,NA,NA,NA
d9c5c,deep,flow.Sequence,3_0_1_0_6_0,NA,NA,skipped,NA,614184,NA,NA,614182,614184,2023-03-13T11:06:25Z,614217,NULL,Wohlstand,mafanikio,s,chimbuko,kumbuko,mapwaji,NA,sdfdsf,NA,1,NA,NA,NA,NA,NA,NA,NA,NA,NA,NA,NA,NA,NA,NA,NA,NA,NA,NA,NA
d9c5c,Shallow Question,html.Page,3_0_1_0_6_1_0,NA,NA,form submission,7227,614184,614182,614217,621444,621444,2023-03-13T11:06:32Z,621491,NULL,Wohlstand,mafanikio,s,chimbuko,kumbuko,mapwaji,mafanikio,NA,NA,1,NA,NA,NA,NA,NA,NA,NA,NA,NA,NA,NA,NA,NA,NA,NA,NA,NA,NA,NA
d9c5c,"""Richtig""-Screen",canvas.Screen,3_0_1_0_6_1_1,NA,NA,timeout,4999,621445,621456,621491,626456,626457,2023-03-13T11:06:37Z,626490,NULL,Wohlstand,mafanikio,s,chimbuko,kumbuko,mapwaji,NA,sdfdsf,1,1,NA,NA,NA,NA,NA,NA,NA,NA,NA,NA,NA,NA,NA,NA,NA,NA,NA,NA,NA
d9c5c,"""Falsch""-Screen",canvas.Screen,3_0_1_0_6_1_2,NA,NA,skipped,NA,626458,NA,NA,626456,626458,2023-03-13T11:06:37Z,626490,NULL,Wohlstand,mafanikio,s,chimbuko,kumbuko,mapwaji,NA,sdfdsf,NA,1,NA,NA,NA,NA,NA,NA,NA,NA,NA,NA,NA,NA,NA,NA,NA,NA,NA,NA,NA
d9c5c,shallow,flow.Sequence,3_0_1_0_6_1,NA,NA,completion,12239,614184,614182,614217,626456,626458,2023-03-13T11:06:37Z,626490,NULL,Wohlstand,mafanikio,s,chimbuko,kumbuko,mapwaji,NA,sdfdsf,NA,1,NA,NA,NA,NA,NA,NA,NA,NA,NA,NA,NA,NA,NA,NA,NA,NA,NA,NA,NA
d9c5c,task,flow.Sequence,3_0_1_0_6,NA,NA,completion,12239,614183,614182,614217,626456,626459,2023-03-13T11:06:37Z,626490,NULL,Wohlstand,mafanikio,s,chimbuko,kumbuko,mapwaji,NA,sdfdsf,NA,1,NA,NA,NA,NA,NA,NA,NA,NA,NA,NA,NA,NA,NA,NA,NA,NA,NA,NA,NA
d9c5c,Deep Question,html.Page,3_0_1_0_7_0_0,NA,NA,form submission,3977,626459,626456,626490,630467,630467,2023-03-13T11:06:41Z,630538,NULL,Notfall,dharura,d,NA,NA,NA,uru,NA,NA,1,NA,NA,NA,NA,NA,NA,NA,NA,NA,NA,NA,NA,NA,NA,NA,NA,NA,NA,NA
d9c5c,"""Richtig""-Screen",canvas.Screen,3_0_1_0_7_0_1,NA,NA,skipped,NA,630468,NA,NA,630467,630468,2023-03-13T11:06:41Z,630538,NULL,Notfall,dharura,d,NA,NA,NA,NA,sdfdsf,NA,1,NA,NA,NA,NA,NA,NA,NA,NA,NA,NA,NA,NA,NA,NA,NA,NA,NA,NA,NA
d9c5c,"""Falsch""-Screen",canvas.Screen,3_0_1_0_7_0_2,NA,NA,timeout,5003,630469,630503,630538,635507,635508,2023-03-13T11:06:46Z,635541,NULL,Notfall,dharura,d,NA,NA,NA,NA,sdfdsf,0,1,NA,NA,NA,NA,NA,NA,NA,NA,NA,NA,NA,NA,NA,NA,NA,NA,NA,NA,NA
d9c5c,deep,flow.Sequence,3_0_1_0_7_0,NA,NA,completion,9017,626459,626456,626490,635507,635508,2023-03-13T11:06:46Z,635541,NULL,Notfall,dharura,d,NA,NA,NA,NA,sdfdsf,NA,1,NA,NA,NA,NA,NA,NA,NA,NA,NA,NA,NA,NA,NA,NA,NA,NA,NA,NA,NA
d9c5c,shallow,flow.Sequence,3_0_1_0_7_1,NA,NA,skipped,NA,635509,NA,NA,635507,635509,2023-03-13T11:06:46Z,635541,NULL,Notfall,dharura,d,NA,NA,NA,NA,sdfdsf,NA,1,NA,NA,NA,NA,NA,NA,NA,NA,NA,NA,NA,NA,NA,NA,NA,NA,NA,NA,NA
d9c5c,task,flow.Sequence,3_0_1_0_7,NA,NA,completion,9017,626459,626456,626490,635507,635509,2023-03-13T11:06:46Z,635541,NULL,Notfall,dharura,d,NA,NA,NA,NA,sdfdsf,NA,1,NA,NA,NA,NA,NA,NA,NA,NA,NA,NA,NA,NA,NA,NA,NA,NA,NA,NA,NA
d9c5c,block,flow.Loop,3_0_1_0,NA,NA,completion,144067,491393,491406,491440,635507,635509,2023-03-13T11:06:46Z,635541,NULL,NA,NA,NA,NA,NA,NA,NA,sdfdsf,NA,1,NA,NA,NA,NA,NA,NA,NA,NA,NA,NA,NA,NA,NA,NA,NA,NA,NA,NA,NA
d9c5c,weiter,canvas.Screen,3_0_1_1,sdf,keypress(Space),response,1094,635509,635507,635541,636601,636665,2023-03-13T11:06:48Z,636728,NULL,NA,NA,NA,NA,NA,NA,NA,sdfdsf,NA,1,NA,NA,NA,NA,NA,NA,NA,NA,NA,NA,NA,NA,NA,NA,NA,NA,NA,NA,NA
d9c5c,check continue,flow.Sequence,3_0_1,NA,NA,completion,145161,491393,491406,491440,636601,636665,2023-03-13T11:06:48Z,636728,NULL,NA,NA,NA,NA,NA,NA,NA,sdfdsf,NA,1,NA,NA,NA,NA,NA,NA,NA,NA,NA,NA,NA,NA,NA,NA,NA,NA,NA,NA,NA
d9c5c,deep,flow.Sequence,3_0_2_0_0_0,NA,NA,skipped,NA,636688,NA,NA,636601,636688,2023-03-13T11:06:48Z,636728,NULL,Wohlstand,mafanikio,s,chimbuko,kumbuko,mapwaji,NA,sdf,NA,2,NA,NA,NA,NA,NA,NA,NA,NA,NA,NA,NA,NA,NA,NA,NA,NA,NA,NA,NA
d9c5c,Shallow Question,html.Page,3_0_2_0_0_1_0,NA,NA,form submission,9847,636689,636694,636728,646575,646575,2023-03-13T11:06:57Z,646632,NULL,Wohlstand,mafanikio,s,chimbuko,kumbuko,mapwaji,mafanikio,NA,NA,2,NA,NA,NA,NA,NA,NA,NA,NA,NA,NA,NA,NA,NA,NA,NA,NA,NA,NA,NA
d9c5c,"""Richtig""-Screen",canvas.Screen,3_0_2_0_0_1_1,NA,NA,timeout,5008,646576,646598,646632,651607,651608,2023-03-13T11:07:02Z,651640,NULL,Wohlstand,mafanikio,s,chimbuko,kumbuko,mapwaji,NA,sdf,1,2,NA,NA,NA,NA,NA,NA,NA,NA,NA,NA,NA,NA,NA,NA,NA,NA,NA,NA,NA
d9c5c,"""Falsch""-Screen",canvas.Screen,3_0_2_0_0_1_2,NA,NA,skipped,NA,651609,NA,NA,651607,651609,2023-03-13T11:07:03Z,651640,NULL,Wohlstand,mafanikio,s,chimbuko,kumbuko,mapwaji,NA,sdf,NA,2,NA,NA,NA,NA,NA,NA,NA,NA,NA,NA,NA,NA,NA,NA,NA,NA,NA,NA,NA
d9c5c,shallow,flow.Sequence,3_0_2_0_0_1,NA,NA,completion,14879,636688,636694,636728,651607,651610,2023-03-13T11:07:03Z,651640,NULL,Wohlstand,mafanikio,s,chimbuko,kumbuko,mapwaji,NA,sdf,NA,2,NA,NA,NA,NA,NA,NA,NA,NA,NA,NA,NA,NA,NA,NA,NA,NA,NA,NA,NA
d9c5c,task,flow.Sequence,3_0_2_0_0,NA,NA,completion,14879,636688,636694,636728,651607,651610,2023-03-13T11:07:03Z,651640,NULL,Wohlstand,mafanikio,s,chimbuko,kumbuko,mapwaji,NA,sdf,NA,2,NA,NA,NA,NA,NA,NA,NA,NA,NA,NA,NA,NA,NA,NA,NA,NA,NA,NA,NA
d9c5c,deep,flow.Sequence,3_0_2_0_1_0,NA,NA,skipped,NA,651610,NA,NA,651607,651610,2023-03-13T11:07:03Z,651640,NULL,Verstand,ufahamivu,s,shakawa,hadhari,mhandisi,NA,sdf,NA,2,NA,NA,NA,NA,NA,NA,NA,NA,NA,NA,NA,NA,NA,NA,NA,NA,NA,NA,NA
d9c5c,Shallow Question,html.Page,3_0_2_0_1_1_0,NA,NA,form submission,25215,651610,651607,651640,676855,676855,2023-03-13T11:07:28Z,676921,NULL,Verstand,ufahamivu,s,shakawa,hadhari,mhandisi,ufahamivu,NA,NA,2,NA,NA,NA,NA,NA,NA,NA,NA,NA,NA,NA,NA,NA,NA,NA,NA,NA,NA,NA
d9c5c,"""Richtig""-Screen",canvas.Screen,3_0_2_0_1_1_1,NA,NA,timeout,4999,676856,676887,676921,681887,681888,2023-03-13T11:07:33Z,681920,NULL,Verstand,ufahamivu,s,shakawa,hadhari,mhandisi,NA,sdf,1,2,NA,NA,NA,NA,NA,NA,NA,NA,NA,NA,NA,NA,NA,NA,NA,NA,NA,NA,NA
d9c5c,"""Falsch""-Screen",canvas.Screen,3_0_2_0_1_1_2,NA,NA,skipped,NA,681889,NA,NA,681887,681889,2023-03-13T11:07:33Z,681920,NULL,Verstand,ufahamivu,s,shakawa,hadhari,mhandisi,NA,sdf,NA,2,NA,NA,NA,NA,NA,NA,NA,NA,NA,NA,NA,NA,NA,NA,NA,NA,NA,NA,NA
d9c5c,shallow,flow.Sequence,3_0_2_0_1_1,NA,NA,completion,30247,651610,651607,651640,681887,681889,2023-03-13T11:07:33Z,681920,NULL,Verstand,ufahamivu,s,shakawa,hadhari,mhandisi,NA,sdf,NA,2,NA,NA,NA,NA,NA,NA,NA,NA,NA,NA,NA,NA,NA,NA,NA,NA,NA,NA,NA
d9c5c,task,flow.Sequence,3_0_2_0_1,NA,NA,completion,30247,651610,651607,651640,681887,681890,2023-03-13T11:07:33Z,681920,NULL,Verstand,ufahamivu,s,shakawa,hadhari,mhandisi,NA,sdf,NA,2,NA,NA,NA,NA,NA,NA,NA,NA,NA,NA,NA,NA,NA,NA,NA,NA,NA,NA,NA
d9c5c,Deep Question,html.Page,3_0_2_0_2_0_0,NA,NA,form submission,16095,681890,681887,681920,698015,698015,2023-03-13T11:07:49Z,698077,NULL,Vergnügen,kichekesho,d,NA,NA,NA,u,NA,NA,2,NA,NA,NA,NA,NA,NA,NA,NA,NA,NA,NA,NA,NA,NA,NA,NA,NA,NA,NA
d9c5c,"""Richtig""-Screen",canvas.Screen,3_0_2_0_2_0_1,NA,NA,skipped,NA,698016,NA,NA,698015,698016,2023-03-13T11:07:49Z,698077,NULL,Vergnügen,kichekesho,d,NA,NA,NA,NA,sdf,NA,2,NA,NA,NA,NA,NA,NA,NA,NA,NA,NA,NA,NA,NA,NA,NA,NA,NA,NA,NA
d9c5c,"""Falsch""-Screen",canvas.Screen,3_0_2_0_2_0_2,NA,NA,timeout,5012,698017,698041,698077,703056,703057,2023-03-13T11:07:54Z,703089,NULL,Vergnügen,kichekesho,d,NA,NA,NA,NA,sdf,0,2,NA,NA,NA,NA,NA,NA,NA,NA,NA,NA,NA,NA,NA,NA,NA,NA,NA,NA,NA
d9c5c,deep,flow.Sequence,3_0_2_0_2_0,NA,NA,completion,21136,681890,681887,681920,703056,703057,2023-03-13T11:07:54Z,703089,NULL,Vergnügen,kichekesho,d,NA,NA,NA,NA,sdf,NA,2,NA,NA,NA,NA,NA,NA,NA,NA,NA,NA,NA,NA,NA,NA,NA,NA,NA,NA,NA
d9c5c,shallow,flow.Sequence,3_0_2_0_2_1,NA,NA,skipped,NA,703057,NA,NA,703056,703057,2023-03-13T11:07:54Z,703089,NULL,Vergnügen,kichekesho,d,NA,NA,NA,NA,sdf,NA,2,NA,NA,NA,NA,NA,NA,NA,NA,NA,NA,NA,NA,NA,NA,NA,NA,NA,NA,NA
d9c5c,task,flow.Sequence,3_0_2_0_2,NA,NA,completion,21136,681890,681887,681920,703056,703058,2023-03-13T11:07:54Z,703089,NULL,Vergnügen,kichekesho,d,NA,NA,NA,NA,sdf,NA,2,NA,NA,NA,NA,NA,NA,NA,NA,NA,NA,NA,NA,NA,NA,NA,NA,NA,NA,NA
d9c5c,deep,flow.Sequence,3_0_2_0_3_0,NA,NA,skipped,NA,703058,NA,NA,703056,703058,2023-03-13T11:07:54Z,703089,NULL,Widerstand,usulubu,s,kusababisha,mwalimu,mwenendo,NA,sdf,NA,2,NA,NA,NA,NA,NA,NA,NA,NA,NA,NA,NA,NA,NA,NA,NA,NA,NA,NA,NA
d9c5c,Shallow Question,html.Page,3_0_2_0_3_1_0,NA,NA,form submission,14131,703058,703056,703089,717220,717220,2023-03-13T11:08:08Z,717265,NULL,Widerstand,usulubu,s,kusababisha,mwalimu,mwenendo,usulubu,NA,NA,2,NA,NA,NA,NA,NA,NA,NA,NA,NA,NA,NA,NA,NA,NA,NA,NA,NA,NA,NA
d9c5c,"""Richtig""-Screen",canvas.Screen,3_0_2_0_3_1_1,NA,NA,timeout,5000,717222,717234,717265,722232,722233,2023-03-13T11:08:13Z,722265,NULL,Widerstand,usulubu,s,kusababisha,mwalimu,mwenendo,NA,sdf,1,2,NA,NA,NA,NA,NA,NA,NA,NA,NA,NA,NA,NA,NA,NA,NA,NA,NA,NA,NA
d9c5c,"""Falsch""-Screen",canvas.Screen,3_0_2_0_3_1_2,NA,NA,skipped,NA,722234,NA,NA,722232,722234,2023-03-13T11:08:13Z,722265,NULL,Widerstand,usulubu,s,kusababisha,mwalimu,mwenendo,NA,sdf,NA,2,NA,NA,NA,NA,NA,NA,NA,NA,NA,NA,NA,NA,NA,NA,NA,NA,NA,NA,NA
d9c5c,shallow,flow.Sequence,3_0_2_0_3_1,NA,NA,completion,19143,703058,703056,703089,722232,722234,2023-03-13T11:08:13Z,722265,NULL,Widerstand,usulubu,s,kusababisha,mwalimu,mwenendo,NA,sdf,NA,2,NA,NA,NA,NA,NA,NA,NA,NA,NA,NA,NA,NA,NA,NA,NA,NA,NA,NA,NA
d9c5c,task,flow.Sequence,3_0_2_0_3,NA,NA,completion,19143,703058,703056,703089,722232,722234,2023-03-13T11:08:13Z,722265,NULL,Widerstand,usulubu,s,kusababisha,mwalimu,mwenendo,NA,sdf,NA,2,NA,NA,NA,NA,NA,NA,NA,NA,NA,NA,NA,NA,NA,NA,NA,NA,NA,NA,NA
d9c5c,Deep Question,html.Page,3_0_2_0_4_0_0,NA,NA,form submission,7147,722234,722232,722265,729412,729413,2023-03-13T11:08:20Z,729461,NULL,Ausschluss,kutengwa,d,NA,NA,NA,wi,NA,NA,2,NA,NA,NA,NA,NA,NA,NA,NA,NA,NA,NA,NA,NA,NA,NA,NA,NA,NA,NA
d9c5c,"""Richtig""-Screen",canvas.Screen,3_0_2_0_4_0_1,NA,NA,skipped,NA,729414,NA,NA,729412,729414,2023-03-13T11:08:20Z,729461,NULL,Ausschluss,kutengwa,d,NA,NA,NA,NA,sdf,NA,2,NA,NA,NA,NA,NA,NA,NA,NA,NA,NA,NA,NA,NA,NA,NA,NA,NA,NA,NA
d9c5c,"""Falsch""-Screen",canvas.Screen,3_0_2_0_4_0_2,NA,NA,timeout,5004,729414,729427,729461,734432,734433,2023-03-13T11:08:25Z,734465,NULL,Ausschluss,kutengwa,d,NA,NA,NA,NA,sdf,0,2,NA,NA,NA,NA,NA,NA,NA,NA,NA,NA,NA,NA,NA,NA,NA,NA,NA,NA,NA
d9c5c,deep,flow.Sequence,3_0_2_0_4_0,NA,NA,completion,12167,722234,722232,722265,734432,734433,2023-03-13T11:08:25Z,734465,NULL,Ausschluss,kutengwa,d,NA,NA,NA,NA,sdf,NA,2,NA,NA,NA,NA,NA,NA,NA,NA,NA,NA,NA,NA,NA,NA,NA,NA,NA,NA,NA
d9c5c,shallow,flow.Sequence,3_0_2_0_4_1,NA,NA,skipped,NA,734433,NA,NA,734432,734433,2023-03-13T11:08:25Z,734465,NULL,Ausschluss,kutengwa,d,NA,NA,NA,NA,sdf,NA,2,NA,NA,NA,NA,NA,NA,NA,NA,NA,NA,NA,NA,NA,NA,NA,NA,NA,NA,NA
d9c5c,task,flow.Sequence,3_0_2_0_4,NA,NA,completion,12167,722234,722232,722265,734432,734433,2023-03-13T11:08:25Z,734465,NULL,Ausschluss,kutengwa,d,NA,NA,NA,NA,sdf,NA,2,NA,NA,NA,NA,NA,NA,NA,NA,NA,NA,NA,NA,NA,NA,NA,NA,NA,NA,NA
d9c5c,deep,flow.Sequence,3_0_2_0_5_0,NA,NA,skipped,NA,734434,NA,NA,734432,734434,2023-03-13T11:08:25Z,734465,NULL,Ergänzung,kijalizo,s,ulaghai,mustarehe,matangazo,NA,sdf,NA,2,NA,NA,NA,NA,NA,NA,NA,NA,NA,NA,NA,NA,NA,NA,NA,NA,NA,NA,NA
d9c5c,Shallow Question,html.Page,3_0_2_0_5_1_0,NA,NA,form submission,19302,734434,734432,734465,753767,753767,2023-03-13T11:08:45Z,753823,NULL,Ergänzung,kijalizo,s,ulaghai,mustarehe,matangazo,kijalizo,NA,NA,2,NA,NA,NA,NA,NA,NA,NA,NA,NA,NA,NA,NA,NA,NA,NA,NA,NA,NA,NA
d9c5c,"""Richtig""-Screen",canvas.Screen,3_0_2_0_5_1_1,NA,NA,timeout,5010,753768,753786,753823,758800,758800,2023-03-13T11:08:50Z,758833,NULL,Ergänzung,kijalizo,s,ulaghai,mustarehe,matangazo,NA,sdf,1,2,NA,NA,NA,NA,NA,NA,NA,NA,NA,NA,NA,NA,NA,NA,NA,NA,NA,NA,NA
d9c5c,"""Falsch""-Screen",canvas.Screen,3_0_2_0_5_1_2,NA,NA,skipped,NA,758801,NA,NA,758800,758802,2023-03-13T11:08:50Z,758833,NULL,Ergänzung,kijalizo,s,ulaghai,mustarehe,matangazo,NA,sdf,NA,2,NA,NA,NA,NA,NA,NA,NA,NA,NA,NA,NA,NA,NA,NA,NA,NA,NA,NA,NA
d9c5c,shallow,flow.Sequence,3_0_2_0_5_1,NA,NA,completion,24335,734434,734432,734465,758800,758802,2023-03-13T11:08:50Z,758833,NULL,Ergänzung,kijalizo,s,ulaghai,mustarehe,matangazo,NA,sdf,NA,2,NA,NA,NA,NA,NA,NA,NA,NA,NA,NA,NA,NA,NA,NA,NA,NA,NA,NA,NA
d9c5c,task,flow.Sequence,3_0_2_0_5,NA,NA,completion,24335,734433,734432,734465,758800,758802,2023-03-13T11:08:50Z,758833,NULL,Ergänzung,kijalizo,s,ulaghai,mustarehe,matangazo,NA,sdf,NA,2,NA,NA,NA,NA,NA,NA,NA,NA,NA,NA,NA,NA,NA,NA,NA,NA,NA,NA,NA
d9c5c,Deep Question,html.Page,3_0_2_0_6_0_0,NA,NA,form submission,7445,758802,758800,758833,766278,766278,2023-03-13T11:08:57Z,766341,NULL,Notfall,dharura,d,NA,NA,NA,uru,NA,NA,2,NA,NA,NA,NA,NA,NA,NA,NA,NA,NA,NA,NA,NA,NA,NA,NA,NA,NA,NA
d9c5c,"""Richtig""-Screen",canvas.Screen,3_0_2_0_6_0_1,NA,NA,skipped,NA,766279,NA,NA,766278,766279,2023-03-13T11:08:57Z,766341,NULL,Notfall,dharura,d,NA,NA,NA,NA,sdf,NA,2,NA,NA,NA,NA,NA,NA,NA,NA,NA,NA,NA,NA,NA,NA,NA,NA,NA,NA,NA
d9c5c,"""Falsch""-Screen",canvas.Screen,3_0_2_0_6_0_2,NA,NA,timeout,5005,766280,766303,766341,771313,771313,2023-03-13T11:09:02Z,771346,NULL,Notfall,dharura,d,NA,NA,NA,NA,sdf,0,2,NA,NA,NA,NA,NA,NA,NA,NA,NA,NA,NA,NA,NA,NA,NA,NA,NA,NA,NA
d9c5c,deep,flow.Sequence,3_0_2_0_6_0,NA,NA,completion,12480,758802,758800,758833,771313,771313,2023-03-13T11:09:02Z,771346,NULL,Notfall,dharura,d,NA,NA,NA,NA,sdf,NA,2,NA,NA,NA,NA,NA,NA,NA,NA,NA,NA,NA,NA,NA,NA,NA,NA,NA,NA,NA
d9c5c,shallow,flow.Sequence,3_0_2_0_6_1,NA,NA,skipped,NA,771313,NA,NA,771313,771314,2023-03-13T11:09:02Z,771346,NULL,Notfall,dharura,d,NA,NA,NA,NA,sdf,NA,2,NA,NA,NA,NA,NA,NA,NA,NA,NA,NA,NA,NA,NA,NA,NA,NA,NA,NA,NA
d9c5c,task,flow.Sequence,3_0_2_0_6,NA,NA,completion,12480,758802,758800,758833,771313,771314,2023-03-13T11:09:02Z,771346,NULL,Notfall,dharura,d,NA,NA,NA,NA,sdf,NA,2,NA,NA,NA,NA,NA,NA,NA,NA,NA,NA,NA,NA,NA,NA,NA,NA,NA,NA,NA
d9c5c,Deep Question,html.Page,3_0_2_0_7_0_0,NA,NA,form submission,17148,771314,771313,771346,788494,788495,2023-03-13T11:09:19Z,788545,NULL,Gelegenheit,wakati,d,NA,NA,NA,wakati,NA,NA,2,NA,NA,NA,NA,NA,NA,NA,NA,NA,NA,NA,NA,NA,NA,NA,NA,NA,NA,NA
d9c5c,"""Richtig""-Screen",canvas.Screen,3_0_2_0_7_0_1,NA,NA,timeout,5011,788495,788513,788545,793523,793524,2023-03-13T11:09:24Z,793556,NULL,Gelegenheit,wakati,d,NA,NA,NA,NA,sdf,1,2,NA,NA,NA,NA,NA,NA,NA,NA,NA,NA,NA,NA,NA,NA,NA,NA,NA,NA,NA
d9c5c,"""Falsch""-Screen",canvas.Screen,3_0_2_0_7_0_2,NA,NA,skipped,NA,793525,NA,NA,793523,793525,2023-03-13T11:09:24Z,793556,NULL,Gelegenheit,wakati,d,NA,NA,NA,NA,sdf,NA,2,NA,NA,NA,NA,NA,NA,NA,NA,NA,NA,NA,NA,NA,NA,NA,NA,NA,NA,NA
d9c5c,deep,flow.Sequence,3_0_2_0_7_0,NA,NA,completion,22177,771314,771313,771346,793523,793525,2023-03-13T11:09:24Z,793556,NULL,Gelegenheit,wakati,d,NA,NA,NA,NA,sdf,NA,2,NA,NA,NA,NA,NA,NA,NA,NA,NA,NA,NA,NA,NA,NA,NA,NA,NA,NA,NA
d9c5c,shallow,flow.Sequence,3_0_2_0_7_1,NA,NA,skipped,NA,793525,NA,NA,793523,793525,2023-03-13T11:09:24Z,793556,NULL,Gelegenheit,wakati,d,NA,NA,NA,NA,sdf,NA,2,NA,NA,NA,NA,NA,NA,NA,NA,NA,NA,NA,NA,NA,NA,NA,NA,NA,NA,NA
d9c5c,task,flow.Sequence,3_0_2_0_7,NA,NA,completion,22177,771314,771313,771346,793523,793526,2023-03-13T11:09:24Z,793556,NULL,Gelegenheit,wakati,d,NA,NA,NA,NA,sdf,NA,2,NA,NA,NA,NA,NA,NA,NA,NA,NA,NA,NA,NA,NA,NA,NA,NA,NA,NA,NA
d9c5c,block,flow.Loop,3_0_2_0,NA,NA,completion,156795,636688,636694,636728,793523,793526,2023-03-13T11:09:24Z,793556,NULL,NA,NA,NA,NA,NA,NA,NA,sdf,NA,2,NA,NA,NA,NA,NA,NA,NA,NA,NA,NA,NA,NA,NA,NA,NA,NA,NA,NA,NA
d9c5c,weiter,canvas.Screen,3_0_2_1,sdf,keypress(Space),response,1372,793526,793523,793556,794895,794963,2023-03-13T11:09:26Z,795027,NULL,NA,NA,NA,NA,NA,NA,NA,sdf,NA,2,NA,NA,NA,NA,NA,NA,NA,NA,NA,NA,NA,NA,NA,NA,NA,NA,NA,NA,NA
d9c5c,check continue,flow.Sequence,3_0_2,NA,NA,completion,158167,636688,636694,636728,794895,794964,2023-03-13T11:09:26Z,795027,NULL,NA,NA,NA,NA,NA,NA,NA,sdf,NA,2,NA,NA,NA,NA,NA,NA,NA,NA,NA,NA,NA,NA,NA,NA,NA,NA,NA,NA,NA
d9c5c,Deep Question,html.Page,3_0_3_0_0_0_0,NA,NA,form submission,5557.0000000001,794986,794993,795027,800584,800584,2023-03-13T11:09:31Z,800630,NULL,Gelegenheit,wakati,d,NA,NA,NA,wakati,NA,NA,3,NA,NA,NA,NA,NA,NA,NA,NA,NA,NA,NA,NA,NA,NA,NA,NA,NA,NA,NA
d9c5c,"""Richtig""-Screen",canvas.Screen,3_0_3_0_0_0_1,NA,NA,timeout,5000,800585,800595,800630,805598,805599,2023-03-13T11:09:36Z,805630,NULL,Gelegenheit,wakati,d,NA,NA,NA,NA,qt,1,3,NA,NA,NA,NA,NA,NA,NA,NA,NA,NA,NA,NA,NA,NA,NA,NA,NA,NA,NA
d9c5c,"""Falsch""-Screen",canvas.Screen,3_0_3_0_0_0_2,NA,NA,skipped,NA,805599,NA,NA,805598,805600,2023-03-13T11:09:36Z,805630,NULL,Gelegenheit,wakati,d,NA,NA,NA,NA,qt,NA,3,NA,NA,NA,NA,NA,NA,NA,NA,NA,NA,NA,NA,NA,NA,NA,NA,NA,NA,NA
d9c5c,deep,flow.Sequence,3_0_3_0_0_0,NA,NA,completion,10571,794986,794993,795027,805598,805600,2023-03-13T11:09:36Z,805630,NULL,Gelegenheit,wakati,d,NA,NA,NA,NA,qt,NA,3,NA,NA,NA,NA,NA,NA,NA,NA,NA,NA,NA,NA,NA,NA,NA,NA,NA,NA,NA
d9c5c,shallow,flow.Sequence,3_0_3_0_0_1,NA,NA,skipped,NA,805600,NA,NA,805598,805600,2023-03-13T11:09:36Z,805630,NULL,Gelegenheit,wakati,d,NA,NA,NA,NA,qt,NA,3,NA,NA,NA,NA,NA,NA,NA,NA,NA,NA,NA,NA,NA,NA,NA,NA,NA,NA,NA
d9c5c,task,flow.Sequence,3_0_3_0_0,NA,NA,completion,10571,794986,794993,795027,805598,805600,2023-03-13T11:09:36Z,805630,NULL,Gelegenheit,wakati,d,NA,NA,NA,NA,qt,NA,3,NA,NA,NA,NA,NA,NA,NA,NA,NA,NA,NA,NA,NA,NA,NA,NA,NA,NA,NA
d9c5c,deep,flow.Sequence,3_0_3_0_1_0,NA,NA,skipped,NA,805600,NA,NA,805598,805600,2023-03-13T11:09:36Z,805630,NULL,Widerstand,usulubu,s,kusababisha,mwalimu,mwenendo,NA,qt,NA,3,NA,NA,NA,NA,NA,NA,NA,NA,NA,NA,NA,NA,NA,NA,NA,NA,NA,NA,NA
d9c5c,Shallow Question,html.Page,3_0_3_0_1_1_0,NA,NA,form submission,5557,805600,805598,805630,811187,811187,2023-03-13T11:09:42Z,811245,NULL,Widerstand,usulubu,s,kusababisha,mwalimu,mwenendo,usulubu,NA,NA,3,NA,NA,NA,NA,NA,NA,NA,NA,NA,NA,NA,NA,NA,NA,NA,NA,NA,NA,NA
d9c5c,"""Richtig""-Screen",canvas.Screen,3_0_3_0_1_1_1,NA,NA,timeout,5004,811188,811212,811245,816216,816217,2023-03-13T11:09:47Z,816249,NULL,Widerstand,usulubu,s,kusababisha,mwalimu,mwenendo,NA,qt,1,3,NA,NA,NA,NA,NA,NA,NA,NA,NA,NA,NA,NA,NA,NA,NA,NA,NA,NA,NA
d9c5c,"""Falsch""-Screen",canvas.Screen,3_0_3_0_1_1_2,NA,NA,skipped,NA,816218,NA,NA,816216,816218,2023-03-13T11:09:47Z,816249,NULL,Widerstand,usulubu,s,kusababisha,mwalimu,mwenendo,NA,qt,NA,3,NA,NA,NA,NA,NA,NA,NA,NA,NA,NA,NA,NA,NA,NA,NA,NA,NA,NA,NA
d9c5c,shallow,flow.Sequence,3_0_3_0_1_1,NA,NA,completion,10586,805600,805598,805630,816216,816218,2023-03-13T11:09:47Z,816249,NULL,Widerstand,usulubu,s,kusababisha,mwalimu,mwenendo,NA,qt,NA,3,NA,NA,NA,NA,NA,NA,NA,NA,NA,NA,NA,NA,NA,NA,NA,NA,NA,NA,NA
d9c5c,task,flow.Sequence,3_0_3_0_1,NA,NA,completion,10586,805600,805598,805630,816216,816218,2023-03-13T11:09:47Z,816249,NULL,Widerstand,usulubu,s,kusababisha,mwalimu,mwenendo,NA,qt,NA,3,NA,NA,NA,NA,NA,NA,NA,NA,NA,NA,NA,NA,NA,NA,NA,NA,NA,NA,NA
d9c5c,deep,flow.Sequence,3_0_3_0_2_0,NA,NA,skipped,NA,816219,NA,NA,816216,816219,2023-03-13T11:09:47Z,816249,NULL,Verstand,ufahamivu,s,shakawa,hadhari,mhandisi,NA,qt,NA,3,NA,NA,NA,NA,NA,NA,NA,NA,NA,NA,NA,NA,NA,NA,NA,NA,NA,NA,NA
d9c5c,Shallow Question,html.Page,3_0_3_0_2_1_0,NA,NA,form submission,19867,816219,816216,816249,836116,836116,2023-03-13T11:10:07Z,836172,NULL,Verstand,ufahamivu,s,shakawa,hadhari,mhandisi,mhandisi,NA,NA,3,NA,NA,NA,NA,NA,NA,NA,NA,NA,NA,NA,NA,NA,NA,NA,NA,NA,NA,NA
d9c5c,"""Richtig""-Screen",canvas.Screen,3_0_3_0_2_1_1,NA,NA,skipped,NA,836117,NA,NA,836116,836117,2023-03-13T11:10:07Z,836172,NULL,Verstand,ufahamivu,s,shakawa,hadhari,mhandisi,NA,qt,NA,3,NA,NA,NA,NA,NA,NA,NA,NA,NA,NA,NA,NA,NA,NA,NA,NA,NA,NA,NA
d9c5c,"""Falsch""-Screen",canvas.Screen,3_0_3_0_2_1_2,NA,NA,timeout,5006,836118,836139,836172,841145,841146,2023-03-13T11:10:12Z,841178,NULL,Verstand,ufahamivu,s,shakawa,hadhari,mhandisi,NA,qt,0,3,NA,NA,NA,NA,NA,NA,NA,NA,NA,NA,NA,NA,NA,NA,NA,NA,NA,NA,NA
d9c5c,shallow,flow.Sequence,3_0_3_0_2_1,NA,NA,completion,24896,816219,816216,816249,841145,841146,2023-03-13T11:10:12Z,841178,NULL,Verstand,ufahamivu,s,shakawa,hadhari,mhandisi,NA,qt,NA,3,NA,NA,NA,NA,NA,NA,NA,NA,NA,NA,NA,NA,NA,NA,NA,NA,NA,NA,NA
d9c5c,task,flow.Sequence,3_0_3_0_2,NA,NA,completion,24896,816219,816216,816249,841145,841146,2023-03-13T11:10:12Z,841178,NULL,Verstand,ufahamivu,s,shakawa,hadhari,mhandisi,NA,qt,NA,3,NA,NA,NA,NA,NA,NA,NA,NA,NA,NA,NA,NA,NA,NA,NA,NA,NA,NA,NA
d9c5c,deep,flow.Sequence,3_0_3_0_3_0,NA,NA,skipped,NA,841147,NA,NA,841145,841147,2023-03-13T11:10:12Z,841178,NULL,Wohlstand,mafanikio,s,chimbuko,kumbuko,mapwaji,NA,qt,NA,3,NA,NA,NA,NA,NA,NA,NA,NA,NA,NA,NA,NA,NA,NA,NA,NA,NA,NA,NA
d9c5c,Shallow Question,html.Page,3_0_3_0_3_1_0,NA,NA,form submission,11376,841147,841145,841178,852554,852554,2023-03-13T11:10:23Z,852592,NULL,Wohlstand,mafanikio,s,chimbuko,kumbuko,mapwaji,mafanikio,NA,NA,3,NA,NA,NA,NA,NA,NA,NA,NA,NA,NA,NA,NA,NA,NA,NA,NA,NA,NA,NA
d9c5c,"""Richtig""-Screen",canvas.Screen,3_0_3_0_3_1_1,NA,NA,timeout,5007,852555,852559,852592,857565,857566,2023-03-13T11:10:28Z,857599,NULL,Wohlstand,mafanikio,s,chimbuko,kumbuko,mapwaji,NA,qt,1,3,NA,NA,NA,NA,NA,NA,NA,NA,NA,NA,NA,NA,NA,NA,NA,NA,NA,NA,NA
d9c5c,"""Falsch""-Screen",canvas.Screen,3_0_3_0_3_1_2,NA,NA,skipped,NA,857567,NA,NA,857565,857567,2023-03-13T11:10:28Z,857599,NULL,Wohlstand,mafanikio,s,chimbuko,kumbuko,mapwaji,NA,qt,NA,3,NA,NA,NA,NA,NA,NA,NA,NA,NA,NA,NA,NA,NA,NA,NA,NA,NA,NA,NA
d9c5c,shallow,flow.Sequence,3_0_3_0_3_1,NA,NA,completion,16387,841147,841145,841178,857565,857567,2023-03-13T11:10:28Z,857599,NULL,Wohlstand,mafanikio,s,chimbuko,kumbuko,mapwaji,NA,qt,NA,3,NA,NA,NA,NA,NA,NA,NA,NA,NA,NA,NA,NA,NA,NA,NA,NA,NA,NA,NA
d9c5c,task,flow.Sequence,3_0_3_0_3,NA,NA,completion,16387,841146,841145,841178,857565,857567,2023-03-13T11:10:28Z,857599,NULL,Wohlstand,mafanikio,s,chimbuko,kumbuko,mapwaji,NA,qt,NA,3,NA,NA,NA,NA,NA,NA,NA,NA,NA,NA,NA,NA,NA,NA,NA,NA,NA,NA,NA
d9c5c,Deep Question,html.Page,3_0_3_0_4_0_0,NA,NA,form submission,10481,857567,857565,857599,868080,868080,2023-03-13T11:10:39Z,868143,NULL,Ausschluss,kutengwa,d,NA,NA,NA,k,NA,NA,3,NA,NA,NA,NA,NA,NA,NA,NA,NA,NA,NA,NA,NA,NA,NA,NA,NA,NA,NA
d9c5c,"""Richtig""-Screen",canvas.Screen,3_0_3_0_4_0_1,NA,NA,skipped,NA,868081,NA,NA,868080,868081,2023-03-13T11:10:39Z,868143,NULL,Ausschluss,kutengwa,d,NA,NA,NA,NA,qt,NA,3,NA,NA,NA,NA,NA,NA,NA,NA,NA,NA,NA,NA,NA,NA,NA,NA,NA,NA,NA
d9c5c,"""Falsch""-Screen",canvas.Screen,3_0_3_0_4_0_2,NA,NA,timeout,5008,868082,868106,868143,873117,873117,2023-03-13T11:10:44Z,873151,NULL,Ausschluss,kutengwa,d,NA,NA,NA,NA,qt,0,3,NA,NA,NA,NA,NA,NA,NA,NA,NA,NA,NA,NA,NA,NA,NA,NA,NA,NA,NA
d9c5c,deep,flow.Sequence,3_0_3_0_4_0,NA,NA,completion,15518,857567,857565,857599,873117,873118,2023-03-13T11:10:44Z,873151,NULL,Ausschluss,kutengwa,d,NA,NA,NA,NA,qt,NA,3,NA,NA,NA,NA,NA,NA,NA,NA,NA,NA,NA,NA,NA,NA,NA,NA,NA,NA,NA
d9c5c,shallow,flow.Sequence,3_0_3_0_4_1,NA,NA,skipped,NA,873118,NA,NA,873117,873118,2023-03-13T11:10:44Z,873151,NULL,Ausschluss,kutengwa,d,NA,NA,NA,NA,qt,NA,3,NA,NA,NA,NA,NA,NA,NA,NA,NA,NA,NA,NA,NA,NA,NA,NA,NA,NA,NA
d9c5c,task,flow.Sequence,3_0_3_0_4,NA,NA,completion,15518,857567,857565,857599,873117,873118,2023-03-13T11:10:44Z,873151,NULL,Ausschluss,kutengwa,d,NA,NA,NA,NA,qt,NA,3,NA,NA,NA,NA,NA,NA,NA,NA,NA,NA,NA,NA,NA,NA,NA,NA,NA,NA,NA
d9c5c,Deep Question,html.Page,3_0_3_0_5_0_0,NA,NA,form submission,18319,873118,873117,873151,891470,891470,2023-03-13T11:11:02Z,891526,NULL,Vergnügen,kichekesho,d,NA,NA,NA,ju,NA,NA,3,NA,NA,NA,NA,NA,NA,NA,NA,NA,NA,NA,NA,NA,NA,NA,NA,NA,NA,NA
d9c5c,"""Richtig""-Screen",canvas.Screen,3_0_3_0_5_0_1,NA,NA,skipped,NA,891472,NA,NA,891470,891472,2023-03-13T11:11:02Z,891526,NULL,Vergnügen,kichekesho,d,NA,NA,NA,NA,qt,NA,3,NA,NA,NA,NA,NA,NA,NA,NA,NA,NA,NA,NA,NA,NA,NA,NA,NA,NA,NA
d9c5c,"""Falsch""-Screen",canvas.Screen,3_0_3_0_5_0_2,NA,NA,timeout,5002,891473,891488,891526,896495,896495,2023-03-13T11:11:07Z,896528,NULL,Vergnügen,kichekesho,d,NA,NA,NA,NA,qt,0,3,NA,NA,NA,NA,NA,NA,NA,NA,NA,NA,NA,NA,NA,NA,NA,NA,NA,NA,NA
d9c5c,deep,flow.Sequence,3_0_3_0_5_0,NA,NA,completion,23344,873118,873117,873151,896495,896496,2023-03-13T11:11:07Z,896528,NULL,Vergnügen,kichekesho,d,NA,NA,NA,NA,qt,NA,3,NA,NA,NA,NA,NA,NA,NA,NA,NA,NA,NA,NA,NA,NA,NA,NA,NA,NA,NA
d9c5c,shallow,flow.Sequence,3_0_3_0_5_1,NA,NA,skipped,NA,896496,NA,NA,896495,896496,2023-03-13T11:11:07Z,896528,NULL,Vergnügen,kichekesho,d,NA,NA,NA,NA,qt,NA,3,NA,NA,NA,NA,NA,NA,NA,NA,NA,NA,NA,NA,NA,NA,NA,NA,NA,NA,NA
d9c5c,task,flow.Sequence,3_0_3_0_5,NA,NA,completion,23344,873118,873117,873151,896495,896496,2023-03-13T11:11:07Z,896528,NULL,Vergnügen,kichekesho,d,NA,NA,NA,NA,qt,NA,3,NA,NA,NA,NA,NA,NA,NA,NA,NA,NA,NA,NA,NA,NA,NA,NA,NA,NA,NA
d9c5c,Deep Question,html.Page,3_0_3_0_6_0_0,NA,NA,form submission,13920,896496,896495,896528,910448,910448,2023-03-13T11:11:21Z,910504,NULL,Notfall,dharura,d,NA,NA,NA,noaha,NA,NA,3,NA,NA,NA,NA,NA,NA,NA,NA,NA,NA,NA,NA,NA,NA,NA,NA,NA,NA,NA
d9c5c,"""Richtig""-Screen",canvas.Screen,3_0_3_0_6_0_1,NA,NA,skipped,NA,910449,NA,NA,910448,910449,2023-03-13T11:11:21Z,910504,NULL,Notfall,dharura,d,NA,NA,NA,NA,qt,NA,3,NA,NA,NA,NA,NA,NA,NA,NA,NA,NA,NA,NA,NA,NA,NA,NA,NA,NA,NA
d9c5c,"""Falsch""-Screen",canvas.Screen,3_0_3_0_6_0_2,NA,NA,timeout,5003,910450,910466,910504,915473,915474,2023-03-13T11:11:26Z,915507,NULL,Notfall,dharura,d,NA,NA,NA,NA,qt,0,3,NA,NA,NA,NA,NA,NA,NA,NA,NA,NA,NA,NA,NA,NA,NA,NA,NA,NA,NA
d9c5c,deep,flow.Sequence,3_0_3_0_6_0,NA,NA,completion,18945,896496,896495,896528,915473,915474,2023-03-13T11:11:26Z,915507,NULL,Notfall,dharura,d,NA,NA,NA,NA,qt,NA,3,NA,NA,NA,NA,NA,NA,NA,NA,NA,NA,NA,NA,NA,NA,NA,NA,NA,NA,NA
d9c5c,shallow,flow.Sequence,3_0_3_0_6_1,NA,NA,skipped,NA,915475,NA,NA,915473,915475,2023-03-13T11:11:26Z,915507,NULL,Notfall,dharura,d,NA,NA,NA,NA,qt,NA,3,NA,NA,NA,NA,NA,NA,NA,NA,NA,NA,NA,NA,NA,NA,NA,NA,NA,NA,NA
d9c5c,task,flow.Sequence,3_0_3_0_6,NA,NA,completion,18945,896496,896495,896528,915473,915475,2023-03-13T11:11:26Z,915507,NULL,Notfall,dharura,d,NA,NA,NA,NA,qt,NA,3,NA,NA,NA,NA,NA,NA,NA,NA,NA,NA,NA,NA,NA,NA,NA,NA,NA,NA,NA
d9c5c,deep,flow.Sequence,3_0_3_0_7_0,NA,NA,skipped,NA,915475,NA,NA,915473,915475,2023-03-13T11:11:26Z,915507,NULL,Ergänzung,kijalizo,s,ulaghai,mustarehe,matangazo,NA,qt,NA,3,NA,NA,NA,NA,NA,NA,NA,NA,NA,NA,NA,NA,NA,NA,NA,NA,NA,NA,NA
d9c5c,Shallow Question,html.Page,3_0_3_0_7_1_0,NA,NA,form submission,19940,915475,915473,915507,935447,935447,2023-03-13T11:11:46Z,935504,NULL,Ergänzung,kijalizo,s,ulaghai,mustarehe,matangazo,kijalizo,NA,NA,3,NA,NA,NA,NA,NA,NA,NA,NA,NA,NA,NA,NA,NA,NA,NA,NA,NA,NA,NA
d9c5c,"""Richtig""-Screen",canvas.Screen,3_0_3_0_7_1_1,NA,NA,timeout,5008,935448,935467,935504,940479,940480,2023-03-13T11:11:51Z,940512,NULL,Ergänzung,kijalizo,s,ulaghai,mustarehe,matangazo,NA,qt,1,3,NA,NA,NA,NA,NA,NA,NA,NA,NA,NA,NA,NA,NA,NA,NA,NA,NA,NA,NA
d9c5c,"""Falsch""-Screen",canvas.Screen,3_0_3_0_7_1_2,NA,NA,skipped,NA,940481,NA,NA,940479,940481,2023-03-13T11:11:51Z,940512,NULL,Ergänzung,kijalizo,s,ulaghai,mustarehe,matangazo,NA,qt,NA,3,NA,NA,NA,NA,NA,NA,NA,NA,NA,NA,NA,NA,NA,NA,NA,NA,NA,NA,NA
d9c5c,shallow,flow.Sequence,3_0_3_0_7_1,NA,NA,completion,24972,915475,915473,915507,940479,940482,2023-03-13T11:11:51Z,940512,NULL,Ergänzung,kijalizo,s,ulaghai,mustarehe,matangazo,NA,qt,NA,3,NA,NA,NA,NA,NA,NA,NA,NA,NA,NA,NA,NA,NA,NA,NA,NA,NA,NA,NA
d9c5c,task,flow.Sequence,3_0_3_0_7,NA,NA,completion,24972,915475,915473,915507,940479,940482,2023-03-13T11:11:51Z,940512,NULL,Ergänzung,kijalizo,s,ulaghai,mustarehe,matangazo,NA,qt,NA,3,NA,NA,NA,NA,NA,NA,NA,NA,NA,NA,NA,NA,NA,NA,NA,NA,NA,NA,NA
d9c5c,block,flow.Loop,3_0_3_0,NA,NA,completion,145452,794986,794993,795027,940479,940482,2023-03-13T11:11:51Z,940512,NULL,NA,NA,NA,NA,NA,NA,NA,qt,NA,3,NA,NA,NA,NA,NA,NA,NA,NA,NA,NA,NA,NA,NA,NA,NA,NA,NA,NA,NA
d9c5c,weiter,canvas.Screen,3_0_3_1,sdf,keypress(Space),response,1070,940482,940479,940512,941549,941621,2023-03-13T11:11:53Z,941696,NULL,NA,NA,NA,NA,NA,NA,NA,qt,NA,3,NA,NA,NA,NA,NA,NA,NA,NA,NA,NA,NA,NA,NA,NA,NA,NA,NA,NA,NA
d9c5c,check continue,flow.Sequence,3_0_3,NA,NA,completion,146522,794986,794993,795027,941549,941622,2023-03-13T11:11:53Z,941696,NULL,NA,NA,NA,NA,NA,NA,NA,qt,NA,3,NA,NA,NA,NA,NA,NA,NA,NA,NA,NA,NA,NA,NA,NA,NA,NA,NA,NA,NA
d9c5c,deep,flow.Sequence,3_0_4_0_0_0,NA,NA,skipped,NA,941644,NA,NA,941549,941644,2023-03-13T11:11:53Z,941696,NULL,Ergänzung,kijalizo,s,ulaghai,mustarehe,matangazo,NA,sd,NA,4,NA,NA,NA,NA,NA,NA,NA,NA,NA,NA,NA,NA,NA,NA,NA,NA,NA,NA,NA
d9c5c,Shallow Question,html.Page,3_0_4_0_0_1_0,NA,NA,form submission,3086,941644,941663,941696,944782,944783,2023-03-13T11:11:56Z,944823,NULL,Ergänzung,kijalizo,s,ulaghai,mustarehe,matangazo,kijalizo,NA,NA,4,NA,NA,NA,NA,NA,NA,NA,NA,NA,NA,NA,NA,NA,NA,NA,NA,NA,NA,NA
d9c5c,"""Richtig""-Screen",canvas.Screen,3_0_4_0_0_1_1,NA,NA,timeout,5007,944784,944787,944823,949797,949798,2023-03-13T11:12:01Z,949830,NULL,Ergänzung,kijalizo,s,ulaghai,mustarehe,matangazo,NA,sd,1,4,NA,NA,NA,NA,NA,NA,NA,NA,NA,NA,NA,NA,NA,NA,NA,NA,NA,NA,NA
d9c5c,"""Falsch""-Screen",canvas.Screen,3_0_4_0_0_1_2,NA,NA,skipped,NA,949799,NA,NA,949797,949799,2023-03-13T11:12:01Z,949830,NULL,Ergänzung,kijalizo,s,ulaghai,mustarehe,matangazo,NA,sd,NA,4,NA,NA,NA,NA,NA,NA,NA,NA,NA,NA,NA,NA,NA,NA,NA,NA,NA,NA,NA
d9c5c,shallow,flow.Sequence,3_0_4_0_0_1,NA,NA,completion,8101,941644,941663,941696,949797,949799,2023-03-13T11:12:01Z,949830,NULL,Ergänzung,kijalizo,s,ulaghai,mustarehe,matangazo,NA,sd,NA,4,NA,NA,NA,NA,NA,NA,NA,NA,NA,NA,NA,NA,NA,NA,NA,NA,NA,NA,NA
d9c5c,task,flow.Sequence,3_0_4_0_0,NA,NA,completion,8101,941644,941663,941696,949797,949799,2023-03-13T11:12:01Z,949830,NULL,Ergänzung,kijalizo,s,ulaghai,mustarehe,matangazo,NA,sd,NA,4,NA,NA,NA,NA,NA,NA,NA,NA,NA,NA,NA,NA,NA,NA,NA,NA,NA,NA,NA
d9c5c,deep,flow.Sequence,3_0_4_0_1_0,NA,NA,skipped,NA,949799,NA,NA,949797,949799,2023-03-13T11:12:01Z,949830,NULL,Wohlstand,mafanikio,s,chimbuko,kumbuko,mapwaji,NA,sd,NA,4,NA,NA,NA,NA,NA,NA,NA,NA,NA,NA,NA,NA,NA,NA,NA,NA,NA,NA,NA
d9c5c,Shallow Question,html.Page,3_0_4_0_1_1_0,NA,NA,form submission,6256,949799,949797,949830,956086,956086,2023-03-13T11:12:07Z,956117,NULL,Wohlstand,mafanikio,s,chimbuko,kumbuko,mapwaji,mafanikio,NA,NA,4,NA,NA,NA,NA,NA,NA,NA,NA,NA,NA,NA,NA,NA,NA,NA,NA,NA,NA,NA
d9c5c,"""Richtig""-Screen",canvas.Screen,3_0_4_0_1_1_1,NA,NA,timeout,5004,956087,956091,956117,961087,961088,2023-03-13T11:12:12Z,961121,NULL,Wohlstand,mafanikio,s,chimbuko,kumbuko,mapwaji,NA,sd,1,4,NA,NA,NA,NA,NA,NA,NA,NA,NA,NA,NA,NA,NA,NA,NA,NA,NA,NA,NA
d9c5c,"""Falsch""-Screen",canvas.Screen,3_0_4_0_1_1_2,NA,NA,skipped,NA,961089,NA,NA,961087,961089,2023-03-13T11:12:12Z,961121,NULL,Wohlstand,mafanikio,s,chimbuko,kumbuko,mapwaji,NA,sd,NA,4,NA,NA,NA,NA,NA,NA,NA,NA,NA,NA,NA,NA,NA,NA,NA,NA,NA,NA,NA
d9c5c,shallow,flow.Sequence,3_0_4_0_1_1,NA,NA,completion,11257,949799,949797,949830,961087,961089,2023-03-13T11:12:12Z,961121,NULL,Wohlstand,mafanikio,s,chimbuko,kumbuko,mapwaji,NA,sd,NA,4,NA,NA,NA,NA,NA,NA,NA,NA,NA,NA,NA,NA,NA,NA,NA,NA,NA,NA,NA
d9c5c,task,flow.Sequence,3_0_4_0_1,NA,NA,completion,11257,949799,949797,949830,961087,961090,2023-03-13T11:12:12Z,961121,NULL,Wohlstand,mafanikio,s,chimbuko,kumbuko,mapwaji,NA,sd,NA,4,NA,NA,NA,NA,NA,NA,NA,NA,NA,NA,NA,NA,NA,NA,NA,NA,NA,NA,NA
d9c5c,Deep Question,html.Page,3_0_4_0_2_0_0,NA,NA,form submission,5299.0000000001,961090,961087,961121,966420,966420,2023-03-13T11:12:17Z,966468,NULL,Gelegenheit,wakati,d,NA,NA,NA,wakati,NA,NA,4,NA,NA,NA,NA,NA,NA,NA,NA,NA,NA,NA,NA,NA,NA,NA,NA,NA,NA,NA
d9c5c,"""Richtig""-Screen",canvas.Screen,3_0_4_0_2_0_1,NA,NA,timeout,4999,966421,966434,966468,971434,971435,2023-03-13T11:12:22Z,971467,NULL,Gelegenheit,wakati,d,NA,NA,NA,NA,sd,1,4,NA,NA,NA,NA,NA,NA,NA,NA,NA,NA,NA,NA,NA,NA,NA,NA,NA,NA,NA
d9c5c,"""Falsch""-Screen",canvas.Screen,3_0_4_0_2_0_2,NA,NA,skipped,NA,971436,NA,NA,971434,971436,2023-03-13T11:12:22Z,971467,NULL,Gelegenheit,wakati,d,NA,NA,NA,NA,sd,NA,4,NA,NA,NA,NA,NA,NA,NA,NA,NA,NA,NA,NA,NA,NA,NA,NA,NA,NA,NA
d9c5c,deep,flow.Sequence,3_0_4_0_2_0,NA,NA,completion,10313,961090,961087,961121,971434,971436,2023-03-13T11:12:22Z,971467,NULL,Gelegenheit,wakati,d,NA,NA,NA,NA,sd,NA,4,NA,NA,NA,NA,NA,NA,NA,NA,NA,NA,NA,NA,NA,NA,NA,NA,NA,NA,NA
d9c5c,shallow,flow.Sequence,3_0_4_0_2_1,NA,NA,skipped,NA,971436,NA,NA,971434,971436,2023-03-13T11:12:22Z,971467,NULL,Gelegenheit,wakati,d,NA,NA,NA,NA,sd,NA,4,NA,NA,NA,NA,NA,NA,NA,NA,NA,NA,NA,NA,NA,NA,NA,NA,NA,NA,NA
d9c5c,task,flow.Sequence,3_0_4_0_2,NA,NA,completion,10313,961090,961087,961121,971434,971436,2023-03-13T11:12:22Z,971467,NULL,Gelegenheit,wakati,d,NA,NA,NA,NA,sd,NA,4,NA,NA,NA,NA,NA,NA,NA,NA,NA,NA,NA,NA,NA,NA,NA,NA,NA,NA,NA
d9c5c,Deep Question,html.Page,3_0_4_0_3_0_0,NA,NA,form submission,19537,971437,971434,971467,991004,991005,2023-03-13T11:12:42Z,991075,NULL,Vergnügen,kichekesho,d,NA,NA,NA,huaraki,NA,NA,4,NA,NA,NA,NA,NA,NA,NA,NA,NA,NA,NA,NA,NA,NA,NA,NA,NA,NA,NA
d9c5c,"""Richtig""-Screen",canvas.Screen,3_0_4_0_3_0_1,NA,NA,skipped,NA,991005,NA,NA,991004,991006,2023-03-13T11:12:42Z,991075,NULL,Vergnügen,kichekesho,d,NA,NA,NA,NA,sd,NA,4,NA,NA,NA,NA,NA,NA,NA,NA,NA,NA,NA,NA,NA,NA,NA,NA,NA,NA,NA
d9c5c,"""Falsch""-Screen",canvas.Screen,3_0_4_0_3_0_2,NA,NA,timeout,4996,991006,991033,991075,996039,996039,2023-03-13T11:12:47Z,996071,NULL,Vergnügen,kichekesho,d,NA,NA,NA,NA,sd,0,4,NA,NA,NA,NA,NA,NA,NA,NA,NA,NA,NA,NA,NA,NA,NA,NA,NA,NA,NA
d9c5c,deep,flow.Sequence,3_0_4_0_3_0,NA,NA,completion,24572,971437,971434,971467,996039,996040,2023-03-13T11:12:47Z,996071,NULL,Vergnügen,kichekesho,d,NA,NA,NA,NA,sd,NA,4,NA,NA,NA,NA,NA,NA,NA,NA,NA,NA,NA,NA,NA,NA,NA,NA,NA,NA,NA
d9c5c,shallow,flow.Sequence,3_0_4_0_3_1,NA,NA,skipped,NA,996040,NA,NA,996039,996040,2023-03-13T11:12:47Z,996071,NULL,Vergnügen,kichekesho,d,NA,NA,NA,NA,sd,NA,4,NA,NA,NA,NA,NA,NA,NA,NA,NA,NA,NA,NA,NA,NA,NA,NA,NA,NA,NA
d9c5c,task,flow.Sequence,3_0_4_0_3,NA,NA,completion,24572,971436,971434,971467,996039,996040,2023-03-13T11:12:47Z,996071,NULL,Vergnügen,kichekesho,d,NA,NA,NA,NA,sd,NA,4,NA,NA,NA,NA,NA,NA,NA,NA,NA,NA,NA,NA,NA,NA,NA,NA,NA,NA,NA
d9c5c,deep,flow.Sequence,3_0_4_0_4_0,NA,NA,skipped,NA,996040,NA,NA,996039,996040,2023-03-13T11:12:47Z,996071,NULL,Widerstand,usulubu,s,kusababisha,mwalimu,mwenendo,NA,sd,NA,4,NA,NA,NA,NA,NA,NA,NA,NA,NA,NA,NA,NA,NA,NA,NA,NA,NA,NA,NA
d9c5c,Shallow Question,html.Page,3_0_4_0_4_1_0,NA,NA,form submission,15207,996040,996039,996071,1011278,1011279,2023-03-13T11:13:02Z,1011318,NULL,Widerstand,usulubu,s,kusababisha,mwalimu,mwenendo,usulubu,NA,NA,4,NA,NA,NA,NA,NA,NA,NA,NA,NA,NA,NA,NA,NA,NA,NA,NA,NA,NA,NA
d9c5c,"""Richtig""-Screen",canvas.Screen,3_0_4_0_4_1_1,NA,NA,timeout,5009,1011280,1011284,1011318,1016294,1016295,2023-03-13T11:13:07Z,1016327,NULL,Widerstand,usulubu,s,kusababisha,mwalimu,mwenendo,NA,sd,1,4,NA,NA,NA,NA,NA,NA,NA,NA,NA,NA,NA,NA,NA,NA,NA,NA,NA,NA,NA
d9c5c,"""Falsch""-Screen",canvas.Screen,3_0_4_0_4_1_2,NA,NA,skipped,NA,1016296,NA,NA,1016294,1016296,2023-03-13T11:13:07Z,1016327,NULL,Widerstand,usulubu,s,kusababisha,mwalimu,mwenendo,NA,sd,NA,4,NA,NA,NA,NA,NA,NA,NA,NA,NA,NA,NA,NA,NA,NA,NA,NA,NA,NA,NA
d9c5c,shallow,flow.Sequence,3_0_4_0_4_1,NA,NA,completion,20223,996040,996039,996071,1016294,1016296,2023-03-13T11:13:07Z,1016327,NULL,Widerstand,usulubu,s,kusababisha,mwalimu,mwenendo,NA,sd,NA,4,NA,NA,NA,NA,NA,NA,NA,NA,NA,NA,NA,NA,NA,NA,NA,NA,NA,NA,NA
d9c5c,task,flow.Sequence,3_0_4_0_4,NA,NA,completion,20223,996040,996039,996071,1016294,1016297,2023-03-13T11:13:07Z,1016327,NULL,Widerstand,usulubu,s,kusababisha,mwalimu,mwenendo,NA,sd,NA,4,NA,NA,NA,NA,NA,NA,NA,NA,NA,NA,NA,NA,NA,NA,NA,NA,NA,NA,NA
d9c5c,Deep Question,html.Page,3_0_4_0_5_0_0,NA,NA,form submission,24000,1016297,1016294,1016327,1040327,1040328,2023-03-13T11:13:31Z,1040389,NULL,Notfall,dharura,d,NA,NA,NA,uahriko,NA,NA,4,NA,NA,NA,NA,NA,NA,NA,NA,NA,NA,NA,NA,NA,NA,NA,NA,NA,NA,NA
d9c5c,"""Richtig""-Screen",canvas.Screen,3_0_4_0_5_0_1,NA,NA,skipped,NA,1040328,NA,NA,1040327,1040328,2023-03-13T11:13:31Z,1040389,NULL,Notfall,dharura,d,NA,NA,NA,NA,sd,NA,4,NA,NA,NA,NA,NA,NA,NA,NA,NA,NA,NA,NA,NA,NA,NA,NA,NA,NA,NA
d9c5c,"""Falsch""-Screen",canvas.Screen,3_0_4_0_5_0_2,NA,NA,timeout,5003,1040329,1040357,1040389,1045360,1045360,2023-03-13T11:13:36Z,1045392,NULL,Notfall,dharura,d,NA,NA,NA,NA,sd,0,4,NA,NA,NA,NA,NA,NA,NA,NA,NA,NA,NA,NA,NA,NA,NA,NA,NA,NA,NA
d9c5c,deep,flow.Sequence,3_0_4_0_5_0,NA,NA,completion,29033,1016297,1016294,1016327,1045360,1045361,2023-03-13T11:13:36Z,1045392,NULL,Notfall,dharura,d,NA,NA,NA,NA,sd,NA,4,NA,NA,NA,NA,NA,NA,NA,NA,NA,NA,NA,NA,NA,NA,NA,NA,NA,NA,NA
d9c5c,shallow,flow.Sequence,3_0_4_0_5_1,NA,NA,skipped,NA,1045361,NA,NA,1045360,1045361,2023-03-13T11:13:36Z,1045392,NULL,Notfall,dharura,d,NA,NA,NA,NA,sd,NA,4,NA,NA,NA,NA,NA,NA,NA,NA,NA,NA,NA,NA,NA,NA,NA,NA,NA,NA,NA
d9c5c,task,flow.Sequence,3_0_4_0_5,NA,NA,completion,29033,1016297,1016294,1016327,1045360,1045361,2023-03-13T11:13:36Z,1045392,NULL,Notfall,dharura,d,NA,NA,NA,NA,sd,NA,4,NA,NA,NA,NA,NA,NA,NA,NA,NA,NA,NA,NA,NA,NA,NA,NA,NA,NA,NA
d9c5c,Deep Question,html.Page,3_0_4_0_6_0_0,NA,NA,form submission,22090,1045361,1045360,1045392,1067482,1067483,2023-03-13T11:13:58Z,1067531,NULL,Ausschluss,kutengwa,d,NA,NA,NA,kik,NA,NA,4,NA,NA,NA,NA,NA,NA,NA,NA,NA,NA,NA,NA,NA,NA,NA,NA,NA,NA,NA
d9c5c,"""Richtig""-Screen",canvas.Screen,3_0_4_0_6_0_1,NA,NA,skipped,NA,1067484,NA,NA,1067482,1067484,2023-03-13T11:13:58Z,1067531,NULL,Ausschluss,kutengwa,d,NA,NA,NA,NA,sd,NA,4,NA,NA,NA,NA,NA,NA,NA,NA,NA,NA,NA,NA,NA,NA,NA,NA,NA,NA,NA
d9c5c,"""Falsch""-Screen",canvas.Screen,3_0_4_0_6_0_2,NA,NA,timeout,5007,1067485,1067495,1067531,1072503,1072504,2023-03-13T11:14:03Z,1072538,NULL,Ausschluss,kutengwa,d,NA,NA,NA,NA,sd,0,4,NA,NA,NA,NA,NA,NA,NA,NA,NA,NA,NA,NA,NA,NA,NA,NA,NA,NA,NA
d9c5c,deep,flow.Sequence,3_0_4_0_6_0,NA,NA,completion,27111,1045361,1045360,1045392,1072503,1072504,2023-03-13T11:14:03Z,1072538,NULL,Ausschluss,kutengwa,d,NA,NA,NA,NA,sd,NA,4,NA,NA,NA,NA,NA,NA,NA,NA,NA,NA,NA,NA,NA,NA,NA,NA,NA,NA,NA
d9c5c,shallow,flow.Sequence,3_0_4_0_6_1,NA,NA,skipped,NA,1072505,NA,NA,1072503,1072505,2023-03-13T11:14:03Z,1072538,NULL,Ausschluss,kutengwa,d,NA,NA,NA,NA,sd,NA,4,NA,NA,NA,NA,NA,NA,NA,NA,NA,NA,NA,NA,NA,NA,NA,NA,NA,NA,NA
d9c5c,task,flow.Sequence,3_0_4_0_6,NA,NA,completion,27111,1045361,1045360,1045392,1072503,1072505,2023-03-13T11:14:03Z,1072538,NULL,Ausschluss,kutengwa,d,NA,NA,NA,NA,sd,NA,4,NA,NA,NA,NA,NA,NA,NA,NA,NA,NA,NA,NA,NA,NA,NA,NA,NA,NA,NA
d9c5c,deep,flow.Sequence,3_0_4_0_7_0,NA,NA,skipped,NA,1072505,NA,NA,1072503,1072505,2023-03-13T11:14:03Z,1072538,NULL,Verstand,ufahamivu,s,shakawa,hadhari,mhandisi,NA,sd,NA,4,NA,NA,NA,NA,NA,NA,NA,NA,NA,NA,NA,NA,NA,NA,NA,NA,NA,NA,NA
d9c5c,Shallow Question,html.Page,3_0_4_0_7_1_0,NA,NA,form submission,8546,1072505,1072503,1072538,1081084,1081085,2023-03-13T11:14:12Z,1081129,NULL,Verstand,ufahamivu,s,shakawa,hadhari,mhandisi,mhandisi,NA,NA,4,NA,NA,NA,NA,NA,NA,NA,NA,NA,NA,NA,NA,NA,NA,NA,NA,NA,NA,NA
d9c5c,"""Richtig""-Screen",canvas.Screen,3_0_4_0_7_1_1,NA,NA,skipped,NA,1081085,NA,NA,1081084,1081086,2023-03-13T11:14:12Z,1081129,NULL,Verstand,ufahamivu,s,shakawa,hadhari,mhandisi,NA,sd,NA,4,NA,NA,NA,NA,NA,NA,NA,NA,NA,NA,NA,NA,NA,NA,NA,NA,NA,NA,NA
d9c5c,"""Falsch""-Screen",canvas.Screen,3_0_4_0_7_1_2,NA,NA,timeout,5001,1081086,1081095,1081129,1086095,1086096,2023-03-13T11:14:17Z,1086130,NULL,Verstand,ufahamivu,s,shakawa,hadhari,mhandisi,NA,sd,0,4,NA,NA,NA,NA,NA,NA,NA,NA,NA,NA,NA,NA,NA,NA,NA,NA,NA,NA,NA
d9c5c,shallow,flow.Sequence,3_0_4_0_7_1,NA,NA,completion,13557,1072505,1072503,1072538,1086095,1086096,2023-03-13T11:14:17Z,1086130,NULL,Verstand,ufahamivu,s,shakawa,hadhari,mhandisi,NA,sd,NA,4,NA,NA,NA,NA,NA,NA,NA,NA,NA,NA,NA,NA,NA,NA,NA,NA,NA,NA,NA
d9c5c,task,flow.Sequence,3_0_4_0_7,NA,NA,completion,13557,1072505,1072503,1072538,1086095,1086096,2023-03-13T11:14:17Z,1086130,NULL,Verstand,ufahamivu,s,shakawa,hadhari,mhandisi,NA,sd,NA,4,NA,NA,NA,NA,NA,NA,NA,NA,NA,NA,NA,NA,NA,NA,NA,NA,NA,NA,NA
d9c5c,block,flow.Loop,3_0_4_0,NA,NA,completion,144399,941644,941663,941696,1086095,1086096,2023-03-13T11:14:17Z,1086130,NULL,NA,NA,NA,NA,NA,NA,NA,sd,NA,4,NA,NA,NA,NA,NA,NA,NA,NA,NA,NA,NA,NA,NA,NA,NA,NA,NA,NA,NA
d9c5c,weiter,canvas.Screen,3_0_4_1,sdf,keypress(Space),response,994,1086097,1086095,1086130,1087089,1087165,2023-03-13T11:14:18Z,1087698,NULL,NA,NA,NA,NA,NA,NA,NA,sd,NA,4,NA,NA,NA,NA,NA,NA,NA,NA,NA,NA,NA,NA,NA,NA,NA,NA,NA,NA,NA
d9c5c,check continue,flow.Sequence,3_0_4,NA,NA,completion,145393,941644,941663,941696,1087089,1087165,2023-03-13T11:14:18Z,1087698,NULL,NA,NA,NA,NA,NA,NA,NA,sd,NA,4,NA,NA,NA,NA,NA,NA,NA,NA,NA,NA,NA,NA,NA,NA,NA,NA,NA,NA,NA
d9c5c,check continue,flow.Sequence,3_0_5,NA,NA,skipped,NA,1087188,NA,NA,1087089,1087188,2023-03-13T11:14:18Z,1087698,NULL,NA,NA,NA,NA,NA,NA,NA,sdf,NA,5,NA,NA,NA,NA,NA,NA,NA,NA,NA,NA,NA,NA,NA,NA,NA,NA,NA,NA,NA
d9c5c,check continue,flow.Sequence,3_0_6,NA,NA,skipped,NA,1087211,NA,NA,1087089,1087211,2023-03-13T11:14:18Z,1087698,NULL,NA,NA,NA,NA,NA,NA,NA,dfs,NA,6,NA,NA,NA,NA,NA,NA,NA,NA,NA,NA,NA,NA,NA,NA,NA,NA,NA,NA,NA
d9c5c,check continue,flow.Sequence,3_0_7,NA,NA,skipped,NA,1087231,NA,NA,1087089,1087231,2023-03-13T11:14:18Z,1087698,NULL,NA,NA,NA,NA,NA,NA,NA,df,NA,7,NA,NA,NA,NA,NA,NA,NA,NA,NA,NA,NA,NA,NA,NA,NA,NA,NA,NA,NA
d9c5c,check continue,flow.Sequence,3_0_8,NA,NA,skipped,NA,1087249,NA,NA,1087089,1087250,2023-03-13T11:14:18Z,1087698,NULL,NA,NA,NA,NA,NA,NA,NA,dfs,NA,8,NA,NA,NA,NA,NA,NA,NA,NA,NA,NA,NA,NA,NA,NA,NA,NA,NA,NA,NA
d9c5c,check continue,flow.Sequence,3_0_9,NA,NA,skipped,NA,1087270,NA,NA,1087089,1087270,2023-03-13T11:14:18Z,1087698,NULL,NA,NA,NA,NA,NA,NA,NA,dsf,NA,9,NA,NA,NA,NA,NA,NA,NA,NA,NA,NA,NA,NA,NA,NA,NA,NA,NA,NA,NA
d9c5c,check continue,flow.Sequence,3_0_10,NA,NA,skipped,NA,1087291,NA,NA,1087089,1087291,2023-03-13T11:14:18Z,1087698,NULL,NA,NA,NA,NA,NA,NA,NA,df,NA,10,NA,NA,NA,NA,NA,NA,NA,NA,NA,NA,NA,NA,NA,NA,NA,NA,NA,NA,NA
d9c5c,check continue,flow.Sequence,3_0_11,NA,NA,skipped,NA,1087312,NA,NA,1087089,1087312,2023-03-13T11:14:18Z,1087698,NULL,NA,NA,NA,NA,NA,NA,NA,dfs,NA,11,NA,NA,NA,NA,NA,NA,NA,NA,NA,NA,NA,NA,NA,NA,NA,NA,NA,NA,NA
d9c5c,check continue,flow.Sequence,3_0_12,NA,NA,skipped,NA,1087333,NA,NA,1087089,1087333,2023-03-13T11:14:18Z,1087698,NULL,NA,NA,NA,NA,NA,NA,NA,dsf,NA,12,NA,NA,NA,NA,NA,NA,NA,NA,NA,NA,NA,NA,NA,NA,NA,NA,NA,NA,NA
d9c5c,check continue,flow.Sequence,3_0_13,NA,NA,skipped,NA,1087358,NA,NA,1087089,1087358,2023-03-13T11:14:18Z,1087698,NULL,NA,NA,NA,NA,NA,NA,NA,dsf,NA,13,NA,NA,NA,NA,NA,NA,NA,NA,NA,NA,NA,NA,NA,NA,NA,NA,NA,NA,NA
d9c5c,check continue,flow.Sequence,3_0_14,NA,NA,skipped,NA,1087376,NA,NA,1087089,1087376,2023-03-13T11:14:18Z,1087698,NULL,NA,NA,NA,NA,NA,NA,NA,NA,NA,14,NA,NA,NA,NA,NA,NA,NA,NA,NA,NA,NA,NA,NA,NA,NA,NA,NA,NA,NA
d9c5c,check continue,flow.Sequence,3_0_15,NA,NA,skipped,NA,1087393,NA,NA,1087089,1087393,2023-03-13T11:14:18Z,1087698,NULL,NA,NA,NA,NA,NA,NA,NA,NA,NA,15,NA,NA,NA,NA,NA,NA,NA,NA,NA,NA,NA,NA,NA,NA,NA,NA,NA,NA,NA
d9c5c,check continue,flow.Sequence,3_0_16,NA,NA,skipped,NA,1087410,NA,NA,1087089,1087410,2023-03-13T11:14:18Z,1087698,NULL,NA,NA,NA,NA,NA,NA,NA,NA,NA,16,NA,NA,NA,NA,NA,NA,NA,NA,NA,NA,NA,NA,NA,NA,NA,NA,NA,NA,NA
d9c5c,check continue,flow.Sequence,3_0_17,NA,NA,skipped,NA,1087427,NA,NA,1087089,1087428,2023-03-13T11:14:18Z,1087698,NULL,NA,NA,NA,NA,NA,NA,NA,NA,NA,17,NA,NA,NA,NA,NA,NA,NA,NA,NA,NA,NA,NA,NA,NA,NA,NA,NA,NA,NA
d9c5c,check continue,flow.Sequence,3_0_18,NA,NA,skipped,NA,1087445,NA,NA,1087089,1087445,2023-03-13T11:14:18Z,1087698,NULL,NA,NA,NA,NA,NA,NA,NA,NA,NA,18,NA,NA,NA,NA,NA,NA,NA,NA,NA,NA,NA,NA,NA,NA,NA,NA,NA,NA,NA
d9c5c,check continue,flow.Sequence,3_0_19,NA,NA,skipped,NA,1087468,NA,NA,1087089,1087468,2023-03-13T11:14:18Z,1087698,NULL,NA,NA,NA,NA,NA,NA,NA,NA,NA,19,NA,NA,NA,NA,NA,NA,NA,NA,NA,NA,NA,NA,NA,NA,NA,NA,NA,NA,NA
d9c5c,check continue,flow.Sequence,3_0_20,NA,NA,skipped,NA,1087486,NA,NA,1087089,1087486,2023-03-13T11:14:18Z,1087698,NULL,NA,NA,NA,NA,NA,NA,NA,NA,NA,20,NA,NA,NA,NA,NA,NA,NA,NA,NA,NA,NA,NA,NA,NA,NA,NA,NA,NA,NA
d9c5c,check continue,flow.Sequence,3_0_21,NA,NA,skipped,NA,1087502,NA,NA,1087089,1087503,2023-03-13T11:14:18Z,1087698,NULL,NA,NA,NA,NA,NA,NA,NA,NA,NA,21,NA,NA,NA,NA,NA,NA,NA,NA,NA,NA,NA,NA,NA,NA,NA,NA,NA,NA,NA
d9c5c,check continue,flow.Sequence,3_0_22,NA,NA,skipped,NA,1087519,NA,NA,1087089,1087519,2023-03-13T11:14:18Z,1087698,NULL,NA,NA,NA,NA,NA,NA,NA,NA,NA,22,NA,NA,NA,NA,NA,NA,NA,NA,NA,NA,NA,NA,NA,NA,NA,NA,NA,NA,NA
d9c5c,check continue,flow.Sequence,3_0_23,NA,NA,skipped,NA,1087536,NA,NA,1087089,1087536,2023-03-13T11:14:18Z,1087698,NULL,NA,NA,NA,NA,NA,NA,NA,NA,NA,23,NA,NA,NA,NA,NA,NA,NA,NA,NA,NA,NA,NA,NA,NA,NA,NA,NA,NA,NA
d9c5c,check continue,flow.Sequence,3_0_24,NA,NA,skipped,NA,1087553,NA,NA,1087089,1087553,2023-03-13T11:14:18Z,1087698,NULL,NA,NA,NA,NA,NA,NA,NA,NA,NA,24,NA,NA,NA,NA,NA,NA,NA,NA,NA,NA,NA,NA,NA,NA,NA,NA,NA,NA,NA
d9c5c,check continue,flow.Sequence,3_0_25,NA,NA,skipped,NA,1087576,NA,NA,1087089,1087576,2023-03-13T11:14:18Z,1087698,NULL,NA,NA,NA,NA,NA,NA,NA,NA,NA,25,NA,NA,NA,NA,NA,NA,NA,NA,NA,NA,NA,NA,NA,NA,NA,NA,NA,NA,NA
d9c5c,check continue,flow.Sequence,3_0_26,NA,NA,skipped,NA,1087594,NA,NA,1087089,1087594,2023-03-13T11:14:18Z,1087698,NULL,NA,NA,NA,NA,NA,NA,NA,NA,NA,26,NA,NA,NA,NA,NA,NA,NA,NA,NA,NA,NA,NA,NA,NA,NA,NA,NA,NA,NA
d9c5c,check continue,flow.Sequence,3_0_27,NA,NA,skipped,NA,1087611,NA,NA,1087089,1087611,2023-03-13T11:14:19Z,1087698,NULL,NA,NA,NA,NA,NA,NA,NA,NA,NA,27,NA,NA,NA,NA,NA,NA,NA,NA,NA,NA,NA,NA,NA,NA,NA,NA,NA,NA,NA
d9c5c,check continue,flow.Sequence,3_0_28,NA,NA,skipped,NA,1087627,NA,NA,1087089,1087627,2023-03-13T11:14:19Z,1087698,NULL,NA,NA,NA,NA,NA,NA,NA,NA,NA,28,NA,NA,NA,NA,NA,NA,NA,NA,NA,NA,NA,NA,NA,NA,NA,NA,NA,NA,NA
d9c5c,check continue,flow.Sequence,3_0_29,NA,NA,skipped,NA,1087644,NA,NA,1087089,1087644,2023-03-13T11:14:19Z,1087698,NULL,NA,NA,NA,NA,NA,NA,NA,NA,NA,29,NA,NA,NA,NA,NA,NA,NA,NA,NA,NA,NA,NA,NA,NA,NA,NA,NA,NA,NA
d9c5c,until continue,flow.Loop,3_0,NA,NA,completion,714473,372553,372583,372616,1087089,1087644,2023-03-13T11:14:19Z,1087698,NULL,NA,NA,NA,NA,NA,NA,NA,NA,NA,NA,NA,NA,NA,NA,NA,NA,NA,NA,NA,NA,NA,NA,NA,NA,NA,NA,NA,NA,NA
d9c5c,block 1,flow.Sequence,3,NA,NA,completion,714473,372553,372583,372616,1087089,1087644,2023-03-13T11:14:19Z,1087698,NULL,NA,NA,NA,NA,NA,NA,NA,NA,NA,NA,NA,NA,NA,NA,NA,NA,NA,NA,NA,NA,NA,NA,NA,NA,NA,NA,NA,NA,NA
d9c5c,1.Part Over,canvas.Screen,4,NA,keypress(Space),response,3094,1087644,1087663,1087698,1090757,1090834,2023-03-13T11:14:22Z,1090938,NULL,NA,NA,NA,NA,NA,NA,NA,NA,NA,NA,NA,NA,NA,NA,NA,NA,NA,NA,NA,NA,NA,NA,NA,NA,NA,NA,NA,NA,NA
d9c5c,Deep Question,html.Page,5_0_0_0_0_0_0,NA,NA,form submission,2939,1090890,1090904,1090938,1093877,1093877,2023-03-13T11:14:25Z,1093938,NULL,Tester,wanaojaribu,d,NA,NA,NA,t,NA,NA,0,NA,NA,NA,NA,NA,NA,NA,NA,NA,NA,NA,NA,NA,NA,NA,NA,NA,NA,NA
d9c5c,"""Richtig""-Screen",canvas.Screen,5_0_0_0_0_0_1,NA,NA,skipped,NA,1093878,NA,NA,1093877,1093878,2023-03-13T11:14:25Z,1093938,NULL,Tester,wanaojaribu,d,NA,NA,NA,NA,sdf,NA,0,NA,NA,NA,NA,NA,NA,NA,NA,NA,NA,NA,NA,NA,NA,NA,NA,NA,NA,NA
d9c5c,"""Falsch""-Screen",canvas.Screen,5_0_0_0_0_0_2,NA,NA,timeout,4997,1093879,1093902,1093938,1098901,1098902,2023-03-13T11:14:30Z,1098935,NULL,Tester,wanaojaribu,d,NA,NA,NA,NA,sdf,0,0,NA,NA,NA,NA,NA,NA,NA,NA,NA,NA,NA,NA,NA,NA,NA,NA,NA,NA,NA
d9c5c,deep,flow.Sequence,5_0_0_0_0_0,NA,NA,completion,7963,1090890,1090904,1090938,1098901,1098902,2023-03-13T11:14:30Z,1098935,NULL,Tester,wanaojaribu,d,NA,NA,NA,NA,sdf,NA,0,NA,NA,NA,NA,NA,NA,NA,NA,NA,NA,NA,NA,NA,NA,NA,NA,NA,NA,NA
d9c5c,shallow,flow.Sequence,5_0_0_0_0_1,NA,NA,skipped,NA,1098902,NA,NA,1098901,1098902,2023-03-13T11:14:30Z,1098935,NULL,Tester,wanaojaribu,d,NA,NA,NA,NA,sdf,NA,0,NA,NA,NA,NA,NA,NA,NA,NA,NA,NA,NA,NA,NA,NA,NA,NA,NA,NA,NA
d9c5c,task,flow.Sequence,5_0_0_0_0,NA,NA,completion,7963,1090890,1090904,1090938,1098901,1098902,2023-03-13T11:14:30Z,1098935,NULL,Tester,wanaojaribu,d,NA,NA,NA,NA,sdf,NA,0,NA,NA,NA,NA,NA,NA,NA,NA,NA,NA,NA,NA,NA,NA,NA,NA,NA,NA,NA
d9c5c,Deep Question,html.Page,5_0_0_0_1_0_0,NA,NA,form submission,24077,1098902,1098901,1098935,1123012,1123012,2023-03-13T11:14:54Z,1123069,NULL,Vorsorge,tahadhari,d,NA,NA,NA,v,NA,NA,0,NA,NA,NA,NA,NA,NA,NA,NA,NA,NA,NA,NA,NA,NA,NA,NA,NA,NA,NA
d9c5c,"""Richtig""-Screen",canvas.Screen,5_0_0_0_1_0_1,NA,NA,skipped,NA,1123013,NA,NA,1123012,1123013,2023-03-13T11:14:54Z,1123069,NULL,Vorsorge,tahadhari,d,NA,NA,NA,NA,sdf,NA,0,NA,NA,NA,NA,NA,NA,NA,NA,NA,NA,NA,NA,NA,NA,NA,NA,NA,NA,NA
d9c5c,"""Falsch""-Screen",canvas.Screen,5_0_0_0_1_0_2,NA,NA,timeout,5000,1123014,1123035,1123069,1128035,1128036,2023-03-13T11:14:59Z,1128069,NULL,Vorsorge,tahadhari,d,NA,NA,NA,NA,sdf,0,0,NA,NA,NA,NA,NA,NA,NA,NA,NA,NA,NA,NA,NA,NA,NA,NA,NA,NA,NA
d9c5c,deep,flow.Sequence,5_0_0_0_1_0,NA,NA,completion,29100,1098902,1098901,1098935,1128035,1128036,2023-03-13T11:14:59Z,1128069,NULL,Vorsorge,tahadhari,d,NA,NA,NA,NA,sdf,NA,0,NA,NA,NA,NA,NA,NA,NA,NA,NA,NA,NA,NA,NA,NA,NA,NA,NA,NA,NA
d9c5c,shallow,flow.Sequence,5_0_0_0_1_1,NA,NA,skipped,NA,1128036,NA,NA,1128035,1128036,2023-03-13T11:14:59Z,1128069,NULL,Vorsorge,tahadhari,d,NA,NA,NA,NA,sdf,NA,0,NA,NA,NA,NA,NA,NA,NA,NA,NA,NA,NA,NA,NA,NA,NA,NA,NA,NA,NA
d9c5c,task,flow.Sequence,5_0_0_0_1,NA,NA,completion,29100,1098902,1098901,1098935,1128035,1128036,2023-03-13T11:14:59Z,1128069,NULL,Vorsorge,tahadhari,d,NA,NA,NA,NA,sdf,NA,0,NA,NA,NA,NA,NA,NA,NA,NA,NA,NA,NA,NA,NA,NA,NA,NA,NA,NA,NA
d9c5c,Deep Question,html.Page,5_0_0_0_2_0_0,NA,NA,form submission,8167,1128037,1128035,1128069,1136236,1136237,2023-03-13T11:15:07Z,1136295,NULL,Schüler,mwanafunzi,d,NA,NA,NA,s,NA,NA,0,NA,NA,NA,NA,NA,NA,NA,NA,NA,NA,NA,NA,NA,NA,NA,NA,NA,NA,NA
d9c5c,"""Richtig""-Screen",canvas.Screen,5_0_0_0_2_0_1,NA,NA,skipped,NA,1136237,NA,NA,1136236,1136238,2023-03-13T11:15:07Z,1136295,NULL,Schüler,mwanafunzi,d,NA,NA,NA,NA,sdf,NA,0,NA,NA,NA,NA,NA,NA,NA,NA,NA,NA,NA,NA,NA,NA,NA,NA,NA,NA,NA
d9c5c,"""Falsch""-Screen",canvas.Screen,5_0_0_0_2_0_2,NA,NA,timeout,5003,1136238,1136258,1136295,1141264,1141264,2023-03-13T11:15:12Z,1141298,NULL,Schüler,mwanafunzi,d,NA,NA,NA,NA,sdf,0,0,NA,NA,NA,NA,NA,NA,NA,NA,NA,NA,NA,NA,NA,NA,NA,NA,NA,NA,NA
d9c5c,deep,flow.Sequence,5_0_0_0_2_0,NA,NA,completion,13195,1128037,1128035,1128069,1141264,1141265,2023-03-13T11:15:12Z,1141298,NULL,Schüler,mwanafunzi,d,NA,NA,NA,NA,sdf,NA,0,NA,NA,NA,NA,NA,NA,NA,NA,NA,NA,NA,NA,NA,NA,NA,NA,NA,NA,NA
d9c5c,shallow,flow.Sequence,5_0_0_0_2_1,NA,NA,skipped,NA,1141265,NA,NA,1141264,1141265,2023-03-13T11:15:12Z,1141298,NULL,Schüler,mwanafunzi,d,NA,NA,NA,NA,sdf,NA,0,NA,NA,NA,NA,NA,NA,NA,NA,NA,NA,NA,NA,NA,NA,NA,NA,NA,NA,NA
d9c5c,task,flow.Sequence,5_0_0_0_2,NA,NA,completion,13195,1128037,1128035,1128069,1141264,1141265,2023-03-13T11:15:12Z,1141298,NULL,Schüler,mwanafunzi,d,NA,NA,NA,NA,sdf,NA,0,NA,NA,NA,NA,NA,NA,NA,NA,NA,NA,NA,NA,NA,NA,NA,NA,NA,NA,NA
d9c5c,deep,flow.Sequence,5_0_0_0_3_0,NA,NA,skipped,NA,1141265,NA,NA,1141264,1141265,2023-03-13T11:15:12Z,1141298,NULL,Spionage,upelelezi,s,maslahi,utokazo,magangao,NA,sdf,NA,0,NA,NA,NA,NA,NA,NA,NA,NA,NA,NA,NA,NA,NA,NA,NA,NA,NA,NA,NA
d9c5c,Shallow Question,html.Page,5_0_0_0_3_1_0,NA,NA,form submission,8601,1141265,1141264,1141298,1149899,1149899,2023-03-13T11:15:21Z,1149941,NULL,Spionage,upelelezi,s,maslahi,utokazo,magangao,maslahi,NA,NA,0,NA,NA,NA,NA,NA,NA,NA,NA,NA,NA,NA,NA,NA,NA,NA,NA,NA,NA,NA
d9c5c,"""Richtig""-Screen",canvas.Screen,5_0_0_0_3_1_1,NA,NA,skipped,NA,1149899,NA,NA,1149899,1149900,2023-03-13T11:15:21Z,1149941,NULL,Spionage,upelelezi,s,maslahi,utokazo,magangao,NA,sdf,NA,0,NA,NA,NA,NA,NA,NA,NA,NA,NA,NA,NA,NA,NA,NA,NA,NA,NA,NA,NA
d9c5c,"""Falsch""-Screen",canvas.Screen,5_0_0_0_3_1_2,NA,NA,timeout,5000,1149900,1149909,1149941,1154909,1154910,2023-03-13T11:15:26Z,1154941,NULL,Spionage,upelelezi,s,maslahi,utokazo,magangao,NA,sdf,0,0,NA,NA,NA,NA,NA,NA,NA,NA,NA,NA,NA,NA,NA,NA,NA,NA,NA,NA,NA
d9c5c,shallow,flow.Sequence,5_0_0_0_3_1,NA,NA,completion,13611,1141265,1141264,1141298,1154909,1154910,2023-03-13T11:15:26Z,1154941,NULL,Spionage,upelelezi,s,maslahi,utokazo,magangao,NA,sdf,NA,0,NA,NA,NA,NA,NA,NA,NA,NA,NA,NA,NA,NA,NA,NA,NA,NA,NA,NA,NA
d9c5c,task,flow.Sequence,5_0_0_0_3,NA,NA,completion,13611,1141265,1141264,1141298,1154909,1154910,2023-03-13T11:15:26Z,1154941,NULL,Spionage,upelelezi,s,maslahi,utokazo,magangao,NA,sdf,NA,0,NA,NA,NA,NA,NA,NA,NA,NA,NA,NA,NA,NA,NA,NA,NA,NA,NA,NA,NA
d9c5c,Deep Question,html.Page,5_0_0_0_4_0_0,NA,NA,form submission,9943,1154910,1154909,1154941,1164884,1164885,2023-03-13T11:15:36Z,1164946,NULL,Konkurrent,mshindani,d,NA,NA,NA,zu,NA,NA,0,NA,NA,NA,NA,NA,NA,NA,NA,NA,NA,NA,NA,NA,NA,NA,NA,NA,NA,NA
d9c5c,"""Richtig""-Screen",canvas.Screen,5_0_0_0_4_0_1,NA,NA,skipped,NA,1164885,NA,NA,1164884,1164886,2023-03-13T11:15:36Z,1164946,NULL,Konkurrent,mshindani,d,NA,NA,NA,NA,sdf,NA,0,NA,NA,NA,NA,NA,NA,NA,NA,NA,NA,NA,NA,NA,NA,NA,NA,NA,NA,NA
d9c5c,"""Falsch""-Screen",canvas.Screen,5_0_0_0_4_0_2,NA,NA,timeout,5003,1164886,1164914,1164946,1169916,1169917,2023-03-13T11:15:41Z,1169949,NULL,Konkurrent,mshindani,d,NA,NA,NA,NA,sdf,0,0,NA,NA,NA,NA,NA,NA,NA,NA,NA,NA,NA,NA,NA,NA,NA,NA,NA,NA,NA
d9c5c,deep,flow.Sequence,5_0_0_0_4_0,NA,NA,completion,14975,1154910,1154909,1154941,1169916,1169917,2023-03-13T11:15:41Z,1169949,NULL,Konkurrent,mshindani,d,NA,NA,NA,NA,sdf,NA,0,NA,NA,NA,NA,NA,NA,NA,NA,NA,NA,NA,NA,NA,NA,NA,NA,NA,NA,NA
d9c5c,shallow,flow.Sequence,5_0_0_0_4_1,NA,NA,skipped,NA,1169917,NA,NA,1169916,1169917,2023-03-13T11:15:41Z,1169949,NULL,Konkurrent,mshindani,d,NA,NA,NA,NA,sdf,NA,0,NA,NA,NA,NA,NA,NA,NA,NA,NA,NA,NA,NA,NA,NA,NA,NA,NA,NA,NA
d9c5c,task,flow.Sequence,5_0_0_0_4,NA,NA,completion,14975,1154910,1154909,1154941,1169916,1169917,2023-03-13T11:15:41Z,1169949,NULL,Konkurrent,mshindani,d,NA,NA,NA,NA,sdf,NA,0,NA,NA,NA,NA,NA,NA,NA,NA,NA,NA,NA,NA,NA,NA,NA,NA,NA,NA,NA
d9c5c,deep,flow.Sequence,5_0_0_0_5_0,NA,NA,skipped,NA,1169918,NA,NA,1169916,1169918,2023-03-13T11:15:41Z,1169949,NULL,Zuwachs,nyongeza,s,matilaba,udhibiti,hudhurio,NA,sdf,NA,0,NA,NA,NA,NA,NA,NA,NA,NA,NA,NA,NA,NA,NA,NA,NA,NA,NA,NA,NA
d9c5c,Shallow Question,html.Page,5_0_0_0_5_1_0,NA,NA,form submission,7296.0000000002,1169918,1169916,1169949,1177245,1177246,2023-03-13T11:15:48Z,1177275,NULL,Zuwachs,nyongeza,s,matilaba,udhibiti,hudhurio,hudhurio,NA,NA,0,NA,NA,NA,NA,NA,NA,NA,NA,NA,NA,NA,NA,NA,NA,NA,NA,NA,NA,NA
d9c5c,"""Richtig""-Screen",canvas.Screen,5_0_0_0_5_1_1,NA,NA,skipped,NA,1177247,NA,NA,1177245,1177247,2023-03-13T11:15:48Z,1177275,NULL,Zuwachs,nyongeza,s,matilaba,udhibiti,hudhurio,NA,sdf,NA,0,NA,NA,NA,NA,NA,NA,NA,NA,NA,NA,NA,NA,NA,NA,NA,NA,NA,NA,NA
d9c5c,"""Falsch""-Screen",canvas.Screen,5_0_0_0_5_1_2,NA,NA,timeout,4999,1177247,1177249,1177275,1182239,1182240,2023-03-13T11:15:53Z,1182274,NULL,Zuwachs,nyongeza,s,matilaba,udhibiti,hudhurio,NA,sdf,0,0,NA,NA,NA,NA,NA,NA,NA,NA,NA,NA,NA,NA,NA,NA,NA,NA,NA,NA,NA
d9c5c,shallow,flow.Sequence,5_0_0_0_5_1,NA,NA,completion,12290,1169918,1169916,1169949,1182239,1182240,2023-03-13T11:15:53Z,1182274,NULL,Zuwachs,nyongeza,s,matilaba,udhibiti,hudhurio,NA,sdf,NA,0,NA,NA,NA,NA,NA,NA,NA,NA,NA,NA,NA,NA,NA,NA,NA,NA,NA,NA,NA
d9c5c,task,flow.Sequence,5_0_0_0_5,NA,NA,completion,12290,1169917,1169916,1169949,1182239,1182240,2023-03-13T11:15:53Z,1182274,NULL,Zuwachs,nyongeza,s,matilaba,udhibiti,hudhurio,NA,sdf,NA,0,NA,NA,NA,NA,NA,NA,NA,NA,NA,NA,NA,NA,NA,NA,NA,NA,NA,NA,NA
d9c5c,deep,flow.Sequence,5_0_0_0_6_0,NA,NA,skipped,NA,1182240,NA,NA,1182239,1182240,2023-03-13T11:15:53Z,1182274,NULL,Symbol,kielezo,s,kinyume,nderemo,utayari,NA,sdf,NA,0,NA,NA,NA,NA,NA,NA,NA,NA,NA,NA,NA,NA,NA,NA,NA,NA,NA,NA,NA
d9c5c,Shallow Question,html.Page,5_0_0_0_6_1_0,NA,NA,form submission,3772,1182241,1182239,1182274,1186046,1186046,2023-03-13T11:15:57Z,1186090,NULL,Symbol,kielezo,s,kinyume,nderemo,utayari,utayari,NA,NA,0,NA,NA,NA,NA,NA,NA,NA,NA,NA,NA,NA,NA,NA,NA,NA,NA,NA,NA,NA
d9c5c,"""Richtig""-Screen",canvas.Screen,5_0_0_0_6_1_1,NA,NA,skipped,NA,1186047,NA,NA,1186046,1186047,2023-03-13T11:15:57Z,1186090,NULL,Symbol,kielezo,s,kinyume,nderemo,utayari,NA,sdf,NA,0,NA,NA,NA,NA,NA,NA,NA,NA,NA,NA,NA,NA,NA,NA,NA,NA,NA,NA,NA
d9c5c,"""Falsch""-Screen",canvas.Screen,5_0_0_0_6_1_2,NA,NA,timeout,5008,1186047,1186064,1186090,1191065,1191066,2023-03-13T11:16:02Z,1191098,NULL,Symbol,kielezo,s,kinyume,nderemo,utayari,NA,sdf,0,0,NA,NA,NA,NA,NA,NA,NA,NA,NA,NA,NA,NA,NA,NA,NA,NA,NA,NA,NA
d9c5c,shallow,flow.Sequence,5_0_0_0_6_1,NA,NA,completion,8791,1182241,1182239,1182274,1191065,1191066,2023-03-13T11:16:02Z,1191098,NULL,Symbol,kielezo,s,kinyume,nderemo,utayari,NA,sdf,NA,0,NA,NA,NA,NA,NA,NA,NA,NA,NA,NA,NA,NA,NA,NA,NA,NA,NA,NA,NA
d9c5c,task,flow.Sequence,5_0_0_0_6,NA,NA,completion,8791,1182240,1182239,1182274,1191065,1191067,2023-03-13T11:16:02Z,1191098,NULL,Symbol,kielezo,s,kinyume,nderemo,utayari,NA,sdf,NA,0,NA,NA,NA,NA,NA,NA,NA,NA,NA,NA,NA,NA,NA,NA,NA,NA,NA,NA,NA
d9c5c,deep,flow.Sequence,5_0_0_0_7_0,NA,NA,skipped,NA,1191067,NA,NA,1191065,1191067,2023-03-13T11:16:02Z,1191098,NULL,Fenster,dirisha,s,walakini,tasawari,maarifa,NA,sdf,NA,0,NA,NA,NA,NA,NA,NA,NA,NA,NA,NA,NA,NA,NA,NA,NA,NA,NA,NA,NA
d9c5c,Shallow Question,html.Page,5_0_0_0_7_1_0,NA,NA,form submission,6506,1191067,1191065,1191098,1197604,1197604,2023-03-13T11:16:09Z,1197659,NULL,Fenster,dirisha,s,walakini,tasawari,maarifa,maarifa,NA,NA,0,NA,NA,NA,NA,NA,NA,NA,NA,NA,NA,NA,NA,NA,NA,NA,NA,NA,NA,NA
d9c5c,"""Richtig""-Screen",canvas.Screen,5_0_0_0_7_1_1,NA,NA,skipped,NA,1197605,NA,NA,1197604,1197605,2023-03-13T11:16:09Z,1197659,NULL,Fenster,dirisha,s,walakini,tasawari,maarifa,NA,sdf,NA,0,NA,NA,NA,NA,NA,NA,NA,NA,NA,NA,NA,NA,NA,NA,NA,NA,NA,NA,NA
d9c5c,"""Falsch""-Screen",canvas.Screen,5_0_0_0_7_1_2,NA,NA,timeout,5004,1197606,1197625,1197659,1202629,1202630,2023-03-13T11:16:14Z,1202663,NULL,Fenster,dirisha,s,walakini,tasawari,maarifa,NA,sdf,0,0,NA,NA,NA,NA,NA,NA,NA,NA,NA,NA,NA,NA,NA,NA,NA,NA,NA,NA,NA
d9c5c,shallow,flow.Sequence,5_0_0_0_7_1,NA,NA,completion,11531,1191067,1191065,1191098,1202629,1202630,2023-03-13T11:16:14Z,1202663,NULL,Fenster,dirisha,s,walakini,tasawari,maarifa,NA,sdf,NA,0,NA,NA,NA,NA,NA,NA,NA,NA,NA,NA,NA,NA,NA,NA,NA,NA,NA,NA,NA
d9c5c,task,flow.Sequence,5_0_0_0_7,NA,NA,completion,11531,1191067,1191065,1191098,1202629,1202630,2023-03-13T11:16:14Z,1202663,NULL,Fenster,dirisha,s,walakini,tasawari,maarifa,NA,sdf,NA,0,NA,NA,NA,NA,NA,NA,NA,NA,NA,NA,NA,NA,NA,NA,NA,NA,NA,NA,NA
d9c5c,block,flow.Loop,5_0_0_0,NA,NA,completion,111691,1090890,1090904,1090938,1202629,1202630,2023-03-13T11:16:14Z,1202663,NULL,NA,NA,NA,NA,NA,NA,NA,sdf,NA,0,NA,NA,NA,NA,NA,NA,NA,NA,NA,NA,NA,NA,NA,NA,NA,NA,NA,NA,NA
d9c5c,weiter,canvas.Screen,5_0_0_1,sdf,keypress(Space),response,4624,1202631,1202629,1202663,1207253,1207332,2023-03-13T11:16:18Z,1207400,NULL,NA,NA,NA,NA,NA,NA,NA,sdf,NA,0,NA,NA,NA,NA,NA,NA,NA,NA,NA,NA,NA,NA,NA,NA,NA,NA,NA,NA,NA
d9c5c,check continue,flow.Sequence,5_0_0,NA,NA,completion,116315,1090890,1090904,1090938,1207253,1207332,2023-03-13T11:16:18Z,1207400,NULL,NA,NA,NA,NA,NA,NA,NA,sdf,NA,0,NA,NA,NA,NA,NA,NA,NA,NA,NA,NA,NA,NA,NA,NA,NA,NA,NA,NA,NA
d9c5c,deep,flow.Sequence,5_0_1_0_0_0,NA,NA,skipped,NA,1207356,NA,NA,1207253,1207356,2023-03-13T11:16:18Z,1207400,NULL,Symbol,kielezo,s,kinyume,nderemo,utayari,NA,sdfdsf,NA,1,NA,NA,NA,NA,NA,NA,NA,NA,NA,NA,NA,NA,NA,NA,NA,NA,NA,NA,NA
d9c5c,Shallow Question,html.Page,5_0_1_0_0_1_0,NA,NA,form submission,7241,1207356,1207367,1207400,1214641,1214641,2023-03-13T11:16:26Z,1214701,NULL,Symbol,kielezo,s,kinyume,nderemo,utayari,kielezo,NA,NA,1,NA,NA,NA,NA,NA,NA,NA,NA,NA,NA,NA,NA,NA,NA,NA,NA,NA,NA,NA
d9c5c,"""Richtig""-Screen",canvas.Screen,5_0_1_0_0_1_1,NA,NA,timeout,5006,1214642,1214662,1214701,1219675,1219675,2023-03-13T11:16:31Z,1219707,NULL,Symbol,kielezo,s,kinyume,nderemo,utayari,NA,sdfdsf,1,1,NA,NA,NA,NA,NA,NA,NA,NA,NA,NA,NA,NA,NA,NA,NA,NA,NA,NA,NA
d9c5c,"""Falsch""-Screen",canvas.Screen,5_0_1_0_0_1_2,NA,NA,skipped,NA,1219676,NA,NA,1219675,1219677,2023-03-13T11:16:31Z,1219707,NULL,Symbol,kielezo,s,kinyume,nderemo,utayari,NA,sdfdsf,NA,1,NA,NA,NA,NA,NA,NA,NA,NA,NA,NA,NA,NA,NA,NA,NA,NA,NA,NA,NA
d9c5c,shallow,flow.Sequence,5_0_1_0_0_1,NA,NA,completion,12275,1207356,1207367,1207400,1219675,1219677,2023-03-13T11:16:31Z,1219707,NULL,Symbol,kielezo,s,kinyume,nderemo,utayari,NA,sdfdsf,NA,1,NA,NA,NA,NA,NA,NA,NA,NA,NA,NA,NA,NA,NA,NA,NA,NA,NA,NA,NA
d9c5c,task,flow.Sequence,5_0_1_0_0,NA,NA,completion,12275,1207356,1207367,1207400,1219675,1219677,2023-03-13T11:16:31Z,1219707,NULL,Symbol,kielezo,s,kinyume,nderemo,utayari,NA,sdfdsf,NA,1,NA,NA,NA,NA,NA,NA,NA,NA,NA,NA,NA,NA,NA,NA,NA,NA,NA,NA,NA
d9c5c,Deep Question,html.Page,5_0_1_0_1_0_0,NA,NA,form submission,11108,1219677,1219675,1219707,1230815,1230815,2023-03-13T11:16:42Z,1230878,NULL,Tester,wanaojaribu,d,NA,NA,NA,ijamalezo,NA,NA,1,NA,NA,NA,NA,NA,NA,NA,NA,NA,NA,NA,NA,NA,NA,NA,NA,NA,NA,NA
d9c5c,"""Richtig""-Screen",canvas.Screen,5_0_1_0_1_0_1,NA,NA,skipped,NA,1230816,NA,NA,1230815,1230816,2023-03-13T11:16:42Z,1230878,NULL,Tester,wanaojaribu,d,NA,NA,NA,NA,sdfdsf,NA,1,NA,NA,NA,NA,NA,NA,NA,NA,NA,NA,NA,NA,NA,NA,NA,NA,NA,NA,NA
d9c5c,"""Falsch""-Screen",canvas.Screen,5_0_1_0_1_0_2,NA,NA,timeout,4998,1230817,1230845,1230878,1235843,1235844,2023-03-13T11:16:47Z,1235876,NULL,Tester,wanaojaribu,d,NA,NA,NA,NA,sdfdsf,0,1,NA,NA,NA,NA,NA,NA,NA,NA,NA,NA,NA,NA,NA,NA,NA,NA,NA,NA,NA
d9c5c,deep,flow.Sequence,5_0_1_0_1_0,NA,NA,completion,16136,1219677,1219675,1219707,1235843,1235844,2023-03-13T11:16:47Z,1235876,NULL,Tester,wanaojaribu,d,NA,NA,NA,NA,sdfdsf,NA,1,NA,NA,NA,NA,NA,NA,NA,NA,NA,NA,NA,NA,NA,NA,NA,NA,NA,NA,NA
d9c5c,shallow,flow.Sequence,5_0_1_0_1_1,NA,NA,skipped,NA,1235844,NA,NA,1235843,1235845,2023-03-13T11:16:47Z,1235876,NULL,Tester,wanaojaribu,d,NA,NA,NA,NA,sdfdsf,NA,1,NA,NA,NA,NA,NA,NA,NA,NA,NA,NA,NA,NA,NA,NA,NA,NA,NA,NA,NA
d9c5c,task,flow.Sequence,5_0_1_0_1,NA,NA,completion,16136,1219677,1219675,1219707,1235843,1235845,2023-03-13T11:16:47Z,1235876,NULL,Tester,wanaojaribu,d,NA,NA,NA,NA,sdfdsf,NA,1,NA,NA,NA,NA,NA,NA,NA,NA,NA,NA,NA,NA,NA,NA,NA,NA,NA,NA,NA
d9c5c,Deep Question,html.Page,5_0_1_0_2_0_0,NA,NA,form submission,18559,1235845,1235843,1235876,1254435,1254435,2023-03-13T11:17:05Z,1254480,NULL,Konkurrent,mshindani,d,NA,NA,NA,k,NA,NA,1,NA,NA,NA,NA,NA,NA,NA,NA,NA,NA,NA,NA,NA,NA,NA,NA,NA,NA,NA
d9c5c,"""Richtig""-Screen",canvas.Screen,5_0_1_0_2_0_1,NA,NA,skipped,NA,1254436,NA,NA,1254435,1254436,2023-03-13T11:17:05Z,1254480,NULL,Konkurrent,mshindani,d,NA,NA,NA,NA,sdfdsf,NA,1,NA,NA,NA,NA,NA,NA,NA,NA,NA,NA,NA,NA,NA,NA,NA,NA,NA,NA,NA
d9c5c,"""Falsch""-Screen",canvas.Screen,5_0_1_0_2_0_2,NA,NA,timeout,5000,1254437,1254447,1254480,1259448,1259448,2023-03-13T11:17:10Z,1259480,NULL,Konkurrent,mshindani,d,NA,NA,NA,NA,sdfdsf,0,1,NA,NA,NA,NA,NA,NA,NA,NA,NA,NA,NA,NA,NA,NA,NA,NA,NA,NA,NA
d9c5c,deep,flow.Sequence,5_0_1_0_2_0,NA,NA,completion,23572,1235845,1235843,1235876,1259448,1259449,2023-03-13T11:17:10Z,1259480,NULL,Konkurrent,mshindani,d,NA,NA,NA,NA,sdfdsf,NA,1,NA,NA,NA,NA,NA,NA,NA,NA,NA,NA,NA,NA,NA,NA,NA,NA,NA,NA,NA
d9c5c,shallow,flow.Sequence,5_0_1_0_2_1,NA,NA,skipped,NA,1259449,NA,NA,1259448,1259449,2023-03-13T11:17:10Z,1259480,NULL,Konkurrent,mshindani,d,NA,NA,NA,NA,sdfdsf,NA,1,NA,NA,NA,NA,NA,NA,NA,NA,NA,NA,NA,NA,NA,NA,NA,NA,NA,NA,NA
d9c5c,task,flow.Sequence,5_0_1_0_2,NA,NA,completion,23572,1235845,1235843,1235876,1259448,1259449,2023-03-13T11:17:10Z,1259480,NULL,Konkurrent,mshindani,d,NA,NA,NA,NA,sdfdsf,NA,1,NA,NA,NA,NA,NA,NA,NA,NA,NA,NA,NA,NA,NA,NA,NA,NA,NA,NA,NA
d9c5c,Deep Question,html.Page,5_0_1_0_3_0_0,NA,NA,form submission,15089,1259450,1259448,1259480,1274569,1274569,2023-03-13T11:17:25Z,1274629,NULL,Vorsorge,tahadhari,d,NA,NA,NA,ashandur,NA,NA,1,NA,NA,NA,NA,NA,NA,NA,NA,NA,NA,NA,NA,NA,NA,NA,NA,NA,NA,NA
d9c5c,"""Richtig""-Screen",canvas.Screen,5_0_1_0_3_0_1,NA,NA,skipped,NA,1274570,NA,NA,1274569,1274570,2023-03-13T11:17:25Z,1274629,NULL,Vorsorge,tahadhari,d,NA,NA,NA,NA,sdfdsf,NA,1,NA,NA,NA,NA,NA,NA,NA,NA,NA,NA,NA,NA,NA,NA,NA,NA,NA,NA,NA
d9c5c,"""Falsch""-Screen",canvas.Screen,5_0_1_0_3_0_2,NA,NA,timeout,4999,1274571,1274596,1274629,1279595,1279596,2023-03-13T11:17:31Z,1279628,NULL,Vorsorge,tahadhari,d,NA,NA,NA,NA,sdfdsf,0,1,NA,NA,NA,NA,NA,NA,NA,NA,NA,NA,NA,NA,NA,NA,NA,NA,NA,NA,NA
d9c5c,deep,flow.Sequence,5_0_1_0_3_0,NA,NA,completion,20115,1259450,1259448,1259480,1279595,1279596,2023-03-13T11:17:31Z,1279628,NULL,Vorsorge,tahadhari,d,NA,NA,NA,NA,sdfdsf,NA,1,NA,NA,NA,NA,NA,NA,NA,NA,NA,NA,NA,NA,NA,NA,NA,NA,NA,NA,NA
d9c5c,shallow,flow.Sequence,5_0_1_0_3_1,NA,NA,skipped,NA,1279596,NA,NA,1279595,1279596,2023-03-13T11:17:31Z,1279628,NULL,Vorsorge,tahadhari,d,NA,NA,NA,NA,sdfdsf,NA,1,NA,NA,NA,NA,NA,NA,NA,NA,NA,NA,NA,NA,NA,NA,NA,NA,NA,NA,NA
d9c5c,task,flow.Sequence,5_0_1_0_3,NA,NA,completion,20115,1259449,1259448,1259480,1279595,1279597,2023-03-13T11:17:31Z,1279628,NULL,Vorsorge,tahadhari,d,NA,NA,NA,NA,sdfdsf,NA,1,NA,NA,NA,NA,NA,NA,NA,NA,NA,NA,NA,NA,NA,NA,NA,NA,NA,NA,NA
d9c5c,deep,flow.Sequence,5_0_1_0_4_0,NA,NA,skipped,NA,1279597,NA,NA,1279595,1279597,2023-03-13T11:17:31Z,1279628,NULL,Zuwachs,nyongeza,s,matilaba,udhibiti,hudhurio,NA,sdfdsf,NA,1,NA,NA,NA,NA,NA,NA,NA,NA,NA,NA,NA,NA,NA,NA,NA,NA,NA,NA,NA
d9c5c,Shallow Question,html.Page,5_0_1_0_4_1_0,NA,NA,form submission,11167,1279597,1279595,1279628,1290795,1290795,2023-03-13T11:17:42Z,1290852,NULL,Zuwachs,nyongeza,s,matilaba,udhibiti,hudhurio,nyongeza,NA,NA,1,NA,NA,NA,NA,NA,NA,NA,NA,NA,NA,NA,NA,NA,NA,NA,NA,NA,NA,NA
d9c5c,"""Richtig""-Screen",canvas.Screen,5_0_1_0_4_1_1,NA,NA,timeout,4998,1290796,1290819,1290852,1295817,1295818,2023-03-13T11:17:47Z,1295850,NULL,Zuwachs,nyongeza,s,matilaba,udhibiti,hudhurio,NA,sdfdsf,1,1,NA,NA,NA,NA,NA,NA,NA,NA,NA,NA,NA,NA,NA,NA,NA,NA,NA,NA,NA
d9c5c,"""Falsch""-Screen",canvas.Screen,5_0_1_0_4_1_2,NA,NA,skipped,NA,1295819,NA,NA,1295817,1295820,2023-03-13T11:17:47Z,1295850,NULL,Zuwachs,nyongeza,s,matilaba,udhibiti,hudhurio,NA,sdfdsf,NA,1,NA,NA,NA,NA,NA,NA,NA,NA,NA,NA,NA,NA,NA,NA,NA,NA,NA,NA,NA
d9c5c,shallow,flow.Sequence,5_0_1_0_4_1,NA,NA,completion,16189,1279597,1279595,1279628,1295817,1295820,2023-03-13T11:17:47Z,1295850,NULL,Zuwachs,nyongeza,s,matilaba,udhibiti,hudhurio,NA,sdfdsf,NA,1,NA,NA,NA,NA,NA,NA,NA,NA,NA,NA,NA,NA,NA,NA,NA,NA,NA,NA,NA
d9c5c,task,flow.Sequence,5_0_1_0_4,NA,NA,completion,16189,1279597,1279595,1279628,1295817,1295820,2023-03-13T11:17:47Z,1295850,NULL,Zuwachs,nyongeza,s,matilaba,udhibiti,hudhurio,NA,sdfdsf,NA,1,NA,NA,NA,NA,NA,NA,NA,NA,NA,NA,NA,NA,NA,NA,NA,NA,NA,NA,NA
d9c5c,Deep Question,html.Page,5_0_1_0_5_0_0,NA,NA,form submission,7763,1295820,1295817,1295850,1303613,1303614,2023-03-13T11:17:55Z,1303649,NULL,Schüler,mwanafunzi,d,NA,NA,NA,mao,NA,NA,1,NA,NA,NA,NA,NA,NA,NA,NA,NA,NA,NA,NA,NA,NA,NA,NA,NA,NA,NA
d9c5c,"""Richtig""-Screen",canvas.Screen,5_0_1_0_5_0_1,NA,NA,skipped,NA,1303615,NA,NA,1303613,1303615,2023-03-13T11:17:55Z,1303649,NULL,Schüler,mwanafunzi,d,NA,NA,NA,NA,sdfdsf,NA,1,NA,NA,NA,NA,NA,NA,NA,NA,NA,NA,NA,NA,NA,NA,NA,NA,NA,NA,NA
d9c5c,"""Falsch""-Screen",canvas.Screen,5_0_1_0_5_0_2,NA,NA,timeout,5004,1303615,1303618,1303649,1308619,1308619,2023-03-13T11:18:00Z,1308653,NULL,Schüler,mwanafunzi,d,NA,NA,NA,NA,sdfdsf,0,1,NA,NA,NA,NA,NA,NA,NA,NA,NA,NA,NA,NA,NA,NA,NA,NA,NA,NA,NA
d9c5c,deep,flow.Sequence,5_0_1_0_5_0,NA,NA,completion,12769,1295820,1295817,1295850,1308619,1308620,2023-03-13T11:18:00Z,1308653,NULL,Schüler,mwanafunzi,d,NA,NA,NA,NA,sdfdsf,NA,1,NA,NA,NA,NA,NA,NA,NA,NA,NA,NA,NA,NA,NA,NA,NA,NA,NA,NA,NA
d9c5c,shallow,flow.Sequence,5_0_1_0_5_1,NA,NA,skipped,NA,1308620,NA,NA,1308619,1308620,2023-03-13T11:18:00Z,1308653,NULL,Schüler,mwanafunzi,d,NA,NA,NA,NA,sdfdsf,NA,1,NA,NA,NA,NA,NA,NA,NA,NA,NA,NA,NA,NA,NA,NA,NA,NA,NA,NA,NA
d9c5c,task,flow.Sequence,5_0_1_0_5,NA,NA,completion,12769,1295820,1295817,1295850,1308619,1308620,2023-03-13T11:18:00Z,1308653,NULL,Schüler,mwanafunzi,d,NA,NA,NA,NA,sdfdsf,NA,1,NA,NA,NA,NA,NA,NA,NA,NA,NA,NA,NA,NA,NA,NA,NA,NA,NA,NA,NA
