observation,sender,sender_type,sender_id,response,response_action,ended_on,duration,time_run,time_render,time_show,time_end,time_commit,timestamp,time_switch,distractors,german,swahili,enc,distractor1,distractor2,distractor3,response_2,x,correct,x_2,url_vp,url_sess,meta_labjs_version,meta_location,meta_user_agent,meta_platform,meta_language,meta_locale,meta_time_zone,meta_timezone_offset,meta_screen_width,meta_screen_height,meta_scroll_width,meta_scroll_height,meta_window_inner_width,meta_window_inner_height,meta_device_pixel_ratio,meta_labjs_build_flavor,meta_labjs_build_commit
0ed45,Introduction general,canvas.Screen,0,weiter,keypress(q),response,77756.347999928,1162.8999999762,1103.828,1170.352,78926.699999928,78928.599999905,2023-11-11T08:41:43Z,78936.984,NULL,NA,NA,NA,NA,NA,NA,NA,NA,NA,NA,150,1,20.2.4,https://neurocog.fernuni.ch/studies/vweber/jbaenninger/encoding_immediate/index.html?vp=150&sess=1,"Mozilla/5.0 (Windows NT 10.0; Win64; x64) AppleWebKit/537.36 (KHTML, like Gecko) Chrome/119.0.0.0 Safari/537.36 Edg/119.0.0.0",Win32,de,de-CH,Europe/Zurich,-60,1920,1080,1872,910,1872,958,1,production,f5b4a49f956347addd546a832a3327688c2c0fef
0ed45,Introduction practice,canvas.Screen,1_0,NA,keypress(Space),response,20440.215999928,78928.799999952,78914.141,78936.984,99377.199999928,99377.699999928,2023-11-11T08:42:03Z,99386.973,NULL,NA,NA,NA,NA,NA,NA,NA,NA,NA,NA,NA,NA,NA,NA,NA,NA,NA,NA,NA,NA,NA,NA,NA,NA,NA,NA,NA,NA,NA
0ed45,Deep Question,html.Page,1_1_0_0_0,NA,NA,form submission,16611.626999905,99377.799999952,99370.697,99386.973,115998.5999999,115998.69999993,2023-11-11T08:42:20Z,116003.56,"c(""distractor1"", ""distractor2"", ""distractor3"")",Schatten,kivuli,d,NA,NA,NA,satten,NA,NA,NA,NA,NA,NA,NA,NA,NA,NA,NA,NA,NA,NA,NA,NA,NA,NA,NA,NA,NA,NA
0ed45,"""Richtig""-Screen",canvas.Screen,1_1_0_0_1,NA,NA,skipped,NA,115999.39999998,NA,NA,115998.5999999,115999.5,2023-11-11T08:42:20Z,116003.56,"c(""distractor1"", ""distractor2"", ""distractor3"")",Schatten,kivuli,d,NA,NA,NA,NA,NA,NA,NA,NA,NA,NA,NA,NA,NA,NA,NA,NA,NA,NA,NA,NA,NA,NA,NA,NA,NA,NA
0ed45,"""Falsch""-Screen",canvas.Screen,1_1_0_0_2,NA,NA,timeout,5000.088,116000,115987.958,116003.56,120987.081,120989.5,2023-11-11T08:42:25Z,121003.648,"c(""distractor1"", ""distractor2"", ""distractor3"")",Schatten,kivuli,d,NA,NA,NA,NA,NA,0,NA,NA,NA,NA,NA,NA,NA,NA,NA,NA,NA,NA,NA,NA,NA,NA,NA,NA,NA,NA
0ed45,deep,flow.Sequence,1_1_0_0,NA,NA,completion,21600.108,99377.799999952,99370.697,99386.973,120987.081,120989.5999999,2023-11-11T08:42:25Z,121003.648,"c(""distractor1"", ""distractor2"", ""distractor3"")",Schatten,kivuli,d,NA,NA,NA,NA,NA,NA,NA,NA,NA,NA,NA,NA,NA,NA,NA,NA,NA,NA,NA,NA,NA,NA,NA,NA,NA,NA
0ed45,shallow,flow.Sequence,1_1_0_1,NA,NA,skipped,NA,120989.5999999,NA,NA,120987.081,120989.5999999,2023-11-11T08:42:25Z,121003.648,"c(""distractor1"", ""distractor2"", ""distractor3"")",Schatten,kivuli,d,NA,NA,NA,NA,NA,NA,NA,NA,NA,NA,NA,NA,NA,NA,NA,NA,NA,NA,NA,NA,NA,NA,NA,NA,NA,NA
0ed45,task,flow.Sequence,1_1_0,NA,NA,completion,21600.108,99377.799999952,99370.697,99386.973,120987.081,120989.69999993,2023-11-11T08:42:25Z,121003.648,"c(""distractor1"", ""distractor2"", ""distractor3"")",Schatten,kivuli,d,NA,NA,NA,NA,NA,NA,NA,NA,NA,NA,NA,NA,NA,NA,NA,NA,NA,NA,NA,NA,NA,NA,NA,NA,NA,NA
0ed45,Deep Question,html.Page,1_1_1_0_0,NA,NA,form submission,9274.2519999762,120989.79999995,120987.081,121003.648,130277.89999998,130278.19999993,2023-11-11T08:42:34Z,130286.915,"c(""distractor1"", ""distractor2"", ""distractor3"")",Qualität,mtindo,d,NA,NA,NA,Ouvali,NA,NA,NA,NA,NA,NA,NA,NA,NA,NA,NA,NA,NA,NA,NA,NA,NA,NA,NA,NA,NA,NA
0ed45,"""Richtig""-Screen",canvas.Screen,1_1_1_0_1,NA,NA,skipped,NA,130279.29999995,NA,NA,130277.89999998,130279.39999998,2023-11-11T08:42:34Z,130286.915,"c(""distractor1"", ""distractor2"", ""distractor3"")",Qualität,mtindo,d,NA,NA,NA,NA,NA,NA,NA,NA,NA,NA,NA,NA,NA,NA,NA,NA,NA,NA,NA,NA,NA,NA,NA,NA,NA,NA
0ed45,"""Falsch""-Screen",canvas.Screen,1_1_1_0_2,NA,NA,timeout,5000.068,130279.89999998,130272.137,130286.915,135270.424,135272,2023-11-11T08:42:39Z,135286.983,"c(""distractor1"", ""distractor2"", ""distractor3"")",Qualität,mtindo,d,NA,NA,NA,NA,NA,0,NA,NA,NA,NA,NA,NA,NA,NA,NA,NA,NA,NA,NA,NA,NA,NA,NA,NA,NA,NA
0ed45,deep,flow.Sequence,1_1_1_0,NA,NA,completion,14266.776,120989.79999995,120987.081,121003.648,135270.424,135272.0999999,2023-11-11T08:42:39Z,135286.983,"c(""distractor1"", ""distractor2"", ""distractor3"")",Qualität,mtindo,d,NA,NA,NA,NA,NA,NA,NA,NA,NA,NA,NA,NA,NA,NA,NA,NA,NA,NA,NA,NA,NA,NA,NA,NA,NA,NA
0ed45,shallow,flow.Sequence,1_1_1_1,NA,NA,skipped,NA,135272.19999993,NA,NA,135270.424,135272.19999993,2023-11-11T08:42:39Z,135286.983,"c(""distractor1"", ""distractor2"", ""distractor3"")",Qualität,mtindo,d,NA,NA,NA,NA,NA,NA,NA,NA,NA,NA,NA,NA,NA,NA,NA,NA,NA,NA,NA,NA,NA,NA,NA,NA,NA,NA
0ed45,task,flow.Sequence,1_1_1,NA,NA,completion,14266.776,120989.69999993,120987.081,121003.648,135270.424,135272.29999995,2023-11-11T08:42:39Z,135286.983,"c(""distractor1"", ""distractor2"", ""distractor3"")",Qualität,mtindo,d,NA,NA,NA,NA,NA,NA,NA,NA,NA,NA,NA,NA,NA,NA,NA,NA,NA,NA,NA,NA,NA,NA,NA,NA,NA,NA
0ed45,deep,flow.Sequence,1_1_2_0,NA,NA,skipped,NA,135272.29999995,NA,NA,135270.424,135272.39999998,2023-11-11T08:42:39Z,135286.983,"c(""distractor1"", ""distractor2"", ""distractor3"")",Gegenwart,hadhara,s,katiba,jokofu,mikopo,NA,NA,NA,NA,NA,NA,NA,NA,NA,NA,NA,NA,NA,NA,NA,NA,NA,NA,NA,NA,NA,NA,NA
0ed45,Shallow Question,html.Page,1_1_2_1_0,NA,NA,form submission,11227.816999952,135272.39999998,135270.424,135286.983,146514.79999995,146514.89999998,2023-11-11T08:42:51Z,146520.294,"c(""distractor1"", ""distractor2"", ""distractor3"")",Gegenwart,hadhara,s,katiba,jokofu,mikopo,hadhara,NA,NA,NA,NA,NA,NA,NA,NA,NA,NA,NA,NA,NA,NA,NA,NA,NA,NA,NA,NA,NA,NA
0ed45,"""Richtig""-Screen",canvas.Screen,1_1_2_1_1,NA,NA,timeout,5000.136,146515.89999998,146503.836,146520.294,151503.782,151505.0999999,2023-11-11T08:42:56Z,151520.43,"c(""distractor1"", ""distractor2"", ""distractor3"")",Gegenwart,hadhara,s,katiba,jokofu,mikopo,NA,NA,1,NA,NA,NA,NA,NA,NA,NA,NA,NA,NA,NA,NA,NA,NA,NA,NA,NA,NA,NA,NA
0ed45,"""Falsch""-Screen",canvas.Screen,1_1_2_1_2,NA,NA,skipped,NA,151506.19999993,NA,NA,151503.782,151506.19999993,2023-11-11T08:42:56Z,151520.43,"c(""distractor1"", ""distractor2"", ""distractor3"")",Gegenwart,hadhara,s,katiba,jokofu,mikopo,NA,NA,NA,NA,NA,NA,NA,NA,NA,NA,NA,NA,NA,NA,NA,NA,NA,NA,NA,NA,NA,NA,NA
0ed45,shallow,flow.Sequence,1_1_2_1,NA,NA,completion,16216.799,135272.39999998,135270.424,135286.983,151503.782,151506.39999998,2023-11-11T08:42:56Z,151520.43,"c(""distractor1"", ""distractor2"", ""distractor3"")",Gegenwart,hadhara,s,katiba,jokofu,mikopo,NA,NA,NA,NA,NA,NA,NA,NA,NA,NA,NA,NA,NA,NA,NA,NA,NA,NA,NA,NA,NA,NA,NA
0ed45,task,flow.Sequence,1_1_2,NA,NA,completion,16216.799,135272.29999995,135270.424,135286.983,151503.782,151506.39999998,2023-11-11T08:42:56Z,151520.43,"c(""distractor1"", ""distractor2"", ""distractor3"")",Gegenwart,hadhara,s,katiba,jokofu,mikopo,NA,NA,NA,NA,NA,NA,NA,NA,NA,NA,NA,NA,NA,NA,NA,NA,NA,NA,NA,NA,NA,NA,NA
0ed45,Deep Question,html.Page,1_1_3_0_0,NA,NA,form submission,7022.7699999285,151506.39999998,151503.782,151520.43,158543.19999993,158543.29999995,2023-11-11T08:43:03Z,158553.575,"c(""distractor1"", ""distractor2"", ""distractor3"")",Gesundheit,salama,d,NA,NA,NA,menahwa,NA,NA,NA,NA,NA,NA,NA,NA,NA,NA,NA,NA,NA,NA,NA,NA,NA,NA,NA,NA,NA,NA
0ed45,"""Richtig""-Screen",canvas.Screen,1_1_3_0_1,NA,NA,skipped,NA,158544.39999998,NA,NA,158543.19999993,158544.5,2023-11-11T08:43:03Z,158553.575,"c(""distractor1"", ""distractor2"", ""distractor3"")",Gesundheit,salama,d,NA,NA,NA,NA,NA,NA,NA,NA,NA,NA,NA,NA,NA,NA,NA,NA,NA,NA,NA,NA,NA,NA,NA,NA,NA,NA
0ed45,"""Falsch""-Screen",canvas.Screen,1_1_3_0_2,NA,NA,timeout,5000.149,158544.79999995,158536.945,158553.575,163536.979,163537.79999995,2023-11-11T08:43:08Z,163553.724,"c(""distractor1"", ""distractor2"", ""distractor3"")",Gesundheit,salama,d,NA,NA,NA,NA,NA,0,NA,NA,NA,NA,NA,NA,NA,NA,NA,NA,NA,NA,NA,NA,NA,NA,NA,NA,NA,NA
0ed45,deep,flow.Sequence,1_1_3_0,NA,NA,completion,12016.549,151506.39999998,151503.782,151520.43,163536.979,163537.89999998,2023-11-11T08:43:08Z,163553.724,"c(""distractor1"", ""distractor2"", ""distractor3"")",Gesundheit,salama,d,NA,NA,NA,NA,NA,NA,NA,NA,NA,NA,NA,NA,NA,NA,NA,NA,NA,NA,NA,NA,NA,NA,NA,NA,NA,NA
0ed45,shallow,flow.Sequence,1_1_3_1,NA,NA,skipped,NA,163537.89999998,NA,NA,163536.979,163537.89999998,2023-11-11T08:43:08Z,163553.724,"c(""distractor1"", ""distractor2"", ""distractor3"")",Gesundheit,salama,d,NA,NA,NA,NA,NA,NA,NA,NA,NA,NA,NA,NA,NA,NA,NA,NA,NA,NA,NA,NA,NA,NA,NA,NA,NA,NA
0ed45,task,flow.Sequence,1_1_3,NA,NA,completion,12016.549,151506.39999998,151503.782,151520.43,163536.979,163538,2023-11-11T08:43:08Z,163553.724,"c(""distractor1"", ""distractor2"", ""distractor3"")",Gesundheit,salama,d,NA,NA,NA,NA,NA,NA,NA,NA,NA,NA,NA,NA,NA,NA,NA,NA,NA,NA,NA,NA,NA,NA,NA,NA,NA,NA
0ed45,deep,flow.Sequence,1_1_4_0,NA,NA,skipped,NA,163538.0999999,NA,NA,163536.979,163538.0999999,2023-11-11T08:43:08Z,163553.724,"c(""distractor1"", ""distractor2"", ""distractor3"")",Rückhalt,msaada,s,muhula,auwali,kiwimbe,NA,NA,NA,NA,NA,NA,NA,NA,NA,NA,NA,NA,NA,NA,NA,NA,NA,NA,NA,NA,NA,NA,NA
0ed45,Shallow Question,html.Page,1_1_4_1_0,NA,NA,form submission,13488.276,163538.0999999,163536.979,163553.724,177042,177042.19999993,2023-11-11T08:43:21Z,177053.655,"c(""distractor1"", ""distractor2"", ""distractor3"")",Rückhalt,msaada,s,muhula,auwali,kiwimbe,auwali,NA,NA,NA,NA,NA,NA,NA,NA,NA,NA,NA,NA,NA,NA,NA,NA,NA,NA,NA,NA,NA,NA
0ed45,"""Richtig""-Screen",canvas.Screen,1_1_4_1_1,NA,NA,skipped,NA,177043.39999998,NA,NA,177042,177043.5,2023-11-11T08:43:21Z,177053.655,"c(""distractor1"", ""distractor2"", ""distractor3"")",Rückhalt,msaada,s,muhula,auwali,kiwimbe,NA,NA,NA,NA,NA,NA,NA,NA,NA,NA,NA,NA,NA,NA,NA,NA,NA,NA,NA,NA,NA,NA,NA
0ed45,"""Falsch""-Screen",canvas.Screen,1_1_4_1_2,NA,NA,timeout,5000.103,177043.79999995,177037.427,177053.655,182037.065,182038.39999998,2023-11-11T08:43:26Z,182053.758,"c(""distractor1"", ""distractor2"", ""distractor3"")",Rückhalt,msaada,s,muhula,auwali,kiwimbe,NA,NA,0,NA,NA,NA,NA,NA,NA,NA,NA,NA,NA,NA,NA,NA,NA,NA,NA,NA,NA,NA,NA
0ed45,shallow,flow.Sequence,1_1_4_1,NA,NA,completion,18483.341,163538.0999999,163536.979,163553.724,182037.065,182038.5,2023-11-11T08:43:26Z,182053.758,"c(""distractor1"", ""distractor2"", ""distractor3"")",Rückhalt,msaada,s,muhula,auwali,kiwimbe,NA,NA,NA,NA,NA,NA,NA,NA,NA,NA,NA,NA,NA,NA,NA,NA,NA,NA,NA,NA,NA,NA,NA
0ed45,task,flow.Sequence,1_1_4,NA,NA,completion,18483.341,163538.0999999,163536.979,163553.724,182037.065,182038.5999999,2023-11-11T08:43:26Z,182053.758,"c(""distractor1"", ""distractor2"", ""distractor3"")",Rückhalt,msaada,s,muhula,auwali,kiwimbe,NA,NA,NA,NA,NA,NA,NA,NA,NA,NA,NA,NA,NA,NA,NA,NA,NA,NA,NA,NA,NA,NA,NA
0ed45,deep,flow.Sequence,1_1_5_0,NA,NA,skipped,NA,182038.5999999,NA,NA,182037.065,182038.5999999,2023-11-11T08:43:26Z,182053.758,"c(""distractor1"", ""distractor2"", ""distractor3"")",Kritik,lawama,s,dereva,nafasi,mawazo,NA,NA,NA,NA,NA,NA,NA,NA,NA,NA,NA,NA,NA,NA,NA,NA,NA,NA,NA,NA,NA,NA,NA
0ed45,Shallow Question,html.Page,1_1_5_1_0,NA,NA,form submission,8811.5419999523,182038.69999993,182037.065,182053.758,190865.29999995,190865.39999998,2023-11-11T08:43:35Z,190870.238,"c(""distractor1"", ""distractor2"", ""distractor3"")",Kritik,lawama,s,dereva,nafasi,mawazo,nafasi,NA,NA,NA,NA,NA,NA,NA,NA,NA,NA,NA,NA,NA,NA,NA,NA,NA,NA,NA,NA,NA,NA
0ed45,"""Richtig""-Screen",canvas.Screen,1_1_5_1_1,NA,NA,skipped,NA,190866.5,NA,NA,190865.29999995,190866.5,2023-11-11T08:43:35Z,190870.238,"c(""distractor1"", ""distractor2"", ""distractor3"")",Kritik,lawama,s,dereva,nafasi,mawazo,NA,NA,NA,NA,NA,NA,NA,NA,NA,NA,NA,NA,NA,NA,NA,NA,NA,NA,NA,NA,NA,NA,NA
0ed45,"""Falsch""-Screen",canvas.Screen,1_1_5_1_2,NA,NA,timeout,5000.131,190866.79999995,190853.781,190870.238,195853.713,195855.29999995,2023-11-11T08:43:40Z,195870.369,"c(""distractor1"", ""distractor2"", ""distractor3"")",Kritik,lawama,s,dereva,nafasi,mawazo,NA,NA,0,NA,NA,NA,NA,NA,NA,NA,NA,NA,NA,NA,NA,NA,NA,NA,NA,NA,NA,NA,NA
0ed45,shallow,flow.Sequence,1_1_5_1,NA,NA,completion,13799.955,182038.5999999,182037.065,182053.758,195853.713,195855.29999995,2023-11-11T08:43:40Z,195870.369,"c(""distractor1"", ""distractor2"", ""distractor3"")",Kritik,lawama,s,dereva,nafasi,mawazo,NA,NA,NA,NA,NA,NA,NA,NA,NA,NA,NA,NA,NA,NA,NA,NA,NA,NA,NA,NA,NA,NA,NA
0ed45,task,flow.Sequence,1_1_5,NA,NA,completion,13799.955,182038.5999999,182037.065,182053.758,195853.713,195855.39999998,2023-11-11T08:43:40Z,195870.369,"c(""distractor1"", ""distractor2"", ""distractor3"")",Kritik,lawama,s,dereva,nafasi,mawazo,NA,NA,NA,NA,NA,NA,NA,NA,NA,NA,NA,NA,NA,NA,NA,NA,NA,NA,NA,NA,NA,NA,NA
0ed45,block,flow.Loop,1_1,NA,NA,completion,96466.74,99377.799999952,99370.697,99386.973,195853.713,195855.5,2023-11-11T08:43:40Z,195870.369,"c(""distractor1"", ""distractor2"", ""distractor3"")",NA,NA,NA,NA,NA,NA,NA,NA,NA,NA,NA,NA,NA,NA,NA,NA,NA,NA,NA,NA,NA,NA,NA,NA,NA,NA,NA,NA,NA
0ed45,Practice,flow.Sequence,1,NA,NA,completion,116916.729,78928.699999928,78914.141,78936.984,195853.713,195855.5,2023-11-11T08:43:40Z,195870.369,NULL,NA,NA,NA,NA,NA,NA,NA,NA,NA,NA,NA,NA,NA,NA,NA,NA,NA,NA,NA,NA,NA,NA,NA,NA,NA,NA,NA,NA,NA
0ed45,Experiment start,canvas.Screen,2,weiter,keypress(q),response,15001.730999905,195855.5,195853.713,195870.369,210872.0999999,210872.69999993,2023-11-11T08:43:55Z,210920.248,NULL,NA,NA,NA,NA,NA,NA,NA,NA,NA,NA,NA,NA,NA,NA,NA,NA,NA,NA,NA,NA,NA,NA,NA,NA,NA,NA,NA,NA,NA
0ed45,Deep Question,html.Page,3_0_0_0_0_0_0,NA,NA,form submission,12717.951999928,210915.39999998,210907.159,210920.248,223638.19999993,223638.29999995,2023-11-11T08:44:08Z,223653.459,NULL,Prüfung,mtihani,d,NA,NA,NA,dekar,NA,NA,0,NA,NA,NA,NA,NA,NA,NA,NA,NA,NA,NA,NA,NA,NA,NA,NA,NA,NA,NA
0ed45,"""Richtig""-Screen",canvas.Screen,3_0_0_0_0_0_1,NA,NA,skipped,NA,223639.5999999,NA,NA,223638.19999993,223639.5999999,2023-11-11T08:44:08Z,223653.459,NULL,Prüfung,mtihani,d,NA,NA,NA,NA,sdf,NA,0,NA,NA,NA,NA,NA,NA,NA,NA,NA,NA,NA,NA,NA,NA,NA,NA,NA,NA,NA
0ed45,"""Falsch""-Screen",canvas.Screen,3_0_0_0_0_0_2,NA,NA,timeout,4999.993,223640.0999999,223637.533,223653.459,228636.78,228637.29999995,2023-11-11T08:44:13Z,228653.452,NULL,Prüfung,mtihani,d,NA,NA,NA,NA,sdf,0,0,NA,NA,NA,NA,NA,NA,NA,NA,NA,NA,NA,NA,NA,NA,NA,NA,NA,NA,NA
0ed45,deep,flow.Sequence,3_0_0_0_0_0,NA,NA,completion,17716.532,210915.39999998,210907.159,210920.248,228636.78,228637.39999998,2023-11-11T08:44:13Z,228653.452,NULL,Prüfung,mtihani,d,NA,NA,NA,NA,sdf,NA,0,NA,NA,NA,NA,NA,NA,NA,NA,NA,NA,NA,NA,NA,NA,NA,NA,NA,NA,NA
0ed45,shallow,flow.Sequence,3_0_0_0_0_1,NA,NA,skipped,NA,228637.39999998,NA,NA,228636.78,228637.39999998,2023-11-11T08:44:13Z,228653.452,NULL,Prüfung,mtihani,d,NA,NA,NA,NA,sdf,NA,0,NA,NA,NA,NA,NA,NA,NA,NA,NA,NA,NA,NA,NA,NA,NA,NA,NA,NA,NA
0ed45,task,flow.Sequence,3_0_0_0_0,NA,NA,completion,17716.532,210915.39999998,210907.159,210920.248,228636.78,228637.5,2023-11-11T08:44:13Z,228653.452,NULL,Prüfung,mtihani,d,NA,NA,NA,NA,sdf,NA,0,NA,NA,NA,NA,NA,NA,NA,NA,NA,NA,NA,NA,NA,NA,NA,NA,NA,NA,NA
0ed45,Deep Question,html.Page,3_0_0_0_1_0_0,NA,NA,form submission,7438.7479999285,228637.5,228636.78,228653.452,236092.19999993,236092.29999995,2023-11-11T08:44:20Z,236120.148,NULL,Aufstand,ugomaji,d,NA,NA,NA,auganwa,NA,NA,0,NA,NA,NA,NA,NA,NA,NA,NA,NA,NA,NA,NA,NA,NA,NA,NA,NA,NA,NA
0ed45,"""Richtig""-Screen",canvas.Screen,3_0_0_0_1_0_1,NA,NA,skipped,NA,236093.5,NA,NA,236092.19999993,236093.5999999,2023-11-11T08:44:20Z,236120.148,NULL,Aufstand,ugomaji,d,NA,NA,NA,NA,sdf,NA,0,NA,NA,NA,NA,NA,NA,NA,NA,NA,NA,NA,NA,NA,NA,NA,NA,NA,NA,NA
0ed45,"""Falsch""-Screen",canvas.Screen,3_0_0_0_1_0_2,NA,NA,timeout,4999.964,236094,236103.479,236120.148,241103.429,241103.79999995,2023-11-11T08:44:25Z,241120.112,NULL,Aufstand,ugomaji,d,NA,NA,NA,NA,sdf,0,0,NA,NA,NA,NA,NA,NA,NA,NA,NA,NA,NA,NA,NA,NA,NA,NA,NA,NA,NA
0ed45,deep,flow.Sequence,3_0_0_0_1_0,NA,NA,completion,12449.977,228637.5,228636.78,228653.452,241103.429,241103.89999998,2023-11-11T08:44:25Z,241120.112,NULL,Aufstand,ugomaji,d,NA,NA,NA,NA,sdf,NA,0,NA,NA,NA,NA,NA,NA,NA,NA,NA,NA,NA,NA,NA,NA,NA,NA,NA,NA,NA
0ed45,shallow,flow.Sequence,3_0_0_0_1_1,NA,NA,skipped,NA,241103.89999998,NA,NA,241103.429,241103.89999998,2023-11-11T08:44:25Z,241120.112,NULL,Aufstand,ugomaji,d,NA,NA,NA,NA,sdf,NA,0,NA,NA,NA,NA,NA,NA,NA,NA,NA,NA,NA,NA,NA,NA,NA,NA,NA,NA,NA
0ed45,task,flow.Sequence,3_0_0_0_1,NA,NA,completion,12449.977,228637.5,228636.78,228653.452,241103.429,241104,2023-11-11T08:44:25Z,241120.112,NULL,Aufstand,ugomaji,d,NA,NA,NA,NA,sdf,NA,0,NA,NA,NA,NA,NA,NA,NA,NA,NA,NA,NA,NA,NA,NA,NA,NA,NA,NA,NA
0ed45,deep,flow.Sequence,3_0_0_0_2_0,NA,NA,skipped,NA,241104.0999999,NA,NA,241103.429,241104.0999999,2023-11-11T08:44:25Z,241120.112,NULL,Verzögerung,kuchelewa,s,mwakilishi,mwanauchumi,jaribio,NA,sdf,NA,0,NA,NA,NA,NA,NA,NA,NA,NA,NA,NA,NA,NA,NA,NA,NA,NA,NA,NA,NA
0ed45,Shallow Question,html.Page,3_0_0_0_2_1_0,NA,NA,form submission,10824.587999928,241104.0999999,241103.429,241120.112,251944.69999993,251944.89999998,2023-11-11T08:44:36Z,251953.599,NULL,Verzögerung,kuchelewa,s,mwakilishi,mwanauchumi,jaribio,mwanauchumi,NA,NA,0,NA,NA,NA,NA,NA,NA,NA,NA,NA,NA,NA,NA,NA,NA,NA,NA,NA,NA,NA
0ed45,"""Richtig""-Screen",canvas.Screen,3_0_0_0_2_1_1,NA,NA,skipped,NA,251946.39999998,NA,NA,251944.69999993,251946.5,2023-11-11T08:44:36Z,251953.599,NULL,Verzögerung,kuchelewa,s,mwakilishi,mwanauchumi,jaribio,NA,sdf,NA,0,NA,NA,NA,NA,NA,NA,NA,NA,NA,NA,NA,NA,NA,NA,NA,NA,NA,NA,NA
0ed45,"""Falsch""-Screen",canvas.Screen,3_0_0_0_2_1_2,NA,NA,timeout,4999.961,251946.89999998,251936.868,251953.599,256936.947,256938,2023-11-11T08:44:41Z,256953.56,NULL,Verzögerung,kuchelewa,s,mwakilishi,mwanauchumi,jaribio,NA,sdf,0,0,NA,NA,NA,NA,NA,NA,NA,NA,NA,NA,NA,NA,NA,NA,NA,NA,NA,NA,NA
0ed45,shallow,flow.Sequence,3_0_0_0_2_1,NA,NA,completion,15816.835,241104.0999999,241103.429,241120.112,256936.947,256938,2023-11-11T08:44:41Z,256953.56,NULL,Verzögerung,kuchelewa,s,mwakilishi,mwanauchumi,jaribio,NA,sdf,NA,0,NA,NA,NA,NA,NA,NA,NA,NA,NA,NA,NA,NA,NA,NA,NA,NA,NA,NA,NA
0ed45,task,flow.Sequence,3_0_0_0_2,NA,NA,completion,15816.835,241104.0999999,241103.429,241120.112,256936.947,256938.0999999,2023-11-11T08:44:41Z,256953.56,NULL,Verzögerung,kuchelewa,s,mwakilishi,mwanauchumi,jaribio,NA,sdf,NA,0,NA,NA,NA,NA,NA,NA,NA,NA,NA,NA,NA,NA,NA,NA,NA,NA,NA,NA,NA
0ed45,deep,flow.Sequence,3_0_0_0_3_0,NA,NA,skipped,NA,256938.19999993,NA,NA,256936.947,256938.19999993,2023-11-11T08:44:41Z,256953.56,NULL,Sympathie,mapendano,s,dhamiria,fungamano,maazimio,NA,sdf,NA,0,NA,NA,NA,NA,NA,NA,NA,NA,NA,NA,NA,NA,NA,NA,NA,NA,NA,NA,NA
0ed45,Shallow Question,html.Page,3_0_0_0_3_1_0,NA,NA,form submission,8111.3399999762,256938.19999993,256936.947,256953.56,265064.89999998,265064.89999998,2023-11-11T08:44:49Z,265070.135,NULL,Sympathie,mapendano,s,dhamiria,fungamano,maazimio,fungamano,NA,NA,0,NA,NA,NA,NA,NA,NA,NA,NA,NA,NA,NA,NA,NA,NA,NA,NA,NA,NA,NA
0ed45,"""Richtig""-Screen",canvas.Screen,3_0_0_0_3_1_1,NA,NA,skipped,NA,265066.69999993,NA,NA,265064.89999998,265066.69999993,2023-11-11T08:44:49Z,265070.135,NULL,Sympathie,mapendano,s,dhamiria,fungamano,maazimio,NA,sdf,NA,0,NA,NA,NA,NA,NA,NA,NA,NA,NA,NA,NA,NA,NA,NA,NA,NA,NA,NA,NA
0ed45,"""Falsch""-Screen",canvas.Screen,3_0_0_0_3_1_2,NA,NA,timeout,5000.335,265067.0999999,265053.632,265070.135,270053.519,270054.89999998,2023-11-11T08:44:54Z,270070.47,NULL,Sympathie,mapendano,s,dhamiria,fungamano,maazimio,NA,sdf,0,0,NA,NA,NA,NA,NA,NA,NA,NA,NA,NA,NA,NA,NA,NA,NA,NA,NA,NA,NA
0ed45,shallow,flow.Sequence,3_0_0_0_3_1,NA,NA,completion,13099.959,256938.19999993,256936.947,256953.56,270053.519,270055,2023-11-11T08:44:54Z,270070.47,NULL,Sympathie,mapendano,s,dhamiria,fungamano,maazimio,NA,sdf,NA,0,NA,NA,NA,NA,NA,NA,NA,NA,NA,NA,NA,NA,NA,NA,NA,NA,NA,NA,NA
0ed45,task,flow.Sequence,3_0_0_0_3,NA,NA,completion,13099.959,256938.0999999,256936.947,256953.56,270053.519,270055.0999999,2023-11-11T08:44:54Z,270070.47,NULL,Sympathie,mapendano,s,dhamiria,fungamano,maazimio,NA,sdf,NA,0,NA,NA,NA,NA,NA,NA,NA,NA,NA,NA,NA,NA,NA,NA,NA,NA,NA,NA,NA
0ed45,Deep Question,html.Page,3_0_0_0_4_0_0,NA,NA,form submission,8302.8299999523,270055.0999999,270053.519,270070.47,278373.29999995,278373.39999998,2023-11-11T08:45:02Z,278387.049,NULL,Beweis,ushahidi,d,NA,NA,NA,urto,NA,NA,0,NA,NA,NA,NA,NA,NA,NA,NA,NA,NA,NA,NA,NA,NA,NA,NA,NA,NA,NA
0ed45,"""Richtig""-Screen",canvas.Screen,3_0_0_0_4_0_1,NA,NA,skipped,NA,278374.69999993,NA,NA,278373.29999995,278374.79999995,2023-11-11T08:45:02Z,278387.049,NULL,Beweis,ushahidi,d,NA,NA,NA,NA,sdf,NA,0,NA,NA,NA,NA,NA,NA,NA,NA,NA,NA,NA,NA,NA,NA,NA,NA,NA,NA,NA
0ed45,"""Falsch""-Screen",canvas.Screen,3_0_0_0_4_0_2,NA,NA,timeout,4999.926,278375.0999999,278370.177,278387.049,283370.41,283372,2023-11-11T08:45:07Z,283386.975,NULL,Beweis,ushahidi,d,NA,NA,NA,NA,sdf,0,0,NA,NA,NA,NA,NA,NA,NA,NA,NA,NA,NA,NA,NA,NA,NA,NA,NA,NA,NA
0ed45,deep,flow.Sequence,3_0_0_0_4_0,NA,NA,completion,13299.94,270055.0999999,270053.519,270070.47,283370.41,283372.0999999,2023-11-11T08:45:07Z,283386.975,NULL,Beweis,ushahidi,d,NA,NA,NA,NA,sdf,NA,0,NA,NA,NA,NA,NA,NA,NA,NA,NA,NA,NA,NA,NA,NA,NA,NA,NA,NA,NA
0ed45,shallow,flow.Sequence,3_0_0_0_4_1,NA,NA,skipped,NA,283372.19999993,NA,NA,283370.41,283372.19999993,2023-11-11T08:45:07Z,283386.975,NULL,Beweis,ushahidi,d,NA,NA,NA,NA,sdf,NA,0,NA,NA,NA,NA,NA,NA,NA,NA,NA,NA,NA,NA,NA,NA,NA,NA,NA,NA,NA
0ed45,task,flow.Sequence,3_0_0_0_4,NA,NA,completion,13299.94,270055.0999999,270053.519,270070.47,283370.41,283372.19999993,2023-11-11T08:45:07Z,283386.975,NULL,Beweis,ushahidi,d,NA,NA,NA,NA,sdf,NA,0,NA,NA,NA,NA,NA,NA,NA,NA,NA,NA,NA,NA,NA,NA,NA,NA,NA,NA,NA
0ed45,deep,flow.Sequence,3_0_0_0_5_0,NA,NA,skipped,NA,283372.29999995,NA,NA,283370.41,283372.29999995,2023-11-11T08:45:07Z,283386.975,NULL,Annäherung,maegesho,s,madahili,kujiamini,mapendekezo,NA,sdf,NA,0,NA,NA,NA,NA,NA,NA,NA,NA,NA,NA,NA,NA,NA,NA,NA,NA,NA,NA,NA
0ed45,Shallow Question,html.Page,3_0_0_0_5_1_0,NA,NA,form submission,17870.624999905,283372.29999995,283370.41,283386.975,301257.5999999,301257.69999993,2023-11-11T08:45:25Z,301270.236,NULL,Annäherung,maegesho,s,madahili,kujiamini,mapendekezo,mapendekezo,NA,NA,0,NA,NA,NA,NA,NA,NA,NA,NA,NA,NA,NA,NA,NA,NA,NA,NA,NA,NA,NA
0ed45,"""Richtig""-Screen",canvas.Screen,3_0_0_0_5_1_1,NA,NA,skipped,NA,301258.79999995,NA,NA,301257.5999999,301258.89999998,2023-11-11T08:45:25Z,301270.236,NULL,Annäherung,maegesho,s,madahili,kujiamini,mapendekezo,NA,sdf,NA,0,NA,NA,NA,NA,NA,NA,NA,NA,NA,NA,NA,NA,NA,NA,NA,NA,NA,NA,NA
0ed45,"""Falsch""-Screen",canvas.Screen,3_0_0_0_5_1_2,NA,NA,timeout,5000.097,301259.29999995,301253.749,301270.236,306253.673,306255.19999993,2023-11-11T08:45:30Z,306270.333,NULL,Annäherung,maegesho,s,madahili,kujiamini,mapendekezo,NA,sdf,0,0,NA,NA,NA,NA,NA,NA,NA,NA,NA,NA,NA,NA,NA,NA,NA,NA,NA,NA,NA
0ed45,shallow,flow.Sequence,3_0_0_0_5_1,NA,NA,completion,22866.698,283372.29999995,283370.41,283386.975,306253.673,306255.29999995,2023-11-11T08:45:30Z,306270.333,NULL,Annäherung,maegesho,s,madahili,kujiamini,mapendekezo,NA,sdf,NA,0,NA,NA,NA,NA,NA,NA,NA,NA,NA,NA,NA,NA,NA,NA,NA,NA,NA,NA,NA
0ed45,task,flow.Sequence,3_0_0_0_5,NA,NA,completion,22866.698,283372.29999995,283370.41,283386.975,306253.673,306255.39999998,2023-11-11T08:45:30Z,306270.333,NULL,Annäherung,maegesho,s,madahili,kujiamini,mapendekezo,NA,sdf,NA,0,NA,NA,NA,NA,NA,NA,NA,NA,NA,NA,NA,NA,NA,NA,NA,NA,NA,NA,NA
0ed45,Deep Question,html.Page,3_0_0_0_6_0_0,NA,NA,form submission,8352.4669999523,306255.39999998,306253.673,306270.333,314622.79999995,314623,2023-11-11T08:45:39Z,314636.866,NULL,Polizist,msongora,d,NA,NA,NA,wanda,NA,NA,0,NA,NA,NA,NA,NA,NA,NA,NA,NA,NA,NA,NA,NA,NA,NA,NA,NA,NA,NA
0ed45,"""Richtig""-Screen",canvas.Screen,3_0_0_0_6_0_1,NA,NA,skipped,NA,314624.19999993,NA,NA,314622.79999995,314624.19999993,2023-11-11T08:45:39Z,314636.866,NULL,Polizist,msongora,d,NA,NA,NA,NA,sdf,NA,0,NA,NA,NA,NA,NA,NA,NA,NA,NA,NA,NA,NA,NA,NA,NA,NA,NA,NA,NA
0ed45,"""Falsch""-Screen",canvas.Screen,3_0_0_0_6_0_2,NA,NA,timeout,5000.021,314624.89999998,314620.3,314636.866,319620.377,319621.5999999,2023-11-11T08:45:44Z,319636.887,NULL,Polizist,msongora,d,NA,NA,NA,NA,sdf,0,0,NA,NA,NA,NA,NA,NA,NA,NA,NA,NA,NA,NA,NA,NA,NA,NA,NA,NA,NA
0ed45,deep,flow.Sequence,3_0_0_0_6_0,NA,NA,completion,13350.044,306255.39999998,306253.673,306270.333,319620.377,319621.69999993,2023-11-11T08:45:44Z,319636.887,NULL,Polizist,msongora,d,NA,NA,NA,NA,sdf,NA,0,NA,NA,NA,NA,NA,NA,NA,NA,NA,NA,NA,NA,NA,NA,NA,NA,NA,NA,NA
0ed45,shallow,flow.Sequence,3_0_0_0_6_1,NA,NA,skipped,NA,319621.79999995,NA,NA,319620.377,319621.79999995,2023-11-11T08:45:44Z,319636.887,NULL,Polizist,msongora,d,NA,NA,NA,NA,sdf,NA,0,NA,NA,NA,NA,NA,NA,NA,NA,NA,NA,NA,NA,NA,NA,NA,NA,NA,NA,NA
0ed45,task,flow.Sequence,3_0_0_0_6,NA,NA,completion,13350.044,306255.39999998,306253.673,306270.333,319620.377,319621.79999995,2023-11-11T08:45:44Z,319636.887,NULL,Polizist,msongora,d,NA,NA,NA,NA,sdf,NA,0,NA,NA,NA,NA,NA,NA,NA,NA,NA,NA,NA,NA,NA,NA,NA,NA,NA,NA,NA
0ed45,deep,flow.Sequence,3_0_0_0_7_0,NA,NA,skipped,NA,319621.79999995,NA,NA,319620.377,319621.79999995,2023-11-11T08:45:44Z,319636.887,NULL,Kultur,utamaduni,s,shetani,gerezani,mazingira,NA,sdf,NA,0,NA,NA,NA,NA,NA,NA,NA,NA,NA,NA,NA,NA,NA,NA,NA,NA,NA,NA,NA
0ed45,Shallow Question,html.Page,3_0_0_0_7_1_0,NA,NA,form submission,9630.4129999523,319621.89999998,319620.377,319636.887,329267.29999995,329267.39999998,2023-11-11T08:45:53Z,329287.052,NULL,Kultur,utamaduni,s,shetani,gerezani,mazingira,utamaduni,NA,NA,0,NA,NA,NA,NA,NA,NA,NA,NA,NA,NA,NA,NA,NA,NA,NA,NA,NA,NA,NA
0ed45,"""Richtig""-Screen",canvas.Screen,3_0_0_0_7_1_1,NA,NA,timeout,4999.894,329268.5,329270.067,329287.052,334270.15,334271.89999998,2023-11-11T08:45:58Z,334286.946,NULL,Kultur,utamaduni,s,shetani,gerezani,mazingira,NA,sdf,1,0,NA,NA,NA,NA,NA,NA,NA,NA,NA,NA,NA,NA,NA,NA,NA,NA,NA,NA,NA
0ed45,"""Falsch""-Screen",canvas.Screen,3_0_0_0_7_1_2,NA,NA,skipped,NA,334272.89999998,NA,NA,334270.15,334273,2023-11-11T08:45:58Z,334286.946,NULL,Kultur,utamaduni,s,shetani,gerezani,mazingira,NA,sdf,NA,0,NA,NA,NA,NA,NA,NA,NA,NA,NA,NA,NA,NA,NA,NA,NA,NA,NA,NA,NA
0ed45,shallow,flow.Sequence,3_0_0_0_7_1,NA,NA,completion,14633.263,319621.79999995,319620.377,319636.887,334270.15,334273,2023-11-11T08:45:58Z,334286.946,NULL,Kultur,utamaduni,s,shetani,gerezani,mazingira,NA,sdf,NA,0,NA,NA,NA,NA,NA,NA,NA,NA,NA,NA,NA,NA,NA,NA,NA,NA,NA,NA,NA
0ed45,task,flow.Sequence,3_0_0_0_7,NA,NA,completion,14633.263,319621.79999995,319620.377,319636.887,334270.15,334273,2023-11-11T08:45:58Z,334286.946,NULL,Kultur,utamaduni,s,shetani,gerezani,mazingira,NA,sdf,NA,0,NA,NA,NA,NA,NA,NA,NA,NA,NA,NA,NA,NA,NA,NA,NA,NA,NA,NA,NA
0ed45,block,flow.Loop,3_0_0_0,NA,NA,completion,123349.902,210915.39999998,210907.159,210920.248,334270.15,334273.0999999,2023-11-11T08:45:58Z,334286.946,NULL,NA,NA,NA,NA,NA,NA,NA,sdf,NA,0,NA,NA,NA,NA,NA,NA,NA,NA,NA,NA,NA,NA,NA,NA,NA,NA,NA,NA,NA
0ed45,weiter,canvas.Screen,3_0_0_1,sdf,keypress(Space),response,4052.7539999285,334273.0999999,334270.15,334286.946,338339.69999993,338340.0999999,2023-11-11T08:46:02Z,338353.474,NULL,NA,NA,NA,NA,NA,NA,NA,sdf,NA,0,NA,NA,NA,NA,NA,NA,NA,NA,NA,NA,NA,NA,NA,NA,NA,NA,NA,NA,NA
0ed45,check continue,flow.Sequence,3_0_0,NA,NA,completion,127419.45199993,210915.39999998,210907.159,210920.248,338339.69999993,338340.19999993,2023-11-11T08:46:02Z,338353.474,NULL,NA,NA,NA,NA,NA,NA,NA,sdf,NA,0,NA,NA,NA,NA,NA,NA,NA,NA,NA,NA,NA,NA,NA,NA,NA,NA,NA,NA,NA
0ed45,deep,flow.Sequence,3_0_1_0_0_0,NA,NA,skipped,NA,338356.0999999,NA,NA,338339.69999993,338356.19999993,2023-11-11T08:46:02Z,338353.474,NULL,Sympathie,mapendano,s,dhamiria,fungamano,maazimio,NA,sdfdsf,NA,1,NA,NA,NA,NA,NA,NA,NA,NA,NA,NA,NA,NA,NA,NA,NA,NA,NA,NA,NA
0ed45,Shallow Question,html.Page,3_0_1_0_0_1_0,NA,NA,form submission,11310.725999928,338356.19999993,338336.701,338353.474,349664.19999993,349664.39999998,2023-11-11T08:46:14Z,349670.05,NULL,Sympathie,mapendano,s,dhamiria,fungamano,maazimio,mapendano,NA,NA,1,NA,NA,NA,NA,NA,NA,NA,NA,NA,NA,NA,NA,NA,NA,NA,NA,NA,NA,NA
0ed45,"""Richtig""-Screen",canvas.Screen,3_0_1_0_0_1_1,NA,NA,timeout,5000.141,349666,349653.594,349670.05,354653.503,354654.5999999,2023-11-11T08:46:19Z,354670.191,NULL,Sympathie,mapendano,s,dhamiria,fungamano,maazimio,NA,sdfdsf,1,1,NA,NA,NA,NA,NA,NA,NA,NA,NA,NA,NA,NA,NA,NA,NA,NA,NA,NA,NA
0ed45,"""Falsch""-Screen",canvas.Screen,3_0_1_0_0_1_2,NA,NA,skipped,NA,354655.79999995,NA,NA,354653.503,354655.89999998,2023-11-11T08:46:19Z,354670.191,NULL,Sympathie,mapendano,s,dhamiria,fungamano,maazimio,NA,sdfdsf,NA,1,NA,NA,NA,NA,NA,NA,NA,NA,NA,NA,NA,NA,NA,NA,NA,NA,NA,NA,NA
0ed45,shallow,flow.Sequence,3_0_1_0_0_1,NA,NA,completion,16300.029,338356.19999993,338336.701,338353.474,354653.503,354655.89999998,2023-11-11T08:46:19Z,354670.191,NULL,Sympathie,mapendano,s,dhamiria,fungamano,maazimio,NA,sdfdsf,NA,1,NA,NA,NA,NA,NA,NA,NA,NA,NA,NA,NA,NA,NA,NA,NA,NA,NA,NA,NA
0ed45,task,flow.Sequence,3_0_1_0_0,NA,NA,completion,16300.029,338356.0999999,338336.701,338353.474,354653.503,354656,2023-11-11T08:46:19Z,354670.191,NULL,Sympathie,mapendano,s,dhamiria,fungamano,maazimio,NA,sdfdsf,NA,1,NA,NA,NA,NA,NA,NA,NA,NA,NA,NA,NA,NA,NA,NA,NA,NA,NA,NA,NA
0ed45,Deep Question,html.Page,3_0_1_0_1_0_0,NA,NA,form submission,10032.708999976,354656,354653.503,354670.191,364702.89999998,364703,2023-11-11T08:46:29Z,364720.823,NULL,Prüfung,mtihani,d,NA,NA,NA,mwahnde,NA,NA,1,NA,NA,NA,NA,NA,NA,NA,NA,NA,NA,NA,NA,NA,NA,NA,NA,NA,NA,NA
0ed45,"""Richtig""-Screen",canvas.Screen,3_0_1_0_1_0_1,NA,NA,skipped,NA,364704.39999998,NA,NA,364702.89999998,364704.5,2023-11-11T08:46:29Z,364720.823,NULL,Prüfung,mtihani,d,NA,NA,NA,NA,sdfdsf,NA,1,NA,NA,NA,NA,NA,NA,NA,NA,NA,NA,NA,NA,NA,NA,NA,NA,NA,NA,NA
0ed45,"""Falsch""-Screen",canvas.Screen,3_0_1_0_1_0_2,NA,NA,timeout,4999.447,364704.79999995,364686.557,364720.823,369703.483,369704.69999993,2023-11-11T08:46:34Z,369720.27,NULL,Prüfung,mtihani,d,NA,NA,NA,NA,sdfdsf,0,1,NA,NA,NA,NA,NA,NA,NA,NA,NA,NA,NA,NA,NA,NA,NA,NA,NA,NA,NA
0ed45,deep,flow.Sequence,3_0_1_0_1_0,NA,NA,completion,15033.292,354656,354653.503,354670.191,369703.483,369704.89999998,2023-11-11T08:46:34Z,369720.27,NULL,Prüfung,mtihani,d,NA,NA,NA,NA,sdfdsf,NA,1,NA,NA,NA,NA,NA,NA,NA,NA,NA,NA,NA,NA,NA,NA,NA,NA,NA,NA,NA
0ed45,shallow,flow.Sequence,3_0_1_0_1_1,NA,NA,skipped,NA,369704.89999998,NA,NA,369703.483,369705,2023-11-11T08:46:34Z,369720.27,NULL,Prüfung,mtihani,d,NA,NA,NA,NA,sdfdsf,NA,1,NA,NA,NA,NA,NA,NA,NA,NA,NA,NA,NA,NA,NA,NA,NA,NA,NA,NA,NA
0ed45,task,flow.Sequence,3_0_1_0_1,NA,NA,completion,15033.292,354656,354653.503,354670.191,369703.483,369705,2023-11-11T08:46:34Z,369720.27,NULL,Prüfung,mtihani,d,NA,NA,NA,NA,sdfdsf,NA,1,NA,NA,NA,NA,NA,NA,NA,NA,NA,NA,NA,NA,NA,NA,NA,NA,NA,NA,NA
0ed45,Deep Question,html.Page,3_0_1_0_2_0_0,NA,NA,form submission,9438.5299999523,369705,369703.483,369720.27,379158.79999995,379158.89999998,2023-11-11T08:46:43Z,379170.254,NULL,Aufstand,ugomaji,d,NA,NA,NA,minuzdi,NA,NA,1,NA,NA,NA,NA,NA,NA,NA,NA,NA,NA,NA,NA,NA,NA,NA,NA,NA,NA,NA
0ed45,"""Richtig""-Screen",canvas.Screen,3_0_1_0_2_0_1,NA,NA,skipped,NA,379160,NA,NA,379158.79999995,379160.0999999,2023-11-11T08:46:43Z,379170.254,NULL,Aufstand,ugomaji,d,NA,NA,NA,NA,sdfdsf,NA,1,NA,NA,NA,NA,NA,NA,NA,NA,NA,NA,NA,NA,NA,NA,NA,NA,NA,NA,NA
0ed45,"""Falsch""-Screen",canvas.Screen,3_0_1_0_2_0_2,NA,NA,timeout,4999.955,379160.79999995,379153.577,379170.254,384153.482,384154.39999998,2023-11-11T08:46:48Z,384170.209,NULL,Aufstand,ugomaji,d,NA,NA,NA,NA,sdfdsf,0,1,NA,NA,NA,NA,NA,NA,NA,NA,NA,NA,NA,NA,NA,NA,NA,NA,NA,NA,NA
0ed45,deep,flow.Sequence,3_0_1_0_2_0,NA,NA,completion,14433.212,369705,369703.483,369720.27,384153.482,384154.5,2023-11-11T08:46:48Z,384170.209,NULL,Aufstand,ugomaji,d,NA,NA,NA,NA,sdfdsf,NA,1,NA,NA,NA,NA,NA,NA,NA,NA,NA,NA,NA,NA,NA,NA,NA,NA,NA,NA,NA
0ed45,shallow,flow.Sequence,3_0_1_0_2_1,NA,NA,skipped,NA,384154.5999999,NA,NA,384153.482,384154.5999999,2023-11-11T08:46:48Z,384170.209,NULL,Aufstand,ugomaji,d,NA,NA,NA,NA,sdfdsf,NA,1,NA,NA,NA,NA,NA,NA,NA,NA,NA,NA,NA,NA,NA,NA,NA,NA,NA,NA,NA
0ed45,task,flow.Sequence,3_0_1_0_2,NA,NA,completion,14433.212,369705,369703.483,369720.27,384153.482,384154.5999999,2023-11-11T08:46:48Z,384170.209,NULL,Aufstand,ugomaji,d,NA,NA,NA,NA,sdfdsf,NA,1,NA,NA,NA,NA,NA,NA,NA,NA,NA,NA,NA,NA,NA,NA,NA,NA,NA,NA,NA
0ed45,deep,flow.Sequence,3_0_1_0_3_0,NA,NA,skipped,NA,384154.69999993,NA,NA,384153.482,384154.69999993,2023-11-11T08:46:48Z,384170.209,NULL,Annäherung,maegesho,s,madahili,kujiamini,mapendekezo,NA,sdfdsf,NA,1,NA,NA,NA,NA,NA,NA,NA,NA,NA,NA,NA,NA,NA,NA,NA,NA,NA,NA,NA
0ed45,Shallow Question,html.Page,3_0_1_0_3_1_0,NA,NA,form submission,4716.291,384154.69999993,384153.482,384170.209,388886.5,388886.5999999,2023-11-11T08:46:53Z,388903.534,NULL,Annäherung,maegesho,s,madahili,kujiamini,mapendekezo,maegesho,NA,NA,1,NA,NA,NA,NA,NA,NA,NA,NA,NA,NA,NA,NA,NA,NA,NA,NA,NA,NA,NA
0ed45,"""Richtig""-Screen",canvas.Screen,3_0_1_0_3_1_1,NA,NA,timeout,4999.916,388888.39999998,388886.826,388903.534,393886.861,393888,2023-11-11T08:46:58Z,393903.45,NULL,Annäherung,maegesho,s,madahili,kujiamini,mapendekezo,NA,sdfdsf,1,1,NA,NA,NA,NA,NA,NA,NA,NA,NA,NA,NA,NA,NA,NA,NA,NA,NA,NA,NA
0ed45,"""Falsch""-Screen",canvas.Screen,3_0_1_0_3_1_2,NA,NA,skipped,NA,393889,NA,NA,393886.861,393889,2023-11-11T08:46:58Z,393903.45,NULL,Annäherung,maegesho,s,madahili,kujiamini,mapendekezo,NA,sdfdsf,NA,1,NA,NA,NA,NA,NA,NA,NA,NA,NA,NA,NA,NA,NA,NA,NA,NA,NA,NA,NA
0ed45,shallow,flow.Sequence,3_0_1_0_3_1,NA,NA,completion,9716.652,384154.69999993,384153.482,384170.209,393886.861,393889.19999993,2023-11-11T08:46:58Z,393903.45,NULL,Annäherung,maegesho,s,madahili,kujiamini,mapendekezo,NA,sdfdsf,NA,1,NA,NA,NA,NA,NA,NA,NA,NA,NA,NA,NA,NA,NA,NA,NA,NA,NA,NA,NA
0ed45,task,flow.Sequence,3_0_1_0_3,NA,NA,completion,9716.652,384154.69999993,384153.482,384170.209,393886.861,393889.19999993,2023-11-11T08:46:58Z,393903.45,NULL,Annäherung,maegesho,s,madahili,kujiamini,mapendekezo,NA,sdfdsf,NA,1,NA,NA,NA,NA,NA,NA,NA,NA,NA,NA,NA,NA,NA,NA,NA,NA,NA,NA,NA
0ed45,Deep Question,html.Page,3_0_1_0_4_0_0,NA,NA,form submission,10312.749999928,393889.19999993,393886.861,393903.45,404216.19999993,404216.39999998,2023-11-11T08:47:08Z,404220.024,NULL,Polizist,msongora,d,NA,NA,NA,unahiti,NA,NA,1,NA,NA,NA,NA,NA,NA,NA,NA,NA,NA,NA,NA,NA,NA,NA,NA,NA,NA,NA
0ed45,"""Richtig""-Screen",canvas.Screen,3_0_1_0_4_0_1,NA,NA,skipped,NA,404217.5,NA,NA,404216.19999993,404217.5,2023-11-11T08:47:08Z,404220.024,NULL,Polizist,msongora,d,NA,NA,NA,NA,sdfdsf,NA,1,NA,NA,NA,NA,NA,NA,NA,NA,NA,NA,NA,NA,NA,NA,NA,NA,NA,NA,NA
0ed45,"""Falsch""-Screen",canvas.Screen,3_0_1_0_4_0_2,NA,NA,timeout,5000.827,404217.89999998,404203.555,404220.024,409203.469,409204.5999999,2023-11-11T08:47:13Z,409220.851,NULL,Polizist,msongora,d,NA,NA,NA,NA,sdfdsf,0,1,NA,NA,NA,NA,NA,NA,NA,NA,NA,NA,NA,NA,NA,NA,NA,NA,NA,NA,NA
0ed45,deep,flow.Sequence,3_0_1_0_4_0,NA,NA,completion,15300.019,393889.19999993,393886.861,393903.45,409203.469,409204.79999995,2023-11-11T08:47:13Z,409220.851,NULL,Polizist,msongora,d,NA,NA,NA,NA,sdfdsf,NA,1,NA,NA,NA,NA,NA,NA,NA,NA,NA,NA,NA,NA,NA,NA,NA,NA,NA,NA,NA
0ed45,shallow,flow.Sequence,3_0_1_0_4_1,NA,NA,skipped,NA,409204.79999995,NA,NA,409203.469,409204.79999995,2023-11-11T08:47:13Z,409220.851,NULL,Polizist,msongora,d,NA,NA,NA,NA,sdfdsf,NA,1,NA,NA,NA,NA,NA,NA,NA,NA,NA,NA,NA,NA,NA,NA,NA,NA,NA,NA,NA
0ed45,task,flow.Sequence,3_0_1_0_4,NA,NA,completion,15300.019,393889.19999993,393886.861,393903.45,409203.469,409204.89999998,2023-11-11T08:47:13Z,409220.851,NULL,Polizist,msongora,d,NA,NA,NA,NA,sdfdsf,NA,1,NA,NA,NA,NA,NA,NA,NA,NA,NA,NA,NA,NA,NA,NA,NA,NA,NA,NA,NA
0ed45,deep,flow.Sequence,3_0_1_0_5_0,NA,NA,skipped,NA,409205,NA,NA,409203.469,409205,2023-11-11T08:47:13Z,409220.851,NULL,Verzögerung,kuchelewa,s,mwakilishi,mwanauchumi,jaribio,NA,sdfdsf,NA,1,NA,NA,NA,NA,NA,NA,NA,NA,NA,NA,NA,NA,NA,NA,NA,NA,NA,NA,NA
0ed45,Shallow Question,html.Page,3_0_1_0_5_1_0,NA,NA,form submission,9900.149,409205,409203.469,409220.851,419121,419121.0999999,2023-11-11T08:47:23Z,419137.043,NULL,Verzögerung,kuchelewa,s,mwakilishi,mwanauchumi,jaribio,mwanauchumi,NA,NA,1,NA,NA,NA,NA,NA,NA,NA,NA,NA,NA,NA,NA,NA,NA,NA,NA,NA,NA,NA
0ed45,"""Richtig""-Screen",canvas.Screen,3_0_1_0_5_1_1,NA,NA,skipped,NA,419122.0999999,NA,NA,419121,419122.19999993,2023-11-11T08:47:23Z,419137.043,NULL,Verzögerung,kuchelewa,s,mwakilishi,mwanauchumi,jaribio,NA,sdfdsf,NA,1,NA,NA,NA,NA,NA,NA,NA,NA,NA,NA,NA,NA,NA,NA,NA,NA,NA,NA,NA
0ed45,"""Falsch""-Screen",canvas.Screen,3_0_1_0_5_1_2,NA,NA,timeout,4999.749,419122.39999998,419120.158,419137.043,424120.227,424121.69999993,2023-11-11T08:47:28Z,424136.792,NULL,Verzögerung,kuchelewa,s,mwakilishi,mwanauchumi,jaribio,NA,sdfdsf,0,1,NA,NA,NA,NA,NA,NA,NA,NA,NA,NA,NA,NA,NA,NA,NA,NA,NA,NA,NA
0ed45,shallow,flow.Sequence,3_0_1_0_5_1,NA,NA,completion,14899.376,409205,409203.469,409220.851,424120.227,424121.79999995,2023-11-11T08:47:28Z,424136.792,NULL,Verzögerung,kuchelewa,s,mwakilishi,mwanauchumi,jaribio,NA,sdfdsf,NA,1,NA,NA,NA,NA,NA,NA,NA,NA,NA,NA,NA,NA,NA,NA,NA,NA,NA,NA,NA
0ed45,task,flow.Sequence,3_0_1_0_5,NA,NA,completion,14899.376,409205,409203.469,409220.851,424120.227,424121.89999998,2023-11-11T08:47:28Z,424136.792,NULL,Verzögerung,kuchelewa,s,mwakilishi,mwanauchumi,jaribio,NA,sdfdsf,NA,1,NA,NA,NA,NA,NA,NA,NA,NA,NA,NA,NA,NA,NA,NA,NA,NA,NA,NA,NA
0ed45,deep,flow.Sequence,3_0_1_0_6_0,NA,NA,skipped,NA,424121.89999998,NA,NA,424120.227,424121.89999998,2023-11-11T08:47:28Z,424136.792,NULL,Kultur,utamaduni,s,shetani,gerezani,mazingira,NA,sdfdsf,NA,1,NA,NA,NA,NA,NA,NA,NA,NA,NA,NA,NA,NA,NA,NA,NA,NA,NA,NA,NA
0ed45,Shallow Question,html.Page,3_0_1_0_6_1_0,NA,NA,form submission,6497.9079999285,424122.5,424120.227,424136.792,430634.69999993,430634.79999995,2023-11-11T08:47:35Z,430636.666,NULL,Kultur,utamaduni,s,shetani,gerezani,mazingira,mazingira,NA,NA,1,NA,NA,NA,NA,NA,NA,NA,NA,NA,NA,NA,NA,NA,NA,NA,NA,NA,NA,NA
0ed45,"""Richtig""-Screen",canvas.Screen,3_0_1_0_6_1_1,NA,NA,skipped,NA,430635.79999995,NA,NA,430634.69999993,430635.89999998,2023-11-11T08:47:35Z,430636.666,NULL,Kultur,utamaduni,s,shetani,gerezani,mazingira,NA,sdfdsf,NA,1,NA,NA,NA,NA,NA,NA,NA,NA,NA,NA,NA,NA,NA,NA,NA,NA,NA,NA,NA
0ed45,"""Falsch""-Screen",canvas.Screen,3_0_1_0_6_1_2,NA,NA,timeout,5000.095,430636.0999999,430620.091,430636.666,435620.027,435620.79999995,2023-11-11T08:47:40Z,435636.761,NULL,Kultur,utamaduni,s,shetani,gerezani,mazingira,NA,sdfdsf,0,1,NA,NA,NA,NA,NA,NA,NA,NA,NA,NA,NA,NA,NA,NA,NA,NA,NA,NA,NA
0ed45,shallow,flow.Sequence,3_0_1_0_6_1,NA,NA,completion,11483.235,424122.39999998,424120.227,424136.792,435620.027,435620.89999998,2023-11-11T08:47:40Z,435636.761,NULL,Kultur,utamaduni,s,shetani,gerezani,mazingira,NA,sdfdsf,NA,1,NA,NA,NA,NA,NA,NA,NA,NA,NA,NA,NA,NA,NA,NA,NA,NA,NA,NA,NA
0ed45,task,flow.Sequence,3_0_1_0_6,NA,NA,completion,11483.235,424121.89999998,424120.227,424136.792,435620.027,435621.0999999,2023-11-11T08:47:40Z,435636.761,NULL,Kultur,utamaduni,s,shetani,gerezani,mazingira,NA,sdfdsf,NA,1,NA,NA,NA,NA,NA,NA,NA,NA,NA,NA,NA,NA,NA,NA,NA,NA,NA,NA,NA
0ed45,Deep Question,html.Page,3_0_1_0_7_0_0,NA,NA,form submission,7742.4389999285,435621.0999999,435620.027,435636.761,443379.19999993,443379.39999998,2023-11-11T08:47:47Z,443386.729,NULL,Beweis,ushahidi,d,NA,NA,NA,Menzuri,NA,NA,1,NA,NA,NA,NA,NA,NA,NA,NA,NA,NA,NA,NA,NA,NA,NA,NA,NA,NA,NA
0ed45,"""Richtig""-Screen",canvas.Screen,3_0_1_0_7_0_1,NA,NA,skipped,NA,443380.5,NA,NA,443379.19999993,443380.5999999,2023-11-11T08:47:47Z,443386.729,NULL,Beweis,ushahidi,d,NA,NA,NA,NA,sdfdsf,NA,1,NA,NA,NA,NA,NA,NA,NA,NA,NA,NA,NA,NA,NA,NA,NA,NA,NA,NA,NA
0ed45,"""Falsch""-Screen",canvas.Screen,3_0_1_0_7_0_2,NA,NA,timeout,5000.205,443381.19999993,443370.233,443386.729,448370.068,448371.5,2023-11-11T08:47:52Z,448386.934,NULL,Beweis,ushahidi,d,NA,NA,NA,NA,sdfdsf,0,1,NA,NA,NA,NA,NA,NA,NA,NA,NA,NA,NA,NA,NA,NA,NA,NA,NA,NA,NA
0ed45,deep,flow.Sequence,3_0_1_0_7_0,NA,NA,completion,12733.307,435621.0999999,435620.027,435636.761,448370.068,448371.5,2023-11-11T08:47:52Z,448386.934,NULL,Beweis,ushahidi,d,NA,NA,NA,NA,sdfdsf,NA,1,NA,NA,NA,NA,NA,NA,NA,NA,NA,NA,NA,NA,NA,NA,NA,NA,NA,NA,NA
0ed45,shallow,flow.Sequence,3_0_1_0_7_1,NA,NA,skipped,NA,448371.5,NA,NA,448370.068,448371.5999999,2023-11-11T08:47:52Z,448386.934,NULL,Beweis,ushahidi,d,NA,NA,NA,NA,sdfdsf,NA,1,NA,NA,NA,NA,NA,NA,NA,NA,NA,NA,NA,NA,NA,NA,NA,NA,NA,NA,NA
0ed45,task,flow.Sequence,3_0_1_0_7,NA,NA,completion,12733.307,435621.0999999,435620.027,435636.761,448370.068,448371.69999993,2023-11-11T08:47:52Z,448386.934,NULL,Beweis,ushahidi,d,NA,NA,NA,NA,sdfdsf,NA,1,NA,NA,NA,NA,NA,NA,NA,NA,NA,NA,NA,NA,NA,NA,NA,NA,NA,NA,NA
0ed45,block,flow.Loop,3_0_1_0,NA,NA,completion,110016.594,338356,338336.701,338353.474,448370.068,448371.69999993,2023-11-11T08:47:52Z,448386.934,NULL,NA,NA,NA,NA,NA,NA,NA,sdfdsf,NA,1,NA,NA,NA,NA,NA,NA,NA,NA,NA,NA,NA,NA,NA,NA,NA,NA,NA,NA,NA
0ed45,weiter,canvas.Screen,3_0_1_1,sdf,keypress(Space),response,1626.2659999285,448371.69999993,448370.068,448386.934,450013.19999993,450013.5,2023-11-11T08:47:54Z,450036.876,NULL,NA,NA,NA,NA,NA,NA,NA,sdfdsf,NA,1,NA,NA,NA,NA,NA,NA,NA,NA,NA,NA,NA,NA,NA,NA,NA,NA,NA,NA,NA
0ed45,check continue,flow.Sequence,3_0_1,NA,NA,completion,111659.72599993,338356,338336.701,338353.474,450013.19999993,450013.5999999,2023-11-11T08:47:54Z,450036.876,NULL,NA,NA,NA,NA,NA,NA,NA,sdfdsf,NA,1,NA,NA,NA,NA,NA,NA,NA,NA,NA,NA,NA,NA,NA,NA,NA,NA,NA,NA,NA
0ed45,Deep Question,html.Page,3_0_2_0_0_0_0,NA,NA,form submission,9575.624,450029.29999995,450020.232,450036.876,459612.5,459612.69999993,2023-11-11T08:48:04Z,459620.085,NULL,Aufstand,ugomaji,d,NA,NA,NA,msongolia,NA,NA,2,NA,NA,NA,NA,NA,NA,NA,NA,NA,NA,NA,NA,NA,NA,NA,NA,NA,NA,NA
0ed45,"""Richtig""-Screen",canvas.Screen,3_0_2_0_0_0_1,NA,NA,skipped,NA,459613.89999998,NA,NA,459612.5,459613.89999998,2023-11-11T08:48:04Z,459620.085,NULL,Aufstand,ugomaji,d,NA,NA,NA,NA,sdf,NA,2,NA,NA,NA,NA,NA,NA,NA,NA,NA,NA,NA,NA,NA,NA,NA,NA,NA,NA,NA
0ed45,"""Falsch""-Screen",canvas.Screen,3_0_2_0_0_0_2,NA,NA,timeout,5000.063,459614.29999995,459603.628,459620.085,464603.421,464605.0999999,2023-11-11T08:48:09Z,464620.148,NULL,Aufstand,ugomaji,d,NA,NA,NA,NA,sdf,0,2,NA,NA,NA,NA,NA,NA,NA,NA,NA,NA,NA,NA,NA,NA,NA,NA,NA,NA,NA
0ed45,deep,flow.Sequence,3_0_2_0_0_0,NA,NA,completion,14566.545,450029.29999995,450020.232,450036.876,464603.421,464605.19999993,2023-11-11T08:48:09Z,464620.148,NULL,Aufstand,ugomaji,d,NA,NA,NA,NA,sdf,NA,2,NA,NA,NA,NA,NA,NA,NA,NA,NA,NA,NA,NA,NA,NA,NA,NA,NA,NA,NA
0ed45,shallow,flow.Sequence,3_0_2_0_0_1,NA,NA,skipped,NA,464605.29999995,NA,NA,464603.421,464605.29999995,2023-11-11T08:48:09Z,464620.148,NULL,Aufstand,ugomaji,d,NA,NA,NA,NA,sdf,NA,2,NA,NA,NA,NA,NA,NA,NA,NA,NA,NA,NA,NA,NA,NA,NA,NA,NA,NA,NA
0ed45,task,flow.Sequence,3_0_2_0_0,NA,NA,completion,14566.545,450029.29999995,450020.232,450036.876,464603.421,464605.29999995,2023-11-11T08:48:09Z,464620.148,NULL,Aufstand,ugomaji,d,NA,NA,NA,NA,sdf,NA,2,NA,NA,NA,NA,NA,NA,NA,NA,NA,NA,NA,NA,NA,NA,NA,NA,NA,NA,NA
0ed45,Deep Question,html.Page,3_0_2_0_1_0_0,NA,NA,form submission,17553.352,464605.29999995,464603.421,464620.148,482173.5,482173.69999993,2023-11-11T08:48:26Z,482186.866,NULL,Prüfung,mtihani,d,NA,NA,NA,munahimbi,NA,NA,2,NA,NA,NA,NA,NA,NA,NA,NA,NA,NA,NA,NA,NA,NA,NA,NA,NA,NA,NA
0ed45,"""Richtig""-Screen",canvas.Screen,3_0_2_0_1_0_1,NA,NA,skipped,NA,482174.79999995,NA,NA,482173.5,482174.79999995,2023-11-11T08:48:26Z,482186.866,NULL,Prüfung,mtihani,d,NA,NA,NA,NA,sdf,NA,2,NA,NA,NA,NA,NA,NA,NA,NA,NA,NA,NA,NA,NA,NA,NA,NA,NA,NA,NA
0ed45,"""Falsch""-Screen",canvas.Screen,3_0_2_0_1_0_2,NA,NA,timeout,4999.978,482175.5999999,482170.277,482186.866,487170.245,487172,2023-11-11T08:48:31Z,487186.844,NULL,Prüfung,mtihani,d,NA,NA,NA,NA,sdf,0,2,NA,NA,NA,NA,NA,NA,NA,NA,NA,NA,NA,NA,NA,NA,NA,NA,NA,NA,NA
0ed45,deep,flow.Sequence,3_0_2_0_1_0,NA,NA,completion,22550.097,464605.29999995,464603.421,464620.148,487170.245,487172,2023-11-11T08:48:31Z,487186.844,NULL,Prüfung,mtihani,d,NA,NA,NA,NA,sdf,NA,2,NA,NA,NA,NA,NA,NA,NA,NA,NA,NA,NA,NA,NA,NA,NA,NA,NA,NA,NA
0ed45,shallow,flow.Sequence,3_0_2_0_1_1,NA,NA,skipped,NA,487172.0999999,NA,NA,487170.245,487172.0999999,2023-11-11T08:48:31Z,487186.844,NULL,Prüfung,mtihani,d,NA,NA,NA,NA,sdf,NA,2,NA,NA,NA,NA,NA,NA,NA,NA,NA,NA,NA,NA,NA,NA,NA,NA,NA,NA,NA
0ed45,task,flow.Sequence,3_0_2_0_1,NA,NA,completion,22550.097,464605.29999995,464603.421,464620.148,487170.245,487172.19999993,2023-11-11T08:48:31Z,487186.844,NULL,Prüfung,mtihani,d,NA,NA,NA,NA,sdf,NA,2,NA,NA,NA,NA,NA,NA,NA,NA,NA,NA,NA,NA,NA,NA,NA,NA,NA,NA,NA
0ed45,deep,flow.Sequence,3_0_2_0_2_0,NA,NA,skipped,NA,487172.19999993,NA,NA,487170.245,487172.19999993,2023-11-11T08:48:31Z,487186.844,NULL,Kultur,utamaduni,s,shetani,gerezani,mazingira,NA,sdf,NA,2,NA,NA,NA,NA,NA,NA,NA,NA,NA,NA,NA,NA,NA,NA,NA,NA,NA,NA,NA
0ed45,Shallow Question,html.Page,3_0_2_0_2_1_0,NA,NA,form submission,5706.656,487172.19999993,487170.245,487186.844,492893.5,492893.5999999,2023-11-11T08:48:37Z,492903.567,NULL,Kultur,utamaduni,s,shetani,gerezani,mazingira,utamaduni,NA,NA,2,NA,NA,NA,NA,NA,NA,NA,NA,NA,NA,NA,NA,NA,NA,NA,NA,NA,NA,NA
0ed45,"""Richtig""-Screen",canvas.Screen,3_0_2_0_2_1_1,NA,NA,timeout,4999.862,492894.69999993,492886.854,492903.567,497886.771,497888.19999993,2023-11-11T08:48:42Z,497903.429,NULL,Kultur,utamaduni,s,shetani,gerezani,mazingira,NA,sdf,1,2,NA,NA,NA,NA,NA,NA,NA,NA,NA,NA,NA,NA,NA,NA,NA,NA,NA,NA,NA
0ed45,"""Falsch""-Screen",canvas.Screen,3_0_2_0_2_1_2,NA,NA,skipped,NA,497889.39999998,NA,NA,497886.771,497889.39999998,2023-11-11T08:48:42Z,497903.429,NULL,Kultur,utamaduni,s,shetani,gerezani,mazingira,NA,sdf,NA,2,NA,NA,NA,NA,NA,NA,NA,NA,NA,NA,NA,NA,NA,NA,NA,NA,NA,NA,NA
0ed45,shallow,flow.Sequence,3_0_2_0_2_1,NA,NA,completion,10699.927,487172.19999993,487170.245,487186.844,497886.771,497889.39999998,2023-11-11T08:48:42Z,497903.429,NULL,Kultur,utamaduni,s,shetani,gerezani,mazingira,NA,sdf,NA,2,NA,NA,NA,NA,NA,NA,NA,NA,NA,NA,NA,NA,NA,NA,NA,NA,NA,NA,NA
0ed45,task,flow.Sequence,3_0_2_0_2,NA,NA,completion,10699.927,487172.19999993,487170.245,487186.844,497886.771,497889.5,2023-11-11T08:48:42Z,497903.429,NULL,Kultur,utamaduni,s,shetani,gerezani,mazingira,NA,sdf,NA,2,NA,NA,NA,NA,NA,NA,NA,NA,NA,NA,NA,NA,NA,NA,NA,NA,NA,NA,NA
0ed45,Deep Question,html.Page,3_0_2_0_3_0_0,NA,NA,form submission,13379.770999928,497889.5,497886.771,497903.429,511283.19999993,511283.39999998,2023-11-11T08:48:55Z,511286.61,NULL,Beweis,ushahidi,d,NA,NA,NA,unihabibi,NA,NA,2,NA,NA,NA,NA,NA,NA,NA,NA,NA,NA,NA,NA,NA,NA,NA,NA,NA,NA,NA
0ed45,"""Richtig""-Screen",canvas.Screen,3_0_2_0_3_0_1,NA,NA,skipped,NA,511284.5,NA,NA,511283.19999993,511284.5,2023-11-11T08:48:55Z,511286.61,NULL,Beweis,ushahidi,d,NA,NA,NA,NA,sdf,NA,2,NA,NA,NA,NA,NA,NA,NA,NA,NA,NA,NA,NA,NA,NA,NA,NA,NA,NA,NA
0ed45,"""Falsch""-Screen",canvas.Screen,3_0_2_0_3_0_2,NA,NA,timeout,5000.145,511284.79999995,511270.279,511286.61,516270.127,516271.19999993,2023-11-11T08:49:00Z,516286.755,NULL,Beweis,ushahidi,d,NA,NA,NA,NA,sdf,0,2,NA,NA,NA,NA,NA,NA,NA,NA,NA,NA,NA,NA,NA,NA,NA,NA,NA,NA,NA
0ed45,deep,flow.Sequence,3_0_2_0_3_0,NA,NA,completion,18366.698,497889.5,497886.771,497903.429,516270.127,516271.39999998,2023-11-11T08:49:00Z,516286.755,NULL,Beweis,ushahidi,d,NA,NA,NA,NA,sdf,NA,2,NA,NA,NA,NA,NA,NA,NA,NA,NA,NA,NA,NA,NA,NA,NA,NA,NA,NA,NA
0ed45,shallow,flow.Sequence,3_0_2_0_3_1,NA,NA,skipped,NA,516271.5,NA,NA,516270.127,516271.5,2023-11-11T08:49:00Z,516286.755,NULL,Beweis,ushahidi,d,NA,NA,NA,NA,sdf,NA,2,NA,NA,NA,NA,NA,NA,NA,NA,NA,NA,NA,NA,NA,NA,NA,NA,NA,NA,NA
0ed45,task,flow.Sequence,3_0_2_0_3,NA,NA,completion,18366.698,497889.5,497886.771,497903.429,516270.127,516271.5,2023-11-11T08:49:00Z,516286.755,NULL,Beweis,ushahidi,d,NA,NA,NA,NA,sdf,NA,2,NA,NA,NA,NA,NA,NA,NA,NA,NA,NA,NA,NA,NA,NA,NA,NA,NA,NA,NA
0ed45,deep,flow.Sequence,3_0_2_0_4_0,NA,NA,skipped,NA,516271.5,NA,NA,516270.127,516271.5999999,2023-11-11T08:49:00Z,516286.755,NULL,Annäherung,maegesho,s,madahili,kujiamini,mapendekezo,NA,sdf,NA,2,NA,NA,NA,NA,NA,NA,NA,NA,NA,NA,NA,NA,NA,NA,NA,NA,NA,NA,NA
0ed45,Shallow Question,html.Page,3_0_2_0_4_1_0,NA,NA,form submission,9417.1449999762,516271.5999999,516270.127,516286.755,525703.89999998,525704.0999999,2023-11-11T08:49:10Z,525720.2,NULL,Annäherung,maegesho,s,madahili,kujiamini,mapendekezo,maegesho,NA,NA,2,NA,NA,NA,NA,NA,NA,NA,NA,NA,NA,NA,NA,NA,NA,NA,NA,NA,NA,NA
0ed45,"""Richtig""-Screen",canvas.Screen,3_0_2_0_4_1_1,NA,NA,timeout,4999.944,525705.29999995,525703.505,525720.2,530703.373,530705.0999999,2023-11-11T08:49:15Z,530720.144,NULL,Annäherung,maegesho,s,madahili,kujiamini,mapendekezo,NA,sdf,1,2,NA,NA,NA,NA,NA,NA,NA,NA,NA,NA,NA,NA,NA,NA,NA,NA,NA,NA,NA
0ed45,"""Falsch""-Screen",canvas.Screen,3_0_2_0_4_1_2,NA,NA,skipped,NA,530706.0999999,NA,NA,530703.373,530706.19999993,2023-11-11T08:49:15Z,530720.144,NULL,Annäherung,maegesho,s,madahili,kujiamini,mapendekezo,NA,sdf,NA,2,NA,NA,NA,NA,NA,NA,NA,NA,NA,NA,NA,NA,NA,NA,NA,NA,NA,NA,NA
0ed45,shallow,flow.Sequence,3_0_2_0_4_1,NA,NA,completion,14416.618,516271.5999999,516270.127,516286.755,530703.373,530706.19999993,2023-11-11T08:49:15Z,530720.144,NULL,Annäherung,maegesho,s,madahili,kujiamini,mapendekezo,NA,sdf,NA,2,NA,NA,NA,NA,NA,NA,NA,NA,NA,NA,NA,NA,NA,NA,NA,NA,NA,NA,NA
0ed45,task,flow.Sequence,3_0_2_0_4,NA,NA,completion,14416.618,516271.5,516270.127,516286.755,530703.373,530706.39999998,2023-11-11T08:49:15Z,530720.144,NULL,Annäherung,maegesho,s,madahili,kujiamini,mapendekezo,NA,sdf,NA,2,NA,NA,NA,NA,NA,NA,NA,NA,NA,NA,NA,NA,NA,NA,NA,NA,NA,NA,NA
0ed45,deep,flow.Sequence,3_0_2_0_5_0,NA,NA,skipped,NA,530706.39999998,NA,NA,530703.373,530706.39999998,2023-11-11T08:49:15Z,530720.144,NULL,Verzögerung,kuchelewa,s,mwakilishi,mwanauchumi,jaribio,NA,sdf,NA,2,NA,NA,NA,NA,NA,NA,NA,NA,NA,NA,NA,NA,NA,NA,NA,NA,NA,NA,NA
0ed45,Shallow Question,html.Page,3_0_2_0_5_1_0,NA,NA,form submission,6424.4559999047,530706.39999998,530703.373,530720.144,537144.5999999,537144.79999995,2023-11-11T08:49:21Z,537153.265,NULL,Verzögerung,kuchelewa,s,mwakilishi,mwanauchumi,jaribio,mwakilishi,NA,NA,2,NA,NA,NA,NA,NA,NA,NA,NA,NA,NA,NA,NA,NA,NA,NA,NA,NA,NA,NA
0ed45,"""Richtig""-Screen",canvas.Screen,3_0_2_0_5_1_1,NA,NA,skipped,NA,537146.0999999,NA,NA,537144.5999999,537146.29999995,2023-11-11T08:49:21Z,537153.265,NULL,Verzögerung,kuchelewa,s,mwakilishi,mwanauchumi,jaribio,NA,sdf,NA,2,NA,NA,NA,NA,NA,NA,NA,NA,NA,NA,NA,NA,NA,NA,NA,NA,NA,NA,NA
0ed45,"""Falsch""-Screen",canvas.Screen,3_0_2_0_5_1_2,NA,NA,timeout,4999.983,537146.69999993,537136.63,537153.265,542136.569,542137.29999995,2023-11-11T08:49:26Z,542153.248,NULL,Verzögerung,kuchelewa,s,mwakilishi,mwanauchumi,jaribio,NA,sdf,0,2,NA,NA,NA,NA,NA,NA,NA,NA,NA,NA,NA,NA,NA,NA,NA,NA,NA,NA,NA
0ed45,shallow,flow.Sequence,3_0_2_0_5_1,NA,NA,completion,11416.425,530706.39999998,530703.373,530720.144,542136.569,542137.39999998,2023-11-11T08:49:26Z,542153.248,NULL,Verzögerung,kuchelewa,s,mwakilishi,mwanauchumi,jaribio,NA,sdf,NA,2,NA,NA,NA,NA,NA,NA,NA,NA,NA,NA,NA,NA,NA,NA,NA,NA,NA,NA,NA
0ed45,task,flow.Sequence,3_0_2_0_5,NA,NA,completion,11416.425,530706.39999998,530703.373,530720.144,542136.569,542137.5,2023-11-11T08:49:26Z,542153.248,NULL,Verzögerung,kuchelewa,s,mwakilishi,mwanauchumi,jaribio,NA,sdf,NA,2,NA,NA,NA,NA,NA,NA,NA,NA,NA,NA,NA,NA,NA,NA,NA,NA,NA,NA,NA
0ed45,deep,flow.Sequence,3_0_2_0_6_0,NA,NA,skipped,NA,542137.5,NA,NA,542136.569,542137.5999999,2023-11-11T08:49:26Z,542153.248,NULL,Sympathie,mapendano,s,dhamiria,fungamano,maazimio,NA,sdf,NA,2,NA,NA,NA,NA,NA,NA,NA,NA,NA,NA,NA,NA,NA,NA,NA,NA,NA,NA,NA
0ed45,Shallow Question,html.Page,3_0_2_0_6_1_0,NA,NA,form submission,10486.651999976,542137.69999993,542136.569,542153.248,552639.89999998,552640.0999999,2023-11-11T08:49:37Z,552653.246,NULL,Sympathie,mapendano,s,dhamiria,fungamano,maazimio,mapendano,NA,NA,2,NA,NA,NA,NA,NA,NA,NA,NA,NA,NA,NA,NA,NA,NA,NA,NA,NA,NA,NA
0ed45,"""Richtig""-Screen",canvas.Screen,3_0_2_0_6_1_1,NA,NA,timeout,4999.9939999999,552642.0999999,552636.574,552653.246,557636.57,557637.29999995,2023-11-11T08:49:42Z,557653.24,NULL,Sympathie,mapendano,s,dhamiria,fungamano,maazimio,NA,sdf,1,2,NA,NA,NA,NA,NA,NA,NA,NA,NA,NA,NA,NA,NA,NA,NA,NA,NA,NA,NA
0ed45,"""Falsch""-Screen",canvas.Screen,3_0_2_0_6_1_2,NA,NA,skipped,NA,557639.29999995,NA,NA,557636.57,557639.39999998,2023-11-11T08:49:42Z,557653.24,NULL,Sympathie,mapendano,s,dhamiria,fungamano,maazimio,NA,sdf,NA,2,NA,NA,NA,NA,NA,NA,NA,NA,NA,NA,NA,NA,NA,NA,NA,NA,NA,NA,NA
0ed45,shallow,flow.Sequence,3_0_2_0_6_1,NA,NA,completion,15483.322,542137.69999993,542136.569,542153.248,557636.57,557639.5,2023-11-11T08:49:42Z,557653.24,NULL,Sympathie,mapendano,s,dhamiria,fungamano,maazimio,NA,sdf,NA,2,NA,NA,NA,NA,NA,NA,NA,NA,NA,NA,NA,NA,NA,NA,NA,NA,NA,NA,NA
0ed45,task,flow.Sequence,3_0_2_0_6,NA,NA,completion,15483.322,542137.5,542136.569,542153.248,557636.57,557639.5999999,2023-11-11T08:49:42Z,557653.24,NULL,Sympathie,mapendano,s,dhamiria,fungamano,maazimio,NA,sdf,NA,2,NA,NA,NA,NA,NA,NA,NA,NA,NA,NA,NA,NA,NA,NA,NA,NA,NA,NA,NA
0ed45,Deep Question,html.Page,3_0_2_0_7_0_0,NA,NA,form submission,12165.26,557639.69999993,557636.57,557653.24,569818.5,569818.79999995,2023-11-11T08:49:54Z,569819.892,NULL,Polizist,msongora,d,NA,NA,NA,msongolia,NA,NA,2,NA,NA,NA,NA,NA,NA,NA,NA,NA,NA,NA,NA,NA,NA,NA,NA,NA,NA,NA
0ed45,"""Richtig""-Screen",canvas.Screen,3_0_2_0_7_0_1,NA,NA,skipped,NA,569821,NA,NA,569818.5,569821.19999993,2023-11-11T08:49:54Z,569819.892,NULL,Polizist,msongora,d,NA,NA,NA,NA,sdf,NA,2,NA,NA,NA,NA,NA,NA,NA,NA,NA,NA,NA,NA,NA,NA,NA,NA,NA,NA,NA
0ed45,"""Falsch""-Screen",canvas.Screen,3_0_2_0_7_0_2,NA,NA,timeout,5000.02,569821.69999993,569803.297,569819.892,574803.226,574803.69999993,2023-11-11T08:49:59Z,574819.912,NULL,Polizist,msongora,d,NA,NA,NA,NA,sdf,0,2,NA,NA,NA,NA,NA,NA,NA,NA,NA,NA,NA,NA,NA,NA,NA,NA,NA,NA,NA
0ed45,deep,flow.Sequence,3_0_2_0_7_0,NA,NA,completion,17149.986,557639.5999999,557636.57,557653.24,574803.226,574803.89999998,2023-11-11T08:49:59Z,574819.912,NULL,Polizist,msongora,d,NA,NA,NA,NA,sdf,NA,2,NA,NA,NA,NA,NA,NA,NA,NA,NA,NA,NA,NA,NA,NA,NA,NA,NA,NA,NA
0ed45,shallow,flow.Sequence,3_0_2_0_7_1,NA,NA,skipped,NA,574803.89999998,NA,NA,574803.226,574804.0999999,2023-11-11T08:49:59Z,574819.912,NULL,Polizist,msongora,d,NA,NA,NA,NA,sdf,NA,2,NA,NA,NA,NA,NA,NA,NA,NA,NA,NA,NA,NA,NA,NA,NA,NA,NA,NA,NA
0ed45,task,flow.Sequence,3_0_2_0_7,NA,NA,completion,17149.986,557639.5999999,557636.57,557653.24,574803.226,574804.19999993,2023-11-11T08:49:59Z,574819.912,NULL,Polizist,msongora,d,NA,NA,NA,NA,sdf,NA,2,NA,NA,NA,NA,NA,NA,NA,NA,NA,NA,NA,NA,NA,NA,NA,NA,NA,NA,NA
0ed45,block,flow.Loop,3_0_2_0,NA,NA,completion,124766.35,450029.29999995,450020.232,450036.876,574803.226,574804.19999993,2023-11-11T08:49:59Z,574819.912,NULL,NA,NA,NA,NA,NA,NA,NA,sdf,NA,2,NA,NA,NA,NA,NA,NA,NA,NA,NA,NA,NA,NA,NA,NA,NA,NA,NA,NA,NA
0ed45,weiter,canvas.Screen,3_0_2_1,sdf,keypress(Space),response,1527.588,574804.29999995,574803.226,574819.912,576347.5,576348,2023-11-11T08:50:00Z,576386.577,NULL,NA,NA,NA,NA,NA,NA,NA,sdf,NA,2,NA,NA,NA,NA,NA,NA,NA,NA,NA,NA,NA,NA,NA,NA,NA,NA,NA,NA,NA
0ed45,check continue,flow.Sequence,3_0_2,NA,NA,completion,126310.624,450029.29999995,450020.232,450036.876,576347.5,576348.19999993,2023-11-11T08:50:00Z,576386.577,NULL,NA,NA,NA,NA,NA,NA,NA,sdf,NA,2,NA,NA,NA,NA,NA,NA,NA,NA,NA,NA,NA,NA,NA,NA,NA,NA,NA,NA,NA
0ed45,Deep Question,html.Page,3_0_3_0_0_0_0,NA,NA,form submission,14838.322999976,576384.89999998,576369.802,576386.577,591224.89999998,591225.19999993,2023-11-11T08:50:15Z,591236.582,NULL,Prüfung,mtihani,d,NA,NA,NA,unihani,NA,NA,3,NA,NA,NA,NA,NA,NA,NA,NA,NA,NA,NA,NA,NA,NA,NA,NA,NA,NA,NA
0ed45,"""Richtig""-Screen",canvas.Screen,3_0_3_0_0_0_1,NA,NA,skipped,NA,591227.39999998,NA,NA,591224.89999998,591227.5,2023-11-11T08:50:15Z,591236.582,NULL,Prüfung,mtihani,d,NA,NA,NA,NA,qt,NA,3,NA,NA,NA,NA,NA,NA,NA,NA,NA,NA,NA,NA,NA,NA,NA,NA,NA,NA,NA
0ed45,"""Falsch""-Screen",canvas.Screen,3_0_3_0_0_0_2,NA,NA,timeout,4999.9809999999,591228.19999993,591219.894,591236.582,596219.886,596220.5999999,2023-11-11T08:50:20Z,596236.563,NULL,Prüfung,mtihani,d,NA,NA,NA,NA,qt,0,3,NA,NA,NA,NA,NA,NA,NA,NA,NA,NA,NA,NA,NA,NA,NA,NA,NA,NA,NA
0ed45,deep,flow.Sequence,3_0_3_0_0_0,NA,NA,completion,19833.309,576384.89999998,576369.802,576386.577,596219.886,596220.79999995,2023-11-11T08:50:20Z,596236.563,NULL,Prüfung,mtihani,d,NA,NA,NA,NA,qt,NA,3,NA,NA,NA,NA,NA,NA,NA,NA,NA,NA,NA,NA,NA,NA,NA,NA,NA,NA,NA
0ed45,shallow,flow.Sequence,3_0_3_0_0_1,NA,NA,skipped,NA,596220.79999995,NA,NA,596219.886,596220.79999995,2023-11-11T08:50:20Z,596236.563,NULL,Prüfung,mtihani,d,NA,NA,NA,NA,qt,NA,3,NA,NA,NA,NA,NA,NA,NA,NA,NA,NA,NA,NA,NA,NA,NA,NA,NA,NA,NA
0ed45,task,flow.Sequence,3_0_3_0_0,NA,NA,completion,19833.309,576384.89999998,576369.802,576386.577,596219.886,596220.89999998,2023-11-11T08:50:20Z,596236.563,NULL,Prüfung,mtihani,d,NA,NA,NA,NA,qt,NA,3,NA,NA,NA,NA,NA,NA,NA,NA,NA,NA,NA,NA,NA,NA,NA,NA,NA,NA,NA
0ed45,Deep Question,html.Page,3_0_3_0_1_0_0,NA,NA,form submission,7476.0369999047,596221,596219.886,596236.563,603712.5999999,603712.69999993,2023-11-11T08:50:28Z,603720.012,NULL,Polizist,msongora,d,NA,NA,NA,msongola,NA,NA,3,NA,NA,NA,NA,NA,NA,NA,NA,NA,NA,NA,NA,NA,NA,NA,NA,NA,NA,NA
0ed45,"""Richtig""-Screen",canvas.Screen,3_0_3_0_1_0_1,NA,NA,skipped,NA,603714,NA,NA,603712.5999999,603714,2023-11-11T08:50:28Z,603720.012,NULL,Polizist,msongora,d,NA,NA,NA,NA,qt,NA,3,NA,NA,NA,NA,NA,NA,NA,NA,NA,NA,NA,NA,NA,NA,NA,NA,NA,NA,NA
0ed45,"""Falsch""-Screen",canvas.Screen,3_0_3_0_1_0_2,NA,NA,timeout,5000.037,603714.39999998,603703.224,603720.012,608703.329,608704.69999993,2023-11-11T08:50:33Z,608720.049,NULL,Polizist,msongora,d,NA,NA,NA,NA,qt,0,3,NA,NA,NA,NA,NA,NA,NA,NA,NA,NA,NA,NA,NA,NA,NA,NA,NA,NA,NA
0ed45,deep,flow.Sequence,3_0_3_0_1_0,NA,NA,completion,12466.766,596221,596219.886,596236.563,608703.329,608704.69999993,2023-11-11T08:50:33Z,608720.049,NULL,Polizist,msongora,d,NA,NA,NA,NA,qt,NA,3,NA,NA,NA,NA,NA,NA,NA,NA,NA,NA,NA,NA,NA,NA,NA,NA,NA,NA,NA
0ed45,shallow,flow.Sequence,3_0_3_0_1_1,NA,NA,skipped,NA,608704.69999993,NA,NA,608703.329,608704.79999995,2023-11-11T08:50:33Z,608720.049,NULL,Polizist,msongora,d,NA,NA,NA,NA,qt,NA,3,NA,NA,NA,NA,NA,NA,NA,NA,NA,NA,NA,NA,NA,NA,NA,NA,NA,NA,NA
0ed45,task,flow.Sequence,3_0_3_0_1,NA,NA,completion,12466.766,596221,596219.886,596236.563,608703.329,608704.79999995,2023-11-11T08:50:33Z,608720.049,NULL,Polizist,msongora,d,NA,NA,NA,NA,qt,NA,3,NA,NA,NA,NA,NA,NA,NA,NA,NA,NA,NA,NA,NA,NA,NA,NA,NA,NA,NA
0ed45,Deep Question,html.Page,3_0_3_0_2_0_0,NA,NA,form submission,10973.150999928,608704.89999998,608703.329,608720.049,619693.19999993,619693.29999995,2023-11-11T08:50:44Z,619703.301,NULL,Aufstand,ugomaji,d,NA,NA,NA,mbutani,NA,NA,3,NA,NA,NA,NA,NA,NA,NA,NA,NA,NA,NA,NA,NA,NA,NA,NA,NA,NA,NA
0ed45,"""Richtig""-Screen",canvas.Screen,3_0_3_0_2_0_1,NA,NA,skipped,NA,619694.5,NA,NA,619693.19999993,619694.5999999,2023-11-11T08:50:44Z,619703.301,NULL,Aufstand,ugomaji,d,NA,NA,NA,NA,qt,NA,3,NA,NA,NA,NA,NA,NA,NA,NA,NA,NA,NA,NA,NA,NA,NA,NA,NA,NA,NA
0ed45,"""Falsch""-Screen",canvas.Screen,3_0_3_0_2_0_2,NA,NA,timeout,4999.9990000001,619694.79999995,619686.704,619703.301,624686.757,624687.69999993,2023-11-11T08:50:49Z,624703.3,NULL,Aufstand,ugomaji,d,NA,NA,NA,NA,qt,0,3,NA,NA,NA,NA,NA,NA,NA,NA,NA,NA,NA,NA,NA,NA,NA,NA,NA,NA,NA
0ed45,deep,flow.Sequence,3_0_3_0_2_0,NA,NA,completion,15966.708,608704.89999998,608703.329,608720.049,624686.757,624687.79999995,2023-11-11T08:50:49Z,624703.3,NULL,Aufstand,ugomaji,d,NA,NA,NA,NA,qt,NA,3,NA,NA,NA,NA,NA,NA,NA,NA,NA,NA,NA,NA,NA,NA,NA,NA,NA,NA,NA
0ed45,shallow,flow.Sequence,3_0_3_0_2_1,NA,NA,skipped,NA,624687.79999995,NA,NA,624686.757,624687.89999998,2023-11-11T08:50:49Z,624703.3,NULL,Aufstand,ugomaji,d,NA,NA,NA,NA,qt,NA,3,NA,NA,NA,NA,NA,NA,NA,NA,NA,NA,NA,NA,NA,NA,NA,NA,NA,NA,NA
0ed45,task,flow.Sequence,3_0_3_0_2,NA,NA,completion,15966.708,608704.89999998,608703.329,608720.049,624686.757,624687.89999998,2023-11-11T08:50:49Z,624703.3,NULL,Aufstand,ugomaji,d,NA,NA,NA,NA,qt,NA,3,NA,NA,NA,NA,NA,NA,NA,NA,NA,NA,NA,NA,NA,NA,NA,NA,NA,NA,NA
0ed45,deep,flow.Sequence,3_0_3_0_3_0,NA,NA,skipped,NA,624687.89999998,NA,NA,624686.757,624687.89999998,2023-11-11T08:50:49Z,624703.3,NULL,Verzögerung,kuchelewa,s,mwakilishi,mwanauchumi,jaribio,NA,qt,NA,3,NA,NA,NA,NA,NA,NA,NA,NA,NA,NA,NA,NA,NA,NA,NA,NA,NA,NA,NA
0ed45,Shallow Question,html.Page,3_0_3_0_3_1_0,NA,NA,form submission,4169.3999999284,624687.89999998,624686.757,624703.3,628872.69999993,628872.69999993,2023-11-11T08:50:53Z,628886.73,NULL,Verzögerung,kuchelewa,s,mwakilishi,mwanauchumi,jaribio,kuchelewa,NA,NA,3,NA,NA,NA,NA,NA,NA,NA,NA,NA,NA,NA,NA,NA,NA,NA,NA,NA,NA,NA
0ed45,"""Richtig""-Screen",canvas.Screen,3_0_3_0_3_1_1,NA,NA,timeout,4999.861,628873.79999995,628870.021,628886.73,633870.14,633871.39999998,2023-11-11T08:50:58Z,633886.591,NULL,Verzögerung,kuchelewa,s,mwakilishi,mwanauchumi,jaribio,NA,qt,1,3,NA,NA,NA,NA,NA,NA,NA,NA,NA,NA,NA,NA,NA,NA,NA,NA,NA,NA,NA
0ed45,"""Falsch""-Screen",canvas.Screen,3_0_3_0_3_1_2,NA,NA,skipped,NA,633872.5,NA,NA,633870.14,633872.5,2023-11-11T08:50:58Z,633886.591,NULL,Verzögerung,kuchelewa,s,mwakilishi,mwanauchumi,jaribio,NA,qt,NA,3,NA,NA,NA,NA,NA,NA,NA,NA,NA,NA,NA,NA,NA,NA,NA,NA,NA,NA,NA
0ed45,shallow,flow.Sequence,3_0_3_0_3_1,NA,NA,completion,9166.84,624687.89999998,624686.757,624703.3,633870.14,633872.5999999,2023-11-11T08:50:58Z,633886.591,NULL,Verzögerung,kuchelewa,s,mwakilishi,mwanauchumi,jaribio,NA,qt,NA,3,NA,NA,NA,NA,NA,NA,NA,NA,NA,NA,NA,NA,NA,NA,NA,NA,NA,NA,NA
0ed45,task,flow.Sequence,3_0_3_0_3,NA,NA,completion,9166.84,624687.89999998,624686.757,624703.3,633870.14,633872.69999993,2023-11-11T08:50:58Z,633886.591,NULL,Verzögerung,kuchelewa,s,mwakilishi,mwanauchumi,jaribio,NA,qt,NA,3,NA,NA,NA,NA,NA,NA,NA,NA,NA,NA,NA,NA,NA,NA,NA,NA,NA,NA,NA
0ed45,deep,flow.Sequence,3_0_3_0_4_0,NA,NA,skipped,NA,633872.69999993,NA,NA,633870.14,633872.69999993,2023-11-11T08:50:58Z,633886.591,NULL,Annäherung,maegesho,s,madahili,kujiamini,mapendekezo,NA,qt,NA,3,NA,NA,NA,NA,NA,NA,NA,NA,NA,NA,NA,NA,NA,NA,NA,NA,NA,NA,NA
0ed45,Shallow Question,html.Page,3_0_3_0_4_1_0,NA,NA,form submission,11328.808999976,633872.69999993,633870.14,633886.591,645215.39999998,645215.5999999,2023-11-11T08:51:09Z,645219.948,NULL,Annäherung,maegesho,s,madahili,kujiamini,mapendekezo,kujiamini,NA,NA,3,NA,NA,NA,NA,NA,NA,NA,NA,NA,NA,NA,NA,NA,NA,NA,NA,NA,NA,NA
0ed45,"""Richtig""-Screen",canvas.Screen,3_0_3_0_4_1_1,NA,NA,skipped,NA,645216.5,NA,NA,645215.39999998,645216.5999999,2023-11-11T08:51:09Z,645219.948,NULL,Annäherung,maegesho,s,madahili,kujiamini,mapendekezo,NA,qt,NA,3,NA,NA,NA,NA,NA,NA,NA,NA,NA,NA,NA,NA,NA,NA,NA,NA,NA,NA,NA
0ed45,"""Falsch""-Screen",canvas.Screen,3_0_3_0_4_1_2,NA,NA,timeout,5000.1900000001,645216.79999995,645203.333,645219.948,650203.417,650204.69999993,2023-11-11T08:51:14Z,650220.138,NULL,Annäherung,maegesho,s,madahili,kujiamini,mapendekezo,NA,qt,0,3,NA,NA,NA,NA,NA,NA,NA,NA,NA,NA,NA,NA,NA,NA,NA,NA,NA,NA,NA
0ed45,shallow,flow.Sequence,3_0_3_0_4_1,NA,NA,completion,16316.826,633872.69999993,633870.14,633886.591,650203.417,650204.89999998,2023-11-11T08:51:14Z,650220.138,NULL,Annäherung,maegesho,s,madahili,kujiamini,mapendekezo,NA,qt,NA,3,NA,NA,NA,NA,NA,NA,NA,NA,NA,NA,NA,NA,NA,NA,NA,NA,NA,NA,NA
0ed45,task,flow.Sequence,3_0_3_0_4,NA,NA,completion,16316.826,633872.69999993,633870.14,633886.591,650203.417,650205,2023-11-11T08:51:14Z,650220.138,NULL,Annäherung,maegesho,s,madahili,kujiamini,mapendekezo,NA,qt,NA,3,NA,NA,NA,NA,NA,NA,NA,NA,NA,NA,NA,NA,NA,NA,NA,NA,NA,NA,NA
0ed45,deep,flow.Sequence,3_0_3_0_5_0,NA,NA,skipped,NA,650205,NA,NA,650203.417,650205,2023-11-11T08:51:14Z,650220.138,NULL,Kultur,utamaduni,s,shetani,gerezani,mazingira,NA,qt,NA,3,NA,NA,NA,NA,NA,NA,NA,NA,NA,NA,NA,NA,NA,NA,NA,NA,NA,NA,NA
0ed45,Shallow Question,html.Page,3_0_3_0_5_1_0,NA,NA,form submission,9480.6619999523,650205,650203.417,650220.138,659700.79999995,659700.79999995,2023-11-11T08:51:24Z,659703.195,NULL,Kultur,utamaduni,s,shetani,gerezani,mazingira,mazingira,NA,NA,3,NA,NA,NA,NA,NA,NA,NA,NA,NA,NA,NA,NA,NA,NA,NA,NA,NA,NA,NA
0ed45,"""Richtig""-Screen",canvas.Screen,3_0_3_0_5_1_1,NA,NA,skipped,NA,659701.89999998,NA,NA,659700.79999995,659701.89999998,2023-11-11T08:51:24Z,659703.195,NULL,Kultur,utamaduni,s,shetani,gerezani,mazingira,NA,qt,NA,3,NA,NA,NA,NA,NA,NA,NA,NA,NA,NA,NA,NA,NA,NA,NA,NA,NA,NA,NA
0ed45,"""Falsch""-Screen",canvas.Screen,3_0_3_0_5_1_2,NA,NA,timeout,5000.1090000001,659702.0999999,659686.559,659703.195,664686.744,664688.39999998,2023-11-11T08:51:29Z,664703.304,NULL,Kultur,utamaduni,s,shetani,gerezani,mazingira,NA,qt,0,3,NA,NA,NA,NA,NA,NA,NA,NA,NA,NA,NA,NA,NA,NA,NA,NA,NA,NA,NA
0ed45,shallow,flow.Sequence,3_0_3_0_5_1,NA,NA,completion,14466.606,650205,650203.417,650220.138,664686.744,664688.5,2023-11-11T08:51:29Z,664703.304,NULL,Kultur,utamaduni,s,shetani,gerezani,mazingira,NA,qt,NA,3,NA,NA,NA,NA,NA,NA,NA,NA,NA,NA,NA,NA,NA,NA,NA,NA,NA,NA,NA
0ed45,task,flow.Sequence,3_0_3_0_5,NA,NA,completion,14466.606,650205,650203.417,650220.138,664686.744,664688.5,2023-11-11T08:51:29Z,664703.304,NULL,Kultur,utamaduni,s,shetani,gerezani,mazingira,NA,qt,NA,3,NA,NA,NA,NA,NA,NA,NA,NA,NA,NA,NA,NA,NA,NA,NA,NA,NA,NA,NA
0ed45,deep,flow.Sequence,3_0_3_0_6_0,NA,NA,skipped,NA,664688.5,NA,NA,664686.744,664688.5,2023-11-11T08:51:29Z,664703.304,NULL,Sympathie,mapendano,s,dhamiria,fungamano,maazimio,NA,qt,NA,3,NA,NA,NA,NA,NA,NA,NA,NA,NA,NA,NA,NA,NA,NA,NA,NA,NA,NA,NA
0ed45,Shallow Question,html.Page,3_0_3_0_6_1_0,NA,NA,form submission,7580.4959999523,664688.5999999,664686.744,664703.304,672283.79999995,672283.79999995,2023-11-11T08:51:36Z,672286.581,NULL,Sympathie,mapendano,s,dhamiria,fungamano,maazimio,mapendano,NA,NA,3,NA,NA,NA,NA,NA,NA,NA,NA,NA,NA,NA,NA,NA,NA,NA,NA,NA,NA,NA
0ed45,"""Richtig""-Screen",canvas.Screen,3_0_3_0_6_1_1,NA,NA,timeout,5000.187,672285.19999993,672270.109,672286.581,677269.929,677270.79999995,2023-11-11T08:51:41Z,677286.768,NULL,Sympathie,mapendano,s,dhamiria,fungamano,maazimio,NA,qt,1,3,NA,NA,NA,NA,NA,NA,NA,NA,NA,NA,NA,NA,NA,NA,NA,NA,NA,NA,NA
0ed45,"""Falsch""-Screen",canvas.Screen,3_0_3_0_6_1_2,NA,NA,skipped,NA,677271.69999993,NA,NA,677269.929,677271.79999995,2023-11-11T08:51:41Z,677286.768,NULL,Sympathie,mapendano,s,dhamiria,fungamano,maazimio,NA,qt,NA,3,NA,NA,NA,NA,NA,NA,NA,NA,NA,NA,NA,NA,NA,NA,NA,NA,NA,NA,NA
0ed45,shallow,flow.Sequence,3_0_3_0_6_1,NA,NA,completion,12566.625,664688.5,664686.744,664703.304,677269.929,677271.79999995,2023-11-11T08:51:41Z,677286.768,NULL,Sympathie,mapendano,s,dhamiria,fungamano,maazimio,NA,qt,NA,3,NA,NA,NA,NA,NA,NA,NA,NA,NA,NA,NA,NA,NA,NA,NA,NA,NA,NA,NA
0ed45,task,flow.Sequence,3_0_3_0_6,NA,NA,completion,12566.625,664688.5,664686.744,664703.304,677269.929,677271.79999995,2023-11-11T08:51:41Z,677286.768,NULL,Sympathie,mapendano,s,dhamiria,fungamano,maazimio,NA,qt,NA,3,NA,NA,NA,NA,NA,NA,NA,NA,NA,NA,NA,NA,NA,NA,NA,NA,NA,NA,NA
0ed45,Deep Question,html.Page,3_0_3_0_7_0_0,NA,NA,form submission,8360.3319999046,677271.89999998,677269.929,677286.768,685647.0999999,685647.29999995,2023-11-11T08:51:50Z,685653.192,NULL,Beweis,ushahidi,d,NA,NA,NA,munhabi,NA,NA,3,NA,NA,NA,NA,NA,NA,NA,NA,NA,NA,NA,NA,NA,NA,NA,NA,NA,NA,NA
0ed45,"""Richtig""-Screen",canvas.Screen,3_0_3_0_7_0_1,NA,NA,skipped,NA,685648.5,NA,NA,685647.0999999,685648.5,2023-11-11T08:51:50Z,685653.192,NULL,Beweis,ushahidi,d,NA,NA,NA,NA,qt,NA,3,NA,NA,NA,NA,NA,NA,NA,NA,NA,NA,NA,NA,NA,NA,NA,NA,NA,NA,NA
0ed45,"""Falsch""-Screen",canvas.Screen,3_0_3_0_7_0_2,NA,NA,timeout,5000.103,685648.89999998,685636.717,685653.192,690636.628,690637.79999995,2023-11-11T08:51:55Z,690653.295,NULL,Beweis,ushahidi,d,NA,NA,NA,NA,qt,0,3,NA,NA,NA,NA,NA,NA,NA,NA,NA,NA,NA,NA,NA,NA,NA,NA,NA,NA,NA
0ed45,deep,flow.Sequence,3_0_3_0_7_0,NA,NA,completion,13349.86,677271.89999998,677269.929,677286.768,690636.628,690637.89999998,2023-11-11T08:51:55Z,690653.295,NULL,Beweis,ushahidi,d,NA,NA,NA,NA,qt,NA,3,NA,NA,NA,NA,NA,NA,NA,NA,NA,NA,NA,NA,NA,NA,NA,NA,NA,NA,NA
0ed45,shallow,flow.Sequence,3_0_3_0_7_1,NA,NA,skipped,NA,690637.89999998,NA,NA,690636.628,690638,2023-11-11T08:51:55Z,690653.295,NULL,Beweis,ushahidi,d,NA,NA,NA,NA,qt,NA,3,NA,NA,NA,NA,NA,NA,NA,NA,NA,NA,NA,NA,NA,NA,NA,NA,NA,NA,NA
0ed45,task,flow.Sequence,3_0_3_0_7,NA,NA,completion,13349.86,677271.79999995,677269.929,677286.768,690636.628,690638,2023-11-11T08:51:55Z,690653.295,NULL,Beweis,ushahidi,d,NA,NA,NA,NA,qt,NA,3,NA,NA,NA,NA,NA,NA,NA,NA,NA,NA,NA,NA,NA,NA,NA,NA,NA,NA,NA
0ed45,block,flow.Loop,3_0_3_0,NA,NA,completion,114250.051,576384.89999998,576369.802,576386.577,690636.628,690638,2023-11-11T08:51:55Z,690653.295,NULL,NA,NA,NA,NA,NA,NA,NA,qt,NA,3,NA,NA,NA,NA,NA,NA,NA,NA,NA,NA,NA,NA,NA,NA,NA,NA,NA,NA,NA
0ed45,weiter,canvas.Screen,3_0_3_1,sdf,keypress(Space),response,1635.705,690638,690636.628,690653.295,692289,692289.39999998,2023-11-11T08:51:56Z,692320.643,NULL,NA,NA,NA,NA,NA,NA,NA,qt,NA,3,NA,NA,NA,NA,NA,NA,NA,NA,NA,NA,NA,NA,NA,NA,NA,NA,NA,NA,NA
0ed45,check continue,flow.Sequence,3_0_3,NA,NA,completion,115902.423,576384.79999995,576369.802,576386.577,692289,692289.39999998,2023-11-11T08:51:56Z,692320.643,NULL,NA,NA,NA,NA,NA,NA,NA,qt,NA,3,NA,NA,NA,NA,NA,NA,NA,NA,NA,NA,NA,NA,NA,NA,NA,NA,NA,NA,NA
0ed45,deep,flow.Sequence,3_0_4_0_0_0,NA,NA,skipped,NA,692302.19999993,NA,NA,692289,692302.29999995,2023-11-11T08:51:56Z,692320.643,NULL,Annäherung,maegesho,s,madahili,kujiamini,mapendekezo,NA,sd,NA,4,NA,NA,NA,NA,NA,NA,NA,NA,NA,NA,NA,NA,NA,NA,NA,NA,NA,NA,NA
0ed45,Shallow Question,html.Page,3_0_4_0_0_1_0,NA,NA,form submission,11486.456999905,692302.39999998,692286.806,692320.643,703807.0999999,703807.19999993,2023-11-11T08:52:08Z,703820.006,NULL,Annäherung,maegesho,s,madahili,kujiamini,mapendekezo,madahili,NA,NA,4,NA,NA,NA,NA,NA,NA,NA,NA,NA,NA,NA,NA,NA,NA,NA,NA,NA,NA,NA
0ed45,"""Richtig""-Screen",canvas.Screen,3_0_4_0_0_1_1,NA,NA,skipped,NA,703808.39999998,NA,NA,703807.0999999,703808.5,2023-11-11T08:52:08Z,703820.006,NULL,Annäherung,maegesho,s,madahili,kujiamini,mapendekezo,NA,sd,NA,4,NA,NA,NA,NA,NA,NA,NA,NA,NA,NA,NA,NA,NA,NA,NA,NA,NA,NA,NA
0ed45,"""Falsch""-Screen",canvas.Screen,3_0_4_0_0_1_2,NA,NA,timeout,5000.002,703808.79999995,703803.259,703820.006,708803.259,708804.5,2023-11-11T08:52:13Z,708820.008,NULL,Annäherung,maegesho,s,madahili,kujiamini,mapendekezo,NA,sd,0,4,NA,NA,NA,NA,NA,NA,NA,NA,NA,NA,NA,NA,NA,NA,NA,NA,NA,NA,NA
0ed45,shallow,flow.Sequence,3_0_4_0_0_1,NA,NA,completion,16482.616,692302.29999995,692286.806,692320.643,708803.259,708804.5999999,2023-11-11T08:52:13Z,708820.008,NULL,Annäherung,maegesho,s,madahili,kujiamini,mapendekezo,NA,sd,NA,4,NA,NA,NA,NA,NA,NA,NA,NA,NA,NA,NA,NA,NA,NA,NA,NA,NA,NA,NA
0ed45,task,flow.Sequence,3_0_4_0_0,NA,NA,completion,16482.616,692302.19999993,692286.806,692320.643,708803.259,708804.5999999,2023-11-11T08:52:13Z,708820.008,NULL,Annäherung,maegesho,s,madahili,kujiamini,mapendekezo,NA,sd,NA,4,NA,NA,NA,NA,NA,NA,NA,NA,NA,NA,NA,NA,NA,NA,NA,NA,NA,NA,NA
0ed45,Deep Question,html.Page,3_0_4_0_1_0_0,NA,NA,form submission,16323.291999952,708804.69999993,708803.259,708820.008,725143.29999995,725143.5,2023-11-11T08:52:29Z,725153.409,NULL,Aufstand,ugomaji,d,NA,NA,NA,ushihabi,NA,NA,4,NA,NA,NA,NA,NA,NA,NA,NA,NA,NA,NA,NA,NA,NA,NA,NA,NA,NA,NA
0ed45,"""Richtig""-Screen",canvas.Screen,3_0_4_0_1_0_1,NA,NA,skipped,NA,725144.69999993,NA,NA,725143.29999995,725144.69999993,2023-11-11T08:52:29Z,725153.409,NULL,Aufstand,ugomaji,d,NA,NA,NA,NA,sd,NA,4,NA,NA,NA,NA,NA,NA,NA,NA,NA,NA,NA,NA,NA,NA,NA,NA,NA,NA,NA
0ed45,"""Falsch""-Screen",canvas.Screen,3_0_4_0_1_0_2,NA,NA,timeout,5000.057,725145,725136.637,725153.409,730136.558,730138.0999999,2023-11-11T08:52:34Z,730153.466,NULL,Aufstand,ugomaji,d,NA,NA,NA,NA,sd,0,4,NA,NA,NA,NA,NA,NA,NA,NA,NA,NA,NA,NA,NA,NA,NA,NA,NA,NA,NA
0ed45,deep,flow.Sequence,3_0_4_0_1_0,NA,NA,completion,21316.55,708804.69999993,708803.259,708820.008,730136.558,730138.19999993,2023-11-11T08:52:34Z,730153.466,NULL,Aufstand,ugomaji,d,NA,NA,NA,NA,sd,NA,4,NA,NA,NA,NA,NA,NA,NA,NA,NA,NA,NA,NA,NA,NA,NA,NA,NA,NA,NA
0ed45,shallow,flow.Sequence,3_0_4_0_1_1,NA,NA,skipped,NA,730138.19999993,NA,NA,730136.558,730138.19999993,2023-11-11T08:52:34Z,730153.466,NULL,Aufstand,ugomaji,d,NA,NA,NA,NA,sd,NA,4,NA,NA,NA,NA,NA,NA,NA,NA,NA,NA,NA,NA,NA,NA,NA,NA,NA,NA,NA
0ed45,task,flow.Sequence,3_0_4_0_1,NA,NA,completion,21316.55,708804.5999999,708803.259,708820.008,730136.558,730138.29999995,2023-11-11T08:52:34Z,730153.466,NULL,Aufstand,ugomaji,d,NA,NA,NA,NA,sd,NA,4,NA,NA,NA,NA,NA,NA,NA,NA,NA,NA,NA,NA,NA,NA,NA,NA,NA,NA,NA
0ed45,deep,flow.Sequence,3_0_4_0_2_0,NA,NA,skipped,NA,730138.29999995,NA,NA,730136.558,730138.29999995,2023-11-11T08:52:34Z,730153.466,NULL,Verzögerung,kuchelewa,s,mwakilishi,mwanauchumi,jaribio,NA,sd,NA,4,NA,NA,NA,NA,NA,NA,NA,NA,NA,NA,NA,NA,NA,NA,NA,NA,NA,NA,NA
0ed45,Shallow Question,html.Page,3_0_4_0_2_1_0,NA,NA,form submission,5902.6339999046,730138.29999995,730136.558,730153.466,736056.0999999,736056.19999993,2023-11-11T08:52:40Z,736069.989,NULL,Verzögerung,kuchelewa,s,mwakilishi,mwanauchumi,jaribio,kuchelewa,NA,NA,4,NA,NA,NA,NA,NA,NA,NA,NA,NA,NA,NA,NA,NA,NA,NA,NA,NA,NA,NA
0ed45,"""Richtig""-Screen",canvas.Screen,3_0_4_0_2_1_1,NA,NA,timeout,4999.8430000001,736057.19999993,736053.269,736069.989,741053.354,741054.89999998,2023-11-11T08:52:45Z,741069.832,NULL,Verzögerung,kuchelewa,s,mwakilishi,mwanauchumi,jaribio,NA,sd,1,4,NA,NA,NA,NA,NA,NA,NA,NA,NA,NA,NA,NA,NA,NA,NA,NA,NA,NA,NA
0ed45,"""Falsch""-Screen",canvas.Screen,3_0_4_0_2_1_2,NA,NA,skipped,NA,741056.19999993,NA,NA,741053.354,741056.19999993,2023-11-11T08:52:45Z,741069.832,NULL,Verzögerung,kuchelewa,s,mwakilishi,mwanauchumi,jaribio,NA,sd,NA,4,NA,NA,NA,NA,NA,NA,NA,NA,NA,NA,NA,NA,NA,NA,NA,NA,NA,NA,NA
0ed45,shallow,flow.Sequence,3_0_4_0_2_1,NA,NA,completion,10899.888,730138.29999995,730136.558,730153.466,741053.354,741056.29999995,2023-11-11T08:52:45Z,741069.832,NULL,Verzögerung,kuchelewa,s,mwakilishi,mwanauchumi,jaribio,NA,sd,NA,4,NA,NA,NA,NA,NA,NA,NA,NA,NA,NA,NA,NA,NA,NA,NA,NA,NA,NA,NA
0ed45,task,flow.Sequence,3_0_4_0_2,NA,NA,completion,10899.888,730138.29999995,730136.558,730153.466,741053.354,741056.39999998,2023-11-11T08:52:45Z,741069.832,NULL,Verzögerung,kuchelewa,s,mwakilishi,mwanauchumi,jaribio,NA,sd,NA,4,NA,NA,NA,NA,NA,NA,NA,NA,NA,NA,NA,NA,NA,NA,NA,NA,NA,NA,NA
0ed45,Deep Question,html.Page,3_0_4_0_3_0_0,NA,NA,form submission,10740.767999905,741056.39999998,741053.354,741069.832,751810.5999999,751810.79999995,2023-11-11T08:52:56Z,751819.841,NULL,Prüfung,mtihani,d,NA,NA,NA,ushihabi,NA,NA,4,NA,NA,NA,NA,NA,NA,NA,NA,NA,NA,NA,NA,NA,NA,NA,NA,NA,NA,NA
0ed45,"""Richtig""-Screen",canvas.Screen,3_0_4_0_3_0_1,NA,NA,skipped,NA,751812,NA,NA,751810.5999999,751812.0999999,2023-11-11T08:52:56Z,751819.841,NULL,Prüfung,mtihani,d,NA,NA,NA,NA,sd,NA,4,NA,NA,NA,NA,NA,NA,NA,NA,NA,NA,NA,NA,NA,NA,NA,NA,NA,NA,NA
0ed45,"""Falsch""-Screen",canvas.Screen,3_0_4_0_3_0_2,NA,NA,timeout,5000.156,751812.39999998,751803.379,751819.841,756803.329,756804.79999995,2023-11-11T08:53:01Z,756819.997,NULL,Prüfung,mtihani,d,NA,NA,NA,NA,sd,0,4,NA,NA,NA,NA,NA,NA,NA,NA,NA,NA,NA,NA,NA,NA,NA,NA,NA,NA,NA
0ed45,deep,flow.Sequence,3_0_4_0_3_0,NA,NA,completion,15733.497,741056.39999998,741053.354,741069.832,756803.329,756804.89999998,2023-11-11T08:53:01Z,756819.997,NULL,Prüfung,mtihani,d,NA,NA,NA,NA,sd,NA,4,NA,NA,NA,NA,NA,NA,NA,NA,NA,NA,NA,NA,NA,NA,NA,NA,NA,NA,NA
0ed45,shallow,flow.Sequence,3_0_4_0_3_1,NA,NA,skipped,NA,756804.89999998,NA,NA,756803.329,756805,2023-11-11T08:53:01Z,756819.997,NULL,Prüfung,mtihani,d,NA,NA,NA,NA,sd,NA,4,NA,NA,NA,NA,NA,NA,NA,NA,NA,NA,NA,NA,NA,NA,NA,NA,NA,NA,NA
0ed45,task,flow.Sequence,3_0_4_0_3,NA,NA,completion,15733.497,741056.39999998,741053.354,741069.832,756803.329,756805,2023-11-11T08:53:01Z,756819.997,NULL,Prüfung,mtihani,d,NA,NA,NA,NA,sd,NA,4,NA,NA,NA,NA,NA,NA,NA,NA,NA,NA,NA,NA,NA,NA,NA,NA,NA,NA,NA
0ed45,Deep Question,html.Page,3_0_4_0_4_0_0,NA,NA,form submission,11014.602999905,756805,756803.329,756819.997,767834.5999999,767834.5999999,2023-11-11T08:53:12Z,767836.481,NULL,Beweis,ushahidi,d,NA,NA,NA,ushitani,NA,NA,4,NA,NA,NA,NA,NA,NA,NA,NA,NA,NA,NA,NA,NA,NA,NA,NA,NA,NA,NA
0ed45,"""Richtig""-Screen",canvas.Screen,3_0_4_0_4_0_1,NA,NA,skipped,NA,767835.89999998,NA,NA,767834.5999999,767836,2023-11-11T08:53:12Z,767836.481,NULL,Beweis,ushahidi,d,NA,NA,NA,NA,sd,NA,4,NA,NA,NA,NA,NA,NA,NA,NA,NA,NA,NA,NA,NA,NA,NA,NA,NA,NA,NA
0ed45,"""Falsch""-Screen",canvas.Screen,3_0_4_0_4_0_2,NA,NA,timeout,5000.096,767836.19999993,767820.089,767836.481,772819.906,772820.89999998,2023-11-11T08:53:17Z,772836.577,NULL,Beweis,ushahidi,d,NA,NA,NA,NA,sd,0,4,NA,NA,NA,NA,NA,NA,NA,NA,NA,NA,NA,NA,NA,NA,NA,NA,NA,NA,NA
0ed45,deep,flow.Sequence,3_0_4_0_4_0,NA,NA,completion,15999.909,756805,756803.329,756819.997,772819.906,772821,2023-11-11T08:53:17Z,772836.577,NULL,Beweis,ushahidi,d,NA,NA,NA,NA,sd,NA,4,NA,NA,NA,NA,NA,NA,NA,NA,NA,NA,NA,NA,NA,NA,NA,NA,NA,NA,NA
0ed45,shallow,flow.Sequence,3_0_4_0_4_1,NA,NA,skipped,NA,772821,NA,NA,772819.906,772821.0999999,2023-11-11T08:53:17Z,772836.577,NULL,Beweis,ushahidi,d,NA,NA,NA,NA,sd,NA,4,NA,NA,NA,NA,NA,NA,NA,NA,NA,NA,NA,NA,NA,NA,NA,NA,NA,NA,NA
0ed45,task,flow.Sequence,3_0_4_0_4,NA,NA,completion,15999.909,756805,756803.329,756819.997,772819.906,772821.0999999,2023-11-11T08:53:17Z,772836.577,NULL,Beweis,ushahidi,d,NA,NA,NA,NA,sd,NA,4,NA,NA,NA,NA,NA,NA,NA,NA,NA,NA,NA,NA,NA,NA,NA,NA,NA,NA,NA
0ed45,deep,flow.Sequence,3_0_4_0_5_0,NA,NA,skipped,NA,772821.0999999,NA,NA,772819.906,772821.19999993,2023-11-11T08:53:17Z,772836.577,NULL,Kultur,utamaduni,s,shetani,gerezani,mazingira,NA,sd,NA,4,NA,NA,NA,NA,NA,NA,NA,NA,NA,NA,NA,NA,NA,NA,NA,NA,NA,NA,NA
0ed45,Shallow Question,html.Page,3_0_4_0_5_1_0,NA,NA,form submission,7184.2229999523,772821.19999993,772819.906,772836.577,780020.79999995,780020.89999998,2023-11-11T08:53:24Z,780036.648,NULL,Kultur,utamaduni,s,shetani,gerezani,mazingira,utamaduni,NA,NA,4,NA,NA,NA,NA,NA,NA,NA,NA,NA,NA,NA,NA,NA,NA,NA,NA,NA,NA,NA
0ed45,"""Richtig""-Screen",canvas.Screen,3_0_4_0_5_1_1,NA,NA,timeout,5000.041,780022.5999999,780020.05,780036.648,785019.794,785021.19999993,2023-11-11T08:53:29Z,785036.689,NULL,Kultur,utamaduni,s,shetani,gerezani,mazingira,NA,sd,1,4,NA,NA,NA,NA,NA,NA,NA,NA,NA,NA,NA,NA,NA,NA,NA,NA,NA,NA,NA
0ed45,"""Falsch""-Screen",canvas.Screen,3_0_4_0_5_1_2,NA,NA,skipped,NA,785022.19999993,NA,NA,785019.794,785022.29999995,2023-11-11T08:53:29Z,785036.689,NULL,Kultur,utamaduni,s,shetani,gerezani,mazingira,NA,sd,NA,4,NA,NA,NA,NA,NA,NA,NA,NA,NA,NA,NA,NA,NA,NA,NA,NA,NA,NA,NA
0ed45,shallow,flow.Sequence,3_0_4_0_5_1,NA,NA,completion,12183.217,772821.19999993,772819.906,772836.577,785019.794,785022.29999995,2023-11-11T08:53:29Z,785036.689,NULL,Kultur,utamaduni,s,shetani,gerezani,mazingira,NA,sd,NA,4,NA,NA,NA,NA,NA,NA,NA,NA,NA,NA,NA,NA,NA,NA,NA,NA,NA,NA,NA
0ed45,task,flow.Sequence,3_0_4_0_5,NA,NA,completion,12183.217,772821.0999999,772819.906,772836.577,785019.794,785022.39999998,2023-11-11T08:53:29Z,785036.689,NULL,Kultur,utamaduni,s,shetani,gerezani,mazingira,NA,sd,NA,4,NA,NA,NA,NA,NA,NA,NA,NA,NA,NA,NA,NA,NA,NA,NA,NA,NA,NA,NA
0ed45,Deep Question,html.Page,3_0_4_0_6_0_0,NA,NA,form submission,5656.5109999285,785022.39999998,785019.794,785036.689,790693.19999993,790693.39999998,2023-11-11T08:53:35Z,790703.163,NULL,Polizist,msongora,d,NA,NA,NA,msongola,NA,NA,4,NA,NA,NA,NA,NA,NA,NA,NA,NA,NA,NA,NA,NA,NA,NA,NA,NA,NA,NA
0ed45,"""Richtig""-Screen",canvas.Screen,3_0_4_0_6_0_1,NA,NA,skipped,NA,790694.5,NA,NA,790693.19999993,790694.5999999,2023-11-11T08:53:35Z,790703.163,NULL,Polizist,msongora,d,NA,NA,NA,NA,sd,NA,4,NA,NA,NA,NA,NA,NA,NA,NA,NA,NA,NA,NA,NA,NA,NA,NA,NA,NA,NA
0ed45,"""Falsch""-Screen",canvas.Screen,3_0_4_0_6_0_2,NA,NA,timeout,5000.16,790694.89999998,790686.594,790703.163,795686.704,795688.29999995,2023-11-11T08:53:40Z,795703.323,NULL,Polizist,msongora,d,NA,NA,NA,NA,sd,0,4,NA,NA,NA,NA,NA,NA,NA,NA,NA,NA,NA,NA,NA,NA,NA,NA,NA,NA,NA
0ed45,deep,flow.Sequence,3_0_4_0_6_0,NA,NA,completion,10650.015,785022.39999998,785019.794,785036.689,795686.704,795688.39999998,2023-11-11T08:53:40Z,795703.323,NULL,Polizist,msongora,d,NA,NA,NA,NA,sd,NA,4,NA,NA,NA,NA,NA,NA,NA,NA,NA,NA,NA,NA,NA,NA,NA,NA,NA,NA,NA
0ed45,shallow,flow.Sequence,3_0_4_0_6_1,NA,NA,skipped,NA,795688.39999998,NA,NA,795686.704,795688.5,2023-11-11T08:53:40Z,795703.323,NULL,Polizist,msongora,d,NA,NA,NA,NA,sd,NA,4,NA,NA,NA,NA,NA,NA,NA,NA,NA,NA,NA,NA,NA,NA,NA,NA,NA,NA,NA
0ed45,task,flow.Sequence,3_0_4_0_6,NA,NA,completion,10650.015,785022.39999998,785019.794,785036.689,795686.704,795688.5,2023-11-11T08:53:40Z,795703.323,NULL,Polizist,msongora,d,NA,NA,NA,NA,sd,NA,4,NA,NA,NA,NA,NA,NA,NA,NA,NA,NA,NA,NA,NA,NA,NA,NA,NA,NA,NA
0ed45,deep,flow.Sequence,3_0_4_0_7_0,NA,NA,skipped,NA,795688.5,NA,NA,795686.704,795688.5,2023-11-11T08:53:40Z,795703.323,NULL,Sympathie,mapendano,s,dhamiria,fungamano,maazimio,NA,sd,NA,4,NA,NA,NA,NA,NA,NA,NA,NA,NA,NA,NA,NA,NA,NA,NA,NA,NA,NA,NA
0ed45,Shallow Question,html.Page,3_0_4_0_7_1_0,NA,NA,form submission,10153.276999905,795688.5,795686.704,795703.323,805856.5999999,805856.89999998,2023-11-11T08:53:50Z,805869.887,NULL,Sympathie,mapendano,s,dhamiria,fungamano,maazimio,mapendano,NA,NA,4,NA,NA,NA,NA,NA,NA,NA,NA,NA,NA,NA,NA,NA,NA,NA,NA,NA,NA,NA
0ed45,"""Richtig""-Screen",canvas.Screen,3_0_4_0_7_1_1,NA,NA,timeout,5000.113,805857.89999998,805853.226,805869.887,810853.252,810854.39999998,2023-11-11T08:53:55Z,810870,NULL,Sympathie,mapendano,s,dhamiria,fungamano,maazimio,NA,sd,1,4,NA,NA,NA,NA,NA,NA,NA,NA,NA,NA,NA,NA,NA,NA,NA,NA,NA,NA,NA
0ed45,"""Falsch""-Screen",canvas.Screen,3_0_4_0_7_1_2,NA,NA,skipped,NA,810855.39999998,NA,NA,810853.252,810855.39999998,2023-11-11T08:53:55Z,810870,NULL,Sympathie,mapendano,s,dhamiria,fungamano,maazimio,NA,sd,NA,4,NA,NA,NA,NA,NA,NA,NA,NA,NA,NA,NA,NA,NA,NA,NA,NA,NA,NA,NA
0ed45,shallow,flow.Sequence,3_0_4_0_7_1,NA,NA,completion,15149.929,795688.5,795686.704,795703.323,810853.252,810855.5,2023-11-11T08:53:55Z,810870,NULL,Sympathie,mapendano,s,dhamiria,fungamano,maazimio,NA,sd,NA,4,NA,NA,NA,NA,NA,NA,NA,NA,NA,NA,NA,NA,NA,NA,NA,NA,NA,NA,NA
0ed45,task,flow.Sequence,3_0_4_0_7,NA,NA,completion,15149.929,795688.5,795686.704,795703.323,810853.252,810855.5,2023-11-11T08:53:55Z,810870,NULL,Sympathie,mapendano,s,dhamiria,fungamano,maazimio,NA,sd,NA,4,NA,NA,NA,NA,NA,NA,NA,NA,NA,NA,NA,NA,NA,NA,NA,NA,NA,NA,NA
0ed45,block,flow.Loop,3_0_4_0,NA,NA,completion,118532.609,692302.19999993,692286.806,692320.643,810853.252,810855.5999999,2023-11-11T08:53:55Z,810870,NULL,NA,NA,NA,NA,NA,NA,NA,sd,NA,4,NA,NA,NA,NA,NA,NA,NA,NA,NA,NA,NA,NA,NA,NA,NA,NA,NA,NA,NA
0ed45,weiter,canvas.Screen,3_0_4_1,sdf,keypress(Space),response,1654.0999999046,810855.5999999,810853.252,810870,812524.0999999,812524.5,2023-11-11T08:53:57Z,812536.532,NULL,NA,NA,NA,NA,NA,NA,NA,sd,NA,4,NA,NA,NA,NA,NA,NA,NA,NA,NA,NA,NA,NA,NA,NA,NA,NA,NA,NA,NA
0ed45,check continue,flow.Sequence,3_0_4,NA,NA,completion,120203.4569999,692302.19999993,692286.806,692320.643,812524.0999999,812524.69999993,2023-11-11T08:53:57Z,812536.532,NULL,NA,NA,NA,NA,NA,NA,NA,sd,NA,4,NA,NA,NA,NA,NA,NA,NA,NA,NA,NA,NA,NA,NA,NA,NA,NA,NA,NA,NA
0ed45,deep,flow.Sequence,3_0_5_0_0_0,NA,NA,skipped,NA,812536.39999998,NA,NA,812524.0999999,812536.39999998,2023-11-11T08:53:57Z,812536.532,NULL,Annäherung,maegesho,s,madahili,kujiamini,mapendekezo,NA,sdf,NA,5,NA,NA,NA,NA,NA,NA,NA,NA,NA,NA,NA,NA,NA,NA,NA,NA,NA,NA,NA
0ed45,Shallow Question,html.Page,3_0_5_0_0_1_0,NA,NA,form submission,5461.468,812536.5,812520.01,812536.532,817998,817998.0999999,2023-11-11T08:54:02Z,818003.23,NULL,Annäherung,maegesho,s,madahili,kujiamini,mapendekezo,maegesho,NA,NA,5,NA,NA,NA,NA,NA,NA,NA,NA,NA,NA,NA,NA,NA,NA,NA,NA,NA,NA,NA
0ed45,"""Richtig""-Screen",canvas.Screen,3_0_5_0_0_1_1,NA,NA,timeout,5000.078,817999.0999999,817986.518,818003.23,822986.703,822988.19999993,2023-11-11T08:54:07Z,823003.308,NULL,Annäherung,maegesho,s,madahili,kujiamini,mapendekezo,NA,sdf,1,5,NA,NA,NA,NA,NA,NA,NA,NA,NA,NA,NA,NA,NA,NA,NA,NA,NA,NA,NA
0ed45,"""Falsch""-Screen",canvas.Screen,3_0_5_0_0_1_2,NA,NA,skipped,NA,822989.19999993,NA,NA,822986.703,822989.19999993,2023-11-11T08:54:07Z,823003.308,NULL,Annäherung,maegesho,s,madahili,kujiamini,mapendekezo,NA,sdf,NA,5,NA,NA,NA,NA,NA,NA,NA,NA,NA,NA,NA,NA,NA,NA,NA,NA,NA,NA,NA
0ed45,shallow,flow.Sequence,3_0_5_0_0_1,NA,NA,completion,10450.171,812536.5,812520.01,812536.532,822986.703,822989.19999993,2023-11-11T08:54:07Z,823003.308,NULL,Annäherung,maegesho,s,madahili,kujiamini,mapendekezo,NA,sdf,NA,5,NA,NA,NA,NA,NA,NA,NA,NA,NA,NA,NA,NA,NA,NA,NA,NA,NA,NA,NA
0ed45,task,flow.Sequence,3_0_5_0_0,NA,NA,completion,10450.171,812536.39999998,812520.01,812536.532,822986.703,822989.29999995,2023-11-11T08:54:07Z,823003.308,NULL,Annäherung,maegesho,s,madahili,kujiamini,mapendekezo,NA,sdf,NA,5,NA,NA,NA,NA,NA,NA,NA,NA,NA,NA,NA,NA,NA,NA,NA,NA,NA,NA,NA
0ed45,Deep Question,html.Page,3_0_5_0_1_0_0,NA,NA,form submission,12966.091999976,822989.29999995,822986.703,823003.308,835969.39999998,835969.5999999,2023-11-11T08:54:20Z,835986.696,NULL,Beweis,ushahidi,d,NA,NA,NA,unshibani,NA,NA,5,NA,NA,NA,NA,NA,NA,NA,NA,NA,NA,NA,NA,NA,NA,NA,NA,NA,NA,NA
0ed45,"""Richtig""-Screen",canvas.Screen,3_0_5_0_1_0_1,NA,NA,skipped,NA,835970.79999995,NA,NA,835969.39999998,835970.89999998,2023-11-11T08:54:20Z,835986.696,NULL,Beweis,ushahidi,d,NA,NA,NA,NA,sdf,NA,5,NA,NA,NA,NA,NA,NA,NA,NA,NA,NA,NA,NA,NA,NA,NA,NA,NA,NA,NA
0ed45,"""Falsch""-Screen",canvas.Screen,3_0_5_0_1_0_2,NA,NA,timeout,4999.8640000001,835971.19999993,835953.325,835986.696,840969.764,840970.79999995,2023-11-11T08:54:25Z,840986.56,NULL,Beweis,ushahidi,d,NA,NA,NA,NA,sdf,0,5,NA,NA,NA,NA,NA,NA,NA,NA,NA,NA,NA,NA,NA,NA,NA,NA,NA,NA,NA
0ed45,deep,flow.Sequence,3_0_5_0_1_0,NA,NA,completion,17966.456,822989.29999995,822986.703,823003.308,840969.764,840970.79999995,2023-11-11T08:54:25Z,840986.56,NULL,Beweis,ushahidi,d,NA,NA,NA,NA,sdf,NA,5,NA,NA,NA,NA,NA,NA,NA,NA,NA,NA,NA,NA,NA,NA,NA,NA,NA,NA,NA
0ed45,shallow,flow.Sequence,3_0_5_0_1_1,NA,NA,skipped,NA,840970.89999998,NA,NA,840969.764,840971,2023-11-11T08:54:25Z,840986.56,NULL,Beweis,ushahidi,d,NA,NA,NA,NA,sdf,NA,5,NA,NA,NA,NA,NA,NA,NA,NA,NA,NA,NA,NA,NA,NA,NA,NA,NA,NA,NA
0ed45,task,flow.Sequence,3_0_5_0_1,NA,NA,completion,17966.456,822989.29999995,822986.703,823003.308,840969.764,840971,2023-11-11T08:54:25Z,840986.56,NULL,Beweis,ushahidi,d,NA,NA,NA,NA,sdf,NA,5,NA,NA,NA,NA,NA,NA,NA,NA,NA,NA,NA,NA,NA,NA,NA,NA,NA,NA,NA
0ed45,deep,flow.Sequence,3_0_5_0_2_0,NA,NA,skipped,NA,840971,NA,NA,840969.764,840971,2023-11-11T08:54:25Z,840986.56,NULL,Kultur,utamaduni,s,shetani,gerezani,mazingira,NA,sdf,NA,5,NA,NA,NA,NA,NA,NA,NA,NA,NA,NA,NA,NA,NA,NA,NA,NA,NA,NA,NA
0ed45,Shallow Question,html.Page,3_0_5_0_2_1_0,NA,NA,form submission,4700.7399999523,840971,840969.764,840986.56,845687.29999995,845687.5,2023-11-11T08:54:30Z,845703.206,NULL,Kultur,utamaduni,s,shetani,gerezani,mazingira,utamaduni,NA,NA,5,NA,NA,NA,NA,NA,NA,NA,NA,NA,NA,NA,NA,NA,NA,NA,NA,NA,NA,NA
0ed45,"""Richtig""-Screen",canvas.Screen,3_0_5_0_2_1_1,NA,NA,timeout,4999.969,845688.5999999,845686.482,845703.206,850686.413,850686.89999998,2023-11-11T08:54:35Z,850703.175,NULL,Kultur,utamaduni,s,shetani,gerezani,mazingira,NA,sdf,1,5,NA,NA,NA,NA,NA,NA,NA,NA,NA,NA,NA,NA,NA,NA,NA,NA,NA,NA,NA
0ed45,"""Falsch""-Screen",canvas.Screen,3_0_5_0_2_1_2,NA,NA,skipped,NA,850688,NA,NA,850686.413,850688.0999999,2023-11-11T08:54:35Z,850703.175,NULL,Kultur,utamaduni,s,shetani,gerezani,mazingira,NA,sdf,NA,5,NA,NA,NA,NA,NA,NA,NA,NA,NA,NA,NA,NA,NA,NA,NA,NA,NA,NA,NA
0ed45,shallow,flow.Sequence,3_0_5_0_2_1,NA,NA,completion,9699.8529999999,840971,840969.764,840986.56,850686.413,850688.0999999,2023-11-11T08:54:35Z,850703.175,NULL,Kultur,utamaduni,s,shetani,gerezani,mazingira,NA,sdf,NA,5,NA,NA,NA,NA,NA,NA,NA,NA,NA,NA,NA,NA,NA,NA,NA,NA,NA,NA,NA
0ed45,task,flow.Sequence,3_0_5_0_2,NA,NA,completion,9699.8529999999,840971,840969.764,840986.56,850686.413,850688.0999999,2023-11-11T08:54:35Z,850703.175,NULL,Kultur,utamaduni,s,shetani,gerezani,mazingira,NA,sdf,NA,5,NA,NA,NA,NA,NA,NA,NA,NA,NA,NA,NA,NA,NA,NA,NA,NA,NA,NA,NA
0ed45,Deep Question,html.Page,3_0_5_0_3_0_0,NA,NA,form submission,5850.5249999284,850688.19999993,850686.413,850703.175,856553.69999993,856553.79999995,2023-11-11T08:54:41Z,856569.847,NULL,Aufstand,ugomaji,d,NA,NA,NA,ushibani,NA,NA,5,NA,NA,NA,NA,NA,NA,NA,NA,NA,NA,NA,NA,NA,NA,NA,NA,NA,NA,NA
0ed45,"""Richtig""-Screen",canvas.Screen,3_0_5_0_3_0_1,NA,NA,skipped,NA,856554.89999998,NA,NA,856553.69999993,856555,2023-11-11T08:54:41Z,856569.847,NULL,Aufstand,ugomaji,d,NA,NA,NA,NA,sdf,NA,5,NA,NA,NA,NA,NA,NA,NA,NA,NA,NA,NA,NA,NA,NA,NA,NA,NA,NA,NA
0ed45,"""Falsch""-Screen",canvas.Screen,3_0_5_0_3_0_2,NA,NA,timeout,4999.9580000001,856555.5,856553.108,856569.847,861553.106,861554.69999993,2023-11-11T08:54:46Z,861569.805,NULL,Aufstand,ugomaji,d,NA,NA,NA,NA,sdf,0,5,NA,NA,NA,NA,NA,NA,NA,NA,NA,NA,NA,NA,NA,NA,NA,NA,NA,NA,NA
0ed45,deep,flow.Sequence,3_0_5_0_3_0,NA,NA,completion,10849.931,850688.19999993,850686.413,850703.175,861553.106,861554.79999995,2023-11-11T08:54:46Z,861569.805,NULL,Aufstand,ugomaji,d,NA,NA,NA,NA,sdf,NA,5,NA,NA,NA,NA,NA,NA,NA,NA,NA,NA,NA,NA,NA,NA,NA,NA,NA,NA,NA
0ed45,shallow,flow.Sequence,3_0_5_0_3_1,NA,NA,skipped,NA,861554.79999995,NA,NA,861553.106,861554.79999995,2023-11-11T08:54:46Z,861569.805,NULL,Aufstand,ugomaji,d,NA,NA,NA,NA,sdf,NA,5,NA,NA,NA,NA,NA,NA,NA,NA,NA,NA,NA,NA,NA,NA,NA,NA,NA,NA,NA
0ed45,task,flow.Sequence,3_0_5_0_3,NA,NA,completion,10849.931,850688.0999999,850686.413,850703.175,861553.106,861554.79999995,2023-11-11T08:54:46Z,861569.805,NULL,Aufstand,ugomaji,d,NA,NA,NA,NA,sdf,NA,5,NA,NA,NA,NA,NA,NA,NA,NA,NA,NA,NA,NA,NA,NA,NA,NA,NA,NA,NA
0ed45,deep,flow.Sequence,3_0_5_0_4_0,NA,NA,skipped,NA,861554.89999998,NA,NA,861553.106,861555,2023-11-11T08:54:46Z,861569.805,NULL,Verzögerung,kuchelewa,s,mwakilishi,mwanauchumi,jaribio,NA,sdf,NA,5,NA,NA,NA,NA,NA,NA,NA,NA,NA,NA,NA,NA,NA,NA,NA,NA,NA,NA,NA
0ed45,Shallow Question,html.Page,3_0_5_0_4_1_0,NA,NA,form submission,7109.3949999284,861555,861553.106,861569.805,868679.19999993,868679.29999995,2023-11-11T08:54:53Z,868686.482,NULL,Verzögerung,kuchelewa,s,mwakilishi,mwanauchumi,jaribio,kuchelewa,NA,NA,5,NA,NA,NA,NA,NA,NA,NA,NA,NA,NA,NA,NA,NA,NA,NA,NA,NA,NA,NA
0ed45,"""Richtig""-Screen",canvas.Screen,3_0_5_0_4_1_1,NA,NA,timeout,5000.1900000001,868680.39999998,868669.925,868686.482,873669.948,873670.89999998,2023-11-11T08:54:58Z,873686.672,NULL,Verzögerung,kuchelewa,s,mwakilishi,mwanauchumi,jaribio,NA,sdf,1,5,NA,NA,NA,NA,NA,NA,NA,NA,NA,NA,NA,NA,NA,NA,NA,NA,NA,NA,NA
0ed45,"""Falsch""-Screen",canvas.Screen,3_0_5_0_4_1_2,NA,NA,skipped,NA,873672.0999999,NA,NA,873669.948,873672.0999999,2023-11-11T08:54:58Z,873686.672,NULL,Verzögerung,kuchelewa,s,mwakilishi,mwanauchumi,jaribio,NA,sdf,NA,5,NA,NA,NA,NA,NA,NA,NA,NA,NA,NA,NA,NA,NA,NA,NA,NA,NA,NA,NA
0ed45,shallow,flow.Sequence,3_0_5_0_4_1,NA,NA,completion,12100.143,861555,861553.106,861569.805,873669.948,873672.0999999,2023-11-11T08:54:58Z,873686.672,NULL,Verzögerung,kuchelewa,s,mwakilishi,mwanauchumi,jaribio,NA,sdf,NA,5,NA,NA,NA,NA,NA,NA,NA,NA,NA,NA,NA,NA,NA,NA,NA,NA,NA,NA,NA
0ed45,task,flow.Sequence,3_0_5_0_4,NA,NA,completion,12100.143,861554.89999998,861553.106,861569.805,873669.948,873672.0999999,2023-11-11T08:54:58Z,873686.672,NULL,Verzögerung,kuchelewa,s,mwakilishi,mwanauchumi,jaribio,NA,sdf,NA,5,NA,NA,NA,NA,NA,NA,NA,NA,NA,NA,NA,NA,NA,NA,NA,NA,NA,NA,NA
0ed45,deep,flow.Sequence,3_0_5_0_5_0,NA,NA,skipped,NA,873672.19999993,NA,NA,873669.948,873672.29999995,2023-11-11T08:54:58Z,873686.672,NULL,Sympathie,mapendano,s,dhamiria,fungamano,maazimio,NA,sdf,NA,5,NA,NA,NA,NA,NA,NA,NA,NA,NA,NA,NA,NA,NA,NA,NA,NA,NA,NA,NA
0ed45,Shallow Question,html.Page,3_0_5_0_5_1_0,NA,NA,form submission,6108.828,873672.29999995,873669.948,873686.672,879795.5,879795.5999999,2023-11-11T08:55:04Z,879803.072,NULL,Sympathie,mapendano,s,dhamiria,fungamano,maazimio,mapendano,NA,NA,5,NA,NA,NA,NA,NA,NA,NA,NA,NA,NA,NA,NA,NA,NA,NA,NA,NA,NA,NA
0ed45,"""Richtig""-Screen",canvas.Screen,3_0_5_0_5_1_1,NA,NA,timeout,5000.184,879796.5999999,879786.491,879803.072,884786.408,884788.19999993,2023-11-11T08:55:09Z,884803.256,NULL,Sympathie,mapendano,s,dhamiria,fungamano,maazimio,NA,sdf,1,5,NA,NA,NA,NA,NA,NA,NA,NA,NA,NA,NA,NA,NA,NA,NA,NA,NA,NA,NA
0ed45,"""Falsch""-Screen",canvas.Screen,3_0_5_0_5_1_2,NA,NA,skipped,NA,884789.19999993,NA,NA,884786.408,884789.29999995,2023-11-11T08:55:09Z,884803.256,NULL,Sympathie,mapendano,s,dhamiria,fungamano,maazimio,NA,sdf,NA,5,NA,NA,NA,NA,NA,NA,NA,NA,NA,NA,NA,NA,NA,NA,NA,NA,NA,NA,NA
0ed45,shallow,flow.Sequence,3_0_5_0_5_1,NA,NA,completion,11099.736,873672.29999995,873669.948,873686.672,884786.408,884789.29999995,2023-11-11T08:55:09Z,884803.256,NULL,Sympathie,mapendano,s,dhamiria,fungamano,maazimio,NA,sdf,NA,5,NA,NA,NA,NA,NA,NA,NA,NA,NA,NA,NA,NA,NA,NA,NA,NA,NA,NA,NA
0ed45,task,flow.Sequence,3_0_5_0_5,NA,NA,completion,11099.736,873672.19999993,873669.948,873686.672,884786.408,884789.29999995,2023-11-11T08:55:09Z,884803.256,NULL,Sympathie,mapendano,s,dhamiria,fungamano,maazimio,NA,sdf,NA,5,NA,NA,NA,NA,NA,NA,NA,NA,NA,NA,NA,NA,NA,NA,NA,NA,NA,NA,NA
0ed45,Deep Question,html.Page,3_0_5_0_6_0_0,NA,NA,form submission,17416.443999928,884789.29999995,884786.408,884803.256,902219.69999993,902219.89999998,2023-11-11T08:55:26Z,902236.592,NULL,Prüfung,mtihani,d,NA,NA,NA,unhibani,NA,NA,5,NA,NA,NA,NA,NA,NA,NA,NA,NA,NA,NA,NA,NA,NA,NA,NA,NA,NA,NA
0ed45,"""Richtig""-Screen",canvas.Screen,3_0_5_0_6_0_1,NA,NA,skipped,NA,902221.19999993,NA,NA,902219.69999993,902221.19999993,2023-11-11T08:55:26Z,902236.592,NULL,Prüfung,mtihani,d,NA,NA,NA,NA,sdf,NA,5,NA,NA,NA,NA,NA,NA,NA,NA,NA,NA,NA,NA,NA,NA,NA,NA,NA,NA,NA
0ed45,"""Falsch""-Screen",canvas.Screen,3_0_5_0_6_0_2,NA,NA,timeout,4999.848,902221.5,902203.519,902236.592,907219.906,907221.5999999,2023-11-11T08:55:31Z,907236.44,NULL,Prüfung,mtihani,d,NA,NA,NA,NA,sdf,0,5,NA,NA,NA,NA,NA,NA,NA,NA,NA,NA,NA,NA,NA,NA,NA,NA,NA,NA,NA
0ed45,deep,flow.Sequence,3_0_5_0_6_0,NA,NA,completion,22416.65,884789.29999995,884786.408,884803.256,907219.906,907221.69999993,2023-11-11T08:55:31Z,907236.44,NULL,Prüfung,mtihani,d,NA,NA,NA,NA,sdf,NA,5,NA,NA,NA,NA,NA,NA,NA,NA,NA,NA,NA,NA,NA,NA,NA,NA,NA,NA,NA
0ed45,shallow,flow.Sequence,3_0_5_0_6_1,NA,NA,skipped,NA,907221.69999993,NA,NA,907219.906,907221.79999995,2023-11-11T08:55:31Z,907236.44,NULL,Prüfung,mtihani,d,NA,NA,NA,NA,sdf,NA,5,NA,NA,NA,NA,NA,NA,NA,NA,NA,NA,NA,NA,NA,NA,NA,NA,NA,NA,NA
0ed45,task,flow.Sequence,3_0_5_0_6,NA,NA,completion,22416.65,884789.29999995,884786.408,884803.256,907219.906,907221.79999995,2023-11-11T08:55:31Z,907236.44,NULL,Prüfung,mtihani,d,NA,NA,NA,NA,sdf,NA,5,NA,NA,NA,NA,NA,NA,NA,NA,NA,NA,NA,NA,NA,NA,NA,NA,NA,NA,NA
0ed45,Deep Question,html.Page,3_0_5_0_7_0_0,NA,NA,form submission,5988.2599999285,907221.79999995,907219.906,907236.44,913224.69999993,913224.79999995,2023-11-11T08:55:37Z,913236.428,NULL,Polizist,msongora,d,NA,NA,NA,msongora,NA,NA,5,NA,NA,NA,NA,NA,NA,NA,NA,NA,NA,NA,NA,NA,NA,NA,NA,NA,NA,NA
0ed45,"""Richtig""-Screen",canvas.Screen,3_0_5_0_7_0_1,NA,NA,timeout,4999.968,913226.19999993,913219.796,913236.428,918219.778,918221,2023-11-11T08:55:42Z,918236.396,NULL,Polizist,msongora,d,NA,NA,NA,NA,sdf,1,5,NA,NA,NA,NA,NA,NA,NA,NA,NA,NA,NA,NA,NA,NA,NA,NA,NA,NA,NA
0ed45,"""Falsch""-Screen",canvas.Screen,3_0_5_0_7_0_2,NA,NA,skipped,NA,918222,NA,NA,918219.778,918222.0999999,2023-11-11T08:55:42Z,918236.396,NULL,Polizist,msongora,d,NA,NA,NA,NA,sdf,NA,5,NA,NA,NA,NA,NA,NA,NA,NA,NA,NA,NA,NA,NA,NA,NA,NA,NA,NA,NA
0ed45,deep,flow.Sequence,3_0_5_0_7_0,NA,NA,completion,10983.338,907221.79999995,907219.906,907236.44,918219.778,918222.0999999,2023-11-11T08:55:42Z,918236.396,NULL,Polizist,msongora,d,NA,NA,NA,NA,sdf,NA,5,NA,NA,NA,NA,NA,NA,NA,NA,NA,NA,NA,NA,NA,NA,NA,NA,NA,NA,NA
0ed45,shallow,flow.Sequence,3_0_5_0_7_1,NA,NA,skipped,NA,918222.0999999,NA,NA,918219.778,918222.0999999,2023-11-11T08:55:42Z,918236.396,NULL,Polizist,msongora,d,NA,NA,NA,NA,sdf,NA,5,NA,NA,NA,NA,NA,NA,NA,NA,NA,NA,NA,NA,NA,NA,NA,NA,NA,NA,NA
0ed45,task,flow.Sequence,3_0_5_0_7,NA,NA,completion,10983.338,907221.79999995,907219.906,907236.44,918219.778,918222.0999999,2023-11-11T08:55:42Z,918236.396,NULL,Polizist,msongora,d,NA,NA,NA,NA,sdf,NA,5,NA,NA,NA,NA,NA,NA,NA,NA,NA,NA,NA,NA,NA,NA,NA,NA,NA,NA,NA
0ed45,block,flow.Loop,3_0_5_0,NA,NA,completion,105683.246,812536.39999998,812520.01,812536.532,918219.778,918222.29999995,2023-11-11T08:55:42Z,918236.396,NULL,NA,NA,NA,NA,NA,NA,NA,sdf,NA,5,NA,NA,NA,NA,NA,NA,NA,NA,NA,NA,NA,NA,NA,NA,NA,NA,NA,NA,NA
0ed45,weiter,canvas.Screen,3_0_5_1,sdf,keypress(Space),response,1342.0039999762,918222.29999995,918219.778,918236.396,919578.39999998,919578.89999998,2023-11-11T08:55:44Z,919603.06,NULL,NA,NA,NA,NA,NA,NA,NA,sdf,NA,5,NA,NA,NA,NA,NA,NA,NA,NA,NA,NA,NA,NA,NA,NA,NA,NA,NA,NA,NA
0ed45,check continue,flow.Sequence,3_0_5,NA,NA,completion,107041.86799998,812536.39999998,812520.01,812536.532,919578.39999998,919578.89999998,2023-11-11T08:55:44Z,919603.06,NULL,NA,NA,NA,NA,NA,NA,NA,sdf,NA,5,NA,NA,NA,NA,NA,NA,NA,NA,NA,NA,NA,NA,NA,NA,NA,NA,NA,NA,NA
0ed45,Deep Question,html.Page,3_0_6_0_0_0_0,NA,NA,form submission,5102.7399999523,919589.5999999,919586.583,919603.06,924705.79999995,924706,2023-11-11T08:55:49Z,924719.795,NULL,Polizist,msongora,d,NA,NA,NA,msongora,NA,NA,6,NA,NA,NA,NA,NA,NA,NA,NA,NA,NA,NA,NA,NA,NA,NA,NA,NA,NA,NA
0ed45,"""Richtig""-Screen",canvas.Screen,3_0_6_0_0_0_1,NA,NA,timeout,5000.115,924707.39999998,924703.418,924719.795,929703.272,929704.79999995,2023-11-11T08:55:54Z,929719.91,NULL,Polizist,msongora,d,NA,NA,NA,NA,dfs,1,6,NA,NA,NA,NA,NA,NA,NA,NA,NA,NA,NA,NA,NA,NA,NA,NA,NA,NA,NA
0ed45,"""Falsch""-Screen",canvas.Screen,3_0_6_0_0_0_2,NA,NA,skipped,NA,929705.79999995,NA,NA,929703.272,929705.89999998,2023-11-11T08:55:54Z,929719.91,NULL,Polizist,msongora,d,NA,NA,NA,NA,dfs,NA,6,NA,NA,NA,NA,NA,NA,NA,NA,NA,NA,NA,NA,NA,NA,NA,NA,NA,NA,NA
0ed45,deep,flow.Sequence,3_0_6_0_0_0,NA,NA,completion,10100.212,919589.5999999,919586.583,919603.06,929703.272,929705.89999998,2023-11-11T08:55:54Z,929719.91,NULL,Polizist,msongora,d,NA,NA,NA,NA,dfs,NA,6,NA,NA,NA,NA,NA,NA,NA,NA,NA,NA,NA,NA,NA,NA,NA,NA,NA,NA,NA
0ed45,shallow,flow.Sequence,3_0_6_0_0_1,NA,NA,skipped,NA,929705.89999998,NA,NA,929703.272,929705.89999998,2023-11-11T08:55:54Z,929719.91,NULL,Polizist,msongora,d,NA,NA,NA,NA,dfs,NA,6,NA,NA,NA,NA,NA,NA,NA,NA,NA,NA,NA,NA,NA,NA,NA,NA,NA,NA,NA
0ed45,task,flow.Sequence,3_0_6_0_0,NA,NA,completion,10100.212,919589.5999999,919586.583,919603.06,929703.272,929705.89999998,2023-11-11T08:55:54Z,929719.91,NULL,Polizist,msongora,d,NA,NA,NA,NA,dfs,NA,6,NA,NA,NA,NA,NA,NA,NA,NA,NA,NA,NA,NA,NA,NA,NA,NA,NA,NA,NA
0ed45,deep,flow.Sequence,3_0_6_0_1_0,NA,NA,skipped,NA,929706,NA,NA,929703.272,929706.0999999,2023-11-11T08:55:54Z,929719.91,NULL,Kultur,utamaduni,s,shetani,gerezani,mazingira,NA,dfs,NA,6,NA,NA,NA,NA,NA,NA,NA,NA,NA,NA,NA,NA,NA,NA,NA,NA,NA,NA,NA
0ed45,Shallow Question,html.Page,3_0_6_0_1_1_0,NA,NA,form submission,5732.09,929706.0999999,929703.272,929719.91,935452,935452.0999999,2023-11-11T08:55:59Z,935453.068,NULL,Kultur,utamaduni,s,shetani,gerezani,mazingira,utamaduni,NA,NA,6,NA,NA,NA,NA,NA,NA,NA,NA,NA,NA,NA,NA,NA,NA,NA,NA,NA,NA,NA
0ed45,"""Richtig""-Screen",canvas.Screen,3_0_6_0_1_1_1,NA,NA,timeout,5000.1240000001,935453.29999995,935436.509,935453.068,940436.405,940437.29999995,2023-11-11T08:56:04Z,940453.192,NULL,Kultur,utamaduni,s,shetani,gerezani,mazingira,NA,dfs,1,6,NA,NA,NA,NA,NA,NA,NA,NA,NA,NA,NA,NA,NA,NA,NA,NA,NA,NA,NA
0ed45,"""Falsch""-Screen",canvas.Screen,3_0_6_0_1_1_2,NA,NA,skipped,NA,940438.39999998,NA,NA,940436.405,940438.39999998,2023-11-11T08:56:04Z,940453.192,NULL,Kultur,utamaduni,s,shetani,gerezani,mazingira,NA,dfs,NA,6,NA,NA,NA,NA,NA,NA,NA,NA,NA,NA,NA,NA,NA,NA,NA,NA,NA,NA,NA
0ed45,shallow,flow.Sequence,3_0_6_0_1_1,NA,NA,completion,10716.495,929706.0999999,929703.272,929719.91,940436.405,940438.5,2023-11-11T08:56:04Z,940453.192,NULL,Kultur,utamaduni,s,shetani,gerezani,mazingira,NA,dfs,NA,6,NA,NA,NA,NA,NA,NA,NA,NA,NA,NA,NA,NA,NA,NA,NA,NA,NA,NA,NA
0ed45,task,flow.Sequence,3_0_6_0_1,NA,NA,completion,10716.495,929705.89999998,929703.272,929719.91,940436.405,940438.5,2023-11-11T08:56:04Z,940453.192,NULL,Kultur,utamaduni,s,shetani,gerezani,mazingira,NA,dfs,NA,6,NA,NA,NA,NA,NA,NA,NA,NA,NA,NA,NA,NA,NA,NA,NA,NA,NA,NA,NA
