observation,sender,sender_type,sender_id,response,response_action,ended_on,duration,time_run,time_render,time_show,time_end,time_commit,timestamp,time_switch,distractors,german,swahili,enc,distractor1,distractor2,distractor3,response_2,x,correct,x_2,url_vp,url_sess,meta_labjs_version,meta_location,meta_user_agent,meta_platform,meta_language,meta_locale,meta_time_zone,meta_timezone_offset,meta_screen_width,meta_screen_height,meta_scroll_width,meta_scroll_height,meta_window_inner_width,meta_window_inner_height,meta_device_pixel_ratio,meta_labjs_build_flavor,meta_labjs_build_commit
d6572,Introduction general,canvas.Screen,0,weiter,keypress(q),response,42818.125,417.5,190.854,440.875,43259,43260.800000191,2023-12-02T08:27:32Z,43274.322,NULL,NA,NA,NA,NA,NA,NA,NA,NA,NA,NA,150,3,20.2.4,https://neurocog.fernuni.ch/studies/vweber/jbaenninger/encoding_immediate/index.html?vp=150&sess=3,"Mozilla/5.0 (Windows NT 10.0; Win64; x64) AppleWebKit/537.36 (KHTML, like Gecko) Chrome/119.0.0.0 Safari/537.36 Edg/119.0.0.0",Win32,de,de-CH,Europe/Zurich,-60,1920,1080,1872,910,1872,958,1,production,f5b4a49f956347addd546a832a3327688c2c0fef
d6572,Introduction practice,canvas.Screen,1_0,NA,keypress(Space),response,6304.0780000954,43261.300000191,43256.538,43274.322,49578.400000095,49579.300000191,2023-12-02T08:27:39Z,49590.961,NULL,NA,NA,NA,NA,NA,NA,NA,NA,NA,NA,NA,NA,NA,NA,NA,NA,NA,NA,NA,NA,NA,NA,NA,NA,NA,NA,NA,NA,NA
d6572,deep,flow.Sequence,1_1_0_0,NA,NA,skipped,NA,49579.700000048,NA,NA,49578.400000095,49579.900000095,2023-12-02T08:27:39Z,49590.961,"c(""distractor1"", ""distractor2"", ""distractor3"")",Gegenwart,hadhara,s,katiba,jokofu,mikopo,NA,NA,NA,NA,NA,NA,NA,NA,NA,NA,NA,NA,NA,NA,NA,NA,NA,NA,NA,NA,NA,NA,NA
d6572,Shallow Question,html.Page,1_1_0_1_0,NA,NA,form submission,7317.039,49580.200000048,49574.011,49590.961,56908,56908.300000191,2023-12-02T08:27:46Z,56907.513,"c(""distractor1"", ""distractor2"", ""distractor3"")",Gegenwart,hadhara,s,katiba,jokofu,mikopo,jokofu,NA,NA,NA,NA,NA,NA,NA,NA,NA,NA,NA,NA,NA,NA,NA,NA,NA,NA,NA,NA,NA,NA
d6572,"""Richtig""-Screen",canvas.Screen,1_1_0_1_1,NA,NA,skipped,NA,56909.400000095,NA,NA,56908,56909.5,2023-12-02T08:27:46Z,56907.513,"c(""distractor1"", ""distractor2"", ""distractor3"")",Gegenwart,hadhara,s,katiba,jokofu,mikopo,NA,NA,NA,NA,NA,NA,NA,NA,NA,NA,NA,NA,NA,NA,NA,NA,NA,NA,NA,NA,NA,NA,NA
d6572,"""Falsch""-Screen",canvas.Screen,1_1_0_1_2,NA,NA,timeout,5000.271,56910.400000095,56890.987,56907.513,61890.959,61892.100000143,2023-12-02T08:27:51Z,61907.784,"c(""distractor1"", ""distractor2"", ""distractor3"")",Gegenwart,hadhara,s,katiba,jokofu,mikopo,NA,NA,0,NA,NA,NA,NA,NA,NA,NA,NA,NA,NA,NA,NA,NA,NA,NA,NA,NA,NA,NA,NA
d6572,shallow,flow.Sequence,1_1_0_1,NA,NA,completion,12299.998,49580.100000143,49574.011,49590.961,61890.959,61892.5,2023-12-02T08:27:51Z,61907.784,"c(""distractor1"", ""distractor2"", ""distractor3"")",Gegenwart,hadhara,s,katiba,jokofu,mikopo,NA,NA,NA,NA,NA,NA,NA,NA,NA,NA,NA,NA,NA,NA,NA,NA,NA,NA,NA,NA,NA,NA,NA
d6572,task,flow.Sequence,1_1_0,NA,NA,completion,12299.998,49579.700000048,49574.011,49590.961,61890.959,61892.700000048,2023-12-02T08:27:51Z,61907.784,"c(""distractor1"", ""distractor2"", ""distractor3"")",Gegenwart,hadhara,s,katiba,jokofu,mikopo,NA,NA,NA,NA,NA,NA,NA,NA,NA,NA,NA,NA,NA,NA,NA,NA,NA,NA,NA,NA,NA,NA,NA
d6572,Deep Question,html.Page,1_1_1_0_0,NA,NA,form submission,18407.316000143,61893,61890.959,61907.784,80315.100000143,80315.300000191,2023-12-02T08:28:09Z,80324.222,"c(""distractor1"", ""distractor2"", ""distractor3"")",Gesundheit,salama,d,NA,NA,NA,ganawara,NA,NA,NA,NA,NA,NA,NA,NA,NA,NA,NA,NA,NA,NA,NA,NA,NA,NA,NA,NA,NA,NA
d6572,"""Richtig""-Screen",canvas.Screen,1_1_1_0_1,NA,NA,skipped,NA,80322.200000048,NA,NA,80315.100000143,80322.400000095,2023-12-02T08:28:09Z,80324.222,"c(""distractor1"", ""distractor2"", ""distractor3"")",Gesundheit,salama,d,NA,NA,NA,NA,NA,NA,NA,NA,NA,NA,NA,NA,NA,NA,NA,NA,NA,NA,NA,NA,NA,NA,NA,NA,NA,NA
d6572,"""Falsch""-Screen",canvas.Screen,1_1_1_0_2,NA,NA,timeout,5000.176,80323.200000048,80307.718,80324.222,85307.716,85308.5,2023-12-02T08:28:14Z,85324.398,"c(""distractor1"", ""distractor2"", ""distractor3"")",Gesundheit,salama,d,NA,NA,NA,NA,NA,0,NA,NA,NA,NA,NA,NA,NA,NA,NA,NA,NA,NA,NA,NA,NA,NA,NA,NA,NA,NA
d6572,deep,flow.Sequence,1_1_1_0,NA,NA,completion,23399.932,61892.900000095,61890.959,61907.784,85307.716,85308.900000095,2023-12-02T08:28:14Z,85324.398,"c(""distractor1"", ""distractor2"", ""distractor3"")",Gesundheit,salama,d,NA,NA,NA,NA,NA,NA,NA,NA,NA,NA,NA,NA,NA,NA,NA,NA,NA,NA,NA,NA,NA,NA,NA,NA,NA,NA
d6572,shallow,flow.Sequence,1_1_1_1,NA,NA,skipped,NA,85309,NA,NA,85307.716,85309.200000048,2023-12-02T08:28:14Z,85324.398,"c(""distractor1"", ""distractor2"", ""distractor3"")",Gesundheit,salama,d,NA,NA,NA,NA,NA,NA,NA,NA,NA,NA,NA,NA,NA,NA,NA,NA,NA,NA,NA,NA,NA,NA,NA,NA,NA,NA
d6572,task,flow.Sequence,1_1_1,NA,NA,completion,23399.932,61892.900000095,61890.959,61907.784,85307.716,85309.5,2023-12-02T08:28:14Z,85324.398,"c(""distractor1"", ""distractor2"", ""distractor3"")",Gesundheit,salama,d,NA,NA,NA,NA,NA,NA,NA,NA,NA,NA,NA,NA,NA,NA,NA,NA,NA,NA,NA,NA,NA,NA,NA,NA,NA,NA
d6572,Deep Question,html.Page,1_1_2_0_0,NA,NA,form submission,7807.102,85309.600000143,85307.716,85324.398,93131.5,93131.700000048,2023-12-02T08:28:22Z,93140.885,"c(""distractor1"", ""distractor2"", ""distractor3"")",Schatten,kivuli,d,NA,NA,NA,henari,NA,NA,NA,NA,NA,NA,NA,NA,NA,NA,NA,NA,NA,NA,NA,NA,NA,NA,NA,NA,NA,NA
d6572,"""Richtig""-Screen",canvas.Screen,1_1_2_0_1,NA,NA,skipped,NA,93133.5,NA,NA,93131.5,93133.700000048,2023-12-02T08:28:22Z,93140.885,"c(""distractor1"", ""distractor2"", ""distractor3"")",Schatten,kivuli,d,NA,NA,NA,NA,NA,NA,NA,NA,NA,NA,NA,NA,NA,NA,NA,NA,NA,NA,NA,NA,NA,NA,NA,NA,NA,NA
d6572,"""Falsch""-Screen",canvas.Screen,1_1_2_0_2,NA,NA,timeout,5000.023,93134.5,93124.321,93140.885,98124.323,98125.100000143,2023-12-02T08:28:27Z,98140.908,"c(""distractor1"", ""distractor2"", ""distractor3"")",Schatten,kivuli,d,NA,NA,NA,NA,NA,0,NA,NA,NA,NA,NA,NA,NA,NA,NA,NA,NA,NA,NA,NA,NA,NA,NA,NA,NA,NA
d6572,deep,flow.Sequence,1_1_2_0,NA,NA,completion,12799.925,85309.600000143,85307.716,85324.398,98124.323,98125.5,2023-12-02T08:28:27Z,98140.908,"c(""distractor1"", ""distractor2"", ""distractor3"")",Schatten,kivuli,d,NA,NA,NA,NA,NA,NA,NA,NA,NA,NA,NA,NA,NA,NA,NA,NA,NA,NA,NA,NA,NA,NA,NA,NA,NA,NA
d6572,shallow,flow.Sequence,1_1_2_1,NA,NA,skipped,NA,98125.600000143,NA,NA,98124.323,98125.700000048,2023-12-02T08:28:27Z,98140.908,"c(""distractor1"", ""distractor2"", ""distractor3"")",Schatten,kivuli,d,NA,NA,NA,NA,NA,NA,NA,NA,NA,NA,NA,NA,NA,NA,NA,NA,NA,NA,NA,NA,NA,NA,NA,NA,NA,NA
d6572,task,flow.Sequence,1_1_2,NA,NA,completion,12799.925,85309.5,85307.716,85324.398,98124.323,98125.900000095,2023-12-02T08:28:27Z,98140.908,"c(""distractor1"", ""distractor2"", ""distractor3"")",Schatten,kivuli,d,NA,NA,NA,NA,NA,NA,NA,NA,NA,NA,NA,NA,NA,NA,NA,NA,NA,NA,NA,NA,NA,NA,NA,NA,NA,NA
d6572,Deep Question,html.Page,1_1_3_0_0,NA,NA,form submission,6094.592,98126,98124.323,98140.908,104235.5,104235.70000005,2023-12-02T08:28:33Z,104240.858,"c(""distractor1"", ""distractor2"", ""distractor3"")",Qualität,mtindo,d,NA,NA,NA,salimu,NA,NA,NA,NA,NA,NA,NA,NA,NA,NA,NA,NA,NA,NA,NA,NA,NA,NA,NA,NA,NA,NA
d6572,"""Richtig""-Screen",canvas.Screen,1_1_3_0_1,NA,NA,skipped,NA,104237.5,NA,NA,104235.5,104237.70000005,2023-12-02T08:28:33Z,104240.858,"c(""distractor1"", ""distractor2"", ""distractor3"")",Qualität,mtindo,d,NA,NA,NA,NA,NA,NA,NA,NA,NA,NA,NA,NA,NA,NA,NA,NA,NA,NA,NA,NA,NA,NA,NA,NA,NA,NA
d6572,"""Falsch""-Screen",canvas.Screen,1_1_3_0_2,NA,NA,timeout,5000.153,104238.20000005,104224.349,104240.858,109224.377,109225.10000014,2023-12-02T08:28:38Z,109241.011,"c(""distractor1"", ""distractor2"", ""distractor3"")",Qualität,mtindo,d,NA,NA,NA,NA,NA,0,NA,NA,NA,NA,NA,NA,NA,NA,NA,NA,NA,NA,NA,NA,NA,NA,NA,NA,NA,NA
d6572,deep,flow.Sequence,1_1_3_0,NA,NA,completion,11083.469,98126,98124.323,98140.908,109224.377,109225.4000001,2023-12-02T08:28:38Z,109241.011,"c(""distractor1"", ""distractor2"", ""distractor3"")",Qualität,mtindo,d,NA,NA,NA,NA,NA,NA,NA,NA,NA,NA,NA,NA,NA,NA,NA,NA,NA,NA,NA,NA,NA,NA,NA,NA,NA,NA
d6572,shallow,flow.Sequence,1_1_3_1,NA,NA,skipped,NA,109225.5,NA,NA,109224.377,109225.70000005,2023-12-02T08:28:38Z,109241.011,"c(""distractor1"", ""distractor2"", ""distractor3"")",Qualität,mtindo,d,NA,NA,NA,NA,NA,NA,NA,NA,NA,NA,NA,NA,NA,NA,NA,NA,NA,NA,NA,NA,NA,NA,NA,NA,NA,NA
d6572,task,flow.Sequence,1_1_3,NA,NA,completion,11083.469,98125.900000095,98124.323,98140.908,109224.377,109225.80000019,2023-12-02T08:28:38Z,109241.011,"c(""distractor1"", ""distractor2"", ""distractor3"")",Qualität,mtindo,d,NA,NA,NA,NA,NA,NA,NA,NA,NA,NA,NA,NA,NA,NA,NA,NA,NA,NA,NA,NA,NA,NA,NA,NA,NA,NA
d6572,deep,flow.Sequence,1_1_4_0,NA,NA,skipped,NA,109226,NA,NA,109224.377,109226,2023-12-02T08:28:38Z,109241.011,"c(""distractor1"", ""distractor2"", ""distractor3"")",Kritik,lawama,s,dereva,nafasi,mawazo,NA,NA,NA,NA,NA,NA,NA,NA,NA,NA,NA,NA,NA,NA,NA,NA,NA,NA,NA,NA,NA,NA,NA
d6572,Shallow Question,html.Page,1_1_4_1_0,NA,NA,form submission,188026.08900014,109226.10000014,109224.377,109241.011,297267.10000014,297267.4000001,2023-12-02T08:31:46Z,297274.131,"c(""distractor1"", ""distractor2"", ""distractor3"")",Kritik,lawama,s,dereva,nafasi,mawazo,mawazo,NA,NA,NA,NA,NA,NA,NA,NA,NA,NA,NA,NA,NA,NA,NA,NA,NA,NA,NA,NA,NA,NA
d6572,"""Richtig""-Screen",canvas.Screen,1_1_4_1_1,NA,NA,skipped,NA,297269.10000014,NA,NA,297267.10000014,297269.20000005,2023-12-02T08:31:46Z,297274.131,"c(""distractor1"", ""distractor2"", ""distractor3"")",Kritik,lawama,s,dereva,nafasi,mawazo,NA,NA,NA,NA,NA,NA,NA,NA,NA,NA,NA,NA,NA,NA,NA,NA,NA,NA,NA,NA,NA,NA,NA
d6572,"""Falsch""-Screen",canvas.Screen,1_1_4_1_2,NA,NA,timeout,5000.071,297270,297257.671,297274.131,302257.555,302258.60000014,2023-12-02T08:31:51Z,302274.202,"c(""distractor1"", ""distractor2"", ""distractor3"")",Kritik,lawama,s,dereva,nafasi,mawazo,NA,NA,0,NA,NA,NA,NA,NA,NA,NA,NA,NA,NA,NA,NA,NA,NA,NA,NA,NA,NA,NA,NA
d6572,shallow,flow.Sequence,1_1_4_1,NA,NA,completion,193016.544,109226.10000014,109224.377,109241.011,302257.555,302258.9000001,2023-12-02T08:31:51Z,302274.202,"c(""distractor1"", ""distractor2"", ""distractor3"")",Kritik,lawama,s,dereva,nafasi,mawazo,NA,NA,NA,NA,NA,NA,NA,NA,NA,NA,NA,NA,NA,NA,NA,NA,NA,NA,NA,NA,NA,NA,NA
d6572,task,flow.Sequence,1_1_4,NA,NA,completion,193016.544,109225.9000001,109224.377,109241.011,302257.555,302259,2023-12-02T08:31:51Z,302274.202,"c(""distractor1"", ""distractor2"", ""distractor3"")",Kritik,lawama,s,dereva,nafasi,mawazo,NA,NA,NA,NA,NA,NA,NA,NA,NA,NA,NA,NA,NA,NA,NA,NA,NA,NA,NA,NA,NA,NA,NA
d6572,deep,flow.Sequence,1_1_5_0,NA,NA,skipped,NA,302259.20000005,NA,NA,302257.555,302259.30000019,2023-12-02T08:31:51Z,302274.202,"c(""distractor1"", ""distractor2"", ""distractor3"")",Rückhalt,msaada,s,muhula,auwali,kiwimbe,NA,NA,NA,NA,NA,NA,NA,NA,NA,NA,NA,NA,NA,NA,NA,NA,NA,NA,NA,NA,NA,NA,NA
d6572,Shallow Question,html.Page,1_1_5_1_0,NA,NA,form submission,5025.0980001907,302259.5,302257.555,302274.202,307299.30000019,307299.5,2023-12-02T08:31:56Z,307307.447,"c(""distractor1"", ""distractor2"", ""distractor3"")",Rückhalt,msaada,s,muhula,auwali,kiwimbe,kiwimbe,NA,NA,NA,NA,NA,NA,NA,NA,NA,NA,NA,NA,NA,NA,NA,NA,NA,NA,NA,NA,NA,NA
d6572,"""Richtig""-Screen",canvas.Screen,1_1_5_1_1,NA,NA,skipped,NA,307301.20000005,NA,NA,307299.30000019,307301.9000001,2023-12-02T08:31:56Z,307307.447,"c(""distractor1"", ""distractor2"", ""distractor3"")",Rückhalt,msaada,s,muhula,auwali,kiwimbe,NA,NA,NA,NA,NA,NA,NA,NA,NA,NA,NA,NA,NA,NA,NA,NA,NA,NA,NA,NA,NA,NA,NA
d6572,"""Falsch""-Screen",canvas.Screen,1_1_5_1_2,NA,NA,timeout,5000.242,307302.60000014,307291.029,307307.447,312290.998,312291.80000019,2023-12-02T08:32:01Z,312307.689,"c(""distractor1"", ""distractor2"", ""distractor3"")",Rückhalt,msaada,s,muhula,auwali,kiwimbe,NA,NA,0,NA,NA,NA,NA,NA,NA,NA,NA,NA,NA,NA,NA,NA,NA,NA,NA,NA,NA,NA,NA
d6572,shallow,flow.Sequence,1_1_5_1,NA,NA,completion,10016.796,302259.5,302257.555,302274.202,312290.998,312292,2023-12-02T08:32:01Z,312307.689,"c(""distractor1"", ""distractor2"", ""distractor3"")",Rückhalt,msaada,s,muhula,auwali,kiwimbe,NA,NA,NA,NA,NA,NA,NA,NA,NA,NA,NA,NA,NA,NA,NA,NA,NA,NA,NA,NA,NA,NA,NA
d6572,task,flow.Sequence,1_1_5,NA,NA,completion,10016.796,302259.10000014,302257.555,302274.202,312290.998,312292.30000019,2023-12-02T08:32:01Z,312307.689,"c(""distractor1"", ""distractor2"", ""distractor3"")",Rückhalt,msaada,s,muhula,auwali,kiwimbe,NA,NA,NA,NA,NA,NA,NA,NA,NA,NA,NA,NA,NA,NA,NA,NA,NA,NA,NA,NA,NA,NA,NA
d6572,block,flow.Loop,1_1,NA,NA,completion,262700.037,49579.600000143,49574.011,49590.961,312290.998,312292.4000001,2023-12-02T08:32:01Z,312307.689,"c(""distractor1"", ""distractor2"", ""distractor3"")",NA,NA,NA,NA,NA,NA,NA,NA,NA,NA,NA,NA,NA,NA,NA,NA,NA,NA,NA,NA,NA,NA,NA,NA,NA,NA,NA,NA,NA
d6572,Practice,flow.Sequence,1,NA,NA,completion,269016.676,43261.200000048,43256.538,43274.322,312290.998,312292.60000014,2023-12-02T08:32:01Z,312307.689,NULL,NA,NA,NA,NA,NA,NA,NA,NA,NA,NA,NA,NA,NA,NA,NA,NA,NA,NA,NA,NA,NA,NA,NA,NA,NA,NA,NA,NA,NA
d6572,Experiment start,canvas.Screen,2,weiter,keypress(q),response,11231.211000095,312292.70000005,312290.998,312307.689,323538.9000001,323539.80000019,2023-12-02T08:32:13Z,323624.214,NULL,NA,NA,NA,NA,NA,NA,NA,NA,NA,NA,NA,NA,NA,NA,NA,NA,NA,NA,NA,NA,NA,NA,NA,NA,NA,NA,NA,NA,NA
d6572,Deep Question,html.Page,3_0_0_0_0_0_0,NA,NA,form submission,6698.9860000477,323627,323524.352,323624.214,330323.20000005,330323.5,2023-12-02T08:32:19Z,330324.112,NULL,Fleisch,mshakiki,d,NA,NA,NA,mehwa,NA,NA,0,NA,NA,NA,NA,NA,NA,NA,NA,NA,NA,NA,NA,NA,NA,NA,NA,NA,NA,NA
d6572,"""Richtig""-Screen",canvas.Screen,3_0_0_0_0_0_1,NA,NA,skipped,NA,330325.30000019,NA,NA,330323.20000005,330325.4000001,2023-12-02T08:32:19Z,330324.112,NULL,Fleisch,mshakiki,d,NA,NA,NA,NA,sdf,NA,0,NA,NA,NA,NA,NA,NA,NA,NA,NA,NA,NA,NA,NA,NA,NA,NA,NA,NA,NA
d6572,"""Falsch""-Screen",canvas.Screen,3_0_0_0_0_0_2,NA,NA,timeout,5000.255,330325.80000019,330307.631,330324.112,335307.668,335308.30000019,2023-12-02T08:32:24Z,335324.367,NULL,Fleisch,mshakiki,d,NA,NA,NA,NA,sdf,0,0,NA,NA,NA,NA,NA,NA,NA,NA,NA,NA,NA,NA,NA,NA,NA,NA,NA,NA,NA
d6572,deep,flow.Sequence,3_0_0_0_0_0,NA,NA,completion,11683.454,323627,323524.352,323624.214,335307.668,335308.60000014,2023-12-02T08:32:24Z,335324.367,NULL,Fleisch,mshakiki,d,NA,NA,NA,NA,sdf,NA,0,NA,NA,NA,NA,NA,NA,NA,NA,NA,NA,NA,NA,NA,NA,NA,NA,NA,NA,NA
d6572,shallow,flow.Sequence,3_0_0_0_0_1,NA,NA,skipped,NA,335308.70000005,NA,NA,335307.668,335308.80000019,2023-12-02T08:32:24Z,335324.367,NULL,Fleisch,mshakiki,d,NA,NA,NA,NA,sdf,NA,0,NA,NA,NA,NA,NA,NA,NA,NA,NA,NA,NA,NA,NA,NA,NA,NA,NA,NA,NA
d6572,task,flow.Sequence,3_0_0_0_0,NA,NA,completion,11683.454,323627,323524.352,323624.214,335307.668,335308.9000001,2023-12-02T08:32:24Z,335324.367,NULL,Fleisch,mshakiki,d,NA,NA,NA,NA,sdf,NA,0,NA,NA,NA,NA,NA,NA,NA,NA,NA,NA,NA,NA,NA,NA,NA,NA,NA,NA,NA
d6572,deep,flow.Sequence,3_0_0_0_1_0,NA,NA,skipped,NA,335309.10000014,NA,NA,335307.668,335309.10000014,2023-12-02T08:32:24Z,335324.367,NULL,Genehmigung,idhini,s,mwanamke,itikadi,fedheha,NA,sdf,NA,0,NA,NA,NA,NA,NA,NA,NA,NA,NA,NA,NA,NA,NA,NA,NA,NA,NA,NA,NA
d6572,Shallow Question,html.Page,3_0_0_0_1_1_0,NA,NA,form submission,8766.9330001907,335309.20000005,335307.668,335324.367,344091.30000019,344091.5,2023-12-02T08:32:33Z,344107.675,NULL,Genehmigung,idhini,s,mwanamke,itikadi,fedheha,mwanamke,NA,NA,0,NA,NA,NA,NA,NA,NA,NA,NA,NA,NA,NA,NA,NA,NA,NA,NA,NA,NA,NA
d6572,"""Richtig""-Screen",canvas.Screen,3_0_0_0_1_1_1,NA,NA,skipped,NA,344093.20000005,NA,NA,344091.30000019,344093.4000001,2023-12-02T08:32:33Z,344107.675,NULL,Genehmigung,idhini,s,mwanamke,itikadi,fedheha,NA,sdf,NA,0,NA,NA,NA,NA,NA,NA,NA,NA,NA,NA,NA,NA,NA,NA,NA,NA,NA,NA,NA
d6572,"""Falsch""-Screen",canvas.Screen,3_0_0_0_1_1_2,NA,NA,timeout,5000.02,344093.9000001,344074.638,344107.675,349090.979,349091.70000005,2023-12-02T08:32:38Z,349107.695,NULL,Genehmigung,idhini,s,mwanamke,itikadi,fedheha,NA,sdf,0,0,NA,NA,NA,NA,NA,NA,NA,NA,NA,NA,NA,NA,NA,NA,NA,NA,NA,NA,NA
d6572,shallow,flow.Sequence,3_0_0_0_1_1,NA,NA,completion,13766.612,335309.20000005,335307.668,335324.367,349090.979,349092,2023-12-02T08:32:38Z,349107.695,NULL,Genehmigung,idhini,s,mwanamke,itikadi,fedheha,NA,sdf,NA,0,NA,NA,NA,NA,NA,NA,NA,NA,NA,NA,NA,NA,NA,NA,NA,NA,NA,NA,NA
d6572,task,flow.Sequence,3_0_0_0_1,NA,NA,completion,13766.612,335309,335307.668,335324.367,349090.979,349092.20000005,2023-12-02T08:32:38Z,349107.695,NULL,Genehmigung,idhini,s,mwanamke,itikadi,fedheha,NA,sdf,NA,0,NA,NA,NA,NA,NA,NA,NA,NA,NA,NA,NA,NA,NA,NA,NA,NA,NA,NA,NA
d6572,Deep Question,html.Page,3_0_0_0_2_0_0,NA,NA,form submission,4823.6050001907,349092.4000001,349090.979,349107.695,353931.30000019,353931.5,2023-12-02T08:32:43Z,353940.856,NULL,Vermutung,udhanifu,d,NA,NA,NA,salama,NA,NA,0,NA,NA,NA,NA,NA,NA,NA,NA,NA,NA,NA,NA,NA,NA,NA,NA,NA,NA,NA
d6572,"""Richtig""-Screen",canvas.Screen,3_0_0_0_2_0_1,NA,NA,skipped,NA,353933.20000005,NA,NA,353931.30000019,353933.4000001,2023-12-02T08:32:43Z,353940.856,NULL,Vermutung,udhanifu,d,NA,NA,NA,NA,sdf,NA,0,NA,NA,NA,NA,NA,NA,NA,NA,NA,NA,NA,NA,NA,NA,NA,NA,NA,NA,NA
d6572,"""Falsch""-Screen",canvas.Screen,3_0_0_0_2_0_2,NA,NA,timeout,5000.145,353934,353924.142,353940.856,358924.307,358925,2023-12-02T08:32:48Z,358941.001,NULL,Vermutung,udhanifu,d,NA,NA,NA,NA,sdf,0,0,NA,NA,NA,NA,NA,NA,NA,NA,NA,NA,NA,NA,NA,NA,NA,NA,NA,NA,NA
d6572,deep,flow.Sequence,3_0_0_0_2_0,NA,NA,completion,9816.612,349092.4000001,349090.979,349107.695,358924.307,358925.20000005,2023-12-02T08:32:48Z,358941.001,NULL,Vermutung,udhanifu,d,NA,NA,NA,NA,sdf,NA,0,NA,NA,NA,NA,NA,NA,NA,NA,NA,NA,NA,NA,NA,NA,NA,NA,NA,NA,NA
d6572,shallow,flow.Sequence,3_0_0_0_2_1,NA,NA,skipped,NA,358925.4000001,NA,NA,358924.307,358925.5,2023-12-02T08:32:48Z,358941.001,NULL,Vermutung,udhanifu,d,NA,NA,NA,NA,sdf,NA,0,NA,NA,NA,NA,NA,NA,NA,NA,NA,NA,NA,NA,NA,NA,NA,NA,NA,NA,NA
d6572,task,flow.Sequence,3_0_0_0_2,NA,NA,completion,9816.612,349092.30000019,349090.979,349107.695,358924.307,358925.60000014,2023-12-02T08:32:48Z,358941.001,NULL,Vermutung,udhanifu,d,NA,NA,NA,NA,sdf,NA,0,NA,NA,NA,NA,NA,NA,NA,NA,NA,NA,NA,NA,NA,NA,NA,NA,NA,NA,NA
d6572,deep,flow.Sequence,3_0_0_0_3_0,NA,NA,skipped,NA,358925.70000005,NA,NA,358924.307,358925.80000019,2023-12-02T08:32:48Z,358941.001,NULL,Begegnung,kukutana,s,mmasihiya,mpiganaji,husiano,NA,sdf,NA,0,NA,NA,NA,NA,NA,NA,NA,NA,NA,NA,NA,NA,NA,NA,NA,NA,NA,NA,NA
d6572,Shallow Question,html.Page,3_0_0_0_3_1_0,NA,NA,form submission,6934.3990000954,358925.9000001,358924.307,358941.001,365875.4000001,365875.60000014,2023-12-02T08:32:55Z,365890.93,NULL,Begegnung,kukutana,s,mmasihiya,mpiganaji,husiano,kukutana,NA,NA,0,NA,NA,NA,NA,NA,NA,NA,NA,NA,NA,NA,NA,NA,NA,NA,NA,NA,NA,NA
d6572,"""Richtig""-Screen",canvas.Screen,3_0_0_0_3_1_1,NA,NA,timeout,4999.992,365877.4000001,365857.989,365890.93,370874.303,370875,2023-12-02T08:33:00Z,370890.922,NULL,Begegnung,kukutana,s,mmasihiya,mpiganaji,husiano,NA,sdf,1,0,NA,NA,NA,NA,NA,NA,NA,NA,NA,NA,NA,NA,NA,NA,NA,NA,NA,NA,NA
d6572,"""Falsch""-Screen",canvas.Screen,3_0_0_0_3_1_2,NA,NA,skipped,NA,370879.20000005,NA,NA,370874.303,370879.4000001,2023-12-02T08:33:00Z,370890.922,NULL,Begegnung,kukutana,s,mmasihiya,mpiganaji,husiano,NA,sdf,NA,0,NA,NA,NA,NA,NA,NA,NA,NA,NA,NA,NA,NA,NA,NA,NA,NA,NA,NA,NA
d6572,shallow,flow.Sequence,3_0_0_0_3_1,NA,NA,completion,11933.302,358925.9000001,358924.307,358941.001,370874.303,370879.60000014,2023-12-02T08:33:00Z,370890.922,NULL,Begegnung,kukutana,s,mmasihiya,mpiganaji,husiano,NA,sdf,NA,0,NA,NA,NA,NA,NA,NA,NA,NA,NA,NA,NA,NA,NA,NA,NA,NA,NA,NA,NA
d6572,task,flow.Sequence,3_0_0_0_3,NA,NA,completion,11933.302,358925.70000005,358924.307,358941.001,370874.303,370879.70000005,2023-12-02T08:33:00Z,370890.922,NULL,Begegnung,kukutana,s,mmasihiya,mpiganaji,husiano,NA,sdf,NA,0,NA,NA,NA,NA,NA,NA,NA,NA,NA,NA,NA,NA,NA,NA,NA,NA,NA,NA,NA
d6572,deep,flow.Sequence,3_0_0_0_4_0,NA,NA,skipped,NA,370879.9000001,NA,NA,370874.303,370880,2023-12-02T08:33:00Z,370890.922,NULL,Schlange,foleni,s,uvumilivu,uteuzi,muuzaji,NA,sdf,NA,0,NA,NA,NA,NA,NA,NA,NA,NA,NA,NA,NA,NA,NA,NA,NA,NA,NA,NA,NA
d6572,Shallow Question,html.Page,3_0_0_0_4_1_0,NA,NA,form submission,6000.578,370880,370874.303,370890.922,376891.5,376891.70000005,2023-12-02T08:33:06Z,376924.349,NULL,Schlange,foleni,s,uvumilivu,uteuzi,muuzaji,muuzaji,NA,NA,0,NA,NA,NA,NA,NA,NA,NA,NA,NA,NA,NA,NA,NA,NA,NA,NA,NA,NA,NA
d6572,"""Richtig""-Screen",canvas.Screen,3_0_0_0_4_1_1,NA,NA,skipped,NA,376893.30000019,NA,NA,376891.5,376893.4000001,2023-12-02T08:33:06Z,376924.349,NULL,Schlange,foleni,s,uvumilivu,uteuzi,muuzaji,NA,sdf,NA,0,NA,NA,NA,NA,NA,NA,NA,NA,NA,NA,NA,NA,NA,NA,NA,NA,NA,NA,NA
d6572,"""Falsch""-Screen",canvas.Screen,3_0_0_0_4_1_2,NA,NA,timeout,4999.991,376894.10000014,376907.686,376924.349,381907.638,381908.4000001,2023-12-02T08:33:11Z,381924.34,NULL,Schlange,foleni,s,uvumilivu,uteuzi,muuzaji,NA,sdf,0,0,NA,NA,NA,NA,NA,NA,NA,NA,NA,NA,NA,NA,NA,NA,NA,NA,NA,NA,NA
d6572,shallow,flow.Sequence,3_0_0_0_4_1,NA,NA,completion,11016.716,370880,370874.303,370890.922,381907.638,381908.60000014,2023-12-02T08:33:11Z,381924.34,NULL,Schlange,foleni,s,uvumilivu,uteuzi,muuzaji,NA,sdf,NA,0,NA,NA,NA,NA,NA,NA,NA,NA,NA,NA,NA,NA,NA,NA,NA,NA,NA,NA,NA
d6572,task,flow.Sequence,3_0_0_0_4,NA,NA,completion,11016.716,370879.9000001,370874.303,370890.922,381907.638,381908.70000005,2023-12-02T08:33:11Z,381924.34,NULL,Schlange,foleni,s,uvumilivu,uteuzi,muuzaji,NA,sdf,NA,0,NA,NA,NA,NA,NA,NA,NA,NA,NA,NA,NA,NA,NA,NA,NA,NA,NA,NA,NA
d6572,Deep Question,html.Page,3_0_0_0_5_0_0,NA,NA,form submission,9583.0600000953,381909,381907.638,381924.34,391507.4000001,391507.60000014,2023-12-02T08:33:21Z,391524.512,NULL,Inhalt,yaliyomo,d,NA,NA,NA,mewhana,NA,NA,0,NA,NA,NA,NA,NA,NA,NA,NA,NA,NA,NA,NA,NA,NA,NA,NA,NA,NA,NA
d6572,"""Richtig""-Screen",canvas.Screen,3_0_0_0_5_0_1,NA,NA,skipped,NA,391509.4000001,NA,NA,391507.4000001,391509.5,2023-12-02T08:33:21Z,391524.512,NULL,Inhalt,yaliyomo,d,NA,NA,NA,NA,sdf,NA,0,NA,NA,NA,NA,NA,NA,NA,NA,NA,NA,NA,NA,NA,NA,NA,NA,NA,NA,NA
d6572,"""Falsch""-Screen",canvas.Screen,3_0_0_0_5_0_2,NA,NA,timeout,4999.817,391510,391490.955,391524.512,396507.634,396508.30000019,2023-12-02T08:33:26Z,396524.329,NULL,Inhalt,yaliyomo,d,NA,NA,NA,NA,sdf,0,0,NA,NA,NA,NA,NA,NA,NA,NA,NA,NA,NA,NA,NA,NA,NA,NA,NA,NA,NA
d6572,deep,flow.Sequence,3_0_0_0_5_0,NA,NA,completion,14583.294,381908.9000001,381907.638,381924.34,396507.634,396508.60000014,2023-12-02T08:33:26Z,396524.329,NULL,Inhalt,yaliyomo,d,NA,NA,NA,NA,sdf,NA,0,NA,NA,NA,NA,NA,NA,NA,NA,NA,NA,NA,NA,NA,NA,NA,NA,NA,NA,NA
d6572,shallow,flow.Sequence,3_0_0_0_5_1,NA,NA,skipped,NA,396508.60000014,NA,NA,396507.634,396508.80000019,2023-12-02T08:33:26Z,396524.329,NULL,Inhalt,yaliyomo,d,NA,NA,NA,NA,sdf,NA,0,NA,NA,NA,NA,NA,NA,NA,NA,NA,NA,NA,NA,NA,NA,NA,NA,NA,NA,NA
d6572,task,flow.Sequence,3_0_0_0_5,NA,NA,completion,14583.294,381908.80000019,381907.638,381924.34,396507.634,396508.9000001,2023-12-02T08:33:26Z,396524.329,NULL,Inhalt,yaliyomo,d,NA,NA,NA,NA,sdf,NA,0,NA,NA,NA,NA,NA,NA,NA,NA,NA,NA,NA,NA,NA,NA,NA,NA,NA,NA,NA
d6572,deep,flow.Sequence,3_0_0_0_6_0,NA,NA,skipped,NA,396509,NA,NA,396507.634,396509.10000014,2023-12-02T08:33:26Z,396524.329,NULL,Toleranz,kuvumiliana,s,maombolezo,ujasusi,mchekeshaji,NA,sdf,NA,0,NA,NA,NA,NA,NA,NA,NA,NA,NA,NA,NA,NA,NA,NA,NA,NA,NA,NA,NA
d6572,Shallow Question,html.Page,3_0_0_0_6_1_0,NA,NA,form submission,6726.771000143,396509.10000014,396507.634,396524.329,403251.10000014,403251.4000001,2023-12-02T08:33:32Z,403257.492,NULL,Toleranz,kuvumiliana,s,maombolezo,ujasusi,mchekeshaji,ujasusi,NA,NA,0,NA,NA,NA,NA,NA,NA,NA,NA,NA,NA,NA,NA,NA,NA,NA,NA,NA,NA,NA
d6572,"""Richtig""-Screen",canvas.Screen,3_0_0_0_6_1_1,NA,NA,skipped,NA,403253.70000005,NA,NA,403251.10000014,403253.9000001,2023-12-02T08:33:32Z,403257.492,NULL,Toleranz,kuvumiliana,s,maombolezo,ujasusi,mchekeshaji,NA,sdf,NA,0,NA,NA,NA,NA,NA,NA,NA,NA,NA,NA,NA,NA,NA,NA,NA,NA,NA,NA,NA
d6572,"""Falsch""-Screen",canvas.Screen,3_0_0_0_6_1_2,NA,NA,timeout,5000.12,403254.4000001,403240.873,403257.492,408240.961,408241.5,2023-12-02T08:33:37Z,408257.612,NULL,Toleranz,kuvumiliana,s,maombolezo,ujasusi,mchekeshaji,NA,sdf,0,0,NA,NA,NA,NA,NA,NA,NA,NA,NA,NA,NA,NA,NA,NA,NA,NA,NA,NA,NA
d6572,shallow,flow.Sequence,3_0_0_0_6_1,NA,NA,completion,11716.632,396509.10000014,396507.634,396524.329,408240.961,408241.80000019,2023-12-02T08:33:37Z,408257.612,NULL,Toleranz,kuvumiliana,s,maombolezo,ujasusi,mchekeshaji,NA,sdf,NA,0,NA,NA,NA,NA,NA,NA,NA,NA,NA,NA,NA,NA,NA,NA,NA,NA,NA,NA,NA
d6572,task,flow.Sequence,3_0_0_0_6,NA,NA,completion,11716.632,396509,396507.634,396524.329,408240.961,408242,2023-12-02T08:33:37Z,408257.612,NULL,Toleranz,kuvumiliana,s,maombolezo,ujasusi,mchekeshaji,NA,sdf,NA,0,NA,NA,NA,NA,NA,NA,NA,NA,NA,NA,NA,NA,NA,NA,NA,NA,NA,NA,NA
d6572,Deep Question,html.Page,3_0_0_0_7_0_0,NA,NA,form submission,6361.5880000477,408242.20000005,408240.961,408257.612,414619.20000005,414619.4000001,2023-12-02T08:33:44Z,414625.249,NULL,Integrität,uadilifu,d,NA,NA,NA,mehnwa,NA,NA,0,NA,NA,NA,NA,NA,NA,NA,NA,NA,NA,NA,NA,NA,NA,NA,NA,NA,NA,NA
d6572,"""Richtig""-Screen",canvas.Screen,3_0_0_0_7_0_1,NA,NA,skipped,NA,414621.20000005,NA,NA,414619.20000005,414621.4000001,2023-12-02T08:33:44Z,414625.249,NULL,Integrität,uadilifu,d,NA,NA,NA,NA,sdf,NA,0,NA,NA,NA,NA,NA,NA,NA,NA,NA,NA,NA,NA,NA,NA,NA,NA,NA,NA,NA
d6572,"""Falsch""-Screen",canvas.Screen,3_0_0_0_7_0_2,NA,NA,timeout,4998.871,414621.9000001,414607.531,414625.249,419607.625,419608.30000019,2023-12-02T08:33:49Z,419624.12,NULL,Integrität,uadilifu,d,NA,NA,NA,NA,sdf,0,0,NA,NA,NA,NA,NA,NA,NA,NA,NA,NA,NA,NA,NA,NA,NA,NA,NA,NA,NA
d6572,deep,flow.Sequence,3_0_0_0_7_0,NA,NA,completion,11350.013,408242.20000005,408240.961,408257.612,419607.625,419608.70000005,2023-12-02T08:33:49Z,419624.12,NULL,Integrität,uadilifu,d,NA,NA,NA,NA,sdf,NA,0,NA,NA,NA,NA,NA,NA,NA,NA,NA,NA,NA,NA,NA,NA,NA,NA,NA,NA,NA
d6572,shallow,flow.Sequence,3_0_0_0_7_1,NA,NA,skipped,NA,419608.80000019,NA,NA,419607.625,419608.9000001,2023-12-02T08:33:49Z,419624.12,NULL,Integrität,uadilifu,d,NA,NA,NA,NA,sdf,NA,0,NA,NA,NA,NA,NA,NA,NA,NA,NA,NA,NA,NA,NA,NA,NA,NA,NA,NA,NA
d6572,task,flow.Sequence,3_0_0_0_7,NA,NA,completion,11350.013,408242.10000014,408240.961,408257.612,419607.625,419609,2023-12-02T08:33:49Z,419624.12,NULL,Integrität,uadilifu,d,NA,NA,NA,NA,sdf,NA,0,NA,NA,NA,NA,NA,NA,NA,NA,NA,NA,NA,NA,NA,NA,NA,NA,NA,NA,NA
d6572,block,flow.Loop,3_0_0_0,NA,NA,completion,95983.411,323627,323524.352,323624.214,419607.625,419609.20000005,2023-12-02T08:33:49Z,419624.12,NULL,NA,NA,NA,NA,NA,NA,NA,sdf,NA,0,NA,NA,NA,NA,NA,NA,NA,NA,NA,NA,NA,NA,NA,NA,NA,NA,NA,NA,NA
d6572,weiter,canvas.Screen,3_0_0_1,sdf,keypress(Space),response,1345.9800001431,419609.4000001,419607.625,419624.12,420970.10000014,420971,2023-12-02T08:33:50Z,421024.198,NULL,NA,NA,NA,NA,NA,NA,NA,sdf,NA,0,NA,NA,NA,NA,NA,NA,NA,NA,NA,NA,NA,NA,NA,NA,NA,NA,NA,NA,NA
d6572,check continue,flow.Sequence,3_0_0,NA,NA,completion,97345.886000143,323627,323524.352,323624.214,420970.10000014,420971.30000019,2023-12-02T08:33:50Z,421024.198,NULL,NA,NA,NA,NA,NA,NA,NA,sdf,NA,0,NA,NA,NA,NA,NA,NA,NA,NA,NA,NA,NA,NA,NA,NA,NA,NA,NA,NA,NA
d6572,deep,flow.Sequence,3_0_1_0_0_0,NA,NA,skipped,NA,421018.70000005,NA,NA,420970.10000014,421018.80000019,2023-12-02T08:33:50Z,421024.198,NULL,Genehmigung,idhini,s,mwanamke,itikadi,fedheha,NA,sdfdsf,NA,1,NA,NA,NA,NA,NA,NA,NA,NA,NA,NA,NA,NA,NA,NA,NA,NA,NA,NA,NA
d6572,Shallow Question,html.Page,3_0_1_0_0_1_0,NA,NA,form submission,12019.302,421018.9000001,421007.719,421024.198,433043.5,433043.60000014,2023-12-02T08:34:02Z,433057.61,NULL,Genehmigung,idhini,s,mwanamke,itikadi,fedheha,itikadi,NA,NA,1,NA,NA,NA,NA,NA,NA,NA,NA,NA,NA,NA,NA,NA,NA,NA,NA,NA,NA,NA
d6572,"""Richtig""-Screen",canvas.Screen,3_0_1_0_0_1_1,NA,NA,skipped,NA,433045.4000001,NA,NA,433043.5,433045.60000014,2023-12-02T08:34:02Z,433057.61,NULL,Genehmigung,idhini,s,mwanamke,itikadi,fedheha,NA,sdfdsf,NA,1,NA,NA,NA,NA,NA,NA,NA,NA,NA,NA,NA,NA,NA,NA,NA,NA,NA,NA,NA
d6572,"""Falsch""-Screen",canvas.Screen,3_0_1_0_0_1_2,NA,NA,timeout,4999.994,433046.20000005,433040.974,433057.61,438040.975,438041.70000005,2023-12-02T08:34:07Z,438057.604,NULL,Genehmigung,idhini,s,mwanamke,itikadi,fedheha,NA,sdfdsf,0,1,NA,NA,NA,NA,NA,NA,NA,NA,NA,NA,NA,NA,NA,NA,NA,NA,NA,NA,NA
d6572,shallow,flow.Sequence,3_0_1_0_0_1,NA,NA,completion,17016.777,421018.9000001,421007.719,421024.198,438040.975,438042,2023-12-02T08:34:07Z,438057.604,NULL,Genehmigung,idhini,s,mwanamke,itikadi,fedheha,NA,sdfdsf,NA,1,NA,NA,NA,NA,NA,NA,NA,NA,NA,NA,NA,NA,NA,NA,NA,NA,NA,NA,NA
d6572,task,flow.Sequence,3_0_1_0_0,NA,NA,completion,17016.777,421018.70000005,421007.719,421024.198,438040.975,438042.10000014,2023-12-02T08:34:07Z,438057.604,NULL,Genehmigung,idhini,s,mwanamke,itikadi,fedheha,NA,sdfdsf,NA,1,NA,NA,NA,NA,NA,NA,NA,NA,NA,NA,NA,NA,NA,NA,NA,NA,NA,NA,NA
d6572,Deep Question,html.Page,3_0_1_0_1_0_0,NA,NA,form submission,5042.0960000477,438042.30000019,438040.975,438057.604,443099.70000005,443099.80000019,2023-12-02T08:34:12Z,443107.432,NULL,Vermutung,udhanifu,d,NA,NA,NA,mehwa,NA,NA,1,NA,NA,NA,NA,NA,NA,NA,NA,NA,NA,NA,NA,NA,NA,NA,NA,NA,NA,NA
d6572,"""Richtig""-Screen",canvas.Screen,3_0_1_0_1_0_1,NA,NA,skipped,NA,443101.60000014,NA,NA,443099.70000005,443101.70000005,2023-12-02T08:34:12Z,443107.432,NULL,Vermutung,udhanifu,d,NA,NA,NA,NA,sdfdsf,NA,1,NA,NA,NA,NA,NA,NA,NA,NA,NA,NA,NA,NA,NA,NA,NA,NA,NA,NA,NA
d6572,"""Falsch""-Screen",canvas.Screen,3_0_1_0_1_0_2,NA,NA,timeout,5000.239,443102.20000005,443090.957,443107.432,448090.957,448091.60000014,2023-12-02T08:34:17Z,448107.671,NULL,Vermutung,udhanifu,d,NA,NA,NA,NA,sdfdsf,0,1,NA,NA,NA,NA,NA,NA,NA,NA,NA,NA,NA,NA,NA,NA,NA,NA,NA,NA,NA
d6572,deep,flow.Sequence,3_0_1_0_1_0,NA,NA,completion,10033.353,438042.30000019,438040.975,438057.604,448090.957,448091.80000019,2023-12-02T08:34:17Z,448107.671,NULL,Vermutung,udhanifu,d,NA,NA,NA,NA,sdfdsf,NA,1,NA,NA,NA,NA,NA,NA,NA,NA,NA,NA,NA,NA,NA,NA,NA,NA,NA,NA,NA
d6572,shallow,flow.Sequence,3_0_1_0_1_1,NA,NA,skipped,NA,448092,NA,NA,448090.957,448092.10000014,2023-12-02T08:34:17Z,448107.671,NULL,Vermutung,udhanifu,d,NA,NA,NA,NA,sdfdsf,NA,1,NA,NA,NA,NA,NA,NA,NA,NA,NA,NA,NA,NA,NA,NA,NA,NA,NA,NA,NA
d6572,task,flow.Sequence,3_0_1_0_1,NA,NA,completion,10033.353,438042.30000019,438040.975,438057.604,448090.957,448092.20000005,2023-12-02T08:34:17Z,448107.671,NULL,Vermutung,udhanifu,d,NA,NA,NA,NA,sdfdsf,NA,1,NA,NA,NA,NA,NA,NA,NA,NA,NA,NA,NA,NA,NA,NA,NA,NA,NA,NA,NA
d6572,Deep Question,html.Page,3_0_1_0_2_0_0,NA,NA,form submission,6951.6290001908,448092.30000019,448090.957,448107.671,455059.30000019,455059.5,2023-12-02T08:34:24Z,455074.13,NULL,Integrität,uadilifu,d,NA,NA,NA,usinu,NA,NA,1,NA,NA,NA,NA,NA,NA,NA,NA,NA,NA,NA,NA,NA,NA,NA,NA,NA,NA,NA
d6572,"""Richtig""-Screen",canvas.Screen,3_0_1_0_2_0_1,NA,NA,skipped,NA,455061.20000005,NA,NA,455059.30000019,455061.30000019,2023-12-02T08:34:24Z,455074.13,NULL,Integrität,uadilifu,d,NA,NA,NA,NA,sdfdsf,NA,1,NA,NA,NA,NA,NA,NA,NA,NA,NA,NA,NA,NA,NA,NA,NA,NA,NA,NA,NA
d6572,"""Falsch""-Screen",canvas.Screen,3_0_1_0_2_0_2,NA,NA,timeout,5000.09,455061.9000001,455057.5,455074.13,460057.615,460058.4000001,2023-12-02T08:34:29Z,460074.22,NULL,Integrität,uadilifu,d,NA,NA,NA,NA,sdfdsf,0,1,NA,NA,NA,NA,NA,NA,NA,NA,NA,NA,NA,NA,NA,NA,NA,NA,NA,NA,NA
d6572,deep,flow.Sequence,3_0_1_0_2_0,NA,NA,completion,11949.944,448092.30000019,448090.957,448107.671,460057.615,460058.80000019,2023-12-02T08:34:29Z,460074.22,NULL,Integrität,uadilifu,d,NA,NA,NA,NA,sdfdsf,NA,1,NA,NA,NA,NA,NA,NA,NA,NA,NA,NA,NA,NA,NA,NA,NA,NA,NA,NA,NA
d6572,shallow,flow.Sequence,3_0_1_0_2_1,NA,NA,skipped,NA,460058.9000001,NA,NA,460057.615,460059,2023-12-02T08:34:29Z,460074.22,NULL,Integrität,uadilifu,d,NA,NA,NA,NA,sdfdsf,NA,1,NA,NA,NA,NA,NA,NA,NA,NA,NA,NA,NA,NA,NA,NA,NA,NA,NA,NA,NA
d6572,task,flow.Sequence,3_0_1_0_2,NA,NA,completion,11949.944,448092.20000005,448090.957,448107.671,460057.615,460059.10000014,2023-12-02T08:34:29Z,460074.22,NULL,Integrität,uadilifu,d,NA,NA,NA,NA,sdfdsf,NA,1,NA,NA,NA,NA,NA,NA,NA,NA,NA,NA,NA,NA,NA,NA,NA,NA,NA,NA,NA
d6572,deep,flow.Sequence,3_0_1_0_3_0,NA,NA,skipped,NA,460059.30000019,NA,NA,460057.615,460059.4000001,2023-12-02T08:34:29Z,460074.22,NULL,Begegnung,kukutana,s,mmasihiya,mpiganaji,husiano,NA,sdfdsf,NA,1,NA,NA,NA,NA,NA,NA,NA,NA,NA,NA,NA,NA,NA,NA,NA,NA,NA,NA,NA
d6572,Shallow Question,html.Page,3_0_1_0_3_1_0,NA,NA,form submission,7121.1800000954,460059.5,460057.615,460074.22,467195.4000001,467195.60000014,2023-12-02T08:34:36Z,467207.512,NULL,Begegnung,kukutana,s,mmasihiya,mpiganaji,husiano,kukutana,NA,NA,1,NA,NA,NA,NA,NA,NA,NA,NA,NA,NA,NA,NA,NA,NA,NA,NA,NA,NA,NA
d6572,"""Richtig""-Screen",canvas.Screen,3_0_1_0_3_1_1,NA,NA,timeout,5000.013,467197.4000001,467190.772,467207.512,472190.95,472191.70000005,2023-12-02T08:34:41Z,472207.525,NULL,Begegnung,kukutana,s,mmasihiya,mpiganaji,husiano,NA,sdfdsf,1,1,NA,NA,NA,NA,NA,NA,NA,NA,NA,NA,NA,NA,NA,NA,NA,NA,NA,NA,NA
d6572,"""Falsch""-Screen",canvas.Screen,3_0_1_0_3_1_2,NA,NA,skipped,NA,472195.60000014,NA,NA,472190.95,472195.9000001,2023-12-02T08:34:41Z,472207.525,NULL,Begegnung,kukutana,s,mmasihiya,mpiganaji,husiano,NA,sdfdsf,NA,1,NA,NA,NA,NA,NA,NA,NA,NA,NA,NA,NA,NA,NA,NA,NA,NA,NA,NA,NA
d6572,shallow,flow.Sequence,3_0_1_0_3_1,NA,NA,completion,12116.73,460059.5,460057.615,460074.22,472190.95,472196.20000005,2023-12-02T08:34:41Z,472207.525,NULL,Begegnung,kukutana,s,mmasihiya,mpiganaji,husiano,NA,sdfdsf,NA,1,NA,NA,NA,NA,NA,NA,NA,NA,NA,NA,NA,NA,NA,NA,NA,NA,NA,NA,NA
d6572,task,flow.Sequence,3_0_1_0_3,NA,NA,completion,12116.73,460059.20000005,460057.615,460074.22,472190.95,472196.30000019,2023-12-02T08:34:41Z,472207.525,NULL,Begegnung,kukutana,s,mmasihiya,mpiganaji,husiano,NA,sdfdsf,NA,1,NA,NA,NA,NA,NA,NA,NA,NA,NA,NA,NA,NA,NA,NA,NA,NA,NA,NA,NA
d6572,Deep Question,html.Page,3_0_1_0_4_0_0,NA,NA,form submission,7371.8750000953,472196.5,472190.95,472207.525,479579.4000001,479579.60000014,2023-12-02T08:34:49Z,479590.821,NULL,Inhalt,yaliyomo,d,NA,NA,NA,uziu,NA,NA,1,NA,NA,NA,NA,NA,NA,NA,NA,NA,NA,NA,NA,NA,NA,NA,NA,NA,NA,NA
d6572,"""Richtig""-Screen",canvas.Screen,3_0_1_0_4_0_1,NA,NA,skipped,NA,479581.30000019,NA,NA,479579.4000001,479581.5,2023-12-02T08:34:49Z,479590.821,NULL,Inhalt,yaliyomo,d,NA,NA,NA,NA,sdfdsf,NA,1,NA,NA,NA,NA,NA,NA,NA,NA,NA,NA,NA,NA,NA,NA,NA,NA,NA,NA,NA
d6572,"""Falsch""-Screen",canvas.Screen,3_0_1_0_4_0_2,NA,NA,timeout,5000.095,479582,479574.254,479590.821,484574.165,484574.9000001,2023-12-02T08:34:54Z,484590.916,NULL,Inhalt,yaliyomo,d,NA,NA,NA,NA,sdfdsf,0,1,NA,NA,NA,NA,NA,NA,NA,NA,NA,NA,NA,NA,NA,NA,NA,NA,NA,NA,NA
d6572,deep,flow.Sequence,3_0_1_0_4_0,NA,NA,completion,12366.64,472196.5,472190.95,472207.525,484574.165,484575.30000019,2023-12-02T08:34:54Z,484590.916,NULL,Inhalt,yaliyomo,d,NA,NA,NA,NA,sdfdsf,NA,1,NA,NA,NA,NA,NA,NA,NA,NA,NA,NA,NA,NA,NA,NA,NA,NA,NA,NA,NA
d6572,shallow,flow.Sequence,3_0_1_0_4_1,NA,NA,skipped,NA,484575.4000001,NA,NA,484574.165,484575.5,2023-12-02T08:34:54Z,484590.916,NULL,Inhalt,yaliyomo,d,NA,NA,NA,NA,sdfdsf,NA,1,NA,NA,NA,NA,NA,NA,NA,NA,NA,NA,NA,NA,NA,NA,NA,NA,NA,NA,NA
d6572,task,flow.Sequence,3_0_1_0_4,NA,NA,completion,12366.64,472196.5,472190.95,472207.525,484574.165,484575.70000005,2023-12-02T08:34:54Z,484590.916,NULL,Inhalt,yaliyomo,d,NA,NA,NA,NA,sdfdsf,NA,1,NA,NA,NA,NA,NA,NA,NA,NA,NA,NA,NA,NA,NA,NA,NA,NA,NA,NA,NA
d6572,deep,flow.Sequence,3_0_1_0_5_0,NA,NA,skipped,NA,484575.80000019,NA,NA,484574.165,484575.9000001,2023-12-02T08:34:54Z,484590.916,NULL,Schlange,foleni,s,uvumilivu,uteuzi,muuzaji,NA,sdfdsf,NA,1,NA,NA,NA,NA,NA,NA,NA,NA,NA,NA,NA,NA,NA,NA,NA,NA,NA,NA,NA
d6572,Shallow Question,html.Page,3_0_1_0_5_1_0,NA,NA,form submission,3508.2840000477,484576,484574.165,484590.916,488099.20000005,488099.4000001,2023-12-02T08:34:57Z,488107.422,NULL,Schlange,foleni,s,uvumilivu,uteuzi,muuzaji,foleni,NA,NA,1,NA,NA,NA,NA,NA,NA,NA,NA,NA,NA,NA,NA,NA,NA,NA,NA,NA,NA,NA
d6572,"""Richtig""-Screen",canvas.Screen,3_0_1_0_5_1_1,NA,NA,timeout,5000.138,488101.30000019,488090.949,488107.422,493090.946,493091.60000014,2023-12-02T08:35:02Z,493107.56,NULL,Schlange,foleni,s,uvumilivu,uteuzi,muuzaji,NA,sdfdsf,1,1,NA,NA,NA,NA,NA,NA,NA,NA,NA,NA,NA,NA,NA,NA,NA,NA,NA,NA,NA
d6572,"""Falsch""-Screen",canvas.Screen,3_0_1_0_5_1_2,NA,NA,skipped,NA,493095.60000014,NA,NA,493090.946,493095.80000019,2023-12-02T08:35:02Z,493107.56,NULL,Schlange,foleni,s,uvumilivu,uteuzi,muuzaji,NA,sdfdsf,NA,1,NA,NA,NA,NA,NA,NA,NA,NA,NA,NA,NA,NA,NA,NA,NA,NA,NA,NA,NA
d6572,shallow,flow.Sequence,3_0_1_0_5_1,NA,NA,completion,8500.03,484576,484574.165,484590.916,493090.946,493095.9000001,2023-12-02T08:35:02Z,493107.56,NULL,Schlange,foleni,s,uvumilivu,uteuzi,muuzaji,NA,sdfdsf,NA,1,NA,NA,NA,NA,NA,NA,NA,NA,NA,NA,NA,NA,NA,NA,NA,NA,NA,NA,NA
d6572,task,flow.Sequence,3_0_1_0_5,NA,NA,completion,8500.03,484575.80000019,484574.165,484590.916,493090.946,493096.10000014,2023-12-02T08:35:02Z,493107.56,NULL,Schlange,foleni,s,uvumilivu,uteuzi,muuzaji,NA,sdfdsf,NA,1,NA,NA,NA,NA,NA,NA,NA,NA,NA,NA,NA,NA,NA,NA,NA,NA,NA,NA,NA
d6572,deep,flow.Sequence,3_0_1_0_6_0,NA,NA,skipped,NA,493096.20000005,NA,NA,493090.946,493096.30000019,2023-12-02T08:35:02Z,493107.56,NULL,Toleranz,kuvumiliana,s,maombolezo,ujasusi,mchekeshaji,NA,sdfdsf,NA,1,NA,NA,NA,NA,NA,NA,NA,NA,NA,NA,NA,NA,NA,NA,NA,NA,NA,NA,NA
d6572,Shallow Question,html.Page,3_0_1_0_6_1_0,NA,NA,form submission,6319.7400001907,493096.4000001,493090.946,493107.56,499427.30000019,499427.5,2023-12-02T08:35:09Z,499440.789,NULL,Toleranz,kuvumiliana,s,maombolezo,ujasusi,mchekeshaji,kuvumiliana,NA,NA,1,NA,NA,NA,NA,NA,NA,NA,NA,NA,NA,NA,NA,NA,NA,NA,NA,NA,NA,NA
d6572,"""Richtig""-Screen",canvas.Screen,3_0_1_0_6_1_1,NA,NA,timeout,5000.041,499429.10000014,499424.221,499440.789,504424.279,504425.10000014,2023-12-02T08:35:14Z,504440.83,NULL,Toleranz,kuvumiliana,s,maombolezo,ujasusi,mchekeshaji,NA,sdfdsf,1,1,NA,NA,NA,NA,NA,NA,NA,NA,NA,NA,NA,NA,NA,NA,NA,NA,NA,NA,NA
d6572,"""Falsch""-Screen",canvas.Screen,3_0_1_0_6_1_2,NA,NA,skipped,NA,504429.5,NA,NA,504424.279,504429.70000005,2023-12-02T08:35:14Z,504440.83,NULL,Toleranz,kuvumiliana,s,maombolezo,ujasusi,mchekeshaji,NA,sdfdsf,NA,1,NA,NA,NA,NA,NA,NA,NA,NA,NA,NA,NA,NA,NA,NA,NA,NA,NA,NA,NA
d6572,shallow,flow.Sequence,3_0_1_0_6_1,NA,NA,completion,11316.719,493096.4000001,493090.946,493107.56,504424.279,504429.9000001,2023-12-02T08:35:14Z,504440.83,NULL,Toleranz,kuvumiliana,s,maombolezo,ujasusi,mchekeshaji,NA,sdfdsf,NA,1,NA,NA,NA,NA,NA,NA,NA,NA,NA,NA,NA,NA,NA,NA,NA,NA,NA,NA,NA
d6572,task,flow.Sequence,3_0_1_0_6,NA,NA,completion,11316.719,493096.20000005,493090.946,493107.56,504424.279,504430.10000014,2023-12-02T08:35:14Z,504440.83,NULL,Toleranz,kuvumiliana,s,maombolezo,ujasusi,mchekeshaji,NA,sdfdsf,NA,1,NA,NA,NA,NA,NA,NA,NA,NA,NA,NA,NA,NA,NA,NA,NA,NA,NA,NA,NA
d6572,Deep Question,html.Page,3_0_1_0_7_0_0,NA,NA,form submission,6754.5700000954,504430.30000019,504424.279,504440.83,511195.4000001,511195.60000014,2023-12-02T08:35:20Z,511207.44,NULL,Fleisch,mshakiki,d,NA,NA,NA,yamato,NA,NA,1,NA,NA,NA,NA,NA,NA,NA,NA,NA,NA,NA,NA,NA,NA,NA,NA,NA,NA,NA
d6572,"""Richtig""-Screen",canvas.Screen,3_0_1_0_7_0_1,NA,NA,skipped,NA,511197.30000019,NA,NA,511195.4000001,511197.4000001,2023-12-02T08:35:20Z,511207.44,NULL,Fleisch,mshakiki,d,NA,NA,NA,NA,sdfdsf,NA,1,NA,NA,NA,NA,NA,NA,NA,NA,NA,NA,NA,NA,NA,NA,NA,NA,NA,NA,NA
d6572,"""Falsch""-Screen",canvas.Screen,3_0_1_0_7_0_2,NA,NA,timeout,5000.224,511198,511190.938,511207.44,516190.946,516191.60000014,2023-12-02T08:35:25Z,516207.664,NULL,Fleisch,mshakiki,d,NA,NA,NA,NA,sdfdsf,0,1,NA,NA,NA,NA,NA,NA,NA,NA,NA,NA,NA,NA,NA,NA,NA,NA,NA,NA,NA
d6572,deep,flow.Sequence,3_0_1_0_7_0,NA,NA,completion,11750.116,504430.30000019,504424.279,504440.83,516190.946,516191.9000001,2023-12-02T08:35:25Z,516207.664,NULL,Fleisch,mshakiki,d,NA,NA,NA,NA,sdfdsf,NA,1,NA,NA,NA,NA,NA,NA,NA,NA,NA,NA,NA,NA,NA,NA,NA,NA,NA,NA,NA
d6572,shallow,flow.Sequence,3_0_1_0_7_1,NA,NA,skipped,NA,516192,NA,NA,516190.946,516192.10000014,2023-12-02T08:35:25Z,516207.664,NULL,Fleisch,mshakiki,d,NA,NA,NA,NA,sdfdsf,NA,1,NA,NA,NA,NA,NA,NA,NA,NA,NA,NA,NA,NA,NA,NA,NA,NA,NA,NA,NA
d6572,task,flow.Sequence,3_0_1_0_7,NA,NA,completion,11750.116,504430.20000005,504424.279,504440.83,516190.946,516192.30000019,2023-12-02T08:35:25Z,516207.664,NULL,Fleisch,mshakiki,d,NA,NA,NA,NA,sdfdsf,NA,1,NA,NA,NA,NA,NA,NA,NA,NA,NA,NA,NA,NA,NA,NA,NA,NA,NA,NA,NA
d6572,block,flow.Loop,3_0_1_0,NA,NA,completion,95166.748,421018.70000005,421007.719,421024.198,516190.946,516192.5,2023-12-02T08:35:25Z,516207.664,NULL,NA,NA,NA,NA,NA,NA,NA,sdfdsf,NA,1,NA,NA,NA,NA,NA,NA,NA,NA,NA,NA,NA,NA,NA,NA,NA,NA,NA,NA,NA
d6572,weiter,canvas.Screen,3_0_1_1,sdf,keypress(Space),response,1162.5360000477,516192.60000014,516190.946,516207.664,517370.20000005,517371,2023-12-02T08:35:26Z,517440.934,NULL,NA,NA,NA,NA,NA,NA,NA,sdfdsf,NA,1,NA,NA,NA,NA,NA,NA,NA,NA,NA,NA,NA,NA,NA,NA,NA,NA,NA,NA,NA
d6572,check continue,flow.Sequence,3_0_1,NA,NA,completion,96346.002000048,421018.60000014,421007.719,421024.198,517370.20000005,517371.30000019,2023-12-02T08:35:26Z,517440.934,NULL,NA,NA,NA,NA,NA,NA,NA,sdfdsf,NA,1,NA,NA,NA,NA,NA,NA,NA,NA,NA,NA,NA,NA,NA,NA,NA,NA,NA,NA,NA
d6572,Deep Question,html.Page,3_0_2_0_0_0_0,NA,NA,form submission,5875.2660000477,517429.10000014,517424.978,517440.934,523316.20000005,523316.5,2023-12-02T08:35:32Z,523324.086,NULL,Fleisch,mshakiki,d,NA,NA,NA,mashiki,NA,NA,2,NA,NA,NA,NA,NA,NA,NA,NA,NA,NA,NA,NA,NA,NA,NA,NA,NA,NA,NA
d6572,"""Richtig""-Screen",canvas.Screen,3_0_2_0_0_0_1,NA,NA,skipped,NA,523318.30000019,NA,NA,523316.20000005,523318.4000001,2023-12-02T08:35:32Z,523324.086,NULL,Fleisch,mshakiki,d,NA,NA,NA,NA,sdf,NA,2,NA,NA,NA,NA,NA,NA,NA,NA,NA,NA,NA,NA,NA,NA,NA,NA,NA,NA,NA
d6572,"""Falsch""-Screen",canvas.Screen,3_0_2_0_0_0_2,NA,NA,timeout,5000.23,523318.9000001,523307.599,523324.086,528307.548,528308.5,2023-12-02T08:35:37Z,528324.316,NULL,Fleisch,mshakiki,d,NA,NA,NA,NA,sdf,0,2,NA,NA,NA,NA,NA,NA,NA,NA,NA,NA,NA,NA,NA,NA,NA,NA,NA,NA,NA
d6572,deep,flow.Sequence,3_0_2_0_0_0,NA,NA,completion,10866.614,517429.10000014,517424.978,517440.934,528307.548,528308.80000019,2023-12-02T08:35:37Z,528324.316,NULL,Fleisch,mshakiki,d,NA,NA,NA,NA,sdf,NA,2,NA,NA,NA,NA,NA,NA,NA,NA,NA,NA,NA,NA,NA,NA,NA,NA,NA,NA,NA
d6572,shallow,flow.Sequence,3_0_2_0_0_1,NA,NA,skipped,NA,528308.80000019,NA,NA,528307.548,528308.9000001,2023-12-02T08:35:37Z,528324.316,NULL,Fleisch,mshakiki,d,NA,NA,NA,NA,sdf,NA,2,NA,NA,NA,NA,NA,NA,NA,NA,NA,NA,NA,NA,NA,NA,NA,NA,NA,NA,NA
d6572,task,flow.Sequence,3_0_2_0_0,NA,NA,completion,10866.614,517429.10000014,517424.978,517440.934,528307.548,528309.10000014,2023-12-02T08:35:37Z,528324.316,NULL,Fleisch,mshakiki,d,NA,NA,NA,NA,sdf,NA,2,NA,NA,NA,NA,NA,NA,NA,NA,NA,NA,NA,NA,NA,NA,NA,NA,NA,NA,NA
d6572,deep,flow.Sequence,3_0_2_0_1_0,NA,NA,skipped,NA,528309.20000005,NA,NA,528307.548,528309.20000005,2023-12-02T08:35:37Z,528324.316,NULL,Genehmigung,idhini,s,mwanamke,itikadi,fedheha,NA,sdf,NA,2,NA,NA,NA,NA,NA,NA,NA,NA,NA,NA,NA,NA,NA,NA,NA,NA,NA,NA,NA
d6572,Shallow Question,html.Page,3_0_2_0_1_1_0,NA,NA,form submission,5486.8840000477,528309.4000001,528307.548,528324.316,533811.20000005,533811.5,2023-12-02T08:35:43Z,533824.268,NULL,Genehmigung,idhini,s,mwanamke,itikadi,fedheha,idhini,NA,NA,2,NA,NA,NA,NA,NA,NA,NA,NA,NA,NA,NA,NA,NA,NA,NA,NA,NA,NA,NA
d6572,"""Richtig""-Screen",canvas.Screen,3_0_2_0_1_1_1,NA,NA,timeout,5000.0649999999,533813.20000005,533807.473,533824.268,538807.607,538808.4000001,2023-12-02T08:35:48Z,538824.333,NULL,Genehmigung,idhini,s,mwanamke,itikadi,fedheha,NA,sdf,1,2,NA,NA,NA,NA,NA,NA,NA,NA,NA,NA,NA,NA,NA,NA,NA,NA,NA,NA,NA
d6572,"""Falsch""-Screen",canvas.Screen,3_0_2_0_1_1_2,NA,NA,skipped,NA,538812.30000019,NA,NA,538807.607,538812.5,2023-12-02T08:35:48Z,538824.333,NULL,Genehmigung,idhini,s,mwanamke,itikadi,fedheha,NA,sdf,NA,2,NA,NA,NA,NA,NA,NA,NA,NA,NA,NA,NA,NA,NA,NA,NA,NA,NA,NA,NA
d6572,shallow,flow.Sequence,3_0_2_0_1_1,NA,NA,completion,10483.291,528309.30000019,528307.548,528324.316,538807.607,538812.70000005,2023-12-02T08:35:48Z,538824.333,NULL,Genehmigung,idhini,s,mwanamke,itikadi,fedheha,NA,sdf,NA,2,NA,NA,NA,NA,NA,NA,NA,NA,NA,NA,NA,NA,NA,NA,NA,NA,NA,NA,NA
d6572,task,flow.Sequence,3_0_2_0_1,NA,NA,completion,10483.291,528309.10000014,528307.548,528324.316,538807.607,538812.9000001,2023-12-02T08:35:48Z,538824.333,NULL,Genehmigung,idhini,s,mwanamke,itikadi,fedheha,NA,sdf,NA,2,NA,NA,NA,NA,NA,NA,NA,NA,NA,NA,NA,NA,NA,NA,NA,NA,NA,NA,NA
d6572,Deep Question,html.Page,3_0_2_0_2_0_0,NA,NA,form submission,6042.8670000477,538813.10000014,538807.607,538824.333,544867.20000005,544867.5,2023-12-02T08:35:54Z,544874.046,NULL,Integrität,uadilifu,d,NA,NA,NA,mshakiki,NA,NA,2,NA,NA,NA,NA,NA,NA,NA,NA,NA,NA,NA,NA,NA,NA,NA,NA,NA,NA,NA
d6572,"""Richtig""-Screen",canvas.Screen,3_0_2_0_2_0_1,NA,NA,skipped,NA,544869.10000014,NA,NA,544867.20000005,544869.30000019,2023-12-02T08:35:54Z,544874.046,NULL,Integrität,uadilifu,d,NA,NA,NA,NA,sdf,NA,2,NA,NA,NA,NA,NA,NA,NA,NA,NA,NA,NA,NA,NA,NA,NA,NA,NA,NA,NA
d6572,"""Falsch""-Screen",canvas.Screen,3_0_2_0_2_0_2,NA,NA,timeout,5000.1880000001,544869.70000005,544857.513,544874.046,549857.602,549858.60000014,2023-12-02T08:35:59Z,549874.234,NULL,Integrität,uadilifu,d,NA,NA,NA,NA,sdf,0,2,NA,NA,NA,NA,NA,NA,NA,NA,NA,NA,NA,NA,NA,NA,NA,NA,NA,NA,NA
d6572,deep,flow.Sequence,3_0_2_0_2_0,NA,NA,completion,11033.269,538813.10000014,538807.607,538824.333,549857.602,549858.9000001,2023-12-02T08:35:59Z,549874.234,NULL,Integrität,uadilifu,d,NA,NA,NA,NA,sdf,NA,2,NA,NA,NA,NA,NA,NA,NA,NA,NA,NA,NA,NA,NA,NA,NA,NA,NA,NA,NA
d6572,shallow,flow.Sequence,3_0_2_0_2_1,NA,NA,skipped,NA,549858.9000001,NA,NA,549857.602,549859,2023-12-02T08:35:59Z,549874.234,NULL,Integrität,uadilifu,d,NA,NA,NA,NA,sdf,NA,2,NA,NA,NA,NA,NA,NA,NA,NA,NA,NA,NA,NA,NA,NA,NA,NA,NA,NA,NA
d6572,task,flow.Sequence,3_0_2_0_2,NA,NA,completion,11033.269,538812.9000001,538807.607,538824.333,549857.602,549859.20000005,2023-12-02T08:35:59Z,549874.234,NULL,Integrität,uadilifu,d,NA,NA,NA,NA,sdf,NA,2,NA,NA,NA,NA,NA,NA,NA,NA,NA,NA,NA,NA,NA,NA,NA,NA,NA,NA,NA
d6572,Deep Question,html.Page,3_0_2_0_3_0_0,NA,NA,form submission,5328.9660000476,549859.4000001,549857.602,549874.234,555203.20000005,555203.5,2023-12-02T08:36:04Z,555207.471,NULL,Inhalt,yaliyomo,d,NA,NA,NA,uhimi,NA,NA,2,NA,NA,NA,NA,NA,NA,NA,NA,NA,NA,NA,NA,NA,NA,NA,NA,NA,NA,NA
d6572,"""Richtig""-Screen",canvas.Screen,3_0_2_0_3_0_1,NA,NA,skipped,NA,555205.20000005,NA,NA,555203.20000005,555205.30000019,2023-12-02T08:36:04Z,555207.471,NULL,Inhalt,yaliyomo,d,NA,NA,NA,NA,sdf,NA,2,NA,NA,NA,NA,NA,NA,NA,NA,NA,NA,NA,NA,NA,NA,NA,NA,NA,NA,NA
d6572,"""Falsch""-Screen",canvas.Screen,3_0_2_0_3_0_2,NA,NA,timeout,5000.1749999999,555205.80000019,555190.93,555207.471,560190.936,560191.60000014,2023-12-02T08:36:09Z,560207.646,NULL,Inhalt,yaliyomo,d,NA,NA,NA,NA,sdf,0,2,NA,NA,NA,NA,NA,NA,NA,NA,NA,NA,NA,NA,NA,NA,NA,NA,NA,NA,NA
d6572,deep,flow.Sequence,3_0_2_0_3_0,NA,NA,completion,10316.702,549859.4000001,549857.602,549874.234,560190.936,560192,2023-12-02T08:36:09Z,560207.646,NULL,Inhalt,yaliyomo,d,NA,NA,NA,NA,sdf,NA,2,NA,NA,NA,NA,NA,NA,NA,NA,NA,NA,NA,NA,NA,NA,NA,NA,NA,NA,NA
d6572,shallow,flow.Sequence,3_0_2_0_3_1,NA,NA,skipped,NA,560192.20000005,NA,NA,560190.936,560192.20000005,2023-12-02T08:36:09Z,560207.646,NULL,Inhalt,yaliyomo,d,NA,NA,NA,NA,sdf,NA,2,NA,NA,NA,NA,NA,NA,NA,NA,NA,NA,NA,NA,NA,NA,NA,NA,NA,NA,NA
d6572,task,flow.Sequence,3_0_2_0_3,NA,NA,completion,10316.702,549859.30000019,549857.602,549874.234,560190.936,560192.4000001,2023-12-02T08:36:09Z,560207.646,NULL,Inhalt,yaliyomo,d,NA,NA,NA,NA,sdf,NA,2,NA,NA,NA,NA,NA,NA,NA,NA,NA,NA,NA,NA,NA,NA,NA,NA,NA,NA,NA
d6572,deep,flow.Sequence,3_0_2_0_4_0,NA,NA,skipped,NA,560192.5,NA,NA,560190.936,560192.60000014,2023-12-02T08:36:09Z,560207.646,NULL,Begegnung,kukutana,s,mmasihiya,mpiganaji,husiano,NA,sdf,NA,2,NA,NA,NA,NA,NA,NA,NA,NA,NA,NA,NA,NA,NA,NA,NA,NA,NA,NA,NA
d6572,Shallow Question,html.Page,3_0_2_0_4_1_0,NA,NA,form submission,5243.4540001431,560192.70000005,560190.936,560207.646,565451.10000014,565451.30000019,2023-12-02T08:36:15Z,565457.38,NULL,Begegnung,kukutana,s,mmasihiya,mpiganaji,husiano,kukutana,NA,NA,2,NA,NA,NA,NA,NA,NA,NA,NA,NA,NA,NA,NA,NA,NA,NA,NA,NA,NA,NA
d6572,"""Richtig""-Screen",canvas.Screen,3_0_2_0_4_1_1,NA,NA,timeout,5000.173,565453.10000014,565440.927,565457.38,570440.929,570441.60000014,2023-12-02T08:36:20Z,570457.553,NULL,Begegnung,kukutana,s,mmasihiya,mpiganaji,husiano,NA,sdf,1,2,NA,NA,NA,NA,NA,NA,NA,NA,NA,NA,NA,NA,NA,NA,NA,NA,NA,NA,NA
d6572,"""Falsch""-Screen",canvas.Screen,3_0_2_0_4_1_2,NA,NA,skipped,NA,570446,NA,NA,570440.929,570446.30000019,2023-12-02T08:36:20Z,570457.553,NULL,Begegnung,kukutana,s,mmasihiya,mpiganaji,husiano,NA,sdf,NA,2,NA,NA,NA,NA,NA,NA,NA,NA,NA,NA,NA,NA,NA,NA,NA,NA,NA,NA,NA
d6572,shallow,flow.Sequence,3_0_2_0_4_1,NA,NA,completion,10233.283,560192.70000005,560190.936,560207.646,570440.929,570446.4000001,2023-12-02T08:36:20Z,570457.553,NULL,Begegnung,kukutana,s,mmasihiya,mpiganaji,husiano,NA,sdf,NA,2,NA,NA,NA,NA,NA,NA,NA,NA,NA,NA,NA,NA,NA,NA,NA,NA,NA,NA,NA
d6572,task,flow.Sequence,3_0_2_0_4,NA,NA,completion,10233.283,560192.5,560190.936,560207.646,570440.929,570446.60000014,2023-12-02T08:36:20Z,570457.553,NULL,Begegnung,kukutana,s,mmasihiya,mpiganaji,husiano,NA,sdf,NA,2,NA,NA,NA,NA,NA,NA,NA,NA,NA,NA,NA,NA,NA,NA,NA,NA,NA,NA,NA
d6572,deep,flow.Sequence,3_0_2_0_5_0,NA,NA,skipped,NA,570446.80000019,NA,NA,570440.929,570446.80000019,2023-12-02T08:36:20Z,570457.553,NULL,Toleranz,kuvumiliana,s,maombolezo,ujasusi,mchekeshaji,NA,sdf,NA,2,NA,NA,NA,NA,NA,NA,NA,NA,NA,NA,NA,NA,NA,NA,NA,NA,NA,NA,NA
d6572,Shallow Question,html.Page,3_0_2_0_5_1_0,NA,NA,form submission,4457.6470000477,570447,570440.929,570457.553,574915.20000005,574915.30000019,2023-12-02T08:36:24Z,574924.091,NULL,Toleranz,kuvumiliana,s,maombolezo,ujasusi,mchekeshaji,kuvumiliana,NA,NA,2,NA,NA,NA,NA,NA,NA,NA,NA,NA,NA,NA,NA,NA,NA,NA,NA,NA,NA,NA
d6572,"""Richtig""-Screen",canvas.Screen,3_0_2_0_5_1_1,NA,NA,timeout,5000.095,574917,574907.586,574924.091,579907.597,579908.20000005,2023-12-02T08:36:29Z,579924.186,NULL,Toleranz,kuvumiliana,s,maombolezo,ujasusi,mchekeshaji,NA,sdf,1,2,NA,NA,NA,NA,NA,NA,NA,NA,NA,NA,NA,NA,NA,NA,NA,NA,NA,NA,NA
d6572,"""Falsch""-Screen",canvas.Screen,3_0_2_0_5_1_2,NA,NA,skipped,NA,579912.20000005,NA,NA,579907.597,579912.5,2023-12-02T08:36:29Z,579924.186,NULL,Toleranz,kuvumiliana,s,maombolezo,ujasusi,mchekeshaji,NA,sdf,NA,2,NA,NA,NA,NA,NA,NA,NA,NA,NA,NA,NA,NA,NA,NA,NA,NA,NA,NA,NA
d6572,shallow,flow.Sequence,3_0_2_0_5_1,NA,NA,completion,9450.044,570446.9000001,570440.929,570457.553,579907.597,579912.70000005,2023-12-02T08:36:29Z,579924.186,NULL,Toleranz,kuvumiliana,s,maombolezo,ujasusi,mchekeshaji,NA,sdf,NA,2,NA,NA,NA,NA,NA,NA,NA,NA,NA,NA,NA,NA,NA,NA,NA,NA,NA,NA,NA
d6572,task,flow.Sequence,3_0_2_0_5,NA,NA,completion,9450.044,570446.80000019,570440.929,570457.553,579907.597,579912.9000001,2023-12-02T08:36:29Z,579924.186,NULL,Toleranz,kuvumiliana,s,maombolezo,ujasusi,mchekeshaji,NA,sdf,NA,2,NA,NA,NA,NA,NA,NA,NA,NA,NA,NA,NA,NA,NA,NA,NA,NA,NA,NA,NA
d6572,deep,flow.Sequence,3_0_2_0_6_0,NA,NA,skipped,NA,579913.10000014,NA,NA,579907.597,579913.10000014,2023-12-02T08:36:29Z,579924.186,NULL,Schlange,foleni,s,uvumilivu,uteuzi,muuzaji,NA,sdf,NA,2,NA,NA,NA,NA,NA,NA,NA,NA,NA,NA,NA,NA,NA,NA,NA,NA,NA,NA,NA
d6572,Shallow Question,html.Page,3_0_2_0_6_1_0,NA,NA,form submission,2110.814,579913.20000005,579907.597,579924.186,582035,582035.20000005,2023-12-02T08:36:31Z,582040.731,NULL,Schlange,foleni,s,uvumilivu,uteuzi,muuzaji,foleni,NA,NA,2,NA,NA,NA,NA,NA,NA,NA,NA,NA,NA,NA,NA,NA,NA,NA,NA,NA,NA,NA
d6572,"""Richtig""-Screen",canvas.Screen,3_0_2_0_6_1_1,NA,NA,timeout,5000.225,582035.9000001,582024.144,582040.731,587024.262,587024.9000001,2023-12-02T08:36:36Z,587040.956,NULL,Schlange,foleni,s,uvumilivu,uteuzi,muuzaji,NA,sdf,1,2,NA,NA,NA,NA,NA,NA,NA,NA,NA,NA,NA,NA,NA,NA,NA,NA,NA,NA,NA
d6572,"""Falsch""-Screen",canvas.Screen,3_0_2_0_6_1_2,NA,NA,skipped,NA,587028.80000019,NA,NA,587024.262,587029.10000014,2023-12-02T08:36:36Z,587040.956,NULL,Schlange,foleni,s,uvumilivu,uteuzi,muuzaji,NA,sdf,NA,2,NA,NA,NA,NA,NA,NA,NA,NA,NA,NA,NA,NA,NA,NA,NA,NA,NA,NA,NA
d6572,shallow,flow.Sequence,3_0_2_0_6_1,NA,NA,completion,7100.076,579913.20000005,579907.597,579924.186,587024.262,587029.20000005,2023-12-02T08:36:36Z,587040.956,NULL,Schlange,foleni,s,uvumilivu,uteuzi,muuzaji,NA,sdf,NA,2,NA,NA,NA,NA,NA,NA,NA,NA,NA,NA,NA,NA,NA,NA,NA,NA,NA,NA,NA
d6572,task,flow.Sequence,3_0_2_0_6,NA,NA,completion,7100.076,579912.9000001,579907.597,579924.186,587024.262,587029.30000019,2023-12-02T08:36:36Z,587040.956,NULL,Schlange,foleni,s,uvumilivu,uteuzi,muuzaji,NA,sdf,NA,2,NA,NA,NA,NA,NA,NA,NA,NA,NA,NA,NA,NA,NA,NA,NA,NA,NA,NA,NA
d6572,Deep Question,html.Page,3_0_2_0_7_0_0,NA,NA,form submission,15122.344000191,587029.60000014,587024.262,587040.956,602163.30000019,602163.60000014,2023-12-02T08:36:51Z,602174.123,NULL,Vermutung,udhanifu,d,NA,NA,NA,mshakiki,NA,NA,2,NA,NA,NA,NA,NA,NA,NA,NA,NA,NA,NA,NA,NA,NA,NA,NA,NA,NA,NA
d6572,"""Richtig""-Screen",canvas.Screen,3_0_2_0_7_0_1,NA,NA,skipped,NA,602165.20000005,NA,NA,602163.30000019,602165.4000001,2023-12-02T08:36:51Z,602174.123,NULL,Vermutung,udhanifu,d,NA,NA,NA,NA,sdf,NA,2,NA,NA,NA,NA,NA,NA,NA,NA,NA,NA,NA,NA,NA,NA,NA,NA,NA,NA,NA
d6572,"""Falsch""-Screen",canvas.Screen,3_0_2_0_7_0_2,NA,NA,timeout,5000.123,602166,602157.641,602174.123,607157.619,607158.4000001,2023-12-02T08:36:56Z,607174.246,NULL,Vermutung,udhanifu,d,NA,NA,NA,NA,sdf,0,2,NA,NA,NA,NA,NA,NA,NA,NA,NA,NA,NA,NA,NA,NA,NA,NA,NA,NA,NA
d6572,deep,flow.Sequence,3_0_2_0_7_0,NA,NA,completion,20116.663,587029.5,587024.262,587040.956,607157.619,607158.80000019,2023-12-02T08:36:56Z,607174.246,NULL,Vermutung,udhanifu,d,NA,NA,NA,NA,sdf,NA,2,NA,NA,NA,NA,NA,NA,NA,NA,NA,NA,NA,NA,NA,NA,NA,NA,NA,NA,NA
d6572,shallow,flow.Sequence,3_0_2_0_7_1,NA,NA,skipped,NA,607159,NA,NA,607157.619,607159.10000014,2023-12-02T08:36:56Z,607174.246,NULL,Vermutung,udhanifu,d,NA,NA,NA,NA,sdf,NA,2,NA,NA,NA,NA,NA,NA,NA,NA,NA,NA,NA,NA,NA,NA,NA,NA,NA,NA,NA
d6572,task,flow.Sequence,3_0_2_0_7,NA,NA,completion,20116.663,587029.5,587024.262,587040.956,607157.619,607159.30000019,2023-12-02T08:36:56Z,607174.246,NULL,Vermutung,udhanifu,d,NA,NA,NA,NA,sdf,NA,2,NA,NA,NA,NA,NA,NA,NA,NA,NA,NA,NA,NA,NA,NA,NA,NA,NA,NA,NA
d6572,block,flow.Loop,3_0_2_0,NA,NA,completion,89716.685,517429.10000014,517424.978,517440.934,607157.619,607159.4000001,2023-12-02T08:36:56Z,607174.246,NULL,NA,NA,NA,NA,NA,NA,NA,sdf,NA,2,NA,NA,NA,NA,NA,NA,NA,NA,NA,NA,NA,NA,NA,NA,NA,NA,NA,NA,NA
d6572,weiter,canvas.Screen,3_0_2_1,sdf,keypress(Space),response,1284.354000143,607159.5,607157.619,607174.246,608458.60000014,608459.5,2023-12-02T08:36:58Z,608524.078,NULL,NA,NA,NA,NA,NA,NA,NA,sdf,NA,2,NA,NA,NA,NA,NA,NA,NA,NA,NA,NA,NA,NA,NA,NA,NA,NA,NA,NA,NA
d6572,check continue,flow.Sequence,3_0_2,NA,NA,completion,91017.666000143,517429.10000014,517424.978,517440.934,608458.60000014,608459.70000005,2023-12-02T08:36:58Z,608524.078,NULL,NA,NA,NA,NA,NA,NA,NA,sdf,NA,2,NA,NA,NA,NA,NA,NA,NA,NA,NA,NA,NA,NA,NA,NA,NA,NA,NA,NA,NA
d6572,deep,flow.Sequence,3_0_3_0_0_0,NA,NA,skipped,NA,608512.4000001,NA,NA,608458.60000014,608512.5,2023-12-02T08:36:58Z,608524.078,NULL,Genehmigung,idhini,s,mwanamke,itikadi,fedheha,NA,qt,NA,3,NA,NA,NA,NA,NA,NA,NA,NA,NA,NA,NA,NA,NA,NA,NA,NA,NA,NA,NA
d6572,Shallow Question,html.Page,3_0_3_0_0_1_0,NA,NA,form submission,8071.1220000477,608512.60000014,608507.528,608524.078,616595.20000005,616595.5,2023-12-02T08:37:06Z,616607.445,NULL,Genehmigung,idhini,s,mwanamke,itikadi,fedheha,idhini,NA,NA,3,NA,NA,NA,NA,NA,NA,NA,NA,NA,NA,NA,NA,NA,NA,NA,NA,NA,NA,NA
d6572,"""Richtig""-Screen",canvas.Screen,3_0_3_0_0_1_1,NA,NA,timeout,5000.147,616597.20000005,616590.781,616607.445,621590.919,621591.5,2023-12-02T08:37:11Z,621607.592,NULL,Genehmigung,idhini,s,mwanamke,itikadi,fedheha,NA,qt,1,3,NA,NA,NA,NA,NA,NA,NA,NA,NA,NA,NA,NA,NA,NA,NA,NA,NA,NA,NA
d6572,"""Falsch""-Screen",canvas.Screen,3_0_3_0_0_1_2,NA,NA,skipped,NA,621595.5,NA,NA,621590.919,621595.80000019,2023-12-02T08:37:11Z,621607.592,NULL,Genehmigung,idhini,s,mwanamke,itikadi,fedheha,NA,qt,NA,3,NA,NA,NA,NA,NA,NA,NA,NA,NA,NA,NA,NA,NA,NA,NA,NA,NA,NA,NA
d6572,shallow,flow.Sequence,3_0_3_0_0_1,NA,NA,completion,13066.841,608512.5,608507.528,608524.078,621590.919,621596,2023-12-02T08:37:11Z,621607.592,NULL,Genehmigung,idhini,s,mwanamke,itikadi,fedheha,NA,qt,NA,3,NA,NA,NA,NA,NA,NA,NA,NA,NA,NA,NA,NA,NA,NA,NA,NA,NA,NA,NA
d6572,task,flow.Sequence,3_0_3_0_0,NA,NA,completion,13066.841,608512.4000001,608507.528,608524.078,621590.919,621596.20000005,2023-12-02T08:37:11Z,621607.592,NULL,Genehmigung,idhini,s,mwanamke,itikadi,fedheha,NA,qt,NA,3,NA,NA,NA,NA,NA,NA,NA,NA,NA,NA,NA,NA,NA,NA,NA,NA,NA,NA,NA
d6572,Deep Question,html.Page,3_0_3_0_1_0_0,NA,NA,form submission,5779.7080001908,621596.4000001,621590.919,621607.592,627387.30000019,627387.5,2023-12-02T08:37:16Z,627407.625,NULL,Integrität,uadilifu,d,NA,NA,NA,ushikasmi,NA,NA,3,NA,NA,NA,NA,NA,NA,NA,NA,NA,NA,NA,NA,NA,NA,NA,NA,NA,NA,NA
d6572,"""Richtig""-Screen",canvas.Screen,3_0_3_0_1_0_1,NA,NA,skipped,NA,627389,NA,NA,627387.30000019,627389.20000005,2023-12-02T08:37:17Z,627407.625,NULL,Integrität,uadilifu,d,NA,NA,NA,NA,qt,NA,3,NA,NA,NA,NA,NA,NA,NA,NA,NA,NA,NA,NA,NA,NA,NA,NA,NA,NA,NA
d6572,"""Falsch""-Screen",canvas.Screen,3_0_3_0_1_0_2,NA,NA,timeout,4999.995,627389.70000005,627390.767,627407.625,632390.92,632391.5,2023-12-02T08:37:22Z,632407.62,NULL,Integrität,uadilifu,d,NA,NA,NA,NA,qt,0,3,NA,NA,NA,NA,NA,NA,NA,NA,NA,NA,NA,NA,NA,NA,NA,NA,NA,NA,NA
d6572,deep,flow.Sequence,3_0_3_0_1_0,NA,NA,completion,10783.328,621596.30000019,621590.919,621607.592,632390.92,632391.70000005,2023-12-02T08:37:22Z,632407.62,NULL,Integrität,uadilifu,d,NA,NA,NA,NA,qt,NA,3,NA,NA,NA,NA,NA,NA,NA,NA,NA,NA,NA,NA,NA,NA,NA,NA,NA,NA,NA
d6572,shallow,flow.Sequence,3_0_3_0_1_1,NA,NA,skipped,NA,632391.9000001,NA,NA,632390.92,632392,2023-12-02T08:37:22Z,632407.62,NULL,Integrität,uadilifu,d,NA,NA,NA,NA,qt,NA,3,NA,NA,NA,NA,NA,NA,NA,NA,NA,NA,NA,NA,NA,NA,NA,NA,NA,NA,NA
d6572,task,flow.Sequence,3_0_3_0_1,NA,NA,completion,10783.328,621596.30000019,621590.919,621607.592,632390.92,632392.10000014,2023-12-02T08:37:22Z,632407.62,NULL,Integrität,uadilifu,d,NA,NA,NA,NA,qt,NA,3,NA,NA,NA,NA,NA,NA,NA,NA,NA,NA,NA,NA,NA,NA,NA,NA,NA,NA,NA
d6572,deep,flow.Sequence,3_0_3_0_2_0,NA,NA,skipped,NA,632392.30000019,NA,NA,632390.92,632392.4000001,2023-12-02T08:37:22Z,632407.62,NULL,Begegnung,kukutana,s,mmasihiya,mpiganaji,husiano,NA,qt,NA,3,NA,NA,NA,NA,NA,NA,NA,NA,NA,NA,NA,NA,NA,NA,NA,NA,NA,NA,NA
d6572,Shallow Question,html.Page,3_0_3_0_2_1_0,NA,NA,form submission,4723.5800000477,632392.4000001,632390.92,632407.62,637131.20000005,637131.4000001,2023-12-02T08:37:26Z,637140.793,NULL,Begegnung,kukutana,s,mmasihiya,mpiganaji,husiano,kukutana,NA,NA,3,NA,NA,NA,NA,NA,NA,NA,NA,NA,NA,NA,NA,NA,NA,NA,NA,NA,NA,NA
d6572,"""Richtig""-Screen",canvas.Screen,3_0_3_0_2_1_1,NA,NA,timeout,5000.0920000001,637133.10000014,637124.002,637140.793,642124.254,642125.10000014,2023-12-02T08:37:31Z,642140.885,NULL,Begegnung,kukutana,s,mmasihiya,mpiganaji,husiano,NA,qt,1,3,NA,NA,NA,NA,NA,NA,NA,NA,NA,NA,NA,NA,NA,NA,NA,NA,NA,NA,NA
d6572,"""Falsch""-Screen",canvas.Screen,3_0_3_0_2_1_2,NA,NA,skipped,NA,642129.20000005,NA,NA,642124.254,642129.4000001,2023-12-02T08:37:31Z,642140.885,NULL,Begegnung,kukutana,s,mmasihiya,mpiganaji,husiano,NA,qt,NA,3,NA,NA,NA,NA,NA,NA,NA,NA,NA,NA,NA,NA,NA,NA,NA,NA,NA,NA,NA
d6572,shallow,flow.Sequence,3_0_3_0_2_1,NA,NA,completion,9716.634,632392.4000001,632390.92,632407.62,642124.254,642129.60000014,2023-12-02T08:37:31Z,642140.885,NULL,Begegnung,kukutana,s,mmasihiya,mpiganaji,husiano,NA,qt,NA,3,NA,NA,NA,NA,NA,NA,NA,NA,NA,NA,NA,NA,NA,NA,NA,NA,NA,NA,NA
d6572,task,flow.Sequence,3_0_3_0_2,NA,NA,completion,9716.634,632392.20000005,632390.92,632407.62,642124.254,642129.80000019,2023-12-02T08:37:31Z,642140.885,NULL,Begegnung,kukutana,s,mmasihiya,mpiganaji,husiano,NA,qt,NA,3,NA,NA,NA,NA,NA,NA,NA,NA,NA,NA,NA,NA,NA,NA,NA,NA,NA,NA,NA
d6572,Deep Question,html.Page,3_0_3_0_3_0_0,NA,NA,form submission,6886.4150001907,642129.9000001,642124.254,642140.885,649027.30000019,649027.5,2023-12-02T08:37:38Z,649040.755,NULL,Fleisch,mshakiki,d,NA,NA,NA,mshakiki,NA,NA,3,NA,NA,NA,NA,NA,NA,NA,NA,NA,NA,NA,NA,NA,NA,NA,NA,NA,NA,NA
d6572,"""Richtig""-Screen",canvas.Screen,3_0_3_0_3_0_1,NA,NA,timeout,5000.123,649029.10000014,649024.321,649040.755,654024.248,654024.9000001,2023-12-02T08:37:43Z,654040.878,NULL,Fleisch,mshakiki,d,NA,NA,NA,NA,qt,1,3,NA,NA,NA,NA,NA,NA,NA,NA,NA,NA,NA,NA,NA,NA,NA,NA,NA,NA,NA
d6572,"""Falsch""-Screen",canvas.Screen,3_0_3_0_3_0_2,NA,NA,skipped,NA,654029.20000005,NA,NA,654024.248,654029.4000001,2023-12-02T08:37:43Z,654040.878,NULL,Fleisch,mshakiki,d,NA,NA,NA,NA,qt,NA,3,NA,NA,NA,NA,NA,NA,NA,NA,NA,NA,NA,NA,NA,NA,NA,NA,NA,NA,NA
d6572,deep,flow.Sequence,3_0_3_0_3_0,NA,NA,completion,11883.363,642129.9000001,642124.254,642140.885,654024.248,654029.70000005,2023-12-02T08:37:43Z,654040.878,NULL,Fleisch,mshakiki,d,NA,NA,NA,NA,qt,NA,3,NA,NA,NA,NA,NA,NA,NA,NA,NA,NA,NA,NA,NA,NA,NA,NA,NA,NA,NA
d6572,shallow,flow.Sequence,3_0_3_0_3_1,NA,NA,skipped,NA,654029.80000019,NA,NA,654024.248,654029.9000001,2023-12-02T08:37:43Z,654040.878,NULL,Fleisch,mshakiki,d,NA,NA,NA,NA,qt,NA,3,NA,NA,NA,NA,NA,NA,NA,NA,NA,NA,NA,NA,NA,NA,NA,NA,NA,NA,NA
d6572,task,flow.Sequence,3_0_3_0_3,NA,NA,completion,11883.363,642129.9000001,642124.254,642140.885,654024.248,654030,2023-12-02T08:37:43Z,654040.878,NULL,Fleisch,mshakiki,d,NA,NA,NA,NA,qt,NA,3,NA,NA,NA,NA,NA,NA,NA,NA,NA,NA,NA,NA,NA,NA,NA,NA,NA,NA,NA
d6572,Deep Question,html.Page,3_0_3_0_4_0_0,NA,NA,form submission,4994.5220000953,654030.10000014,654024.248,654040.878,659035.4000001,659035.60000014,2023-12-02T08:37:48Z,659040.73,NULL,Inhalt,yaliyomo,d,NA,NA,NA,udalifu,NA,NA,3,NA,NA,NA,NA,NA,NA,NA,NA,NA,NA,NA,NA,NA,NA,NA,NA,NA,NA,NA
d6572,"""Richtig""-Screen",canvas.Screen,3_0_3_0_4_0_1,NA,NA,skipped,NA,659037.20000005,NA,NA,659035.4000001,659037.4000001,2023-12-02T08:37:48Z,659040.73,NULL,Inhalt,yaliyomo,d,NA,NA,NA,NA,qt,NA,3,NA,NA,NA,NA,NA,NA,NA,NA,NA,NA,NA,NA,NA,NA,NA,NA,NA,NA,NA
d6572,"""Falsch""-Screen",canvas.Screen,3_0_3_0_4_0_2,NA,NA,timeout,5000.142,659037.9000001,659024.032,659040.73,664024.241,664024.80000019,2023-12-02T08:37:53Z,664040.872,NULL,Inhalt,yaliyomo,d,NA,NA,NA,NA,qt,0,3,NA,NA,NA,NA,NA,NA,NA,NA,NA,NA,NA,NA,NA,NA,NA,NA,NA,NA,NA
d6572,deep,flow.Sequence,3_0_3_0_4_0,NA,NA,completion,9983.363,654030.10000014,654024.248,654040.878,664024.241,664025.10000014,2023-12-02T08:37:53Z,664040.872,NULL,Inhalt,yaliyomo,d,NA,NA,NA,NA,qt,NA,3,NA,NA,NA,NA,NA,NA,NA,NA,NA,NA,NA,NA,NA,NA,NA,NA,NA,NA,NA
d6572,shallow,flow.Sequence,3_0_3_0_4_1,NA,NA,skipped,NA,664025.20000005,NA,NA,664024.241,664025.30000019,2023-12-02T08:37:53Z,664040.872,NULL,Inhalt,yaliyomo,d,NA,NA,NA,NA,qt,NA,3,NA,NA,NA,NA,NA,NA,NA,NA,NA,NA,NA,NA,NA,NA,NA,NA,NA,NA,NA
d6572,task,flow.Sequence,3_0_3_0_4,NA,NA,completion,9983.363,654030.10000014,654024.248,654040.878,664024.241,664025.4000001,2023-12-02T08:37:53Z,664040.872,NULL,Inhalt,yaliyomo,d,NA,NA,NA,NA,qt,NA,3,NA,NA,NA,NA,NA,NA,NA,NA,NA,NA,NA,NA,NA,NA,NA,NA,NA,NA,NA
d6572,deep,flow.Sequence,3_0_3_0_5_0,NA,NA,skipped,NA,664025.5,NA,NA,664024.241,664025.60000014,2023-12-02T08:37:53Z,664040.872,NULL,Toleranz,kuvumiliana,s,maombolezo,ujasusi,mchekeshaji,NA,qt,NA,3,NA,NA,NA,NA,NA,NA,NA,NA,NA,NA,NA,NA,NA,NA,NA,NA,NA,NA,NA
d6572,Shallow Question,html.Page,3_0_3_0_5_1_0,NA,NA,form submission,3586.2280001431,664025.70000005,664024.241,664040.872,667627.10000014,667627.30000019,2023-12-02T08:37:57Z,667640.894,NULL,Toleranz,kuvumiliana,s,maombolezo,ujasusi,mchekeshaji,kuvumiliana,NA,NA,3,NA,NA,NA,NA,NA,NA,NA,NA,NA,NA,NA,NA,NA,NA,NA,NA,NA,NA,NA
d6572,"""Richtig""-Screen",canvas.Screen,3_0_3_0_5_1_1,NA,NA,timeout,4999.9330000001,667629,667624.161,667640.894,672624.241,672624.9000001,2023-12-02T08:38:02Z,672640.827,NULL,Toleranz,kuvumiliana,s,maombolezo,ujasusi,mchekeshaji,NA,qt,1,3,NA,NA,NA,NA,NA,NA,NA,NA,NA,NA,NA,NA,NA,NA,NA,NA,NA,NA,NA
d6572,"""Falsch""-Screen",canvas.Screen,3_0_3_0_5_1_2,NA,NA,skipped,NA,672628.80000019,NA,NA,672624.241,672629.10000014,2023-12-02T08:38:02Z,672640.827,NULL,Toleranz,kuvumiliana,s,maombolezo,ujasusi,mchekeshaji,NA,qt,NA,3,NA,NA,NA,NA,NA,NA,NA,NA,NA,NA,NA,NA,NA,NA,NA,NA,NA,NA,NA
d6572,shallow,flow.Sequence,3_0_3_0_5_1,NA,NA,completion,8583.3690000001,664025.60000014,664024.241,664040.872,672624.241,672629.30000019,2023-12-02T08:38:02Z,672640.827,NULL,Toleranz,kuvumiliana,s,maombolezo,ujasusi,mchekeshaji,NA,qt,NA,3,NA,NA,NA,NA,NA,NA,NA,NA,NA,NA,NA,NA,NA,NA,NA,NA,NA,NA,NA
d6572,task,flow.Sequence,3_0_3_0_5,NA,NA,completion,8583.3690000001,664025.4000001,664024.241,664040.872,672624.241,672629.4000001,2023-12-02T08:38:02Z,672640.827,NULL,Toleranz,kuvumiliana,s,maombolezo,ujasusi,mchekeshaji,NA,qt,NA,3,NA,NA,NA,NA,NA,NA,NA,NA,NA,NA,NA,NA,NA,NA,NA,NA,NA,NA,NA
d6572,deep,flow.Sequence,3_0_3_0_6_0,NA,NA,skipped,NA,672629.5,NA,NA,672624.241,672629.70000005,2023-12-02T08:38:02Z,672640.827,NULL,Schlange,foleni,s,uvumilivu,uteuzi,muuzaji,NA,qt,NA,3,NA,NA,NA,NA,NA,NA,NA,NA,NA,NA,NA,NA,NA,NA,NA,NA,NA,NA,NA
d6572,Shallow Question,html.Page,3_0_3_0_6_1_0,NA,NA,form submission,2306.5730000953,672629.70000005,672624.241,672640.827,674947.4000001,674947.60000014,2023-12-02T08:38:04Z,674957.524,NULL,Schlange,foleni,s,uvumilivu,uteuzi,muuzaji,foleni,NA,NA,3,NA,NA,NA,NA,NA,NA,NA,NA,NA,NA,NA,NA,NA,NA,NA,NA,NA,NA,NA
d6572,"""Richtig""-Screen",canvas.Screen,3_0_3_0_6_1_1,NA,NA,timeout,5000.0820000001,674948.80000019,674940.783,674957.524,679940.903,679941.60000014,2023-12-02T08:38:09Z,679957.606,NULL,Schlange,foleni,s,uvumilivu,uteuzi,muuzaji,NA,qt,1,3,NA,NA,NA,NA,NA,NA,NA,NA,NA,NA,NA,NA,NA,NA,NA,NA,NA,NA,NA
d6572,"""Falsch""-Screen",canvas.Screen,3_0_3_0_6_1_2,NA,NA,skipped,NA,679945.5,NA,NA,679940.903,679945.80000019,2023-12-02T08:38:09Z,679957.606,NULL,Schlange,foleni,s,uvumilivu,uteuzi,muuzaji,NA,qt,NA,3,NA,NA,NA,NA,NA,NA,NA,NA,NA,NA,NA,NA,NA,NA,NA,NA,NA,NA,NA
d6572,shallow,flow.Sequence,3_0_3_0_6_1,NA,NA,completion,7300.076,672629.70000005,672624.241,672640.827,679940.903,679945.9000001,2023-12-02T08:38:09Z,679957.606,NULL,Schlange,foleni,s,uvumilivu,uteuzi,muuzaji,NA,qt,NA,3,NA,NA,NA,NA,NA,NA,NA,NA,NA,NA,NA,NA,NA,NA,NA,NA,NA,NA,NA
d6572,task,flow.Sequence,3_0_3_0_6,NA,NA,completion,7300.076,672629.5,672624.241,672640.827,679940.903,679946,2023-12-02T08:38:09Z,679957.606,NULL,Schlange,foleni,s,uvumilivu,uteuzi,muuzaji,NA,qt,NA,3,NA,NA,NA,NA,NA,NA,NA,NA,NA,NA,NA,NA,NA,NA,NA,NA,NA,NA,NA
d6572,Deep Question,html.Page,3_0_3_0_7_0_0,NA,NA,form submission,5213.7940000953,679946.30000019,679940.903,679957.606,685171.4000001,685171.60000014,2023-12-02T08:38:14Z,685174.054,NULL,Vermutung,udhanifu,d,NA,NA,NA,yaliyomo,NA,NA,3,NA,NA,NA,NA,NA,NA,NA,NA,NA,NA,NA,NA,NA,NA,NA,NA,NA,NA,NA
d6572,"""Richtig""-Screen",canvas.Screen,3_0_3_0_7_0_1,NA,NA,skipped,NA,685173.20000005,NA,NA,685171.4000001,685173.30000019,2023-12-02T08:38:14Z,685174.054,NULL,Vermutung,udhanifu,d,NA,NA,NA,NA,qt,NA,3,NA,NA,NA,NA,NA,NA,NA,NA,NA,NA,NA,NA,NA,NA,NA,NA,NA,NA,NA
d6572,"""Falsch""-Screen",canvas.Screen,3_0_3_0_7_0_2,NA,NA,timeout,5000.23,685173.70000005,685157.555,685174.054,690157.573,690158.4000001,2023-12-02T08:38:19Z,690174.284,NULL,Vermutung,udhanifu,d,NA,NA,NA,NA,qt,0,3,NA,NA,NA,NA,NA,NA,NA,NA,NA,NA,NA,NA,NA,NA,NA,NA,NA,NA,NA
d6572,deep,flow.Sequence,3_0_3_0_7_0,NA,NA,completion,10199.967,679946.20000005,679940.903,679957.606,690157.573,690158.70000005,2023-12-02T08:38:19Z,690174.284,NULL,Vermutung,udhanifu,d,NA,NA,NA,NA,qt,NA,3,NA,NA,NA,NA,NA,NA,NA,NA,NA,NA,NA,NA,NA,NA,NA,NA,NA,NA,NA
d6572,shallow,flow.Sequence,3_0_3_0_7_1,NA,NA,skipped,NA,690158.80000019,NA,NA,690157.573,690158.9000001,2023-12-02T08:38:19Z,690174.284,NULL,Vermutung,udhanifu,d,NA,NA,NA,NA,qt,NA,3,NA,NA,NA,NA,NA,NA,NA,NA,NA,NA,NA,NA,NA,NA,NA,NA,NA,NA,NA
d6572,task,flow.Sequence,3_0_3_0_7,NA,NA,completion,10199.967,679946.20000005,679940.903,679957.606,690157.573,690159.10000014,2023-12-02T08:38:19Z,690174.284,NULL,Vermutung,udhanifu,d,NA,NA,NA,NA,qt,NA,3,NA,NA,NA,NA,NA,NA,NA,NA,NA,NA,NA,NA,NA,NA,NA,NA,NA,NA,NA
d6572,block,flow.Loop,3_0_3_0,NA,NA,completion,81633.495,608512.4000001,608507.528,608524.078,690157.573,690159.20000005,2023-12-02T08:38:19Z,690174.284,NULL,NA,NA,NA,NA,NA,NA,NA,qt,NA,3,NA,NA,NA,NA,NA,NA,NA,NA,NA,NA,NA,NA,NA,NA,NA,NA,NA,NA,NA
d6572,weiter,canvas.Screen,3_0_3_1,sdf,keypress(Space),response,1148.5160001907,690159.30000019,690157.573,690174.284,691322.80000019,691323.70000005,2023-12-02T08:38:20Z,691390.769,NULL,NA,NA,NA,NA,NA,NA,NA,qt,NA,3,NA,NA,NA,NA,NA,NA,NA,NA,NA,NA,NA,NA,NA,NA,NA,NA,NA,NA,NA
d6572,check continue,flow.Sequence,3_0_3,NA,NA,completion,82798.722000191,608512.30000019,608507.528,608524.078,691322.80000019,691323.9000001,2023-12-02T08:38:20Z,691390.769,NULL,NA,NA,NA,NA,NA,NA,NA,qt,NA,3,NA,NA,NA,NA,NA,NA,NA,NA,NA,NA,NA,NA,NA,NA,NA,NA,NA,NA,NA
d6572,deep,flow.Sequence,3_0_4_0_0_0,NA,NA,skipped,NA,691378.70000005,NA,NA,691322.80000019,691378.9000001,2023-12-02T08:38:20Z,691390.769,NULL,Genehmigung,idhini,s,mwanamke,itikadi,fedheha,NA,sd,NA,4,NA,NA,NA,NA,NA,NA,NA,NA,NA,NA,NA,NA,NA,NA,NA,NA,NA,NA,NA
d6572,Shallow Question,html.Page,3_0_4_0_0_1_0,NA,NA,form submission,4500.4310000477,691379.10000014,691374.527,691390.769,695891.20000005,695891.4000001,2023-12-02T08:38:25Z,695907.605,NULL,Genehmigung,idhini,s,mwanamke,itikadi,fedheha,idhini,NA,NA,4,NA,NA,NA,NA,NA,NA,NA,NA,NA,NA,NA,NA,NA,NA,NA,NA,NA,NA,NA
d6572,"""Richtig""-Screen",canvas.Screen,3_0_4_0_0_1_1,NA,NA,timeout,4999.926,695893,695874.339,695907.605,700890.914,700891.80000019,2023-12-02T08:38:30Z,700907.531,NULL,Genehmigung,idhini,s,mwanamke,itikadi,fedheha,NA,sd,1,4,NA,NA,NA,NA,NA,NA,NA,NA,NA,NA,NA,NA,NA,NA,NA,NA,NA,NA,NA
d6572,"""Falsch""-Screen",canvas.Screen,3_0_4_0_0_1_2,NA,NA,skipped,NA,700895.80000019,NA,NA,700890.914,700896.10000014,2023-12-02T08:38:30Z,700907.531,NULL,Genehmigung,idhini,s,mwanamke,itikadi,fedheha,NA,sd,NA,4,NA,NA,NA,NA,NA,NA,NA,NA,NA,NA,NA,NA,NA,NA,NA,NA,NA,NA,NA
d6572,shallow,flow.Sequence,3_0_4_0_0_1,NA,NA,completion,9500.145,691379.10000014,691374.527,691390.769,700890.914,700896.30000019,2023-12-02T08:38:30Z,700907.531,NULL,Genehmigung,idhini,s,mwanamke,itikadi,fedheha,NA,sd,NA,4,NA,NA,NA,NA,NA,NA,NA,NA,NA,NA,NA,NA,NA,NA,NA,NA,NA,NA,NA
d6572,task,flow.Sequence,3_0_4_0_0,NA,NA,completion,9500.145,691378.70000005,691374.527,691390.769,700890.914,700896.4000001,2023-12-02T08:38:30Z,700907.531,NULL,Genehmigung,idhini,s,mwanamke,itikadi,fedheha,NA,sd,NA,4,NA,NA,NA,NA,NA,NA,NA,NA,NA,NA,NA,NA,NA,NA,NA,NA,NA,NA,NA
d6572,Deep Question,html.Page,3_0_4_0_1_0_0,NA,NA,form submission,5607.5690001431,700896.60000014,700890.914,700907.531,706515.10000014,706515.30000019,2023-12-02T08:38:36Z,706524.053,NULL,Vermutung,udhanifu,d,NA,NA,NA,yaliyomo,NA,NA,4,NA,NA,NA,NA,NA,NA,NA,NA,NA,NA,NA,NA,NA,NA,NA,NA,NA,NA,NA
d6572,"""Richtig""-Screen",canvas.Screen,3_0_4_0_1_0_1,NA,NA,skipped,NA,706517,NA,NA,706515.10000014,706517.10000014,2023-12-02T08:38:36Z,706524.053,NULL,Vermutung,udhanifu,d,NA,NA,NA,NA,sd,NA,4,NA,NA,NA,NA,NA,NA,NA,NA,NA,NA,NA,NA,NA,NA,NA,NA,NA,NA,NA
d6572,"""Falsch""-Screen",canvas.Screen,3_0_4_0_1_0_2,NA,NA,timeout,5000.2290000001,706517.60000014,706507.617,706524.053,711507.566,711508.30000019,2023-12-02T08:38:41Z,711524.282,NULL,Vermutung,udhanifu,d,NA,NA,NA,NA,sd,0,4,NA,NA,NA,NA,NA,NA,NA,NA,NA,NA,NA,NA,NA,NA,NA,NA,NA,NA,NA
d6572,deep,flow.Sequence,3_0_4_0_1_0,NA,NA,completion,10600.035,700896.5,700890.914,700907.531,711507.566,711508.60000014,2023-12-02T08:38:41Z,711524.282,NULL,Vermutung,udhanifu,d,NA,NA,NA,NA,sd,NA,4,NA,NA,NA,NA,NA,NA,NA,NA,NA,NA,NA,NA,NA,NA,NA,NA,NA,NA,NA
d6572,shallow,flow.Sequence,3_0_4_0_1_1,NA,NA,skipped,NA,711508.70000005,NA,NA,711507.566,711508.80000019,2023-12-02T08:38:41Z,711524.282,NULL,Vermutung,udhanifu,d,NA,NA,NA,NA,sd,NA,4,NA,NA,NA,NA,NA,NA,NA,NA,NA,NA,NA,NA,NA,NA,NA,NA,NA,NA,NA
d6572,task,flow.Sequence,3_0_4_0_1,NA,NA,completion,10600.035,700896.5,700890.914,700907.531,711507.566,711508.9000001,2023-12-02T08:38:41Z,711524.282,NULL,Vermutung,udhanifu,d,NA,NA,NA,NA,sd,NA,4,NA,NA,NA,NA,NA,NA,NA,NA,NA,NA,NA,NA,NA,NA,NA,NA,NA,NA,NA
d6572,Deep Question,html.Page,3_0_4_0_2_0_0,NA,NA,form submission,5038.9180000477,711509.10000014,711507.566,711524.282,716563.20000005,716563.4000001,2023-12-02T08:38:46Z,716574.143,NULL,Integrität,uadilifu,d,NA,NA,NA,yaliyomo,NA,NA,4,NA,NA,NA,NA,NA,NA,NA,NA,NA,NA,NA,NA,NA,NA,NA,NA,NA,NA,NA
d6572,"""Richtig""-Screen",canvas.Screen,3_0_4_0_2_0_1,NA,NA,skipped,NA,716565.10000014,NA,NA,716563.20000005,716565.20000005,2023-12-02T08:38:46Z,716574.143,NULL,Integrität,uadilifu,d,NA,NA,NA,NA,sd,NA,4,NA,NA,NA,NA,NA,NA,NA,NA,NA,NA,NA,NA,NA,NA,NA,NA,NA,NA,NA
d6572,"""Falsch""-Screen",canvas.Screen,3_0_4_0_2_0_2,NA,NA,timeout,5000.1379999999,716565.80000019,716557.578,716574.143,721557.57,721558.4000001,2023-12-02T08:38:51Z,721574.281,NULL,Integrität,uadilifu,d,NA,NA,NA,NA,sd,0,4,NA,NA,NA,NA,NA,NA,NA,NA,NA,NA,NA,NA,NA,NA,NA,NA,NA,NA,NA
d6572,deep,flow.Sequence,3_0_4_0_2_0,NA,NA,completion,10033.288,711509,711507.566,711524.282,721557.57,721558.60000014,2023-12-02T08:38:51Z,721574.281,NULL,Integrität,uadilifu,d,NA,NA,NA,NA,sd,NA,4,NA,NA,NA,NA,NA,NA,NA,NA,NA,NA,NA,NA,NA,NA,NA,NA,NA,NA,NA
d6572,shallow,flow.Sequence,3_0_4_0_2_1,NA,NA,skipped,NA,721558.80000019,NA,NA,721557.57,721558.9000001,2023-12-02T08:38:51Z,721574.281,NULL,Integrität,uadilifu,d,NA,NA,NA,NA,sd,NA,4,NA,NA,NA,NA,NA,NA,NA,NA,NA,NA,NA,NA,NA,NA,NA,NA,NA,NA,NA
d6572,task,flow.Sequence,3_0_4_0_2,NA,NA,completion,10033.288,711509,711507.566,711524.282,721557.57,721559,2023-12-02T08:38:51Z,721574.281,NULL,Integrität,uadilifu,d,NA,NA,NA,NA,sd,NA,4,NA,NA,NA,NA,NA,NA,NA,NA,NA,NA,NA,NA,NA,NA,NA,NA,NA,NA,NA
d6572,Deep Question,html.Page,3_0_4_0_3_0_0,NA,NA,form submission,4340.8190001431,721559.20000005,721557.57,721574.281,725915.10000014,725915.30000019,2023-12-02T08:38:55Z,725924.088,NULL,Fleisch,mshakiki,d,NA,NA,NA,mshakiki,NA,NA,4,NA,NA,NA,NA,NA,NA,NA,NA,NA,NA,NA,NA,NA,NA,NA,NA,NA,NA,NA
d6572,"""Richtig""-Screen",canvas.Screen,3_0_4_0_3_0_1,NA,NA,timeout,5000.0160000001,725917.10000014,725907.534,725924.088,730907.561,730908.4000001,2023-12-02T08:39:00Z,730924.104,NULL,Fleisch,mshakiki,d,NA,NA,NA,NA,sd,1,4,NA,NA,NA,NA,NA,NA,NA,NA,NA,NA,NA,NA,NA,NA,NA,NA,NA,NA,NA
d6572,"""Falsch""-Screen",canvas.Screen,3_0_4_0_3_0_2,NA,NA,skipped,NA,730912.70000005,NA,NA,730907.561,730912.9000001,2023-12-02T08:39:00Z,730924.104,NULL,Fleisch,mshakiki,d,NA,NA,NA,NA,sd,NA,4,NA,NA,NA,NA,NA,NA,NA,NA,NA,NA,NA,NA,NA,NA,NA,NA,NA,NA,NA
d6572,deep,flow.Sequence,3_0_4_0_3_0,NA,NA,completion,9333.28,721559.20000005,721557.57,721574.281,730907.561,730913.10000014,2023-12-02T08:39:00Z,730924.104,NULL,Fleisch,mshakiki,d,NA,NA,NA,NA,sd,NA,4,NA,NA,NA,NA,NA,NA,NA,NA,NA,NA,NA,NA,NA,NA,NA,NA,NA,NA,NA
d6572,shallow,flow.Sequence,3_0_4_0_3_1,NA,NA,skipped,NA,730913.30000019,NA,NA,730907.561,730913.30000019,2023-12-02T08:39:00Z,730924.104,NULL,Fleisch,mshakiki,d,NA,NA,NA,NA,sd,NA,4,NA,NA,NA,NA,NA,NA,NA,NA,NA,NA,NA,NA,NA,NA,NA,NA,NA,NA,NA
d6572,task,flow.Sequence,3_0_4_0_3,NA,NA,completion,9333.28,721559.10000014,721557.57,721574.281,730907.561,730913.5,2023-12-02T08:39:00Z,730924.104,NULL,Fleisch,mshakiki,d,NA,NA,NA,NA,sd,NA,4,NA,NA,NA,NA,NA,NA,NA,NA,NA,NA,NA,NA,NA,NA,NA,NA,NA,NA,NA
d6572,deep,flow.Sequence,3_0_4_0_4_0,NA,NA,skipped,NA,730913.60000014,NA,NA,730907.561,730913.70000005,2023-12-02T08:39:00Z,730924.104,NULL,Toleranz,kuvumiliana,s,maombolezo,ujasusi,mchekeshaji,NA,sd,NA,4,NA,NA,NA,NA,NA,NA,NA,NA,NA,NA,NA,NA,NA,NA,NA,NA,NA,NA,NA
d6572,Shallow Question,html.Page,3_0_4_0_4_1_0,NA,NA,form submission,3591.0960000476,730913.80000019,730907.561,730924.104,734515.20000005,734515.5,2023-12-02T08:39:04Z,734524.042,NULL,Toleranz,kuvumiliana,s,maombolezo,ujasusi,mchekeshaji,kuvumiliana,NA,NA,4,NA,NA,NA,NA,NA,NA,NA,NA,NA,NA,NA,NA,NA,NA,NA,NA,NA,NA,NA
d6572,"""Richtig""-Screen",canvas.Screen,3_0_4_0_4_1_1,NA,NA,timeout,5000.203,734517.10000014,734507.615,734524.042,739507.559,739508.30000019,2023-12-02T08:39:09Z,739524.245,NULL,Toleranz,kuvumiliana,s,maombolezo,ujasusi,mchekeshaji,NA,sd,1,4,NA,NA,NA,NA,NA,NA,NA,NA,NA,NA,NA,NA,NA,NA,NA,NA,NA,NA,NA
d6572,"""Falsch""-Screen",canvas.Screen,3_0_4_0_4_1_2,NA,NA,skipped,NA,739512.30000019,NA,NA,739507.559,739512.60000014,2023-12-02T08:39:09Z,739524.245,NULL,Toleranz,kuvumiliana,s,maombolezo,ujasusi,mchekeshaji,NA,sd,NA,4,NA,NA,NA,NA,NA,NA,NA,NA,NA,NA,NA,NA,NA,NA,NA,NA,NA,NA,NA
d6572,shallow,flow.Sequence,3_0_4_0_4_1,NA,NA,completion,8583.455,730913.80000019,730907.561,730924.104,739507.559,739512.70000005,2023-12-02T08:39:09Z,739524.245,NULL,Toleranz,kuvumiliana,s,maombolezo,ujasusi,mchekeshaji,NA,sd,NA,4,NA,NA,NA,NA,NA,NA,NA,NA,NA,NA,NA,NA,NA,NA,NA,NA,NA,NA,NA
d6572,task,flow.Sequence,3_0_4_0_4,NA,NA,completion,8583.455,730913.60000014,730907.561,730924.104,739507.559,739512.9000001,2023-12-02T08:39:09Z,739524.245,NULL,Toleranz,kuvumiliana,s,maombolezo,ujasusi,mchekeshaji,NA,sd,NA,4,NA,NA,NA,NA,NA,NA,NA,NA,NA,NA,NA,NA,NA,NA,NA,NA,NA,NA,NA
d6572,Deep Question,html.Page,3_0_4_0_5_0_0,NA,NA,form submission,5807.3550001431,739513.10000014,739507.559,739524.245,745331.60000014,745331.80000019,2023-12-02T08:39:14Z,745340.715,NULL,Inhalt,yaliyomo,d,NA,NA,NA,yaliyomo,NA,NA,4,NA,NA,NA,NA,NA,NA,NA,NA,NA,NA,NA,NA,NA,NA,NA,NA,NA,NA,NA
d6572,"""Richtig""-Screen",canvas.Screen,3_0_4_0_5_0_1,NA,NA,timeout,5000.116,745333.5,745324.229,745340.715,750324.228,750325.10000014,2023-12-02T08:39:19Z,750340.831,NULL,Inhalt,yaliyomo,d,NA,NA,NA,NA,sd,1,4,NA,NA,NA,NA,NA,NA,NA,NA,NA,NA,NA,NA,NA,NA,NA,NA,NA,NA,NA
d6572,"""Falsch""-Screen",canvas.Screen,3_0_4_0_5_0_2,NA,NA,skipped,NA,750329.10000014,NA,NA,750324.228,750329.4000001,2023-12-02T08:39:19Z,750340.831,NULL,Inhalt,yaliyomo,d,NA,NA,NA,NA,sd,NA,4,NA,NA,NA,NA,NA,NA,NA,NA,NA,NA,NA,NA,NA,NA,NA,NA,NA,NA,NA
d6572,deep,flow.Sequence,3_0_4_0_5_0,NA,NA,completion,10799.983,739513,739507.559,739524.245,750324.228,750329.60000014,2023-12-02T08:39:19Z,750340.831,NULL,Inhalt,yaliyomo,d,NA,NA,NA,NA,sd,NA,4,NA,NA,NA,NA,NA,NA,NA,NA,NA,NA,NA,NA,NA,NA,NA,NA,NA,NA,NA
d6572,shallow,flow.Sequence,3_0_4_0_5_1,NA,NA,skipped,NA,750329.70000005,NA,NA,750324.228,750329.80000019,2023-12-02T08:39:19Z,750340.831,NULL,Inhalt,yaliyomo,d,NA,NA,NA,NA,sd,NA,4,NA,NA,NA,NA,NA,NA,NA,NA,NA,NA,NA,NA,NA,NA,NA,NA,NA,NA,NA
d6572,task,flow.Sequence,3_0_4_0_5,NA,NA,completion,10799.983,739513,739507.559,739524.245,750324.228,750329.9000001,2023-12-02T08:39:19Z,750340.831,NULL,Inhalt,yaliyomo,d,NA,NA,NA,NA,sd,NA,4,NA,NA,NA,NA,NA,NA,NA,NA,NA,NA,NA,NA,NA,NA,NA,NA,NA,NA,NA
d6572,deep,flow.Sequence,3_0_4_0_6_0,NA,NA,skipped,NA,750330.10000014,NA,NA,750324.228,750330.10000014,2023-12-02T08:39:19Z,750340.831,NULL,Schlange,foleni,s,uvumilivu,uteuzi,muuzaji,NA,sd,NA,4,NA,NA,NA,NA,NA,NA,NA,NA,NA,NA,NA,NA,NA,NA,NA,NA,NA,NA,NA
d6572,Shallow Question,html.Page,3_0_4_0_6_1_0,NA,NA,form submission,2982.269000143,750330.20000005,750324.228,750340.831,753323.10000014,753323.4000001,2023-12-02T08:39:22Z,753324.012,NULL,Schlange,foleni,s,uvumilivu,uteuzi,muuzaji,foleni,NA,NA,4,NA,NA,NA,NA,NA,NA,NA,NA,NA,NA,NA,NA,NA,NA,NA,NA,NA,NA,NA
d6572,"""Richtig""-Screen",canvas.Screen,3_0_4_0_6_1_1,NA,NA,timeout,5000.14,753324,753307.501,753324.012,758307.562,758308.20000005,2023-12-02T08:39:27Z,758324.152,NULL,Schlange,foleni,s,uvumilivu,uteuzi,muuzaji,NA,sd,1,4,NA,NA,NA,NA,NA,NA,NA,NA,NA,NA,NA,NA,NA,NA,NA,NA,NA,NA,NA
d6572,"""Falsch""-Screen",canvas.Screen,3_0_4_0_6_1_2,NA,NA,skipped,NA,758312.20000005,NA,NA,758307.562,758312.4000001,2023-12-02T08:39:27Z,758324.152,NULL,Schlange,foleni,s,uvumilivu,uteuzi,muuzaji,NA,sd,NA,4,NA,NA,NA,NA,NA,NA,NA,NA,NA,NA,NA,NA,NA,NA,NA,NA,NA,NA,NA
d6572,shallow,flow.Sequence,3_0_4_0_6_1,NA,NA,completion,7966.731,750330.20000005,750324.228,750340.831,758307.562,758312.70000005,2023-12-02T08:39:27Z,758324.152,NULL,Schlange,foleni,s,uvumilivu,uteuzi,muuzaji,NA,sd,NA,4,NA,NA,NA,NA,NA,NA,NA,NA,NA,NA,NA,NA,NA,NA,NA,NA,NA,NA,NA
d6572,task,flow.Sequence,3_0_4_0_6,NA,NA,completion,7966.731,750330,750324.228,750340.831,758307.562,758312.80000019,2023-12-02T08:39:27Z,758324.152,NULL,Schlange,foleni,s,uvumilivu,uteuzi,muuzaji,NA,sd,NA,4,NA,NA,NA,NA,NA,NA,NA,NA,NA,NA,NA,NA,NA,NA,NA,NA,NA,NA,NA
d6572,deep,flow.Sequence,3_0_4_0_7_0,NA,NA,skipped,NA,758312.9000001,NA,NA,758307.562,758313,2023-12-02T08:39:27Z,758324.152,NULL,Begegnung,kukutana,s,mmasihiya,mpiganaji,husiano,NA,sd,NA,4,NA,NA,NA,NA,NA,NA,NA,NA,NA,NA,NA,NA,NA,NA,NA,NA,NA,NA,NA
d6572,Shallow Question,html.Page,3_0_4_0_7_1_0,NA,NA,form submission,5247.1480001907,758313.20000005,758307.562,758324.152,763571.30000019,763571.5,2023-12-02T08:39:33Z,763574.095,NULL,Begegnung,kukutana,s,mmasihiya,mpiganaji,husiano,kukutana,NA,NA,4,NA,NA,NA,NA,NA,NA,NA,NA,NA,NA,NA,NA,NA,NA,NA,NA,NA,NA,NA
d6572,"""Richtig""-Screen",canvas.Screen,3_0_4_0_7_1_1,NA,NA,timeout,5000.152,763573.10000014,763557.578,763574.095,768557.557,768558.30000019,2023-12-02T08:39:38Z,768574.247,NULL,Begegnung,kukutana,s,mmasihiya,mpiganaji,husiano,NA,sd,1,4,NA,NA,NA,NA,NA,NA,NA,NA,NA,NA,NA,NA,NA,NA,NA,NA,NA,NA,NA
d6572,"""Falsch""-Screen",canvas.Screen,3_0_4_0_7_1_2,NA,NA,skipped,NA,768562.5,NA,NA,768557.557,768562.80000019,2023-12-02T08:39:38Z,768574.247,NULL,Begegnung,kukutana,s,mmasihiya,mpiganaji,husiano,NA,sd,NA,4,NA,NA,NA,NA,NA,NA,NA,NA,NA,NA,NA,NA,NA,NA,NA,NA,NA,NA,NA
d6572,shallow,flow.Sequence,3_0_4_0_7_1,NA,NA,completion,10233.405,758313.20000005,758307.562,758324.152,768557.557,768563,2023-12-02T08:39:38Z,768574.247,NULL,Begegnung,kukutana,s,mmasihiya,mpiganaji,husiano,NA,sd,NA,4,NA,NA,NA,NA,NA,NA,NA,NA,NA,NA,NA,NA,NA,NA,NA,NA,NA,NA,NA
d6572,task,flow.Sequence,3_0_4_0_7,NA,NA,completion,10233.405,758312.9000001,758307.562,758324.152,768557.557,768563.20000005,2023-12-02T08:39:38Z,768574.247,NULL,Begegnung,kukutana,s,mmasihiya,mpiganaji,husiano,NA,sd,NA,4,NA,NA,NA,NA,NA,NA,NA,NA,NA,NA,NA,NA,NA,NA,NA,NA,NA,NA,NA
d6572,block,flow.Loop,3_0_4_0,NA,NA,completion,77166.788,691378.70000005,691374.527,691390.769,768557.557,768563.30000019,2023-12-02T08:39:38Z,768574.247,NULL,NA,NA,NA,NA,NA,NA,NA,sd,NA,4,NA,NA,NA,NA,NA,NA,NA,NA,NA,NA,NA,NA,NA,NA,NA,NA,NA,NA,NA
d6572,weiter,canvas.Screen,3_0_4_1,sdf,keypress(Space),response,1507.8530001431,768563.4000001,768557.557,768574.247,770082.10000014,770083,2023-12-02T08:39:39Z,770474.09,NULL,NA,NA,NA,NA,NA,NA,NA,sd,NA,4,NA,NA,NA,NA,NA,NA,NA,NA,NA,NA,NA,NA,NA,NA,NA,NA,NA,NA,NA
d6572,check continue,flow.Sequence,3_0_4,NA,NA,completion,78691.331000143007,691378.60000014,691374.527,691390.769,770082.10000014,770083.20000005,2023-12-02T08:39:39Z,770474.09,NULL,NA,NA,NA,NA,NA,NA,NA,sd,NA,4,NA,NA,NA,NA,NA,NA,NA,NA,NA,NA,NA,NA,NA,NA,NA,NA,NA,NA,NA
d6572,check continue,flow.Sequence,3_0_5,NA,NA,skipped,NA,770133.4000001,NA,NA,770082.10000014,770133.5,2023-12-02T08:39:39Z,770474.09,NULL,NA,NA,NA,NA,NA,NA,NA,sdf,NA,5,NA,NA,NA,NA,NA,NA,NA,NA,NA,NA,NA,NA,NA,NA,NA,NA,NA,NA,NA
d6572,check continue,flow.Sequence,3_0_6,NA,NA,skipped,NA,770151.4000001,NA,NA,770082.10000014,770151.4000001,2023-12-02T08:39:39Z,770474.09,NULL,NA,NA,NA,NA,NA,NA,NA,dfs,NA,6,NA,NA,NA,NA,NA,NA,NA,NA,NA,NA,NA,NA,NA,NA,NA,NA,NA,NA,NA
d6572,check continue,flow.Sequence,3_0_7,NA,NA,skipped,NA,770167.10000014,NA,NA,770082.10000014,770167.20000005,2023-12-02T08:39:39Z,770474.09,NULL,NA,NA,NA,NA,NA,NA,NA,df,NA,7,NA,NA,NA,NA,NA,NA,NA,NA,NA,NA,NA,NA,NA,NA,NA,NA,NA,NA,NA
d6572,check continue,flow.Sequence,3_0_8,NA,NA,skipped,NA,770181.10000014,NA,NA,770082.10000014,770181.20000005,2023-12-02T08:39:39Z,770474.09,NULL,NA,NA,NA,NA,NA,NA,NA,dfs,NA,8,NA,NA,NA,NA,NA,NA,NA,NA,NA,NA,NA,NA,NA,NA,NA,NA,NA,NA,NA
d6572,check continue,flow.Sequence,3_0_9,NA,NA,skipped,NA,770194.9000001,NA,NA,770082.10000014,770195,2023-12-02T08:39:39Z,770474.09,NULL,NA,NA,NA,NA,NA,NA,NA,dsf,NA,9,NA,NA,NA,NA,NA,NA,NA,NA,NA,NA,NA,NA,NA,NA,NA,NA,NA,NA,NA
d6572,check continue,flow.Sequence,3_0_10,NA,NA,skipped,NA,770208.70000005,NA,NA,770082.10000014,770208.70000005,2023-12-02T08:39:39Z,770474.09,NULL,NA,NA,NA,NA,NA,NA,NA,df,NA,10,NA,NA,NA,NA,NA,NA,NA,NA,NA,NA,NA,NA,NA,NA,NA,NA,NA,NA,NA
d6572,check continue,flow.Sequence,3_0_11,NA,NA,skipped,NA,770222.70000005,NA,NA,770082.10000014,770222.80000019,2023-12-02T08:39:39Z,770474.09,NULL,NA,NA,NA,NA,NA,NA,NA,dfs,NA,11,NA,NA,NA,NA,NA,NA,NA,NA,NA,NA,NA,NA,NA,NA,NA,NA,NA,NA,NA
d6572,check continue,flow.Sequence,3_0_12,NA,NA,skipped,NA,770236.30000019,NA,NA,770082.10000014,770236.4000001,2023-12-02T08:39:39Z,770474.09,NULL,NA,NA,NA,NA,NA,NA,NA,dsf,NA,12,NA,NA,NA,NA,NA,NA,NA,NA,NA,NA,NA,NA,NA,NA,NA,NA,NA,NA,NA
d6572,check continue,flow.Sequence,3_0_13,NA,NA,skipped,NA,770248.70000005,NA,NA,770082.10000014,770248.70000005,2023-12-02T08:39:39Z,770474.09,NULL,NA,NA,NA,NA,NA,NA,NA,dsf,NA,13,NA,NA,NA,NA,NA,NA,NA,NA,NA,NA,NA,NA,NA,NA,NA,NA,NA,NA,NA
d6572,check continue,flow.Sequence,3_0_14,NA,NA,skipped,NA,770261.60000014,NA,NA,770082.10000014,770261.70000005,2023-12-02T08:39:39Z,770474.09,NULL,NA,NA,NA,NA,NA,NA,NA,NA,NA,14,NA,NA,NA,NA,NA,NA,NA,NA,NA,NA,NA,NA,NA,NA,NA,NA,NA,NA,NA
d6572,check continue,flow.Sequence,3_0_15,NA,NA,skipped,NA,770274.5,NA,NA,770082.10000014,770274.60000014,2023-12-02T08:39:39Z,770474.09,NULL,NA,NA,NA,NA,NA,NA,NA,NA,NA,15,NA,NA,NA,NA,NA,NA,NA,NA,NA,NA,NA,NA,NA,NA,NA,NA,NA,NA,NA
d6572,check continue,flow.Sequence,3_0_16,NA,NA,skipped,NA,770290.4000001,NA,NA,770082.10000014,770290.4000001,2023-12-02T08:39:39Z,770474.09,NULL,NA,NA,NA,NA,NA,NA,NA,NA,NA,16,NA,NA,NA,NA,NA,NA,NA,NA,NA,NA,NA,NA,NA,NA,NA,NA,NA,NA,NA
d6572,check continue,flow.Sequence,3_0_17,NA,NA,skipped,NA,770303.10000014,NA,NA,770082.10000014,770303.20000005,2023-12-02T08:39:39Z,770474.09,NULL,NA,NA,NA,NA,NA,NA,NA,NA,NA,17,NA,NA,NA,NA,NA,NA,NA,NA,NA,NA,NA,NA,NA,NA,NA,NA,NA,NA,NA
d6572,check continue,flow.Sequence,3_0_18,NA,NA,skipped,NA,770320.5,NA,NA,770082.10000014,770320.5,2023-12-02T08:39:39Z,770474.09,NULL,NA,NA,NA,NA,NA,NA,NA,NA,NA,18,NA,NA,NA,NA,NA,NA,NA,NA,NA,NA,NA,NA,NA,NA,NA,NA,NA,NA,NA
d6572,check continue,flow.Sequence,3_0_19,NA,NA,skipped,NA,770333.4000001,NA,NA,770082.10000014,770333.5,2023-12-02T08:39:39Z,770474.09,NULL,NA,NA,NA,NA,NA,NA,NA,NA,NA,19,NA,NA,NA,NA,NA,NA,NA,NA,NA,NA,NA,NA,NA,NA,NA,NA,NA,NA,NA
d6572,check continue,flow.Sequence,3_0_20,NA,NA,skipped,NA,770346.9000001,NA,NA,770082.10000014,770346.9000001,2023-12-02T08:39:39Z,770474.09,NULL,NA,NA,NA,NA,NA,NA,NA,NA,NA,20,NA,NA,NA,NA,NA,NA,NA,NA,NA,NA,NA,NA,NA,NA,NA,NA,NA,NA,NA
d6572,check continue,flow.Sequence,3_0_21,NA,NA,skipped,NA,770359,NA,NA,770082.10000014,770359.10000014,2023-12-02T08:39:39Z,770474.09,NULL,NA,NA,NA,NA,NA,NA,NA,NA,NA,21,NA,NA,NA,NA,NA,NA,NA,NA,NA,NA,NA,NA,NA,NA,NA,NA,NA,NA,NA
d6572,check continue,flow.Sequence,3_0_22,NA,NA,skipped,NA,770373.10000014,NA,NA,770082.10000014,770373.20000005,2023-12-02T08:39:39Z,770474.09,NULL,NA,NA,NA,NA,NA,NA,NA,NA,NA,22,NA,NA,NA,NA,NA,NA,NA,NA,NA,NA,NA,NA,NA,NA,NA,NA,NA,NA,NA
d6572,check continue,flow.Sequence,3_0_23,NA,NA,skipped,NA,770384.60000014,NA,NA,770082.10000014,770384.70000005,2023-12-02T08:39:39Z,770474.09,NULL,NA,NA,NA,NA,NA,NA,NA,NA,NA,23,NA,NA,NA,NA,NA,NA,NA,NA,NA,NA,NA,NA,NA,NA,NA,NA,NA,NA,NA
d6572,check continue,flow.Sequence,3_0_24,NA,NA,skipped,NA,770397.60000014,NA,NA,770082.10000014,770397.70000005,2023-12-02T08:39:40Z,770474.09,NULL,NA,NA,NA,NA,NA,NA,NA,NA,NA,24,NA,NA,NA,NA,NA,NA,NA,NA,NA,NA,NA,NA,NA,NA,NA,NA,NA,NA,NA
d6572,check continue,flow.Sequence,3_0_25,NA,NA,skipped,NA,770408.9000001,NA,NA,770082.10000014,770409,2023-12-02T08:39:40Z,770474.09,NULL,NA,NA,NA,NA,NA,NA,NA,NA,NA,25,NA,NA,NA,NA,NA,NA,NA,NA,NA,NA,NA,NA,NA,NA,NA,NA,NA,NA,NA
d6572,check continue,flow.Sequence,3_0_26,NA,NA,skipped,NA,770421.5,NA,NA,770082.10000014,770421.5,2023-12-02T08:39:40Z,770474.09,NULL,NA,NA,NA,NA,NA,NA,NA,NA,NA,26,NA,NA,NA,NA,NA,NA,NA,NA,NA,NA,NA,NA,NA,NA,NA,NA,NA,NA,NA
d6572,check continue,flow.Sequence,3_0_27,NA,NA,skipped,NA,770432.4000001,NA,NA,770082.10000014,770432.4000001,2023-12-02T08:39:40Z,770474.09,NULL,NA,NA,NA,NA,NA,NA,NA,NA,NA,27,NA,NA,NA,NA,NA,NA,NA,NA,NA,NA,NA,NA,NA,NA,NA,NA,NA,NA,NA
d6572,check continue,flow.Sequence,3_0_28,NA,NA,skipped,NA,770444.9000001,NA,NA,770082.10000014,770445,2023-12-02T08:39:40Z,770474.09,NULL,NA,NA,NA,NA,NA,NA,NA,NA,NA,28,NA,NA,NA,NA,NA,NA,NA,NA,NA,NA,NA,NA,NA,NA,NA,NA,NA,NA,NA
d6572,check continue,flow.Sequence,3_0_29,NA,NA,skipped,NA,770456.80000019,NA,NA,770082.10000014,770456.9000001,2023-12-02T08:39:40Z,770474.09,NULL,NA,NA,NA,NA,NA,NA,NA,NA,NA,29,NA,NA,NA,NA,NA,NA,NA,NA,NA,NA,NA,NA,NA,NA,NA,NA,NA,NA,NA
d6572,until continue,flow.Loop,3_0,NA,NA,completion,446457.88600014,323608.10000014,323524.352,323624.214,770082.10000014,770456.9000001,2023-12-02T08:39:40Z,770474.09,NULL,NA,NA,NA,NA,NA,NA,NA,NA,NA,NA,NA,NA,NA,NA,NA,NA,NA,NA,NA,NA,NA,NA,NA,NA,NA,NA,NA,NA,NA
d6572,block 1,flow.Sequence,3,NA,NA,completion,446457.88600014,323608.10000014,323524.352,323624.214,770082.10000014,770457.10000014,2023-12-02T08:39:40Z,770474.09,NULL,NA,NA,NA,NA,NA,NA,NA,NA,NA,NA,NA,NA,NA,NA,NA,NA,NA,NA,NA,NA,NA,NA,NA,NA,NA,NA,NA,NA,NA
d6572,1.Part Over,canvas.Screen,4,NA,keypress(Space),response,3720.6100000477,770457.10000014,770457.263,770474.09,774194.70000005,774195.5,2023-12-02T08:39:43Z,774274.176,NULL,NA,NA,NA,NA,NA,NA,NA,NA,NA,NA,NA,NA,NA,NA,NA,NA,NA,NA,NA,NA,NA,NA,NA,NA,NA,NA,NA,NA,NA
d6572,Deep Question,html.Page,5_0_0_0_0_0_0,NA,NA,form submission,10497.124000191,774264.5,774258.378,774274.176,784771.30000019,784771.5,2023-12-02T08:39:54Z,784774.09,NULL,Hoffnung,matarajio,d,NA,NA,NA,shekuna,NA,NA,0,NA,NA,NA,NA,NA,NA,NA,NA,NA,NA,NA,NA,NA,NA,NA,NA,NA,NA,NA
d6572,"""Richtig""-Screen",canvas.Screen,5_0_0_0_0_0_1,NA,NA,skipped,NA,784773.30000019,NA,NA,784771.30000019,784773.4000001,2023-12-02T08:39:54Z,784774.09,NULL,Hoffnung,matarajio,d,NA,NA,NA,NA,sdf,NA,0,NA,NA,NA,NA,NA,NA,NA,NA,NA,NA,NA,NA,NA,NA,NA,NA,NA,NA,NA
d6572,"""Falsch""-Screen",canvas.Screen,5_0_0_0_0_0_2,NA,NA,timeout,5000.051,784774,784757.592,784774.09,789757.553,789758.4000001,2023-12-02T08:39:59Z,789774.141,NULL,Hoffnung,matarajio,d,NA,NA,NA,NA,sdf,0,0,NA,NA,NA,NA,NA,NA,NA,NA,NA,NA,NA,NA,NA,NA,NA,NA,NA,NA,NA
d6572,deep,flow.Sequence,5_0_0_0_0_0,NA,NA,completion,15483.377,774264.5,774258.378,774274.176,789757.553,789758.70000005,2023-12-02T08:39:59Z,789774.141,NULL,Hoffnung,matarajio,d,NA,NA,NA,NA,sdf,NA,0,NA,NA,NA,NA,NA,NA,NA,NA,NA,NA,NA,NA,NA,NA,NA,NA,NA,NA,NA
d6572,shallow,flow.Sequence,5_0_0_0_0_1,NA,NA,skipped,NA,789758.80000019,NA,NA,789757.553,789758.9000001,2023-12-02T08:39:59Z,789774.141,NULL,Hoffnung,matarajio,d,NA,NA,NA,NA,sdf,NA,0,NA,NA,NA,NA,NA,NA,NA,NA,NA,NA,NA,NA,NA,NA,NA,NA,NA,NA,NA
d6572,task,flow.Sequence,5_0_0_0_0,NA,NA,completion,15483.377,774264.5,774258.378,774274.176,789757.553,789759,2023-12-02T08:39:59Z,789774.141,NULL,Hoffnung,matarajio,d,NA,NA,NA,NA,sdf,NA,0,NA,NA,NA,NA,NA,NA,NA,NA,NA,NA,NA,NA,NA,NA,NA,NA,NA,NA,NA
d6572,deep,flow.Sequence,5_0_0_0_1_0,NA,NA,skipped,NA,789759.10000014,NA,NA,789757.553,789759.20000005,2023-12-02T08:39:59Z,789774.141,NULL,Theorie,nadharia,s,ushungi,mkutano,uwakilishi,NA,sdf,NA,0,NA,NA,NA,NA,NA,NA,NA,NA,NA,NA,NA,NA,NA,NA,NA,NA,NA,NA,NA
d6572,Shallow Question,html.Page,5_0_0_0_1_1_0,NA,NA,form submission,9852.4590001431,789759.30000019,789757.553,789774.141,799626.60000014,799626.80000019,2023-12-02T08:40:09Z,799640.857,NULL,Theorie,nadharia,s,ushungi,mkutano,uwakilishi,nadharia,NA,NA,0,NA,NA,NA,NA,NA,NA,NA,NA,NA,NA,NA,NA,NA,NA,NA,NA,NA,NA,NA
d6572,"""Richtig""-Screen",canvas.Screen,5_0_0_0_1_1_1,NA,NA,timeout,4999.909,799628.60000014,799624.202,799640.857,804624.218,804624.9000001,2023-12-02T08:40:14Z,804640.766,NULL,Theorie,nadharia,s,ushungi,mkutano,uwakilishi,NA,sdf,1,0,NA,NA,NA,NA,NA,NA,NA,NA,NA,NA,NA,NA,NA,NA,NA,NA,NA,NA,NA
d6572,"""Falsch""-Screen",canvas.Screen,5_0_0_0_1_1_2,NA,NA,skipped,NA,804629.60000014,NA,NA,804624.218,804629.9000001,2023-12-02T08:40:14Z,804640.766,NULL,Theorie,nadharia,s,ushungi,mkutano,uwakilishi,NA,sdf,NA,0,NA,NA,NA,NA,NA,NA,NA,NA,NA,NA,NA,NA,NA,NA,NA,NA,NA,NA,NA
d6572,shallow,flow.Sequence,5_0_0_0_1_1,NA,NA,completion,14850.077,789759.30000019,789757.553,789774.141,804624.218,804630.10000014,2023-12-02T08:40:14Z,804640.766,NULL,Theorie,nadharia,s,ushungi,mkutano,uwakilishi,NA,sdf,NA,0,NA,NA,NA,NA,NA,NA,NA,NA,NA,NA,NA,NA,NA,NA,NA,NA,NA,NA,NA
d6572,task,flow.Sequence,5_0_0_0_1,NA,NA,completion,14850.077,789759.10000014,789757.553,789774.141,804624.218,804630.30000019,2023-12-02T08:40:14Z,804640.766,NULL,Theorie,nadharia,s,ushungi,mkutano,uwakilishi,NA,sdf,NA,0,NA,NA,NA,NA,NA,NA,NA,NA,NA,NA,NA,NA,NA,NA,NA,NA,NA,NA,NA
d6572,Deep Question,html.Page,5_0_0_0_2_0_0,NA,NA,form submission,6818.2340000001,804630.4000001,804624.218,804640.766,811459,811459.4000001,2023-12-02T08:40:21Z,811474.215,NULL,Wechsel,ugeuzaji,d,NA,NA,NA,matarajio,NA,NA,0,NA,NA,NA,NA,NA,NA,NA,NA,NA,NA,NA,NA,NA,NA,NA,NA,NA,NA,NA
d6572,"""Richtig""-Screen",canvas.Screen,5_0_0_0_2_0_1,NA,NA,skipped,NA,811460.80000019,NA,NA,811459,811461,2023-12-02T08:40:21Z,811474.215,NULL,Wechsel,ugeuzaji,d,NA,NA,NA,NA,sdf,NA,0,NA,NA,NA,NA,NA,NA,NA,NA,NA,NA,NA,NA,NA,NA,NA,NA,NA,NA,NA
d6572,"""Falsch""-Screen",canvas.Screen,5_0_0_0_2_0_2,NA,NA,timeout,5000.042,811461.60000014,811457.395,811474.215,816457.543,816458.30000019,2023-12-02T08:40:26Z,816474.257,NULL,Wechsel,ugeuzaji,d,NA,NA,NA,NA,sdf,0,0,NA,NA,NA,NA,NA,NA,NA,NA,NA,NA,NA,NA,NA,NA,NA,NA,NA,NA,NA
d6572,deep,flow.Sequence,5_0_0_0_2_0,NA,NA,completion,11816.777,804630.4000001,804624.218,804640.766,816457.543,816458.70000005,2023-12-02T08:40:26Z,816474.257,NULL,Wechsel,ugeuzaji,d,NA,NA,NA,NA,sdf,NA,0,NA,NA,NA,NA,NA,NA,NA,NA,NA,NA,NA,NA,NA,NA,NA,NA,NA,NA,NA
d6572,shallow,flow.Sequence,5_0_0_0_2_1,NA,NA,skipped,NA,816458.80000019,NA,NA,816457.543,816458.9000001,2023-12-02T08:40:26Z,816474.257,NULL,Wechsel,ugeuzaji,d,NA,NA,NA,NA,sdf,NA,0,NA,NA,NA,NA,NA,NA,NA,NA,NA,NA,NA,NA,NA,NA,NA,NA,NA,NA,NA
d6572,task,flow.Sequence,5_0_0_0_2,NA,NA,completion,11816.777,804630.4000001,804624.218,804640.766,816457.543,816459,2023-12-02T08:40:26Z,816474.257,NULL,Wechsel,ugeuzaji,d,NA,NA,NA,NA,sdf,NA,0,NA,NA,NA,NA,NA,NA,NA,NA,NA,NA,NA,NA,NA,NA,NA,NA,NA,NA,NA
d6572,Deep Question,html.Page,5_0_0_0_3_0_0,NA,NA,form submission,6344.743,816459.20000005,816457.543,816474.257,822819,822819.20000005,2023-12-02T08:40:32Z,822824.03,NULL,Verpackung,ufungaji,d,NA,NA,NA,matarajio,NA,NA,0,NA,NA,NA,NA,NA,NA,NA,NA,NA,NA,NA,NA,NA,NA,NA,NA,NA,NA,NA
d6572,"""Richtig""-Screen",canvas.Screen,5_0_0_0_3_0_1,NA,NA,skipped,NA,822821,NA,NA,822819,822821.10000014,2023-12-02T08:40:32Z,822824.03,NULL,Verpackung,ufungaji,d,NA,NA,NA,NA,sdf,NA,0,NA,NA,NA,NA,NA,NA,NA,NA,NA,NA,NA,NA,NA,NA,NA,NA,NA,NA,NA
d6572,"""Falsch""-Screen",canvas.Screen,5_0_0_0_3_0_2,NA,NA,timeout,5000.199,822821.70000005,822807.593,822824.03,827807.544,827808.4000001,2023-12-02T08:40:37Z,827824.229,NULL,Verpackung,ufungaji,d,NA,NA,NA,NA,sdf,0,0,NA,NA,NA,NA,NA,NA,NA,NA,NA,NA,NA,NA,NA,NA,NA,NA,NA,NA,NA
d6572,deep,flow.Sequence,5_0_0_0_3_0,NA,NA,completion,11333.287,816459.10000014,816457.543,816474.257,827807.544,827808.70000005,2023-12-02T08:40:37Z,827824.229,NULL,Verpackung,ufungaji,d,NA,NA,NA,NA,sdf,NA,0,NA,NA,NA,NA,NA,NA,NA,NA,NA,NA,NA,NA,NA,NA,NA,NA,NA,NA,NA
d6572,shallow,flow.Sequence,5_0_0_0_3_1,NA,NA,skipped,NA,827808.9000001,NA,NA,827807.544,827809,2023-12-02T08:40:37Z,827824.229,NULL,Verpackung,ufungaji,d,NA,NA,NA,NA,sdf,NA,0,NA,NA,NA,NA,NA,NA,NA,NA,NA,NA,NA,NA,NA,NA,NA,NA,NA,NA,NA
d6572,task,flow.Sequence,5_0_0_0_3,NA,NA,completion,11333.287,816459.10000014,816457.543,816474.257,827807.544,827809.10000014,2023-12-02T08:40:37Z,827824.229,NULL,Verpackung,ufungaji,d,NA,NA,NA,NA,sdf,NA,0,NA,NA,NA,NA,NA,NA,NA,NA,NA,NA,NA,NA,NA,NA,NA,NA,NA,NA,NA
d6572,deep,flow.Sequence,5_0_0_0_4_0,NA,NA,skipped,NA,827809.30000019,NA,NA,827807.544,827809.4000001,2023-12-02T08:40:37Z,827824.229,NULL,Schock,mshtuko,s,biashara,kukataza,vichekesho,NA,sdf,NA,0,NA,NA,NA,NA,NA,NA,NA,NA,NA,NA,NA,NA,NA,NA,NA,NA,NA,NA,NA
d6572,Shallow Question,html.Page,5_0_0_0_4_1_0,NA,NA,form submission,4898.871000143,827809.5,827807.544,827824.229,832723.10000014,832723.30000019,2023-12-02T08:40:42Z,832724.079,NULL,Schock,mshtuko,s,biashara,kukataza,vichekesho,kukataza,NA,NA,0,NA,NA,NA,NA,NA,NA,NA,NA,NA,NA,NA,NA,NA,NA,NA,NA,NA,NA,NA
d6572,"""Richtig""-Screen",canvas.Screen,5_0_0_0_4_1_1,NA,NA,skipped,NA,832725.20000005,NA,NA,832723.10000014,832725.30000019,2023-12-02T08:40:42Z,832724.079,NULL,Schock,mshtuko,s,biashara,kukataza,vichekesho,NA,sdf,NA,0,NA,NA,NA,NA,NA,NA,NA,NA,NA,NA,NA,NA,NA,NA,NA,NA,NA,NA,NA
d6572,"""Falsch""-Screen",canvas.Screen,5_0_0_0_4_1_2,NA,NA,timeout,5000.178,832725.9000001,832707.518,832724.079,837707.527,837708.20000005,2023-12-02T08:40:47Z,837724.257,NULL,Schock,mshtuko,s,biashara,kukataza,vichekesho,NA,sdf,0,0,NA,NA,NA,NA,NA,NA,NA,NA,NA,NA,NA,NA,NA,NA,NA,NA,NA,NA,NA
d6572,shallow,flow.Sequence,5_0_0_0_4_1,NA,NA,completion,9883.298,827809.4000001,827807.544,827824.229,837707.527,837708.5,2023-12-02T08:40:47Z,837724.257,NULL,Schock,mshtuko,s,biashara,kukataza,vichekesho,NA,sdf,NA,0,NA,NA,NA,NA,NA,NA,NA,NA,NA,NA,NA,NA,NA,NA,NA,NA,NA,NA,NA
d6572,task,flow.Sequence,5_0_0_0_4,NA,NA,completion,9883.298,827809.30000019,827807.544,827824.229,837707.527,837708.80000019,2023-12-02T08:40:47Z,837724.257,NULL,Schock,mshtuko,s,biashara,kukataza,vichekesho,NA,sdf,NA,0,NA,NA,NA,NA,NA,NA,NA,NA,NA,NA,NA,NA,NA,NA,NA,NA,NA,NA,NA
d6572,Deep Question,html.Page,5_0_0_0_5_0_0,NA,NA,form submission,5982.9430000477,837708.9000001,837707.527,837724.257,843707.20000005,843707.4000001,2023-12-02T08:40:53Z,843724.465,NULL,Erneuerung,ukarabati,d,NA,NA,NA,matarajio,NA,NA,0,NA,NA,NA,NA,NA,NA,NA,NA,NA,NA,NA,NA,NA,NA,NA,NA,NA,NA,NA
d6572,"""Richtig""-Screen",canvas.Screen,5_0_0_0_5_0_1,NA,NA,skipped,NA,843709.4000001,NA,NA,843707.20000005,843709.5,2023-12-02T08:40:53Z,843724.465,NULL,Erneuerung,ukarabati,d,NA,NA,NA,NA,sdf,NA,0,NA,NA,NA,NA,NA,NA,NA,NA,NA,NA,NA,NA,NA,NA,NA,NA,NA,NA,NA
d6572,"""Falsch""-Screen",canvas.Screen,5_0_0_0_5_0_2,NA,NA,timeout,4999.7640000001,843710.20000005,843690.814,843724.465,848707.542,848708.4000001,2023-12-02T08:40:58Z,848724.229,NULL,Erneuerung,ukarabati,d,NA,NA,NA,NA,sdf,0,0,NA,NA,NA,NA,NA,NA,NA,NA,NA,NA,NA,NA,NA,NA,NA,NA,NA,NA,NA
d6572,deep,flow.Sequence,5_0_0_0_5_0,NA,NA,completion,10983.285,837708.9000001,837707.527,837724.257,848707.542,848708.9000001,2023-12-02T08:40:58Z,848724.229,NULL,Erneuerung,ukarabati,d,NA,NA,NA,NA,sdf,NA,0,NA,NA,NA,NA,NA,NA,NA,NA,NA,NA,NA,NA,NA,NA,NA,NA,NA,NA,NA
d6572,shallow,flow.Sequence,5_0_0_0_5_1,NA,NA,skipped,NA,848708.9000001,NA,NA,848707.542,848709.10000014,2023-12-02T08:40:58Z,848724.229,NULL,Erneuerung,ukarabati,d,NA,NA,NA,NA,sdf,NA,0,NA,NA,NA,NA,NA,NA,NA,NA,NA,NA,NA,NA,NA,NA,NA,NA,NA,NA,NA
d6572,task,flow.Sequence,5_0_0_0_5,NA,NA,completion,10983.285,837708.9000001,837707.527,837724.257,848707.542,848709.30000019,2023-12-02T08:40:58Z,848724.229,NULL,Erneuerung,ukarabati,d,NA,NA,NA,NA,sdf,NA,0,NA,NA,NA,NA,NA,NA,NA,NA,NA,NA,NA,NA,NA,NA,NA,NA,NA,NA,NA
d6572,deep,flow.Sequence,5_0_0_0_6_0,NA,NA,skipped,NA,848709.4000001,NA,NA,848707.542,848709.5,2023-12-02T08:40:58Z,848724.229,NULL,Flexibilität,kubadilika,s,enjini,usikilivu,hesabu,NA,sdf,NA,0,NA,NA,NA,NA,NA,NA,NA,NA,NA,NA,NA,NA,NA,NA,NA,NA,NA,NA,NA
d6572,Shallow Question,html.Page,5_0_0_0_6_1_0,NA,NA,form submission,5734.9710000476,848709.60000014,848707.542,848724.229,854459.20000005,854459.30000019,2023-12-02T08:41:04Z,854474.26,NULL,Flexibilität,kubadilika,s,enjini,usikilivu,hesabu,enjini,NA,NA,0,NA,NA,NA,NA,NA,NA,NA,NA,NA,NA,NA,NA,NA,NA,NA,NA,NA,NA,NA
d6572,"""Richtig""-Screen",canvas.Screen,5_0_0_0_6_1_1,NA,NA,skipped,NA,854461.20000005,NA,NA,854459.20000005,854461.4000001,2023-12-02T08:41:04Z,854474.26,NULL,Flexibilität,kubadilika,s,enjini,usikilivu,hesabu,NA,sdf,NA,0,NA,NA,NA,NA,NA,NA,NA,NA,NA,NA,NA,NA,NA,NA,NA,NA,NA,NA,NA
