observation,sender,sender_type,sender_id,response,response_action,ended_on,duration,time_run,time_render,time_show,time_end,time_commit,timestamp,time_switch,german,swahili,enc,distractor1,distractor2,distractor3,response_2,x,correct,distractors,url_vp,url_sess,meta_labjs_version,meta_location,meta_user_agent,meta_platform,meta_language,meta_locale,meta_time_zone,meta_timezone_offset,meta_screen_width,meta_screen_height,meta_scroll_width,meta_scroll_height,meta_window_inner_width,meta_window_inner_height,meta_device_pixel_ratio,meta_labjs_build_flavor,meta_labjs_build_commit
efe2a,Introduction delayed retrieval,canvas.Screen,0,weiter,keypress(Space),response,14960,4304,4512,5290,19472,19501,2024-06-18T18:11:44Z,19705,NA,NA,NA,NA,NA,NA,NA,NA,NA,NULL,227,4,20.2.4,https://neurocog.fernuni.ch/studies/vweber/aberisha/delayed/index.html?vp=227&sess=4,"Mozilla/5.0 (Macintosh; Intel Mac OS X 10_15_7) AppleWebKit/605.1.15 (KHTML, like Gecko) Version/17.4.1 Safari/605.1.15",MacIntel,de-DE,de-DE,Europe/Zurich,-120,1440,900,1424,66,1440,747,1,production,f5b4a49f956347addd546a832a3327688c2c0fef
efe2a,Deep Question,html.Page,1_0_0_0,NA,NA,form submission,97317,19503,19579,19705,117022,117025,2024-06-18T18:13:21Z,117050,Theorie,nadharia,d,ushungi,mkutano,uwakilishi,jfsk,NA,NA,NULL,NA,NA,NA,NA,NA,NA,NA,NA,NA,NA,NA,NA,NA,NA,NA,NA,NA,NA,NA
efe2a,Save data screen,canvas.Screen,1_0_0_1,NA,NA,timeout,500,117027,117033,117050,117533,117534,2024-06-18T18:13:22Z,117550,Theorie,nadharia,d,ushungi,mkutano,uwakilishi,NA,NA,0,NULL,NA,NA,NA,NA,NA,NA,NA,NA,NA,NA,NA,NA,NA,NA,NA,NA,NA,NA,NA
efe2a,deep,flow.Sequence,1_0_0,NA,NA,completion,97828,19503,19579,19705,117533,117535,2024-06-18T18:13:22Z,117550,Theorie,nadharia,d,ushungi,mkutano,uwakilishi,NA,NA,NA,NULL,NA,NA,NA,NA,NA,NA,NA,NA,NA,NA,NA,NA,NA,NA,NA,NA,NA,NA,NA
efe2a,task,flow.Sequence,1_0,NA,NA,completion,97828,19502,19579,19705,117533,117535,2024-06-18T18:13:22Z,117550,Theorie,nadharia,d,ushungi,mkutano,uwakilishi,NA,NA,NA,NULL,NA,NA,NA,NA,NA,NA,NA,NA,NA,NA,NA,NA,NA,NA,NA,NA,NA,NA,NA
efe2a,Deep Question,html.Page,1_1_0_0,NA,NA,form submission,7556,117535,117533,117550,125106,125107,2024-06-18T18:13:29Z,125133,Vermutung,udhanifu,s,haramia,tikisho,itifaki,ds,NA,NA,NULL,NA,NA,NA,NA,NA,NA,NA,NA,NA,NA,NA,NA,NA,NA,NA,NA,NA,NA,NA
efe2a,Save data screen,canvas.Screen,1_1_0_1,NA,NA,timeout,501,125108,125116,125133,125618,125619,2024-06-18T18:13:30Z,125634,Vermutung,udhanifu,s,haramia,tikisho,itifaki,NA,NA,0,NULL,NA,NA,NA,NA,NA,NA,NA,NA,NA,NA,NA,NA,NA,NA,NA,NA,NA,NA,NA
efe2a,deep,flow.Sequence,1_1_0,NA,NA,completion,8068,117535,117533,117550,125618,125619,2024-06-18T18:13:30Z,125634,Vermutung,udhanifu,s,haramia,tikisho,itifaki,NA,NA,NA,NULL,NA,NA,NA,NA,NA,NA,NA,NA,NA,NA,NA,NA,NA,NA,NA,NA,NA,NA,NA
efe2a,task,flow.Sequence,1_1,NA,NA,completion,8068,117535,117533,117550,125618,125619,2024-06-18T18:13:30Z,125634,Vermutung,udhanifu,s,haramia,tikisho,itifaki,NA,NA,NA,NULL,NA,NA,NA,NA,NA,NA,NA,NA,NA,NA,NA,NA,NA,NA,NA,NA,NA,NA,NA
efe2a,Deep Question,html.Page,1_2_0_0,NA,NA,form submission,5423,125619,125618,125634,131057,131058,2024-06-18T18:13:35Z,131084,Tester,wanaojaribu,s,sherti,sihiri,mlipuko,d,NA,NA,NULL,NA,NA,NA,NA,NA,NA,NA,NA,NA,NA,NA,NA,NA,NA,NA,NA,NA,NA,NA
efe2a,Save data screen,canvas.Screen,1_2_0_1,NA,NA,timeout,500,131059,131067,131084,131567,131568,2024-06-18T18:13:36Z,131584,Tester,wanaojaribu,s,sherti,sihiri,mlipuko,NA,NA,0,NULL,NA,NA,NA,NA,NA,NA,NA,NA,NA,NA,NA,NA,NA,NA,NA,NA,NA,NA,NA
efe2a,deep,flow.Sequence,1_2_0,NA,NA,completion,5933,125619,125618,125634,131567,131568,2024-06-18T18:13:36Z,131584,Tester,wanaojaribu,s,sherti,sihiri,mlipuko,NA,NA,NA,NULL,NA,NA,NA,NA,NA,NA,NA,NA,NA,NA,NA,NA,NA,NA,NA,NA,NA,NA,NA
efe2a,task,flow.Sequence,1_2,NA,NA,completion,5933,125619,125618,125634,131567,131568,2024-06-18T18:13:36Z,131584,Tester,wanaojaribu,s,sherti,sihiri,mlipuko,NA,NA,NA,NULL,NA,NA,NA,NA,NA,NA,NA,NA,NA,NA,NA,NA,NA,NA,NA,NA,NA,NA,NA
efe2a,Deep Question,html.Page,1_3_0_0,NA,NA,form submission,17441,131568,131567,131584,149025,149025,2024-06-18T18:13:53Z,149052,Notfall,dharura,s,rairai,malalamiko,ahueni,f,NA,NA,NULL,NA,NA,NA,NA,NA,NA,NA,NA,NA,NA,NA,NA,NA,NA,NA,NA,NA,NA,NA
efe2a,Save data screen,canvas.Screen,1_3_0_1,NA,NA,timeout,500,149026,149035,149052,149535,149535,2024-06-18T18:13:54Z,149552,Notfall,dharura,s,rairai,malalamiko,ahueni,NA,NA,0,NULL,NA,NA,NA,NA,NA,NA,NA,NA,NA,NA,NA,NA,NA,NA,NA,NA,NA,NA,NA
efe2a,deep,flow.Sequence,1_3_0,NA,NA,completion,17951,131568,131567,131584,149535,149535,2024-06-18T18:13:54Z,149552,Notfall,dharura,s,rairai,malalamiko,ahueni,NA,NA,NA,NULL,NA,NA,NA,NA,NA,NA,NA,NA,NA,NA,NA,NA,NA,NA,NA,NA,NA,NA,NA
efe2a,task,flow.Sequence,1_3,NA,NA,completion,17951,131568,131567,131584,149535,149535,2024-06-18T18:13:54Z,149552,Notfall,dharura,s,rairai,malalamiko,ahueni,NA,NA,NA,NULL,NA,NA,NA,NA,NA,NA,NA,NA,NA,NA,NA,NA,NA,NA,NA,NA,NA,NA,NA
efe2a,Deep Question,html.Page,1_4_0_0,NA,NA,form submission,6821,149536,149535,149552,156373,156373,2024-06-18T18:14:01Z,156402,Verpackung,ufungaji,s,uhusiano,upimaji,uchunguzi,d,NA,NA,NULL,NA,NA,NA,NA,NA,NA,NA,NA,NA,NA,NA,NA,NA,NA,NA,NA,NA,NA,NA
efe2a,Save data screen,canvas.Screen,1_4_0_1,NA,NA,timeout,501,156374,156386,156402,156886,156886,2024-06-18T18:14:01Z,156903,Verpackung,ufungaji,s,uhusiano,upimaji,uchunguzi,NA,NA,0,NULL,NA,NA,NA,NA,NA,NA,NA,NA,NA,NA,NA,NA,NA,NA,NA,NA,NA,NA,NA
efe2a,deep,flow.Sequence,1_4_0,NA,NA,completion,7334,149536,149535,149552,156886,156887,2024-06-18T18:14:01Z,156903,Verpackung,ufungaji,s,uhusiano,upimaji,uchunguzi,NA,NA,NA,NULL,NA,NA,NA,NA,NA,NA,NA,NA,NA,NA,NA,NA,NA,NA,NA,NA,NA,NA,NA
efe2a,task,flow.Sequence,1_4,NA,NA,completion,7334,149536,149535,149552,156886,156887,2024-06-18T18:14:01Z,156903,Verpackung,ufungaji,s,uhusiano,upimaji,uchunguzi,NA,NA,NA,NULL,NA,NA,NA,NA,NA,NA,NA,NA,NA,NA,NA,NA,NA,NA,NA,NA,NA,NA,NA
efe2a,Deep Question,html.Page,1_5_0_0,NA,NA,form submission,22836,156887,156886,156903,179739,179739,2024-06-18T18:14:24Z,179773,Fenster,dirisha,d,walakini,tasawari,maarifa,dirisha,NA,NA,NULL,NA,NA,NA,NA,NA,NA,NA,NA,NA,NA,NA,NA,NA,NA,NA,NA,NA,NA,NA
efe2a,Save data screen,canvas.Screen,1_5_0_1,NA,NA,timeout,498,179740,179754,179773,180254,180255,2024-06-18T18:14:24Z,180271,Fenster,dirisha,d,walakini,tasawari,maarifa,NA,NA,1,NULL,NA,NA,NA,NA,NA,NA,NA,NA,NA,NA,NA,NA,NA,NA,NA,NA,NA,NA,NA
efe2a,deep,flow.Sequence,1_5_0,NA,NA,completion,23351,156887,156886,156903,180254,180255,2024-06-18T18:14:24Z,180271,Fenster,dirisha,d,walakini,tasawari,maarifa,NA,NA,NA,NULL,NA,NA,NA,NA,NA,NA,NA,NA,NA,NA,NA,NA,NA,NA,NA,NA,NA,NA,NA
efe2a,task,flow.Sequence,1_5,NA,NA,completion,23351,156887,156886,156903,180254,180255,2024-06-18T18:14:24Z,180271,Fenster,dirisha,d,walakini,tasawari,maarifa,NA,NA,NA,NULL,NA,NA,NA,NA,NA,NA,NA,NA,NA,NA,NA,NA,NA,NA,NA,NA,NA,NA,NA
efe2a,Deep Question,html.Page,1_6_0_0,NA,NA,form submission,15040,180255,180254,180271,195311,195311,2024-06-18T18:14:40Z,195339,Wohlstand,mafanikio,d,chimbuko,kumbuko,mapwaji,f,NA,NA,NULL,NA,NA,NA,NA,NA,NA,NA,NA,NA,NA,NA,NA,NA,NA,NA,NA,NA,NA,NA
efe2a,Save data screen,canvas.Screen,1_6_0_1,NA,NA,timeout,500,195312,195321,195339,195821,195822,2024-06-18T18:14:40Z,195839,Wohlstand,mafanikio,d,chimbuko,kumbuko,mapwaji,NA,NA,0,NULL,NA,NA,NA,NA,NA,NA,NA,NA,NA,NA,NA,NA,NA,NA,NA,NA,NA,NA,NA
efe2a,deep,flow.Sequence,1_6_0,NA,NA,completion,15550,180255,180254,180271,195821,195823,2024-06-18T18:14:40Z,195839,Wohlstand,mafanikio,d,chimbuko,kumbuko,mapwaji,NA,NA,NA,NULL,NA,NA,NA,NA,NA,NA,NA,NA,NA,NA,NA,NA,NA,NA,NA,NA,NA,NA,NA
efe2a,task,flow.Sequence,1_6,NA,NA,completion,15550,180255,180254,180271,195821,195823,2024-06-18T18:14:40Z,195839,Wohlstand,mafanikio,d,chimbuko,kumbuko,mapwaji,NA,NA,NA,NULL,NA,NA,NA,NA,NA,NA,NA,NA,NA,NA,NA,NA,NA,NA,NA,NA,NA,NA,NA
efe2a,Deep Question,html.Page,1_7_0_0,NA,NA,form submission,8089,195823,195821,195839,203928,203928,2024-06-18T18:14:48Z,203955,Vergnügen,kichekesho,s,dubwana,mpanuko,mtesaji,f,NA,NA,NULL,NA,NA,NA,NA,NA,NA,NA,NA,NA,NA,NA,NA,NA,NA,NA,NA,NA,NA,NA
efe2a,Save data screen,canvas.Screen,1_7_0_1,NA,NA,timeout,501,203929,203939,203955,204439,204439,2024-06-18T18:14:49Z,204456,Vergnügen,kichekesho,s,dubwana,mpanuko,mtesaji,NA,NA,0,NULL,NA,NA,NA,NA,NA,NA,NA,NA,NA,NA,NA,NA,NA,NA,NA,NA,NA,NA,NA
efe2a,deep,flow.Sequence,1_7_0,NA,NA,completion,8600,195823,195821,195839,204439,204440,2024-06-18T18:14:49Z,204456,Vergnügen,kichekesho,s,dubwana,mpanuko,mtesaji,NA,NA,NA,NULL,NA,NA,NA,NA,NA,NA,NA,NA,NA,NA,NA,NA,NA,NA,NA,NA,NA,NA,NA
efe2a,task,flow.Sequence,1_7,NA,NA,completion,8600,195823,195821,195839,204439,204440,2024-06-18T18:14:49Z,204456,Vergnügen,kichekesho,s,dubwana,mpanuko,mtesaji,NA,NA,NA,NULL,NA,NA,NA,NA,NA,NA,NA,NA,NA,NA,NA,NA,NA,NA,NA,NA,NA,NA,NA
efe2a,Deep Question,html.Page,1_8_0_0,NA,NA,form submission,21124,204440,204439,204456,225580,225580,2024-06-18T18:15:10Z,225607,Inhalt,yaliyomo,s,kishawishi,hifadhi,kutembea,f,NA,NA,NULL,NA,NA,NA,NA,NA,NA,NA,NA,NA,NA,NA,NA,NA,NA,NA,NA,NA,NA,NA
efe2a,Save data screen,canvas.Screen,1_8_0_1,NA,NA,timeout,484,225581,225591,225607,226080,226081,2024-06-18T18:15:10Z,226091,Inhalt,yaliyomo,s,kishawishi,hifadhi,kutembea,NA,NA,0,NULL,NA,NA,NA,NA,NA,NA,NA,NA,NA,NA,NA,NA,NA,NA,NA,NA,NA,NA,NA
efe2a,deep,flow.Sequence,1_8_0,NA,NA,completion,21624,204440,204439,204456,226080,226081,2024-06-18T18:15:10Z,226091,Inhalt,yaliyomo,s,kishawishi,hifadhi,kutembea,NA,NA,NA,NULL,NA,NA,NA,NA,NA,NA,NA,NA,NA,NA,NA,NA,NA,NA,NA,NA,NA,NA,NA
efe2a,task,flow.Sequence,1_8,NA,NA,completion,21624,204440,204439,204456,226080,226081,2024-06-18T18:15:10Z,226091,Inhalt,yaliyomo,s,kishawishi,hifadhi,kutembea,NA,NA,NA,NULL,NA,NA,NA,NA,NA,NA,NA,NA,NA,NA,NA,NA,NA,NA,NA,NA,NA,NA,NA
efe2a,Deep Question,html.Page,1_9_0_0,NA,NA,form submission,47708,226081,226080,226091,273799,273799,2024-06-18T18:15:58Z,273827,Schlange,foleni,d,uvumilivu,uteuzi,muuzaji,f,NA,NA,NULL,NA,NA,NA,NA,NA,NA,NA,NA,NA,NA,NA,NA,NA,NA,NA,NA,NA,NA,NA
efe2a,Save data screen,canvas.Screen,1_9_0_1,NA,NA,timeout,500,273800,273810,273827,274311,274311,2024-06-18T18:15:59Z,274327,Schlange,foleni,d,uvumilivu,uteuzi,muuzaji,NA,NA,0,NULL,NA,NA,NA,NA,NA,NA,NA,NA,NA,NA,NA,NA,NA,NA,NA,NA,NA,NA,NA
efe2a,deep,flow.Sequence,1_9_0,NA,NA,completion,48220,226081,226080,226091,274311,274312,2024-06-18T18:15:59Z,274327,Schlange,foleni,d,uvumilivu,uteuzi,muuzaji,NA,NA,NA,NULL,NA,NA,NA,NA,NA,NA,NA,NA,NA,NA,NA,NA,NA,NA,NA,NA,NA,NA,NA
efe2a,task,flow.Sequence,1_9,NA,NA,completion,48220,226081,226080,226091,274311,274312,2024-06-18T18:15:59Z,274327,Schlange,foleni,d,uvumilivu,uteuzi,muuzaji,NA,NA,NA,NULL,NA,NA,NA,NA,NA,NA,NA,NA,NA,NA,NA,NA,NA,NA,NA,NA,NA,NA,NA
efe2a,Deep Question,html.Page,1_10_0_0,NA,NA,form submission,33142,274312,274311,274327,307469,307470,2024-06-18T18:16:32Z,307497,Toleranz,kuvumiliana,d,maombolezo,ujasusi,mchekeshaji,d,NA,NA,NULL,NA,NA,NA,NA,NA,NA,NA,NA,NA,NA,NA,NA,NA,NA,NA,NA,NA,NA,NA
efe2a,Save data screen,canvas.Screen,1_10_0_1,NA,NA,timeout,499,307471,307479,307497,307979,307980,2024-06-18T18:16:32Z,307996,Toleranz,kuvumiliana,d,maombolezo,ujasusi,mchekeshaji,NA,NA,0,NULL,NA,NA,NA,NA,NA,NA,NA,NA,NA,NA,NA,NA,NA,NA,NA,NA,NA,NA,NA
efe2a,deep,flow.Sequence,1_10_0,NA,NA,completion,33652,274312,274311,274327,307979,307980,2024-06-18T18:16:32Z,307996,Toleranz,kuvumiliana,d,maombolezo,ujasusi,mchekeshaji,NA,NA,NA,NULL,NA,NA,NA,NA,NA,NA,NA,NA,NA,NA,NA,NA,NA,NA,NA,NA,NA,NA,NA
efe2a,task,flow.Sequence,1_10,NA,NA,completion,33652,274312,274311,274327,307979,307980,2024-06-18T18:16:32Z,307996,Toleranz,kuvumiliana,d,maombolezo,ujasusi,mchekeshaji,NA,NA,NA,NULL,NA,NA,NA,NA,NA,NA,NA,NA,NA,NA,NA,NA,NA,NA,NA,NA,NA,NA,NA
efe2a,Deep Question,html.Page,1_11_0_0,NA,NA,form submission,7289,307983,307979,307996,315285,315285,2024-06-18T18:16:39Z,315313,Spionage,upelelezi,d,maslahi,utokazo,magangao,d,NA,NA,NULL,NA,NA,NA,NA,NA,NA,NA,NA,NA,NA,NA,NA,NA,NA,NA,NA,NA,NA,NA
efe2a,Save data screen,canvas.Screen,1_11_0_1,NA,NA,timeout,501,315288,315297,315313,315797,315798,2024-06-18T18:16:40Z,315814,Spionage,upelelezi,d,maslahi,utokazo,magangao,NA,NA,0,NULL,NA,NA,NA,NA,NA,NA,NA,NA,NA,NA,NA,NA,NA,NA,NA,NA,NA,NA,NA
efe2a,deep,flow.Sequence,1_11_0,NA,NA,completion,7801,307983,307979,307996,315797,315798,2024-06-18T18:16:40Z,315814,Spionage,upelelezi,d,maslahi,utokazo,magangao,NA,NA,NA,NULL,NA,NA,NA,NA,NA,NA,NA,NA,NA,NA,NA,NA,NA,NA,NA,NA,NA,NA,NA
efe2a,task,flow.Sequence,1_11,NA,NA,completion,7801,307983,307979,307996,315797,315798,2024-06-18T18:16:40Z,315814,Spionage,upelelezi,d,maslahi,utokazo,magangao,NA,NA,NA,NULL,NA,NA,NA,NA,NA,NA,NA,NA,NA,NA,NA,NA,NA,NA,NA,NA,NA,NA,NA
efe2a,Deep Question,html.Page,1_12_0_0,NA,NA,form submission,21556,315798,315797,315814,337370,337370,2024-06-18T18:17:02Z,337398,Schock,mshtuko,d,biashara,kukataza,vichekesho,f,NA,NA,NULL,NA,NA,NA,NA,NA,NA,NA,NA,NA,NA,NA,NA,NA,NA,NA,NA,NA,NA,NA
efe2a,Save data screen,canvas.Screen,1_12_0_1,NA,NA,timeout,501,337371,337382,337398,337881,337882,2024-06-18T18:17:02Z,337899,Schock,mshtuko,d,biashara,kukataza,vichekesho,NA,NA,0,NULL,NA,NA,NA,NA,NA,NA,NA,NA,NA,NA,NA,NA,NA,NA,NA,NA,NA,NA,NA
efe2a,deep,flow.Sequence,1_12_0,NA,NA,completion,22067,315798,315797,315814,337881,337882,2024-06-18T18:17:02Z,337899,Schock,mshtuko,d,biashara,kukataza,vichekesho,NA,NA,NA,NULL,NA,NA,NA,NA,NA,NA,NA,NA,NA,NA,NA,NA,NA,NA,NA,NA,NA,NA,NA
efe2a,task,flow.Sequence,1_12,NA,NA,completion,22067,315798,315797,315814,337881,337882,2024-06-18T18:17:02Z,337899,Schock,mshtuko,d,biashara,kukataza,vichekesho,NA,NA,NA,NULL,NA,NA,NA,NA,NA,NA,NA,NA,NA,NA,NA,NA,NA,NA,NA,NA,NA,NA,NA
efe2a,Deep Question,html.Page,1_13_0_0,NA,NA,form submission,18322,337882,337881,337899,356221,356221,2024-06-18T18:17:20Z,356250,Schüler,mwanafunzi,s,mwekezaji,matumizi,uaminifu,f,NA,NA,NULL,NA,NA,NA,NA,NA,NA,NA,NA,NA,NA,NA,NA,NA,NA,NA,NA,NA,NA,NA
efe2a,Save data screen,canvas.Screen,1_13_0_1,NA,NA,timeout,500,356222,356232,356250,356732,356733,2024-06-18T18:17:21Z,356750,Schüler,mwanafunzi,s,mwekezaji,matumizi,uaminifu,NA,NA,0,NULL,NA,NA,NA,NA,NA,NA,NA,NA,NA,NA,NA,NA,NA,NA,NA,NA,NA,NA,NA
efe2a,deep,flow.Sequence,1_13_0,NA,NA,completion,18833,337882,337881,337899,356732,356733,2024-06-18T18:17:21Z,356750,Schüler,mwanafunzi,s,mwekezaji,matumizi,uaminifu,NA,NA,NA,NULL,NA,NA,NA,NA,NA,NA,NA,NA,NA,NA,NA,NA,NA,NA,NA,NA,NA,NA,NA
efe2a,task,flow.Sequence,1_13,NA,NA,completion,18833,337882,337881,337899,356732,356733,2024-06-18T18:17:21Z,356750,Schüler,mwanafunzi,s,mwekezaji,matumizi,uaminifu,NA,NA,NA,NULL,NA,NA,NA,NA,NA,NA,NA,NA,NA,NA,NA,NA,NA,NA,NA,NA,NA,NA,NA
efe2a,Deep Question,html.Page,1_14_0_0,NA,NA,form submission,20924,356733,356732,356750,377674,377674,2024-06-18T18:17:42Z,377701,Hoffnung,matarajio,s,kutaalamika,uratibu,mvumbuzi,f,NA,NA,NULL,NA,NA,NA,NA,NA,NA,NA,NA,NA,NA,NA,NA,NA,NA,NA,NA,NA,NA,NA
efe2a,Save data screen,canvas.Screen,1_14_0_1,NA,NA,timeout,500,377675,377684,377701,378184,378184,2024-06-18T18:17:42Z,378201,Hoffnung,matarajio,s,kutaalamika,uratibu,mvumbuzi,NA,NA,0,NULL,NA,NA,NA,NA,NA,NA,NA,NA,NA,NA,NA,NA,NA,NA,NA,NA,NA,NA,NA
efe2a,deep,flow.Sequence,1_14_0,NA,NA,completion,21434,356733,356732,356750,378184,378185,2024-06-18T18:17:42Z,378201,Hoffnung,matarajio,s,kutaalamika,uratibu,mvumbuzi,NA,NA,NA,NULL,NA,NA,NA,NA,NA,NA,NA,NA,NA,NA,NA,NA,NA,NA,NA,NA,NA,NA,NA
efe2a,task,flow.Sequence,1_14,NA,NA,completion,21434,356733,356732,356750,378184,378185,2024-06-18T18:17:42Z,378201,Hoffnung,matarajio,s,kutaalamika,uratibu,mvumbuzi,NA,NA,NA,NULL,NA,NA,NA,NA,NA,NA,NA,NA,NA,NA,NA,NA,NA,NA,NA,NA,NA,NA,NA
efe2a,Deep Question,html.Page,1_15_0_0,NA,NA,form submission,5156,378185,378184,378201,383357,383357,2024-06-18T18:17:48Z,383384,Ergänzung,kijalizo,d,ulaghai,mustarehe,matangazo,d,NA,NA,NULL,NA,NA,NA,NA,NA,NA,NA,NA,NA,NA,NA,NA,NA,NA,NA,NA,NA,NA,NA
efe2a,Save data screen,canvas.Screen,1_15_0_1,NA,NA,timeout,801,383358,383367,383384,383868,383868,2024-06-18T18:17:48Z,384185,Ergänzung,kijalizo,d,ulaghai,mustarehe,matangazo,NA,NA,0,NULL,NA,NA,NA,NA,NA,NA,NA,NA,NA,NA,NA,NA,NA,NA,NA,NA,NA,NA,NA
efe2a,deep,flow.Sequence,1_15_0,NA,NA,completion,5667,378185,378184,378201,383868,383869,2024-06-18T18:17:48Z,384185,Ergänzung,kijalizo,d,ulaghai,mustarehe,matangazo,NA,NA,NA,NULL,NA,NA,NA,NA,NA,NA,NA,NA,NA,NA,NA,NA,NA,NA,NA,NA,NA,NA,NA
efe2a,task,flow.Sequence,1_15,NA,NA,completion,5667,378185,378184,378201,383868,383869,2024-06-18T18:17:48Z,384185,Ergänzung,kijalizo,d,ulaghai,mustarehe,matangazo,NA,NA,NA,NULL,NA,NA,NA,NA,NA,NA,NA,NA,NA,NA,NA,NA,NA,NA,NA,NA,NA,NA,NA
efe2a,retrieval block 1 (cued recall),flow.Loop,1,NA,NA,completion,364163,19502,19579,19705,383868,383869,2024-06-18T18:17:48Z,384185,NA,NA,NA,NA,NA,NA,NA,NA,NA,NULL,NA,NA,NA,NA,NA,NA,NA,NA,NA,NA,NA,NA,NA,NA,NA,NA,NA,NA,NA
efe2a,Shallow Question,html.Page,2_0_0_0,NA,NA,form submission,13946,383870,383868,384185,398131,398131,2024-06-18T18:18:02Z,398170,Fenster,dirisha,d,walakini,tasawari,maarifa,dirisha,NA,NA,"c(""distractor1"", ""distractor2"", ""distractor3"")",NA,NA,NA,NA,NA,NA,NA,NA,NA,NA,NA,NA,NA,NA,NA,NA,NA,NA,NA
efe2a,Save data screen,canvas.Screen,2_0_0_1,NA,NA,timeout,499,398131,398153,398170,398652,398653,2024-06-18T18:18:03Z,398669,Fenster,dirisha,d,walakini,tasawari,maarifa,NA,NA,1,"c(""distractor1"", ""distractor2"", ""distractor3"")",NA,NA,NA,NA,NA,NA,NA,NA,NA,NA,NA,NA,NA,NA,NA,NA,NA,NA,NA
efe2a,shallow,flow.Sequence,2_0_0,NA,NA,completion,14467,383870,383868,384185,398652,398653,2024-06-18T18:18:03Z,398669,Fenster,dirisha,d,walakini,tasawari,maarifa,NA,NA,NA,"c(""distractor1"", ""distractor2"", ""distractor3"")",NA,NA,NA,NA,NA,NA,NA,NA,NA,NA,NA,NA,NA,NA,NA,NA,NA,NA,NA
efe2a,task,flow.Sequence,2_0,NA,NA,completion,14467,383870,383868,384185,398652,398653,2024-06-18T18:18:03Z,398669,Fenster,dirisha,d,walakini,tasawari,maarifa,NA,NA,NA,"c(""distractor1"", ""distractor2"", ""distractor3"")",NA,NA,NA,NA,NA,NA,NA,NA,NA,NA,NA,NA,NA,NA,NA,NA,NA,NA,NA
efe2a,Shallow Question,html.Page,2_1_0_0,NA,NA,form submission,14256,398653,398652,398669,412925,412925,2024-06-18T18:18:17Z,412953,Verpackung,ufungaji,s,uhusiano,upimaji,uchunguzi,ufungaji,NA,NA,"c(""distractor1"", ""distractor2"", ""distractor3"")",NA,NA,NA,NA,NA,NA,NA,NA,NA,NA,NA,NA,NA,NA,NA,NA,NA,NA,NA
efe2a,Save data screen,canvas.Screen,2_1_0_1,NA,NA,timeout,500,412926,412937,412953,413437,413438,2024-06-18T18:18:18Z,413453,Verpackung,ufungaji,s,uhusiano,upimaji,uchunguzi,NA,NA,1,"c(""distractor1"", ""distractor2"", ""distractor3"")",NA,NA,NA,NA,NA,NA,NA,NA,NA,NA,NA,NA,NA,NA,NA,NA,NA,NA,NA
efe2a,shallow,flow.Sequence,2_1_0,NA,NA,completion,14768,398653,398652,398669,413437,413438,2024-06-18T18:18:18Z,413453,Verpackung,ufungaji,s,uhusiano,upimaji,uchunguzi,NA,NA,NA,"c(""distractor1"", ""distractor2"", ""distractor3"")",NA,NA,NA,NA,NA,NA,NA,NA,NA,NA,NA,NA,NA,NA,NA,NA,NA,NA,NA
efe2a,task,flow.Sequence,2_1,NA,NA,completion,14768,398653,398652,398669,413437,413438,2024-06-18T18:18:18Z,413453,Verpackung,ufungaji,s,uhusiano,upimaji,uchunguzi,NA,NA,NA,"c(""distractor1"", ""distractor2"", ""distractor3"")",NA,NA,NA,NA,NA,NA,NA,NA,NA,NA,NA,NA,NA,NA,NA,NA,NA,NA,NA
efe2a,Shallow Question,html.Page,2_2_0_0,NA,NA,form submission,17340,413439,413437,413453,430793,430793,2024-06-18T18:18:35Z,430822,Toleranz,kuvumiliana,d,maombolezo,ujasusi,mchekeshaji,mchekeshaji,NA,NA,"c(""distractor1"", ""distractor2"", ""distractor3"")",NA,NA,NA,NA,NA,NA,NA,NA,NA,NA,NA,NA,NA,NA,NA,NA,NA,NA,NA
efe2a,Save data screen,canvas.Screen,2_2_0_1,NA,NA,timeout,499,430794,430804,430822,431304,431305,2024-06-18T18:18:36Z,431321,Toleranz,kuvumiliana,d,maombolezo,ujasusi,mchekeshaji,NA,NA,0,"c(""distractor1"", ""distractor2"", ""distractor3"")",NA,NA,NA,NA,NA,NA,NA,NA,NA,NA,NA,NA,NA,NA,NA,NA,NA,NA,NA
efe2a,shallow,flow.Sequence,2_2_0,NA,NA,completion,17851,413439,413437,413453,431304,431305,2024-06-18T18:18:36Z,431321,Toleranz,kuvumiliana,d,maombolezo,ujasusi,mchekeshaji,NA,NA,NA,"c(""distractor1"", ""distractor2"", ""distractor3"")",NA,NA,NA,NA,NA,NA,NA,NA,NA,NA,NA,NA,NA,NA,NA,NA,NA,NA,NA
efe2a,task,flow.Sequence,2_2,NA,NA,completion,17851,413438,413437,413453,431304,431305,2024-06-18T18:18:36Z,431321,Toleranz,kuvumiliana,d,maombolezo,ujasusi,mchekeshaji,NA,NA,NA,"c(""distractor1"", ""distractor2"", ""distractor3"")",NA,NA,NA,NA,NA,NA,NA,NA,NA,NA,NA,NA,NA,NA,NA,NA,NA,NA,NA
efe2a,Shallow Question,html.Page,2_3_0_0,NA,NA,form submission,10239,431305,431304,431321,441560,441560,2024-06-18T18:18:46Z,441589,Schock,mshtuko,d,biashara,kukataza,vichekesho,mshtuko,NA,NA,"c(""distractor1"", ""distractor2"", ""distractor3"")",NA,NA,NA,NA,NA,NA,NA,NA,NA,NA,NA,NA,NA,NA,NA,NA,NA,NA,NA
efe2a,Save data screen,canvas.Screen,2_3_0_1,NA,NA,timeout,500,441561,441572,441589,442072,442073,2024-06-18T18:18:46Z,442089,Schock,mshtuko,d,biashara,kukataza,vichekesho,NA,NA,1,"c(""distractor1"", ""distractor2"", ""distractor3"")",NA,NA,NA,NA,NA,NA,NA,NA,NA,NA,NA,NA,NA,NA,NA,NA,NA,NA,NA
efe2a,shallow,flow.Sequence,2_3_0,NA,NA,completion,10751,431305,431304,431321,442072,442073,2024-06-18T18:18:46Z,442089,Schock,mshtuko,d,biashara,kukataza,vichekesho,NA,NA,NA,"c(""distractor1"", ""distractor2"", ""distractor3"")",NA,NA,NA,NA,NA,NA,NA,NA,NA,NA,NA,NA,NA,NA,NA,NA,NA,NA,NA
efe2a,task,flow.Sequence,2_3,NA,NA,completion,10751,431305,431304,431321,442072,442073,2024-06-18T18:18:46Z,442089,Schock,mshtuko,d,biashara,kukataza,vichekesho,NA,NA,NA,"c(""distractor1"", ""distractor2"", ""distractor3"")",NA,NA,NA,NA,NA,NA,NA,NA,NA,NA,NA,NA,NA,NA,NA,NA,NA,NA,NA
efe2a,Shallow Question,html.Page,2_4_0_0,NA,NA,form submission,13572,442073,442072,442089,455661,455661,2024-06-18T18:19:00Z,455691,Vergnügen,kichekesho,s,dubwana,mpanuko,mtesaji,kichekesho,NA,NA,"c(""distractor1"", ""distractor2"", ""distractor3"")",NA,NA,NA,NA,NA,NA,NA,NA,NA,NA,NA,NA,NA,NA,NA,NA,NA,NA,NA
efe2a,Save data screen,canvas.Screen,2_4_0_1,NA,NA,timeout,499,455662,455673,455691,456173,456174,2024-06-18T18:19:00Z,456190,Vergnügen,kichekesho,s,dubwana,mpanuko,mtesaji,NA,NA,1,"c(""distractor1"", ""distractor2"", ""distractor3"")",NA,NA,NA,NA,NA,NA,NA,NA,NA,NA,NA,NA,NA,NA,NA,NA,NA,NA,NA
efe2a,shallow,flow.Sequence,2_4_0,NA,NA,completion,14084,442073,442072,442089,456173,456174,2024-06-18T18:19:00Z,456190,Vergnügen,kichekesho,s,dubwana,mpanuko,mtesaji,NA,NA,NA,"c(""distractor1"", ""distractor2"", ""distractor3"")",NA,NA,NA,NA,NA,NA,NA,NA,NA,NA,NA,NA,NA,NA,NA,NA,NA,NA,NA
efe2a,task,flow.Sequence,2_4,NA,NA,completion,14084,442073,442072,442089,456173,456174,2024-06-18T18:19:00Z,456190,Vergnügen,kichekesho,s,dubwana,mpanuko,mtesaji,NA,NA,NA,"c(""distractor1"", ""distractor2"", ""distractor3"")",NA,NA,NA,NA,NA,NA,NA,NA,NA,NA,NA,NA,NA,NA,NA,NA,NA,NA,NA
efe2a,Shallow Question,html.Page,2_5_0_0,NA,NA,form submission,12856,456174,456173,456190,469046,469046,2024-06-18T18:19:13Z,469075,Schüler,mwanafunzi,s,mwekezaji,matumizi,uaminifu,mwanafunzi,NA,NA,"c(""distractor1"", ""distractor2"", ""distractor3"")",NA,NA,NA,NA,NA,NA,NA,NA,NA,NA,NA,NA,NA,NA,NA,NA,NA,NA,NA
efe2a,Save data screen,canvas.Screen,2_5_0_1,NA,NA,timeout,499,469047,469057,469075,469557,469558,2024-06-18T18:19:14Z,469574,Schüler,mwanafunzi,s,mwekezaji,matumizi,uaminifu,NA,NA,1,"c(""distractor1"", ""distractor2"", ""distractor3"")",NA,NA,NA,NA,NA,NA,NA,NA,NA,NA,NA,NA,NA,NA,NA,NA,NA,NA,NA
efe2a,shallow,flow.Sequence,2_5_0,NA,NA,completion,13367,456174,456173,456190,469557,469558,2024-06-18T18:19:14Z,469574,Schüler,mwanafunzi,s,mwekezaji,matumizi,uaminifu,NA,NA,NA,"c(""distractor1"", ""distractor2"", ""distractor3"")",NA,NA,NA,NA,NA,NA,NA,NA,NA,NA,NA,NA,NA,NA,NA,NA,NA,NA,NA
efe2a,task,flow.Sequence,2_5,NA,NA,completion,13367,456174,456173,456190,469557,469558,2024-06-18T18:19:14Z,469574,Schüler,mwanafunzi,s,mwekezaji,matumizi,uaminifu,NA,NA,NA,"c(""distractor1"", ""distractor2"", ""distractor3"")",NA,NA,NA,NA,NA,NA,NA,NA,NA,NA,NA,NA,NA,NA,NA,NA,NA,NA,NA
efe2a,Shallow Question,html.Page,2_6_0_0,NA,NA,form submission,64560,469558,469557,469574,534134,534134,2024-06-18T18:20:18Z,534162,Theorie,nadharia,d,ushungi,mkutano,uwakilishi,uwakilishi,NA,NA,"c(""distractor1"", ""distractor2"", ""distractor3"")",NA,NA,NA,NA,NA,NA,NA,NA,NA,NA,NA,NA,NA,NA,NA,NA,NA,NA,NA
efe2a,Save data screen,canvas.Screen,2_6_0_1,NA,NA,timeout,499,534135,534146,534162,534646,534646,2024-06-18T18:20:19Z,534661,Theorie,nadharia,d,ushungi,mkutano,uwakilishi,NA,NA,0,"c(""distractor1"", ""distractor2"", ""distractor3"")",NA,NA,NA,NA,NA,NA,NA,NA,NA,NA,NA,NA,NA,NA,NA,NA,NA,NA,NA
efe2a,shallow,flow.Sequence,2_6_0,NA,NA,completion,65072,469558,469557,469574,534646,534646,2024-06-18T18:20:19Z,534661,Theorie,nadharia,d,ushungi,mkutano,uwakilishi,NA,NA,NA,"c(""distractor1"", ""distractor2"", ""distractor3"")",NA,NA,NA,NA,NA,NA,NA,NA,NA,NA,NA,NA,NA,NA,NA,NA,NA,NA,NA
efe2a,task,flow.Sequence,2_6,NA,NA,completion,65072,469558,469557,469574,534646,534647,2024-06-18T18:20:19Z,534661,Theorie,nadharia,d,ushungi,mkutano,uwakilishi,NA,NA,NA,"c(""distractor1"", ""distractor2"", ""distractor3"")",NA,NA,NA,NA,NA,NA,NA,NA,NA,NA,NA,NA,NA,NA,NA,NA,NA,NA,NA
efe2a,Shallow Question,html.Page,2_7_0_0,NA,NA,form submission,44043,534647,534646,534661,578704,578704,2024-06-18T18:21:03Z,578731,Wohlstand,mafanikio,d,chimbuko,kumbuko,mapwaji,mafanikio,NA,NA,"c(""distractor1"", ""distractor2"", ""distractor3"")",NA,NA,NA,NA,NA,NA,NA,NA,NA,NA,NA,NA,NA,NA,NA,NA,NA,NA,NA
efe2a,Save data screen,canvas.Screen,2_7_0_1,NA,NA,timeout,500,578705,578714,578731,579215,579216,2024-06-18T18:21:03Z,579231,Wohlstand,mafanikio,d,chimbuko,kumbuko,mapwaji,NA,NA,1,"c(""distractor1"", ""distractor2"", ""distractor3"")",NA,NA,NA,NA,NA,NA,NA,NA,NA,NA,NA,NA,NA,NA,NA,NA,NA,NA,NA
efe2a,shallow,flow.Sequence,2_7_0,NA,NA,completion,44554,534647,534646,534661,579215,579216,2024-06-18T18:21:03Z,579231,Wohlstand,mafanikio,d,chimbuko,kumbuko,mapwaji,NA,NA,NA,"c(""distractor1"", ""distractor2"", ""distractor3"")",NA,NA,NA,NA,NA,NA,NA,NA,NA,NA,NA,NA,NA,NA,NA,NA,NA,NA,NA
efe2a,task,flow.Sequence,2_7,NA,NA,completion,44554,534647,534646,534661,579215,579216,2024-06-18T18:21:03Z,579231,Wohlstand,mafanikio,d,chimbuko,kumbuko,mapwaji,NA,NA,NA,"c(""distractor1"", ""distractor2"", ""distractor3"")",NA,NA,NA,NA,NA,NA,NA,NA,NA,NA,NA,NA,NA,NA,NA,NA,NA,NA,NA
efe2a,Shallow Question,html.Page,2_8_0_0,NA,NA,form submission,13673,579217,579215,579231,592904,592904,2024-06-18T18:21:17Z,592932,Vermutung,udhanifu,s,haramia,tikisho,itifaki,udhanifu,NA,NA,"c(""distractor1"", ""distractor2"", ""distractor3"")",NA,NA,NA,NA,NA,NA,NA,NA,NA,NA,NA,NA,NA,NA,NA,NA,NA,NA,NA
efe2a,Save data screen,canvas.Screen,2_8_0_1,NA,NA,timeout,500,592905,592916,592932,593415,593416,2024-06-18T18:21:18Z,593432,Vermutung,udhanifu,s,haramia,tikisho,itifaki,NA,NA,1,"c(""distractor1"", ""distractor2"", ""distractor3"")",NA,NA,NA,NA,NA,NA,NA,NA,NA,NA,NA,NA,NA,NA,NA,NA,NA,NA,NA
efe2a,shallow,flow.Sequence,2_8_0,NA,NA,completion,14184,579217,579215,579231,593415,593416,2024-06-18T18:21:18Z,593432,Vermutung,udhanifu,s,haramia,tikisho,itifaki,NA,NA,NA,"c(""distractor1"", ""distractor2"", ""distractor3"")",NA,NA,NA,NA,NA,NA,NA,NA,NA,NA,NA,NA,NA,NA,NA,NA,NA,NA,NA
efe2a,task,flow.Sequence,2_8,NA,NA,completion,14184,579216,579215,579231,593415,593416,2024-06-18T18:21:18Z,593432,Vermutung,udhanifu,s,haramia,tikisho,itifaki,NA,NA,NA,"c(""distractor1"", ""distractor2"", ""distractor3"")",NA,NA,NA,NA,NA,NA,NA,NA,NA,NA,NA,NA,NA,NA,NA,NA,NA,NA,NA
efe2a,Shallow Question,html.Page,2_9_0_0,NA,NA,form submission,11923,593416,593415,593432,605355,605355,2024-06-18T18:21:30Z,605383,Ergänzung,kijalizo,d,ulaghai,mustarehe,matangazo,kijalizo,NA,NA,"c(""distractor1"", ""distractor2"", ""distractor3"")",NA,NA,NA,NA,NA,NA,NA,NA,NA,NA,NA,NA,NA,NA,NA,NA,NA,NA,NA
efe2a,Save data screen,canvas.Screen,2_9_0_1,NA,NA,timeout,501,605356,605367,605383,605867,605868,2024-06-18T18:21:30Z,605884,Ergänzung,kijalizo,d,ulaghai,mustarehe,matangazo,NA,NA,1,"c(""distractor1"", ""distractor2"", ""distractor3"")",NA,NA,NA,NA,NA,NA,NA,NA,NA,NA,NA,NA,NA,NA,NA,NA,NA,NA,NA
efe2a,shallow,flow.Sequence,2_9_0,NA,NA,completion,12435,593416,593415,593432,605867,605868,2024-06-18T18:21:30Z,605884,Ergänzung,kijalizo,d,ulaghai,mustarehe,matangazo,NA,NA,NA,"c(""distractor1"", ""distractor2"", ""distractor3"")",NA,NA,NA,NA,NA,NA,NA,NA,NA,NA,NA,NA,NA,NA,NA,NA,NA,NA,NA
efe2a,task,flow.Sequence,2_9,NA,NA,completion,12435,593416,593415,593432,605867,605868,2024-06-18T18:21:30Z,605884,Ergänzung,kijalizo,d,ulaghai,mustarehe,matangazo,NA,NA,NA,"c(""distractor1"", ""distractor2"", ""distractor3"")",NA,NA,NA,NA,NA,NA,NA,NA,NA,NA,NA,NA,NA,NA,NA,NA,NA,NA,NA
efe2a,Shallow Question,html.Page,2_10_0_0,NA,NA,form submission,7071,605868,605867,605884,612955,612956,2024-06-18T18:21:37Z,612984,Inhalt,yaliyomo,s,kishawishi,hifadhi,kutembea,kishawishi,NA,NA,"c(""distractor1"", ""distractor2"", ""distractor3"")",NA,NA,NA,NA,NA,NA,NA,NA,NA,NA,NA,NA,NA,NA,NA,NA,NA,NA,NA
efe2a,Save data screen,canvas.Screen,2_10_0_1,NA,NA,timeout,500,612956,612967,612984,613468,613469,2024-06-18T18:21:38Z,613484,Inhalt,yaliyomo,s,kishawishi,hifadhi,kutembea,NA,NA,0,"c(""distractor1"", ""distractor2"", ""distractor3"")",NA,NA,NA,NA,NA,NA,NA,NA,NA,NA,NA,NA,NA,NA,NA,NA,NA,NA,NA
efe2a,shallow,flow.Sequence,2_10_0,NA,NA,completion,7584,605868,605867,605884,613468,613469,2024-06-18T18:21:38Z,613484,Inhalt,yaliyomo,s,kishawishi,hifadhi,kutembea,NA,NA,NA,"c(""distractor1"", ""distractor2"", ""distractor3"")",NA,NA,NA,NA,NA,NA,NA,NA,NA,NA,NA,NA,NA,NA,NA,NA,NA,NA,NA
efe2a,task,flow.Sequence,2_10,NA,NA,completion,7584,605868,605867,605884,613468,613469,2024-06-18T18:21:38Z,613484,Inhalt,yaliyomo,s,kishawishi,hifadhi,kutembea,NA,NA,NA,"c(""distractor1"", ""distractor2"", ""distractor3"")",NA,NA,NA,NA,NA,NA,NA,NA,NA,NA,NA,NA,NA,NA,NA,NA,NA,NA,NA
efe2a,Shallow Question,html.Page,2_11_0_0,NA,NA,form submission,12872,613469,613468,613484,626356,626356,2024-06-18T18:21:51Z,626385,Spionage,upelelezi,d,maslahi,utokazo,magangao,upelelezi,NA,NA,"c(""distractor1"", ""distractor2"", ""distractor3"")",NA,NA,NA,NA,NA,NA,NA,NA,NA,NA,NA,NA,NA,NA,NA,NA,NA,NA,NA
efe2a,Save data screen,canvas.Screen,2_11_0_1,NA,NA,timeout,500,626356,626369,626385,626867,626868,2024-06-18T18:21:51Z,626885,Spionage,upelelezi,d,maslahi,utokazo,magangao,NA,NA,1,"c(""distractor1"", ""distractor2"", ""distractor3"")",NA,NA,NA,NA,NA,NA,NA,NA,NA,NA,NA,NA,NA,NA,NA,NA,NA,NA,NA
efe2a,shallow,flow.Sequence,2_11_0,NA,NA,completion,13383,613469,613468,613484,626867,626868,2024-06-18T18:21:51Z,626885,Spionage,upelelezi,d,maslahi,utokazo,magangao,NA,NA,NA,"c(""distractor1"", ""distractor2"", ""distractor3"")",NA,NA,NA,NA,NA,NA,NA,NA,NA,NA,NA,NA,NA,NA,NA,NA,NA,NA,NA
efe2a,task,flow.Sequence,2_11,NA,NA,completion,13383,613469,613468,613484,626867,626868,2024-06-18T18:21:51Z,626885,Spionage,upelelezi,d,maslahi,utokazo,magangao,NA,NA,NA,"c(""distractor1"", ""distractor2"", ""distractor3"")",NA,NA,NA,NA,NA,NA,NA,NA,NA,NA,NA,NA,NA,NA,NA,NA,NA,NA,NA
efe2a,Shallow Question,html.Page,2_12_0_0,NA,NA,form submission,10272,626868,626867,626885,637157,637157,2024-06-18T18:22:01Z,637185,Schlange,foleni,d,uvumilivu,uteuzi,muuzaji,foleni,NA,NA,"c(""distractor1"", ""distractor2"", ""distractor3"")",NA,NA,NA,NA,NA,NA,NA,NA,NA,NA,NA,NA,NA,NA,NA,NA,NA,NA,NA
efe2a,Save data screen,canvas.Screen,2_12_0_1,NA,NA,timeout,500,637157,637168,637185,637669,637670,2024-06-18T18:22:02Z,637685,Schlange,foleni,d,uvumilivu,uteuzi,muuzaji,NA,NA,1,"c(""distractor1"", ""distractor2"", ""distractor3"")",NA,NA,NA,NA,NA,NA,NA,NA,NA,NA,NA,NA,NA,NA,NA,NA,NA,NA,NA
efe2a,shallow,flow.Sequence,2_12_0,NA,NA,completion,10784,626868,626867,626885,637669,637670,2024-06-18T18:22:02Z,637685,Schlange,foleni,d,uvumilivu,uteuzi,muuzaji,NA,NA,NA,"c(""distractor1"", ""distractor2"", ""distractor3"")",NA,NA,NA,NA,NA,NA,NA,NA,NA,NA,NA,NA,NA,NA,NA,NA,NA,NA,NA
efe2a,task,flow.Sequence,2_12,NA,NA,completion,10784,626868,626867,626885,637669,637670,2024-06-18T18:22:02Z,637685,Schlange,foleni,d,uvumilivu,uteuzi,muuzaji,NA,NA,NA,"c(""distractor1"", ""distractor2"", ""distractor3"")",NA,NA,NA,NA,NA,NA,NA,NA,NA,NA,NA,NA,NA,NA,NA,NA,NA,NA,NA
efe2a,Shallow Question,html.Page,2_13_0_0,NA,NA,form submission,35325,637670,637669,637685,673010,673010,2024-06-18T18:22:37Z,673038,Hoffnung,matarajio,s,kutaalamika,uratibu,mvumbuzi,matarajio,NA,NA,"c(""distractor1"", ""distractor2"", ""distractor3"")",NA,NA,NA,NA,NA,NA,NA,NA,NA,NA,NA,NA,NA,NA,NA,NA,NA,NA,NA
efe2a,Save data screen,canvas.Screen,2_13_0_1,NA,NA,timeout,500,673011,673022,673038,673521,673521,2024-06-18T18:22:38Z,673538,Hoffnung,matarajio,s,kutaalamika,uratibu,mvumbuzi,NA,NA,1,"c(""distractor1"", ""distractor2"", ""distractor3"")",NA,NA,NA,NA,NA,NA,NA,NA,NA,NA,NA,NA,NA,NA,NA,NA,NA,NA,NA
efe2a,shallow,flow.Sequence,2_13_0,NA,NA,completion,35836,637670,637669,637685,673521,673525,2024-06-18T18:22:38Z,673538,Hoffnung,matarajio,s,kutaalamika,uratibu,mvumbuzi,NA,NA,NA,"c(""distractor1"", ""distractor2"", ""distractor3"")",NA,NA,NA,NA,NA,NA,NA,NA,NA,NA,NA,NA,NA,NA,NA,NA,NA,NA,NA
efe2a,task,flow.Sequence,2_13,NA,NA,completion,35836,637670,637669,637685,673521,673525,2024-06-18T18:22:38Z,673538,Hoffnung,matarajio,s,kutaalamika,uratibu,mvumbuzi,NA,NA,NA,"c(""distractor1"", ""distractor2"", ""distractor3"")",NA,NA,NA,NA,NA,NA,NA,NA,NA,NA,NA,NA,NA,NA,NA,NA,NA,NA,NA
efe2a,Shallow Question,html.Page,2_14_0_0,NA,NA,form submission,18906,673525,673521,673538,692444,692444,2024-06-18T18:22:57Z,692473,Tester,wanaojaribu,s,sherti,sihiri,mlipuko,sihiri,NA,NA,"c(""distractor1"", ""distractor2"", ""distractor3"")",NA,NA,NA,NA,NA,NA,NA,NA,NA,NA,NA,NA,NA,NA,NA,NA,NA,NA,NA
efe2a,Save data screen,canvas.Screen,2_14_0_1,NA,NA,timeout,499,692445,692456,692473,692955,692956,2024-06-18T18:22:57Z,692972,Tester,wanaojaribu,s,sherti,sihiri,mlipuko,NA,NA,0,"c(""distractor1"", ""distractor2"", ""distractor3"")",NA,NA,NA,NA,NA,NA,NA,NA,NA,NA,NA,NA,NA,NA,NA,NA,NA,NA,NA
efe2a,shallow,flow.Sequence,2_14_0,NA,NA,completion,19417,673525,673521,673538,692955,692956,2024-06-18T18:22:57Z,692972,Tester,wanaojaribu,s,sherti,sihiri,mlipuko,NA,NA,NA,"c(""distractor1"", ""distractor2"", ""distractor3"")",NA,NA,NA,NA,NA,NA,NA,NA,NA,NA,NA,NA,NA,NA,NA,NA,NA,NA,NA
efe2a,task,flow.Sequence,2_14,NA,NA,completion,19417,673525,673521,673538,692955,692956,2024-06-18T18:22:57Z,692972,Tester,wanaojaribu,s,sherti,sihiri,mlipuko,NA,NA,NA,"c(""distractor1"", ""distractor2"", ""distractor3"")",NA,NA,NA,NA,NA,NA,NA,NA,NA,NA,NA,NA,NA,NA,NA,NA,NA,NA,NA
efe2a,Shallow Question,html.Page,2_15_0_0,NA,NA,form submission,12056,692956,692955,692972,705028,705029,2024-06-18T18:23:09Z,705057,Notfall,dharura,s,rairai,malalamiko,ahueni,dharura,NA,NA,"c(""distractor1"", ""distractor2"", ""distractor3"")",NA,NA,NA,NA,NA,NA,NA,NA,NA,NA,NA,NA,NA,NA,NA,NA,NA,NA,NA
efe2a,Save data screen,canvas.Screen,2_15_0_1,NA,NA,timeout,500,705029,705041,705057,705540,705540,2024-06-18T18:23:10Z,705557,Notfall,dharura,s,rairai,malalamiko,ahueni,NA,NA,1,"c(""distractor1"", ""distractor2"", ""distractor3"")",NA,NA,NA,NA,NA,NA,NA,NA,NA,NA,NA,NA,NA,NA,NA,NA,NA,NA,NA
efe2a,shallow,flow.Sequence,2_15_0,NA,NA,completion,12568,692956,692955,692972,705540,705541,2024-06-18T18:23:10Z,705557,Notfall,dharura,s,rairai,malalamiko,ahueni,NA,NA,NA,"c(""distractor1"", ""distractor2"", ""distractor3"")",NA,NA,NA,NA,NA,NA,NA,NA,NA,NA,NA,NA,NA,NA,NA,NA,NA,NA,NA
efe2a,task,flow.Sequence,2_15,NA,NA,completion,12568,692956,692955,692972,705540,705541,2024-06-18T18:23:10Z,705557,Notfall,dharura,s,rairai,malalamiko,ahueni,NA,NA,NA,"c(""distractor1"", ""distractor2"", ""distractor3"")",NA,NA,NA,NA,NA,NA,NA,NA,NA,NA,NA,NA,NA,NA,NA,NA,NA,NA,NA
efe2a,retrieval block 2 (multiple choice),flow.Loop,2,NA,NA,completion,321355,383869,383868,384185,705540,705541,2024-06-18T18:23:10Z,705557,NA,NA,NA,NA,NA,NA,NA,NA,NA,"c(""distractor1"", ""distractor2"", ""distractor3"")",NA,NA,NA,NA,NA,NA,NA,NA,NA,NA,NA,NA,NA,NA,NA,NA,NA,NA,NA
efe2a,End,canvas.Screen,3,NA,keypress(Space),response,3288,705541,705540,705557,708828,708833,2024-06-18T18:23:13Z,708857,NA,NA,NA,NA,NA,NA,NA,NA,NA,NULL,NA,NA,NA,NA,NA,NA,NA,NA,NA,NA,NA,NA,NA,NA,NA,NA,NA,NA,NA
efe2a,root,flow.Sequence,NA,NA,NA,completion,703538,4303,4512,5290,708828,708833,2024-06-18T18:23:13Z,708857,NA,NA,NA,NA,NA,NA,NA,NA,NA,NULL,NA,NA,NA,NA,NA,NA,NA,NA,NA,NA,NA,NA,NA,NA,NA,NA,NA,NA,NA
