observation,sender,sender_type,sender_id,response,response_action,ended_on,duration,time_run,time_render,time_show,time_end,time_commit,timestamp,time_switch,url_vp,url_sess,meta_labjs_version,meta_location,meta_user_agent,meta_platform,meta_language,meta_locale,meta_time_zone,meta_timezone_offset,meta_screen_width,meta_screen_height,meta_scroll_width,meta_scroll_height,meta_window_inner_width,meta_window_inner_height,meta_device_pixel_ratio,meta_labjs_build_flavor,meta_labjs_build_commit,distractors,german,swahili,enc,distractor1,distractor2,distractor3,x,correct,x_2
56b99,Introduction general,canvas.Screen,0,weiter,keypress(q),response,61366.9,425.5,192.8,442.6,61809.5,61811,2024-05-07T08:19:49Z,61821.9,227,1,20.2.4,https://neurocog.fernuni.ch/studies/vweber/aberisha/encoding_immediate/index.html?vp=227&sess=1,"Mozilla/5.0 (Windows NT 10.0; Win64; x64) AppleWebKit/537.36 (KHTML, like Gecko) Chrome/124.0.0.0 Safari/537.36",Win32,de-DE,de,Europe/Zurich,-120,1536,864,1536,682,1536,730,1.25,production,f5b4a49f956347addd546a832a3327688c2c0fef,NA,NA,NA,NA,NA,NA,NA,NA,NA,NA
56b99,Introduction practice,canvas.Screen,1_0,NA,keypress(Space),response,10383.800000048,61811.200000048,61806.75,61821.9,72205.700000048,72206.200000048,2024-05-07T08:19:59Z,72215.9,NA,NA,NA,NA,NA,NA,NA,NA,NA,NA,NA,NA,NA,NA,NA,NA,NA,NA,NA,NULL,NA,NA,NA,NA,NA,NA,NA,NA,NA
56b99,deep,flow.Sequence,1_1_0_0,NA,NA,skipped,NA,72206.5,NA,NA,72205.700000048,72207.899999976,2024-05-07T08:19:59Z,72215.9,NA,NA,NA,NA,NA,NA,NA,NA,NA,NA,NA,NA,NA,NA,NA,NA,NA,NA,NA,"c(""distractor1"", ""distractor2"", ""distractor3"")",Gegenwart,hadhara,s,katiba,jokofu,mikopo,NA,NA,NA
56b99,Shallow Question,html.Page,1_1_0_1_0,hadhara,NA,form submission,26948.1,72208.100000024,72204.818,72215.9,99164,99164.300000072,2024-05-07T08:20:26Z,99165.828,NA,NA,NA,NA,NA,NA,NA,NA,NA,NA,NA,NA,NA,NA,NA,NA,NA,NA,NA,"c(""distractor1"", ""distractor2"", ""distractor3"")",Gegenwart,hadhara,s,katiba,jokofu,mikopo,NA,NA,NA
56b99,"""Richtig""-Screen",canvas.Screen,1_1_0_1_1,NA,NA,timeout,4997.072,99165.600000024,99165.828,99165.828,104146.3,104150.60000002,2024-05-07T08:20:31Z,104162.9,NA,NA,NA,NA,NA,NA,NA,NA,NA,NA,NA,NA,NA,NA,NA,NA,NA,NA,NA,"c(""distractor1"", ""distractor2"", ""distractor3"")",Gegenwart,hadhara,s,katiba,jokofu,mikopo,NA,1,NA
56b99,"""Falsch""-Screen",canvas.Screen,1_1_0_1_2,NA,NA,skipped,NA,104153.39999998,NA,NA,104146.3,104153.60000002,2024-05-07T08:20:31Z,104162.9,NA,NA,NA,NA,NA,NA,NA,NA,NA,NA,NA,NA,NA,NA,NA,NA,NA,NA,NA,"c(""distractor1"", ""distractor2"", ""distractor3"")",Gegenwart,hadhara,s,katiba,jokofu,mikopo,NA,NA,NA
56b99,shallow,flow.Sequence,1_1_0_1,NA,NA,completion,31930.4,72208,72204.818,72215.9,104146.3,104154,2024-05-07T08:20:31Z,104162.9,NA,NA,NA,NA,NA,NA,NA,NA,NA,NA,NA,NA,NA,NA,NA,NA,NA,NA,NA,"c(""distractor1"", ""distractor2"", ""distractor3"")",Gegenwart,hadhara,s,katiba,jokofu,mikopo,NA,NA,NA
56b99,task,flow.Sequence,1_1_0,NA,NA,completion,31930.4,72206.399999976,72204.818,72215.9,104146.3,104154.30000007,2024-05-07T08:20:31Z,104162.9,NA,NA,NA,NA,NA,NA,NA,NA,NA,NA,NA,NA,NA,NA,NA,NA,NA,NA,NA,"c(""distractor1"", ""distractor2"", ""distractor3"")",Gegenwart,hadhara,s,katiba,jokofu,mikopo,NA,NA,NA
56b99,deep,flow.Sequence,1_1_1_0,NA,NA,skipped,NA,104154.5,NA,NA,104146.3,104154.70000005,2024-05-07T08:20:31Z,104162.9,NA,NA,NA,NA,NA,NA,NA,NA,NA,NA,NA,NA,NA,NA,NA,NA,NA,NA,NA,"c(""distractor1"", ""distractor2"", ""distractor3"")",Kritik,lawama,s,dereva,nafasi,mawazo,NA,NA,NA
56b99,Shallow Question,html.Page,1_1_1_1_0,nafasi,NA,form submission,16987.900000072,104154.89999998,104146.3,104162.9,121150.80000007,121151,2024-05-07T08:20:48Z,121153.532,NA,NA,NA,NA,NA,NA,NA,NA,NA,NA,NA,NA,NA,NA,NA,NA,NA,NA,NA,"c(""distractor1"", ""distractor2"", ""distractor3"")",Kritik,lawama,s,dereva,nafasi,mawazo,NA,NA,NA
56b99,"""Richtig""-Screen",canvas.Screen,1_1_1_1_1,NA,NA,skipped,NA,121154.70000005,NA,NA,121150.80000007,121154.80000007,2024-05-07T08:20:48Z,121153.532,NA,NA,NA,NA,NA,NA,NA,NA,NA,NA,NA,NA,NA,NA,NA,NA,NA,NA,NA,"c(""distractor1"", ""distractor2"", ""distractor3"")",Kritik,lawama,s,dereva,nafasi,mawazo,NA,NA,NA
56b99,"""Falsch""-Screen",canvas.Screen,1_1_1_1_2,NA,NA,timeout,4996.168,121155.39999998,121153.532,121153.532,126133,126133.89999998,2024-05-07T08:20:53Z,126149.7,NA,NA,NA,NA,NA,NA,NA,NA,NA,NA,NA,NA,NA,NA,NA,NA,NA,NA,NA,"c(""distractor1"", ""distractor2"", ""distractor3"")",Kritik,lawama,s,dereva,nafasi,mawazo,NA,0,NA
56b99,shallow,flow.Sequence,1_1_1_1,NA,NA,completion,21970.1,104154.89999998,104146.3,104162.9,126133,126134.39999998,2024-05-07T08:20:53Z,126149.7,NA,NA,NA,NA,NA,NA,NA,NA,NA,NA,NA,NA,NA,NA,NA,NA,NA,NA,NA,"c(""distractor1"", ""distractor2"", ""distractor3"")",Kritik,lawama,s,dereva,nafasi,mawazo,NA,NA,NA
56b99,task,flow.Sequence,1_1_1,NA,NA,completion,21970.1,104154.39999998,104146.3,104162.9,126133,126134.70000005,2024-05-07T08:20:53Z,126149.7,NA,NA,NA,NA,NA,NA,NA,NA,NA,NA,NA,NA,NA,NA,NA,NA,NA,NA,NA,"c(""distractor1"", ""distractor2"", ""distractor3"")",Kritik,lawama,s,dereva,nafasi,mawazo,NA,NA,NA
56b99,Deep Question,html.Page,1_1_2_0_0,ujhd,NA,form submission,15659.8,126134.89999998,126133,126149.7,141809.5,141809.70000005,2024-05-07T08:21:09Z,141823.5,NA,NA,NA,NA,NA,NA,NA,NA,NA,NA,NA,NA,NA,NA,NA,NA,NA,NA,NA,"c(""distractor1"", ""distractor2"", ""distractor3"")",Gesundheit,salama,d,NA,NA,NA,NA,NA,NA
56b99,"""Richtig""-Screen",canvas.Screen,1_1_2_0_1,NA,NA,skipped,NA,141812.89999998,NA,NA,141809.5,141813.10000002,2024-05-07T08:21:09Z,141823.5,NA,NA,NA,NA,NA,NA,NA,NA,NA,NA,NA,NA,NA,NA,NA,NA,NA,NA,NA,"c(""distractor1"", ""distractor2"", ""distractor3"")",Gesundheit,salama,d,NA,NA,NA,NA,NA,NA
56b99,"""Falsch""-Screen",canvas.Screen,1_1_2_0_2,NA,NA,timeout,4996.9,141814.20000005,141808.518,141823.5,146803.5,146804.39999998,2024-05-07T08:21:14Z,146820.4,NA,NA,NA,NA,NA,NA,NA,NA,NA,NA,NA,NA,NA,NA,NA,NA,NA,NA,NA,"c(""distractor1"", ""distractor2"", ""distractor3"")",Gesundheit,salama,d,NA,NA,NA,NA,0,NA
56b99,deep,flow.Sequence,1_1_2_0,NA,NA,completion,20653.8,126134.80000007,126133,126149.7,146803.5,146804.70000005,2024-05-07T08:21:14Z,146820.4,NA,NA,NA,NA,NA,NA,NA,NA,NA,NA,NA,NA,NA,NA,NA,NA,NA,NA,NA,"c(""distractor1"", ""distractor2"", ""distractor3"")",Gesundheit,salama,d,NA,NA,NA,NA,NA,NA
56b99,shallow,flow.Sequence,1_1_2_1,NA,NA,skipped,NA,146804.89999998,NA,NA,146803.5,146805.10000002,2024-05-07T08:21:14Z,146820.4,NA,NA,NA,NA,NA,NA,NA,NA,NA,NA,NA,NA,NA,NA,NA,NA,NA,NA,NA,"c(""distractor1"", ""distractor2"", ""distractor3"")",Gesundheit,salama,d,NA,NA,NA,NA,NA,NA
56b99,task,flow.Sequence,1_1_2,NA,NA,completion,20653.8,126134.80000007,126133,126149.7,146803.5,146805.30000007,2024-05-07T08:21:14Z,146820.4,NA,NA,NA,NA,NA,NA,NA,NA,NA,NA,NA,NA,NA,NA,NA,NA,NA,NA,NA,"c(""distractor1"", ""distractor2"", ""distractor3"")",Gesundheit,salama,d,NA,NA,NA,NA,NA,NA
56b99,Deep Question,html.Page,1_1_3_0_0,jkdd,NA,form submission,12700.800000048,146805.60000002,146803.5,146820.4,159521.20000005,159521.5,2024-05-07T08:21:27Z,159529,NA,NA,NA,NA,NA,NA,NA,NA,NA,NA,NA,NA,NA,NA,NA,NA,NA,NA,NA,"c(""distractor1"", ""distractor2"", ""distractor3"")",Qualität,mtindo,d,NA,NA,NA,NA,NA,NA
56b99,"""Richtig""-Screen",canvas.Screen,1_1_3_0_1,NA,NA,skipped,NA,159524.5,NA,NA,159521.20000005,159524.60000002,2024-05-07T08:21:27Z,159529,NA,NA,NA,NA,NA,NA,NA,NA,NA,NA,NA,NA,NA,NA,NA,NA,NA,NA,NA,"c(""distractor1"", ""distractor2"", ""distractor3"")",Qualität,mtindo,d,NA,NA,NA,NA,NA,NA
56b99,"""Falsch""-Screen",canvas.Screen,1_1_3_0_2,NA,NA,timeout,4997.5,159525.60000002,159512.894,159529,164509.5,164510.39999998,2024-05-07T08:21:32Z,164526.5,NA,NA,NA,NA,NA,NA,NA,NA,NA,NA,NA,NA,NA,NA,NA,NA,NA,NA,NA,"c(""distractor1"", ""distractor2"", ""distractor3"")",Qualität,mtindo,d,NA,NA,NA,NA,0,NA
56b99,deep,flow.Sequence,1_1_3_0,NA,NA,completion,17689.1,146805.5,146803.5,146820.4,164509.5,164510.70000005,2024-05-07T08:21:32Z,164526.5,NA,NA,NA,NA,NA,NA,NA,NA,NA,NA,NA,NA,NA,NA,NA,NA,NA,NA,NA,"c(""distractor1"", ""distractor2"", ""distractor3"")",Qualität,mtindo,d,NA,NA,NA,NA,NA,NA
56b99,shallow,flow.Sequence,1_1_3_1,NA,NA,skipped,NA,164511,NA,NA,164509.5,164511.10000002,2024-05-07T08:21:32Z,164526.5,NA,NA,NA,NA,NA,NA,NA,NA,NA,NA,NA,NA,NA,NA,NA,NA,NA,NA,NA,"c(""distractor1"", ""distractor2"", ""distractor3"")",Qualität,mtindo,d,NA,NA,NA,NA,NA,NA
56b99,task,flow.Sequence,1_1_3,NA,NA,completion,17689.1,146805.5,146803.5,146820.4,164509.5,164511.39999998,2024-05-07T08:21:32Z,164526.5,NA,NA,NA,NA,NA,NA,NA,NA,NA,NA,NA,NA,NA,NA,NA,NA,NA,NA,NA,"c(""distractor1"", ""distractor2"", ""distractor3"")",Qualität,mtindo,d,NA,NA,NA,NA,NA,NA
56b99,Deep Question,html.Page,1_1_4_0_0,klf,NA,form submission,8593.3000000715,164511.60000002,164509.5,164526.5,173119.80000007,173120.10000002,2024-05-07T08:21:40Z,173121.162,NA,NA,NA,NA,NA,NA,NA,NA,NA,NA,NA,NA,NA,NA,NA,NA,NA,NA,NA,"c(""distractor1"", ""distractor2"", ""distractor3"")",Schatten,kivuli,d,NA,NA,NA,NA,NA,NA
56b99,"""Richtig""-Screen",canvas.Screen,1_1_4_0_1,NA,NA,skipped,NA,173123.10000002,NA,NA,173119.80000007,173123.30000007,2024-05-07T08:21:40Z,173121.162,NA,NA,NA,NA,NA,NA,NA,NA,NA,NA,NA,NA,NA,NA,NA,NA,NA,NA,NA,"c(""distractor1"", ""distractor2"", ""distractor3"")",Schatten,kivuli,d,NA,NA,NA,NA,NA,NA
56b99,"""Falsch""-Screen",canvas.Screen,1_1_4_0_2,NA,NA,timeout,4996.938,173124.10000002,173121.162,173121.162,178101.4,178101.80000007,2024-05-07T08:21:45Z,178118.1,NA,NA,NA,NA,NA,NA,NA,NA,NA,NA,NA,NA,NA,NA,NA,NA,NA,NA,NA,"c(""distractor1"", ""distractor2"", ""distractor3"")",Schatten,kivuli,d,NA,NA,NA,NA,0,NA
56b99,deep,flow.Sequence,1_1_4_0,NA,NA,completion,13574.9,164511.5,164509.5,164526.5,178101.4,178101.89999998,2024-05-07T08:21:45Z,178118.1,NA,NA,NA,NA,NA,NA,NA,NA,NA,NA,NA,NA,NA,NA,NA,NA,NA,NA,NA,"c(""distractor1"", ""distractor2"", ""distractor3"")",Schatten,kivuli,d,NA,NA,NA,NA,NA,NA
56b99,shallow,flow.Sequence,1_1_4_1,NA,NA,skipped,NA,178101.89999998,NA,NA,178101.4,178102,2024-05-07T08:21:45Z,178118.1,NA,NA,NA,NA,NA,NA,NA,NA,NA,NA,NA,NA,NA,NA,NA,NA,NA,NA,NA,"c(""distractor1"", ""distractor2"", ""distractor3"")",Schatten,kivuli,d,NA,NA,NA,NA,NA,NA
56b99,task,flow.Sequence,1_1_4,NA,NA,completion,13574.9,164511.5,164509.5,164526.5,178101.4,178102,2024-05-07T08:21:45Z,178118.1,NA,NA,NA,NA,NA,NA,NA,NA,NA,NA,NA,NA,NA,NA,NA,NA,NA,NA,NA,"c(""distractor1"", ""distractor2"", ""distractor3"")",Schatten,kivuli,d,NA,NA,NA,NA,NA,NA
56b99,deep,flow.Sequence,1_1_5_0,NA,NA,skipped,NA,178102.20000005,NA,NA,178101.4,178102.20000005,2024-05-07T08:21:45Z,178118.1,NA,NA,NA,NA,NA,NA,NA,NA,NA,NA,NA,NA,NA,NA,NA,NA,NA,NA,NA,"c(""distractor1"", ""distractor2"", ""distractor3"")",Rückhalt,msaada,s,muhula,auwali,kiwimbe,NA,NA,NA
56b99,Shallow Question,html.Page,1_1_5_1_0,msaada,NA,form submission,14621.000000024,178102.30000007,178101.4,178118.1,192739.10000002,192739.39999998,2024-05-07T08:22:00Z,192742.46,NA,NA,NA,NA,NA,NA,NA,NA,NA,NA,NA,NA,NA,NA,NA,NA,NA,NA,NA,"c(""distractor1"", ""distractor2"", ""distractor3"")",Rückhalt,msaada,s,muhula,auwali,kiwimbe,NA,NA,NA
56b99,"""Richtig""-Screen",canvas.Screen,1_1_5_1_1,NA,NA,timeout,4996.54,192742.5,192742.46,192742.46,197722.6,197723.60000002,2024-05-07T08:22:05Z,197739,NA,NA,NA,NA,NA,NA,NA,NA,NA,NA,NA,NA,NA,NA,NA,NA,NA,NA,NA,"c(""distractor1"", ""distractor2"", ""distractor3"")",Rückhalt,msaada,s,muhula,auwali,kiwimbe,NA,1,NA
56b99,"""Falsch""-Screen",canvas.Screen,1_1_5_1_2,NA,NA,skipped,NA,197728.70000005,NA,NA,197722.6,197728.89999998,2024-05-07T08:22:05Z,197739,NA,NA,NA,NA,NA,NA,NA,NA,NA,NA,NA,NA,NA,NA,NA,NA,NA,NA,NA,"c(""distractor1"", ""distractor2"", ""distractor3"")",Rückhalt,msaada,s,muhula,auwali,kiwimbe,NA,NA,NA
56b99,shallow,flow.Sequence,1_1_5_1,NA,NA,completion,19604.5,178102.30000007,178101.4,178118.1,197722.6,197729,2024-05-07T08:22:05Z,197739,NA,NA,NA,NA,NA,NA,NA,NA,NA,NA,NA,NA,NA,NA,NA,NA,NA,NA,NA,"c(""distractor1"", ""distractor2"", ""distractor3"")",Rückhalt,msaada,s,muhula,auwali,kiwimbe,NA,NA,NA
56b99,task,flow.Sequence,1_1_5,NA,NA,completion,19604.5,178102.10000002,178101.4,178118.1,197722.6,197729.10000002,2024-05-07T08:22:05Z,197739,NA,NA,NA,NA,NA,NA,NA,NA,NA,NA,NA,NA,NA,NA,NA,NA,NA,NA,NA,"c(""distractor1"", ""distractor2"", ""distractor3"")",Rückhalt,msaada,s,muhula,auwali,kiwimbe,NA,NA,NA
56b99,block,flow.Loop,1_1,NA,NA,completion,125506.7,72206.399999976,72204.818,72215.9,197722.6,197729.20000005,2024-05-07T08:22:05Z,197739,NA,NA,NA,NA,NA,NA,NA,NA,NA,NA,NA,NA,NA,NA,NA,NA,NA,NA,NA,"c(""distractor1"", ""distractor2"", ""distractor3"")",NA,NA,NA,NA,NA,NA,NA,NA,NA
56b99,Practice,flow.Sequence,1,NA,NA,completion,135900.7,61811.100000024,61806.75,61821.9,197722.6,197729.20000005,2024-05-07T08:22:05Z,197739,NA,NA,NA,NA,NA,NA,NA,NA,NA,NA,NA,NA,NA,NA,NA,NA,NA,NA,NA,NULL,NA,NA,NA,NA,NA,NA,NA,NA,NA
56b99,Experiment start,canvas.Screen,2,weiter,keypress(q),response,37089.600000024,197729.30000007,197722.6,197739,234828.60000002,234829.80000007,2024-05-07T08:22:42Z,234887.514,NA,NA,NA,NA,NA,NA,NA,NA,NA,NA,NA,NA,NA,NA,NA,NA,NA,NA,NA,NA,NA,NA,NA,NA,NA,NA,NA,NA,NA
56b99,Deep Question,html.Page,3_0_0_0_0_0_0,klfd,NA,form submission,19451.786000072,234887.5,234887.514,234887.514,254339.30000007,254339.60000002,2024-05-07T08:23:02Z,254354.9,NA,NA,NA,NA,NA,NA,NA,NA,NA,NA,NA,NA,NA,NA,NA,NA,NA,NA,NA,NA,Übersicht,kilindo,d,NA,NA,NA,NA,NA,0
56b99,"""Richtig""-Screen",canvas.Screen,3_0_0_0_0_0_1,NA,NA,skipped,NA,254342.70000005,NA,NA,254339.30000007,254342.89999998,2024-05-07T08:23:02Z,254354.9,NA,NA,NA,NA,NA,NA,NA,NA,NA,NA,NA,NA,NA,NA,NA,NA,NA,NA,NA,NA,Übersicht,kilindo,d,NA,NA,NA,sdf,NA,0
56b99,"""Falsch""-Screen",canvas.Screen,3_0_0_0_0_0_2,NA,NA,timeout,4997,254343.20000005,254338.35,254354.9,259335.1,259336,2024-05-07T08:23:07Z,259351.9,NA,NA,NA,NA,NA,NA,NA,NA,NA,NA,NA,NA,NA,NA,NA,NA,NA,NA,NA,NA,Übersicht,kilindo,d,NA,NA,NA,sdf,0,0
56b99,deep,flow.Sequence,3_0_0_0_0_0,NA,NA,completion,24447.586,234887.39999998,234887.514,234887.514,259335.1,259336.39999998,2024-05-07T08:23:07Z,259351.9,NA,NA,NA,NA,NA,NA,NA,NA,NA,NA,NA,NA,NA,NA,NA,NA,NA,NA,NA,NA,Übersicht,kilindo,d,NA,NA,NA,sdf,NA,0
56b99,shallow,flow.Sequence,3_0_0_0_0_1,NA,NA,skipped,NA,259336.60000002,NA,NA,259335.1,259336.70000005,2024-05-07T08:23:07Z,259351.9,NA,NA,NA,NA,NA,NA,NA,NA,NA,NA,NA,NA,NA,NA,NA,NA,NA,NA,NA,NA,Übersicht,kilindo,d,NA,NA,NA,sdf,NA,0
56b99,task,flow.Sequence,3_0_0_0_0,NA,NA,completion,24447.586,234887.39999998,234887.514,234887.514,259335.1,259336.80000007,2024-05-07T08:23:07Z,259351.9,NA,NA,NA,NA,NA,NA,NA,NA,NA,NA,NA,NA,NA,NA,NA,NA,NA,NA,NA,NA,Übersicht,kilindo,d,NA,NA,NA,sdf,NA,0
56b99,Deep Question,html.Page,3_0_0_0_1_0_0,kgld,NA,form submission,13406.800000048,259337,259335.1,259351.9,272758.70000005,272758.89999998,2024-05-07T08:23:20Z,272762.448,NA,NA,NA,NA,NA,NA,NA,NA,NA,NA,NA,NA,NA,NA,NA,NA,NA,NA,NA,NA,Körper,kiwiliwili,d,NA,NA,NA,NA,NA,0
56b99,"""Richtig""-Screen",canvas.Screen,3_0_0_0_1_0_1,NA,NA,skipped,NA,272761.89999998,NA,NA,272758.70000005,272762.10000002,2024-05-07T08:23:20Z,272762.448,NA,NA,NA,NA,NA,NA,NA,NA,NA,NA,NA,NA,NA,NA,NA,NA,NA,NA,NA,NA,Körper,kiwiliwili,d,NA,NA,NA,sdf,NA,0
56b99,"""Falsch""-Screen",canvas.Screen,3_0_0_0_1_0_2,NA,NA,timeout,4994.952,272762.80000007,272762.448,272762.448,277740.2,277741.10000002,2024-05-07T08:23:25Z,277757.4,NA,NA,NA,NA,NA,NA,NA,NA,NA,NA,NA,NA,NA,NA,NA,NA,NA,NA,NA,NA,Körper,kiwiliwili,d,NA,NA,NA,sdf,0,0
56b99,deep,flow.Sequence,3_0_0_0_1_0,NA,NA,completion,18388.3,259336.89999998,259335.1,259351.9,277740.2,277741.5,2024-05-07T08:23:25Z,277757.4,NA,NA,NA,NA,NA,NA,NA,NA,NA,NA,NA,NA,NA,NA,NA,NA,NA,NA,NA,NA,Körper,kiwiliwili,d,NA,NA,NA,sdf,NA,0
56b99,shallow,flow.Sequence,3_0_0_0_1_1,NA,NA,skipped,NA,277741.60000002,NA,NA,277740.2,277741.70000005,2024-05-07T08:23:25Z,277757.4,NA,NA,NA,NA,NA,NA,NA,NA,NA,NA,NA,NA,NA,NA,NA,NA,NA,NA,NA,NA,Körper,kiwiliwili,d,NA,NA,NA,sdf,NA,0
56b99,task,flow.Sequence,3_0_0_0_1,NA,NA,completion,18388.3,259336.89999998,259335.1,259351.9,277740.2,277742,2024-05-07T08:23:25Z,277757.4,NA,NA,NA,NA,NA,NA,NA,NA,NA,NA,NA,NA,NA,NA,NA,NA,NA,NA,NA,NA,Körper,kiwiliwili,d,NA,NA,NA,sdf,NA,0
56b99,deep,flow.Sequence,3_0_0_0_2_0,NA,NA,skipped,NA,277742,NA,NA,277740.2,277742.20000005,2024-05-07T08:23:25Z,277757.4,NA,NA,NA,NA,NA,NA,NA,NA,NA,NA,NA,NA,NA,NA,NA,NA,NA,NA,NA,NA,Vorsorge,tahadhari,s,ufafanuzi,makini,mashambani,sdf,NA,0
56b99,Shallow Question,html.Page,3_0_0_0_2_1_0,mashambani,NA,form submission,10803.200000024,277742.30000007,277740.2,277757.4,288560.60000002,288560.80000007,2024-05-07T08:23:36Z,288566.9,NA,NA,NA,NA,NA,NA,NA,NA,NA,NA,NA,NA,NA,NA,NA,NA,NA,NA,NA,NA,Vorsorge,tahadhari,s,ufafanuzi,makini,mashambani,NA,NA,0
56b99,"""Richtig""-Screen",canvas.Screen,3_0_0_0_2_1_1,NA,NA,skipped,NA,288563.70000005,NA,NA,288560.60000002,288563.80000007,2024-05-07T08:23:36Z,288566.9,NA,NA,NA,NA,NA,NA,NA,NA,NA,NA,NA,NA,NA,NA,NA,NA,NA,NA,NA,NA,Vorsorge,tahadhari,s,ufafanuzi,makini,mashambani,sdf,NA,0
56b99,"""Falsch""-Screen",canvas.Screen,3_0_0_0_2_1_2,NA,NA,timeout,4997.2,288564.60000002,288551.04,288566.9,293547.2,293548,2024-05-07T08:23:41Z,293564.1,NA,NA,NA,NA,NA,NA,NA,NA,NA,NA,NA,NA,NA,NA,NA,NA,NA,NA,NA,NA,Vorsorge,tahadhari,s,ufafanuzi,makini,mashambani,sdf,0,0
56b99,shallow,flow.Sequence,3_0_0_0_2_1,NA,NA,completion,15789.8,277742.20000005,277740.2,277757.4,293547.2,293548.30000007,2024-05-07T08:23:41Z,293564.1,NA,NA,NA,NA,NA,NA,NA,NA,NA,NA,NA,NA,NA,NA,NA,NA,NA,NA,NA,NA,Vorsorge,tahadhari,s,ufafanuzi,makini,mashambani,sdf,NA,0
56b99,task,flow.Sequence,3_0_0_0_2,NA,NA,completion,15789.8,277742,277740.2,277757.4,293547.2,293548.60000002,2024-05-07T08:23:41Z,293564.1,NA,NA,NA,NA,NA,NA,NA,NA,NA,NA,NA,NA,NA,NA,NA,NA,NA,NA,NA,NA,Vorsorge,tahadhari,s,ufafanuzi,makini,mashambani,sdf,NA,0
56b99,deep,flow.Sequence,3_0_0_0_3_0,NA,NA,skipped,NA,293548.70000005,NA,NA,293547.2,293548.80000007,2024-05-07T08:23:41Z,293564.1,NA,NA,NA,NA,NA,NA,NA,NA,NA,NA,NA,NA,NA,NA,NA,NA,NA,NA,NA,NA,System,maongozi,s,chokochoko,nuksani,mitaani,sdf,NA,0
56b99,Shallow Question,html.Page,3_0_0_0_3_1_0,chokochoko,NA,form submission,13703.100000048,293548.89999998,293547.2,293564.1,307267.20000005,307267.39999998,2024-05-07T08:23:54Z,307273.35,NA,NA,NA,NA,NA,NA,NA,NA,NA,NA,NA,NA,NA,NA,NA,NA,NA,NA,NA,NA,System,maongozi,s,chokochoko,nuksani,mitaani,NA,NA,0
56b99,"""Richtig""-Screen",canvas.Screen,3_0_0_0_3_1_1,NA,NA,skipped,NA,307270.5,NA,NA,307267.20000005,307270.60000002,2024-05-07T08:23:54Z,307273.35,NA,NA,NA,NA,NA,NA,NA,NA,NA,NA,NA,NA,NA,NA,NA,NA,NA,NA,NA,NA,System,maongozi,s,chokochoko,nuksani,mitaani,sdf,NA,0
56b99,"""Falsch""-Screen",canvas.Screen,3_0_0_0_3_1_2,NA,NA,timeout,4995.65,307271.39999998,307273.35,307273.35,312252.8,312254.20000005,2024-05-07T08:23:59Z,312269,NA,NA,NA,NA,NA,NA,NA,NA,NA,NA,NA,NA,NA,NA,NA,NA,NA,NA,NA,NA,System,maongozi,s,chokochoko,nuksani,mitaani,sdf,0,0
56b99,shallow,flow.Sequence,3_0_0_0_3_1,NA,NA,completion,18688.7,293548.89999998,293547.2,293564.1,312252.8,312254.5,2024-05-07T08:23:59Z,312269,NA,NA,NA,NA,NA,NA,NA,NA,NA,NA,NA,NA,NA,NA,NA,NA,NA,NA,NA,NA,System,maongozi,s,chokochoko,nuksani,mitaani,sdf,NA,0
56b99,task,flow.Sequence,3_0_0_0_3,NA,NA,completion,18688.7,293548.60000002,293547.2,293564.1,312252.8,312254.70000005,2024-05-07T08:23:59Z,312269,NA,NA,NA,NA,NA,NA,NA,NA,NA,NA,NA,NA,NA,NA,NA,NA,NA,NA,NA,NA,System,maongozi,s,chokochoko,nuksani,mitaani,sdf,NA,0
56b99,Deep Question,html.Page,3_0_0_0_4_0_0,dfg,NA,form submission,15391.800000072,312254.89999998,312252.8,312269,327660.80000007,327661,2024-05-07T08:24:15Z,327676.7,NA,NA,NA,NA,NA,NA,NA,NA,NA,NA,NA,NA,NA,NA,NA,NA,NA,NA,NA,NA,Symbol,kielezo,d,NA,NA,NA,NA,NA,0
56b99,"""Richtig""-Screen",canvas.Screen,3_0_0_0_4_0_1,NA,NA,skipped,NA,327664,NA,NA,327660.80000007,327664.20000005,2024-05-07T08:24:15Z,327676.7,NA,NA,NA,NA,NA,NA,NA,NA,NA,NA,NA,NA,NA,NA,NA,NA,NA,NA,NA,NA,Symbol,kielezo,d,NA,NA,NA,sdf,NA,0
56b99,"""Falsch""-Screen",canvas.Screen,3_0_0_0_4_0_2,NA,NA,timeout,4997,327664.80000007,327660.628,327676.7,332657.1,332658,2024-05-07T08:24:20Z,332673.7,NA,NA,NA,NA,NA,NA,NA,NA,NA,NA,NA,NA,NA,NA,NA,NA,NA,NA,NA,NA,Symbol,kielezo,d,NA,NA,NA,sdf,0,0
56b99,deep,flow.Sequence,3_0_0_0_4_0,NA,NA,completion,20388.1,312254.89999998,312252.8,312269,332657.1,332658.30000007,2024-05-07T08:24:20Z,332673.7,NA,NA,NA,NA,NA,NA,NA,NA,NA,NA,NA,NA,NA,NA,NA,NA,NA,NA,NA,NA,Symbol,kielezo,d,NA,NA,NA,sdf,NA,0
56b99,shallow,flow.Sequence,3_0_0_0_4_1,NA,NA,skipped,NA,332658.39999998,NA,NA,332657.1,332658.5,2024-05-07T08:24:20Z,332673.7,NA,NA,NA,NA,NA,NA,NA,NA,NA,NA,NA,NA,NA,NA,NA,NA,NA,NA,NA,NA,Symbol,kielezo,d,NA,NA,NA,sdf,NA,0
56b99,task,flow.Sequence,3_0_0_0_4,NA,NA,completion,20388.1,312254.80000007,312252.8,312269,332657.1,332658.70000005,2024-05-07T08:24:20Z,332673.7,NA,NA,NA,NA,NA,NA,NA,NA,NA,NA,NA,NA,NA,NA,NA,NA,NA,NA,NA,NA,Symbol,kielezo,d,NA,NA,NA,sdf,NA,0
56b99,Deep Question,html.Page,3_0_0_0_5_0_0,jköl,NA,form submission,7354.6999999761,332658.89999998,332657.1,332673.7,340028.39999998,340028.60000002,2024-05-07T08:24:27Z,340052.1,NA,NA,NA,NA,NA,NA,NA,NA,NA,NA,NA,NA,NA,NA,NA,NA,NA,NA,NA,NA,Zuwachs,nyongeza,d,NA,NA,NA,NA,NA,0
56b99,"""Richtig""-Screen",canvas.Screen,3_0_0_0_5_0_1,NA,NA,skipped,NA,340031.5,NA,NA,340028.39999998,340031.60000002,2024-05-07T08:24:27Z,340052.1,NA,NA,NA,NA,NA,NA,NA,NA,NA,NA,NA,NA,NA,NA,NA,NA,NA,NA,NA,NA,Zuwachs,nyongeza,d,NA,NA,NA,sdf,NA,0
56b99,"""Falsch""-Screen",canvas.Screen,3_0_0_0_5_0_2,NA,NA,timeout,4997,340032.30000007,340035.6,340052.1,345032.4,345033.20000005,2024-05-07T08:24:32Z,345049.1,NA,NA,NA,NA,NA,NA,NA,NA,NA,NA,NA,NA,NA,NA,NA,NA,NA,NA,NA,NA,Zuwachs,nyongeza,d,NA,NA,NA,sdf,0,0
56b99,deep,flow.Sequence,3_0_0_0_5_0,NA,NA,completion,12358.7,332658.80000007,332657.1,332673.7,345032.4,345033.5,2024-05-07T08:24:32Z,345049.1,NA,NA,NA,NA,NA,NA,NA,NA,NA,NA,NA,NA,NA,NA,NA,NA,NA,NA,NA,NA,Zuwachs,nyongeza,d,NA,NA,NA,sdf,NA,0
56b99,shallow,flow.Sequence,3_0_0_0_5_1,NA,NA,skipped,NA,345033.70000005,NA,NA,345032.4,345033.80000007,2024-05-07T08:24:32Z,345049.1,NA,NA,NA,NA,NA,NA,NA,NA,NA,NA,NA,NA,NA,NA,NA,NA,NA,NA,NA,NA,Zuwachs,nyongeza,d,NA,NA,NA,sdf,NA,0
56b99,task,flow.Sequence,3_0_0_0_5,NA,NA,completion,12358.7,332658.80000007,332657.1,332673.7,345032.4,345034,2024-05-07T08:24:32Z,345049.1,NA,NA,NA,NA,NA,NA,NA,NA,NA,NA,NA,NA,NA,NA,NA,NA,NA,NA,NA,NA,Zuwachs,nyongeza,d,NA,NA,NA,sdf,NA,0
56b99,deep,flow.Sequence,3_0_0_0_6_0,NA,NA,skipped,NA,345034.10000002,NA,NA,345032.4,345034.30000007,2024-05-07T08:24:32Z,345049.1,NA,NA,NA,NA,NA,NA,NA,NA,NA,NA,NA,NA,NA,NA,NA,NA,NA,NA,NA,NA,Lawine,banguko,s,maambukizi,usuluhishi,chekechea,sdf,NA,0
56b99,Shallow Question,html.Page,3_0_0_0_6_1_0,usuluhishi,NA,form submission,7437.9,345034.30000007,345032.4,345049.1,352487,352487.20000005,2024-05-07T08:24:40Z,352494.5,NA,NA,NA,NA,NA,NA,NA,NA,NA,NA,NA,NA,NA,NA,NA,NA,NA,NA,NA,NA,Lawine,banguko,s,maambukizi,usuluhishi,chekechea,NA,NA,0
56b99,"""Richtig""-Screen",canvas.Screen,3_0_0_0_6_1_1,NA,NA,skipped,NA,352490.30000007,NA,NA,352487,352490.39999998,2024-05-07T08:24:40Z,352494.5,NA,NA,NA,NA,NA,NA,NA,NA,NA,NA,NA,NA,NA,NA,NA,NA,NA,NA,NA,NA,Lawine,banguko,s,maambukizi,usuluhishi,chekechea,sdf,NA,0
56b99,"""Falsch""-Screen",canvas.Screen,3_0_0_0_6_1_2,NA,NA,timeout,4997.5,352491.10000002,352478.3,352494.5,357475.3,357476.30000007,2024-05-07T08:24:45Z,357492,NA,NA,NA,NA,NA,NA,NA,NA,NA,NA,NA,NA,NA,NA,NA,NA,NA,NA,NA,NA,Lawine,banguko,s,maambukizi,usuluhishi,chekechea,sdf,0,0
56b99,shallow,flow.Sequence,3_0_0_0_6_1,NA,NA,completion,12426.2,345034.30000007,345032.4,345049.1,357475.3,357476.5,2024-05-07T08:24:45Z,357492,NA,NA,NA,NA,NA,NA,NA,NA,NA,NA,NA,NA,NA,NA,NA,NA,NA,NA,NA,NA,Lawine,banguko,s,maambukizi,usuluhishi,chekechea,sdf,NA,0
56b99,task,flow.Sequence,3_0_0_0_6,NA,NA,completion,12426.2,345034.10000002,345032.4,345049.1,357475.3,357476.80000007,2024-05-07T08:24:45Z,357492,NA,NA,NA,NA,NA,NA,NA,NA,NA,NA,NA,NA,NA,NA,NA,NA,NA,NA,NA,NA,Lawine,banguko,s,maambukizi,usuluhishi,chekechea,sdf,NA,0
56b99,deep,flow.Sequence,3_0_0_0_7_0,NA,NA,skipped,NA,357476.89999998,NA,NA,357475.3,357477.10000002,2024-05-07T08:24:45Z,357492,NA,NA,NA,NA,NA,NA,NA,NA,NA,NA,NA,NA,NA,NA,NA,NA,NA,NA,NA,NA,Konkurrent,mshindani,s,msemaji,mvutaji,kipukusa,sdf,NA,0
56b99,Shallow Question,html.Page,3_0_0_0_7_1_0,mshindani,NA,form submission,9016.8000000715,357477.30000007,357475.3,357492,366508.80000007,366509.10000002,2024-05-07T08:24:54Z,366519.5,NA,NA,NA,NA,NA,NA,NA,NA,NA,NA,NA,NA,NA,NA,NA,NA,NA,NA,NA,NA,Konkurrent,mshindani,s,msemaji,mvutaji,kipukusa,NA,NA,0
56b99,"""Richtig""-Screen",canvas.Screen,3_0_0_0_7_1_1,NA,NA,timeout,4997.1,366512,366503.164,366519.5,371499.7,371500.70000005,2024-05-07T08:24:59Z,371516.6,NA,NA,NA,NA,NA,NA,NA,NA,NA,NA,NA,NA,NA,NA,NA,NA,NA,NA,NA,NA,Konkurrent,mshindani,s,msemaji,mvutaji,kipukusa,sdf,1,0
56b99,"""Falsch""-Screen",canvas.Screen,3_0_0_0_7_1_2,NA,NA,skipped,NA,371505.89999998,NA,NA,371499.7,371506,2024-05-07T08:24:59Z,371516.6,NA,NA,NA,NA,NA,NA,NA,NA,NA,NA,NA,NA,NA,NA,NA,NA,NA,NA,NA,NA,Konkurrent,mshindani,s,msemaji,mvutaji,kipukusa,sdf,NA,0
56b99,shallow,flow.Sequence,3_0_0_0_7_1,NA,NA,completion,14007.7,357477.20000005,357475.3,357492,371499.7,371506.10000002,2024-05-07T08:24:59Z,371516.6,NA,NA,NA,NA,NA,NA,NA,NA,NA,NA,NA,NA,NA,NA,NA,NA,NA,NA,NA,NA,Konkurrent,mshindani,s,msemaji,mvutaji,kipukusa,sdf,NA,0
56b99,task,flow.Sequence,3_0_0_0_7,NA,NA,completion,14007.7,357476.89999998,357475.3,357492,371499.7,371506.20000005,2024-05-07T08:24:59Z,371516.6,NA,NA,NA,NA,NA,NA,NA,NA,NA,NA,NA,NA,NA,NA,NA,NA,NA,NA,NA,NA,Konkurrent,mshindani,s,msemaji,mvutaji,kipukusa,sdf,NA,0
56b99,block,flow.Loop,3_0_0_0,NA,NA,completion,136612.186,234887.39999998,234887.514,234887.514,371499.7,371506.20000005,2024-05-07T08:24:59Z,371516.6,NA,NA,NA,NA,NA,NA,NA,NA,NA,NA,NA,NA,NA,NA,NA,NA,NA,NA,NA,NA,NA,NA,NA,NA,NA,NA,sdf,NA,0
56b99,weiter,canvas.Screen,3_0_0_1,sdf,keypress(Space),response,2051.1000000477,371506.20000005,371499.7,371516.6,373567.70000005,373568.80000007,2024-05-07T08:25:01Z,373582.258,NA,NA,NA,NA,NA,NA,NA,NA,NA,NA,NA,NA,NA,NA,NA,NA,NA,NA,NA,NA,NA,NA,NA,NA,NA,NA,sdf,NA,0
56b99,check continue,flow.Sequence,3_0_0,NA,NA,completion,138680.18600005,234887.39999998,234887.514,234887.514,373567.70000005,373569.20000005,2024-05-07T08:25:01Z,373582.258,NA,NA,NA,NA,NA,NA,NA,NA,NA,NA,NA,NA,NA,NA,NA,NA,NA,NA,NA,NA,NA,NA,NA,NA,NA,NA,sdf,NA,0
56b99,deep,flow.Sequence,3_0_1_0_0_0,NA,NA,skipped,NA,373590.89999998,NA,NA,373567.70000005,373591,2024-05-07T08:25:01Z,373582.258,NA,NA,NA,NA,NA,NA,NA,NA,NA,NA,NA,NA,NA,NA,NA,NA,NA,NA,NA,NA,Konkurrent,mshindani,s,msemaji,mvutaji,kipukusa,sdfdsf,NA,1
56b99,Shallow Question,html.Page,3_0_1_0_0_1_0,mshindani,NA,form submission,6818.5420000716,373591,373582.258,373582.258,380400.80000007,380401.10000002,2024-05-07T08:25:08Z,380410.8,NA,NA,NA,NA,NA,NA,NA,NA,NA,NA,NA,NA,NA,NA,NA,NA,NA,NA,NA,NA,Konkurrent,mshindani,s,msemaji,mvutaji,kipukusa,NA,NA,1
56b99,"""Richtig""-Screen",canvas.Screen,3_0_1_0_0_1_1,NA,NA,timeout,4997.5,380404.10000002,380394.88,380410.8,385391.2,385392.70000005,2024-05-07T08:25:13Z,385408.3,NA,NA,NA,NA,NA,NA,NA,NA,NA,NA,NA,NA,NA,NA,NA,NA,NA,NA,NA,NA,Konkurrent,mshindani,s,msemaji,mvutaji,kipukusa,sdfdsf,1,1
56b99,"""Falsch""-Screen",canvas.Screen,3_0_1_0_0_1_2,NA,NA,skipped,NA,385397.80000007,NA,NA,385391.2,385397.89999998,2024-05-07T08:25:13Z,385408.3,NA,NA,NA,NA,NA,NA,NA,NA,NA,NA,NA,NA,NA,NA,NA,NA,NA,NA,NA,NA,Konkurrent,mshindani,s,msemaji,mvutaji,kipukusa,sdfdsf,NA,1
56b99,shallow,flow.Sequence,3_0_1_0_0_1,NA,NA,completion,11808.942,373591,373582.258,373582.258,385391.2,385398,2024-05-07T08:25:13Z,385408.3,NA,NA,NA,NA,NA,NA,NA,NA,NA,NA,NA,NA,NA,NA,NA,NA,NA,NA,NA,NA,Konkurrent,mshindani,s,msemaji,mvutaji,kipukusa,sdfdsf,NA,1
56b99,task,flow.Sequence,3_0_1_0_0,NA,NA,completion,11808.942,373590.89999998,373582.258,373582.258,385391.2,385398.10000002,2024-05-07T08:25:13Z,385408.3,NA,NA,NA,NA,NA,NA,NA,NA,NA,NA,NA,NA,NA,NA,NA,NA,NA,NA,NA,NA,Konkurrent,mshindani,s,msemaji,mvutaji,kipukusa,sdfdsf,NA,1
56b99,Deep Question,html.Page,3_0_1_0_1_0_0,dölf,NA,form submission,14022.500000072,385398.10000002,385391.2,385408.3,399430.80000007,399431,2024-05-07T08:25:27Z,399432.728,NA,NA,NA,NA,NA,NA,NA,NA,NA,NA,NA,NA,NA,NA,NA,NA,NA,NA,NA,NA,Zuwachs,nyongeza,d,NA,NA,NA,NA,NA,1
56b99,"""Richtig""-Screen",canvas.Screen,3_0_1_0_1_0_1,NA,NA,skipped,NA,399433.30000007,NA,NA,399430.80000007,399433.5,2024-05-07T08:25:27Z,399432.728,NA,NA,NA,NA,NA,NA,NA,NA,NA,NA,NA,NA,NA,NA,NA,NA,NA,NA,NA,NA,Zuwachs,nyongeza,d,NA,NA,NA,sdfdsf,NA,1
56b99,"""Falsch""-Screen",canvas.Screen,3_0_1_0_1_0_2,NA,NA,timeout,4997.172,399434.10000002,399432.728,399432.728,404413.2,404414.10000002,2024-05-07T08:25:32Z,404429.9,NA,NA,NA,NA,NA,NA,NA,NA,NA,NA,NA,NA,NA,NA,NA,NA,NA,NA,NA,NA,Zuwachs,nyongeza,d,NA,NA,NA,sdfdsf,0,1
56b99,deep,flow.Sequence,3_0_1_0_1_0,NA,NA,completion,19004.9,385398.10000002,385391.2,385408.3,404413.2,404414.39999998,2024-05-07T08:25:32Z,404429.9,NA,NA,NA,NA,NA,NA,NA,NA,NA,NA,NA,NA,NA,NA,NA,NA,NA,NA,NA,NA,Zuwachs,nyongeza,d,NA,NA,NA,sdfdsf,NA,1
56b99,shallow,flow.Sequence,3_0_1_0_1_1,NA,NA,skipped,NA,404414.60000002,NA,NA,404413.2,404414.70000005,2024-05-07T08:25:32Z,404429.9,NA,NA,NA,NA,NA,NA,NA,NA,NA,NA,NA,NA,NA,NA,NA,NA,NA,NA,NA,NA,Zuwachs,nyongeza,d,NA,NA,NA,sdfdsf,NA,1
56b99,task,flow.Sequence,3_0_1_0_1,NA,NA,completion,19004.9,385398.10000002,385391.2,385408.3,404413.2,404414.89999998,2024-05-07T08:25:32Z,404429.9,NA,NA,NA,NA,NA,NA,NA,NA,NA,NA,NA,NA,NA,NA,NA,NA,NA,NA,NA,NA,Zuwachs,nyongeza,d,NA,NA,NA,sdfdsf,NA,1
56b99,Deep Question,html.Page,3_0_1_0_2_0_0,klf,NA,form submission,14823.400000072,404415.10000002,404413.2,404429.9,419253.30000007,419253.5,2024-05-07T08:25:46Z,419254.734,NA,NA,NA,NA,NA,NA,NA,NA,NA,NA,NA,NA,NA,NA,NA,NA,NA,NA,NA,NA,Übersicht,kilindo,d,NA,NA,NA,NA,NA,1
56b99,"""Richtig""-Screen",canvas.Screen,3_0_1_0_2_0_1,NA,NA,skipped,NA,419256.60000002,NA,NA,419253.30000007,419256.70000005,2024-05-07T08:25:46Z,419254.734,NA,NA,NA,NA,NA,NA,NA,NA,NA,NA,NA,NA,NA,NA,NA,NA,NA,NA,NA,NA,Übersicht,kilindo,d,NA,NA,NA,sdfdsf,NA,1
56b99,"""Falsch""-Screen",canvas.Screen,3_0_1_0_2_0_2,NA,NA,timeout,4996.466,419257.5,419254.734,419254.734,424234.6,424235.60000002,2024-05-07T08:25:51Z,424251.2,NA,NA,NA,NA,NA,NA,NA,NA,NA,NA,NA,NA,NA,NA,NA,NA,NA,NA,NA,NA,Übersicht,kilindo,d,NA,NA,NA,sdfdsf,0,1
56b99,deep,flow.Sequence,3_0_1_0_2_0,NA,NA,completion,19804.7,404415.10000002,404413.2,404429.9,424234.6,424235.89999998,2024-05-07T08:25:51Z,424251.2,NA,NA,NA,NA,NA,NA,NA,NA,NA,NA,NA,NA,NA,NA,NA,NA,NA,NA,NA,NA,Übersicht,kilindo,d,NA,NA,NA,sdfdsf,NA,1
56b99,shallow,flow.Sequence,3_0_1_0_2_1,NA,NA,skipped,NA,424236,NA,NA,424234.6,424236.10000002,2024-05-07T08:25:51Z,424251.2,NA,NA,NA,NA,NA,NA,NA,NA,NA,NA,NA,NA,NA,NA,NA,NA,NA,NA,NA,NA,Übersicht,kilindo,d,NA,NA,NA,sdfdsf,NA,1
56b99,task,flow.Sequence,3_0_1_0_2,NA,NA,completion,19804.7,404415.10000002,404413.2,404429.9,424234.6,424236.39999998,2024-05-07T08:25:51Z,424251.2,NA,NA,NA,NA,NA,NA,NA,NA,NA,NA,NA,NA,NA,NA,NA,NA,NA,NA,NA,NA,Übersicht,kilindo,d,NA,NA,NA,sdfdsf,NA,1
56b99,Deep Question,html.Page,3_0_1_0_3_0_0,glf,NA,form submission,9705.1999999761,424236.60000002,424234.6,424251.2,433956.39999998,433956.60000002,2024-05-07T08:26:01Z,433978.1,NA,NA,NA,NA,NA,NA,NA,NA,NA,NA,NA,NA,NA,NA,NA,NA,NA,NA,NA,NA,Körper,kiwiliwili,d,NA,NA,NA,NA,NA,1
56b99,"""Richtig""-Screen",canvas.Screen,3_0_1_0_3_0_1,NA,NA,skipped,NA,433959.60000002,NA,NA,433956.39999998,433959.70000005,2024-05-07T08:26:01Z,433978.1,NA,NA,NA,NA,NA,NA,NA,NA,NA,NA,NA,NA,NA,NA,NA,NA,NA,NA,NA,NA,Körper,kiwiliwili,d,NA,NA,NA,sdfdsf,NA,1
56b99,"""Falsch""-Screen",canvas.Screen,3_0_1_0_3_0_2,NA,NA,timeout,4997.5,433960.5,433962.244,433978.1,438958.6,438959.89999998,2024-05-07T08:26:06Z,438975.6,NA,NA,NA,NA,NA,NA,NA,NA,NA,NA,NA,NA,NA,NA,NA,NA,NA,NA,NA,NA,Körper,kiwiliwili,d,NA,NA,NA,sdfdsf,0,1
56b99,deep,flow.Sequence,3_0_1_0_3_0,NA,NA,completion,14707.4,424236.5,424234.6,424251.2,438958.6,438960.30000007,2024-05-07T08:26:06Z,438975.6,NA,NA,NA,NA,NA,NA,NA,NA,NA,NA,NA,NA,NA,NA,NA,NA,NA,NA,NA,NA,Körper,kiwiliwili,d,NA,NA,NA,sdfdsf,NA,1
56b99,shallow,flow.Sequence,3_0_1_0_3_1,NA,NA,skipped,NA,438960.5,NA,NA,438958.6,438960.70000005,2024-05-07T08:26:06Z,438975.6,NA,NA,NA,NA,NA,NA,NA,NA,NA,NA,NA,NA,NA,NA,NA,NA,NA,NA,NA,NA,Körper,kiwiliwili,d,NA,NA,NA,sdfdsf,NA,1
56b99,task,flow.Sequence,3_0_1_0_3,NA,NA,completion,14707.4,424236.5,424234.6,424251.2,438958.6,438960.89999998,2024-05-07T08:26:06Z,438975.6,NA,NA,NA,NA,NA,NA,NA,NA,NA,NA,NA,NA,NA,NA,NA,NA,NA,NA,NA,NA,Körper,kiwiliwili,d,NA,NA,NA,sdfdsf,NA,1
56b99,deep,flow.Sequence,3_0_1_0_4_0,NA,NA,skipped,NA,438961,NA,NA,438958.6,438961.10000002,2024-05-07T08:26:06Z,438975.6,NA,NA,NA,NA,NA,NA,NA,NA,NA,NA,NA,NA,NA,NA,NA,NA,NA,NA,NA,NA,Lawine,banguko,s,maambukizi,usuluhishi,chekechea,sdfdsf,NA,1
56b99,Shallow Question,html.Page,3_0_1_0_4_1_0,banguko,NA,form submission,15133.700000072,438961.30000007,438958.6,438975.6,454109.30000007,454109.60000002,2024-05-07T08:26:21Z,454115.8,NA,NA,NA,NA,NA,NA,NA,NA,NA,NA,NA,NA,NA,NA,NA,NA,NA,NA,NA,NA,Lawine,banguko,s,maambukizi,usuluhishi,chekechea,NA,NA,1
56b99,"""Richtig""-Screen",canvas.Screen,3_0_1_0_4_1_1,NA,NA,timeout,4997.6,454112.60000002,454099.73,454115.8,459096.6,459097.60000002,2024-05-07T08:26:26Z,459113.4,NA,NA,NA,NA,NA,NA,NA,NA,NA,NA,NA,NA,NA,NA,NA,NA,NA,NA,NA,NA,Lawine,banguko,s,maambukizi,usuluhishi,chekechea,sdfdsf,1,1
56b99,"""Falsch""-Screen",canvas.Screen,3_0_1_0_4_1_2,NA,NA,skipped,NA,459102.89999998,NA,NA,459096.6,459103,2024-05-07T08:26:26Z,459113.4,NA,NA,NA,NA,NA,NA,NA,NA,NA,NA,NA,NA,NA,NA,NA,NA,NA,NA,NA,NA,Lawine,banguko,s,maambukizi,usuluhishi,chekechea,sdfdsf,NA,1
56b99,shallow,flow.Sequence,3_0_1_0_4_1,NA,NA,completion,20121,438961.20000005,438958.6,438975.6,459096.6,459103.10000002,2024-05-07T08:26:26Z,459113.4,NA,NA,NA,NA,NA,NA,NA,NA,NA,NA,NA,NA,NA,NA,NA,NA,NA,NA,NA,NA,Lawine,banguko,s,maambukizi,usuluhishi,chekechea,sdfdsf,NA,1
56b99,task,flow.Sequence,3_0_1_0_4,NA,NA,completion,20121,438961,438958.6,438975.6,459096.6,459103.10000002,2024-05-07T08:26:26Z,459113.4,NA,NA,NA,NA,NA,NA,NA,NA,NA,NA,NA,NA,NA,NA,NA,NA,NA,NA,NA,NA,Lawine,banguko,s,maambukizi,usuluhishi,chekechea,sdfdsf,NA,1
56b99,Deep Question,html.Page,3_0_1_0_5_0_0,kglf,NA,form submission,5709.9999999761,459103.20000005,459096.6,459113.4,464823.39999998,464823.60000002,2024-05-07T08:26:32Z,464826.782,NA,NA,NA,NA,NA,NA,NA,NA,NA,NA,NA,NA,NA,NA,NA,NA,NA,NA,NA,NA,Symbol,kielezo,d,NA,NA,NA,NA,NA,1
56b99,"""Richtig""-Screen",canvas.Screen,3_0_1_0_5_0_1,NA,NA,skipped,NA,464826.60000002,NA,NA,464823.39999998,464826.70000005,2024-05-07T08:26:32Z,464826.782,NA,NA,NA,NA,NA,NA,NA,NA,NA,NA,NA,NA,NA,NA,NA,NA,NA,NA,NA,NA,Symbol,kielezo,d,NA,NA,NA,sdfdsf,NA,1
56b99,"""Falsch""-Screen",canvas.Screen,3_0_1_0_5_0_2,NA,NA,timeout,4996.718,464827.39999998,464826.782,464826.782,469806.7,469807.60000002,2024-05-07T08:26:37Z,469823.5,NA,NA,NA,NA,NA,NA,NA,NA,NA,NA,NA,NA,NA,NA,NA,NA,NA,NA,NA,NA,Symbol,kielezo,d,NA,NA,NA,sdfdsf,0,1
56b99,deep,flow.Sequence,3_0_1_0_5_0,NA,NA,completion,10693.3,459103.20000005,459096.6,459113.4,469806.7,469807.89999998,2024-05-07T08:26:37Z,469823.5,NA,NA,NA,NA,NA,NA,NA,NA,NA,NA,NA,NA,NA,NA,NA,NA,NA,NA,NA,NA,Symbol,kielezo,d,NA,NA,NA,sdfdsf,NA,1
56b99,shallow,flow.Sequence,3_0_1_0_5_1,NA,NA,skipped,NA,469808,NA,NA,469806.7,469808.10000002,2024-05-07T08:26:37Z,469823.5,NA,NA,NA,NA,NA,NA,NA,NA,NA,NA,NA,NA,NA,NA,NA,NA,NA,NA,NA,NA,Symbol,kielezo,d,NA,NA,NA,sdfdsf,NA,1
56b99,task,flow.Sequence,3_0_1_0_5,NA,NA,completion,10693.3,459103.20000005,459096.6,459113.4,469806.7,469808.39999998,2024-05-07T08:26:37Z,469823.5,NA,NA,NA,NA,NA,NA,NA,NA,NA,NA,NA,NA,NA,NA,NA,NA,NA,NA,NA,NA,Symbol,kielezo,d,NA,NA,NA,sdfdsf,NA,1
56b99,deep,flow.Sequence,3_0_1_0_6_0,NA,NA,skipped,NA,469808.5,NA,NA,469806.7,469808.60000002,2024-05-07T08:26:37Z,469823.5,NA,NA,NA,NA,NA,NA,NA,NA,NA,NA,NA,NA,NA,NA,NA,NA,NA,NA,NA,NA,Vorsorge,tahadhari,s,ufafanuzi,makini,mashambani,sdfdsf,NA,1
56b99,Shallow Question,html.Page,3_0_1_0_6_1_0,mashambani,NA,form submission,9501.3999999762,469808.70000005,469806.7,469823.5,479324.89999998,479325.20000005,2024-05-07T08:26:47Z,479334,NA,NA,NA,NA,NA,NA,NA,NA,NA,NA,NA,NA,NA,NA,NA,NA,NA,NA,NA,NA,Vorsorge,tahadhari,s,ufafanuzi,makini,mashambani,NA,NA,1
56b99,"""Richtig""-Screen",canvas.Screen,3_0_1_0_6_1_1,NA,NA,skipped,NA,479328.10000002,NA,NA,479324.89999998,479328.20000005,2024-05-07T08:26:47Z,479334,NA,NA,NA,NA,NA,NA,NA,NA,NA,NA,NA,NA,NA,NA,NA,NA,NA,NA,NA,NA,Vorsorge,tahadhari,s,ufafanuzi,makini,mashambani,sdfdsf,NA,1
56b99,"""Falsch""-Screen",canvas.Screen,3_0_1_0_6_1_2,NA,NA,timeout,4997.1,479328.89999998,479317.726,479334,484314.4,484315.39999998,2024-05-07T08:26:52Z,484331.1,NA,NA,NA,NA,NA,NA,NA,NA,NA,NA,NA,NA,NA,NA,NA,NA,NA,NA,NA,NA,Vorsorge,tahadhari,s,ufafanuzi,makini,mashambani,sdfdsf,0,1
56b99,shallow,flow.Sequence,3_0_1_0_6_1,NA,NA,completion,14490.9,469808.60000002,469806.7,469823.5,484314.4,484315.80000007,2024-05-07T08:26:52Z,484331.1,NA,NA,NA,NA,NA,NA,NA,NA,NA,NA,NA,NA,NA,NA,NA,NA,NA,NA,NA,NA,Vorsorge,tahadhari,s,ufafanuzi,makini,mashambani,sdfdsf,NA,1
56b99,task,flow.Sequence,3_0_1_0_6,NA,NA,completion,14490.9,469808.5,469806.7,469823.5,484314.4,484315.89999998,2024-05-07T08:26:52Z,484331.1,NA,NA,NA,NA,NA,NA,NA,NA,NA,NA,NA,NA,NA,NA,NA,NA,NA,NA,NA,NA,Vorsorge,tahadhari,s,ufafanuzi,makini,mashambani,sdfdsf,NA,1
56b99,deep,flow.Sequence,3_0_1_0_7_0,NA,NA,skipped,NA,484316.10000002,NA,NA,484314.4,484316.20000005,2024-05-07T08:26:52Z,484331.1,NA,NA,NA,NA,NA,NA,NA,NA,NA,NA,NA,NA,NA,NA,NA,NA,NA,NA,NA,NA,System,maongozi,s,chokochoko,nuksani,mitaani,sdfdsf,NA,1
56b99,Shallow Question,html.Page,3_0_1_0_7_1_0,maongozi,NA,form submission,8542.2999999762,484316.39999998,484314.4,484331.1,492873.39999998,492873.60000002,2024-05-07T08:27:00Z,492876.128,NA,NA,NA,NA,NA,NA,NA,NA,NA,NA,NA,NA,NA,NA,NA,NA,NA,NA,NA,NA,System,maongozi,s,chokochoko,nuksani,mitaani,NA,NA,1
56b99,"""Richtig""-Screen",canvas.Screen,3_0_1_0_7_1_1,NA,NA,timeout,4996.672,492876.60000002,492876.128,492876.128,497856.2,497857.10000002,2024-05-07T08:27:05Z,497872.8,NA,NA,NA,NA,NA,NA,NA,NA,NA,NA,NA,NA,NA,NA,NA,NA,NA,NA,NA,NA,System,maongozi,s,chokochoko,nuksani,mitaani,sdfdsf,1,1
56b99,"""Falsch""-Screen",canvas.Screen,3_0_1_0_7_1_2,NA,NA,skipped,NA,497862.39999998,NA,NA,497856.2,497862.5,2024-05-07T08:27:05Z,497872.8,NA,NA,NA,NA,NA,NA,NA,NA,NA,NA,NA,NA,NA,NA,NA,NA,NA,NA,NA,NA,System,maongozi,s,chokochoko,nuksani,mitaani,sdfdsf,NA,1
56b99,shallow,flow.Sequence,3_0_1_0_7_1,NA,NA,completion,13525.1,484316.39999998,484314.4,484331.1,497856.2,497862.60000002,2024-05-07T08:27:05Z,497872.8,NA,NA,NA,NA,NA,NA,NA,NA,NA,NA,NA,NA,NA,NA,NA,NA,NA,NA,NA,NA,System,maongozi,s,chokochoko,nuksani,mitaani,sdfdsf,NA,1
56b99,task,flow.Sequence,3_0_1_0_7,NA,NA,completion,13525.1,484316,484314.4,484331.1,497856.2,497862.60000002,2024-05-07T08:27:05Z,497872.8,NA,NA,NA,NA,NA,NA,NA,NA,NA,NA,NA,NA,NA,NA,NA,NA,NA,NA,NA,NA,System,maongozi,s,chokochoko,nuksani,mitaani,sdfdsf,NA,1
56b99,block,flow.Loop,3_0_1_0,NA,NA,completion,124273.942,373590.89999998,373582.258,373582.258,497856.2,497862.70000005,2024-05-07T08:27:05Z,497872.8,NA,NA,NA,NA,NA,NA,NA,NA,NA,NA,NA,NA,NA,NA,NA,NA,NA,NA,NA,NA,NA,NA,NA,NA,NA,NA,sdfdsf,NA,1
56b99,weiter,canvas.Screen,3_0_1_1,sdf,keypress(Space),response,1712.2,497862.80000007,497856.2,497872.8,499585,499585.89999998,2024-05-07T08:27:07Z,499605.126,NA,NA,NA,NA,NA,NA,NA,NA,NA,NA,NA,NA,NA,NA,NA,NA,NA,NA,NA,NA,NA,NA,NA,NA,NA,NA,sdfdsf,NA,1
56b99,check continue,flow.Sequence,3_0_1,NA,NA,completion,126002.742,373590.89999998,373582.258,373582.258,499585,499586.20000005,2024-05-07T08:27:07Z,499605.126,NA,NA,NA,NA,NA,NA,NA,NA,NA,NA,NA,NA,NA,NA,NA,NA,NA,NA,NA,NA,NA,NA,NA,NA,NA,NA,sdfdsf,NA,1
56b99,Deep Question,html.Page,3_0_2_0_0_0_0,kiliwi,NA,form submission,15896.174000072,499604.80000007,499605.126,499605.126,515501.30000007,515501.5,2024-05-07T08:27:23Z,515511.9,NA,NA,NA,NA,NA,NA,NA,NA,NA,NA,NA,NA,NA,NA,NA,NA,NA,NA,NA,NA,Zuwachs,nyongeza,d,NA,NA,NA,NA,NA,2
56b99,"""Richtig""-Screen",canvas.Screen,3_0_2_0_0_0_1,NA,NA,skipped,NA,515504.5,NA,NA,515501.30000007,515504.70000005,2024-05-07T08:27:23Z,515511.9,NA,NA,NA,NA,NA,NA,NA,NA,NA,NA,NA,NA,NA,NA,NA,NA,NA,NA,NA,NA,Zuwachs,nyongeza,d,NA,NA,NA,sdf,NA,2
56b99,"""Falsch""-Screen",canvas.Screen,3_0_2_0_0_0_2,NA,NA,timeout,4996.8,515505.39999998,515495.762,515511.9,520492.5,520492.89999998,2024-05-07T08:27:28Z,520508.7,NA,NA,NA,NA,NA,NA,NA,NA,NA,NA,NA,NA,NA,NA,NA,NA,NA,NA,NA,NA,Zuwachs,nyongeza,d,NA,NA,NA,sdf,0,2
56b99,deep,flow.Sequence,3_0_2_0_0_0,NA,NA,completion,20887.374,499604.80000007,499605.126,499605.126,520492.5,520493,2024-05-07T08:27:28Z,520508.7,NA,NA,NA,NA,NA,NA,NA,NA,NA,NA,NA,NA,NA,NA,NA,NA,NA,NA,NA,NA,Zuwachs,nyongeza,d,NA,NA,NA,sdf,NA,2
56b99,shallow,flow.Sequence,3_0_2_0_0_1,NA,NA,skipped,NA,520493,NA,NA,520492.5,520493.10000002,2024-05-07T08:27:28Z,520508.7,NA,NA,NA,NA,NA,NA,NA,NA,NA,NA,NA,NA,NA,NA,NA,NA,NA,NA,NA,NA,Zuwachs,nyongeza,d,NA,NA,NA,sdf,NA,2
56b99,task,flow.Sequence,3_0_2_0_0,NA,NA,completion,20887.374,499604.80000007,499605.126,499605.126,520492.5,520493.20000005,2024-05-07T08:27:28Z,520508.7,NA,NA,NA,NA,NA,NA,NA,NA,NA,NA,NA,NA,NA,NA,NA,NA,NA,NA,NA,NA,Zuwachs,nyongeza,d,NA,NA,NA,sdf,NA,2
56b99,Deep Question,html.Page,3_0_2_0_1_0_0,kiliwi,NA,form submission,7081.1000000715,520493.20000005,520492.5,520508.7,527589.80000007,527590,2024-05-07T08:27:35Z,527604.8,NA,NA,NA,NA,NA,NA,NA,NA,NA,NA,NA,NA,NA,NA,NA,NA,NA,NA,NA,NA,Körper,kiwiliwili,d,NA,NA,NA,NA,NA,2
56b99,"""Richtig""-Screen",canvas.Screen,3_0_2_0_1_0_1,NA,NA,skipped,NA,527593,NA,NA,527589.80000007,527593.10000002,2024-05-07T08:27:35Z,527604.8,NA,NA,NA,NA,NA,NA,NA,NA,NA,NA,NA,NA,NA,NA,NA,NA,NA,NA,NA,NA,Körper,kiwiliwili,d,NA,NA,NA,sdf,NA,2
56b99,"""Falsch""-Screen",canvas.Screen,3_0_2_0_1_0_2,NA,NA,timeout,4996.5,527593.89999998,527588,527604.8,532584.6,532585.60000002,2024-05-07T08:27:40Z,532601.3,NA,NA,NA,NA,NA,NA,NA,NA,NA,NA,NA,NA,NA,NA,NA,NA,NA,NA,NA,NA,Körper,kiwiliwili,d,NA,NA,NA,sdf,0,2
56b99,deep,flow.Sequence,3_0_2_0_1_0,NA,NA,completion,12075.9,520493.20000005,520492.5,520508.7,532584.6,532586,2024-05-07T08:27:40Z,532601.3,NA,NA,NA,NA,NA,NA,NA,NA,NA,NA,NA,NA,NA,NA,NA,NA,NA,NA,NA,NA,Körper,kiwiliwili,d,NA,NA,NA,sdf,NA,2
56b99,shallow,flow.Sequence,3_0_2_0_1_1,NA,NA,skipped,NA,532586.10000002,NA,NA,532584.6,532586.30000007,2024-05-07T08:27:40Z,532601.3,NA,NA,NA,NA,NA,NA,NA,NA,NA,NA,NA,NA,NA,NA,NA,NA,NA,NA,NA,NA,Körper,kiwiliwili,d,NA,NA,NA,sdf,NA,2
56b99,task,flow.Sequence,3_0_2_0_1,NA,NA,completion,12075.9,520493.20000005,520492.5,520508.7,532584.6,532586.39999998,2024-05-07T08:27:40Z,532601.3,NA,NA,NA,NA,NA,NA,NA,NA,NA,NA,NA,NA,NA,NA,NA,NA,NA,NA,NA,NA,Körper,kiwiliwili,d,NA,NA,NA,sdf,NA,2
56b99,Deep Question,html.Page,3_0_2_0_2_0_0,jggl,NA,form submission,7040.8000000238,532586.60000002,532584.6,532601.3,539642.10000002,539642.30000007,2024-05-07T08:27:47Z,539647.686,NA,NA,NA,NA,NA,NA,NA,NA,NA,NA,NA,NA,NA,NA,NA,NA,NA,NA,NA,NA,Symbol,kielezo,d,NA,NA,NA,NA,NA,2
56b99,"""Richtig""-Screen",canvas.Screen,3_0_2_0_2_0_1,NA,NA,skipped,NA,539643.60000002,NA,NA,539642.10000002,539643.70000005,2024-05-07T08:27:47Z,539647.686,NA,NA,NA,NA,NA,NA,NA,NA,NA,NA,NA,NA,NA,NA,NA,NA,NA,NA,NA,NA,Symbol,kielezo,d,NA,NA,NA,sdf,NA,2
56b99,"""Falsch""-Screen",canvas.Screen,3_0_2_0_2_0_2,NA,NA,timeout,4996.214,539644,539647.686,539647.686,544627.8,544628.80000007,2024-05-07T08:27:52Z,544643.9,NA,NA,NA,NA,NA,NA,NA,NA,NA,NA,NA,NA,NA,NA,NA,NA,NA,NA,NA,NA,Symbol,kielezo,d,NA,NA,NA,sdf,0,2
56b99,deep,flow.Sequence,3_0_2_0_2_0,NA,NA,completion,12026.5,532586.60000002,532584.6,532601.3,544627.8,544629.20000005,2024-05-07T08:27:52Z,544643.9,NA,NA,NA,NA,NA,NA,NA,NA,NA,NA,NA,NA,NA,NA,NA,NA,NA,NA,NA,NA,Symbol,kielezo,d,NA,NA,NA,sdf,NA,2
56b99,shallow,flow.Sequence,3_0_2_0_2_1,NA,NA,skipped,NA,544629.30000007,NA,NA,544627.8,544629.5,2024-05-07T08:27:52Z,544643.9,NA,NA,NA,NA,NA,NA,NA,NA,NA,NA,NA,NA,NA,NA,NA,NA,NA,NA,NA,NA,Symbol,kielezo,d,NA,NA,NA,sdf,NA,2
56b99,task,flow.Sequence,3_0_2_0_2,NA,NA,completion,12026.5,532586.60000002,532584.6,532601.3,544627.8,544629.70000005,2024-05-07T08:27:52Z,544643.9,NA,NA,NA,NA,NA,NA,NA,NA,NA,NA,NA,NA,NA,NA,NA,NA,NA,NA,NA,NA,Symbol,kielezo,d,NA,NA,NA,sdf,NA,2
56b99,deep,flow.Sequence,3_0_2_0_3_0,NA,NA,skipped,NA,544629.80000007,NA,NA,544627.8,544629.89999998,2024-05-07T08:27:52Z,544643.9,NA,NA,NA,NA,NA,NA,NA,NA,NA,NA,NA,NA,NA,NA,NA,NA,NA,NA,NA,NA,Vorsorge,tahadhari,s,ufafanuzi,makini,mashambani,sdf,NA,2
56b99,Shallow Question,html.Page,3_0_2_0_3_1_0,tahadhari,NA,form submission,4879.6,544630,544627.8,544643.9,549523.5,549523.80000007,2024-05-07T08:27:57Z,549525.112,NA,NA,NA,NA,NA,NA,NA,NA,NA,NA,NA,NA,NA,NA,NA,NA,NA,NA,NA,NA,Vorsorge,tahadhari,s,ufafanuzi,makini,mashambani,NA,NA,2
56b99,"""Richtig""-Screen",canvas.Screen,3_0_2_0_3_1_1,NA,NA,timeout,4996.588,549526.89999998,549525.112,549525.112,554504.7,554505.60000002,2024-05-07T08:28:02Z,554521.7,NA,NA,NA,NA,NA,NA,NA,NA,NA,NA,NA,NA,NA,NA,NA,NA,NA,NA,NA,NA,Vorsorge,tahadhari,s,ufafanuzi,makini,mashambani,sdf,1,2
56b99,"""Falsch""-Screen",canvas.Screen,3_0_2_0_3_1_2,NA,NA,skipped,NA,554510.70000005,NA,NA,554504.7,554510.89999998,2024-05-07T08:28:02Z,554521.7,NA,NA,NA,NA,NA,NA,NA,NA,NA,NA,NA,NA,NA,NA,NA,NA,NA,NA,NA,NA,Vorsorge,tahadhari,s,ufafanuzi,makini,mashambani,sdf,NA,2
56b99,shallow,flow.Sequence,3_0_2_0_3_1,NA,NA,completion,9860.7999999999,544630,544627.8,544643.9,554504.7,554511,2024-05-07T08:28:02Z,554521.7,NA,NA,NA,NA,NA,NA,NA,NA,NA,NA,NA,NA,NA,NA,NA,NA,NA,NA,NA,NA,Vorsorge,tahadhari,s,ufafanuzi,makini,mashambani,sdf,NA,2
56b99,task,flow.Sequence,3_0_2_0_3,NA,NA,completion,9860.7999999999,544629.70000005,544627.8,544643.9,554504.7,554511.10000002,2024-05-07T08:28:02Z,554521.7,NA,NA,NA,NA,NA,NA,NA,NA,NA,NA,NA,NA,NA,NA,NA,NA,NA,NA,NA,NA,Vorsorge,tahadhari,s,ufafanuzi,makini,mashambani,sdf,NA,2
56b99,deep,flow.Sequence,3_0_2_0_4_0,NA,NA,skipped,NA,554511.20000005,NA,NA,554504.7,554511.20000005,2024-05-07T08:28:02Z,554521.7,NA,NA,NA,NA,NA,NA,NA,NA,NA,NA,NA,NA,NA,NA,NA,NA,NA,NA,NA,NA,System,maongozi,s,chokochoko,nuksani,mitaani,sdf,NA,2
56b99,Shallow Question,html.Page,3_0_2_0_4_1_0,maongozi,NA,form submission,9298.9000000239,554511.20000005,554504.7,554521.7,563820.60000002,563820.70000005,2024-05-07T08:28:11Z,563832.6,NA,NA,NA,NA,NA,NA,NA,NA,NA,NA,NA,NA,NA,NA,NA,NA,NA,NA,NA,NA,System,maongozi,s,chokochoko,nuksani,mitaani,NA,NA,2
56b99,"""Richtig""-Screen",canvas.Screen,3_0_2_0_4_1_1,NA,NA,timeout,4996.9,563823.89999998,563816.194,563832.6,568812.6,568813.89999998,2024-05-07T08:28:16Z,568829.5,NA,NA,NA,NA,NA,NA,NA,NA,NA,NA,NA,NA,NA,NA,NA,NA,NA,NA,NA,NA,System,maongozi,s,chokochoko,nuksani,mitaani,sdf,1,2
56b99,"""Falsch""-Screen",canvas.Screen,3_0_2_0_4_1_2,NA,NA,skipped,NA,568818.70000005,NA,NA,568812.6,568818.80000007,2024-05-07T08:28:16Z,568829.5,NA,NA,NA,NA,NA,NA,NA,NA,NA,NA,NA,NA,NA,NA,NA,NA,NA,NA,NA,NA,System,maongozi,s,chokochoko,nuksani,mitaani,sdf,NA,2
56b99,shallow,flow.Sequence,3_0_2_0_4_1,NA,NA,completion,14290.9,554511.20000005,554504.7,554521.7,568812.6,568818.89999998,2024-05-07T08:28:16Z,568829.5,NA,NA,NA,NA,NA,NA,NA,NA,NA,NA,NA,NA,NA,NA,NA,NA,NA,NA,NA,NA,System,maongozi,s,chokochoko,nuksani,mitaani,sdf,NA,2
56b99,task,flow.Sequence,3_0_2_0_4,NA,NA,completion,14290.9,554511.10000002,554504.7,554521.7,568812.6,568819,2024-05-07T08:28:16Z,568829.5,NA,NA,NA,NA,NA,NA,NA,NA,NA,NA,NA,NA,NA,NA,NA,NA,NA,NA,NA,NA,System,maongozi,s,chokochoko,nuksani,mitaani,sdf,NA,2
56b99,deep,flow.Sequence,3_0_2_0_5_0,NA,NA,skipped,NA,568819,NA,NA,568812.6,568819.10000002,2024-05-07T08:28:16Z,568829.5,NA,NA,NA,NA,NA,NA,NA,NA,NA,NA,NA,NA,NA,NA,NA,NA,NA,NA,NA,NA,Konkurrent,mshindani,s,msemaji,mvutaji,kipukusa,sdf,NA,2
56b99,Shallow Question,html.Page,3_0_2_0_5_1_0,mshindani,NA,form submission,6505.8999999762,568819.10000002,568812.6,568829.5,575335.39999998,575335.70000005,2024-05-07T08:28:23Z,575341.9,NA,NA,NA,NA,NA,NA,NA,NA,NA,NA,NA,NA,NA,NA,NA,NA,NA,NA,NA,NA,Konkurrent,mshindani,s,msemaji,mvutaji,kipukusa,NA,NA,2
56b99,"""Richtig""-Screen",canvas.Screen,3_0_2_0_5_1_1,NA,NA,timeout,4997,575338.39999998,575325.82,575341.9,580322.3,580323.10000002,2024-05-07T08:28:28Z,580338.9,NA,NA,NA,NA,NA,NA,NA,NA,NA,NA,NA,NA,NA,NA,NA,NA,NA,NA,NA,NA,Konkurrent,mshindani,s,msemaji,mvutaji,kipukusa,sdf,1,2
56b99,"""Falsch""-Screen",canvas.Screen,3_0_2_0_5_1_2,NA,NA,skipped,NA,580327.80000007,NA,NA,580322.3,580327.89999998,2024-05-07T08:28:28Z,580338.9,NA,NA,NA,NA,NA,NA,NA,NA,NA,NA,NA,NA,NA,NA,NA,NA,NA,NA,NA,NA,Konkurrent,mshindani,s,msemaji,mvutaji,kipukusa,sdf,NA,2
56b99,shallow,flow.Sequence,3_0_2_0_5_1,NA,NA,completion,11492.8,568819.10000002,568812.6,568829.5,580322.3,580328.20000005,2024-05-07T08:28:28Z,580338.9,NA,NA,NA,NA,NA,NA,NA,NA,NA,NA,NA,NA,NA,NA,NA,NA,NA,NA,NA,NA,Konkurrent,mshindani,s,msemaji,mvutaji,kipukusa,sdf,NA,2
56b99,task,flow.Sequence,3_0_2_0_5,NA,NA,completion,11492.8,568819,568812.6,568829.5,580322.3,580328.30000007,2024-05-07T08:28:28Z,580338.9,NA,NA,NA,NA,NA,NA,NA,NA,NA,NA,NA,NA,NA,NA,NA,NA,NA,NA,NA,NA,Konkurrent,mshindani,s,msemaji,mvutaji,kipukusa,sdf,NA,2
56b99,deep,flow.Sequence,3_0_2_0_6_0,NA,NA,skipped,NA,580328.5,NA,NA,580322.3,580328.60000002,2024-05-07T08:28:28Z,580338.9,NA,NA,NA,NA,NA,NA,NA,NA,NA,NA,NA,NA,NA,NA,NA,NA,NA,NA,NA,NA,Lawine,banguko,s,maambukizi,usuluhishi,chekechea,sdf,NA,2
56b99,Shallow Question,html.Page,3_0_2_0_6_1_0,maambukizi,NA,form submission,11780.499999976,580328.60000002,580322.3,580338.9,592119.39999998,592119.60000002,2024-05-07T08:28:39Z,592132,NA,NA,NA,NA,NA,NA,NA,NA,NA,NA,NA,NA,NA,NA,NA,NA,NA,NA,NA,NA,Lawine,banguko,s,maambukizi,usuluhishi,chekechea,NA,NA,2
56b99,"""Richtig""-Screen",canvas.Screen,3_0_2_0_6_1_1,NA,NA,skipped,NA,592122.60000002,NA,NA,592119.39999998,592122.70000005,2024-05-07T08:28:39Z,592132,NA,NA,NA,NA,NA,NA,NA,NA,NA,NA,NA,NA,NA,NA,NA,NA,NA,NA,NA,NA,Lawine,banguko,s,maambukizi,usuluhishi,chekechea,sdf,NA,2
56b99,"""Falsch""-Screen",canvas.Screen,3_0_2_0_6_1_2,NA,NA,timeout,4997,592123.39999998,592115.614,592132,597112.3,597113,2024-05-07T08:28:44Z,597129,NA,NA,NA,NA,NA,NA,NA,NA,NA,NA,NA,NA,NA,NA,NA,NA,NA,NA,NA,NA,Lawine,banguko,s,maambukizi,usuluhishi,chekechea,sdf,0,2
56b99,shallow,flow.Sequence,3_0_2_0_6_1,NA,NA,completion,16773.4,580328.60000002,580322.3,580338.9,597112.3,597113.30000007,2024-05-07T08:28:44Z,597129,NA,NA,NA,NA,NA,NA,NA,NA,NA,NA,NA,NA,NA,NA,NA,NA,NA,NA,NA,NA,Lawine,banguko,s,maambukizi,usuluhishi,chekechea,sdf,NA,2
56b99,task,flow.Sequence,3_0_2_0_6,NA,NA,completion,16773.4,580328.5,580322.3,580338.9,597112.3,597113.60000002,2024-05-07T08:28:44Z,597129,NA,NA,NA,NA,NA,NA,NA,NA,NA,NA,NA,NA,NA,NA,NA,NA,NA,NA,NA,NA,Lawine,banguko,s,maambukizi,usuluhishi,chekechea,sdf,NA,2
56b99,Deep Question,html.Page,3_0_2_0_7_0_0,kglf,NA,form submission,5241.8999999762,597113.70000005,597112.3,597129,602370.89999998,602371.10000002,2024-05-07T08:28:50Z,602392.5,NA,NA,NA,NA,NA,NA,NA,NA,NA,NA,NA,NA,NA,NA,NA,NA,NA,NA,NA,NA,Übersicht,kilindo,d,NA,NA,NA,NA,NA,2
56b99,"""Richtig""-Screen",canvas.Screen,3_0_2_0_7_0_1,NA,NA,skipped,NA,602374.20000005,NA,NA,602370.89999998,602374.39999998,2024-05-07T08:28:50Z,602392.5,NA,NA,NA,NA,NA,NA,NA,NA,NA,NA,NA,NA,NA,NA,NA,NA,NA,NA,NA,NA,Übersicht,kilindo,d,NA,NA,NA,sdf,NA,2
56b99,"""Falsch""-Screen",canvas.Screen,3_0_2_0_7_0_2,NA,NA,timeout,4996.7,602375.20000005,602375.566,602392.5,607372.5,607373.5,2024-05-07T08:28:55Z,607389.2,NA,NA,NA,NA,NA,NA,NA,NA,NA,NA,NA,NA,NA,NA,NA,NA,NA,NA,NA,NA,Übersicht,kilindo,d,NA,NA,NA,sdf,0,2
56b99,deep,flow.Sequence,3_0_2_0_7_0,NA,NA,completion,10243.5,597113.70000005,597112.3,597129,607372.5,607373.80000007,2024-05-07T08:28:55Z,607389.2,NA,NA,NA,NA,NA,NA,NA,NA,NA,NA,NA,NA,NA,NA,NA,NA,NA,NA,NA,NA,Übersicht,kilindo,d,NA,NA,NA,sdf,NA,2
56b99,shallow,flow.Sequence,3_0_2_0_7_1,NA,NA,skipped,NA,607374,NA,NA,607372.5,607374.10000002,2024-05-07T08:28:55Z,607389.2,NA,NA,NA,NA,NA,NA,NA,NA,NA,NA,NA,NA,NA,NA,NA,NA,NA,NA,NA,NA,Übersicht,kilindo,d,NA,NA,NA,sdf,NA,2
56b99,task,flow.Sequence,3_0_2_0_7,NA,NA,completion,10243.5,597113.60000002,597112.3,597129,607372.5,607374.20000005,2024-05-07T08:28:55Z,607389.2,NA,NA,NA,NA,NA,NA,NA,NA,NA,NA,NA,NA,NA,NA,NA,NA,NA,NA,NA,NA,Übersicht,kilindo,d,NA,NA,NA,sdf,NA,2
56b99,block,flow.Loop,3_0_2_0,NA,NA,completion,107767.374,499604.80000007,499605.126,499605.126,607372.5,607374.39999998,2024-05-07T08:28:55Z,607389.2,NA,NA,NA,NA,NA,NA,NA,NA,NA,NA,NA,NA,NA,NA,NA,NA,NA,NA,NA,NA,NA,NA,NA,NA,NA,NA,sdf,NA,2
56b99,weiter,canvas.Screen,3_0_2_1,sdf,keypress(Space),response,1409.9000000239,607374.60000002,607372.5,607389.2,608799.10000002,608800.20000005,2024-05-07T08:28:56Z,608805.81,NA,NA,NA,NA,NA,NA,NA,NA,NA,NA,NA,NA,NA,NA,NA,NA,NA,NA,NA,NA,NA,NA,NA,NA,NA,NA,sdf,NA,2
56b99,check continue,flow.Sequence,3_0_2,NA,NA,completion,109193.97400002,499604.80000007,499605.126,499605.126,608799.10000002,608800.39999998,2024-05-07T08:28:56Z,608805.81,NA,NA,NA,NA,NA,NA,NA,NA,NA,NA,NA,NA,NA,NA,NA,NA,NA,NA,NA,NA,NA,NA,NA,NA,NA,NA,sdf,NA,2
56b99,Deep Question,html.Page,3_0_3_0_0_0_0,kgf,NA,form submission,7719.6899999999,608819.80000007,608805.81,608805.81,616525.5,616525.80000007,2024-05-07T08:29:04Z,616533.3,NA,NA,NA,NA,NA,NA,NA,NA,NA,NA,NA,NA,NA,NA,NA,NA,NA,NA,NA,NA,Zuwachs,nyongeza,d,NA,NA,NA,NA,NA,3
56b99,"""Richtig""-Screen",canvas.Screen,3_0_3_0_0_0_1,NA,NA,skipped,NA,616528.70000005,NA,NA,616525.5,616528.89999998,2024-05-07T08:29:04Z,616533.3,NA,NA,NA,NA,NA,NA,NA,NA,NA,NA,NA,NA,NA,NA,NA,NA,NA,NA,NA,NA,Zuwachs,nyongeza,d,NA,NA,NA,qt,NA,3
56b99,"""Falsch""-Screen",canvas.Screen,3_0_3_0_0_0_2,NA,NA,timeout,4997.5,616529.39999998,616517.354,616533.3,621513.7,621514.70000005,2024-05-07T08:29:09Z,621530.8,NA,NA,NA,NA,NA,NA,NA,NA,NA,NA,NA,NA,NA,NA,NA,NA,NA,NA,NA,NA,Zuwachs,nyongeza,d,NA,NA,NA,qt,0,3
56b99,deep,flow.Sequence,3_0_3_0_0_0,NA,NA,completion,12707.89,608819.80000007,608805.81,608805.81,621513.7,621515,2024-05-07T08:29:09Z,621530.8,NA,NA,NA,NA,NA,NA,NA,NA,NA,NA,NA,NA,NA,NA,NA,NA,NA,NA,NA,NA,Zuwachs,nyongeza,d,NA,NA,NA,qt,NA,3
56b99,shallow,flow.Sequence,3_0_3_0_0_1,NA,NA,skipped,NA,621515.10000002,NA,NA,621513.7,621515.20000005,2024-05-07T08:29:09Z,621530.8,NA,NA,NA,NA,NA,NA,NA,NA,NA,NA,NA,NA,NA,NA,NA,NA,NA,NA,NA,NA,Zuwachs,nyongeza,d,NA,NA,NA,qt,NA,3
56b99,task,flow.Sequence,3_0_3_0_0,NA,NA,completion,12707.89,608819.80000007,608805.81,608805.81,621513.7,621515.5,2024-05-07T08:29:09Z,621530.8,NA,NA,NA,NA,NA,NA,NA,NA,NA,NA,NA,NA,NA,NA,NA,NA,NA,NA,NA,NA,Zuwachs,nyongeza,d,NA,NA,NA,qt,NA,3
56b99,Deep Question,html.Page,3_0_3_0_1_0_0,nyongeza,NA,form submission,14810.599999976,621515.70000005,621513.7,621530.8,636341.39999998,636341.60000002,2024-05-07T08:29:24Z,636354.9,NA,NA,NA,NA,NA,NA,NA,NA,NA,NA,NA,NA,NA,NA,NA,NA,NA,NA,NA,NA,Übersicht,kilindo,d,NA,NA,NA,NA,NA,3
56b99,"""Richtig""-Screen",canvas.Screen,3_0_3_0_1_0_1,NA,NA,skipped,NA,636344.70000005,NA,NA,636341.39999998,636344.80000007,2024-05-07T08:29:24Z,636354.9,NA,NA,NA,NA,NA,NA,NA,NA,NA,NA,NA,NA,NA,NA,NA,NA,NA,NA,NA,NA,Übersicht,kilindo,d,NA,NA,NA,qt,NA,3
56b99,"""Falsch""-Screen",canvas.Screen,3_0_3_0_1_0_2,NA,NA,timeout,4997.1,636345.60000002,636338.428,636354.9,641335,641335.89999998,2024-05-07T08:29:29Z,641352,NA,NA,NA,NA,NA,NA,NA,NA,NA,NA,NA,NA,NA,NA,NA,NA,NA,NA,NA,NA,Übersicht,kilindo,d,NA,NA,NA,qt,0,3
56b99,deep,flow.Sequence,3_0_3_0_1_0,NA,NA,completion,19804.2,621515.70000005,621513.7,621530.8,641335,641336.39999998,2024-05-07T08:29:29Z,641352,NA,NA,NA,NA,NA,NA,NA,NA,NA,NA,NA,NA,NA,NA,NA,NA,NA,NA,NA,NA,Übersicht,kilindo,d,NA,NA,NA,qt,NA,3
56b99,shallow,flow.Sequence,3_0_3_0_1_1,NA,NA,skipped,NA,641336.5,NA,NA,641335,641336.60000002,2024-05-07T08:29:29Z,641352,NA,NA,NA,NA,NA,NA,NA,NA,NA,NA,NA,NA,NA,NA,NA,NA,NA,NA,NA,NA,Übersicht,kilindo,d,NA,NA,NA,qt,NA,3
56b99,task,flow.Sequence,3_0_3_0_1,NA,NA,completion,19804.2,621515.70000005,621513.7,621530.8,641335,641336.80000007,2024-05-07T08:29:29Z,641352,NA,NA,NA,NA,NA,NA,NA,NA,NA,NA,NA,NA,NA,NA,NA,NA,NA,NA,NA,NA,Übersicht,kilindo,d,NA,NA,NA,qt,NA,3
56b99,deep,flow.Sequence,3_0_3_0_2_0,NA,NA,skipped,NA,641337,NA,NA,641335,641337.10000002,2024-05-07T08:29:29Z,641352,NA,NA,NA,NA,NA,NA,NA,NA,NA,NA,NA,NA,NA,NA,NA,NA,NA,NA,NA,NA,Vorsorge,tahadhari,s,ufafanuzi,makini,mashambani,qt,NA,3
56b99,Shallow Question,html.Page,3_0_3_0_2_1_0,tahadhari,NA,form submission,4972,641337.20000005,641335,641352,646324,646324.10000002,2024-05-07T08:29:34Z,646331.9,NA,NA,NA,NA,NA,NA,NA,NA,NA,NA,NA,NA,NA,NA,NA,NA,NA,NA,NA,NA,Vorsorge,tahadhari,s,ufafanuzi,makini,mashambani,NA,NA,3
56b99,"""Richtig""-Screen",canvas.Screen,3_0_3_0_2_1_1,NA,NA,timeout,4997.2999999999,646325.60000002,646315.486,646331.9,651312.6,651313.70000005,2024-05-07T08:29:39Z,651329.2,NA,NA,NA,NA,NA,NA,NA,NA,NA,NA,NA,NA,NA,NA,NA,NA,NA,NA,NA,NA,Vorsorge,tahadhari,s,ufafanuzi,makini,mashambani,qt,1,3
56b99,"""Falsch""-Screen",canvas.Screen,3_0_3_0_2_1_2,NA,NA,skipped,NA,651318.39999998,NA,NA,651312.6,651318.39999998,2024-05-07T08:29:39Z,651329.2,NA,NA,NA,NA,NA,NA,NA,NA,NA,NA,NA,NA,NA,NA,NA,NA,NA,NA,NA,NA,Vorsorge,tahadhari,s,ufafanuzi,makini,mashambani,qt,NA,3
56b99,shallow,flow.Sequence,3_0_3_0_2_1,NA,NA,completion,9960.6,641337.20000005,641335,641352,651312.6,651318.60000002,2024-05-07T08:29:39Z,651329.2,NA,NA,NA,NA,NA,NA,NA,NA,NA,NA,NA,NA,NA,NA,NA,NA,NA,NA,NA,NA,Vorsorge,tahadhari,s,ufafanuzi,makini,mashambani,qt,NA,3
56b99,task,flow.Sequence,3_0_3_0_2,NA,NA,completion,9960.6,641337,641335,641352,651312.6,651318.60000002,2024-05-07T08:29:39Z,651329.2,NA,NA,NA,NA,NA,NA,NA,NA,NA,NA,NA,NA,NA,NA,NA,NA,NA,NA,NA,NA,Vorsorge,tahadhari,s,ufafanuzi,makini,mashambani,qt,NA,3
56b99,Deep Question,html.Page,3_0_3_0_3_0_0,jkl,NA,form submission,4591.9000000239,651318.70000005,651312.6,651329.2,655921.10000002,655921.30000007,2024-05-07T08:29:43Z,655926,NA,NA,NA,NA,NA,NA,NA,NA,NA,NA,NA,NA,NA,NA,NA,NA,NA,NA,NA,NA,Körper,kiwiliwili,d,NA,NA,NA,NA,NA,3
56b99,"""Richtig""-Screen",canvas.Screen,3_0_3_0_3_0_1,NA,NA,skipped,NA,655922.80000007,NA,NA,655921.10000002,655922.89999998,2024-05-07T08:29:43Z,655926,NA,NA,NA,NA,NA,NA,NA,NA,NA,NA,NA,NA,NA,NA,NA,NA,NA,NA,NA,NA,Körper,kiwiliwili,d,NA,NA,NA,qt,NA,3
56b99,"""Falsch""-Screen",canvas.Screen,3_0_3_0_3_0_2,NA,NA,timeout,4997.5,655923.20000005,655909.8,655926,660906.6,660907.5,2024-05-07T08:29:48Z,660923.5,NA,NA,NA,NA,NA,NA,NA,NA,NA,NA,NA,NA,NA,NA,NA,NA,NA,NA,NA,NA,Körper,kiwiliwili,d,NA,NA,NA,qt,0,3
56b99,deep,flow.Sequence,3_0_3_0_3_0,NA,NA,completion,9577.4,651318.70000005,651312.6,651329.2,660906.6,660907.89999998,2024-05-07T08:29:48Z,660923.5,NA,NA,NA,NA,NA,NA,NA,NA,NA,NA,NA,NA,NA,NA,NA,NA,NA,NA,NA,NA,Körper,kiwiliwili,d,NA,NA,NA,qt,NA,3
56b99,shallow,flow.Sequence,3_0_3_0_3_1,NA,NA,skipped,NA,660908,NA,NA,660906.6,660908.10000002,2024-05-07T08:29:48Z,660923.5,NA,NA,NA,NA,NA,NA,NA,NA,NA,NA,NA,NA,NA,NA,NA,NA,NA,NA,NA,NA,Körper,kiwiliwili,d,NA,NA,NA,qt,NA,3
56b99,task,flow.Sequence,3_0_3_0_3,NA,NA,completion,9577.4,651318.70000005,651312.6,651329.2,660906.6,660908.30000007,2024-05-07T08:29:48Z,660923.5,NA,NA,NA,NA,NA,NA,NA,NA,NA,NA,NA,NA,NA,NA,NA,NA,NA,NA,NA,NA,Körper,kiwiliwili,d,NA,NA,NA,qt,NA,3
56b99,deep,flow.Sequence,3_0_3_0_4_0,NA,NA,skipped,NA,660908.39999998,NA,NA,660906.6,660908.5,2024-05-07T08:29:48Z,660923.5,NA,NA,NA,NA,NA,NA,NA,NA,NA,NA,NA,NA,NA,NA,NA,NA,NA,NA,NA,NA,Konkurrent,mshindani,s,msemaji,mvutaji,kipukusa,qt,NA,3
56b99,Shallow Question,html.Page,3_0_3_0_4_1_0,mshindani,NA,form submission,5349.3999999762,660908.70000005,660906.6,660923.5,666272.89999998,666273.10000002,2024-05-07T08:29:53Z,666286.4,NA,NA,NA,NA,NA,NA,NA,NA,NA,NA,NA,NA,NA,NA,NA,NA,NA,NA,NA,NA,Konkurrent,mshindani,s,msemaji,mvutaji,kipukusa,NA,NA,3
56b99,"""Richtig""-Screen",canvas.Screen,3_0_3_0_4_1_1,NA,NA,timeout,4997.4,666276,666270.55,666286.4,671266.9,671267.60000002,2024-05-07T08:29:58Z,671283.8,NA,NA,NA,NA,NA,NA,NA,NA,NA,NA,NA,NA,NA,NA,NA,NA,NA,NA,NA,NA,Konkurrent,mshindani,s,msemaji,mvutaji,kipukusa,qt,1,3
56b99,"""Falsch""-Screen",canvas.Screen,3_0_3_0_4_1_2,NA,NA,skipped,NA,671270.80000007,NA,NA,671266.9,671270.89999998,2024-05-07T08:29:58Z,671283.8,NA,NA,NA,NA,NA,NA,NA,NA,NA,NA,NA,NA,NA,NA,NA,NA,NA,NA,NA,NA,Konkurrent,mshindani,s,msemaji,mvutaji,kipukusa,qt,NA,3
56b99,shallow,flow.Sequence,3_0_3_0_4_1,NA,NA,completion,10343.4,660908.60000002,660906.6,660923.5,671266.9,671271.20000005,2024-05-07T08:29:58Z,671283.8,NA,NA,NA,NA,NA,NA,NA,NA,NA,NA,NA,NA,NA,NA,NA,NA,NA,NA,NA,NA,Konkurrent,mshindani,s,msemaji,mvutaji,kipukusa,qt,NA,3
56b99,task,flow.Sequence,3_0_3_0_4,NA,NA,completion,10343.4,660908.30000007,660906.6,660923.5,671266.9,671271.30000007,2024-05-07T08:29:58Z,671283.8,NA,NA,NA,NA,NA,NA,NA,NA,NA,NA,NA,NA,NA,NA,NA,NA,NA,NA,NA,NA,Konkurrent,mshindani,s,msemaji,mvutaji,kipukusa,qt,NA,3
56b99,deep,flow.Sequence,3_0_3_0_5_0,NA,NA,skipped,NA,671271.30000007,NA,NA,671266.9,671271.5,2024-05-07T08:29:58Z,671283.8,NA,NA,NA,NA,NA,NA,NA,NA,NA,NA,NA,NA,NA,NA,NA,NA,NA,NA,NA,NA,System,maongozi,s,chokochoko,nuksani,mitaani,qt,NA,3
56b99,Shallow Question,html.Page,3_0_3_0_5_1_0,maongozi,NA,form submission,7631.4000000476,671271.5,671266.9,671283.8,678915.20000005,678915.39999998,2024-05-07T08:30:06Z,678928.7,NA,NA,NA,NA,NA,NA,NA,NA,NA,NA,NA,NA,NA,NA,NA,NA,NA,NA,NA,NA,System,maongozi,s,chokochoko,nuksani,mitaani,NA,NA,3
56b99,"""Richtig""-Screen",canvas.Screen,3_0_3_0_5_1_1,NA,NA,timeout,4997.4,678918.39999998,678912.428,678928.7,683909.1,683910.70000005,2024-05-07T08:30:11Z,683926.1,NA,NA,NA,NA,NA,NA,NA,NA,NA,NA,NA,NA,NA,NA,NA,NA,NA,NA,NA,NA,System,maongozi,s,chokochoko,nuksani,mitaani,qt,1,3
56b99,"""Falsch""-Screen",canvas.Screen,3_0_3_0_5_1_2,NA,NA,skipped,NA,683912.89999998,NA,NA,683909.1,683913,2024-05-07T08:30:11Z,683926.1,NA,NA,NA,NA,NA,NA,NA,NA,NA,NA,NA,NA,NA,NA,NA,NA,NA,NA,NA,NA,System,maongozi,s,chokochoko,nuksani,mitaani,qt,NA,3
56b99,shallow,flow.Sequence,3_0_3_0_5_1,NA,NA,completion,12625.3,671271.5,671266.9,671283.8,683909.1,683913.10000002,2024-05-07T08:30:11Z,683926.1,NA,NA,NA,NA,NA,NA,NA,NA,NA,NA,NA,NA,NA,NA,NA,NA,NA,NA,NA,NA,System,maongozi,s,chokochoko,nuksani,mitaani,qt,NA,3
56b99,task,flow.Sequence,3_0_3_0_5,NA,NA,completion,12625.3,671271.30000007,671266.9,671283.8,683909.1,683913.20000005,2024-05-07T08:30:11Z,683926.1,NA,NA,NA,NA,NA,NA,NA,NA,NA,NA,NA,NA,NA,NA,NA,NA,NA,NA,NA,NA,System,maongozi,s,chokochoko,nuksani,mitaani,qt,NA,3
56b99,deep,flow.Sequence,3_0_3_0_6_0,NA,NA,skipped,NA,683913.20000005,NA,NA,683909.1,683913.30000007,2024-05-07T08:30:11Z,683926.1,NA,NA,NA,NA,NA,NA,NA,NA,NA,NA,NA,NA,NA,NA,NA,NA,NA,NA,NA,NA,Lawine,banguko,s,maambukizi,usuluhishi,chekechea,qt,NA,3
56b99,Shallow Question,html.Page,3_0_3_0_6_1_0,banguko,NA,form submission,6231.2000000715,683913.30000007,683909.1,683926.1,690157.30000007,690157.5,2024-05-07T08:30:17Z,690171.8,NA,NA,NA,NA,NA,NA,NA,NA,NA,NA,NA,NA,NA,NA,NA,NA,NA,NA,NA,NA,Lawine,banguko,s,maambukizi,usuluhishi,chekechea,NA,NA,3
56b99,"""Richtig""-Screen",canvas.Screen,3_0_3_0_6_1_1,NA,NA,timeout,4997,690160.30000007,690155.726,690171.8,695152.1,695153.10000002,2024-05-07T08:30:22Z,695168.8,NA,NA,NA,NA,NA,NA,NA,NA,NA,NA,NA,NA,NA,NA,NA,NA,NA,NA,NA,NA,Lawine,banguko,s,maambukizi,usuluhishi,chekechea,qt,1,3
56b99,"""Falsch""-Screen",canvas.Screen,3_0_3_0_6_1_2,NA,NA,skipped,NA,695158.20000005,NA,NA,695152.1,695158.39999998,2024-05-07T08:30:22Z,695168.8,NA,NA,NA,NA,NA,NA,NA,NA,NA,NA,NA,NA,NA,NA,NA,NA,NA,NA,NA,NA,Lawine,banguko,s,maambukizi,usuluhishi,chekechea,qt,NA,3
56b99,shallow,flow.Sequence,3_0_3_0_6_1,NA,NA,completion,11226,683913.30000007,683909.1,683926.1,695152.1,695158.39999998,2024-05-07T08:30:22Z,695168.8,NA,NA,NA,NA,NA,NA,NA,NA,NA,NA,NA,NA,NA,NA,NA,NA,NA,NA,NA,NA,Lawine,banguko,s,maambukizi,usuluhishi,chekechea,qt,NA,3
56b99,task,flow.Sequence,3_0_3_0_6,NA,NA,completion,11226,683913.20000005,683909.1,683926.1,695152.1,695158.5,2024-05-07T08:30:22Z,695168.8,NA,NA,NA,NA,NA,NA,NA,NA,NA,NA,NA,NA,NA,NA,NA,NA,NA,NA,NA,NA,Lawine,banguko,s,maambukizi,usuluhishi,chekechea,qt,NA,3
56b99,Deep Question,html.Page,3_0_3_0_7_0_0,kiliwili,NA,form submission,13760.599999976,695158.60000002,695152.1,695168.8,708929.39999998,708929.60000002,2024-05-07T08:30:36Z,708960.8,NA,NA,NA,NA,NA,NA,NA,NA,NA,NA,NA,NA,NA,NA,NA,NA,NA,NA,NA,NA,Symbol,kielezo,d,NA,NA,NA,NA,NA,3
56b99,"""Richtig""-Screen",canvas.Screen,3_0_3_0_7_0_1,NA,NA,skipped,NA,708932.5,NA,NA,708929.39999998,708932.60000002,2024-05-07T08:30:36Z,708960.8,NA,NA,NA,NA,NA,NA,NA,NA,NA,NA,NA,NA,NA,NA,NA,NA,NA,NA,NA,NA,Symbol,kielezo,d,NA,NA,NA,qt,NA,3
56b99,"""Falsch""-Screen",canvas.Screen,3_0_3_0_7_0_2,NA,NA,timeout,4996.7999999999,708933.39999998,708943.866,708960.8,713940.8,713941.60000002,2024-05-07T08:30:41Z,713957.6,NA,NA,NA,NA,NA,NA,NA,NA,NA,NA,NA,NA,NA,NA,NA,NA,NA,NA,NA,NA,Symbol,kielezo,d,NA,NA,NA,qt,0,3
56b99,deep,flow.Sequence,3_0_3_0_7_0,NA,NA,completion,18772,695158.60000002,695152.1,695168.8,713940.8,713942,2024-05-07T08:30:41Z,713957.6,NA,NA,NA,NA,NA,NA,NA,NA,NA,NA,NA,NA,NA,NA,NA,NA,NA,NA,NA,NA,Symbol,kielezo,d,NA,NA,NA,qt,NA,3
56b99,shallow,flow.Sequence,3_0_3_0_7_1,NA,NA,skipped,NA,713942.10000002,NA,NA,713940.8,713942.39999998,2024-05-07T08:30:41Z,713957.6,NA,NA,NA,NA,NA,NA,NA,NA,NA,NA,NA,NA,NA,NA,NA,NA,NA,NA,NA,NA,Symbol,kielezo,d,NA,NA,NA,qt,NA,3
56b99,task,flow.Sequence,3_0_3_0_7,NA,NA,completion,18772,695158.60000002,695152.1,695168.8,713940.8,713942.60000002,2024-05-07T08:30:41Z,713957.6,NA,NA,NA,NA,NA,NA,NA,NA,NA,NA,NA,NA,NA,NA,NA,NA,NA,NA,NA,NA,Symbol,kielezo,d,NA,NA,NA,qt,NA,3
56b99,block,flow.Loop,3_0_3_0,NA,NA,completion,105134.99,608819.80000007,608805.81,608805.81,713940.8,713942.80000007,2024-05-07T08:30:41Z,713957.6,NA,NA,NA,NA,NA,NA,NA,NA,NA,NA,NA,NA,NA,NA,NA,NA,NA,NA,NA,NA,NA,NA,NA,NA,NA,NA,qt,NA,3
56b99,weiter,canvas.Screen,3_0_3_1,sdf,keypress(Space),response,1242.7999999762,713942.89999998,713940.8,713957.6,715200.39999998,715201.20000005,2024-05-07T08:30:42Z,715207.378,NA,NA,NA,NA,NA,NA,NA,NA,NA,NA,NA,NA,NA,NA,NA,NA,NA,NA,NA,NA,NA,NA,NA,NA,NA,NA,qt,NA,3
56b99,check continue,flow.Sequence,3_0_3,NA,NA,completion,106394.58999998,608819.80000007,608805.81,608805.81,715200.39999998,715201.5,2024-05-07T08:30:42Z,715207.378,NA,NA,NA,NA,NA,NA,NA,NA,NA,NA,NA,NA,NA,NA,NA,NA,NA,NA,NA,NA,NA,NA,NA,NA,NA,NA,qt,NA,3
56b99,deep,flow.Sequence,3_0_4_0_0_0,NA,NA,skipped,NA,715219.89999998,NA,NA,715200.39999998,715219.89999998,2024-05-07T08:30:42Z,715207.378,NA,NA,NA,NA,NA,NA,NA,NA,NA,NA,NA,NA,NA,NA,NA,NA,NA,NA,NA,NA,System,maongozi,s,chokochoko,nuksani,mitaani,sd,NA,4
56b99,Shallow Question,html.Page,3_0_4_0_0_1_0,maongozi,NA,form submission,5725.122,715220,715207.378,715207.378,720932.5,720932.80000007,2024-05-07T08:30:48Z,720936.922,NA,NA,NA,NA,NA,NA,NA,NA,NA,NA,NA,NA,NA,NA,NA,NA,NA,NA,NA,NA,System,maongozi,s,chokochoko,nuksani,mitaani,NA,NA,4
56b99,"""Richtig""-Screen",canvas.Screen,3_0_4_0_0_1_1,NA,NA,timeout,4996.978,720935.5,720936.922,720936.922,725917.2,725918,2024-05-07T08:30:53Z,725933.9,NA,NA,NA,NA,NA,NA,NA,NA,NA,NA,NA,NA,NA,NA,NA,NA,NA,NA,NA,NA,System,maongozi,s,chokochoko,nuksani,mitaani,sd,1,4
56b99,"""Falsch""-Screen",canvas.Screen,3_0_4_0_0_1_2,NA,NA,skipped,NA,725922.89999998,NA,NA,725917.2,725923,2024-05-07T08:30:53Z,725933.9,NA,NA,NA,NA,NA,NA,NA,NA,NA,NA,NA,NA,NA,NA,NA,NA,NA,NA,NA,NA,System,maongozi,s,chokochoko,nuksani,mitaani,sd,NA,4
56b99,shallow,flow.Sequence,3_0_4_0_0_1,NA,NA,completion,10709.822,715220,715207.378,715207.378,725917.2,725923.30000007,2024-05-07T08:30:53Z,725933.9,NA,NA,NA,NA,NA,NA,NA,NA,NA,NA,NA,NA,NA,NA,NA,NA,NA,NA,NA,NA,System,maongozi,s,chokochoko,nuksani,mitaani,sd,NA,4
56b99,task,flow.Sequence,3_0_4_0_0,NA,NA,completion,10709.822,715219.89999998,715207.378,715207.378,725917.2,725923.5,2024-05-07T08:30:53Z,725933.9,NA,NA,NA,NA,NA,NA,NA,NA,NA,NA,NA,NA,NA,NA,NA,NA,NA,NA,NA,NA,System,maongozi,s,chokochoko,nuksani,mitaani,sd,NA,4
56b99,deep,flow.Sequence,3_0_4_0_1_0,NA,NA,skipped,NA,725923.5,NA,NA,725917.2,725923.5,2024-05-07T08:30:53Z,725933.9,NA,NA,NA,NA,NA,NA,NA,NA,NA,NA,NA,NA,NA,NA,NA,NA,NA,NA,NA,NA,Vorsorge,tahadhari,s,ufafanuzi,makini,mashambani,sd,NA,4
56b99,Shallow Question,html.Page,3_0_4_0_1_1_0,tahadhari,NA,form submission,6213.2000000238,725923.60000002,725917.2,725933.9,732147.10000002,732147.30000007,2024-05-07T08:30:59Z,732179.8,NA,NA,NA,NA,NA,NA,NA,NA,NA,NA,NA,NA,NA,NA,NA,NA,NA,NA,NA,NA,Vorsorge,tahadhari,s,ufafanuzi,makini,mashambani,NA,NA,4
56b99,"""Richtig""-Screen",canvas.Screen,3_0_4_0_1_1_1,NA,NA,timeout,4997.2999999999,732150.10000002,732163.4,732179.8,737160.1,737160.89999998,2024-05-07T08:31:04Z,737177.1,NA,NA,NA,NA,NA,NA,NA,NA,NA,NA,NA,NA,NA,NA,NA,NA,NA,NA,NA,NA,Vorsorge,tahadhari,s,ufafanuzi,makini,mashambani,sd,1,4
56b99,"""Falsch""-Screen",canvas.Screen,3_0_4_0_1_1_2,NA,NA,skipped,NA,737165.60000002,NA,NA,737160.1,737165.70000005,2024-05-07T08:31:04Z,737177.1,NA,NA,NA,NA,NA,NA,NA,NA,NA,NA,NA,NA,NA,NA,NA,NA,NA,NA,NA,NA,Vorsorge,tahadhari,s,ufafanuzi,makini,mashambani,sd,NA,4
56b99,shallow,flow.Sequence,3_0_4_0_1_1,NA,NA,completion,11226.2,725923.5,725917.2,725933.9,737160.1,737165.89999998,2024-05-07T08:31:04Z,737177.1,NA,NA,NA,NA,NA,NA,NA,NA,NA,NA,NA,NA,NA,NA,NA,NA,NA,NA,NA,NA,Vorsorge,tahadhari,s,ufafanuzi,makini,mashambani,sd,NA,4
56b99,task,flow.Sequence,3_0_4_0_1,NA,NA,completion,11226.2,725923.5,725917.2,725933.9,737160.1,737165.89999998,2024-05-07T08:31:04Z,737177.1,NA,NA,NA,NA,NA,NA,NA,NA,NA,NA,NA,NA,NA,NA,NA,NA,NA,NA,NA,NA,Vorsorge,tahadhari,s,ufafanuzi,makini,mashambani,sd,NA,4
56b99,deep,flow.Sequence,3_0_4_0_2_0,NA,NA,skipped,NA,737166,NA,NA,737160.1,737166,2024-05-07T08:31:04Z,737177.1,NA,NA,NA,NA,NA,NA,NA,NA,NA,NA,NA,NA,NA,NA,NA,NA,NA,NA,NA,NA,Konkurrent,mshindani,s,msemaji,mvutaji,kipukusa,sd,NA,4
56b99,Shallow Question,html.Page,3_0_4_0_2_1_0,mshindani,NA,form submission,9408.0000000239,737166,737160.1,737177.1,746585.10000002,746585.30000007,2024-05-07T08:31:14Z,746587.732,NA,NA,NA,NA,NA,NA,NA,NA,NA,NA,NA,NA,NA,NA,NA,NA,NA,NA,NA,NA,Konkurrent,mshindani,s,msemaji,mvutaji,kipukusa,NA,NA,4
56b99,"""Richtig""-Screen",canvas.Screen,3_0_4_0_2_1_1,NA,NA,timeout,4997.1680000001,746588.20000005,746587.732,746587.732,751568.1,751568.89999998,2024-05-07T08:31:19Z,751584.9,NA,NA,NA,NA,NA,NA,NA,NA,NA,NA,NA,NA,NA,NA,NA,NA,NA,NA,NA,NA,Konkurrent,mshindani,s,msemaji,mvutaji,kipukusa,sd,1,4
56b99,"""Falsch""-Screen",canvas.Screen,3_0_4_0_2_1_2,NA,NA,skipped,NA,751573.39999998,NA,NA,751568.1,751573.60000002,2024-05-07T08:31:19Z,751584.9,NA,NA,NA,NA,NA,NA,NA,NA,NA,NA,NA,NA,NA,NA,NA,NA,NA,NA,NA,NA,Konkurrent,mshindani,s,msemaji,mvutaji,kipukusa,sd,NA,4
56b99,shallow,flow.Sequence,3_0_4_0_2_1,NA,NA,completion,14391,737166,737160.1,737177.1,751568.1,751573.60000002,2024-05-07T08:31:19Z,751584.9,NA,NA,NA,NA,NA,NA,NA,NA,NA,NA,NA,NA,NA,NA,NA,NA,NA,NA,NA,NA,Konkurrent,mshindani,s,msemaji,mvutaji,kipukusa,sd,NA,4
56b99,task,flow.Sequence,3_0_4_0_2,NA,NA,completion,14391,737165.89999998,737160.1,737177.1,751568.1,751573.70000005,2024-05-07T08:31:19Z,751584.9,NA,NA,NA,NA,NA,NA,NA,NA,NA,NA,NA,NA,NA,NA,NA,NA,NA,NA,NA,NA,Konkurrent,mshindani,s,msemaji,mvutaji,kipukusa,sd,NA,4
56b99,Deep Question,html.Page,3_0_4_0_3_0_0,kyonze,NA,form submission,15838.800000048,751573.70000005,751568.1,751584.9,767423.70000005,767423.89999998,2024-05-07T08:31:35Z,767425.318,NA,NA,NA,NA,NA,NA,NA,NA,NA,NA,NA,NA,NA,NA,NA,NA,NA,NA,NA,NA,Körper,kiwiliwili,d,NA,NA,NA,NA,NA,4
56b99,"""Richtig""-Screen",canvas.Screen,3_0_4_0_3_0_1,NA,NA,skipped,NA,767426.80000007,NA,NA,767423.70000005,767427,2024-05-07T08:31:35Z,767425.318,NA,NA,NA,NA,NA,NA,NA,NA,NA,NA,NA,NA,NA,NA,NA,NA,NA,NA,NA,NA,Körper,kiwiliwili,d,NA,NA,NA,sd,NA,4
56b99,"""Falsch""-Screen",canvas.Screen,3_0_4_0_3_0_2,NA,NA,timeout,4996.4820000001,767427.80000007,767425.318,767425.318,772405.1,772406.70000005,2024-05-07T08:31:40Z,772421.8,NA,NA,NA,NA,NA,NA,NA,NA,NA,NA,NA,NA,NA,NA,NA,NA,NA,NA,NA,NA,Körper,kiwiliwili,d,NA,NA,NA,sd,0,4
56b99,deep,flow.Sequence,3_0_4_0_3_0,NA,NA,completion,20820.2,751573.70000005,751568.1,751584.9,772405.1,772406.80000007,2024-05-07T08:31:40Z,772421.8,NA,NA,NA,NA,NA,NA,NA,NA,NA,NA,NA,NA,NA,NA,NA,NA,NA,NA,NA,NA,Körper,kiwiliwili,d,NA,NA,NA,sd,NA,4
56b99,shallow,flow.Sequence,3_0_4_0_3_1,NA,NA,skipped,NA,772406.80000007,NA,NA,772405.1,772406.80000007,2024-05-07T08:31:40Z,772421.8,NA,NA,NA,NA,NA,NA,NA,NA,NA,NA,NA,NA,NA,NA,NA,NA,NA,NA,NA,NA,Körper,kiwiliwili,d,NA,NA,NA,sd,NA,4
56b99,task,flow.Sequence,3_0_4_0_3,NA,NA,completion,20820.2,751573.70000005,751568.1,751584.9,772405.1,772406.89999998,2024-05-07T08:31:40Z,772421.8,NA,NA,NA,NA,NA,NA,NA,NA,NA,NA,NA,NA,NA,NA,NA,NA,NA,NA,NA,NA,Körper,kiwiliwili,d,NA,NA,NA,sd,NA,4
56b99,Deep Question,html.Page,3_0_4_0_4_0_0,kyonze,NA,form submission,8762.0000000715,772407.10000002,772405.1,772421.8,781183.80000007,781184.10000002,2024-05-07T08:31:48Z,781200,NA,NA,NA,NA,NA,NA,NA,NA,NA,NA,NA,NA,NA,NA,NA,NA,NA,NA,NA,NA,Zuwachs,nyongeza,d,NA,NA,NA,NA,NA,4
56b99,"""Richtig""-Screen",canvas.Screen,3_0_4_0_4_0_1,NA,NA,skipped,NA,781187,NA,NA,781183.80000007,781187.20000005,2024-05-07T08:31:48Z,781200,NA,NA,NA,NA,NA,NA,NA,NA,NA,NA,NA,NA,NA,NA,NA,NA,NA,NA,NA,NA,Zuwachs,nyongeza,d,NA,NA,NA,sd,NA,4
56b99,"""Falsch""-Screen",canvas.Screen,3_0_4_0_4_0_2,NA,NA,timeout,4997.1,781188,781183.682,781200,786180.2,786181.10000002,2024-05-07T08:31:53Z,786197.1,NA,NA,NA,NA,NA,NA,NA,NA,NA,NA,NA,NA,NA,NA,NA,NA,NA,NA,NA,NA,Zuwachs,nyongeza,d,NA,NA,NA,sd,0,4
56b99,deep,flow.Sequence,3_0_4_0_4_0,NA,NA,completion,13758.4,772407,772405.1,772421.8,786180.2,786181.60000002,2024-05-07T08:31:53Z,786197.1,NA,NA,NA,NA,NA,NA,NA,NA,NA,NA,NA,NA,NA,NA,NA,NA,NA,NA,NA,NA,Zuwachs,nyongeza,d,NA,NA,NA,sd,NA,4
56b99,shallow,flow.Sequence,3_0_4_0_4_1,NA,NA,skipped,NA,786181.80000007,NA,NA,786180.2,786181.89999998,2024-05-07T08:31:53Z,786197.1,NA,NA,NA,NA,NA,NA,NA,NA,NA,NA,NA,NA,NA,NA,NA,NA,NA,NA,NA,NA,Zuwachs,nyongeza,d,NA,NA,NA,sd,NA,4
56b99,task,flow.Sequence,3_0_4_0_4,NA,NA,completion,13758.4,772407,772405.1,772421.8,786180.2,786182.10000002,2024-05-07T08:31:53Z,786197.1,NA,NA,NA,NA,NA,NA,NA,NA,NA,NA,NA,NA,NA,NA,NA,NA,NA,NA,NA,NA,Zuwachs,nyongeza,d,NA,NA,NA,sd,NA,4
56b99,deep,flow.Sequence,3_0_4_0_5_0,NA,NA,skipped,NA,786182.20000005,NA,NA,786180.2,786182.39999998,2024-05-07T08:31:53Z,786197.1,NA,NA,NA,NA,NA,NA,NA,NA,NA,NA,NA,NA,NA,NA,NA,NA,NA,NA,NA,NA,Lawine,banguko,s,maambukizi,usuluhishi,chekechea,sd,NA,4
56b99,Shallow Question,html.Page,3_0_4_0_5_1_0,banguko,NA,form submission,6177.4,786182.5,786180.2,786197.1,792374.5,792374.60000002,2024-05-07T08:32:00Z,792393.3,NA,NA,NA,NA,NA,NA,NA,NA,NA,NA,NA,NA,NA,NA,NA,NA,NA,NA,NA,NA,Lawine,banguko,s,maambukizi,usuluhishi,chekechea,NA,NA,4
56b99,"""Richtig""-Screen",canvas.Screen,3_0_4_0_5_1_1,NA,NA,timeout,4996.3999999999,792376.10000002,792376.1,792393.3,797373.3,797374.30000007,2024-05-07T08:32:05Z,797389.7,NA,NA,NA,NA,NA,NA,NA,NA,NA,NA,NA,NA,NA,NA,NA,NA,NA,NA,NA,NA,Lawine,banguko,s,maambukizi,usuluhishi,chekechea,sd,1,4
56b99,"""Falsch""-Screen",canvas.Screen,3_0_4_0_5_1_2,NA,NA,skipped,NA,797379.80000007,NA,NA,797373.3,797379.80000007,2024-05-07T08:32:05Z,797389.7,NA,NA,NA,NA,NA,NA,NA,NA,NA,NA,NA,NA,NA,NA,NA,NA,NA,NA,NA,NA,Lawine,banguko,s,maambukizi,usuluhishi,chekechea,sd,NA,4
56b99,shallow,flow.Sequence,3_0_4_0_5_1,NA,NA,completion,11176.2,786182.39999998,786180.2,786197.1,797373.3,797380,2024-05-07T08:32:05Z,797389.7,NA,NA,NA,NA,NA,NA,NA,NA,NA,NA,NA,NA,NA,NA,NA,NA,NA,NA,NA,NA,Lawine,banguko,s,maambukizi,usuluhishi,chekechea,sd,NA,4
56b99,task,flow.Sequence,3_0_4_0_5,NA,NA,completion,11176.2,786182.20000005,786180.2,786197.1,797373.3,797380,2024-05-07T08:32:05Z,797389.7,NA,NA,NA,NA,NA,NA,NA,NA,NA,NA,NA,NA,NA,NA,NA,NA,NA,NA,NA,NA,Lawine,banguko,s,maambukizi,usuluhishi,chekechea,sd,NA,4
56b99,Deep Question,html.Page,3_0_4_0_6_0_0,kiliwili,NA,form submission,16063.400000024,797380,797373.3,797389.7,813453.10000002,813453.30000007,2024-05-07T08:32:21Z,813463.3,NA,NA,NA,NA,NA,NA,NA,NA,NA,NA,NA,NA,NA,NA,NA,NA,NA,NA,NA,NA,Übersicht,kilindo,d,NA,NA,NA,NA,NA,4
56b99,"""Richtig""-Screen",canvas.Screen,3_0_4_0_6_0_1,NA,NA,skipped,NA,813456.20000005,NA,NA,813453.10000002,813456.30000007,2024-05-07T08:32:21Z,813463.3,NA,NA,NA,NA,NA,NA,NA,NA,NA,NA,NA,NA,NA,NA,NA,NA,NA,NA,NA,NA,Übersicht,kilindo,d,NA,NA,NA,sd,NA,4
56b99,"""Falsch""-Screen",canvas.Screen,3_0_4_0_6_0_2,NA,NA,timeout,4997,813457.10000002,813447.22,813463.3,818443.6,818444.5,2024-05-07T08:32:26Z,818460.3,NA,NA,NA,NA,NA,NA,NA,NA,NA,NA,NA,NA,NA,NA,NA,NA,NA,NA,NA,NA,Übersicht,kilindo,d,NA,NA,NA,sd,0,4
56b99,deep,flow.Sequence,3_0_4_0_6_0,NA,NA,completion,21053.9,797380,797373.3,797389.7,818443.6,818444.89999998,2024-05-07T08:32:26Z,818460.3,NA,NA,NA,NA,NA,NA,NA,NA,NA,NA,NA,NA,NA,NA,NA,NA,NA,NA,NA,NA,Übersicht,kilindo,d,NA,NA,NA,sd,NA,4
56b99,shallow,flow.Sequence,3_0_4_0_6_1,NA,NA,skipped,NA,818445,NA,NA,818443.6,818445.10000002,2024-05-07T08:32:26Z,818460.3,NA,NA,NA,NA,NA,NA,NA,NA,NA,NA,NA,NA,NA,NA,NA,NA,NA,NA,NA,NA,Übersicht,kilindo,d,NA,NA,NA,sd,NA,4
56b99,task,flow.Sequence,3_0_4_0_6,NA,NA,completion,21053.9,797380,797373.3,797389.7,818443.6,818445.39999998,2024-05-07T08:32:26Z,818460.3,NA,NA,NA,NA,NA,NA,NA,NA,NA,NA,NA,NA,NA,NA,NA,NA,NA,NA,NA,NA,Übersicht,kilindo,d,NA,NA,NA,sd,NA,4
56b99,Deep Question,html.Page,3_0_4_0_7_0_0,kyonze,NA,form submission,6965.4000000476,818445.5,818443.6,818460.3,825425.70000005,825426,2024-05-07T08:32:33Z,825439.5,NA,NA,NA,NA,NA,NA,NA,NA,NA,NA,NA,NA,NA,NA,NA,NA,NA,NA,NA,NA,Symbol,kielezo,d,NA,NA,NA,NA,NA,4
56b99,"""Richtig""-Screen",canvas.Screen,3_0_4_0_7_0_1,NA,NA,skipped,NA,825428.89999998,NA,NA,825425.70000005,825429,2024-05-07T08:32:33Z,825439.5,NA,NA,NA,NA,NA,NA,NA,NA,NA,NA,NA,NA,NA,NA,NA,NA,NA,NA,NA,NA,Symbol,kielezo,d,NA,NA,NA,sd,NA,4
56b99,"""Falsch""-Screen",canvas.Screen,3_0_4_0_7_0_2,NA,NA,timeout,4997.1,825429.70000005,825423.406,825439.5,830419.9,830421.10000002,2024-05-07T08:32:38Z,830436.6,NA,NA,NA,NA,NA,NA,NA,NA,NA,NA,NA,NA,NA,NA,NA,NA,NA,NA,NA,NA,Symbol,kielezo,d,NA,NA,NA,sd,0,4
56b99,deep,flow.Sequence,3_0_4_0_7_0,NA,NA,completion,11959.6,818445.5,818443.6,818460.3,830419.9,830421.39999998,2024-05-07T08:32:38Z,830436.6,NA,NA,NA,NA,NA,NA,NA,NA,NA,NA,NA,NA,NA,NA,NA,NA,NA,NA,NA,NA,Symbol,kielezo,d,NA,NA,NA,sd,NA,4
56b99,shallow,flow.Sequence,3_0_4_0_7_1,NA,NA,skipped,NA,830421.60000002,NA,NA,830419.9,830421.80000007,2024-05-07T08:32:38Z,830436.6,NA,NA,NA,NA,NA,NA,NA,NA,NA,NA,NA,NA,NA,NA,NA,NA,NA,NA,NA,NA,Symbol,kielezo,d,NA,NA,NA,sd,NA,4
56b99,task,flow.Sequence,3_0_4_0_7,NA,NA,completion,11959.6,818445.39999998,818443.6,818460.3,830419.9,830421.89999998,2024-05-07T08:32:38Z,830436.6,NA,NA,NA,NA,NA,NA,NA,NA,NA,NA,NA,NA,NA,NA,NA,NA,NA,NA,NA,NA,Symbol,kielezo,d,NA,NA,NA,sd,NA,4
56b99,block,flow.Loop,3_0_4_0,NA,NA,completion,115212.522,715219.89999998,715207.378,715207.378,830419.9,830422.20000005,2024-05-07T08:32:38Z,830436.6,NA,NA,NA,NA,NA,NA,NA,NA,NA,NA,NA,NA,NA,NA,NA,NA,NA,NA,NA,NA,NA,NA,NA,NA,NA,NA,sd,NA,4
56b99,weiter,canvas.Screen,3_0_4_1,sdf,keypress(Space),response,1636.6000000477,830422.20000005,830419.9,830436.6,832073.20000005,832074.30000007,2024-05-07T08:32:39Z,832085.972,NA,NA,NA,NA,NA,NA,NA,NA,NA,NA,NA,NA,NA,NA,NA,NA,NA,NA,NA,NA,NA,NA,NA,NA,NA,NA,sd,NA,4
56b99,check continue,flow.Sequence,3_0_4,NA,NA,completion,116865.82200005,715219.80000007,715207.378,715207.378,832073.20000005,832074.70000005,2024-05-07T08:32:39Z,832085.972,NA,NA,NA,NA,NA,NA,NA,NA,NA,NA,NA,NA,NA,NA,NA,NA,NA,NA,NA,NA,NA,NA,NA,NA,NA,NA,sd,NA,4
56b99,deep,flow.Sequence,3_0_5_0_0_0,NA,NA,skipped,NA,832092.89999998,NA,NA,832073.20000005,832093,2024-05-07T08:32:39Z,832085.972,NA,NA,NA,NA,NA,NA,NA,NA,NA,NA,NA,NA,NA,NA,NA,NA,NA,NA,NA,NA,Lawine,banguko,s,maambukizi,usuluhishi,chekechea,sdf,NA,5
56b99,Shallow Question,html.Page,3_0_5_0_0_1_0,banguko,NA,form submission,9584.6280000239,832093.10000002,832085.972,832085.972,841670.60000002,841670.80000007,2024-05-07T08:32:49Z,841679.5,NA,NA,NA,NA,NA,NA,NA,NA,NA,NA,NA,NA,NA,NA,NA,NA,NA,NA,NA,NA,Lawine,banguko,s,maambukizi,usuluhishi,chekechea,NA,NA,5
56b99,"""Richtig""-Screen",canvas.Screen,3_0_5_0_0_1_1,NA,NA,timeout,4997.2,841673.80000007,841663.4,841679.5,846659.9,846661,2024-05-07T08:32:54Z,846676.7,NA,NA,NA,NA,NA,NA,NA,NA,NA,NA,NA,NA,NA,NA,NA,NA,NA,NA,NA,NA,Lawine,banguko,s,maambukizi,usuluhishi,chekechea,sdf,1,5
56b99,"""Falsch""-Screen",canvas.Screen,3_0_5_0_0_1_2,NA,NA,skipped,NA,846666.20000005,NA,NA,846659.9,846666.30000007,2024-05-07T08:32:54Z,846676.7,NA,NA,NA,NA,NA,NA,NA,NA,NA,NA,NA,NA,NA,NA,NA,NA,NA,NA,NA,NA,Lawine,banguko,s,maambukizi,usuluhishi,chekechea,sdf,NA,5
56b99,shallow,flow.Sequence,3_0_5_0_0_1,NA,NA,completion,14573.928,832093,832085.972,832085.972,846659.9,846666.39999998,2024-05-07T08:32:54Z,846676.7,NA,NA,NA,NA,NA,NA,NA,NA,NA,NA,NA,NA,NA,NA,NA,NA,NA,NA,NA,NA,Lawine,banguko,s,maambukizi,usuluhishi,chekechea,sdf,NA,5
56b99,task,flow.Sequence,3_0_5_0_0,NA,NA,completion,14573.928,832092.70000005,832085.972,832085.972,846659.9,846666.5,2024-05-07T08:32:54Z,846676.7,NA,NA,NA,NA,NA,NA,NA,NA,NA,NA,NA,NA,NA,NA,NA,NA,NA,NA,NA,NA,Lawine,banguko,s,maambukizi,usuluhishi,chekechea,sdf,NA,5
56b99,Deep Question,html.Page,3_0_5_0_1_0_0,kiliwili,NA,form submission,17632.199999976,846666.5,846659.9,846676.7,864308.89999998,864309,2024-05-07T08:33:12Z,864332.6,NA,NA,NA,NA,NA,NA,NA,NA,NA,NA,NA,NA,NA,NA,NA,NA,NA,NA,NA,NA,Symbol,kielezo,d,NA,NA,NA,NA,NA,5
56b99,"""Richtig""-Screen",canvas.Screen,3_0_5_0_1_0_1,NA,NA,skipped,NA,864310.39999998,NA,NA,864308.89999998,864310.39999998,2024-05-07T08:33:12Z,864332.6,NA,NA,NA,NA,NA,NA,NA,NA,NA,NA,NA,NA,NA,NA,NA,NA,NA,NA,NA,NA,Symbol,kielezo,d,NA,NA,NA,sdf,NA,5
56b99,"""Falsch""-Screen",canvas.Screen,3_0_5_0_1_0_2,NA,NA,timeout,4996.6,864310.80000007,864316.1,864332.6,869312.8,869313.70000005,2024-05-07T08:33:17Z,869329.2,NA,NA,NA,NA,NA,NA,NA,NA,NA,NA,NA,NA,NA,NA,NA,NA,NA,NA,NA,NA,Symbol,kielezo,d,NA,NA,NA,sdf,0,5
56b99,deep,flow.Sequence,3_0_5_0_1_0,NA,NA,completion,22636.1,846666.5,846659.9,846676.7,869312.8,869314.10000002,2024-05-07T08:33:17Z,869329.2,NA,NA,NA,NA,NA,NA,NA,NA,NA,NA,NA,NA,NA,NA,NA,NA,NA,NA,NA,NA,Symbol,kielezo,d,NA,NA,NA,sdf,NA,5
56b99,shallow,flow.Sequence,3_0_5_0_1_1,NA,NA,skipped,NA,869314.20000005,NA,NA,869312.8,869314.39999998,2024-05-07T08:33:17Z,869329.2,NA,NA,NA,NA,NA,NA,NA,NA,NA,NA,NA,NA,NA,NA,NA,NA,NA,NA,NA,NA,Symbol,kielezo,d,NA,NA,NA,sdf,NA,5
56b99,task,flow.Sequence,3_0_5_0_1,NA,NA,completion,22636.1,846666.5,846659.9,846676.7,869312.8,869314.60000002,2024-05-07T08:33:17Z,869329.2,NA,NA,NA,NA,NA,NA,NA,NA,NA,NA,NA,NA,NA,NA,NA,NA,NA,NA,NA,NA,Symbol,kielezo,d,NA,NA,NA,sdf,NA,5
56b99,Deep Question,html.Page,3_0_5_0_2_0_0,fds,NA,form submission,5684.5000000477,869314.80000007,869312.8,869329.2,875013.70000005,875013.89999998,2024-05-07T08:33:22Z,875026,NA,NA,NA,NA,NA,NA,NA,NA,NA,NA,NA,NA,NA,NA,NA,NA,NA,NA,NA,NA,Körper,kiwiliwili,d,NA,NA,NA,NA,NA,5
56b99,"""Richtig""-Screen",canvas.Screen,3_0_5_0_2_0_1,NA,NA,skipped,NA,875016.80000007,NA,NA,875013.70000005,875016.89999998,2024-05-07T08:33:22Z,875026,NA,NA,NA,NA,NA,NA,NA,NA,NA,NA,NA,NA,NA,NA,NA,NA,NA,NA,NA,NA,Körper,kiwiliwili,d,NA,NA,NA,sdf,NA,5
56b99,"""Falsch""-Screen",canvas.Screen,3_0_5_0_2_0_2,NA,NA,timeout,4997.1,875017.5,875009.654,875026,880006,880007,2024-05-07T08:33:27Z,880023.1,NA,NA,NA,NA,NA,NA,NA,NA,NA,NA,NA,NA,NA,NA,NA,NA,NA,NA,NA,NA,Körper,kiwiliwili,d,NA,NA,NA,sdf,0,5
56b99,deep,flow.Sequence,3_0_5_0_2_0,NA,NA,completion,10676.8,869314.70000005,869312.8,869329.2,880006,880007.30000007,2024-05-07T08:33:27Z,880023.1,NA,NA,NA,NA,NA,NA,NA,NA,NA,NA,NA,NA,NA,NA,NA,NA,NA,NA,NA,NA,Körper,kiwiliwili,d,NA,NA,NA,sdf,NA,5
56b99,shallow,flow.Sequence,3_0_5_0_2_1,NA,NA,skipped,NA,880007.39999998,NA,NA,880006,880007.60000002,2024-05-07T08:33:27Z,880023.1,NA,NA,NA,NA,NA,NA,NA,NA,NA,NA,NA,NA,NA,NA,NA,NA,NA,NA,NA,NA,Körper,kiwiliwili,d,NA,NA,NA,sdf,NA,5
56b99,task,flow.Sequence,3_0_5_0_2,NA,NA,completion,10676.8,869314.60000002,869312.8,869329.2,880006,880007.70000005,2024-05-07T08:33:27Z,880023.1,NA,NA,NA,NA,NA,NA,NA,NA,NA,NA,NA,NA,NA,NA,NA,NA,NA,NA,NA,NA,Körper,kiwiliwili,d,NA,NA,NA,sdf,NA,5
56b99,deep,flow.Sequence,3_0_5_0_3_0,NA,NA,skipped,NA,880007.89999998,NA,NA,880006,880007.89999998,2024-05-07T08:33:27Z,880023.1,NA,NA,NA,NA,NA,NA,NA,NA,NA,NA,NA,NA,NA,NA,NA,NA,NA,NA,NA,NA,Konkurrent,mshindani,s,msemaji,mvutaji,kipukusa,sdf,NA,5
56b99,Shallow Question,html.Page,3_0_5_0_3_1_0,mshindani,NA,form submission,5730.5000000239,880008.10000002,880006,880023.1,885753.60000002,885753.89999998,2024-05-07T08:33:33Z,885769.4,NA,NA,NA,NA,NA,NA,NA,NA,NA,NA,NA,NA,NA,NA,NA,NA,NA,NA,NA,NA,Konkurrent,mshindani,s,msemaji,mvutaji,kipukusa,NA,NA,5
56b99,"""Richtig""-Screen",canvas.Screen,3_0_5_0_3_1_1,NA,NA,timeout,4997.1,885756.70000005,885753.148,885769.4,890749.7,890750.70000005,2024-05-07T08:33:38Z,890766.5,NA,NA,NA,NA,NA,NA,NA,NA,NA,NA,NA,NA,NA,NA,NA,NA,NA,NA,NA,NA,Konkurrent,mshindani,s,msemaji,mvutaji,kipukusa,sdf,1,5
56b99,"""Falsch""-Screen",canvas.Screen,3_0_5_0_3_1_2,NA,NA,skipped,NA,890755.5,NA,NA,890749.7,890755.60000002,2024-05-07T08:33:38Z,890766.5,NA,NA,NA,NA,NA,NA,NA,NA,NA,NA,NA,NA,NA,NA,NA,NA,NA,NA,NA,NA,Konkurrent,mshindani,s,msemaji,mvutaji,kipukusa,sdf,NA,5
56b99,shallow,flow.Sequence,3_0_5_0_3_1,NA,NA,completion,10726.6,880008,880006,880023.1,890749.7,890755.70000005,2024-05-07T08:33:38Z,890766.5,NA,NA,NA,NA,NA,NA,NA,NA,NA,NA,NA,NA,NA,NA,NA,NA,NA,NA,NA,NA,Konkurrent,mshindani,s,msemaji,mvutaji,kipukusa,sdf,NA,5
56b99,task,flow.Sequence,3_0_5_0_3,NA,NA,completion,10726.6,880007.80000007,880006,880023.1,890749.7,890755.80000007,2024-05-07T08:33:38Z,890766.5,NA,NA,NA,NA,NA,NA,NA,NA,NA,NA,NA,NA,NA,NA,NA,NA,NA,NA,NA,NA,Konkurrent,mshindani,s,msemaji,mvutaji,kipukusa,sdf,NA,5
56b99,Deep Question,html.Page,3_0_5_0_4_0_0,kjkd,NA,form submission,12632.300000072,890755.80000007,890749.7,890766.5,903398.80000007,903398.89999998,2024-05-07T08:33:51Z,903408.4,NA,NA,NA,NA,NA,NA,NA,NA,NA,NA,NA,NA,NA,NA,NA,NA,NA,NA,NA,NA,Übersicht,kilindo,d,NA,NA,NA,NA,NA,5
56b99,"""Richtig""-Screen",canvas.Screen,3_0_5_0_4_0_1,NA,NA,skipped,NA,903400.70000005,NA,NA,903398.80000007,903400.89999998,2024-05-07T08:33:51Z,903408.4,NA,NA,NA,NA,NA,NA,NA,NA,NA,NA,NA,NA,NA,NA,NA,NA,NA,NA,NA,NA,Übersicht,kilindo,d,NA,NA,NA,sdf,NA,5
56b99,"""Falsch""-Screen",canvas.Screen,3_0_5_0_4_0_2,NA,NA,timeout,4997.2999999999,903401.39999998,903392.196,903408.4,908388.7,908389.5,2024-05-07T08:33:56Z,908405.7,NA,NA,NA,NA,NA,NA,NA,NA,NA,NA,NA,NA,NA,NA,NA,NA,NA,NA,NA,NA,Übersicht,kilindo,d,NA,NA,NA,sdf,0,5
56b99,deep,flow.Sequence,3_0_5_0_4_0,NA,NA,completion,17622.2,890755.80000007,890749.7,890766.5,908388.7,908389.80000007,2024-05-07T08:33:56Z,908405.7,NA,NA,NA,NA,NA,NA,NA,NA,NA,NA,NA,NA,NA,NA,NA,NA,NA,NA,NA,NA,Übersicht,kilindo,d,NA,NA,NA,sdf,NA,5
56b99,shallow,flow.Sequence,3_0_5_0_4_1,NA,NA,skipped,NA,908389.89999998,NA,NA,908388.7,908390,2024-05-07T08:33:56Z,908405.7,NA,NA,NA,NA,NA,NA,NA,NA,NA,NA,NA,NA,NA,NA,NA,NA,NA,NA,NA,NA,Übersicht,kilindo,d,NA,NA,NA,sdf,NA,5
56b99,task,flow.Sequence,3_0_5_0_4,NA,NA,completion,17622.2,890755.80000007,890749.7,890766.5,908388.7,908390.20000005,2024-05-07T08:33:56Z,908405.7,NA,NA,NA,NA,NA,NA,NA,NA,NA,NA,NA,NA,NA,NA,NA,NA,NA,NA,NA,NA,Übersicht,kilindo,d,NA,NA,NA,sdf,NA,5
56b99,deep,flow.Sequence,3_0_5_0_5_0,NA,NA,skipped,NA,908390.30000007,NA,NA,908388.7,908390.39999998,2024-05-07T08:33:56Z,908405.7,NA,NA,NA,NA,NA,NA,NA,NA,NA,NA,NA,NA,NA,NA,NA,NA,NA,NA,NA,NA,Vorsorge,tahadhari,s,ufafanuzi,makini,mashambani,sdf,NA,5
56b99,Shallow Question,html.Page,3_0_5_0_5_1_0,tahadhari,NA,form submission,6259.6000000716,908390.5,908388.7,908405.7,914665.30000007,914665.39999998,2024-05-07T08:34:02Z,914669.056,NA,NA,NA,NA,NA,NA,NA,NA,NA,NA,NA,NA,NA,NA,NA,NA,NA,NA,NA,NA,Vorsorge,tahadhari,s,ufafanuzi,makini,mashambani,NA,NA,5
56b99,"""Richtig""-Screen",canvas.Screen,3_0_5_0_5_1_1,NA,NA,timeout,4996.344,914668.39999998,914669.056,914669.056,919648.5,919649.39999998,2024-05-07T08:34:07Z,919665.4,NA,NA,NA,NA,NA,NA,NA,NA,NA,NA,NA,NA,NA,NA,NA,NA,NA,NA,NA,NA,Vorsorge,tahadhari,s,ufafanuzi,makini,mashambani,sdf,1,5
56b99,"""Falsch""-Screen",canvas.Screen,3_0_5_0_5_1_2,NA,NA,skipped,NA,919654.39999998,NA,NA,919648.5,919654.60000002,2024-05-07T08:34:07Z,919665.4,NA,NA,NA,NA,NA,NA,NA,NA,NA,NA,NA,NA,NA,NA,NA,NA,NA,NA,NA,NA,Vorsorge,tahadhari,s,ufafanuzi,makini,mashambani,sdf,NA,5
56b99,shallow,flow.Sequence,3_0_5_0_5_1,NA,NA,completion,11242.8,908390.5,908388.7,908405.7,919648.5,919654.70000005,2024-05-07T08:34:07Z,919665.4,NA,NA,NA,NA,NA,NA,NA,NA,NA,NA,NA,NA,NA,NA,NA,NA,NA,NA,NA,NA,Vorsorge,tahadhari,s,ufafanuzi,makini,mashambani,sdf,NA,5
56b99,task,flow.Sequence,3_0_5_0_5,NA,NA,completion,11242.8,908390.30000007,908388.7,908405.7,919648.5,919654.80000007,2024-05-07T08:34:07Z,919665.4,NA,NA,NA,NA,NA,NA,NA,NA,NA,NA,NA,NA,NA,NA,NA,NA,NA,NA,NA,NA,Vorsorge,tahadhari,s,ufafanuzi,makini,mashambani,sdf,NA,5
56b99,deep,flow.Sequence,3_0_5_0_6_0,NA,NA,skipped,NA,919654.80000007,NA,NA,919648.5,919654.89999998,2024-05-07T08:34:07Z,919665.4,NA,NA,NA,NA,NA,NA,NA,NA,NA,NA,NA,NA,NA,NA,NA,NA,NA,NA,NA,NA,System,maongozi,s,chokochoko,nuksani,mitaani,sdf,NA,5
56b99,Shallow Question,html.Page,3_0_5_0_6_1_0,maongozi,NA,form submission,6864.8000000477,919654.89999998,919648.5,919665.4,926530.20000005,926530.39999998,2024-05-07T08:34:14Z,926544.2,NA,NA,NA,NA,NA,NA,NA,NA,NA,NA,NA,NA,NA,NA,NA,NA,NA,NA,NA,NA,System,maongozi,s,chokochoko,nuksani,mitaani,NA,NA,5
56b99,"""Richtig""-Screen",canvas.Screen,3_0_5_0_6_1_1,NA,NA,timeout,4997.5,926532.39999998,926528.158,926544.2,931524.9,931525.89999998,2024-05-07T08:34:19Z,931541.7,NA,NA,NA,NA,NA,NA,NA,NA,NA,NA,NA,NA,NA,NA,NA,NA,NA,NA,NA,NA,System,maongozi,s,chokochoko,nuksani,mitaani,sdf,1,5
56b99,"""Falsch""-Screen",canvas.Screen,3_0_5_0_6_1_2,NA,NA,skipped,NA,931531.20000005,NA,NA,931524.9,931531.20000005,2024-05-07T08:34:19Z,931541.7,NA,NA,NA,NA,NA,NA,NA,NA,NA,NA,NA,NA,NA,NA,NA,NA,NA,NA,NA,NA,System,maongozi,s,chokochoko,nuksani,mitaani,sdf,NA,5
56b99,shallow,flow.Sequence,3_0_5_0_6_1,NA,NA,completion,11859.5,919654.89999998,919648.5,919665.4,931524.9,931531.30000007,2024-05-07T08:34:19Z,931541.7,NA,NA,NA,NA,NA,NA,NA,NA,NA,NA,NA,NA,NA,NA,NA,NA,NA,NA,NA,NA,System,maongozi,s,chokochoko,nuksani,mitaani,sdf,NA,5
56b99,task,flow.Sequence,3_0_5_0_6,NA,NA,completion,11859.5,919654.80000007,919648.5,919665.4,931524.9,931531.30000007,2024-05-07T08:34:19Z,931541.7,NA,NA,NA,NA,NA,NA,NA,NA,NA,NA,NA,NA,NA,NA,NA,NA,NA,NA,NA,NA,System,maongozi,s,chokochoko,nuksani,mitaani,sdf,NA,5
56b99,Deep Question,html.Page,3_0_5_0_7_0_0,fgs,NA,form submission,19318.000000048,931531.5,931524.9,931541.7,950859.70000005,950859.89999998,2024-05-07T08:34:38Z,950863.392,NA,NA,NA,NA,NA,NA,NA,NA,NA,NA,NA,NA,NA,NA,NA,NA,NA,NA,NA,NA,Zuwachs,nyongeza,d,NA,NA,NA,NA,NA,5
56b99,"""Richtig""-Screen",canvas.Screen,3_0_5_0_7_0_1,NA,NA,skipped,NA,950862.80000007,NA,NA,950859.70000005,950862.89999998,2024-05-07T08:34:38Z,950863.392,NA,NA,NA,NA,NA,NA,NA,NA,NA,NA,NA,NA,NA,NA,NA,NA,NA,NA,NA,NA,Zuwachs,nyongeza,d,NA,NA,NA,sdf,NA,5
56b99,"""Falsch""-Screen",canvas.Screen,3_0_5_0_7_0_2,NA,NA,timeout,4996.708,950863.70000005,950863.392,950863.392,955843.5,955844.5,2024-05-07T08:34:43Z,955860.1,NA,NA,NA,NA,NA,NA,NA,NA,NA,NA,NA,NA,NA,NA,NA,NA,NA,NA,NA,NA,Zuwachs,nyongeza,d,NA,NA,NA,sdf,0,5
56b99,deep,flow.Sequence,3_0_5_0_7_0,NA,NA,completion,24301.8,931531.39999998,931524.9,931541.7,955843.5,955844.89999998,2024-05-07T08:34:43Z,955860.1,NA,NA,NA,NA,NA,NA,NA,NA,NA,NA,NA,NA,NA,NA,NA,NA,NA,NA,NA,NA,Zuwachs,nyongeza,d,NA,NA,NA,sdf,NA,5
56b99,shallow,flow.Sequence,3_0_5_0_7_1,NA,NA,skipped,NA,955845.10000002,NA,NA,955843.5,955845.20000005,2024-05-07T08:34:43Z,955860.1,NA,NA,NA,NA,NA,NA,NA,NA,NA,NA,NA,NA,NA,NA,NA,NA,NA,NA,NA,NA,Zuwachs,nyongeza,d,NA,NA,NA,sdf,NA,5
56b99,task,flow.Sequence,3_0_5_0_7,NA,NA,completion,24301.8,931531.39999998,931524.9,931541.7,955843.5,955845.39999998,2024-05-07T08:34:43Z,955860.1,NA,NA,NA,NA,NA,NA,NA,NA,NA,NA,NA,NA,NA,NA,NA,NA,NA,NA,NA,NA,Zuwachs,nyongeza,d,NA,NA,NA,sdf,NA,5
56b99,block,flow.Loop,3_0_5_0,NA,NA,completion,123757.528,832092.70000005,832085.972,832085.972,955843.5,955845.70000005,2024-05-07T08:34:43Z,955860.1,NA,NA,NA,NA,NA,NA,NA,NA,NA,NA,NA,NA,NA,NA,NA,NA,NA,NA,NA,NA,NA,NA,NA,NA,NA,NA,sdf,NA,5
56b99,weiter,canvas.Screen,3_0_5_1,sdf,keypress(Space),response,2981.2999999762,955845.80000007,955843.5,955860.1,958841.39999998,958843.20000005,2024-05-07T08:34:46Z,958857.9,NA,NA,NA,NA,NA,NA,NA,NA,NA,NA,NA,NA,NA,NA,NA,NA,NA,NA,NA,NA,NA,NA,NA,NA,NA,NA,sdf,NA,5
56b99,check continue,flow.Sequence,3_0_5,NA,NA,completion,126755.42799998,832092.70000005,832085.972,832085.972,958841.39999998,958843.5,2024-05-07T08:34:46Z,958857.9,NA,NA,NA,NA,NA,NA,NA,NA,NA,NA,NA,NA,NA,NA,NA,NA,NA,NA,NA,NA,NA,NA,NA,NA,NA,NA,sdf,NA,5
56b99,Deep Question,html.Page,3_0_6_0_0_0_0,kiliwili,NA,form submission,18191.800000048,958861.39999998,958841.3,958857.9,977049.70000005,977049.89999998,2024-05-07T08:35:04Z,977080.2,NA,NA,NA,NA,NA,NA,NA,NA,NA,NA,NA,NA,NA,NA,NA,NA,NA,NA,NA,NA,Zuwachs,nyongeza,d,NA,NA,NA,NA,NA,6
56b99,"""Richtig""-Screen",canvas.Screen,3_0_6_0_0_0_1,NA,NA,skipped,NA,977053.10000002,NA,NA,977049.70000005,977053.20000005,2024-05-07T08:35:04Z,977080.2,NA,NA,NA,NA,NA,NA,NA,NA,NA,NA,NA,NA,NA,NA,NA,NA,NA,NA,NA,NA,Zuwachs,nyongeza,d,NA,NA,NA,dfs,NA,6
56b99,"""Falsch""-Screen",canvas.Screen,3_0_6_0_0_0_2,NA,NA,timeout,4997.1000000001,977054.10000002,977064.094,977080.2,982060.4,982061.60000002,2024-05-07T08:35:09Z,982077.3,NA,NA,NA,NA,NA,NA,NA,NA,NA,NA,NA,NA,NA,NA,NA,NA,NA,NA,NA,NA,Zuwachs,nyongeza,d,NA,NA,NA,dfs,0,6
56b99,deep,flow.Sequence,3_0_6_0_0_0,NA,NA,completion,23202.5,958861.39999998,958841.3,958857.9,982060.4,982062,2024-05-07T08:35:09Z,982077.3,NA,NA,NA,NA,NA,NA,NA,NA,NA,NA,NA,NA,NA,NA,NA,NA,NA,NA,NA,NA,Zuwachs,nyongeza,d,NA,NA,NA,dfs,NA,6
56b99,shallow,flow.Sequence,3_0_6_0_0_1,NA,NA,skipped,NA,982062.20000005,NA,NA,982060.4,982062.20000005,2024-05-07T08:35:09Z,982077.3,NA,NA,NA,NA,NA,NA,NA,NA,NA,NA,NA,NA,NA,NA,NA,NA,NA,NA,NA,NA,Zuwachs,nyongeza,d,NA,NA,NA,dfs,NA,6
56b99,task,flow.Sequence,3_0_6_0_0,NA,NA,completion,23202.5,958861.39999998,958841.3,958857.9,982060.4,982062.5,2024-05-07T08:35:09Z,982077.3,NA,NA,NA,NA,NA,NA,NA,NA,NA,NA,NA,NA,NA,NA,NA,NA,NA,NA,NA,NA,Zuwachs,nyongeza,d,NA,NA,NA,dfs,NA,6
56b99,deep,flow.Sequence,3_0_6_0_1_0,NA,NA,skipped,NA,982062.60000002,NA,NA,982060.4,982062.70000005,2024-05-07T08:35:09Z,982077.3,NA,NA,NA,NA,NA,NA,NA,NA,NA,NA,NA,NA,NA,NA,NA,NA,NA,NA,NA,NA,System,maongozi,s,chokochoko,nuksani,mitaani,dfs,NA,6
56b99,Shallow Question,html.Page,3_0_6_0_1_1_0,maongozi,NA,form submission,6316.0999999761,982063,982060.4,982077.3,988393.39999998,988393.70000005,2024-05-07T08:35:16Z,988407,NA,NA,NA,NA,NA,NA,NA,NA,NA,NA,NA,NA,NA,NA,NA,NA,NA,NA,NA,NA,System,maongozi,s,chokochoko,nuksani,mitaani,NA,NA,6
56b99,"""Richtig""-Screen",canvas.Screen,3_0_6_0_1_1_1,NA,NA,timeout,4996.7,988396.80000007,988390.61,988407,993386.9,993387.89999998,2024-05-07T08:35:21Z,993403.7,NA,NA,NA,NA,NA,NA,NA,NA,NA,NA,NA,NA,NA,NA,NA,NA,NA,NA,NA,NA,System,maongozi,s,chokochoko,nuksani,mitaani,dfs,1,6
56b99,"""Falsch""-Screen",canvas.Screen,3_0_6_0_1_1_2,NA,NA,skipped,NA,993392.89999998,NA,NA,993386.9,993392.89999998,2024-05-07T08:35:21Z,993403.7,NA,NA,NA,NA,NA,NA,NA,NA,NA,NA,NA,NA,NA,NA,NA,NA,NA,NA,NA,NA,System,maongozi,s,chokochoko,nuksani,mitaani,dfs,NA,6
56b99,shallow,flow.Sequence,3_0_6_0_1_1,NA,NA,completion,11309.6,982063,982060.4,982077.3,993386.9,993393,2024-05-07T08:35:21Z,993403.7,NA,NA,NA,NA,NA,NA,NA,NA,NA,NA,NA,NA,NA,NA,NA,NA,NA,NA,NA,NA,System,maongozi,s,chokochoko,nuksani,mitaani,dfs,NA,6
56b99,task,flow.Sequence,3_0_6_0_1,NA,NA,completion,11309.6,982062.60000002,982060.4,982077.3,993386.9,993393.10000002,2024-05-07T08:35:21Z,993403.7,NA,NA,NA,NA,NA,NA,NA,NA,NA,NA,NA,NA,NA,NA,NA,NA,NA,NA,NA,NA,System,maongozi,s,chokochoko,nuksani,mitaani,dfs,NA,6
56b99,Deep Question,html.Page,3_0_6_0_2_0_0,kili,NA,form submission,11615.500000048,993393.20000005,993386.9,993403.7,1005019.2,1005019.4,2024-05-07T08:35:32Z,1005047,NA,NA,NA,NA,NA,NA,NA,NA,NA,NA,NA,NA,NA,NA,NA,NA,NA,NA,NA,NA,Symbol,kielezo,d,NA,NA,NA,NA,NA,6
56b99,"""Richtig""-Screen",canvas.Screen,3_0_6_0_2_0_1,NA,NA,skipped,NA,1005022.3000001,NA,NA,1005019.2,1005022.4,2024-05-07T08:35:32Z,1005047,NA,NA,NA,NA,NA,NA,NA,NA,NA,NA,NA,NA,NA,NA,NA,NA,NA,NA,NA,NA,Symbol,kielezo,d,NA,NA,NA,dfs,NA,6
56b99,"""Falsch""-Screen",canvas.Screen,3_0_6_0_2_0_2,NA,NA,timeout,4996.8,1005023.1,1005030.352,1005047,1010027.2,1010027.6,2024-05-07T08:35:37Z,1010043.8,NA,NA,NA,NA,NA,NA,NA,NA,NA,NA,NA,NA,NA,NA,NA,NA,NA,NA,NA,NA,Symbol,kielezo,d,NA,NA,NA,dfs,0,6
56b99,deep,flow.Sequence,3_0_6_0_2_0,NA,NA,completion,16623.5,993393.10000002,993386.9,993403.7,1010027.2,1010027.7,2024-05-07T08:35:37Z,1010043.8,NA,NA,NA,NA,NA,NA,NA,NA,NA,NA,NA,NA,NA,NA,NA,NA,NA,NA,NA,NA,Symbol,kielezo,d,NA,NA,NA,dfs,NA,6
56b99,shallow,flow.Sequence,3_0_6_0_2_1,NA,NA,skipped,NA,1010027.7,NA,NA,1010027.2,1010027.9,2024-05-07T08:35:37Z,1010043.8,NA,NA,NA,NA,NA,NA,NA,NA,NA,NA,NA,NA,NA,NA,NA,NA,NA,NA,NA,NA,Symbol,kielezo,d,NA,NA,NA,dfs,NA,6
56b99,task,flow.Sequence,3_0_6_0_2,NA,NA,completion,16623.5,993393.10000002,993386.9,993403.7,1010027.2,1010027.9,2024-05-07T08:35:37Z,1010043.8,NA,NA,NA,NA,NA,NA,NA,NA,NA,NA,NA,NA,NA,NA,NA,NA,NA,NA,NA,NA,Symbol,kielezo,d,NA,NA,NA,dfs,NA,6
56b99,deep,flow.Sequence,3_0_6_0_3_0,NA,NA,skipped,NA,1010027.9,NA,NA,1010027.2,1010028,2024-05-07T08:35:37Z,1010043.8,NA,NA,NA,NA,NA,NA,NA,NA,NA,NA,NA,NA,NA,NA,NA,NA,NA,NA,NA,NA,Vorsorge,tahadhari,s,ufafanuzi,makini,mashambani,dfs,NA,6
56b99,Shallow Question,html.Page,3_0_6_0_3_1_0,tahadhari,NA,form submission,4481.8000000238,1010028,1010027.2,1010043.8,1014525.6,1014525.9,2024-05-07T08:35:42Z,1014541,NA,NA,NA,NA,NA,NA,NA,NA,NA,NA,NA,NA,NA,NA,NA,NA,NA,NA,NA,NA,Vorsorge,tahadhari,s,ufafanuzi,makini,mashambani,NA,NA,6
56b99,"""Richtig""-Screen",canvas.Screen,3_0_6_0_3_1_1,NA,NA,timeout,4997.1,1014528.9,1014524.676,1014541,1019520.9,1019521.8000001,2024-05-07T08:35:47Z,1019538.1,NA,NA,NA,NA,NA,NA,NA,NA,NA,NA,NA,NA,NA,NA,NA,NA,NA,NA,NA,NA,Vorsorge,tahadhari,s,ufafanuzi,makini,mashambani,dfs,1,6
56b99,"""Falsch""-Screen",canvas.Screen,3_0_6_0_3_1_2,NA,NA,skipped,NA,1019526.6,NA,NA,1019520.9,1019526.8000001,2024-05-07T08:35:47Z,1019538.1,NA,NA,NA,NA,NA,NA,NA,NA,NA,NA,NA,NA,NA,NA,NA,NA,NA,NA,NA,NA,Vorsorge,tahadhari,s,ufafanuzi,makini,mashambani,dfs,NA,6
56b99,shallow,flow.Sequence,3_0_6_0_3_1,NA,NA,completion,9477.1,1010028,1010027.2,1010043.8,1019520.9,1019526.9,2024-05-07T08:35:47Z,1019538.1,NA,NA,NA,NA,NA,NA,NA,NA,NA,NA,NA,NA,NA,NA,NA,NA,NA,NA,NA,NA,Vorsorge,tahadhari,s,ufafanuzi,makini,mashambani,dfs,NA,6
56b99,task,flow.Sequence,3_0_6_0_3,NA,NA,completion,9477.1,1010027.9,1010027.2,1010043.8,1019520.9,1019527.1,2024-05-07T08:35:47Z,1019538.1,NA,NA,NA,NA,NA,NA,NA,NA,NA,NA,NA,NA,NA,NA,NA,NA,NA,NA,NA,NA,Vorsorge,tahadhari,s,ufafanuzi,makini,mashambani,dfs,NA,6
56b99,deep,flow.Sequence,3_0_6_0_4_0,NA,NA,skipped,NA,1019527.1,NA,NA,1019520.9,1019527.1,2024-05-07T08:35:47Z,1019538.1,NA,NA,NA,NA,NA,NA,NA,NA,NA,NA,NA,NA,NA,NA,NA,NA,NA,NA,NA,NA,Konkurrent,mshindani,s,msemaji,mvutaji,kipukusa,dfs,NA,6
56b99,Shallow Question,html.Page,3_0_6_0_4_1_0,mshindani,NA,form submission,6111.4,1019527.1,1019520.9,1019538.1,1025649.5,1025649.7,2024-05-07T08:35:53Z,1025650.928,NA,NA,NA,NA,NA,NA,NA,NA,NA,NA,NA,NA,NA,NA,NA,NA,NA,NA,NA,NA,Konkurrent,mshindani,s,msemaji,mvutaji,kipukusa,NA,NA,6
56b99,"""Richtig""-Screen",canvas.Screen,3_0_6_0_4_1_1,NA,NA,timeout,4996.9720000001,1025652.5,1025650.928,1025650.928,1030631.1,1030631.5,2024-05-07T08:35:58Z,1030647.9,NA,NA,NA,NA,NA,NA,NA,NA,NA,NA,NA,NA,NA,NA,NA,NA,NA,NA,NA,NA,Konkurrent,mshindani,s,msemaji,mvutaji,kipukusa,dfs,1,6
56b99,"""Falsch""-Screen",canvas.Screen,3_0_6_0_4_1_2,NA,NA,skipped,NA,1030633.2,NA,NA,1030631.1,1030633.3000001,2024-05-07T08:35:58Z,1030647.9,NA,NA,NA,NA,NA,NA,NA,NA,NA,NA,NA,NA,NA,NA,NA,NA,NA,NA,NA,NA,Konkurrent,mshindani,s,msemaji,mvutaji,kipukusa,dfs,NA,6
56b99,shallow,flow.Sequence,3_0_6_0_4_1,NA,NA,completion,11093,1019527.1,1019520.9,1019538.1,1030631.1,1030633.3000001,2024-05-07T08:35:58Z,1030647.9,NA,NA,NA,NA,NA,NA,NA,NA,NA,NA,NA,NA,NA,NA,NA,NA,NA,NA,NA,NA,Konkurrent,mshindani,s,msemaji,mvutaji,kipukusa,dfs,NA,6
56b99,task,flow.Sequence,3_0_6_0_4,NA,NA,completion,11093,1019527.1,1019520.9,1019538.1,1030631.1,1030633.4,2024-05-07T08:35:58Z,1030647.9,NA,NA,NA,NA,NA,NA,NA,NA,NA,NA,NA,NA,NA,NA,NA,NA,NA,NA,NA,NA,Konkurrent,mshindani,s,msemaji,mvutaji,kipukusa,dfs,NA,6
