observation,sender,sender_type,sender_id,response,response_action,ended_on,duration,time_run,time_render,time_show,time_end,time_commit,timestamp,time_switch,distractors,german,swahili,enc,distractor1,distractor2,distractor3,response_2,x,correct,x_2,url_vp,url_sess,meta_labjs_version,meta_location,meta_user_agent,meta_platform,meta_language,meta_locale,meta_time_zone,meta_timezone_offset,meta_screen_width,meta_screen_height,meta_scroll_width,meta_scroll_height,meta_window_inner_width,meta_window_inner_height,meta_device_pixel_ratio,meta_labjs_build_flavor,meta_labjs_build_commit
f97ab,Introduction general,canvas.Screen,0,weiter,keypress(q),response,79963.72,339,344.6,361.28,80325,80336,2023-07-10T16:58:45Z,80338.04,NULL,NA,NA,NA,NA,NA,NA,NA,NA,NA,NA,174,1,20.2.4,https://neurocog.fernuni.ch/studies/vweber/sliechti/encoding_immediate/index.html?vp=174&sess=1,Mozilla/5.0 (Windows NT 10.0; Win64; x64; rv:109.0) Gecko/20100101 Firefox/115.0,Win32,de,de-CH,Europe/Zurich,-120,1280,720,1280,587,1280,587,1.5,production,f5b4a49f956347addd546a832a3327688c2c0fef
f97ab,Introduction practice,canvas.Screen,1_0,NA,keypress(Space),response,7642.96,80337,80337.2,80338.04,87981,87996,2023-07-10T16:58:53Z,87999.56,NULL,NA,NA,NA,NA,NA,NA,NA,NA,NA,NA,NA,NA,NA,NA,NA,NA,NA,NA,NA,NA,NA,NA,NA,NA,NA,NA,NA,NA,NA
f97ab,deep,flow.Sequence,1_1_0_0,NA,NA,skipped,NA,87998,NA,NA,87981,87998,2023-07-10T16:58:53Z,87999.56,"c(""distractor1"", ""distractor2"", ""distractor3"")",Kritik,lawama,s,dereva,nafasi,mawazo,NA,NA,NA,NA,NA,NA,NA,NA,NA,NA,NA,NA,NA,NA,NA,NA,NA,NA,NA,NA,NA,NA,NA
f97ab,Shallow Question,html.Page,1_1_0_1_0,NA,NA,form submission,13251.44,87998,87999,87999.56,101251,101251,2023-07-10T16:59:06Z,101248.38,"c(""distractor1"", ""distractor2"", ""distractor3"")",Kritik,lawama,s,dereva,nafasi,mawazo,dereva,NA,NA,NA,NA,NA,NA,NA,NA,NA,NA,NA,NA,NA,NA,NA,NA,NA,NA,NA,NA,NA,NA
f97ab,"""Richtig""-Screen",canvas.Screen,1_1_0_1_1,NA,NA,skipped,NA,101255,NA,NA,101251,101256,2023-07-10T16:59:06Z,101248.38,"c(""distractor1"", ""distractor2"", ""distractor3"")",Kritik,lawama,s,dereva,nafasi,mawazo,NA,NA,NA,NA,NA,NA,NA,NA,NA,NA,NA,NA,NA,NA,NA,NA,NA,NA,NA,NA,NA,NA,NA
f97ab,"""Falsch""-Screen",canvas.Screen,1_1_0_1_2,NA,NA,timeout,4999.4,101258,101230.04,101248.38,106231.18,106233,2023-07-10T16:59:11Z,106247.78,"c(""distractor1"", ""distractor2"", ""distractor3"")",Kritik,lawama,s,dereva,nafasi,mawazo,NA,NA,0,NA,NA,NA,NA,NA,NA,NA,NA,NA,NA,NA,NA,NA,NA,NA,NA,NA,NA,NA,NA
f97ab,shallow,flow.Sequence,1_1_0_1,NA,NA,completion,18231.62,87998,87999,87999.56,106231.18,106235,2023-07-10T16:59:11Z,106247.78,"c(""distractor1"", ""distractor2"", ""distractor3"")",Kritik,lawama,s,dereva,nafasi,mawazo,NA,NA,NA,NA,NA,NA,NA,NA,NA,NA,NA,NA,NA,NA,NA,NA,NA,NA,NA,NA,NA,NA,NA
f97ab,task,flow.Sequence,1_1_0,NA,NA,completion,18231.62,87997,87999,87999.56,106231.18,106236,2023-07-10T16:59:11Z,106247.78,"c(""distractor1"", ""distractor2"", ""distractor3"")",Kritik,lawama,s,dereva,nafasi,mawazo,NA,NA,NA,NA,NA,NA,NA,NA,NA,NA,NA,NA,NA,NA,NA,NA,NA,NA,NA,NA,NA,NA,NA
f97ab,Deep Question,html.Page,1_1_1_0_0,NA,NA,form submission,9559.22,106236,106231.18,106247.78,115807,115808,2023-07-10T16:59:21Z,115813.14,"c(""distractor1"", ""distractor2"", ""distractor3"")",Qualität,mtindo,d,NA,NA,NA,jdhfjkaehkjd,NA,NA,NA,NA,NA,NA,NA,NA,NA,NA,NA,NA,NA,NA,NA,NA,NA,NA,NA,NA,NA,NA
f97ab,"""Richtig""-Screen",canvas.Screen,1_1_1_0_1,NA,NA,skipped,NA,115813,NA,NA,115807,115813,2023-07-10T16:59:21Z,115813.14,"c(""distractor1"", ""distractor2"", ""distractor3"")",Qualität,mtindo,d,NA,NA,NA,NA,NA,NA,NA,NA,NA,NA,NA,NA,NA,NA,NA,NA,NA,NA,NA,NA,NA,NA,NA,NA,NA,NA
f97ab,"""Falsch""-Screen",canvas.Screen,1_1_1_0_2,NA,NA,timeout,4999.44,115819,115801.72,115813.14,120795.92,120798,2023-07-10T16:59:26Z,120812.58,"c(""distractor1"", ""distractor2"", ""distractor3"")",Qualität,mtindo,d,NA,NA,NA,NA,NA,0,NA,NA,NA,NA,NA,NA,NA,NA,NA,NA,NA,NA,NA,NA,NA,NA,NA,NA,NA,NA
f97ab,deep,flow.Sequence,1_1_1_0,NA,NA,completion,14548.14,106236,106231.18,106247.78,120795.92,120799,2023-07-10T16:59:26Z,120812.58,"c(""distractor1"", ""distractor2"", ""distractor3"")",Qualität,mtindo,d,NA,NA,NA,NA,NA,NA,NA,NA,NA,NA,NA,NA,NA,NA,NA,NA,NA,NA,NA,NA,NA,NA,NA,NA,NA,NA
f97ab,shallow,flow.Sequence,1_1_1_1,NA,NA,skipped,NA,120799,NA,NA,120795.92,120800,2023-07-10T16:59:26Z,120812.58,"c(""distractor1"", ""distractor2"", ""distractor3"")",Qualität,mtindo,d,NA,NA,NA,NA,NA,NA,NA,NA,NA,NA,NA,NA,NA,NA,NA,NA,NA,NA,NA,NA,NA,NA,NA,NA,NA,NA
f97ab,task,flow.Sequence,1_1_1,NA,NA,completion,14548.14,106236,106231.18,106247.78,120795.92,120800,2023-07-10T16:59:26Z,120812.58,"c(""distractor1"", ""distractor2"", ""distractor3"")",Qualität,mtindo,d,NA,NA,NA,NA,NA,NA,NA,NA,NA,NA,NA,NA,NA,NA,NA,NA,NA,NA,NA,NA,NA,NA,NA,NA,NA,NA
f97ab,Deep Question,html.Page,1_1_2_0_0,NA,NA,form submission,13544.42,120801,120795.92,120812.58,134357,134359,2023-07-10T16:59:39Z,134359.74,"c(""distractor1"", ""distractor2"", ""distractor3"")",Gesundheit,salama,d,NA,NA,NA,jhkjh,NA,NA,NA,NA,NA,NA,NA,NA,NA,NA,NA,NA,NA,NA,NA,NA,NA,NA,NA,NA,NA,NA
f97ab,"""Richtig""-Screen",canvas.Screen,1_1_2_0_1,NA,NA,skipped,NA,134365,NA,NA,134357,134365,2023-07-10T16:59:39Z,134359.74,"c(""distractor1"", ""distractor2"", ""distractor3"")",Gesundheit,salama,d,NA,NA,NA,NA,NA,NA,NA,NA,NA,NA,NA,NA,NA,NA,NA,NA,NA,NA,NA,NA,NA,NA,NA,NA,NA,NA
f97ab,"""Falsch""-Screen",canvas.Screen,1_1_2_0_2,NA,NA,timeout,5000.44,134371,134350.86,134359.74,139343.52,139346,2023-07-10T16:59:44Z,139360.18,"c(""distractor1"", ""distractor2"", ""distractor3"")",Gesundheit,salama,d,NA,NA,NA,NA,NA,0,NA,NA,NA,NA,NA,NA,NA,NA,NA,NA,NA,NA,NA,NA,NA,NA,NA,NA,NA,NA
f97ab,deep,flow.Sequence,1_1_2_0,NA,NA,completion,18530.94,120801,120795.92,120812.58,139343.52,139346,2023-07-10T16:59:44Z,139360.18,"c(""distractor1"", ""distractor2"", ""distractor3"")",Gesundheit,salama,d,NA,NA,NA,NA,NA,NA,NA,NA,NA,NA,NA,NA,NA,NA,NA,NA,NA,NA,NA,NA,NA,NA,NA,NA,NA,NA
f97ab,shallow,flow.Sequence,1_1_2_1,NA,NA,skipped,NA,139346,NA,NA,139343.52,139346,2023-07-10T16:59:44Z,139360.18,"c(""distractor1"", ""distractor2"", ""distractor3"")",Gesundheit,salama,d,NA,NA,NA,NA,NA,NA,NA,NA,NA,NA,NA,NA,NA,NA,NA,NA,NA,NA,NA,NA,NA,NA,NA,NA,NA,NA
f97ab,task,flow.Sequence,1_1_2,NA,NA,completion,18530.94,120801,120795.92,120812.58,139343.52,139348,2023-07-10T16:59:44Z,139360.18,"c(""distractor1"", ""distractor2"", ""distractor3"")",Gesundheit,salama,d,NA,NA,NA,NA,NA,NA,NA,NA,NA,NA,NA,NA,NA,NA,NA,NA,NA,NA,NA,NA,NA,NA,NA,NA,NA,NA
f97ab,deep,flow.Sequence,1_1_3_0,NA,NA,skipped,NA,139348,NA,NA,139343.52,139349,2023-07-10T16:59:44Z,139360.18,"c(""distractor1"", ""distractor2"", ""distractor3"")",Rückhalt,msaada,s,muhula,auwali,kiwimbe,NA,NA,NA,NA,NA,NA,NA,NA,NA,NA,NA,NA,NA,NA,NA,NA,NA,NA,NA,NA,NA,NA,NA
f97ab,Shallow Question,html.Page,1_1_3_1_0,NA,NA,form submission,7108.82,139349,139343.52,139360.18,146469,146469,2023-07-10T16:59:51Z,146475.9,"c(""distractor1"", ""distractor2"", ""distractor3"")",Rückhalt,msaada,s,muhula,auwali,kiwimbe,kiwimbe,NA,NA,NA,NA,NA,NA,NA,NA,NA,NA,NA,NA,NA,NA,NA,NA,NA,NA,NA,NA,NA,NA
f97ab,"""Richtig""-Screen",canvas.Screen,1_1_3_1_1,NA,NA,skipped,NA,146474,NA,NA,146469,146474,2023-07-10T16:59:51Z,146475.9,"c(""distractor1"", ""distractor2"", ""distractor3"")",Rückhalt,msaada,s,muhula,auwali,kiwimbe,NA,NA,NA,NA,NA,NA,NA,NA,NA,NA,NA,NA,NA,NA,NA,NA,NA,NA,NA,NA,NA,NA,NA
f97ab,"""Falsch""-Screen",canvas.Screen,1_1_3_1_2,NA,NA,timeout,4999.34,146478,146464,146475.9,151458.62,151460,2023-07-10T16:59:56Z,151475.24,"c(""distractor1"", ""distractor2"", ""distractor3"")",Rückhalt,msaada,s,muhula,auwali,kiwimbe,NA,NA,0,NA,NA,NA,NA,NA,NA,NA,NA,NA,NA,NA,NA,NA,NA,NA,NA,NA,NA,NA,NA
f97ab,shallow,flow.Sequence,1_1_3_1,NA,NA,completion,12098.44,139349,139343.52,139360.18,151458.62,151461,2023-07-10T16:59:56Z,151475.24,"c(""distractor1"", ""distractor2"", ""distractor3"")",Rückhalt,msaada,s,muhula,auwali,kiwimbe,NA,NA,NA,NA,NA,NA,NA,NA,NA,NA,NA,NA,NA,NA,NA,NA,NA,NA,NA,NA,NA,NA,NA
f97ab,task,flow.Sequence,1_1_3,NA,NA,completion,12098.44,139348,139343.52,139360.18,151458.62,151462,2023-07-10T16:59:56Z,151475.24,"c(""distractor1"", ""distractor2"", ""distractor3"")",Rückhalt,msaada,s,muhula,auwali,kiwimbe,NA,NA,NA,NA,NA,NA,NA,NA,NA,NA,NA,NA,NA,NA,NA,NA,NA,NA,NA,NA,NA,NA,NA
f97ab,Deep Question,html.Page,1_1_4_0_0,NA,NA,form submission,6231.76,151463,151458.62,151475.24,157707,157707,2023-07-10T17:00:03Z,157707.74,"c(""distractor1"", ""distractor2"", ""distractor3"")",Schatten,kivuli,d,NA,NA,NA,ufufufu,NA,NA,NA,NA,NA,NA,NA,NA,NA,NA,NA,NA,NA,NA,NA,NA,NA,NA,NA,NA,NA,NA
f97ab,"""Richtig""-Screen",canvas.Screen,1_1_4_0_1,NA,NA,skipped,NA,157708,NA,NA,157707,157708,2023-07-10T17:00:03Z,157707.74,"c(""distractor1"", ""distractor2"", ""distractor3"")",Schatten,kivuli,d,NA,NA,NA,NA,NA,NA,NA,NA,NA,NA,NA,NA,NA,NA,NA,NA,NA,NA,NA,NA,NA,NA,NA,NA,NA,NA
f97ab,"""Falsch""-Screen",canvas.Screen,1_1_4_0_2,NA,NA,timeout,4999.38,157709,157705.08,157707.74,162690.46,162691,2023-07-10T17:00:08Z,162707.12,"c(""distractor1"", ""distractor2"", ""distractor3"")",Schatten,kivuli,d,NA,NA,NA,NA,NA,0,NA,NA,NA,NA,NA,NA,NA,NA,NA,NA,NA,NA,NA,NA,NA,NA,NA,NA,NA,NA
f97ab,deep,flow.Sequence,1_1_4_0,NA,NA,completion,11215.22,151463,151458.62,151475.24,162690.46,162692,2023-07-10T17:00:08Z,162707.12,"c(""distractor1"", ""distractor2"", ""distractor3"")",Schatten,kivuli,d,NA,NA,NA,NA,NA,NA,NA,NA,NA,NA,NA,NA,NA,NA,NA,NA,NA,NA,NA,NA,NA,NA,NA,NA,NA,NA
f97ab,shallow,flow.Sequence,1_1_4_1,NA,NA,skipped,NA,162692,NA,NA,162690.46,162693,2023-07-10T17:00:08Z,162707.12,"c(""distractor1"", ""distractor2"", ""distractor3"")",Schatten,kivuli,d,NA,NA,NA,NA,NA,NA,NA,NA,NA,NA,NA,NA,NA,NA,NA,NA,NA,NA,NA,NA,NA,NA,NA,NA,NA,NA
f97ab,task,flow.Sequence,1_1_4,NA,NA,completion,11215.22,151462,151458.62,151475.24,162690.46,162693,2023-07-10T17:00:08Z,162707.12,"c(""distractor1"", ""distractor2"", ""distractor3"")",Schatten,kivuli,d,NA,NA,NA,NA,NA,NA,NA,NA,NA,NA,NA,NA,NA,NA,NA,NA,NA,NA,NA,NA,NA,NA,NA,NA,NA,NA
f97ab,deep,flow.Sequence,1_1_5_0,NA,NA,skipped,NA,162693,NA,NA,162690.46,162694,2023-07-10T17:00:08Z,162707.12,"c(""distractor1"", ""distractor2"", ""distractor3"")",Gegenwart,hadhara,s,katiba,jokofu,mikopo,NA,NA,NA,NA,NA,NA,NA,NA,NA,NA,NA,NA,NA,NA,NA,NA,NA,NA,NA,NA,NA,NA,NA
f97ab,Shallow Question,html.Page,1_1_5_1_0,NA,NA,form submission,6649.88,162695,162690.46,162707.12,169357,169357,2023-07-10T17:00:14Z,169356.2,"c(""distractor1"", ""distractor2"", ""distractor3"")",Gegenwart,hadhara,s,katiba,jokofu,mikopo,mikopo,NA,NA,NA,NA,NA,NA,NA,NA,NA,NA,NA,NA,NA,NA,NA,NA,NA,NA,NA,NA,NA,NA
f97ab,"""Richtig""-Screen",canvas.Screen,1_1_5_1_1,NA,NA,skipped,NA,169361,NA,NA,169357,169361,2023-07-10T17:00:14Z,169356.2,"c(""distractor1"", ""distractor2"", ""distractor3"")",Gegenwart,hadhara,s,katiba,jokofu,mikopo,NA,NA,NA,NA,NA,NA,NA,NA,NA,NA,NA,NA,NA,NA,NA,NA,NA,NA,NA,NA,NA,NA,NA
f97ab,"""Falsch""-Screen",canvas.Screen,1_1_5_1_2,NA,NA,timeout,4999.46,169364,169352.26,169356.2,174339,174340,2023-07-10T17:00:19Z,174355.66,"c(""distractor1"", ""distractor2"", ""distractor3"")",Gegenwart,hadhara,s,katiba,jokofu,mikopo,NA,NA,0,NA,NA,NA,NA,NA,NA,NA,NA,NA,NA,NA,NA,NA,NA,NA,NA,NA,NA,NA,NA
f97ab,shallow,flow.Sequence,1_1_5_1,NA,NA,completion,11631.88,162694,162690.46,162707.12,174339,174341,2023-07-10T17:00:19Z,174355.66,"c(""distractor1"", ""distractor2"", ""distractor3"")",Gegenwart,hadhara,s,katiba,jokofu,mikopo,NA,NA,NA,NA,NA,NA,NA,NA,NA,NA,NA,NA,NA,NA,NA,NA,NA,NA,NA,NA,NA,NA,NA
f97ab,task,flow.Sequence,1_1_5,NA,NA,completion,11631.88,162693,162690.46,162707.12,174339,174341,2023-07-10T17:00:19Z,174355.66,"c(""distractor1"", ""distractor2"", ""distractor3"")",Gegenwart,hadhara,s,katiba,jokofu,mikopo,NA,NA,NA,NA,NA,NA,NA,NA,NA,NA,NA,NA,NA,NA,NA,NA,NA,NA,NA,NA,NA,NA,NA
f97ab,block,flow.Loop,1_1,NA,NA,completion,86339.44,87996,87999,87999.56,174339,174343,2023-07-10T17:00:19Z,174355.66,"c(""distractor1"", ""distractor2"", ""distractor3"")",NA,NA,NA,NA,NA,NA,NA,NA,NA,NA,NA,NA,NA,NA,NA,NA,NA,NA,NA,NA,NA,NA,NA,NA,NA,NA,NA,NA,NA
f97ab,Practice,flow.Sequence,1,NA,NA,completion,94000.96,80337,80337.2,80338.04,174339,174343,2023-07-10T17:00:19Z,174355.66,NULL,NA,NA,NA,NA,NA,NA,NA,NA,NA,NA,NA,NA,NA,NA,NA,NA,NA,NA,NA,NA,NA,NA,NA,NA,NA,NA,NA,NA,NA
f97ab,Experiment start,canvas.Screen,2,weiter,keypress(q),response,32093.34,174343,174339,174355.66,206449,206464,2023-07-10T17:00:51Z,206569.44,NULL,NA,NA,NA,NA,NA,NA,NA,NA,NA,NA,NA,NA,NA,NA,NA,NA,NA,NA,NA,NA,NA,NA,NA,NA,NA,NA,NA,NA,NA
f97ab,deep,flow.Sequence,3_0_0_0_0_0,NA,NA,skipped,NA,206569,NA,NA,206449,206569,2023-07-10T17:00:52Z,206569.44,NULL,Integrität,uadilifu,s,muungano,mtiririko,upunguaji,NA,sdf,NA,0,NA,NA,NA,NA,NA,NA,NA,NA,NA,NA,NA,NA,NA,NA,NA,NA,NA,NA,NA
f97ab,Shallow Question,html.Page,3_0_0_0_0_1_0,NA,NA,form submission,14958.56,206569,206569.1,206569.44,221528,221528,2023-07-10T17:01:07Z,221532.8,NULL,Integrität,uadilifu,s,muungano,mtiririko,upunguaji,muungano,NA,NA,0,NA,NA,NA,NA,NA,NA,NA,NA,NA,NA,NA,NA,NA,NA,NA,NA,NA,NA,NA
f97ab,"""Richtig""-Screen",canvas.Screen,3_0_0_0_0_1_1,NA,NA,skipped,NA,221529,NA,NA,221528,221529,2023-07-10T17:01:07Z,221532.8,NULL,Integrität,uadilifu,s,muungano,mtiririko,upunguaji,NA,sdf,NA,0,NA,NA,NA,NA,NA,NA,NA,NA,NA,NA,NA,NA,NA,NA,NA,NA,NA,NA,NA
f97ab,"""Falsch""-Screen",canvas.Screen,3_0_0_0_0_1_2,NA,NA,timeout,4999.48,221531,221525.72,221532.8,226515.62,226517,2023-07-10T17:01:12Z,226532.28,NULL,Integrität,uadilifu,s,muungano,mtiririko,upunguaji,NA,sdf,0,0,NA,NA,NA,NA,NA,NA,NA,NA,NA,NA,NA,NA,NA,NA,NA,NA,NA,NA,NA
f97ab,shallow,flow.Sequence,3_0_0_0_0_1,NA,NA,completion,19946.18,206569,206569.1,206569.44,226515.62,226518,2023-07-10T17:01:12Z,226532.28,NULL,Integrität,uadilifu,s,muungano,mtiririko,upunguaji,NA,sdf,NA,0,NA,NA,NA,NA,NA,NA,NA,NA,NA,NA,NA,NA,NA,NA,NA,NA,NA,NA,NA
f97ab,task,flow.Sequence,3_0_0_0_0,NA,NA,completion,19946.18,206569,206569.1,206569.44,226515.62,226519,2023-07-10T17:01:12Z,226532.28,NULL,Integrität,uadilifu,s,muungano,mtiririko,upunguaji,NA,sdf,NA,0,NA,NA,NA,NA,NA,NA,NA,NA,NA,NA,NA,NA,NA,NA,NA,NA,NA,NA,NA
f97ab,Deep Question,html.Page,3_0_0_0_1_0_0,NA,NA,form submission,5895.72,226519,226515.62,226532.28,232428,232429,2023-07-10T17:01:17Z,232431.38,NULL,Kultur,utamaduni,d,NA,NA,NA,kk,NA,NA,0,NA,NA,NA,NA,NA,NA,NA,NA,NA,NA,NA,NA,NA,NA,NA,NA,NA,NA,NA
f97ab,"""Richtig""-Screen",canvas.Screen,3_0_0_0_1_0_1,NA,NA,skipped,NA,232435,NA,NA,232428,232436,2023-07-10T17:01:17Z,232431.38,NULL,Kultur,utamaduni,d,NA,NA,NA,NA,sdf,NA,0,NA,NA,NA,NA,NA,NA,NA,NA,NA,NA,NA,NA,NA,NA,NA,NA,NA,NA,NA
f97ab,"""Falsch""-Screen",canvas.Screen,3_0_0_0_1_0_2,NA,NA,timeout,4999.48,232440,232422.88,232431.38,237414.2,237418,2023-07-10T17:01:22Z,237430.86,NULL,Kultur,utamaduni,d,NA,NA,NA,NA,sdf,0,0,NA,NA,NA,NA,NA,NA,NA,NA,NA,NA,NA,NA,NA,NA,NA,NA,NA,NA,NA
f97ab,deep,flow.Sequence,3_0_0_0_1_0,NA,NA,completion,10881.92,226519,226515.62,226532.28,237414.2,237422,2023-07-10T17:01:22Z,237430.86,NULL,Kultur,utamaduni,d,NA,NA,NA,NA,sdf,NA,0,NA,NA,NA,NA,NA,NA,NA,NA,NA,NA,NA,NA,NA,NA,NA,NA,NA,NA,NA
f97ab,shallow,flow.Sequence,3_0_0_0_1_1,NA,NA,skipped,NA,237423,NA,NA,237414.2,237424,2023-07-10T17:01:22Z,237430.86,NULL,Kultur,utamaduni,d,NA,NA,NA,NA,sdf,NA,0,NA,NA,NA,NA,NA,NA,NA,NA,NA,NA,NA,NA,NA,NA,NA,NA,NA,NA,NA
f97ab,task,flow.Sequence,3_0_0_0_1,NA,NA,completion,10881.92,226519,226515.62,226532.28,237414.2,237425,2023-07-10T17:01:22Z,237430.86,NULL,Kultur,utamaduni,d,NA,NA,NA,NA,sdf,NA,0,NA,NA,NA,NA,NA,NA,NA,NA,NA,NA,NA,NA,NA,NA,NA,NA,NA,NA,NA
f97ab,deep,flow.Sequence,3_0_0_0_2_0,NA,NA,skipped,NA,237426,NA,NA,237414.2,237426,2023-07-10T17:01:22Z,237430.86,NULL,Fleisch,mshakiki,s,kizunguzungu,mshikamano,angusho,NA,sdf,NA,0,NA,NA,NA,NA,NA,NA,NA,NA,NA,NA,NA,NA,NA,NA,NA,NA,NA,NA,NA
f97ab,Shallow Question,html.Page,3_0_0_0_2_1_0,NA,NA,form submission,10843.14,237426,237414.2,237430.86,248274,248278,2023-07-10T17:01:33Z,248296.12,NULL,Fleisch,mshakiki,s,kizunguzungu,mshikamano,angusho,angusho,NA,NA,0,NA,NA,NA,NA,NA,NA,NA,NA,NA,NA,NA,NA,NA,NA,NA,NA,NA,NA,NA
f97ab,"""Richtig""-Screen",canvas.Screen,3_0_0_0_2_1_1,NA,NA,skipped,NA,248292,NA,NA,248274,248293,2023-07-10T17:01:33Z,248296.12,NULL,Fleisch,mshakiki,s,kizunguzungu,mshikamano,angusho,NA,sdf,NA,0,NA,NA,NA,NA,NA,NA,NA,NA,NA,NA,NA,NA,NA,NA,NA,NA,NA,NA,NA
f97ab,"""Falsch""-Screen",canvas.Screen,3_0_0_0_2_1_2,NA,NA,timeout,4999.3,248297,248264.22,248296.12,253278.82,253280,2023-07-10T17:01:38Z,253295.42,NULL,Fleisch,mshakiki,s,kizunguzungu,mshikamano,angusho,NA,sdf,0,0,NA,NA,NA,NA,NA,NA,NA,NA,NA,NA,NA,NA,NA,NA,NA,NA,NA,NA,NA
f97ab,shallow,flow.Sequence,3_0_0_0_2_1,NA,NA,completion,15847.96,237426,237414.2,237430.86,253278.82,253281,2023-07-10T17:01:38Z,253295.42,NULL,Fleisch,mshakiki,s,kizunguzungu,mshikamano,angusho,NA,sdf,NA,0,NA,NA,NA,NA,NA,NA,NA,NA,NA,NA,NA,NA,NA,NA,NA,NA,NA,NA,NA
f97ab,task,flow.Sequence,3_0_0_0_2,NA,NA,completion,15847.96,237425,237414.2,237430.86,253278.82,253282,2023-07-10T17:01:38Z,253295.42,NULL,Fleisch,mshakiki,s,kizunguzungu,mshikamano,angusho,NA,sdf,NA,0,NA,NA,NA,NA,NA,NA,NA,NA,NA,NA,NA,NA,NA,NA,NA,NA,NA,NA,NA
f97ab,Deep Question,html.Page,3_0_0_0_3_0_0,NA,NA,form submission,6949.58,253284,253278.82,253295.42,260245,260245,2023-07-10T17:01:45Z,260261.08,NULL,Genehmigung,idhini,d,NA,NA,NA,iuoiu,NA,NA,0,NA,NA,NA,NA,NA,NA,NA,NA,NA,NA,NA,NA,NA,NA,NA,NA,NA,NA,NA
f97ab,"""Richtig""-Screen",canvas.Screen,3_0_0_0_3_0_1,NA,NA,skipped,NA,260252,NA,NA,260245,260252,2023-07-10T17:01:45Z,260261.08,NULL,Genehmigung,idhini,d,NA,NA,NA,NA,sdf,NA,0,NA,NA,NA,NA,NA,NA,NA,NA,NA,NA,NA,NA,NA,NA,NA,NA,NA,NA,NA
f97ab,"""Falsch""-Screen",canvas.Screen,3_0_0_0_3_0_2,NA,NA,timeout,4999.44,260258,260236.24,260261.08,265243.86,265246,2023-07-10T17:01:50Z,265260.52,NULL,Genehmigung,idhini,d,NA,NA,NA,NA,sdf,0,0,NA,NA,NA,NA,NA,NA,NA,NA,NA,NA,NA,NA,NA,NA,NA,NA,NA,NA,NA
f97ab,deep,flow.Sequence,3_0_0_0_3_0,NA,NA,completion,11948.44,253283,253278.82,253295.42,265243.86,265246,2023-07-10T17:01:50Z,265260.52,NULL,Genehmigung,idhini,d,NA,NA,NA,NA,sdf,NA,0,NA,NA,NA,NA,NA,NA,NA,NA,NA,NA,NA,NA,NA,NA,NA,NA,NA,NA,NA
f97ab,shallow,flow.Sequence,3_0_0_0_3_1,NA,NA,skipped,NA,265247,NA,NA,265243.86,265247,2023-07-10T17:01:50Z,265260.52,NULL,Genehmigung,idhini,d,NA,NA,NA,NA,sdf,NA,0,NA,NA,NA,NA,NA,NA,NA,NA,NA,NA,NA,NA,NA,NA,NA,NA,NA,NA,NA
f97ab,task,flow.Sequence,3_0_0_0_3,NA,NA,completion,11948.44,253283,253278.82,253295.42,265243.86,265248,2023-07-10T17:01:50Z,265260.52,NULL,Genehmigung,idhini,d,NA,NA,NA,NA,sdf,NA,0,NA,NA,NA,NA,NA,NA,NA,NA,NA,NA,NA,NA,NA,NA,NA,NA,NA,NA,NA
f97ab,deep,flow.Sequence,3_0_0_0_4_0,NA,NA,skipped,NA,265249,NA,NA,265243.86,265249,2023-07-10T17:01:50Z,265260.52,NULL,Prüfung,mtihani,s,mkulima,mtizamo,ufumbuzi,NA,sdf,NA,0,NA,NA,NA,NA,NA,NA,NA,NA,NA,NA,NA,NA,NA,NA,NA,NA,NA,NA,NA
f97ab,Shallow Question,html.Page,3_0_0_0_4_1_0,NA,NA,form submission,11846.48,265250,265243.86,265260.52,277107,277108,2023-07-10T17:02:02Z,277107.6,NULL,Prüfung,mtihani,s,mkulima,mtizamo,ufumbuzi,mtizamo,NA,NA,0,NA,NA,NA,NA,NA,NA,NA,NA,NA,NA,NA,NA,NA,NA,NA,NA,NA,NA,NA
f97ab,"""Richtig""-Screen",canvas.Screen,3_0_0_0_4_1_1,NA,NA,skipped,NA,277112,NA,NA,277107,277112,2023-07-10T17:02:02Z,277107.6,NULL,Prüfung,mtihani,s,mkulima,mtizamo,ufumbuzi,NA,sdf,NA,0,NA,NA,NA,NA,NA,NA,NA,NA,NA,NA,NA,NA,NA,NA,NA,NA,NA,NA,NA
f97ab,"""Falsch""-Screen",canvas.Screen,3_0_0_0_4_1_2,NA,NA,timeout,5000.78,277117,277102.98,277107.6,282091.72,282093,2023-07-10T17:02:07Z,282108.38,NULL,Prüfung,mtihani,s,mkulima,mtizamo,ufumbuzi,NA,sdf,0,0,NA,NA,NA,NA,NA,NA,NA,NA,NA,NA,NA,NA,NA,NA,NA,NA,NA,NA,NA
f97ab,shallow,flow.Sequence,3_0_0_0_4_1,NA,NA,completion,16831.2,265249,265243.86,265260.52,282091.72,282094,2023-07-10T17:02:07Z,282108.38,NULL,Prüfung,mtihani,s,mkulima,mtizamo,ufumbuzi,NA,sdf,NA,0,NA,NA,NA,NA,NA,NA,NA,NA,NA,NA,NA,NA,NA,NA,NA,NA,NA,NA,NA
f97ab,task,flow.Sequence,3_0_0_0_4,NA,NA,completion,16831.2,265248,265243.86,265260.52,282091.72,282094,2023-07-10T17:02:07Z,282108.38,NULL,Prüfung,mtihani,s,mkulima,mtizamo,ufumbuzi,NA,sdf,NA,0,NA,NA,NA,NA,NA,NA,NA,NA,NA,NA,NA,NA,NA,NA,NA,NA,NA,NA,NA
f97ab,deep,flow.Sequence,3_0_0_0_5_0,NA,NA,skipped,NA,282095,NA,NA,282091.72,282095,2023-07-10T17:02:07Z,282108.38,NULL,Aufstand,ugomaji,s,mazidio,msingi,kujieleza,NA,sdf,NA,0,NA,NA,NA,NA,NA,NA,NA,NA,NA,NA,NA,NA,NA,NA,NA,NA,NA,NA,NA
f97ab,Shallow Question,html.Page,3_0_0_0_5_1_0,NA,NA,form submission,11133.62,282095,282091.72,282108.38,293242,293242,2023-07-10T17:02:18Z,293240.34,NULL,Aufstand,ugomaji,s,mazidio,msingi,kujieleza,kujieleza,NA,NA,0,NA,NA,NA,NA,NA,NA,NA,NA,NA,NA,NA,NA,NA,NA,NA,NA,NA,NA,NA
f97ab,"""Richtig""-Screen",canvas.Screen,3_0_0_0_5_1_1,NA,NA,skipped,NA,293248,NA,NA,293242,293248,2023-07-10T17:02:18Z,293240.34,NULL,Aufstand,ugomaji,s,mazidio,msingi,kujieleza,NA,sdf,NA,0,NA,NA,NA,NA,NA,NA,NA,NA,NA,NA,NA,NA,NA,NA,NA,NA,NA,NA,NA
f97ab,"""Falsch""-Screen",canvas.Screen,3_0_0_0_5_1_2,NA,NA,timeout,4999.3,293253,293236.44,293240.34,298222.98,298224,2023-07-10T17:02:23Z,298239.64,NULL,Aufstand,ugomaji,s,mazidio,msingi,kujieleza,NA,sdf,0,0,NA,NA,NA,NA,NA,NA,NA,NA,NA,NA,NA,NA,NA,NA,NA,NA,NA,NA,NA
f97ab,shallow,flow.Sequence,3_0_0_0_5_1,NA,NA,completion,16114.6,282095,282091.72,282108.38,298222.98,298225,2023-07-10T17:02:23Z,298239.64,NULL,Aufstand,ugomaji,s,mazidio,msingi,kujieleza,NA,sdf,NA,0,NA,NA,NA,NA,NA,NA,NA,NA,NA,NA,NA,NA,NA,NA,NA,NA,NA,NA,NA
f97ab,task,flow.Sequence,3_0_0_0_5,NA,NA,completion,16114.6,282095,282091.72,282108.38,298222.98,298226,2023-07-10T17:02:23Z,298239.64,NULL,Aufstand,ugomaji,s,mazidio,msingi,kujieleza,NA,sdf,NA,0,NA,NA,NA,NA,NA,NA,NA,NA,NA,NA,NA,NA,NA,NA,NA,NA,NA,NA,NA
f97ab,Deep Question,html.Page,3_0_0_0_6_0_0,NA,NA,form submission,6972.36,298226,298222.98,298239.64,305212,305215,2023-07-10T17:02:30Z,305222,NULL,Begegnung,kukutana,d,NA,NA,NA,iouoi,NA,NA,0,NA,NA,NA,NA,NA,NA,NA,NA,NA,NA,NA,NA,NA,NA,NA,NA,NA,NA,NA
f97ab,"""Richtig""-Screen",canvas.Screen,3_0_0_0_6_0_1,NA,NA,skipped,NA,305225,NA,NA,305212,305225,2023-07-10T17:02:30Z,305222,NULL,Begegnung,kukutana,d,NA,NA,NA,NA,sdf,NA,0,NA,NA,NA,NA,NA,NA,NA,NA,NA,NA,NA,NA,NA,NA,NA,NA,NA,NA,NA
f97ab,"""Falsch""-Screen",canvas.Screen,3_0_0_0_6_0_2,NA,NA,timeout,4999.42,305229,305201.88,305222,310204.76,310207,2023-07-10T17:02:35Z,310221.42,NULL,Begegnung,kukutana,d,NA,NA,NA,NA,sdf,0,0,NA,NA,NA,NA,NA,NA,NA,NA,NA,NA,NA,NA,NA,NA,NA,NA,NA,NA,NA
f97ab,deep,flow.Sequence,3_0_0_0_6_0,NA,NA,completion,11965.12,298226,298222.98,298239.64,310204.76,310207,2023-07-10T17:02:35Z,310221.42,NULL,Begegnung,kukutana,d,NA,NA,NA,NA,sdf,NA,0,NA,NA,NA,NA,NA,NA,NA,NA,NA,NA,NA,NA,NA,NA,NA,NA,NA,NA,NA
f97ab,shallow,flow.Sequence,3_0_0_0_6_1,NA,NA,skipped,NA,310207,NA,NA,310204.76,310208,2023-07-10T17:02:35Z,310221.42,NULL,Begegnung,kukutana,d,NA,NA,NA,NA,sdf,NA,0,NA,NA,NA,NA,NA,NA,NA,NA,NA,NA,NA,NA,NA,NA,NA,NA,NA,NA,NA
f97ab,task,flow.Sequence,3_0_0_0_6,NA,NA,completion,11965.12,298226,298222.98,298239.64,310204.76,310208,2023-07-10T17:02:35Z,310221.42,NULL,Begegnung,kukutana,d,NA,NA,NA,NA,sdf,NA,0,NA,NA,NA,NA,NA,NA,NA,NA,NA,NA,NA,NA,NA,NA,NA,NA,NA,NA,NA
f97ab,Deep Question,html.Page,3_0_0_0_7_0_0,NA,NA,form submission,6733.58,310210,310204.76,310221.42,316955,316956,2023-07-10T17:02:42Z,316953.84,NULL,Verzögerung,kuchelewa,d,NA,NA,NA,jj,NA,NA,0,NA,NA,NA,NA,NA,NA,NA,NA,NA,NA,NA,NA,NA,NA,NA,NA,NA,NA,NA
f97ab,"""Richtig""-Screen",canvas.Screen,3_0_0_0_7_0_1,NA,NA,skipped,NA,316959,NA,NA,316955,316959,2023-07-10T17:02:42Z,316953.84,NULL,Verzögerung,kuchelewa,d,NA,NA,NA,NA,sdf,NA,0,NA,NA,NA,NA,NA,NA,NA,NA,NA,NA,NA,NA,NA,NA,NA,NA,NA,NA,NA
f97ab,"""Falsch""-Screen",canvas.Screen,3_0_0_0_7_0_2,NA,NA,timeout,4999.4,316964,316942.62,316953.84,321936.58,321939,2023-07-10T17:02:47Z,321953.24,NULL,Verzögerung,kuchelewa,d,NA,NA,NA,NA,sdf,0,0,NA,NA,NA,NA,NA,NA,NA,NA,NA,NA,NA,NA,NA,NA,NA,NA,NA,NA,NA
f97ab,deep,flow.Sequence,3_0_0_0_7_0,NA,NA,completion,11715.16,310210,310204.76,310221.42,321936.58,321939,2023-07-10T17:02:47Z,321953.24,NULL,Verzögerung,kuchelewa,d,NA,NA,NA,NA,sdf,NA,0,NA,NA,NA,NA,NA,NA,NA,NA,NA,NA,NA,NA,NA,NA,NA,NA,NA,NA,NA
f97ab,shallow,flow.Sequence,3_0_0_0_7_1,NA,NA,skipped,NA,321939,NA,NA,321936.58,321940,2023-07-10T17:02:47Z,321953.24,NULL,Verzögerung,kuchelewa,d,NA,NA,NA,NA,sdf,NA,0,NA,NA,NA,NA,NA,NA,NA,NA,NA,NA,NA,NA,NA,NA,NA,NA,NA,NA,NA
f97ab,task,flow.Sequence,3_0_0_0_7,NA,NA,completion,11715.16,310209,310204.76,310221.42,321936.58,321942,2023-07-10T17:02:47Z,321953.24,NULL,Verzögerung,kuchelewa,d,NA,NA,NA,NA,sdf,NA,0,NA,NA,NA,NA,NA,NA,NA,NA,NA,NA,NA,NA,NA,NA,NA,NA,NA,NA,NA
f97ab,block,flow.Loop,3_0_0_0,NA,NA,completion,115367.14,206569,206569.1,206569.44,321936.58,321942,2023-07-10T17:02:47Z,321953.24,NULL,NA,NA,NA,NA,NA,NA,NA,sdf,NA,0,NA,NA,NA,NA,NA,NA,NA,NA,NA,NA,NA,NA,NA,NA,NA,NA,NA,NA,NA
f97ab,weiter,canvas.Screen,3_0_0_1,sdf,keypress(Space),response,4120.76,321943,321936.58,321953.24,326074,326091,2023-07-10T17:02:51Z,326147.44,NULL,NA,NA,NA,NA,NA,NA,NA,sdf,NA,0,NA,NA,NA,NA,NA,NA,NA,NA,NA,NA,NA,NA,NA,NA,NA,NA,NA,NA,NA
f97ab,check continue,flow.Sequence,3_0_0,NA,NA,completion,119504.56,206569,206569.1,206569.44,326074,326092,2023-07-10T17:02:51Z,326147.44,NULL,NA,NA,NA,NA,NA,NA,NA,sdf,NA,0,NA,NA,NA,NA,NA,NA,NA,NA,NA,NA,NA,NA,NA,NA,NA,NA,NA,NA,NA
f97ab,deep,flow.Sequence,3_0_1_0_0_0,NA,NA,skipped,NA,326147,NA,NA,326074,326147,2023-07-10T17:02:51Z,326147.44,NULL,Aufstand,ugomaji,s,mazidio,msingi,kujieleza,NA,sdfdsf,NA,1,NA,NA,NA,NA,NA,NA,NA,NA,NA,NA,NA,NA,NA,NA,NA,NA,NA,NA,NA
f97ab,Shallow Question,html.Page,3_0_1_0_0_1_0,NA,NA,form submission,17336.56,326147,326147.12,326147.44,343484,343485,2023-07-10T17:03:08Z,343483.76,NULL,Aufstand,ugomaji,s,mazidio,msingi,kujieleza,msingi,NA,NA,1,NA,NA,NA,NA,NA,NA,NA,NA,NA,NA,NA,NA,NA,NA,NA,NA,NA,NA,NA
f97ab,"""Richtig""-Screen",canvas.Screen,3_0_1_0_0_1_1,NA,NA,skipped,NA,343491,NA,NA,343484,343492,2023-07-10T17:03:09Z,343483.76,NULL,Aufstand,ugomaji,s,mazidio,msingi,kujieleza,NA,sdfdsf,NA,1,NA,NA,NA,NA,NA,NA,NA,NA,NA,NA,NA,NA,NA,NA,NA,NA,NA,NA,NA
f97ab,"""Falsch""-Screen",canvas.Screen,3_0_1_0_0_1_2,NA,NA,timeout,4999.32,343497,343479.3,343483.76,348466.56,348468,2023-07-10T17:03:13Z,348483.08,NULL,Aufstand,ugomaji,s,mazidio,msingi,kujieleza,NA,sdfdsf,0,1,NA,NA,NA,NA,NA,NA,NA,NA,NA,NA,NA,NA,NA,NA,NA,NA,NA,NA,NA
f97ab,shallow,flow.Sequence,3_0_1_0_0_1,NA,NA,completion,22319.12,326147,326147.12,326147.44,348466.56,348468,2023-07-10T17:03:13Z,348483.08,NULL,Aufstand,ugomaji,s,mazidio,msingi,kujieleza,NA,sdfdsf,NA,1,NA,NA,NA,NA,NA,NA,NA,NA,NA,NA,NA,NA,NA,NA,NA,NA,NA,NA,NA
f97ab,task,flow.Sequence,3_0_1_0_0,NA,NA,completion,22319.12,326147,326147.12,326147.44,348466.56,348469,2023-07-10T17:03:13Z,348483.08,NULL,Aufstand,ugomaji,s,mazidio,msingi,kujieleza,NA,sdfdsf,NA,1,NA,NA,NA,NA,NA,NA,NA,NA,NA,NA,NA,NA,NA,NA,NA,NA,NA,NA,NA
f97ab,Deep Question,html.Page,3_0_1_0_1_0_0,NA,NA,form submission,7699.92,348469,348466.56,348483.08,356183,356184,2023-07-10T17:03:21Z,356181.34,NULL,Verzögerung,kuchelewa,d,NA,NA,NA,jkj,NA,NA,1,NA,NA,NA,NA,NA,NA,NA,NA,NA,NA,NA,NA,NA,NA,NA,NA,NA,NA,NA
f97ab,"""Richtig""-Screen",canvas.Screen,3_0_1_0_1_0_1,NA,NA,skipped,NA,356186,NA,NA,356183,356186,2023-07-10T17:03:21Z,356181.34,NULL,Verzögerung,kuchelewa,d,NA,NA,NA,NA,sdfdsf,NA,1,NA,NA,NA,NA,NA,NA,NA,NA,NA,NA,NA,NA,NA,NA,NA,NA,NA,NA,NA
f97ab,"""Falsch""-Screen",canvas.Screen,3_0_1_0_1_0_2,NA,NA,timeout,5000.18,356189,356180.54,356181.34,361164.86,361167,2023-07-10T17:03:26Z,361181.52,NULL,Verzögerung,kuchelewa,d,NA,NA,NA,NA,sdfdsf,0,1,NA,NA,NA,NA,NA,NA,NA,NA,NA,NA,NA,NA,NA,NA,NA,NA,NA,NA,NA
f97ab,deep,flow.Sequence,3_0_1_0_1_0,NA,NA,completion,12681.78,348469,348466.56,348483.08,361164.86,361167,2023-07-10T17:03:26Z,361181.52,NULL,Verzögerung,kuchelewa,d,NA,NA,NA,NA,sdfdsf,NA,1,NA,NA,NA,NA,NA,NA,NA,NA,NA,NA,NA,NA,NA,NA,NA,NA,NA,NA,NA
f97ab,shallow,flow.Sequence,3_0_1_0_1_1,NA,NA,skipped,NA,361167,NA,NA,361164.86,361168,2023-07-10T17:03:26Z,361181.52,NULL,Verzögerung,kuchelewa,d,NA,NA,NA,NA,sdfdsf,NA,1,NA,NA,NA,NA,NA,NA,NA,NA,NA,NA,NA,NA,NA,NA,NA,NA,NA,NA,NA
f97ab,task,flow.Sequence,3_0_1_0_1,NA,NA,completion,12681.78,348469,348466.56,348483.08,361164.86,361168,2023-07-10T17:03:26Z,361181.52,NULL,Verzögerung,kuchelewa,d,NA,NA,NA,NA,sdfdsf,NA,1,NA,NA,NA,NA,NA,NA,NA,NA,NA,NA,NA,NA,NA,NA,NA,NA,NA,NA,NA
f97ab,deep,flow.Sequence,3_0_1_0_2_0,NA,NA,skipped,NA,361168,NA,NA,361164.86,361169,2023-07-10T17:03:26Z,361181.52,NULL,Prüfung,mtihani,s,mkulima,mtizamo,ufumbuzi,NA,sdfdsf,NA,1,NA,NA,NA,NA,NA,NA,NA,NA,NA,NA,NA,NA,NA,NA,NA,NA,NA,NA,NA
f97ab,Shallow Question,html.Page,3_0_1_0_2_1_0,NA,NA,form submission,8690.48,361169,361164.86,361181.52,369872,369872,2023-07-10T17:03:35Z,369880.38,NULL,Prüfung,mtihani,s,mkulima,mtizamo,ufumbuzi,ufumbuzi,NA,NA,1,NA,NA,NA,NA,NA,NA,NA,NA,NA,NA,NA,NA,NA,NA,NA,NA,NA,NA,NA
f97ab,"""Richtig""-Screen",canvas.Screen,3_0_1_0_2_1_1,NA,NA,skipped,NA,369877,NA,NA,369872,369877,2023-07-10T17:03:35Z,369880.38,NULL,Prüfung,mtihani,s,mkulima,mtizamo,ufumbuzi,NA,sdfdsf,NA,1,NA,NA,NA,NA,NA,NA,NA,NA,NA,NA,NA,NA,NA,NA,NA,NA,NA,NA,NA
f97ab,"""Falsch""-Screen",canvas.Screen,3_0_1_0_2_1_2,NA,NA,timeout,4999.4,369881,369868.84,369880.38,374863.12,374864,2023-07-10T17:03:40Z,374879.78,NULL,Prüfung,mtihani,s,mkulima,mtizamo,ufumbuzi,NA,sdfdsf,0,1,NA,NA,NA,NA,NA,NA,NA,NA,NA,NA,NA,NA,NA,NA,NA,NA,NA,NA,NA
f97ab,shallow,flow.Sequence,3_0_1_0_2_1,NA,NA,completion,13681.6,361169,361164.86,361181.52,374863.12,374865,2023-07-10T17:03:40Z,374879.78,NULL,Prüfung,mtihani,s,mkulima,mtizamo,ufumbuzi,NA,sdfdsf,NA,1,NA,NA,NA,NA,NA,NA,NA,NA,NA,NA,NA,NA,NA,NA,NA,NA,NA,NA,NA
f97ab,task,flow.Sequence,3_0_1_0_2,NA,NA,completion,13681.6,361168,361164.86,361181.52,374863.12,374865,2023-07-10T17:03:40Z,374879.78,NULL,Prüfung,mtihani,s,mkulima,mtizamo,ufumbuzi,NA,sdfdsf,NA,1,NA,NA,NA,NA,NA,NA,NA,NA,NA,NA,NA,NA,NA,NA,NA,NA,NA,NA,NA
f97ab,Deep Question,html.Page,3_0_1_0_3_0_0,NA,NA,form submission,5972.22,374866,374863.12,374879.78,380852,380852,2023-07-10T17:03:46Z,380862.36,NULL,Begegnung,kukutana,d,NA,NA,NA,lkl,NA,NA,1,NA,NA,NA,NA,NA,NA,NA,NA,NA,NA,NA,NA,NA,NA,NA,NA,NA,NA,NA
f97ab,"""Richtig""-Screen",canvas.Screen,3_0_1_0_3_0_1,NA,NA,skipped,NA,380859,NA,NA,380852,380860,2023-07-10T17:03:46Z,380862.36,NULL,Begegnung,kukutana,d,NA,NA,NA,NA,sdfdsf,NA,1,NA,NA,NA,NA,NA,NA,NA,NA,NA,NA,NA,NA,NA,NA,NA,NA,NA,NA,NA
f97ab,"""Falsch""-Screen",canvas.Screen,3_0_1_0_3_0_2,NA,NA,timeout,4999.32,380864,380845.74,380862.36,385845.02,385846,2023-07-10T17:03:51Z,385861.68,NULL,Begegnung,kukutana,d,NA,NA,NA,NA,sdfdsf,0,1,NA,NA,NA,NA,NA,NA,NA,NA,NA,NA,NA,NA,NA,NA,NA,NA,NA,NA,NA
f97ab,deep,flow.Sequence,3_0_1_0_3_0,NA,NA,completion,10965.24,374866,374863.12,374879.78,385845.02,385847,2023-07-10T17:03:51Z,385861.68,NULL,Begegnung,kukutana,d,NA,NA,NA,NA,sdfdsf,NA,1,NA,NA,NA,NA,NA,NA,NA,NA,NA,NA,NA,NA,NA,NA,NA,NA,NA,NA,NA
f97ab,shallow,flow.Sequence,3_0_1_0_3_1,NA,NA,skipped,NA,385847,NA,NA,385845.02,385848,2023-07-10T17:03:51Z,385861.68,NULL,Begegnung,kukutana,d,NA,NA,NA,NA,sdfdsf,NA,1,NA,NA,NA,NA,NA,NA,NA,NA,NA,NA,NA,NA,NA,NA,NA,NA,NA,NA,NA
f97ab,task,flow.Sequence,3_0_1_0_3,NA,NA,completion,10965.24,374865,374863.12,374879.78,385845.02,385848,2023-07-10T17:03:51Z,385861.68,NULL,Begegnung,kukutana,d,NA,NA,NA,NA,sdfdsf,NA,1,NA,NA,NA,NA,NA,NA,NA,NA,NA,NA,NA,NA,NA,NA,NA,NA,NA,NA,NA
f97ab,deep,flow.Sequence,3_0_1_0_4_0,NA,NA,skipped,NA,385848,NA,NA,385845.02,385849,2023-07-10T17:03:51Z,385861.68,NULL,Fleisch,mshakiki,s,kizunguzungu,mshikamano,angusho,NA,sdfdsf,NA,1,NA,NA,NA,NA,NA,NA,NA,NA,NA,NA,NA,NA,NA,NA,NA,NA,NA,NA,NA
f97ab,Shallow Question,html.Page,3_0_1_0_4_1_0,NA,NA,form submission,8210.32,385849,385845.02,385861.68,394072,394072,2023-07-10T17:03:59Z,394077.2,NULL,Fleisch,mshakiki,s,kizunguzungu,mshikamano,angusho,mshakiki,NA,NA,1,NA,NA,NA,NA,NA,NA,NA,NA,NA,NA,NA,NA,NA,NA,NA,NA,NA,NA,NA
f97ab,"""Richtig""-Screen",canvas.Screen,3_0_1_0_4_1_1,NA,NA,timeout,4999.42,394078,394067.6,394077.2,399059.96,399061,2023-07-10T17:04:04Z,399076.62,NULL,Fleisch,mshakiki,s,kizunguzungu,mshikamano,angusho,NA,sdfdsf,1,1,NA,NA,NA,NA,NA,NA,NA,NA,NA,NA,NA,NA,NA,NA,NA,NA,NA,NA,NA
f97ab,"""Falsch""-Screen",canvas.Screen,3_0_1_0_4_1_2,NA,NA,skipped,NA,399067,NA,NA,399059.96,399068,2023-07-10T17:04:04Z,399076.62,NULL,Fleisch,mshakiki,s,kizunguzungu,mshikamano,angusho,NA,sdfdsf,NA,1,NA,NA,NA,NA,NA,NA,NA,NA,NA,NA,NA,NA,NA,NA,NA,NA,NA,NA,NA
f97ab,shallow,flow.Sequence,3_0_1_0_4_1,NA,NA,completion,13198.28,385849,385845.02,385861.68,399059.96,399068,2023-07-10T17:04:04Z,399076.62,NULL,Fleisch,mshakiki,s,kizunguzungu,mshikamano,angusho,NA,sdfdsf,NA,1,NA,NA,NA,NA,NA,NA,NA,NA,NA,NA,NA,NA,NA,NA,NA,NA,NA,NA,NA
f97ab,task,flow.Sequence,3_0_1_0_4,NA,NA,completion,13198.28,385848,385845.02,385861.68,399059.96,399069,2023-07-10T17:04:04Z,399076.62,NULL,Fleisch,mshakiki,s,kizunguzungu,mshikamano,angusho,NA,sdfdsf,NA,1,NA,NA,NA,NA,NA,NA,NA,NA,NA,NA,NA,NA,NA,NA,NA,NA,NA,NA,NA
f97ab,Deep Question,html.Page,3_0_1_0_5_0_0,NA,NA,form submission,4809.38,399069,399059.96,399076.62,403886,403886,2023-07-10T17:04:09Z,403894.76,NULL,Kultur,utamaduni,d,NA,NA,NA,kkk,NA,NA,1,NA,NA,NA,NA,NA,NA,NA,NA,NA,NA,NA,NA,NA,NA,NA,NA,NA,NA,NA
f97ab,"""Richtig""-Screen",canvas.Screen,3_0_1_0_5_0_1,NA,NA,skipped,NA,403891,NA,NA,403886,403892,2023-07-10T17:04:09Z,403894.76,NULL,Kultur,utamaduni,d,NA,NA,NA,NA,sdfdsf,NA,1,NA,NA,NA,NA,NA,NA,NA,NA,NA,NA,NA,NA,NA,NA,NA,NA,NA,NA,NA
f97ab,"""Falsch""-Screen",canvas.Screen,3_0_1_0_5_0_2,NA,NA,timeout,4997.2,403896,403880.8,403894.76,408875.38,408882,2023-07-10T17:04:14Z,408891.96,NULL,Kultur,utamaduni,d,NA,NA,NA,NA,sdfdsf,0,1,NA,NA,NA,NA,NA,NA,NA,NA,NA,NA,NA,NA,NA,NA,NA,NA,NA,NA,NA
f97ab,deep,flow.Sequence,3_0_1_0_5_0,NA,NA,completion,9798.76,399069,399059.96,399076.62,408875.38,408884,2023-07-10T17:04:14Z,408891.96,NULL,Kultur,utamaduni,d,NA,NA,NA,NA,sdfdsf,NA,1,NA,NA,NA,NA,NA,NA,NA,NA,NA,NA,NA,NA,NA,NA,NA,NA,NA,NA,NA
f97ab,shallow,flow.Sequence,3_0_1_0_5_1,NA,NA,skipped,NA,408884,NA,NA,408875.38,408885,2023-07-10T17:04:14Z,408891.96,NULL,Kultur,utamaduni,d,NA,NA,NA,NA,sdfdsf,NA,1,NA,NA,NA,NA,NA,NA,NA,NA,NA,NA,NA,NA,NA,NA,NA,NA,NA,NA,NA
f97ab,task,flow.Sequence,3_0_1_0_5,NA,NA,completion,9798.76,399069,399059.96,399076.62,408875.38,408885,2023-07-10T17:04:14Z,408891.96,NULL,Kultur,utamaduni,d,NA,NA,NA,NA,sdfdsf,NA,1,NA,NA,NA,NA,NA,NA,NA,NA,NA,NA,NA,NA,NA,NA,NA,NA,NA,NA,NA
f97ab,Deep Question,html.Page,3_0_1_0_6_0_0,NA,NA,form submission,7909.04,408885,408875.38,408891.96,416801,416801,2023-07-10T17:04:22Z,416807.38,NULL,Genehmigung,idhini,d,NA,NA,NA,jj,NA,NA,1,NA,NA,NA,NA,NA,NA,NA,NA,NA,NA,NA,NA,NA,NA,NA,NA,NA,NA,NA
f97ab,"""Richtig""-Screen",canvas.Screen,3_0_1_0_6_0_1,NA,NA,skipped,NA,416806,NA,NA,416801,416806,2023-07-10T17:04:22Z,416807.38,NULL,Genehmigung,idhini,d,NA,NA,NA,NA,sdfdsf,NA,1,NA,NA,NA,NA,NA,NA,NA,NA,NA,NA,NA,NA,NA,NA,NA,NA,NA,NA,NA
f97ab,"""Falsch""-Screen",canvas.Screen,3_0_1_0_6_0_2,NA,NA,timeout,4999.62,416808,416797.96,416807.38,421790.38,421792,2023-07-10T17:04:27Z,421807,NULL,Genehmigung,idhini,d,NA,NA,NA,NA,sdfdsf,0,1,NA,NA,NA,NA,NA,NA,NA,NA,NA,NA,NA,NA,NA,NA,NA,NA,NA,NA,NA
f97ab,deep,flow.Sequence,3_0_1_0_6_0,NA,NA,completion,12898.42,408885,408875.38,408891.96,421790.38,421793,2023-07-10T17:04:27Z,421807,NULL,Genehmigung,idhini,d,NA,NA,NA,NA,sdfdsf,NA,1,NA,NA,NA,NA,NA,NA,NA,NA,NA,NA,NA,NA,NA,NA,NA,NA,NA,NA,NA
f97ab,shallow,flow.Sequence,3_0_1_0_6_1,NA,NA,skipped,NA,421793,NA,NA,421790.38,421793,2023-07-10T17:04:27Z,421807,NULL,Genehmigung,idhini,d,NA,NA,NA,NA,sdfdsf,NA,1,NA,NA,NA,NA,NA,NA,NA,NA,NA,NA,NA,NA,NA,NA,NA,NA,NA,NA,NA
f97ab,task,flow.Sequence,3_0_1_0_6,NA,NA,completion,12898.42,408885,408875.38,408891.96,421790.38,421793,2023-07-10T17:04:27Z,421807,NULL,Genehmigung,idhini,d,NA,NA,NA,NA,sdfdsf,NA,1,NA,NA,NA,NA,NA,NA,NA,NA,NA,NA,NA,NA,NA,NA,NA,NA,NA,NA,NA
f97ab,deep,flow.Sequence,3_0_1_0_7_0,NA,NA,skipped,NA,421794,NA,NA,421790.38,421794,2023-07-10T17:04:27Z,421807,NULL,Integrität,uadilifu,s,muungano,mtiririko,upunguaji,NA,sdfdsf,NA,1,NA,NA,NA,NA,NA,NA,NA,NA,NA,NA,NA,NA,NA,NA,NA,NA,NA,NA,NA
f97ab,Shallow Question,html.Page,3_0_1_0_7_1_0,NA,NA,form submission,8503,421794,421790.38,421807,430310,430310,2023-07-10T17:04:35Z,430322.62,NULL,Integrität,uadilifu,s,muungano,mtiririko,upunguaji,uadilifu,NA,NA,1,NA,NA,NA,NA,NA,NA,NA,NA,NA,NA,NA,NA,NA,NA,NA,NA,NA,NA,NA
f97ab,"""Richtig""-Screen",canvas.Screen,3_0_1_0_7_1_1,NA,NA,timeout,4999.28,430317,430303.18,430322.62,435305.24,435306,2023-07-10T17:04:40Z,435321.9,NULL,Integrität,uadilifu,s,muungano,mtiririko,upunguaji,NA,sdfdsf,1,1,NA,NA,NA,NA,NA,NA,NA,NA,NA,NA,NA,NA,NA,NA,NA,NA,NA,NA,NA
f97ab,"""Falsch""-Screen",canvas.Screen,3_0_1_0_7_1_2,NA,NA,skipped,NA,435309,NA,NA,435305.24,435309,2023-07-10T17:04:40Z,435321.9,NULL,Integrität,uadilifu,s,muungano,mtiririko,upunguaji,NA,sdfdsf,NA,1,NA,NA,NA,NA,NA,NA,NA,NA,NA,NA,NA,NA,NA,NA,NA,NA,NA,NA,NA
f97ab,shallow,flow.Sequence,3_0_1_0_7_1,NA,NA,completion,13498.24,421794,421790.38,421807,435305.24,435310,2023-07-10T17:04:40Z,435321.9,NULL,Integrität,uadilifu,s,muungano,mtiririko,upunguaji,NA,sdfdsf,NA,1,NA,NA,NA,NA,NA,NA,NA,NA,NA,NA,NA,NA,NA,NA,NA,NA,NA,NA,NA
f97ab,task,flow.Sequence,3_0_1_0_7,NA,NA,completion,13498.24,421794,421790.38,421807,435305.24,435310,2023-07-10T17:04:40Z,435321.9,NULL,Integrität,uadilifu,s,muungano,mtiririko,upunguaji,NA,sdfdsf,NA,1,NA,NA,NA,NA,NA,NA,NA,NA,NA,NA,NA,NA,NA,NA,NA,NA,NA,NA,NA
f97ab,block,flow.Loop,3_0_1_0,NA,NA,completion,109157.8,326147,326147.12,326147.44,435305.24,435310,2023-07-10T17:04:40Z,435321.9,NULL,NA,NA,NA,NA,NA,NA,NA,sdfdsf,NA,1,NA,NA,NA,NA,NA,NA,NA,NA,NA,NA,NA,NA,NA,NA,NA,NA,NA,NA,NA
f97ab,weiter,canvas.Screen,3_0_1_1,sdf,keypress(Space),response,1565.1,435310,435305.24,435321.9,436887,436903,2023-07-10T17:04:42Z,436963.02,NULL,NA,NA,NA,NA,NA,NA,NA,sdfdsf,NA,1,NA,NA,NA,NA,NA,NA,NA,NA,NA,NA,NA,NA,NA,NA,NA,NA,NA,NA,NA
f97ab,check continue,flow.Sequence,3_0_1,NA,NA,completion,110739.56,326147,326147.12,326147.44,436887,436904,2023-07-10T17:04:42Z,436963.02,NULL,NA,NA,NA,NA,NA,NA,NA,sdfdsf,NA,1,NA,NA,NA,NA,NA,NA,NA,NA,NA,NA,NA,NA,NA,NA,NA,NA,NA,NA,NA
f97ab,deep,flow.Sequence,3_0_2_0_0_0,NA,NA,skipped,NA,436962,NA,NA,436887,436962,2023-07-10T17:04:42Z,436963.02,NULL,Prüfung,mtihani,s,mkulima,mtizamo,ufumbuzi,NA,sdf,NA,2,NA,NA,NA,NA,NA,NA,NA,NA,NA,NA,NA,NA,NA,NA,NA,NA,NA,NA,NA
f97ab,Shallow Question,html.Page,3_0_2_0_0_1_0,NA,NA,form submission,7417.98,436962,436962.68,436963.02,444381,444381,2023-07-10T17:04:49Z,444387.4,NULL,Prüfung,mtihani,s,mkulima,mtizamo,ufumbuzi,mtihani,NA,NA,2,NA,NA,NA,NA,NA,NA,NA,NA,NA,NA,NA,NA,NA,NA,NA,NA,NA,NA,NA
f97ab,"""Richtig""-Screen",canvas.Screen,3_0_2_0_0_1_1,NA,NA,timeout,4999.4,444385,444378.18,444387.4,449370.14,449372,2023-07-10T17:04:54Z,449386.8,NULL,Prüfung,mtihani,s,mkulima,mtizamo,ufumbuzi,NA,sdf,1,2,NA,NA,NA,NA,NA,NA,NA,NA,NA,NA,NA,NA,NA,NA,NA,NA,NA,NA,NA
f97ab,"""Falsch""-Screen",canvas.Screen,3_0_2_0_0_1_2,NA,NA,skipped,NA,449378,NA,NA,449370.14,449378,2023-07-10T17:04:54Z,449386.8,NULL,Prüfung,mtihani,s,mkulima,mtizamo,ufumbuzi,NA,sdf,NA,2,NA,NA,NA,NA,NA,NA,NA,NA,NA,NA,NA,NA,NA,NA,NA,NA,NA,NA,NA
f97ab,shallow,flow.Sequence,3_0_2_0_0_1,NA,NA,completion,12407.12,436962,436962.68,436963.02,449370.14,449379,2023-07-10T17:04:54Z,449386.8,NULL,Prüfung,mtihani,s,mkulima,mtizamo,ufumbuzi,NA,sdf,NA,2,NA,NA,NA,NA,NA,NA,NA,NA,NA,NA,NA,NA,NA,NA,NA,NA,NA,NA,NA
f97ab,task,flow.Sequence,3_0_2_0_0,NA,NA,completion,12407.12,436962,436962.68,436963.02,449370.14,449379,2023-07-10T17:04:54Z,449386.8,NULL,Prüfung,mtihani,s,mkulima,mtizamo,ufumbuzi,NA,sdf,NA,2,NA,NA,NA,NA,NA,NA,NA,NA,NA,NA,NA,NA,NA,NA,NA,NA,NA,NA,NA
f97ab,deep,flow.Sequence,3_0_2_0_1_0,NA,NA,skipped,NA,449380,NA,NA,449370.14,449380,2023-07-10T17:04:54Z,449386.8,NULL,Fleisch,mshakiki,s,kizunguzungu,mshikamano,angusho,NA,sdf,NA,2,NA,NA,NA,NA,NA,NA,NA,NA,NA,NA,NA,NA,NA,NA,NA,NA,NA,NA,NA
f97ab,Shallow Question,html.Page,3_0_2_0_1_1_0,NA,NA,form submission,6318.2,449380,449370.14,449386.8,455705,455706,2023-07-10T17:05:01Z,455702.64,NULL,Fleisch,mshakiki,s,kizunguzungu,mshikamano,angusho,mshakiki,NA,NA,2,NA,NA,NA,NA,NA,NA,NA,NA,NA,NA,NA,NA,NA,NA,NA,NA,NA,NA,NA
f97ab,"""Richtig""-Screen",canvas.Screen,3_0_2_0_1_1_1,NA,NA,timeout,4999.4,455711,455698.74,455702.64,460685.4,460687,2023-07-10T17:05:06Z,460702.04,NULL,Fleisch,mshakiki,s,kizunguzungu,mshikamano,angusho,NA,sdf,1,2,NA,NA,NA,NA,NA,NA,NA,NA,NA,NA,NA,NA,NA,NA,NA,NA,NA,NA,NA
f97ab,"""Falsch""-Screen",canvas.Screen,3_0_2_0_1_1_2,NA,NA,skipped,NA,460693,NA,NA,460685.4,460693,2023-07-10T17:05:06Z,460702.04,NULL,Fleisch,mshakiki,s,kizunguzungu,mshikamano,angusho,NA,sdf,NA,2,NA,NA,NA,NA,NA,NA,NA,NA,NA,NA,NA,NA,NA,NA,NA,NA,NA,NA,NA
f97ab,shallow,flow.Sequence,3_0_2_0_1_1,NA,NA,completion,11298.6,449380,449370.14,449386.8,460685.4,460694,2023-07-10T17:05:06Z,460702.04,NULL,Fleisch,mshakiki,s,kizunguzungu,mshikamano,angusho,NA,sdf,NA,2,NA,NA,NA,NA,NA,NA,NA,NA,NA,NA,NA,NA,NA,NA,NA,NA,NA,NA,NA
f97ab,task,flow.Sequence,3_0_2_0_1,NA,NA,completion,11298.6,449380,449370.14,449386.8,460685.4,460694,2023-07-10T17:05:06Z,460702.04,NULL,Fleisch,mshakiki,s,kizunguzungu,mshikamano,angusho,NA,sdf,NA,2,NA,NA,NA,NA,NA,NA,NA,NA,NA,NA,NA,NA,NA,NA,NA,NA,NA,NA,NA
f97ab,deep,flow.Sequence,3_0_2_0_2_0,NA,NA,skipped,NA,460695,NA,NA,460685.4,460695,2023-07-10T17:05:06Z,460702.04,NULL,Integrität,uadilifu,s,muungano,mtiririko,upunguaji,NA,sdf,NA,2,NA,NA,NA,NA,NA,NA,NA,NA,NA,NA,NA,NA,NA,NA,NA,NA,NA,NA,NA
f97ab,Shallow Question,html.Page,3_0_2_0_2_1_0,NA,NA,form submission,9410.96,460695,460685.4,460702.04,470113,470117,2023-07-10T17:05:15Z,470117.44,NULL,Integrität,uadilifu,s,muungano,mtiririko,upunguaji,uadilifu,NA,NA,2,NA,NA,NA,NA,NA,NA,NA,NA,NA,NA,NA,NA,NA,NA,NA,NA,NA,NA,NA
f97ab,"""Richtig""-Screen",canvas.Screen,3_0_2_0_2_1_1,NA,NA,timeout,4999.38,470125,470104.02,470117.44,475100.16,475102,2023-07-10T17:05:20Z,475116.82,NULL,Integrität,uadilifu,s,muungano,mtiririko,upunguaji,NA,sdf,1,2,NA,NA,NA,NA,NA,NA,NA,NA,NA,NA,NA,NA,NA,NA,NA,NA,NA,NA,NA
f97ab,"""Falsch""-Screen",canvas.Screen,3_0_2_0_2_1_2,NA,NA,skipped,NA,475109,NA,NA,475100.16,475109,2023-07-10T17:05:20Z,475116.82,NULL,Integrität,uadilifu,s,muungano,mtiririko,upunguaji,NA,sdf,NA,2,NA,NA,NA,NA,NA,NA,NA,NA,NA,NA,NA,NA,NA,NA,NA,NA,NA,NA,NA
f97ab,shallow,flow.Sequence,3_0_2_0_2_1,NA,NA,completion,14398.12,460695,460685.4,460702.04,475100.16,475111,2023-07-10T17:05:20Z,475116.82,NULL,Integrität,uadilifu,s,muungano,mtiririko,upunguaji,NA,sdf,NA,2,NA,NA,NA,NA,NA,NA,NA,NA,NA,NA,NA,NA,NA,NA,NA,NA,NA,NA,NA
f97ab,task,flow.Sequence,3_0_2_0_2,NA,NA,completion,14398.12,460695,460685.4,460702.04,475100.16,475111,2023-07-10T17:05:20Z,475116.82,NULL,Integrität,uadilifu,s,muungano,mtiririko,upunguaji,NA,sdf,NA,2,NA,NA,NA,NA,NA,NA,NA,NA,NA,NA,NA,NA,NA,NA,NA,NA,NA,NA,NA
f97ab,Deep Question,html.Page,3_0_2_0_3_0_0,NA,NA,form submission,10362.18,475112,475100.16,475116.82,485479,485479,2023-07-10T17:05:30Z,485482.04,NULL,Genehmigung,idhini,d,NA,NA,NA,nhatana,NA,NA,2,NA,NA,NA,NA,NA,NA,NA,NA,NA,NA,NA,NA,NA,NA,NA,NA,NA,NA,NA
f97ab,"""Richtig""-Screen",canvas.Screen,3_0_2_0_3_0_1,NA,NA,skipped,NA,485485,NA,NA,485479,485486,2023-07-10T17:05:30Z,485482.04,NULL,Genehmigung,idhini,d,NA,NA,NA,NA,sdf,NA,2,NA,NA,NA,NA,NA,NA,NA,NA,NA,NA,NA,NA,NA,NA,NA,NA,NA,NA,NA
f97ab,"""Falsch""-Screen",canvas.Screen,3_0_2_0_3_0_2,NA,NA,timeout,4999.52,485490,485469.44,485482.04,490464.9,490466,2023-07-10T17:05:35Z,490481.56,NULL,Genehmigung,idhini,d,NA,NA,NA,NA,sdf,0,2,NA,NA,NA,NA,NA,NA,NA,NA,NA,NA,NA,NA,NA,NA,NA,NA,NA,NA,NA
f97ab,deep,flow.Sequence,3_0_2_0_3_0,NA,NA,completion,15348.08,475112,475100.16,475116.82,490464.9,490467,2023-07-10T17:05:35Z,490481.56,NULL,Genehmigung,idhini,d,NA,NA,NA,NA,sdf,NA,2,NA,NA,NA,NA,NA,NA,NA,NA,NA,NA,NA,NA,NA,NA,NA,NA,NA,NA,NA
f97ab,shallow,flow.Sequence,3_0_2_0_3_1,NA,NA,skipped,NA,490468,NA,NA,490464.9,490468,2023-07-10T17:05:35Z,490481.56,NULL,Genehmigung,idhini,d,NA,NA,NA,NA,sdf,NA,2,NA,NA,NA,NA,NA,NA,NA,NA,NA,NA,NA,NA,NA,NA,NA,NA,NA,NA,NA
f97ab,task,flow.Sequence,3_0_2_0_3,NA,NA,completion,15348.08,475112,475100.16,475116.82,490464.9,490469,2023-07-10T17:05:35Z,490481.56,NULL,Genehmigung,idhini,d,NA,NA,NA,NA,sdf,NA,2,NA,NA,NA,NA,NA,NA,NA,NA,NA,NA,NA,NA,NA,NA,NA,NA,NA,NA,NA
f97ab,Deep Question,html.Page,3_0_2_0_4_0_0,NA,NA,form submission,7623.44,490470,490464.9,490481.56,498105,498106,2023-07-10T17:05:43Z,498113.76,NULL,Begegnung,kukutana,d,NA,NA,NA,utumaku,NA,NA,2,NA,NA,NA,NA,NA,NA,NA,NA,NA,NA,NA,NA,NA,NA,NA,NA,NA,NA,NA
f97ab,"""Richtig""-Screen",canvas.Screen,3_0_2_0_4_0_1,NA,NA,skipped,NA,498109,NA,NA,498105,498109,2023-07-10T17:05:43Z,498113.76,NULL,Begegnung,kukutana,d,NA,NA,NA,NA,sdf,NA,2,NA,NA,NA,NA,NA,NA,NA,NA,NA,NA,NA,NA,NA,NA,NA,NA,NA,NA,NA
f97ab,"""Falsch""-Screen",canvas.Screen,3_0_2_0_4_0_2,NA,NA,timeout,4999.44,498114,498099,498113.76,503096.56,503098,2023-07-10T17:05:48Z,503113.2,NULL,Begegnung,kukutana,d,NA,NA,NA,NA,sdf,0,2,NA,NA,NA,NA,NA,NA,NA,NA,NA,NA,NA,NA,NA,NA,NA,NA,NA,NA,NA
f97ab,deep,flow.Sequence,3_0_2_0_4_0,NA,NA,completion,12615,490470,490464.9,490481.56,503096.56,503099,2023-07-10T17:05:48Z,503113.2,NULL,Begegnung,kukutana,d,NA,NA,NA,NA,sdf,NA,2,NA,NA,NA,NA,NA,NA,NA,NA,NA,NA,NA,NA,NA,NA,NA,NA,NA,NA,NA
f97ab,shallow,flow.Sequence,3_0_2_0_4_1,NA,NA,skipped,NA,503099,NA,NA,503096.56,503099,2023-07-10T17:05:48Z,503113.2,NULL,Begegnung,kukutana,d,NA,NA,NA,NA,sdf,NA,2,NA,NA,NA,NA,NA,NA,NA,NA,NA,NA,NA,NA,NA,NA,NA,NA,NA,NA,NA
f97ab,task,flow.Sequence,3_0_2_0_4,NA,NA,completion,12615,490470,490464.9,490481.56,503096.56,503100,2023-07-10T17:05:48Z,503113.2,NULL,Begegnung,kukutana,d,NA,NA,NA,NA,sdf,NA,2,NA,NA,NA,NA,NA,NA,NA,NA,NA,NA,NA,NA,NA,NA,NA,NA,NA,NA,NA
f97ab,Deep Question,html.Page,3_0_2_0_5_0_0,NA,NA,form submission,3896.8,503100,503096.56,503113.2,507010,507011,2023-07-10T17:05:52Z,507012.62,NULL,Verzögerung,kuchelewa,d,NA,NA,NA,kk,NA,NA,2,NA,NA,NA,NA,NA,NA,NA,NA,NA,NA,NA,NA,NA,NA,NA,NA,NA,NA,NA
f97ab,"""Richtig""-Screen",canvas.Screen,3_0_2_0_5_0_1,NA,NA,skipped,NA,507018,NA,NA,507010,507018,2023-07-10T17:05:52Z,507012.62,NULL,Verzögerung,kuchelewa,d,NA,NA,NA,NA,sdf,NA,2,NA,NA,NA,NA,NA,NA,NA,NA,NA,NA,NA,NA,NA,NA,NA,NA,NA,NA,NA
f97ab,"""Falsch""-Screen",canvas.Screen,3_0_2_0_5_0_2,NA,NA,timeout,4999.46,507022,507005.78,507012.62,511995.44,511997,2023-07-10T17:05:57Z,512012.08,NULL,Verzögerung,kuchelewa,d,NA,NA,NA,NA,sdf,0,2,NA,NA,NA,NA,NA,NA,NA,NA,NA,NA,NA,NA,NA,NA,NA,NA,NA,NA,NA
f97ab,deep,flow.Sequence,3_0_2_0_5_0,NA,NA,completion,8882.24,503100,503096.56,503113.2,511995.44,511997,2023-07-10T17:05:57Z,512012.08,NULL,Verzögerung,kuchelewa,d,NA,NA,NA,NA,sdf,NA,2,NA,NA,NA,NA,NA,NA,NA,NA,NA,NA,NA,NA,NA,NA,NA,NA,NA,NA,NA
f97ab,shallow,flow.Sequence,3_0_2_0_5_1,NA,NA,skipped,NA,511997,NA,NA,511995.44,511998,2023-07-10T17:05:57Z,512012.08,NULL,Verzögerung,kuchelewa,d,NA,NA,NA,NA,sdf,NA,2,NA,NA,NA,NA,NA,NA,NA,NA,NA,NA,NA,NA,NA,NA,NA,NA,NA,NA,NA
f97ab,task,flow.Sequence,3_0_2_0_5,NA,NA,completion,8882.24,503100,503096.56,503113.2,511995.44,511998,2023-07-10T17:05:57Z,512012.08,NULL,Verzögerung,kuchelewa,d,NA,NA,NA,NA,sdf,NA,2,NA,NA,NA,NA,NA,NA,NA,NA,NA,NA,NA,NA,NA,NA,NA,NA,NA,NA,NA
f97ab,Deep Question,html.Page,3_0_2_0_6_0_0,NA,NA,form submission,6927.92,511999,511995.44,512012.08,518940,518941,2023-07-10T17:06:04Z,518944.44,NULL,Kultur,utamaduni,d,NA,NA,NA,mi,NA,NA,2,NA,NA,NA,NA,NA,NA,NA,NA,NA,NA,NA,NA,NA,NA,NA,NA,NA,NA,NA
f97ab,"""Richtig""-Screen",canvas.Screen,3_0_2_0_6_0_1,NA,NA,skipped,NA,518943,NA,NA,518940,518943,2023-07-10T17:06:04Z,518944.44,NULL,Kultur,utamaduni,d,NA,NA,NA,NA,sdf,NA,2,NA,NA,NA,NA,NA,NA,NA,NA,NA,NA,NA,NA,NA,NA,NA,NA,NA,NA,NA
f97ab,"""Falsch""-Screen",canvas.Screen,3_0_2_0_6_0_2,NA,NA,timeout,4999.44,518947,518935.08,518944.44,523927.22,523929,2023-07-10T17:06:09Z,523943.88,NULL,Kultur,utamaduni,d,NA,NA,NA,NA,sdf,0,2,NA,NA,NA,NA,NA,NA,NA,NA,NA,NA,NA,NA,NA,NA,NA,NA,NA,NA,NA
f97ab,deep,flow.Sequence,3_0_2_0_6_0,NA,NA,completion,11915.14,511999,511995.44,512012.08,523927.22,523930,2023-07-10T17:06:09Z,523943.88,NULL,Kultur,utamaduni,d,NA,NA,NA,NA,sdf,NA,2,NA,NA,NA,NA,NA,NA,NA,NA,NA,NA,NA,NA,NA,NA,NA,NA,NA,NA,NA
f97ab,shallow,flow.Sequence,3_0_2_0_6_1,NA,NA,skipped,NA,523930,NA,NA,523927.22,523930,2023-07-10T17:06:09Z,523943.88,NULL,Kultur,utamaduni,d,NA,NA,NA,NA,sdf,NA,2,NA,NA,NA,NA,NA,NA,NA,NA,NA,NA,NA,NA,NA,NA,NA,NA,NA,NA,NA
f97ab,task,flow.Sequence,3_0_2_0_6,NA,NA,completion,11915.14,511999,511995.44,512012.08,523927.22,523931,2023-07-10T17:06:09Z,523943.88,NULL,Kultur,utamaduni,d,NA,NA,NA,NA,sdf,NA,2,NA,NA,NA,NA,NA,NA,NA,NA,NA,NA,NA,NA,NA,NA,NA,NA,NA,NA,NA
f97ab,deep,flow.Sequence,3_0_2_0_7_0,NA,NA,skipped,NA,523931,NA,NA,523927.22,523931,2023-07-10T17:06:09Z,523943.88,NULL,Aufstand,ugomaji,s,mazidio,msingi,kujieleza,NA,sdf,NA,2,NA,NA,NA,NA,NA,NA,NA,NA,NA,NA,NA,NA,NA,NA,NA,NA,NA,NA,NA
f97ab,Shallow Question,html.Page,3_0_2_0_7_1_0,NA,NA,form submission,11969.12,523932,523927.22,523943.88,535913,535913,2023-07-10T17:06:21Z,535925.6,NULL,Aufstand,ugomaji,s,mazidio,msingi,kujieleza,ugomaji,NA,NA,2,NA,NA,NA,NA,NA,NA,NA,NA,NA,NA,NA,NA,NA,NA,NA,NA,NA,NA,NA
f97ab,"""Richtig""-Screen",canvas.Screen,3_0_2_0_7_1_1,NA,NA,timeout,4999.36,535916,535910.1,535925.6,540908.38,540910,2023-07-10T17:06:26Z,540924.96,NULL,Aufstand,ugomaji,s,mazidio,msingi,kujieleza,NA,sdf,1,2,NA,NA,NA,NA,NA,NA,NA,NA,NA,NA,NA,NA,NA,NA,NA,NA,NA,NA,NA
f97ab,"""Falsch""-Screen",canvas.Screen,3_0_2_0_7_1_2,NA,NA,skipped,NA,540917,NA,NA,540908.38,540917,2023-07-10T17:06:26Z,540924.96,NULL,Aufstand,ugomaji,s,mazidio,msingi,kujieleza,NA,sdf,NA,2,NA,NA,NA,NA,NA,NA,NA,NA,NA,NA,NA,NA,NA,NA,NA,NA,NA,NA,NA
f97ab,shallow,flow.Sequence,3_0_2_0_7_1,NA,NA,completion,16964.5,523932,523927.22,523943.88,540908.38,540917,2023-07-10T17:06:26Z,540924.96,NULL,Aufstand,ugomaji,s,mazidio,msingi,kujieleza,NA,sdf,NA,2,NA,NA,NA,NA,NA,NA,NA,NA,NA,NA,NA,NA,NA,NA,NA,NA,NA,NA,NA
f97ab,task,flow.Sequence,3_0_2_0_7,NA,NA,completion,16964.5,523931,523927.22,523943.88,540908.38,540918,2023-07-10T17:06:26Z,540924.96,NULL,Aufstand,ugomaji,s,mazidio,msingi,kujieleza,NA,sdf,NA,2,NA,NA,NA,NA,NA,NA,NA,NA,NA,NA,NA,NA,NA,NA,NA,NA,NA,NA,NA
f97ab,block,flow.Loop,3_0_2_0,NA,NA,completion,103945.36,436962,436962.68,436963.02,540908.38,540918,2023-07-10T17:06:26Z,540924.96,NULL,NA,NA,NA,NA,NA,NA,NA,sdf,NA,2,NA,NA,NA,NA,NA,NA,NA,NA,NA,NA,NA,NA,NA,NA,NA,NA,NA,NA,NA
f97ab,weiter,canvas.Screen,3_0_2_1,sdf,keypress(Space),response,1525.04,540918,540908.38,540924.96,542450,542463,2023-07-10T17:06:27Z,542528.6,NULL,NA,NA,NA,NA,NA,NA,NA,sdf,NA,2,NA,NA,NA,NA,NA,NA,NA,NA,NA,NA,NA,NA,NA,NA,NA,NA,NA,NA,NA
f97ab,check continue,flow.Sequence,3_0_2,NA,NA,completion,105486.98,436962,436962.68,436963.02,542450,542463,2023-07-10T17:06:27Z,542528.6,NULL,NA,NA,NA,NA,NA,NA,NA,sdf,NA,2,NA,NA,NA,NA,NA,NA,NA,NA,NA,NA,NA,NA,NA,NA,NA,NA,NA,NA,NA
f97ab,deep,flow.Sequence,3_0_3_0_0_0,NA,NA,skipped,NA,542528,NA,NA,542450,542528,2023-07-10T17:06:28Z,542528.6,NULL,Fleisch,mshakiki,s,kizunguzungu,mshikamano,angusho,NA,qt,NA,3,NA,NA,NA,NA,NA,NA,NA,NA,NA,NA,NA,NA,NA,NA,NA,NA,NA,NA,NA
f97ab,Shallow Question,html.Page,3_0_3_0_0_1_0,NA,NA,form submission,4956.4,542528,542528.22,542528.6,547485,547486,2023-07-10T17:06:32Z,547490.78,NULL,Fleisch,mshakiki,s,kizunguzungu,mshikamano,angusho,mshakiki,NA,NA,3,NA,NA,NA,NA,NA,NA,NA,NA,NA,NA,NA,NA,NA,NA,NA,NA,NA,NA,NA
f97ab,"""Richtig""-Screen",canvas.Screen,3_0_3_0_0_1_1,NA,NA,timeout,4999.4199999999,547488,547482.24,547490.78,552473.54,552475,2023-07-10T17:06:37Z,552490.2,NULL,Fleisch,mshakiki,s,kizunguzungu,mshikamano,angusho,NA,qt,1,3,NA,NA,NA,NA,NA,NA,NA,NA,NA,NA,NA,NA,NA,NA,NA,NA,NA,NA,NA
f97ab,"""Falsch""-Screen",canvas.Screen,3_0_3_0_0_1_2,NA,NA,skipped,NA,552482,NA,NA,552473.54,552482,2023-07-10T17:06:37Z,552490.2,NULL,Fleisch,mshakiki,s,kizunguzungu,mshikamano,angusho,NA,qt,NA,3,NA,NA,NA,NA,NA,NA,NA,NA,NA,NA,NA,NA,NA,NA,NA,NA,NA,NA,NA
f97ab,shallow,flow.Sequence,3_0_3_0_0_1,NA,NA,completion,9944.9400000001,542528,542528.22,542528.6,552473.54,552482,2023-07-10T17:06:37Z,552490.2,NULL,Fleisch,mshakiki,s,kizunguzungu,mshikamano,angusho,NA,qt,NA,3,NA,NA,NA,NA,NA,NA,NA,NA,NA,NA,NA,NA,NA,NA,NA,NA,NA,NA,NA
f97ab,task,flow.Sequence,3_0_3_0_0,NA,NA,completion,9944.9400000001,542528,542528.22,542528.6,552473.54,552483,2023-07-10T17:06:37Z,552490.2,NULL,Fleisch,mshakiki,s,kizunguzungu,mshikamano,angusho,NA,qt,NA,3,NA,NA,NA,NA,NA,NA,NA,NA,NA,NA,NA,NA,NA,NA,NA,NA,NA,NA,NA
f97ab,deep,flow.Sequence,3_0_3_0_1_0,NA,NA,skipped,NA,552483,NA,NA,552473.54,552483,2023-07-10T17:06:37Z,552490.2,NULL,Integrität,uadilifu,s,muungano,mtiririko,upunguaji,NA,qt,NA,3,NA,NA,NA,NA,NA,NA,NA,NA,NA,NA,NA,NA,NA,NA,NA,NA,NA,NA,NA
f97ab,Shallow Question,html.Page,3_0_3_0_1_1_0,NA,NA,form submission,8458.8,552484,552473.54,552490.2,560949,560949,2023-07-10T17:06:46Z,560955.74,NULL,Integrität,uadilifu,s,muungano,mtiririko,upunguaji,uadilifu,NA,NA,3,NA,NA,NA,NA,NA,NA,NA,NA,NA,NA,NA,NA,NA,NA,NA,NA,NA,NA,NA
f97ab,"""Richtig""-Screen",canvas.Screen,3_0_3_0_1_1_1,NA,NA,timeout,4999.4,560954,560944.5,560955.74,565938.48,565946,2023-07-10T17:06:51Z,565955.14,NULL,Integrität,uadilifu,s,muungano,mtiririko,upunguaji,NA,qt,1,3,NA,NA,NA,NA,NA,NA,NA,NA,NA,NA,NA,NA,NA,NA,NA,NA,NA,NA,NA
f97ab,"""Falsch""-Screen",canvas.Screen,3_0_3_0_1_1_2,NA,NA,skipped,NA,565962,NA,NA,565938.48,565962,2023-07-10T17:06:51Z,565955.14,NULL,Integrität,uadilifu,s,muungano,mtiririko,upunguaji,NA,qt,NA,3,NA,NA,NA,NA,NA,NA,NA,NA,NA,NA,NA,NA,NA,NA,NA,NA,NA,NA,NA
f97ab,shallow,flow.Sequence,3_0_3_0_1_1,NA,NA,completion,13448.28,552484,552473.54,552490.2,565938.48,565962,2023-07-10T17:06:51Z,565955.14,NULL,Integrität,uadilifu,s,muungano,mtiririko,upunguaji,NA,qt,NA,3,NA,NA,NA,NA,NA,NA,NA,NA,NA,NA,NA,NA,NA,NA,NA,NA,NA,NA,NA
f97ab,task,flow.Sequence,3_0_3_0_1,NA,NA,completion,13448.28,552483,552473.54,552490.2,565938.48,565962,2023-07-10T17:06:51Z,565955.14,NULL,Integrität,uadilifu,s,muungano,mtiririko,upunguaji,NA,qt,NA,3,NA,NA,NA,NA,NA,NA,NA,NA,NA,NA,NA,NA,NA,NA,NA,NA,NA,NA,NA
f97ab,Deep Question,html.Page,3_0_3_0_2_0_0,NA,NA,form submission,11214.86,565963,565938.48,565955.14,577170,577172,2023-07-10T17:07:02Z,577170.24,NULL,Verzögerung,kuchelewa,d,NA,NA,NA,nahtini,NA,NA,3,NA,NA,NA,NA,NA,NA,NA,NA,NA,NA,NA,NA,NA,NA,NA,NA,NA,NA,NA
f97ab,"""Richtig""-Screen",canvas.Screen,3_0_3_0_2_0_1,NA,NA,skipped,NA,577178,NA,NA,577170,577178,2023-07-10T17:07:02Z,577170.24,NULL,Verzögerung,kuchelewa,d,NA,NA,NA,NA,qt,NA,3,NA,NA,NA,NA,NA,NA,NA,NA,NA,NA,NA,NA,NA,NA,NA,NA,NA,NA,NA
f97ab,"""Falsch""-Screen",canvas.Screen,3_0_3_0_2_0_2,NA,NA,timeout,4999.4400000001,577183,577162.06,577170.24,582153.02,582155,2023-07-10T17:07:07Z,582169.68,NULL,Verzögerung,kuchelewa,d,NA,NA,NA,NA,qt,0,3,NA,NA,NA,NA,NA,NA,NA,NA,NA,NA,NA,NA,NA,NA,NA,NA,NA,NA,NA
f97ab,deep,flow.Sequence,3_0_3_0_2_0,NA,NA,completion,16197.88,565963,565938.48,565955.14,582153.02,582156,2023-07-10T17:07:07Z,582169.68,NULL,Verzögerung,kuchelewa,d,NA,NA,NA,NA,qt,NA,3,NA,NA,NA,NA,NA,NA,NA,NA,NA,NA,NA,NA,NA,NA,NA,NA,NA,NA,NA
f97ab,shallow,flow.Sequence,3_0_3_0_2_1,NA,NA,skipped,NA,582156,NA,NA,582153.02,582156,2023-07-10T17:07:07Z,582169.68,NULL,Verzögerung,kuchelewa,d,NA,NA,NA,NA,qt,NA,3,NA,NA,NA,NA,NA,NA,NA,NA,NA,NA,NA,NA,NA,NA,NA,NA,NA,NA,NA
f97ab,task,flow.Sequence,3_0_3_0_2,NA,NA,completion,16197.88,565963,565938.48,565955.14,582153.02,582157,2023-07-10T17:07:07Z,582169.68,NULL,Verzögerung,kuchelewa,d,NA,NA,NA,NA,qt,NA,3,NA,NA,NA,NA,NA,NA,NA,NA,NA,NA,NA,NA,NA,NA,NA,NA,NA,NA,NA
f97ab,Deep Question,html.Page,3_0_3_0_3_0_0,NA,NA,form submission,23455.32,582157,582153.02,582169.68,605625,605625,2023-07-10T17:07:31Z,605633.28,NULL,Kultur,utamaduni,d,NA,NA,NA,jlk,NA,NA,3,NA,NA,NA,NA,NA,NA,NA,NA,NA,NA,NA,NA,NA,NA,NA,NA,NA,NA,NA
f97ab,"""Richtig""-Screen",canvas.Screen,3_0_3_0_3_0_1,NA,NA,skipped,NA,605627,NA,NA,605625,605627,2023-07-10T17:07:31Z,605633.28,NULL,Kultur,utamaduni,d,NA,NA,NA,NA,qt,NA,3,NA,NA,NA,NA,NA,NA,NA,NA,NA,NA,NA,NA,NA,NA,NA,NA,NA,NA,NA
f97ab,"""Falsch""-Screen",canvas.Screen,3_0_3_0_3_0_2,NA,NA,timeout,4999.4199999999,605629,605623.02,605633.28,610616.04,610618,2023-07-10T17:07:36Z,610632.7,NULL,Kultur,utamaduni,d,NA,NA,NA,NA,qt,0,3,NA,NA,NA,NA,NA,NA,NA,NA,NA,NA,NA,NA,NA,NA,NA,NA,NA,NA,NA
f97ab,deep,flow.Sequence,3_0_3_0_3_0,NA,NA,completion,28446.36,582157,582153.02,582169.68,610616.04,610619,2023-07-10T17:07:36Z,610632.7,NULL,Kultur,utamaduni,d,NA,NA,NA,NA,qt,NA,3,NA,NA,NA,NA,NA,NA,NA,NA,NA,NA,NA,NA,NA,NA,NA,NA,NA,NA,NA
f97ab,shallow,flow.Sequence,3_0_3_0_3_1,NA,NA,skipped,NA,610620,NA,NA,610616.04,610620,2023-07-10T17:07:36Z,610632.7,NULL,Kultur,utamaduni,d,NA,NA,NA,NA,qt,NA,3,NA,NA,NA,NA,NA,NA,NA,NA,NA,NA,NA,NA,NA,NA,NA,NA,NA,NA,NA
f97ab,task,flow.Sequence,3_0_3_0_3,NA,NA,completion,28446.36,582157,582153.02,582169.68,610616.04,610621,2023-07-10T17:07:36Z,610632.7,NULL,Kultur,utamaduni,d,NA,NA,NA,NA,qt,NA,3,NA,NA,NA,NA,NA,NA,NA,NA,NA,NA,NA,NA,NA,NA,NA,NA,NA,NA,NA
f97ab,Deep Question,html.Page,3_0_3_0_4_0_0,NA,NA,form submission,15175.3,610621,610616.04,610632.7,625808,625813,2023-07-10T17:07:51Z,625813.96,NULL,Genehmigung,idhini,d,NA,NA,NA,jjj,NA,NA,3,NA,NA,NA,NA,NA,NA,NA,NA,NA,NA,NA,NA,NA,NA,NA,NA,NA,NA,NA
f97ab,"""Richtig""-Screen",canvas.Screen,3_0_3_0_4_0_1,NA,NA,skipped,NA,625822,NA,NA,625808,625822,2023-07-10T17:07:51Z,625813.96,NULL,Genehmigung,idhini,d,NA,NA,NA,NA,qt,NA,3,NA,NA,NA,NA,NA,NA,NA,NA,NA,NA,NA,NA,NA,NA,NA,NA,NA,NA,NA
f97ab,"""Falsch""-Screen",canvas.Screen,3_0_3_0_4_0_2,NA,NA,timeout,4999.4600000001,625825,625794,625813.96,630796.74,630798,2023-07-10T17:07:56Z,630813.42,NULL,Genehmigung,idhini,d,NA,NA,NA,NA,qt,0,3,NA,NA,NA,NA,NA,NA,NA,NA,NA,NA,NA,NA,NA,NA,NA,NA,NA,NA,NA
f97ab,deep,flow.Sequence,3_0_3_0_4_0,NA,NA,completion,20164.04,610621,610616.04,610632.7,630796.74,630798,2023-07-10T17:07:56Z,630813.42,NULL,Genehmigung,idhini,d,NA,NA,NA,NA,qt,NA,3,NA,NA,NA,NA,NA,NA,NA,NA,NA,NA,NA,NA,NA,NA,NA,NA,NA,NA,NA
f97ab,shallow,flow.Sequence,3_0_3_0_4_1,NA,NA,skipped,NA,630799,NA,NA,630796.74,630799,2023-07-10T17:07:56Z,630813.42,NULL,Genehmigung,idhini,d,NA,NA,NA,NA,qt,NA,3,NA,NA,NA,NA,NA,NA,NA,NA,NA,NA,NA,NA,NA,NA,NA,NA,NA,NA,NA
f97ab,task,flow.Sequence,3_0_3_0_4,NA,NA,completion,20164.04,610621,610616.04,610632.7,630796.74,630799,2023-07-10T17:07:56Z,630813.42,NULL,Genehmigung,idhini,d,NA,NA,NA,NA,qt,NA,3,NA,NA,NA,NA,NA,NA,NA,NA,NA,NA,NA,NA,NA,NA,NA,NA,NA,NA,NA
f97ab,Deep Question,html.Page,3_0_3_0_5_0_0,NA,NA,form submission,9617.58,630799,630796.74,630813.42,640431,640432,2023-07-10T17:08:05Z,640445.44,NULL,Begegnung,kukutana,d,NA,NA,NA,kuchelewa,NA,NA,3,NA,NA,NA,NA,NA,NA,NA,NA,NA,NA,NA,NA,NA,NA,NA,NA,NA,NA,NA
f97ab,"""Richtig""-Screen",canvas.Screen,3_0_3_0_5_0_1,NA,NA,skipped,NA,640433,NA,NA,640431,640433,2023-07-10T17:08:05Z,640445.44,NULL,Begegnung,kukutana,d,NA,NA,NA,NA,qt,NA,3,NA,NA,NA,NA,NA,NA,NA,NA,NA,NA,NA,NA,NA,NA,NA,NA,NA,NA,NA
f97ab,"""Falsch""-Screen",canvas.Screen,3_0_3_0_5_0_2,NA,NA,timeout,4999.42,640435,640429.56,640445.44,645428.26,645430,2023-07-10T17:08:10Z,645444.86,NULL,Begegnung,kukutana,d,NA,NA,NA,NA,qt,0,3,NA,NA,NA,NA,NA,NA,NA,NA,NA,NA,NA,NA,NA,NA,NA,NA,NA,NA,NA
f97ab,deep,flow.Sequence,3_0_3_0_5_0,NA,NA,completion,14614.84,630799,630796.74,630813.42,645428.26,645431,2023-07-10T17:08:10Z,645444.86,NULL,Begegnung,kukutana,d,NA,NA,NA,NA,qt,NA,3,NA,NA,NA,NA,NA,NA,NA,NA,NA,NA,NA,NA,NA,NA,NA,NA,NA,NA,NA
f97ab,shallow,flow.Sequence,3_0_3_0_5_1,NA,NA,skipped,NA,645431,NA,NA,645428.26,645432,2023-07-10T17:08:10Z,645444.86,NULL,Begegnung,kukutana,d,NA,NA,NA,NA,qt,NA,3,NA,NA,NA,NA,NA,NA,NA,NA,NA,NA,NA,NA,NA,NA,NA,NA,NA,NA,NA
f97ab,task,flow.Sequence,3_0_3_0_5,NA,NA,completion,14614.84,630799,630796.74,630813.42,645428.26,645432,2023-07-10T17:08:10Z,645444.86,NULL,Begegnung,kukutana,d,NA,NA,NA,NA,qt,NA,3,NA,NA,NA,NA,NA,NA,NA,NA,NA,NA,NA,NA,NA,NA,NA,NA,NA,NA,NA
f97ab,deep,flow.Sequence,3_0_3_0_6_0,NA,NA,skipped,NA,645433,NA,NA,645428.26,645433,2023-07-10T17:08:10Z,645444.86,NULL,Aufstand,ugomaji,s,mazidio,msingi,kujieleza,NA,qt,NA,3,NA,NA,NA,NA,NA,NA,NA,NA,NA,NA,NA,NA,NA,NA,NA,NA,NA,NA,NA
f97ab,Shallow Question,html.Page,3_0_3_0_6_1_0,NA,NA,form submission,6933.14,645434,645428.26,645444.86,652378,652379,2023-07-10T17:08:17Z,652377.3,NULL,Aufstand,ugomaji,s,mazidio,msingi,kujieleza,ugomaji,NA,NA,3,NA,NA,NA,NA,NA,NA,NA,NA,NA,NA,NA,NA,NA,NA,NA,NA,NA,NA,NA
f97ab,"""Richtig""-Screen",canvas.Screen,3_0_3_0_6_1_1,NA,NA,timeout,4999.4399999999,652385,652372.8,652377.3,657360.18,657362,2023-07-10T17:08:22Z,657376.74,NULL,Aufstand,ugomaji,s,mazidio,msingi,kujieleza,NA,qt,1,3,NA,NA,NA,NA,NA,NA,NA,NA,NA,NA,NA,NA,NA,NA,NA,NA,NA,NA,NA
f97ab,"""Falsch""-Screen",canvas.Screen,3_0_3_0_6_1_2,NA,NA,skipped,NA,657372,NA,NA,657360.18,657372,2023-07-10T17:08:22Z,657376.74,NULL,Aufstand,ugomaji,s,mazidio,msingi,kujieleza,NA,qt,NA,3,NA,NA,NA,NA,NA,NA,NA,NA,NA,NA,NA,NA,NA,NA,NA,NA,NA,NA,NA
f97ab,shallow,flow.Sequence,3_0_3_0_6_1,NA,NA,completion,11915.32,645433,645428.26,645444.86,657360.18,657373,2023-07-10T17:08:22Z,657376.74,NULL,Aufstand,ugomaji,s,mazidio,msingi,kujieleza,NA,qt,NA,3,NA,NA,NA,NA,NA,NA,NA,NA,NA,NA,NA,NA,NA,NA,NA,NA,NA,NA,NA
f97ab,task,flow.Sequence,3_0_3_0_6,NA,NA,completion,11915.32,645433,645428.26,645444.86,657360.18,657373,2023-07-10T17:08:22Z,657376.74,NULL,Aufstand,ugomaji,s,mazidio,msingi,kujieleza,NA,qt,NA,3,NA,NA,NA,NA,NA,NA,NA,NA,NA,NA,NA,NA,NA,NA,NA,NA,NA,NA,NA
f97ab,deep,flow.Sequence,3_0_3_0_7_0,NA,NA,skipped,NA,657374,NA,NA,657360.18,657374,2023-07-10T17:08:22Z,657376.74,NULL,Prüfung,mtihani,s,mkulima,mtizamo,ufumbuzi,NA,qt,NA,3,NA,NA,NA,NA,NA,NA,NA,NA,NA,NA,NA,NA,NA,NA,NA,NA,NA,NA,NA
f97ab,Shallow Question,html.Page,3_0_3_0_7_1_0,NA,NA,form submission,11080.26,657375,657360.18,657376.74,668457,668458,2023-07-10T17:08:33Z,668458.54,NULL,Prüfung,mtihani,s,mkulima,mtizamo,ufumbuzi,mtihani,NA,NA,3,NA,NA,NA,NA,NA,NA,NA,NA,NA,NA,NA,NA,NA,NA,NA,NA,NA,NA,NA
f97ab,"""Richtig""-Screen",canvas.Screen,3_0_3_0_7_1_1,NA,NA,timeout,4999.3199999999,668462,668450.66,668458.54,673441.24,673442,2023-07-10T17:08:38Z,673457.86,NULL,Prüfung,mtihani,s,mkulima,mtizamo,ufumbuzi,NA,qt,1,3,NA,NA,NA,NA,NA,NA,NA,NA,NA,NA,NA,NA,NA,NA,NA,NA,NA,NA,NA
f97ab,"""Falsch""-Screen",canvas.Screen,3_0_3_0_7_1_2,NA,NA,skipped,NA,673449,NA,NA,673441.24,673449,2023-07-10T17:08:38Z,673457.86,NULL,Prüfung,mtihani,s,mkulima,mtizamo,ufumbuzi,NA,qt,NA,3,NA,NA,NA,NA,NA,NA,NA,NA,NA,NA,NA,NA,NA,NA,NA,NA,NA,NA,NA
f97ab,shallow,flow.Sequence,3_0_3_0_7_1,NA,NA,completion,16064.5,657374,657360.18,657376.74,673441.24,673451,2023-07-10T17:08:38Z,673457.86,NULL,Prüfung,mtihani,s,mkulima,mtizamo,ufumbuzi,NA,qt,NA,3,NA,NA,NA,NA,NA,NA,NA,NA,NA,NA,NA,NA,NA,NA,NA,NA,NA,NA,NA
f97ab,task,flow.Sequence,3_0_3_0_7,NA,NA,completion,16064.5,657373,657360.18,657376.74,673441.24,673451,2023-07-10T17:08:38Z,673457.86,NULL,Prüfung,mtihani,s,mkulima,mtizamo,ufumbuzi,NA,qt,NA,3,NA,NA,NA,NA,NA,NA,NA,NA,NA,NA,NA,NA,NA,NA,NA,NA,NA,NA,NA
f97ab,block,flow.Loop,3_0_3_0,NA,NA,completion,130912.64,542528,542528.22,542528.6,673441.24,673451,2023-07-10T17:08:38Z,673457.86,NULL,NA,NA,NA,NA,NA,NA,NA,qt,NA,3,NA,NA,NA,NA,NA,NA,NA,NA,NA,NA,NA,NA,NA,NA,NA,NA,NA,NA,NA
f97ab,weiter,canvas.Screen,3_0_3_1,sdf,keypress(Space),response,1288.14,673452,673441.24,673457.86,674746,674756,2023-07-10T17:08:40Z,674834.68,NULL,NA,NA,NA,NA,NA,NA,NA,qt,NA,3,NA,NA,NA,NA,NA,NA,NA,NA,NA,NA,NA,NA,NA,NA,NA,NA,NA,NA,NA
f97ab,check continue,flow.Sequence,3_0_3,NA,NA,completion,132217.4,542528,542528.22,542528.6,674746,674756,2023-07-10T17:08:40Z,674834.68,NULL,NA,NA,NA,NA,NA,NA,NA,qt,NA,3,NA,NA,NA,NA,NA,NA,NA,NA,NA,NA,NA,NA,NA,NA,NA,NA,NA,NA,NA
f97ab,deep,flow.Sequence,3_0_4_0_0_0,NA,NA,skipped,NA,674834,NA,NA,674746,674834,2023-07-10T17:08:40Z,674834.68,NULL,Prüfung,mtihani,s,mkulima,mtizamo,ufumbuzi,NA,sd,NA,4,NA,NA,NA,NA,NA,NA,NA,NA,NA,NA,NA,NA,NA,NA,NA,NA,NA,NA,NA
f97ab,Shallow Question,html.Page,3_0_4_0_0_1_0,NA,NA,form submission,5142.3199999999,674834,674834.32,674834.68,679977,679978,2023-07-10T17:08:45Z,679990.36,NULL,Prüfung,mtihani,s,mkulima,mtizamo,ufumbuzi,mtihani,NA,NA,4,NA,NA,NA,NA,NA,NA,NA,NA,NA,NA,NA,NA,NA,NA,NA,NA,NA,NA,NA
f97ab,"""Richtig""-Screen",canvas.Screen,3_0_4_0_0_1_1,NA,NA,timeout,4999.4,679983,679973.8,679990.36,684973.1,684974,2023-07-10T17:08:50Z,684989.76,NULL,Prüfung,mtihani,s,mkulima,mtizamo,ufumbuzi,NA,sd,1,4,NA,NA,NA,NA,NA,NA,NA,NA,NA,NA,NA,NA,NA,NA,NA,NA,NA,NA,NA
f97ab,"""Falsch""-Screen",canvas.Screen,3_0_4_0_0_1_2,NA,NA,skipped,NA,684980,NA,NA,684973.1,684980,2023-07-10T17:08:50Z,684989.76,NULL,Prüfung,mtihani,s,mkulima,mtizamo,ufumbuzi,NA,sd,NA,4,NA,NA,NA,NA,NA,NA,NA,NA,NA,NA,NA,NA,NA,NA,NA,NA,NA,NA,NA
f97ab,shallow,flow.Sequence,3_0_4_0_0_1,NA,NA,completion,10138.42,674834,674834.32,674834.68,684973.1,684981,2023-07-10T17:08:50Z,684989.76,NULL,Prüfung,mtihani,s,mkulima,mtizamo,ufumbuzi,NA,sd,NA,4,NA,NA,NA,NA,NA,NA,NA,NA,NA,NA,NA,NA,NA,NA,NA,NA,NA,NA,NA
f97ab,task,flow.Sequence,3_0_4_0_0,NA,NA,completion,10138.42,674834,674834.32,674834.68,684973.1,684981,2023-07-10T17:08:50Z,684989.76,NULL,Prüfung,mtihani,s,mkulima,mtizamo,ufumbuzi,NA,sd,NA,4,NA,NA,NA,NA,NA,NA,NA,NA,NA,NA,NA,NA,NA,NA,NA,NA,NA,NA,NA
f97ab,Deep Question,html.Page,3_0_4_0_1_0_0,NA,NA,form submission,15963.24,684982,684973.1,684989.76,700953,700954,2023-07-10T17:09:06Z,700954.14,NULL,Genehmigung,idhini,d,NA,NA,NA,kukumata,NA,NA,4,NA,NA,NA,NA,NA,NA,NA,NA,NA,NA,NA,NA,NA,NA,NA,NA,NA,NA,NA
f97ab,"""Richtig""-Screen",canvas.Screen,3_0_4_0_1_0_1,NA,NA,skipped,NA,700955,NA,NA,700953,700955,2023-07-10T17:09:06Z,700954.14,NULL,Genehmigung,idhini,d,NA,NA,NA,NA,sd,NA,4,NA,NA,NA,NA,NA,NA,NA,NA,NA,NA,NA,NA,NA,NA,NA,NA,NA,NA,NA
f97ab,"""Falsch""-Screen",canvas.Screen,3_0_4_0_1_0_2,NA,NA,timeout,4999.6,700958,700952.22,700954.14,705937.08,705939,2023-07-10T17:09:11Z,705953.74,NULL,Genehmigung,idhini,d,NA,NA,NA,NA,sd,0,4,NA,NA,NA,NA,NA,NA,NA,NA,NA,NA,NA,NA,NA,NA,NA,NA,NA,NA,NA
f97ab,deep,flow.Sequence,3_0_4_0_1_0,NA,NA,completion,20947.32,684982,684973.1,684989.76,705937.08,705939,2023-07-10T17:09:11Z,705953.74,NULL,Genehmigung,idhini,d,NA,NA,NA,NA,sd,NA,4,NA,NA,NA,NA,NA,NA,NA,NA,NA,NA,NA,NA,NA,NA,NA,NA,NA,NA,NA
f97ab,shallow,flow.Sequence,3_0_4_0_1_1,NA,NA,skipped,NA,705940,NA,NA,705937.08,705940,2023-07-10T17:09:11Z,705953.74,NULL,Genehmigung,idhini,d,NA,NA,NA,NA,sd,NA,4,NA,NA,NA,NA,NA,NA,NA,NA,NA,NA,NA,NA,NA,NA,NA,NA,NA,NA,NA
f97ab,task,flow.Sequence,3_0_4_0_1,NA,NA,completion,20947.32,684982,684973.1,684989.76,705937.08,705940,2023-07-10T17:09:11Z,705953.74,NULL,Genehmigung,idhini,d,NA,NA,NA,NA,sd,NA,4,NA,NA,NA,NA,NA,NA,NA,NA,NA,NA,NA,NA,NA,NA,NA,NA,NA,NA,NA
f97ab,deep,flow.Sequence,3_0_4_0_2_0,NA,NA,skipped,NA,705940,NA,NA,705937.08,705941,2023-07-10T17:09:11Z,705953.74,NULL,Integrität,uadilifu,s,muungano,mtiririko,upunguaji,NA,sd,NA,4,NA,NA,NA,NA,NA,NA,NA,NA,NA,NA,NA,NA,NA,NA,NA,NA,NA,NA,NA
f97ab,Shallow Question,html.Page,3_0_4_0_2_1_0,NA,NA,form submission,8651.26,705941,705937.08,705953.74,714605,714605,2023-07-10T17:09:20Z,714602.56,NULL,Integrität,uadilifu,s,muungano,mtiririko,upunguaji,uadilifu,NA,NA,4,NA,NA,NA,NA,NA,NA,NA,NA,NA,NA,NA,NA,NA,NA,NA,NA,NA,NA,NA
f97ab,"""Richtig""-Screen",canvas.Screen,3_0_4_0_2_1_1,NA,NA,timeout,4999.3799999999,714609,714601.08,714602.56,719585.32,719586,2023-07-10T17:09:25Z,719601.94,NULL,Integrität,uadilifu,s,muungano,mtiririko,upunguaji,NA,sd,1,4,NA,NA,NA,NA,NA,NA,NA,NA,NA,NA,NA,NA,NA,NA,NA,NA,NA,NA,NA
f97ab,"""Falsch""-Screen",canvas.Screen,3_0_4_0_2_1_2,NA,NA,skipped,NA,719594,NA,NA,719585.32,719594,2023-07-10T17:09:25Z,719601.94,NULL,Integrität,uadilifu,s,muungano,mtiririko,upunguaji,NA,sd,NA,4,NA,NA,NA,NA,NA,NA,NA,NA,NA,NA,NA,NA,NA,NA,NA,NA,NA,NA,NA
f97ab,shallow,flow.Sequence,3_0_4_0_2_1,NA,NA,completion,13631.58,705941,705937.08,705953.74,719585.32,719595,2023-07-10T17:09:25Z,719601.94,NULL,Integrität,uadilifu,s,muungano,mtiririko,upunguaji,NA,sd,NA,4,NA,NA,NA,NA,NA,NA,NA,NA,NA,NA,NA,NA,NA,NA,NA,NA,NA,NA,NA
f97ab,task,flow.Sequence,3_0_4_0_2,NA,NA,completion,13631.58,705940,705937.08,705953.74,719585.32,719596,2023-07-10T17:09:25Z,719601.94,NULL,Integrität,uadilifu,s,muungano,mtiririko,upunguaji,NA,sd,NA,4,NA,NA,NA,NA,NA,NA,NA,NA,NA,NA,NA,NA,NA,NA,NA,NA,NA,NA,NA
f97ab,Deep Question,html.Page,3_0_4_0_3_0_0,NA,NA,form submission,6565.0600000001,719596,719585.32,719601.94,726167,726167,2023-07-10T17:09:31Z,726167.62,NULL,Verzögerung,kuchelewa,d,NA,NA,NA,kuchelewa,NA,NA,4,NA,NA,NA,NA,NA,NA,NA,NA,NA,NA,NA,NA,NA,NA,NA,NA,NA,NA,NA
f97ab,"""Richtig""-Screen",canvas.Screen,3_0_4_0_3_0_1,NA,NA,timeout,4999.52,726169,726165.16,726167.62,731150.48,731158,2023-07-10T17:09:36Z,731167.14,NULL,Verzögerung,kuchelewa,d,NA,NA,NA,NA,sd,1,4,NA,NA,NA,NA,NA,NA,NA,NA,NA,NA,NA,NA,NA,NA,NA,NA,NA,NA,NA
f97ab,"""Falsch""-Screen",canvas.Screen,3_0_4_0_3_0_2,NA,NA,skipped,NA,731175,NA,NA,731150.48,731175,2023-07-10T17:09:36Z,731167.14,NULL,Verzögerung,kuchelewa,d,NA,NA,NA,NA,sd,NA,4,NA,NA,NA,NA,NA,NA,NA,NA,NA,NA,NA,NA,NA,NA,NA,NA,NA,NA,NA
f97ab,deep,flow.Sequence,3_0_4_0_3_0,NA,NA,completion,11548.54,719596,719585.32,719601.94,731150.48,731175,2023-07-10T17:09:36Z,731167.14,NULL,Verzögerung,kuchelewa,d,NA,NA,NA,NA,sd,NA,4,NA,NA,NA,NA,NA,NA,NA,NA,NA,NA,NA,NA,NA,NA,NA,NA,NA,NA,NA
f97ab,shallow,flow.Sequence,3_0_4_0_3_1,NA,NA,skipped,NA,731176,NA,NA,731150.48,731176,2023-07-10T17:09:36Z,731167.14,NULL,Verzögerung,kuchelewa,d,NA,NA,NA,NA,sd,NA,4,NA,NA,NA,NA,NA,NA,NA,NA,NA,NA,NA,NA,NA,NA,NA,NA,NA,NA,NA
f97ab,task,flow.Sequence,3_0_4_0_3,NA,NA,completion,11548.54,719596,719585.32,719601.94,731150.48,731176,2023-07-10T17:09:36Z,731167.14,NULL,Verzögerung,kuchelewa,d,NA,NA,NA,NA,sd,NA,4,NA,NA,NA,NA,NA,NA,NA,NA,NA,NA,NA,NA,NA,NA,NA,NA,NA,NA,NA
f97ab,deep,flow.Sequence,3_0_4_0_4_0,NA,NA,skipped,NA,731177,NA,NA,731150.48,731177,2023-07-10T17:09:36Z,731167.14,NULL,Fleisch,mshakiki,s,kizunguzungu,mshikamano,angusho,NA,sd,NA,4,NA,NA,NA,NA,NA,NA,NA,NA,NA,NA,NA,NA,NA,NA,NA,NA,NA,NA,NA
f97ab,Shallow Question,html.Page,3_0_4_0_4_1_0,NA,NA,form submission,4670.86,731177,731150.48,731167.14,735838,735839,2023-07-10T17:09:41Z,735849.82,NULL,Fleisch,mshakiki,s,kizunguzungu,mshikamano,angusho,mshakiki,NA,NA,4,NA,NA,NA,NA,NA,NA,NA,NA,NA,NA,NA,NA,NA,NA,NA,NA,NA,NA,NA
f97ab,"""Richtig""-Screen",canvas.Screen,3_0_4_0_4_1_1,NA,NA,timeout,4999.3400000001,735844,735833.04,735849.82,740832.52,740833,2023-07-10T17:09:46Z,740849.16,NULL,Fleisch,mshakiki,s,kizunguzungu,mshikamano,angusho,NA,sd,1,4,NA,NA,NA,NA,NA,NA,NA,NA,NA,NA,NA,NA,NA,NA,NA,NA,NA,NA,NA
f97ab,"""Falsch""-Screen",canvas.Screen,3_0_4_0_4_1_2,NA,NA,skipped,NA,740840,NA,NA,740832.52,740840,2023-07-10T17:09:46Z,740849.16,NULL,Fleisch,mshakiki,s,kizunguzungu,mshikamano,angusho,NA,sd,NA,4,NA,NA,NA,NA,NA,NA,NA,NA,NA,NA,NA,NA,NA,NA,NA,NA,NA,NA,NA
f97ab,shallow,flow.Sequence,3_0_4_0_4_1,NA,NA,completion,9665.38,731177,731150.48,731167.14,740832.52,740840,2023-07-10T17:09:46Z,740849.16,NULL,Fleisch,mshakiki,s,kizunguzungu,mshikamano,angusho,NA,sd,NA,4,NA,NA,NA,NA,NA,NA,NA,NA,NA,NA,NA,NA,NA,NA,NA,NA,NA,NA,NA
f97ab,task,flow.Sequence,3_0_4_0_4,NA,NA,completion,9665.38,731176,731150.48,731167.14,740832.52,740841,2023-07-10T17:09:46Z,740849.16,NULL,Fleisch,mshakiki,s,kizunguzungu,mshikamano,angusho,NA,sd,NA,4,NA,NA,NA,NA,NA,NA,NA,NA,NA,NA,NA,NA,NA,NA,NA,NA,NA,NA,NA
f97ab,Deep Question,html.Page,3_0_4_0_5_0_0,NA,NA,form submission,5642.84,740842,740832.52,740849.16,746492,746493,2023-07-10T17:09:52Z,746498.38,NULL,Kultur,utamaduni,d,NA,NA,NA,kljlkj,NA,NA,4,NA,NA,NA,NA,NA,NA,NA,NA,NA,NA,NA,NA,NA,NA,NA,NA,NA,NA,NA
f97ab,"""Richtig""-Screen",canvas.Screen,3_0_4_0_5_0_1,NA,NA,skipped,NA,746498,NA,NA,746492,746498,2023-07-10T17:09:52Z,746498.38,NULL,Kultur,utamaduni,d,NA,NA,NA,NA,sd,NA,4,NA,NA,NA,NA,NA,NA,NA,NA,NA,NA,NA,NA,NA,NA,NA,NA,NA,NA,NA
f97ab,"""Falsch""-Screen",canvas.Screen,3_0_4_0_5_0_2,NA,NA,timeout,4999.4,746502,746484.16,746498.38,751481.2,751483,2023-07-10T17:09:56Z,751497.78,NULL,Kultur,utamaduni,d,NA,NA,NA,NA,sd,0,4,NA,NA,NA,NA,NA,NA,NA,NA,NA,NA,NA,NA,NA,NA,NA,NA,NA,NA,NA
f97ab,deep,flow.Sequence,3_0_4_0_5_0,NA,NA,completion,10632.04,740842,740832.52,740849.16,751481.2,751483,2023-07-10T17:09:56Z,751497.78,NULL,Kultur,utamaduni,d,NA,NA,NA,NA,sd,NA,4,NA,NA,NA,NA,NA,NA,NA,NA,NA,NA,NA,NA,NA,NA,NA,NA,NA,NA,NA
f97ab,shallow,flow.Sequence,3_0_4_0_5_1,NA,NA,skipped,NA,751484,NA,NA,751481.2,751484,2023-07-10T17:09:56Z,751497.78,NULL,Kultur,utamaduni,d,NA,NA,NA,NA,sd,NA,4,NA,NA,NA,NA,NA,NA,NA,NA,NA,NA,NA,NA,NA,NA,NA,NA,NA,NA,NA
f97ab,task,flow.Sequence,3_0_4_0_5,NA,NA,completion,10632.04,740842,740832.52,740849.16,751481.2,751485,2023-07-10T17:09:56Z,751497.78,NULL,Kultur,utamaduni,d,NA,NA,NA,NA,sd,NA,4,NA,NA,NA,NA,NA,NA,NA,NA,NA,NA,NA,NA,NA,NA,NA,NA,NA,NA,NA
f97ab,Deep Question,html.Page,3_0_4_0_6_0_0,NA,NA,form submission,12159.22,751485,751481.2,751497.78,763657,763657,2023-07-10T17:10:09Z,763662.84,NULL,Begegnung,kukutana,d,NA,NA,NA,u,NA,NA,4,NA,NA,NA,NA,NA,NA,NA,NA,NA,NA,NA,NA,NA,NA,NA,NA,NA,NA,NA
f97ab,"""Richtig""-Screen",canvas.Screen,3_0_4_0_6_0_1,NA,NA,skipped,NA,763659,NA,NA,763657,763659,2023-07-10T17:10:09Z,763662.84,NULL,Begegnung,kukutana,d,NA,NA,NA,NA,sd,NA,4,NA,NA,NA,NA,NA,NA,NA,NA,NA,NA,NA,NA,NA,NA,NA,NA,NA,NA,NA
f97ab,"""Falsch""-Screen",canvas.Screen,3_0_4_0_6_0_2,NA,NA,timeout,4999.4,763661,763655.36,763662.84,768645.56,768647,2023-07-10T17:10:14Z,768662.24,NULL,Begegnung,kukutana,d,NA,NA,NA,NA,sd,0,4,NA,NA,NA,NA,NA,NA,NA,NA,NA,NA,NA,NA,NA,NA,NA,NA,NA,NA,NA
f97ab,deep,flow.Sequence,3_0_4_0_6_0,NA,NA,completion,17147.78,751485,751481.2,751497.78,768645.56,768647,2023-07-10T17:10:14Z,768662.24,NULL,Begegnung,kukutana,d,NA,NA,NA,NA,sd,NA,4,NA,NA,NA,NA,NA,NA,NA,NA,NA,NA,NA,NA,NA,NA,NA,NA,NA,NA,NA
f97ab,shallow,flow.Sequence,3_0_4_0_6_1,NA,NA,skipped,NA,768648,NA,NA,768645.56,768648,2023-07-10T17:10:14Z,768662.24,NULL,Begegnung,kukutana,d,NA,NA,NA,NA,sd,NA,4,NA,NA,NA,NA,NA,NA,NA,NA,NA,NA,NA,NA,NA,NA,NA,NA,NA,NA,NA
f97ab,task,flow.Sequence,3_0_4_0_6,NA,NA,completion,17147.78,751485,751481.2,751497.78,768645.56,768648,2023-07-10T17:10:14Z,768662.24,NULL,Begegnung,kukutana,d,NA,NA,NA,NA,sd,NA,4,NA,NA,NA,NA,NA,NA,NA,NA,NA,NA,NA,NA,NA,NA,NA,NA,NA,NA,NA
f97ab,deep,flow.Sequence,3_0_4_0_7_0,NA,NA,skipped,NA,768649,NA,NA,768645.56,768649,2023-07-10T17:10:14Z,768662.24,NULL,Aufstand,ugomaji,s,mazidio,msingi,kujieleza,NA,sd,NA,4,NA,NA,NA,NA,NA,NA,NA,NA,NA,NA,NA,NA,NA,NA,NA,NA,NA,NA,NA
f97ab,Shallow Question,html.Page,3_0_4_0_7_1_0,NA,NA,form submission,7917.76,768649,768645.56,768662.24,776580,776581,2023-07-10T17:10:22Z,776577.92,NULL,Aufstand,ugomaji,s,mazidio,msingi,kujieleza,ugomaji,NA,NA,4,NA,NA,NA,NA,NA,NA,NA,NA,NA,NA,NA,NA,NA,NA,NA,NA,NA,NA,NA
f97ab,"""Richtig""-Screen",canvas.Screen,3_0_4_0_7_1_1,NA,NA,timeout,4999.34,776586,776574.82,776577.92,781560.6,781562,2023-07-10T17:10:27Z,781577.26,NULL,Aufstand,ugomaji,s,mazidio,msingi,kujieleza,NA,sd,1,4,NA,NA,NA,NA,NA,NA,NA,NA,NA,NA,NA,NA,NA,NA,NA,NA,NA,NA,NA
f97ab,"""Falsch""-Screen",canvas.Screen,3_0_4_0_7_1_2,NA,NA,skipped,NA,781569,NA,NA,781560.6,781569,2023-07-10T17:10:27Z,781577.26,NULL,Aufstand,ugomaji,s,mazidio,msingi,kujieleza,NA,sd,NA,4,NA,NA,NA,NA,NA,NA,NA,NA,NA,NA,NA,NA,NA,NA,NA,NA,NA,NA,NA
f97ab,shallow,flow.Sequence,3_0_4_0_7_1,NA,NA,completion,12898.36,768649,768645.56,768662.24,781560.6,781570,2023-07-10T17:10:27Z,781577.26,NULL,Aufstand,ugomaji,s,mazidio,msingi,kujieleza,NA,sd,NA,4,NA,NA,NA,NA,NA,NA,NA,NA,NA,NA,NA,NA,NA,NA,NA,NA,NA,NA,NA
f97ab,task,flow.Sequence,3_0_4_0_7,NA,NA,completion,12898.36,768648,768645.56,768662.24,781560.6,781570,2023-07-10T17:10:27Z,781577.26,NULL,Aufstand,ugomaji,s,mazidio,msingi,kujieleza,NA,sd,NA,4,NA,NA,NA,NA,NA,NA,NA,NA,NA,NA,NA,NA,NA,NA,NA,NA,NA,NA,NA
f97ab,block,flow.Loop,3_0_4_0,NA,NA,completion,106725.92,674834,674834.32,674834.68,781560.6,781571,2023-07-10T17:10:27Z,781577.26,NULL,NA,NA,NA,NA,NA,NA,NA,sd,NA,4,NA,NA,NA,NA,NA,NA,NA,NA,NA,NA,NA,NA,NA,NA,NA,NA,NA,NA,NA
f97ab,weiter,canvas.Screen,3_0_4_1,sdf,keypress(Space),response,1513.74,781571,781560.6,781577.26,783091,783104,2023-07-10T17:10:28Z,783167.18,NULL,NA,NA,NA,NA,NA,NA,NA,sd,NA,4,NA,NA,NA,NA,NA,NA,NA,NA,NA,NA,NA,NA,NA,NA,NA,NA,NA,NA,NA
f97ab,check continue,flow.Sequence,3_0_4,NA,NA,completion,108256.32,674834,674834.32,674834.68,783091,783105,2023-07-10T17:10:28Z,783167.18,NULL,NA,NA,NA,NA,NA,NA,NA,sd,NA,4,NA,NA,NA,NA,NA,NA,NA,NA,NA,NA,NA,NA,NA,NA,NA,NA,NA,NA,NA
f97ab,Deep Question,html.Page,3_0_5_0_0_0_0,NA,NA,form submission,10813.82,783167,783166.88,783167.18,793981,793983,2023-07-10T17:10:39Z,793992.24,NULL,Kultur,utamaduni,d,NA,NA,NA,utudani,NA,NA,5,NA,NA,NA,NA,NA,NA,NA,NA,NA,NA,NA,NA,NA,NA,NA,NA,NA,NA,NA
f97ab,"""Richtig""-Screen",canvas.Screen,3_0_5_0_0_0_1,NA,NA,skipped,NA,793988,NA,NA,793981,793988,2023-07-10T17:10:39Z,793992.24,NULL,Kultur,utamaduni,d,NA,NA,NA,NA,sdf,NA,5,NA,NA,NA,NA,NA,NA,NA,NA,NA,NA,NA,NA,NA,NA,NA,NA,NA,NA,NA
f97ab,"""Falsch""-Screen",canvas.Screen,3_0_5_0_0_0_2,NA,NA,timeout,4999.5,793991,793975.8,793992.24,798975.08,798976,2023-07-10T17:10:44Z,798991.74,NULL,Kultur,utamaduni,d,NA,NA,NA,NA,sdf,0,5,NA,NA,NA,NA,NA,NA,NA,NA,NA,NA,NA,NA,NA,NA,NA,NA,NA,NA,NA
f97ab,deep,flow.Sequence,3_0_5_0_0_0,NA,NA,completion,15807.9,783167,783166.88,783167.18,798975.08,798977,2023-07-10T17:10:44Z,798991.74,NULL,Kultur,utamaduni,d,NA,NA,NA,NA,sdf,NA,5,NA,NA,NA,NA,NA,NA,NA,NA,NA,NA,NA,NA,NA,NA,NA,NA,NA,NA,NA
f97ab,shallow,flow.Sequence,3_0_5_0_0_1,NA,NA,skipped,NA,798977,NA,NA,798975.08,798977,2023-07-10T17:10:44Z,798991.74,NULL,Kultur,utamaduni,d,NA,NA,NA,NA,sdf,NA,5,NA,NA,NA,NA,NA,NA,NA,NA,NA,NA,NA,NA,NA,NA,NA,NA,NA,NA,NA
f97ab,task,flow.Sequence,3_0_5_0_0,NA,NA,completion,15807.9,783167,783166.88,783167.18,798975.08,798977,2023-07-10T17:10:44Z,798991.74,NULL,Kultur,utamaduni,d,NA,NA,NA,NA,sdf,NA,5,NA,NA,NA,NA,NA,NA,NA,NA,NA,NA,NA,NA,NA,NA,NA,NA,NA,NA,NA
f97ab,Deep Question,html.Page,3_0_5_0_1_0_0,NA,NA,form submission,10421.26,798978,798975.08,798991.74,809413,809414,2023-07-10T17:10:54Z,809423.66,NULL,Verzögerung,kuchelewa,d,NA,NA,NA,kechelewa,NA,NA,5,NA,NA,NA,NA,NA,NA,NA,NA,NA,NA,NA,NA,NA,NA,NA,NA,NA,NA,NA
f97ab,"""Richtig""-Screen",canvas.Screen,3_0_5_0_1_0_1,NA,NA,skipped,NA,809415,NA,NA,809413,809415,2023-07-10T17:10:54Z,809423.66,NULL,Verzögerung,kuchelewa,d,NA,NA,NA,NA,sdf,NA,5,NA,NA,NA,NA,NA,NA,NA,NA,NA,NA,NA,NA,NA,NA,NA,NA,NA,NA,NA
f97ab,"""Falsch""-Screen",canvas.Screen,3_0_5_0_1_0_2,NA,NA,timeout,4999.36,809418,809409.78,809423.66,814406.36,814408,2023-07-10T17:10:59Z,814423.02,NULL,Verzögerung,kuchelewa,d,NA,NA,NA,NA,sdf,0,5,NA,NA,NA,NA,NA,NA,NA,NA,NA,NA,NA,NA,NA,NA,NA,NA,NA,NA,NA
f97ab,deep,flow.Sequence,3_0_5_0_1_0,NA,NA,completion,15414.62,798977,798975.08,798991.74,814406.36,814409,2023-07-10T17:10:59Z,814423.02,NULL,Verzögerung,kuchelewa,d,NA,NA,NA,NA,sdf,NA,5,NA,NA,NA,NA,NA,NA,NA,NA,NA,NA,NA,NA,NA,NA,NA,NA,NA,NA,NA
f97ab,shallow,flow.Sequence,3_0_5_0_1_1,NA,NA,skipped,NA,814409,NA,NA,814406.36,814410,2023-07-10T17:10:59Z,814423.02,NULL,Verzögerung,kuchelewa,d,NA,NA,NA,NA,sdf,NA,5,NA,NA,NA,NA,NA,NA,NA,NA,NA,NA,NA,NA,NA,NA,NA,NA,NA,NA,NA
f97ab,task,flow.Sequence,3_0_5_0_1,NA,NA,completion,15414.62,798977,798975.08,798991.74,814406.36,814411,2023-07-10T17:10:59Z,814423.02,NULL,Verzögerung,kuchelewa,d,NA,NA,NA,NA,sdf,NA,5,NA,NA,NA,NA,NA,NA,NA,NA,NA,NA,NA,NA,NA,NA,NA,NA,NA,NA,NA
f97ab,Deep Question,html.Page,3_0_5_0_2_0_0,NA,NA,form submission,5772.98,814412,814406.36,814423.02,820196,820196,2023-07-10T17:11:05Z,820205.6,NULL,Begegnung,kukutana,d,NA,NA,NA,utamaduni,NA,NA,5,NA,NA,NA,NA,NA,NA,NA,NA,NA,NA,NA,NA,NA,NA,NA,NA,NA,NA,NA
f97ab,"""Richtig""-Screen",canvas.Screen,3_0_5_0_2_0_1,NA,NA,skipped,NA,820198,NA,NA,820196,820198,2023-07-10T17:11:05Z,820205.6,NULL,Begegnung,kukutana,d,NA,NA,NA,NA,sdf,NA,5,NA,NA,NA,NA,NA,NA,NA,NA,NA,NA,NA,NA,NA,NA,NA,NA,NA,NA,NA
f97ab,"""Falsch""-Screen",canvas.Screen,3_0_5_0_2_0_2,NA,NA,timeout,4999.4400000001,820201,820194.1,820205.6,825188.38,825190,2023-07-10T17:11:10Z,825205.04,NULL,Begegnung,kukutana,d,NA,NA,NA,NA,sdf,0,5,NA,NA,NA,NA,NA,NA,NA,NA,NA,NA,NA,NA,NA,NA,NA,NA,NA,NA,NA
f97ab,deep,flow.Sequence,3_0_5_0_2_0,NA,NA,completion,10765.36,814412,814406.36,814423.02,825188.38,825191,2023-07-10T17:11:10Z,825205.04,NULL,Begegnung,kukutana,d,NA,NA,NA,NA,sdf,NA,5,NA,NA,NA,NA,NA,NA,NA,NA,NA,NA,NA,NA,NA,NA,NA,NA,NA,NA,NA
f97ab,shallow,flow.Sequence,3_0_5_0_2_1,NA,NA,skipped,NA,825191,NA,NA,825188.38,825192,2023-07-10T17:11:10Z,825205.04,NULL,Begegnung,kukutana,d,NA,NA,NA,NA,sdf,NA,5,NA,NA,NA,NA,NA,NA,NA,NA,NA,NA,NA,NA,NA,NA,NA,NA,NA,NA,NA
f97ab,task,flow.Sequence,3_0_5_0_2,NA,NA,completion,10765.36,814411,814406.36,814423.02,825188.38,825192,2023-07-10T17:11:10Z,825205.04,NULL,Begegnung,kukutana,d,NA,NA,NA,NA,sdf,NA,5,NA,NA,NA,NA,NA,NA,NA,NA,NA,NA,NA,NA,NA,NA,NA,NA,NA,NA,NA
f97ab,deep,flow.Sequence,3_0_5_0_3_0,NA,NA,skipped,NA,825193,NA,NA,825188.38,825193,2023-07-10T17:11:10Z,825205.04,NULL,Prüfung,mtihani,s,mkulima,mtizamo,ufumbuzi,NA,sdf,NA,5,NA,NA,NA,NA,NA,NA,NA,NA,NA,NA,NA,NA,NA,NA,NA,NA,NA,NA,NA
f97ab,Shallow Question,html.Page,3_0_5_0_3_1_0,NA,NA,form submission,9247.96,825194,825188.38,825205.04,834453,834455,2023-07-10T17:11:19Z,834470.42,NULL,Prüfung,mtihani,s,mkulima,mtizamo,ufumbuzi,ufumbuzi,NA,NA,5,NA,NA,NA,NA,NA,NA,NA,NA,NA,NA,NA,NA,NA,NA,NA,NA,NA,NA,NA
f97ab,"""Richtig""-Screen",canvas.Screen,3_0_5_0_3_1_1,NA,NA,skipped,NA,834462,NA,NA,834453,834462,2023-07-10T17:11:19Z,834470.42,NULL,Prüfung,mtihani,s,mkulima,mtizamo,ufumbuzi,NA,sdf,NA,5,NA,NA,NA,NA,NA,NA,NA,NA,NA,NA,NA,NA,NA,NA,NA,NA,NA,NA,NA
f97ab,"""Falsch""-Screen",canvas.Screen,3_0_5_0_3_1_2,NA,NA,timeout,4999.3999999999,834468,834448.62,834470.42,839453.22,839454,2023-07-10T17:11:24Z,839469.82,NULL,Prüfung,mtihani,s,mkulima,mtizamo,ufumbuzi,NA,sdf,0,5,NA,NA,NA,NA,NA,NA,NA,NA,NA,NA,NA,NA,NA,NA,NA,NA,NA,NA,NA
f97ab,shallow,flow.Sequence,3_0_5_0_3_1,NA,NA,completion,14248.18,825194,825188.38,825205.04,839453.22,839456,2023-07-10T17:11:24Z,839469.82,NULL,Prüfung,mtihani,s,mkulima,mtizamo,ufumbuzi,NA,sdf,NA,5,NA,NA,NA,NA,NA,NA,NA,NA,NA,NA,NA,NA,NA,NA,NA,NA,NA,NA,NA
f97ab,task,flow.Sequence,3_0_5_0_3,NA,NA,completion,14248.18,825193,825188.38,825205.04,839453.22,839456,2023-07-10T17:11:24Z,839469.82,NULL,Prüfung,mtihani,s,mkulima,mtizamo,ufumbuzi,NA,sdf,NA,5,NA,NA,NA,NA,NA,NA,NA,NA,NA,NA,NA,NA,NA,NA,NA,NA,NA,NA,NA
f97ab,Deep Question,html.Page,3_0_5_0_4_0_0,NA,NA,form submission,5310.1800000001,839457,839453.22,839469.82,844780,844781,2023-07-10T17:11:30Z,844785.78,NULL,Genehmigung,idhini,d,NA,NA,NA,lk,NA,NA,5,NA,NA,NA,NA,NA,NA,NA,NA,NA,NA,NA,NA,NA,NA,NA,NA,NA,NA,NA
f97ab,"""Richtig""-Screen",canvas.Screen,3_0_5_0_4_0_1,NA,NA,skipped,NA,844782,NA,NA,844780,844782,2023-07-10T17:11:30Z,844785.78,NULL,Genehmigung,idhini,d,NA,NA,NA,NA,sdf,NA,5,NA,NA,NA,NA,NA,NA,NA,NA,NA,NA,NA,NA,NA,NA,NA,NA,NA,NA,NA
f97ab,"""Falsch""-Screen",canvas.Screen,3_0_5_0_4_0_2,NA,NA,timeout,4999.36,844784,844777.52,844785.78,849768.48,849770,2023-07-10T17:11:35Z,849785.14,NULL,Genehmigung,idhini,d,NA,NA,NA,NA,sdf,0,5,NA,NA,NA,NA,NA,NA,NA,NA,NA,NA,NA,NA,NA,NA,NA,NA,NA,NA,NA
f97ab,deep,flow.Sequence,3_0_5_0_4_0,NA,NA,completion,10298.66,839457,839453.22,839469.82,849768.48,849771,2023-07-10T17:11:35Z,849785.14,NULL,Genehmigung,idhini,d,NA,NA,NA,NA,sdf,NA,5,NA,NA,NA,NA,NA,NA,NA,NA,NA,NA,NA,NA,NA,NA,NA,NA,NA,NA,NA
f97ab,shallow,flow.Sequence,3_0_5_0_4_1,NA,NA,skipped,NA,849771,NA,NA,849768.48,849771,2023-07-10T17:11:35Z,849785.14,NULL,Genehmigung,idhini,d,NA,NA,NA,NA,sdf,NA,5,NA,NA,NA,NA,NA,NA,NA,NA,NA,NA,NA,NA,NA,NA,NA,NA,NA,NA,NA
f97ab,task,flow.Sequence,3_0_5_0_4,NA,NA,completion,10298.66,839457,839453.22,839469.82,849768.48,849772,2023-07-10T17:11:35Z,849785.14,NULL,Genehmigung,idhini,d,NA,NA,NA,NA,sdf,NA,5,NA,NA,NA,NA,NA,NA,NA,NA,NA,NA,NA,NA,NA,NA,NA,NA,NA,NA,NA
f97ab,deep,flow.Sequence,3_0_5_0_5_0,NA,NA,skipped,NA,849772,NA,NA,849768.48,849772,2023-07-10T17:11:35Z,849785.14,NULL,Fleisch,mshakiki,s,kizunguzungu,mshikamano,angusho,NA,sdf,NA,5,NA,NA,NA,NA,NA,NA,NA,NA,NA,NA,NA,NA,NA,NA,NA,NA,NA,NA,NA
f97ab,Shallow Question,html.Page,3_0_5_0_5_1_0,NA,NA,form submission,5332.86,849773,849768.48,849785.14,855118,855118,2023-07-10T17:11:40Z,855117.7,NULL,Fleisch,mshakiki,s,kizunguzungu,mshikamano,angusho,mshakiki,NA,NA,5,NA,NA,NA,NA,NA,NA,NA,NA,NA,NA,NA,NA,NA,NA,NA,NA,NA,NA,NA
f97ab,"""Richtig""-Screen",canvas.Screen,3_0_5_0_5_1_1,NA,NA,timeout,4999.4,855121,855114.9,855117.7,860100.48,860102,2023-07-10T17:11:45Z,860117.1,NULL,Fleisch,mshakiki,s,kizunguzungu,mshikamano,angusho,NA,sdf,1,5,NA,NA,NA,NA,NA,NA,NA,NA,NA,NA,NA,NA,NA,NA,NA,NA,NA,NA,NA
f97ab,"""Falsch""-Screen",canvas.Screen,3_0_5_0_5_1_2,NA,NA,skipped,NA,860108,NA,NA,860100.48,860109,2023-07-10T17:11:45Z,860117.1,NULL,Fleisch,mshakiki,s,kizunguzungu,mshikamano,angusho,NA,sdf,NA,5,NA,NA,NA,NA,NA,NA,NA,NA,NA,NA,NA,NA,NA,NA,NA,NA,NA,NA,NA
f97ab,shallow,flow.Sequence,3_0_5_0_5_1,NA,NA,completion,10315.34,849773,849768.48,849785.14,860100.48,860109,2023-07-10T17:11:45Z,860117.1,NULL,Fleisch,mshakiki,s,kizunguzungu,mshikamano,angusho,NA,sdf,NA,5,NA,NA,NA,NA,NA,NA,NA,NA,NA,NA,NA,NA,NA,NA,NA,NA,NA,NA,NA
f97ab,task,flow.Sequence,3_0_5_0_5,NA,NA,completion,10315.34,849772,849768.48,849785.14,860100.48,860110,2023-07-10T17:11:45Z,860117.1,NULL,Fleisch,mshakiki,s,kizunguzungu,mshikamano,angusho,NA,sdf,NA,5,NA,NA,NA,NA,NA,NA,NA,NA,NA,NA,NA,NA,NA,NA,NA,NA,NA,NA,NA
f97ab,deep,flow.Sequence,3_0_5_0_6_0,NA,NA,skipped,NA,860110,NA,NA,860100.48,860110,2023-07-10T17:11:45Z,860117.1,NULL,Aufstand,ugomaji,s,mazidio,msingi,kujieleza,NA,sdf,NA,5,NA,NA,NA,NA,NA,NA,NA,NA,NA,NA,NA,NA,NA,NA,NA,NA,NA,NA,NA
f97ab,Shallow Question,html.Page,3_0_5_0_6_1_0,NA,NA,form submission,6076.9,860111,860100.48,860117.1,866194,866195,2023-07-10T17:11:51Z,866199.66,NULL,Aufstand,ugomaji,s,mazidio,msingi,kujieleza,ugomaji,NA,NA,5,NA,NA,NA,NA,NA,NA,NA,NA,NA,NA,NA,NA,NA,NA,NA,NA,NA,NA,NA
f97ab,"""Richtig""-Screen",canvas.Screen,3_0_5_0_6_1_1,NA,NA,timeout,4999.38,866200,866189.04,866199.66,871182.38,871184,2023-07-10T17:11:56Z,871199.04,NULL,Aufstand,ugomaji,s,mazidio,msingi,kujieleza,NA,sdf,1,5,NA,NA,NA,NA,NA,NA,NA,NA,NA,NA,NA,NA,NA,NA,NA,NA,NA,NA,NA
f97ab,"""Falsch""-Screen",canvas.Screen,3_0_5_0_6_1_2,NA,NA,skipped,NA,871191,NA,NA,871182.38,871191,2023-07-10T17:11:56Z,871199.04,NULL,Aufstand,ugomaji,s,mazidio,msingi,kujieleza,NA,sdf,NA,5,NA,NA,NA,NA,NA,NA,NA,NA,NA,NA,NA,NA,NA,NA,NA,NA,NA,NA,NA
f97ab,shallow,flow.Sequence,3_0_5_0_6_1,NA,NA,completion,11065.28,860111,860100.48,860117.1,871182.38,871191,2023-07-10T17:11:56Z,871199.04,NULL,Aufstand,ugomaji,s,mazidio,msingi,kujieleza,NA,sdf,NA,5,NA,NA,NA,NA,NA,NA,NA,NA,NA,NA,NA,NA,NA,NA,NA,NA,NA,NA,NA
f97ab,task,flow.Sequence,3_0_5_0_6,NA,NA,completion,11065.28,860110,860100.48,860117.1,871182.38,871192,2023-07-10T17:11:56Z,871199.04,NULL,Aufstand,ugomaji,s,mazidio,msingi,kujieleza,NA,sdf,NA,5,NA,NA,NA,NA,NA,NA,NA,NA,NA,NA,NA,NA,NA,NA,NA,NA,NA,NA,NA
f97ab,deep,flow.Sequence,3_0_5_0_7_0,NA,NA,skipped,NA,871192,NA,NA,871182.38,871192,2023-07-10T17:11:56Z,871199.04,NULL,Integrität,uadilifu,s,muungano,mtiririko,upunguaji,NA,sdf,NA,5,NA,NA,NA,NA,NA,NA,NA,NA,NA,NA,NA,NA,NA,NA,NA,NA,NA,NA,NA
f97ab,Shallow Question,html.Page,3_0_5_0_7_1_0,NA,NA,form submission,6138.96,871193,871182.38,871199.04,877338,877338,2023-07-10T17:12:02Z,877348.22,NULL,Integrität,uadilifu,s,muungano,mtiririko,upunguaji,uadilifu,NA,NA,5,NA,NA,NA,NA,NA,NA,NA,NA,NA,NA,NA,NA,NA,NA,NA,NA,NA,NA,NA
f97ab,"""Richtig""-Screen",canvas.Screen,3_0_5_0_7_1_1,NA,NA,timeout,4999.3200000001,877342,877332.14,877348.22,882330.88,882333,2023-07-10T17:12:07Z,882347.54,NULL,Integrität,uadilifu,s,muungano,mtiririko,upunguaji,NA,sdf,1,5,NA,NA,NA,NA,NA,NA,NA,NA,NA,NA,NA,NA,NA,NA,NA,NA,NA,NA,NA
f97ab,"""Falsch""-Screen",canvas.Screen,3_0_5_0_7_1_2,NA,NA,skipped,NA,882339,NA,NA,882330.88,882339,2023-07-10T17:12:07Z,882347.54,NULL,Integrität,uadilifu,s,muungano,mtiririko,upunguaji,NA,sdf,NA,5,NA,NA,NA,NA,NA,NA,NA,NA,NA,NA,NA,NA,NA,NA,NA,NA,NA,NA,NA
f97ab,shallow,flow.Sequence,3_0_5_0_7_1,NA,NA,completion,11131.84,871193,871182.38,871199.04,882330.88,882340,2023-07-10T17:12:07Z,882347.54,NULL,Integrität,uadilifu,s,muungano,mtiririko,upunguaji,NA,sdf,NA,5,NA,NA,NA,NA,NA,NA,NA,NA,NA,NA,NA,NA,NA,NA,NA,NA,NA,NA,NA
f97ab,task,flow.Sequence,3_0_5_0_7,NA,NA,completion,11131.84,871192,871182.38,871199.04,882330.88,882340,2023-07-10T17:12:07Z,882347.54,NULL,Integrität,uadilifu,s,muungano,mtiririko,upunguaji,NA,sdf,NA,5,NA,NA,NA,NA,NA,NA,NA,NA,NA,NA,NA,NA,NA,NA,NA,NA,NA,NA,NA
f97ab,block,flow.Loop,3_0_5_0,NA,NA,completion,99163.7,783167,783166.88,783167.18,882330.88,882341,2023-07-10T17:12:07Z,882347.54,NULL,NA,NA,NA,NA,NA,NA,NA,sdf,NA,5,NA,NA,NA,NA,NA,NA,NA,NA,NA,NA,NA,NA,NA,NA,NA,NA,NA,NA,NA
f97ab,weiter,canvas.Screen,3_0_5_1,sdf,keypress(Space),response,1336.46,882341,882330.88,882347.54,883684,883701,2023-07-10T17:12:09Z,883765.6,NULL,NA,NA,NA,NA,NA,NA,NA,sdf,NA,5,NA,NA,NA,NA,NA,NA,NA,NA,NA,NA,NA,NA,NA,NA,NA,NA,NA,NA,NA
f97ab,check continue,flow.Sequence,3_0_5,NA,NA,completion,100516.82,783167,783166.88,783167.18,883684,883704,2023-07-10T17:12:09Z,883765.6,NULL,NA,NA,NA,NA,NA,NA,NA,sdf,NA,5,NA,NA,NA,NA,NA,NA,NA,NA,NA,NA,NA,NA,NA,NA,NA,NA,NA,NA,NA
f97ab,Deep Question,html.Page,3_0_6_0_0_0_0,NA,NA,form submission,7302.4,883765,883765.32,883765.6,891068,891073,2023-07-10T17:12:16Z,891079.72,NULL,Verzögerung,kuchelewa,d,NA,NA,NA,kuchelewa,NA,NA,6,NA,NA,NA,NA,NA,NA,NA,NA,NA,NA,NA,NA,NA,NA,NA,NA,NA,NA,NA
f97ab,"""Richtig""-Screen",canvas.Screen,3_0_6_0_0_0_1,NA,NA,timeout,4999.42,891084,891057.26,891079.72,896062.54,896064,2023-07-10T17:12:21Z,896079.14,NULL,Verzögerung,kuchelewa,d,NA,NA,NA,NA,dfs,1,6,NA,NA,NA,NA,NA,NA,NA,NA,NA,NA,NA,NA,NA,NA,NA,NA,NA,NA,NA
f97ab,"""Falsch""-Screen",canvas.Screen,3_0_6_0_0_0_2,NA,NA,skipped,NA,896070,NA,NA,896062.54,896070,2023-07-10T17:12:21Z,896079.14,NULL,Verzögerung,kuchelewa,d,NA,NA,NA,NA,dfs,NA,6,NA,NA,NA,NA,NA,NA,NA,NA,NA,NA,NA,NA,NA,NA,NA,NA,NA,NA,NA
f97ab,deep,flow.Sequence,3_0_6_0_0_0,NA,NA,completion,12296.94,883765,883765.32,883765.6,896062.54,896070,2023-07-10T17:12:21Z,896079.14,NULL,Verzögerung,kuchelewa,d,NA,NA,NA,NA,dfs,NA,6,NA,NA,NA,NA,NA,NA,NA,NA,NA,NA,NA,NA,NA,NA,NA,NA,NA,NA,NA
f97ab,shallow,flow.Sequence,3_0_6_0_0_1,NA,NA,skipped,NA,896071,NA,NA,896062.54,896071,2023-07-10T17:12:21Z,896079.14,NULL,Verzögerung,kuchelewa,d,NA,NA,NA,NA,dfs,NA,6,NA,NA,NA,NA,NA,NA,NA,NA,NA,NA,NA,NA,NA,NA,NA,NA,NA,NA,NA
f97ab,task,flow.Sequence,3_0_6_0_0,NA,NA,completion,12296.94,883765,883765.32,883765.6,896062.54,896072,2023-07-10T17:12:21Z,896079.14,NULL,Verzögerung,kuchelewa,d,NA,NA,NA,NA,dfs,NA,6,NA,NA,NA,NA,NA,NA,NA,NA,NA,NA,NA,NA,NA,NA,NA,NA,NA,NA,NA
f97ab,Deep Question,html.Page,3_0_6_0_1_0_0,NA,NA,form submission,13743.86,896073,896062.54,896079.14,909823,909824,2023-07-10T17:12:35Z,909827.32,NULL,Genehmigung,idhini,d,NA,NA,NA,nihadi,NA,NA,6,NA,NA,NA,NA,NA,NA,NA,NA,NA,NA,NA,NA,NA,NA,NA,NA,NA,NA,NA
f97ab,"""Richtig""-Screen",canvas.Screen,3_0_6_0_1_0_1,NA,NA,skipped,NA,909829,NA,NA,909823,909830,2023-07-10T17:12:35Z,909827.32,NULL,Genehmigung,idhini,d,NA,NA,NA,NA,dfs,NA,6,NA,NA,NA,NA,NA,NA,NA,NA,NA,NA,NA,NA,NA,NA,NA,NA,NA,NA,NA
f97ab,"""Falsch""-Screen",canvas.Screen,3_0_6_0_1_0_2,NA,NA,timeout,4999.4400000001,909834,909815.8,909827.32,914810.1,914812,2023-07-10T17:12:40Z,914826.76,NULL,Genehmigung,idhini,d,NA,NA,NA,NA,dfs,0,6,NA,NA,NA,NA,NA,NA,NA,NA,NA,NA,NA,NA,NA,NA,NA,NA,NA,NA,NA
f97ab,deep,flow.Sequence,3_0_6_0_1_0,NA,NA,completion,18730.96,896072,896062.54,896079.14,914810.1,914812,2023-07-10T17:12:40Z,914826.76,NULL,Genehmigung,idhini,d,NA,NA,NA,NA,dfs,NA,6,NA,NA,NA,NA,NA,NA,NA,NA,NA,NA,NA,NA,NA,NA,NA,NA,NA,NA,NA
f97ab,shallow,flow.Sequence,3_0_6_0_1_1,NA,NA,skipped,NA,914812,NA,NA,914810.1,914813,2023-07-10T17:12:40Z,914826.76,NULL,Genehmigung,idhini,d,NA,NA,NA,NA,dfs,NA,6,NA,NA,NA,NA,NA,NA,NA,NA,NA,NA,NA,NA,NA,NA,NA,NA,NA,NA,NA
f97ab,task,flow.Sequence,3_0_6_0_1,NA,NA,completion,18730.96,896072,896062.54,896079.14,914810.1,914813,2023-07-10T17:12:40Z,914826.76,NULL,Genehmigung,idhini,d,NA,NA,NA,NA,dfs,NA,6,NA,NA,NA,NA,NA,NA,NA,NA,NA,NA,NA,NA,NA,NA,NA,NA,NA,NA,NA
f97ab,deep,flow.Sequence,3_0_6_0_2_0,NA,NA,skipped,NA,914813,NA,NA,914810.1,914813,2023-07-10T17:12:40Z,914826.76,NULL,Prüfung,mtihani,s,mkulima,mtizamo,ufumbuzi,NA,dfs,NA,6,NA,NA,NA,NA,NA,NA,NA,NA,NA,NA,NA,NA,NA,NA,NA,NA,NA,NA,NA
f97ab,Shallow Question,html.Page,3_0_6_0_2_1_0,NA,NA,form submission,6843.24,914813,914810.1,914826.76,921670,921670,2023-07-10T17:12:47Z,921675.92,NULL,Prüfung,mtihani,s,mkulima,mtizamo,ufumbuzi,mtihani,NA,NA,6,NA,NA,NA,NA,NA,NA,NA,NA,NA,NA,NA,NA,NA,NA,NA,NA,NA,NA,NA
f97ab,"""Richtig""-Screen",canvas.Screen,3_0_6_0_2_1_1,NA,NA,timeout,4999.34,921677,921662.76,921675.92,926658.6,926660,2023-07-10T17:12:52Z,926675.26,NULL,Prüfung,mtihani,s,mkulima,mtizamo,ufumbuzi,NA,dfs,1,6,NA,NA,NA,NA,NA,NA,NA,NA,NA,NA,NA,NA,NA,NA,NA,NA,NA,NA,NA
f97ab,"""Falsch""-Screen",canvas.Screen,3_0_6_0_2_1_2,NA,NA,skipped,NA,926668,NA,NA,926658.6,926668,2023-07-10T17:12:52Z,926675.26,NULL,Prüfung,mtihani,s,mkulima,mtizamo,ufumbuzi,NA,dfs,NA,6,NA,NA,NA,NA,NA,NA,NA,NA,NA,NA,NA,NA,NA,NA,NA,NA,NA,NA,NA
f97ab,shallow,flow.Sequence,3_0_6_0_2_1,NA,NA,completion,11831.84,914813,914810.1,914826.76,926658.6,926669,2023-07-10T17:12:52Z,926675.26,NULL,Prüfung,mtihani,s,mkulima,mtizamo,ufumbuzi,NA,dfs,NA,6,NA,NA,NA,NA,NA,NA,NA,NA,NA,NA,NA,NA,NA,NA,NA,NA,NA,NA,NA
f97ab,task,flow.Sequence,3_0_6_0_2,NA,NA,completion,11831.84,914813,914810.1,914826.76,926658.6,926669,2023-07-10T17:12:52Z,926675.26,NULL,Prüfung,mtihani,s,mkulima,mtizamo,ufumbuzi,NA,dfs,NA,6,NA,NA,NA,NA,NA,NA,NA,NA,NA,NA,NA,NA,NA,NA,NA,NA,NA,NA,NA
f97ab,Deep Question,html.Page,3_0_6_0_3_0_0,NA,NA,form submission,4370.74,926670,926658.6,926675.26,931046,931046,2023-07-10T17:12:56Z,931057.9,NULL,Kultur,utamaduni,d,NA,NA,NA,kk,NA,NA,6,NA,NA,NA,NA,NA,NA,NA,NA,NA,NA,NA,NA,NA,NA,NA,NA,NA,NA,NA
f97ab,"""Richtig""-Screen",canvas.Screen,3_0_6_0_3_0_1,NA,NA,skipped,NA,931053,NA,NA,931046,931053,2023-07-10T17:12:56Z,931057.9,NULL,Kultur,utamaduni,d,NA,NA,NA,NA,dfs,NA,6,NA,NA,NA,NA,NA,NA,NA,NA,NA,NA,NA,NA,NA,NA,NA,NA,NA,NA,NA
f97ab,"""Falsch""-Screen",canvas.Screen,3_0_6_0_3_0_2,NA,NA,timeout,4999.5,931057,931039.88,931057.9,936040.74,936042,2023-07-10T17:13:01Z,936057.4,NULL,Kultur,utamaduni,d,NA,NA,NA,NA,dfs,0,6,NA,NA,NA,NA,NA,NA,NA,NA,NA,NA,NA,NA,NA,NA,NA,NA,NA,NA,NA
f97ab,deep,flow.Sequence,3_0_6_0_3_0,NA,NA,completion,9365.48,926670,926658.6,926675.26,936040.74,936043,2023-07-10T17:13:01Z,936057.4,NULL,Kultur,utamaduni,d,NA,NA,NA,NA,dfs,NA,6,NA,NA,NA,NA,NA,NA,NA,NA,NA,NA,NA,NA,NA,NA,NA,NA,NA,NA,NA
f97ab,shallow,flow.Sequence,3_0_6_0_3_1,NA,NA,skipped,NA,936043,NA,NA,936040.74,936044,2023-07-10T17:13:01Z,936057.4,NULL,Kultur,utamaduni,d,NA,NA,NA,NA,dfs,NA,6,NA,NA,NA,NA,NA,NA,NA,NA,NA,NA,NA,NA,NA,NA,NA,NA,NA,NA,NA
f97ab,task,flow.Sequence,3_0_6_0_3,NA,NA,completion,9365.48,926670,926658.6,926675.26,936040.74,936044,2023-07-10T17:13:01Z,936057.4,NULL,Kultur,utamaduni,d,NA,NA,NA,NA,dfs,NA,6,NA,NA,NA,NA,NA,NA,NA,NA,NA,NA,NA,NA,NA,NA,NA,NA,NA,NA,NA
f97ab,deep,flow.Sequence,3_0_6_0_4_0,NA,NA,skipped,NA,936045,NA,NA,936040.74,936045,2023-07-10T17:13:01Z,936057.4,NULL,Fleisch,mshakiki,s,kizunguzungu,mshikamano,angusho,NA,dfs,NA,6,NA,NA,NA,NA,NA,NA,NA,NA,NA,NA,NA,NA,NA,NA,NA,NA,NA,NA,NA
f97ab,Shallow Question,html.Page,3_0_6_0_4_1_0,NA,NA,form submission,15986.6,936045,936040.74,936057.4,952044,952048,2023-07-10T17:13:17Z,952055.24,NULL,Fleisch,mshakiki,s,kizunguzungu,mshikamano,angusho,mshakiki,NA,NA,6,NA,NA,NA,NA,NA,NA,NA,NA,NA,NA,NA,NA,NA,NA,NA,NA,NA,NA,NA
f97ab,"""Richtig""-Screen",canvas.Screen,3_0_6_0_4_1_1,NA,NA,timeout,4999.46,952060,952031.74,952055.24,957038.04,957039,2023-07-10T17:13:22Z,957054.7,NULL,Fleisch,mshakiki,s,kizunguzungu,mshikamano,angusho,NA,dfs,1,6,NA,NA,NA,NA,NA,NA,NA,NA,NA,NA,NA,NA,NA,NA,NA,NA,NA,NA,NA
f97ab,"""Falsch""-Screen",canvas.Screen,3_0_6_0_4_1_2,NA,NA,skipped,NA,957047,NA,NA,957038.04,957048,2023-07-10T17:13:22Z,957054.7,NULL,Fleisch,mshakiki,s,kizunguzungu,mshikamano,angusho,NA,dfs,NA,6,NA,NA,NA,NA,NA,NA,NA,NA,NA,NA,NA,NA,NA,NA,NA,NA,NA,NA,NA
f97ab,shallow,flow.Sequence,3_0_6_0_4_1,NA,NA,completion,20980.64,936045,936040.74,936057.4,957038.04,957049,2023-07-10T17:13:22Z,957054.7,NULL,Fleisch,mshakiki,s,kizunguzungu,mshikamano,angusho,NA,dfs,NA,6,NA,NA,NA,NA,NA,NA,NA,NA,NA,NA,NA,NA,NA,NA,NA,NA,NA,NA,NA
f97ab,task,flow.Sequence,3_0_6_0_4,NA,NA,completion,20980.64,936044,936040.74,936057.4,957038.04,957049,2023-07-10T17:13:22Z,957054.7,NULL,Fleisch,mshakiki,s,kizunguzungu,mshikamano,angusho,NA,dfs,NA,6,NA,NA,NA,NA,NA,NA,NA,NA,NA,NA,NA,NA,NA,NA,NA,NA,NA,NA,NA
f97ab,Deep Question,html.Page,3_0_6_0_5_0_0,NA,NA,form submission,4522.3,957050,957038.04,957054.7,961577,961578,2023-07-10T17:13:27Z,961587.28,NULL,Begegnung,kukutana,d,NA,NA,NA,kk,NA,NA,6,NA,NA,NA,NA,NA,NA,NA,NA,NA,NA,NA,NA,NA,NA,NA,NA,NA,NA,NA
f97ab,"""Richtig""-Screen",canvas.Screen,3_0_6_0_5_0_1,NA,NA,skipped,NA,961584,NA,NA,961577,961585,2023-07-10T17:13:27Z,961587.28,NULL,Begegnung,kukutana,d,NA,NA,NA,NA,dfs,NA,6,NA,NA,NA,NA,NA,NA,NA,NA,NA,NA,NA,NA,NA,NA,NA,NA,NA,NA,NA
f97ab,"""Falsch""-Screen",canvas.Screen,3_0_6_0_5_0_2,NA,NA,timeout,4999.46,961590,961570.84,961587.28,966570.12,966572,2023-07-10T17:13:32Z,966586.74,NULL,Begegnung,kukutana,d,NA,NA,NA,NA,dfs,0,6,NA,NA,NA,NA,NA,NA,NA,NA,NA,NA,NA,NA,NA,NA,NA,NA,NA,NA,NA
f97ab,deep,flow.Sequence,3_0_6_0_5_0,NA,NA,completion,9515.42,957050,957038.04,957054.7,966570.12,966573,2023-07-10T17:13:32Z,966586.74,NULL,Begegnung,kukutana,d,NA,NA,NA,NA,dfs,NA,6,NA,NA,NA,NA,NA,NA,NA,NA,NA,NA,NA,NA,NA,NA,NA,NA,NA,NA,NA
f97ab,shallow,flow.Sequence,3_0_6_0_5_1,NA,NA,skipped,NA,966573,NA,NA,966570.12,966573,2023-07-10T17:13:32Z,966586.74,NULL,Begegnung,kukutana,d,NA,NA,NA,NA,dfs,NA,6,NA,NA,NA,NA,NA,NA,NA,NA,NA,NA,NA,NA,NA,NA,NA,NA,NA,NA,NA
f97ab,task,flow.Sequence,3_0_6_0_5,NA,NA,completion,9515.42,957050,957038.04,957054.7,966570.12,966575,2023-07-10T17:13:32Z,966586.74,NULL,Begegnung,kukutana,d,NA,NA,NA,NA,dfs,NA,6,NA,NA,NA,NA,NA,NA,NA,NA,NA,NA,NA,NA,NA,NA,NA,NA,NA,NA,NA
f97ab,deep,flow.Sequence,3_0_6_0_6_0,NA,NA,skipped,NA,966575,NA,NA,966570.12,966575,2023-07-10T17:13:32Z,966586.74,NULL,Integrität,uadilifu,s,muungano,mtiririko,upunguaji,NA,dfs,NA,6,NA,NA,NA,NA,NA,NA,NA,NA,NA,NA,NA,NA,NA,NA,NA,NA,NA,NA,NA
f97ab,Shallow Question,html.Page,3_0_6_0_6_1_0,NA,NA,form submission,6419.26,966576,966570.12,966586.74,973006,973007,2023-07-10T17:13:38Z,973002.56,NULL,Integrität,uadilifu,s,muungano,mtiririko,upunguaji,uadilifu,NA,NA,6,NA,NA,NA,NA,NA,NA,NA,NA,NA,NA,NA,NA,NA,NA,NA,NA,NA,NA,NA
f97ab,"""Richtig""-Screen",canvas.Screen,3_0_6_0_6_1_1,NA,NA,timeout,4999.3799999999,973014,973000.94,973002.56,977985.34,977986,2023-07-10T17:13:43Z,978001.94,NULL,Integrität,uadilifu,s,muungano,mtiririko,upunguaji,NA,dfs,1,6,NA,NA,NA,NA,NA,NA,NA,NA,NA,NA,NA,NA,NA,NA,NA,NA,NA,NA,NA
f97ab,"""Falsch""-Screen",canvas.Screen,3_0_6_0_6_1_2,NA,NA,skipped,NA,977996,NA,NA,977985.34,977996,2023-07-10T17:13:43Z,978001.94,NULL,Integrität,uadilifu,s,muungano,mtiririko,upunguaji,NA,dfs,NA,6,NA,NA,NA,NA,NA,NA,NA,NA,NA,NA,NA,NA,NA,NA,NA,NA,NA,NA,NA
f97ab,shallow,flow.Sequence,3_0_6_0_6_1,NA,NA,completion,11398.6,966576,966570.12,966586.74,977985.34,977996,2023-07-10T17:13:43Z,978001.94,NULL,Integrität,uadilifu,s,muungano,mtiririko,upunguaji,NA,dfs,NA,6,NA,NA,NA,NA,NA,NA,NA,NA,NA,NA,NA,NA,NA,NA,NA,NA,NA,NA,NA
f97ab,task,flow.Sequence,3_0_6_0_6,NA,NA,completion,11398.6,966575,966570.12,966586.74,977985.34,977997,2023-07-10T17:13:43Z,978001.94,NULL,Integrität,uadilifu,s,muungano,mtiririko,upunguaji,NA,dfs,NA,6,NA,NA,NA,NA,NA,NA,NA,NA,NA,NA,NA,NA,NA,NA,NA,NA,NA,NA,NA
f97ab,deep,flow.Sequence,3_0_6_0_7_0,NA,NA,skipped,NA,977997,NA,NA,977985.34,977997,2023-07-10T17:13:43Z,978001.94,NULL,Aufstand,ugomaji,s,mazidio,msingi,kujieleza,NA,dfs,NA,6,NA,NA,NA,NA,NA,NA,NA,NA,NA,NA,NA,NA,NA,NA,NA,NA,NA,NA,NA
f97ab,Shallow Question,html.Page,3_0_6_0_7_1_0,NA,NA,form submission,7455.0600000001,977997,977985.34,978001.94,985457,985457,2023-07-10T17:13:50Z,985467.6,NULL,Aufstand,ugomaji,s,mazidio,msingi,kujieleza,ugomaji,NA,NA,6,NA,NA,NA,NA,NA,NA,NA,NA,NA,NA,NA,NA,NA,NA,NA,NA,NA,NA,NA
f97ab,"""Richtig""-Screen",canvas.Screen,3_0_6_0_7_1_1,NA,NA,timeout,4999.4,985463,985452.08,985467.6,990450.34,990451,2023-07-10T17:13:55Z,990467,NULL,Aufstand,ugomaji,s,mazidio,msingi,kujieleza,NA,dfs,1,6,NA,NA,NA,NA,NA,NA,NA,NA,NA,NA,NA,NA,NA,NA,NA,NA,NA,NA,NA
