observation,sender,sender_type,sender_id,response,response_action,ended_on,duration,time_run,time_render,time_show,time_end,time_commit,timestamp,time_switch,german,swahili,enc,distractor1,distractor2,distractor3,response_2,x,correct,distractors,url_vp,url_sess,meta_labjs_version,meta_location,meta_user_agent,meta_platform,meta_language,meta_locale,meta_time_zone,meta_timezone_offset,meta_screen_width,meta_screen_height,meta_scroll_width,meta_scroll_height,meta_window_inner_width,meta_window_inner_height,meta_device_pixel_ratio,meta_labjs_build_flavor,meta_labjs_build_commit
9b9e2,Introduction delayed retrieval,canvas.Screen,0,weiter,keypress(Space),response,10718.153,4844.5948,4871.2019,4891.4418,15609.5948,15618.3948,2024-02-19T19:32:29Z,15659.4494,NA,NA,NA,NA,NA,NA,NA,NA,NA,NULL,140,2,20.2.4,https://neurocog.fernuni.ch/studies/vweber/aberisha/delayed/index.html?vp=140&sess=2,"Mozilla/5.0 (Windows NT 10.0; Win64; x64) AppleWebKit/537.36 (KHTML, like Gecko) Chrome/64.0.3282.140 Safari/537.36 Edge/18.17763",Win32,de-DE,de-DE,Europe/Budapest,-60,1366,768,1366,655,1366,655,1,production,f5b4a49f956347addd546a832a3327688c2c0fef
9b9e2,Deep Question,html.Page,1_0_0_0,NA,NA,form submission,45413.4454,15626.4948,15641.7856,15659.4494,61072.8948,61079.4948,2024-02-19T19:33:15Z,61137.831,Annäherung,maegesho,s,madahili,kujiamini,mapendekezo,kkk,Anfrage senden,NA,NULL,NA,NA,NA,NA,NA,NA,NA,NA,NA,NA,NA,NA,NA,NA,NA,NA,NA,NA,NA
9b9e2,Save data screen,canvas.Screen,1_0_0_1,NA,NA,timeout,528.2299,61105.9948,61123.0646,61137.831,61618.2314,61623.5948,2024-02-19T19:33:15Z,61666.0609,Annäherung,maegesho,s,madahili,kujiamini,mapendekezo,NA,NA,0,NULL,NA,NA,NA,NA,NA,NA,NA,NA,NA,NA,NA,NA,NA,NA,NA,NA,NA,NA,NA
9b9e2,deep,flow.Sequence,1_0_0,NA,NA,completion,45958.782,15625.0948,15641.7856,15659.4494,61618.2314,61629.0948,2024-02-19T19:33:15Z,61666.0609,Annäherung,maegesho,s,madahili,kujiamini,mapendekezo,NA,NA,NA,NULL,NA,NA,NA,NA,NA,NA,NA,NA,NA,NA,NA,NA,NA,NA,NA,NA,NA,NA,NA
9b9e2,task,flow.Sequence,1_0,NA,NA,completion,45958.782,15623.7948,15641.7856,15659.4494,61618.2314,61634.0948,2024-02-19T19:33:15Z,61666.0609,Annäherung,maegesho,s,madahili,kujiamini,mapendekezo,NA,NA,NA,NULL,NA,NA,NA,NA,NA,NA,NA,NA,NA,NA,NA,NA,NA,NA,NA,NA,NA,NA,NA
9b9e2,Deep Question,html.Page,1_1_0_0,NA,NA,form submission,23512.1339,61640.1948,61618.2314,61666.0609,85178.1948,85182.3948,2024-02-19T19:33:39Z,85241.5539,Zuwachs,nyongeza,s,matilaba,udhibiti,hudhurio,n,Anfrage senden,NA,NULL,NA,NA,NA,NA,NA,NA,NA,NA,NA,NA,NA,NA,NA,NA,NA,NA,NA,NA,NA
9b9e2,Save data screen,canvas.Screen,1_1_0_1,NA,NA,timeout,520.6133,85203.7948,85228.4753,85241.5539,85718.2252,85721.1948,2024-02-19T19:33:39Z,85762.1672,Zuwachs,nyongeza,s,matilaba,udhibiti,hudhurio,NA,NA,0,NULL,NA,NA,NA,NA,NA,NA,NA,NA,NA,NA,NA,NA,NA,NA,NA,NA,NA,NA,NA
9b9e2,deep,flow.Sequence,1_1_0,NA,NA,completion,24052.1643,61638.5948,61618.2314,61666.0609,85718.2252,85726.6948,2024-02-19T19:33:39Z,85762.1672,Zuwachs,nyongeza,s,matilaba,udhibiti,hudhurio,NA,NA,NA,NULL,NA,NA,NA,NA,NA,NA,NA,NA,NA,NA,NA,NA,NA,NA,NA,NA,NA,NA,NA
9b9e2,task,flow.Sequence,1_1,NA,NA,completion,24052.1643,61636.9948,61618.2314,61666.0609,85718.2252,85730.8948,2024-02-19T19:33:39Z,85762.1672,Zuwachs,nyongeza,s,matilaba,udhibiti,hudhurio,NA,NA,NA,NULL,NA,NA,NA,NA,NA,NA,NA,NA,NA,NA,NA,NA,NA,NA,NA,NA,NA,NA,NA
9b9e2,Deep Question,html.Page,1_2_0_0,NA,NA,form submission,21539.4276,85736.7948,85718.2252,85762.1672,107301.5948,107306.7948,2024-02-19T19:34:01Z,107380.5459,Zufall,kikuti,s,kukosekana,uchoraji,leseni,lökji,Anfrage senden,NA,NULL,NA,NA,NA,NA,NA,NA,NA,NA,NA,NA,NA,NA,NA,NA,NA,NA,NA,NA,NA
9b9e2,Save data screen,canvas.Screen,1_2_0_1,NA,NA,timeout,520.0037,107322.8948,107350.3465,107380.5459,107857.1854,107859.8948,2024-02-19T19:34:02Z,107900.5496,Zufall,kikuti,s,kukosekana,uchoraji,leseni,NA,NA,0,NULL,NA,NA,NA,NA,NA,NA,NA,NA,NA,NA,NA,NA,NA,NA,NA,NA,NA,NA,NA
9b9e2,deep,flow.Sequence,1_2_0,NA,NA,completion,22095.0182,85735.3948,85718.2252,85762.1672,107857.1854,107864.4948,2024-02-19T19:34:02Z,107900.5496,Zufall,kikuti,s,kukosekana,uchoraji,leseni,NA,NA,NA,NULL,NA,NA,NA,NA,NA,NA,NA,NA,NA,NA,NA,NA,NA,NA,NA,NA,NA,NA,NA
9b9e2,task,flow.Sequence,1_2,NA,NA,completion,22095.0182,85733.8948,85718.2252,85762.1672,107857.1854,107868.6948,2024-02-19T19:34:02Z,107900.5496,Zufall,kikuti,s,kukosekana,uchoraji,leseni,NA,NA,NA,NULL,NA,NA,NA,NA,NA,NA,NA,NA,NA,NA,NA,NA,NA,NA,NA,NA,NA,NA,NA
9b9e2,Deep Question,html.Page,1_3_0_0,NA,NA,form submission,26111.9452,107874.1948,107857.1854,107900.5496,134012.4948,134017.9948,2024-02-19T19:34:28Z,134065.2545,Verstand,ufahamivu,s,shakawa,hadhari,mhandisi,n,Anfrage senden,NA,NULL,NA,NA,NA,NA,NA,NA,NA,NA,NA,NA,NA,NA,NA,NA,NA,NA,NA,NA,NA
9b9e2,Save data screen,canvas.Screen,1_3_0_1,NA,NA,timeout,538.7591,134034.6948,134050.7932,134065.2545,134545.2445,134548.9948,2024-02-19T19:34:28Z,134604.0136,Verstand,ufahamivu,s,shakawa,hadhari,mhandisi,NA,NA,0,NULL,NA,NA,NA,NA,NA,NA,NA,NA,NA,NA,NA,NA,NA,NA,NA,NA,NA,NA,NA
9b9e2,deep,flow.Sequence,1_3_0,NA,NA,completion,26644.6949,107872.7948,107857.1854,107900.5496,134545.2445,134554.9948,2024-02-19T19:34:28Z,134604.0136,Verstand,ufahamivu,s,shakawa,hadhari,mhandisi,NA,NA,NA,NULL,NA,NA,NA,NA,NA,NA,NA,NA,NA,NA,NA,NA,NA,NA,NA,NA,NA,NA,NA
9b9e2,task,flow.Sequence,1_3,NA,NA,completion,26644.6949,107871.2948,107857.1854,107900.5496,134545.2445,134560.4948,2024-02-19T19:34:28Z,134604.0136,Verstand,ufahamivu,s,shakawa,hadhari,mhandisi,NA,NA,NA,NULL,NA,NA,NA,NA,NA,NA,NA,NA,NA,NA,NA,NA,NA,NA,NA,NA,NA,NA,NA
9b9e2,Deep Question,html.Page,1_4_0_0,NA,NA,form submission,8276.9812,134567.7948,134545.2445,134604.0136,142880.9948,142885.0948,2024-02-19T19:34:37Z,142950.4448,Schönheit,kirembo,s,mahojiano,msisimko,jitihadi,bhj,Anfrage senden,NA,NULL,NA,NA,NA,NA,NA,NA,NA,NA,NA,NA,NA,NA,NA,NA,NA,NA,NA,NA,NA
9b9e2,Save data screen,canvas.Screen,1_4_0_1,NA,NA,timeout,535.66380000001,142905.8948,142923.3755,142950.4448,143427.7893,143430.4948,2024-02-19T19:34:37Z,143486.1086,Schönheit,kirembo,s,mahojiano,msisimko,jitihadi,NA,NA,0,NULL,NA,NA,NA,NA,NA,NA,NA,NA,NA,NA,NA,NA,NA,NA,NA,NA,NA,NA,NA
9b9e2,deep,flow.Sequence,1_4_0,NA,NA,completion,8823.7757,134565.7948,134545.2445,134604.0136,143427.7893,143435.2948,2024-02-19T19:34:37Z,143486.1086,Schönheit,kirembo,s,mahojiano,msisimko,jitihadi,NA,NA,NA,NULL,NA,NA,NA,NA,NA,NA,NA,NA,NA,NA,NA,NA,NA,NA,NA,NA,NA,NA,NA
9b9e2,task,flow.Sequence,1_4,NA,NA,completion,8823.7757,134563.8948,134545.2445,134604.0136,143427.7893,143439.2948,2024-02-19T19:34:37Z,143486.1086,Schönheit,kirembo,s,mahojiano,msisimko,jitihadi,NA,NA,NA,NULL,NA,NA,NA,NA,NA,NA,NA,NA,NA,NA,NA,NA,NA,NA,NA,NA,NA,NA,NA
9b9e2,Deep Question,html.Page,1_5_0_0,NA,NA,form submission,23360.0862,143445.1948,143427.7893,143486.1086,166846.1948,166850.6948,2024-02-19T19:35:01Z,166906.5401,Vorsorge,tahadhari,d,ufafanuzi,makini,mashambani,lkk,Anfrage senden,NA,NULL,NA,NA,NA,NA,NA,NA,NA,NA,NA,NA,NA,NA,NA,NA,NA,NA,NA,NA,NA
9b9e2,Save data screen,canvas.Screen,1_5_0_1,NA,NA,timeout,553.79089999999,166865.2948,166881.7254,166906.5401,167389.3675,167391.6948,2024-02-19T19:35:01Z,167460.331,Vorsorge,tahadhari,d,ufafanuzi,makini,mashambani,NA,NA,0,NULL,NA,NA,NA,NA,NA,NA,NA,NA,NA,NA,NA,NA,NA,NA,NA,NA,NA,NA,NA
9b9e2,deep,flow.Sequence,1_5_0,NA,NA,completion,23903.2589,143443.8948,143427.7893,143486.1086,167389.3675,167395.2948,2024-02-19T19:35:01Z,167460.331,Vorsorge,tahadhari,d,ufafanuzi,makini,mashambani,NA,NA,NA,NULL,NA,NA,NA,NA,NA,NA,NA,NA,NA,NA,NA,NA,NA,NA,NA,NA,NA,NA,NA
9b9e2,task,flow.Sequence,1_5,NA,NA,completion,23903.2589,143442.2948,143427.7893,143486.1086,167389.3675,167399.6948,2024-02-19T19:35:01Z,167460.331,Vorsorge,tahadhari,d,ufafanuzi,makini,mashambani,NA,NA,NA,NULL,NA,NA,NA,NA,NA,NA,NA,NA,NA,NA,NA,NA,NA,NA,NA,NA,NA,NA,NA
9b9e2,Deep Question,html.Page,1_6_0_0,NA,NA,form submission,6759.7638,167405.3948,167389.3675,167460.331,174220.0948,174225.4948,2024-02-19T19:35:08Z,174278.9598,Sympathie,mapendano,s,dhamiria,fungamano,maazimio,",.nm",Anfrage senden,NA,NULL,NA,NA,NA,NA,NA,NA,NA,NA,NA,NA,NA,NA,NA,NA,NA,NA,NA,NA,NA
9b9e2,Save data screen,canvas.Screen,1_6_0_1,NA,NA,timeout,542.96279999998,174242.5948,174255.7849,174278.9598,174755.9661,174758.3948,2024-02-19T19:35:08Z,174821.9226,Sympathie,mapendano,s,dhamiria,fungamano,maazimio,NA,NA,0,NULL,NA,NA,NA,NA,NA,NA,NA,NA,NA,NA,NA,NA,NA,NA,NA,NA,NA,NA,NA
9b9e2,deep,flow.Sequence,1_6_0,NA,NA,completion,7295.6351,167403.9948,167389.3675,167460.331,174755.9661,174761.5948,2024-02-19T19:35:08Z,174821.9226,Sympathie,mapendano,s,dhamiria,fungamano,maazimio,NA,NA,NA,NULL,NA,NA,NA,NA,NA,NA,NA,NA,NA,NA,NA,NA,NA,NA,NA,NA,NA,NA,NA
9b9e2,task,flow.Sequence,1_6,NA,NA,completion,7295.6351,167402.2948,167389.3675,167460.331,174755.9661,174765.7948,2024-02-19T19:35:09Z,174821.9226,Sympathie,mapendano,s,dhamiria,fungamano,maazimio,NA,NA,NA,NULL,NA,NA,NA,NA,NA,NA,NA,NA,NA,NA,NA,NA,NA,NA,NA,NA,NA,NA,NA
9b9e2,Deep Question,html.Page,1_7_0_0,NA,NA,form submission,32061.5722,174771.4948,174755.9661,174821.9226,206883.4948,206887.6948,2024-02-19T19:35:41Z,206920.1212,Ausschluss,kutengwa,d,ununuzi,taratibu,madeni,kichekeso,Anfrage senden,NA,NULL,NA,NA,NA,NA,NA,NA,NA,NA,NA,NA,NA,NA,NA,NA,NA,NA,NA,NA,NA
9b9e2,Save data screen,canvas.Screen,1_7_0_1,NA,NA,timeout,520.4137,206898.3948,206912.0821,206920.1212,207398.8529,207401.4948,2024-02-19T19:35:41Z,207440.5349,Ausschluss,kutengwa,d,ununuzi,taratibu,madeni,NA,NA,0,NULL,NA,NA,NA,NA,NA,NA,NA,NA,NA,NA,NA,NA,NA,NA,NA,NA,NA,NA,NA
9b9e2,deep,flow.Sequence,1_7_0,NA,NA,completion,32576.9303,174769.7948,174755.9661,174821.9226,207398.8529,207405.5948,2024-02-19T19:35:41Z,207440.5349,Ausschluss,kutengwa,d,ununuzi,taratibu,madeni,NA,NA,NA,NULL,NA,NA,NA,NA,NA,NA,NA,NA,NA,NA,NA,NA,NA,NA,NA,NA,NA,NA,NA
9b9e2,task,flow.Sequence,1_7,NA,NA,completion,32576.9303,174768.3948,174755.9661,174821.9226,207398.8529,207409.0948,2024-02-19T19:35:41Z,207440.5349,Ausschluss,kutengwa,d,ununuzi,taratibu,madeni,NA,NA,NA,NULL,NA,NA,NA,NA,NA,NA,NA,NA,NA,NA,NA,NA,NA,NA,NA,NA,NA,NA,NA
9b9e2,Deep Question,html.Page,1_8_0_0,NA,NA,form submission,12223.6599,207414.6948,207398.8529,207440.5349,219664.1948,219668.7948,2024-02-19T19:35:53Z,219735.5921,Symbol,kielezo,s,kinyume,nderemo,utayari,k,Anfrage senden,NA,NULL,NA,NA,NA,NA,NA,NA,NA,NA,NA,NA,NA,NA,NA,NA,NA,NA,NA,NA,NA
9b9e2,Save data screen,canvas.Screen,1_8_0_1,NA,NA,timeout,518.0196,219679.9948,219704.8018,219735.5921,220212.844,220215.6948,2024-02-19T19:35:54Z,220253.6117,Symbol,kielezo,s,kinyume,nderemo,utayari,NA,NA,0,NULL,NA,NA,NA,NA,NA,NA,NA,NA,NA,NA,NA,NA,NA,NA,NA,NA,NA,NA,NA
9b9e2,deep,flow.Sequence,1_8_0,NA,NA,completion,12772.3091,207412.7948,207398.8529,207440.5349,220212.844,220219.4948,2024-02-19T19:35:54Z,220253.6117,Symbol,kielezo,s,kinyume,nderemo,utayari,NA,NA,NA,NULL,NA,NA,NA,NA,NA,NA,NA,NA,NA,NA,NA,NA,NA,NA,NA,NA,NA,NA,NA
9b9e2,task,flow.Sequence,1_8,NA,NA,completion,12772.3091,207411.2948,207398.8529,207440.5349,220212.844,220222.4948,2024-02-19T19:35:54Z,220253.6117,Symbol,kielezo,s,kinyume,nderemo,utayari,NA,NA,NA,NULL,NA,NA,NA,NA,NA,NA,NA,NA,NA,NA,NA,NA,NA,NA,NA,NA,NA,NA,NA
9b9e2,Deep Question,html.Page,1_9_0_0,NA,NA,form submission,6878.4831,220226.4948,220212.844,220253.6117,227132.0948,227136.5948,2024-02-19T19:36:01Z,227165.8993,Beweis,ushahidi,d,marudio,kizuizi,mtendaji,jjh,Anfrage senden,NA,NULL,NA,NA,NA,NA,NA,NA,NA,NA,NA,NA,NA,NA,NA,NA,NA,NA,NA,NA,NA
9b9e2,Save data screen,canvas.Screen,1_9_0_1,NA,NA,timeout,556.73210000002,227146.4948,227158.6202,227165.8993,227643.5406,227647.2948,2024-02-19T19:36:01Z,227722.6314,Beweis,ushahidi,d,marudio,kizuizi,mtendaji,NA,NA,0,NULL,NA,NA,NA,NA,NA,NA,NA,NA,NA,NA,NA,NA,NA,NA,NA,NA,NA,NA,NA
9b9e2,deep,flow.Sequence,1_9_0,NA,NA,completion,7389.9289,220225.3948,220212.844,220253.6117,227643.5406,227651.1948,2024-02-19T19:36:01Z,227722.6314,Beweis,ushahidi,d,marudio,kizuizi,mtendaji,NA,NA,NA,NULL,NA,NA,NA,NA,NA,NA,NA,NA,NA,NA,NA,NA,NA,NA,NA,NA,NA,NA,NA
9b9e2,task,flow.Sequence,1_9,NA,NA,completion,7389.9289,220224.3948,220212.844,220253.6117,227643.5406,227655.5948,2024-02-19T19:36:01Z,227722.6314,Beweis,ushahidi,d,marudio,kizuizi,mtendaji,NA,NA,NA,NULL,NA,NA,NA,NA,NA,NA,NA,NA,NA,NA,NA,NA,NA,NA,NA,NA,NA,NA,NA
9b9e2,Deep Question,html.Page,1_10_0_0,NA,NA,form submission,6811.6634,227661.1948,227643.5406,227722.6314,234534.2948,234538.8948,2024-02-19T19:36:08Z,234576.9561,Gelegenheit,wakati,d,mchanganyiko,kipaumbele,kushuku,".d,",Anfrage senden,NA,NULL,NA,NA,NA,NA,NA,NA,NA,NA,NA,NA,NA,NA,NA,NA,NA,NA,NA,NA,NA
9b9e2,Save data screen,canvas.Screen,1_10_0_1,NA,NA,timeout,525.1507,234549.3948,234562.2866,234576.9561,235059.7992,235062.1948,2024-02-19T19:36:09Z,235102.1068,Gelegenheit,wakati,d,mchanganyiko,kipaumbele,kushuku,NA,NA,0,NULL,NA,NA,NA,NA,NA,NA,NA,NA,NA,NA,NA,NA,NA,NA,NA,NA,NA,NA,NA
9b9e2,deep,flow.Sequence,1_10_0,NA,NA,completion,7337.1678,227659.7948,227643.5406,227722.6314,235059.7992,235066.2948,2024-02-19T19:36:09Z,235102.1068,Gelegenheit,wakati,d,mchanganyiko,kipaumbele,kushuku,NA,NA,NA,NULL,NA,NA,NA,NA,NA,NA,NA,NA,NA,NA,NA,NA,NA,NA,NA,NA,NA,NA,NA
9b9e2,task,flow.Sequence,1_10,NA,NA,completion,7337.1678,227658.0948,227643.5406,227722.6314,235059.7992,235070.3948,2024-02-19T19:36:09Z,235102.1068,Gelegenheit,wakati,d,mchanganyiko,kipaumbele,kushuku,NA,NA,NA,NULL,NA,NA,NA,NA,NA,NA,NA,NA,NA,NA,NA,NA,NA,NA,NA,NA,NA,NA,NA
9b9e2,Deep Question,html.Page,1_11_0_0,NA,NA,form submission,4879.288,235075.8948,235059.7992,235102.1068,239981.3948,239986.4948,2024-02-19T19:36:14Z,240046.1796,Widerstand,usulubu,s,kusababisha,mwalimu,mwenendo,d,Anfrage senden,NA,NULL,NA,NA,NA,NA,NA,NA,NA,NA,NA,NA,NA,NA,NA,NA,NA,NA,NA,NA,NA
9b9e2,Save data screen,canvas.Screen,1_11_0_1,NA,NA,timeout,565.62709999998,240004.4948,240017.9821,240046.1796,240536.4674,240538.8948,2024-02-19T19:36:14Z,240611.8067,Widerstand,usulubu,s,kusababisha,mwalimu,mwenendo,NA,NA,0,NULL,NA,NA,NA,NA,NA,NA,NA,NA,NA,NA,NA,NA,NA,NA,NA,NA,NA,NA,NA
9b9e2,deep,flow.Sequence,1_11_0,NA,NA,completion,5434.3606,235074.1948,235059.7992,235102.1068,240536.4674,240543.5948,2024-02-19T19:36:14Z,240611.8067,Widerstand,usulubu,s,kusababisha,mwalimu,mwenendo,NA,NA,NA,NULL,NA,NA,NA,NA,NA,NA,NA,NA,NA,NA,NA,NA,NA,NA,NA,NA,NA,NA,NA
9b9e2,task,flow.Sequence,1_11,NA,NA,completion,5434.3606,235072.7948,235059.7992,235102.1068,240536.4674,240547.6948,2024-02-19T19:36:14Z,240611.8067,Widerstand,usulubu,s,kusababisha,mwalimu,mwenendo,NA,NA,NA,NULL,NA,NA,NA,NA,NA,NA,NA,NA,NA,NA,NA,NA,NA,NA,NA,NA,NA,NA,NA
9b9e2,Deep Question,html.Page,1_12_0_0,NA,NA,form submission,33551.9881,240552.8948,240536.4674,240611.8067,274163.7948,274168.1948,2024-02-19T19:36:48Z,274204.4222,Polizist,msongora,d,simanzi,mandhari,nidhamu,n,Anfrage senden,NA,NULL,NA,NA,NA,NA,NA,NA,NA,NA,NA,NA,NA,NA,NA,NA,NA,NA,NA,NA,NA
9b9e2,Save data screen,canvas.Screen,1_12_0_1,NA,NA,timeout,515.61550000001,274178.3948,274195.9868,274204.4222,274681.9036,274685.1948,2024-02-19T19:36:48Z,274720.0377,Polizist,msongora,d,simanzi,mandhari,nidhamu,NA,NA,0,NULL,NA,NA,NA,NA,NA,NA,NA,NA,NA,NA,NA,NA,NA,NA,NA,NA,NA,NA,NA
9b9e2,deep,flow.Sequence,1_12_0,NA,NA,completion,34070.0969,240551.4948,240536.4674,240611.8067,274681.9036,274688.8948,2024-02-19T19:36:48Z,274720.0377,Polizist,msongora,d,simanzi,mandhari,nidhamu,NA,NA,NA,NULL,NA,NA,NA,NA,NA,NA,NA,NA,NA,NA,NA,NA,NA,NA,NA,NA,NA,NA,NA
9b9e2,task,flow.Sequence,1_12,NA,NA,completion,34070.0969,240549.9948,240536.4674,240611.8067,274681.9036,274691.7948,2024-02-19T19:36:48Z,274720.0377,Polizist,msongora,d,simanzi,mandhari,nidhamu,NA,NA,NA,NULL,NA,NA,NA,NA,NA,NA,NA,NA,NA,NA,NA,NA,NA,NA,NA,NA,NA,NA,NA
9b9e2,Deep Question,html.Page,1_13_0_0,NA,NA,form submission,6461.3571,274695.4948,274681.9036,274720.0377,281181.3948,281185.7948,2024-02-19T19:36:55Z,281216.5665,Konkurrent,mshindani,d,msemaji,mvutaji,kipukusa,oj,Anfrage senden,NA,NULL,NA,NA,NA,NA,NA,NA,NA,NA,NA,NA,NA,NA,NA,NA,NA,NA,NA,NA,NA
9b9e2,Save data screen,canvas.Screen,1_13_0_1,NA,NA,timeout,536.52929999999,281195.8948,281208.1855,281216.5665,281708.2891,281710.7948,2024-02-19T19:36:55Z,281753.0958,Konkurrent,mshindani,d,msemaji,mvutaji,kipukusa,NA,NA,0,NULL,NA,NA,NA,NA,NA,NA,NA,NA,NA,NA,NA,NA,NA,NA,NA,NA,NA,NA,NA
9b9e2,deep,flow.Sequence,1_13_0,NA,NA,completion,6988.2514,274694.5948,274681.9036,274720.0377,281708.2891,281714.1948,2024-02-19T19:36:55Z,281753.0958,Konkurrent,mshindani,d,msemaji,mvutaji,kipukusa,NA,NA,NA,NULL,NA,NA,NA,NA,NA,NA,NA,NA,NA,NA,NA,NA,NA,NA,NA,NA,NA,NA,NA
9b9e2,task,flow.Sequence,1_13,NA,NA,completion,6988.2514,274693.6948,274681.9036,274720.0377,281708.2891,281718.4948,2024-02-19T19:36:55Z,281753.0958,Konkurrent,mshindani,d,msemaji,mvutaji,kipukusa,NA,NA,NA,NULL,NA,NA,NA,NA,NA,NA,NA,NA,NA,NA,NA,NA,NA,NA,NA,NA,NA,NA,NA
9b9e2,Deep Question,html.Page,1_14_0_0,NA,NA,form submission,28739.599,281724.0948,281708.2891,281753.0958,310492.6948,310497.3948,2024-02-19T19:37:24Z,310551.0912,Auftrag,uagizaji,d,ghanima,kuzingatia,msukani,l,Anfrage senden,NA,NULL,NA,NA,NA,NA,NA,NA,NA,NA,NA,NA,NA,NA,NA,NA,NA,NA,NA,NA,NA
9b9e2,Save data screen,canvas.Screen,1_14_0_1,NA,NA,timeout,537.00789999997,310512.1948,310526.6596,310551.0912,311028.4532,311031.1948,2024-02-19T19:37:25Z,311088.0991,Auftrag,uagizaji,d,ghanima,kuzingatia,msukani,NA,NA,0,NULL,NA,NA,NA,NA,NA,NA,NA,NA,NA,NA,NA,NA,NA,NA,NA,NA,NA,NA,NA
9b9e2,deep,flow.Sequence,1_14_0,NA,NA,completion,29275.3574,281722.4948,281708.2891,281753.0958,311028.4532,311035.5948,2024-02-19T19:37:25Z,311088.0991,Auftrag,uagizaji,d,ghanima,kuzingatia,msukani,NA,NA,NA,NULL,NA,NA,NA,NA,NA,NA,NA,NA,NA,NA,NA,NA,NA,NA,NA,NA,NA,NA,NA
9b9e2,task,flow.Sequence,1_14,NA,NA,completion,29275.3574,281721.1948,281708.2891,281753.0958,311028.4532,311038.8948,2024-02-19T19:37:25Z,311088.0991,Auftrag,uagizaji,d,ghanima,kuzingatia,msukani,NA,NA,NA,NULL,NA,NA,NA,NA,NA,NA,NA,NA,NA,NA,NA,NA,NA,NA,NA,NA,NA,NA,NA
9b9e2,Deep Question,html.Page,1_15_0_0,NA,NA,form submission,26826.4957,311044.7948,311028.4532,311088.0991,337914.5948,337919.5948,2024-02-19T19:37:52Z,337953.1125,Wettbewerb,ushindani,d,mapendezi,kichocheo,ubaguzi,".,",Anfrage senden,NA,NULL,NA,NA,NA,NA,NA,NA,NA,NA,NA,NA,NA,NA,NA,NA,NA,NA,NA,NA,NA
9b9e2,Save data screen,canvas.Screen,1_15_0_1,NA,NA,timeout,550.68369999999,337929.8948,337942.4504,337953.1125,338430.0866,338432.7948,2024-02-19T19:37:52Z,338503.7962,Wettbewerb,ushindani,d,mapendezi,kichocheo,ubaguzi,NA,NA,0,NULL,NA,NA,NA,NA,NA,NA,NA,NA,NA,NA,NA,NA,NA,NA,NA,NA,NA,NA,NA
9b9e2,deep,flow.Sequence,1_15_0,NA,NA,completion,27341.9875,311043.0948,311028.4532,311088.0991,338430.0866,338436.2948,2024-02-19T19:37:52Z,338503.7962,Wettbewerb,ushindani,d,mapendezi,kichocheo,ubaguzi,NA,NA,NA,NULL,NA,NA,NA,NA,NA,NA,NA,NA,NA,NA,NA,NA,NA,NA,NA,NA,NA,NA,NA
9b9e2,task,flow.Sequence,1_15,NA,NA,completion,27341.9875,311041.7948,311028.4532,311088.0991,338430.0866,338440.7948,2024-02-19T19:37:52Z,338503.7962,Wettbewerb,ushindani,d,mapendezi,kichocheo,ubaguzi,NA,NA,NA,NULL,NA,NA,NA,NA,NA,NA,NA,NA,NA,NA,NA,NA,NA,NA,NA,NA,NA,NA,NA
9b9e2,retrieval block 1 (cued recall),flow.Loop,1,NA,NA,completion,322770.6372,15622.3948,15641.7856,15659.4494,338430.0866,338444.7948,2024-02-19T19:37:52Z,338503.7962,NA,NA,NA,NA,NA,NA,NA,NA,NA,NULL,NA,NA,NA,NA,NA,NA,NA,NA,NA,NA,NA,NA,NA,NA,NA,NA,NA,NA,NA
9b9e2,Shallow Question,html.Page,2_0_0_0,NA,NA,form submission,42717.8986,338451.5948,338430.0866,338503.7962,381221.6948,381227.2948,2024-02-19T19:38:35Z,381279.5234,Ausschluss,kutengwa,d,ununuzi,taratibu,madeni,kutengwa,Anfrage senden,NA,"c(""distractor1"", ""distractor2"", ""distractor3"")",NA,NA,NA,NA,NA,NA,NA,NA,NA,NA,NA,NA,NA,NA,NA,NA,NA,NA,NA
9b9e2,Save data screen,canvas.Screen,2_0_0_1,NA,NA,timeout,545.59450000001,381238.6948,381255.7073,381279.5234,381764.7745,381767.2948,2024-02-19T19:38:36Z,381825.1179,Ausschluss,kutengwa,d,ununuzi,taratibu,madeni,NA,NA,1,"c(""distractor1"", ""distractor2"", ""distractor3"")",NA,NA,NA,NA,NA,NA,NA,NA,NA,NA,NA,NA,NA,NA,NA,NA,NA,NA,NA
9b9e2,shallow,flow.Sequence,2_0_0,NA,NA,completion,43260.9783,338450.2948,338430.0866,338503.7962,381764.7745,381771.4948,2024-02-19T19:38:36Z,381825.1179,Ausschluss,kutengwa,d,ununuzi,taratibu,madeni,NA,NA,NA,"c(""distractor1"", ""distractor2"", ""distractor3"")",NA,NA,NA,NA,NA,NA,NA,NA,NA,NA,NA,NA,NA,NA,NA,NA,NA,NA,NA
9b9e2,task,flow.Sequence,2_0,NA,NA,completion,43260.9783,338448.9948,338430.0866,338503.7962,381764.7745,381775.1948,2024-02-19T19:38:36Z,381825.1179,Ausschluss,kutengwa,d,ununuzi,taratibu,madeni,NA,NA,NA,"c(""distractor1"", ""distractor2"", ""distractor3"")",NA,NA,NA,NA,NA,NA,NA,NA,NA,NA,NA,NA,NA,NA,NA,NA,NA,NA,NA
9b9e2,Shallow Question,html.Page,2_1_0_0,NA,NA,form submission,55989.8769,381779.5948,381764.7745,381825.1179,437814.9948,437819.6948,2024-02-19T19:39:32Z,437849.7432,Beweis,ushahidi,d,marudio,kizuizi,mtendaji,ushahidi,Anfrage senden,NA,"c(""distractor1"", ""distractor2"", ""distractor3"")",NA,NA,NA,NA,NA,NA,NA,NA,NA,NA,NA,NA,NA,NA,NA,NA,NA,NA,NA
9b9e2,Save data screen,canvas.Screen,2_1_0_1,NA,NA,timeout,552.35079999996,437829.9948,437842.4104,437849.7432,438339.296,438342.0948,2024-02-19T19:39:32Z,438402.094,Beweis,ushahidi,d,marudio,kizuizi,mtendaji,NA,NA,1,"c(""distractor1"", ""distractor2"", ""distractor3"")",NA,NA,NA,NA,NA,NA,NA,NA,NA,NA,NA,NA,NA,NA,NA,NA,NA,NA,NA
9b9e2,shallow,flow.Sequence,2_1_0,NA,NA,completion,56514.1781,381778.6948,381764.7745,381825.1179,438339.296,438346.8948,2024-02-19T19:39:32Z,438402.094,Beweis,ushahidi,d,marudio,kizuizi,mtendaji,NA,NA,NA,"c(""distractor1"", ""distractor2"", ""distractor3"")",NA,NA,NA,NA,NA,NA,NA,NA,NA,NA,NA,NA,NA,NA,NA,NA,NA,NA,NA
9b9e2,task,flow.Sequence,2_1,NA,NA,completion,56514.1781,381777.6948,381764.7745,381825.1179,438339.296,438350.7948,2024-02-19T19:39:32Z,438402.094,Beweis,ushahidi,d,marudio,kizuizi,mtendaji,NA,NA,NA,"c(""distractor1"", ""distractor2"", ""distractor3"")",NA,NA,NA,NA,NA,NA,NA,NA,NA,NA,NA,NA,NA,NA,NA,NA,NA,NA,NA
9b9e2,Shallow Question,html.Page,2_2_0_0,NA,NA,form submission,15660.2008,438358.7948,438339.296,438402.094,454062.2948,454067.3948,2024-02-19T19:39:48Z,454099.158,Polizist,msongora,d,simanzi,mandhari,nidhamu,msongora,Anfrage senden,NA,"c(""distractor1"", ""distractor2"", ""distractor3"")",NA,NA,NA,NA,NA,NA,NA,NA,NA,NA,NA,NA,NA,NA,NA,NA,NA,NA,NA
9b9e2,Save data screen,canvas.Screen,2_2_0_1,NA,NA,timeout,539.63250000001,454077.0948,454089.3679,454099.158,454576.0178,454578.4948,2024-02-19T19:39:48Z,454638.7905,Polizist,msongora,d,simanzi,mandhari,nidhamu,NA,NA,1,"c(""distractor1"", ""distractor2"", ""distractor3"")",NA,NA,NA,NA,NA,NA,NA,NA,NA,NA,NA,NA,NA,NA,NA,NA,NA,NA,NA
9b9e2,shallow,flow.Sequence,2_2_0,NA,NA,completion,16173.9238,438357.3948,438339.296,438402.094,454576.0178,454581.8948,2024-02-19T19:39:48Z,454638.7905,Polizist,msongora,d,simanzi,mandhari,nidhamu,NA,NA,NA,"c(""distractor1"", ""distractor2"", ""distractor3"")",NA,NA,NA,NA,NA,NA,NA,NA,NA,NA,NA,NA,NA,NA,NA,NA,NA,NA,NA
9b9e2,task,flow.Sequence,2_2,NA,NA,completion,16173.9238,438353.2948,438339.296,438402.094,454576.0178,454586.9948,2024-02-19T19:39:48Z,454638.7905,Polizist,msongora,d,simanzi,mandhari,nidhamu,NA,NA,NA,"c(""distractor1"", ""distractor2"", ""distractor3"")",NA,NA,NA,NA,NA,NA,NA,NA,NA,NA,NA,NA,NA,NA,NA,NA,NA,NA,NA
9b9e2,Shallow Question,html.Page,2_3_0_0,NA,NA,form submission,80958.5043,454592.4948,454576.0178,454638.7905,535597.2948,535601.9948,2024-02-19T19:41:09Z,535651.8478,Annäherung,maegesho,s,madahili,kujiamini,mapendekezo,mapendekezo,Anfrage senden,NA,"c(""distractor1"", ""distractor2"", ""distractor3"")",NA,NA,NA,NA,NA,NA,NA,NA,NA,NA,NA,NA,NA,NA,NA,NA,NA,NA,NA
9b9e2,Save data screen,canvas.Screen,2_3_0_1,NA,NA,timeout,536.50760000001,535612.9948,535626.4428,535651.8478,536129.6237,536132.2948,2024-02-19T19:41:10Z,536188.3554,Annäherung,maegesho,s,madahili,kujiamini,mapendekezo,NA,NA,0,"c(""distractor1"", ""distractor2"", ""distractor3"")",NA,NA,NA,NA,NA,NA,NA,NA,NA,NA,NA,NA,NA,NA,NA,NA,NA,NA,NA
9b9e2,shallow,flow.Sequence,2_3_0,NA,NA,completion,81490.8332,454591.0948,454576.0178,454638.7905,536129.6237,536136.3948,2024-02-19T19:41:10Z,536188.3554,Annäherung,maegesho,s,madahili,kujiamini,mapendekezo,NA,NA,NA,"c(""distractor1"", ""distractor2"", ""distractor3"")",NA,NA,NA,NA,NA,NA,NA,NA,NA,NA,NA,NA,NA,NA,NA,NA,NA,NA,NA
9b9e2,task,flow.Sequence,2_3,NA,NA,completion,81490.8332,454589.5948,454576.0178,454638.7905,536129.6237,536140.9948,2024-02-19T19:41:10Z,536188.3554,Annäherung,maegesho,s,madahili,kujiamini,mapendekezo,NA,NA,NA,"c(""distractor1"", ""distractor2"", ""distractor3"")",NA,NA,NA,NA,NA,NA,NA,NA,NA,NA,NA,NA,NA,NA,NA,NA,NA,NA,NA
9b9e2,Shallow Question,html.Page,2_4_0_0,NA,NA,form submission,7988.9394,536146.1948,536129.6237,536188.3554,544177.2948,544182.4948,2024-02-19T19:41:18Z,544230.8508,Symbol,kielezo,s,kinyume,nderemo,utayari,kielezo,Anfrage senden,NA,"c(""distractor1"", ""distractor2"", ""distractor3"")",NA,NA,NA,NA,NA,NA,NA,NA,NA,NA,NA,NA,NA,NA,NA,NA,NA,NA,NA
9b9e2,Save data screen,canvas.Screen,2_4_0_1,NA,NA,timeout,570.0135,544193.6948,544207.1877,544230.8508,544708.6896,544711.7948,2024-02-19T19:41:18Z,544800.8643,Symbol,kielezo,s,kinyume,nderemo,utayari,NA,NA,1,"c(""distractor1"", ""distractor2"", ""distractor3"")",NA,NA,NA,NA,NA,NA,NA,NA,NA,NA,NA,NA,NA,NA,NA,NA,NA,NA,NA
9b9e2,shallow,flow.Sequence,2_4_0,NA,NA,completion,8520.3342,536144.8948,536129.6237,536188.3554,544708.6896,544716.6948,2024-02-19T19:41:18Z,544800.8643,Symbol,kielezo,s,kinyume,nderemo,utayari,NA,NA,NA,"c(""distractor1"", ""distractor2"", ""distractor3"")",NA,NA,NA,NA,NA,NA,NA,NA,NA,NA,NA,NA,NA,NA,NA,NA,NA,NA,NA
9b9e2,task,flow.Sequence,2_4,NA,NA,completion,8520.3342,536143.3948,536129.6237,536188.3554,544708.6896,544720.7948,2024-02-19T19:41:18Z,544800.8643,Symbol,kielezo,s,kinyume,nderemo,utayari,NA,NA,NA,"c(""distractor1"", ""distractor2"", ""distractor3"")",NA,NA,NA,NA,NA,NA,NA,NA,NA,NA,NA,NA,NA,NA,NA,NA,NA,NA,NA
9b9e2,Shallow Question,html.Page,2_5_0_0,NA,NA,form submission,64337.4305,544726.5948,544708.6896,544800.8643,609138.2948,609142.8948,2024-02-19T19:42:23Z,609190.1448,Sympathie,mapendano,s,dhamiria,fungamano,maazimio,maazimio,Anfrage senden,NA,"c(""distractor1"", ""distractor2"", ""distractor3"")",NA,NA,NA,NA,NA,NA,NA,NA,NA,NA,NA,NA,NA,NA,NA,NA,NA,NA,NA
9b9e2,Save data screen,canvas.Screen,2_5_0_1,NA,NA,timeout,552.34419999993,609153.8948,609166.5184,609190.1448,609666.846,609669.6948,2024-02-19T19:42:23Z,609742.489,Sympathie,mapendano,s,dhamiria,fungamano,maazimio,NA,NA,0,"c(""distractor1"", ""distractor2"", ""distractor3"")",NA,NA,NA,NA,NA,NA,NA,NA,NA,NA,NA,NA,NA,NA,NA,NA,NA,NA,NA
9b9e2,shallow,flow.Sequence,2_5_0,NA,NA,completion,64865.9817,544725.2948,544708.6896,544800.8643,609666.846,609673.6948,2024-02-19T19:42:23Z,609742.489,Sympathie,mapendano,s,dhamiria,fungamano,maazimio,NA,NA,NA,"c(""distractor1"", ""distractor2"", ""distractor3"")",NA,NA,NA,NA,NA,NA,NA,NA,NA,NA,NA,NA,NA,NA,NA,NA,NA,NA,NA
9b9e2,task,flow.Sequence,2_5,NA,NA,completion,64865.9817,544723.7948,544708.6896,544800.8643,609666.846,609677.3948,2024-02-19T19:42:23Z,609742.489,Sympathie,mapendano,s,dhamiria,fungamano,maazimio,NA,NA,NA,"c(""distractor1"", ""distractor2"", ""distractor3"")",NA,NA,NA,NA,NA,NA,NA,NA,NA,NA,NA,NA,NA,NA,NA,NA,NA,NA,NA
9b9e2,Shallow Question,html.Page,2_6_0_0,NA,NA,form submission,39357.4058,609684.8948,609666.846,609742.489,649099.8948,649104.9948,2024-02-19T19:43:03Z,649134.7415,Zufall,kikuti,s,kukosekana,uchoraji,leseni,kikuti,Anfrage senden,NA,"c(""distractor1"", ""distractor2"", ""distractor3"")",NA,NA,NA,NA,NA,NA,NA,NA,NA,NA,NA,NA,NA,NA,NA,NA,NA,NA,NA
9b9e2,Save data screen,canvas.Screen,2_6_0_1,NA,NA,timeout,523.63529999997,649116.5948,649130.0427,649134.7415,649612.7444,649615.6948,2024-02-19T19:43:03Z,649658.3768,Zufall,kikuti,s,kukosekana,uchoraji,leseni,NA,NA,1,"c(""distractor1"", ""distractor2"", ""distractor3"")",NA,NA,NA,NA,NA,NA,NA,NA,NA,NA,NA,NA,NA,NA,NA,NA,NA,NA,NA
9b9e2,shallow,flow.Sequence,2_6_0,NA,NA,completion,39870.2554,609681.8948,609666.846,609742.489,649612.7444,649619.7948,2024-02-19T19:43:03Z,649658.3768,Zufall,kikuti,s,kukosekana,uchoraji,leseni,NA,NA,NA,"c(""distractor1"", ""distractor2"", ""distractor3"")",NA,NA,NA,NA,NA,NA,NA,NA,NA,NA,NA,NA,NA,NA,NA,NA,NA,NA,NA
9b9e2,task,flow.Sequence,2_6,NA,NA,completion,39870.2554,609680.4948,609666.846,609742.489,649612.7444,649623.3948,2024-02-19T19:43:03Z,649658.3768,Zufall,kikuti,s,kukosekana,uchoraji,leseni,NA,NA,NA,"c(""distractor1"", ""distractor2"", ""distractor3"")",NA,NA,NA,NA,NA,NA,NA,NA,NA,NA,NA,NA,NA,NA,NA,NA,NA,NA,NA
9b9e2,Shallow Question,html.Page,2_7_0_0,NA,NA,form submission,7790.718,649627.2948,649612.7444,649658.3768,657449.0948,657454.5948,2024-02-19T19:43:11Z,657505.8243,Schönheit,kirembo,s,mahojiano,msisimko,jitihadi,kirembo,Anfrage senden,NA,"c(""distractor1"", ""distractor2"", ""distractor3"")",NA,NA,NA,NA,NA,NA,NA,NA,NA,NA,NA,NA,NA,NA,NA,NA,NA,NA,NA
9b9e2,Save data screen,canvas.Screen,2_7_0_1,NA,NA,timeout,570.17280000006,657468.3948,657481.8398,657505.8243,657983.6614,657996.5948,2024-02-19T19:43:12Z,658075.9971,Schönheit,kirembo,s,mahojiano,msisimko,jitihadi,NA,NA,1,"c(""distractor1"", ""distractor2"", ""distractor3"")",NA,NA,NA,NA,NA,NA,NA,NA,NA,NA,NA,NA,NA,NA,NA,NA,NA,NA,NA
9b9e2,shallow,flow.Sequence,2_7_0,NA,NA,completion,8325.2846,649626.2948,649612.7444,649658.3768,657983.6614,658011.2948,2024-02-19T19:43:12Z,658075.9971,Schönheit,kirembo,s,mahojiano,msisimko,jitihadi,NA,NA,NA,"c(""distractor1"", ""distractor2"", ""distractor3"")",NA,NA,NA,NA,NA,NA,NA,NA,NA,NA,NA,NA,NA,NA,NA,NA,NA,NA,NA
9b9e2,task,flow.Sequence,2_7,NA,NA,completion,8325.2846,649625.2948,649612.7444,649658.3768,657983.6614,658015.5948,2024-02-19T19:43:12Z,658075.9971,Schönheit,kirembo,s,mahojiano,msisimko,jitihadi,NA,NA,NA,"c(""distractor1"", ""distractor2"", ""distractor3"")",NA,NA,NA,NA,NA,NA,NA,NA,NA,NA,NA,NA,NA,NA,NA,NA,NA,NA,NA
9b9e2,Shallow Question,html.Page,2_8_0_0,NA,NA,form submission,17797.3977,658021.2948,657983.6614,658075.9971,675873.3948,675878.8948,2024-02-19T19:43:30Z,675931.1069,Auftrag,uagizaji,d,ghanima,kuzingatia,msukani,uagizaji,Anfrage senden,NA,"c(""distractor1"", ""distractor2"", ""distractor3"")",NA,NA,NA,NA,NA,NA,NA,NA,NA,NA,NA,NA,NA,NA,NA,NA,NA,NA,NA
9b9e2,Save data screen,canvas.Screen,2_8_0_1,NA,NA,timeout,541.28539999994,675888.4948,675907.0544,675931.1069,676409.6711,676411.9948,2024-02-19T19:43:30Z,676472.3923,Auftrag,uagizaji,d,ghanima,kuzingatia,msukani,NA,NA,1,"c(""distractor1"", ""distractor2"", ""distractor3"")",NA,NA,NA,NA,NA,NA,NA,NA,NA,NA,NA,NA,NA,NA,NA,NA,NA,NA,NA
9b9e2,shallow,flow.Sequence,2_8_0,NA,NA,completion,18333.674,658019.7948,657983.6614,658075.9971,676409.6711,676415.2948,2024-02-19T19:43:30Z,676472.3923,Auftrag,uagizaji,d,ghanima,kuzingatia,msukani,NA,NA,NA,"c(""distractor1"", ""distractor2"", ""distractor3"")",NA,NA,NA,NA,NA,NA,NA,NA,NA,NA,NA,NA,NA,NA,NA,NA,NA,NA,NA
9b9e2,task,flow.Sequence,2_8,NA,NA,completion,18333.674,658018.1948,657983.6614,658075.9971,676409.6711,676418.4948,2024-02-19T19:43:30Z,676472.3923,Auftrag,uagizaji,d,ghanima,kuzingatia,msukani,NA,NA,NA,"c(""distractor1"", ""distractor2"", ""distractor3"")",NA,NA,NA,NA,NA,NA,NA,NA,NA,NA,NA,NA,NA,NA,NA,NA,NA,NA,NA
9b9e2,Shallow Question,html.Page,2_9_0_0,NA,NA,form submission,33152.2025,676422.9948,676409.6711,676472.3923,709624.5948,709629.2948,2024-02-19T19:44:03Z,709661.8378,Gelegenheit,wakati,d,mchanganyiko,kipaumbele,kushuku,wakati,Anfrage senden,NA,"c(""distractor1"", ""distractor2"", ""distractor3"")",NA,NA,NA,NA,NA,NA,NA,NA,NA,NA,NA,NA,NA,NA,NA,NA,NA,NA,NA
9b9e2,Save data screen,canvas.Screen,2_9_0_1,NA,NA,timeout,589.76010000007,709639.4948,709652.0996,709661.8378,710154.844,710158.3948,2024-02-19T19:44:04Z,710251.5979,Gelegenheit,wakati,d,mchanganyiko,kipaumbele,kushuku,NA,NA,1,"c(""distractor1"", ""distractor2"", ""distractor3"")",NA,NA,NA,NA,NA,NA,NA,NA,NA,NA,NA,NA,NA,NA,NA,NA,NA,NA,NA
9b9e2,shallow,flow.Sequence,2_9_0,NA,NA,completion,33682.4517,676421.6948,676409.6711,676472.3923,710154.844,710163.2948,2024-02-19T19:44:04Z,710251.5979,Gelegenheit,wakati,d,mchanganyiko,kipaumbele,kushuku,NA,NA,NA,"c(""distractor1"", ""distractor2"", ""distractor3"")",NA,NA,NA,NA,NA,NA,NA,NA,NA,NA,NA,NA,NA,NA,NA,NA,NA,NA,NA
9b9e2,task,flow.Sequence,2_9,NA,NA,completion,33682.4517,676420.5948,676409.6711,676472.3923,710154.844,710168.7948,2024-02-19T19:44:04Z,710251.5979,Gelegenheit,wakati,d,mchanganyiko,kipaumbele,kushuku,NA,NA,NA,"c(""distractor1"", ""distractor2"", ""distractor3"")",NA,NA,NA,NA,NA,NA,NA,NA,NA,NA,NA,NA,NA,NA,NA,NA,NA,NA,NA
9b9e2,Shallow Question,html.Page,2_10_0_0,NA,NA,form submission,33752.1969,710175.6948,710154.844,710251.5979,744003.7948,744008.7948,2024-02-19T19:44:38Z,744036.2242,Verstand,ufahamivu,s,shakawa,hadhari,mhandisi,hadhari,Anfrage senden,NA,"c(""distractor1"", ""distractor2"", ""distractor3"")",NA,NA,NA,NA,NA,NA,NA,NA,NA,NA,NA,NA,NA,NA,NA,NA,NA,NA,NA
9b9e2,Save data screen,canvas.Screen,2_10_0_1,NA,NA,timeout,526.22479999997,744018.1948,744029.4331,744036.2242,744514.6873,744517.4948,2024-02-19T19:44:38Z,744562.449,Verstand,ufahamivu,s,shakawa,hadhari,mhandisi,NA,NA,0,"c(""distractor1"", ""distractor2"", ""distractor3"")",NA,NA,NA,NA,NA,NA,NA,NA,NA,NA,NA,NA,NA,NA,NA,NA,NA,NA,NA
9b9e2,shallow,flow.Sequence,2_10_0,NA,NA,completion,34263.0894,710173.9948,710154.844,710251.5979,744514.6873,744520.8948,2024-02-19T19:44:38Z,744562.449,Verstand,ufahamivu,s,shakawa,hadhari,mhandisi,NA,NA,NA,"c(""distractor1"", ""distractor2"", ""distractor3"")",NA,NA,NA,NA,NA,NA,NA,NA,NA,NA,NA,NA,NA,NA,NA,NA,NA,NA,NA
9b9e2,task,flow.Sequence,2_10,NA,NA,completion,34263.0894,710172.1948,710154.844,710251.5979,744514.6873,744524.3948,2024-02-19T19:44:38Z,744562.449,Verstand,ufahamivu,s,shakawa,hadhari,mhandisi,NA,NA,NA,"c(""distractor1"", ""distractor2"", ""distractor3"")",NA,NA,NA,NA,NA,NA,NA,NA,NA,NA,NA,NA,NA,NA,NA,NA,NA,NA,NA
9b9e2,Shallow Question,html.Page,2_11_0_0,NA,NA,form submission,53678.3458,744529.3948,744514.6873,744562.449,798240.7948,798245.3948,2024-02-19T19:45:32Z,798271.4174,Konkurrent,mshindani,d,msemaji,mvutaji,kipukusa,mshindani,Anfrage senden,NA,"c(""distractor1"", ""distractor2"", ""distractor3"")",NA,NA,NA,NA,NA,NA,NA,NA,NA,NA,NA,NA,NA,NA,NA,NA,NA,NA,NA
9b9e2,Save data screen,canvas.Screen,2_11_0_1,NA,NA,timeout,567.00599999994,798255.6948,798268.1607,798271.4174,798750.2775,798753.0948,2024-02-19T19:45:32Z,798838.4234,Konkurrent,mshindani,d,msemaji,mvutaji,kipukusa,NA,NA,1,"c(""distractor1"", ""distractor2"", ""distractor3"")",NA,NA,NA,NA,NA,NA,NA,NA,NA,NA,NA,NA,NA,NA,NA,NA,NA,NA,NA
9b9e2,shallow,flow.Sequence,2_11_0,NA,NA,completion,54187.8285,744528.0948,744514.6873,744562.449,798750.2775,798757.3948,2024-02-19T19:45:32Z,798838.4234,Konkurrent,mshindani,d,msemaji,mvutaji,kipukusa,NA,NA,NA,"c(""distractor1"", ""distractor2"", ""distractor3"")",NA,NA,NA,NA,NA,NA,NA,NA,NA,NA,NA,NA,NA,NA,NA,NA,NA,NA,NA
9b9e2,task,flow.Sequence,2_11,NA,NA,completion,54187.8285,744526.7948,744514.6873,744562.449,798750.2775,798761.2948,2024-02-19T19:45:32Z,798838.4234,Konkurrent,mshindani,d,msemaji,mvutaji,kipukusa,NA,NA,NA,"c(""distractor1"", ""distractor2"", ""distractor3"")",NA,NA,NA,NA,NA,NA,NA,NA,NA,NA,NA,NA,NA,NA,NA,NA,NA,NA,NA
9b9e2,Shallow Question,html.Page,2_12_0_0,NA,NA,form submission,41029.2714,798767.2948,798750.2775,798838.4234,839867.6948,839873.3948,2024-02-19T19:46:14Z,839905.8886,Wettbewerb,ushindani,d,mapendezi,kichocheo,ubaguzi,ushindani,Anfrage senden,NA,"c(""distractor1"", ""distractor2"", ""distractor3"")",NA,NA,NA,NA,NA,NA,NA,NA,NA,NA,NA,NA,NA,NA,NA,NA,NA,NA,NA
9b9e2,Save data screen,canvas.Screen,2_12_0_1,NA,NA,timeout,591.75810000009,839882.0948,839895.1397,839905.8886,840398.2715,840400.9948,2024-02-19T19:46:14Z,840497.6467,Wettbewerb,ushindani,d,mapendezi,kichocheo,ubaguzi,NA,NA,1,"c(""distractor1"", ""distractor2"", ""distractor3"")",NA,NA,NA,NA,NA,NA,NA,NA,NA,NA,NA,NA,NA,NA,NA,NA,NA,NA,NA
9b9e2,shallow,flow.Sequence,2_12_0,NA,NA,completion,41559.8481,798765.8948,798750.2775,798838.4234,840398.2715,840404.3948,2024-02-19T19:46:14Z,840497.6467,Wettbewerb,ushindani,d,mapendezi,kichocheo,ubaguzi,NA,NA,NA,"c(""distractor1"", ""distractor2"", ""distractor3"")",NA,NA,NA,NA,NA,NA,NA,NA,NA,NA,NA,NA,NA,NA,NA,NA,NA,NA,NA
9b9e2,task,flow.Sequence,2_12,NA,NA,completion,41559.8481,798764.3948,798750.2775,798838.4234,840398.2715,840407.5948,2024-02-19T19:46:14Z,840497.6467,Wettbewerb,ushindani,d,mapendezi,kichocheo,ubaguzi,NA,NA,NA,"c(""distractor1"", ""distractor2"", ""distractor3"")",NA,NA,NA,NA,NA,NA,NA,NA,NA,NA,NA,NA,NA,NA,NA,NA,NA,NA,NA
9b9e2,Shallow Question,html.Page,2_13_0_0,NA,NA,form submission,10255.7481,840413.4948,840398.2715,840497.6467,850753.3948,850758.7948,2024-02-19T19:46:24Z,850791.0571,Zuwachs,nyongeza,s,matilaba,udhibiti,hudhurio,nyongeza,Anfrage senden,NA,"c(""distractor1"", ""distractor2"", ""distractor3"")",NA,NA,NA,NA,NA,NA,NA,NA,NA,NA,NA,NA,NA,NA,NA,NA,NA,NA,NA
9b9e2,Save data screen,canvas.Screen,2_13_0_1,NA,NA,timeout,553.59360000002,850768.6948,850782.5512,850791.0571,851270.1879,851273.6948,2024-02-19T19:46:25Z,851344.6507,Zuwachs,nyongeza,s,matilaba,udhibiti,hudhurio,NA,NA,1,"c(""distractor1"", ""distractor2"", ""distractor3"")",NA,NA,NA,NA,NA,NA,NA,NA,NA,NA,NA,NA,NA,NA,NA,NA,NA,NA,NA
9b9e2,shallow,flow.Sequence,2_13_0,NA,NA,completion,10772.5412,840411.8948,840398.2715,840497.6467,851270.1879,851278.4948,2024-02-19T19:46:25Z,851344.6507,Zuwachs,nyongeza,s,matilaba,udhibiti,hudhurio,NA,NA,NA,"c(""distractor1"", ""distractor2"", ""distractor3"")",NA,NA,NA,NA,NA,NA,NA,NA,NA,NA,NA,NA,NA,NA,NA,NA,NA,NA,NA
9b9e2,task,flow.Sequence,2_13,NA,NA,completion,10772.5412,840410.5948,840398.2715,840497.6467,851270.1879,851282.6948,2024-02-19T19:46:25Z,851344.6507,Zuwachs,nyongeza,s,matilaba,udhibiti,hudhurio,NA,NA,NA,"c(""distractor1"", ""distractor2"", ""distractor3"")",NA,NA,NA,NA,NA,NA,NA,NA,NA,NA,NA,NA,NA,NA,NA,NA,NA,NA,NA
9b9e2,Shallow Question,html.Page,2_14_0_0,NA,NA,form submission,16724.8441,851287.7948,851270.1879,851344.6507,868069.4948,868074.2948,2024-02-19T19:46:42Z,868122.4185,Widerstand,usulubu,s,kusababisha,mwalimu,mwenendo,kusababisha,Anfrage senden,NA,"c(""distractor1"", ""distractor2"", ""distractor3"")",NA,NA,NA,NA,NA,NA,NA,NA,NA,NA,NA,NA,NA,NA,NA,NA,NA,NA,NA
9b9e2,Save data screen,canvas.Screen,2_14_0_1,NA,NA,timeout,550.19219999993,868085.4948,868098.7594,868122.4185,868599.4168,868602.2948,2024-02-19T19:46:42Z,868672.6107,Widerstand,usulubu,s,kusababisha,mwalimu,mwenendo,NA,NA,0,"c(""distractor1"", ""distractor2"", ""distractor3"")",NA,NA,NA,NA,NA,NA,NA,NA,NA,NA,NA,NA,NA,NA,NA,NA,NA,NA,NA
9b9e2,shallow,flow.Sequence,2_14_0,NA,NA,completion,17254.7661,851286.8948,851270.1879,851344.6507,868599.4168,868607.5948,2024-02-19T19:46:42Z,868672.6107,Widerstand,usulubu,s,kusababisha,mwalimu,mwenendo,NA,NA,NA,"c(""distractor1"", ""distractor2"", ""distractor3"")",NA,NA,NA,NA,NA,NA,NA,NA,NA,NA,NA,NA,NA,NA,NA,NA,NA,NA,NA
9b9e2,task,flow.Sequence,2_14,NA,NA,completion,17254.7661,851285.6948,851270.1879,851344.6507,868599.4168,868612.7948,2024-02-19T19:46:42Z,868672.6107,Widerstand,usulubu,s,kusababisha,mwalimu,mwenendo,NA,NA,NA,"c(""distractor1"", ""distractor2"", ""distractor3"")",NA,NA,NA,NA,NA,NA,NA,NA,NA,NA,NA,NA,NA,NA,NA,NA,NA,NA,NA
9b9e2,Shallow Question,html.Page,2_15_0_0,NA,NA,form submission,32775.4841,868629.0948,868599.4168,868672.6107,901448.0948,901452.6948,2024-02-19T19:47:15Z,901477.9732,Vorsorge,tahadhari,d,ufafanuzi,makini,mashambani,tahadhari,Anfrage senden,NA,"c(""distractor1"", ""distractor2"", ""distractor3"")",NA,NA,NA,NA,NA,NA,NA,NA,NA,NA,NA,NA,NA,NA,NA,NA,NA,NA,NA
9b9e2,Save data screen,canvas.Screen,2_15_0_1,NA,NA,timeout,514.34970000002,901462.4948,901474.5074,901477.9732,901956.4926,901958.8948,2024-02-19T19:47:16Z,901992.3229,Vorsorge,tahadhari,d,ufafanuzi,makini,mashambani,NA,NA,1,"c(""distractor1"", ""distractor2"", ""distractor3"")",NA,NA,NA,NA,NA,NA,NA,NA,NA,NA,NA,NA,NA,NA,NA,NA,NA,NA,NA
9b9e2,shallow,flow.Sequence,2_15_0,NA,NA,completion,33283.8819,868627.1948,868599.4168,868672.6107,901956.4926,901962.1948,2024-02-19T19:47:16Z,901992.3229,Vorsorge,tahadhari,d,ufafanuzi,makini,mashambani,NA,NA,NA,"c(""distractor1"", ""distractor2"", ""distractor3"")",NA,NA,NA,NA,NA,NA,NA,NA,NA,NA,NA,NA,NA,NA,NA,NA,NA,NA,NA
9b9e2,task,flow.Sequence,2_15,NA,NA,completion,33283.8819,868625.0948,868599.4168,868672.6107,901956.4926,901966.9948,2024-02-19T19:47:16Z,901992.3229,Vorsorge,tahadhari,d,ufafanuzi,makini,mashambani,NA,NA,NA,"c(""distractor1"", ""distractor2"", ""distractor3"")",NA,NA,NA,NA,NA,NA,NA,NA,NA,NA,NA,NA,NA,NA,NA,NA,NA,NA,NA
9b9e2,retrieval block 2 (multiple choice),flow.Loop,2,NA,NA,completion,563452.6964,338447.4948,338430.0866,338503.7962,901956.4926,901971.1948,2024-02-19T19:47:16Z,901992.3229,NA,NA,NA,NA,NA,NA,NA,NA,NA,"c(""distractor1"", ""distractor2"", ""distractor3"")",NA,NA,NA,NA,NA,NA,NA,NA,NA,NA,NA,NA,NA,NA,NA,NA,NA,NA,NA
9b9e2,End,canvas.Screen,3,NA,keypress(Space),response,4637.4719,901974.5948,901956.4926,901992.3229,906629.7948,906634.7948,2024-02-19T19:47:20Z,906671.8793,NA,NA,NA,NA,NA,NA,NA,NA,NA,NULL,NA,NA,NA,NA,NA,NA,NA,NA,NA,NA,NA,NA,NA,NA,NA,NA,NA,NA,NA
9b9e2,root,flow.Sequence,NA,NA,NA,completion,901738.353,4842.6948,4871.2019,4891.4418,906629.7948,906640.9948,2024-02-19T19:47:20Z,906671.8793,NA,NA,NA,NA,NA,NA,NA,NA,NA,NULL,NA,NA,NA,NA,NA,NA,NA,NA,NA,NA,NA,NA,NA,NA,NA,NA,NA,NA,NA
