observation,sender,sender_type,sender_id,response,response_action,ended_on,duration,time_run,time_render,time_show,time_end,time_commit,timestamp,time_switch,distractors,german,swahili,enc,distractor1,distractor2,distractor3,response_2,x,correct,x_2,url_vp,url_sess,meta_labjs_version,meta_location,meta_user_agent,meta_platform,meta_language,meta_locale,meta_time_zone,meta_timezone_offset,meta_screen_width,meta_screen_height,meta_scroll_width,meta_scroll_height,meta_window_inner_width,meta_window_inner_height,meta_device_pixel_ratio,meta_labjs_build_flavor,meta_labjs_build_commit
85968,Introduction general,canvas.Screen,0,weiter,keypress(q),response,3903574.7260001,1348.7000000477,548.665,1364.674,3904939.4000001,3904946.7,2023-07-13T16:07:59Z,3904942.604,NULL,NA,NA,NA,NA,NA,NA,NA,NA,NA,NA,222,1,20.2.4,https://neurocog.fernuni.ch/studies/vweber/sfink/encoding_immediate/index.html?vp=222&sess=1,"Mozilla/5.0 (Windows NT 10.0; Win64; x64) AppleWebKit/537.36 (KHTML, like Gecko) Chrome/114.0.0.0 Safari/537.36",Win32,de-CH,de,Europe/Zurich,-120,1536,864,1536,706,1536,754,1.25,production,f5b4a49f956347addd546a832a3327688c2c0fef
85968,Introduction practice,canvas.Screen,1_0,NA,keypress(Space),response,7599.3960000002,3904947.1000001,3904936.672,3904942.604,3912542,3912542.5,2023-07-13T16:08:06Z,3912552.965,NULL,NA,NA,NA,NA,NA,NA,NA,NA,NA,NA,NA,NA,NA,NA,NA,NA,NA,NA,NA,NA,NA,NA,NA,NA,NA,NA,NA,NA,NA
85968,deep,flow.Sequence,1_1_0_0,NA,NA,skipped,NA,3912542.7,NA,NA,3912542,3912544.3,2023-07-13T16:08:06Z,3912552.965,"c(""distractor1"", ""distractor2"", ""distractor3"")",Rückhalt,msaada,s,muhula,auwali,kiwimbe,NA,NA,NA,NA,NA,NA,NA,NA,NA,NA,NA,NA,NA,NA,NA,NA,NA,NA,NA,NA,NA,NA,NA
85968,Shallow Question,html.Page,1_1_0_1_0,NA,NA,form submission,16150.235000048,3912544.4000001,3912535.86,3912552.965,3928703.2,3928703.4000001,2023-07-13T16:08:22Z,3928706.348,"c(""distractor1"", ""distractor2"", ""distractor3"")",Rückhalt,msaada,s,muhula,auwali,kiwimbe,muhula,NA,NA,NA,NA,NA,NA,NA,NA,NA,NA,NA,NA,NA,NA,NA,NA,NA,NA,NA,NA,NA,NA
85968,"""Richtig""-Screen",canvas.Screen,1_1_0_1_1,NA,NA,skipped,NA,3928704.5,NA,NA,3928703.2,3928704.7,2023-07-13T16:08:22Z,3928706.348,"c(""distractor1"", ""distractor2"", ""distractor3"")",Rückhalt,msaada,s,muhula,auwali,kiwimbe,NA,NA,NA,NA,NA,NA,NA,NA,NA,NA,NA,NA,NA,NA,NA,NA,NA,NA,NA,NA,NA,NA,NA
85968,"""Falsch""-Screen",canvas.Screen,1_1_0_1_2,NA,NA,timeout,4995.9339999999,3928705.5,3928690.177,3928706.348,3933686.125,3933690.9000001,2023-07-13T16:08:27Z,3933702.282,"c(""distractor1"", ""distractor2"", ""distractor3"")",Rückhalt,msaada,s,muhula,auwali,kiwimbe,NA,NA,0,NA,NA,NA,NA,NA,NA,NA,NA,NA,NA,NA,NA,NA,NA,NA,NA,NA,NA,NA,NA
85968,shallow,flow.Sequence,1_1_0_1,NA,NA,completion,21133.16,3912544.4000001,3912535.86,3912552.965,3933686.125,3933691.5,2023-07-13T16:08:27Z,3933702.282,"c(""distractor1"", ""distractor2"", ""distractor3"")",Rückhalt,msaada,s,muhula,auwali,kiwimbe,NA,NA,NA,NA,NA,NA,NA,NA,NA,NA,NA,NA,NA,NA,NA,NA,NA,NA,NA,NA,NA,NA,NA
85968,task,flow.Sequence,1_1_0,NA,NA,completion,21133.16,3912542.7,3912535.86,3912552.965,3933686.125,3933691.8,2023-07-13T16:08:27Z,3933702.282,"c(""distractor1"", ""distractor2"", ""distractor3"")",Rückhalt,msaada,s,muhula,auwali,kiwimbe,NA,NA,NA,NA,NA,NA,NA,NA,NA,NA,NA,NA,NA,NA,NA,NA,NA,NA,NA,NA,NA,NA,NA
85968,Deep Question,html.Page,1_1_1_0_0,NA,NA,form submission,14135.218,3933692.3,3933686.125,3933702.282,3947837.5,3947837.7,2023-07-13T16:08:41Z,3947840.587,"c(""distractor1"", ""distractor2"", ""distractor3"")",Qualität,mtindo,d,NA,NA,NA,habaga,NA,NA,NA,NA,NA,NA,NA,NA,NA,NA,NA,NA,NA,NA,NA,NA,NA,NA,NA,NA,NA,NA
85968,"""Richtig""-Screen",canvas.Screen,1_1_1_0_1,NA,NA,skipped,NA,3947840,NA,NA,3947837.5,3947840.2,2023-07-13T16:08:41Z,3947840.587,"c(""distractor1"", ""distractor2"", ""distractor3"")",Qualität,mtindo,d,NA,NA,NA,NA,NA,NA,NA,NA,NA,NA,NA,NA,NA,NA,NA,NA,NA,NA,NA,NA,NA,NA,NA,NA,NA,NA
85968,"""Falsch""-Screen",canvas.Screen,1_1_1_0_2,NA,NA,timeout,4996.3770000003,3947841.5,3947824.29,3947840.587,3952820.022,3952821.1000001,2023-07-13T16:08:46Z,3952836.964,"c(""distractor1"", ""distractor2"", ""distractor3"")",Qualität,mtindo,d,NA,NA,NA,NA,NA,0,NA,NA,NA,NA,NA,NA,NA,NA,NA,NA,NA,NA,NA,NA,NA,NA,NA,NA,NA,NA
85968,deep,flow.Sequence,1_1_1_0,NA,NA,completion,19117.74,3933692.2,3933686.125,3933702.282,3952820.022,3952821.6000001,2023-07-13T16:08:46Z,3952836.964,"c(""distractor1"", ""distractor2"", ""distractor3"")",Qualität,mtindo,d,NA,NA,NA,NA,NA,NA,NA,NA,NA,NA,NA,NA,NA,NA,NA,NA,NA,NA,NA,NA,NA,NA,NA,NA,NA,NA
85968,shallow,flow.Sequence,1_1_1_1,NA,NA,skipped,NA,3952821.8,NA,NA,3952820.022,3952822.1000001,2023-07-13T16:08:46Z,3952836.964,"c(""distractor1"", ""distractor2"", ""distractor3"")",Qualität,mtindo,d,NA,NA,NA,NA,NA,NA,NA,NA,NA,NA,NA,NA,NA,NA,NA,NA,NA,NA,NA,NA,NA,NA,NA,NA,NA,NA
85968,task,flow.Sequence,1_1_1,NA,NA,completion,19117.74,3933692.1000001,3933686.125,3933702.282,3952820.022,3952822.5,2023-07-13T16:08:46Z,3952836.964,"c(""distractor1"", ""distractor2"", ""distractor3"")",Qualität,mtindo,d,NA,NA,NA,NA,NA,NA,NA,NA,NA,NA,NA,NA,NA,NA,NA,NA,NA,NA,NA,NA,NA,NA,NA,NA,NA,NA
85968,Deep Question,html.Page,1_1_2_0_0,NA,NA,form submission,6014.1360001429,3952822.7,3952820.022,3952836.964,3958851.1000001,3958851.3,2023-07-13T16:08:52Z,3958864.953,"c(""distractor1"", ""distractor2"", ""distractor3"")",Schatten,kivuli,d,NA,NA,NA,shada,NA,NA,NA,NA,NA,NA,NA,NA,NA,NA,NA,NA,NA,NA,NA,NA,NA,NA,NA,NA,NA,NA
85968,"""Richtig""-Screen",canvas.Screen,1_1_2_0_1,NA,NA,skipped,NA,3958853.4000001,NA,NA,3958851.1000001,3958853.5,2023-07-13T16:08:52Z,3958864.953,"c(""distractor1"", ""distractor2"", ""distractor3"")",Schatten,kivuli,d,NA,NA,NA,NA,NA,NA,NA,NA,NA,NA,NA,NA,NA,NA,NA,NA,NA,NA,NA,NA,NA,NA,NA,NA,NA,NA
85968,"""Falsch""-Screen",canvas.Screen,1_1_2_0_2,NA,NA,timeout,4996.3129999996,3958854.8,3958848.29,3958864.953,3963844.666,3963845.5,2023-07-13T16:08:57Z,3963861.266,"c(""distractor1"", ""distractor2"", ""distractor3"")",Schatten,kivuli,d,NA,NA,NA,NA,NA,0,NA,NA,NA,NA,NA,NA,NA,NA,NA,NA,NA,NA,NA,NA,NA,NA,NA,NA,NA,NA
85968,deep,flow.Sequence,1_1_2_0,NA,NA,completion,11007.702,3952822.7,3952820.022,3952836.964,3963844.666,3963846,2023-07-13T16:08:57Z,3963861.266,"c(""distractor1"", ""distractor2"", ""distractor3"")",Schatten,kivuli,d,NA,NA,NA,NA,NA,NA,NA,NA,NA,NA,NA,NA,NA,NA,NA,NA,NA,NA,NA,NA,NA,NA,NA,NA,NA,NA
85968,shallow,flow.Sequence,1_1_2_1,NA,NA,skipped,NA,3963846.1000001,NA,NA,3963844.666,3963846.3,2023-07-13T16:08:57Z,3963861.266,"c(""distractor1"", ""distractor2"", ""distractor3"")",Schatten,kivuli,d,NA,NA,NA,NA,NA,NA,NA,NA,NA,NA,NA,NA,NA,NA,NA,NA,NA,NA,NA,NA,NA,NA,NA,NA,NA,NA
85968,task,flow.Sequence,1_1_2,NA,NA,completion,11007.702,3952822.6000001,3952820.022,3952836.964,3963844.666,3963846.7,2023-07-13T16:08:57Z,3963861.266,"c(""distractor1"", ""distractor2"", ""distractor3"")",Schatten,kivuli,d,NA,NA,NA,NA,NA,NA,NA,NA,NA,NA,NA,NA,NA,NA,NA,NA,NA,NA,NA,NA,NA,NA,NA,NA,NA,NA
85968,deep,flow.Sequence,1_1_3_0,NA,NA,skipped,NA,3963846.9000001,NA,NA,3963844.666,3963847.1000001,2023-07-13T16:08:57Z,3963861.266,"c(""distractor1"", ""distractor2"", ""distractor3"")",Kritik,lawama,s,dereva,nafasi,mawazo,NA,NA,NA,NA,NA,NA,NA,NA,NA,NA,NA,NA,NA,NA,NA,NA,NA,NA,NA,NA,NA,NA,NA
85968,Shallow Question,html.Page,1_1_3_1_0,NA,NA,form submission,6403.6340000955,3963847.3,3963844.666,3963861.266,3970264.9000001,3970265.2,2023-07-13T16:09:04Z,3970272.135,"c(""distractor1"", ""distractor2"", ""distractor3"")",Kritik,lawama,s,dereva,nafasi,mawazo,lawama,NA,NA,NA,NA,NA,NA,NA,NA,NA,NA,NA,NA,NA,NA,NA,NA,NA,NA,NA,NA,NA,NA
85968,"""Richtig""-Screen",canvas.Screen,1_1_3_1_1,NA,NA,timeout,4995.9800000004,3970267.1000001,3970256.032,3970272.135,3975251.942,3975253.1000001,2023-07-13T16:09:09Z,3975268.115,"c(""distractor1"", ""distractor2"", ""distractor3"")",Kritik,lawama,s,dereva,nafasi,mawazo,NA,NA,1,NA,NA,NA,NA,NA,NA,NA,NA,NA,NA,NA,NA,NA,NA,NA,NA,NA,NA,NA,NA
85968,"""Falsch""-Screen",canvas.Screen,1_1_3_1_2,NA,NA,skipped,NA,3975258.6000001,NA,NA,3975251.942,3975259,2023-07-13T16:09:09Z,3975268.115,"c(""distractor1"", ""distractor2"", ""distractor3"")",Kritik,lawama,s,dereva,nafasi,mawazo,NA,NA,NA,NA,NA,NA,NA,NA,NA,NA,NA,NA,NA,NA,NA,NA,NA,NA,NA,NA,NA,NA,NA
85968,shallow,flow.Sequence,1_1_3_1,NA,NA,completion,11390.676,3963847.2,3963844.666,3963861.266,3975251.942,3975259.5,2023-07-13T16:09:09Z,3975268.115,"c(""distractor1"", ""distractor2"", ""distractor3"")",Kritik,lawama,s,dereva,nafasi,mawazo,NA,NA,NA,NA,NA,NA,NA,NA,NA,NA,NA,NA,NA,NA,NA,NA,NA,NA,NA,NA,NA,NA,NA
85968,task,flow.Sequence,1_1_3,NA,NA,completion,11390.676,3963846.8,3963844.666,3963861.266,3975251.942,3975259.9000001,2023-07-13T16:09:09Z,3975268.115,"c(""distractor1"", ""distractor2"", ""distractor3"")",Kritik,lawama,s,dereva,nafasi,mawazo,NA,NA,NA,NA,NA,NA,NA,NA,NA,NA,NA,NA,NA,NA,NA,NA,NA,NA,NA,NA,NA,NA,NA
85968,Deep Question,html.Page,1_1_4_0_0,NA,NA,form submission,4496.8849999998,3975260.2,3975251.942,3975268.115,3979765,3979765.2,2023-07-13T16:09:13Z,3979781.215,"c(""distractor1"", ""distractor2"", ""distractor3"")",Gesundheit,salama,d,NA,NA,NA,medhana,NA,NA,NA,NA,NA,NA,NA,NA,NA,NA,NA,NA,NA,NA,NA,NA,NA,NA,NA,NA,NA,NA
85968,"""Richtig""-Screen",canvas.Screen,1_1_4_0_1,NA,NA,skipped,NA,3979767.7,NA,NA,3979765,3979767.9000001,2023-07-13T16:09:13Z,3979781.215,"c(""distractor1"", ""distractor2"", ""distractor3"")",Gesundheit,salama,d,NA,NA,NA,NA,NA,NA,NA,NA,NA,NA,NA,NA,NA,NA,NA,NA,NA,NA,NA,NA,NA,NA,NA,NA,NA,NA
85968,"""Falsch""-Screen",canvas.Screen,1_1_4_0_2,NA,NA,timeout,4996.2390000001,3979768.9000001,3979748.284,3979781.215,3984760.632,3984762.8,2023-07-13T16:09:18Z,3984777.454,"c(""distractor1"", ""distractor2"", ""distractor3"")",Gesundheit,salama,d,NA,NA,NA,NA,NA,0,NA,NA,NA,NA,NA,NA,NA,NA,NA,NA,NA,NA,NA,NA,NA,NA,NA,NA,NA,NA
85968,deep,flow.Sequence,1_1_4_0,NA,NA,completion,9492.517,3975260.2,3975251.942,3975268.115,3984760.632,3984763,2023-07-13T16:09:18Z,3984777.454,"c(""distractor1"", ""distractor2"", ""distractor3"")",Gesundheit,salama,d,NA,NA,NA,NA,NA,NA,NA,NA,NA,NA,NA,NA,NA,NA,NA,NA,NA,NA,NA,NA,NA,NA,NA,NA,NA,NA
85968,shallow,flow.Sequence,1_1_4_1,NA,NA,skipped,NA,3984763.1000001,NA,NA,3984760.632,3984763.2,2023-07-13T16:09:18Z,3984777.454,"c(""distractor1"", ""distractor2"", ""distractor3"")",Gesundheit,salama,d,NA,NA,NA,NA,NA,NA,NA,NA,NA,NA,NA,NA,NA,NA,NA,NA,NA,NA,NA,NA,NA,NA,NA,NA,NA,NA
85968,task,flow.Sequence,1_1_4,NA,NA,completion,9492.517,3975260,3975251.942,3975268.115,3984760.632,3984763.3,2023-07-13T16:09:18Z,3984777.454,"c(""distractor1"", ""distractor2"", ""distractor3"")",Gesundheit,salama,d,NA,NA,NA,NA,NA,NA,NA,NA,NA,NA,NA,NA,NA,NA,NA,NA,NA,NA,NA,NA,NA,NA,NA,NA,NA,NA
85968,deep,flow.Sequence,1_1_5_0,NA,NA,skipped,NA,3984763.4000001,NA,NA,3984760.632,3984763.4000001,2023-07-13T16:09:18Z,3984777.454,"c(""distractor1"", ""distractor2"", ""distractor3"")",Gegenwart,hadhara,s,katiba,jokofu,mikopo,NA,NA,NA,NA,NA,NA,NA,NA,NA,NA,NA,NA,NA,NA,NA,NA,NA,NA,NA,NA,NA,NA,NA
85968,Shallow Question,html.Page,1_1_5_1_0,NA,NA,form submission,5983.8459999524,3984763.6000001,3984760.632,3984777.454,3990761.3,3990761.5,2023-07-13T16:09:24Z,3990771.953,"c(""distractor1"", ""distractor2"", ""distractor3"")",Gegenwart,hadhara,s,katiba,jokofu,mikopo,jokofu,NA,NA,NA,NA,NA,NA,NA,NA,NA,NA,NA,NA,NA,NA,NA,NA,NA,NA,NA,NA,NA,NA
85968,"""Richtig""-Screen",canvas.Screen,1_1_5_1_1,NA,NA,skipped,NA,3990763.4000001,NA,NA,3990761.3,3990763.5,2023-07-13T16:09:24Z,3990771.953,"c(""distractor1"", ""distractor2"", ""distractor3"")",Gegenwart,hadhara,s,katiba,jokofu,mikopo,NA,NA,NA,NA,NA,NA,NA,NA,NA,NA,NA,NA,NA,NA,NA,NA,NA,NA,NA,NA,NA,NA,NA
85968,"""Falsch""-Screen",canvas.Screen,1_1_5_1_2,NA,NA,timeout,4995.9569999999,3990764.2,3990755.37,3990771.953,3995751.695,3995752.7,2023-07-13T16:09:29Z,3995767.91,"c(""distractor1"", ""distractor2"", ""distractor3"")",Gegenwart,hadhara,s,katiba,jokofu,mikopo,NA,NA,0,NA,NA,NA,NA,NA,NA,NA,NA,NA,NA,NA,NA,NA,NA,NA,NA,NA,NA,NA,NA
85968,shallow,flow.Sequence,1_1_5_1,NA,NA,completion,10974.241,3984763.5,3984760.632,3984777.454,3995751.695,3995753.2,2023-07-13T16:09:29Z,3995767.91,"c(""distractor1"", ""distractor2"", ""distractor3"")",Gegenwart,hadhara,s,katiba,jokofu,mikopo,NA,NA,NA,NA,NA,NA,NA,NA,NA,NA,NA,NA,NA,NA,NA,NA,NA,NA,NA,NA,NA,NA,NA
85968,task,flow.Sequence,1_1_5,NA,NA,completion,10974.241,3984763.3,3984760.632,3984777.454,3995751.695,3995753.6000001,2023-07-13T16:09:29Z,3995767.91,"c(""distractor1"", ""distractor2"", ""distractor3"")",Gegenwart,hadhara,s,katiba,jokofu,mikopo,NA,NA,NA,NA,NA,NA,NA,NA,NA,NA,NA,NA,NA,NA,NA,NA,NA,NA,NA,NA,NA,NA,NA
85968,block,flow.Loop,1_1,NA,NA,completion,83198.73,3912542.7,3912535.86,3912552.965,3995751.695,3995754,2023-07-13T16:09:29Z,3995767.91,"c(""distractor1"", ""distractor2"", ""distractor3"")",NA,NA,NA,NA,NA,NA,NA,NA,NA,NA,NA,NA,NA,NA,NA,NA,NA,NA,NA,NA,NA,NA,NA,NA,NA,NA,NA,NA,NA
85968,Practice,flow.Sequence,1,NA,NA,completion,90809.091,3904947,3904936.672,3904942.604,3995751.695,3995754.3,2023-07-13T16:09:29Z,3995767.91,NULL,NA,NA,NA,NA,NA,NA,NA,NA,NA,NA,NA,NA,NA,NA,NA,NA,NA,NA,NA,NA,NA,NA,NA,NA,NA,NA,NA,NA,NA
85968,Experiment start,canvas.Screen,2,weiter,keypress(q),response,11115.990000095,3995754.5,3995751.695,3995767.91,4006883.9000001,4006885,2023-07-13T16:09:41Z,4006992.407,NULL,NA,NA,NA,NA,NA,NA,NA,NA,NA,NA,NA,NA,NA,NA,NA,NA,NA,NA,NA,NA,NA,NA,NA,NA,NA,NA,NA,NA,NA
85968,Deep Question,html.Page,3_0_0_0_0_0_0,NA,NA,form submission,5187.1930001429,4006974.6000001,4006958.665,4006992.407,4012179.6000001,4012179.8,2023-07-13T16:09:46Z,4012187.721,NULL,Kultur,utamaduni,d,NA,NA,NA,manana,NA,NA,0,NA,NA,NA,NA,NA,NA,NA,NA,NA,NA,NA,NA,NA,NA,NA,NA,NA,NA,NA
85968,"""Richtig""-Screen",canvas.Screen,3_0_0_0_0_0_1,NA,NA,skipped,NA,4012182.2,NA,NA,4012179.6000001,4012182.4000001,2023-07-13T16:09:46Z,4012187.721,NULL,Kultur,utamaduni,d,NA,NA,NA,NA,sdf,NA,0,NA,NA,NA,NA,NA,NA,NA,NA,NA,NA,NA,NA,NA,NA,NA,NA,NA,NA,NA
85968,"""Falsch""-Screen",canvas.Screen,3_0_0_0_0_0_2,NA,NA,timeout,4996.4369999999,4012183.3,4012171.677,4012187.721,4017167.501,4017168,2023-07-13T16:09:51Z,4017184.158,NULL,Kultur,utamaduni,d,NA,NA,NA,NA,sdf,0,0,NA,NA,NA,NA,NA,NA,NA,NA,NA,NA,NA,NA,NA,NA,NA,NA,NA,NA,NA
85968,deep,flow.Sequence,3_0_0_0_0_0,NA,NA,completion,10175.094,4006974.5,4006958.665,4006992.407,4017167.501,4017168.3,2023-07-13T16:09:51Z,4017184.158,NULL,Kultur,utamaduni,d,NA,NA,NA,NA,sdf,NA,0,NA,NA,NA,NA,NA,NA,NA,NA,NA,NA,NA,NA,NA,NA,NA,NA,NA,NA,NA
85968,shallow,flow.Sequence,3_0_0_0_0_1,NA,NA,skipped,NA,4017168.4000001,NA,NA,4017167.501,4017168.6000001,2023-07-13T16:09:51Z,4017184.158,NULL,Kultur,utamaduni,d,NA,NA,NA,NA,sdf,NA,0,NA,NA,NA,NA,NA,NA,NA,NA,NA,NA,NA,NA,NA,NA,NA,NA,NA,NA,NA
85968,task,flow.Sequence,3_0_0_0_0,NA,NA,completion,10175.094,4006974.5,4006958.665,4006992.407,4017167.501,4017168.7,2023-07-13T16:09:51Z,4017184.158,NULL,Kultur,utamaduni,d,NA,NA,NA,NA,sdf,NA,0,NA,NA,NA,NA,NA,NA,NA,NA,NA,NA,NA,NA,NA,NA,NA,NA,NA,NA,NA
85968,deep,flow.Sequence,3_0_0_0_1_0,NA,NA,skipped,NA,4017168.8,NA,NA,4017167.501,4017168.9000001,2023-07-13T16:09:51Z,4017184.158,NULL,Aufstand,ugomaji,s,mazidio,msingi,kujieleza,NA,sdf,NA,0,NA,NA,NA,NA,NA,NA,NA,NA,NA,NA,NA,NA,NA,NA,NA,NA,NA,NA,NA
85968,Shallow Question,html.Page,3_0_0_0_1_1_0,NA,NA,form submission,5705.1419999525,4017169,4017167.501,4017184.158,4022889.3,4022889.4000001,2023-07-13T16:09:57Z,4022895.539,NULL,Aufstand,ugomaji,s,mazidio,msingi,kujieleza,ugomaji,NA,NA,0,NA,NA,NA,NA,NA,NA,NA,NA,NA,NA,NA,NA,NA,NA,NA,NA,NA,NA,NA
85968,"""Richtig""-Screen",canvas.Screen,3_0_0_0_1_1_1,NA,NA,timeout,4995.9640000002,4022891.2,4022878.929,4022895.539,4027875.343,4027876.3,2023-07-13T16:10:02Z,4027891.503,NULL,Aufstand,ugomaji,s,mazidio,msingi,kujieleza,NA,sdf,1,0,NA,NA,NA,NA,NA,NA,NA,NA,NA,NA,NA,NA,NA,NA,NA,NA,NA,NA,NA
85968,"""Falsch""-Screen",canvas.Screen,3_0_0_0_1_1_2,NA,NA,skipped,NA,4027881.5,NA,NA,4027875.343,4027881.9000001,2023-07-13T16:10:02Z,4027891.503,NULL,Aufstand,ugomaji,s,mazidio,msingi,kujieleza,NA,sdf,NA,0,NA,NA,NA,NA,NA,NA,NA,NA,NA,NA,NA,NA,NA,NA,NA,NA,NA,NA,NA
85968,shallow,flow.Sequence,3_0_0_0_1_1,NA,NA,completion,10691.185,4017169,4017167.501,4017184.158,4027875.343,4027882.2,2023-07-13T16:10:02Z,4027891.503,NULL,Aufstand,ugomaji,s,mazidio,msingi,kujieleza,NA,sdf,NA,0,NA,NA,NA,NA,NA,NA,NA,NA,NA,NA,NA,NA,NA,NA,NA,NA,NA,NA,NA
85968,task,flow.Sequence,3_0_0_0_1,NA,NA,completion,10691.185,4017168.8,4017167.501,4017184.158,4027875.343,4027882.5,2023-07-13T16:10:02Z,4027891.503,NULL,Aufstand,ugomaji,s,mazidio,msingi,kujieleza,NA,sdf,NA,0,NA,NA,NA,NA,NA,NA,NA,NA,NA,NA,NA,NA,NA,NA,NA,NA,NA,NA,NA
85968,deep,flow.Sequence,3_0_0_0_2_0,NA,NA,skipped,NA,4027882.7,NA,NA,4027875.343,4027882.8,2023-07-13T16:10:02Z,4027891.503,NULL,Prüfung,mtihani,s,mkulima,mtizamo,ufumbuzi,NA,sdf,NA,0,NA,NA,NA,NA,NA,NA,NA,NA,NA,NA,NA,NA,NA,NA,NA,NA,NA,NA,NA
85968,Shallow Question,html.Page,3_0_0_0_2_1_0,NA,NA,form submission,10785.497,4027883,4027875.343,4027891.503,4038677,4038677.2,2023-07-13T16:10:12Z,4038682.572,NULL,Prüfung,mtihani,s,mkulima,mtizamo,ufumbuzi,mtizamo,NA,NA,0,NA,NA,NA,NA,NA,NA,NA,NA,NA,NA,NA,NA,NA,NA,NA,NA,NA,NA,NA
85968,"""Richtig""-Screen",canvas.Screen,3_0_0_0_2_1_1,NA,NA,skipped,NA,4038679.1000001,NA,NA,4038677,4038679.3,2023-07-13T16:10:12Z,4038682.572,NULL,Prüfung,mtihani,s,mkulima,mtizamo,ufumbuzi,NA,sdf,NA,0,NA,NA,NA,NA,NA,NA,NA,NA,NA,NA,NA,NA,NA,NA,NA,NA,NA,NA,NA
85968,"""Falsch""-Screen",canvas.Screen,3_0_0_0_2_1_2,NA,NA,timeout,4996.4619999998,4038679.8,4038666.568,4038682.572,4043661.917,4043662.8,2023-07-13T16:10:17Z,4043679.034,NULL,Prüfung,mtihani,s,mkulima,mtizamo,ufumbuzi,NA,sdf,0,0,NA,NA,NA,NA,NA,NA,NA,NA,NA,NA,NA,NA,NA,NA,NA,NA,NA,NA,NA
85968,shallow,flow.Sequence,3_0_0_0_2_1,NA,NA,completion,15770.414,4027883,4027875.343,4027891.503,4043661.917,4043663.3,2023-07-13T16:10:17Z,4043679.034,NULL,Prüfung,mtihani,s,mkulima,mtizamo,ufumbuzi,NA,sdf,NA,0,NA,NA,NA,NA,NA,NA,NA,NA,NA,NA,NA,NA,NA,NA,NA,NA,NA,NA,NA
85968,task,flow.Sequence,3_0_0_0_2,NA,NA,completion,15770.414,4027882.6000001,4027875.343,4027891.503,4043661.917,4043663.5,2023-07-13T16:10:17Z,4043679.034,NULL,Prüfung,mtihani,s,mkulima,mtizamo,ufumbuzi,NA,sdf,NA,0,NA,NA,NA,NA,NA,NA,NA,NA,NA,NA,NA,NA,NA,NA,NA,NA,NA,NA,NA
85968,Deep Question,html.Page,3_0_0_0_3_0_0,NA,NA,form submission,5049.466,4043663.8,4043661.917,4043679.034,4048728.5,4048728.7,2023-07-13T16:10:22Z,4048741.143,NULL,Verzögerung,kuchelewa,d,NA,NA,NA,halaga,NA,NA,0,NA,NA,NA,NA,NA,NA,NA,NA,NA,NA,NA,NA,NA,NA,NA,NA,NA,NA,NA
85968,"""Richtig""-Screen",canvas.Screen,3_0_0_0_3_0_1,NA,NA,skipped,NA,4048731.2,NA,NA,4048728.5,4048731.4000001,2023-07-13T16:10:22Z,4048741.143,NULL,Verzögerung,kuchelewa,d,NA,NA,NA,NA,sdf,NA,0,NA,NA,NA,NA,NA,NA,NA,NA,NA,NA,NA,NA,NA,NA,NA,NA,NA,NA,NA
85968,"""Falsch""-Screen",canvas.Screen,3_0_0_0_3_0_2,NA,NA,timeout,4996.054,4048732.3,4048724.602,4048741.143,4053720.341,4053721.4000001,2023-07-13T16:10:27Z,4053737.197,NULL,Verzögerung,kuchelewa,d,NA,NA,NA,NA,sdf,0,0,NA,NA,NA,NA,NA,NA,NA,NA,NA,NA,NA,NA,NA,NA,NA,NA,NA,NA,NA
85968,deep,flow.Sequence,3_0_0_0_3_0,NA,NA,completion,10041.307,4043663.8,4043661.917,4043679.034,4053720.341,4053721.8,2023-07-13T16:10:27Z,4053737.197,NULL,Verzögerung,kuchelewa,d,NA,NA,NA,NA,sdf,NA,0,NA,NA,NA,NA,NA,NA,NA,NA,NA,NA,NA,NA,NA,NA,NA,NA,NA,NA,NA
85968,shallow,flow.Sequence,3_0_0_0_3_1,NA,NA,skipped,NA,4053722,NA,NA,4053720.341,4053722.3,2023-07-13T16:10:27Z,4053737.197,NULL,Verzögerung,kuchelewa,d,NA,NA,NA,NA,sdf,NA,0,NA,NA,NA,NA,NA,NA,NA,NA,NA,NA,NA,NA,NA,NA,NA,NA,NA,NA,NA
85968,task,flow.Sequence,3_0_0_0_3,NA,NA,completion,10041.307,4043663.7,4043661.917,4043679.034,4053720.341,4053722.5,2023-07-13T16:10:27Z,4053737.197,NULL,Verzögerung,kuchelewa,d,NA,NA,NA,NA,sdf,NA,0,NA,NA,NA,NA,NA,NA,NA,NA,NA,NA,NA,NA,NA,NA,NA,NA,NA,NA,NA
85968,Deep Question,html.Page,3_0_0_0_4_0_0,NA,NA,form submission,5057.1029999522,4053722.7,4053720.341,4053737.197,4058794.3,4058794.5,2023-07-13T16:10:32Z,4058799.396,NULL,Sympathie,mapendano,d,NA,NA,NA,sikolo,NA,NA,0,NA,NA,NA,NA,NA,NA,NA,NA,NA,NA,NA,NA,NA,NA,NA,NA,NA,NA,NA
85968,"""Richtig""-Screen",canvas.Screen,3_0_0_0_4_0_1,NA,NA,skipped,NA,4058797.2,NA,NA,4058794.3,4058797.3,2023-07-13T16:10:32Z,4058799.396,NULL,Sympathie,mapendano,d,NA,NA,NA,NA,sdf,NA,0,NA,NA,NA,NA,NA,NA,NA,NA,NA,NA,NA,NA,NA,NA,NA,NA,NA,NA,NA
85968,"""Falsch""-Screen",canvas.Screen,3_0_0_0_4_0_2,NA,NA,timeout,4996.523,4058798.2,4058782.956,4058799.396,4063779.312,4063779.9000001,2023-07-13T16:10:37Z,4063795.919,NULL,Sympathie,mapendano,d,NA,NA,NA,NA,sdf,0,0,NA,NA,NA,NA,NA,NA,NA,NA,NA,NA,NA,NA,NA,NA,NA,NA,NA,NA,NA
85968,deep,flow.Sequence,3_0_0_0_4_0,NA,NA,completion,10042.115,4053722.7,4053720.341,4053737.197,4063779.312,4063780.1000001,2023-07-13T16:10:37Z,4063795.919,NULL,Sympathie,mapendano,d,NA,NA,NA,NA,sdf,NA,0,NA,NA,NA,NA,NA,NA,NA,NA,NA,NA,NA,NA,NA,NA,NA,NA,NA,NA,NA
85968,shallow,flow.Sequence,3_0_0_0_4_1,NA,NA,skipped,NA,4063780.1000001,NA,NA,4063779.312,4063780.2,2023-07-13T16:10:37Z,4063795.919,NULL,Sympathie,mapendano,d,NA,NA,NA,NA,sdf,NA,0,NA,NA,NA,NA,NA,NA,NA,NA,NA,NA,NA,NA,NA,NA,NA,NA,NA,NA,NA
85968,task,flow.Sequence,3_0_0_0_4,NA,NA,completion,10042.115,4053722.6000001,4053720.341,4053737.197,4063779.312,4063780.3,2023-07-13T16:10:37Z,4063795.919,NULL,Sympathie,mapendano,d,NA,NA,NA,NA,sdf,NA,0,NA,NA,NA,NA,NA,NA,NA,NA,NA,NA,NA,NA,NA,NA,NA,NA,NA,NA,NA
85968,deep,flow.Sequence,3_0_0_0_5_0,NA,NA,skipped,NA,4063780.4000001,NA,NA,4063779.312,4063780.5,2023-07-13T16:10:37Z,4063795.919,NULL,Beweis,ushahidi,s,marudio,kizuizi,mtendaji,NA,sdf,NA,0,NA,NA,NA,NA,NA,NA,NA,NA,NA,NA,NA,NA,NA,NA,NA,NA,NA,NA,NA
85968,Shallow Question,html.Page,3_0_0_0_5_1_0,NA,NA,form submission,7063.4810000951,4063780.5,4063779.312,4063795.919,4070859.4000001,4070859.6000001,2023-07-13T16:10:44Z,4070873.445,NULL,Beweis,ushahidi,s,marudio,kizuizi,mtendaji,kizuizi,NA,NA,0,NA,NA,NA,NA,NA,NA,NA,NA,NA,NA,NA,NA,NA,NA,NA,NA,NA,NA,NA
85968,"""Richtig""-Screen",canvas.Screen,3_0_0_0_5_1_1,NA,NA,skipped,NA,4070861.6000001,NA,NA,4070859.4000001,4070861.7,2023-07-13T16:10:45Z,4070873.445,NULL,Beweis,ushahidi,s,marudio,kizuizi,mtendaji,NA,sdf,NA,0,NA,NA,NA,NA,NA,NA,NA,NA,NA,NA,NA,NA,NA,NA,NA,NA,NA,NA,NA
85968,"""Falsch""-Screen",canvas.Screen,3_0_0_0_5_1_2,NA,NA,timeout,4995.9040000001,4070862.3,4070856.378,4070873.445,4075852.173,4075853.2,2023-07-13T16:10:49Z,4075869.349,NULL,Beweis,ushahidi,s,marudio,kizuizi,mtendaji,NA,sdf,0,0,NA,NA,NA,NA,NA,NA,NA,NA,NA,NA,NA,NA,NA,NA,NA,NA,NA,NA,NA
85968,shallow,flow.Sequence,3_0_0_0_5_1,NA,NA,completion,12056.254,4063780.5,4063779.312,4063795.919,4075852.173,4075853.7,2023-07-13T16:10:49Z,4075869.349,NULL,Beweis,ushahidi,s,marudio,kizuizi,mtendaji,NA,sdf,NA,0,NA,NA,NA,NA,NA,NA,NA,NA,NA,NA,NA,NA,NA,NA,NA,NA,NA,NA,NA
85968,task,flow.Sequence,3_0_0_0_5,NA,NA,completion,12056.254,4063780.4000001,4063779.312,4063795.919,4075852.173,4075854,2023-07-13T16:10:49Z,4075869.349,NULL,Beweis,ushahidi,s,marudio,kizuizi,mtendaji,NA,sdf,NA,0,NA,NA,NA,NA,NA,NA,NA,NA,NA,NA,NA,NA,NA,NA,NA,NA,NA,NA,NA
85968,deep,flow.Sequence,3_0_0_0_6_0,NA,NA,skipped,NA,4075854.3,NA,NA,4075852.173,4075854.5,2023-07-13T16:10:49Z,4075869.349,NULL,Polizist,msongora,s,simanzi,mandhari,nidhamu,NA,sdf,NA,0,NA,NA,NA,NA,NA,NA,NA,NA,NA,NA,NA,NA,NA,NA,NA,NA,NA,NA,NA
85968,Shallow Question,html.Page,3_0_0_0_6_1_0,NA,NA,form submission,5185.5510000954,4075854.7,4075852.173,4075869.349,4081054.9000001,4081055,2023-07-13T16:10:55Z,4081064.841,NULL,Polizist,msongora,s,simanzi,mandhari,nidhamu,mandhari,NA,NA,0,NA,NA,NA,NA,NA,NA,NA,NA,NA,NA,NA,NA,NA,NA,NA,NA,NA,NA,NA
85968,"""Richtig""-Screen",canvas.Screen,3_0_0_0_6_1_1,NA,NA,skipped,NA,4081057,NA,NA,4081054.9000001,4081057.2,2023-07-13T16:10:55Z,4081064.841,NULL,Polizist,msongora,s,simanzi,mandhari,nidhamu,NA,sdf,NA,0,NA,NA,NA,NA,NA,NA,NA,NA,NA,NA,NA,NA,NA,NA,NA,NA,NA,NA,NA
85968,"""Falsch""-Screen",canvas.Screen,3_0_0_0_6_1_2,NA,NA,timeout,4995.8199999998,4081057.9000001,4081048.315,4081064.841,4086044.147,4086045,2023-07-13T16:11:00Z,4086060.661,NULL,Polizist,msongora,s,simanzi,mandhari,nidhamu,NA,sdf,0,0,NA,NA,NA,NA,NA,NA,NA,NA,NA,NA,NA,NA,NA,NA,NA,NA,NA,NA,NA
85968,shallow,flow.Sequence,3_0_0_0_6_1,NA,NA,completion,10174.798,4075854.6000001,4075852.173,4075869.349,4086044.147,4086045.5,2023-07-13T16:11:00Z,4086060.661,NULL,Polizist,msongora,s,simanzi,mandhari,nidhamu,NA,sdf,NA,0,NA,NA,NA,NA,NA,NA,NA,NA,NA,NA,NA,NA,NA,NA,NA,NA,NA,NA,NA
85968,task,flow.Sequence,3_0_0_0_6,NA,NA,completion,10174.798,4075854.2,4075852.173,4075869.349,4086044.147,4086045.8,2023-07-13T16:11:00Z,4086060.661,NULL,Polizist,msongora,s,simanzi,mandhari,nidhamu,NA,sdf,NA,0,NA,NA,NA,NA,NA,NA,NA,NA,NA,NA,NA,NA,NA,NA,NA,NA,NA,NA,NA
85968,Deep Question,html.Page,3_0_0_0_7_0_0,NA,NA,form submission,3697.9390001432,4086046.1000001,4086044.147,4086060.661,4089758.6000001,4089758.9000001,2023-07-13T16:11:03Z,4089773.933,NULL,Annäherung,maegesho,d,NA,NA,NA,nahaba,NA,NA,0,NA,NA,NA,NA,NA,NA,NA,NA,NA,NA,NA,NA,NA,NA,NA,NA,NA,NA,NA
85968,"""Richtig""-Screen",canvas.Screen,3_0_0_0_7_0_1,NA,NA,skipped,NA,4089761.7,NA,NA,4089758.6000001,4089761.8,2023-07-13T16:11:03Z,4089773.933,NULL,Annäherung,maegesho,d,NA,NA,NA,NA,sdf,NA,0,NA,NA,NA,NA,NA,NA,NA,NA,NA,NA,NA,NA,NA,NA,NA,NA,NA,NA,NA
85968,"""Falsch""-Screen",canvas.Screen,3_0_0_0_7_0_2,NA,NA,timeout,4995.9529999997,4089763.3,4089757.96,4089773.933,4094753.713,4094754.7,2023-07-13T16:11:08Z,4094769.886,NULL,Annäherung,maegesho,d,NA,NA,NA,NA,sdf,0,0,NA,NA,NA,NA,NA,NA,NA,NA,NA,NA,NA,NA,NA,NA,NA,NA,NA,NA,NA
85968,deep,flow.Sequence,3_0_0_0_7_0,NA,NA,completion,8693.0520000001,4086046.1000001,4086044.147,4086060.661,4094753.713,4094755.3,2023-07-13T16:11:08Z,4094769.886,NULL,Annäherung,maegesho,d,NA,NA,NA,NA,sdf,NA,0,NA,NA,NA,NA,NA,NA,NA,NA,NA,NA,NA,NA,NA,NA,NA,NA,NA,NA,NA
85968,shallow,flow.Sequence,3_0_0_0_7_1,NA,NA,skipped,NA,4094755.5,NA,NA,4094753.713,4094755.7,2023-07-13T16:11:08Z,4094769.886,NULL,Annäherung,maegesho,d,NA,NA,NA,NA,sdf,NA,0,NA,NA,NA,NA,NA,NA,NA,NA,NA,NA,NA,NA,NA,NA,NA,NA,NA,NA,NA
85968,task,flow.Sequence,3_0_0_0_7,NA,NA,completion,8693.0520000001,4086046,4086044.147,4086060.661,4094753.713,4094755.9000001,2023-07-13T16:11:08Z,4094769.886,NULL,Annäherung,maegesho,d,NA,NA,NA,NA,sdf,NA,0,NA,NA,NA,NA,NA,NA,NA,NA,NA,NA,NA,NA,NA,NA,NA,NA,NA,NA,NA
85968,block,flow.Loop,3_0_0_0,NA,NA,completion,87761.306,4006974.5,4006958.665,4006992.407,4094753.713,4094756.3,2023-07-13T16:11:08Z,4094769.886,NULL,NA,NA,NA,NA,NA,NA,NA,sdf,NA,0,NA,NA,NA,NA,NA,NA,NA,NA,NA,NA,NA,NA,NA,NA,NA,NA,NA,NA,NA
85968,weiter,canvas.Screen,3_0_0_1,sdf,keypress(Space),response,97.214000143111,4094756.4000001,4094753.713,4094769.886,4094867.1000001,4094868.2,2023-07-13T16:11:09Z,4094921.499,NULL,NA,NA,NA,NA,NA,NA,NA,sdf,NA,0,NA,NA,NA,NA,NA,NA,NA,NA,NA,NA,NA,NA,NA,NA,NA,NA,NA,NA,NA
85968,check continue,flow.Sequence,3_0_0,NA,NA,completion,87874.693000143,4006974.5,4006958.665,4006992.407,4094867.1000001,4094868.6000001,2023-07-13T16:11:09Z,4094921.499,NULL,NA,NA,NA,NA,NA,NA,NA,sdf,NA,0,NA,NA,NA,NA,NA,NA,NA,NA,NA,NA,NA,NA,NA,NA,NA,NA,NA,NA,NA
85968,deep,flow.Sequence,3_0_1_0_0_0,NA,NA,skipped,NA,4094901.8,NA,NA,4094867.1000001,4094902,2023-07-13T16:11:09Z,4094921.499,NULL,Beweis,ushahidi,s,marudio,kizuizi,mtendaji,NA,sdfdsf,NA,1,NA,NA,NA,NA,NA,NA,NA,NA,NA,NA,NA,NA,NA,NA,NA,NA,NA,NA,NA
85968,Shallow Question,html.Page,3_0_1_0_0_1_0,NA,NA,form submission,7190.0010000002,4094902.1000001,4094886.537,4094921.499,4102111.5,4102111.8,2023-07-13T16:11:16Z,4102113.771,NULL,Beweis,ushahidi,s,marudio,kizuizi,mtendaji,ushahidi,NA,NA,1,NA,NA,NA,NA,NA,NA,NA,NA,NA,NA,NA,NA,NA,NA,NA,NA,NA,NA,NA
85968,"""Richtig""-Screen",canvas.Screen,3_0_1_0_0_1_1,NA,NA,timeout,4995.9269999997,4102113.5,4102097.674,4102113.771,4107092.992,4107095.3,2023-07-13T16:11:21Z,4107109.698,NULL,Beweis,ushahidi,s,marudio,kizuizi,mtendaji,NA,sdfdsf,1,1,NA,NA,NA,NA,NA,NA,NA,NA,NA,NA,NA,NA,NA,NA,NA,NA,NA,NA,NA
85968,"""Falsch""-Screen",canvas.Screen,3_0_1_0_0_1_2,NA,NA,skipped,NA,4107097.7,NA,NA,4107092.992,4107097.9000001,2023-07-13T16:11:21Z,4107109.698,NULL,Beweis,ushahidi,s,marudio,kizuizi,mtendaji,NA,sdfdsf,NA,1,NA,NA,NA,NA,NA,NA,NA,NA,NA,NA,NA,NA,NA,NA,NA,NA,NA,NA,NA
85968,shallow,flow.Sequence,3_0_1_0_0_1,NA,NA,completion,12171.493,4094902.1000001,4094886.537,4094921.499,4107092.992,4107098.1000001,2023-07-13T16:11:21Z,4107109.698,NULL,Beweis,ushahidi,s,marudio,kizuizi,mtendaji,NA,sdfdsf,NA,1,NA,NA,NA,NA,NA,NA,NA,NA,NA,NA,NA,NA,NA,NA,NA,NA,NA,NA,NA
85968,task,flow.Sequence,3_0_1_0_0,NA,NA,completion,12171.493,4094901.8,4094886.537,4094921.499,4107092.992,4107098.2,2023-07-13T16:11:21Z,4107109.698,NULL,Beweis,ushahidi,s,marudio,kizuizi,mtendaji,NA,sdfdsf,NA,1,NA,NA,NA,NA,NA,NA,NA,NA,NA,NA,NA,NA,NA,NA,NA,NA,NA,NA,NA
85968,Deep Question,html.Page,3_0_1_0_1_0_0,NA,NA,form submission,9716.8020000001,4107098.3,4107092.992,4107109.698,4116826.5,4116826.7,2023-07-13T16:11:30Z,4116835.011,NULL,Verzögerung,kuchelewa,d,NA,NA,NA,kuchelewa,NA,NA,1,NA,NA,NA,NA,NA,NA,NA,NA,NA,NA,NA,NA,NA,NA,NA,NA,NA,NA,NA
85968,"""Richtig""-Screen",canvas.Screen,3_0_1_0_1_0_1,NA,NA,timeout,4996.0890000002,4116828.4000001,4116818.984,4116835.011,4121814.698,4121815.8,2023-07-13T16:11:35Z,4121831.1,NULL,Verzögerung,kuchelewa,d,NA,NA,NA,NA,sdfdsf,1,1,NA,NA,NA,NA,NA,NA,NA,NA,NA,NA,NA,NA,NA,NA,NA,NA,NA,NA,NA
85968,"""Falsch""-Screen",canvas.Screen,3_0_1_0_1_0_2,NA,NA,skipped,NA,4121820.5,NA,NA,4121814.698,4121820.6000001,2023-07-13T16:11:35Z,4121831.1,NULL,Verzögerung,kuchelewa,d,NA,NA,NA,NA,sdfdsf,NA,1,NA,NA,NA,NA,NA,NA,NA,NA,NA,NA,NA,NA,NA,NA,NA,NA,NA,NA,NA
85968,deep,flow.Sequence,3_0_1_0_1_0,NA,NA,completion,14705,4107098.3,4107092.992,4107109.698,4121814.698,4121820.7,2023-07-13T16:11:35Z,4121831.1,NULL,Verzögerung,kuchelewa,d,NA,NA,NA,NA,sdfdsf,NA,1,NA,NA,NA,NA,NA,NA,NA,NA,NA,NA,NA,NA,NA,NA,NA,NA,NA,NA,NA
85968,shallow,flow.Sequence,3_0_1_0_1_1,NA,NA,skipped,NA,4121820.7,NA,NA,4121814.698,4121820.8,2023-07-13T16:11:35Z,4121831.1,NULL,Verzögerung,kuchelewa,d,NA,NA,NA,NA,sdfdsf,NA,1,NA,NA,NA,NA,NA,NA,NA,NA,NA,NA,NA,NA,NA,NA,NA,NA,NA,NA,NA
85968,task,flow.Sequence,3_0_1_0_1,NA,NA,completion,14705,4107098.3,4107092.992,4107109.698,4121814.698,4121820.9000001,2023-07-13T16:11:35Z,4121831.1,NULL,Verzögerung,kuchelewa,d,NA,NA,NA,NA,sdfdsf,NA,1,NA,NA,NA,NA,NA,NA,NA,NA,NA,NA,NA,NA,NA,NA,NA,NA,NA,NA,NA
85968,deep,flow.Sequence,3_0_1_0_2_0,NA,NA,skipped,NA,4121820.9000001,NA,NA,4121814.698,4121821,2023-07-13T16:11:35Z,4121831.1,NULL,Aufstand,ugomaji,s,mazidio,msingi,kujieleza,NA,sdfdsf,NA,1,NA,NA,NA,NA,NA,NA,NA,NA,NA,NA,NA,NA,NA,NA,NA,NA,NA,NA,NA
85968,Shallow Question,html.Page,3_0_1_0_2_1_0,NA,NA,form submission,8869.500000143,4121821.1000001,4121814.698,4121831.1,4130700.6000001,4130700.8,2023-07-13T16:11:44Z,4130706.934,NULL,Aufstand,ugomaji,s,mazidio,msingi,kujieleza,mazidio,NA,NA,1,NA,NA,NA,NA,NA,NA,NA,NA,NA,NA,NA,NA,NA,NA,NA,NA,NA,NA,NA
85968,"""Richtig""-Screen",canvas.Screen,3_0_1_0_2_1_1,NA,NA,skipped,NA,4130702.6000001,NA,NA,4130700.6000001,4130702.7,2023-07-13T16:11:44Z,4130706.934,NULL,Aufstand,ugomaji,s,mazidio,msingi,kujieleza,NA,sdfdsf,NA,1,NA,NA,NA,NA,NA,NA,NA,NA,NA,NA,NA,NA,NA,NA,NA,NA,NA,NA,NA
85968,"""Falsch""-Screen",canvas.Screen,3_0_1_0_2_1_2,NA,NA,timeout,4996.4580000001,4130703.3,4130690.215,4130706.934,4135686.845,4135687.7,2023-07-13T16:11:49Z,4135703.392,NULL,Aufstand,ugomaji,s,mazidio,msingi,kujieleza,NA,sdfdsf,0,1,NA,NA,NA,NA,NA,NA,NA,NA,NA,NA,NA,NA,NA,NA,NA,NA,NA,NA,NA
85968,shallow,flow.Sequence,3_0_1_0_2_1,NA,NA,completion,13855.745,4121821.1000001,4121814.698,4121831.1,4135686.845,4135688.2,2023-07-13T16:11:49Z,4135703.392,NULL,Aufstand,ugomaji,s,mazidio,msingi,kujieleza,NA,sdfdsf,NA,1,NA,NA,NA,NA,NA,NA,NA,NA,NA,NA,NA,NA,NA,NA,NA,NA,NA,NA,NA
85968,task,flow.Sequence,3_0_1_0_2,NA,NA,completion,13855.745,4121820.9000001,4121814.698,4121831.1,4135686.845,4135688.4000001,2023-07-13T16:11:49Z,4135703.392,NULL,Aufstand,ugomaji,s,mazidio,msingi,kujieleza,NA,sdfdsf,NA,1,NA,NA,NA,NA,NA,NA,NA,NA,NA,NA,NA,NA,NA,NA,NA,NA,NA,NA,NA
85968,Deep Question,html.Page,3_0_1_0_3_0_0,NA,NA,form submission,5410.0080000954,4135688.7,4135686.845,4135703.392,4141113.4000001,4141113.6000001,2023-07-13T16:11:55Z,4141115.034,NULL,Kultur,utamaduni,d,NA,NA,NA,buhaidi,NA,NA,1,NA,NA,NA,NA,NA,NA,NA,NA,NA,NA,NA,NA,NA,NA,NA,NA,NA,NA,NA
85968,"""Richtig""-Screen",canvas.Screen,3_0_1_0_3_0_1,NA,NA,skipped,NA,4141115.6000001,NA,NA,4141113.4000001,4141115.8,2023-07-13T16:11:55Z,4141115.034,NULL,Kultur,utamaduni,d,NA,NA,NA,NA,sdfdsf,NA,1,NA,NA,NA,NA,NA,NA,NA,NA,NA,NA,NA,NA,NA,NA,NA,NA,NA,NA,NA
85968,"""Falsch""-Screen",canvas.Screen,3_0_1_0_3_0_2,NA,NA,timeout,4996.108,4141116.6000001,4141098.974,4141115.034,4146094.711,4146095.7,2023-07-13T16:12:00Z,4146111.142,NULL,Kultur,utamaduni,d,NA,NA,NA,NA,sdfdsf,0,1,NA,NA,NA,NA,NA,NA,NA,NA,NA,NA,NA,NA,NA,NA,NA,NA,NA,NA,NA
85968,deep,flow.Sequence,3_0_1_0_3_0,NA,NA,completion,10391.319,4135688.7,4135686.845,4135703.392,4146094.711,4146096.1000001,2023-07-13T16:12:00Z,4146111.142,NULL,Kultur,utamaduni,d,NA,NA,NA,NA,sdfdsf,NA,1,NA,NA,NA,NA,NA,NA,NA,NA,NA,NA,NA,NA,NA,NA,NA,NA,NA,NA,NA
85968,shallow,flow.Sequence,3_0_1_0_3_1,NA,NA,skipped,NA,4146096.3,NA,NA,4146094.711,4146096.5,2023-07-13T16:12:00Z,4146111.142,NULL,Kultur,utamaduni,d,NA,NA,NA,NA,sdfdsf,NA,1,NA,NA,NA,NA,NA,NA,NA,NA,NA,NA,NA,NA,NA,NA,NA,NA,NA,NA,NA
85968,task,flow.Sequence,3_0_1_0_3,NA,NA,completion,10391.319,4135688.6000001,4135686.845,4135703.392,4146094.711,4146096.8,2023-07-13T16:12:00Z,4146111.142,NULL,Kultur,utamaduni,d,NA,NA,NA,NA,sdfdsf,NA,1,NA,NA,NA,NA,NA,NA,NA,NA,NA,NA,NA,NA,NA,NA,NA,NA,NA,NA,NA
85968,deep,flow.Sequence,3_0_1_0_4_0,NA,NA,skipped,NA,4146097.1000001,NA,NA,4146094.711,4146097.2,2023-07-13T16:12:00Z,4146111.142,NULL,Prüfung,mtihani,s,mkulima,mtizamo,ufumbuzi,NA,sdfdsf,NA,1,NA,NA,NA,NA,NA,NA,NA,NA,NA,NA,NA,NA,NA,NA,NA,NA,NA,NA,NA
85968,Shallow Question,html.Page,3_0_1_0_4_1_0,NA,NA,form submission,9176.858,4146097.4000001,4146094.711,4146111.142,4155288,4155288.2,2023-07-13T16:12:09Z,4155304.133,NULL,Prüfung,mtihani,s,mkulima,mtizamo,ufumbuzi,mtihani,NA,NA,1,NA,NA,NA,NA,NA,NA,NA,NA,NA,NA,NA,NA,NA,NA,NA,NA,NA,NA,NA
85968,"""Richtig""-Screen",canvas.Screen,3_0_1_0_4_1_1,NA,NA,timeout,4995.3650000002,4155289.8,4155287.129,4155304.133,4160283.185,4160284.1000001,2023-07-13T16:12:14Z,4160299.498,NULL,Prüfung,mtihani,s,mkulima,mtizamo,ufumbuzi,NA,sdfdsf,1,1,NA,NA,NA,NA,NA,NA,NA,NA,NA,NA,NA,NA,NA,NA,NA,NA,NA,NA,NA
85968,"""Falsch""-Screen",canvas.Screen,3_0_1_0_4_1_2,NA,NA,skipped,NA,4160289,NA,NA,4160283.185,4160289.2,2023-07-13T16:12:14Z,4160299.498,NULL,Prüfung,mtihani,s,mkulima,mtizamo,ufumbuzi,NA,sdfdsf,NA,1,NA,NA,NA,NA,NA,NA,NA,NA,NA,NA,NA,NA,NA,NA,NA,NA,NA,NA,NA
85968,shallow,flow.Sequence,3_0_1_0_4_1,NA,NA,completion,14172.043,4146097.3,4146094.711,4146111.142,4160283.185,4160289.3,2023-07-13T16:12:14Z,4160299.498,NULL,Prüfung,mtihani,s,mkulima,mtizamo,ufumbuzi,NA,sdfdsf,NA,1,NA,NA,NA,NA,NA,NA,NA,NA,NA,NA,NA,NA,NA,NA,NA,NA,NA,NA,NA
85968,task,flow.Sequence,3_0_1_0_4,NA,NA,completion,14172.043,4146097,4146094.711,4146111.142,4160283.185,4160289.5,2023-07-13T16:12:14Z,4160299.498,NULL,Prüfung,mtihani,s,mkulima,mtizamo,ufumbuzi,NA,sdfdsf,NA,1,NA,NA,NA,NA,NA,NA,NA,NA,NA,NA,NA,NA,NA,NA,NA,NA,NA,NA,NA
85968,Deep Question,html.Page,3_0_1_0_5_0_0,NA,NA,form submission,5772.9020000952,4160289.6000001,4160283.185,4160299.498,4166072.4000001,4166072.6000001,2023-07-13T16:12:20Z,4166077.864,NULL,Sympathie,mapendano,d,NA,NA,NA,muhaanidi,NA,NA,1,NA,NA,NA,NA,NA,NA,NA,NA,NA,NA,NA,NA,NA,NA,NA,NA,NA,NA,NA
85968,"""Richtig""-Screen",canvas.Screen,3_0_1_0_5_0_1,NA,NA,skipped,NA,4166074.5,NA,NA,4166072.4000001,4166074.6000001,2023-07-13T16:12:20Z,4166077.864,NULL,Sympathie,mapendano,d,NA,NA,NA,NA,sdfdsf,NA,1,NA,NA,NA,NA,NA,NA,NA,NA,NA,NA,NA,NA,NA,NA,NA,NA,NA,NA,NA
85968,"""Falsch""-Screen",canvas.Screen,3_0_1_0_5_0_2,NA,NA,timeout,4996.4619999998,4166075.3,4166061.71,4166077.864,4171057.687,4171058.7,2023-07-13T16:12:25Z,4171074.326,NULL,Sympathie,mapendano,d,NA,NA,NA,NA,sdfdsf,0,1,NA,NA,NA,NA,NA,NA,NA,NA,NA,NA,NA,NA,NA,NA,NA,NA,NA,NA,NA
85968,deep,flow.Sequence,3_0_1_0_5_0,NA,NA,completion,10758.189,4160289.6000001,4160283.185,4160299.498,4171057.687,4171059.2,2023-07-13T16:12:25Z,4171074.326,NULL,Sympathie,mapendano,d,NA,NA,NA,NA,sdfdsf,NA,1,NA,NA,NA,NA,NA,NA,NA,NA,NA,NA,NA,NA,NA,NA,NA,NA,NA,NA,NA
85968,shallow,flow.Sequence,3_0_1_0_5_1,NA,NA,skipped,NA,4171059.4000001,NA,NA,4171057.687,4171059.6000001,2023-07-13T16:12:25Z,4171074.326,NULL,Sympathie,mapendano,d,NA,NA,NA,NA,sdfdsf,NA,1,NA,NA,NA,NA,NA,NA,NA,NA,NA,NA,NA,NA,NA,NA,NA,NA,NA,NA,NA
85968,task,flow.Sequence,3_0_1_0_5,NA,NA,completion,10758.189,4160289.5,4160283.185,4160299.498,4171057.687,4171059.9000001,2023-07-13T16:12:25Z,4171074.326,NULL,Sympathie,mapendano,d,NA,NA,NA,NA,sdfdsf,NA,1,NA,NA,NA,NA,NA,NA,NA,NA,NA,NA,NA,NA,NA,NA,NA,NA,NA,NA,NA
85968,Deep Question,html.Page,3_0_1_0_6_0_0,NA,NA,form submission,4304.8740000478,4171060.2,4171057.687,4171074.326,4175379.2,4175379.4000001,2023-07-13T16:12:29Z,4175386.849,NULL,Annäherung,maegesho,d,NA,NA,NA,keaaidi,NA,NA,1,NA,NA,NA,NA,NA,NA,NA,NA,NA,NA,NA,NA,NA,NA,NA,NA,NA,NA,NA
85968,"""Richtig""-Screen",canvas.Screen,3_0_1_0_6_0_1,NA,NA,skipped,NA,4175381.6000001,NA,NA,4175379.2,4175381.8,2023-07-13T16:12:29Z,4175386.849,NULL,Annäherung,maegesho,d,NA,NA,NA,NA,sdfdsf,NA,1,NA,NA,NA,NA,NA,NA,NA,NA,NA,NA,NA,NA,NA,NA,NA,NA,NA,NA,NA
85968,"""Falsch""-Screen",canvas.Screen,3_0_1_0_6_0_2,NA,NA,timeout,4996.673,4175382.4000001,4175370.566,4175386.849,4180366.298,4180367.3,2023-07-13T16:12:34Z,4180383.522,NULL,Annäherung,maegesho,d,NA,NA,NA,NA,sdfdsf,0,1,NA,NA,NA,NA,NA,NA,NA,NA,NA,NA,NA,NA,NA,NA,NA,NA,NA,NA,NA
85968,deep,flow.Sequence,3_0_1_0_6_0,NA,NA,completion,9291.9720000001,4171060.2,4171057.687,4171074.326,4180366.298,4180367.7,2023-07-13T16:12:34Z,4180383.522,NULL,Annäherung,maegesho,d,NA,NA,NA,NA,sdfdsf,NA,1,NA,NA,NA,NA,NA,NA,NA,NA,NA,NA,NA,NA,NA,NA,NA,NA,NA,NA,NA
85968,shallow,flow.Sequence,3_0_1_0_6_1,NA,NA,skipped,NA,4180367.9000001,NA,NA,4180366.298,4180368.1000001,2023-07-13T16:12:34Z,4180383.522,NULL,Annäherung,maegesho,d,NA,NA,NA,NA,sdfdsf,NA,1,NA,NA,NA,NA,NA,NA,NA,NA,NA,NA,NA,NA,NA,NA,NA,NA,NA,NA,NA
85968,task,flow.Sequence,3_0_1_0_6,NA,NA,completion,9291.9720000001,4171060.2,4171057.687,4171074.326,4180366.298,4180368.4000001,2023-07-13T16:12:34Z,4180383.522,NULL,Annäherung,maegesho,d,NA,NA,NA,NA,sdfdsf,NA,1,NA,NA,NA,NA,NA,NA,NA,NA,NA,NA,NA,NA,NA,NA,NA,NA,NA,NA,NA
85968,deep,flow.Sequence,3_0_1_0_7_0,NA,NA,skipped,NA,4180368.6000001,NA,NA,4180366.298,4180368.8,2023-07-13T16:12:34Z,4180383.522,NULL,Polizist,msongora,s,simanzi,mandhari,nidhamu,NA,sdfdsf,NA,1,NA,NA,NA,NA,NA,NA,NA,NA,NA,NA,NA,NA,NA,NA,NA,NA,NA,NA,NA
85968,Shallow Question,html.Page,3_0_1_0_7_1_0,NA,NA,form submission,8416.7779999524,4180368.9000001,4180366.298,4180383.522,4188800.3,4188800.5,2023-07-13T16:12:42Z,4188809.221,NULL,Polizist,msongora,s,simanzi,mandhari,nidhamu,msongora,NA,NA,1,NA,NA,NA,NA,NA,NA,NA,NA,NA,NA,NA,NA,NA,NA,NA,NA,NA,NA,NA
85968,"""Richtig""-Screen",canvas.Screen,3_0_1_0_7_1_1,NA,NA,timeout,4995.861,4188802.4000001,4188792.888,4188809.221,4193789.168,4193789.8,2023-07-13T16:12:47Z,4193805.082,NULL,Polizist,msongora,s,simanzi,mandhari,nidhamu,NA,sdfdsf,1,1,NA,NA,NA,NA,NA,NA,NA,NA,NA,NA,NA,NA,NA,NA,NA,NA,NA,NA,NA
85968,"""Falsch""-Screen",canvas.Screen,3_0_1_0_7_1_2,NA,NA,skipped,NA,4193791.4000001,NA,NA,4193789.168,4193791.6000001,2023-07-13T16:12:47Z,4193805.082,NULL,Polizist,msongora,s,simanzi,mandhari,nidhamu,NA,sdfdsf,NA,1,NA,NA,NA,NA,NA,NA,NA,NA,NA,NA,NA,NA,NA,NA,NA,NA,NA,NA,NA
85968,shallow,flow.Sequence,3_0_1_0_7_1,NA,NA,completion,13405.646,4180368.9000001,4180366.298,4180383.522,4193789.168,4193791.6000001,2023-07-13T16:12:47Z,4193805.082,NULL,Polizist,msongora,s,simanzi,mandhari,nidhamu,NA,sdfdsf,NA,1,NA,NA,NA,NA,NA,NA,NA,NA,NA,NA,NA,NA,NA,NA,NA,NA,NA,NA,NA
85968,task,flow.Sequence,3_0_1_0_7,NA,NA,completion,13405.646,4180368.6000001,4180366.298,4180383.522,4193789.168,4193791.8,2023-07-13T16:12:47Z,4193805.082,NULL,Polizist,msongora,s,simanzi,mandhari,nidhamu,NA,sdfdsf,NA,1,NA,NA,NA,NA,NA,NA,NA,NA,NA,NA,NA,NA,NA,NA,NA,NA,NA,NA,NA
85968,block,flow.Loop,3_0_1_0,NA,NA,completion,98867.669,4094901.8,4094886.537,4094921.499,4193789.168,4193791.8,2023-07-13T16:12:47Z,4193805.082,NULL,NA,NA,NA,NA,NA,NA,NA,sdfdsf,NA,1,NA,NA,NA,NA,NA,NA,NA,NA,NA,NA,NA,NA,NA,NA,NA,NA,NA,NA,NA
85968,weiter,canvas.Screen,3_0_1_1,sdf,keypress(Space),response,1254.7179999524,4193791.9000001,4193789.168,4193805.082,4195059.8,4195060.4000001,2023-07-13T16:12:49Z,4195104.749,NULL,NA,NA,NA,NA,NA,NA,NA,sdfdsf,NA,1,NA,NA,NA,NA,NA,NA,NA,NA,NA,NA,NA,NA,NA,NA,NA,NA,NA,NA,NA
85968,check continue,flow.Sequence,3_0_1,NA,NA,completion,100138.30099995,4094901.7,4094886.537,4094921.499,4195059.8,4195060.6000001,2023-07-13T16:12:49Z,4195104.749,NULL,NA,NA,NA,NA,NA,NA,NA,sdfdsf,NA,1,NA,NA,NA,NA,NA,NA,NA,NA,NA,NA,NA,NA,NA,NA,NA,NA,NA,NA,NA
85968,deep,flow.Sequence,3_0_2_0_0_0,NA,NA,skipped,NA,4195090,NA,NA,4195059.8,4195090.1000001,2023-07-13T16:12:49Z,4195104.749,NULL,Beweis,ushahidi,s,marudio,kizuizi,mtendaji,NA,sdf,NA,2,NA,NA,NA,NA,NA,NA,NA,NA,NA,NA,NA,NA,NA,NA,NA,NA,NA,NA,NA
85968,Shallow Question,html.Page,3_0_2_0_0_1_0,NA,NA,form submission,10242.651000096,4195090.3,4195087.828,4195104.749,4205347.4000001,4205347.6000001,2023-07-13T16:12:59Z,4205362.967,NULL,Beweis,ushahidi,s,marudio,kizuizi,mtendaji,ushahidi,NA,NA,2,NA,NA,NA,NA,NA,NA,NA,NA,NA,NA,NA,NA,NA,NA,NA,NA,NA,NA,NA
85968,"""Richtig""-Screen",canvas.Screen,3_0_2_0_0_1_1,NA,NA,timeout,4995.9629999995,4205349.4000001,4205346.126,4205362.967,4210341.84,4210342.8,2023-07-13T16:13:04Z,4210358.93,NULL,Beweis,ushahidi,s,marudio,kizuizi,mtendaji,NA,sdf,1,2,NA,NA,NA,NA,NA,NA,NA,NA,NA,NA,NA,NA,NA,NA,NA,NA,NA,NA,NA
85968,"""Falsch""-Screen",canvas.Screen,3_0_2_0_0_1_2,NA,NA,skipped,NA,4210347.7,NA,NA,4210341.84,4210347.9000001,2023-07-13T16:13:04Z,4210358.93,NULL,Beweis,ushahidi,s,marudio,kizuizi,mtendaji,NA,sdf,NA,2,NA,NA,NA,NA,NA,NA,NA,NA,NA,NA,NA,NA,NA,NA,NA,NA,NA,NA,NA
85968,shallow,flow.Sequence,3_0_2_0_0_1,NA,NA,completion,15237.091,4195090.3,4195087.828,4195104.749,4210341.84,4210347.9000001,2023-07-13T16:13:04Z,4210358.93,NULL,Beweis,ushahidi,s,marudio,kizuizi,mtendaji,NA,sdf,NA,2,NA,NA,NA,NA,NA,NA,NA,NA,NA,NA,NA,NA,NA,NA,NA,NA,NA,NA,NA
85968,task,flow.Sequence,3_0_2_0_0,NA,NA,completion,15237.091,4195090,4195087.828,4195104.749,4210341.84,4210348,2023-07-13T16:13:04Z,4210358.93,NULL,Beweis,ushahidi,s,marudio,kizuizi,mtendaji,NA,sdf,NA,2,NA,NA,NA,NA,NA,NA,NA,NA,NA,NA,NA,NA,NA,NA,NA,NA,NA,NA,NA
85968,deep,flow.Sequence,3_0_2_0_1_0,NA,NA,skipped,NA,4210348.1000001,NA,NA,4210341.84,4210348.1000001,2023-07-13T16:13:04Z,4210358.93,NULL,Aufstand,ugomaji,s,mazidio,msingi,kujieleza,NA,sdf,NA,2,NA,NA,NA,NA,NA,NA,NA,NA,NA,NA,NA,NA,NA,NA,NA,NA,NA,NA,NA
85968,Shallow Question,html.Page,3_0_2_0_1_1_0,NA,NA,form submission,7528.9700000957,4210348.2,4210341.84,4210358.93,4217887.9000001,4217888.1000001,2023-07-13T16:13:12Z,4217902.634,NULL,Aufstand,ugomaji,s,mazidio,msingi,kujieleza,ugomaji,NA,NA,2,NA,NA,NA,NA,NA,NA,NA,NA,NA,NA,NA,NA,NA,NA,NA,NA,NA,NA,NA
85968,"""Richtig""-Screen",canvas.Screen,3_0_2_0_1_1_1,NA,NA,timeout,4995.2430000007,4217889.7,4217885.776,4217902.634,4222881.664,4222882.6000001,2023-07-13T16:13:17Z,4222897.877,NULL,Aufstand,ugomaji,s,mazidio,msingi,kujieleza,NA,sdf,1,2,NA,NA,NA,NA,NA,NA,NA,NA,NA,NA,NA,NA,NA,NA,NA,NA,NA,NA,NA
85968,"""Falsch""-Screen",canvas.Screen,3_0_2_0_1_1_2,NA,NA,skipped,NA,4222887.7,NA,NA,4222881.664,4222888,2023-07-13T16:13:17Z,4222897.877,NULL,Aufstand,ugomaji,s,mazidio,msingi,kujieleza,NA,sdf,NA,2,NA,NA,NA,NA,NA,NA,NA,NA,NA,NA,NA,NA,NA,NA,NA,NA,NA,NA,NA
85968,shallow,flow.Sequence,3_0_2_0_1_1,NA,NA,completion,12522.734,4210348.2,4210341.84,4210358.93,4222881.664,4222888.4000001,2023-07-13T16:13:17Z,4222897.877,NULL,Aufstand,ugomaji,s,mazidio,msingi,kujieleza,NA,sdf,NA,2,NA,NA,NA,NA,NA,NA,NA,NA,NA,NA,NA,NA,NA,NA,NA,NA,NA,NA,NA
85968,task,flow.Sequence,3_0_2_0_1,NA,NA,completion,12522.734,4210348.1000001,4210341.84,4210358.93,4222881.664,4222888.5,2023-07-13T16:13:17Z,4222897.877,NULL,Aufstand,ugomaji,s,mazidio,msingi,kujieleza,NA,sdf,NA,2,NA,NA,NA,NA,NA,NA,NA,NA,NA,NA,NA,NA,NA,NA,NA,NA,NA,NA,NA
85968,deep,flow.Sequence,3_0_2_0_2_0,NA,NA,skipped,NA,4222888.7,NA,NA,4222881.664,4222888.8,2023-07-13T16:13:17Z,4222897.877,NULL,Polizist,msongora,s,simanzi,mandhari,nidhamu,NA,sdf,NA,2,NA,NA,NA,NA,NA,NA,NA,NA,NA,NA,NA,NA,NA,NA,NA,NA,NA,NA,NA
85968,Shallow Question,html.Page,3_0_2_0_2_1_0,NA,NA,form submission,3337.1229999997,4222889,4222881.664,4222897.877,4226235,4226235.1000001,2023-07-13T16:13:20Z,4226245.461,NULL,Polizist,msongora,s,simanzi,mandhari,nidhamu,msongora,NA,NA,2,NA,NA,NA,NA,NA,NA,NA,NA,NA,NA,NA,NA,NA,NA,NA,NA,NA,NA,NA
85968,"""Richtig""-Screen",canvas.Screen,3_0_2_0_2_1_1,NA,NA,timeout,4995.6069999998,4226237.3,4226228.951,4226245.461,4231224.736,4231225.8,2023-07-13T16:13:25Z,4231241.068,NULL,Polizist,msongora,s,simanzi,mandhari,nidhamu,NA,sdf,1,2,NA,NA,NA,NA,NA,NA,NA,NA,NA,NA,NA,NA,NA,NA,NA,NA,NA,NA,NA
85968,"""Falsch""-Screen",canvas.Screen,3_0_2_0_2_1_2,NA,NA,skipped,NA,4231231.3,NA,NA,4231224.736,4231231.7,2023-07-13T16:13:25Z,4231241.068,NULL,Polizist,msongora,s,simanzi,mandhari,nidhamu,NA,sdf,NA,2,NA,NA,NA,NA,NA,NA,NA,NA,NA,NA,NA,NA,NA,NA,NA,NA,NA,NA,NA
85968,shallow,flow.Sequence,3_0_2_0_2_1,NA,NA,completion,8326.8589999992,4222889,4222881.664,4222897.877,4231224.736,4231232.1000001,2023-07-13T16:13:25Z,4231241.068,NULL,Polizist,msongora,s,simanzi,mandhari,nidhamu,NA,sdf,NA,2,NA,NA,NA,NA,NA,NA,NA,NA,NA,NA,NA,NA,NA,NA,NA,NA,NA,NA,NA
85968,task,flow.Sequence,3_0_2_0_2,NA,NA,completion,8326.8589999992,4222888.6000001,4222881.664,4222897.877,4231224.736,4231232.3,2023-07-13T16:13:25Z,4231241.068,NULL,Polizist,msongora,s,simanzi,mandhari,nidhamu,NA,sdf,NA,2,NA,NA,NA,NA,NA,NA,NA,NA,NA,NA,NA,NA,NA,NA,NA,NA,NA,NA,NA
85968,Deep Question,html.Page,3_0_2_0_3_0_0,NA,NA,form submission,8194.1320000477,4231232.6000001,4231224.736,4231241.068,4239435.2,4239435.4000001,2023-07-13T16:13:33Z,4239450.978,NULL,Verzögerung,kuchelewa,d,NA,NA,NA,kuchelewa,NA,NA,2,NA,NA,NA,NA,NA,NA,NA,NA,NA,NA,NA,NA,NA,NA,NA,NA,NA,NA,NA
85968,"""Richtig""-Screen",canvas.Screen,3_0_2_0_3_0_1,NA,NA,timeout,4995.7929999996,4239438,4239418.131,4239450.978,4244430.388,4244431.4000001,2023-07-13T16:13:38Z,4244446.771,NULL,Verzögerung,kuchelewa,d,NA,NA,NA,NA,sdf,1,2,NA,NA,NA,NA,NA,NA,NA,NA,NA,NA,NA,NA,NA,NA,NA,NA,NA,NA,NA
85968,"""Falsch""-Screen",canvas.Screen,3_0_2_0_3_0_2,NA,NA,skipped,NA,4244436.7,NA,NA,4244430.388,4244437.2,2023-07-13T16:13:38Z,4244446.771,NULL,Verzögerung,kuchelewa,d,NA,NA,NA,NA,sdf,NA,2,NA,NA,NA,NA,NA,NA,NA,NA,NA,NA,NA,NA,NA,NA,NA,NA,NA,NA,NA
85968,deep,flow.Sequence,3_0_2_0_3_0,NA,NA,completion,13189.32,4231232.5,4231224.736,4231241.068,4244430.388,4244437.5,2023-07-13T16:13:38Z,4244446.771,NULL,Verzögerung,kuchelewa,d,NA,NA,NA,NA,sdf,NA,2,NA,NA,NA,NA,NA,NA,NA,NA,NA,NA,NA,NA,NA,NA,NA,NA,NA,NA,NA
85968,shallow,flow.Sequence,3_0_2_0_3_1,NA,NA,skipped,NA,4244437.7,NA,NA,4244430.388,4244437.9000001,2023-07-13T16:13:38Z,4244446.771,NULL,Verzögerung,kuchelewa,d,NA,NA,NA,NA,sdf,NA,2,NA,NA,NA,NA,NA,NA,NA,NA,NA,NA,NA,NA,NA,NA,NA,NA,NA,NA,NA
85968,task,flow.Sequence,3_0_2_0_3,NA,NA,completion,13189.32,4231232.4000001,4231224.736,4231241.068,4244430.388,4244438.2,2023-07-13T16:13:38Z,4244446.771,NULL,Verzögerung,kuchelewa,d,NA,NA,NA,NA,sdf,NA,2,NA,NA,NA,NA,NA,NA,NA,NA,NA,NA,NA,NA,NA,NA,NA,NA,NA,NA,NA
85968,Deep Question,html.Page,3_0_2_0_4_0_0,NA,NA,form submission,10949.929000048,4244438.4000001,4244430.388,4244446.771,4255396.7,4255396.8,2023-07-13T16:13:49Z,4255404.424,NULL,Annäherung,maegesho,d,NA,NA,NA,mangesho,NA,NA,2,NA,NA,NA,NA,NA,NA,NA,NA,NA,NA,NA,NA,NA,NA,NA,NA,NA,NA,NA
85968,"""Richtig""-Screen",canvas.Screen,3_0_2_0_4_0_1,NA,NA,skipped,NA,4255398.7,NA,NA,4255396.7,4255398.8,2023-07-13T16:13:49Z,4255404.424,NULL,Annäherung,maegesho,d,NA,NA,NA,NA,sdf,NA,2,NA,NA,NA,NA,NA,NA,NA,NA,NA,NA,NA,NA,NA,NA,NA,NA,NA,NA,NA
85968,"""Falsch""-Screen",canvas.Screen,3_0_2_0_4_0_2,NA,NA,timeout,4996.3200000003,4255399.4000001,4255388.343,4255404.424,4260383.901,4260384.9000001,2023-07-13T16:13:54Z,4260400.744,NULL,Annäherung,maegesho,d,NA,NA,NA,NA,sdf,0,2,NA,NA,NA,NA,NA,NA,NA,NA,NA,NA,NA,NA,NA,NA,NA,NA,NA,NA,NA
85968,deep,flow.Sequence,3_0_2_0_4_0,NA,NA,completion,15937.13,4244438.4000001,4244430.388,4244446.771,4260383.901,4260385.3,2023-07-13T16:13:54Z,4260400.744,NULL,Annäherung,maegesho,d,NA,NA,NA,NA,sdf,NA,2,NA,NA,NA,NA,NA,NA,NA,NA,NA,NA,NA,NA,NA,NA,NA,NA,NA,NA,NA
85968,shallow,flow.Sequence,3_0_2_0_4_1,NA,NA,skipped,NA,4260385.5,NA,NA,4260383.901,4260385.7,2023-07-13T16:13:54Z,4260400.744,NULL,Annäherung,maegesho,d,NA,NA,NA,NA,sdf,NA,2,NA,NA,NA,NA,NA,NA,NA,NA,NA,NA,NA,NA,NA,NA,NA,NA,NA,NA,NA
85968,task,flow.Sequence,3_0_2_0_4,NA,NA,completion,15937.13,4244438.3,4244430.388,4244446.771,4260383.901,4260385.9000001,2023-07-13T16:13:54Z,4260400.744,NULL,Annäherung,maegesho,d,NA,NA,NA,NA,sdf,NA,2,NA,NA,NA,NA,NA,NA,NA,NA,NA,NA,NA,NA,NA,NA,NA,NA,NA,NA,NA
85968,Deep Question,html.Page,3_0_2_0_5_0_0,NA,NA,form submission,6494.3560001431,4260386.1000001,4260383.901,4260400.744,4266895.1000001,4266895.3,2023-07-13T16:14:01Z,4266912.403,NULL,Kultur,utamaduni,d,NA,NA,NA,madnin,NA,NA,2,NA,NA,NA,NA,NA,NA,NA,NA,NA,NA,NA,NA,NA,NA,NA,NA,NA,NA,NA
85968,"""Richtig""-Screen",canvas.Screen,3_0_2_0_5_0_1,NA,NA,skipped,NA,4266897.5,NA,NA,4266895.1000001,4266897.7,2023-07-13T16:14:01Z,4266912.403,NULL,Kultur,utamaduni,d,NA,NA,NA,NA,sdf,NA,2,NA,NA,NA,NA,NA,NA,NA,NA,NA,NA,NA,NA,NA,NA,NA,NA,NA,NA,NA
85968,"""Falsch""-Screen",canvas.Screen,3_0_2_0_5_0_2,NA,NA,timeout,4995.5250000004,4266898.4000001,4266878.467,4266912.403,4271890.965,4271893.5,2023-07-13T16:14:06Z,4271907.928,NULL,Kultur,utamaduni,d,NA,NA,NA,NA,sdf,0,2,NA,NA,NA,NA,NA,NA,NA,NA,NA,NA,NA,NA,NA,NA,NA,NA,NA,NA,NA
85968,deep,flow.Sequence,3_0_2_0_5_0,NA,NA,completion,11490.221,4260386.1000001,4260383.901,4260400.744,4271890.965,4271894.1000001,2023-07-13T16:14:06Z,4271907.928,NULL,Kultur,utamaduni,d,NA,NA,NA,NA,sdf,NA,2,NA,NA,NA,NA,NA,NA,NA,NA,NA,NA,NA,NA,NA,NA,NA,NA,NA,NA,NA
85968,shallow,flow.Sequence,3_0_2_0_5_1,NA,NA,skipped,NA,4271894.2,NA,NA,4271890.965,4271894.5,2023-07-13T16:14:06Z,4271907.928,NULL,Kultur,utamaduni,d,NA,NA,NA,NA,sdf,NA,2,NA,NA,NA,NA,NA,NA,NA,NA,NA,NA,NA,NA,NA,NA,NA,NA,NA,NA,NA
85968,task,flow.Sequence,3_0_2_0_5,NA,NA,completion,11490.221,4260386.1000001,4260383.901,4260400.744,4271890.965,4271894.7,2023-07-13T16:14:06Z,4271907.928,NULL,Kultur,utamaduni,d,NA,NA,NA,NA,sdf,NA,2,NA,NA,NA,NA,NA,NA,NA,NA,NA,NA,NA,NA,NA,NA,NA,NA,NA,NA,NA
85968,Deep Question,html.Page,3_0_2_0_6_0_0,NA,NA,form submission,5290.9720000951,4271894.9000001,4271890.965,4271907.928,4277198.9000001,4277199.1000001,2023-07-13T16:14:11Z,4277203.155,NULL,Sympathie,mapendano,d,NA,NA,NA,hamidi,NA,NA,2,NA,NA,NA,NA,NA,NA,NA,NA,NA,NA,NA,NA,NA,NA,NA,NA,NA,NA,NA
85968,"""Richtig""-Screen",canvas.Screen,3_0_2_0_6_0_1,NA,NA,skipped,NA,4277201.5,NA,NA,4277198.9000001,4277201.8,2023-07-13T16:14:11Z,4277203.155,NULL,Sympathie,mapendano,d,NA,NA,NA,NA,sdf,NA,2,NA,NA,NA,NA,NA,NA,NA,NA,NA,NA,NA,NA,NA,NA,NA,NA,NA,NA,NA
85968,"""Falsch""-Screen",canvas.Screen,3_0_2_0_6_0_2,NA,NA,timeout,4996.0069999993,4277202.6000001,4277186.75,4277203.155,4282182.896,4282183.9000001,2023-07-13T16:14:16Z,4282199.162,NULL,Sympathie,mapendano,d,NA,NA,NA,NA,sdf,0,2,NA,NA,NA,NA,NA,NA,NA,NA,NA,NA,NA,NA,NA,NA,NA,NA,NA,NA,NA
85968,deep,flow.Sequence,3_0_2_0_6_0,NA,NA,completion,10274.967999999,4271894.9000001,4271890.965,4271907.928,4282182.896,4282184.3,2023-07-13T16:14:16Z,4282199.162,NULL,Sympathie,mapendano,d,NA,NA,NA,NA,sdf,NA,2,NA,NA,NA,NA,NA,NA,NA,NA,NA,NA,NA,NA,NA,NA,NA,NA,NA,NA,NA
85968,shallow,flow.Sequence,3_0_2_0_6_1,NA,NA,skipped,NA,4282184.4000001,NA,NA,4282182.896,4282184.6000001,2023-07-13T16:14:16Z,4282199.162,NULL,Sympathie,mapendano,d,NA,NA,NA,NA,sdf,NA,2,NA,NA,NA,NA,NA,NA,NA,NA,NA,NA,NA,NA,NA,NA,NA,NA,NA,NA,NA
85968,task,flow.Sequence,3_0_2_0_6,NA,NA,completion,10274.967999999,4271894.8,4271890.965,4271907.928,4282182.896,4282184.9000001,2023-07-13T16:14:16Z,4282199.162,NULL,Sympathie,mapendano,d,NA,NA,NA,NA,sdf,NA,2,NA,NA,NA,NA,NA,NA,NA,NA,NA,NA,NA,NA,NA,NA,NA,NA,NA,NA,NA
85968,deep,flow.Sequence,3_0_2_0_7_0,NA,NA,skipped,NA,4282185,NA,NA,4282182.896,4282185.2,2023-07-13T16:14:16Z,4282199.162,NULL,Prüfung,mtihani,s,mkulima,mtizamo,ufumbuzi,NA,sdf,NA,2,NA,NA,NA,NA,NA,NA,NA,NA,NA,NA,NA,NA,NA,NA,NA,NA,NA,NA,NA
85968,Shallow Question,html.Page,3_0_2_0_7_1_0,NA,NA,form submission,8707.7380000958,4282185.3,4282182.896,4282199.162,4290906.9000001,4290907.1000001,2023-07-13T16:14:25Z,4290908.549,NULL,Prüfung,mtihani,s,mkulima,mtizamo,ufumbuzi,mtihani,NA,NA,2,NA,NA,NA,NA,NA,NA,NA,NA,NA,NA,NA,NA,NA,NA,NA,NA,NA,NA,NA
85968,"""Richtig""-Screen",canvas.Screen,3_0_2_0_7_1_1,NA,NA,timeout,4996.6460000006,4290909.1000001,4290892.483,4290908.549,4295887.872,4295889.6000001,2023-07-13T16:14:30Z,4295905.195,NULL,Prüfung,mtihani,s,mkulima,mtizamo,ufumbuzi,NA,sdf,1,2,NA,NA,NA,NA,NA,NA,NA,NA,NA,NA,NA,NA,NA,NA,NA,NA,NA,NA,NA
85968,"""Falsch""-Screen",canvas.Screen,3_0_2_0_7_1_2,NA,NA,skipped,NA,4295891.2,NA,NA,4295887.872,4295891.3,2023-07-13T16:14:30Z,4295905.195,NULL,Prüfung,mtihani,s,mkulima,mtizamo,ufumbuzi,NA,sdf,NA,2,NA,NA,NA,NA,NA,NA,NA,NA,NA,NA,NA,NA,NA,NA,NA,NA,NA,NA,NA
85968,shallow,flow.Sequence,3_0_2_0_7_1,NA,NA,completion,13688.710000001,4282185.3,4282182.896,4282199.162,4295887.872,4295891.4000001,2023-07-13T16:14:30Z,4295905.195,NULL,Prüfung,mtihani,s,mkulima,mtizamo,ufumbuzi,NA,sdf,NA,2,NA,NA,NA,NA,NA,NA,NA,NA,NA,NA,NA,NA,NA,NA,NA,NA,NA,NA,NA
85968,task,flow.Sequence,3_0_2_0_7,NA,NA,completion,13688.710000001,4282184.9000001,4282182.896,4282199.162,4295887.872,4295891.6000001,2023-07-13T16:14:30Z,4295905.195,NULL,Prüfung,mtihani,s,mkulima,mtizamo,ufumbuzi,NA,sdf,NA,2,NA,NA,NA,NA,NA,NA,NA,NA,NA,NA,NA,NA,NA,NA,NA,NA,NA,NA,NA
85968,block,flow.Loop,3_0_2_0,NA,NA,completion,100783.123,4195090,4195087.828,4195104.749,4295887.872,4295891.7,2023-07-13T16:14:30Z,4295905.195,NULL,NA,NA,NA,NA,NA,NA,NA,sdf,NA,2,NA,NA,NA,NA,NA,NA,NA,NA,NA,NA,NA,NA,NA,NA,NA,NA,NA,NA,NA
85968,weiter,canvas.Screen,3_0_2_1,sdf,keypress(Space),response,966.50500004739,4295891.7,4295887.872,4295905.195,4296871.7,4296872.8,2023-07-13T16:14:31Z,4296920.368,NULL,NA,NA,NA,NA,NA,NA,NA,sdf,NA,2,NA,NA,NA,NA,NA,NA,NA,NA,NA,NA,NA,NA,NA,NA,NA,NA,NA,NA,NA
85968,check continue,flow.Sequence,3_0_2,NA,NA,completion,101766.95100005,4195090,4195087.828,4195104.749,4296871.7,4296873.2,2023-07-13T16:14:31Z,4296920.368,NULL,NA,NA,NA,NA,NA,NA,NA,sdf,NA,2,NA,NA,NA,NA,NA,NA,NA,NA,NA,NA,NA,NA,NA,NA,NA,NA,NA,NA,NA
85968,Deep Question,html.Page,3_0_3_0_0_0_0,NA,NA,form submission,14859.431999953,4296909.6000001,4296904.238,4296920.368,4311779.8,4311780,2023-07-13T16:14:45Z,4311791.85,NULL,Sympathie,mapendano,d,NA,NA,NA,manpeano,NA,NA,3,NA,NA,NA,NA,NA,NA,NA,NA,NA,NA,NA,NA,NA,NA,NA,NA,NA,NA,NA
85968,"""Richtig""-Screen",canvas.Screen,3_0_3_0_0_0_1,NA,NA,skipped,NA,4311782.5,NA,NA,4311779.8,4311782.7,2023-07-13T16:14:45Z,4311791.85,NULL,Sympathie,mapendano,d,NA,NA,NA,NA,qt,NA,3,NA,NA,NA,NA,NA,NA,NA,NA,NA,NA,NA,NA,NA,NA,NA,NA,NA,NA,NA
85968,"""Falsch""-Screen",canvas.Screen,3_0_3_0_0_0_2,NA,NA,timeout,4995.7420000006,4311783.5,4311774.991,4311791.85,4316770.778,4316771.8,2023-07-13T16:14:50Z,4316787.592,NULL,Sympathie,mapendano,d,NA,NA,NA,NA,qt,0,3,NA,NA,NA,NA,NA,NA,NA,NA,NA,NA,NA,NA,NA,NA,NA,NA,NA,NA,NA
85968,deep,flow.Sequence,3_0_3_0_0_0,NA,NA,completion,19850.41,4296909.6000001,4296904.238,4296920.368,4316770.778,4316772.2,2023-07-13T16:14:50Z,4316787.592,NULL,Sympathie,mapendano,d,NA,NA,NA,NA,qt,NA,3,NA,NA,NA,NA,NA,NA,NA,NA,NA,NA,NA,NA,NA,NA,NA,NA,NA,NA,NA
85968,shallow,flow.Sequence,3_0_3_0_0_1,NA,NA,skipped,NA,4316772.3,NA,NA,4316770.778,4316772.6000001,2023-07-13T16:14:50Z,4316787.592,NULL,Sympathie,mapendano,d,NA,NA,NA,NA,qt,NA,3,NA,NA,NA,NA,NA,NA,NA,NA,NA,NA,NA,NA,NA,NA,NA,NA,NA,NA,NA
85968,task,flow.Sequence,3_0_3_0_0,NA,NA,completion,19850.41,4296909.5,4296904.238,4296920.368,4316770.778,4316772.8,2023-07-13T16:14:50Z,4316787.592,NULL,Sympathie,mapendano,d,NA,NA,NA,NA,qt,NA,3,NA,NA,NA,NA,NA,NA,NA,NA,NA,NA,NA,NA,NA,NA,NA,NA,NA,NA,NA
85968,deep,flow.Sequence,3_0_3_0_1_0,NA,NA,skipped,NA,4316773,NA,NA,4316770.778,4316773.1000001,2023-07-13T16:14:50Z,4316787.592,NULL,Prüfung,mtihani,s,mkulima,mtizamo,ufumbuzi,NA,qt,NA,3,NA,NA,NA,NA,NA,NA,NA,NA,NA,NA,NA,NA,NA,NA,NA,NA,NA,NA,NA
85968,Shallow Question,html.Page,3_0_3_0_1_1_0,NA,NA,form submission,3514.8080000952,4316773.2,4316770.778,4316787.592,4320302.4000001,4320302.6000001,2023-07-13T16:14:54Z,4320318.36,NULL,Prüfung,mtihani,s,mkulima,mtizamo,ufumbuzi,mtihani,NA,NA,3,NA,NA,NA,NA,NA,NA,NA,NA,NA,NA,NA,NA,NA,NA,NA,NA,NA,NA,NA
85968,"""Richtig""-Screen",canvas.Screen,3_0_3_0_1_1_1,NA,NA,timeout,4995.4499999993,4320304.4000001,4320301.624,4320318.36,4325297.424,4325298.2,2023-07-13T16:14:59Z,4325313.81,NULL,Prüfung,mtihani,s,mkulima,mtizamo,ufumbuzi,NA,qt,1,3,NA,NA,NA,NA,NA,NA,NA,NA,NA,NA,NA,NA,NA,NA,NA,NA,NA,NA,NA
85968,"""Falsch""-Screen",canvas.Screen,3_0_3_0_1_1_2,NA,NA,skipped,NA,4325303.6000001,NA,NA,4325297.424,4325304,2023-07-13T16:14:59Z,4325313.81,NULL,Prüfung,mtihani,s,mkulima,mtizamo,ufumbuzi,NA,qt,NA,3,NA,NA,NA,NA,NA,NA,NA,NA,NA,NA,NA,NA,NA,NA,NA,NA,NA,NA,NA
85968,shallow,flow.Sequence,3_0_3_0_1_1,NA,NA,completion,8509.8319999995,4316773.2,4316770.778,4316787.592,4325297.424,4325304.4000001,2023-07-13T16:14:59Z,4325313.81,NULL,Prüfung,mtihani,s,mkulima,mtizamo,ufumbuzi,NA,qt,NA,3,NA,NA,NA,NA,NA,NA,NA,NA,NA,NA,NA,NA,NA,NA,NA,NA,NA,NA,NA
85968,task,flow.Sequence,3_0_3_0_1,NA,NA,completion,8509.8319999995,4316772.8,4316770.778,4316787.592,4325297.424,4325304.5,2023-07-13T16:14:59Z,4325313.81,NULL,Prüfung,mtihani,s,mkulima,mtizamo,ufumbuzi,NA,qt,NA,3,NA,NA,NA,NA,NA,NA,NA,NA,NA,NA,NA,NA,NA,NA,NA,NA,NA,NA,NA
85968,Deep Question,html.Page,3_0_3_0_2_0_0,NA,NA,form submission,10213.590000096,4325304.7,4325297.424,4325313.81,4335527.4000001,4335527.6000001,2023-07-13T16:15:09Z,4335538.924,NULL,Annäherung,maegesho,d,NA,NA,NA,maegesho,NA,NA,3,NA,NA,NA,NA,NA,NA,NA,NA,NA,NA,NA,NA,NA,NA,NA,NA,NA,NA,NA
85968,"""Richtig""-Screen",canvas.Screen,3_0_3_0_2_0_1,NA,NA,timeout,4995.8170000007,4335530.1000001,4335522.465,4335538.924,4340518.339,4340519.2,2023-07-13T16:15:14Z,4340534.741,NULL,Annäherung,maegesho,d,NA,NA,NA,NA,qt,1,3,NA,NA,NA,NA,NA,NA,NA,NA,NA,NA,NA,NA,NA,NA,NA,NA,NA,NA,NA
85968,"""Falsch""-Screen",canvas.Screen,3_0_3_0_2_0_2,NA,NA,skipped,NA,4340523.8,NA,NA,4340518.339,4340523.9000001,2023-07-13T16:15:14Z,4340534.741,NULL,Annäherung,maegesho,d,NA,NA,NA,NA,qt,NA,3,NA,NA,NA,NA,NA,NA,NA,NA,NA,NA,NA,NA,NA,NA,NA,NA,NA,NA,NA
85968,deep,flow.Sequence,3_0_3_0_2_0,NA,NA,completion,15204.529,4325304.7,4325297.424,4325313.81,4340518.339,4340524,2023-07-13T16:15:14Z,4340534.741,NULL,Annäherung,maegesho,d,NA,NA,NA,NA,qt,NA,3,NA,NA,NA,NA,NA,NA,NA,NA,NA,NA,NA,NA,NA,NA,NA,NA,NA,NA,NA
85968,shallow,flow.Sequence,3_0_3_0_2_1,NA,NA,skipped,NA,4340524,NA,NA,4340518.339,4340524,2023-07-13T16:15:14Z,4340534.741,NULL,Annäherung,maegesho,d,NA,NA,NA,NA,qt,NA,3,NA,NA,NA,NA,NA,NA,NA,NA,NA,NA,NA,NA,NA,NA,NA,NA,NA,NA,NA
85968,task,flow.Sequence,3_0_3_0_2,NA,NA,completion,15204.529,4325304.7,4325297.424,4325313.81,4340518.339,4340524.1000001,2023-07-13T16:15:14Z,4340534.741,NULL,Annäherung,maegesho,d,NA,NA,NA,NA,qt,NA,3,NA,NA,NA,NA,NA,NA,NA,NA,NA,NA,NA,NA,NA,NA,NA,NA,NA,NA,NA
85968,deep,flow.Sequence,3_0_3_0_3_0,NA,NA,skipped,NA,4340524.1000001,NA,NA,4340518.339,4340524.2,2023-07-13T16:15:14Z,4340534.741,NULL,Aufstand,ugomaji,s,mazidio,msingi,kujieleza,NA,qt,NA,3,NA,NA,NA,NA,NA,NA,NA,NA,NA,NA,NA,NA,NA,NA,NA,NA,NA,NA,NA
85968,Shallow Question,html.Page,3_0_3_0_3_1_0,NA,NA,form submission,4603.2589999996,4340524.2,4340518.339,4340534.741,4345138,4345138.2,2023-07-13T16:15:19Z,4345147.362,NULL,Aufstand,ugomaji,s,mazidio,msingi,kujieleza,ugomaji,NA,NA,3,NA,NA,NA,NA,NA,NA,NA,NA,NA,NA,NA,NA,NA,NA,NA,NA,NA,NA,NA
85968,"""Richtig""-Screen",canvas.Screen,3_0_3_0_3_1_1,NA,NA,timeout,4996.1440000003,4345140,4345131.215,4345147.362,4350127.038,4350127.5,2023-07-13T16:15:24Z,4350143.506,NULL,Aufstand,ugomaji,s,mazidio,msingi,kujieleza,NA,qt,1,3,NA,NA,NA,NA,NA,NA,NA,NA,NA,NA,NA,NA,NA,NA,NA,NA,NA,NA,NA
85968,"""Falsch""-Screen",canvas.Screen,3_0_3_0_3_1_2,NA,NA,skipped,NA,4350129.3,NA,NA,4350127.038,4350129.4000001,2023-07-13T16:15:24Z,4350143.506,NULL,Aufstand,ugomaji,s,mazidio,msingi,kujieleza,NA,qt,NA,3,NA,NA,NA,NA,NA,NA,NA,NA,NA,NA,NA,NA,NA,NA,NA,NA,NA,NA,NA
85968,shallow,flow.Sequence,3_0_3_0_3_1,NA,NA,completion,9592.2969999993,4340524.2,4340518.339,4340534.741,4350127.038,4350129.5,2023-07-13T16:15:24Z,4350143.506,NULL,Aufstand,ugomaji,s,mazidio,msingi,kujieleza,NA,qt,NA,3,NA,NA,NA,NA,NA,NA,NA,NA,NA,NA,NA,NA,NA,NA,NA,NA,NA,NA,NA
85968,task,flow.Sequence,3_0_3_0_3,NA,NA,completion,9592.2969999993,4340524.1000001,4340518.339,4340534.741,4350127.038,4350129.6000001,2023-07-13T16:15:24Z,4350143.506,NULL,Aufstand,ugomaji,s,mazidio,msingi,kujieleza,NA,qt,NA,3,NA,NA,NA,NA,NA,NA,NA,NA,NA,NA,NA,NA,NA,NA,NA,NA,NA,NA,NA
85968,deep,flow.Sequence,3_0_3_0_4_0,NA,NA,skipped,NA,4350129.6000001,NA,NA,4350127.038,4350129.7,2023-07-13T16:15:24Z,4350143.506,NULL,Beweis,ushahidi,s,marudio,kizuizi,mtendaji,NA,qt,NA,3,NA,NA,NA,NA,NA,NA,NA,NA,NA,NA,NA,NA,NA,NA,NA,NA,NA,NA,NA
85968,Shallow Question,html.Page,3_0_3_0_4_1_0,NA,NA,form submission,4419.1940000476,4350129.8,4350127.038,4350143.506,4354562.7,4354563,2023-07-13T16:15:28Z,4354573.218,NULL,Beweis,ushahidi,s,marudio,kizuizi,mtendaji,ushahidi,NA,NA,3,NA,NA,NA,NA,NA,NA,NA,NA,NA,NA,NA,NA,NA,NA,NA,NA,NA,NA,NA
85968,"""Richtig""-Screen",canvas.Screen,3_0_3_0_4_1_1,NA,NA,timeout,4995.9289999995,4354564.7,4354556.789,4354573.218,4359552.701,4359553.4000001,2023-07-13T16:15:33Z,4359569.147,NULL,Beweis,ushahidi,s,marudio,kizuizi,mtendaji,NA,qt,1,3,NA,NA,NA,NA,NA,NA,NA,NA,NA,NA,NA,NA,NA,NA,NA,NA,NA,NA,NA
85968,"""Falsch""-Screen",canvas.Screen,3_0_3_0_4_1_2,NA,NA,skipped,NA,4359557,NA,NA,4359552.701,4359557.2,2023-07-13T16:15:33Z,4359569.147,NULL,Beweis,ushahidi,s,marudio,kizuizi,mtendaji,NA,qt,NA,3,NA,NA,NA,NA,NA,NA,NA,NA,NA,NA,NA,NA,NA,NA,NA,NA,NA,NA,NA
85968,shallow,flow.Sequence,3_0_3_0_4_1,NA,NA,completion,9409.1950000003,4350129.7,4350127.038,4350143.506,4359552.701,4359557.5,2023-07-13T16:15:33Z,4359569.147,NULL,Beweis,ushahidi,s,marudio,kizuizi,mtendaji,NA,qt,NA,3,NA,NA,NA,NA,NA,NA,NA,NA,NA,NA,NA,NA,NA,NA,NA,NA,NA,NA,NA
85968,task,flow.Sequence,3_0_3_0_4,NA,NA,completion,9409.1950000003,4350129.6000001,4350127.038,4350143.506,4359552.701,4359557.6000001,2023-07-13T16:15:33Z,4359569.147,NULL,Beweis,ushahidi,s,marudio,kizuizi,mtendaji,NA,qt,NA,3,NA,NA,NA,NA,NA,NA,NA,NA,NA,NA,NA,NA,NA,NA,NA,NA,NA,NA,NA
85968,Deep Question,html.Page,3_0_3_0_5_0_0,NA,NA,form submission,4999.7530000955,4359557.9000001,4359552.701,4359569.147,4364568.9000001,4364569,2023-07-13T16:15:38Z,4364582.07,NULL,Verzögerung,kuchelewa,d,NA,NA,NA,kuchelewa,NA,NA,3,NA,NA,NA,NA,NA,NA,NA,NA,NA,NA,NA,NA,NA,NA,NA,NA,NA,NA,NA
85968,"""Richtig""-Screen",canvas.Screen,3_0_3_0_5_0_1,NA,NA,timeout,4995.8729999997,4364571.4000001,4364565.267,4364582.07,4369560.802,4369563.5,2023-07-13T16:15:43Z,4369577.943,NULL,Verzögerung,kuchelewa,d,NA,NA,NA,NA,qt,1,3,NA,NA,NA,NA,NA,NA,NA,NA,NA,NA,NA,NA,NA,NA,NA,NA,NA,NA,NA
85968,"""Falsch""-Screen",canvas.Screen,3_0_3_0_5_0_2,NA,NA,skipped,NA,4369568.2,NA,NA,4369560.802,4369568.2,2023-07-13T16:15:43Z,4369577.943,NULL,Verzögerung,kuchelewa,d,NA,NA,NA,NA,qt,NA,3,NA,NA,NA,NA,NA,NA,NA,NA,NA,NA,NA,NA,NA,NA,NA,NA,NA,NA,NA
85968,deep,flow.Sequence,3_0_3_0_5_0,NA,NA,completion,9991.6550000003,4359557.9000001,4359552.701,4359569.147,4369560.802,4369568.4000001,2023-07-13T16:15:43Z,4369577.943,NULL,Verzögerung,kuchelewa,d,NA,NA,NA,NA,qt,NA,3,NA,NA,NA,NA,NA,NA,NA,NA,NA,NA,NA,NA,NA,NA,NA,NA,NA,NA,NA
85968,shallow,flow.Sequence,3_0_3_0_5_1,NA,NA,skipped,NA,4369568.4000001,NA,NA,4369560.802,4369568.5,2023-07-13T16:15:43Z,4369577.943,NULL,Verzögerung,kuchelewa,d,NA,NA,NA,NA,qt,NA,3,NA,NA,NA,NA,NA,NA,NA,NA,NA,NA,NA,NA,NA,NA,NA,NA,NA,NA,NA
85968,task,flow.Sequence,3_0_3_0_5,NA,NA,completion,9991.6550000003,4359557.8,4359552.701,4359569.147,4369560.802,4369568.5,2023-07-13T16:15:43Z,4369577.943,NULL,Verzögerung,kuchelewa,d,NA,NA,NA,NA,qt,NA,3,NA,NA,NA,NA,NA,NA,NA,NA,NA,NA,NA,NA,NA,NA,NA,NA,NA,NA,NA
85968,Deep Question,html.Page,3_0_3_0_6_0_0,NA,NA,form submission,17354.657000143,4369569.1000001,4369560.802,4369577.943,4386932.6000001,4386932.8,2023-07-13T16:16:01Z,4386946.779,NULL,Kultur,utamaduni,d,NA,NA,NA,manpuedo,NA,NA,3,NA,NA,NA,NA,NA,NA,NA,NA,NA,NA,NA,NA,NA,NA,NA,NA,NA,NA,NA
85968,"""Richtig""-Screen",canvas.Screen,3_0_3_0_6_0_1,NA,NA,skipped,NA,4386935.5,NA,NA,4386932.6000001,4386935.7,2023-07-13T16:16:01Z,4386946.779,NULL,Kultur,utamaduni,d,NA,NA,NA,NA,qt,NA,3,NA,NA,NA,NA,NA,NA,NA,NA,NA,NA,NA,NA,NA,NA,NA,NA,NA,NA,NA
85968,"""Falsch""-Screen",canvas.Screen,3_0_3_0_6_0_2,NA,NA,timeout,4995.7620000001,4386936.6000001,4386930.23,4386946.779,4391925.606,4391926.3,2023-07-13T16:16:06Z,4391942.541,NULL,Kultur,utamaduni,d,NA,NA,NA,NA,qt,0,3,NA,NA,NA,NA,NA,NA,NA,NA,NA,NA,NA,NA,NA,NA,NA,NA,NA,NA,NA
85968,deep,flow.Sequence,3_0_3_0_6_0,NA,NA,completion,22347.663,4369569,4369560.802,4369577.943,4391925.606,4391926.6000001,2023-07-13T16:16:06Z,4391942.541,NULL,Kultur,utamaduni,d,NA,NA,NA,NA,qt,NA,3,NA,NA,NA,NA,NA,NA,NA,NA,NA,NA,NA,NA,NA,NA,NA,NA,NA,NA,NA
85968,shallow,flow.Sequence,3_0_3_0_6_1,NA,NA,skipped,NA,4391926.7,NA,NA,4391925.606,4391926.8,2023-07-13T16:16:06Z,4391942.541,NULL,Kultur,utamaduni,d,NA,NA,NA,NA,qt,NA,3,NA,NA,NA,NA,NA,NA,NA,NA,NA,NA,NA,NA,NA,NA,NA,NA,NA,NA,NA
85968,task,flow.Sequence,3_0_3_0_6,NA,NA,completion,22347.663,4369569,4369560.802,4369577.943,4391925.606,4391926.9000001,2023-07-13T16:16:06Z,4391942.541,NULL,Kultur,utamaduni,d,NA,NA,NA,NA,qt,NA,3,NA,NA,NA,NA,NA,NA,NA,NA,NA,NA,NA,NA,NA,NA,NA,NA,NA,NA,NA
85968,deep,flow.Sequence,3_0_3_0_7_0,NA,NA,skipped,NA,4391927,NA,NA,4391925.606,4391927.1000001,2023-07-13T16:16:06Z,4391942.541,NULL,Polizist,msongora,s,simanzi,mandhari,nidhamu,NA,qt,NA,3,NA,NA,NA,NA,NA,NA,NA,NA,NA,NA,NA,NA,NA,NA,NA,NA,NA,NA,NA
85968,Shallow Question,html.Page,3_0_3_0_7_1_0,NA,NA,form submission,4584.2589999521,4391927.2,4391925.606,4391942.541,4396526.8,4396527,2023-07-13T16:16:10Z,4396538.99,NULL,Polizist,msongora,s,simanzi,mandhari,nidhamu,msongora,NA,NA,3,NA,NA,NA,NA,NA,NA,NA,NA,NA,NA,NA,NA,NA,NA,NA,NA,NA,NA,NA
85968,"""Richtig""-Screen",canvas.Screen,3_0_3_0_7_1_1,NA,NA,timeout,4995.9289999995,4396528.7,4396522.338,4396538.99,4401517.711,4401519.9000001,2023-07-13T16:16:15Z,4401534.919,NULL,Polizist,msongora,s,simanzi,mandhari,nidhamu,NA,qt,1,3,NA,NA,NA,NA,NA,NA,NA,NA,NA,NA,NA,NA,NA,NA,NA,NA,NA,NA,NA
85968,"""Falsch""-Screen",canvas.Screen,3_0_3_0_7_1_2,NA,NA,skipped,NA,4401522,NA,NA,4401517.711,4401522.1000001,2023-07-13T16:16:15Z,4401534.919,NULL,Polizist,msongora,s,simanzi,mandhari,nidhamu,NA,qt,NA,3,NA,NA,NA,NA,NA,NA,NA,NA,NA,NA,NA,NA,NA,NA,NA,NA,NA,NA,NA
85968,shallow,flow.Sequence,3_0_3_0_7_1,NA,NA,completion,9575.1699999999,4391927.1000001,4391925.606,4391942.541,4401517.711,4401522.2,2023-07-13T16:16:15Z,4401534.919,NULL,Polizist,msongora,s,simanzi,mandhari,nidhamu,NA,qt,NA,3,NA,NA,NA,NA,NA,NA,NA,NA,NA,NA,NA,NA,NA,NA,NA,NA,NA,NA,NA
85968,task,flow.Sequence,3_0_3_0_7,NA,NA,completion,9575.1699999999,4391927,4391925.606,4391942.541,4401517.711,4401522.4000001,2023-07-13T16:16:15Z,4401534.919,NULL,Polizist,msongora,s,simanzi,mandhari,nidhamu,NA,qt,NA,3,NA,NA,NA,NA,NA,NA,NA,NA,NA,NA,NA,NA,NA,NA,NA,NA,NA,NA,NA
85968,block,flow.Loop,3_0_3_0,NA,NA,completion,104597.343,4296909.5,4296904.238,4296920.368,4401517.711,4401522.6000001,2023-07-13T16:16:15Z,4401534.919,NULL,NA,NA,NA,NA,NA,NA,NA,qt,NA,3,NA,NA,NA,NA,NA,NA,NA,NA,NA,NA,NA,NA,NA,NA,NA,NA,NA,NA,NA
85968,weiter,canvas.Screen,3_0_3_1,sdf,keypress(Space),response,650.28100004792,4401522.6000001,4401517.711,4401534.919,4402185.2,4402185.7,2023-07-13T16:16:16Z,4402666.696,NULL,NA,NA,NA,NA,NA,NA,NA,qt,NA,3,NA,NA,NA,NA,NA,NA,NA,NA,NA,NA,NA,NA,NA,NA,NA,NA,NA,NA,NA
85968,check continue,flow.Sequence,3_0_3,NA,NA,completion,105264.83200005,4296909.5,4296904.238,4296920.368,4402185.2,4402185.8,2023-07-13T16:16:16Z,4402666.696,NULL,NA,NA,NA,NA,NA,NA,NA,qt,NA,3,NA,NA,NA,NA,NA,NA,NA,NA,NA,NA,NA,NA,NA,NA,NA,NA,NA,NA,NA
85968,check continue,flow.Sequence,3_0_4,NA,NA,skipped,NA,4402211.6000001,NA,NA,4402185.2,4402211.8,2023-07-13T16:16:16Z,4402666.696,NULL,NA,NA,NA,NA,NA,NA,NA,sd,NA,4,NA,NA,NA,NA,NA,NA,NA,NA,NA,NA,NA,NA,NA,NA,NA,NA,NA,NA,NA
85968,check continue,flow.Sequence,3_0_5,NA,NA,skipped,NA,4402232.7,NA,NA,4402185.2,4402232.8,2023-07-13T16:16:16Z,4402666.696,NULL,NA,NA,NA,NA,NA,NA,NA,sdf,NA,5,NA,NA,NA,NA,NA,NA,NA,NA,NA,NA,NA,NA,NA,NA,NA,NA,NA,NA,NA
85968,check continue,flow.Sequence,3_0_6,NA,NA,skipped,NA,4402251.1000001,NA,NA,4402185.2,4402251.2,2023-07-13T16:16:16Z,4402666.696,NULL,NA,NA,NA,NA,NA,NA,NA,dfs,NA,6,NA,NA,NA,NA,NA,NA,NA,NA,NA,NA,NA,NA,NA,NA,NA,NA,NA,NA,NA
85968,check continue,flow.Sequence,3_0_7,NA,NA,skipped,NA,4402267.5,NA,NA,4402185.2,4402267.6000001,2023-07-13T16:16:16Z,4402666.696,NULL,NA,NA,NA,NA,NA,NA,NA,df,NA,7,NA,NA,NA,NA,NA,NA,NA,NA,NA,NA,NA,NA,NA,NA,NA,NA,NA,NA,NA
85968,check continue,flow.Sequence,3_0_8,NA,NA,skipped,NA,4402294.8,NA,NA,4402185.2,4402295,2023-07-13T16:16:16Z,4402666.696,NULL,NA,NA,NA,NA,NA,NA,NA,dfs,NA,8,NA,NA,NA,NA,NA,NA,NA,NA,NA,NA,NA,NA,NA,NA,NA,NA,NA,NA,NA
85968,check continue,flow.Sequence,3_0_9,NA,NA,skipped,NA,4402314.9000001,NA,NA,4402185.2,4402315,2023-07-13T16:16:16Z,4402666.696,NULL,NA,NA,NA,NA,NA,NA,NA,dsf,NA,9,NA,NA,NA,NA,NA,NA,NA,NA,NA,NA,NA,NA,NA,NA,NA,NA,NA,NA,NA
85968,check continue,flow.Sequence,3_0_10,NA,NA,skipped,NA,4402331,NA,NA,4402185.2,4402331.1000001,2023-07-13T16:16:16Z,4402666.696,NULL,NA,NA,NA,NA,NA,NA,NA,df,NA,10,NA,NA,NA,NA,NA,NA,NA,NA,NA,NA,NA,NA,NA,NA,NA,NA,NA,NA,NA
85968,check continue,flow.Sequence,3_0_11,NA,NA,skipped,NA,4402347.1000001,NA,NA,4402185.2,4402347.2,2023-07-13T16:16:16Z,4402666.696,NULL,NA,NA,NA,NA,NA,NA,NA,dfs,NA,11,NA,NA,NA,NA,NA,NA,NA,NA,NA,NA,NA,NA,NA,NA,NA,NA,NA,NA,NA
85968,check continue,flow.Sequence,3_0_12,NA,NA,skipped,NA,4402364.6000001,NA,NA,4402185.2,4402364.7,2023-07-13T16:16:16Z,4402666.696,NULL,NA,NA,NA,NA,NA,NA,NA,dsf,NA,12,NA,NA,NA,NA,NA,NA,NA,NA,NA,NA,NA,NA,NA,NA,NA,NA,NA,NA,NA
85968,check continue,flow.Sequence,3_0_13,NA,NA,skipped,NA,4402380.7,NA,NA,4402185.2,4402380.8,2023-07-13T16:16:16Z,4402666.696,NULL,NA,NA,NA,NA,NA,NA,NA,dsf,NA,13,NA,NA,NA,NA,NA,NA,NA,NA,NA,NA,NA,NA,NA,NA,NA,NA,NA,NA,NA
85968,check continue,flow.Sequence,3_0_14,NA,NA,skipped,NA,4402396.3,NA,NA,4402185.2,4402396.5,2023-07-13T16:16:16Z,4402666.696,NULL,NA,NA,NA,NA,NA,NA,NA,NA,NA,14,NA,NA,NA,NA,NA,NA,NA,NA,NA,NA,NA,NA,NA,NA,NA,NA,NA,NA,NA
85968,check continue,flow.Sequence,3_0_15,NA,NA,skipped,NA,4402411.7,NA,NA,4402185.2,4402411.8,2023-07-13T16:16:16Z,4402666.696,NULL,NA,NA,NA,NA,NA,NA,NA,NA,NA,15,NA,NA,NA,NA,NA,NA,NA,NA,NA,NA,NA,NA,NA,NA,NA,NA,NA,NA,NA
85968,check continue,flow.Sequence,3_0_16,NA,NA,skipped,NA,4402427.3,NA,NA,4402185.2,4402427.4000001,2023-07-13T16:16:16Z,4402666.696,NULL,NA,NA,NA,NA,NA,NA,NA,NA,NA,16,NA,NA,NA,NA,NA,NA,NA,NA,NA,NA,NA,NA,NA,NA,NA,NA,NA,NA,NA
85968,check continue,flow.Sequence,3_0_17,NA,NA,skipped,NA,4402442.9000001,NA,NA,4402185.2,4402443,2023-07-13T16:16:16Z,4402666.696,NULL,NA,NA,NA,NA,NA,NA,NA,NA,NA,17,NA,NA,NA,NA,NA,NA,NA,NA,NA,NA,NA,NA,NA,NA,NA,NA,NA,NA,NA
85968,check continue,flow.Sequence,3_0_18,NA,NA,skipped,NA,4402459.5,NA,NA,4402185.2,4402459.6000001,2023-07-13T16:16:16Z,4402666.696,NULL,NA,NA,NA,NA,NA,NA,NA,NA,NA,18,NA,NA,NA,NA,NA,NA,NA,NA,NA,NA,NA,NA,NA,NA,NA,NA,NA,NA,NA
85968,check continue,flow.Sequence,3_0_19,NA,NA,skipped,NA,4402474.6000001,NA,NA,4402185.2,4402474.7,2023-07-13T16:16:16Z,4402666.696,NULL,NA,NA,NA,NA,NA,NA,NA,NA,NA,19,NA,NA,NA,NA,NA,NA,NA,NA,NA,NA,NA,NA,NA,NA,NA,NA,NA,NA,NA
85968,check continue,flow.Sequence,3_0_20,NA,NA,skipped,NA,4402497.3,NA,NA,4402185.2,4402497.4000001,2023-07-13T16:16:16Z,4402666.696,NULL,NA,NA,NA,NA,NA,NA,NA,NA,NA,20,NA,NA,NA,NA,NA,NA,NA,NA,NA,NA,NA,NA,NA,NA,NA,NA,NA,NA,NA
85968,check continue,flow.Sequence,3_0_21,NA,NA,skipped,NA,4402512,NA,NA,4402185.2,4402512.2,2023-07-13T16:16:16Z,4402666.696,NULL,NA,NA,NA,NA,NA,NA,NA,NA,NA,21,NA,NA,NA,NA,NA,NA,NA,NA,NA,NA,NA,NA,NA,NA,NA,NA,NA,NA,NA
85968,check continue,flow.Sequence,3_0_22,NA,NA,skipped,NA,4402529.7,NA,NA,4402185.2,4402529.7,2023-07-13T16:16:16Z,4402666.696,NULL,NA,NA,NA,NA,NA,NA,NA,NA,NA,22,NA,NA,NA,NA,NA,NA,NA,NA,NA,NA,NA,NA,NA,NA,NA,NA,NA,NA,NA
85968,check continue,flow.Sequence,3_0_23,NA,NA,skipped,NA,4402543.9000001,NA,NA,4402185.2,4402544,2023-07-13T16:16:16Z,4402666.696,NULL,NA,NA,NA,NA,NA,NA,NA,NA,NA,23,NA,NA,NA,NA,NA,NA,NA,NA,NA,NA,NA,NA,NA,NA,NA,NA,NA,NA,NA
85968,check continue,flow.Sequence,3_0_24,NA,NA,skipped,NA,4402570.6000001,NA,NA,4402185.2,4402570.7,2023-07-13T16:16:16Z,4402666.696,NULL,NA,NA,NA,NA,NA,NA,NA,NA,NA,24,NA,NA,NA,NA,NA,NA,NA,NA,NA,NA,NA,NA,NA,NA,NA,NA,NA,NA,NA
85968,check continue,flow.Sequence,3_0_25,NA,NA,skipped,NA,4402587.1000001,NA,NA,4402185.2,4402587.2,2023-07-13T16:16:16Z,4402666.696,NULL,NA,NA,NA,NA,NA,NA,NA,NA,NA,25,NA,NA,NA,NA,NA,NA,NA,NA,NA,NA,NA,NA,NA,NA,NA,NA,NA,NA,NA
85968,check continue,flow.Sequence,3_0_26,NA,NA,skipped,NA,4402603.7,NA,NA,4402185.2,4402603.8,2023-07-13T16:16:16Z,4402666.696,NULL,NA,NA,NA,NA,NA,NA,NA,NA,NA,26,NA,NA,NA,NA,NA,NA,NA,NA,NA,NA,NA,NA,NA,NA,NA,NA,NA,NA,NA
85968,check continue,flow.Sequence,3_0_27,NA,NA,skipped,NA,4402620,NA,NA,4402185.2,4402620.2,2023-07-13T16:16:16Z,4402666.696,NULL,NA,NA,NA,NA,NA,NA,NA,NA,NA,27,NA,NA,NA,NA,NA,NA,NA,NA,NA,NA,NA,NA,NA,NA,NA,NA,NA,NA,NA
85968,check continue,flow.Sequence,3_0_28,NA,NA,skipped,NA,4402633.7,NA,NA,4402185.2,4402633.8,2023-07-13T16:16:16Z,4402666.696,NULL,NA,NA,NA,NA,NA,NA,NA,NA,NA,28,NA,NA,NA,NA,NA,NA,NA,NA,NA,NA,NA,NA,NA,NA,NA,NA,NA,NA,NA
85968,check continue,flow.Sequence,3_0_29,NA,NA,skipped,NA,4402649.4000001,NA,NA,4402185.2,4402649.5,2023-07-13T16:16:16Z,4402666.696,NULL,NA,NA,NA,NA,NA,NA,NA,NA,NA,29,NA,NA,NA,NA,NA,NA,NA,NA,NA,NA,NA,NA,NA,NA,NA,NA,NA,NA,NA
85968,until continue,flow.Loop,3_0,NA,NA,completion,395192.79300005,4006952.9000001,4006958.665,4006992.407,4402185.2,4402649.7,2023-07-13T16:16:16Z,4402666.696,NULL,NA,NA,NA,NA,NA,NA,NA,NA,NA,NA,NA,NA,NA,NA,NA,NA,NA,NA,NA,NA,NA,NA,NA,NA,NA,NA,NA,NA,NA
85968,block 1,flow.Sequence,3,NA,NA,completion,395192.79300005,4006952.9000001,4006958.665,4006992.407,4402185.2,4402649.8,2023-07-13T16:16:16Z,4402666.696,NULL,NA,NA,NA,NA,NA,NA,NA,NA,NA,NA,NA,NA,NA,NA,NA,NA,NA,NA,NA,NA,NA,NA,NA,NA,NA,NA,NA,NA,NA
85968,1.Part Over,canvas.Screen,4,NA,keypress(Space),response,2519.3039999995,4402649.8,4402633.94,4402666.696,4405186,4405187.1000001,2023-07-13T16:16:19Z,4405247.899,NULL,NA,NA,NA,NA,NA,NA,NA,NA,NA,NA,NA,NA,NA,NA,NA,NA,NA,NA,NA,NA,NA,NA,NA,NA,NA,NA,NA,NA,NA
85968,deep,flow.Sequence,5_0_0_0_0_0,NA,NA,skipped,NA,4405244.9000001,NA,NA,4405186,4405245.1000001,2023-07-13T16:16:19Z,4405247.899,NULL,Wettbewerb,ushindani,s,mapendezi,kichocheo,ubaguzi,NA,sdf,NA,0,NA,NA,NA,NA,NA,NA,NA,NA,NA,NA,NA,NA,NA,NA,NA,NA,NA,NA,NA
85968,Shallow Question,html.Page,5_0_0_0_0_1_0,NA,NA,form submission,7569.6009999998,4405245.2,4405231.469,4405247.899,4412817.5,4412817.7,2023-07-13T16:16:26Z,4412824.981,NULL,Wettbewerb,ushindani,s,mapendezi,kichocheo,ubaguzi,kichocheo,NA,NA,0,NA,NA,NA,NA,NA,NA,NA,NA,NA,NA,NA,NA,NA,NA,NA,NA,NA,NA,NA
85968,"""Richtig""-Screen",canvas.Screen,5_0_0_0_0_1_1,NA,NA,skipped,NA,4412819.4000001,NA,NA,4412817.5,4412819.6000001,2023-07-13T16:16:26Z,4412824.981,NULL,Wettbewerb,ushindani,s,mapendezi,kichocheo,ubaguzi,NA,sdf,NA,0,NA,NA,NA,NA,NA,NA,NA,NA,NA,NA,NA,NA,NA,NA,NA,NA,NA,NA,NA
85968,"""Falsch""-Screen",canvas.Screen,5_0_0_0_0_1_2,NA,NA,timeout,4996.5049999999,4412820.1000001,4412808.622,4412824.981,4417804.489,4417805.4000001,2023-07-13T16:16:31Z,4417821.486,NULL,Wettbewerb,ushindani,s,mapendezi,kichocheo,ubaguzi,NA,sdf,0,0,NA,NA,NA,NA,NA,NA,NA,NA,NA,NA,NA,NA,NA,NA,NA,NA,NA,NA,NA
85968,shallow,flow.Sequence,5_0_0_0_0_1,NA,NA,completion,12556.59,4405245.2,4405231.469,4405247.899,4417804.489,4417805.7,2023-07-13T16:16:31Z,4417821.486,NULL,Wettbewerb,ushindani,s,mapendezi,kichocheo,ubaguzi,NA,sdf,NA,0,NA,NA,NA,NA,NA,NA,NA,NA,NA,NA,NA,NA,NA,NA,NA,NA,NA,NA,NA
85968,task,flow.Sequence,5_0_0_0_0,NA,NA,completion,12556.59,4405244.9000001,4405231.469,4405247.899,4417804.489,4417806,2023-07-13T16:16:31Z,4417821.486,NULL,Wettbewerb,ushindani,s,mapendezi,kichocheo,ubaguzi,NA,sdf,NA,0,NA,NA,NA,NA,NA,NA,NA,NA,NA,NA,NA,NA,NA,NA,NA,NA,NA,NA,NA
85968,deep,flow.Sequence,5_0_0_0_1_0,NA,NA,skipped,NA,4417806.1000001,NA,NA,4417804.489,4417806.3,2023-07-13T16:16:31Z,4417821.486,NULL,Auftrag,uagizaji,s,ghanima,kuzingatia,msukani,NA,sdf,NA,0,NA,NA,NA,NA,NA,NA,NA,NA,NA,NA,NA,NA,NA,NA,NA,NA,NA,NA,NA
85968,Shallow Question,html.Page,5_0_0_0_1_1_0,NA,NA,form submission,5383.3139999527,4417806.5,4417804.489,4417821.486,4423204.8,4423205.1000001,2023-07-13T16:16:37Z,4423216.859,NULL,Auftrag,uagizaji,s,ghanima,kuzingatia,msukani,kuzingatia,NA,NA,0,NA,NA,NA,NA,NA,NA,NA,NA,NA,NA,NA,NA,NA,NA,NA,NA,NA,NA,NA
85968,"""Richtig""-Screen",canvas.Screen,5_0_0_0_1_1_1,NA,NA,skipped,NA,4423207,NA,NA,4423204.8,4423207.2,2023-07-13T16:16:37Z,4423216.859,NULL,Auftrag,uagizaji,s,ghanima,kuzingatia,msukani,NA,sdf,NA,0,NA,NA,NA,NA,NA,NA,NA,NA,NA,NA,NA,NA,NA,NA,NA,NA,NA,NA,NA
85968,"""Falsch""-Screen",canvas.Screen,5_0_0_0_1_1_2,NA,NA,timeout,4996.034,4423207.6000001,4423200.535,4423216.859,4428196.275,4428197.2,2023-07-13T16:16:42Z,4428212.893,NULL,Auftrag,uagizaji,s,ghanima,kuzingatia,msukani,NA,sdf,0,0,NA,NA,NA,NA,NA,NA,NA,NA,NA,NA,NA,NA,NA,NA,NA,NA,NA,NA,NA
85968,shallow,flow.Sequence,5_0_0_0_1_1,NA,NA,completion,10374.789000001,4417806.4000001,4417804.489,4417821.486,4428196.275,4428197.9000001,2023-07-13T16:16:42Z,4428212.893,NULL,Auftrag,uagizaji,s,ghanima,kuzingatia,msukani,NA,sdf,NA,0,NA,NA,NA,NA,NA,NA,NA,NA,NA,NA,NA,NA,NA,NA,NA,NA,NA,NA,NA
85968,task,flow.Sequence,5_0_0_0_1,NA,NA,completion,10374.789000001,4417806,4417804.489,4417821.486,4428196.275,4428198.1000001,2023-07-13T16:16:42Z,4428212.893,NULL,Auftrag,uagizaji,s,ghanima,kuzingatia,msukani,NA,sdf,NA,0,NA,NA,NA,NA,NA,NA,NA,NA,NA,NA,NA,NA,NA,NA,NA,NA,NA,NA,NA
85968,Deep Question,html.Page,5_0_0_0_2_0_0,NA,NA,form submission,5142.0070000952,4428198.4000001,4428196.275,4428212.893,4433354.9000001,4433355.1000001,2023-07-13T16:16:47Z,4433358.135,NULL,Kanzler,diwani,d,NA,NA,NA,cangelo,NA,NA,0,NA,NA,NA,NA,NA,NA,NA,NA,NA,NA,NA,NA,NA,NA,NA,NA,NA,NA,NA
85968,"""Richtig""-Screen",canvas.Screen,5_0_0_0_2_0_1,NA,NA,skipped,NA,4433357.5,NA,NA,4433354.9000001,4433357.6000001,2023-07-13T16:16:47Z,4433358.135,NULL,Kanzler,diwani,d,NA,NA,NA,NA,sdf,NA,0,NA,NA,NA,NA,NA,NA,NA,NA,NA,NA,NA,NA,NA,NA,NA,NA,NA,NA,NA
85968,"""Falsch""-Screen",canvas.Screen,5_0_0_0_2_0_2,NA,NA,timeout,4996.6490000002,4433358.6000001,4433342.163,4433358.135,4438337.947,4438338.9000001,2023-07-13T16:16:52Z,4438354.784,NULL,Kanzler,diwani,d,NA,NA,NA,NA,sdf,0,0,NA,NA,NA,NA,NA,NA,NA,NA,NA,NA,NA,NA,NA,NA,NA,NA,NA,NA,NA
85968,deep,flow.Sequence,5_0_0_0_2_0,NA,NA,completion,10125.054,4428198.4000001,4428196.275,4428212.893,4438337.947,4438339.3,2023-07-13T16:16:52Z,4438354.784,NULL,Kanzler,diwani,d,NA,NA,NA,NA,sdf,NA,0,NA,NA,NA,NA,NA,NA,NA,NA,NA,NA,NA,NA,NA,NA,NA,NA,NA,NA,NA
85968,shallow,flow.Sequence,5_0_0_0_2_1,NA,NA,skipped,NA,4438339.5,NA,NA,4438337.947,4438339.6000001,2023-07-13T16:16:52Z,4438354.784,NULL,Kanzler,diwani,d,NA,NA,NA,NA,sdf,NA,0,NA,NA,NA,NA,NA,NA,NA,NA,NA,NA,NA,NA,NA,NA,NA,NA,NA,NA,NA
85968,task,flow.Sequence,5_0_0_0_2,NA,NA,completion,10125.054,4428198.3,4428196.275,4428212.893,4438337.947,4438339.9000001,2023-07-13T16:16:52Z,4438354.784,NULL,Kanzler,diwani,d,NA,NA,NA,NA,sdf,NA,0,NA,NA,NA,NA,NA,NA,NA,NA,NA,NA,NA,NA,NA,NA,NA,NA,NA,NA,NA
85968,Deep Question,html.Page,5_0_0_0_3_0_0,NA,NA,form submission,4561.4160000477,4438340.2,4438337.947,4438354.784,4442916.2,4442916.4000001,2023-07-13T16:16:57Z,4442934.34,NULL,Abrechnung,uhasibu,d,NA,NA,NA,calcurm,NA,NA,0,NA,NA,NA,NA,NA,NA,NA,NA,NA,NA,NA,NA,NA,NA,NA,NA,NA,NA,NA
85968,"""Richtig""-Screen",canvas.Screen,5_0_0_0_3_0_1,NA,NA,skipped,NA,4442919.1000001,NA,NA,4442916.2,4442919.3,2023-07-13T16:16:57Z,4442934.34,NULL,Abrechnung,uhasibu,d,NA,NA,NA,NA,sdf,NA,0,NA,NA,NA,NA,NA,NA,NA,NA,NA,NA,NA,NA,NA,NA,NA,NA,NA,NA,NA
85968,"""Falsch""-Screen",canvas.Screen,5_0_0_0_3_0_2,NA,NA,timeout,4995.6409999998,4442920.4000001,4442900.917,4442934.34,4447913.398,4447914.2,2023-07-13T16:17:02Z,4447929.981,NULL,Abrechnung,uhasibu,d,NA,NA,NA,NA,sdf,0,0,NA,NA,NA,NA,NA,NA,NA,NA,NA,NA,NA,NA,NA,NA,NA,NA,NA,NA,NA
85968,deep,flow.Sequence,5_0_0_0_3_0,NA,NA,completion,9558.6140000001,4438340.2,4438337.947,4438354.784,4447913.398,4447914.7,2023-07-13T16:17:02Z,4447929.981,NULL,Abrechnung,uhasibu,d,NA,NA,NA,NA,sdf,NA,0,NA,NA,NA,NA,NA,NA,NA,NA,NA,NA,NA,NA,NA,NA,NA,NA,NA,NA,NA
85968,shallow,flow.Sequence,5_0_0_0_3_1,NA,NA,skipped,NA,4447914.8,NA,NA,4447913.398,4447915,2023-07-13T16:17:02Z,4447929.981,NULL,Abrechnung,uhasibu,d,NA,NA,NA,NA,sdf,NA,0,NA,NA,NA,NA,NA,NA,NA,NA,NA,NA,NA,NA,NA,NA,NA,NA,NA,NA,NA
85968,task,flow.Sequence,5_0_0_0_3,NA,NA,completion,9558.6140000001,4438340,4438337.947,4438354.784,4447913.398,4447915.2,2023-07-13T16:17:02Z,4447929.981,NULL,Abrechnung,uhasibu,d,NA,NA,NA,NA,sdf,NA,0,NA,NA,NA,NA,NA,NA,NA,NA,NA,NA,NA,NA,NA,NA,NA,NA,NA,NA,NA
85968,Deep Question,html.Page,5_0_0_0_4_0_0,NA,NA,form submission,4650.6190001434,4447915.5,4447913.398,4447929.981,4452580.6000001,4452580.8,2023-07-13T16:17:06Z,4452592.517,NULL,Zufall,kikuti,d,NA,NA,NA,unha,NA,NA,0,NA,NA,NA,NA,NA,NA,NA,NA,NA,NA,NA,NA,NA,NA,NA,NA,NA,NA,NA
85968,"""Richtig""-Screen",canvas.Screen,5_0_0_0_4_0_1,NA,NA,skipped,NA,4452583.5,NA,NA,4452580.6000001,4452583.6000001,2023-07-13T16:17:06Z,4452592.517,NULL,Zufall,kikuti,d,NA,NA,NA,NA,sdf,NA,0,NA,NA,NA,NA,NA,NA,NA,NA,NA,NA,NA,NA,NA,NA,NA,NA,NA,NA,NA
85968,"""Falsch""-Screen",canvas.Screen,5_0_0_0_4_0_2,NA,NA,timeout,4996.2999999998,4452584.5,4452575.755,4452592.517,4457571.815,4457572.7,2023-07-13T16:17:11Z,4457588.817,NULL,Zufall,kikuti,d,NA,NA,NA,NA,sdf,0,0,NA,NA,NA,NA,NA,NA,NA,NA,NA,NA,NA,NA,NA,NA,NA,NA,NA,NA,NA
85968,deep,flow.Sequence,5_0_0_0_4_0,NA,NA,completion,9641.8340000007,4447915.4000001,4447913.398,4447929.981,4457571.815,4457573.2,2023-07-13T16:17:11Z,4457588.817,NULL,Zufall,kikuti,d,NA,NA,NA,NA,sdf,NA,0,NA,NA,NA,NA,NA,NA,NA,NA,NA,NA,NA,NA,NA,NA,NA,NA,NA,NA,NA
85968,shallow,flow.Sequence,5_0_0_0_4_1,NA,NA,skipped,NA,4457573.4000001,NA,NA,4457571.815,4457573.6000001,2023-07-13T16:17:11Z,4457588.817,NULL,Zufall,kikuti,d,NA,NA,NA,NA,sdf,NA,0,NA,NA,NA,NA,NA,NA,NA,NA,NA,NA,NA,NA,NA,NA,NA,NA,NA,NA,NA
85968,task,flow.Sequence,5_0_0_0_4,NA,NA,completion,9641.8340000007,4447915.4000001,4447913.398,4447929.981,4457571.815,4457573.8,2023-07-13T16:17:11Z,4457588.817,NULL,Zufall,kikuti,d,NA,NA,NA,NA,sdf,NA,0,NA,NA,NA,NA,NA,NA,NA,NA,NA,NA,NA,NA,NA,NA,NA,NA,NA,NA,NA
85968,deep,flow.Sequence,5_0_0_0_5_0,NA,NA,skipped,NA,4457574,NA,NA,4457571.815,4457574.1000001,2023-07-13T16:17:11Z,4457588.817,NULL,Sänger,mwimbaji,s,msichana,shughuli,mshirika,NA,sdf,NA,0,NA,NA,NA,NA,NA,NA,NA,NA,NA,NA,NA,NA,NA,NA,NA,NA,NA,NA,NA
85968,Shallow Question,html.Page,5_0_0_0_5_1_0,NA,NA,form submission,4715.4829999525,4457574.3,4457571.815,4457588.817,4462304.3,4462304.6000001,2023-07-13T16:17:16Z,4462317.631,NULL,Sänger,mwimbaji,s,msichana,shughuli,mshirika,shughuli,NA,NA,0,NA,NA,NA,NA,NA,NA,NA,NA,NA,NA,NA,NA,NA,NA,NA,NA,NA,NA,NA
85968,"""Richtig""-Screen",canvas.Screen,5_0_0_0_5_1_1,NA,NA,skipped,NA,4462306.5,NA,NA,4462304.3,4462306.7,2023-07-13T16:17:16Z,4462317.631,NULL,Sänger,mwimbaji,s,msichana,shughuli,mshirika,NA,sdf,NA,0,NA,NA,NA,NA,NA,NA,NA,NA,NA,NA,NA,NA,NA,NA,NA,NA,NA,NA,NA
85968,"""Falsch""-Screen",canvas.Screen,5_0_0_0_5_1_2,NA,NA,timeout,4996.375,4462307.3,4462301.689,4462317.631,4467296.908,4467298.7,2023-07-13T16:17:21Z,4467314.006,NULL,Sänger,mwimbaji,s,msichana,shughuli,mshirika,NA,sdf,0,0,NA,NA,NA,NA,NA,NA,NA,NA,NA,NA,NA,NA,NA,NA,NA,NA,NA,NA,NA
85968,shallow,flow.Sequence,5_0_0_0_5_1,NA,NA,completion,9708.091,4457574.3,4457571.815,4457588.817,4467296.908,4467298.9000001,2023-07-13T16:17:21Z,4467314.006,NULL,Sänger,mwimbaji,s,msichana,shughuli,mshirika,NA,sdf,NA,0,NA,NA,NA,NA,NA,NA,NA,NA,NA,NA,NA,NA,NA,NA,NA,NA,NA,NA,NA
85968,task,flow.Sequence,5_0_0_0_5,NA,NA,completion,9708.091,4457573.9000001,4457571.815,4457588.817,4467296.908,4467299.1000001,2023-07-13T16:17:21Z,4467314.006,NULL,Sänger,mwimbaji,s,msichana,shughuli,mshirika,NA,sdf,NA,0,NA,NA,NA,NA,NA,NA,NA,NA,NA,NA,NA,NA,NA,NA,NA,NA,NA,NA,NA
85968,deep,flow.Sequence,5_0_0_0_6_0,NA,NA,skipped,NA,4467299.2,NA,NA,4467296.908,4467299.3,2023-07-13T16:17:21Z,4467314.006,NULL,Angreifer,mshambulizi,s,kitengo,tasinia,usafirishaji,NA,sdf,NA,0,NA,NA,NA,NA,NA,NA,NA,NA,NA,NA,NA,NA,NA,NA,NA,NA,NA,NA,NA
85968,Shallow Question,html.Page,5_0_0_0_6_1_0,NA,NA,form submission,4642.8940000953,4467299.4000001,4467296.908,4467314.006,4471956.9000001,4471957.1000001,2023-07-13T16:17:26Z,4471959.752,NULL,Angreifer,mshambulizi,s,kitengo,tasinia,usafirishaji,kitengo,NA,NA,0,NA,NA,NA,NA,NA,NA,NA,NA,NA,NA,NA,NA,NA,NA,NA,NA,NA,NA,NA
85968,"""Richtig""-Screen",canvas.Screen,5_0_0_0_6_1_1,NA,NA,skipped,NA,4471959,NA,NA,4471956.9000001,4471959.2,2023-07-13T16:17:26Z,4471959.752,NULL,Angreifer,mshambulizi,s,kitengo,tasinia,usafirishaji,NA,sdf,NA,0,NA,NA,NA,NA,NA,NA,NA,NA,NA,NA,NA,NA,NA,NA,NA,NA,NA,NA,NA
85968,"""Falsch""-Screen",canvas.Screen,5_0_0_0_6_1_2,NA,NA,timeout,4995.8949999996,4471959.9000001,4471943.619,4471959.752,4476939.265,4476940.2,2023-07-13T16:17:31Z,4476955.647,NULL,Angreifer,mshambulizi,s,kitengo,tasinia,usafirishaji,NA,sdf,0,0,NA,NA,NA,NA,NA,NA,NA,NA,NA,NA,NA,NA,NA,NA,NA,NA,NA,NA,NA
85968,shallow,flow.Sequence,5_0_0_0_6_1,NA,NA,completion,9625.2589999996,4467299.4000001,4467296.908,4467314.006,4476939.265,4476940.6000001,2023-07-13T16:17:31Z,4476955.647,NULL,Angreifer,mshambulizi,s,kitengo,tasinia,usafirishaji,NA,sdf,NA,0,NA,NA,NA,NA,NA,NA,NA,NA,NA,NA,NA,NA,NA,NA,NA,NA,NA,NA,NA
85968,task,flow.Sequence,5_0_0_0_6,NA,NA,completion,9625.2589999996,4467299.2,4467296.908,4467314.006,4476939.265,4476940.9000001,2023-07-13T16:17:31Z,4476955.647,NULL,Angreifer,mshambulizi,s,kitengo,tasinia,usafirishaji,NA,sdf,NA,0,NA,NA,NA,NA,NA,NA,NA,NA,NA,NA,NA,NA,NA,NA,NA,NA,NA,NA,NA
85968,Deep Question,html.Page,5_0_0_0_7_0_0,NA,NA,form submission,4059.3530000001,4476941.2,4476939.265,4476955.647,4481015,4481015.2,2023-07-13T16:17:35Z,4481018.927,NULL,Schönheit,kirembo,d,NA,NA,NA,buero,NA,NA,0,NA,NA,NA,NA,NA,NA,NA,NA,NA,NA,NA,NA,NA,NA,NA,NA,NA,NA,NA
85968,"""Richtig""-Screen",canvas.Screen,5_0_0_0_7_0_1,NA,NA,skipped,NA,4481018.1000001,NA,NA,4481015,4481018.3,2023-07-13T16:17:35Z,4481018.927,NULL,Schönheit,kirembo,d,NA,NA,NA,NA,sdf,NA,0,NA,NA,NA,NA,NA,NA,NA,NA,NA,NA,NA,NA,NA,NA,NA,NA,NA,NA,NA
85968,"""Falsch""-Screen",canvas.Screen,5_0_0_0_7_0_2,NA,NA,timeout,4995.8999999994,4481019.2,4481002.855,4481018.927,4485998.711,4485999.6000001,2023-07-13T16:17:40Z,4486014.827,NULL,Schönheit,kirembo,d,NA,NA,NA,NA,sdf,0,0,NA,NA,NA,NA,NA,NA,NA,NA,NA,NA,NA,NA,NA,NA,NA,NA,NA,NA,NA
85968,deep,flow.Sequence,5_0_0_0_7_0,NA,NA,completion,9043.0640000002,4476941.1000001,4476939.265,4476955.647,4485998.711,4486000.2,2023-07-13T16:17:40Z,4486014.827,NULL,Schönheit,kirembo,d,NA,NA,NA,NA,sdf,NA,0,NA,NA,NA,NA,NA,NA,NA,NA,NA,NA,NA,NA,NA,NA,NA,NA,NA,NA,NA
85968,shallow,flow.Sequence,5_0_0_0_7_1,NA,NA,skipped,NA,4486000.4000001,NA,NA,4485998.711,4486000.6000001,2023-07-13T16:17:40Z,4486014.827,NULL,Schönheit,kirembo,d,NA,NA,NA,NA,sdf,NA,0,NA,NA,NA,NA,NA,NA,NA,NA,NA,NA,NA,NA,NA,NA,NA,NA,NA,NA,NA
85968,task,flow.Sequence,5_0_0_0_7,NA,NA,completion,9043.0640000002,4476941,4476939.265,4476955.647,4485998.711,4486000.8,2023-07-13T16:17:40Z,4486014.827,NULL,Schönheit,kirembo,d,NA,NA,NA,NA,sdf,NA,0,NA,NA,NA,NA,NA,NA,NA,NA,NA,NA,NA,NA,NA,NA,NA,NA,NA,NA,NA
85968,block,flow.Loop,5_0_0_0,NA,NA,completion,80750.812,4405244.9000001,4405231.469,4405247.899,4485998.711,4486001.1000001,2023-07-13T16:17:40Z,4486014.827,NULL,NA,NA,NA,NA,NA,NA,NA,sdf,NA,0,NA,NA,NA,NA,NA,NA,NA,NA,NA,NA,NA,NA,NA,NA,NA,NA,NA,NA,NA
85968,weiter,canvas.Screen,5_0_0_1,sdf,keypress(Space),response,820.47299995273,4486001.2,4485998.711,4486014.827,4486835.3,4486840.2,2023-07-13T16:17:40Z,4486898.198,NULL,NA,NA,NA,NA,NA,NA,NA,sdf,NA,0,NA,NA,NA,NA,NA,NA,NA,NA,NA,NA,NA,NA,NA,NA,NA,NA,NA,NA,NA
85968,check continue,flow.Sequence,5_0_0,NA,NA,completion,81587.400999952,4405244.9000001,4405231.469,4405247.899,4486835.3,4486840.7,2023-07-13T16:17:40Z,4486898.198,NULL,NA,NA,NA,NA,NA,NA,NA,sdf,NA,0,NA,NA,NA,NA,NA,NA,NA,NA,NA,NA,NA,NA,NA,NA,NA,NA,NA,NA,NA
85968,Deep Question,html.Page,5_0_1_0_0_0_0,NA,NA,form submission,10708.402000143,4486881.9000001,4486881.498,4486898.198,4497606.6000001,4497606.8,2023-07-13T16:17:51Z,4497621.949,NULL,Kanzler,diwani,d,NA,NA,NA,kirob,NA,NA,1,NA,NA,NA,NA,NA,NA,NA,NA,NA,NA,NA,NA,NA,NA,NA,NA,NA,NA,NA
85968,"""Richtig""-Screen",canvas.Screen,5_0_1_0_0_0_1,NA,NA,skipped,NA,4497609.5,NA,NA,4497606.6000001,4497609.7,2023-07-13T16:17:51Z,4497621.949,NULL,Kanzler,diwani,d,NA,NA,NA,NA,sdfdsf,NA,1,NA,NA,NA,NA,NA,NA,NA,NA,NA,NA,NA,NA,NA,NA,NA,NA,NA,NA,NA
85968,"""Falsch""-Screen",canvas.Screen,5_0_1_0_0_0_2,NA,NA,timeout,4996.5310000004,4497610.9000001,4497605.692,4497621.949,4502601.466,4502602.4000001,2023-07-13T16:17:56Z,4502618.48,NULL,Kanzler,diwani,d,NA,NA,NA,NA,sdfdsf,0,1,NA,NA,NA,NA,NA,NA,NA,NA,NA,NA,NA,NA,NA,NA,NA,NA,NA,NA,NA
85968,deep,flow.Sequence,5_0_1_0_0_0,NA,NA,completion,15703.268,4486881.9000001,4486881.498,4486898.198,4502601.466,4502602.9000001,2023-07-13T16:17:56Z,4502618.48,NULL,Kanzler,diwani,d,NA,NA,NA,NA,sdfdsf,NA,1,NA,NA,NA,NA,NA,NA,NA,NA,NA,NA,NA,NA,NA,NA,NA,NA,NA,NA,NA
85968,shallow,flow.Sequence,5_0_1_0_0_1,NA,NA,skipped,NA,4502603.1000001,NA,NA,4502601.466,4502603.3,2023-07-13T16:17:56Z,4502618.48,NULL,Kanzler,diwani,d,NA,NA,NA,NA,sdfdsf,NA,1,NA,NA,NA,NA,NA,NA,NA,NA,NA,NA,NA,NA,NA,NA,NA,NA,NA,NA,NA
85968,task,flow.Sequence,5_0_1_0_0,NA,NA,completion,15703.268,4486881.9000001,4486881.498,4486898.198,4502601.466,4502603.5,2023-07-13T16:17:56Z,4502618.48,NULL,Kanzler,diwani,d,NA,NA,NA,NA,sdfdsf,NA,1,NA,NA,NA,NA,NA,NA,NA,NA,NA,NA,NA,NA,NA,NA,NA,NA,NA,NA,NA
85968,deep,flow.Sequence,5_0_1_0_1_0,NA,NA,skipped,NA,4502603.7,NA,NA,4502601.466,4502603.8,2023-07-13T16:17:56Z,4502618.48,NULL,Sänger,mwimbaji,s,msichana,shughuli,mshirika,NA,sdfdsf,NA,1,NA,NA,NA,NA,NA,NA,NA,NA,NA,NA,NA,NA,NA,NA,NA,NA,NA,NA,NA
85968,Shallow Question,html.Page,5_0_1_0_1_1_0,NA,NA,form submission,5388.5199999996,4502604,4502601.466,4502618.48,4508007,4508007.2,2023-07-13T16:18:02Z,4508013.392,NULL,Sänger,mwimbaji,s,msichana,shughuli,mshirika,mwimbaji,NA,NA,1,NA,NA,NA,NA,NA,NA,NA,NA,NA,NA,NA,NA,NA,NA,NA,NA,NA,NA,NA
85968,"""Richtig""-Screen",canvas.Screen,5_0_1_0_1_1_1,NA,NA,timeout,4995.9400000004,4508009,4507997.362,4508013.392,4512992.904,4512994,2023-07-13T16:18:07Z,4513009.332,NULL,Sänger,mwimbaji,s,msichana,shughuli,mshirika,NA,sdfdsf,1,1,NA,NA,NA,NA,NA,NA,NA,NA,NA,NA,NA,NA,NA,NA,NA,NA,NA,NA,NA
85968,"""Falsch""-Screen",canvas.Screen,5_0_1_0_1_1_2,NA,NA,skipped,NA,4512999.1000001,NA,NA,4512992.904,4512999.6000001,2023-07-13T16:18:07Z,4513009.332,NULL,Sänger,mwimbaji,s,msichana,shughuli,mshirika,NA,sdfdsf,NA,1,NA,NA,NA,NA,NA,NA,NA,NA,NA,NA,NA,NA,NA,NA,NA,NA,NA,NA,NA
85968,shallow,flow.Sequence,5_0_1_0_1_1,NA,NA,completion,10374.424,4502603.9000001,4502601.466,4502618.48,4512992.904,4512999.9000001,2023-07-13T16:18:07Z,4513009.332,NULL,Sänger,mwimbaji,s,msichana,shughuli,mshirika,NA,sdfdsf,NA,1,NA,NA,NA,NA,NA,NA,NA,NA,NA,NA,NA,NA,NA,NA,NA,NA,NA,NA,NA
85968,task,flow.Sequence,5_0_1_0_1,NA,NA,completion,10374.424,4502603.7,4502601.466,4502618.48,4512992.904,4513000.2,2023-07-13T16:18:07Z,4513009.332,NULL,Sänger,mwimbaji,s,msichana,shughuli,mshirika,NA,sdfdsf,NA,1,NA,NA,NA,NA,NA,NA,NA,NA,NA,NA,NA,NA,NA,NA,NA,NA,NA,NA,NA
85968,Deep Question,html.Page,5_0_1_0_2_0_0,NA,NA,form submission,10586.268000143,4513000.4000001,4512992.904,4513009.332,4523595.6000001,4523595.8,2023-07-13T16:18:17Z,4523600.618,NULL,Zufall,kikuti,d,NA,NA,NA,kibato,NA,NA,1,NA,NA,NA,NA,NA,NA,NA,NA,NA,NA,NA,NA,NA,NA,NA,NA,NA,NA,NA
85968,"""Richtig""-Screen",canvas.Screen,5_0_1_0_2_0_1,NA,NA,skipped,NA,4523598.4000001,NA,NA,4523595.6000001,4523598.6000001,2023-07-13T16:18:17Z,4523600.618,NULL,Zufall,kikuti,d,NA,NA,NA,NA,sdfdsf,NA,1,NA,NA,NA,NA,NA,NA,NA,NA,NA,NA,NA,NA,NA,NA,NA,NA,NA,NA,NA
85968,"""Falsch""-Screen",canvas.Screen,5_0_1_0_2_0_2,NA,NA,timeout,4996.4580000006,4523599.5,4523584.375,4523600.618,4528579.978,4528581.1000001,2023-07-13T16:18:22Z,4528597.076,NULL,Zufall,kikuti,d,NA,NA,NA,NA,sdfdsf,0,1,NA,NA,NA,NA,NA,NA,NA,NA,NA,NA,NA,NA,NA,NA,NA,NA,NA,NA,NA
85968,deep,flow.Sequence,5_0_1_0_2_0,NA,NA,completion,15570.646,4513000.3,4512992.904,4513009.332,4528579.978,4528581.4000001,2023-07-13T16:18:22Z,4528597.076,NULL,Zufall,kikuti,d,NA,NA,NA,NA,sdfdsf,NA,1,NA,NA,NA,NA,NA,NA,NA,NA,NA,NA,NA,NA,NA,NA,NA,NA,NA,NA,NA
85968,shallow,flow.Sequence,5_0_1_0_2_1,NA,NA,skipped,NA,4528581.6000001,NA,NA,4528579.978,4528581.8,2023-07-13T16:18:22Z,4528597.076,NULL,Zufall,kikuti,d,NA,NA,NA,NA,sdfdsf,NA,1,NA,NA,NA,NA,NA,NA,NA,NA,NA,NA,NA,NA,NA,NA,NA,NA,NA,NA,NA
85968,task,flow.Sequence,5_0_1_0_2,NA,NA,completion,15570.646,4513000.3,4512992.904,4513009.332,4528579.978,4528582,2023-07-13T16:18:22Z,4528597.076,NULL,Zufall,kikuti,d,NA,NA,NA,NA,sdfdsf,NA,1,NA,NA,NA,NA,NA,NA,NA,NA,NA,NA,NA,NA,NA,NA,NA,NA,NA,NA,NA
85968,deep,flow.Sequence,5_0_1_0_3_0,NA,NA,skipped,NA,4528582.2,NA,NA,4528579.978,4528582.3,2023-07-13T16:18:22Z,4528597.076,NULL,Angreifer,mshambulizi,s,kitengo,tasinia,usafirishaji,NA,sdfdsf,NA,1,NA,NA,NA,NA,NA,NA,NA,NA,NA,NA,NA,NA,NA,NA,NA,NA,NA,NA,NA
85968,Shallow Question,html.Page,5_0_1_0_3_1_0,NA,NA,form submission,7213.1240000473,4528582.5,4528579.978,4528597.076,4535810.2,4535810.4000001,2023-07-13T16:18:29Z,4535823.875,NULL,Angreifer,mshambulizi,s,kitengo,tasinia,usafirishaji,mshambulizi,NA,NA,1,NA,NA,NA,NA,NA,NA,NA,NA,NA,NA,NA,NA,NA,NA,NA,NA,NA,NA,NA
85968,"""Richtig""-Screen",canvas.Screen,5_0_1_0_3_1_1,NA,NA,timeout,5013.1519999998,4535813.1000001,4535807.723,4535823.875,4540803.243,4540805.5,2023-07-13T16:18:34Z,4540837.027,NULL,Angreifer,mshambulizi,s,kitengo,tasinia,usafirishaji,NA,sdfdsf,1,1,NA,NA,NA,NA,NA,NA,NA,NA,NA,NA,NA,NA,NA,NA,NA,NA,NA,NA,NA
85968,"""Falsch""-Screen",canvas.Screen,5_0_1_0_3_1_2,NA,NA,skipped,NA,4540811.4000001,NA,NA,4540803.243,4540811.7,2023-07-13T16:18:34Z,4540837.027,NULL,Angreifer,mshambulizi,s,kitengo,tasinia,usafirishaji,NA,sdfdsf,NA,1,NA,NA,NA,NA,NA,NA,NA,NA,NA,NA,NA,NA,NA,NA,NA,NA,NA,NA,NA
85968,shallow,flow.Sequence,5_0_1_0_3_1,NA,NA,completion,12206.166999999,4528582.5,4528579.978,4528597.076,4540803.243,4540812.1000001,2023-07-13T16:18:34Z,4540837.027,NULL,Angreifer,mshambulizi,s,kitengo,tasinia,usafirishaji,NA,sdfdsf,NA,1,NA,NA,NA,NA,NA,NA,NA,NA,NA,NA,NA,NA,NA,NA,NA,NA,NA,NA,NA
85968,task,flow.Sequence,5_0_1_0_3,NA,NA,completion,12206.166999999,4528582.2,4528579.978,4528597.076,4540803.243,4540812.4000001,2023-07-13T16:18:34Z,4540837.027,NULL,Angreifer,mshambulizi,s,kitengo,tasinia,usafirishaji,NA,sdfdsf,NA,1,NA,NA,NA,NA,NA,NA,NA,NA,NA,NA,NA,NA,NA,NA,NA,NA,NA,NA,NA
85968,deep,flow.Sequence,5_0_1_0_4_0,NA,NA,skipped,NA,4540812.6000001,NA,NA,4540803.243,4540812.7,2023-07-13T16:18:34Z,4540837.027,NULL,Auftrag,uagizaji,s,ghanima,kuzingatia,msukani,NA,sdfdsf,NA,1,NA,NA,NA,NA,NA,NA,NA,NA,NA,NA,NA,NA,NA,NA,NA,NA,NA,NA,NA
85968,Shallow Question,html.Page,5_0_1_0_4_1_0,NA,NA,form submission,8207.8730000956,4540812.9000001,4540803.243,4540837.027,4549044.9000001,4549045.1000001,2023-07-13T16:18:43Z,4549046.363,NULL,Auftrag,uagizaji,s,ghanima,kuzingatia,msukani,kuzingatia,NA,NA,1,NA,NA,NA,NA,NA,NA,NA,NA,NA,NA,NA,NA,NA,NA,NA,NA,NA,NA,NA
85968,"""Richtig""-Screen",canvas.Screen,5_0_1_0_4_1_1,NA,NA,skipped,NA,4549047,NA,NA,4549044.9000001,4549047.2,2023-07-13T16:18:43Z,4549046.363,NULL,Auftrag,uagizaji,s,ghanima,kuzingatia,msukani,NA,sdfdsf,NA,1,NA,NA,NA,NA,NA,NA,NA,NA,NA,NA,NA,NA,NA,NA,NA,NA,NA,NA,NA
85968,"""Falsch""-Screen",canvas.Screen,5_0_1_0_4_1_2,NA,NA,timeout,4995.8610000005,4549047.8,4549029.712,4549046.363,4554026.143,4554027,2023-07-13T16:18:48Z,4554042.224,NULL,Auftrag,uagizaji,s,ghanima,kuzingatia,msukani,NA,sdfdsf,0,1,NA,NA,NA,NA,NA,NA,NA,NA,NA,NA,NA,NA,NA,NA,NA,NA,NA,NA,NA
85968,shallow,flow.Sequence,5_0_1_0_4_1,NA,NA,completion,13189.116,4540812.9000001,4540803.243,4540837.027,4554026.143,4554027.4000001,2023-07-13T16:18:48Z,4554042.224,NULL,Auftrag,uagizaji,s,ghanima,kuzingatia,msukani,NA,sdfdsf,NA,1,NA,NA,NA,NA,NA,NA,NA,NA,NA,NA,NA,NA,NA,NA,NA,NA,NA,NA,NA
85968,task,flow.Sequence,5_0_1_0_4,NA,NA,completion,13189.116,4540812.5,4540803.243,4540837.027,4554026.143,4554027.6000001,2023-07-13T16:18:48Z,4554042.224,NULL,Auftrag,uagizaji,s,ghanima,kuzingatia,msukani,NA,sdfdsf,NA,1,NA,NA,NA,NA,NA,NA,NA,NA,NA,NA,NA,NA,NA,NA,NA,NA,NA,NA,NA
85968,deep,flow.Sequence,5_0_1_0_5_0,NA,NA,skipped,NA,4554027.8,NA,NA,4554026.143,4554028,2023-07-13T16:18:48Z,4554042.224,NULL,Wettbewerb,ushindani,s,mapendezi,kichocheo,ubaguzi,NA,sdfdsf,NA,1,NA,NA,NA,NA,NA,NA,NA,NA,NA,NA,NA,NA,NA,NA,NA,NA,NA,NA,NA
85968,Shallow Question,html.Page,5_0_1_0_5_1_0,NA,NA,form submission,6697.7759999996,4554028.2,4554026.143,4554042.224,4560740,4560740.1000001,2023-07-13T16:18:54Z,4560753.378,NULL,Wettbewerb,ushindani,s,mapendezi,kichocheo,ubaguzi,ushindani,NA,NA,1,NA,NA,NA,NA,NA,NA,NA,NA,NA,NA,NA,NA,NA,NA,NA,NA,NA,NA,NA
85968,"""Richtig""-Screen",canvas.Screen,5_0_1_0_5_1_1,NA,NA,timeout,4996.0980000002,4560742.3,4560737.146,4560753.378,4565733.194,4565733.7,2023-07-13T16:18:59Z,4565749.476,NULL,Wettbewerb,ushindani,s,mapendezi,kichocheo,ubaguzi,NA,sdfdsf,1,1,NA,NA,NA,NA,NA,NA,NA,NA,NA,NA,NA,NA,NA,NA,NA,NA,NA,NA,NA
85968,"""Falsch""-Screen",canvas.Screen,5_0_1_0_5_1_2,NA,NA,skipped,NA,4565735.8,NA,NA,4565733.194,4565736,2023-07-13T16:18:59Z,4565749.476,NULL,Wettbewerb,ushindani,s,mapendezi,kichocheo,ubaguzi,NA,sdfdsf,NA,1,NA,NA,NA,NA,NA,NA,NA,NA,NA,NA,NA,NA,NA,NA,NA,NA,NA,NA,NA
85968,shallow,flow.Sequence,5_0_1_0_5_1,NA,NA,completion,11690.97,4554028.1000001,4554026.143,4554042.224,4565733.194,4565736.1000001,2023-07-13T16:18:59Z,4565749.476,NULL,Wettbewerb,ushindani,s,mapendezi,kichocheo,ubaguzi,NA,sdfdsf,NA,1,NA,NA,NA,NA,NA,NA,NA,NA,NA,NA,NA,NA,NA,NA,NA,NA,NA,NA,NA
85968,task,flow.Sequence,5_0_1_0_5,NA,NA,completion,11690.97,4554027.8,4554026.143,4554042.224,4565733.194,4565736.2,2023-07-13T16:18:59Z,4565749.476,NULL,Wettbewerb,ushindani,s,mapendezi,kichocheo,ubaguzi,NA,sdfdsf,NA,1,NA,NA,NA,NA,NA,NA,NA,NA,NA,NA,NA,NA,NA,NA,NA,NA,NA,NA,NA
85968,Deep Question,html.Page,5_0_1_0_6_0_0,NA,NA,form submission,9181.6240001433,4565736.3,4565733.194,4565749.476,4574931.1000001,4574931.3,2023-07-13T16:19:09Z,4574941.8,NULL,Schönheit,kirembo,d,NA,NA,NA,kikibato,NA,NA,1,NA,NA,NA,NA,NA,NA,NA,NA,NA,NA,NA,NA,NA,NA,NA,NA,NA,NA,NA
85968,"""Richtig""-Screen",canvas.Screen,5_0_1_0_6_0_1,NA,NA,skipped,NA,4574933.9000001,NA,NA,4574931.1000001,4574934.2,2023-07-13T16:19:09Z,4574941.8,NULL,Schönheit,kirembo,d,NA,NA,NA,NA,sdfdsf,NA,1,NA,NA,NA,NA,NA,NA,NA,NA,NA,NA,NA,NA,NA,NA,NA,NA,NA,NA,NA
85968,"""Falsch""-Screen",canvas.Screen,5_0_1_0_6_0_2,NA,NA,timeout,4996.574,4574935,4574925.161,4574941.8,4579921.097,4579922.1000001,2023-07-13T16:19:14Z,4579938.374,NULL,Schönheit,kirembo,d,NA,NA,NA,NA,sdfdsf,0,1,NA,NA,NA,NA,NA,NA,NA,NA,NA,NA,NA,NA,NA,NA,NA,NA,NA,NA,NA
85968,deep,flow.Sequence,5_0_1_0_6_0,NA,NA,completion,14171.621,4565736.3,4565733.194,4565749.476,4579921.097,4579922.4000001,2023-07-13T16:19:14Z,4579938.374,NULL,Schönheit,kirembo,d,NA,NA,NA,NA,sdfdsf,NA,1,NA,NA,NA,NA,NA,NA,NA,NA,NA,NA,NA,NA,NA,NA,NA,NA,NA,NA,NA
85968,shallow,flow.Sequence,5_0_1_0_6_1,NA,NA,skipped,NA,4579922.6000001,NA,NA,4579921.097,4579922.7,2023-07-13T16:19:14Z,4579938.374,NULL,Schönheit,kirembo,d,NA,NA,NA,NA,sdfdsf,NA,1,NA,NA,NA,NA,NA,NA,NA,NA,NA,NA,NA,NA,NA,NA,NA,NA,NA,NA,NA
