observation,sender,sender_type,sender_id,response,response_action,ended_on,duration,time_run,time_render,time_show,time_end,time_commit,timestamp,time_switch,german,swahili,enc,distractor1,distractor2,distractor3,response_2,x,correct,distractors,url_vp,url_sess,meta_labjs_version,meta_location,meta_user_agent,meta_platform,meta_language,meta_locale,meta_time_zone,meta_timezone_offset,meta_screen_width,meta_screen_height,meta_scroll_width,meta_scroll_height,meta_window_inner_width,meta_window_inner_height,meta_device_pixel_ratio,meta_labjs_build_flavor,meta_labjs_build_commit
94b3b,Introduction delayed retrieval,canvas.Screen,0,weiter,keypress(Space),response,4659.0230000954,832.69999980927,757.909,857.877,5516.9000000954,5518.1999998093,2023-08-11T09:40:09Z,5541.161,NA,NA,NA,NA,NA,NA,NA,NA,NA,NULL,222,4,20.2.4,https://neurocog.fernuni.ch/studies/vweber/sfink/delayed/index.html?vp=222&sess=4,"Mozilla/5.0 (Windows NT 10.0; Win64; x64) AppleWebKit/537.36 (KHTML, like Gecko) Chrome/115.0.21984.171 Safari/537.36 Avast/115.0.21984.171",Win32,en-GB,en-GB,Europe/Zurich,-120,1280,720,720,527,720,527,1.5,production,f5b4a49f956347addd546a832a3327688c2c0fef
94b3b,Deep Question,html.Page,1_0_0_0,NA,NA,form submission,13136.538999809,5518.5,5507.772,5541.161,18677.699999809,18678,2023-08-11T09:40:22Z,18708.168,Schock,mshtuko,d,biashara,kukataza,vichekesho,mshtuko,NA,NA,NULL,NA,NA,NA,NA,NA,NA,NA,NA,NA,NA,NA,NA,NA,NA,NA,NA,NA,NA,NA
94b3b,Save data screen,canvas.Screen,1_0_0_1,NA,NA,timeout,483.203,18678.800000191,18674.616,18708.168,19141.524,19142.400000095,2023-08-11T09:40:23Z,19191.371,Schock,mshtuko,d,biashara,kukataza,vichekesho,NA,NA,1,NULL,NA,NA,NA,NA,NA,NA,NA,NA,NA,NA,NA,NA,NA,NA,NA,NA,NA,NA,NA
94b3b,deep,flow.Sequence,1_0_0,NA,NA,completion,13600.363,5518.5,5507.772,5541.161,19141.524,19142.800000191,2023-08-11T09:40:23Z,19191.371,Schock,mshtuko,d,biashara,kukataza,vichekesho,NA,NA,NA,NULL,NA,NA,NA,NA,NA,NA,NA,NA,NA,NA,NA,NA,NA,NA,NA,NA,NA,NA,NA
94b3b,task,flow.Sequence,1_0,NA,NA,completion,13600.363,5518.5,5507.772,5541.161,19141.524,19142.800000191,2023-08-11T09:40:23Z,19191.371,Schock,mshtuko,d,biashara,kukataza,vichekesho,NA,NA,NA,NULL,NA,NA,NA,NA,NA,NA,NA,NA,NA,NA,NA,NA,NA,NA,NA,NA,NA,NA,NA
94b3b,Deep Question,html.Page,1_1_0_0,NA,NA,form submission,27259.629,19143,19141.524,19191.371,46451,46451.300000191,2023-08-11T09:40:50Z,46474.752,Verpackung,ufungaji,s,uhusiano,upimaji,uchunguzi,mshkuku,NA,NA,NULL,NA,NA,NA,NA,NA,NA,NA,NA,NA,NA,NA,NA,NA,NA,NA,NA,NA,NA,NA
94b3b,Save data screen,canvas.Screen,1_1_0_1,NA,NA,timeout,499.904,46452.199999809,46441.356,46474.752,46924.511,46925.599999904996,2023-08-11T09:40:51Z,46974.656,Verpackung,ufungaji,s,uhusiano,upimaji,uchunguzi,NA,NA,0,NULL,NA,NA,NA,NA,NA,NA,NA,NA,NA,NA,NA,NA,NA,NA,NA,NA,NA,NA,NA
94b3b,deep,flow.Sequence,1_1_0,NA,NA,completion,27733.14,19143,19141.524,19191.371,46924.511,46926,2023-08-11T09:40:51Z,46974.656,Verpackung,ufungaji,s,uhusiano,upimaji,uchunguzi,NA,NA,NA,NULL,NA,NA,NA,NA,NA,NA,NA,NA,NA,NA,NA,NA,NA,NA,NA,NA,NA,NA,NA
94b3b,task,flow.Sequence,1_1,NA,NA,completion,27733.14,19143,19141.524,19191.371,46924.511,46926.199999809,2023-08-11T09:40:51Z,46974.656,Verpackung,ufungaji,s,uhusiano,upimaji,uchunguzi,NA,NA,NA,NULL,NA,NA,NA,NA,NA,NA,NA,NA,NA,NA,NA,NA,NA,NA,NA,NA,NA,NA,NA
94b3b,Deep Question,html.Page,1_2_0_0,NA,NA,form submission,23150.244000095,46926.400000095004,46924.511,46974.656,70124.900000095,70125.199999809,2023-08-11T09:41:14Z,70157.741,Vergnügen,kichekesho,s,dubwana,mpanuko,mtesaji,kinyongo,NA,NA,NULL,NA,NA,NA,NA,NA,NA,NA,NA,NA,NA,NA,NA,NA,NA,NA,NA,NA,NA,NA
94b3b,Save data screen,canvas.Screen,1_2_0_1,NA,NA,timeout,516.842,70126.800000191,70124.322,70157.741,70624.713,70625.5,2023-08-11T09:41:14Z,70674.583,Vergnügen,kichekesho,s,dubwana,mpanuko,mtesaji,NA,NA,0,NULL,NA,NA,NA,NA,NA,NA,NA,NA,NA,NA,NA,NA,NA,NA,NA,NA,NA,NA,NA
94b3b,deep,flow.Sequence,1_2_0,NA,NA,completion,23650.057,46926.400000095004,46924.511,46974.656,70624.713,70625.800000191,2023-08-11T09:41:14Z,70674.583,Vergnügen,kichekesho,s,dubwana,mpanuko,mtesaji,NA,NA,NA,NULL,NA,NA,NA,NA,NA,NA,NA,NA,NA,NA,NA,NA,NA,NA,NA,NA,NA,NA,NA
94b3b,task,flow.Sequence,1_2,NA,NA,completion,23650.057,46926.300000191,46924.511,46974.656,70624.713,70626,2023-08-11T09:41:14Z,70674.583,Vergnügen,kichekesho,s,dubwana,mpanuko,mtesaji,NA,NA,NA,NULL,NA,NA,NA,NA,NA,NA,NA,NA,NA,NA,NA,NA,NA,NA,NA,NA,NA,NA,NA
94b3b,Deep Question,html.Page,1_3_0_0,NA,NA,form submission,31537.016999905,70626.099999905,70624.713,70674.583,102211.5999999,102211.9000001,2023-08-11T09:41:46Z,102241.22,Toleranz,kuvumiliana,d,maombolezo,ujasusi,mchekeshaji,tadisha,NA,NA,NULL,NA,NA,NA,NA,NA,NA,NA,NA,NA,NA,NA,NA,NA,NA,NA,NA,NA,NA,NA
94b3b,Save data screen,canvas.Screen,1_3_0_1,NA,NA,timeout,516.606,102213.69999981,102207.616,102241.22,102724.481,102725.30000019001,2023-08-11T09:41:47Z,102757.826,Toleranz,kuvumiliana,d,maombolezo,ujasusi,mchekeshaji,NA,NA,0,NULL,NA,NA,NA,NA,NA,NA,NA,NA,NA,NA,NA,NA,NA,NA,NA,NA,NA,NA,NA
94b3b,deep,flow.Sequence,1_3_0,NA,NA,completion,32049.898,70626.099999905,70624.713,70674.583,102724.481,102725.5,2023-08-11T09:41:47Z,102757.826,Toleranz,kuvumiliana,d,maombolezo,ujasusi,mchekeshaji,NA,NA,NA,NULL,NA,NA,NA,NA,NA,NA,NA,NA,NA,NA,NA,NA,NA,NA,NA,NA,NA,NA,NA
94b3b,task,flow.Sequence,1_3,NA,NA,completion,32049.898,70626,70624.713,70674.583,102724.481,102725.69999981,2023-08-11T09:41:47Z,102757.826,Toleranz,kuvumiliana,d,maombolezo,ujasusi,mchekeshaji,NA,NA,NA,NULL,NA,NA,NA,NA,NA,NA,NA,NA,NA,NA,NA,NA,NA,NA,NA,NA,NA,NA,NA
94b3b,Deep Question,html.Page,1_4_0_0,NA,NA,form submission,12944.773999905,102725.80000019001,102724.481,102757.826,115702.5999999,115702.9000001,2023-08-11T09:42:00Z,115740.926,Theorie,nadharia,d,ushungi,mkutano,uwakilishi,idhini,NA,NA,NULL,NA,NA,NA,NA,NA,NA,NA,NA,NA,NA,NA,NA,NA,NA,NA,NA,NA,NA,NA
94b3b,Save data screen,canvas.Screen,1_4_0_1,NA,NA,timeout,516.70599999999,115705.19999980999,115691.062,115740.926,116224.293,116224.9000001,2023-08-11T09:42:00Z,116257.632,Theorie,nadharia,d,ushungi,mkutano,uwakilishi,NA,NA,0,NULL,NA,NA,NA,NA,NA,NA,NA,NA,NA,NA,NA,NA,NA,NA,NA,NA,NA,NA,NA
94b3b,deep,flow.Sequence,1_4_0,NA,NA,completion,13466.467,102725.80000019001,102724.481,102757.826,116224.293,116225.0999999,2023-08-11T09:42:00Z,116257.632,Theorie,nadharia,d,ushungi,mkutano,uwakilishi,NA,NA,NA,NULL,NA,NA,NA,NA,NA,NA,NA,NA,NA,NA,NA,NA,NA,NA,NA,NA,NA,NA,NA
94b3b,task,flow.Sequence,1_4,NA,NA,completion,13466.467,102725.80000019001,102724.481,102757.826,116224.293,116225.19999981,2023-08-11T09:42:00Z,116257.632,Theorie,nadharia,d,ushungi,mkutano,uwakilishi,NA,NA,NA,NULL,NA,NA,NA,NA,NA,NA,NA,NA,NA,NA,NA,NA,NA,NA,NA,NA,NA,NA,NA
94b3b,Deep Question,html.Page,1_5_0_0,NA,NA,form submission,9604.9679999046,116225.4000001,116224.293,116257.632,125862.5999999,125862.80000019001,2023-08-11T09:42:10Z,125941.55,Inhalt,yaliyomo,s,kishawishi,hifadhi,kutembea,kerbato,NA,NA,NULL,NA,NA,NA,NA,NA,NA,NA,NA,NA,NA,NA,NA,NA,NA,NA,NA,NA,NA,NA
94b3b,Save data screen,canvas.Screen,1_5_0_1,NA,NA,timeout,466.52,125864.80000019001,125907.755,125941.55,126374.177,126375,2023-08-11T09:42:10Z,126408.07,Inhalt,yaliyomo,s,kishawishi,hifadhi,kutembea,NA,NA,0,NULL,NA,NA,NA,NA,NA,NA,NA,NA,NA,NA,NA,NA,NA,NA,NA,NA,NA,NA,NA
94b3b,deep,flow.Sequence,1_5_0,NA,NA,completion,10116.545,116225.4000001,116224.293,116257.632,126374.177,126375.4000001,2023-08-11T09:42:10Z,126408.07,Inhalt,yaliyomo,s,kishawishi,hifadhi,kutembea,NA,NA,NA,NULL,NA,NA,NA,NA,NA,NA,NA,NA,NA,NA,NA,NA,NA,NA,NA,NA,NA,NA,NA
94b3b,task,flow.Sequence,1_5,NA,NA,completion,10116.545,116225.4000001,116224.293,116257.632,126374.177,126375.5,2023-08-11T09:42:10Z,126408.07,Inhalt,yaliyomo,s,kishawishi,hifadhi,kutembea,NA,NA,NA,NULL,NA,NA,NA,NA,NA,NA,NA,NA,NA,NA,NA,NA,NA,NA,NA,NA,NA,NA,NA
94b3b,Deep Question,html.Page,1_6_0_0,NA,NA,form submission,8258.2300001907,126375.9000001,126374.177,126408.07,134666.30000019,134666.5999999,2023-08-11T09:42:18Z,134707.805,Tester,wanaojaribu,s,sherti,sihiri,mlipuko,dshili,NA,NA,NULL,NA,NA,NA,NA,NA,NA,NA,NA,NA,NA,NA,NA,NA,NA,NA,NA,NA,NA,NA
94b3b,Save data screen,canvas.Screen,1_6_0_1,NA,NA,timeout,516.36199999999,134668.4000001,134657.926,134707.805,135190.825,135191.4000001,2023-08-11T09:42:19Z,135224.167,Tester,wanaojaribu,s,sherti,sihiri,mlipuko,NA,NA,0,NULL,NA,NA,NA,NA,NA,NA,NA,NA,NA,NA,NA,NA,NA,NA,NA,NA,NA,NA,NA
94b3b,deep,flow.Sequence,1_6_0,NA,NA,completion,8782.755,126375.80000019001,126374.177,126408.07,135190.825,135191.5999999,2023-08-11T09:42:19Z,135224.167,Tester,wanaojaribu,s,sherti,sihiri,mlipuko,NA,NA,NA,NULL,NA,NA,NA,NA,NA,NA,NA,NA,NA,NA,NA,NA,NA,NA,NA,NA,NA,NA,NA
94b3b,task,flow.Sequence,1_6,NA,NA,completion,8782.755,126375.80000019001,126374.177,126408.07,135190.825,135191.80000019,2023-08-11T09:42:19Z,135224.167,Tester,wanaojaribu,s,sherti,sihiri,mlipuko,NA,NA,NA,NULL,NA,NA,NA,NA,NA,NA,NA,NA,NA,NA,NA,NA,NA,NA,NA,NA,NA,NA,NA
94b3b,Deep Question,html.Page,1_7_0_0,NA,NA,form submission,7635.5329998093,135191.9000001,135190.825,135224.167,142859.69999981,142859.9000001,2023-08-11T09:42:27Z,142890.766,Schüler,mwanafunzi,s,mwekezaji,matumizi,uaminifu,kilikili,NA,NA,NULL,NA,NA,NA,NA,NA,NA,NA,NA,NA,NA,NA,NA,NA,NA,NA,NA,NA,NA,NA
94b3b,Save data screen,canvas.Screen,1_7_0_1,NA,NA,timeout,483.601,142861.69999981,142857.354,142890.766,143341.025,143341.69999981,2023-08-11T09:42:27Z,143374.367,Schüler,mwanafunzi,s,mwekezaji,matumizi,uaminifu,NA,NA,0,NULL,NA,NA,NA,NA,NA,NA,NA,NA,NA,NA,NA,NA,NA,NA,NA,NA,NA,NA,NA
94b3b,deep,flow.Sequence,1_7_0,NA,NA,completion,8116.858,135191.9000001,135190.825,135224.167,143341.025,143341.9000001,2023-08-11T09:42:27Z,143374.367,Schüler,mwanafunzi,s,mwekezaji,matumizi,uaminifu,NA,NA,NA,NULL,NA,NA,NA,NA,NA,NA,NA,NA,NA,NA,NA,NA,NA,NA,NA,NA,NA,NA,NA
94b3b,task,flow.Sequence,1_7,NA,NA,completion,8116.858,135191.9000001,135190.825,135224.167,143341.025,143342.0999999,2023-08-11T09:42:27Z,143374.367,Schüler,mwanafunzi,s,mwekezaji,matumizi,uaminifu,NA,NA,NA,NULL,NA,NA,NA,NA,NA,NA,NA,NA,NA,NA,NA,NA,NA,NA,NA,NA,NA,NA,NA
94b3b,Deep Question,html.Page,1_8_0_0,NA,NA,form submission,15635.933000191,143342.0999999,143341.025,143374.367,159010.30000019,159010.5,2023-08-11T09:42:43Z,159057.645,Notfall,dharura,s,rairai,malalamiko,ahueni,ladhubu,NA,NA,NULL,NA,NA,NA,NA,NA,NA,NA,NA,NA,NA,NA,NA,NA,NA,NA,NA,NA,NA,NA
94b3b,Save data screen,canvas.Screen,1_8_0_1,NA,NA,timeout,516.421,159012.4000001,159007.662,159057.645,159524.14,159524.9000001,2023-08-11T09:42:43Z,159574.066,Notfall,dharura,s,rairai,malalamiko,ahueni,NA,NA,0,NULL,NA,NA,NA,NA,NA,NA,NA,NA,NA,NA,NA,NA,NA,NA,NA,NA,NA,NA,NA
94b3b,deep,flow.Sequence,1_8_0,NA,NA,completion,16149.773,143342.0999999,143341.025,143374.367,159524.14,159525.0999999,2023-08-11T09:42:43Z,159574.066,Notfall,dharura,s,rairai,malalamiko,ahueni,NA,NA,NA,NULL,NA,NA,NA,NA,NA,NA,NA,NA,NA,NA,NA,NA,NA,NA,NA,NA,NA,NA,NA
94b3b,task,flow.Sequence,1_8,NA,NA,completion,16149.773,143342.0999999,143341.025,143374.367,159524.14,159525.19999981,2023-08-11T09:42:43Z,159574.066,Notfall,dharura,s,rairai,malalamiko,ahueni,NA,NA,NA,NULL,NA,NA,NA,NA,NA,NA,NA,NA,NA,NA,NA,NA,NA,NA,NA,NA,NA,NA,NA
94b3b,Deep Question,html.Page,1_9_0_0,NA,NA,form submission,16686.133999809,159525.5,159524.14,159574.066,176260.19999981,176260.5,2023-08-11T09:43:00Z,176307.598,Ergänzung,kijalizo,d,ulaghai,mustarehe,matangazo,angahewa,NA,NA,NULL,NA,NA,NA,NA,NA,NA,NA,NA,NA,NA,NA,NA,NA,NA,NA,NA,NA,NA,NA
94b3b,Save data screen,canvas.Screen,1_9_0_1,NA,NA,timeout,466.44899999999,176262.30000019,176257.725,176307.598,176740.665,176741.30000019,2023-08-11T09:43:01Z,176774.047,Ergänzung,kijalizo,d,ulaghai,mustarehe,matangazo,NA,NA,0,NULL,NA,NA,NA,NA,NA,NA,NA,NA,NA,NA,NA,NA,NA,NA,NA,NA,NA,NA,NA
94b3b,deep,flow.Sequence,1_9_0,NA,NA,completion,17166.599,159525.4000001,159524.14,159574.066,176740.665,176741.69999981,2023-08-11T09:43:01Z,176774.047,Ergänzung,kijalizo,d,ulaghai,mustarehe,matangazo,NA,NA,NA,NULL,NA,NA,NA,NA,NA,NA,NA,NA,NA,NA,NA,NA,NA,NA,NA,NA,NA,NA,NA
94b3b,task,flow.Sequence,1_9,NA,NA,completion,17166.599,159525.30000019,159524.14,159574.066,176740.665,176741.9000001,2023-08-11T09:43:01Z,176774.047,Ergänzung,kijalizo,d,ulaghai,mustarehe,matangazo,NA,NA,NA,NULL,NA,NA,NA,NA,NA,NA,NA,NA,NA,NA,NA,NA,NA,NA,NA,NA,NA,NA,NA
94b3b,Deep Question,html.Page,1_10_0_0,NA,NA,form submission,21352.853000095,176742.19999981,176740.665,176774.047,198126.9000001,198127.19999981,2023-08-11T09:43:22Z,198174.145,Fenster,dirisha,d,walakini,tasawari,maarifa,dirisha,NA,NA,NULL,NA,NA,NA,NA,NA,NA,NA,NA,NA,NA,NA,NA,NA,NA,NA,NA,NA,NA,NA
94b3b,Save data screen,canvas.Screen,1_10_0_1,NA,NA,timeout,516.524,198129,198124.411,198174.145,198640.945,198641.5999999,2023-08-11T09:43:22Z,198690.669,Fenster,dirisha,d,walakini,tasawari,maarifa,NA,NA,1,NULL,NA,NA,NA,NA,NA,NA,NA,NA,NA,NA,NA,NA,NA,NA,NA,NA,NA,NA,NA
94b3b,deep,flow.Sequence,1_10_0,NA,NA,completion,21866.898,176742.0999999,176740.665,176774.047,198640.945,198641.80000019,2023-08-11T09:43:22Z,198690.669,Fenster,dirisha,d,walakini,tasawari,maarifa,NA,NA,NA,NULL,NA,NA,NA,NA,NA,NA,NA,NA,NA,NA,NA,NA,NA,NA,NA,NA,NA,NA,NA
94b3b,task,flow.Sequence,1_10,NA,NA,completion,21866.898,176742,176740.665,176774.047,198640.945,198642,2023-08-11T09:43:22Z,198690.669,Fenster,dirisha,d,walakini,tasawari,maarifa,NA,NA,NA,NULL,NA,NA,NA,NA,NA,NA,NA,NA,NA,NA,NA,NA,NA,NA,NA,NA,NA,NA,NA
94b3b,Deep Question,html.Page,1_11_0_0,NA,NA,form submission,18200.731000095,198642.19999981,198640.945,198690.669,216891.4000001,216891.69999981,2023-08-11T09:43:41Z,216940.548,Vermutung,udhanifu,s,haramia,tikisho,itifaki,kukutada,NA,NA,NULL,NA,NA,NA,NA,NA,NA,NA,NA,NA,NA,NA,NA,NA,NA,NA,NA,NA,NA,NA
94b3b,Save data screen,canvas.Screen,1_11_0_1,NA,NA,timeout,500.34699999998,216893.5,216890.876,216940.548,217407.554,217408.19999981,2023-08-11T09:43:41Z,217440.895,Vermutung,udhanifu,s,haramia,tikisho,itifaki,NA,NA,0,NULL,NA,NA,NA,NA,NA,NA,NA,NA,NA,NA,NA,NA,NA,NA,NA,NA,NA,NA,NA
94b3b,deep,flow.Sequence,1_11_0,NA,NA,completion,18716.885,198642.19999981,198640.945,198690.669,217407.554,217408.4000001,2023-08-11T09:43:41Z,217440.895,Vermutung,udhanifu,s,haramia,tikisho,itifaki,NA,NA,NA,NULL,NA,NA,NA,NA,NA,NA,NA,NA,NA,NA,NA,NA,NA,NA,NA,NA,NA,NA,NA
94b3b,task,flow.Sequence,1_11,NA,NA,completion,18716.885,198642.0999999,198640.945,198690.669,217407.554,217408.69999981,2023-08-11T09:43:41Z,217440.895,Vermutung,udhanifu,s,haramia,tikisho,itifaki,NA,NA,NA,NULL,NA,NA,NA,NA,NA,NA,NA,NA,NA,NA,NA,NA,NA,NA,NA,NA,NA,NA,NA
94b3b,Deep Question,html.Page,1_12_0_0,NA,NA,form submission,4541.0050000954,217408.80000019,217407.554,217440.895,221981.9000001,221982.0999999,2023-08-11T09:43:46Z,222040.89,Schlange,foleni,d,uvumilivu,uteuzi,muuzaji,foleni,NA,NA,NULL,NA,NA,NA,NA,NA,NA,NA,NA,NA,NA,NA,NA,NA,NA,NA,NA,NA,NA,NA
94b3b,Save data screen,canvas.Screen,1_12_0_1,NA,NA,timeout,532.99699999997,221983.9000001,221990.855,222040.89,222540.528,222541.19999981,2023-08-11T09:43:46Z,222573.887,Schlange,foleni,d,uvumilivu,uteuzi,muuzaji,NA,NA,1,NULL,NA,NA,NA,NA,NA,NA,NA,NA,NA,NA,NA,NA,NA,NA,NA,NA,NA,NA,NA
94b3b,deep,flow.Sequence,1_12_0,NA,NA,completion,5099.633,217408.80000019,217407.554,217440.895,222540.528,222541.4000001,2023-08-11T09:43:46Z,222573.887,Schlange,foleni,d,uvumilivu,uteuzi,muuzaji,NA,NA,NA,NULL,NA,NA,NA,NA,NA,NA,NA,NA,NA,NA,NA,NA,NA,NA,NA,NA,NA,NA,NA
94b3b,task,flow.Sequence,1_12,NA,NA,completion,5099.633,217408.69999981,217407.554,217440.895,222540.528,222541.5,2023-08-11T09:43:46Z,222573.887,Schlange,foleni,d,uvumilivu,uteuzi,muuzaji,NA,NA,NA,NULL,NA,NA,NA,NA,NA,NA,NA,NA,NA,NA,NA,NA,NA,NA,NA,NA,NA,NA,NA
94b3b,Deep Question,html.Page,1_13_0_0,NA,NA,form submission,30130.413000191,222541.5999999,222540.528,222573.887,252704.30000019,252704.5999999,2023-08-11T09:44:17Z,252740.753,Spionage,upelelezi,d,maslahi,utokazo,magangao,upelelezo,NA,NA,NULL,NA,NA,NA,NA,NA,NA,NA,NA,NA,NA,NA,NA,NA,NA,NA,NA,NA,NA,NA
94b3b,Save data screen,canvas.Screen,1_13_0_1,NA,NA,timeout,499.91899999999,252706.30000019,252690.792,252740.753,253190.765,253191.4000001,2023-08-11T09:44:17Z,253240.672,Spionage,upelelezi,d,maslahi,utokazo,magangao,NA,NA,0,NULL,NA,NA,NA,NA,NA,NA,NA,NA,NA,NA,NA,NA,NA,NA,NA,NA,NA,NA,NA
94b3b,deep,flow.Sequence,1_13_0,NA,NA,completion,30616.878,222541.5999999,222540.528,222573.887,253190.765,253191.69999981,2023-08-11T09:44:17Z,253240.672,Spionage,upelelezi,d,maslahi,utokazo,magangao,NA,NA,NA,NULL,NA,NA,NA,NA,NA,NA,NA,NA,NA,NA,NA,NA,NA,NA,NA,NA,NA,NA,NA
94b3b,task,flow.Sequence,1_13,NA,NA,completion,30616.878,222541.5999999,222540.528,222573.887,253190.765,253191.9000001,2023-08-11T09:44:17Z,253240.672,Spionage,upelelezi,d,maslahi,utokazo,magangao,NA,NA,NA,NULL,NA,NA,NA,NA,NA,NA,NA,NA,NA,NA,NA,NA,NA,NA,NA,NA,NA,NA,NA
94b3b,Deep Question,html.Page,1_14_0_0,NA,NA,form submission,8044.1280001907,253192,253190.765,253240.672,261284.80000019,261285,2023-08-11T09:44:25Z,261323.938,Wohlstand,mafanikio,d,chimbuko,kumbuko,mapwaji,madgsa,NA,NA,NULL,NA,NA,NA,NA,NA,NA,NA,NA,NA,NA,NA,NA,NA,NA,NA,NA,NA,NA,NA
94b3b,Save data screen,canvas.Screen,1_14_0_1,NA,NA,timeout,499.932,261286.80000019,261273.845,261323.938,261774.073,261774.5999999,2023-08-11T09:44:26Z,261823.87,Wohlstand,mafanikio,d,chimbuko,kumbuko,mapwaji,NA,NA,0,NULL,NA,NA,NA,NA,NA,NA,NA,NA,NA,NA,NA,NA,NA,NA,NA,NA,NA,NA,NA
94b3b,deep,flow.Sequence,1_14_0,NA,NA,completion,8533.401,253192,253190.765,253240.672,261774.073,261774.9000001,2023-08-11T09:44:26Z,261823.87,Wohlstand,mafanikio,d,chimbuko,kumbuko,mapwaji,NA,NA,NA,NULL,NA,NA,NA,NA,NA,NA,NA,NA,NA,NA,NA,NA,NA,NA,NA,NA,NA,NA,NA
94b3b,task,flow.Sequence,1_14,NA,NA,completion,8533.401,253192,253190.765,253240.672,261774.073,261775,2023-08-11T09:44:26Z,261823.87,Wohlstand,mafanikio,d,chimbuko,kumbuko,mapwaji,NA,NA,NA,NULL,NA,NA,NA,NA,NA,NA,NA,NA,NA,NA,NA,NA,NA,NA,NA,NA,NA,NA,NA
94b3b,Deep Question,html.Page,1_15_0_0,NA,NA,form submission,11759.729999905,261775.19999981,261774.073,261823.87,273583.5999999,273583.9000001,2023-08-11T09:44:37Z,273623.709,Hoffnung,matarajio,s,kutaalamika,uratibu,mvumbuzi,kubewo,NA,NA,NULL,NA,NA,NA,NA,NA,NA,NA,NA,NA,NA,NA,NA,NA,NA,NA,NA,NA,NA,NA
94b3b,Save data screen,canvas.Screen,1_15_0_1,NA,NA,timeout,516.72500000003,273586.0999999,273573.786,273623.709,274107.021,274107.4000001,2023-08-11T09:44:38Z,274140.434,Hoffnung,matarajio,s,kutaalamika,uratibu,mvumbuzi,NA,NA,0,NULL,NA,NA,NA,NA,NA,NA,NA,NA,NA,NA,NA,NA,NA,NA,NA,NA,NA,NA,NA
94b3b,deep,flow.Sequence,1_15_0,NA,NA,completion,12283.151,261775.19999981,261774.073,261823.87,274107.021,274107.5999999,2023-08-11T09:44:38Z,274140.434,Hoffnung,matarajio,s,kutaalamika,uratibu,mvumbuzi,NA,NA,NA,NULL,NA,NA,NA,NA,NA,NA,NA,NA,NA,NA,NA,NA,NA,NA,NA,NA,NA,NA,NA
94b3b,task,flow.Sequence,1_15,NA,NA,completion,12283.151,261775.19999981,261774.073,261823.87,274107.021,274107.69999981,2023-08-11T09:44:38Z,274140.434,Hoffnung,matarajio,s,kutaalamika,uratibu,mvumbuzi,NA,NA,NA,NULL,NA,NA,NA,NA,NA,NA,NA,NA,NA,NA,NA,NA,NA,NA,NA,NA,NA,NA,NA
94b3b,retrieval block 1 (cued recall),flow.Loop,1,NA,NA,completion,268565.86,5518.5,5507.772,5541.161,274107.021,274107.9000001,2023-08-11T09:44:38Z,274140.434,NA,NA,NA,NA,NA,NA,NA,NA,NA,NULL,NA,NA,NA,NA,NA,NA,NA,NA,NA,NA,NA,NA,NA,NA,NA,NA,NA,NA,NA
94b3b,Shallow Question,html.Page,2_0_0_0,NA,NA,form submission,5706.066,274108,274107.021,274140.434,279846.5,279846.80000019,2023-08-11T09:44:44Z,279890.428,Tester,wanaojaribu,s,sherti,sihiri,mlipuko,wanaojaribu,NA,NA,"c(""distractor1"", ""distractor2"", ""distractor3"")",NA,NA,NA,NA,NA,NA,NA,NA,NA,NA,NA,NA,NA,NA,NA,NA,NA,NA,NA
94b3b,Save data screen,canvas.Screen,2_0_0_1,NA,NA,timeout,466.62400000001,279849.19999981,279840.907,279890.428,280323.702,280324.4000001,2023-08-11T09:44:44Z,280357.052,Tester,wanaojaribu,s,sherti,sihiri,mlipuko,NA,NA,1,"c(""distractor1"", ""distractor2"", ""distractor3"")",NA,NA,NA,NA,NA,NA,NA,NA,NA,NA,NA,NA,NA,NA,NA,NA,NA,NA,NA
94b3b,shallow,flow.Sequence,2_0_0,NA,NA,completion,6183.268,274108,274107.021,274140.434,280323.702,280324.80000019,2023-08-11T09:44:44Z,280357.052,Tester,wanaojaribu,s,sherti,sihiri,mlipuko,NA,NA,NA,"c(""distractor1"", ""distractor2"", ""distractor3"")",NA,NA,NA,NA,NA,NA,NA,NA,NA,NA,NA,NA,NA,NA,NA,NA,NA,NA,NA
94b3b,task,flow.Sequence,2_0,NA,NA,completion,6183.268,274107.9000001,274107.021,274140.434,280323.702,280325,2023-08-11T09:44:44Z,280357.052,Tester,wanaojaribu,s,sherti,sihiri,mlipuko,NA,NA,NA,"c(""distractor1"", ""distractor2"", ""distractor3"")",NA,NA,NA,NA,NA,NA,NA,NA,NA,NA,NA,NA,NA,NA,NA,NA,NA,NA,NA
94b3b,Shallow Question,html.Page,2_1_0_0,NA,NA,form submission,4120.448,280325.19999981,280323.702,280357.052,284477.5,284477.9000001,2023-08-11T09:44:48Z,284523.723,Vermutung,udhanifu,s,haramia,tikisho,itifaki,udhanifu,NA,NA,"c(""distractor1"", ""distractor2"", ""distractor3"")",NA,NA,NA,NA,NA,NA,NA,NA,NA,NA,NA,NA,NA,NA,NA,NA,NA,NA,NA
94b3b,Save data screen,canvas.Screen,2_1_0_1,NA,NA,timeout,516.685,284480.9000001,284473.972,284523.723,284990.396,284991,2023-08-11T09:44:49Z,285040.408,Vermutung,udhanifu,s,haramia,tikisho,itifaki,NA,NA,1,"c(""distractor1"", ""distractor2"", ""distractor3"")",NA,NA,NA,NA,NA,NA,NA,NA,NA,NA,NA,NA,NA,NA,NA,NA,NA,NA,NA
94b3b,shallow,flow.Sequence,2_1_0,NA,NA,completion,4633.344,280325.0999999,280323.702,280357.052,284990.396,284991.19999981,2023-08-11T09:44:49Z,285040.408,Vermutung,udhanifu,s,haramia,tikisho,itifaki,NA,NA,NA,"c(""distractor1"", ""distractor2"", ""distractor3"")",NA,NA,NA,NA,NA,NA,NA,NA,NA,NA,NA,NA,NA,NA,NA,NA,NA,NA,NA
94b3b,task,flow.Sequence,2_1,NA,NA,completion,4633.344,280325.0999999,280323.702,280357.052,284990.396,284991.30000019,2023-08-11T09:44:49Z,285040.408,Vermutung,udhanifu,s,haramia,tikisho,itifaki,NA,NA,NA,"c(""distractor1"", ""distractor2"", ""distractor3"")",NA,NA,NA,NA,NA,NA,NA,NA,NA,NA,NA,NA,NA,NA,NA,NA,NA,NA,NA
94b3b,Shallow Question,html.Page,2_2_0_0,NA,NA,form submission,9468.6919999046,284991.5,284990.396,285040.408,294509.0999999,294509.30000019,2023-08-11T09:44:58Z,294556.955,Hoffnung,matarajio,s,kutaalamika,uratibu,mvumbuzi,matarajio,NA,NA,"c(""distractor1"", ""distractor2"", ""distractor3"")",NA,NA,NA,NA,NA,NA,NA,NA,NA,NA,NA,NA,NA,NA,NA,NA,NA,NA,NA
94b3b,Save data screen,canvas.Screen,2_2_0_1,NA,NA,timeout,500.04699999996,294511.4000001,294507.171,294556.955,295007.033,295007.5,2023-08-11T09:44:59Z,295057.002,Hoffnung,matarajio,s,kutaalamika,uratibu,mvumbuzi,NA,NA,1,"c(""distractor1"", ""distractor2"", ""distractor3"")",NA,NA,NA,NA,NA,NA,NA,NA,NA,NA,NA,NA,NA,NA,NA,NA,NA,NA,NA
94b3b,shallow,flow.Sequence,2_2_0,NA,NA,completion,9966.625,284991.5,284990.396,285040.408,295007.033,295007.69999981,2023-08-11T09:44:59Z,295057.002,Hoffnung,matarajio,s,kutaalamika,uratibu,mvumbuzi,NA,NA,NA,"c(""distractor1"", ""distractor2"", ""distractor3"")",NA,NA,NA,NA,NA,NA,NA,NA,NA,NA,NA,NA,NA,NA,NA,NA,NA,NA,NA
94b3b,task,flow.Sequence,2_2,NA,NA,completion,9966.625,284991.4000001,284990.396,285040.408,295007.033,295007.80000019,2023-08-11T09:44:59Z,295057.002,Hoffnung,matarajio,s,kutaalamika,uratibu,mvumbuzi,NA,NA,NA,"c(""distractor1"", ""distractor2"", ""distractor3"")",NA,NA,NA,NA,NA,NA,NA,NA,NA,NA,NA,NA,NA,NA,NA,NA,NA,NA,NA
94b3b,Shallow Question,html.Page,2_3_0_0,NA,NA,form submission,2314.998,295007.9000001,295007.033,295057.002,297372,297372.0999999,2023-08-11T09:45:01Z,297390.385,Fenster,dirisha,d,walakini,tasawari,maarifa,dirisha,NA,NA,"c(""distractor1"", ""distractor2"", ""distractor3"")",NA,NA,NA,NA,NA,NA,NA,NA,NA,NA,NA,NA,NA,NA,NA,NA,NA,NA,NA
94b3b,Save data screen,canvas.Screen,2_3_0_1,NA,NA,timeout,516.53399999999,297372.5,297356.923,297390.385,297857.005,297857.4000001,2023-08-11T09:45:02Z,297906.919,Fenster,dirisha,d,walakini,tasawari,maarifa,NA,NA,1,"c(""distractor1"", ""distractor2"", ""distractor3"")",NA,NA,NA,NA,NA,NA,NA,NA,NA,NA,NA,NA,NA,NA,NA,NA,NA,NA,NA
94b3b,shallow,flow.Sequence,2_3_0,NA,NA,completion,2800.003,295007.9000001,295007.033,295057.002,297857.005,297857.5,2023-08-11T09:45:02Z,297906.919,Fenster,dirisha,d,walakini,tasawari,maarifa,NA,NA,NA,"c(""distractor1"", ""distractor2"", ""distractor3"")",NA,NA,NA,NA,NA,NA,NA,NA,NA,NA,NA,NA,NA,NA,NA,NA,NA,NA,NA
94b3b,task,flow.Sequence,2_3,NA,NA,completion,2800.003,295007.9000001,295007.033,295057.002,297857.005,297857.5999999,2023-08-11T09:45:02Z,297906.919,Fenster,dirisha,d,walakini,tasawari,maarifa,NA,NA,NA,"c(""distractor1"", ""distractor2"", ""distractor3"")",NA,NA,NA,NA,NA,NA,NA,NA,NA,NA,NA,NA,NA,NA,NA,NA,NA,NA,NA
94b3b,Shallow Question,html.Page,2_4_0_0,NA,NA,form submission,2484.2809998093,297857.5999999,297857.005,297906.919,300391.19999981,300391.5,2023-08-11T09:45:04Z,300413.074,Schock,mshtuko,d,biashara,kukataza,vichekesho,mshtuko,NA,NA,"c(""distractor1"", ""distractor2"", ""distractor3"")",NA,NA,NA,NA,NA,NA,NA,NA,NA,NA,NA,NA,NA,NA,NA,NA,NA,NA,NA
94b3b,Save data screen,canvas.Screen,2_4_0_1,NA,NA,timeout,494.02299999999,300392.5,300374.301,300413.074,300873.679,300874.4000001,2023-08-11T09:45:05Z,300907.097,Schock,mshtuko,d,biashara,kukataza,vichekesho,NA,NA,1,"c(""distractor1"", ""distractor2"", ""distractor3"")",NA,NA,NA,NA,NA,NA,NA,NA,NA,NA,NA,NA,NA,NA,NA,NA,NA,NA,NA
94b3b,shallow,flow.Sequence,2_4_0,NA,NA,completion,2966.76,297857.5999999,297857.005,297906.919,300873.679,300874.5999999,2023-08-11T09:45:05Z,300907.097,Schock,mshtuko,d,biashara,kukataza,vichekesho,NA,NA,NA,"c(""distractor1"", ""distractor2"", ""distractor3"")",NA,NA,NA,NA,NA,NA,NA,NA,NA,NA,NA,NA,NA,NA,NA,NA,NA,NA,NA
94b3b,task,flow.Sequence,2_4,NA,NA,completion,2966.76,297857.5999999,297857.005,297906.919,300873.679,300874.69999981,2023-08-11T09:45:05Z,300907.097,Schock,mshtuko,d,biashara,kukataza,vichekesho,NA,NA,NA,"c(""distractor1"", ""distractor2"", ""distractor3"")",NA,NA,NA,NA,NA,NA,NA,NA,NA,NA,NA,NA,NA,NA,NA,NA,NA,NA,NA
94b3b,Shallow Question,html.Page,2_5_0_0,NA,NA,form submission,10491.303000095,300875,300873.679,300907.097,311398.4000001,311398.5999999,2023-08-11T09:45:15Z,311440.218,Inhalt,yaliyomo,s,kishawishi,hifadhi,kutembea,yaliyomo,NA,NA,"c(""distractor1"", ""distractor2"", ""distractor3"")",NA,NA,NA,NA,NA,NA,NA,NA,NA,NA,NA,NA,NA,NA,NA,NA,NA,NA,NA
94b3b,Save data screen,canvas.Screen,2_5_0_1,NA,NA,timeout,466.73600000003,311400.30000019,311390.699,311440.218,311873.554,311873.9000001,2023-08-11T09:45:16Z,311906.954,Inhalt,yaliyomo,s,kishawishi,hifadhi,kutembea,NA,NA,1,"c(""distractor1"", ""distractor2"", ""distractor3"")",NA,NA,NA,NA,NA,NA,NA,NA,NA,NA,NA,NA,NA,NA,NA,NA,NA,NA,NA
94b3b,shallow,flow.Sequence,2_5_0,NA,NA,completion,10966.457,300874.9000001,300873.679,300907.097,311873.554,311874.0999999,2023-08-11T09:45:16Z,311906.954,Inhalt,yaliyomo,s,kishawishi,hifadhi,kutembea,NA,NA,NA,"c(""distractor1"", ""distractor2"", ""distractor3"")",NA,NA,NA,NA,NA,NA,NA,NA,NA,NA,NA,NA,NA,NA,NA,NA,NA,NA,NA
94b3b,task,flow.Sequence,2_5,NA,NA,completion,10966.457,300874.9000001,300873.679,300907.097,311873.554,311874.0999999,2023-08-11T09:45:16Z,311906.954,Inhalt,yaliyomo,s,kishawishi,hifadhi,kutembea,NA,NA,NA,"c(""distractor1"", ""distractor2"", ""distractor3"")",NA,NA,NA,NA,NA,NA,NA,NA,NA,NA,NA,NA,NA,NA,NA,NA,NA,NA,NA
94b3b,Shallow Question,html.Page,2_6_0_0,NA,NA,form submission,3557.6459999046,311874.19999981,311873.554,311906.954,315464.5999999,315464.9000001,2023-08-11T09:45:19Z,315507.239,Notfall,dharura,s,rairai,malalamiko,ahueni,dharura,NA,NA,"c(""distractor1"", ""distractor2"", ""distractor3"")",NA,NA,NA,NA,NA,NA,NA,NA,NA,NA,NA,NA,NA,NA,NA,NA,NA,NA,NA
94b3b,Save data screen,canvas.Screen,2_6_0_1,NA,NA,timeout,466.37300000002,315468.4000001,315457.246,315507.239,315940.228,315940.80000019,2023-08-11T09:45:20Z,315973.612,Notfall,dharura,s,rairai,malalamiko,ahueni,NA,NA,1,"c(""distractor1"", ""distractor2"", ""distractor3"")",NA,NA,NA,NA,NA,NA,NA,NA,NA,NA,NA,NA,NA,NA,NA,NA,NA,NA,NA
94b3b,shallow,flow.Sequence,2_6_0,NA,NA,completion,4033.274,311874.19999981,311873.554,311906.954,315940.228,315941,2023-08-11T09:45:20Z,315973.612,Notfall,dharura,s,rairai,malalamiko,ahueni,NA,NA,NA,"c(""distractor1"", ""distractor2"", ""distractor3"")",NA,NA,NA,NA,NA,NA,NA,NA,NA,NA,NA,NA,NA,NA,NA,NA,NA,NA,NA
94b3b,task,flow.Sequence,2_6,NA,NA,completion,4033.274,311874.0999999,311873.554,311906.954,315940.228,315941.0999999,2023-08-11T09:45:20Z,315973.612,Notfall,dharura,s,rairai,malalamiko,ahueni,NA,NA,NA,"c(""distractor1"", ""distractor2"", ""distractor3"")",NA,NA,NA,NA,NA,NA,NA,NA,NA,NA,NA,NA,NA,NA,NA,NA,NA,NA,NA
94b3b,Shallow Question,html.Page,2_7_0_0,NA,NA,form submission,3943.7880000953,315941.30000019,315940.228,315973.612,319917.4000001,319917.69999981,2023-08-11T09:45:24Z,319956.874,Theorie,nadharia,d,ushungi,mkutano,uwakilishi,nadharia,NA,NA,"c(""distractor1"", ""distractor2"", ""distractor3"")",NA,NA,NA,NA,NA,NA,NA,NA,NA,NA,NA,NA,NA,NA,NA,NA,NA,NA,NA
94b3b,Save data screen,canvas.Screen,2_7_0_1,NA,NA,timeout,500.07199999999,319919.69999981,319906.998,319956.874,320423.581,320424,2023-08-11T09:45:24Z,320456.946,Theorie,nadharia,d,ushungi,mkutano,uwakilishi,NA,NA,1,"c(""distractor1"", ""distractor2"", ""distractor3"")",NA,NA,NA,NA,NA,NA,NA,NA,NA,NA,NA,NA,NA,NA,NA,NA,NA,NA,NA
94b3b,shallow,flow.Sequence,2_7_0,NA,NA,completion,4449.969,315941.30000019,315940.228,315973.612,320423.581,320424.0999999,2023-08-11T09:45:24Z,320456.946,Theorie,nadharia,d,ushungi,mkutano,uwakilishi,NA,NA,NA,"c(""distractor1"", ""distractor2"", ""distractor3"")",NA,NA,NA,NA,NA,NA,NA,NA,NA,NA,NA,NA,NA,NA,NA,NA,NA,NA,NA
94b3b,task,flow.Sequence,2_7,NA,NA,completion,4449.969,315941.19999981,315940.228,315973.612,320423.581,320424.30000019,2023-08-11T09:45:24Z,320456.946,Theorie,nadharia,d,ushungi,mkutano,uwakilishi,NA,NA,NA,"c(""distractor1"", ""distractor2"", ""distractor3"")",NA,NA,NA,NA,NA,NA,NA,NA,NA,NA,NA,NA,NA,NA,NA,NA,NA,NA,NA
94b3b,Shallow Question,html.Page,2_8_0_0,NA,NA,form submission,2755.4540000954,320424.4000001,320423.581,320456.946,323212.4000001,323212.69999981,2023-08-11T09:45:27Z,323257.115,Spionage,upelelezi,d,maslahi,utokazo,magangao,upelelezi,NA,NA,"c(""distractor1"", ""distractor2"", ""distractor3"")",NA,NA,NA,NA,NA,NA,NA,NA,NA,NA,NA,NA,NA,NA,NA,NA,NA,NA,NA
94b3b,Save data screen,canvas.Screen,2_8_0_1,NA,NA,timeout,499.70600000001,323213.5999999,323207.213,323257.115,323707.221,323708,2023-08-11T09:45:28Z,323756.821,Spionage,upelelezi,d,maslahi,utokazo,magangao,NA,NA,1,"c(""distractor1"", ""distractor2"", ""distractor3"")",NA,NA,NA,NA,NA,NA,NA,NA,NA,NA,NA,NA,NA,NA,NA,NA,NA,NA,NA
94b3b,shallow,flow.Sequence,2_8_0,NA,NA,completion,3250.275,320424.30000019,320423.581,320456.946,323707.221,323708.19999981,2023-08-11T09:45:28Z,323756.821,Spionage,upelelezi,d,maslahi,utokazo,magangao,NA,NA,NA,"c(""distractor1"", ""distractor2"", ""distractor3"")",NA,NA,NA,NA,NA,NA,NA,NA,NA,NA,NA,NA,NA,NA,NA,NA,NA,NA,NA
94b3b,task,flow.Sequence,2_8,NA,NA,completion,3250.275,320424.30000019,320423.581,320456.946,323707.221,323708.30000019,2023-08-11T09:45:28Z,323756.821,Spionage,upelelezi,d,maslahi,utokazo,magangao,NA,NA,NA,"c(""distractor1"", ""distractor2"", ""distractor3"")",NA,NA,NA,NA,NA,NA,NA,NA,NA,NA,NA,NA,NA,NA,NA,NA,NA,NA,NA
94b3b,Shallow Question,html.Page,2_9_0_0,NA,NA,form submission,2995.0790000954,323708.4000001,323707.221,323756.821,326751.9000001,326752,2023-08-11T09:45:31Z,326773.589,Verpackung,ufungaji,s,uhusiano,upimaji,uchunguzi,ufungaji,NA,NA,"c(""distractor1"", ""distractor2"", ""distractor3"")",NA,NA,NA,NA,NA,NA,NA,NA,NA,NA,NA,NA,NA,NA,NA,NA,NA,NA,NA
94b3b,Save data screen,canvas.Screen,2_9_0_1,NA,NA,timeout,516.65400000004,326754.19999981,326740.224,326773.589,327256.848,327257.19999981,2023-08-11T09:45:31Z,327290.243,Verpackung,ufungaji,s,uhusiano,upimaji,uchunguzi,NA,NA,1,"c(""distractor1"", ""distractor2"", ""distractor3"")",NA,NA,NA,NA,NA,NA,NA,NA,NA,NA,NA,NA,NA,NA,NA,NA,NA,NA,NA
94b3b,shallow,flow.Sequence,2_9_0,NA,NA,completion,3500.027,323708.4000001,323707.221,323756.821,327256.848,327257.4000001,2023-08-11T09:45:31Z,327290.243,Verpackung,ufungaji,s,uhusiano,upimaji,uchunguzi,NA,NA,NA,"c(""distractor1"", ""distractor2"", ""distractor3"")",NA,NA,NA,NA,NA,NA,NA,NA,NA,NA,NA,NA,NA,NA,NA,NA,NA,NA,NA
94b3b,task,flow.Sequence,2_9,NA,NA,completion,3500.027,323708.4000001,323707.221,323756.821,327256.848,327257.5,2023-08-11T09:45:31Z,327290.243,Verpackung,ufungaji,s,uhusiano,upimaji,uchunguzi,NA,NA,NA,"c(""distractor1"", ""distractor2"", ""distractor3"")",NA,NA,NA,NA,NA,NA,NA,NA,NA,NA,NA,NA,NA,NA,NA,NA,NA,NA,NA
94b3b,Shallow Question,html.Page,2_10_0_0,NA,NA,form submission,12339.456999809,327257.5999999,327256.848,327290.243,339629.69999981,339630.0999999,2023-08-11T09:45:43Z,339673.544,Ergänzung,kijalizo,d,ulaghai,mustarehe,matangazo,matangazo,NA,NA,"c(""distractor1"", ""distractor2"", ""distractor3"")",NA,NA,NA,NA,NA,NA,NA,NA,NA,NA,NA,NA,NA,NA,NA,NA,NA,NA,NA
94b3b,Save data screen,canvas.Screen,2_10_0_1,NA,NA,timeout,483.288,339633,339624.169,339673.544,340123.442,340123.9000001,2023-08-11T09:45:44Z,340156.832,Ergänzung,kijalizo,d,ulaghai,mustarehe,matangazo,NA,NA,0,"c(""distractor1"", ""distractor2"", ""distractor3"")",NA,NA,NA,NA,NA,NA,NA,NA,NA,NA,NA,NA,NA,NA,NA,NA,NA,NA,NA
94b3b,shallow,flow.Sequence,2_10_0,NA,NA,completion,12833.199,327257.5,327256.848,327290.243,340123.442,340124.0999999,2023-08-11T09:45:44Z,340156.832,Ergänzung,kijalizo,d,ulaghai,mustarehe,matangazo,NA,NA,NA,"c(""distractor1"", ""distractor2"", ""distractor3"")",NA,NA,NA,NA,NA,NA,NA,NA,NA,NA,NA,NA,NA,NA,NA,NA,NA,NA,NA
94b3b,task,flow.Sequence,2_10,NA,NA,completion,12833.199,327257.5,327256.848,327290.243,340123.442,340124.19999981,2023-08-11T09:45:44Z,340156.832,Ergänzung,kijalizo,d,ulaghai,mustarehe,matangazo,NA,NA,NA,"c(""distractor1"", ""distractor2"", ""distractor3"")",NA,NA,NA,NA,NA,NA,NA,NA,NA,NA,NA,NA,NA,NA,NA,NA,NA,NA,NA
94b3b,Shallow Question,html.Page,2_11_0_0,NA,NA,form submission,7476.2679999046,340124.30000019,340123.442,340156.832,347633.0999999,347633.19999981,2023-08-11T09:45:51Z,347673.519,Wohlstand,mafanikio,d,chimbuko,kumbuko,mapwaji,mafanikio,NA,NA,"c(""distractor1"", ""distractor2"", ""distractor3"")",NA,NA,NA,NA,NA,NA,NA,NA,NA,NA,NA,NA,NA,NA,NA,NA,NA,NA,NA
94b3b,Save data screen,canvas.Screen,2_11_0_1,NA,NA,timeout,533.76700000005,347634.5999999,347623.652,347673.519,348156.865,348157.30000019,2023-08-11T09:45:52Z,348207.286,Wohlstand,mafanikio,d,chimbuko,kumbuko,mapwaji,NA,NA,1,"c(""distractor1"", ""distractor2"", ""distractor3"")",NA,NA,NA,NA,NA,NA,NA,NA,NA,NA,NA,NA,NA,NA,NA,NA,NA,NA,NA
94b3b,shallow,flow.Sequence,2_11_0,NA,NA,completion,8000.033,340124.19999981,340123.442,340156.832,348156.865,348157.5999999,2023-08-11T09:45:52Z,348207.286,Wohlstand,mafanikio,d,chimbuko,kumbuko,mapwaji,NA,NA,NA,"c(""distractor1"", ""distractor2"", ""distractor3"")",NA,NA,NA,NA,NA,NA,NA,NA,NA,NA,NA,NA,NA,NA,NA,NA,NA,NA,NA
94b3b,task,flow.Sequence,2_11,NA,NA,completion,8000.033,340124.19999981,340123.442,340156.832,348156.865,348157.69999981,2023-08-11T09:45:52Z,348207.286,Wohlstand,mafanikio,d,chimbuko,kumbuko,mapwaji,NA,NA,NA,"c(""distractor1"", ""distractor2"", ""distractor3"")",NA,NA,NA,NA,NA,NA,NA,NA,NA,NA,NA,NA,NA,NA,NA,NA,NA,NA,NA
94b3b,Shallow Question,html.Page,2_12_0_0,NA,NA,form submission,6631.1140000953,348157.80000019,348156.865,348207.286,354838.4000001,354838.69999981,2023-08-11T09:45:59Z,354856.85,Vergnügen,kichekesho,s,dubwana,mpanuko,mtesaji,kichekesho,NA,NA,"c(""distractor1"", ""distractor2"", ""distractor3"")",NA,NA,NA,NA,NA,NA,NA,NA,NA,NA,NA,NA,NA,NA,NA,NA,NA,NA,NA
94b3b,Save data screen,canvas.Screen,2_12_0_1,NA,NA,timeout,466.65900000004,354842.0999999,354823.214,354856.85,355290.077,355290.5999999,2023-08-11T09:45:59Z,355323.509,Vergnügen,kichekesho,s,dubwana,mpanuko,mtesaji,NA,NA,1,"c(""distractor1"", ""distractor2"", ""distractor3"")",NA,NA,NA,NA,NA,NA,NA,NA,NA,NA,NA,NA,NA,NA,NA,NA,NA,NA,NA
94b3b,shallow,flow.Sequence,2_12_0,NA,NA,completion,7082.791,348157.80000019,348156.865,348207.286,355290.077,355290.69999981,2023-08-11T09:45:59Z,355323.509,Vergnügen,kichekesho,s,dubwana,mpanuko,mtesaji,NA,NA,NA,"c(""distractor1"", ""distractor2"", ""distractor3"")",NA,NA,NA,NA,NA,NA,NA,NA,NA,NA,NA,NA,NA,NA,NA,NA,NA,NA,NA
94b3b,task,flow.Sequence,2_12,NA,NA,completion,7082.791,348157.80000019,348156.865,348207.286,355290.077,355290.9000001,2023-08-11T09:45:59Z,355323.509,Vergnügen,kichekesho,s,dubwana,mpanuko,mtesaji,NA,NA,NA,"c(""distractor1"", ""distractor2"", ""distractor3"")",NA,NA,NA,NA,NA,NA,NA,NA,NA,NA,NA,NA,NA,NA,NA,NA,NA,NA,NA
94b3b,Shallow Question,html.Page,2_13_0_0,NA,NA,form submission,2211.8910000953,355291,355290.077,355323.509,357535.4000001,357535.80000019,2023-08-11T09:46:01Z,357573.532,Schlange,foleni,d,uvumilivu,uteuzi,muuzaji,foleni,NA,NA,"c(""distractor1"", ""distractor2"", ""distractor3"")",NA,NA,NA,NA,NA,NA,NA,NA,NA,NA,NA,NA,NA,NA,NA,NA,NA,NA,NA
94b3b,Save data screen,canvas.Screen,2_13_0_1,NA,NA,timeout,516.61199999996,357536.4000001,357523.588,357573.532,358040.441,358041.0999999,2023-08-11T09:46:02Z,358090.144,Schlange,foleni,d,uvumilivu,uteuzi,muuzaji,NA,NA,1,"c(""distractor1"", ""distractor2"", ""distractor3"")",NA,NA,NA,NA,NA,NA,NA,NA,NA,NA,NA,NA,NA,NA,NA,NA,NA,NA,NA
94b3b,shallow,flow.Sequence,2_13_0,NA,NA,completion,2716.932,355291,355290.077,355323.509,358040.441,358041.30000019,2023-08-11T09:46:02Z,358090.144,Schlange,foleni,d,uvumilivu,uteuzi,muuzaji,NA,NA,NA,"c(""distractor1"", ""distractor2"", ""distractor3"")",NA,NA,NA,NA,NA,NA,NA,NA,NA,NA,NA,NA,NA,NA,NA,NA,NA,NA,NA
94b3b,task,flow.Sequence,2_13,NA,NA,completion,2716.932,355291,355290.077,355323.509,358040.441,358041.5,2023-08-11T09:46:02Z,358090.144,Schlange,foleni,d,uvumilivu,uteuzi,muuzaji,NA,NA,NA,"c(""distractor1"", ""distractor2"", ""distractor3"")",NA,NA,NA,NA,NA,NA,NA,NA,NA,NA,NA,NA,NA,NA,NA,NA,NA,NA,NA
94b3b,Shallow Question,html.Page,2_14_0_0,NA,NA,form submission,4730.856,358041.5999999,358040.441,358090.144,362821,362821.4000001,2023-08-11T09:46:07Z,362840.146,Toleranz,kuvumiliana,d,maombolezo,ujasusi,mchekeshaji,kuvumiliana,NA,NA,"c(""distractor1"", ""distractor2"", ""distractor3"")",NA,NA,NA,NA,NA,NA,NA,NA,NA,NA,NA,NA,NA,NA,NA,NA,NA,NA,NA
94b3b,Save data screen,canvas.Screen,2_14_0_1,NA,NA,timeout,516.92499999999,362824.80000019,362806.695,362840.146,363323.452,363324,2023-08-11T09:46:07Z,363357.071,Toleranz,kuvumiliana,d,maombolezo,ujasusi,mchekeshaji,NA,NA,1,"c(""distractor1"", ""distractor2"", ""distractor3"")",NA,NA,NA,NA,NA,NA,NA,NA,NA,NA,NA,NA,NA,NA,NA,NA,NA,NA,NA
94b3b,shallow,flow.Sequence,2_14_0,NA,NA,completion,5233.308,358041.5999999,358040.441,358090.144,363323.452,363324.4000001,2023-08-11T09:46:07Z,363357.071,Toleranz,kuvumiliana,d,maombolezo,ujasusi,mchekeshaji,NA,NA,NA,"c(""distractor1"", ""distractor2"", ""distractor3"")",NA,NA,NA,NA,NA,NA,NA,NA,NA,NA,NA,NA,NA,NA,NA,NA,NA,NA,NA
94b3b,task,flow.Sequence,2_14,NA,NA,completion,5233.308,358041.5999999,358040.441,358090.144,363323.452,363324.5999999,2023-08-11T09:46:07Z,363357.071,Toleranz,kuvumiliana,d,maombolezo,ujasusi,mchekeshaji,NA,NA,NA,"c(""distractor1"", ""distractor2"", ""distractor3"")",NA,NA,NA,NA,NA,NA,NA,NA,NA,NA,NA,NA,NA,NA,NA,NA,NA,NA,NA
94b3b,Shallow Question,html.Page,2_15_0_0,NA,NA,form submission,5571.3290000954,363324.80000019,363323.452,363357.071,368928.4000001,368928.69999981,2023-08-11T09:46:13Z,368956.735,Schüler,mwanafunzi,s,mwekezaji,matumizi,uaminifu,mwanafunzi,NA,NA,"c(""distractor1"", ""distractor2"", ""distractor3"")",NA,NA,NA,NA,NA,NA,NA,NA,NA,NA,NA,NA,NA,NA,NA,NA,NA,NA,NA
94b3b,Save data screen,canvas.Screen,2_15_0_1,NA,NA,timeout,500.01900000003,368931.80000019,368923.363,368956.735,369423.424,369423.9000001,2023-08-11T09:46:13Z,369456.754,Schüler,mwanafunzi,s,mwekezaji,matumizi,uaminifu,NA,NA,1,"c(""distractor1"", ""distractor2"", ""distractor3"")",NA,NA,NA,NA,NA,NA,NA,NA,NA,NA,NA,NA,NA,NA,NA,NA,NA,NA,NA
94b3b,shallow,flow.Sequence,2_15_0,NA,NA,completion,6066.353,363324.80000019,363323.452,363357.071,369423.424,369424.0999999,2023-08-11T09:46:13Z,369456.754,Schüler,mwanafunzi,s,mwekezaji,matumizi,uaminifu,NA,NA,NA,"c(""distractor1"", ""distractor2"", ""distractor3"")",NA,NA,NA,NA,NA,NA,NA,NA,NA,NA,NA,NA,NA,NA,NA,NA,NA,NA,NA
94b3b,task,flow.Sequence,2_15,NA,NA,completion,6066.353,363324.69999981,363323.452,363357.071,369423.424,369424.30000019,2023-08-11T09:46:13Z,369456.754,Schüler,mwanafunzi,s,mwekezaji,matumizi,uaminifu,NA,NA,NA,"c(""distractor1"", ""distractor2"", ""distractor3"")",NA,NA,NA,NA,NA,NA,NA,NA,NA,NA,NA,NA,NA,NA,NA,NA,NA,NA,NA
94b3b,retrieval block 2 (multiple choice),flow.Loop,2,NA,NA,completion,95282.99,274107.9000001,274107.021,274140.434,369423.424,369424.5,2023-08-11T09:46:13Z,369456.754,NA,NA,NA,NA,NA,NA,NA,NA,NA,"c(""distractor1"", ""distractor2"", ""distractor3"")",NA,NA,NA,NA,NA,NA,NA,NA,NA,NA,NA,NA,NA,NA,NA,NA,NA,NA,NA
94b3b,End,canvas.Screen,3,NA,keypress(Space),response,1815.6460000954,369424.5999999,369423.424,369456.754,371272.4000001,371273.30000019,2023-08-11T09:46:15Z,371294.881,NA,NA,NA,NA,NA,NA,NA,NA,NA,NULL,NA,NA,NA,NA,NA,NA,NA,NA,NA,NA,NA,NA,NA,NA,NA,NA,NA,NA,NA
94b3b,root,flow.Sequence,NA,NA,NA,completion,370414.5230001,832.5,757.909,857.877,371272.4000001,371273.69999981,2023-08-11T09:46:15Z,371294.881,NA,NA,NA,NA,NA,NA,NA,NA,NA,NULL,NA,NA,NA,NA,NA,NA,NA,NA,NA,NA,NA,NA,NA,NA,NA,NA,NA,NA,NA
