observation,sender,sender_type,sender_id,response,response_action,ended_on,duration,time_run,time_render,time_show,time_end,time_commit,timestamp,time_switch,german,swahili,enc,distractor1,distractor2,distractor3,response_2,x,correct,distractors,url_vp,url_sess,meta_labjs_version,meta_location,meta_user_agent,meta_platform,meta_language,meta_locale,meta_time_zone,meta_timezone_offset,meta_screen_width,meta_screen_height,meta_scroll_width,meta_scroll_height,meta_window_inner_width,meta_window_inner_height,meta_device_pixel_ratio,meta_labjs_build_flavor,meta_labjs_build_commit
909c4,Introduction delayed retrieval,canvas.Screen,0,weiter,keypress(Space),response,2327.8,693,685,701.7,3029.5,3031.8999999762,2024-05-26T12:50:54Z,3034.9,NA,NA,NA,NA,NA,NA,NA,NA,NA,NULL,226,4,20.2.4,https://neurocog.fernuni.ch/studies/vweber/aberisha/delayed/index.html?vp=226&sess=4,"Mozilla/5.0 (Windows NT 10.0; Win64; x64) AppleWebKit/537.36 (KHTML, like Gecko) Chrome/125.0.0.0 Safari/537.36",Win32,it-IT,it,Europe/Zurich,-120,1536,864,1536,682,1536,730,1.25,production,f5b4a49f956347addd546a832a3327688c2c0fef
909c4,Deep Question,html.Page,1_0_0_0,NA,NA,form submission,4730.4000000715,3032.3999999762,3018.3,3034.9,7765.3000000715,7765.5,2024-05-26T12:50:59Z,7768,Tester,wanaojaribu,s,sherti,sihiri,mlipuko,hoi,NA,NA,NULL,NA,NA,NA,NA,NA,NA,NA,NA,NA,NA,NA,NA,NA,NA,NA,NA,NA,NA,NA
909c4,Save data screen,canvas.Screen,1_0_0_1,NA,NA,timeout,500,7766.3000000715,7751.6,7768,8251.4,8251.8000000715,2024-05-26T12:50:59Z,8268,Tester,wanaojaribu,s,sherti,sihiri,mlipuko,NA,NA,0,NULL,NA,NA,NA,NA,NA,NA,NA,NA,NA,NA,NA,NA,NA,NA,NA,NA,NA,NA,NA
909c4,deep,flow.Sequence,1_0_0,NA,NA,completion,5216.5,3032.3999999762,3018.3,3034.9,8251.4,8251.8999999762,2024-05-26T12:50:59Z,8268,Tester,wanaojaribu,s,sherti,sihiri,mlipuko,NA,NA,NA,NULL,NA,NA,NA,NA,NA,NA,NA,NA,NA,NA,NA,NA,NA,NA,NA,NA,NA,NA,NA
909c4,task,flow.Sequence,1_0,NA,NA,completion,5216.5,3032.3999999762,3018.3,3034.9,8251.4,8252,2024-05-26T12:50:59Z,8268,Tester,wanaojaribu,s,sherti,sihiri,mlipuko,NA,NA,NA,NULL,NA,NA,NA,NA,NA,NA,NA,NA,NA,NA,NA,NA,NA,NA,NA,NA,NA,NA,NA
909c4,Deep Question,html.Page,1_1_0_0,NA,NA,form submission,7166.6000000238,8252,8251.4,8268,15434.600000024,15434.800000072,2024-05-26T12:51:07Z,15467.7,Schüler,mwanafunzi,s,mwekezaji,matumizi,uaminifu,mayanga,NA,NA,NULL,NA,NA,NA,NA,NA,NA,NA,NA,NA,NA,NA,NA,NA,NA,NA,NA,NA,NA,NA
909c4,Save data screen,canvas.Screen,1_1_0_1,NA,NA,timeout,500.1,15435.399999976,15451.25,15467.7,15951,15952.100000024,2024-05-26T12:51:07Z,15967.8,Schüler,mwanafunzi,s,mwekezaji,matumizi,uaminifu,NA,NA,0,NULL,NA,NA,NA,NA,NA,NA,NA,NA,NA,NA,NA,NA,NA,NA,NA,NA,NA,NA,NA
909c4,deep,flow.Sequence,1_1_0,NA,NA,completion,7683,8252,8251.4,8268,15951,15952.399999976,2024-05-26T12:51:07Z,15967.8,Schüler,mwanafunzi,s,mwekezaji,matumizi,uaminifu,NA,NA,NA,NULL,NA,NA,NA,NA,NA,NA,NA,NA,NA,NA,NA,NA,NA,NA,NA,NA,NA,NA,NA
909c4,task,flow.Sequence,1_1,NA,NA,completion,7683,8252,8251.4,8268,15951,15952.600000024,2024-05-26T12:51:07Z,15967.8,Schüler,mwanafunzi,s,mwekezaji,matumizi,uaminifu,NA,NA,NA,NULL,NA,NA,NA,NA,NA,NA,NA,NA,NA,NA,NA,NA,NA,NA,NA,NA,NA,NA,NA
909c4,Deep Question,html.Page,1_2_0_0,NA,NA,form submission,6343.7,15952.700000048,15951,15967.8,22311.5,22311.600000024,2024-05-26T12:51:13Z,22317.2,Notfall,dharura,s,rairai,malalamiko,ahueni,kiwayi,NA,NA,NULL,NA,NA,NA,NA,NA,NA,NA,NA,NA,NA,NA,NA,NA,NA,NA,NA,NA,NA,NA
909c4,Save data screen,canvas.Screen,1_2_0_1,NA,NA,timeout,500.3,22312.100000024,22300.8,22317.2,22800.8,22801.700000048,2024-05-26T12:51:14Z,22817.5,Notfall,dharura,s,rairai,malalamiko,ahueni,NA,NA,0,NULL,NA,NA,NA,NA,NA,NA,NA,NA,NA,NA,NA,NA,NA,NA,NA,NA,NA,NA,NA
909c4,deep,flow.Sequence,1_2_0,NA,NA,completion,6833,15952.700000048,15951,15967.8,22800.8,22802,2024-05-26T12:51:14Z,22817.5,Notfall,dharura,s,rairai,malalamiko,ahueni,NA,NA,NA,NULL,NA,NA,NA,NA,NA,NA,NA,NA,NA,NA,NA,NA,NA,NA,NA,NA,NA,NA,NA
909c4,task,flow.Sequence,1_2,NA,NA,completion,6833,15952.700000048,15951,15967.8,22800.8,22802.100000024,2024-05-26T12:51:14Z,22817.5,Notfall,dharura,s,rairai,malalamiko,ahueni,NA,NA,NA,NULL,NA,NA,NA,NA,NA,NA,NA,NA,NA,NA,NA,NA,NA,NA,NA,NA,NA,NA,NA
909c4,Deep Question,html.Page,1_3_0_0,NA,NA,form submission,12574.700000048,22802.200000048,22800.8,22817.5,35392.200000048,35392.399999976,2024-05-26T12:51:27Z,35400.1,Schlange,foleni,d,uvumilivu,uteuzi,muuzaji,folvani,NA,NA,NULL,NA,NA,NA,NA,NA,NA,NA,NA,NA,NA,NA,NA,NA,NA,NA,NA,NA,NA,NA
909c4,Save data screen,canvas.Screen,1_3_0_1,NA,NA,timeout,499.9,35393,35383.5,35400.1,35883.5,35884.300000072,2024-05-26T12:51:27Z,35900,Schlange,foleni,d,uvumilivu,uteuzi,muuzaji,NA,NA,0,NULL,NA,NA,NA,NA,NA,NA,NA,NA,NA,NA,NA,NA,NA,NA,NA,NA,NA,NA,NA
909c4,deep,flow.Sequence,1_3_0,NA,NA,completion,13066,22802.200000048,22800.8,22817.5,35883.5,35884.5,2024-05-26T12:51:27Z,35900,Schlange,foleni,d,uvumilivu,uteuzi,muuzaji,NA,NA,NA,NULL,NA,NA,NA,NA,NA,NA,NA,NA,NA,NA,NA,NA,NA,NA,NA,NA,NA,NA,NA
909c4,task,flow.Sequence,1_3,NA,NA,completion,13066,22802.200000048,22800.8,22817.5,35883.5,35884.700000048,2024-05-26T12:51:27Z,35900,Schlange,foleni,d,uvumilivu,uteuzi,muuzaji,NA,NA,NA,NULL,NA,NA,NA,NA,NA,NA,NA,NA,NA,NA,NA,NA,NA,NA,NA,NA,NA,NA,NA
909c4,Deep Question,html.Page,1_4_0_0,NA,NA,form submission,7112.8999999762,35884.899999976,35883.5,35900,43012.899999976,43013.200000048,2024-05-26T12:51:34Z,43016.3,Vermutung,udhanifu,s,haramia,tikisho,itifaki,maziwagi,NA,NA,NULL,NA,NA,NA,NA,NA,NA,NA,NA,NA,NA,NA,NA,NA,NA,NA,NA,NA,NA,NA
909c4,Save data screen,canvas.Screen,1_4_0_1,NA,NA,timeout,500.1,43013.5,43000.14,43016.3,43499.7,43500.300000072,2024-05-26T12:51:35Z,43516.4,Vermutung,udhanifu,s,haramia,tikisho,itifaki,NA,NA,0,NULL,NA,NA,NA,NA,NA,NA,NA,NA,NA,NA,NA,NA,NA,NA,NA,NA,NA,NA,NA
909c4,deep,flow.Sequence,1_4_0,NA,NA,completion,7599.7,35884.800000072,35883.5,35900,43499.7,43500.399999976,2024-05-26T12:51:35Z,43516.4,Vermutung,udhanifu,s,haramia,tikisho,itifaki,NA,NA,NA,NULL,NA,NA,NA,NA,NA,NA,NA,NA,NA,NA,NA,NA,NA,NA,NA,NA,NA,NA,NA
909c4,task,flow.Sequence,1_4,NA,NA,completion,7599.7,35884.800000072,35883.5,35900,43499.7,43500.5,2024-05-26T12:51:35Z,43516.4,Vermutung,udhanifu,s,haramia,tikisho,itifaki,NA,NA,NA,NULL,NA,NA,NA,NA,NA,NA,NA,NA,NA,NA,NA,NA,NA,NA,NA,NA,NA,NA,NA
909c4,Deep Question,html.Page,1_5_0_0,NA,NA,form submission,10892.6,43500.5,43499.7,43516.4,54409,54409.100000024,2024-05-26T12:51:46Z,54415.8,Vergnügen,kichekesho,s,dubwana,mpanuko,mtesaji,tipuui,NA,NA,NULL,NA,NA,NA,NA,NA,NA,NA,NA,NA,NA,NA,NA,NA,NA,NA,NA,NA,NA,NA
909c4,Save data screen,canvas.Screen,1_5_0_1,NA,NA,timeout,499.89999999999,54409.399999976,54399.196,54415.8,54899,54899.399999976,2024-05-26T12:51:46Z,54915.7,Vergnügen,kichekesho,s,dubwana,mpanuko,mtesaji,NA,NA,0,NULL,NA,NA,NA,NA,NA,NA,NA,NA,NA,NA,NA,NA,NA,NA,NA,NA,NA,NA,NA
909c4,deep,flow.Sequence,1_5_0,NA,NA,completion,11382.6,43500.5,43499.7,43516.4,54899,54899.5,2024-05-26T12:51:46Z,54915.7,Vergnügen,kichekesho,s,dubwana,mpanuko,mtesaji,NA,NA,NA,NULL,NA,NA,NA,NA,NA,NA,NA,NA,NA,NA,NA,NA,NA,NA,NA,NA,NA,NA,NA
909c4,task,flow.Sequence,1_5,NA,NA,completion,11382.6,43500.5,43499.7,43516.4,54899,54899.5,2024-05-26T12:51:46Z,54915.7,Vergnügen,kichekesho,s,dubwana,mpanuko,mtesaji,NA,NA,NA,NULL,NA,NA,NA,NA,NA,NA,NA,NA,NA,NA,NA,NA,NA,NA,NA,NA,NA,NA,NA
909c4,Deep Question,html.Page,1_6_0_0,NA,NA,form submission,12989.600000072,54899.600000024,54899,54915.7,67905.300000072,67905.5,2024-05-26T12:51:59Z,67915.1,Wohlstand,mafanikio,d,chimbuko,kumbuko,mapwaji,tanabu,NA,NA,NULL,NA,NA,NA,NA,NA,NA,NA,NA,NA,NA,NA,NA,NA,NA,NA,NA,NA,NA,NA
909c4,Save data screen,canvas.Screen,1_6_0_1,NA,NA,timeout,500,67907.100000024,67898.6,67915.1,68398.5,68399.100000024,2024-05-26T12:52:00Z,68415.1,Wohlstand,mafanikio,d,chimbuko,kumbuko,mapwaji,NA,NA,0,NULL,NA,NA,NA,NA,NA,NA,NA,NA,NA,NA,NA,NA,NA,NA,NA,NA,NA,NA,NA
909c4,deep,flow.Sequence,1_6_0,NA,NA,completion,13482.8,54899.600000024,54899,54915.7,68398.5,68399.200000048,2024-05-26T12:52:00Z,68415.1,Wohlstand,mafanikio,d,chimbuko,kumbuko,mapwaji,NA,NA,NA,NULL,NA,NA,NA,NA,NA,NA,NA,NA,NA,NA,NA,NA,NA,NA,NA,NA,NA,NA,NA
909c4,task,flow.Sequence,1_6,NA,NA,completion,13482.8,54899.600000024,54899,54915.7,68398.5,68399.200000048,2024-05-26T12:52:00Z,68415.1,Wohlstand,mafanikio,d,chimbuko,kumbuko,mapwaji,NA,NA,NA,NULL,NA,NA,NA,NA,NA,NA,NA,NA,NA,NA,NA,NA,NA,NA,NA,NA,NA,NA,NA
909c4,Deep Question,html.Page,1_7_0_0,NA,NA,form submission,4750.1000000477,68399.300000072,68398.5,68415.1,73165.200000048,73165.5,2024-05-26T12:52:04Z,73198.4,Ergänzung,kijalizo,d,ulaghai,mustarehe,matangazo,kiliu,NA,NA,NULL,NA,NA,NA,NA,NA,NA,NA,NA,NA,NA,NA,NA,NA,NA,NA,NA,NA,NA,NA
909c4,Save data screen,canvas.Screen,1_7_0_1,NA,NA,timeout,499.90000000001,73167.100000024,73181.73,73198.4,73681.7,73682.399999976,2024-05-26T12:52:05Z,73698.3,Ergänzung,kijalizo,d,ulaghai,mustarehe,matangazo,NA,NA,0,NULL,NA,NA,NA,NA,NA,NA,NA,NA,NA,NA,NA,NA,NA,NA,NA,NA,NA,NA,NA
909c4,deep,flow.Sequence,1_7_0,NA,NA,completion,5266.6,68399.300000072,68398.5,68415.1,73681.7,73682.600000024,2024-05-26T12:52:05Z,73698.3,Ergänzung,kijalizo,d,ulaghai,mustarehe,matangazo,NA,NA,NA,NULL,NA,NA,NA,NA,NA,NA,NA,NA,NA,NA,NA,NA,NA,NA,NA,NA,NA,NA,NA
909c4,task,flow.Sequence,1_7,NA,NA,completion,5266.6,68399.300000072,68398.5,68415.1,73681.7,73682.700000048,2024-05-26T12:52:05Z,73698.3,Ergänzung,kijalizo,d,ulaghai,mustarehe,matangazo,NA,NA,NA,NULL,NA,NA,NA,NA,NA,NA,NA,NA,NA,NA,NA,NA,NA,NA,NA,NA,NA,NA,NA
909c4,Deep Question,html.Page,1_8_0_0,NA,NA,form submission,14388.300000024,73682.899999976,73681.7,73698.3,88086.600000024,88086.800000072,2024-05-26T12:52:19Z,88097.4,Fenster,dirisha,d,walakini,tasawari,maarifa,awani,NA,NA,NULL,NA,NA,NA,NA,NA,NA,NA,NA,NA,NA,NA,NA,NA,NA,NA,NA,NA,NA,NA
909c4,Save data screen,canvas.Screen,1_8_0_1,NA,NA,timeout,500.3,88088.399999976,88081.048,88097.4,88580.8,88581.700000048,2024-05-26T12:52:20Z,88597.7,Fenster,dirisha,d,walakini,tasawari,maarifa,NA,NA,0,NULL,NA,NA,NA,NA,NA,NA,NA,NA,NA,NA,NA,NA,NA,NA,NA,NA,NA,NA,NA
909c4,deep,flow.Sequence,1_8_0,NA,NA,completion,14882.5,73682.899999976,73681.7,73698.3,88580.8,88581.899999976,2024-05-26T12:52:20Z,88597.7,Fenster,dirisha,d,walakini,tasawari,maarifa,NA,NA,NA,NULL,NA,NA,NA,NA,NA,NA,NA,NA,NA,NA,NA,NA,NA,NA,NA,NA,NA,NA,NA
909c4,task,flow.Sequence,1_8,NA,NA,completion,14882.5,73682.899999976,73681.7,73698.3,88580.8,88582,2024-05-26T12:52:20Z,88597.7,Fenster,dirisha,d,walakini,tasawari,maarifa,NA,NA,NA,NULL,NA,NA,NA,NA,NA,NA,NA,NA,NA,NA,NA,NA,NA,NA,NA,NA,NA,NA,NA
909c4,Deep Question,html.Page,1_9_0_0,NA,NA,form submission,6744.1000000715,88582.200000048,88580.8,88597.7,95341.800000072,95342,2024-05-26T12:52:27Z,95347.1,Verpackung,ufungaji,s,uhusiano,upimaji,uchunguzi,mzawadi,NA,NA,NULL,NA,NA,NA,NA,NA,NA,NA,NA,NA,NA,NA,NA,NA,NA,NA,NA,NA,NA,NA
909c4,Save data screen,canvas.Screen,1_9_0_1,NA,NA,timeout,500.09999999999,95343.5,95330.604,95347.1,95830.6,95831.300000072,2024-05-26T12:52:27Z,95847.2,Verpackung,ufungaji,s,uhusiano,upimaji,uchunguzi,NA,NA,0,NULL,NA,NA,NA,NA,NA,NA,NA,NA,NA,NA,NA,NA,NA,NA,NA,NA,NA,NA,NA
909c4,deep,flow.Sequence,1_9_0,NA,NA,completion,7232.9,88582.200000048,88580.8,88597.7,95830.6,95831.700000048,2024-05-26T12:52:27Z,95847.2,Verpackung,ufungaji,s,uhusiano,upimaji,uchunguzi,NA,NA,NA,NULL,NA,NA,NA,NA,NA,NA,NA,NA,NA,NA,NA,NA,NA,NA,NA,NA,NA,NA,NA
909c4,task,flow.Sequence,1_9,NA,NA,completion,7232.9,88582.100000024,88580.8,88597.7,95830.6,95831.800000072,2024-05-26T12:52:27Z,95847.2,Verpackung,ufungaji,s,uhusiano,upimaji,uchunguzi,NA,NA,NA,NULL,NA,NA,NA,NA,NA,NA,NA,NA,NA,NA,NA,NA,NA,NA,NA,NA,NA,NA,NA
909c4,Deep Question,html.Page,1_10_0_0,NA,NA,form submission,4645.1999999762,95832,95830.6,95847.2,100492.39999998,100492.60000002,2024-05-26T12:52:32Z,100496.8,Toleranz,kuvumiliana,d,maombolezo,ujasusi,mchekeshaji,mazio,NA,NA,NULL,NA,NA,NA,NA,NA,NA,NA,NA,NA,NA,NA,NA,NA,NA,NA,NA,NA,NA,NA
909c4,Save data screen,canvas.Screen,1_10_0_1,NA,NA,timeout,500.2,100494.20000005,100480.49,100496.8,100980.3,100981,2024-05-26T12:52:32Z,100997,Toleranz,kuvumiliana,d,maombolezo,ujasusi,mchekeshaji,NA,NA,0,NULL,NA,NA,NA,NA,NA,NA,NA,NA,NA,NA,NA,NA,NA,NA,NA,NA,NA,NA,NA
909c4,deep,flow.Sequence,1_10_0,NA,NA,completion,5133.1,95831.899999976,95830.6,95847.2,100980.3,100981.20000005,2024-05-26T12:52:32Z,100997,Toleranz,kuvumiliana,d,maombolezo,ujasusi,mchekeshaji,NA,NA,NA,NULL,NA,NA,NA,NA,NA,NA,NA,NA,NA,NA,NA,NA,NA,NA,NA,NA,NA,NA,NA
909c4,task,flow.Sequence,1_10,NA,NA,completion,5133.1,95831.800000072,95830.6,95847.2,100980.3,100981.39999998,2024-05-26T12:52:32Z,100997,Toleranz,kuvumiliana,d,maombolezo,ujasusi,mchekeshaji,NA,NA,NA,NULL,NA,NA,NA,NA,NA,NA,NA,NA,NA,NA,NA,NA,NA,NA,NA,NA,NA,NA,NA
909c4,Deep Question,html.Page,1_11_0_0,NA,NA,form submission,5691.3999999762,100981.39999998,100980.3,100997,106688.39999998,106688.5,2024-05-26T12:52:38Z,106696.5,Inhalt,yaliyomo,s,kishawishi,hifadhi,kutembea,bujawani,NA,NA,NULL,NA,NA,NA,NA,NA,NA,NA,NA,NA,NA,NA,NA,NA,NA,NA,NA,NA,NA,NA
909c4,Save data screen,canvas.Screen,1_11_0_1,NA,NA,timeout,500,106690.10000002,106680.126,106696.5,107180,107180.70000005,2024-05-26T12:52:38Z,107196.5,Inhalt,yaliyomo,s,kishawishi,hifadhi,kutembea,NA,NA,0,NULL,NA,NA,NA,NA,NA,NA,NA,NA,NA,NA,NA,NA,NA,NA,NA,NA,NA,NA,NA
909c4,deep,flow.Sequence,1_11_0,NA,NA,completion,6183,100981.39999998,100980.3,100997,107180,107180.80000007,2024-05-26T12:52:38Z,107196.5,Inhalt,yaliyomo,s,kishawishi,hifadhi,kutembea,NA,NA,NA,NULL,NA,NA,NA,NA,NA,NA,NA,NA,NA,NA,NA,NA,NA,NA,NA,NA,NA,NA,NA
909c4,task,flow.Sequence,1_11,NA,NA,completion,6183,100981.39999998,100980.3,100997,107180,107180.89999998,2024-05-26T12:52:38Z,107196.5,Inhalt,yaliyomo,s,kishawishi,hifadhi,kutembea,NA,NA,NA,NULL,NA,NA,NA,NA,NA,NA,NA,NA,NA,NA,NA,NA,NA,NA,NA,NA,NA,NA,NA
909c4,Deep Question,html.Page,1_12_0_0,NA,NA,form submission,11290.200000048,107181.10000002,107180,107196.5,118486.70000005,118486.89999998,2024-05-26T12:52:50Z,118495.8,Spionage,upelelezi,d,maslahi,utokazo,magangao,matabaru,NA,NA,NULL,NA,NA,NA,NA,NA,NA,NA,NA,NA,NA,NA,NA,NA,NA,NA,NA,NA,NA,NA
909c4,Save data screen,canvas.Screen,1_12_0_1,NA,NA,timeout,500.3,118488.5,118479.656,118495.8,118979.4,118980.20000005,2024-05-26T12:52:50Z,118996.1,Spionage,upelelezi,d,maslahi,utokazo,magangao,NA,NA,0,NULL,NA,NA,NA,NA,NA,NA,NA,NA,NA,NA,NA,NA,NA,NA,NA,NA,NA,NA,NA
909c4,deep,flow.Sequence,1_12_0,NA,NA,completion,11782.9,107181.10000002,107180,107196.5,118979.4,118980.30000007,2024-05-26T12:52:50Z,118996.1,Spionage,upelelezi,d,maslahi,utokazo,magangao,NA,NA,NA,NULL,NA,NA,NA,NA,NA,NA,NA,NA,NA,NA,NA,NA,NA,NA,NA,NA,NA,NA,NA
909c4,task,flow.Sequence,1_12,NA,NA,completion,11782.9,107181.10000002,107180,107196.5,118979.4,118980.39999998,2024-05-26T12:52:50Z,118996.1,Spionage,upelelezi,d,maslahi,utokazo,magangao,NA,NA,NA,NULL,NA,NA,NA,NA,NA,NA,NA,NA,NA,NA,NA,NA,NA,NA,NA,NA,NA,NA,NA
909c4,Deep Question,html.Page,1_13_0_0,NA,NA,form submission,9186.9,118980.60000002,118979.4,118996.1,128183,128183.20000005,2024-05-26T12:52:59Z,128195.5,Hoffnung,matarajio,s,kutaalamika,uratibu,mvumbuzi,mrazawani,NA,NA,NULL,NA,NA,NA,NA,NA,NA,NA,NA,NA,NA,NA,NA,NA,NA,NA,NA,NA,NA,NA
909c4,Save data screen,canvas.Screen,1_13_0_1,NA,NA,timeout,500.2,128184.89999998,128179.138,128195.5,128679,128679.80000007,2024-05-26T12:53:00Z,128695.7,Hoffnung,matarajio,s,kutaalamika,uratibu,mvumbuzi,NA,NA,0,NULL,NA,NA,NA,NA,NA,NA,NA,NA,NA,NA,NA,NA,NA,NA,NA,NA,NA,NA,NA
909c4,deep,flow.Sequence,1_13_0,NA,NA,completion,9682.9,118980.60000002,118979.4,118996.1,128679,128680.10000002,2024-05-26T12:53:00Z,128695.7,Hoffnung,matarajio,s,kutaalamika,uratibu,mvumbuzi,NA,NA,NA,NULL,NA,NA,NA,NA,NA,NA,NA,NA,NA,NA,NA,NA,NA,NA,NA,NA,NA,NA,NA
909c4,task,flow.Sequence,1_13,NA,NA,completion,9682.9,118980.60000002,118979.4,118996.1,128679,128680.20000005,2024-05-26T12:53:00Z,128695.7,Hoffnung,matarajio,s,kutaalamika,uratibu,mvumbuzi,NA,NA,NA,NULL,NA,NA,NA,NA,NA,NA,NA,NA,NA,NA,NA,NA,NA,NA,NA,NA,NA,NA,NA
909c4,Deep Question,html.Page,1_14_0_0,NA,NA,form submission,13789.8,128680.30000007,128679,128695.7,142485.5,142485.70000005,2024-05-26T12:53:14Z,142494.8,Theorie,nadharia,d,ushungi,mkutano,uwakilishi,nadharia,NA,NA,NULL,NA,NA,NA,NA,NA,NA,NA,NA,NA,NA,NA,NA,NA,NA,NA,NA,NA,NA,NA
909c4,Save data screen,canvas.Screen,1_14_0_1,NA,NA,timeout,500.20000000001,142487.39999998,142478.412,142494.8,142978.3,142979.10000002,2024-05-26T12:53:14Z,142995,Theorie,nadharia,d,ushungi,mkutano,uwakilishi,NA,NA,1,NULL,NA,NA,NA,NA,NA,NA,NA,NA,NA,NA,NA,NA,NA,NA,NA,NA,NA,NA,NA
909c4,deep,flow.Sequence,1_14_0,NA,NA,completion,14282.6,128680.30000007,128679,128695.7,142978.3,142979.30000007,2024-05-26T12:53:14Z,142995,Theorie,nadharia,d,ushungi,mkutano,uwakilishi,NA,NA,NA,NULL,NA,NA,NA,NA,NA,NA,NA,NA,NA,NA,NA,NA,NA,NA,NA,NA,NA,NA,NA
909c4,task,flow.Sequence,1_14,NA,NA,completion,14282.6,128680.30000007,128679,128695.7,142978.3,142979.5,2024-05-26T12:53:14Z,142995,Theorie,nadharia,d,ushungi,mkutano,uwakilishi,NA,NA,NA,NULL,NA,NA,NA,NA,NA,NA,NA,NA,NA,NA,NA,NA,NA,NA,NA,NA,NA,NA,NA
909c4,Deep Question,html.Page,1_15_0_0,NA,NA,form submission,6153.8000000715,142979.60000002,142978.3,142995,149148.80000007,149149,2024-05-26T12:53:20Z,149161.1,Schock,mshtuko,d,biashara,kukataza,vichekesho,bificu,NA,NA,NULL,NA,NA,NA,NA,NA,NA,NA,NA,NA,NA,NA,NA,NA,NA,NA,NA,NA,NA,NA
909c4,Save data screen,canvas.Screen,1_15_0_1,NA,NA,timeout,500.10000000001,149150.39999998,149144.76,149161.1,149644.7,149645.5,2024-05-26T12:53:21Z,149661.2,Schock,mshtuko,d,biashara,kukataza,vichekesho,NA,NA,0,NULL,NA,NA,NA,NA,NA,NA,NA,NA,NA,NA,NA,NA,NA,NA,NA,NA,NA,NA,NA
909c4,deep,flow.Sequence,1_15_0,NA,NA,completion,6649.7,142979.60000002,142978.3,142995,149644.7,149645.70000005,2024-05-26T12:53:21Z,149661.2,Schock,mshtuko,d,biashara,kukataza,vichekesho,NA,NA,NA,NULL,NA,NA,NA,NA,NA,NA,NA,NA,NA,NA,NA,NA,NA,NA,NA,NA,NA,NA,NA
909c4,task,flow.Sequence,1_15,NA,NA,completion,6649.7,142979.60000002,142978.3,142995,149644.7,149645.80000007,2024-05-26T12:53:21Z,149661.2,Schock,mshtuko,d,biashara,kukataza,vichekesho,NA,NA,NA,NULL,NA,NA,NA,NA,NA,NA,NA,NA,NA,NA,NA,NA,NA,NA,NA,NA,NA,NA,NA
909c4,retrieval block 1 (cued recall),flow.Loop,1,NA,NA,completion,146609.8,3032.3000000715,3018.3,3034.9,149644.7,149646,2024-05-26T12:53:21Z,149661.2,NA,NA,NA,NA,NA,NA,NA,NA,NA,NULL,NA,NA,NA,NA,NA,NA,NA,NA,NA,NA,NA,NA,NA,NA,NA,NA,NA,NA,NA
909c4,Shallow Question,html.Page,2_0_0_0,NA,NA,form submission,15992.000000048,149646.20000005,149644.7,149661.2,165653.20000005,165653.39999998,2024-05-26T12:53:37Z,165660.3,Schock,mshtuko,d,biashara,kukataza,vichekesho,mshtuko,NA,NA,"c(""distractor1"", ""distractor2"", ""distractor3"")",NA,NA,NA,NA,NA,NA,NA,NA,NA,NA,NA,NA,NA,NA,NA,NA,NA,NA,NA
909c4,Save data screen,canvas.Screen,2_0_0_1,NA,NA,timeout,500,165655,165643.8,165660.3,166143.7,166144.39999998,2024-05-26T12:53:37Z,166160.3,Schock,mshtuko,d,biashara,kukataza,vichekesho,NA,NA,1,"c(""distractor1"", ""distractor2"", ""distractor3"")",NA,NA,NA,NA,NA,NA,NA,NA,NA,NA,NA,NA,NA,NA,NA,NA,NA,NA,NA
909c4,shallow,flow.Sequence,2_0_0,NA,NA,completion,16482.5,149646.20000005,149644.7,149661.2,166143.7,166144.60000002,2024-05-26T12:53:37Z,166160.3,Schock,mshtuko,d,biashara,kukataza,vichekesho,NA,NA,NA,"c(""distractor1"", ""distractor2"", ""distractor3"")",NA,NA,NA,NA,NA,NA,NA,NA,NA,NA,NA,NA,NA,NA,NA,NA,NA,NA,NA
909c4,task,flow.Sequence,2_0,NA,NA,completion,16482.5,149646.20000005,149644.7,149661.2,166143.7,166144.60000002,2024-05-26T12:53:37Z,166160.3,Schock,mshtuko,d,biashara,kukataza,vichekesho,NA,NA,NA,"c(""distractor1"", ""distractor2"", ""distractor3"")",NA,NA,NA,NA,NA,NA,NA,NA,NA,NA,NA,NA,NA,NA,NA,NA,NA,NA,NA
909c4,Shallow Question,html.Page,2_1_0_0,NA,NA,form submission,3948.8000000239,166144.70000005,166143.7,166160.3,170109.10000002,170109.20000005,2024-05-26T12:53:41Z,170110.294,Theorie,nadharia,d,ushungi,mkutano,uwakilishi,nadharia,NA,NA,"c(""distractor1"", ""distractor2"", ""distractor3"")",NA,NA,NA,NA,NA,NA,NA,NA,NA,NA,NA,NA,NA,NA,NA,NA,NA,NA,NA
909c4,Save data screen,canvas.Screen,2_1_0_1,NA,NA,timeout,499.90600000002,170110.70000005,170110.294,170110.294,170593.6,170594.5,2024-05-26T12:53:42Z,170610.2,Theorie,nadharia,d,ushungi,mkutano,uwakilishi,NA,NA,1,"c(""distractor1"", ""distractor2"", ""distractor3"")",NA,NA,NA,NA,NA,NA,NA,NA,NA,NA,NA,NA,NA,NA,NA,NA,NA,NA,NA
909c4,shallow,flow.Sequence,2_1_0,NA,NA,completion,4433.3,166144.70000005,166143.7,166160.3,170593.6,170594.80000007,2024-05-26T12:53:42Z,170610.2,Theorie,nadharia,d,ushungi,mkutano,uwakilishi,NA,NA,NA,"c(""distractor1"", ""distractor2"", ""distractor3"")",NA,NA,NA,NA,NA,NA,NA,NA,NA,NA,NA,NA,NA,NA,NA,NA,NA,NA,NA
909c4,task,flow.Sequence,2_1,NA,NA,completion,4433.3,166144.60000002,166143.7,166160.3,170593.6,170594.80000007,2024-05-26T12:53:42Z,170610.2,Theorie,nadharia,d,ushungi,mkutano,uwakilishi,NA,NA,NA,"c(""distractor1"", ""distractor2"", ""distractor3"")",NA,NA,NA,NA,NA,NA,NA,NA,NA,NA,NA,NA,NA,NA,NA,NA,NA,NA,NA
909c4,Shallow Question,html.Page,2_2_0_0,NA,NA,form submission,7812.6999999761,170595,170593.6,170610.2,178422.89999998,178423.20000005,2024-05-26T12:53:50Z,178426.4,Hoffnung,matarajio,s,kutaalamika,uratibu,mvumbuzi,matarajio,NA,NA,"c(""distractor1"", ""distractor2"", ""distractor3"")",NA,NA,NA,NA,NA,NA,NA,NA,NA,NA,NA,NA,NA,NA,NA,NA,NA,NA,NA
909c4,Save data screen,canvas.Screen,2_2_0_1,NA,NA,timeout,500,178424.70000005,178409.9,178426.4,178909.7,178910,2024-05-26T12:53:50Z,178926.4,Hoffnung,matarajio,s,kutaalamika,uratibu,mvumbuzi,NA,NA,1,"c(""distractor1"", ""distractor2"", ""distractor3"")",NA,NA,NA,NA,NA,NA,NA,NA,NA,NA,NA,NA,NA,NA,NA,NA,NA,NA,NA
909c4,shallow,flow.Sequence,2_2_0,NA,NA,completion,8299.5,170595,170593.6,170610.2,178909.7,178910,2024-05-26T12:53:50Z,178926.4,Hoffnung,matarajio,s,kutaalamika,uratibu,mvumbuzi,NA,NA,NA,"c(""distractor1"", ""distractor2"", ""distractor3"")",NA,NA,NA,NA,NA,NA,NA,NA,NA,NA,NA,NA,NA,NA,NA,NA,NA,NA,NA
909c4,task,flow.Sequence,2_2,NA,NA,completion,8299.5,170594.89999998,170593.6,170610.2,178909.7,178910,2024-05-26T12:53:50Z,178926.4,Hoffnung,matarajio,s,kutaalamika,uratibu,mvumbuzi,NA,NA,NA,"c(""distractor1"", ""distractor2"", ""distractor3"")",NA,NA,NA,NA,NA,NA,NA,NA,NA,NA,NA,NA,NA,NA,NA,NA,NA,NA,NA
909c4,Shallow Question,html.Page,2_3_0_0,NA,NA,form submission,5642.4999999762,178910.10000002,178909.7,178926.4,184568.89999998,184569.10000002,2024-05-26T12:53:56Z,184576,Schüler,mwanafunzi,s,mwekezaji,matumizi,uaminifu,mwanafunzi,NA,NA,"c(""distractor1"", ""distractor2"", ""distractor3"")",NA,NA,NA,NA,NA,NA,NA,NA,NA,NA,NA,NA,NA,NA,NA,NA,NA,NA,NA
909c4,Save data screen,canvas.Screen,2_3_0_1,NA,NA,timeout,500.10000000001,184570.60000002,184559.664,184576,185059.4,185059.70000005,2024-05-26T12:53:56Z,185076.1,Schüler,mwanafunzi,s,mwekezaji,matumizi,uaminifu,NA,NA,1,"c(""distractor1"", ""distractor2"", ""distractor3"")",NA,NA,NA,NA,NA,NA,NA,NA,NA,NA,NA,NA,NA,NA,NA,NA,NA,NA,NA
909c4,shallow,flow.Sequence,2_3_0,NA,NA,completion,6133,178910.10000002,178909.7,178926.4,185059.4,185059.80000007,2024-05-26T12:53:56Z,185076.1,Schüler,mwanafunzi,s,mwekezaji,matumizi,uaminifu,NA,NA,NA,"c(""distractor1"", ""distractor2"", ""distractor3"")",NA,NA,NA,NA,NA,NA,NA,NA,NA,NA,NA,NA,NA,NA,NA,NA,NA,NA,NA
909c4,task,flow.Sequence,2_3,NA,NA,completion,6133,178910.10000002,178909.7,178926.4,185059.4,185059.80000007,2024-05-26T12:53:56Z,185076.1,Schüler,mwanafunzi,s,mwekezaji,matumizi,uaminifu,NA,NA,NA,"c(""distractor1"", ""distractor2"", ""distractor3"")",NA,NA,NA,NA,NA,NA,NA,NA,NA,NA,NA,NA,NA,NA,NA,NA,NA,NA,NA
909c4,Shallow Question,html.Page,2_4_0_0,NA,NA,form submission,4084.7000000715,185059.80000007,185059.4,185076.1,189160.80000007,189160.89999998,2024-05-26T12:54:00Z,189176.1,Schlange,foleni,d,uvumilivu,uteuzi,muuzaji,foleni,NA,NA,"c(""distractor1"", ""distractor2"", ""distractor3"")",NA,NA,NA,NA,NA,NA,NA,NA,NA,NA,NA,NA,NA,NA,NA,NA,NA,NA,NA
909c4,Save data screen,canvas.Screen,2_4_0_1,NA,NA,timeout,499.69999999998,189162.5,189159.41,189176.1,189659,189659.5,2024-05-26T12:54:01Z,189675.8,Schlange,foleni,d,uvumilivu,uteuzi,muuzaji,NA,NA,1,"c(""distractor1"", ""distractor2"", ""distractor3"")",NA,NA,NA,NA,NA,NA,NA,NA,NA,NA,NA,NA,NA,NA,NA,NA,NA,NA,NA
909c4,shallow,flow.Sequence,2_4_0,NA,NA,completion,4582.9,185059.80000007,185059.4,185076.1,189659,189659.60000002,2024-05-26T12:54:01Z,189675.8,Schlange,foleni,d,uvumilivu,uteuzi,muuzaji,NA,NA,NA,"c(""distractor1"", ""distractor2"", ""distractor3"")",NA,NA,NA,NA,NA,NA,NA,NA,NA,NA,NA,NA,NA,NA,NA,NA,NA,NA,NA
909c4,task,flow.Sequence,2_4,NA,NA,completion,4582.9,185059.80000007,185059.4,185076.1,189659,189659.60000002,2024-05-26T12:54:01Z,189675.8,Schlange,foleni,d,uvumilivu,uteuzi,muuzaji,NA,NA,NA,"c(""distractor1"", ""distractor2"", ""distractor3"")",NA,NA,NA,NA,NA,NA,NA,NA,NA,NA,NA,NA,NA,NA,NA,NA,NA,NA,NA
909c4,Shallow Question,html.Page,2_5_0_0,NA,NA,form submission,6382.8000000239,189659.60000002,189659,189675.8,196058.60000002,196058.80000007,2024-05-26T12:54:07Z,196076.6,Notfall,dharura,s,rairai,malalamiko,ahueni,dharura,NA,NA,"c(""distractor1"", ""distractor2"", ""distractor3"")",NA,NA,NA,NA,NA,NA,NA,NA,NA,NA,NA,NA,NA,NA,NA,NA,NA,NA,NA
909c4,Save data screen,canvas.Screen,2_5_0_1,NA,NA,timeout,498.79999999999,196060.30000007,196059.062,196076.6,196558.7,196559,2024-05-26T12:54:08Z,196575.4,Notfall,dharura,s,rairai,malalamiko,ahueni,NA,NA,1,"c(""distractor1"", ""distractor2"", ""distractor3"")",NA,NA,NA,NA,NA,NA,NA,NA,NA,NA,NA,NA,NA,NA,NA,NA,NA,NA,NA
909c4,shallow,flow.Sequence,2_5_0,NA,NA,completion,6882.9,189659.60000002,189659,189675.8,196558.7,196559.10000002,2024-05-26T12:54:08Z,196575.4,Notfall,dharura,s,rairai,malalamiko,ahueni,NA,NA,NA,"c(""distractor1"", ""distractor2"", ""distractor3"")",NA,NA,NA,NA,NA,NA,NA,NA,NA,NA,NA,NA,NA,NA,NA,NA,NA,NA,NA
909c4,task,flow.Sequence,2_5,NA,NA,completion,6882.9,189659.60000002,189659,189675.8,196558.7,196559.20000005,2024-05-26T12:54:08Z,196575.4,Notfall,dharura,s,rairai,malalamiko,ahueni,NA,NA,NA,"c(""distractor1"", ""distractor2"", ""distractor3"")",NA,NA,NA,NA,NA,NA,NA,NA,NA,NA,NA,NA,NA,NA,NA,NA,NA,NA,NA
909c4,Shallow Question,html.Page,2_6_0_0,NA,NA,form submission,8155.1,196559.30000007,196558.7,196575.4,204730.5,204730.70000005,2024-05-26T12:54:16Z,204741.9,Vergnügen,kichekesho,s,dubwana,mpanuko,mtesaji,kichekesho,NA,NA,"c(""distractor1"", ""distractor2"", ""distractor3"")",NA,NA,NA,NA,NA,NA,NA,NA,NA,NA,NA,NA,NA,NA,NA,NA,NA,NA,NA
909c4,Save data screen,canvas.Screen,2_6_0_1,NA,NA,timeout,499.80000000002,204732.20000005,204725.3,204741.9,205225,205225.39999998,2024-05-26T12:54:16Z,205241.7,Vergnügen,kichekesho,s,dubwana,mpanuko,mtesaji,NA,NA,1,"c(""distractor1"", ""distractor2"", ""distractor3"")",NA,NA,NA,NA,NA,NA,NA,NA,NA,NA,NA,NA,NA,NA,NA,NA,NA,NA,NA
909c4,shallow,flow.Sequence,2_6_0,NA,NA,completion,8649.6,196559.30000007,196558.7,196575.4,205225,205225.5,2024-05-26T12:54:16Z,205241.7,Vergnügen,kichekesho,s,dubwana,mpanuko,mtesaji,NA,NA,NA,"c(""distractor1"", ""distractor2"", ""distractor3"")",NA,NA,NA,NA,NA,NA,NA,NA,NA,NA,NA,NA,NA,NA,NA,NA,NA,NA,NA
909c4,task,flow.Sequence,2_6,NA,NA,completion,8649.6,196559.30000007,196558.7,196575.4,205225,205225.5,2024-05-26T12:54:16Z,205241.7,Vergnügen,kichekesho,s,dubwana,mpanuko,mtesaji,NA,NA,NA,"c(""distractor1"", ""distractor2"", ""distractor3"")",NA,NA,NA,NA,NA,NA,NA,NA,NA,NA,NA,NA,NA,NA,NA,NA,NA,NA,NA
909c4,Shallow Question,html.Page,2_7_0_0,NA,NA,form submission,3702.6999999761,205225.5,205225,205241.7,208944.39999998,208944.5,2024-05-26T12:54:20Z,208958.3,Spionage,upelelezi,d,maslahi,utokazo,magangao,upelelezi,NA,NA,"c(""distractor1"", ""distractor2"", ""distractor3"")",NA,NA,NA,NA,NA,NA,NA,NA,NA,NA,NA,NA,NA,NA,NA,NA,NA,NA,NA
909c4,Save data screen,canvas.Screen,2_7_0_1,NA,NA,timeout,499.90000000002,208946.10000002,208941.762,208958.3,209441.5,209441.70000005,2024-05-26T12:54:21Z,209458.2,Spionage,upelelezi,d,maslahi,utokazo,magangao,NA,NA,1,"c(""distractor1"", ""distractor2"", ""distractor3"")",NA,NA,NA,NA,NA,NA,NA,NA,NA,NA,NA,NA,NA,NA,NA,NA,NA,NA,NA
909c4,shallow,flow.Sequence,2_7_0,NA,NA,completion,4199.8,205225.5,205225,205241.7,209441.5,209441.80000007,2024-05-26T12:54:21Z,209458.2,Spionage,upelelezi,d,maslahi,utokazo,magangao,NA,NA,NA,"c(""distractor1"", ""distractor2"", ""distractor3"")",NA,NA,NA,NA,NA,NA,NA,NA,NA,NA,NA,NA,NA,NA,NA,NA,NA,NA,NA
909c4,task,flow.Sequence,2_7,NA,NA,completion,4199.8,205225.5,205225,205241.7,209441.5,209441.80000007,2024-05-26T12:54:21Z,209458.2,Spionage,upelelezi,d,maslahi,utokazo,magangao,NA,NA,NA,"c(""distractor1"", ""distractor2"", ""distractor3"")",NA,NA,NA,NA,NA,NA,NA,NA,NA,NA,NA,NA,NA,NA,NA,NA,NA,NA,NA
909c4,Shallow Question,html.Page,2_8_0_0,NA,NA,form submission,3056.1000000715,209441.89999998,209441.5,209458.2,212514.30000007,212514.60000002,2024-05-26T12:54:24Z,212524.9,Fenster,dirisha,d,walakini,tasawari,maarifa,dirisha,NA,NA,"c(""distractor1"", ""distractor2"", ""distractor3"")",NA,NA,NA,NA,NA,NA,NA,NA,NA,NA,NA,NA,NA,NA,NA,NA,NA,NA,NA
909c4,Save data screen,canvas.Screen,2_8_0_1,NA,NA,timeout,499.80000000002,212514.89999998,212508.262,212524.9,213008.1,213008.5,2024-05-26T12:54:24Z,213024.7,Fenster,dirisha,d,walakini,tasawari,maarifa,NA,NA,1,"c(""distractor1"", ""distractor2"", ""distractor3"")",NA,NA,NA,NA,NA,NA,NA,NA,NA,NA,NA,NA,NA,NA,NA,NA,NA,NA,NA
909c4,shallow,flow.Sequence,2_8_0,NA,NA,completion,3549.9,209441.80000007,209441.5,209458.2,213008.1,213008.5,2024-05-26T12:54:24Z,213024.7,Fenster,dirisha,d,walakini,tasawari,maarifa,NA,NA,NA,"c(""distractor1"", ""distractor2"", ""distractor3"")",NA,NA,NA,NA,NA,NA,NA,NA,NA,NA,NA,NA,NA,NA,NA,NA,NA,NA,NA
909c4,task,flow.Sequence,2_8,NA,NA,completion,3549.9,209441.80000007,209441.5,209458.2,213008.1,213008.60000002,2024-05-26T12:54:24Z,213024.7,Fenster,dirisha,d,walakini,tasawari,maarifa,NA,NA,NA,"c(""distractor1"", ""distractor2"", ""distractor3"")",NA,NA,NA,NA,NA,NA,NA,NA,NA,NA,NA,NA,NA,NA,NA,NA,NA,NA,NA
909c4,Shallow Question,html.Page,2_9_0_0,NA,NA,form submission,10457.3,213008.60000002,213008.1,213024.7,223482,223482.20000005,2024-05-26T12:54:35Z,223490.8,Toleranz,kuvumiliana,d,maombolezo,ujasusi,mchekeshaji,kuvumiliana,NA,NA,"c(""distractor1"", ""distractor2"", ""distractor3"")",NA,NA,NA,NA,NA,NA,NA,NA,NA,NA,NA,NA,NA,NA,NA,NA,NA,NA,NA
909c4,Save data screen,canvas.Screen,2_9_0_1,NA,NA,timeout,499.90000000002,223483.20000005,223474.362,223490.8,223974.2,223974.39999998,2024-05-26T12:54:35Z,223990.7,Toleranz,kuvumiliana,d,maombolezo,ujasusi,mchekeshaji,NA,NA,1,"c(""distractor1"", ""distractor2"", ""distractor3"")",NA,NA,NA,NA,NA,NA,NA,NA,NA,NA,NA,NA,NA,NA,NA,NA,NA,NA,NA
909c4,shallow,flow.Sequence,2_9_0,NA,NA,completion,10949.5,213008.60000002,213008.1,213024.7,223974.2,223974.5,2024-05-26T12:54:35Z,223990.7,Toleranz,kuvumiliana,d,maombolezo,ujasusi,mchekeshaji,NA,NA,NA,"c(""distractor1"", ""distractor2"", ""distractor3"")",NA,NA,NA,NA,NA,NA,NA,NA,NA,NA,NA,NA,NA,NA,NA,NA,NA,NA,NA
909c4,task,flow.Sequence,2_9,NA,NA,completion,10949.5,213008.60000002,213008.1,213024.7,223974.2,223974.5,2024-05-26T12:54:35Z,223990.7,Toleranz,kuvumiliana,d,maombolezo,ujasusi,mchekeshaji,NA,NA,NA,"c(""distractor1"", ""distractor2"", ""distractor3"")",NA,NA,NA,NA,NA,NA,NA,NA,NA,NA,NA,NA,NA,NA,NA,NA,NA,NA,NA
909c4,Shallow Question,html.Page,2_10_0_0,NA,NA,form submission,5253.4000000238,223974.60000002,223974.2,223990.7,229244.10000002,229244.30000007,2024-05-26T12:54:40Z,229257.2,Wohlstand,mafanikio,d,chimbuko,kumbuko,mapwaji,mafanikio,NA,NA,"c(""distractor1"", ""distractor2"", ""distractor3"")",NA,NA,NA,NA,NA,NA,NA,NA,NA,NA,NA,NA,NA,NA,NA,NA,NA,NA,NA
909c4,Save data screen,canvas.Screen,2_10_0_1,NA,NA,timeout,500,229245.70000005,229240.8,229257.2,229740.4,229741.30000007,2024-05-26T12:54:41Z,229757.2,Wohlstand,mafanikio,d,chimbuko,kumbuko,mapwaji,NA,NA,1,"c(""distractor1"", ""distractor2"", ""distractor3"")",NA,NA,NA,NA,NA,NA,NA,NA,NA,NA,NA,NA,NA,NA,NA,NA,NA,NA,NA
909c4,shallow,flow.Sequence,2_10_0,NA,NA,completion,5749.7,223974.5,223974.2,223990.7,229740.4,229741.39999998,2024-05-26T12:54:41Z,229757.2,Wohlstand,mafanikio,d,chimbuko,kumbuko,mapwaji,NA,NA,NA,"c(""distractor1"", ""distractor2"", ""distractor3"")",NA,NA,NA,NA,NA,NA,NA,NA,NA,NA,NA,NA,NA,NA,NA,NA,NA,NA,NA
909c4,task,flow.Sequence,2_10,NA,NA,completion,5749.7,223974.5,223974.2,223990.7,229740.4,229741.39999998,2024-05-26T12:54:41Z,229757.2,Wohlstand,mafanikio,d,chimbuko,kumbuko,mapwaji,NA,NA,NA,"c(""distractor1"", ""distractor2"", ""distractor3"")",NA,NA,NA,NA,NA,NA,NA,NA,NA,NA,NA,NA,NA,NA,NA,NA,NA,NA,NA
909c4,Shallow Question,html.Page,2_11_0_0,NA,NA,form submission,7210.6999999761,229741.5,229740.4,229757.2,236967.89999998,236968,2024-05-26T12:54:48Z,236973.6,Ergänzung,kijalizo,d,ulaghai,mustarehe,matangazo,kijalizo,NA,NA,"c(""distractor1"", ""distractor2"", ""distractor3"")",NA,NA,NA,NA,NA,NA,NA,NA,NA,NA,NA,NA,NA,NA,NA,NA,NA,NA,NA
909c4,Save data screen,canvas.Screen,2_11_0_1,NA,NA,timeout,499.79999999999,236969.60000002,236957.028,236973.6,237456.8,237457.10000002,2024-05-26T12:54:49Z,237473.4,Ergänzung,kijalizo,d,ulaghai,mustarehe,matangazo,NA,NA,1,"c(""distractor1"", ""distractor2"", ""distractor3"")",NA,NA,NA,NA,NA,NA,NA,NA,NA,NA,NA,NA,NA,NA,NA,NA,NA,NA,NA
909c4,shallow,flow.Sequence,2_11_0,NA,NA,completion,7699.6,229741.39999998,229740.4,229757.2,237456.8,237457.20000005,2024-05-26T12:54:49Z,237473.4,Ergänzung,kijalizo,d,ulaghai,mustarehe,matangazo,NA,NA,NA,"c(""distractor1"", ""distractor2"", ""distractor3"")",NA,NA,NA,NA,NA,NA,NA,NA,NA,NA,NA,NA,NA,NA,NA,NA,NA,NA,NA
909c4,task,flow.Sequence,2_11,NA,NA,completion,7699.6,229741.39999998,229740.4,229757.2,237456.8,237457.20000005,2024-05-26T12:54:49Z,237473.4,Ergänzung,kijalizo,d,ulaghai,mustarehe,matangazo,NA,NA,NA,"c(""distractor1"", ""distractor2"", ""distractor3"")",NA,NA,NA,NA,NA,NA,NA,NA,NA,NA,NA,NA,NA,NA,NA,NA,NA,NA,NA
909c4,Shallow Question,html.Page,2_12_0_0,NA,NA,form submission,5707.9999999762,237457.20000005,237456.8,237473.4,243181.39999998,243181.60000002,2024-05-26T12:54:54Z,243206.5,Tester,wanaojaribu,s,sherti,sihiri,mlipuko,sihiri,NA,NA,"c(""distractor1"", ""distractor2"", ""distractor3"")",NA,NA,NA,NA,NA,NA,NA,NA,NA,NA,NA,NA,NA,NA,NA,NA,NA,NA,NA
909c4,Save data screen,canvas.Screen,2_12_0_1,NA,NA,timeout,500,243182.60000002,243189.866,243206.5,243689.8,243690.10000002,2024-05-26T12:54:55Z,243706.5,Tester,wanaojaribu,s,sherti,sihiri,mlipuko,NA,NA,0,"c(""distractor1"", ""distractor2"", ""distractor3"")",NA,NA,NA,NA,NA,NA,NA,NA,NA,NA,NA,NA,NA,NA,NA,NA,NA,NA,NA
909c4,shallow,flow.Sequence,2_12_0,NA,NA,completion,6216.4,237457.20000005,237456.8,237473.4,243689.8,243690.20000005,2024-05-26T12:54:55Z,243706.5,Tester,wanaojaribu,s,sherti,sihiri,mlipuko,NA,NA,NA,"c(""distractor1"", ""distractor2"", ""distractor3"")",NA,NA,NA,NA,NA,NA,NA,NA,NA,NA,NA,NA,NA,NA,NA,NA,NA,NA,NA
909c4,task,flow.Sequence,2_12,NA,NA,completion,6216.4,237457.20000005,237456.8,237473.4,243689.8,243690.20000005,2024-05-26T12:54:55Z,243706.5,Tester,wanaojaribu,s,sherti,sihiri,mlipuko,NA,NA,NA,"c(""distractor1"", ""distractor2"", ""distractor3"")",NA,NA,NA,NA,NA,NA,NA,NA,NA,NA,NA,NA,NA,NA,NA,NA,NA,NA,NA
909c4,Shallow Question,html.Page,2_13_0_0,NA,NA,form submission,12688.899999976,243690.20000005,243689.8,243706.5,256395.39999998,256395.70000005,2024-05-26T12:55:08Z,256406.1,Inhalt,yaliyomo,s,kishawishi,hifadhi,kutembea,yaliyomo,NA,NA,"c(""distractor1"", ""distractor2"", ""distractor3"")",NA,NA,NA,NA,NA,NA,NA,NA,NA,NA,NA,NA,NA,NA,NA,NA,NA,NA,NA
909c4,Save data screen,canvas.Screen,2_13_0_1,NA,NA,timeout,500,256397.20000005,256389.478,256406.1,256889.3,256890,2024-05-26T12:55:08Z,256906.1,Inhalt,yaliyomo,s,kishawishi,hifadhi,kutembea,NA,NA,1,"c(""distractor1"", ""distractor2"", ""distractor3"")",NA,NA,NA,NA,NA,NA,NA,NA,NA,NA,NA,NA,NA,NA,NA,NA,NA,NA,NA
909c4,shallow,flow.Sequence,2_13_0,NA,NA,completion,13182.8,243690.20000005,243689.8,243706.5,256889.3,256890.20000005,2024-05-26T12:55:08Z,256906.1,Inhalt,yaliyomo,s,kishawishi,hifadhi,kutembea,NA,NA,NA,"c(""distractor1"", ""distractor2"", ""distractor3"")",NA,NA,NA,NA,NA,NA,NA,NA,NA,NA,NA,NA,NA,NA,NA,NA,NA,NA,NA
909c4,task,flow.Sequence,2_13,NA,NA,completion,13182.8,243690.20000005,243689.8,243706.5,256889.3,256890.30000007,2024-05-26T12:55:08Z,256906.1,Inhalt,yaliyomo,s,kishawishi,hifadhi,kutembea,NA,NA,NA,"c(""distractor1"", ""distractor2"", ""distractor3"")",NA,NA,NA,NA,NA,NA,NA,NA,NA,NA,NA,NA,NA,NA,NA,NA,NA,NA,NA
909c4,Shallow Question,html.Page,2_14_0_0,NA,NA,form submission,8105.1000000477,256890.5,256889.3,256906.1,265011.20000005,265011.30000007,2024-05-26T12:55:16Z,265022.2,Verpackung,ufungaji,s,uhusiano,upimaji,uchunguzi,ufungaji,NA,NA,"c(""distractor1"", ""distractor2"", ""distractor3"")",NA,NA,NA,NA,NA,NA,NA,NA,NA,NA,NA,NA,NA,NA,NA,NA,NA,NA,NA
909c4,Save data screen,canvas.Screen,2_14_0_1,NA,NA,timeout,499.89999999997,265013,265005.696,265022.2,265505.4,265505.60000002,2024-05-26T12:55:17Z,265522.1,Verpackung,ufungaji,s,uhusiano,upimaji,uchunguzi,NA,NA,1,"c(""distractor1"", ""distractor2"", ""distractor3"")",NA,NA,NA,NA,NA,NA,NA,NA,NA,NA,NA,NA,NA,NA,NA,NA,NA,NA,NA
909c4,shallow,flow.Sequence,2_14_0,NA,NA,completion,8599.3,256890.39999998,256889.3,256906.1,265505.4,265505.70000005,2024-05-26T12:55:17Z,265522.1,Verpackung,ufungaji,s,uhusiano,upimaji,uchunguzi,NA,NA,NA,"c(""distractor1"", ""distractor2"", ""distractor3"")",NA,NA,NA,NA,NA,NA,NA,NA,NA,NA,NA,NA,NA,NA,NA,NA,NA,NA,NA
909c4,task,flow.Sequence,2_14,NA,NA,completion,8599.3,256890.39999998,256889.3,256906.1,265505.4,265505.80000007,2024-05-26T12:55:17Z,265522.1,Verpackung,ufungaji,s,uhusiano,upimaji,uchunguzi,NA,NA,NA,"c(""distractor1"", ""distractor2"", ""distractor3"")",NA,NA,NA,NA,NA,NA,NA,NA,NA,NA,NA,NA,NA,NA,NA,NA,NA,NA,NA
909c4,Shallow Question,html.Page,2_15_0_0,NA,NA,form submission,6346.7999999762,265505.89999998,265505.4,265522.1,271868.89999998,271869.10000002,2024-05-26T12:55:23Z,271871.8,Vermutung,udhanifu,s,haramia,tikisho,itifaki,udhanifu,NA,NA,"c(""distractor1"", ""distractor2"", ""distractor3"")",NA,NA,NA,NA,NA,NA,NA,NA,NA,NA,NA,NA,NA,NA,NA,NA,NA,NA,NA
909c4,Save data screen,canvas.Screen,2_15_0_1,NA,NA,timeout,499.90000000002,271870.60000002,271855.3,271871.8,272355.1,272355.39999998,2024-05-26T12:55:24Z,272371.7,Vermutung,udhanifu,s,haramia,tikisho,itifaki,NA,NA,1,"c(""distractor1"", ""distractor2"", ""distractor3"")",NA,NA,NA,NA,NA,NA,NA,NA,NA,NA,NA,NA,NA,NA,NA,NA,NA,NA,NA
909c4,shallow,flow.Sequence,2_15_0,NA,NA,completion,6833,265505.80000007,265505.4,265522.1,272355.1,272355.39999998,2024-05-26T12:55:24Z,272371.7,Vermutung,udhanifu,s,haramia,tikisho,itifaki,NA,NA,NA,"c(""distractor1"", ""distractor2"", ""distractor3"")",NA,NA,NA,NA,NA,NA,NA,NA,NA,NA,NA,NA,NA,NA,NA,NA,NA,NA,NA
909c4,task,flow.Sequence,2_15,NA,NA,completion,6833,265505.80000007,265505.4,265522.1,272355.1,272355.5,2024-05-26T12:55:24Z,272371.7,Vermutung,udhanifu,s,haramia,tikisho,itifaki,NA,NA,NA,"c(""distractor1"", ""distractor2"", ""distractor3"")",NA,NA,NA,NA,NA,NA,NA,NA,NA,NA,NA,NA,NA,NA,NA,NA,NA,NA,NA
909c4,retrieval block 2 (multiple choice),flow.Loop,2,NA,NA,completion,122693.9,149646.10000002,149644.7,149661.2,272355.1,272355.60000002,2024-05-26T12:55:24Z,272371.7,NA,NA,NA,NA,NA,NA,NA,NA,NA,"c(""distractor1"", ""distractor2"", ""distractor3"")",NA,NA,NA,NA,NA,NA,NA,NA,NA,NA,NA,NA,NA,NA,NA,NA,NA,NA,NA
909c4,End,canvas.Screen,3,NA,keypress(Space),response,9408.5000000477,272355.60000002,272355.1,272371.7,281780.20000005,281781.30000007,2024-05-26T12:55:33Z,281804.6,NA,NA,NA,NA,NA,NA,NA,NA,NA,NULL,NA,NA,NA,NA,NA,NA,NA,NA,NA,NA,NA,NA,NA,NA,NA,NA,NA,NA,NA
909c4,root,flow.Sequence,NA,NA,NA,completion,281078.50000005,692.89999997616,685,701.7,281780.20000005,281781.5,2024-05-26T12:55:33Z,281804.6,NA,NA,NA,NA,NA,NA,NA,NA,NA,NULL,NA,NA,NA,NA,NA,NA,NA,NA,NA,NA,NA,NA,NA,NA,NA,NA,NA,NA,NA
