observation,sender,sender_type,sender_id,response,response_action,ended_on,duration,time_run,time_render,time_show,time_end,time_commit,timestamp,time_switch,distractors,german,swahili,enc,distractor1,distractor2,distractor3,response_2,x,correct,x_2,url_vp,url_sess,meta_labjs_version,meta_location,meta_user_agent,meta_platform,meta_language,meta_locale,meta_time_zone,meta_timezone_offset,meta_screen_width,meta_screen_height,meta_scroll_width,meta_scroll_height,meta_window_inner_width,meta_window_inner_height,meta_device_pixel_ratio,meta_labjs_build_flavor,meta_labjs_build_commit
7f2bc,Introduction general,canvas.Screen,0,weiter,keypress(q),response,118337.8,370.90000003576,360.224,376.7,118714.5,118721.40000004,2024-04-30T09:28:46Z,118721.538,NULL,NA,NA,NA,NA,NA,NA,NA,NA,NA,NA,226,1,20.2.4,https://neurocog.fernuni.ch/studies/vweber/aberisha/encoding_immediate/index.html?vp=226&sess=1,"Mozilla/5.0 (Windows NT 10.0; Win64; x64) AppleWebKit/537.36 (KHTML, like Gecko) Chrome/124.0.0.0 Safari/537.36",Win32,de-DE,de,Europe/Zurich,-120,1536,864,1536,682,1536,730,1.25,production,f5b4a49f956347addd546a832a3327688c2c0fef
7f2bc,Introduction practice,canvas.Screen,1_0,NA,keypress(Space),response,8167.7620000119005,118721.60000002,118721.538,118721.538,126889.30000001,126890.40000004,2024-04-30T09:28:54Z,126932.9,NULL,NA,NA,NA,NA,NA,NA,NA,NA,NA,NA,NA,NA,NA,NA,NA,NA,NA,NA,NA,NA,NA,NA,NA,NA,NA,NA,NA,NA,NA
7f2bc,deep,flow.Sequence,1_1_0_0,NA,NA,skipped,NA,126890.90000004,NA,NA,126889.30000001,126894.69999999,2024-04-30T09:28:54Z,126932.9,"c(""distractor1"", ""distractor2"", ""distractor3"")",Rückhalt,msaada,s,muhula,auwali,kiwimbe,NA,NA,NA,NA,NA,NA,NA,NA,NA,NA,NA,NA,NA,NA,NA,NA,NA,NA,NA,NA,NA,NA,NA
7f2bc,Shallow Question,html.Page,1_1_0_1_0,NA,NA,form submission,9041.5000000358,126895,126890.5,126932.9,135974.40000004,135974.69999999,2024-04-30T09:29:03Z,135994.3,"c(""distractor1"", ""distractor2"", ""distractor3"")",Rückhalt,msaada,s,muhula,auwali,kiwimbe,msaada,NA,NA,NA,NA,NA,NA,NA,NA,NA,NA,NA,NA,NA,NA,NA,NA,NA,NA,NA,NA,NA,NA
7f2bc,"""Richtig""-Screen",canvas.Screen,1_1_0_1_1,NA,NA,timeout,4996.8,135975.69999999,135977.5,135994.3,140974.3,140979.19999999,2024-04-30T09:29:08Z,140991.1,"c(""distractor1"", ""distractor2"", ""distractor3"")",Rückhalt,msaada,s,muhula,auwali,kiwimbe,NA,NA,1,NA,NA,NA,NA,NA,NA,NA,NA,NA,NA,NA,NA,NA,NA,NA,NA,NA,NA,NA,NA
7f2bc,"""Falsch""-Screen",canvas.Screen,1_1_0_1_2,NA,NA,skipped,NA,140980.69999999,NA,NA,140974.3,140980.69999999,2024-04-30T09:29:08Z,140991.1,"c(""distractor1"", ""distractor2"", ""distractor3"")",Rückhalt,msaada,s,muhula,auwali,kiwimbe,NA,NA,NA,NA,NA,NA,NA,NA,NA,NA,NA,NA,NA,NA,NA,NA,NA,NA,NA,NA,NA,NA,NA
7f2bc,shallow,flow.Sequence,1_1_0_1,NA,NA,completion,14041.4,126895,126890.5,126932.9,140974.3,140980.90000004,2024-04-30T09:29:08Z,140991.1,"c(""distractor1"", ""distractor2"", ""distractor3"")",Rückhalt,msaada,s,muhula,auwali,kiwimbe,NA,NA,NA,NA,NA,NA,NA,NA,NA,NA,NA,NA,NA,NA,NA,NA,NA,NA,NA,NA,NA,NA,NA
7f2bc,task,flow.Sequence,1_1_0,NA,NA,completion,14041.4,126890.80000001,126890.5,126932.9,140974.3,140980.90000004,2024-04-30T09:29:08Z,140991.1,"c(""distractor1"", ""distractor2"", ""distractor3"")",Rückhalt,msaada,s,muhula,auwali,kiwimbe,NA,NA,NA,NA,NA,NA,NA,NA,NA,NA,NA,NA,NA,NA,NA,NA,NA,NA,NA,NA,NA,NA,NA
7f2bc,deep,flow.Sequence,1_1_1_0,NA,NA,skipped,NA,140980.90000004,NA,NA,140974.3,140981,2024-04-30T09:29:08Z,140991.1,"c(""distractor1"", ""distractor2"", ""distractor3"")",Kritik,lawama,s,dereva,nafasi,mawazo,NA,NA,NA,NA,NA,NA,NA,NA,NA,NA,NA,NA,NA,NA,NA,NA,NA,NA,NA,NA,NA,NA,NA
7f2bc,Shallow Question,html.Page,1_1_1_1_0,NA,NA,form submission,7831.0999999881,140981.10000002,140974.3,140991.1,148822.19999999,148822.40000004,2024-04-30T09:29:16Z,148836.3,"c(""distractor1"", ""distractor2"", ""distractor3"")",Kritik,lawama,s,dereva,nafasi,mawazo,mawazo,NA,NA,NA,NA,NA,NA,NA,NA,NA,NA,NA,NA,NA,NA,NA,NA,NA,NA,NA,NA,NA,NA
7f2bc,"""Richtig""-Screen",canvas.Screen,1_1_1_1_1,NA,NA,skipped,NA,148824.10000002,NA,NA,148822.19999999,148824.19999999,2024-04-30T09:29:16Z,148836.3,"c(""distractor1"", ""distractor2"", ""distractor3"")",Kritik,lawama,s,dereva,nafasi,mawazo,NA,NA,NA,NA,NA,NA,NA,NA,NA,NA,NA,NA,NA,NA,NA,NA,NA,NA,NA,NA,NA,NA,NA
7f2bc,"""Falsch""-Screen",canvas.Screen,1_1_1_1_2,NA,NA,timeout,4997,148824.69999999,148820,148836.3,153816.6,153817.60000002,2024-04-30T09:29:21Z,153833.3,"c(""distractor1"", ""distractor2"", ""distractor3"")",Kritik,lawama,s,dereva,nafasi,mawazo,NA,NA,0,NA,NA,NA,NA,NA,NA,NA,NA,NA,NA,NA,NA,NA,NA,NA,NA,NA,NA,NA,NA
7f2bc,shallow,flow.Sequence,1_1_1_1,NA,NA,completion,12825.5,140981,140974.3,140991.1,153816.6,153818.10000002,2024-04-30T09:29:21Z,153833.3,"c(""distractor1"", ""distractor2"", ""distractor3"")",Kritik,lawama,s,dereva,nafasi,mawazo,NA,NA,NA,NA,NA,NA,NA,NA,NA,NA,NA,NA,NA,NA,NA,NA,NA,NA,NA,NA,NA,NA,NA
7f2bc,task,flow.Sequence,1_1_1,NA,NA,completion,12825.5,140980.90000004,140974.3,140991.1,153816.6,153818.30000001,2024-04-30T09:29:21Z,153833.3,"c(""distractor1"", ""distractor2"", ""distractor3"")",Kritik,lawama,s,dereva,nafasi,mawazo,NA,NA,NA,NA,NA,NA,NA,NA,NA,NA,NA,NA,NA,NA,NA,NA,NA,NA,NA,NA,NA,NA,NA
7f2bc,Deep Question,html.Page,1_1_2_0_0,NA,NA,form submission,9706.8999999881,153818.60000002,153816.6,153833.3,163540.19999999,163540.40000004,2024-04-30T09:29:31Z,163544.52,"c(""distractor1"", ""distractor2"", ""distractor3"")",Schatten,kivuli,d,NA,NA,NA,lowami,NA,NA,NA,NA,NA,NA,NA,NA,NA,NA,NA,NA,NA,NA,NA,NA,NA,NA,NA,NA,NA,NA
7f2bc,"""Richtig""-Screen",canvas.Screen,1_1_2_0_1,NA,NA,skipped,NA,163542.69999999,NA,NA,163540.19999999,163542.80000001,2024-04-30T09:29:31Z,163544.52,"c(""distractor1"", ""distractor2"", ""distractor3"")",Schatten,kivuli,d,NA,NA,NA,NA,NA,NA,NA,NA,NA,NA,NA,NA,NA,NA,NA,NA,NA,NA,NA,NA,NA,NA,NA,NA,NA,NA
7f2bc,"""Falsch""-Screen",canvas.Screen,1_1_2_0_2,NA,NA,timeout,4996.58,163543.60000002,163544.52,163544.52,168524.5,168525.69999999,2024-04-30T09:29:36Z,168541.1,"c(""distractor1"", ""distractor2"", ""distractor3"")",Schatten,kivuli,d,NA,NA,NA,NA,NA,0,NA,NA,NA,NA,NA,NA,NA,NA,NA,NA,NA,NA,NA,NA,NA,NA,NA,NA,NA,NA
7f2bc,deep,flow.Sequence,1_1_2_0,NA,NA,completion,14691.2,153818.5,153816.6,153833.3,168524.5,168526.10000002,2024-04-30T09:29:36Z,168541.1,"c(""distractor1"", ""distractor2"", ""distractor3"")",Schatten,kivuli,d,NA,NA,NA,NA,NA,NA,NA,NA,NA,NA,NA,NA,NA,NA,NA,NA,NA,NA,NA,NA,NA,NA,NA,NA,NA,NA
7f2bc,shallow,flow.Sequence,1_1_2_1,NA,NA,skipped,NA,168526.19999999,NA,NA,168524.5,168526.40000004,2024-04-30T09:29:36Z,168541.1,"c(""distractor1"", ""distractor2"", ""distractor3"")",Schatten,kivuli,d,NA,NA,NA,NA,NA,NA,NA,NA,NA,NA,NA,NA,NA,NA,NA,NA,NA,NA,NA,NA,NA,NA,NA,NA,NA,NA
7f2bc,task,flow.Sequence,1_1_2,NA,NA,completion,14691.2,153818.5,153816.6,153833.3,168524.5,168526.69999999,2024-04-30T09:29:36Z,168541.1,"c(""distractor1"", ""distractor2"", ""distractor3"")",Schatten,kivuli,d,NA,NA,NA,NA,NA,NA,NA,NA,NA,NA,NA,NA,NA,NA,NA,NA,NA,NA,NA,NA,NA,NA,NA,NA,NA,NA
7f2bc,Deep Question,html.Page,1_1_3_0_0,NA,NA,form submission,8549.5999999881,168526.90000004,168524.5,168541.1,177090.69999999,177091,2024-04-30T09:29:44Z,177118.8,"c(""distractor1"", ""distractor2"", ""distractor3"")",Gesundheit,salama,d,NA,NA,NA,zumani,NA,NA,NA,NA,NA,NA,NA,NA,NA,NA,NA,NA,NA,NA,NA,NA,NA,NA,NA,NA,NA,NA
7f2bc,"""Richtig""-Screen",canvas.Screen,1_1_3_0_1,NA,NA,skipped,NA,177093.90000004,NA,NA,177090.69999999,177094.10000002,2024-04-30T09:29:44Z,177118.8,"c(""distractor1"", ""distractor2"", ""distractor3"")",Gesundheit,salama,d,NA,NA,NA,NA,NA,NA,NA,NA,NA,NA,NA,NA,NA,NA,NA,NA,NA,NA,NA,NA,NA,NA,NA,NA,NA,NA
7f2bc,"""Falsch""-Screen",canvas.Screen,1_1_3_0_2,NA,NA,timeout,4997.4,177095.19999999,177102.2,177118.8,182099.5,182100.5,2024-04-30T09:29:49Z,182116.2,"c(""distractor1"", ""distractor2"", ""distractor3"")",Gesundheit,salama,d,NA,NA,NA,NA,NA,0,NA,NA,NA,NA,NA,NA,NA,NA,NA,NA,NA,NA,NA,NA,NA,NA,NA,NA,NA,NA
7f2bc,deep,flow.Sequence,1_1_3_0,NA,NA,completion,13558.4,168526.90000004,168524.5,168541.1,182099.5,182100.90000004,2024-04-30T09:29:49Z,182116.2,"c(""distractor1"", ""distractor2"", ""distractor3"")",Gesundheit,salama,d,NA,NA,NA,NA,NA,NA,NA,NA,NA,NA,NA,NA,NA,NA,NA,NA,NA,NA,NA,NA,NA,NA,NA,NA,NA,NA
7f2bc,shallow,flow.Sequence,1_1_3_1,NA,NA,skipped,NA,182101,NA,NA,182099.5,182101.10000002,2024-04-30T09:29:49Z,182116.2,"c(""distractor1"", ""distractor2"", ""distractor3"")",Gesundheit,salama,d,NA,NA,NA,NA,NA,NA,NA,NA,NA,NA,NA,NA,NA,NA,NA,NA,NA,NA,NA,NA,NA,NA,NA,NA,NA,NA
7f2bc,task,flow.Sequence,1_1_3,NA,NA,completion,13558.4,168526.90000004,168524.5,168541.1,182099.5,182101.40000004,2024-04-30T09:29:49Z,182116.2,"c(""distractor1"", ""distractor2"", ""distractor3"")",Gesundheit,salama,d,NA,NA,NA,NA,NA,NA,NA,NA,NA,NA,NA,NA,NA,NA,NA,NA,NA,NA,NA,NA,NA,NA,NA,NA,NA,NA
7f2bc,deep,flow.Sequence,1_1_4_0,NA,NA,skipped,NA,182101.60000002,NA,NA,182099.5,182101.69999999,2024-04-30T09:29:49Z,182116.2,"c(""distractor1"", ""distractor2"", ""distractor3"")",Gegenwart,hadhara,s,katiba,jokofu,mikopo,NA,NA,NA,NA,NA,NA,NA,NA,NA,NA,NA,NA,NA,NA,NA,NA,NA,NA,NA,NA,NA,NA,NA
7f2bc,Shallow Question,html.Page,1_1_4_1_0,NA,NA,form submission,9891.1000000119,182101.90000004,182099.5,182116.2,192007.30000001,192007.60000002,2024-04-30T09:29:59Z,192026.8,"c(""distractor1"", ""distractor2"", ""distractor3"")",Gegenwart,hadhara,s,katiba,jokofu,mikopo,hadhara,NA,NA,NA,NA,NA,NA,NA,NA,NA,NA,NA,NA,NA,NA,NA,NA,NA,NA,NA,NA,NA,NA
7f2bc,"""Richtig""-Screen",canvas.Screen,1_1_4_1_1,NA,NA,timeout,4997,192010.69999999,192010.388,192026.8,197006.9,197008.30000001,2024-04-30T09:30:04Z,197023.8,"c(""distractor1"", ""distractor2"", ""distractor3"")",Gegenwart,hadhara,s,katiba,jokofu,mikopo,NA,NA,1,NA,NA,NA,NA,NA,NA,NA,NA,NA,NA,NA,NA,NA,NA,NA,NA,NA,NA,NA,NA
7f2bc,"""Falsch""-Screen",canvas.Screen,1_1_4_1_2,NA,NA,skipped,NA,197013.40000004,NA,NA,197006.9,197013.5,2024-04-30T09:30:04Z,197023.8,"c(""distractor1"", ""distractor2"", ""distractor3"")",Gegenwart,hadhara,s,katiba,jokofu,mikopo,NA,NA,NA,NA,NA,NA,NA,NA,NA,NA,NA,NA,NA,NA,NA,NA,NA,NA,NA,NA,NA,NA,NA
7f2bc,shallow,flow.Sequence,1_1_4_1,NA,NA,completion,14890.7,182101.80000001,182099.5,182116.2,197006.9,197013.5,2024-04-30T09:30:04Z,197023.8,"c(""distractor1"", ""distractor2"", ""distractor3"")",Gegenwart,hadhara,s,katiba,jokofu,mikopo,NA,NA,NA,NA,NA,NA,NA,NA,NA,NA,NA,NA,NA,NA,NA,NA,NA,NA,NA,NA,NA,NA,NA
7f2bc,task,flow.Sequence,1_1_4,NA,NA,completion,14890.7,182101.60000002,182099.5,182116.2,197006.9,197013.60000002,2024-04-30T09:30:04Z,197023.8,"c(""distractor1"", ""distractor2"", ""distractor3"")",Gegenwart,hadhara,s,katiba,jokofu,mikopo,NA,NA,NA,NA,NA,NA,NA,NA,NA,NA,NA,NA,NA,NA,NA,NA,NA,NA,NA,NA,NA,NA,NA
7f2bc,Deep Question,html.Page,1_1_5_0_0,NA,NA,form submission,4764.7,197013.69999999,197006.9,197023.8,201788.5,201788.60000002,2024-04-30T09:30:09Z,201804.1,"c(""distractor1"", ""distractor2"", ""distractor3"")",Qualität,mtindo,d,NA,NA,NA,polimi,NA,NA,NA,NA,NA,NA,NA,NA,NA,NA,NA,NA,NA,NA,NA,NA,NA,NA,NA,NA,NA,NA
7f2bc,"""Richtig""-Screen",canvas.Screen,1_1_5_0_1,NA,NA,skipped,NA,201791.60000002,NA,NA,201788.5,201791.69999999,2024-04-30T09:30:09Z,201804.1,"c(""distractor1"", ""distractor2"", ""distractor3"")",Qualität,mtindo,d,NA,NA,NA,NA,NA,NA,NA,NA,NA,NA,NA,NA,NA,NA,NA,NA,NA,NA,NA,NA,NA,NA,NA,NA,NA,NA
7f2bc,"""Falsch""-Screen",canvas.Screen,1_1_5_0_2,NA,NA,timeout,4996.7,201792.5,201784,201804.1,206784.3,206785.60000002,2024-04-30T09:30:14Z,206800.8,"c(""distractor1"", ""distractor2"", ""distractor3"")",Qualität,mtindo,d,NA,NA,NA,NA,NA,0,NA,NA,NA,NA,NA,NA,NA,NA,NA,NA,NA,NA,NA,NA,NA,NA,NA,NA,NA,NA
7f2bc,deep,flow.Sequence,1_1_5_0,NA,NA,completion,9760.5,197013.60000002,197006.9,197023.8,206784.3,206786,2024-04-30T09:30:14Z,206800.8,"c(""distractor1"", ""distractor2"", ""distractor3"")",Qualität,mtindo,d,NA,NA,NA,NA,NA,NA,NA,NA,NA,NA,NA,NA,NA,NA,NA,NA,NA,NA,NA,NA,NA,NA,NA,NA,NA,NA
7f2bc,shallow,flow.Sequence,1_1_5_1,NA,NA,skipped,NA,206786.19999999,NA,NA,206784.3,206786.40000004,2024-04-30T09:30:14Z,206800.8,"c(""distractor1"", ""distractor2"", ""distractor3"")",Qualität,mtindo,d,NA,NA,NA,NA,NA,NA,NA,NA,NA,NA,NA,NA,NA,NA,NA,NA,NA,NA,NA,NA,NA,NA,NA,NA,NA,NA
7f2bc,task,flow.Sequence,1_1_5,NA,NA,completion,9760.5,197013.60000002,197006.9,197023.8,206784.3,206786.60000002,2024-04-30T09:30:14Z,206800.8,"c(""distractor1"", ""distractor2"", ""distractor3"")",Qualität,mtindo,d,NA,NA,NA,NA,NA,NA,NA,NA,NA,NA,NA,NA,NA,NA,NA,NA,NA,NA,NA,NA,NA,NA,NA,NA,NA,NA
7f2bc,block,flow.Loop,1_1,NA,NA,completion,79851.4,126890.69999999,126890.5,126932.9,206784.3,206787,2024-04-30T09:30:14Z,206800.8,"c(""distractor1"", ""distractor2"", ""distractor3"")",NA,NA,NA,NA,NA,NA,NA,NA,NA,NA,NA,NA,NA,NA,NA,NA,NA,NA,NA,NA,NA,NA,NA,NA,NA,NA,NA,NA,NA
7f2bc,Practice,flow.Sequence,1,NA,NA,completion,88062.762,118721.60000002,118721.538,118721.538,206784.3,206787.30000001,2024-04-30T09:30:14Z,206800.8,NULL,NA,NA,NA,NA,NA,NA,NA,NA,NA,NA,NA,NA,NA,NA,NA,NA,NA,NA,NA,NA,NA,NA,NA,NA,NA,NA,NA,NA,NA
7f2bc,Experiment start,canvas.Screen,2,weiter,keypress(q),response,15385.800000024,206787.5,206784.3,206800.8,222186.60000002,222187.60000002,2024-04-30T09:30:29Z,222258.4,NULL,NA,NA,NA,NA,NA,NA,NA,NA,NA,NA,NA,NA,NA,NA,NA,NA,NA,NA,NA,NA,NA,NA,NA,NA,NA,NA,NA,NA,NA
7f2bc,Deep Question,html.Page,3_0_0_0_0_0_0,NA,NA,form submission,7274.4000000119,222240.40000004,222233.8,222258.4,229532.80000001,229533.10000002,2024-04-30T09:30:37Z,229537.424,NULL,Kontrolle,kudhibiti,d,NA,NA,NA,zumini,NA,NA,0,NA,NA,NA,NA,NA,NA,NA,NA,NA,NA,NA,NA,NA,NA,NA,NA,NA,NA,NA
7f2bc,"""Richtig""-Screen",canvas.Screen,3_0_0_0_0_0_1,NA,NA,skipped,NA,229535.80000001,NA,NA,229532.80000001,229536,2024-04-30T09:30:37Z,229537.424,NULL,Kontrolle,kudhibiti,d,NA,NA,NA,NA,sdf,NA,0,NA,NA,NA,NA,NA,NA,NA,NA,NA,NA,NA,NA,NA,NA,NA,NA,NA,NA,NA
7f2bc,"""Falsch""-Screen",canvas.Screen,3_0_0_0_0_0_2,NA,NA,timeout,4996.676,229536.69999999,229537.424,229537.424,234517.6,234518.80000001,2024-04-30T09:30:41Z,234534.1,NULL,Kontrolle,kudhibiti,d,NA,NA,NA,NA,sdf,0,0,NA,NA,NA,NA,NA,NA,NA,NA,NA,NA,NA,NA,NA,NA,NA,NA,NA,NA,NA
7f2bc,deep,flow.Sequence,3_0_0_0_0_0,NA,NA,completion,12259.2,222240.40000004,222233.8,222258.4,234517.6,234519.19999999,2024-04-30T09:30:41Z,234534.1,NULL,Kontrolle,kudhibiti,d,NA,NA,NA,NA,sdf,NA,0,NA,NA,NA,NA,NA,NA,NA,NA,NA,NA,NA,NA,NA,NA,NA,NA,NA,NA,NA
7f2bc,shallow,flow.Sequence,3_0_0_0_0_1,NA,NA,skipped,NA,234519.40000004,NA,NA,234517.6,234519.5,2024-04-30T09:30:41Z,234534.1,NULL,Kontrolle,kudhibiti,d,NA,NA,NA,NA,sdf,NA,0,NA,NA,NA,NA,NA,NA,NA,NA,NA,NA,NA,NA,NA,NA,NA,NA,NA,NA,NA
7f2bc,task,flow.Sequence,3_0_0_0_0,NA,NA,completion,12259.2,222240.40000004,222233.8,222258.4,234517.6,234519.69999999,2024-04-30T09:30:41Z,234534.1,NULL,Kontrolle,kudhibiti,d,NA,NA,NA,NA,sdf,NA,0,NA,NA,NA,NA,NA,NA,NA,NA,NA,NA,NA,NA,NA,NA,NA,NA,NA,NA,NA
7f2bc,deep,flow.Sequence,3_0_0_0_1_0,NA,NA,skipped,NA,234519.90000004,NA,NA,234517.6,234519.90000004,2024-04-30T09:30:41Z,234534.1,NULL,Können,unaweza,s,kiongozi,bustani,mienendo,NA,sdf,NA,0,NA,NA,NA,NA,NA,NA,NA,NA,NA,NA,NA,NA,NA,NA,NA,NA,NA,NA,NA
7f2bc,Shallow Question,html.Page,3_0_0_0_1_1_0,NA,NA,form submission,6294.8000000358,234520.10000002,234517.6,234534.1,240828.90000004,240829.10000002,2024-04-30T09:30:48Z,240830.586,NULL,Können,unaweza,s,kiongozi,bustani,mienendo,mienendo,NA,NA,0,NA,NA,NA,NA,NA,NA,NA,NA,NA,NA,NA,NA,NA,NA,NA,NA,NA,NA,NA
7f2bc,"""Richtig""-Screen",canvas.Screen,3_0_0_0_1_1_1,NA,NA,skipped,NA,240832.10000002,NA,NA,240828.90000004,240832.30000001,2024-04-30T09:30:48Z,240830.586,NULL,Können,unaweza,s,kiongozi,bustani,mienendo,NA,sdf,NA,0,NA,NA,NA,NA,NA,NA,NA,NA,NA,NA,NA,NA,NA,NA,NA,NA,NA,NA,NA
7f2bc,"""Falsch""-Screen",canvas.Screen,3_0_0_0_1_1_2,NA,NA,timeout,4996.414,240833.10000002,240830.586,240830.586,245810.3,245811.19999999,2024-04-30T09:30:53Z,245827,NULL,Können,unaweza,s,kiongozi,bustani,mienendo,NA,sdf,0,0,NA,NA,NA,NA,NA,NA,NA,NA,NA,NA,NA,NA,NA,NA,NA,NA,NA,NA,NA
7f2bc,shallow,flow.Sequence,3_0_0_0_1_1,NA,NA,completion,11276.2,234520.10000002,234517.6,234534.1,245810.3,245811.60000002,2024-04-30T09:30:53Z,245827,NULL,Können,unaweza,s,kiongozi,bustani,mienendo,NA,sdf,NA,0,NA,NA,NA,NA,NA,NA,NA,NA,NA,NA,NA,NA,NA,NA,NA,NA,NA,NA,NA
7f2bc,task,flow.Sequence,3_0_0_0_1,NA,NA,completion,11276.2,234519.80000001,234517.6,234534.1,245810.3,245811.69999999,2024-04-30T09:30:53Z,245827,NULL,Können,unaweza,s,kiongozi,bustani,mienendo,NA,sdf,NA,0,NA,NA,NA,NA,NA,NA,NA,NA,NA,NA,NA,NA,NA,NA,NA,NA,NA,NA,NA
7f2bc,deep,flow.Sequence,3_0_0_0_2_0,NA,NA,skipped,NA,245811.90000004,NA,NA,245810.3,245812,2024-04-30T09:30:53Z,245827,NULL,Ausschluss,kutengwa,s,ununuzi,taratibu,madeni,NA,sdf,NA,0,NA,NA,NA,NA,NA,NA,NA,NA,NA,NA,NA,NA,NA,NA,NA,NA,NA,NA,NA
7f2bc,Shallow Question,html.Page,3_0_0_0_2_1_0,NA,NA,form submission,4477.1000000238,245812.19999999,245810.3,245827,250304.10000002,250304.30000001,2024-04-30T09:30:57Z,250308.092,NULL,Ausschluss,kutengwa,s,ununuzi,taratibu,madeni,taratibu,NA,NA,0,NA,NA,NA,NA,NA,NA,NA,NA,NA,NA,NA,NA,NA,NA,NA,NA,NA,NA,NA
7f2bc,"""Richtig""-Screen",canvas.Screen,3_0_0_0_2_1_1,NA,NA,skipped,NA,250306.60000002,NA,NA,250304.10000002,250306.69999999,2024-04-30T09:30:57Z,250308.092,NULL,Ausschluss,kutengwa,s,ununuzi,taratibu,madeni,NA,sdf,NA,0,NA,NA,NA,NA,NA,NA,NA,NA,NA,NA,NA,NA,NA,NA,NA,NA,NA,NA,NA
7f2bc,"""Falsch""-Screen",canvas.Screen,3_0_0_0_2_1_2,NA,NA,timeout,4996.808,250307.30000001,250308.092,250308.092,255288.2,255290.40000004,2024-04-30T09:31:02Z,255304.9,NULL,Ausschluss,kutengwa,s,ununuzi,taratibu,madeni,NA,sdf,0,0,NA,NA,NA,NA,NA,NA,NA,NA,NA,NA,NA,NA,NA,NA,NA,NA,NA,NA,NA
7f2bc,shallow,flow.Sequence,3_0_0_0_2_1,NA,NA,completion,9461.2,245812.19999999,245810.3,245827,255288.2,255290.69999999,2024-04-30T09:31:02Z,255304.9,NULL,Ausschluss,kutengwa,s,ununuzi,taratibu,madeni,NA,sdf,NA,0,NA,NA,NA,NA,NA,NA,NA,NA,NA,NA,NA,NA,NA,NA,NA,NA,NA,NA,NA
7f2bc,task,flow.Sequence,3_0_0_0_2,NA,NA,completion,9461.2,245811.90000004,245810.3,245827,255288.2,255290.90000004,2024-04-30T09:31:02Z,255304.9,NULL,Ausschluss,kutengwa,s,ununuzi,taratibu,madeni,NA,sdf,NA,0,NA,NA,NA,NA,NA,NA,NA,NA,NA,NA,NA,NA,NA,NA,NA,NA,NA,NA,NA
7f2bc,deep,flow.Sequence,3_0_0_0_3_0,NA,NA,skipped,NA,255291.10000002,NA,NA,255288.2,255291.19999999,2024-04-30T09:31:02Z,255304.9,NULL,Kreativität,ubunifu,s,mratibu,mwendelezo,makubaliano,NA,sdf,NA,0,NA,NA,NA,NA,NA,NA,NA,NA,NA,NA,NA,NA,NA,NA,NA,NA,NA,NA,NA
7f2bc,Shallow Question,html.Page,3_0_0_0_3_1_0,NA,NA,form submission,6039.2000000238,255291.30000001,255288.2,255304.9,261344.10000002,261344.40000004,2024-04-30T09:31:08Z,261350.8,NULL,Kreativität,ubunifu,s,mratibu,mwendelezo,makubaliano,mratibu,NA,NA,0,NA,NA,NA,NA,NA,NA,NA,NA,NA,NA,NA,NA,NA,NA,NA,NA,NA,NA,NA
7f2bc,"""Richtig""-Screen",canvas.Screen,3_0_0_0_3_1_1,NA,NA,skipped,NA,261346.10000002,NA,NA,261344.10000002,261346.10000002,2024-04-30T09:31:08Z,261350.8,NULL,Kreativität,ubunifu,s,mratibu,mwendelezo,makubaliano,NA,sdf,NA,0,NA,NA,NA,NA,NA,NA,NA,NA,NA,NA,NA,NA,NA,NA,NA,NA,NA,NA,NA
7f2bc,"""Falsch""-Screen",canvas.Screen,3_0_0_0_3_1_2,NA,NA,timeout,4997.3,261346.5,261337.1,261350.8,266331.6,266332.5,2024-04-30T09:31:13Z,266348.1,NULL,Kreativität,ubunifu,s,mratibu,mwendelezo,makubaliano,NA,sdf,0,0,NA,NA,NA,NA,NA,NA,NA,NA,NA,NA,NA,NA,NA,NA,NA,NA,NA,NA,NA
7f2bc,shallow,flow.Sequence,3_0_0_0_3_1,NA,NA,completion,11026.7,255291.30000001,255288.2,255304.9,266331.6,266332.90000004,2024-04-30T09:31:13Z,266348.1,NULL,Kreativität,ubunifu,s,mratibu,mwendelezo,makubaliano,NA,sdf,NA,0,NA,NA,NA,NA,NA,NA,NA,NA,NA,NA,NA,NA,NA,NA,NA,NA,NA,NA,NA
7f2bc,task,flow.Sequence,3_0_0_0_3,NA,NA,completion,11026.7,255291,255288.2,255304.9,266331.6,266333.10000002,2024-04-30T09:31:13Z,266348.1,NULL,Kreativität,ubunifu,s,mratibu,mwendelezo,makubaliano,NA,sdf,NA,0,NA,NA,NA,NA,NA,NA,NA,NA,NA,NA,NA,NA,NA,NA,NA,NA,NA,NA,NA
7f2bc,Deep Question,html.Page,3_0_0_0_4_0_0,NA,NA,form submission,4008.7000000119,266333.19999999,266331.6,266348.1,270356.80000001,270357,2024-04-30T09:31:17Z,270362.426,NULL,Gefährdung,kuhatarisha,d,NA,NA,NA,rnsj,NA,NA,0,NA,NA,NA,NA,NA,NA,NA,NA,NA,NA,NA,NA,NA,NA,NA,NA,NA,NA,NA
7f2bc,"""Richtig""-Screen",canvas.Screen,3_0_0_0_4_0_1,NA,NA,skipped,NA,270359.90000004,NA,NA,270356.80000001,270360.10000002,2024-04-30T09:31:17Z,270362.426,NULL,Gefährdung,kuhatarisha,d,NA,NA,NA,NA,sdf,NA,0,NA,NA,NA,NA,NA,NA,NA,NA,NA,NA,NA,NA,NA,NA,NA,NA,NA,NA,NA
7f2bc,"""Falsch""-Screen",canvas.Screen,3_0_0_0_4_0_2,NA,NA,timeout,4996.974,270360.80000001,270362.426,270362.426,275342.7,275343,2024-04-30T09:31:22Z,275359.4,NULL,Gefährdung,kuhatarisha,d,NA,NA,NA,NA,sdf,0,0,NA,NA,NA,NA,NA,NA,NA,NA,NA,NA,NA,NA,NA,NA,NA,NA,NA,NA,NA
7f2bc,deep,flow.Sequence,3_0_0_0_4_0,NA,NA,completion,8994.6,266333.19999999,266331.6,266348.1,275342.7,275343.19999999,2024-04-30T09:31:22Z,275359.4,NULL,Gefährdung,kuhatarisha,d,NA,NA,NA,NA,sdf,NA,0,NA,NA,NA,NA,NA,NA,NA,NA,NA,NA,NA,NA,NA,NA,NA,NA,NA,NA,NA
7f2bc,shallow,flow.Sequence,3_0_0_0_4_1,NA,NA,skipped,NA,275343.19999999,NA,NA,275342.7,275343.30000001,2024-04-30T09:31:22Z,275359.4,NULL,Gefährdung,kuhatarisha,d,NA,NA,NA,NA,sdf,NA,0,NA,NA,NA,NA,NA,NA,NA,NA,NA,NA,NA,NA,NA,NA,NA,NA,NA,NA,NA
7f2bc,task,flow.Sequence,3_0_0_0_4,NA,NA,completion,8994.6,266333.19999999,266331.6,266348.1,275342.7,275343.30000001,2024-04-30T09:31:22Z,275359.4,NULL,Gefährdung,kuhatarisha,d,NA,NA,NA,NA,sdf,NA,0,NA,NA,NA,NA,NA,NA,NA,NA,NA,NA,NA,NA,NA,NA,NA,NA,NA,NA,NA
7f2bc,Deep Question,html.Page,3_0_0_0_5_0_0,NA,NA,form submission,4297.7000000238,275343.30000001,275342.7,275359.4,279657.10000002,279657.5,2024-04-30T09:31:27Z,279673.4,NULL,Widerstand,usulubu,d,NA,NA,NA,tdd,NA,NA,0,NA,NA,NA,NA,NA,NA,NA,NA,NA,NA,NA,NA,NA,NA,NA,NA,NA,NA,NA
7f2bc,"""Richtig""-Screen",canvas.Screen,3_0_0_0_5_0_1,NA,NA,skipped,NA,279660.40000004,NA,NA,279657.10000002,279660.60000002,2024-04-30T09:31:27Z,279673.4,NULL,Widerstand,usulubu,d,NA,NA,NA,NA,sdf,NA,0,NA,NA,NA,NA,NA,NA,NA,NA,NA,NA,NA,NA,NA,NA,NA,NA,NA,NA,NA
7f2bc,"""Falsch""-Screen",canvas.Screen,3_0_0_0_5_0_2,NA,NA,timeout,4996.8,279661.19999999,279657.02,279673.4,284653.6,284654.5,2024-04-30T09:31:32Z,284670.2,NULL,Widerstand,usulubu,d,NA,NA,NA,NA,sdf,0,0,NA,NA,NA,NA,NA,NA,NA,NA,NA,NA,NA,NA,NA,NA,NA,NA,NA,NA,NA
7f2bc,deep,flow.Sequence,3_0_0_0_5_0,NA,NA,completion,9294.2,275343.30000001,275342.7,275359.4,284653.6,284654.80000001,2024-04-30T09:31:32Z,284670.2,NULL,Widerstand,usulubu,d,NA,NA,NA,NA,sdf,NA,0,NA,NA,NA,NA,NA,NA,NA,NA,NA,NA,NA,NA,NA,NA,NA,NA,NA,NA,NA
7f2bc,shallow,flow.Sequence,3_0_0_0_5_1,NA,NA,skipped,NA,284655,NA,NA,284653.6,284655.10000002,2024-04-30T09:31:32Z,284670.2,NULL,Widerstand,usulubu,d,NA,NA,NA,NA,sdf,NA,0,NA,NA,NA,NA,NA,NA,NA,NA,NA,NA,NA,NA,NA,NA,NA,NA,NA,NA,NA
7f2bc,task,flow.Sequence,3_0_0_0_5,NA,NA,completion,9294.2,275343.30000001,275342.7,275359.4,284653.6,284655.30000001,2024-04-30T09:31:32Z,284670.2,NULL,Widerstand,usulubu,d,NA,NA,NA,NA,sdf,NA,0,NA,NA,NA,NA,NA,NA,NA,NA,NA,NA,NA,NA,NA,NA,NA,NA,NA,NA,NA
7f2bc,Deep Question,html.Page,3_0_0_0_6_0_0,NA,NA,form submission,6465.9000000238,284655.5,284653.6,284670.2,291136.10000002,291136.19999999,2024-04-30T09:31:38Z,291166,NULL,Verstand,ufahamivu,d,NA,NA,NA,zuminio,NA,NA,0,NA,NA,NA,NA,NA,NA,NA,NA,NA,NA,NA,NA,NA,NA,NA,NA,NA,NA,NA
7f2bc,"""Richtig""-Screen",canvas.Screen,3_0_0_0_6_0_1,NA,NA,skipped,NA,291139.60000002,NA,NA,291136.10000002,291139.60000002,2024-04-30T09:31:38Z,291166,NULL,Verstand,ufahamivu,d,NA,NA,NA,NA,sdf,NA,0,NA,NA,NA,NA,NA,NA,NA,NA,NA,NA,NA,NA,NA,NA,NA,NA,NA,NA,NA
7f2bc,"""Falsch""-Screen",canvas.Screen,3_0_0_0_6_0_2,NA,NA,timeout,4997.2,291140.30000001,291149.2,291166,296146.5,296147.90000004,2024-04-30T09:31:43Z,296163.2,NULL,Verstand,ufahamivu,d,NA,NA,NA,NA,sdf,0,0,NA,NA,NA,NA,NA,NA,NA,NA,NA,NA,NA,NA,NA,NA,NA,NA,NA,NA,NA
7f2bc,deep,flow.Sequence,3_0_0_0_6_0,NA,NA,completion,11476.3,284655.5,284653.6,284670.2,296146.5,296148.19999999,2024-04-30T09:31:43Z,296163.2,NULL,Verstand,ufahamivu,d,NA,NA,NA,NA,sdf,NA,0,NA,NA,NA,NA,NA,NA,NA,NA,NA,NA,NA,NA,NA,NA,NA,NA,NA,NA,NA
7f2bc,shallow,flow.Sequence,3_0_0_0_6_1,NA,NA,skipped,NA,296148.30000001,NA,NA,296146.5,296148.5,2024-04-30T09:31:43Z,296163.2,NULL,Verstand,ufahamivu,d,NA,NA,NA,NA,sdf,NA,0,NA,NA,NA,NA,NA,NA,NA,NA,NA,NA,NA,NA,NA,NA,NA,NA,NA,NA,NA
7f2bc,task,flow.Sequence,3_0_0_0_6,NA,NA,completion,11476.3,284655.40000004,284653.6,284670.2,296146.5,296148.69999999,2024-04-30T09:31:43Z,296163.2,NULL,Verstand,ufahamivu,d,NA,NA,NA,NA,sdf,NA,0,NA,NA,NA,NA,NA,NA,NA,NA,NA,NA,NA,NA,NA,NA,NA,NA,NA,NA,NA
7f2bc,deep,flow.Sequence,3_0_0_0_7_0,NA,NA,skipped,NA,296148.80000001,NA,NA,296146.5,296148.90000004,2024-04-30T09:31:43Z,296163.2,NULL,Gelegenheit,wakati,s,mchanganyiko,kipaumbele,kushuku,NA,sdf,NA,0,NA,NA,NA,NA,NA,NA,NA,NA,NA,NA,NA,NA,NA,NA,NA,NA,NA,NA,NA
7f2bc,Shallow Question,html.Page,3_0_0_0_7_1_0,NA,NA,form submission,7007.6000000119,296149.10000002,296146.5,296163.2,303170.80000001,303171,2024-04-30T09:31:50Z,303175.758,NULL,Gelegenheit,wakati,s,mchanganyiko,kipaumbele,kushuku,mchanganyiko,NA,NA,0,NA,NA,NA,NA,NA,NA,NA,NA,NA,NA,NA,NA,NA,NA,NA,NA,NA,NA,NA
7f2bc,"""Richtig""-Screen",canvas.Screen,3_0_0_0_7_1_1,NA,NA,skipped,NA,303173.90000004,NA,NA,303170.80000001,303174,2024-04-30T09:31:50Z,303175.758,NULL,Gelegenheit,wakati,s,mchanganyiko,kipaumbele,kushuku,NA,sdf,NA,0,NA,NA,NA,NA,NA,NA,NA,NA,NA,NA,NA,NA,NA,NA,NA,NA,NA,NA,NA
7f2bc,"""Falsch""-Screen",canvas.Screen,3_0_0_0_7_1_2,NA,NA,timeout,4997.1420000001,303174.69999999,303175.758,303175.758,308155.6,308156.80000001,2024-04-30T09:31:55Z,308172.9,NULL,Gelegenheit,wakati,s,mchanganyiko,kipaumbele,kushuku,NA,sdf,0,0,NA,NA,NA,NA,NA,NA,NA,NA,NA,NA,NA,NA,NA,NA,NA,NA,NA,NA,NA
7f2bc,shallow,flow.Sequence,3_0_0_0_7_1,NA,NA,completion,11992.4,296149,296146.5,296163.2,308155.6,308157.10000002,2024-04-30T09:31:55Z,308172.9,NULL,Gelegenheit,wakati,s,mchanganyiko,kipaumbele,kushuku,NA,sdf,NA,0,NA,NA,NA,NA,NA,NA,NA,NA,NA,NA,NA,NA,NA,NA,NA,NA,NA,NA,NA
7f2bc,task,flow.Sequence,3_0_0_0_7,NA,NA,completion,11992.4,296148.69999999,296146.5,296163.2,308155.6,308157.40000004,2024-04-30T09:31:55Z,308172.9,NULL,Gelegenheit,wakati,s,mchanganyiko,kipaumbele,kushuku,NA,sdf,NA,0,NA,NA,NA,NA,NA,NA,NA,NA,NA,NA,NA,NA,NA,NA,NA,NA,NA,NA,NA
7f2bc,block,flow.Loop,3_0_0_0,NA,NA,completion,85897.2,222240.30000001,222233.8,222258.4,308155.6,308157.60000002,2024-04-30T09:31:55Z,308172.9,NULL,NA,NA,NA,NA,NA,NA,NA,sdf,NA,0,NA,NA,NA,NA,NA,NA,NA,NA,NA,NA,NA,NA,NA,NA,NA,NA,NA,NA,NA
7f2bc,weiter,canvas.Screen,3_0_0_1,sdf,keypress(Space),response,2569.5000000357,308157.69999999,308155.6,308172.9,310742.40000004,310743.40000004,2024-04-30T09:31:58Z,310770.8,NULL,NA,NA,NA,NA,NA,NA,NA,sdf,NA,0,NA,NA,NA,NA,NA,NA,NA,NA,NA,NA,NA,NA,NA,NA,NA,NA,NA,NA,NA
7f2bc,check continue,flow.Sequence,3_0_0,NA,NA,completion,88484.000000036,222240.30000001,222233.8,222258.4,310742.40000004,310743.69999999,2024-04-30T09:31:58Z,310770.8,NULL,NA,NA,NA,NA,NA,NA,NA,sdf,NA,0,NA,NA,NA,NA,NA,NA,NA,NA,NA,NA,NA,NA,NA,NA,NA,NA,NA,NA,NA
7f2bc,Deep Question,html.Page,3_0_1_0_0_0_0,NA,NA,form submission,6674.5000000119,310765.5,310756.15,310770.8,317445.30000001,317445.5,2024-04-30T09:32:04Z,317450.386,NULL,Widerstand,usulubu,d,NA,NA,NA,uhuhuli,NA,NA,1,NA,NA,NA,NA,NA,NA,NA,NA,NA,NA,NA,NA,NA,NA,NA,NA,NA,NA,NA
7f2bc,"""Richtig""-Screen",canvas.Screen,3_0_1_0_0_0_1,NA,NA,skipped,NA,317448.5,NA,NA,317445.30000001,317448.69999999,2024-04-30T09:32:04Z,317450.386,NULL,Widerstand,usulubu,d,NA,NA,NA,NA,sdfdsf,NA,1,NA,NA,NA,NA,NA,NA,NA,NA,NA,NA,NA,NA,NA,NA,NA,NA,NA,NA,NA
7f2bc,"""Falsch""-Screen",canvas.Screen,3_0_1_0_0_0_2,NA,NA,timeout,4996.814,317449.5,317450.386,317450.386,322430.6,322431.30000001,2024-04-30T09:32:09Z,322447.2,NULL,Widerstand,usulubu,d,NA,NA,NA,NA,sdfdsf,0,1,NA,NA,NA,NA,NA,NA,NA,NA,NA,NA,NA,NA,NA,NA,NA,NA,NA,NA,NA
7f2bc,deep,flow.Sequence,3_0_1_0_0_0,NA,NA,completion,11659.8,310765.5,310756.15,310770.8,322430.6,322431.69999999,2024-04-30T09:32:09Z,322447.2,NULL,Widerstand,usulubu,d,NA,NA,NA,NA,sdfdsf,NA,1,NA,NA,NA,NA,NA,NA,NA,NA,NA,NA,NA,NA,NA,NA,NA,NA,NA,NA,NA
7f2bc,shallow,flow.Sequence,3_0_1_0_0_1,NA,NA,skipped,NA,322431.80000001,NA,NA,322430.6,322432,2024-04-30T09:32:09Z,322447.2,NULL,Widerstand,usulubu,d,NA,NA,NA,NA,sdfdsf,NA,1,NA,NA,NA,NA,NA,NA,NA,NA,NA,NA,NA,NA,NA,NA,NA,NA,NA,NA,NA
7f2bc,task,flow.Sequence,3_0_1_0_0,NA,NA,completion,11659.8,310765.5,310756.15,310770.8,322430.6,322432.19999999,2024-04-30T09:32:09Z,322447.2,NULL,Widerstand,usulubu,d,NA,NA,NA,NA,sdfdsf,NA,1,NA,NA,NA,NA,NA,NA,NA,NA,NA,NA,NA,NA,NA,NA,NA,NA,NA,NA,NA
7f2bc,deep,flow.Sequence,3_0_1_0_1_0,NA,NA,skipped,NA,322432.30000001,NA,NA,322430.6,322432.30000001,2024-04-30T09:32:09Z,322447.2,NULL,Kreativität,ubunifu,s,mratibu,mwendelezo,makubaliano,NA,sdfdsf,NA,1,NA,NA,NA,NA,NA,NA,NA,NA,NA,NA,NA,NA,NA,NA,NA,NA,NA,NA,NA
7f2bc,Shallow Question,html.Page,3_0_1_0_1_1_0,NA,NA,form submission,6146.2000000358,322432.5,322430.6,322447.2,328593.40000004,328593.60000002,2024-04-30T09:32:16Z,328609.7,NULL,Kreativität,ubunifu,s,mratibu,mwendelezo,makubaliano,ubunifu,NA,NA,1,NA,NA,NA,NA,NA,NA,NA,NA,NA,NA,NA,NA,NA,NA,NA,NA,NA,NA,NA
7f2bc,"""Richtig""-Screen",canvas.Screen,3_0_1_0_1_1_1,NA,NA,timeout,4997.5,328594.90000004,328593.16,328609.7,333590.5,333591.5,2024-04-30T09:32:21Z,333607.2,NULL,Kreativität,ubunifu,s,mratibu,mwendelezo,makubaliano,NA,sdfdsf,1,1,NA,NA,NA,NA,NA,NA,NA,NA,NA,NA,NA,NA,NA,NA,NA,NA,NA,NA,NA
7f2bc,"""Falsch""-Screen",canvas.Screen,3_0_1_0_1_1_2,NA,NA,skipped,NA,333596.5,NA,NA,333590.5,333596.69999999,2024-04-30T09:32:21Z,333607.2,NULL,Kreativität,ubunifu,s,mratibu,mwendelezo,makubaliano,NA,sdfdsf,NA,1,NA,NA,NA,NA,NA,NA,NA,NA,NA,NA,NA,NA,NA,NA,NA,NA,NA,NA,NA
7f2bc,shallow,flow.Sequence,3_0_1_0_1_1,NA,NA,completion,11143.3,322432.5,322430.6,322447.2,333590.5,333596.80000001,2024-04-30T09:32:21Z,333607.2,NULL,Kreativität,ubunifu,s,mratibu,mwendelezo,makubaliano,NA,sdfdsf,NA,1,NA,NA,NA,NA,NA,NA,NA,NA,NA,NA,NA,NA,NA,NA,NA,NA,NA,NA,NA
7f2bc,task,flow.Sequence,3_0_1_0_1,NA,NA,completion,11143.3,322432.30000001,322430.6,322447.2,333590.5,333596.90000004,2024-04-30T09:32:21Z,333607.2,NULL,Kreativität,ubunifu,s,mratibu,mwendelezo,makubaliano,NA,sdfdsf,NA,1,NA,NA,NA,NA,NA,NA,NA,NA,NA,NA,NA,NA,NA,NA,NA,NA,NA,NA,NA
7f2bc,deep,flow.Sequence,3_0_1_0_2_0,NA,NA,skipped,NA,333597,NA,NA,333590.5,333597,2024-04-30T09:32:21Z,333607.2,NULL,Können,unaweza,s,kiongozi,bustani,mienendo,NA,sdfdsf,NA,1,NA,NA,NA,NA,NA,NA,NA,NA,NA,NA,NA,NA,NA,NA,NA,NA,NA,NA,NA
7f2bc,Shallow Question,html.Page,3_0_1_0_2_1_0,NA,NA,form submission,5941.2000000358,333597,333590.5,333607.2,339548.40000004,339548.69999999,2024-04-30T09:32:27Z,339553.1,NULL,Können,unaweza,s,kiongozi,bustani,mienendo,unaweza,NA,NA,1,NA,NA,NA,NA,NA,NA,NA,NA,NA,NA,NA,NA,NA,NA,NA,NA,NA,NA,NA
7f2bc,"""Richtig""-Screen",canvas.Screen,3_0_1_0_2_1_1,NA,NA,timeout,4997.5,339551.40000004,339537.3,339553.1,344533.5,344534.40000004,2024-04-30T09:32:32Z,344550.6,NULL,Können,unaweza,s,kiongozi,bustani,mienendo,NA,sdfdsf,1,1,NA,NA,NA,NA,NA,NA,NA,NA,NA,NA,NA,NA,NA,NA,NA,NA,NA,NA,NA
7f2bc,"""Falsch""-Screen",canvas.Screen,3_0_1_0_2_1_2,NA,NA,skipped,NA,344539.5,NA,NA,344533.5,344539.69999999,2024-04-30T09:32:32Z,344550.6,NULL,Können,unaweza,s,kiongozi,bustani,mienendo,NA,sdfdsf,NA,1,NA,NA,NA,NA,NA,NA,NA,NA,NA,NA,NA,NA,NA,NA,NA,NA,NA,NA,NA
7f2bc,shallow,flow.Sequence,3_0_1_0_2_1,NA,NA,completion,10926.3,333597,333590.5,333607.2,344533.5,344539.80000001,2024-04-30T09:32:32Z,344550.6,NULL,Können,unaweza,s,kiongozi,bustani,mienendo,NA,sdfdsf,NA,1,NA,NA,NA,NA,NA,NA,NA,NA,NA,NA,NA,NA,NA,NA,NA,NA,NA,NA,NA
7f2bc,task,flow.Sequence,3_0_1_0_2,NA,NA,completion,10926.3,333596.90000004,333590.5,333607.2,344533.5,344539.90000004,2024-04-30T09:32:32Z,344550.6,NULL,Können,unaweza,s,kiongozi,bustani,mienendo,NA,sdfdsf,NA,1,NA,NA,NA,NA,NA,NA,NA,NA,NA,NA,NA,NA,NA,NA,NA,NA,NA,NA,NA
7f2bc,Deep Question,html.Page,3_0_1_0_3_0_0,NA,NA,form submission,4470.3000000358,344539.90000004,344533.5,344550.6,349020.90000004,349021,2024-04-30T09:32:36Z,349030.6,NULL,Verstand,ufahamivu,d,NA,NA,NA,thikf,NA,NA,1,NA,NA,NA,NA,NA,NA,NA,NA,NA,NA,NA,NA,NA,NA,NA,NA,NA,NA,NA
7f2bc,"""Richtig""-Screen",canvas.Screen,3_0_1_0_3_0_1,NA,NA,skipped,NA,349024,NA,NA,349020.90000004,349024,2024-04-30T09:32:36Z,349030.6,NULL,Verstand,ufahamivu,d,NA,NA,NA,NA,sdfdsf,NA,1,NA,NA,NA,NA,NA,NA,NA,NA,NA,NA,NA,NA,NA,NA,NA,NA,NA,NA,NA
7f2bc,"""Falsch""-Screen",canvas.Screen,3_0_1_0_3_0_2,NA,NA,timeout,4997.4,349024.80000001,349014.524,349030.6,354010.9,354011.90000004,2024-04-30T09:32:41Z,354028,NULL,Verstand,ufahamivu,d,NA,NA,NA,NA,sdfdsf,0,1,NA,NA,NA,NA,NA,NA,NA,NA,NA,NA,NA,NA,NA,NA,NA,NA,NA,NA,NA
7f2bc,deep,flow.Sequence,3_0_1_0_3_0,NA,NA,completion,9460.3,344539.90000004,344533.5,344550.6,354010.9,354012.30000001,2024-04-30T09:32:41Z,354028,NULL,Verstand,ufahamivu,d,NA,NA,NA,NA,sdfdsf,NA,1,NA,NA,NA,NA,NA,NA,NA,NA,NA,NA,NA,NA,NA,NA,NA,NA,NA,NA,NA
7f2bc,shallow,flow.Sequence,3_0_1_0_3_1,NA,NA,skipped,NA,354012.5,NA,NA,354010.9,354012.60000002,2024-04-30T09:32:41Z,354028,NULL,Verstand,ufahamivu,d,NA,NA,NA,NA,sdfdsf,NA,1,NA,NA,NA,NA,NA,NA,NA,NA,NA,NA,NA,NA,NA,NA,NA,NA,NA,NA,NA
7f2bc,task,flow.Sequence,3_0_1_0_3,NA,NA,completion,9460.3,344539.90000004,344533.5,344550.6,354010.9,354012.80000001,2024-04-30T09:32:41Z,354028,NULL,Verstand,ufahamivu,d,NA,NA,NA,NA,sdfdsf,NA,1,NA,NA,NA,NA,NA,NA,NA,NA,NA,NA,NA,NA,NA,NA,NA,NA,NA,NA,NA
7f2bc,deep,flow.Sequence,3_0_1_0_4_0,NA,NA,skipped,NA,354013,NA,NA,354010.9,354013,2024-04-30T09:32:41Z,354028,NULL,Ausschluss,kutengwa,s,ununuzi,taratibu,madeni,NA,sdfdsf,NA,1,NA,NA,NA,NA,NA,NA,NA,NA,NA,NA,NA,NA,NA,NA,NA,NA,NA,NA,NA
7f2bc,Shallow Question,html.Page,3_0_1_0_4_1_0,NA,NA,form submission,5124.8000000119,354013.19999999,354010.9,354028,359152.80000001,359153,2024-04-30T09:32:46Z,359174.6,NULL,Ausschluss,kutengwa,s,ununuzi,taratibu,madeni,ununuzi,NA,NA,1,NA,NA,NA,NA,NA,NA,NA,NA,NA,NA,NA,NA,NA,NA,NA,NA,NA,NA,NA
7f2bc,"""Richtig""-Screen",canvas.Screen,3_0_1_0_4_1_1,NA,NA,skipped,NA,359156.10000002,NA,NA,359152.80000001,359156.30000001,2024-04-30T09:32:46Z,359174.6,NULL,Ausschluss,kutengwa,s,ununuzi,taratibu,madeni,NA,sdfdsf,NA,1,NA,NA,NA,NA,NA,NA,NA,NA,NA,NA,NA,NA,NA,NA,NA,NA,NA,NA,NA
7f2bc,"""Falsch""-Screen",canvas.Screen,3_0_1_0_4_1_2,NA,NA,timeout,4997.2,359157.10000002,359158.096,359174.6,364155.1,364156.19999999,2024-04-30T09:32:51Z,364171.8,NULL,Ausschluss,kutengwa,s,ununuzi,taratibu,madeni,NA,sdfdsf,0,1,NA,NA,NA,NA,NA,NA,NA,NA,NA,NA,NA,NA,NA,NA,NA,NA,NA,NA,NA
7f2bc,shallow,flow.Sequence,3_0_1_0_4_1,NA,NA,completion,10127.1,354013.10000002,354010.9,354028,364155.1,364156.60000002,2024-04-30T09:32:51Z,364171.8,NULL,Ausschluss,kutengwa,s,ununuzi,taratibu,madeni,NA,sdfdsf,NA,1,NA,NA,NA,NA,NA,NA,NA,NA,NA,NA,NA,NA,NA,NA,NA,NA,NA,NA,NA
7f2bc,task,flow.Sequence,3_0_1_0_4,NA,NA,completion,10127.1,354012.90000004,354010.9,354028,364155.1,364156.80000001,2024-04-30T09:32:51Z,364171.8,NULL,Ausschluss,kutengwa,s,ununuzi,taratibu,madeni,NA,sdfdsf,NA,1,NA,NA,NA,NA,NA,NA,NA,NA,NA,NA,NA,NA,NA,NA,NA,NA,NA,NA,NA
7f2bc,Deep Question,html.Page,3_0_1_0_5_0_0,NA,NA,form submission,5947.3999999881,364157,364155.1,364171.8,370119.19999999,370119.30000001,2024-04-30T09:32:57Z,370134.5,NULL,Gefährdung,kuhatarisha,d,NA,NA,NA,usumu,NA,NA,1,NA,NA,NA,NA,NA,NA,NA,NA,NA,NA,NA,NA,NA,NA,NA,NA,NA,NA,NA
7f2bc,"""Richtig""-Screen",canvas.Screen,3_0_1_0_5_0_1,NA,NA,skipped,NA,370122.30000001,NA,NA,370119.19999999,370122.5,2024-04-30T09:32:57Z,370134.5,NULL,Gefährdung,kuhatarisha,d,NA,NA,NA,NA,sdfdsf,NA,1,NA,NA,NA,NA,NA,NA,NA,NA,NA,NA,NA,NA,NA,NA,NA,NA,NA,NA,NA
7f2bc,"""Falsch""-Screen",canvas.Screen,3_0_1_0_5_0_2,NA,NA,timeout,4997.4,370123.30000001,370119.932,370134.5,375115.2,375116.10000002,2024-04-30T09:33:02Z,375131.9,NULL,Gefährdung,kuhatarisha,d,NA,NA,NA,NA,sdfdsf,0,1,NA,NA,NA,NA,NA,NA,NA,NA,NA,NA,NA,NA,NA,NA,NA,NA,NA,NA,NA
7f2bc,deep,flow.Sequence,3_0_1_0_5_0,NA,NA,completion,10943.4,364157,364155.1,364171.8,375115.2,375116.40000004,2024-04-30T09:33:02Z,375131.9,NULL,Gefährdung,kuhatarisha,d,NA,NA,NA,NA,sdfdsf,NA,1,NA,NA,NA,NA,NA,NA,NA,NA,NA,NA,NA,NA,NA,NA,NA,NA,NA,NA,NA
7f2bc,shallow,flow.Sequence,3_0_1_0_5_1,NA,NA,skipped,NA,375116.5,NA,NA,375115.2,375116.60000002,2024-04-30T09:33:02Z,375131.9,NULL,Gefährdung,kuhatarisha,d,NA,NA,NA,NA,sdfdsf,NA,1,NA,NA,NA,NA,NA,NA,NA,NA,NA,NA,NA,NA,NA,NA,NA,NA,NA,NA,NA
7f2bc,task,flow.Sequence,3_0_1_0_5,NA,NA,completion,10943.4,364156.90000004,364155.1,364171.8,375115.2,375116.80000001,2024-04-30T09:33:02Z,375131.9,NULL,Gefährdung,kuhatarisha,d,NA,NA,NA,NA,sdfdsf,NA,1,NA,NA,NA,NA,NA,NA,NA,NA,NA,NA,NA,NA,NA,NA,NA,NA,NA,NA,NA
7f2bc,deep,flow.Sequence,3_0_1_0_6_0,NA,NA,skipped,NA,375116.90000004,NA,NA,375115.2,375117,2024-04-30T09:33:02Z,375131.9,NULL,Gelegenheit,wakati,s,mchanganyiko,kipaumbele,kushuku,NA,sdfdsf,NA,1,NA,NA,NA,NA,NA,NA,NA,NA,NA,NA,NA,NA,NA,NA,NA,NA,NA,NA,NA
7f2bc,Shallow Question,html.Page,3_0_1_0_6_1_0,NA,NA,form submission,7335.2999999881,375117.19999999,375115.2,375131.9,382467.19999999,382467.40000004,2024-04-30T09:33:09Z,382477.2,NULL,Gelegenheit,wakati,s,mchanganyiko,kipaumbele,kushuku,wakati,NA,NA,1,NA,NA,NA,NA,NA,NA,NA,NA,NA,NA,NA,NA,NA,NA,NA,NA,NA,NA,NA
7f2bc,"""Richtig""-Screen",canvas.Screen,3_0_1_0_6_1_1,NA,NA,timeout,4997,382470.30000001,382462.2,382477.2,387457.3,387458.19999999,2024-04-30T09:33:14Z,387474.2,NULL,Gelegenheit,wakati,s,mchanganyiko,kipaumbele,kushuku,NA,sdfdsf,1,1,NA,NA,NA,NA,NA,NA,NA,NA,NA,NA,NA,NA,NA,NA,NA,NA,NA,NA,NA
7f2bc,"""Falsch""-Screen",canvas.Screen,3_0_1_0_6_1_2,NA,NA,skipped,NA,387462.80000001,NA,NA,387457.3,387463,2024-04-30T09:33:14Z,387474.2,NULL,Gelegenheit,wakati,s,mchanganyiko,kipaumbele,kushuku,NA,sdfdsf,NA,1,NA,NA,NA,NA,NA,NA,NA,NA,NA,NA,NA,NA,NA,NA,NA,NA,NA,NA,NA
7f2bc,shallow,flow.Sequence,3_0_1_0_6_1,NA,NA,completion,12325.4,375117.19999999,375115.2,375131.9,387457.3,387463.19999999,2024-04-30T09:33:14Z,387474.2,NULL,Gelegenheit,wakati,s,mchanganyiko,kipaumbele,kushuku,NA,sdfdsf,NA,1,NA,NA,NA,NA,NA,NA,NA,NA,NA,NA,NA,NA,NA,NA,NA,NA,NA,NA,NA
7f2bc,task,flow.Sequence,3_0_1_0_6,NA,NA,completion,12325.4,375116.90000004,375115.2,375131.9,387457.3,387463.40000004,2024-04-30T09:33:14Z,387474.2,NULL,Gelegenheit,wakati,s,mchanganyiko,kipaumbele,kushuku,NA,sdfdsf,NA,1,NA,NA,NA,NA,NA,NA,NA,NA,NA,NA,NA,NA,NA,NA,NA,NA,NA,NA,NA
7f2bc,Deep Question,html.Page,3_0_1_0_7_0_0,NA,NA,form submission,5568.9999999881,387463.60000002,387457.3,387474.2,393043.19999999,393043.30000001,2024-04-30T09:33:20Z,393053.8,NULL,Kontrolle,kudhibiti,d,NA,NA,NA,kiuhu,NA,NA,1,NA,NA,NA,NA,NA,NA,NA,NA,NA,NA,NA,NA,NA,NA,NA,NA,NA,NA,NA
7f2bc,"""Richtig""-Screen",canvas.Screen,3_0_1_0_7_0_1,NA,NA,skipped,NA,393046.19999999,NA,NA,393043.19999999,393046.30000001,2024-04-30T09:33:20Z,393053.8,NULL,Kontrolle,kudhibiti,d,NA,NA,NA,NA,sdfdsf,NA,1,NA,NA,NA,NA,NA,NA,NA,NA,NA,NA,NA,NA,NA,NA,NA,NA,NA,NA,NA
7f2bc,"""Falsch""-Screen",canvas.Screen,3_0_1_0_7_0_2,NA,NA,timeout,4997.3,393047,393037.726,393053.8,398034.5,398035.90000004,2024-04-30T09:33:25Z,398051.1,NULL,Kontrolle,kudhibiti,d,NA,NA,NA,NA,sdfdsf,0,1,NA,NA,NA,NA,NA,NA,NA,NA,NA,NA,NA,NA,NA,NA,NA,NA,NA,NA,NA
7f2bc,deep,flow.Sequence,3_0_1_0_7_0,NA,NA,completion,10560.3,387463.60000002,387457.3,387474.2,398034.5,398036.40000004,2024-04-30T09:33:25Z,398051.1,NULL,Kontrolle,kudhibiti,d,NA,NA,NA,NA,sdfdsf,NA,1,NA,NA,NA,NA,NA,NA,NA,NA,NA,NA,NA,NA,NA,NA,NA,NA,NA,NA,NA
7f2bc,shallow,flow.Sequence,3_0_1_0_7_1,NA,NA,skipped,NA,398036.60000002,NA,NA,398034.5,398036.69999999,2024-04-30T09:33:25Z,398051.1,NULL,Kontrolle,kudhibiti,d,NA,NA,NA,NA,sdfdsf,NA,1,NA,NA,NA,NA,NA,NA,NA,NA,NA,NA,NA,NA,NA,NA,NA,NA,NA,NA,NA
7f2bc,task,flow.Sequence,3_0_1_0_7,NA,NA,completion,10560.3,387463.5,387457.3,387474.2,398034.5,398036.90000004,2024-04-30T09:33:25Z,398051.1,NULL,Kontrolle,kudhibiti,d,NA,NA,NA,NA,sdfdsf,NA,1,NA,NA,NA,NA,NA,NA,NA,NA,NA,NA,NA,NA,NA,NA,NA,NA,NA,NA,NA
7f2bc,block,flow.Loop,3_0_1_0,NA,NA,completion,87263.7,310765.5,310756.15,310770.8,398034.5,398037.10000002,2024-04-30T09:33:25Z,398051.1,NULL,NA,NA,NA,NA,NA,NA,NA,sdfdsf,NA,1,NA,NA,NA,NA,NA,NA,NA,NA,NA,NA,NA,NA,NA,NA,NA,NA,NA,NA,NA
7f2bc,weiter,canvas.Screen,3_0_1_1,sdf,keypress(Space),response,1490.5999999881,398037.30000001,398034.5,398051.1,399541.69999999,399542.69999999,2024-04-30T09:33:27Z,399566.5,NULL,NA,NA,NA,NA,NA,NA,NA,sdfdsf,NA,1,NA,NA,NA,NA,NA,NA,NA,NA,NA,NA,NA,NA,NA,NA,NA,NA,NA,NA,NA
7f2bc,check continue,flow.Sequence,3_0_1,NA,NA,completion,88770.899999988,310765.5,310756.15,310770.8,399541.69999999,399543,2024-04-30T09:33:27Z,399566.5,NULL,NA,NA,NA,NA,NA,NA,NA,sdfdsf,NA,1,NA,NA,NA,NA,NA,NA,NA,NA,NA,NA,NA,NA,NA,NA,NA,NA,NA,NA,NA
7f2bc,deep,flow.Sequence,3_0_2_0_0_0,NA,NA,skipped,NA,399566.10000002,NA,NA,399541.69999999,399566.19999999,2024-04-30T09:33:27Z,399566.5,NULL,Ausschluss,kutengwa,s,ununuzi,taratibu,madeni,NA,sdf,NA,2,NA,NA,NA,NA,NA,NA,NA,NA,NA,NA,NA,NA,NA,NA,NA,NA,NA,NA,NA
7f2bc,Shallow Question,html.Page,3_0_2_0_0_1_0,NA,NA,form submission,5044.1000000238,399566.30000001,399550.858,399566.5,404610.60000002,404610.80000001,2024-04-30T09:33:32Z,404630.5,NULL,Ausschluss,kutengwa,s,ununuzi,taratibu,madeni,kutengwa,NA,NA,2,NA,NA,NA,NA,NA,NA,NA,NA,NA,NA,NA,NA,NA,NA,NA,NA,NA,NA,NA
7f2bc,"""Richtig""-Screen",canvas.Screen,3_0_2_0_0_1_1,NA,NA,timeout,4996.9,404613.69999999,404614.02,404630.5,409610.7,409611.10000002,2024-04-30T09:33:37Z,409627.4,NULL,Ausschluss,kutengwa,s,ununuzi,taratibu,madeni,NA,sdf,1,2,NA,NA,NA,NA,NA,NA,NA,NA,NA,NA,NA,NA,NA,NA,NA,NA,NA,NA,NA
7f2bc,"""Falsch""-Screen",canvas.Screen,3_0_2_0_0_1_2,NA,NA,skipped,NA,409612.60000002,NA,NA,409610.7,409612.69999999,2024-04-30T09:33:37Z,409627.4,NULL,Ausschluss,kutengwa,s,ununuzi,taratibu,madeni,NA,sdf,NA,2,NA,NA,NA,NA,NA,NA,NA,NA,NA,NA,NA,NA,NA,NA,NA,NA,NA,NA,NA
7f2bc,shallow,flow.Sequence,3_0_2_0_0_1,NA,NA,completion,10044.2,399566.30000001,399550.858,399566.5,409610.7,409612.80000001,2024-04-30T09:33:37Z,409627.4,NULL,Ausschluss,kutengwa,s,ununuzi,taratibu,madeni,NA,sdf,NA,2,NA,NA,NA,NA,NA,NA,NA,NA,NA,NA,NA,NA,NA,NA,NA,NA,NA,NA,NA
7f2bc,task,flow.Sequence,3_0_2_0_0,NA,NA,completion,10044.2,399566.10000002,399550.858,399566.5,409610.7,409612.90000004,2024-04-30T09:33:37Z,409627.4,NULL,Ausschluss,kutengwa,s,ununuzi,taratibu,madeni,NA,sdf,NA,2,NA,NA,NA,NA,NA,NA,NA,NA,NA,NA,NA,NA,NA,NA,NA,NA,NA,NA,NA
7f2bc,Deep Question,html.Page,3_0_2_0_1_0_0,NA,NA,form submission,8444.7999999881,409612.90000004,409610.7,409627.4,418072.19999999,418072.40000004,2024-04-30T09:33:45Z,418088.6,NULL,Kontrolle,kudhibiti,d,NA,NA,NA,kutuharisha,NA,NA,2,NA,NA,NA,NA,NA,NA,NA,NA,NA,NA,NA,NA,NA,NA,NA,NA,NA,NA,NA
7f2bc,"""Richtig""-Screen",canvas.Screen,3_0_2_0_1_0_1,NA,NA,skipped,NA,418075.5,NA,NA,418072.19999999,418075.60000002,2024-04-30T09:33:45Z,418088.6,NULL,Kontrolle,kudhibiti,d,NA,NA,NA,NA,sdf,NA,2,NA,NA,NA,NA,NA,NA,NA,NA,NA,NA,NA,NA,NA,NA,NA,NA,NA,NA,NA
7f2bc,"""Falsch""-Screen",canvas.Screen,3_0_2_0_1_0_2,NA,NA,timeout,4996.8,418076.30000001,418072.632,418088.6,423069,423069.90000004,2024-04-30T09:33:50Z,423085.4,NULL,Kontrolle,kudhibiti,d,NA,NA,NA,NA,sdf,0,2,NA,NA,NA,NA,NA,NA,NA,NA,NA,NA,NA,NA,NA,NA,NA,NA,NA,NA,NA
7f2bc,deep,flow.Sequence,3_0_2_0_1_0,NA,NA,completion,13441.6,409612.90000004,409610.7,409627.4,423069,423070.19999999,2024-04-30T09:33:50Z,423085.4,NULL,Kontrolle,kudhibiti,d,NA,NA,NA,NA,sdf,NA,2,NA,NA,NA,NA,NA,NA,NA,NA,NA,NA,NA,NA,NA,NA,NA,NA,NA,NA,NA
7f2bc,shallow,flow.Sequence,3_0_2_0_1_1,NA,NA,skipped,NA,423070.30000001,NA,NA,423069,423070.40000004,2024-04-30T09:33:50Z,423085.4,NULL,Kontrolle,kudhibiti,d,NA,NA,NA,NA,sdf,NA,2,NA,NA,NA,NA,NA,NA,NA,NA,NA,NA,NA,NA,NA,NA,NA,NA,NA,NA,NA
7f2bc,task,flow.Sequence,3_0_2_0_1,NA,NA,completion,13441.6,409612.90000004,409610.7,409627.4,423069,423070.60000002,2024-04-30T09:33:50Z,423085.4,NULL,Kontrolle,kudhibiti,d,NA,NA,NA,NA,sdf,NA,2,NA,NA,NA,NA,NA,NA,NA,NA,NA,NA,NA,NA,NA,NA,NA,NA,NA,NA,NA
7f2bc,Deep Question,html.Page,3_0_2_0_2_0_0,NA,NA,form submission,6168.7000000238,423070.69999999,423069,423085.4,429254.10000002,429254.30000001,2024-04-30T09:33:56Z,429265,NULL,Widerstand,usulubu,d,NA,NA,NA,kutuharisha,NA,NA,2,NA,NA,NA,NA,NA,NA,NA,NA,NA,NA,NA,NA,NA,NA,NA,NA,NA,NA,NA
7f2bc,"""Richtig""-Screen",canvas.Screen,3_0_2_0_2_0_1,NA,NA,skipped,NA,429257.30000001,NA,NA,429254.10000002,429257.5,2024-04-30T09:33:56Z,429265,NULL,Widerstand,usulubu,d,NA,NA,NA,NA,sdf,NA,2,NA,NA,NA,NA,NA,NA,NA,NA,NA,NA,NA,NA,NA,NA,NA,NA,NA,NA,NA
7f2bc,"""Falsch""-Screen",canvas.Screen,3_0_2_0_2_0_2,NA,NA,timeout,4997.4,429258.30000001,429253.572,429265,434245.4,434246.19999999,2024-04-30T09:34:01Z,434262.4,NULL,Widerstand,usulubu,d,NA,NA,NA,NA,sdf,0,2,NA,NA,NA,NA,NA,NA,NA,NA,NA,NA,NA,NA,NA,NA,NA,NA,NA,NA,NA
7f2bc,deep,flow.Sequence,3_0_2_0_2_0,NA,NA,completion,11160,423070.69999999,423069,423085.4,434245.4,434246.60000002,2024-04-30T09:34:01Z,434262.4,NULL,Widerstand,usulubu,d,NA,NA,NA,NA,sdf,NA,2,NA,NA,NA,NA,NA,NA,NA,NA,NA,NA,NA,NA,NA,NA,NA,NA,NA,NA,NA
7f2bc,shallow,flow.Sequence,3_0_2_0_2_1,NA,NA,skipped,NA,434246.69999999,NA,NA,434245.4,434246.80000001,2024-04-30T09:34:01Z,434262.4,NULL,Widerstand,usulubu,d,NA,NA,NA,NA,sdf,NA,2,NA,NA,NA,NA,NA,NA,NA,NA,NA,NA,NA,NA,NA,NA,NA,NA,NA,NA,NA
7f2bc,task,flow.Sequence,3_0_2_0_2,NA,NA,completion,11160,423070.69999999,423069,423085.4,434245.4,434247,2024-04-30T09:34:01Z,434262.4,NULL,Widerstand,usulubu,d,NA,NA,NA,NA,sdf,NA,2,NA,NA,NA,NA,NA,NA,NA,NA,NA,NA,NA,NA,NA,NA,NA,NA,NA,NA,NA
7f2bc,deep,flow.Sequence,3_0_2_0_3_0,NA,NA,skipped,NA,434247.19999999,NA,NA,434245.4,434247.40000004,2024-04-30T09:34:01Z,434262.4,NULL,Können,unaweza,s,kiongozi,bustani,mienendo,NA,sdf,NA,2,NA,NA,NA,NA,NA,NA,NA,NA,NA,NA,NA,NA,NA,NA,NA,NA,NA,NA,NA
7f2bc,Shallow Question,html.Page,3_0_2_0_3_1_0,NA,NA,form submission,8047.0000000357,434247.40000004,434245.4,434262.4,442309.40000004,442309.5,2024-04-30T09:34:09Z,442324,NULL,Können,unaweza,s,kiongozi,bustani,mienendo,unaweza,NA,NA,2,NA,NA,NA,NA,NA,NA,NA,NA,NA,NA,NA,NA,NA,NA,NA,NA,NA,NA,NA
7f2bc,"""Richtig""-Screen",canvas.Screen,3_0_2_0_3_1_1,NA,NA,timeout,4997.1,442312.5,442307.966,442324,447304.3,447305.19999999,2024-04-30T09:34:14Z,447321.1,NULL,Können,unaweza,s,kiongozi,bustani,mienendo,NA,sdf,1,2,NA,NA,NA,NA,NA,NA,NA,NA,NA,NA,NA,NA,NA,NA,NA,NA,NA,NA,NA
7f2bc,"""Falsch""-Screen",canvas.Screen,3_0_2_0_3_1_2,NA,NA,skipped,NA,447309.90000004,NA,NA,447304.3,447310.19999999,2024-04-30T09:34:14Z,447321.1,NULL,Können,unaweza,s,kiongozi,bustani,mienendo,NA,sdf,NA,2,NA,NA,NA,NA,NA,NA,NA,NA,NA,NA,NA,NA,NA,NA,NA,NA,NA,NA,NA
7f2bc,shallow,flow.Sequence,3_0_2_0_3_1,NA,NA,completion,13041.9,434247.40000004,434245.4,434262.4,447304.3,447310.40000004,2024-04-30T09:34:14Z,447321.1,NULL,Können,unaweza,s,kiongozi,bustani,mienendo,NA,sdf,NA,2,NA,NA,NA,NA,NA,NA,NA,NA,NA,NA,NA,NA,NA,NA,NA,NA,NA,NA,NA
7f2bc,task,flow.Sequence,3_0_2_0_3,NA,NA,completion,13041.9,434247.19999999,434245.4,434262.4,447304.3,447310.5,2024-04-30T09:34:14Z,447321.1,NULL,Können,unaweza,s,kiongozi,bustani,mienendo,NA,sdf,NA,2,NA,NA,NA,NA,NA,NA,NA,NA,NA,NA,NA,NA,NA,NA,NA,NA,NA,NA,NA
7f2bc,Deep Question,html.Page,3_0_2_0_4_0_0,NA,NA,form submission,7522.9,447310.60000002,447304.3,447321.1,454844,454844.19999999,2024-04-30T09:34:22Z,454849.4,NULL,Verstand,ufahamivu,d,NA,NA,NA,kutuharisha,NA,NA,2,NA,NA,NA,NA,NA,NA,NA,NA,NA,NA,NA,NA,NA,NA,NA,NA,NA,NA,NA
7f2bc,"""Richtig""-Screen",canvas.Screen,3_0_2_0_4_0_1,NA,NA,skipped,NA,454847.19999999,NA,NA,454844,454847.30000001,2024-04-30T09:34:22Z,454849.4,NULL,Verstand,ufahamivu,d,NA,NA,NA,NA,sdf,NA,2,NA,NA,NA,NA,NA,NA,NA,NA,NA,NA,NA,NA,NA,NA,NA,NA,NA,NA,NA
7f2bc,"""Falsch""-Screen",canvas.Screen,3_0_2_0_4_0_2,NA,NA,timeout,4997.2,454848,454833.228,454849.4,459830.1,459830.69999999,2024-04-30T09:34:27Z,459846.6,NULL,Verstand,ufahamivu,d,NA,NA,NA,NA,sdf,0,2,NA,NA,NA,NA,NA,NA,NA,NA,NA,NA,NA,NA,NA,NA,NA,NA,NA,NA,NA
7f2bc,deep,flow.Sequence,3_0_2_0_4_0,NA,NA,completion,12509,447310.5,447304.3,447321.1,459830.1,459831,2024-04-30T09:34:27Z,459846.6,NULL,Verstand,ufahamivu,d,NA,NA,NA,NA,sdf,NA,2,NA,NA,NA,NA,NA,NA,NA,NA,NA,NA,NA,NA,NA,NA,NA,NA,NA,NA,NA
7f2bc,shallow,flow.Sequence,3_0_2_0_4_1,NA,NA,skipped,NA,459831.10000002,NA,NA,459830.1,459831.10000002,2024-04-30T09:34:27Z,459846.6,NULL,Verstand,ufahamivu,d,NA,NA,NA,NA,sdf,NA,2,NA,NA,NA,NA,NA,NA,NA,NA,NA,NA,NA,NA,NA,NA,NA,NA,NA,NA,NA
7f2bc,task,flow.Sequence,3_0_2_0_4,NA,NA,completion,12509,447310.5,447304.3,447321.1,459830.1,459831.19999999,2024-04-30T09:34:27Z,459846.6,NULL,Verstand,ufahamivu,d,NA,NA,NA,NA,sdf,NA,2,NA,NA,NA,NA,NA,NA,NA,NA,NA,NA,NA,NA,NA,NA,NA,NA,NA,NA,NA
7f2bc,deep,flow.Sequence,3_0_2_0_5_0,NA,NA,skipped,NA,459831.30000001,NA,NA,459830.1,459831.40000004,2024-04-30T09:34:27Z,459846.6,NULL,Kreativität,ubunifu,s,mratibu,mwendelezo,makubaliano,NA,sdf,NA,2,NA,NA,NA,NA,NA,NA,NA,NA,NA,NA,NA,NA,NA,NA,NA,NA,NA,NA,NA
7f2bc,Shallow Question,html.Page,3_0_2_0_5_1_0,NA,NA,form submission,5976.2000000119,459831.40000004,459830.1,459846.6,465822.80000001,465823,2024-04-30T09:34:33Z,465843,NULL,Kreativität,ubunifu,s,mratibu,mwendelezo,makubaliano,ubunifu,NA,NA,2,NA,NA,NA,NA,NA,NA,NA,NA,NA,NA,NA,NA,NA,NA,NA,NA,NA,NA,NA
7f2bc,"""Richtig""-Screen",canvas.Screen,3_0_2_0_5_1_1,NA,NA,timeout,4997.1,465826.10000002,465826.618,465843,470823.4,470824.19999999,2024-04-30T09:34:38Z,470840.1,NULL,Kreativität,ubunifu,s,mratibu,mwendelezo,makubaliano,NA,sdf,1,2,NA,NA,NA,NA,NA,NA,NA,NA,NA,NA,NA,NA,NA,NA,NA,NA,NA,NA,NA
7f2bc,"""Falsch""-Screen",canvas.Screen,3_0_2_0_5_1_2,NA,NA,skipped,NA,470829.40000004,NA,NA,470823.4,470829.60000002,2024-04-30T09:34:38Z,470840.1,NULL,Kreativität,ubunifu,s,mratibu,mwendelezo,makubaliano,NA,sdf,NA,2,NA,NA,NA,NA,NA,NA,NA,NA,NA,NA,NA,NA,NA,NA,NA,NA,NA,NA,NA
7f2bc,shallow,flow.Sequence,3_0_2_0_5_1,NA,NA,completion,10976.8,459831.40000004,459830.1,459846.6,470823.4,470829.80000001,2024-04-30T09:34:38Z,470840.1,NULL,Kreativität,ubunifu,s,mratibu,mwendelezo,makubaliano,NA,sdf,NA,2,NA,NA,NA,NA,NA,NA,NA,NA,NA,NA,NA,NA,NA,NA,NA,NA,NA,NA,NA
7f2bc,task,flow.Sequence,3_0_2_0_5,NA,NA,completion,10976.8,459831.19999999,459830.1,459846.6,470823.4,470829.80000001,2024-04-30T09:34:38Z,470840.1,NULL,Kreativität,ubunifu,s,mratibu,mwendelezo,makubaliano,NA,sdf,NA,2,NA,NA,NA,NA,NA,NA,NA,NA,NA,NA,NA,NA,NA,NA,NA,NA,NA,NA,NA
7f2bc,deep,flow.Sequence,3_0_2_0_6_0,NA,NA,skipped,NA,470829.80000001,NA,NA,470823.4,470829.80000001,2024-04-30T09:34:38Z,470840.1,NULL,Gelegenheit,wakati,s,mchanganyiko,kipaumbele,kushuku,NA,sdf,NA,2,NA,NA,NA,NA,NA,NA,NA,NA,NA,NA,NA,NA,NA,NA,NA,NA,NA,NA,NA
7f2bc,Shallow Question,html.Page,3_0_2_0_6_1_0,NA,NA,form submission,5495.3000000358,470829.90000004,470823.4,470840.1,476335.40000004,476335.69999999,2024-04-30T09:34:43Z,476336.694,NULL,Gelegenheit,wakati,s,mchanganyiko,kipaumbele,kushuku,wakati,NA,NA,2,NA,NA,NA,NA,NA,NA,NA,NA,NA,NA,NA,NA,NA,NA,NA,NA,NA,NA,NA
7f2bc,"""Richtig""-Screen",canvas.Screen,3_0_2_0_6_1_1,NA,NA,timeout,4997.106,476338.40000004,476336.694,476336.694,481316.6,481317.60000002,2024-04-30T09:34:48Z,481333.8,NULL,Gelegenheit,wakati,s,mchanganyiko,kipaumbele,kushuku,NA,sdf,1,2,NA,NA,NA,NA,NA,NA,NA,NA,NA,NA,NA,NA,NA,NA,NA,NA,NA,NA,NA
7f2bc,"""Falsch""-Screen",canvas.Screen,3_0_2_0_6_1_2,NA,NA,skipped,NA,481322.69999999,NA,NA,481316.6,481322.69999999,2024-04-30T09:34:48Z,481333.8,NULL,Gelegenheit,wakati,s,mchanganyiko,kipaumbele,kushuku,NA,sdf,NA,2,NA,NA,NA,NA,NA,NA,NA,NA,NA,NA,NA,NA,NA,NA,NA,NA,NA,NA,NA
7f2bc,shallow,flow.Sequence,3_0_2_0_6_1,NA,NA,completion,10476.5,470829.80000001,470823.4,470840.1,481316.6,481322.80000001,2024-04-30T09:34:48Z,481333.8,NULL,Gelegenheit,wakati,s,mchanganyiko,kipaumbele,kushuku,NA,sdf,NA,2,NA,NA,NA,NA,NA,NA,NA,NA,NA,NA,NA,NA,NA,NA,NA,NA,NA,NA,NA
7f2bc,task,flow.Sequence,3_0_2_0_6,NA,NA,completion,10476.5,470829.80000001,470823.4,470840.1,481316.6,481322.90000004,2024-04-30T09:34:48Z,481333.8,NULL,Gelegenheit,wakati,s,mchanganyiko,kipaumbele,kushuku,NA,sdf,NA,2,NA,NA,NA,NA,NA,NA,NA,NA,NA,NA,NA,NA,NA,NA,NA,NA,NA,NA,NA
7f2bc,Deep Question,html.Page,3_0_2_0_7_0_0,NA,NA,form submission,6563.5000000119,481322.90000004,481316.6,481333.8,487897.30000001,487897.5,2024-04-30T09:34:55Z,487913,NULL,Gefährdung,kuhatarisha,d,NA,NA,NA,ufufuh,NA,NA,2,NA,NA,NA,NA,NA,NA,NA,NA,NA,NA,NA,NA,NA,NA,NA,NA,NA,NA,NA
7f2bc,"""Richtig""-Screen",canvas.Screen,3_0_2_0_7_0_1,NA,NA,skipped,NA,487900.40000004,NA,NA,487897.30000001,487900.60000002,2024-04-30T09:34:55Z,487913,NULL,Gefährdung,kuhatarisha,d,NA,NA,NA,NA,sdf,NA,2,NA,NA,NA,NA,NA,NA,NA,NA,NA,NA,NA,NA,NA,NA,NA,NA,NA,NA,NA
7f2bc,"""Falsch""-Screen",canvas.Screen,3_0_2_0_7_0_2,NA,NA,timeout,4996.8,487901.40000004,487896.556,487913,492893.3,492894.10000002,2024-04-30T09:35:00Z,492909.8,NULL,Gefährdung,kuhatarisha,d,NA,NA,NA,NA,sdf,0,2,NA,NA,NA,NA,NA,NA,NA,NA,NA,NA,NA,NA,NA,NA,NA,NA,NA,NA,NA
7f2bc,deep,flow.Sequence,3_0_2_0_7_0,NA,NA,completion,11559.5,481322.90000004,481316.6,481333.8,492893.3,492894.60000002,2024-04-30T09:35:00Z,492909.8,NULL,Gefährdung,kuhatarisha,d,NA,NA,NA,NA,sdf,NA,2,NA,NA,NA,NA,NA,NA,NA,NA,NA,NA,NA,NA,NA,NA,NA,NA,NA,NA,NA
7f2bc,shallow,flow.Sequence,3_0_2_0_7_1,NA,NA,skipped,NA,492894.69999999,NA,NA,492893.3,492894.80000001,2024-04-30T09:35:00Z,492909.8,NULL,Gefährdung,kuhatarisha,d,NA,NA,NA,NA,sdf,NA,2,NA,NA,NA,NA,NA,NA,NA,NA,NA,NA,NA,NA,NA,NA,NA,NA,NA,NA,NA
7f2bc,task,flow.Sequence,3_0_2_0_7,NA,NA,completion,11559.5,481322.90000004,481316.6,481333.8,492893.3,492895,2024-04-30T09:35:00Z,492909.8,NULL,Gefährdung,kuhatarisha,d,NA,NA,NA,NA,sdf,NA,2,NA,NA,NA,NA,NA,NA,NA,NA,NA,NA,NA,NA,NA,NA,NA,NA,NA,NA,NA
7f2bc,block,flow.Loop,3_0_2_0,NA,NA,completion,93326.8,399566.10000002,399550.858,399566.5,492893.3,492895.19999999,2024-04-30T09:35:00Z,492909.8,NULL,NA,NA,NA,NA,NA,NA,NA,sdf,NA,2,NA,NA,NA,NA,NA,NA,NA,NA,NA,NA,NA,NA,NA,NA,NA,NA,NA,NA,NA
7f2bc,weiter,canvas.Screen,3_0_2_1,sdf,keypress(Space),response,2627.2,492895.19999999,492893.3,492909.8,495537,495537.90000004,2024-04-30T09:35:03Z,495559.694,NULL,NA,NA,NA,NA,NA,NA,NA,sdf,NA,2,NA,NA,NA,NA,NA,NA,NA,NA,NA,NA,NA,NA,NA,NA,NA,NA,NA,NA,NA
7f2bc,check continue,flow.Sequence,3_0_2,NA,NA,completion,95970.5,399566.10000002,399550.858,399566.5,495537,495538.19999999,2024-04-30T09:35:03Z,495559.694,NULL,NA,NA,NA,NA,NA,NA,NA,sdf,NA,2,NA,NA,NA,NA,NA,NA,NA,NA,NA,NA,NA,NA,NA,NA,NA,NA,NA,NA,NA
7f2bc,Deep Question,html.Page,3_0_3_0_0_0_0,NA,NA,form submission,9773.2060000357,495567.5,495559.694,495559.694,505332.90000004,505333.10000002,2024-04-30T09:35:12Z,505335.922,NULL,Widerstand,usulubu,d,NA,NA,NA,bubu,NA,NA,3,NA,NA,NA,NA,NA,NA,NA,NA,NA,NA,NA,NA,NA,NA,NA,NA,NA,NA,NA
7f2bc,"""Richtig""-Screen",canvas.Screen,3_0_3_0_0_0_1,NA,NA,skipped,NA,505336.10000002,NA,NA,505332.90000004,505336.19999999,2024-04-30T09:35:12Z,505335.922,NULL,Widerstand,usulubu,d,NA,NA,NA,NA,qt,NA,3,NA,NA,NA,NA,NA,NA,NA,NA,NA,NA,NA,NA,NA,NA,NA,NA,NA,NA,NA
7f2bc,"""Falsch""-Screen",canvas.Screen,3_0_3_0_0_0_2,NA,NA,timeout,4996.878,505336.90000004,505335.922,505335.922,510315.8,510316.60000002,2024-04-30T09:35:17Z,510332.8,NULL,Widerstand,usulubu,d,NA,NA,NA,NA,qt,0,3,NA,NA,NA,NA,NA,NA,NA,NA,NA,NA,NA,NA,NA,NA,NA,NA,NA,NA,NA
7f2bc,deep,flow.Sequence,3_0_3_0_0_0,NA,NA,completion,14756.106,495567.5,495559.694,495559.694,510315.8,510316.90000004,2024-04-30T09:35:17Z,510332.8,NULL,Widerstand,usulubu,d,NA,NA,NA,NA,qt,NA,3,NA,NA,NA,NA,NA,NA,NA,NA,NA,NA,NA,NA,NA,NA,NA,NA,NA,NA,NA
7f2bc,shallow,flow.Sequence,3_0_3_0_0_1,NA,NA,skipped,NA,510317,NA,NA,510315.8,510317.19999999,2024-04-30T09:35:17Z,510332.8,NULL,Widerstand,usulubu,d,NA,NA,NA,NA,qt,NA,3,NA,NA,NA,NA,NA,NA,NA,NA,NA,NA,NA,NA,NA,NA,NA,NA,NA,NA,NA
7f2bc,task,flow.Sequence,3_0_3_0_0,NA,NA,completion,14756.106,495567.5,495559.694,495559.694,510315.8,510317.40000004,2024-04-30T09:35:17Z,510332.8,NULL,Widerstand,usulubu,d,NA,NA,NA,NA,qt,NA,3,NA,NA,NA,NA,NA,NA,NA,NA,NA,NA,NA,NA,NA,NA,NA,NA,NA,NA,NA
7f2bc,deep,flow.Sequence,3_0_3_0_1_0,NA,NA,skipped,NA,510317.60000002,NA,NA,510315.8,510317.60000002,2024-04-30T09:35:17Z,510332.8,NULL,Gelegenheit,wakati,s,mchanganyiko,kipaumbele,kushuku,NA,qt,NA,3,NA,NA,NA,NA,NA,NA,NA,NA,NA,NA,NA,NA,NA,NA,NA,NA,NA,NA,NA
7f2bc,Shallow Question,html.Page,3_0_3_0_1_1_0,NA,NA,form submission,4712.1000000358,510317.80000001,510315.8,510332.8,515044.90000004,515045.10000002,2024-04-30T09:35:22Z,515046.556,NULL,Gelegenheit,wakati,s,mchanganyiko,kipaumbele,kushuku,wakati,NA,NA,3,NA,NA,NA,NA,NA,NA,NA,NA,NA,NA,NA,NA,NA,NA,NA,NA,NA,NA,NA
7f2bc,"""Richtig""-Screen",canvas.Screen,3_0_3_0_1_1_1,NA,NA,timeout,4996.844,515048.19999999,515046.556,515046.556,520026.5,520027.40000004,2024-04-30T09:35:27Z,520043.4,NULL,Gelegenheit,wakati,s,mchanganyiko,kipaumbele,kushuku,NA,qt,1,3,NA,NA,NA,NA,NA,NA,NA,NA,NA,NA,NA,NA,NA,NA,NA,NA,NA,NA,NA
7f2bc,"""Falsch""-Screen",canvas.Screen,3_0_3_0_1_1_2,NA,NA,skipped,NA,520032.10000002,NA,NA,520026.5,520032.19999999,2024-04-30T09:35:27Z,520043.4,NULL,Gelegenheit,wakati,s,mchanganyiko,kipaumbele,kushuku,NA,qt,NA,3,NA,NA,NA,NA,NA,NA,NA,NA,NA,NA,NA,NA,NA,NA,NA,NA,NA,NA,NA
7f2bc,shallow,flow.Sequence,3_0_3_0_1_1,NA,NA,completion,9693.7,510317.69999999,510315.8,510332.8,520026.5,520032.5,2024-04-30T09:35:27Z,520043.4,NULL,Gelegenheit,wakati,s,mchanganyiko,kipaumbele,kushuku,NA,qt,NA,3,NA,NA,NA,NA,NA,NA,NA,NA,NA,NA,NA,NA,NA,NA,NA,NA,NA,NA,NA
7f2bc,task,flow.Sequence,3_0_3_0_1,NA,NA,completion,9693.7,510317.5,510315.8,510332.8,520026.5,520032.60000002,2024-04-30T09:35:27Z,520043.4,NULL,Gelegenheit,wakati,s,mchanganyiko,kipaumbele,kushuku,NA,qt,NA,3,NA,NA,NA,NA,NA,NA,NA,NA,NA,NA,NA,NA,NA,NA,NA,NA,NA,NA,NA
7f2bc,Deep Question,html.Page,3_0_3_0_2_0_0,NA,NA,form submission,8171.7999999881,520032.69999999,520026.5,520043.4,528215.19999999006,528215.40000004,2024-04-30T09:35:35Z,528221.988,NULL,Verstand,ufahamivu,d,NA,NA,NA,harisha,NA,NA,3,NA,NA,NA,NA,NA,NA,NA,NA,NA,NA,NA,NA,NA,NA,NA,NA,NA,NA,NA
7f2bc,"""Richtig""-Screen",canvas.Screen,3_0_3_0_2_0_1,NA,NA,skipped,NA,528218.40000004,NA,NA,528215.19999999006,528218.5,2024-04-30T09:35:35Z,528221.988,NULL,Verstand,ufahamivu,d,NA,NA,NA,NA,qt,NA,3,NA,NA,NA,NA,NA,NA,NA,NA,NA,NA,NA,NA,NA,NA,NA,NA,NA,NA,NA
7f2bc,"""Falsch""-Screen",canvas.Screen,3_0_3_0_2_0_2,NA,NA,timeout,4996.812,528219.30000000994,528221.988,528221.988,533201.6,533202.60000002,2024-04-30T09:35:40Z,533218.8,NULL,Verstand,ufahamivu,d,NA,NA,NA,NA,qt,0,3,NA,NA,NA,NA,NA,NA,NA,NA,NA,NA,NA,NA,NA,NA,NA,NA,NA,NA,NA
7f2bc,deep,flow.Sequence,3_0_3_0_2_0,NA,NA,completion,13158.2,520032.69999999,520026.5,520043.4,533201.6,533203,2024-04-30T09:35:40Z,533218.8,NULL,Verstand,ufahamivu,d,NA,NA,NA,NA,qt,NA,3,NA,NA,NA,NA,NA,NA,NA,NA,NA,NA,NA,NA,NA,NA,NA,NA,NA,NA,NA
7f2bc,shallow,flow.Sequence,3_0_3_0_2_1,NA,NA,skipped,NA,533203.19999999006,NA,NA,533201.6,533203.30000001,2024-04-30T09:35:40Z,533218.8,NULL,Verstand,ufahamivu,d,NA,NA,NA,NA,qt,NA,3,NA,NA,NA,NA,NA,NA,NA,NA,NA,NA,NA,NA,NA,NA,NA,NA,NA,NA,NA
7f2bc,task,flow.Sequence,3_0_3_0_2,NA,NA,completion,13158.2,520032.69999999,520026.5,520043.4,533201.6,533203.5,2024-04-30T09:35:40Z,533218.8,NULL,Verstand,ufahamivu,d,NA,NA,NA,NA,qt,NA,3,NA,NA,NA,NA,NA,NA,NA,NA,NA,NA,NA,NA,NA,NA,NA,NA,NA,NA,NA
7f2bc,Deep Question,html.Page,3_0_3_0_3_0_0,NA,NA,form submission,7274.0000000119,533203.69999999006,533201.6,533218.8,540492.80000001,540493,2024-04-30T09:35:47Z,540497.2,NULL,Kontrolle,kudhibiti,d,NA,NA,NA,uslububu,NA,NA,3,NA,NA,NA,NA,NA,NA,NA,NA,NA,NA,NA,NA,NA,NA,NA,NA,NA,NA,NA
7f2bc,"""Richtig""-Screen",canvas.Screen,3_0_3_0_3_0_1,NA,NA,skipped,NA,540496.10000002,NA,NA,540492.80000001,540496.19999999006,2024-04-30T09:35:47Z,540497.2,NULL,Kontrolle,kudhibiti,d,NA,NA,NA,NA,qt,NA,3,NA,NA,NA,NA,NA,NA,NA,NA,NA,NA,NA,NA,NA,NA,NA,NA,NA,NA,NA
7f2bc,"""Falsch""-Screen",canvas.Screen,3_0_3_0_3_0_2,NA,NA,timeout,4997.3,540497,540481.3,540497.2,545477.7,545478.5,2024-04-30T09:35:52Z,545494.5,NULL,Kontrolle,kudhibiti,d,NA,NA,NA,NA,qt,0,3,NA,NA,NA,NA,NA,NA,NA,NA,NA,NA,NA,NA,NA,NA,NA,NA,NA,NA,NA
7f2bc,deep,flow.Sequence,3_0_3_0_3_0,NA,NA,completion,12258.9,533203.69999999006,533201.6,533218.8,545477.7,545478.80000001,2024-04-30T09:35:52Z,545494.5,NULL,Kontrolle,kudhibiti,d,NA,NA,NA,NA,qt,NA,3,NA,NA,NA,NA,NA,NA,NA,NA,NA,NA,NA,NA,NA,NA,NA,NA,NA,NA,NA
7f2bc,shallow,flow.Sequence,3_0_3_0_3_1,NA,NA,skipped,NA,545478.90000004,NA,NA,545477.7,545479.10000002,2024-04-30T09:35:52Z,545494.5,NULL,Kontrolle,kudhibiti,d,NA,NA,NA,NA,qt,NA,3,NA,NA,NA,NA,NA,NA,NA,NA,NA,NA,NA,NA,NA,NA,NA,NA,NA,NA,NA
7f2bc,task,flow.Sequence,3_0_3_0_3,NA,NA,completion,12258.9,533203.60000002,533201.6,533218.8,545477.7,545479.19999999006,2024-04-30T09:35:52Z,545494.5,NULL,Kontrolle,kudhibiti,d,NA,NA,NA,NA,qt,NA,3,NA,NA,NA,NA,NA,NA,NA,NA,NA,NA,NA,NA,NA,NA,NA,NA,NA,NA,NA
7f2bc,deep,flow.Sequence,3_0_3_0_4_0,NA,NA,skipped,NA,545479.40000004,NA,NA,545477.7,545479.5,2024-04-30T09:35:52Z,545494.5,NULL,Können,unaweza,s,kiongozi,bustani,mienendo,NA,qt,NA,3,NA,NA,NA,NA,NA,NA,NA,NA,NA,NA,NA,NA,NA,NA,NA,NA,NA,NA,NA
7f2bc,Shallow Question,html.Page,3_0_3_0_4_1_0,NA,NA,form submission,4364.1999999881,545479.60000002,545477.7,545494.5,549858.69999999006,549858.90000004,2024-04-30T09:35:57Z,549875.4,NULL,Können,unaweza,s,kiongozi,bustani,mienendo,unaweza,NA,NA,3,NA,NA,NA,NA,NA,NA,NA,NA,NA,NA,NA,NA,NA,NA,NA,NA,NA,NA,NA
7f2bc,"""Richtig""-Screen",canvas.Screen,3_0_3_0_4_1_1,NA,NA,timeout,4996.6,549861.80000000994,549859.728,549875.4,554855.1,554856.10000002,2024-04-30T09:36:02Z,554872,NULL,Können,unaweza,s,kiongozi,bustani,mienendo,NA,qt,1,3,NA,NA,NA,NA,NA,NA,NA,NA,NA,NA,NA,NA,NA,NA,NA,NA,NA,NA,NA
7f2bc,"""Falsch""-Screen",canvas.Screen,3_0_3_0_4_1_2,NA,NA,skipped,NA,554861.19999999006,NA,NA,554855.1,554861.30000000994,2024-04-30T09:36:02Z,554872,NULL,Können,unaweza,s,kiongozi,bustani,mienendo,NA,qt,NA,3,NA,NA,NA,NA,NA,NA,NA,NA,NA,NA,NA,NA,NA,NA,NA,NA,NA,NA,NA
7f2bc,shallow,flow.Sequence,3_0_3_0_4_1,NA,NA,completion,9360.6,545479.60000002,545477.7,545494.5,554855.1,554861.40000004,2024-04-30T09:36:02Z,554872,NULL,Können,unaweza,s,kiongozi,bustani,mienendo,NA,qt,NA,3,NA,NA,NA,NA,NA,NA,NA,NA,NA,NA,NA,NA,NA,NA,NA,NA,NA,NA,NA
7f2bc,task,flow.Sequence,3_0_3_0_4,NA,NA,completion,9360.6,545479.30000000994,545477.7,545494.5,554855.1,554861.60000002,2024-04-30T09:36:02Z,554872,NULL,Können,unaweza,s,kiongozi,bustani,mienendo,NA,qt,NA,3,NA,NA,NA,NA,NA,NA,NA,NA,NA,NA,NA,NA,NA,NA,NA,NA,NA,NA,NA
7f2bc,deep,flow.Sequence,3_0_3_0_5_0,NA,NA,skipped,NA,554861.60000002,NA,NA,554855.1,554861.60000002,2024-04-30T09:36:02Z,554872,NULL,Ausschluss,kutengwa,s,ununuzi,taratibu,madeni,NA,qt,NA,3,NA,NA,NA,NA,NA,NA,NA,NA,NA,NA,NA,NA,NA,NA,NA,NA,NA,NA,NA
7f2bc,Shallow Question,html.Page,3_0_3_0_5_1_0,NA,NA,form submission,4889.5,554861.60000002,554855.1,554872,559761.5,559761.5,2024-04-30T09:36:07Z,559768.6,NULL,Ausschluss,kutengwa,s,ununuzi,taratibu,madeni,kutengwa,NA,NA,3,NA,NA,NA,NA,NA,NA,NA,NA,NA,NA,NA,NA,NA,NA,NA,NA,NA,NA,NA
7f2bc,"""Richtig""-Screen",canvas.Screen,3_0_3_0_5_1_1,NA,NA,timeout,4997.4,559762.90000004,559752.3,559768.6,564749.4,564750.30000000994,2024-04-30T09:36:12Z,564766,NULL,Ausschluss,kutengwa,s,ununuzi,taratibu,madeni,NA,qt,1,3,NA,NA,NA,NA,NA,NA,NA,NA,NA,NA,NA,NA,NA,NA,NA,NA,NA,NA,NA
7f2bc,"""Falsch""-Screen",canvas.Screen,3_0_3_0_5_1_2,NA,NA,skipped,NA,564755.10000002,NA,NA,564749.4,564755.10000002,2024-04-30T09:36:12Z,564766,NULL,Ausschluss,kutengwa,s,ununuzi,taratibu,madeni,NA,qt,NA,3,NA,NA,NA,NA,NA,NA,NA,NA,NA,NA,NA,NA,NA,NA,NA,NA,NA,NA,NA
7f2bc,shallow,flow.Sequence,3_0_3_0_5_1,NA,NA,completion,9877.4,554861.60000002,554855.1,554872,564749.4,564755.30000000994,2024-04-30T09:36:12Z,564766,NULL,Ausschluss,kutengwa,s,ununuzi,taratibu,madeni,NA,qt,NA,3,NA,NA,NA,NA,NA,NA,NA,NA,NA,NA,NA,NA,NA,NA,NA,NA,NA,NA,NA
7f2bc,task,flow.Sequence,3_0_3_0_5,NA,NA,completion,9877.4,554861.60000002,554855.1,554872,564749.4,564755.30000000994,2024-04-30T09:36:12Z,564766,NULL,Ausschluss,kutengwa,s,ununuzi,taratibu,madeni,NA,qt,NA,3,NA,NA,NA,NA,NA,NA,NA,NA,NA,NA,NA,NA,NA,NA,NA,NA,NA,NA,NA
7f2bc,Deep Question,html.Page,3_0_3_0_6_0_0,NA,NA,form submission,6960,564755.40000004,564749.4,564766,571726,571726.19999999006,2024-04-30T09:36:19Z,571745.3,NULL,Gefährdung,kuhatarisha,d,NA,NA,NA,usululu,NA,NA,3,NA,NA,NA,NA,NA,NA,NA,NA,NA,NA,NA,NA,NA,NA,NA,NA,NA,NA,NA
7f2bc,"""Richtig""-Screen",canvas.Screen,3_0_3_0_6_0_1,NA,NA,skipped,NA,571729.19999999006,NA,NA,571726,571729.30000000994,2024-04-30T09:36:19Z,571745.3,NULL,Gefährdung,kuhatarisha,d,NA,NA,NA,NA,qt,NA,3,NA,NA,NA,NA,NA,NA,NA,NA,NA,NA,NA,NA,NA,NA,NA,NA,NA,NA,NA
7f2bc,"""Falsch""-Screen",canvas.Screen,3_0_3_0_6_0_2,NA,NA,timeout,4997,571730.10000002,571728.832,571745.3,576725.5,576726.40000004,2024-04-30T09:36:24Z,576742.3,NULL,Gefährdung,kuhatarisha,d,NA,NA,NA,NA,qt,0,3,NA,NA,NA,NA,NA,NA,NA,NA,NA,NA,NA,NA,NA,NA,NA,NA,NA,NA,NA
7f2bc,deep,flow.Sequence,3_0_3_0_6_0,NA,NA,completion,11959.5,564755.40000004,564749.4,564766,576725.5,576726.80000000994,2024-04-30T09:36:24Z,576742.3,NULL,Gefährdung,kuhatarisha,d,NA,NA,NA,NA,qt,NA,3,NA,NA,NA,NA,NA,NA,NA,NA,NA,NA,NA,NA,NA,NA,NA,NA,NA,NA,NA
7f2bc,shallow,flow.Sequence,3_0_3_0_6_1,NA,NA,skipped,NA,576727,NA,NA,576725.5,576727,2024-04-30T09:36:24Z,576742.3,NULL,Gefährdung,kuhatarisha,d,NA,NA,NA,NA,qt,NA,3,NA,NA,NA,NA,NA,NA,NA,NA,NA,NA,NA,NA,NA,NA,NA,NA,NA,NA,NA
7f2bc,task,flow.Sequence,3_0_3_0_6,NA,NA,completion,11959.5,564755.40000004,564749.4,564766,576725.5,576727.19999999006,2024-04-30T09:36:24Z,576742.3,NULL,Gefährdung,kuhatarisha,d,NA,NA,NA,NA,qt,NA,3,NA,NA,NA,NA,NA,NA,NA,NA,NA,NA,NA,NA,NA,NA,NA,NA,NA,NA,NA
7f2bc,deep,flow.Sequence,3_0_3_0_7_0,NA,NA,skipped,NA,576727.40000004,NA,NA,576725.5,576727.5,2024-04-30T09:36:24Z,576742.3,NULL,Kreativität,ubunifu,s,mratibu,mwendelezo,makubaliano,NA,qt,NA,3,NA,NA,NA,NA,NA,NA,NA,NA,NA,NA,NA,NA,NA,NA,NA,NA,NA,NA,NA
7f2bc,Shallow Question,html.Page,3_0_3_0_7_1_0,NA,NA,form submission,4152.3000000238,576727.60000002,576725.5,576742.3,580894.60000002,580894.90000004,2024-04-30T09:36:28Z,580905.9,NULL,Kreativität,ubunifu,s,mratibu,mwendelezo,makubaliano,ubunifu,NA,NA,3,NA,NA,NA,NA,NA,NA,NA,NA,NA,NA,NA,NA,NA,NA,NA,NA,NA,NA,NA
7f2bc,"""Richtig""-Screen",canvas.Screen,3_0_3_0_7_1_1,NA,NA,timeout,4997.2,580897.90000004,580889.4,580905.9,585886.2,585887.30000001,2024-04-30T09:36:33Z,585903.1,NULL,Kreativität,ubunifu,s,mratibu,mwendelezo,makubaliano,NA,qt,1,3,NA,NA,NA,NA,NA,NA,NA,NA,NA,NA,NA,NA,NA,NA,NA,NA,NA,NA,NA
7f2bc,"""Falsch""-Screen",canvas.Screen,3_0_3_0_7_1_2,NA,NA,skipped,NA,585891.60000002,NA,NA,585886.2,585891.69999999006,2024-04-30T09:36:33Z,585903.1,NULL,Kreativität,ubunifu,s,mratibu,mwendelezo,makubaliano,NA,qt,NA,3,NA,NA,NA,NA,NA,NA,NA,NA,NA,NA,NA,NA,NA,NA,NA,NA,NA,NA,NA
7f2bc,shallow,flow.Sequence,3_0_3_0_7_1,NA,NA,completion,9143.8999999999,576727.60000002,576725.5,576742.3,585886.2,585891.80000001,2024-04-30T09:36:33Z,585903.1,NULL,Kreativität,ubunifu,s,mratibu,mwendelezo,makubaliano,NA,qt,NA,3,NA,NA,NA,NA,NA,NA,NA,NA,NA,NA,NA,NA,NA,NA,NA,NA,NA,NA,NA
7f2bc,task,flow.Sequence,3_0_3_0_7,NA,NA,completion,9143.8999999999,576727.30000001,576725.5,576742.3,585886.2,585891.80000001,2024-04-30T09:36:33Z,585903.1,NULL,Kreativität,ubunifu,s,mratibu,mwendelezo,makubaliano,NA,qt,NA,3,NA,NA,NA,NA,NA,NA,NA,NA,NA,NA,NA,NA,NA,NA,NA,NA,NA,NA,NA
7f2bc,block,flow.Loop,3_0_3_0,NA,NA,completion,90326.506,495567.40000004,495559.694,495559.694,585886.2,585891.80000001,2024-04-30T09:36:33Z,585903.1,NULL,NA,NA,NA,NA,NA,NA,NA,qt,NA,3,NA,NA,NA,NA,NA,NA,NA,NA,NA,NA,NA,NA,NA,NA,NA,NA,NA,NA,NA
7f2bc,weiter,canvas.Screen,3_0_3_1,sdf,keypress(Space),response,1129.5000000239,585892,585886.2,585903.1,587032.60000002,587033.60000002,2024-04-30T09:36:34Z,587068.9,NULL,NA,NA,NA,NA,NA,NA,NA,qt,NA,3,NA,NA,NA,NA,NA,NA,NA,NA,NA,NA,NA,NA,NA,NA,NA,NA,NA,NA,NA
7f2bc,check continue,flow.Sequence,3_0_3,NA,NA,completion,91472.906000024,495567.40000004,495559.694,495559.694,587032.60000002,587033.80000001,2024-04-30T09:36:34Z,587068.9,NULL,NA,NA,NA,NA,NA,NA,NA,qt,NA,3,NA,NA,NA,NA,NA,NA,NA,NA,NA,NA,NA,NA,NA,NA,NA,NA,NA,NA,NA
7f2bc,Deep Question,html.Page,3_0_4_0_0_0_0,NA,NA,form submission,4014.6,587053.80000000994,587053.95,587068.9,591083.5,591083.69999999006,2024-04-30T09:36:38Z,591100.1,NULL,Verstand,ufahamivu,d,NA,NA,NA,jj,NA,NA,4,NA,NA,NA,NA,NA,NA,NA,NA,NA,NA,NA,NA,NA,NA,NA,NA,NA,NA,NA
7f2bc,"""Richtig""-Screen",canvas.Screen,3_0_4_0_0_0_1,NA,NA,skipped,NA,591086.5,NA,NA,591083.5,591086.60000002,2024-04-30T09:36:38Z,591100.1,NULL,Verstand,ufahamivu,d,NA,NA,NA,NA,sd,NA,4,NA,NA,NA,NA,NA,NA,NA,NA,NA,NA,NA,NA,NA,NA,NA,NA,NA,NA,NA
7f2bc,"""Falsch""-Screen",canvas.Screen,3_0_4_0_0_0_2,NA,NA,timeout,4996.7000000001,591087.40000004,591083.398,591100.1,596080.2,596080.90000004,2024-04-30T09:36:43Z,596096.8,NULL,Verstand,ufahamivu,d,NA,NA,NA,NA,sd,0,4,NA,NA,NA,NA,NA,NA,NA,NA,NA,NA,NA,NA,NA,NA,NA,NA,NA,NA,NA
7f2bc,deep,flow.Sequence,3_0_4_0_0_0,NA,NA,completion,9011.2999999999,587053.80000000994,587053.95,587068.9,596080.2,596081.19999999006,2024-04-30T09:36:43Z,596096.8,NULL,Verstand,ufahamivu,d,NA,NA,NA,NA,sd,NA,4,NA,NA,NA,NA,NA,NA,NA,NA,NA,NA,NA,NA,NA,NA,NA,NA,NA,NA,NA
7f2bc,shallow,flow.Sequence,3_0_4_0_0_1,NA,NA,skipped,NA,596081.40000004,NA,NA,596080.2,596081.5,2024-04-30T09:36:43Z,596096.8,NULL,Verstand,ufahamivu,d,NA,NA,NA,NA,sd,NA,4,NA,NA,NA,NA,NA,NA,NA,NA,NA,NA,NA,NA,NA,NA,NA,NA,NA,NA,NA
7f2bc,task,flow.Sequence,3_0_4_0_0,NA,NA,completion,9011.2999999999,587053.80000000994,587053.95,587068.9,596080.2,596081.60000002,2024-04-30T09:36:43Z,596096.8,NULL,Verstand,ufahamivu,d,NA,NA,NA,NA,sd,NA,4,NA,NA,NA,NA,NA,NA,NA,NA,NA,NA,NA,NA,NA,NA,NA,NA,NA,NA,NA
7f2bc,Deep Question,html.Page,3_0_4_0_1_0_0,NA,NA,form submission,7463.7,596081.80000001,596080.2,596096.8,603560.5,603560.69999999006,2024-04-30T09:36:51Z,603575.4,NULL,Kontrolle,kudhibiti,d,NA,NA,NA,hdhd,NA,NA,4,NA,NA,NA,NA,NA,NA,NA,NA,NA,NA,NA,NA,NA,NA,NA,NA,NA,NA,NA
7f2bc,"""Richtig""-Screen",canvas.Screen,3_0_4_0_1_0_1,NA,NA,skipped,NA,603562.60000002,NA,NA,603560.5,603562.69999999006,2024-04-30T09:36:51Z,603575.4,NULL,Kontrolle,kudhibiti,d,NA,NA,NA,NA,sd,NA,4,NA,NA,NA,NA,NA,NA,NA,NA,NA,NA,NA,NA,NA,NA,NA,NA,NA,NA,NA
7f2bc,"""Falsch""-Screen",canvas.Screen,3_0_4_0_1_0_2,NA,NA,timeout,4997.2,603563.19999999006,603559.7,603575.4,608555.6,608556.5,2024-04-30T09:36:56Z,608572.6,NULL,Kontrolle,kudhibiti,d,NA,NA,NA,NA,sd,0,4,NA,NA,NA,NA,NA,NA,NA,NA,NA,NA,NA,NA,NA,NA,NA,NA,NA,NA,NA
7f2bc,deep,flow.Sequence,3_0_4_0_1_0,NA,NA,completion,12458.8,596081.69999999006,596080.2,596096.8,608555.6,608556.80000001,2024-04-30T09:36:56Z,608572.6,NULL,Kontrolle,kudhibiti,d,NA,NA,NA,NA,sd,NA,4,NA,NA,NA,NA,NA,NA,NA,NA,NA,NA,NA,NA,NA,NA,NA,NA,NA,NA,NA
7f2bc,shallow,flow.Sequence,3_0_4_0_1_1,NA,NA,skipped,NA,608557,NA,NA,608555.6,608557.10000002,2024-04-30T09:36:56Z,608572.6,NULL,Kontrolle,kudhibiti,d,NA,NA,NA,NA,sd,NA,4,NA,NA,NA,NA,NA,NA,NA,NA,NA,NA,NA,NA,NA,NA,NA,NA,NA,NA,NA
7f2bc,task,flow.Sequence,3_0_4_0_1,NA,NA,completion,12458.8,596081.69999999006,596080.2,596096.8,608555.6,608557.30000001,2024-04-30T09:36:56Z,608572.6,NULL,Kontrolle,kudhibiti,d,NA,NA,NA,NA,sd,NA,4,NA,NA,NA,NA,NA,NA,NA,NA,NA,NA,NA,NA,NA,NA,NA,NA,NA,NA,NA
7f2bc,deep,flow.Sequence,3_0_4_0_2_0,NA,NA,skipped,NA,608557.5,NA,NA,608555.6,608557.60000002,2024-04-30T09:36:56Z,608572.6,NULL,Können,unaweza,s,kiongozi,bustani,mienendo,NA,sd,NA,4,NA,NA,NA,NA,NA,NA,NA,NA,NA,NA,NA,NA,NA,NA,NA,NA,NA,NA,NA
7f2bc,Shallow Question,html.Page,3_0_4_0_2_1_0,NA,NA,form submission,5146.0999999881,608557.69999999006,608555.6,608572.6,613718.69999999006,613719,2024-04-30T09:37:01Z,613719.228,NULL,Können,unaweza,s,kiongozi,bustani,mienendo,unaweza,NA,NA,4,NA,NA,NA,NA,NA,NA,NA,NA,NA,NA,NA,NA,NA,NA,NA,NA,NA,NA,NA
7f2bc,"""Richtig""-Screen",canvas.Screen,3_0_4_0_2_1_1,NA,NA,timeout,4997.172,613722,613719.228,613719.228,618699.9,618701,2024-04-30T09:37:06Z,618716.4,NULL,Können,unaweza,s,kiongozi,bustani,mienendo,NA,sd,1,4,NA,NA,NA,NA,NA,NA,NA,NA,NA,NA,NA,NA,NA,NA,NA,NA,NA,NA,NA
7f2bc,"""Falsch""-Screen",canvas.Screen,3_0_4_0_2_1_2,NA,NA,skipped,NA,618705.30000001,NA,NA,618699.9,618705.30000001,2024-04-30T09:37:06Z,618716.4,NULL,Können,unaweza,s,kiongozi,bustani,mienendo,NA,sd,NA,4,NA,NA,NA,NA,NA,NA,NA,NA,NA,NA,NA,NA,NA,NA,NA,NA,NA,NA,NA
7f2bc,shallow,flow.Sequence,3_0_4_0_2_1,NA,NA,completion,10127.3,608557.69999999006,608555.6,608572.6,618699.9,618705.5,2024-04-30T09:37:06Z,618716.4,NULL,Können,unaweza,s,kiongozi,bustani,mienendo,NA,sd,NA,4,NA,NA,NA,NA,NA,NA,NA,NA,NA,NA,NA,NA,NA,NA,NA,NA,NA,NA,NA
7f2bc,task,flow.Sequence,3_0_4_0_2,NA,NA,completion,10127.3,608557.5,608555.6,608572.6,618699.9,618705.60000002,2024-04-30T09:37:06Z,618716.4,NULL,Können,unaweza,s,kiongozi,bustani,mienendo,NA,sd,NA,4,NA,NA,NA,NA,NA,NA,NA,NA,NA,NA,NA,NA,NA,NA,NA,NA,NA,NA,NA
7f2bc,Deep Question,html.Page,3_0_4_0_3_0_0,NA,NA,form submission,5055.0000000357,618705.60000002,618699.9,618716.4,623771.40000004,623771.60000002,2024-04-30T09:37:11Z,623779.8,NULL,Widerstand,usulubu,d,NA,NA,NA,kid,NA,NA,4,NA,NA,NA,NA,NA,NA,NA,NA,NA,NA,NA,NA,NA,NA,NA,NA,NA,NA,NA
7f2bc,"""Richtig""-Screen",canvas.Screen,3_0_4_0_3_0_1,NA,NA,skipped,NA,623774.40000004,NA,NA,623771.40000004,623774.5,2024-04-30T09:37:11Z,623779.8,NULL,Widerstand,usulubu,d,NA,NA,NA,NA,sd,NA,4,NA,NA,NA,NA,NA,NA,NA,NA,NA,NA,NA,NA,NA,NA,NA,NA,NA,NA,NA
7f2bc,"""Falsch""-Screen",canvas.Screen,3_0_4_0_3_0_2,NA,NA,timeout,4997,623775.19999999006,623763.4,623779.8,628760.4,628761.10000002,2024-04-30T09:37:16Z,628776.8,NULL,Widerstand,usulubu,d,NA,NA,NA,NA,sd,0,4,NA,NA,NA,NA,NA,NA,NA,NA,NA,NA,NA,NA,NA,NA,NA,NA,NA,NA,NA
7f2bc,deep,flow.Sequence,3_0_4_0_3_0,NA,NA,completion,10044,618705.60000002,618699.9,618716.4,628760.4,628761.40000004,2024-04-30T09:37:16Z,628776.8,NULL,Widerstand,usulubu,d,NA,NA,NA,NA,sd,NA,4,NA,NA,NA,NA,NA,NA,NA,NA,NA,NA,NA,NA,NA,NA,NA,NA,NA,NA,NA
7f2bc,shallow,flow.Sequence,3_0_4_0_3_1,NA,NA,skipped,NA,628761.5,NA,NA,628760.4,628761.60000002,2024-04-30T09:37:16Z,628776.8,NULL,Widerstand,usulubu,d,NA,NA,NA,NA,sd,NA,4,NA,NA,NA,NA,NA,NA,NA,NA,NA,NA,NA,NA,NA,NA,NA,NA,NA,NA,NA
7f2bc,task,flow.Sequence,3_0_4_0_3,NA,NA,completion,10044,618705.60000002,618699.9,618716.4,628760.4,628761.69999999006,2024-04-30T09:37:16Z,628776.8,NULL,Widerstand,usulubu,d,NA,NA,NA,NA,sd,NA,4,NA,NA,NA,NA,NA,NA,NA,NA,NA,NA,NA,NA,NA,NA,NA,NA,NA,NA,NA
7f2bc,Deep Question,html.Page,3_0_4_0_4_0_0,NA,NA,form submission,4508.399999988,628761.80000000994,628760.4,628776.8,633285.19999999006,633285.40000004,2024-04-30T09:37:20Z,633290.6,NULL,Gefährdung,kuhatarisha,d,NA,NA,NA,gsg,NA,NA,4,NA,NA,NA,NA,NA,NA,NA,NA,NA,NA,NA,NA,NA,NA,NA,NA,NA,NA,NA
7f2bc,"""Richtig""-Screen",canvas.Screen,3_0_4_0_4_0_1,NA,NA,skipped,NA,633288.40000004,NA,NA,633285.19999999006,633288.5,2024-04-30T09:37:20Z,633290.6,NULL,Gefährdung,kuhatarisha,d,NA,NA,NA,NA,sd,NA,4,NA,NA,NA,NA,NA,NA,NA,NA,NA,NA,NA,NA,NA,NA,NA,NA,NA,NA,NA
7f2bc,"""Falsch""-Screen",canvas.Screen,3_0_4_0_4_0_2,NA,NA,timeout,4996.9,633289.30000000994,633275.2,633290.6,638271.3,638273.80000001,2024-04-30T09:37:25Z,638287.5,NULL,Gefährdung,kuhatarisha,d,NA,NA,NA,NA,sd,0,4,NA,NA,NA,NA,NA,NA,NA,NA,NA,NA,NA,NA,NA,NA,NA,NA,NA,NA,NA
7f2bc,deep,flow.Sequence,3_0_4_0_4_0,NA,NA,completion,9494.5,628761.80000000994,628760.4,628776.8,638271.3,638274,2024-04-30T09:37:25Z,638287.5,NULL,Gefährdung,kuhatarisha,d,NA,NA,NA,NA,sd,NA,4,NA,NA,NA,NA,NA,NA,NA,NA,NA,NA,NA,NA,NA,NA,NA,NA,NA,NA,NA
7f2bc,shallow,flow.Sequence,3_0_4_0_4_1,NA,NA,skipped,NA,638274.10000002,NA,NA,638271.3,638274.30000001,2024-04-30T09:37:25Z,638287.5,NULL,Gefährdung,kuhatarisha,d,NA,NA,NA,NA,sd,NA,4,NA,NA,NA,NA,NA,NA,NA,NA,NA,NA,NA,NA,NA,NA,NA,NA,NA,NA,NA
7f2bc,task,flow.Sequence,3_0_4_0_4,NA,NA,completion,9494.5,628761.80000000994,628760.4,628776.8,638271.3,638274.5,2024-04-30T09:37:25Z,638287.5,NULL,Gefährdung,kuhatarisha,d,NA,NA,NA,NA,sd,NA,4,NA,NA,NA,NA,NA,NA,NA,NA,NA,NA,NA,NA,NA,NA,NA,NA,NA,NA,NA
7f2bc,deep,flow.Sequence,3_0_4_0_5_0,NA,NA,skipped,NA,638274.60000002,NA,NA,638271.3,638274.69999999006,2024-04-30T09:37:25Z,638287.5,NULL,Kreativität,ubunifu,s,mratibu,mwendelezo,makubaliano,NA,sd,NA,4,NA,NA,NA,NA,NA,NA,NA,NA,NA,NA,NA,NA,NA,NA,NA,NA,NA,NA,NA
7f2bc,Shallow Question,html.Page,3_0_4_0_5_1_0,NA,NA,form submission,3765.8000000119,638274.80000000994,638271.3,638287.5,642053.30000001,642053.5,2024-04-30T09:37:29Z,642068.9,NULL,Kreativität,ubunifu,s,mratibu,mwendelezo,makubaliano,ubunifu,NA,NA,4,NA,NA,NA,NA,NA,NA,NA,NA,NA,NA,NA,NA,NA,NA,NA,NA,NA,NA,NA
7f2bc,"""Richtig""-Screen",canvas.Screen,3_0_4_0_5_1_1,NA,NA,timeout,4996.7999999999,642056.40000004,642058.462,642068.9,647048.8,647051.30000000994,2024-04-30T09:37:34Z,647065.7,NULL,Kreativität,ubunifu,s,mratibu,mwendelezo,makubaliano,NA,sd,1,4,NA,NA,NA,NA,NA,NA,NA,NA,NA,NA,NA,NA,NA,NA,NA,NA,NA,NA,NA
7f2bc,"""Falsch""-Screen",canvas.Screen,3_0_4_0_5_1_2,NA,NA,skipped,NA,647054.5,NA,NA,647048.8,647054.69999999006,2024-04-30T09:37:34Z,647065.7,NULL,Kreativität,ubunifu,s,mratibu,mwendelezo,makubaliano,NA,sd,NA,4,NA,NA,NA,NA,NA,NA,NA,NA,NA,NA,NA,NA,NA,NA,NA,NA,NA,NA,NA
7f2bc,shallow,flow.Sequence,3_0_4_0_5_1,NA,NA,completion,8761.3,638274.80000000994,638271.3,638287.5,647048.8,647054.90000004,2024-04-30T09:37:34Z,647065.7,NULL,Kreativität,ubunifu,s,mratibu,mwendelezo,makubaliano,NA,sd,NA,4,NA,NA,NA,NA,NA,NA,NA,NA,NA,NA,NA,NA,NA,NA,NA,NA,NA,NA,NA
7f2bc,task,flow.Sequence,3_0_4_0_5,NA,NA,completion,8761.3,638274.60000002,638271.3,638287.5,647048.8,647055,2024-04-30T09:37:34Z,647065.7,NULL,Kreativität,ubunifu,s,mratibu,mwendelezo,makubaliano,NA,sd,NA,4,NA,NA,NA,NA,NA,NA,NA,NA,NA,NA,NA,NA,NA,NA,NA,NA,NA,NA,NA
7f2bc,deep,flow.Sequence,3_0_4_0_6_0,NA,NA,skipped,NA,647055,NA,NA,647048.8,647055.10000002,2024-04-30T09:37:34Z,647065.7,NULL,Gelegenheit,wakati,s,mchanganyiko,kipaumbele,kushuku,NA,sd,NA,4,NA,NA,NA,NA,NA,NA,NA,NA,NA,NA,NA,NA,NA,NA,NA,NA,NA,NA,NA
7f2bc,Shallow Question,html.Page,3_0_4_0_6_1_0,NA,NA,form submission,4577.100000012,647055.19999999006,647048.8,647065.7,651642.80000001,651643,2024-04-30T09:37:39Z,651646,NULL,Gelegenheit,wakati,s,mchanganyiko,kipaumbele,kushuku,wakati,NA,NA,4,NA,NA,NA,NA,NA,NA,NA,NA,NA,NA,NA,NA,NA,NA,NA,NA,NA,NA,NA
7f2bc,"""Richtig""-Screen",canvas.Screen,3_0_4_0_6_1_1,NA,NA,timeout,4997.4,651645.80000001,651630.532,651646,656626.5,656629.30000001,2024-04-30T09:37:44Z,656643.4,NULL,Gelegenheit,wakati,s,mchanganyiko,kipaumbele,kushuku,NA,sd,1,4,NA,NA,NA,NA,NA,NA,NA,NA,NA,NA,NA,NA,NA,NA,NA,NA,NA,NA,NA
7f2bc,"""Falsch""-Screen",canvas.Screen,3_0_4_0_6_1_2,NA,NA,skipped,NA,656633.90000004,NA,NA,656626.5,656634.10000002,2024-04-30T09:37:44Z,656643.4,NULL,Gelegenheit,wakati,s,mchanganyiko,kipaumbele,kushuku,NA,sd,NA,4,NA,NA,NA,NA,NA,NA,NA,NA,NA,NA,NA,NA,NA,NA,NA,NA,NA,NA,NA
7f2bc,shallow,flow.Sequence,3_0_4_0_6_1,NA,NA,completion,9560.8,647055.19999999006,647048.8,647065.7,656626.5,656634.30000001,2024-04-30T09:37:44Z,656643.4,NULL,Gelegenheit,wakati,s,mchanganyiko,kipaumbele,kushuku,NA,sd,NA,4,NA,NA,NA,NA,NA,NA,NA,NA,NA,NA,NA,NA,NA,NA,NA,NA,NA,NA,NA
7f2bc,task,flow.Sequence,3_0_4_0_6,NA,NA,completion,9560.8,647055,647048.8,647065.7,656626.5,656634.40000004,2024-04-30T09:37:44Z,656643.4,NULL,Gelegenheit,wakati,s,mchanganyiko,kipaumbele,kushuku,NA,sd,NA,4,NA,NA,NA,NA,NA,NA,NA,NA,NA,NA,NA,NA,NA,NA,NA,NA,NA,NA,NA
7f2bc,deep,flow.Sequence,3_0_4_0_7_0,NA,NA,skipped,NA,656634.40000004,NA,NA,656626.5,656634.40000004,2024-04-30T09:37:44Z,656643.4,NULL,Ausschluss,kutengwa,s,ununuzi,taratibu,madeni,NA,sd,NA,4,NA,NA,NA,NA,NA,NA,NA,NA,NA,NA,NA,NA,NA,NA,NA,NA,NA,NA,NA
7f2bc,Shallow Question,html.Page,3_0_4_0_7_1_0,NA,NA,form submission,4844.1,656634.40000004,656626.5,656643.4,661487.5,661487.69999999006,2024-04-30T09:37:48Z,661490.59,NULL,Ausschluss,kutengwa,s,ununuzi,taratibu,madeni,kutengwa,NA,NA,4,NA,NA,NA,NA,NA,NA,NA,NA,NA,NA,NA,NA,NA,NA,NA,NA,NA,NA,NA
7f2bc,"""Richtig""-Screen",canvas.Screen,3_0_4_0_7_1_1,NA,NA,timeout,4996.7100000001,661490.5,661490.59,661490.59,666470.7,666473,2024-04-30T09:37:53Z,666487.3,NULL,Ausschluss,kutengwa,s,ununuzi,taratibu,madeni,NA,sd,1,4,NA,NA,NA,NA,NA,NA,NA,NA,NA,NA,NA,NA,NA,NA,NA,NA,NA,NA,NA
7f2bc,"""Falsch""-Screen",canvas.Screen,3_0_4_0_7_1_2,NA,NA,skipped,NA,666477.90000004,NA,NA,666470.7,666478,2024-04-30T09:37:53Z,666487.3,NULL,Ausschluss,kutengwa,s,ununuzi,taratibu,madeni,NA,sd,NA,4,NA,NA,NA,NA,NA,NA,NA,NA,NA,NA,NA,NA,NA,NA,NA,NA,NA,NA,NA
7f2bc,shallow,flow.Sequence,3_0_4_0_7_1,NA,NA,completion,9827.2999999999,656634.40000004,656626.5,656643.4,666470.7,666478.19999999006,2024-04-30T09:37:53Z,666487.3,NULL,Ausschluss,kutengwa,s,ununuzi,taratibu,madeni,NA,sd,NA,4,NA,NA,NA,NA,NA,NA,NA,NA,NA,NA,NA,NA,NA,NA,NA,NA,NA,NA,NA
7f2bc,task,flow.Sequence,3_0_4_0_7,NA,NA,completion,9827.2999999999,656634.40000004,656626.5,656643.4,666470.7,666478.19999999006,2024-04-30T09:37:53Z,666487.3,NULL,Ausschluss,kutengwa,s,ununuzi,taratibu,madeni,NA,sd,NA,4,NA,NA,NA,NA,NA,NA,NA,NA,NA,NA,NA,NA,NA,NA,NA,NA,NA,NA,NA
7f2bc,block,flow.Loop,3_0_4_0,NA,NA,completion,79401.8,587053.80000000994,587053.95,587068.9,666470.7,666478.30000001,2024-04-30T09:37:53Z,666487.3,NULL,NA,NA,NA,NA,NA,NA,NA,sd,NA,4,NA,NA,NA,NA,NA,NA,NA,NA,NA,NA,NA,NA,NA,NA,NA,NA,NA,NA,NA
7f2bc,weiter,canvas.Screen,3_0_4_1,sdf,keypress(Space),response,1352.8000000238,666478.30000001,666470.7,666487.3,667840.10000002,667841,2024-04-30T09:37:55Z,667869.4,NULL,NA,NA,NA,NA,NA,NA,NA,sd,NA,4,NA,NA,NA,NA,NA,NA,NA,NA,NA,NA,NA,NA,NA,NA,NA,NA,NA,NA,NA
7f2bc,check continue,flow.Sequence,3_0_4,NA,NA,completion,80771.200000024,587053.69999999006,587053.95,587068.9,667840.10000002,667841.30000000994,2024-04-30T09:37:55Z,667869.4,NULL,NA,NA,NA,NA,NA,NA,NA,sd,NA,4,NA,NA,NA,NA,NA,NA,NA,NA,NA,NA,NA,NA,NA,NA,NA,NA,NA,NA,NA
7f2bc,Deep Question,html.Page,3_0_5_0_0_0_0,NA,NA,form submission,7529.7999999881,667864.60000002,667864.8,667869.4,675399.19999999006,675399.30000000994,2024-04-30T09:38:02Z,675414.7,NULL,Gefährdung,kuhatarisha,d,NA,NA,NA,kataharisha,NA,NA,5,NA,NA,NA,NA,NA,NA,NA,NA,NA,NA,NA,NA,NA,NA,NA,NA,NA,NA,NA
7f2bc,"""Richtig""-Screen",canvas.Screen,3_0_5_0_0_0_1,NA,NA,skipped,NA,675400.80000001,NA,NA,675399.19999999006,675400.90000004,2024-04-30T09:38:02Z,675414.7,NULL,Gefährdung,kuhatarisha,d,NA,NA,NA,NA,sdf,NA,5,NA,NA,NA,NA,NA,NA,NA,NA,NA,NA,NA,NA,NA,NA,NA,NA,NA,NA,NA
7f2bc,"""Falsch""-Screen",canvas.Screen,3_0_5_0_0_0_2,NA,NA,timeout,4997.2000000001,675401.19999999006,675398.1,675414.7,680395.6,680397.30000001,2024-04-30T09:38:07Z,680411.9,NULL,Gefährdung,kuhatarisha,d,NA,NA,NA,NA,sdf,0,5,NA,NA,NA,NA,NA,NA,NA,NA,NA,NA,NA,NA,NA,NA,NA,NA,NA,NA,NA
7f2bc,deep,flow.Sequence,3_0_5_0_0_0,NA,NA,completion,12526.2,667864.60000002,667864.8,667869.4,680395.6,680397.69999999006,2024-04-30T09:38:07Z,680411.9,NULL,Gefährdung,kuhatarisha,d,NA,NA,NA,NA,sdf,NA,5,NA,NA,NA,NA,NA,NA,NA,NA,NA,NA,NA,NA,NA,NA,NA,NA,NA,NA,NA
7f2bc,shallow,flow.Sequence,3_0_5_0_0_1,NA,NA,skipped,NA,680397.80000001,NA,NA,680395.6,680398,2024-04-30T09:38:07Z,680411.9,NULL,Gefährdung,kuhatarisha,d,NA,NA,NA,NA,sdf,NA,5,NA,NA,NA,NA,NA,NA,NA,NA,NA,NA,NA,NA,NA,NA,NA,NA,NA,NA,NA
7f2bc,task,flow.Sequence,3_0_5_0_0,NA,NA,completion,12526.2,667864.60000002,667864.8,667869.4,680395.6,680398.10000002,2024-04-30T09:38:07Z,680411.9,NULL,Gefährdung,kuhatarisha,d,NA,NA,NA,NA,sdf,NA,5,NA,NA,NA,NA,NA,NA,NA,NA,NA,NA,NA,NA,NA,NA,NA,NA,NA,NA,NA
7f2bc,Deep Question,html.Page,3_0_5_0_1_0_0,NA,NA,form submission,4669.9000000119,680398.40000004,680395.6,680411.9,685081.80000000994,685082.10000002,2024-04-30T09:38:12Z,685092.4,NULL,Kontrolle,kudhibiti,d,NA,NA,NA,uslulu,NA,NA,5,NA,NA,NA,NA,NA,NA,NA,NA,NA,NA,NA,NA,NA,NA,NA,NA,NA,NA,NA
7f2bc,"""Richtig""-Screen",canvas.Screen,3_0_5_0_1_0_1,NA,NA,skipped,NA,685085,NA,NA,685081.80000000994,685085.19999999006,2024-04-30T09:38:12Z,685092.4,NULL,Kontrolle,kudhibiti,d,NA,NA,NA,NA,sdf,NA,5,NA,NA,NA,NA,NA,NA,NA,NA,NA,NA,NA,NA,NA,NA,NA,NA,NA,NA,NA
7f2bc,"""Falsch""-Screen",canvas.Screen,3_0_5_0_1_0_2,NA,NA,timeout,4997,685085.90000004,685081,685092.4,690072.9,690074.80000000994,2024-04-30T09:38:17Z,690089.4,NULL,Kontrolle,kudhibiti,d,NA,NA,NA,NA,sdf,0,5,NA,NA,NA,NA,NA,NA,NA,NA,NA,NA,NA,NA,NA,NA,NA,NA,NA,NA,NA
7f2bc,deep,flow.Sequence,3_0_5_0_1_0,NA,NA,completion,9661,680398.30000001,680395.6,680411.9,690072.9,690075,2024-04-30T09:38:17Z,690089.4,NULL,Kontrolle,kudhibiti,d,NA,NA,NA,NA,sdf,NA,5,NA,NA,NA,NA,NA,NA,NA,NA,NA,NA,NA,NA,NA,NA,NA,NA,NA,NA,NA
7f2bc,shallow,flow.Sequence,3_0_5_0_1_1,NA,NA,skipped,NA,690075,NA,NA,690072.9,690075,2024-04-30T09:38:17Z,690089.4,NULL,Kontrolle,kudhibiti,d,NA,NA,NA,NA,sdf,NA,5,NA,NA,NA,NA,NA,NA,NA,NA,NA,NA,NA,NA,NA,NA,NA,NA,NA,NA,NA
7f2bc,task,flow.Sequence,3_0_5_0_1,NA,NA,completion,9661,680398.30000001,680395.6,680411.9,690072.9,690075,2024-04-30T09:38:17Z,690089.4,NULL,Kontrolle,kudhibiti,d,NA,NA,NA,NA,sdf,NA,5,NA,NA,NA,NA,NA,NA,NA,NA,NA,NA,NA,NA,NA,NA,NA,NA,NA,NA,NA
7f2bc,deep,flow.Sequence,3_0_5_0_2_0,NA,NA,skipped,NA,690075.10000002,NA,NA,690072.9,690075.10000002,2024-04-30T09:38:17Z,690089.4,NULL,Kreativität,ubunifu,s,mratibu,mwendelezo,makubaliano,NA,sdf,NA,5,NA,NA,NA,NA,NA,NA,NA,NA,NA,NA,NA,NA,NA,NA,NA,NA,NA,NA,NA
7f2bc,Shallow Question,html.Page,3_0_5_0_2_1_0,NA,NA,form submission,5474.7999999881,690075.19999999006,690072.9,690089.4,695564.19999999006,695564.30000000994,2024-04-30T09:38:23Z,695569.2,NULL,Kreativität,ubunifu,s,mratibu,mwendelezo,makubaliano,ubunifu,NA,NA,5,NA,NA,NA,NA,NA,NA,NA,NA,NA,NA,NA,NA,NA,NA,NA,NA,NA,NA,NA
7f2bc,"""Richtig""-Screen",canvas.Screen,3_0_5_0_2_1_1,NA,NA,timeout,4997.3,695566.10000002,695555.13,695569.2,700549.7,700552.19999999006,2024-04-30T09:38:28Z,700566.5,NULL,Kreativität,ubunifu,s,mratibu,mwendelezo,makubaliano,NA,sdf,1,5,NA,NA,NA,NA,NA,NA,NA,NA,NA,NA,NA,NA,NA,NA,NA,NA,NA,NA,NA
7f2bc,"""Falsch""-Screen",canvas.Screen,3_0_5_0_2_1_2,NA,NA,skipped,NA,700556.60000002,NA,NA,700549.7,700556.69999999006,2024-04-30T09:38:28Z,700566.5,NULL,Kreativität,ubunifu,s,mratibu,mwendelezo,makubaliano,NA,sdf,NA,5,NA,NA,NA,NA,NA,NA,NA,NA,NA,NA,NA,NA,NA,NA,NA,NA,NA,NA,NA
7f2bc,shallow,flow.Sequence,3_0_5_0_2_1,NA,NA,completion,10460.3,690075.19999999006,690072.9,690089.4,700549.7,700556.80000000994,2024-04-30T09:38:28Z,700566.5,NULL,Kreativität,ubunifu,s,mratibu,mwendelezo,makubaliano,NA,sdf,NA,5,NA,NA,NA,NA,NA,NA,NA,NA,NA,NA,NA,NA,NA,NA,NA,NA,NA,NA,NA
7f2bc,task,flow.Sequence,3_0_5_0_2,NA,NA,completion,10460.3,690075.10000002,690072.9,690089.4,700549.7,700556.80000000994,2024-04-30T09:38:28Z,700566.5,NULL,Kreativität,ubunifu,s,mratibu,mwendelezo,makubaliano,NA,sdf,NA,5,NA,NA,NA,NA,NA,NA,NA,NA,NA,NA,NA,NA,NA,NA,NA,NA,NA,NA,NA
7f2bc,deep,flow.Sequence,3_0_5_0_3_0,NA,NA,skipped,NA,700556.80000000994,NA,NA,700549.7,700556.90000004,2024-04-30T09:38:28Z,700566.5,NULL,Ausschluss,kutengwa,s,ununuzi,taratibu,madeni,NA,sdf,NA,5,NA,NA,NA,NA,NA,NA,NA,NA,NA,NA,NA,NA,NA,NA,NA,NA,NA,NA,NA
7f2bc,Shallow Question,html.Page,3_0_5_0_3_1_0,NA,NA,form submission,3922.1000000238,700556.90000004,700549.7,700566.5,704488.60000002,704488.80000000994,2024-04-30T09:38:31Z,704497,NULL,Ausschluss,kutengwa,s,ununuzi,taratibu,madeni,kutengwa,NA,NA,5,NA,NA,NA,NA,NA,NA,NA,NA,NA,NA,NA,NA,NA,NA,NA,NA,NA,NA,NA
7f2bc,"""Richtig""-Screen",canvas.Screen,3_0_5_0_3_1_1,NA,NA,timeout,4997.5,704491.60000002,704481.4,704497,709477.7,709480.30000001,2024-04-30T09:38:36Z,709494.5,NULL,Ausschluss,kutengwa,s,ununuzi,taratibu,madeni,NA,sdf,1,5,NA,NA,NA,NA,NA,NA,NA,NA,NA,NA,NA,NA,NA,NA,NA,NA,NA,NA,NA
7f2bc,"""Falsch""-Screen",canvas.Screen,3_0_5_0_3_1_2,NA,NA,skipped,NA,709485.19999999006,NA,NA,709477.7,709485.30000001,2024-04-30T09:38:36Z,709494.5,NULL,Ausschluss,kutengwa,s,ununuzi,taratibu,madeni,NA,sdf,NA,5,NA,NA,NA,NA,NA,NA,NA,NA,NA,NA,NA,NA,NA,NA,NA,NA,NA,NA,NA
7f2bc,shallow,flow.Sequence,3_0_5_0_3_1,NA,NA,completion,8911.2,700556.90000004,700549.7,700566.5,709477.7,709485.40000004,2024-04-30T09:38:36Z,709494.5,NULL,Ausschluss,kutengwa,s,ununuzi,taratibu,madeni,NA,sdf,NA,5,NA,NA,NA,NA,NA,NA,NA,NA,NA,NA,NA,NA,NA,NA,NA,NA,NA,NA,NA
7f2bc,task,flow.Sequence,3_0_5_0_3,NA,NA,completion,8911.2,700556.80000000994,700549.7,700566.5,709477.7,709485.5,2024-04-30T09:38:36Z,709494.5,NULL,Ausschluss,kutengwa,s,ununuzi,taratibu,madeni,NA,sdf,NA,5,NA,NA,NA,NA,NA,NA,NA,NA,NA,NA,NA,NA,NA,NA,NA,NA,NA,NA,NA
7f2bc,deep,flow.Sequence,3_0_5_0_4_0,NA,NA,skipped,NA,709485.5,NA,NA,709477.7,709485.5,2024-04-30T09:38:36Z,709494.5,NULL,Gelegenheit,wakati,s,mchanganyiko,kipaumbele,kushuku,NA,sdf,NA,5,NA,NA,NA,NA,NA,NA,NA,NA,NA,NA,NA,NA,NA,NA,NA,NA,NA,NA,NA
7f2bc,Shallow Question,html.Page,3_0_5_0_4_1_0,NA,NA,form submission,2872.5,709485.5,709477.7,709494.5,712367,712367.19999999006,2024-04-30T09:38:39Z,712375.8,NULL,Gelegenheit,wakati,s,mchanganyiko,kipaumbele,kushuku,wakati,NA,NA,5,NA,NA,NA,NA,NA,NA,NA,NA,NA,NA,NA,NA,NA,NA,NA,NA,NA,NA,NA
7f2bc,"""Richtig""-Screen",canvas.Screen,3_0_5_0_4_1_1,NA,NA,timeout,4997.1,712370.10000002,712362.228,712375.8,717355.9,717358.80000000994,2024-04-30T09:38:44Z,717372.9,NULL,Gelegenheit,wakati,s,mchanganyiko,kipaumbele,kushuku,NA,sdf,1,5,NA,NA,NA,NA,NA,NA,NA,NA,NA,NA,NA,NA,NA,NA,NA,NA,NA,NA,NA
7f2bc,"""Falsch""-Screen",canvas.Screen,3_0_5_0_4_1_2,NA,NA,skipped,NA,717363.69999999006,NA,NA,717355.9,717363.80000000994,2024-04-30T09:38:44Z,717372.9,NULL,Gelegenheit,wakati,s,mchanganyiko,kipaumbele,kushuku,NA,sdf,NA,5,NA,NA,NA,NA,NA,NA,NA,NA,NA,NA,NA,NA,NA,NA,NA,NA,NA,NA,NA
7f2bc,shallow,flow.Sequence,3_0_5_0_4_1,NA,NA,completion,7861.4,709485.5,709477.7,709494.5,717355.9,717363.90000004,2024-04-30T09:38:44Z,717372.9,NULL,Gelegenheit,wakati,s,mchanganyiko,kipaumbele,kushuku,NA,sdf,NA,5,NA,NA,NA,NA,NA,NA,NA,NA,NA,NA,NA,NA,NA,NA,NA,NA,NA,NA,NA
7f2bc,task,flow.Sequence,3_0_5_0_4,NA,NA,completion,7861.4,709485.5,709477.7,709494.5,717355.9,717364,2024-04-30T09:38:44Z,717372.9,NULL,Gelegenheit,wakati,s,mchanganyiko,kipaumbele,kushuku,NA,sdf,NA,5,NA,NA,NA,NA,NA,NA,NA,NA,NA,NA,NA,NA,NA,NA,NA,NA,NA,NA,NA
7f2bc,Deep Question,html.Page,3_0_5_0_5_0_0,NA,NA,form submission,7856.7000000238,717364,717355.9,717372.9,725229.60000002,725229.69999999006,2024-04-30T09:38:52Z,725234.3,NULL,Widerstand,usulubu,d,NA,NA,NA,hatarisha,NA,NA,5,NA,NA,NA,NA,NA,NA,NA,NA,NA,NA,NA,NA,NA,NA,NA,NA,NA,NA,NA
7f2bc,"""Richtig""-Screen",canvas.Screen,3_0_5_0_5_0_1,NA,NA,skipped,NA,725232.69999999006,NA,NA,725229.60000002,725232.80000001,2024-04-30T09:38:52Z,725234.3,NULL,Widerstand,usulubu,d,NA,NA,NA,NA,sdf,NA,5,NA,NA,NA,NA,NA,NA,NA,NA,NA,NA,NA,NA,NA,NA,NA,NA,NA,NA,NA
7f2bc,"""Falsch""-Screen",canvas.Screen,3_0_5_0_5_0_2,NA,NA,timeout,4997.3999999999,725233.5,725218.4,725234.3,730215.3,730217,2024-04-30T09:38:57Z,730231.7,NULL,Widerstand,usulubu,d,NA,NA,NA,NA,sdf,0,5,NA,NA,NA,NA,NA,NA,NA,NA,NA,NA,NA,NA,NA,NA,NA,NA,NA,NA,NA
7f2bc,deep,flow.Sequence,3_0_5_0_5_0,NA,NA,completion,12842.4,717364,717355.9,717372.9,730215.3,730217.60000002,2024-04-30T09:38:57Z,730231.7,NULL,Widerstand,usulubu,d,NA,NA,NA,NA,sdf,NA,5,NA,NA,NA,NA,NA,NA,NA,NA,NA,NA,NA,NA,NA,NA,NA,NA,NA,NA,NA
7f2bc,shallow,flow.Sequence,3_0_5_0_5_1,NA,NA,skipped,NA,730217.90000004,NA,NA,730215.3,730218,2024-04-30T09:38:57Z,730231.7,NULL,Widerstand,usulubu,d,NA,NA,NA,NA,sdf,NA,5,NA,NA,NA,NA,NA,NA,NA,NA,NA,NA,NA,NA,NA,NA,NA,NA,NA,NA,NA
7f2bc,task,flow.Sequence,3_0_5_0_5,NA,NA,completion,12842.4,717364,717355.9,717372.9,730215.3,730218.19999999006,2024-04-30T09:38:57Z,730231.7,NULL,Widerstand,usulubu,d,NA,NA,NA,NA,sdf,NA,5,NA,NA,NA,NA,NA,NA,NA,NA,NA,NA,NA,NA,NA,NA,NA,NA,NA,NA,NA
7f2bc,deep,flow.Sequence,3_0_5_0_6_0,NA,NA,skipped,NA,730218.5,NA,NA,730215.3,730218.60000002,2024-04-30T09:38:57Z,730231.7,NULL,Können,unaweza,s,kiongozi,bustani,mienendo,NA,sdf,NA,5,NA,NA,NA,NA,NA,NA,NA,NA,NA,NA,NA,NA,NA,NA,NA,NA,NA,NA,NA
7f2bc,Shallow Question,html.Page,3_0_5_0_6_1_0,NA,NA,form submission,4105.2000000358,730218.69999999006,730215.3,730231.7,734336.90000004,734337.10000002,2024-04-30T09:39:01Z,734345.8,NULL,Können,unaweza,s,kiongozi,bustani,mienendo,unaweza,NA,NA,5,NA,NA,NA,NA,NA,NA,NA,NA,NA,NA,NA,NA,NA,NA,NA,NA,NA,NA,NA
7f2bc,"""Richtig""-Screen",canvas.Screen,3_0_5_0_6_1_1,NA,NA,timeout,4996.8999999999,734340,734331.8,734345.8,739326.1,739328,2024-04-30T09:39:06Z,739342.7,NULL,Können,unaweza,s,kiongozi,bustani,mienendo,NA,sdf,1,5,NA,NA,NA,NA,NA,NA,NA,NA,NA,NA,NA,NA,NA,NA,NA,NA,NA,NA,NA
7f2bc,"""Falsch""-Screen",canvas.Screen,3_0_5_0_6_1_2,NA,NA,skipped,NA,739332.69999999006,NA,NA,739326.1,739332.80000001,2024-04-30T09:39:06Z,739342.7,NULL,Können,unaweza,s,kiongozi,bustani,mienendo,NA,sdf,NA,5,NA,NA,NA,NA,NA,NA,NA,NA,NA,NA,NA,NA,NA,NA,NA,NA,NA,NA,NA
7f2bc,shallow,flow.Sequence,3_0_5_0_6_1,NA,NA,completion,9094.4,730218.69999999006,730215.3,730231.7,739326.1,739332.90000004,2024-04-30T09:39:06Z,739342.7,NULL,Können,unaweza,s,kiongozi,bustani,mienendo,NA,sdf,NA,5,NA,NA,NA,NA,NA,NA,NA,NA,NA,NA,NA,NA,NA,NA,NA,NA,NA,NA,NA
7f2bc,task,flow.Sequence,3_0_5_0_6,NA,NA,completion,9094.4,730218.40000004,730215.3,730231.7,739326.1,739332.90000004,2024-04-30T09:39:06Z,739342.7,NULL,Können,unaweza,s,kiongozi,bustani,mienendo,NA,sdf,NA,5,NA,NA,NA,NA,NA,NA,NA,NA,NA,NA,NA,NA,NA,NA,NA,NA,NA,NA,NA
7f2bc,Deep Question,html.Page,3_0_5_0_7_0_0,NA,NA,form submission,8238.3,739333,739326.1,739342.7,747581,747581.30000001,2024-04-30T09:39:15Z,747587.3,NULL,Verstand,ufahamivu,d,NA,NA,NA,g,NA,NA,5,NA,NA,NA,NA,NA,NA,NA,NA,NA,NA,NA,NA,NA,NA,NA,NA,NA,NA,NA
7f2bc,"""Richtig""-Screen",canvas.Screen,3_0_5_0_7_0_1,NA,NA,skipped,NA,747584.10000002,NA,NA,747581,747584.30000000994,2024-04-30T09:39:15Z,747587.3,NULL,Verstand,ufahamivu,d,NA,NA,NA,NA,sdf,NA,5,NA,NA,NA,NA,NA,NA,NA,NA,NA,NA,NA,NA,NA,NA,NA,NA,NA,NA,NA
7f2bc,"""Falsch""-Screen",canvas.Screen,3_0_5_0_7_0_2,NA,NA,timeout,4997.7,747585,747573.1,747587.3,752568,752569,2024-04-30T09:39:20Z,752585,NULL,Verstand,ufahamivu,d,NA,NA,NA,NA,sdf,0,5,NA,NA,NA,NA,NA,NA,NA,NA,NA,NA,NA,NA,NA,NA,NA,NA,NA,NA,NA
7f2bc,deep,flow.Sequence,3_0_5_0_7_0,NA,NA,completion,13225.3,739333,739326.1,739342.7,752568,752569.5,2024-04-30T09:39:20Z,752585,NULL,Verstand,ufahamivu,d,NA,NA,NA,NA,sdf,NA,5,NA,NA,NA,NA,NA,NA,NA,NA,NA,NA,NA,NA,NA,NA,NA,NA,NA,NA,NA
7f2bc,shallow,flow.Sequence,3_0_5_0_7_1,NA,NA,skipped,NA,752569.60000002,NA,NA,752568,752569.69999999006,2024-04-30T09:39:20Z,752585,NULL,Verstand,ufahamivu,d,NA,NA,NA,NA,sdf,NA,5,NA,NA,NA,NA,NA,NA,NA,NA,NA,NA,NA,NA,NA,NA,NA,NA,NA,NA,NA
7f2bc,task,flow.Sequence,3_0_5_0_7,NA,NA,completion,13225.3,739333,739326.1,739342.7,752568,752569.90000004,2024-04-30T09:39:20Z,752585,NULL,Verstand,ufahamivu,d,NA,NA,NA,NA,sdf,NA,5,NA,NA,NA,NA,NA,NA,NA,NA,NA,NA,NA,NA,NA,NA,NA,NA,NA,NA,NA
7f2bc,block,flow.Loop,3_0_5_0,NA,NA,completion,84698.6,667864.60000002,667864.8,667869.4,752568,752570.10000002,2024-04-30T09:39:20Z,752585,NULL,NA,NA,NA,NA,NA,NA,NA,sdf,NA,5,NA,NA,NA,NA,NA,NA,NA,NA,NA,NA,NA,NA,NA,NA,NA,NA,NA,NA,NA
7f2bc,weiter,canvas.Screen,3_0_5_1,sdf,keypress(Space),response,1114.5,752570.30000001,752568,752585,753699.5,753700.5,2024-04-30T09:39:21Z,753733.8,NULL,NA,NA,NA,NA,NA,NA,NA,sdf,NA,5,NA,NA,NA,NA,NA,NA,NA,NA,NA,NA,NA,NA,NA,NA,NA,NA,NA,NA,NA
7f2bc,check continue,flow.Sequence,3_0_5,NA,NA,completion,85830.1,667864.60000002,667864.8,667869.4,753699.5,753700.80000001,2024-04-30T09:39:21Z,753733.8,NULL,NA,NA,NA,NA,NA,NA,NA,sdf,NA,5,NA,NA,NA,NA,NA,NA,NA,NA,NA,NA,NA,NA,NA,NA,NA,NA,NA,NA,NA
7f2bc,Deep Question,html.Page,3_0_6_0_0_0_0,NA,NA,form submission,10604.000000012,753723,753718.288,753733.8,764337.80000001,764338.10000002,2024-04-30T09:39:31Z,764343.9,NULL,Verstand,ufahamivu,d,NA,NA,NA,ufahamivu,NA,NA,6,NA,NA,NA,NA,NA,NA,NA,NA,NA,NA,NA,NA,NA,NA,NA,NA,NA,NA,NA
7f2bc,"""Richtig""-Screen",canvas.Screen,3_0_6_0_0_0_1,NA,NA,timeout,4997.1,764341.30000001,764328.4,764343.9,769324.7,769325.60000002,2024-04-30T09:39:36Z,769341,NULL,Verstand,ufahamivu,d,NA,NA,NA,NA,dfs,1,6,NA,NA,NA,NA,NA,NA,NA,NA,NA,NA,NA,NA,NA,NA,NA,NA,NA,NA,NA
7f2bc,"""Falsch""-Screen",canvas.Screen,3_0_6_0_0_0_2,NA,NA,skipped,NA,769330.10000002,NA,NA,769324.7,769330.30000001,2024-04-30T09:39:36Z,769341,NULL,Verstand,ufahamivu,d,NA,NA,NA,NA,dfs,NA,6,NA,NA,NA,NA,NA,NA,NA,NA,NA,NA,NA,NA,NA,NA,NA,NA,NA,NA,NA
7f2bc,deep,flow.Sequence,3_0_6_0_0_0,NA,NA,completion,15590.9,753723,753718.288,753733.8,769324.7,769330.40000004,2024-04-30T09:39:36Z,769341,NULL,Verstand,ufahamivu,d,NA,NA,NA,NA,dfs,NA,6,NA,NA,NA,NA,NA,NA,NA,NA,NA,NA,NA,NA,NA,NA,NA,NA,NA,NA,NA
7f2bc,shallow,flow.Sequence,3_0_6_0_0_1,NA,NA,skipped,NA,769330.60000002,NA,NA,769324.7,769330.69999999006,2024-04-30T09:39:36Z,769341,NULL,Verstand,ufahamivu,d,NA,NA,NA,NA,dfs,NA,6,NA,NA,NA,NA,NA,NA,NA,NA,NA,NA,NA,NA,NA,NA,NA,NA,NA,NA,NA
7f2bc,task,flow.Sequence,3_0_6_0_0,NA,NA,completion,15590.9,753722.90000004,753718.288,753733.8,769324.7,769330.80000000994,2024-04-30T09:39:36Z,769341,NULL,Verstand,ufahamivu,d,NA,NA,NA,NA,dfs,NA,6,NA,NA,NA,NA,NA,NA,NA,NA,NA,NA,NA,NA,NA,NA,NA,NA,NA,NA,NA
7f2bc,Deep Question,html.Page,3_0_6_0_1_0_0,NA,NA,form submission,8394.5,769331,769324.7,769341,777735.5,777735.69999999006,2024-04-30T09:39:45Z,777752.8,NULL,Widerstand,usulubu,d,NA,NA,NA,uslulu,NA,NA,6,NA,NA,NA,NA,NA,NA,NA,NA,NA,NA,NA,NA,NA,NA,NA,NA,NA,NA,NA
7f2bc,"""Richtig""-Screen",canvas.Screen,3_0_6_0_1_0_1,NA,NA,skipped,NA,777738.90000004,NA,NA,777735.5,777739.10000002,2024-04-30T09:39:45Z,777752.8,NULL,Widerstand,usulubu,d,NA,NA,NA,NA,dfs,NA,6,NA,NA,NA,NA,NA,NA,NA,NA,NA,NA,NA,NA,NA,NA,NA,NA,NA,NA,NA
7f2bc,"""Falsch""-Screen",canvas.Screen,3_0_6_0_1_0_2,NA,NA,timeout,4996.8999999999,777739.80000001,777739.492,777752.8,782733,782734.30000000994,2024-04-30T09:39:50Z,782749.7,NULL,Widerstand,usulubu,d,NA,NA,NA,NA,dfs,0,6,NA,NA,NA,NA,NA,NA,NA,NA,NA,NA,NA,NA,NA,NA,NA,NA,NA,NA,NA
7f2bc,deep,flow.Sequence,3_0_6_0_1_0,NA,NA,completion,13392,769330.90000004,769324.7,769341,782733,782734.60000002,2024-04-30T09:39:50Z,782749.7,NULL,Widerstand,usulubu,d,NA,NA,NA,NA,dfs,NA,6,NA,NA,NA,NA,NA,NA,NA,NA,NA,NA,NA,NA,NA,NA,NA,NA,NA,NA,NA
7f2bc,shallow,flow.Sequence,3_0_6_0_1_1,NA,NA,skipped,NA,782734.80000000994,NA,NA,782733,782734.90000004,2024-04-30T09:39:50Z,782749.7,NULL,Widerstand,usulubu,d,NA,NA,NA,NA,dfs,NA,6,NA,NA,NA,NA,NA,NA,NA,NA,NA,NA,NA,NA,NA,NA,NA,NA,NA,NA,NA
7f2bc,task,flow.Sequence,3_0_6_0_1,NA,NA,completion,13392,769330.90000004,769324.7,769341,782733,782735.10000002,2024-04-30T09:39:50Z,782749.7,NULL,Widerstand,usulubu,d,NA,NA,NA,NA,dfs,NA,6,NA,NA,NA,NA,NA,NA,NA,NA,NA,NA,NA,NA,NA,NA,NA,NA,NA,NA,NA
7f2bc,deep,flow.Sequence,3_0_6_0_2_0,NA,NA,skipped,NA,782735.30000001,NA,NA,782733,782735.30000001,2024-04-30T09:39:50Z,782749.7,NULL,Ausschluss,kutengwa,s,ununuzi,taratibu,madeni,NA,dfs,NA,6,NA,NA,NA,NA,NA,NA,NA,NA,NA,NA,NA,NA,NA,NA,NA,NA,NA,NA,NA
7f2bc,Shallow Question,html.Page,3_0_6_0_2_1_0,NA,NA,form submission,3923.4000000239,782735.5,782733,782749.7,786673.10000002,786673.30000000994,2024-04-30T09:39:54Z,786680.694,NULL,Ausschluss,kutengwa,s,ununuzi,taratibu,madeni,kutengwa,NA,NA,6,NA,NA,NA,NA,NA,NA,NA,NA,NA,NA,NA,NA,NA,NA,NA,NA,NA,NA,NA
7f2bc,"""Richtig""-Screen",canvas.Screen,3_0_6_0_2_1_1,NA,NA,timeout,4996.906,786676.19999999006,786680.694,786680.694,791660.9,791661.90000004,2024-04-30T09:39:59Z,791677.6,NULL,Ausschluss,kutengwa,s,ununuzi,taratibu,madeni,NA,dfs,1,6,NA,NA,NA,NA,NA,NA,NA,NA,NA,NA,NA,NA,NA,NA,NA,NA,NA,NA,NA
7f2bc,"""Falsch""-Screen",canvas.Screen,3_0_6_0_2_1_2,NA,NA,skipped,NA,791666.69999999006,NA,NA,791660.9,791666.90000004,2024-04-30T09:39:59Z,791677.6,NULL,Ausschluss,kutengwa,s,ununuzi,taratibu,madeni,NA,dfs,NA,6,NA,NA,NA,NA,NA,NA,NA,NA,NA,NA,NA,NA,NA,NA,NA,NA,NA,NA,NA
7f2bc,shallow,flow.Sequence,3_0_6_0_2_1,NA,NA,completion,8911.2000000001,782735.40000004,782733,782749.7,791660.9,791667,2024-04-30T09:39:59Z,791677.6,NULL,Ausschluss,kutengwa,s,ununuzi,taratibu,madeni,NA,dfs,NA,6,NA,NA,NA,NA,NA,NA,NA,NA,NA,NA,NA,NA,NA,NA,NA,NA,NA,NA,NA
7f2bc,task,flow.Sequence,3_0_6_0_2,NA,NA,completion,8911.2000000001,782735.19999999006,782733,782749.7,791660.9,791667.10000002,2024-04-30T09:39:59Z,791677.6,NULL,Ausschluss,kutengwa,s,ununuzi,taratibu,madeni,NA,dfs,NA,6,NA,NA,NA,NA,NA,NA,NA,NA,NA,NA,NA,NA,NA,NA,NA,NA,NA,NA,NA
7f2bc,Deep Question,html.Page,3_0_6_0_3_0_0,NA,NA,form submission,9265.4,791667.19999999006,791660.9,791677.6,800943,800943.19999999006,2024-04-30T09:40:08Z,800955,NULL,Kontrolle,kudhibiti,d,NA,NA,NA,kidhabiti,NA,NA,6,NA,NA,NA,NA,NA,NA,NA,NA,NA,NA,NA,NA,NA,NA,NA,NA,NA,NA,NA
7f2bc,"""Richtig""-Screen",canvas.Screen,3_0_6_0_3_0_1,NA,NA,skipped,NA,800946.19999999006,NA,NA,800943,800946.5,2024-04-30T09:40:08Z,800955,NULL,Kontrolle,kudhibiti,d,NA,NA,NA,NA,dfs,NA,6,NA,NA,NA,NA,NA,NA,NA,NA,NA,NA,NA,NA,NA,NA,NA,NA,NA,NA,NA
