observation,sender,sender_type,sender_id,response,response_action,ended_on,duration,time_run,time_render,time_show,time_end,time_commit,timestamp,time_switch,distractors,german,swahili,enc,distractor1,distractor2,distractor3,response_2,x,correct,x_2,url_vp,url_sess,meta_labjs_version,meta_location,meta_user_agent,meta_platform,meta_language,meta_locale,meta_time_zone,meta_timezone_offset,meta_screen_width,meta_screen_height,meta_scroll_width,meta_scroll_height,meta_window_inner_width,meta_window_inner_height,meta_device_pixel_ratio,meta_labjs_build_flavor,meta_labjs_build_commit
b8d3d,Introduction general,canvas.Screen,0,weiter,keypress(q),response,263266.443,1323.2000000011,1325.943,1342.657,264609.1,264614.7,2023-03-07T10:01:50Z,264641.328,NULL,NA,NA,NA,NA,NA,NA,NA,NA,NA,NA,200,1,20.2.4,https://neurocog.fernuni.ch/studies/vweber/sfink/encoding_immediate/index.html?vp=200&sess=1,"Mozilla/5.0 (Windows NT 10.0; Win64; x64) AppleWebKit/537.36 (KHTML, like Gecko) Chrome/110.0.0.0 Safari/537.36",Win32,de-DE,de,Europe/Zurich,-60,1368,912,1368,713,1368,761,2,production,f5b4a49f956347addd546a832a3327688c2c0fef
b8d3d,Introduction practice,canvas.Screen,1_0,NA,keypress(Space),response,6107.7719999996,264615.3,264607.922,264641.328,270749.1,270751.1,2023-03-07T10:01:56Z,270787.584,NULL,NA,NA,NA,NA,NA,NA,NA,NA,NA,NA,NA,NA,NA,NA,NA,NA,NA,NA,NA,NA,NA,NA,NA,NA,NA,NA,NA,NA,NA
b8d3d,deep,flow.Sequence,1_1_0_0,NA,NA,skipped,NA,270751.4,NA,NA,270749.1,270755.1,2023-03-07T10:01:56Z,270787.584,"c(""distractor1"", ""distractor2"", ""distractor3"")",Gegenwart,hadhara,s,katiba,jokofu,mikopo,NA,NA,NA,NA,NA,NA,NA,NA,NA,NA,NA,NA,NA,NA,NA,NA,NA,NA,NA,NA,NA,NA,NA
b8d3d,Shallow Question,html.Page,1_1_0_1_0,NA,NA,form submission,5974.8160000004,270755.3,270753.869,270787.584,276762.4,276762.8,2023-03-07T10:02:02Z,276789.167,"c(""distractor1"", ""distractor2"", ""distractor3"")",Gegenwart,hadhara,s,katiba,jokofu,mikopo,hadhara,NA,NA,NA,NA,NA,NA,NA,NA,NA,NA,NA,NA,NA,NA,NA,NA,NA,NA,NA,NA,NA,NA
b8d3d,"""Richtig""-Screen",canvas.Screen,1_1_0_1_1,NA,NA,timeout,4995.916,276766,276739.407,276789.167,281768.365,281773.3,2023-03-07T10:02:07Z,281785.083,"c(""distractor1"", ""distractor2"", ""distractor3"")",Gegenwart,hadhara,s,katiba,jokofu,mikopo,NA,NA,1,NA,NA,NA,NA,NA,NA,NA,NA,NA,NA,NA,NA,NA,NA,NA,NA,NA,NA,NA,NA
b8d3d,"""Falsch""-Screen",canvas.Screen,1_1_0_1_2,NA,NA,skipped,NA,281776.3,NA,NA,281768.365,281776.5,2023-03-07T10:02:07Z,281785.083,"c(""distractor1"", ""distractor2"", ""distractor3"")",Gegenwart,hadhara,s,katiba,jokofu,mikopo,NA,NA,NA,NA,NA,NA,NA,NA,NA,NA,NA,NA,NA,NA,NA,NA,NA,NA,NA,NA,NA,NA,NA
b8d3d,shallow,flow.Sequence,1_1_0_1,NA,NA,completion,10980.781,270755.3,270753.869,270787.584,281768.365,281776.9,2023-03-07T10:02:07Z,281785.083,"c(""distractor1"", ""distractor2"", ""distractor3"")",Gegenwart,hadhara,s,katiba,jokofu,mikopo,NA,NA,NA,NA,NA,NA,NA,NA,NA,NA,NA,NA,NA,NA,NA,NA,NA,NA,NA,NA,NA,NA,NA
b8d3d,task,flow.Sequence,1_1_0,NA,NA,completion,10980.781,270751.3,270753.869,270787.584,281768.365,281777.2,2023-03-07T10:02:07Z,281785.083,"c(""distractor1"", ""distractor2"", ""distractor3"")",Gegenwart,hadhara,s,katiba,jokofu,mikopo,NA,NA,NA,NA,NA,NA,NA,NA,NA,NA,NA,NA,NA,NA,NA,NA,NA,NA,NA,NA,NA,NA,NA
b8d3d,deep,flow.Sequence,1_1_1_0,NA,NA,skipped,NA,281777.3,NA,NA,281768.365,281777.6,2023-03-07T10:02:07Z,281785.083,"c(""distractor1"", ""distractor2"", ""distractor3"")",Rückhalt,msaada,s,muhula,auwali,kiwimbe,NA,NA,NA,NA,NA,NA,NA,NA,NA,NA,NA,NA,NA,NA,NA,NA,NA,NA,NA,NA,NA,NA,NA
b8d3d,Shallow Question,html.Page,1_1_1_1_0,NA,NA,form submission,4430.0169999996,281778,281768.365,281785.083,286215.1,286215.6,2023-03-07T10:02:11Z,286235.183,"c(""distractor1"", ""distractor2"", ""distractor3"")",Rückhalt,msaada,s,muhula,auwali,kiwimbe,kiwimbe,NA,NA,NA,NA,NA,NA,NA,NA,NA,NA,NA,NA,NA,NA,NA,NA,NA,NA,NA,NA,NA,NA
b8d3d,"""Richtig""-Screen",canvas.Screen,1_1_1_1_1,NA,NA,skipped,NA,286220.6,NA,NA,286215.1,286221.2,2023-03-07T10:02:11Z,286235.183,"c(""distractor1"", ""distractor2"", ""distractor3"")",Rückhalt,msaada,s,muhula,auwali,kiwimbe,NA,NA,NA,NA,NA,NA,NA,NA,NA,NA,NA,NA,NA,NA,NA,NA,NA,NA,NA,NA,NA,NA,NA
b8d3d,"""Falsch""-Screen",canvas.Screen,1_1_1_1_2,NA,NA,timeout,5003.951,286223.2,286201.792,286235.183,291222.397,291223.5,2023-03-07T10:02:16Z,291239.134,"c(""distractor1"", ""distractor2"", ""distractor3"")",Rückhalt,msaada,s,muhula,auwali,kiwimbe,NA,NA,0,NA,NA,NA,NA,NA,NA,NA,NA,NA,NA,NA,NA,NA,NA,NA,NA,NA,NA,NA,NA
b8d3d,shallow,flow.Sequence,1_1_1_1,NA,NA,completion,9437.314,281777.9,281768.365,281785.083,291222.397,291224,2023-03-07T10:02:16Z,291239.134,"c(""distractor1"", ""distractor2"", ""distractor3"")",Rückhalt,msaada,s,muhula,auwali,kiwimbe,NA,NA,NA,NA,NA,NA,NA,NA,NA,NA,NA,NA,NA,NA,NA,NA,NA,NA,NA,NA,NA,NA,NA
b8d3d,task,flow.Sequence,1_1_1,NA,NA,completion,9437.314,281777.2,281768.365,281785.083,291222.397,291224.3,2023-03-07T10:02:16Z,291239.134,"c(""distractor1"", ""distractor2"", ""distractor3"")",Rückhalt,msaada,s,muhula,auwali,kiwimbe,NA,NA,NA,NA,NA,NA,NA,NA,NA,NA,NA,NA,NA,NA,NA,NA,NA,NA,NA,NA,NA,NA,NA
b8d3d,Deep Question,html.Page,1_1_2_0_0,NA,NA,form submission,2471.1660000007,291224.6,291222.397,291239.134,293710.3,293710.7,2023-03-07T10:02:19Z,293723.268,"c(""distractor1"", ""distractor2"", ""distractor3"")",Gesundheit,salama,d,NA,NA,NA,a,NA,NA,NA,NA,NA,NA,NA,NA,NA,NA,NA,NA,NA,NA,NA,NA,NA,NA,NA,NA,NA,NA
b8d3d,"""Richtig""-Screen",canvas.Screen,1_1_2_0_1,NA,NA,skipped,NA,293715,NA,NA,293710.3,293715.1,2023-03-07T10:02:19Z,293723.268,"c(""distractor1"", ""distractor2"", ""distractor3"")",Gesundheit,salama,d,NA,NA,NA,NA,NA,NA,NA,NA,NA,NA,NA,NA,NA,NA,NA,NA,NA,NA,NA,NA,NA,NA,NA,NA,NA,NA
b8d3d,"""Falsch""-Screen",canvas.Screen,1_1_2_0_2,NA,NA,timeout,5004.517,293715.8,293707.908,293723.268,298711.013,298715.4,2023-03-07T10:02:24Z,298727.785,"c(""distractor1"", ""distractor2"", ""distractor3"")",Gesundheit,salama,d,NA,NA,NA,NA,NA,0,NA,NA,NA,NA,NA,NA,NA,NA,NA,NA,NA,NA,NA,NA,NA,NA,NA,NA,NA,NA
b8d3d,deep,flow.Sequence,1_1_2_0,NA,NA,completion,7471.879,291224.6,291222.397,291239.134,298711.013,298715.9,2023-03-07T10:02:24Z,298727.785,"c(""distractor1"", ""distractor2"", ""distractor3"")",Gesundheit,salama,d,NA,NA,NA,NA,NA,NA,NA,NA,NA,NA,NA,NA,NA,NA,NA,NA,NA,NA,NA,NA,NA,NA,NA,NA,NA,NA
b8d3d,shallow,flow.Sequence,1_1_2_1,NA,NA,skipped,NA,298716,NA,NA,298711.013,298716.3,2023-03-07T10:02:24Z,298727.785,"c(""distractor1"", ""distractor2"", ""distractor3"")",Gesundheit,salama,d,NA,NA,NA,NA,NA,NA,NA,NA,NA,NA,NA,NA,NA,NA,NA,NA,NA,NA,NA,NA,NA,NA,NA,NA,NA,NA
b8d3d,task,flow.Sequence,1_1_2,NA,NA,completion,7471.879,291224.4,291222.397,291239.134,298711.013,298716.5,2023-03-07T10:02:24Z,298727.785,"c(""distractor1"", ""distractor2"", ""distractor3"")",Gesundheit,salama,d,NA,NA,NA,NA,NA,NA,NA,NA,NA,NA,NA,NA,NA,NA,NA,NA,NA,NA,NA,NA,NA,NA,NA,NA,NA,NA
b8d3d,deep,flow.Sequence,1_1_3_0,NA,NA,skipped,NA,298716.7,NA,NA,298711.013,298716.8,2023-03-07T10:02:24Z,298727.785,"c(""distractor1"", ""distractor2"", ""distractor3"")",Kritik,lawama,s,dereva,nafasi,mawazo,NA,NA,NA,NA,NA,NA,NA,NA,NA,NA,NA,NA,NA,NA,NA,NA,NA,NA,NA,NA,NA,NA,NA
b8d3d,Shallow Question,html.Page,1_1_3_1_0,NA,NA,form submission,4543.5150000008,298716.9,298711.013,298727.785,303271.3,303271.7,2023-03-07T10:02:28Z,303282.816,"c(""distractor1"", ""distractor2"", ""distractor3"")",Kritik,lawama,s,dereva,nafasi,mawazo,dereva,NA,NA,NA,NA,NA,NA,NA,NA,NA,NA,NA,NA,NA,NA,NA,NA,NA,NA,NA,NA,NA,NA
b8d3d,"""Richtig""-Screen",canvas.Screen,1_1_3_1_1,NA,NA,skipped,NA,303277.6,NA,NA,303271.3,303277.9,2023-03-07T10:02:28Z,303282.816,"c(""distractor1"", ""distractor2"", ""distractor3"")",Kritik,lawama,s,dereva,nafasi,mawazo,NA,NA,NA,NA,NA,NA,NA,NA,NA,NA,NA,NA,NA,NA,NA,NA,NA,NA,NA,NA,NA,NA,NA
b8d3d,"""Falsch""-Screen",canvas.Screen,1_1_3_1_2,NA,NA,timeout,4997.687,303279.6,303264.433,303282.816,308262.159,308271.2,2023-03-07T10:02:33Z,308280.503,"c(""distractor1"", ""distractor2"", ""distractor3"")",Kritik,lawama,s,dereva,nafasi,mawazo,NA,NA,0,NA,NA,NA,NA,NA,NA,NA,NA,NA,NA,NA,NA,NA,NA,NA,NA,NA,NA,NA,NA
b8d3d,shallow,flow.Sequence,1_1_3_1,NA,NA,completion,9534.374,298716.9,298711.013,298727.785,308262.159,308271.6,2023-03-07T10:02:33Z,308280.503,"c(""distractor1"", ""distractor2"", ""distractor3"")",Kritik,lawama,s,dereva,nafasi,mawazo,NA,NA,NA,NA,NA,NA,NA,NA,NA,NA,NA,NA,NA,NA,NA,NA,NA,NA,NA,NA,NA,NA,NA
b8d3d,task,flow.Sequence,1_1_3,NA,NA,completion,9534.374,298716.6,298711.013,298727.785,308262.159,308271.8,2023-03-07T10:02:33Z,308280.503,"c(""distractor1"", ""distractor2"", ""distractor3"")",Kritik,lawama,s,dereva,nafasi,mawazo,NA,NA,NA,NA,NA,NA,NA,NA,NA,NA,NA,NA,NA,NA,NA,NA,NA,NA,NA,NA,NA,NA,NA
b8d3d,Deep Question,html.Page,1_1_4_0_0,NA,NA,form submission,2089.1970000011,308272,308262.159,308280.503,310369.7,310370,2023-03-07T10:02:35Z,310400.47,"c(""distractor1"", ""distractor2"", ""distractor3"")",Qualität,mtindo,d,NA,NA,NA,l,NA,NA,NA,NA,NA,NA,NA,NA,NA,NA,NA,NA,NA,NA,NA,NA,NA,NA,NA,NA,NA,NA
b8d3d,"""Richtig""-Screen",canvas.Screen,1_1_4_0_1,NA,NA,skipped,NA,310374.2,NA,NA,310369.7,310374.5,2023-03-07T10:02:35Z,310400.47,"c(""distractor1"", ""distractor2"", ""distractor3"")",Qualität,mtindo,d,NA,NA,NA,NA,NA,NA,NA,NA,NA,NA,NA,NA,NA,NA,NA,NA,NA,NA,NA,NA,NA,NA,NA,NA,NA,NA
b8d3d,"""Falsch""-Screen",canvas.Screen,1_1_4_0_2,NA,NA,timeout,5005.792,310375.9,310364.543,310400.47,315389.013,315395.8,2023-03-07T10:02:40Z,315406.262,"c(""distractor1"", ""distractor2"", ""distractor3"")",Qualität,mtindo,d,NA,NA,NA,NA,NA,0,NA,NA,NA,NA,NA,NA,NA,NA,NA,NA,NA,NA,NA,NA,NA,NA,NA,NA,NA,NA
b8d3d,deep,flow.Sequence,1_1_4_0,NA,NA,completion,7108.51,308272,308262.159,308280.503,315389.013,315396.3,2023-03-07T10:02:40Z,315406.262,"c(""distractor1"", ""distractor2"", ""distractor3"")",Qualität,mtindo,d,NA,NA,NA,NA,NA,NA,NA,NA,NA,NA,NA,NA,NA,NA,NA,NA,NA,NA,NA,NA,NA,NA,NA,NA,NA,NA
b8d3d,shallow,flow.Sequence,1_1_4_1,NA,NA,skipped,NA,315396.4,NA,NA,315389.013,315396.5,2023-03-07T10:02:40Z,315406.262,"c(""distractor1"", ""distractor2"", ""distractor3"")",Qualität,mtindo,d,NA,NA,NA,NA,NA,NA,NA,NA,NA,NA,NA,NA,NA,NA,NA,NA,NA,NA,NA,NA,NA,NA,NA,NA,NA,NA
b8d3d,task,flow.Sequence,1_1_4,NA,NA,completion,7108.51,308272,308262.159,308280.503,315389.013,315396.7,2023-03-07T10:02:40Z,315406.262,"c(""distractor1"", ""distractor2"", ""distractor3"")",Qualität,mtindo,d,NA,NA,NA,NA,NA,NA,NA,NA,NA,NA,NA,NA,NA,NA,NA,NA,NA,NA,NA,NA,NA,NA,NA,NA,NA,NA
b8d3d,Deep Question,html.Page,1_1_5_0_0,NA,NA,form submission,2424.0380000008,315396.9,315389.013,315406.262,317830.3,317830.7,2023-03-07T10:02:43Z,317830.601,"c(""distractor1"", ""distractor2"", ""distractor3"")",Schatten,kivuli,d,NA,NA,NA,l,NA,NA,NA,NA,NA,NA,NA,NA,NA,NA,NA,NA,NA,NA,NA,NA,NA,NA,NA,NA,NA,NA
b8d3d,"""Richtig""-Screen",canvas.Screen,1_1_5_0_1,NA,NA,skipped,NA,317834.8,NA,NA,317830.3,317834.9,2023-03-07T10:02:43Z,317830.601,"c(""distractor1"", ""distractor2"", ""distractor3"")",Schatten,kivuli,d,NA,NA,NA,NA,NA,NA,NA,NA,NA,NA,NA,NA,NA,NA,NA,NA,NA,NA,NA,NA,NA,NA,NA,NA,NA,NA
b8d3d,"""Falsch""-Screen",canvas.Screen,1_1_5_0_2,NA,NA,timeout,4996.479,317836.2,317824.39,317830.601,322810.681,322811.6,2023-03-07T10:02:48Z,322827.08,"c(""distractor1"", ""distractor2"", ""distractor3"")",Schatten,kivuli,d,NA,NA,NA,NA,NA,0,NA,NA,NA,NA,NA,NA,NA,NA,NA,NA,NA,NA,NA,NA,NA,NA,NA,NA,NA,NA
b8d3d,deep,flow.Sequence,1_1_5_0,NA,NA,completion,7404.419,315396.9,315389.013,315406.262,322810.681,322811.9,2023-03-07T10:02:48Z,322827.08,"c(""distractor1"", ""distractor2"", ""distractor3"")",Schatten,kivuli,d,NA,NA,NA,NA,NA,NA,NA,NA,NA,NA,NA,NA,NA,NA,NA,NA,NA,NA,NA,NA,NA,NA,NA,NA,NA,NA
b8d3d,shallow,flow.Sequence,1_1_5_1,NA,NA,skipped,NA,322812,NA,NA,322810.681,322812.2,2023-03-07T10:02:48Z,322827.08,"c(""distractor1"", ""distractor2"", ""distractor3"")",Schatten,kivuli,d,NA,NA,NA,NA,NA,NA,NA,NA,NA,NA,NA,NA,NA,NA,NA,NA,NA,NA,NA,NA,NA,NA,NA,NA,NA,NA
b8d3d,task,flow.Sequence,1_1_5,NA,NA,completion,7404.419,315396.9,315389.013,315406.262,322810.681,322812.4,2023-03-07T10:02:48Z,322827.08,"c(""distractor1"", ""distractor2"", ""distractor3"")",Schatten,kivuli,d,NA,NA,NA,NA,NA,NA,NA,NA,NA,NA,NA,NA,NA,NA,NA,NA,NA,NA,NA,NA,NA,NA,NA,NA,NA,NA
b8d3d,block,flow.Loop,1_1,NA,NA,completion,52023.097,270751.3,270753.869,270787.584,322810.681,322812.8,2023-03-07T10:02:48Z,322827.08,"c(""distractor1"", ""distractor2"", ""distractor3"")",NA,NA,NA,NA,NA,NA,NA,NA,NA,NA,NA,NA,NA,NA,NA,NA,NA,NA,NA,NA,NA,NA,NA,NA,NA,NA,NA,NA,NA
b8d3d,Practice,flow.Sequence,1,NA,NA,completion,58169.353,264615.3,264607.922,264641.328,322810.681,322813.1,2023-03-07T10:02:48Z,322827.08,NULL,NA,NA,NA,NA,NA,NA,NA,NA,NA,NA,NA,NA,NA,NA,NA,NA,NA,NA,NA,NA,NA,NA,NA,NA,NA,NA,NA,NA,NA
b8d3d,Experiment start,canvas.Screen,2,weiter,keypress(q),response,27633.120000001,322813.3,322810.681,322827.08,350460.2,350465.5,2023-03-07T10:03:16Z,350606.421,NULL,NA,NA,NA,NA,NA,NA,NA,NA,NA,NA,NA,NA,NA,NA,NA,NA,NA,NA,NA,NA,NA,NA,NA,NA,NA,NA,NA,NA,NA
b8d3d,Deep Question,html.Page,3_0_0_0_0_0_0,NA,NA,form submission,2413.4790000004,350587.7,350586.775,350606.421,353019.9,353020.1,2023-03-07T10:03:18Z,353023.49,NULL,Hoffnung,matarajio,d,NA,NA,NA,a,NA,NA,0,NA,NA,NA,NA,NA,NA,NA,NA,NA,NA,NA,NA,NA,NA,NA,NA,NA,NA,NA
b8d3d,"""Richtig""-Screen",canvas.Screen,3_0_0_0_0_0_1,NA,NA,skipped,NA,353021,NA,NA,353019.9,353021.1,2023-03-07T10:03:18Z,353023.49,NULL,Hoffnung,matarajio,d,NA,NA,NA,NA,sdf,NA,0,NA,NA,NA,NA,NA,NA,NA,NA,NA,NA,NA,NA,NA,NA,NA,NA,NA,NA,NA
b8d3d,"""Falsch""-Screen",canvas.Screen,3_0_0_0_0_0_2,NA,NA,timeout,4998.985,353021.5,353006.847,353023.49,358005.766,358006.2,2023-03-07T10:03:23Z,358022.475,NULL,Hoffnung,matarajio,d,NA,NA,NA,NA,sdf,0,0,NA,NA,NA,NA,NA,NA,NA,NA,NA,NA,NA,NA,NA,NA,NA,NA,NA,NA,NA
b8d3d,deep,flow.Sequence,3_0_0_0_0_0,NA,NA,completion,7399.345,350587.7,350586.775,350606.421,358005.766,358006.4,2023-03-07T10:03:23Z,358022.475,NULL,Hoffnung,matarajio,d,NA,NA,NA,NA,sdf,NA,0,NA,NA,NA,NA,NA,NA,NA,NA,NA,NA,NA,NA,NA,NA,NA,NA,NA,NA,NA
b8d3d,shallow,flow.Sequence,3_0_0_0_0_1,NA,NA,skipped,NA,358006.5,NA,NA,358005.766,358006.5,2023-03-07T10:03:23Z,358022.475,NULL,Hoffnung,matarajio,d,NA,NA,NA,NA,sdf,NA,0,NA,NA,NA,NA,NA,NA,NA,NA,NA,NA,NA,NA,NA,NA,NA,NA,NA,NA,NA
b8d3d,task,flow.Sequence,3_0_0_0_0,NA,NA,completion,7399.345,350587.7,350586.775,350606.421,358005.766,358006.6,2023-03-07T10:03:23Z,358022.475,NULL,Hoffnung,matarajio,d,NA,NA,NA,NA,sdf,NA,0,NA,NA,NA,NA,NA,NA,NA,NA,NA,NA,NA,NA,NA,NA,NA,NA,NA,NA,NA
b8d3d,Deep Question,html.Page,3_0_0_0_1_0_0,NA,NA,form submission,1882.9250000004,358006.7,358005.766,358022.475,359905.4,359905.5,2023-03-07T10:03:25Z,359927.46,NULL,Wettbewerb,ushindani,d,NA,NA,NA,a,NA,NA,0,NA,NA,NA,NA,NA,NA,NA,NA,NA,NA,NA,NA,NA,NA,NA,NA,NA,NA,NA
b8d3d,"""Richtig""-Screen",canvas.Screen,3_0_0_0_1_0_1,NA,NA,skipped,NA,359907.6,NA,NA,359905.4,359907.7,2023-03-07T10:03:25Z,359927.46,NULL,Wettbewerb,ushindani,d,NA,NA,NA,NA,sdf,NA,0,NA,NA,NA,NA,NA,NA,NA,NA,NA,NA,NA,NA,NA,NA,NA,NA,NA,NA,NA
b8d3d,"""Falsch""-Screen",canvas.Screen,3_0_0_0_1_0_2,NA,NA,timeout,5000.002,359908.1,359889.773,359927.46,364910.28,364912.7,2023-03-07T10:03:30Z,364927.462,NULL,Wettbewerb,ushindani,d,NA,NA,NA,NA,sdf,0,0,NA,NA,NA,NA,NA,NA,NA,NA,NA,NA,NA,NA,NA,NA,NA,NA,NA,NA,NA
b8d3d,deep,flow.Sequence,3_0_0_0_1_0,NA,NA,completion,6887.8050000001,358006.6,358005.766,358022.475,364910.28,364912.9,2023-03-07T10:03:30Z,364927.462,NULL,Wettbewerb,ushindani,d,NA,NA,NA,NA,sdf,NA,0,NA,NA,NA,NA,NA,NA,NA,NA,NA,NA,NA,NA,NA,NA,NA,NA,NA,NA,NA
b8d3d,shallow,flow.Sequence,3_0_0_0_1_1,NA,NA,skipped,NA,364913,NA,NA,364910.28,364913.1,2023-03-07T10:03:30Z,364927.462,NULL,Wettbewerb,ushindani,d,NA,NA,NA,NA,sdf,NA,0,NA,NA,NA,NA,NA,NA,NA,NA,NA,NA,NA,NA,NA,NA,NA,NA,NA,NA,NA
b8d3d,task,flow.Sequence,3_0_0_0_1,NA,NA,completion,6887.8050000001,358006.6,358005.766,358022.475,364910.28,364913.1,2023-03-07T10:03:30Z,364927.462,NULL,Wettbewerb,ushindani,d,NA,NA,NA,NA,sdf,NA,0,NA,NA,NA,NA,NA,NA,NA,NA,NA,NA,NA,NA,NA,NA,NA,NA,NA,NA,NA
b8d3d,deep,flow.Sequence,3_0_0_0_2_0,NA,NA,skipped,NA,364913.2,NA,NA,364910.28,364913.3,2023-03-07T10:03:30Z,364927.462,NULL,Theorie,nadharia,s,ushungi,mkutano,uwakilishi,NA,sdf,NA,0,NA,NA,NA,NA,NA,NA,NA,NA,NA,NA,NA,NA,NA,NA,NA,NA,NA,NA,NA
b8d3d,Shallow Question,html.Page,3_0_0_0_2_1_0,NA,NA,form submission,4621.6379999996,364913.4,364910.28,364927.462,369549.1,369549.6,2023-03-07T10:03:35Z,369561.436,NULL,Theorie,nadharia,s,ushungi,mkutano,uwakilishi,nadharia,NA,NA,0,NA,NA,NA,NA,NA,NA,NA,NA,NA,NA,NA,NA,NA,NA,NA,NA,NA,NA,NA
b8d3d,"""Richtig""-Screen",canvas.Screen,3_0_0_0_2_1_1,NA,NA,timeout,4999.99,369554.9,369545.105,369561.436,374544.562,374545.9,2023-03-07T10:03:40Z,374561.426,NULL,Theorie,nadharia,s,ushungi,mkutano,uwakilishi,NA,sdf,1,0,NA,NA,NA,NA,NA,NA,NA,NA,NA,NA,NA,NA,NA,NA,NA,NA,NA,NA,NA
b8d3d,"""Falsch""-Screen",canvas.Screen,3_0_0_0_2_1_2,NA,NA,skipped,NA,374551.5,NA,NA,374544.562,374551.9,2023-03-07T10:03:40Z,374561.426,NULL,Theorie,nadharia,s,ushungi,mkutano,uwakilishi,NA,sdf,NA,0,NA,NA,NA,NA,NA,NA,NA,NA,NA,NA,NA,NA,NA,NA,NA,NA,NA,NA,NA
b8d3d,shallow,flow.Sequence,3_0_0_0_2_1,NA,NA,completion,9617.1,364913.4,364910.28,364927.462,374544.562,374552.1,2023-03-07T10:03:40Z,374561.426,NULL,Theorie,nadharia,s,ushungi,mkutano,uwakilishi,NA,sdf,NA,0,NA,NA,NA,NA,NA,NA,NA,NA,NA,NA,NA,NA,NA,NA,NA,NA,NA,NA,NA
b8d3d,task,flow.Sequence,3_0_0_0_2,NA,NA,completion,9617.1,364913.2,364910.28,364927.462,374544.562,374552.4,2023-03-07T10:03:40Z,374561.426,NULL,Theorie,nadharia,s,ushungi,mkutano,uwakilishi,NA,sdf,NA,0,NA,NA,NA,NA,NA,NA,NA,NA,NA,NA,NA,NA,NA,NA,NA,NA,NA,NA,NA
b8d3d,deep,flow.Sequence,3_0_0_0_3_0,NA,NA,skipped,NA,374552.5,NA,NA,374544.562,374552.6,2023-03-07T10:03:40Z,374561.426,NULL,Schönheit,kirembo,s,mahojiano,msisimko,jitihadi,NA,sdf,NA,0,NA,NA,NA,NA,NA,NA,NA,NA,NA,NA,NA,NA,NA,NA,NA,NA,NA,NA,NA
b8d3d,Shallow Question,html.Page,3_0_0_0_3_1_0,NA,NA,form submission,3902.9740000004,374552.8,374544.562,374561.426,378464.4,378464.8,2023-03-07T10:03:44Z,378487.196,NULL,Schönheit,kirembo,s,mahojiano,msisimko,jitihadi,jitihadi,NA,NA,0,NA,NA,NA,NA,NA,NA,NA,NA,NA,NA,NA,NA,NA,NA,NA,NA,NA,NA,NA
b8d3d,"""Richtig""-Screen",canvas.Screen,3_0_0_0_3_1_1,NA,NA,skipped,NA,378468.9,NA,NA,378464.4,378469.1,2023-03-07T10:03:44Z,378487.196,NULL,Schönheit,kirembo,s,mahojiano,msisimko,jitihadi,NA,sdf,NA,0,NA,NA,NA,NA,NA,NA,NA,NA,NA,NA,NA,NA,NA,NA,NA,NA,NA,NA,NA
b8d3d,"""Falsch""-Screen",canvas.Screen,3_0_0_0_3_1_2,NA,NA,timeout,5003.158,378470.9,378470.506,378487.196,383473.695,383474.7,2023-03-07T10:03:49Z,383490.354,NULL,Schönheit,kirembo,s,mahojiano,msisimko,jitihadi,NA,sdf,0,0,NA,NA,NA,NA,NA,NA,NA,NA,NA,NA,NA,NA,NA,NA,NA,NA,NA,NA,NA
b8d3d,shallow,flow.Sequence,3_0_0_0_3_1,NA,NA,completion,8912.269,374552.8,374544.562,374561.426,383473.695,383475.1,2023-03-07T10:03:49Z,383490.354,NULL,Schönheit,kirembo,s,mahojiano,msisimko,jitihadi,NA,sdf,NA,0,NA,NA,NA,NA,NA,NA,NA,NA,NA,NA,NA,NA,NA,NA,NA,NA,NA,NA,NA
b8d3d,task,flow.Sequence,3_0_0_0_3,NA,NA,completion,8912.269,374552.5,374544.562,374561.426,383473.695,383475.3,2023-03-07T10:03:49Z,383490.354,NULL,Schönheit,kirembo,s,mahojiano,msisimko,jitihadi,NA,sdf,NA,0,NA,NA,NA,NA,NA,NA,NA,NA,NA,NA,NA,NA,NA,NA,NA,NA,NA,NA,NA
b8d3d,deep,flow.Sequence,3_0_0_0_4_0,NA,NA,skipped,NA,383475.5,NA,NA,383473.695,383475.5,2023-03-07T10:03:49Z,383490.354,NULL,Schock,mshtuko,s,biashara,kukataza,vichekesho,NA,sdf,NA,0,NA,NA,NA,NA,NA,NA,NA,NA,NA,NA,NA,NA,NA,NA,NA,NA,NA,NA,NA
b8d3d,Shallow Question,html.Page,3_0_0_0_4_1_0,NA,NA,form submission,7492.146,383475.7,383473.695,383490.354,390982.5,390982.9,2023-03-07T10:03:56Z,391014.472,NULL,Schock,mshtuko,s,biashara,kukataza,vichekesho,kukataza,NA,NA,0,NA,NA,NA,NA,NA,NA,NA,NA,NA,NA,NA,NA,NA,NA,NA,NA,NA,NA,NA
b8d3d,"""Richtig""-Screen",canvas.Screen,3_0_0_0_4_1_1,NA,NA,skipped,NA,390988,NA,NA,390982.5,390988.3,2023-03-07T10:03:56Z,391014.472,NULL,Schock,mshtuko,s,biashara,kukataza,vichekesho,NA,sdf,NA,0,NA,NA,NA,NA,NA,NA,NA,NA,NA,NA,NA,NA,NA,NA,NA,NA,NA,NA,NA
b8d3d,"""Falsch""-Screen",canvas.Screen,3_0_0_0_4_1_2,NA,NA,timeout,5000.216,390989.5,391012.7,391014.472,395998.079,395999.1,2023-03-07T10:04:01Z,396014.688,NULL,Schock,mshtuko,s,biashara,kukataza,vichekesho,NA,sdf,0,0,NA,NA,NA,NA,NA,NA,NA,NA,NA,NA,NA,NA,NA,NA,NA,NA,NA,NA,NA
b8d3d,shallow,flow.Sequence,3_0_0_0_4_1,NA,NA,completion,12507.725,383475.7,383473.695,383490.354,395998.079,395999.4,2023-03-07T10:04:01Z,396014.688,NULL,Schock,mshtuko,s,biashara,kukataza,vichekesho,NA,sdf,NA,0,NA,NA,NA,NA,NA,NA,NA,NA,NA,NA,NA,NA,NA,NA,NA,NA,NA,NA,NA
b8d3d,task,flow.Sequence,3_0_0_0_4,NA,NA,completion,12507.725,383475.5,383473.695,383490.354,395998.079,395999.6,2023-03-07T10:04:01Z,396014.688,NULL,Schock,mshtuko,s,biashara,kukataza,vichekesho,NA,sdf,NA,0,NA,NA,NA,NA,NA,NA,NA,NA,NA,NA,NA,NA,NA,NA,NA,NA,NA,NA,NA
b8d3d,Deep Question,html.Page,3_0_0_0_5_0_0,NA,NA,form submission,2076.312,395999.8,395998.079,396014.688,398091,398091.5,2023-03-07T10:04:03Z,398116.95,NULL,Verpackung,ufungaji,d,NA,NA,NA,a,NA,NA,0,NA,NA,NA,NA,NA,NA,NA,NA,NA,NA,NA,NA,NA,NA,NA,NA,NA,NA,NA
b8d3d,"""Richtig""-Screen",canvas.Screen,3_0_0_0_5_0_1,NA,NA,skipped,NA,398095.5,NA,NA,398091,398095.7,2023-03-07T10:04:03Z,398116.95,NULL,Verpackung,ufungaji,d,NA,NA,NA,NA,sdf,NA,0,NA,NA,NA,NA,NA,NA,NA,NA,NA,NA,NA,NA,NA,NA,NA,NA,NA,NA,NA
b8d3d,"""Falsch""-Screen",canvas.Screen,3_0_0_0_5_0_2,NA,NA,timeout,5000.713,398096.7,398084.626,398116.95,403101.002,403102.3,2023-03-07T10:04:08Z,403117.663,NULL,Verpackung,ufungaji,d,NA,NA,NA,NA,sdf,0,0,NA,NA,NA,NA,NA,NA,NA,NA,NA,NA,NA,NA,NA,NA,NA,NA,NA,NA,NA
b8d3d,deep,flow.Sequence,3_0_0_0_5_0,NA,NA,completion,7086.314,395999.7,395998.079,396014.688,403101.002,403102.9,2023-03-07T10:04:08Z,403117.663,NULL,Verpackung,ufungaji,d,NA,NA,NA,NA,sdf,NA,0,NA,NA,NA,NA,NA,NA,NA,NA,NA,NA,NA,NA,NA,NA,NA,NA,NA,NA,NA
b8d3d,shallow,flow.Sequence,3_0_0_0_5_1,NA,NA,skipped,NA,403103.1,NA,NA,403101.002,403103.3,2023-03-07T10:04:08Z,403117.663,NULL,Verpackung,ufungaji,d,NA,NA,NA,NA,sdf,NA,0,NA,NA,NA,NA,NA,NA,NA,NA,NA,NA,NA,NA,NA,NA,NA,NA,NA,NA,NA
b8d3d,task,flow.Sequence,3_0_0_0_5,NA,NA,completion,7086.314,395999.7,395998.079,396014.688,403101.002,403103.7,2023-03-07T10:04:08Z,403117.663,NULL,Verpackung,ufungaji,d,NA,NA,NA,NA,sdf,NA,0,NA,NA,NA,NA,NA,NA,NA,NA,NA,NA,NA,NA,NA,NA,NA,NA,NA,NA,NA
b8d3d,deep,flow.Sequence,3_0_0_0_6_0,NA,NA,skipped,NA,403104,NA,NA,403101.002,403104.2,2023-03-07T10:04:08Z,403117.663,NULL,Zufall,kikuti,s,kukosekana,uchoraji,leseni,NA,sdf,NA,0,NA,NA,NA,NA,NA,NA,NA,NA,NA,NA,NA,NA,NA,NA,NA,NA,NA,NA,NA
b8d3d,Shallow Question,html.Page,3_0_0_0_6_1_0,NA,NA,form submission,6157.5370000011,403104.3,403101.002,403117.663,409275.2,409275.6,2023-03-07T10:04:14Z,409279.095,NULL,Zufall,kikuti,s,kukosekana,uchoraji,leseni,leseni,NA,NA,0,NA,NA,NA,NA,NA,NA,NA,NA,NA,NA,NA,NA,NA,NA,NA,NA,NA,NA,NA
b8d3d,"""Richtig""-Screen",canvas.Screen,3_0_0_0_6_1_1,NA,NA,skipped,NA,409279.9,NA,NA,409275.2,409280.4,2023-03-07T10:04:14Z,409279.095,NULL,Zufall,kikuti,s,kukosekana,uchoraji,leseni,NA,sdf,NA,0,NA,NA,NA,NA,NA,NA,NA,NA,NA,NA,NA,NA,NA,NA,NA,NA,NA,NA,NA
b8d3d,"""Falsch""-Screen",canvas.Screen,3_0_0_0_6_1_2,NA,NA,timeout,5006.005,409282,409262.745,409279.095,414268.807,414269.8,2023-03-07T10:04:19Z,414285.1,NULL,Zufall,kikuti,s,kukosekana,uchoraji,leseni,NA,sdf,0,0,NA,NA,NA,NA,NA,NA,NA,NA,NA,NA,NA,NA,NA,NA,NA,NA,NA,NA,NA
b8d3d,shallow,flow.Sequence,3_0_0_0_6_1,NA,NA,completion,11151.144,403104.3,403101.002,403117.663,414268.807,414270.2,2023-03-07T10:04:19Z,414285.1,NULL,Zufall,kikuti,s,kukosekana,uchoraji,leseni,NA,sdf,NA,0,NA,NA,NA,NA,NA,NA,NA,NA,NA,NA,NA,NA,NA,NA,NA,NA,NA,NA,NA
b8d3d,task,flow.Sequence,3_0_0_0_6,NA,NA,completion,11151.144,403103.9,403101.002,403117.663,414268.807,414270.3,2023-03-07T10:04:19Z,414285.1,NULL,Zufall,kikuti,s,kukosekana,uchoraji,leseni,NA,sdf,NA,0,NA,NA,NA,NA,NA,NA,NA,NA,NA,NA,NA,NA,NA,NA,NA,NA,NA,NA,NA
b8d3d,Deep Question,html.Page,3_0_0_0_7_0_0,NA,NA,form submission,1645.9,414270.5,414268.807,414285.1,415931,415931.4,2023-03-07T10:04:21Z,415964.563,NULL,Auftrag,uagizaji,d,NA,NA,NA,a,NA,NA,0,NA,NA,NA,NA,NA,NA,NA,NA,NA,NA,NA,NA,NA,NA,NA,NA,NA,NA,NA
b8d3d,"""Richtig""-Screen",canvas.Screen,3_0_0_0_7_0_1,NA,NA,skipped,NA,415935.3,NA,NA,415931,415935.6,2023-03-07T10:04:21Z,415964.563,NULL,Auftrag,uagizaji,d,NA,NA,NA,NA,sdf,NA,0,NA,NA,NA,NA,NA,NA,NA,NA,NA,NA,NA,NA,NA,NA,NA,NA,NA,NA,NA
b8d3d,"""Falsch""-Screen",canvas.Screen,3_0_0_0_7_0_2,NA,NA,timeout,4995.899,415936.7,415915.352,415964.563,420944.089,420945.6,2023-03-07T10:04:26Z,420960.462,NULL,Auftrag,uagizaji,d,NA,NA,NA,NA,sdf,0,0,NA,NA,NA,NA,NA,NA,NA,NA,NA,NA,NA,NA,NA,NA,NA,NA,NA,NA,NA
b8d3d,deep,flow.Sequence,3_0_0_0_7_0,NA,NA,completion,6658.989,414270.4,414268.807,414285.1,420944.089,420946,2023-03-07T10:04:26Z,420960.462,NULL,Auftrag,uagizaji,d,NA,NA,NA,NA,sdf,NA,0,NA,NA,NA,NA,NA,NA,NA,NA,NA,NA,NA,NA,NA,NA,NA,NA,NA,NA,NA
b8d3d,shallow,flow.Sequence,3_0_0_0_7_1,NA,NA,skipped,NA,420946,NA,NA,420944.089,420946.1,2023-03-07T10:04:26Z,420960.462,NULL,Auftrag,uagizaji,d,NA,NA,NA,NA,sdf,NA,0,NA,NA,NA,NA,NA,NA,NA,NA,NA,NA,NA,NA,NA,NA,NA,NA,NA,NA,NA
b8d3d,task,flow.Sequence,3_0_0_0_7,NA,NA,completion,6658.989,414270.4,414268.807,414285.1,420944.089,420946.4,2023-03-07T10:04:26Z,420960.462,NULL,Auftrag,uagizaji,d,NA,NA,NA,NA,sdf,NA,0,NA,NA,NA,NA,NA,NA,NA,NA,NA,NA,NA,NA,NA,NA,NA,NA,NA,NA,NA
b8d3d,block,flow.Loop,3_0_0_0,NA,NA,completion,70337.668,350587.7,350586.775,350606.421,420944.089,420946.6,2023-03-07T10:04:26Z,420960.462,NULL,NA,NA,NA,NA,NA,NA,NA,sdf,NA,0,NA,NA,NA,NA,NA,NA,NA,NA,NA,NA,NA,NA,NA,NA,NA,NA,NA,NA,NA
b8d3d,weiter,canvas.Screen,3_0_0_1,sdf,keypress(Space),response,1019.2380000011,420946.7,420944.089,420960.462,421979.7,421984.8,2023-03-07T10:04:27Z,422066.547,NULL,NA,NA,NA,NA,NA,NA,NA,sdf,NA,0,NA,NA,NA,NA,NA,NA,NA,NA,NA,NA,NA,NA,NA,NA,NA,NA,NA,NA,NA
b8d3d,check continue,flow.Sequence,3_0_0,NA,NA,completion,71373.279000001,350587.7,350586.775,350606.421,421979.7,421985.2,2023-03-07T10:04:27Z,422066.547,NULL,NA,NA,NA,NA,NA,NA,NA,sdf,NA,0,NA,NA,NA,NA,NA,NA,NA,NA,NA,NA,NA,NA,NA,NA,NA,NA,NA,NA,NA
b8d3d,Deep Question,html.Page,3_0_1_0_0_0_0,NA,NA,form submission,2404.3530000004,422045.9,422044.574,422066.547,424470.9,424471.3,2023-03-07T10:04:30Z,424474.821,NULL,Verpackung,ufungaji,d,NA,NA,NA,a,NA,NA,1,NA,NA,NA,NA,NA,NA,NA,NA,NA,NA,NA,NA,NA,NA,NA,NA,NA,NA,NA
b8d3d,"""Richtig""-Screen",canvas.Screen,3_0_1_0_0_0_1,NA,NA,skipped,NA,424472.7,NA,NA,424470.9,424472.9,2023-03-07T10:04:30Z,424474.821,NULL,Verpackung,ufungaji,d,NA,NA,NA,NA,sdfdsf,NA,1,NA,NA,NA,NA,NA,NA,NA,NA,NA,NA,NA,NA,NA,NA,NA,NA,NA,NA,NA
b8d3d,"""Falsch""-Screen",canvas.Screen,3_0_1_0_0_0_2,NA,NA,timeout,5002.942,424474.3,424458.222,424474.821,429461.108,429462,2023-03-07T10:04:35Z,429477.763,NULL,Verpackung,ufungaji,d,NA,NA,NA,NA,sdfdsf,0,1,NA,NA,NA,NA,NA,NA,NA,NA,NA,NA,NA,NA,NA,NA,NA,NA,NA,NA,NA
b8d3d,deep,flow.Sequence,3_0_1_0_0_0,NA,NA,completion,7394.561,422045.8,422044.574,422066.547,429461.108,429462.4,2023-03-07T10:04:35Z,429477.763,NULL,Verpackung,ufungaji,d,NA,NA,NA,NA,sdfdsf,NA,1,NA,NA,NA,NA,NA,NA,NA,NA,NA,NA,NA,NA,NA,NA,NA,NA,NA,NA,NA
b8d3d,shallow,flow.Sequence,3_0_1_0_0_1,NA,NA,skipped,NA,429462.6,NA,NA,429461.108,429462.6,2023-03-07T10:04:35Z,429477.763,NULL,Verpackung,ufungaji,d,NA,NA,NA,NA,sdfdsf,NA,1,NA,NA,NA,NA,NA,NA,NA,NA,NA,NA,NA,NA,NA,NA,NA,NA,NA,NA,NA
b8d3d,task,flow.Sequence,3_0_1_0_0,NA,NA,completion,7394.561,422045.8,422044.574,422066.547,429461.108,429462.8,2023-03-07T10:04:35Z,429477.763,NULL,Verpackung,ufungaji,d,NA,NA,NA,NA,sdfdsf,NA,1,NA,NA,NA,NA,NA,NA,NA,NA,NA,NA,NA,NA,NA,NA,NA,NA,NA,NA,NA
b8d3d,deep,flow.Sequence,3_0_1_0_1_0,NA,NA,skipped,NA,429463,NA,NA,429461.108,429463.1,2023-03-07T10:04:35Z,429477.763,NULL,Schock,mshtuko,s,biashara,kukataza,vichekesho,NA,sdfdsf,NA,1,NA,NA,NA,NA,NA,NA,NA,NA,NA,NA,NA,NA,NA,NA,NA,NA,NA,NA,NA
b8d3d,Shallow Question,html.Page,3_0_1_0_1_1_0,NA,NA,form submission,6870.8369999997,429463.2,429461.108,429477.763,436348.6,436349.1,2023-03-07T10:04:41Z,436375.31,NULL,Schock,mshtuko,s,biashara,kukataza,vichekesho,mshtuko,NA,NA,1,NA,NA,NA,NA,NA,NA,NA,NA,NA,NA,NA,NA,NA,NA,NA,NA,NA,NA,NA
b8d3d,"""Richtig""-Screen",canvas.Screen,3_0_1_0_1_1_1,NA,NA,timeout,4997.933,436354.4,436337.074,436375.31,441356.715,441357.7,2023-03-07T10:04:46Z,441373.243,NULL,Schock,mshtuko,s,biashara,kukataza,vichekesho,NA,sdfdsf,1,1,NA,NA,NA,NA,NA,NA,NA,NA,NA,NA,NA,NA,NA,NA,NA,NA,NA,NA,NA
b8d3d,"""Falsch""-Screen",canvas.Screen,3_0_1_0_1_1_2,NA,NA,skipped,NA,441363.2,NA,NA,441356.715,441363.6,2023-03-07T10:04:46Z,441373.243,NULL,Schock,mshtuko,s,biashara,kukataza,vichekesho,NA,sdfdsf,NA,1,NA,NA,NA,NA,NA,NA,NA,NA,NA,NA,NA,NA,NA,NA,NA,NA,NA,NA,NA
b8d3d,shallow,flow.Sequence,3_0_1_0_1_1,NA,NA,completion,11878.952,429463.1,429461.108,429477.763,441356.715,441363.9,2023-03-07T10:04:46Z,441373.243,NULL,Schock,mshtuko,s,biashara,kukataza,vichekesho,NA,sdfdsf,NA,1,NA,NA,NA,NA,NA,NA,NA,NA,NA,NA,NA,NA,NA,NA,NA,NA,NA,NA,NA
b8d3d,task,flow.Sequence,3_0_1_0_1,NA,NA,completion,11878.952,429462.9,429461.108,429477.763,441356.715,441364,2023-03-07T10:04:46Z,441373.243,NULL,Schock,mshtuko,s,biashara,kukataza,vichekesho,NA,sdfdsf,NA,1,NA,NA,NA,NA,NA,NA,NA,NA,NA,NA,NA,NA,NA,NA,NA,NA,NA,NA,NA
b8d3d,deep,flow.Sequence,3_0_1_0_2_0,NA,NA,skipped,NA,441364.2,NA,NA,441356.715,441364.4,2023-03-07T10:04:46Z,441373.243,NULL,Theorie,nadharia,s,ushungi,mkutano,uwakilishi,NA,sdfdsf,NA,1,NA,NA,NA,NA,NA,NA,NA,NA,NA,NA,NA,NA,NA,NA,NA,NA,NA,NA,NA
b8d3d,Shallow Question,html.Page,3_0_1_0_2_1_0,NA,NA,form submission,9018.5570000007,441364.8,441356.715,441373.243,450391.8,450392.2,2023-03-07T10:04:55Z,450400.01,NULL,Theorie,nadharia,s,ushungi,mkutano,uwakilishi,nadharia,NA,NA,1,NA,NA,NA,NA,NA,NA,NA,NA,NA,NA,NA,NA,NA,NA,NA,NA,NA,NA,NA
b8d3d,"""Richtig""-Screen",canvas.Screen,3_0_1_0_2_1_1,NA,NA,timeout,5003.255,450397.5,450383.154,450400.01,455386.938,455388.1,2023-03-07T10:05:00Z,455403.265,NULL,Theorie,nadharia,s,ushungi,mkutano,uwakilishi,NA,sdfdsf,1,1,NA,NA,NA,NA,NA,NA,NA,NA,NA,NA,NA,NA,NA,NA,NA,NA,NA,NA,NA
b8d3d,"""Falsch""-Screen",canvas.Screen,3_0_1_0_2_1_2,NA,NA,skipped,NA,455392.8,NA,NA,455386.938,455393.2,2023-03-07T10:05:00Z,455403.265,NULL,Theorie,nadharia,s,ushungi,mkutano,uwakilishi,NA,sdfdsf,NA,1,NA,NA,NA,NA,NA,NA,NA,NA,NA,NA,NA,NA,NA,NA,NA,NA,NA,NA,NA
b8d3d,shallow,flow.Sequence,3_0_1_0_2_1,NA,NA,completion,14013.695,441364.7,441356.715,441373.243,455386.938,455393.5,2023-03-07T10:05:00Z,455403.265,NULL,Theorie,nadharia,s,ushungi,mkutano,uwakilishi,NA,sdfdsf,NA,1,NA,NA,NA,NA,NA,NA,NA,NA,NA,NA,NA,NA,NA,NA,NA,NA,NA,NA,NA
b8d3d,task,flow.Sequence,3_0_1_0_2,NA,NA,completion,14013.695,441364.2,441356.715,441373.243,455386.938,455393.7,2023-03-07T10:05:00Z,455403.265,NULL,Theorie,nadharia,s,ushungi,mkutano,uwakilishi,NA,sdfdsf,NA,1,NA,NA,NA,NA,NA,NA,NA,NA,NA,NA,NA,NA,NA,NA,NA,NA,NA,NA,NA
b8d3d,deep,flow.Sequence,3_0_1_0_3_0,NA,NA,skipped,NA,455393.8,NA,NA,455386.938,455393.9,2023-03-07T10:05:00Z,455403.265,NULL,Zufall,kikuti,s,kukosekana,uchoraji,leseni,NA,sdfdsf,NA,1,NA,NA,NA,NA,NA,NA,NA,NA,NA,NA,NA,NA,NA,NA,NA,NA,NA,NA,NA
b8d3d,Shallow Question,html.Page,3_0_1_0_3_1_0,NA,NA,form submission,5534.235,455394.1,455386.938,455403.265,460937.5,460938,2023-03-07T10:05:06Z,460939.229,NULL,Zufall,kikuti,s,kukosekana,uchoraji,leseni,kikuti,NA,NA,1,NA,NA,NA,NA,NA,NA,NA,NA,NA,NA,NA,NA,NA,NA,NA,NA,NA,NA,NA
b8d3d,"""Richtig""-Screen",canvas.Screen,3_0_1_0_3_1_1,NA,NA,timeout,4994.77,460943.6,460922.346,460939.229,465917.592,465918.7,2023-03-07T10:05:11Z,465933.999,NULL,Zufall,kikuti,s,kukosekana,uchoraji,leseni,NA,sdfdsf,1,1,NA,NA,NA,NA,NA,NA,NA,NA,NA,NA,NA,NA,NA,NA,NA,NA,NA,NA,NA
b8d3d,"""Falsch""-Screen",canvas.Screen,3_0_1_0_3_1_2,NA,NA,skipped,NA,465923.9,NA,NA,465917.592,465924.3,2023-03-07T10:05:11Z,465933.999,NULL,Zufall,kikuti,s,kukosekana,uchoraji,leseni,NA,sdfdsf,NA,1,NA,NA,NA,NA,NA,NA,NA,NA,NA,NA,NA,NA,NA,NA,NA,NA,NA,NA,NA
b8d3d,shallow,flow.Sequence,3_0_1_0_3_1,NA,NA,completion,10514.327,455394.1,455386.938,455403.265,465917.592,465924.7,2023-03-07T10:05:11Z,465933.999,NULL,Zufall,kikuti,s,kukosekana,uchoraji,leseni,NA,sdfdsf,NA,1,NA,NA,NA,NA,NA,NA,NA,NA,NA,NA,NA,NA,NA,NA,NA,NA,NA,NA,NA
b8d3d,task,flow.Sequence,3_0_1_0_3,NA,NA,completion,10514.327,455393.8,455386.938,455403.265,465917.592,465924.9,2023-03-07T10:05:11Z,465933.999,NULL,Zufall,kikuti,s,kukosekana,uchoraji,leseni,NA,sdfdsf,NA,1,NA,NA,NA,NA,NA,NA,NA,NA,NA,NA,NA,NA,NA,NA,NA,NA,NA,NA,NA
b8d3d,deep,flow.Sequence,3_0_1_0_4_0,NA,NA,skipped,NA,465925,NA,NA,465917.592,465925.1,2023-03-07T10:05:11Z,465933.999,NULL,Schönheit,kirembo,s,mahojiano,msisimko,jitihadi,NA,sdfdsf,NA,1,NA,NA,NA,NA,NA,NA,NA,NA,NA,NA,NA,NA,NA,NA,NA,NA,NA,NA,NA
b8d3d,Shallow Question,html.Page,3_0_1_0_4_1_0,NA,NA,form submission,6527.3010000007,465925.2,465917.592,465933.999,472461.3,472462,2023-03-07T10:05:18Z,472460.015,NULL,Schönheit,kirembo,s,mahojiano,msisimko,jitihadi,kirembo,NA,NA,1,NA,NA,NA,NA,NA,NA,NA,NA,NA,NA,NA,NA,NA,NA,NA,NA,NA,NA,NA
b8d3d,"""Richtig""-Screen",canvas.Screen,3_0_1_0_4_1_1,NA,NA,timeout,4998.002,472467.1,472443.293,472460.015,477441.676,477442.8,2023-03-07T10:05:23Z,477458.017,NULL,Schönheit,kirembo,s,mahojiano,msisimko,jitihadi,NA,sdfdsf,1,1,NA,NA,NA,NA,NA,NA,NA,NA,NA,NA,NA,NA,NA,NA,NA,NA,NA,NA,NA
b8d3d,"""Falsch""-Screen",canvas.Screen,3_0_1_0_4_1_2,NA,NA,skipped,NA,477447.8,NA,NA,477441.676,477448.2,2023-03-07T10:05:23Z,477458.017,NULL,Schönheit,kirembo,s,mahojiano,msisimko,jitihadi,NA,sdfdsf,NA,1,NA,NA,NA,NA,NA,NA,NA,NA,NA,NA,NA,NA,NA,NA,NA,NA,NA,NA,NA
b8d3d,shallow,flow.Sequence,3_0_1_0_4_1,NA,NA,completion,11507.677,465925.2,465917.592,465933.999,477441.676,477448.5,2023-03-07T10:05:23Z,477458.017,NULL,Schönheit,kirembo,s,mahojiano,msisimko,jitihadi,NA,sdfdsf,NA,1,NA,NA,NA,NA,NA,NA,NA,NA,NA,NA,NA,NA,NA,NA,NA,NA,NA,NA,NA
b8d3d,task,flow.Sequence,3_0_1_0_4,NA,NA,completion,11507.677,465924.9,465917.592,465933.999,477441.676,477448.7,2023-03-07T10:05:23Z,477458.017,NULL,Schönheit,kirembo,s,mahojiano,msisimko,jitihadi,NA,sdfdsf,NA,1,NA,NA,NA,NA,NA,NA,NA,NA,NA,NA,NA,NA,NA,NA,NA,NA,NA,NA,NA
b8d3d,Deep Question,html.Page,3_0_1_0_5_0_0,NA,NA,form submission,2453.3830000004,477448.8,477441.676,477458.017,479911.4,479911.9,2023-03-07T10:05:25Z,479941.761,NULL,Wettbewerb,ushindani,d,NA,NA,NA,a,NA,NA,1,NA,NA,NA,NA,NA,NA,NA,NA,NA,NA,NA,NA,NA,NA,NA,NA,NA,NA,NA
b8d3d,"""Richtig""-Screen",canvas.Screen,3_0_1_0_5_0_1,NA,NA,skipped,NA,479913.1,NA,NA,479911.4,479913.3,2023-03-07T10:05:25Z,479941.761,NULL,Wettbewerb,ushindani,d,NA,NA,NA,NA,sdfdsf,NA,1,NA,NA,NA,NA,NA,NA,NA,NA,NA,NA,NA,NA,NA,NA,NA,NA,NA,NA,NA
b8d3d,"""Falsch""-Screen",canvas.Screen,3_0_1_0_5_0_2,NA,NA,timeout,5001.854,479914.3,479899.259,479941.761,484927.166,484928.1,2023-03-07T10:05:30Z,484943.615,NULL,Wettbewerb,ushindani,d,NA,NA,NA,NA,sdfdsf,0,1,NA,NA,NA,NA,NA,NA,NA,NA,NA,NA,NA,NA,NA,NA,NA,NA,NA,NA,NA
b8d3d,deep,flow.Sequence,3_0_1_0_5_0,NA,NA,completion,7469.149,477448.8,477441.676,477458.017,484927.166,484928.5,2023-03-07T10:05:30Z,484943.615,NULL,Wettbewerb,ushindani,d,NA,NA,NA,NA,sdfdsf,NA,1,NA,NA,NA,NA,NA,NA,NA,NA,NA,NA,NA,NA,NA,NA,NA,NA,NA,NA,NA
b8d3d,shallow,flow.Sequence,3_0_1_0_5_1,NA,NA,skipped,NA,484928.6,NA,NA,484927.166,484928.7,2023-03-07T10:05:30Z,484943.615,NULL,Wettbewerb,ushindani,d,NA,NA,NA,NA,sdfdsf,NA,1,NA,NA,NA,NA,NA,NA,NA,NA,NA,NA,NA,NA,NA,NA,NA,NA,NA,NA,NA
b8d3d,task,flow.Sequence,3_0_1_0_5,NA,NA,completion,7469.149,477448.8,477441.676,477458.017,484927.166,484928.9,2023-03-07T10:05:30Z,484943.615,NULL,Wettbewerb,ushindani,d,NA,NA,NA,NA,sdfdsf,NA,1,NA,NA,NA,NA,NA,NA,NA,NA,NA,NA,NA,NA,NA,NA,NA,NA,NA,NA,NA
b8d3d,Deep Question,html.Page,3_0_1_0_6_0_0,NA,NA,form submission,1416.885,484929,484927.166,484943.615,486360.5,486360.9,2023-03-07T10:05:31Z,486368.265,NULL,Auftrag,uagizaji,d,NA,NA,NA,a,NA,NA,1,NA,NA,NA,NA,NA,NA,NA,NA,NA,NA,NA,NA,NA,NA,NA,NA,NA,NA,NA
b8d3d,"""Richtig""-Screen",canvas.Screen,3_0_1_0_6_0_1,NA,NA,skipped,NA,486365.1,NA,NA,486360.5,486365.2,2023-03-07T10:05:31Z,486368.265,NULL,Auftrag,uagizaji,d,NA,NA,NA,NA,sdfdsf,NA,1,NA,NA,NA,NA,NA,NA,NA,NA,NA,NA,NA,NA,NA,NA,NA,NA,NA,NA,NA
b8d3d,"""Falsch""-Screen",canvas.Screen,3_0_1_0_6_0_2,NA,NA,timeout,4992.44,486366.5,486352.024,486368.265,491344.064,491345,2023-03-07T10:05:36Z,491360.705,NULL,Auftrag,uagizaji,d,NA,NA,NA,NA,sdfdsf,0,1,NA,NA,NA,NA,NA,NA,NA,NA,NA,NA,NA,NA,NA,NA,NA,NA,NA,NA,NA
b8d3d,deep,flow.Sequence,3_0_1_0_6_0,NA,NA,completion,6400.449,484929,484927.166,484943.615,491344.064,491345.4,2023-03-07T10:05:36Z,491360.705,NULL,Auftrag,uagizaji,d,NA,NA,NA,NA,sdfdsf,NA,1,NA,NA,NA,NA,NA,NA,NA,NA,NA,NA,NA,NA,NA,NA,NA,NA,NA,NA,NA
b8d3d,shallow,flow.Sequence,3_0_1_0_6_1,NA,NA,skipped,NA,491345.5,NA,NA,491344.064,491345.6,2023-03-07T10:05:36Z,491360.705,NULL,Auftrag,uagizaji,d,NA,NA,NA,NA,sdfdsf,NA,1,NA,NA,NA,NA,NA,NA,NA,NA,NA,NA,NA,NA,NA,NA,NA,NA,NA,NA,NA
b8d3d,task,flow.Sequence,3_0_1_0_6,NA,NA,completion,6400.449,484929,484927.166,484943.615,491344.064,491345.8,2023-03-07T10:05:36Z,491360.705,NULL,Auftrag,uagizaji,d,NA,NA,NA,NA,sdfdsf,NA,1,NA,NA,NA,NA,NA,NA,NA,NA,NA,NA,NA,NA,NA,NA,NA,NA,NA,NA,NA
b8d3d,Deep Question,html.Page,3_0_1_0_7_0_0,NA,NA,form submission,2139.795,491345.9,491344.064,491360.705,493500.5,493501,2023-03-07T10:05:39Z,493518.199,NULL,Hoffnung,matarajio,d,NA,NA,NA,a,NA,NA,1,NA,NA,NA,NA,NA,NA,NA,NA,NA,NA,NA,NA,NA,NA,NA,NA,NA,NA,NA
b8d3d,"""Richtig""-Screen",canvas.Screen,3_0_1_0_7_0_1,NA,NA,skipped,NA,493505.1,NA,NA,493500.5,493505.4,2023-03-07T10:05:39Z,493518.199,NULL,Hoffnung,matarajio,d,NA,NA,NA,NA,sdfdsf,NA,1,NA,NA,NA,NA,NA,NA,NA,NA,NA,NA,NA,NA,NA,NA,NA,NA,NA,NA,NA
b8d3d,"""Falsch""-Screen",canvas.Screen,3_0_1_0_7_0_2,NA,NA,timeout,4996.537,493506.5,493485.095,493518.199,498498.03,498499,2023-03-07T10:05:44Z,498514.736,NULL,Hoffnung,matarajio,d,NA,NA,NA,NA,sdfdsf,0,1,NA,NA,NA,NA,NA,NA,NA,NA,NA,NA,NA,NA,NA,NA,NA,NA,NA,NA,NA
b8d3d,deep,flow.Sequence,3_0_1_0_7_0,NA,NA,completion,7137.325,491345.9,491344.064,491360.705,498498.03,498499.4,2023-03-07T10:05:44Z,498514.736,NULL,Hoffnung,matarajio,d,NA,NA,NA,NA,sdfdsf,NA,1,NA,NA,NA,NA,NA,NA,NA,NA,NA,NA,NA,NA,NA,NA,NA,NA,NA,NA,NA
b8d3d,shallow,flow.Sequence,3_0_1_0_7_1,NA,NA,skipped,NA,498499.4,NA,NA,498498.03,498499.6,2023-03-07T10:05:44Z,498514.736,NULL,Hoffnung,matarajio,d,NA,NA,NA,NA,sdfdsf,NA,1,NA,NA,NA,NA,NA,NA,NA,NA,NA,NA,NA,NA,NA,NA,NA,NA,NA,NA,NA
b8d3d,task,flow.Sequence,3_0_1_0_7,NA,NA,completion,7137.325,491345.9,491344.064,491360.705,498498.03,498499.7,2023-03-07T10:05:44Z,498514.736,NULL,Hoffnung,matarajio,d,NA,NA,NA,NA,sdfdsf,NA,1,NA,NA,NA,NA,NA,NA,NA,NA,NA,NA,NA,NA,NA,NA,NA,NA,NA,NA,NA
b8d3d,block,flow.Loop,3_0_1_0,NA,NA,completion,76431.483,422045.8,422044.574,422066.547,498498.03,498499.9,2023-03-07T10:05:44Z,498514.736,NULL,NA,NA,NA,NA,NA,NA,NA,sdfdsf,NA,1,NA,NA,NA,NA,NA,NA,NA,NA,NA,NA,NA,NA,NA,NA,NA,NA,NA,NA,NA
b8d3d,weiter,canvas.Screen,3_0_1_1,sdf,keypress(Space),response,1064.764,498500,498498.03,498514.736,499579.5,499584.3,2023-03-07T10:05:45Z,499691.384,NULL,NA,NA,NA,NA,NA,NA,NA,sdfdsf,NA,1,NA,NA,NA,NA,NA,NA,NA,NA,NA,NA,NA,NA,NA,NA,NA,NA,NA,NA,NA
b8d3d,check continue,flow.Sequence,3_0_1,NA,NA,completion,77512.953,422045.7,422044.574,422066.547,499579.5,499584.4,2023-03-07T10:05:45Z,499691.384,NULL,NA,NA,NA,NA,NA,NA,NA,sdfdsf,NA,1,NA,NA,NA,NA,NA,NA,NA,NA,NA,NA,NA,NA,NA,NA,NA,NA,NA,NA,NA
b8d3d,Deep Question,html.Page,3_0_2_0_0_0_0,NA,NA,form submission,3909.7159999996,499650.3,499646.185,499691.384,503601.1,503601.7,2023-03-07T10:05:49Z,503601.307,NULL,Wettbewerb,ushindani,d,NA,NA,NA,uzungi,NA,NA,2,NA,NA,NA,NA,NA,NA,NA,NA,NA,NA,NA,NA,NA,NA,NA,NA,NA,NA,NA
b8d3d,"""Richtig""-Screen",canvas.Screen,3_0_2_0_0_0_1,NA,NA,skipped,NA,503605.7,NA,NA,503601.1,503605.9,2023-03-07T10:05:49Z,503601.307,NULL,Wettbewerb,ushindani,d,NA,NA,NA,NA,sdf,NA,2,NA,NA,NA,NA,NA,NA,NA,NA,NA,NA,NA,NA,NA,NA,NA,NA,NA,NA,NA
b8d3d,"""Falsch""-Screen",canvas.Screen,3_0_2_0_0_0_2,NA,NA,timeout,5002.22,503607,503596.544,503601.307,508586.716,508587.7,2023-03-07T10:05:54Z,508603.527,NULL,Wettbewerb,ushindani,d,NA,NA,NA,NA,sdf,0,2,NA,NA,NA,NA,NA,NA,NA,NA,NA,NA,NA,NA,NA,NA,NA,NA,NA,NA,NA
b8d3d,deep,flow.Sequence,3_0_2_0_0_0,NA,NA,completion,8895.332,499650.3,499646.185,499691.384,508586.716,508587.9,2023-03-07T10:05:54Z,508603.527,NULL,Wettbewerb,ushindani,d,NA,NA,NA,NA,sdf,NA,2,NA,NA,NA,NA,NA,NA,NA,NA,NA,NA,NA,NA,NA,NA,NA,NA,NA,NA,NA
b8d3d,shallow,flow.Sequence,3_0_2_0_0_1,NA,NA,skipped,NA,508588.1,NA,NA,508586.716,508588.2,2023-03-07T10:05:54Z,508603.527,NULL,Wettbewerb,ushindani,d,NA,NA,NA,NA,sdf,NA,2,NA,NA,NA,NA,NA,NA,NA,NA,NA,NA,NA,NA,NA,NA,NA,NA,NA,NA,NA
b8d3d,task,flow.Sequence,3_0_2_0_0,NA,NA,completion,8895.332,499650.2,499646.185,499691.384,508586.716,508588.3,2023-03-07T10:05:54Z,508603.527,NULL,Wettbewerb,ushindani,d,NA,NA,NA,NA,sdf,NA,2,NA,NA,NA,NA,NA,NA,NA,NA,NA,NA,NA,NA,NA,NA,NA,NA,NA,NA,NA
b8d3d,deep,flow.Sequence,3_0_2_0_1_0,NA,NA,skipped,NA,508588.5,NA,NA,508586.716,508588.6,2023-03-07T10:05:54Z,508603.527,NULL,Schock,mshtuko,s,biashara,kukataza,vichekesho,NA,sdf,NA,2,NA,NA,NA,NA,NA,NA,NA,NA,NA,NA,NA,NA,NA,NA,NA,NA,NA,NA,NA
b8d3d,Shallow Question,html.Page,3_0_2_0_1_1_0,NA,NA,form submission,3761.5729999996,508588.7,508586.716,508603.527,512365.1,512365.6,2023-03-07T10:05:57Z,512370.009,NULL,Schock,mshtuko,s,biashara,kukataza,vichekesho,mshtuko,NA,NA,2,NA,NA,NA,NA,NA,NA,NA,NA,NA,NA,NA,NA,NA,NA,NA,NA,NA,NA,NA
b8d3d,"""Richtig""-Screen",canvas.Screen,3_0_2_0_1_1_1,NA,NA,timeout,4997.881,512371,512353.624,512370.009,517351.431,517352.4,2023-03-07T10:06:02Z,517367.89,NULL,Schock,mshtuko,s,biashara,kukataza,vichekesho,NA,sdf,1,2,NA,NA,NA,NA,NA,NA,NA,NA,NA,NA,NA,NA,NA,NA,NA,NA,NA,NA,NA
b8d3d,"""Falsch""-Screen",canvas.Screen,3_0_2_0_1_1_2,NA,NA,skipped,NA,517357.6,NA,NA,517351.431,517357.9,2023-03-07T10:06:02Z,517367.89,NULL,Schock,mshtuko,s,biashara,kukataza,vichekesho,NA,sdf,NA,2,NA,NA,NA,NA,NA,NA,NA,NA,NA,NA,NA,NA,NA,NA,NA,NA,NA,NA,NA
b8d3d,shallow,flow.Sequence,3_0_2_0_1_1,NA,NA,completion,8747.904,508588.7,508586.716,508603.527,517351.431,517358.2,2023-03-07T10:06:02Z,517367.89,NULL,Schock,mshtuko,s,biashara,kukataza,vichekesho,NA,sdf,NA,2,NA,NA,NA,NA,NA,NA,NA,NA,NA,NA,NA,NA,NA,NA,NA,NA,NA,NA,NA
b8d3d,task,flow.Sequence,3_0_2_0_1,NA,NA,completion,8747.904,508588.5,508586.716,508603.527,517351.431,517358.4,2023-03-07T10:06:02Z,517367.89,NULL,Schock,mshtuko,s,biashara,kukataza,vichekesho,NA,sdf,NA,2,NA,NA,NA,NA,NA,NA,NA,NA,NA,NA,NA,NA,NA,NA,NA,NA,NA,NA,NA
b8d3d,Deep Question,html.Page,3_0_2_0_2_0_0,NA,NA,form submission,3593.3100000011,517358.8,517351.431,517367.89,520961.2,520961.7,2023-03-07T10:06:06Z,520979.242,NULL,Hoffnung,matarajio,d,NA,NA,NA,kirembo,NA,NA,2,NA,NA,NA,NA,NA,NA,NA,NA,NA,NA,NA,NA,NA,NA,NA,NA,NA,NA,NA
b8d3d,"""Richtig""-Screen",canvas.Screen,3_0_2_0_2_0_1,NA,NA,skipped,NA,520965.8,NA,NA,520961.2,520966,2023-03-07T10:06:06Z,520979.242,NULL,Hoffnung,matarajio,d,NA,NA,NA,NA,sdf,NA,2,NA,NA,NA,NA,NA,NA,NA,NA,NA,NA,NA,NA,NA,NA,NA,NA,NA,NA,NA
b8d3d,"""Falsch""-Screen",canvas.Screen,3_0_2_0_2_0_2,NA,NA,timeout,4997.373,520967.1,520945.649,520979.242,525959.98,525961,2023-03-07T10:06:11Z,525976.615,NULL,Hoffnung,matarajio,d,NA,NA,NA,NA,sdf,0,2,NA,NA,NA,NA,NA,NA,NA,NA,NA,NA,NA,NA,NA,NA,NA,NA,NA,NA,NA
b8d3d,deep,flow.Sequence,3_0_2_0_2_0,NA,NA,completion,8592.09,517358.7,517351.431,517367.89,525959.98,525961.3,2023-03-07T10:06:11Z,525976.615,NULL,Hoffnung,matarajio,d,NA,NA,NA,NA,sdf,NA,2,NA,NA,NA,NA,NA,NA,NA,NA,NA,NA,NA,NA,NA,NA,NA,NA,NA,NA,NA
b8d3d,shallow,flow.Sequence,3_0_2_0_2_1,NA,NA,skipped,NA,525961.4,NA,NA,525959.98,525961.7,2023-03-07T10:06:11Z,525976.615,NULL,Hoffnung,matarajio,d,NA,NA,NA,NA,sdf,NA,2,NA,NA,NA,NA,NA,NA,NA,NA,NA,NA,NA,NA,NA,NA,NA,NA,NA,NA,NA
b8d3d,task,flow.Sequence,3_0_2_0_2,NA,NA,completion,8592.09,517358.6,517351.431,517367.89,525959.98,525962,2023-03-07T10:06:11Z,525976.615,NULL,Hoffnung,matarajio,d,NA,NA,NA,NA,sdf,NA,2,NA,NA,NA,NA,NA,NA,NA,NA,NA,NA,NA,NA,NA,NA,NA,NA,NA,NA,NA
b8d3d,Deep Question,html.Page,3_0_2_0_3_0_0,NA,NA,form submission,6784.9849999996,525962.1,525959.98,525976.615,532761.6,532762.1,2023-03-07T10:06:18Z,532769.834,NULL,Auftrag,uagizaji,d,NA,NA,NA,uzungaji,NA,NA,2,NA,NA,NA,NA,NA,NA,NA,NA,NA,NA,NA,NA,NA,NA,NA,NA,NA,NA,NA
b8d3d,"""Richtig""-Screen",canvas.Screen,3_0_2_0_3_0_1,NA,NA,skipped,NA,532766.1,NA,NA,532761.6,532766.2,2023-03-07T10:06:18Z,532769.834,NULL,Auftrag,uagizaji,d,NA,NA,NA,NA,sdf,NA,2,NA,NA,NA,NA,NA,NA,NA,NA,NA,NA,NA,NA,NA,NA,NA,NA,NA,NA,NA
b8d3d,"""Falsch""-Screen",canvas.Screen,3_0_2_0_3_0_2,NA,NA,timeout,4995.762,532766.7,532752.737,532769.834,537748.97,537750.2,2023-03-07T10:06:23Z,537765.596,NULL,Auftrag,uagizaji,d,NA,NA,NA,NA,sdf,0,2,NA,NA,NA,NA,NA,NA,NA,NA,NA,NA,NA,NA,NA,NA,NA,NA,NA,NA,NA
b8d3d,deep,flow.Sequence,3_0_2_0_3_0,NA,NA,completion,11772.355,525962.1,525959.98,525976.615,537748.97,537750.6,2023-03-07T10:06:23Z,537765.596,NULL,Auftrag,uagizaji,d,NA,NA,NA,NA,sdf,NA,2,NA,NA,NA,NA,NA,NA,NA,NA,NA,NA,NA,NA,NA,NA,NA,NA,NA,NA,NA
b8d3d,shallow,flow.Sequence,3_0_2_0_3_1,NA,NA,skipped,NA,537750.7,NA,NA,537748.97,537750.9,2023-03-07T10:06:23Z,537765.596,NULL,Auftrag,uagizaji,d,NA,NA,NA,NA,sdf,NA,2,NA,NA,NA,NA,NA,NA,NA,NA,NA,NA,NA,NA,NA,NA,NA,NA,NA,NA,NA
b8d3d,task,flow.Sequence,3_0_2_0_3,NA,NA,completion,11772.355,525962.1,525959.98,525976.615,537748.97,537751,2023-03-07T10:06:23Z,537765.596,NULL,Auftrag,uagizaji,d,NA,NA,NA,NA,sdf,NA,2,NA,NA,NA,NA,NA,NA,NA,NA,NA,NA,NA,NA,NA,NA,NA,NA,NA,NA,NA
b8d3d,deep,flow.Sequence,3_0_2_0_4_0,NA,NA,skipped,NA,537751.2,NA,NA,537748.97,537751.5,2023-03-07T10:06:23Z,537765.596,NULL,Theorie,nadharia,s,ushungi,mkutano,uwakilishi,NA,sdf,NA,2,NA,NA,NA,NA,NA,NA,NA,NA,NA,NA,NA,NA,NA,NA,NA,NA,NA,NA,NA
b8d3d,Shallow Question,html.Page,3_0_2_0_4_1_0,NA,NA,form submission,4255.5039999996,537751.5,537748.97,537765.596,542021.1,542021.5,2023-03-07T10:06:27Z,542023.855,NULL,Theorie,nadharia,s,ushungi,mkutano,uwakilishi,nadharia,NA,NA,2,NA,NA,NA,NA,NA,NA,NA,NA,NA,NA,NA,NA,NA,NA,NA,NA,NA,NA,NA
b8d3d,"""Richtig""-Screen",canvas.Screen,3_0_2_0_4_1_1,NA,NA,timeout,5003.057,542026.8,542007.341,542023.855,547010.271,547014.9,2023-03-07T10:06:32Z,547026.912,NULL,Theorie,nadharia,s,ushungi,mkutano,uwakilishi,NA,sdf,1,2,NA,NA,NA,NA,NA,NA,NA,NA,NA,NA,NA,NA,NA,NA,NA,NA,NA,NA,NA
b8d3d,"""Falsch""-Screen",canvas.Screen,3_0_2_0_4_1_2,NA,NA,skipped,NA,547019.6,NA,NA,547010.271,547019.9,2023-03-07T10:06:32Z,547026.912,NULL,Theorie,nadharia,s,ushungi,mkutano,uwakilishi,NA,sdf,NA,2,NA,NA,NA,NA,NA,NA,NA,NA,NA,NA,NA,NA,NA,NA,NA,NA,NA,NA,NA
b8d3d,shallow,flow.Sequence,3_0_2_0_4_1,NA,NA,completion,9244.6749999999,537751.5,537748.97,537765.596,547010.271,547020.1,2023-03-07T10:06:32Z,547026.912,NULL,Theorie,nadharia,s,ushungi,mkutano,uwakilishi,NA,sdf,NA,2,NA,NA,NA,NA,NA,NA,NA,NA,NA,NA,NA,NA,NA,NA,NA,NA,NA,NA,NA
b8d3d,task,flow.Sequence,3_0_2_0_4,NA,NA,completion,9244.6749999999,537751.2,537748.97,537765.596,547010.271,547020.3,2023-03-07T10:06:32Z,547026.912,NULL,Theorie,nadharia,s,ushungi,mkutano,uwakilishi,NA,sdf,NA,2,NA,NA,NA,NA,NA,NA,NA,NA,NA,NA,NA,NA,NA,NA,NA,NA,NA,NA,NA
b8d3d,Deep Question,html.Page,3_0_2_0_5_0_0,NA,NA,form submission,2464.6879999996,547020.4,547010.271,547026.912,549491.6,549492.1,2023-03-07T10:06:35Z,549509.972,NULL,Verpackung,ufungaji,d,NA,NA,NA,p,NA,NA,2,NA,NA,NA,NA,NA,NA,NA,NA,NA,NA,NA,NA,NA,NA,NA,NA,NA,NA,NA
b8d3d,"""Richtig""-Screen",canvas.Screen,3_0_2_0_5_0_1,NA,NA,skipped,NA,549493.7,NA,NA,549491.6,549494,2023-03-07T10:06:35Z,549509.972,NULL,Verpackung,ufungaji,d,NA,NA,NA,NA,sdf,NA,2,NA,NA,NA,NA,NA,NA,NA,NA,NA,NA,NA,NA,NA,NA,NA,NA,NA,NA,NA
b8d3d,"""Falsch""-Screen",canvas.Screen,3_0_2_0_5_0_2,NA,NA,timeout,4996.7830000001,549495.1,549476.055,549509.972,554490.543,554491.5,2023-03-07T10:06:40Z,554506.755,NULL,Verpackung,ufungaji,d,NA,NA,NA,NA,sdf,0,2,NA,NA,NA,NA,NA,NA,NA,NA,NA,NA,NA,NA,NA,NA,NA,NA,NA,NA,NA
b8d3d,deep,flow.Sequence,3_0_2_0_5_0,NA,NA,completion,7463.6309999999,547020.4,547010.271,547026.912,554490.543,554492.1,2023-03-07T10:06:40Z,554506.755,NULL,Verpackung,ufungaji,d,NA,NA,NA,NA,sdf,NA,2,NA,NA,NA,NA,NA,NA,NA,NA,NA,NA,NA,NA,NA,NA,NA,NA,NA,NA,NA
b8d3d,shallow,flow.Sequence,3_0_2_0_5_1,NA,NA,skipped,NA,554492.3,NA,NA,554490.543,554492.4,2023-03-07T10:06:40Z,554506.755,NULL,Verpackung,ufungaji,d,NA,NA,NA,NA,sdf,NA,2,NA,NA,NA,NA,NA,NA,NA,NA,NA,NA,NA,NA,NA,NA,NA,NA,NA,NA,NA
b8d3d,task,flow.Sequence,3_0_2_0_5,NA,NA,completion,7463.6309999999,547020.4,547010.271,547026.912,554490.543,554492.6,2023-03-07T10:06:40Z,554506.755,NULL,Verpackung,ufungaji,d,NA,NA,NA,NA,sdf,NA,2,NA,NA,NA,NA,NA,NA,NA,NA,NA,NA,NA,NA,NA,NA,NA,NA,NA,NA,NA
b8d3d,deep,flow.Sequence,3_0_2_0_6_0,NA,NA,skipped,NA,554492.8,NA,NA,554490.543,554492.8,2023-03-07T10:06:40Z,554506.755,NULL,Zufall,kikuti,s,kukosekana,uchoraji,leseni,NA,sdf,NA,2,NA,NA,NA,NA,NA,NA,NA,NA,NA,NA,NA,NA,NA,NA,NA,NA,NA,NA,NA
b8d3d,Shallow Question,html.Page,3_0_2_0_6_1_0,NA,NA,form submission,5221.8449999996,554493,554490.543,554506.755,559728.6,559729.2,2023-03-07T10:06:45Z,559735.699,NULL,Zufall,kikuti,s,kukosekana,uchoraji,leseni,kikuti,NA,NA,2,NA,NA,NA,NA,NA,NA,NA,NA,NA,NA,NA,NA,NA,NA,NA,NA,NA,NA,NA
b8d3d,"""Richtig""-Screen",canvas.Screen,3_0_2_0_6_1_1,NA,NA,timeout,5005.634,559734.8,559718.975,559735.699,564724.996,564726,2023-03-07T10:06:50Z,564741.333,NULL,Zufall,kikuti,s,kukosekana,uchoraji,leseni,NA,sdf,1,2,NA,NA,NA,NA,NA,NA,NA,NA,NA,NA,NA,NA,NA,NA,NA,NA,NA,NA,NA
b8d3d,"""Falsch""-Screen",canvas.Screen,3_0_2_0_6_1_2,NA,NA,skipped,NA,564731.4,NA,NA,564724.996,564731.8,2023-03-07T10:06:50Z,564741.333,NULL,Zufall,kikuti,s,kukosekana,uchoraji,leseni,NA,sdf,NA,2,NA,NA,NA,NA,NA,NA,NA,NA,NA,NA,NA,NA,NA,NA,NA,NA,NA,NA,NA
b8d3d,shallow,flow.Sequence,3_0_2_0_6_1,NA,NA,completion,10218.241,554492.9,554490.543,554506.755,564724.996,564732.2,2023-03-07T10:06:50Z,564741.333,NULL,Zufall,kikuti,s,kukosekana,uchoraji,leseni,NA,sdf,NA,2,NA,NA,NA,NA,NA,NA,NA,NA,NA,NA,NA,NA,NA,NA,NA,NA,NA,NA,NA
b8d3d,task,flow.Sequence,3_0_2_0_6,NA,NA,completion,10218.241,554492.6,554490.543,554506.755,564724.996,564732.3,2023-03-07T10:06:50Z,564741.333,NULL,Zufall,kikuti,s,kukosekana,uchoraji,leseni,NA,sdf,NA,2,NA,NA,NA,NA,NA,NA,NA,NA,NA,NA,NA,NA,NA,NA,NA,NA,NA,NA,NA
b8d3d,deep,flow.Sequence,3_0_2_0_7_0,NA,NA,skipped,NA,564732.4,NA,NA,564724.996,564732.6,2023-03-07T10:06:50Z,564741.333,NULL,Schönheit,kirembo,s,mahojiano,msisimko,jitihadi,NA,sdf,NA,2,NA,NA,NA,NA,NA,NA,NA,NA,NA,NA,NA,NA,NA,NA,NA,NA,NA,NA,NA
b8d3d,Shallow Question,html.Page,3_0_2_0_7_1_0,NA,NA,form submission,5881.2669999996,564732.6,564724.996,564741.333,570622.6,570623.2,2023-03-07T10:06:56Z,570637.45,NULL,Schönheit,kirembo,s,mahojiano,msisimko,jitihadi,kirembo,NA,NA,2,NA,NA,NA,NA,NA,NA,NA,NA,NA,NA,NA,NA,NA,NA,NA,NA,NA,NA,NA
b8d3d,"""Richtig""-Screen",canvas.Screen,3_0_2_0_7_1_1,NA,NA,timeout,5000.1780000001,570628,570604.489,570637.45,575621.455,575622.4,2023-03-07T10:07:01Z,575637.628,NULL,Schönheit,kirembo,s,mahojiano,msisimko,jitihadi,NA,sdf,1,2,NA,NA,NA,NA,NA,NA,NA,NA,NA,NA,NA,NA,NA,NA,NA,NA,NA,NA,NA
b8d3d,"""Falsch""-Screen",canvas.Screen,3_0_2_0_7_1_2,NA,NA,skipped,NA,575627.4,NA,NA,575621.455,575627.8,2023-03-07T10:07:01Z,575637.628,NULL,Schönheit,kirembo,s,mahojiano,msisimko,jitihadi,NA,sdf,NA,2,NA,NA,NA,NA,NA,NA,NA,NA,NA,NA,NA,NA,NA,NA,NA,NA,NA,NA,NA
b8d3d,shallow,flow.Sequence,3_0_2_0_7_1,NA,NA,completion,10880.122,564732.6,564724.996,564741.333,575621.455,575628.1,2023-03-07T10:07:01Z,575637.628,NULL,Schönheit,kirembo,s,mahojiano,msisimko,jitihadi,NA,sdf,NA,2,NA,NA,NA,NA,NA,NA,NA,NA,NA,NA,NA,NA,NA,NA,NA,NA,NA,NA,NA
b8d3d,task,flow.Sequence,3_0_2_0_7,NA,NA,completion,10880.122,564732.4,564724.996,564741.333,575621.455,575628.3,2023-03-07T10:07:01Z,575637.628,NULL,Schönheit,kirembo,s,mahojiano,msisimko,jitihadi,NA,sdf,NA,2,NA,NA,NA,NA,NA,NA,NA,NA,NA,NA,NA,NA,NA,NA,NA,NA,NA,NA,NA
b8d3d,block,flow.Loop,3_0_2_0,NA,NA,completion,75930.071,499650.2,499646.185,499691.384,575621.455,575628.4,2023-03-07T10:07:01Z,575637.628,NULL,NA,NA,NA,NA,NA,NA,NA,sdf,NA,2,NA,NA,NA,NA,NA,NA,NA,NA,NA,NA,NA,NA,NA,NA,NA,NA,NA,NA,NA
b8d3d,weiter,canvas.Screen,3_0_2_1,sdf,keypress(Space),response,1402.4719999996,575628.5,575621.455,575637.628,577040.1,577042.3,2023-03-07T10:07:02Z,577110.776,NULL,NA,NA,NA,NA,NA,NA,NA,sdf,NA,2,NA,NA,NA,NA,NA,NA,NA,NA,NA,NA,NA,NA,NA,NA,NA,NA,NA,NA,NA
b8d3d,check continue,flow.Sequence,3_0_2,NA,NA,completion,77348.716,499650.1,499646.185,499691.384,577040.1,577042.7,2023-03-07T10:07:02Z,577110.776,NULL,NA,NA,NA,NA,NA,NA,NA,sdf,NA,2,NA,NA,NA,NA,NA,NA,NA,NA,NA,NA,NA,NA,NA,NA,NA,NA,NA,NA,NA
b8d3d,deep,flow.Sequence,3_0_3_0_0_0,NA,NA,skipped,NA,577120.6,NA,NA,577040.1,577120.8,2023-03-07T10:07:02Z,577110.776,NULL,Theorie,nadharia,s,ushungi,mkutano,uwakilishi,NA,qt,NA,3,NA,NA,NA,NA,NA,NA,NA,NA,NA,NA,NA,NA,NA,NA,NA,NA,NA,NA,NA
b8d3d,Shallow Question,html.Page,3_0_3_0_0_1_0,NA,NA,form submission,3662.1240000004,577120.9,577039.899,577110.776,580772.9,580773.2,2023-03-07T10:07:06Z,580781.81,NULL,Theorie,nadharia,s,ushungi,mkutano,uwakilishi,nadharia,NA,NA,3,NA,NA,NA,NA,NA,NA,NA,NA,NA,NA,NA,NA,NA,NA,NA,NA,NA,NA,NA
b8d3d,"""Richtig""-Screen",canvas.Screen,3_0_3_0_0_1_1,NA,NA,timeout,4996.4909999999,580779.3,580764.116,580781.81,585761.956,585762.9,2023-03-07T10:07:11Z,585778.301,NULL,Theorie,nadharia,s,ushungi,mkutano,uwakilishi,NA,qt,1,3,NA,NA,NA,NA,NA,NA,NA,NA,NA,NA,NA,NA,NA,NA,NA,NA,NA,NA,NA
b8d3d,"""Falsch""-Screen",canvas.Screen,3_0_3_0_0_1_2,NA,NA,skipped,NA,585768.1,NA,NA,585761.956,585768.5,2023-03-07T10:07:11Z,585778.301,NULL,Theorie,nadharia,s,ushungi,mkutano,uwakilishi,NA,qt,NA,3,NA,NA,NA,NA,NA,NA,NA,NA,NA,NA,NA,NA,NA,NA,NA,NA,NA,NA,NA
b8d3d,shallow,flow.Sequence,3_0_3_0_0_1,NA,NA,completion,8651.1800000001,577120.9,577039.899,577110.776,585761.956,585768.8,2023-03-07T10:07:11Z,585778.301,NULL,Theorie,nadharia,s,ushungi,mkutano,uwakilishi,NA,qt,NA,3,NA,NA,NA,NA,NA,NA,NA,NA,NA,NA,NA,NA,NA,NA,NA,NA,NA,NA,NA
b8d3d,task,flow.Sequence,3_0_3_0_0,NA,NA,completion,8651.1800000001,577120.5,577039.899,577110.776,585761.956,585768.9,2023-03-07T10:07:11Z,585778.301,NULL,Theorie,nadharia,s,ushungi,mkutano,uwakilishi,NA,qt,NA,3,NA,NA,NA,NA,NA,NA,NA,NA,NA,NA,NA,NA,NA,NA,NA,NA,NA,NA,NA
b8d3d,Deep Question,html.Page,3_0_3_0_1_0_0,NA,NA,form submission,4854.5990000004,585769.1,585761.956,585778.301,590632.9,590633.3,2023-03-07T10:07:16Z,590633.51,NULL,Auftrag,uagizaji,d,NA,NA,NA,uzungaji,NA,NA,3,NA,NA,NA,NA,NA,NA,NA,NA,NA,NA,NA,NA,NA,NA,NA,NA,NA,NA,NA
b8d3d,"""Richtig""-Screen",canvas.Screen,3_0_3_0_1_0_1,NA,NA,skipped,NA,590637.4,NA,NA,590632.9,590637.6,2023-03-07T10:07:16Z,590633.51,NULL,Auftrag,uagizaji,d,NA,NA,NA,NA,qt,NA,3,NA,NA,NA,NA,NA,NA,NA,NA,NA,NA,NA,NA,NA,NA,NA,NA,NA,NA,NA
b8d3d,"""Falsch""-Screen",canvas.Screen,3_0_3_0_1_0_2,NA,NA,timeout,5000.942,590638.7,590631.067,590633.51,595617.781,595618.8,2023-03-07T10:07:21Z,595634.452,NULL,Auftrag,uagizaji,d,NA,NA,NA,NA,qt,0,3,NA,NA,NA,NA,NA,NA,NA,NA,NA,NA,NA,NA,NA,NA,NA,NA,NA,NA,NA
b8d3d,deep,flow.Sequence,3_0_3_0_1_0,NA,NA,completion,9839.48,585769.1,585761.956,585778.301,595617.781,595619.2,2023-03-07T10:07:21Z,595634.452,NULL,Auftrag,uagizaji,d,NA,NA,NA,NA,qt,NA,3,NA,NA,NA,NA,NA,NA,NA,NA,NA,NA,NA,NA,NA,NA,NA,NA,NA,NA,NA
b8d3d,shallow,flow.Sequence,3_0_3_0_1_1,NA,NA,skipped,NA,595619.3,NA,NA,595617.781,595619.4,2023-03-07T10:07:21Z,595634.452,NULL,Auftrag,uagizaji,d,NA,NA,NA,NA,qt,NA,3,NA,NA,NA,NA,NA,NA,NA,NA,NA,NA,NA,NA,NA,NA,NA,NA,NA,NA,NA
b8d3d,task,flow.Sequence,3_0_3_0_1,NA,NA,completion,9839.48,585769.1,585761.956,585778.301,595617.781,595619.6,2023-03-07T10:07:21Z,595634.452,NULL,Auftrag,uagizaji,d,NA,NA,NA,NA,qt,NA,3,NA,NA,NA,NA,NA,NA,NA,NA,NA,NA,NA,NA,NA,NA,NA,NA,NA,NA,NA
b8d3d,deep,flow.Sequence,3_0_3_0_2_0,NA,NA,skipped,NA,595619.7,NA,NA,595617.781,595619.8,2023-03-07T10:07:21Z,595634.452,NULL,Schock,mshtuko,s,biashara,kukataza,vichekesho,NA,qt,NA,3,NA,NA,NA,NA,NA,NA,NA,NA,NA,NA,NA,NA,NA,NA,NA,NA,NA,NA,NA
b8d3d,Shallow Question,html.Page,3_0_3_0_2_1_0,NA,NA,form submission,4295.6479999996,595620.1,595617.781,595634.452,599930.1,599930.8,2023-03-07T10:07:25Z,599944.321,NULL,Schock,mshtuko,s,biashara,kukataza,vichekesho,mshtuko,NA,NA,3,NA,NA,NA,NA,NA,NA,NA,NA,NA,NA,NA,NA,NA,NA,NA,NA,NA,NA,NA
b8d3d,"""Richtig""-Screen",canvas.Screen,3_0_3_0_2_1_1,NA,NA,timeout,4993.961,599936.7,599927.222,599944.321,604921.647,604922.7,2023-03-07T10:07:30Z,604938.282,NULL,Schock,mshtuko,s,biashara,kukataza,vichekesho,NA,qt,1,3,NA,NA,NA,NA,NA,NA,NA,NA,NA,NA,NA,NA,NA,NA,NA,NA,NA,NA,NA
b8d3d,"""Falsch""-Screen",canvas.Screen,3_0_3_0_2_1_2,NA,NA,skipped,NA,604927.8,NA,NA,604921.647,604928.2,2023-03-07T10:07:30Z,604938.282,NULL,Schock,mshtuko,s,biashara,kukataza,vichekesho,NA,qt,NA,3,NA,NA,NA,NA,NA,NA,NA,NA,NA,NA,NA,NA,NA,NA,NA,NA,NA,NA,NA
b8d3d,shallow,flow.Sequence,3_0_3_0_2_1,NA,NA,completion,9287.1949999999,595620,595617.781,595634.452,604921.647,604928.5,2023-03-07T10:07:30Z,604938.282,NULL,Schock,mshtuko,s,biashara,kukataza,vichekesho,NA,qt,NA,3,NA,NA,NA,NA,NA,NA,NA,NA,NA,NA,NA,NA,NA,NA,NA,NA,NA,NA,NA
b8d3d,task,flow.Sequence,3_0_3_0_2,NA,NA,completion,9287.1949999999,595619.6,595617.781,595634.452,604921.647,604928.6,2023-03-07T10:07:30Z,604938.282,NULL,Schock,mshtuko,s,biashara,kukataza,vichekesho,NA,qt,NA,3,NA,NA,NA,NA,NA,NA,NA,NA,NA,NA,NA,NA,NA,NA,NA,NA,NA,NA,NA
b8d3d,Deep Question,html.Page,3_0_3_0_3_0_0,NA,NA,form submission,4653.8179999996,604928.8,604921.647,604938.282,609592.1,609592.5,2023-03-07T10:07:35Z,609622.372,NULL,Wettbewerb,ushindani,d,NA,NA,NA,uzungaji,NA,NA,3,NA,NA,NA,NA,NA,NA,NA,NA,NA,NA,NA,NA,NA,NA,NA,NA,NA,NA,NA
b8d3d,"""Richtig""-Screen",canvas.Screen,3_0_3_0_3_0_1,NA,NA,skipped,NA,609596.2,NA,NA,609592.1,609596.5,2023-03-07T10:07:35Z,609622.372,NULL,Wettbewerb,ushindani,d,NA,NA,NA,NA,qt,NA,3,NA,NA,NA,NA,NA,NA,NA,NA,NA,NA,NA,NA,NA,NA,NA,NA,NA,NA,NA
b8d3d,"""Falsch""-Screen",canvas.Screen,3_0_3_0_3_0_2,NA,NA,timeout,5000.2860000001,609597.6,609580.915,609622.372,614606.372,614607.2,2023-03-07T10:07:40Z,614622.658,NULL,Wettbewerb,ushindani,d,NA,NA,NA,NA,qt,0,3,NA,NA,NA,NA,NA,NA,NA,NA,NA,NA,NA,NA,NA,NA,NA,NA,NA,NA,NA
b8d3d,deep,flow.Sequence,3_0_3_0_3_0,NA,NA,completion,9668.09,604928.8,604921.647,604938.282,614606.372,614607.5,2023-03-07T10:07:40Z,614622.658,NULL,Wettbewerb,ushindani,d,NA,NA,NA,NA,qt,NA,3,NA,NA,NA,NA,NA,NA,NA,NA,NA,NA,NA,NA,NA,NA,NA,NA,NA,NA,NA
b8d3d,shallow,flow.Sequence,3_0_3_0_3_1,NA,NA,skipped,NA,614607.7,NA,NA,614606.372,614607.8,2023-03-07T10:07:40Z,614622.658,NULL,Wettbewerb,ushindani,d,NA,NA,NA,NA,qt,NA,3,NA,NA,NA,NA,NA,NA,NA,NA,NA,NA,NA,NA,NA,NA,NA,NA,NA,NA,NA
b8d3d,task,flow.Sequence,3_0_3_0_3,NA,NA,completion,9668.09,604928.8,604921.647,604938.282,614606.372,614608,2023-03-07T10:07:40Z,614622.658,NULL,Wettbewerb,ushindani,d,NA,NA,NA,NA,qt,NA,3,NA,NA,NA,NA,NA,NA,NA,NA,NA,NA,NA,NA,NA,NA,NA,NA,NA,NA,NA
b8d3d,Deep Question,html.Page,3_0_3_0_4_0_0,NA,NA,form submission,6509.5420000011,614608.2,614606.372,614622.658,621132.2,621132.6,2023-03-07T10:07:46Z,621132.261,NULL,Hoffnung,matarajio,d,NA,NA,NA,kirimbo,NA,NA,3,NA,NA,NA,NA,NA,NA,NA,NA,NA,NA,NA,NA,NA,NA,NA,NA,NA,NA,NA
b8d3d,"""Richtig""-Screen",canvas.Screen,3_0_3_0_4_0_1,NA,NA,skipped,NA,621136.6,NA,NA,621132.2,621136.7,2023-03-07T10:07:46Z,621132.261,NULL,Hoffnung,matarajio,d,NA,NA,NA,NA,qt,NA,3,NA,NA,NA,NA,NA,NA,NA,NA,NA,NA,NA,NA,NA,NA,NA,NA,NA,NA,NA
b8d3d,"""Falsch""-Screen",canvas.Screen,3_0_3_0_4_0_2,NA,NA,timeout,4996.0719999999,621137.3,621130.012,621132.261,626111.56,626112.5,2023-03-07T10:07:51Z,626128.333,NULL,Hoffnung,matarajio,d,NA,NA,NA,NA,qt,0,3,NA,NA,NA,NA,NA,NA,NA,NA,NA,NA,NA,NA,NA,NA,NA,NA,NA,NA,NA
b8d3d,deep,flow.Sequence,3_0_3_0_4_0,NA,NA,completion,11488.902,614608.1,614606.372,614622.658,626111.56,626112.8,2023-03-07T10:07:51Z,626128.333,NULL,Hoffnung,matarajio,d,NA,NA,NA,NA,qt,NA,3,NA,NA,NA,NA,NA,NA,NA,NA,NA,NA,NA,NA,NA,NA,NA,NA,NA,NA,NA
b8d3d,shallow,flow.Sequence,3_0_3_0_4_1,NA,NA,skipped,NA,626112.9,NA,NA,626111.56,626113,2023-03-07T10:07:51Z,626128.333,NULL,Hoffnung,matarajio,d,NA,NA,NA,NA,qt,NA,3,NA,NA,NA,NA,NA,NA,NA,NA,NA,NA,NA,NA,NA,NA,NA,NA,NA,NA,NA
b8d3d,task,flow.Sequence,3_0_3_0_4,NA,NA,completion,11488.902,614608,614606.372,614622.658,626111.56,626113.2,2023-03-07T10:07:51Z,626128.333,NULL,Hoffnung,matarajio,d,NA,NA,NA,NA,qt,NA,3,NA,NA,NA,NA,NA,NA,NA,NA,NA,NA,NA,NA,NA,NA,NA,NA,NA,NA,NA
b8d3d,Deep Question,html.Page,3_0_3_0_5_0_0,NA,NA,form submission,3563.5670000004,626113.4,626111.56,626128.333,629691.9,629692.3,2023-03-07T10:07:55Z,629718.744,NULL,Verpackung,ufungaji,d,NA,NA,NA,uzungaji,NA,NA,3,NA,NA,NA,NA,NA,NA,NA,NA,NA,NA,NA,NA,NA,NA,NA,NA,NA,NA,NA
b8d3d,"""Richtig""-Screen",canvas.Screen,3_0_3_0_5_0_1,NA,NA,skipped,NA,629696.8,NA,NA,629691.9,629697,2023-03-07T10:07:55Z,629718.744,NULL,Verpackung,ufungaji,d,NA,NA,NA,NA,qt,NA,3,NA,NA,NA,NA,NA,NA,NA,NA,NA,NA,NA,NA,NA,NA,NA,NA,NA,NA,NA
b8d3d,"""Falsch""-Screen",canvas.Screen,3_0_3_0_5_0_2,NA,NA,timeout,5003.52,629698.1,629690.052,629718.744,634705.771,634706.8,2023-03-07T10:08:00Z,634722.264,NULL,Verpackung,ufungaji,d,NA,NA,NA,NA,qt,0,3,NA,NA,NA,NA,NA,NA,NA,NA,NA,NA,NA,NA,NA,NA,NA,NA,NA,NA,NA
b8d3d,deep,flow.Sequence,3_0_3_0_5_0,NA,NA,completion,8577.438,626113.4,626111.56,626128.333,634705.771,634707.1,2023-03-07T10:08:00Z,634722.264,NULL,Verpackung,ufungaji,d,NA,NA,NA,NA,qt,NA,3,NA,NA,NA,NA,NA,NA,NA,NA,NA,NA,NA,NA,NA,NA,NA,NA,NA,NA,NA
b8d3d,shallow,flow.Sequence,3_0_3_0_5_1,NA,NA,skipped,NA,634707.3,NA,NA,634705.771,634707.4,2023-03-07T10:08:00Z,634722.264,NULL,Verpackung,ufungaji,d,NA,NA,NA,NA,qt,NA,3,NA,NA,NA,NA,NA,NA,NA,NA,NA,NA,NA,NA,NA,NA,NA,NA,NA,NA,NA
b8d3d,task,flow.Sequence,3_0_3_0_5,NA,NA,completion,8577.438,626113.3,626111.56,626128.333,634705.771,634707.6,2023-03-07T10:08:00Z,634722.264,NULL,Verpackung,ufungaji,d,NA,NA,NA,NA,qt,NA,3,NA,NA,NA,NA,NA,NA,NA,NA,NA,NA,NA,NA,NA,NA,NA,NA,NA,NA,NA
b8d3d,deep,flow.Sequence,3_0_3_0_6_0,NA,NA,skipped,NA,634707.7,NA,NA,634705.771,634707.8,2023-03-07T10:08:00Z,634722.264,NULL,Schönheit,kirembo,s,mahojiano,msisimko,jitihadi,NA,qt,NA,3,NA,NA,NA,NA,NA,NA,NA,NA,NA,NA,NA,NA,NA,NA,NA,NA,NA,NA,NA
b8d3d,Shallow Question,html.Page,3_0_3_0_6_1_0,NA,NA,form submission,4407.0360000008,634707.9,634705.771,634722.264,639129.3,639129.7,2023-03-07T10:08:04Z,639133.691,NULL,Schönheit,kirembo,s,mahojiano,msisimko,jitihadi,kirembo,NA,NA,3,NA,NA,NA,NA,NA,NA,NA,NA,NA,NA,NA,NA,NA,NA,NA,NA,NA,NA,NA
b8d3d,"""Richtig""-Screen",canvas.Screen,3_0_3_0_6_1_1,NA,NA,timeout,5002.924,639135.9,639117.32,639133.691,644120.22,644121.3,2023-03-07T10:08:09Z,644136.615,NULL,Schönheit,kirembo,s,mahojiano,msisimko,jitihadi,NA,qt,1,3,NA,NA,NA,NA,NA,NA,NA,NA,NA,NA,NA,NA,NA,NA,NA,NA,NA,NA,NA
b8d3d,"""Falsch""-Screen",canvas.Screen,3_0_3_0_6_1_2,NA,NA,skipped,NA,644126.6,NA,NA,644120.22,644127,2023-03-07T10:08:09Z,644136.615,NULL,Schönheit,kirembo,s,mahojiano,msisimko,jitihadi,NA,qt,NA,3,NA,NA,NA,NA,NA,NA,NA,NA,NA,NA,NA,NA,NA,NA,NA,NA,NA,NA,NA
b8d3d,shallow,flow.Sequence,3_0_3_0_6_1,NA,NA,completion,9397.956,634707.9,634705.771,634722.264,644120.22,644127.3,2023-03-07T10:08:09Z,644136.615,NULL,Schönheit,kirembo,s,mahojiano,msisimko,jitihadi,NA,qt,NA,3,NA,NA,NA,NA,NA,NA,NA,NA,NA,NA,NA,NA,NA,NA,NA,NA,NA,NA,NA
b8d3d,task,flow.Sequence,3_0_3_0_6,NA,NA,completion,9397.956,634707.6,634705.771,634722.264,644120.22,644127.5,2023-03-07T10:08:09Z,644136.615,NULL,Schönheit,kirembo,s,mahojiano,msisimko,jitihadi,NA,qt,NA,3,NA,NA,NA,NA,NA,NA,NA,NA,NA,NA,NA,NA,NA,NA,NA,NA,NA,NA,NA
b8d3d,deep,flow.Sequence,3_0_3_0_7_0,NA,NA,skipped,NA,644127.7,NA,NA,644120.22,644127.7,2023-03-07T10:08:09Z,644136.615,NULL,Zufall,kikuti,s,kukosekana,uchoraji,leseni,NA,qt,NA,3,NA,NA,NA,NA,NA,NA,NA,NA,NA,NA,NA,NA,NA,NA,NA,NA,NA,NA,NA
b8d3d,Shallow Question,html.Page,3_0_3_0_7_1_0,NA,NA,form submission,4089.2850000004,644127.9,644120.22,644136.615,648225.9,648226.4,2023-03-07T10:08:13Z,648239.966,NULL,Zufall,kikuti,s,kukosekana,uchoraji,leseni,kikuti,NA,NA,3,NA,NA,NA,NA,NA,NA,NA,NA,NA,NA,NA,NA,NA,NA,NA,NA,NA,NA,NA
b8d3d,"""Richtig""-Screen",canvas.Screen,3_0_3_0_7_1_1,NA,NA,timeout,4996.395,648231.5,648223.66,648239.966,653219.736,653225,2023-03-07T10:08:18Z,653236.361,NULL,Zufall,kikuti,s,kukosekana,uchoraji,leseni,NA,qt,1,3,NA,NA,NA,NA,NA,NA,NA,NA,NA,NA,NA,NA,NA,NA,NA,NA,NA,NA,NA
b8d3d,"""Falsch""-Screen",canvas.Screen,3_0_3_0_7_1_2,NA,NA,skipped,NA,653230.1,NA,NA,653219.736,653230.5,2023-03-07T10:08:18Z,653236.361,NULL,Zufall,kikuti,s,kukosekana,uchoraji,leseni,NA,qt,NA,3,NA,NA,NA,NA,NA,NA,NA,NA,NA,NA,NA,NA,NA,NA,NA,NA,NA,NA,NA
b8d3d,shallow,flow.Sequence,3_0_3_0_7_1,NA,NA,completion,9083.121,644127.9,644120.22,644136.615,653219.736,653230.9,2023-03-07T10:08:18Z,653236.361,NULL,Zufall,kikuti,s,kukosekana,uchoraji,leseni,NA,qt,NA,3,NA,NA,NA,NA,NA,NA,NA,NA,NA,NA,NA,NA,NA,NA,NA,NA,NA,NA,NA
b8d3d,task,flow.Sequence,3_0_3_0_7,NA,NA,completion,9083.121,644127.7,644120.22,644136.615,653219.736,653231,2023-03-07T10:08:18Z,653236.361,NULL,Zufall,kikuti,s,kukosekana,uchoraji,leseni,NA,qt,NA,3,NA,NA,NA,NA,NA,NA,NA,NA,NA,NA,NA,NA,NA,NA,NA,NA,NA,NA,NA
b8d3d,block,flow.Loop,3_0_3_0,NA,NA,completion,76108.96,577120.5,577039.899,577110.776,653219.736,653231.2,2023-03-07T10:08:18Z,653236.361,NULL,NA,NA,NA,NA,NA,NA,NA,qt,NA,3,NA,NA,NA,NA,NA,NA,NA,NA,NA,NA,NA,NA,NA,NA,NA,NA,NA,NA,NA
b8d3d,weiter,canvas.Screen,3_0_3_1,sdf,keypress(Space),response,903.73899999959,653231.3,653219.736,653236.361,654140.1,654143,2023-03-07T10:08:19Z,654209.052,NULL,NA,NA,NA,NA,NA,NA,NA,qt,NA,3,NA,NA,NA,NA,NA,NA,NA,NA,NA,NA,NA,NA,NA,NA,NA,NA,NA,NA,NA
b8d3d,check continue,flow.Sequence,3_0_3,NA,NA,completion,77029.324,577120.4,577039.899,577110.776,654140.1,654143.3,2023-03-07T10:08:19Z,654209.052,NULL,NA,NA,NA,NA,NA,NA,NA,qt,NA,3,NA,NA,NA,NA,NA,NA,NA,NA,NA,NA,NA,NA,NA,NA,NA,NA,NA,NA,NA
b8d3d,deep,flow.Sequence,3_0_4_0_0_0,NA,NA,skipped,NA,654211.4,NA,NA,654140.1,654211.5,2023-03-07T10:08:19Z,654209.052,NULL,Zufall,kikuti,s,kukosekana,uchoraji,leseni,NA,sd,NA,4,NA,NA,NA,NA,NA,NA,NA,NA,NA,NA,NA,NA,NA,NA,NA,NA,NA,NA,NA
b8d3d,Shallow Question,html.Page,3_0_4_0_0_1_0,NA,NA,form submission,6146.0479999996,654211.7,654131.863,654209.052,660355.1,660355.6,2023-03-07T10:08:25Z,660364.107,NULL,Zufall,kikuti,s,kukosekana,uchoraji,leseni,kikuti,NA,NA,4,NA,NA,NA,NA,NA,NA,NA,NA,NA,NA,NA,NA,NA,NA,NA,NA,NA,NA,NA
b8d3d,"""Richtig""-Screen",canvas.Screen,3_0_4_0_0_1_1,NA,NA,timeout,4997.24,660360.7,660347.708,660364.107,665344.896,665346,2023-03-07T10:08:30Z,665361.347,NULL,Zufall,kikuti,s,kukosekana,uchoraji,leseni,NA,sd,1,4,NA,NA,NA,NA,NA,NA,NA,NA,NA,NA,NA,NA,NA,NA,NA,NA,NA,NA,NA
b8d3d,"""Falsch""-Screen",canvas.Screen,3_0_4_0_0_1_2,NA,NA,skipped,NA,665350.7,NA,NA,665344.896,665351.1,2023-03-07T10:08:30Z,665361.347,NULL,Zufall,kikuti,s,kukosekana,uchoraji,leseni,NA,sd,NA,4,NA,NA,NA,NA,NA,NA,NA,NA,NA,NA,NA,NA,NA,NA,NA,NA,NA,NA,NA
b8d3d,shallow,flow.Sequence,3_0_4_0_0_1,NA,NA,completion,11135.844,654211.6,654131.863,654209.052,665344.896,665351.4,2023-03-07T10:08:30Z,665361.347,NULL,Zufall,kikuti,s,kukosekana,uchoraji,leseni,NA,sd,NA,4,NA,NA,NA,NA,NA,NA,NA,NA,NA,NA,NA,NA,NA,NA,NA,NA,NA,NA,NA
b8d3d,task,flow.Sequence,3_0_4_0_0,NA,NA,completion,11135.844,654211.3,654131.863,654209.052,665344.896,665351.6,2023-03-07T10:08:30Z,665361.347,NULL,Zufall,kikuti,s,kukosekana,uchoraji,leseni,NA,sd,NA,4,NA,NA,NA,NA,NA,NA,NA,NA,NA,NA,NA,NA,NA,NA,NA,NA,NA,NA,NA
b8d3d,deep,flow.Sequence,3_0_4_0_1_0,NA,NA,skipped,NA,665351.7,NA,NA,665344.896,665351.8,2023-03-07T10:08:30Z,665361.347,NULL,Theorie,nadharia,s,ushungi,mkutano,uwakilishi,NA,sd,NA,4,NA,NA,NA,NA,NA,NA,NA,NA,NA,NA,NA,NA,NA,NA,NA,NA,NA,NA,NA
b8d3d,Shallow Question,html.Page,3_0_4_0_1_1_0,NA,NA,form submission,4522.9530000008,665351.9,665344.896,665361.347,669884.3,669884.9,2023-03-07T10:08:35Z,669895.748,NULL,Theorie,nadharia,s,ushungi,mkutano,uwakilishi,nadharia,NA,NA,4,NA,NA,NA,NA,NA,NA,NA,NA,NA,NA,NA,NA,NA,NA,NA,NA,NA,NA,NA
b8d3d,"""Richtig""-Screen",canvas.Screen,3_0_4_0_1_1_1,NA,NA,timeout,5002.138,669889.3,669878.838,669895.748,674881.551,674882.6,2023-03-07T10:08:40Z,674897.886,NULL,Theorie,nadharia,s,ushungi,mkutano,uwakilishi,NA,sd,1,4,NA,NA,NA,NA,NA,NA,NA,NA,NA,NA,NA,NA,NA,NA,NA,NA,NA,NA,NA
b8d3d,"""Falsch""-Screen",canvas.Screen,3_0_4_0_1_1_2,NA,NA,skipped,NA,674888,NA,NA,674881.551,674888.4,2023-03-07T10:08:40Z,674897.886,NULL,Theorie,nadharia,s,ushungi,mkutano,uwakilishi,NA,sd,NA,4,NA,NA,NA,NA,NA,NA,NA,NA,NA,NA,NA,NA,NA,NA,NA,NA,NA,NA,NA
b8d3d,shallow,flow.Sequence,3_0_4_0_1_1,NA,NA,completion,9520.204,665351.9,665344.896,665361.347,674881.551,674888.7,2023-03-07T10:08:40Z,674897.886,NULL,Theorie,nadharia,s,ushungi,mkutano,uwakilishi,NA,sd,NA,4,NA,NA,NA,NA,NA,NA,NA,NA,NA,NA,NA,NA,NA,NA,NA,NA,NA,NA,NA
b8d3d,task,flow.Sequence,3_0_4_0_1,NA,NA,completion,9520.204,665351.7,665344.896,665361.347,674881.551,674888.9,2023-03-07T10:08:40Z,674897.886,NULL,Theorie,nadharia,s,ushungi,mkutano,uwakilishi,NA,sd,NA,4,NA,NA,NA,NA,NA,NA,NA,NA,NA,NA,NA,NA,NA,NA,NA,NA,NA,NA,NA
b8d3d,deep,flow.Sequence,3_0_4_0_2_0,NA,NA,skipped,NA,674889,NA,NA,674881.551,674889.1,2023-03-07T10:08:40Z,674897.886,NULL,Schönheit,kirembo,s,mahojiano,msisimko,jitihadi,NA,sd,NA,4,NA,NA,NA,NA,NA,NA,NA,NA,NA,NA,NA,NA,NA,NA,NA,NA,NA,NA,NA
b8d3d,Shallow Question,html.Page,3_0_4_0_2_1_0,NA,NA,form submission,3813.8140000011,674889.2,674881.551,674897.886,678711.7,678712.2,2023-03-07T10:08:44Z,678742.967,NULL,Schönheit,kirembo,s,mahojiano,msisimko,jitihadi,kirembo,NA,NA,4,NA,NA,NA,NA,NA,NA,NA,NA,NA,NA,NA,NA,NA,NA,NA,NA,NA,NA,NA
b8d3d,"""Richtig""-Screen",canvas.Screen,3_0_4_0_2_1_1,NA,NA,timeout,4994.0060000001,678716.9,678693.54,678742.967,683720.425,683729.5,2023-03-07T10:08:49Z,683736.973,NULL,Schönheit,kirembo,s,mahojiano,msisimko,jitihadi,NA,sd,1,4,NA,NA,NA,NA,NA,NA,NA,NA,NA,NA,NA,NA,NA,NA,NA,NA,NA,NA,NA
b8d3d,"""Falsch""-Screen",canvas.Screen,3_0_4_0_2_1_2,NA,NA,skipped,NA,683734.5,NA,NA,683720.425,683734.9,2023-03-07T10:08:49Z,683736.973,NULL,Schönheit,kirembo,s,mahojiano,msisimko,jitihadi,NA,sd,NA,4,NA,NA,NA,NA,NA,NA,NA,NA,NA,NA,NA,NA,NA,NA,NA,NA,NA,NA,NA
b8d3d,shallow,flow.Sequence,3_0_4_0_2_1,NA,NA,completion,8822.539,674889.2,674881.551,674897.886,683720.425,683735.2,2023-03-07T10:08:49Z,683736.973,NULL,Schönheit,kirembo,s,mahojiano,msisimko,jitihadi,NA,sd,NA,4,NA,NA,NA,NA,NA,NA,NA,NA,NA,NA,NA,NA,NA,NA,NA,NA,NA,NA,NA
b8d3d,task,flow.Sequence,3_0_4_0_2,NA,NA,completion,8822.539,674889,674881.551,674897.886,683720.425,683735.3,2023-03-07T10:08:49Z,683736.973,NULL,Schönheit,kirembo,s,mahojiano,msisimko,jitihadi,NA,sd,NA,4,NA,NA,NA,NA,NA,NA,NA,NA,NA,NA,NA,NA,NA,NA,NA,NA,NA,NA,NA
b8d3d,Deep Question,html.Page,3_0_4_0_3_0_0,NA,NA,form submission,5763.6269999996,683735.5,683720.425,683736.973,689500.6,689501,2023-03-07T10:08:55Z,689514.54,NULL,Auftrag,uagizaji,d,NA,NA,NA,ufungaji,NA,NA,4,NA,NA,NA,NA,NA,NA,NA,NA,NA,NA,NA,NA,NA,NA,NA,NA,NA,NA,NA
b8d3d,"""Richtig""-Screen",canvas.Screen,3_0_4_0_3_0_1,NA,NA,skipped,NA,689504.3,NA,NA,689500.6,689504.5,2023-03-07T10:08:55Z,689514.54,NULL,Auftrag,uagizaji,d,NA,NA,NA,NA,sd,NA,4,NA,NA,NA,NA,NA,NA,NA,NA,NA,NA,NA,NA,NA,NA,NA,NA,NA,NA,NA
b8d3d,"""Falsch""-Screen",canvas.Screen,3_0_4_0_3_0_2,NA,NA,timeout,5003.0279999999,689505.7,689497.877,689514.54,694501.021,694502.1,2023-03-07T10:09:00Z,694517.568,NULL,Auftrag,uagizaji,d,NA,NA,NA,NA,sd,0,4,NA,NA,NA,NA,NA,NA,NA,NA,NA,NA,NA,NA,NA,NA,NA,NA,NA,NA,NA
b8d3d,deep,flow.Sequence,3_0_4_0_3_0,NA,NA,completion,10764.048,683735.5,683720.425,683736.973,694501.021,694502.7,2023-03-07T10:09:00Z,694517.568,NULL,Auftrag,uagizaji,d,NA,NA,NA,NA,sd,NA,4,NA,NA,NA,NA,NA,NA,NA,NA,NA,NA,NA,NA,NA,NA,NA,NA,NA,NA,NA
b8d3d,shallow,flow.Sequence,3_0_4_0_3_1,NA,NA,skipped,NA,694502.9,NA,NA,694501.021,694503.1,2023-03-07T10:09:00Z,694517.568,NULL,Auftrag,uagizaji,d,NA,NA,NA,NA,sd,NA,4,NA,NA,NA,NA,NA,NA,NA,NA,NA,NA,NA,NA,NA,NA,NA,NA,NA,NA,NA
b8d3d,task,flow.Sequence,3_0_4_0_3,NA,NA,completion,10764.048,683735.4,683720.425,683736.973,694501.021,694503.4,2023-03-07T10:09:00Z,694517.568,NULL,Auftrag,uagizaji,d,NA,NA,NA,NA,sd,NA,4,NA,NA,NA,NA,NA,NA,NA,NA,NA,NA,NA,NA,NA,NA,NA,NA,NA,NA,NA
b8d3d,Deep Question,html.Page,3_0_4_0_4_0_0,NA,NA,form submission,4004.1320000011,694503.8,694501.021,694517.568,698521.7,698522.1,2023-03-07T10:09:04Z,698541.555,NULL,Wettbewerb,ushindani,d,NA,NA,NA,ufungaji,NA,NA,4,NA,NA,NA,NA,NA,NA,NA,NA,NA,NA,NA,NA,NA,NA,NA,NA,NA,NA,NA
b8d3d,"""Richtig""-Screen",canvas.Screen,3_0_4_0_4_0_1,NA,NA,skipped,NA,698526.4,NA,NA,698521.7,698526.7,2023-03-07T10:09:04Z,698541.555,NULL,Wettbewerb,ushindani,d,NA,NA,NA,NA,sd,NA,4,NA,NA,NA,NA,NA,NA,NA,NA,NA,NA,NA,NA,NA,NA,NA,NA,NA,NA,NA
b8d3d,"""Falsch""-Screen",canvas.Screen,3_0_4_0_4_0_2,NA,NA,timeout,4996.054,698528.4,698510.301,698541.555,703521.051,703522.1,2023-03-07T10:09:09Z,703537.609,NULL,Wettbewerb,ushindani,d,NA,NA,NA,NA,sd,0,4,NA,NA,NA,NA,NA,NA,NA,NA,NA,NA,NA,NA,NA,NA,NA,NA,NA,NA,NA
b8d3d,deep,flow.Sequence,3_0_4_0_4_0,NA,NA,completion,9003.483,694503.8,694501.021,694517.568,703521.051,703522.6,2023-03-07T10:09:09Z,703537.609,NULL,Wettbewerb,ushindani,d,NA,NA,NA,NA,sd,NA,4,NA,NA,NA,NA,NA,NA,NA,NA,NA,NA,NA,NA,NA,NA,NA,NA,NA,NA,NA
b8d3d,shallow,flow.Sequence,3_0_4_0_4_1,NA,NA,skipped,NA,703522.8,NA,NA,703521.051,703522.9,2023-03-07T10:09:09Z,703537.609,NULL,Wettbewerb,ushindani,d,NA,NA,NA,NA,sd,NA,4,NA,NA,NA,NA,NA,NA,NA,NA,NA,NA,NA,NA,NA,NA,NA,NA,NA,NA,NA
b8d3d,task,flow.Sequence,3_0_4_0_4,NA,NA,completion,9003.483,694503.6,694501.021,694517.568,703521.051,703523.1,2023-03-07T10:09:09Z,703537.609,NULL,Wettbewerb,ushindani,d,NA,NA,NA,NA,sd,NA,4,NA,NA,NA,NA,NA,NA,NA,NA,NA,NA,NA,NA,NA,NA,NA,NA,NA,NA,NA
b8d3d,Deep Question,html.Page,3_0_4_0_5_0_0,NA,NA,form submission,3344.8910000018,703523.3,703521.051,703537.609,706882.5,706882.9,2023-03-07T10:09:12Z,706912.971,NULL,Hoffnung,matarajio,d,NA,NA,NA,marajio,NA,NA,4,NA,NA,NA,NA,NA,NA,NA,NA,NA,NA,NA,NA,NA,NA,NA,NA,NA,NA,NA
b8d3d,"""Richtig""-Screen",canvas.Screen,3_0_4_0_5_0_1,NA,NA,skipped,NA,706886.9,NA,NA,706882.5,706887.2,2023-03-07T10:09:12Z,706912.971,NULL,Hoffnung,matarajio,d,NA,NA,NA,NA,sd,NA,4,NA,NA,NA,NA,NA,NA,NA,NA,NA,NA,NA,NA,NA,NA,NA,NA,NA,NA,NA
b8d3d,"""Falsch""-Screen",canvas.Screen,3_0_4_0_5_0_2,NA,NA,timeout,4995.022,706888.6,706873.354,706912.971,711891.786,711892.8,2023-03-07T10:09:17Z,711907.993,NULL,Hoffnung,matarajio,d,NA,NA,NA,NA,sd,0,4,NA,NA,NA,NA,NA,NA,NA,NA,NA,NA,NA,NA,NA,NA,NA,NA,NA,NA,NA
b8d3d,deep,flow.Sequence,3_0_4_0_5_0,NA,NA,completion,8354.1769999999,703523.2,703521.051,703537.609,711891.786,711893.2,2023-03-07T10:09:17Z,711907.993,NULL,Hoffnung,matarajio,d,NA,NA,NA,NA,sd,NA,4,NA,NA,NA,NA,NA,NA,NA,NA,NA,NA,NA,NA,NA,NA,NA,NA,NA,NA,NA
b8d3d,shallow,flow.Sequence,3_0_4_0_5_1,NA,NA,skipped,NA,711893.3,NA,NA,711891.786,711893.4,2023-03-07T10:09:17Z,711907.993,NULL,Hoffnung,matarajio,d,NA,NA,NA,NA,sd,NA,4,NA,NA,NA,NA,NA,NA,NA,NA,NA,NA,NA,NA,NA,NA,NA,NA,NA,NA,NA
b8d3d,task,flow.Sequence,3_0_4_0_5,NA,NA,completion,8354.1769999999,703523.1,703521.051,703537.609,711891.786,711893.6,2023-03-07T10:09:17Z,711907.993,NULL,Hoffnung,matarajio,d,NA,NA,NA,NA,sd,NA,4,NA,NA,NA,NA,NA,NA,NA,NA,NA,NA,NA,NA,NA,NA,NA,NA,NA,NA,NA
b8d3d,deep,flow.Sequence,3_0_4_0_6_0,NA,NA,skipped,NA,711893.8,NA,NA,711891.786,711893.8,2023-03-07T10:09:17Z,711907.993,NULL,Schock,mshtuko,s,biashara,kukataza,vichekesho,NA,sd,NA,4,NA,NA,NA,NA,NA,NA,NA,NA,NA,NA,NA,NA,NA,NA,NA,NA,NA,NA,NA
b8d3d,Shallow Question,html.Page,3_0_4_0_6_1_0,NA,NA,form submission,7135.6069999996,711894,711891.786,711907.993,719043.6,719044.3,2023-03-07T10:09:24Z,719050.565,NULL,Schock,mshtuko,s,biashara,kukataza,vichekesho,mshtuko,NA,NA,4,NA,NA,NA,NA,NA,NA,NA,NA,NA,NA,NA,NA,NA,NA,NA,NA,NA,NA,NA
b8d3d,"""Richtig""-Screen",canvas.Screen,3_0_4_0_6_1_1,NA,NA,timeout,4997.3920000001,719049.6,719034.151,719050.565,724031.53,724032.4,2023-03-07T10:09:29Z,724047.957,NULL,Schock,mshtuko,s,biashara,kukataza,vichekesho,NA,sd,1,4,NA,NA,NA,NA,NA,NA,NA,NA,NA,NA,NA,NA,NA,NA,NA,NA,NA,NA,NA
b8d3d,"""Falsch""-Screen",canvas.Screen,3_0_4_0_6_1_2,NA,NA,skipped,NA,724038.1,NA,NA,724031.53,724038.5,2023-03-07T10:09:29Z,724047.957,NULL,Schock,mshtuko,s,biashara,kukataza,vichekesho,NA,sd,NA,4,NA,NA,NA,NA,NA,NA,NA,NA,NA,NA,NA,NA,NA,NA,NA,NA,NA,NA,NA
b8d3d,shallow,flow.Sequence,3_0_4_0_6_1,NA,NA,completion,12123.537,711893.9,711891.786,711907.993,724031.53,724038.7,2023-03-07T10:09:29Z,724047.957,NULL,Schock,mshtuko,s,biashara,kukataza,vichekesho,NA,sd,NA,4,NA,NA,NA,NA,NA,NA,NA,NA,NA,NA,NA,NA,NA,NA,NA,NA,NA,NA,NA
b8d3d,task,flow.Sequence,3_0_4_0_6,NA,NA,completion,12123.537,711893.6,711891.786,711907.993,724031.53,724038.9,2023-03-07T10:09:29Z,724047.957,NULL,Schock,mshtuko,s,biashara,kukataza,vichekesho,NA,sd,NA,4,NA,NA,NA,NA,NA,NA,NA,NA,NA,NA,NA,NA,NA,NA,NA,NA,NA,NA,NA
b8d3d,Deep Question,html.Page,3_0_4_0_7_0_0,NA,NA,form submission,5374.3429999988,724039.1,724031.53,724047.957,729422.3,729422.8,2023-03-07T10:09:35Z,729441.922,NULL,Verpackung,ufungaji,d,NA,NA,NA,ufungaji,NA,NA,4,NA,NA,NA,NA,NA,NA,NA,NA,NA,NA,NA,NA,NA,NA,NA,NA,NA,NA,NA
b8d3d,"""Richtig""-Screen",canvas.Screen,3_0_4_0_7_0_1,NA,NA,timeout,4995.357,729426.9,729409.228,729441.922,734421.046,734422,2023-03-07T10:09:40Z,734437.279,NULL,Verpackung,ufungaji,d,NA,NA,NA,NA,sd,1,4,NA,NA,NA,NA,NA,NA,NA,NA,NA,NA,NA,NA,NA,NA,NA,NA,NA,NA,NA
b8d3d,"""Falsch""-Screen",canvas.Screen,3_0_4_0_7_0_2,NA,NA,skipped,NA,734427.4,NA,NA,734421.046,734427.8,2023-03-07T10:09:40Z,734437.279,NULL,Verpackung,ufungaji,d,NA,NA,NA,NA,sd,NA,4,NA,NA,NA,NA,NA,NA,NA,NA,NA,NA,NA,NA,NA,NA,NA,NA,NA,NA,NA
b8d3d,deep,flow.Sequence,3_0_4_0_7_0,NA,NA,completion,10373.089,724039.1,724031.53,724047.957,734421.046,734428,2023-03-07T10:09:40Z,734437.279,NULL,Verpackung,ufungaji,d,NA,NA,NA,NA,sd,NA,4,NA,NA,NA,NA,NA,NA,NA,NA,NA,NA,NA,NA,NA,NA,NA,NA,NA,NA,NA
b8d3d,shallow,flow.Sequence,3_0_4_0_7_1,NA,NA,skipped,NA,734428.2,NA,NA,734421.046,734428.2,2023-03-07T10:09:40Z,734437.279,NULL,Verpackung,ufungaji,d,NA,NA,NA,NA,sd,NA,4,NA,NA,NA,NA,NA,NA,NA,NA,NA,NA,NA,NA,NA,NA,NA,NA,NA,NA,NA
b8d3d,task,flow.Sequence,3_0_4_0_7,NA,NA,completion,10373.089,724039,724031.53,724047.957,734421.046,734428.4,2023-03-07T10:09:40Z,734437.279,NULL,Verpackung,ufungaji,d,NA,NA,NA,NA,sd,NA,4,NA,NA,NA,NA,NA,NA,NA,NA,NA,NA,NA,NA,NA,NA,NA,NA,NA,NA,NA
b8d3d,block,flow.Loop,3_0_4_0,NA,NA,completion,80211.994,654211.3,654131.863,654209.052,734421.046,734428.6,2023-03-07T10:09:40Z,734437.279,NULL,NA,NA,NA,NA,NA,NA,NA,sd,NA,4,NA,NA,NA,NA,NA,NA,NA,NA,NA,NA,NA,NA,NA,NA,NA,NA,NA,NA,NA
b8d3d,weiter,canvas.Screen,3_0_4_1,sdf,keypress(Space),response,703.5209999989,734428.7,734421.046,734437.279,735140.8,735142.2,2023-03-07T10:09:40Z,735221.303,NULL,NA,NA,NA,NA,NA,NA,NA,sd,NA,4,NA,NA,NA,NA,NA,NA,NA,NA,NA,NA,NA,NA,NA,NA,NA,NA,NA,NA,NA
b8d3d,check continue,flow.Sequence,3_0_4,NA,NA,completion,80931.747999999,654211.2,654131.863,654209.052,735140.8,735142.6,2023-03-07T10:09:40Z,735221.303,NULL,NA,NA,NA,NA,NA,NA,NA,sd,NA,4,NA,NA,NA,NA,NA,NA,NA,NA,NA,NA,NA,NA,NA,NA,NA,NA,NA,NA,NA
b8d3d,Deep Question,html.Page,3_0_5_0_0_0_0,NA,NA,form submission,3301.0970000004,735193.5,735187.482,735221.303,738522.4,738522.9,2023-03-07T10:09:44Z,738522.754,NULL,Verpackung,ufungaji,d,NA,NA,NA,ufungaji,NA,NA,5,NA,NA,NA,NA,NA,NA,NA,NA,NA,NA,NA,NA,NA,NA,NA,NA,NA,NA,NA
b8d3d,"""Richtig""-Screen",canvas.Screen,3_0_5_0_0_0_1,NA,NA,timeout,5000.1240000001,738523.9,738517.11,738522.754,743506.085,743507,2023-03-07T10:09:49Z,743522.878,NULL,Verpackung,ufungaji,d,NA,NA,NA,NA,sdf,1,5,NA,NA,NA,NA,NA,NA,NA,NA,NA,NA,NA,NA,NA,NA,NA,NA,NA,NA,NA
b8d3d,"""Falsch""-Screen",canvas.Screen,3_0_5_0_0_0_2,NA,NA,skipped,NA,743511.6,NA,NA,743506.085,743512,2023-03-07T10:09:49Z,743522.878,NULL,Verpackung,ufungaji,d,NA,NA,NA,NA,sdf,NA,5,NA,NA,NA,NA,NA,NA,NA,NA,NA,NA,NA,NA,NA,NA,NA,NA,NA,NA,NA
b8d3d,deep,flow.Sequence,3_0_5_0_0_0,NA,NA,completion,8284.782,735193.5,735187.482,735221.303,743506.085,743512.5,2023-03-07T10:09:49Z,743522.878,NULL,Verpackung,ufungaji,d,NA,NA,NA,NA,sdf,NA,5,NA,NA,NA,NA,NA,NA,NA,NA,NA,NA,NA,NA,NA,NA,NA,NA,NA,NA,NA
b8d3d,shallow,flow.Sequence,3_0_5_0_0_1,NA,NA,skipped,NA,743512.6,NA,NA,743506.085,743512.7,2023-03-07T10:09:49Z,743522.878,NULL,Verpackung,ufungaji,d,NA,NA,NA,NA,sdf,NA,5,NA,NA,NA,NA,NA,NA,NA,NA,NA,NA,NA,NA,NA,NA,NA,NA,NA,NA,NA
b8d3d,task,flow.Sequence,3_0_5_0_0,NA,NA,completion,8284.782,735193.5,735187.482,735221.303,743506.085,743512.9,2023-03-07T10:09:49Z,743522.878,NULL,Verpackung,ufungaji,d,NA,NA,NA,NA,sdf,NA,5,NA,NA,NA,NA,NA,NA,NA,NA,NA,NA,NA,NA,NA,NA,NA,NA,NA,NA,NA
b8d3d,deep,flow.Sequence,3_0_5_0_1_0,NA,NA,skipped,NA,743513,NA,NA,743506.085,743513.1,2023-03-07T10:09:49Z,743522.878,NULL,Theorie,nadharia,s,ushungi,mkutano,uwakilishi,NA,sdf,NA,5,NA,NA,NA,NA,NA,NA,NA,NA,NA,NA,NA,NA,NA,NA,NA,NA,NA,NA,NA
b8d3d,Shallow Question,html.Page,3_0_5_0_1_1_0,NA,NA,form submission,3369.6220000018,743513.2,743506.085,743522.878,746892.5,746893,2023-03-07T10:09:52Z,746903.438,NULL,Theorie,nadharia,s,ushungi,mkutano,uwakilishi,nadharia,NA,NA,5,NA,NA,NA,NA,NA,NA,NA,NA,NA,NA,NA,NA,NA,NA,NA,NA,NA,NA,NA
b8d3d,"""Richtig""-Screen",canvas.Screen,3_0_5_0_1_1_1,NA,NA,timeout,4999.417,746895,746887.255,746903.438,751885.941,751886.9,2023-03-07T10:09:57Z,751902.855,NULL,Theorie,nadharia,s,ushungi,mkutano,uwakilishi,NA,sdf,1,5,NA,NA,NA,NA,NA,NA,NA,NA,NA,NA,NA,NA,NA,NA,NA,NA,NA,NA,NA
b8d3d,"""Falsch""-Screen",canvas.Screen,3_0_5_0_1_1_2,NA,NA,skipped,NA,751892,NA,NA,751885.941,751892.3,2023-03-07T10:09:57Z,751902.855,NULL,Theorie,nadharia,s,ushungi,mkutano,uwakilishi,NA,sdf,NA,5,NA,NA,NA,NA,NA,NA,NA,NA,NA,NA,NA,NA,NA,NA,NA,NA,NA,NA,NA
b8d3d,shallow,flow.Sequence,3_0_5_0_1_1,NA,NA,completion,8363.063,743513.2,743506.085,743522.878,751885.941,751892.7,2023-03-07T10:09:57Z,751902.855,NULL,Theorie,nadharia,s,ushungi,mkutano,uwakilishi,NA,sdf,NA,5,NA,NA,NA,NA,NA,NA,NA,NA,NA,NA,NA,NA,NA,NA,NA,NA,NA,NA,NA
b8d3d,task,flow.Sequence,3_0_5_0_1,NA,NA,completion,8363.063,743512.9,743506.085,743522.878,751885.941,751892.8,2023-03-07T10:09:57Z,751902.855,NULL,Theorie,nadharia,s,ushungi,mkutano,uwakilishi,NA,sdf,NA,5,NA,NA,NA,NA,NA,NA,NA,NA,NA,NA,NA,NA,NA,NA,NA,NA,NA,NA,NA
b8d3d,deep,flow.Sequence,3_0_5_0_2_0,NA,NA,skipped,NA,751892.9,NA,NA,751885.941,751893.1,2023-03-07T10:09:57Z,751902.855,NULL,Zufall,kikuti,s,kukosekana,uchoraji,leseni,NA,sdf,NA,5,NA,NA,NA,NA,NA,NA,NA,NA,NA,NA,NA,NA,NA,NA,NA,NA,NA,NA,NA
b8d3d,Shallow Question,html.Page,3_0_5_0_2_1_0,NA,NA,form submission,7301.0450000004,751893.2,751885.941,751902.855,759203.9,759204.3,2023-03-07T10:10:04Z,759207.372,NULL,Zufall,kikuti,s,kukosekana,uchoraji,leseni,kikuti,NA,NA,5,NA,NA,NA,NA,NA,NA,NA,NA,NA,NA,NA,NA,NA,NA,NA,NA,NA,NA,NA
b8d3d,"""Richtig""-Screen",canvas.Screen,3_0_5_0_2_1_1,NA,NA,timeout,4991.275,759208.7,759190.671,759207.372,764182.344,764183.4,2023-03-07T10:10:09Z,764198.647,NULL,Zufall,kikuti,s,kukosekana,uchoraji,leseni,NA,sdf,1,5,NA,NA,NA,NA,NA,NA,NA,NA,NA,NA,NA,NA,NA,NA,NA,NA,NA,NA,NA
b8d3d,"""Falsch""-Screen",canvas.Screen,3_0_5_0_2_1_2,NA,NA,skipped,NA,764188.6,NA,NA,764182.344,764188.9,2023-03-07T10:10:09Z,764198.647,NULL,Zufall,kikuti,s,kukosekana,uchoraji,leseni,NA,sdf,NA,5,NA,NA,NA,NA,NA,NA,NA,NA,NA,NA,NA,NA,NA,NA,NA,NA,NA,NA,NA
b8d3d,shallow,flow.Sequence,3_0_5_0_2_1,NA,NA,completion,12279.489,751893.2,751885.941,751902.855,764182.344,764189.3,2023-03-07T10:10:09Z,764198.647,NULL,Zufall,kikuti,s,kukosekana,uchoraji,leseni,NA,sdf,NA,5,NA,NA,NA,NA,NA,NA,NA,NA,NA,NA,NA,NA,NA,NA,NA,NA,NA,NA,NA
b8d3d,task,flow.Sequence,3_0_5_0_2,NA,NA,completion,12279.489,751892.9,751885.941,751902.855,764182.344,764189.4,2023-03-07T10:10:09Z,764198.647,NULL,Zufall,kikuti,s,kukosekana,uchoraji,leseni,NA,sdf,NA,5,NA,NA,NA,NA,NA,NA,NA,NA,NA,NA,NA,NA,NA,NA,NA,NA,NA,NA,NA
b8d3d,deep,flow.Sequence,3_0_5_0_3_0,NA,NA,skipped,NA,764189.6,NA,NA,764182.344,764189.7,2023-03-07T10:10:09Z,764198.647,NULL,Schönheit,kirembo,s,mahojiano,msisimko,jitihadi,NA,sdf,NA,5,NA,NA,NA,NA,NA,NA,NA,NA,NA,NA,NA,NA,NA,NA,NA,NA,NA,NA,NA
b8d3d,Shallow Question,html.Page,3_0_5_0_3_1_0,NA,NA,form submission,3115.8530000019,764189.8,764182.344,764198.647,767314.5,767315.2,2023-03-07T10:10:12Z,767329.046,NULL,Schönheit,kirembo,s,mahojiano,msisimko,jitihadi,kirembo,NA,NA,5,NA,NA,NA,NA,NA,NA,NA,NA,NA,NA,NA,NA,NA,NA,NA,NA,NA,NA,NA
b8d3d,"""Richtig""-Screen",canvas.Screen,3_0_5_0_3_1_1,NA,NA,timeout,5004.327,767319.7,767312.647,767329.046,772317.071,772317.9,2023-03-07T10:10:17Z,772333.373,NULL,Schönheit,kirembo,s,mahojiano,msisimko,jitihadi,NA,sdf,1,5,NA,NA,NA,NA,NA,NA,NA,NA,NA,NA,NA,NA,NA,NA,NA,NA,NA,NA,NA
b8d3d,"""Falsch""-Screen",canvas.Screen,3_0_5_0_3_1_2,NA,NA,skipped,NA,772322.5,NA,NA,772317.071,772322.9,2023-03-07T10:10:17Z,772333.373,NULL,Schönheit,kirembo,s,mahojiano,msisimko,jitihadi,NA,sdf,NA,5,NA,NA,NA,NA,NA,NA,NA,NA,NA,NA,NA,NA,NA,NA,NA,NA,NA,NA,NA
b8d3d,shallow,flow.Sequence,3_0_5_0_3_1,NA,NA,completion,8118.424,764189.8,764182.344,764198.647,772317.071,772323.3,2023-03-07T10:10:17Z,772333.373,NULL,Schönheit,kirembo,s,mahojiano,msisimko,jitihadi,NA,sdf,NA,5,NA,NA,NA,NA,NA,NA,NA,NA,NA,NA,NA,NA,NA,NA,NA,NA,NA,NA,NA
b8d3d,task,flow.Sequence,3_0_5_0_3,NA,NA,completion,8118.424,764189.6,764182.344,764198.647,772317.071,772323.4,2023-03-07T10:10:17Z,772333.373,NULL,Schönheit,kirembo,s,mahojiano,msisimko,jitihadi,NA,sdf,NA,5,NA,NA,NA,NA,NA,NA,NA,NA,NA,NA,NA,NA,NA,NA,NA,NA,NA,NA,NA
b8d3d,Deep Question,html.Page,3_0_5_0_4_0_0,NA,NA,form submission,10670.127000002,772323.6,772317.071,772333.373,783003.5,783004,2023-03-07T10:10:28Z,783013.39,NULL,Auftrag,uagizaji,d,NA,NA,NA,a,NA,NA,5,NA,NA,NA,NA,NA,NA,NA,NA,NA,NA,NA,NA,NA,NA,NA,NA,NA,NA,NA
b8d3d,"""Richtig""-Screen",canvas.Screen,3_0_5_0_4_0_1,NA,NA,skipped,NA,783008,NA,NA,783003.5,783008.2,2023-03-07T10:10:28Z,783013.39,NULL,Auftrag,uagizaji,d,NA,NA,NA,NA,sdf,NA,5,NA,NA,NA,NA,NA,NA,NA,NA,NA,NA,NA,NA,NA,NA,NA,NA,NA,NA,NA
b8d3d,"""Falsch""-Screen",canvas.Screen,3_0_5_0_4_0_2,NA,NA,timeout,5004.629,783009.2,782997.103,783013.39,788001.337,788002.4,2023-03-07T10:10:33Z,788018.019,NULL,Auftrag,uagizaji,d,NA,NA,NA,NA,sdf,0,5,NA,NA,NA,NA,NA,NA,NA,NA,NA,NA,NA,NA,NA,NA,NA,NA,NA,NA,NA
b8d3d,deep,flow.Sequence,3_0_5_0_4_0,NA,NA,completion,15667.964,772323.6,772317.071,772333.373,788001.337,788002.9,2023-03-07T10:10:33Z,788018.019,NULL,Auftrag,uagizaji,d,NA,NA,NA,NA,sdf,NA,5,NA,NA,NA,NA,NA,NA,NA,NA,NA,NA,NA,NA,NA,NA,NA,NA,NA,NA,NA
b8d3d,shallow,flow.Sequence,3_0_5_0_4_1,NA,NA,skipped,NA,788003,NA,NA,788001.337,788003.3,2023-03-07T10:10:33Z,788018.019,NULL,Auftrag,uagizaji,d,NA,NA,NA,NA,sdf,NA,5,NA,NA,NA,NA,NA,NA,NA,NA,NA,NA,NA,NA,NA,NA,NA,NA,NA,NA,NA
b8d3d,task,flow.Sequence,3_0_5_0_4,NA,NA,completion,15667.964,772323.6,772317.071,772333.373,788001.337,788003.6,2023-03-07T10:10:33Z,788018.019,NULL,Auftrag,uagizaji,d,NA,NA,NA,NA,sdf,NA,5,NA,NA,NA,NA,NA,NA,NA,NA,NA,NA,NA,NA,NA,NA,NA,NA,NA,NA,NA
b8d3d,Deep Question,html.Page,3_0_5_0_5_0_0,NA,NA,form submission,7014.2809999989,788003.8,788001.337,788018.019,795032.3,795032.6,2023-03-07T10:10:40Z,795050.579,NULL,Wettbewerb,ushindani,d,NA,NA,NA,and,NA,NA,5,NA,NA,NA,NA,NA,NA,NA,NA,NA,NA,NA,NA,NA,NA,NA,NA,NA,NA,NA
b8d3d,"""Richtig""-Screen",canvas.Screen,3_0_5_0_5_0_1,NA,NA,skipped,NA,795036.7,NA,NA,795032.3,795036.9,2023-03-07T10:10:40Z,795050.579,NULL,Wettbewerb,ushindani,d,NA,NA,NA,NA,sdf,NA,5,NA,NA,NA,NA,NA,NA,NA,NA,NA,NA,NA,NA,NA,NA,NA,NA,NA,NA,NA
b8d3d,"""Falsch""-Screen",canvas.Screen,3_0_5_0_5_0_2,NA,NA,timeout,4997.014,795037.7,795021.749,795050.579,800030.926,800031.8,2023-03-07T10:10:45Z,800047.593,NULL,Wettbewerb,ushindani,d,NA,NA,NA,NA,sdf,0,5,NA,NA,NA,NA,NA,NA,NA,NA,NA,NA,NA,NA,NA,NA,NA,NA,NA,NA,NA
b8d3d,deep,flow.Sequence,3_0_5_0_5_0,NA,NA,completion,12012.907,788003.8,788001.337,788018.019,800030.926,800032.2,2023-03-07T10:10:45Z,800047.593,NULL,Wettbewerb,ushindani,d,NA,NA,NA,NA,sdf,NA,5,NA,NA,NA,NA,NA,NA,NA,NA,NA,NA,NA,NA,NA,NA,NA,NA,NA,NA,NA
b8d3d,shallow,flow.Sequence,3_0_5_0_5_1,NA,NA,skipped,NA,800032.3,NA,NA,800030.926,800032.4,2023-03-07T10:10:45Z,800047.593,NULL,Wettbewerb,ushindani,d,NA,NA,NA,NA,sdf,NA,5,NA,NA,NA,NA,NA,NA,NA,NA,NA,NA,NA,NA,NA,NA,NA,NA,NA,NA,NA
b8d3d,task,flow.Sequence,3_0_5_0_5,NA,NA,completion,12012.907,788003.7,788001.337,788018.019,800030.926,800032.6,2023-03-07T10:10:45Z,800047.593,NULL,Wettbewerb,ushindani,d,NA,NA,NA,NA,sdf,NA,5,NA,NA,NA,NA,NA,NA,NA,NA,NA,NA,NA,NA,NA,NA,NA,NA,NA,NA,NA
b8d3d,Deep Question,html.Page,3_0_5_0_6_0_0,NA,NA,form submission,3964.2069999989,800032.8,800030.926,800047.593,804011.8,804012.3,2023-03-07T10:10:49Z,804042.024,NULL,Hoffnung,matarajio,d,NA,NA,NA,matarajio,NA,NA,5,NA,NA,NA,NA,NA,NA,NA,NA,NA,NA,NA,NA,NA,NA,NA,NA,NA,NA,NA
b8d3d,"""Richtig""-Screen",canvas.Screen,3_0_5_0_6_0_1,NA,NA,timeout,5004.314,804016.2,804004.203,804042.024,809030.046,809030.9,2023-03-07T10:10:54Z,809046.338,NULL,Hoffnung,matarajio,d,NA,NA,NA,NA,sdf,1,5,NA,NA,NA,NA,NA,NA,NA,NA,NA,NA,NA,NA,NA,NA,NA,NA,NA,NA,NA
b8d3d,"""Falsch""-Screen",canvas.Screen,3_0_5_0_6_0_2,NA,NA,skipped,NA,809035.9,NA,NA,809030.046,809036.2,2023-03-07T10:10:54Z,809046.338,NULL,Hoffnung,matarajio,d,NA,NA,NA,NA,sdf,NA,5,NA,NA,NA,NA,NA,NA,NA,NA,NA,NA,NA,NA,NA,NA,NA,NA,NA,NA,NA
b8d3d,deep,flow.Sequence,3_0_5_0_6_0,NA,NA,completion,8982.453,800032.8,800030.926,800047.593,809030.046,809036.5,2023-03-07T10:10:54Z,809046.338,NULL,Hoffnung,matarajio,d,NA,NA,NA,NA,sdf,NA,5,NA,NA,NA,NA,NA,NA,NA,NA,NA,NA,NA,NA,NA,NA,NA,NA,NA,NA,NA
b8d3d,shallow,flow.Sequence,3_0_5_0_6_1,NA,NA,skipped,NA,809036.6,NA,NA,809030.046,809036.7,2023-03-07T10:10:54Z,809046.338,NULL,Hoffnung,matarajio,d,NA,NA,NA,NA,sdf,NA,5,NA,NA,NA,NA,NA,NA,NA,NA,NA,NA,NA,NA,NA,NA,NA,NA,NA,NA,NA
b8d3d,task,flow.Sequence,3_0_5_0_6,NA,NA,completion,8982.453,800032.7,800030.926,800047.593,809030.046,809036.9,2023-03-07T10:10:54Z,809046.338,NULL,Hoffnung,matarajio,d,NA,NA,NA,NA,sdf,NA,5,NA,NA,NA,NA,NA,NA,NA,NA,NA,NA,NA,NA,NA,NA,NA,NA,NA,NA,NA
b8d3d,deep,flow.Sequence,3_0_5_0_7_0,NA,NA,skipped,NA,809037,NA,NA,809030.046,809037.2,2023-03-07T10:10:54Z,809046.338,NULL,Schock,mshtuko,s,biashara,kukataza,vichekesho,NA,sdf,NA,5,NA,NA,NA,NA,NA,NA,NA,NA,NA,NA,NA,NA,NA,NA,NA,NA,NA,NA,NA
b8d3d,Shallow Question,html.Page,3_0_5_0_7_1_0,NA,NA,form submission,3289.6620000019,809037.3,809030.046,809046.338,812336,812336.4,2023-03-07T10:10:57Z,812350.728,NULL,Schock,mshtuko,s,biashara,kukataza,vichekesho,mshtuko,NA,NA,5,NA,NA,NA,NA,NA,NA,NA,NA,NA,NA,NA,NA,NA,NA,NA,NA,NA,NA,NA
b8d3d,"""Richtig""-Screen",canvas.Screen,3_0_5_0_7_1_1,NA,NA,timeout,4996.767,812340.4,812334.073,812350.728,817331.15,817332.5,2023-03-07T10:11:02Z,817347.495,NULL,Schock,mshtuko,s,biashara,kukataza,vichekesho,NA,sdf,1,5,NA,NA,NA,NA,NA,NA,NA,NA,NA,NA,NA,NA,NA,NA,NA,NA,NA,NA,NA
b8d3d,"""Falsch""-Screen",canvas.Screen,3_0_5_0_7_1_2,NA,NA,skipped,NA,817338.5,NA,NA,817331.15,817339,2023-03-07T10:11:02Z,817347.495,NULL,Schock,mshtuko,s,biashara,kukataza,vichekesho,NA,sdf,NA,5,NA,NA,NA,NA,NA,NA,NA,NA,NA,NA,NA,NA,NA,NA,NA,NA,NA,NA,NA
b8d3d,shallow,flow.Sequence,3_0_5_0_7_1,NA,NA,completion,8284.812,809037.2,809030.046,809046.338,817331.15,817339.3,2023-03-07T10:11:02Z,817347.495,NULL,Schock,mshtuko,s,biashara,kukataza,vichekesho,NA,sdf,NA,5,NA,NA,NA,NA,NA,NA,NA,NA,NA,NA,NA,NA,NA,NA,NA,NA,NA,NA,NA
b8d3d,task,flow.Sequence,3_0_5_0_7,NA,NA,completion,8284.812,809037,809030.046,809046.338,817331.15,817339.5,2023-03-07T10:11:02Z,817347.495,NULL,Schock,mshtuko,s,biashara,kukataza,vichekesho,NA,sdf,NA,5,NA,NA,NA,NA,NA,NA,NA,NA,NA,NA,NA,NA,NA,NA,NA,NA,NA,NA,NA
b8d3d,block,flow.Loop,3_0_5_0,NA,NA,completion,82109.847,735193.4,735187.482,735221.303,817331.15,817339.6,2023-03-07T10:11:02Z,817347.495,NULL,NA,NA,NA,NA,NA,NA,NA,sdf,NA,5,NA,NA,NA,NA,NA,NA,NA,NA,NA,NA,NA,NA,NA,NA,NA,NA,NA,NA,NA
b8d3d,weiter,canvas.Screen,3_0_5_1,sdf,keypress(Space),response,752.60499999963,817339.7,817331.15,817347.495,818100.1,818102.2,2023-03-07T10:11:03Z,818718.952,NULL,NA,NA,NA,NA,NA,NA,NA,sdf,NA,5,NA,NA,NA,NA,NA,NA,NA,NA,NA,NA,NA,NA,NA,NA,NA,NA,NA,NA,NA
b8d3d,check continue,flow.Sequence,3_0_5,NA,NA,completion,82878.797,735193.4,735187.482,735221.303,818100.1,818102.5,2023-03-07T10:11:03Z,818718.952,NULL,NA,NA,NA,NA,NA,NA,NA,sdf,NA,5,NA,NA,NA,NA,NA,NA,NA,NA,NA,NA,NA,NA,NA,NA,NA,NA,NA,NA,NA
b8d3d,check continue,flow.Sequence,3_0_6,NA,NA,skipped,NA,818158.4,NA,NA,818100.1,818159.5,2023-03-07T10:11:03Z,818718.952,NULL,NA,NA,NA,NA,NA,NA,NA,dfs,NA,6,NA,NA,NA,NA,NA,NA,NA,NA,NA,NA,NA,NA,NA,NA,NA,NA,NA,NA,NA
b8d3d,check continue,flow.Sequence,3_0_7,NA,NA,skipped,NA,818202.5,NA,NA,818100.1,818202.8,2023-03-07T10:11:03Z,818718.952,NULL,NA,NA,NA,NA,NA,NA,NA,df,NA,7,NA,NA,NA,NA,NA,NA,NA,NA,NA,NA,NA,NA,NA,NA,NA,NA,NA,NA,NA
b8d3d,check continue,flow.Sequence,3_0_8,NA,NA,skipped,NA,818241.4,NA,NA,818100.1,818241.6,2023-03-07T10:11:03Z,818718.952,NULL,NA,NA,NA,NA,NA,NA,NA,dfs,NA,8,NA,NA,NA,NA,NA,NA,NA,NA,NA,NA,NA,NA,NA,NA,NA,NA,NA,NA,NA
b8d3d,check continue,flow.Sequence,3_0_9,NA,NA,skipped,NA,818276.6,NA,NA,818100.1,818276.7,2023-03-07T10:11:03Z,818718.952,NULL,NA,NA,NA,NA,NA,NA,NA,dsf,NA,9,NA,NA,NA,NA,NA,NA,NA,NA,NA,NA,NA,NA,NA,NA,NA,NA,NA,NA,NA
b8d3d,check continue,flow.Sequence,3_0_10,NA,NA,skipped,NA,818298.2,NA,NA,818100.1,818298.3,2023-03-07T10:11:03Z,818718.952,NULL,NA,NA,NA,NA,NA,NA,NA,df,NA,10,NA,NA,NA,NA,NA,NA,NA,NA,NA,NA,NA,NA,NA,NA,NA,NA,NA,NA,NA
b8d3d,check continue,flow.Sequence,3_0_11,NA,NA,skipped,NA,818333.6,NA,NA,818100.1,818333.9,2023-03-07T10:11:03Z,818718.952,NULL,NA,NA,NA,NA,NA,NA,NA,dfs,NA,11,NA,NA,NA,NA,NA,NA,NA,NA,NA,NA,NA,NA,NA,NA,NA,NA,NA,NA,NA
b8d3d,check continue,flow.Sequence,3_0_12,NA,NA,skipped,NA,818367.2,NA,NA,818100.1,818367.4,2023-03-07T10:11:03Z,818718.952,NULL,NA,NA,NA,NA,NA,NA,NA,dsf,NA,12,NA,NA,NA,NA,NA,NA,NA,NA,NA,NA,NA,NA,NA,NA,NA,NA,NA,NA,NA
b8d3d,check continue,flow.Sequence,3_0_13,NA,NA,skipped,NA,818397.5,NA,NA,818100.1,818397.7,2023-03-07T10:11:03Z,818718.952,NULL,NA,NA,NA,NA,NA,NA,NA,dsf,NA,13,NA,NA,NA,NA,NA,NA,NA,NA,NA,NA,NA,NA,NA,NA,NA,NA,NA,NA,NA
b8d3d,check continue,flow.Sequence,3_0_14,NA,NA,skipped,NA,818419.1,NA,NA,818100.1,818419.2,2023-03-07T10:11:03Z,818718.952,NULL,NA,NA,NA,NA,NA,NA,NA,NA,NA,14,NA,NA,NA,NA,NA,NA,NA,NA,NA,NA,NA,NA,NA,NA,NA,NA,NA,NA,NA
b8d3d,check continue,flow.Sequence,3_0_15,NA,NA,skipped,NA,818440.1,NA,NA,818100.1,818440.2,2023-03-07T10:11:04Z,818718.952,NULL,NA,NA,NA,NA,NA,NA,NA,NA,NA,15,NA,NA,NA,NA,NA,NA,NA,NA,NA,NA,NA,NA,NA,NA,NA,NA,NA,NA,NA
b8d3d,check continue,flow.Sequence,3_0_16,NA,NA,skipped,NA,818457.8,NA,NA,818100.1,818458,2023-03-07T10:11:04Z,818718.952,NULL,NA,NA,NA,NA,NA,NA,NA,NA,NA,16,NA,NA,NA,NA,NA,NA,NA,NA,NA,NA,NA,NA,NA,NA,NA,NA,NA,NA,NA
b8d3d,check continue,flow.Sequence,3_0_17,NA,NA,skipped,NA,818480.3,NA,NA,818100.1,818480.5,2023-03-07T10:11:04Z,818718.952,NULL,NA,NA,NA,NA,NA,NA,NA,NA,NA,17,NA,NA,NA,NA,NA,NA,NA,NA,NA,NA,NA,NA,NA,NA,NA,NA,NA,NA,NA
b8d3d,check continue,flow.Sequence,3_0_18,NA,NA,skipped,NA,818502.5,NA,NA,818100.1,818502.7,2023-03-07T10:11:04Z,818718.952,NULL,NA,NA,NA,NA,NA,NA,NA,NA,NA,18,NA,NA,NA,NA,NA,NA,NA,NA,NA,NA,NA,NA,NA,NA,NA,NA,NA,NA,NA
b8d3d,check continue,flow.Sequence,3_0_19,NA,NA,skipped,NA,818523.2,NA,NA,818100.1,818523.4,2023-03-07T10:11:04Z,818718.952,NULL,NA,NA,NA,NA,NA,NA,NA,NA,NA,19,NA,NA,NA,NA,NA,NA,NA,NA,NA,NA,NA,NA,NA,NA,NA,NA,NA,NA,NA
b8d3d,check continue,flow.Sequence,3_0_20,NA,NA,skipped,NA,818541.5,NA,NA,818100.1,818541.6,2023-03-07T10:11:04Z,818718.952,NULL,NA,NA,NA,NA,NA,NA,NA,NA,NA,20,NA,NA,NA,NA,NA,NA,NA,NA,NA,NA,NA,NA,NA,NA,NA,NA,NA,NA,NA
b8d3d,check continue,flow.Sequence,3_0_21,NA,NA,skipped,NA,818564.4,NA,NA,818100.1,818564.6,2023-03-07T10:11:04Z,818718.952,NULL,NA,NA,NA,NA,NA,NA,NA,NA,NA,21,NA,NA,NA,NA,NA,NA,NA,NA,NA,NA,NA,NA,NA,NA,NA,NA,NA,NA,NA
b8d3d,check continue,flow.Sequence,3_0_22,NA,NA,skipped,NA,818581.4,NA,NA,818100.1,818581.5,2023-03-07T10:11:04Z,818718.952,NULL,NA,NA,NA,NA,NA,NA,NA,NA,NA,22,NA,NA,NA,NA,NA,NA,NA,NA,NA,NA,NA,NA,NA,NA,NA,NA,NA,NA,NA
b8d3d,check continue,flow.Sequence,3_0_23,NA,NA,skipped,NA,818598.9,NA,NA,818100.1,818599,2023-03-07T10:11:04Z,818718.952,NULL,NA,NA,NA,NA,NA,NA,NA,NA,NA,23,NA,NA,NA,NA,NA,NA,NA,NA,NA,NA,NA,NA,NA,NA,NA,NA,NA,NA,NA
b8d3d,check continue,flow.Sequence,3_0_24,NA,NA,skipped,NA,818619.8,NA,NA,818100.1,818620,2023-03-07T10:11:04Z,818718.952,NULL,NA,NA,NA,NA,NA,NA,NA,NA,NA,24,NA,NA,NA,NA,NA,NA,NA,NA,NA,NA,NA,NA,NA,NA,NA,NA,NA,NA,NA
b8d3d,check continue,flow.Sequence,3_0_25,NA,NA,skipped,NA,818639.1,NA,NA,818100.1,818639.2,2023-03-07T10:11:04Z,818718.952,NULL,NA,NA,NA,NA,NA,NA,NA,NA,NA,25,NA,NA,NA,NA,NA,NA,NA,NA,NA,NA,NA,NA,NA,NA,NA,NA,NA,NA,NA
b8d3d,check continue,flow.Sequence,3_0_26,NA,NA,skipped,NA,818658.3,NA,NA,818100.1,818658.5,2023-03-07T10:11:04Z,818718.952,NULL,NA,NA,NA,NA,NA,NA,NA,NA,NA,26,NA,NA,NA,NA,NA,NA,NA,NA,NA,NA,NA,NA,NA,NA,NA,NA,NA,NA,NA
b8d3d,check continue,flow.Sequence,3_0_27,NA,NA,skipped,NA,818677.5,NA,NA,818100.1,818677.6,2023-03-07T10:11:04Z,818718.952,NULL,NA,NA,NA,NA,NA,NA,NA,NA,NA,27,NA,NA,NA,NA,NA,NA,NA,NA,NA,NA,NA,NA,NA,NA,NA,NA,NA,NA,NA
b8d3d,check continue,flow.Sequence,3_0_28,NA,NA,skipped,NA,818692.2,NA,NA,818100.1,818692.2,2023-03-07T10:11:04Z,818718.952,NULL,NA,NA,NA,NA,NA,NA,NA,NA,NA,28,NA,NA,NA,NA,NA,NA,NA,NA,NA,NA,NA,NA,NA,NA,NA,NA,NA,NA,NA
b8d3d,check continue,flow.Sequence,3_0_29,NA,NA,skipped,NA,818721.6,NA,NA,818100.1,818721.8,2023-03-07T10:11:04Z,818718.952,NULL,NA,NA,NA,NA,NA,NA,NA,NA,NA,29,NA,NA,NA,NA,NA,NA,NA,NA,NA,NA,NA,NA,NA,NA,NA,NA,NA,NA,NA
b8d3d,until continue,flow.Loop,3_0,NA,NA,completion,467493.679,350555.9,350586.775,350606.421,818100.1,818722,2023-03-07T10:11:04Z,818718.952,NULL,NA,NA,NA,NA,NA,NA,NA,NA,NA,NA,NA,NA,NA,NA,NA,NA,NA,NA,NA,NA,NA,NA,NA,NA,NA,NA,NA,NA,NA
b8d3d,block 1,flow.Sequence,3,NA,NA,completion,467493.679,350555.8,350586.775,350606.421,818100.1,818722.4,2023-03-07T10:11:04Z,818718.952,NULL,NA,NA,NA,NA,NA,NA,NA,NA,NA,NA,NA,NA,NA,NA,NA,NA,NA,NA,NA,NA,NA,NA,NA,NA,NA,NA,NA,NA,NA
b8d3d,1.Part Over,canvas.Screen,4,NA,keypress(Space),response,1751.4480000003,818722.4,818097.896,818718.952,820470.4,820472.5,2023-03-07T10:11:06Z,820612.474,NULL,NA,NA,NA,NA,NA,NA,NA,NA,NA,NA,NA,NA,NA,NA,NA,NA,NA,NA,NA,NA,NA,NA,NA,NA,NA,NA,NA,NA,NA
b8d3d,Deep Question,html.Page,5_0_0_0_0_0_0,NA,NA,form submission,2819.8259999988,820589.3,820578.645,820612.474,823432.3,823432.8,2023-03-07T10:11:09Z,823455.717,NULL,Ausschluss,kutengwa,d,NA,NA,NA,a,NA,NA,0,NA,NA,NA,NA,NA,NA,NA,NA,NA,NA,NA,NA,NA,NA,NA,NA,NA,NA,NA
b8d3d,"""Richtig""-Screen",canvas.Screen,5_0_0_0_0_0_1,NA,NA,skipped,NA,823436.7,NA,NA,823432.3,823436.9,2023-03-07T10:11:09Z,823455.717,NULL,Ausschluss,kutengwa,d,NA,NA,NA,NA,sdf,NA,0,NA,NA,NA,NA,NA,NA,NA,NA,NA,NA,NA,NA,NA,NA,NA,NA,NA,NA,NA
b8d3d,"""Falsch""-Screen",canvas.Screen,5_0_0_0_0_0_2,NA,NA,timeout,5003.92,823437.9,823430.901,823455.717,828443.321,828444.7,2023-03-07T10:11:14Z,828459.637,NULL,Ausschluss,kutengwa,d,NA,NA,NA,NA,sdf,0,0,NA,NA,NA,NA,NA,NA,NA,NA,NA,NA,NA,NA,NA,NA,NA,NA,NA,NA,NA
b8d3d,deep,flow.Sequence,5_0_0_0_0_0,NA,NA,completion,7830.847,820589.3,820578.645,820612.474,828443.321,828445.2,2023-03-07T10:11:14Z,828459.637,NULL,Ausschluss,kutengwa,d,NA,NA,NA,NA,sdf,NA,0,NA,NA,NA,NA,NA,NA,NA,NA,NA,NA,NA,NA,NA,NA,NA,NA,NA,NA,NA
b8d3d,shallow,flow.Sequence,5_0_0_0_0_1,NA,NA,skipped,NA,828445.4,NA,NA,828443.321,828445.5,2023-03-07T10:11:14Z,828459.637,NULL,Ausschluss,kutengwa,d,NA,NA,NA,NA,sdf,NA,0,NA,NA,NA,NA,NA,NA,NA,NA,NA,NA,NA,NA,NA,NA,NA,NA,NA,NA,NA
b8d3d,task,flow.Sequence,5_0_0_0_0,NA,NA,completion,7830.847,820589.2,820578.645,820612.474,828443.321,828445.6,2023-03-07T10:11:14Z,828459.637,NULL,Ausschluss,kutengwa,d,NA,NA,NA,NA,sdf,NA,0,NA,NA,NA,NA,NA,NA,NA,NA,NA,NA,NA,NA,NA,NA,NA,NA,NA,NA,NA
b8d3d,deep,flow.Sequence,5_0_0_0_1_0,NA,NA,skipped,NA,828445.9,NA,NA,828443.321,828446,2023-03-07T10:11:14Z,828459.637,NULL,Widerstand,usulubu,s,kusababisha,mwalimu,mwenendo,NA,sdf,NA,0,NA,NA,NA,NA,NA,NA,NA,NA,NA,NA,NA,NA,NA,NA,NA,NA,NA,NA,NA
b8d3d,Shallow Question,html.Page,5_0_0_0_1_1_0,NA,NA,form submission,7045.1629999989,828446.2,828443.321,828459.637,835504.8,835505.3,2023-03-07T10:11:21Z,835510.047,NULL,Widerstand,usulubu,s,kusababisha,mwalimu,mwenendo,usulubu,NA,NA,0,NA,NA,NA,NA,NA,NA,NA,NA,NA,NA,NA,NA,NA,NA,NA,NA,NA,NA,NA
b8d3d,"""Richtig""-Screen",canvas.Screen,5_0_0_0_1_1_1,NA,NA,timeout,5005.5599999999,835511.3,835494.084,835510.047,840497.657,840498.9,2023-03-07T10:11:26Z,840515.607,NULL,Widerstand,usulubu,s,kusababisha,mwalimu,mwenendo,NA,sdf,1,0,NA,NA,NA,NA,NA,NA,NA,NA,NA,NA,NA,NA,NA,NA,NA,NA,NA,NA,NA
