observation,sender,sender_type,sender_id,response,response_action,ended_on,duration,time_run,time_render,time_show,time_end,time_commit,timestamp,time_switch,distractors,german,swahili,enc,distractor1,distractor2,distractor3,response_2,x,correct,x_2,url_vp,url_sess,meta_labjs_version,meta_location,meta_user_agent,meta_platform,meta_language,meta_locale,meta_time_zone,meta_timezone_offset,meta_screen_width,meta_screen_height,meta_scroll_width,meta_scroll_height,meta_window_inner_width,meta_window_inner_height,meta_device_pixel_ratio,meta_labjs_build_flavor,meta_labjs_build_commit
27eeb,Introduction general,canvas.Screen,0,weiter,keypress(q),response,286476.79299995,1713.5,746.707,1768065.007,2054541.8,2054553.3,2023-05-02T09:44:31Z,2054556.389,NULL,NA,NA,NA,NA,NA,NA,NA,NA,NA,NA,208,3,20.2.4,https://neurocog.fernuni.ch/studies/vweber/sfink/encoding_immediate/index.html?vp=208&sess=3,"Mozilla/5.0 (Windows NT 10.0; Win64; x64) AppleWebKit/537.36 (KHTML, like Gecko) Chrome/112.0.0.0 Safari/537.36",Win32,de-CH,de,Europe/Zurich,-120,1536,864,1536,706,1536,754,1.25,production,f5b4a49f956347addd546a832a3327688c2c0fef
27eeb,Introduction practice,canvas.Screen,1_0,NA,keypress(Space),response,6054.9109999523,2054554.5999999,2054538.686,2054556.389,2060611.3,2060612.5,2023-05-02T09:44:37Z,2060638.046,NULL,NA,NA,NA,NA,NA,NA,NA,NA,NA,NA,NA,NA,NA,NA,NA,NA,NA,NA,NA,NA,NA,NA,NA,NA,NA,NA,NA,NA,NA
27eeb,deep,flow.Sequence,1_1_0_0,NA,NA,skipped,NA,2060613,NA,NA,2060611.3,2060616.9000001,2023-05-02T09:44:37Z,2060638.046,"c(""distractor1"", ""distractor2"", ""distractor3"")",Rückhalt,msaada,s,muhula,auwali,kiwimbe,NA,NA,NA,NA,NA,NA,NA,NA,NA,NA,NA,NA,NA,NA,NA,NA,NA,NA,NA,NA,NA,NA,NA
27eeb,Shallow Question,html.Page,1_1_0_1_0,NA,NA,form submission,17266.854000095,2060617.3,2060609.993,2060638.046,2077904.9000001,2077905.0999999,2023-05-02T09:44:54Z,2077914.515,"c(""distractor1"", ""distractor2"", ""distractor3"")",Rückhalt,msaada,s,muhula,auwali,kiwimbe,msaada,NA,NA,NA,NA,NA,NA,NA,NA,NA,NA,NA,NA,NA,NA,NA,NA,NA,NA,NA,NA,NA,NA
27eeb,"""Richtig""-Screen",canvas.Screen,1_1_0_1_1,NA,NA,timeout,4994.7120000001,2077906.2,2077888.199,2077914.515,2082893.11,2082898.2,2023-05-02T09:44:59Z,2082909.227,"c(""distractor1"", ""distractor2"", ""distractor3"")",Rückhalt,msaada,s,muhula,auwali,kiwimbe,NA,NA,1,NA,NA,NA,NA,NA,NA,NA,NA,NA,NA,NA,NA,NA,NA,NA,NA,NA,NA,NA,NA
27eeb,"""Falsch""-Screen",canvas.Screen,1_1_0_1_2,NA,NA,skipped,NA,2082901.2,NA,NA,2082893.11,2082901.5,2023-05-02T09:44:59Z,2082909.227,"c(""distractor1"", ""distractor2"", ""distractor3"")",Rückhalt,msaada,s,muhula,auwali,kiwimbe,NA,NA,NA,NA,NA,NA,NA,NA,NA,NA,NA,NA,NA,NA,NA,NA,NA,NA,NA,NA,NA,NA,NA
27eeb,shallow,flow.Sequence,1_1_0_1,NA,NA,completion,22255.064,2060617.2,2060609.993,2060638.046,2082893.11,2082902,2023-05-02T09:44:59Z,2082909.227,"c(""distractor1"", ""distractor2"", ""distractor3"")",Rückhalt,msaada,s,muhula,auwali,kiwimbe,NA,NA,NA,NA,NA,NA,NA,NA,NA,NA,NA,NA,NA,NA,NA,NA,NA,NA,NA,NA,NA,NA,NA
27eeb,task,flow.Sequence,1_1_0,NA,NA,completion,22255.064,2060612.9000001,2060609.993,2060638.046,2082893.11,2082902.4000001,2023-05-02T09:44:59Z,2082909.227,"c(""distractor1"", ""distractor2"", ""distractor3"")",Rückhalt,msaada,s,muhula,auwali,kiwimbe,NA,NA,NA,NA,NA,NA,NA,NA,NA,NA,NA,NA,NA,NA,NA,NA,NA,NA,NA,NA,NA,NA,NA
27eeb,Deep Question,html.Page,1_1_1_0_0,NA,NA,form submission,4836.3729999047,2082902.8,2082893.11,2082909.227,2087745.5999999,2087745.9000001,2023-05-02T09:45:04Z,2087761.684,"c(""distractor1"", ""distractor2"", ""distractor3"")",Schatten,kivuli,d,NA,NA,NA,klo,NA,NA,NA,NA,NA,NA,NA,NA,NA,NA,NA,NA,NA,NA,NA,NA,NA,NA,NA,NA,NA,NA
27eeb,"""Richtig""-Screen",canvas.Screen,1_1_1_0_1,NA,NA,skipped,NA,2087748,NA,NA,2087745.5999999,2087748.2,2023-05-02T09:45:04Z,2087761.684,"c(""distractor1"", ""distractor2"", ""distractor3"")",Schatten,kivuli,d,NA,NA,NA,NA,NA,NA,NA,NA,NA,NA,NA,NA,NA,NA,NA,NA,NA,NA,NA,NA,NA,NA,NA,NA,NA,NA
27eeb,"""Falsch""-Screen",canvas.Screen,1_1_1_0_2,NA,NA,timeout,4995.5180000002,2087749.0999999,2087736.855,2087761.684,2092741.221,2092742.5999999,2023-05-02T09:45:09Z,2092757.202,"c(""distractor1"", ""distractor2"", ""distractor3"")",Schatten,kivuli,d,NA,NA,NA,NA,NA,0,NA,NA,NA,NA,NA,NA,NA,NA,NA,NA,NA,NA,NA,NA,NA,NA,NA,NA,NA,NA
27eeb,deep,flow.Sequence,1_1_1_0,NA,NA,completion,9831.9939999999,2082902.7,2082893.11,2082909.227,2092741.221,2092743.2,2023-05-02T09:45:09Z,2092757.202,"c(""distractor1"", ""distractor2"", ""distractor3"")",Schatten,kivuli,d,NA,NA,NA,NA,NA,NA,NA,NA,NA,NA,NA,NA,NA,NA,NA,NA,NA,NA,NA,NA,NA,NA,NA,NA,NA,NA
27eeb,shallow,flow.Sequence,1_1_1_1,NA,NA,skipped,NA,2092743.4000001,NA,NA,2092741.221,2092743.7,2023-05-02T09:45:09Z,2092757.202,"c(""distractor1"", ""distractor2"", ""distractor3"")",Schatten,kivuli,d,NA,NA,NA,NA,NA,NA,NA,NA,NA,NA,NA,NA,NA,NA,NA,NA,NA,NA,NA,NA,NA,NA,NA,NA,NA,NA
27eeb,task,flow.Sequence,1_1_1,NA,NA,completion,9831.9939999999,2082902.5,2082893.11,2082909.227,2092741.221,2092744.0999999,2023-05-02T09:45:09Z,2092757.202,"c(""distractor1"", ""distractor2"", ""distractor3"")",Schatten,kivuli,d,NA,NA,NA,NA,NA,NA,NA,NA,NA,NA,NA,NA,NA,NA,NA,NA,NA,NA,NA,NA,NA,NA,NA,NA,NA,NA
27eeb,deep,flow.Sequence,1_1_2_0,NA,NA,skipped,NA,2092744.4000001,NA,NA,2092741.221,2092744.5999999,2023-05-02T09:45:09Z,2092757.202,"c(""distractor1"", ""distractor2"", ""distractor3"")",Kritik,lawama,s,dereva,nafasi,mawazo,NA,NA,NA,NA,NA,NA,NA,NA,NA,NA,NA,NA,NA,NA,NA,NA,NA,NA,NA,NA,NA,NA,NA
27eeb,Shallow Question,html.Page,1_1_2_1_0,NA,NA,form submission,7417.8979999046,2092744.9000001,2092741.221,2092757.202,2100175.0999999,2100175.3,2023-05-02T09:45:16Z,2100186.654,"c(""distractor1"", ""distractor2"", ""distractor3"")",Kritik,lawama,s,dereva,nafasi,mawazo,mawazo,NA,NA,NA,NA,NA,NA,NA,NA,NA,NA,NA,NA,NA,NA,NA,NA,NA,NA,NA,NA,NA,NA
27eeb,"""Richtig""-Screen",canvas.Screen,1_1_2_1_1,NA,NA,skipped,NA,2100177.3,NA,NA,2100175.0999999,2100177.5,2023-05-02T09:45:16Z,2100186.654,"c(""distractor1"", ""distractor2"", ""distractor3"")",Kritik,lawama,s,dereva,nafasi,mawazo,NA,NA,NA,NA,NA,NA,NA,NA,NA,NA,NA,NA,NA,NA,NA,NA,NA,NA,NA,NA,NA,NA,NA
27eeb,"""Falsch""-Screen",canvas.Screen,1_1_2_1_2,NA,NA,timeout,4991.3109999998,2100178.2,2100161.093,2100186.654,2105161.958,2105163.0999999,2023-05-02T09:45:21Z,2105177.965,"c(""distractor1"", ""distractor2"", ""distractor3"")",Kritik,lawama,s,dereva,nafasi,mawazo,NA,NA,0,NA,NA,NA,NA,NA,NA,NA,NA,NA,NA,NA,NA,NA,NA,NA,NA,NA,NA,NA,NA
27eeb,shallow,flow.Sequence,1_1_2_1,NA,NA,completion,12404.756,2092744.8,2092741.221,2092757.202,2105161.958,2105163.5,2023-05-02T09:45:21Z,2105177.965,"c(""distractor1"", ""distractor2"", ""distractor3"")",Kritik,lawama,s,dereva,nafasi,mawazo,NA,NA,NA,NA,NA,NA,NA,NA,NA,NA,NA,NA,NA,NA,NA,NA,NA,NA,NA,NA,NA,NA,NA
27eeb,task,flow.Sequence,1_1_2,NA,NA,completion,12404.756,2092744.3,2092741.221,2092757.202,2105161.958,2105163.8,2023-05-02T09:45:21Z,2105177.965,"c(""distractor1"", ""distractor2"", ""distractor3"")",Kritik,lawama,s,dereva,nafasi,mawazo,NA,NA,NA,NA,NA,NA,NA,NA,NA,NA,NA,NA,NA,NA,NA,NA,NA,NA,NA,NA,NA,NA,NA
27eeb,deep,flow.Sequence,1_1_3_0,NA,NA,skipped,NA,2105164.0999999,NA,NA,2105161.958,2105164.3,2023-05-02T09:45:21Z,2105177.965,"c(""distractor1"", ""distractor2"", ""distractor3"")",Gegenwart,hadhara,s,katiba,jokofu,mikopo,NA,NA,NA,NA,NA,NA,NA,NA,NA,NA,NA,NA,NA,NA,NA,NA,NA,NA,NA,NA,NA,NA,NA
27eeb,Shallow Question,html.Page,1_1_3_1_0,NA,NA,form submission,7953.0350000001,2105164.5,2105161.958,2105177.965,2113131,2113131.2,2023-05-02T09:45:29Z,2113144.619,"c(""distractor1"", ""distractor2"", ""distractor3"")",Gegenwart,hadhara,s,katiba,jokofu,mikopo,katiba,NA,NA,NA,NA,NA,NA,NA,NA,NA,NA,NA,NA,NA,NA,NA,NA,NA,NA,NA,NA,NA,NA
27eeb,"""Richtig""-Screen",canvas.Screen,1_1_3_1_1,NA,NA,skipped,NA,2113133.2,NA,NA,2113131,2113133.4000001,2023-05-02T09:45:29Z,2113144.619,"c(""distractor1"", ""distractor2"", ""distractor3"")",Gegenwart,hadhara,s,katiba,jokofu,mikopo,NA,NA,NA,NA,NA,NA,NA,NA,NA,NA,NA,NA,NA,NA,NA,NA,NA,NA,NA,NA,NA,NA,NA
27eeb,"""Falsch""-Screen",canvas.Screen,1_1_3_1_2,NA,NA,timeout,5004.1779999998,2113134,2113127.913,2113144.619,2118132.166,2118133.0999999,2023-05-02T09:45:34Z,2118148.797,"c(""distractor1"", ""distractor2"", ""distractor3"")",Gegenwart,hadhara,s,katiba,jokofu,mikopo,NA,NA,0,NA,NA,NA,NA,NA,NA,NA,NA,NA,NA,NA,NA,NA,NA,NA,NA,NA,NA,NA,NA
27eeb,shallow,flow.Sequence,1_1_3_1,NA,NA,completion,12954.201,2105164.4000001,2105161.958,2105177.965,2118132.166,2118133.7,2023-05-02T09:45:34Z,2118148.797,"c(""distractor1"", ""distractor2"", ""distractor3"")",Gegenwart,hadhara,s,katiba,jokofu,mikopo,NA,NA,NA,NA,NA,NA,NA,NA,NA,NA,NA,NA,NA,NA,NA,NA,NA,NA,NA,NA,NA,NA,NA
27eeb,task,flow.Sequence,1_1_3,NA,NA,completion,12954.201,2105164,2105161.958,2105177.965,2118132.166,2118133.9000001,2023-05-02T09:45:34Z,2118148.797,"c(""distractor1"", ""distractor2"", ""distractor3"")",Gegenwart,hadhara,s,katiba,jokofu,mikopo,NA,NA,NA,NA,NA,NA,NA,NA,NA,NA,NA,NA,NA,NA,NA,NA,NA,NA,NA,NA,NA,NA,NA
27eeb,Deep Question,html.Page,1_1_4_0_0,NA,NA,form submission,6543.5029999525,2118134.3,2118132.166,2118148.797,2124692.3,2124692.5,2023-05-02T09:45:41Z,2124705.222,"c(""distractor1"", ""distractor2"", ""distractor3"")",Qualität,mtindo,d,NA,NA,NA,med,NA,NA,NA,NA,NA,NA,NA,NA,NA,NA,NA,NA,NA,NA,NA,NA,NA,NA,NA,NA,NA,NA
27eeb,"""Richtig""-Screen",canvas.Screen,1_1_4_0_1,NA,NA,skipped,NA,2124694.5999999,NA,NA,2124692.3,2124694.8,2023-05-02T09:45:41Z,2124705.222,"c(""distractor1"", ""distractor2"", ""distractor3"")",Qualität,mtindo,d,NA,NA,NA,NA,NA,NA,NA,NA,NA,NA,NA,NA,NA,NA,NA,NA,NA,NA,NA,NA,NA,NA,NA,NA,NA,NA
27eeb,"""Falsch""-Screen",canvas.Screen,1_1_4_0_2,NA,NA,timeout,4995.3989999997,2124695.5,2124688.876,2124705.222,2129683.982,2129690.5,2023-05-02T09:45:46Z,2129700.621,"c(""distractor1"", ""distractor2"", ""distractor3"")",Qualität,mtindo,d,NA,NA,NA,NA,NA,0,NA,NA,NA,NA,NA,NA,NA,NA,NA,NA,NA,NA,NA,NA,NA,NA,NA,NA,NA,NA
27eeb,deep,flow.Sequence,1_1_4_0,NA,NA,completion,11535.185,2118134.2,2118132.166,2118148.797,2129683.982,2129690.9000001,2023-05-02T09:45:46Z,2129700.621,"c(""distractor1"", ""distractor2"", ""distractor3"")",Qualität,mtindo,d,NA,NA,NA,NA,NA,NA,NA,NA,NA,NA,NA,NA,NA,NA,NA,NA,NA,NA,NA,NA,NA,NA,NA,NA,NA,NA
27eeb,shallow,flow.Sequence,1_1_4_1,NA,NA,skipped,NA,2129691,NA,NA,2129683.982,2129691.2,2023-05-02T09:45:46Z,2129700.621,"c(""distractor1"", ""distractor2"", ""distractor3"")",Qualität,mtindo,d,NA,NA,NA,NA,NA,NA,NA,NA,NA,NA,NA,NA,NA,NA,NA,NA,NA,NA,NA,NA,NA,NA,NA,NA,NA,NA
27eeb,task,flow.Sequence,1_1_4,NA,NA,completion,11535.185,2118134.0999999,2118132.166,2118148.797,2129683.982,2129691.5,2023-05-02T09:45:46Z,2129700.621,"c(""distractor1"", ""distractor2"", ""distractor3"")",Qualität,mtindo,d,NA,NA,NA,NA,NA,NA,NA,NA,NA,NA,NA,NA,NA,NA,NA,NA,NA,NA,NA,NA,NA,NA,NA,NA,NA,NA
27eeb,Deep Question,html.Page,1_1_5_0_0,NA,NA,form submission,9480.2790000956,2129691.8,2129683.982,2129700.621,2139180.9000001,2139181.2,2023-05-02T09:45:55Z,2139182.257,"c(""distractor1"", ""distractor2"", ""distractor3"")",Gesundheit,salama,d,NA,NA,NA,klp,NA,NA,NA,NA,NA,NA,NA,NA,NA,NA,NA,NA,NA,NA,NA,NA,NA,NA,NA,NA,NA,NA
27eeb,"""Richtig""-Screen",canvas.Screen,1_1_5_0_1,NA,NA,skipped,NA,2139183.4000001,NA,NA,2139180.9000001,2139183.5,2023-05-02T09:45:55Z,2139182.257,"c(""distractor1"", ""distractor2"", ""distractor3"")",Gesundheit,salama,d,NA,NA,NA,NA,NA,NA,NA,NA,NA,NA,NA,NA,NA,NA,NA,NA,NA,NA,NA,NA,NA,NA,NA,NA,NA,NA
27eeb,"""Falsch""-Screen",canvas.Screen,1_1_5_0_2,NA,NA,timeout,4995.8159999996,2139184.2,2139169.729,2139182.257,2144161.929,2144163.0999999,2023-05-02T09:46:00Z,2144178.073,"c(""distractor1"", ""distractor2"", ""distractor3"")",Gesundheit,salama,d,NA,NA,NA,NA,NA,0,NA,NA,NA,NA,NA,NA,NA,NA,NA,NA,NA,NA,NA,NA,NA,NA,NA,NA,NA,NA
27eeb,deep,flow.Sequence,1_1_5_0,NA,NA,completion,14461.308,2129691.5999999,2129683.982,2129700.621,2144161.929,2144163.5,2023-05-02T09:46:00Z,2144178.073,"c(""distractor1"", ""distractor2"", ""distractor3"")",Gesundheit,salama,d,NA,NA,NA,NA,NA,NA,NA,NA,NA,NA,NA,NA,NA,NA,NA,NA,NA,NA,NA,NA,NA,NA,NA,NA,NA,NA
27eeb,shallow,flow.Sequence,1_1_5_1,NA,NA,skipped,NA,2144163.7,NA,NA,2144161.929,2144163.9000001,2023-05-02T09:46:00Z,2144178.073,"c(""distractor1"", ""distractor2"", ""distractor3"")",Gesundheit,salama,d,NA,NA,NA,NA,NA,NA,NA,NA,NA,NA,NA,NA,NA,NA,NA,NA,NA,NA,NA,NA,NA,NA,NA,NA,NA,NA
27eeb,task,flow.Sequence,1_1_5,NA,NA,completion,14461.308,2129691.5999999,2129683.982,2129700.621,2144161.929,2144164.2,2023-05-02T09:46:00Z,2144178.073,"c(""distractor1"", ""distractor2"", ""distractor3"")",Gesundheit,salama,d,NA,NA,NA,NA,NA,NA,NA,NA,NA,NA,NA,NA,NA,NA,NA,NA,NA,NA,NA,NA,NA,NA,NA,NA,NA,NA
27eeb,block,flow.Loop,1_1,NA,NA,completion,83523.883,2060612.9000001,2060609.993,2060638.046,2144161.929,2144164.5999999,2023-05-02T09:46:00Z,2144178.073,"c(""distractor1"", ""distractor2"", ""distractor3"")",NA,NA,NA,NA,NA,NA,NA,NA,NA,NA,NA,NA,NA,NA,NA,NA,NA,NA,NA,NA,NA,NA,NA,NA,NA,NA,NA,NA,NA
27eeb,Practice,flow.Sequence,1,NA,NA,completion,89605.54,2054554.4000001,2054538.686,2054556.389,2144161.929,2144164.9000001,2023-05-02T09:46:00Z,2144178.073,NULL,NA,NA,NA,NA,NA,NA,NA,NA,NA,NA,NA,NA,NA,NA,NA,NA,NA,NA,NA,NA,NA,NA,NA,NA,NA,NA,NA,NA,NA
27eeb,Experiment start,canvas.Screen,2,weiter,keypress(q),response,6672.2269999525,2144165.0999999,2144161.929,2144178.073,2150850.3,2150851.4000001,2023-05-02T09:46:07Z,2151019.549,NULL,NA,NA,NA,NA,NA,NA,NA,NA,NA,NA,NA,NA,NA,NA,NA,NA,NA,NA,NA,NA,NA,NA,NA,NA,NA,NA,NA,NA,NA
27eeb,deep,flow.Sequence,3_0_0_0_0_0,NA,NA,skipped,NA,2151005.4000001,NA,NA,2150850.3,2151005.5999999,2023-05-02T09:46:07Z,2151019.549,NULL,Erneuerung,ukarabati,s,ushawishi,ukalifu,unyonyaji,NA,sdf,NA,0,NA,NA,NA,NA,NA,NA,NA,NA,NA,NA,NA,NA,NA,NA,NA,NA,NA,NA,NA
27eeb,Shallow Question,html.Page,3_0_0_0_0_1_0,NA,NA,form submission,10864.050999905,2151005.7,2151005.776,2151019.549,2161883.5999999,2161883.9000001,2023-05-02T09:46:18Z,2161899.391,NULL,Erneuerung,ukarabati,s,ushawishi,ukalifu,unyonyaji,ushawishi,NA,NA,0,NA,NA,NA,NA,NA,NA,NA,NA,NA,NA,NA,NA,NA,NA,NA,NA,NA,NA,NA
27eeb,"""Richtig""-Screen",canvas.Screen,3_0_0_0_0_1_1,NA,NA,skipped,NA,2161885.9000001,NA,NA,2161883.5999999,2161886,2023-05-02T09:46:18Z,2161899.391,NULL,Erneuerung,ukarabati,s,ushawishi,ukalifu,unyonyaji,NA,sdf,NA,0,NA,NA,NA,NA,NA,NA,NA,NA,NA,NA,NA,NA,NA,NA,NA,NA,NA,NA,NA
27eeb,"""Falsch""-Screen",canvas.Screen,3_0_0_0_0_1_2,NA,NA,timeout,4991.5590000004,2161886.5,2161870.183,2161899.391,2166874.555,2166875.7,2023-05-02T09:46:23Z,2166890.95,NULL,Erneuerung,ukarabati,s,ushawishi,ukalifu,unyonyaji,NA,sdf,0,0,NA,NA,NA,NA,NA,NA,NA,NA,NA,NA,NA,NA,NA,NA,NA,NA,NA,NA,NA
27eeb,shallow,flow.Sequence,3_0_0_0_0_1,NA,NA,completion,15855.006,2151005.5999999,2151005.776,2151019.549,2166874.555,2166876.2,2023-05-02T09:46:23Z,2166890.95,NULL,Erneuerung,ukarabati,s,ushawishi,ukalifu,unyonyaji,NA,sdf,NA,0,NA,NA,NA,NA,NA,NA,NA,NA,NA,NA,NA,NA,NA,NA,NA,NA,NA,NA,NA
27eeb,task,flow.Sequence,3_0_0_0_0,NA,NA,completion,15855.006,2151005.4000001,2151005.776,2151019.549,2166874.555,2166876.4000001,2023-05-02T09:46:23Z,2166890.95,NULL,Erneuerung,ukarabati,s,ushawishi,ukalifu,unyonyaji,NA,sdf,NA,0,NA,NA,NA,NA,NA,NA,NA,NA,NA,NA,NA,NA,NA,NA,NA,NA,NA,NA,NA
27eeb,deep,flow.Sequence,3_0_0_0_1_0,NA,NA,skipped,NA,2166876.5999999,NA,NA,2166874.555,2166876.8,2023-05-02T09:46:23Z,2166890.95,NULL,Wechsel,ugeuzaji,s,utambulisho,kujenga,wasiwasi,NA,sdf,NA,0,NA,NA,NA,NA,NA,NA,NA,NA,NA,NA,NA,NA,NA,NA,NA,NA,NA,NA,NA
27eeb,Shallow Question,html.Page,3_0_0_0_1_1_0,NA,NA,form submission,5398.7500000475,2166876.9000001,2166874.555,2166890.95,2172289.7,2172289.9000001,2023-05-02T09:46:28Z,2172296.475,NULL,Wechsel,ugeuzaji,s,utambulisho,kujenga,wasiwasi,wasiwasi,NA,NA,0,NA,NA,NA,NA,NA,NA,NA,NA,NA,NA,NA,NA,NA,NA,NA,NA,NA,NA,NA
27eeb,"""Richtig""-Screen",canvas.Screen,3_0_0_0_1_1_1,NA,NA,skipped,NA,2172291.9000001,NA,NA,2172289.7,2172292,2023-05-02T09:46:28Z,2172296.475,NULL,Wechsel,ugeuzaji,s,utambulisho,kujenga,wasiwasi,NA,sdf,NA,0,NA,NA,NA,NA,NA,NA,NA,NA,NA,NA,NA,NA,NA,NA,NA,NA,NA,NA,NA
27eeb,"""Falsch""-Screen",canvas.Screen,3_0_0_0_1_1_2,NA,NA,timeout,4996.1599999997,2172292.5999999,2172280.14,2172296.475,2177275.995,2177277,2023-05-02T09:46:33Z,2177292.635,NULL,Wechsel,ugeuzaji,s,utambulisho,kujenga,wasiwasi,NA,sdf,0,0,NA,NA,NA,NA,NA,NA,NA,NA,NA,NA,NA,NA,NA,NA,NA,NA,NA,NA,NA
27eeb,shallow,flow.Sequence,3_0_0_0_1_1,NA,NA,completion,10385.045,2166876.8,2166874.555,2166890.95,2177275.995,2177277.3,2023-05-02T09:46:33Z,2177292.635,NULL,Wechsel,ugeuzaji,s,utambulisho,kujenga,wasiwasi,NA,sdf,NA,0,NA,NA,NA,NA,NA,NA,NA,NA,NA,NA,NA,NA,NA,NA,NA,NA,NA,NA,NA
27eeb,task,flow.Sequence,3_0_0_0_1,NA,NA,completion,10385.045,2166876.5999999,2166874.555,2166890.95,2177275.995,2177277.5,2023-05-02T09:46:33Z,2177292.635,NULL,Wechsel,ugeuzaji,s,utambulisho,kujenga,wasiwasi,NA,sdf,NA,0,NA,NA,NA,NA,NA,NA,NA,NA,NA,NA,NA,NA,NA,NA,NA,NA,NA,NA,NA
27eeb,Deep Question,html.Page,3_0_0_0_2_0_0,NA,NA,form submission,5308.3650000002,2177277.8,2177275.995,2177292.635,2182601,2182601.0999999,2023-05-02T09:46:39Z,2182602.889,NULL,Atmosphäre,angahewa,d,NA,NA,NA,bez,NA,NA,0,NA,NA,NA,NA,NA,NA,NA,NA,NA,NA,NA,NA,NA,NA,NA,NA,NA,NA,NA
27eeb,"""Richtig""-Screen",canvas.Screen,3_0_0_0_2_0_1,NA,NA,skipped,NA,2182603.4000001,NA,NA,2182601,2182603.5999999,2023-05-02T09:46:39Z,2182602.889,NULL,Atmosphäre,angahewa,d,NA,NA,NA,NA,sdf,NA,0,NA,NA,NA,NA,NA,NA,NA,NA,NA,NA,NA,NA,NA,NA,NA,NA,NA,NA,NA
27eeb,"""Falsch""-Screen",canvas.Screen,3_0_0_0_2_0_2,NA,NA,timeout,4996.2209999999,2182604.3,2182594.834,2182602.889,2187582.542,2187583.5,2023-05-02T09:46:44Z,2187599.11,NULL,Atmosphäre,angahewa,d,NA,NA,NA,NA,sdf,0,0,NA,NA,NA,NA,NA,NA,NA,NA,NA,NA,NA,NA,NA,NA,NA,NA,NA,NA,NA
27eeb,deep,flow.Sequence,3_0_0_0_2_0,NA,NA,completion,10289.907,2177277.7,2177275.995,2177292.635,2187582.542,2187583.9000001,2023-05-02T09:46:44Z,2187599.11,NULL,Atmosphäre,angahewa,d,NA,NA,NA,NA,sdf,NA,0,NA,NA,NA,NA,NA,NA,NA,NA,NA,NA,NA,NA,NA,NA,NA,NA,NA,NA,NA
27eeb,shallow,flow.Sequence,3_0_0_0_2_1,NA,NA,skipped,NA,2187584.0999999,NA,NA,2187582.542,2187584.3,2023-05-02T09:46:44Z,2187599.11,NULL,Atmosphäre,angahewa,d,NA,NA,NA,NA,sdf,NA,0,NA,NA,NA,NA,NA,NA,NA,NA,NA,NA,NA,NA,NA,NA,NA,NA,NA,NA,NA
27eeb,task,flow.Sequence,3_0_0_0_2,NA,NA,completion,10289.907,2177277.5999999,2177275.995,2177292.635,2187582.542,2187584.5,2023-05-02T09:46:44Z,2187599.11,NULL,Atmosphäre,angahewa,d,NA,NA,NA,NA,sdf,NA,0,NA,NA,NA,NA,NA,NA,NA,NA,NA,NA,NA,NA,NA,NA,NA,NA,NA,NA,NA
27eeb,Deep Question,html.Page,3_0_0_0_3_0_0,NA,NA,form submission,6296.6899999524,2187584.7,2187582.542,2187599.11,2193895.8,2193895.9000001,2023-05-02T09:46:50Z,2193897.351,NULL,Abrechnung,uhasibu,d,NA,NA,NA,mibo,NA,NA,0,NA,NA,NA,NA,NA,NA,NA,NA,NA,NA,NA,NA,NA,NA,NA,NA,NA,NA,NA
27eeb,"""Richtig""-Screen",canvas.Screen,3_0_0_0_3_0_1,NA,NA,skipped,NA,2193898.3,NA,NA,2193895.8,2193898.5,2023-05-02T09:46:50Z,2193897.351,NULL,Abrechnung,uhasibu,d,NA,NA,NA,NA,sdf,NA,0,NA,NA,NA,NA,NA,NA,NA,NA,NA,NA,NA,NA,NA,NA,NA,NA,NA,NA,NA
27eeb,"""Falsch""-Screen",canvas.Screen,3_0_0_0_3_0_2,NA,NA,timeout,4991.7980000004,2193899.0999999,2193884.83,2193897.351,2198872.707,2198873.9000001,2023-05-02T09:46:55Z,2198889.149,NULL,Abrechnung,uhasibu,d,NA,NA,NA,NA,sdf,0,0,NA,NA,NA,NA,NA,NA,NA,NA,NA,NA,NA,NA,NA,NA,NA,NA,NA,NA,NA
27eeb,deep,flow.Sequence,3_0_0_0_3_0,NA,NA,completion,11273.597,2187584.5999999,2187582.542,2187599.11,2198872.707,2198874.3,2023-05-02T09:46:55Z,2198889.149,NULL,Abrechnung,uhasibu,d,NA,NA,NA,NA,sdf,NA,0,NA,NA,NA,NA,NA,NA,NA,NA,NA,NA,NA,NA,NA,NA,NA,NA,NA,NA,NA
27eeb,shallow,flow.Sequence,3_0_0_0_3_1,NA,NA,skipped,NA,2198874.5,NA,NA,2198872.707,2198874.7,2023-05-02T09:46:55Z,2198889.149,NULL,Abrechnung,uhasibu,d,NA,NA,NA,NA,sdf,NA,0,NA,NA,NA,NA,NA,NA,NA,NA,NA,NA,NA,NA,NA,NA,NA,NA,NA,NA,NA
27eeb,task,flow.Sequence,3_0_0_0_3,NA,NA,completion,11273.597,2187584.5999999,2187582.542,2187599.11,2198872.707,2198875,2023-05-02T09:46:55Z,2198889.149,NULL,Abrechnung,uhasibu,d,NA,NA,NA,NA,sdf,NA,0,NA,NA,NA,NA,NA,NA,NA,NA,NA,NA,NA,NA,NA,NA,NA,NA,NA,NA,NA
27eeb,deep,flow.Sequence,3_0_0_0_4_0,NA,NA,skipped,NA,2198875.2,NA,NA,2198872.707,2198875.3,2023-05-02T09:46:55Z,2198889.149,NULL,Angreifer,mshambulizi,s,kitengo,tasinia,usafirishaji,NA,sdf,NA,0,NA,NA,NA,NA,NA,NA,NA,NA,NA,NA,NA,NA,NA,NA,NA,NA,NA,NA,NA
27eeb,Shallow Question,html.Page,3_0_0_0_4_1_0,NA,NA,form submission,7792.0510000475,2198875.5999999,2198872.707,2198889.149,2206681.2,2206681.5,2023-05-02T09:47:03Z,2206692.692,NULL,Angreifer,mshambulizi,s,kitengo,tasinia,usafirishaji,kitengo,NA,NA,0,NA,NA,NA,NA,NA,NA,NA,NA,NA,NA,NA,NA,NA,NA,NA,NA,NA,NA,NA
27eeb,"""Richtig""-Screen",canvas.Screen,3_0_0_0_4_1_1,NA,NA,skipped,NA,2206683.3,NA,NA,2206681.2,2206683.5,2023-05-02T09:47:03Z,2206692.692,NULL,Angreifer,mshambulizi,s,kitengo,tasinia,usafirishaji,NA,sdf,NA,0,NA,NA,NA,NA,NA,NA,NA,NA,NA,NA,NA,NA,NA,NA,NA,NA,NA,NA,NA
27eeb,"""Falsch""-Screen",canvas.Screen,3_0_0_0_4_1_2,NA,NA,timeout,4999.443,2206684,2206667.708,2206692.692,2211675.486,2211676.5999999,2023-05-02T09:47:08Z,2211692.135,NULL,Angreifer,mshambulizi,s,kitengo,tasinia,usafirishaji,NA,sdf,0,0,NA,NA,NA,NA,NA,NA,NA,NA,NA,NA,NA,NA,NA,NA,NA,NA,NA,NA,NA
27eeb,shallow,flow.Sequence,3_0_0_0_4_1,NA,NA,completion,12786.337,2198875.5,2198872.707,2198889.149,2211675.486,2211677.2,2023-05-02T09:47:08Z,2211692.135,NULL,Angreifer,mshambulizi,s,kitengo,tasinia,usafirishaji,NA,sdf,NA,0,NA,NA,NA,NA,NA,NA,NA,NA,NA,NA,NA,NA,NA,NA,NA,NA,NA,NA,NA
27eeb,task,flow.Sequence,3_0_0_0_4,NA,NA,completion,12786.337,2198875.2,2198872.707,2198889.149,2211675.486,2211677.4000001,2023-05-02T09:47:08Z,2211692.135,NULL,Angreifer,mshambulizi,s,kitengo,tasinia,usafirishaji,NA,sdf,NA,0,NA,NA,NA,NA,NA,NA,NA,NA,NA,NA,NA,NA,NA,NA,NA,NA,NA,NA,NA
27eeb,Deep Question,html.Page,3_0_0_0_5_0_0,NA,NA,form submission,9307.7650000956,2211677.7,2211675.486,2211692.135,2220999.9000001,2221000.2,2023-05-02T09:47:17Z,2221019.033,NULL,Kanzler,diwani,d,NA,NA,NA,kent,NA,NA,0,NA,NA,NA,NA,NA,NA,NA,NA,NA,NA,NA,NA,NA,NA,NA,NA,NA,NA,NA
27eeb,"""Richtig""-Screen",canvas.Screen,3_0_0_0_5_0_1,NA,NA,skipped,NA,2221002.4000001,NA,NA,2220999.9000001,2221002.5999999,2023-05-02T09:47:17Z,2221019.033,NULL,Kanzler,diwani,d,NA,NA,NA,NA,sdf,NA,0,NA,NA,NA,NA,NA,NA,NA,NA,NA,NA,NA,NA,NA,NA,NA,NA,NA,NA,NA
27eeb,"""Falsch""-Screen",canvas.Screen,3_0_0_0_5_0_2,NA,NA,timeout,5007.611,2221003.3,2221001.784,2221019.033,2226010.308,2226011.3,2023-05-02T09:47:22Z,2226026.644,NULL,Kanzler,diwani,d,NA,NA,NA,NA,sdf,0,0,NA,NA,NA,NA,NA,NA,NA,NA,NA,NA,NA,NA,NA,NA,NA,NA,NA,NA,NA
27eeb,deep,flow.Sequence,3_0_0_0_5_0,NA,NA,completion,14318.173,2211677.5999999,2211675.486,2211692.135,2226010.308,2226011.8,2023-05-02T09:47:22Z,2226026.644,NULL,Kanzler,diwani,d,NA,NA,NA,NA,sdf,NA,0,NA,NA,NA,NA,NA,NA,NA,NA,NA,NA,NA,NA,NA,NA,NA,NA,NA,NA,NA
27eeb,shallow,flow.Sequence,3_0_0_0_5_1,NA,NA,skipped,NA,2226012,NA,NA,2226010.308,2226012.0999999,2023-05-02T09:47:22Z,2226026.644,NULL,Kanzler,diwani,d,NA,NA,NA,NA,sdf,NA,0,NA,NA,NA,NA,NA,NA,NA,NA,NA,NA,NA,NA,NA,NA,NA,NA,NA,NA,NA
27eeb,task,flow.Sequence,3_0_0_0_5,NA,NA,completion,14318.173,2211677.5999999,2211675.486,2211692.135,2226010.308,2226012.4000001,2023-05-02T09:47:22Z,2226026.644,NULL,Kanzler,diwani,d,NA,NA,NA,NA,sdf,NA,0,NA,NA,NA,NA,NA,NA,NA,NA,NA,NA,NA,NA,NA,NA,NA,NA,NA,NA,NA
27eeb,deep,flow.Sequence,3_0_0_0_6_0,NA,NA,skipped,NA,2226012.5999999,NA,NA,2226010.308,2226012.8,2023-05-02T09:47:22Z,2226026.644,NULL,Sänger,mwimbaji,s,msichana,shughuli,mshirika,NA,sdf,NA,0,NA,NA,NA,NA,NA,NA,NA,NA,NA,NA,NA,NA,NA,NA,NA,NA,NA,NA,NA
27eeb,Shallow Question,html.Page,3_0_0_0_6_1_0,NA,NA,form submission,5835.2560000955,2226012.9000001,2226010.308,2226026.644,2231861.9000001,2231862.0999999,2023-05-02T09:47:28Z,2231868.798,NULL,Sänger,mwimbaji,s,msichana,shughuli,mshirika,mshirika,NA,NA,0,NA,NA,NA,NA,NA,NA,NA,NA,NA,NA,NA,NA,NA,NA,NA,NA,NA,NA,NA
27eeb,"""Richtig""-Screen",canvas.Screen,3_0_0_0_6_1_1,NA,NA,skipped,NA,2231864,NA,NA,2231861.9000001,2231864.2,2023-05-02T09:47:28Z,2231868.798,NULL,Sänger,mwimbaji,s,msichana,shughuli,mshirika,NA,sdf,NA,0,NA,NA,NA,NA,NA,NA,NA,NA,NA,NA,NA,NA,NA,NA,NA,NA,NA,NA,NA
27eeb,"""Falsch""-Screen",canvas.Screen,3_0_0_0_6_1_2,NA,NA,timeout,4991.4670000002,2231864.7,2231860.431,2231868.798,2236844.051,2236845,2023-05-02T09:47:33Z,2236860.265,NULL,Sänger,mwimbaji,s,msichana,shughuli,mshirika,NA,sdf,0,0,NA,NA,NA,NA,NA,NA,NA,NA,NA,NA,NA,NA,NA,NA,NA,NA,NA,NA,NA
27eeb,shallow,flow.Sequence,3_0_0_0_6_1,NA,NA,completion,10817.407,2226012.9000001,2226010.308,2226026.644,2236844.051,2236845.5,2023-05-02T09:47:33Z,2236860.265,NULL,Sänger,mwimbaji,s,msichana,shughuli,mshirika,NA,sdf,NA,0,NA,NA,NA,NA,NA,NA,NA,NA,NA,NA,NA,NA,NA,NA,NA,NA,NA,NA,NA
27eeb,task,flow.Sequence,3_0_0_0_6,NA,NA,completion,10817.407,2226012.5999999,2226010.308,2226026.644,2236844.051,2236845.8,2023-05-02T09:47:33Z,2236860.265,NULL,Sänger,mwimbaji,s,msichana,shughuli,mshirika,NA,sdf,NA,0,NA,NA,NA,NA,NA,NA,NA,NA,NA,NA,NA,NA,NA,NA,NA,NA,NA,NA,NA
27eeb,Deep Question,html.Page,3_0_0_0_7_0_0,NA,NA,form submission,6174.0349999522,2236846.0999999,2236844.051,2236860.265,2243034.3,2243034.5999999,2023-05-02T09:47:39Z,2243041.848,NULL,Flexibilität,kubadilika,d,NA,NA,NA,uhng,NA,NA,0,NA,NA,NA,NA,NA,NA,NA,NA,NA,NA,NA,NA,NA,NA,NA,NA,NA,NA,NA
27eeb,"""Richtig""-Screen",canvas.Screen,3_0_0_0_7_0_1,NA,NA,skipped,NA,2243037.0999999,NA,NA,2243034.3,2243037.3,2023-05-02T09:47:39Z,2243041.848,NULL,Flexibilität,kubadilika,d,NA,NA,NA,NA,sdf,NA,0,NA,NA,NA,NA,NA,NA,NA,NA,NA,NA,NA,NA,NA,NA,NA,NA,NA,NA,NA
27eeb,"""Falsch""-Screen",canvas.Screen,3_0_0_0_7_0_2,NA,NA,timeout,4995.7459999998,2243038.2,2243029.623,2243041.848,2248021.419,2248022.5999999,2023-05-02T09:47:44Z,2248037.594,NULL,Flexibilität,kubadilika,d,NA,NA,NA,NA,sdf,0,0,NA,NA,NA,NA,NA,NA,NA,NA,NA,NA,NA,NA,NA,NA,NA,NA,NA,NA,NA
27eeb,deep,flow.Sequence,3_0_0_0_7_0,NA,NA,completion,11161.154,2236846,2236844.051,2236860.265,2248021.419,2248023.2,2023-05-02T09:47:44Z,2248037.594,NULL,Flexibilität,kubadilika,d,NA,NA,NA,NA,sdf,NA,0,NA,NA,NA,NA,NA,NA,NA,NA,NA,NA,NA,NA,NA,NA,NA,NA,NA,NA,NA
27eeb,shallow,flow.Sequence,3_0_0_0_7_1,NA,NA,skipped,NA,2248023.3,NA,NA,2248021.419,2248023.5999999,2023-05-02T09:47:44Z,2248037.594,NULL,Flexibilität,kubadilika,d,NA,NA,NA,NA,sdf,NA,0,NA,NA,NA,NA,NA,NA,NA,NA,NA,NA,NA,NA,NA,NA,NA,NA,NA,NA,NA
27eeb,task,flow.Sequence,3_0_0_0_7,NA,NA,completion,11161.154,2236846,2236844.051,2236860.265,2248021.419,2248023.8,2023-05-02T09:47:44Z,2248037.594,NULL,Flexibilität,kubadilika,d,NA,NA,NA,NA,sdf,NA,0,NA,NA,NA,NA,NA,NA,NA,NA,NA,NA,NA,NA,NA,NA,NA,NA,NA,NA,NA
27eeb,block,flow.Loop,3_0_0_0,NA,NA,completion,97001.87,2151005.4000001,2151005.776,2151019.549,2248021.419,2248024.0999999,2023-05-02T09:47:44Z,2248037.594,NULL,NA,NA,NA,NA,NA,NA,NA,sdf,NA,0,NA,NA,NA,NA,NA,NA,NA,NA,NA,NA,NA,NA,NA,NA,NA,NA,NA,NA,NA
27eeb,weiter,canvas.Screen,3_0_0_1,sdf,keypress(Space),response,1367.5059999046,2248024.3,2248021.419,2248037.594,2249405.0999999,2249406.0999999,2023-05-02T09:47:45Z,2249521.177,NULL,NA,NA,NA,NA,NA,NA,NA,sdf,NA,0,NA,NA,NA,NA,NA,NA,NA,NA,NA,NA,NA,NA,NA,NA,NA,NA,NA,NA,NA
27eeb,check continue,flow.Sequence,3_0_0,NA,NA,completion,98385.550999905,2151005.4000001,2151005.776,2151019.549,2249405.0999999,2249406.5999999,2023-05-02T09:47:45Z,2249521.177,NULL,NA,NA,NA,NA,NA,NA,NA,sdf,NA,0,NA,NA,NA,NA,NA,NA,NA,NA,NA,NA,NA,NA,NA,NA,NA,NA,NA,NA,NA
27eeb,deep,flow.Sequence,3_0_1_0_0_0,NA,NA,skipped,NA,2249485.2,NA,NA,2249405.0999999,2249485.4000001,2023-05-02T09:47:46Z,2249521.177,NULL,Angreifer,mshambulizi,s,kitengo,tasinia,usafirishaji,NA,sdfdsf,NA,1,NA,NA,NA,NA,NA,NA,NA,NA,NA,NA,NA,NA,NA,NA,NA,NA,NA,NA,NA
27eeb,Shallow Question,html.Page,3_0_1_0_0_1_0,NA,NA,form submission,6238.8229999999,2249485.7,2249504.09,2249521.177,2255760,2255760.0999999,2023-05-02T09:47:52Z,2255760.498,NULL,Angreifer,mshambulizi,s,kitengo,tasinia,usafirishaji,mshambulizi,NA,NA,1,NA,NA,NA,NA,NA,NA,NA,NA,NA,NA,NA,NA,NA,NA,NA,NA,NA,NA,NA
27eeb,"""Richtig""-Screen",canvas.Screen,3_0_1_0_0_1_1,NA,NA,timeout,4991.4210000001,2255762,2255743.524,2255760.498,2260735.914,2260737,2023-05-02T09:47:57Z,2260751.919,NULL,Angreifer,mshambulizi,s,kitengo,tasinia,usafirishaji,NA,sdfdsf,1,1,NA,NA,NA,NA,NA,NA,NA,NA,NA,NA,NA,NA,NA,NA,NA,NA,NA,NA,NA
27eeb,"""Falsch""-Screen",canvas.Screen,3_0_1_0_0_1_2,NA,NA,skipped,NA,2260742.4000001,NA,NA,2260735.914,2260742.7,2023-05-02T09:47:57Z,2260751.919,NULL,Angreifer,mshambulizi,s,kitengo,tasinia,usafirishaji,NA,sdfdsf,NA,1,NA,NA,NA,NA,NA,NA,NA,NA,NA,NA,NA,NA,NA,NA,NA,NA,NA,NA,NA
27eeb,shallow,flow.Sequence,3_0_1_0_0_1,NA,NA,completion,11214.737,2249485.5999999,2249504.09,2249521.177,2260735.914,2260743.2,2023-05-02T09:47:57Z,2260751.919,NULL,Angreifer,mshambulizi,s,kitengo,tasinia,usafirishaji,NA,sdfdsf,NA,1,NA,NA,NA,NA,NA,NA,NA,NA,NA,NA,NA,NA,NA,NA,NA,NA,NA,NA,NA
27eeb,task,flow.Sequence,3_0_1_0_0,NA,NA,completion,11214.737,2249485.2,2249504.09,2249521.177,2260735.914,2260743.4000001,2023-05-02T09:47:57Z,2260751.919,NULL,Angreifer,mshambulizi,s,kitengo,tasinia,usafirishaji,NA,sdfdsf,NA,1,NA,NA,NA,NA,NA,NA,NA,NA,NA,NA,NA,NA,NA,NA,NA,NA,NA,NA,NA
27eeb,Deep Question,html.Page,3_0_1_0_1_0_0,NA,NA,form submission,6541.3809999521,2260743.7,2260735.914,2260751.919,2267293.3,2267293.5,2023-05-02T09:48:03Z,2267304.052,NULL,Flexibilität,kubadilika,d,NA,NA,NA,kuhrn,NA,NA,1,NA,NA,NA,NA,NA,NA,NA,NA,NA,NA,NA,NA,NA,NA,NA,NA,NA,NA,NA
27eeb,"""Richtig""-Screen",canvas.Screen,3_0_1_0_1_0_1,NA,NA,skipped,NA,2267296.0999999,NA,NA,2267293.3,2267296.3,2023-05-02T09:48:03Z,2267304.052,NULL,Flexibilität,kubadilika,d,NA,NA,NA,NA,sdfdsf,NA,1,NA,NA,NA,NA,NA,NA,NA,NA,NA,NA,NA,NA,NA,NA,NA,NA,NA,NA,NA
27eeb,"""Falsch""-Screen",canvas.Screen,3_0_1_0_1_0_2,NA,NA,timeout,4999.7050000001,2267297.3,2267287.834,2267304.052,2272287.626,2272288.5999999,2023-05-02T09:48:08Z,2272303.757,NULL,Flexibilität,kubadilika,d,NA,NA,NA,NA,sdfdsf,0,1,NA,NA,NA,NA,NA,NA,NA,NA,NA,NA,NA,NA,NA,NA,NA,NA,NA,NA,NA
27eeb,deep,flow.Sequence,3_0_1_0_1_0,NA,NA,completion,11535.707,2260743.5999999,2260735.914,2260751.919,2272287.626,2272289.0999999,2023-05-02T09:48:08Z,2272303.757,NULL,Flexibilität,kubadilika,d,NA,NA,NA,NA,sdfdsf,NA,1,NA,NA,NA,NA,NA,NA,NA,NA,NA,NA,NA,NA,NA,NA,NA,NA,NA,NA,NA
27eeb,shallow,flow.Sequence,3_0_1_0_1_1,NA,NA,skipped,NA,2272289.3,NA,NA,2272287.626,2272289.5999999,2023-05-02T09:48:08Z,2272303.757,NULL,Flexibilität,kubadilika,d,NA,NA,NA,NA,sdfdsf,NA,1,NA,NA,NA,NA,NA,NA,NA,NA,NA,NA,NA,NA,NA,NA,NA,NA,NA,NA,NA
27eeb,task,flow.Sequence,3_0_1_0_1,NA,NA,completion,11535.707,2260743.5,2260735.914,2260751.919,2272287.626,2272289.7,2023-05-02T09:48:08Z,2272303.757,NULL,Flexibilität,kubadilika,d,NA,NA,NA,NA,sdfdsf,NA,1,NA,NA,NA,NA,NA,NA,NA,NA,NA,NA,NA,NA,NA,NA,NA,NA,NA,NA,NA
27eeb,Deep Question,html.Page,3_0_1_0_2_0_0,NA,NA,form submission,4048.5429999521,2272290,2272287.626,2272303.757,2276352.3,2276352.4000001,2023-05-02T09:48:12Z,2276361.201,NULL,Atmosphäre,angahewa,d,NA,NA,NA,mo,NA,NA,1,NA,NA,NA,NA,NA,NA,NA,NA,NA,NA,NA,NA,NA,NA,NA,NA,NA,NA,NA
27eeb,"""Richtig""-Screen",canvas.Screen,3_0_1_0_2_0_1,NA,NA,skipped,NA,2276354.4000001,NA,NA,2276352.3,2276354.5,2023-05-02T09:48:12Z,2276361.201,NULL,Atmosphäre,angahewa,d,NA,NA,NA,NA,sdfdsf,NA,1,NA,NA,NA,NA,NA,NA,NA,NA,NA,NA,NA,NA,NA,NA,NA,NA,NA,NA,NA
27eeb,"""Falsch""-Screen",canvas.Screen,3_0_1_0_2_0_2,NA,NA,timeout,4996.1880000001,2276355.0999999,2276340.722,2276361.201,2281340.735,2281341.8,2023-05-02T09:48:17Z,2281357.389,NULL,Atmosphäre,angahewa,d,NA,NA,NA,NA,sdfdsf,0,1,NA,NA,NA,NA,NA,NA,NA,NA,NA,NA,NA,NA,NA,NA,NA,NA,NA,NA,NA
27eeb,deep,flow.Sequence,3_0_1_0_2_0,NA,NA,completion,9036.9779999997,2272289.9000001,2272287.626,2272303.757,2281340.735,2281342.2,2023-05-02T09:48:17Z,2281357.389,NULL,Atmosphäre,angahewa,d,NA,NA,NA,NA,sdfdsf,NA,1,NA,NA,NA,NA,NA,NA,NA,NA,NA,NA,NA,NA,NA,NA,NA,NA,NA,NA,NA
27eeb,shallow,flow.Sequence,3_0_1_0_2_1,NA,NA,skipped,NA,2281342.4000001,NA,NA,2281340.735,2281342.5,2023-05-02T09:48:17Z,2281357.389,NULL,Atmosphäre,angahewa,d,NA,NA,NA,NA,sdfdsf,NA,1,NA,NA,NA,NA,NA,NA,NA,NA,NA,NA,NA,NA,NA,NA,NA,NA,NA,NA,NA
27eeb,task,flow.Sequence,3_0_1_0_2,NA,NA,completion,9036.9779999997,2272289.9000001,2272287.626,2272303.757,2281340.735,2281342.8,2023-05-02T09:48:17Z,2281357.389,NULL,Atmosphäre,angahewa,d,NA,NA,NA,NA,sdfdsf,NA,1,NA,NA,NA,NA,NA,NA,NA,NA,NA,NA,NA,NA,NA,NA,NA,NA,NA,NA,NA
27eeb,Deep Question,html.Page,3_0_1_0_3_0_0,NA,NA,form submission,5264.4109999523,2281343.0999999,2281340.735,2281357.389,2286621.8,2286621.9000001,2023-05-02T09:48:23Z,2286635.031,NULL,Kanzler,diwani,d,NA,NA,NA,lop,NA,NA,1,NA,NA,NA,NA,NA,NA,NA,NA,NA,NA,NA,NA,NA,NA,NA,NA,NA,NA,NA
27eeb,"""Richtig""-Screen",canvas.Screen,3_0_1_0_3_0_1,NA,NA,skipped,NA,2286623.9000001,NA,NA,2286621.8,2286624.0999999,2023-05-02T09:48:23Z,2286635.031,NULL,Kanzler,diwani,d,NA,NA,NA,NA,sdfdsf,NA,1,NA,NA,NA,NA,NA,NA,NA,NA,NA,NA,NA,NA,NA,NA,NA,NA,NA,NA,NA
27eeb,"""Falsch""-Screen",canvas.Screen,3_0_1_0_3_0_2,NA,NA,timeout,5007.966,2286624.5999999,2286606.022,2286635.031,2291626.364,2291632.8,2023-05-02T09:48:28Z,2291642.997,NULL,Kanzler,diwani,d,NA,NA,NA,NA,sdfdsf,0,1,NA,NA,NA,NA,NA,NA,NA,NA,NA,NA,NA,NA,NA,NA,NA,NA,NA,NA,NA
27eeb,deep,flow.Sequence,3_0_1_0_3_0,NA,NA,completion,10268.975,2281343,2281340.735,2281357.389,2291626.364,2291633.5,2023-05-02T09:48:28Z,2291642.997,NULL,Kanzler,diwani,d,NA,NA,NA,NA,sdfdsf,NA,1,NA,NA,NA,NA,NA,NA,NA,NA,NA,NA,NA,NA,NA,NA,NA,NA,NA,NA,NA
27eeb,shallow,flow.Sequence,3_0_1_0_3_1,NA,NA,skipped,NA,2291633.8,NA,NA,2291626.364,2291634.0999999,2023-05-02T09:48:28Z,2291642.997,NULL,Kanzler,diwani,d,NA,NA,NA,NA,sdfdsf,NA,1,NA,NA,NA,NA,NA,NA,NA,NA,NA,NA,NA,NA,NA,NA,NA,NA,NA,NA,NA
27eeb,task,flow.Sequence,3_0_1_0_3,NA,NA,completion,10268.975,2281343,2281340.735,2281357.389,2291626.364,2291634.5,2023-05-02T09:48:28Z,2291642.997,NULL,Kanzler,diwani,d,NA,NA,NA,NA,sdfdsf,NA,1,NA,NA,NA,NA,NA,NA,NA,NA,NA,NA,NA,NA,NA,NA,NA,NA,NA,NA,NA
27eeb,deep,flow.Sequence,3_0_1_0_4_0,NA,NA,skipped,NA,2291634.7,NA,NA,2291626.364,2291635,2023-05-02T09:48:28Z,2291642.997,NULL,Erneuerung,ukarabati,s,ushawishi,ukalifu,unyonyaji,NA,sdfdsf,NA,1,NA,NA,NA,NA,NA,NA,NA,NA,NA,NA,NA,NA,NA,NA,NA,NA,NA,NA,NA
27eeb,Shallow Question,html.Page,3_0_1_0_4_1_0,NA,NA,form submission,6146.7030000477,2291635.2,2291626.364,2291642.997,2297789.7,2297789.8,2023-05-02T09:48:34Z,2297799.23,NULL,Erneuerung,ukarabati,s,ushawishi,ukalifu,unyonyaji,unyonyaji,NA,NA,1,NA,NA,NA,NA,NA,NA,NA,NA,NA,NA,NA,NA,NA,NA,NA,NA,NA,NA,NA
27eeb,"""Richtig""-Screen",canvas.Screen,3_0_1_0_4_1_1,NA,NA,skipped,NA,2297791.9000001,NA,NA,2297789.7,2297792,2023-05-02T09:48:34Z,2297799.23,NULL,Erneuerung,ukarabati,s,ushawishi,ukalifu,unyonyaji,NA,sdfdsf,NA,1,NA,NA,NA,NA,NA,NA,NA,NA,NA,NA,NA,NA,NA,NA,NA,NA,NA,NA,NA
27eeb,"""Falsch""-Screen",canvas.Screen,3_0_1_0_4_1_2,NA,NA,timeout,5008.014,2297792.5,2297777.992,2297799.23,2302790.654,2302794.2,2023-05-02T09:48:39Z,2302807.244,NULL,Erneuerung,ukarabati,s,ushawishi,ukalifu,unyonyaji,NA,sdfdsf,0,1,NA,NA,NA,NA,NA,NA,NA,NA,NA,NA,NA,NA,NA,NA,NA,NA,NA,NA,NA
27eeb,shallow,flow.Sequence,3_0_1_0_4_1,NA,NA,completion,11147.657,2291635.0999999,2291626.364,2291642.997,2302790.654,2302794.7,2023-05-02T09:48:39Z,2302807.244,NULL,Erneuerung,ukarabati,s,ushawishi,ukalifu,unyonyaji,NA,sdfdsf,NA,1,NA,NA,NA,NA,NA,NA,NA,NA,NA,NA,NA,NA,NA,NA,NA,NA,NA,NA,NA
27eeb,task,flow.Sequence,3_0_1_0_4,NA,NA,completion,11147.657,2291634.7,2291626.364,2291642.997,2302790.654,2302795,2023-05-02T09:48:39Z,2302807.244,NULL,Erneuerung,ukarabati,s,ushawishi,ukalifu,unyonyaji,NA,sdfdsf,NA,1,NA,NA,NA,NA,NA,NA,NA,NA,NA,NA,NA,NA,NA,NA,NA,NA,NA,NA,NA
27eeb,deep,flow.Sequence,3_0_1_0_5_0,NA,NA,skipped,NA,2302795.2,NA,NA,2302790.654,2302795.4000001,2023-05-02T09:48:39Z,2302807.244,NULL,Sänger,mwimbaji,s,msichana,shughuli,mshirika,NA,sdfdsf,NA,1,NA,NA,NA,NA,NA,NA,NA,NA,NA,NA,NA,NA,NA,NA,NA,NA,NA,NA,NA
27eeb,Shallow Question,html.Page,3_0_1_0_5_1_0,NA,NA,form submission,5790.4560000477,2302795.5999999,2302790.654,2302807.244,2308597.7,2308597.9000001,2023-05-02T09:48:45Z,2308615.407,NULL,Sänger,mwimbaji,s,msichana,shughuli,mshirika,shughuli,NA,NA,1,NA,NA,NA,NA,NA,NA,NA,NA,NA,NA,NA,NA,NA,NA,NA,NA,NA,NA,NA
27eeb,"""Richtig""-Screen",canvas.Screen,3_0_1_0_5_1_1,NA,NA,skipped,NA,2308599.8,NA,NA,2308597.7,2308599.9000001,2023-05-02T09:48:45Z,2308615.407,NULL,Sänger,mwimbaji,s,msichana,shughuli,mshirika,NA,sdfdsf,NA,1,NA,NA,NA,NA,NA,NA,NA,NA,NA,NA,NA,NA,NA,NA,NA,NA,NA,NA,NA
27eeb,"""Falsch""-Screen",canvas.Screen,3_0_1_0_5_1_2,NA,NA,timeout,4995.9369999999,2308600.5,2308581.918,2308615.407,2313594.785,2313595.9000001,2023-05-02T09:48:50Z,2313611.344,NULL,Sänger,mwimbaji,s,msichana,shughuli,mshirika,NA,sdfdsf,0,1,NA,NA,NA,NA,NA,NA,NA,NA,NA,NA,NA,NA,NA,NA,NA,NA,NA,NA,NA
27eeb,shallow,flow.Sequence,3_0_1_0_5_1,NA,NA,completion,10787.541,2302795.5,2302790.654,2302807.244,2313594.785,2313596.4000001,2023-05-02T09:48:50Z,2313611.344,NULL,Sänger,mwimbaji,s,msichana,shughuli,mshirika,NA,sdfdsf,NA,1,NA,NA,NA,NA,NA,NA,NA,NA,NA,NA,NA,NA,NA,NA,NA,NA,NA,NA,NA
27eeb,task,flow.Sequence,3_0_1_0_5,NA,NA,completion,10787.541,2302795.0999999,2302790.654,2302807.244,2313594.785,2313596.5999999,2023-05-02T09:48:50Z,2313611.344,NULL,Sänger,mwimbaji,s,msichana,shughuli,mshirika,NA,sdfdsf,NA,1,NA,NA,NA,NA,NA,NA,NA,NA,NA,NA,NA,NA,NA,NA,NA,NA,NA,NA,NA
27eeb,Deep Question,html.Page,3_0_1_0_6_0_0,NA,NA,form submission,4436.9559999523,2313597,2313594.785,2313611.344,2318048.3,2318048.4000001,2023-05-02T09:48:54Z,2318051.206,NULL,Abrechnung,uhasibu,d,NA,NA,NA,umb,NA,NA,1,NA,NA,NA,NA,NA,NA,NA,NA,NA,NA,NA,NA,NA,NA,NA,NA,NA,NA,NA
27eeb,"""Richtig""-Screen",canvas.Screen,3_0_1_0_6_0_1,NA,NA,skipped,NA,2318051,NA,NA,2318048.3,2318051.3,2023-05-02T09:48:54Z,2318051.206,NULL,Abrechnung,uhasibu,d,NA,NA,NA,NA,sdfdsf,NA,1,NA,NA,NA,NA,NA,NA,NA,NA,NA,NA,NA,NA,NA,NA,NA,NA,NA,NA,NA
27eeb,"""Falsch""-Screen",canvas.Screen,3_0_1_0_6_0_2,NA,NA,timeout,4996.0790000004,2318052,2318034.692,2318051.206,2323030.646,2323031.7,2023-05-02T09:48:59Z,2323047.285,NULL,Abrechnung,uhasibu,d,NA,NA,NA,NA,sdfdsf,0,1,NA,NA,NA,NA,NA,NA,NA,NA,NA,NA,NA,NA,NA,NA,NA,NA,NA,NA,NA
27eeb,deep,flow.Sequence,3_0_1_0_6_0,NA,NA,completion,9419.3020000001,2313596.9000001,2313594.785,2313611.344,2323030.646,2323032.2,2023-05-02T09:48:59Z,2323047.285,NULL,Abrechnung,uhasibu,d,NA,NA,NA,NA,sdfdsf,NA,1,NA,NA,NA,NA,NA,NA,NA,NA,NA,NA,NA,NA,NA,NA,NA,NA,NA,NA,NA
27eeb,shallow,flow.Sequence,3_0_1_0_6_1,NA,NA,skipped,NA,2323032.4000001,NA,NA,2323030.646,2323032.5,2023-05-02T09:48:59Z,2323047.285,NULL,Abrechnung,uhasibu,d,NA,NA,NA,NA,sdfdsf,NA,1,NA,NA,NA,NA,NA,NA,NA,NA,NA,NA,NA,NA,NA,NA,NA,NA,NA,NA,NA
27eeb,task,flow.Sequence,3_0_1_0_6,NA,NA,completion,9419.3020000001,2313596.8,2313594.785,2313611.344,2323030.646,2323032.8,2023-05-02T09:48:59Z,2323047.285,NULL,Abrechnung,uhasibu,d,NA,NA,NA,NA,sdfdsf,NA,1,NA,NA,NA,NA,NA,NA,NA,NA,NA,NA,NA,NA,NA,NA,NA,NA,NA,NA,NA
27eeb,deep,flow.Sequence,3_0_1_0_7_0,NA,NA,skipped,NA,2323033,NA,NA,2323030.646,2323033.2,2023-05-02T09:48:59Z,2323047.285,NULL,Wechsel,ugeuzaji,s,utambulisho,kujenga,wasiwasi,NA,sdfdsf,NA,1,NA,NA,NA,NA,NA,NA,NA,NA,NA,NA,NA,NA,NA,NA,NA,NA,NA,NA,NA
27eeb,Shallow Question,html.Page,3_0_1_0_7_1_0,NA,NA,form submission,12151.314999904,2323033.3,2323030.646,2323047.285,2335198.5999999,2335198.9000001,2023-05-02T09:49:11Z,2335208.284,NULL,Wechsel,ugeuzaji,s,utambulisho,kujenga,wasiwasi,kujenga,NA,NA,1,NA,NA,NA,NA,NA,NA,NA,NA,NA,NA,NA,NA,NA,NA,NA,NA,NA,NA,NA
27eeb,"""Richtig""-Screen",canvas.Screen,3_0_1_0_7_1_1,NA,NA,skipped,NA,2335200.8,NA,NA,2335198.5999999,2335201,2023-05-02T09:49:11Z,2335208.284,NULL,Wechsel,ugeuzaji,s,utambulisho,kujenga,wasiwasi,NA,sdfdsf,NA,1,NA,NA,NA,NA,NA,NA,NA,NA,NA,NA,NA,NA,NA,NA,NA,NA,NA,NA,NA
27eeb,"""Falsch""-Screen",canvas.Screen,3_0_1_0_7_1_2,NA,NA,timeout,4999.8939999999,2335201.5,2335186.863,2335208.284,2340191.638,2340192.7,2023-05-02T09:49:16Z,2340208.178,NULL,Wechsel,ugeuzaji,s,utambulisho,kujenga,wasiwasi,NA,sdfdsf,0,1,NA,NA,NA,NA,NA,NA,NA,NA,NA,NA,NA,NA,NA,NA,NA,NA,NA,NA,NA
27eeb,shallow,flow.Sequence,3_0_1_0_7_1,NA,NA,completion,17144.353,2323033.3,2323030.646,2323047.285,2340191.638,2340193.0999999,2023-05-02T09:49:16Z,2340208.178,NULL,Wechsel,ugeuzaji,s,utambulisho,kujenga,wasiwasi,NA,sdfdsf,NA,1,NA,NA,NA,NA,NA,NA,NA,NA,NA,NA,NA,NA,NA,NA,NA,NA,NA,NA,NA
27eeb,task,flow.Sequence,3_0_1_0_7,NA,NA,completion,17144.353,2323032.9000001,2323030.646,2323047.285,2340191.638,2340193.4000001,2023-05-02T09:49:16Z,2340208.178,NULL,Wechsel,ugeuzaji,s,utambulisho,kujenga,wasiwasi,NA,sdfdsf,NA,1,NA,NA,NA,NA,NA,NA,NA,NA,NA,NA,NA,NA,NA,NA,NA,NA,NA,NA,NA
27eeb,block,flow.Loop,3_0_1_0,NA,NA,completion,90670.461,2249485.0999999,2249504.09,2249521.177,2340191.638,2340193.7,2023-05-02T09:49:16Z,2340208.178,NULL,NA,NA,NA,NA,NA,NA,NA,sdfdsf,NA,1,NA,NA,NA,NA,NA,NA,NA,NA,NA,NA,NA,NA,NA,NA,NA,NA,NA,NA,NA
27eeb,weiter,canvas.Screen,3_0_1_1,sdf,keypress(Space),response,1357.7220000955,2340193.8,2340191.638,2340208.178,2341565.9000001,2341566.8,2023-05-02T09:49:18Z,2341657.71,NULL,NA,NA,NA,NA,NA,NA,NA,sdfdsf,NA,1,NA,NA,NA,NA,NA,NA,NA,NA,NA,NA,NA,NA,NA,NA,NA,NA,NA,NA,NA
27eeb,check continue,flow.Sequence,3_0_1,NA,NA,completion,92044.723000095,2249485,2249504.09,2249521.177,2341565.9000001,2341567.0999999,2023-05-02T09:49:18Z,2341657.71,NULL,NA,NA,NA,NA,NA,NA,NA,sdfdsf,NA,1,NA,NA,NA,NA,NA,NA,NA,NA,NA,NA,NA,NA,NA,NA,NA,NA,NA,NA,NA
27eeb,Deep Question,html.Page,3_0_2_0_0_0_0,NA,NA,form submission,7886.5899999524,2341644.5999999,2341640.342,2341657.71,2349544.3,2349544.5999999,2023-05-02T09:49:26Z,2349547.275,NULL,Abrechnung,uhasibu,d,NA,NA,NA,uhasibu,NA,NA,2,NA,NA,NA,NA,NA,NA,NA,NA,NA,NA,NA,NA,NA,NA,NA,NA,NA,NA,NA
27eeb,"""Richtig""-Screen",canvas.Screen,3_0_2_0_0_0_1,NA,NA,timeout,4999.6329999999,2349547.0999999,2349543.1,2349547.275,2354530.808,2354531.9000001,2023-05-02T09:49:31Z,2354546.908,NULL,Abrechnung,uhasibu,d,NA,NA,NA,NA,sdf,1,2,NA,NA,NA,NA,NA,NA,NA,NA,NA,NA,NA,NA,NA,NA,NA,NA,NA,NA,NA
27eeb,"""Falsch""-Screen",canvas.Screen,3_0_2_0_0_0_2,NA,NA,skipped,NA,2354537.4000001,NA,NA,2354530.808,2354537.7,2023-05-02T09:49:31Z,2354546.908,NULL,Abrechnung,uhasibu,d,NA,NA,NA,NA,sdf,NA,2,NA,NA,NA,NA,NA,NA,NA,NA,NA,NA,NA,NA,NA,NA,NA,NA,NA,NA,NA
27eeb,deep,flow.Sequence,3_0_2_0_0_0,NA,NA,completion,12873.098,2341644.5999999,2341640.342,2341657.71,2354530.808,2354538.0999999,2023-05-02T09:49:31Z,2354546.908,NULL,Abrechnung,uhasibu,d,NA,NA,NA,NA,sdf,NA,2,NA,NA,NA,NA,NA,NA,NA,NA,NA,NA,NA,NA,NA,NA,NA,NA,NA,NA,NA
27eeb,shallow,flow.Sequence,3_0_2_0_0_1,NA,NA,skipped,NA,2354538.2,NA,NA,2354530.808,2354538.4000001,2023-05-02T09:49:31Z,2354546.908,NULL,Abrechnung,uhasibu,d,NA,NA,NA,NA,sdf,NA,2,NA,NA,NA,NA,NA,NA,NA,NA,NA,NA,NA,NA,NA,NA,NA,NA,NA,NA,NA
27eeb,task,flow.Sequence,3_0_2_0_0,NA,NA,completion,12873.098,2341644.5999999,2341640.342,2341657.71,2354530.808,2354538.7,2023-05-02T09:49:31Z,2354546.908,NULL,Abrechnung,uhasibu,d,NA,NA,NA,NA,sdf,NA,2,NA,NA,NA,NA,NA,NA,NA,NA,NA,NA,NA,NA,NA,NA,NA,NA,NA,NA,NA
27eeb,deep,flow.Sequence,3_0_2_0_1_0,NA,NA,skipped,NA,2354538.8,NA,NA,2354530.808,2354538.9000001,2023-05-02T09:49:31Z,2354546.908,NULL,Angreifer,mshambulizi,s,kitengo,tasinia,usafirishaji,NA,sdf,NA,2,NA,NA,NA,NA,NA,NA,NA,NA,NA,NA,NA,NA,NA,NA,NA,NA,NA,NA,NA
27eeb,Shallow Question,html.Page,3_0_2_0_1_1_0,NA,NA,form submission,4789.6919999048,2354539.0999999,2354530.808,2354546.908,2359336.5999999,2359336.7,2023-05-02T09:49:35Z,2359353.612,NULL,Angreifer,mshambulizi,s,kitengo,tasinia,usafirishaji,mshambulizi,NA,NA,2,NA,NA,NA,NA,NA,NA,NA,NA,NA,NA,NA,NA,NA,NA,NA,NA,NA,NA,NA
27eeb,"""Richtig""-Screen",canvas.Screen,3_0_2_0_1_1_1,NA,NA,timeout,5007.9699999997,2359338.7,2359332.588,2359353.612,2364344.913,2364346,2023-05-02T09:49:40Z,2364361.582,NULL,Angreifer,mshambulizi,s,kitengo,tasinia,usafirishaji,NA,sdf,1,2,NA,NA,NA,NA,NA,NA,NA,NA,NA,NA,NA,NA,NA,NA,NA,NA,NA,NA,NA
27eeb,"""Falsch""-Screen",canvas.Screen,3_0_2_0_1_1_2,NA,NA,skipped,NA,2364351.5,NA,NA,2364344.913,2364351.8,2023-05-02T09:49:40Z,2364361.582,NULL,Angreifer,mshambulizi,s,kitengo,tasinia,usafirishaji,NA,sdf,NA,2,NA,NA,NA,NA,NA,NA,NA,NA,NA,NA,NA,NA,NA,NA,NA,NA,NA,NA,NA
27eeb,shallow,flow.Sequence,3_0_2_0_1_1,NA,NA,completion,9798.0050000004,2354539,2354530.808,2354546.908,2364344.913,2364352.3,2023-05-02T09:49:40Z,2364361.582,NULL,Angreifer,mshambulizi,s,kitengo,tasinia,usafirishaji,NA,sdf,NA,2,NA,NA,NA,NA,NA,NA,NA,NA,NA,NA,NA,NA,NA,NA,NA,NA,NA,NA,NA
27eeb,task,flow.Sequence,3_0_2_0_1,NA,NA,completion,9798.0050000004,2354538.8,2354530.808,2354546.908,2364344.913,2364352.5999999,2023-05-02T09:49:40Z,2364361.582,NULL,Angreifer,mshambulizi,s,kitengo,tasinia,usafirishaji,NA,sdf,NA,2,NA,NA,NA,NA,NA,NA,NA,NA,NA,NA,NA,NA,NA,NA,NA,NA,NA,NA,NA
27eeb,deep,flow.Sequence,3_0_2_0_2_0,NA,NA,skipped,NA,2364352.8,NA,NA,2364344.913,2364352.9000001,2023-05-02T09:49:40Z,2364361.582,NULL,Sänger,mwimbaji,s,msichana,shughuli,mshirika,NA,sdf,NA,2,NA,NA,NA,NA,NA,NA,NA,NA,NA,NA,NA,NA,NA,NA,NA,NA,NA,NA,NA
27eeb,Shallow Question,html.Page,3_0_2_0_2_1_0,NA,NA,form submission,6157.0179999047,2364353.0999999,2364344.913,2364361.582,2370518.5999999,2370518.8,2023-05-02T09:49:47Z,2370535.507,NULL,Sänger,mwimbaji,s,msichana,shughuli,mshirika,mwimbaji,NA,NA,2,NA,NA,NA,NA,NA,NA,NA,NA,NA,NA,NA,NA,NA,NA,NA,NA,NA,NA,NA
27eeb,"""Richtig""-Screen",canvas.Screen,3_0_2_0_2_1_1,NA,NA,timeout,4991.2999999998,2370520.5999999,2370505.899,2370535.507,2375510.805,2375511.9000001,2023-05-02T09:49:52Z,2375526.807,NULL,Sänger,mwimbaji,s,msichana,shughuli,mshirika,NA,sdf,1,2,NA,NA,NA,NA,NA,NA,NA,NA,NA,NA,NA,NA,NA,NA,NA,NA,NA,NA,NA
27eeb,"""Falsch""-Screen",canvas.Screen,3_0_2_0_2_1_2,NA,NA,skipped,NA,2375517.4000001,NA,NA,2375510.805,2375517.7,2023-05-02T09:49:52Z,2375526.807,NULL,Sänger,mwimbaji,s,msichana,shughuli,mshirika,NA,sdf,NA,2,NA,NA,NA,NA,NA,NA,NA,NA,NA,NA,NA,NA,NA,NA,NA,NA,NA,NA,NA
27eeb,shallow,flow.Sequence,3_0_2_0_2_1,NA,NA,completion,11149.223,2364353,2364344.913,2364361.582,2375510.805,2375518.2,2023-05-02T09:49:52Z,2375526.807,NULL,Sänger,mwimbaji,s,msichana,shughuli,mshirika,NA,sdf,NA,2,NA,NA,NA,NA,NA,NA,NA,NA,NA,NA,NA,NA,NA,NA,NA,NA,NA,NA,NA
27eeb,task,flow.Sequence,3_0_2_0_2,NA,NA,completion,11149.223,2364352.5999999,2364344.913,2364361.582,2375510.805,2375518.4000001,2023-05-02T09:49:52Z,2375526.807,NULL,Sänger,mwimbaji,s,msichana,shughuli,mshirika,NA,sdf,NA,2,NA,NA,NA,NA,NA,NA,NA,NA,NA,NA,NA,NA,NA,NA,NA,NA,NA,NA,NA
27eeb,deep,flow.Sequence,3_0_2_0_3_0,NA,NA,skipped,NA,2375518.5999999,NA,NA,2375510.805,2375518.8,2023-05-02T09:49:52Z,2375526.807,NULL,Wechsel,ugeuzaji,s,utambulisho,kujenga,wasiwasi,NA,sdf,NA,2,NA,NA,NA,NA,NA,NA,NA,NA,NA,NA,NA,NA,NA,NA,NA,NA,NA,NA,NA
27eeb,Shallow Question,html.Page,3_0_2_0_3_1_0,NA,NA,form submission,9937.4929999523,2375519,2375510.805,2375526.807,2385464.3,2385464.5,2023-05-02T09:50:02Z,2385464.772,NULL,Wechsel,ugeuzaji,s,utambulisho,kujenga,wasiwasi,ugeuzaji,NA,NA,2,NA,NA,NA,NA,NA,NA,NA,NA,NA,NA,NA,NA,NA,NA,NA,NA,NA,NA,NA
27eeb,"""Richtig""-Screen",canvas.Screen,3_0_2_0_3_1_1,NA,NA,timeout,4991.3940000003,2385466.5,2385447.969,2385464.772,2390440.057,2390441.0999999,2023-05-02T09:50:07Z,2390456.166,NULL,Wechsel,ugeuzaji,s,utambulisho,kujenga,wasiwasi,NA,sdf,1,2,NA,NA,NA,NA,NA,NA,NA,NA,NA,NA,NA,NA,NA,NA,NA,NA,NA,NA,NA
27eeb,"""Falsch""-Screen",canvas.Screen,3_0_2_0_3_1_2,NA,NA,skipped,NA,2390446.8,NA,NA,2390440.057,2390447.0999999,2023-05-02T09:50:07Z,2390456.166,NULL,Wechsel,ugeuzaji,s,utambulisho,kujenga,wasiwasi,NA,sdf,NA,2,NA,NA,NA,NA,NA,NA,NA,NA,NA,NA,NA,NA,NA,NA,NA,NA,NA,NA,NA
27eeb,shallow,flow.Sequence,3_0_2_0_3_1,NA,NA,completion,14913.25,2375518.9000001,2375510.805,2375526.807,2390440.057,2390447.5,2023-05-02T09:50:07Z,2390456.166,NULL,Wechsel,ugeuzaji,s,utambulisho,kujenga,wasiwasi,NA,sdf,NA,2,NA,NA,NA,NA,NA,NA,NA,NA,NA,NA,NA,NA,NA,NA,NA,NA,NA,NA,NA
27eeb,task,flow.Sequence,3_0_2_0_3,NA,NA,completion,14913.25,2375518.5999999,2375510.805,2375526.807,2390440.057,2390447.8,2023-05-02T09:50:07Z,2390456.166,NULL,Wechsel,ugeuzaji,s,utambulisho,kujenga,wasiwasi,NA,sdf,NA,2,NA,NA,NA,NA,NA,NA,NA,NA,NA,NA,NA,NA,NA,NA,NA,NA,NA,NA,NA
27eeb,Deep Question,html.Page,3_0_2_0_4_0_0,NA,NA,form submission,7688.0340000475,2390448,2390440.057,2390456.166,2398144.2,2398144.5,2023-05-02T09:50:14Z,2398145.886,NULL,Flexibilität,kubadilika,d,NA,NA,NA,kin,NA,NA,2,NA,NA,NA,NA,NA,NA,NA,NA,NA,NA,NA,NA,NA,NA,NA,NA,NA,NA,NA
27eeb,"""Richtig""-Screen",canvas.Screen,3_0_2_0_4_0_1,NA,NA,skipped,NA,2398146.5999999,NA,NA,2398144.2,2398146.8,2023-05-02T09:50:14Z,2398145.886,NULL,Flexibilität,kubadilika,d,NA,NA,NA,NA,sdf,NA,2,NA,NA,NA,NA,NA,NA,NA,NA,NA,NA,NA,NA,NA,NA,NA,NA,NA,NA,NA
27eeb,"""Falsch""-Screen",canvas.Screen,3_0_2_0_4_0_2,NA,NA,timeout,4995.767,2398147.4000001,2398129.546,2398145.886,2403124.937,2403130.7,2023-05-02T09:50:19Z,2403141.653,NULL,Flexibilität,kubadilika,d,NA,NA,NA,NA,sdf,0,2,NA,NA,NA,NA,NA,NA,NA,NA,NA,NA,NA,NA,NA,NA,NA,NA,NA,NA,NA
27eeb,deep,flow.Sequence,3_0_2_0_4_0,NA,NA,completion,12668.771,2390448,2390440.057,2390456.166,2403124.937,2403131.2,2023-05-02T09:50:19Z,2403141.653,NULL,Flexibilität,kubadilika,d,NA,NA,NA,NA,sdf,NA,2,NA,NA,NA,NA,NA,NA,NA,NA,NA,NA,NA,NA,NA,NA,NA,NA,NA,NA,NA
27eeb,shallow,flow.Sequence,3_0_2_0_4_1,NA,NA,skipped,NA,2403131.3,NA,NA,2403124.937,2403131.5999999,2023-05-02T09:50:19Z,2403141.653,NULL,Flexibilität,kubadilika,d,NA,NA,NA,NA,sdf,NA,2,NA,NA,NA,NA,NA,NA,NA,NA,NA,NA,NA,NA,NA,NA,NA,NA,NA,NA,NA
27eeb,task,flow.Sequence,3_0_2_0_4,NA,NA,completion,12668.771,2390448,2390440.057,2390456.166,2403124.937,2403131.8,2023-05-02T09:50:19Z,2403141.653,NULL,Flexibilität,kubadilika,d,NA,NA,NA,NA,sdf,NA,2,NA,NA,NA,NA,NA,NA,NA,NA,NA,NA,NA,NA,NA,NA,NA,NA,NA,NA,NA
27eeb,Deep Question,html.Page,3_0_2_0_5_0_0,NA,NA,form submission,10534.946999905,2403132,2403124.937,2403141.653,2413676.5999999,2413676.8,2023-05-02T09:50:30Z,2413707.555,NULL,Kanzler,diwani,d,NA,NA,NA,diwani,NA,NA,2,NA,NA,NA,NA,NA,NA,NA,NA,NA,NA,NA,NA,NA,NA,NA,NA,NA,NA,NA
27eeb,"""Richtig""-Screen",canvas.Screen,3_0_2_0_5_0_1,NA,NA,timeout,4995.0999999996,2413678.8,2413690.37,2413707.555,2418686.026,2418696.8,2023-05-02T09:50:35Z,2418702.655,NULL,Kanzler,diwani,d,NA,NA,NA,NA,sdf,1,2,NA,NA,NA,NA,NA,NA,NA,NA,NA,NA,NA,NA,NA,NA,NA,NA,NA,NA,NA
27eeb,"""Falsch""-Screen",canvas.Screen,3_0_2_0_5_0_2,NA,NA,skipped,NA,2418702,NA,NA,2418686.026,2418702.4000001,2023-05-02T09:50:35Z,2418702.655,NULL,Kanzler,diwani,d,NA,NA,NA,NA,sdf,NA,2,NA,NA,NA,NA,NA,NA,NA,NA,NA,NA,NA,NA,NA,NA,NA,NA,NA,NA,NA
27eeb,deep,flow.Sequence,3_0_2_0_5_0,NA,NA,completion,15544.373,2403132,2403124.937,2403141.653,2418686.026,2418702.8,2023-05-02T09:50:35Z,2418702.655,NULL,Kanzler,diwani,d,NA,NA,NA,NA,sdf,NA,2,NA,NA,NA,NA,NA,NA,NA,NA,NA,NA,NA,NA,NA,NA,NA,NA,NA,NA,NA
27eeb,shallow,flow.Sequence,3_0_2_0_5_1,NA,NA,skipped,NA,2418703.0999999,NA,NA,2418686.026,2418703.2,2023-05-02T09:50:35Z,2418702.655,NULL,Kanzler,diwani,d,NA,NA,NA,NA,sdf,NA,2,NA,NA,NA,NA,NA,NA,NA,NA,NA,NA,NA,NA,NA,NA,NA,NA,NA,NA,NA
27eeb,task,flow.Sequence,3_0_2_0_5,NA,NA,completion,15544.373,2403131.9000001,2403124.937,2403141.653,2418686.026,2418703.5,2023-05-02T09:50:35Z,2418702.655,NULL,Kanzler,diwani,d,NA,NA,NA,NA,sdf,NA,2,NA,NA,NA,NA,NA,NA,NA,NA,NA,NA,NA,NA,NA,NA,NA,NA,NA,NA,NA
27eeb,Deep Question,html.Page,3_0_2_0_6_0_0,NA,NA,form submission,8109.8450000002,2418703.7,2418686.026,2418702.655,2426812.5,2426812.8,2023-05-02T09:50:43Z,2426830.196,NULL,Atmosphäre,angahewa,d,NA,NA,NA,usahu,NA,NA,2,NA,NA,NA,NA,NA,NA,NA,NA,NA,NA,NA,NA,NA,NA,NA,NA,NA,NA,NA
27eeb,"""Richtig""-Screen",canvas.Screen,3_0_2_0_6_0_1,NA,NA,skipped,NA,2426814.8,NA,NA,2426812.5,2426815,2023-05-02T09:50:43Z,2426830.196,NULL,Atmosphäre,angahewa,d,NA,NA,NA,NA,sdf,NA,2,NA,NA,NA,NA,NA,NA,NA,NA,NA,NA,NA,NA,NA,NA,NA,NA,NA,NA,NA
27eeb,"""Falsch""-Screen",canvas.Screen,3_0_2_0_6_0_2,NA,NA,timeout,4995.9049999998,2426815.5999999,2426809.837,2426830.196,2431809.509,2431810.5999999,2023-05-02T09:50:48Z,2431826.101,NULL,Atmosphäre,angahewa,d,NA,NA,NA,NA,sdf,0,2,NA,NA,NA,NA,NA,NA,NA,NA,NA,NA,NA,NA,NA,NA,NA,NA,NA,NA,NA
27eeb,deep,flow.Sequence,3_0_2_0_6_0,NA,NA,completion,13106.854,2418703.7,2418686.026,2418702.655,2431809.509,2431811.0999999,2023-05-02T09:50:48Z,2431826.101,NULL,Atmosphäre,angahewa,d,NA,NA,NA,NA,sdf,NA,2,NA,NA,NA,NA,NA,NA,NA,NA,NA,NA,NA,NA,NA,NA,NA,NA,NA,NA,NA
27eeb,shallow,flow.Sequence,3_0_2_0_6_1,NA,NA,skipped,NA,2431811.3,NA,NA,2431809.509,2431811.5,2023-05-02T09:50:48Z,2431826.101,NULL,Atmosphäre,angahewa,d,NA,NA,NA,NA,sdf,NA,2,NA,NA,NA,NA,NA,NA,NA,NA,NA,NA,NA,NA,NA,NA,NA,NA,NA,NA,NA
27eeb,task,flow.Sequence,3_0_2_0_6,NA,NA,completion,13106.854,2418703.5999999,2418686.026,2418702.655,2431809.509,2431811.8,2023-05-02T09:50:48Z,2431826.101,NULL,Atmosphäre,angahewa,d,NA,NA,NA,NA,sdf,NA,2,NA,NA,NA,NA,NA,NA,NA,NA,NA,NA,NA,NA,NA,NA,NA,NA,NA,NA,NA
27eeb,deep,flow.Sequence,3_0_2_0_7_0,NA,NA,skipped,NA,2431811.9000001,NA,NA,2431809.509,2431812.0999999,2023-05-02T09:50:48Z,2431826.101,NULL,Erneuerung,ukarabati,s,ushawishi,ukalifu,unyonyaji,NA,sdf,NA,2,NA,NA,NA,NA,NA,NA,NA,NA,NA,NA,NA,NA,NA,NA,NA,NA,NA,NA,NA
27eeb,Shallow Question,html.Page,3_0_2_0_7_1_0,NA,NA,form submission,10212.599000048,2431812.2,2431809.509,2431826.101,2442038.7,2442039,2023-05-02T09:50:58Z,2442058.193,NULL,Erneuerung,ukarabati,s,ushawishi,ukalifu,unyonyaji,ushawishi,NA,NA,2,NA,NA,NA,NA,NA,NA,NA,NA,NA,NA,NA,NA,NA,NA,NA,NA,NA,NA,NA
27eeb,"""Richtig""-Screen",canvas.Screen,3_0_2_0_7_1_1,NA,NA,skipped,NA,2442040.9000001,NA,NA,2442038.7,2442041.0999999,2023-05-02T09:50:58Z,2442058.193,NULL,Erneuerung,ukarabati,s,ushawishi,ukalifu,unyonyaji,NA,sdf,NA,2,NA,NA,NA,NA,NA,NA,NA,NA,NA,NA,NA,NA,NA,NA,NA,NA,NA,NA,NA
27eeb,"""Falsch""-Screen",canvas.Screen,3_0_2_0_7_1_2,NA,NA,timeout,4999.9360000002,2442041.7,2442024.424,2442058.193,2447041.725,2447042.8,2023-05-02T09:51:03Z,2447058.129,NULL,Erneuerung,ukarabati,s,ushawishi,ukalifu,unyonyaji,NA,sdf,0,2,NA,NA,NA,NA,NA,NA,NA,NA,NA,NA,NA,NA,NA,NA,NA,NA,NA,NA,NA
27eeb,shallow,flow.Sequence,3_0_2_0_7_1,NA,NA,completion,15215.624,2431812.2,2431809.509,2431826.101,2447041.725,2447043.3,2023-05-02T09:51:03Z,2447058.129,NULL,Erneuerung,ukarabati,s,ushawishi,ukalifu,unyonyaji,NA,sdf,NA,2,NA,NA,NA,NA,NA,NA,NA,NA,NA,NA,NA,NA,NA,NA,NA,NA,NA,NA,NA
27eeb,task,flow.Sequence,3_0_2_0_7,NA,NA,completion,15215.624,2431811.8,2431809.509,2431826.101,2447041.725,2447043.5999999,2023-05-02T09:51:03Z,2447058.129,NULL,Erneuerung,ukarabati,s,ushawishi,ukalifu,unyonyaji,NA,sdf,NA,2,NA,NA,NA,NA,NA,NA,NA,NA,NA,NA,NA,NA,NA,NA,NA,NA,NA,NA,NA
27eeb,block,flow.Loop,3_0_2_0,NA,NA,completion,105384.015,2341644.5,2341640.342,2341657.71,2447041.725,2447043.9000001,2023-05-02T09:51:03Z,2447058.129,NULL,NA,NA,NA,NA,NA,NA,NA,sdf,NA,2,NA,NA,NA,NA,NA,NA,NA,NA,NA,NA,NA,NA,NA,NA,NA,NA,NA,NA,NA
27eeb,weiter,canvas.Screen,3_0_2_1,sdf,keypress(Space),response,1341.0710000475,2447044,2447041.725,2447058.129,2448399.2,2448400.2,2023-05-02T09:51:04Z,2448507.639,NULL,NA,NA,NA,NA,NA,NA,NA,sdf,NA,2,NA,NA,NA,NA,NA,NA,NA,NA,NA,NA,NA,NA,NA,NA,NA,NA,NA,NA,NA
27eeb,check continue,flow.Sequence,3_0_2,NA,NA,completion,106741.49000005,2341644.5,2341640.342,2341657.71,2448399.2,2448400.5999999,2023-05-02T09:51:04Z,2448507.639,NULL,NA,NA,NA,NA,NA,NA,NA,sdf,NA,2,NA,NA,NA,NA,NA,NA,NA,NA,NA,NA,NA,NA,NA,NA,NA,NA,NA,NA,NA
27eeb,deep,flow.Sequence,3_0_3_0_0_0,NA,NA,skipped,NA,2448502,NA,NA,2448399.2,2448502.3,2023-05-02T09:51:05Z,2448507.639,NULL,Erneuerung,ukarabati,s,ushawishi,ukalifu,unyonyaji,NA,qt,NA,3,NA,NA,NA,NA,NA,NA,NA,NA,NA,NA,NA,NA,NA,NA,NA,NA,NA,NA,NA
27eeb,Shallow Question,html.Page,3_0_3_0_0_1_0,NA,NA,form submission,3558.361,2448502.5,2448490.383,2448507.639,2452066,2452066.2,2023-05-02T09:51:08Z,2452068.662,NULL,Erneuerung,ukarabati,s,ushawishi,ukalifu,unyonyaji,ukarabati,NA,NA,3,NA,NA,NA,NA,NA,NA,NA,NA,NA,NA,NA,NA,NA,NA,NA,NA,NA,NA,NA
27eeb,"""Richtig""-Screen",canvas.Screen,3_0_3_0_0_1_1,NA,NA,timeout,4995.5690000001,2452068.0999999,2452055.998,2452068.662,2457048.041,2457049.2,2023-05-02T09:51:13Z,2457064.231,NULL,Erneuerung,ukarabati,s,ushawishi,ukalifu,unyonyaji,NA,qt,1,3,NA,NA,NA,NA,NA,NA,NA,NA,NA,NA,NA,NA,NA,NA,NA,NA,NA,NA,NA
27eeb,"""Falsch""-Screen",canvas.Screen,3_0_3_0_0_1_2,NA,NA,skipped,NA,2457054.5999999,NA,NA,2457048.041,2457055,2023-05-02T09:51:13Z,2457064.231,NULL,Erneuerung,ukarabati,s,ushawishi,ukalifu,unyonyaji,NA,qt,NA,3,NA,NA,NA,NA,NA,NA,NA,NA,NA,NA,NA,NA,NA,NA,NA,NA,NA,NA,NA
27eeb,shallow,flow.Sequence,3_0_3_0_0_1,NA,NA,completion,8540.4020000002,2448502.5,2448490.383,2448507.639,2457048.041,2457055.4000001,2023-05-02T09:51:13Z,2457064.231,NULL,Erneuerung,ukarabati,s,ushawishi,ukalifu,unyonyaji,NA,qt,NA,3,NA,NA,NA,NA,NA,NA,NA,NA,NA,NA,NA,NA,NA,NA,NA,NA,NA,NA,NA
27eeb,task,flow.Sequence,3_0_3_0_0,NA,NA,completion,8540.4020000002,2448501.9000001,2448490.383,2448507.639,2457048.041,2457055.5999999,2023-05-02T09:51:13Z,2457064.231,NULL,Erneuerung,ukarabati,s,ushawishi,ukalifu,unyonyaji,NA,qt,NA,3,NA,NA,NA,NA,NA,NA,NA,NA,NA,NA,NA,NA,NA,NA,NA,NA,NA,NA,NA
27eeb,Deep Question,html.Page,3_0_3_0_1_0_0,NA,NA,form submission,5089.9690000475,2457055.9000001,2457048.041,2457064.231,2462154.2,2462154.4000001,2023-05-02T09:51:18Z,2462162.74,NULL,Atmosphäre,angahewa,d,NA,NA,NA,uhas,NA,NA,3,NA,NA,NA,NA,NA,NA,NA,NA,NA,NA,NA,NA,NA,NA,NA,NA,NA,NA,NA
27eeb,"""Richtig""-Screen",canvas.Screen,3_0_3_0_1_0_1,NA,NA,skipped,NA,2462156.3,NA,NA,2462154.2,2462156.4000001,2023-05-02T09:51:18Z,2462162.74,NULL,Atmosphäre,angahewa,d,NA,NA,NA,NA,qt,NA,3,NA,NA,NA,NA,NA,NA,NA,NA,NA,NA,NA,NA,NA,NA,NA,NA,NA,NA,NA
27eeb,"""Falsch""-Screen",canvas.Screen,3_0_3_0_1_0_2,NA,NA,timeout,4995.9899999998,2462157,2462146.428,2462162.74,2467142.382,2467143.5,2023-05-02T09:51:23Z,2467158.73,NULL,Atmosphäre,angahewa,d,NA,NA,NA,NA,qt,0,3,NA,NA,NA,NA,NA,NA,NA,NA,NA,NA,NA,NA,NA,NA,NA,NA,NA,NA,NA
27eeb,deep,flow.Sequence,3_0_3_0_1_0,NA,NA,completion,10078.151,2457055.8,2457048.041,2457064.231,2467142.382,2467144,2023-05-02T09:51:23Z,2467158.73,NULL,Atmosphäre,angahewa,d,NA,NA,NA,NA,qt,NA,3,NA,NA,NA,NA,NA,NA,NA,NA,NA,NA,NA,NA,NA,NA,NA,NA,NA,NA,NA
27eeb,shallow,flow.Sequence,3_0_3_0_1_1,NA,NA,skipped,NA,2467144.0999999,NA,NA,2467142.382,2467144.3,2023-05-02T09:51:23Z,2467158.73,NULL,Atmosphäre,angahewa,d,NA,NA,NA,NA,qt,NA,3,NA,NA,NA,NA,NA,NA,NA,NA,NA,NA,NA,NA,NA,NA,NA,NA,NA,NA,NA
27eeb,task,flow.Sequence,3_0_3_0_1,NA,NA,completion,10078.151,2457055.8,2457048.041,2457064.231,2467142.382,2467144.5999999,2023-05-02T09:51:23Z,2467158.73,NULL,Atmosphäre,angahewa,d,NA,NA,NA,NA,qt,NA,3,NA,NA,NA,NA,NA,NA,NA,NA,NA,NA,NA,NA,NA,NA,NA,NA,NA,NA,NA
27eeb,deep,flow.Sequence,3_0_3_0_2_0,NA,NA,skipped,NA,2467144.7,NA,NA,2467142.382,2467144.8,2023-05-02T09:51:23Z,2467158.73,NULL,Wechsel,ugeuzaji,s,utambulisho,kujenga,wasiwasi,NA,qt,NA,3,NA,NA,NA,NA,NA,NA,NA,NA,NA,NA,NA,NA,NA,NA,NA,NA,NA,NA,NA
27eeb,Shallow Question,html.Page,3_0_3_0_2_1_0,NA,NA,form submission,7723.27,2467145,2467142.382,2467158.73,2474882,2474882.2,2023-05-02T09:51:31Z,2474897.148,NULL,Wechsel,ugeuzaji,s,utambulisho,kujenga,wasiwasi,ugeuzaji,NA,NA,3,NA,NA,NA,NA,NA,NA,NA,NA,NA,NA,NA,NA,NA,NA,NA,NA,NA,NA,NA
27eeb,"""Richtig""-Screen",canvas.Screen,3_0_3_0_2_1_1,NA,NA,timeout,5008.4380000001,2474884,2474880.207,2474897.148,2479888.424,2479888.8,2023-05-02T09:51:36Z,2479905.586,NULL,Wechsel,ugeuzaji,s,utambulisho,kujenga,wasiwasi,NA,qt,1,3,NA,NA,NA,NA,NA,NA,NA,NA,NA,NA,NA,NA,NA,NA,NA,NA,NA,NA,NA
27eeb,"""Falsch""-Screen",canvas.Screen,3_0_3_0_2_1_2,NA,NA,skipped,NA,2479890.8,NA,NA,2479888.424,2479890.9000001,2023-05-02T09:51:36Z,2479905.586,NULL,Wechsel,ugeuzaji,s,utambulisho,kujenga,wasiwasi,NA,qt,NA,3,NA,NA,NA,NA,NA,NA,NA,NA,NA,NA,NA,NA,NA,NA,NA,NA,NA,NA,NA
27eeb,shallow,flow.Sequence,3_0_3_0_2_1,NA,NA,completion,12729.694,2467144.9000001,2467142.382,2467158.73,2479888.424,2479891.0999999,2023-05-02T09:51:36Z,2479905.586,NULL,Wechsel,ugeuzaji,s,utambulisho,kujenga,wasiwasi,NA,qt,NA,3,NA,NA,NA,NA,NA,NA,NA,NA,NA,NA,NA,NA,NA,NA,NA,NA,NA,NA,NA
27eeb,task,flow.Sequence,3_0_3_0_2,NA,NA,completion,12729.694,2467144.7,2467142.382,2467158.73,2479888.424,2479891.2,2023-05-02T09:51:36Z,2479905.586,NULL,Wechsel,ugeuzaji,s,utambulisho,kujenga,wasiwasi,NA,qt,NA,3,NA,NA,NA,NA,NA,NA,NA,NA,NA,NA,NA,NA,NA,NA,NA,NA,NA,NA,NA
27eeb,deep,flow.Sequence,3_0_3_0_3_0,NA,NA,skipped,NA,2479891.2,NA,NA,2479888.424,2479891.3,2023-05-02T09:51:36Z,2479905.586,NULL,Angreifer,mshambulizi,s,kitengo,tasinia,usafirishaji,NA,qt,NA,3,NA,NA,NA,NA,NA,NA,NA,NA,NA,NA,NA,NA,NA,NA,NA,NA,NA,NA,NA
27eeb,Shallow Question,html.Page,3_0_3_0_3_1_0,NA,NA,form submission,2970.0139999045,2479891.3,2479888.424,2479905.586,2482875.5999999,2482875.7,2023-05-02T09:51:39Z,2482887.974,NULL,Angreifer,mshambulizi,s,kitengo,tasinia,usafirishaji,mshambulizi,NA,NA,3,NA,NA,NA,NA,NA,NA,NA,NA,NA,NA,NA,NA,NA,NA,NA,NA,NA,NA,NA
27eeb,"""Richtig""-Screen",canvas.Screen,3_0_3_0_3_1_1,NA,NA,timeout,4991.284,2482876.3,2482867.029,2482887.974,2487863.158,2487864.3,2023-05-02T09:51:44Z,2487879.258,NULL,Angreifer,mshambulizi,s,kitengo,tasinia,usafirishaji,NA,qt,1,3,NA,NA,NA,NA,NA,NA,NA,NA,NA,NA,NA,NA,NA,NA,NA,NA,NA,NA,NA
27eeb,"""Falsch""-Screen",canvas.Screen,3_0_3_0_3_1_2,NA,NA,skipped,NA,2487870.2,NA,NA,2487863.158,2487870.4000001,2023-05-02T09:51:44Z,2487879.258,NULL,Angreifer,mshambulizi,s,kitengo,tasinia,usafirishaji,NA,qt,NA,3,NA,NA,NA,NA,NA,NA,NA,NA,NA,NA,NA,NA,NA,NA,NA,NA,NA,NA,NA
27eeb,shallow,flow.Sequence,3_0_3_0_3_1,NA,NA,completion,7957.5719999997,2479891.3,2479888.424,2479905.586,2487863.158,2487870.9000001,2023-05-02T09:51:44Z,2487879.258,NULL,Angreifer,mshambulizi,s,kitengo,tasinia,usafirishaji,NA,qt,NA,3,NA,NA,NA,NA,NA,NA,NA,NA,NA,NA,NA,NA,NA,NA,NA,NA,NA,NA,NA
27eeb,task,flow.Sequence,3_0_3_0_3,NA,NA,completion,7957.5719999997,2479891.2,2479888.424,2479905.586,2487863.158,2487871.2,2023-05-02T09:51:44Z,2487879.258,NULL,Angreifer,mshambulizi,s,kitengo,tasinia,usafirishaji,NA,qt,NA,3,NA,NA,NA,NA,NA,NA,NA,NA,NA,NA,NA,NA,NA,NA,NA,NA,NA,NA,NA
27eeb,Deep Question,html.Page,3_0_3_0_4_0_0,NA,NA,form submission,7747.2420000001,2487871.5,2487863.158,2487879.258,2495626.5,2495626.5999999,2023-05-02T09:51:52Z,2495639.615,NULL,Abrechnung,uhasibu,d,NA,NA,NA,uh,NA,NA,3,NA,NA,NA,NA,NA,NA,NA,NA,NA,NA,NA,NA,NA,NA,NA,NA,NA,NA,NA
27eeb,"""Richtig""-Screen",canvas.Screen,3_0_3_0_4_0_1,NA,NA,skipped,NA,2495628.5999999,NA,NA,2495626.5,2495628.7,2023-05-02T09:51:52Z,2495639.615,NULL,Abrechnung,uhasibu,d,NA,NA,NA,NA,qt,NA,3,NA,NA,NA,NA,NA,NA,NA,NA,NA,NA,NA,NA,NA,NA,NA,NA,NA,NA,NA
27eeb,"""Falsch""-Screen",canvas.Screen,3_0_3_0_4_0_2,NA,NA,timeout,4995.7539999997,2495629.3,2495615.034,2495639.615,2500618.906,2500619.9000001,2023-05-02T09:51:57Z,2500635.369,NULL,Abrechnung,uhasibu,d,NA,NA,NA,NA,qt,0,3,NA,NA,NA,NA,NA,NA,NA,NA,NA,NA,NA,NA,NA,NA,NA,NA,NA,NA,NA
27eeb,deep,flow.Sequence,3_0_3_0_4_0,NA,NA,completion,12739.648,2487871.4000001,2487863.158,2487879.258,2500618.906,2500620.4000001,2023-05-02T09:51:57Z,2500635.369,NULL,Abrechnung,uhasibu,d,NA,NA,NA,NA,qt,NA,3,NA,NA,NA,NA,NA,NA,NA,NA,NA,NA,NA,NA,NA,NA,NA,NA,NA,NA,NA
27eeb,shallow,flow.Sequence,3_0_3_0_4_1,NA,NA,skipped,NA,2500620.5,NA,NA,2500618.906,2500620.7,2023-05-02T09:51:57Z,2500635.369,NULL,Abrechnung,uhasibu,d,NA,NA,NA,NA,qt,NA,3,NA,NA,NA,NA,NA,NA,NA,NA,NA,NA,NA,NA,NA,NA,NA,NA,NA,NA,NA
27eeb,task,flow.Sequence,3_0_3_0_4,NA,NA,completion,12739.648,2487871.4000001,2487863.158,2487879.258,2500618.906,2500620.9000001,2023-05-02T09:51:57Z,2500635.369,NULL,Abrechnung,uhasibu,d,NA,NA,NA,NA,qt,NA,3,NA,NA,NA,NA,NA,NA,NA,NA,NA,NA,NA,NA,NA,NA,NA,NA,NA,NA,NA
27eeb,Deep Question,html.Page,3_0_3_0_5_0_0,NA,NA,form submission,9002.9309999524,2500621.2,2500618.906,2500635.369,2509638.3,2509638.4000001,2023-05-02T09:52:06Z,2509654.325,NULL,Flexibilität,kubadilika,d,NA,NA,NA,uga,NA,NA,3,NA,NA,NA,NA,NA,NA,NA,NA,NA,NA,NA,NA,NA,NA,NA,NA,NA,NA,NA
27eeb,"""Richtig""-Screen",canvas.Screen,3_0_3_0_5_0_1,NA,NA,skipped,NA,2509641.0999999,NA,NA,2509638.3,2509641.2,2023-05-02T09:52:06Z,2509654.325,NULL,Flexibilität,kubadilika,d,NA,NA,NA,NA,qt,NA,3,NA,NA,NA,NA,NA,NA,NA,NA,NA,NA,NA,NA,NA,NA,NA,NA,NA,NA,NA
27eeb,"""Falsch""-Screen",canvas.Screen,3_0_3_0_5_0_2,NA,NA,timeout,4995.628,2509642.3,2509633.815,2509654.325,2514633.777,2514634.9000001,2023-05-02T09:52:11Z,2514649.953,NULL,Flexibilität,kubadilika,d,NA,NA,NA,NA,qt,0,3,NA,NA,NA,NA,NA,NA,NA,NA,NA,NA,NA,NA,NA,NA,NA,NA,NA,NA,NA
27eeb,deep,flow.Sequence,3_0_3_0_5_0,NA,NA,completion,13998.408,2500621.2,2500618.906,2500635.369,2514633.777,2514635.2,2023-05-02T09:52:11Z,2514649.953,NULL,Flexibilität,kubadilika,d,NA,NA,NA,NA,qt,NA,3,NA,NA,NA,NA,NA,NA,NA,NA,NA,NA,NA,NA,NA,NA,NA,NA,NA,NA,NA
27eeb,shallow,flow.Sequence,3_0_3_0_5_1,NA,NA,skipped,NA,2514635.4000001,NA,NA,2514633.777,2514635.7,2023-05-02T09:52:11Z,2514649.953,NULL,Flexibilität,kubadilika,d,NA,NA,NA,NA,qt,NA,3,NA,NA,NA,NA,NA,NA,NA,NA,NA,NA,NA,NA,NA,NA,NA,NA,NA,NA,NA
27eeb,task,flow.Sequence,3_0_3_0_5,NA,NA,completion,13998.408,2500621.2,2500618.906,2500635.369,2514633.777,2514635.9000001,2023-05-02T09:52:11Z,2514649.953,NULL,Flexibilität,kubadilika,d,NA,NA,NA,NA,qt,NA,3,NA,NA,NA,NA,NA,NA,NA,NA,NA,NA,NA,NA,NA,NA,NA,NA,NA,NA,NA
27eeb,deep,flow.Sequence,3_0_3_0_6_0,NA,NA,skipped,NA,2514636.0999999,NA,NA,2514633.777,2514636.2,2023-05-02T09:52:11Z,2514649.953,NULL,Sänger,mwimbaji,s,msichana,shughuli,mshirika,NA,qt,NA,3,NA,NA,NA,NA,NA,NA,NA,NA,NA,NA,NA,NA,NA,NA,NA,NA,NA,NA,NA
27eeb,Shallow Question,html.Page,3_0_3_0_6_1_0,NA,NA,form submission,4663.4470000952,2514636.5,2514633.777,2514649.953,2519313.4000001,2519313.5999999,2023-05-02T09:52:15Z,2519326.884,NULL,Sänger,mwimbaji,s,msichana,shughuli,mshirika,mwimbaji,NA,NA,3,NA,NA,NA,NA,NA,NA,NA,NA,NA,NA,NA,NA,NA,NA,NA,NA,NA,NA,NA
27eeb,"""Richtig""-Screen",canvas.Screen,3_0_3_0_6_1_1,NA,NA,timeout,5003.7829999998,2519315.4000001,2519310.035,2519326.884,2524314.288,2524315.4000001,2023-05-02T09:52:20Z,2524330.667,NULL,Sänger,mwimbaji,s,msichana,shughuli,mshirika,NA,qt,1,3,NA,NA,NA,NA,NA,NA,NA,NA,NA,NA,NA,NA,NA,NA,NA,NA,NA,NA,NA
27eeb,"""Falsch""-Screen",canvas.Screen,3_0_3_0_6_1_2,NA,NA,skipped,NA,2524320.8,NA,NA,2524314.288,2524321,2023-05-02T09:52:20Z,2524330.667,NULL,Sänger,mwimbaji,s,msichana,shughuli,mshirika,NA,qt,NA,3,NA,NA,NA,NA,NA,NA,NA,NA,NA,NA,NA,NA,NA,NA,NA,NA,NA,NA,NA
27eeb,shallow,flow.Sequence,3_0_3_0_6_1,NA,NA,completion,9664.335,2514636.4000001,2514633.777,2514649.953,2524314.288,2524321.5,2023-05-02T09:52:20Z,2524330.667,NULL,Sänger,mwimbaji,s,msichana,shughuli,mshirika,NA,qt,NA,3,NA,NA,NA,NA,NA,NA,NA,NA,NA,NA,NA,NA,NA,NA,NA,NA,NA,NA,NA
27eeb,task,flow.Sequence,3_0_3_0_6,NA,NA,completion,9664.335,2514636.0999999,2514633.777,2514649.953,2524314.288,2524321.8,2023-05-02T09:52:20Z,2524330.667,NULL,Sänger,mwimbaji,s,msichana,shughuli,mshirika,NA,qt,NA,3,NA,NA,NA,NA,NA,NA,NA,NA,NA,NA,NA,NA,NA,NA,NA,NA,NA,NA,NA
27eeb,Deep Question,html.Page,3_0_3_0_7_0_0,NA,NA,form submission,5538.0330000478,2524322,2524314.288,2524330.667,2529868.7,2529868.9000001,2023-05-02T09:52:26Z,2529870.813,NULL,Kanzler,diwani,d,NA,NA,NA,diwani,NA,NA,3,NA,NA,NA,NA,NA,NA,NA,NA,NA,NA,NA,NA,NA,NA,NA,NA,NA,NA,NA
27eeb,"""Richtig""-Screen",canvas.Screen,3_0_3_0_7_0_1,NA,NA,timeout,4995.682,2529871.5,2529866.916,2529870.813,2534850.344,2534851.4000001,2023-05-02T09:52:31Z,2534866.495,NULL,Kanzler,diwani,d,NA,NA,NA,NA,qt,1,3,NA,NA,NA,NA,NA,NA,NA,NA,NA,NA,NA,NA,NA,NA,NA,NA,NA,NA,NA
27eeb,"""Falsch""-Screen",canvas.Screen,3_0_3_0_7_0_2,NA,NA,skipped,NA,2534856.8,NA,NA,2534850.344,2534857.0999999,2023-05-02T09:52:31Z,2534866.495,NULL,Kanzler,diwani,d,NA,NA,NA,NA,qt,NA,3,NA,NA,NA,NA,NA,NA,NA,NA,NA,NA,NA,NA,NA,NA,NA,NA,NA,NA,NA
27eeb,deep,flow.Sequence,3_0_3_0_7_0,NA,NA,completion,10519.677,2524322,2524314.288,2524330.667,2534850.344,2534857.5,2023-05-02T09:52:31Z,2534866.495,NULL,Kanzler,diwani,d,NA,NA,NA,NA,qt,NA,3,NA,NA,NA,NA,NA,NA,NA,NA,NA,NA,NA,NA,NA,NA,NA,NA,NA,NA,NA
27eeb,shallow,flow.Sequence,3_0_3_0_7_1,NA,NA,skipped,NA,2534857.7,NA,NA,2534850.344,2534857.9000001,2023-05-02T09:52:31Z,2534866.495,NULL,Kanzler,diwani,d,NA,NA,NA,NA,qt,NA,3,NA,NA,NA,NA,NA,NA,NA,NA,NA,NA,NA,NA,NA,NA,NA,NA,NA,NA,NA
27eeb,task,flow.Sequence,3_0_3_0_7,NA,NA,completion,10519.677,2524322,2524314.288,2524330.667,2534850.344,2534858.0999999,2023-05-02T09:52:31Z,2534866.495,NULL,Kanzler,diwani,d,NA,NA,NA,NA,qt,NA,3,NA,NA,NA,NA,NA,NA,NA,NA,NA,NA,NA,NA,NA,NA,NA,NA,NA,NA,NA
27eeb,block,flow.Loop,3_0_3_0,NA,NA,completion,86342.705,2448501.8,2448490.383,2448507.639,2534850.344,2534858.4000001,2023-05-02T09:52:31Z,2534866.495,NULL,NA,NA,NA,NA,NA,NA,NA,qt,NA,3,NA,NA,NA,NA,NA,NA,NA,NA,NA,NA,NA,NA,NA,NA,NA,NA,NA,NA,NA
27eeb,weiter,canvas.Screen,3_0_3_1,sdf,keypress(Space),response,1498.0049999999,2534858.5,2534850.344,2534866.495,2536364.5,2536365.5999999,2023-05-02T09:52:32Z,2536982.975,NULL,NA,NA,NA,NA,NA,NA,NA,qt,NA,3,NA,NA,NA,NA,NA,NA,NA,NA,NA,NA,NA,NA,NA,NA,NA,NA,NA,NA,NA
27eeb,check continue,flow.Sequence,3_0_3,NA,NA,completion,87856.861,2448501.5999999,2448490.383,2448507.639,2536364.5,2536365.9000001,2023-05-02T09:52:32Z,2536982.975,NULL,NA,NA,NA,NA,NA,NA,NA,qt,NA,3,NA,NA,NA,NA,NA,NA,NA,NA,NA,NA,NA,NA,NA,NA,NA,NA,NA,NA,NA
27eeb,check continue,flow.Sequence,3_0_4,NA,NA,skipped,NA,2536454.2,NA,NA,2536364.5,2536454.4000001,2023-05-02T09:52:33Z,2536982.975,NULL,NA,NA,NA,NA,NA,NA,NA,sd,NA,4,NA,NA,NA,NA,NA,NA,NA,NA,NA,NA,NA,NA,NA,NA,NA,NA,NA,NA,NA
27eeb,check continue,flow.Sequence,3_0_5,NA,NA,skipped,NA,2536492.4000001,NA,NA,2536364.5,2536492.5,2023-05-02T09:52:33Z,2536982.975,NULL,NA,NA,NA,NA,NA,NA,NA,sdf,NA,5,NA,NA,NA,NA,NA,NA,NA,NA,NA,NA,NA,NA,NA,NA,NA,NA,NA,NA,NA
27eeb,check continue,flow.Sequence,3_0_6,NA,NA,skipped,NA,2536514.2,NA,NA,2536364.5,2536514.3,2023-05-02T09:52:33Z,2536982.975,NULL,NA,NA,NA,NA,NA,NA,NA,dfs,NA,6,NA,NA,NA,NA,NA,NA,NA,NA,NA,NA,NA,NA,NA,NA,NA,NA,NA,NA,NA
27eeb,check continue,flow.Sequence,3_0_7,NA,NA,skipped,NA,2536531.4000001,NA,NA,2536364.5,2536531.5,2023-05-02T09:52:33Z,2536982.975,NULL,NA,NA,NA,NA,NA,NA,NA,df,NA,7,NA,NA,NA,NA,NA,NA,NA,NA,NA,NA,NA,NA,NA,NA,NA,NA,NA,NA,NA
27eeb,check continue,flow.Sequence,3_0_8,NA,NA,skipped,NA,2536556.9000001,NA,NA,2536364.5,2536557.0999999,2023-05-02T09:52:33Z,2536982.975,NULL,NA,NA,NA,NA,NA,NA,NA,dfs,NA,8,NA,NA,NA,NA,NA,NA,NA,NA,NA,NA,NA,NA,NA,NA,NA,NA,NA,NA,NA
27eeb,check continue,flow.Sequence,3_0_9,NA,NA,skipped,NA,2536577.3,NA,NA,2536364.5,2536577.4000001,2023-05-02T09:52:33Z,2536982.975,NULL,NA,NA,NA,NA,NA,NA,NA,dsf,NA,9,NA,NA,NA,NA,NA,NA,NA,NA,NA,NA,NA,NA,NA,NA,NA,NA,NA,NA,NA
27eeb,check continue,flow.Sequence,3_0_10,NA,NA,skipped,NA,2536595.5,NA,NA,2536364.5,2536595.5999999,2023-05-02T09:52:33Z,2536982.975,NULL,NA,NA,NA,NA,NA,NA,NA,df,NA,10,NA,NA,NA,NA,NA,NA,NA,NA,NA,NA,NA,NA,NA,NA,NA,NA,NA,NA,NA
27eeb,check continue,flow.Sequence,3_0_11,NA,NA,skipped,NA,2536613.9000001,NA,NA,2536364.5,2536614,2023-05-02T09:52:33Z,2536982.975,NULL,NA,NA,NA,NA,NA,NA,NA,dfs,NA,11,NA,NA,NA,NA,NA,NA,NA,NA,NA,NA,NA,NA,NA,NA,NA,NA,NA,NA,NA
27eeb,check continue,flow.Sequence,3_0_12,NA,NA,skipped,NA,2536631.5,NA,NA,2536364.5,2536631.5999999,2023-05-02T09:52:33Z,2536982.975,NULL,NA,NA,NA,NA,NA,NA,NA,dsf,NA,12,NA,NA,NA,NA,NA,NA,NA,NA,NA,NA,NA,NA,NA,NA,NA,NA,NA,NA,NA
27eeb,check continue,flow.Sequence,3_0_13,NA,NA,skipped,NA,2536652.2,NA,NA,2536364.5,2536652.3,2023-05-02T09:52:33Z,2536982.975,NULL,NA,NA,NA,NA,NA,NA,NA,dsf,NA,13,NA,NA,NA,NA,NA,NA,NA,NA,NA,NA,NA,NA,NA,NA,NA,NA,NA,NA,NA
27eeb,check continue,flow.Sequence,3_0_14,NA,NA,skipped,NA,2536669.9000001,NA,NA,2536364.5,2536670,2023-05-02T09:52:33Z,2536982.975,NULL,NA,NA,NA,NA,NA,NA,NA,NA,NA,14,NA,NA,NA,NA,NA,NA,NA,NA,NA,NA,NA,NA,NA,NA,NA,NA,NA,NA,NA
27eeb,check continue,flow.Sequence,3_0_15,NA,NA,skipped,NA,2536691.7,NA,NA,2536364.5,2536691.8,2023-05-02T09:52:33Z,2536982.975,NULL,NA,NA,NA,NA,NA,NA,NA,NA,NA,15,NA,NA,NA,NA,NA,NA,NA,NA,NA,NA,NA,NA,NA,NA,NA,NA,NA,NA,NA
27eeb,check continue,flow.Sequence,3_0_16,NA,NA,skipped,NA,2536711,NA,NA,2536364.5,2536711.0999999,2023-05-02T09:52:33Z,2536982.975,NULL,NA,NA,NA,NA,NA,NA,NA,NA,NA,16,NA,NA,NA,NA,NA,NA,NA,NA,NA,NA,NA,NA,NA,NA,NA,NA,NA,NA,NA
27eeb,check continue,flow.Sequence,3_0_17,NA,NA,skipped,NA,2536729.2,NA,NA,2536364.5,2536729.3,2023-05-02T09:52:33Z,2536982.975,NULL,NA,NA,NA,NA,NA,NA,NA,NA,NA,17,NA,NA,NA,NA,NA,NA,NA,NA,NA,NA,NA,NA,NA,NA,NA,NA,NA,NA,NA
27eeb,check continue,flow.Sequence,3_0_18,NA,NA,skipped,NA,2536747.7,NA,NA,2536364.5,2536747.9000001,2023-05-02T09:52:33Z,2536982.975,NULL,NA,NA,NA,NA,NA,NA,NA,NA,NA,18,NA,NA,NA,NA,NA,NA,NA,NA,NA,NA,NA,NA,NA,NA,NA,NA,NA,NA,NA
27eeb,check continue,flow.Sequence,3_0_19,NA,NA,skipped,NA,2536765.5999999,NA,NA,2536364.5,2536765.7,2023-05-02T09:52:33Z,2536982.975,NULL,NA,NA,NA,NA,NA,NA,NA,NA,NA,19,NA,NA,NA,NA,NA,NA,NA,NA,NA,NA,NA,NA,NA,NA,NA,NA,NA,NA,NA
27eeb,check continue,flow.Sequence,3_0_20,NA,NA,skipped,NA,2536782.8,NA,NA,2536364.5,2536782.9000001,2023-05-02T09:52:33Z,2536982.975,NULL,NA,NA,NA,NA,NA,NA,NA,NA,NA,20,NA,NA,NA,NA,NA,NA,NA,NA,NA,NA,NA,NA,NA,NA,NA,NA,NA,NA,NA
27eeb,check continue,flow.Sequence,3_0_21,NA,NA,skipped,NA,2536797.9000001,NA,NA,2536364.5,2536798.0999999,2023-05-02T09:52:33Z,2536982.975,NULL,NA,NA,NA,NA,NA,NA,NA,NA,NA,21,NA,NA,NA,NA,NA,NA,NA,NA,NA,NA,NA,NA,NA,NA,NA,NA,NA,NA,NA
27eeb,check continue,flow.Sequence,3_0_22,NA,NA,skipped,NA,2536813.2,NA,NA,2536364.5,2536813.3,2023-05-02T09:52:33Z,2536982.975,NULL,NA,NA,NA,NA,NA,NA,NA,NA,NA,22,NA,NA,NA,NA,NA,NA,NA,NA,NA,NA,NA,NA,NA,NA,NA,NA,NA,NA,NA
27eeb,check continue,flow.Sequence,3_0_23,NA,NA,skipped,NA,2536832.2,NA,NA,2536364.5,2536832.3,2023-05-02T09:52:33Z,2536982.975,NULL,NA,NA,NA,NA,NA,NA,NA,NA,NA,23,NA,NA,NA,NA,NA,NA,NA,NA,NA,NA,NA,NA,NA,NA,NA,NA,NA,NA,NA
27eeb,check continue,flow.Sequence,3_0_24,NA,NA,skipped,NA,2536851.4000001,NA,NA,2536364.5,2536851.5999999,2023-05-02T09:52:33Z,2536982.975,NULL,NA,NA,NA,NA,NA,NA,NA,NA,NA,24,NA,NA,NA,NA,NA,NA,NA,NA,NA,NA,NA,NA,NA,NA,NA,NA,NA,NA,NA
27eeb,check continue,flow.Sequence,3_0_25,NA,NA,skipped,NA,2536871.4000001,NA,NA,2536364.5,2536871.5,2023-05-02T09:52:33Z,2536982.975,NULL,NA,NA,NA,NA,NA,NA,NA,NA,NA,25,NA,NA,NA,NA,NA,NA,NA,NA,NA,NA,NA,NA,NA,NA,NA,NA,NA,NA,NA
27eeb,check continue,flow.Sequence,3_0_26,NA,NA,skipped,NA,2536892,NA,NA,2536364.5,2536892.0999999,2023-05-02T09:52:33Z,2536982.975,NULL,NA,NA,NA,NA,NA,NA,NA,NA,NA,26,NA,NA,NA,NA,NA,NA,NA,NA,NA,NA,NA,NA,NA,NA,NA,NA,NA,NA,NA
27eeb,check continue,flow.Sequence,3_0_27,NA,NA,skipped,NA,2536926.9000001,NA,NA,2536364.5,2536927,2023-05-02T09:52:33Z,2536982.975,NULL,NA,NA,NA,NA,NA,NA,NA,NA,NA,27,NA,NA,NA,NA,NA,NA,NA,NA,NA,NA,NA,NA,NA,NA,NA,NA,NA,NA,NA
27eeb,check continue,flow.Sequence,3_0_28,NA,NA,skipped,NA,2536947.4000001,NA,NA,2536364.5,2536947.4000001,2023-05-02T09:52:33Z,2536982.975,NULL,NA,NA,NA,NA,NA,NA,NA,NA,NA,28,NA,NA,NA,NA,NA,NA,NA,NA,NA,NA,NA,NA,NA,NA,NA,NA,NA,NA,NA
27eeb,check continue,flow.Sequence,3_0_29,NA,NA,skipped,NA,2536971.0999999,NA,NA,2536364.5,2536971.2,2023-05-02T09:52:33Z,2536982.975,NULL,NA,NA,NA,NA,NA,NA,NA,NA,NA,29,NA,NA,NA,NA,NA,NA,NA,NA,NA,NA,NA,NA,NA,NA,NA,NA,NA,NA,NA
27eeb,until continue,flow.Loop,3_0,NA,NA,completion,385344.951,2150980.3,2151005.776,2151019.549,2536364.5,2536971.4000001,2023-05-02T09:52:33Z,2536982.975,NULL,NA,NA,NA,NA,NA,NA,NA,NA,NA,NA,NA,NA,NA,NA,NA,NA,NA,NA,NA,NA,NA,NA,NA,NA,NA,NA,NA,NA,NA
27eeb,block 1,flow.Sequence,3,NA,NA,completion,385344.951,2150980.3,2151005.776,2151019.549,2536364.5,2536971.5,2023-05-02T09:52:33Z,2536982.975,NULL,NA,NA,NA,NA,NA,NA,NA,NA,NA,NA,NA,NA,NA,NA,NA,NA,NA,NA,NA,NA,NA,NA,NA,NA,NA,NA,NA,NA,NA
27eeb,1.Part Over,canvas.Screen,4,NA,keypress(Space),response,1979.4250000953,2536971.5,2536965.159,2536982.975,2538962.4000001,2538963.5,2023-05-02T09:52:35Z,2539120.555,NULL,NA,NA,NA,NA,NA,NA,NA,NA,NA,NA,NA,NA,NA,NA,NA,NA,NA,NA,NA,NA,NA,NA,NA,NA,NA,NA,NA,NA,NA
27eeb,deep,flow.Sequence,5_0_0_0_0_0,NA,NA,skipped,NA,2539110,NA,NA,2538962.4000001,2539110.2,2023-05-02T09:52:35Z,2539120.555,NULL,Respekt,heshima,s,changamnao,upinzani,ufanisi,NA,sdf,NA,0,NA,NA,NA,NA,NA,NA,NA,NA,NA,NA,NA,NA,NA,NA,NA,NA,NA,NA,NA
27eeb,Shallow Question,html.Page,5_0_0_0_0_1_0,NA,NA,form submission,6857.6450000475,2539110.2,2539097.913,2539120.555,2545978.2,2545978.4000001,2023-05-02T09:52:42Z,2545993.875,NULL,Respekt,heshima,s,changamnao,upinzani,ufanisi,ufanisi,NA,NA,0,NA,NA,NA,NA,NA,NA,NA,NA,NA,NA,NA,NA,NA,NA,NA,NA,NA,NA,NA
27eeb,"""Richtig""-Screen",canvas.Screen,5_0_0_0_0_1_1,NA,NA,skipped,NA,2545980.0999999,NA,NA,2545978.2,2545980.4000001,2023-05-02T09:52:42Z,2545993.875,NULL,Respekt,heshima,s,changamnao,upinzani,ufanisi,NA,sdf,NA,0,NA,NA,NA,NA,NA,NA,NA,NA,NA,NA,NA,NA,NA,NA,NA,NA,NA,NA,NA
27eeb,"""Falsch""-Screen",canvas.Screen,5_0_0_0_0_1_2,NA,NA,timeout,4996.023,2545980.9000001,2545972.979,2545993.875,2550973.248,2550974.3,2023-05-02T09:52:47Z,2550989.898,NULL,Respekt,heshima,s,changamnao,upinzani,ufanisi,NA,sdf,0,0,NA,NA,NA,NA,NA,NA,NA,NA,NA,NA,NA,NA,NA,NA,NA,NA,NA,NA,NA
27eeb,shallow,flow.Sequence,5_0_0_0_0_1,NA,NA,completion,11852.693,2539110.2,2539097.913,2539120.555,2550973.248,2550974.5999999,2023-05-02T09:52:47Z,2550989.898,NULL,Respekt,heshima,s,changamnao,upinzani,ufanisi,NA,sdf,NA,0,NA,NA,NA,NA,NA,NA,NA,NA,NA,NA,NA,NA,NA,NA,NA,NA,NA,NA,NA
27eeb,task,flow.Sequence,5_0_0_0_0,NA,NA,completion,11852.693,2539110,2539097.913,2539120.555,2550973.248,2550974.9000001,2023-05-02T09:52:47Z,2550989.898,NULL,Respekt,heshima,s,changamnao,upinzani,ufanisi,NA,sdf,NA,0,NA,NA,NA,NA,NA,NA,NA,NA,NA,NA,NA,NA,NA,NA,NA,NA,NA,NA,NA
27eeb,Deep Question,html.Page,5_0_0_0_1_0_0,NA,NA,form submission,4915.5020000953,2550975.2,2550973.248,2550989.898,2555905.4000001,2555905.7,2023-05-02T09:52:52Z,2555933.657,NULL,Betrüger,mdanganyifu,d,NA,NA,NA,mor,NA,NA,0,NA,NA,NA,NA,NA,NA,NA,NA,NA,NA,NA,NA,NA,NA,NA,NA,NA,NA,NA
27eeb,"""Richtig""-Screen",canvas.Screen,5_0_0_0_1_0_1,NA,NA,skipped,NA,2555908.3,NA,NA,2555905.4000001,2555908.5999999,2023-05-02T09:52:52Z,2555933.657,NULL,Betrüger,mdanganyifu,d,NA,NA,NA,NA,sdf,NA,0,NA,NA,NA,NA,NA,NA,NA,NA,NA,NA,NA,NA,NA,NA,NA,NA,NA,NA,NA
27eeb,"""Falsch""-Screen",canvas.Screen,5_0_0_0_1_0_2,NA,NA,timeout,4995.6969999997,2555909.3,2555917.579,2555933.657,2560913.271,2560914.4000001,2023-05-02T09:52:57Z,2560929.354,NULL,Betrüger,mdanganyifu,d,NA,NA,NA,NA,sdf,0,0,NA,NA,NA,NA,NA,NA,NA,NA,NA,NA,NA,NA,NA,NA,NA,NA,NA,NA,NA
27eeb,deep,flow.Sequence,5_0_0_0_1_0,NA,NA,completion,9923.3730000001,2550975.0999999,2550973.248,2550989.898,2560913.271,2560914.9000001,2023-05-02T09:52:57Z,2560929.354,NULL,Betrüger,mdanganyifu,d,NA,NA,NA,NA,sdf,NA,0,NA,NA,NA,NA,NA,NA,NA,NA,NA,NA,NA,NA,NA,NA,NA,NA,NA,NA,NA
27eeb,shallow,flow.Sequence,5_0_0_0_1_1,NA,NA,skipped,NA,2560915,NA,NA,2560913.271,2560915.2,2023-05-02T09:52:57Z,2560929.354,NULL,Betrüger,mdanganyifu,d,NA,NA,NA,NA,sdf,NA,0,NA,NA,NA,NA,NA,NA,NA,NA,NA,NA,NA,NA,NA,NA,NA,NA,NA,NA,NA
27eeb,task,flow.Sequence,5_0_0_0_1,NA,NA,completion,9923.3730000001,2550975,2550973.248,2550989.898,2560913.271,2560915.4000001,2023-05-02T09:52:57Z,2560929.354,NULL,Betrüger,mdanganyifu,d,NA,NA,NA,NA,sdf,NA,0,NA,NA,NA,NA,NA,NA,NA,NA,NA,NA,NA,NA,NA,NA,NA,NA,NA,NA,NA
27eeb,deep,flow.Sequence,5_0_0_0_2_0,NA,NA,skipped,NA,2560915.5999999,NA,NA,2560913.271,2560915.8,2023-05-02T09:52:57Z,2560929.354,NULL,Können,unaweza,s,kiongozi,bustani,mienendo,NA,sdf,NA,0,NA,NA,NA,NA,NA,NA,NA,NA,NA,NA,NA,NA,NA,NA,NA,NA,NA,NA,NA
27eeb,Shallow Question,html.Page,5_0_0_0_2_1_0,NA,NA,form submission,5263.1460000002,2560916,2560913.271,2560929.354,2566192.5,2566192.8,2023-05-02T09:53:02Z,2566197.455,NULL,Können,unaweza,s,kiongozi,bustani,mienendo,kiongozi,NA,NA,0,NA,NA,NA,NA,NA,NA,NA,NA,NA,NA,NA,NA,NA,NA,NA,NA,NA,NA,NA
27eeb,"""Richtig""-Screen",canvas.Screen,5_0_0_0_2_1_1,NA,NA,skipped,NA,2566195.0999999,NA,NA,2566192.5,2566195.2,2023-05-02T09:53:02Z,2566197.455,NULL,Können,unaweza,s,kiongozi,bustani,mienendo,NA,sdf,NA,0,NA,NA,NA,NA,NA,NA,NA,NA,NA,NA,NA,NA,NA,NA,NA,NA,NA,NA,NA
27eeb,"""Falsch""-Screen",canvas.Screen,5_0_0_0_2_1_2,NA,NA,timeout,4991.9640000002,2566195.8,2566180.992,2566197.455,2571172.861,2571174,2023-05-02T09:53:07Z,2571189.419,NULL,Können,unaweza,s,kiongozi,bustani,mienendo,NA,sdf,0,0,NA,NA,NA,NA,NA,NA,NA,NA,NA,NA,NA,NA,NA,NA,NA,NA,NA,NA,NA
27eeb,shallow,flow.Sequence,5_0_0_0_2_1,NA,NA,completion,10243.507,2560916,2560913.271,2560929.354,2571172.861,2571174.5999999,2023-05-02T09:53:07Z,2571189.419,NULL,Können,unaweza,s,kiongozi,bustani,mienendo,NA,sdf,NA,0,NA,NA,NA,NA,NA,NA,NA,NA,NA,NA,NA,NA,NA,NA,NA,NA,NA,NA,NA
27eeb,task,flow.Sequence,5_0_0_0_2,NA,NA,completion,10243.507,2560915.5999999,2560913.271,2560929.354,2571172.861,2571174.8,2023-05-02T09:53:07Z,2571189.419,NULL,Können,unaweza,s,kiongozi,bustani,mienendo,NA,sdf,NA,0,NA,NA,NA,NA,NA,NA,NA,NA,NA,NA,NA,NA,NA,NA,NA,NA,NA,NA,NA
27eeb,Deep Question,html.Page,5_0_0_0_3_0_0,NA,NA,form submission,6464.1809999044,2571175,2571172.861,2571189.419,2577653.5999999,2577653.9000001,2023-05-02T09:53:14Z,2577674.248,NULL,Kontrolle,kudhibiti,d,NA,NA,NA,cio,NA,NA,0,NA,NA,NA,NA,NA,NA,NA,NA,NA,NA,NA,NA,NA,NA,NA,NA,NA,NA,NA
27eeb,"""Richtig""-Screen",canvas.Screen,5_0_0_0_3_0_1,NA,NA,skipped,NA,2577657.4000001,NA,NA,2577653.5999999,2577657.5999999,2023-05-02T09:53:14Z,2577674.248,NULL,Kontrolle,kudhibiti,d,NA,NA,NA,NA,sdf,NA,0,NA,NA,NA,NA,NA,NA,NA,NA,NA,NA,NA,NA,NA,NA,NA,NA,NA,NA,NA
27eeb,"""Falsch""-Screen",canvas.Screen,5_0_0_0_3_0_2,NA,NA,timeout,4995.9979999997,2577658.3,2577637.841,2577674.248,2582654.185,2582655.5,2023-05-02T09:53:19Z,2582670.246,NULL,Kontrolle,kudhibiti,d,NA,NA,NA,NA,sdf,0,0,NA,NA,NA,NA,NA,NA,NA,NA,NA,NA,NA,NA,NA,NA,NA,NA,NA,NA,NA
27eeb,deep,flow.Sequence,5_0_0_0_3_0,NA,NA,completion,11464.766,2571175,2571172.861,2571189.419,2582654.185,2582655.9000001,2023-05-02T09:53:19Z,2582670.246,NULL,Kontrolle,kudhibiti,d,NA,NA,NA,NA,sdf,NA,0,NA,NA,NA,NA,NA,NA,NA,NA,NA,NA,NA,NA,NA,NA,NA,NA,NA,NA,NA
27eeb,shallow,flow.Sequence,5_0_0_0_3_1,NA,NA,skipped,NA,2582656.0999999,NA,NA,2582654.185,2582656.3,2023-05-02T09:53:19Z,2582670.246,NULL,Kontrolle,kudhibiti,d,NA,NA,NA,NA,sdf,NA,0,NA,NA,NA,NA,NA,NA,NA,NA,NA,NA,NA,NA,NA,NA,NA,NA,NA,NA,NA
27eeb,task,flow.Sequence,5_0_0_0_3,NA,NA,completion,11464.766,2571175,2571172.861,2571189.419,2582654.185,2582656.5,2023-05-02T09:53:19Z,2582670.246,NULL,Kontrolle,kudhibiti,d,NA,NA,NA,NA,sdf,NA,0,NA,NA,NA,NA,NA,NA,NA,NA,NA,NA,NA,NA,NA,NA,NA,NA,NA,NA,NA
27eeb,deep,flow.Sequence,5_0_0_0_4_0,NA,NA,skipped,NA,2582656.7,NA,NA,2582654.185,2582656.8,2023-05-02T09:53:19Z,2582670.246,NULL,Orientierung,urekebisho,s,uelekeo,marekebisho,utunzaji,NA,sdf,NA,0,NA,NA,NA,NA,NA,NA,NA,NA,NA,NA,NA,NA,NA,NA,NA,NA,NA,NA,NA
27eeb,Shallow Question,html.Page,5_0_0_0_4_1_0,NA,NA,form submission,9190.9540000479,2582657,2582654.185,2582670.246,2591861.2,2591861.5,2023-05-02T09:53:28Z,2591877.525,NULL,Orientierung,urekebisho,s,uelekeo,marekebisho,utunzaji,urekebisho,NA,NA,0,NA,NA,NA,NA,NA,NA,NA,NA,NA,NA,NA,NA,NA,NA,NA,NA,NA,NA,NA
27eeb,"""Richtig""-Screen",canvas.Screen,5_0_0_0_4_1_1,NA,NA,timeout,4995.3599999999,2591863.4000001,2591847.72,2591877.525,2596856.239,2596857,2023-05-02T09:53:33Z,2596872.885,NULL,Orientierung,urekebisho,s,uelekeo,marekebisho,utunzaji,NA,sdf,1,0,NA,NA,NA,NA,NA,NA,NA,NA,NA,NA,NA,NA,NA,NA,NA,NA,NA,NA,NA
27eeb,"""Falsch""-Screen",canvas.Screen,5_0_0_0_4_1_2,NA,NA,skipped,NA,2596863.7,NA,NA,2596856.239,2596864,2023-05-02T09:53:33Z,2596872.885,NULL,Orientierung,urekebisho,s,uelekeo,marekebisho,utunzaji,NA,sdf,NA,0,NA,NA,NA,NA,NA,NA,NA,NA,NA,NA,NA,NA,NA,NA,NA,NA,NA,NA,NA
27eeb,shallow,flow.Sequence,5_0_0_0_4_1,NA,NA,completion,14185.993,2582657,2582654.185,2582670.246,2596856.239,2596864.4000001,2023-05-02T09:53:33Z,2596872.885,NULL,Orientierung,urekebisho,s,uelekeo,marekebisho,utunzaji,NA,sdf,NA,0,NA,NA,NA,NA,NA,NA,NA,NA,NA,NA,NA,NA,NA,NA,NA,NA,NA,NA,NA
27eeb,task,flow.Sequence,5_0_0_0_4,NA,NA,completion,14185.993,2582656.5999999,2582654.185,2582670.246,2596856.239,2596864.7,2023-05-02T09:53:33Z,2596872.885,NULL,Orientierung,urekebisho,s,uelekeo,marekebisho,utunzaji,NA,sdf,NA,0,NA,NA,NA,NA,NA,NA,NA,NA,NA,NA,NA,NA,NA,NA,NA,NA,NA,NA,NA
27eeb,deep,flow.Sequence,5_0_0_0_5_0,NA,NA,skipped,NA,2596864.9000001,NA,NA,2596856.239,2596865.0999999,2023-05-02T09:53:33Z,2596872.885,NULL,Kreativität,ubunifu,s,mratibu,mwendelezo,makubaliano,NA,sdf,NA,0,NA,NA,NA,NA,NA,NA,NA,NA,NA,NA,NA,NA,NA,NA,NA,NA,NA,NA,NA
27eeb,Shallow Question,html.Page,5_0_0_0_5_1_0,NA,NA,form submission,8658.6150000002,2596865.3,2596856.239,2596872.885,2605531.5,2605531.7,2023-05-02T09:53:42Z,2605542.554,NULL,Kreativität,ubunifu,s,mratibu,mwendelezo,makubaliano,mratibu,NA,NA,0,NA,NA,NA,NA,NA,NA,NA,NA,NA,NA,NA,NA,NA,NA,NA,NA,NA,NA,NA
27eeb,"""Richtig""-Screen",canvas.Screen,5_0_0_0_5_1_1,NA,NA,skipped,NA,2605533.5999999,NA,NA,2605531.5,2605533.5999999,2023-05-02T09:53:42Z,2605542.554,NULL,Kreativität,ubunifu,s,mratibu,mwendelezo,makubaliano,NA,sdf,NA,0,NA,NA,NA,NA,NA,NA,NA,NA,NA,NA,NA,NA,NA,NA,NA,NA,NA,NA,NA
27eeb,"""Falsch""-Screen",canvas.Screen,5_0_0_0_5_1_2,NA,NA,timeout,5000.1209999998,2605534.2,2605521.247,2605542.554,2610526.1,2610527,2023-05-02T09:53:47Z,2610542.675,NULL,Kreativität,ubunifu,s,mratibu,mwendelezo,makubaliano,NA,sdf,0,0,NA,NA,NA,NA,NA,NA,NA,NA,NA,NA,NA,NA,NA,NA,NA,NA,NA,NA,NA
27eeb,shallow,flow.Sequence,5_0_0_0_5_1,NA,NA,completion,13653.215,2596865.2,2596856.239,2596872.885,2610526.1,2610527.5999999,2023-05-02T09:53:47Z,2610542.675,NULL,Kreativität,ubunifu,s,mratibu,mwendelezo,makubaliano,NA,sdf,NA,0,NA,NA,NA,NA,NA,NA,NA,NA,NA,NA,NA,NA,NA,NA,NA,NA,NA,NA,NA
27eeb,task,flow.Sequence,5_0_0_0_5,NA,NA,completion,13653.215,2596864.8,2596856.239,2596872.885,2610526.1,2610527.8,2023-05-02T09:53:47Z,2610542.675,NULL,Kreativität,ubunifu,s,mratibu,mwendelezo,makubaliano,NA,sdf,NA,0,NA,NA,NA,NA,NA,NA,NA,NA,NA,NA,NA,NA,NA,NA,NA,NA,NA,NA,NA
27eeb,Deep Question,html.Page,5_0_0_0_6_0_0,NA,NA,form submission,4477.9249999048,2610528,2610526.1,2610542.675,2615020.5999999,2615020.8,2023-05-02T09:53:51Z,2615032.821,NULL,Gefährdung,kuhatarisha,d,NA,NA,NA,kon,NA,NA,0,NA,NA,NA,NA,NA,NA,NA,NA,NA,NA,NA,NA,NA,NA,NA,NA,NA,NA,NA
27eeb,"""Richtig""-Screen",canvas.Screen,5_0_0_0_6_0_1,NA,NA,skipped,NA,2615022.9000001,NA,NA,2615020.5999999,2615023.0999999,2023-05-02T09:53:51Z,2615032.821,NULL,Gefährdung,kuhatarisha,d,NA,NA,NA,NA,sdf,NA,0,NA,NA,NA,NA,NA,NA,NA,NA,NA,NA,NA,NA,NA,NA,NA,NA,NA,NA,NA
27eeb,"""Falsch""-Screen",canvas.Screen,5_0_0_0_6_0_2,NA,NA,timeout,5000.2110000001,2615023.5999999,2615016.216,2615032.821,2620016.383,2620017.4000001,2023-05-02T09:53:56Z,2620033.032,NULL,Gefährdung,kuhatarisha,d,NA,NA,NA,NA,sdf,0,0,NA,NA,NA,NA,NA,NA,NA,NA,NA,NA,NA,NA,NA,NA,NA,NA,NA,NA,NA
27eeb,deep,flow.Sequence,5_0_0_0_6_0,NA,NA,completion,9473.7080000001,2610527.9000001,2610526.1,2610542.675,2620016.383,2620017.9000001,2023-05-02T09:53:56Z,2620033.032,NULL,Gefährdung,kuhatarisha,d,NA,NA,NA,NA,sdf,NA,0,NA,NA,NA,NA,NA,NA,NA,NA,NA,NA,NA,NA,NA,NA,NA,NA,NA,NA,NA
27eeb,shallow,flow.Sequence,5_0_0_0_6_1,NA,NA,skipped,NA,2620018,NA,NA,2620016.383,2620018.2,2023-05-02T09:53:56Z,2620033.032,NULL,Gefährdung,kuhatarisha,d,NA,NA,NA,NA,sdf,NA,0,NA,NA,NA,NA,NA,NA,NA,NA,NA,NA,NA,NA,NA,NA,NA,NA,NA,NA,NA
27eeb,task,flow.Sequence,5_0_0_0_6,NA,NA,completion,9473.7080000001,2610527.8,2610526.1,2610542.675,2620016.383,2620018.4000001,2023-05-02T09:53:56Z,2620033.032,NULL,Gefährdung,kuhatarisha,d,NA,NA,NA,NA,sdf,NA,0,NA,NA,NA,NA,NA,NA,NA,NA,NA,NA,NA,NA,NA,NA,NA,NA,NA,NA,NA
27eeb,Deep Question,html.Page,5_0_0_0_7_0_0,NA,NA,form submission,6309.5679999045,2620018.7,2620016.383,2620033.032,2626342.5999999,2626342.8,2023-05-02T09:54:02Z,2626352.014,NULL,Stimmung,kinyongo,d,NA,NA,NA,gort,NA,NA,0,NA,NA,NA,NA,NA,NA,NA,NA,NA,NA,NA,NA,NA,NA,NA,NA,NA,NA,NA
27eeb,"""Richtig""-Screen",canvas.Screen,5_0_0_0_7_0_1,NA,NA,skipped,NA,2626345,NA,NA,2626342.5999999,2626345.0999999,2023-05-02T09:54:02Z,2626352.014,NULL,Stimmung,kinyongo,d,NA,NA,NA,NA,sdf,NA,0,NA,NA,NA,NA,NA,NA,NA,NA,NA,NA,NA,NA,NA,NA,NA,NA,NA,NA,NA
27eeb,"""Falsch""-Screen",canvas.Screen,5_0_0_0_7_0_2,NA,NA,timeout,4996.1099999999,2626345.7,2626339.982,2626352.014,2631331.22,2631332.2,2023-05-02T09:54:07Z,2631348.124,NULL,Stimmung,kinyongo,d,NA,NA,NA,NA,sdf,0,0,NA,NA,NA,NA,NA,NA,NA,NA,NA,NA,NA,NA,NA,NA,NA,NA,NA,NA,NA
27eeb,deep,flow.Sequence,5_0_0_0_7_0,NA,NA,completion,11298.188,2620018.5999999,2620016.383,2620033.032,2631331.22,2631332.7,2023-05-02T09:54:07Z,2631348.124,NULL,Stimmung,kinyongo,d,NA,NA,NA,NA,sdf,NA,0,NA,NA,NA,NA,NA,NA,NA,NA,NA,NA,NA,NA,NA,NA,NA,NA,NA,NA,NA
27eeb,shallow,flow.Sequence,5_0_0_0_7_1,NA,NA,skipped,NA,2631332.8,NA,NA,2631331.22,2631333.0999999,2023-05-02T09:54:07Z,2631348.124,NULL,Stimmung,kinyongo,d,NA,NA,NA,NA,sdf,NA,0,NA,NA,NA,NA,NA,NA,NA,NA,NA,NA,NA,NA,NA,NA,NA,NA,NA,NA,NA
27eeb,task,flow.Sequence,5_0_0_0_7,NA,NA,completion,11298.188,2620018.5999999,2620016.383,2620033.032,2631331.22,2631333.3,2023-05-02T09:54:07Z,2631348.124,NULL,Stimmung,kinyongo,d,NA,NA,NA,NA,sdf,NA,0,NA,NA,NA,NA,NA,NA,NA,NA,NA,NA,NA,NA,NA,NA,NA,NA,NA,NA,NA
27eeb,block,flow.Loop,5_0_0_0,NA,NA,completion,92210.665,2539110,2539097.913,2539120.555,2631331.22,2631333.5,2023-05-02T09:54:07Z,2631348.124,NULL,NA,NA,NA,NA,NA,NA,NA,sdf,NA,0,NA,NA,NA,NA,NA,NA,NA,NA,NA,NA,NA,NA,NA,NA,NA,NA,NA,NA,NA
27eeb,weiter,canvas.Screen,5_0_0_1,sdf,keypress(Space),response,1109.4759999048,2631333.7,2631331.22,2631348.124,2632457.5999999,2632462.7,2023-05-02T09:54:09Z,2632610,NULL,NA,NA,NA,NA,NA,NA,NA,sdf,NA,0,NA,NA,NA,NA,NA,NA,NA,NA,NA,NA,NA,NA,NA,NA,NA,NA,NA,NA,NA
27eeb,check continue,flow.Sequence,5_0_0,NA,NA,completion,93337.044999904,2539109.9000001,2539097.913,2539120.555,2632457.5999999,2632463.0999999,2023-05-02T09:54:09Z,2632610,NULL,NA,NA,NA,NA,NA,NA,NA,sdf,NA,0,NA,NA,NA,NA,NA,NA,NA,NA,NA,NA,NA,NA,NA,NA,NA,NA,NA,NA,NA
27eeb,deep,flow.Sequence,5_0_1_0_0_0,NA,NA,skipped,NA,2632590.5999999,NA,NA,2632457.5999999,2632590.8,2023-05-02T09:54:09Z,2632610,NULL,Orientierung,urekebisho,s,uelekeo,marekebisho,utunzaji,NA,sdfdsf,NA,1,NA,NA,NA,NA,NA,NA,NA,NA,NA,NA,NA,NA,NA,NA,NA,NA,NA,NA,NA
27eeb,Shallow Question,html.Page,5_0_1_0_0_1_0,NA,NA,form submission,13070.200000048,2632591,2632580.377,2632610,2645680.2,2645680.5,2023-05-02T09:54:22Z,2645698.641,NULL,Orientierung,urekebisho,s,uelekeo,marekebisho,utunzaji,urekebisho,NA,NA,1,NA,NA,NA,NA,NA,NA,NA,NA,NA,NA,NA,NA,NA,NA,NA,NA,NA,NA,NA
27eeb,"""Richtig""-Screen",canvas.Screen,5_0_1_0_0_1_1,NA,NA,timeout,4991.2790000001,2645682.4000001,2645669.481,2645698.641,2650673.825,2650674.9000001,2023-05-02T09:54:27Z,2650689.92,NULL,Orientierung,urekebisho,s,uelekeo,marekebisho,utunzaji,NA,sdfdsf,1,1,NA,NA,NA,NA,NA,NA,NA,NA,NA,NA,NA,NA,NA,NA,NA,NA,NA,NA,NA
27eeb,"""Falsch""-Screen",canvas.Screen,5_0_1_0_0_1_2,NA,NA,skipped,NA,2650680.7,NA,NA,2650673.825,2650681,2023-05-02T09:54:27Z,2650689.92,NULL,Orientierung,urekebisho,s,uelekeo,marekebisho,utunzaji,NA,sdfdsf,NA,1,NA,NA,NA,NA,NA,NA,NA,NA,NA,NA,NA,NA,NA,NA,NA,NA,NA,NA,NA
27eeb,shallow,flow.Sequence,5_0_1_0_0_1,NA,NA,completion,18063.825,2632591,2632580.377,2632610,2650673.825,2650681.4000001,2023-05-02T09:54:27Z,2650689.92,NULL,Orientierung,urekebisho,s,uelekeo,marekebisho,utunzaji,NA,sdfdsf,NA,1,NA,NA,NA,NA,NA,NA,NA,NA,NA,NA,NA,NA,NA,NA,NA,NA,NA,NA,NA
27eeb,task,flow.Sequence,5_0_1_0_0,NA,NA,completion,18063.825,2632590.5999999,2632580.377,2632610,2650673.825,2650681.5999999,2023-05-02T09:54:27Z,2650689.92,NULL,Orientierung,urekebisho,s,uelekeo,marekebisho,utunzaji,NA,sdfdsf,NA,1,NA,NA,NA,NA,NA,NA,NA,NA,NA,NA,NA,NA,NA,NA,NA,NA,NA,NA,NA
27eeb,Deep Question,html.Page,5_0_1_0_1_0_0,NA,NA,form submission,4057.5800000001,2650681.9000001,2650673.825,2650689.92,2654747.5,2654747.7,2023-05-02T09:54:31Z,2654763.553,NULL,Betrüger,mdanganyifu,d,NA,NA,NA,kon,NA,NA,1,NA,NA,NA,NA,NA,NA,NA,NA,NA,NA,NA,NA,NA,NA,NA,NA,NA,NA,NA
27eeb,"""Richtig""-Screen",canvas.Screen,5_0_1_0_1_0_1,NA,NA,skipped,NA,2654749.7,NA,NA,2654747.5,2654749.8,2023-05-02T09:54:31Z,2654763.553,NULL,Betrüger,mdanganyifu,d,NA,NA,NA,NA,sdfdsf,NA,1,NA,NA,NA,NA,NA,NA,NA,NA,NA,NA,NA,NA,NA,NA,NA,NA,NA,NA,NA
27eeb,"""Falsch""-Screen",canvas.Screen,5_0_1_0_1_0_2,NA,NA,timeout,4991.4560000002,2654750.4000001,2654742.319,2654763.553,2659738.856,2659740.0999999,2023-05-02T09:54:36Z,2659755.009,NULL,Betrüger,mdanganyifu,d,NA,NA,NA,NA,sdfdsf,0,1,NA,NA,NA,NA,NA,NA,NA,NA,NA,NA,NA,NA,NA,NA,NA,NA,NA,NA,NA
27eeb,deep,flow.Sequence,5_0_1_0_1_0,NA,NA,completion,9048.9360000002,2650681.9000001,2650673.825,2650689.92,2659738.856,2659740.4000001,2023-05-02T09:54:36Z,2659755.009,NULL,Betrüger,mdanganyifu,d,NA,NA,NA,NA,sdfdsf,NA,1,NA,NA,NA,NA,NA,NA,NA,NA,NA,NA,NA,NA,NA,NA,NA,NA,NA,NA,NA
27eeb,shallow,flow.Sequence,5_0_1_0_1_1,NA,NA,skipped,NA,2659740.5999999,NA,NA,2659738.856,2659740.8,2023-05-02T09:54:36Z,2659755.009,NULL,Betrüger,mdanganyifu,d,NA,NA,NA,NA,sdfdsf,NA,1,NA,NA,NA,NA,NA,NA,NA,NA,NA,NA,NA,NA,NA,NA,NA,NA,NA,NA,NA
27eeb,task,flow.Sequence,5_0_1_0_1,NA,NA,completion,9048.9360000002,2650681.8,2650673.825,2650689.92,2659738.856,2659741,2023-05-02T09:54:36Z,2659755.009,NULL,Betrüger,mdanganyifu,d,NA,NA,NA,NA,sdfdsf,NA,1,NA,NA,NA,NA,NA,NA,NA,NA,NA,NA,NA,NA,NA,NA,NA,NA,NA,NA,NA
27eeb,deep,flow.Sequence,5_0_1_0_2_0,NA,NA,skipped,NA,2659741.2,NA,NA,2659738.856,2659741.3,2023-05-02T09:54:36Z,2659755.009,NULL,Respekt,heshima,s,changamnao,upinzani,ufanisi,NA,sdfdsf,NA,1,NA,NA,NA,NA,NA,NA,NA,NA,NA,NA,NA,NA,NA,NA,NA,NA,NA,NA,NA
27eeb,Shallow Question,html.Page,5_0_1_0_2_1_0,NA,NA,form submission,7011.8910000953,2659741.5,2659738.856,2659755.009,2666766.9000001,2666767.0999999,2023-05-02T09:54:43Z,2666777.148,NULL,Respekt,heshima,s,changamnao,upinzani,ufanisi,heshima,NA,NA,1,NA,NA,NA,NA,NA,NA,NA,NA,NA,NA,NA,NA,NA,NA,NA,NA,NA,NA,NA
27eeb,"""Richtig""-Screen",canvas.Screen,5_0_1_0_2_1_1,NA,NA,timeout,5008.0150000001,2666769.2,2666760.091,2666777.148,2671769.147,2671770.3,2023-05-02T09:54:48Z,2671785.163,NULL,Respekt,heshima,s,changamnao,upinzani,ufanisi,NA,sdfdsf,1,1,NA,NA,NA,NA,NA,NA,NA,NA,NA,NA,NA,NA,NA,NA,NA,NA,NA,NA,NA
27eeb,"""Falsch""-Screen",canvas.Screen,5_0_1_0_2_1_2,NA,NA,skipped,NA,2671776,NA,NA,2671769.147,2671776.4000001,2023-05-02T09:54:48Z,2671785.163,NULL,Respekt,heshima,s,changamnao,upinzani,ufanisi,NA,sdfdsf,NA,1,NA,NA,NA,NA,NA,NA,NA,NA,NA,NA,NA,NA,NA,NA,NA,NA,NA,NA,NA
27eeb,shallow,flow.Sequence,5_0_1_0_2_1,NA,NA,completion,12014.138,2659741.4000001,2659738.856,2659755.009,2671769.147,2671776.8,2023-05-02T09:54:48Z,2671785.163,NULL,Respekt,heshima,s,changamnao,upinzani,ufanisi,NA,sdfdsf,NA,1,NA,NA,NA,NA,NA,NA,NA,NA,NA,NA,NA,NA,NA,NA,NA,NA,NA,NA,NA
27eeb,task,flow.Sequence,5_0_1_0_2,NA,NA,completion,12014.138,2659741.2,2659738.856,2659755.009,2671769.147,2671777.0999999,2023-05-02T09:54:48Z,2671785.163,NULL,Respekt,heshima,s,changamnao,upinzani,ufanisi,NA,sdfdsf,NA,1,NA,NA,NA,NA,NA,NA,NA,NA,NA,NA,NA,NA,NA,NA,NA,NA,NA,NA,NA
27eeb,Deep Question,html.Page,5_0_1_0_3_0_0,NA,NA,form submission,5091.5370000475,2671777.3,2671769.147,2671785.163,2676876.7,2676876.9000001,2023-05-02T09:54:53Z,2676892.375,NULL,Stimmung,kinyongo,d,NA,NA,NA,mhe,NA,NA,1,NA,NA,NA,NA,NA,NA,NA,NA,NA,NA,NA,NA,NA,NA,NA,NA,NA,NA,NA
27eeb,"""Richtig""-Screen",canvas.Screen,5_0_1_0_3_0_1,NA,NA,skipped,NA,2676879.4000001,NA,NA,2676876.7,2676879.5999999,2023-05-02T09:54:53Z,2676892.375,NULL,Stimmung,kinyongo,d,NA,NA,NA,NA,sdfdsf,NA,1,NA,NA,NA,NA,NA,NA,NA,NA,NA,NA,NA,NA,NA,NA,NA,NA,NA,NA,NA
27eeb,"""Falsch""-Screen",canvas.Screen,5_0_1_0_3_0_2,NA,NA,timeout,4995.1540000001,2676880.5,2676875.81,2676892.375,2681871.503,2681872.5999999,2023-05-02T09:54:58Z,2681887.529,NULL,Stimmung,kinyongo,d,NA,NA,NA,NA,sdfdsf,0,1,NA,NA,NA,NA,NA,NA,NA,NA,NA,NA,NA,NA,NA,NA,NA,NA,NA,NA,NA
27eeb,deep,flow.Sequence,5_0_1_0_3_0,NA,NA,completion,10086.34,2671777.3,2671769.147,2671785.163,2681871.503,2681873,2023-05-02T09:54:58Z,2681887.529,NULL,Stimmung,kinyongo,d,NA,NA,NA,NA,sdfdsf,NA,1,NA,NA,NA,NA,NA,NA,NA,NA,NA,NA,NA,NA,NA,NA,NA,NA,NA,NA,NA
27eeb,shallow,flow.Sequence,5_0_1_0_3_1,NA,NA,skipped,NA,2681873.2,NA,NA,2681871.503,2681873.4000001,2023-05-02T09:54:58Z,2681887.529,NULL,Stimmung,kinyongo,d,NA,NA,NA,NA,sdfdsf,NA,1,NA,NA,NA,NA,NA,NA,NA,NA,NA,NA,NA,NA,NA,NA,NA,NA,NA,NA,NA
27eeb,task,flow.Sequence,5_0_1_0_3,NA,NA,completion,10086.34,2671777.2,2671769.147,2671785.163,2681871.503,2681873.5999999,2023-05-02T09:54:58Z,2681887.529,NULL,Stimmung,kinyongo,d,NA,NA,NA,NA,sdfdsf,NA,1,NA,NA,NA,NA,NA,NA,NA,NA,NA,NA,NA,NA,NA,NA,NA,NA,NA,NA,NA
27eeb,deep,flow.Sequence,5_0_1_0_4_0,NA,NA,skipped,NA,2681873.9000001,NA,NA,2681871.503,2681874,2023-05-02T09:54:58Z,2681887.529,NULL,Können,unaweza,s,kiongozi,bustani,mienendo,NA,sdfdsf,NA,1,NA,NA,NA,NA,NA,NA,NA,NA,NA,NA,NA,NA,NA,NA,NA,NA,NA,NA,NA
27eeb,Shallow Question,html.Page,5_0_1_0_4_1_0,NA,NA,form submission,9211.3710000953,2681874.2,2681871.503,2681887.529,2691098.9000001,2691099.0999999,2023-05-02T09:55:07Z,2691116.074,NULL,Können,unaweza,s,kiongozi,bustani,mienendo,unaweza,NA,NA,1,NA,NA,NA,NA,NA,NA,NA,NA,NA,NA,NA,NA,NA,NA,NA,NA,NA,NA,NA
27eeb,"""Richtig""-Screen",canvas.Screen,5_0_1_0_4_1_1,NA,NA,timeout,4991.389,2691101.2,2691091.026,2691116.074,2696091.386,2696092.5,2023-05-02T09:55:12Z,2696107.463,NULL,Können,unaweza,s,kiongozi,bustani,mienendo,NA,sdfdsf,1,1,NA,NA,NA,NA,NA,NA,NA,NA,NA,NA,NA,NA,NA,NA,NA,NA,NA,NA,NA
27eeb,"""Falsch""-Screen",canvas.Screen,5_0_1_0_4_1_2,NA,NA,skipped,NA,2696098.2,NA,NA,2696091.386,2696098.5,2023-05-02T09:55:12Z,2696107.463,NULL,Können,unaweza,s,kiongozi,bustani,mienendo,NA,sdfdsf,NA,1,NA,NA,NA,NA,NA,NA,NA,NA,NA,NA,NA,NA,NA,NA,NA,NA,NA,NA,NA
27eeb,shallow,flow.Sequence,5_0_1_0_4_1,NA,NA,completion,14203.857,2681874.2,2681871.503,2681887.529,2696091.386,2696099,2023-05-02T09:55:12Z,2696107.463,NULL,Können,unaweza,s,kiongozi,bustani,mienendo,NA,sdfdsf,NA,1,NA,NA,NA,NA,NA,NA,NA,NA,NA,NA,NA,NA,NA,NA,NA,NA,NA,NA,NA
27eeb,task,flow.Sequence,5_0_1_0_4,NA,NA,completion,14203.857,2681873.8,2681871.503,2681887.529,2696091.386,2696099.2,2023-05-02T09:55:12Z,2696107.463,NULL,Können,unaweza,s,kiongozi,bustani,mienendo,NA,sdfdsf,NA,1,NA,NA,NA,NA,NA,NA,NA,NA,NA,NA,NA,NA,NA,NA,NA,NA,NA,NA,NA
27eeb,Deep Question,html.Page,5_0_1_0_5_0_0,NA,NA,form submission,6774.4370000954,2696099.4000001,2696091.386,2696107.463,2702881.9000001,2702882.0999999,2023-05-02T09:55:19Z,2702889.041,NULL,Kontrolle,kudhibiti,d,NA,NA,NA,kon,NA,NA,1,NA,NA,NA,NA,NA,NA,NA,NA,NA,NA,NA,NA,NA,NA,NA,NA,NA,NA,NA
27eeb,"""Richtig""-Screen",canvas.Screen,5_0_1_0_5_0_1,NA,NA,skipped,NA,2702884.0999999,NA,NA,2702881.9000001,2702884.2,2023-05-02T09:55:19Z,2702889.041,NULL,Kontrolle,kudhibiti,d,NA,NA,NA,NA,sdfdsf,NA,1,NA,NA,NA,NA,NA,NA,NA,NA,NA,NA,NA,NA,NA,NA,NA,NA,NA,NA,NA
27eeb,"""Falsch""-Screen",canvas.Screen,5_0_1_0_5_0_2,NA,NA,timeout,4995.6549999998,2702884.8,2702876.802,2702889.041,2707868.712,2707869.8,2023-05-02T09:55:24Z,2707884.696,NULL,Kontrolle,kudhibiti,d,NA,NA,NA,NA,sdfdsf,0,1,NA,NA,NA,NA,NA,NA,NA,NA,NA,NA,NA,NA,NA,NA,NA,NA,NA,NA,NA
27eeb,deep,flow.Sequence,5_0_1_0_5_0,NA,NA,completion,11761.249,2696099.4000001,2696091.386,2696107.463,2707868.712,2707870.3,2023-05-02T09:55:24Z,2707884.696,NULL,Kontrolle,kudhibiti,d,NA,NA,NA,NA,sdfdsf,NA,1,NA,NA,NA,NA,NA,NA,NA,NA,NA,NA,NA,NA,NA,NA,NA,NA,NA,NA,NA
27eeb,shallow,flow.Sequence,5_0_1_0_5_1,NA,NA,skipped,NA,2707870.5,NA,NA,2707868.712,2707870.5999999,2023-05-02T09:55:24Z,2707884.696,NULL,Kontrolle,kudhibiti,d,NA,NA,NA,NA,sdfdsf,NA,1,NA,NA,NA,NA,NA,NA,NA,NA,NA,NA,NA,NA,NA,NA,NA,NA,NA,NA,NA
27eeb,task,flow.Sequence,5_0_1_0_5,NA,NA,completion,11761.249,2696099.3,2696091.386,2696107.463,2707868.712,2707870.9000001,2023-05-02T09:55:24Z,2707884.696,NULL,Kontrolle,kudhibiti,d,NA,NA,NA,NA,sdfdsf,NA,1,NA,NA,NA,NA,NA,NA,NA,NA,NA,NA,NA,NA,NA,NA,NA,NA,NA,NA,NA
27eeb,Deep Question,html.Page,5_0_1_0_6_0_0,NA,NA,form submission,6448.9039999046,2707871.0999999,2707868.712,2707884.696,2714333.5999999,2714333.7,2023-05-02T09:55:30Z,2714337.384,NULL,Gefährdung,kuhatarisha,d,NA,NA,NA,mhaten,NA,NA,1,NA,NA,NA,NA,NA,NA,NA,NA,NA,NA,NA,NA,NA,NA,NA,NA,NA,NA,NA
27eeb,"""Richtig""-Screen",canvas.Screen,5_0_1_0_6_0_1,NA,NA,skipped,NA,2714336.5999999,NA,NA,2714333.5999999,2714336.8,2023-05-02T09:55:30Z,2714337.384,NULL,Gefährdung,kuhatarisha,d,NA,NA,NA,NA,sdfdsf,NA,1,NA,NA,NA,NA,NA,NA,NA,NA,NA,NA,NA,NA,NA,NA,NA,NA,NA,NA,NA
27eeb,"""Falsch""-Screen",canvas.Screen,5_0_1_0_6_0_2,NA,NA,timeout,4995.662,2714337.8,2714317.149,2714337.384,2719316.939,2719317.9000001,2023-05-02T09:55:35Z,2719333.046,NULL,Gefährdung,kuhatarisha,d,NA,NA,NA,NA,sdfdsf,0,1,NA,NA,NA,NA,NA,NA,NA,NA,NA,NA,NA,NA,NA,NA,NA,NA,NA,NA,NA
