observation,sender,sender_type,sender_id,response,response_action,ended_on,duration,time_run,time_render,time_show,time_end,time_commit,timestamp,time_switch,distractors,german,swahili,enc,distractor1,distractor2,distractor3,response_2,x,correct,x_2,url_vp,url_sess,meta_labjs_version,meta_location,meta_user_agent,meta_platform,meta_language,meta_locale,meta_time_zone,meta_timezone_offset,meta_screen_width,meta_screen_height,meta_scroll_width,meta_scroll_height,meta_window_inner_width,meta_window_inner_height,meta_device_pixel_ratio,meta_labjs_build_flavor,meta_labjs_build_commit
fa09c,Introduction general,canvas.Screen,0,weiter,keypress(q),response,96086.800000191,471.59999990463,256.7,490,96576.800000191,96578.900000095,2024-02-17T10:41:44Z,96590,NULL,NA,NA,NA,NA,NA,NA,NA,NA,NA,NA,153,1,20.2.4,https://neurocog.fernuni.ch/studies/vweber/jbaenninger/encoding_immediate/index.html?vp=153&sess=1,"Mozilla/5.0 (Windows NT 10.0; Win64; x64) AppleWebKit/537.36 (KHTML, like Gecko) Chrome/121.0.0.0 Safari/537.36 Edg/121.0.0.0",Win32,de,de-CH,Europe/Zurich,-60,1920,1080,1872,910,1872,958,1,production,f5b4a49f956347addd546a832a3327688c2c0fef
fa09c,Introduction practice,canvas.Screen,1_0,NA,keypress(Space),response,8622.4000000954,96579.400000095,96573.3,96590,105212.4000001,105213.30000019,2024-02-17T10:41:52Z,105223.3,NULL,NA,NA,NA,NA,NA,NA,NA,NA,NA,NA,NA,NA,NA,NA,NA,NA,NA,NA,NA,NA,NA,NA,NA,NA,NA,NA,NA,NA,NA
fa09c,Deep Question,html.Page,1_1_0_0_0,NA,NA,form submission,9133.2999999046,105213.70000029,105207.8,105223.3,114356.5999999,114356.80000019,2024-02-17T10:42:02Z,114374.6,"c(""distractor1"", ""distractor2"", ""distractor3"")",Qualität,mtindo,d,NA,NA,NA,Qualität,NA,NA,NA,NA,NA,NA,NA,NA,NA,NA,NA,NA,NA,NA,NA,NA,NA,NA,NA,NA,NA,NA
fa09c,"""Richtig""-Screen",canvas.Screen,1_1_0_0_1,NA,NA,skipped,NA,114358.0999999,NA,NA,114356.5999999,114358.30000019,2024-02-17T10:42:02Z,114374.6,"c(""distractor1"", ""distractor2"", ""distractor3"")",Qualität,mtindo,d,NA,NA,NA,NA,NA,NA,NA,NA,NA,NA,NA,NA,NA,NA,NA,NA,NA,NA,NA,NA,NA,NA,NA,NA,NA,NA
fa09c,"""Falsch""-Screen",canvas.Screen,1_1_0_0_2,NA,NA,timeout,4998.6,114363.80000019,114356.844,114374.6,119356.6,119360.20000029,2024-02-17T10:42:07Z,119373.2,"c(""distractor1"", ""distractor2"", ""distractor3"")",Qualität,mtindo,d,NA,NA,NA,NA,NA,0,NA,NA,NA,NA,NA,NA,NA,NA,NA,NA,NA,NA,NA,NA,NA,NA,NA,NA,NA,NA
fa09c,deep,flow.Sequence,1_1_0_0,NA,NA,completion,14133.3,105213.5999999,105207.8,105223.3,119356.6,119360.5999999,2024-02-17T10:42:07Z,119373.2,"c(""distractor1"", ""distractor2"", ""distractor3"")",Qualität,mtindo,d,NA,NA,NA,NA,NA,NA,NA,NA,NA,NA,NA,NA,NA,NA,NA,NA,NA,NA,NA,NA,NA,NA,NA,NA,NA,NA
fa09c,shallow,flow.Sequence,1_1_0_1,NA,NA,skipped,NA,119360.80000019,NA,NA,119356.6,119360.9000001,2024-02-17T10:42:07Z,119373.2,"c(""distractor1"", ""distractor2"", ""distractor3"")",Qualität,mtindo,d,NA,NA,NA,NA,NA,NA,NA,NA,NA,NA,NA,NA,NA,NA,NA,NA,NA,NA,NA,NA,NA,NA,NA,NA,NA,NA
fa09c,task,flow.Sequence,1_1_0,NA,NA,completion,14133.3,105213.5999999,105207.8,105223.3,119356.6,119361.0999999,2024-02-17T10:42:07Z,119373.2,"c(""distractor1"", ""distractor2"", ""distractor3"")",Qualität,mtindo,d,NA,NA,NA,NA,NA,NA,NA,NA,NA,NA,NA,NA,NA,NA,NA,NA,NA,NA,NA,NA,NA,NA,NA,NA,NA,NA
fa09c,Deep Question,html.Page,1_1_1_0_0,NA,NA,form submission,3809.8,119361.4000001,119356.6,119373.2,123183,123183.20000029,2024-02-17T10:42:10Z,123189.9,"c(""distractor1"", ""distractor2"", ""distractor3"")",Schatten,kivuli,d,NA,NA,NA,Schatten,NA,NA,NA,NA,NA,NA,NA,NA,NA,NA,NA,NA,NA,NA,NA,NA,NA,NA,NA,NA,NA,NA
fa09c,"""Richtig""-Screen",canvas.Screen,1_1_1_0_1,NA,NA,skipped,NA,123185.0999999,NA,NA,123183,123185.20000029,2024-02-17T10:42:10Z,123189.9,"c(""distractor1"", ""distractor2"", ""distractor3"")",Schatten,kivuli,d,NA,NA,NA,NA,NA,NA,NA,NA,NA,NA,NA,NA,NA,NA,NA,NA,NA,NA,NA,NA,NA,NA,NA,NA,NA,NA
fa09c,"""Falsch""-Screen",canvas.Screen,1_1_1_0_2,NA,NA,timeout,5000.1,123186,123173.516,123189.9,128173.4,128174.30000019,2024-02-17T10:42:15Z,128190,"c(""distractor1"", ""distractor2"", ""distractor3"")",Schatten,kivuli,d,NA,NA,NA,NA,NA,0,NA,NA,NA,NA,NA,NA,NA,NA,NA,NA,NA,NA,NA,NA,NA,NA,NA,NA,NA,NA
fa09c,deep,flow.Sequence,1_1_1_0,NA,NA,completion,8800.2,119361.30000019,119356.6,119373.2,128173.4,128174.80000019,2024-02-17T10:42:15Z,128190,"c(""distractor1"", ""distractor2"", ""distractor3"")",Schatten,kivuli,d,NA,NA,NA,NA,NA,NA,NA,NA,NA,NA,NA,NA,NA,NA,NA,NA,NA,NA,NA,NA,NA,NA,NA,NA,NA,NA
fa09c,shallow,flow.Sequence,1_1_1_1,NA,NA,skipped,NA,128174.9000001,NA,NA,128173.4,128175,2024-02-17T10:42:15Z,128190,"c(""distractor1"", ""distractor2"", ""distractor3"")",Schatten,kivuli,d,NA,NA,NA,NA,NA,NA,NA,NA,NA,NA,NA,NA,NA,NA,NA,NA,NA,NA,NA,NA,NA,NA,NA,NA,NA,NA
fa09c,task,flow.Sequence,1_1_1,NA,NA,completion,8800.2,119361.20000029,119356.6,119373.2,128173.4,128175.20000029,2024-02-17T10:42:15Z,128190,"c(""distractor1"", ""distractor2"", ""distractor3"")",Schatten,kivuli,d,NA,NA,NA,NA,NA,NA,NA,NA,NA,NA,NA,NA,NA,NA,NA,NA,NA,NA,NA,NA,NA,NA,NA,NA,NA,NA
fa09c,deep,flow.Sequence,1_1_2_0,NA,NA,skipped,NA,128175.4000001,NA,NA,128173.4,128175.5,2024-02-17T10:42:15Z,128190,"c(""distractor1"", ""distractor2"", ""distractor3"")",Gegenwart,hadhara,s,katiba,jokofu,mikopo,NA,NA,NA,NA,NA,NA,NA,NA,NA,NA,NA,NA,NA,NA,NA,NA,NA,NA,NA,NA,NA,NA,NA
fa09c,Shallow Question,html.Page,1_1_2_1_0,NA,NA,form submission,7584.0999999046,128175.5999999,128173.4,128190,135774.0999999,135774.4000001,2024-02-17T10:42:23Z,135790,"c(""distractor1"", ""distractor2"", ""distractor3"")",Gegenwart,hadhara,s,katiba,jokofu,mikopo,hadhara,NA,NA,NA,NA,NA,NA,NA,NA,NA,NA,NA,NA,NA,NA,NA,NA,NA,NA,NA,NA,NA,NA
fa09c,"""Richtig""-Screen",canvas.Screen,1_1_2_1_1,NA,NA,timeout,5000,135776.0999999,135773.42,135790,140773.3,140774.0999999,2024-02-17T10:42:28Z,140790,"c(""distractor1"", ""distractor2"", ""distractor3"")",Gegenwart,hadhara,s,katiba,jokofu,mikopo,NA,NA,1,NA,NA,NA,NA,NA,NA,NA,NA,NA,NA,NA,NA,NA,NA,NA,NA,NA,NA,NA,NA
fa09c,"""Falsch""-Screen",canvas.Screen,1_1_2_1_2,NA,NA,skipped,NA,140778.5,NA,NA,140773.3,140778.80000019,2024-02-17T10:42:28Z,140790,"c(""distractor1"", ""distractor2"", ""distractor3"")",Gegenwart,hadhara,s,katiba,jokofu,mikopo,NA,NA,NA,NA,NA,NA,NA,NA,NA,NA,NA,NA,NA,NA,NA,NA,NA,NA,NA,NA,NA,NA,NA
fa09c,shallow,flow.Sequence,1_1_2_1,NA,NA,completion,12583.3,128175.5,128173.4,128190,140773.3,140779,2024-02-17T10:42:28Z,140790,"c(""distractor1"", ""distractor2"", ""distractor3"")",Gegenwart,hadhara,s,katiba,jokofu,mikopo,NA,NA,NA,NA,NA,NA,NA,NA,NA,NA,NA,NA,NA,NA,NA,NA,NA,NA,NA,NA,NA,NA,NA
fa09c,task,flow.Sequence,1_1_2,NA,NA,completion,12583.3,128175.30000019,128173.4,128190,140773.3,140779.20000029,2024-02-17T10:42:28Z,140790,"c(""distractor1"", ""distractor2"", ""distractor3"")",Gegenwart,hadhara,s,katiba,jokofu,mikopo,NA,NA,NA,NA,NA,NA,NA,NA,NA,NA,NA,NA,NA,NA,NA,NA,NA,NA,NA,NA,NA,NA,NA
fa09c,deep,flow.Sequence,1_1_3_0,NA,NA,skipped,NA,140779.4000001,NA,NA,140773.3,140779.5,2024-02-17T10:42:28Z,140790,"c(""distractor1"", ""distractor2"", ""distractor3"")",Kritik,lawama,s,dereva,nafasi,mawazo,NA,NA,NA,NA,NA,NA,NA,NA,NA,NA,NA,NA,NA,NA,NA,NA,NA,NA,NA,NA,NA,NA,NA
fa09c,Shallow Question,html.Page,1_1_3_1_0,NA,NA,form submission,7367.7000002861,140779.5999999,140773.3,140790,148157.70000029,148158,2024-02-17T10:42:35Z,148173.4,"c(""distractor1"", ""distractor2"", ""distractor3"")",Kritik,lawama,s,dereva,nafasi,mawazo,nafasi,NA,NA,NA,NA,NA,NA,NA,NA,NA,NA,NA,NA,NA,NA,NA,NA,NA,NA,NA,NA,NA,NA
fa09c,"""Richtig""-Screen",canvas.Screen,1_1_3_1_1,NA,NA,skipped,NA,148159.5999999,NA,NA,148157.70000029,148159.70000029,2024-02-17T10:42:35Z,148173.4,"c(""distractor1"", ""distractor2"", ""distractor3"")",Kritik,lawama,s,dereva,nafasi,mawazo,NA,NA,NA,NA,NA,NA,NA,NA,NA,NA,NA,NA,NA,NA,NA,NA,NA,NA,NA,NA,NA,NA,NA
fa09c,"""Falsch""-Screen",canvas.Screen,1_1_3_1_2,NA,NA,timeout,5000.1,148160.5,148156.806,148173.4,153156.6,153157.5,2024-02-17T10:42:40Z,153173.5,"c(""distractor1"", ""distractor2"", ""distractor3"")",Kritik,lawama,s,dereva,nafasi,mawazo,NA,NA,0,NA,NA,NA,NA,NA,NA,NA,NA,NA,NA,NA,NA,NA,NA,NA,NA,NA,NA,NA,NA
fa09c,shallow,flow.Sequence,1_1_3_1,NA,NA,completion,12366.6,140779.5999999,140773.3,140790,153156.6,153157.80000019,2024-02-17T10:42:40Z,153173.5,"c(""distractor1"", ""distractor2"", ""distractor3"")",Kritik,lawama,s,dereva,nafasi,mawazo,NA,NA,NA,NA,NA,NA,NA,NA,NA,NA,NA,NA,NA,NA,NA,NA,NA,NA,NA,NA,NA,NA,NA
fa09c,task,flow.Sequence,1_1_3,NA,NA,completion,12366.6,140779.4000001,140773.3,140790,153156.6,153158.0999999,2024-02-17T10:42:40Z,153173.5,"c(""distractor1"", ""distractor2"", ""distractor3"")",Kritik,lawama,s,dereva,nafasi,mawazo,NA,NA,NA,NA,NA,NA,NA,NA,NA,NA,NA,NA,NA,NA,NA,NA,NA,NA,NA,NA,NA,NA,NA
fa09c,deep,flow.Sequence,1_1_4_0,NA,NA,skipped,NA,153158.30000019,NA,NA,153156.6,153158.4000001,2024-02-17T10:42:40Z,153173.5,"c(""distractor1"", ""distractor2"", ""distractor3"")",Rückhalt,msaada,s,muhula,auwali,kiwimbe,NA,NA,NA,NA,NA,NA,NA,NA,NA,NA,NA,NA,NA,NA,NA,NA,NA,NA,NA,NA,NA,NA,NA
fa09c,Shallow Question,html.Page,1_1_4_1_0,NA,NA,form submission,6008.2000002861,153158.5,153156.6,153173.5,159181.70000029,159181.9000001,2024-02-17T10:42:46Z,159189.9,"c(""distractor1"", ""distractor2"", ""distractor3"")",Rückhalt,msaada,s,muhula,auwali,kiwimbe,muhula,NA,NA,NA,NA,NA,NA,NA,NA,NA,NA,NA,NA,NA,NA,NA,NA,NA,NA,NA,NA,NA,NA
fa09c,"""Richtig""-Screen",canvas.Screen,1_1_4_1_1,NA,NA,skipped,NA,159183.70000029,NA,NA,159181.70000029,159183.80000019,2024-02-17T10:42:46Z,159189.9,"c(""distractor1"", ""distractor2"", ""distractor3"")",Rückhalt,msaada,s,muhula,auwali,kiwimbe,NA,NA,NA,NA,NA,NA,NA,NA,NA,NA,NA,NA,NA,NA,NA,NA,NA,NA,NA,NA,NA,NA,NA
fa09c,"""Falsch""-Screen",canvas.Screen,1_1_4_1_2,NA,NA,timeout,5000.2,159184.30000019,159173.456,159189.9,164173.4,164174.0999999,2024-02-17T10:42:51Z,164190.1,"c(""distractor1"", ""distractor2"", ""distractor3"")",Rückhalt,msaada,s,muhula,auwali,kiwimbe,NA,NA,0,NA,NA,NA,NA,NA,NA,NA,NA,NA,NA,NA,NA,NA,NA,NA,NA,NA,NA,NA,NA
fa09c,shallow,flow.Sequence,1_1_4_1,NA,NA,completion,10999.9,153158.5,153156.6,153173.5,164173.4,164174.4000001,2024-02-17T10:42:51Z,164190.1,"c(""distractor1"", ""distractor2"", ""distractor3"")",Rückhalt,msaada,s,muhula,auwali,kiwimbe,NA,NA,NA,NA,NA,NA,NA,NA,NA,NA,NA,NA,NA,NA,NA,NA,NA,NA,NA,NA,NA,NA,NA
fa09c,task,flow.Sequence,1_1_4,NA,NA,completion,10999.9,153158.20000029,153156.6,153173.5,164173.4,164174.5,2024-02-17T10:42:51Z,164190.1,"c(""distractor1"", ""distractor2"", ""distractor3"")",Rückhalt,msaada,s,muhula,auwali,kiwimbe,NA,NA,NA,NA,NA,NA,NA,NA,NA,NA,NA,NA,NA,NA,NA,NA,NA,NA,NA,NA,NA,NA,NA
fa09c,Deep Question,html.Page,1_1_5_0_0,NA,NA,form submission,3704.4999999046,164174.70000029,164173.4,164190.1,167894.5999999,167894.80000019,2024-02-17T10:42:55Z,167906.5,"c(""distractor1"", ""distractor2"", ""distractor3"")",Gesundheit,salama,d,NA,NA,NA,Gesundheit,NA,NA,NA,NA,NA,NA,NA,NA,NA,NA,NA,NA,NA,NA,NA,NA,NA,NA,NA,NA,NA,NA
fa09c,"""Richtig""-Screen",canvas.Screen,1_1_5_0_1,NA,NA,skipped,NA,167896.5999999,NA,NA,167894.5999999,167896.70000029,2024-02-17T10:42:55Z,167906.5,"c(""distractor1"", ""distractor2"", ""distractor3"")",Gesundheit,salama,d,NA,NA,NA,NA,NA,NA,NA,NA,NA,NA,NA,NA,NA,NA,NA,NA,NA,NA,NA,NA,NA,NA,NA,NA,NA,NA
fa09c,"""Falsch""-Screen",canvas.Screen,1_1_5_0_2,NA,NA,timeout,5000.1,167897.20000029,167890.11,167906.5,172890.1,172890.80000019,2024-02-17T10:43:00Z,172906.6,"c(""distractor1"", ""distractor2"", ""distractor3"")",Gesundheit,salama,d,NA,NA,NA,NA,NA,0,NA,NA,NA,NA,NA,NA,NA,NA,NA,NA,NA,NA,NA,NA,NA,NA,NA,NA,NA,NA
fa09c,deep,flow.Sequence,1_1_5_0,NA,NA,completion,8700,164174.70000029,164173.4,164190.1,172890.1,172891.0999999,2024-02-17T10:43:00Z,172906.6,"c(""distractor1"", ""distractor2"", ""distractor3"")",Gesundheit,salama,d,NA,NA,NA,NA,NA,NA,NA,NA,NA,NA,NA,NA,NA,NA,NA,NA,NA,NA,NA,NA,NA,NA,NA,NA,NA,NA
fa09c,shallow,flow.Sequence,1_1_5_1,NA,NA,skipped,NA,172891.20000029,NA,NA,172890.1,172891.30000019,2024-02-17T10:43:00Z,172906.6,"c(""distractor1"", ""distractor2"", ""distractor3"")",Gesundheit,salama,d,NA,NA,NA,NA,NA,NA,NA,NA,NA,NA,NA,NA,NA,NA,NA,NA,NA,NA,NA,NA,NA,NA,NA,NA,NA,NA
fa09c,task,flow.Sequence,1_1_5,NA,NA,completion,8700,164174.5999999,164173.4,164190.1,172890.1,172891.5,2024-02-17T10:43:00Z,172906.6,"c(""distractor1"", ""distractor2"", ""distractor3"")",Gesundheit,salama,d,NA,NA,NA,NA,NA,NA,NA,NA,NA,NA,NA,NA,NA,NA,NA,NA,NA,NA,NA,NA,NA,NA,NA,NA,NA,NA
fa09c,block,flow.Loop,1_1,NA,NA,completion,67666.8,105213.5,105207.8,105223.3,172890.1,172891.70000029,2024-02-17T10:43:00Z,172906.6,"c(""distractor1"", ""distractor2"", ""distractor3"")",NA,NA,NA,NA,NA,NA,NA,NA,NA,NA,NA,NA,NA,NA,NA,NA,NA,NA,NA,NA,NA,NA,NA,NA,NA,NA,NA,NA,NA
fa09c,Practice,flow.Sequence,1,NA,NA,completion,76300.1,96579.300000191,96573.3,96590,172890.1,172891.80000019,2024-02-17T10:43:00Z,172906.6,NULL,NA,NA,NA,NA,NA,NA,NA,NA,NA,NA,NA,NA,NA,NA,NA,NA,NA,NA,NA,NA,NA,NA,NA,NA,NA,NA,NA,NA,NA
fa09c,Experiment start,canvas.Screen,2,weiter,keypress(q),response,17907.9,172892,172890.1,172906.6,190814.5,190815.5,2024-02-17T10:43:18Z,190923.3,NULL,NA,NA,NA,NA,NA,NA,NA,NA,NA,NA,NA,NA,NA,NA,NA,NA,NA,NA,NA,NA,NA,NA,NA,NA,NA,NA,NA,NA,NA
fa09c,deep,flow.Sequence,3_0_0_0_0_0,NA,NA,skipped,NA,190906.4000001,NA,NA,190814.5,190906.5,2024-02-17T10:43:18Z,190923.3,NULL,Widerstand,usulubu,s,kusababisha,mwalimu,mwenendo,NA,sdf,NA,0,NA,NA,NA,NA,NA,NA,NA,NA,NA,NA,NA,NA,NA,NA,NA,NA,NA,NA,NA
fa09c,Shallow Question,html.Page,3_0_0_0_0_1_0,NA,NA,form submission,31921.7,190906.5,190906.506,190923.3,222845,222845.20000029,2024-02-17T10:43:50Z,222856.7,NULL,Widerstand,usulubu,s,kusababisha,mwalimu,mwenendo,kusababisha,NA,NA,0,NA,NA,NA,NA,NA,NA,NA,NA,NA,NA,NA,NA,NA,NA,NA,NA,NA,NA,NA
fa09c,"""Richtig""-Screen",canvas.Screen,3_0_0_0_0_1_1,NA,NA,skipped,NA,222847,NA,NA,222845,222847.0999999,2024-02-17T10:43:50Z,222856.7,NULL,Widerstand,usulubu,s,kusababisha,mwalimu,mwenendo,NA,sdf,NA,0,NA,NA,NA,NA,NA,NA,NA,NA,NA,NA,NA,NA,NA,NA,NA,NA,NA,NA,NA
fa09c,"""Falsch""-Screen",canvas.Screen,3_0_0_0_0_1_2,NA,NA,timeout,4999.9,222847.70000029,222840.084,222856.7,227840,227840.70000029,2024-02-17T10:43:55Z,227856.6,NULL,Widerstand,usulubu,s,kusababisha,mwalimu,mwenendo,NA,sdf,0,0,NA,NA,NA,NA,NA,NA,NA,NA,NA,NA,NA,NA,NA,NA,NA,NA,NA,NA,NA
fa09c,shallow,flow.Sequence,3_0_0_0_0_1,NA,NA,completion,36916.7,190906.5,190906.506,190923.3,227840,227840.80000019,2024-02-17T10:43:55Z,227856.6,NULL,Widerstand,usulubu,s,kusababisha,mwalimu,mwenendo,NA,sdf,NA,0,NA,NA,NA,NA,NA,NA,NA,NA,NA,NA,NA,NA,NA,NA,NA,NA,NA,NA,NA
fa09c,task,flow.Sequence,3_0_0_0_0,NA,NA,completion,36916.7,190906.4000001,190906.506,190923.3,227840,227840.9000001,2024-02-17T10:43:55Z,227856.6,NULL,Widerstand,usulubu,s,kusababisha,mwalimu,mwenendo,NA,sdf,NA,0,NA,NA,NA,NA,NA,NA,NA,NA,NA,NA,NA,NA,NA,NA,NA,NA,NA,NA,NA
fa09c,deep,flow.Sequence,3_0_0_0_1_0,NA,NA,skipped,NA,227840.9000001,NA,NA,227840,227841,2024-02-17T10:43:55Z,227856.6,NULL,Gefährdung,kuhatarisha,s,uchokozi,udhaifu,makorowezo,NA,sdf,NA,0,NA,NA,NA,NA,NA,NA,NA,NA,NA,NA,NA,NA,NA,NA,NA,NA,NA,NA,NA
fa09c,Shallow Question,html.Page,3_0_0_0_1_1_0,NA,NA,form submission,7864.9999999046,227841,227840,227856.6,235721.5999999,235721.80000019,2024-02-17T10:44:03Z,235739.9,NULL,Gefährdung,kuhatarisha,s,uchokozi,udhaifu,makorowezo,kuhatarisha,NA,NA,0,NA,NA,NA,NA,NA,NA,NA,NA,NA,NA,NA,NA,NA,NA,NA,NA,NA,NA,NA
fa09c,"""Richtig""-Screen",canvas.Screen,3_0_0_0_1_1_1,NA,NA,timeout,5000.1,235723.5,235723.866,235739.9,240723.3,240724.20000029,2024-02-17T10:44:08Z,240740,NULL,Gefährdung,kuhatarisha,s,uchokozi,udhaifu,makorowezo,NA,sdf,1,0,NA,NA,NA,NA,NA,NA,NA,NA,NA,NA,NA,NA,NA,NA,NA,NA,NA,NA,NA
fa09c,"""Falsch""-Screen",canvas.Screen,3_0_0_0_1_1_2,NA,NA,skipped,NA,240728.20000029,NA,NA,240723.3,240728.4000001,2024-02-17T10:44:08Z,240740,NULL,Gefährdung,kuhatarisha,s,uchokozi,udhaifu,makorowezo,NA,sdf,NA,0,NA,NA,NA,NA,NA,NA,NA,NA,NA,NA,NA,NA,NA,NA,NA,NA,NA,NA,NA
fa09c,shallow,flow.Sequence,3_0_0_0_1_1,NA,NA,completion,12866.7,227841,227840,227856.6,240723.3,240728.5999999,2024-02-17T10:44:08Z,240740,NULL,Gefährdung,kuhatarisha,s,uchokozi,udhaifu,makorowezo,NA,sdf,NA,0,NA,NA,NA,NA,NA,NA,NA,NA,NA,NA,NA,NA,NA,NA,NA,NA,NA,NA,NA
fa09c,task,flow.Sequence,3_0_0_0_1,NA,NA,completion,12866.7,227840.9000001,227840,227856.6,240723.3,240728.70000029,2024-02-17T10:44:08Z,240740,NULL,Gefährdung,kuhatarisha,s,uchokozi,udhaifu,makorowezo,NA,sdf,NA,0,NA,NA,NA,NA,NA,NA,NA,NA,NA,NA,NA,NA,NA,NA,NA,NA,NA,NA,NA
fa09c,deep,flow.Sequence,3_0_0_0_2_0,NA,NA,skipped,NA,240728.9000001,NA,NA,240723.3,240729,2024-02-17T10:44:08Z,240740,NULL,Verstand,ufahamivu,s,shakawa,hadhari,mhandisi,NA,sdf,NA,0,NA,NA,NA,NA,NA,NA,NA,NA,NA,NA,NA,NA,NA,NA,NA,NA,NA,NA,NA
fa09c,Shallow Question,html.Page,3_0_0_0_2_1_0,NA,NA,form submission,12175.599999905,240729.0999999,240723.3,240740,252915.5999999,252915.80000019,2024-02-17T10:44:20Z,252923.2,NULL,Verstand,ufahamivu,s,shakawa,hadhari,mhandisi,mhandisi,NA,NA,0,NA,NA,NA,NA,NA,NA,NA,NA,NA,NA,NA,NA,NA,NA,NA,NA,NA,NA,NA
fa09c,"""Richtig""-Screen",canvas.Screen,3_0_0_0_2_1_1,NA,NA,skipped,NA,252917.70000029,NA,NA,252915.5999999,252917.9000001,2024-02-17T10:44:20Z,252923.2,NULL,Verstand,ufahamivu,s,shakawa,hadhari,mhandisi,NA,sdf,NA,0,NA,NA,NA,NA,NA,NA,NA,NA,NA,NA,NA,NA,NA,NA,NA,NA,NA,NA,NA
fa09c,"""Falsch""-Screen",canvas.Screen,3_0_0_0_2_1_2,NA,NA,timeout,5000.1,252918.5,252906.69,252923.2,257906.6,257907.4000001,2024-02-17T10:44:25Z,257923.3,NULL,Verstand,ufahamivu,s,shakawa,hadhari,mhandisi,NA,sdf,0,0,NA,NA,NA,NA,NA,NA,NA,NA,NA,NA,NA,NA,NA,NA,NA,NA,NA,NA,NA
fa09c,shallow,flow.Sequence,3_0_0_0_2_1,NA,NA,completion,17166.6,240729.0999999,240723.3,240740,257906.6,257907.70000029,2024-02-17T10:44:25Z,257923.3,NULL,Verstand,ufahamivu,s,shakawa,hadhari,mhandisi,NA,sdf,NA,0,NA,NA,NA,NA,NA,NA,NA,NA,NA,NA,NA,NA,NA,NA,NA,NA,NA,NA,NA
fa09c,task,flow.Sequence,3_0_0_0_2,NA,NA,completion,17166.6,240728.9000001,240723.3,240740,257906.6,257907.80000019,2024-02-17T10:44:25Z,257923.3,NULL,Verstand,ufahamivu,s,shakawa,hadhari,mhandisi,NA,sdf,NA,0,NA,NA,NA,NA,NA,NA,NA,NA,NA,NA,NA,NA,NA,NA,NA,NA,NA,NA,NA
fa09c,Deep Question,html.Page,3_0_0_0_3_0_0,NA,NA,form submission,6435.2,257908,257906.6,257923.3,264358.5,264358.70000029,2024-02-17T10:44:32Z,264373.2,NULL,Kreativität,ubunifu,d,NA,NA,NA,Kreativiät,NA,NA,0,NA,NA,NA,NA,NA,NA,NA,NA,NA,NA,NA,NA,NA,NA,NA,NA,NA,NA,NA
fa09c,"""Richtig""-Screen",canvas.Screen,3_0_0_0_3_0_1,NA,NA,skipped,NA,264360.4000001,NA,NA,264358.5,264360.5,2024-02-17T10:44:32Z,264373.2,NULL,Kreativität,ubunifu,d,NA,NA,NA,NA,sdf,NA,0,NA,NA,NA,NA,NA,NA,NA,NA,NA,NA,NA,NA,NA,NA,NA,NA,NA,NA,NA
fa09c,"""Falsch""-Screen",canvas.Screen,3_0_0_0_3_0_2,NA,NA,timeout,5000.1,264361,264356.634,264373.2,269356.6,269357.4000001,2024-02-17T10:44:37Z,269373.3,NULL,Kreativität,ubunifu,d,NA,NA,NA,NA,sdf,0,0,NA,NA,NA,NA,NA,NA,NA,NA,NA,NA,NA,NA,NA,NA,NA,NA,NA,NA,NA
fa09c,deep,flow.Sequence,3_0_0_0_3_0,NA,NA,completion,11433.3,257907.9000001,257906.6,257923.3,269356.6,269357.80000019,2024-02-17T10:44:37Z,269373.3,NULL,Kreativität,ubunifu,d,NA,NA,NA,NA,sdf,NA,0,NA,NA,NA,NA,NA,NA,NA,NA,NA,NA,NA,NA,NA,NA,NA,NA,NA,NA,NA
fa09c,shallow,flow.Sequence,3_0_0_0_3_1,NA,NA,skipped,NA,269357.80000019,NA,NA,269356.6,269358,2024-02-17T10:44:37Z,269373.3,NULL,Kreativität,ubunifu,d,NA,NA,NA,NA,sdf,NA,0,NA,NA,NA,NA,NA,NA,NA,NA,NA,NA,NA,NA,NA,NA,NA,NA,NA,NA,NA
fa09c,task,flow.Sequence,3_0_0_0_3,NA,NA,completion,11433.3,257907.9000001,257906.6,257923.3,269356.6,269358.0999999,2024-02-17T10:44:37Z,269373.3,NULL,Kreativität,ubunifu,d,NA,NA,NA,NA,sdf,NA,0,NA,NA,NA,NA,NA,NA,NA,NA,NA,NA,NA,NA,NA,NA,NA,NA,NA,NA,NA
fa09c,deep,flow.Sequence,3_0_0_0_4_0,NA,NA,skipped,NA,269358.30000019,NA,NA,269356.6,269358.30000019,2024-02-17T10:44:37Z,269373.3,NULL,Kontrolle,kudhibiti,s,mbinguni,kufunga,utegemezi,NA,sdf,NA,0,NA,NA,NA,NA,NA,NA,NA,NA,NA,NA,NA,NA,NA,NA,NA,NA,NA,NA,NA
fa09c,Shallow Question,html.Page,3_0_0_0_4_1_0,NA,NA,form submission,4678.1000000954,269358.4000001,269356.6,269373.3,274051.4000001,274051.70000029,2024-02-17T10:44:41Z,274056.5,NULL,Kontrolle,kudhibiti,s,mbinguni,kufunga,utegemezi,utegemezi,NA,NA,0,NA,NA,NA,NA,NA,NA,NA,NA,NA,NA,NA,NA,NA,NA,NA,NA,NA,NA,NA
fa09c,"""Richtig""-Screen",canvas.Screen,3_0_0_0_4_1_1,NA,NA,skipped,NA,274053.4000001,NA,NA,274051.4000001,274053.5999999,2024-02-17T10:44:41Z,274056.5,NULL,Kontrolle,kudhibiti,s,mbinguni,kufunga,utegemezi,NA,sdf,NA,0,NA,NA,NA,NA,NA,NA,NA,NA,NA,NA,NA,NA,NA,NA,NA,NA,NA,NA,NA
fa09c,"""Falsch""-Screen",canvas.Screen,3_0_0_0_4_1_2,NA,NA,timeout,5000,274054.0999999,274039.996,274056.5,279040,279040.70000029,2024-02-17T10:44:46Z,279056.5,NULL,Kontrolle,kudhibiti,s,mbinguni,kufunga,utegemezi,NA,sdf,0,0,NA,NA,NA,NA,NA,NA,NA,NA,NA,NA,NA,NA,NA,NA,NA,NA,NA,NA,NA
fa09c,shallow,flow.Sequence,3_0_0_0_4_1,NA,NA,completion,9666.7,269358.4000001,269356.6,269373.3,279040,279041,2024-02-17T10:44:46Z,279056.5,NULL,Kontrolle,kudhibiti,s,mbinguni,kufunga,utegemezi,NA,sdf,NA,0,NA,NA,NA,NA,NA,NA,NA,NA,NA,NA,NA,NA,NA,NA,NA,NA,NA,NA,NA
fa09c,task,flow.Sequence,3_0_0_0_4,NA,NA,completion,9666.7,269358.20000029,269356.6,269373.3,279040,279041.0999999,2024-02-17T10:44:46Z,279056.5,NULL,Kontrolle,kudhibiti,s,mbinguni,kufunga,utegemezi,NA,sdf,NA,0,NA,NA,NA,NA,NA,NA,NA,NA,NA,NA,NA,NA,NA,NA,NA,NA,NA,NA,NA
fa09c,Deep Question,html.Page,3_0_0_0_5_0_0,NA,NA,form submission,3311,279041.30000019,279040,279056.5,282367.5,282367.70000029,2024-02-17T10:44:50Z,282373.1,NULL,Können,unaweza,d,NA,NA,NA,Können,NA,NA,0,NA,NA,NA,NA,NA,NA,NA,NA,NA,NA,NA,NA,NA,NA,NA,NA,NA,NA,NA
fa09c,"""Richtig""-Screen",canvas.Screen,3_0_0_0_5_0_1,NA,NA,skipped,NA,282369.4000001,NA,NA,282367.5,282369.5,2024-02-17T10:44:50Z,282373.1,NULL,Können,unaweza,d,NA,NA,NA,NA,sdf,NA,0,NA,NA,NA,NA,NA,NA,NA,NA,NA,NA,NA,NA,NA,NA,NA,NA,NA,NA,NA
fa09c,"""Falsch""-Screen",canvas.Screen,3_0_0_0_5_0_2,NA,NA,timeout,5000.2,282370.0999999,282356.65,282373.1,287356.5,287357.4000001,2024-02-17T10:44:55Z,287373.3,NULL,Können,unaweza,d,NA,NA,NA,NA,sdf,0,0,NA,NA,NA,NA,NA,NA,NA,NA,NA,NA,NA,NA,NA,NA,NA,NA,NA,NA,NA
fa09c,deep,flow.Sequence,3_0_0_0_5_0,NA,NA,completion,8300,279041.30000019,279040,279056.5,287356.5,287357.5999999,2024-02-17T10:44:55Z,287373.3,NULL,Können,unaweza,d,NA,NA,NA,NA,sdf,NA,0,NA,NA,NA,NA,NA,NA,NA,NA,NA,NA,NA,NA,NA,NA,NA,NA,NA,NA,NA
fa09c,shallow,flow.Sequence,3_0_0_0_5_1,NA,NA,skipped,NA,287357.70000029,NA,NA,287356.5,287357.9000001,2024-02-17T10:44:55Z,287373.3,NULL,Können,unaweza,d,NA,NA,NA,NA,sdf,NA,0,NA,NA,NA,NA,NA,NA,NA,NA,NA,NA,NA,NA,NA,NA,NA,NA,NA,NA,NA
fa09c,task,flow.Sequence,3_0_0_0_5,NA,NA,completion,8300,279041.20000029,279040,279056.5,287356.5,287358,2024-02-17T10:44:55Z,287373.3,NULL,Können,unaweza,d,NA,NA,NA,NA,sdf,NA,0,NA,NA,NA,NA,NA,NA,NA,NA,NA,NA,NA,NA,NA,NA,NA,NA,NA,NA,NA
fa09c,Deep Question,html.Page,3_0_0_0_6_0_0,NA,NA,form submission,4963.4000002861,287358.20000029,287356.5,287373.3,292336.70000029,292336.9000001,2024-02-17T10:45:00Z,292339.912,NULL,Ausschluss,kutengwa,d,NA,NA,NA,ausschluss¨,NA,NA,0,NA,NA,NA,NA,NA,NA,NA,NA,NA,NA,NA,NA,NA,NA,NA,NA,NA,NA,NA
fa09c,"""Richtig""-Screen",canvas.Screen,3_0_0_0_6_0_1,NA,NA,skipped,NA,292339.0999999,NA,NA,292336.70000029,292339.30000019,2024-02-17T10:45:00Z,292339.912,NULL,Ausschluss,kutengwa,d,NA,NA,NA,NA,sdf,NA,0,NA,NA,NA,NA,NA,NA,NA,NA,NA,NA,NA,NA,NA,NA,NA,NA,NA,NA,NA
fa09c,"""Falsch""-Screen",canvas.Screen,3_0_0_0_6_0_2,NA,NA,timeout,4999.988,292339.80000019,292339.912,292339.912,297323.2,297324,2024-02-17T10:45:05Z,297339.9,NULL,Ausschluss,kutengwa,d,NA,NA,NA,NA,sdf,0,0,NA,NA,NA,NA,NA,NA,NA,NA,NA,NA,NA,NA,NA,NA,NA,NA,NA,NA,NA
fa09c,deep,flow.Sequence,3_0_0_0_6_0,NA,NA,completion,9949.9,287358.0999999,287356.5,287373.3,297323.2,297324.4000001,2024-02-17T10:45:05Z,297339.9,NULL,Ausschluss,kutengwa,d,NA,NA,NA,NA,sdf,NA,0,NA,NA,NA,NA,NA,NA,NA,NA,NA,NA,NA,NA,NA,NA,NA,NA,NA,NA,NA
fa09c,shallow,flow.Sequence,3_0_0_0_6_1,NA,NA,skipped,NA,297324.5,NA,NA,297323.2,297324.5999999,2024-02-17T10:45:05Z,297339.9,NULL,Ausschluss,kutengwa,d,NA,NA,NA,NA,sdf,NA,0,NA,NA,NA,NA,NA,NA,NA,NA,NA,NA,NA,NA,NA,NA,NA,NA,NA,NA,NA
fa09c,task,flow.Sequence,3_0_0_0_6,NA,NA,completion,9949.9,287358.0999999,287356.5,287373.3,297323.2,297324.70000029,2024-02-17T10:45:05Z,297339.9,NULL,Ausschluss,kutengwa,d,NA,NA,NA,NA,sdf,NA,0,NA,NA,NA,NA,NA,NA,NA,NA,NA,NA,NA,NA,NA,NA,NA,NA,NA,NA,NA
fa09c,Deep Question,html.Page,3_0_0_0_7_0_0,NA,NA,form submission,4527.6999999046,297324.9000001,297323.2,297339.9,301867.5999999,301867.9000001,2024-02-17T10:45:09Z,301890,NULL,Gelegenheit,wakati,d,NA,NA,NA,Gelegenheito,NA,NA,0,NA,NA,NA,NA,NA,NA,NA,NA,NA,NA,NA,NA,NA,NA,NA,NA,NA,NA,NA
fa09c,"""Richtig""-Screen",canvas.Screen,3_0_0_0_7_0_1,NA,NA,skipped,NA,301869.5999999,NA,NA,301867.5999999,301869.80000019,2024-02-17T10:45:09Z,301890,NULL,Gelegenheit,wakati,d,NA,NA,NA,NA,sdf,NA,0,NA,NA,NA,NA,NA,NA,NA,NA,NA,NA,NA,NA,NA,NA,NA,NA,NA,NA,NA
fa09c,"""Falsch""-Screen",canvas.Screen,3_0_0_0_7_0_2,NA,NA,timeout,5000,301870.4000001,301873.29,301890,306873.2,306874.0999999,2024-02-17T10:45:14Z,306890,NULL,Gelegenheit,wakati,d,NA,NA,NA,NA,sdf,0,0,NA,NA,NA,NA,NA,NA,NA,NA,NA,NA,NA,NA,NA,NA,NA,NA,NA,NA,NA
fa09c,deep,flow.Sequence,3_0_0_0_7_0,NA,NA,completion,9533.3,297324.80000019,297323.2,297339.9,306873.2,306874.4000001,2024-02-17T10:45:14Z,306890,NULL,Gelegenheit,wakati,d,NA,NA,NA,NA,sdf,NA,0,NA,NA,NA,NA,NA,NA,NA,NA,NA,NA,NA,NA,NA,NA,NA,NA,NA,NA,NA
fa09c,shallow,flow.Sequence,3_0_0_0_7_1,NA,NA,skipped,NA,306874.5,NA,NA,306873.2,306874.5999999,2024-02-17T10:45:14Z,306890,NULL,Gelegenheit,wakati,d,NA,NA,NA,NA,sdf,NA,0,NA,NA,NA,NA,NA,NA,NA,NA,NA,NA,NA,NA,NA,NA,NA,NA,NA,NA,NA
fa09c,task,flow.Sequence,3_0_0_0_7,NA,NA,completion,9533.3,297324.80000019,297323.2,297339.9,306873.2,306874.80000019,2024-02-17T10:45:14Z,306890,NULL,Gelegenheit,wakati,d,NA,NA,NA,NA,sdf,NA,0,NA,NA,NA,NA,NA,NA,NA,NA,NA,NA,NA,NA,NA,NA,NA,NA,NA,NA,NA
fa09c,block,flow.Loop,3_0_0_0,NA,NA,completion,115949.9,190906.30000019,190906.506,190923.3,306873.2,306874.9000001,2024-02-17T10:45:14Z,306890,NULL,NA,NA,NA,NA,NA,NA,NA,sdf,NA,0,NA,NA,NA,NA,NA,NA,NA,NA,NA,NA,NA,NA,NA,NA,NA,NA,NA,NA,NA
fa09c,weiter,canvas.Screen,3_0_0_1,sdf,keypress(Space),response,1339.7000002861,306875.0999999,306873.2,306890,308229.70000029,308230.5999999,2024-02-17T10:45:15Z,308289.9,NULL,NA,NA,NA,NA,NA,NA,NA,sdf,NA,0,NA,NA,NA,NA,NA,NA,NA,NA,NA,NA,NA,NA,NA,NA,NA,NA,NA,NA,NA
fa09c,check continue,flow.Sequence,3_0_0,NA,NA,completion,117306.40000029,190906.30000019,190906.506,190923.3,308229.70000029,308230.9000001,2024-02-17T10:45:15Z,308289.9,NULL,NA,NA,NA,NA,NA,NA,NA,sdf,NA,0,NA,NA,NA,NA,NA,NA,NA,NA,NA,NA,NA,NA,NA,NA,NA,NA,NA,NA,NA
fa09c,deep,flow.Sequence,3_0_1_0_0_0,NA,NA,skipped,NA,308273.9000001,NA,NA,308229.70000029,308274.0999999,2024-02-17T10:45:16Z,308289.9,NULL,Verstand,ufahamivu,s,shakawa,hadhari,mhandisi,NA,sdfdsf,NA,1,NA,NA,NA,NA,NA,NA,NA,NA,NA,NA,NA,NA,NA,NA,NA,NA,NA,NA,NA
fa09c,Shallow Question,html.Page,3_0_1_0_0_1_0,NA,NA,form submission,6188.6,308274.20000029,308273.278,308289.9,314478.5,314478.70000029,2024-02-17T10:45:22Z,314489.9,NULL,Verstand,ufahamivu,s,shakawa,hadhari,mhandisi,hadhari,NA,NA,1,NA,NA,NA,NA,NA,NA,NA,NA,NA,NA,NA,NA,NA,NA,NA,NA,NA,NA,NA
fa09c,"""Richtig""-Screen",canvas.Screen,3_0_1_0_0_1_1,NA,NA,skipped,NA,314480.4000001,NA,NA,314478.5,314480.5,2024-02-17T10:45:22Z,314489.9,NULL,Verstand,ufahamivu,s,shakawa,hadhari,mhandisi,NA,sdfdsf,NA,1,NA,NA,NA,NA,NA,NA,NA,NA,NA,NA,NA,NA,NA,NA,NA,NA,NA,NA,NA
fa09c,"""Falsch""-Screen",canvas.Screen,3_0_1_0_0_1_2,NA,NA,timeout,4999.9,314481.20000029,314473.304,314489.9,319473.2,319474,2024-02-17T10:45:27Z,319489.8,NULL,Verstand,ufahamivu,s,shakawa,hadhari,mhandisi,NA,sdfdsf,0,1,NA,NA,NA,NA,NA,NA,NA,NA,NA,NA,NA,NA,NA,NA,NA,NA,NA,NA,NA
fa09c,shallow,flow.Sequence,3_0_1_0_0_1,NA,NA,completion,11183.3,308274.20000029,308273.278,308289.9,319473.2,319474.30000019,2024-02-17T10:45:27Z,319489.8,NULL,Verstand,ufahamivu,s,shakawa,hadhari,mhandisi,NA,sdfdsf,NA,1,NA,NA,NA,NA,NA,NA,NA,NA,NA,NA,NA,NA,NA,NA,NA,NA,NA,NA,NA
fa09c,task,flow.Sequence,3_0_1_0_0,NA,NA,completion,11183.3,308273.9000001,308273.278,308289.9,319473.2,319474.5,2024-02-17T10:45:27Z,319489.8,NULL,Verstand,ufahamivu,s,shakawa,hadhari,mhandisi,NA,sdfdsf,NA,1,NA,NA,NA,NA,NA,NA,NA,NA,NA,NA,NA,NA,NA,NA,NA,NA,NA,NA,NA
fa09c,deep,flow.Sequence,3_0_1_0_1_0,NA,NA,skipped,NA,319474.5,NA,NA,319473.2,319474.70000029,2024-02-17T10:45:27Z,319489.8,NULL,Gefährdung,kuhatarisha,s,uchokozi,udhaifu,makorowezo,NA,sdfdsf,NA,1,NA,NA,NA,NA,NA,NA,NA,NA,NA,NA,NA,NA,NA,NA,NA,NA,NA,NA,NA
fa09c,Shallow Question,html.Page,3_0_1_0_1_1_0,NA,NA,form submission,7625.7999999046,319474.70000029,319473.2,319489.8,327115.5999999,327115.80000019,2024-02-17T10:45:34Z,327123.1,NULL,Gefährdung,kuhatarisha,s,uchokozi,udhaifu,makorowezo,udhaifu,NA,NA,1,NA,NA,NA,NA,NA,NA,NA,NA,NA,NA,NA,NA,NA,NA,NA,NA,NA,NA,NA
fa09c,"""Richtig""-Screen",canvas.Screen,3_0_1_0_1_1_1,NA,NA,skipped,NA,327117.5,NA,NA,327115.5999999,327117.5999999,2024-02-17T10:45:34Z,327123.1,NULL,Gefährdung,kuhatarisha,s,uchokozi,udhaifu,makorowezo,NA,sdfdsf,NA,1,NA,NA,NA,NA,NA,NA,NA,NA,NA,NA,NA,NA,NA,NA,NA,NA,NA,NA,NA
fa09c,"""Falsch""-Screen",canvas.Screen,3_0_1_0_1_1_2,NA,NA,timeout,5000.2,327118.20000029,327106.622,327123.1,332106.5,332107.30000019,2024-02-17T10:45:39Z,332123.3,NULL,Gefährdung,kuhatarisha,s,uchokozi,udhaifu,makorowezo,NA,sdfdsf,0,1,NA,NA,NA,NA,NA,NA,NA,NA,NA,NA,NA,NA,NA,NA,NA,NA,NA,NA,NA
fa09c,shallow,flow.Sequence,3_0_1_0_1_1,NA,NA,completion,12616.7,319474.70000029,319473.2,319489.8,332106.5,332107.5999999,2024-02-17T10:45:39Z,332123.3,NULL,Gefährdung,kuhatarisha,s,uchokozi,udhaifu,makorowezo,NA,sdfdsf,NA,1,NA,NA,NA,NA,NA,NA,NA,NA,NA,NA,NA,NA,NA,NA,NA,NA,NA,NA,NA
fa09c,task,flow.Sequence,3_0_1_0_1,NA,NA,completion,12616.7,319474.5,319473.2,319489.8,332106.5,332107.70000029,2024-02-17T10:45:39Z,332123.3,NULL,Gefährdung,kuhatarisha,s,uchokozi,udhaifu,makorowezo,NA,sdfdsf,NA,1,NA,NA,NA,NA,NA,NA,NA,NA,NA,NA,NA,NA,NA,NA,NA,NA,NA,NA,NA
fa09c,deep,flow.Sequence,3_0_1_0_2_0,NA,NA,skipped,NA,332107.9000001,NA,NA,332106.5,332107.9000001,2024-02-17T10:45:39Z,332123.3,NULL,Kontrolle,kudhibiti,s,mbinguni,kufunga,utegemezi,NA,sdfdsf,NA,1,NA,NA,NA,NA,NA,NA,NA,NA,NA,NA,NA,NA,NA,NA,NA,NA,NA,NA,NA
fa09c,Shallow Question,html.Page,3_0_1_0_2_1_0,NA,NA,form submission,26810.2,332108.0999999,332106.5,332123.3,358933.5,358933.5999999,2024-02-17T10:46:06Z,358939.978,NULL,Kontrolle,kudhibiti,s,mbinguni,kufunga,utegemezi,mbinguni,NA,NA,1,NA,NA,NA,NA,NA,NA,NA,NA,NA,NA,NA,NA,NA,NA,NA,NA,NA,NA,NA
fa09c,"""Richtig""-Screen",canvas.Screen,3_0_1_0_2_1_1,NA,NA,skipped,NA,358935.30000019,NA,NA,358933.5,358935.5,2024-02-17T10:46:06Z,358939.978,NULL,Kontrolle,kudhibiti,s,mbinguni,kufunga,utegemezi,NA,sdfdsf,NA,1,NA,NA,NA,NA,NA,NA,NA,NA,NA,NA,NA,NA,NA,NA,NA,NA,NA,NA,NA
fa09c,"""Falsch""-Screen",canvas.Screen,3_0_1_0_2_1_2,NA,NA,timeout,4999.922,358936,358939.978,358939.978,363923.2,363924,2024-02-17T10:46:11Z,363939.9,NULL,Kontrolle,kudhibiti,s,mbinguni,kufunga,utegemezi,NA,sdfdsf,0,1,NA,NA,NA,NA,NA,NA,NA,NA,NA,NA,NA,NA,NA,NA,NA,NA,NA,NA,NA
fa09c,shallow,flow.Sequence,3_0_1_0_2_1,NA,NA,completion,31799.9,332108.0999999,332106.5,332123.3,363923.2,363924.5,2024-02-17T10:46:11Z,363939.9,NULL,Kontrolle,kudhibiti,s,mbinguni,kufunga,utegemezi,NA,sdfdsf,NA,1,NA,NA,NA,NA,NA,NA,NA,NA,NA,NA,NA,NA,NA,NA,NA,NA,NA,NA,NA
fa09c,task,flow.Sequence,3_0_1_0_2,NA,NA,completion,31799.9,332107.9000001,332106.5,332123.3,363923.2,363924.5999999,2024-02-17T10:46:11Z,363939.9,NULL,Kontrolle,kudhibiti,s,mbinguni,kufunga,utegemezi,NA,sdfdsf,NA,1,NA,NA,NA,NA,NA,NA,NA,NA,NA,NA,NA,NA,NA,NA,NA,NA,NA,NA,NA
fa09c,Deep Question,html.Page,3_0_1_0_3_0_0,NA,NA,form submission,6692.5000000953,363924.80000019,363923.2,363939.9,370632.4000001,370632.5999999,2024-02-17T10:46:18Z,370639.8,NULL,Ausschluss,kutengwa,d,NA,NA,NA,Ausschluss,NA,NA,1,NA,NA,NA,NA,NA,NA,NA,NA,NA,NA,NA,NA,NA,NA,NA,NA,NA,NA,NA
fa09c,"""Richtig""-Screen",canvas.Screen,3_0_1_0_3_0_1,NA,NA,skipped,NA,370634.30000019,NA,NA,370632.4000001,370634.5,2024-02-17T10:46:18Z,370639.8,NULL,Ausschluss,kutengwa,d,NA,NA,NA,NA,sdfdsf,NA,1,NA,NA,NA,NA,NA,NA,NA,NA,NA,NA,NA,NA,NA,NA,NA,NA,NA,NA,NA
fa09c,"""Falsch""-Screen",canvas.Screen,3_0_1_0_3_0_2,NA,NA,timeout,5000.1,370635,370623.252,370639.8,375623.2,375624,2024-02-17T10:46:23Z,375639.9,NULL,Ausschluss,kutengwa,d,NA,NA,NA,NA,sdfdsf,0,1,NA,NA,NA,NA,NA,NA,NA,NA,NA,NA,NA,NA,NA,NA,NA,NA,NA,NA,NA
fa09c,deep,flow.Sequence,3_0_1_0_3_0,NA,NA,completion,11683.3,363924.80000019,363923.2,363939.9,375623.2,375624.30000019,2024-02-17T10:46:23Z,375639.9,NULL,Ausschluss,kutengwa,d,NA,NA,NA,NA,sdfdsf,NA,1,NA,NA,NA,NA,NA,NA,NA,NA,NA,NA,NA,NA,NA,NA,NA,NA,NA,NA,NA
fa09c,shallow,flow.Sequence,3_0_1_0_3_1,NA,NA,skipped,NA,375624.4000001,NA,NA,375623.2,375624.5999999,2024-02-17T10:46:23Z,375639.9,NULL,Ausschluss,kutengwa,d,NA,NA,NA,NA,sdfdsf,NA,1,NA,NA,NA,NA,NA,NA,NA,NA,NA,NA,NA,NA,NA,NA,NA,NA,NA,NA,NA
fa09c,task,flow.Sequence,3_0_1_0_3,NA,NA,completion,11683.3,363924.80000019,363923.2,363939.9,375623.2,375624.70000029,2024-02-17T10:46:23Z,375639.9,NULL,Ausschluss,kutengwa,d,NA,NA,NA,NA,sdfdsf,NA,1,NA,NA,NA,NA,NA,NA,NA,NA,NA,NA,NA,NA,NA,NA,NA,NA,NA,NA,NA
fa09c,Deep Question,html.Page,3_0_1_0_4_0_0,NA,NA,form submission,19521.699999905,375624.9000001,375623.2,375639.9,395161.5999999,395161.80000019,2024-02-17T10:46:42Z,395173.1,NULL,Gelegenheit,wakati,d,NA,NA,NA,Gelegenheit,NA,NA,1,NA,NA,NA,NA,NA,NA,NA,NA,NA,NA,NA,NA,NA,NA,NA,NA,NA,NA,NA
fa09c,"""Richtig""-Screen",canvas.Screen,3_0_1_0_4_0_1,NA,NA,skipped,NA,395163.5,NA,NA,395161.5999999,395163.70000029,2024-02-17T10:46:42Z,395173.1,NULL,Gelegenheit,wakati,d,NA,NA,NA,NA,sdfdsf,NA,1,NA,NA,NA,NA,NA,NA,NA,NA,NA,NA,NA,NA,NA,NA,NA,NA,NA,NA,NA
fa09c,"""Falsch""-Screen",canvas.Screen,3_0_1_0_4_0_2,NA,NA,timeout,5000.2,395164.20000029,395156.58,395173.1,400156.5,400157.30000019,2024-02-17T10:46:47Z,400173.3,NULL,Gelegenheit,wakati,d,NA,NA,NA,NA,sdfdsf,0,1,NA,NA,NA,NA,NA,NA,NA,NA,NA,NA,NA,NA,NA,NA,NA,NA,NA,NA,NA
fa09c,deep,flow.Sequence,3_0_1_0_4_0,NA,NA,completion,24516.6,375624.80000019,375623.2,375639.9,400156.5,400157.70000029,2024-02-17T10:46:47Z,400173.3,NULL,Gelegenheit,wakati,d,NA,NA,NA,NA,sdfdsf,NA,1,NA,NA,NA,NA,NA,NA,NA,NA,NA,NA,NA,NA,NA,NA,NA,NA,NA,NA,NA
fa09c,shallow,flow.Sequence,3_0_1_0_4_1,NA,NA,skipped,NA,400157.9000001,NA,NA,400156.5,400158,2024-02-17T10:46:47Z,400173.3,NULL,Gelegenheit,wakati,d,NA,NA,NA,NA,sdfdsf,NA,1,NA,NA,NA,NA,NA,NA,NA,NA,NA,NA,NA,NA,NA,NA,NA,NA,NA,NA,NA
fa09c,task,flow.Sequence,3_0_1_0_4,NA,NA,completion,24516.6,375624.80000019,375623.2,375639.9,400156.5,400158.0999999,2024-02-17T10:46:47Z,400173.3,NULL,Gelegenheit,wakati,d,NA,NA,NA,NA,sdfdsf,NA,1,NA,NA,NA,NA,NA,NA,NA,NA,NA,NA,NA,NA,NA,NA,NA,NA,NA,NA,NA
fa09c,Deep Question,html.Page,3_0_1_0_5_0_0,NA,NA,form submission,3302.9000002861,400158.30000019,400156.5,400173.3,403476.20000029,403476.4000001,2024-02-17T10:46:51Z,403489.7,NULL,Können,unaweza,d,NA,NA,NA,können,NA,NA,1,NA,NA,NA,NA,NA,NA,NA,NA,NA,NA,NA,NA,NA,NA,NA,NA,NA,NA,NA
fa09c,"""Richtig""-Screen",canvas.Screen,3_0_1_0_5_0_1,NA,NA,skipped,NA,403478.30000019,NA,NA,403476.20000029,403478.5,2024-02-17T10:46:51Z,403489.7,NULL,Können,unaweza,d,NA,NA,NA,NA,sdfdsf,NA,1,NA,NA,NA,NA,NA,NA,NA,NA,NA,NA,NA,NA,NA,NA,NA,NA,NA,NA,NA
fa09c,"""Falsch""-Screen",canvas.Screen,3_0_1_0_5_0_2,NA,NA,timeout,5000,403479.0999999,403473.258,403489.7,408473.2,408474,2024-02-17T10:46:56Z,408489.7,NULL,Können,unaweza,d,NA,NA,NA,NA,sdfdsf,0,1,NA,NA,NA,NA,NA,NA,NA,NA,NA,NA,NA,NA,NA,NA,NA,NA,NA,NA,NA
fa09c,deep,flow.Sequence,3_0_1_0_5_0,NA,NA,completion,8299.9,400158.20000029,400156.5,400173.3,408473.2,408474.30000019,2024-02-17T10:46:56Z,408489.7,NULL,Können,unaweza,d,NA,NA,NA,NA,sdfdsf,NA,1,NA,NA,NA,NA,NA,NA,NA,NA,NA,NA,NA,NA,NA,NA,NA,NA,NA,NA,NA
fa09c,shallow,flow.Sequence,3_0_1_0_5_1,NA,NA,skipped,NA,408474.4000001,NA,NA,408473.2,408474.5,2024-02-17T10:46:56Z,408489.7,NULL,Können,unaweza,d,NA,NA,NA,NA,sdfdsf,NA,1,NA,NA,NA,NA,NA,NA,NA,NA,NA,NA,NA,NA,NA,NA,NA,NA,NA,NA,NA
fa09c,task,flow.Sequence,3_0_1_0_5,NA,NA,completion,8299.9,400158.20000029,400156.5,400173.3,408473.2,408474.70000029,2024-02-17T10:46:56Z,408489.7,NULL,Können,unaweza,d,NA,NA,NA,NA,sdfdsf,NA,1,NA,NA,NA,NA,NA,NA,NA,NA,NA,NA,NA,NA,NA,NA,NA,NA,NA,NA,NA
fa09c,deep,flow.Sequence,3_0_1_0_6_0,NA,NA,skipped,NA,408474.80000019,NA,NA,408473.2,408474.80000019,2024-02-17T10:46:56Z,408489.7,NULL,Widerstand,usulubu,s,kusababisha,mwalimu,mwenendo,NA,sdfdsf,NA,1,NA,NA,NA,NA,NA,NA,NA,NA,NA,NA,NA,NA,NA,NA,NA,NA,NA,NA,NA
fa09c,Shallow Question,html.Page,3_0_1_0_6_1_0,NA,NA,form submission,9758.8,408475,408473.2,408489.7,418248.5,418248.70000029,2024-02-17T10:47:06Z,418256.584,NULL,Widerstand,usulubu,s,kusababisha,mwalimu,mwenendo,kusababisha,NA,NA,1,NA,NA,NA,NA,NA,NA,NA,NA,NA,NA,NA,NA,NA,NA,NA,NA,NA,NA,NA
fa09c,"""Richtig""-Screen",canvas.Screen,3_0_1_0_6_1_1,NA,NA,skipped,NA,418250.5,NA,NA,418248.5,418250.5,2024-02-17T10:47:06Z,418256.584,NULL,Widerstand,usulubu,s,kusababisha,mwalimu,mwenendo,NA,sdfdsf,NA,1,NA,NA,NA,NA,NA,NA,NA,NA,NA,NA,NA,NA,NA,NA,NA,NA,NA,NA,NA
fa09c,"""Falsch""-Screen",canvas.Screen,3_0_1_0_6_1_2,NA,NA,timeout,5000.016,418251.0999999,418256.584,418256.584,423239.8,423240.5999999,2024-02-17T10:47:10Z,423256.6,NULL,Widerstand,usulubu,s,kusababisha,mwalimu,mwenendo,NA,sdfdsf,0,1,NA,NA,NA,NA,NA,NA,NA,NA,NA,NA,NA,NA,NA,NA,NA,NA,NA,NA,NA
fa09c,shallow,flow.Sequence,3_0_1_0_6_1,NA,NA,completion,14750.1,408474.9000001,408473.2,408489.7,423239.8,423241.0999999,2024-02-17T10:47:10Z,423256.6,NULL,Widerstand,usulubu,s,kusababisha,mwalimu,mwenendo,NA,sdfdsf,NA,1,NA,NA,NA,NA,NA,NA,NA,NA,NA,NA,NA,NA,NA,NA,NA,NA,NA,NA,NA
fa09c,task,flow.Sequence,3_0_1_0_6,NA,NA,completion,14750.1,408474.70000029,408473.2,408489.7,423239.8,423241.30000019,2024-02-17T10:47:10Z,423256.6,NULL,Widerstand,usulubu,s,kusababisha,mwalimu,mwenendo,NA,sdfdsf,NA,1,NA,NA,NA,NA,NA,NA,NA,NA,NA,NA,NA,NA,NA,NA,NA,NA,NA,NA,NA
fa09c,Deep Question,html.Page,3_0_1_0_7_0_0,NA,NA,form submission,4249.9,423241.4000001,423239.8,423256.6,427506.5,427506.70000029,2024-02-17T10:47:15Z,427523.6,NULL,Kreativität,ubunifu,d,NA,NA,NA,Kreativität,NA,NA,1,NA,NA,NA,NA,NA,NA,NA,NA,NA,NA,NA,NA,NA,NA,NA,NA,NA,NA,NA
fa09c,"""Richtig""-Screen",canvas.Screen,3_0_1_0_7_0_1,NA,NA,skipped,NA,427508.4000001,NA,NA,427506.5,427508.5,2024-02-17T10:47:15Z,427523.6,NULL,Kreativität,ubunifu,d,NA,NA,NA,NA,sdfdsf,NA,1,NA,NA,NA,NA,NA,NA,NA,NA,NA,NA,NA,NA,NA,NA,NA,NA,NA,NA,NA
fa09c,"""Falsch""-Screen",canvas.Screen,3_0_1_0_7_0_2,NA,NA,timeout,4999.6,427509.30000019,427506.944,427523.6,432506.5,432507.5,2024-02-17T10:47:20Z,432523.2,NULL,Kreativität,ubunifu,d,NA,NA,NA,NA,sdfdsf,0,1,NA,NA,NA,NA,NA,NA,NA,NA,NA,NA,NA,NA,NA,NA,NA,NA,NA,NA,NA
fa09c,deep,flow.Sequence,3_0_1_0_7_0,NA,NA,completion,9249.9,423241.4000001,423239.8,423256.6,432506.5,432507.70000029,2024-02-17T10:47:20Z,432523.2,NULL,Kreativität,ubunifu,d,NA,NA,NA,NA,sdfdsf,NA,1,NA,NA,NA,NA,NA,NA,NA,NA,NA,NA,NA,NA,NA,NA,NA,NA,NA,NA,NA
fa09c,shallow,flow.Sequence,3_0_1_0_7_1,NA,NA,skipped,NA,432507.80000019,NA,NA,432506.5,432507.9000001,2024-02-17T10:47:20Z,432523.2,NULL,Kreativität,ubunifu,d,NA,NA,NA,NA,sdfdsf,NA,1,NA,NA,NA,NA,NA,NA,NA,NA,NA,NA,NA,NA,NA,NA,NA,NA,NA,NA,NA
fa09c,task,flow.Sequence,3_0_1_0_7,NA,NA,completion,9249.9,423241.4000001,423239.8,423256.6,432506.5,432508.0999999,2024-02-17T10:47:20Z,432523.2,NULL,Kreativität,ubunifu,d,NA,NA,NA,NA,sdfdsf,NA,1,NA,NA,NA,NA,NA,NA,NA,NA,NA,NA,NA,NA,NA,NA,NA,NA,NA,NA,NA
fa09c,block,flow.Loop,3_0_1_0,NA,NA,completion,124216.6,308273.9000001,308273.278,308289.9,432506.5,432508.30000019,2024-02-17T10:47:20Z,432523.2,NULL,NA,NA,NA,NA,NA,NA,NA,sdfdsf,NA,1,NA,NA,NA,NA,NA,NA,NA,NA,NA,NA,NA,NA,NA,NA,NA,NA,NA,NA,NA
fa09c,weiter,canvas.Screen,3_0_1_1,sdf,keypress(Space),response,855.39999990462,432508.30000019,432506.5,432523.2,433378.5999999,433379.5,2024-02-17T10:47:21Z,433439.8,NULL,NA,NA,NA,NA,NA,NA,NA,sdfdsf,NA,1,NA,NA,NA,NA,NA,NA,NA,NA,NA,NA,NA,NA,NA,NA,NA,NA,NA,NA,NA
fa09c,check continue,flow.Sequence,3_0_1,NA,NA,completion,125088.6999999,308273.9000001,308273.278,308289.9,433378.5999999,433379.70000029,2024-02-17T10:47:21Z,433439.8,NULL,NA,NA,NA,NA,NA,NA,NA,sdfdsf,NA,1,NA,NA,NA,NA,NA,NA,NA,NA,NA,NA,NA,NA,NA,NA,NA,NA,NA,NA,NA
fa09c,deep,flow.Sequence,3_0_2_0_0_0,NA,NA,skipped,NA,433434.5999999,NA,NA,433378.5999999,433434.80000019,2024-02-17T10:47:21Z,433439.8,NULL,Verstand,ufahamivu,s,shakawa,hadhari,mhandisi,NA,sdf,NA,2,NA,NA,NA,NA,NA,NA,NA,NA,NA,NA,NA,NA,NA,NA,NA,NA,NA,NA,NA
fa09c,Shallow Question,html.Page,3_0_2_0_0_1_0,NA,NA,form submission,8172.5000001907,433434.9000001,433423.198,433439.8,441612.30000019,441612.5,2024-02-17T10:47:29Z,441623.1,NULL,Verstand,ufahamivu,s,shakawa,hadhari,mhandisi,hadhari,NA,NA,2,NA,NA,NA,NA,NA,NA,NA,NA,NA,NA,NA,NA,NA,NA,NA,NA,NA,NA,NA
fa09c,"""Richtig""-Screen",canvas.Screen,3_0_2_0_0_1_1,NA,NA,skipped,NA,441614.5999999,NA,NA,441612.30000019,441614.80000019,2024-02-17T10:47:29Z,441623.1,NULL,Verstand,ufahamivu,s,shakawa,hadhari,mhandisi,NA,sdf,NA,2,NA,NA,NA,NA,NA,NA,NA,NA,NA,NA,NA,NA,NA,NA,NA,NA,NA,NA,NA
fa09c,"""Falsch""-Screen",canvas.Screen,3_0_2_0_0_1_2,NA,NA,timeout,5000.1,441615.20000029,441606.552,441623.1,446606.4,446607.0999999,2024-02-17T10:47:34Z,446623.2,NULL,Verstand,ufahamivu,s,shakawa,hadhari,mhandisi,NA,sdf,0,2,NA,NA,NA,NA,NA,NA,NA,NA,NA,NA,NA,NA,NA,NA,NA,NA,NA,NA,NA
fa09c,shallow,flow.Sequence,3_0_2_0_0_1,NA,NA,completion,13166.6,433434.9000001,433423.198,433439.8,446606.4,446607.4000001,2024-02-17T10:47:34Z,446623.2,NULL,Verstand,ufahamivu,s,shakawa,hadhari,mhandisi,NA,sdf,NA,2,NA,NA,NA,NA,NA,NA,NA,NA,NA,NA,NA,NA,NA,NA,NA,NA,NA,NA,NA
fa09c,task,flow.Sequence,3_0_2_0_0,NA,NA,completion,13166.6,433434.5999999,433423.198,433439.8,446606.4,446607.5,2024-02-17T10:47:34Z,446623.2,NULL,Verstand,ufahamivu,s,shakawa,hadhari,mhandisi,NA,sdf,NA,2,NA,NA,NA,NA,NA,NA,NA,NA,NA,NA,NA,NA,NA,NA,NA,NA,NA,NA,NA
fa09c,Deep Question,html.Page,3_0_2_0_1_0_0,NA,NA,form submission,3441.2000000954,446607.80000019,446606.4,446623.2,450064.4000001,450064.70000029,2024-02-17T10:47:37Z,450073.1,NULL,Können,unaweza,d,NA,NA,NA,können,NA,NA,2,NA,NA,NA,NA,NA,NA,NA,NA,NA,NA,NA,NA,NA,NA,NA,NA,NA,NA,NA
fa09c,"""Richtig""-Screen",canvas.Screen,3_0_2_0_1_0_1,NA,NA,skipped,NA,450066.30000019,NA,NA,450064.4000001,450066.5,2024-02-17T10:47:37Z,450073.1,NULL,Können,unaweza,d,NA,NA,NA,NA,sdf,NA,2,NA,NA,NA,NA,NA,NA,NA,NA,NA,NA,NA,NA,NA,NA,NA,NA,NA,NA,NA
fa09c,"""Falsch""-Screen",canvas.Screen,3_0_2_0_1_0_2,NA,NA,timeout,5000,450067,450056.514,450073.1,455056.4,455057.20000029,2024-02-17T10:47:42Z,455073.1,NULL,Können,unaweza,d,NA,NA,NA,NA,sdf,0,2,NA,NA,NA,NA,NA,NA,NA,NA,NA,NA,NA,NA,NA,NA,NA,NA,NA,NA,NA
fa09c,deep,flow.Sequence,3_0_2_0_1_0,NA,NA,completion,8433.2,446607.80000019,446606.4,446623.2,455056.4,455057.4000001,2024-02-17T10:47:42Z,455073.1,NULL,Können,unaweza,d,NA,NA,NA,NA,sdf,NA,2,NA,NA,NA,NA,NA,NA,NA,NA,NA,NA,NA,NA,NA,NA,NA,NA,NA,NA,NA
fa09c,shallow,flow.Sequence,3_0_2_0_1_1,NA,NA,skipped,NA,455057.5,NA,NA,455056.4,455057.70000029,2024-02-17T10:47:42Z,455073.1,NULL,Können,unaweza,d,NA,NA,NA,NA,sdf,NA,2,NA,NA,NA,NA,NA,NA,NA,NA,NA,NA,NA,NA,NA,NA,NA,NA,NA,NA,NA
fa09c,task,flow.Sequence,3_0_2_0_1,NA,NA,completion,8433.2,446607.70000029,446606.4,446623.2,455056.4,455057.80000019,2024-02-17T10:47:42Z,455073.1,NULL,Können,unaweza,d,NA,NA,NA,NA,sdf,NA,2,NA,NA,NA,NA,NA,NA,NA,NA,NA,NA,NA,NA,NA,NA,NA,NA,NA,NA,NA
fa09c,deep,flow.Sequence,3_0_2_0_2_0,NA,NA,skipped,NA,455057.9000001,NA,NA,455056.4,455058,2024-02-17T10:47:42Z,455073.1,NULL,Kontrolle,kudhibiti,s,mbinguni,kufunga,utegemezi,NA,sdf,NA,2,NA,NA,NA,NA,NA,NA,NA,NA,NA,NA,NA,NA,NA,NA,NA,NA,NA,NA,NA
fa09c,Shallow Question,html.Page,3_0_2_0_2_1_0,NA,NA,form submission,36964.999999905,455058.0999999,455056.4,455073.1,492038.0999999,492038.30000019,2024-02-17T10:48:19Z,492039.872,NULL,Kontrolle,kudhibiti,s,mbinguni,kufunga,utegemezi,kudhibiti,NA,NA,2,NA,NA,NA,NA,NA,NA,NA,NA,NA,NA,NA,NA,NA,NA,NA,NA,NA,NA,NA
fa09c,"""Richtig""-Screen",canvas.Screen,3_0_2_0_2_1_1,NA,NA,timeout,4999.928,492040.0999999,492039.872,492039.872,497023.1,497024.0999999,2024-02-17T10:48:24Z,497039.8,NULL,Kontrolle,kudhibiti,s,mbinguni,kufunga,utegemezi,NA,sdf,1,2,NA,NA,NA,NA,NA,NA,NA,NA,NA,NA,NA,NA,NA,NA,NA,NA,NA,NA,NA
fa09c,"""Falsch""-Screen",canvas.Screen,3_0_2_0_2_1_2,NA,NA,skipped,NA,497028,NA,NA,497023.1,497028.20000029,2024-02-17T10:48:24Z,497039.8,NULL,Kontrolle,kudhibiti,s,mbinguni,kufunga,utegemezi,NA,sdf,NA,2,NA,NA,NA,NA,NA,NA,NA,NA,NA,NA,NA,NA,NA,NA,NA,NA,NA,NA,NA
fa09c,shallow,flow.Sequence,3_0_2_0_2_1,NA,NA,completion,41950,455058.0999999,455056.4,455073.1,497023.1,497028.5,2024-02-17T10:48:24Z,497039.8,NULL,Kontrolle,kudhibiti,s,mbinguni,kufunga,utegemezi,NA,sdf,NA,2,NA,NA,NA,NA,NA,NA,NA,NA,NA,NA,NA,NA,NA,NA,NA,NA,NA,NA,NA
fa09c,task,flow.Sequence,3_0_2_0_2,NA,NA,completion,41950,455057.9000001,455056.4,455073.1,497023.1,497028.70000029,2024-02-17T10:48:24Z,497039.8,NULL,Kontrolle,kudhibiti,s,mbinguni,kufunga,utegemezi,NA,sdf,NA,2,NA,NA,NA,NA,NA,NA,NA,NA,NA,NA,NA,NA,NA,NA,NA,NA,NA,NA,NA
fa09c,deep,flow.Sequence,3_0_2_0_3_0,NA,NA,skipped,NA,497028.80000019,NA,NA,497023.1,497028.9000001,2024-02-17T10:48:24Z,497039.8,NULL,Widerstand,usulubu,s,kusababisha,mwalimu,mwenendo,NA,sdf,NA,2,NA,NA,NA,NA,NA,NA,NA,NA,NA,NA,NA,NA,NA,NA,NA,NA,NA,NA,NA
fa09c,Shallow Question,html.Page,3_0_2_0_3_1_0,NA,NA,form submission,7552.5000001907,497029,497023.1,497039.8,504592.30000019,504592.5,2024-02-17T10:48:32Z,504606.3,NULL,Widerstand,usulubu,s,kusababisha,mwalimu,mwenendo,usulubu,NA,NA,2,NA,NA,NA,NA,NA,NA,NA,NA,NA,NA,NA,NA,NA,NA,NA,NA,NA,NA,NA
fa09c,"""Richtig""-Screen",canvas.Screen,3_0_2_0_3_1_1,NA,NA,timeout,5000.2,504594.30000019,504589.826,504606.3,509589.7,509590.5,2024-02-17T10:48:37Z,509606.5,NULL,Widerstand,usulubu,s,kusababisha,mwalimu,mwenendo,NA,sdf,1,2,NA,NA,NA,NA,NA,NA,NA,NA,NA,NA,NA,NA,NA,NA,NA,NA,NA,NA,NA
fa09c,"""Falsch""-Screen",canvas.Screen,3_0_2_0_3_1_2,NA,NA,skipped,NA,509594.70000029,NA,NA,509589.7,509595,2024-02-17T10:48:37Z,509606.5,NULL,Widerstand,usulubu,s,kusababisha,mwalimu,mwenendo,NA,sdf,NA,2,NA,NA,NA,NA,NA,NA,NA,NA,NA,NA,NA,NA,NA,NA,NA,NA,NA,NA,NA
fa09c,shallow,flow.Sequence,3_0_2_0_3_1,NA,NA,completion,12549.9,497028.9000001,497023.1,497039.8,509589.7,509595.20000029,2024-02-17T10:48:37Z,509606.5,NULL,Widerstand,usulubu,s,kusababisha,mwalimu,mwenendo,NA,sdf,NA,2,NA,NA,NA,NA,NA,NA,NA,NA,NA,NA,NA,NA,NA,NA,NA,NA,NA,NA,NA
fa09c,task,flow.Sequence,3_0_2_0_3,NA,NA,completion,12549.9,497028.80000019,497023.1,497039.8,509589.7,509595.30000019,2024-02-17T10:48:37Z,509606.5,NULL,Widerstand,usulubu,s,kusababisha,mwalimu,mwenendo,NA,sdf,NA,2,NA,NA,NA,NA,NA,NA,NA,NA,NA,NA,NA,NA,NA,NA,NA,NA,NA,NA,NA
fa09c,Deep Question,html.Page,3_0_2_0_4_0_0,NA,NA,form submission,9137.8000001907,509595.5999999,509589.7,509606.5,518744.30000019,518744.5,2024-02-17T10:48:46Z,518756.3,NULL,Ausschluss,kutengwa,d,NA,NA,NA,ketwenda,NA,NA,2,NA,NA,NA,NA,NA,NA,NA,NA,NA,NA,NA,NA,NA,NA,NA,NA,NA,NA,NA
fa09c,"""Richtig""-Screen",canvas.Screen,3_0_2_0_4_0_1,NA,NA,skipped,NA,518746.20000029,NA,NA,518744.30000019,518746.4000001,2024-02-17T10:48:46Z,518756.3,NULL,Ausschluss,kutengwa,d,NA,NA,NA,NA,sdf,NA,2,NA,NA,NA,NA,NA,NA,NA,NA,NA,NA,NA,NA,NA,NA,NA,NA,NA,NA,NA
fa09c,"""Falsch""-Screen",canvas.Screen,3_0_2_0_4_0_2,NA,NA,timeout,5000.2,518746.9000001,518739.798,518756.3,523739.8,523740.5,2024-02-17T10:48:51Z,523756.5,NULL,Ausschluss,kutengwa,d,NA,NA,NA,NA,sdf,0,2,NA,NA,NA,NA,NA,NA,NA,NA,NA,NA,NA,NA,NA,NA,NA,NA,NA,NA,NA
fa09c,deep,flow.Sequence,3_0_2_0_4_0,NA,NA,completion,14133.3,509595.5,509589.7,509606.5,523739.8,523740.80000019,2024-02-17T10:48:51Z,523756.5,NULL,Ausschluss,kutengwa,d,NA,NA,NA,NA,sdf,NA,2,NA,NA,NA,NA,NA,NA,NA,NA,NA,NA,NA,NA,NA,NA,NA,NA,NA,NA,NA
fa09c,shallow,flow.Sequence,3_0_2_0_4_1,NA,NA,skipped,NA,523740.9000001,NA,NA,523739.8,523741,2024-02-17T10:48:51Z,523756.5,NULL,Ausschluss,kutengwa,d,NA,NA,NA,NA,sdf,NA,2,NA,NA,NA,NA,NA,NA,NA,NA,NA,NA,NA,NA,NA,NA,NA,NA,NA,NA,NA
fa09c,task,flow.Sequence,3_0_2_0_4,NA,NA,completion,14133.3,509595.5,509589.7,509606.5,523739.8,523741.20000029,2024-02-17T10:48:51Z,523756.5,NULL,Ausschluss,kutengwa,d,NA,NA,NA,NA,sdf,NA,2,NA,NA,NA,NA,NA,NA,NA,NA,NA,NA,NA,NA,NA,NA,NA,NA,NA,NA,NA
fa09c,Deep Question,html.Page,3_0_2_0_5_0_0,NA,NA,form submission,5571.7000002861,523741.4000001,523739.8,523756.5,529328.20000029,529328.4000001,2024-02-17T10:48:57Z,529339.7,NULL,Kreativität,ubunifu,d,NA,NA,NA,Kreativiät,NA,NA,2,NA,NA,NA,NA,NA,NA,NA,NA,NA,NA,NA,NA,NA,NA,NA,NA,NA,NA,NA
fa09c,"""Richtig""-Screen",canvas.Screen,3_0_2_0_5_0_1,NA,NA,skipped,NA,529330.0999999,NA,NA,529328.20000029,529330.30000019,2024-02-17T10:48:57Z,529339.7,NULL,Kreativität,ubunifu,d,NA,NA,NA,NA,sdf,NA,2,NA,NA,NA,NA,NA,NA,NA,NA,NA,NA,NA,NA,NA,NA,NA,NA,NA,NA,NA
fa09c,"""Falsch""-Screen",canvas.Screen,3_0_2_0_5_0_2,NA,NA,timeout,5000.1000000001,529330.80000019,529323.098,529339.7,534323.1,534323.80000019,2024-02-17T10:49:02Z,534339.8,NULL,Kreativität,ubunifu,d,NA,NA,NA,NA,sdf,0,2,NA,NA,NA,NA,NA,NA,NA,NA,NA,NA,NA,NA,NA,NA,NA,NA,NA,NA,NA
fa09c,deep,flow.Sequence,3_0_2_0_5_0,NA,NA,completion,10566.6,523741.4000001,523739.8,523756.5,534323.1,534324.0999999,2024-02-17T10:49:02Z,534339.8,NULL,Kreativität,ubunifu,d,NA,NA,NA,NA,sdf,NA,2,NA,NA,NA,NA,NA,NA,NA,NA,NA,NA,NA,NA,NA,NA,NA,NA,NA,NA,NA
fa09c,shallow,flow.Sequence,3_0_2_0_5_1,NA,NA,skipped,NA,534324.30000019,NA,NA,534323.1,534324.4000001,2024-02-17T10:49:02Z,534339.8,NULL,Kreativität,ubunifu,d,NA,NA,NA,NA,sdf,NA,2,NA,NA,NA,NA,NA,NA,NA,NA,NA,NA,NA,NA,NA,NA,NA,NA,NA,NA,NA
fa09c,task,flow.Sequence,3_0_2_0_5,NA,NA,completion,10566.6,523741.30000019,523739.8,523756.5,534323.1,534324.5,2024-02-17T10:49:02Z,534339.8,NULL,Kreativität,ubunifu,d,NA,NA,NA,NA,sdf,NA,2,NA,NA,NA,NA,NA,NA,NA,NA,NA,NA,NA,NA,NA,NA,NA,NA,NA,NA,NA
fa09c,Deep Question,html.Page,3_0_2_0_6_0_0,NA,NA,form submission,5089.2999999046,534324.70000029,534323.1,534339.8,539429.0999999,539429.30000019,2024-02-17T10:49:07Z,539439.6,NULL,Gelegenheit,wakati,d,NA,NA,NA,Gelgenheit,NA,NA,2,NA,NA,NA,NA,NA,NA,NA,NA,NA,NA,NA,NA,NA,NA,NA,NA,NA,NA,NA
fa09c,"""Richtig""-Screen",canvas.Screen,3_0_2_0_6_0_1,NA,NA,skipped,NA,539431,NA,NA,539429.0999999,539431.20000029,2024-02-17T10:49:07Z,539439.6,NULL,Gelegenheit,wakati,d,NA,NA,NA,NA,sdf,NA,2,NA,NA,NA,NA,NA,NA,NA,NA,NA,NA,NA,NA,NA,NA,NA,NA,NA,NA,NA
fa09c,"""Falsch""-Screen",canvas.Screen,3_0_2_0_6_0_2,NA,NA,timeout,5000.2000000001,539431.80000019,539423.158,539439.6,544423.1,544423.80000019,2024-02-17T10:49:12Z,544439.8,NULL,Gelegenheit,wakati,d,NA,NA,NA,NA,sdf,0,2,NA,NA,NA,NA,NA,NA,NA,NA,NA,NA,NA,NA,NA,NA,NA,NA,NA,NA,NA
fa09c,deep,flow.Sequence,3_0_2_0_6_0,NA,NA,completion,10083.3,534324.70000029,534323.1,534339.8,544423.1,544424.20000029,2024-02-17T10:49:12Z,544439.8,NULL,Gelegenheit,wakati,d,NA,NA,NA,NA,sdf,NA,2,NA,NA,NA,NA,NA,NA,NA,NA,NA,NA,NA,NA,NA,NA,NA,NA,NA,NA,NA
fa09c,shallow,flow.Sequence,3_0_2_0_6_1,NA,NA,skipped,NA,544424.20000029,NA,NA,544423.1,544424.4000001,2024-02-17T10:49:12Z,544439.8,NULL,Gelegenheit,wakati,d,NA,NA,NA,NA,sdf,NA,2,NA,NA,NA,NA,NA,NA,NA,NA,NA,NA,NA,NA,NA,NA,NA,NA,NA,NA,NA
fa09c,task,flow.Sequence,3_0_2_0_6,NA,NA,completion,10083.3,534324.70000029,534323.1,534339.8,544423.1,544424.5,2024-02-17T10:49:12Z,544439.8,NULL,Gelegenheit,wakati,d,NA,NA,NA,NA,sdf,NA,2,NA,NA,NA,NA,NA,NA,NA,NA,NA,NA,NA,NA,NA,NA,NA,NA,NA,NA,NA
fa09c,deep,flow.Sequence,3_0_2_0_7_0,NA,NA,skipped,NA,544424.70000029,NA,NA,544423.1,544424.70000029,2024-02-17T10:49:12Z,544439.8,NULL,Gefährdung,kuhatarisha,s,uchokozi,udhaifu,makorowezo,NA,sdf,NA,2,NA,NA,NA,NA,NA,NA,NA,NA,NA,NA,NA,NA,NA,NA,NA,NA,NA,NA,NA
fa09c,Shallow Question,html.Page,3_0_2_0_7_1_0,NA,NA,form submission,6672.4000002861,544424.9000001,544423.1,544439.8,551112.20000029,551112.4000001,2024-02-17T10:49:18Z,551123,NULL,Gefährdung,kuhatarisha,s,uchokozi,udhaifu,makorowezo,kuhatarisha,NA,NA,2,NA,NA,NA,NA,NA,NA,NA,NA,NA,NA,NA,NA,NA,NA,NA,NA,NA,NA,NA
fa09c,"""Richtig""-Screen",canvas.Screen,3_0_2_0_7_1_1,NA,NA,timeout,5000.1,551114.0999999,551106.5,551123,556106.3,556107.30000019,2024-02-17T10:49:23Z,556123.1,NULL,Gefährdung,kuhatarisha,s,uchokozi,udhaifu,makorowezo,NA,sdf,1,2,NA,NA,NA,NA,NA,NA,NA,NA,NA,NA,NA,NA,NA,NA,NA,NA,NA,NA,NA
fa09c,"""Falsch""-Screen",canvas.Screen,3_0_2_0_7_1_2,NA,NA,skipped,NA,556111.30000019,NA,NA,556106.3,556111.5999999,2024-02-17T10:49:23Z,556123.1,NULL,Gefährdung,kuhatarisha,s,uchokozi,udhaifu,makorowezo,NA,sdf,NA,2,NA,NA,NA,NA,NA,NA,NA,NA,NA,NA,NA,NA,NA,NA,NA,NA,NA,NA,NA
fa09c,shallow,flow.Sequence,3_0_2_0_7_1,NA,NA,completion,11666.5,544424.80000019,544423.1,544439.8,556106.3,556111.80000019,2024-02-17T10:49:23Z,556123.1,NULL,Gefährdung,kuhatarisha,s,uchokozi,udhaifu,makorowezo,NA,sdf,NA,2,NA,NA,NA,NA,NA,NA,NA,NA,NA,NA,NA,NA,NA,NA,NA,NA,NA,NA,NA
fa09c,task,flow.Sequence,3_0_2_0_7,NA,NA,completion,11666.5,544424.5999999,544423.1,544439.8,556106.3,556112.0999999,2024-02-17T10:49:23Z,556123.1,NULL,Gefährdung,kuhatarisha,s,uchokozi,udhaifu,makorowezo,NA,sdf,NA,2,NA,NA,NA,NA,NA,NA,NA,NA,NA,NA,NA,NA,NA,NA,NA,NA,NA,NA,NA
fa09c,block,flow.Loop,3_0_2_0,NA,NA,completion,122666.5,433434.5999999,433423.198,433439.8,556106.3,556112.20000029,2024-02-17T10:49:23Z,556123.1,NULL,NA,NA,NA,NA,NA,NA,NA,sdf,NA,2,NA,NA,NA,NA,NA,NA,NA,NA,NA,NA,NA,NA,NA,NA,NA,NA,NA,NA,NA
fa09c,weiter,canvas.Screen,3_0_2_1,sdf,keypress(Space),response,888.20000019076,556112.30000019,556106.3,556123.1,557011.30000019,557012.20000029,2024-02-17T10:49:24Z,557056.4,NULL,NA,NA,NA,NA,NA,NA,NA,sdf,NA,2,NA,NA,NA,NA,NA,NA,NA,NA,NA,NA,NA,NA,NA,NA,NA,NA,NA,NA,NA
fa09c,check continue,flow.Sequence,3_0_2,NA,NA,completion,123571.50000019,433434.5999999,433423.198,433439.8,557011.30000019,557012.4000001,2024-02-17T10:49:24Z,557056.4,NULL,NA,NA,NA,NA,NA,NA,NA,sdf,NA,2,NA,NA,NA,NA,NA,NA,NA,NA,NA,NA,NA,NA,NA,NA,NA,NA,NA,NA,NA
fa09c,deep,flow.Sequence,3_0_3_0_0_0,NA,NA,skipped,NA,557054.0999999,NA,NA,557011.30000019,557054.4000001,2024-02-17T10:49:24Z,557056.4,NULL,Verstand,ufahamivu,s,shakawa,hadhari,mhandisi,NA,qt,NA,3,NA,NA,NA,NA,NA,NA,NA,NA,NA,NA,NA,NA,NA,NA,NA,NA,NA,NA,NA
fa09c,Shallow Question,html.Page,3_0_3_0_0_1_0,NA,NA,form submission,8355.8000002861,557054.5,557039.784,557056.4,565412.20000029,565412.4000001,2024-02-17T10:49:33Z,565422.9,NULL,Verstand,ufahamivu,s,shakawa,hadhari,mhandisi,shakawa,NA,NA,3,NA,NA,NA,NA,NA,NA,NA,NA,NA,NA,NA,NA,NA,NA,NA,NA,NA,NA,NA
fa09c,"""Richtig""-Screen",canvas.Screen,3_0_3_0_0_1_1,NA,NA,skipped,NA,565414.0999999,NA,NA,565412.20000029,565414.30000019,2024-02-17T10:49:33Z,565422.9,NULL,Verstand,ufahamivu,s,shakawa,hadhari,mhandisi,NA,qt,NA,3,NA,NA,NA,NA,NA,NA,NA,NA,NA,NA,NA,NA,NA,NA,NA,NA,NA,NA,NA
fa09c,"""Falsch""-Screen",canvas.Screen,3_0_3_0_0_1_2,NA,NA,timeout,5000.2,565414.80000019,565406.486,565422.9,570406.4,570407.0999999,2024-02-17T10:49:38Z,570423.1,NULL,Verstand,ufahamivu,s,shakawa,hadhari,mhandisi,NA,qt,0,3,NA,NA,NA,NA,NA,NA,NA,NA,NA,NA,NA,NA,NA,NA,NA,NA,NA,NA,NA
fa09c,shallow,flow.Sequence,3_0_3_0_0_1,NA,NA,completion,13350,557054.5,557039.784,557056.4,570406.4,570407.30000019,2024-02-17T10:49:38Z,570423.1,NULL,Verstand,ufahamivu,s,shakawa,hadhari,mhandisi,NA,qt,NA,3,NA,NA,NA,NA,NA,NA,NA,NA,NA,NA,NA,NA,NA,NA,NA,NA,NA,NA,NA
fa09c,task,flow.Sequence,3_0_3_0_0,NA,NA,completion,13350,557054.0999999,557039.784,557056.4,570406.4,570407.5,2024-02-17T10:49:38Z,570423.1,NULL,Verstand,ufahamivu,s,shakawa,hadhari,mhandisi,NA,qt,NA,3,NA,NA,NA,NA,NA,NA,NA,NA,NA,NA,NA,NA,NA,NA,NA,NA,NA,NA,NA
fa09c,Deep Question,html.Page,3_0_3_0_1_0_0,NA,NA,form submission,12966.999999905,570407.70000029,570406.4,570423.1,583390.0999999,583390.4000001,2024-02-17T10:49:51Z,583406.4,NULL,Können,unaweza,d,NA,NA,NA,können,NA,NA,3,NA,NA,NA,NA,NA,NA,NA,NA,NA,NA,NA,NA,NA,NA,NA,NA,NA,NA,NA
fa09c,"""Richtig""-Screen",canvas.Screen,3_0_3_0_1_0_1,NA,NA,skipped,NA,583392.0999999,NA,NA,583390.0999999,583392.30000019,2024-02-17T10:49:51Z,583406.4,NULL,Können,unaweza,d,NA,NA,NA,NA,qt,NA,3,NA,NA,NA,NA,NA,NA,NA,NA,NA,NA,NA,NA,NA,NA,NA,NA,NA,NA,NA
fa09c,"""Falsch""-Screen",canvas.Screen,3_0_3_0_1_0_2,NA,NA,timeout,5000,583392.80000019,583393.262,583406.4,588389.8,588390.5,2024-02-17T10:49:56Z,588406.4,NULL,Können,unaweza,d,NA,NA,NA,NA,qt,0,3,NA,NA,NA,NA,NA,NA,NA,NA,NA,NA,NA,NA,NA,NA,NA,NA,NA,NA,NA
fa09c,deep,flow.Sequence,3_0_3_0_1_0,NA,NA,completion,17966.7,570407.5999999,570406.4,570423.1,588389.8,588390.80000019,2024-02-17T10:49:56Z,588406.4,NULL,Können,unaweza,d,NA,NA,NA,NA,qt,NA,3,NA,NA,NA,NA,NA,NA,NA,NA,NA,NA,NA,NA,NA,NA,NA,NA,NA,NA,NA
fa09c,shallow,flow.Sequence,3_0_3_0_1_1,NA,NA,skipped,NA,588390.9000001,NA,NA,588389.8,588390.9000001,2024-02-17T10:49:56Z,588406.4,NULL,Können,unaweza,d,NA,NA,NA,NA,qt,NA,3,NA,NA,NA,NA,NA,NA,NA,NA,NA,NA,NA,NA,NA,NA,NA,NA,NA,NA,NA
fa09c,task,flow.Sequence,3_0_3_0_1,NA,NA,completion,17966.7,570407.5999999,570406.4,570423.1,588389.8,588391.0999999,2024-02-17T10:49:56Z,588406.4,NULL,Können,unaweza,d,NA,NA,NA,NA,qt,NA,3,NA,NA,NA,NA,NA,NA,NA,NA,NA,NA,NA,NA,NA,NA,NA,NA,NA,NA,NA
fa09c,Deep Question,html.Page,3_0_3_0_2_0_0,NA,NA,form submission,5354.6999999046,588391.20000029,588389.8,588406.4,593761.0999999,593761.4000001,2024-02-17T10:50:01Z,593773,NULL,Kreativität,ubunifu,d,NA,NA,NA,Kreativität,NA,NA,3,NA,NA,NA,NA,NA,NA,NA,NA,NA,NA,NA,NA,NA,NA,NA,NA,NA,NA,NA
fa09c,"""Richtig""-Screen",canvas.Screen,3_0_3_0_2_0_1,NA,NA,skipped,NA,593763.0999999,NA,NA,593761.0999999,593763.30000019,2024-02-17T10:50:01Z,593773,NULL,Kreativität,ubunifu,d,NA,NA,NA,NA,qt,NA,3,NA,NA,NA,NA,NA,NA,NA,NA,NA,NA,NA,NA,NA,NA,NA,NA,NA,NA,NA
fa09c,"""Falsch""-Screen",canvas.Screen,3_0_3_0_2_0_2,NA,NA,timeout,5000.1,593763.70000029,593756.4,593773,598756.4,598757.20000029,2024-02-17T10:50:06Z,598773.1,NULL,Kreativität,ubunifu,d,NA,NA,NA,NA,qt,0,3,NA,NA,NA,NA,NA,NA,NA,NA,NA,NA,NA,NA,NA,NA,NA,NA,NA,NA,NA
fa09c,deep,flow.Sequence,3_0_3_0_2_0,NA,NA,completion,10350,588391.20000029,588389.8,588406.4,598756.4,598757.5999999,2024-02-17T10:50:06Z,598773.1,NULL,Kreativität,ubunifu,d,NA,NA,NA,NA,qt,NA,3,NA,NA,NA,NA,NA,NA,NA,NA,NA,NA,NA,NA,NA,NA,NA,NA,NA,NA,NA
fa09c,shallow,flow.Sequence,3_0_3_0_2_1,NA,NA,skipped,NA,598757.70000029,NA,NA,598756.4,598757.80000019,2024-02-17T10:50:06Z,598773.1,NULL,Kreativität,ubunifu,d,NA,NA,NA,NA,qt,NA,3,NA,NA,NA,NA,NA,NA,NA,NA,NA,NA,NA,NA,NA,NA,NA,NA,NA,NA,NA
fa09c,task,flow.Sequence,3_0_3_0_2,NA,NA,completion,10350,588391.0999999,588389.8,588406.4,598756.4,598757.9000001,2024-02-17T10:50:06Z,598773.1,NULL,Kreativität,ubunifu,d,NA,NA,NA,NA,qt,NA,3,NA,NA,NA,NA,NA,NA,NA,NA,NA,NA,NA,NA,NA,NA,NA,NA,NA,NA,NA
fa09c,deep,flow.Sequence,3_0_3_0_3_0,NA,NA,skipped,NA,598758,NA,NA,598756.4,598758.0999999,2024-02-17T10:50:06Z,598773.1,NULL,Widerstand,usulubu,s,kusababisha,mwalimu,mwenendo,NA,qt,NA,3,NA,NA,NA,NA,NA,NA,NA,NA,NA,NA,NA,NA,NA,NA,NA,NA,NA,NA,NA
fa09c,Shallow Question,html.Page,3_0_3_0_3_1_0,NA,NA,form submission,4641.1000002861,598758.20000029,598756.4,598773.1,603414.20000029,603414.4000001,2024-02-17T10:50:11Z,603423.1,NULL,Widerstand,usulubu,s,kusababisha,mwalimu,mwenendo,kusababisha,NA,NA,3,NA,NA,NA,NA,NA,NA,NA,NA,NA,NA,NA,NA,NA,NA,NA,NA,NA,NA,NA
fa09c,"""Richtig""-Screen",canvas.Screen,3_0_3_0_3_1_1,NA,NA,skipped,NA,603416.20000029,NA,NA,603414.20000029,603416.30000019,2024-02-17T10:50:11Z,603423.1,NULL,Widerstand,usulubu,s,kusababisha,mwalimu,mwenendo,NA,qt,NA,3,NA,NA,NA,NA,NA,NA,NA,NA,NA,NA,NA,NA,NA,NA,NA,NA,NA,NA,NA
fa09c,"""Falsch""-Screen",canvas.Screen,3_0_3_0_3_1_2,NA,NA,timeout,4999.9,603416.9000001,603406.446,603423.1,608406.3,608407.0999999,2024-02-17T10:50:16Z,608423,NULL,Widerstand,usulubu,s,kusababisha,mwalimu,mwenendo,NA,qt,0,3,NA,NA,NA,NA,NA,NA,NA,NA,NA,NA,NA,NA,NA,NA,NA,NA,NA,NA,NA
fa09c,shallow,flow.Sequence,3_0_3_0_3_1,NA,NA,completion,9633.2000000001,598758.20000029,598756.4,598773.1,608406.3,608407.4000001,2024-02-17T10:50:16Z,608423,NULL,Widerstand,usulubu,s,kusababisha,mwalimu,mwenendo,NA,qt,NA,3,NA,NA,NA,NA,NA,NA,NA,NA,NA,NA,NA,NA,NA,NA,NA,NA,NA,NA,NA
fa09c,task,flow.Sequence,3_0_3_0_3,NA,NA,completion,9633.2000000001,598758,598756.4,598773.1,608406.3,608407.5999999,2024-02-17T10:50:16Z,608423,NULL,Widerstand,usulubu,s,kusababisha,mwalimu,mwenendo,NA,qt,NA,3,NA,NA,NA,NA,NA,NA,NA,NA,NA,NA,NA,NA,NA,NA,NA,NA,NA,NA,NA
fa09c,deep,flow.Sequence,3_0_3_0_4_0,NA,NA,skipped,NA,608407.70000029,NA,NA,608406.3,608407.80000019,2024-02-17T10:50:16Z,608423,NULL,Gefährdung,kuhatarisha,s,uchokozi,udhaifu,makorowezo,NA,qt,NA,3,NA,NA,NA,NA,NA,NA,NA,NA,NA,NA,NA,NA,NA,NA,NA,NA,NA,NA,NA
fa09c,Shallow Question,html.Page,3_0_3_0_4_1_0,NA,NA,form submission,4910.0999999046,608407.9000001,608406.3,608423,613333.0999999,613333.4000001,2024-02-17T10:50:21Z,613339.6,NULL,Gefährdung,kuhatarisha,s,uchokozi,udhaifu,makorowezo,kuhatarisha,NA,NA,3,NA,NA,NA,NA,NA,NA,NA,NA,NA,NA,NA,NA,NA,NA,NA,NA,NA,NA,NA
fa09c,"""Richtig""-Screen",canvas.Screen,3_0_3_0_4_1_1,NA,NA,timeout,5000.2000000001,613334.9000001,613326.7,613339.6,618322.9,618323.70000029,2024-02-17T10:50:26Z,618339.8,NULL,Gefährdung,kuhatarisha,s,uchokozi,udhaifu,makorowezo,NA,qt,1,3,NA,NA,NA,NA,NA,NA,NA,NA,NA,NA,NA,NA,NA,NA,NA,NA,NA,NA,NA
fa09c,"""Falsch""-Screen",canvas.Screen,3_0_3_0_4_1_2,NA,NA,skipped,NA,618327.70000029,NA,NA,618322.9,618328,2024-02-17T10:50:26Z,618339.8,NULL,Gefährdung,kuhatarisha,s,uchokozi,udhaifu,makorowezo,NA,qt,NA,3,NA,NA,NA,NA,NA,NA,NA,NA,NA,NA,NA,NA,NA,NA,NA,NA,NA,NA,NA
fa09c,shallow,flow.Sequence,3_0_3_0_4_1,NA,NA,completion,9899.9,608407.9000001,608406.3,608423,618322.9,618328.20000029,2024-02-17T10:50:26Z,618339.8,NULL,Gefährdung,kuhatarisha,s,uchokozi,udhaifu,makorowezo,NA,qt,NA,3,NA,NA,NA,NA,NA,NA,NA,NA,NA,NA,NA,NA,NA,NA,NA,NA,NA,NA,NA
fa09c,task,flow.Sequence,3_0_3_0_4,NA,NA,completion,9899.9,608407.70000029,608406.3,608423,618322.9,618328.30000019,2024-02-17T10:50:26Z,618339.8,NULL,Gefährdung,kuhatarisha,s,uchokozi,udhaifu,makorowezo,NA,qt,NA,3,NA,NA,NA,NA,NA,NA,NA,NA,NA,NA,NA,NA,NA,NA,NA,NA,NA,NA,NA
fa09c,Deep Question,html.Page,3_0_3_0_5_0_0,NA,NA,form submission,8167.4000002861,618328.5,618322.9,618339.8,626507.20000029,626507.4000001,2024-02-17T10:50:34Z,626523.1,NULL,Gelegenheit,wakati,d,NA,NA,NA,uwabihu,NA,NA,3,NA,NA,NA,NA,NA,NA,NA,NA,NA,NA,NA,NA,NA,NA,NA,NA,NA,NA,NA
fa09c,"""Richtig""-Screen",canvas.Screen,3_0_3_0_5_0_1,NA,NA,skipped,NA,626509.0999999,NA,NA,626507.20000029,626509.30000019,2024-02-17T10:50:34Z,626523.1,NULL,Gelegenheit,wakati,d,NA,NA,NA,NA,qt,NA,3,NA,NA,NA,NA,NA,NA,NA,NA,NA,NA,NA,NA,NA,NA,NA,NA,NA,NA,NA
fa09c,"""Falsch""-Screen",canvas.Screen,3_0_3_0_5_0_2,NA,NA,timeout,5000,626509.9000001,626502.1,626523.1,631506.4,631507.4000001,2024-02-17T10:50:39Z,631523.1,NULL,Gelegenheit,wakati,d,NA,NA,NA,NA,qt,0,3,NA,NA,NA,NA,NA,NA,NA,NA,NA,NA,NA,NA,NA,NA,NA,NA,NA,NA,NA
fa09c,deep,flow.Sequence,3_0_3_0_5_0,NA,NA,completion,13166.6,618328.5,618322.9,618339.8,631506.4,631507.5999999,2024-02-17T10:50:39Z,631523.1,NULL,Gelegenheit,wakati,d,NA,NA,NA,NA,qt,NA,3,NA,NA,NA,NA,NA,NA,NA,NA,NA,NA,NA,NA,NA,NA,NA,NA,NA,NA,NA
fa09c,shallow,flow.Sequence,3_0_3_0_5_1,NA,NA,skipped,NA,631507.70000029,NA,NA,631506.4,631507.80000019,2024-02-17T10:50:39Z,631523.1,NULL,Gelegenheit,wakati,d,NA,NA,NA,NA,qt,NA,3,NA,NA,NA,NA,NA,NA,NA,NA,NA,NA,NA,NA,NA,NA,NA,NA,NA,NA,NA
fa09c,task,flow.Sequence,3_0_3_0_5,NA,NA,completion,13166.6,618328.4000001,618322.9,618339.8,631506.4,631507.9000001,2024-02-17T10:50:39Z,631523.1,NULL,Gelegenheit,wakati,d,NA,NA,NA,NA,qt,NA,3,NA,NA,NA,NA,NA,NA,NA,NA,NA,NA,NA,NA,NA,NA,NA,NA,NA,NA,NA
fa09c,deep,flow.Sequence,3_0_3_0_6_0,NA,NA,skipped,NA,631508.0999999,NA,NA,631506.4,631508.20000029,2024-02-17T10:50:39Z,631523.1,NULL,Kontrolle,kudhibiti,s,mbinguni,kufunga,utegemezi,NA,qt,NA,3,NA,NA,NA,NA,NA,NA,NA,NA,NA,NA,NA,NA,NA,NA,NA,NA,NA,NA,NA
fa09c,Shallow Question,html.Page,3_0_3_0_6_1_0,NA,NA,form submission,6984.3000000954,631508.30000019,631506.4,631523.1,638507.4000001,638507.70000029,2024-02-17T10:50:46Z,638523,NULL,Kontrolle,kudhibiti,s,mbinguni,kufunga,utegemezi,kudhibiti,NA,NA,3,NA,NA,NA,NA,NA,NA,NA,NA,NA,NA,NA,NA,NA,NA,NA,NA,NA,NA,NA
fa09c,"""Richtig""-Screen",canvas.Screen,3_0_3_0_6_1_1,NA,NA,timeout,5000,638509.5,638507.628,638523,643506.3,643507.20000029,2024-02-17T10:50:51Z,643523,NULL,Kontrolle,kudhibiti,s,mbinguni,kufunga,utegemezi,NA,qt,1,3,NA,NA,NA,NA,NA,NA,NA,NA,NA,NA,NA,NA,NA,NA,NA,NA,NA,NA,NA
fa09c,"""Falsch""-Screen",canvas.Screen,3_0_3_0_6_1_2,NA,NA,skipped,NA,643511.4000001,NA,NA,643506.3,643511.5999999,2024-02-17T10:50:51Z,643523,NULL,Kontrolle,kudhibiti,s,mbinguni,kufunga,utegemezi,NA,qt,NA,3,NA,NA,NA,NA,NA,NA,NA,NA,NA,NA,NA,NA,NA,NA,NA,NA,NA,NA,NA
fa09c,shallow,flow.Sequence,3_0_3_0_6_1,NA,NA,completion,11983.2,631508.30000019,631506.4,631523.1,643506.3,643511.80000019,2024-02-17T10:50:51Z,643523,NULL,Kontrolle,kudhibiti,s,mbinguni,kufunga,utegemezi,NA,qt,NA,3,NA,NA,NA,NA,NA,NA,NA,NA,NA,NA,NA,NA,NA,NA,NA,NA,NA,NA,NA
fa09c,task,flow.Sequence,3_0_3_0_6,NA,NA,completion,11983.2,631508.0999999,631506.4,631523.1,643506.3,643512,2024-02-17T10:50:51Z,643523,NULL,Kontrolle,kudhibiti,s,mbinguni,kufunga,utegemezi,NA,qt,NA,3,NA,NA,NA,NA,NA,NA,NA,NA,NA,NA,NA,NA,NA,NA,NA,NA,NA,NA,NA
fa09c,Deep Question,html.Page,3_0_3_0_7_0_0,NA,NA,form submission,4703,643512.20000029,643506.3,643523,648226,648226.20000029,2024-02-17T10:50:55Z,648239.6,NULL,Ausschluss,kutengwa,d,NA,NA,NA,uwaha,NA,NA,3,NA,NA,NA,NA,NA,NA,NA,NA,NA,NA,NA,NA,NA,NA,NA,NA,NA,NA,NA
fa09c,"""Richtig""-Screen",canvas.Screen,3_0_3_0_7_0_1,NA,NA,skipped,NA,648227.80000019,NA,NA,648226,648228,2024-02-17T10:50:55Z,648239.6,NULL,Ausschluss,kutengwa,d,NA,NA,NA,NA,qt,NA,3,NA,NA,NA,NA,NA,NA,NA,NA,NA,NA,NA,NA,NA,NA,NA,NA,NA,NA,NA
fa09c,"""Falsch""-Screen",canvas.Screen,3_0_3_0_7_0_2,NA,NA,timeout,5000.1,648228.5,648223.166,648239.6,653223,653223.80000019,2024-02-17T10:51:00Z,653239.7,NULL,Ausschluss,kutengwa,d,NA,NA,NA,NA,qt,0,3,NA,NA,NA,NA,NA,NA,NA,NA,NA,NA,NA,NA,NA,NA,NA,NA,NA,NA,NA
fa09c,deep,flow.Sequence,3_0_3_0_7_0,NA,NA,completion,9700,643512.20000029,643506.3,643523,653223,653224,2024-02-17T10:51:00Z,653239.7,NULL,Ausschluss,kutengwa,d,NA,NA,NA,NA,qt,NA,3,NA,NA,NA,NA,NA,NA,NA,NA,NA,NA,NA,NA,NA,NA,NA,NA,NA,NA,NA
fa09c,shallow,flow.Sequence,3_0_3_0_7_1,NA,NA,skipped,NA,653224.0999999,NA,NA,653223,653224.20000029,2024-02-17T10:51:00Z,653239.7,NULL,Ausschluss,kutengwa,d,NA,NA,NA,NA,qt,NA,3,NA,NA,NA,NA,NA,NA,NA,NA,NA,NA,NA,NA,NA,NA,NA,NA,NA,NA,NA
fa09c,task,flow.Sequence,3_0_3_0_7,NA,NA,completion,9700,643512.0999999,643506.3,643523,653223,653224.4000001,2024-02-17T10:51:00Z,653239.7,NULL,Ausschluss,kutengwa,d,NA,NA,NA,NA,qt,NA,3,NA,NA,NA,NA,NA,NA,NA,NA,NA,NA,NA,NA,NA,NA,NA,NA,NA,NA,NA
fa09c,block,flow.Loop,3_0_3_0,NA,NA,completion,96166.6,557054,557039.784,557056.4,653223,653224.5,2024-02-17T10:51:00Z,653239.7,NULL,NA,NA,NA,NA,NA,NA,NA,qt,NA,3,NA,NA,NA,NA,NA,NA,NA,NA,NA,NA,NA,NA,NA,NA,NA,NA,NA,NA,NA
fa09c,weiter,canvas.Screen,3_0_3_1,sdf,keypress(Space),response,723.60000019078,653224.5999999,653223,653239.7,653963.30000019,653964.20000029,2024-02-17T10:51:01Z,654023.4,NULL,NA,NA,NA,NA,NA,NA,NA,qt,NA,3,NA,NA,NA,NA,NA,NA,NA,NA,NA,NA,NA,NA,NA,NA,NA,NA,NA,NA,NA
fa09c,check continue,flow.Sequence,3_0_3,NA,NA,completion,96906.900000191,557054,557039.784,557056.4,653963.30000019,653964.4000001,2024-02-17T10:51:01Z,654023.4,NULL,NA,NA,NA,NA,NA,NA,NA,qt,NA,3,NA,NA,NA,NA,NA,NA,NA,NA,NA,NA,NA,NA,NA,NA,NA,NA,NA,NA,NA
fa09c,deep,flow.Sequence,3_0_4_0_0_0,NA,NA,skipped,NA,654004.9000001,NA,NA,653963.30000019,654005,2024-02-17T10:51:01Z,654023.4,NULL,Gefährdung,kuhatarisha,s,uchokozi,udhaifu,makorowezo,NA,sd,NA,4,NA,NA,NA,NA,NA,NA,NA,NA,NA,NA,NA,NA,NA,NA,NA,NA,NA,NA,NA
fa09c,Shallow Question,html.Page,3_0_4_0_0_1_0,NA,NA,form submission,7541.6999999046,654005,654006.37,654023.4,661565.0999999,661565.30000019,2024-02-17T10:51:09Z,661572.9,NULL,Gefährdung,kuhatarisha,s,uchokozi,udhaifu,makorowezo,kuhatarisha,NA,NA,4,NA,NA,NA,NA,NA,NA,NA,NA,NA,NA,NA,NA,NA,NA,NA,NA,NA,NA,NA
fa09c,"""Richtig""-Screen",canvas.Screen,3_0_4_0_0_1_1,NA,NA,timeout,5000.1,661567,661556.456,661572.9,666556.3,666557.0999999,2024-02-17T10:51:14Z,666573,NULL,Gefährdung,kuhatarisha,s,uchokozi,udhaifu,makorowezo,NA,sd,1,4,NA,NA,NA,NA,NA,NA,NA,NA,NA,NA,NA,NA,NA,NA,NA,NA,NA,NA,NA
fa09c,"""Falsch""-Screen",canvas.Screen,3_0_4_0_0_1_2,NA,NA,skipped,NA,666561,NA,NA,666556.3,666561.30000019,2024-02-17T10:51:14Z,666573,NULL,Gefährdung,kuhatarisha,s,uchokozi,udhaifu,makorowezo,NA,sd,NA,4,NA,NA,NA,NA,NA,NA,NA,NA,NA,NA,NA,NA,NA,NA,NA,NA,NA,NA,NA
fa09c,shallow,flow.Sequence,3_0_4_0_0_1,NA,NA,completion,12532.9,654005,654006.37,654023.4,666556.3,666561.5,2024-02-17T10:51:14Z,666573,NULL,Gefährdung,kuhatarisha,s,uchokozi,udhaifu,makorowezo,NA,sd,NA,4,NA,NA,NA,NA,NA,NA,NA,NA,NA,NA,NA,NA,NA,NA,NA,NA,NA,NA,NA
fa09c,task,flow.Sequence,3_0_4_0_0,NA,NA,completion,12532.9,654004.9000001,654006.37,654023.4,666556.3,666561.5999999,2024-02-17T10:51:14Z,666573,NULL,Gefährdung,kuhatarisha,s,uchokozi,udhaifu,makorowezo,NA,sd,NA,4,NA,NA,NA,NA,NA,NA,NA,NA,NA,NA,NA,NA,NA,NA,NA,NA,NA,NA,NA
fa09c,Deep Question,html.Page,3_0_4_0_1_0_0,NA,NA,form submission,5699.0999999046,666561.80000019,666556.3,666573,672272.0999999,672272.30000019,2024-02-17T10:51:20Z,672273.028,NULL,Kreativität,ubunifu,d,NA,NA,NA,uwafa,NA,NA,4,NA,NA,NA,NA,NA,NA,NA,NA,NA,NA,NA,NA,NA,NA,NA,NA,NA,NA,NA
fa09c,"""Richtig""-Screen",canvas.Screen,3_0_4_0_1_0_1,NA,NA,skipped,NA,672273.9000001,NA,NA,672272.0999999,672274.0999999,2024-02-17T10:51:20Z,672273.028,NULL,Kreativität,ubunifu,d,NA,NA,NA,NA,sd,NA,4,NA,NA,NA,NA,NA,NA,NA,NA,NA,NA,NA,NA,NA,NA,NA,NA,NA,NA,NA
fa09c,"""Falsch""-Screen",canvas.Screen,3_0_4_0_1_0_2,NA,NA,timeout,5000.0719999999,672274.5999999,672273.028,672273.028,677256.2,677257,2024-02-17T10:51:25Z,677273.1,NULL,Kreativität,ubunifu,d,NA,NA,NA,NA,sd,0,4,NA,NA,NA,NA,NA,NA,NA,NA,NA,NA,NA,NA,NA,NA,NA,NA,NA,NA,NA
fa09c,deep,flow.Sequence,3_0_4_0_1_0,NA,NA,completion,10683.2,666561.70000029,666556.3,666573,677256.2,677257.30000019,2024-02-17T10:51:25Z,677273.1,NULL,Kreativität,ubunifu,d,NA,NA,NA,NA,sd,NA,4,NA,NA,NA,NA,NA,NA,NA,NA,NA,NA,NA,NA,NA,NA,NA,NA,NA,NA,NA
fa09c,shallow,flow.Sequence,3_0_4_0_1_1,NA,NA,skipped,NA,677257.4000001,NA,NA,677256.2,677257.5,2024-02-17T10:51:25Z,677273.1,NULL,Kreativität,ubunifu,d,NA,NA,NA,NA,sd,NA,4,NA,NA,NA,NA,NA,NA,NA,NA,NA,NA,NA,NA,NA,NA,NA,NA,NA,NA,NA
fa09c,task,flow.Sequence,3_0_4_0_1,NA,NA,completion,10683.2,666561.70000029,666556.3,666573,677256.2,677257.70000029,2024-02-17T10:51:25Z,677273.1,NULL,Kreativität,ubunifu,d,NA,NA,NA,NA,sd,NA,4,NA,NA,NA,NA,NA,NA,NA,NA,NA,NA,NA,NA,NA,NA,NA,NA,NA,NA,NA
fa09c,Deep Question,html.Page,3_0_4_0_2_0_0,NA,NA,form submission,4823.9999999047,677257.80000019,677256.2,677273.1,682097.0999999,682097.30000019,2024-02-17T10:51:29Z,682106.4,NULL,Gelegenheit,wakati,d,NA,NA,NA,uwaha,NA,NA,4,NA,NA,NA,NA,NA,NA,NA,NA,NA,NA,NA,NA,NA,NA,NA,NA,NA,NA,NA
fa09c,"""Richtig""-Screen",canvas.Screen,3_0_4_0_2_0_1,NA,NA,skipped,NA,682099,NA,NA,682097.0999999,682099.20000029,2024-02-17T10:51:29Z,682106.4,NULL,Gelegenheit,wakati,d,NA,NA,NA,NA,sd,NA,4,NA,NA,NA,NA,NA,NA,NA,NA,NA,NA,NA,NA,NA,NA,NA,NA,NA,NA,NA
fa09c,"""Falsch""-Screen",canvas.Screen,3_0_4_0_2_0_2,NA,NA,timeout,4999.9,682099.5999999,682089.7,682106.4,687089.7,687090.4000001,2024-02-17T10:51:34Z,687106.3,NULL,Gelegenheit,wakati,d,NA,NA,NA,NA,sd,0,4,NA,NA,NA,NA,NA,NA,NA,NA,NA,NA,NA,NA,NA,NA,NA,NA,NA,NA,NA
fa09c,deep,flow.Sequence,3_0_4_0_2_0,NA,NA,completion,9816.6,677257.80000019,677256.2,677273.1,687089.7,687090.5999999,2024-02-17T10:51:34Z,687106.3,NULL,Gelegenheit,wakati,d,NA,NA,NA,NA,sd,NA,4,NA,NA,NA,NA,NA,NA,NA,NA,NA,NA,NA,NA,NA,NA,NA,NA,NA,NA,NA
fa09c,shallow,flow.Sequence,3_0_4_0_2_1,NA,NA,skipped,NA,687090.5999999,NA,NA,687089.7,687090.5999999,2024-02-17T10:51:34Z,687106.3,NULL,Gelegenheit,wakati,d,NA,NA,NA,NA,sd,NA,4,NA,NA,NA,NA,NA,NA,NA,NA,NA,NA,NA,NA,NA,NA,NA,NA,NA,NA,NA
fa09c,task,flow.Sequence,3_0_4_0_2,NA,NA,completion,9816.6,677257.70000029,677256.2,677273.1,687089.7,687090.70000029,2024-02-17T10:51:34Z,687106.3,NULL,Gelegenheit,wakati,d,NA,NA,NA,NA,sd,NA,4,NA,NA,NA,NA,NA,NA,NA,NA,NA,NA,NA,NA,NA,NA,NA,NA,NA,NA,NA
fa09c,Deep Question,html.Page,3_0_4_0_3_0_0,NA,NA,form submission,10226.900000286,687090.80000019,687089.7,687106.3,697333.20000029,697333.4000001,2024-02-17T10:51:45Z,697339.5,NULL,Ausschluss,kutengwa,d,NA,NA,NA,uwhabi,NA,NA,4,NA,NA,NA,NA,NA,NA,NA,NA,NA,NA,NA,NA,NA,NA,NA,NA,NA,NA,NA
fa09c,"""Richtig""-Screen",canvas.Screen,3_0_4_0_3_0_1,NA,NA,skipped,NA,697335.0999999,NA,NA,697333.20000029,697335.20000029,2024-02-17T10:51:45Z,697339.5,NULL,Ausschluss,kutengwa,d,NA,NA,NA,NA,sd,NA,4,NA,NA,NA,NA,NA,NA,NA,NA,NA,NA,NA,NA,NA,NA,NA,NA,NA,NA,NA
fa09c,"""Falsch""-Screen",canvas.Screen,3_0_4_0_3_0_2,NA,NA,timeout,5000.1,697335.70000029,697323,697339.5,702323,702323.70000029,2024-02-17T10:51:50Z,702339.6,NULL,Ausschluss,kutengwa,d,NA,NA,NA,NA,sd,0,4,NA,NA,NA,NA,NA,NA,NA,NA,NA,NA,NA,NA,NA,NA,NA,NA,NA,NA,NA
fa09c,deep,flow.Sequence,3_0_4_0_3_0,NA,NA,completion,15216.7,687090.80000019,687089.7,687106.3,702323,702324,2024-02-17T10:51:50Z,702339.6,NULL,Ausschluss,kutengwa,d,NA,NA,NA,NA,sd,NA,4,NA,NA,NA,NA,NA,NA,NA,NA,NA,NA,NA,NA,NA,NA,NA,NA,NA,NA,NA
fa09c,shallow,flow.Sequence,3_0_4_0_3_1,NA,NA,skipped,NA,702324.20000029,NA,NA,702323,702324.20000029,2024-02-17T10:51:50Z,702339.6,NULL,Ausschluss,kutengwa,d,NA,NA,NA,NA,sd,NA,4,NA,NA,NA,NA,NA,NA,NA,NA,NA,NA,NA,NA,NA,NA,NA,NA,NA,NA,NA
fa09c,task,flow.Sequence,3_0_4_0_3,NA,NA,completion,15216.7,687090.80000019,687089.7,687106.3,702323,702324.30000019,2024-02-17T10:51:50Z,702339.6,NULL,Ausschluss,kutengwa,d,NA,NA,NA,NA,sd,NA,4,NA,NA,NA,NA,NA,NA,NA,NA,NA,NA,NA,NA,NA,NA,NA,NA,NA,NA,NA
fa09c,deep,flow.Sequence,3_0_4_0_4_0,NA,NA,skipped,NA,702324.4000001,NA,NA,702323,702324.5,2024-02-17T10:51:50Z,702339.6,NULL,Widerstand,usulubu,s,kusababisha,mwalimu,mwenendo,NA,sd,NA,4,NA,NA,NA,NA,NA,NA,NA,NA,NA,NA,NA,NA,NA,NA,NA,NA,NA,NA,NA
fa09c,Shallow Question,html.Page,3_0_4_0_4_1_0,NA,NA,form submission,4290.1000002861,702324.70000029,702323,702339.6,706629.70000029,706629.9000001,2024-02-17T10:51:54Z,706639.7,NULL,Widerstand,usulubu,s,kusababisha,mwalimu,mwenendo,usulubu,NA,NA,4,NA,NA,NA,NA,NA,NA,NA,NA,NA,NA,NA,NA,NA,NA,NA,NA,NA,NA,NA
fa09c,"""Richtig""-Screen",canvas.Screen,3_0_4_0_4_1_1,NA,NA,timeout,4999.9,706631.5999999,706623.056,706639.7,711623,711623.80000019,2024-02-17T10:51:59Z,711639.6,NULL,Widerstand,usulubu,s,kusababisha,mwalimu,mwenendo,NA,sd,1,4,NA,NA,NA,NA,NA,NA,NA,NA,NA,NA,NA,NA,NA,NA,NA,NA,NA,NA,NA
fa09c,"""Falsch""-Screen",canvas.Screen,3_0_4_0_4_1_2,NA,NA,skipped,NA,711627.70000029,NA,NA,711623,711628,2024-02-17T10:51:59Z,711639.6,NULL,Widerstand,usulubu,s,kusababisha,mwalimu,mwenendo,NA,sd,NA,4,NA,NA,NA,NA,NA,NA,NA,NA,NA,NA,NA,NA,NA,NA,NA,NA,NA,NA,NA
fa09c,shallow,flow.Sequence,3_0_4_0_4_1,NA,NA,completion,9283.4,702324.5999999,702323,702339.6,711623,711628.20000029,2024-02-17T10:51:59Z,711639.6,NULL,Widerstand,usulubu,s,kusababisha,mwalimu,mwenendo,NA,sd,NA,4,NA,NA,NA,NA,NA,NA,NA,NA,NA,NA,NA,NA,NA,NA,NA,NA,NA,NA,NA
fa09c,task,flow.Sequence,3_0_4_0_4,NA,NA,completion,9283.4,702324.4000001,702323,702339.6,711623,711628.30000019,2024-02-17T10:51:59Z,711639.6,NULL,Widerstand,usulubu,s,kusababisha,mwalimu,mwenendo,NA,sd,NA,4,NA,NA,NA,NA,NA,NA,NA,NA,NA,NA,NA,NA,NA,NA,NA,NA,NA,NA,NA
fa09c,deep,flow.Sequence,3_0_4_0_5_0,NA,NA,skipped,NA,711628.4000001,NA,NA,711623,711628.5999999,2024-02-17T10:51:59Z,711639.6,NULL,Kontrolle,kudhibiti,s,mbinguni,kufunga,utegemezi,NA,sd,NA,4,NA,NA,NA,NA,NA,NA,NA,NA,NA,NA,NA,NA,NA,NA,NA,NA,NA,NA,NA
fa09c,Shallow Question,html.Page,3_0_4_0_5_1_0,NA,NA,form submission,4746.3000000954,711628.70000029,711623,711639.6,716385.9000001,716386.0999999,2024-02-17T10:52:04Z,716389.692,NULL,Kontrolle,kudhibiti,s,mbinguni,kufunga,utegemezi,utegemezi,NA,NA,4,NA,NA,NA,NA,NA,NA,NA,NA,NA,NA,NA,NA,NA,NA,NA,NA,NA,NA,NA
fa09c,"""Richtig""-Screen",canvas.Screen,3_0_4_0_5_1_1,NA,NA,skipped,NA,716387.70000029,NA,NA,716385.9000001,716387.9000001,2024-02-17T10:52:04Z,716389.692,NULL,Kontrolle,kudhibiti,s,mbinguni,kufunga,utegemezi,NA,sd,NA,4,NA,NA,NA,NA,NA,NA,NA,NA,NA,NA,NA,NA,NA,NA,NA,NA,NA,NA,NA
fa09c,"""Falsch""-Screen",canvas.Screen,3_0_4_0_5_1_2,NA,NA,timeout,4999.9079999999,716388.5,716389.692,716389.692,721373,721373.80000019,2024-02-17T10:52:09Z,721389.6,NULL,Kontrolle,kudhibiti,s,mbinguni,kufunga,utegemezi,NA,sd,0,4,NA,NA,NA,NA,NA,NA,NA,NA,NA,NA,NA,NA,NA,NA,NA,NA,NA,NA,NA
fa09c,shallow,flow.Sequence,3_0_4_0_5_1,NA,NA,completion,9733.4,711628.5999999,711623,711639.6,721373,721374.0999999,2024-02-17T10:52:09Z,721389.6,NULL,Kontrolle,kudhibiti,s,mbinguni,kufunga,utegemezi,NA,sd,NA,4,NA,NA,NA,NA,NA,NA,NA,NA,NA,NA,NA,NA,NA,NA,NA,NA,NA,NA,NA
fa09c,task,flow.Sequence,3_0_4_0_5,NA,NA,completion,9733.4,711628.4000001,711623,711639.6,721373,721374.30000019,2024-02-17T10:52:09Z,721389.6,NULL,Kontrolle,kudhibiti,s,mbinguni,kufunga,utegemezi,NA,sd,NA,4,NA,NA,NA,NA,NA,NA,NA,NA,NA,NA,NA,NA,NA,NA,NA,NA,NA,NA,NA
fa09c,Deep Question,html.Page,3_0_4_0_6_0_0,NA,NA,form submission,6533.3000000954,721374.5,721373,721389.6,727922.9000001,727923.20000029,2024-02-17T10:52:15Z,727940.9,NULL,Können,unaweza,d,NA,NA,NA,uwenga,NA,NA,4,NA,NA,NA,NA,NA,NA,NA,NA,NA,NA,NA,NA,NA,NA,NA,NA,NA,NA,NA
fa09c,"""Richtig""-Screen",canvas.Screen,3_0_4_0_6_0_1,NA,NA,skipped,NA,727924.9000001,NA,NA,727922.9000001,727925,2024-02-17T10:52:15Z,727940.9,NULL,Können,unaweza,d,NA,NA,NA,NA,sd,NA,4,NA,NA,NA,NA,NA,NA,NA,NA,NA,NA,NA,NA,NA,NA,NA,NA,NA,NA,NA
fa09c,"""Falsch""-Screen",canvas.Screen,3_0_4_0_6_0_2,NA,NA,timeout,4998.7,727925.5999999,727922.984,727940.9,732922.9,732923.9000001,2024-02-17T10:52:20Z,732939.6,NULL,Können,unaweza,d,NA,NA,NA,NA,sd,0,4,NA,NA,NA,NA,NA,NA,NA,NA,NA,NA,NA,NA,NA,NA,NA,NA,NA,NA,NA
fa09c,deep,flow.Sequence,3_0_4_0_6_0,NA,NA,completion,11533.3,721374.5,721373,721389.6,732922.9,732924.20000029,2024-02-17T10:52:20Z,732939.6,NULL,Können,unaweza,d,NA,NA,NA,NA,sd,NA,4,NA,NA,NA,NA,NA,NA,NA,NA,NA,NA,NA,NA,NA,NA,NA,NA,NA,NA,NA
fa09c,shallow,flow.Sequence,3_0_4_0_6_1,NA,NA,skipped,NA,732924.20000029,NA,NA,732922.9,732924.30000019,2024-02-17T10:52:20Z,732939.6,NULL,Können,unaweza,d,NA,NA,NA,NA,sd,NA,4,NA,NA,NA,NA,NA,NA,NA,NA,NA,NA,NA,NA,NA,NA,NA,NA,NA,NA,NA
fa09c,task,flow.Sequence,3_0_4_0_6,NA,NA,completion,11533.3,721374.4000001,721373,721389.6,732922.9,732924.5,2024-02-17T10:52:20Z,732939.6,NULL,Können,unaweza,d,NA,NA,NA,NA,sd,NA,4,NA,NA,NA,NA,NA,NA,NA,NA,NA,NA,NA,NA,NA,NA,NA,NA,NA,NA,NA
fa09c,deep,flow.Sequence,3_0_4_0_7_0,NA,NA,skipped,NA,732924.5999999,NA,NA,732922.9,732924.70000029,2024-02-17T10:52:20Z,732939.6,NULL,Verstand,ufahamivu,s,shakawa,hadhari,mhandisi,NA,sd,NA,4,NA,NA,NA,NA,NA,NA,NA,NA,NA,NA,NA,NA,NA,NA,NA,NA,NA,NA,NA
fa09c,Shallow Question,html.Page,3_0_4_0_7_1_0,NA,NA,form submission,8394.4999999047,732924.80000019,732922.9,732939.6,741334.0999999,741334.30000019,2024-02-17T10:52:29Z,741339.5,NULL,Verstand,ufahamivu,s,shakawa,hadhari,mhandisi,hadhari,NA,NA,4,NA,NA,NA,NA,NA,NA,NA,NA,NA,NA,NA,NA,NA,NA,NA,NA,NA,NA,NA
fa09c,"""Richtig""-Screen",canvas.Screen,3_0_4_0_7_1_1,NA,NA,skipped,NA,741336,NA,NA,741334.0999999,741336.0999999,2024-02-17T10:52:29Z,741339.5,NULL,Verstand,ufahamivu,s,shakawa,hadhari,mhandisi,NA,sd,NA,4,NA,NA,NA,NA,NA,NA,NA,NA,NA,NA,NA,NA,NA,NA,NA,NA,NA,NA,NA
fa09c,"""Falsch""-Screen",canvas.Screen,3_0_4_0_7_1_2,NA,NA,timeout,5000.1,741336.70000029,741323.058,741339.5,746322.9,746323.70000029,2024-02-17T10:52:34Z,746339.6,NULL,Verstand,ufahamivu,s,shakawa,hadhari,mhandisi,NA,sd,0,4,NA,NA,NA,NA,NA,NA,NA,NA,NA,NA,NA,NA,NA,NA,NA,NA,NA,NA,NA
fa09c,shallow,flow.Sequence,3_0_4_0_7_1,NA,NA,completion,13383.3,732924.80000019,732922.9,732939.6,746322.9,746324,2024-02-17T10:52:34Z,746339.6,NULL,Verstand,ufahamivu,s,shakawa,hadhari,mhandisi,NA,sd,NA,4,NA,NA,NA,NA,NA,NA,NA,NA,NA,NA,NA,NA,NA,NA,NA,NA,NA,NA,NA
fa09c,task,flow.Sequence,3_0_4_0_7,NA,NA,completion,13383.3,732924.5999999,732922.9,732939.6,746322.9,746324.0999999,2024-02-17T10:52:34Z,746339.6,NULL,Verstand,ufahamivu,s,shakawa,hadhari,mhandisi,NA,sd,NA,4,NA,NA,NA,NA,NA,NA,NA,NA,NA,NA,NA,NA,NA,NA,NA,NA,NA,NA,NA
fa09c,block,flow.Loop,3_0_4_0,NA,NA,completion,92299.5,654004.9000001,654006.37,654023.4,746322.9,746324.30000019,2024-02-17T10:52:34Z,746339.6,NULL,NA,NA,NA,NA,NA,NA,NA,sd,NA,4,NA,NA,NA,NA,NA,NA,NA,NA,NA,NA,NA,NA,NA,NA,NA,NA,NA,NA,NA
fa09c,weiter,canvas.Screen,3_0_4_1,sdf,keypress(Space),response,1311.4999999047,746324.4000001,746322.9,746339.6,747651.0999999,747651.9000001,2024-02-17T10:52:35Z,747689.546,NULL,NA,NA,NA,NA,NA,NA,NA,sd,NA,4,NA,NA,NA,NA,NA,NA,NA,NA,NA,NA,NA,NA,NA,NA,NA,NA,NA,NA,NA
fa09c,check continue,flow.Sequence,3_0_4,NA,NA,completion,93627.699999905,654004.9000001,654006.37,654023.4,747651.0999999,747652.20000029,2024-02-17T10:52:35Z,747689.546,NULL,NA,NA,NA,NA,NA,NA,NA,sd,NA,4,NA,NA,NA,NA,NA,NA,NA,NA,NA,NA,NA,NA,NA,NA,NA,NA,NA,NA,NA
fa09c,Deep Question,html.Page,3_0_5_0_0_0_0,NA,NA,form submission,4456.454,747700.80000019,747689.546,747689.546,752146,752146.20000029,2024-02-17T10:52:39Z,752156.4,NULL,Können,unaweza,d,NA,NA,NA,udaweza,NA,NA,5,NA,NA,NA,NA,NA,NA,NA,NA,NA,NA,NA,NA,NA,NA,NA,NA,NA,NA,NA
fa09c,"""Richtig""-Screen",canvas.Screen,3_0_5_0_0_0_1,NA,NA,skipped,NA,752147.80000019,NA,NA,752146,752148,2024-02-17T10:52:39Z,752156.4,NULL,Können,unaweza,d,NA,NA,NA,NA,sdf,NA,5,NA,NA,NA,NA,NA,NA,NA,NA,NA,NA,NA,NA,NA,NA,NA,NA,NA,NA,NA
fa09c,"""Falsch""-Screen",canvas.Screen,3_0_5_0_0_0_2,NA,NA,timeout,4999.9,752148.5,752139.606,752156.4,757139.6,757140.4000001,2024-02-17T10:52:44Z,757156.3,NULL,Können,unaweza,d,NA,NA,NA,NA,sdf,0,5,NA,NA,NA,NA,NA,NA,NA,NA,NA,NA,NA,NA,NA,NA,NA,NA,NA,NA,NA
fa09c,deep,flow.Sequence,3_0_5_0_0_0,NA,NA,completion,9450.054,747700.80000019,747689.546,747689.546,757139.6,757140.70000029,2024-02-17T10:52:44Z,757156.3,NULL,Können,unaweza,d,NA,NA,NA,NA,sdf,NA,5,NA,NA,NA,NA,NA,NA,NA,NA,NA,NA,NA,NA,NA,NA,NA,NA,NA,NA,NA
fa09c,shallow,flow.Sequence,3_0_5_0_0_1,NA,NA,skipped,NA,757140.9000001,NA,NA,757139.6,757141,2024-02-17T10:52:44Z,757156.3,NULL,Können,unaweza,d,NA,NA,NA,NA,sdf,NA,5,NA,NA,NA,NA,NA,NA,NA,NA,NA,NA,NA,NA,NA,NA,NA,NA,NA,NA,NA
fa09c,task,flow.Sequence,3_0_5_0_0,NA,NA,completion,9450.054,747700.80000019,747689.546,747689.546,757139.6,757141.0999999,2024-02-17T10:52:44Z,757156.3,NULL,Können,unaweza,d,NA,NA,NA,NA,sdf,NA,5,NA,NA,NA,NA,NA,NA,NA,NA,NA,NA,NA,NA,NA,NA,NA,NA,NA,NA,NA
fa09c,deep,flow.Sequence,3_0_5_0_1_0,NA,NA,skipped,NA,757141.30000019,NA,NA,757139.6,757141.30000019,2024-02-17T10:52:44Z,757156.3,NULL,Widerstand,usulubu,s,kusababisha,mwalimu,mwenendo,NA,sdf,NA,5,NA,NA,NA,NA,NA,NA,NA,NA,NA,NA,NA,NA,NA,NA,NA,NA,NA,NA,NA
fa09c,Shallow Question,html.Page,3_0_5_0_1_1_0,NA,NA,form submission,5213.7,757141.4000001,757139.6,757156.3,762370,762370.30000019,2024-02-17T10:52:50Z,762389.6,NULL,Widerstand,usulubu,s,kusababisha,mwalimu,mwenendo,usulubu,NA,NA,5,NA,NA,NA,NA,NA,NA,NA,NA,NA,NA,NA,NA,NA,NA,NA,NA,NA,NA,NA
fa09c,"""Richtig""-Screen",canvas.Screen,3_0_5_0_1_1_1,NA,NA,timeout,5000.1,762372.20000029,762373.032,762389.6,767372.9,767373.80000019,2024-02-17T10:52:55Z,767389.7,NULL,Widerstand,usulubu,s,kusababisha,mwalimu,mwenendo,NA,sdf,1,5,NA,NA,NA,NA,NA,NA,NA,NA,NA,NA,NA,NA,NA,NA,NA,NA,NA,NA,NA
fa09c,"""Falsch""-Screen",canvas.Screen,3_0_5_0_1_1_2,NA,NA,skipped,NA,767377.80000019,NA,NA,767372.9,767378.0999999,2024-02-17T10:52:55Z,767389.7,NULL,Widerstand,usulubu,s,kusababisha,mwalimu,mwenendo,NA,sdf,NA,5,NA,NA,NA,NA,NA,NA,NA,NA,NA,NA,NA,NA,NA,NA,NA,NA,NA,NA,NA
fa09c,shallow,flow.Sequence,3_0_5_0_1_1,NA,NA,completion,10216.6,757141.4000001,757139.6,757156.3,767372.9,767378.20000029,2024-02-17T10:52:55Z,767389.7,NULL,Widerstand,usulubu,s,kusababisha,mwalimu,mwenendo,NA,sdf,NA,5,NA,NA,NA,NA,NA,NA,NA,NA,NA,NA,NA,NA,NA,NA,NA,NA,NA,NA,NA
fa09c,task,flow.Sequence,3_0_5_0_1,NA,NA,completion,10216.6,757141.20000029,757139.6,757156.3,767372.9,767378.4000001,2024-02-17T10:52:55Z,767389.7,NULL,Widerstand,usulubu,s,kusababisha,mwalimu,mwenendo,NA,sdf,NA,5,NA,NA,NA,NA,NA,NA,NA,NA,NA,NA,NA,NA,NA,NA,NA,NA,NA,NA,NA
fa09c,Deep Question,html.Page,3_0_5_0_2_0_0,NA,NA,form submission,5831.3999999047,767378.5999999,767372.9,767389.7,773221.0999999,773221.20000029,2024-02-17T10:53:00Z,773223.024,NULL,Kreativität,ubunifu,d,NA,NA,NA,uwahba,NA,NA,5,NA,NA,NA,NA,NA,NA,NA,NA,NA,NA,NA,NA,NA,NA,NA,NA,NA,NA,NA
fa09c,"""Richtig""-Screen",canvas.Screen,3_0_5_0_2_0_1,NA,NA,skipped,NA,773222.80000019,NA,NA,773221.0999999,773223,2024-02-17T10:53:00Z,773223.024,NULL,Kreativität,ubunifu,d,NA,NA,NA,NA,sdf,NA,5,NA,NA,NA,NA,NA,NA,NA,NA,NA,NA,NA,NA,NA,NA,NA,NA,NA,NA,NA
fa09c,"""Falsch""-Screen",canvas.Screen,3_0_5_0_2_0_2,NA,NA,timeout,4999.876,773223.5999999,773223.024,773223.024,778206.3,778207.0999999,2024-02-17T10:53:05Z,778222.9,NULL,Kreativität,ubunifu,d,NA,NA,NA,NA,sdf,0,5,NA,NA,NA,NA,NA,NA,NA,NA,NA,NA,NA,NA,NA,NA,NA,NA,NA,NA,NA
fa09c,deep,flow.Sequence,3_0_5_0_2_0,NA,NA,completion,10816.6,767378.5999999,767372.9,767389.7,778206.3,778207.5,2024-02-17T10:53:05Z,778222.9,NULL,Kreativität,ubunifu,d,NA,NA,NA,NA,sdf,NA,5,NA,NA,NA,NA,NA,NA,NA,NA,NA,NA,NA,NA,NA,NA,NA,NA,NA,NA,NA
fa09c,shallow,flow.Sequence,3_0_5_0_2_1,NA,NA,skipped,NA,778207.5999999,NA,NA,778206.3,778207.70000029,2024-02-17T10:53:05Z,778222.9,NULL,Kreativität,ubunifu,d,NA,NA,NA,NA,sdf,NA,5,NA,NA,NA,NA,NA,NA,NA,NA,NA,NA,NA,NA,NA,NA,NA,NA,NA,NA,NA
fa09c,task,flow.Sequence,3_0_5_0_2,NA,NA,completion,10816.6,767378.5999999,767372.9,767389.7,778206.3,778207.80000019,2024-02-17T10:53:05Z,778222.9,NULL,Kreativität,ubunifu,d,NA,NA,NA,NA,sdf,NA,5,NA,NA,NA,NA,NA,NA,NA,NA,NA,NA,NA,NA,NA,NA,NA,NA,NA,NA,NA
fa09c,Deep Question,html.Page,3_0_5_0_3_0_0,NA,NA,form submission,7509.9000001907,778207.9000001,778206.3,778222.9,785732.80000019,785733,2024-02-17T10:53:13Z,785739.4,NULL,Gelegenheit,wakati,d,NA,NA,NA,uehsa,NA,NA,5,NA,NA,NA,NA,NA,NA,NA,NA,NA,NA,NA,NA,NA,NA,NA,NA,NA,NA,NA
fa09c,"""Richtig""-Screen",canvas.Screen,3_0_5_0_3_0_1,NA,NA,skipped,NA,785734.80000019,NA,NA,785732.80000019,785735,2024-02-17T10:53:13Z,785739.4,NULL,Gelegenheit,wakati,d,NA,NA,NA,NA,sdf,NA,5,NA,NA,NA,NA,NA,NA,NA,NA,NA,NA,NA,NA,NA,NA,NA,NA,NA,NA,NA
fa09c,"""Falsch""-Screen",canvas.Screen,3_0_5_0_3_0_2,NA,NA,timeout,5000.2,785735.5999999,785726.75,785739.4,790722.9,790723.5999999,2024-02-17T10:53:18Z,790739.6,NULL,Gelegenheit,wakati,d,NA,NA,NA,NA,sdf,0,5,NA,NA,NA,NA,NA,NA,NA,NA,NA,NA,NA,NA,NA,NA,NA,NA,NA,NA,NA
fa09c,deep,flow.Sequence,3_0_5_0_3_0,NA,NA,completion,12500,778207.9000001,778206.3,778222.9,790722.9,790724,2024-02-17T10:53:18Z,790739.6,NULL,Gelegenheit,wakati,d,NA,NA,NA,NA,sdf,NA,5,NA,NA,NA,NA,NA,NA,NA,NA,NA,NA,NA,NA,NA,NA,NA,NA,NA,NA,NA
fa09c,shallow,flow.Sequence,3_0_5_0_3_1,NA,NA,skipped,NA,790724.0999999,NA,NA,790722.9,790724.20000029,2024-02-17T10:53:18Z,790739.6,NULL,Gelegenheit,wakati,d,NA,NA,NA,NA,sdf,NA,5,NA,NA,NA,NA,NA,NA,NA,NA,NA,NA,NA,NA,NA,NA,NA,NA,NA,NA,NA
fa09c,task,flow.Sequence,3_0_5_0_3,NA,NA,completion,12500,778207.9000001,778206.3,778222.9,790722.9,790724.4000001,2024-02-17T10:53:18Z,790739.6,NULL,Gelegenheit,wakati,d,NA,NA,NA,NA,sdf,NA,5,NA,NA,NA,NA,NA,NA,NA,NA,NA,NA,NA,NA,NA,NA,NA,NA,NA,NA,NA
fa09c,deep,flow.Sequence,3_0_5_0_4_0,NA,NA,skipped,NA,790724.5,NA,NA,790722.9,790724.5,2024-02-17T10:53:18Z,790739.6,NULL,Gefährdung,kuhatarisha,s,uchokozi,udhaifu,makorowezo,NA,sdf,NA,5,NA,NA,NA,NA,NA,NA,NA,NA,NA,NA,NA,NA,NA,NA,NA,NA,NA,NA,NA
fa09c,Shallow Question,html.Page,3_0_5_0_4_1_0,NA,NA,form submission,5291.2000001908,790724.70000029,790722.9,790739.6,796030.80000019,796031,2024-02-17T10:53:23Z,796039.5,NULL,Gefährdung,kuhatarisha,s,uchokozi,udhaifu,makorowezo,udhaifu,NA,NA,5,NA,NA,NA,NA,NA,NA,NA,NA,NA,NA,NA,NA,NA,NA,NA,NA,NA,NA,NA
fa09c,"""Richtig""-Screen",canvas.Screen,3_0_5_0_4_1_1,NA,NA,skipped,NA,796032.80000019,NA,NA,796030.80000019,796033,2024-02-17T10:53:23Z,796039.5,NULL,Gefährdung,kuhatarisha,s,uchokozi,udhaifu,makorowezo,NA,sdf,NA,5,NA,NA,NA,NA,NA,NA,NA,NA,NA,NA,NA,NA,NA,NA,NA,NA,NA,NA,NA
fa09c,"""Falsch""-Screen",canvas.Screen,3_0_5_0_4_1_2,NA,NA,timeout,5000.1,796033.5,796022.95,796039.5,801022.9,801024,2024-02-17T10:53:28Z,801039.6,NULL,Gefährdung,kuhatarisha,s,uchokozi,udhaifu,makorowezo,NA,sdf,0,5,NA,NA,NA,NA,NA,NA,NA,NA,NA,NA,NA,NA,NA,NA,NA,NA,NA,NA,NA
fa09c,shallow,flow.Sequence,3_0_5_0_4_1,NA,NA,completion,10283.3,790724.70000029,790722.9,790739.6,801022.9,801024.20000029,2024-02-17T10:53:28Z,801039.6,NULL,Gefährdung,kuhatarisha,s,uchokozi,udhaifu,makorowezo,NA,sdf,NA,5,NA,NA,NA,NA,NA,NA,NA,NA,NA,NA,NA,NA,NA,NA,NA,NA,NA,NA,NA
fa09c,task,flow.Sequence,3_0_5_0_4,NA,NA,completion,10283.3,790724.4000001,790722.9,790739.6,801022.9,801024.4000001,2024-02-17T10:53:28Z,801039.6,NULL,Gefährdung,kuhatarisha,s,uchokozi,udhaifu,makorowezo,NA,sdf,NA,5,NA,NA,NA,NA,NA,NA,NA,NA,NA,NA,NA,NA,NA,NA,NA,NA,NA,NA,NA
fa09c,deep,flow.Sequence,3_0_5_0_5_0,NA,NA,skipped,NA,801024.5999999,NA,NA,801022.9,801024.70000029,2024-02-17T10:53:28Z,801039.6,NULL,Verstand,ufahamivu,s,shakawa,hadhari,mhandisi,NA,sdf,NA,5,NA,NA,NA,NA,NA,NA,NA,NA,NA,NA,NA,NA,NA,NA,NA,NA,NA,NA,NA
fa09c,Shallow Question,html.Page,3_0_5_0_5_1_0,NA,NA,form submission,6181.2000001908,801024.70000029,801022.9,801039.6,807220.80000019,807221,2024-02-17T10:53:34Z,807222.996,NULL,Verstand,ufahamivu,s,shakawa,hadhari,mhandisi,ufahamivu,NA,NA,5,NA,NA,NA,NA,NA,NA,NA,NA,NA,NA,NA,NA,NA,NA,NA,NA,NA,NA,NA
fa09c,"""Richtig""-Screen",canvas.Screen,3_0_5_0_5_1_1,NA,NA,timeout,4999.804,807222.70000029,807222.996,807222.996,812206.2,812207,2024-02-17T10:53:39Z,812222.8,NULL,Verstand,ufahamivu,s,shakawa,hadhari,mhandisi,NA,sdf,1,5,NA,NA,NA,NA,NA,NA,NA,NA,NA,NA,NA,NA,NA,NA,NA,NA,NA,NA,NA
fa09c,"""Falsch""-Screen",canvas.Screen,3_0_5_0_5_1_2,NA,NA,skipped,NA,812210.80000019,NA,NA,812206.2,812211.0999999,2024-02-17T10:53:39Z,812222.8,NULL,Verstand,ufahamivu,s,shakawa,hadhari,mhandisi,NA,sdf,NA,5,NA,NA,NA,NA,NA,NA,NA,NA,NA,NA,NA,NA,NA,NA,NA,NA,NA,NA,NA
fa09c,shallow,flow.Sequence,3_0_5_0_5_1,NA,NA,completion,11166.6,801024.70000029,801022.9,801039.6,812206.2,812211.30000019,2024-02-17T10:53:39Z,812222.8,NULL,Verstand,ufahamivu,s,shakawa,hadhari,mhandisi,NA,sdf,NA,5,NA,NA,NA,NA,NA,NA,NA,NA,NA,NA,NA,NA,NA,NA,NA,NA,NA,NA,NA
fa09c,task,flow.Sequence,3_0_5_0_5,NA,NA,completion,11166.6,801024.5,801022.9,801039.6,812206.2,812211.5,2024-02-17T10:53:39Z,812222.8,NULL,Verstand,ufahamivu,s,shakawa,hadhari,mhandisi,NA,sdf,NA,5,NA,NA,NA,NA,NA,NA,NA,NA,NA,NA,NA,NA,NA,NA,NA,NA,NA,NA,NA
fa09c,deep,flow.Sequence,3_0_5_0_6_0,NA,NA,skipped,NA,812211.5999999,NA,NA,812206.2,812211.70000029,2024-02-17T10:53:39Z,812222.8,NULL,Kontrolle,kudhibiti,s,mbinguni,kufunga,utegemezi,NA,sdf,NA,5,NA,NA,NA,NA,NA,NA,NA,NA,NA,NA,NA,NA,NA,NA,NA,NA,NA,NA,NA
fa09c,Shallow Question,html.Page,3_0_5_0_6_1_0,NA,NA,form submission,15732.100000095,812211.70000029,812206.2,812222.8,827954.9000001,827955.0999999,2024-02-17T10:53:55Z,827956.284,NULL,Kontrolle,kudhibiti,s,mbinguni,kufunga,utegemezi,utegemezi,NA,NA,5,NA,NA,NA,NA,NA,NA,NA,NA,NA,NA,NA,NA,NA,NA,NA,NA,NA,NA,NA
fa09c,"""Richtig""-Screen",canvas.Screen,3_0_5_0_6_1_1,NA,NA,skipped,NA,827956.9000001,NA,NA,827954.9000001,827957,2024-02-17T10:53:55Z,827956.284,NULL,Kontrolle,kudhibiti,s,mbinguni,kufunga,utegemezi,NA,sdf,NA,5,NA,NA,NA,NA,NA,NA,NA,NA,NA,NA,NA,NA,NA,NA,NA,NA,NA,NA,NA
fa09c,"""Falsch""-Screen",canvas.Screen,3_0_5_0_6_1_2,NA,NA,timeout,4999.916,827957.5,827956.284,827956.284,832939.5,832940.30000019,2024-02-17T10:54:00Z,832956.2,NULL,Kontrolle,kudhibiti,s,mbinguni,kufunga,utegemezi,NA,sdf,0,5,NA,NA,NA,NA,NA,NA,NA,NA,NA,NA,NA,NA,NA,NA,NA,NA,NA,NA,NA
fa09c,shallow,flow.Sequence,3_0_5_0_6_1,NA,NA,completion,20716.7,812211.70000029,812206.2,812222.8,832939.5,832940.5999999,2024-02-17T10:54:00Z,832956.2,NULL,Kontrolle,kudhibiti,s,mbinguni,kufunga,utegemezi,NA,sdf,NA,5,NA,NA,NA,NA,NA,NA,NA,NA,NA,NA,NA,NA,NA,NA,NA,NA,NA,NA,NA
fa09c,task,flow.Sequence,3_0_5_0_6,NA,NA,completion,20716.7,812211.5999999,812206.2,812222.8,832939.5,832940.80000019,2024-02-17T10:54:00Z,832956.2,NULL,Kontrolle,kudhibiti,s,mbinguni,kufunga,utegemezi,NA,sdf,NA,5,NA,NA,NA,NA,NA,NA,NA,NA,NA,NA,NA,NA,NA,NA,NA,NA,NA,NA,NA
fa09c,Deep Question,html.Page,3_0_5_0_7_0_0,NA,NA,form submission,19215.700000095,832940.9000001,832939.5,832956.2,852171.9000001,852172.20000029,2024-02-17T10:54:19Z,852172.854,NULL,Ausschluss,kutengwa,d,NA,NA,NA,khutbesa,NA,NA,5,NA,NA,NA,NA,NA,NA,NA,NA,NA,NA,NA,NA,NA,NA,NA,NA,NA,NA,NA
fa09c,"""Richtig""-Screen",canvas.Screen,3_0_5_0_7_0_1,NA,NA,skipped,NA,852174.0999999,NA,NA,852171.9000001,852174.20000029,2024-02-17T10:54:19Z,852172.854,NULL,Ausschluss,kutengwa,d,NA,NA,NA,NA,sdf,NA,5,NA,NA,NA,NA,NA,NA,NA,NA,NA,NA,NA,NA,NA,NA,NA,NA,NA,NA,NA
fa09c,"""Falsch""-Screen",canvas.Screen,3_0_5_0_7_0_2,NA,NA,timeout,5000.046,852174.70000029,852172.854,852172.854,857156.2,857157.30000019,2024-02-17T10:54:24Z,857172.9,NULL,Ausschluss,kutengwa,d,NA,NA,NA,NA,sdf,0,5,NA,NA,NA,NA,NA,NA,NA,NA,NA,NA,NA,NA,NA,NA,NA,NA,NA,NA,NA
fa09c,deep,flow.Sequence,3_0_5_0_7_0,NA,NA,completion,24200,832940.9000001,832939.5,832956.2,857156.2,857157.5999999,2024-02-17T10:54:24Z,857172.9,NULL,Ausschluss,kutengwa,d,NA,NA,NA,NA,sdf,NA,5,NA,NA,NA,NA,NA,NA,NA,NA,NA,NA,NA,NA,NA,NA,NA,NA,NA,NA,NA
fa09c,shallow,flow.Sequence,3_0_5_0_7_1,NA,NA,skipped,NA,857157.70000029,NA,NA,857156.2,857157.80000019,2024-02-17T10:54:24Z,857172.9,NULL,Ausschluss,kutengwa,d,NA,NA,NA,NA,sdf,NA,5,NA,NA,NA,NA,NA,NA,NA,NA,NA,NA,NA,NA,NA,NA,NA,NA,NA,NA,NA
fa09c,task,flow.Sequence,3_0_5_0_7,NA,NA,completion,24200,832940.9000001,832939.5,832956.2,857156.2,857158,2024-02-17T10:54:24Z,857172.9,NULL,Ausschluss,kutengwa,d,NA,NA,NA,NA,sdf,NA,5,NA,NA,NA,NA,NA,NA,NA,NA,NA,NA,NA,NA,NA,NA,NA,NA,NA,NA,NA
fa09c,block,flow.Loop,3_0_5_0,NA,NA,completion,109466.654,747700.70000029,747689.546,747689.546,857156.2,857158.0999999,2024-02-17T10:54:24Z,857172.9,NULL,NA,NA,NA,NA,NA,NA,NA,sdf,NA,5,NA,NA,NA,NA,NA,NA,NA,NA,NA,NA,NA,NA,NA,NA,NA,NA,NA,NA,NA
fa09c,weiter,canvas.Screen,3_0_5_1,sdf,keypress(Space),response,842.00000009534,857158.20000029,857156.2,857172.9,858014.9000001,858015.70000029,2024-02-17T10:54:25Z,858089.5,NULL,NA,NA,NA,NA,NA,NA,NA,sdf,NA,5,NA,NA,NA,NA,NA,NA,NA,NA,NA,NA,NA,NA,NA,NA,NA,NA,NA,NA,NA
fa09c,check continue,flow.Sequence,3_0_5,NA,NA,completion,110325.3540001,747700.5999999,747689.546,747689.546,858014.9000001,858016,2024-02-17T10:54:25Z,858089.5,NULL,NA,NA,NA,NA,NA,NA,NA,sdf,NA,5,NA,NA,NA,NA,NA,NA,NA,NA,NA,NA,NA,NA,NA,NA,NA,NA,NA,NA,NA
fa09c,Deep Question,html.Page,3_0_6_0_0_0_0,NA,NA,form submission,2970.3000001907,858075,858073,858089.5,861059.80000019,861060.0999999,2024-02-17T10:54:28Z,861072.9,NULL,Ausschluss,kutengwa,d,NA,NA,NA,kutengwa,NA,NA,6,NA,NA,NA,NA,NA,NA,NA,NA,NA,NA,NA,NA,NA,NA,NA,NA,NA,NA,NA
fa09c,"""Richtig""-Screen",canvas.Screen,3_0_6_0_0_0_1,NA,NA,timeout,4999.9,861061.70000029,861056.254,861072.9,866056.2,866057,2024-02-17T10:54:33Z,866072.8,NULL,Ausschluss,kutengwa,d,NA,NA,NA,NA,dfs,1,6,NA,NA,NA,NA,NA,NA,NA,NA,NA,NA,NA,NA,NA,NA,NA,NA,NA,NA,NA
fa09c,"""Falsch""-Screen",canvas.Screen,3_0_6_0_0_0_2,NA,NA,skipped,NA,866061,NA,NA,866056.2,866061.20000029,2024-02-17T10:54:33Z,866072.8,NULL,Ausschluss,kutengwa,d,NA,NA,NA,NA,dfs,NA,6,NA,NA,NA,NA,NA,NA,NA,NA,NA,NA,NA,NA,NA,NA,NA,NA,NA,NA,NA
fa09c,deep,flow.Sequence,3_0_6_0_0_0,NA,NA,completion,7966.7,858074.9000001,858073,858089.5,866056.2,866061.4000001,2024-02-17T10:54:33Z,866072.8,NULL,Ausschluss,kutengwa,d,NA,NA,NA,NA,dfs,NA,6,NA,NA,NA,NA,NA,NA,NA,NA,NA,NA,NA,NA,NA,NA,NA,NA,NA,NA,NA
fa09c,shallow,flow.Sequence,3_0_6_0_0_1,NA,NA,skipped,NA,866061.5,NA,NA,866056.2,866061.5999999,2024-02-17T10:54:33Z,866072.8,NULL,Ausschluss,kutengwa,d,NA,NA,NA,NA,dfs,NA,6,NA,NA,NA,NA,NA,NA,NA,NA,NA,NA,NA,NA,NA,NA,NA,NA,NA,NA,NA
fa09c,task,flow.Sequence,3_0_6_0_0,NA,NA,completion,7966.7,858074.9000001,858073,858089.5,866056.2,866061.70000029,2024-02-17T10:54:33Z,866072.8,NULL,Ausschluss,kutengwa,d,NA,NA,NA,NA,dfs,NA,6,NA,NA,NA,NA,NA,NA,NA,NA,NA,NA,NA,NA,NA,NA,NA,NA,NA,NA,NA
fa09c,deep,flow.Sequence,3_0_6_0_1_0,NA,NA,skipped,NA,866061.80000019,NA,NA,866056.2,866061.9000001,2024-02-17T10:54:33Z,866072.8,NULL,Gefährdung,kuhatarisha,s,uchokozi,udhaifu,makorowezo,NA,dfs,NA,6,NA,NA,NA,NA,NA,NA,NA,NA,NA,NA,NA,NA,NA,NA,NA,NA,NA,NA,NA
fa09c,Shallow Question,html.Page,3_0_6_0_1_1_0,NA,NA,form submission,4881.1000000953,866062.0999999,866056.2,866072.8,870953.9000001,870954.0999999,2024-02-17T10:54:38Z,870956.284,NULL,Gefährdung,kuhatarisha,s,uchokozi,udhaifu,makorowezo,kuhatarisha,NA,NA,6,NA,NA,NA,NA,NA,NA,NA,NA,NA,NA,NA,NA,NA,NA,NA,NA,NA,NA,NA
fa09c,"""Richtig""-Screen",canvas.Screen,3_0_6_0_1_1_1,NA,NA,timeout,4999.916,870955.80000019,870956.284,870956.284,875939.6,875940.30000019,2024-02-17T10:54:43Z,875956.2,NULL,Gefährdung,kuhatarisha,s,uchokozi,udhaifu,makorowezo,NA,dfs,1,6,NA,NA,NA,NA,NA,NA,NA,NA,NA,NA,NA,NA,NA,NA,NA,NA,NA,NA,NA
fa09c,"""Falsch""-Screen",canvas.Screen,3_0_6_0_1_1_2,NA,NA,skipped,NA,875944.20000029,NA,NA,875939.6,875944.5,2024-02-17T10:54:43Z,875956.2,NULL,Gefährdung,kuhatarisha,s,uchokozi,udhaifu,makorowezo,NA,dfs,NA,6,NA,NA,NA,NA,NA,NA,NA,NA,NA,NA,NA,NA,NA,NA,NA,NA,NA,NA,NA
fa09c,shallow,flow.Sequence,3_0_6_0_1_1,NA,NA,completion,9866.7999999999,866062.0999999,866056.2,866072.8,875939.6,875944.70000029,2024-02-17T10:54:43Z,875956.2,NULL,Gefährdung,kuhatarisha,s,uchokozi,udhaifu,makorowezo,NA,dfs,NA,6,NA,NA,NA,NA,NA,NA,NA,NA,NA,NA,NA,NA,NA,NA,NA,NA,NA,NA,NA
fa09c,task,flow.Sequence,3_0_6_0_1,NA,NA,completion,9866.7999999999,866061.80000019,866056.2,866072.8,875939.6,875944.80000019,2024-02-17T10:54:43Z,875956.2,NULL,Gefährdung,kuhatarisha,s,uchokozi,udhaifu,makorowezo,NA,dfs,NA,6,NA,NA,NA,NA,NA,NA,NA,NA,NA,NA,NA,NA,NA,NA,NA,NA,NA,NA,NA
fa09c,Deep Question,html.Page,3_0_6_0_2_0_0,NA,NA,form submission,9024.5000002861,875945,875939.6,875956.2,884980.70000029,884980.9000001,2024-02-17T10:54:52Z,884989.5,NULL,Kreativität,ubunifu,d,NA,NA,NA,kreativität,NA,NA,6,NA,NA,NA,NA,NA,NA,NA,NA,NA,NA,NA,NA,NA,NA,NA,NA,NA,NA,NA
fa09c,"""Richtig""-Screen",canvas.Screen,3_0_6_0_2_0_1,NA,NA,skipped,NA,884982.5999999,NA,NA,884980.70000029,884982.80000019,2024-02-17T10:54:52Z,884989.5,NULL,Kreativität,ubunifu,d,NA,NA,NA,NA,dfs,NA,6,NA,NA,NA,NA,NA,NA,NA,NA,NA,NA,NA,NA,NA,NA,NA,NA,NA,NA,NA
fa09c,"""Falsch""-Screen",canvas.Screen,3_0_6_0_2_0_2,NA,NA,timeout,5000.1,884983.30000019,884972.848,884989.5,889972.8,889973.5999999,2024-02-17T10:54:57Z,889989.6,NULL,Kreativität,ubunifu,d,NA,NA,NA,NA,dfs,0,6,NA,NA,NA,NA,NA,NA,NA,NA,NA,NA,NA,NA,NA,NA,NA,NA,NA,NA,NA
fa09c,deep,flow.Sequence,3_0_6_0_2_0,NA,NA,completion,14016.6,875945,875939.6,875956.2,889972.8,889973.9000001,2024-02-17T10:54:57Z,889989.6,NULL,Kreativität,ubunifu,d,NA,NA,NA,NA,dfs,NA,6,NA,NA,NA,NA,NA,NA,NA,NA,NA,NA,NA,NA,NA,NA,NA,NA,NA,NA,NA
fa09c,shallow,flow.Sequence,3_0_6_0_2_1,NA,NA,skipped,NA,889974,NA,NA,889972.8,889974.20000029,2024-02-17T10:54:57Z,889989.6,NULL,Kreativität,ubunifu,d,NA,NA,NA,NA,dfs,NA,6,NA,NA,NA,NA,NA,NA,NA,NA,NA,NA,NA,NA,NA,NA,NA,NA,NA,NA,NA
fa09c,task,flow.Sequence,3_0_6_0_2,NA,NA,completion,14016.6,875944.9000001,875939.6,875956.2,889972.8,889974.4000001,2024-02-17T10:54:57Z,889989.6,NULL,Kreativität,ubunifu,d,NA,NA,NA,NA,dfs,NA,6,NA,NA,NA,NA,NA,NA,NA,NA,NA,NA,NA,NA,NA,NA,NA,NA,NA,NA,NA
fa09c,deep,flow.Sequence,3_0_6_0_3_0,NA,NA,skipped,NA,889974.5999999,NA,NA,889972.8,889974.5999999,2024-02-17T10:54:57Z,889989.6,NULL,Widerstand,usulubu,s,kusababisha,mwalimu,mwenendo,NA,dfs,NA,6,NA,NA,NA,NA,NA,NA,NA,NA,NA,NA,NA,NA,NA,NA,NA,NA,NA,NA,NA
fa09c,Shallow Question,html.Page,3_0_6_0_3_1_0,NA,NA,form submission,6201.9999999047,889974.70000029,889972.8,889989.6,896191.5999999,896191.9000001,2024-02-17T10:55:03Z,896222.9,NULL,Widerstand,usulubu,s,kusababisha,mwalimu,mwenendo,usulubu,NA,NA,6,NA,NA,NA,NA,NA,NA,NA,NA,NA,NA,NA,NA,NA,NA,NA,NA,NA,NA,NA
fa09c,"""Richtig""-Screen",canvas.Screen,3_0_6_0_3_1_1,NA,NA,timeout,4999.9,896193.5999999,896206.432,896222.9,901206.1,901207.20000029,2024-02-17T10:55:08Z,901222.8,NULL,Widerstand,usulubu,s,kusababisha,mwalimu,mwenendo,NA,dfs,1,6,NA,NA,NA,NA,NA,NA,NA,NA,NA,NA,NA,NA,NA,NA,NA,NA,NA,NA,NA
