observation,sender,sender_type,sender_id,response,response_action,ended_on,duration,time_run,time_render,time_show,time_end,time_commit,timestamp,time_switch,distractors,german,swahili,enc,distractor1,distractor2,distractor3,response_2,x,correct,x_2,url_vp,url_sess,meta_labjs_version,meta_location,meta_user_agent,meta_platform,meta_language,meta_locale,meta_time_zone,meta_timezone_offset,meta_screen_width,meta_screen_height,meta_scroll_width,meta_scroll_height,meta_window_inner_width,meta_window_inner_height,meta_device_pixel_ratio,meta_labjs_build_flavor,meta_labjs_build_commit
bd379,Introduction general,canvas.Screen,0,weiter,keypress(q),response,50103.281000006,945.90000000596,1033.001,1049.619,51152.900000006,51157.300000012,2023-11-20T14:46:29Z,51169.112,NULL,NA,NA,NA,NA,NA,NA,NA,NA,NA,NA,135,3,20.2.4,https://neurocog.fernuni.ch/studies/vweber/aberisha/encoding_immediate/index.html?vp=135&sess=3,"Mozilla/5.0 (Windows NT 10.0; Win64; x64) AppleWebKit/537.36 (KHTML, like Gecko) Chrome/119.0.0.0 Safari/537.36",Win32,de-DE,de,Europe/Zurich,-60,1739,979,1740,774,1740,822,1.1041666269302,production,f5b4a49f956347addd546a832a3327688c2c0fef
bd379,Introduction practice,canvas.Screen,1_0,NA,keypress(Space),response,7615.5880000179,51158.200000018,51153.734,51169.112,58784.700000018,58785.200000018,2023-11-20T14:46:37Z,58797.678,NULL,NA,NA,NA,NA,NA,NA,NA,NA,NA,NA,NA,NA,NA,NA,NA,NA,NA,NA,NA,NA,NA,NA,NA,NA,NA,NA,NA,NA,NA
bd379,Deep Question,html.Page,1_1_0_0_0,NA,NA,form submission,23305.822,58785.300000012,58779.912,58797.678,82103.5,82104,2023-11-20T14:47:00Z,82116.793,"c(""distractor1"", ""distractor2"", ""distractor3"")",Gesundheit,salama,d,NA,NA,NA,kologrimi,NA,NA,NA,NA,NA,NA,NA,NA,NA,NA,NA,NA,NA,NA,NA,NA,NA,NA,NA,NA,NA,NA
bd379,"""Richtig""-Screen",canvas.Screen,1_1_0_0_1,NA,NA,skipped,NA,82105.099999994,NA,NA,82103.5,82105.400000006,2023-11-20T14:47:00Z,82116.793,"c(""distractor1"", ""distractor2"", ""distractor3"")",Gesundheit,salama,d,NA,NA,NA,NA,NA,NA,NA,NA,NA,NA,NA,NA,NA,NA,NA,NA,NA,NA,NA,NA,NA,NA,NA,NA,NA,NA
bd379,"""Falsch""-Screen",canvas.Screen,1_1_0_0_2,NA,NA,timeout,4997.03,82106.099999994,82100.231,82116.793,87097.372,87100.300000012,2023-11-20T14:47:05Z,87113.823,"c(""distractor1"", ""distractor2"", ""distractor3"")",Gesundheit,salama,d,NA,NA,NA,NA,NA,0,NA,NA,NA,NA,NA,NA,NA,NA,NA,NA,NA,NA,NA,NA,NA,NA,NA,NA,NA,NA
bd379,deep,flow.Sequence,1_1_0_0,NA,NA,completion,28299.694,58785.300000012,58779.912,58797.678,87097.372,87100.400000006,2023-11-20T14:47:05Z,87113.823,"c(""distractor1"", ""distractor2"", ""distractor3"")",Gesundheit,salama,d,NA,NA,NA,NA,NA,NA,NA,NA,NA,NA,NA,NA,NA,NA,NA,NA,NA,NA,NA,NA,NA,NA,NA,NA,NA,NA
bd379,shallow,flow.Sequence,1_1_0_1,NA,NA,skipped,NA,87100.5,NA,NA,87097.372,87100.599999994,2023-11-20T14:47:05Z,87113.823,"c(""distractor1"", ""distractor2"", ""distractor3"")",Gesundheit,salama,d,NA,NA,NA,NA,NA,NA,NA,NA,NA,NA,NA,NA,NA,NA,NA,NA,NA,NA,NA,NA,NA,NA,NA,NA,NA,NA
bd379,task,flow.Sequence,1_1_0,NA,NA,completion,28299.694,58785.300000012,58779.912,58797.678,87097.372,87100.700000018,2023-11-20T14:47:05Z,87113.823,"c(""distractor1"", ""distractor2"", ""distractor3"")",Gesundheit,salama,d,NA,NA,NA,NA,NA,NA,NA,NA,NA,NA,NA,NA,NA,NA,NA,NA,NA,NA,NA,NA,NA,NA,NA,NA,NA,NA
bd379,Deep Question,html.Page,1_1_1_0_0,NA,NA,form submission,6058.577000006,87100.800000012,87097.372,87113.823,93172.400000006,93172.599999994,2023-11-20T14:47:11Z,93176.67,"c(""distractor1"", ""distractor2"", ""distractor3"")",Schatten,kivuli,d,NA,NA,NA,goro,NA,NA,NA,NA,NA,NA,NA,NA,NA,NA,NA,NA,NA,NA,NA,NA,NA,NA,NA,NA,NA,NA
bd379,"""Richtig""-Screen",canvas.Screen,1_1_1_0_1,NA,NA,skipped,NA,93174.700000018,NA,NA,93172.400000006,93174.700000018,2023-11-20T14:47:11Z,93176.67,"c(""distractor1"", ""distractor2"", ""distractor3"")",Schatten,kivuli,d,NA,NA,NA,NA,NA,NA,NA,NA,NA,NA,NA,NA,NA,NA,NA,NA,NA,NA,NA,NA,NA,NA,NA,NA,NA,NA
bd379,"""Falsch""-Screen",canvas.Screen,1_1_1_0_2,NA,NA,timeout,4996.963,93175.700000018,93161.541,93176.67,98157.017,98158.300000012,2023-11-20T14:47:16Z,98173.633,"c(""distractor1"", ""distractor2"", ""distractor3"")",Schatten,kivuli,d,NA,NA,NA,NA,NA,0,NA,NA,NA,NA,NA,NA,NA,NA,NA,NA,NA,NA,NA,NA,NA,NA,NA,NA,NA,NA
bd379,deep,flow.Sequence,1_1_1_0,NA,NA,completion,11043.194,87100.800000012,87097.372,87113.823,98157.017,98158.800000012,2023-11-20T14:47:16Z,98173.633,"c(""distractor1"", ""distractor2"", ""distractor3"")",Schatten,kivuli,d,NA,NA,NA,NA,NA,NA,NA,NA,NA,NA,NA,NA,NA,NA,NA,NA,NA,NA,NA,NA,NA,NA,NA,NA,NA,NA
bd379,shallow,flow.Sequence,1_1_1_1,NA,NA,skipped,NA,98159,NA,NA,98157.017,98159.200000018,2023-11-20T14:47:16Z,98173.633,"c(""distractor1"", ""distractor2"", ""distractor3"")",Schatten,kivuli,d,NA,NA,NA,NA,NA,NA,NA,NA,NA,NA,NA,NA,NA,NA,NA,NA,NA,NA,NA,NA,NA,NA,NA,NA,NA,NA
bd379,task,flow.Sequence,1_1_1,NA,NA,completion,11043.194,87100.700000018,87097.372,87113.823,98157.017,98159.5,2023-11-20T14:47:16Z,98173.633,"c(""distractor1"", ""distractor2"", ""distractor3"")",Schatten,kivuli,d,NA,NA,NA,NA,NA,NA,NA,NA,NA,NA,NA,NA,NA,NA,NA,NA,NA,NA,NA,NA,NA,NA,NA,NA,NA,NA
bd379,deep,flow.Sequence,1_1_2_0,NA,NA,skipped,NA,98159.800000012,NA,NA,98157.017,98160,2023-11-20T14:47:16Z,98173.633,"c(""distractor1"", ""distractor2"", ""distractor3"")",Kritik,lawama,s,dereva,nafasi,mawazo,NA,NA,NA,NA,NA,NA,NA,NA,NA,NA,NA,NA,NA,NA,NA,NA,NA,NA,NA,NA,NA,NA,NA
bd379,Shallow Question,html.Page,1_1_2_1_0,NA,NA,form submission,3045.466999994,98160.099999994,98157.017,98173.633,101219.09999999,101219.40000001,2023-11-20T14:47:19Z,101221.815,"c(""distractor1"", ""distractor2"", ""distractor3"")",Kritik,lawama,s,dereva,nafasi,mawazo,lawama,NA,NA,NA,NA,NA,NA,NA,NA,NA,NA,NA,NA,NA,NA,NA,NA,NA,NA,NA,NA,NA,NA
bd379,"""Richtig""-Screen",canvas.Screen,1_1_2_1_1,NA,NA,timeout,4997.315,101222.30000001,101205.628,101221.815,106202.333,106204,2023-11-20T14:47:24Z,106219.13,"c(""distractor1"", ""distractor2"", ""distractor3"")",Kritik,lawama,s,dereva,nafasi,mawazo,NA,NA,1,NA,NA,NA,NA,NA,NA,NA,NA,NA,NA,NA,NA,NA,NA,NA,NA,NA,NA,NA,NA
bd379,"""Falsch""-Screen",canvas.Screen,1_1_2_1_2,NA,NA,skipped,NA,106206.09999999,NA,NA,106202.333,106206.20000002,2023-11-20T14:47:24Z,106219.13,"c(""distractor1"", ""distractor2"", ""distractor3"")",Kritik,lawama,s,dereva,nafasi,mawazo,NA,NA,NA,NA,NA,NA,NA,NA,NA,NA,NA,NA,NA,NA,NA,NA,NA,NA,NA,NA,NA,NA,NA
bd379,shallow,flow.Sequence,1_1_2_1,NA,NA,completion,8028.7,98160.099999994,98157.017,98173.633,106202.333,106206.30000001,2023-11-20T14:47:24Z,106219.13,"c(""distractor1"", ""distractor2"", ""distractor3"")",Kritik,lawama,s,dereva,nafasi,mawazo,NA,NA,NA,NA,NA,NA,NA,NA,NA,NA,NA,NA,NA,NA,NA,NA,NA,NA,NA,NA,NA,NA,NA
bd379,task,flow.Sequence,1_1_2,NA,NA,completion,8028.7,98159.700000018,98157.017,98173.633,106202.333,106206.40000001,2023-11-20T14:47:24Z,106219.13,"c(""distractor1"", ""distractor2"", ""distractor3"")",Kritik,lawama,s,dereva,nafasi,mawazo,NA,NA,NA,NA,NA,NA,NA,NA,NA,NA,NA,NA,NA,NA,NA,NA,NA,NA,NA,NA,NA,NA,NA
bd379,deep,flow.Sequence,1_1_3_0,NA,NA,skipped,NA,106206.40000001,NA,NA,106202.333,106206.59999999,2023-11-20T14:47:24Z,106219.13,"c(""distractor1"", ""distractor2"", ""distractor3"")",Gegenwart,hadhara,s,katiba,jokofu,mikopo,NA,NA,NA,NA,NA,NA,NA,NA,NA,NA,NA,NA,NA,NA,NA,NA,NA,NA,NA,NA,NA,NA,NA
bd379,Shallow Question,html.Page,1_1_3_1_0,NA,NA,form submission,3838.6700000119,106206.59999999,106202.333,106219.13,110057.80000001,110058,2023-11-20T14:47:28Z,110083.374,"c(""distractor1"", ""distractor2"", ""distractor3"")",Gegenwart,hadhara,s,katiba,jokofu,mikopo,mikopo,NA,NA,NA,NA,NA,NA,NA,NA,NA,NA,NA,NA,NA,NA,NA,NA,NA,NA,NA,NA,NA,NA
bd379,"""Richtig""-Screen",canvas.Screen,1_1_3_1_1,NA,NA,skipped,NA,110059,NA,NA,110057.80000001,110059.09999999,2023-11-20T14:47:28Z,110083.374,"c(""distractor1"", ""distractor2"", ""distractor3"")",Gegenwart,hadhara,s,katiba,jokofu,mikopo,NA,NA,NA,NA,NA,NA,NA,NA,NA,NA,NA,NA,NA,NA,NA,NA,NA,NA,NA,NA,NA,NA,NA
bd379,"""Falsch""-Screen",canvas.Screen,1_1_3_1_2,NA,NA,timeout,4996.972,110060.30000001,110066.394,110083.374,115063.731,115064.90000001,2023-11-20T14:47:33Z,115080.346,"c(""distractor1"", ""distractor2"", ""distractor3"")",Gegenwart,hadhara,s,katiba,jokofu,mikopo,NA,NA,0,NA,NA,NA,NA,NA,NA,NA,NA,NA,NA,NA,NA,NA,NA,NA,NA,NA,NA,NA,NA
bd379,shallow,flow.Sequence,1_1_3_1,NA,NA,completion,8844.601,106206.59999999,106202.333,106219.13,115063.731,115065.40000001,2023-11-20T14:47:33Z,115080.346,"c(""distractor1"", ""distractor2"", ""distractor3"")",Gegenwart,hadhara,s,katiba,jokofu,mikopo,NA,NA,NA,NA,NA,NA,NA,NA,NA,NA,NA,NA,NA,NA,NA,NA,NA,NA,NA,NA,NA,NA,NA
bd379,task,flow.Sequence,1_1_3,NA,NA,completion,8844.601,106206.40000001,106202.333,106219.13,115063.731,115065.70000002,2023-11-20T14:47:33Z,115080.346,"c(""distractor1"", ""distractor2"", ""distractor3"")",Gegenwart,hadhara,s,katiba,jokofu,mikopo,NA,NA,NA,NA,NA,NA,NA,NA,NA,NA,NA,NA,NA,NA,NA,NA,NA,NA,NA,NA,NA,NA,NA
bd379,Deep Question,html.Page,1_1_4_0_0,NA,NA,form submission,3761.554000006,115066,115063.731,115080.346,118841.90000001,118842,2023-11-20T14:47:37Z,118844.3,"c(""distractor1"", ""distractor2"", ""distractor3"")",Qualität,mtindo,d,NA,NA,NA,klo,NA,NA,NA,NA,NA,NA,NA,NA,NA,NA,NA,NA,NA,NA,NA,NA,NA,NA,NA,NA,NA,NA
bd379,"""Richtig""-Screen",canvas.Screen,1_1_4_0_1,NA,NA,skipped,NA,118843.70000002,NA,NA,118841.90000001,118843.90000001,2023-11-20T14:47:37Z,118844.3,"c(""distractor1"", ""distractor2"", ""distractor3"")",Qualität,mtindo,d,NA,NA,NA,NA,NA,NA,NA,NA,NA,NA,NA,NA,NA,NA,NA,NA,NA,NA,NA,NA,NA,NA,NA,NA,NA,NA
bd379,"""Falsch""-Screen",canvas.Screen,1_1_4_0_2,NA,NA,timeout,4997.45,118844.40000001,118828.131,118844.3,123824.725,123826,2023-11-20T14:47:42Z,123841.75,"c(""distractor1"", ""distractor2"", ""distractor3"")",Qualität,mtindo,d,NA,NA,NA,NA,NA,0,NA,NA,NA,NA,NA,NA,NA,NA,NA,NA,NA,NA,NA,NA,NA,NA,NA,NA,NA,NA
bd379,deep,flow.Sequence,1_1_4_0,NA,NA,completion,8744.379,115065.90000001,115063.731,115080.346,123824.725,123826.40000001,2023-11-20T14:47:42Z,123841.75,"c(""distractor1"", ""distractor2"", ""distractor3"")",Qualität,mtindo,d,NA,NA,NA,NA,NA,NA,NA,NA,NA,NA,NA,NA,NA,NA,NA,NA,NA,NA,NA,NA,NA,NA,NA,NA,NA,NA
bd379,shallow,flow.Sequence,1_1_4_1,NA,NA,skipped,NA,123826.59999999,NA,NA,123824.725,123826.80000001,2023-11-20T14:47:42Z,123841.75,"c(""distractor1"", ""distractor2"", ""distractor3"")",Qualität,mtindo,d,NA,NA,NA,NA,NA,NA,NA,NA,NA,NA,NA,NA,NA,NA,NA,NA,NA,NA,NA,NA,NA,NA,NA,NA,NA,NA
bd379,task,flow.Sequence,1_1_4,NA,NA,completion,8744.379,115065.90000001,115063.731,115080.346,123824.725,123827,2023-11-20T14:47:42Z,123841.75,"c(""distractor1"", ""distractor2"", ""distractor3"")",Qualität,mtindo,d,NA,NA,NA,NA,NA,NA,NA,NA,NA,NA,NA,NA,NA,NA,NA,NA,NA,NA,NA,NA,NA,NA,NA,NA,NA,NA
bd379,deep,flow.Sequence,1_1_5_0,NA,NA,skipped,NA,123827.20000002,NA,NA,123824.725,123827.30000001,2023-11-20T14:47:42Z,123841.75,"c(""distractor1"", ""distractor2"", ""distractor3"")",Rückhalt,msaada,s,muhula,auwali,kiwimbe,NA,NA,NA,NA,NA,NA,NA,NA,NA,NA,NA,NA,NA,NA,NA,NA,NA,NA,NA,NA,NA,NA,NA
bd379,Shallow Question,html.Page,1_1_5_1_0,NA,NA,form submission,6874.25,123827.5,123824.725,123841.75,130716,130716.30000001,2023-11-20T14:47:49Z,130720.441,"c(""distractor1"", ""distractor2"", ""distractor3"")",Rückhalt,msaada,s,muhula,auwali,kiwimbe,muhula,NA,NA,NA,NA,NA,NA,NA,NA,NA,NA,NA,NA,NA,NA,NA,NA,NA,NA,NA,NA,NA,NA
bd379,"""Richtig""-Screen",canvas.Screen,1_1_5_1_1,NA,NA,skipped,NA,130719.5,NA,NA,130716,130719.59999999,2023-11-20T14:47:49Z,130720.441,"c(""distractor1"", ""distractor2"", ""distractor3"")",Rückhalt,msaada,s,muhula,auwali,kiwimbe,NA,NA,NA,NA,NA,NA,NA,NA,NA,NA,NA,NA,NA,NA,NA,NA,NA,NA,NA,NA,NA,NA,NA
bd379,"""Falsch""-Screen",canvas.Screen,1_1_5_1_2,NA,NA,timeout,4997.222,130720.70000002,130704.099,130720.441,135701.152,135701.70000002,2023-11-20T14:47:54Z,135717.663,"c(""distractor1"", ""distractor2"", ""distractor3"")",Rückhalt,msaada,s,muhula,auwali,kiwimbe,NA,NA,0,NA,NA,NA,NA,NA,NA,NA,NA,NA,NA,NA,NA,NA,NA,NA,NA,NA,NA,NA,NA
bd379,shallow,flow.Sequence,1_1_5_1,NA,NA,completion,11859.402,123827.40000001,123824.725,123841.75,135701.152,135701.80000001,2023-11-20T14:47:54Z,135717.663,"c(""distractor1"", ""distractor2"", ""distractor3"")",Rückhalt,msaada,s,muhula,auwali,kiwimbe,NA,NA,NA,NA,NA,NA,NA,NA,NA,NA,NA,NA,NA,NA,NA,NA,NA,NA,NA,NA,NA,NA,NA
bd379,task,flow.Sequence,1_1_5,NA,NA,completion,11859.402,123827.09999999,123824.725,123841.75,135701.152,135701.90000001,2023-11-20T14:47:54Z,135717.663,"c(""distractor1"", ""distractor2"", ""distractor3"")",Rückhalt,msaada,s,muhula,auwali,kiwimbe,NA,NA,NA,NA,NA,NA,NA,NA,NA,NA,NA,NA,NA,NA,NA,NA,NA,NA,NA,NA,NA,NA,NA
bd379,block,flow.Loop,1_1,NA,NA,completion,76903.474,58785.300000012,58779.912,58797.678,135701.152,135702.09999999,2023-11-20T14:47:54Z,135717.663,"c(""distractor1"", ""distractor2"", ""distractor3"")",NA,NA,NA,NA,NA,NA,NA,NA,NA,NA,NA,NA,NA,NA,NA,NA,NA,NA,NA,NA,NA,NA,NA,NA,NA,NA,NA,NA,NA
bd379,Practice,flow.Sequence,1,NA,NA,completion,84532.04,51158.200000018,51153.734,51169.112,135701.152,135702.20000002,2023-11-20T14:47:54Z,135717.663,NULL,NA,NA,NA,NA,NA,NA,NA,NA,NA,NA,NA,NA,NA,NA,NA,NA,NA,NA,NA,NA,NA,NA,NA,NA,NA,NA,NA,NA,NA
bd379,Experiment start,canvas.Screen,2,weiter,keypress(q),response,12935.537000018,135702.30000001,135701.152,135717.663,148653.20000002,148654,2023-11-20T14:48:07Z,148709.448,NULL,NA,NA,NA,NA,NA,NA,NA,NA,NA,NA,NA,NA,NA,NA,NA,NA,NA,NA,NA,NA,NA,NA,NA,NA,NA,NA,NA,NA,NA
bd379,Deep Question,html.Page,3_0_0_0_0_0_0,NA,NA,form submission,5251.7520000179,148717,148638.921,148709.448,153961.20000002,153961.5,2023-11-20T14:48:12Z,153972.975,NULL,Wechsel,ugeuzaji,d,NA,NA,NA,kto,NA,NA,0,NA,NA,NA,NA,NA,NA,NA,NA,NA,NA,NA,NA,NA,NA,NA,NA,NA,NA,NA
bd379,"""Richtig""-Screen",canvas.Screen,3_0_0_0_0_0_1,NA,NA,skipped,NA,153964.5,NA,NA,153961.20000002,153964.80000001,2023-11-20T14:48:12Z,153972.975,NULL,Wechsel,ugeuzaji,d,NA,NA,NA,NA,sdf,NA,0,NA,NA,NA,NA,NA,NA,NA,NA,NA,NA,NA,NA,NA,NA,NA,NA,NA,NA,NA
bd379,"""Falsch""-Screen",canvas.Screen,3_0_0_0_0_0_2,NA,NA,timeout,4997.232,153965.59999999,153956.838,153972.975,158953.38,158954.40000001,2023-11-20T14:48:17Z,158970.207,NULL,Wechsel,ugeuzaji,d,NA,NA,NA,NA,sdf,0,0,NA,NA,NA,NA,NA,NA,NA,NA,NA,NA,NA,NA,NA,NA,NA,NA,NA,NA,NA
bd379,deep,flow.Sequence,3_0_0_0_0_0,NA,NA,completion,10243.932,148717,148638.921,148709.448,158953.38,158954.70000002,2023-11-20T14:48:17Z,158970.207,NULL,Wechsel,ugeuzaji,d,NA,NA,NA,NA,sdf,NA,0,NA,NA,NA,NA,NA,NA,NA,NA,NA,NA,NA,NA,NA,NA,NA,NA,NA,NA,NA
bd379,shallow,flow.Sequence,3_0_0_0_0_1,NA,NA,skipped,NA,158954.90000001,NA,NA,158953.38,158955,2023-11-20T14:48:17Z,158970.207,NULL,Wechsel,ugeuzaji,d,NA,NA,NA,NA,sdf,NA,0,NA,NA,NA,NA,NA,NA,NA,NA,NA,NA,NA,NA,NA,NA,NA,NA,NA,NA,NA
bd379,task,flow.Sequence,3_0_0_0_0,NA,NA,completion,10243.932,148717,148638.921,148709.448,158953.38,158955.30000001,2023-11-20T14:48:17Z,158970.207,NULL,Wechsel,ugeuzaji,d,NA,NA,NA,NA,sdf,NA,0,NA,NA,NA,NA,NA,NA,NA,NA,NA,NA,NA,NA,NA,NA,NA,NA,NA,NA,NA
bd379,deep,flow.Sequence,3_0_0_0_1_0,NA,NA,skipped,NA,158955.40000001,NA,NA,158953.38,158955.5,2023-11-20T14:48:17Z,158970.207,NULL,Kanzler,diwani,s,rasilmali,mahitaji,maabudu,NA,sdf,NA,0,NA,NA,NA,NA,NA,NA,NA,NA,NA,NA,NA,NA,NA,NA,NA,NA,NA,NA,NA
bd379,Shallow Question,html.Page,3_0_0_0_1_1_0,NA,NA,form submission,12375.093000012,158955.70000002,158953.38,158970.207,171345.30000001,171345.59999999,2023-11-20T14:48:29Z,171345.611,NULL,Kanzler,diwani,s,rasilmali,mahitaji,maabudu,diwani,NA,NA,0,NA,NA,NA,NA,NA,NA,NA,NA,NA,NA,NA,NA,NA,NA,NA,NA,NA,NA,NA
bd379,"""Richtig""-Screen",canvas.Screen,3_0_0_0_1_1_1,NA,NA,timeout,4997.468,171348.70000002,171329.303,171345.611,176325.916,176327.59999999,2023-11-20T14:48:34Z,176343.079,NULL,Kanzler,diwani,s,rasilmali,mahitaji,maabudu,NA,sdf,1,0,NA,NA,NA,NA,NA,NA,NA,NA,NA,NA,NA,NA,NA,NA,NA,NA,NA,NA,NA
bd379,"""Falsch""-Screen",canvas.Screen,3_0_0_0_1_1_2,NA,NA,skipped,NA,176329.80000001,NA,NA,176325.916,176329.90000001,2023-11-20T14:48:34Z,176343.079,NULL,Kanzler,diwani,s,rasilmali,mahitaji,maabudu,NA,sdf,NA,0,NA,NA,NA,NA,NA,NA,NA,NA,NA,NA,NA,NA,NA,NA,NA,NA,NA,NA,NA
bd379,shallow,flow.Sequence,3_0_0_0_1_1,NA,NA,completion,17355.709,158955.59999999,158953.38,158970.207,176325.916,176330,2023-11-20T14:48:34Z,176343.079,NULL,Kanzler,diwani,s,rasilmali,mahitaji,maabudu,NA,sdf,NA,0,NA,NA,NA,NA,NA,NA,NA,NA,NA,NA,NA,NA,NA,NA,NA,NA,NA,NA,NA
bd379,task,flow.Sequence,3_0_0_0_1,NA,NA,completion,17355.709,158955.30000001,158953.38,158970.207,176325.916,176330.09999999,2023-11-20T14:48:34Z,176343.079,NULL,Kanzler,diwani,s,rasilmali,mahitaji,maabudu,NA,sdf,NA,0,NA,NA,NA,NA,NA,NA,NA,NA,NA,NA,NA,NA,NA,NA,NA,NA,NA,NA,NA
bd379,Deep Question,html.Page,3_0_0_0_2_0_0,NA,NA,form submission,11378.421,176330.20000002,176325.916,176343.079,187721.5,187721.70000002,2023-11-20T14:48:46Z,187735.732,NULL,Sänger,mwimbaji,d,NA,NA,NA,tkoo,NA,NA,0,NA,NA,NA,NA,NA,NA,NA,NA,NA,NA,NA,NA,NA,NA,NA,NA,NA,NA,NA
bd379,"""Richtig""-Screen",canvas.Screen,3_0_0_0_2_0_1,NA,NA,skipped,NA,187723.40000001,NA,NA,187721.5,187723.5,2023-11-20T14:48:46Z,187735.732,NULL,Sänger,mwimbaji,d,NA,NA,NA,NA,sdf,NA,0,NA,NA,NA,NA,NA,NA,NA,NA,NA,NA,NA,NA,NA,NA,NA,NA,NA,NA,NA
bd379,"""Falsch""-Screen",canvas.Screen,3_0_0_0_2_0_2,NA,NA,timeout,4996.955,187724,187719.117,187735.732,192715.878,192717.59999999,2023-11-20T14:48:51Z,192732.687,NULL,Sänger,mwimbaji,d,NA,NA,NA,NA,sdf,0,0,NA,NA,NA,NA,NA,NA,NA,NA,NA,NA,NA,NA,NA,NA,NA,NA,NA,NA,NA
bd379,deep,flow.Sequence,3_0_0_0_2_0,NA,NA,completion,16372.799,176330.20000002,176325.916,176343.079,192715.878,192717.70000002,2023-11-20T14:48:51Z,192732.687,NULL,Sänger,mwimbaji,d,NA,NA,NA,NA,sdf,NA,0,NA,NA,NA,NA,NA,NA,NA,NA,NA,NA,NA,NA,NA,NA,NA,NA,NA,NA,NA
bd379,shallow,flow.Sequence,3_0_0_0_2_1,NA,NA,skipped,NA,192717.70000002,NA,NA,192715.878,192717.70000002,2023-11-20T14:48:51Z,192732.687,NULL,Sänger,mwimbaji,d,NA,NA,NA,NA,sdf,NA,0,NA,NA,NA,NA,NA,NA,NA,NA,NA,NA,NA,NA,NA,NA,NA,NA,NA,NA,NA
bd379,task,flow.Sequence,3_0_0_0_2,NA,NA,completion,16372.799,176330.20000002,176325.916,176343.079,192715.878,192717.80000001,2023-11-20T14:48:51Z,192732.687,NULL,Sänger,mwimbaji,d,NA,NA,NA,NA,sdf,NA,0,NA,NA,NA,NA,NA,NA,NA,NA,NA,NA,NA,NA,NA,NA,NA,NA,NA,NA,NA
bd379,deep,flow.Sequence,3_0_0_0_3_0,NA,NA,skipped,NA,192717.80000001,NA,NA,192715.878,192717.80000001,2023-11-20T14:48:51Z,192732.687,NULL,Abrechnung,uhasibu,s,kusahihisha,mpambano,mashambulizi,NA,sdf,NA,0,NA,NA,NA,NA,NA,NA,NA,NA,NA,NA,NA,NA,NA,NA,NA,NA,NA,NA,NA
bd379,Shallow Question,html.Page,3_0_0_0_3_1_0,NA,NA,form submission,23478.213000006,192717.90000001,192715.878,192732.687,216210.90000001,216211.09999999,2023-11-20T14:49:14Z,216218.269,NULL,Abrechnung,uhasibu,s,kusahihisha,mpambano,mashambulizi,uhasibu,NA,NA,0,NA,NA,NA,NA,NA,NA,NA,NA,NA,NA,NA,NA,NA,NA,NA,NA,NA,NA,NA
bd379,"""Richtig""-Screen",canvas.Screen,3_0_0_0_3_1_1,NA,NA,timeout,4997.165,216213.5,216202.066,216218.269,221198.85,221199.40000001,2023-11-20T14:49:19Z,221215.434,NULL,Abrechnung,uhasibu,s,kusahihisha,mpambano,mashambulizi,NA,sdf,1,0,NA,NA,NA,NA,NA,NA,NA,NA,NA,NA,NA,NA,NA,NA,NA,NA,NA,NA,NA
bd379,"""Falsch""-Screen",canvas.Screen,3_0_0_0_3_1_2,NA,NA,skipped,NA,221201.59999999,NA,NA,221198.85,221201.70000002,2023-11-20T14:49:19Z,221215.434,NULL,Abrechnung,uhasibu,s,kusahihisha,mpambano,mashambulizi,NA,sdf,NA,0,NA,NA,NA,NA,NA,NA,NA,NA,NA,NA,NA,NA,NA,NA,NA,NA,NA,NA,NA
bd379,shallow,flow.Sequence,3_0_0_0_3_1,NA,NA,completion,28466.163,192717.80000001,192715.878,192732.687,221198.85,221201.90000001,2023-11-20T14:49:19Z,221215.434,NULL,Abrechnung,uhasibu,s,kusahihisha,mpambano,mashambulizi,NA,sdf,NA,0,NA,NA,NA,NA,NA,NA,NA,NA,NA,NA,NA,NA,NA,NA,NA,NA,NA,NA,NA
bd379,task,flow.Sequence,3_0_0_0_3,NA,NA,completion,28466.163,192717.80000001,192715.878,192732.687,221198.85,221202.59999999,2023-11-20T14:49:19Z,221215.434,NULL,Abrechnung,uhasibu,s,kusahihisha,mpambano,mashambulizi,NA,sdf,NA,0,NA,NA,NA,NA,NA,NA,NA,NA,NA,NA,NA,NA,NA,NA,NA,NA,NA,NA,NA
bd379,deep,flow.Sequence,3_0_0_0_4_0,NA,NA,skipped,NA,221202.80000001,NA,NA,221198.85,221202.80000001,2023-11-20T14:49:19Z,221215.434,NULL,Flexibilität,kubadilika,s,enjini,usikilivu,hesabu,NA,sdf,NA,0,NA,NA,NA,NA,NA,NA,NA,NA,NA,NA,NA,NA,NA,NA,NA,NA,NA,NA,NA
bd379,Shallow Question,html.Page,3_0_0_0_4_1_0,NA,NA,form submission,6372.7660000179,221202.90000001,221198.85,221215.434,227588.20000002,227588.30000001,2023-11-20T14:49:26Z,227594.58,NULL,Flexibilität,kubadilika,s,enjini,usikilivu,hesabu,enjini,NA,NA,0,NA,NA,NA,NA,NA,NA,NA,NA,NA,NA,NA,NA,NA,NA,NA,NA,NA,NA,NA
bd379,"""Richtig""-Screen",canvas.Screen,3_0_0_0_4_1_1,NA,NA,skipped,NA,227589.80000001,NA,NA,227588.20000002,227589.90000001,2023-11-20T14:49:26Z,227594.58,NULL,Flexibilität,kubadilika,s,enjini,usikilivu,hesabu,NA,sdf,NA,0,NA,NA,NA,NA,NA,NA,NA,NA,NA,NA,NA,NA,NA,NA,NA,NA,NA,NA,NA
bd379,"""Falsch""-Screen",canvas.Screen,3_0_0_0_4_1_2,NA,NA,timeout,4997.48,227590.30000001,227578.365,227594.58,232574.836,232577.5,2023-11-20T14:49:31Z,232592.06,NULL,Flexibilität,kubadilika,s,enjini,usikilivu,hesabu,NA,sdf,0,0,NA,NA,NA,NA,NA,NA,NA,NA,NA,NA,NA,NA,NA,NA,NA,NA,NA,NA,NA
bd379,shallow,flow.Sequence,3_0_0_0_4_1,NA,NA,completion,11359.402,221202.90000001,221198.85,221215.434,232574.836,232577.70000002,2023-11-20T14:49:31Z,232592.06,NULL,Flexibilität,kubadilika,s,enjini,usikilivu,hesabu,NA,sdf,NA,0,NA,NA,NA,NA,NA,NA,NA,NA,NA,NA,NA,NA,NA,NA,NA,NA,NA,NA,NA
bd379,task,flow.Sequence,3_0_0_0_4,NA,NA,completion,11359.402,221202.70000002,221198.85,221215.434,232574.836,232577.70000002,2023-11-20T14:49:31Z,232592.06,NULL,Flexibilität,kubadilika,s,enjini,usikilivu,hesabu,NA,sdf,NA,0,NA,NA,NA,NA,NA,NA,NA,NA,NA,NA,NA,NA,NA,NA,NA,NA,NA,NA,NA
bd379,Deep Question,html.Page,3_0_0_0_5_0_0,NA,NA,form submission,5343.840000006,232577.80000001,232574.836,232592.06,237935.90000001,237936.20000002,2023-11-20T14:49:36Z,237938.212,NULL,Erneuerung,ukarabati,d,NA,NA,NA,knm,NA,NA,0,NA,NA,NA,NA,NA,NA,NA,NA,NA,NA,NA,NA,NA,NA,NA,NA,NA,NA,NA
bd379,"""Richtig""-Screen",canvas.Screen,3_0_0_0_5_0_1,NA,NA,skipped,NA,237939.20000002,NA,NA,237935.90000001,237939.40000001,2023-11-20T14:49:36Z,237938.212,NULL,Erneuerung,ukarabati,d,NA,NA,NA,NA,sdf,NA,0,NA,NA,NA,NA,NA,NA,NA,NA,NA,NA,NA,NA,NA,NA,NA,NA,NA,NA,NA
bd379,"""Falsch""-Screen",canvas.Screen,3_0_0_0_5_0_2,NA,NA,timeout,4997.593,237940.09999999,237921.969,237938.212,242918.789,242919.80000001,2023-11-20T14:49:41Z,242935.805,NULL,Erneuerung,ukarabati,d,NA,NA,NA,NA,sdf,0,0,NA,NA,NA,NA,NA,NA,NA,NA,NA,NA,NA,NA,NA,NA,NA,NA,NA,NA,NA
bd379,deep,flow.Sequence,3_0_0_0_5_0,NA,NA,completion,10326.729,232577.80000001,232574.836,232592.06,242918.789,242920.30000001,2023-11-20T14:49:41Z,242935.805,NULL,Erneuerung,ukarabati,d,NA,NA,NA,NA,sdf,NA,0,NA,NA,NA,NA,NA,NA,NA,NA,NA,NA,NA,NA,NA,NA,NA,NA,NA,NA,NA
bd379,shallow,flow.Sequence,3_0_0_0_5_1,NA,NA,skipped,NA,242920.40000001,NA,NA,242918.789,242920.5,2023-11-20T14:49:41Z,242935.805,NULL,Erneuerung,ukarabati,d,NA,NA,NA,NA,sdf,NA,0,NA,NA,NA,NA,NA,NA,NA,NA,NA,NA,NA,NA,NA,NA,NA,NA,NA,NA,NA
bd379,task,flow.Sequence,3_0_0_0_5,NA,NA,completion,10326.729,232577.80000001,232574.836,232592.06,242918.789,242920.70000002,2023-11-20T14:49:41Z,242935.805,NULL,Erneuerung,ukarabati,d,NA,NA,NA,NA,sdf,NA,0,NA,NA,NA,NA,NA,NA,NA,NA,NA,NA,NA,NA,NA,NA,NA,NA,NA,NA,NA
bd379,Deep Question,html.Page,3_0_0_0_6_0_0,NA,NA,form submission,9060.8950000179,242920.90000001,242918.789,242935.805,251996.70000002,251996.90000001,2023-11-20T14:49:50Z,252013.224,NULL,Angreifer,mshambulizi,d,NA,NA,NA,angr,NA,NA,0,NA,NA,NA,NA,NA,NA,NA,NA,NA,NA,NA,NA,NA,NA,NA,NA,NA,NA,NA
bd379,"""Richtig""-Screen",canvas.Screen,3_0_0_0_6_0_1,NA,NA,skipped,NA,252000.30000001,NA,NA,251996.70000002,252000.5,2023-11-20T14:49:50Z,252013.224,NULL,Angreifer,mshambulizi,d,NA,NA,NA,NA,sdf,NA,0,NA,NA,NA,NA,NA,NA,NA,NA,NA,NA,NA,NA,NA,NA,NA,NA,NA,NA,NA
bd379,"""Falsch""-Screen",canvas.Screen,3_0_0_0_6_0_2,NA,NA,timeout,4996.943,252001.40000001,251979.846,252013.224,256993.322,256994.30000001,2023-11-20T14:49:55Z,257010.167,NULL,Angreifer,mshambulizi,d,NA,NA,NA,NA,sdf,0,0,NA,NA,NA,NA,NA,NA,NA,NA,NA,NA,NA,NA,NA,NA,NA,NA,NA,NA,NA
bd379,deep,flow.Sequence,3_0_0_0_6_0,NA,NA,completion,14057.517,242920.90000001,242918.789,242935.805,256993.322,256994.70000002,2023-11-20T14:49:55Z,257010.167,NULL,Angreifer,mshambulizi,d,NA,NA,NA,NA,sdf,NA,0,NA,NA,NA,NA,NA,NA,NA,NA,NA,NA,NA,NA,NA,NA,NA,NA,NA,NA,NA
bd379,shallow,flow.Sequence,3_0_0_0_6_1,NA,NA,skipped,NA,256994.80000001,NA,NA,256993.322,256995,2023-11-20T14:49:55Z,257010.167,NULL,Angreifer,mshambulizi,d,NA,NA,NA,NA,sdf,NA,0,NA,NA,NA,NA,NA,NA,NA,NA,NA,NA,NA,NA,NA,NA,NA,NA,NA,NA,NA
bd379,task,flow.Sequence,3_0_0_0_6,NA,NA,completion,14057.517,242920.90000001,242918.789,242935.805,256993.322,256995.20000002,2023-11-20T14:49:55Z,257010.167,NULL,Angreifer,mshambulizi,d,NA,NA,NA,NA,sdf,NA,0,NA,NA,NA,NA,NA,NA,NA,NA,NA,NA,NA,NA,NA,NA,NA,NA,NA,NA,NA
bd379,deep,flow.Sequence,3_0_0_0_7_0,NA,NA,skipped,NA,256995.40000001,NA,NA,256993.322,256995.5,2023-11-20T14:49:55Z,257010.167,NULL,Atmosphäre,angahewa,s,kuteseka,usahihi,kutoamini,NA,sdf,NA,0,NA,NA,NA,NA,NA,NA,NA,NA,NA,NA,NA,NA,NA,NA,NA,NA,NA,NA,NA
bd379,Shallow Question,html.Page,3_0_0_0_7_1_0,NA,NA,form submission,7263.5330000179,256995.70000002,256993.322,257010.167,264273.70000002,264273.90000001,2023-11-20T14:50:02Z,264289.102,NULL,Atmosphäre,angahewa,s,kuteseka,usahihi,kutoamini,kuteseka,NA,NA,0,NA,NA,NA,NA,NA,NA,NA,NA,NA,NA,NA,NA,NA,NA,NA,NA,NA,NA,NA
bd379,"""Richtig""-Screen",canvas.Screen,3_0_0_0_7_1_1,NA,NA,skipped,NA,264277,NA,NA,264273.70000002,264277.20000002,2023-11-20T14:50:02Z,264289.102,NULL,Atmosphäre,angahewa,s,kuteseka,usahihi,kutoamini,NA,sdf,NA,0,NA,NA,NA,NA,NA,NA,NA,NA,NA,NA,NA,NA,NA,NA,NA,NA,NA,NA,NA
bd379,"""Falsch""-Screen",canvas.Screen,3_0_0_0_7_1_2,NA,NA,timeout,4996.813,264278.09999999,264272.519,264289.102,269269.439,269270.40000001,2023-11-20T14:50:07Z,269285.915,NULL,Atmosphäre,angahewa,s,kuteseka,usahihi,kutoamini,NA,sdf,0,0,NA,NA,NA,NA,NA,NA,NA,NA,NA,NA,NA,NA,NA,NA,NA,NA,NA,NA,NA
bd379,shallow,flow.Sequence,3_0_0_0_7_1,NA,NA,completion,12259.272,256995.70000002,256993.322,257010.167,269269.439,269270.70000002,2023-11-20T14:50:07Z,269285.915,NULL,Atmosphäre,angahewa,s,kuteseka,usahihi,kutoamini,NA,sdf,NA,0,NA,NA,NA,NA,NA,NA,NA,NA,NA,NA,NA,NA,NA,NA,NA,NA,NA,NA,NA
bd379,task,flow.Sequence,3_0_0_0_7,NA,NA,completion,12259.272,256995.30000001,256993.322,257010.167,269269.439,269270.90000001,2023-11-20T14:50:07Z,269285.915,NULL,Atmosphäre,angahewa,s,kuteseka,usahihi,kutoamini,NA,sdf,NA,0,NA,NA,NA,NA,NA,NA,NA,NA,NA,NA,NA,NA,NA,NA,NA,NA,NA,NA,NA
bd379,block,flow.Loop,3_0_0_0,NA,NA,completion,120559.991,148717,148638.921,148709.448,269269.439,269271.09999999,2023-11-20T14:50:07Z,269285.915,NULL,NA,NA,NA,NA,NA,NA,NA,sdf,NA,0,NA,NA,NA,NA,NA,NA,NA,NA,NA,NA,NA,NA,NA,NA,NA,NA,NA,NA,NA
bd379,weiter,canvas.Screen,3_0_0_1,sdf,keypress(Space),response,2768.7850000179,269271.20000002,269269.439,269285.915,272054.70000002,272055.5,2023-11-20T14:50:10Z,272084.042,NULL,NA,NA,NA,NA,NA,NA,NA,sdf,NA,0,NA,NA,NA,NA,NA,NA,NA,NA,NA,NA,NA,NA,NA,NA,NA,NA,NA,NA,NA
bd379,check continue,flow.Sequence,3_0_0,NA,NA,completion,123345.25200002,148716.90000001,148638.921,148709.448,272054.70000002,272055.80000001,2023-11-20T14:50:10Z,272084.042,NULL,NA,NA,NA,NA,NA,NA,NA,sdf,NA,0,NA,NA,NA,NA,NA,NA,NA,NA,NA,NA,NA,NA,NA,NA,NA,NA,NA,NA,NA
bd379,Deep Question,html.Page,3_0_1_0_0_0_0,NA,NA,form submission,9372.1580000179,272088.70000002,272051.436,272084.042,281456.20000002,281456.40000001,2023-11-20T14:50:20Z,281461.618,NULL,Wechsel,ugeuzaji,d,NA,NA,NA,from,NA,NA,1,NA,NA,NA,NA,NA,NA,NA,NA,NA,NA,NA,NA,NA,NA,NA,NA,NA,NA,NA
bd379,"""Richtig""-Screen",canvas.Screen,3_0_1_0_0_0_1,NA,NA,skipped,NA,281458.20000002,NA,NA,281456.20000002,281458.30000001,2023-11-20T14:50:20Z,281461.618,NULL,Wechsel,ugeuzaji,d,NA,NA,NA,NA,sdfdsf,NA,1,NA,NA,NA,NA,NA,NA,NA,NA,NA,NA,NA,NA,NA,NA,NA,NA,NA,NA,NA
bd379,"""Falsch""-Screen",canvas.Screen,3_0_1_0_0_0_2,NA,NA,timeout,4997.461,281458.90000001,281445.261,281461.618,286442.402,286443.5,2023-11-20T14:50:25Z,286459.079,NULL,Wechsel,ugeuzaji,d,NA,NA,NA,NA,sdfdsf,0,1,NA,NA,NA,NA,NA,NA,NA,NA,NA,NA,NA,NA,NA,NA,NA,NA,NA,NA,NA
bd379,deep,flow.Sequence,3_0_1_0_0_0,NA,NA,completion,14358.36,272088.70000002,272051.436,272084.042,286442.402,286443.90000001,2023-11-20T14:50:25Z,286459.079,NULL,Wechsel,ugeuzaji,d,NA,NA,NA,NA,sdfdsf,NA,1,NA,NA,NA,NA,NA,NA,NA,NA,NA,NA,NA,NA,NA,NA,NA,NA,NA,NA,NA
bd379,shallow,flow.Sequence,3_0_1_0_0_1,NA,NA,skipped,NA,286444,NA,NA,286442.402,286444.20000002,2023-11-20T14:50:25Z,286459.079,NULL,Wechsel,ugeuzaji,d,NA,NA,NA,NA,sdfdsf,NA,1,NA,NA,NA,NA,NA,NA,NA,NA,NA,NA,NA,NA,NA,NA,NA,NA,NA,NA,NA
bd379,task,flow.Sequence,3_0_1_0_0,NA,NA,completion,14358.36,272088.70000002,272051.436,272084.042,286442.402,286444.5,2023-11-20T14:50:25Z,286459.079,NULL,Wechsel,ugeuzaji,d,NA,NA,NA,NA,sdfdsf,NA,1,NA,NA,NA,NA,NA,NA,NA,NA,NA,NA,NA,NA,NA,NA,NA,NA,NA,NA,NA
bd379,deep,flow.Sequence,3_0_1_0_1_0,NA,NA,skipped,NA,286444.70000002,NA,NA,286442.402,286444.80000001,2023-11-20T14:50:25Z,286459.079,NULL,Atmosphäre,angahewa,s,kuteseka,usahihi,kutoamini,NA,sdfdsf,NA,1,NA,NA,NA,NA,NA,NA,NA,NA,NA,NA,NA,NA,NA,NA,NA,NA,NA,NA,NA
bd379,Shallow Question,html.Page,3_0_1_0_1_1_0,NA,NA,form submission,4046.3210000059,286444.90000001,286442.402,286459.079,290505.40000001,290505.70000002,2023-11-20T14:50:29Z,290506.13,NULL,Atmosphäre,angahewa,s,kuteseka,usahihi,kutoamini,kuteseka,NA,NA,1,NA,NA,NA,NA,NA,NA,NA,NA,NA,NA,NA,NA,NA,NA,NA,NA,NA,NA,NA
bd379,"""Richtig""-Screen",canvas.Screen,3_0_1_0_1_1_1,NA,NA,skipped,NA,290508.90000001,NA,NA,290505.40000001,290509.09999999,2023-11-20T14:50:29Z,290506.13,NULL,Atmosphäre,angahewa,s,kuteseka,usahihi,kutoamini,NA,sdfdsf,NA,1,NA,NA,NA,NA,NA,NA,NA,NA,NA,NA,NA,NA,NA,NA,NA,NA,NA,NA,NA
bd379,"""Falsch""-Screen",canvas.Screen,3_0_1_0_1_1_2,NA,NA,timeout,4997.256,290510,290489.857,290506.13,295486.699,295487.70000002,2023-11-20T14:50:34Z,295503.386,NULL,Atmosphäre,angahewa,s,kuteseka,usahihi,kutoamini,NA,sdfdsf,0,1,NA,NA,NA,NA,NA,NA,NA,NA,NA,NA,NA,NA,NA,NA,NA,NA,NA,NA,NA
bd379,shallow,flow.Sequence,3_0_1_0_1_1,NA,NA,completion,9027.62,286444.90000001,286442.402,286459.079,295486.699,295488.09999999,2023-11-20T14:50:34Z,295503.386,NULL,Atmosphäre,angahewa,s,kuteseka,usahihi,kutoamini,NA,sdfdsf,NA,1,NA,NA,NA,NA,NA,NA,NA,NA,NA,NA,NA,NA,NA,NA,NA,NA,NA,NA,NA
bd379,task,flow.Sequence,3_0_1_0_1,NA,NA,completion,9027.62,286444.59999999,286442.402,286459.079,295486.699,295488.30000001,2023-11-20T14:50:34Z,295503.386,NULL,Atmosphäre,angahewa,s,kuteseka,usahihi,kutoamini,NA,sdfdsf,NA,1,NA,NA,NA,NA,NA,NA,NA,NA,NA,NA,NA,NA,NA,NA,NA,NA,NA,NA,NA
bd379,Deep Question,html.Page,3_0_1_0_2_0_0,NA,NA,form submission,18730.314000018,295488.40000001,295486.699,295503.386,314233.70000002,314233.90000001,2023-11-20T14:50:52Z,314241.746,NULL,Erneuerung,ukarabati,d,NA,NA,NA,ushuima,NA,NA,1,NA,NA,NA,NA,NA,NA,NA,NA,NA,NA,NA,NA,NA,NA,NA,NA,NA,NA,NA
bd379,"""Richtig""-Screen",canvas.Screen,3_0_1_0_2_0_1,NA,NA,skipped,NA,314235.40000001,NA,NA,314233.70000002,314235.5,2023-11-20T14:50:52Z,314241.746,NULL,Erneuerung,ukarabati,d,NA,NA,NA,NA,sdfdsf,NA,1,NA,NA,NA,NA,NA,NA,NA,NA,NA,NA,NA,NA,NA,NA,NA,NA,NA,NA,NA
bd379,"""Falsch""-Screen",canvas.Screen,3_0_1_0_2_0_2,NA,NA,timeout,4997.165,314236,314224.997,314241.746,319222.401,319223.40000001,2023-11-20T14:50:57Z,319238.911,NULL,Erneuerung,ukarabati,d,NA,NA,NA,NA,sdfdsf,0,1,NA,NA,NA,NA,NA,NA,NA,NA,NA,NA,NA,NA,NA,NA,NA,NA,NA,NA,NA
bd379,deep,flow.Sequence,3_0_1_0_2_0,NA,NA,completion,23719.015,295488.40000001,295486.699,295503.386,319222.401,319223.80000001,2023-11-20T14:50:57Z,319238.911,NULL,Erneuerung,ukarabati,d,NA,NA,NA,NA,sdfdsf,NA,1,NA,NA,NA,NA,NA,NA,NA,NA,NA,NA,NA,NA,NA,NA,NA,NA,NA,NA,NA
bd379,shallow,flow.Sequence,3_0_1_0_2_1,NA,NA,skipped,NA,319223.90000001,NA,NA,319222.401,319224.20000002,2023-11-20T14:50:57Z,319238.911,NULL,Erneuerung,ukarabati,d,NA,NA,NA,NA,sdfdsf,NA,1,NA,NA,NA,NA,NA,NA,NA,NA,NA,NA,NA,NA,NA,NA,NA,NA,NA,NA,NA
bd379,task,flow.Sequence,3_0_1_0_2,NA,NA,completion,23719.015,295488.40000001,295486.699,295503.386,319222.401,319224.30000001,2023-11-20T14:50:57Z,319238.911,NULL,Erneuerung,ukarabati,d,NA,NA,NA,NA,sdfdsf,NA,1,NA,NA,NA,NA,NA,NA,NA,NA,NA,NA,NA,NA,NA,NA,NA,NA,NA,NA,NA
bd379,Deep Question,html.Page,3_0_1_0_3_0_0,NA,NA,form submission,5047.9890000059,319224.5,319222.401,319238.911,324286.90000001,324287.20000002,2023-11-20T14:51:02Z,324302.275,NULL,Sänger,mwimbaji,d,NA,NA,NA,l,NA,NA,1,NA,NA,NA,NA,NA,NA,NA,NA,NA,NA,NA,NA,NA,NA,NA,NA,NA,NA,NA
bd379,"""Richtig""-Screen",canvas.Screen,3_0_1_0_3_0_1,NA,NA,skipped,NA,324290.20000002,NA,NA,324286.90000001,324290.30000001,2023-11-20T14:51:02Z,324302.275,NULL,Sänger,mwimbaji,d,NA,NA,NA,NA,sdfdsf,NA,1,NA,NA,NA,NA,NA,NA,NA,NA,NA,NA,NA,NA,NA,NA,NA,NA,NA,NA,NA
bd379,"""Falsch""-Screen",canvas.Screen,3_0_1_0_3_0_2,NA,NA,timeout,4997.135,324291.09999999,324285.705,324302.275,329282.499,329283.5,2023-11-20T14:51:07Z,329299.41,NULL,Sänger,mwimbaji,d,NA,NA,NA,NA,sdfdsf,0,1,NA,NA,NA,NA,NA,NA,NA,NA,NA,NA,NA,NA,NA,NA,NA,NA,NA,NA,NA
bd379,deep,flow.Sequence,3_0_1_0_3_0,NA,NA,completion,10043.588,319224.5,319222.401,319238.911,329282.499,329284,2023-11-20T14:51:07Z,329299.41,NULL,Sänger,mwimbaji,d,NA,NA,NA,NA,sdfdsf,NA,1,NA,NA,NA,NA,NA,NA,NA,NA,NA,NA,NA,NA,NA,NA,NA,NA,NA,NA,NA
bd379,shallow,flow.Sequence,3_0_1_0_3_1,NA,NA,skipped,NA,329284.09999999,NA,NA,329282.499,329284.20000002,2023-11-20T14:51:07Z,329299.41,NULL,Sänger,mwimbaji,d,NA,NA,NA,NA,sdfdsf,NA,1,NA,NA,NA,NA,NA,NA,NA,NA,NA,NA,NA,NA,NA,NA,NA,NA,NA,NA,NA
bd379,task,flow.Sequence,3_0_1_0_3,NA,NA,completion,10043.588,319224.40000001,319222.401,319238.911,329282.499,329284.40000001,2023-11-20T14:51:07Z,329299.41,NULL,Sänger,mwimbaji,d,NA,NA,NA,NA,sdfdsf,NA,1,NA,NA,NA,NA,NA,NA,NA,NA,NA,NA,NA,NA,NA,NA,NA,NA,NA,NA,NA
bd379,Deep Question,html.Page,3_0_1_0_4_0_0,NA,NA,form submission,14494.390000012,329284.70000002,329282.499,329299.41,343793.80000001,343794.09999999,2023-11-20T14:51:22Z,343806.948,NULL,Angreifer,mshambulizi,d,NA,NA,NA,k,NA,NA,1,NA,NA,NA,NA,NA,NA,NA,NA,NA,NA,NA,NA,NA,NA,NA,NA,NA,NA,NA
bd379,"""Richtig""-Screen",canvas.Screen,3_0_1_0_4_0_1,NA,NA,skipped,NA,343797.40000001,NA,NA,343793.80000001,343797.59999999,2023-11-20T14:51:22Z,343806.948,NULL,Angreifer,mshambulizi,d,NA,NA,NA,NA,sdfdsf,NA,1,NA,NA,NA,NA,NA,NA,NA,NA,NA,NA,NA,NA,NA,NA,NA,NA,NA,NA,NA
bd379,"""Falsch""-Screen",canvas.Screen,3_0_1_0_4_0_2,NA,NA,timeout,4997.251,343798.70000002,343790.386,343806.948,348787.257,348788.20000002,2023-11-20T14:51:27Z,348804.199,NULL,Angreifer,mshambulizi,d,NA,NA,NA,NA,sdfdsf,0,1,NA,NA,NA,NA,NA,NA,NA,NA,NA,NA,NA,NA,NA,NA,NA,NA,NA,NA,NA
bd379,deep,flow.Sequence,3_0_1_0_4_0,NA,NA,completion,19487.847,329284.70000002,329282.499,329299.41,348787.257,348788.5,2023-11-20T14:51:27Z,348804.199,NULL,Angreifer,mshambulizi,d,NA,NA,NA,NA,sdfdsf,NA,1,NA,NA,NA,NA,NA,NA,NA,NA,NA,NA,NA,NA,NA,NA,NA,NA,NA,NA,NA
bd379,shallow,flow.Sequence,3_0_1_0_4_1,NA,NA,skipped,NA,348788.70000002,NA,NA,348787.257,348788.90000001,2023-11-20T14:51:27Z,348804.199,NULL,Angreifer,mshambulizi,d,NA,NA,NA,NA,sdfdsf,NA,1,NA,NA,NA,NA,NA,NA,NA,NA,NA,NA,NA,NA,NA,NA,NA,NA,NA,NA,NA
bd379,task,flow.Sequence,3_0_1_0_4,NA,NA,completion,19487.847,329284.59999999,329282.499,329299.41,348787.257,348789.09999999,2023-11-20T14:51:27Z,348804.199,NULL,Angreifer,mshambulizi,d,NA,NA,NA,NA,sdfdsf,NA,1,NA,NA,NA,NA,NA,NA,NA,NA,NA,NA,NA,NA,NA,NA,NA,NA,NA,NA,NA
bd379,deep,flow.Sequence,3_0_1_0_5_0,NA,NA,skipped,NA,348789.30000001,NA,NA,348787.257,348789.40000001,2023-11-20T14:51:27Z,348804.199,NULL,Flexibilität,kubadilika,s,enjini,usikilivu,hesabu,NA,sdfdsf,NA,1,NA,NA,NA,NA,NA,NA,NA,NA,NA,NA,NA,NA,NA,NA,NA,NA,NA,NA,NA
bd379,Shallow Question,html.Page,3_0_1_0_5_1_0,NA,NA,form submission,8267.2010000059,348789.5,348787.257,348804.199,357071.40000001,357071.59999999,2023-11-20T14:51:35Z,357082.309,NULL,Flexibilität,kubadilika,s,enjini,usikilivu,hesabu,hesabu,NA,NA,1,NA,NA,NA,NA,NA,NA,NA,NA,NA,NA,NA,NA,NA,NA,NA,NA,NA,NA,NA
bd379,"""Richtig""-Screen",canvas.Screen,3_0_1_0_5_1_1,NA,NA,skipped,NA,357074.20000002,NA,NA,357071.40000001,357074.30000001,2023-11-20T14:51:35Z,357082.309,NULL,Flexibilität,kubadilika,s,enjini,usikilivu,hesabu,NA,sdfdsf,NA,1,NA,NA,NA,NA,NA,NA,NA,NA,NA,NA,NA,NA,NA,NA,NA,NA,NA,NA,NA
bd379,"""Falsch""-Screen",canvas.Screen,3_0_1_0_5_1_2,NA,NA,timeout,4997.065,357075.09999999,357063.588,357082.309,362062.881,362063.90000001,2023-11-20T14:51:40Z,362079.374,NULL,Flexibilität,kubadilika,s,enjini,usikilivu,hesabu,NA,sdfdsf,0,1,NA,NA,NA,NA,NA,NA,NA,NA,NA,NA,NA,NA,NA,NA,NA,NA,NA,NA,NA
bd379,shallow,flow.Sequence,3_0_1_0_5_1,NA,NA,completion,13258.682,348789.5,348787.257,348804.199,362062.881,362064.30000001,2023-11-20T14:51:40Z,362079.374,NULL,Flexibilität,kubadilika,s,enjini,usikilivu,hesabu,NA,sdfdsf,NA,1,NA,NA,NA,NA,NA,NA,NA,NA,NA,NA,NA,NA,NA,NA,NA,NA,NA,NA,NA
bd379,task,flow.Sequence,3_0_1_0_5,NA,NA,completion,13258.682,348789.30000001,348787.257,348804.199,362062.881,362064.5,2023-11-20T14:51:40Z,362079.374,NULL,Flexibilität,kubadilika,s,enjini,usikilivu,hesabu,NA,sdfdsf,NA,1,NA,NA,NA,NA,NA,NA,NA,NA,NA,NA,NA,NA,NA,NA,NA,NA,NA,NA,NA
bd379,deep,flow.Sequence,3_0_1_0_6_0,NA,NA,skipped,NA,362064.70000002,NA,NA,362062.881,362064.90000001,2023-11-20T14:51:40Z,362079.374,NULL,Abrechnung,uhasibu,s,kusahihisha,mpambano,mashambulizi,NA,sdfdsf,NA,1,NA,NA,NA,NA,NA,NA,NA,NA,NA,NA,NA,NA,NA,NA,NA,NA,NA,NA,NA
bd379,Shallow Question,html.Page,3_0_1_0_6_1_0,NA,NA,form submission,4461.8260000179,362065.09999999,362062.881,362079.374,366541.20000002,366541.40000001,2023-11-20T14:51:45Z,366542.993,NULL,Abrechnung,uhasibu,s,kusahihisha,mpambano,mashambulizi,uhasibu,NA,NA,1,NA,NA,NA,NA,NA,NA,NA,NA,NA,NA,NA,NA,NA,NA,NA,NA,NA,NA,NA
bd379,"""Richtig""-Screen",canvas.Screen,3_0_1_0_6_1_1,NA,NA,timeout,4997.386,366544.5,366525.045,366542.993,371523.258,371523.70000002,2023-11-20T14:51:50Z,371540.379,NULL,Abrechnung,uhasibu,s,kusahihisha,mpambano,mashambulizi,NA,sdfdsf,1,1,NA,NA,NA,NA,NA,NA,NA,NA,NA,NA,NA,NA,NA,NA,NA,NA,NA,NA,NA
bd379,"""Falsch""-Screen",canvas.Screen,3_0_1_0_6_1_2,NA,NA,skipped,NA,371525.09999999,NA,NA,371523.258,371525.20000002,2023-11-20T14:51:50Z,371540.379,NULL,Abrechnung,uhasibu,s,kusahihisha,mpambano,mashambulizi,NA,sdfdsf,NA,1,NA,NA,NA,NA,NA,NA,NA,NA,NA,NA,NA,NA,NA,NA,NA,NA,NA,NA,NA
bd379,shallow,flow.Sequence,3_0_1_0_6_1,NA,NA,completion,9443.884,362065,362062.881,362079.374,371523.258,371525.20000002,2023-11-20T14:51:50Z,371540.379,NULL,Abrechnung,uhasibu,s,kusahihisha,mpambano,mashambulizi,NA,sdfdsf,NA,1,NA,NA,NA,NA,NA,NA,NA,NA,NA,NA,NA,NA,NA,NA,NA,NA,NA,NA,NA
bd379,task,flow.Sequence,3_0_1_0_6,NA,NA,completion,9443.884,362064.59999999,362062.881,362079.374,371523.258,371525.40000001,2023-11-20T14:51:50Z,371540.379,NULL,Abrechnung,uhasibu,s,kusahihisha,mpambano,mashambulizi,NA,sdfdsf,NA,1,NA,NA,NA,NA,NA,NA,NA,NA,NA,NA,NA,NA,NA,NA,NA,NA,NA,NA,NA
bd379,deep,flow.Sequence,3_0_1_0_7_0,NA,NA,skipped,NA,371525.40000001,NA,NA,371523.258,371525.5,2023-11-20T14:51:50Z,371540.379,NULL,Kanzler,diwani,s,rasilmali,mahitaji,maabudu,NA,sdfdsf,NA,1,NA,NA,NA,NA,NA,NA,NA,NA,NA,NA,NA,NA,NA,NA,NA,NA,NA,NA,NA
bd379,Shallow Question,html.Page,3_0_1_0_7_1_0,NA,NA,form submission,6152.720999994,371525.5,371523.258,371540.379,377693.09999999,377693.20000002,2023-11-20T14:51:56Z,377702.787,NULL,Kanzler,diwani,s,rasilmali,mahitaji,maabudu,rasilmali,NA,NA,1,NA,NA,NA,NA,NA,NA,NA,NA,NA,NA,NA,NA,NA,NA,NA,NA,NA,NA,NA
bd379,"""Richtig""-Screen",canvas.Screen,3_0_1_0_7_1_1,NA,NA,skipped,NA,377694.59999999,NA,NA,377693.09999999,377694.80000001,2023-11-20T14:51:56Z,377702.787,NULL,Kanzler,diwani,s,rasilmali,mahitaji,maabudu,NA,sdfdsf,NA,1,NA,NA,NA,NA,NA,NA,NA,NA,NA,NA,NA,NA,NA,NA,NA,NA,NA,NA,NA
bd379,"""Falsch""-Screen",canvas.Screen,3_0_1_0_7_1_2,NA,NA,timeout,4997.005,377695.20000002,377687.785,377702.787,382683.633,382684.59999999,2023-11-20T14:52:01Z,382699.792,NULL,Kanzler,diwani,s,rasilmali,mahitaji,maabudu,NA,sdfdsf,0,1,NA,NA,NA,NA,NA,NA,NA,NA,NA,NA,NA,NA,NA,NA,NA,NA,NA,NA,NA
bd379,shallow,flow.Sequence,3_0_1_0_7_1,NA,NA,completion,11143.254,371525.5,371523.258,371540.379,382683.633,382685.09999999,2023-11-20T14:52:01Z,382699.792,NULL,Kanzler,diwani,s,rasilmali,mahitaji,maabudu,NA,sdfdsf,NA,1,NA,NA,NA,NA,NA,NA,NA,NA,NA,NA,NA,NA,NA,NA,NA,NA,NA,NA,NA
bd379,task,flow.Sequence,3_0_1_0_7,NA,NA,completion,11143.254,371525.40000001,371523.258,371540.379,382683.633,382685.30000001,2023-11-20T14:52:01Z,382699.792,NULL,Kanzler,diwani,s,rasilmali,mahitaji,maabudu,NA,sdfdsf,NA,1,NA,NA,NA,NA,NA,NA,NA,NA,NA,NA,NA,NA,NA,NA,NA,NA,NA,NA,NA
bd379,block,flow.Loop,3_0_1_0,NA,NA,completion,110599.591,272088.70000002,272051.436,272084.042,382683.633,382685.5,2023-11-20T14:52:01Z,382699.792,NULL,NA,NA,NA,NA,NA,NA,NA,sdfdsf,NA,1,NA,NA,NA,NA,NA,NA,NA,NA,NA,NA,NA,NA,NA,NA,NA,NA,NA,NA,NA
bd379,weiter,canvas.Screen,3_0_1_1,sdf,keypress(Space),response,1137.9080000179,382685.70000002,382683.633,382699.792,383837.70000002,383838.5,2023-11-20T14:52:02Z,383849.066,NULL,NA,NA,NA,NA,NA,NA,NA,sdfdsf,NA,1,NA,NA,NA,NA,NA,NA,NA,NA,NA,NA,NA,NA,NA,NA,NA,NA,NA,NA,NA
bd379,check continue,flow.Sequence,3_0_1,NA,NA,completion,111753.65800002,272088.70000002,272051.436,272084.042,383837.70000002,383838.70000002,2023-11-20T14:52:02Z,383849.066,NULL,NA,NA,NA,NA,NA,NA,NA,sdfdsf,NA,1,NA,NA,NA,NA,NA,NA,NA,NA,NA,NA,NA,NA,NA,NA,NA,NA,NA,NA,NA
bd379,Deep Question,html.Page,3_0_2_0_0_0_0,NA,NA,form submission,10276.533999994,383860.40000001,383833.394,383849.066,394125.59999999,394125.90000001,2023-11-20T14:52:12Z,394143.303,NULL,Angreifer,mshambulizi,d,NA,NA,NA,mshambulizi,NA,NA,2,NA,NA,NA,NA,NA,NA,NA,NA,NA,NA,NA,NA,NA,NA,NA,NA,NA,NA,NA
bd379,"""Richtig""-Screen",canvas.Screen,3_0_2_0_0_0_1,NA,NA,timeout,4996.937,394129.20000002,394110.12,394143.303,399123.143,399124.30000001,2023-11-20T14:52:17Z,399140.24,NULL,Angreifer,mshambulizi,d,NA,NA,NA,NA,sdf,1,2,NA,NA,NA,NA,NA,NA,NA,NA,NA,NA,NA,NA,NA,NA,NA,NA,NA,NA,NA
bd379,"""Falsch""-Screen",canvas.Screen,3_0_2_0_0_0_2,NA,NA,skipped,NA,399129.5,NA,NA,399123.143,399129.5,2023-11-20T14:52:17Z,399140.24,NULL,Angreifer,mshambulizi,d,NA,NA,NA,NA,sdf,NA,2,NA,NA,NA,NA,NA,NA,NA,NA,NA,NA,NA,NA,NA,NA,NA,NA,NA,NA,NA
bd379,deep,flow.Sequence,3_0_2_0_0_0,NA,NA,completion,15274.077,383860.40000001,383833.394,383849.066,399123.143,399129.59999999,2023-11-20T14:52:17Z,399140.24,NULL,Angreifer,mshambulizi,d,NA,NA,NA,NA,sdf,NA,2,NA,NA,NA,NA,NA,NA,NA,NA,NA,NA,NA,NA,NA,NA,NA,NA,NA,NA,NA
bd379,shallow,flow.Sequence,3_0_2_0_0_1,NA,NA,skipped,NA,399129.70000002,NA,NA,399123.143,399129.70000002,2023-11-20T14:52:17Z,399140.24,NULL,Angreifer,mshambulizi,d,NA,NA,NA,NA,sdf,NA,2,NA,NA,NA,NA,NA,NA,NA,NA,NA,NA,NA,NA,NA,NA,NA,NA,NA,NA,NA
bd379,task,flow.Sequence,3_0_2_0_0,NA,NA,completion,15274.077,383860.40000001,383833.394,383849.066,399123.143,399129.70000002,2023-11-20T14:52:17Z,399140.24,NULL,Angreifer,mshambulizi,d,NA,NA,NA,NA,sdf,NA,2,NA,NA,NA,NA,NA,NA,NA,NA,NA,NA,NA,NA,NA,NA,NA,NA,NA,NA,NA
bd379,deep,flow.Sequence,3_0_2_0_1_0,NA,NA,skipped,NA,399129.80000001,NA,NA,399123.143,399129.90000001,2023-11-20T14:52:17Z,399140.24,NULL,Abrechnung,uhasibu,s,kusahihisha,mpambano,mashambulizi,NA,sdf,NA,2,NA,NA,NA,NA,NA,NA,NA,NA,NA,NA,NA,NA,NA,NA,NA,NA,NA,NA,NA
bd379,Shallow Question,html.Page,3_0_2_0_1_1_0,NA,NA,form submission,3428.5600000119,399129.90000001,399123.143,399140.24,402568.80000001,402569,2023-11-20T14:52:21Z,402570.953,NULL,Abrechnung,uhasibu,s,kusahihisha,mpambano,mashambulizi,uhasibu,NA,NA,2,NA,NA,NA,NA,NA,NA,NA,NA,NA,NA,NA,NA,NA,NA,NA,NA,NA,NA,NA
bd379,"""Richtig""-Screen",canvas.Screen,3_0_2_0_1_1_1,NA,NA,timeout,4996.956,402571.30000001,402556.151,402570.953,407551.75,407552.90000001,2023-11-20T14:52:26Z,407567.909,NULL,Abrechnung,uhasibu,s,kusahihisha,mpambano,mashambulizi,NA,sdf,1,2,NA,NA,NA,NA,NA,NA,NA,NA,NA,NA,NA,NA,NA,NA,NA,NA,NA,NA,NA
bd379,"""Falsch""-Screen",canvas.Screen,3_0_2_0_1_1_2,NA,NA,skipped,NA,407560,NA,NA,407551.75,407560.30000001,2023-11-20T14:52:26Z,407567.909,NULL,Abrechnung,uhasibu,s,kusahihisha,mpambano,mashambulizi,NA,sdf,NA,2,NA,NA,NA,NA,NA,NA,NA,NA,NA,NA,NA,NA,NA,NA,NA,NA,NA,NA,NA
bd379,shallow,flow.Sequence,3_0_2_0_1_1,NA,NA,completion,8411.51,399129.90000001,399123.143,399140.24,407551.75,407560.59999999,2023-11-20T14:52:26Z,407567.909,NULL,Abrechnung,uhasibu,s,kusahihisha,mpambano,mashambulizi,NA,sdf,NA,2,NA,NA,NA,NA,NA,NA,NA,NA,NA,NA,NA,NA,NA,NA,NA,NA,NA,NA,NA
bd379,task,flow.Sequence,3_0_2_0_1,NA,NA,completion,8411.51,399129.80000001,399123.143,399140.24,407551.75,407560.80000001,2023-11-20T14:52:26Z,407567.909,NULL,Abrechnung,uhasibu,s,kusahihisha,mpambano,mashambulizi,NA,sdf,NA,2,NA,NA,NA,NA,NA,NA,NA,NA,NA,NA,NA,NA,NA,NA,NA,NA,NA,NA,NA
bd379,deep,flow.Sequence,3_0_2_0_2_0,NA,NA,skipped,NA,407561,NA,NA,407551.75,407561.09999999,2023-11-20T14:52:26Z,407567.909,NULL,Flexibilität,kubadilika,s,enjini,usikilivu,hesabu,NA,sdf,NA,2,NA,NA,NA,NA,NA,NA,NA,NA,NA,NA,NA,NA,NA,NA,NA,NA,NA,NA,NA
bd379,Shallow Question,html.Page,3_0_2_0_2_1_0,NA,NA,form submission,9044.7910000179,407561.30000001,407551.75,407567.909,416612.70000002,416612.80000001,2023-11-20T14:52:35Z,416645.985,NULL,Flexibilität,kubadilika,s,enjini,usikilivu,hesabu,kubadilika,NA,NA,2,NA,NA,NA,NA,NA,NA,NA,NA,NA,NA,NA,NA,NA,NA,NA,NA,NA,NA,NA
bd379,"""Richtig""-Screen",canvas.Screen,3_0_2_0_2_1_1,NA,NA,timeout,4997.235,416614.5,416630.55,416645.985,421626.355,421627.30000001,2023-11-20T14:52:40Z,421643.22,NULL,Flexibilität,kubadilika,s,enjini,usikilivu,hesabu,NA,sdf,1,2,NA,NA,NA,NA,NA,NA,NA,NA,NA,NA,NA,NA,NA,NA,NA,NA,NA,NA,NA
bd379,"""Falsch""-Screen",canvas.Screen,3_0_2_0_2_1_2,NA,NA,skipped,NA,421632,NA,NA,421626.355,421632.20000002,2023-11-20T14:52:40Z,421643.22,NULL,Flexibilität,kubadilika,s,enjini,usikilivu,hesabu,NA,sdf,NA,2,NA,NA,NA,NA,NA,NA,NA,NA,NA,NA,NA,NA,NA,NA,NA,NA,NA,NA,NA
bd379,shallow,flow.Sequence,3_0_2_0_2_1,NA,NA,completion,14058.446,407561.20000002,407551.75,407567.909,421626.355,421632.20000002,2023-11-20T14:52:40Z,421643.22,NULL,Flexibilität,kubadilika,s,enjini,usikilivu,hesabu,NA,sdf,NA,2,NA,NA,NA,NA,NA,NA,NA,NA,NA,NA,NA,NA,NA,NA,NA,NA,NA,NA,NA
bd379,task,flow.Sequence,3_0_2_0_2,NA,NA,completion,14058.446,407560.90000001,407551.75,407567.909,421626.355,421632.30000001,2023-11-20T14:52:40Z,421643.22,NULL,Flexibilität,kubadilika,s,enjini,usikilivu,hesabu,NA,sdf,NA,2,NA,NA,NA,NA,NA,NA,NA,NA,NA,NA,NA,NA,NA,NA,NA,NA,NA,NA,NA
bd379,Deep Question,html.Page,3_0_2_0_3_0_0,NA,NA,form submission,5202.9800000179,421632.40000001,421626.355,421643.22,426846.20000002,426846.5,2023-11-20T14:52:45Z,426856.174,NULL,Wechsel,ugeuzaji,d,NA,NA,NA,m,NA,NA,2,NA,NA,NA,NA,NA,NA,NA,NA,NA,NA,NA,NA,NA,NA,NA,NA,NA,NA,NA
bd379,"""Richtig""-Screen",canvas.Screen,3_0_2_0_3_0_1,NA,NA,skipped,NA,426849.5,NA,NA,426846.20000002,426849.59999999,2023-11-20T14:52:45Z,426856.174,NULL,Wechsel,ugeuzaji,d,NA,NA,NA,NA,sdf,NA,2,NA,NA,NA,NA,NA,NA,NA,NA,NA,NA,NA,NA,NA,NA,NA,NA,NA,NA,NA
bd379,"""Falsch""-Screen",canvas.Screen,3_0_2_0_3_0_2,NA,NA,timeout,4996.905,426850.40000001,426840.361,426856.174,431836.436,431837.30000001,2023-11-20T14:52:50Z,431853.079,NULL,Wechsel,ugeuzaji,d,NA,NA,NA,NA,sdf,0,2,NA,NA,NA,NA,NA,NA,NA,NA,NA,NA,NA,NA,NA,NA,NA,NA,NA,NA,NA
bd379,deep,flow.Sequence,3_0_2_0_3_0,NA,NA,completion,10193.216,421632.40000001,421626.355,421643.22,431836.436,431837.59999999,2023-11-20T14:52:50Z,431853.079,NULL,Wechsel,ugeuzaji,d,NA,NA,NA,NA,sdf,NA,2,NA,NA,NA,NA,NA,NA,NA,NA,NA,NA,NA,NA,NA,NA,NA,NA,NA,NA,NA
bd379,shallow,flow.Sequence,3_0_2_0_3_1,NA,NA,skipped,NA,431837.80000001,NA,NA,431836.436,431837.90000001,2023-11-20T14:52:50Z,431853.079,NULL,Wechsel,ugeuzaji,d,NA,NA,NA,NA,sdf,NA,2,NA,NA,NA,NA,NA,NA,NA,NA,NA,NA,NA,NA,NA,NA,NA,NA,NA,NA,NA
bd379,task,flow.Sequence,3_0_2_0_3,NA,NA,completion,10193.216,421632.40000001,421626.355,421643.22,431836.436,431838.09999999,2023-11-20T14:52:50Z,431853.079,NULL,Wechsel,ugeuzaji,d,NA,NA,NA,NA,sdf,NA,2,NA,NA,NA,NA,NA,NA,NA,NA,NA,NA,NA,NA,NA,NA,NA,NA,NA,NA,NA
bd379,deep,flow.Sequence,3_0_2_0_4_0,NA,NA,skipped,NA,431838.20000002,NA,NA,431836.436,431838.40000001,2023-11-20T14:52:50Z,431853.079,NULL,Atmosphäre,angahewa,s,kuteseka,usahihi,kutoamini,NA,sdf,NA,2,NA,NA,NA,NA,NA,NA,NA,NA,NA,NA,NA,NA,NA,NA,NA,NA,NA,NA,NA
bd379,Shallow Question,html.Page,3_0_2_0_4_1_0,NA,NA,form submission,10620.621000018,431838.5,431836.436,431853.079,442473.70000002,442473.90000001,2023-11-20T14:53:01Z,442479.884,NULL,Atmosphäre,angahewa,s,kuteseka,usahihi,kutoamini,kuteseka,NA,NA,2,NA,NA,NA,NA,NA,NA,NA,NA,NA,NA,NA,NA,NA,NA,NA,NA,NA,NA,NA
bd379,"""Richtig""-Screen",canvas.Screen,3_0_2_0_4_1_1,NA,NA,skipped,NA,442476.90000001,NA,NA,442473.70000002,442477.09999999,2023-11-20T14:53:01Z,442479.884,NULL,Atmosphäre,angahewa,s,kuteseka,usahihi,kutoamini,NA,sdf,NA,2,NA,NA,NA,NA,NA,NA,NA,NA,NA,NA,NA,NA,NA,NA,NA,NA,NA,NA,NA
bd379,"""Falsch""-Screen",canvas.Screen,3_0_2_0_4_1_2,NA,NA,timeout,4996.968,442477.70000002,442462.863,442479.884,447460.627,447461.59999999,2023-11-20T14:53:06Z,447476.852,NULL,Atmosphäre,angahewa,s,kuteseka,usahihi,kutoamini,NA,sdf,0,2,NA,NA,NA,NA,NA,NA,NA,NA,NA,NA,NA,NA,NA,NA,NA,NA,NA,NA,NA
bd379,shallow,flow.Sequence,3_0_2_0_4_1,NA,NA,completion,15607.548,431838.5,431836.436,431853.079,447460.627,447462,2023-11-20T14:53:06Z,447476.852,NULL,Atmosphäre,angahewa,s,kuteseka,usahihi,kutoamini,NA,sdf,NA,2,NA,NA,NA,NA,NA,NA,NA,NA,NA,NA,NA,NA,NA,NA,NA,NA,NA,NA,NA
bd379,task,flow.Sequence,3_0_2_0_4,NA,NA,completion,15607.548,431838.20000002,431836.436,431853.079,447460.627,447462.30000001,2023-11-20T14:53:06Z,447476.852,NULL,Atmosphäre,angahewa,s,kuteseka,usahihi,kutoamini,NA,sdf,NA,2,NA,NA,NA,NA,NA,NA,NA,NA,NA,NA,NA,NA,NA,NA,NA,NA,NA,NA,NA
bd379,Deep Question,html.Page,3_0_2_0_5_0_0,NA,NA,form submission,3456.5480000059,447462.5,447460.627,447476.852,450933.40000001,450933.59999999,2023-11-20T14:53:09Z,450941.395,NULL,Erneuerung,ukarabati,d,NA,NA,NA,l,NA,NA,2,NA,NA,NA,NA,NA,NA,NA,NA,NA,NA,NA,NA,NA,NA,NA,NA,NA,NA,NA
bd379,"""Richtig""-Screen",canvas.Screen,3_0_2_0_5_0_1,NA,NA,skipped,NA,450936.80000001,NA,NA,450933.40000001,450937,2023-11-20T14:53:09Z,450941.395,NULL,Erneuerung,ukarabati,d,NA,NA,NA,NA,sdf,NA,2,NA,NA,NA,NA,NA,NA,NA,NA,NA,NA,NA,NA,NA,NA,NA,NA,NA,NA,NA
bd379,"""Falsch""-Screen",canvas.Screen,3_0_2_0_5_0_2,NA,NA,timeout,4997.336,450937.80000001,450932.372,450941.395,455921.761,455924,2023-11-20T14:53:14Z,455938.731,NULL,Erneuerung,ukarabati,d,NA,NA,NA,NA,sdf,0,2,NA,NA,NA,NA,NA,NA,NA,NA,NA,NA,NA,NA,NA,NA,NA,NA,NA,NA,NA
bd379,deep,flow.Sequence,3_0_2_0_5_0,NA,NA,completion,8444.909,447462.5,447460.627,447476.852,455921.761,455924.40000001,2023-11-20T14:53:14Z,455938.731,NULL,Erneuerung,ukarabati,d,NA,NA,NA,NA,sdf,NA,2,NA,NA,NA,NA,NA,NA,NA,NA,NA,NA,NA,NA,NA,NA,NA,NA,NA,NA,NA
bd379,shallow,flow.Sequence,3_0_2_0_5_1,NA,NA,skipped,NA,455924.40000001,NA,NA,455921.761,455924.59999999,2023-11-20T14:53:14Z,455938.731,NULL,Erneuerung,ukarabati,d,NA,NA,NA,NA,sdf,NA,2,NA,NA,NA,NA,NA,NA,NA,NA,NA,NA,NA,NA,NA,NA,NA,NA,NA,NA,NA
bd379,task,flow.Sequence,3_0_2_0_5,NA,NA,completion,8444.909,447462.40000001,447460.627,447476.852,455921.761,455924.90000001,2023-11-20T14:53:14Z,455938.731,NULL,Erneuerung,ukarabati,d,NA,NA,NA,NA,sdf,NA,2,NA,NA,NA,NA,NA,NA,NA,NA,NA,NA,NA,NA,NA,NA,NA,NA,NA,NA,NA
bd379,Deep Question,html.Page,3_0_2_0_6_0_0,NA,NA,form submission,2582.769,455925.09999999,455921.761,455938.731,458521.5,458521.70000002,2023-11-20T14:53:17Z,458536.717,NULL,Sänger,mwimbaji,d,NA,NA,NA,k,NA,NA,2,NA,NA,NA,NA,NA,NA,NA,NA,NA,NA,NA,NA,NA,NA,NA,NA,NA,NA,NA
bd379,"""Richtig""-Screen",canvas.Screen,3_0_2_0_6_0_1,NA,NA,skipped,NA,458524.40000001,NA,NA,458521.5,458524.5,2023-11-20T14:53:17Z,458536.717,NULL,Sänger,mwimbaji,d,NA,NA,NA,NA,sdf,NA,2,NA,NA,NA,NA,NA,NA,NA,NA,NA,NA,NA,NA,NA,NA,NA,NA,NA,NA,NA
bd379,"""Falsch""-Screen",canvas.Screen,3_0_2_0_6_0_2,NA,NA,timeout,4997.181,458525.30000001,458518.053,458536.717,463517.056,463518.90000001,2023-11-20T14:53:22Z,463533.898,NULL,Sänger,mwimbaji,d,NA,NA,NA,NA,sdf,0,2,NA,NA,NA,NA,NA,NA,NA,NA,NA,NA,NA,NA,NA,NA,NA,NA,NA,NA,NA
bd379,deep,flow.Sequence,3_0_2_0_6_0,NA,NA,completion,7578.325,455925,455921.761,455938.731,463517.056,463519.40000001,2023-11-20T14:53:22Z,463533.898,NULL,Sänger,mwimbaji,d,NA,NA,NA,NA,sdf,NA,2,NA,NA,NA,NA,NA,NA,NA,NA,NA,NA,NA,NA,NA,NA,NA,NA,NA,NA,NA
bd379,shallow,flow.Sequence,3_0_2_0_6_1,NA,NA,skipped,NA,463519.5,NA,NA,463517.056,463519.70000002,2023-11-20T14:53:22Z,463533.898,NULL,Sänger,mwimbaji,d,NA,NA,NA,NA,sdf,NA,2,NA,NA,NA,NA,NA,NA,NA,NA,NA,NA,NA,NA,NA,NA,NA,NA,NA,NA,NA
bd379,task,flow.Sequence,3_0_2_0_6,NA,NA,completion,7578.325,455925,455921.761,455938.731,463517.056,463519.90000001,2023-11-20T14:53:22Z,463533.898,NULL,Sänger,mwimbaji,d,NA,NA,NA,NA,sdf,NA,2,NA,NA,NA,NA,NA,NA,NA,NA,NA,NA,NA,NA,NA,NA,NA,NA,NA,NA,NA
bd379,deep,flow.Sequence,3_0_2_0_7_0,NA,NA,skipped,NA,463520.09999999,NA,NA,463517.056,463520.09999999,2023-11-20T14:53:22Z,463533.898,NULL,Kanzler,diwani,s,rasilmali,mahitaji,maabudu,NA,sdf,NA,2,NA,NA,NA,NA,NA,NA,NA,NA,NA,NA,NA,NA,NA,NA,NA,NA,NA,NA,NA
bd379,Shallow Question,html.Page,3_0_2_0_7_1_0,NA,NA,form submission,7683.4020000119,463520.30000001,463517.056,463533.898,471217.30000001,471217.5,2023-11-20T14:53:29Z,471229.221,NULL,Kanzler,diwani,s,rasilmali,mahitaji,maabudu,rasilmali,NA,NA,2,NA,NA,NA,NA,NA,NA,NA,NA,NA,NA,NA,NA,NA,NA,NA,NA,NA,NA,NA
bd379,"""Richtig""-Screen",canvas.Screen,3_0_2_0_7_1_1,NA,NA,skipped,NA,471220.80000001,NA,NA,471217.30000001,471221,2023-11-20T14:53:29Z,471229.221,NULL,Kanzler,diwani,s,rasilmali,mahitaji,maabudu,NA,sdf,NA,2,NA,NA,NA,NA,NA,NA,NA,NA,NA,NA,NA,NA,NA,NA,NA,NA,NA,NA,NA
bd379,"""Falsch""-Screen",canvas.Screen,3_0_2_0_7_1_2,NA,NA,timeout,4996.811,471221.5,471213.248,471229.221,476209.403,476210.30000001,2023-11-20T14:53:34Z,476226.032,NULL,Kanzler,diwani,s,rasilmali,mahitaji,maabudu,NA,sdf,0,2,NA,NA,NA,NA,NA,NA,NA,NA,NA,NA,NA,NA,NA,NA,NA,NA,NA,NA,NA
bd379,shallow,flow.Sequence,3_0_2_0_7_1,NA,NA,completion,12675.505,463520.30000001,463517.056,463533.898,476209.403,476210.70000002,2023-11-20T14:53:34Z,476226.032,NULL,Kanzler,diwani,s,rasilmali,mahitaji,maabudu,NA,sdf,NA,2,NA,NA,NA,NA,NA,NA,NA,NA,NA,NA,NA,NA,NA,NA,NA,NA,NA,NA,NA
bd379,task,flow.Sequence,3_0_2_0_7,NA,NA,completion,12675.505,463520.09999999,463517.056,463533.898,476209.403,476210.90000001,2023-11-20T14:53:34Z,476226.032,NULL,Kanzler,diwani,s,rasilmali,mahitaji,maabudu,NA,sdf,NA,2,NA,NA,NA,NA,NA,NA,NA,NA,NA,NA,NA,NA,NA,NA,NA,NA,NA,NA,NA
bd379,block,flow.Loop,3_0_2_0,NA,NA,completion,92360.337,383860.40000001,383833.394,383849.066,476209.403,476211.20000002,2023-11-20T14:53:34Z,476226.032,NULL,NA,NA,NA,NA,NA,NA,NA,sdf,NA,2,NA,NA,NA,NA,NA,NA,NA,NA,NA,NA,NA,NA,NA,NA,NA,NA,NA,NA,NA
bd379,weiter,canvas.Screen,3_0_2_1,sdf,keypress(Space),response,1121.468,476211.30000001,476209.403,476226.032,477347.5,477348.40000001,2023-11-20T14:53:35Z,477358.618,NULL,NA,NA,NA,NA,NA,NA,NA,sdf,NA,2,NA,NA,NA,NA,NA,NA,NA,NA,NA,NA,NA,NA,NA,NA,NA,NA,NA,NA,NA
bd379,check continue,flow.Sequence,3_0_2,NA,NA,completion,93498.434,383860.40000001,383833.394,383849.066,477347.5,477348.70000002,2023-11-20T14:53:35Z,477358.618,NULL,NA,NA,NA,NA,NA,NA,NA,sdf,NA,2,NA,NA,NA,NA,NA,NA,NA,NA,NA,NA,NA,NA,NA,NA,NA,NA,NA,NA,NA
bd379,deep,flow.Sequence,3_0_3_0_0_0,NA,NA,skipped,NA,477370.5,NA,NA,477347.5,477370.70000002,2023-11-20T14:53:35Z,477358.618,NULL,Atmosphäre,angahewa,s,kuteseka,usahihi,kutoamini,NA,qt,NA,3,NA,NA,NA,NA,NA,NA,NA,NA,NA,NA,NA,NA,NA,NA,NA,NA,NA,NA,NA
bd379,Shallow Question,html.Page,3_0_3_0_0_1_0,NA,NA,form submission,5788.1820000119,477370.70000002,477339.375,477358.618,483146.80000001,483147,2023-11-20T14:53:41Z,483155.328,NULL,Atmosphäre,angahewa,s,kuteseka,usahihi,kutoamini,angahewa,NA,NA,3,NA,NA,NA,NA,NA,NA,NA,NA,NA,NA,NA,NA,NA,NA,NA,NA,NA,NA,NA
bd379,"""Richtig""-Screen",canvas.Screen,3_0_3_0_0_1_1,NA,NA,timeout,4996.742,483148.30000001,483139.569,483155.328,488135.773,488136.80000001,2023-11-20T14:53:46Z,488152.07,NULL,Atmosphäre,angahewa,s,kuteseka,usahihi,kutoamini,NA,qt,1,3,NA,NA,NA,NA,NA,NA,NA,NA,NA,NA,NA,NA,NA,NA,NA,NA,NA,NA,NA
bd379,"""Falsch""-Screen",canvas.Screen,3_0_3_0_0_1_2,NA,NA,skipped,NA,488143,NA,NA,488135.773,488143.30000001,2023-11-20T14:53:46Z,488152.07,NULL,Atmosphäre,angahewa,s,kuteseka,usahihi,kutoamini,NA,qt,NA,3,NA,NA,NA,NA,NA,NA,NA,NA,NA,NA,NA,NA,NA,NA,NA,NA,NA,NA,NA
bd379,shallow,flow.Sequence,3_0_3_0_0_1,NA,NA,completion,10777.155,477370.70000002,477339.375,477358.618,488135.773,488143.59999999,2023-11-20T14:53:46Z,488152.07,NULL,Atmosphäre,angahewa,s,kuteseka,usahihi,kutoamini,NA,qt,NA,3,NA,NA,NA,NA,NA,NA,NA,NA,NA,NA,NA,NA,NA,NA,NA,NA,NA,NA,NA
bd379,task,flow.Sequence,3_0_3_0_0,NA,NA,completion,10777.155,477370.5,477339.375,477358.618,488135.773,488143.80000001,2023-11-20T14:53:46Z,488152.07,NULL,Atmosphäre,angahewa,s,kuteseka,usahihi,kutoamini,NA,qt,NA,3,NA,NA,NA,NA,NA,NA,NA,NA,NA,NA,NA,NA,NA,NA,NA,NA,NA,NA,NA
bd379,Deep Question,html.Page,3_0_3_0_1_0_0,NA,NA,form submission,11970.330000006,488144,488135.773,488152.07,500122.40000001,500122.70000002,2023-11-20T14:53:58Z,500127.966,NULL,Erneuerung,ukarabati,d,NA,NA,NA,ugeuzaji,NA,NA,3,NA,NA,NA,NA,NA,NA,NA,NA,NA,NA,NA,NA,NA,NA,NA,NA,NA,NA,NA
bd379,"""Richtig""-Screen",canvas.Screen,3_0_3_0_1_0_1,NA,NA,skipped,NA,500125.70000002,NA,NA,500122.40000001,500125.90000001,2023-11-20T14:53:58Z,500127.966,NULL,Erneuerung,ukarabati,d,NA,NA,NA,NA,qt,NA,3,NA,NA,NA,NA,NA,NA,NA,NA,NA,NA,NA,NA,NA,NA,NA,NA,NA,NA,NA
bd379,"""Falsch""-Screen",canvas.Screen,3_0_3_0_1_0_2,NA,NA,timeout,4997.317,500126.30000001,500111.004,500127.966,505108.579,505111.30000001,2023-11-20T14:54:03Z,505125.283,NULL,Erneuerung,ukarabati,d,NA,NA,NA,NA,qt,0,3,NA,NA,NA,NA,NA,NA,NA,NA,NA,NA,NA,NA,NA,NA,NA,NA,NA,NA,NA
bd379,deep,flow.Sequence,3_0_3_0_1_0,NA,NA,completion,16956.509,488143.90000001,488135.773,488152.07,505108.579,505111.40000001,2023-11-20T14:54:03Z,505125.283,NULL,Erneuerung,ukarabati,d,NA,NA,NA,NA,qt,NA,3,NA,NA,NA,NA,NA,NA,NA,NA,NA,NA,NA,NA,NA,NA,NA,NA,NA,NA,NA
bd379,shallow,flow.Sequence,3_0_3_0_1_1,NA,NA,skipped,NA,505111.5,NA,NA,505108.579,505111.5,2023-11-20T14:54:03Z,505125.283,NULL,Erneuerung,ukarabati,d,NA,NA,NA,NA,qt,NA,3,NA,NA,NA,NA,NA,NA,NA,NA,NA,NA,NA,NA,NA,NA,NA,NA,NA,NA,NA
bd379,task,flow.Sequence,3_0_3_0_1,NA,NA,completion,16956.509,488143.90000001,488135.773,488152.07,505108.579,505111.59999999,2023-11-20T14:54:03Z,505125.283,NULL,Erneuerung,ukarabati,d,NA,NA,NA,NA,qt,NA,3,NA,NA,NA,NA,NA,NA,NA,NA,NA,NA,NA,NA,NA,NA,NA,NA,NA,NA,NA
bd379,Deep Question,html.Page,3_0_3_0_2_0_0,NA,NA,form submission,6113.4170000179,505111.70000002,505108.579,505125.283,511238.70000002,511239,2023-11-20T14:54:09Z,511254.762,NULL,Sänger,mwimbaji,d,NA,NA,NA,ugeuzaji,NA,NA,3,NA,NA,NA,NA,NA,NA,NA,NA,NA,NA,NA,NA,NA,NA,NA,NA,NA,NA,NA
bd379,"""Richtig""-Screen",canvas.Screen,3_0_3_0_2_0_1,NA,NA,skipped,NA,511242.40000001,NA,NA,511238.70000002,511242.5,2023-11-20T14:54:09Z,511254.762,NULL,Sänger,mwimbaji,d,NA,NA,NA,NA,qt,NA,3,NA,NA,NA,NA,NA,NA,NA,NA,NA,NA,NA,NA,NA,NA,NA,NA,NA,NA,NA
bd379,"""Falsch""-Screen",canvas.Screen,3_0_3_0_2_0_2,NA,NA,timeout,4997.203,511243.20000002,511221.964,511254.762,516234.895,516235.90000001,2023-11-20T14:54:14Z,516251.965,NULL,Sänger,mwimbaji,d,NA,NA,NA,NA,qt,0,3,NA,NA,NA,NA,NA,NA,NA,NA,NA,NA,NA,NA,NA,NA,NA,NA,NA,NA,NA
bd379,deep,flow.Sequence,3_0_3_0_2_0,NA,NA,completion,11109.612,505111.59999999,505108.579,505125.283,516234.895,516236.20000002,2023-11-20T14:54:14Z,516251.965,NULL,Sänger,mwimbaji,d,NA,NA,NA,NA,qt,NA,3,NA,NA,NA,NA,NA,NA,NA,NA,NA,NA,NA,NA,NA,NA,NA,NA,NA,NA,NA
bd379,shallow,flow.Sequence,3_0_3_0_2_1,NA,NA,skipped,NA,516236.40000001,NA,NA,516234.895,516236.5,2023-11-20T14:54:14Z,516251.965,NULL,Sänger,mwimbaji,d,NA,NA,NA,NA,qt,NA,3,NA,NA,NA,NA,NA,NA,NA,NA,NA,NA,NA,NA,NA,NA,NA,NA,NA,NA,NA
bd379,task,flow.Sequence,3_0_3_0_2,NA,NA,completion,11109.612,505111.59999999,505108.579,505125.283,516234.895,516236.80000001,2023-11-20T14:54:14Z,516251.965,NULL,Sänger,mwimbaji,d,NA,NA,NA,NA,qt,NA,3,NA,NA,NA,NA,NA,NA,NA,NA,NA,NA,NA,NA,NA,NA,NA,NA,NA,NA,NA
bd379,Deep Question,html.Page,3_0_3_0_3_0_0,NA,NA,form submission,9235.134999994,516237,516234.895,516251.965,525487.09999999,525487.20000002,2023-11-20T14:54:24Z,525495.874,NULL,Angreifer,mshambulizi,d,NA,NA,NA,k,NA,NA,3,NA,NA,NA,NA,NA,NA,NA,NA,NA,NA,NA,NA,NA,NA,NA,NA,NA,NA,NA
bd379,"""Richtig""-Screen",canvas.Screen,3_0_3_0_3_0_1,NA,NA,skipped,NA,525489.40000001,NA,NA,525487.09999999,525489.5,2023-11-20T14:54:24Z,525495.874,NULL,Angreifer,mshambulizi,d,NA,NA,NA,NA,qt,NA,3,NA,NA,NA,NA,NA,NA,NA,NA,NA,NA,NA,NA,NA,NA,NA,NA,NA,NA,NA
bd379,"""Falsch""-Screen",canvas.Screen,3_0_3_0_3_0_2,NA,NA,timeout,4997.233,525490.09999999,525479.638,525495.874,530476.143,530476.59999999,2023-11-20T14:54:29Z,530493.107,NULL,Angreifer,mshambulizi,d,NA,NA,NA,NA,qt,0,3,NA,NA,NA,NA,NA,NA,NA,NA,NA,NA,NA,NA,NA,NA,NA,NA,NA,NA,NA
bd379,deep,flow.Sequence,3_0_3_0_3_0,NA,NA,completion,14224.178,516237,516234.895,516251.965,530476.143,530476.70000002,2023-11-20T14:54:29Z,530493.107,NULL,Angreifer,mshambulizi,d,NA,NA,NA,NA,qt,NA,3,NA,NA,NA,NA,NA,NA,NA,NA,NA,NA,NA,NA,NA,NA,NA,NA,NA,NA,NA
bd379,shallow,flow.Sequence,3_0_3_0_3_1,NA,NA,skipped,NA,530476.70000002,NA,NA,530476.143,530476.80000000994,2023-11-20T14:54:29Z,530493.107,NULL,Angreifer,mshambulizi,d,NA,NA,NA,NA,qt,NA,3,NA,NA,NA,NA,NA,NA,NA,NA,NA,NA,NA,NA,NA,NA,NA,NA,NA,NA,NA
bd379,task,flow.Sequence,3_0_3_0_3,NA,NA,completion,14224.178,516236.90000001,516234.895,516251.965,530476.143,530476.80000000994,2023-11-20T14:54:29Z,530493.107,NULL,Angreifer,mshambulizi,d,NA,NA,NA,NA,qt,NA,3,NA,NA,NA,NA,NA,NA,NA,NA,NA,NA,NA,NA,NA,NA,NA,NA,NA,NA,NA
bd379,deep,flow.Sequence,3_0_3_0_4_0,NA,NA,skipped,NA,530476.90000001,NA,NA,530476.143,530476.90000001,2023-11-20T14:54:29Z,530493.107,NULL,Flexibilität,kubadilika,s,enjini,usikilivu,hesabu,NA,qt,NA,3,NA,NA,NA,NA,NA,NA,NA,NA,NA,NA,NA,NA,NA,NA,NA,NA,NA,NA,NA
bd379,Shallow Question,html.Page,3_0_3_0_4_1_0,NA,NA,form submission,11455.492999994,530476.90000001,530476.143,530493.107,541948.59999999,541948.80000001,2023-11-20T14:54:40Z,541952.481,NULL,Flexibilität,kubadilika,s,enjini,usikilivu,hesabu,hesabu,NA,NA,3,NA,NA,NA,NA,NA,NA,NA,NA,NA,NA,NA,NA,NA,NA,NA,NA,NA,NA,NA
bd379,"""Richtig""-Screen",canvas.Screen,3_0_3_0_4_1_1,NA,NA,skipped,NA,541951.59999999,NA,NA,541948.59999999,541951.80000000994,2023-11-20T14:54:40Z,541952.481,NULL,Flexibilität,kubadilika,s,enjini,usikilivu,hesabu,NA,qt,NA,3,NA,NA,NA,NA,NA,NA,NA,NA,NA,NA,NA,NA,NA,NA,NA,NA,NA,NA,NA
bd379,"""Falsch""-Screen",canvas.Screen,3_0_3_0_4_1_2,NA,NA,timeout,4996.933,541952.59999999,541936.222,541952.481,546933.227,546935,2023-11-20T14:54:45Z,546949.414,NULL,Flexibilität,kubadilika,s,enjini,usikilivu,hesabu,NA,qt,0,3,NA,NA,NA,NA,NA,NA,NA,NA,NA,NA,NA,NA,NA,NA,NA,NA,NA,NA,NA
bd379,shallow,flow.Sequence,3_0_3_0_4_1,NA,NA,completion,16440.12,530476.90000001,530476.143,530493.107,546933.227,546935.20000002,2023-11-20T14:54:45Z,546949.414,NULL,Flexibilität,kubadilika,s,enjini,usikilivu,hesabu,NA,qt,NA,3,NA,NA,NA,NA,NA,NA,NA,NA,NA,NA,NA,NA,NA,NA,NA,NA,NA,NA,NA
bd379,task,flow.Sequence,3_0_3_0_4,NA,NA,completion,16440.12,530476.80000000994,530476.143,530493.107,546933.227,546935.20000002,2023-11-20T14:54:45Z,546949.414,NULL,Flexibilität,kubadilika,s,enjini,usikilivu,hesabu,NA,qt,NA,3,NA,NA,NA,NA,NA,NA,NA,NA,NA,NA,NA,NA,NA,NA,NA,NA,NA,NA,NA
bd379,deep,flow.Sequence,3_0_3_0_5_0,NA,NA,skipped,NA,546935.20000002,NA,NA,546933.227,546935.30000000994,2023-11-20T14:54:45Z,546949.414,NULL,Kanzler,diwani,s,rasilmali,mahitaji,maabudu,NA,qt,NA,3,NA,NA,NA,NA,NA,NA,NA,NA,NA,NA,NA,NA,NA,NA,NA,NA,NA,NA,NA
bd379,Shallow Question,html.Page,3_0_3_0_5_1_0,NA,NA,form submission,4563.986000006,546935.30000000994,546933.227,546949.414,551513.40000001,551513.59999999,2023-11-20T14:54:50Z,551530.454,NULL,Kanzler,diwani,s,rasilmali,mahitaji,maabudu,diwani,NA,NA,3,NA,NA,NA,NA,NA,NA,NA,NA,NA,NA,NA,NA,NA,NA,NA,NA,NA,NA,NA
bd379,"""Richtig""-Screen",canvas.Screen,3_0_3_0_5_1_1,NA,NA,timeout,4996.5159999999,551516.70000002,551496.481,551530.454,556510.258,556512,2023-11-20T14:54:55Z,556526.97,NULL,Kanzler,diwani,s,rasilmali,mahitaji,maabudu,NA,qt,1,3,NA,NA,NA,NA,NA,NA,NA,NA,NA,NA,NA,NA,NA,NA,NA,NA,NA,NA,NA
bd379,"""Falsch""-Screen",canvas.Screen,3_0_3_0_5_1_2,NA,NA,skipped,NA,556517.40000001,NA,NA,556510.258,556517.70000002,2023-11-20T14:54:55Z,556526.97,NULL,Kanzler,diwani,s,rasilmali,mahitaji,maabudu,NA,qt,NA,3,NA,NA,NA,NA,NA,NA,NA,NA,NA,NA,NA,NA,NA,NA,NA,NA,NA,NA,NA
bd379,shallow,flow.Sequence,3_0_3_0_5_1,NA,NA,completion,9560.844,546935.30000000994,546933.227,546949.414,556510.258,556517.90000001,2023-11-20T14:54:55Z,556526.97,NULL,Kanzler,diwani,s,rasilmali,mahitaji,maabudu,NA,qt,NA,3,NA,NA,NA,NA,NA,NA,NA,NA,NA,NA,NA,NA,NA,NA,NA,NA,NA,NA,NA
bd379,task,flow.Sequence,3_0_3_0_5,NA,NA,completion,9560.844,546935.20000002,546933.227,546949.414,556510.258,556518.20000002,2023-11-20T14:54:55Z,556526.97,NULL,Kanzler,diwani,s,rasilmali,mahitaji,maabudu,NA,qt,NA,3,NA,NA,NA,NA,NA,NA,NA,NA,NA,NA,NA,NA,NA,NA,NA,NA,NA,NA,NA
bd379,Deep Question,html.Page,3_0_3_0_6_0_0,NA,NA,form submission,11512.230000018,556518.40000001,556510.258,556526.97,568039.20000002,568039.40000001,2023-11-20T14:55:06Z,568053.233,NULL,Wechsel,ugeuzaji,d,NA,NA,NA,ugeuzaji,NA,NA,3,NA,NA,NA,NA,NA,NA,NA,NA,NA,NA,NA,NA,NA,NA,NA,NA,NA,NA,NA
bd379,"""Richtig""-Screen",canvas.Screen,3_0_3_0_6_0_1,NA,NA,timeout,4996.846,568040.90000001,568036.756,568053.233,573033.843,573035.30000000994,2023-11-20T14:55:11Z,573050.079,NULL,Wechsel,ugeuzaji,d,NA,NA,NA,NA,qt,1,3,NA,NA,NA,NA,NA,NA,NA,NA,NA,NA,NA,NA,NA,NA,NA,NA,NA,NA,NA
bd379,"""Falsch""-Screen",canvas.Screen,3_0_3_0_6_0_2,NA,NA,skipped,NA,573040.70000002,NA,NA,573033.843,573040.90000001,2023-11-20T14:55:11Z,573050.079,NULL,Wechsel,ugeuzaji,d,NA,NA,NA,NA,qt,NA,3,NA,NA,NA,NA,NA,NA,NA,NA,NA,NA,NA,NA,NA,NA,NA,NA,NA,NA,NA
bd379,deep,flow.Sequence,3_0_3_0_6_0,NA,NA,completion,16506.873,556518.40000001,556510.258,556526.97,573033.843,573041.30000001,2023-11-20T14:55:11Z,573050.079,NULL,Wechsel,ugeuzaji,d,NA,NA,NA,NA,qt,NA,3,NA,NA,NA,NA,NA,NA,NA,NA,NA,NA,NA,NA,NA,NA,NA,NA,NA,NA,NA
bd379,shallow,flow.Sequence,3_0_3_0_6_1,NA,NA,skipped,NA,573041.40000001,NA,NA,573033.843,573041.59999999,2023-11-20T14:55:11Z,573050.079,NULL,Wechsel,ugeuzaji,d,NA,NA,NA,NA,qt,NA,3,NA,NA,NA,NA,NA,NA,NA,NA,NA,NA,NA,NA,NA,NA,NA,NA,NA,NA,NA
bd379,task,flow.Sequence,3_0_3_0_6,NA,NA,completion,16506.873,556518.30000000994,556510.258,556526.97,573033.843,573041.80000001,2023-11-20T14:55:11Z,573050.079,NULL,Wechsel,ugeuzaji,d,NA,NA,NA,NA,qt,NA,3,NA,NA,NA,NA,NA,NA,NA,NA,NA,NA,NA,NA,NA,NA,NA,NA,NA,NA,NA
bd379,deep,flow.Sequence,3_0_3_0_7_0,NA,NA,skipped,NA,573042,NA,NA,573033.843,573042.09999999,2023-11-20T14:55:11Z,573050.079,NULL,Abrechnung,uhasibu,s,kusahihisha,mpambano,mashambulizi,NA,qt,NA,3,NA,NA,NA,NA,NA,NA,NA,NA,NA,NA,NA,NA,NA,NA,NA,NA,NA,NA,NA
bd379,Shallow Question,html.Page,3_0_3_0_7_1_0,NA,NA,form submission,4593.3210000059,573042.30000000994,573033.843,573050.079,577643.40000001,577643.59999999,2023-11-20T14:55:16Z,577647.31,NULL,Abrechnung,uhasibu,s,kusahihisha,mpambano,mashambulizi,uhasibu,NA,NA,3,NA,NA,NA,NA,NA,NA,NA,NA,NA,NA,NA,NA,NA,NA,NA,NA,NA,NA,NA
bd379,"""Richtig""-Screen",canvas.Screen,3_0_3_0_7_1_1,NA,NA,timeout,4997.433,577646.59999999,577631.014,577647.31,582627.822,582628.70000002,2023-11-20T14:55:21Z,582644.743,NULL,Abrechnung,uhasibu,s,kusahihisha,mpambano,mashambulizi,NA,qt,1,3,NA,NA,NA,NA,NA,NA,NA,NA,NA,NA,NA,NA,NA,NA,NA,NA,NA,NA,NA
bd379,"""Falsch""-Screen",canvas.Screen,3_0_3_0_7_1_2,NA,NA,skipped,NA,582633.40000001,NA,NA,582627.822,582633.5,2023-11-20T14:55:21Z,582644.743,NULL,Abrechnung,uhasibu,s,kusahihisha,mpambano,mashambulizi,NA,qt,NA,3,NA,NA,NA,NA,NA,NA,NA,NA,NA,NA,NA,NA,NA,NA,NA,NA,NA,NA,NA
bd379,shallow,flow.Sequence,3_0_3_0_7_1,NA,NA,completion,9577.743,573042.30000000994,573033.843,573050.079,582627.822,582633.70000002,2023-11-20T14:55:21Z,582644.743,NULL,Abrechnung,uhasibu,s,kusahihisha,mpambano,mashambulizi,NA,qt,NA,3,NA,NA,NA,NA,NA,NA,NA,NA,NA,NA,NA,NA,NA,NA,NA,NA,NA,NA,NA
bd379,task,flow.Sequence,3_0_3_0_7,NA,NA,completion,9577.743,573042,573033.843,573050.079,582627.822,582633.80000001,2023-11-20T14:55:21Z,582644.743,NULL,Abrechnung,uhasibu,s,kusahihisha,mpambano,mashambulizi,NA,qt,NA,3,NA,NA,NA,NA,NA,NA,NA,NA,NA,NA,NA,NA,NA,NA,NA,NA,NA,NA,NA
bd379,block,flow.Loop,3_0_3_0,NA,NA,completion,105269.204,477370.5,477339.375,477358.618,582627.822,582633.90000001,2023-11-20T14:55:21Z,582644.743,NULL,NA,NA,NA,NA,NA,NA,NA,qt,NA,3,NA,NA,NA,NA,NA,NA,NA,NA,NA,NA,NA,NA,NA,NA,NA,NA,NA,NA,NA
bd379,weiter,canvas.Screen,3_0_3_1,sdf,keypress(Space),response,1433.0570000119,582633.90000001,582627.822,582644.743,584077.80000001,584078.5,2023-11-20T14:55:22Z,584093.367,NULL,NA,NA,NA,NA,NA,NA,NA,qt,NA,3,NA,NA,NA,NA,NA,NA,NA,NA,NA,NA,NA,NA,NA,NA,NA,NA,NA,NA,NA
bd379,check continue,flow.Sequence,3_0_3,NA,NA,completion,106719.18200001,477370.5,477339.375,477358.618,584077.80000001,584078.80000000994,2023-11-20T14:55:22Z,584093.367,NULL,NA,NA,NA,NA,NA,NA,NA,qt,NA,3,NA,NA,NA,NA,NA,NA,NA,NA,NA,NA,NA,NA,NA,NA,NA,NA,NA,NA,NA
bd379,deep,flow.Sequence,3_0_4_0_0_0,NA,NA,skipped,NA,584106.30000001,NA,NA,584077.80000001,584106.5,2023-11-20T14:55:22Z,584093.367,NULL,Atmosphäre,angahewa,s,kuteseka,usahihi,kutoamini,NA,sd,NA,4,NA,NA,NA,NA,NA,NA,NA,NA,NA,NA,NA,NA,NA,NA,NA,NA,NA,NA,NA
bd379,Shallow Question,html.Page,3_0_4_0_0_1_0,NA,NA,form submission,8215.633,584106.59999999,584075.283,584093.367,592309,592309.20000002,2023-11-20T14:55:30Z,592321.793,NULL,Atmosphäre,angahewa,s,kuteseka,usahihi,kutoamini,angahewa,NA,NA,4,NA,NA,NA,NA,NA,NA,NA,NA,NA,NA,NA,NA,NA,NA,NA,NA,NA,NA,NA
bd379,"""Richtig""-Screen",canvas.Screen,3_0_4_0_0_1_1,NA,NA,timeout,4997.2810000001,592312.40000001,592304.929,592321.793,597302.518,597303.09999999,2023-11-20T14:55:35Z,597319.074,NULL,Atmosphäre,angahewa,s,kuteseka,usahihi,kutoamini,NA,sd,1,4,NA,NA,NA,NA,NA,NA,NA,NA,NA,NA,NA,NA,NA,NA,NA,NA,NA,NA,NA
bd379,"""Falsch""-Screen",canvas.Screen,3_0_4_0_0_1_2,NA,NA,skipped,NA,597305.40000001,NA,NA,597302.518,597305.59999999,2023-11-20T14:55:35Z,597319.074,NULL,Atmosphäre,angahewa,s,kuteseka,usahihi,kutoamini,NA,sd,NA,4,NA,NA,NA,NA,NA,NA,NA,NA,NA,NA,NA,NA,NA,NA,NA,NA,NA,NA,NA
bd379,shallow,flow.Sequence,3_0_4_0_0_1,NA,NA,completion,13209.151,584106.59999999,584075.283,584093.367,597302.518,597305.70000002,2023-11-20T14:55:35Z,597319.074,NULL,Atmosphäre,angahewa,s,kuteseka,usahihi,kutoamini,NA,sd,NA,4,NA,NA,NA,NA,NA,NA,NA,NA,NA,NA,NA,NA,NA,NA,NA,NA,NA,NA,NA
bd379,task,flow.Sequence,3_0_4_0_0,NA,NA,completion,13209.151,584106.30000001,584075.283,584093.367,597302.518,597305.80000000994,2023-11-20T14:55:35Z,597319.074,NULL,Atmosphäre,angahewa,s,kuteseka,usahihi,kutoamini,NA,sd,NA,4,NA,NA,NA,NA,NA,NA,NA,NA,NA,NA,NA,NA,NA,NA,NA,NA,NA,NA,NA
bd379,deep,flow.Sequence,3_0_4_0_1_0,NA,NA,skipped,NA,597305.80000000994,NA,NA,597302.518,597305.90000001,2023-11-20T14:55:35Z,597319.074,NULL,Abrechnung,uhasibu,s,kusahihisha,mpambano,mashambulizi,NA,sd,NA,4,NA,NA,NA,NA,NA,NA,NA,NA,NA,NA,NA,NA,NA,NA,NA,NA,NA,NA,NA
bd379,Shallow Question,html.Page,3_0_4_0_1_1_0,NA,NA,form submission,2303.926,597306,597302.518,597319.074,599623,599623.20000002,2023-11-20T14:55:38Z,599633.896,NULL,Abrechnung,uhasibu,s,kusahihisha,mpambano,mashambulizi,uhasibu,NA,NA,4,NA,NA,NA,NA,NA,NA,NA,NA,NA,NA,NA,NA,NA,NA,NA,NA,NA,NA,NA
bd379,"""Richtig""-Screen",canvas.Screen,3_0_4_0_1_1_1,NA,NA,timeout,4997.3840000001,599624.09999999,599617.469,599633.896,604614.514,604615.09999999,2023-11-20T14:55:43Z,604631.28,NULL,Abrechnung,uhasibu,s,kusahihisha,mpambano,mashambulizi,NA,sd,1,4,NA,NA,NA,NA,NA,NA,NA,NA,NA,NA,NA,NA,NA,NA,NA,NA,NA,NA,NA
bd379,"""Falsch""-Screen",canvas.Screen,3_0_4_0_1_1_2,NA,NA,skipped,NA,604617.5,NA,NA,604614.514,604617.59999999,2023-11-20T14:55:43Z,604631.28,NULL,Abrechnung,uhasibu,s,kusahihisha,mpambano,mashambulizi,NA,sd,NA,4,NA,NA,NA,NA,NA,NA,NA,NA,NA,NA,NA,NA,NA,NA,NA,NA,NA,NA,NA
bd379,shallow,flow.Sequence,3_0_4_0_1_1,NA,NA,completion,7295.4399999999,597306,597302.518,597319.074,604614.514,604617.80000001,2023-11-20T14:55:43Z,604631.28,NULL,Abrechnung,uhasibu,s,kusahihisha,mpambano,mashambulizi,NA,sd,NA,4,NA,NA,NA,NA,NA,NA,NA,NA,NA,NA,NA,NA,NA,NA,NA,NA,NA,NA,NA
bd379,task,flow.Sequence,3_0_4_0_1,NA,NA,completion,7295.4399999999,597305.80000000994,597302.518,597319.074,604614.514,604617.90000001,2023-11-20T14:55:43Z,604631.28,NULL,Abrechnung,uhasibu,s,kusahihisha,mpambano,mashambulizi,NA,sd,NA,4,NA,NA,NA,NA,NA,NA,NA,NA,NA,NA,NA,NA,NA,NA,NA,NA,NA,NA,NA
bd379,Deep Question,html.Page,3_0_4_0_2_0_0,NA,NA,form submission,6002.319999994,604618.09999999,604614.514,604631.28,610633.59999999,610633.80000001,2023-11-20T14:55:49Z,610643.765,NULL,Wechsel,ugeuzaji,d,NA,NA,NA,ugeuzaji,NA,NA,4,NA,NA,NA,NA,NA,NA,NA,NA,NA,NA,NA,NA,NA,NA,NA,NA,NA,NA,NA
bd379,"""Richtig""-Screen",canvas.Screen,3_0_4_0_2_0_1,NA,NA,timeout,4996.9569999999,610636.80000000994,610627.95,610643.765,615624.387,615625.5,2023-11-20T14:55:54Z,615640.722,NULL,Wechsel,ugeuzaji,d,NA,NA,NA,NA,sd,1,4,NA,NA,NA,NA,NA,NA,NA,NA,NA,NA,NA,NA,NA,NA,NA,NA,NA,NA,NA
bd379,"""Falsch""-Screen",canvas.Screen,3_0_4_0_2_0_2,NA,NA,skipped,NA,615630.59999999,NA,NA,615624.387,615630.59999999,2023-11-20T14:55:54Z,615640.722,NULL,Wechsel,ugeuzaji,d,NA,NA,NA,NA,sd,NA,4,NA,NA,NA,NA,NA,NA,NA,NA,NA,NA,NA,NA,NA,NA,NA,NA,NA,NA,NA
bd379,deep,flow.Sequence,3_0_4_0_2_0,NA,NA,completion,10993.107,604618,604614.514,604631.28,615624.387,615630.70000002,2023-11-20T14:55:54Z,615640.722,NULL,Wechsel,ugeuzaji,d,NA,NA,NA,NA,sd,NA,4,NA,NA,NA,NA,NA,NA,NA,NA,NA,NA,NA,NA,NA,NA,NA,NA,NA,NA,NA
bd379,shallow,flow.Sequence,3_0_4_0_2_1,NA,NA,skipped,NA,615630.80000001,NA,NA,615624.387,615631.40000001,2023-11-20T14:55:54Z,615640.722,NULL,Wechsel,ugeuzaji,d,NA,NA,NA,NA,sd,NA,4,NA,NA,NA,NA,NA,NA,NA,NA,NA,NA,NA,NA,NA,NA,NA,NA,NA,NA,NA
bd379,task,flow.Sequence,3_0_4_0_2,NA,NA,completion,10993.107,604618,604614.514,604631.28,615624.387,615631.5,2023-11-20T14:55:54Z,615640.722,NULL,Wechsel,ugeuzaji,d,NA,NA,NA,NA,sd,NA,4,NA,NA,NA,NA,NA,NA,NA,NA,NA,NA,NA,NA,NA,NA,NA,NA,NA,NA,NA
bd379,deep,flow.Sequence,3_0_4_0_3_0,NA,NA,skipped,NA,615631.5,NA,NA,615624.387,615631.59999999,2023-11-20T14:55:54Z,615640.722,NULL,Kanzler,diwani,s,rasilmali,mahitaji,maabudu,NA,sd,NA,4,NA,NA,NA,NA,NA,NA,NA,NA,NA,NA,NA,NA,NA,NA,NA,NA,NA,NA,NA
bd379,Shallow Question,html.Page,3_0_4_0_3_1_0,NA,NA,form submission,3390.4780000179,615631.59999999,615624.387,615640.722,619031.20000002,619031.40000001,2023-11-20T14:55:57Z,619038.684,NULL,Kanzler,diwani,s,rasilmali,mahitaji,maabudu,diwani,NA,NA,4,NA,NA,NA,NA,NA,NA,NA,NA,NA,NA,NA,NA,NA,NA,NA,NA,NA,NA,NA
bd379,"""Richtig""-Screen",canvas.Screen,3_0_4_0_3_1_1,NA,NA,timeout,4996.944,619034.40000001,619022.484,619038.684,624019.036,624020.20000002,2023-11-20T14:56:02Z,624035.628,NULL,Kanzler,diwani,s,rasilmali,mahitaji,maabudu,NA,sd,1,4,NA,NA,NA,NA,NA,NA,NA,NA,NA,NA,NA,NA,NA,NA,NA,NA,NA,NA,NA
bd379,"""Falsch""-Screen",canvas.Screen,3_0_4_0_3_1_2,NA,NA,skipped,NA,624025.30000001,NA,NA,624019.036,624025.40000001,2023-11-20T14:56:02Z,624035.628,NULL,Kanzler,diwani,s,rasilmali,mahitaji,maabudu,NA,sd,NA,4,NA,NA,NA,NA,NA,NA,NA,NA,NA,NA,NA,NA,NA,NA,NA,NA,NA,NA,NA
bd379,shallow,flow.Sequence,3_0_4_0_3_1,NA,NA,completion,8378.314,615631.59999999,615624.387,615640.722,624019.036,624025.5,2023-11-20T14:56:02Z,624035.628,NULL,Kanzler,diwani,s,rasilmali,mahitaji,maabudu,NA,sd,NA,4,NA,NA,NA,NA,NA,NA,NA,NA,NA,NA,NA,NA,NA,NA,NA,NA,NA,NA,NA
bd379,task,flow.Sequence,3_0_4_0_3,NA,NA,completion,8378.314,615631.5,615624.387,615640.722,624019.036,624025.5,2023-11-20T14:56:02Z,624035.628,NULL,Kanzler,diwani,s,rasilmali,mahitaji,maabudu,NA,sd,NA,4,NA,NA,NA,NA,NA,NA,NA,NA,NA,NA,NA,NA,NA,NA,NA,NA,NA,NA,NA
bd379,Deep Question,html.Page,3_0_4_0_4_0_0,NA,NA,form submission,24866.272000006,624025.59999999,624019.036,624035.628,648901.90000001,648902.20000002,2023-11-20T14:56:27Z,648903.777,NULL,Erneuerung,ukarabati,d,NA,NA,NA,mshimbaji,NA,NA,4,NA,NA,NA,NA,NA,NA,NA,NA,NA,NA,NA,NA,NA,NA,NA,NA,NA,NA,NA
bd379,"""Richtig""-Screen",canvas.Screen,3_0_4_0_4_0_1,NA,NA,skipped,NA,648905.30000001,NA,NA,648901.90000001,648905.5,2023-11-20T14:56:27Z,648903.777,NULL,Erneuerung,ukarabati,d,NA,NA,NA,NA,sd,NA,4,NA,NA,NA,NA,NA,NA,NA,NA,NA,NA,NA,NA,NA,NA,NA,NA,NA,NA,NA
bd379,"""Falsch""-Screen",canvas.Screen,3_0_4_0_4_0_2,NA,NA,timeout,4997.294,648906,648887.656,648903.777,653884.441,653885,2023-11-20T14:56:32Z,653901.071,NULL,Erneuerung,ukarabati,d,NA,NA,NA,NA,sd,0,4,NA,NA,NA,NA,NA,NA,NA,NA,NA,NA,NA,NA,NA,NA,NA,NA,NA,NA,NA
bd379,deep,flow.Sequence,3_0_4_0_4_0,NA,NA,completion,29848.813,624025.59999999,624019.036,624035.628,653884.441,653885.30000000994,2023-11-20T14:56:32Z,653901.071,NULL,Erneuerung,ukarabati,d,NA,NA,NA,NA,sd,NA,4,NA,NA,NA,NA,NA,NA,NA,NA,NA,NA,NA,NA,NA,NA,NA,NA,NA,NA,NA
bd379,shallow,flow.Sequence,3_0_4_0_4_1,NA,NA,skipped,NA,653885.40000001,NA,NA,653884.441,653885.5,2023-11-20T14:56:32Z,653901.071,NULL,Erneuerung,ukarabati,d,NA,NA,NA,NA,sd,NA,4,NA,NA,NA,NA,NA,NA,NA,NA,NA,NA,NA,NA,NA,NA,NA,NA,NA,NA,NA
bd379,task,flow.Sequence,3_0_4_0_4,NA,NA,completion,29848.813,624025.59999999,624019.036,624035.628,653884.441,653885.59999999,2023-11-20T14:56:32Z,653901.071,NULL,Erneuerung,ukarabati,d,NA,NA,NA,NA,sd,NA,4,NA,NA,NA,NA,NA,NA,NA,NA,NA,NA,NA,NA,NA,NA,NA,NA,NA,NA,NA
bd379,Deep Question,html.Page,3_0_4_0_5_0_0,NA,NA,form submission,9187.7290000119,653885.70000002,653884.441,653901.071,663088.80000001,663089.09999999,2023-11-20T14:56:41Z,663095.089,NULL,Angreifer,mshambulizi,d,NA,NA,NA,mshimbaji,NA,NA,4,NA,NA,NA,NA,NA,NA,NA,NA,NA,NA,NA,NA,NA,NA,NA,NA,NA,NA,NA
bd379,"""Richtig""-Screen",canvas.Screen,3_0_4_0_5_0_1,NA,NA,skipped,NA,663092.20000002,NA,NA,663088.80000001,663092.40000001,2023-11-20T14:56:41Z,663095.089,NULL,Angreifer,mshambulizi,d,NA,NA,NA,NA,sd,NA,4,NA,NA,NA,NA,NA,NA,NA,NA,NA,NA,NA,NA,NA,NA,NA,NA,NA,NA,NA
bd379,"""Falsch""-Screen",canvas.Screen,3_0_4_0_5_0_2,NA,NA,timeout,4997.325,663093.30000000994,663079.082,663095.089,668075.437,668076.40000001,2023-11-20T14:56:46Z,668092.414,NULL,Angreifer,mshambulizi,d,NA,NA,NA,NA,sd,0,4,NA,NA,NA,NA,NA,NA,NA,NA,NA,NA,NA,NA,NA,NA,NA,NA,NA,NA,NA
bd379,deep,flow.Sequence,3_0_4_0_5_0,NA,NA,completion,14174.366,653885.70000002,653884.441,653901.071,668075.437,668076.70000002,2023-11-20T14:56:46Z,668092.414,NULL,Angreifer,mshambulizi,d,NA,NA,NA,NA,sd,NA,4,NA,NA,NA,NA,NA,NA,NA,NA,NA,NA,NA,NA,NA,NA,NA,NA,NA,NA,NA
bd379,shallow,flow.Sequence,3_0_4_0_5_1,NA,NA,skipped,NA,668076.80000001,NA,NA,668075.437,668076.90000001,2023-11-20T14:56:46Z,668092.414,NULL,Angreifer,mshambulizi,d,NA,NA,NA,NA,sd,NA,4,NA,NA,NA,NA,NA,NA,NA,NA,NA,NA,NA,NA,NA,NA,NA,NA,NA,NA,NA
bd379,task,flow.Sequence,3_0_4_0_5,NA,NA,completion,14174.366,653885.70000002,653884.441,653901.071,668075.437,668077.09999999,2023-11-20T14:56:46Z,668092.414,NULL,Angreifer,mshambulizi,d,NA,NA,NA,NA,sd,NA,4,NA,NA,NA,NA,NA,NA,NA,NA,NA,NA,NA,NA,NA,NA,NA,NA,NA,NA,NA
bd379,Deep Question,html.Page,3_0_4_0_6_0_0,NA,NA,form submission,11327.586,668077.40000001,668075.437,668092.414,679420,679420.30000000994,2023-11-20T14:56:58Z,679435.529,NULL,Sänger,mwimbaji,d,NA,NA,NA,mono,NA,NA,4,NA,NA,NA,NA,NA,NA,NA,NA,NA,NA,NA,NA,NA,NA,NA,NA,NA,NA,NA
bd379,"""Richtig""-Screen",canvas.Screen,3_0_4_0_6_0_1,NA,NA,skipped,NA,679422.09999999,NA,NA,679420,679422.20000002,2023-11-20T14:56:58Z,679435.529,NULL,Sänger,mwimbaji,d,NA,NA,NA,NA,sd,NA,4,NA,NA,NA,NA,NA,NA,NA,NA,NA,NA,NA,NA,NA,NA,NA,NA,NA,NA,NA
bd379,"""Falsch""-Screen",canvas.Screen,3_0_4_0_6_0_2,NA,NA,timeout,4996.98,679422.80000000994,679418.338,679435.529,684415.893,684416.5,2023-11-20T14:57:03Z,684432.509,NULL,Sänger,mwimbaji,d,NA,NA,NA,NA,sd,0,4,NA,NA,NA,NA,NA,NA,NA,NA,NA,NA,NA,NA,NA,NA,NA,NA,NA,NA,NA
bd379,deep,flow.Sequence,3_0_4_0_6_0,NA,NA,completion,16323.479,668077.30000001,668075.437,668092.414,684415.893,684416.70000002,2023-11-20T14:57:03Z,684432.509,NULL,Sänger,mwimbaji,d,NA,NA,NA,NA,sd,NA,4,NA,NA,NA,NA,NA,NA,NA,NA,NA,NA,NA,NA,NA,NA,NA,NA,NA,NA,NA
bd379,shallow,flow.Sequence,3_0_4_0_6_1,NA,NA,skipped,NA,684416.70000002,NA,NA,684415.893,684416.90000001,2023-11-20T14:57:03Z,684432.509,NULL,Sänger,mwimbaji,d,NA,NA,NA,NA,sd,NA,4,NA,NA,NA,NA,NA,NA,NA,NA,NA,NA,NA,NA,NA,NA,NA,NA,NA,NA,NA
bd379,task,flow.Sequence,3_0_4_0_6,NA,NA,completion,16323.479,668077.20000002,668075.437,668092.414,684415.893,684417,2023-11-20T14:57:03Z,684432.509,NULL,Sänger,mwimbaji,d,NA,NA,NA,NA,sd,NA,4,NA,NA,NA,NA,NA,NA,NA,NA,NA,NA,NA,NA,NA,NA,NA,NA,NA,NA,NA
bd379,deep,flow.Sequence,3_0_4_0_7_0,NA,NA,skipped,NA,684417.09999999,NA,NA,684415.893,684417.20000002,2023-11-20T14:57:03Z,684432.509,NULL,Flexibilität,kubadilika,s,enjini,usikilivu,hesabu,NA,sd,NA,4,NA,NA,NA,NA,NA,NA,NA,NA,NA,NA,NA,NA,NA,NA,NA,NA,NA,NA,NA
bd379,Shallow Question,html.Page,3_0_4_0_7_1_0,NA,NA,form submission,4330.491,684417.30000001,684415.893,684432.509,688763,688763.20000002,2023-11-20T14:57:07Z,688779.835,NULL,Flexibilität,kubadilika,s,enjini,usikilivu,hesabu,kubadilika,NA,NA,4,NA,NA,NA,NA,NA,NA,NA,NA,NA,NA,NA,NA,NA,NA,NA,NA,NA,NA,NA
bd379,"""Richtig""-Screen",canvas.Screen,3_0_4_0_7_1_1,NA,NA,timeout,4996.491,688766.30000000994,688746.186,688779.835,693759.712,693760.80000001,2023-11-20T14:57:12Z,693776.326,NULL,Flexibilität,kubadilika,s,enjini,usikilivu,hesabu,NA,sd,1,4,NA,NA,NA,NA,NA,NA,NA,NA,NA,NA,NA,NA,NA,NA,NA,NA,NA,NA,NA
bd379,"""Falsch""-Screen",canvas.Screen,3_0_4_0_7_1_2,NA,NA,skipped,NA,693765.59999999,NA,NA,693759.712,693765.70000002,2023-11-20T14:57:12Z,693776.326,NULL,Flexibilität,kubadilika,s,enjini,usikilivu,hesabu,NA,sd,NA,4,NA,NA,NA,NA,NA,NA,NA,NA,NA,NA,NA,NA,NA,NA,NA,NA,NA,NA,NA
bd379,shallow,flow.Sequence,3_0_4_0_7_1,NA,NA,completion,9327.2030000001,684417.20000002,684415.893,684432.509,693759.712,693765.80000001,2023-11-20T14:57:12Z,693776.326,NULL,Flexibilität,kubadilika,s,enjini,usikilivu,hesabu,NA,sd,NA,4,NA,NA,NA,NA,NA,NA,NA,NA,NA,NA,NA,NA,NA,NA,NA,NA,NA,NA,NA
bd379,task,flow.Sequence,3_0_4_0_7,NA,NA,completion,9327.2030000001,684417.09999999,684415.893,684432.509,693759.712,693765.80000001,2023-11-20T14:57:12Z,693776.326,NULL,Flexibilität,kubadilika,s,enjini,usikilivu,hesabu,NA,sd,NA,4,NA,NA,NA,NA,NA,NA,NA,NA,NA,NA,NA,NA,NA,NA,NA,NA,NA,NA,NA
bd379,block,flow.Loop,3_0_4_0,NA,NA,completion,109666.345,584106.30000001,584075.283,584093.367,693759.712,693766,2023-11-20T14:57:12Z,693776.326,NULL,NA,NA,NA,NA,NA,NA,NA,sd,NA,4,NA,NA,NA,NA,NA,NA,NA,NA,NA,NA,NA,NA,NA,NA,NA,NA,NA,NA,NA
bd379,weiter,canvas.Screen,3_0_4_1,sdf,keypress(Space),response,1286.074000006,693766,693759.712,693776.326,695062.40000001,695063.40000001,2023-11-20T14:57:13Z,695408.645,NULL,NA,NA,NA,NA,NA,NA,NA,sd,NA,4,NA,NA,NA,NA,NA,NA,NA,NA,NA,NA,NA,NA,NA,NA,NA,NA,NA,NA,NA
bd379,check continue,flow.Sequence,3_0_4,NA,NA,completion,110969.03300001,584106.30000001,584075.283,584093.367,695062.40000001,695063.59999999,2023-11-20T14:57:13Z,695408.645,NULL,NA,NA,NA,NA,NA,NA,NA,sd,NA,4,NA,NA,NA,NA,NA,NA,NA,NA,NA,NA,NA,NA,NA,NA,NA,NA,NA,NA,NA
bd379,check continue,flow.Sequence,3_0_5,NA,NA,skipped,NA,695089.80000001,NA,NA,695062.40000001,695089.90000001,2023-11-20T14:57:13Z,695408.645,NULL,NA,NA,NA,NA,NA,NA,NA,sdf,NA,5,NA,NA,NA,NA,NA,NA,NA,NA,NA,NA,NA,NA,NA,NA,NA,NA,NA,NA,NA
bd379,check continue,flow.Sequence,3_0_6,NA,NA,skipped,NA,695106.59999999,NA,NA,695062.40000001,695106.70000002,2023-11-20T14:57:13Z,695408.645,NULL,NA,NA,NA,NA,NA,NA,NA,dfs,NA,6,NA,NA,NA,NA,NA,NA,NA,NA,NA,NA,NA,NA,NA,NA,NA,NA,NA,NA,NA
bd379,check continue,flow.Sequence,3_0_7,NA,NA,skipped,NA,695122.09999999,NA,NA,695062.40000001,695122.30000001,2023-11-20T14:57:13Z,695408.645,NULL,NA,NA,NA,NA,NA,NA,NA,df,NA,7,NA,NA,NA,NA,NA,NA,NA,NA,NA,NA,NA,NA,NA,NA,NA,NA,NA,NA,NA
bd379,check continue,flow.Sequence,3_0_8,NA,NA,skipped,NA,695136.80000001,NA,NA,695062.40000001,695136.90000001,2023-11-20T14:57:13Z,695408.645,NULL,NA,NA,NA,NA,NA,NA,NA,dfs,NA,8,NA,NA,NA,NA,NA,NA,NA,NA,NA,NA,NA,NA,NA,NA,NA,NA,NA,NA,NA
bd379,check continue,flow.Sequence,3_0_9,NA,NA,skipped,NA,695151.30000001,NA,NA,695062.40000001,695151.40000001,2023-11-20T14:57:13Z,695408.645,NULL,NA,NA,NA,NA,NA,NA,NA,dsf,NA,9,NA,NA,NA,NA,NA,NA,NA,NA,NA,NA,NA,NA,NA,NA,NA,NA,NA,NA,NA
bd379,check continue,flow.Sequence,3_0_10,NA,NA,skipped,NA,695164.30000000994,NA,NA,695062.40000001,695164.30000000994,2023-11-20T14:57:13Z,695408.645,NULL,NA,NA,NA,NA,NA,NA,NA,df,NA,10,NA,NA,NA,NA,NA,NA,NA,NA,NA,NA,NA,NA,NA,NA,NA,NA,NA,NA,NA
bd379,check continue,flow.Sequence,3_0_11,NA,NA,skipped,NA,695178.59999999,NA,NA,695062.40000001,695178.59999999,2023-11-20T14:57:13Z,695408.645,NULL,NA,NA,NA,NA,NA,NA,NA,dfs,NA,11,NA,NA,NA,NA,NA,NA,NA,NA,NA,NA,NA,NA,NA,NA,NA,NA,NA,NA,NA
bd379,check continue,flow.Sequence,3_0_12,NA,NA,skipped,NA,695191.70000002,NA,NA,695062.40000001,695191.80000001,2023-11-20T14:57:13Z,695408.645,NULL,NA,NA,NA,NA,NA,NA,NA,dsf,NA,12,NA,NA,NA,NA,NA,NA,NA,NA,NA,NA,NA,NA,NA,NA,NA,NA,NA,NA,NA
bd379,check continue,flow.Sequence,3_0_13,NA,NA,skipped,NA,695206.90000001,NA,NA,695062.40000001,695207.09999999,2023-11-20T14:57:13Z,695408.645,NULL,NA,NA,NA,NA,NA,NA,NA,dsf,NA,13,NA,NA,NA,NA,NA,NA,NA,NA,NA,NA,NA,NA,NA,NA,NA,NA,NA,NA,NA
bd379,check continue,flow.Sequence,3_0_14,NA,NA,skipped,NA,695220.70000002,NA,NA,695062.40000001,695220.80000001,2023-11-20T14:57:13Z,695408.645,NULL,NA,NA,NA,NA,NA,NA,NA,NA,NA,14,NA,NA,NA,NA,NA,NA,NA,NA,NA,NA,NA,NA,NA,NA,NA,NA,NA,NA,NA
bd379,check continue,flow.Sequence,3_0_15,NA,NA,skipped,NA,695235,NA,NA,695062.40000001,695235.20000002,2023-11-20T14:57:13Z,695408.645,NULL,NA,NA,NA,NA,NA,NA,NA,NA,NA,15,NA,NA,NA,NA,NA,NA,NA,NA,NA,NA,NA,NA,NA,NA,NA,NA,NA,NA,NA
bd379,check continue,flow.Sequence,3_0_16,NA,NA,skipped,NA,695248.30000001,NA,NA,695062.40000001,695248.30000001,2023-11-20T14:57:13Z,695408.645,NULL,NA,NA,NA,NA,NA,NA,NA,NA,NA,16,NA,NA,NA,NA,NA,NA,NA,NA,NA,NA,NA,NA,NA,NA,NA,NA,NA,NA,NA
bd379,check continue,flow.Sequence,3_0_17,NA,NA,skipped,NA,695260.80000001,NA,NA,695062.40000001,695260.90000001,2023-11-20T14:57:13Z,695408.645,NULL,NA,NA,NA,NA,NA,NA,NA,NA,NA,17,NA,NA,NA,NA,NA,NA,NA,NA,NA,NA,NA,NA,NA,NA,NA,NA,NA,NA,NA
bd379,check continue,flow.Sequence,3_0_18,NA,NA,skipped,NA,695273.59999999,NA,NA,695062.40000001,695273.70000002,2023-11-20T14:57:13Z,695408.645,NULL,NA,NA,NA,NA,NA,NA,NA,NA,NA,18,NA,NA,NA,NA,NA,NA,NA,NA,NA,NA,NA,NA,NA,NA,NA,NA,NA,NA,NA
bd379,check continue,flow.Sequence,3_0_19,NA,NA,skipped,NA,695285.70000002,NA,NA,695062.40000001,695285.70000002,2023-11-20T14:57:13Z,695408.645,NULL,NA,NA,NA,NA,NA,NA,NA,NA,NA,19,NA,NA,NA,NA,NA,NA,NA,NA,NA,NA,NA,NA,NA,NA,NA,NA,NA,NA,NA
bd379,check continue,flow.Sequence,3_0_20,NA,NA,skipped,NA,695299.5,NA,NA,695062.40000001,695299.70000002,2023-11-20T14:57:13Z,695408.645,NULL,NA,NA,NA,NA,NA,NA,NA,NA,NA,20,NA,NA,NA,NA,NA,NA,NA,NA,NA,NA,NA,NA,NA,NA,NA,NA,NA,NA,NA
bd379,check continue,flow.Sequence,3_0_21,NA,NA,skipped,NA,695311.90000001,NA,NA,695062.40000001,695312.09999999,2023-11-20T14:57:13Z,695408.645,NULL,NA,NA,NA,NA,NA,NA,NA,NA,NA,21,NA,NA,NA,NA,NA,NA,NA,NA,NA,NA,NA,NA,NA,NA,NA,NA,NA,NA,NA
bd379,check continue,flow.Sequence,3_0_22,NA,NA,skipped,NA,695325.80000001,NA,NA,695062.40000001,695325.80000001,2023-11-20T14:57:13Z,695408.645,NULL,NA,NA,NA,NA,NA,NA,NA,NA,NA,22,NA,NA,NA,NA,NA,NA,NA,NA,NA,NA,NA,NA,NA,NA,NA,NA,NA,NA,NA
bd379,check continue,flow.Sequence,3_0_23,NA,NA,skipped,NA,695337.40000001,NA,NA,695062.40000001,695337.5,2023-11-20T14:57:13Z,695408.645,NULL,NA,NA,NA,NA,NA,NA,NA,NA,NA,23,NA,NA,NA,NA,NA,NA,NA,NA,NA,NA,NA,NA,NA,NA,NA,NA,NA,NA,NA
bd379,check continue,flow.Sequence,3_0_24,NA,NA,skipped,NA,695350.30000001,NA,NA,695062.40000001,695350.40000001,2023-11-20T14:57:13Z,695408.645,NULL,NA,NA,NA,NA,NA,NA,NA,NA,NA,24,NA,NA,NA,NA,NA,NA,NA,NA,NA,NA,NA,NA,NA,NA,NA,NA,NA,NA,NA
bd379,check continue,flow.Sequence,3_0_25,NA,NA,skipped,NA,695362,NA,NA,695062.40000001,695362,2023-11-20T14:57:13Z,695408.645,NULL,NA,NA,NA,NA,NA,NA,NA,NA,NA,25,NA,NA,NA,NA,NA,NA,NA,NA,NA,NA,NA,NA,NA,NA,NA,NA,NA,NA,NA
bd379,check continue,flow.Sequence,3_0_26,NA,NA,skipped,NA,695374.40000001,NA,NA,695062.40000001,695374.5,2023-11-20T14:57:13Z,695408.645,NULL,NA,NA,NA,NA,NA,NA,NA,NA,NA,26,NA,NA,NA,NA,NA,NA,NA,NA,NA,NA,NA,NA,NA,NA,NA,NA,NA,NA,NA
bd379,check continue,flow.Sequence,3_0_27,NA,NA,skipped,NA,695385.80000001,NA,NA,695062.40000001,695385.90000001,2023-11-20T14:57:13Z,695408.645,NULL,NA,NA,NA,NA,NA,NA,NA,NA,NA,27,NA,NA,NA,NA,NA,NA,NA,NA,NA,NA,NA,NA,NA,NA,NA,NA,NA,NA,NA
bd379,check continue,flow.Sequence,3_0_28,NA,NA,skipped,NA,695398.80000001,NA,NA,695062.40000001,695398.90000001,2023-11-20T14:57:13Z,695408.645,NULL,NA,NA,NA,NA,NA,NA,NA,NA,NA,28,NA,NA,NA,NA,NA,NA,NA,NA,NA,NA,NA,NA,NA,NA,NA,NA,NA,NA,NA
bd379,check continue,flow.Sequence,3_0_29,NA,NA,skipped,NA,695420.09999999,NA,NA,695062.40000001,695420.20000002,2023-11-20T14:57:14Z,695408.645,NULL,NA,NA,NA,NA,NA,NA,NA,NA,NA,29,NA,NA,NA,NA,NA,NA,NA,NA,NA,NA,NA,NA,NA,NA,NA,NA,NA,NA,NA
bd379,until continue,flow.Loop,3_0,NA,NA,completion,546352.95200001,148699.09999999,148638.921,148709.448,695062.40000001,695420.30000001,2023-11-20T14:57:14Z,695408.645,NULL,NA,NA,NA,NA,NA,NA,NA,NA,NA,NA,NA,NA,NA,NA,NA,NA,NA,NA,NA,NA,NA,NA,NA,NA,NA,NA,NA,NA,NA
bd379,block 1,flow.Sequence,3,NA,NA,completion,546352.95200001,148699.09999999,148638.921,148709.448,695062.40000001,695420.40000001,2023-11-20T14:57:14Z,695408.645,NULL,NA,NA,NA,NA,NA,NA,NA,NA,NA,NA,NA,NA,NA,NA,NA,NA,NA,NA,NA,NA,NA,NA,NA,NA,NA,NA,NA,NA,NA
bd379,1.Part Over,canvas.Screen,4,NA,keypress(Space),response,2299.2550000059,695420.40000001,695059.514,695408.645,697707.90000001,697708.80000001,2023-11-20T14:57:16Z,697774.323,NULL,NA,NA,NA,NA,NA,NA,NA,NA,NA,NA,NA,NA,NA,NA,NA,NA,NA,NA,NA,NA,NA,NA,NA,NA,NA,NA,NA,NA,NA
bd379,Deep Question,html.Page,5_0_0_0_0_0_0,NA,NA,form submission,3744.9770000119,697756.70000002,697749.204,697774.323,701519.30000001,701519.59999999,2023-11-20T14:57:20Z,701521.637,NULL,Orientierung,urekebisho,d,NA,NA,NA,l,NA,NA,0,NA,NA,NA,NA,NA,NA,NA,NA,NA,NA,NA,NA,NA,NA,NA,NA,NA,NA,NA
bd379,"""Richtig""-Screen",canvas.Screen,5_0_0_0_0_0_1,NA,NA,skipped,NA,701522.59999999,NA,NA,701519.30000001,701522.70000002,2023-11-20T14:57:20Z,701521.637,NULL,Orientierung,urekebisho,d,NA,NA,NA,NA,sdf,NA,0,NA,NA,NA,NA,NA,NA,NA,NA,NA,NA,NA,NA,NA,NA,NA,NA,NA,NA,NA
bd379,"""Falsch""-Screen",canvas.Screen,5_0_0_0_0_0_2,NA,NA,timeout,4997.0380000001,701523.59999999,701506.031,701521.637,706502.191,706503.30000001,2023-11-20T14:57:25Z,706518.675,NULL,Orientierung,urekebisho,d,NA,NA,NA,NA,sdf,0,0,NA,NA,NA,NA,NA,NA,NA,NA,NA,NA,NA,NA,NA,NA,NA,NA,NA,NA,NA
bd379,deep,flow.Sequence,5_0_0_0_0_0,NA,NA,completion,8727.868,697756.70000002,697749.204,697774.323,706502.191,706503.70000002,2023-11-20T14:57:25Z,706518.675,NULL,Orientierung,urekebisho,d,NA,NA,NA,NA,sdf,NA,0,NA,NA,NA,NA,NA,NA,NA,NA,NA,NA,NA,NA,NA,NA,NA,NA,NA,NA,NA
bd379,shallow,flow.Sequence,5_0_0_0_0_1,NA,NA,skipped,NA,706504,NA,NA,706502.191,706504.09999999,2023-11-20T14:57:25Z,706518.675,NULL,Orientierung,urekebisho,d,NA,NA,NA,NA,sdf,NA,0,NA,NA,NA,NA,NA,NA,NA,NA,NA,NA,NA,NA,NA,NA,NA,NA,NA,NA,NA
bd379,task,flow.Sequence,5_0_0_0_0,NA,NA,completion,8727.868,697756.59999999,697749.204,697774.323,706502.191,706504.40000001,2023-11-20T14:57:25Z,706518.675,NULL,Orientierung,urekebisho,d,NA,NA,NA,NA,sdf,NA,0,NA,NA,NA,NA,NA,NA,NA,NA,NA,NA,NA,NA,NA,NA,NA,NA,NA,NA,NA
bd379,deep,flow.Sequence,5_0_0_0_1_0,NA,NA,skipped,NA,706504.59999999,NA,NA,706502.191,706504.70000002,2023-11-20T14:57:25Z,706518.675,NULL,Kontrolle,kudhibiti,s,mbinguni,kufunga,utegemezi,NA,sdf,NA,0,NA,NA,NA,NA,NA,NA,NA,NA,NA,NA,NA,NA,NA,NA,NA,NA,NA,NA,NA
bd379,Shallow Question,html.Page,5_0_0_0_1_1_0,NA,NA,form submission,4248.5250000178,706504.90000001,706502.191,706518.675,710767.20000002,710767.40000001,2023-11-20T14:57:29Z,710799.785,NULL,Kontrolle,kudhibiti,s,mbinguni,kufunga,utegemezi,kufunga,NA,NA,0,NA,NA,NA,NA,NA,NA,NA,NA,NA,NA,NA,NA,NA,NA,NA,NA,NA,NA,NA
bd379,"""Richtig""-Screen",canvas.Screen,5_0_0_0_1_1_1,NA,NA,skipped,NA,710770.59999999,NA,NA,710767.20000002,710770.70000002,2023-11-20T14:57:29Z,710799.785,NULL,Kontrolle,kudhibiti,s,mbinguni,kufunga,utegemezi,NA,sdf,NA,0,NA,NA,NA,NA,NA,NA,NA,NA,NA,NA,NA,NA,NA,NA,NA,NA,NA,NA,NA
bd379,"""Falsch""-Screen",canvas.Screen,5_0_0_0_1_1_2,NA,NA,timeout,4996.784,710771.20000002,710783.232,710799.785,715779.672,715780.70000002,2023-11-20T14:57:34Z,715796.569,NULL,Kontrolle,kudhibiti,s,mbinguni,kufunga,utegemezi,NA,sdf,0,0,NA,NA,NA,NA,NA,NA,NA,NA,NA,NA,NA,NA,NA,NA,NA,NA,NA,NA,NA
bd379,shallow,flow.Sequence,5_0_0_0_1_1,NA,NA,completion,9260.997,706504.80000001,706502.191,706518.675,715779.672,715781.30000001,2023-11-20T14:57:34Z,715796.569,NULL,Kontrolle,kudhibiti,s,mbinguni,kufunga,utegemezi,NA,sdf,NA,0,NA,NA,NA,NA,NA,NA,NA,NA,NA,NA,NA,NA,NA,NA,NA,NA,NA,NA,NA
bd379,task,flow.Sequence,5_0_0_0_1,NA,NA,completion,9260.997,706504.59999999,706502.191,706518.675,715779.672,715781.5,2023-11-20T14:57:34Z,715796.569,NULL,Kontrolle,kudhibiti,s,mbinguni,kufunga,utegemezi,NA,sdf,NA,0,NA,NA,NA,NA,NA,NA,NA,NA,NA,NA,NA,NA,NA,NA,NA,NA,NA,NA,NA
bd379,deep,flow.Sequence,5_0_0_0_2_0,NA,NA,skipped,NA,715781.70000002,NA,NA,715779.672,715781.90000001,2023-11-20T14:57:34Z,715796.569,NULL,Stimmung,kinyongo,s,kilekile,kisambo,madhehebu,NA,sdf,NA,0,NA,NA,NA,NA,NA,NA,NA,NA,NA,NA,NA,NA,NA,NA,NA,NA,NA,NA,NA
bd379,Shallow Question,html.Page,5_0_0_0_2_1_0,NA,NA,form submission,4648.030999994,715782.09999999,715779.672,715796.569,720444.59999999,720444.70000002,2023-11-20T14:57:39Z,720460.541,NULL,Stimmung,kinyongo,s,kilekile,kisambo,madhehebu,kisambo,NA,NA,0,NA,NA,NA,NA,NA,NA,NA,NA,NA,NA,NA,NA,NA,NA,NA,NA,NA,NA,NA
bd379,"""Richtig""-Screen",canvas.Screen,5_0_0_0_2_1_1,NA,NA,skipped,NA,720446.30000001,NA,NA,720444.59999999,720446.40000001,2023-11-20T14:57:39Z,720460.541,NULL,Stimmung,kinyongo,s,kilekile,kisambo,madhehebu,NA,sdf,NA,0,NA,NA,NA,NA,NA,NA,NA,NA,NA,NA,NA,NA,NA,NA,NA,NA,NA,NA,NA
bd379,"""Falsch""-Screen",canvas.Screen,5_0_0_0_2_1_2,NA,NA,timeout,4996.7150000001,720446.80000001,720443.582,720460.541,725440.739,725441.70000002,2023-11-20T14:57:44Z,725457.256,NULL,Stimmung,kinyongo,s,kilekile,kisambo,madhehebu,NA,sdf,0,0,NA,NA,NA,NA,NA,NA,NA,NA,NA,NA,NA,NA,NA,NA,NA,NA,NA,NA,NA
bd379,shallow,flow.Sequence,5_0_0_0_2_1,NA,NA,completion,9644.1699999999,715782,715779.672,715796.569,725440.739,725442.20000002,2023-11-20T14:57:44Z,725457.256,NULL,Stimmung,kinyongo,s,kilekile,kisambo,madhehebu,NA,sdf,NA,0,NA,NA,NA,NA,NA,NA,NA,NA,NA,NA,NA,NA,NA,NA,NA,NA,NA,NA,NA
bd379,task,flow.Sequence,5_0_0_0_2,NA,NA,completion,9644.1699999999,715781.70000002,715779.672,715796.569,725440.739,725442.40000001,2023-11-20T14:57:44Z,725457.256,NULL,Stimmung,kinyongo,s,kilekile,kisambo,madhehebu,NA,sdf,NA,0,NA,NA,NA,NA,NA,NA,NA,NA,NA,NA,NA,NA,NA,NA,NA,NA,NA,NA,NA
bd379,Deep Question,html.Page,5_0_0_0_3_0_0,NA,NA,form submission,9362.2439999999,725442.59999999,725440.739,725457.256,734819.5,734819.70000002,2023-11-20T14:57:53Z,734834.647,NULL,Können,unaweza,d,NA,NA,NA,k,NA,NA,0,NA,NA,NA,NA,NA,NA,NA,NA,NA,NA,NA,NA,NA,NA,NA,NA,NA,NA,NA
bd379,"""Richtig""-Screen",canvas.Screen,5_0_0_0_3_0_1,NA,NA,skipped,NA,734822.5,NA,NA,734819.5,734822.70000002,2023-11-20T14:57:53Z,734834.647,NULL,Können,unaweza,d,NA,NA,NA,NA,sdf,NA,0,NA,NA,NA,NA,NA,NA,NA,NA,NA,NA,NA,NA,NA,NA,NA,NA,NA,NA,NA
bd379,"""Falsch""-Screen",canvas.Screen,5_0_0_0_3_0_2,NA,NA,timeout,4997.22,734823.40000001,734818.022,734834.647,739815.405,739816.5,2023-11-20T14:57:58Z,739831.867,NULL,Können,unaweza,d,NA,NA,NA,NA,sdf,0,0,NA,NA,NA,NA,NA,NA,NA,NA,NA,NA,NA,NA,NA,NA,NA,NA,NA,NA,NA
bd379,deep,flow.Sequence,5_0_0_0_3_0,NA,NA,completion,14358.149,725442.59999999,725440.739,725457.256,739815.405,739817,2023-11-20T14:57:58Z,739831.867,NULL,Können,unaweza,d,NA,NA,NA,NA,sdf,NA,0,NA,NA,NA,NA,NA,NA,NA,NA,NA,NA,NA,NA,NA,NA,NA,NA,NA,NA,NA
bd379,shallow,flow.Sequence,5_0_0_0_3_1,NA,NA,skipped,NA,739817.20000002,NA,NA,739815.405,739817.30000001,2023-11-20T14:57:58Z,739831.867,NULL,Können,unaweza,d,NA,NA,NA,NA,sdf,NA,0,NA,NA,NA,NA,NA,NA,NA,NA,NA,NA,NA,NA,NA,NA,NA,NA,NA,NA,NA
bd379,task,flow.Sequence,5_0_0_0_3,NA,NA,completion,14358.149,725442.5,725440.739,725457.256,739815.405,739817.70000002,2023-11-20T14:57:58Z,739831.867,NULL,Können,unaweza,d,NA,NA,NA,NA,sdf,NA,0,NA,NA,NA,NA,NA,NA,NA,NA,NA,NA,NA,NA,NA,NA,NA,NA,NA,NA,NA
bd379,deep,flow.Sequence,5_0_0_0_4_0,NA,NA,skipped,NA,739817.80000000994,NA,NA,739815.405,739817.90000001,2023-11-20T14:57:58Z,739831.867,NULL,Betrüger,mdanganyifu,s,mwanamuziki,wastani,mahakama,NA,sdf,NA,0,NA,NA,NA,NA,NA,NA,NA,NA,NA,NA,NA,NA,NA,NA,NA,NA,NA,NA,NA
bd379,Shallow Question,html.Page,5_0_0_0_4_1_0,NA,NA,form submission,4444.8330000179,739818.20000002,739815.405,739831.867,744276.70000002,744276.90000001,2023-11-20T14:58:02Z,744278.845,NULL,Betrüger,mdanganyifu,s,mwanamuziki,wastani,mahakama,mwanamuziki,NA,NA,0,NA,NA,NA,NA,NA,NA,NA,NA,NA,NA,NA,NA,NA,NA,NA,NA,NA,NA,NA
bd379,"""Richtig""-Screen",canvas.Screen,5_0_0_0_4_1_1,NA,NA,skipped,NA,744280.20000002,NA,NA,744276.70000002,744280.30000000994,2023-11-20T14:58:02Z,744278.845,NULL,Betrüger,mdanganyifu,s,mwanamuziki,wastani,mahakama,NA,sdf,NA,0,NA,NA,NA,NA,NA,NA,NA,NA,NA,NA,NA,NA,NA,NA,NA,NA,NA,NA,NA
bd379,"""Falsch""-Screen",canvas.Screen,5_0_0_0_4_1_2,NA,NA,timeout,4997.147,744281.30000001,744262.469,744278.845,749259.249,749260.30000001,2023-11-20T14:58:07Z,749275.992,NULL,Betrüger,mdanganyifu,s,mwanamuziki,wastani,mahakama,NA,sdf,0,0,NA,NA,NA,NA,NA,NA,NA,NA,NA,NA,NA,NA,NA,NA,NA,NA,NA,NA,NA
bd379,shallow,flow.Sequence,5_0_0_0_4_1,NA,NA,completion,9427.382,739818.09999999,739815.405,739831.867,749259.249,749260.70000002,2023-11-20T14:58:07Z,749275.992,NULL,Betrüger,mdanganyifu,s,mwanamuziki,wastani,mahakama,NA,sdf,NA,0,NA,NA,NA,NA,NA,NA,NA,NA,NA,NA,NA,NA,NA,NA,NA,NA,NA,NA,NA
bd379,task,flow.Sequence,5_0_0_0_4,NA,NA,completion,9427.382,739817.70000002,739815.405,739831.867,749259.249,749261,2023-11-20T14:58:07Z,749275.992,NULL,Betrüger,mdanganyifu,s,mwanamuziki,wastani,mahakama,NA,sdf,NA,0,NA,NA,NA,NA,NA,NA,NA,NA,NA,NA,NA,NA,NA,NA,NA,NA,NA,NA,NA
bd379,Deep Question,html.Page,5_0_0_0_5_0_0,NA,NA,form submission,4291.508,749261.09999999,749259.249,749275.992,753567.5,753567.70000002,2023-11-20T14:58:12Z,753573.154,NULL,Respekt,heshima,d,NA,NA,NA,re,NA,NA,0,NA,NA,NA,NA,NA,NA,NA,NA,NA,NA,NA,NA,NA,NA,NA,NA,NA,NA,NA
bd379,"""Richtig""-Screen",canvas.Screen,5_0_0_0_5_0_1,NA,NA,skipped,NA,753570.70000002,NA,NA,753567.5,753571,2023-11-20T14:58:12Z,753573.154,NULL,Respekt,heshima,d,NA,NA,NA,NA,sdf,NA,0,NA,NA,NA,NA,NA,NA,NA,NA,NA,NA,NA,NA,NA,NA,NA,NA,NA,NA,NA
bd379,"""Falsch""-Screen",canvas.Screen,5_0_0_0_5_0_2,NA,NA,timeout,4997.471,753571.90000001,753557.127,753573.154,758553.667,758554.70000002,2023-11-20T14:58:17Z,758570.625,NULL,Respekt,heshima,d,NA,NA,NA,NA,sdf,0,0,NA,NA,NA,NA,NA,NA,NA,NA,NA,NA,NA,NA,NA,NA,NA,NA,NA,NA,NA
bd379,deep,flow.Sequence,5_0_0_0_5_0,NA,NA,completion,9277.675,749261.09999999,749259.249,749275.992,758553.667,758555.20000002,2023-11-20T14:58:17Z,758570.625,NULL,Respekt,heshima,d,NA,NA,NA,NA,sdf,NA,0,NA,NA,NA,NA,NA,NA,NA,NA,NA,NA,NA,NA,NA,NA,NA,NA,NA,NA,NA
bd379,shallow,flow.Sequence,5_0_0_0_5_1,NA,NA,skipped,NA,758555.40000001,NA,NA,758553.667,758555.59999999,2023-11-20T14:58:17Z,758570.625,NULL,Respekt,heshima,d,NA,NA,NA,NA,sdf,NA,0,NA,NA,NA,NA,NA,NA,NA,NA,NA,NA,NA,NA,NA,NA,NA,NA,NA,NA,NA
bd379,task,flow.Sequence,5_0_0_0_5,NA,NA,completion,9277.675,749261.09999999,749259.249,749275.992,758553.667,758555.90000001,2023-11-20T14:58:17Z,758570.625,NULL,Respekt,heshima,d,NA,NA,NA,NA,sdf,NA,0,NA,NA,NA,NA,NA,NA,NA,NA,NA,NA,NA,NA,NA,NA,NA,NA,NA,NA,NA
bd379,Deep Question,html.Page,5_0_0_0_6_0_0,NA,NA,form submission,2251.875,758556.09999999,758553.667,758570.625,760822.5,760822.80000001,2023-11-20T14:58:19Z,760835.391,NULL,Kreativität,ubunifu,d,NA,NA,NA,k,NA,NA,0,NA,NA,NA,NA,NA,NA,NA,NA,NA,NA,NA,NA,NA,NA,NA,NA,NA,NA,NA
bd379,"""Richtig""-Screen",canvas.Screen,5_0_0_0_6_0_1,NA,NA,skipped,NA,760825.90000001,NA,NA,760822.5,760826.09999999,2023-11-20T14:58:19Z,760835.391,NULL,Kreativität,ubunifu,d,NA,NA,NA,NA,sdf,NA,0,NA,NA,NA,NA,NA,NA,NA,NA,NA,NA,NA,NA,NA,NA,NA,NA,NA,NA,NA
