observation,sender,sender_type,sender_id,response,response_action,ended_on,duration,time_run,time_render,time_show,time_end,time_commit,timestamp,time_switch,german,swahili,enc,distractor1,distractor2,distractor3,response_2,x,correct,distractors,url_vp,url_sess,meta_labjs_version,meta_location,meta_user_agent,meta_platform,meta_language,meta_locale,meta_time_zone,meta_timezone_offset,meta_screen_width,meta_screen_height,meta_scroll_width,meta_scroll_height,meta_window_inner_width,meta_window_inner_height,meta_device_pixel_ratio,meta_labjs_build_flavor,meta_labjs_build_commit
72454,Introduction delayed retrieval,canvas.Screen,0,weiter,keypress(Space),response,368079.51800019,530.80000019073,222.913,573.282,368652.80000019,368654.80000019,2023-10-19T14:29:04Z,368683.6,NA,NA,NA,NA,NA,NA,NA,NA,NA,NULL,135,2,20.2.4,https://neurocog.fernuni.ch/studies/vweber/aberisha/delayed/index.html?vp=135&sess=2,"Mozilla/5.0 (Windows NT 10.0; Win64; x64) AppleWebKit/537.36 (KHTML, like Gecko) Chrome/117.0.0.0 Safari/537.36 Edg/117.0.2045.60",Win32,de,de-CH,Europe/Zurich,-120,2560,1440,2552,1236,2552,1284,1,production,f5b4a49f956347addd546a832a3327688c2c0fef
72454,Deep Question,html.Page,1_0_0_0,NA,NA,form submission,18941.4,368655.10000038,368666.911,368683.6,387625,387625.20000029,2023-10-19T14:29:23Z,387632.511,Annäherung,maegesho,s,madahili,kujiamini,mapendekezo,ugentaji,NA,NA,NULL,NA,NA,NA,NA,NA,NA,NA,NA,NA,NA,NA,NA,NA,NA,NA,NA,NA,NA,NA
72454,Save data screen,canvas.Screen,1_0_0_1,NA,NA,timeout,500.39000000001,387625.80000019,387620.18,387632.511,388116.254,388118.80000019,2023-10-19T14:29:23Z,388132.901,Annäherung,maegesho,s,madahili,kujiamini,mapendekezo,NA,NA,0,NULL,NA,NA,NA,NA,NA,NA,NA,NA,NA,NA,NA,NA,NA,NA,NA,NA,NA,NA,NA
72454,deep,flow.Sequence,1_0_0,NA,NA,completion,19432.654,368655.10000038,368666.911,368683.6,388116.254,388118.9000001,2023-10-19T14:29:23Z,388132.901,Annäherung,maegesho,s,madahili,kujiamini,mapendekezo,NA,NA,NA,NULL,NA,NA,NA,NA,NA,NA,NA,NA,NA,NA,NA,NA,NA,NA,NA,NA,NA,NA,NA
72454,task,flow.Sequence,1_0,NA,NA,completion,19432.654,368655.10000038,368666.911,368683.6,388116.254,388119,2023-10-19T14:29:23Z,388132.901,Annäherung,maegesho,s,madahili,kujiamini,mapendekezo,NA,NA,NA,NULL,NA,NA,NA,NA,NA,NA,NA,NA,NA,NA,NA,NA,NA,NA,NA,NA,NA,NA,NA
72454,Deep Question,html.Page,1_1_0_0,NA,NA,form submission,47182.299000286,388119.20000029,388116.254,388132.901,435315.20000029,435315.4000001,2023-10-19T14:30:10Z,435321.71,Ausschluss,kutengwa,d,ununuzi,taratibu,madeni,mtimbo,NA,NA,NULL,NA,NA,NA,NA,NA,NA,NA,NA,NA,NA,NA,NA,NA,NA,NA,NA,NA,NA,NA
72454,Save data screen,canvas.Screen,1_1_0_1,NA,NA,timeout,500.45199999999,435317.5,435305.982,435321.71,435805.465,435807.5,2023-10-19T14:30:11Z,435822.162,Ausschluss,kutengwa,d,ununuzi,taratibu,madeni,NA,NA,0,NULL,NA,NA,NA,NA,NA,NA,NA,NA,NA,NA,NA,NA,NA,NA,NA,NA,NA,NA,NA
72454,deep,flow.Sequence,1_1_0,NA,NA,completion,47672.564,388119.20000029,388116.254,388132.901,435805.465,435807.70000029,2023-10-19T14:30:11Z,435822.162,Ausschluss,kutengwa,d,ununuzi,taratibu,madeni,NA,NA,NA,NULL,NA,NA,NA,NA,NA,NA,NA,NA,NA,NA,NA,NA,NA,NA,NA,NA,NA,NA,NA
72454,task,flow.Sequence,1_1,NA,NA,completion,47672.564,388119.10000038,388116.254,388132.901,435805.465,435807.70000029,2023-10-19T14:30:11Z,435822.162,Ausschluss,kutengwa,d,ununuzi,taratibu,madeni,NA,NA,NA,NULL,NA,NA,NA,NA,NA,NA,NA,NA,NA,NA,NA,NA,NA,NA,NA,NA,NA,NA,NA
72454,Deep Question,html.Page,1_2_0_0,NA,NA,form submission,16264.738000095,435807.9000001,435805.465,435822.162,452086.9000001,452087,2023-10-19T14:30:27Z,452102.198,Gelegenheit,wakati,d,mchanganyiko,kipaumbele,kushuku,kichekescho,NA,NA,NULL,NA,NA,NA,NA,NA,NA,NA,NA,NA,NA,NA,NA,NA,NA,NA,NA,NA,NA,NA
72454,Save data screen,canvas.Screen,1_2_0_1,NA,NA,timeout,500.44100000005,452089.20000029,452071.541,452102.198,452585.942,452586.5,2023-10-19T14:30:28Z,452602.639,Gelegenheit,wakati,d,mchanganyiko,kipaumbele,kushuku,NA,NA,0,NULL,NA,NA,NA,NA,NA,NA,NA,NA,NA,NA,NA,NA,NA,NA,NA,NA,NA,NA,NA
72454,deep,flow.Sequence,1_2_0,NA,NA,completion,16763.78,435807.9000001,435805.465,435822.162,452585.942,452586.60000038,2023-10-19T14:30:28Z,452602.639,Gelegenheit,wakati,d,mchanganyiko,kipaumbele,kushuku,NA,NA,NA,NULL,NA,NA,NA,NA,NA,NA,NA,NA,NA,NA,NA,NA,NA,NA,NA,NA,NA,NA,NA
72454,task,flow.Sequence,1_2,NA,NA,completion,16763.78,435807.80000019,435805.465,435822.162,452585.942,452586.60000038,2023-10-19T14:30:28Z,452602.639,Gelegenheit,wakati,d,mchanganyiko,kipaumbele,kushuku,NA,NA,NA,NULL,NA,NA,NA,NA,NA,NA,NA,NA,NA,NA,NA,NA,NA,NA,NA,NA,NA,NA,NA
72454,Deep Question,html.Page,1_3_0_0,NA,NA,form submission,20671.961000381,452586.80000019,452585.942,452602.639,473274.60000038,473274.80000019,2023-10-19T14:30:48Z,473286.484,Polizist,msongora,d,simanzi,mandhari,nidhamu,mshindrini,NA,NA,NULL,NA,NA,NA,NA,NA,NA,NA,NA,NA,NA,NA,NA,NA,NA,NA,NA,NA,NA,NA
72454,Save data screen,canvas.Screen,1_3_0_1,NA,NA,timeout,500.24800000002,473276.80000019,473273.335,473286.484,473770.052,473771.60000038,2023-10-19T14:30:49Z,473786.732,Polizist,msongora,d,simanzi,mandhari,nidhamu,NA,NA,0,NULL,NA,NA,NA,NA,NA,NA,NA,NA,NA,NA,NA,NA,NA,NA,NA,NA,NA,NA,NA
72454,deep,flow.Sequence,1_3_0,NA,NA,completion,21167.413,452586.80000019,452585.942,452602.639,473770.052,473771.70000029,2023-10-19T14:30:49Z,473786.732,Polizist,msongora,d,simanzi,mandhari,nidhamu,NA,NA,NA,NULL,NA,NA,NA,NA,NA,NA,NA,NA,NA,NA,NA,NA,NA,NA,NA,NA,NA,NA,NA
72454,task,flow.Sequence,1_3,NA,NA,completion,21167.413,452586.80000019,452585.942,452602.639,473770.052,473771.70000029,2023-10-19T14:30:49Z,473786.732,Polizist,msongora,d,simanzi,mandhari,nidhamu,NA,NA,NA,NULL,NA,NA,NA,NA,NA,NA,NA,NA,NA,NA,NA,NA,NA,NA,NA,NA,NA,NA,NA
72454,Deep Question,html.Page,1_4_0_0,NA,NA,form submission,8439.9680002861,473771.9000001,473770.052,473786.732,482226.70000029,482226.9000001,2023-10-19T14:30:57Z,482244.132,Beweis,ushahidi,d,marudio,kizuizi,mtendaji,kiuvementi,NA,NA,NULL,NA,NA,NA,NA,NA,NA,NA,NA,NA,NA,NA,NA,NA,NA,NA,NA,NA,NA,NA
72454,Save data screen,canvas.Screen,1_4_0_1,NA,NA,timeout,499.95199999999,482229,482213.014,482244.132,482727.415,482727.9000001,2023-10-19T14:30:58Z,482744.084,Beweis,ushahidi,d,marudio,kizuizi,mtendaji,NA,NA,0,NULL,NA,NA,NA,NA,NA,NA,NA,NA,NA,NA,NA,NA,NA,NA,NA,NA,NA,NA,NA
72454,deep,flow.Sequence,1_4_0,NA,NA,completion,8940.683,473771.80000019,473770.052,473786.732,482727.415,482728.10000038,2023-10-19T14:30:58Z,482744.084,Beweis,ushahidi,d,marudio,kizuizi,mtendaji,NA,NA,NA,NULL,NA,NA,NA,NA,NA,NA,NA,NA,NA,NA,NA,NA,NA,NA,NA,NA,NA,NA,NA
72454,task,flow.Sequence,1_4,NA,NA,completion,8940.683,473771.80000019,473770.052,473786.732,482727.415,482728.20000029,2023-10-19T14:30:58Z,482744.084,Beweis,ushahidi,d,marudio,kizuizi,mtendaji,NA,NA,NA,NULL,NA,NA,NA,NA,NA,NA,NA,NA,NA,NA,NA,NA,NA,NA,NA,NA,NA,NA,NA
72454,Deep Question,html.Page,1_5_0_0,NA,NA,form submission,46322.716000191,482728.30000019,482727.415,482744.084,529066.80000019,529066.9000001,2023-10-19T14:31:44Z,529082.302,Symbol,kielezo,s,kinyume,nderemo,utayari,mwaguani,NA,NA,NULL,NA,NA,NA,NA,NA,NA,NA,NA,NA,NA,NA,NA,NA,NA,NA,NA,NA,NA,NA
72454,Save data screen,canvas.Screen,1_5_0_1,NA,NA,timeout,500.31999999995,529068.60000038,529051.824,529082.302,529565.943,529567.70000029,2023-10-19T14:31:45Z,529582.622,Symbol,kielezo,s,kinyume,nderemo,utayari,NA,NA,0,NULL,NA,NA,NA,NA,NA,NA,NA,NA,NA,NA,NA,NA,NA,NA,NA,NA,NA,NA,NA
72454,deep,flow.Sequence,1_5_0,NA,NA,completion,46821.859,482728.30000019,482727.415,482744.084,529565.943,529567.80000019,2023-10-19T14:31:45Z,529582.622,Symbol,kielezo,s,kinyume,nderemo,utayari,NA,NA,NA,NULL,NA,NA,NA,NA,NA,NA,NA,NA,NA,NA,NA,NA,NA,NA,NA,NA,NA,NA,NA
72454,task,flow.Sequence,1_5,NA,NA,completion,46821.859,482728.30000019,482727.415,482744.084,529565.943,529567.9000001,2023-10-19T14:31:45Z,529582.622,Symbol,kielezo,s,kinyume,nderemo,utayari,NA,NA,NA,NULL,NA,NA,NA,NA,NA,NA,NA,NA,NA,NA,NA,NA,NA,NA,NA,NA,NA,NA,NA
72454,Deep Question,html.Page,1_6_0_0,NA,NA,form submission,11915.678000191,529568,529565.943,529582.622,541498.30000019,541498.5,2023-10-19T14:31:57Z,541509.044,Wettbewerb,ushindani,d,mapendezi,kichocheo,ubaguzi,mshindani,NA,NA,NULL,NA,NA,NA,NA,NA,NA,NA,NA,NA,NA,NA,NA,NA,NA,NA,NA,NA,NA,NA
72454,Save data screen,canvas.Screen,1_6_0_1,NA,NA,timeout,500.42200000002,541500.20000029,541496.566,541509.044,541992.829,541993.5,2023-10-19T14:31:57Z,542009.466,Wettbewerb,ushindani,d,mapendezi,kichocheo,ubaguzi,NA,NA,0,NULL,NA,NA,NA,NA,NA,NA,NA,NA,NA,NA,NA,NA,NA,NA,NA,NA,NA,NA,NA
72454,deep,flow.Sequence,1_6_0,NA,NA,completion,12410.207,529568,529565.943,529582.622,541992.829,541993.60000038,2023-10-19T14:31:57Z,542009.466,Wettbewerb,ushindani,d,mapendezi,kichocheo,ubaguzi,NA,NA,NA,NULL,NA,NA,NA,NA,NA,NA,NA,NA,NA,NA,NA,NA,NA,NA,NA,NA,NA,NA,NA
72454,task,flow.Sequence,1_6,NA,NA,completion,12410.207,529568,529565.943,529582.622,541992.829,541993.70000029,2023-10-19T14:31:57Z,542009.466,Wettbewerb,ushindani,d,mapendezi,kichocheo,ubaguzi,NA,NA,NA,NULL,NA,NA,NA,NA,NA,NA,NA,NA,NA,NA,NA,NA,NA,NA,NA,NA,NA,NA,NA
72454,Deep Question,html.Page,1_7_0_0,NA,NA,form submission,22513.034,541993.80000019,541992.829,542009.466,564522.5,564522.60000038,2023-10-19T14:32:20Z,564527.997,Zuwachs,nyongeza,s,matilaba,udhibiti,hudhurio,yialyomo,NA,NA,NULL,NA,NA,NA,NA,NA,NA,NA,NA,NA,NA,NA,NA,NA,NA,NA,NA,NA,NA,NA
72454,Save data screen,canvas.Screen,1_7_0_1,NA,NA,timeout,500.41100000008,564524.4000001,564518.695,564527.997,565011.766,565012.30000019,2023-10-19T14:32:20Z,565028.408,Zuwachs,nyongeza,s,matilaba,udhibiti,hudhurio,NA,NA,0,NULL,NA,NA,NA,NA,NA,NA,NA,NA,NA,NA,NA,NA,NA,NA,NA,NA,NA,NA,NA
72454,deep,flow.Sequence,1_7_0,NA,NA,completion,23002.3,541993.80000019,541992.829,542009.466,565011.766,565012.4000001,2023-10-19T14:32:20Z,565028.408,Zuwachs,nyongeza,s,matilaba,udhibiti,hudhurio,NA,NA,NA,NULL,NA,NA,NA,NA,NA,NA,NA,NA,NA,NA,NA,NA,NA,NA,NA,NA,NA,NA,NA
72454,task,flow.Sequence,1_7,NA,NA,completion,23002.3,541993.70000029,541992.829,542009.466,565011.766,565012.4000001,2023-10-19T14:32:20Z,565028.408,Zuwachs,nyongeza,s,matilaba,udhibiti,hudhurio,NA,NA,NA,NULL,NA,NA,NA,NA,NA,NA,NA,NA,NA,NA,NA,NA,NA,NA,NA,NA,NA,NA,NA
72454,Deep Question,html.Page,1_8_0_0,NA,NA,form submission,5993.9920000953,565012.5,565011.766,565028.408,571022.4000001,571022.60000038,2023-10-19T14:32:26Z,571033.359,Auftrag,uagizaji,d,ghanima,kuzingatia,msukani,yialyomo,NA,NA,NULL,NA,NA,NA,NA,NA,NA,NA,NA,NA,NA,NA,NA,NA,NA,NA,NA,NA,NA,NA
72454,Save data screen,canvas.Screen,1_8_0_1,NA,NA,timeout,500.43099999998,571024,571019.084,571033.359,571517.117,571518.70000029,2023-10-19T14:32:27Z,571533.79,Auftrag,uagizaji,d,ghanima,kuzingatia,msukani,NA,NA,0,NULL,NA,NA,NA,NA,NA,NA,NA,NA,NA,NA,NA,NA,NA,NA,NA,NA,NA,NA,NA
72454,deep,flow.Sequence,1_8_0,NA,NA,completion,6488.7089999999,565012.5,565011.766,565028.408,571517.117,571518.9000001,2023-10-19T14:32:27Z,571533.79,Auftrag,uagizaji,d,ghanima,kuzingatia,msukani,NA,NA,NA,NULL,NA,NA,NA,NA,NA,NA,NA,NA,NA,NA,NA,NA,NA,NA,NA,NA,NA,NA,NA
72454,task,flow.Sequence,1_8,NA,NA,completion,6488.7089999999,565012.5,565011.766,565028.408,571517.117,571518.9000001,2023-10-19T14:32:27Z,571533.79,Auftrag,uagizaji,d,ghanima,kuzingatia,msukani,NA,NA,NA,NULL,NA,NA,NA,NA,NA,NA,NA,NA,NA,NA,NA,NA,NA,NA,NA,NA,NA,NA,NA
72454,Deep Question,html.Page,1_9_0_0,NA,NA,form submission,58668.310000381,571519,571517.117,571533.79,630202.10000038,630202.30000019,2023-10-19T14:33:25Z,630215.409,Zufall,kikuti,s,kukosekana,uchoraji,leseni,mafinikio,NA,NA,NULL,NA,NA,NA,NA,NA,NA,NA,NA,NA,NA,NA,NA,NA,NA,NA,NA,NA,NA,NA
72454,Save data screen,canvas.Screen,1_9_0_1,NA,NA,timeout,500.41099999996,630204.10000038,630186.054,630215.409,630699.127,630699.70000029,2023-10-19T14:33:26Z,630715.82,Zufall,kikuti,s,kukosekana,uchoraji,leseni,NA,NA,0,NULL,NA,NA,NA,NA,NA,NA,NA,NA,NA,NA,NA,NA,NA,NA,NA,NA,NA,NA,NA
72454,deep,flow.Sequence,1_9_0,NA,NA,completion,59165.337,571519,571517.117,571533.79,630699.127,630699.80000019,2023-10-19T14:33:26Z,630715.82,Zufall,kikuti,s,kukosekana,uchoraji,leseni,NA,NA,NA,NULL,NA,NA,NA,NA,NA,NA,NA,NA,NA,NA,NA,NA,NA,NA,NA,NA,NA,NA,NA
72454,task,flow.Sequence,1_9,NA,NA,completion,59165.337,571518.9000001,571517.117,571533.79,630699.127,630700,2023-10-19T14:33:26Z,630715.82,Zufall,kikuti,s,kukosekana,uchoraji,leseni,NA,NA,NA,NULL,NA,NA,NA,NA,NA,NA,NA,NA,NA,NA,NA,NA,NA,NA,NA,NA,NA,NA,NA
72454,Deep Question,html.Page,1_10_0_0,NA,NA,form submission,6390.4800001908,630700,630699.127,630715.82,637106.30000019,637106.5,2023-10-19T14:33:32Z,637121.088,Verstand,ufahamivu,s,shakawa,hadhari,mhandisi,mafinikio,NA,NA,NULL,NA,NA,NA,NA,NA,NA,NA,NA,NA,NA,NA,NA,NA,NA,NA,NA,NA,NA,NA
72454,Save data screen,canvas.Screen,1_10_0_1,NA,NA,timeout,500.41300000006,637107.80000019,637090.665,637121.088,637604.809,637605.30000019,2023-10-19T14:33:33Z,637621.501,Verstand,ufahamivu,s,shakawa,hadhari,mhandisi,NA,NA,0,NULL,NA,NA,NA,NA,NA,NA,NA,NA,NA,NA,NA,NA,NA,NA,NA,NA,NA,NA,NA
72454,deep,flow.Sequence,1_10_0,NA,NA,completion,6888.9890000001,630700,630699.127,630715.82,637604.809,637605.4000001,2023-10-19T14:33:33Z,637621.501,Verstand,ufahamivu,s,shakawa,hadhari,mhandisi,NA,NA,NA,NULL,NA,NA,NA,NA,NA,NA,NA,NA,NA,NA,NA,NA,NA,NA,NA,NA,NA,NA,NA
72454,task,flow.Sequence,1_10,NA,NA,completion,6888.9890000001,630700,630699.127,630715.82,637604.809,637605.4000001,2023-10-19T14:33:33Z,637621.501,Verstand,ufahamivu,s,shakawa,hadhari,mhandisi,NA,NA,NA,NULL,NA,NA,NA,NA,NA,NA,NA,NA,NA,NA,NA,NA,NA,NA,NA,NA,NA,NA,NA
72454,Deep Question,html.Page,1_11_0_0,NA,NA,form submission,9800.999,637605.5,637604.809,637621.501,647422.5,647422.80000019,2023-10-19T14:33:42Z,647429.526,Schönheit,kirembo,s,mahojiano,msisimko,jitihadi,dharua,NA,NA,NULL,NA,NA,NA,NA,NA,NA,NA,NA,NA,NA,NA,NA,NA,NA,NA,NA,NA,NA,NA
72454,Save data screen,canvas.Screen,1_11_0_1,NA,NA,timeout,500.402,647424.30000019,647417.449,647429.526,647913.291,647915.5,2023-10-19T14:33:43Z,647929.928,Schönheit,kirembo,s,mahojiano,msisimko,jitihadi,NA,NA,0,NULL,NA,NA,NA,NA,NA,NA,NA,NA,NA,NA,NA,NA,NA,NA,NA,NA,NA,NA,NA
72454,deep,flow.Sequence,1_11_0,NA,NA,completion,10291.79,637605.5,637604.809,637621.501,647913.291,647915.60000038,2023-10-19T14:33:43Z,647929.928,Schönheit,kirembo,s,mahojiano,msisimko,jitihadi,NA,NA,NA,NULL,NA,NA,NA,NA,NA,NA,NA,NA,NA,NA,NA,NA,NA,NA,NA,NA,NA,NA,NA
72454,task,flow.Sequence,1_11,NA,NA,completion,10291.79,637605.4000001,637604.809,637621.501,647913.291,647915.80000019,2023-10-19T14:33:43Z,647929.928,Schönheit,kirembo,s,mahojiano,msisimko,jitihadi,NA,NA,NA,NULL,NA,NA,NA,NA,NA,NA,NA,NA,NA,NA,NA,NA,NA,NA,NA,NA,NA,NA,NA
72454,Deep Question,html.Page,1_12_0_0,NA,NA,form submission,8108.3720001908,647915.9000001,647913.291,647929.928,656038.30000019,656038.5,2023-10-19T14:33:51Z,656053.31,Vorsorge,tahadhari,d,ufafanuzi,makini,mashambani,epelelezi,NA,NA,NULL,NA,NA,NA,NA,NA,NA,NA,NA,NA,NA,NA,NA,NA,NA,NA,NA,NA,NA,NA
72454,Save data screen,canvas.Screen,1_12_0_1,NA,NA,timeout,500.38799999992,656040.60000038,656022.64,656053.31,656537.053,656537.80000019,2023-10-19T14:33:52Z,656553.698,Vorsorge,tahadhari,d,ufafanuzi,makini,mashambani,NA,NA,0,NULL,NA,NA,NA,NA,NA,NA,NA,NA,NA,NA,NA,NA,NA,NA,NA,NA,NA,NA,NA
72454,deep,flow.Sequence,1_12_0,NA,NA,completion,8607.125,647915.9000001,647913.291,647929.928,656537.053,656537.9000001,2023-10-19T14:33:52Z,656553.698,Vorsorge,tahadhari,d,ufafanuzi,makini,mashambani,NA,NA,NA,NULL,NA,NA,NA,NA,NA,NA,NA,NA,NA,NA,NA,NA,NA,NA,NA,NA,NA,NA,NA
72454,task,flow.Sequence,1_12,NA,NA,completion,8607.125,647915.80000019,647913.291,647929.928,656537.053,656538,2023-10-19T14:33:52Z,656553.698,Vorsorge,tahadhari,d,ufafanuzi,makini,mashambani,NA,NA,NA,NULL,NA,NA,NA,NA,NA,NA,NA,NA,NA,NA,NA,NA,NA,NA,NA,NA,NA,NA,NA
72454,Deep Question,html.Page,1_13_0_0,NA,NA,form submission,7532.5020002861,656538.20000029,656537.053,656553.698,664086.20000029,664086.4000001,2023-10-19T14:33:59Z,664093.239,Konkurrent,mshindani,d,msemaji,mvutaji,kipukusa,mwadani,NA,NA,NULL,NA,NA,NA,NA,NA,NA,NA,NA,NA,NA,NA,NA,NA,NA,NA,NA,NA,NA,NA
72454,Save data screen,canvas.Screen,1_13_0_1,NA,NA,timeout,500.42300000007,664088,664080.312,664093.239,664577.013,664577.5,2023-10-19T14:34:00Z,664593.662,Konkurrent,mshindani,d,msemaji,mvutaji,kipukusa,NA,NA,0,NULL,NA,NA,NA,NA,NA,NA,NA,NA,NA,NA,NA,NA,NA,NA,NA,NA,NA,NA,NA
72454,deep,flow.Sequence,1_13_0,NA,NA,completion,8023.3150000001,656538.20000029,656537.053,656553.698,664577.013,664577.70000029,2023-10-19T14:34:00Z,664593.662,Konkurrent,mshindani,d,msemaji,mvutaji,kipukusa,NA,NA,NA,NULL,NA,NA,NA,NA,NA,NA,NA,NA,NA,NA,NA,NA,NA,NA,NA,NA,NA,NA,NA
72454,task,flow.Sequence,1_13,NA,NA,completion,8023.3150000001,656538,656537.053,656553.698,664577.013,664577.70000029,2023-10-19T14:34:00Z,664593.662,Konkurrent,mshindani,d,msemaji,mvutaji,kipukusa,NA,NA,NA,NULL,NA,NA,NA,NA,NA,NA,NA,NA,NA,NA,NA,NA,NA,NA,NA,NA,NA,NA,NA
72454,Deep Question,html.Page,1_14_0_0,NA,NA,form submission,17244.838,664577.70000029,664577.013,664593.662,681838.5,681838.60000038,2023-10-19T14:34:17Z,681841.16,Widerstand,usulubu,s,kusababisha,mwalimu,mwenendo,fenol,NA,NA,NULL,NA,NA,NA,NA,NA,NA,NA,NA,NA,NA,NA,NA,NA,NA,NA,NA,NA,NA,NA
72454,Save data screen,canvas.Screen,1_14_0_1,NA,NA,timeout,500.73399999994,681840.80000019,681827.74,681841.16,682325.1,682326,2023-10-19T14:34:17Z,682341.894,Widerstand,usulubu,s,kusababisha,mwalimu,mwenendo,NA,NA,0,NULL,NA,NA,NA,NA,NA,NA,NA,NA,NA,NA,NA,NA,NA,NA,NA,NA,NA,NA,NA
72454,deep,flow.Sequence,1_14_0,NA,NA,completion,17731.438,664577.70000029,664577.013,664593.662,682325.1,682326.20000029,2023-10-19T14:34:17Z,682341.894,Widerstand,usulubu,s,kusababisha,mwalimu,mwenendo,NA,NA,NA,NULL,NA,NA,NA,NA,NA,NA,NA,NA,NA,NA,NA,NA,NA,NA,NA,NA,NA,NA,NA
72454,task,flow.Sequence,1_14,NA,NA,completion,17731.438,664577.70000029,664577.013,664593.662,682325.1,682326.30000019,2023-10-19T14:34:17Z,682341.894,Widerstand,usulubu,s,kusababisha,mwalimu,mwenendo,NA,NA,NA,NULL,NA,NA,NA,NA,NA,NA,NA,NA,NA,NA,NA,NA,NA,NA,NA,NA,NA,NA,NA
72454,Deep Question,html.Page,1_15_0_0,NA,NA,form submission,25421.806000286,682326.5,682325.1,682341.894,707763.70000029,707763.9000001,2023-10-19T14:34:43Z,707779.248,Sympathie,mapendano,s,dhamiria,fungamano,maazimio,guanajaribu,NA,NA,NULL,NA,NA,NA,NA,NA,NA,NA,NA,NA,NA,NA,NA,NA,NA,NA,NA,NA,NA,NA
72454,Save data screen,canvas.Screen,1_15_0_1,NA,NA,timeout,500.45199999993,707766.70000029,707762.551,707779.248,708263.307,708265.30000019,2023-10-19T14:34:43Z,708279.7,Sympathie,mapendano,s,dhamiria,fungamano,maazimio,NA,NA,0,NULL,NA,NA,NA,NA,NA,NA,NA,NA,NA,NA,NA,NA,NA,NA,NA,NA,NA,NA,NA
72454,deep,flow.Sequence,1_15_0,NA,NA,completion,25921.413,682326.5,682325.1,682341.894,708263.307,708265.70000029,2023-10-19T14:34:43Z,708279.7,Sympathie,mapendano,s,dhamiria,fungamano,maazimio,NA,NA,NA,NULL,NA,NA,NA,NA,NA,NA,NA,NA,NA,NA,NA,NA,NA,NA,NA,NA,NA,NA,NA
72454,task,flow.Sequence,1_15,NA,NA,completion,25921.413,682326.5,682325.1,682341.894,708263.307,708266.10000038,2023-10-19T14:34:43Z,708279.7,Sympathie,mapendano,s,dhamiria,fungamano,maazimio,NA,NA,NA,NULL,NA,NA,NA,NA,NA,NA,NA,NA,NA,NA,NA,NA,NA,NA,NA,NA,NA,NA,NA
72454,retrieval block 1 (cued recall),flow.Loop,1,NA,NA,completion,339579.707,368655.10000038,368666.911,368683.6,708263.307,708266.60000038,2023-10-19T14:34:43Z,708279.7,NA,NA,NA,NA,NA,NA,NA,NA,NA,NULL,NA,NA,NA,NA,NA,NA,NA,NA,NA,NA,NA,NA,NA,NA,NA,NA,NA,NA,NA
72454,Shallow Question,html.Page,2_0_0_0,NA,NA,form submission,6073.5000002861,708266.9000001,708263.307,708279.7,714353.20000029,714353.5,2023-10-19T14:34:49Z,714368.018,Ausschluss,kutengwa,d,ununuzi,taratibu,madeni,kutengwa,NA,NA,"c(""distractor1"", ""distractor2"", ""distractor3"")",NA,NA,NA,NA,NA,NA,NA,NA,NA,NA,NA,NA,NA,NA,NA,NA,NA,NA,NA
72454,Save data screen,canvas.Screen,2_0_0_1,NA,NA,timeout,500.58600000001,714356,714351.995,714368.018,714851.999,714852.60000038,2023-10-19T14:34:50Z,714868.604,Ausschluss,kutengwa,d,ununuzi,taratibu,madeni,NA,NA,1,"c(""distractor1"", ""distractor2"", ""distractor3"")",NA,NA,NA,NA,NA,NA,NA,NA,NA,NA,NA,NA,NA,NA,NA,NA,NA,NA,NA
72454,shallow,flow.Sequence,2_0_0,NA,NA,completion,6572.299,708266.9000001,708263.307,708279.7,714851.999,714852.70000029,2023-10-19T14:34:50Z,714868.604,Ausschluss,kutengwa,d,ununuzi,taratibu,madeni,NA,NA,NA,"c(""distractor1"", ""distractor2"", ""distractor3"")",NA,NA,NA,NA,NA,NA,NA,NA,NA,NA,NA,NA,NA,NA,NA,NA,NA,NA,NA
72454,task,flow.Sequence,2_0,NA,NA,completion,6572.299,708266.80000019,708263.307,708279.7,714851.999,714852.9000001,2023-10-19T14:34:50Z,714868.604,Ausschluss,kutengwa,d,ununuzi,taratibu,madeni,NA,NA,NA,"c(""distractor1"", ""distractor2"", ""distractor3"")",NA,NA,NA,NA,NA,NA,NA,NA,NA,NA,NA,NA,NA,NA,NA,NA,NA,NA,NA
72454,Shallow Question,html.Page,2_1_0_0,NA,NA,form submission,4077.6960001907,714852.9000001,714851.999,714868.604,718946.30000019,718946.4000001,2023-10-19T14:34:54Z,718955.26,Vorsorge,tahadhari,d,ufafanuzi,makini,mashambani,tahadhari,NA,NA,"c(""distractor1"", ""distractor2"", ""distractor3"")",NA,NA,NA,NA,NA,NA,NA,NA,NA,NA,NA,NA,NA,NA,NA,NA,NA,NA,NA
72454,Save data screen,canvas.Screen,2_1_0_1,NA,NA,timeout,500.26099999994,718947.80000019,718938.881,718955.26,719438.878,719441.20000029,2023-10-19T14:34:54Z,719455.521,Vorsorge,tahadhari,d,ufafanuzi,makini,mashambani,NA,NA,1,"c(""distractor1"", ""distractor2"", ""distractor3"")",NA,NA,NA,NA,NA,NA,NA,NA,NA,NA,NA,NA,NA,NA,NA,NA,NA,NA,NA
72454,shallow,flow.Sequence,2_1_0,NA,NA,completion,4570.274,714852.9000001,714851.999,714868.604,719438.878,719441.70000029,2023-10-19T14:34:54Z,719455.521,Vorsorge,tahadhari,d,ufafanuzi,makini,mashambani,NA,NA,NA,"c(""distractor1"", ""distractor2"", ""distractor3"")",NA,NA,NA,NA,NA,NA,NA,NA,NA,NA,NA,NA,NA,NA,NA,NA,NA,NA,NA
72454,task,flow.Sequence,2_1,NA,NA,completion,4570.274,714852.9000001,714851.999,714868.604,719438.878,719442,2023-10-19T14:34:54Z,719455.521,Vorsorge,tahadhari,d,ufafanuzi,makini,mashambani,NA,NA,NA,"c(""distractor1"", ""distractor2"", ""distractor3"")",NA,NA,NA,NA,NA,NA,NA,NA,NA,NA,NA,NA,NA,NA,NA,NA,NA,NA,NA
72454,Shallow Question,html.Page,2_2_0_0,NA,NA,form submission,5725.5790003815,719442.30000019,719438.878,719455.521,725181.10000038,725181.4000001,2023-10-19T14:35:00Z,725193.552,Widerstand,usulubu,s,kusababisha,mwalimu,mwenendo,usulubu,NA,NA,"c(""distractor1"", ""distractor2"", ""distractor3"")",NA,NA,NA,NA,NA,NA,NA,NA,NA,NA,NA,NA,NA,NA,NA,NA,NA,NA,NA
72454,Save data screen,canvas.Screen,2_2_0_1,NA,NA,timeout,500.397,725183.9000001,725177.226,725193.552,725677.228,725679.60000038,2023-10-19T14:35:01Z,725693.949,Widerstand,usulubu,s,kusababisha,mwalimu,mwenendo,NA,NA,1,"c(""distractor1"", ""distractor2"", ""distractor3"")",NA,NA,NA,NA,NA,NA,NA,NA,NA,NA,NA,NA,NA,NA,NA,NA,NA,NA,NA
72454,shallow,flow.Sequence,2_2_0,NA,NA,completion,6221.7070000001,719442.30000019,719438.878,719455.521,725677.228,725679.60000038,2023-10-19T14:35:01Z,725693.949,Widerstand,usulubu,s,kusababisha,mwalimu,mwenendo,NA,NA,NA,"c(""distractor1"", ""distractor2"", ""distractor3"")",NA,NA,NA,NA,NA,NA,NA,NA,NA,NA,NA,NA,NA,NA,NA,NA,NA,NA,NA
72454,task,flow.Sequence,2_2,NA,NA,completion,6221.7070000001,719442.20000029,719438.878,719455.521,725677.228,725679.70000029,2023-10-19T14:35:01Z,725693.949,Widerstand,usulubu,s,kusababisha,mwalimu,mwenendo,NA,NA,NA,"c(""distractor1"", ""distractor2"", ""distractor3"")",NA,NA,NA,NA,NA,NA,NA,NA,NA,NA,NA,NA,NA,NA,NA,NA,NA,NA,NA
72454,Shallow Question,html.Page,2_3_0_0,NA,NA,form submission,2806.9510000953,725679.80000019,725677.228,725693.949,728500.9000001,728501.10000038,2023-10-19T14:35:04Z,728513.75,Konkurrent,mshindani,d,msemaji,mvutaji,kipukusa,mshindani,NA,NA,"c(""distractor1"", ""distractor2"", ""distractor3"")",NA,NA,NA,NA,NA,NA,NA,NA,NA,NA,NA,NA,NA,NA,NA,NA,NA,NA,NA
72454,Save data screen,canvas.Screen,2_3_0_1,NA,NA,timeout,499.647,728503.60000038,728497.062,728513.75,728997.003,728998.20000029,2023-10-19T14:35:04Z,729013.397,Konkurrent,mshindani,d,msemaji,mvutaji,kipukusa,NA,NA,1,"c(""distractor1"", ""distractor2"", ""distractor3"")",NA,NA,NA,NA,NA,NA,NA,NA,NA,NA,NA,NA,NA,NA,NA,NA,NA,NA,NA
72454,shallow,flow.Sequence,2_3_0,NA,NA,completion,3303.054,725679.70000029,725677.228,725693.949,728997.003,728998.4000001,2023-10-19T14:35:04Z,729013.397,Konkurrent,mshindani,d,msemaji,mvutaji,kipukusa,NA,NA,NA,"c(""distractor1"", ""distractor2"", ""distractor3"")",NA,NA,NA,NA,NA,NA,NA,NA,NA,NA,NA,NA,NA,NA,NA,NA,NA,NA,NA
72454,task,flow.Sequence,2_3,NA,NA,completion,3303.054,725679.70000029,725677.228,725693.949,728997.003,728998.60000038,2023-10-19T14:35:04Z,729013.397,Konkurrent,mshindani,d,msemaji,mvutaji,kipukusa,NA,NA,NA,"c(""distractor1"", ""distractor2"", ""distractor3"")",NA,NA,NA,NA,NA,NA,NA,NA,NA,NA,NA,NA,NA,NA,NA,NA,NA,NA,NA
72454,Shallow Question,html.Page,2_4_0_0,NA,NA,form submission,3249.7030003815,728998.70000029,728997.003,729013.397,732263.10000038,732263.30000019,2023-10-19T14:35:07Z,732282.91,Symbol,kielezo,s,kinyume,nderemo,utayari,kielezo,NA,NA,"c(""distractor1"", ""distractor2"", ""distractor3"")",NA,NA,NA,NA,NA,NA,NA,NA,NA,NA,NA,NA,NA,NA,NA,NA,NA,NA,NA
72454,Save data screen,canvas.Screen,2_4_0_1,NA,NA,timeout,500.22899999993,732265.9000001,732266.039,732282.91,732766.715,732768.5,2023-10-19T14:35:08Z,732783.139,Symbol,kielezo,s,kinyume,nderemo,utayari,NA,NA,1,"c(""distractor1"", ""distractor2"", ""distractor3"")",NA,NA,NA,NA,NA,NA,NA,NA,NA,NA,NA,NA,NA,NA,NA,NA,NA,NA,NA
72454,shallow,flow.Sequence,2_4_0,NA,NA,completion,3753.318,728998.70000029,728997.003,729013.397,732766.715,732769.20000029,2023-10-19T14:35:08Z,732783.139,Symbol,kielezo,s,kinyume,nderemo,utayari,NA,NA,NA,"c(""distractor1"", ""distractor2"", ""distractor3"")",NA,NA,NA,NA,NA,NA,NA,NA,NA,NA,NA,NA,NA,NA,NA,NA,NA,NA,NA
72454,task,flow.Sequence,2_4,NA,NA,completion,3753.318,728998.60000038,728997.003,729013.397,732766.715,732769.4000001,2023-10-19T14:35:08Z,732783.139,Symbol,kielezo,s,kinyume,nderemo,utayari,NA,NA,NA,"c(""distractor1"", ""distractor2"", ""distractor3"")",NA,NA,NA,NA,NA,NA,NA,NA,NA,NA,NA,NA,NA,NA,NA,NA,NA,NA,NA
72454,Shallow Question,html.Page,2_5_0_0,NA,NA,form submission,3521.4610003815,732769.80000019,732766.715,732783.139,736304.60000038,736304.80000019,2023-10-19T14:35:11Z,736336.13,Zuwachs,nyongeza,s,matilaba,udhibiti,hudhurio,nyongeza,NA,NA,"c(""distractor1"", ""distractor2"", ""distractor3"")",NA,NA,NA,NA,NA,NA,NA,NA,NA,NA,NA,NA,NA,NA,NA,NA,NA,NA,NA
72454,Save data screen,canvas.Screen,2_5_0_1,NA,NA,timeout,533.68299999996,736306,736319.63,736336.13,736862,736862.20000029,2023-10-19T14:35:12Z,736869.813,Zuwachs,nyongeza,s,matilaba,udhibiti,hudhurio,NA,NA,1,"c(""distractor1"", ""distractor2"", ""distractor3"")",NA,NA,NA,NA,NA,NA,NA,NA,NA,NA,NA,NA,NA,NA,NA,NA,NA,NA,NA
72454,shallow,flow.Sequence,2_5_0,NA,NA,completion,4078.861,732769.70000029,732766.715,732783.139,736862,736862.20000029,2023-10-19T14:35:12Z,736869.813,Zuwachs,nyongeza,s,matilaba,udhibiti,hudhurio,NA,NA,NA,"c(""distractor1"", ""distractor2"", ""distractor3"")",NA,NA,NA,NA,NA,NA,NA,NA,NA,NA,NA,NA,NA,NA,NA,NA,NA,NA,NA
72454,task,flow.Sequence,2_5,NA,NA,completion,4078.861,732769.70000029,732766.715,732783.139,736862,736862.30000019,2023-10-19T14:35:12Z,736869.813,Zuwachs,nyongeza,s,matilaba,udhibiti,hudhurio,NA,NA,NA,"c(""distractor1"", ""distractor2"", ""distractor3"")",NA,NA,NA,NA,NA,NA,NA,NA,NA,NA,NA,NA,NA,NA,NA,NA,NA,NA,NA
72454,Shallow Question,html.Page,2_6_0_0,NA,NA,form submission,2519.9870001908,736862.4000001,736862,736869.813,739389.80000019,739389.9000001,2023-10-19T14:35:14Z,739405.232,Schönheit,kirembo,s,mahojiano,msisimko,jitihadi,kirembo,NA,NA,"c(""distractor1"", ""distractor2"", ""distractor3"")",NA,NA,NA,NA,NA,NA,NA,NA,NA,NA,NA,NA,NA,NA,NA,NA,NA,NA,NA
72454,Save data screen,canvas.Screen,2_6_0_1,NA,NA,timeout,500.56900000002,739390.30000019,739389.286,739405.232,739889.025,739890.60000038,2023-10-19T14:35:15Z,739905.801,Schönheit,kirembo,s,mahojiano,msisimko,jitihadi,NA,NA,1,"c(""distractor1"", ""distractor2"", ""distractor3"")",NA,NA,NA,NA,NA,NA,NA,NA,NA,NA,NA,NA,NA,NA,NA,NA,NA,NA,NA
72454,shallow,flow.Sequence,2_6_0,NA,NA,completion,3019.2120000001,736862.4000001,736862,736869.813,739889.025,739890.9000001,2023-10-19T14:35:15Z,739905.801,Schönheit,kirembo,s,mahojiano,msisimko,jitihadi,NA,NA,NA,"c(""distractor1"", ""distractor2"", ""distractor3"")",NA,NA,NA,NA,NA,NA,NA,NA,NA,NA,NA,NA,NA,NA,NA,NA,NA,NA,NA
72454,task,flow.Sequence,2_6,NA,NA,completion,3019.2120000001,736862.4000001,736862,736869.813,739889.025,739891.20000029,2023-10-19T14:35:15Z,739905.801,Schönheit,kirembo,s,mahojiano,msisimko,jitihadi,NA,NA,NA,"c(""distractor1"", ""distractor2"", ""distractor3"")",NA,NA,NA,NA,NA,NA,NA,NA,NA,NA,NA,NA,NA,NA,NA,NA,NA,NA,NA
72454,Shallow Question,html.Page,2_7_0_0,NA,NA,form submission,5758.4990001908,739891.4000001,739889.025,739905.801,745664.30000019,745664.5,2023-10-19T14:35:21Z,745677.196,Annäherung,maegesho,s,madahili,kujiamini,mapendekezo,maegesho,NA,NA,"c(""distractor1"", ""distractor2"", ""distractor3"")",NA,NA,NA,NA,NA,NA,NA,NA,NA,NA,NA,NA,NA,NA,NA,NA,NA,NA,NA
72454,Save data screen,canvas.Screen,2_7_0_1,NA,NA,timeout,500.40000000002,745665.9000001,745660.925,745677.196,746160.886,746163.30000019,2023-10-19T14:35:21Z,746177.596,Annäherung,maegesho,s,madahili,kujiamini,mapendekezo,NA,NA,1,"c(""distractor1"", ""distractor2"", ""distractor3"")",NA,NA,NA,NA,NA,NA,NA,NA,NA,NA,NA,NA,NA,NA,NA,NA,NA,NA,NA
72454,shallow,flow.Sequence,2_7_0,NA,NA,completion,6255.0850000001,739891.4000001,739889.025,739905.801,746160.886,746163.70000029,2023-10-19T14:35:21Z,746177.596,Annäherung,maegesho,s,madahili,kujiamini,mapendekezo,NA,NA,NA,"c(""distractor1"", ""distractor2"", ""distractor3"")",NA,NA,NA,NA,NA,NA,NA,NA,NA,NA,NA,NA,NA,NA,NA,NA,NA,NA,NA
72454,task,flow.Sequence,2_7,NA,NA,completion,6255.0850000001,739891.30000019,739889.025,739905.801,746160.886,746164,2023-10-19T14:35:21Z,746177.596,Annäherung,maegesho,s,madahili,kujiamini,mapendekezo,NA,NA,NA,"c(""distractor1"", ""distractor2"", ""distractor3"")",NA,NA,NA,NA,NA,NA,NA,NA,NA,NA,NA,NA,NA,NA,NA,NA,NA,NA,NA
72454,Shallow Question,html.Page,2_8_0_0,NA,NA,form submission,2976.5040003815,746164.30000019,746160.886,746177.596,749154.10000038,749154.30000019,2023-10-19T14:35:24Z,749180.141,Gelegenheit,wakati,d,mchanganyiko,kipaumbele,kushuku,wakati,NA,NA,"c(""distractor1"", ""distractor2"", ""distractor3"")",NA,NA,NA,NA,NA,NA,NA,NA,NA,NA,NA,NA,NA,NA,NA,NA,NA,NA,NA
72454,Save data screen,canvas.Screen,2_8_0_1,NA,NA,timeout,683.73900000006,749155.60000038,749163.56,749180.141,749861.70000029,749862.10000038,2023-10-19T14:35:25Z,749863.88,Gelegenheit,wakati,d,mchanganyiko,kipaumbele,kushuku,NA,NA,1,"c(""distractor1"", ""distractor2"", ""distractor3"")",NA,NA,NA,NA,NA,NA,NA,NA,NA,NA,NA,NA,NA,NA,NA,NA,NA,NA,NA
72454,shallow,flow.Sequence,2_8_0,NA,NA,completion,3684.1040002861,746164.30000019,746160.886,746177.596,749861.70000029,749862.5,2023-10-19T14:35:25Z,749863.88,Gelegenheit,wakati,d,mchanganyiko,kipaumbele,kushuku,NA,NA,NA,"c(""distractor1"", ""distractor2"", ""distractor3"")",NA,NA,NA,NA,NA,NA,NA,NA,NA,NA,NA,NA,NA,NA,NA,NA,NA,NA,NA
72454,task,flow.Sequence,2_8,NA,NA,completion,3684.1040002861,746164.10000038,746160.886,746177.596,749861.70000029,749862.9000001,2023-10-19T14:35:25Z,749863.88,Gelegenheit,wakati,d,mchanganyiko,kipaumbele,kushuku,NA,NA,NA,"c(""distractor1"", ""distractor2"", ""distractor3"")",NA,NA,NA,NA,NA,NA,NA,NA,NA,NA,NA,NA,NA,NA,NA,NA,NA,NA,NA
72454,Shallow Question,html.Page,2_9_0_0,NA,NA,form submission,4079.4200001907,749863.20000029,749861.70000029,749863.88,753943.30000019,753943.5,2023-10-19T14:35:29Z,753967.396,Verstand,ufahamivu,s,shakawa,hadhari,mhandisi,hadhari,NA,NA,"c(""distractor1"", ""distractor2"", ""distractor3"")",NA,NA,NA,NA,NA,NA,NA,NA,NA,NA,NA,NA,NA,NA,NA,NA,NA,NA,NA
72454,Save data screen,canvas.Screen,2_9_0_1,NA,NA,timeout,500.30800000008,753946.4000001,753950.784,753967.396,754450.937,754451.4000001,2023-10-19T14:35:29Z,754467.704,Verstand,ufahamivu,s,shakawa,hadhari,mhandisi,NA,NA,0,"c(""distractor1"", ""distractor2"", ""distractor3"")",NA,NA,NA,NA,NA,NA,NA,NA,NA,NA,NA,NA,NA,NA,NA,NA,NA,NA,NA
72454,shallow,flow.Sequence,2_9_0,NA,NA,completion,4587.057,749863.10000038,749861.70000029,749863.88,754450.937,754451.5,2023-10-19T14:35:29Z,754467.704,Verstand,ufahamivu,s,shakawa,hadhari,mhandisi,NA,NA,NA,"c(""distractor1"", ""distractor2"", ""distractor3"")",NA,NA,NA,NA,NA,NA,NA,NA,NA,NA,NA,NA,NA,NA,NA,NA,NA,NA,NA
72454,task,flow.Sequence,2_9,NA,NA,completion,4587.057,749863,749861.70000029,749863.88,754450.937,754451.60000038,2023-10-19T14:35:29Z,754467.704,Verstand,ufahamivu,s,shakawa,hadhari,mhandisi,NA,NA,NA,"c(""distractor1"", ""distractor2"", ""distractor3"")",NA,NA,NA,NA,NA,NA,NA,NA,NA,NA,NA,NA,NA,NA,NA,NA,NA,NA,NA
72454,Shallow Question,html.Page,2_10_0_0,NA,NA,form submission,4740.3960003814,754451.70000029,754450.937,754467.704,759208.10000038,759208.30000019,2023-10-19T14:35:34Z,759238.462,Wettbewerb,ushindani,d,mapendezi,kichocheo,ubaguzi,mapendezi,NA,NA,"c(""distractor1"", ""distractor2"", ""distractor3"")",NA,NA,NA,NA,NA,NA,NA,NA,NA,NA,NA,NA,NA,NA,NA,NA,NA,NA,NA
72454,Save data screen,canvas.Screen,2_10_0_1,NA,NA,timeout,500.12,759209.5,759221.855,759238.462,759722.064,759723.9000001,2023-10-19T14:35:35Z,759738.582,Wettbewerb,ushindani,d,mapendezi,kichocheo,ubaguzi,NA,NA,0,"c(""distractor1"", ""distractor2"", ""distractor3"")",NA,NA,NA,NA,NA,NA,NA,NA,NA,NA,NA,NA,NA,NA,NA,NA,NA,NA,NA
72454,shallow,flow.Sequence,2_10_0,NA,NA,completion,5254.36,754451.70000029,754450.937,754467.704,759722.064,759724.5,2023-10-19T14:35:35Z,759738.582,Wettbewerb,ushindani,d,mapendezi,kichocheo,ubaguzi,NA,NA,NA,"c(""distractor1"", ""distractor2"", ""distractor3"")",NA,NA,NA,NA,NA,NA,NA,NA,NA,NA,NA,NA,NA,NA,NA,NA,NA,NA,NA
72454,task,flow.Sequence,2_10,NA,NA,completion,5254.36,754451.60000038,754450.937,754467.704,759722.064,759724.80000019,2023-10-19T14:35:35Z,759738.582,Wettbewerb,ushindani,d,mapendezi,kichocheo,ubaguzi,NA,NA,NA,"c(""distractor1"", ""distractor2"", ""distractor3"")",NA,NA,NA,NA,NA,NA,NA,NA,NA,NA,NA,NA,NA,NA,NA,NA,NA,NA,NA
72454,Shallow Question,html.Page,2_11_0_0,NA,NA,form submission,7264.4179999999,759725.30000019,759722.064,759738.582,767003,767003.30000019,2023-10-19T14:35:42Z,767027.936,Beweis,ushahidi,d,marudio,kizuizi,mtendaji,ushahidi,NA,NA,"c(""distractor1"", ""distractor2"", ""distractor3"")",NA,NA,NA,NA,NA,NA,NA,NA,NA,NA,NA,NA,NA,NA,NA,NA,NA,NA,NA
72454,Save data screen,canvas.Screen,2_11_0_1,NA,NA,timeout,500.53800000006,767007,767011.251,767027.936,767511.726,767512.70000029,2023-10-19T14:35:43Z,767528.474,Beweis,ushahidi,d,marudio,kizuizi,mtendaji,NA,NA,1,"c(""distractor1"", ""distractor2"", ""distractor3"")",NA,NA,NA,NA,NA,NA,NA,NA,NA,NA,NA,NA,NA,NA,NA,NA,NA,NA,NA
72454,shallow,flow.Sequence,2_11_0,NA,NA,completion,7773.144,759725.10000038,759722.064,759738.582,767511.726,767512.9000001,2023-10-19T14:35:43Z,767528.474,Beweis,ushahidi,d,marudio,kizuizi,mtendaji,NA,NA,NA,"c(""distractor1"", ""distractor2"", ""distractor3"")",NA,NA,NA,NA,NA,NA,NA,NA,NA,NA,NA,NA,NA,NA,NA,NA,NA,NA,NA
72454,task,flow.Sequence,2_11,NA,NA,completion,7773.144,759725,759722.064,759738.582,767511.726,767513.10000038,2023-10-19T14:35:43Z,767528.474,Beweis,ushahidi,d,marudio,kizuizi,mtendaji,NA,NA,NA,"c(""distractor1"", ""distractor2"", ""distractor3"")",NA,NA,NA,NA,NA,NA,NA,NA,NA,NA,NA,NA,NA,NA,NA,NA,NA,NA,NA
72454,Shallow Question,html.Page,2_12_0_0,NA,NA,form submission,3291.7260002861,767513.4000001,767511.726,767528.474,770820.20000029,770820.30000019,2023-10-19T14:35:46Z,770848.018,Polizist,msongora,d,simanzi,mandhari,nidhamu,msongora,NA,NA,"c(""distractor1"", ""distractor2"", ""distractor3"")",NA,NA,NA,NA,NA,NA,NA,NA,NA,NA,NA,NA,NA,NA,NA,NA,NA,NA,NA
72454,Save data screen,canvas.Screen,2_12_0_1,NA,NA,timeout,500.21399999992,770820.60000038,770831.395,770848.018,771331.588,771332.80000019,2023-10-19T14:35:46Z,771348.232,Polizist,msongora,d,simanzi,mandhari,nidhamu,NA,NA,1,"c(""distractor1"", ""distractor2"", ""distractor3"")",NA,NA,NA,NA,NA,NA,NA,NA,NA,NA,NA,NA,NA,NA,NA,NA,NA,NA,NA
72454,shallow,flow.Sequence,2_12_0,NA,NA,completion,3803.1139999999,767513.4000001,767511.726,767528.474,771331.588,771333.20000029,2023-10-19T14:35:46Z,771348.232,Polizist,msongora,d,simanzi,mandhari,nidhamu,NA,NA,NA,"c(""distractor1"", ""distractor2"", ""distractor3"")",NA,NA,NA,NA,NA,NA,NA,NA,NA,NA,NA,NA,NA,NA,NA,NA,NA,NA,NA
72454,task,flow.Sequence,2_12,NA,NA,completion,3803.1139999999,767513.30000019,767511.726,767528.474,771331.588,771333.5,2023-10-19T14:35:46Z,771348.232,Polizist,msongora,d,simanzi,mandhari,nidhamu,NA,NA,NA,"c(""distractor1"", ""distractor2"", ""distractor3"")",NA,NA,NA,NA,NA,NA,NA,NA,NA,NA,NA,NA,NA,NA,NA,NA,NA,NA,NA
72454,Shallow Question,html.Page,2_13_0_0,NA,NA,form submission,3506.4680002861,771333.80000019,771331.588,771348.232,774854.70000029,774854.9000001,2023-10-19T14:35:50Z,774884.552,Sympathie,mapendano,s,dhamiria,fungamano,maazimio,mapendano,NA,NA,"c(""distractor1"", ""distractor2"", ""distractor3"")",NA,NA,NA,NA,NA,NA,NA,NA,NA,NA,NA,NA,NA,NA,NA,NA,NA,NA,NA
72454,Save data screen,canvas.Screen,2_13_0_1,NA,NA,timeout,500.397,774856.20000029,774867.868,774884.552,775368.272,775369.9000001,2023-10-19T14:35:50Z,775384.949,Sympathie,mapendano,s,dhamiria,fungamano,maazimio,NA,NA,1,"c(""distractor1"", ""distractor2"", ""distractor3"")",NA,NA,NA,NA,NA,NA,NA,NA,NA,NA,NA,NA,NA,NA,NA,NA,NA,NA,NA
72454,shallow,flow.Sequence,2_13_0,NA,NA,completion,4020.04,771333.60000038,771331.588,771348.232,775368.272,775370.30000019,2023-10-19T14:35:50Z,775384.949,Sympathie,mapendano,s,dhamiria,fungamano,maazimio,NA,NA,NA,"c(""distractor1"", ""distractor2"", ""distractor3"")",NA,NA,NA,NA,NA,NA,NA,NA,NA,NA,NA,NA,NA,NA,NA,NA,NA,NA,NA
72454,task,flow.Sequence,2_13,NA,NA,completion,4020.04,771333.60000038,771331.588,771348.232,775368.272,775370.60000038,2023-10-19T14:35:50Z,775384.949,Sympathie,mapendano,s,dhamiria,fungamano,maazimio,NA,NA,NA,"c(""distractor1"", ""distractor2"", ""distractor3"")",NA,NA,NA,NA,NA,NA,NA,NA,NA,NA,NA,NA,NA,NA,NA,NA,NA,NA,NA
72454,Shallow Question,html.Page,2_14_0_0,NA,NA,form submission,3565.551,775370.9000001,775368.272,775384.949,778950.5,778950.70000029,2023-10-19T14:35:54Z,778954.392,Zufall,kikuti,s,kukosekana,uchoraji,leseni,kikuti,NA,NA,"c(""distractor1"", ""distractor2"", ""distractor3"")",NA,NA,NA,NA,NA,NA,NA,NA,NA,NA,NA,NA,NA,NA,NA,NA,NA,NA,NA
72454,Save data screen,canvas.Screen,2_14_0_1,NA,NA,timeout,895.15099999995,778951.80000019,778938.054,778954.392,779861.30000019,779861.5,2023-10-19T14:35:55Z,779849.543,Zufall,kikuti,s,kukosekana,uchoraji,leseni,NA,NA,1,"c(""distractor1"", ""distractor2"", ""distractor3"")",NA,NA,NA,NA,NA,NA,NA,NA,NA,NA,NA,NA,NA,NA,NA,NA,NA,NA,NA
72454,shallow,flow.Sequence,2_14_0,NA,NA,completion,4476.3510001907,775370.9000001,775368.272,775384.949,779861.30000019,779861.60000038,2023-10-19T14:35:55Z,779849.543,Zufall,kikuti,s,kukosekana,uchoraji,leseni,NA,NA,NA,"c(""distractor1"", ""distractor2"", ""distractor3"")",NA,NA,NA,NA,NA,NA,NA,NA,NA,NA,NA,NA,NA,NA,NA,NA,NA,NA,NA
72454,task,flow.Sequence,2_14,NA,NA,completion,4476.3510001907,775370.70000029,775368.272,775384.949,779861.30000019,779861.70000029,2023-10-19T14:35:55Z,779849.543,Zufall,kikuti,s,kukosekana,uchoraji,leseni,NA,NA,NA,"c(""distractor1"", ""distractor2"", ""distractor3"")",NA,NA,NA,NA,NA,NA,NA,NA,NA,NA,NA,NA,NA,NA,NA,NA,NA,NA,NA
72454,Shallow Question,html.Page,2_15_0_0,NA,NA,form submission,4160.5570003815,779861.70000029,779861.30000019,779849.543,784010.10000038,784010.30000019,2023-10-19T14:35:59Z,784025.207,Auftrag,uagizaji,d,ghanima,kuzingatia,msukani,uagizaji,NA,NA,"c(""distractor1"", ""distractor2"", ""distractor3"")",NA,NA,NA,NA,NA,NA,NA,NA,NA,NA,NA,NA,NA,NA,NA,NA,NA,NA,NA
72454,Save data screen,canvas.Screen,2_15_0_1,NA,NA,timeout,500.46799999999,784011.70000029,784008.569,784025.207,784508.984,784510,2023-10-19T14:36:00Z,784525.675,Auftrag,uagizaji,d,ghanima,kuzingatia,msukani,NA,NA,1,"c(""distractor1"", ""distractor2"", ""distractor3"")",NA,NA,NA,NA,NA,NA,NA,NA,NA,NA,NA,NA,NA,NA,NA,NA,NA,NA,NA
72454,shallow,flow.Sequence,2_15_0,NA,NA,completion,4659.4410000001,779861.70000029,779861.30000019,779849.543,784508.984,784510.10000038,2023-10-19T14:36:00Z,784525.675,Auftrag,uagizaji,d,ghanima,kuzingatia,msukani,NA,NA,NA,"c(""distractor1"", ""distractor2"", ""distractor3"")",NA,NA,NA,NA,NA,NA,NA,NA,NA,NA,NA,NA,NA,NA,NA,NA,NA,NA,NA
72454,task,flow.Sequence,2_15,NA,NA,completion,4659.4410000001,779861.70000029,779861.30000019,779849.543,784508.984,784510.30000019,2023-10-19T14:36:00Z,784525.675,Auftrag,uagizaji,d,ghanima,kuzingatia,msukani,NA,NA,NA,"c(""distractor1"", ""distractor2"", ""distractor3"")",NA,NA,NA,NA,NA,NA,NA,NA,NA,NA,NA,NA,NA,NA,NA,NA,NA,NA,NA
72454,retrieval block 2 (multiple choice),flow.Loop,2,NA,NA,completion,76229.284,708266.70000029,708263.307,708279.7,784508.984,784510.4000001,2023-10-19T14:36:00Z,784525.675,NA,NA,NA,NA,NA,NA,NA,NA,NA,"c(""distractor1"", ""distractor2"", ""distractor3"")",NA,NA,NA,NA,NA,NA,NA,NA,NA,NA,NA,NA,NA,NA,NA,NA,NA,NA,NA
72454,End,canvas.Screen,3,NA,keypress(Space),response,2068.825,784510.4000001,784508.984,784525.675,786594.5,786595.20000029,2023-10-19T14:36:02Z,786610.708,NA,NA,NA,NA,NA,NA,NA,NA,NA,NULL,NA,NA,NA,NA,NA,NA,NA,NA,NA,NA,NA,NA,NA,NA,NA,NA,NA,NA,NA
72454,root,flow.Sequence,NA,NA,NA,completion,786021.218,530.5,222.913,573.282,786594.5,786595.4000001,2023-10-19T14:36:02Z,786610.708,NA,NA,NA,NA,NA,NA,NA,NA,NA,NULL,NA,NA,NA,NA,NA,NA,NA,NA,NA,NA,NA,NA,NA,NA,NA,NA,NA,NA,NA
