observation,sender,sender_type,sender_id,response,response_action,ended_on,duration,time_run,time_render,time_show,time_end,time_commit,timestamp,time_switch,german,swahili,enc,distractor1,distractor2,distractor3,response_2,x,correct,distractors,url_vp,url_sess,meta_labjs_version,meta_location,meta_user_agent,meta_platform,meta_language,meta_locale,meta_time_zone,meta_timezone_offset,meta_screen_width,meta_screen_height,meta_scroll_width,meta_scroll_height,meta_window_inner_width,meta_window_inner_height,meta_device_pixel_ratio,meta_labjs_build_flavor,meta_labjs_build_commit
88978,Introduction delayed retrieval,canvas.Screen,0,weiter,keypress(Space),response,10141.42,9316,9317.92,9334.58,19476,19484,2023-06-02T06:14:49Z,19487.54,NA,NA,NA,NA,NA,NA,NA,NA,NA,NULL,218,2,20.2.4,https://neurocog.fernuni.ch/studies/vweber/sfink/delayed/index.html?vp=218&sess=2,Mozilla/5.0 (Windows NT 10.0; Win64; x64; rv:109.0) Gecko/20100101 Firefox/113.0,Win32,de,de-CH,Europe/Zurich,-120,1280,720,1280,531,1280,531,1.5,production,f5b4a49f956347addd546a832a3327688c2c0fef
88978,Deep Question,html.Page,1_0_0_0,NA,NA,form submission,28694.46,19487,19487.16,19487.54,48182,48182,2023-06-02T06:15:18Z,48185.96,System,maongozi,d,chokochoko,nuksani,mitaani,kielezi,NA,NA,NULL,NA,NA,NA,NA,NA,NA,NA,NA,NA,NA,NA,NA,NA,NA,NA,NA,NA,NA,NA
88978,Save data screen,canvas.Screen,1_0_0_1,NA,NA,timeout,499.68,48188,48180.8,48185.96,48668.98,48671,2023-06-02T06:15:18Z,48685.64,System,maongozi,d,chokochoko,nuksani,mitaani,NA,NA,0,NULL,NA,NA,NA,NA,NA,NA,NA,NA,NA,NA,NA,NA,NA,NA,NA,NA,NA,NA,NA
88978,deep,flow.Sequence,1_0_0,NA,NA,completion,29181.44,19487,19487.16,19487.54,48668.98,48672,2023-06-02T06:15:18Z,48685.64,System,maongozi,d,chokochoko,nuksani,mitaani,NA,NA,NA,NULL,NA,NA,NA,NA,NA,NA,NA,NA,NA,NA,NA,NA,NA,NA,NA,NA,NA,NA,NA
88978,task,flow.Sequence,1_0,NA,NA,completion,29181.44,19486,19487.16,19487.54,48668.98,48674,2023-06-02T06:15:18Z,48685.64,System,maongozi,d,chokochoko,nuksani,mitaani,NA,NA,NA,NULL,NA,NA,NA,NA,NA,NA,NA,NA,NA,NA,NA,NA,NA,NA,NA,NA,NA,NA,NA
88978,Deep Question,html.Page,1_1_0_0,NA,NA,form submission,9612.36,48675,48668.98,48685.64,58298,58299,2023-06-02T06:15:28Z,58297.58,Übersicht,kilindo,s,mgusano,chipukizi,kulinganisha,fruh,NA,NA,NULL,NA,NA,NA,NA,NA,NA,NA,NA,NA,NA,NA,NA,NA,NA,NA,NA,NA,NA,NA
88978,Save data screen,canvas.Screen,1_1_0_1,NA,NA,timeout,496.34,58301,58297.2,58297.58,58777.26,58779,2023-06-02T06:15:28Z,58793.92,Übersicht,kilindo,s,mgusano,chipukizi,kulinganisha,NA,NA,0,NULL,NA,NA,NA,NA,NA,NA,NA,NA,NA,NA,NA,NA,NA,NA,NA,NA,NA,NA,NA
88978,deep,flow.Sequence,1_1_0,NA,NA,completion,10091.62,48675,48668.98,48685.64,58777.26,58781,2023-06-02T06:15:28Z,58793.92,Übersicht,kilindo,s,mgusano,chipukizi,kulinganisha,NA,NA,NA,NULL,NA,NA,NA,NA,NA,NA,NA,NA,NA,NA,NA,NA,NA,NA,NA,NA,NA,NA,NA
88978,task,flow.Sequence,1_1,NA,NA,completion,10091.62,48675,48668.98,48685.64,58777.26,58782,2023-06-02T06:15:28Z,58793.92,Übersicht,kilindo,s,mgusano,chipukizi,kulinganisha,NA,NA,NA,NULL,NA,NA,NA,NA,NA,NA,NA,NA,NA,NA,NA,NA,NA,NA,NA,NA,NA,NA,NA
88978,Deep Question,html.Page,1_2_0_0,NA,NA,form submission,24665.08,58783,58777.26,58793.92,83459,83460,2023-06-02T06:15:53Z,83457.12,Kanzler,diwani,s,rasilmali,mahitaji,maabudu,madezi,NA,NA,NULL,NA,NA,NA,NA,NA,NA,NA,NA,NA,NA,NA,NA,NA,NA,NA,NA,NA,NA,NA
88978,Save data screen,canvas.Screen,1_2_0_1,NA,NA,timeout,499.48000000001,83466,83456.6,83457.12,83939.94,83943,2023-06-02T06:15:53Z,83956.6,Kanzler,diwani,s,rasilmali,mahitaji,maabudu,NA,NA,0,NULL,NA,NA,NA,NA,NA,NA,NA,NA,NA,NA,NA,NA,NA,NA,NA,NA,NA,NA,NA
88978,deep,flow.Sequence,1_2_0,NA,NA,completion,25146.02,58782,58777.26,58793.92,83939.94,83944,2023-06-02T06:15:53Z,83956.6,Kanzler,diwani,s,rasilmali,mahitaji,maabudu,NA,NA,NA,NULL,NA,NA,NA,NA,NA,NA,NA,NA,NA,NA,NA,NA,NA,NA,NA,NA,NA,NA,NA
88978,task,flow.Sequence,1_2,NA,NA,completion,25146.02,58782,58777.26,58793.92,83939.94,83945,2023-06-02T06:15:53Z,83956.6,Kanzler,diwani,s,rasilmali,mahitaji,maabudu,NA,NA,NA,NULL,NA,NA,NA,NA,NA,NA,NA,NA,NA,NA,NA,NA,NA,NA,NA,NA,NA,NA,NA
88978,Deep Question,html.Page,1_3_0_0,NA,NA,form submission,24027.4,83946,83939.94,83956.6,107984,107985,2023-06-02T06:16:17Z,107986.74,Gefährdung,kuhatarisha,s,uchokozi,udhaifu,makorowezo,shambulizi,NA,NA,NULL,NA,NA,NA,NA,NA,NA,NA,NA,NA,NA,NA,NA,NA,NA,NA,NA,NA,NA,NA
88978,Save data screen,canvas.Screen,1_3_0_1,NA,NA,timeout,499.59999999999,107987,107983.6,107986.74,108469.68,108471,2023-06-02T06:16:18Z,108486.34,Gefährdung,kuhatarisha,s,uchokozi,udhaifu,makorowezo,NA,NA,0,NULL,NA,NA,NA,NA,NA,NA,NA,NA,NA,NA,NA,NA,NA,NA,NA,NA,NA,NA,NA
88978,deep,flow.Sequence,1_3_0,NA,NA,completion,24513.08,83946,83939.94,83956.6,108469.68,108471,2023-06-02T06:16:18Z,108486.34,Gefährdung,kuhatarisha,s,uchokozi,udhaifu,makorowezo,NA,NA,NA,NULL,NA,NA,NA,NA,NA,NA,NA,NA,NA,NA,NA,NA,NA,NA,NA,NA,NA,NA,NA
88978,task,flow.Sequence,1_3,NA,NA,completion,24513.08,83945,83939.94,83956.6,108469.68,108471,2023-06-02T06:16:18Z,108486.34,Gefährdung,kuhatarisha,s,uchokozi,udhaifu,makorowezo,NA,NA,NA,NULL,NA,NA,NA,NA,NA,NA,NA,NA,NA,NA,NA,NA,NA,NA,NA,NA,NA,NA,NA
88978,Deep Question,html.Page,1_4_0_0,NA,NA,form submission,4062.66,108471,108469.68,108486.34,112549,112549,2023-06-02T06:16:22Z,112549.6,Prüfung,mtihani,d,mkulima,mtizamo,ufumbuzi,ijgt,NA,NA,NULL,NA,NA,NA,NA,NA,NA,NA,NA,NA,NA,NA,NA,NA,NA,NA,NA,NA,NA,NA
88978,Save data screen,canvas.Screen,1_4_0_1,NA,NA,timeout,499.7,112553,112548.52,112549.6,113032.64,113034,2023-06-02T06:16:22Z,113049.3,Prüfung,mtihani,d,mkulima,mtizamo,ufumbuzi,NA,NA,0,NULL,NA,NA,NA,NA,NA,NA,NA,NA,NA,NA,NA,NA,NA,NA,NA,NA,NA,NA,NA
88978,deep,flow.Sequence,1_4_0,NA,NA,completion,4546.3,108471,108469.68,108486.34,113032.64,113035,2023-06-02T06:16:22Z,113049.3,Prüfung,mtihani,d,mkulima,mtizamo,ufumbuzi,NA,NA,NA,NULL,NA,NA,NA,NA,NA,NA,NA,NA,NA,NA,NA,NA,NA,NA,NA,NA,NA,NA,NA
88978,task,flow.Sequence,1_4,NA,NA,completion,4546.3,108471,108469.68,108486.34,113032.64,113036,2023-06-02T06:16:22Z,113049.3,Prüfung,mtihani,d,mkulima,mtizamo,ufumbuzi,NA,NA,NA,NULL,NA,NA,NA,NA,NA,NA,NA,NA,NA,NA,NA,NA,NA,NA,NA,NA,NA,NA,NA
88978,Deep Question,html.Page,1_5_0_0,NA,NA,form submission,16802.7,113036,113032.64,113049.3,129852,129853,2023-06-02T06:16:39Z,129852.2,Abrechnung,uhasibu,s,kusahihisha,mpambano,mashambulizi,gtgth,NA,NA,NULL,NA,NA,NA,NA,NA,NA,NA,NA,NA,NA,NA,NA,NA,NA,NA,NA,NA,NA,NA
88978,Save data screen,canvas.Screen,1_5_0_1,NA,NA,timeout,499.54000000001,129855,129851.96,129852.2,130335.08,130337,2023-06-02T06:16:40Z,130351.74,Abrechnung,uhasibu,s,kusahihisha,mpambano,mashambulizi,NA,NA,0,NULL,NA,NA,NA,NA,NA,NA,NA,NA,NA,NA,NA,NA,NA,NA,NA,NA,NA,NA,NA
88978,deep,flow.Sequence,1_5_0,NA,NA,completion,17285.78,113036,113032.64,113049.3,130335.08,130338,2023-06-02T06:16:40Z,130351.74,Abrechnung,uhasibu,s,kusahihisha,mpambano,mashambulizi,NA,NA,NA,NULL,NA,NA,NA,NA,NA,NA,NA,NA,NA,NA,NA,NA,NA,NA,NA,NA,NA,NA,NA
88978,task,flow.Sequence,1_5,NA,NA,completion,17285.78,113036,113032.64,113049.3,130335.08,130339,2023-06-02T06:16:40Z,130351.74,Abrechnung,uhasibu,s,kusahihisha,mpambano,mashambulizi,NA,NA,NA,NULL,NA,NA,NA,NA,NA,NA,NA,NA,NA,NA,NA,NA,NA,NA,NA,NA,NA,NA,NA
88978,Deep Question,html.Page,1_6_0_0,NA,NA,form submission,12409.26,130339,130335.08,130351.74,142761,142762,2023-06-02T06:16:52Z,142774.72,Verzögerung,kuchelewa,s,mwakilishi,mwanauchumi,jaribio,okijgt,NA,NA,NULL,NA,NA,NA,NA,NA,NA,NA,NA,NA,NA,NA,NA,NA,NA,NA,NA,NA,NA,NA
88978,Save data screen,canvas.Screen,1_6_0_1,NA,NA,timeout,499.67999999999,142764,142760.56,142774.72,143257.74,143260,2023-06-02T06:16:53Z,143274.4,Verzögerung,kuchelewa,s,mwakilishi,mwanauchumi,jaribio,NA,NA,0,NULL,NA,NA,NA,NA,NA,NA,NA,NA,NA,NA,NA,NA,NA,NA,NA,NA,NA,NA,NA
88978,deep,flow.Sequence,1_6_0,NA,NA,completion,12906,130339,130335.08,130351.74,143257.74,143260,2023-06-02T06:16:53Z,143274.4,Verzögerung,kuchelewa,s,mwakilishi,mwanauchumi,jaribio,NA,NA,NA,NULL,NA,NA,NA,NA,NA,NA,NA,NA,NA,NA,NA,NA,NA,NA,NA,NA,NA,NA,NA
88978,task,flow.Sequence,1_6,NA,NA,completion,12906,130339,130335.08,130351.74,143257.74,143261,2023-06-02T06:16:53Z,143274.4,Verzögerung,kuchelewa,s,mwakilishi,mwanauchumi,jaribio,NA,NA,NA,NULL,NA,NA,NA,NA,NA,NA,NA,NA,NA,NA,NA,NA,NA,NA,NA,NA,NA,NA,NA
88978,Deep Question,html.Page,1_7_0_0,NA,NA,form submission,4011.6,143262,143257.74,143274.4,147286,147287,2023-06-02T06:16:57Z,147287.72,Kreativität,ubunifu,d,mratibu,mwendelezo,makubaliano,ubunifu,NA,NA,NULL,NA,NA,NA,NA,NA,NA,NA,NA,NA,NA,NA,NA,NA,NA,NA,NA,NA,NA,NA
88978,Save data screen,canvas.Screen,1_7_0_1,NA,NA,timeout,499.54000000001,147289,147285.82,147287.72,147770.6,147771,2023-06-02T06:16:57Z,147787.26,Kreativität,ubunifu,d,mratibu,mwendelezo,makubaliano,NA,NA,1,NULL,NA,NA,NA,NA,NA,NA,NA,NA,NA,NA,NA,NA,NA,NA,NA,NA,NA,NA,NA
88978,deep,flow.Sequence,1_7_0,NA,NA,completion,4496.2,143262,143257.74,143274.4,147770.6,147771,2023-06-02T06:16:57Z,147787.26,Kreativität,ubunifu,d,mratibu,mwendelezo,makubaliano,NA,NA,NA,NULL,NA,NA,NA,NA,NA,NA,NA,NA,NA,NA,NA,NA,NA,NA,NA,NA,NA,NA,NA
88978,task,flow.Sequence,1_7,NA,NA,completion,4496.2,143261,143257.74,143274.4,147770.6,147772,2023-06-02T06:16:57Z,147787.26,Kreativität,ubunifu,d,mratibu,mwendelezo,makubaliano,NA,NA,NA,NULL,NA,NA,NA,NA,NA,NA,NA,NA,NA,NA,NA,NA,NA,NA,NA,NA,NA,NA,NA
88978,Deep Question,html.Page,1_8_0_0,NA,NA,form submission,12322.74,147772,147770.6,147787.26,160110,160110,2023-06-02T06:17:09Z,160110.44,Kultur,utamaduni,s,shetani,gerezani,mazingira,okgtt,NA,NA,NULL,NA,NA,NA,NA,NA,NA,NA,NA,NA,NA,NA,NA,NA,NA,NA,NA,NA,NA,NA
88978,Save data screen,canvas.Screen,1_8_0_1,NA,NA,timeout,499.62,160113,160109.52,160110.44,160593.5,160595,2023-06-02T06:17:10Z,160610.06,Kultur,utamaduni,s,shetani,gerezani,mazingira,NA,NA,0,NULL,NA,NA,NA,NA,NA,NA,NA,NA,NA,NA,NA,NA,NA,NA,NA,NA,NA,NA,NA
88978,deep,flow.Sequence,1_8_0,NA,NA,completion,12806.24,147772,147770.6,147787.26,160593.5,160596,2023-06-02T06:17:10Z,160610.06,Kultur,utamaduni,s,shetani,gerezani,mazingira,NA,NA,NA,NULL,NA,NA,NA,NA,NA,NA,NA,NA,NA,NA,NA,NA,NA,NA,NA,NA,NA,NA,NA
88978,task,flow.Sequence,1_8,NA,NA,completion,12806.24,147772,147770.6,147787.26,160593.5,160596,2023-06-02T06:17:10Z,160610.06,Kultur,utamaduni,s,shetani,gerezani,mazingira,NA,NA,NA,NULL,NA,NA,NA,NA,NA,NA,NA,NA,NA,NA,NA,NA,NA,NA,NA,NA,NA,NA,NA
88978,Deep Question,html.Page,1_9_0_0,NA,NA,form submission,12152.94,160597,160593.5,160610.06,172763,172763,2023-06-02T06:17:22Z,172766.84,Kontrolle,kudhibiti,s,mbinguni,kufunga,utegemezi,joij,NA,NA,NULL,NA,NA,NA,NA,NA,NA,NA,NA,NA,NA,NA,NA,NA,NA,NA,NA,NA,NA,NA
88978,Save data screen,canvas.Screen,1_9_0_1,NA,NA,timeout,499.44,172765,172762.62,172766.84,173249.76,173251,2023-06-02T06:17:23Z,173266.28,Kontrolle,kudhibiti,s,mbinguni,kufunga,utegemezi,NA,NA,0,NULL,NA,NA,NA,NA,NA,NA,NA,NA,NA,NA,NA,NA,NA,NA,NA,NA,NA,NA,NA
88978,deep,flow.Sequence,1_9_0,NA,NA,completion,12639.7,160597,160593.5,160610.06,173249.76,173252,2023-06-02T06:17:23Z,173266.28,Kontrolle,kudhibiti,s,mbinguni,kufunga,utegemezi,NA,NA,NA,NULL,NA,NA,NA,NA,NA,NA,NA,NA,NA,NA,NA,NA,NA,NA,NA,NA,NA,NA,NA
88978,task,flow.Sequence,1_9,NA,NA,completion,12639.7,160597,160593.5,160610.06,173249.76,173252,2023-06-02T06:17:23Z,173266.28,Kontrolle,kudhibiti,s,mbinguni,kufunga,utegemezi,NA,NA,NA,NULL,NA,NA,NA,NA,NA,NA,NA,NA,NA,NA,NA,NA,NA,NA,NA,NA,NA,NA,NA
88978,Deep Question,html.Page,1_10_0_0,NA,NA,form submission,21476.72,173253,173249.76,173266.28,194743,194743,2023-06-02T06:17:44Z,194742.44,Aufstand,ugomaji,d,mazidio,msingi,kujieleza,kuihui,NA,NA,NULL,NA,NA,NA,NA,NA,NA,NA,NA,NA,NA,NA,NA,NA,NA,NA,NA,NA,NA,NA
88978,Save data screen,canvas.Screen,1_10_0_1,NA,NA,timeout,505.88,194744,194742.12,194742.44,195231.66,195233,2023-06-02T06:17:45Z,195248.32,Aufstand,ugomaji,d,mazidio,msingi,kujieleza,NA,NA,0,NULL,NA,NA,NA,NA,NA,NA,NA,NA,NA,NA,NA,NA,NA,NA,NA,NA,NA,NA,NA
88978,deep,flow.Sequence,1_10_0,NA,NA,completion,21965.38,173253,173249.76,173266.28,195231.66,195234,2023-06-02T06:17:45Z,195248.32,Aufstand,ugomaji,d,mazidio,msingi,kujieleza,NA,NA,NA,NULL,NA,NA,NA,NA,NA,NA,NA,NA,NA,NA,NA,NA,NA,NA,NA,NA,NA,NA,NA
88978,task,flow.Sequence,1_10,NA,NA,completion,21965.38,173252,173249.76,173266.28,195231.66,195234,2023-06-02T06:17:45Z,195248.32,Aufstand,ugomaji,d,mazidio,msingi,kujieleza,NA,NA,NA,NULL,NA,NA,NA,NA,NA,NA,NA,NA,NA,NA,NA,NA,NA,NA,NA,NA,NA,NA,NA
88978,Deep Question,html.Page,1_11_0_0,NA,NA,form submission,5778.68,195235,195231.66,195248.32,201027,201028,2023-06-02T06:17:50Z,201026.78,Körper,kiwiliwili,s,mapambano,mpatanishi,kiolezo,kiwilili,NA,NA,NULL,NA,NA,NA,NA,NA,NA,NA,NA,NA,NA,NA,NA,NA,NA,NA,NA,NA,NA,NA
88978,Save data screen,canvas.Screen,1_11_0_1,NA,NA,timeout,499.66,201030,201026.56,201026.78,201509.8,201515,2023-06-02T06:17:51Z,201526.44,Körper,kiwiliwili,s,mapambano,mpatanishi,kiolezo,NA,NA,0,NULL,NA,NA,NA,NA,NA,NA,NA,NA,NA,NA,NA,NA,NA,NA,NA,NA,NA,NA,NA
88978,deep,flow.Sequence,1_11_0,NA,NA,completion,6261.48,195235,195231.66,195248.32,201509.8,201518,2023-06-02T06:17:51Z,201526.44,Körper,kiwiliwili,s,mapambano,mpatanishi,kiolezo,NA,NA,NA,NULL,NA,NA,NA,NA,NA,NA,NA,NA,NA,NA,NA,NA,NA,NA,NA,NA,NA,NA,NA
88978,task,flow.Sequence,1_11,NA,NA,completion,6261.48,195235,195231.66,195248.32,201509.8,201519,2023-06-02T06:17:51Z,201526.44,Körper,kiwiliwili,s,mapambano,mpatanishi,kiolezo,NA,NA,NA,NULL,NA,NA,NA,NA,NA,NA,NA,NA,NA,NA,NA,NA,NA,NA,NA,NA,NA,NA,NA
88978,Deep Question,html.Page,1_12_0_0,NA,NA,form submission,31726.56,201519,201509.8,201526.44,233253,233254,2023-06-02T06:18:23Z,233251.34,Können,unaweza,d,kiongozi,bustani,mienendo,mandani,NA,NA,NULL,NA,NA,NA,NA,NA,NA,NA,NA,NA,NA,NA,NA,NA,NA,NA,NA,NA,NA,NA
88978,Save data screen,canvas.Screen,1_12_0_1,NA,NA,timeout,498.54000000001,233259,233250.94,233251.34,233733.32,233736,2023-06-02T06:18:23Z,233749.88,Können,unaweza,d,kiongozi,bustani,mienendo,NA,NA,0,NULL,NA,NA,NA,NA,NA,NA,NA,NA,NA,NA,NA,NA,NA,NA,NA,NA,NA,NA,NA
88978,deep,flow.Sequence,1_12_0,NA,NA,completion,32206.88,201519,201509.8,201526.44,233733.32,233737,2023-06-02T06:18:23Z,233749.88,Können,unaweza,d,kiongozi,bustani,mienendo,NA,NA,NA,NULL,NA,NA,NA,NA,NA,NA,NA,NA,NA,NA,NA,NA,NA,NA,NA,NA,NA,NA,NA
88978,task,flow.Sequence,1_12,NA,NA,completion,32206.88,201519,201509.8,201526.44,233733.32,233738,2023-06-02T06:18:23Z,233749.88,Können,unaweza,d,kiongozi,bustani,mienendo,NA,NA,NA,NULL,NA,NA,NA,NA,NA,NA,NA,NA,NA,NA,NA,NA,NA,NA,NA,NA,NA,NA,NA
88978,Deep Question,html.Page,1_13_0_0,NA,NA,form submission,4524.12,233739,233733.32,233749.88,238274,238275,2023-06-02T06:18:28Z,238279.46,Angreifer,mshambulizi,d,kitengo,tasinia,usafirishaji,msongori,NA,NA,NULL,NA,NA,NA,NA,NA,NA,NA,NA,NA,NA,NA,NA,NA,NA,NA,NA,NA,NA,NA
88978,Save data screen,canvas.Screen,1_13_0_1,NA,NA,timeout,499.74000000002,238279,238273.5,238279.46,238762.58,238764,2023-06-02T06:18:28Z,238779.2,Angreifer,mshambulizi,d,kitengo,tasinia,usafirishaji,NA,NA,0,NULL,NA,NA,NA,NA,NA,NA,NA,NA,NA,NA,NA,NA,NA,NA,NA,NA,NA,NA,NA
88978,deep,flow.Sequence,1_13_0,NA,NA,completion,5012.7,233739,233733.32,233749.88,238762.58,238765,2023-06-02T06:18:28Z,238779.2,Angreifer,mshambulizi,d,kitengo,tasinia,usafirishaji,NA,NA,NA,NULL,NA,NA,NA,NA,NA,NA,NA,NA,NA,NA,NA,NA,NA,NA,NA,NA,NA,NA,NA
88978,task,flow.Sequence,1_13,NA,NA,completion,5012.7,233739,233733.32,233749.88,238762.58,238765,2023-06-02T06:18:28Z,238779.2,Angreifer,mshambulizi,d,kitengo,tasinia,usafirishaji,NA,NA,NA,NULL,NA,NA,NA,NA,NA,NA,NA,NA,NA,NA,NA,NA,NA,NA,NA,NA,NA,NA,NA
88978,Deep Question,html.Page,1_14_0_0,NA,NA,form submission,22741.8,238767,238762.58,238779.2,261521,261522,2023-06-02T06:18:51Z,261527.02,Sänger,mwimbaji,d,msichana,shughuli,mshirika,wimbao,NA,NA,NULL,NA,NA,NA,NA,NA,NA,NA,NA,NA,NA,NA,NA,NA,NA,NA,NA,NA,NA,NA
88978,Save data screen,canvas.Screen,1_14_0_1,NA,NA,timeout,499.58000000002,261528,261520.12,261527.02,262009.96,262012,2023-06-02T06:18:51Z,262026.6,Sänger,mwimbaji,d,msichana,shughuli,mshirika,NA,NA,0,NULL,NA,NA,NA,NA,NA,NA,NA,NA,NA,NA,NA,NA,NA,NA,NA,NA,NA,NA,NA
88978,deep,flow.Sequence,1_14_0,NA,NA,completion,23230.76,238767,238762.58,238779.2,262009.96,262012,2023-06-02T06:18:51Z,262026.6,Sänger,mwimbaji,d,msichana,shughuli,mshirika,NA,NA,NA,NULL,NA,NA,NA,NA,NA,NA,NA,NA,NA,NA,NA,NA,NA,NA,NA,NA,NA,NA,NA
88978,task,flow.Sequence,1_14,NA,NA,completion,23230.76,238766,238762.58,238779.2,262009.96,262013,2023-06-02T06:18:51Z,262026.6,Sänger,mwimbaji,d,msichana,shughuli,mshirika,NA,NA,NA,NULL,NA,NA,NA,NA,NA,NA,NA,NA,NA,NA,NA,NA,NA,NA,NA,NA,NA,NA,NA
88978,Deep Question,html.Page,1_15_0_0,NA,NA,form submission,8014.4,262015,262009.96,262026.6,270041,270042,2023-06-02T06:18:59Z,270053.36,Lawine,banguko,d,maambukizi,usuluhishi,chekechea,banguko,NA,NA,NULL,NA,NA,NA,NA,NA,NA,NA,NA,NA,NA,NA,NA,NA,NA,NA,NA,NA,NA,NA
88978,Save data screen,canvas.Screen,1_15_0_1,NA,NA,timeout,499.58000000002,270046,270039.94,270053.36,270536.28,270537,2023-06-02T06:19:00Z,270552.94,Lawine,banguko,d,maambukizi,usuluhishi,chekechea,NA,NA,1,NULL,NA,NA,NA,NA,NA,NA,NA,NA,NA,NA,NA,NA,NA,NA,NA,NA,NA,NA,NA
88978,deep,flow.Sequence,1_15_0,NA,NA,completion,8509.68,262014,262009.96,262026.6,270536.28,270538,2023-06-02T06:19:00Z,270552.94,Lawine,banguko,d,maambukizi,usuluhishi,chekechea,NA,NA,NA,NULL,NA,NA,NA,NA,NA,NA,NA,NA,NA,NA,NA,NA,NA,NA,NA,NA,NA,NA,NA
88978,task,flow.Sequence,1_15,NA,NA,completion,8509.68,262014,262009.96,262026.6,270536.28,270539,2023-06-02T06:19:00Z,270552.94,Lawine,banguko,d,maambukizi,usuluhishi,chekechea,NA,NA,NA,NULL,NA,NA,NA,NA,NA,NA,NA,NA,NA,NA,NA,NA,NA,NA,NA,NA,NA,NA,NA
88978,retrieval block 1 (cued recall),flow.Loop,1,NA,NA,completion,251048.74,19486,19487.16,19487.54,270536.28,270539,2023-06-02T06:19:00Z,270552.94,NA,NA,NA,NA,NA,NA,NA,NA,NA,NULL,NA,NA,NA,NA,NA,NA,NA,NA,NA,NA,NA,NA,NA,NA,NA,NA,NA,NA,NA
88978,Shallow Question,html.Page,2_0_0_0,NA,NA,form submission,14586.06,270540,270536.28,270552.94,285139,285140,2023-06-02T06:19:14Z,285140.9,Kultur,utamaduni,s,shetani,gerezani,mazingira,utamaduni,NA,NA,"c(""distractor1"", ""distractor2"", ""distractor3"")",NA,NA,NA,NA,NA,NA,NA,NA,NA,NA,NA,NA,NA,NA,NA,NA,NA,NA,NA
88978,Save data screen,canvas.Screen,2_0_0_1,NA,NA,timeout,499.65999999997,285141,285138.54,285140.9,285623.94,285627,2023-06-02T06:19:15Z,285640.56,Kultur,utamaduni,s,shetani,gerezani,mazingira,NA,NA,1,"c(""distractor1"", ""distractor2"", ""distractor3"")",NA,NA,NA,NA,NA,NA,NA,NA,NA,NA,NA,NA,NA,NA,NA,NA,NA,NA,NA
88978,shallow,flow.Sequence,2_0_0,NA,NA,completion,15071,270540,270536.28,270552.94,285623.94,285628,2023-06-02T06:19:15Z,285640.56,Kultur,utamaduni,s,shetani,gerezani,mazingira,NA,NA,NA,"c(""distractor1"", ""distractor2"", ""distractor3"")",NA,NA,NA,NA,NA,NA,NA,NA,NA,NA,NA,NA,NA,NA,NA,NA,NA,NA,NA
88978,task,flow.Sequence,2_0,NA,NA,completion,15071,270539,270536.28,270552.94,285623.94,285629,2023-06-02T06:19:15Z,285640.56,Kultur,utamaduni,s,shetani,gerezani,mazingira,NA,NA,NA,"c(""distractor1"", ""distractor2"", ""distractor3"")",NA,NA,NA,NA,NA,NA,NA,NA,NA,NA,NA,NA,NA,NA,NA,NA,NA,NA,NA
88978,Shallow Question,html.Page,2_1_0_0,NA,NA,form submission,4478.44,285629,285623.94,285640.56,290119,290119,2023-06-02T06:19:19Z,290120.14,System,maongozi,d,chokochoko,nuksani,mitaani,maongozi,NA,NA,"c(""distractor1"", ""distractor2"", ""distractor3"")",NA,NA,NA,NA,NA,NA,NA,NA,NA,NA,NA,NA,NA,NA,NA,NA,NA,NA,NA
88978,Save data screen,canvas.Screen,2_1_0_1,NA,NA,timeout,499.67999999999,290122,290117.82,290120.14,290603.2,290605,2023-06-02T06:19:20Z,290619.82,System,maongozi,d,chokochoko,nuksani,mitaani,NA,NA,1,"c(""distractor1"", ""distractor2"", ""distractor3"")",NA,NA,NA,NA,NA,NA,NA,NA,NA,NA,NA,NA,NA,NA,NA,NA,NA,NA,NA
88978,shallow,flow.Sequence,2_1_0,NA,NA,completion,4962.64,285629,285623.94,285640.56,290603.2,290606,2023-06-02T06:19:20Z,290619.82,System,maongozi,d,chokochoko,nuksani,mitaani,NA,NA,NA,"c(""distractor1"", ""distractor2"", ""distractor3"")",NA,NA,NA,NA,NA,NA,NA,NA,NA,NA,NA,NA,NA,NA,NA,NA,NA,NA,NA
88978,task,flow.Sequence,2_1,NA,NA,completion,4962.64,285629,285623.94,285640.56,290603.2,290607,2023-06-02T06:19:20Z,290619.82,System,maongozi,d,chokochoko,nuksani,mitaani,NA,NA,NA,"c(""distractor1"", ""distractor2"", ""distractor3"")",NA,NA,NA,NA,NA,NA,NA,NA,NA,NA,NA,NA,NA,NA,NA,NA,NA,NA,NA
88978,Shallow Question,html.Page,2_2_0_0,NA,NA,form submission,6761.18,290608,290603.2,290619.82,297381,297382,2023-06-02T06:19:27Z,297380.76,Kontrolle,kudhibiti,s,mbinguni,kufunga,utegemezi,kudhibiti,NA,NA,"c(""distractor1"", ""distractor2"", ""distractor3"")",NA,NA,NA,NA,NA,NA,NA,NA,NA,NA,NA,NA,NA,NA,NA,NA,NA,NA,NA
88978,Save data screen,canvas.Screen,2_2_0_1,NA,NA,timeout,499.65999999997,297383,297380.2,297380.76,297863.78,297866,2023-06-02T06:19:27Z,297880.42,Kontrolle,kudhibiti,s,mbinguni,kufunga,utegemezi,NA,NA,1,"c(""distractor1"", ""distractor2"", ""distractor3"")",NA,NA,NA,NA,NA,NA,NA,NA,NA,NA,NA,NA,NA,NA,NA,NA,NA,NA,NA
88978,shallow,flow.Sequence,2_2_0,NA,NA,completion,7243.96,290608,290603.2,290619.82,297863.78,297866,2023-06-02T06:19:27Z,297880.42,Kontrolle,kudhibiti,s,mbinguni,kufunga,utegemezi,NA,NA,NA,"c(""distractor1"", ""distractor2"", ""distractor3"")",NA,NA,NA,NA,NA,NA,NA,NA,NA,NA,NA,NA,NA,NA,NA,NA,NA,NA,NA
88978,task,flow.Sequence,2_2,NA,NA,completion,7243.96,290607,290603.2,290619.82,297863.78,297866,2023-06-02T06:19:27Z,297880.42,Kontrolle,kudhibiti,s,mbinguni,kufunga,utegemezi,NA,NA,NA,"c(""distractor1"", ""distractor2"", ""distractor3"")",NA,NA,NA,NA,NA,NA,NA,NA,NA,NA,NA,NA,NA,NA,NA,NA,NA,NA,NA
88978,Shallow Question,html.Page,2_3_0_0,NA,NA,form submission,11137.58,297867,297863.78,297880.42,309018,309019,2023-06-02T06:19:38Z,309021.24,Prüfung,mtihani,d,mkulima,mtizamo,ufumbuzi,mtihani,NA,NA,"c(""distractor1"", ""distractor2"", ""distractor3"")",NA,NA,NA,NA,NA,NA,NA,NA,NA,NA,NA,NA,NA,NA,NA,NA,NA,NA,NA
88978,Save data screen,canvas.Screen,2_3_0_1,NA,NA,timeout,499.54000000004,309019,309017.76,309021.24,309504.14,309504,2023-06-02T06:19:39Z,309520.78,Prüfung,mtihani,d,mkulima,mtizamo,ufumbuzi,NA,NA,1,"c(""distractor1"", ""distractor2"", ""distractor3"")",NA,NA,NA,NA,NA,NA,NA,NA,NA,NA,NA,NA,NA,NA,NA,NA,NA,NA,NA
88978,shallow,flow.Sequence,2_3_0,NA,NA,completion,11623.72,297867,297863.78,297880.42,309504.14,309505,2023-06-02T06:19:39Z,309520.78,Prüfung,mtihani,d,mkulima,mtizamo,ufumbuzi,NA,NA,NA,"c(""distractor1"", ""distractor2"", ""distractor3"")",NA,NA,NA,NA,NA,NA,NA,NA,NA,NA,NA,NA,NA,NA,NA,NA,NA,NA,NA
88978,task,flow.Sequence,2_3,NA,NA,completion,11623.72,297867,297863.78,297880.42,309504.14,309505,2023-06-02T06:19:39Z,309520.78,Prüfung,mtihani,d,mkulima,mtizamo,ufumbuzi,NA,NA,NA,"c(""distractor1"", ""distractor2"", ""distractor3"")",NA,NA,NA,NA,NA,NA,NA,NA,NA,NA,NA,NA,NA,NA,NA,NA,NA,NA,NA
88978,Shallow Question,html.Page,2_4_0_0,NA,NA,form submission,3395.22,309505,309504.14,309520.78,312916,312917,2023-06-02T06:19:42Z,312918.04,Sänger,mwimbaji,d,msichana,shughuli,mshirika,mwimbaji,NA,NA,"c(""distractor1"", ""distractor2"", ""distractor3"")",NA,NA,NA,NA,NA,NA,NA,NA,NA,NA,NA,NA,NA,NA,NA,NA,NA,NA,NA
88978,Save data screen,canvas.Screen,2_4_0_1,NA,NA,timeout,499.66000000003,312918,312915.82,312918.04,313401.04,313403,2023-06-02T06:19:43Z,313417.7,Sänger,mwimbaji,d,msichana,shughuli,mshirika,NA,NA,1,"c(""distractor1"", ""distractor2"", ""distractor3"")",NA,NA,NA,NA,NA,NA,NA,NA,NA,NA,NA,NA,NA,NA,NA,NA,NA,NA,NA
88978,shallow,flow.Sequence,2_4_0,NA,NA,completion,3880.26,309505,309504.14,309520.78,313401.04,313403,2023-06-02T06:19:43Z,313417.7,Sänger,mwimbaji,d,msichana,shughuli,mshirika,NA,NA,NA,"c(""distractor1"", ""distractor2"", ""distractor3"")",NA,NA,NA,NA,NA,NA,NA,NA,NA,NA,NA,NA,NA,NA,NA,NA,NA,NA,NA
88978,task,flow.Sequence,2_4,NA,NA,completion,3880.26,309505,309504.14,309520.78,313401.04,313403,2023-06-02T06:19:43Z,313417.7,Sänger,mwimbaji,d,msichana,shughuli,mshirika,NA,NA,NA,"c(""distractor1"", ""distractor2"", ""distractor3"")",NA,NA,NA,NA,NA,NA,NA,NA,NA,NA,NA,NA,NA,NA,NA,NA,NA,NA,NA
88978,Shallow Question,html.Page,2_5_0_0,NA,NA,form submission,3504.3,313405,313401.04,313417.7,316922,316922,2023-06-02T06:19:46Z,316921.06,Können,unaweza,d,kiongozi,bustani,mienendo,unaweza,NA,NA,"c(""distractor1"", ""distractor2"", ""distractor3"")",NA,NA,NA,NA,NA,NA,NA,NA,NA,NA,NA,NA,NA,NA,NA,NA,NA,NA,NA
88978,Save data screen,canvas.Screen,2_5_0_1,NA,NA,timeout,493.34000000003,316924,316920.68,316921.06,317397.74,317400,2023-06-02T06:19:47Z,317414.4,Können,unaweza,d,kiongozi,bustani,mienendo,NA,NA,1,"c(""distractor1"", ""distractor2"", ""distractor3"")",NA,NA,NA,NA,NA,NA,NA,NA,NA,NA,NA,NA,NA,NA,NA,NA,NA,NA,NA
88978,shallow,flow.Sequence,2_5_0,NA,NA,completion,3980.04,313405,313401.04,313417.7,317397.74,317401,2023-06-02T06:19:47Z,317414.4,Können,unaweza,d,kiongozi,bustani,mienendo,NA,NA,NA,"c(""distractor1"", ""distractor2"", ""distractor3"")",NA,NA,NA,NA,NA,NA,NA,NA,NA,NA,NA,NA,NA,NA,NA,NA,NA,NA,NA
88978,task,flow.Sequence,2_5,NA,NA,completion,3980.04,313405,313401.04,313417.7,317397.74,317401,2023-06-02T06:19:47Z,317414.4,Können,unaweza,d,kiongozi,bustani,mienendo,NA,NA,NA,"c(""distractor1"", ""distractor2"", ""distractor3"")",NA,NA,NA,NA,NA,NA,NA,NA,NA,NA,NA,NA,NA,NA,NA,NA,NA,NA,NA
88978,Shallow Question,html.Page,2_6_0_0,NA,NA,form submission,13742.6,317402,317397.74,317414.4,331157,331158,2023-06-02T06:20:00Z,331157.26,Angreifer,mshambulizi,d,kitengo,tasinia,usafirishaji,mshambulizi,NA,NA,"c(""distractor1"", ""distractor2"", ""distractor3"")",NA,NA,NA,NA,NA,NA,NA,NA,NA,NA,NA,NA,NA,NA,NA,NA,NA,NA,NA
88978,Save data screen,canvas.Screen,2_6_0_1,NA,NA,timeout,495.47999999998,331161,331156.88,331157.26,331636.08,331638,2023-06-02T06:20:01Z,331652.74,Angreifer,mshambulizi,d,kitengo,tasinia,usafirishaji,NA,NA,1,"c(""distractor1"", ""distractor2"", ""distractor3"")",NA,NA,NA,NA,NA,NA,NA,NA,NA,NA,NA,NA,NA,NA,NA,NA,NA,NA,NA
88978,shallow,flow.Sequence,2_6_0,NA,NA,completion,14221.68,317402,317397.74,317414.4,331636.08,331638,2023-06-02T06:20:01Z,331652.74,Angreifer,mshambulizi,d,kitengo,tasinia,usafirishaji,NA,NA,NA,"c(""distractor1"", ""distractor2"", ""distractor3"")",NA,NA,NA,NA,NA,NA,NA,NA,NA,NA,NA,NA,NA,NA,NA,NA,NA,NA,NA
88978,task,flow.Sequence,2_6,NA,NA,completion,14221.68,317402,317397.74,317414.4,331636.08,331639,2023-06-02T06:20:01Z,331652.74,Angreifer,mshambulizi,d,kitengo,tasinia,usafirishaji,NA,NA,NA,"c(""distractor1"", ""distractor2"", ""distractor3"")",NA,NA,NA,NA,NA,NA,NA,NA,NA,NA,NA,NA,NA,NA,NA,NA,NA,NA,NA
88978,Shallow Question,html.Page,2_7_0_0,NA,NA,form submission,3347.26,331639,331636.08,331652.74,335000,335000,2023-06-02T06:20:04Z,334999.52,Körper,kiwiliwili,s,mapambano,mpatanishi,kiolezo,kiwiliwili,NA,NA,"c(""distractor1"", ""distractor2"", ""distractor3"")",NA,NA,NA,NA,NA,NA,NA,NA,NA,NA,NA,NA,NA,NA,NA,NA,NA,NA,NA
88978,Save data screen,canvas.Screen,2_7_0_1,NA,NA,timeout,499.89999999997,335002,334999.16,334999.52,335482.84,335488,2023-06-02T06:20:05Z,335499.42,Körper,kiwiliwili,s,mapambano,mpatanishi,kiolezo,NA,NA,1,"c(""distractor1"", ""distractor2"", ""distractor3"")",NA,NA,NA,NA,NA,NA,NA,NA,NA,NA,NA,NA,NA,NA,NA,NA,NA,NA,NA
88978,shallow,flow.Sequence,2_7_0,NA,NA,completion,3830.1,331639,331636.08,331652.74,335482.84,335491,2023-06-02T06:20:05Z,335499.42,Körper,kiwiliwili,s,mapambano,mpatanishi,kiolezo,NA,NA,NA,"c(""distractor1"", ""distractor2"", ""distractor3"")",NA,NA,NA,NA,NA,NA,NA,NA,NA,NA,NA,NA,NA,NA,NA,NA,NA,NA,NA
88978,task,flow.Sequence,2_7,NA,NA,completion,3830.1,331639,331636.08,331652.74,335482.84,335493,2023-06-02T06:20:05Z,335499.42,Körper,kiwiliwili,s,mapambano,mpatanishi,kiolezo,NA,NA,NA,"c(""distractor1"", ""distractor2"", ""distractor3"")",NA,NA,NA,NA,NA,NA,NA,NA,NA,NA,NA,NA,NA,NA,NA,NA,NA,NA,NA
88978,Shallow Question,html.Page,2_8_0_0,NA,NA,form submission,6088.58,335493,335482.84,335499.42,341588,341589,2023-06-02T06:20:11Z,341594.48,Verzögerung,kuchelewa,s,mwakilishi,mwanauchumi,jaribio,kuchelewa,NA,NA,"c(""distractor1"", ""distractor2"", ""distractor3"")",NA,NA,NA,NA,NA,NA,NA,NA,NA,NA,NA,NA,NA,NA,NA,NA,NA,NA,NA
88978,Save data screen,canvas.Screen,2_8_0_1,NA,NA,timeout,499.58000000002,341593,341585.06,341594.48,342077.4,342081,2023-06-02T06:20:11Z,342094.06,Verzögerung,kuchelewa,s,mwakilishi,mwanauchumi,jaribio,NA,NA,1,"c(""distractor1"", ""distractor2"", ""distractor3"")",NA,NA,NA,NA,NA,NA,NA,NA,NA,NA,NA,NA,NA,NA,NA,NA,NA,NA,NA
88978,shallow,flow.Sequence,2_8_0,NA,NA,completion,6577.98,335493,335482.84,335499.42,342077.4,342082,2023-06-02T06:20:11Z,342094.06,Verzögerung,kuchelewa,s,mwakilishi,mwanauchumi,jaribio,NA,NA,NA,"c(""distractor1"", ""distractor2"", ""distractor3"")",NA,NA,NA,NA,NA,NA,NA,NA,NA,NA,NA,NA,NA,NA,NA,NA,NA,NA,NA
88978,task,flow.Sequence,2_8,NA,NA,completion,6577.98,335493,335482.84,335499.42,342077.4,342084,2023-06-02T06:20:11Z,342094.06,Verzögerung,kuchelewa,s,mwakilishi,mwanauchumi,jaribio,NA,NA,NA,"c(""distractor1"", ""distractor2"", ""distractor3"")",NA,NA,NA,NA,NA,NA,NA,NA,NA,NA,NA,NA,NA,NA,NA,NA,NA,NA,NA
88978,Shallow Question,html.Page,2_9_0_0,NA,NA,form submission,5147.94,342084,342077.4,342094.06,347242,347242,2023-06-02T06:20:17Z,347241.48,Aufstand,ugomaji,d,mazidio,msingi,kujieleza,ugomaji,NA,NA,"c(""distractor1"", ""distractor2"", ""distractor3"")",NA,NA,NA,NA,NA,NA,NA,NA,NA,NA,NA,NA,NA,NA,NA,NA,NA,NA,NA
88978,Save data screen,canvas.Screen,2_9_0_1,NA,NA,timeout,497.88,347245,347241.06,347241.48,347722.72,347724,2023-06-02T06:20:17Z,347739.36,Aufstand,ugomaji,d,mazidio,msingi,kujieleza,NA,NA,1,"c(""distractor1"", ""distractor2"", ""distractor3"")",NA,NA,NA,NA,NA,NA,NA,NA,NA,NA,NA,NA,NA,NA,NA,NA,NA,NA,NA
88978,shallow,flow.Sequence,2_9_0,NA,NA,completion,5628.66,342084,342077.4,342094.06,347722.72,347725,2023-06-02T06:20:17Z,347739.36,Aufstand,ugomaji,d,mazidio,msingi,kujieleza,NA,NA,NA,"c(""distractor1"", ""distractor2"", ""distractor3"")",NA,NA,NA,NA,NA,NA,NA,NA,NA,NA,NA,NA,NA,NA,NA,NA,NA,NA,NA
88978,task,flow.Sequence,2_9,NA,NA,completion,5628.66,342084,342077.4,342094.06,347722.72,347726,2023-06-02T06:20:17Z,347739.36,Aufstand,ugomaji,d,mazidio,msingi,kujieleza,NA,NA,NA,"c(""distractor1"", ""distractor2"", ""distractor3"")",NA,NA,NA,NA,NA,NA,NA,NA,NA,NA,NA,NA,NA,NA,NA,NA,NA,NA,NA
88978,Shallow Question,html.Page,2_10_0_0,NA,NA,form submission,2536.64,347726,347722.72,347739.36,350276,350276,2023-06-02T06:20:20Z,350287.24,Lawine,banguko,d,maambukizi,usuluhishi,chekechea,banguko,NA,NA,"c(""distractor1"", ""distractor2"", ""distractor3"")",NA,NA,NA,NA,NA,NA,NA,NA,NA,NA,NA,NA,NA,NA,NA,NA,NA,NA,NA
88978,Save data screen,canvas.Screen,2_10_0_1,NA,NA,timeout,499.62,350279,350274.58,350287.24,350770.22,350771,2023-06-02T06:20:20Z,350786.86,Lawine,banguko,d,maambukizi,usuluhishi,chekechea,NA,NA,1,"c(""distractor1"", ""distractor2"", ""distractor3"")",NA,NA,NA,NA,NA,NA,NA,NA,NA,NA,NA,NA,NA,NA,NA,NA,NA,NA,NA
88978,shallow,flow.Sequence,2_10_0,NA,NA,completion,3030.86,347726,347722.72,347739.36,350770.22,350771,2023-06-02T06:20:20Z,350786.86,Lawine,banguko,d,maambukizi,usuluhishi,chekechea,NA,NA,NA,"c(""distractor1"", ""distractor2"", ""distractor3"")",NA,NA,NA,NA,NA,NA,NA,NA,NA,NA,NA,NA,NA,NA,NA,NA,NA,NA,NA
88978,task,flow.Sequence,2_10,NA,NA,completion,3030.86,347726,347722.72,347739.36,350770.22,350771,2023-06-02T06:20:20Z,350786.86,Lawine,banguko,d,maambukizi,usuluhishi,chekechea,NA,NA,NA,"c(""distractor1"", ""distractor2"", ""distractor3"")",NA,NA,NA,NA,NA,NA,NA,NA,NA,NA,NA,NA,NA,NA,NA,NA,NA,NA,NA
88978,Shallow Question,html.Page,2_11_0_0,NA,NA,form submission,5517.14,350772,350770.22,350786.86,356304,356304,2023-06-02T06:20:26Z,356303.36,Gefährdung,kuhatarisha,s,uchokozi,udhaifu,makorowezo,kuhatarisha,NA,NA,"c(""distractor1"", ""distractor2"", ""distractor3"")",NA,NA,NA,NA,NA,NA,NA,NA,NA,NA,NA,NA,NA,NA,NA,NA,NA,NA,NA
88978,Save data screen,canvas.Screen,2_11_0_1,NA,NA,timeout,495.54000000004,356306,356302.98,356303.36,356782.24,356784,2023-06-02T06:20:26Z,356798.9,Gefährdung,kuhatarisha,s,uchokozi,udhaifu,makorowezo,NA,NA,1,"c(""distractor1"", ""distractor2"", ""distractor3"")",NA,NA,NA,NA,NA,NA,NA,NA,NA,NA,NA,NA,NA,NA,NA,NA,NA,NA,NA
88978,shallow,flow.Sequence,2_11_0,NA,NA,completion,5995.38,350772,350770.22,350786.86,356782.24,356785,2023-06-02T06:20:26Z,356798.9,Gefährdung,kuhatarisha,s,uchokozi,udhaifu,makorowezo,NA,NA,NA,"c(""distractor1"", ""distractor2"", ""distractor3"")",NA,NA,NA,NA,NA,NA,NA,NA,NA,NA,NA,NA,NA,NA,NA,NA,NA,NA,NA
88978,task,flow.Sequence,2_11,NA,NA,completion,5995.38,350771,350770.22,350786.86,356782.24,356785,2023-06-02T06:20:26Z,356798.9,Gefährdung,kuhatarisha,s,uchokozi,udhaifu,makorowezo,NA,NA,NA,"c(""distractor1"", ""distractor2"", ""distractor3"")",NA,NA,NA,NA,NA,NA,NA,NA,NA,NA,NA,NA,NA,NA,NA,NA,NA,NA,NA
88978,Shallow Question,html.Page,2_12_0_0,NA,NA,form submission,4483.1,356786,356782.24,356798.9,361282,361283,2023-06-02T06:20:31Z,361282.04,Kanzler,diwani,s,rasilmali,mahitaji,maabudu,diwani,NA,NA,"c(""distractor1"", ""distractor2"", ""distractor3"")",NA,NA,NA,NA,NA,NA,NA,NA,NA,NA,NA,NA,NA,NA,NA,NA,NA,NA,NA
88978,Save data screen,canvas.Screen,2_12_0_1,NA,NA,timeout,495.88,361284,361281.64,361282.04,361761.26,361763,2023-06-02T06:20:31Z,361777.92,Kanzler,diwani,s,rasilmali,mahitaji,maabudu,NA,NA,1,"c(""distractor1"", ""distractor2"", ""distractor3"")",NA,NA,NA,NA,NA,NA,NA,NA,NA,NA,NA,NA,NA,NA,NA,NA,NA,NA,NA
88978,shallow,flow.Sequence,2_12_0,NA,NA,completion,4962.36,356786,356782.24,356798.9,361761.26,361764,2023-06-02T06:20:31Z,361777.92,Kanzler,diwani,s,rasilmali,mahitaji,maabudu,NA,NA,NA,"c(""distractor1"", ""distractor2"", ""distractor3"")",NA,NA,NA,NA,NA,NA,NA,NA,NA,NA,NA,NA,NA,NA,NA,NA,NA,NA,NA
88978,task,flow.Sequence,2_12,NA,NA,completion,4962.36,356786,356782.24,356798.9,361761.26,361765,2023-06-02T06:20:31Z,361777.92,Kanzler,diwani,s,rasilmali,mahitaji,maabudu,NA,NA,NA,"c(""distractor1"", ""distractor2"", ""distractor3"")",NA,NA,NA,NA,NA,NA,NA,NA,NA,NA,NA,NA,NA,NA,NA,NA,NA,NA,NA
88978,Shallow Question,html.Page,2_13_0_0,NA,NA,form submission,10606.08,361766,361761.26,361777.92,372384,372385,2023-06-02T06:20:42Z,372385.76,Übersicht,kilindo,s,mgusano,chipukizi,kulinganisha,kilindo,NA,NA,"c(""distractor1"", ""distractor2"", ""distractor3"")",NA,NA,NA,NA,NA,NA,NA,NA,NA,NA,NA,NA,NA,NA,NA,NA,NA,NA,NA
88978,Save data screen,canvas.Screen,2_13_0_1,NA,NA,timeout,499.65999999997,372387,372383.34,372385.76,372868.76,372870,2023-06-02T06:20:42Z,372885.42,Übersicht,kilindo,s,mgusano,chipukizi,kulinganisha,NA,NA,1,"c(""distractor1"", ""distractor2"", ""distractor3"")",NA,NA,NA,NA,NA,NA,NA,NA,NA,NA,NA,NA,NA,NA,NA,NA,NA,NA,NA
88978,shallow,flow.Sequence,2_13_0,NA,NA,completion,11090.84,361766,361761.26,361777.92,372868.76,372871,2023-06-02T06:20:42Z,372885.42,Übersicht,kilindo,s,mgusano,chipukizi,kulinganisha,NA,NA,NA,"c(""distractor1"", ""distractor2"", ""distractor3"")",NA,NA,NA,NA,NA,NA,NA,NA,NA,NA,NA,NA,NA,NA,NA,NA,NA,NA,NA
88978,task,flow.Sequence,2_13,NA,NA,completion,11090.84,361765,361761.26,361777.92,372868.76,372871,2023-06-02T06:20:42Z,372885.42,Übersicht,kilindo,s,mgusano,chipukizi,kulinganisha,NA,NA,NA,"c(""distractor1"", ""distractor2"", ""distractor3"")",NA,NA,NA,NA,NA,NA,NA,NA,NA,NA,NA,NA,NA,NA,NA,NA,NA,NA,NA
88978,Shallow Question,html.Page,2_14_0_0,NA,NA,form submission,4645.58,372871,372868.76,372885.42,377531,377532,2023-06-02T06:20:47Z,377531.48,Kreativität,ubunifu,d,mratibu,mwendelezo,makubaliano,ubunifu,NA,NA,"c(""distractor1"", ""distractor2"", ""distractor3"")",NA,NA,NA,NA,NA,NA,NA,NA,NA,NA,NA,NA,NA,NA,NA,NA,NA,NA,NA
88978,Save data screen,canvas.Screen,2_14_0_1,NA,NA,timeout,499.72000000003,377534,377530.42,377531.48,378014.54,378016,2023-06-02T06:20:47Z,378031.2,Kreativität,ubunifu,d,mratibu,mwendelezo,makubaliano,NA,NA,1,"c(""distractor1"", ""distractor2"", ""distractor3"")",NA,NA,NA,NA,NA,NA,NA,NA,NA,NA,NA,NA,NA,NA,NA,NA,NA,NA,NA
88978,shallow,flow.Sequence,2_14_0,NA,NA,completion,5129.12,372871,372868.76,372885.42,378014.54,378018,2023-06-02T06:20:47Z,378031.2,Kreativität,ubunifu,d,mratibu,mwendelezo,makubaliano,NA,NA,NA,"c(""distractor1"", ""distractor2"", ""distractor3"")",NA,NA,NA,NA,NA,NA,NA,NA,NA,NA,NA,NA,NA,NA,NA,NA,NA,NA,NA
88978,task,flow.Sequence,2_14,NA,NA,completion,5129.12,372871,372868.76,372885.42,378014.54,378019,2023-06-02T06:20:47Z,378031.2,Kreativität,ubunifu,d,mratibu,mwendelezo,makubaliano,NA,NA,NA,"c(""distractor1"", ""distractor2"", ""distractor3"")",NA,NA,NA,NA,NA,NA,NA,NA,NA,NA,NA,NA,NA,NA,NA,NA,NA,NA,NA
88978,Shallow Question,html.Page,2_15_0_0,NA,NA,form submission,3104.8,378020,378014.54,378031.2,381136,381137,2023-06-02T06:20:50Z,381136.58,Abrechnung,uhasibu,s,kusahihisha,mpambano,mashambulizi,uhasibu,NA,NA,"c(""distractor1"", ""distractor2"", ""distractor3"")",NA,NA,NA,NA,NA,NA,NA,NA,NA,NA,NA,NA,NA,NA,NA,NA,NA,NA,NA
88978,Save data screen,canvas.Screen,2_15_0_1,NA,NA,timeout,508.15999999997,381138,381136.3,381136.58,381628.2,381630,2023-06-02T06:20:51Z,381644.74,Abrechnung,uhasibu,s,kusahihisha,mpambano,mashambulizi,NA,NA,1,"c(""distractor1"", ""distractor2"", ""distractor3"")",NA,NA,NA,NA,NA,NA,NA,NA,NA,NA,NA,NA,NA,NA,NA,NA,NA,NA,NA
88978,shallow,flow.Sequence,2_15_0,NA,NA,completion,3597,378020,378014.54,378031.2,381628.2,381631,2023-06-02T06:20:51Z,381644.74,Abrechnung,uhasibu,s,kusahihisha,mpambano,mashambulizi,NA,NA,NA,"c(""distractor1"", ""distractor2"", ""distractor3"")",NA,NA,NA,NA,NA,NA,NA,NA,NA,NA,NA,NA,NA,NA,NA,NA,NA,NA,NA
88978,task,flow.Sequence,2_15,NA,NA,completion,3597,378020,378014.54,378031.2,381628.2,381632,2023-06-02T06:20:51Z,381644.74,Abrechnung,uhasibu,s,kusahihisha,mpambano,mashambulizi,NA,NA,NA,"c(""distractor1"", ""distractor2"", ""distractor3"")",NA,NA,NA,NA,NA,NA,NA,NA,NA,NA,NA,NA,NA,NA,NA,NA,NA,NA,NA
88978,retrieval block 2 (multiple choice),flow.Loop,2,NA,NA,completion,111075.26,270539,270536.28,270552.94,381628.2,381633,2023-06-02T06:20:51Z,381644.74,NA,NA,NA,NA,NA,NA,NA,NA,NA,"c(""distractor1"", ""distractor2"", ""distractor3"")",NA,NA,NA,NA,NA,NA,NA,NA,NA,NA,NA,NA,NA,NA,NA,NA,NA,NA,NA
88978,End,canvas.Screen,3,NA,keypress(Space),response,1127.26,381633,381628.2,381644.74,382772,382790,2023-06-02T06:20:52Z,382810.46,NA,NA,NA,NA,NA,NA,NA,NA,NA,NULL,NA,NA,NA,NA,NA,NA,NA,NA,NA,NA,NA,NA,NA,NA,NA,NA,NA,NA,NA
88978,root,flow.Sequence,NA,NA,NA,completion,373437.42,9314,9317.92,9334.58,382772,382791,2023-06-02T06:20:52Z,382810.46,NA,NA,NA,NA,NA,NA,NA,NA,NA,NULL,NA,NA,NA,NA,NA,NA,NA,NA,NA,NA,NA,NA,NA,NA,NA,NA,NA,NA,NA
