observation,sender,sender_type,sender_id,response,response_action,ended_on,duration,time_run,time_render,time_show,time_end,time_commit,timestamp,time_switch,german,swahili,enc,distractor1,distractor2,distractor3,response_2,x,correct,distractors,url_vp,url_sess,meta_labjs_version,meta_location,meta_user_agent,meta_platform,meta_language,meta_locale,meta_time_zone,meta_timezone_offset,meta_screen_width,meta_screen_height,meta_scroll_width,meta_scroll_height,meta_window_inner_width,meta_window_inner_height,meta_device_pixel_ratio,meta_labjs_build_flavor,meta_labjs_build_commit
a043e,Introduction delayed retrieval,canvas.Screen,0,weiter,keypress(Space),response,8590.48,1135,1511.82,2516.52,11107,11139,2024-06-04T17:35:28Z,11140.92,NA,NA,NA,NA,NA,NA,NA,NA,NA,NULL,164,2,20.2.4,https://neurocog.fernuni.ch/studies/vweber/jbaenninger/delayed%202/index.html?vp=164&sess=2,Mozilla/5.0 (Windows NT 10.0; Win64; x64; rv:126.0) Gecko/20100101 Firefox/126.0,Win32,de,de-CH,Europe/Zurich,-120,1280,800,1280,591,1280,639,1.5,production,f5b4a49f956347addd546a832a3327688c2c0fef
a043e,Deep Question,html.Page,1_0_0_0,NA,NA,form submission,3403.08,11140,11140.64,11140.92,14544,14546,2024-06-04T17:35:32Z,14554.56,Abrechnung,uhasibu,d,kusahihisha,mpambano,mashambulizi,fhgsr,NA,NA,NULL,NA,NA,NA,NA,NA,NA,NA,NA,NA,NA,NA,NA,NA,NA,NA,NA,NA,NA,NA
a043e,Save data screen,canvas.Screen,1_0_0_1,NA,NA,timeout,502.24,14549,14543.52,14554.56,15040.34,15041,2024-06-04T17:35:32Z,15056.8,Abrechnung,uhasibu,d,kusahihisha,mpambano,mashambulizi,NA,NA,0,NULL,NA,NA,NA,NA,NA,NA,NA,NA,NA,NA,NA,NA,NA,NA,NA,NA,NA,NA,NA
a043e,deep,flow.Sequence,1_0_0,NA,NA,completion,3899.42,11140,11140.64,11140.92,15040.34,15041,2024-06-04T17:35:32Z,15056.8,Abrechnung,uhasibu,d,kusahihisha,mpambano,mashambulizi,NA,NA,NA,NULL,NA,NA,NA,NA,NA,NA,NA,NA,NA,NA,NA,NA,NA,NA,NA,NA,NA,NA,NA
a043e,task,flow.Sequence,1_0,NA,NA,completion,3899.42,11140,11140.64,11140.92,15040.34,15042,2024-06-04T17:35:32Z,15056.8,Abrechnung,uhasibu,d,kusahihisha,mpambano,mashambulizi,NA,NA,NA,NULL,NA,NA,NA,NA,NA,NA,NA,NA,NA,NA,NA,NA,NA,NA,NA,NA,NA,NA,NA
a043e,Deep Question,html.Page,1_1_0_0,NA,NA,form submission,2929.2,15042,15040.34,15056.8,17986,17987,2024-06-04T17:35:35Z,17985.32,Angreifer,mshambulizi,s,kitengo,tasinia,usafirishaji,jbgsjrg,NA,NA,NULL,NA,NA,NA,NA,NA,NA,NA,NA,NA,NA,NA,NA,NA,NA,NA,NA,NA,NA,NA
a043e,Save data screen,canvas.Screen,1_1_0_1,NA,NA,timeout,505.52,17989,17984.96,17985.32,18474.32,18475,2024-06-04T17:35:36Z,18490.84,Angreifer,mshambulizi,s,kitengo,tasinia,usafirishaji,NA,NA,0,NULL,NA,NA,NA,NA,NA,NA,NA,NA,NA,NA,NA,NA,NA,NA,NA,NA,NA,NA,NA
a043e,deep,flow.Sequence,1_1_0,NA,NA,completion,3417.52,15042,15040.34,15056.8,18474.32,18477,2024-06-04T17:35:36Z,18490.84,Angreifer,mshambulizi,s,kitengo,tasinia,usafirishaji,NA,NA,NA,NULL,NA,NA,NA,NA,NA,NA,NA,NA,NA,NA,NA,NA,NA,NA,NA,NA,NA,NA,NA
a043e,task,flow.Sequence,1_1,NA,NA,completion,3417.52,15042,15040.34,15056.8,18474.32,18477,2024-06-04T17:35:36Z,18490.84,Angreifer,mshambulizi,s,kitengo,tasinia,usafirishaji,NA,NA,NA,NULL,NA,NA,NA,NA,NA,NA,NA,NA,NA,NA,NA,NA,NA,NA,NA,NA,NA,NA,NA
a043e,Deep Question,html.Page,1_2_0_0,NA,NA,form submission,3812.16,18477,18474.32,18490.84,22303,22303,2024-06-04T17:35:39Z,22301.86,Gefährdung,kuhatarisha,d,uchokozi,udhaifu,makorowezo,fgshgtrs,NA,NA,NULL,NA,NA,NA,NA,NA,NA,NA,NA,NA,NA,NA,NA,NA,NA,NA,NA,NA,NA,NA
a043e,Save data screen,canvas.Screen,1_2_0_1,NA,NA,timeout,492.44,22305,22301.1,22301.86,22777.36,22780,2024-06-04T17:35:40Z,22794.3,Gefährdung,kuhatarisha,d,uchokozi,udhaifu,makorowezo,NA,NA,0,NULL,NA,NA,NA,NA,NA,NA,NA,NA,NA,NA,NA,NA,NA,NA,NA,NA,NA,NA,NA
a043e,deep,flow.Sequence,1_2_0,NA,NA,completion,4286.52,18477,18474.32,18490.84,22777.36,22781,2024-06-04T17:35:40Z,22794.3,Gefährdung,kuhatarisha,d,uchokozi,udhaifu,makorowezo,NA,NA,NA,NULL,NA,NA,NA,NA,NA,NA,NA,NA,NA,NA,NA,NA,NA,NA,NA,NA,NA,NA,NA
a043e,task,flow.Sequence,1_2,NA,NA,completion,4286.52,18477,18474.32,18490.84,22777.36,22781,2024-06-04T17:35:40Z,22794.3,Gefährdung,kuhatarisha,d,uchokozi,udhaifu,makorowezo,NA,NA,NA,NULL,NA,NA,NA,NA,NA,NA,NA,NA,NA,NA,NA,NA,NA,NA,NA,NA,NA,NA,NA
a043e,Deep Question,html.Page,1_3_0_0,NA,NA,form submission,1664.7,22781,22777.36,22794.3,24459,24459,2024-06-04T17:35:42Z,24470.52,System,maongozi,s,chokochoko,nuksani,mitaani,fgergwr,NA,NA,NULL,NA,NA,NA,NA,NA,NA,NA,NA,NA,NA,NA,NA,NA,NA,NA,NA,NA,NA,NA
a043e,Save data screen,canvas.Screen,1_3_0_1,NA,NA,timeout,494.06,24461,24457.66,24470.52,24948.2,24950,2024-06-04T17:35:42Z,24964.58,System,maongozi,s,chokochoko,nuksani,mitaani,NA,NA,0,NULL,NA,NA,NA,NA,NA,NA,NA,NA,NA,NA,NA,NA,NA,NA,NA,NA,NA,NA,NA
a043e,deep,flow.Sequence,1_3_0,NA,NA,completion,2153.9,22781,22777.36,22794.3,24948.2,24950,2024-06-04T17:35:42Z,24964.58,System,maongozi,s,chokochoko,nuksani,mitaani,NA,NA,NA,NULL,NA,NA,NA,NA,NA,NA,NA,NA,NA,NA,NA,NA,NA,NA,NA,NA,NA,NA,NA
a043e,task,flow.Sequence,1_3,NA,NA,completion,2153.9,22781,22777.36,22794.3,24948.2,24950,2024-06-04T17:35:42Z,24964.58,System,maongozi,s,chokochoko,nuksani,mitaani,NA,NA,NA,NULL,NA,NA,NA,NA,NA,NA,NA,NA,NA,NA,NA,NA,NA,NA,NA,NA,NA,NA,NA
a043e,Deep Question,html.Page,1_4_0_0,NA,NA,form submission,2852.42,24950,24948.2,24964.58,27817,27818,2024-06-04T17:35:45Z,27818.94,Aufstand,ugomaji,s,mazidio,msingi,kujieleza,gsgsergg,NA,NA,NULL,NA,NA,NA,NA,NA,NA,NA,NA,NA,NA,NA,NA,NA,NA,NA,NA,NA,NA,NA
a043e,Save data screen,canvas.Screen,1_4_0_1,NA,NA,timeout,497.44,27819,27816.28,27818.94,28299.46,28300,2024-06-04T17:35:45Z,28316.38,Aufstand,ugomaji,s,mazidio,msingi,kujieleza,NA,NA,0,NULL,NA,NA,NA,NA,NA,NA,NA,NA,NA,NA,NA,NA,NA,NA,NA,NA,NA,NA,NA
a043e,deep,flow.Sequence,1_4_0,NA,NA,completion,3334.88,24950,24948.2,24964.58,28299.46,28300,2024-06-04T17:35:45Z,28316.38,Aufstand,ugomaji,s,mazidio,msingi,kujieleza,NA,NA,NA,NULL,NA,NA,NA,NA,NA,NA,NA,NA,NA,NA,NA,NA,NA,NA,NA,NA,NA,NA,NA
a043e,task,flow.Sequence,1_4,NA,NA,completion,3334.88,24950,24948.2,24964.58,28299.46,28301,2024-06-04T17:35:45Z,28316.38,Aufstand,ugomaji,s,mazidio,msingi,kujieleza,NA,NA,NA,NULL,NA,NA,NA,NA,NA,NA,NA,NA,NA,NA,NA,NA,NA,NA,NA,NA,NA,NA,NA
a043e,Deep Question,html.Page,1_5_0_0,NA,NA,form submission,3735.62,28301,28299.46,28316.38,32052,32052,2024-06-04T17:35:49Z,32062.92,Lawine,banguko,s,maambukizi,usuluhishi,chekechea,fvdgbdfgs,NA,NA,NULL,NA,NA,NA,NA,NA,NA,NA,NA,NA,NA,NA,NA,NA,NA,NA,NA,NA,NA,NA
a043e,Save data screen,canvas.Screen,1_5_0_1,NA,NA,timeout,501.6,32053,32051.02,32062.92,32548.02,32549,2024-06-04T17:35:50Z,32564.52,Lawine,banguko,s,maambukizi,usuluhishi,chekechea,NA,NA,0,NULL,NA,NA,NA,NA,NA,NA,NA,NA,NA,NA,NA,NA,NA,NA,NA,NA,NA,NA,NA
a043e,deep,flow.Sequence,1_5_0,NA,NA,completion,4231.64,28301,28299.46,28316.38,32548.02,32550,2024-06-04T17:35:50Z,32564.52,Lawine,banguko,s,maambukizi,usuluhishi,chekechea,NA,NA,NA,NULL,NA,NA,NA,NA,NA,NA,NA,NA,NA,NA,NA,NA,NA,NA,NA,NA,NA,NA,NA
a043e,task,flow.Sequence,1_5,NA,NA,completion,4231.64,28301,28299.46,28316.38,32548.02,32550,2024-06-04T17:35:50Z,32564.52,Lawine,banguko,s,maambukizi,usuluhishi,chekechea,NA,NA,NA,NULL,NA,NA,NA,NA,NA,NA,NA,NA,NA,NA,NA,NA,NA,NA,NA,NA,NA,NA,NA
a043e,Deep Question,html.Page,1_6_0_0,NA,NA,form submission,1505.48,32550,32548.02,32564.52,34070,34070,2024-06-04T17:35:51Z,34069.2,Können,unaweza,s,kiongozi,bustani,mienendo,sfgdfgrg,NA,NA,NULL,NA,NA,NA,NA,NA,NA,NA,NA,NA,NA,NA,NA,NA,NA,NA,NA,NA,NA,NA
a043e,Save data screen,canvas.Screen,1_6_0_1,NA,NA,timeout,503.16,34071,34068.94,34069.2,34556.22,34558,2024-06-04T17:35:52Z,34572.36,Können,unaweza,s,kiongozi,bustani,mienendo,NA,NA,0,NULL,NA,NA,NA,NA,NA,NA,NA,NA,NA,NA,NA,NA,NA,NA,NA,NA,NA,NA,NA
a043e,deep,flow.Sequence,1_6_0,NA,NA,completion,1991.7,32550,32548.02,32564.52,34556.22,34559,2024-06-04T17:35:52Z,34572.36,Können,unaweza,s,kiongozi,bustani,mienendo,NA,NA,NA,NULL,NA,NA,NA,NA,NA,NA,NA,NA,NA,NA,NA,NA,NA,NA,NA,NA,NA,NA,NA
a043e,task,flow.Sequence,1_6,NA,NA,completion,1991.7,32550,32548.02,32564.52,34556.22,34559,2024-06-04T17:35:52Z,34572.36,Können,unaweza,s,kiongozi,bustani,mienendo,NA,NA,NA,NULL,NA,NA,NA,NA,NA,NA,NA,NA,NA,NA,NA,NA,NA,NA,NA,NA,NA,NA,NA
a043e,Deep Question,html.Page,1_7_0_0,NA,NA,form submission,3953.64,34559,34556.22,34572.36,38526,38526,2024-06-04T17:35:56Z,38533.22,Prüfung,mtihani,s,mkulima,mtizamo,ufumbuzi,gfsdgdfgd,NA,NA,NULL,NA,NA,NA,NA,NA,NA,NA,NA,NA,NA,NA,NA,NA,NA,NA,NA,NA,NA,NA
a043e,Save data screen,canvas.Screen,1_7_0_1,NA,NA,timeout,519.52,38527,38524.64,38533.22,39013.86,39054,2024-06-04T17:35:56Z,39052.74,Prüfung,mtihani,s,mkulima,mtizamo,ufumbuzi,NA,NA,0,NULL,NA,NA,NA,NA,NA,NA,NA,NA,NA,NA,NA,NA,NA,NA,NA,NA,NA,NA,NA
a043e,deep,flow.Sequence,1_7_0,NA,NA,completion,4441.5,34559,34556.22,34572.36,39013.86,39054,2024-06-04T17:35:56Z,39052.74,Prüfung,mtihani,s,mkulima,mtizamo,ufumbuzi,NA,NA,NA,NULL,NA,NA,NA,NA,NA,NA,NA,NA,NA,NA,NA,NA,NA,NA,NA,NA,NA,NA,NA
a043e,task,flow.Sequence,1_7,NA,NA,completion,4441.5,34559,34556.22,34572.36,39013.86,39055,2024-06-04T17:35:56Z,39052.74,Prüfung,mtihani,s,mkulima,mtizamo,ufumbuzi,NA,NA,NA,NULL,NA,NA,NA,NA,NA,NA,NA,NA,NA,NA,NA,NA,NA,NA,NA,NA,NA,NA,NA
a043e,Deep Question,html.Page,1_8_0_0,NA,NA,form submission,1767.26,39055,39013.86,39052.74,40820,40821,2024-06-04T17:35:58Z,40819.46,Körper,kiwiliwili,d,mapambano,mpatanishi,kiolezo,fdghsdghsg,NA,NA,NULL,NA,NA,NA,NA,NA,NA,NA,NA,NA,NA,NA,NA,NA,NA,NA,NA,NA,NA,NA
a043e,Save data screen,canvas.Screen,1_8_0_1,NA,NA,timeout,493.62,40826,40818.94,40819.46,41296.44,41298,2024-06-04T17:35:58Z,41313.08,Körper,kiwiliwili,d,mapambano,mpatanishi,kiolezo,NA,NA,0,NULL,NA,NA,NA,NA,NA,NA,NA,NA,NA,NA,NA,NA,NA,NA,NA,NA,NA,NA,NA
a043e,deep,flow.Sequence,1_8_0,NA,NA,completion,2243.7,39055,39013.86,39052.74,41296.44,41298,2024-06-04T17:35:58Z,41313.08,Körper,kiwiliwili,d,mapambano,mpatanishi,kiolezo,NA,NA,NA,NULL,NA,NA,NA,NA,NA,NA,NA,NA,NA,NA,NA,NA,NA,NA,NA,NA,NA,NA,NA
a043e,task,flow.Sequence,1_8,NA,NA,completion,2243.7,39055,39013.86,39052.74,41296.44,41299,2024-06-04T17:35:58Z,41313.08,Körper,kiwiliwili,d,mapambano,mpatanishi,kiolezo,NA,NA,NA,NULL,NA,NA,NA,NA,NA,NA,NA,NA,NA,NA,NA,NA,NA,NA,NA,NA,NA,NA,NA
a043e,Deep Question,html.Page,1_9_0_0,NA,NA,form submission,2523.92,41299,41296.44,41313.08,43837,43838,2024-06-04T17:36:01Z,43835.86,Kultur,utamaduni,d,shetani,gerezani,mazingira,fdsgsdgfs,NA,NA,NULL,NA,NA,NA,NA,NA,NA,NA,NA,NA,NA,NA,NA,NA,NA,NA,NA,NA,NA,NA
a043e,Save data screen,canvas.Screen,1_9_0_1,NA,NA,timeout,496.02,43843,43835.24,43835.86,44315.32,44317,2024-06-04T17:36:01Z,44331.88,Kultur,utamaduni,d,shetani,gerezani,mazingira,NA,NA,0,NULL,NA,NA,NA,NA,NA,NA,NA,NA,NA,NA,NA,NA,NA,NA,NA,NA,NA,NA,NA
a043e,deep,flow.Sequence,1_9_0,NA,NA,completion,3002.24,41299,41296.44,41313.08,44315.32,44317,2024-06-04T17:36:01Z,44331.88,Kultur,utamaduni,d,shetani,gerezani,mazingira,NA,NA,NA,NULL,NA,NA,NA,NA,NA,NA,NA,NA,NA,NA,NA,NA,NA,NA,NA,NA,NA,NA,NA
a043e,task,flow.Sequence,1_9,NA,NA,completion,3002.24,41299,41296.44,41313.08,44315.32,44317,2024-06-04T17:36:01Z,44331.88,Kultur,utamaduni,d,shetani,gerezani,mazingira,NA,NA,NA,NULL,NA,NA,NA,NA,NA,NA,NA,NA,NA,NA,NA,NA,NA,NA,NA,NA,NA,NA,NA
a043e,Deep Question,html.Page,1_10_0_0,NA,NA,form submission,3635.12,44318,44315.32,44331.88,47967,47968,2024-06-04T17:36:05Z,47965.7,Sänger,mwimbaji,s,msichana,shughuli,mshirika,fgsdgsgd,NA,NA,NULL,NA,NA,NA,NA,NA,NA,NA,NA,NA,NA,NA,NA,NA,NA,NA,NA,NA,NA,NA
a043e,Save data screen,canvas.Screen,1_10_0_1,NA,NA,timeout,496.46000000001,47971,47939.32,47965.7,48445.5,48447,2024-06-04T17:36:06Z,48462.16,Sänger,mwimbaji,s,msichana,shughuli,mshirika,NA,NA,0,NULL,NA,NA,NA,NA,NA,NA,NA,NA,NA,NA,NA,NA,NA,NA,NA,NA,NA,NA,NA
a043e,deep,flow.Sequence,1_10_0,NA,NA,completion,4113.62,44318,44315.32,44331.88,48445.5,48447,2024-06-04T17:36:06Z,48462.16,Sänger,mwimbaji,s,msichana,shughuli,mshirika,NA,NA,NA,NULL,NA,NA,NA,NA,NA,NA,NA,NA,NA,NA,NA,NA,NA,NA,NA,NA,NA,NA,NA
a043e,task,flow.Sequence,1_10,NA,NA,completion,4113.62,44318,44315.32,44331.88,48445.5,48447,2024-06-04T17:36:06Z,48462.16,Sänger,mwimbaji,s,msichana,shughuli,mshirika,NA,NA,NA,NULL,NA,NA,NA,NA,NA,NA,NA,NA,NA,NA,NA,NA,NA,NA,NA,NA,NA,NA,NA
a043e,Deep Question,html.Page,1_11_0_0,NA,NA,form submission,3986.84,48448,48445.5,48462.16,52449,52450,2024-06-04T17:36:10Z,52460.88,Kreativität,ubunifu,s,mratibu,mwendelezo,makubaliano,sdgsagra,NA,NA,NULL,NA,NA,NA,NA,NA,NA,NA,NA,NA,NA,NA,NA,NA,NA,NA,NA,NA,NA,NA
a043e,Save data screen,canvas.Screen,1_11_0_1,NA,NA,timeout,500.44,52451,52446.38,52460.88,52944.82,52946,2024-06-04T17:36:10Z,52961.32,Kreativität,ubunifu,s,mratibu,mwendelezo,makubaliano,NA,NA,0,NULL,NA,NA,NA,NA,NA,NA,NA,NA,NA,NA,NA,NA,NA,NA,NA,NA,NA,NA,NA
a043e,deep,flow.Sequence,1_11_0,NA,NA,completion,4482.66,48448,48445.5,48462.16,52944.82,52946,2024-06-04T17:36:10Z,52961.32,Kreativität,ubunifu,s,mratibu,mwendelezo,makubaliano,NA,NA,NA,NULL,NA,NA,NA,NA,NA,NA,NA,NA,NA,NA,NA,NA,NA,NA,NA,NA,NA,NA,NA
a043e,task,flow.Sequence,1_11,NA,NA,completion,4482.66,48448,48445.5,48462.16,52944.82,52947,2024-06-04T17:36:10Z,52961.32,Kreativität,ubunifu,s,mratibu,mwendelezo,makubaliano,NA,NA,NA,NULL,NA,NA,NA,NA,NA,NA,NA,NA,NA,NA,NA,NA,NA,NA,NA,NA,NA,NA,NA
a043e,Deep Question,html.Page,1_12_0_0,NA,NA,form submission,3154.68,52947,52944.82,52961.32,56116,56116,2024-06-04T17:36:13Z,56113.9,Übersicht,kilindo,d,mgusano,chipukizi,kulinganisha,dafgwrgzw,NA,NA,NULL,NA,NA,NA,NA,NA,NA,NA,NA,NA,NA,NA,NA,NA,NA,NA,NA,NA,NA,NA
a043e,Save data screen,canvas.Screen,1_12_0_1,NA,NA,timeout,500.9,56117,56113.5,56113.9,56597.86,56599,2024-06-04T17:36:14Z,56614.8,Übersicht,kilindo,d,mgusano,chipukizi,kulinganisha,NA,NA,0,NULL,NA,NA,NA,NA,NA,NA,NA,NA,NA,NA,NA,NA,NA,NA,NA,NA,NA,NA,NA
a043e,deep,flow.Sequence,1_12_0,NA,NA,completion,3636.54,52947,52944.82,52961.32,56597.86,56599,2024-06-04T17:36:14Z,56614.8,Übersicht,kilindo,d,mgusano,chipukizi,kulinganisha,NA,NA,NA,NULL,NA,NA,NA,NA,NA,NA,NA,NA,NA,NA,NA,NA,NA,NA,NA,NA,NA,NA,NA
a043e,task,flow.Sequence,1_12,NA,NA,completion,3636.54,52947,52944.82,52961.32,56597.86,56600,2024-06-04T17:36:14Z,56614.8,Übersicht,kilindo,d,mgusano,chipukizi,kulinganisha,NA,NA,NA,NULL,NA,NA,NA,NA,NA,NA,NA,NA,NA,NA,NA,NA,NA,NA,NA,NA,NA,NA,NA
a043e,Deep Question,html.Page,1_13_0_0,NA,NA,form submission,3167.2,56600,56597.86,56614.8,59782,59782,2024-06-04T17:36:17Z,59780.94,Verzögerung,kuchelewa,d,mwakilishi,mwanauchumi,jaribio,fbsgsrg,NA,NA,NULL,NA,NA,NA,NA,NA,NA,NA,NA,NA,NA,NA,NA,NA,NA,NA,NA,NA,NA,NA
a043e,Save data screen,canvas.Screen,1_13_0_1,NA,NA,timeout,504.94,59783,59780.5,59780.94,60269.34,60270,2024-06-04T17:36:17Z,60285.88,Verzögerung,kuchelewa,d,mwakilishi,mwanauchumi,jaribio,NA,NA,0,NULL,NA,NA,NA,NA,NA,NA,NA,NA,NA,NA,NA,NA,NA,NA,NA,NA,NA,NA,NA
a043e,deep,flow.Sequence,1_13_0,NA,NA,completion,3654.54,56600,56597.86,56614.8,60269.34,60271,2024-06-04T17:36:17Z,60285.88,Verzögerung,kuchelewa,d,mwakilishi,mwanauchumi,jaribio,NA,NA,NA,NULL,NA,NA,NA,NA,NA,NA,NA,NA,NA,NA,NA,NA,NA,NA,NA,NA,NA,NA,NA
a043e,task,flow.Sequence,1_13,NA,NA,completion,3654.54,56600,56597.86,56614.8,60269.34,60271,2024-06-04T17:36:17Z,60285.88,Verzögerung,kuchelewa,d,mwakilishi,mwanauchumi,jaribio,NA,NA,NA,NULL,NA,NA,NA,NA,NA,NA,NA,NA,NA,NA,NA,NA,NA,NA,NA,NA,NA,NA,NA
a043e,Deep Question,html.Page,1_14_0_0,NA,NA,form submission,2627.12,60271,60269.34,60285.88,62913,62914,2024-06-04T17:36:20Z,62913.26,Kontrolle,kudhibiti,d,mbinguni,kufunga,utegemezi,gkiujour,NA,NA,NULL,NA,NA,NA,NA,NA,NA,NA,NA,NA,NA,NA,NA,NA,NA,NA,NA,NA,NA,NA
a043e,Save data screen,canvas.Screen,1_14_0_1,NA,NA,timeout,497.04,62915,62912.52,62913.26,63393.98,63396,2024-06-04T17:36:20Z,63410.3,Kontrolle,kudhibiti,d,mbinguni,kufunga,utegemezi,NA,NA,0,NULL,NA,NA,NA,NA,NA,NA,NA,NA,NA,NA,NA,NA,NA,NA,NA,NA,NA,NA,NA
a043e,deep,flow.Sequence,1_14_0,NA,NA,completion,3108.1,60271,60269.34,60285.88,63393.98,63396,2024-06-04T17:36:20Z,63410.3,Kontrolle,kudhibiti,d,mbinguni,kufunga,utegemezi,NA,NA,NA,NULL,NA,NA,NA,NA,NA,NA,NA,NA,NA,NA,NA,NA,NA,NA,NA,NA,NA,NA,NA
a043e,task,flow.Sequence,1_14,NA,NA,completion,3108.1,60271,60269.34,60285.88,63393.98,63396,2024-06-04T17:36:20Z,63410.3,Kontrolle,kudhibiti,d,mbinguni,kufunga,utegemezi,NA,NA,NA,NULL,NA,NA,NA,NA,NA,NA,NA,NA,NA,NA,NA,NA,NA,NA,NA,NA,NA,NA,NA
a043e,Deep Question,html.Page,1_15_0_0,NA,NA,form submission,2631.7,63396,63393.98,63410.3,66042,66043,2024-06-04T17:36:23Z,66051.22,Kanzler,diwani,d,rasilmali,mahitaji,maabudu,hgishioga,NA,NA,NULL,NA,NA,NA,NA,NA,NA,NA,NA,NA,NA,NA,NA,NA,NA,NA,NA,NA,NA,NA
a043e,Save data screen,canvas.Screen,1_15_0_1,NA,NA,timeout,499.39999999999,66044,66041.5,66051.22,66534.44,66536,2024-06-04T17:36:24Z,66550.62,Kanzler,diwani,d,rasilmali,mahitaji,maabudu,NA,NA,0,NULL,NA,NA,NA,NA,NA,NA,NA,NA,NA,NA,NA,NA,NA,NA,NA,NA,NA,NA,NA
a043e,deep,flow.Sequence,1_15_0,NA,NA,completion,3124.14,63396,63393.98,63410.3,66534.44,66536,2024-06-04T17:36:24Z,66550.62,Kanzler,diwani,d,rasilmali,mahitaji,maabudu,NA,NA,NA,NULL,NA,NA,NA,NA,NA,NA,NA,NA,NA,NA,NA,NA,NA,NA,NA,NA,NA,NA,NA
a043e,task,flow.Sequence,1_15,NA,NA,completion,3124.14,63396,63393.98,63410.3,66534.44,66536,2024-06-04T17:36:24Z,66550.62,Kanzler,diwani,d,rasilmali,mahitaji,maabudu,NA,NA,NA,NULL,NA,NA,NA,NA,NA,NA,NA,NA,NA,NA,NA,NA,NA,NA,NA,NA,NA,NA,NA
a043e,retrieval block 1 (cued recall),flow.Loop,1,NA,NA,completion,55393.52,11140,11140.64,11140.92,66534.44,66536,2024-06-04T17:36:24Z,66550.62,NA,NA,NA,NA,NA,NA,NA,NA,NA,NULL,NA,NA,NA,NA,NA,NA,NA,NA,NA,NA,NA,NA,NA,NA,NA,NA,NA,NA,NA
a043e,Shallow Question,html.Page,2_0_0_0,NA,NA,form submission,7569.38,66537,66534.44,66550.62,74120,74121,2024-06-04T17:36:31Z,74130.7,Körper,kiwiliwili,d,mapambano,mpatanishi,kiolezo,kiolezo,NA,NA,"c(""distractor1"", ""distractor2"", ""distractor3"")",NA,NA,NA,NA,NA,NA,NA,NA,NA,NA,NA,NA,NA,NA,NA,NA,NA,NA,NA
a043e,Save data screen,canvas.Screen,2_0_0_1,NA,NA,timeout,491.28,74127,74114.5,74130.7,74605.68,74608,2024-06-04T17:36:32Z,74621.98,Körper,kiwiliwili,d,mapambano,mpatanishi,kiolezo,NA,NA,0,"c(""distractor1"", ""distractor2"", ""distractor3"")",NA,NA,NA,NA,NA,NA,NA,NA,NA,NA,NA,NA,NA,NA,NA,NA,NA,NA,NA
a043e,shallow,flow.Sequence,2_0_0,NA,NA,completion,8055.06,66537,66534.44,66550.62,74605.68,74609,2024-06-04T17:36:32Z,74621.98,Körper,kiwiliwili,d,mapambano,mpatanishi,kiolezo,NA,NA,NA,"c(""distractor1"", ""distractor2"", ""distractor3"")",NA,NA,NA,NA,NA,NA,NA,NA,NA,NA,NA,NA,NA,NA,NA,NA,NA,NA,NA
a043e,task,flow.Sequence,2_0,NA,NA,completion,8055.06,66537,66534.44,66550.62,74605.68,74610,2024-06-04T17:36:32Z,74621.98,Körper,kiwiliwili,d,mapambano,mpatanishi,kiolezo,NA,NA,NA,"c(""distractor1"", ""distractor2"", ""distractor3"")",NA,NA,NA,NA,NA,NA,NA,NA,NA,NA,NA,NA,NA,NA,NA,NA,NA,NA,NA
a043e,Shallow Question,html.Page,2_1_0_0,NA,NA,form submission,5832.02,74611,74605.68,74621.98,80454,80455,2024-06-04T17:36:38Z,80456.32,System,maongozi,s,chokochoko,nuksani,mitaani,maongozi,NA,NA,"c(""distractor1"", ""distractor2"", ""distractor3"")",NA,NA,NA,NA,NA,NA,NA,NA,NA,NA,NA,NA,NA,NA,NA,NA,NA,NA,NA
a043e,Save data screen,canvas.Screen,2_1_0_1,NA,NA,timeout,491.14,80456,80451.68,80456.32,80931.5,80933,2024-06-04T17:36:38Z,80947.46,System,maongozi,s,chokochoko,nuksani,mitaani,NA,NA,1,"c(""distractor1"", ""distractor2"", ""distractor3"")",NA,NA,NA,NA,NA,NA,NA,NA,NA,NA,NA,NA,NA,NA,NA,NA,NA,NA,NA
a043e,shallow,flow.Sequence,2_1_0,NA,NA,completion,6309.52,74610,74605.68,74621.98,80931.5,80933,2024-06-04T17:36:38Z,80947.46,System,maongozi,s,chokochoko,nuksani,mitaani,NA,NA,NA,"c(""distractor1"", ""distractor2"", ""distractor3"")",NA,NA,NA,NA,NA,NA,NA,NA,NA,NA,NA,NA,NA,NA,NA,NA,NA,NA,NA
a043e,task,flow.Sequence,2_1,NA,NA,completion,6309.52,74610,74605.68,74621.98,80931.5,80934,2024-06-04T17:36:38Z,80947.46,System,maongozi,s,chokochoko,nuksani,mitaani,NA,NA,NA,"c(""distractor1"", ""distractor2"", ""distractor3"")",NA,NA,NA,NA,NA,NA,NA,NA,NA,NA,NA,NA,NA,NA,NA,NA,NA,NA,NA
a043e,Shallow Question,html.Page,2_2_0_0,NA,NA,form submission,4338.54,80934,80931.5,80947.46,85286,85286,2024-06-04T17:36:42Z,85297.14,Übersicht,kilindo,d,mgusano,chipukizi,kulinganisha,kilindo,NA,NA,"c(""distractor1"", ""distractor2"", ""distractor3"")",NA,NA,NA,NA,NA,NA,NA,NA,NA,NA,NA,NA,NA,NA,NA,NA,NA,NA,NA
a043e,Save data screen,canvas.Screen,2_2_0_1,NA,NA,timeout,500.84,85288,85282.6,85297.14,85781.04,85783,2024-06-04T17:36:43Z,85797.98,Übersicht,kilindo,d,mgusano,chipukizi,kulinganisha,NA,NA,1,"c(""distractor1"", ""distractor2"", ""distractor3"")",NA,NA,NA,NA,NA,NA,NA,NA,NA,NA,NA,NA,NA,NA,NA,NA,NA,NA,NA
a043e,shallow,flow.Sequence,2_2_0,NA,NA,completion,4833.58,80934,80931.5,80947.46,85781.04,85784,2024-06-04T17:36:43Z,85797.98,Übersicht,kilindo,d,mgusano,chipukizi,kulinganisha,NA,NA,NA,"c(""distractor1"", ""distractor2"", ""distractor3"")",NA,NA,NA,NA,NA,NA,NA,NA,NA,NA,NA,NA,NA,NA,NA,NA,NA,NA,NA
a043e,task,flow.Sequence,2_2,NA,NA,completion,4833.58,80934,80931.5,80947.46,85781.04,85784,2024-06-04T17:36:43Z,85797.98,Übersicht,kilindo,d,mgusano,chipukizi,kulinganisha,NA,NA,NA,"c(""distractor1"", ""distractor2"", ""distractor3"")",NA,NA,NA,NA,NA,NA,NA,NA,NA,NA,NA,NA,NA,NA,NA,NA,NA,NA,NA
a043e,Shallow Question,html.Page,2_3_0_0,NA,NA,form submission,5382.02,85785,85781.04,85797.98,91180,91181,2024-06-04T17:36:48Z,91187.44,Aufstand,ugomaji,s,mazidio,msingi,kujieleza,mazidio,NA,NA,"c(""distractor1"", ""distractor2"", ""distractor3"")",NA,NA,NA,NA,NA,NA,NA,NA,NA,NA,NA,NA,NA,NA,NA,NA,NA,NA,NA
a043e,Save data screen,canvas.Screen,2_3_0_1,NA,NA,timeout,500.09999999999,91182,91177.36,91187.44,91671.22,91673,2024-06-04T17:36:49Z,91687.54,Aufstand,ugomaji,s,mazidio,msingi,kujieleza,NA,NA,0,"c(""distractor1"", ""distractor2"", ""distractor3"")",NA,NA,NA,NA,NA,NA,NA,NA,NA,NA,NA,NA,NA,NA,NA,NA,NA,NA,NA
a043e,shallow,flow.Sequence,2_3_0,NA,NA,completion,5873.24,85785,85781.04,85797.98,91671.22,91673,2024-06-04T17:36:49Z,91687.54,Aufstand,ugomaji,s,mazidio,msingi,kujieleza,NA,NA,NA,"c(""distractor1"", ""distractor2"", ""distractor3"")",NA,NA,NA,NA,NA,NA,NA,NA,NA,NA,NA,NA,NA,NA,NA,NA,NA,NA,NA
a043e,task,flow.Sequence,2_3,NA,NA,completion,5873.24,85785,85781.04,85797.98,91671.22,91673,2024-06-04T17:36:49Z,91687.54,Aufstand,ugomaji,s,mazidio,msingi,kujieleza,NA,NA,NA,"c(""distractor1"", ""distractor2"", ""distractor3"")",NA,NA,NA,NA,NA,NA,NA,NA,NA,NA,NA,NA,NA,NA,NA,NA,NA,NA,NA
a043e,Shallow Question,html.Page,2_4_0_0,NA,NA,form submission,5561.46,91674,91671.22,91687.54,97249,97249,2024-06-04T17:36:54Z,97249.56,Prüfung,mtihani,s,mkulima,mtizamo,ufumbuzi,mtizamo,NA,NA,"c(""distractor1"", ""distractor2"", ""distractor3"")",NA,NA,NA,NA,NA,NA,NA,NA,NA,NA,NA,NA,NA,NA,NA,NA,NA,NA,NA
a043e,Save data screen,canvas.Screen,2_4_0_1,NA,NA,timeout,500.18000000001,97249,97244.76,97249.56,97733.46,97735,2024-06-04T17:36:55Z,97749.74,Prüfung,mtihani,s,mkulima,mtizamo,ufumbuzi,NA,NA,0,"c(""distractor1"", ""distractor2"", ""distractor3"")",NA,NA,NA,NA,NA,NA,NA,NA,NA,NA,NA,NA,NA,NA,NA,NA,NA,NA,NA
a043e,shallow,flow.Sequence,2_4_0,NA,NA,completion,6045.92,91674,91671.22,91687.54,97733.46,97735,2024-06-04T17:36:55Z,97749.74,Prüfung,mtihani,s,mkulima,mtizamo,ufumbuzi,NA,NA,NA,"c(""distractor1"", ""distractor2"", ""distractor3"")",NA,NA,NA,NA,NA,NA,NA,NA,NA,NA,NA,NA,NA,NA,NA,NA,NA,NA,NA
a043e,task,flow.Sequence,2_4,NA,NA,completion,6045.92,91673,91671.22,91687.54,97733.46,97735,2024-06-04T17:36:55Z,97749.74,Prüfung,mtihani,s,mkulima,mtizamo,ufumbuzi,NA,NA,NA,"c(""distractor1"", ""distractor2"", ""distractor3"")",NA,NA,NA,NA,NA,NA,NA,NA,NA,NA,NA,NA,NA,NA,NA,NA,NA,NA,NA
a043e,Shallow Question,html.Page,2_5_0_0,NA,NA,form submission,5836.26,97735,97733.46,97749.74,103586,103586,2024-06-04T17:37:01Z,103598.62,Kanzler,diwani,d,rasilmali,mahitaji,maabudu,mahitaji,NA,NA,"c(""distractor1"", ""distractor2"", ""distractor3"")",NA,NA,NA,NA,NA,NA,NA,NA,NA,NA,NA,NA,NA,NA,NA,NA,NA,NA,NA
a043e,Save data screen,canvas.Screen,2_5_0_1,NA,NA,timeout,500.64,103588,103581.9,103598.62,104082.3,104083,2024-06-04T17:37:01Z,104099.26,Kanzler,diwani,d,rasilmali,mahitaji,maabudu,NA,NA,0,"c(""distractor1"", ""distractor2"", ""distractor3"")",NA,NA,NA,NA,NA,NA,NA,NA,NA,NA,NA,NA,NA,NA,NA,NA,NA,NA,NA
a043e,shallow,flow.Sequence,2_5_0,NA,NA,completion,6332.56,97735,97733.46,97749.74,104082.3,104083,2024-06-04T17:37:01Z,104099.26,Kanzler,diwani,d,rasilmali,mahitaji,maabudu,NA,NA,NA,"c(""distractor1"", ""distractor2"", ""distractor3"")",NA,NA,NA,NA,NA,NA,NA,NA,NA,NA,NA,NA,NA,NA,NA,NA,NA,NA,NA
a043e,task,flow.Sequence,2_5,NA,NA,completion,6332.56,97735,97733.46,97749.74,104082.3,104084,2024-06-04T17:37:01Z,104099.26,Kanzler,diwani,d,rasilmali,mahitaji,maabudu,NA,NA,NA,"c(""distractor1"", ""distractor2"", ""distractor3"")",NA,NA,NA,NA,NA,NA,NA,NA,NA,NA,NA,NA,NA,NA,NA,NA,NA,NA,NA
a043e,Shallow Question,html.Page,2_6_0_0,NA,NA,form submission,11765.74,104084,104082.3,104099.26,115865,115865,2024-06-04T17:37:13Z,115875.3,Gefährdung,kuhatarisha,d,uchokozi,udhaifu,makorowezo,udhaifu,NA,NA,"c(""distractor1"", ""distractor2"", ""distractor3"")",NA,NA,NA,NA,NA,NA,NA,NA,NA,NA,NA,NA,NA,NA,NA,NA,NA,NA,NA
a043e,Save data screen,canvas.Screen,2_6_0_1,NA,NA,timeout,500.22,115867,115862.06,115875.3,116358.92,116360,2024-06-04T17:37:13Z,116375.52,Gefährdung,kuhatarisha,d,uchokozi,udhaifu,makorowezo,NA,NA,0,"c(""distractor1"", ""distractor2"", ""distractor3"")",NA,NA,NA,NA,NA,NA,NA,NA,NA,NA,NA,NA,NA,NA,NA,NA,NA,NA,NA
a043e,shallow,flow.Sequence,2_6_0,NA,NA,completion,12259.66,104084,104082.3,104099.26,116358.92,116360,2024-06-04T17:37:13Z,116375.52,Gefährdung,kuhatarisha,d,uchokozi,udhaifu,makorowezo,NA,NA,NA,"c(""distractor1"", ""distractor2"", ""distractor3"")",NA,NA,NA,NA,NA,NA,NA,NA,NA,NA,NA,NA,NA,NA,NA,NA,NA,NA,NA
a043e,task,flow.Sequence,2_6,NA,NA,completion,12259.66,104084,104082.3,104099.26,116358.92,116361,2024-06-04T17:37:13Z,116375.52,Gefährdung,kuhatarisha,d,uchokozi,udhaifu,makorowezo,NA,NA,NA,"c(""distractor1"", ""distractor2"", ""distractor3"")",NA,NA,NA,NA,NA,NA,NA,NA,NA,NA,NA,NA,NA,NA,NA,NA,NA,NA,NA
a043e,Shallow Question,html.Page,2_7_0_0,NA,NA,form submission,5774.48,116361,116358.92,116375.52,122150,122150,2024-06-04T17:37:19Z,122154.82,Lawine,banguko,s,maambukizi,usuluhishi,chekechea,maambukizi,NA,NA,"c(""distractor1"", ""distractor2"", ""distractor3"")",NA,NA,NA,NA,NA,NA,NA,NA,NA,NA,NA,NA,NA,NA,NA,NA,NA,NA,NA
a043e,Save data screen,canvas.Screen,2_7_0_1,NA,NA,timeout,500.23999999999,122151,122146.04,122154.82,122638.62,122640,2024-06-04T17:37:20Z,122655.06,Lawine,banguko,s,maambukizi,usuluhishi,chekechea,NA,NA,0,"c(""distractor1"", ""distractor2"", ""distractor3"")",NA,NA,NA,NA,NA,NA,NA,NA,NA,NA,NA,NA,NA,NA,NA,NA,NA,NA,NA
a043e,shallow,flow.Sequence,2_7_0,NA,NA,completion,6263.1,116361,116358.92,116375.52,122638.62,122640,2024-06-04T17:37:20Z,122655.06,Lawine,banguko,s,maambukizi,usuluhishi,chekechea,NA,NA,NA,"c(""distractor1"", ""distractor2"", ""distractor3"")",NA,NA,NA,NA,NA,NA,NA,NA,NA,NA,NA,NA,NA,NA,NA,NA,NA,NA,NA
a043e,task,flow.Sequence,2_7,NA,NA,completion,6263.1,116361,116358.92,116375.52,122638.62,122640,2024-06-04T17:37:20Z,122655.06,Lawine,banguko,s,maambukizi,usuluhishi,chekechea,NA,NA,NA,"c(""distractor1"", ""distractor2"", ""distractor3"")",NA,NA,NA,NA,NA,NA,NA,NA,NA,NA,NA,NA,NA,NA,NA,NA,NA,NA,NA
a043e,Shallow Question,html.Page,2_8_0_0,NA,NA,form submission,12363.94,122641,122638.62,122655.06,135019,135019,2024-06-04T17:37:32Z,135018.66,Sänger,mwimbaji,s,msichana,shughuli,mshirika,mshirika,NA,NA,"c(""distractor1"", ""distractor2"", ""distractor3"")",NA,NA,NA,NA,NA,NA,NA,NA,NA,NA,NA,NA,NA,NA,NA,NA,NA,NA,NA
a043e,Save data screen,canvas.Screen,2_8_0_1,NA,NA,timeout,500.16,135021,135016.02,135018.66,135502.56,135506,2024-06-04T17:37:33Z,135518.82,Sänger,mwimbaji,s,msichana,shughuli,mshirika,NA,NA,0,"c(""distractor1"", ""distractor2"", ""distractor3"")",NA,NA,NA,NA,NA,NA,NA,NA,NA,NA,NA,NA,NA,NA,NA,NA,NA,NA,NA
a043e,shallow,flow.Sequence,2_8_0,NA,NA,completion,12847.5,122641,122638.62,122655.06,135502.56,135508,2024-06-04T17:37:33Z,135518.82,Sänger,mwimbaji,s,msichana,shughuli,mshirika,NA,NA,NA,"c(""distractor1"", ""distractor2"", ""distractor3"")",NA,NA,NA,NA,NA,NA,NA,NA,NA,NA,NA,NA,NA,NA,NA,NA,NA,NA,NA
a043e,task,flow.Sequence,2_8,NA,NA,completion,12847.5,122640,122638.62,122655.06,135502.56,135509,2024-06-04T17:37:33Z,135518.82,Sänger,mwimbaji,s,msichana,shughuli,mshirika,NA,NA,NA,"c(""distractor1"", ""distractor2"", ""distractor3"")",NA,NA,NA,NA,NA,NA,NA,NA,NA,NA,NA,NA,NA,NA,NA,NA,NA,NA,NA
a043e,Shallow Question,html.Page,2_9_0_0,NA,NA,form submission,5816.18,135509,135502.56,135518.82,141335,141335,2024-06-04T17:37:38Z,141340.62,Können,unaweza,s,kiongozi,bustani,mienendo,kiongozi,NA,NA,"c(""distractor1"", ""distractor2"", ""distractor3"")",NA,NA,NA,NA,NA,NA,NA,NA,NA,NA,NA,NA,NA,NA,NA,NA,NA,NA,NA
a043e,Save data screen,canvas.Screen,2_9_0_1,NA,NA,timeout,506.06,141341,141330.8,141340.62,141830.32,141831,2024-06-04T17:37:39Z,141846.68,Können,unaweza,s,kiongozi,bustani,mienendo,NA,NA,0,"c(""distractor1"", ""distractor2"", ""distractor3"")",NA,NA,NA,NA,NA,NA,NA,NA,NA,NA,NA,NA,NA,NA,NA,NA,NA,NA,NA
a043e,shallow,flow.Sequence,2_9_0,NA,NA,completion,6311.5,135509,135502.56,135518.82,141830.32,141831,2024-06-04T17:37:39Z,141846.68,Können,unaweza,s,kiongozi,bustani,mienendo,NA,NA,NA,"c(""distractor1"", ""distractor2"", ""distractor3"")",NA,NA,NA,NA,NA,NA,NA,NA,NA,NA,NA,NA,NA,NA,NA,NA,NA,NA,NA
a043e,task,flow.Sequence,2_9,NA,NA,completion,6311.5,135509,135502.56,135518.82,141830.32,141832,2024-06-04T17:37:39Z,141846.68,Können,unaweza,s,kiongozi,bustani,mienendo,NA,NA,NA,"c(""distractor1"", ""distractor2"", ""distractor3"")",NA,NA,NA,NA,NA,NA,NA,NA,NA,NA,NA,NA,NA,NA,NA,NA,NA,NA,NA
a043e,Shallow Question,html.Page,2_10_0_0,NA,NA,form submission,7840.32,141832,141830.32,141846.68,149687,149687,2024-06-04T17:37:47Z,149692.58,Kreativität,ubunifu,s,mratibu,mwendelezo,makubaliano,makubaliano,NA,NA,"c(""distractor1"", ""distractor2"", ""distractor3"")",NA,NA,NA,NA,NA,NA,NA,NA,NA,NA,NA,NA,NA,NA,NA,NA,NA,NA,NA
a043e,Save data screen,canvas.Screen,2_10_0_1,NA,NA,timeout,494.54000000001,149689,149684.04,149692.58,150171.18,150173,2024-06-04T17:37:47Z,150187.12,Kreativität,ubunifu,s,mratibu,mwendelezo,makubaliano,NA,NA,0,"c(""distractor1"", ""distractor2"", ""distractor3"")",NA,NA,NA,NA,NA,NA,NA,NA,NA,NA,NA,NA,NA,NA,NA,NA,NA,NA,NA
a043e,shallow,flow.Sequence,2_10_0,NA,NA,completion,8324.5,141832,141830.32,141846.68,150171.18,150174,2024-06-04T17:37:47Z,150187.12,Kreativität,ubunifu,s,mratibu,mwendelezo,makubaliano,NA,NA,NA,"c(""distractor1"", ""distractor2"", ""distractor3"")",NA,NA,NA,NA,NA,NA,NA,NA,NA,NA,NA,NA,NA,NA,NA,NA,NA,NA,NA
a043e,task,flow.Sequence,2_10,NA,NA,completion,8324.5,141832,141830.32,141846.68,150171.18,150174,2024-06-04T17:37:47Z,150187.12,Kreativität,ubunifu,s,mratibu,mwendelezo,makubaliano,NA,NA,NA,"c(""distractor1"", ""distractor2"", ""distractor3"")",NA,NA,NA,NA,NA,NA,NA,NA,NA,NA,NA,NA,NA,NA,NA,NA,NA,NA,NA
a043e,Shallow Question,html.Page,2_11_0_0,NA,NA,form submission,11561.88,150174,150171.18,150187.12,161749,161749,2024-06-04T17:37:59Z,161750.34,Kontrolle,kudhibiti,d,mbinguni,kufunga,utegemezi,mbinguni,NA,NA,"c(""distractor1"", ""distractor2"", ""distractor3"")",NA,NA,NA,NA,NA,NA,NA,NA,NA,NA,NA,NA,NA,NA,NA,NA,NA,NA,NA
a043e,Save data screen,canvas.Screen,2_11_0_1,NA,NA,timeout,500.70000000001,161751,161746.04,161750.34,162234.32,162235,2024-06-04T17:37:59Z,162251.04,Kontrolle,kudhibiti,d,mbinguni,kufunga,utegemezi,NA,NA,0,"c(""distractor1"", ""distractor2"", ""distractor3"")",NA,NA,NA,NA,NA,NA,NA,NA,NA,NA,NA,NA,NA,NA,NA,NA,NA,NA,NA
a043e,shallow,flow.Sequence,2_11_0,NA,NA,completion,12047.2,150174,150171.18,150187.12,162234.32,162236,2024-06-04T17:37:59Z,162251.04,Kontrolle,kudhibiti,d,mbinguni,kufunga,utegemezi,NA,NA,NA,"c(""distractor1"", ""distractor2"", ""distractor3"")",NA,NA,NA,NA,NA,NA,NA,NA,NA,NA,NA,NA,NA,NA,NA,NA,NA,NA,NA
a043e,task,flow.Sequence,2_11,NA,NA,completion,12047.2,150174,150171.18,150187.12,162234.32,162236,2024-06-04T17:37:59Z,162251.04,Kontrolle,kudhibiti,d,mbinguni,kufunga,utegemezi,NA,NA,NA,"c(""distractor1"", ""distractor2"", ""distractor3"")",NA,NA,NA,NA,NA,NA,NA,NA,NA,NA,NA,NA,NA,NA,NA,NA,NA,NA,NA
a043e,Shallow Question,html.Page,2_12_0_0,NA,NA,form submission,6772.96,162236,162234.32,162251.04,169024,169024,2024-06-04T17:38:06Z,169029.68,Angreifer,mshambulizi,s,kitengo,tasinia,usafirishaji,usafirishaji,NA,NA,"c(""distractor1"", ""distractor2"", ""distractor3"")",NA,NA,NA,NA,NA,NA,NA,NA,NA,NA,NA,NA,NA,NA,NA,NA,NA,NA,NA
a043e,Save data screen,canvas.Screen,2_12_0_1,NA,NA,timeout,500.24000000002,169025,169020.98,169029.68,169513.42,169515,2024-06-04T17:38:07Z,169529.92,Angreifer,mshambulizi,s,kitengo,tasinia,usafirishaji,NA,NA,0,"c(""distractor1"", ""distractor2"", ""distractor3"")",NA,NA,NA,NA,NA,NA,NA,NA,NA,NA,NA,NA,NA,NA,NA,NA,NA,NA,NA
a043e,shallow,flow.Sequence,2_12_0,NA,NA,completion,7262.38,162236,162234.32,162251.04,169513.42,169515,2024-06-04T17:38:07Z,169529.92,Angreifer,mshambulizi,s,kitengo,tasinia,usafirishaji,NA,NA,NA,"c(""distractor1"", ""distractor2"", ""distractor3"")",NA,NA,NA,NA,NA,NA,NA,NA,NA,NA,NA,NA,NA,NA,NA,NA,NA,NA,NA
a043e,task,flow.Sequence,2_12,NA,NA,completion,7262.38,162236,162234.32,162251.04,169513.42,169515,2024-06-04T17:38:07Z,169529.92,Angreifer,mshambulizi,s,kitengo,tasinia,usafirishaji,NA,NA,NA,"c(""distractor1"", ""distractor2"", ""distractor3"")",NA,NA,NA,NA,NA,NA,NA,NA,NA,NA,NA,NA,NA,NA,NA,NA,NA,NA,NA
a043e,Shallow Question,html.Page,2_13_0_0,NA,NA,form submission,9626.08,169516,169513.42,169529.92,179156,179157,2024-06-04T17:38:16Z,179161.62,Abrechnung,uhasibu,d,kusahihisha,mpambano,mashambulizi,mpambano,NA,NA,"c(""distractor1"", ""distractor2"", ""distractor3"")",NA,NA,NA,NA,NA,NA,NA,NA,NA,NA,NA,NA,NA,NA,NA,NA,NA,NA,NA
a043e,Save data screen,canvas.Screen,2_13_0_1,NA,NA,timeout,493.5,179158,179153.1,179161.62,179638.62,179640,2024-06-04T17:38:17Z,179655.12,Abrechnung,uhasibu,d,kusahihisha,mpambano,mashambulizi,NA,NA,0,"c(""distractor1"", ""distractor2"", ""distractor3"")",NA,NA,NA,NA,NA,NA,NA,NA,NA,NA,NA,NA,NA,NA,NA,NA,NA,NA,NA
a043e,shallow,flow.Sequence,2_13_0,NA,NA,completion,10108.7,169516,169513.42,169529.92,179638.62,179640,2024-06-04T17:38:17Z,179655.12,Abrechnung,uhasibu,d,kusahihisha,mpambano,mashambulizi,NA,NA,NA,"c(""distractor1"", ""distractor2"", ""distractor3"")",NA,NA,NA,NA,NA,NA,NA,NA,NA,NA,NA,NA,NA,NA,NA,NA,NA,NA,NA
a043e,task,flow.Sequence,2_13,NA,NA,completion,10108.7,169516,169513.42,169529.92,179638.62,179641,2024-06-04T17:38:17Z,179655.12,Abrechnung,uhasibu,d,kusahihisha,mpambano,mashambulizi,NA,NA,NA,"c(""distractor1"", ""distractor2"", ""distractor3"")",NA,NA,NA,NA,NA,NA,NA,NA,NA,NA,NA,NA,NA,NA,NA,NA,NA,NA,NA
a043e,Shallow Question,html.Page,2_14_0_0,NA,NA,form submission,7849.88,179641,179638.62,179655.12,187505,187505,2024-06-04T17:38:25Z,187516.26,Verzögerung,kuchelewa,d,mwakilishi,mwanauchumi,jaribio,mwakilishi,NA,NA,"c(""distractor1"", ""distractor2"", ""distractor3"")",NA,NA,NA,NA,NA,NA,NA,NA,NA,NA,NA,NA,NA,NA,NA,NA,NA,NA,NA
a043e,Save data screen,canvas.Screen,2_14_0_1,NA,NA,timeout,500.5,187506,187500.72,187516.26,188000.26,188002,2024-06-04T17:38:25Z,188016.76,Verzögerung,kuchelewa,d,mwakilishi,mwanauchumi,jaribio,NA,NA,0,"c(""distractor1"", ""distractor2"", ""distractor3"")",NA,NA,NA,NA,NA,NA,NA,NA,NA,NA,NA,NA,NA,NA,NA,NA,NA,NA,NA
a043e,shallow,flow.Sequence,2_14_0,NA,NA,completion,8345.14,179641,179638.62,179655.12,188000.26,188002,2024-06-04T17:38:25Z,188016.76,Verzögerung,kuchelewa,d,mwakilishi,mwanauchumi,jaribio,NA,NA,NA,"c(""distractor1"", ""distractor2"", ""distractor3"")",NA,NA,NA,NA,NA,NA,NA,NA,NA,NA,NA,NA,NA,NA,NA,NA,NA,NA,NA
a043e,task,flow.Sequence,2_14,NA,NA,completion,8345.14,179641,179638.62,179655.12,188000.26,188003,2024-06-04T17:38:25Z,188016.76,Verzögerung,kuchelewa,d,mwakilishi,mwanauchumi,jaribio,NA,NA,NA,"c(""distractor1"", ""distractor2"", ""distractor3"")",NA,NA,NA,NA,NA,NA,NA,NA,NA,NA,NA,NA,NA,NA,NA,NA,NA,NA,NA
a043e,Shallow Question,html.Page,2_15_0_0,NA,NA,form submission,7852.24,188003,188000.26,188016.76,195869,195871,2024-06-04T17:38:33Z,195873.78,Kultur,utamaduni,d,shetani,gerezani,mazingira,shetani,NA,NA,"c(""distractor1"", ""distractor2"", ""distractor3"")",NA,NA,NA,NA,NA,NA,NA,NA,NA,NA,NA,NA,NA,NA,NA,NA,NA,NA,NA
a043e,Save data screen,canvas.Screen,2_15_0_1,NA,NA,timeout,500.22,195876,195863.98,195873.78,196357.66,196359,2024-06-04T17:38:33Z,196374,Kultur,utamaduni,d,shetani,gerezani,mazingira,NA,NA,0,"c(""distractor1"", ""distractor2"", ""distractor3"")",NA,NA,NA,NA,NA,NA,NA,NA,NA,NA,NA,NA,NA,NA,NA,NA,NA,NA,NA
a043e,shallow,flow.Sequence,2_15_0,NA,NA,completion,8340.9,188003,188000.26,188016.76,196357.66,196359,2024-06-04T17:38:33Z,196374,Kultur,utamaduni,d,shetani,gerezani,mazingira,NA,NA,NA,"c(""distractor1"", ""distractor2"", ""distractor3"")",NA,NA,NA,NA,NA,NA,NA,NA,NA,NA,NA,NA,NA,NA,NA,NA,NA,NA,NA
a043e,task,flow.Sequence,2_15,NA,NA,completion,8340.9,188003,188000.26,188016.76,196357.66,196359,2024-06-04T17:38:33Z,196374,Kultur,utamaduni,d,shetani,gerezani,mazingira,NA,NA,NA,"c(""distractor1"", ""distractor2"", ""distractor3"")",NA,NA,NA,NA,NA,NA,NA,NA,NA,NA,NA,NA,NA,NA,NA,NA,NA,NA,NA
a043e,retrieval block 2 (multiple choice),flow.Loop,2,NA,NA,completion,129807.04,66536,66534.44,66550.62,196357.66,196360,2024-06-04T17:38:33Z,196374,NA,NA,NA,NA,NA,NA,NA,NA,NA,"c(""distractor1"", ""distractor2"", ""distractor3"")",NA,NA,NA,NA,NA,NA,NA,NA,NA,NA,NA,NA,NA,NA,NA,NA,NA,NA,NA
a043e,End,canvas.Screen,3,NA,keypress(Space),response,1841,196360,196357.66,196374,198215,198227,2024-06-04T17:38:35Z,198228.32,NA,NA,NA,NA,NA,NA,NA,NA,NA,NULL,NA,NA,NA,NA,NA,NA,NA,NA,NA,NA,NA,NA,NA,NA,NA,NA,NA,NA,NA
a043e,root,flow.Sequence,NA,NA,NA,completion,195698.48,1135,1511.82,2516.52,198215,198228,2024-06-04T17:38:35Z,198228.32,NA,NA,NA,NA,NA,NA,NA,NA,NA,NULL,NA,NA,NA,NA,NA,NA,NA,NA,NA,NA,NA,NA,NA,NA,NA,NA,NA,NA,NA
