observation,sender,sender_type,sender_id,response,response_action,ended_on,duration,time_run,time_render,time_show,time_end,time_commit,timestamp,time_switch,distractors,german,swahili,enc,distractor1,distractor2,distractor3,response_2,x,correct,x_2,url_vp,url_sess,meta_labjs_version,meta_location,meta_user_agent,meta_platform,meta_language,meta_locale,meta_time_zone,meta_timezone_offset,meta_screen_width,meta_screen_height,meta_scroll_width,meta_scroll_height,meta_window_inner_width,meta_window_inner_height,meta_device_pixel_ratio,meta_labjs_build_flavor,meta_labjs_build_commit
a6077,Introduction general,canvas.Screen,0,weiter,keypress(q),response,13413.42,820,812.9,829.58,14243,14258,2024-06-23T12:23:12Z,14274.4,NULL,NA,NA,NA,NA,NA,NA,NA,NA,NA,NA,164,3,20.2.4,https://neurocog.fernuni.ch/studies/vweber/jbaenninger/encoding_immediate/index.html?vp=164&sess=3,Mozilla/5.0 (Windows NT 10.0; Win64; x64; rv:127.0) Gecko/20100101 Firefox/127.0,Win32,de,de-CH,Europe/Zurich,-120,1280,800,1280,591,1280,639,1.5,production,f5b4a49f956347addd546a832a3327688c2c0fef
a6077,Introduction practice,canvas.Screen,1_0,NA,keypress(Space),response,224621.6,14259,14259.1,14274.4,238896,239339,2024-06-23T12:26:57Z,239341.7,NULL,NA,NA,NA,NA,NA,NA,NA,NA,NA,NA,NA,NA,NA,NA,NA,NA,NA,NA,NA,NA,NA,NA,NA,NA,NA,NA,NA,NA,NA
a6077,deep,flow.Sequence,1_1_0_0,NA,NA,skipped,NA,239340,NA,NA,238896,239341,2024-06-23T12:26:57Z,239341.7,"c(""distractor1"", ""distractor2"", ""distractor3"")",Rückhalt,msaada,s,muhula,auwali,kiwimbe,NA,NA,NA,NA,NA,NA,NA,NA,NA,NA,NA,NA,NA,NA,NA,NA,NA,NA,NA,NA,NA,NA,NA
a6077,Shallow Question,html.Page,1_1_0_1_0,NA,NA,form submission,50773.3,239341,239341.42,239341.7,290115,290115,2024-06-23T12:27:48Z,290112.26,"c(""distractor1"", ""distractor2"", ""distractor3"")",Rückhalt,msaada,s,muhula,auwali,kiwimbe,auwali,NA,NA,NA,NA,NA,NA,NA,NA,NA,NA,NA,NA,NA,NA,NA,NA,NA,NA,NA,NA,NA,NA
a6077,"""Richtig""-Screen",canvas.Screen,1_1_0_1_1,NA,NA,skipped,NA,290121,NA,NA,290115,290121,2024-06-23T12:27:48Z,290112.26,"c(""distractor1"", ""distractor2"", ""distractor3"")",Rückhalt,msaada,s,muhula,auwali,kiwimbe,NA,NA,NA,NA,NA,NA,NA,NA,NA,NA,NA,NA,NA,NA,NA,NA,NA,NA,NA,NA,NA,NA,NA
a6077,"""Falsch""-Screen",canvas.Screen,1_1_0_1_2,NA,NA,timeout,5004.1,290123,290097.38,290112.26,295099.7,295101,2024-06-23T12:27:53Z,295116.36,"c(""distractor1"", ""distractor2"", ""distractor3"")",Rückhalt,msaada,s,muhula,auwali,kiwimbe,NA,NA,0,NA,NA,NA,NA,NA,NA,NA,NA,NA,NA,NA,NA,NA,NA,NA,NA,NA,NA,NA,NA
a6077,shallow,flow.Sequence,1_1_0_1,NA,NA,completion,55758,239341,239341.42,239341.7,295099.7,295103,2024-06-23T12:27:53Z,295116.36,"c(""distractor1"", ""distractor2"", ""distractor3"")",Rückhalt,msaada,s,muhula,auwali,kiwimbe,NA,NA,NA,NA,NA,NA,NA,NA,NA,NA,NA,NA,NA,NA,NA,NA,NA,NA,NA,NA,NA,NA,NA
a6077,task,flow.Sequence,1_1_0,NA,NA,completion,55758,239340,239341.42,239341.7,295099.7,295103,2024-06-23T12:27:53Z,295116.36,"c(""distractor1"", ""distractor2"", ""distractor3"")",Rückhalt,msaada,s,muhula,auwali,kiwimbe,NA,NA,NA,NA,NA,NA,NA,NA,NA,NA,NA,NA,NA,NA,NA,NA,NA,NA,NA,NA,NA,NA,NA
a6077,Deep Question,html.Page,1_1_1_0_0,NA,NA,form submission,2668.64,295103,295099.7,295116.36,297785,297786,2024-06-23T12:27:56Z,297784.86,"c(""distractor1"", ""distractor2"", ""distractor3"")",Qualität,mtindo,d,NA,NA,NA,fjgfejagrj,NA,NA,NA,NA,NA,NA,NA,NA,NA,NA,NA,NA,NA,NA,NA,NA,NA,NA,NA,NA,NA,NA
a6077,"""Richtig""-Screen",canvas.Screen,1_1_1_0_1,NA,NA,skipped,NA,297788,NA,NA,297785,297789,2024-06-23T12:27:56Z,297784.86,"c(""distractor1"", ""distractor2"", ""distractor3"")",Qualität,mtindo,d,NA,NA,NA,NA,NA,NA,NA,NA,NA,NA,NA,NA,NA,NA,NA,NA,NA,NA,NA,NA,NA,NA,NA,NA,NA,NA
a6077,"""Falsch""-Screen",canvas.Screen,1_1_1_0_2,NA,NA,timeout,5004.52,297790,297784.46,297784.86,302772.7,302774,2024-06-23T12:28:01Z,302789.38,"c(""distractor1"", ""distractor2"", ""distractor3"")",Qualität,mtindo,d,NA,NA,NA,NA,NA,0,NA,NA,NA,NA,NA,NA,NA,NA,NA,NA,NA,NA,NA,NA,NA,NA,NA,NA,NA,NA
a6077,deep,flow.Sequence,1_1_1_0,NA,NA,completion,7656.34,295103,295099.7,295116.36,302772.7,302775,2024-06-23T12:28:01Z,302789.38,"c(""distractor1"", ""distractor2"", ""distractor3"")",Qualität,mtindo,d,NA,NA,NA,NA,NA,NA,NA,NA,NA,NA,NA,NA,NA,NA,NA,NA,NA,NA,NA,NA,NA,NA,NA,NA,NA,NA
a6077,shallow,flow.Sequence,1_1_1_1,NA,NA,skipped,NA,302775,NA,NA,302772.7,302775,2024-06-23T12:28:01Z,302789.38,"c(""distractor1"", ""distractor2"", ""distractor3"")",Qualität,mtindo,d,NA,NA,NA,NA,NA,NA,NA,NA,NA,NA,NA,NA,NA,NA,NA,NA,NA,NA,NA,NA,NA,NA,NA,NA,NA,NA
a6077,task,flow.Sequence,1_1_1,NA,NA,completion,7656.34,295103,295099.7,295116.36,302772.7,302775,2024-06-23T12:28:01Z,302789.38,"c(""distractor1"", ""distractor2"", ""distractor3"")",Qualität,mtindo,d,NA,NA,NA,NA,NA,NA,NA,NA,NA,NA,NA,NA,NA,NA,NA,NA,NA,NA,NA,NA,NA,NA,NA,NA,NA,NA
a6077,Deep Question,html.Page,1_1_2_0_0,NA,NA,form submission,3703.62,302776,302772.7,302789.38,306493,306493,2024-06-23T12:28:04Z,306492.44,"c(""distractor1"", ""distractor2"", ""distractor3"")",Gesundheit,salama,d,NA,NA,NA,nfhgfhg,NA,NA,NA,NA,NA,NA,NA,NA,NA,NA,NA,NA,NA,NA,NA,NA,NA,NA,NA,NA,NA,NA
a6077,"""Richtig""-Screen",canvas.Screen,1_1_2_0_1,NA,NA,skipped,NA,306495,NA,NA,306493,306495,2024-06-23T12:28:04Z,306492.44,"c(""distractor1"", ""distractor2"", ""distractor3"")",Gesundheit,salama,d,NA,NA,NA,NA,NA,NA,NA,NA,NA,NA,NA,NA,NA,NA,NA,NA,NA,NA,NA,NA,NA,NA,NA,NA,NA,NA
a6077,"""Falsch""-Screen",canvas.Screen,1_1_2_0_2,NA,NA,timeout,5004.32,306496,306490.52,306492.44,311480.08,311482,2024-06-23T12:28:09Z,311496.76,"c(""distractor1"", ""distractor2"", ""distractor3"")",Gesundheit,salama,d,NA,NA,NA,NA,NA,0,NA,NA,NA,NA,NA,NA,NA,NA,NA,NA,NA,NA,NA,NA,NA,NA,NA,NA,NA,NA
a6077,deep,flow.Sequence,1_1_2_0,NA,NA,completion,8690.7,302775,302772.7,302789.38,311480.08,311482,2024-06-23T12:28:09Z,311496.76,"c(""distractor1"", ""distractor2"", ""distractor3"")",Gesundheit,salama,d,NA,NA,NA,NA,NA,NA,NA,NA,NA,NA,NA,NA,NA,NA,NA,NA,NA,NA,NA,NA,NA,NA,NA,NA,NA,NA
a6077,shallow,flow.Sequence,1_1_2_1,NA,NA,skipped,NA,311482,NA,NA,311480.08,311482,2024-06-23T12:28:09Z,311496.76,"c(""distractor1"", ""distractor2"", ""distractor3"")",Gesundheit,salama,d,NA,NA,NA,NA,NA,NA,NA,NA,NA,NA,NA,NA,NA,NA,NA,NA,NA,NA,NA,NA,NA,NA,NA,NA,NA,NA
a6077,task,flow.Sequence,1_1_2,NA,NA,completion,8690.7,302775,302772.7,302789.38,311480.08,311482,2024-06-23T12:28:09Z,311496.76,"c(""distractor1"", ""distractor2"", ""distractor3"")",Gesundheit,salama,d,NA,NA,NA,NA,NA,NA,NA,NA,NA,NA,NA,NA,NA,NA,NA,NA,NA,NA,NA,NA,NA,NA,NA,NA,NA,NA
a6077,deep,flow.Sequence,1_1_3_0,NA,NA,skipped,NA,311482,NA,NA,311480.08,311482,2024-06-23T12:28:09Z,311496.76,"c(""distractor1"", ""distractor2"", ""distractor3"")",Kritik,lawama,s,dereva,nafasi,mawazo,NA,NA,NA,NA,NA,NA,NA,NA,NA,NA,NA,NA,NA,NA,NA,NA,NA,NA,NA,NA,NA,NA,NA
a6077,Shallow Question,html.Page,1_1_3_1_0,NA,NA,form submission,4704.24,311483,311480.08,311496.76,316201,316202,2024-06-23T12:28:14Z,316200.48,"c(""distractor1"", ""distractor2"", ""distractor3"")",Kritik,lawama,s,dereva,nafasi,mawazo,lawama,NA,NA,NA,NA,NA,NA,NA,NA,NA,NA,NA,NA,NA,NA,NA,NA,NA,NA,NA,NA,NA,NA
a6077,"""Richtig""-Screen",canvas.Screen,1_1_3_1_1,NA,NA,timeout,5004.26,316203,316197.78,316200.48,321188.08,321189,2024-06-23T12:28:19Z,321204.74,"c(""distractor1"", ""distractor2"", ""distractor3"")",Kritik,lawama,s,dereva,nafasi,mawazo,NA,NA,1,NA,NA,NA,NA,NA,NA,NA,NA,NA,NA,NA,NA,NA,NA,NA,NA,NA,NA,NA,NA
a6077,"""Falsch""-Screen",canvas.Screen,1_1_3_1_2,NA,NA,skipped,NA,321192,NA,NA,321188.08,321192,2024-06-23T12:28:19Z,321204.74,"c(""distractor1"", ""distractor2"", ""distractor3"")",Kritik,lawama,s,dereva,nafasi,mawazo,NA,NA,NA,NA,NA,NA,NA,NA,NA,NA,NA,NA,NA,NA,NA,NA,NA,NA,NA,NA,NA,NA,NA
a6077,shallow,flow.Sequence,1_1_3_1,NA,NA,completion,9691.32,311483,311480.08,311496.76,321188.08,321193,2024-06-23T12:28:19Z,321204.74,"c(""distractor1"", ""distractor2"", ""distractor3"")",Kritik,lawama,s,dereva,nafasi,mawazo,NA,NA,NA,NA,NA,NA,NA,NA,NA,NA,NA,NA,NA,NA,NA,NA,NA,NA,NA,NA,NA,NA,NA
a6077,task,flow.Sequence,1_1_3,NA,NA,completion,9691.32,311482,311480.08,311496.76,321188.08,321193,2024-06-23T12:28:19Z,321204.74,"c(""distractor1"", ""distractor2"", ""distractor3"")",Kritik,lawama,s,dereva,nafasi,mawazo,NA,NA,NA,NA,NA,NA,NA,NA,NA,NA,NA,NA,NA,NA,NA,NA,NA,NA,NA,NA,NA,NA,NA
a6077,Deep Question,html.Page,1_1_4_0_0,NA,NA,form submission,3170.26,321193,321188.08,321204.74,324375,324375,2024-06-23T12:28:22Z,324390.58,"c(""distractor1"", ""distractor2"", ""distractor3"")",Schatten,kivuli,d,NA,NA,NA,gfhfhgfgh,NA,NA,NA,NA,NA,NA,NA,NA,NA,NA,NA,NA,NA,NA,NA,NA,NA,NA,NA,NA,NA,NA
a6077,"""Richtig""-Screen",canvas.Screen,1_1_4_0_1,NA,NA,skipped,NA,324377,NA,NA,324375,324377,2024-06-23T12:28:22Z,324390.58,"c(""distractor1"", ""distractor2"", ""distractor3"")",Schatten,kivuli,d,NA,NA,NA,NA,NA,NA,NA,NA,NA,NA,NA,NA,NA,NA,NA,NA,NA,NA,NA,NA,NA,NA,NA,NA,NA,NA
a6077,"""Falsch""-Screen",canvas.Screen,1_1_4_0_2,NA,NA,timeout,5004.16,324378,324374.04,324390.58,329378.08,329379,2024-06-23T12:28:27Z,329394.74,"c(""distractor1"", ""distractor2"", ""distractor3"")",Schatten,kivuli,d,NA,NA,NA,NA,NA,0,NA,NA,NA,NA,NA,NA,NA,NA,NA,NA,NA,NA,NA,NA,NA,NA,NA,NA,NA,NA
a6077,deep,flow.Sequence,1_1_4_0,NA,NA,completion,8173.34,321193,321188.08,321204.74,329378.08,329380,2024-06-23T12:28:27Z,329394.74,"c(""distractor1"", ""distractor2"", ""distractor3"")",Schatten,kivuli,d,NA,NA,NA,NA,NA,NA,NA,NA,NA,NA,NA,NA,NA,NA,NA,NA,NA,NA,NA,NA,NA,NA,NA,NA,NA,NA
a6077,shallow,flow.Sequence,1_1_4_1,NA,NA,skipped,NA,329380,NA,NA,329378.08,329380,2024-06-23T12:28:27Z,329394.74,"c(""distractor1"", ""distractor2"", ""distractor3"")",Schatten,kivuli,d,NA,NA,NA,NA,NA,NA,NA,NA,NA,NA,NA,NA,NA,NA,NA,NA,NA,NA,NA,NA,NA,NA,NA,NA,NA,NA
a6077,task,flow.Sequence,1_1_4,NA,NA,completion,8173.34,321193,321188.08,321204.74,329378.08,329380,2024-06-23T12:28:27Z,329394.74,"c(""distractor1"", ""distractor2"", ""distractor3"")",Schatten,kivuli,d,NA,NA,NA,NA,NA,NA,NA,NA,NA,NA,NA,NA,NA,NA,NA,NA,NA,NA,NA,NA,NA,NA,NA,NA,NA,NA
a6077,deep,flow.Sequence,1_1_5_0,NA,NA,skipped,NA,329380,NA,NA,329378.08,329380,2024-06-23T12:28:27Z,329394.74,"c(""distractor1"", ""distractor2"", ""distractor3"")",Gegenwart,hadhara,s,katiba,jokofu,mikopo,NA,NA,NA,NA,NA,NA,NA,NA,NA,NA,NA,NA,NA,NA,NA,NA,NA,NA,NA,NA,NA,NA,NA
a6077,Shallow Question,html.Page,1_1_5_1_0,NA,NA,form submission,5744.26,329380,329378.08,329394.74,335139,335139,2024-06-23T12:28:33Z,335149.42,"c(""distractor1"", ""distractor2"", ""distractor3"")",Gegenwart,hadhara,s,katiba,jokofu,mikopo,katiba,NA,NA,NA,NA,NA,NA,NA,NA,NA,NA,NA,NA,NA,NA,NA,NA,NA,NA,NA,NA,NA,NA
a6077,"""Richtig""-Screen",canvas.Screen,1_1_5_1_1,NA,NA,skipped,NA,335141,NA,NA,335139,335141,2024-06-23T12:28:33Z,335149.42,"c(""distractor1"", ""distractor2"", ""distractor3"")",Gegenwart,hadhara,s,katiba,jokofu,mikopo,NA,NA,NA,NA,NA,NA,NA,NA,NA,NA,NA,NA,NA,NA,NA,NA,NA,NA,NA,NA,NA,NA,NA
a6077,"""Falsch""-Screen",canvas.Screen,1_1_5_1_2,NA,NA,timeout,5004.18,335143,335135.78,335149.42,340136.92,340139,2024-06-23T12:28:38Z,340153.6,"c(""distractor1"", ""distractor2"", ""distractor3"")",Gegenwart,hadhara,s,katiba,jokofu,mikopo,NA,NA,0,NA,NA,NA,NA,NA,NA,NA,NA,NA,NA,NA,NA,NA,NA,NA,NA,NA,NA,NA,NA
a6077,shallow,flow.Sequence,1_1_5_1,NA,NA,completion,10742.18,329380,329378.08,329394.74,340136.92,340139,2024-06-23T12:28:38Z,340153.6,"c(""distractor1"", ""distractor2"", ""distractor3"")",Gegenwart,hadhara,s,katiba,jokofu,mikopo,NA,NA,NA,NA,NA,NA,NA,NA,NA,NA,NA,NA,NA,NA,NA,NA,NA,NA,NA,NA,NA,NA,NA
a6077,task,flow.Sequence,1_1_5,NA,NA,completion,10742.18,329380,329378.08,329394.74,340136.92,340139,2024-06-23T12:28:38Z,340153.6,"c(""distractor1"", ""distractor2"", ""distractor3"")",Gegenwart,hadhara,s,katiba,jokofu,mikopo,NA,NA,NA,NA,NA,NA,NA,NA,NA,NA,NA,NA,NA,NA,NA,NA,NA,NA,NA,NA,NA,NA,NA
a6077,block,flow.Loop,1_1,NA,NA,completion,100795.22,239340,239341.42,239341.7,340136.92,340139,2024-06-23T12:28:38Z,340153.6,"c(""distractor1"", ""distractor2"", ""distractor3"")",NA,NA,NA,NA,NA,NA,NA,NA,NA,NA,NA,NA,NA,NA,NA,NA,NA,NA,NA,NA,NA,NA,NA,NA,NA,NA,NA,NA,NA
a6077,Practice,flow.Sequence,1,NA,NA,completion,325862.52,14259,14259.1,14274.4,340136.92,340139,2024-06-23T12:28:38Z,340153.6,NULL,NA,NA,NA,NA,NA,NA,NA,NA,NA,NA,NA,NA,NA,NA,NA,NA,NA,NA,NA,NA,NA,NA,NA,NA,NA,NA,NA,NA,NA
a6077,Experiment start,canvas.Screen,2,weiter,keypress(q),response,56913.4,340139,340136.92,340153.6,397067,397084,2024-06-23T12:29:35Z,397161.56,NULL,NA,NA,NA,NA,NA,NA,NA,NA,NA,NA,NA,NA,NA,NA,NA,NA,NA,NA,NA,NA,NA,NA,NA,NA,NA,NA,NA,NA,NA
a6077,Deep Question,html.Page,3_0_0_0_0_0_0,NA,NA,form submission,4599.44,397161,397161.26,397161.56,401761,401761,2024-06-23T12:29:40Z,401760.56,NULL,Vorwurf,mashtaka,d,NA,NA,NA,gfsgugru,NA,NA,0,NA,NA,NA,NA,NA,NA,NA,NA,NA,NA,NA,NA,NA,NA,NA,NA,NA,NA,NA
a6077,"""Richtig""-Screen",canvas.Screen,3_0_0_0_0_0_1,NA,NA,skipped,NA,401763,NA,NA,401761,401763,2024-06-23T12:29:40Z,401760.56,NULL,Vorwurf,mashtaka,d,NA,NA,NA,NA,sdf,NA,0,NA,NA,NA,NA,NA,NA,NA,NA,NA,NA,NA,NA,NA,NA,NA,NA,NA,NA,NA
a6077,"""Falsch""-Screen",canvas.Screen,3_0_0_0_0_0_2,NA,NA,timeout,4998.14,401764,401760.18,401760.56,406742.02,406745,2024-06-23T12:29:45Z,406758.7,NULL,Vorwurf,mashtaka,d,NA,NA,NA,NA,sdf,0,0,NA,NA,NA,NA,NA,NA,NA,NA,NA,NA,NA,NA,NA,NA,NA,NA,NA,NA,NA
a6077,deep,flow.Sequence,3_0_0_0_0_0,NA,NA,completion,9580.46,397160,397161.26,397161.56,406742.02,406747,2024-06-23T12:29:45Z,406758.7,NULL,Vorwurf,mashtaka,d,NA,NA,NA,NA,sdf,NA,0,NA,NA,NA,NA,NA,NA,NA,NA,NA,NA,NA,NA,NA,NA,NA,NA,NA,NA,NA
a6077,shallow,flow.Sequence,3_0_0_0_0_1,NA,NA,skipped,NA,406747,NA,NA,406742.02,406747,2024-06-23T12:29:45Z,406758.7,NULL,Vorwurf,mashtaka,d,NA,NA,NA,NA,sdf,NA,0,NA,NA,NA,NA,NA,NA,NA,NA,NA,NA,NA,NA,NA,NA,NA,NA,NA,NA,NA
a6077,task,flow.Sequence,3_0_0_0_0,NA,NA,completion,9580.46,397160,397161.26,397161.56,406742.02,406747,2024-06-23T12:29:45Z,406758.7,NULL,Vorwurf,mashtaka,d,NA,NA,NA,NA,sdf,NA,0,NA,NA,NA,NA,NA,NA,NA,NA,NA,NA,NA,NA,NA,NA,NA,NA,NA,NA,NA
a6077,deep,flow.Sequence,3_0_0_0_1_0,NA,NA,skipped,NA,406748,NA,NA,406742.02,406748,2024-06-23T12:29:45Z,406758.7,NULL,Niveau,kiwango,s,usimamizi,mwamali,mshairi,NA,sdf,NA,0,NA,NA,NA,NA,NA,NA,NA,NA,NA,NA,NA,NA,NA,NA,NA,NA,NA,NA,NA
a6077,Shallow Question,html.Page,3_0_0_0_1_1_0,NA,NA,form submission,7193.3,406748,406742.02,406758.7,413952,413953,2024-06-23T12:29:52Z,413947.86,NULL,Niveau,kiwango,s,usimamizi,mwamali,mshairi,mwamali,NA,NA,0,NA,NA,NA,NA,NA,NA,NA,NA,NA,NA,NA,NA,NA,NA,NA,NA,NA,NA,NA
a6077,"""Richtig""-Screen",canvas.Screen,3_0_0_0_1_1_1,NA,NA,skipped,NA,413959,NA,NA,413952,413959,2024-06-23T12:29:52Z,413947.86,NULL,Niveau,kiwango,s,usimamizi,mwamali,mshairi,NA,sdf,NA,0,NA,NA,NA,NA,NA,NA,NA,NA,NA,NA,NA,NA,NA,NA,NA,NA,NA,NA,NA
a6077,"""Falsch""-Screen",canvas.Screen,3_0_0_0_1_1_2,NA,NA,timeout,5004.26,413961,413946.44,413947.86,418935.44,418937,2024-06-23T12:29:57Z,418952.12,NULL,Niveau,kiwango,s,usimamizi,mwamali,mshairi,NA,sdf,0,0,NA,NA,NA,NA,NA,NA,NA,NA,NA,NA,NA,NA,NA,NA,NA,NA,NA,NA,NA
a6077,shallow,flow.Sequence,3_0_0_0_1_1,NA,NA,completion,12176.74,406748,406742.02,406758.7,418935.44,418937,2024-06-23T12:29:57Z,418952.12,NULL,Niveau,kiwango,s,usimamizi,mwamali,mshairi,NA,sdf,NA,0,NA,NA,NA,NA,NA,NA,NA,NA,NA,NA,NA,NA,NA,NA,NA,NA,NA,NA,NA
a6077,task,flow.Sequence,3_0_0_0_1,NA,NA,completion,12176.74,406747,406742.02,406758.7,418935.44,418937,2024-06-23T12:29:57Z,418952.12,NULL,Niveau,kiwango,s,usimamizi,mwamali,mshairi,NA,sdf,NA,0,NA,NA,NA,NA,NA,NA,NA,NA,NA,NA,NA,NA,NA,NA,NA,NA,NA,NA,NA
a6077,deep,flow.Sequence,3_0_0_0_2_0,NA,NA,skipped,NA,418937,NA,NA,418935.44,418939,2024-06-23T12:29:57Z,418952.12,NULL,Papier,karatasi,s,uchambuzi,usalama,kukataliwa,NA,sdf,NA,0,NA,NA,NA,NA,NA,NA,NA,NA,NA,NA,NA,NA,NA,NA,NA,NA,NA,NA,NA
a6077,Shallow Question,html.Page,3_0_0_0_2_1_0,NA,NA,form submission,4530.88,418939,418935.44,418952.12,423483,423483,2024-06-23T12:30:01Z,423489.24,NULL,Papier,karatasi,s,uchambuzi,usalama,kukataliwa,kukataliwa,NA,NA,0,NA,NA,NA,NA,NA,NA,NA,NA,NA,NA,NA,NA,NA,NA,NA,NA,NA,NA,NA
a6077,"""Richtig""-Screen",canvas.Screen,3_0_0_0_2_1_1,NA,NA,skipped,NA,423484,NA,NA,423483,423484,2024-06-23T12:30:01Z,423489.24,NULL,Papier,karatasi,s,uchambuzi,usalama,kukataliwa,NA,sdf,NA,0,NA,NA,NA,NA,NA,NA,NA,NA,NA,NA,NA,NA,NA,NA,NA,NA,NA,NA,NA
a6077,"""Falsch""-Screen",canvas.Screen,3_0_0_0_2_1_2,NA,NA,timeout,5004.4,423486,423478.74,423489.24,428476.96,428478,2024-06-23T12:30:06Z,428493.64,NULL,Papier,karatasi,s,uchambuzi,usalama,kukataliwa,NA,sdf,0,0,NA,NA,NA,NA,NA,NA,NA,NA,NA,NA,NA,NA,NA,NA,NA,NA,NA,NA,NA
a6077,shallow,flow.Sequence,3_0_0_0_2_1,NA,NA,completion,9524.84,418939,418935.44,418952.12,428476.96,428478,2024-06-23T12:30:06Z,428493.64,NULL,Papier,karatasi,s,uchambuzi,usalama,kukataliwa,NA,sdf,NA,0,NA,NA,NA,NA,NA,NA,NA,NA,NA,NA,NA,NA,NA,NA,NA,NA,NA,NA,NA
a6077,task,flow.Sequence,3_0_0_0_2,NA,NA,completion,9524.84,418937,418935.44,418952.12,428476.96,428479,2024-06-23T12:30:06Z,428493.64,NULL,Papier,karatasi,s,uchambuzi,usalama,kukataliwa,NA,sdf,NA,0,NA,NA,NA,NA,NA,NA,NA,NA,NA,NA,NA,NA,NA,NA,NA,NA,NA,NA,NA
a6077,deep,flow.Sequence,3_0_0_0_3_0,NA,NA,skipped,NA,428479,NA,NA,428476.96,428479,2024-06-23T12:30:06Z,428493.64,NULL,Tester,wanaojaribu,s,sherti,sihiri,mlipuko,NA,sdf,NA,0,NA,NA,NA,NA,NA,NA,NA,NA,NA,NA,NA,NA,NA,NA,NA,NA,NA,NA,NA
a6077,Shallow Question,html.Page,3_0_0_0_3_1_0,NA,NA,form submission,4236.36,428479,428476.96,428493.64,432730,432730,2024-06-23T12:30:11Z,432730.24,NULL,Tester,wanaojaribu,s,sherti,sihiri,mlipuko,wanaojaribu,NA,NA,0,NA,NA,NA,NA,NA,NA,NA,NA,NA,NA,NA,NA,NA,NA,NA,NA,NA,NA,NA
a6077,"""Richtig""-Screen",canvas.Screen,3_0_0_0_3_1_1,NA,NA,timeout,5003.9,432732,432726.06,432730.24,437717.46,437720,2024-06-23T12:30:16Z,437734.14,NULL,Tester,wanaojaribu,s,sherti,sihiri,mlipuko,NA,sdf,1,0,NA,NA,NA,NA,NA,NA,NA,NA,NA,NA,NA,NA,NA,NA,NA,NA,NA,NA,NA
a6077,"""Falsch""-Screen",canvas.Screen,3_0_0_0_3_1_2,NA,NA,skipped,NA,437722,NA,NA,437717.46,437722,2024-06-23T12:30:16Z,437734.14,NULL,Tester,wanaojaribu,s,sherti,sihiri,mlipuko,NA,sdf,NA,0,NA,NA,NA,NA,NA,NA,NA,NA,NA,NA,NA,NA,NA,NA,NA,NA,NA,NA,NA
a6077,shallow,flow.Sequence,3_0_0_0_3_1,NA,NA,completion,9223.82,428479,428476.96,428493.64,437717.46,437722,2024-06-23T12:30:16Z,437734.14,NULL,Tester,wanaojaribu,s,sherti,sihiri,mlipuko,NA,sdf,NA,0,NA,NA,NA,NA,NA,NA,NA,NA,NA,NA,NA,NA,NA,NA,NA,NA,NA,NA,NA
a6077,task,flow.Sequence,3_0_0_0_3,NA,NA,completion,9223.82,428479,428476.96,428493.64,437717.46,437722,2024-06-23T12:30:16Z,437734.14,NULL,Tester,wanaojaribu,s,sherti,sihiri,mlipuko,NA,sdf,NA,0,NA,NA,NA,NA,NA,NA,NA,NA,NA,NA,NA,NA,NA,NA,NA,NA,NA,NA,NA
a6077,Deep Question,html.Page,3_0_0_0_4_0_0,NA,NA,form submission,9173.86,437722,437717.46,437734.14,446908,446908,2024-06-23T12:30:25Z,446908.38,NULL,Entwicklung,maendeleo,d,NA,NA,NA,mashtaka,NA,NA,0,NA,NA,NA,NA,NA,NA,NA,NA,NA,NA,NA,NA,NA,NA,NA,NA,NA,NA,NA
a6077,"""Richtig""-Screen",canvas.Screen,3_0_0_0_4_0_1,NA,NA,skipped,NA,446910,NA,NA,446908,446910,2024-06-23T12:30:25Z,446908.38,NULL,Entwicklung,maendeleo,d,NA,NA,NA,NA,sdf,NA,0,NA,NA,NA,NA,NA,NA,NA,NA,NA,NA,NA,NA,NA,NA,NA,NA,NA,NA,NA
a6077,"""Falsch""-Screen",canvas.Screen,3_0_0_0_4_0_2,NA,NA,timeout,5003.86,446911,446906.76,446908.38,451895.58,451897,2024-06-23T12:30:30Z,451912.24,NULL,Entwicklung,maendeleo,d,NA,NA,NA,NA,sdf,0,0,NA,NA,NA,NA,NA,NA,NA,NA,NA,NA,NA,NA,NA,NA,NA,NA,NA,NA,NA
a6077,deep,flow.Sequence,3_0_0_0_4_0,NA,NA,completion,14161.44,437722,437717.46,437734.14,451895.58,451898,2024-06-23T12:30:30Z,451912.24,NULL,Entwicklung,maendeleo,d,NA,NA,NA,NA,sdf,NA,0,NA,NA,NA,NA,NA,NA,NA,NA,NA,NA,NA,NA,NA,NA,NA,NA,NA,NA,NA
a6077,shallow,flow.Sequence,3_0_0_0_4_1,NA,NA,skipped,NA,451898,NA,NA,451895.58,451898,2024-06-23T12:30:30Z,451912.24,NULL,Entwicklung,maendeleo,d,NA,NA,NA,NA,sdf,NA,0,NA,NA,NA,NA,NA,NA,NA,NA,NA,NA,NA,NA,NA,NA,NA,NA,NA,NA,NA
a6077,task,flow.Sequence,3_0_0_0_4,NA,NA,completion,14161.44,437722,437717.46,437734.14,451895.58,451898,2024-06-23T12:30:30Z,451912.24,NULL,Entwicklung,maendeleo,d,NA,NA,NA,NA,sdf,NA,0,NA,NA,NA,NA,NA,NA,NA,NA,NA,NA,NA,NA,NA,NA,NA,NA,NA,NA,NA
a6077,Deep Question,html.Page,3_0_0_0_5_0_0,NA,NA,form submission,4069.76,451898,451895.58,451912.24,455982,455982,2024-06-23T12:30:34Z,455982.68,NULL,Fenster,dirisha,d,NA,NA,NA,mashtaka,NA,NA,0,NA,NA,NA,NA,NA,NA,NA,NA,NA,NA,NA,NA,NA,NA,NA,NA,NA,NA,NA
a6077,"""Richtig""-Screen",canvas.Screen,3_0_0_0_5_0_1,NA,NA,skipped,NA,455984,NA,NA,455982,455985,2024-06-23T12:30:34Z,455982.68,NULL,Fenster,dirisha,d,NA,NA,NA,NA,sdf,NA,0,NA,NA,NA,NA,NA,NA,NA,NA,NA,NA,NA,NA,NA,NA,NA,NA,NA,NA,NA
a6077,"""Falsch""-Screen",canvas.Screen,3_0_0_0_5_0_2,NA,NA,timeout,5003.88,455986,455980.6,455982.68,460969.88,460971,2024-06-23T12:30:39Z,460986.56,NULL,Fenster,dirisha,d,NA,NA,NA,NA,sdf,0,0,NA,NA,NA,NA,NA,NA,NA,NA,NA,NA,NA,NA,NA,NA,NA,NA,NA,NA,NA
a6077,deep,flow.Sequence,3_0_0_0_5_0,NA,NA,completion,9057.64,451898,451895.58,451912.24,460969.88,460972,2024-06-23T12:30:39Z,460986.56,NULL,Fenster,dirisha,d,NA,NA,NA,NA,sdf,NA,0,NA,NA,NA,NA,NA,NA,NA,NA,NA,NA,NA,NA,NA,NA,NA,NA,NA,NA,NA
a6077,shallow,flow.Sequence,3_0_0_0_5_1,NA,NA,skipped,NA,460972,NA,NA,460969.88,460972,2024-06-23T12:30:39Z,460986.56,NULL,Fenster,dirisha,d,NA,NA,NA,NA,sdf,NA,0,NA,NA,NA,NA,NA,NA,NA,NA,NA,NA,NA,NA,NA,NA,NA,NA,NA,NA,NA
a6077,task,flow.Sequence,3_0_0_0_5,NA,NA,completion,9057.64,451898,451895.58,451912.24,460969.88,460972,2024-06-23T12:30:39Z,460986.56,NULL,Fenster,dirisha,d,NA,NA,NA,NA,sdf,NA,0,NA,NA,NA,NA,NA,NA,NA,NA,NA,NA,NA,NA,NA,NA,NA,NA,NA,NA,NA
a6077,deep,flow.Sequence,3_0_0_0_6_0,NA,NA,skipped,NA,460972,NA,NA,460969.88,460972,2024-06-23T12:30:39Z,460986.56,NULL,Schüler,mwanafunzi,s,mwekezaji,matumizi,uaminifu,NA,sdf,NA,0,NA,NA,NA,NA,NA,NA,NA,NA,NA,NA,NA,NA,NA,NA,NA,NA,NA,NA,NA
a6077,Shallow Question,html.Page,3_0_0_0_6_1_0,NA,NA,form submission,5825.44,460972,460969.88,460986.56,466812,466814,2024-06-23T12:30:45Z,466807.64,NULL,Schüler,mwanafunzi,s,mwekezaji,matumizi,uaminifu,mwekezaji,NA,NA,0,NA,NA,NA,NA,NA,NA,NA,NA,NA,NA,NA,NA,NA,NA,NA,NA,NA,NA,NA
a6077,"""Richtig""-Screen",canvas.Screen,3_0_0_0_6_1_1,NA,NA,skipped,NA,466820,NA,NA,466812,466820,2024-06-23T12:30:45Z,466807.64,NULL,Schüler,mwanafunzi,s,mwekezaji,matumizi,uaminifu,NA,sdf,NA,0,NA,NA,NA,NA,NA,NA,NA,NA,NA,NA,NA,NA,NA,NA,NA,NA,NA,NA,NA
a6077,"""Falsch""-Screen",canvas.Screen,3_0_0_0_6_1_2,NA,NA,timeout,5004.84,466823,466806.78,466807.64,471795.8,471798,2024-06-23T12:30:50Z,471812.48,NULL,Schüler,mwanafunzi,s,mwekezaji,matumizi,uaminifu,NA,sdf,0,0,NA,NA,NA,NA,NA,NA,NA,NA,NA,NA,NA,NA,NA,NA,NA,NA,NA,NA,NA
a6077,shallow,flow.Sequence,3_0_0_0_6_1,NA,NA,completion,10809.24,460972,460969.88,460986.56,471795.8,471798,2024-06-23T12:30:50Z,471812.48,NULL,Schüler,mwanafunzi,s,mwekezaji,matumizi,uaminifu,NA,sdf,NA,0,NA,NA,NA,NA,NA,NA,NA,NA,NA,NA,NA,NA,NA,NA,NA,NA,NA,NA,NA
a6077,task,flow.Sequence,3_0_0_0_6,NA,NA,completion,10809.24,460972,460969.88,460986.56,471795.8,471798,2024-06-23T12:30:50Z,471812.48,NULL,Schüler,mwanafunzi,s,mwekezaji,matumizi,uaminifu,NA,sdf,NA,0,NA,NA,NA,NA,NA,NA,NA,NA,NA,NA,NA,NA,NA,NA,NA,NA,NA,NA,NA
a6077,Deep Question,html.Page,3_0_0_0_7_0_0,NA,NA,form submission,6046.52,471798,471795.8,471812.48,477859,477859,2024-06-23T12:30:56Z,477866.9,NULL,Spionage,upelelezi,d,NA,NA,NA,mashtaka,NA,NA,0,NA,NA,NA,NA,NA,NA,NA,NA,NA,NA,NA,NA,NA,NA,NA,NA,NA,NA,NA
a6077,"""Richtig""-Screen",canvas.Screen,3_0_0_0_7_0_1,NA,NA,skipped,NA,477861,NA,NA,477859,477861,2024-06-23T12:30:56Z,477866.9,NULL,Spionage,upelelezi,d,NA,NA,NA,NA,sdf,NA,0,NA,NA,NA,NA,NA,NA,NA,NA,NA,NA,NA,NA,NA,NA,NA,NA,NA,NA,NA
a6077,"""Falsch""-Screen",canvas.Screen,3_0_0_0_7_0_2,NA,NA,timeout,5004.86,477863,477857.44,477866.9,482855.08,482857,2024-06-23T12:31:01Z,482871.76,NULL,Spionage,upelelezi,d,NA,NA,NA,NA,sdf,0,0,NA,NA,NA,NA,NA,NA,NA,NA,NA,NA,NA,NA,NA,NA,NA,NA,NA,NA,NA
a6077,deep,flow.Sequence,3_0_0_0_7_0,NA,NA,completion,11042.6,471798,471795.8,471812.48,482855.08,482857,2024-06-23T12:31:01Z,482871.76,NULL,Spionage,upelelezi,d,NA,NA,NA,NA,sdf,NA,0,NA,NA,NA,NA,NA,NA,NA,NA,NA,NA,NA,NA,NA,NA,NA,NA,NA,NA,NA
a6077,shallow,flow.Sequence,3_0_0_0_7_1,NA,NA,skipped,NA,482858,NA,NA,482855.08,482858,2024-06-23T12:31:01Z,482871.76,NULL,Spionage,upelelezi,d,NA,NA,NA,NA,sdf,NA,0,NA,NA,NA,NA,NA,NA,NA,NA,NA,NA,NA,NA,NA,NA,NA,NA,NA,NA,NA
a6077,task,flow.Sequence,3_0_0_0_7,NA,NA,completion,11042.6,471798,471795.8,471812.48,482855.08,482858,2024-06-23T12:31:01Z,482871.76,NULL,Spionage,upelelezi,d,NA,NA,NA,NA,sdf,NA,0,NA,NA,NA,NA,NA,NA,NA,NA,NA,NA,NA,NA,NA,NA,NA,NA,NA,NA,NA
a6077,block,flow.Loop,3_0_0_0,NA,NA,completion,85693.52,397160,397161.26,397161.56,482855.08,482859,2024-06-23T12:31:01Z,482871.76,NULL,NA,NA,NA,NA,NA,NA,NA,sdf,NA,0,NA,NA,NA,NA,NA,NA,NA,NA,NA,NA,NA,NA,NA,NA,NA,NA,NA,NA,NA
a6077,weiter,canvas.Screen,3_0_0_1,sdf,keypress(Space),response,1022.24,482859,482855.08,482871.76,483894,483909,2024-06-23T12:31:02Z,483955.34,NULL,NA,NA,NA,NA,NA,NA,NA,sdf,NA,0,NA,NA,NA,NA,NA,NA,NA,NA,NA,NA,NA,NA,NA,NA,NA,NA,NA,NA,NA
a6077,check continue,flow.Sequence,3_0_0,NA,NA,completion,86732.44,397160,397161.26,397161.56,483894,483910,2024-06-23T12:31:02Z,483955.34,NULL,NA,NA,NA,NA,NA,NA,NA,sdf,NA,0,NA,NA,NA,NA,NA,NA,NA,NA,NA,NA,NA,NA,NA,NA,NA,NA,NA,NA,NA
a6077,Deep Question,html.Page,3_0_1_0_0_0_0,NA,NA,form submission,4700.66,483955,483954.86,483955.34,488656,488656,2024-06-23T12:31:06Z,488659.92,NULL,Spionage,upelelezi,d,NA,NA,NA,mashtaka,NA,NA,1,NA,NA,NA,NA,NA,NA,NA,NA,NA,NA,NA,NA,NA,NA,NA,NA,NA,NA,NA
a6077,"""Richtig""-Screen",canvas.Screen,3_0_1_0_0_0_1,NA,NA,skipped,NA,488658,NA,NA,488656,488658,2024-06-23T12:31:06Z,488659.92,NULL,Spionage,upelelezi,d,NA,NA,NA,NA,sdfdsf,NA,1,NA,NA,NA,NA,NA,NA,NA,NA,NA,NA,NA,NA,NA,NA,NA,NA,NA,NA,NA
a6077,"""Falsch""-Screen",canvas.Screen,3_0_1_0_0_0_2,NA,NA,timeout,5004.24,488659,488654.32,488659.92,493647.48,493649,2024-06-23T12:31:11Z,493664.16,NULL,Spionage,upelelezi,d,NA,NA,NA,NA,sdfdsf,0,1,NA,NA,NA,NA,NA,NA,NA,NA,NA,NA,NA,NA,NA,NA,NA,NA,NA,NA,NA
a6077,deep,flow.Sequence,3_0_1_0_0_0,NA,NA,completion,9692.14,483955,483954.86,483955.34,493647.48,493650,2024-06-23T12:31:11Z,493664.16,NULL,Spionage,upelelezi,d,NA,NA,NA,NA,sdfdsf,NA,1,NA,NA,NA,NA,NA,NA,NA,NA,NA,NA,NA,NA,NA,NA,NA,NA,NA,NA,NA
a6077,shallow,flow.Sequence,3_0_1_0_0_1,NA,NA,skipped,NA,493650,NA,NA,493647.48,493650,2024-06-23T12:31:11Z,493664.16,NULL,Spionage,upelelezi,d,NA,NA,NA,NA,sdfdsf,NA,1,NA,NA,NA,NA,NA,NA,NA,NA,NA,NA,NA,NA,NA,NA,NA,NA,NA,NA,NA
a6077,task,flow.Sequence,3_0_1_0_0,NA,NA,completion,9692.14,483955,483954.86,483955.34,493647.48,493651,2024-06-23T12:31:11Z,493664.16,NULL,Spionage,upelelezi,d,NA,NA,NA,NA,sdfdsf,NA,1,NA,NA,NA,NA,NA,NA,NA,NA,NA,NA,NA,NA,NA,NA,NA,NA,NA,NA,NA
a6077,Deep Question,html.Page,3_0_1_0_1_0_0,NA,NA,form submission,4404.84,493651,493647.48,493664.16,498069,498070,2024-06-23T12:31:16Z,498084.3,NULL,Fenster,dirisha,d,NA,NA,NA,fvhjsf,NA,NA,1,NA,NA,NA,NA,NA,NA,NA,NA,NA,NA,NA,NA,NA,NA,NA,NA,NA,NA,NA
a6077,"""Richtig""-Screen",canvas.Screen,3_0_1_0_1_0_1,NA,NA,skipped,NA,498071,NA,NA,498069,498071,2024-06-23T12:31:16Z,498084.3,NULL,Fenster,dirisha,d,NA,NA,NA,NA,sdfdsf,NA,1,NA,NA,NA,NA,NA,NA,NA,NA,NA,NA,NA,NA,NA,NA,NA,NA,NA,NA,NA
a6077,"""Falsch""-Screen",canvas.Screen,3_0_1_0_1_0_2,NA,NA,timeout,5003.64,498072,498067.8,498084.3,503071.24,503073,2024-06-23T12:31:21Z,503087.94,NULL,Fenster,dirisha,d,NA,NA,NA,NA,sdfdsf,0,1,NA,NA,NA,NA,NA,NA,NA,NA,NA,NA,NA,NA,NA,NA,NA,NA,NA,NA,NA
a6077,deep,flow.Sequence,3_0_1_0_1_0,NA,NA,completion,9407.08,493651,493647.48,493664.16,503071.24,503073,2024-06-23T12:31:21Z,503087.94,NULL,Fenster,dirisha,d,NA,NA,NA,NA,sdfdsf,NA,1,NA,NA,NA,NA,NA,NA,NA,NA,NA,NA,NA,NA,NA,NA,NA,NA,NA,NA,NA
a6077,shallow,flow.Sequence,3_0_1_0_1_1,NA,NA,skipped,NA,503073,NA,NA,503071.24,503073,2024-06-23T12:31:21Z,503087.94,NULL,Fenster,dirisha,d,NA,NA,NA,NA,sdfdsf,NA,1,NA,NA,NA,NA,NA,NA,NA,NA,NA,NA,NA,NA,NA,NA,NA,NA,NA,NA,NA
a6077,task,flow.Sequence,3_0_1_0_1,NA,NA,completion,9407.08,493651,493647.48,493664.16,503071.24,503073,2024-06-23T12:31:21Z,503087.94,NULL,Fenster,dirisha,d,NA,NA,NA,NA,sdfdsf,NA,1,NA,NA,NA,NA,NA,NA,NA,NA,NA,NA,NA,NA,NA,NA,NA,NA,NA,NA,NA
a6077,deep,flow.Sequence,3_0_1_0_2_0,NA,NA,skipped,NA,503073,NA,NA,503071.24,503074,2024-06-23T12:31:21Z,503087.94,NULL,Niveau,kiwango,s,usimamizi,mwamali,mshairi,NA,sdfdsf,NA,1,NA,NA,NA,NA,NA,NA,NA,NA,NA,NA,NA,NA,NA,NA,NA,NA,NA,NA,NA
a6077,Shallow Question,html.Page,3_0_1_0_2_1_0,NA,NA,form submission,5273.06,503075,503071.24,503087.94,508361,508361,2024-06-23T12:31:26Z,508374.18,NULL,Niveau,kiwango,s,usimamizi,mwamali,mshairi,kiwango,NA,NA,1,NA,NA,NA,NA,NA,NA,NA,NA,NA,NA,NA,NA,NA,NA,NA,NA,NA,NA,NA
a6077,"""Richtig""-Screen",canvas.Screen,3_0_1_0_2_1_1,NA,NA,timeout,5005.7,508363,508357.76,508374.18,513363.2,513365,2024-06-23T12:31:31Z,513379.88,NULL,Niveau,kiwango,s,usimamizi,mwamali,mshairi,NA,sdfdsf,1,1,NA,NA,NA,NA,NA,NA,NA,NA,NA,NA,NA,NA,NA,NA,NA,NA,NA,NA,NA
a6077,"""Falsch""-Screen",canvas.Screen,3_0_1_0_2_1_2,NA,NA,skipped,NA,513367,NA,NA,513363.2,513367,2024-06-23T12:31:31Z,513379.88,NULL,Niveau,kiwango,s,usimamizi,mwamali,mshairi,NA,sdfdsf,NA,1,NA,NA,NA,NA,NA,NA,NA,NA,NA,NA,NA,NA,NA,NA,NA,NA,NA,NA,NA
a6077,shallow,flow.Sequence,3_0_1_0_2_1,NA,NA,completion,10275.26,503075,503071.24,503087.94,513363.2,513368,2024-06-23T12:31:31Z,513379.88,NULL,Niveau,kiwango,s,usimamizi,mwamali,mshairi,NA,sdfdsf,NA,1,NA,NA,NA,NA,NA,NA,NA,NA,NA,NA,NA,NA,NA,NA,NA,NA,NA,NA,NA
a6077,task,flow.Sequence,3_0_1_0_2,NA,NA,completion,10275.26,503073,503071.24,503087.94,513363.2,513368,2024-06-23T12:31:31Z,513379.88,NULL,Niveau,kiwango,s,usimamizi,mwamali,mshairi,NA,sdfdsf,NA,1,NA,NA,NA,NA,NA,NA,NA,NA,NA,NA,NA,NA,NA,NA,NA,NA,NA,NA,NA
a6077,deep,flow.Sequence,3_0_1_0_3_0,NA,NA,skipped,NA,513368,NA,NA,513363.2,513368,2024-06-23T12:31:31Z,513379.88,NULL,Papier,karatasi,s,uchambuzi,usalama,kukataliwa,NA,sdfdsf,NA,1,NA,NA,NA,NA,NA,NA,NA,NA,NA,NA,NA,NA,NA,NA,NA,NA,NA,NA,NA
a6077,Shallow Question,html.Page,3_0_1_0_3_1_0,NA,NA,form submission,5136.12,513368,513363.2,513379.88,518516,518516,2024-06-23T12:31:36Z,518517.92,NULL,Papier,karatasi,s,uchambuzi,usalama,kukataliwa,karatasi,NA,NA,1,NA,NA,NA,NA,NA,NA,NA,NA,NA,NA,NA,NA,NA,NA,NA,NA,NA,NA,NA
a6077,"""Richtig""-Screen",canvas.Screen,3_0_1_0_3_1_1,NA,NA,timeout,5007.6,518517,518512.88,518517.92,523504.76,523507,2024-06-23T12:31:41Z,523525.52,NULL,Papier,karatasi,s,uchambuzi,usalama,kukataliwa,NA,sdfdsf,1,1,NA,NA,NA,NA,NA,NA,NA,NA,NA,NA,NA,NA,NA,NA,NA,NA,NA,NA,NA
a6077,"""Falsch""-Screen",canvas.Screen,3_0_1_0_3_1_2,NA,NA,skipped,NA,523510,NA,NA,523504.76,523510,2024-06-23T12:31:41Z,523525.52,NULL,Papier,karatasi,s,uchambuzi,usalama,kukataliwa,NA,sdfdsf,NA,1,NA,NA,NA,NA,NA,NA,NA,NA,NA,NA,NA,NA,NA,NA,NA,NA,NA,NA,NA
a6077,shallow,flow.Sequence,3_0_1_0_3_1,NA,NA,completion,10124.88,513368,513363.2,513379.88,523504.76,523511,2024-06-23T12:31:41Z,523525.52,NULL,Papier,karatasi,s,uchambuzi,usalama,kukataliwa,NA,sdfdsf,NA,1,NA,NA,NA,NA,NA,NA,NA,NA,NA,NA,NA,NA,NA,NA,NA,NA,NA,NA,NA
a6077,task,flow.Sequence,3_0_1_0_3,NA,NA,completion,10124.88,513368,513363.2,513379.88,523504.76,523511,2024-06-23T12:31:41Z,523525.52,NULL,Papier,karatasi,s,uchambuzi,usalama,kukataliwa,NA,sdfdsf,NA,1,NA,NA,NA,NA,NA,NA,NA,NA,NA,NA,NA,NA,NA,NA,NA,NA,NA,NA,NA
a6077,deep,flow.Sequence,3_0_1_0_4_0,NA,NA,skipped,NA,523511,NA,NA,523504.76,523511,2024-06-23T12:31:41Z,523525.52,NULL,Schüler,mwanafunzi,s,mwekezaji,matumizi,uaminifu,NA,sdfdsf,NA,1,NA,NA,NA,NA,NA,NA,NA,NA,NA,NA,NA,NA,NA,NA,NA,NA,NA,NA,NA
a6077,Shallow Question,html.Page,3_0_1_0_4_1_0,NA,NA,form submission,5628.48,523511,523504.76,523525.52,529154,529156,2024-06-23T12:31:47Z,529159.9,NULL,Schüler,mwanafunzi,s,mwekezaji,matumizi,uaminifu,mwanafunzi,NA,NA,1,NA,NA,NA,NA,NA,NA,NA,NA,NA,NA,NA,NA,NA,NA,NA,NA,NA,NA,NA
a6077,"""Richtig""-Screen",canvas.Screen,3_0_1_0_4_1_1,NA,NA,timeout,5003.7,529162,529148.82,529159.9,534146.92,534152,2024-06-23T12:31:52Z,534163.6,NULL,Schüler,mwanafunzi,s,mwekezaji,matumizi,uaminifu,NA,sdfdsf,1,1,NA,NA,NA,NA,NA,NA,NA,NA,NA,NA,NA,NA,NA,NA,NA,NA,NA,NA,NA
a6077,"""Falsch""-Screen",canvas.Screen,3_0_1_0_4_1_2,NA,NA,skipped,NA,534161,NA,NA,534146.92,534161,2024-06-23T12:31:52Z,534163.6,NULL,Schüler,mwanafunzi,s,mwekezaji,matumizi,uaminifu,NA,sdfdsf,NA,1,NA,NA,NA,NA,NA,NA,NA,NA,NA,NA,NA,NA,NA,NA,NA,NA,NA,NA,NA
a6077,shallow,flow.Sequence,3_0_1_0_4_1,NA,NA,completion,10621.4,523511,523504.76,523525.52,534146.92,534162,2024-06-23T12:31:52Z,534163.6,NULL,Schüler,mwanafunzi,s,mwekezaji,matumizi,uaminifu,NA,sdfdsf,NA,1,NA,NA,NA,NA,NA,NA,NA,NA,NA,NA,NA,NA,NA,NA,NA,NA,NA,NA,NA
a6077,task,flow.Sequence,3_0_1_0_4,NA,NA,completion,10621.4,523511,523504.76,523525.52,534146.92,534162,2024-06-23T12:31:52Z,534163.6,NULL,Schüler,mwanafunzi,s,mwekezaji,matumizi,uaminifu,NA,sdfdsf,NA,1,NA,NA,NA,NA,NA,NA,NA,NA,NA,NA,NA,NA,NA,NA,NA,NA,NA,NA,NA
a6077,Deep Question,html.Page,3_0_1_0_5_0_0,NA,NA,form submission,6988.4,534162,534146.92,534163.6,541152,541153,2024-06-23T12:31:59Z,541151.96,NULL,Entwicklung,maendeleo,d,NA,NA,NA,mashtaka,NA,NA,1,NA,NA,NA,NA,NA,NA,NA,NA,NA,NA,NA,NA,NA,NA,NA,NA,NA,NA,NA
a6077,"""Richtig""-Screen",canvas.Screen,3_0_1_0_5_0_1,NA,NA,skipped,NA,541154,NA,NA,541152,541154,2024-06-23T12:31:59Z,541151.96,NULL,Entwicklung,maendeleo,d,NA,NA,NA,NA,sdfdsf,NA,1,NA,NA,NA,NA,NA,NA,NA,NA,NA,NA,NA,NA,NA,NA,NA,NA,NA,NA,NA
a6077,"""Falsch""-Screen",canvas.Screen,3_0_1_0_5_0_2,NA,NA,timeout,5005.64,541156,541151.38,541151.96,546140.92,546142,2024-06-23T12:32:04Z,546157.6,NULL,Entwicklung,maendeleo,d,NA,NA,NA,NA,sdfdsf,0,1,NA,NA,NA,NA,NA,NA,NA,NA,NA,NA,NA,NA,NA,NA,NA,NA,NA,NA,NA
a6077,deep,flow.Sequence,3_0_1_0_5_0,NA,NA,completion,11977.32,534162,534146.92,534163.6,546140.92,546143,2024-06-23T12:32:04Z,546157.6,NULL,Entwicklung,maendeleo,d,NA,NA,NA,NA,sdfdsf,NA,1,NA,NA,NA,NA,NA,NA,NA,NA,NA,NA,NA,NA,NA,NA,NA,NA,NA,NA,NA
a6077,shallow,flow.Sequence,3_0_1_0_5_1,NA,NA,skipped,NA,546143,NA,NA,546140.92,546143,2024-06-23T12:32:04Z,546157.6,NULL,Entwicklung,maendeleo,d,NA,NA,NA,NA,sdfdsf,NA,1,NA,NA,NA,NA,NA,NA,NA,NA,NA,NA,NA,NA,NA,NA,NA,NA,NA,NA,NA
a6077,task,flow.Sequence,3_0_1_0_5,NA,NA,completion,11977.32,534162,534146.92,534163.6,546140.92,546143,2024-06-23T12:32:04Z,546157.6,NULL,Entwicklung,maendeleo,d,NA,NA,NA,NA,sdfdsf,NA,1,NA,NA,NA,NA,NA,NA,NA,NA,NA,NA,NA,NA,NA,NA,NA,NA,NA,NA,NA
a6077,deep,flow.Sequence,3_0_1_0_6_0,NA,NA,skipped,NA,546144,NA,NA,546140.92,546144,2024-06-23T12:32:04Z,546157.6,NULL,Tester,wanaojaribu,s,sherti,sihiri,mlipuko,NA,sdfdsf,NA,1,NA,NA,NA,NA,NA,NA,NA,NA,NA,NA,NA,NA,NA,NA,NA,NA,NA,NA,NA
a6077,Shallow Question,html.Page,3_0_1_0_6_1_0,NA,NA,form submission,5247.4,546144,546140.92,546157.6,551405,551406,2024-06-23T12:32:09Z,551411.96,NULL,Tester,wanaojaribu,s,sherti,sihiri,mlipuko,wanaojaribu,NA,NA,1,NA,NA,NA,NA,NA,NA,NA,NA,NA,NA,NA,NA,NA,NA,NA,NA,NA,NA,NA
a6077,"""Richtig""-Screen",canvas.Screen,3_0_1_0_6_1_1,NA,NA,timeout,5003.66,551407,551401.4,551411.96,556398.94,556401,2024-06-23T12:32:14Z,556415.62,NULL,Tester,wanaojaribu,s,sherti,sihiri,mlipuko,NA,sdfdsf,1,1,NA,NA,NA,NA,NA,NA,NA,NA,NA,NA,NA,NA,NA,NA,NA,NA,NA,NA,NA
a6077,"""Falsch""-Screen",canvas.Screen,3_0_1_0_6_1_2,NA,NA,skipped,NA,556404,NA,NA,556398.94,556404,2024-06-23T12:32:14Z,556415.62,NULL,Tester,wanaojaribu,s,sherti,sihiri,mlipuko,NA,sdfdsf,NA,1,NA,NA,NA,NA,NA,NA,NA,NA,NA,NA,NA,NA,NA,NA,NA,NA,NA,NA,NA
a6077,shallow,flow.Sequence,3_0_1_0_6_1,NA,NA,completion,10241.34,546144,546140.92,546157.6,556398.94,556405,2024-06-23T12:32:14Z,556415.62,NULL,Tester,wanaojaribu,s,sherti,sihiri,mlipuko,NA,sdfdsf,NA,1,NA,NA,NA,NA,NA,NA,NA,NA,NA,NA,NA,NA,NA,NA,NA,NA,NA,NA,NA
a6077,task,flow.Sequence,3_0_1_0_6,NA,NA,completion,10241.34,546144,546140.92,546157.6,556398.94,556406,2024-06-23T12:32:14Z,556415.62,NULL,Tester,wanaojaribu,s,sherti,sihiri,mlipuko,NA,sdfdsf,NA,1,NA,NA,NA,NA,NA,NA,NA,NA,NA,NA,NA,NA,NA,NA,NA,NA,NA,NA,NA
a6077,Deep Question,html.Page,3_0_1_0_7_0_0,NA,NA,form submission,4918.38,556406,556398.94,556415.62,561334,561334,2024-06-23T12:32:19Z,561336.6,NULL,Vorwurf,mashtaka,d,NA,NA,NA,mashtaka,NA,NA,1,NA,NA,NA,NA,NA,NA,NA,NA,NA,NA,NA,NA,NA,NA,NA,NA,NA,NA,NA
a6077,"""Richtig""-Screen",canvas.Screen,3_0_1_0_7_0_1,NA,NA,timeout,5003.28,561335,561332.24,561336.6,566323.22,566326,2024-06-23T12:32:24Z,566339.88,NULL,Vorwurf,mashtaka,d,NA,NA,NA,NA,sdfdsf,1,1,NA,NA,NA,NA,NA,NA,NA,NA,NA,NA,NA,NA,NA,NA,NA,NA,NA,NA,NA
a6077,"""Falsch""-Screen",canvas.Screen,3_0_1_0_7_0_2,NA,NA,skipped,NA,566328,NA,NA,566323.22,566328,2024-06-23T12:32:24Z,566339.88,NULL,Vorwurf,mashtaka,d,NA,NA,NA,NA,sdfdsf,NA,1,NA,NA,NA,NA,NA,NA,NA,NA,NA,NA,NA,NA,NA,NA,NA,NA,NA,NA,NA
a6077,deep,flow.Sequence,3_0_1_0_7_0,NA,NA,completion,9907.6,556406,556398.94,556415.62,566323.22,566329,2024-06-23T12:32:24Z,566339.88,NULL,Vorwurf,mashtaka,d,NA,NA,NA,NA,sdfdsf,NA,1,NA,NA,NA,NA,NA,NA,NA,NA,NA,NA,NA,NA,NA,NA,NA,NA,NA,NA,NA
a6077,shallow,flow.Sequence,3_0_1_0_7_1,NA,NA,skipped,NA,566329,NA,NA,566323.22,566329,2024-06-23T12:32:24Z,566339.88,NULL,Vorwurf,mashtaka,d,NA,NA,NA,NA,sdfdsf,NA,1,NA,NA,NA,NA,NA,NA,NA,NA,NA,NA,NA,NA,NA,NA,NA,NA,NA,NA,NA
a6077,task,flow.Sequence,3_0_1_0_7,NA,NA,completion,9907.6,556406,556398.94,556415.62,566323.22,566329,2024-06-23T12:32:24Z,566339.88,NULL,Vorwurf,mashtaka,d,NA,NA,NA,NA,sdfdsf,NA,1,NA,NA,NA,NA,NA,NA,NA,NA,NA,NA,NA,NA,NA,NA,NA,NA,NA,NA,NA
a6077,block,flow.Loop,3_0_1_0,NA,NA,completion,82367.88,483955,483954.86,483955.34,566323.22,566331,2024-06-23T12:32:24Z,566339.88,NULL,NA,NA,NA,NA,NA,NA,NA,sdfdsf,NA,1,NA,NA,NA,NA,NA,NA,NA,NA,NA,NA,NA,NA,NA,NA,NA,NA,NA,NA,NA
a6077,weiter,canvas.Screen,3_0_1_1,sdf,keypress(Space),response,866.12,566331,566323.22,566339.88,567206,567214,2024-06-23T12:32:25Z,567267.04,NULL,NA,NA,NA,NA,NA,NA,NA,sdfdsf,NA,1,NA,NA,NA,NA,NA,NA,NA,NA,NA,NA,NA,NA,NA,NA,NA,NA,NA,NA,NA
a6077,check continue,flow.Sequence,3_0_1,NA,NA,completion,83250.66,483955,483954.86,483955.34,567206,567214,2024-06-23T12:32:25Z,567267.04,NULL,NA,NA,NA,NA,NA,NA,NA,sdfdsf,NA,1,NA,NA,NA,NA,NA,NA,NA,NA,NA,NA,NA,NA,NA,NA,NA,NA,NA,NA,NA
a6077,Deep Question,html.Page,3_0_2_0_0_0_0,NA,NA,form submission,3539.96,567266,567266.58,567267.04,570807,570807,2024-06-23T12:32:29Z,570810.44,NULL,Spionage,upelelezi,d,NA,NA,NA,fdvdgfe,NA,NA,2,NA,NA,NA,NA,NA,NA,NA,NA,NA,NA,NA,NA,NA,NA,NA,NA,NA,NA,NA
a6077,"""Richtig""-Screen",canvas.Screen,3_0_2_0_0_0_1,NA,NA,skipped,NA,570809,NA,NA,570807,570809,2024-06-23T12:32:29Z,570810.44,NULL,Spionage,upelelezi,d,NA,NA,NA,NA,sdf,NA,2,NA,NA,NA,NA,NA,NA,NA,NA,NA,NA,NA,NA,NA,NA,NA,NA,NA,NA,NA
a6077,"""Falsch""-Screen",canvas.Screen,3_0_2_0_0_0_2,NA,NA,timeout,5004.6200000001,570811,570806.36,570810.44,575798.38,575801,2024-06-23T12:32:34Z,575815.06,NULL,Spionage,upelelezi,d,NA,NA,NA,NA,sdf,0,2,NA,NA,NA,NA,NA,NA,NA,NA,NA,NA,NA,NA,NA,NA,NA,NA,NA,NA,NA
a6077,deep,flow.Sequence,3_0_2_0_0_0,NA,NA,completion,8531.34,567266,567266.58,567267.04,575798.38,575802,2024-06-23T12:32:34Z,575815.06,NULL,Spionage,upelelezi,d,NA,NA,NA,NA,sdf,NA,2,NA,NA,NA,NA,NA,NA,NA,NA,NA,NA,NA,NA,NA,NA,NA,NA,NA,NA,NA
a6077,shallow,flow.Sequence,3_0_2_0_0_1,NA,NA,skipped,NA,575802,NA,NA,575798.38,575802,2024-06-23T12:32:34Z,575815.06,NULL,Spionage,upelelezi,d,NA,NA,NA,NA,sdf,NA,2,NA,NA,NA,NA,NA,NA,NA,NA,NA,NA,NA,NA,NA,NA,NA,NA,NA,NA,NA
a6077,task,flow.Sequence,3_0_2_0_0,NA,NA,completion,8531.34,567266,567266.58,567267.04,575798.38,575802,2024-06-23T12:32:34Z,575815.06,NULL,Spionage,upelelezi,d,NA,NA,NA,NA,sdf,NA,2,NA,NA,NA,NA,NA,NA,NA,NA,NA,NA,NA,NA,NA,NA,NA,NA,NA,NA,NA
a6077,Deep Question,html.Page,3_0_2_0_1_0_0,NA,NA,form submission,2877.9399999999,575802,575798.38,575815.06,578693,578694,2024-06-23T12:32:36Z,578700.48,NULL,Entwicklung,maendeleo,d,NA,NA,NA,fvgwgtfer,NA,NA,2,NA,NA,NA,NA,NA,NA,NA,NA,NA,NA,NA,NA,NA,NA,NA,NA,NA,NA,NA
a6077,"""Richtig""-Screen",canvas.Screen,3_0_2_0_1_0_1,NA,NA,skipped,NA,578695,NA,NA,578693,578695,2024-06-23T12:32:36Z,578700.48,NULL,Entwicklung,maendeleo,d,NA,NA,NA,NA,sdf,NA,2,NA,NA,NA,NA,NA,NA,NA,NA,NA,NA,NA,NA,NA,NA,NA,NA,NA,NA,NA
a6077,"""Falsch""-Screen",canvas.Screen,3_0_2_0_1_0_2,NA,NA,timeout,5003.84,578696,578691.92,578700.48,583687.64,583692,2024-06-23T12:32:41Z,583704.32,NULL,Entwicklung,maendeleo,d,NA,NA,NA,NA,sdf,0,2,NA,NA,NA,NA,NA,NA,NA,NA,NA,NA,NA,NA,NA,NA,NA,NA,NA,NA,NA
a6077,deep,flow.Sequence,3_0_2_0_1_0,NA,NA,completion,7872.58,575802,575798.38,575815.06,583687.64,583692,2024-06-23T12:32:41Z,583704.32,NULL,Entwicklung,maendeleo,d,NA,NA,NA,NA,sdf,NA,2,NA,NA,NA,NA,NA,NA,NA,NA,NA,NA,NA,NA,NA,NA,NA,NA,NA,NA,NA
a6077,shallow,flow.Sequence,3_0_2_0_1_1,NA,NA,skipped,NA,583692,NA,NA,583687.64,583692,2024-06-23T12:32:41Z,583704.32,NULL,Entwicklung,maendeleo,d,NA,NA,NA,NA,sdf,NA,2,NA,NA,NA,NA,NA,NA,NA,NA,NA,NA,NA,NA,NA,NA,NA,NA,NA,NA,NA
a6077,task,flow.Sequence,3_0_2_0_1,NA,NA,completion,7872.58,575802,575798.38,575815.06,583687.64,583692,2024-06-23T12:32:41Z,583704.32,NULL,Entwicklung,maendeleo,d,NA,NA,NA,NA,sdf,NA,2,NA,NA,NA,NA,NA,NA,NA,NA,NA,NA,NA,NA,NA,NA,NA,NA,NA,NA,NA
a6077,Deep Question,html.Page,3_0_2_0_2_0_0,NA,NA,form submission,52395.68,583692,583687.64,583704.32,636100,636102,2024-06-23T12:33:34Z,636099.3,NULL,Vorwurf,mashtaka,d,NA,NA,NA,mashtaka,NA,NA,2,NA,NA,NA,NA,NA,NA,NA,NA,NA,NA,NA,NA,NA,NA,NA,NA,NA,NA,NA
a6077,"""Richtig""-Screen",canvas.Screen,3_0_2_0_2_0_1,NA,NA,timeout,5003.22,636109,636099.02,636099.3,641085.84,641087,2024-06-23T12:33:39Z,641102.52,NULL,Vorwurf,mashtaka,d,NA,NA,NA,NA,sdf,1,2,NA,NA,NA,NA,NA,NA,NA,NA,NA,NA,NA,NA,NA,NA,NA,NA,NA,NA,NA
a6077,"""Falsch""-Screen",canvas.Screen,3_0_2_0_2_0_2,NA,NA,skipped,NA,641090,NA,NA,641085.84,641090,2024-06-23T12:33:39Z,641102.52,NULL,Vorwurf,mashtaka,d,NA,NA,NA,NA,sdf,NA,2,NA,NA,NA,NA,NA,NA,NA,NA,NA,NA,NA,NA,NA,NA,NA,NA,NA,NA,NA
a6077,deep,flow.Sequence,3_0_2_0_2_0,NA,NA,completion,57381.52,583692,583687.64,583704.32,641085.84,641090,2024-06-23T12:33:39Z,641102.52,NULL,Vorwurf,mashtaka,d,NA,NA,NA,NA,sdf,NA,2,NA,NA,NA,NA,NA,NA,NA,NA,NA,NA,NA,NA,NA,NA,NA,NA,NA,NA,NA
a6077,shallow,flow.Sequence,3_0_2_0_2_1,NA,NA,skipped,NA,641090,NA,NA,641085.84,641091,2024-06-23T12:33:39Z,641102.52,NULL,Vorwurf,mashtaka,d,NA,NA,NA,NA,sdf,NA,2,NA,NA,NA,NA,NA,NA,NA,NA,NA,NA,NA,NA,NA,NA,NA,NA,NA,NA,NA
a6077,task,flow.Sequence,3_0_2_0_2,NA,NA,completion,57381.52,583692,583687.64,583704.32,641085.84,641091,2024-06-23T12:33:39Z,641102.52,NULL,Vorwurf,mashtaka,d,NA,NA,NA,NA,sdf,NA,2,NA,NA,NA,NA,NA,NA,NA,NA,NA,NA,NA,NA,NA,NA,NA,NA,NA,NA,NA
a6077,Deep Question,html.Page,3_0_2_0_3_0_0,NA,NA,form submission,25792.48,641091,641085.84,641102.52,666895,666897,2024-06-23T12:34:05Z,666907.14,NULL,Fenster,dirisha,d,NA,NA,NA,hjzhgjhgj,NA,NA,2,NA,NA,NA,NA,NA,NA,NA,NA,NA,NA,NA,NA,NA,NA,NA,NA,NA,NA,NA
a6077,"""Richtig""-Screen",canvas.Screen,3_0_2_0_3_0_1,NA,NA,skipped,NA,666904,NA,NA,666895,666904,2024-06-23T12:34:05Z,666907.14,NULL,Fenster,dirisha,d,NA,NA,NA,NA,sdf,NA,2,NA,NA,NA,NA,NA,NA,NA,NA,NA,NA,NA,NA,NA,NA,NA,NA,NA,NA,NA
a6077,"""Falsch""-Screen",canvas.Screen,3_0_2_0_3_0_2,NA,NA,timeout,5004.26,666906,666894.18,666907.14,671894.72,671897,2024-06-23T12:34:10Z,671911.4,NULL,Fenster,dirisha,d,NA,NA,NA,NA,sdf,0,2,NA,NA,NA,NA,NA,NA,NA,NA,NA,NA,NA,NA,NA,NA,NA,NA,NA,NA,NA
a6077,deep,flow.Sequence,3_0_2_0_3_0,NA,NA,completion,30792.2,641091,641085.84,641102.52,671894.72,671897,2024-06-23T12:34:10Z,671911.4,NULL,Fenster,dirisha,d,NA,NA,NA,NA,sdf,NA,2,NA,NA,NA,NA,NA,NA,NA,NA,NA,NA,NA,NA,NA,NA,NA,NA,NA,NA,NA
a6077,shallow,flow.Sequence,3_0_2_0_3_1,NA,NA,skipped,NA,671897,NA,NA,671894.72,671897,2024-06-23T12:34:10Z,671911.4,NULL,Fenster,dirisha,d,NA,NA,NA,NA,sdf,NA,2,NA,NA,NA,NA,NA,NA,NA,NA,NA,NA,NA,NA,NA,NA,NA,NA,NA,NA,NA
a6077,task,flow.Sequence,3_0_2_0_3,NA,NA,completion,30792.2,641091,641085.84,641102.52,671894.72,671898,2024-06-23T12:34:10Z,671911.4,NULL,Fenster,dirisha,d,NA,NA,NA,NA,sdf,NA,2,NA,NA,NA,NA,NA,NA,NA,NA,NA,NA,NA,NA,NA,NA,NA,NA,NA,NA,NA
a6077,deep,flow.Sequence,3_0_2_0_4_0,NA,NA,skipped,NA,671898,NA,NA,671894.72,671898,2024-06-23T12:34:10Z,671911.4,NULL,Schüler,mwanafunzi,s,mwekezaji,matumizi,uaminifu,NA,sdf,NA,2,NA,NA,NA,NA,NA,NA,NA,NA,NA,NA,NA,NA,NA,NA,NA,NA,NA,NA,NA
a6077,Shallow Question,html.Page,3_0_2_0_4_1_0,NA,NA,form submission,25878.6,671898,671894.72,671911.4,697790,697790,2024-06-23T12:34:36Z,697799.48,NULL,Schüler,mwanafunzi,s,mwekezaji,matumizi,uaminifu,mwanafunzi,NA,NA,2,NA,NA,NA,NA,NA,NA,NA,NA,NA,NA,NA,NA,NA,NA,NA,NA,NA,NA,NA
a6077,"""Richtig""-Screen",canvas.Screen,3_0_2_0_4_1_1,NA,NA,timeout,5004.12,697792,697786.98,697799.48,702786.92,702790,2024-06-23T12:34:41Z,702803.6,NULL,Schüler,mwanafunzi,s,mwekezaji,matumizi,uaminifu,NA,sdf,1,2,NA,NA,NA,NA,NA,NA,NA,NA,NA,NA,NA,NA,NA,NA,NA,NA,NA,NA,NA
a6077,"""Falsch""-Screen",canvas.Screen,3_0_2_0_4_1_2,NA,NA,skipped,NA,702791,NA,NA,702786.92,702791,2024-06-23T12:34:41Z,702803.6,NULL,Schüler,mwanafunzi,s,mwekezaji,matumizi,uaminifu,NA,sdf,NA,2,NA,NA,NA,NA,NA,NA,NA,NA,NA,NA,NA,NA,NA,NA,NA,NA,NA,NA,NA
a6077,shallow,flow.Sequence,3_0_2_0_4_1,NA,NA,completion,30875.52,671898,671894.72,671911.4,702786.92,702791,2024-06-23T12:34:41Z,702803.6,NULL,Schüler,mwanafunzi,s,mwekezaji,matumizi,uaminifu,NA,sdf,NA,2,NA,NA,NA,NA,NA,NA,NA,NA,NA,NA,NA,NA,NA,NA,NA,NA,NA,NA,NA
a6077,task,flow.Sequence,3_0_2_0_4,NA,NA,completion,30875.52,671898,671894.72,671911.4,702786.92,702791,2024-06-23T12:34:41Z,702803.6,NULL,Schüler,mwanafunzi,s,mwekezaji,matumizi,uaminifu,NA,sdf,NA,2,NA,NA,NA,NA,NA,NA,NA,NA,NA,NA,NA,NA,NA,NA,NA,NA,NA,NA,NA
a6077,deep,flow.Sequence,3_0_2_0_5_0,NA,NA,skipped,NA,702791,NA,NA,702786.92,702792,2024-06-23T12:34:41Z,702803.6,NULL,Papier,karatasi,s,uchambuzi,usalama,kukataliwa,NA,sdf,NA,2,NA,NA,NA,NA,NA,NA,NA,NA,NA,NA,NA,NA,NA,NA,NA,NA,NA,NA,NA
a6077,Shallow Question,html.Page,3_0_2_0_5_1_0,NA,NA,form submission,6252.4,702792,702786.92,702803.6,709056,709056,2024-06-23T12:34:47Z,709058.8,NULL,Papier,karatasi,s,uchambuzi,usalama,kukataliwa,karatasi,NA,NA,2,NA,NA,NA,NA,NA,NA,NA,NA,NA,NA,NA,NA,NA,NA,NA,NA,NA,NA,NA
a6077,"""Richtig""-Screen",canvas.Screen,3_0_2_0_5_1_1,NA,NA,timeout,5004.1599999999,709058,709052.48,709058.8,714046.28,714048,2024-06-23T12:34:52Z,714062.96,NULL,Papier,karatasi,s,uchambuzi,usalama,kukataliwa,NA,sdf,1,2,NA,NA,NA,NA,NA,NA,NA,NA,NA,NA,NA,NA,NA,NA,NA,NA,NA,NA,NA
a6077,"""Falsch""-Screen",canvas.Screen,3_0_2_0_5_1_2,NA,NA,skipped,NA,714051,NA,NA,714046.28,714051,2024-06-23T12:34:52Z,714062.96,NULL,Papier,karatasi,s,uchambuzi,usalama,kukataliwa,NA,sdf,NA,2,NA,NA,NA,NA,NA,NA,NA,NA,NA,NA,NA,NA,NA,NA,NA,NA,NA,NA,NA
a6077,shallow,flow.Sequence,3_0_2_0_5_1,NA,NA,completion,11242.68,702792,702786.92,702803.6,714046.28,714051,2024-06-23T12:34:52Z,714062.96,NULL,Papier,karatasi,s,uchambuzi,usalama,kukataliwa,NA,sdf,NA,2,NA,NA,NA,NA,NA,NA,NA,NA,NA,NA,NA,NA,NA,NA,NA,NA,NA,NA,NA
a6077,task,flow.Sequence,3_0_2_0_5,NA,NA,completion,11242.68,702791,702786.92,702803.6,714046.28,714051,2024-06-23T12:34:52Z,714062.96,NULL,Papier,karatasi,s,uchambuzi,usalama,kukataliwa,NA,sdf,NA,2,NA,NA,NA,NA,NA,NA,NA,NA,NA,NA,NA,NA,NA,NA,NA,NA,NA,NA,NA
a6077,deep,flow.Sequence,3_0_2_0_6_0,NA,NA,skipped,NA,714051,NA,NA,714046.28,714051,2024-06-23T12:34:52Z,714062.96,NULL,Tester,wanaojaribu,s,sherti,sihiri,mlipuko,NA,sdf,NA,2,NA,NA,NA,NA,NA,NA,NA,NA,NA,NA,NA,NA,NA,NA,NA,NA,NA,NA,NA
a6077,Shallow Question,html.Page,3_0_2_0_6_1_0,NA,NA,form submission,10776.04,714052,714046.28,714062.96,724839,724841,2024-06-23T12:35:03Z,724838.36,NULL,Tester,wanaojaribu,s,sherti,sihiri,mlipuko,wanaojaribu,NA,NA,2,NA,NA,NA,NA,NA,NA,NA,NA,NA,NA,NA,NA,NA,NA,NA,NA,NA,NA,NA
a6077,"""Richtig""-Screen",canvas.Screen,3_0_2_0_6_1_1,NA,NA,timeout,5004.3,724848,724832.9,724838.36,729826,729828,2024-06-23T12:35:08Z,729842.66,NULL,Tester,wanaojaribu,s,sherti,sihiri,mlipuko,NA,sdf,1,2,NA,NA,NA,NA,NA,NA,NA,NA,NA,NA,NA,NA,NA,NA,NA,NA,NA,NA,NA
a6077,"""Falsch""-Screen",canvas.Screen,3_0_2_0_6_1_2,NA,NA,skipped,NA,729831,NA,NA,729826,729831,2024-06-23T12:35:08Z,729842.66,NULL,Tester,wanaojaribu,s,sherti,sihiri,mlipuko,NA,sdf,NA,2,NA,NA,NA,NA,NA,NA,NA,NA,NA,NA,NA,NA,NA,NA,NA,NA,NA,NA,NA
a6077,shallow,flow.Sequence,3_0_2_0_6_1,NA,NA,completion,15763.04,714052,714046.28,714062.96,729826,729831,2024-06-23T12:35:08Z,729842.66,NULL,Tester,wanaojaribu,s,sherti,sihiri,mlipuko,NA,sdf,NA,2,NA,NA,NA,NA,NA,NA,NA,NA,NA,NA,NA,NA,NA,NA,NA,NA,NA,NA,NA
a6077,task,flow.Sequence,3_0_2_0_6,NA,NA,completion,15763.04,714051,714046.28,714062.96,729826,729831,2024-06-23T12:35:08Z,729842.66,NULL,Tester,wanaojaribu,s,sherti,sihiri,mlipuko,NA,sdf,NA,2,NA,NA,NA,NA,NA,NA,NA,NA,NA,NA,NA,NA,NA,NA,NA,NA,NA,NA,NA
a6077,deep,flow.Sequence,3_0_2_0_7_0,NA,NA,skipped,NA,729831,NA,NA,729826,729832,2024-06-23T12:35:08Z,729842.66,NULL,Niveau,kiwango,s,usimamizi,mwamali,mshairi,NA,sdf,NA,2,NA,NA,NA,NA,NA,NA,NA,NA,NA,NA,NA,NA,NA,NA,NA,NA,NA,NA,NA
a6077,Shallow Question,html.Page,3_0_2_0_7_1_0,NA,NA,form submission,6836.34,729832,729826,729842.66,736679,736680,2024-06-23T12:35:14Z,736681.6,NULL,Niveau,kiwango,s,usimamizi,mwamali,mshairi,kiwango,NA,NA,2,NA,NA,NA,NA,NA,NA,NA,NA,NA,NA,NA,NA,NA,NA,NA,NA,NA,NA,NA
a6077,"""Richtig""-Screen",canvas.Screen,3_0_2_0_7_1_1,NA,NA,timeout,5004.26,736682,736675.2,736681.6,741669.18,741671,2024-06-23T12:35:19Z,741685.86,NULL,Niveau,kiwango,s,usimamizi,mwamali,mshairi,NA,sdf,1,2,NA,NA,NA,NA,NA,NA,NA,NA,NA,NA,NA,NA,NA,NA,NA,NA,NA,NA,NA
a6077,"""Falsch""-Screen",canvas.Screen,3_0_2_0_7_1_2,NA,NA,skipped,NA,741672,NA,NA,741669.18,741673,2024-06-23T12:35:19Z,741685.86,NULL,Niveau,kiwango,s,usimamizi,mwamali,mshairi,NA,sdf,NA,2,NA,NA,NA,NA,NA,NA,NA,NA,NA,NA,NA,NA,NA,NA,NA,NA,NA,NA,NA
a6077,shallow,flow.Sequence,3_0_2_0_7_1,NA,NA,completion,11826.52,729832,729826,729842.66,741669.18,741673,2024-06-23T12:35:19Z,741685.86,NULL,Niveau,kiwango,s,usimamizi,mwamali,mshairi,NA,sdf,NA,2,NA,NA,NA,NA,NA,NA,NA,NA,NA,NA,NA,NA,NA,NA,NA,NA,NA,NA,NA
a6077,task,flow.Sequence,3_0_2_0_7,NA,NA,completion,11826.52,729831,729826,729842.66,741669.18,741673,2024-06-23T12:35:19Z,741685.86,NULL,Niveau,kiwango,s,usimamizi,mwamali,mshairi,NA,sdf,NA,2,NA,NA,NA,NA,NA,NA,NA,NA,NA,NA,NA,NA,NA,NA,NA,NA,NA,NA,NA
a6077,block,flow.Loop,3_0_2_0,NA,NA,completion,174402.14,567266,567266.58,567267.04,741669.18,741673,2024-06-23T12:35:19Z,741685.86,NULL,NA,NA,NA,NA,NA,NA,NA,sdf,NA,2,NA,NA,NA,NA,NA,NA,NA,NA,NA,NA,NA,NA,NA,NA,NA,NA,NA,NA,NA
a6077,weiter,canvas.Screen,3_0_2_1,sdf,keypress(Space),response,1130.14,741673,741669.18,741685.86,742816,742819,2024-06-23T12:35:21Z,742869.88,NULL,NA,NA,NA,NA,NA,NA,NA,sdf,NA,2,NA,NA,NA,NA,NA,NA,NA,NA,NA,NA,NA,NA,NA,NA,NA,NA,NA,NA,NA
a6077,check continue,flow.Sequence,3_0_2,NA,NA,completion,175548.96,567266,567266.58,567267.04,742816,742820,2024-06-23T12:35:21Z,742869.88,NULL,NA,NA,NA,NA,NA,NA,NA,sdf,NA,2,NA,NA,NA,NA,NA,NA,NA,NA,NA,NA,NA,NA,NA,NA,NA,NA,NA,NA,NA
a6077,deep,flow.Sequence,3_0_3_0_0_0,NA,NA,skipped,NA,742867,NA,NA,742816,742867,2024-06-23T12:35:21Z,742869.88,NULL,Schüler,mwanafunzi,s,mwekezaji,matumizi,uaminifu,NA,qt,NA,3,NA,NA,NA,NA,NA,NA,NA,NA,NA,NA,NA,NA,NA,NA,NA,NA,NA,NA,NA
a6077,Shallow Question,html.Page,3_0_3_0_0_1_0,NA,NA,form submission,4954.12,742867,742867.4,742869.88,747824,747824,2024-06-23T12:35:26Z,747823.78,NULL,Schüler,mwanafunzi,s,mwekezaji,matumizi,uaminifu,mwanafunzi,NA,NA,3,NA,NA,NA,NA,NA,NA,NA,NA,NA,NA,NA,NA,NA,NA,NA,NA,NA,NA,NA
a6077,"""Richtig""-Screen",canvas.Screen,3_0_3_0_0_1_1,NA,NA,timeout,5004.5,747826,747820.56,747823.78,752811.6,752813,2024-06-23T12:35:31Z,752828.28,NULL,Schüler,mwanafunzi,s,mwekezaji,matumizi,uaminifu,NA,qt,1,3,NA,NA,NA,NA,NA,NA,NA,NA,NA,NA,NA,NA,NA,NA,NA,NA,NA,NA,NA
a6077,"""Falsch""-Screen",canvas.Screen,3_0_3_0_0_1_2,NA,NA,skipped,NA,752815,NA,NA,752811.6,752815,2024-06-23T12:35:31Z,752828.28,NULL,Schüler,mwanafunzi,s,mwekezaji,matumizi,uaminifu,NA,qt,NA,3,NA,NA,NA,NA,NA,NA,NA,NA,NA,NA,NA,NA,NA,NA,NA,NA,NA,NA,NA
a6077,shallow,flow.Sequence,3_0_3_0_0_1,NA,NA,completion,9941.72,742867,742867.4,742869.88,752811.6,752816,2024-06-23T12:35:31Z,752828.28,NULL,Schüler,mwanafunzi,s,mwekezaji,matumizi,uaminifu,NA,qt,NA,3,NA,NA,NA,NA,NA,NA,NA,NA,NA,NA,NA,NA,NA,NA,NA,NA,NA,NA,NA
a6077,task,flow.Sequence,3_0_3_0_0,NA,NA,completion,9941.72,742867,742867.4,742869.88,752811.6,752816,2024-06-23T12:35:31Z,752828.28,NULL,Schüler,mwanafunzi,s,mwekezaji,matumizi,uaminifu,NA,qt,NA,3,NA,NA,NA,NA,NA,NA,NA,NA,NA,NA,NA,NA,NA,NA,NA,NA,NA,NA,NA
a6077,deep,flow.Sequence,3_0_3_0_1_0,NA,NA,skipped,NA,752816,NA,NA,752811.6,752816,2024-06-23T12:35:31Z,752828.28,NULL,Papier,karatasi,s,uchambuzi,usalama,kukataliwa,NA,qt,NA,3,NA,NA,NA,NA,NA,NA,NA,NA,NA,NA,NA,NA,NA,NA,NA,NA,NA,NA,NA
a6077,Shallow Question,html.Page,3_0_3_0_1_1_0,NA,NA,form submission,4378.72,752816,752811.6,752828.28,757207,757207,2024-06-23T12:35:35Z,757215.34,NULL,Papier,karatasi,s,uchambuzi,usalama,kukataliwa,karatasi,NA,NA,3,NA,NA,NA,NA,NA,NA,NA,NA,NA,NA,NA,NA,NA,NA,NA,NA,NA,NA,NA
a6077,"""Richtig""-Screen",canvas.Screen,3_0_3_0_1_1_1,NA,NA,timeout,5004,757208,757203.08,757215.34,762202.66,762205,2024-06-23T12:35:40Z,762219.34,NULL,Papier,karatasi,s,uchambuzi,usalama,kukataliwa,NA,qt,1,3,NA,NA,NA,NA,NA,NA,NA,NA,NA,NA,NA,NA,NA,NA,NA,NA,NA,NA,NA
a6077,"""Falsch""-Screen",canvas.Screen,3_0_3_0_1_1_2,NA,NA,skipped,NA,762207,NA,NA,762202.66,762207,2024-06-23T12:35:40Z,762219.34,NULL,Papier,karatasi,s,uchambuzi,usalama,kukataliwa,NA,qt,NA,3,NA,NA,NA,NA,NA,NA,NA,NA,NA,NA,NA,NA,NA,NA,NA,NA,NA,NA,NA
a6077,shallow,flow.Sequence,3_0_3_0_1_1,NA,NA,completion,9374.38,752816,752811.6,752828.28,762202.66,762208,2024-06-23T12:35:40Z,762219.34,NULL,Papier,karatasi,s,uchambuzi,usalama,kukataliwa,NA,qt,NA,3,NA,NA,NA,NA,NA,NA,NA,NA,NA,NA,NA,NA,NA,NA,NA,NA,NA,NA,NA
a6077,task,flow.Sequence,3_0_3_0_1,NA,NA,completion,9374.38,752816,752811.6,752828.28,762202.66,762208,2024-06-23T12:35:40Z,762219.34,NULL,Papier,karatasi,s,uchambuzi,usalama,kukataliwa,NA,qt,NA,3,NA,NA,NA,NA,NA,NA,NA,NA,NA,NA,NA,NA,NA,NA,NA,NA,NA,NA,NA
a6077,deep,flow.Sequence,3_0_3_0_2_0,NA,NA,skipped,NA,762208,NA,NA,762202.66,762208,2024-06-23T12:35:40Z,762219.34,NULL,Niveau,kiwango,s,usimamizi,mwamali,mshairi,NA,qt,NA,3,NA,NA,NA,NA,NA,NA,NA,NA,NA,NA,NA,NA,NA,NA,NA,NA,NA,NA,NA
a6077,Shallow Question,html.Page,3_0_3_0_2_1_0,NA,NA,form submission,5270.66,762208,762202.66,762219.34,767490,767490,2024-06-23T12:35:45Z,767490.52,NULL,Niveau,kiwango,s,usimamizi,mwamali,mshairi,kiwango,NA,NA,3,NA,NA,NA,NA,NA,NA,NA,NA,NA,NA,NA,NA,NA,NA,NA,NA,NA,NA,NA
a6077,"""Richtig""-Screen",canvas.Screen,3_0_3_0_2_1_1,NA,NA,timeout,5004.08,767492,767486.84,767490.52,772477.92,772479,2024-06-23T12:35:50Z,772494.6,NULL,Niveau,kiwango,s,usimamizi,mwamali,mshairi,NA,qt,1,3,NA,NA,NA,NA,NA,NA,NA,NA,NA,NA,NA,NA,NA,NA,NA,NA,NA,NA,NA
a6077,"""Falsch""-Screen",canvas.Screen,3_0_3_0_2_1_2,NA,NA,skipped,NA,772481,NA,NA,772477.92,772481,2024-06-23T12:35:50Z,772494.6,NULL,Niveau,kiwango,s,usimamizi,mwamali,mshairi,NA,qt,NA,3,NA,NA,NA,NA,NA,NA,NA,NA,NA,NA,NA,NA,NA,NA,NA,NA,NA,NA,NA
a6077,shallow,flow.Sequence,3_0_3_0_2_1,NA,NA,completion,10258.58,762208,762202.66,762219.34,772477.92,772481,2024-06-23T12:35:50Z,772494.6,NULL,Niveau,kiwango,s,usimamizi,mwamali,mshairi,NA,qt,NA,3,NA,NA,NA,NA,NA,NA,NA,NA,NA,NA,NA,NA,NA,NA,NA,NA,NA,NA,NA
a6077,task,flow.Sequence,3_0_3_0_2,NA,NA,completion,10258.58,762208,762202.66,762219.34,772477.92,772481,2024-06-23T12:35:50Z,772494.6,NULL,Niveau,kiwango,s,usimamizi,mwamali,mshairi,NA,qt,NA,3,NA,NA,NA,NA,NA,NA,NA,NA,NA,NA,NA,NA,NA,NA,NA,NA,NA,NA,NA
a6077,Deep Question,html.Page,3_0_3_0_3_0_0,NA,NA,form submission,2575.4,772481,772477.92,772494.6,775070,775070,2024-06-23T12:35:53Z,775069.56,NULL,Fenster,dirisha,d,NA,NA,NA,nvchjsdhfk,NA,NA,3,NA,NA,NA,NA,NA,NA,NA,NA,NA,NA,NA,NA,NA,NA,NA,NA,NA,NA,NA
a6077,"""Richtig""-Screen",canvas.Screen,3_0_3_0_3_0_1,NA,NA,skipped,NA,775072,NA,NA,775070,775072,2024-06-23T12:35:53Z,775069.56,NULL,Fenster,dirisha,d,NA,NA,NA,NA,qt,NA,3,NA,NA,NA,NA,NA,NA,NA,NA,NA,NA,NA,NA,NA,NA,NA,NA,NA,NA,NA
a6077,"""Falsch""-Screen",canvas.Screen,3_0_3_0_3_0_2,NA,NA,timeout,4997.8999999999,775073,775068.68,775069.56,780050.78,780052,2024-06-23T12:35:58Z,780067.46,NULL,Fenster,dirisha,d,NA,NA,NA,NA,qt,0,3,NA,NA,NA,NA,NA,NA,NA,NA,NA,NA,NA,NA,NA,NA,NA,NA,NA,NA,NA
a6077,deep,flow.Sequence,3_0_3_0_3_0,NA,NA,completion,7556.1800000001,772481,772477.92,772494.6,780050.78,780052,2024-06-23T12:35:58Z,780067.46,NULL,Fenster,dirisha,d,NA,NA,NA,NA,qt,NA,3,NA,NA,NA,NA,NA,NA,NA,NA,NA,NA,NA,NA,NA,NA,NA,NA,NA,NA,NA
a6077,shallow,flow.Sequence,3_0_3_0_3_1,NA,NA,skipped,NA,780053,NA,NA,780050.78,780054,2024-06-23T12:35:58Z,780067.46,NULL,Fenster,dirisha,d,NA,NA,NA,NA,qt,NA,3,NA,NA,NA,NA,NA,NA,NA,NA,NA,NA,NA,NA,NA,NA,NA,NA,NA,NA,NA
a6077,task,flow.Sequence,3_0_3_0_3,NA,NA,completion,7556.1800000001,772481,772477.92,772494.6,780050.78,780054,2024-06-23T12:35:58Z,780067.46,NULL,Fenster,dirisha,d,NA,NA,NA,NA,qt,NA,3,NA,NA,NA,NA,NA,NA,NA,NA,NA,NA,NA,NA,NA,NA,NA,NA,NA,NA,NA
a6077,Deep Question,html.Page,3_0_3_0_4_0_0,NA,NA,form submission,5641.54,780054,780050.78,780067.46,785709,785709,2024-06-23T12:36:04Z,785708.08,NULL,Vorwurf,mashtaka,d,NA,NA,NA,mashtaka,NA,NA,3,NA,NA,NA,NA,NA,NA,NA,NA,NA,NA,NA,NA,NA,NA,NA,NA,NA,NA,NA
a6077,"""Richtig""-Screen",canvas.Screen,3_0_3_0_4_0_1,NA,NA,timeout,5001.66,785711,785707.88,785708.08,790693.08,790695,2024-06-23T12:36:08Z,790709.74,NULL,Vorwurf,mashtaka,d,NA,NA,NA,NA,qt,1,3,NA,NA,NA,NA,NA,NA,NA,NA,NA,NA,NA,NA,NA,NA,NA,NA,NA,NA,NA
a6077,"""Falsch""-Screen",canvas.Screen,3_0_3_0_4_0_2,NA,NA,skipped,NA,790696,NA,NA,790693.08,790696,2024-06-23T12:36:08Z,790709.74,NULL,Vorwurf,mashtaka,d,NA,NA,NA,NA,qt,NA,3,NA,NA,NA,NA,NA,NA,NA,NA,NA,NA,NA,NA,NA,NA,NA,NA,NA,NA,NA
a6077,deep,flow.Sequence,3_0_3_0_4_0,NA,NA,completion,10625.62,780054,780050.78,780067.46,790693.08,790696,2024-06-23T12:36:09Z,790709.74,NULL,Vorwurf,mashtaka,d,NA,NA,NA,NA,qt,NA,3,NA,NA,NA,NA,NA,NA,NA,NA,NA,NA,NA,NA,NA,NA,NA,NA,NA,NA,NA
a6077,shallow,flow.Sequence,3_0_3_0_4_1,NA,NA,skipped,NA,790697,NA,NA,790693.08,790697,2024-06-23T12:36:09Z,790709.74,NULL,Vorwurf,mashtaka,d,NA,NA,NA,NA,qt,NA,3,NA,NA,NA,NA,NA,NA,NA,NA,NA,NA,NA,NA,NA,NA,NA,NA,NA,NA,NA
a6077,task,flow.Sequence,3_0_3_0_4,NA,NA,completion,10625.62,780054,780050.78,780067.46,790693.08,790697,2024-06-23T12:36:09Z,790709.74,NULL,Vorwurf,mashtaka,d,NA,NA,NA,NA,qt,NA,3,NA,NA,NA,NA,NA,NA,NA,NA,NA,NA,NA,NA,NA,NA,NA,NA,NA,NA,NA
a6077,Deep Question,html.Page,3_0_3_0_5_0_0,NA,NA,form submission,15092.26,790697,790693.08,790709.74,805802,805803,2024-06-23T12:36:24Z,805805.56,NULL,Entwicklung,maendeleo,d,NA,NA,NA,vgffj,NA,NA,3,NA,NA,NA,NA,NA,NA,NA,NA,NA,NA,NA,NA,NA,NA,NA,NA,NA,NA,NA
a6077,"""Richtig""-Screen",canvas.Screen,3_0_3_0_5_0_1,NA,NA,skipped,NA,805805,NA,NA,805802,805805,2024-06-23T12:36:24Z,805805.56,NULL,Entwicklung,maendeleo,d,NA,NA,NA,NA,qt,NA,3,NA,NA,NA,NA,NA,NA,NA,NA,NA,NA,NA,NA,NA,NA,NA,NA,NA,NA,NA
a6077,"""Falsch""-Screen",canvas.Screen,3_0_3_0_5_0_2,NA,NA,timeout,5004.1599999999,805807,805805.56,805805.56,810793.04,810798,2024-06-23T12:36:29Z,810809.72,NULL,Entwicklung,maendeleo,d,NA,NA,NA,NA,qt,0,3,NA,NA,NA,NA,NA,NA,NA,NA,NA,NA,NA,NA,NA,NA,NA,NA,NA,NA,NA
a6077,deep,flow.Sequence,3_0_3_0_5_0,NA,NA,completion,20083.3,790697,790693.08,790709.74,810793.04,810799,2024-06-23T12:36:29Z,810809.72,NULL,Entwicklung,maendeleo,d,NA,NA,NA,NA,qt,NA,3,NA,NA,NA,NA,NA,NA,NA,NA,NA,NA,NA,NA,NA,NA,NA,NA,NA,NA,NA
a6077,shallow,flow.Sequence,3_0_3_0_5_1,NA,NA,skipped,NA,810799,NA,NA,810793.04,810801,2024-06-23T12:36:29Z,810809.72,NULL,Entwicklung,maendeleo,d,NA,NA,NA,NA,qt,NA,3,NA,NA,NA,NA,NA,NA,NA,NA,NA,NA,NA,NA,NA,NA,NA,NA,NA,NA,NA
a6077,task,flow.Sequence,3_0_3_0_5,NA,NA,completion,20083.3,790697,790693.08,790709.74,810793.04,810801,2024-06-23T12:36:29Z,810809.72,NULL,Entwicklung,maendeleo,d,NA,NA,NA,NA,qt,NA,3,NA,NA,NA,NA,NA,NA,NA,NA,NA,NA,NA,NA,NA,NA,NA,NA,NA,NA,NA
a6077,Deep Question,html.Page,3_0_3_0_6_0_0,NA,NA,form submission,11933.28,810801,810793.04,810809.72,822743,822744,2024-06-23T12:36:41Z,822752.8,NULL,Spionage,upelelezi,d,NA,NA,NA,ghzfgz,NA,NA,3,NA,NA,NA,NA,NA,NA,NA,NA,NA,NA,NA,NA,NA,NA,NA,NA,NA,NA,NA
a6077,"""Richtig""-Screen",canvas.Screen,3_0_3_0_6_0_1,NA,NA,skipped,NA,822749,NA,NA,822743,822749,2024-06-23T12:36:41Z,822752.8,NULL,Spionage,upelelezi,d,NA,NA,NA,NA,qt,NA,3,NA,NA,NA,NA,NA,NA,NA,NA,NA,NA,NA,NA,NA,NA,NA,NA,NA,NA,NA
a6077,"""Falsch""-Screen",canvas.Screen,3_0_3_0_6_0_2,NA,NA,timeout,5004.1399999999,822751,822741.74,822752.8,827740.26,827742,2024-06-23T12:36:46Z,827756.94,NULL,Spionage,upelelezi,d,NA,NA,NA,NA,qt,0,3,NA,NA,NA,NA,NA,NA,NA,NA,NA,NA,NA,NA,NA,NA,NA,NA,NA,NA,NA
a6077,deep,flow.Sequence,3_0_3_0_6_0,NA,NA,completion,16930.54,810801,810793.04,810809.72,827740.26,827743,2024-06-23T12:36:46Z,827756.94,NULL,Spionage,upelelezi,d,NA,NA,NA,NA,qt,NA,3,NA,NA,NA,NA,NA,NA,NA,NA,NA,NA,NA,NA,NA,NA,NA,NA,NA,NA,NA
a6077,shallow,flow.Sequence,3_0_3_0_6_1,NA,NA,skipped,NA,827744,NA,NA,827740.26,827744,2024-06-23T12:36:46Z,827756.94,NULL,Spionage,upelelezi,d,NA,NA,NA,NA,qt,NA,3,NA,NA,NA,NA,NA,NA,NA,NA,NA,NA,NA,NA,NA,NA,NA,NA,NA,NA,NA
a6077,task,flow.Sequence,3_0_3_0_6,NA,NA,completion,16930.54,810801,810793.04,810809.72,827740.26,827744,2024-06-23T12:36:46Z,827756.94,NULL,Spionage,upelelezi,d,NA,NA,NA,NA,qt,NA,3,NA,NA,NA,NA,NA,NA,NA,NA,NA,NA,NA,NA,NA,NA,NA,NA,NA,NA,NA
a6077,deep,flow.Sequence,3_0_3_0_7_0,NA,NA,skipped,NA,827745,NA,NA,827740.26,827745,2024-06-23T12:36:46Z,827756.94,NULL,Tester,wanaojaribu,s,sherti,sihiri,mlipuko,NA,qt,NA,3,NA,NA,NA,NA,NA,NA,NA,NA,NA,NA,NA,NA,NA,NA,NA,NA,NA,NA,NA
a6077,Shallow Question,html.Page,3_0_3_0_7_1_0,NA,NA,form submission,10961.06,827745,827740.26,827756.94,838718,838719,2024-06-23T12:36:57Z,838715.68,NULL,Tester,wanaojaribu,s,sherti,sihiri,mlipuko,wanaojaribu,NA,NA,3,NA,NA,NA,NA,NA,NA,NA,NA,NA,NA,NA,NA,NA,NA,NA,NA,NA,NA,NA
a6077,"""Richtig""-Screen",canvas.Screen,3_0_3_0_7_1_1,NA,NA,timeout,5004.38,838720,838715.18,838715.68,843703.4,843705,2024-06-23T12:37:02Z,843720.06,NULL,Tester,wanaojaribu,s,sherti,sihiri,mlipuko,NA,qt,1,3,NA,NA,NA,NA,NA,NA,NA,NA,NA,NA,NA,NA,NA,NA,NA,NA,NA,NA,NA
a6077,"""Falsch""-Screen",canvas.Screen,3_0_3_0_7_1_2,NA,NA,skipped,NA,843707,NA,NA,843703.4,843707,2024-06-23T12:37:02Z,843720.06,NULL,Tester,wanaojaribu,s,sherti,sihiri,mlipuko,NA,qt,NA,3,NA,NA,NA,NA,NA,NA,NA,NA,NA,NA,NA,NA,NA,NA,NA,NA,NA,NA,NA
a6077,shallow,flow.Sequence,3_0_3_0_7_1,NA,NA,completion,15946.46,827745,827740.26,827756.94,843703.4,843708,2024-06-23T12:37:02Z,843720.06,NULL,Tester,wanaojaribu,s,sherti,sihiri,mlipuko,NA,qt,NA,3,NA,NA,NA,NA,NA,NA,NA,NA,NA,NA,NA,NA,NA,NA,NA,NA,NA,NA,NA
a6077,task,flow.Sequence,3_0_3_0_7,NA,NA,completion,15946.46,827745,827740.26,827756.94,843703.4,843708,2024-06-23T12:37:02Z,843720.06,NULL,Tester,wanaojaribu,s,sherti,sihiri,mlipuko,NA,qt,NA,3,NA,NA,NA,NA,NA,NA,NA,NA,NA,NA,NA,NA,NA,NA,NA,NA,NA,NA,NA
a6077,block,flow.Loop,3_0_3_0,NA,NA,completion,100833.52,742867,742867.4,742869.88,843703.4,843708,2024-06-23T12:37:02Z,843720.06,NULL,NA,NA,NA,NA,NA,NA,NA,qt,NA,3,NA,NA,NA,NA,NA,NA,NA,NA,NA,NA,NA,NA,NA,NA,NA,NA,NA,NA,NA
a6077,weiter,canvas.Screen,3_0_3_1,sdf,keypress(Space),response,1095.9399999999,843709,843703.4,843720.06,844816,844825,2024-06-23T12:37:03Z,845554.92,NULL,NA,NA,NA,NA,NA,NA,NA,qt,NA,3,NA,NA,NA,NA,NA,NA,NA,NA,NA,NA,NA,NA,NA,NA,NA,NA,NA,NA,NA
a6077,check continue,flow.Sequence,3_0_3,NA,NA,completion,101946.12,742867,742867.4,742869.88,844816,844825,2024-06-23T12:37:03Z,845554.92,NULL,NA,NA,NA,NA,NA,NA,NA,qt,NA,3,NA,NA,NA,NA,NA,NA,NA,NA,NA,NA,NA,NA,NA,NA,NA,NA,NA,NA,NA
a6077,check continue,flow.Sequence,3_0_4,NA,NA,skipped,NA,844876,NA,NA,844816,844877,2024-06-23T12:37:03Z,845554.92,NULL,NA,NA,NA,NA,NA,NA,NA,sd,NA,4,NA,NA,NA,NA,NA,NA,NA,NA,NA,NA,NA,NA,NA,NA,NA,NA,NA,NA,NA
a6077,check continue,flow.Sequence,3_0_5,NA,NA,skipped,NA,844908,NA,NA,844816,844908,2024-06-23T12:37:03Z,845554.92,NULL,NA,NA,NA,NA,NA,NA,NA,sdf,NA,5,NA,NA,NA,NA,NA,NA,NA,NA,NA,NA,NA,NA,NA,NA,NA,NA,NA,NA,NA
a6077,check continue,flow.Sequence,3_0_6,NA,NA,skipped,NA,844937,NA,NA,844816,844937,2024-06-23T12:37:03Z,845554.92,NULL,NA,NA,NA,NA,NA,NA,NA,dfs,NA,6,NA,NA,NA,NA,NA,NA,NA,NA,NA,NA,NA,NA,NA,NA,NA,NA,NA,NA,NA
a6077,check continue,flow.Sequence,3_0_7,NA,NA,skipped,NA,844963,NA,NA,844816,844964,2024-06-23T12:37:03Z,845554.92,NULL,NA,NA,NA,NA,NA,NA,NA,df,NA,7,NA,NA,NA,NA,NA,NA,NA,NA,NA,NA,NA,NA,NA,NA,NA,NA,NA,NA,NA
a6077,check continue,flow.Sequence,3_0_8,NA,NA,skipped,NA,844994,NA,NA,844816,844994,2024-06-23T12:37:03Z,845554.92,NULL,NA,NA,NA,NA,NA,NA,NA,dfs,NA,8,NA,NA,NA,NA,NA,NA,NA,NA,NA,NA,NA,NA,NA,NA,NA,NA,NA,NA,NA
a6077,check continue,flow.Sequence,3_0_9,NA,NA,skipped,NA,845021,NA,NA,844816,845021,2024-06-23T12:37:03Z,845554.92,NULL,NA,NA,NA,NA,NA,NA,NA,dsf,NA,9,NA,NA,NA,NA,NA,NA,NA,NA,NA,NA,NA,NA,NA,NA,NA,NA,NA,NA,NA
a6077,check continue,flow.Sequence,3_0_10,NA,NA,skipped,NA,845053,NA,NA,844816,845053,2024-06-23T12:37:03Z,845554.92,NULL,NA,NA,NA,NA,NA,NA,NA,df,NA,10,NA,NA,NA,NA,NA,NA,NA,NA,NA,NA,NA,NA,NA,NA,NA,NA,NA,NA,NA
a6077,check continue,flow.Sequence,3_0_11,NA,NA,skipped,NA,845080,NA,NA,844816,845081,2024-06-23T12:37:03Z,845554.92,NULL,NA,NA,NA,NA,NA,NA,NA,dfs,NA,11,NA,NA,NA,NA,NA,NA,NA,NA,NA,NA,NA,NA,NA,NA,NA,NA,NA,NA,NA
a6077,check continue,flow.Sequence,3_0_12,NA,NA,skipped,NA,845106,NA,NA,844816,845106,2024-06-23T12:37:03Z,845554.92,NULL,NA,NA,NA,NA,NA,NA,NA,dsf,NA,12,NA,NA,NA,NA,NA,NA,NA,NA,NA,NA,NA,NA,NA,NA,NA,NA,NA,NA,NA
a6077,check continue,flow.Sequence,3_0_13,NA,NA,skipped,NA,845132,NA,NA,844816,845132,2024-06-23T12:37:03Z,845554.92,NULL,NA,NA,NA,NA,NA,NA,NA,dsf,NA,13,NA,NA,NA,NA,NA,NA,NA,NA,NA,NA,NA,NA,NA,NA,NA,NA,NA,NA,NA
a6077,check continue,flow.Sequence,3_0_14,NA,NA,skipped,NA,845163,NA,NA,844816,845163,2024-06-23T12:37:03Z,845554.92,NULL,NA,NA,NA,NA,NA,NA,NA,NA,NA,14,NA,NA,NA,NA,NA,NA,NA,NA,NA,NA,NA,NA,NA,NA,NA,NA,NA,NA,NA
a6077,check continue,flow.Sequence,3_0_15,NA,NA,skipped,NA,845191,NA,NA,844816,845191,2024-06-23T12:37:03Z,845554.92,NULL,NA,NA,NA,NA,NA,NA,NA,NA,NA,15,NA,NA,NA,NA,NA,NA,NA,NA,NA,NA,NA,NA,NA,NA,NA,NA,NA,NA,NA
a6077,check continue,flow.Sequence,3_0_16,NA,NA,skipped,NA,845214,NA,NA,844816,845214,2024-06-23T12:37:03Z,845554.92,NULL,NA,NA,NA,NA,NA,NA,NA,NA,NA,16,NA,NA,NA,NA,NA,NA,NA,NA,NA,NA,NA,NA,NA,NA,NA,NA,NA,NA,NA
a6077,check continue,flow.Sequence,3_0_17,NA,NA,skipped,NA,845241,NA,NA,844816,845242,2024-06-23T12:37:03Z,845554.92,NULL,NA,NA,NA,NA,NA,NA,NA,NA,NA,17,NA,NA,NA,NA,NA,NA,NA,NA,NA,NA,NA,NA,NA,NA,NA,NA,NA,NA,NA
a6077,check continue,flow.Sequence,3_0_18,NA,NA,skipped,NA,845265,NA,NA,844816,845265,2024-06-23T12:37:03Z,845554.92,NULL,NA,NA,NA,NA,NA,NA,NA,NA,NA,18,NA,NA,NA,NA,NA,NA,NA,NA,NA,NA,NA,NA,NA,NA,NA,NA,NA,NA,NA
a6077,check continue,flow.Sequence,3_0_19,NA,NA,skipped,NA,845294,NA,NA,844816,845294,2024-06-23T12:37:03Z,845554.92,NULL,NA,NA,NA,NA,NA,NA,NA,NA,NA,19,NA,NA,NA,NA,NA,NA,NA,NA,NA,NA,NA,NA,NA,NA,NA,NA,NA,NA,NA
a6077,check continue,flow.Sequence,3_0_20,NA,NA,skipped,NA,845318,NA,NA,844816,845318,2024-06-23T12:37:03Z,845554.92,NULL,NA,NA,NA,NA,NA,NA,NA,NA,NA,20,NA,NA,NA,NA,NA,NA,NA,NA,NA,NA,NA,NA,NA,NA,NA,NA,NA,NA,NA
a6077,check continue,flow.Sequence,3_0_21,NA,NA,skipped,NA,845343,NA,NA,844816,845343,2024-06-23T12:37:03Z,845554.92,NULL,NA,NA,NA,NA,NA,NA,NA,NA,NA,21,NA,NA,NA,NA,NA,NA,NA,NA,NA,NA,NA,NA,NA,NA,NA,NA,NA,NA,NA
a6077,check continue,flow.Sequence,3_0_22,NA,NA,skipped,NA,845372,NA,NA,844816,845372,2024-06-23T12:37:03Z,845554.92,NULL,NA,NA,NA,NA,NA,NA,NA,NA,NA,22,NA,NA,NA,NA,NA,NA,NA,NA,NA,NA,NA,NA,NA,NA,NA,NA,NA,NA,NA
a6077,check continue,flow.Sequence,3_0_23,NA,NA,skipped,NA,845399,NA,NA,844816,845399,2024-06-23T12:37:03Z,845554.92,NULL,NA,NA,NA,NA,NA,NA,NA,NA,NA,23,NA,NA,NA,NA,NA,NA,NA,NA,NA,NA,NA,NA,NA,NA,NA,NA,NA,NA,NA
a6077,check continue,flow.Sequence,3_0_24,NA,NA,skipped,NA,845433,NA,NA,844816,845433,2024-06-23T12:37:03Z,845554.92,NULL,NA,NA,NA,NA,NA,NA,NA,NA,NA,24,NA,NA,NA,NA,NA,NA,NA,NA,NA,NA,NA,NA,NA,NA,NA,NA,NA,NA,NA
a6077,check continue,flow.Sequence,3_0_25,NA,NA,skipped,NA,845457,NA,NA,844816,845457,2024-06-23T12:37:03Z,845554.92,NULL,NA,NA,NA,NA,NA,NA,NA,NA,NA,25,NA,NA,NA,NA,NA,NA,NA,NA,NA,NA,NA,NA,NA,NA,NA,NA,NA,NA,NA
a6077,check continue,flow.Sequence,3_0_26,NA,NA,skipped,NA,845479,NA,NA,844816,845479,2024-06-23T12:37:03Z,845554.92,NULL,NA,NA,NA,NA,NA,NA,NA,NA,NA,26,NA,NA,NA,NA,NA,NA,NA,NA,NA,NA,NA,NA,NA,NA,NA,NA,NA,NA,NA
a6077,check continue,flow.Sequence,3_0_27,NA,NA,skipped,NA,845507,NA,NA,844816,845507,2024-06-23T12:37:03Z,845554.92,NULL,NA,NA,NA,NA,NA,NA,NA,NA,NA,27,NA,NA,NA,NA,NA,NA,NA,NA,NA,NA,NA,NA,NA,NA,NA,NA,NA,NA,NA
a6077,check continue,flow.Sequence,3_0_28,NA,NA,skipped,NA,845531,NA,NA,844816,845531,2024-06-23T12:37:03Z,845554.92,NULL,NA,NA,NA,NA,NA,NA,NA,NA,NA,28,NA,NA,NA,NA,NA,NA,NA,NA,NA,NA,NA,NA,NA,NA,NA,NA,NA,NA,NA
a6077,check continue,flow.Sequence,3_0_29,NA,NA,skipped,NA,845553,NA,NA,844816,845553,2024-06-23T12:37:03Z,845554.92,NULL,NA,NA,NA,NA,NA,NA,NA,NA,NA,29,NA,NA,NA,NA,NA,NA,NA,NA,NA,NA,NA,NA,NA,NA,NA,NA,NA,NA,NA
a6077,until continue,flow.Loop,3_0,NA,NA,completion,447654.44,397126,397161.26,397161.56,844816,845553,2024-06-23T12:37:03Z,845554.92,NULL,NA,NA,NA,NA,NA,NA,NA,NA,NA,NA,NA,NA,NA,NA,NA,NA,NA,NA,NA,NA,NA,NA,NA,NA,NA,NA,NA,NA,NA
a6077,block 1,flow.Sequence,3,NA,NA,completion,447654.44,397126,397161.26,397161.56,844816,845553,2024-06-23T12:37:03Z,845554.92,NULL,NA,NA,NA,NA,NA,NA,NA,NA,NA,NA,NA,NA,NA,NA,NA,NA,NA,NA,NA,NA,NA,NA,NA,NA,NA,NA,NA,NA,NA
a6077,1.Part Over,canvas.Screen,4,NA,keypress(Space),response,20776.08,845553,845553.4,845554.92,866331,866345,2024-06-23T12:37:24Z,866405.44,NULL,NA,NA,NA,NA,NA,NA,NA,NA,NA,NA,NA,NA,NA,NA,NA,NA,NA,NA,NA,NA,NA,NA,NA,NA,NA,NA,NA,NA,NA
a6077,deep,flow.Sequence,5_0_0_0_0_0,NA,NA,skipped,NA,866404,NA,NA,866331,866404,2024-06-23T12:37:24Z,866405.44,NULL,Integrität,uadilifu,s,muungano,mtiririko,upunguaji,NA,sdf,NA,0,NA,NA,NA,NA,NA,NA,NA,NA,NA,NA,NA,NA,NA,NA,NA,NA,NA,NA,NA
a6077,Shallow Question,html.Page,5_0_0_0_0_1_0,NA,NA,form submission,7310.5600000001,866404,866405,866405.44,873716,873717,2024-06-23T12:37:32Z,873728.42,NULL,Integrität,uadilifu,s,muungano,mtiririko,upunguaji,mtiririko,NA,NA,0,NA,NA,NA,NA,NA,NA,NA,NA,NA,NA,NA,NA,NA,NA,NA,NA,NA,NA,NA
a6077,"""Richtig""-Screen",canvas.Screen,5_0_0_0_0_1_1,NA,NA,skipped,NA,873724,NA,NA,873716,873725,2024-06-23T12:37:32Z,873728.42,NULL,Integrität,uadilifu,s,muungano,mtiririko,upunguaji,NA,sdf,NA,0,NA,NA,NA,NA,NA,NA,NA,NA,NA,NA,NA,NA,NA,NA,NA,NA,NA,NA,NA
a6077,"""Falsch""-Screen",canvas.Screen,5_0_0_0_0_1_2,NA,NA,timeout,5004.0399999999,873726,873711.06,873728.42,878715.78,878717,2024-06-23T12:37:37Z,878732.46,NULL,Integrität,uadilifu,s,muungano,mtiririko,upunguaji,NA,sdf,0,0,NA,NA,NA,NA,NA,NA,NA,NA,NA,NA,NA,NA,NA,NA,NA,NA,NA,NA,NA
a6077,shallow,flow.Sequence,5_0_0_0_0_1,NA,NA,completion,12310.34,866404,866405,866405.44,878715.78,878718,2024-06-23T12:37:37Z,878732.46,NULL,Integrität,uadilifu,s,muungano,mtiririko,upunguaji,NA,sdf,NA,0,NA,NA,NA,NA,NA,NA,NA,NA,NA,NA,NA,NA,NA,NA,NA,NA,NA,NA,NA
a6077,task,flow.Sequence,5_0_0_0_0,NA,NA,completion,12310.34,866404,866405,866405.44,878715.78,878718,2024-06-23T12:37:37Z,878732.46,NULL,Integrität,uadilifu,s,muungano,mtiririko,upunguaji,NA,sdf,NA,0,NA,NA,NA,NA,NA,NA,NA,NA,NA,NA,NA,NA,NA,NA,NA,NA,NA,NA,NA
a6077,Deep Question,html.Page,5_0_0_0_1_0_0,NA,NA,form submission,3985.54,878718,878715.78,878732.46,882718,882719,2024-06-23T12:37:41Z,882719.04,NULL,Begegnung,kukutana,d,NA,NA,NA,fhzftz,NA,NA,0,NA,NA,NA,NA,NA,NA,NA,NA,NA,NA,NA,NA,NA,NA,NA,NA,NA,NA,NA
a6077,"""Richtig""-Screen",canvas.Screen,5_0_0_0_1_0_1,NA,NA,skipped,NA,882722,NA,NA,882718,882722,2024-06-23T12:37:41Z,882719.04,NULL,Begegnung,kukutana,d,NA,NA,NA,NA,sdf,NA,0,NA,NA,NA,NA,NA,NA,NA,NA,NA,NA,NA,NA,NA,NA,NA,NA,NA,NA,NA
a6077,"""Falsch""-Screen",canvas.Screen,5_0_0_0_1_0_2,NA,NA,timeout,5004.22,882723,882717.36,882719.04,887706.58,887709,2024-06-23T12:37:46Z,887723.26,NULL,Begegnung,kukutana,d,NA,NA,NA,NA,sdf,0,0,NA,NA,NA,NA,NA,NA,NA,NA,NA,NA,NA,NA,NA,NA,NA,NA,NA,NA,NA
a6077,deep,flow.Sequence,5_0_0_0_1_0,NA,NA,completion,8974.12,878718,878715.78,878732.46,887706.58,887709,2024-06-23T12:37:46Z,887723.26,NULL,Begegnung,kukutana,d,NA,NA,NA,NA,sdf,NA,0,NA,NA,NA,NA,NA,NA,NA,NA,NA,NA,NA,NA,NA,NA,NA,NA,NA,NA,NA
a6077,shallow,flow.Sequence,5_0_0_0_1_1,NA,NA,skipped,NA,887709,NA,NA,887706.58,887710,2024-06-23T12:37:46Z,887723.26,NULL,Begegnung,kukutana,d,NA,NA,NA,NA,sdf,NA,0,NA,NA,NA,NA,NA,NA,NA,NA,NA,NA,NA,NA,NA,NA,NA,NA,NA,NA,NA
a6077,task,flow.Sequence,5_0_0_0_1,NA,NA,completion,8974.12,878718,878715.78,878732.46,887706.58,887710,2024-06-23T12:37:46Z,887723.26,NULL,Begegnung,kukutana,d,NA,NA,NA,NA,sdf,NA,0,NA,NA,NA,NA,NA,NA,NA,NA,NA,NA,NA,NA,NA,NA,NA,NA,NA,NA,NA
a6077,Deep Question,html.Page,5_0_0_0_2_0_0,NA,NA,form submission,3307.74,887710,887706.58,887723.26,891031,891031,2024-06-23T12:37:49Z,891042.68,NULL,Genehmigung,idhini,d,NA,NA,NA,fhzftz,NA,NA,0,NA,NA,NA,NA,NA,NA,NA,NA,NA,NA,NA,NA,NA,NA,NA,NA,NA,NA,NA
a6077,"""Richtig""-Screen",canvas.Screen,5_0_0_0_2_0_1,NA,NA,skipped,NA,891032,NA,NA,891031,891033,2024-06-23T12:37:49Z,891042.68,NULL,Genehmigung,idhini,d,NA,NA,NA,NA,sdf,NA,0,NA,NA,NA,NA,NA,NA,NA,NA,NA,NA,NA,NA,NA,NA,NA,NA,NA,NA,NA
a6077,"""Falsch""-Screen",canvas.Screen,5_0_0_0_2_0_2,NA,NA,timeout,5004.1599999999,891034,891029.48,891042.68,896030.16,896032,2024-06-23T12:37:54Z,896046.84,NULL,Genehmigung,idhini,d,NA,NA,NA,NA,sdf,0,0,NA,NA,NA,NA,NA,NA,NA,NA,NA,NA,NA,NA,NA,NA,NA,NA,NA,NA,NA
a6077,deep,flow.Sequence,5_0_0_0_2_0,NA,NA,completion,8306.9,887710,887706.58,887723.26,896030.16,896032,2024-06-23T12:37:54Z,896046.84,NULL,Genehmigung,idhini,d,NA,NA,NA,NA,sdf,NA,0,NA,NA,NA,NA,NA,NA,NA,NA,NA,NA,NA,NA,NA,NA,NA,NA,NA,NA,NA
a6077,shallow,flow.Sequence,5_0_0_0_2_1,NA,NA,skipped,NA,896033,NA,NA,896030.16,896033,2024-06-23T12:37:54Z,896046.84,NULL,Genehmigung,idhini,d,NA,NA,NA,NA,sdf,NA,0,NA,NA,NA,NA,NA,NA,NA,NA,NA,NA,NA,NA,NA,NA,NA,NA,NA,NA,NA
a6077,task,flow.Sequence,5_0_0_0_2,NA,NA,completion,8306.9,887710,887706.58,887723.26,896030.16,896033,2024-06-23T12:37:54Z,896046.84,NULL,Genehmigung,idhini,d,NA,NA,NA,NA,sdf,NA,0,NA,NA,NA,NA,NA,NA,NA,NA,NA,NA,NA,NA,NA,NA,NA,NA,NA,NA,NA
a6077,deep,flow.Sequence,5_0_0_0_3_0,NA,NA,skipped,NA,896033,NA,NA,896030.16,896033,2024-06-23T12:37:54Z,896046.84,NULL,Fleisch,mshakiki,s,kizunguzungu,mshikamano,angusho,NA,sdf,NA,0,NA,NA,NA,NA,NA,NA,NA,NA,NA,NA,NA,NA,NA,NA,NA,NA,NA,NA,NA
a6077,Shallow Question,html.Page,5_0_0_0_3_1_0,NA,NA,form submission,5590.16,896033,896030.16,896046.84,901637,901637,2024-06-23T12:37:59Z,901634.62,NULL,Fleisch,mshakiki,s,kizunguzungu,mshikamano,angusho,angusho,NA,NA,0,NA,NA,NA,NA,NA,NA,NA,NA,NA,NA,NA,NA,NA,NA,NA,NA,NA,NA,NA
a6077,"""Richtig""-Screen",canvas.Screen,5_0_0_0_3_1_1,NA,NA,skipped,NA,901639,NA,NA,901637,901639,2024-06-23T12:37:59Z,901634.62,NULL,Fleisch,mshakiki,s,kizunguzungu,mshikamano,angusho,NA,sdf,NA,0,NA,NA,NA,NA,NA,NA,NA,NA,NA,NA,NA,NA,NA,NA,NA,NA,NA,NA,NA
a6077,"""Falsch""-Screen",canvas.Screen,5_0_0_0_3_1_2,NA,NA,timeout,5004.4,901641,901633.34,901634.62,906622.34,906624,2024-06-23T12:38:04Z,906639.02,NULL,Fleisch,mshakiki,s,kizunguzungu,mshikamano,angusho,NA,sdf,0,0,NA,NA,NA,NA,NA,NA,NA,NA,NA,NA,NA,NA,NA,NA,NA,NA,NA,NA,NA
a6077,shallow,flow.Sequence,5_0_0_0_3_1,NA,NA,completion,10575.5,896033,896030.16,896046.84,906622.34,906624,2024-06-23T12:38:04Z,906639.02,NULL,Fleisch,mshakiki,s,kizunguzungu,mshikamano,angusho,NA,sdf,NA,0,NA,NA,NA,NA,NA,NA,NA,NA,NA,NA,NA,NA,NA,NA,NA,NA,NA,NA,NA
a6077,task,flow.Sequence,5_0_0_0_3,NA,NA,completion,10575.5,896033,896030.16,896046.84,906622.34,906624,2024-06-23T12:38:04Z,906639.02,NULL,Fleisch,mshakiki,s,kizunguzungu,mshikamano,angusho,NA,sdf,NA,0,NA,NA,NA,NA,NA,NA,NA,NA,NA,NA,NA,NA,NA,NA,NA,NA,NA,NA,NA
a6077,deep,flow.Sequence,5_0_0_0_4_0,NA,NA,skipped,NA,906624,NA,NA,906622.34,906624,2024-06-23T12:38:04Z,906639.02,NULL,Vermutung,udhanifu,s,haramia,tikisho,itifaki,NA,sdf,NA,0,NA,NA,NA,NA,NA,NA,NA,NA,NA,NA,NA,NA,NA,NA,NA,NA,NA,NA,NA
a6077,Shallow Question,html.Page,5_0_0_0_4_1_0,NA,NA,form submission,5069.98,906625,906622.34,906639.02,911709,911709,2024-06-23T12:38:10Z,911709.78,NULL,Vermutung,udhanifu,s,haramia,tikisho,itifaki,tikisho,NA,NA,0,NA,NA,NA,NA,NA,NA,NA,NA,NA,NA,NA,NA,NA,NA,NA,NA,NA,NA,NA
a6077,"""Richtig""-Screen",canvas.Screen,5_0_0_0_4_1_1,NA,NA,skipped,NA,911711,NA,NA,911709,911711,2024-06-23T12:38:10Z,911709.78,NULL,Vermutung,udhanifu,s,haramia,tikisho,itifaki,NA,sdf,NA,0,NA,NA,NA,NA,NA,NA,NA,NA,NA,NA,NA,NA,NA,NA,NA,NA,NA,NA,NA
a6077,"""Falsch""-Screen",canvas.Screen,5_0_0_0_4_1_2,NA,NA,timeout,5004.2999999999,911712,911705.56,911709.78,916697.4,916700,2024-06-23T12:38:15Z,916714.08,NULL,Vermutung,udhanifu,s,haramia,tikisho,itifaki,NA,sdf,0,0,NA,NA,NA,NA,NA,NA,NA,NA,NA,NA,NA,NA,NA,NA,NA,NA,NA,NA,NA
a6077,shallow,flow.Sequence,5_0_0_0_4_1,NA,NA,completion,10058.38,906625,906622.34,906639.02,916697.4,916701,2024-06-23T12:38:15Z,916714.08,NULL,Vermutung,udhanifu,s,haramia,tikisho,itifaki,NA,sdf,NA,0,NA,NA,NA,NA,NA,NA,NA,NA,NA,NA,NA,NA,NA,NA,NA,NA,NA,NA,NA
a6077,task,flow.Sequence,5_0_0_0_4,NA,NA,completion,10058.38,906624,906622.34,906639.02,916697.4,916701,2024-06-23T12:38:15Z,916714.08,NULL,Vermutung,udhanifu,s,haramia,tikisho,itifaki,NA,sdf,NA,0,NA,NA,NA,NA,NA,NA,NA,NA,NA,NA,NA,NA,NA,NA,NA,NA,NA,NA,NA
a6077,Deep Question,html.Page,5_0_0_0_5_0_0,NA,NA,form submission,5582.92,916701,916697.4,916714.08,922297,922297,2024-06-23T12:38:20Z,922301.86,NULL,Toleranz,kuvumiliana,d,NA,NA,NA,vhfhzfo,NA,NA,0,NA,NA,NA,NA,NA,NA,NA,NA,NA,NA,NA,NA,NA,NA,NA,NA,NA,NA,NA
a6077,"""Richtig""-Screen",canvas.Screen,5_0_0_0_5_0_1,NA,NA,skipped,NA,922299,NA,NA,922297,922299,2024-06-23T12:38:20Z,922301.86,NULL,Toleranz,kuvumiliana,d,NA,NA,NA,NA,sdf,NA,0,NA,NA,NA,NA,NA,NA,NA,NA,NA,NA,NA,NA,NA,NA,NA,NA,NA,NA,NA
a6077,"""Falsch""-Screen",canvas.Screen,5_0_0_0_5_0_2,NA,NA,timeout,5004.2000000001,922302,922295.66,922301.86,927289.4,927291,2024-06-23T12:38:25Z,927306.06,NULL,Toleranz,kuvumiliana,d,NA,NA,NA,NA,sdf,0,0,NA,NA,NA,NA,NA,NA,NA,NA,NA,NA,NA,NA,NA,NA,NA,NA,NA,NA,NA
a6077,deep,flow.Sequence,5_0_0_0_5_0,NA,NA,completion,10575.32,916701,916697.4,916714.08,927289.4,927291,2024-06-23T12:38:25Z,927306.06,NULL,Toleranz,kuvumiliana,d,NA,NA,NA,NA,sdf,NA,0,NA,NA,NA,NA,NA,NA,NA,NA,NA,NA,NA,NA,NA,NA,NA,NA,NA,NA,NA
a6077,shallow,flow.Sequence,5_0_0_0_5_1,NA,NA,skipped,NA,927291,NA,NA,927289.4,927291,2024-06-23T12:38:25Z,927306.06,NULL,Toleranz,kuvumiliana,d,NA,NA,NA,NA,sdf,NA,0,NA,NA,NA,NA,NA,NA,NA,NA,NA,NA,NA,NA,NA,NA,NA,NA,NA,NA,NA
a6077,task,flow.Sequence,5_0_0_0_5,NA,NA,completion,10575.32,916701,916697.4,916714.08,927289.4,927291,2024-06-23T12:38:25Z,927306.06,NULL,Toleranz,kuvumiliana,d,NA,NA,NA,NA,sdf,NA,0,NA,NA,NA,NA,NA,NA,NA,NA,NA,NA,NA,NA,NA,NA,NA,NA,NA,NA,NA
a6077,deep,flow.Sequence,5_0_0_0_6_0,NA,NA,skipped,NA,927292,NA,NA,927289.4,927292,2024-06-23T12:38:25Z,927306.06,NULL,Inhalt,yaliyomo,s,kishawishi,hifadhi,kutembea,NA,sdf,NA,0,NA,NA,NA,NA,NA,NA,NA,NA,NA,NA,NA,NA,NA,NA,NA,NA,NA,NA,NA
a6077,Shallow Question,html.Page,5_0_0_0_6_1_0,NA,NA,form submission,6136.9399999999,927292,927289.4,927306.06,933443,933443,2024-06-23T12:38:31Z,933461.02,NULL,Inhalt,yaliyomo,s,kishawishi,hifadhi,kutembea,kishawishi,NA,NA,0,NA,NA,NA,NA,NA,NA,NA,NA,NA,NA,NA,NA,NA,NA,NA,NA,NA,NA,NA
a6077,"""Richtig""-Screen",canvas.Screen,5_0_0_0_6_1_1,NA,NA,skipped,NA,933445,NA,NA,933443,933445,2024-06-23T12:38:31Z,933461.02,NULL,Inhalt,yaliyomo,s,kishawishi,hifadhi,kutembea,NA,sdf,NA,0,NA,NA,NA,NA,NA,NA,NA,NA,NA,NA,NA,NA,NA,NA,NA,NA,NA,NA,NA
a6077,"""Falsch""-Screen",canvas.Screen,5_0_0_0_6_1_2,NA,NA,timeout,5004.2,933447,933444.34,933461.02,938448.54,938450,2024-06-23T12:38:36Z,938465.22,NULL,Inhalt,yaliyomo,s,kishawishi,hifadhi,kutembea,NA,sdf,0,0,NA,NA,NA,NA,NA,NA,NA,NA,NA,NA,NA,NA,NA,NA,NA,NA,NA,NA,NA
a6077,shallow,flow.Sequence,5_0_0_0_6_1,NA,NA,completion,11142.48,927292,927289.4,927306.06,938448.54,938450,2024-06-23T12:38:36Z,938465.22,NULL,Inhalt,yaliyomo,s,kishawishi,hifadhi,kutembea,NA,sdf,NA,0,NA,NA,NA,NA,NA,NA,NA,NA,NA,NA,NA,NA,NA,NA,NA,NA,NA,NA,NA
a6077,task,flow.Sequence,5_0_0_0_6,NA,NA,completion,11142.48,927292,927289.4,927306.06,938448.54,938450,2024-06-23T12:38:36Z,938465.22,NULL,Inhalt,yaliyomo,s,kishawishi,hifadhi,kutembea,NA,sdf,NA,0,NA,NA,NA,NA,NA,NA,NA,NA,NA,NA,NA,NA,NA,NA,NA,NA,NA,NA,NA
a6077,Deep Question,html.Page,5_0_0_0_7_0_0,NA,NA,form submission,5094.78,938451,938448.54,938465.22,943560,943560,2024-06-23T12:38:41Z,943569.34,NULL,Schlange,foleni,d,NA,NA,NA,vfghfiz,NA,NA,0,NA,NA,NA,NA,NA,NA,NA,NA,NA,NA,NA,NA,NA,NA,NA,NA,NA,NA,NA
a6077,"""Richtig""-Screen",canvas.Screen,5_0_0_0_7_0_1,NA,NA,skipped,NA,943562,NA,NA,943560,943562,2024-06-23T12:38:41Z,943569.34,NULL,Schlange,foleni,d,NA,NA,NA,NA,sdf,NA,0,NA,NA,NA,NA,NA,NA,NA,NA,NA,NA,NA,NA,NA,NA,NA,NA,NA,NA,NA
a6077,"""Falsch""-Screen",canvas.Screen,5_0_0_0_7_0_2,NA,NA,timeout,5004.14,943563,943558.24,943569.34,948556.8,948558,2024-06-23T12:38:46Z,948573.48,NULL,Schlange,foleni,d,NA,NA,NA,NA,sdf,0,0,NA,NA,NA,NA,NA,NA,NA,NA,NA,NA,NA,NA,NA,NA,NA,NA,NA,NA,NA
a6077,deep,flow.Sequence,5_0_0_0_7_0,NA,NA,completion,10091.58,938451,938448.54,938465.22,948556.8,948559,2024-06-23T12:38:46Z,948573.48,NULL,Schlange,foleni,d,NA,NA,NA,NA,sdf,NA,0,NA,NA,NA,NA,NA,NA,NA,NA,NA,NA,NA,NA,NA,NA,NA,NA,NA,NA,NA
a6077,shallow,flow.Sequence,5_0_0_0_7_1,NA,NA,skipped,NA,948559,NA,NA,948556.8,948559,2024-06-23T12:38:46Z,948573.48,NULL,Schlange,foleni,d,NA,NA,NA,NA,sdf,NA,0,NA,NA,NA,NA,NA,NA,NA,NA,NA,NA,NA,NA,NA,NA,NA,NA,NA,NA,NA
a6077,task,flow.Sequence,5_0_0_0_7,NA,NA,completion,10091.58,938450,938448.54,938465.22,948556.8,948559,2024-06-23T12:38:46Z,948573.48,NULL,Schlange,foleni,d,NA,NA,NA,NA,sdf,NA,0,NA,NA,NA,NA,NA,NA,NA,NA,NA,NA,NA,NA,NA,NA,NA,NA,NA,NA,NA
a6077,block,flow.Loop,5_0_0_0,NA,NA,completion,82151.36,866404,866405,866405.44,948556.8,948559,2024-06-23T12:38:46Z,948573.48,NULL,NA,NA,NA,NA,NA,NA,NA,sdf,NA,0,NA,NA,NA,NA,NA,NA,NA,NA,NA,NA,NA,NA,NA,NA,NA,NA,NA,NA,NA
a6077,weiter,canvas.Screen,5_0_0_1,sdf,keypress(Space),response,1961.52,948559,948556.8,948573.48,950535,950543,2024-06-23T12:38:48Z,950609.48,NULL,NA,NA,NA,NA,NA,NA,NA,sdf,NA,0,NA,NA,NA,NA,NA,NA,NA,NA,NA,NA,NA,NA,NA,NA,NA,NA,NA,NA,NA
a6077,check continue,flow.Sequence,5_0_0,NA,NA,completion,84129.56,866404,866405,866405.44,950535,950544,2024-06-23T12:38:48Z,950609.48,NULL,NA,NA,NA,NA,NA,NA,NA,sdf,NA,0,NA,NA,NA,NA,NA,NA,NA,NA,NA,NA,NA,NA,NA,NA,NA,NA,NA,NA,NA
a6077,deep,flow.Sequence,5_0_1_0_0_0,NA,NA,skipped,NA,950609,NA,NA,950535,950609,2024-06-23T12:38:48Z,950609.48,NULL,Inhalt,yaliyomo,s,kishawishi,hifadhi,kutembea,NA,sdfdsf,NA,1,NA,NA,NA,NA,NA,NA,NA,NA,NA,NA,NA,NA,NA,NA,NA,NA,NA,NA,NA
a6077,Shallow Question,html.Page,5_0_1_0_0_1_0,NA,NA,form submission,8691.52,950609,950609.2,950609.48,959301,959302,2024-06-23T12:38:57Z,959299.04,NULL,Inhalt,yaliyomo,s,kishawishi,hifadhi,kutembea,hifadhi,NA,NA,1,NA,NA,NA,NA,NA,NA,NA,NA,NA,NA,NA,NA,NA,NA,NA,NA,NA,NA,NA
a6077,"""Richtig""-Screen",canvas.Screen,5_0_1_0_0_1_1,NA,NA,skipped,NA,959307,NA,NA,959301,959307,2024-06-23T12:38:57Z,959299.04,NULL,Inhalt,yaliyomo,s,kishawishi,hifadhi,kutembea,NA,sdfdsf,NA,1,NA,NA,NA,NA,NA,NA,NA,NA,NA,NA,NA,NA,NA,NA,NA,NA,NA,NA,NA
a6077,"""Falsch""-Screen",canvas.Screen,5_0_1_0_0_1_2,NA,NA,timeout,5004.1599999999,959309,959295.06,959299.04,964286.52,964288,2024-06-23T12:39:02Z,964303.2,NULL,Inhalt,yaliyomo,s,kishawishi,hifadhi,kutembea,NA,sdfdsf,0,1,NA,NA,NA,NA,NA,NA,NA,NA,NA,NA,NA,NA,NA,NA,NA,NA,NA,NA,NA
a6077,shallow,flow.Sequence,5_0_1_0_0_1,NA,NA,completion,13677.04,950609,950609.2,950609.48,964286.52,964288,2024-06-23T12:39:02Z,964303.2,NULL,Inhalt,yaliyomo,s,kishawishi,hifadhi,kutembea,NA,sdfdsf,NA,1,NA,NA,NA,NA,NA,NA,NA,NA,NA,NA,NA,NA,NA,NA,NA,NA,NA,NA,NA
a6077,task,flow.Sequence,5_0_1_0_0,NA,NA,completion,13677.04,950609,950609.2,950609.48,964286.52,964289,2024-06-23T12:39:02Z,964303.2,NULL,Inhalt,yaliyomo,s,kishawishi,hifadhi,kutembea,NA,sdfdsf,NA,1,NA,NA,NA,NA,NA,NA,NA,NA,NA,NA,NA,NA,NA,NA,NA,NA,NA,NA,NA
a6077,Deep Question,html.Page,5_0_1_0_1_0_0,NA,NA,form submission,6341.8,964289,964286.52,964303.2,970645,970645,2024-06-23T12:39:08Z,970644.22,NULL,Toleranz,kuvumiliana,d,NA,NA,NA,kukutana,NA,NA,1,NA,NA,NA,NA,NA,NA,NA,NA,NA,NA,NA,NA,NA,NA,NA,NA,NA,NA,NA
a6077,"""Richtig""-Screen",canvas.Screen,5_0_1_0_1_0_1,NA,NA,skipped,NA,970648,NA,NA,970645,970648,2024-06-23T12:39:08Z,970644.22,NULL,Toleranz,kuvumiliana,d,NA,NA,NA,NA,sdfdsf,NA,1,NA,NA,NA,NA,NA,NA,NA,NA,NA,NA,NA,NA,NA,NA,NA,NA,NA,NA,NA
a6077,"""Falsch""-Screen",canvas.Screen,5_0_1_0_1_0_2,NA,NA,timeout,5001.72,970651,970643.74,970644.22,975629.26,975630,2024-06-23T12:39:13Z,975645.94,NULL,Toleranz,kuvumiliana,d,NA,NA,NA,NA,sdfdsf,0,1,NA,NA,NA,NA,NA,NA,NA,NA,NA,NA,NA,NA,NA,NA,NA,NA,NA,NA,NA
a6077,deep,flow.Sequence,5_0_1_0_1_0,NA,NA,completion,11326.06,964289,964286.52,964303.2,975629.26,975630,2024-06-23T12:39:13Z,975645.94,NULL,Toleranz,kuvumiliana,d,NA,NA,NA,NA,sdfdsf,NA,1,NA,NA,NA,NA,NA,NA,NA,NA,NA,NA,NA,NA,NA,NA,NA,NA,NA,NA,NA
a6077,shallow,flow.Sequence,5_0_1_0_1_1,NA,NA,skipped,NA,975630,NA,NA,975629.26,975630,2024-06-23T12:39:13Z,975645.94,NULL,Toleranz,kuvumiliana,d,NA,NA,NA,NA,sdfdsf,NA,1,NA,NA,NA,NA,NA,NA,NA,NA,NA,NA,NA,NA,NA,NA,NA,NA,NA,NA,NA
a6077,task,flow.Sequence,5_0_1_0_1,NA,NA,completion,11326.06,964289,964286.52,964303.2,975629.26,975630,2024-06-23T12:39:13Z,975645.94,NULL,Toleranz,kuvumiliana,d,NA,NA,NA,NA,sdfdsf,NA,1,NA,NA,NA,NA,NA,NA,NA,NA,NA,NA,NA,NA,NA,NA,NA,NA,NA,NA,NA
a6077,deep,flow.Sequence,5_0_1_0_2_0,NA,NA,skipped,NA,975631,NA,NA,975629.26,975631,2024-06-23T12:39:13Z,975645.94,NULL,Fleisch,mshakiki,s,kizunguzungu,mshikamano,angusho,NA,sdfdsf,NA,1,NA,NA,NA,NA,NA,NA,NA,NA,NA,NA,NA,NA,NA,NA,NA,NA,NA,NA,NA
a6077,Shallow Question,html.Page,5_0_1_0_2_1_0,NA,NA,form submission,4709.0600000001,975632,975629.26,975645.94,980355,980355,2024-06-23T12:39:18Z,980366.26,NULL,Fleisch,mshakiki,s,kizunguzungu,mshikamano,angusho,mshakiki,NA,NA,1,NA,NA,NA,NA,NA,NA,NA,NA,NA,NA,NA,NA,NA,NA,NA,NA,NA,NA,NA
a6077,"""Richtig""-Screen",canvas.Screen,5_0_1_0_2_1_1,NA,NA,timeout,5004.38,980357,980352.08,980366.26,985353.96,985355,2024-06-23T12:39:23Z,985370.64,NULL,Fleisch,mshakiki,s,kizunguzungu,mshikamano,angusho,NA,sdfdsf,1,1,NA,NA,NA,NA,NA,NA,NA,NA,NA,NA,NA,NA,NA,NA,NA,NA,NA,NA,NA
a6077,"""Falsch""-Screen",canvas.Screen,5_0_1_0_2_1_2,NA,NA,skipped,NA,985358,NA,NA,985353.96,985358,2024-06-23T12:39:23Z,985370.64,NULL,Fleisch,mshakiki,s,kizunguzungu,mshikamano,angusho,NA,sdfdsf,NA,1,NA,NA,NA,NA,NA,NA,NA,NA,NA,NA,NA,NA,NA,NA,NA,NA,NA,NA,NA
a6077,shallow,flow.Sequence,5_0_1_0_2_1,NA,NA,completion,9708.02,975631,975629.26,975645.94,985353.96,985358,2024-06-23T12:39:23Z,985370.64,NULL,Fleisch,mshakiki,s,kizunguzungu,mshikamano,angusho,NA,sdfdsf,NA,1,NA,NA,NA,NA,NA,NA,NA,NA,NA,NA,NA,NA,NA,NA,NA,NA,NA,NA,NA
a6077,task,flow.Sequence,5_0_1_0_2,NA,NA,completion,9708.02,975630,975629.26,975645.94,985353.96,985358,2024-06-23T12:39:23Z,985370.64,NULL,Fleisch,mshakiki,s,kizunguzungu,mshikamano,angusho,NA,sdfdsf,NA,1,NA,NA,NA,NA,NA,NA,NA,NA,NA,NA,NA,NA,NA,NA,NA,NA,NA,NA,NA
a6077,deep,flow.Sequence,5_0_1_0_3_0,NA,NA,skipped,NA,985359,NA,NA,985353.96,985359,2024-06-23T12:39:23Z,985370.64,NULL,Vermutung,udhanifu,s,haramia,tikisho,itifaki,NA,sdfdsf,NA,1,NA,NA,NA,NA,NA,NA,NA,NA,NA,NA,NA,NA,NA,NA,NA,NA,NA,NA,NA
a6077,Shallow Question,html.Page,5_0_1_0_3_1_0,NA,NA,form submission,5717.36,985359,985353.96,985370.64,991088,991088,2024-06-23T12:39:29Z,991092.06,NULL,Vermutung,udhanifu,s,haramia,tikisho,itifaki,udhanifu,NA,NA,1,NA,NA,NA,NA,NA,NA,NA,NA,NA,NA,NA,NA,NA,NA,NA,NA,NA,NA,NA
a6077,"""Richtig""-Screen",canvas.Screen,5_0_1_0_3_1_1,NA,NA,timeout,5004.0599999999,991090,991085.74,991092.06,996079.44,996081,2024-06-23T12:39:34Z,996096.12,NULL,Vermutung,udhanifu,s,haramia,tikisho,itifaki,NA,sdfdsf,1,1,NA,NA,NA,NA,NA,NA,NA,NA,NA,NA,NA,NA,NA,NA,NA,NA,NA,NA,NA
a6077,"""Falsch""-Screen",canvas.Screen,5_0_1_0_3_1_2,NA,NA,skipped,NA,996084,NA,NA,996079.44,996084,2024-06-23T12:39:34Z,996096.12,NULL,Vermutung,udhanifu,s,haramia,tikisho,itifaki,NA,sdfdsf,NA,1,NA,NA,NA,NA,NA,NA,NA,NA,NA,NA,NA,NA,NA,NA,NA,NA,NA,NA,NA
a6077,shallow,flow.Sequence,5_0_1_0_3_1,NA,NA,completion,10708.8,985359,985353.96,985370.64,996079.44,996084,2024-06-23T12:39:34Z,996096.12,NULL,Vermutung,udhanifu,s,haramia,tikisho,itifaki,NA,sdfdsf,NA,1,NA,NA,NA,NA,NA,NA,NA,NA,NA,NA,NA,NA,NA,NA,NA,NA,NA,NA,NA
a6077,task,flow.Sequence,5_0_1_0_3,NA,NA,completion,10708.8,985359,985353.96,985370.64,996079.44,996084,2024-06-23T12:39:34Z,996096.12,NULL,Vermutung,udhanifu,s,haramia,tikisho,itifaki,NA,sdfdsf,NA,1,NA,NA,NA,NA,NA,NA,NA,NA,NA,NA,NA,NA,NA,NA,NA,NA,NA,NA,NA
a6077,Deep Question,html.Page,5_0_1_0_4_0_0,NA,NA,form submission,32404.88,996084,996079.44,996096.12,1028501,1028503,2024-06-23T12:40:06Z,1028506.32,NULL,Schlange,foleni,d,NA,NA,NA,jgjgjuo,NA,NA,1,NA,NA,NA,NA,NA,NA,NA,NA,NA,NA,NA,NA,NA,NA,NA,NA,NA,NA,NA
a6077,"""Richtig""-Screen",canvas.Screen,5_0_1_0_4_0_1,NA,NA,skipped,NA,1028510,NA,NA,1028501,1028511,2024-06-23T12:40:06Z,1028506.32,NULL,Schlange,foleni,d,NA,NA,NA,NA,sdfdsf,NA,1,NA,NA,NA,NA,NA,NA,NA,NA,NA,NA,NA,NA,NA,NA,NA,NA,NA,NA,NA
a6077,"""Falsch""-Screen",canvas.Screen,5_0_1_0_4_0_2,NA,NA,timeout,5004.0800000001,1028513,1028499.74,1028506.32,1033493.72,1033495,2024-06-23T12:40:11Z,1033510.4,NULL,Schlange,foleni,d,NA,NA,NA,NA,sdfdsf,0,1,NA,NA,NA,NA,NA,NA,NA,NA,NA,NA,NA,NA,NA,NA,NA,NA,NA,NA,NA
a6077,deep,flow.Sequence,5_0_1_0_4_0,NA,NA,completion,37397.6,996084,996079.44,996096.12,1033493.72,1033496,2024-06-23T12:40:11Z,1033510.4,NULL,Schlange,foleni,d,NA,NA,NA,NA,sdfdsf,NA,1,NA,NA,NA,NA,NA,NA,NA,NA,NA,NA,NA,NA,NA,NA,NA,NA,NA,NA,NA
a6077,shallow,flow.Sequence,5_0_1_0_4_1,NA,NA,skipped,NA,1033496,NA,NA,1033493.72,1033496,2024-06-23T12:40:11Z,1033510.4,NULL,Schlange,foleni,d,NA,NA,NA,NA,sdfdsf,NA,1,NA,NA,NA,NA,NA,NA,NA,NA,NA,NA,NA,NA,NA,NA,NA,NA,NA,NA,NA
a6077,task,flow.Sequence,5_0_1_0_4,NA,NA,completion,37397.6,996084,996079.44,996096.12,1033493.72,1033496,2024-06-23T12:40:11Z,1033510.4,NULL,Schlange,foleni,d,NA,NA,NA,NA,sdfdsf,NA,1,NA,NA,NA,NA,NA,NA,NA,NA,NA,NA,NA,NA,NA,NA,NA,NA,NA,NA,NA
a6077,Deep Question,html.Page,5_0_1_0_5_0_0,NA,NA,form submission,5317.6,1033497,1033493.72,1033510.4,1038828,1038828,2024-06-23T12:40:17Z,1038831.6,NULL,Genehmigung,idhini,d,NA,NA,NA,kukutana,NA,NA,1,NA,NA,NA,NA,NA,NA,NA,NA,NA,NA,NA,NA,NA,NA,NA,NA,NA,NA,NA
a6077,"""Richtig""-Screen",canvas.Screen,5_0_1_0_5_0_1,NA,NA,skipped,NA,1038830,NA,NA,1038828,1038830,2024-06-23T12:40:17Z,1038831.6,NULL,Genehmigung,idhini,d,NA,NA,NA,NA,sdfdsf,NA,1,NA,NA,NA,NA,NA,NA,NA,NA,NA,NA,NA,NA,NA,NA,NA,NA,NA,NA,NA
a6077,"""Falsch""-Screen",canvas.Screen,5_0_1_0_5_0_2,NA,NA,timeout,5004.02,1038832,1038826.18,1038831.6,1043818.96,1043821,2024-06-23T12:40:22Z,1043835.62,NULL,Genehmigung,idhini,d,NA,NA,NA,NA,sdfdsf,0,1,NA,NA,NA,NA,NA,NA,NA,NA,NA,NA,NA,NA,NA,NA,NA,NA,NA,NA,NA
a6077,deep,flow.Sequence,5_0_1_0_5_0,NA,NA,completion,10308.56,1033497,1033493.72,1033510.4,1043818.96,1043821,2024-06-23T12:40:22Z,1043835.62,NULL,Genehmigung,idhini,d,NA,NA,NA,NA,sdfdsf,NA,1,NA,NA,NA,NA,NA,NA,NA,NA,NA,NA,NA,NA,NA,NA,NA,NA,NA,NA,NA
a6077,shallow,flow.Sequence,5_0_1_0_5_1,NA,NA,skipped,NA,1043821,NA,NA,1043818.96,1043822,2024-06-23T12:40:22Z,1043835.62,NULL,Genehmigung,idhini,d,NA,NA,NA,NA,sdfdsf,NA,1,NA,NA,NA,NA,NA,NA,NA,NA,NA,NA,NA,NA,NA,NA,NA,NA,NA,NA,NA
a6077,task,flow.Sequence,5_0_1_0_5,NA,NA,completion,10308.56,1033497,1033493.72,1033510.4,1043818.96,1043822,2024-06-23T12:40:22Z,1043835.62,NULL,Genehmigung,idhini,d,NA,NA,NA,NA,sdfdsf,NA,1,NA,NA,NA,NA,NA,NA,NA,NA,NA,NA,NA,NA,NA,NA,NA,NA,NA,NA,NA
a6077,Deep Question,html.Page,5_0_1_0_6_0_0,NA,NA,form submission,11481.38,1043822,1043818.96,1043835.62,1055317,1055317,2024-06-23T12:40:33Z,1055316.56,NULL,Begegnung,kukutana,d,NA,NA,NA,kukutana,NA,NA,1,NA,NA,NA,NA,NA,NA,NA,NA,NA,NA,NA,NA,NA,NA,NA,NA,NA,NA,NA
a6077,"""Richtig""-Screen",canvas.Screen,5_0_1_0_6_0_1,NA,NA,timeout,4999.46,1055320,1055316.34,1055316.56,1060299.34,1060301,2024-06-23T12:40:38Z,1060316.02,NULL,Begegnung,kukutana,d,NA,NA,NA,NA,sdfdsf,1,1,NA,NA,NA,NA,NA,NA,NA,NA,NA,NA,NA,NA,NA,NA,NA,NA,NA,NA,NA
a6077,"""Falsch""-Screen",canvas.Screen,5_0_1_0_6_0_2,NA,NA,skipped,NA,1060303,NA,NA,1060299.34,1060303,2024-06-23T12:40:38Z,1060316.02,NULL,Begegnung,kukutana,d,NA,NA,NA,NA,sdfdsf,NA,1,NA,NA,NA,NA,NA,NA,NA,NA,NA,NA,NA,NA,NA,NA,NA,NA,NA,NA,NA
a6077,deep,flow.Sequence,5_0_1_0_6_0,NA,NA,completion,16463.72,1043822,1043818.96,1043835.62,1060299.34,1060303,2024-06-23T12:40:38Z,1060316.02,NULL,Begegnung,kukutana,d,NA,NA,NA,NA,sdfdsf,NA,1,NA,NA,NA,NA,NA,NA,NA,NA,NA,NA,NA,NA,NA,NA,NA,NA,NA,NA,NA
a6077,shallow,flow.Sequence,5_0_1_0_6_1,NA,NA,skipped,NA,1060303,NA,NA,1060299.34,1060303,2024-06-23T12:40:38Z,1060316.02,NULL,Begegnung,kukutana,d,NA,NA,NA,NA,sdfdsf,NA,1,NA,NA,NA,NA,NA,NA,NA,NA,NA,NA,NA,NA,NA,NA,NA,NA,NA,NA,NA
a6077,task,flow.Sequence,5_0_1_0_6,NA,NA,completion,16463.72,1043822,1043818.96,1043835.62,1060299.34,1060303,2024-06-23T12:40:38Z,1060316.02,NULL,Begegnung,kukutana,d,NA,NA,NA,NA,sdfdsf,NA,1,NA,NA,NA,NA,NA,NA,NA,NA,NA,NA,NA,NA,NA,NA,NA,NA,NA,NA,NA
a6077,deep,flow.Sequence,5_0_1_0_7_0,NA,NA,skipped,NA,1060304,NA,NA,1060299.34,1060304,2024-06-23T12:40:38Z,1060316.02,NULL,Integrität,uadilifu,s,muungano,mtiririko,upunguaji,NA,sdfdsf,NA,1,NA,NA,NA,NA,NA,NA,NA,NA,NA,NA,NA,NA,NA,NA,NA,NA,NA,NA,NA
a6077,Shallow Question,html.Page,5_0_1_0_7_1_0,NA,NA,form submission,9352.98,1060304,1060299.34,1060316.02,1069669,1069669,2024-06-23T12:40:47Z,1069673.68,NULL,Integrität,uadilifu,s,muungano,mtiririko,upunguaji,uadilifu,NA,NA,1,NA,NA,NA,NA,NA,NA,NA,NA,NA,NA,NA,NA,NA,NA,NA,NA,NA,NA,NA
a6077,"""Richtig""-Screen",canvas.Screen,5_0_1_0_7_1_1,NA,NA,timeout,5004.3200000001,1069671,1069665.28,1069673.68,1074661.32,1074662,2024-06-23T12:40:52Z,1074678,NULL,Integrität,uadilifu,s,muungano,mtiririko,upunguaji,NA,sdfdsf,1,1,NA,NA,NA,NA,NA,NA,NA,NA,NA,NA,NA,NA,NA,NA,NA,NA,NA,NA,NA
a6077,"""Falsch""-Screen",canvas.Screen,5_0_1_0_7_1_2,NA,NA,skipped,NA,1074666,NA,NA,1074661.32,1074666,2024-06-23T12:40:52Z,1074678,NULL,Integrität,uadilifu,s,muungano,mtiririko,upunguaji,NA,sdfdsf,NA,1,NA,NA,NA,NA,NA,NA,NA,NA,NA,NA,NA,NA,NA,NA,NA,NA,NA,NA,NA
a6077,shallow,flow.Sequence,5_0_1_0_7_1,NA,NA,completion,14345.3,1060304,1060299.34,1060316.02,1074661.32,1074666,2024-06-23T12:40:52Z,1074678,NULL,Integrität,uadilifu,s,muungano,mtiririko,upunguaji,NA,sdfdsf,NA,1,NA,NA,NA,NA,NA,NA,NA,NA,NA,NA,NA,NA,NA,NA,NA,NA,NA,NA,NA
a6077,task,flow.Sequence,5_0_1_0_7,NA,NA,completion,14345.3,1060303,1060299.34,1060316.02,1074661.32,1074667,2024-06-23T12:40:52Z,1074678,NULL,Integrität,uadilifu,s,muungano,mtiririko,upunguaji,NA,sdfdsf,NA,1,NA,NA,NA,NA,NA,NA,NA,NA,NA,NA,NA,NA,NA,NA,NA,NA,NA,NA,NA
a6077,block,flow.Loop,5_0_1_0,NA,NA,completion,124051.84,950609,950609.2,950609.48,1074661.32,1074667,2024-06-23T12:40:52Z,1074678,NULL,NA,NA,NA,NA,NA,NA,NA,sdfdsf,NA,1,NA,NA,NA,NA,NA,NA,NA,NA,NA,NA,NA,NA,NA,NA,NA,NA,NA,NA,NA
a6077,weiter,canvas.Screen,5_0_1_1,sdf,keypress(Space),response,1013,1074667,1074661.32,1074678,1075691,1075701,2024-06-23T12:40:54Z,1075751.9,NULL,NA,NA,NA,NA,NA,NA,NA,sdfdsf,NA,1,NA,NA,NA,NA,NA,NA,NA,NA,NA,NA,NA,NA,NA,NA,NA,NA,NA,NA,NA
a6077,check continue,flow.Sequence,5_0_1,NA,NA,completion,125081.52,950609,950609.2,950609.48,1075691,1075701,2024-06-23T12:40:54Z,1075751.9,NULL,NA,NA,NA,NA,NA,NA,NA,sdfdsf,NA,1,NA,NA,NA,NA,NA,NA,NA,NA,NA,NA,NA,NA,NA,NA,NA,NA,NA,NA,NA
a6077,deep,flow.Sequence,5_0_2_0_0_0,NA,NA,skipped,NA,1075751,NA,NA,1075691,1075751,2024-06-23T12:40:54Z,1075751.9,NULL,Vermutung,udhanifu,s,haramia,tikisho,itifaki,NA,sdf,NA,2,NA,NA,NA,NA,NA,NA,NA,NA,NA,NA,NA,NA,NA,NA,NA,NA,NA,NA,NA
a6077,Shallow Question,html.Page,5_0_2_0_0_1_0,NA,NA,form submission,12448.1,1075752,1075751.48,1075751.9,1088200,1088200,2024-06-23T12:41:06Z,1088205.74,NULL,Vermutung,udhanifu,s,haramia,tikisho,itifaki,udhanifu,NA,NA,2,NA,NA,NA,NA,NA,NA,NA,NA,NA,NA,NA,NA,NA,NA,NA,NA,NA,NA,NA
a6077,"""Richtig""-Screen",canvas.Screen,5_0_2_0_0_1_1,NA,NA,timeout,5004.04,1088202,1088197.4,1088205.74,1093193.1,1093195,2024-06-23T12:41:11Z,1093209.78,NULL,Vermutung,udhanifu,s,haramia,tikisho,itifaki,NA,sdf,1,2,NA,NA,NA,NA,NA,NA,NA,NA,NA,NA,NA,NA,NA,NA,NA,NA,NA,NA,NA
a6077,"""Falsch""-Screen",canvas.Screen,5_0_2_0_0_1_2,NA,NA,skipped,NA,1093199,NA,NA,1093193.1,1093199,2024-06-23T12:41:11Z,1093209.78,NULL,Vermutung,udhanifu,s,haramia,tikisho,itifaki,NA,sdf,NA,2,NA,NA,NA,NA,NA,NA,NA,NA,NA,NA,NA,NA,NA,NA,NA,NA,NA,NA,NA
a6077,shallow,flow.Sequence,5_0_2_0_0_1,NA,NA,completion,17441.2,1075752,1075751.48,1075751.9,1093193.1,1093199,2024-06-23T12:41:11Z,1093209.78,NULL,Vermutung,udhanifu,s,haramia,tikisho,itifaki,NA,sdf,NA,2,NA,NA,NA,NA,NA,NA,NA,NA,NA,NA,NA,NA,NA,NA,NA,NA,NA,NA,NA
a6077,task,flow.Sequence,5_0_2_0_0,NA,NA,completion,17441.2,1075751,1075751.48,1075751.9,1093193.1,1093199,2024-06-23T12:41:11Z,1093209.78,NULL,Vermutung,udhanifu,s,haramia,tikisho,itifaki,NA,sdf,NA,2,NA,NA,NA,NA,NA,NA,NA,NA,NA,NA,NA,NA,NA,NA,NA,NA,NA,NA,NA
a6077,Deep Question,html.Page,5_0_2_0_1_0_0,NA,NA,form submission,6840.22,1093200,1093193.1,1093209.78,1100050,1100050,2024-06-23T12:41:18Z,1100049.04,NULL,Schlange,foleni,d,NA,NA,NA,floni,NA,NA,2,NA,NA,NA,NA,NA,NA,NA,NA,NA,NA,NA,NA,NA,NA,NA,NA,NA,NA,NA
a6077,"""Richtig""-Screen",canvas.Screen,5_0_2_0_1_0_1,NA,NA,skipped,NA,1100051,NA,NA,1100050,1100051,2024-06-23T12:41:18Z,1100049.04,NULL,Schlange,foleni,d,NA,NA,NA,NA,sdf,NA,2,NA,NA,NA,NA,NA,NA,NA,NA,NA,NA,NA,NA,NA,NA,NA,NA,NA,NA,NA
a6077,"""Falsch""-Screen",canvas.Screen,5_0_2_0_1_0_2,NA,NA,timeout,5003.8399999999,1100052,1100048.7,1100049.04,1105036.2,1105038,2024-06-23T12:41:23Z,1105052.88,NULL,Schlange,foleni,d,NA,NA,NA,NA,sdf,0,2,NA,NA,NA,NA,NA,NA,NA,NA,NA,NA,NA,NA,NA,NA,NA,NA,NA,NA,NA
a6077,deep,flow.Sequence,5_0_2_0_1_0,NA,NA,completion,11826.42,1093200,1093193.1,1093209.78,1105036.2,1105038,2024-06-23T12:41:23Z,1105052.88,NULL,Schlange,foleni,d,NA,NA,NA,NA,sdf,NA,2,NA,NA,NA,NA,NA,NA,NA,NA,NA,NA,NA,NA,NA,NA,NA,NA,NA,NA,NA
a6077,shallow,flow.Sequence,5_0_2_0_1_1,NA,NA,skipped,NA,1105038,NA,NA,1105036.2,1105038,2024-06-23T12:41:23Z,1105052.88,NULL,Schlange,foleni,d,NA,NA,NA,NA,sdf,NA,2,NA,NA,NA,NA,NA,NA,NA,NA,NA,NA,NA,NA,NA,NA,NA,NA,NA,NA,NA
a6077,task,flow.Sequence,5_0_2_0_1,NA,NA,completion,11826.42,1093199,1093193.1,1093209.78,1105036.2,1105038,2024-06-23T12:41:23Z,1105052.88,NULL,Schlange,foleni,d,NA,NA,NA,NA,sdf,NA,2,NA,NA,NA,NA,NA,NA,NA,NA,NA,NA,NA,NA,NA,NA,NA,NA,NA,NA,NA
a6077,deep,flow.Sequence,5_0_2_0_2_0,NA,NA,skipped,NA,1105038,NA,NA,1105036.2,1105038,2024-06-23T12:41:23Z,1105052.88,NULL,Integrität,uadilifu,s,muungano,mtiririko,upunguaji,NA,sdf,NA,2,NA,NA,NA,NA,NA,NA,NA,NA,NA,NA,NA,NA,NA,NA,NA,NA,NA,NA,NA
a6077,Shallow Question,html.Page,5_0_2_0_2_1_0,NA,NA,form submission,7966.1200000001,1105039,1105036.2,1105052.88,1113019,1113019,2024-06-23T12:41:31Z,1113026.28,NULL,Integrität,uadilifu,s,muungano,mtiririko,upunguaji,uadilifu,NA,NA,2,NA,NA,NA,NA,NA,NA,NA,NA,NA,NA,NA,NA,NA,NA,NA,NA,NA,NA,NA
a6077,"""Richtig""-Screen",canvas.Screen,5_0_2_0_2_1_1,NA,NA,timeout,5004.02,1113020,1113015.82,1113026.28,1118013.62,1118015,2024-06-23T12:41:36Z,1118030.3,NULL,Integrität,uadilifu,s,muungano,mtiririko,upunguaji,NA,sdf,1,2,NA,NA,NA,NA,NA,NA,NA,NA,NA,NA,NA,NA,NA,NA,NA,NA,NA,NA,NA
a6077,"""Falsch""-Screen",canvas.Screen,5_0_2_0_2_1_2,NA,NA,skipped,NA,1118016,NA,NA,1118013.62,1118016,2024-06-23T12:41:36Z,1118030.3,NULL,Integrität,uadilifu,s,muungano,mtiririko,upunguaji,NA,sdf,NA,2,NA,NA,NA,NA,NA,NA,NA,NA,NA,NA,NA,NA,NA,NA,NA,NA,NA,NA,NA
a6077,shallow,flow.Sequence,5_0_2_0_2_1,NA,NA,completion,12960.74,1105039,1105036.2,1105052.88,1118013.62,1118016,2024-06-23T12:41:36Z,1118030.3,NULL,Integrität,uadilifu,s,muungano,mtiririko,upunguaji,NA,sdf,NA,2,NA,NA,NA,NA,NA,NA,NA,NA,NA,NA,NA,NA,NA,NA,NA,NA,NA,NA,NA
a6077,task,flow.Sequence,5_0_2_0_2,NA,NA,completion,12960.74,1105038,1105036.2,1105052.88,1118013.62,1118016,2024-06-23T12:41:36Z,1118030.3,NULL,Integrität,uadilifu,s,muungano,mtiririko,upunguaji,NA,sdf,NA,2,NA,NA,NA,NA,NA,NA,NA,NA,NA,NA,NA,NA,NA,NA,NA,NA,NA,NA,NA
a6077,Deep Question,html.Page,5_0_2_0_3_0_0,NA,NA,form submission,4093.7,1118016,1118013.62,1118030.3,1122124,1122124,2024-06-23T12:41:40Z,1122133.74,NULL,Genehmigung,idhini,d,NA,NA,NA,vhgfh,NA,NA,2,NA,NA,NA,NA,NA,NA,NA,NA,NA,NA,NA,NA,NA,NA,NA,NA,NA,NA,NA
a6077,"""Richtig""-Screen",canvas.Screen,5_0_2_0_3_0_1,NA,NA,skipped,NA,1122125,NA,NA,1122124,1122126,2024-06-23T12:41:40Z,1122133.74,NULL,Genehmigung,idhini,d,NA,NA,NA,NA,sdf,NA,2,NA,NA,NA,NA,NA,NA,NA,NA,NA,NA,NA,NA,NA,NA,NA,NA,NA,NA,NA
