observation,sender,sender_type,sender_id,response,response_action,ended_on,duration,time_run,time_render,time_show,time_end,time_commit,timestamp,time_switch,german,swahili,enc,distractor1,distractor2,distractor3,response_2,x,correct,distractors,url_vp,url_sess,meta_labjs_version,meta_location,meta_user_agent,meta_platform,meta_language,meta_locale,meta_time_zone,meta_timezone_offset,meta_screen_width,meta_screen_height,meta_scroll_width,meta_scroll_height,meta_window_inner_width,meta_window_inner_height,meta_device_pixel_ratio,meta_labjs_build_flavor,meta_labjs_build_commit
3f360,Introduction delayed retrieval,canvas.Screen,0,weiter,keypress(Space),response,1569.26,431,429.06,445.74,2015,2024,2024-06-25T18:40:04Z,2030.68,NA,NA,NA,NA,NA,NA,NA,NA,NA,NULL,160,4,20.2.4,https://neurocog.fernuni.ch/studies/vweber/jbaenninger/delayed%202/index.html?vp=160&sess=4,Mozilla/5.0 (Windows NT 10.0; Win64; x64; rv:127.0) Gecko/20100101 Firefox/127.0,Win32,de,de-CH,Europe/Zurich,-120,1280,800,1280,591,1280,639,1.5,production,f5b4a49f956347addd546a832a3327688c2c0fef
3f360,Deep Question,html.Page,1_0_0_0,NA,NA,form submission,15287.32,2025,2025.14,2030.68,17318,17319,2024-06-25T18:40:20Z,17326.42,Tester,wanaojaribu,s,sherti,sihiri,mlipuko,weiss nümi,NA,NA,NULL,NA,NA,NA,NA,NA,NA,NA,NA,NA,NA,NA,NA,NA,NA,NA,NA,NA,NA,NA
3f360,Save data screen,canvas.Screen,1_0_0_1,NA,NA,timeout,500.7,17324,17310.52,17326.42,17810.44,17812,2024-06-25T18:40:20Z,17827.12,Tester,wanaojaribu,s,sherti,sihiri,mlipuko,NA,NA,0,NULL,NA,NA,NA,NA,NA,NA,NA,NA,NA,NA,NA,NA,NA,NA,NA,NA,NA,NA,NA
3f360,deep,flow.Sequence,1_0_0,NA,NA,completion,15779.76,2025,2025.14,2030.68,17810.44,17813,2024-06-25T18:40:20Z,17827.12,Tester,wanaojaribu,s,sherti,sihiri,mlipuko,NA,NA,NA,NULL,NA,NA,NA,NA,NA,NA,NA,NA,NA,NA,NA,NA,NA,NA,NA,NA,NA,NA,NA
3f360,task,flow.Sequence,1_0,NA,NA,completion,15779.76,2025,2025.14,2030.68,17810.44,17813,2024-06-25T18:40:20Z,17827.12,Tester,wanaojaribu,s,sherti,sihiri,mlipuko,NA,NA,NA,NULL,NA,NA,NA,NA,NA,NA,NA,NA,NA,NA,NA,NA,NA,NA,NA,NA,NA,NA,NA
3f360,Deep Question,html.Page,1_1_0_0,NA,NA,form submission,6685.88,17814,17810.44,17827.12,24513,24514,2024-06-25T18:40:27Z,24516.12,Wohlstand,mafanikio,d,chimbuko,kumbuko,mapwaji,boah,NA,NA,NULL,NA,NA,NA,NA,NA,NA,NA,NA,NA,NA,NA,NA,NA,NA,NA,NA,NA,NA,NA
3f360,Save data screen,canvas.Screen,1_1_0_1,NA,NA,timeout,500.26,24516,24510.54,24516.12,24999.7,25001,2024-06-25T18:40:27Z,25016.38,Wohlstand,mafanikio,d,chimbuko,kumbuko,mapwaji,NA,NA,0,NULL,NA,NA,NA,NA,NA,NA,NA,NA,NA,NA,NA,NA,NA,NA,NA,NA,NA,NA,NA
3f360,deep,flow.Sequence,1_1_0,NA,NA,completion,7172.58,17814,17810.44,17827.12,24999.7,25002,2024-06-25T18:40:27Z,25016.38,Wohlstand,mafanikio,d,chimbuko,kumbuko,mapwaji,NA,NA,NA,NULL,NA,NA,NA,NA,NA,NA,NA,NA,NA,NA,NA,NA,NA,NA,NA,NA,NA,NA,NA
3f360,task,flow.Sequence,1_1,NA,NA,completion,7172.58,17813,17810.44,17827.12,24999.7,25003,2024-06-25T18:40:27Z,25016.38,Wohlstand,mafanikio,d,chimbuko,kumbuko,mapwaji,NA,NA,NA,NULL,NA,NA,NA,NA,NA,NA,NA,NA,NA,NA,NA,NA,NA,NA,NA,NA,NA,NA,NA
3f360,Deep Question,html.Page,1_2_0_0,NA,NA,form submission,124645.62,25003,24999.7,25016.38,149662,149664,2024-06-25T18:42:32Z,149669.4,Schüler,mwanafunzi,s,mwekezaji,matumizi,uaminifu,NA,NA,NA,NULL,NA,NA,NA,NA,NA,NA,NA,NA,NA,NA,NA,NA,NA,NA,NA,NA,NA,NA,NA
3f360,Save data screen,canvas.Screen,1_2_0_1,NA,NA,timeout,500.26000000001,149670,149657.4,149669.4,150152.98,150155,2024-06-25T18:42:32Z,150169.66,Schüler,mwanafunzi,s,mwekezaji,matumizi,uaminifu,NA,NA,0,NULL,NA,NA,NA,NA,NA,NA,NA,NA,NA,NA,NA,NA,NA,NA,NA,NA,NA,NA,NA
3f360,deep,flow.Sequence,1_2_0,NA,NA,completion,125136.6,25003,24999.7,25016.38,150152.98,150155,2024-06-25T18:42:32Z,150169.66,Schüler,mwanafunzi,s,mwekezaji,matumizi,uaminifu,NA,NA,NA,NULL,NA,NA,NA,NA,NA,NA,NA,NA,NA,NA,NA,NA,NA,NA,NA,NA,NA,NA,NA
3f360,task,flow.Sequence,1_2,NA,NA,completion,125136.6,25003,24999.7,25016.38,150152.98,150156,2024-06-25T18:42:32Z,150169.66,Schüler,mwanafunzi,s,mwekezaji,matumizi,uaminifu,NA,NA,NA,NULL,NA,NA,NA,NA,NA,NA,NA,NA,NA,NA,NA,NA,NA,NA,NA,NA,NA,NA,NA
3f360,Deep Question,html.Page,1_3_0_0,NA,NA,form submission,5117.34,150157,150152.98,150169.66,155287,155287,2024-06-25T18:42:37Z,155290.76,Verpackung,ufungaji,s,uhusiano,upimaji,uchunguzi,kei ahnig,NA,NA,NULL,NA,NA,NA,NA,NA,NA,NA,NA,NA,NA,NA,NA,NA,NA,NA,NA,NA,NA,NA
3f360,Save data screen,canvas.Screen,1_3_0_1,NA,NA,timeout,500.39999999999,155288,155282.06,155290.76,155774.48,155775,2024-06-25T18:42:38Z,155791.16,Verpackung,ufungaji,s,uhusiano,upimaji,uchunguzi,NA,NA,0,NULL,NA,NA,NA,NA,NA,NA,NA,NA,NA,NA,NA,NA,NA,NA,NA,NA,NA,NA,NA
3f360,deep,flow.Sequence,1_3_0,NA,NA,completion,5604.82,150157,150152.98,150169.66,155774.48,155776,2024-06-25T18:42:38Z,155791.16,Verpackung,ufungaji,s,uhusiano,upimaji,uchunguzi,NA,NA,NA,NULL,NA,NA,NA,NA,NA,NA,NA,NA,NA,NA,NA,NA,NA,NA,NA,NA,NA,NA,NA
3f360,task,flow.Sequence,1_3,NA,NA,completion,5604.82,150156,150152.98,150169.66,155774.48,155776,2024-06-25T18:42:38Z,155791.16,Verpackung,ufungaji,s,uhusiano,upimaji,uchunguzi,NA,NA,NA,NULL,NA,NA,NA,NA,NA,NA,NA,NA,NA,NA,NA,NA,NA,NA,NA,NA,NA,NA,NA
3f360,Deep Question,html.Page,1_4_0_0,NA,NA,form submission,7467.84,155776,155774.48,155791.16,163259,163259,2024-06-25T18:42:45Z,163264.06,Vermutung,udhanifu,s,haramia,tikisho,itifaki,böh,NA,NA,NULL,NA,NA,NA,NA,NA,NA,NA,NA,NA,NA,NA,NA,NA,NA,NA,NA,NA,NA,NA
3f360,Save data screen,canvas.Screen,1_4_0_1,NA,NA,timeout,500.38,163260,163255.04,163264.06,163747.76,163749,2024-06-25T18:42:46Z,163764.44,Vermutung,udhanifu,s,haramia,tikisho,itifaki,NA,NA,0,NULL,NA,NA,NA,NA,NA,NA,NA,NA,NA,NA,NA,NA,NA,NA,NA,NA,NA,NA,NA
3f360,deep,flow.Sequence,1_4_0,NA,NA,completion,7956.6,155776,155774.48,155791.16,163747.76,163750,2024-06-25T18:42:46Z,163764.44,Vermutung,udhanifu,s,haramia,tikisho,itifaki,NA,NA,NA,NULL,NA,NA,NA,NA,NA,NA,NA,NA,NA,NA,NA,NA,NA,NA,NA,NA,NA,NA,NA
3f360,task,flow.Sequence,1_4,NA,NA,completion,7956.6,155776,155774.48,155791.16,163747.76,163750,2024-06-25T18:42:46Z,163764.44,Vermutung,udhanifu,s,haramia,tikisho,itifaki,NA,NA,NA,NULL,NA,NA,NA,NA,NA,NA,NA,NA,NA,NA,NA,NA,NA,NA,NA,NA,NA,NA,NA
3f360,Deep Question,html.Page,1_5_0_0,NA,NA,form submission,12238.56,163751,163747.76,163764.44,176003,176003,2024-06-25T18:42:58Z,176007.88,Vergnügen,kichekesho,s,dubwana,mpanuko,mtesaji,kinyongo,NA,NA,NULL,NA,NA,NA,NA,NA,NA,NA,NA,NA,NA,NA,NA,NA,NA,NA,NA,NA,NA,NA
3f360,Save data screen,canvas.Screen,1_5_0_1,NA,NA,timeout,500.28,176004,175998.54,176007.88,176491.48,176493,2024-06-25T18:42:59Z,176508.16,Vergnügen,kichekesho,s,dubwana,mpanuko,mtesaji,NA,NA,0,NULL,NA,NA,NA,NA,NA,NA,NA,NA,NA,NA,NA,NA,NA,NA,NA,NA,NA,NA,NA
3f360,deep,flow.Sequence,1_5_0,NA,NA,completion,12727.04,163750,163747.76,163764.44,176491.48,176493,2024-06-25T18:42:59Z,176508.16,Vergnügen,kichekesho,s,dubwana,mpanuko,mtesaji,NA,NA,NA,NULL,NA,NA,NA,NA,NA,NA,NA,NA,NA,NA,NA,NA,NA,NA,NA,NA,NA,NA,NA
3f360,task,flow.Sequence,1_5,NA,NA,completion,12727.04,163750,163747.76,163764.44,176491.48,176493,2024-06-25T18:42:59Z,176508.16,Vergnügen,kichekesho,s,dubwana,mpanuko,mtesaji,NA,NA,NA,NULL,NA,NA,NA,NA,NA,NA,NA,NA,NA,NA,NA,NA,NA,NA,NA,NA,NA,NA,NA
3f360,Deep Question,html.Page,1_6_0_0,NA,NA,form submission,12744.84,176494,176491.48,176508.16,189253,189253,2024-06-25T18:43:11Z,189251.96,Schock,mshtuko,d,biashara,kukataza,vichekesho,mashoka,NA,NA,NULL,NA,NA,NA,NA,NA,NA,NA,NA,NA,NA,NA,NA,NA,NA,NA,NA,NA,NA,NA
3f360,Save data screen,canvas.Screen,1_6_0_1,NA,NA,timeout,500.72,189256,189250.08,189251.96,189736,189737,2024-06-25T18:43:12Z,189752.68,Schock,mshtuko,d,biashara,kukataza,vichekesho,NA,NA,0,NULL,NA,NA,NA,NA,NA,NA,NA,NA,NA,NA,NA,NA,NA,NA,NA,NA,NA,NA,NA
3f360,deep,flow.Sequence,1_6_0,NA,NA,completion,13227.84,176494,176491.48,176508.16,189736,189737,2024-06-25T18:43:12Z,189752.68,Schock,mshtuko,d,biashara,kukataza,vichekesho,NA,NA,NA,NULL,NA,NA,NA,NA,NA,NA,NA,NA,NA,NA,NA,NA,NA,NA,NA,NA,NA,NA,NA
3f360,task,flow.Sequence,1_6,NA,NA,completion,13227.84,176494,176491.48,176508.16,189736,189737,2024-06-25T18:43:12Z,189752.68,Schock,mshtuko,d,biashara,kukataza,vichekesho,NA,NA,NA,NULL,NA,NA,NA,NA,NA,NA,NA,NA,NA,NA,NA,NA,NA,NA,NA,NA,NA,NA,NA
3f360,Deep Question,html.Page,1_7_0_0,NA,NA,form submission,9752.32,189738,189736,189752.68,199505,199505,2024-06-25T18:43:22Z,199510.7,Ergänzung,kijalizo,d,ulaghai,mustarehe,matangazo,kinyongo,NA,NA,NULL,NA,NA,NA,NA,NA,NA,NA,NA,NA,NA,NA,NA,NA,NA,NA,NA,NA,NA,NA
3f360,Save data screen,canvas.Screen,1_7_0_1,NA,NA,timeout,500.51999999999,199507,199502.5,199510.7,199994.54,199997,2024-06-25T18:43:22Z,200011.22,Ergänzung,kijalizo,d,ulaghai,mustarehe,matangazo,NA,NA,0,NULL,NA,NA,NA,NA,NA,NA,NA,NA,NA,NA,NA,NA,NA,NA,NA,NA,NA,NA,NA
3f360,deep,flow.Sequence,1_7_0,NA,NA,completion,10241.86,189738,189736,189752.68,199994.54,199997,2024-06-25T18:43:22Z,200011.22,Ergänzung,kijalizo,d,ulaghai,mustarehe,matangazo,NA,NA,NA,NULL,NA,NA,NA,NA,NA,NA,NA,NA,NA,NA,NA,NA,NA,NA,NA,NA,NA,NA,NA
3f360,task,flow.Sequence,1_7,NA,NA,completion,10241.86,189737,189736,189752.68,199994.54,199997,2024-06-25T18:43:22Z,200011.22,Ergänzung,kijalizo,d,ulaghai,mustarehe,matangazo,NA,NA,NA,NULL,NA,NA,NA,NA,NA,NA,NA,NA,NA,NA,NA,NA,NA,NA,NA,NA,NA,NA,NA
3f360,Deep Question,html.Page,1_8_0_0,NA,NA,form submission,7151.78,199998,199994.54,200011.22,207163,207164,2024-06-25T18:43:29Z,207167.02,Toleranz,kuvumiliana,d,maombolezo,ujasusi,mchekeshaji,NA,NA,NA,NULL,NA,NA,NA,NA,NA,NA,NA,NA,NA,NA,NA,NA,NA,NA,NA,NA,NA,NA,NA
3f360,Save data screen,canvas.Screen,1_8_0_1,NA,NA,timeout,500.40000000002,207165,207160.52,207167.02,207650.74,207653,2024-06-25T18:43:30Z,207667.42,Toleranz,kuvumiliana,d,maombolezo,ujasusi,mchekeshaji,NA,NA,0,NULL,NA,NA,NA,NA,NA,NA,NA,NA,NA,NA,NA,NA,NA,NA,NA,NA,NA,NA,NA
3f360,deep,flow.Sequence,1_8_0,NA,NA,completion,7639.52,199997,199994.54,200011.22,207650.74,207654,2024-06-25T18:43:30Z,207667.42,Toleranz,kuvumiliana,d,maombolezo,ujasusi,mchekeshaji,NA,NA,NA,NULL,NA,NA,NA,NA,NA,NA,NA,NA,NA,NA,NA,NA,NA,NA,NA,NA,NA,NA,NA
3f360,task,flow.Sequence,1_8,NA,NA,completion,7639.52,199997,199994.54,200011.22,207650.74,207654,2024-06-25T18:43:30Z,207667.42,Toleranz,kuvumiliana,d,maombolezo,ujasusi,mchekeshaji,NA,NA,NA,NULL,NA,NA,NA,NA,NA,NA,NA,NA,NA,NA,NA,NA,NA,NA,NA,NA,NA,NA,NA
3f360,Deep Question,html.Page,1_9_0_0,NA,NA,form submission,11600.58,207655,207650.74,207667.42,219268,219269,2024-06-25T18:43:41Z,219276.96,Spionage,upelelezi,d,maslahi,utokazo,magangao,umbulizi,NA,NA,NULL,NA,NA,NA,NA,NA,NA,NA,NA,NA,NA,NA,NA,NA,NA,NA,NA,NA,NA,NA
3f360,Save data screen,canvas.Screen,1_9_0_1,NA,NA,timeout,500.46000000002,219270,219265.58,219276.96,219760.74,219763,2024-06-25T18:43:42Z,219777.42,Spionage,upelelezi,d,maslahi,utokazo,magangao,NA,NA,0,NULL,NA,NA,NA,NA,NA,NA,NA,NA,NA,NA,NA,NA,NA,NA,NA,NA,NA,NA,NA
3f360,deep,flow.Sequence,1_9_0,NA,NA,completion,12093.32,207654,207650.74,207667.42,219760.74,219764,2024-06-25T18:43:42Z,219777.42,Spionage,upelelezi,d,maslahi,utokazo,magangao,NA,NA,NA,NULL,NA,NA,NA,NA,NA,NA,NA,NA,NA,NA,NA,NA,NA,NA,NA,NA,NA,NA,NA
3f360,task,flow.Sequence,1_9,NA,NA,completion,12093.32,207654,207650.74,207667.42,219760.74,219764,2024-06-25T18:43:42Z,219777.42,Spionage,upelelezi,d,maslahi,utokazo,magangao,NA,NA,NA,NULL,NA,NA,NA,NA,NA,NA,NA,NA,NA,NA,NA,NA,NA,NA,NA,NA,NA,NA,NA
3f360,Deep Question,html.Page,1_10_0_0,NA,NA,form submission,6129.58,219764,219760.74,219777.42,225907,225909,2024-06-25T18:43:48Z,225916,Inhalt,yaliyomo,s,kishawishi,hifadhi,kutembea,nope,NA,NA,NULL,NA,NA,NA,NA,NA,NA,NA,NA,NA,NA,NA,NA,NA,NA,NA,NA,NA,NA,NA
3f360,Save data screen,canvas.Screen,1_10_0_1,NA,NA,timeout,500.26000000001,225909,225904.66,225916,226399.6,226403,2024-06-25T18:43:49Z,226416.26,Inhalt,yaliyomo,s,kishawishi,hifadhi,kutembea,NA,NA,0,NULL,NA,NA,NA,NA,NA,NA,NA,NA,NA,NA,NA,NA,NA,NA,NA,NA,NA,NA,NA
3f360,deep,flow.Sequence,1_10_0,NA,NA,completion,6622.18,219764,219760.74,219777.42,226399.6,226405,2024-06-25T18:43:49Z,226416.26,Inhalt,yaliyomo,s,kishawishi,hifadhi,kutembea,NA,NA,NA,NULL,NA,NA,NA,NA,NA,NA,NA,NA,NA,NA,NA,NA,NA,NA,NA,NA,NA,NA,NA
3f360,task,flow.Sequence,1_10,NA,NA,completion,6622.18,219764,219760.74,219777.42,226399.6,226406,2024-06-25T18:43:49Z,226416.26,Inhalt,yaliyomo,s,kishawishi,hifadhi,kutembea,NA,NA,NA,NULL,NA,NA,NA,NA,NA,NA,NA,NA,NA,NA,NA,NA,NA,NA,NA,NA,NA,NA,NA
3f360,Deep Question,html.Page,1_11_0_0,NA,NA,form submission,11169.74,226406,226399.6,226416.26,237586,237586,2024-06-25T18:44:00Z,237592.26,Schlange,foleni,d,uvumilivu,uteuzi,muuzaji,foleni,NA,NA,NULL,NA,NA,NA,NA,NA,NA,NA,NA,NA,NA,NA,NA,NA,NA,NA,NA,NA,NA,NA
3f360,Save data screen,canvas.Screen,1_11_0_1,NA,NA,timeout,500.39999999999,237591,237580.8,237592.26,238075.98,238078,2024-06-25T18:44:00Z,238092.66,Schlange,foleni,d,uvumilivu,uteuzi,muuzaji,NA,NA,1,NULL,NA,NA,NA,NA,NA,NA,NA,NA,NA,NA,NA,NA,NA,NA,NA,NA,NA,NA,NA
3f360,deep,flow.Sequence,1_11_0,NA,NA,completion,11659.72,226406,226399.6,226416.26,238075.98,238078,2024-06-25T18:44:00Z,238092.66,Schlange,foleni,d,uvumilivu,uteuzi,muuzaji,NA,NA,NA,NULL,NA,NA,NA,NA,NA,NA,NA,NA,NA,NA,NA,NA,NA,NA,NA,NA,NA,NA,NA
3f360,task,flow.Sequence,1_11,NA,NA,completion,11659.72,226406,226399.6,226416.26,238075.98,238079,2024-06-25T18:44:00Z,238092.66,Schlange,foleni,d,uvumilivu,uteuzi,muuzaji,NA,NA,NA,NULL,NA,NA,NA,NA,NA,NA,NA,NA,NA,NA,NA,NA,NA,NA,NA,NA,NA,NA,NA
3f360,Deep Question,html.Page,1_12_0_0,NA,NA,form submission,16966.34,238079,238075.98,238092.66,255059,255060,2024-06-25T18:44:17Z,255056.68,Theorie,nadharia,d,ushungi,mkutano,uwakilishi,nadaria,NA,NA,NULL,NA,NA,NA,NA,NA,NA,NA,NA,NA,NA,NA,NA,NA,NA,NA,NA,NA,NA,NA
3f360,Save data screen,canvas.Screen,1_12_0_1,NA,NA,timeout,500.28,255061,255056.06,255056.68,255540.28,255542,2024-06-25T18:44:18Z,255556.96,Theorie,nadharia,d,ushungi,mkutano,uwakilishi,NA,NA,0,NULL,NA,NA,NA,NA,NA,NA,NA,NA,NA,NA,NA,NA,NA,NA,NA,NA,NA,NA,NA
3f360,deep,flow.Sequence,1_12_0,NA,NA,completion,17447.62,238079,238075.98,238092.66,255540.28,255542,2024-06-25T18:44:18Z,255556.96,Theorie,nadharia,d,ushungi,mkutano,uwakilishi,NA,NA,NA,NULL,NA,NA,NA,NA,NA,NA,NA,NA,NA,NA,NA,NA,NA,NA,NA,NA,NA,NA,NA
3f360,task,flow.Sequence,1_12,NA,NA,completion,17447.62,238079,238075.98,238092.66,255540.28,255543,2024-06-25T18:44:18Z,255556.96,Theorie,nadharia,d,ushungi,mkutano,uwakilishi,NA,NA,NA,NULL,NA,NA,NA,NA,NA,NA,NA,NA,NA,NA,NA,NA,NA,NA,NA,NA,NA,NA,NA
3f360,Deep Question,html.Page,1_13_0_0,NA,NA,form submission,40815.04,255544,255540.28,255556.96,296372,296374,2024-06-25T18:44:59Z,296374.3,Fenster,dirisha,d,walakini,tasawari,maarifa,jdbvfidj,NA,NA,NULL,NA,NA,NA,NA,NA,NA,NA,NA,NA,NA,NA,NA,NA,NA,NA,NA,NA,NA,NA
3f360,Save data screen,canvas.Screen,1_13_0_1,NA,NA,timeout,500.26000000001,296379,296366.76,296374.3,296857.88,296860,2024-06-25T18:44:59Z,296874.56,Fenster,dirisha,d,walakini,tasawari,maarifa,NA,NA,0,NULL,NA,NA,NA,NA,NA,NA,NA,NA,NA,NA,NA,NA,NA,NA,NA,NA,NA,NA,NA
3f360,deep,flow.Sequence,1_13_0,NA,NA,completion,41300.92,255543,255540.28,255556.96,296857.88,296860,2024-06-25T18:44:59Z,296874.56,Fenster,dirisha,d,walakini,tasawari,maarifa,NA,NA,NA,NULL,NA,NA,NA,NA,NA,NA,NA,NA,NA,NA,NA,NA,NA,NA,NA,NA,NA,NA,NA
3f360,task,flow.Sequence,1_13,NA,NA,completion,41300.92,255543,255540.28,255556.96,296857.88,296861,2024-06-25T18:44:59Z,296874.56,Fenster,dirisha,d,walakini,tasawari,maarifa,NA,NA,NA,NULL,NA,NA,NA,NA,NA,NA,NA,NA,NA,NA,NA,NA,NA,NA,NA,NA,NA,NA,NA
3f360,Deep Question,html.Page,1_14_0_0,NA,NA,form submission,2962.44,296862,296857.88,296874.56,299837,299837,2024-06-25T18:45:02Z,299843.88,Notfall,dharura,s,rairai,malalamiko,ahueni,fvf,NA,NA,NULL,NA,NA,NA,NA,NA,NA,NA,NA,NA,NA,NA,NA,NA,NA,NA,NA,NA,NA,NA
3f360,Save data screen,canvas.Screen,1_14_0_1,NA,NA,timeout,500.15999999997,299839,299833.12,299843.88,300327.36,300329,2024-06-25T18:45:03Z,300344.04,Notfall,dharura,s,rairai,malalamiko,ahueni,NA,NA,0,NULL,NA,NA,NA,NA,NA,NA,NA,NA,NA,NA,NA,NA,NA,NA,NA,NA,NA,NA,NA
3f360,deep,flow.Sequence,1_14_0,NA,NA,completion,3452.8,296862,296857.88,296874.56,300327.36,300329,2024-06-25T18:45:03Z,300344.04,Notfall,dharura,s,rairai,malalamiko,ahueni,NA,NA,NA,NULL,NA,NA,NA,NA,NA,NA,NA,NA,NA,NA,NA,NA,NA,NA,NA,NA,NA,NA,NA
3f360,task,flow.Sequence,1_14,NA,NA,completion,3452.8,296861,296857.88,296874.56,300327.36,300329,2024-06-25T18:45:03Z,300344.04,Notfall,dharura,s,rairai,malalamiko,ahueni,NA,NA,NA,NULL,NA,NA,NA,NA,NA,NA,NA,NA,NA,NA,NA,NA,NA,NA,NA,NA,NA,NA,NA
3f360,Deep Question,html.Page,1_15_0_0,NA,NA,form submission,3631.96,300330,300327.36,300344.04,303976,303976,2024-06-25T18:45:06Z,303980.5,Hoffnung,matarajio,s,kutaalamika,uratibu,mvumbuzi,NA,NA,NA,NULL,NA,NA,NA,NA,NA,NA,NA,NA,NA,NA,NA,NA,NA,NA,NA,NA,NA,NA,NA
3f360,Save data screen,canvas.Screen,1_15_0_1,NA,NA,timeout,500.28000000003,303978,303972.24,303980.5,304464.1,304466,2024-06-25T18:45:07Z,304480.78,Hoffnung,matarajio,s,kutaalamika,uratibu,mvumbuzi,NA,NA,0,NULL,NA,NA,NA,NA,NA,NA,NA,NA,NA,NA,NA,NA,NA,NA,NA,NA,NA,NA,NA
3f360,deep,flow.Sequence,1_15_0,NA,NA,completion,4120.06,300330,300327.36,300344.04,304464.1,304467,2024-06-25T18:45:07Z,304480.78,Hoffnung,matarajio,s,kutaalamika,uratibu,mvumbuzi,NA,NA,NA,NULL,NA,NA,NA,NA,NA,NA,NA,NA,NA,NA,NA,NA,NA,NA,NA,NA,NA,NA,NA
3f360,task,flow.Sequence,1_15,NA,NA,completion,4120.06,300330,300327.36,300344.04,304464.1,304467,2024-06-25T18:45:07Z,304480.78,Hoffnung,matarajio,s,kutaalamika,uratibu,mvumbuzi,NA,NA,NA,NULL,NA,NA,NA,NA,NA,NA,NA,NA,NA,NA,NA,NA,NA,NA,NA,NA,NA,NA,NA
3f360,retrieval block 1 (cued recall),flow.Loop,1,NA,NA,completion,302433.42,2025,2025.14,2030.68,304464.1,304467,2024-06-25T18:45:07Z,304480.78,NA,NA,NA,NA,NA,NA,NA,NA,NA,NULL,NA,NA,NA,NA,NA,NA,NA,NA,NA,NA,NA,NA,NA,NA,NA,NA,NA,NA,NA
3f360,Shallow Question,html.Page,2_0_0_0,NA,NA,form submission,6238.22,304467,304464.1,304480.78,310719,310719,2024-06-25T18:45:13Z,310719.38,Hoffnung,matarajio,s,kutaalamika,uratibu,mvumbuzi,uratibu,NA,NA,"c(""distractor1"", ""distractor2"", ""distractor3"")",NA,NA,NA,NA,NA,NA,NA,NA,NA,NA,NA,NA,NA,NA,NA,NA,NA,NA,NA
3f360,Save data screen,canvas.Screen,2_0_0_1,NA,NA,timeout,500.32000000001,310721,310714.78,310719.38,311203.02,311205,2024-06-25T18:45:13Z,311219.7,Hoffnung,matarajio,s,kutaalamika,uratibu,mvumbuzi,NA,NA,0,"c(""distractor1"", ""distractor2"", ""distractor3"")",NA,NA,NA,NA,NA,NA,NA,NA,NA,NA,NA,NA,NA,NA,NA,NA,NA,NA,NA
3f360,shallow,flow.Sequence,2_0_0,NA,NA,completion,6722.24,304467,304464.1,304480.78,311203.02,311205,2024-06-25T18:45:13Z,311219.7,Hoffnung,matarajio,s,kutaalamika,uratibu,mvumbuzi,NA,NA,NA,"c(""distractor1"", ""distractor2"", ""distractor3"")",NA,NA,NA,NA,NA,NA,NA,NA,NA,NA,NA,NA,NA,NA,NA,NA,NA,NA,NA
3f360,task,flow.Sequence,2_0,NA,NA,completion,6722.24,304467,304464.1,304480.78,311203.02,311205,2024-06-25T18:45:13Z,311219.7,Hoffnung,matarajio,s,kutaalamika,uratibu,mvumbuzi,NA,NA,NA,"c(""distractor1"", ""distractor2"", ""distractor3"")",NA,NA,NA,NA,NA,NA,NA,NA,NA,NA,NA,NA,NA,NA,NA,NA,NA,NA,NA
3f360,Shallow Question,html.Page,2_1_0_0,NA,NA,form submission,3916.3,311205,311203.02,311219.7,315136,315137,2024-06-25T18:45:17Z,315139.66,Schüler,mwanafunzi,s,mwekezaji,matumizi,uaminifu,mwanafunzi,NA,NA,"c(""distractor1"", ""distractor2"", ""distractor3"")",NA,NA,NA,NA,NA,NA,NA,NA,NA,NA,NA,NA,NA,NA,NA,NA,NA,NA,NA
3f360,Save data screen,canvas.Screen,2_1_0_1,NA,NA,timeout,500.40000000002,315138,315132.46,315139.66,315623.38,315625,2024-06-25T18:45:18Z,315640.06,Schüler,mwanafunzi,s,mwekezaji,matumizi,uaminifu,NA,NA,1,"c(""distractor1"", ""distractor2"", ""distractor3"")",NA,NA,NA,NA,NA,NA,NA,NA,NA,NA,NA,NA,NA,NA,NA,NA,NA,NA,NA
3f360,shallow,flow.Sequence,2_1_0,NA,NA,completion,4403.68,311205,311203.02,311219.7,315623.38,315626,2024-06-25T18:45:18Z,315640.06,Schüler,mwanafunzi,s,mwekezaji,matumizi,uaminifu,NA,NA,NA,"c(""distractor1"", ""distractor2"", ""distractor3"")",NA,NA,NA,NA,NA,NA,NA,NA,NA,NA,NA,NA,NA,NA,NA,NA,NA,NA,NA
3f360,task,flow.Sequence,2_1,NA,NA,completion,4403.68,311205,311203.02,311219.7,315623.38,315626,2024-06-25T18:45:18Z,315640.06,Schüler,mwanafunzi,s,mwekezaji,matumizi,uaminifu,NA,NA,NA,"c(""distractor1"", ""distractor2"", ""distractor3"")",NA,NA,NA,NA,NA,NA,NA,NA,NA,NA,NA,NA,NA,NA,NA,NA,NA,NA,NA
3f360,Shallow Question,html.Page,2_2_0_0,NA,NA,form submission,4805.94,315626,315623.38,315640.06,320446,320446,2024-06-25T18:45:23Z,320444.06,Vermutung,udhanifu,s,haramia,tikisho,itifaki,haramia,NA,NA,"c(""distractor1"", ""distractor2"", ""distractor3"")",NA,NA,NA,NA,NA,NA,NA,NA,NA,NA,NA,NA,NA,NA,NA,NA,NA,NA,NA
3f360,Save data screen,canvas.Screen,2_2_0_1,NA,NA,timeout,500.28000000003,320447,320442.94,320444.06,320927.66,320929,2024-06-25T18:45:23Z,320944.34,Vermutung,udhanifu,s,haramia,tikisho,itifaki,NA,NA,0,"c(""distractor1"", ""distractor2"", ""distractor3"")",NA,NA,NA,NA,NA,NA,NA,NA,NA,NA,NA,NA,NA,NA,NA,NA,NA,NA,NA
3f360,shallow,flow.Sequence,2_2_0,NA,NA,completion,5287.6,315626,315623.38,315640.06,320927.66,320929,2024-06-25T18:45:23Z,320944.34,Vermutung,udhanifu,s,haramia,tikisho,itifaki,NA,NA,NA,"c(""distractor1"", ""distractor2"", ""distractor3"")",NA,NA,NA,NA,NA,NA,NA,NA,NA,NA,NA,NA,NA,NA,NA,NA,NA,NA,NA
3f360,task,flow.Sequence,2_2,NA,NA,completion,5287.6,315626,315623.38,315640.06,320927.66,320929,2024-06-25T18:45:23Z,320944.34,Vermutung,udhanifu,s,haramia,tikisho,itifaki,NA,NA,NA,"c(""distractor1"", ""distractor2"", ""distractor3"")",NA,NA,NA,NA,NA,NA,NA,NA,NA,NA,NA,NA,NA,NA,NA,NA,NA,NA,NA
3f360,Shallow Question,html.Page,2_3_0_0,NA,NA,form submission,3056.66,320930,320927.66,320944.34,324001,324001,2024-06-25T18:45:26Z,324013.4,Theorie,nadharia,d,ushungi,mkutano,uwakilishi,nadharia,NA,NA,"c(""distractor1"", ""distractor2"", ""distractor3"")",NA,NA,NA,NA,NA,NA,NA,NA,NA,NA,NA,NA,NA,NA,NA,NA,NA,NA,NA
3f360,Save data screen,canvas.Screen,2_3_0_1,NA,NA,timeout,500.27999999997,324002,323996.94,324013.4,324497,324499,2024-06-25T18:45:27Z,324513.68,Theorie,nadharia,d,ushungi,mkutano,uwakilishi,NA,NA,1,"c(""distractor1"", ""distractor2"", ""distractor3"")",NA,NA,NA,NA,NA,NA,NA,NA,NA,NA,NA,NA,NA,NA,NA,NA,NA,NA,NA
3f360,shallow,flow.Sequence,2_3_0,NA,NA,completion,3552.66,320930,320927.66,320944.34,324497,324499,2024-06-25T18:45:27Z,324513.68,Theorie,nadharia,d,ushungi,mkutano,uwakilishi,NA,NA,NA,"c(""distractor1"", ""distractor2"", ""distractor3"")",NA,NA,NA,NA,NA,NA,NA,NA,NA,NA,NA,NA,NA,NA,NA,NA,NA,NA,NA
3f360,task,flow.Sequence,2_3,NA,NA,completion,3552.66,320930,320927.66,320944.34,324497,324500,2024-06-25T18:45:27Z,324513.68,Theorie,nadharia,d,ushungi,mkutano,uwakilishi,NA,NA,NA,"c(""distractor1"", ""distractor2"", ""distractor3"")",NA,NA,NA,NA,NA,NA,NA,NA,NA,NA,NA,NA,NA,NA,NA,NA,NA,NA,NA
3f360,Shallow Question,html.Page,2_4_0_0,NA,NA,form submission,12786.32,324500,324497,324513.68,337300,337301,2024-06-25T18:45:39Z,337308.1,Verpackung,ufungaji,s,uhusiano,upimaji,uchunguzi,ufungaji,NA,NA,"c(""distractor1"", ""distractor2"", ""distractor3"")",NA,NA,NA,NA,NA,NA,NA,NA,NA,NA,NA,NA,NA,NA,NA,NA,NA,NA,NA
3f360,Save data screen,canvas.Screen,2_4_0_1,NA,NA,timeout,500.26000000001,337302,337296.74,337308.1,337791.7,337794,2024-06-25T18:45:40Z,337808.36,Verpackung,ufungaji,s,uhusiano,upimaji,uchunguzi,NA,NA,1,"c(""distractor1"", ""distractor2"", ""distractor3"")",NA,NA,NA,NA,NA,NA,NA,NA,NA,NA,NA,NA,NA,NA,NA,NA,NA,NA,NA
3f360,shallow,flow.Sequence,2_4_0,NA,NA,completion,13278.02,324500,324497,324513.68,337791.7,337794,2024-06-25T18:45:40Z,337808.36,Verpackung,ufungaji,s,uhusiano,upimaji,uchunguzi,NA,NA,NA,"c(""distractor1"", ""distractor2"", ""distractor3"")",NA,NA,NA,NA,NA,NA,NA,NA,NA,NA,NA,NA,NA,NA,NA,NA,NA,NA,NA
3f360,task,flow.Sequence,2_4,NA,NA,completion,13278.02,324500,324497,324513.68,337791.7,337794,2024-06-25T18:45:40Z,337808.36,Verpackung,ufungaji,s,uhusiano,upimaji,uchunguzi,NA,NA,NA,"c(""distractor1"", ""distractor2"", ""distractor3"")",NA,NA,NA,NA,NA,NA,NA,NA,NA,NA,NA,NA,NA,NA,NA,NA,NA,NA,NA
3f360,Shallow Question,html.Page,2_5_0_0,NA,NA,form submission,3990.64,337794,337791.7,337808.36,341799,341799,2024-06-25T18:45:44Z,341811.86,Toleranz,kuvumiliana,d,maombolezo,ujasusi,mchekeshaji,kuvumiliana,NA,NA,"c(""distractor1"", ""distractor2"", ""distractor3"")",NA,NA,NA,NA,NA,NA,NA,NA,NA,NA,NA,NA,NA,NA,NA,NA,NA,NA,NA
3f360,Save data screen,canvas.Screen,2_5_0_1,NA,NA,timeout,500.32000000001,341800,341795.34,341811.86,342295.52,342298,2024-06-25T18:45:44Z,342312.18,Toleranz,kuvumiliana,d,maombolezo,ujasusi,mchekeshaji,NA,NA,1,"c(""distractor1"", ""distractor2"", ""distractor3"")",NA,NA,NA,NA,NA,NA,NA,NA,NA,NA,NA,NA,NA,NA,NA,NA,NA,NA,NA
3f360,shallow,flow.Sequence,2_5_0,NA,NA,completion,4487.16,337794,337791.7,337808.36,342295.52,342300,2024-06-25T18:45:44Z,342312.18,Toleranz,kuvumiliana,d,maombolezo,ujasusi,mchekeshaji,NA,NA,NA,"c(""distractor1"", ""distractor2"", ""distractor3"")",NA,NA,NA,NA,NA,NA,NA,NA,NA,NA,NA,NA,NA,NA,NA,NA,NA,NA,NA
3f360,task,flow.Sequence,2_5,NA,NA,completion,4487.16,337794,337791.7,337808.36,342295.52,342300,2024-06-25T18:45:44Z,342312.18,Toleranz,kuvumiliana,d,maombolezo,ujasusi,mchekeshaji,NA,NA,NA,"c(""distractor1"", ""distractor2"", ""distractor3"")",NA,NA,NA,NA,NA,NA,NA,NA,NA,NA,NA,NA,NA,NA,NA,NA,NA,NA,NA
3f360,Shallow Question,html.Page,2_6_0_0,NA,NA,form submission,7564.82,342301,342295.52,342312.18,349877,349879,2024-06-25T18:45:52Z,349885.1,Tester,wanaojaribu,s,sherti,sihiri,mlipuko,sherti,NA,NA,"c(""distractor1"", ""distractor2"", ""distractor3"")",NA,NA,NA,NA,NA,NA,NA,NA,NA,NA,NA,NA,NA,NA,NA,NA,NA,NA,NA
3f360,Save data screen,canvas.Screen,2_6_0_1,NA,NA,timeout,500.42000000004,349884,349872.78,349885.1,350368.84,350371,2024-06-25T18:45:53Z,350385.52,Tester,wanaojaribu,s,sherti,sihiri,mlipuko,NA,NA,0,"c(""distractor1"", ""distractor2"", ""distractor3"")",NA,NA,NA,NA,NA,NA,NA,NA,NA,NA,NA,NA,NA,NA,NA,NA,NA,NA,NA
3f360,shallow,flow.Sequence,2_6_0,NA,NA,completion,8056.66,342301,342295.52,342312.18,350368.84,350372,2024-06-25T18:45:53Z,350385.52,Tester,wanaojaribu,s,sherti,sihiri,mlipuko,NA,NA,NA,"c(""distractor1"", ""distractor2"", ""distractor3"")",NA,NA,NA,NA,NA,NA,NA,NA,NA,NA,NA,NA,NA,NA,NA,NA,NA,NA,NA
3f360,task,flow.Sequence,2_6,NA,NA,completion,8056.66,342301,342295.52,342312.18,350368.84,350372,2024-06-25T18:45:53Z,350385.52,Tester,wanaojaribu,s,sherti,sihiri,mlipuko,NA,NA,NA,"c(""distractor1"", ""distractor2"", ""distractor3"")",NA,NA,NA,NA,NA,NA,NA,NA,NA,NA,NA,NA,NA,NA,NA,NA,NA,NA,NA
3f360,Shallow Question,html.Page,2_7_0_0,NA,NA,form submission,12909.48,350373,350368.84,350385.52,363295,363296,2024-06-25T18:46:05Z,363295.66,Notfall,dharura,s,rairai,malalamiko,ahueni,dharura,NA,NA,"c(""distractor1"", ""distractor2"", ""distractor3"")",NA,NA,NA,NA,NA,NA,NA,NA,NA,NA,NA,NA,NA,NA,NA,NA,NA,NA,NA
3f360,Save data screen,canvas.Screen,2_7_0_1,NA,NA,timeout,500.90000000002,363298,363290.7,363295.66,363779.88,363781,2024-06-25T18:46:06Z,363796.56,Notfall,dharura,s,rairai,malalamiko,ahueni,NA,NA,1,"c(""distractor1"", ""distractor2"", ""distractor3"")",NA,NA,NA,NA,NA,NA,NA,NA,NA,NA,NA,NA,NA,NA,NA,NA,NA,NA,NA
3f360,shallow,flow.Sequence,2_7_0,NA,NA,completion,13394.36,350373,350368.84,350385.52,363779.88,363782,2024-06-25T18:46:06Z,363796.56,Notfall,dharura,s,rairai,malalamiko,ahueni,NA,NA,NA,"c(""distractor1"", ""distractor2"", ""distractor3"")",NA,NA,NA,NA,NA,NA,NA,NA,NA,NA,NA,NA,NA,NA,NA,NA,NA,NA,NA
3f360,task,flow.Sequence,2_7,NA,NA,completion,13394.36,350372,350368.84,350385.52,363779.88,363782,2024-06-25T18:46:06Z,363796.56,Notfall,dharura,s,rairai,malalamiko,ahueni,NA,NA,NA,"c(""distractor1"", ""distractor2"", ""distractor3"")",NA,NA,NA,NA,NA,NA,NA,NA,NA,NA,NA,NA,NA,NA,NA,NA,NA,NA,NA
3f360,Shallow Question,html.Page,2_8_0_0,NA,NA,form submission,2573.44,363782,363779.88,363796.56,366370,366371,2024-06-25T18:46:09Z,366382.18,Schlange,foleni,d,uvumilivu,uteuzi,muuzaji,foleni,NA,NA,"c(""distractor1"", ""distractor2"", ""distractor3"")",NA,NA,NA,NA,NA,NA,NA,NA,NA,NA,NA,NA,NA,NA,NA,NA,NA,NA,NA
3f360,Save data screen,canvas.Screen,2_8_0_1,NA,NA,timeout,500.28000000003,366372,366366.34,366382.18,366865.78,366868,2024-06-25T18:46:09Z,366882.46,Schlange,foleni,d,uvumilivu,uteuzi,muuzaji,NA,NA,1,"c(""distractor1"", ""distractor2"", ""distractor3"")",NA,NA,NA,NA,NA,NA,NA,NA,NA,NA,NA,NA,NA,NA,NA,NA,NA,NA,NA
3f360,shallow,flow.Sequence,2_8_0,NA,NA,completion,3069.22,363782,363779.88,363796.56,366865.78,366868,2024-06-25T18:46:09Z,366882.46,Schlange,foleni,d,uvumilivu,uteuzi,muuzaji,NA,NA,NA,"c(""distractor1"", ""distractor2"", ""distractor3"")",NA,NA,NA,NA,NA,NA,NA,NA,NA,NA,NA,NA,NA,NA,NA,NA,NA,NA,NA
3f360,task,flow.Sequence,2_8,NA,NA,completion,3069.22,363782,363779.88,363796.56,366865.78,366868,2024-06-25T18:46:09Z,366882.46,Schlange,foleni,d,uvumilivu,uteuzi,muuzaji,NA,NA,NA,"c(""distractor1"", ""distractor2"", ""distractor3"")",NA,NA,NA,NA,NA,NA,NA,NA,NA,NA,NA,NA,NA,NA,NA,NA,NA,NA,NA
3f360,Shallow Question,html.Page,2_9_0_0,NA,NA,form submission,3754.54,366869,366865.78,366882.46,370637,370637,2024-06-25T18:46:13Z,370635.64,Fenster,dirisha,d,walakini,tasawari,maarifa,dirisha,NA,NA,"c(""distractor1"", ""distractor2"", ""distractor3"")",NA,NA,NA,NA,NA,NA,NA,NA,NA,NA,NA,NA,NA,NA,NA,NA,NA,NA,NA
3f360,Save data screen,canvas.Screen,2_9_0_1,NA,NA,timeout,500.29999999999,370639,370633.34,370635.64,371119.26,371120,2024-06-25T18:46:13Z,371135.94,Fenster,dirisha,d,walakini,tasawari,maarifa,NA,NA,1,"c(""distractor1"", ""distractor2"", ""distractor3"")",NA,NA,NA,NA,NA,NA,NA,NA,NA,NA,NA,NA,NA,NA,NA,NA,NA,NA,NA
3f360,shallow,flow.Sequence,2_9_0,NA,NA,completion,4236.8,366869,366865.78,366882.46,371119.26,371121,2024-06-25T18:46:13Z,371135.94,Fenster,dirisha,d,walakini,tasawari,maarifa,NA,NA,NA,"c(""distractor1"", ""distractor2"", ""distractor3"")",NA,NA,NA,NA,NA,NA,NA,NA,NA,NA,NA,NA,NA,NA,NA,NA,NA,NA,NA
3f360,task,flow.Sequence,2_9,NA,NA,completion,4236.8,366869,366865.78,366882.46,371119.26,371121,2024-06-25T18:46:13Z,371135.94,Fenster,dirisha,d,walakini,tasawari,maarifa,NA,NA,NA,"c(""distractor1"", ""distractor2"", ""distractor3"")",NA,NA,NA,NA,NA,NA,NA,NA,NA,NA,NA,NA,NA,NA,NA,NA,NA,NA,NA
3f360,Shallow Question,html.Page,2_10_0_0,NA,NA,form submission,3310.06,371121,371119.26,371135.94,374446,374446,2024-06-25T18:46:17Z,374455.44,Vergnügen,kichekesho,s,dubwana,mpanuko,mtesaji,kichekesho,NA,NA,"c(""distractor1"", ""distractor2"", ""distractor3"")",NA,NA,NA,NA,NA,NA,NA,NA,NA,NA,NA,NA,NA,NA,NA,NA,NA,NA,NA
3f360,Save data screen,canvas.Screen,2_10_0_1,NA,NA,timeout,500.26000000001,374447,374442.64,374455.44,374939.04,374941,2024-06-25T18:46:17Z,374955.7,Vergnügen,kichekesho,s,dubwana,mpanuko,mtesaji,NA,NA,1,"c(""distractor1"", ""distractor2"", ""distractor3"")",NA,NA,NA,NA,NA,NA,NA,NA,NA,NA,NA,NA,NA,NA,NA,NA,NA,NA,NA
3f360,shallow,flow.Sequence,2_10_0,NA,NA,completion,3803.1,371121,371119.26,371135.94,374939.04,374942,2024-06-25T18:46:17Z,374955.7,Vergnügen,kichekesho,s,dubwana,mpanuko,mtesaji,NA,NA,NA,"c(""distractor1"", ""distractor2"", ""distractor3"")",NA,NA,NA,NA,NA,NA,NA,NA,NA,NA,NA,NA,NA,NA,NA,NA,NA,NA,NA
3f360,task,flow.Sequence,2_10,NA,NA,completion,3803.1,371121,371119.26,371135.94,374939.04,374942,2024-06-25T18:46:17Z,374955.7,Vergnügen,kichekesho,s,dubwana,mpanuko,mtesaji,NA,NA,NA,"c(""distractor1"", ""distractor2"", ""distractor3"")",NA,NA,NA,NA,NA,NA,NA,NA,NA,NA,NA,NA,NA,NA,NA,NA,NA,NA,NA
3f360,Shallow Question,html.Page,2_11_0_0,NA,NA,form submission,4350.3,374942,374939.04,374955.7,379306,379306,2024-06-25T18:46:22Z,379309.4,Wohlstand,mafanikio,d,chimbuko,kumbuko,mapwaji,chimbuko,NA,NA,"c(""distractor1"", ""distractor2"", ""distractor3"")",NA,NA,NA,NA,NA,NA,NA,NA,NA,NA,NA,NA,NA,NA,NA,NA,NA,NA,NA
3f360,Save data screen,canvas.Screen,2_11_0_1,NA,NA,timeout,500.47999999998,379308,379302.98,379309.4,379793.2,379794,2024-06-25T18:46:22Z,379809.88,Wohlstand,mafanikio,d,chimbuko,kumbuko,mapwaji,NA,NA,0,"c(""distractor1"", ""distractor2"", ""distractor3"")",NA,NA,NA,NA,NA,NA,NA,NA,NA,NA,NA,NA,NA,NA,NA,NA,NA,NA,NA
3f360,shallow,flow.Sequence,2_11_0,NA,NA,completion,4837.5,374942,374939.04,374955.7,379793.2,379795,2024-06-25T18:46:22Z,379809.88,Wohlstand,mafanikio,d,chimbuko,kumbuko,mapwaji,NA,NA,NA,"c(""distractor1"", ""distractor2"", ""distractor3"")",NA,NA,NA,NA,NA,NA,NA,NA,NA,NA,NA,NA,NA,NA,NA,NA,NA,NA,NA
3f360,task,flow.Sequence,2_11,NA,NA,completion,4837.5,374942,374939.04,374955.7,379793.2,379795,2024-06-25T18:46:22Z,379809.88,Wohlstand,mafanikio,d,chimbuko,kumbuko,mapwaji,NA,NA,NA,"c(""distractor1"", ""distractor2"", ""distractor3"")",NA,NA,NA,NA,NA,NA,NA,NA,NA,NA,NA,NA,NA,NA,NA,NA,NA,NA,NA
3f360,Shallow Question,html.Page,2_12_0_0,NA,NA,form submission,4491.12,379795,379793.2,379809.88,384301,384301,2024-06-25T18:46:26Z,384313.66,Inhalt,yaliyomo,s,kishawishi,hifadhi,kutembea,kishawishi,NA,NA,"c(""distractor1"", ""distractor2"", ""distractor3"")",NA,NA,NA,NA,NA,NA,NA,NA,NA,NA,NA,NA,NA,NA,NA,NA,NA,NA,NA
3f360,Save data screen,canvas.Screen,2_12_0_1,NA,NA,timeout,500.26000000001,384302,384297.64,384313.66,384797.26,384799,2024-06-25T18:46:27Z,384813.92,Inhalt,yaliyomo,s,kishawishi,hifadhi,kutembea,NA,NA,0,"c(""distractor1"", ""distractor2"", ""distractor3"")",NA,NA,NA,NA,NA,NA,NA,NA,NA,NA,NA,NA,NA,NA,NA,NA,NA,NA,NA
3f360,shallow,flow.Sequence,2_12_0,NA,NA,completion,4987.38,379795,379793.2,379809.88,384797.26,384799,2024-06-25T18:46:27Z,384813.92,Inhalt,yaliyomo,s,kishawishi,hifadhi,kutembea,NA,NA,NA,"c(""distractor1"", ""distractor2"", ""distractor3"")",NA,NA,NA,NA,NA,NA,NA,NA,NA,NA,NA,NA,NA,NA,NA,NA,NA,NA,NA
3f360,task,flow.Sequence,2_12,NA,NA,completion,4987.38,379795,379793.2,379809.88,384797.26,384799,2024-06-25T18:46:27Z,384813.92,Inhalt,yaliyomo,s,kishawishi,hifadhi,kutembea,NA,NA,NA,"c(""distractor1"", ""distractor2"", ""distractor3"")",NA,NA,NA,NA,NA,NA,NA,NA,NA,NA,NA,NA,NA,NA,NA,NA,NA,NA,NA
3f360,Shallow Question,html.Page,2_13_0_0,NA,NA,form submission,3583.08,384800,384797.26,384813.92,388397,388397,2024-06-25T18:46:31Z,388400.26,Spionage,upelelezi,d,maslahi,utokazo,magangao,upelelezi,NA,NA,"c(""distractor1"", ""distractor2"", ""distractor3"")",NA,NA,NA,NA,NA,NA,NA,NA,NA,NA,NA,NA,NA,NA,NA,NA,NA,NA,NA
3f360,Save data screen,canvas.Screen,2_13_0_1,NA,NA,timeout,500.27999999997,388398,388393.34,388400.26,388883.86,388885,2024-06-25T18:46:31Z,388900.54,Spionage,upelelezi,d,maslahi,utokazo,magangao,NA,NA,1,"c(""distractor1"", ""distractor2"", ""distractor3"")",NA,NA,NA,NA,NA,NA,NA,NA,NA,NA,NA,NA,NA,NA,NA,NA,NA,NA,NA
3f360,shallow,flow.Sequence,2_13_0,NA,NA,completion,4069.94,384800,384797.26,384813.92,388883.86,388886,2024-06-25T18:46:31Z,388900.54,Spionage,upelelezi,d,maslahi,utokazo,magangao,NA,NA,NA,"c(""distractor1"", ""distractor2"", ""distractor3"")",NA,NA,NA,NA,NA,NA,NA,NA,NA,NA,NA,NA,NA,NA,NA,NA,NA,NA,NA
3f360,task,flow.Sequence,2_13,NA,NA,completion,4069.94,384800,384797.26,384813.92,388883.86,388886,2024-06-25T18:46:31Z,388900.54,Spionage,upelelezi,d,maslahi,utokazo,magangao,NA,NA,NA,"c(""distractor1"", ""distractor2"", ""distractor3"")",NA,NA,NA,NA,NA,NA,NA,NA,NA,NA,NA,NA,NA,NA,NA,NA,NA,NA,NA
3f360,Shallow Question,html.Page,2_14_0_0,NA,NA,form submission,6583.46,388886,388883.86,388900.54,395484,395484,2024-06-25T18:46:38Z,395489.18,Ergänzung,kijalizo,d,ulaghai,mustarehe,matangazo,kijalizo,NA,NA,"c(""distractor1"", ""distractor2"", ""distractor3"")",NA,NA,NA,NA,NA,NA,NA,NA,NA,NA,NA,NA,NA,NA,NA,NA,NA,NA,NA
3f360,Save data screen,canvas.Screen,2_14_0_1,NA,NA,timeout,500.28000000003,395485,395480.82,395489.18,395972.78,395975,2024-06-25T18:46:38Z,395989.46,Ergänzung,kijalizo,d,ulaghai,mustarehe,matangazo,NA,NA,1,"c(""distractor1"", ""distractor2"", ""distractor3"")",NA,NA,NA,NA,NA,NA,NA,NA,NA,NA,NA,NA,NA,NA,NA,NA,NA,NA,NA
3f360,shallow,flow.Sequence,2_14_0,NA,NA,completion,7072.24,388886,388883.86,388900.54,395972.78,395975,2024-06-25T18:46:38Z,395989.46,Ergänzung,kijalizo,d,ulaghai,mustarehe,matangazo,NA,NA,NA,"c(""distractor1"", ""distractor2"", ""distractor3"")",NA,NA,NA,NA,NA,NA,NA,NA,NA,NA,NA,NA,NA,NA,NA,NA,NA,NA,NA
3f360,task,flow.Sequence,2_14,NA,NA,completion,7072.24,388886,388883.86,388900.54,395972.78,395975,2024-06-25T18:46:38Z,395989.46,Ergänzung,kijalizo,d,ulaghai,mustarehe,matangazo,NA,NA,NA,"c(""distractor1"", ""distractor2"", ""distractor3"")",NA,NA,NA,NA,NA,NA,NA,NA,NA,NA,NA,NA,NA,NA,NA,NA,NA,NA,NA
3f360,Shallow Question,html.Page,2_15_0_0,NA,NA,form submission,3214.54,395975,395972.78,395989.46,399204,399204,2024-06-25T18:46:41Z,399209.22,Schock,mshtuko,d,biashara,kukataza,vichekesho,mshtuko,NA,NA,"c(""distractor1"", ""distractor2"", ""distractor3"")",NA,NA,NA,NA,NA,NA,NA,NA,NA,NA,NA,NA,NA,NA,NA,NA,NA,NA,NA
3f360,Save data screen,canvas.Screen,2_15_0_1,NA,NA,timeout,500.26000000001,399205,399200.08,399209.22,399692.82,399696,2024-06-25T18:46:42Z,399709.48,Schock,mshtuko,d,biashara,kukataza,vichekesho,NA,NA,1,"c(""distractor1"", ""distractor2"", ""distractor3"")",NA,NA,NA,NA,NA,NA,NA,NA,NA,NA,NA,NA,NA,NA,NA,NA,NA,NA,NA
3f360,shallow,flow.Sequence,2_15_0,NA,NA,completion,3703.36,395975,395972.78,395989.46,399692.82,399697,2024-06-25T18:46:42Z,399709.48,Schock,mshtuko,d,biashara,kukataza,vichekesho,NA,NA,NA,"c(""distractor1"", ""distractor2"", ""distractor3"")",NA,NA,NA,NA,NA,NA,NA,NA,NA,NA,NA,NA,NA,NA,NA,NA,NA,NA,NA
3f360,task,flow.Sequence,2_15,NA,NA,completion,3703.36,395975,395972.78,395989.46,399692.82,399698,2024-06-25T18:46:42Z,399709.48,Schock,mshtuko,d,biashara,kukataza,vichekesho,NA,NA,NA,"c(""distractor1"", ""distractor2"", ""distractor3"")",NA,NA,NA,NA,NA,NA,NA,NA,NA,NA,NA,NA,NA,NA,NA,NA,NA,NA,NA
3f360,retrieval block 2 (multiple choice),flow.Loop,2,NA,NA,completion,95212.04,304467,304464.1,304480.78,399692.82,399698,2024-06-25T18:46:42Z,399709.48,NA,NA,NA,NA,NA,NA,NA,NA,NA,"c(""distractor1"", ""distractor2"", ""distractor3"")",NA,NA,NA,NA,NA,NA,NA,NA,NA,NA,NA,NA,NA,NA,NA,NA,NA,NA,NA
3f360,End,canvas.Screen,3,NA,keypress(Space),response,1452.52,399699,399692.82,399709.48,401162,401170,2024-06-25T18:46:43Z,401177.76,NA,NA,NA,NA,NA,NA,NA,NA,NA,NULL,NA,NA,NA,NA,NA,NA,NA,NA,NA,NA,NA,NA,NA,NA,NA,NA,NA,NA,NA
3f360,root,flow.Sequence,NA,NA,NA,completion,400716.26,431,429.06,445.74,401162,401170,2024-06-25T18:46:43Z,401177.76,NA,NA,NA,NA,NA,NA,NA,NA,NA,NULL,NA,NA,NA,NA,NA,NA,NA,NA,NA,NA,NA,NA,NA,NA,NA,NA,NA,NA,NA
