observation,sender,sender_type,sender_id,response,response_action,ended_on,duration,time_run,time_render,time_show,time_end,time_commit,timestamp,time_switch,distractors,german,swahili,enc,distractor1,distractor2,distractor3,response_2,x,correct,x_2,url_vp,url_sess,meta_labjs_version,meta_location,meta_user_agent,meta_platform,meta_language,meta_locale,meta_time_zone,meta_timezone_offset,meta_screen_width,meta_screen_height,meta_scroll_width,meta_scroll_height,meta_window_inner_width,meta_window_inner_height,meta_device_pixel_ratio,meta_labjs_build_flavor,meta_labjs_build_commit
ea803,Introduction general,canvas.Screen,0,weiter,keypress(q),response,1622578.74,1059,1062.58,1079.26,1623658,1623672,2024-05-25T06:29:45Z,1623673.68,NULL,NA,NA,NA,NA,NA,NA,NA,NA,NA,NA,160,1,20.2.4,https://neurocog.fernuni.ch/studies/vweber/jbaenninger/encoding_immediate/index.html?vp=160&sess=1,Mozilla/5.0 (Windows NT 10.0; Win64; x64; rv:126.0) Gecko/20100101 Firefox/126.0,Win32,de,de-CH,Europe/Zurich,-120,1280,800,1280,619,1280,667,1.5,production,f5b4a49f956347addd546a832a3327688c2c0fef
ea803,Introduction practice,canvas.Screen,1_0,NA,keypress(Space),response,11704.32,1623673,1623673.44,1623673.68,1635378,1635437,2024-05-25T06:29:56Z,1635438.56,NULL,NA,NA,NA,NA,NA,NA,NA,NA,NA,NA,NA,NA,NA,NA,NA,NA,NA,NA,NA,NA,NA,NA,NA,NA,NA,NA,NA,NA,NA
ea803,Deep Question,html.Page,1_1_0_0_0,NA,NA,form submission,14474.44,1635438,1635438.38,1635438.56,1649913,1649914,2024-05-25T06:30:11Z,1649913.52,"c(""distractor1"", ""distractor2"", ""distractor3"")",Gesundheit,salama,d,NA,NA,NA,gh,NA,NA,NA,NA,NA,NA,NA,NA,NA,NA,NA,NA,NA,NA,NA,NA,NA,NA,NA,NA,NA,NA
ea803,"""Richtig""-Screen",canvas.Screen,1_1_0_0_1,NA,NA,skipped,NA,1649919,NA,NA,1649913,1649920,2024-05-25T06:30:11Z,1649913.52,"c(""distractor1"", ""distractor2"", ""distractor3"")",Gesundheit,salama,d,NA,NA,NA,NA,NA,NA,NA,NA,NA,NA,NA,NA,NA,NA,NA,NA,NA,NA,NA,NA,NA,NA,NA,NA,NA,NA
ea803,"""Falsch""-Screen",canvas.Screen,1_1_0_0_2,NA,NA,timeout,5006.1799999999,1649921,1649907.44,1649913.52,1654903.02,1654905,2024-05-25T06:30:16Z,1654919.7,"c(""distractor1"", ""distractor2"", ""distractor3"")",Gesundheit,salama,d,NA,NA,NA,NA,NA,0,NA,NA,NA,NA,NA,NA,NA,NA,NA,NA,NA,NA,NA,NA,NA,NA,NA,NA,NA,NA
ea803,deep,flow.Sequence,1_1_0_0,NA,NA,completion,19464.46,1635438,1635438.38,1635438.56,1654903.02,1654905,2024-05-25T06:30:16Z,1654919.7,"c(""distractor1"", ""distractor2"", ""distractor3"")",Gesundheit,salama,d,NA,NA,NA,NA,NA,NA,NA,NA,NA,NA,NA,NA,NA,NA,NA,NA,NA,NA,NA,NA,NA,NA,NA,NA,NA,NA
ea803,shallow,flow.Sequence,1_1_0_1,NA,NA,skipped,NA,1654905,NA,NA,1654903.02,1654905,2024-05-25T06:30:16Z,1654919.7,"c(""distractor1"", ""distractor2"", ""distractor3"")",Gesundheit,salama,d,NA,NA,NA,NA,NA,NA,NA,NA,NA,NA,NA,NA,NA,NA,NA,NA,NA,NA,NA,NA,NA,NA,NA,NA,NA,NA
ea803,task,flow.Sequence,1_1_0,NA,NA,completion,19464.46,1635438,1635438.38,1635438.56,1654903.02,1654906,2024-05-25T06:30:16Z,1654919.7,"c(""distractor1"", ""distractor2"", ""distractor3"")",Gesundheit,salama,d,NA,NA,NA,NA,NA,NA,NA,NA,NA,NA,NA,NA,NA,NA,NA,NA,NA,NA,NA,NA,NA,NA,NA,NA,NA,NA
ea803,Deep Question,html.Page,1_1_1_0_0,NA,NA,form submission,7748.3,1654906,1654903.02,1654919.7,1662668,1662669,2024-05-25T06:30:24Z,1662676.76,"c(""distractor1"", ""distractor2"", ""distractor3"")",Schatten,kivuli,d,NA,NA,NA,zuru,NA,NA,NA,NA,NA,NA,NA,NA,NA,NA,NA,NA,NA,NA,NA,NA,NA,NA,NA,NA,NA,NA
ea803,"""Richtig""-Screen",canvas.Screen,1_1_1_0_1,NA,NA,skipped,NA,1662671,NA,NA,1662668,1662671,2024-05-25T06:30:24Z,1662676.76,"c(""distractor1"", ""distractor2"", ""distractor3"")",Schatten,kivuli,d,NA,NA,NA,NA,NA,NA,NA,NA,NA,NA,NA,NA,NA,NA,NA,NA,NA,NA,NA,NA,NA,NA,NA,NA,NA,NA
ea803,"""Falsch""-Screen",canvas.Screen,1_1_1_0_2,NA,NA,timeout,5005.54,1662673,1662665.1,1662676.76,1667665.66,1667667,2024-05-25T06:30:29Z,1667682.3,"c(""distractor1"", ""distractor2"", ""distractor3"")",Schatten,kivuli,d,NA,NA,NA,NA,NA,0,NA,NA,NA,NA,NA,NA,NA,NA,NA,NA,NA,NA,NA,NA,NA,NA,NA,NA,NA,NA
ea803,deep,flow.Sequence,1_1_1_0,NA,NA,completion,12745.96,1654906,1654903.02,1654919.7,1667665.66,1667667,2024-05-25T06:30:29Z,1667682.3,"c(""distractor1"", ""distractor2"", ""distractor3"")",Schatten,kivuli,d,NA,NA,NA,NA,NA,NA,NA,NA,NA,NA,NA,NA,NA,NA,NA,NA,NA,NA,NA,NA,NA,NA,NA,NA,NA,NA
ea803,shallow,flow.Sequence,1_1_1_1,NA,NA,skipped,NA,1667667,NA,NA,1667665.66,1667668,2024-05-25T06:30:29Z,1667682.3,"c(""distractor1"", ""distractor2"", ""distractor3"")",Schatten,kivuli,d,NA,NA,NA,NA,NA,NA,NA,NA,NA,NA,NA,NA,NA,NA,NA,NA,NA,NA,NA,NA,NA,NA,NA,NA,NA,NA
ea803,task,flow.Sequence,1_1_1,NA,NA,completion,12745.96,1654906,1654903.02,1654919.7,1667665.66,1667668,2024-05-25T06:30:29Z,1667682.3,"c(""distractor1"", ""distractor2"", ""distractor3"")",Schatten,kivuli,d,NA,NA,NA,NA,NA,NA,NA,NA,NA,NA,NA,NA,NA,NA,NA,NA,NA,NA,NA,NA,NA,NA,NA,NA,NA,NA
ea803,deep,flow.Sequence,1_1_2_0,NA,NA,skipped,NA,1667668,NA,NA,1667665.66,1667668,2024-05-25T06:30:29Z,1667682.3,"c(""distractor1"", ""distractor2"", ""distractor3"")",Kritik,lawama,s,dereva,nafasi,mawazo,NA,NA,NA,NA,NA,NA,NA,NA,NA,NA,NA,NA,NA,NA,NA,NA,NA,NA,NA,NA,NA,NA,NA
ea803,Shallow Question,html.Page,1_1_2_1_0,NA,NA,form submission,3976.7,1667668,1667665.66,1667682.3,1671659,1671660,2024-05-25T06:30:33Z,1671658.68,"c(""distractor1"", ""distractor2"", ""distractor3"")",Kritik,lawama,s,dereva,nafasi,mawazo,mawazo,NA,NA,NA,NA,NA,NA,NA,NA,NA,NA,NA,NA,NA,NA,NA,NA,NA,NA,NA,NA,NA,NA
ea803,"""Richtig""-Screen",canvas.Screen,1_1_2_1_1,NA,NA,skipped,NA,1671662,NA,NA,1671659,1671662,2024-05-25T06:30:33Z,1671658.68,"c(""distractor1"", ""distractor2"", ""distractor3"")",Kritik,lawama,s,dereva,nafasi,mawazo,NA,NA,NA,NA,NA,NA,NA,NA,NA,NA,NA,NA,NA,NA,NA,NA,NA,NA,NA,NA,NA,NA,NA
ea803,"""Falsch""-Screen",canvas.Screen,1_1_2_1_2,NA,NA,timeout,4995.46,1671664,1671655.04,1671658.68,1676637.46,1676639,2024-05-25T06:30:38Z,1676654.14,"c(""distractor1"", ""distractor2"", ""distractor3"")",Kritik,lawama,s,dereva,nafasi,mawazo,NA,NA,0,NA,NA,NA,NA,NA,NA,NA,NA,NA,NA,NA,NA,NA,NA,NA,NA,NA,NA,NA,NA
ea803,shallow,flow.Sequence,1_1_2_1,NA,NA,completion,8955.1599999999,1667668,1667665.66,1667682.3,1676637.46,1676640,2024-05-25T06:30:38Z,1676654.14,"c(""distractor1"", ""distractor2"", ""distractor3"")",Kritik,lawama,s,dereva,nafasi,mawazo,NA,NA,NA,NA,NA,NA,NA,NA,NA,NA,NA,NA,NA,NA,NA,NA,NA,NA,NA,NA,NA,NA,NA
ea803,task,flow.Sequence,1_1_2,NA,NA,completion,8955.1599999999,1667668,1667665.66,1667682.3,1676637.46,1676640,2024-05-25T06:30:38Z,1676654.14,"c(""distractor1"", ""distractor2"", ""distractor3"")",Kritik,lawama,s,dereva,nafasi,mawazo,NA,NA,NA,NA,NA,NA,NA,NA,NA,NA,NA,NA,NA,NA,NA,NA,NA,NA,NA,NA,NA,NA,NA
ea803,deep,flow.Sequence,1_1_3_0,NA,NA,skipped,NA,1676640,NA,NA,1676637.46,1676640,2024-05-25T06:30:38Z,1676654.14,"c(""distractor1"", ""distractor2"", ""distractor3"")",Rückhalt,msaada,s,muhula,auwali,kiwimbe,NA,NA,NA,NA,NA,NA,NA,NA,NA,NA,NA,NA,NA,NA,NA,NA,NA,NA,NA,NA,NA,NA,NA
ea803,Shallow Question,html.Page,1_1_3_1_0,NA,NA,form submission,2706.8600000001,1676640,1676637.46,1676654.14,1679361,1679362,2024-05-25T06:30:40Z,1679375.08,"c(""distractor1"", ""distractor2"", ""distractor3"")",Rückhalt,msaada,s,muhula,auwali,kiwimbe,auwali,NA,NA,NA,NA,NA,NA,NA,NA,NA,NA,NA,NA,NA,NA,NA,NA,NA,NA,NA,NA,NA,NA
ea803,"""Richtig""-Screen",canvas.Screen,1_1_3_1_1,NA,NA,skipped,NA,1679363,NA,NA,1679361,1679363,2024-05-25T06:30:40Z,1679375.08,"c(""distractor1"", ""distractor2"", ""distractor3"")",Rückhalt,msaada,s,muhula,auwali,kiwimbe,NA,NA,NA,NA,NA,NA,NA,NA,NA,NA,NA,NA,NA,NA,NA,NA,NA,NA,NA,NA,NA,NA,NA
ea803,"""Falsch""-Screen",canvas.Screen,1_1_3_1_2,NA,NA,timeout,4993.3999999999,1679365,1679358.44,1679375.08,1684351.8,1684354,2024-05-25T06:30:45Z,1684368.48,"c(""distractor1"", ""distractor2"", ""distractor3"")",Rückhalt,msaada,s,muhula,auwali,kiwimbe,NA,NA,0,NA,NA,NA,NA,NA,NA,NA,NA,NA,NA,NA,NA,NA,NA,NA,NA,NA,NA,NA,NA
ea803,shallow,flow.Sequence,1_1_3_1,NA,NA,completion,7697.6600000001,1676640,1676637.46,1676654.14,1684351.8,1684354,2024-05-25T06:30:45Z,1684368.48,"c(""distractor1"", ""distractor2"", ""distractor3"")",Rückhalt,msaada,s,muhula,auwali,kiwimbe,NA,NA,NA,NA,NA,NA,NA,NA,NA,NA,NA,NA,NA,NA,NA,NA,NA,NA,NA,NA,NA,NA,NA
ea803,task,flow.Sequence,1_1_3,NA,NA,completion,7697.6600000001,1676640,1676637.46,1676654.14,1684351.8,1684354,2024-05-25T06:30:45Z,1684368.48,"c(""distractor1"", ""distractor2"", ""distractor3"")",Rückhalt,msaada,s,muhula,auwali,kiwimbe,NA,NA,NA,NA,NA,NA,NA,NA,NA,NA,NA,NA,NA,NA,NA,NA,NA,NA,NA,NA,NA,NA,NA
ea803,deep,flow.Sequence,1_1_4_0,NA,NA,skipped,NA,1684354,NA,NA,1684351.8,1684354,2024-05-25T06:30:45Z,1684368.48,"c(""distractor1"", ""distractor2"", ""distractor3"")",Gegenwart,hadhara,s,katiba,jokofu,mikopo,NA,NA,NA,NA,NA,NA,NA,NA,NA,NA,NA,NA,NA,NA,NA,NA,NA,NA,NA,NA,NA,NA,NA
ea803,Shallow Question,html.Page,1_1_4_1_0,NA,NA,form submission,3162.52,1684354,1684351.8,1684368.48,1687531,1687531,2024-05-25T06:30:49Z,1687530.12,"c(""distractor1"", ""distractor2"", ""distractor3"")",Gegenwart,hadhara,s,katiba,jokofu,mikopo,jokofu,NA,NA,NA,NA,NA,NA,NA,NA,NA,NA,NA,NA,NA,NA,NA,NA,NA,NA,NA,NA,NA,NA
ea803,"""Richtig""-Screen",canvas.Screen,1_1_4_1_1,NA,NA,skipped,NA,1687533,NA,NA,1687531,1687533,2024-05-25T06:30:49Z,1687530.12,"c(""distractor1"", ""distractor2"", ""distractor3"")",Gegenwart,hadhara,s,katiba,jokofu,mikopo,NA,NA,NA,NA,NA,NA,NA,NA,NA,NA,NA,NA,NA,NA,NA,NA,NA,NA,NA,NA,NA,NA,NA
ea803,"""Falsch""-Screen",canvas.Screen,1_1_4_1_2,NA,NA,timeout,5049.1599999999,1687534,1687526.88,1687530.12,1692520.66,1692558,2024-05-25T06:30:54Z,1692579.28,"c(""distractor1"", ""distractor2"", ""distractor3"")",Gegenwart,hadhara,s,katiba,jokofu,mikopo,NA,NA,0,NA,NA,NA,NA,NA,NA,NA,NA,NA,NA,NA,NA,NA,NA,NA,NA,NA,NA,NA,NA
ea803,shallow,flow.Sequence,1_1_4_1,NA,NA,completion,8152.1799999999,1684354,1684351.8,1684368.48,1692520.66,1692558,2024-05-25T06:30:54Z,1692579.28,"c(""distractor1"", ""distractor2"", ""distractor3"")",Gegenwart,hadhara,s,katiba,jokofu,mikopo,NA,NA,NA,NA,NA,NA,NA,NA,NA,NA,NA,NA,NA,NA,NA,NA,NA,NA,NA,NA,NA,NA,NA
ea803,task,flow.Sequence,1_1_4,NA,NA,completion,8152.1799999999,1684354,1684351.8,1684368.48,1692520.66,1692558,2024-05-25T06:30:54Z,1692579.28,"c(""distractor1"", ""distractor2"", ""distractor3"")",Gegenwart,hadhara,s,katiba,jokofu,mikopo,NA,NA,NA,NA,NA,NA,NA,NA,NA,NA,NA,NA,NA,NA,NA,NA,NA,NA,NA,NA,NA,NA,NA
ea803,Deep Question,html.Page,1_1_5_0_0,NA,NA,form submission,6808.72,1692559,1692520.66,1692579.28,1699388,1699389,2024-05-25T06:31:00Z,1699388.2,"c(""distractor1"", ""distractor2"", ""distractor3"")",Qualität,mtindo,d,NA,NA,NA,erzo,NA,NA,NA,NA,NA,NA,NA,NA,NA,NA,NA,NA,NA,NA,NA,NA,NA,NA,NA,NA,NA,NA
ea803,"""Richtig""-Screen",canvas.Screen,1_1_5_0_1,NA,NA,skipped,NA,1699391,NA,NA,1699388,1699391,2024-05-25T06:31:00Z,1699388.2,"c(""distractor1"", ""distractor2"", ""distractor3"")",Qualität,mtindo,d,NA,NA,NA,NA,NA,NA,NA,NA,NA,NA,NA,NA,NA,NA,NA,NA,NA,NA,NA,NA,NA,NA,NA,NA,NA,NA
ea803,"""Falsch""-Screen",canvas.Screen,1_1_5_0_2,NA,NA,timeout,5007.3200000001,1699393,1699385.1,1699388.2,1704375.3,1704378,2024-05-25T06:31:05Z,1704395.52,"c(""distractor1"", ""distractor2"", ""distractor3"")",Qualität,mtindo,d,NA,NA,NA,NA,NA,0,NA,NA,NA,NA,NA,NA,NA,NA,NA,NA,NA,NA,NA,NA,NA,NA,NA,NA,NA,NA
ea803,deep,flow.Sequence,1_1_5_0,NA,NA,completion,11796.02,1692558,1692520.66,1692579.28,1704375.3,1704378,2024-05-25T06:31:05Z,1704395.52,"c(""distractor1"", ""distractor2"", ""distractor3"")",Qualität,mtindo,d,NA,NA,NA,NA,NA,NA,NA,NA,NA,NA,NA,NA,NA,NA,NA,NA,NA,NA,NA,NA,NA,NA,NA,NA,NA,NA
ea803,shallow,flow.Sequence,1_1_5_1,NA,NA,skipped,NA,1704379,NA,NA,1704375.3,1704379,2024-05-25T06:31:05Z,1704395.52,"c(""distractor1"", ""distractor2"", ""distractor3"")",Qualität,mtindo,d,NA,NA,NA,NA,NA,NA,NA,NA,NA,NA,NA,NA,NA,NA,NA,NA,NA,NA,NA,NA,NA,NA,NA,NA,NA,NA
ea803,task,flow.Sequence,1_1_5,NA,NA,completion,11796.02,1692558,1692520.66,1692579.28,1704375.3,1704379,2024-05-25T06:31:05Z,1704395.52,"c(""distractor1"", ""distractor2"", ""distractor3"")",Qualität,mtindo,d,NA,NA,NA,NA,NA,NA,NA,NA,NA,NA,NA,NA,NA,NA,NA,NA,NA,NA,NA,NA,NA,NA,NA,NA,NA,NA
ea803,block,flow.Loop,1_1,NA,NA,completion,68936.74,1635438,1635438.38,1635438.56,1704375.3,1704379,2024-05-25T06:31:05Z,1704395.52,"c(""distractor1"", ""distractor2"", ""distractor3"")",NA,NA,NA,NA,NA,NA,NA,NA,NA,NA,NA,NA,NA,NA,NA,NA,NA,NA,NA,NA,NA,NA,NA,NA,NA,NA,NA,NA,NA
ea803,Practice,flow.Sequence,1,NA,NA,completion,80701.62,1623673,1623673.44,1623673.68,1704375.3,1704379,2024-05-25T06:31:05Z,1704395.52,NULL,NA,NA,NA,NA,NA,NA,NA,NA,NA,NA,NA,NA,NA,NA,NA,NA,NA,NA,NA,NA,NA,NA,NA,NA,NA,NA,NA,NA,NA
ea803,Experiment start,canvas.Screen,2,weiter,keypress(q),response,21077.48,1704379,1704375.3,1704395.52,1725473,1725482,2024-05-25T06:31:27Z,1725573.84,NULL,NA,NA,NA,NA,NA,NA,NA,NA,NA,NA,NA,NA,NA,NA,NA,NA,NA,NA,NA,NA,NA,NA,NA,NA,NA,NA,NA,NA,NA
ea803,deep,flow.Sequence,3_0_0_0_0_0,NA,NA,skipped,NA,1725573,NA,NA,1725473,1725573,2024-05-25T06:31:27Z,1725573.84,NULL,Auftrag,uagizaji,s,ghanima,kuzingatia,msukani,NA,sdf,NA,0,NA,NA,NA,NA,NA,NA,NA,NA,NA,NA,NA,NA,NA,NA,NA,NA,NA,NA,NA
ea803,Shallow Question,html.Page,3_0_0_0_0_1_0,NA,NA,form submission,4415.1599999999,1725573,1725573.14,1725573.84,1729989,1729989,2024-05-25T06:31:31Z,1730000.06,NULL,Auftrag,uagizaji,s,ghanima,kuzingatia,msukani,ghanima,NA,NA,0,NA,NA,NA,NA,NA,NA,NA,NA,NA,NA,NA,NA,NA,NA,NA,NA,NA,NA,NA
ea803,"""Richtig""-Screen",canvas.Screen,3_0_0_0_0_1_1,NA,NA,skipped,NA,1729991,NA,NA,1729989,1729991,2024-05-25T06:31:31Z,1730000.06,NULL,Auftrag,uagizaji,s,ghanima,kuzingatia,msukani,NA,sdf,NA,0,NA,NA,NA,NA,NA,NA,NA,NA,NA,NA,NA,NA,NA,NA,NA,NA,NA,NA,NA
ea803,"""Falsch""-Screen",canvas.Screen,3_0_0_0_0_1_2,NA,NA,timeout,5001.72,1729992,1729985.18,1730000.06,1734985.1,1734986,2024-05-25T06:31:36Z,1735001.78,NULL,Auftrag,uagizaji,s,ghanima,kuzingatia,msukani,NA,sdf,0,0,NA,NA,NA,NA,NA,NA,NA,NA,NA,NA,NA,NA,NA,NA,NA,NA,NA,NA,NA
ea803,shallow,flow.Sequence,3_0_0_0_0_1,NA,NA,completion,9411.26,1725573,1725573.14,1725573.84,1734985.1,1734987,2024-05-25T06:31:36Z,1735001.78,NULL,Auftrag,uagizaji,s,ghanima,kuzingatia,msukani,NA,sdf,NA,0,NA,NA,NA,NA,NA,NA,NA,NA,NA,NA,NA,NA,NA,NA,NA,NA,NA,NA,NA
ea803,task,flow.Sequence,3_0_0_0_0,NA,NA,completion,9411.26,1725573,1725573.14,1725573.84,1734985.1,1734988,2024-05-25T06:31:36Z,1735001.78,NULL,Auftrag,uagizaji,s,ghanima,kuzingatia,msukani,NA,sdf,NA,0,NA,NA,NA,NA,NA,NA,NA,NA,NA,NA,NA,NA,NA,NA,NA,NA,NA,NA,NA
ea803,deep,flow.Sequence,3_0_0_0_1_0,NA,NA,skipped,NA,1734988,NA,NA,1734985.1,1734988,2024-05-25T06:31:36Z,1735001.78,NULL,Wettbewerb,ushindani,s,mapendezi,kichocheo,ubaguzi,NA,sdf,NA,0,NA,NA,NA,NA,NA,NA,NA,NA,NA,NA,NA,NA,NA,NA,NA,NA,NA,NA,NA
ea803,Shallow Question,html.Page,3_0_0_0_1_1_0,NA,NA,form submission,4698.22,1734988,1734985.1,1735001.78,1739700,1739700,2024-05-25T06:31:41Z,1739707.68,NULL,Wettbewerb,ushindani,s,mapendezi,kichocheo,ubaguzi,ushindani,NA,NA,0,NA,NA,NA,NA,NA,NA,NA,NA,NA,NA,NA,NA,NA,NA,NA,NA,NA,NA,NA
ea803,"""Richtig""-Screen",canvas.Screen,3_0_0_0_1_1_1,NA,NA,timeout,4992.1000000001,1739702,1739697.1,1739707.68,1744683.1,1744685,2024-05-25T06:31:46Z,1744699.78,NULL,Wettbewerb,ushindani,s,mapendezi,kichocheo,ubaguzi,NA,sdf,1,0,NA,NA,NA,NA,NA,NA,NA,NA,NA,NA,NA,NA,NA,NA,NA,NA,NA,NA,NA
ea803,"""Falsch""-Screen",canvas.Screen,3_0_0_0_1_1_2,NA,NA,skipped,NA,1744687,NA,NA,1744683.1,1744687,2024-05-25T06:31:46Z,1744699.78,NULL,Wettbewerb,ushindani,s,mapendezi,kichocheo,ubaguzi,NA,sdf,NA,0,NA,NA,NA,NA,NA,NA,NA,NA,NA,NA,NA,NA,NA,NA,NA,NA,NA,NA,NA
ea803,shallow,flow.Sequence,3_0_0_0_1_1,NA,NA,completion,9681.3200000001,1734988,1734985.1,1735001.78,1744683.1,1744687,2024-05-25T06:31:46Z,1744699.78,NULL,Wettbewerb,ushindani,s,mapendezi,kichocheo,ubaguzi,NA,sdf,NA,0,NA,NA,NA,NA,NA,NA,NA,NA,NA,NA,NA,NA,NA,NA,NA,NA,NA,NA,NA
ea803,task,flow.Sequence,3_0_0_0_1,NA,NA,completion,9681.3200000001,1734988,1734985.1,1735001.78,1744683.1,1744688,2024-05-25T06:31:46Z,1744699.78,NULL,Wettbewerb,ushindani,s,mapendezi,kichocheo,ubaguzi,NA,sdf,NA,0,NA,NA,NA,NA,NA,NA,NA,NA,NA,NA,NA,NA,NA,NA,NA,NA,NA,NA,NA
ea803,Deep Question,html.Page,3_0_0_0_2_0_0,NA,NA,form submission,11081.22,1744688,1744683.1,1744699.78,1755781,1755782,2024-05-25T06:31:57Z,1755788.7,NULL,Schönheit,kirembo,d,NA,NA,NA,kiluni,NA,NA,0,NA,NA,NA,NA,NA,NA,NA,NA,NA,NA,NA,NA,NA,NA,NA,NA,NA,NA,NA
ea803,"""Richtig""-Screen",canvas.Screen,3_0_0_0_2_0_1,NA,NA,skipped,NA,1755783,NA,NA,1755781,1755783,2024-05-25T06:31:57Z,1755788.7,NULL,Schönheit,kirembo,d,NA,NA,NA,NA,sdf,NA,0,NA,NA,NA,NA,NA,NA,NA,NA,NA,NA,NA,NA,NA,NA,NA,NA,NA,NA,NA
ea803,"""Falsch""-Screen",canvas.Screen,3_0_0_0_2_0_2,NA,NA,timeout,5049.3800000001,1755785,1755777.78,1755788.7,1760771.1,1760838,2024-05-25T06:32:02Z,1760838.08,NULL,Schönheit,kirembo,d,NA,NA,NA,NA,sdf,0,0,NA,NA,NA,NA,NA,NA,NA,NA,NA,NA,NA,NA,NA,NA,NA,NA,NA,NA,NA
ea803,deep,flow.Sequence,3_0_0_0_2_0,NA,NA,completion,16071.32,1744688,1744683.1,1744699.78,1760771.1,1760839,2024-05-25T06:32:02Z,1760838.08,NULL,Schönheit,kirembo,d,NA,NA,NA,NA,sdf,NA,0,NA,NA,NA,NA,NA,NA,NA,NA,NA,NA,NA,NA,NA,NA,NA,NA,NA,NA,NA
ea803,shallow,flow.Sequence,3_0_0_0_2_1,NA,NA,skipped,NA,1760839,NA,NA,1760771.1,1760839,2024-05-25T06:32:02Z,1760838.08,NULL,Schönheit,kirembo,d,NA,NA,NA,NA,sdf,NA,0,NA,NA,NA,NA,NA,NA,NA,NA,NA,NA,NA,NA,NA,NA,NA,NA,NA,NA,NA
ea803,task,flow.Sequence,3_0_0_0_2,NA,NA,completion,16071.32,1744688,1744683.1,1744699.78,1760771.1,1760839,2024-05-25T06:32:02Z,1760838.08,NULL,Schönheit,kirembo,d,NA,NA,NA,NA,sdf,NA,0,NA,NA,NA,NA,NA,NA,NA,NA,NA,NA,NA,NA,NA,NA,NA,NA,NA,NA,NA
ea803,deep,flow.Sequence,3_0_0_0_3_0,NA,NA,skipped,NA,1760839,NA,NA,1760771.1,1760839,2024-05-25T06:32:02Z,1760838.08,NULL,Angreifer,mshambulizi,s,kitengo,tasinia,usafirishaji,NA,sdf,NA,0,NA,NA,NA,NA,NA,NA,NA,NA,NA,NA,NA,NA,NA,NA,NA,NA,NA,NA,NA
ea803,Shallow Question,html.Page,3_0_0_0_3_1_0,NA,NA,form submission,10486.92,1760839,1760771.1,1760838.08,1771325,1771328,2024-05-25T06:32:12Z,1771334.64,NULL,Angreifer,mshambulizi,s,kitengo,tasinia,usafirishaji,tasinia,NA,NA,0,NA,NA,NA,NA,NA,NA,NA,NA,NA,NA,NA,NA,NA,NA,NA,NA,NA,NA,NA
ea803,"""Richtig""-Screen",canvas.Screen,3_0_0_0_3_1_1,NA,NA,skipped,NA,1771334,NA,NA,1771325,1771334,2024-05-25T06:32:12Z,1771334.64,NULL,Angreifer,mshambulizi,s,kitengo,tasinia,usafirishaji,NA,sdf,NA,0,NA,NA,NA,NA,NA,NA,NA,NA,NA,NA,NA,NA,NA,NA,NA,NA,NA,NA,NA
ea803,"""Falsch""-Screen",canvas.Screen,3_0_0_0_3_1_2,NA,NA,timeout,5011.28,1771336,1771320.44,1771334.64,1776325.4,1776327,2024-05-25T06:32:17Z,1776345.92,NULL,Angreifer,mshambulizi,s,kitengo,tasinia,usafirishaji,NA,sdf,0,0,NA,NA,NA,NA,NA,NA,NA,NA,NA,NA,NA,NA,NA,NA,NA,NA,NA,NA,NA
ea803,shallow,flow.Sequence,3_0_0_0_3_1,NA,NA,completion,15487.32,1760839,1760771.1,1760838.08,1776325.4,1776327,2024-05-25T06:32:17Z,1776345.92,NULL,Angreifer,mshambulizi,s,kitengo,tasinia,usafirishaji,NA,sdf,NA,0,NA,NA,NA,NA,NA,NA,NA,NA,NA,NA,NA,NA,NA,NA,NA,NA,NA,NA,NA
ea803,task,flow.Sequence,3_0_0_0_3,NA,NA,completion,15487.32,1760839,1760771.1,1760838.08,1776325.4,1776327,2024-05-25T06:32:17Z,1776345.92,NULL,Angreifer,mshambulizi,s,kitengo,tasinia,usafirishaji,NA,sdf,NA,0,NA,NA,NA,NA,NA,NA,NA,NA,NA,NA,NA,NA,NA,NA,NA,NA,NA,NA,NA
ea803,deep,flow.Sequence,3_0_0_0_4_0,NA,NA,skipped,NA,1776327,NA,NA,1776325.4,1776328,2024-05-25T06:32:17Z,1776345.92,NULL,Sänger,mwimbaji,s,msichana,shughuli,mshirika,NA,sdf,NA,0,NA,NA,NA,NA,NA,NA,NA,NA,NA,NA,NA,NA,NA,NA,NA,NA,NA,NA,NA
ea803,Shallow Question,html.Page,3_0_0_0_4_1_0,NA,NA,form submission,4097.0800000001,1776328,1776325.4,1776345.92,1780443,1780443,2024-05-25T06:32:21Z,1780448.9,NULL,Sänger,mwimbaji,s,msichana,shughuli,mshirika,shughuli,NA,NA,0,NA,NA,NA,NA,NA,NA,NA,NA,NA,NA,NA,NA,NA,NA,NA,NA,NA,NA,NA
ea803,"""Richtig""-Screen",canvas.Screen,3_0_0_0_4_1_1,NA,NA,skipped,NA,1780445,NA,NA,1780443,1780445,2024-05-25T06:32:21Z,1780448.9,NULL,Sänger,mwimbaji,s,msichana,shughuli,mshirika,NA,sdf,NA,0,NA,NA,NA,NA,NA,NA,NA,NA,NA,NA,NA,NA,NA,NA,NA,NA,NA,NA,NA
ea803,"""Falsch""-Screen",canvas.Screen,3_0_0_0_4_1_2,NA,NA,timeout,5000.6400000001,1780447,1780439.2,1780448.9,1785432.86,1785435,2024-05-25T06:32:26Z,1785449.54,NULL,Sänger,mwimbaji,s,msichana,shughuli,mshirika,NA,sdf,0,0,NA,NA,NA,NA,NA,NA,NA,NA,NA,NA,NA,NA,NA,NA,NA,NA,NA,NA,NA
ea803,shallow,flow.Sequence,3_0_0_0_4_1,NA,NA,completion,9086.9400000002,1776328,1776325.4,1776345.92,1785432.86,1785435,2024-05-25T06:32:26Z,1785449.54,NULL,Sänger,mwimbaji,s,msichana,shughuli,mshirika,NA,sdf,NA,0,NA,NA,NA,NA,NA,NA,NA,NA,NA,NA,NA,NA,NA,NA,NA,NA,NA,NA,NA
ea803,task,flow.Sequence,3_0_0_0_4,NA,NA,completion,9086.9400000002,1776327,1776325.4,1776345.92,1785432.86,1785435,2024-05-25T06:32:26Z,1785449.54,NULL,Sänger,mwimbaji,s,msichana,shughuli,mshirika,NA,sdf,NA,0,NA,NA,NA,NA,NA,NA,NA,NA,NA,NA,NA,NA,NA,NA,NA,NA,NA,NA,NA
ea803,Deep Question,html.Page,3_0_0_0_5_0_0,NA,NA,form submission,8516.46,1785436,1785432.86,1785449.54,1793966,1793966,2024-05-25T06:32:35Z,1793966.86,NULL,Abrechnung,uhasibu,d,NA,NA,NA,bunu,NA,NA,0,NA,NA,NA,NA,NA,NA,NA,NA,NA,NA,NA,NA,NA,NA,NA,NA,NA,NA,NA
ea803,"""Richtig""-Screen",canvas.Screen,3_0_0_0_5_0_1,NA,NA,skipped,NA,1793968,NA,NA,1793966,1793968,2024-05-25T06:32:35Z,1793966.86,NULL,Abrechnung,uhasibu,d,NA,NA,NA,NA,sdf,NA,0,NA,NA,NA,NA,NA,NA,NA,NA,NA,NA,NA,NA,NA,NA,NA,NA,NA,NA,NA
ea803,"""Falsch""-Screen",canvas.Screen,3_0_0_0_5_0_2,NA,NA,timeout,5000.8199999998,1793970,1793962.2,1793966.86,1798950.98,1798952,2024-05-25T06:32:40Z,1798967.68,NULL,Abrechnung,uhasibu,d,NA,NA,NA,NA,sdf,0,0,NA,NA,NA,NA,NA,NA,NA,NA,NA,NA,NA,NA,NA,NA,NA,NA,NA,NA,NA
ea803,deep,flow.Sequence,3_0_0_0_5_0,NA,NA,completion,13501.44,1785436,1785432.86,1785449.54,1798950.98,1798953,2024-05-25T06:32:40Z,1798967.68,NULL,Abrechnung,uhasibu,d,NA,NA,NA,NA,sdf,NA,0,NA,NA,NA,NA,NA,NA,NA,NA,NA,NA,NA,NA,NA,NA,NA,NA,NA,NA,NA
ea803,shallow,flow.Sequence,3_0_0_0_5_1,NA,NA,skipped,NA,1798953,NA,NA,1798950.98,1798953,2024-05-25T06:32:40Z,1798967.68,NULL,Abrechnung,uhasibu,d,NA,NA,NA,NA,sdf,NA,0,NA,NA,NA,NA,NA,NA,NA,NA,NA,NA,NA,NA,NA,NA,NA,NA,NA,NA,NA
ea803,task,flow.Sequence,3_0_0_0_5,NA,NA,completion,13501.44,1785435,1785432.86,1785449.54,1798950.98,1798953,2024-05-25T06:32:40Z,1798967.68,NULL,Abrechnung,uhasibu,d,NA,NA,NA,NA,sdf,NA,0,NA,NA,NA,NA,NA,NA,NA,NA,NA,NA,NA,NA,NA,NA,NA,NA,NA,NA,NA
ea803,Deep Question,html.Page,3_0_0_0_6_0_0,NA,NA,form submission,7739.3200000001,1798953,1798950.98,1798967.68,1806707,1806707,2024-05-25T06:32:48Z,1806710.54,NULL,Zufall,kikuti,d,NA,NA,NA,runini,NA,NA,0,NA,NA,NA,NA,NA,NA,NA,NA,NA,NA,NA,NA,NA,NA,NA,NA,NA,NA,NA
ea803,"""Richtig""-Screen",canvas.Screen,3_0_0_0_6_0_1,NA,NA,skipped,NA,1806710,NA,NA,1806707,1806710,2024-05-25T06:32:48Z,1806710.54,NULL,Zufall,kikuti,d,NA,NA,NA,NA,sdf,NA,0,NA,NA,NA,NA,NA,NA,NA,NA,NA,NA,NA,NA,NA,NA,NA,NA,NA,NA,NA
ea803,"""Falsch""-Screen",canvas.Screen,3_0_0_0_6_0_2,NA,NA,timeout,4999.6799999999,1806711,1806704.1,1806710.54,1811693.52,1811695,2024-05-25T06:32:53Z,1811710.22,NULL,Zufall,kikuti,d,NA,NA,NA,NA,sdf,0,0,NA,NA,NA,NA,NA,NA,NA,NA,NA,NA,NA,NA,NA,NA,NA,NA,NA,NA,NA
ea803,deep,flow.Sequence,3_0_0_0_6_0,NA,NA,completion,12725.84,1798953,1798950.98,1798967.68,1811693.52,1811695,2024-05-25T06:32:53Z,1811710.22,NULL,Zufall,kikuti,d,NA,NA,NA,NA,sdf,NA,0,NA,NA,NA,NA,NA,NA,NA,NA,NA,NA,NA,NA,NA,NA,NA,NA,NA,NA,NA
ea803,shallow,flow.Sequence,3_0_0_0_6_1,NA,NA,skipped,NA,1811695,NA,NA,1811693.52,1811696,2024-05-25T06:32:53Z,1811710.22,NULL,Zufall,kikuti,d,NA,NA,NA,NA,sdf,NA,0,NA,NA,NA,NA,NA,NA,NA,NA,NA,NA,NA,NA,NA,NA,NA,NA,NA,NA,NA
ea803,task,flow.Sequence,3_0_0_0_6,NA,NA,completion,12725.84,1798953,1798950.98,1798967.68,1811693.52,1811696,2024-05-25T06:32:53Z,1811710.22,NULL,Zufall,kikuti,d,NA,NA,NA,NA,sdf,NA,0,NA,NA,NA,NA,NA,NA,NA,NA,NA,NA,NA,NA,NA,NA,NA,NA,NA,NA,NA
ea803,Deep Question,html.Page,3_0_0_0_7_0_0,NA,NA,form submission,10056.78,1811696,1811693.52,1811710.22,1821767,1821767,2024-05-25T06:33:03Z,1821773.16,NULL,Kanzler,diwani,d,NA,NA,NA,guru,NA,NA,0,NA,NA,NA,NA,NA,NA,NA,NA,NA,NA,NA,NA,NA,NA,NA,NA,NA,NA,NA
ea803,"""Richtig""-Screen",canvas.Screen,3_0_0_0_7_0_1,NA,NA,skipped,NA,1821769,NA,NA,1821767,1821769,2024-05-25T06:33:03Z,1821773.16,NULL,Kanzler,diwani,d,NA,NA,NA,NA,sdf,NA,0,NA,NA,NA,NA,NA,NA,NA,NA,NA,NA,NA,NA,NA,NA,NA,NA,NA,NA,NA
ea803,"""Falsch""-Screen",canvas.Screen,3_0_0_0_7_0_2,NA,NA,timeout,5000.9400000002,1821771,1821763.44,1821773.16,1826757.4,1826759,2024-05-25T06:33:08Z,1826774.1,NULL,Kanzler,diwani,d,NA,NA,NA,NA,sdf,0,0,NA,NA,NA,NA,NA,NA,NA,NA,NA,NA,NA,NA,NA,NA,NA,NA,NA,NA,NA
ea803,deep,flow.Sequence,3_0_0_0_7_0,NA,NA,completion,15047.18,1811696,1811693.52,1811710.22,1826757.4,1826760,2024-05-25T06:33:08Z,1826774.1,NULL,Kanzler,diwani,d,NA,NA,NA,NA,sdf,NA,0,NA,NA,NA,NA,NA,NA,NA,NA,NA,NA,NA,NA,NA,NA,NA,NA,NA,NA,NA
ea803,shallow,flow.Sequence,3_0_0_0_7_1,NA,NA,skipped,NA,1826760,NA,NA,1826757.4,1826760,2024-05-25T06:33:08Z,1826774.1,NULL,Kanzler,diwani,d,NA,NA,NA,NA,sdf,NA,0,NA,NA,NA,NA,NA,NA,NA,NA,NA,NA,NA,NA,NA,NA,NA,NA,NA,NA,NA
ea803,task,flow.Sequence,3_0_0_0_7,NA,NA,completion,15047.18,1811696,1811693.52,1811710.22,1826757.4,1826760,2024-05-25T06:33:08Z,1826774.1,NULL,Kanzler,diwani,d,NA,NA,NA,NA,sdf,NA,0,NA,NA,NA,NA,NA,NA,NA,NA,NA,NA,NA,NA,NA,NA,NA,NA,NA,NA,NA
ea803,block,flow.Loop,3_0_0_0,NA,NA,completion,101183.56,1725573,1725573.14,1725573.84,1826757.4,1826760,2024-05-25T06:33:08Z,1826774.1,NULL,NA,NA,NA,NA,NA,NA,NA,sdf,NA,0,NA,NA,NA,NA,NA,NA,NA,NA,NA,NA,NA,NA,NA,NA,NA,NA,NA,NA,NA
ea803,weiter,canvas.Screen,3_0_0_1,sdf,keypress(Space),response,1194.8999999999,1826760,1826757.4,1826774.1,1827969,1828007,2024-05-25T06:33:09Z,1828059.64,NULL,NA,NA,NA,NA,NA,NA,NA,sdf,NA,0,NA,NA,NA,NA,NA,NA,NA,NA,NA,NA,NA,NA,NA,NA,NA,NA,NA,NA,NA
ea803,check continue,flow.Sequence,3_0_0,NA,NA,completion,102395.16,1725573,1725573.14,1725573.84,1827969,1828007,2024-05-25T06:33:09Z,1828059.64,NULL,NA,NA,NA,NA,NA,NA,NA,sdf,NA,0,NA,NA,NA,NA,NA,NA,NA,NA,NA,NA,NA,NA,NA,NA,NA,NA,NA,NA,NA
ea803,Deep Question,html.Page,3_0_1_0_0_0_0,NA,NA,form submission,12026.36,1828059,1828059.3,1828059.64,1840086,1840087,2024-05-25T06:33:21Z,1840089.92,NULL,Zufall,kikuti,d,NA,NA,NA,mgesho,NA,NA,1,NA,NA,NA,NA,NA,NA,NA,NA,NA,NA,NA,NA,NA,NA,NA,NA,NA,NA,NA
ea803,"""Richtig""-Screen",canvas.Screen,3_0_1_0_0_0_1,NA,NA,skipped,NA,1840094,NA,NA,1840086,1840094,2024-05-25T06:33:21Z,1840089.92,NULL,Zufall,kikuti,d,NA,NA,NA,NA,sdfdsf,NA,1,NA,NA,NA,NA,NA,NA,NA,NA,NA,NA,NA,NA,NA,NA,NA,NA,NA,NA,NA
ea803,"""Falsch""-Screen",canvas.Screen,3_0_1_0_0_0_2,NA,NA,timeout,5006.48,1840097,1840080.12,1840089.92,1845079.72,1845081,2024-05-25T06:33:26Z,1845096.4,NULL,Zufall,kikuti,d,NA,NA,NA,NA,sdfdsf,0,1,NA,NA,NA,NA,NA,NA,NA,NA,NA,NA,NA,NA,NA,NA,NA,NA,NA,NA,NA
ea803,deep,flow.Sequence,3_0_1_0_0_0,NA,NA,completion,17020.08,1828059,1828059.3,1828059.64,1845079.72,1845081,2024-05-25T06:33:26Z,1845096.4,NULL,Zufall,kikuti,d,NA,NA,NA,NA,sdfdsf,NA,1,NA,NA,NA,NA,NA,NA,NA,NA,NA,NA,NA,NA,NA,NA,NA,NA,NA,NA,NA
ea803,shallow,flow.Sequence,3_0_1_0_0_1,NA,NA,skipped,NA,1845081,NA,NA,1845079.72,1845081,2024-05-25T06:33:26Z,1845096.4,NULL,Zufall,kikuti,d,NA,NA,NA,NA,sdfdsf,NA,1,NA,NA,NA,NA,NA,NA,NA,NA,NA,NA,NA,NA,NA,NA,NA,NA,NA,NA,NA
ea803,task,flow.Sequence,3_0_1_0_0,NA,NA,completion,17020.08,1828059,1828059.3,1828059.64,1845079.72,1845081,2024-05-25T06:33:26Z,1845096.4,NULL,Zufall,kikuti,d,NA,NA,NA,NA,sdfdsf,NA,1,NA,NA,NA,NA,NA,NA,NA,NA,NA,NA,NA,NA,NA,NA,NA,NA,NA,NA,NA
ea803,deep,flow.Sequence,3_0_1_0_1_0,NA,NA,skipped,NA,1845082,NA,NA,1845079.72,1845082,2024-05-25T06:33:26Z,1845096.4,NULL,Angreifer,mshambulizi,s,kitengo,tasinia,usafirishaji,NA,sdfdsf,NA,1,NA,NA,NA,NA,NA,NA,NA,NA,NA,NA,NA,NA,NA,NA,NA,NA,NA,NA,NA
ea803,Shallow Question,html.Page,3_0_1_0_1_1_0,NA,NA,form submission,4113.6000000001,1845082,1845079.72,1845096.4,1849210,1849211,2024-05-25T06:33:30Z,1849210.82,NULL,Angreifer,mshambulizi,s,kitengo,tasinia,usafirishaji,mshambulizi,NA,NA,1,NA,NA,NA,NA,NA,NA,NA,NA,NA,NA,NA,NA,NA,NA,NA,NA,NA,NA,NA
ea803,"""Richtig""-Screen",canvas.Screen,3_0_1_0_1_1_1,NA,NA,timeout,5008.3199999998,1849213,1849206.98,1849210.82,1854202.46,1854204,2024-05-25T06:33:35Z,1854219.14,NULL,Angreifer,mshambulizi,s,kitengo,tasinia,usafirishaji,NA,sdfdsf,1,1,NA,NA,NA,NA,NA,NA,NA,NA,NA,NA,NA,NA,NA,NA,NA,NA,NA,NA,NA
ea803,"""Falsch""-Screen",canvas.Screen,3_0_1_0_1_1_2,NA,NA,skipped,NA,1854206,NA,NA,1854202.46,1854206,2024-05-25T06:33:35Z,1854219.14,NULL,Angreifer,mshambulizi,s,kitengo,tasinia,usafirishaji,NA,sdfdsf,NA,1,NA,NA,NA,NA,NA,NA,NA,NA,NA,NA,NA,NA,NA,NA,NA,NA,NA,NA,NA
ea803,shallow,flow.Sequence,3_0_1_0_1_1,NA,NA,completion,9106.0600000001,1845082,1845079.72,1845096.4,1854202.46,1854206,2024-05-25T06:33:35Z,1854219.14,NULL,Angreifer,mshambulizi,s,kitengo,tasinia,usafirishaji,NA,sdfdsf,NA,1,NA,NA,NA,NA,NA,NA,NA,NA,NA,NA,NA,NA,NA,NA,NA,NA,NA,NA,NA
ea803,task,flow.Sequence,3_0_1_0_1,NA,NA,completion,9106.0600000001,1845081,1845079.72,1845096.4,1854202.46,1854207,2024-05-25T06:33:35Z,1854219.14,NULL,Angreifer,mshambulizi,s,kitengo,tasinia,usafirishaji,NA,sdfdsf,NA,1,NA,NA,NA,NA,NA,NA,NA,NA,NA,NA,NA,NA,NA,NA,NA,NA,NA,NA,NA
ea803,Deep Question,html.Page,3_0_1_0_2_0_0,NA,NA,form submission,9218.8600000001,1854207,1854202.46,1854219.14,1863438,1863439,2024-05-25T06:33:44Z,1863439.94,NULL,Kanzler,diwani,d,NA,NA,NA,divani,NA,NA,1,NA,NA,NA,NA,NA,NA,NA,NA,NA,NA,NA,NA,NA,NA,NA,NA,NA,NA,NA
ea803,"""Richtig""-Screen",canvas.Screen,3_0_1_0_2_0_1,NA,NA,skipped,NA,1863440,NA,NA,1863438,1863440,2024-05-25T06:33:44Z,1863439.94,NULL,Kanzler,diwani,d,NA,NA,NA,NA,sdfdsf,NA,1,NA,NA,NA,NA,NA,NA,NA,NA,NA,NA,NA,NA,NA,NA,NA,NA,NA,NA,NA
ea803,"""Falsch""-Screen",canvas.Screen,3_0_1_0_2_0_2,NA,NA,timeout,5037.6000000001,1863442,1863434.64,1863439.94,1868428.22,1868477,2024-05-25T06:33:50Z,1868477.54,NULL,Kanzler,diwani,d,NA,NA,NA,NA,sdfdsf,0,1,NA,NA,NA,NA,NA,NA,NA,NA,NA,NA,NA,NA,NA,NA,NA,NA,NA,NA,NA
ea803,deep,flow.Sequence,3_0_1_0_2_0,NA,NA,completion,14209.08,1854207,1854202.46,1854219.14,1868428.22,1868477,2024-05-25T06:33:50Z,1868477.54,NULL,Kanzler,diwani,d,NA,NA,NA,NA,sdfdsf,NA,1,NA,NA,NA,NA,NA,NA,NA,NA,NA,NA,NA,NA,NA,NA,NA,NA,NA,NA,NA
ea803,shallow,flow.Sequence,3_0_1_0_2_1,NA,NA,skipped,NA,1868477,NA,NA,1868428.22,1868477,2024-05-25T06:33:50Z,1868477.54,NULL,Kanzler,diwani,d,NA,NA,NA,NA,sdfdsf,NA,1,NA,NA,NA,NA,NA,NA,NA,NA,NA,NA,NA,NA,NA,NA,NA,NA,NA,NA,NA
ea803,task,flow.Sequence,3_0_1_0_2,NA,NA,completion,14209.08,1854207,1854202.46,1854219.14,1868428.22,1868477,2024-05-25T06:33:50Z,1868477.54,NULL,Kanzler,diwani,d,NA,NA,NA,NA,sdfdsf,NA,1,NA,NA,NA,NA,NA,NA,NA,NA,NA,NA,NA,NA,NA,NA,NA,NA,NA,NA,NA
ea803,Deep Question,html.Page,3_0_1_0_3_0_0,NA,NA,form submission,14551.46,1868478,1868428.22,1868477.54,1883029,1883029,2024-05-25T06:34:04Z,1883026.86,NULL,Schönheit,kirembo,d,NA,NA,NA,efuru,NA,NA,1,NA,NA,NA,NA,NA,NA,NA,NA,NA,NA,NA,NA,NA,NA,NA,NA,NA,NA,NA
ea803,"""Richtig""-Screen",canvas.Screen,3_0_1_0_3_0_1,NA,NA,skipped,NA,1883031,NA,NA,1883029,1883031,2024-05-25T06:34:04Z,1883026.86,NULL,Schönheit,kirembo,d,NA,NA,NA,NA,sdfdsf,NA,1,NA,NA,NA,NA,NA,NA,NA,NA,NA,NA,NA,NA,NA,NA,NA,NA,NA,NA,NA
ea803,"""Falsch""-Screen",canvas.Screen,3_0_1_0_3_0_2,NA,NA,timeout,4997.6799999999,1883033,1883025.48,1883026.86,1888007.86,1888009,2024-05-25T06:34:09Z,1888024.54,NULL,Schönheit,kirembo,d,NA,NA,NA,NA,sdfdsf,0,1,NA,NA,NA,NA,NA,NA,NA,NA,NA,NA,NA,NA,NA,NA,NA,NA,NA,NA,NA
ea803,deep,flow.Sequence,3_0_1_0_3_0,NA,NA,completion,19530.32,1868478,1868428.22,1868477.54,1888007.86,1888009,2024-05-25T06:34:09Z,1888024.54,NULL,Schönheit,kirembo,d,NA,NA,NA,NA,sdfdsf,NA,1,NA,NA,NA,NA,NA,NA,NA,NA,NA,NA,NA,NA,NA,NA,NA,NA,NA,NA,NA
ea803,shallow,flow.Sequence,3_0_1_0_3_1,NA,NA,skipped,NA,1888010,NA,NA,1888007.86,1888010,2024-05-25T06:34:09Z,1888024.54,NULL,Schönheit,kirembo,d,NA,NA,NA,NA,sdfdsf,NA,1,NA,NA,NA,NA,NA,NA,NA,NA,NA,NA,NA,NA,NA,NA,NA,NA,NA,NA,NA
ea803,task,flow.Sequence,3_0_1_0_3,NA,NA,completion,19530.32,1868478,1868428.22,1868477.54,1888007.86,1888010,2024-05-25T06:34:09Z,1888024.54,NULL,Schönheit,kirembo,d,NA,NA,NA,NA,sdfdsf,NA,1,NA,NA,NA,NA,NA,NA,NA,NA,NA,NA,NA,NA,NA,NA,NA,NA,NA,NA,NA
ea803,Deep Question,html.Page,3_0_1_0_4_0_0,NA,NA,form submission,4957.46,1888010,1888007.86,1888024.54,1892982,1892983,2024-05-25T06:34:14Z,1892985.9,NULL,Abrechnung,uhasibu,d,NA,NA,NA,diwani,NA,NA,1,NA,NA,NA,NA,NA,NA,NA,NA,NA,NA,NA,NA,NA,NA,NA,NA,NA,NA,NA
ea803,"""Richtig""-Screen",canvas.Screen,3_0_1_0_4_0_1,NA,NA,skipped,NA,1892984,NA,NA,1892982,1892984,2024-05-25T06:34:14Z,1892985.9,NULL,Abrechnung,uhasibu,d,NA,NA,NA,NA,sdfdsf,NA,1,NA,NA,NA,NA,NA,NA,NA,NA,NA,NA,NA,NA,NA,NA,NA,NA,NA,NA,NA
ea803,"""Falsch""-Screen",canvas.Screen,3_0_1_0_4_0_2,NA,NA,timeout,4993.24,1892985,1892978.5,1892985.9,1897962.46,1897965,2024-05-25T06:34:19Z,1897979.14,NULL,Abrechnung,uhasibu,d,NA,NA,NA,NA,sdfdsf,0,1,NA,NA,NA,NA,NA,NA,NA,NA,NA,NA,NA,NA,NA,NA,NA,NA,NA,NA,NA
ea803,deep,flow.Sequence,3_0_1_0_4_0,NA,NA,completion,9937.9199999999,1888010,1888007.86,1888024.54,1897962.46,1897966,2024-05-25T06:34:19Z,1897979.14,NULL,Abrechnung,uhasibu,d,NA,NA,NA,NA,sdfdsf,NA,1,NA,NA,NA,NA,NA,NA,NA,NA,NA,NA,NA,NA,NA,NA,NA,NA,NA,NA,NA
ea803,shallow,flow.Sequence,3_0_1_0_4_1,NA,NA,skipped,NA,1897966,NA,NA,1897962.46,1897967,2024-05-25T06:34:19Z,1897979.14,NULL,Abrechnung,uhasibu,d,NA,NA,NA,NA,sdfdsf,NA,1,NA,NA,NA,NA,NA,NA,NA,NA,NA,NA,NA,NA,NA,NA,NA,NA,NA,NA,NA
ea803,task,flow.Sequence,3_0_1_0_4,NA,NA,completion,9937.9199999999,1888010,1888007.86,1888024.54,1897962.46,1897968,2024-05-25T06:34:19Z,1897979.14,NULL,Abrechnung,uhasibu,d,NA,NA,NA,NA,sdfdsf,NA,1,NA,NA,NA,NA,NA,NA,NA,NA,NA,NA,NA,NA,NA,NA,NA,NA,NA,NA,NA
ea803,deep,flow.Sequence,3_0_1_0_5_0,NA,NA,skipped,NA,1897968,NA,NA,1897962.46,1897968,2024-05-25T06:34:19Z,1897979.14,NULL,Wettbewerb,ushindani,s,mapendezi,kichocheo,ubaguzi,NA,sdfdsf,NA,1,NA,NA,NA,NA,NA,NA,NA,NA,NA,NA,NA,NA,NA,NA,NA,NA,NA,NA,NA
ea803,Shallow Question,html.Page,3_0_1_0_5_1_0,NA,NA,form submission,5195.8600000001,1897968,1897962.46,1897979.14,1903175,1903176,2024-05-25T06:34:24Z,1903177.52,NULL,Wettbewerb,ushindani,s,mapendezi,kichocheo,ubaguzi,ushindani,NA,NA,1,NA,NA,NA,NA,NA,NA,NA,NA,NA,NA,NA,NA,NA,NA,NA,NA,NA,NA,NA
ea803,"""Richtig""-Screen",canvas.Screen,3_0_1_0_5_1_1,NA,NA,timeout,5006.6199999999,1903182,1903170.82,1903177.52,1908167.46,1908169,2024-05-25T06:34:29Z,1908184.14,NULL,Wettbewerb,ushindani,s,mapendezi,kichocheo,ubaguzi,NA,sdfdsf,1,1,NA,NA,NA,NA,NA,NA,NA,NA,NA,NA,NA,NA,NA,NA,NA,NA,NA,NA,NA
ea803,"""Falsch""-Screen",canvas.Screen,3_0_1_0_5_1_2,NA,NA,skipped,NA,1908172,NA,NA,1908167.46,1908172,2024-05-25T06:34:29Z,1908184.14,NULL,Wettbewerb,ushindani,s,mapendezi,kichocheo,ubaguzi,NA,sdfdsf,NA,1,NA,NA,NA,NA,NA,NA,NA,NA,NA,NA,NA,NA,NA,NA,NA,NA,NA,NA,NA
ea803,shallow,flow.Sequence,3_0_1_0_5_1,NA,NA,completion,10188.32,1897968,1897962.46,1897979.14,1908167.46,1908172,2024-05-25T06:34:29Z,1908184.14,NULL,Wettbewerb,ushindani,s,mapendezi,kichocheo,ubaguzi,NA,sdfdsf,NA,1,NA,NA,NA,NA,NA,NA,NA,NA,NA,NA,NA,NA,NA,NA,NA,NA,NA,NA,NA
ea803,task,flow.Sequence,3_0_1_0_5,NA,NA,completion,10188.32,1897968,1897962.46,1897979.14,1908167.46,1908173,2024-05-25T06:34:29Z,1908184.14,NULL,Wettbewerb,ushindani,s,mapendezi,kichocheo,ubaguzi,NA,sdfdsf,NA,1,NA,NA,NA,NA,NA,NA,NA,NA,NA,NA,NA,NA,NA,NA,NA,NA,NA,NA,NA
ea803,deep,flow.Sequence,3_0_1_0_6_0,NA,NA,skipped,NA,1908173,NA,NA,1908167.46,1908173,2024-05-25T06:34:29Z,1908184.14,NULL,Sänger,mwimbaji,s,msichana,shughuli,mshirika,NA,sdfdsf,NA,1,NA,NA,NA,NA,NA,NA,NA,NA,NA,NA,NA,NA,NA,NA,NA,NA,NA,NA,NA
ea803,Shallow Question,html.Page,3_0_1_0_6_1_0,NA,NA,form submission,5810.8600000001,1908173,1908167.46,1908184.14,1913995,1913996,2024-05-25T06:34:35Z,1913998.92,NULL,Sänger,mwimbaji,s,msichana,shughuli,mshirika,mwimbaji,NA,NA,1,NA,NA,NA,NA,NA,NA,NA,NA,NA,NA,NA,NA,NA,NA,NA,NA,NA,NA,NA
ea803,"""Richtig""-Screen",canvas.Screen,3_0_1_0_6_1_1,NA,NA,timeout,4997.52,1913998,1913992.26,1913998.92,1918979.76,1918997,2024-05-25T06:34:40Z,1918996.44,NULL,Sänger,mwimbaji,s,msichana,shughuli,mshirika,NA,sdfdsf,1,1,NA,NA,NA,NA,NA,NA,NA,NA,NA,NA,NA,NA,NA,NA,NA,NA,NA,NA,NA
ea803,"""Falsch""-Screen",canvas.Screen,3_0_1_0_6_1_2,NA,NA,skipped,NA,1918999,NA,NA,1918979.76,1918999,2024-05-25T06:34:40Z,1918996.44,NULL,Sänger,mwimbaji,s,msichana,shughuli,mshirika,NA,sdfdsf,NA,1,NA,NA,NA,NA,NA,NA,NA,NA,NA,NA,NA,NA,NA,NA,NA,NA,NA,NA,NA
ea803,shallow,flow.Sequence,3_0_1_0_6_1,NA,NA,completion,10795.62,1908173,1908167.46,1908184.14,1918979.76,1919000,2024-05-25T06:34:40Z,1918996.44,NULL,Sänger,mwimbaji,s,msichana,shughuli,mshirika,NA,sdfdsf,NA,1,NA,NA,NA,NA,NA,NA,NA,NA,NA,NA,NA,NA,NA,NA,NA,NA,NA,NA,NA
ea803,task,flow.Sequence,3_0_1_0_6,NA,NA,completion,10795.62,1908173,1908167.46,1908184.14,1918979.76,1919000,2024-05-25T06:34:40Z,1918996.44,NULL,Sänger,mwimbaji,s,msichana,shughuli,mshirika,NA,sdfdsf,NA,1,NA,NA,NA,NA,NA,NA,NA,NA,NA,NA,NA,NA,NA,NA,NA,NA,NA,NA,NA
ea803,deep,flow.Sequence,3_0_1_0_7_0,NA,NA,skipped,NA,1919000,NA,NA,1918979.76,1919000,2024-05-25T06:34:40Z,1918996.44,NULL,Auftrag,uagizaji,s,ghanima,kuzingatia,msukani,NA,sdfdsf,NA,1,NA,NA,NA,NA,NA,NA,NA,NA,NA,NA,NA,NA,NA,NA,NA,NA,NA,NA,NA
ea803,Shallow Question,html.Page,3_0_1_0_7_1_0,NA,NA,form submission,4448.5600000001,1919000,1918979.76,1918996.44,1923445,1923446,2024-05-25T06:34:44Z,1923459.26,NULL,Auftrag,uagizaji,s,ghanima,kuzingatia,msukani,kuzingatia,NA,NA,1,NA,NA,NA,NA,NA,NA,NA,NA,NA,NA,NA,NA,NA,NA,NA,NA,NA,NA,NA
ea803,"""Richtig""-Screen",canvas.Screen,3_0_1_0_7_1_1,NA,NA,skipped,NA,1923448,NA,NA,1923445,1923448,2024-05-25T06:34:44Z,1923459.26,NULL,Auftrag,uagizaji,s,ghanima,kuzingatia,msukani,NA,sdfdsf,NA,1,NA,NA,NA,NA,NA,NA,NA,NA,NA,NA,NA,NA,NA,NA,NA,NA,NA,NA,NA
ea803,"""Falsch""-Screen",canvas.Screen,3_0_1_0_7_1_2,NA,NA,timeout,5004.74,1923449,1923442.38,1923459.26,1928447.32,1928449,2024-05-25T06:34:49Z,1928464,NULL,Auftrag,uagizaji,s,ghanima,kuzingatia,msukani,NA,sdfdsf,0,1,NA,NA,NA,NA,NA,NA,NA,NA,NA,NA,NA,NA,NA,NA,NA,NA,NA,NA,NA
ea803,shallow,flow.Sequence,3_0_1_0_7_1,NA,NA,completion,9450.8800000001,1919000,1918979.76,1918996.44,1928447.32,1928449,2024-05-25T06:34:49Z,1928464,NULL,Auftrag,uagizaji,s,ghanima,kuzingatia,msukani,NA,sdfdsf,NA,1,NA,NA,NA,NA,NA,NA,NA,NA,NA,NA,NA,NA,NA,NA,NA,NA,NA,NA,NA
ea803,task,flow.Sequence,3_0_1_0_7,NA,NA,completion,9450.8800000001,1919000,1918979.76,1918996.44,1928447.32,1928450,2024-05-25T06:34:49Z,1928464,NULL,Auftrag,uagizaji,s,ghanima,kuzingatia,msukani,NA,sdfdsf,NA,1,NA,NA,NA,NA,NA,NA,NA,NA,NA,NA,NA,NA,NA,NA,NA,NA,NA,NA,NA
ea803,block,flow.Loop,3_0_1_0,NA,NA,completion,100387.68,1828059,1828059.3,1828059.64,1928447.32,1928450,2024-05-25T06:34:49Z,1928464,NULL,NA,NA,NA,NA,NA,NA,NA,sdfdsf,NA,1,NA,NA,NA,NA,NA,NA,NA,NA,NA,NA,NA,NA,NA,NA,NA,NA,NA,NA,NA
ea803,weiter,canvas.Screen,3_0_1_1,sdf,keypress(Space),response,1350,1928450,1928447.32,1928464,1929814,1929837,2024-05-25T06:34:51Z,1929884.8,NULL,NA,NA,NA,NA,NA,NA,NA,sdfdsf,NA,1,NA,NA,NA,NA,NA,NA,NA,NA,NA,NA,NA,NA,NA,NA,NA,NA,NA,NA,NA
ea803,check continue,flow.Sequence,3_0_1,NA,NA,completion,101754.36,1828059,1828059.3,1828059.64,1929814,1929838,2024-05-25T06:34:51Z,1929884.8,NULL,NA,NA,NA,NA,NA,NA,NA,sdfdsf,NA,1,NA,NA,NA,NA,NA,NA,NA,NA,NA,NA,NA,NA,NA,NA,NA,NA,NA,NA,NA
ea803,deep,flow.Sequence,3_0_2_0_0_0,NA,NA,skipped,NA,1929882,NA,NA,1929814,1929882,2024-05-25T06:34:51Z,1929884.8,NULL,Angreifer,mshambulizi,s,kitengo,tasinia,usafirishaji,NA,sdf,NA,2,NA,NA,NA,NA,NA,NA,NA,NA,NA,NA,NA,NA,NA,NA,NA,NA,NA,NA,NA
ea803,Shallow Question,html.Page,3_0_2_0_0_1_0,NA,NA,form submission,3244.2,1929882,1929882.04,1929884.8,1933129,1933129,2024-05-25T06:34:54Z,1933128.72,NULL,Angreifer,mshambulizi,s,kitengo,tasinia,usafirishaji,mshambulizi,NA,NA,2,NA,NA,NA,NA,NA,NA,NA,NA,NA,NA,NA,NA,NA,NA,NA,NA,NA,NA,NA
ea803,"""Richtig""-Screen",canvas.Screen,3_0_2_0_0_1_1,NA,NA,timeout,5038.24,1933131,1933125.42,1933128.72,1938115.54,1938168,2024-05-25T06:34:59Z,1938166.96,NULL,Angreifer,mshambulizi,s,kitengo,tasinia,usafirishaji,NA,sdf,1,2,NA,NA,NA,NA,NA,NA,NA,NA,NA,NA,NA,NA,NA,NA,NA,NA,NA,NA,NA
ea803,"""Falsch""-Screen",canvas.Screen,3_0_2_0_0_1_2,NA,NA,skipped,NA,1938170,NA,NA,1938115.54,1938170,2024-05-25T06:34:59Z,1938166.96,NULL,Angreifer,mshambulizi,s,kitengo,tasinia,usafirishaji,NA,sdf,NA,2,NA,NA,NA,NA,NA,NA,NA,NA,NA,NA,NA,NA,NA,NA,NA,NA,NA,NA,NA
ea803,shallow,flow.Sequence,3_0_2_0_0_1,NA,NA,completion,8230.74,1929882,1929882.04,1929884.8,1938115.54,1938170,2024-05-25T06:34:59Z,1938166.96,NULL,Angreifer,mshambulizi,s,kitengo,tasinia,usafirishaji,NA,sdf,NA,2,NA,NA,NA,NA,NA,NA,NA,NA,NA,NA,NA,NA,NA,NA,NA,NA,NA,NA,NA
ea803,task,flow.Sequence,3_0_2_0_0,NA,NA,completion,8230.74,1929881,1929882.04,1929884.8,1938115.54,1938170,2024-05-25T06:34:59Z,1938166.96,NULL,Angreifer,mshambulizi,s,kitengo,tasinia,usafirishaji,NA,sdf,NA,2,NA,NA,NA,NA,NA,NA,NA,NA,NA,NA,NA,NA,NA,NA,NA,NA,NA,NA,NA
ea803,Deep Question,html.Page,3_0_2_0_1_0_0,NA,NA,form submission,7039.04,1938170,1938115.54,1938166.96,1945206,1945206,2024-05-25T06:35:06Z,1945209.46,NULL,Zufall,kikuti,d,NA,NA,NA,kikuti,NA,NA,2,NA,NA,NA,NA,NA,NA,NA,NA,NA,NA,NA,NA,NA,NA,NA,NA,NA,NA,NA
ea803,"""Richtig""-Screen",canvas.Screen,3_0_2_0_1_0_1,NA,NA,timeout,5005.96,1945207,1945201.6,1945209.46,1950198.74,1950200,2024-05-25T06:35:11Z,1950215.42,NULL,Zufall,kikuti,d,NA,NA,NA,NA,sdf,1,2,NA,NA,NA,NA,NA,NA,NA,NA,NA,NA,NA,NA,NA,NA,NA,NA,NA,NA,NA
ea803,"""Falsch""-Screen",canvas.Screen,3_0_2_0_1_0_2,NA,NA,skipped,NA,1950202,NA,NA,1950198.74,1950202,2024-05-25T06:35:11Z,1950215.42,NULL,Zufall,kikuti,d,NA,NA,NA,NA,sdf,NA,2,NA,NA,NA,NA,NA,NA,NA,NA,NA,NA,NA,NA,NA,NA,NA,NA,NA,NA,NA
ea803,deep,flow.Sequence,3_0_2_0_1_0,NA,NA,completion,12031.78,1938170,1938115.54,1938166.96,1950198.74,1950202,2024-05-25T06:35:11Z,1950215.42,NULL,Zufall,kikuti,d,NA,NA,NA,NA,sdf,NA,2,NA,NA,NA,NA,NA,NA,NA,NA,NA,NA,NA,NA,NA,NA,NA,NA,NA,NA,NA
ea803,shallow,flow.Sequence,3_0_2_0_1_1,NA,NA,skipped,NA,1950202,NA,NA,1950198.74,1950202,2024-05-25T06:35:11Z,1950215.42,NULL,Zufall,kikuti,d,NA,NA,NA,NA,sdf,NA,2,NA,NA,NA,NA,NA,NA,NA,NA,NA,NA,NA,NA,NA,NA,NA,NA,NA,NA,NA
ea803,task,flow.Sequence,3_0_2_0_1,NA,NA,completion,12031.78,1938170,1938115.54,1938166.96,1950198.74,1950202,2024-05-25T06:35:11Z,1950215.42,NULL,Zufall,kikuti,d,NA,NA,NA,NA,sdf,NA,2,NA,NA,NA,NA,NA,NA,NA,NA,NA,NA,NA,NA,NA,NA,NA,NA,NA,NA,NA
ea803,Deep Question,html.Page,3_0_2_0_2_0_0,NA,NA,form submission,5481.5800000001,1950202,1950198.74,1950215.42,1955697,1955697,2024-05-25T06:35:17Z,1955701.58,NULL,Abrechnung,uhasibu,d,NA,NA,NA,diwani,NA,NA,2,NA,NA,NA,NA,NA,NA,NA,NA,NA,NA,NA,NA,NA,NA,NA,NA,NA,NA,NA
ea803,"""Richtig""-Screen",canvas.Screen,3_0_2_0_2_0_1,NA,NA,skipped,NA,1955699,NA,NA,1955697,1955699,2024-05-25T06:35:17Z,1955701.58,NULL,Abrechnung,uhasibu,d,NA,NA,NA,NA,sdf,NA,2,NA,NA,NA,NA,NA,NA,NA,NA,NA,NA,NA,NA,NA,NA,NA,NA,NA,NA,NA
ea803,"""Falsch""-Screen",canvas.Screen,3_0_2_0_2_0_2,NA,NA,timeout,5003.3799999999,1955700,1955693.5,1955701.58,1960688.28,1960689,2024-05-25T06:35:22Z,1960704.96,NULL,Abrechnung,uhasibu,d,NA,NA,NA,NA,sdf,0,2,NA,NA,NA,NA,NA,NA,NA,NA,NA,NA,NA,NA,NA,NA,NA,NA,NA,NA,NA
ea803,deep,flow.Sequence,3_0_2_0_2_0,NA,NA,completion,10472.86,1950202,1950198.74,1950215.42,1960688.28,1960690,2024-05-25T06:35:22Z,1960704.96,NULL,Abrechnung,uhasibu,d,NA,NA,NA,NA,sdf,NA,2,NA,NA,NA,NA,NA,NA,NA,NA,NA,NA,NA,NA,NA,NA,NA,NA,NA,NA,NA
ea803,shallow,flow.Sequence,3_0_2_0_2_1,NA,NA,skipped,NA,1960690,NA,NA,1960688.28,1960690,2024-05-25T06:35:22Z,1960704.96,NULL,Abrechnung,uhasibu,d,NA,NA,NA,NA,sdf,NA,2,NA,NA,NA,NA,NA,NA,NA,NA,NA,NA,NA,NA,NA,NA,NA,NA,NA,NA,NA
ea803,task,flow.Sequence,3_0_2_0_2,NA,NA,completion,10472.86,1950202,1950198.74,1950215.42,1960688.28,1960691,2024-05-25T06:35:22Z,1960704.96,NULL,Abrechnung,uhasibu,d,NA,NA,NA,NA,sdf,NA,2,NA,NA,NA,NA,NA,NA,NA,NA,NA,NA,NA,NA,NA,NA,NA,NA,NA,NA,NA
ea803,deep,flow.Sequence,3_0_2_0_3_0,NA,NA,skipped,NA,1960691,NA,NA,1960688.28,1960691,2024-05-25T06:35:22Z,1960704.96,NULL,Wettbewerb,ushindani,s,mapendezi,kichocheo,ubaguzi,NA,sdf,NA,2,NA,NA,NA,NA,NA,NA,NA,NA,NA,NA,NA,NA,NA,NA,NA,NA,NA,NA,NA
ea803,Shallow Question,html.Page,3_0_2_0_3_1_0,NA,NA,form submission,7150.04,1960691,1960688.28,1960704.96,1967855,1967855,2024-05-25T06:35:29Z,1967852.54,NULL,Wettbewerb,ushindani,s,mapendezi,kichocheo,ubaguzi,ushindani,NA,NA,2,NA,NA,NA,NA,NA,NA,NA,NA,NA,NA,NA,NA,NA,NA,NA,NA,NA,NA,NA
ea803,"""Richtig""-Screen",canvas.Screen,3_0_2_0_3_1_1,NA,NA,timeout,5006.6599999999,1967857,1967851.6,1967852.54,1972842.52,1972846,2024-05-25T06:35:34Z,1972859.2,NULL,Wettbewerb,ushindani,s,mapendezi,kichocheo,ubaguzi,NA,sdf,1,2,NA,NA,NA,NA,NA,NA,NA,NA,NA,NA,NA,NA,NA,NA,NA,NA,NA,NA,NA
ea803,"""Falsch""-Screen",canvas.Screen,3_0_2_0_3_1_2,NA,NA,skipped,NA,1972853,NA,NA,1972842.52,1972853,2024-05-25T06:35:34Z,1972859.2,NULL,Wettbewerb,ushindani,s,mapendezi,kichocheo,ubaguzi,NA,sdf,NA,2,NA,NA,NA,NA,NA,NA,NA,NA,NA,NA,NA,NA,NA,NA,NA,NA,NA,NA,NA
ea803,shallow,flow.Sequence,3_0_2_0_3_1,NA,NA,completion,12137.56,1960691,1960688.28,1960704.96,1972842.52,1972854,2024-05-25T06:35:34Z,1972859.2,NULL,Wettbewerb,ushindani,s,mapendezi,kichocheo,ubaguzi,NA,sdf,NA,2,NA,NA,NA,NA,NA,NA,NA,NA,NA,NA,NA,NA,NA,NA,NA,NA,NA,NA,NA
ea803,task,flow.Sequence,3_0_2_0_3,NA,NA,completion,12137.56,1960691,1960688.28,1960704.96,1972842.52,1972854,2024-05-25T06:35:34Z,1972859.2,NULL,Wettbewerb,ushindani,s,mapendezi,kichocheo,ubaguzi,NA,sdf,NA,2,NA,NA,NA,NA,NA,NA,NA,NA,NA,NA,NA,NA,NA,NA,NA,NA,NA,NA,NA
ea803,Deep Question,html.Page,3_0_2_0_4_0_0,NA,NA,form submission,6021.8,1972854,1972842.52,1972859.2,1978881,1978882,2024-05-25T06:35:40Z,1978878.1,NULL,Kanzler,diwani,d,NA,NA,NA,diwani,NA,NA,2,NA,NA,NA,NA,NA,NA,NA,NA,NA,NA,NA,NA,NA,NA,NA,NA,NA,NA,NA
ea803,"""Richtig""-Screen",canvas.Screen,3_0_2_0_4_0_1,NA,NA,timeout,4992.24,1978883,1978875.7,1978878.1,1983853.64,1983855,2024-05-25T06:35:45Z,1983870.34,NULL,Kanzler,diwani,d,NA,NA,NA,NA,sdf,1,2,NA,NA,NA,NA,NA,NA,NA,NA,NA,NA,NA,NA,NA,NA,NA,NA,NA,NA,NA
ea803,"""Falsch""-Screen",canvas.Screen,3_0_2_0_4_0_2,NA,NA,skipped,NA,1983858,NA,NA,1983853.64,1983858,2024-05-25T06:35:45Z,1983870.34,NULL,Kanzler,diwani,d,NA,NA,NA,NA,sdf,NA,2,NA,NA,NA,NA,NA,NA,NA,NA,NA,NA,NA,NA,NA,NA,NA,NA,NA,NA,NA
ea803,deep,flow.Sequence,3_0_2_0_4_0,NA,NA,completion,10994.44,1972854,1972842.52,1972859.2,1983853.64,1983858,2024-05-25T06:35:45Z,1983870.34,NULL,Kanzler,diwani,d,NA,NA,NA,NA,sdf,NA,2,NA,NA,NA,NA,NA,NA,NA,NA,NA,NA,NA,NA,NA,NA,NA,NA,NA,NA,NA
ea803,shallow,flow.Sequence,3_0_2_0_4_1,NA,NA,skipped,NA,1983858,NA,NA,1983853.64,1983858,2024-05-25T06:35:45Z,1983870.34,NULL,Kanzler,diwani,d,NA,NA,NA,NA,sdf,NA,2,NA,NA,NA,NA,NA,NA,NA,NA,NA,NA,NA,NA,NA,NA,NA,NA,NA,NA,NA
ea803,task,flow.Sequence,3_0_2_0_4,NA,NA,completion,10994.44,1972854,1972842.52,1972859.2,1983853.64,1983859,2024-05-25T06:35:45Z,1983870.34,NULL,Kanzler,diwani,d,NA,NA,NA,NA,sdf,NA,2,NA,NA,NA,NA,NA,NA,NA,NA,NA,NA,NA,NA,NA,NA,NA,NA,NA,NA,NA
ea803,Deep Question,html.Page,3_0_2_0_5_0_0,NA,NA,form submission,11636.66,1983859,1983853.64,1983870.34,1995507,1995507,2024-05-25T06:35:57Z,1995510.4,NULL,Schönheit,kirembo,d,NA,NA,NA,kirumbi,NA,NA,2,NA,NA,NA,NA,NA,NA,NA,NA,NA,NA,NA,NA,NA,NA,NA,NA,NA,NA,NA
ea803,"""Richtig""-Screen",canvas.Screen,3_0_2_0_5_0_1,NA,NA,skipped,NA,1995509,NA,NA,1995507,1995509,2024-05-25T06:35:57Z,1995510.4,NULL,Schönheit,kirembo,d,NA,NA,NA,NA,sdf,NA,2,NA,NA,NA,NA,NA,NA,NA,NA,NA,NA,NA,NA,NA,NA,NA,NA,NA,NA,NA
ea803,"""Falsch""-Screen",canvas.Screen,3_0_2_0_5_0_2,NA,NA,timeout,5007.8,1995511,1995503.6,1995510.4,2000501.58,2000507,2024-05-25T06:36:02Z,2000518.2,NULL,Schönheit,kirembo,d,NA,NA,NA,NA,sdf,0,2,NA,NA,NA,NA,NA,NA,NA,NA,NA,NA,NA,NA,NA,NA,NA,NA,NA,NA,NA
ea803,deep,flow.Sequence,3_0_2_0_5_0,NA,NA,completion,16631.24,1983859,1983853.64,1983870.34,2000501.58,2000507,2024-05-25T06:36:02Z,2000518.2,NULL,Schönheit,kirembo,d,NA,NA,NA,NA,sdf,NA,2,NA,NA,NA,NA,NA,NA,NA,NA,NA,NA,NA,NA,NA,NA,NA,NA,NA,NA,NA
ea803,shallow,flow.Sequence,3_0_2_0_5_1,NA,NA,skipped,NA,2000507,NA,NA,2000501.58,2000508,2024-05-25T06:36:02Z,2000518.2,NULL,Schönheit,kirembo,d,NA,NA,NA,NA,sdf,NA,2,NA,NA,NA,NA,NA,NA,NA,NA,NA,NA,NA,NA,NA,NA,NA,NA,NA,NA,NA
ea803,task,flow.Sequence,3_0_2_0_5,NA,NA,completion,16631.24,1983859,1983853.64,1983870.34,2000501.58,2000508,2024-05-25T06:36:02Z,2000518.2,NULL,Schönheit,kirembo,d,NA,NA,NA,NA,sdf,NA,2,NA,NA,NA,NA,NA,NA,NA,NA,NA,NA,NA,NA,NA,NA,NA,NA,NA,NA,NA
ea803,deep,flow.Sequence,3_0_2_0_6_0,NA,NA,skipped,NA,2000508,NA,NA,2000501.58,2000508,2024-05-25T06:36:02Z,2000518.2,NULL,Sänger,mwimbaji,s,msichana,shughuli,mshirika,NA,sdf,NA,2,NA,NA,NA,NA,NA,NA,NA,NA,NA,NA,NA,NA,NA,NA,NA,NA,NA,NA,NA
ea803,Shallow Question,html.Page,3_0_2_0_6_1_0,NA,NA,form submission,6679.8,2000508,2000501.58,2000518.2,2007198,2007199,2024-05-25T06:36:08Z,2007198.78,NULL,Sänger,mwimbaji,s,msichana,shughuli,mshirika,mwimbaji,NA,NA,2,NA,NA,NA,NA,NA,NA,NA,NA,NA,NA,NA,NA,NA,NA,NA,NA,NA,NA,NA
ea803,"""Richtig""-Screen",canvas.Screen,3_0_2_0_6_1_1,NA,NA,timeout,5001.98,2007201,2007195.56,2007198.78,2012184.08,2012186,2024-05-25T06:36:13Z,2012200.76,NULL,Sänger,mwimbaji,s,msichana,shughuli,mshirika,NA,sdf,1,2,NA,NA,NA,NA,NA,NA,NA,NA,NA,NA,NA,NA,NA,NA,NA,NA,NA,NA,NA
ea803,"""Falsch""-Screen",canvas.Screen,3_0_2_0_6_1_2,NA,NA,skipped,NA,2012189,NA,NA,2012184.08,2012189,2024-05-25T06:36:13Z,2012200.76,NULL,Sänger,mwimbaji,s,msichana,shughuli,mshirika,NA,sdf,NA,2,NA,NA,NA,NA,NA,NA,NA,NA,NA,NA,NA,NA,NA,NA,NA,NA,NA,NA,NA
ea803,shallow,flow.Sequence,3_0_2_0_6_1,NA,NA,completion,11665.88,2000508,2000501.58,2000518.2,2012184.08,2012190,2024-05-25T06:36:13Z,2012200.76,NULL,Sänger,mwimbaji,s,msichana,shughuli,mshirika,NA,sdf,NA,2,NA,NA,NA,NA,NA,NA,NA,NA,NA,NA,NA,NA,NA,NA,NA,NA,NA,NA,NA
ea803,task,flow.Sequence,3_0_2_0_6,NA,NA,completion,11665.88,2000508,2000501.58,2000518.2,2012184.08,2012190,2024-05-25T06:36:13Z,2012200.76,NULL,Sänger,mwimbaji,s,msichana,shughuli,mshirika,NA,sdf,NA,2,NA,NA,NA,NA,NA,NA,NA,NA,NA,NA,NA,NA,NA,NA,NA,NA,NA,NA,NA
ea803,deep,flow.Sequence,3_0_2_0_7_0,NA,NA,skipped,NA,2012190,NA,NA,2012184.08,2012190,2024-05-25T06:36:13Z,2012200.76,NULL,Auftrag,uagizaji,s,ghanima,kuzingatia,msukani,NA,sdf,NA,2,NA,NA,NA,NA,NA,NA,NA,NA,NA,NA,NA,NA,NA,NA,NA,NA,NA,NA,NA
ea803,Shallow Question,html.Page,3_0_2_0_7_1_0,NA,NA,form submission,3968.24,2012190,2012184.08,2012200.76,2016169,2016169,2024-05-25T06:36:17Z,2016178.14,NULL,Auftrag,uagizaji,s,ghanima,kuzingatia,msukani,uagizaji,NA,NA,2,NA,NA,NA,NA,NA,NA,NA,NA,NA,NA,NA,NA,NA,NA,NA,NA,NA,NA,NA
ea803,"""Richtig""-Screen",canvas.Screen,3_0_2_0_7_1_1,NA,NA,timeout,5002.1000000001,2016171,2016166.2,2016178.14,2021163.56,2021165,2024-05-25T06:36:22Z,2021180.24,NULL,Auftrag,uagizaji,s,ghanima,kuzingatia,msukani,NA,sdf,1,2,NA,NA,NA,NA,NA,NA,NA,NA,NA,NA,NA,NA,NA,NA,NA,NA,NA,NA,NA
ea803,"""Falsch""-Screen",canvas.Screen,3_0_2_0_7_1_2,NA,NA,skipped,NA,2021168,NA,NA,2021163.56,2021168,2024-05-25T06:36:22Z,2021180.24,NULL,Auftrag,uagizaji,s,ghanima,kuzingatia,msukani,NA,sdf,NA,2,NA,NA,NA,NA,NA,NA,NA,NA,NA,NA,NA,NA,NA,NA,NA,NA,NA,NA,NA
ea803,shallow,flow.Sequence,3_0_2_0_7_1,NA,NA,completion,8962.8,2012190,2012184.08,2012200.76,2021163.56,2021168,2024-05-25T06:36:22Z,2021180.24,NULL,Auftrag,uagizaji,s,ghanima,kuzingatia,msukani,NA,sdf,NA,2,NA,NA,NA,NA,NA,NA,NA,NA,NA,NA,NA,NA,NA,NA,NA,NA,NA,NA,NA
ea803,task,flow.Sequence,3_0_2_0_7,NA,NA,completion,8962.8,2012190,2012184.08,2012200.76,2021163.56,2021168,2024-05-25T06:36:22Z,2021180.24,NULL,Auftrag,uagizaji,s,ghanima,kuzingatia,msukani,NA,sdf,NA,2,NA,NA,NA,NA,NA,NA,NA,NA,NA,NA,NA,NA,NA,NA,NA,NA,NA,NA,NA
ea803,block,flow.Loop,3_0_2_0,NA,NA,completion,91278.76,1929881,1929882.04,1929884.8,2021163.56,2021169,2024-05-25T06:36:22Z,2021180.24,NULL,NA,NA,NA,NA,NA,NA,NA,sdf,NA,2,NA,NA,NA,NA,NA,NA,NA,NA,NA,NA,NA,NA,NA,NA,NA,NA,NA,NA,NA
ea803,weiter,canvas.Screen,3_0_2_1,sdf,keypress(Space),response,1242.76,2021169,2021163.56,2021180.24,2022423,2022436,2024-05-25T06:36:23Z,2022498.62,NULL,NA,NA,NA,NA,NA,NA,NA,sdf,NA,2,NA,NA,NA,NA,NA,NA,NA,NA,NA,NA,NA,NA,NA,NA,NA,NA,NA,NA,NA
ea803,check continue,flow.Sequence,3_0_2,NA,NA,completion,92538.2,1929881,1929882.04,1929884.8,2022423,2022437,2024-05-25T06:36:23Z,2022498.62,NULL,NA,NA,NA,NA,NA,NA,NA,sdf,NA,2,NA,NA,NA,NA,NA,NA,NA,NA,NA,NA,NA,NA,NA,NA,NA,NA,NA,NA,NA
ea803,Deep Question,html.Page,3_0_3_0_0_0_0,NA,NA,form submission,6611.3799999999,2022490,2022489.88,2022498.62,2029110,2029112,2024-05-25T06:36:30Z,2029113.48,NULL,Zufall,kikuti,d,NA,NA,NA,kikuti,NA,NA,3,NA,NA,NA,NA,NA,NA,NA,NA,NA,NA,NA,NA,NA,NA,NA,NA,NA,NA,NA
ea803,"""Richtig""-Screen",canvas.Screen,3_0_3_0_0_0_1,NA,NA,timeout,4998.3400000001,2029118,2029104.46,2029113.48,2034095.32,2034099,2024-05-25T06:36:35Z,2034111.82,NULL,Zufall,kikuti,d,NA,NA,NA,NA,qt,1,3,NA,NA,NA,NA,NA,NA,NA,NA,NA,NA,NA,NA,NA,NA,NA,NA,NA,NA,NA
ea803,"""Falsch""-Screen",canvas.Screen,3_0_3_0_0_0_2,NA,NA,skipped,NA,2034107,NA,NA,2034095.32,2034107,2024-05-25T06:36:35Z,2034111.82,NULL,Zufall,kikuti,d,NA,NA,NA,NA,qt,NA,3,NA,NA,NA,NA,NA,NA,NA,NA,NA,NA,NA,NA,NA,NA,NA,NA,NA,NA,NA
ea803,deep,flow.Sequence,3_0_3_0_0_0,NA,NA,completion,11596.7,2022490,2022489.88,2022498.62,2034095.32,2034107,2024-05-25T06:36:35Z,2034111.82,NULL,Zufall,kikuti,d,NA,NA,NA,NA,qt,NA,3,NA,NA,NA,NA,NA,NA,NA,NA,NA,NA,NA,NA,NA,NA,NA,NA,NA,NA,NA
ea803,shallow,flow.Sequence,3_0_3_0_0_1,NA,NA,skipped,NA,2034107,NA,NA,2034095.32,2034107,2024-05-25T06:36:35Z,2034111.82,NULL,Zufall,kikuti,d,NA,NA,NA,NA,qt,NA,3,NA,NA,NA,NA,NA,NA,NA,NA,NA,NA,NA,NA,NA,NA,NA,NA,NA,NA,NA
ea803,task,flow.Sequence,3_0_3_0_0,NA,NA,completion,11596.7,2022490,2022489.88,2022498.62,2034095.32,2034108,2024-05-25T06:36:35Z,2034111.82,NULL,Zufall,kikuti,d,NA,NA,NA,NA,qt,NA,3,NA,NA,NA,NA,NA,NA,NA,NA,NA,NA,NA,NA,NA,NA,NA,NA,NA,NA,NA
ea803,deep,flow.Sequence,3_0_3_0_1_0,NA,NA,skipped,NA,2034108,NA,NA,2034095.32,2034108,2024-05-25T06:36:35Z,2034111.82,NULL,Angreifer,mshambulizi,s,kitengo,tasinia,usafirishaji,NA,qt,NA,3,NA,NA,NA,NA,NA,NA,NA,NA,NA,NA,NA,NA,NA,NA,NA,NA,NA,NA,NA
ea803,Shallow Question,html.Page,3_0_3_0_1_1_0,NA,NA,form submission,5362.1799999999,2034108,2034095.32,2034111.82,2039474,2039474,2024-05-25T06:36:41Z,2039471.56,NULL,Angreifer,mshambulizi,s,kitengo,tasinia,usafirishaji,mshambulizi,NA,NA,3,NA,NA,NA,NA,NA,NA,NA,NA,NA,NA,NA,NA,NA,NA,NA,NA,NA,NA,NA
ea803,"""Richtig""-Screen",canvas.Screen,3_0_3_0_1_1_1,NA,NA,timeout,5011.98,2039476,2039469.5,2039471.56,2044462.66,2044464,2024-05-25T06:36:45Z,2044483.54,NULL,Angreifer,mshambulizi,s,kitengo,tasinia,usafirishaji,NA,qt,1,3,NA,NA,NA,NA,NA,NA,NA,NA,NA,NA,NA,NA,NA,NA,NA,NA,NA,NA,NA
ea803,"""Falsch""-Screen",canvas.Screen,3_0_3_0_1_1_2,NA,NA,skipped,NA,2044468,NA,NA,2044462.66,2044468,2024-05-25T06:36:46Z,2044483.54,NULL,Angreifer,mshambulizi,s,kitengo,tasinia,usafirishaji,NA,qt,NA,3,NA,NA,NA,NA,NA,NA,NA,NA,NA,NA,NA,NA,NA,NA,NA,NA,NA,NA,NA
ea803,shallow,flow.Sequence,3_0_3_0_1_1,NA,NA,completion,10350.84,2034108,2034095.32,2034111.82,2044462.66,2044468,2024-05-25T06:36:46Z,2044483.54,NULL,Angreifer,mshambulizi,s,kitengo,tasinia,usafirishaji,NA,qt,NA,3,NA,NA,NA,NA,NA,NA,NA,NA,NA,NA,NA,NA,NA,NA,NA,NA,NA,NA,NA
ea803,task,flow.Sequence,3_0_3_0_1,NA,NA,completion,10350.84,2034108,2034095.32,2034111.82,2044462.66,2044469,2024-05-25T06:36:46Z,2044483.54,NULL,Angreifer,mshambulizi,s,kitengo,tasinia,usafirishaji,NA,qt,NA,3,NA,NA,NA,NA,NA,NA,NA,NA,NA,NA,NA,NA,NA,NA,NA,NA,NA,NA,NA
ea803,Deep Question,html.Page,3_0_3_0_2_0_0,NA,NA,form submission,5220.46,2044469,2044462.66,2044483.54,2049704,2049704,2024-05-25T06:36:51Z,2049714.66,NULL,Kanzler,diwani,d,NA,NA,NA,diwani,NA,NA,3,NA,NA,NA,NA,NA,NA,NA,NA,NA,NA,NA,NA,NA,NA,NA,NA,NA,NA,NA
ea803,"""Richtig""-Screen",canvas.Screen,3_0_3_0_2_0_1,NA,NA,timeout,5006.1000000001,2049706,2049700.36,2049714.66,2054704.08,2054705,2024-05-25T06:36:56Z,2054720.76,NULL,Kanzler,diwani,d,NA,NA,NA,NA,qt,1,3,NA,NA,NA,NA,NA,NA,NA,NA,NA,NA,NA,NA,NA,NA,NA,NA,NA,NA,NA
ea803,"""Falsch""-Screen",canvas.Screen,3_0_3_0_2_0_2,NA,NA,skipped,NA,2054707,NA,NA,2054704.08,2054707,2024-05-25T06:36:56Z,2054720.76,NULL,Kanzler,diwani,d,NA,NA,NA,NA,qt,NA,3,NA,NA,NA,NA,NA,NA,NA,NA,NA,NA,NA,NA,NA,NA,NA,NA,NA,NA,NA
ea803,deep,flow.Sequence,3_0_3_0_2_0,NA,NA,completion,10220.54,2044469,2044462.66,2044483.54,2054704.08,2054707,2024-05-25T06:36:56Z,2054720.76,NULL,Kanzler,diwani,d,NA,NA,NA,NA,qt,NA,3,NA,NA,NA,NA,NA,NA,NA,NA,NA,NA,NA,NA,NA,NA,NA,NA,NA,NA,NA
ea803,shallow,flow.Sequence,3_0_3_0_2_1,NA,NA,skipped,NA,2054708,NA,NA,2054704.08,2054708,2024-05-25T06:36:56Z,2054720.76,NULL,Kanzler,diwani,d,NA,NA,NA,NA,qt,NA,3,NA,NA,NA,NA,NA,NA,NA,NA,NA,NA,NA,NA,NA,NA,NA,NA,NA,NA,NA
ea803,task,flow.Sequence,3_0_3_0_2,NA,NA,completion,10220.54,2044469,2044462.66,2044483.54,2054704.08,2054708,2024-05-25T06:36:56Z,2054720.76,NULL,Kanzler,diwani,d,NA,NA,NA,NA,qt,NA,3,NA,NA,NA,NA,NA,NA,NA,NA,NA,NA,NA,NA,NA,NA,NA,NA,NA,NA,NA
ea803,deep,flow.Sequence,3_0_3_0_3_0,NA,NA,skipped,NA,2054708,NA,NA,2054704.08,2054708,2024-05-25T06:36:56Z,2054720.76,NULL,Wettbewerb,ushindani,s,mapendezi,kichocheo,ubaguzi,NA,qt,NA,3,NA,NA,NA,NA,NA,NA,NA,NA,NA,NA,NA,NA,NA,NA,NA,NA,NA,NA,NA
ea803,Shallow Question,html.Page,3_0_3_0_3_1_0,NA,NA,form submission,12886.24,2054708,2054704.08,2054720.76,2067607,2067607,2024-05-25T06:37:09Z,2067615.84,NULL,Wettbewerb,ushindani,s,mapendezi,kichocheo,ubaguzi,mapendezi,NA,NA,3,NA,NA,NA,NA,NA,NA,NA,NA,NA,NA,NA,NA,NA,NA,NA,NA,NA,NA,NA
ea803,"""Richtig""-Screen",canvas.Screen,3_0_3_0_3_1_1,NA,NA,skipped,NA,2067609,NA,NA,2067607,2067609,2024-05-25T06:37:09Z,2067615.84,NULL,Wettbewerb,ushindani,s,mapendezi,kichocheo,ubaguzi,NA,qt,NA,3,NA,NA,NA,NA,NA,NA,NA,NA,NA,NA,NA,NA,NA,NA,NA,NA,NA,NA,NA
ea803,"""Falsch""-Screen",canvas.Screen,3_0_3_0_3_1_2,NA,NA,timeout,5008.3199999998,2067610,2067602.92,2067615.84,2072607.48,2072609,2024-05-25T06:37:14Z,2072624.16,NULL,Wettbewerb,ushindani,s,mapendezi,kichocheo,ubaguzi,NA,qt,0,3,NA,NA,NA,NA,NA,NA,NA,NA,NA,NA,NA,NA,NA,NA,NA,NA,NA,NA,NA
ea803,shallow,flow.Sequence,3_0_3_0_3_1,NA,NA,completion,17886.72,2054708,2054704.08,2054720.76,2072607.48,2072609,2024-05-25T06:37:14Z,2072624.16,NULL,Wettbewerb,ushindani,s,mapendezi,kichocheo,ubaguzi,NA,qt,NA,3,NA,NA,NA,NA,NA,NA,NA,NA,NA,NA,NA,NA,NA,NA,NA,NA,NA,NA,NA
ea803,task,flow.Sequence,3_0_3_0_3,NA,NA,completion,17886.72,2054708,2054704.08,2054720.76,2072607.48,2072609,2024-05-25T06:37:14Z,2072624.16,NULL,Wettbewerb,ushindani,s,mapendezi,kichocheo,ubaguzi,NA,qt,NA,3,NA,NA,NA,NA,NA,NA,NA,NA,NA,NA,NA,NA,NA,NA,NA,NA,NA,NA,NA
ea803,deep,flow.Sequence,3_0_3_0_4_0,NA,NA,skipped,NA,2072609,NA,NA,2072607.48,2072609,2024-05-25T06:37:14Z,2072624.16,NULL,Auftrag,uagizaji,s,ghanima,kuzingatia,msukani,NA,qt,NA,3,NA,NA,NA,NA,NA,NA,NA,NA,NA,NA,NA,NA,NA,NA,NA,NA,NA,NA,NA
ea803,Shallow Question,html.Page,3_0_3_0_4_1_0,NA,NA,form submission,3553.8400000001,2072610,2072607.48,2072624.16,2076178,2076178,2024-05-25T06:37:17Z,2076174.98,NULL,Auftrag,uagizaji,s,ghanima,kuzingatia,msukani,uagizaji,NA,NA,3,NA,NA,NA,NA,NA,NA,NA,NA,NA,NA,NA,NA,NA,NA,NA,NA,NA,NA,NA
ea803,"""Richtig""-Screen",canvas.Screen,3_0_3_0_4_1_1,NA,NA,timeout,5003.0600000001,2076179,2076174.74,2076174.98,2081161.36,2081162,2024-05-25T06:37:22Z,2081178.04,NULL,Auftrag,uagizaji,s,ghanima,kuzingatia,msukani,NA,qt,1,3,NA,NA,NA,NA,NA,NA,NA,NA,NA,NA,NA,NA,NA,NA,NA,NA,NA,NA,NA
ea803,"""Falsch""-Screen",canvas.Screen,3_0_3_0_4_1_2,NA,NA,skipped,NA,2081165,NA,NA,2081161.36,2081165,2024-05-25T06:37:22Z,2081178.04,NULL,Auftrag,uagizaji,s,ghanima,kuzingatia,msukani,NA,qt,NA,3,NA,NA,NA,NA,NA,NA,NA,NA,NA,NA,NA,NA,NA,NA,NA,NA,NA,NA,NA
ea803,shallow,flow.Sequence,3_0_3_0_4_1,NA,NA,completion,8537.2000000002,2072610,2072607.48,2072624.16,2081161.36,2081165,2024-05-25T06:37:22Z,2081178.04,NULL,Auftrag,uagizaji,s,ghanima,kuzingatia,msukani,NA,qt,NA,3,NA,NA,NA,NA,NA,NA,NA,NA,NA,NA,NA,NA,NA,NA,NA,NA,NA,NA,NA
ea803,task,flow.Sequence,3_0_3_0_4,NA,NA,completion,8537.2000000002,2072609,2072607.48,2072624.16,2081161.36,2081166,2024-05-25T06:37:22Z,2081178.04,NULL,Auftrag,uagizaji,s,ghanima,kuzingatia,msukani,NA,qt,NA,3,NA,NA,NA,NA,NA,NA,NA,NA,NA,NA,NA,NA,NA,NA,NA,NA,NA,NA,NA
ea803,deep,flow.Sequence,3_0_3_0_5_0,NA,NA,skipped,NA,2081166,NA,NA,2081161.36,2081166,2024-05-25T06:37:22Z,2081178.04,NULL,Sänger,mwimbaji,s,msichana,shughuli,mshirika,NA,qt,NA,3,NA,NA,NA,NA,NA,NA,NA,NA,NA,NA,NA,NA,NA,NA,NA,NA,NA,NA,NA
ea803,Shallow Question,html.Page,3_0_3_0_5_1_0,NA,NA,form submission,6803.96,2081166,2081161.36,2081178.04,2087982,2087982,2024-05-25T06:37:29Z,2087995.28,NULL,Sänger,mwimbaji,s,msichana,shughuli,mshirika,mwimbaji,NA,NA,3,NA,NA,NA,NA,NA,NA,NA,NA,NA,NA,NA,NA,NA,NA,NA,NA,NA,NA,NA
ea803,"""Richtig""-Screen",canvas.Screen,3_0_3_0_5_1_1,NA,NA,timeout,5004.96,2087984,2087979.48,2087995.28,2092983.62,2092987,2024-05-25T06:37:34Z,2093000.24,NULL,Sänger,mwimbaji,s,msichana,shughuli,mshirika,NA,qt,1,3,NA,NA,NA,NA,NA,NA,NA,NA,NA,NA,NA,NA,NA,NA,NA,NA,NA,NA,NA
ea803,"""Falsch""-Screen",canvas.Screen,3_0_3_0_5_1_2,NA,NA,skipped,NA,2092995,NA,NA,2092983.62,2092995,2024-05-25T06:37:34Z,2093000.24,NULL,Sänger,mwimbaji,s,msichana,shughuli,mshirika,NA,qt,NA,3,NA,NA,NA,NA,NA,NA,NA,NA,NA,NA,NA,NA,NA,NA,NA,NA,NA,NA,NA
ea803,shallow,flow.Sequence,3_0_3_0_5_1,NA,NA,completion,11805.58,2081166,2081161.36,2081178.04,2092983.62,2092996,2024-05-25T06:37:34Z,2093000.24,NULL,Sänger,mwimbaji,s,msichana,shughuli,mshirika,NA,qt,NA,3,NA,NA,NA,NA,NA,NA,NA,NA,NA,NA,NA,NA,NA,NA,NA,NA,NA,NA,NA
ea803,task,flow.Sequence,3_0_3_0_5,NA,NA,completion,11805.58,2081166,2081161.36,2081178.04,2092983.62,2092996,2024-05-25T06:37:34Z,2093000.24,NULL,Sänger,mwimbaji,s,msichana,shughuli,mshirika,NA,qt,NA,3,NA,NA,NA,NA,NA,NA,NA,NA,NA,NA,NA,NA,NA,NA,NA,NA,NA,NA,NA
ea803,Deep Question,html.Page,3_0_3_0_6_0_0,NA,NA,form submission,6953.76,2092996,2092983.62,2093000.24,2099954,2099954,2024-05-25T06:37:41Z,2099960.46,NULL,Abrechnung,uhasibu,d,NA,NA,NA,kikuti,NA,NA,3,NA,NA,NA,NA,NA,NA,NA,NA,NA,NA,NA,NA,NA,NA,NA,NA,NA,NA,NA
ea803,"""Richtig""-Screen",canvas.Screen,3_0_3_0_6_0_1,NA,NA,skipped,NA,2099956,NA,NA,2099954,2099956,2024-05-25T06:37:41Z,2099960.46,NULL,Abrechnung,uhasibu,d,NA,NA,NA,NA,qt,NA,3,NA,NA,NA,NA,NA,NA,NA,NA,NA,NA,NA,NA,NA,NA,NA,NA,NA,NA,NA
ea803,"""Falsch""-Screen",canvas.Screen,3_0_3_0_6_0_2,NA,NA,timeout,5006.1600000001,2099957,2099949.76,2099960.46,2104949.94,2104952,2024-05-25T06:37:46Z,2104966.62,NULL,Abrechnung,uhasibu,d,NA,NA,NA,NA,qt,0,3,NA,NA,NA,NA,NA,NA,NA,NA,NA,NA,NA,NA,NA,NA,NA,NA,NA,NA,NA
ea803,deep,flow.Sequence,3_0_3_0_6_0,NA,NA,completion,11949.7,2092996,2092983.62,2093000.24,2104949.94,2104952,2024-05-25T06:37:46Z,2104966.62,NULL,Abrechnung,uhasibu,d,NA,NA,NA,NA,qt,NA,3,NA,NA,NA,NA,NA,NA,NA,NA,NA,NA,NA,NA,NA,NA,NA,NA,NA,NA,NA
ea803,shallow,flow.Sequence,3_0_3_0_6_1,NA,NA,skipped,NA,2104952,NA,NA,2104949.94,2104952,2024-05-25T06:37:46Z,2104966.62,NULL,Abrechnung,uhasibu,d,NA,NA,NA,NA,qt,NA,3,NA,NA,NA,NA,NA,NA,NA,NA,NA,NA,NA,NA,NA,NA,NA,NA,NA,NA,NA
ea803,task,flow.Sequence,3_0_3_0_6,NA,NA,completion,11949.7,2092996,2092983.62,2093000.24,2104949.94,2104953,2024-05-25T06:37:46Z,2104966.62,NULL,Abrechnung,uhasibu,d,NA,NA,NA,NA,qt,NA,3,NA,NA,NA,NA,NA,NA,NA,NA,NA,NA,NA,NA,NA,NA,NA,NA,NA,NA,NA
ea803,Deep Question,html.Page,3_0_3_0_7_0_0,NA,NA,form submission,4416.3799999999,2104953,2104949.94,2104966.62,2109383,2109384,2024-05-25T06:37:50Z,2109384.02,NULL,Schönheit,kirembo,d,NA,NA,NA,kirembo,NA,NA,3,NA,NA,NA,NA,NA,NA,NA,NA,NA,NA,NA,NA,NA,NA,NA,NA,NA,NA,NA
ea803,"""Richtig""-Screen",canvas.Screen,3_0_3_0_7_0_1,NA,NA,timeout,5001.2200000002,2109385,2109379.16,2109384.02,2114368.56,2114371,2024-05-25T06:37:55Z,2114385.24,NULL,Schönheit,kirembo,d,NA,NA,NA,NA,qt,1,3,NA,NA,NA,NA,NA,NA,NA,NA,NA,NA,NA,NA,NA,NA,NA,NA,NA,NA,NA
ea803,"""Falsch""-Screen",canvas.Screen,3_0_3_0_7_0_2,NA,NA,skipped,NA,2114372,NA,NA,2114368.56,2114373,2024-05-25T06:37:55Z,2114385.24,NULL,Schönheit,kirembo,d,NA,NA,NA,NA,qt,NA,3,NA,NA,NA,NA,NA,NA,NA,NA,NA,NA,NA,NA,NA,NA,NA,NA,NA,NA,NA
ea803,deep,flow.Sequence,3_0_3_0_7_0,NA,NA,completion,9401.9399999999,2104953,2104949.94,2104966.62,2114368.56,2114373,2024-05-25T06:37:55Z,2114385.24,NULL,Schönheit,kirembo,d,NA,NA,NA,NA,qt,NA,3,NA,NA,NA,NA,NA,NA,NA,NA,NA,NA,NA,NA,NA,NA,NA,NA,NA,NA,NA
ea803,shallow,flow.Sequence,3_0_3_0_7_1,NA,NA,skipped,NA,2114373,NA,NA,2114368.56,2114373,2024-05-25T06:37:55Z,2114385.24,NULL,Schönheit,kirembo,d,NA,NA,NA,NA,qt,NA,3,NA,NA,NA,NA,NA,NA,NA,NA,NA,NA,NA,NA,NA,NA,NA,NA,NA,NA,NA
ea803,task,flow.Sequence,3_0_3_0_7,NA,NA,completion,9401.9399999999,2104953,2104949.94,2104966.62,2114368.56,2114373,2024-05-25T06:37:55Z,2114385.24,NULL,Schönheit,kirembo,d,NA,NA,NA,NA,qt,NA,3,NA,NA,NA,NA,NA,NA,NA,NA,NA,NA,NA,NA,NA,NA,NA,NA,NA,NA,NA
ea803,block,flow.Loop,3_0_3_0,NA,NA,completion,91869.94,2022490,2022489.88,2022498.62,2114368.56,2114373,2024-05-25T06:37:55Z,2114385.24,NULL,NA,NA,NA,NA,NA,NA,NA,qt,NA,3,NA,NA,NA,NA,NA,NA,NA,NA,NA,NA,NA,NA,NA,NA,NA,NA,NA,NA,NA
ea803,weiter,canvas.Screen,3_0_3_1,sdf,keypress(Space),response,1475.7599999998,2114373,2114368.56,2114385.24,2115861,2115871,2024-05-25T06:37:57Z,2116567.54,NULL,NA,NA,NA,NA,NA,NA,NA,qt,NA,3,NA,NA,NA,NA,NA,NA,NA,NA,NA,NA,NA,NA,NA,NA,NA,NA,NA,NA,NA
ea803,check continue,flow.Sequence,3_0_3,NA,NA,completion,93362.38,2022489,2022489.88,2022498.62,2115861,2115872,2024-05-25T06:37:57Z,2116567.54,NULL,NA,NA,NA,NA,NA,NA,NA,qt,NA,3,NA,NA,NA,NA,NA,NA,NA,NA,NA,NA,NA,NA,NA,NA,NA,NA,NA,NA,NA
ea803,check continue,flow.Sequence,3_0_4,NA,NA,skipped,NA,2115927,NA,NA,2115861,2115927,2024-05-25T06:37:57Z,2116567.54,NULL,NA,NA,NA,NA,NA,NA,NA,sd,NA,4,NA,NA,NA,NA,NA,NA,NA,NA,NA,NA,NA,NA,NA,NA,NA,NA,NA,NA,NA
ea803,check continue,flow.Sequence,3_0_5,NA,NA,skipped,NA,2115954,NA,NA,2115861,2115954,2024-05-25T06:37:57Z,2116567.54,NULL,NA,NA,NA,NA,NA,NA,NA,sdf,NA,5,NA,NA,NA,NA,NA,NA,NA,NA,NA,NA,NA,NA,NA,NA,NA,NA,NA,NA,NA
ea803,check continue,flow.Sequence,3_0_6,NA,NA,skipped,NA,2115981,NA,NA,2115861,2115982,2024-05-25T06:37:57Z,2116567.54,NULL,NA,NA,NA,NA,NA,NA,NA,dfs,NA,6,NA,NA,NA,NA,NA,NA,NA,NA,NA,NA,NA,NA,NA,NA,NA,NA,NA,NA,NA
ea803,check continue,flow.Sequence,3_0_7,NA,NA,skipped,NA,2116009,NA,NA,2115861,2116009,2024-05-25T06:37:57Z,2116567.54,NULL,NA,NA,NA,NA,NA,NA,NA,df,NA,7,NA,NA,NA,NA,NA,NA,NA,NA,NA,NA,NA,NA,NA,NA,NA,NA,NA,NA,NA
ea803,check continue,flow.Sequence,3_0_8,NA,NA,skipped,NA,2116036,NA,NA,2115861,2116036,2024-05-25T06:37:57Z,2116567.54,NULL,NA,NA,NA,NA,NA,NA,NA,dfs,NA,8,NA,NA,NA,NA,NA,NA,NA,NA,NA,NA,NA,NA,NA,NA,NA,NA,NA,NA,NA
ea803,check continue,flow.Sequence,3_0_9,NA,NA,skipped,NA,2116059,NA,NA,2115861,2116060,2024-05-25T06:37:57Z,2116567.54,NULL,NA,NA,NA,NA,NA,NA,NA,dsf,NA,9,NA,NA,NA,NA,NA,NA,NA,NA,NA,NA,NA,NA,NA,NA,NA,NA,NA,NA,NA
ea803,check continue,flow.Sequence,3_0_10,NA,NA,skipped,NA,2116088,NA,NA,2115861,2116088,2024-05-25T06:37:57Z,2116567.54,NULL,NA,NA,NA,NA,NA,NA,NA,df,NA,10,NA,NA,NA,NA,NA,NA,NA,NA,NA,NA,NA,NA,NA,NA,NA,NA,NA,NA,NA
ea803,check continue,flow.Sequence,3_0_11,NA,NA,skipped,NA,2116114,NA,NA,2115861,2116114,2024-05-25T06:37:57Z,2116567.54,NULL,NA,NA,NA,NA,NA,NA,NA,dfs,NA,11,NA,NA,NA,NA,NA,NA,NA,NA,NA,NA,NA,NA,NA,NA,NA,NA,NA,NA,NA
ea803,check continue,flow.Sequence,3_0_12,NA,NA,skipped,NA,2116147,NA,NA,2115861,2116147,2024-05-25T06:37:57Z,2116567.54,NULL,NA,NA,NA,NA,NA,NA,NA,dsf,NA,12,NA,NA,NA,NA,NA,NA,NA,NA,NA,NA,NA,NA,NA,NA,NA,NA,NA,NA,NA
ea803,check continue,flow.Sequence,3_0_13,NA,NA,skipped,NA,2116171,NA,NA,2115861,2116171,2024-05-25T06:37:57Z,2116567.54,NULL,NA,NA,NA,NA,NA,NA,NA,dsf,NA,13,NA,NA,NA,NA,NA,NA,NA,NA,NA,NA,NA,NA,NA,NA,NA,NA,NA,NA,NA
ea803,check continue,flow.Sequence,3_0_14,NA,NA,skipped,NA,2116193,NA,NA,2115861,2116193,2024-05-25T06:37:57Z,2116567.54,NULL,NA,NA,NA,NA,NA,NA,NA,NA,NA,14,NA,NA,NA,NA,NA,NA,NA,NA,NA,NA,NA,NA,NA,NA,NA,NA,NA,NA,NA
ea803,check continue,flow.Sequence,3_0_15,NA,NA,skipped,NA,2116222,NA,NA,2115861,2116222,2024-05-25T06:37:57Z,2116567.54,NULL,NA,NA,NA,NA,NA,NA,NA,NA,NA,15,NA,NA,NA,NA,NA,NA,NA,NA,NA,NA,NA,NA,NA,NA,NA,NA,NA,NA,NA
ea803,check continue,flow.Sequence,3_0_16,NA,NA,skipped,NA,2116245,NA,NA,2115861,2116245,2024-05-25T06:37:57Z,2116567.54,NULL,NA,NA,NA,NA,NA,NA,NA,NA,NA,16,NA,NA,NA,NA,NA,NA,NA,NA,NA,NA,NA,NA,NA,NA,NA,NA,NA,NA,NA
ea803,check continue,flow.Sequence,3_0_17,NA,NA,skipped,NA,2116266,NA,NA,2115861,2116266,2024-05-25T06:37:57Z,2116567.54,NULL,NA,NA,NA,NA,NA,NA,NA,NA,NA,17,NA,NA,NA,NA,NA,NA,NA,NA,NA,NA,NA,NA,NA,NA,NA,NA,NA,NA,NA
ea803,check continue,flow.Sequence,3_0_18,NA,NA,skipped,NA,2116292,NA,NA,2115861,2116292,2024-05-25T06:37:57Z,2116567.54,NULL,NA,NA,NA,NA,NA,NA,NA,NA,NA,18,NA,NA,NA,NA,NA,NA,NA,NA,NA,NA,NA,NA,NA,NA,NA,NA,NA,NA,NA
ea803,check continue,flow.Sequence,3_0_19,NA,NA,skipped,NA,2116317,NA,NA,2115861,2116317,2024-05-25T06:37:57Z,2116567.54,NULL,NA,NA,NA,NA,NA,NA,NA,NA,NA,19,NA,NA,NA,NA,NA,NA,NA,NA,NA,NA,NA,NA,NA,NA,NA,NA,NA,NA,NA
ea803,check continue,flow.Sequence,3_0_20,NA,NA,skipped,NA,2116340,NA,NA,2115861,2116340,2024-05-25T06:37:57Z,2116567.54,NULL,NA,NA,NA,NA,NA,NA,NA,NA,NA,20,NA,NA,NA,NA,NA,NA,NA,NA,NA,NA,NA,NA,NA,NA,NA,NA,NA,NA,NA
ea803,check continue,flow.Sequence,3_0_21,NA,NA,skipped,NA,2116368,NA,NA,2115861,2116369,2024-05-25T06:37:57Z,2116567.54,NULL,NA,NA,NA,NA,NA,NA,NA,NA,NA,21,NA,NA,NA,NA,NA,NA,NA,NA,NA,NA,NA,NA,NA,NA,NA,NA,NA,NA,NA
ea803,check continue,flow.Sequence,3_0_22,NA,NA,skipped,NA,2116393,NA,NA,2115861,2116393,2024-05-25T06:37:57Z,2116567.54,NULL,NA,NA,NA,NA,NA,NA,NA,NA,NA,22,NA,NA,NA,NA,NA,NA,NA,NA,NA,NA,NA,NA,NA,NA,NA,NA,NA,NA,NA
ea803,check continue,flow.Sequence,3_0_23,NA,NA,skipped,NA,2116420,NA,NA,2115861,2116421,2024-05-25T06:37:57Z,2116567.54,NULL,NA,NA,NA,NA,NA,NA,NA,NA,NA,23,NA,NA,NA,NA,NA,NA,NA,NA,NA,NA,NA,NA,NA,NA,NA,NA,NA,NA,NA
ea803,check continue,flow.Sequence,3_0_24,NA,NA,skipped,NA,2116449,NA,NA,2115861,2116450,2024-05-25T06:37:57Z,2116567.54,NULL,NA,NA,NA,NA,NA,NA,NA,NA,NA,24,NA,NA,NA,NA,NA,NA,NA,NA,NA,NA,NA,NA,NA,NA,NA,NA,NA,NA,NA
ea803,check continue,flow.Sequence,3_0_25,NA,NA,skipped,NA,2116472,NA,NA,2115861,2116472,2024-05-25T06:37:58Z,2116567.54,NULL,NA,NA,NA,NA,NA,NA,NA,NA,NA,25,NA,NA,NA,NA,NA,NA,NA,NA,NA,NA,NA,NA,NA,NA,NA,NA,NA,NA,NA
ea803,check continue,flow.Sequence,3_0_26,NA,NA,skipped,NA,2116498,NA,NA,2115861,2116498,2024-05-25T06:37:58Z,2116567.54,NULL,NA,NA,NA,NA,NA,NA,NA,NA,NA,26,NA,NA,NA,NA,NA,NA,NA,NA,NA,NA,NA,NA,NA,NA,NA,NA,NA,NA,NA
ea803,check continue,flow.Sequence,3_0_27,NA,NA,skipped,NA,2116522,NA,NA,2115861,2116522,2024-05-25T06:37:58Z,2116567.54,NULL,NA,NA,NA,NA,NA,NA,NA,NA,NA,27,NA,NA,NA,NA,NA,NA,NA,NA,NA,NA,NA,NA,NA,NA,NA,NA,NA,NA,NA
ea803,check continue,flow.Sequence,3_0_28,NA,NA,skipped,NA,2116542,NA,NA,2115861,2116542,2024-05-25T06:37:58Z,2116567.54,NULL,NA,NA,NA,NA,NA,NA,NA,NA,NA,28,NA,NA,NA,NA,NA,NA,NA,NA,NA,NA,NA,NA,NA,NA,NA,NA,NA,NA,NA
ea803,check continue,flow.Sequence,3_0_29,NA,NA,skipped,NA,2116567,NA,NA,2115861,2116567,2024-05-25T06:37:58Z,2116567.54,NULL,NA,NA,NA,NA,NA,NA,NA,NA,NA,29,NA,NA,NA,NA,NA,NA,NA,NA,NA,NA,NA,NA,NA,NA,NA,NA,NA,NA,NA
ea803,until continue,flow.Loop,3_0,NA,NA,completion,390287.16,1725532,1725573.14,1725573.84,2115861,2116567,2024-05-25T06:37:58Z,2116567.54,NULL,NA,NA,NA,NA,NA,NA,NA,NA,NA,NA,NA,NA,NA,NA,NA,NA,NA,NA,NA,NA,NA,NA,NA,NA,NA,NA,NA,NA,NA
ea803,block 1,flow.Sequence,3,NA,NA,completion,390287.16,1725532,1725573.14,1725573.84,2115861,2116567,2024-05-25T06:37:58Z,2116567.54,NULL,NA,NA,NA,NA,NA,NA,NA,NA,NA,NA,NA,NA,NA,NA,NA,NA,NA,NA,NA,NA,NA,NA,NA,NA,NA,NA,NA,NA,NA
ea803,1.Part Over,canvas.Screen,4,NA,keypress(Space),response,4965.46,2116568,2116567.12,2116567.54,2121533,2121549,2024-05-25T06:38:03Z,2121608.74,NULL,NA,NA,NA,NA,NA,NA,NA,NA,NA,NA,NA,NA,NA,NA,NA,NA,NA,NA,NA,NA,NA,NA,NA,NA,NA,NA,NA,NA,NA
ea803,deep,flow.Sequence,5_0_0_0_0_0,NA,NA,skipped,NA,2121608,NA,NA,2121533,2121608,2024-05-25T06:38:03Z,2121608.74,NULL,Gelegenheit,wakati,s,mchanganyiko,kipaumbele,kushuku,NA,sdf,NA,0,NA,NA,NA,NA,NA,NA,NA,NA,NA,NA,NA,NA,NA,NA,NA,NA,NA,NA,NA
ea803,Shallow Question,html.Page,5_0_0_0_0_1_0,NA,NA,form submission,9516.2599999998,2121608,2121608.38,2121608.74,2131125,2131125,2024-05-25T06:38:12Z,2131126.18,NULL,Gelegenheit,wakati,s,mchanganyiko,kipaumbele,kushuku,kushuku,NA,NA,0,NA,NA,NA,NA,NA,NA,NA,NA,NA,NA,NA,NA,NA,NA,NA,NA,NA,NA,NA
ea803,"""Richtig""-Screen",canvas.Screen,5_0_0_0_0_1_1,NA,NA,skipped,NA,2131126,NA,NA,2131125,2131126,2024-05-25T06:38:12Z,2131126.18,NULL,Gelegenheit,wakati,s,mchanganyiko,kipaumbele,kushuku,NA,sdf,NA,0,NA,NA,NA,NA,NA,NA,NA,NA,NA,NA,NA,NA,NA,NA,NA,NA,NA,NA,NA
ea803,"""Falsch""-Screen",canvas.Screen,5_0_0_0_0_1_2,NA,NA,timeout,5004.1999999997,2131128,2131120.74,2131126.18,2136113.7,2136115,2024-05-25T06:38:17Z,2136130.38,NULL,Gelegenheit,wakati,s,mchanganyiko,kipaumbele,kushuku,NA,sdf,0,0,NA,NA,NA,NA,NA,NA,NA,NA,NA,NA,NA,NA,NA,NA,NA,NA,NA,NA,NA
ea803,shallow,flow.Sequence,5_0_0_0_0_1,NA,NA,completion,14504.96,2121608,2121608.38,2121608.74,2136113.7,2136115,2024-05-25T06:38:17Z,2136130.38,NULL,Gelegenheit,wakati,s,mchanganyiko,kipaumbele,kushuku,NA,sdf,NA,0,NA,NA,NA,NA,NA,NA,NA,NA,NA,NA,NA,NA,NA,NA,NA,NA,NA,NA,NA
ea803,task,flow.Sequence,5_0_0_0_0,NA,NA,completion,14504.96,2121608,2121608.38,2121608.74,2136113.7,2136115,2024-05-25T06:38:17Z,2136130.38,NULL,Gelegenheit,wakati,s,mchanganyiko,kipaumbele,kushuku,NA,sdf,NA,0,NA,NA,NA,NA,NA,NA,NA,NA,NA,NA,NA,NA,NA,NA,NA,NA,NA,NA,NA
ea803,Deep Question,html.Page,5_0_0_0_1_0_0,NA,NA,form submission,6670.6200000001,2136116,2136113.7,2136130.38,2142801,2142801,2024-05-25T06:38:24Z,2142808.58,NULL,Gefährdung,kuhatarisha,d,NA,NA,NA,nuni,NA,NA,0,NA,NA,NA,NA,NA,NA,NA,NA,NA,NA,NA,NA,NA,NA,NA,NA,NA,NA,NA
ea803,"""Richtig""-Screen",canvas.Screen,5_0_0_0_1_0_1,NA,NA,skipped,NA,2142802,NA,NA,2142801,2142802,2024-05-25T06:38:24Z,2142808.58,NULL,Gefährdung,kuhatarisha,d,NA,NA,NA,NA,sdf,NA,0,NA,NA,NA,NA,NA,NA,NA,NA,NA,NA,NA,NA,NA,NA,NA,NA,NA,NA,NA
ea803,"""Falsch""-Screen",canvas.Screen,5_0_0_0_1_0_2,NA,NA,timeout,4995.8599999999,2142803,2142797.48,2142808.58,2147787.76,2147789,2024-05-25T06:38:29Z,2147804.44,NULL,Gefährdung,kuhatarisha,d,NA,NA,NA,NA,sdf,0,0,NA,NA,NA,NA,NA,NA,NA,NA,NA,NA,NA,NA,NA,NA,NA,NA,NA,NA,NA
ea803,deep,flow.Sequence,5_0_0_0_1_0,NA,NA,completion,11657.38,2136116,2136113.7,2136130.38,2147787.76,2147789,2024-05-25T06:38:29Z,2147804.44,NULL,Gefährdung,kuhatarisha,d,NA,NA,NA,NA,sdf,NA,0,NA,NA,NA,NA,NA,NA,NA,NA,NA,NA,NA,NA,NA,NA,NA,NA,NA,NA,NA
ea803,shallow,flow.Sequence,5_0_0_0_1_1,NA,NA,skipped,NA,2147789,NA,NA,2147787.76,2147789,2024-05-25T06:38:29Z,2147804.44,NULL,Gefährdung,kuhatarisha,d,NA,NA,NA,NA,sdf,NA,0,NA,NA,NA,NA,NA,NA,NA,NA,NA,NA,NA,NA,NA,NA,NA,NA,NA,NA,NA
ea803,task,flow.Sequence,5_0_0_0_1,NA,NA,completion,11657.38,2136116,2136113.7,2136130.38,2147787.76,2147790,2024-05-25T06:38:29Z,2147804.44,NULL,Gefährdung,kuhatarisha,d,NA,NA,NA,NA,sdf,NA,0,NA,NA,NA,NA,NA,NA,NA,NA,NA,NA,NA,NA,NA,NA,NA,NA,NA,NA,NA
ea803,Deep Question,html.Page,5_0_0_0_2_0_0,NA,NA,form submission,8271.5600000001,2147790,2147787.76,2147804.44,2156076,2156076,2024-05-25T06:38:37Z,2156080.58,NULL,Verstand,ufahamivu,d,NA,NA,NA,werstand,NA,NA,0,NA,NA,NA,NA,NA,NA,NA,NA,NA,NA,NA,NA,NA,NA,NA,NA,NA,NA,NA
ea803,"""Richtig""-Screen",canvas.Screen,5_0_0_0_2_0_1,NA,NA,skipped,NA,2156078,NA,NA,2156076,2156078,2024-05-25T06:38:37Z,2156080.58,NULL,Verstand,ufahamivu,d,NA,NA,NA,NA,sdf,NA,0,NA,NA,NA,NA,NA,NA,NA,NA,NA,NA,NA,NA,NA,NA,NA,NA,NA,NA,NA
ea803,"""Falsch""-Screen",canvas.Screen,5_0_0_0_2_0_2,NA,NA,timeout,4996.4399999999,2156079,2156073.04,2156080.58,2161060.34,2161065,2024-05-25T06:38:42Z,2161077.02,NULL,Verstand,ufahamivu,d,NA,NA,NA,NA,sdf,0,0,NA,NA,NA,NA,NA,NA,NA,NA,NA,NA,NA,NA,NA,NA,NA,NA,NA,NA,NA
ea803,deep,flow.Sequence,5_0_0_0_2_0,NA,NA,completion,13255.9,2147790,2147787.76,2147804.44,2161060.34,2161066,2024-05-25T06:38:42Z,2161077.02,NULL,Verstand,ufahamivu,d,NA,NA,NA,NA,sdf,NA,0,NA,NA,NA,NA,NA,NA,NA,NA,NA,NA,NA,NA,NA,NA,NA,NA,NA,NA,NA
ea803,shallow,flow.Sequence,5_0_0_0_2_1,NA,NA,skipped,NA,2161067,NA,NA,2161060.34,2161067,2024-05-25T06:38:42Z,2161077.02,NULL,Verstand,ufahamivu,d,NA,NA,NA,NA,sdf,NA,0,NA,NA,NA,NA,NA,NA,NA,NA,NA,NA,NA,NA,NA,NA,NA,NA,NA,NA,NA
ea803,task,flow.Sequence,5_0_0_0_2,NA,NA,completion,13255.9,2147790,2147787.76,2147804.44,2161060.34,2161068,2024-05-25T06:38:42Z,2161077.02,NULL,Verstand,ufahamivu,d,NA,NA,NA,NA,sdf,NA,0,NA,NA,NA,NA,NA,NA,NA,NA,NA,NA,NA,NA,NA,NA,NA,NA,NA,NA,NA
ea803,deep,flow.Sequence,5_0_0_0_3_0,NA,NA,skipped,NA,2161068,NA,NA,2161060.34,2161068,2024-05-25T06:38:42Z,2161077.02,NULL,Können,unaweza,s,kiongozi,bustani,mienendo,NA,sdf,NA,0,NA,NA,NA,NA,NA,NA,NA,NA,NA,NA,NA,NA,NA,NA,NA,NA,NA,NA,NA
ea803,Shallow Question,html.Page,5_0_0_0_3_1_0,NA,NA,form submission,4954.98,2161068,2161060.34,2161077.02,2166032,2166033,2024-05-25T06:38:47Z,2166034.56,NULL,Können,unaweza,s,kiongozi,bustani,mienendo,mienendo,NA,NA,0,NA,NA,NA,NA,NA,NA,NA,NA,NA,NA,NA,NA,NA,NA,NA,NA,NA,NA,NA
ea803,"""Richtig""-Screen",canvas.Screen,5_0_0_0_3_1_1,NA,NA,skipped,NA,2166039,NA,NA,2166032,2166039,2024-05-25T06:38:47Z,2166034.56,NULL,Können,unaweza,s,kiongozi,bustani,mienendo,NA,sdf,NA,0,NA,NA,NA,NA,NA,NA,NA,NA,NA,NA,NA,NA,NA,NA,NA,NA,NA,NA,NA
ea803,"""Falsch""-Screen",canvas.Screen,5_0_0_0_3_1_2,NA,NA,timeout,5021.52,2166041,2166027.2,2166034.56,2171023.64,2171057,2024-05-25T06:38:52Z,2171056.08,NULL,Können,unaweza,s,kiongozi,bustani,mienendo,NA,sdf,0,0,NA,NA,NA,NA,NA,NA,NA,NA,NA,NA,NA,NA,NA,NA,NA,NA,NA,NA,NA
ea803,shallow,flow.Sequence,5_0_0_0_3_1,NA,NA,completion,9946.6200000001,2161068,2161060.34,2161077.02,2171023.64,2171058,2024-05-25T06:38:52Z,2171056.08,NULL,Können,unaweza,s,kiongozi,bustani,mienendo,NA,sdf,NA,0,NA,NA,NA,NA,NA,NA,NA,NA,NA,NA,NA,NA,NA,NA,NA,NA,NA,NA,NA
ea803,task,flow.Sequence,5_0_0_0_3,NA,NA,completion,9946.6200000001,2161068,2161060.34,2161077.02,2171023.64,2171058,2024-05-25T06:38:52Z,2171056.08,NULL,Können,unaweza,s,kiongozi,bustani,mienendo,NA,sdf,NA,0,NA,NA,NA,NA,NA,NA,NA,NA,NA,NA,NA,NA,NA,NA,NA,NA,NA,NA,NA
ea803,deep,flow.Sequence,5_0_0_0_4_0,NA,NA,skipped,NA,2171058,NA,NA,2171023.64,2171058,2024-05-25T06:38:52Z,2171056.08,NULL,Kreativität,ubunifu,s,mratibu,mwendelezo,makubaliano,NA,sdf,NA,0,NA,NA,NA,NA,NA,NA,NA,NA,NA,NA,NA,NA,NA,NA,NA,NA,NA,NA,NA
ea803,Shallow Question,html.Page,5_0_0_0_4_1_0,NA,NA,form submission,28926.92,2171058,2171023.64,2171056.08,2199983,2199983,2024-05-25T06:39:21Z,2199989.48,NULL,Kreativität,ubunifu,s,mratibu,mwendelezo,makubaliano,makubaliano,NA,NA,0,NA,NA,NA,NA,NA,NA,NA,NA,NA,NA,NA,NA,NA,NA,NA,NA,NA,NA,NA
ea803,"""Richtig""-Screen",canvas.Screen,5_0_0_0_4_1_1,NA,NA,skipped,NA,2199985,NA,NA,2199983,2199985,2024-05-25T06:39:21Z,2199989.48,NULL,Kreativität,ubunifu,s,mratibu,mwendelezo,makubaliano,NA,sdf,NA,0,NA,NA,NA,NA,NA,NA,NA,NA,NA,NA,NA,NA,NA,NA,NA,NA,NA,NA,NA
ea803,"""Falsch""-Screen",canvas.Screen,5_0_0_0_4_1_2,NA,NA,timeout,4992.96,2199987,2199979.34,2199989.48,2204965.76,2204968,2024-05-25T06:39:26Z,2204982.44,NULL,Kreativität,ubunifu,s,mratibu,mwendelezo,makubaliano,NA,sdf,0,0,NA,NA,NA,NA,NA,NA,NA,NA,NA,NA,NA,NA,NA,NA,NA,NA,NA,NA,NA
ea803,shallow,flow.Sequence,5_0_0_0_4_1,NA,NA,completion,33909.68,2171058,2171023.64,2171056.08,2204965.76,2204968,2024-05-25T06:39:26Z,2204982.44,NULL,Kreativität,ubunifu,s,mratibu,mwendelezo,makubaliano,NA,sdf,NA,0,NA,NA,NA,NA,NA,NA,NA,NA,NA,NA,NA,NA,NA,NA,NA,NA,NA,NA,NA
ea803,task,flow.Sequence,5_0_0_0_4,NA,NA,completion,33909.68,2171058,2171023.64,2171056.08,2204965.76,2204969,2024-05-25T06:39:26Z,2204982.44,NULL,Kreativität,ubunifu,s,mratibu,mwendelezo,makubaliano,NA,sdf,NA,0,NA,NA,NA,NA,NA,NA,NA,NA,NA,NA,NA,NA,NA,NA,NA,NA,NA,NA,NA
ea803,Deep Question,html.Page,5_0_0_0_5_0_0,NA,NA,form submission,5065.5600000001,2204969,2204965.76,2204982.44,2210048,2210048,2024-05-25T06:39:31Z,2210054.22,NULL,Kontrolle,kudhibiti,d,NA,NA,NA,brununu,NA,NA,0,NA,NA,NA,NA,NA,NA,NA,NA,NA,NA,NA,NA,NA,NA,NA,NA,NA,NA,NA
ea803,"""Richtig""-Screen",canvas.Screen,5_0_0_0_5_0_1,NA,NA,skipped,NA,2210049,NA,NA,2210048,2210049,2024-05-25T06:39:31Z,2210054.22,NULL,Kontrolle,kudhibiti,d,NA,NA,NA,NA,sdf,NA,0,NA,NA,NA,NA,NA,NA,NA,NA,NA,NA,NA,NA,NA,NA,NA,NA,NA,NA,NA
ea803,"""Falsch""-Screen",canvas.Screen,5_0_0_0_5_0_2,NA,NA,timeout,5004.2799999998,2210051,2210043.82,2210054.22,2215041.8,2215042,2024-05-25T06:39:36Z,2215058.5,NULL,Kontrolle,kudhibiti,d,NA,NA,NA,NA,sdf,0,0,NA,NA,NA,NA,NA,NA,NA,NA,NA,NA,NA,NA,NA,NA,NA,NA,NA,NA,NA
ea803,deep,flow.Sequence,5_0_0_0_5_0,NA,NA,completion,10059.36,2204969,2204965.76,2204982.44,2215041.8,2215042,2024-05-25T06:39:36Z,2215058.5,NULL,Kontrolle,kudhibiti,d,NA,NA,NA,NA,sdf,NA,0,NA,NA,NA,NA,NA,NA,NA,NA,NA,NA,NA,NA,NA,NA,NA,NA,NA,NA,NA
ea803,shallow,flow.Sequence,5_0_0_0_5_1,NA,NA,skipped,NA,2215042,NA,NA,2215041.8,2215044,2024-05-25T06:39:36Z,2215058.5,NULL,Kontrolle,kudhibiti,d,NA,NA,NA,NA,sdf,NA,0,NA,NA,NA,NA,NA,NA,NA,NA,NA,NA,NA,NA,NA,NA,NA,NA,NA,NA,NA
ea803,task,flow.Sequence,5_0_0_0_5,NA,NA,completion,10059.36,2204969,2204965.76,2204982.44,2215041.8,2215044,2024-05-25T06:39:36Z,2215058.5,NULL,Kontrolle,kudhibiti,d,NA,NA,NA,NA,sdf,NA,0,NA,NA,NA,NA,NA,NA,NA,NA,NA,NA,NA,NA,NA,NA,NA,NA,NA,NA,NA
ea803,Deep Question,html.Page,5_0_0_0_6_0_0,NA,NA,form submission,5416.5,2215044,2215041.8,2215058.5,2220475,2220477,2024-05-25T06:39:42Z,2220485.16,NULL,Widerstand,usulubu,d,NA,NA,NA,mini,NA,NA,0,NA,NA,NA,NA,NA,NA,NA,NA,NA,NA,NA,NA,NA,NA,NA,NA,NA,NA,NA
ea803,"""Richtig""-Screen",canvas.Screen,5_0_0_0_6_0_1,NA,NA,skipped,NA,2220483,NA,NA,2220475,2220484,2024-05-25T06:39:42Z,2220485.16,NULL,Widerstand,usulubu,d,NA,NA,NA,NA,sdf,NA,0,NA,NA,NA,NA,NA,NA,NA,NA,NA,NA,NA,NA,NA,NA,NA,NA,NA,NA,NA
ea803,"""Falsch""-Screen",canvas.Screen,5_0_0_0_6_0_2,NA,NA,timeout,4997.8799999999,2220486,2220470.24,2220485.16,2225466.36,2225468,2024-05-25T06:39:47Z,2225483.04,NULL,Widerstand,usulubu,d,NA,NA,NA,NA,sdf,0,0,NA,NA,NA,NA,NA,NA,NA,NA,NA,NA,NA,NA,NA,NA,NA,NA,NA,NA,NA
ea803,deep,flow.Sequence,5_0_0_0_6_0,NA,NA,completion,10407.86,2215044,2215041.8,2215058.5,2225466.36,2225469,2024-05-25T06:39:47Z,2225483.04,NULL,Widerstand,usulubu,d,NA,NA,NA,NA,sdf,NA,0,NA,NA,NA,NA,NA,NA,NA,NA,NA,NA,NA,NA,NA,NA,NA,NA,NA,NA,NA
ea803,shallow,flow.Sequence,5_0_0_0_6_1,NA,NA,skipped,NA,2225469,NA,NA,2225466.36,2225469,2024-05-25T06:39:47Z,2225483.04,NULL,Widerstand,usulubu,d,NA,NA,NA,NA,sdf,NA,0,NA,NA,NA,NA,NA,NA,NA,NA,NA,NA,NA,NA,NA,NA,NA,NA,NA,NA,NA
ea803,task,flow.Sequence,5_0_0_0_6,NA,NA,completion,10407.86,2215044,2215041.8,2215058.5,2225466.36,2225470,2024-05-25T06:39:47Z,2225483.04,NULL,Widerstand,usulubu,d,NA,NA,NA,NA,sdf,NA,0,NA,NA,NA,NA,NA,NA,NA,NA,NA,NA,NA,NA,NA,NA,NA,NA,NA,NA,NA
ea803,deep,flow.Sequence,5_0_0_0_7_0,NA,NA,skipped,NA,2225470,NA,NA,2225466.36,2225470,2024-05-25T06:39:47Z,2225483.04,NULL,Ausschluss,kutengwa,s,ununuzi,taratibu,madeni,NA,sdf,NA,0,NA,NA,NA,NA,NA,NA,NA,NA,NA,NA,NA,NA,NA,NA,NA,NA,NA,NA,NA
ea803,Shallow Question,html.Page,5_0_0_0_7_1_0,NA,NA,form submission,19073.96,2225470,2225466.36,2225483.04,2244557,2244557,2024-05-25T06:40:06Z,2244559.08,NULL,Ausschluss,kutengwa,s,ununuzi,taratibu,madeni,ununuzi,NA,NA,0,NA,NA,NA,NA,NA,NA,NA,NA,NA,NA,NA,NA,NA,NA,NA,NA,NA,NA,NA
ea803,"""Richtig""-Screen",canvas.Screen,5_0_0_0_7_1_1,NA,NA,skipped,NA,2244560,NA,NA,2244557,2244560,2024-05-25T06:40:06Z,2244559.08,NULL,Ausschluss,kutengwa,s,ununuzi,taratibu,madeni,NA,sdf,NA,0,NA,NA,NA,NA,NA,NA,NA,NA,NA,NA,NA,NA,NA,NA,NA,NA,NA,NA,NA
ea803,"""Falsch""-Screen",canvas.Screen,5_0_0_0_7_1_2,NA,NA,timeout,5008.2199999997,2244562,2244553.08,2244559.08,2249550.62,2249552,2024-05-25T06:40:11Z,2249567.3,NULL,Ausschluss,kutengwa,s,ununuzi,taratibu,madeni,NA,sdf,0,0,NA,NA,NA,NA,NA,NA,NA,NA,NA,NA,NA,NA,NA,NA,NA,NA,NA,NA,NA
ea803,shallow,flow.Sequence,5_0_0_0_7_1,NA,NA,completion,24067.58,2225470,2225466.36,2225483.04,2249550.62,2249553,2024-05-25T06:40:11Z,2249567.3,NULL,Ausschluss,kutengwa,s,ununuzi,taratibu,madeni,NA,sdf,NA,0,NA,NA,NA,NA,NA,NA,NA,NA,NA,NA,NA,NA,NA,NA,NA,NA,NA,NA,NA
ea803,task,flow.Sequence,5_0_0_0_7,NA,NA,completion,24067.58,2225470,2225466.36,2225483.04,2249550.62,2249554,2024-05-25T06:40:11Z,2249567.3,NULL,Ausschluss,kutengwa,s,ununuzi,taratibu,madeni,NA,sdf,NA,0,NA,NA,NA,NA,NA,NA,NA,NA,NA,NA,NA,NA,NA,NA,NA,NA,NA,NA,NA
ea803,block,flow.Loop,5_0_0_0,NA,NA,completion,127941.88,2121608,2121608.38,2121608.74,2249550.62,2249554,2024-05-25T06:40:11Z,2249567.3,NULL,NA,NA,NA,NA,NA,NA,NA,sdf,NA,0,NA,NA,NA,NA,NA,NA,NA,NA,NA,NA,NA,NA,NA,NA,NA,NA,NA,NA,NA
ea803,weiter,canvas.Screen,5_0_0_1,sdf,keypress(Space),response,1683.7000000002,2249554,2249550.62,2249567.3,2251251,2251263,2024-05-25T06:40:12Z,2251316.2,NULL,NA,NA,NA,NA,NA,NA,NA,sdf,NA,0,NA,NA,NA,NA,NA,NA,NA,NA,NA,NA,NA,NA,NA,NA,NA,NA,NA,NA,NA
ea803,check continue,flow.Sequence,5_0_0,NA,NA,completion,129642.26,2121608,2121608.38,2121608.74,2251251,2251263,2024-05-25T06:40:12Z,2251316.2,NULL,NA,NA,NA,NA,NA,NA,NA,sdf,NA,0,NA,NA,NA,NA,NA,NA,NA,NA,NA,NA,NA,NA,NA,NA,NA,NA,NA,NA,NA
ea803,Deep Question,html.Page,5_0_1_0_0_0_0,NA,NA,form submission,5922.7999999998,2251316,2251315.76,2251316.2,2257239,2257240,2024-05-25T06:40:18Z,2257241.78,NULL,Verstand,ufahamivu,d,NA,NA,NA,kubuti,NA,NA,1,NA,NA,NA,NA,NA,NA,NA,NA,NA,NA,NA,NA,NA,NA,NA,NA,NA,NA,NA
ea803,"""Richtig""-Screen",canvas.Screen,5_0_1_0_0_0_1,NA,NA,skipped,NA,2257241,NA,NA,2257239,2257241,2024-05-25T06:40:18Z,2257241.78,NULL,Verstand,ufahamivu,d,NA,NA,NA,NA,sdfdsf,NA,1,NA,NA,NA,NA,NA,NA,NA,NA,NA,NA,NA,NA,NA,NA,NA,NA,NA,NA,NA
ea803,"""Falsch""-Screen",canvas.Screen,5_0_1_0_0_0_2,NA,NA,timeout,4992.8800000004,2257242,2257234.98,2257241.78,2262217.98,2262220,2024-05-25T06:40:23Z,2262234.66,NULL,Verstand,ufahamivu,d,NA,NA,NA,NA,sdfdsf,0,1,NA,NA,NA,NA,NA,NA,NA,NA,NA,NA,NA,NA,NA,NA,NA,NA,NA,NA,NA
ea803,deep,flow.Sequence,5_0_1_0_0_0,NA,NA,completion,10901.78,2251316,2251315.76,2251316.2,2262217.98,2262220,2024-05-25T06:40:23Z,2262234.66,NULL,Verstand,ufahamivu,d,NA,NA,NA,NA,sdfdsf,NA,1,NA,NA,NA,NA,NA,NA,NA,NA,NA,NA,NA,NA,NA,NA,NA,NA,NA,NA,NA
ea803,shallow,flow.Sequence,5_0_1_0_0_1,NA,NA,skipped,NA,2262220,NA,NA,2262217.98,2262220,2024-05-25T06:40:23Z,2262234.66,NULL,Verstand,ufahamivu,d,NA,NA,NA,NA,sdfdsf,NA,1,NA,NA,NA,NA,NA,NA,NA,NA,NA,NA,NA,NA,NA,NA,NA,NA,NA,NA,NA
ea803,task,flow.Sequence,5_0_1_0_0,NA,NA,completion,10901.78,2251316,2251315.76,2251316.2,2262217.98,2262220,2024-05-25T06:40:23Z,2262234.66,NULL,Verstand,ufahamivu,d,NA,NA,NA,NA,sdfdsf,NA,1,NA,NA,NA,NA,NA,NA,NA,NA,NA,NA,NA,NA,NA,NA,NA,NA,NA,NA,NA
ea803,Deep Question,html.Page,5_0_1_0_1_0_0,NA,NA,form submission,5617.3399999999,2262220,2262217.98,2262234.66,2267852,2267852,2024-05-25T06:40:29Z,2267857.7,NULL,Widerstand,usulubu,d,NA,NA,NA,kibuti,NA,NA,1,NA,NA,NA,NA,NA,NA,NA,NA,NA,NA,NA,NA,NA,NA,NA,NA,NA,NA,NA
ea803,"""Richtig""-Screen",canvas.Screen,5_0_1_0_1_0_1,NA,NA,skipped,NA,2267853,NA,NA,2267852,2267853,2024-05-25T06:40:29Z,2267857.7,NULL,Widerstand,usulubu,d,NA,NA,NA,NA,sdfdsf,NA,1,NA,NA,NA,NA,NA,NA,NA,NA,NA,NA,NA,NA,NA,NA,NA,NA,NA,NA,NA
ea803,"""Falsch""-Screen",canvas.Screen,5_0_1_0_1_0_2,NA,NA,timeout,4995.02,2267854,2267847.98,2267857.7,2272836.04,2272837,2024-05-25T06:40:34Z,2272852.72,NULL,Widerstand,usulubu,d,NA,NA,NA,NA,sdfdsf,0,1,NA,NA,NA,NA,NA,NA,NA,NA,NA,NA,NA,NA,NA,NA,NA,NA,NA,NA,NA
ea803,deep,flow.Sequence,5_0_1_0_1_0,NA,NA,completion,10601.38,2262220,2262217.98,2262234.66,2272836.04,2272837,2024-05-25T06:40:34Z,2272852.72,NULL,Widerstand,usulubu,d,NA,NA,NA,NA,sdfdsf,NA,1,NA,NA,NA,NA,NA,NA,NA,NA,NA,NA,NA,NA,NA,NA,NA,NA,NA,NA,NA
ea803,shallow,flow.Sequence,5_0_1_0_1_1,NA,NA,skipped,NA,2272837,NA,NA,2272836.04,2272837,2024-05-25T06:40:34Z,2272852.72,NULL,Widerstand,usulubu,d,NA,NA,NA,NA,sdfdsf,NA,1,NA,NA,NA,NA,NA,NA,NA,NA,NA,NA,NA,NA,NA,NA,NA,NA,NA,NA,NA
ea803,task,flow.Sequence,5_0_1_0_1,NA,NA,completion,10601.38,2262220,2262217.98,2262234.66,2272836.04,2272837,2024-05-25T06:40:34Z,2272852.72,NULL,Widerstand,usulubu,d,NA,NA,NA,NA,sdfdsf,NA,1,NA,NA,NA,NA,NA,NA,NA,NA,NA,NA,NA,NA,NA,NA,NA,NA,NA,NA,NA
ea803,deep,flow.Sequence,5_0_1_0_2_0,NA,NA,skipped,NA,2272838,NA,NA,2272836.04,2272838,2024-05-25T06:40:34Z,2272852.72,NULL,Kreativität,ubunifu,s,mratibu,mwendelezo,makubaliano,NA,sdfdsf,NA,1,NA,NA,NA,NA,NA,NA,NA,NA,NA,NA,NA,NA,NA,NA,NA,NA,NA,NA,NA
ea803,Shallow Question,html.Page,5_0_1_0_2_1_0,NA,NA,form submission,6827.2799999998,2272838,2272836.04,2272852.72,2279680,2279680,2024-05-25T06:40:41Z,2279684.4,NULL,Kreativität,ubunifu,s,mratibu,mwendelezo,makubaliano,ubunifu,NA,NA,1,NA,NA,NA,NA,NA,NA,NA,NA,NA,NA,NA,NA,NA,NA,NA,NA,NA,NA,NA
ea803,"""Richtig""-Screen",canvas.Screen,5_0_1_0_2_1_1,NA,NA,timeout,5001.9199999999,2279682,2279676.44,2279684.4,2284669.64,2284671,2024-05-25T06:40:46Z,2284686.32,NULL,Kreativität,ubunifu,s,mratibu,mwendelezo,makubaliano,NA,sdfdsf,1,1,NA,NA,NA,NA,NA,NA,NA,NA,NA,NA,NA,NA,NA,NA,NA,NA,NA,NA,NA
ea803,"""Falsch""-Screen",canvas.Screen,5_0_1_0_2_1_2,NA,NA,skipped,NA,2284673,NA,NA,2284669.64,2284673,2024-05-25T06:40:46Z,2284686.32,NULL,Kreativität,ubunifu,s,mratibu,mwendelezo,makubaliano,NA,sdfdsf,NA,1,NA,NA,NA,NA,NA,NA,NA,NA,NA,NA,NA,NA,NA,NA,NA,NA,NA,NA,NA
ea803,shallow,flow.Sequence,5_0_1_0_2_1,NA,NA,completion,11816.92,2272838,2272836.04,2272852.72,2284669.64,2284673,2024-05-25T06:40:46Z,2284686.32,NULL,Kreativität,ubunifu,s,mratibu,mwendelezo,makubaliano,NA,sdfdsf,NA,1,NA,NA,NA,NA,NA,NA,NA,NA,NA,NA,NA,NA,NA,NA,NA,NA,NA,NA,NA
ea803,task,flow.Sequence,5_0_1_0_2,NA,NA,completion,11816.92,2272837,2272836.04,2272852.72,2284669.64,2284674,2024-05-25T06:40:46Z,2284686.32,NULL,Kreativität,ubunifu,s,mratibu,mwendelezo,makubaliano,NA,sdfdsf,NA,1,NA,NA,NA,NA,NA,NA,NA,NA,NA,NA,NA,NA,NA,NA,NA,NA,NA,NA,NA
ea803,Deep Question,html.Page,5_0_1_0_3_0_0,NA,NA,form submission,8498.6800000002,2284674,2284669.64,2284686.32,2293185,2293186,2024-05-25T06:40:54Z,2293190.2,NULL,Gefährdung,kuhatarisha,d,NA,NA,NA,neri,NA,NA,1,NA,NA,NA,NA,NA,NA,NA,NA,NA,NA,NA,NA,NA,NA,NA,NA,NA,NA,NA
ea803,"""Richtig""-Screen",canvas.Screen,5_0_1_0_3_0_1,NA,NA,skipped,NA,2293187,NA,NA,2293185,2293187,2024-05-25T06:40:54Z,2293190.2,NULL,Gefährdung,kuhatarisha,d,NA,NA,NA,NA,sdfdsf,NA,1,NA,NA,NA,NA,NA,NA,NA,NA,NA,NA,NA,NA,NA,NA,NA,NA,NA,NA,NA
ea803,"""Falsch""-Screen",canvas.Screen,5_0_1_0_3_0_2,NA,NA,timeout,5002.6799999997,2293188,2293181.74,2293190.2,2298176.2,2298178,2024-05-25T06:40:59Z,2298192.88,NULL,Gefährdung,kuhatarisha,d,NA,NA,NA,NA,sdfdsf,0,1,NA,NA,NA,NA,NA,NA,NA,NA,NA,NA,NA,NA,NA,NA,NA,NA,NA,NA,NA
ea803,deep,flow.Sequence,5_0_1_0_3_0,NA,NA,completion,13489.88,2284674,2284669.64,2284686.32,2298176.2,2298178,2024-05-25T06:40:59Z,2298192.88,NULL,Gefährdung,kuhatarisha,d,NA,NA,NA,NA,sdfdsf,NA,1,NA,NA,NA,NA,NA,NA,NA,NA,NA,NA,NA,NA,NA,NA,NA,NA,NA,NA,NA
ea803,shallow,flow.Sequence,5_0_1_0_3_1,NA,NA,skipped,NA,2298178,NA,NA,2298176.2,2298178,2024-05-25T06:40:59Z,2298192.88,NULL,Gefährdung,kuhatarisha,d,NA,NA,NA,NA,sdfdsf,NA,1,NA,NA,NA,NA,NA,NA,NA,NA,NA,NA,NA,NA,NA,NA,NA,NA,NA,NA,NA
ea803,task,flow.Sequence,5_0_1_0_3,NA,NA,completion,13489.88,2284674,2284669.64,2284686.32,2298176.2,2298179,2024-05-25T06:40:59Z,2298192.88,NULL,Gefährdung,kuhatarisha,d,NA,NA,NA,NA,sdfdsf,NA,1,NA,NA,NA,NA,NA,NA,NA,NA,NA,NA,NA,NA,NA,NA,NA,NA,NA,NA,NA
ea803,deep,flow.Sequence,5_0_1_0_4_0,NA,NA,skipped,NA,2298179,NA,NA,2298176.2,2298179,2024-05-25T06:40:59Z,2298192.88,NULL,Ausschluss,kutengwa,s,ununuzi,taratibu,madeni,NA,sdfdsf,NA,1,NA,NA,NA,NA,NA,NA,NA,NA,NA,NA,NA,NA,NA,NA,NA,NA,NA,NA,NA
ea803,Shallow Question,html.Page,5_0_1_0_4_1_0,NA,NA,form submission,7144.1200000001,2298179,2298176.2,2298192.88,2305337,2305338,2024-05-25T06:41:06Z,2305334.98,NULL,Ausschluss,kutengwa,s,ununuzi,taratibu,madeni,ununuzi,NA,NA,1,NA,NA,NA,NA,NA,NA,NA,NA,NA,NA,NA,NA,NA,NA,NA,NA,NA,NA,NA
ea803,"""Richtig""-Screen",canvas.Screen,5_0_1_0_4_1_1,NA,NA,skipped,NA,2305339,NA,NA,2305337,2305339,2024-05-25T06:41:06Z,2305334.98,NULL,Ausschluss,kutengwa,s,ununuzi,taratibu,madeni,NA,sdfdsf,NA,1,NA,NA,NA,NA,NA,NA,NA,NA,NA,NA,NA,NA,NA,NA,NA,NA,NA,NA,NA
ea803,"""Falsch""-Screen",canvas.Screen,5_0_1_0_4_1_2,NA,NA,timeout,5045.3799999999,2305340,2305333.36,2305334.98,2310313.74,2310376,2024-05-25T06:41:11Z,2310380.36,NULL,Ausschluss,kutengwa,s,ununuzi,taratibu,madeni,NA,sdfdsf,0,1,NA,NA,NA,NA,NA,NA,NA,NA,NA,NA,NA,NA,NA,NA,NA,NA,NA,NA,NA
ea803,shallow,flow.Sequence,5_0_1_0_4_1,NA,NA,completion,12120.86,2298179,2298176.2,2298192.88,2310313.74,2310377,2024-05-25T06:41:11Z,2310380.36,NULL,Ausschluss,kutengwa,s,ununuzi,taratibu,madeni,NA,sdfdsf,NA,1,NA,NA,NA,NA,NA,NA,NA,NA,NA,NA,NA,NA,NA,NA,NA,NA,NA,NA,NA
ea803,task,flow.Sequence,5_0_1_0_4,NA,NA,completion,12120.86,2298179,2298176.2,2298192.88,2310313.74,2310378,2024-05-25T06:41:11Z,2310380.36,NULL,Ausschluss,kutengwa,s,ununuzi,taratibu,madeni,NA,sdfdsf,NA,1,NA,NA,NA,NA,NA,NA,NA,NA,NA,NA,NA,NA,NA,NA,NA,NA,NA,NA,NA
ea803,deep,flow.Sequence,5_0_1_0_5_0,NA,NA,skipped,NA,2310379,NA,NA,2310313.74,2310379,2024-05-25T06:41:11Z,2310380.36,NULL,Können,unaweza,s,kiongozi,bustani,mienendo,NA,sdfdsf,NA,1,NA,NA,NA,NA,NA,NA,NA,NA,NA,NA,NA,NA,NA,NA,NA,NA,NA,NA,NA
ea803,Shallow Question,html.Page,5_0_1_0_5_1_0,NA,NA,form submission,3852.6400000001,2310379,2310313.74,2310380.36,2314233,2314233,2024-05-25T06:41:15Z,2314233.66,NULL,Können,unaweza,s,kiongozi,bustani,mienendo,unaweza,NA,NA,1,NA,NA,NA,NA,NA,NA,NA,NA,NA,NA,NA,NA,NA,NA,NA,NA,NA,NA,NA
ea803,"""Richtig""-Screen",canvas.Screen,5_0_1_0_5_1_1,NA,NA,timeout,5008.0600000001,2314240,2314228.34,2314233.66,2319225.04,2319227,2024-05-25T06:41:20Z,2319241.72,NULL,Können,unaweza,s,kiongozi,bustani,mienendo,NA,sdfdsf,1,1,NA,NA,NA,NA,NA,NA,NA,NA,NA,NA,NA,NA,NA,NA,NA,NA,NA,NA,NA
ea803,"""Falsch""-Screen",canvas.Screen,5_0_1_0_5_1_2,NA,NA,skipped,NA,2319229,NA,NA,2319225.04,2319230,2024-05-25T06:41:20Z,2319241.72,NULL,Können,unaweza,s,kiongozi,bustani,mienendo,NA,sdfdsf,NA,1,NA,NA,NA,NA,NA,NA,NA,NA,NA,NA,NA,NA,NA,NA,NA,NA,NA,NA,NA
ea803,shallow,flow.Sequence,5_0_1_0_5_1,NA,NA,completion,8844.6800000002,2310379,2310313.74,2310380.36,2319225.04,2319230,2024-05-25T06:41:20Z,2319241.72,NULL,Können,unaweza,s,kiongozi,bustani,mienendo,NA,sdfdsf,NA,1,NA,NA,NA,NA,NA,NA,NA,NA,NA,NA,NA,NA,NA,NA,NA,NA,NA,NA,NA
ea803,task,flow.Sequence,5_0_1_0_5,NA,NA,completion,8844.6800000002,2310379,2310313.74,2310380.36,2319225.04,2319230,2024-05-25T06:41:20Z,2319241.72,NULL,Können,unaweza,s,kiongozi,bustani,mienendo,NA,sdfdsf,NA,1,NA,NA,NA,NA,NA,NA,NA,NA,NA,NA,NA,NA,NA,NA,NA,NA,NA,NA,NA
ea803,deep,flow.Sequence,5_0_1_0_6_0,NA,NA,skipped,NA,2319230,NA,NA,2319225.04,2319230,2024-05-25T06:41:20Z,2319241.72,NULL,Gelegenheit,wakati,s,mchanganyiko,kipaumbele,kushuku,NA,sdfdsf,NA,1,NA,NA,NA,NA,NA,NA,NA,NA,NA,NA,NA,NA,NA,NA,NA,NA,NA,NA,NA
ea803,Shallow Question,html.Page,5_0_1_0_6_1_0,NA,NA,form submission,4816.2799999998,2319230,2319225.04,2319241.72,2324058,2324058,2024-05-25T06:41:25Z,2324068.5,NULL,Gelegenheit,wakati,s,mchanganyiko,kipaumbele,kushuku,wakati,NA,NA,1,NA,NA,NA,NA,NA,NA,NA,NA,NA,NA,NA,NA,NA,NA,NA,NA,NA,NA,NA
ea803,"""Richtig""-Screen",canvas.Screen,5_0_1_0_6_1_1,NA,NA,timeout,5001.1600000001,2324061,2324054.38,2324068.5,2329052.98,2329054,2024-05-25T06:41:30Z,2329069.66,NULL,Gelegenheit,wakati,s,mchanganyiko,kipaumbele,kushuku,NA,sdfdsf,1,1,NA,NA,NA,NA,NA,NA,NA,NA,NA,NA,NA,NA,NA,NA,NA,NA,NA,NA,NA
ea803,"""Falsch""-Screen",canvas.Screen,5_0_1_0_6_1_2,NA,NA,skipped,NA,2329057,NA,NA,2329052.98,2329057,2024-05-25T06:41:30Z,2329069.66,NULL,Gelegenheit,wakati,s,mchanganyiko,kipaumbele,kushuku,NA,sdfdsf,NA,1,NA,NA,NA,NA,NA,NA,NA,NA,NA,NA,NA,NA,NA,NA,NA,NA,NA,NA,NA
ea803,shallow,flow.Sequence,5_0_1_0_6_1,NA,NA,completion,9811.2599999998,2319230,2319225.04,2319241.72,2329052.98,2329058,2024-05-25T06:41:30Z,2329069.66,NULL,Gelegenheit,wakati,s,mchanganyiko,kipaumbele,kushuku,NA,sdfdsf,NA,1,NA,NA,NA,NA,NA,NA,NA,NA,NA,NA,NA,NA,NA,NA,NA,NA,NA,NA,NA
ea803,task,flow.Sequence,5_0_1_0_6,NA,NA,completion,9811.2599999998,2319230,2319225.04,2319241.72,2329052.98,2329058,2024-05-25T06:41:30Z,2329069.66,NULL,Gelegenheit,wakati,s,mchanganyiko,kipaumbele,kushuku,NA,sdfdsf,NA,1,NA,NA,NA,NA,NA,NA,NA,NA,NA,NA,NA,NA,NA,NA,NA,NA,NA,NA,NA
ea803,Deep Question,html.Page,5_0_1_0_7_0_0,NA,NA,form submission,20025.34,2329058,2329052.98,2329069.66,2349095,2349095,2024-05-25T06:41:50Z,2349098.42,NULL,Kontrolle,kudhibiti,d,NA,NA,NA,keri,NA,NA,1,NA,NA,NA,NA,NA,NA,NA,NA,NA,NA,NA,NA,NA,NA,NA,NA,NA,NA,NA
ea803,"""Richtig""-Screen",canvas.Screen,5_0_1_0_7_0_1,NA,NA,skipped,NA,2349097,NA,NA,2349095,2349097,2024-05-25T06:41:50Z,2349098.42,NULL,Kontrolle,kudhibiti,d,NA,NA,NA,NA,sdfdsf,NA,1,NA,NA,NA,NA,NA,NA,NA,NA,NA,NA,NA,NA,NA,NA,NA,NA,NA,NA,NA
ea803,"""Falsch""-Screen",canvas.Screen,5_0_1_0_7_0_2,NA,NA,timeout,4996.7600000002,2349099,2349090.92,2349098.42,2354078.5,2354080,2024-05-25T06:41:55Z,2354095.18,NULL,Kontrolle,kudhibiti,d,NA,NA,NA,NA,sdfdsf,0,1,NA,NA,NA,NA,NA,NA,NA,NA,NA,NA,NA,NA,NA,NA,NA,NA,NA,NA,NA
ea803,deep,flow.Sequence,5_0_1_0_7_0,NA,NA,completion,25008.84,2329058,2329052.98,2329069.66,2354078.5,2354080,2024-05-25T06:41:55Z,2354095.18,NULL,Kontrolle,kudhibiti,d,NA,NA,NA,NA,sdfdsf,NA,1,NA,NA,NA,NA,NA,NA,NA,NA,NA,NA,NA,NA,NA,NA,NA,NA,NA,NA,NA
ea803,shallow,flow.Sequence,5_0_1_0_7_1,NA,NA,skipped,NA,2354080,NA,NA,2354078.5,2354081,2024-05-25T06:41:55Z,2354095.18,NULL,Kontrolle,kudhibiti,d,NA,NA,NA,NA,sdfdsf,NA,1,NA,NA,NA,NA,NA,NA,NA,NA,NA,NA,NA,NA,NA,NA,NA,NA,NA,NA,NA
ea803,task,flow.Sequence,5_0_1_0_7,NA,NA,completion,25008.84,2329058,2329052.98,2329069.66,2354078.5,2354081,2024-05-25T06:41:55Z,2354095.18,NULL,Kontrolle,kudhibiti,d,NA,NA,NA,NA,sdfdsf,NA,1,NA,NA,NA,NA,NA,NA,NA,NA,NA,NA,NA,NA,NA,NA,NA,NA,NA,NA,NA
ea803,block,flow.Loop,5_0_1_0,NA,NA,completion,102762.3,2251316,2251315.76,2251316.2,2354078.5,2354081,2024-05-25T06:41:55Z,2354095.18,NULL,NA,NA,NA,NA,NA,NA,NA,sdfdsf,NA,1,NA,NA,NA,NA,NA,NA,NA,NA,NA,NA,NA,NA,NA,NA,NA,NA,NA,NA,NA
ea803,weiter,canvas.Screen,5_0_1_1,sdf,keypress(Space),response,796.81999999983,2354082,2354078.5,2354095.18,2354892,2354905,2024-05-25T06:41:56Z,2354960.42,NULL,NA,NA,NA,NA,NA,NA,NA,sdfdsf,NA,1,NA,NA,NA,NA,NA,NA,NA,NA,NA,NA,NA,NA,NA,NA,NA,NA,NA,NA,NA
ea803,check continue,flow.Sequence,5_0_1,NA,NA,completion,103575.8,2251315,2251315.76,2251316.2,2354892,2354906,2024-05-25T06:41:56Z,2354960.42,NULL,NA,NA,NA,NA,NA,NA,NA,sdfdsf,NA,1,NA,NA,NA,NA,NA,NA,NA,NA,NA,NA,NA,NA,NA,NA,NA,NA,NA,NA,NA
ea803,deep,flow.Sequence,5_0_2_0_0_0,NA,NA,skipped,NA,2354960,NA,NA,2354892,2354960,2024-05-25T06:41:56Z,2354960.42,NULL,Ausschluss,kutengwa,s,ununuzi,taratibu,madeni,NA,sdf,NA,2,NA,NA,NA,NA,NA,NA,NA,NA,NA,NA,NA,NA,NA,NA,NA,NA,NA,NA,NA
ea803,Shallow Question,html.Page,5_0_2_0_0_1_0,NA,NA,form submission,5136.5800000001,2354960,2354959.84,2354960.42,2360097,2360097,2024-05-25T06:42:01Z,2360104.44,NULL,Ausschluss,kutengwa,s,ununuzi,taratibu,madeni,kutengwa,NA,NA,2,NA,NA,NA,NA,NA,NA,NA,NA,NA,NA,NA,NA,NA,NA,NA,NA,NA,NA,NA
ea803,"""Richtig""-Screen",canvas.Screen,5_0_2_0_0_1_1,NA,NA,timeout,5002.1400000001,2360098,2360092.88,2360104.44,2365089.9,2365091,2024-05-25T06:42:06Z,2365106.58,NULL,Ausschluss,kutengwa,s,ununuzi,taratibu,madeni,NA,sdf,1,2,NA,NA,NA,NA,NA,NA,NA,NA,NA,NA,NA,NA,NA,NA,NA,NA,NA,NA,NA
ea803,"""Falsch""-Screen",canvas.Screen,5_0_2_0_0_1_2,NA,NA,skipped,NA,2365094,NA,NA,2365089.9,2365094,2024-05-25T06:42:06Z,2365106.58,NULL,Ausschluss,kutengwa,s,ununuzi,taratibu,madeni,NA,sdf,NA,2,NA,NA,NA,NA,NA,NA,NA,NA,NA,NA,NA,NA,NA,NA,NA,NA,NA,NA,NA
ea803,shallow,flow.Sequence,5_0_2_0_0_1,NA,NA,completion,10129.48,2354960,2354959.84,2354960.42,2365089.9,2365094,2024-05-25T06:42:06Z,2365106.58,NULL,Ausschluss,kutengwa,s,ununuzi,taratibu,madeni,NA,sdf,NA,2,NA,NA,NA,NA,NA,NA,NA,NA,NA,NA,NA,NA,NA,NA,NA,NA,NA,NA,NA
ea803,task,flow.Sequence,5_0_2_0_0,NA,NA,completion,10129.48,2354960,2354959.84,2354960.42,2365089.9,2365094,2024-05-25T06:42:06Z,2365106.58,NULL,Ausschluss,kutengwa,s,ununuzi,taratibu,madeni,NA,sdf,NA,2,NA,NA,NA,NA,NA,NA,NA,NA,NA,NA,NA,NA,NA,NA,NA,NA,NA,NA,NA
ea803,Deep Question,html.Page,5_0_2_0_1_0_0,NA,NA,form submission,3638.4199999999,2365094,2365089.9,2365106.58,2368745,2368746,2024-05-25T06:42:10Z,2368744.26,NULL,Gefährdung,kuhatarisha,d,NA,NA,NA,seri,NA,NA,2,NA,NA,NA,NA,NA,NA,NA,NA,NA,NA,NA,NA,NA,NA,NA,NA,NA,NA,NA
ea803,"""Richtig""-Screen",canvas.Screen,5_0_2_0_1_0_1,NA,NA,skipped,NA,2368752,NA,NA,2368745,2368752,2024-05-25T06:42:10Z,2368744.26,NULL,Gefährdung,kuhatarisha,d,NA,NA,NA,NA,sdf,NA,2,NA,NA,NA,NA,NA,NA,NA,NA,NA,NA,NA,NA,NA,NA,NA,NA,NA,NA,NA
ea803,"""Falsch""-Screen",canvas.Screen,5_0_2_0_1_0_2,NA,NA,timeout,4995.5600000001,2368754,2368739.2,2368744.26,2373723.12,2373726,2024-05-25T06:42:15Z,2373739.82,NULL,Gefährdung,kuhatarisha,d,NA,NA,NA,NA,sdf,0,2,NA,NA,NA,NA,NA,NA,NA,NA,NA,NA,NA,NA,NA,NA,NA,NA,NA,NA,NA
