observation,sender,sender_type,sender_id,response,response_action,ended_on,duration,time_run,time_render,time_show,time_end,time_commit,timestamp,time_switch,german,swahili,enc,distractor1,distractor2,distractor3,response_2,x,correct,distractors,url_vp,url_sess,meta_labjs_version,meta_location,meta_user_agent,meta_platform,meta_language,meta_locale,meta_time_zone,meta_timezone_offset,meta_screen_width,meta_screen_height,meta_scroll_width,meta_scroll_height,meta_window_inner_width,meta_window_inner_height,meta_device_pixel_ratio,meta_labjs_build_flavor,meta_labjs_build_commit
157fc,Introduction delayed retrieval,canvas.Screen,0,weiter,keypress(Space),response,10025.987999976,1925,1923.412,1923.412,11949.399999976,11950.399999976,2024-05-27T07:57:33Z,11956.8,NA,NA,NA,NA,NA,NA,NA,NA,NA,NULL,160,2,20.2.4,https://neurocog.fernuni.ch/studies/vweber/jbaenninger/delayed/index.html?vp=160&sess=2,"Mozilla/5.0 (Windows NT 10.0; Win64; x64) AppleWebKit/537.36 (KHTML, like Gecko) Chrome/125.0.0.0 Safari/537.36 Edg/125.0.0.0",Win32,de,de-CH,Europe/Zurich,-120,1920,1080,1872,910,1872,958,1,production,f5b4a49f956347addd546a832a3327688c2c0fef
157fc,Deep Question,html.Page,1_0_0_0,NA,NA,form submission,33799.099999976,11950.5,11940.294,11956.8,45755.899999976,45756,2024-05-27T07:58:07Z,45757.194,Können,unaweza,s,kiongozi,bustani,mienendo,hgh,NA,NA,NULL,NA,NA,NA,NA,NA,NA,NA,NA,NA,NA,NA,NA,NA,NA,NA,NA,NA,NA,NA
157fc,Save data screen,canvas.Screen,1_0_0_1,NA,NA,timeout,499.706,45756.5,45757.194,45757.194,46240.2,46241.600000024,2024-05-27T07:58:07Z,46256.9,Können,unaweza,s,kiongozi,bustani,mienendo,NA,NA,0,NULL,NA,NA,NA,NA,NA,NA,NA,NA,NA,NA,NA,NA,NA,NA,NA,NA,NA,NA,NA
157fc,deep,flow.Sequence,1_0_0,NA,NA,completion,34283.4,11950.5,11940.294,11956.8,46240.2,46241.699999988,2024-05-27T07:58:07Z,46256.9,Können,unaweza,s,kiongozi,bustani,mienendo,NA,NA,NA,NULL,NA,NA,NA,NA,NA,NA,NA,NA,NA,NA,NA,NA,NA,NA,NA,NA,NA,NA,NA
157fc,task,flow.Sequence,1_0,NA,NA,completion,34283.4,11950.5,11940.294,11956.8,46240.2,46241.800000012,2024-05-27T07:58:07Z,46256.9,Können,unaweza,s,kiongozi,bustani,mienendo,NA,NA,NA,NULL,NA,NA,NA,NA,NA,NA,NA,NA,NA,NA,NA,NA,NA,NA,NA,NA,NA,NA,NA
157fc,Deep Question,html.Page,1_1_0_0,NA,NA,form submission,4123.7000000238,46241.899999976,46240.2,46256.9,50380.600000024,50380.800000012,2024-05-27T07:58:11Z,50390.2,Prüfung,mtihani,s,mkulima,mtizamo,ufumbuzi,djnkfba,NA,NA,NULL,NA,NA,NA,NA,NA,NA,NA,NA,NA,NA,NA,NA,NA,NA,NA,NA,NA,NA,NA
157fc,Save data screen,canvas.Screen,1_1_0_1,NA,NA,timeout,500.2,50381.199999988,50373.692,50390.2,50873.5,50874.300000012,2024-05-27T07:58:12Z,50890.4,Prüfung,mtihani,s,mkulima,mtizamo,ufumbuzi,NA,NA,0,NULL,NA,NA,NA,NA,NA,NA,NA,NA,NA,NA,NA,NA,NA,NA,NA,NA,NA,NA,NA
157fc,deep,flow.Sequence,1_1_0,NA,NA,completion,4616.6,46241.800000012,46240.2,46256.9,50873.5,50874.399999976,2024-05-27T07:58:12Z,50890.4,Prüfung,mtihani,s,mkulima,mtizamo,ufumbuzi,NA,NA,NA,NULL,NA,NA,NA,NA,NA,NA,NA,NA,NA,NA,NA,NA,NA,NA,NA,NA,NA,NA,NA
157fc,task,flow.Sequence,1_1,NA,NA,completion,4616.6,46241.800000012,46240.2,46256.9,50873.5,50874.399999976,2024-05-27T07:58:12Z,50890.4,Prüfung,mtihani,s,mkulima,mtizamo,ufumbuzi,NA,NA,NA,NULL,NA,NA,NA,NA,NA,NA,NA,NA,NA,NA,NA,NA,NA,NA,NA,NA,NA,NA,NA
157fc,Deep Question,html.Page,1_2_0_0,NA,NA,form submission,8266.1,50874.5,50873.5,50890.4,59156.5,59156.899999976,2024-05-27T07:58:20Z,59173.9,Kreativität,ubunifu,s,mratibu,mwendelezo,makubaliano,fjvnakf,NA,NA,NULL,NA,NA,NA,NA,NA,NA,NA,NA,NA,NA,NA,NA,NA,NA,NA,NA,NA,NA,NA
157fc,Save data screen,canvas.Screen,1_2_0_1,NA,NA,timeout,499.7,59157.399999976,59157.086,59173.9,59657,59658.300000012,2024-05-27T07:58:21Z,59673.6,Kreativität,ubunifu,s,mratibu,mwendelezo,makubaliano,NA,NA,0,NULL,NA,NA,NA,NA,NA,NA,NA,NA,NA,NA,NA,NA,NA,NA,NA,NA,NA,NA,NA
157fc,deep,flow.Sequence,1_2_0,NA,NA,completion,8766.6,50874.5,50873.5,50890.4,59657,59658.300000012,2024-05-27T07:58:21Z,59673.6,Kreativität,ubunifu,s,mratibu,mwendelezo,makubaliano,NA,NA,NA,NULL,NA,NA,NA,NA,NA,NA,NA,NA,NA,NA,NA,NA,NA,NA,NA,NA,NA,NA,NA
157fc,task,flow.Sequence,1_2,NA,NA,completion,8766.6,50874.5,50873.5,50890.4,59657,59658.300000012,2024-05-27T07:58:21Z,59673.6,Kreativität,ubunifu,s,mratibu,mwendelezo,makubaliano,NA,NA,NA,NULL,NA,NA,NA,NA,NA,NA,NA,NA,NA,NA,NA,NA,NA,NA,NA,NA,NA,NA,NA
157fc,Deep Question,html.Page,1_3_0_0,NA,NA,form submission,10120.099999988,59658.399999976,59657,59673.6,69793.699999988,69793.800000012,2024-05-27T07:58:31Z,69806.8,Lawine,banguko,s,maambukizi,usuluhishi,chekechea,banguko,NA,NA,NULL,NA,NA,NA,NA,NA,NA,NA,NA,NA,NA,NA,NA,NA,NA,NA,NA,NA,NA,NA
157fc,Save data screen,canvas.Screen,1_3_0_1,NA,NA,timeout,500.2,69795.100000024,69790.32,69806.8,70290.4,70291.100000024,2024-05-27T07:58:31Z,70307,Lawine,banguko,s,maambukizi,usuluhishi,chekechea,NA,NA,1,NULL,NA,NA,NA,NA,NA,NA,NA,NA,NA,NA,NA,NA,NA,NA,NA,NA,NA,NA,NA
157fc,deep,flow.Sequence,1_3_0,NA,NA,completion,10616.8,59658.399999976,59657,59673.6,70290.4,70291.199999988,2024-05-27T07:58:31Z,70307,Lawine,banguko,s,maambukizi,usuluhishi,chekechea,NA,NA,NA,NULL,NA,NA,NA,NA,NA,NA,NA,NA,NA,NA,NA,NA,NA,NA,NA,NA,NA,NA,NA
157fc,task,flow.Sequence,1_3,NA,NA,completion,10616.8,59658.300000012,59657,59673.6,70290.4,70291.300000012,2024-05-27T07:58:31Z,70307,Lawine,banguko,s,maambukizi,usuluhishi,chekechea,NA,NA,NA,NULL,NA,NA,NA,NA,NA,NA,NA,NA,NA,NA,NA,NA,NA,NA,NA,NA,NA,NA,NA
157fc,Deep Question,html.Page,1_4_0_0,NA,NA,form submission,14497,70291.300000012,70290.4,70307,84804,84804.100000024,2024-05-27T07:58:46Z,84806.8,Aufstand,ugomaji,s,mazidio,msingi,kujieleza,fadfb,NA,NA,NULL,NA,NA,NA,NA,NA,NA,NA,NA,NA,NA,NA,NA,NA,NA,NA,NA,NA,NA,NA
157fc,Save data screen,canvas.Screen,1_4_0_1,NA,NA,timeout,500,84805.300000012,84790.3,84806.8,85290.3,85291.100000024,2024-05-27T07:58:46Z,85306.8,Aufstand,ugomaji,s,mazidio,msingi,kujieleza,NA,NA,0,NULL,NA,NA,NA,NA,NA,NA,NA,NA,NA,NA,NA,NA,NA,NA,NA,NA,NA,NA,NA
157fc,deep,flow.Sequence,1_4_0,NA,NA,completion,14983.3,70291.300000012,70290.4,70307,85290.3,85291.100000024,2024-05-27T07:58:46Z,85306.8,Aufstand,ugomaji,s,mazidio,msingi,kujieleza,NA,NA,NA,NULL,NA,NA,NA,NA,NA,NA,NA,NA,NA,NA,NA,NA,NA,NA,NA,NA,NA,NA,NA
157fc,task,flow.Sequence,1_4,NA,NA,completion,14983.3,70291.300000012,70290.4,70307,85290.3,85291.199999988,2024-05-27T07:58:46Z,85306.8,Aufstand,ugomaji,s,mazidio,msingi,kujieleza,NA,NA,NA,NULL,NA,NA,NA,NA,NA,NA,NA,NA,NA,NA,NA,NA,NA,NA,NA,NA,NA,NA,NA
157fc,Deep Question,html.Page,1_5_0_0,NA,NA,form submission,4578.0999999762,85291.199999988,85290.3,85306.8,89884.899999976,89885,2024-05-27T07:58:51Z,89890.4,Abrechnung,uhasibu,d,kusahihisha,mpambano,mashambulizi,kjdfhakg,NA,NA,NULL,NA,NA,NA,NA,NA,NA,NA,NA,NA,NA,NA,NA,NA,NA,NA,NA,NA,NA,NA
157fc,Save data screen,canvas.Screen,1_5_0_1,NA,NA,timeout,499.90000000001,89886,89873.758,89890.4,90373.5,90374.199999988,2024-05-27T07:58:51Z,90390.3,Abrechnung,uhasibu,d,kusahihisha,mpambano,mashambulizi,NA,NA,0,NULL,NA,NA,NA,NA,NA,NA,NA,NA,NA,NA,NA,NA,NA,NA,NA,NA,NA,NA,NA
157fc,deep,flow.Sequence,1_5_0,NA,NA,completion,5066.7,85291.199999988,85290.3,85306.8,90373.5,90374.300000012,2024-05-27T07:58:51Z,90390.3,Abrechnung,uhasibu,d,kusahihisha,mpambano,mashambulizi,NA,NA,NA,NULL,NA,NA,NA,NA,NA,NA,NA,NA,NA,NA,NA,NA,NA,NA,NA,NA,NA,NA,NA
157fc,task,flow.Sequence,1_5,NA,NA,completion,5066.7,85291.199999988,85290.3,85306.8,90373.5,90374.300000012,2024-05-27T07:58:51Z,90390.3,Abrechnung,uhasibu,d,kusahihisha,mpambano,mashambulizi,NA,NA,NA,NULL,NA,NA,NA,NA,NA,NA,NA,NA,NA,NA,NA,NA,NA,NA,NA,NA,NA,NA,NA
157fc,Deep Question,html.Page,1_6_0_0,NA,NA,form submission,7815.2,90374.300000012,90373.5,90390.3,98205.5,98205.699999988,2024-05-27T07:58:59Z,98207.156,Kultur,utamaduni,d,shetani,gerezani,mazingira,jsfjhgjsfdj,NA,NA,NULL,NA,NA,NA,NA,NA,NA,NA,NA,NA,NA,NA,NA,NA,NA,NA,NA,NA,NA,NA
157fc,Save data screen,canvas.Screen,1_6_0_1,NA,NA,timeout,499.844,98206.800000012,98207.156,98207.156,98690.5,98691.600000024,2024-05-27T07:59:00Z,98707,Kultur,utamaduni,d,shetani,gerezani,mazingira,NA,NA,0,NULL,NA,NA,NA,NA,NA,NA,NA,NA,NA,NA,NA,NA,NA,NA,NA,NA,NA,NA,NA
157fc,deep,flow.Sequence,1_6_0,NA,NA,completion,8300.2,90374.300000012,90373.5,90390.3,98690.5,98691.699999988,2024-05-27T07:59:00Z,98707,Kultur,utamaduni,d,shetani,gerezani,mazingira,NA,NA,NA,NULL,NA,NA,NA,NA,NA,NA,NA,NA,NA,NA,NA,NA,NA,NA,NA,NA,NA,NA,NA
157fc,task,flow.Sequence,1_6,NA,NA,completion,8300.2,90374.300000012,90373.5,90390.3,98690.5,98691.800000012,2024-05-27T07:59:00Z,98707,Kultur,utamaduni,d,shetani,gerezani,mazingira,NA,NA,NA,NULL,NA,NA,NA,NA,NA,NA,NA,NA,NA,NA,NA,NA,NA,NA,NA,NA,NA,NA,NA
157fc,Deep Question,html.Page,1_7_0_0,NA,NA,form submission,16919.399999976,98691.800000012,98690.5,98707,115626.39999998,115626.5,2024-05-27T07:59:17Z,115640.2,Kontrolle,kudhibiti,d,mbinguni,kufunga,utegemezi,ghg,NA,NA,NULL,NA,NA,NA,NA,NA,NA,NA,NA,NA,NA,NA,NA,NA,NA,NA,NA,NA,NA,NA
157fc,Save data screen,canvas.Screen,1_7_0_1,NA,NA,timeout,500.10000000001,115627.60000002,115623.894,115640.2,116123.5,116124.39999998,2024-05-27T07:59:17Z,116140.3,Kontrolle,kudhibiti,d,mbinguni,kufunga,utegemezi,NA,NA,0,NULL,NA,NA,NA,NA,NA,NA,NA,NA,NA,NA,NA,NA,NA,NA,NA,NA,NA,NA,NA
157fc,deep,flow.Sequence,1_7_0,NA,NA,completion,17416.5,98691.800000012,98690.5,98707,116123.5,116124.5,2024-05-27T07:59:17Z,116140.3,Kontrolle,kudhibiti,d,mbinguni,kufunga,utegemezi,NA,NA,NA,NULL,NA,NA,NA,NA,NA,NA,NA,NA,NA,NA,NA,NA,NA,NA,NA,NA,NA,NA,NA
157fc,task,flow.Sequence,1_7,NA,NA,completion,17416.5,98691.800000012,98690.5,98707,116123.5,116124.5,2024-05-27T07:59:17Z,116140.3,Kontrolle,kudhibiti,d,mbinguni,kufunga,utegemezi,NA,NA,NA,NULL,NA,NA,NA,NA,NA,NA,NA,NA,NA,NA,NA,NA,NA,NA,NA,NA,NA,NA,NA
157fc,Deep Question,html.Page,1_8_0_0,NA,NA,form submission,27577.2,116124.5,116123.5,116140.3,143717.5,143717.69999999,2024-05-27T07:59:45Z,143723.5,Verzögerung,kuchelewa,d,mwakilishi,mwanauchumi,jaribio,ghg,NA,NA,NULL,NA,NA,NA,NA,NA,NA,NA,NA,NA,NA,NA,NA,NA,NA,NA,NA,NA,NA,NA
157fc,Save data screen,canvas.Screen,1_8_0_1,NA,NA,timeout,500,143718.80000001,143707.062,143723.5,144207,144208.10000002,2024-05-27T07:59:45Z,144223.5,Verzögerung,kuchelewa,d,mwakilishi,mwanauchumi,jaribio,NA,NA,0,NULL,NA,NA,NA,NA,NA,NA,NA,NA,NA,NA,NA,NA,NA,NA,NA,NA,NA,NA,NA
157fc,deep,flow.Sequence,1_8_0,NA,NA,completion,28066.7,116124.5,116123.5,116140.3,144207,144208.19999999,2024-05-27T07:59:45Z,144223.5,Verzögerung,kuchelewa,d,mwakilishi,mwanauchumi,jaribio,NA,NA,NA,NULL,NA,NA,NA,NA,NA,NA,NA,NA,NA,NA,NA,NA,NA,NA,NA,NA,NA,NA,NA
157fc,task,flow.Sequence,1_8,NA,NA,completion,28066.7,116124.5,116123.5,116140.3,144207,144208.19999999,2024-05-27T07:59:45Z,144223.5,Verzögerung,kuchelewa,d,mwakilishi,mwanauchumi,jaribio,NA,NA,NA,NULL,NA,NA,NA,NA,NA,NA,NA,NA,NA,NA,NA,NA,NA,NA,NA,NA,NA,NA,NA
157fc,Deep Question,html.Page,1_9_0_0,NA,NA,form submission,3905.1000000238,144208.19999999,144207,144223.5,148128.60000002,148128.69999999,2024-05-27T07:59:49Z,148140.3,Angreifer,mshambulizi,s,kitengo,tasinia,usafirishaji,ghg,NA,NA,NULL,NA,NA,NA,NA,NA,NA,NA,NA,NA,NA,NA,NA,NA,NA,NA,NA,NA,NA,NA
157fc,Save data screen,canvas.Screen,1_9_0_1,NA,NA,timeout,500.10000000001,148129.80000001,148123.812,148140.3,148623.7,148624.5,2024-05-27T07:59:50Z,148640.4,Angreifer,mshambulizi,s,kitengo,tasinia,usafirishaji,NA,NA,0,NULL,NA,NA,NA,NA,NA,NA,NA,NA,NA,NA,NA,NA,NA,NA,NA,NA,NA,NA,NA
157fc,deep,flow.Sequence,1_9_0,NA,NA,completion,4400.2,144208.19999999,144207,144223.5,148623.7,148624.5,2024-05-27T07:59:50Z,148640.4,Angreifer,mshambulizi,s,kitengo,tasinia,usafirishaji,NA,NA,NA,NULL,NA,NA,NA,NA,NA,NA,NA,NA,NA,NA,NA,NA,NA,NA,NA,NA,NA,NA,NA
157fc,task,flow.Sequence,1_9,NA,NA,completion,4400.2,144208.19999999,144207,144223.5,148623.7,148624.60000002,2024-05-27T07:59:50Z,148640.4,Angreifer,mshambulizi,s,kitengo,tasinia,usafirishaji,NA,NA,NA,NULL,NA,NA,NA,NA,NA,NA,NA,NA,NA,NA,NA,NA,NA,NA,NA,NA,NA,NA,NA
157fc,Deep Question,html.Page,1_10_0_0,NA,NA,form submission,12136.999999976,148624.60000002,148623.7,148640.4,160777.39999998,160777.5,2024-05-27T08:00:02Z,160790.1,Körper,kiwiliwili,d,mapambano,mpatanishi,kiolezo,kiwiliwili,NA,NA,NULL,NA,NA,NA,NA,NA,NA,NA,NA,NA,NA,NA,NA,NA,NA,NA,NA,NA,NA,NA
157fc,Save data screen,canvas.Screen,1_10_0_1,NA,NA,timeout,500.10000000001,160778.69999999,160773.598,160790.1,161273.6,161274.39999998,2024-05-27T08:00:02Z,161290.2,Körper,kiwiliwili,d,mapambano,mpatanishi,kiolezo,NA,NA,1,NULL,NA,NA,NA,NA,NA,NA,NA,NA,NA,NA,NA,NA,NA,NA,NA,NA,NA,NA,NA
157fc,deep,flow.Sequence,1_10_0,NA,NA,completion,12633.2,148624.60000002,148623.7,148640.4,161273.6,161274.5,2024-05-27T08:00:02Z,161290.2,Körper,kiwiliwili,d,mapambano,mpatanishi,kiolezo,NA,NA,NA,NULL,NA,NA,NA,NA,NA,NA,NA,NA,NA,NA,NA,NA,NA,NA,NA,NA,NA,NA,NA
157fc,task,flow.Sequence,1_10,NA,NA,completion,12633.2,148624.60000002,148623.7,148640.4,161273.6,161274.60000002,2024-05-27T08:00:02Z,161290.2,Körper,kiwiliwili,d,mapambano,mpatanishi,kiolezo,NA,NA,NA,NULL,NA,NA,NA,NA,NA,NA,NA,NA,NA,NA,NA,NA,NA,NA,NA,NA,NA,NA,NA
157fc,Deep Question,html.Page,1_11_0_0,NA,NA,form submission,3220.6000000119,161274.60000002,161273.6,161290.2,164510.80000001,164510.89999998,2024-05-27T08:00:05Z,164523.6,Gefährdung,kuhatarisha,d,uchokozi,udhaifu,makorowezo,ghg,NA,NA,NULL,NA,NA,NA,NA,NA,NA,NA,NA,NA,NA,NA,NA,NA,NA,NA,NA,NA,NA,NA
157fc,Save data screen,canvas.Screen,1_11_0_1,NA,NA,timeout,500,164511.10000002,164507.084,164523.6,165006.9,165007.60000002,2024-05-27T08:00:06Z,165023.6,Gefährdung,kuhatarisha,d,uchokozi,udhaifu,makorowezo,NA,NA,0,NULL,NA,NA,NA,NA,NA,NA,NA,NA,NA,NA,NA,NA,NA,NA,NA,NA,NA,NA,NA
157fc,deep,flow.Sequence,1_11_0,NA,NA,completion,3716.7,161274.60000002,161273.6,161290.2,165006.9,165007.69999999,2024-05-27T08:00:06Z,165023.6,Gefährdung,kuhatarisha,d,uchokozi,udhaifu,makorowezo,NA,NA,NA,NULL,NA,NA,NA,NA,NA,NA,NA,NA,NA,NA,NA,NA,NA,NA,NA,NA,NA,NA,NA
157fc,task,flow.Sequence,1_11,NA,NA,completion,3716.7,161274.60000002,161273.6,161290.2,165006.9,165007.69999999,2024-05-27T08:00:06Z,165023.6,Gefährdung,kuhatarisha,d,uchokozi,udhaifu,makorowezo,NA,NA,NA,NULL,NA,NA,NA,NA,NA,NA,NA,NA,NA,NA,NA,NA,NA,NA,NA,NA,NA,NA,NA
157fc,Deep Question,html.Page,1_12_0_0,NA,NA,form submission,2938.4,165007.69999999,165006.9,165023.6,167962,167962.10000002,2024-05-27T08:00:09Z,167973.5,System,maongozi,s,chokochoko,nuksani,mitaani,ghg,NA,NA,NULL,NA,NA,NA,NA,NA,NA,NA,NA,NA,NA,NA,NA,NA,NA,NA,NA,NA,NA,NA
157fc,Save data screen,canvas.Screen,1_12_0_1,NA,NA,timeout,500,167963.10000002,167957.048,167973.5,168456.9,168457.69999999,2024-05-27T08:00:09Z,168473.5,System,maongozi,s,chokochoko,nuksani,mitaani,NA,NA,0,NULL,NA,NA,NA,NA,NA,NA,NA,NA,NA,NA,NA,NA,NA,NA,NA,NA,NA,NA,NA
157fc,deep,flow.Sequence,1_12_0,NA,NA,completion,3433.3,165007.69999999,165006.9,165023.6,168456.9,168457.80000001,2024-05-27T08:00:09Z,168473.5,System,maongozi,s,chokochoko,nuksani,mitaani,NA,NA,NA,NULL,NA,NA,NA,NA,NA,NA,NA,NA,NA,NA,NA,NA,NA,NA,NA,NA,NA,NA,NA
157fc,task,flow.Sequence,1_12,NA,NA,completion,3433.3,165007.69999999,165006.9,165023.6,168456.9,168457.89999998,2024-05-27T08:00:09Z,168473.5,System,maongozi,s,chokochoko,nuksani,mitaani,NA,NA,NA,NULL,NA,NA,NA,NA,NA,NA,NA,NA,NA,NA,NA,NA,NA,NA,NA,NA,NA,NA,NA
157fc,Deep Question,html.Page,1_13_0_0,NA,NA,form submission,5110.5,168457.89999998,168456.9,168473.5,173584,173584,2024-05-27T08:00:14Z,173590.2,Kanzler,diwani,d,rasilmali,mahitaji,maabudu,ghg,NA,NA,NULL,NA,NA,NA,NA,NA,NA,NA,NA,NA,NA,NA,NA,NA,NA,NA,NA,NA,NA,NA
157fc,Save data screen,canvas.Screen,1_13_0_1,NA,NA,timeout,499.89999999999,173585.19999999,173573.722,173590.2,174073.5,174073.89999998,2024-05-27T08:00:15Z,174090.1,Kanzler,diwani,d,rasilmali,mahitaji,maabudu,NA,NA,0,NULL,NA,NA,NA,NA,NA,NA,NA,NA,NA,NA,NA,NA,NA,NA,NA,NA,NA,NA,NA
157fc,deep,flow.Sequence,1_13_0,NA,NA,completion,5600,168457.89999998,168456.9,168473.5,174073.5,174074.10000002,2024-05-27T08:00:15Z,174090.1,Kanzler,diwani,d,rasilmali,mahitaji,maabudu,NA,NA,NA,NULL,NA,NA,NA,NA,NA,NA,NA,NA,NA,NA,NA,NA,NA,NA,NA,NA,NA,NA,NA
157fc,task,flow.Sequence,1_13,NA,NA,completion,5600,168457.89999998,168456.9,168473.5,174073.5,174074.10000002,2024-05-27T08:00:15Z,174090.1,Kanzler,diwani,d,rasilmali,mahitaji,maabudu,NA,NA,NA,NULL,NA,NA,NA,NA,NA,NA,NA,NA,NA,NA,NA,NA,NA,NA,NA,NA,NA,NA,NA
157fc,Deep Question,html.Page,1_14_0_0,NA,NA,form submission,4802.5000000238,174074.10000002,174073.5,174090.1,178892.60000002,178892.69999999,2024-05-27T08:00:20Z,178907,Sänger,mwimbaji,s,msichana,shughuli,mshirika,ghg,NA,NA,NULL,NA,NA,NA,NA,NA,NA,NA,NA,NA,NA,NA,NA,NA,NA,NA,NA,NA,NA,NA
157fc,Save data screen,canvas.Screen,1_14_0_1,NA,NA,timeout,500,178893.69999999,178890.4,178907,179390.2,179391.10000002,2024-05-27T08:00:20Z,179407,Sänger,mwimbaji,s,msichana,shughuli,mshirika,NA,NA,0,NULL,NA,NA,NA,NA,NA,NA,NA,NA,NA,NA,NA,NA,NA,NA,NA,NA,NA,NA,NA
157fc,deep,flow.Sequence,1_14_0,NA,NA,completion,5300.1,174074.10000002,174073.5,174090.1,179390.2,179391.19999999,2024-05-27T08:00:20Z,179407,Sänger,mwimbaji,s,msichana,shughuli,mshirika,NA,NA,NA,NULL,NA,NA,NA,NA,NA,NA,NA,NA,NA,NA,NA,NA,NA,NA,NA,NA,NA,NA,NA
157fc,task,flow.Sequence,1_14,NA,NA,completion,5300.1,174074.10000002,174073.5,174090.1,179390.2,179391.30000001,2024-05-27T08:00:20Z,179407,Sänger,mwimbaji,s,msichana,shughuli,mshirika,NA,NA,NA,NULL,NA,NA,NA,NA,NA,NA,NA,NA,NA,NA,NA,NA,NA,NA,NA,NA,NA,NA,NA
157fc,Deep Question,html.Page,1_15_0_0,NA,NA,form submission,2638.5,179391.39999998,179390.2,179407,182045.5,182045.69999999,2024-05-27T08:00:23Z,182056.9,Übersicht,kilindo,d,mgusano,chipukizi,kulinganisha,ghg,NA,NA,NULL,NA,NA,NA,NA,NA,NA,NA,NA,NA,NA,NA,NA,NA,NA,NA,NA,NA,NA,NA
157fc,Save data screen,canvas.Screen,1_15_0_1,NA,NA,timeout,500.10000000001,182045.89999998,182040.52,182056.9,182540.3,182541,2024-05-27T08:00:23Z,182557,Übersicht,kilindo,d,mgusano,chipukizi,kulinganisha,NA,NA,0,NULL,NA,NA,NA,NA,NA,NA,NA,NA,NA,NA,NA,NA,NA,NA,NA,NA,NA,NA,NA
157fc,deep,flow.Sequence,1_15_0,NA,NA,completion,3133.3,179391.39999998,179390.2,179407,182540.3,182541.10000002,2024-05-27T08:00:23Z,182557,Übersicht,kilindo,d,mgusano,chipukizi,kulinganisha,NA,NA,NA,NULL,NA,NA,NA,NA,NA,NA,NA,NA,NA,NA,NA,NA,NA,NA,NA,NA,NA,NA,NA
157fc,task,flow.Sequence,1_15,NA,NA,completion,3133.3,179391.30000001,179390.2,179407,182540.3,182541.19999999,2024-05-27T08:00:23Z,182557,Übersicht,kilindo,d,mgusano,chipukizi,kulinganisha,NA,NA,NA,NULL,NA,NA,NA,NA,NA,NA,NA,NA,NA,NA,NA,NA,NA,NA,NA,NA,NA,NA,NA
157fc,retrieval block 1 (cued recall),flow.Loop,1,NA,NA,completion,170583.5,11950.5,11940.294,11956.8,182540.3,182541.19999999,2024-05-27T08:00:23Z,182557,NA,NA,NA,NA,NA,NA,NA,NA,NA,NULL,NA,NA,NA,NA,NA,NA,NA,NA,NA,NA,NA,NA,NA,NA,NA,NA,NA,NA,NA
157fc,Shallow Question,html.Page,2_0_0_0,NA,NA,form submission,4302.5,182541.19999999,182540.3,182557,186859.5,186859.60000002,2024-05-27T08:00:28Z,186873.4,Körper,kiwiliwili,d,mapambano,mpatanishi,kiolezo,kiwiliwili,NA,NA,"c(""distractor1"", ""distractor2"", ""distractor3"")",NA,NA,NA,NA,NA,NA,NA,NA,NA,NA,NA,NA,NA,NA,NA,NA,NA,NA,NA
157fc,Save data screen,canvas.Screen,2_0_0_1,NA,NA,timeout,500.10000000001,186860.5,186857.074,186873.4,187356.9,187357.89999998,2024-05-27T08:00:28Z,187373.5,Körper,kiwiliwili,d,mapambano,mpatanishi,kiolezo,NA,NA,1,"c(""distractor1"", ""distractor2"", ""distractor3"")",NA,NA,NA,NA,NA,NA,NA,NA,NA,NA,NA,NA,NA,NA,NA,NA,NA,NA,NA
157fc,shallow,flow.Sequence,2_0_0,NA,NA,completion,4799.9,182541.19999999,182540.3,182557,187356.9,187358,2024-05-27T08:00:28Z,187373.5,Körper,kiwiliwili,d,mapambano,mpatanishi,kiolezo,NA,NA,NA,"c(""distractor1"", ""distractor2"", ""distractor3"")",NA,NA,NA,NA,NA,NA,NA,NA,NA,NA,NA,NA,NA,NA,NA,NA,NA,NA,NA
157fc,task,flow.Sequence,2_0,NA,NA,completion,4799.9,182541.19999999,182540.3,182557,187356.9,187358,2024-05-27T08:00:28Z,187373.5,Körper,kiwiliwili,d,mapambano,mpatanishi,kiolezo,NA,NA,NA,"c(""distractor1"", ""distractor2"", ""distractor3"")",NA,NA,NA,NA,NA,NA,NA,NA,NA,NA,NA,NA,NA,NA,NA,NA,NA,NA,NA
157fc,Shallow Question,html.Page,2_1_0_0,NA,NA,form submission,8111.1999999881,187358.10000002,187356.9,187373.5,195484.69999999,195484.80000001,2024-05-27T08:00:36Z,195490.2,Kreativität,ubunifu,s,mratibu,mwendelezo,makubaliano,ubunifu,NA,NA,"c(""distractor1"", ""distractor2"", ""distractor3"")",NA,NA,NA,NA,NA,NA,NA,NA,NA,NA,NA,NA,NA,NA,NA,NA,NA,NA,NA
157fc,Save data screen,canvas.Screen,2_1_0_1,NA,NA,timeout,499.89999999999,195485.69999999,195473.748,195490.2,195973.6,195974.10000002,2024-05-27T08:00:37Z,195990.1,Kreativität,ubunifu,s,mratibu,mwendelezo,makubaliano,NA,NA,1,"c(""distractor1"", ""distractor2"", ""distractor3"")",NA,NA,NA,NA,NA,NA,NA,NA,NA,NA,NA,NA,NA,NA,NA,NA,NA,NA,NA
157fc,shallow,flow.Sequence,2_1_0,NA,NA,completion,8600.1,187358.10000002,187356.9,187373.5,195973.6,195974.39999998,2024-05-27T08:00:37Z,195990.1,Kreativität,ubunifu,s,mratibu,mwendelezo,makubaliano,NA,NA,NA,"c(""distractor1"", ""distractor2"", ""distractor3"")",NA,NA,NA,NA,NA,NA,NA,NA,NA,NA,NA,NA,NA,NA,NA,NA,NA,NA,NA
157fc,task,flow.Sequence,2_1,NA,NA,completion,8600.1,187358.10000002,187356.9,187373.5,195973.6,195974.5,2024-05-27T08:00:37Z,195990.1,Kreativität,ubunifu,s,mratibu,mwendelezo,makubaliano,NA,NA,NA,"c(""distractor1"", ""distractor2"", ""distractor3"")",NA,NA,NA,NA,NA,NA,NA,NA,NA,NA,NA,NA,NA,NA,NA,NA,NA,NA,NA
157fc,Shallow Question,html.Page,2_2_0_0,NA,NA,form submission,2376.4,195974.5,195973.6,195990.1,198366.5,198366.60000002,2024-05-27T08:00:39Z,198373.6,Lawine,banguko,s,maambukizi,usuluhishi,chekechea,banguko,NA,NA,"c(""distractor1"", ""distractor2"", ""distractor3"")",NA,NA,NA,NA,NA,NA,NA,NA,NA,NA,NA,NA,NA,NA,NA,NA,NA,NA,NA
157fc,Save data screen,canvas.Screen,2_2_0_1,NA,NA,timeout,500,198366.89999998,198357.154,198373.6,198856.9,198857.60000002,2024-05-27T08:00:40Z,198873.6,Lawine,banguko,s,maambukizi,usuluhishi,chekechea,NA,NA,1,"c(""distractor1"", ""distractor2"", ""distractor3"")",NA,NA,NA,NA,NA,NA,NA,NA,NA,NA,NA,NA,NA,NA,NA,NA,NA,NA,NA
157fc,shallow,flow.Sequence,2_2_0,NA,NA,completion,2866.8,195974.5,195973.6,195990.1,198856.9,198857.60000002,2024-05-27T08:00:40Z,198873.6,Lawine,banguko,s,maambukizi,usuluhishi,chekechea,NA,NA,NA,"c(""distractor1"", ""distractor2"", ""distractor3"")",NA,NA,NA,NA,NA,NA,NA,NA,NA,NA,NA,NA,NA,NA,NA,NA,NA,NA,NA
157fc,task,flow.Sequence,2_2,NA,NA,completion,2866.8,195974.5,195973.6,195990.1,198856.9,198857.69999999,2024-05-27T08:00:40Z,198873.6,Lawine,banguko,s,maambukizi,usuluhishi,chekechea,NA,NA,NA,"c(""distractor1"", ""distractor2"", ""distractor3"")",NA,NA,NA,NA,NA,NA,NA,NA,NA,NA,NA,NA,NA,NA,NA,NA,NA,NA,NA
157fc,Shallow Question,html.Page,2_3_0_0,NA,NA,form submission,6372.5999999881,198857.69999999,198856.9,198873.6,205246.19999999,205246.39999998,2024-05-27T08:00:46Z,205256.9,Kultur,utamaduni,d,shetani,gerezani,mazingira,mazingira,NA,NA,"c(""distractor1"", ""distractor2"", ""distractor3"")",NA,NA,NA,NA,NA,NA,NA,NA,NA,NA,NA,NA,NA,NA,NA,NA,NA,NA,NA
157fc,Save data screen,canvas.Screen,2_3_0_1,NA,NA,timeout,500,205247.39999998,205240.462,205256.9,205740.3,205741.30000001,2024-05-27T08:00:47Z,205756.9,Kultur,utamaduni,d,shetani,gerezani,mazingira,NA,NA,0,"c(""distractor1"", ""distractor2"", ""distractor3"")",NA,NA,NA,NA,NA,NA,NA,NA,NA,NA,NA,NA,NA,NA,NA,NA,NA,NA,NA
157fc,shallow,flow.Sequence,2_3_0,NA,NA,completion,6866.7,198857.69999999,198856.9,198873.6,205740.3,205741.30000001,2024-05-27T08:00:47Z,205756.9,Kultur,utamaduni,d,shetani,gerezani,mazingira,NA,NA,NA,"c(""distractor1"", ""distractor2"", ""distractor3"")",NA,NA,NA,NA,NA,NA,NA,NA,NA,NA,NA,NA,NA,NA,NA,NA,NA,NA,NA
157fc,task,flow.Sequence,2_3,NA,NA,completion,6866.7,198857.69999999,198856.9,198873.6,205740.3,205741.39999998,2024-05-27T08:00:47Z,205756.9,Kultur,utamaduni,d,shetani,gerezani,mazingira,NA,NA,NA,"c(""distractor1"", ""distractor2"", ""distractor3"")",NA,NA,NA,NA,NA,NA,NA,NA,NA,NA,NA,NA,NA,NA,NA,NA,NA,NA,NA
157fc,Shallow Question,html.Page,2_4_0_0,NA,NA,form submission,2460.4000000119,205741.39999998,205740.3,205756.9,208217.30000001,208217.39999998,2024-05-27T08:00:49Z,208240.2,Können,unaweza,s,kiongozi,bustani,mienendo,unaweza,NA,NA,"c(""distractor1"", ""distractor2"", ""distractor3"")",NA,NA,NA,NA,NA,NA,NA,NA,NA,NA,NA,NA,NA,NA,NA,NA,NA,NA,NA
157fc,Save data screen,canvas.Screen,2_4_0_1,NA,NA,timeout,500.09999999998,208218.30000001,208223.8,208240.2,208723.6,208724.30000001,2024-05-27T08:00:50Z,208740.3,Können,unaweza,s,kiongozi,bustani,mienendo,NA,NA,1,"c(""distractor1"", ""distractor2"", ""distractor3"")",NA,NA,NA,NA,NA,NA,NA,NA,NA,NA,NA,NA,NA,NA,NA,NA,NA,NA,NA
157fc,shallow,flow.Sequence,2_4_0,NA,NA,completion,2966.7,205741.39999998,205740.3,205756.9,208723.6,208724.39999998,2024-05-27T08:00:50Z,208740.3,Können,unaweza,s,kiongozi,bustani,mienendo,NA,NA,NA,"c(""distractor1"", ""distractor2"", ""distractor3"")",NA,NA,NA,NA,NA,NA,NA,NA,NA,NA,NA,NA,NA,NA,NA,NA,NA,NA,NA
157fc,task,flow.Sequence,2_4,NA,NA,completion,2966.7,205741.39999998,205740.3,205756.9,208723.6,208724.39999998,2024-05-27T08:00:50Z,208740.3,Können,unaweza,s,kiongozi,bustani,mienendo,NA,NA,NA,"c(""distractor1"", ""distractor2"", ""distractor3"")",NA,NA,NA,NA,NA,NA,NA,NA,NA,NA,NA,NA,NA,NA,NA,NA,NA,NA,NA
157fc,Shallow Question,html.Page,2_5_0_0,NA,NA,form submission,4812.3000000239,208724.39999998,208723.6,208740.3,213552.60000002,213552.69999999,2024-05-27T08:00:54Z,213556.8,Kontrolle,kudhibiti,d,mbinguni,kufunga,utegemezi,kudhibiti,NA,NA,"c(""distractor1"", ""distractor2"", ""distractor3"")",NA,NA,NA,NA,NA,NA,NA,NA,NA,NA,NA,NA,NA,NA,NA,NA,NA,NA,NA
157fc,Save data screen,canvas.Screen,2_5_0_1,NA,NA,timeout,500,213553.80000001,213540.47,213556.8,214040.2,214040.80000001,2024-05-27T08:00:55Z,214056.8,Kontrolle,kudhibiti,d,mbinguni,kufunga,utegemezi,NA,NA,1,"c(""distractor1"", ""distractor2"", ""distractor3"")",NA,NA,NA,NA,NA,NA,NA,NA,NA,NA,NA,NA,NA,NA,NA,NA,NA,NA,NA
157fc,shallow,flow.Sequence,2_5_0,NA,NA,completion,5299.9,208724.39999998,208723.6,208740.3,214040.2,214040.89999998,2024-05-27T08:00:55Z,214056.8,Kontrolle,kudhibiti,d,mbinguni,kufunga,utegemezi,NA,NA,NA,"c(""distractor1"", ""distractor2"", ""distractor3"")",NA,NA,NA,NA,NA,NA,NA,NA,NA,NA,NA,NA,NA,NA,NA,NA,NA,NA,NA
157fc,task,flow.Sequence,2_5,NA,NA,completion,5299.9,208724.39999998,208723.6,208740.3,214040.2,214040.89999998,2024-05-27T08:00:55Z,214056.8,Kontrolle,kudhibiti,d,mbinguni,kufunga,utegemezi,NA,NA,NA,"c(""distractor1"", ""distractor2"", ""distractor3"")",NA,NA,NA,NA,NA,NA,NA,NA,NA,NA,NA,NA,NA,NA,NA,NA,NA,NA,NA
157fc,Shallow Question,html.Page,2_6_0_0,NA,NA,form submission,2541.8999999881,214040.89999998,214040.2,214056.8,216598.69999999,216598.89999998,2024-05-27T08:00:58Z,216606.9,Kanzler,diwani,d,rasilmali,mahitaji,maabudu,diwani,NA,NA,"c(""distractor1"", ""distractor2"", ""distractor3"")",NA,NA,NA,NA,NA,NA,NA,NA,NA,NA,NA,NA,NA,NA,NA,NA,NA,NA,NA
157fc,Save data screen,canvas.Screen,2_6_0_1,NA,NA,timeout,500.20000000001,216599.19999999,216590.448,216606.9,217090.1,217090.89999998,2024-05-27T08:00:58Z,217107.1,Kanzler,diwani,d,rasilmali,mahitaji,maabudu,NA,NA,1,"c(""distractor1"", ""distractor2"", ""distractor3"")",NA,NA,NA,NA,NA,NA,NA,NA,NA,NA,NA,NA,NA,NA,NA,NA,NA,NA,NA
157fc,shallow,flow.Sequence,2_6_0,NA,NA,completion,3033.3,214040.89999998,214040.2,214056.8,217090.1,217090.89999998,2024-05-27T08:00:58Z,217107.1,Kanzler,diwani,d,rasilmali,mahitaji,maabudu,NA,NA,NA,"c(""distractor1"", ""distractor2"", ""distractor3"")",NA,NA,NA,NA,NA,NA,NA,NA,NA,NA,NA,NA,NA,NA,NA,NA,NA,NA,NA
157fc,task,flow.Sequence,2_6,NA,NA,completion,3033.3,214040.89999998,214040.2,214056.8,217090.1,217091,2024-05-27T08:00:58Z,217107.1,Kanzler,diwani,d,rasilmali,mahitaji,maabudu,NA,NA,NA,"c(""distractor1"", ""distractor2"", ""distractor3"")",NA,NA,NA,NA,NA,NA,NA,NA,NA,NA,NA,NA,NA,NA,NA,NA,NA,NA,NA
157fc,Shallow Question,html.Page,2_7_0_0,NA,NA,form submission,5830.7999999762,217091,217090.1,217107.1,222937.89999998,222938.10000002,2024-05-27T08:01:04Z,222940.1,Übersicht,kilindo,d,mgusano,chipukizi,kulinganisha,kilindo,NA,NA,"c(""distractor1"", ""distractor2"", ""distractor3"")",NA,NA,NA,NA,NA,NA,NA,NA,NA,NA,NA,NA,NA,NA,NA,NA,NA,NA,NA
157fc,Save data screen,canvas.Screen,2_7_0_1,NA,NA,timeout,500.10000000001,222938.89999998,222923.746,222940.1,223423.7,223424.89999998,2024-05-27T08:01:04Z,223440.2,Übersicht,kilindo,d,mgusano,chipukizi,kulinganisha,NA,NA,1,"c(""distractor1"", ""distractor2"", ""distractor3"")",NA,NA,NA,NA,NA,NA,NA,NA,NA,NA,NA,NA,NA,NA,NA,NA,NA,NA,NA
157fc,shallow,flow.Sequence,2_7_0,NA,NA,completion,6316.6,217091,217090.1,217107.1,223423.7,223425.10000002,2024-05-27T08:01:04Z,223440.2,Übersicht,kilindo,d,mgusano,chipukizi,kulinganisha,NA,NA,NA,"c(""distractor1"", ""distractor2"", ""distractor3"")",NA,NA,NA,NA,NA,NA,NA,NA,NA,NA,NA,NA,NA,NA,NA,NA,NA,NA,NA
157fc,task,flow.Sequence,2_7,NA,NA,completion,6316.6,217091,217090.1,217107.1,223423.7,223425.10000002,2024-05-27T08:01:04Z,223440.2,Übersicht,kilindo,d,mgusano,chipukizi,kulinganisha,NA,NA,NA,"c(""distractor1"", ""distractor2"", ""distractor3"")",NA,NA,NA,NA,NA,NA,NA,NA,NA,NA,NA,NA,NA,NA,NA,NA,NA,NA,NA
157fc,Shallow Question,html.Page,2_8_0_0,NA,NA,form submission,6352.8,223425.10000002,223423.7,223440.2,229793,229793.10000002,2024-05-27T08:01:11Z,229806.9,Prüfung,mtihani,s,mkulima,mtizamo,ufumbuzi,mtihani,NA,NA,"c(""distractor1"", ""distractor2"", ""distractor3"")",NA,NA,NA,NA,NA,NA,NA,NA,NA,NA,NA,NA,NA,NA,NA,NA,NA,NA,NA
157fc,Save data screen,canvas.Screen,2_8_0_1,NA,NA,timeout,500.10000000001,229794,229790.294,229806.9,230290.4,230291.19999999,2024-05-27T08:01:11Z,230307,Prüfung,mtihani,s,mkulima,mtizamo,ufumbuzi,NA,NA,1,"c(""distractor1"", ""distractor2"", ""distractor3"")",NA,NA,NA,NA,NA,NA,NA,NA,NA,NA,NA,NA,NA,NA,NA,NA,NA,NA,NA
157fc,shallow,flow.Sequence,2_8_0,NA,NA,completion,6850.2,223425.10000002,223423.7,223440.2,230290.4,230291.30000001,2024-05-27T08:01:11Z,230307,Prüfung,mtihani,s,mkulima,mtizamo,ufumbuzi,NA,NA,NA,"c(""distractor1"", ""distractor2"", ""distractor3"")",NA,NA,NA,NA,NA,NA,NA,NA,NA,NA,NA,NA,NA,NA,NA,NA,NA,NA,NA
157fc,task,flow.Sequence,2_8,NA,NA,completion,6850.2,223425.10000002,223423.7,223440.2,230290.4,230291.30000001,2024-05-27T08:01:11Z,230307,Prüfung,mtihani,s,mkulima,mtizamo,ufumbuzi,NA,NA,NA,"c(""distractor1"", ""distractor2"", ""distractor3"")",NA,NA,NA,NA,NA,NA,NA,NA,NA,NA,NA,NA,NA,NA,NA,NA,NA,NA,NA
157fc,Shallow Question,html.Page,2_9_0_0,NA,NA,form submission,5689.6999999881,230291.39999998,230290.4,230307,235996.69999999,235996.80000001,2024-05-27T08:01:17Z,236006.8,Angreifer,mshambulizi,s,kitengo,tasinia,usafirishaji,mshambulizi,NA,NA,"c(""distractor1"", ""distractor2"", ""distractor3"")",NA,NA,NA,NA,NA,NA,NA,NA,NA,NA,NA,NA,NA,NA,NA,NA,NA,NA,NA
157fc,Save data screen,canvas.Screen,2_9_0_1,NA,NA,timeout,500.20000000001,235997.60000002,235990.362,236006.8,236490.2,236490.80000001,2024-05-27T08:01:17Z,236507,Angreifer,mshambulizi,s,kitengo,tasinia,usafirishaji,NA,NA,1,"c(""distractor1"", ""distractor2"", ""distractor3"")",NA,NA,NA,NA,NA,NA,NA,NA,NA,NA,NA,NA,NA,NA,NA,NA,NA,NA,NA
157fc,shallow,flow.Sequence,2_9_0,NA,NA,completion,6183.2,230291.39999998,230290.4,230307,236490.2,236490.89999998,2024-05-27T08:01:17Z,236507,Angreifer,mshambulizi,s,kitengo,tasinia,usafirishaji,NA,NA,NA,"c(""distractor1"", ""distractor2"", ""distractor3"")",NA,NA,NA,NA,NA,NA,NA,NA,NA,NA,NA,NA,NA,NA,NA,NA,NA,NA,NA
157fc,task,flow.Sequence,2_9,NA,NA,completion,6183.2,230291.39999998,230290.4,230307,236490.2,236491,2024-05-27T08:01:17Z,236507,Angreifer,mshambulizi,s,kitengo,tasinia,usafirishaji,NA,NA,NA,"c(""distractor1"", ""distractor2"", ""distractor3"")",NA,NA,NA,NA,NA,NA,NA,NA,NA,NA,NA,NA,NA,NA,NA,NA,NA,NA,NA
157fc,Shallow Question,html.Page,2_10_0_0,NA,NA,form submission,7571.6000000238,236491.10000002,236490.2,236507,244078.60000002,244078.80000001,2024-05-27T08:01:25Z,244090.5,Sänger,mwimbaji,s,msichana,shughuli,mshirika,msichana,NA,NA,"c(""distractor1"", ""distractor2"", ""distractor3"")",NA,NA,NA,NA,NA,NA,NA,NA,NA,NA,NA,NA,NA,NA,NA,NA,NA,NA,NA
157fc,Save data screen,canvas.Screen,2_10_0_1,NA,NA,timeout,499.79999999999,244079.69999999,244073.826,244090.5,244573.5,244574.19999999,2024-05-27T08:01:25Z,244590.3,Sänger,mwimbaji,s,msichana,shughuli,mshirika,NA,NA,0,"c(""distractor1"", ""distractor2"", ""distractor3"")",NA,NA,NA,NA,NA,NA,NA,NA,NA,NA,NA,NA,NA,NA,NA,NA,NA,NA,NA
157fc,shallow,flow.Sequence,2_10_0,NA,NA,completion,8066.5,236491.10000002,236490.2,236507,244573.5,244574.30000001,2024-05-27T08:01:25Z,244590.3,Sänger,mwimbaji,s,msichana,shughuli,mshirika,NA,NA,NA,"c(""distractor1"", ""distractor2"", ""distractor3"")",NA,NA,NA,NA,NA,NA,NA,NA,NA,NA,NA,NA,NA,NA,NA,NA,NA,NA,NA
157fc,task,flow.Sequence,2_10,NA,NA,completion,8066.5,236491,236490.2,236507,244573.5,244574.30000001,2024-05-27T08:01:25Z,244590.3,Sänger,mwimbaji,s,msichana,shughuli,mshirika,NA,NA,NA,"c(""distractor1"", ""distractor2"", ""distractor3"")",NA,NA,NA,NA,NA,NA,NA,NA,NA,NA,NA,NA,NA,NA,NA,NA,NA,NA,NA
157fc,Shallow Question,html.Page,2_11_0_0,NA,NA,form submission,3652.3000000239,244574.30000001,244573.5,244590.3,248242.60000002,248242.60000002,2024-05-27T08:01:29Z,248257.1,System,maongozi,s,chokochoko,nuksani,mitaani,maongozi,NA,NA,"c(""distractor1"", ""distractor2"", ""distractor3"")",NA,NA,NA,NA,NA,NA,NA,NA,NA,NA,NA,NA,NA,NA,NA,NA,NA,NA,NA
157fc,Save data screen,canvas.Screen,2_11_0_1,NA,NA,timeout,499.89999999999,248243.60000002,248240.468,248257.1,248740.2,248740.89999998,2024-05-27T08:01:30Z,248757,System,maongozi,s,chokochoko,nuksani,mitaani,NA,NA,1,"c(""distractor1"", ""distractor2"", ""distractor3"")",NA,NA,NA,NA,NA,NA,NA,NA,NA,NA,NA,NA,NA,NA,NA,NA,NA,NA,NA
157fc,shallow,flow.Sequence,2_11_0,NA,NA,completion,4149.9,244574.30000001,244573.5,244590.3,248740.2,248740.89999998,2024-05-27T08:01:30Z,248757,System,maongozi,s,chokochoko,nuksani,mitaani,NA,NA,NA,"c(""distractor1"", ""distractor2"", ""distractor3"")",NA,NA,NA,NA,NA,NA,NA,NA,NA,NA,NA,NA,NA,NA,NA,NA,NA,NA,NA
157fc,task,flow.Sequence,2_11,NA,NA,completion,4149.9,244574.30000001,244573.5,244590.3,248740.2,248740.89999998,2024-05-27T08:01:30Z,248757,System,maongozi,s,chokochoko,nuksani,mitaani,NA,NA,NA,"c(""distractor1"", ""distractor2"", ""distractor3"")",NA,NA,NA,NA,NA,NA,NA,NA,NA,NA,NA,NA,NA,NA,NA,NA,NA,NA,NA
157fc,Shallow Question,html.Page,2_12_0_0,NA,NA,form submission,16443.600000024,248741,248740.2,248757,265200.60000002,265200.69999999,2024-05-27T08:01:46Z,265223.7,Gefährdung,kuhatarisha,d,uchokozi,udhaifu,makorowezo,udhaifu,NA,NA,"c(""distractor1"", ""distractor2"", ""distractor3"")",NA,NA,NA,NA,NA,NA,NA,NA,NA,NA,NA,NA,NA,NA,NA,NA,NA,NA,NA
157fc,Save data screen,canvas.Screen,2_12_0_1,NA,NA,timeout,499.89999999997,265201.5,265207.026,265223.7,265707,265707.69999999,2024-05-27T08:01:47Z,265723.6,Gefährdung,kuhatarisha,d,uchokozi,udhaifu,makorowezo,NA,NA,0,"c(""distractor1"", ""distractor2"", ""distractor3"")",NA,NA,NA,NA,NA,NA,NA,NA,NA,NA,NA,NA,NA,NA,NA,NA,NA,NA,NA
157fc,shallow,flow.Sequence,2_12_0,NA,NA,completion,16950,248741,248740.2,248757,265707,265707.69999999,2024-05-27T08:01:47Z,265723.6,Gefährdung,kuhatarisha,d,uchokozi,udhaifu,makorowezo,NA,NA,NA,"c(""distractor1"", ""distractor2"", ""distractor3"")",NA,NA,NA,NA,NA,NA,NA,NA,NA,NA,NA,NA,NA,NA,NA,NA,NA,NA,NA
157fc,task,flow.Sequence,2_12,NA,NA,completion,16950,248741,248740.2,248757,265707,265707.80000001,2024-05-27T08:01:47Z,265723.6,Gefährdung,kuhatarisha,d,uchokozi,udhaifu,makorowezo,NA,NA,NA,"c(""distractor1"", ""distractor2"", ""distractor3"")",NA,NA,NA,NA,NA,NA,NA,NA,NA,NA,NA,NA,NA,NA,NA,NA,NA,NA,NA
157fc,Shallow Question,html.Page,2_13_0_0,NA,NA,form submission,5052.5999999881,265707.80000001,265707,265723.6,270776.19999999,270776.39999998,2024-05-27T08:01:52Z,270790.3,Abrechnung,uhasibu,d,kusahihisha,mpambano,mashambulizi,mashambulizi,NA,NA,"c(""distractor1"", ""distractor2"", ""distractor3"")",NA,NA,NA,NA,NA,NA,NA,NA,NA,NA,NA,NA,NA,NA,NA,NA,NA,NA,NA
157fc,Save data screen,canvas.Screen,2_13_0_1,NA,NA,timeout,500,270777.39999998,270773.65,270790.3,271273.5,271274.80000001,2024-05-27T08:01:52Z,271290.3,Abrechnung,uhasibu,d,kusahihisha,mpambano,mashambulizi,NA,NA,0,"c(""distractor1"", ""distractor2"", ""distractor3"")",NA,NA,NA,NA,NA,NA,NA,NA,NA,NA,NA,NA,NA,NA,NA,NA,NA,NA,NA
157fc,shallow,flow.Sequence,2_13_0,NA,NA,completion,5549.9,265707.80000001,265707,265723.6,271273.5,271274.80000001,2024-05-27T08:01:52Z,271290.3,Abrechnung,uhasibu,d,kusahihisha,mpambano,mashambulizi,NA,NA,NA,"c(""distractor1"", ""distractor2"", ""distractor3"")",NA,NA,NA,NA,NA,NA,NA,NA,NA,NA,NA,NA,NA,NA,NA,NA,NA,NA,NA
157fc,task,flow.Sequence,2_13,NA,NA,completion,5549.9,265707.80000001,265707,265723.6,271273.5,271274.89999998,2024-05-27T08:01:52Z,271290.3,Abrechnung,uhasibu,d,kusahihisha,mpambano,mashambulizi,NA,NA,NA,"c(""distractor1"", ""distractor2"", ""distractor3"")",NA,NA,NA,NA,NA,NA,NA,NA,NA,NA,NA,NA,NA,NA,NA,NA,NA,NA,NA
157fc,Shallow Question,html.Page,2_14_0_0,NA,NA,form submission,4652.7,271274.89999998,271273.5,271290.3,275943,275943.10000002,2024-05-27T08:01:57Z,275957,Verzögerung,kuchelewa,d,mwakilishi,mwanauchumi,jaribio,kuchelewa,NA,NA,"c(""distractor1"", ""distractor2"", ""distractor3"")",NA,NA,NA,NA,NA,NA,NA,NA,NA,NA,NA,NA,NA,NA,NA,NA,NA,NA,NA
157fc,Save data screen,canvas.Screen,2_14_0_1,NA,NA,timeout,500.09999999998,275944.10000002,275940.482,275957,276440.3,276441.10000002,2024-05-27T08:01:57Z,276457.1,Verzögerung,kuchelewa,d,mwakilishi,mwanauchumi,jaribio,NA,NA,1,"c(""distractor1"", ""distractor2"", ""distractor3"")",NA,NA,NA,NA,NA,NA,NA,NA,NA,NA,NA,NA,NA,NA,NA,NA,NA,NA,NA
157fc,shallow,flow.Sequence,2_14_0,NA,NA,completion,5150,271274.89999998,271273.5,271290.3,276440.3,276441.19999999,2024-05-27T08:01:57Z,276457.1,Verzögerung,kuchelewa,d,mwakilishi,mwanauchumi,jaribio,NA,NA,NA,"c(""distractor1"", ""distractor2"", ""distractor3"")",NA,NA,NA,NA,NA,NA,NA,NA,NA,NA,NA,NA,NA,NA,NA,NA,NA,NA,NA
157fc,task,flow.Sequence,2_14,NA,NA,completion,5150,271274.89999998,271273.5,271290.3,276440.3,276441.19999999,2024-05-27T08:01:57Z,276457.1,Verzögerung,kuchelewa,d,mwakilishi,mwanauchumi,jaribio,NA,NA,NA,"c(""distractor1"", ""distractor2"", ""distractor3"")",NA,NA,NA,NA,NA,NA,NA,NA,NA,NA,NA,NA,NA,NA,NA,NA,NA,NA,NA
157fc,Shallow Question,html.Page,2_15_0_0,NA,NA,form submission,3726.5999999881,276441.19999999,276440.3,276457.1,280183.69999999,280183.69999999,2024-05-27T08:02:01Z,280190.5,Aufstand,ugomaji,s,mazidio,msingi,kujieleza,ugomaji,NA,NA,"c(""distractor1"", ""distractor2"", ""distractor3"")",NA,NA,NA,NA,NA,NA,NA,NA,NA,NA,NA,NA,NA,NA,NA,NA,NA,NA,NA
157fc,Save data screen,canvas.Screen,2_15_0_1,NA,NA,timeout,499.59999999998,280184.80000001,280173.764,280190.5,280673.6,280674.30000001,2024-05-27T08:02:02Z,280690.1,Aufstand,ugomaji,s,mazidio,msingi,kujieleza,NA,NA,1,"c(""distractor1"", ""distractor2"", ""distractor3"")",NA,NA,NA,NA,NA,NA,NA,NA,NA,NA,NA,NA,NA,NA,NA,NA,NA,NA,NA
157fc,shallow,flow.Sequence,2_15_0,NA,NA,completion,4216.5,276441.19999999,276440.3,276457.1,280673.6,280674.39999998,2024-05-27T08:02:02Z,280690.1,Aufstand,ugomaji,s,mazidio,msingi,kujieleza,NA,NA,NA,"c(""distractor1"", ""distractor2"", ""distractor3"")",NA,NA,NA,NA,NA,NA,NA,NA,NA,NA,NA,NA,NA,NA,NA,NA,NA,NA,NA
157fc,task,flow.Sequence,2_15,NA,NA,completion,4216.5,276441.19999999,276440.3,276457.1,280673.6,280674.39999998,2024-05-27T08:02:02Z,280690.1,Aufstand,ugomaji,s,mazidio,msingi,kujieleza,NA,NA,NA,"c(""distractor1"", ""distractor2"", ""distractor3"")",NA,NA,NA,NA,NA,NA,NA,NA,NA,NA,NA,NA,NA,NA,NA,NA,NA,NA,NA
157fc,retrieval block 2 (multiple choice),flow.Loop,2,NA,NA,completion,98116.6,182541.19999999,182540.3,182557,280673.6,280674.39999998,2024-05-27T08:02:02Z,280690.1,NA,NA,NA,NA,NA,NA,NA,NA,NA,"c(""distractor1"", ""distractor2"", ""distractor3"")",NA,NA,NA,NA,NA,NA,NA,NA,NA,NA,NA,NA,NA,NA,NA,NA,NA,NA,NA
157fc,End,canvas.Screen,3,NA,keypress(Space),response,1648.2000000119,280674.5,280673.6,280690.1,282338.30000001,282339,2024-05-27T08:02:03Z,282340,NA,NA,NA,NA,NA,NA,NA,NA,NA,NULL,NA,NA,NA,NA,NA,NA,NA,NA,NA,NA,NA,NA,NA,NA,NA,NA,NA,NA,NA
157fc,root,flow.Sequence,NA,NA,NA,completion,280414.88800001,1924.8999999762,1923.412,1923.412,282338.30000001,282339.19999999,2024-05-27T08:02:03Z,282340,NA,NA,NA,NA,NA,NA,NA,NA,NA,NULL,NA,NA,NA,NA,NA,NA,NA,NA,NA,NA,NA,NA,NA,NA,NA,NA,NA,NA,NA
