observation,sender,sender_type,sender_id,response,response_action,ended_on,duration,time_run,time_render,time_show,time_end,time_commit,timestamp,time_switch,distractors,german,swahili,enc,distractor1,distractor2,distractor3,response_2,x,correct,x_2,url_vp,url_sess,meta_labjs_version,meta_location,meta_user_agent,meta_platform,meta_language,meta_locale,meta_time_zone,meta_timezone_offset,meta_screen_width,meta_screen_height,meta_scroll_width,meta_scroll_height,meta_window_inner_width,meta_window_inner_height,meta_device_pixel_ratio,meta_labjs_build_flavor,meta_labjs_build_commit
d2628,Introduction general,canvas.Screen,0,weiter,keypress(q),response,40107.089999988,1210.3999999762,1194.632,1244.61,41351.699999988,41355.199999988,2023-11-04T08:38:46Z,41361.641,NULL,NA,NA,NA,NA,NA,NA,NA,NA,NA,NA,147,3,20.2.4,https://neurocog.fernuni.ch/studies/vweber/jbaenninger/encoding_immediate/index.html?vp=147&sess=3,"Mozilla/5.0 (Windows NT 10.0; Win64; x64) AppleWebKit/537.36 (KHTML, like Gecko) Chrome/118.0.0.0 Safari/537.36 Edg/118.0.2088.76",Win32,de,de-CH,Europe/Zurich,-60,1280,720,1232,572,1232,572,1.5,production,f5b4a49f956347addd546a832a3327688c2c0fef
d2628,Introduction practice,canvas.Screen,1_0,NA,keypress(Space),response,6538.2589999762,41355.599999964,41344.547,41361.641,47899.899999976,47900.399999976,2023-11-04T08:38:53Z,47906.24,NULL,NA,NA,NA,NA,NA,NA,NA,NA,NA,NA,NA,NA,NA,NA,NA,NA,NA,NA,NA,NA,NA,NA,NA,NA,NA,NA,NA,NA,NA
d2628,Deep Question,html.Page,1_1_0_0_0,NA,NA,form submission,11133.359999964,47900.599999964,47889.694,47906.24,59039.599999964,59040,2023-11-04T08:39:04Z,59063.707,"c(""distractor1"", ""distractor2"", ""distractor3"")",Qualität,mtindo,d,NA,NA,NA,negoni,NA,NA,NA,NA,NA,NA,NA,NA,NA,NA,NA,NA,NA,NA,NA,NA,NA,NA,NA,NA,NA,NA
d2628,"""Richtig""-Screen",canvas.Screen,1_1_0_0_1,NA,NA,skipped,NA,59049.800000012,NA,NA,59039.599999964,59050.300000012,2023-11-04T08:39:04Z,59063.707,"c(""distractor1"", ""distractor2"", ""distractor3"")",Qualität,mtindo,d,NA,NA,NA,NA,NA,NA,NA,NA,NA,NA,NA,NA,NA,NA,NA,NA,NA,NA,NA,NA,NA,NA,NA,NA,NA,NA
d2628,"""Falsch""-Screen",canvas.Screen,1_1_0_0_2,NA,NA,timeout,4996.031,59051.399999976,59030.612,59063.707,64043.246,64045.5,2023-11-04T08:39:09Z,64059.738,"c(""distractor1"", ""distractor2"", ""distractor3"")",Qualität,mtindo,d,NA,NA,NA,NA,NA,0,NA,NA,NA,NA,NA,NA,NA,NA,NA,NA,NA,NA,NA,NA,NA,NA,NA,NA,NA,NA
d2628,deep,flow.Sequence,1_1_0_0,NA,NA,completion,16137.006,47900.599999964,47889.694,47906.24,64043.246,64045.800000012,2023-11-04T08:39:09Z,64059.738,"c(""distractor1"", ""distractor2"", ""distractor3"")",Qualität,mtindo,d,NA,NA,NA,NA,NA,NA,NA,NA,NA,NA,NA,NA,NA,NA,NA,NA,NA,NA,NA,NA,NA,NA,NA,NA,NA,NA
d2628,shallow,flow.Sequence,1_1_0_1,NA,NA,skipped,NA,64045.800000012,NA,NA,64043.246,64045.899999976,2023-11-04T08:39:09Z,64059.738,"c(""distractor1"", ""distractor2"", ""distractor3"")",Qualität,mtindo,d,NA,NA,NA,NA,NA,NA,NA,NA,NA,NA,NA,NA,NA,NA,NA,NA,NA,NA,NA,NA,NA,NA,NA,NA,NA,NA
d2628,task,flow.Sequence,1_1_0,NA,NA,completion,16137.006,47900.599999964,47889.694,47906.24,64043.246,64046,2023-11-04T08:39:09Z,64059.738,"c(""distractor1"", ""distractor2"", ""distractor3"")",Qualität,mtindo,d,NA,NA,NA,NA,NA,NA,NA,NA,NA,NA,NA,NA,NA,NA,NA,NA,NA,NA,NA,NA,NA,NA,NA,NA,NA,NA
d2628,deep,flow.Sequence,1_1_1_0,NA,NA,skipped,NA,64046.199999988,NA,NA,64043.246,64046.300000012,2023-11-04T08:39:09Z,64059.738,"c(""distractor1"", ""distractor2"", ""distractor3"")",Rückhalt,msaada,s,muhula,auwali,kiwimbe,NA,NA,NA,NA,NA,NA,NA,NA,NA,NA,NA,NA,NA,NA,NA,NA,NA,NA,NA,NA,NA,NA,NA
d2628,Shallow Question,html.Page,1_1_1_1_0,NA,NA,form submission,6086.262,64046.399999976,64043.246,64059.738,70146,70146.300000012,2023-11-04T08:39:15Z,70154.573,"c(""distractor1"", ""distractor2"", ""distractor3"")",Rückhalt,msaada,s,muhula,auwali,kiwimbe,muhula,NA,NA,NA,NA,NA,NA,NA,NA,NA,NA,NA,NA,NA,NA,NA,NA,NA,NA,NA,NA,NA,NA
d2628,"""Richtig""-Screen",canvas.Screen,1_1_1_1_1,NA,NA,skipped,NA,70148.800000012,NA,NA,70146,70149.099999964,2023-11-04T08:39:15Z,70154.573,"c(""distractor1"", ""distractor2"", ""distractor3"")",Rückhalt,msaada,s,muhula,auwali,kiwimbe,NA,NA,NA,NA,NA,NA,NA,NA,NA,NA,NA,NA,NA,NA,NA,NA,NA,NA,NA,NA,NA,NA,NA
d2628,"""Falsch""-Screen",canvas.Screen,1_1_1_1_2,NA,NA,timeout,4995.983,70150.099999964,70138.127,70154.573,75134.138,75135.300000012,2023-11-04T08:39:20Z,75150.556,"c(""distractor1"", ""distractor2"", ""distractor3"")",Rückhalt,msaada,s,muhula,auwali,kiwimbe,NA,NA,0,NA,NA,NA,NA,NA,NA,NA,NA,NA,NA,NA,NA,NA,NA,NA,NA,NA,NA,NA,NA
d2628,shallow,flow.Sequence,1_1_1_1,NA,NA,completion,11074.4,64046.300000012,64043.246,64059.738,75134.138,75135.899999976,2023-11-04T08:39:20Z,75150.556,"c(""distractor1"", ""distractor2"", ""distractor3"")",Rückhalt,msaada,s,muhula,auwali,kiwimbe,NA,NA,NA,NA,NA,NA,NA,NA,NA,NA,NA,NA,NA,NA,NA,NA,NA,NA,NA,NA,NA,NA,NA
d2628,task,flow.Sequence,1_1_1,NA,NA,completion,11074.4,64046.199999988,64043.246,64059.738,75134.138,75136.300000012,2023-11-04T08:39:20Z,75150.556,"c(""distractor1"", ""distractor2"", ""distractor3"")",Rückhalt,msaada,s,muhula,auwali,kiwimbe,NA,NA,NA,NA,NA,NA,NA,NA,NA,NA,NA,NA,NA,NA,NA,NA,NA,NA,NA,NA,NA,NA,NA
d2628,Deep Question,html.Page,1_1_2_0_0,NA,NA,form submission,11549.244000012,75136.599999964,75134.138,75150.556,86699.800000012,86700.099999964,2023-11-04T08:39:32Z,86707.637,"c(""distractor1"", ""distractor2"", ""distractor3"")",Gesundheit,salama,d,NA,NA,NA,welembi,NA,NA,NA,NA,NA,NA,NA,NA,NA,NA,NA,NA,NA,NA,NA,NA,NA,NA,NA,NA,NA,NA
d2628,"""Richtig""-Screen",canvas.Screen,1_1_2_0_1,NA,NA,skipped,NA,86703.399999976,NA,NA,86699.800000012,86703.699999988,2023-11-04T08:39:32Z,86707.637,"c(""distractor1"", ""distractor2"", ""distractor3"")",Gesundheit,salama,d,NA,NA,NA,NA,NA,NA,NA,NA,NA,NA,NA,NA,NA,NA,NA,NA,NA,NA,NA,NA,NA,NA,NA,NA,NA,NA
d2628,"""Falsch""-Screen",canvas.Screen,1_1_2_0_2,NA,NA,timeout,4995.999,86705.199999988,86691.314,86707.637,91687.194,91688.300000012,2023-11-04T08:39:37Z,91703.636,"c(""distractor1"", ""distractor2"", ""distractor3"")",Gesundheit,salama,d,NA,NA,NA,NA,NA,0,NA,NA,NA,NA,NA,NA,NA,NA,NA,NA,NA,NA,NA,NA,NA,NA,NA,NA,NA,NA
d2628,deep,flow.Sequence,1_1_2_0,NA,NA,completion,16536.638,75136.599999964,75134.138,75150.556,91687.194,91688.800000012,2023-11-04T08:39:37Z,91703.636,"c(""distractor1"", ""distractor2"", ""distractor3"")",Gesundheit,salama,d,NA,NA,NA,NA,NA,NA,NA,NA,NA,NA,NA,NA,NA,NA,NA,NA,NA,NA,NA,NA,NA,NA,NA,NA,NA,NA
d2628,shallow,flow.Sequence,1_1_2_1,NA,NA,skipped,NA,91688.899999976,NA,NA,91687.194,91689.099999964,2023-11-04T08:39:37Z,91703.636,"c(""distractor1"", ""distractor2"", ""distractor3"")",Gesundheit,salama,d,NA,NA,NA,NA,NA,NA,NA,NA,NA,NA,NA,NA,NA,NA,NA,NA,NA,NA,NA,NA,NA,NA,NA,NA,NA,NA
d2628,task,flow.Sequence,1_1_2,NA,NA,completion,16536.638,75136.5,75134.138,75150.556,91687.194,91689.399999976,2023-11-04T08:39:37Z,91703.636,"c(""distractor1"", ""distractor2"", ""distractor3"")",Gesundheit,salama,d,NA,NA,NA,NA,NA,NA,NA,NA,NA,NA,NA,NA,NA,NA,NA,NA,NA,NA,NA,NA,NA,NA,NA,NA,NA,NA
d2628,Deep Question,html.Page,1_1_3_0_0,NA,NA,form submission,9058.0639999881,91689.599999964,91687.194,91703.636,100761.69999999,100762,2023-11-04T08:39:46Z,100762.735,"c(""distractor1"", ""distractor2"", ""distractor3"")",Schatten,kivuli,d,NA,NA,NA,fahedi,NA,NA,NA,NA,NA,NA,NA,NA,NA,NA,NA,NA,NA,NA,NA,NA,NA,NA,NA,NA,NA,NA
d2628,"""Richtig""-Screen",canvas.Screen,1_1_3_0_1,NA,NA,skipped,NA,100766.19999999,NA,NA,100761.69999999,100766.39999998,2023-11-04T08:39:46Z,100762.735,"c(""distractor1"", ""distractor2"", ""distractor3"")",Schatten,kivuli,d,NA,NA,NA,NA,NA,NA,NA,NA,NA,NA,NA,NA,NA,NA,NA,NA,NA,NA,NA,NA,NA,NA,NA,NA,NA,NA
d2628,"""Falsch""-Screen",canvas.Screen,1_1_3_0_2,NA,NA,timeout,4995.951,100767.80000001,100746.324,100762.735,105742.278,105743.39999998,2023-11-04T08:39:51Z,105758.686,"c(""distractor1"", ""distractor2"", ""distractor3"")",Schatten,kivuli,d,NA,NA,NA,NA,NA,0,NA,NA,NA,NA,NA,NA,NA,NA,NA,NA,NA,NA,NA,NA,NA,NA,NA,NA,NA,NA
d2628,deep,flow.Sequence,1_1_3_0,NA,NA,completion,14038.642,91689.599999964,91687.194,91703.636,105742.278,105743.80000001,2023-11-04T08:39:51Z,105758.686,"c(""distractor1"", ""distractor2"", ""distractor3"")",Schatten,kivuli,d,NA,NA,NA,NA,NA,NA,NA,NA,NA,NA,NA,NA,NA,NA,NA,NA,NA,NA,NA,NA,NA,NA,NA,NA,NA,NA
d2628,shallow,flow.Sequence,1_1_3_1,NA,NA,skipped,NA,105744,NA,NA,105742.278,105744.19999999,2023-11-04T08:39:51Z,105758.686,"c(""distractor1"", ""distractor2"", ""distractor3"")",Schatten,kivuli,d,NA,NA,NA,NA,NA,NA,NA,NA,NA,NA,NA,NA,NA,NA,NA,NA,NA,NA,NA,NA,NA,NA,NA,NA,NA,NA
d2628,task,flow.Sequence,1_1_3,NA,NA,completion,14038.642,91689.599999964,91687.194,91703.636,105742.278,105744.39999998,2023-11-04T08:39:51Z,105758.686,"c(""distractor1"", ""distractor2"", ""distractor3"")",Schatten,kivuli,d,NA,NA,NA,NA,NA,NA,NA,NA,NA,NA,NA,NA,NA,NA,NA,NA,NA,NA,NA,NA,NA,NA,NA,NA,NA,NA
d2628,deep,flow.Sequence,1_1_4_0,NA,NA,skipped,NA,105744.69999999,NA,NA,105742.278,105744.80000001,2023-11-04T08:39:51Z,105758.686,"c(""distractor1"", ""distractor2"", ""distractor3"")",Kritik,lawama,s,dereva,nafasi,mawazo,NA,NA,NA,NA,NA,NA,NA,NA,NA,NA,NA,NA,NA,NA,NA,NA,NA,NA,NA,NA,NA,NA,NA
d2628,Shallow Question,html.Page,1_1_4_1_0,NA,NA,form submission,5441.1140000119,105745,105742.278,105758.686,111199.80000001,111200.09999996,2023-11-04T08:39:56Z,111204.172,"c(""distractor1"", ""distractor2"", ""distractor3"")",Kritik,lawama,s,dereva,nafasi,mawazo,lawama,NA,NA,NA,NA,NA,NA,NA,NA,NA,NA,NA,NA,NA,NA,NA,NA,NA,NA,NA,NA,NA,NA
d2628,"""Richtig""-Screen",canvas.Screen,1_1_4_1_1,NA,NA,timeout,4995.916,111203.5,111187.827,111204.172,116183.724,116184.89999998,2023-11-04T08:40:01Z,116200.088,"c(""distractor1"", ""distractor2"", ""distractor3"")",Kritik,lawama,s,dereva,nafasi,mawazo,NA,NA,1,NA,NA,NA,NA,NA,NA,NA,NA,NA,NA,NA,NA,NA,NA,NA,NA,NA,NA,NA,NA
d2628,"""Falsch""-Screen",canvas.Screen,1_1_4_1_2,NA,NA,skipped,NA,116190.59999996,NA,NA,116183.724,116191,2023-11-04T08:40:01Z,116200.088,"c(""distractor1"", ""distractor2"", ""distractor3"")",Kritik,lawama,s,dereva,nafasi,mawazo,NA,NA,NA,NA,NA,NA,NA,NA,NA,NA,NA,NA,NA,NA,NA,NA,NA,NA,NA,NA,NA,NA,NA
d2628,shallow,flow.Sequence,1_1_4_1,NA,NA,completion,10425.038,105744.89999998,105742.278,105758.686,116183.724,116191.39999998,2023-11-04T08:40:01Z,116200.088,"c(""distractor1"", ""distractor2"", ""distractor3"")",Kritik,lawama,s,dereva,nafasi,mawazo,NA,NA,NA,NA,NA,NA,NA,NA,NA,NA,NA,NA,NA,NA,NA,NA,NA,NA,NA,NA,NA,NA,NA
d2628,task,flow.Sequence,1_1_4,NA,NA,completion,10425.038,105744.59999996,105742.278,105758.686,116183.724,116191.59999996,2023-11-04T08:40:01Z,116200.088,"c(""distractor1"", ""distractor2"", ""distractor3"")",Kritik,lawama,s,dereva,nafasi,mawazo,NA,NA,NA,NA,NA,NA,NA,NA,NA,NA,NA,NA,NA,NA,NA,NA,NA,NA,NA,NA,NA,NA,NA
d2628,deep,flow.Sequence,1_1_5_0,NA,NA,skipped,NA,116191.89999998,NA,NA,116183.724,116192,2023-11-04T08:40:01Z,116200.088,"c(""distractor1"", ""distractor2"", ""distractor3"")",Gegenwart,hadhara,s,katiba,jokofu,mikopo,NA,NA,NA,NA,NA,NA,NA,NA,NA,NA,NA,NA,NA,NA,NA,NA,NA,NA,NA,NA,NA,NA,NA
d2628,Shallow Question,html.Page,1_1_5_1_0,NA,NA,form submission,4460.1119999881,116192.19999999,116183.724,116200.088,120660.19999999,120660.5,2023-11-04T08:40:06Z,120663.077,"c(""distractor1"", ""distractor2"", ""distractor3"")",Gegenwart,hadhara,s,katiba,jokofu,mikopo,katiba,NA,NA,NA,NA,NA,NA,NA,NA,NA,NA,NA,NA,NA,NA,NA,NA,NA,NA,NA,NA,NA,NA
d2628,"""Richtig""-Screen",canvas.Screen,1_1_5_1_1,NA,NA,skipped,NA,120662.59999996,NA,NA,120660.19999999,120662.69999999,2023-11-04T08:40:06Z,120663.077,"c(""distractor1"", ""distractor2"", ""distractor3"")",Gegenwart,hadhara,s,katiba,jokofu,mikopo,NA,NA,NA,NA,NA,NA,NA,NA,NA,NA,NA,NA,NA,NA,NA,NA,NA,NA,NA,NA,NA,NA,NA
d2628,"""Falsch""-Screen",canvas.Screen,1_1_5_1_2,NA,NA,timeout,4995.957,120663.89999998,120646.716,120663.077,125642.616,125643.69999999,2023-11-04T08:40:11Z,125659.034,"c(""distractor1"", ""distractor2"", ""distractor3"")",Gegenwart,hadhara,s,katiba,jokofu,mikopo,NA,NA,0,NA,NA,NA,NA,NA,NA,NA,NA,NA,NA,NA,NA,NA,NA,NA,NA,NA,NA,NA,NA
d2628,shallow,flow.Sequence,1_1_5_1,NA,NA,completion,9442.528,116192.09999996,116183.724,116200.088,125642.616,125644.09999996,2023-11-04T08:40:11Z,125659.034,"c(""distractor1"", ""distractor2"", ""distractor3"")",Gegenwart,hadhara,s,katiba,jokofu,mikopo,NA,NA,NA,NA,NA,NA,NA,NA,NA,NA,NA,NA,NA,NA,NA,NA,NA,NA,NA,NA,NA,NA,NA
d2628,task,flow.Sequence,1_1_5,NA,NA,completion,9442.528,116191.80000001,116183.724,116200.088,125642.616,125644.30000001,2023-11-04T08:40:11Z,125659.034,"c(""distractor1"", ""distractor2"", ""distractor3"")",Gegenwart,hadhara,s,katiba,jokofu,mikopo,NA,NA,NA,NA,NA,NA,NA,NA,NA,NA,NA,NA,NA,NA,NA,NA,NA,NA,NA,NA,NA,NA,NA
d2628,block,flow.Loop,1_1,NA,NA,completion,77736.376,47900.599999964,47889.694,47906.24,125642.616,125644.69999999,2023-11-04T08:40:11Z,125659.034,"c(""distractor1"", ""distractor2"", ""distractor3"")",NA,NA,NA,NA,NA,NA,NA,NA,NA,NA,NA,NA,NA,NA,NA,NA,NA,NA,NA,NA,NA,NA,NA,NA,NA,NA,NA,NA,NA
d2628,Practice,flow.Sequence,1,NA,NA,completion,84280.975,41355.599999964,41344.547,41361.641,125642.616,125644.89999998,2023-11-04T08:40:11Z,125659.034,NULL,NA,NA,NA,NA,NA,NA,NA,NA,NA,NA,NA,NA,NA,NA,NA,NA,NA,NA,NA,NA,NA,NA,NA,NA,NA,NA,NA,NA,NA
d2628,Experiment start,canvas.Screen,2,weiter,keypress(q),response,13495.165999988,125645.09999996,125642.616,125659.034,139154.19999999,139155.89999998,2023-11-04T08:40:24Z,139331.047,NULL,NA,NA,NA,NA,NA,NA,NA,NA,NA,NA,NA,NA,NA,NA,NA,NA,NA,NA,NA,NA,NA,NA,NA,NA,NA,NA,NA,NA,NA
d2628,deep,flow.Sequence,3_0_0_0_0_0,NA,NA,skipped,NA,139339.19999999,NA,NA,139154.19999999,139339.19999999,2023-11-04T08:40:24Z,139331.047,NULL,Lawine,banguko,s,maambukizi,usuluhishi,chekechea,NA,sdf,NA,0,NA,NA,NA,NA,NA,NA,NA,NA,NA,NA,NA,NA,NA,NA,NA,NA,NA,NA,NA
d2628,Shallow Question,html.Page,3_0_0_0_0_1_0,NA,NA,form submission,10054.652999988,139339.30000001,139147.629,139331.047,149385.69999999,149386,2023-11-04T08:40:34Z,149389.443,NULL,Lawine,banguko,s,maambukizi,usuluhishi,chekechea,chekechea,NA,NA,0,NA,NA,NA,NA,NA,NA,NA,NA,NA,NA,NA,NA,NA,NA,NA,NA,NA,NA,NA
d2628,"""Richtig""-Screen",canvas.Screen,3_0_0_0_0_1_1,NA,NA,skipped,NA,149388.30000001,NA,NA,149385.69999999,149388.5,2023-11-04T08:40:34Z,149389.443,NULL,Lawine,banguko,s,maambukizi,usuluhishi,chekechea,NA,sdf,NA,0,NA,NA,NA,NA,NA,NA,NA,NA,NA,NA,NA,NA,NA,NA,NA,NA,NA,NA,NA
d2628,"""Falsch""-Screen",canvas.Screen,3_0_0_0_0_1_2,NA,NA,timeout,4995.946,149389.39999998,149373.056,149389.443,154368.996,154370,2023-11-04T08:40:39Z,154385.389,NULL,Lawine,banguko,s,maambukizi,usuluhishi,chekechea,NA,sdf,0,0,NA,NA,NA,NA,NA,NA,NA,NA,NA,NA,NA,NA,NA,NA,NA,NA,NA,NA,NA
d2628,shallow,flow.Sequence,3_0_0_0_0_1,NA,NA,completion,15037.949,139339.30000001,139147.629,139331.047,154368.996,154370.30000001,2023-11-04T08:40:39Z,154385.389,NULL,Lawine,banguko,s,maambukizi,usuluhishi,chekechea,NA,sdf,NA,0,NA,NA,NA,NA,NA,NA,NA,NA,NA,NA,NA,NA,NA,NA,NA,NA,NA,NA,NA
d2628,task,flow.Sequence,3_0_0_0_0,NA,NA,completion,15037.949,139339.09999996,139147.629,139331.047,154368.996,154370.59999996,2023-11-04T08:40:39Z,154385.389,NULL,Lawine,banguko,s,maambukizi,usuluhishi,chekechea,NA,sdf,NA,0,NA,NA,NA,NA,NA,NA,NA,NA,NA,NA,NA,NA,NA,NA,NA,NA,NA,NA,NA
d2628,deep,flow.Sequence,3_0_0_0_1_0,NA,NA,skipped,NA,154370.80000001,NA,NA,154368.996,154370.89999998,2023-11-04T08:40:39Z,154385.389,NULL,System,maongozi,s,chokochoko,nuksani,mitaani,NA,sdf,NA,0,NA,NA,NA,NA,NA,NA,NA,NA,NA,NA,NA,NA,NA,NA,NA,NA,NA,NA,NA
d2628,Shallow Question,html.Page,3_0_0_0_1_1_0,NA,NA,form submission,5984.4110000119,154371,154368.996,154385.389,160369.80000001,160370,2023-11-04T08:40:45Z,160380.507,NULL,System,maongozi,s,chokochoko,nuksani,mitaani,nuksani,NA,NA,0,NA,NA,NA,NA,NA,NA,NA,NA,NA,NA,NA,NA,NA,NA,NA,NA,NA,NA,NA
d2628,"""Richtig""-Screen",canvas.Screen,3_0_0_0_1_1_1,NA,NA,skipped,NA,160372.19999999,NA,NA,160369.80000001,160372.39999998,2023-11-04T08:40:45Z,160380.507,NULL,System,maongozi,s,chokochoko,nuksani,mitaani,NA,sdf,NA,0,NA,NA,NA,NA,NA,NA,NA,NA,NA,NA,NA,NA,NA,NA,NA,NA,NA,NA,NA
d2628,"""Falsch""-Screen",canvas.Screen,3_0_0_0_1_1_2,NA,NA,timeout,4995.914,160373.09999996,160364.102,160380.507,165359.954,165361.19999999,2023-11-04T08:40:50Z,165376.421,NULL,System,maongozi,s,chokochoko,nuksani,mitaani,NA,sdf,0,0,NA,NA,NA,NA,NA,NA,NA,NA,NA,NA,NA,NA,NA,NA,NA,NA,NA,NA,NA
d2628,shallow,flow.Sequence,3_0_0_0_1_1,NA,NA,completion,10974.565,154371,154368.996,154385.389,165359.954,165361.5,2023-11-04T08:40:50Z,165376.421,NULL,System,maongozi,s,chokochoko,nuksani,mitaani,NA,sdf,NA,0,NA,NA,NA,NA,NA,NA,NA,NA,NA,NA,NA,NA,NA,NA,NA,NA,NA,NA,NA
d2628,task,flow.Sequence,3_0_0_0_1,NA,NA,completion,10974.565,154370.69999999,154368.996,154385.389,165359.954,165361.59999996,2023-11-04T08:40:50Z,165376.421,NULL,System,maongozi,s,chokochoko,nuksani,mitaani,NA,sdf,NA,0,NA,NA,NA,NA,NA,NA,NA,NA,NA,NA,NA,NA,NA,NA,NA,NA,NA,NA,NA
d2628,Deep Question,html.Page,3_0_0_0_2_0_0,NA,NA,form submission,14399.478999976,165361.80000001,165359.954,165376.421,179775.89999998,179776.19999999,2023-11-04T08:41:05Z,179781.148,NULL,Entwicklung,maendeleo,d,NA,NA,NA,nihembo,NA,NA,0,NA,NA,NA,NA,NA,NA,NA,NA,NA,NA,NA,NA,NA,NA,NA,NA,NA,NA,NA
d2628,"""Richtig""-Screen",canvas.Screen,3_0_0_0_2_0_1,NA,NA,skipped,NA,179778.80000001,NA,NA,179775.89999998,179779,2023-11-04T08:41:05Z,179781.148,NULL,Entwicklung,maendeleo,d,NA,NA,NA,NA,sdf,NA,0,NA,NA,NA,NA,NA,NA,NA,NA,NA,NA,NA,NA,NA,NA,NA,NA,NA,NA,NA
d2628,"""Falsch""-Screen",canvas.Screen,3_0_0_0_2_0_2,NA,NA,timeout,4995.992,179779.80000001,179764.8,179781.148,184760.674,184761.89999998,2023-11-04T08:41:10Z,184777.14,NULL,Entwicklung,maendeleo,d,NA,NA,NA,NA,sdf,0,0,NA,NA,NA,NA,NA,NA,NA,NA,NA,NA,NA,NA,NA,NA,NA,NA,NA,NA,NA
d2628,deep,flow.Sequence,3_0_0_0_2_0,NA,NA,completion,19384.253,165361.80000001,165359.954,165376.421,184760.674,184762.30000001,2023-11-04T08:41:10Z,184777.14,NULL,Entwicklung,maendeleo,d,NA,NA,NA,NA,sdf,NA,0,NA,NA,NA,NA,NA,NA,NA,NA,NA,NA,NA,NA,NA,NA,NA,NA,NA,NA,NA
d2628,shallow,flow.Sequence,3_0_0_0_2_1,NA,NA,skipped,NA,184762.39999998,NA,NA,184760.674,184762.59999996,2023-11-04T08:41:10Z,184777.14,NULL,Entwicklung,maendeleo,d,NA,NA,NA,NA,sdf,NA,0,NA,NA,NA,NA,NA,NA,NA,NA,NA,NA,NA,NA,NA,NA,NA,NA,NA,NA,NA
d2628,task,flow.Sequence,3_0_0_0_2,NA,NA,completion,19384.253,165361.80000001,165359.954,165376.421,184760.674,184762.89999998,2023-11-04T08:41:10Z,184777.14,NULL,Entwicklung,maendeleo,d,NA,NA,NA,NA,sdf,NA,0,NA,NA,NA,NA,NA,NA,NA,NA,NA,NA,NA,NA,NA,NA,NA,NA,NA,NA,NA
d2628,Deep Question,html.Page,3_0_0_0_3_0_0,NA,NA,form submission,9732.6600000119,184763,184760.674,184777.14,194509.80000001,194510,2023-11-04T08:41:19Z,194519.097,NULL,Vorwurf,mashtaka,d,NA,NA,NA,chikuta,NA,NA,0,NA,NA,NA,NA,NA,NA,NA,NA,NA,NA,NA,NA,NA,NA,NA,NA,NA,NA,NA
d2628,"""Richtig""-Screen",canvas.Screen,3_0_0_0_3_0_1,NA,NA,skipped,NA,194512.69999999,NA,NA,194509.80000001,194512.80000001,2023-11-04T08:41:19Z,194519.097,NULL,Vorwurf,mashtaka,d,NA,NA,NA,NA,sdf,NA,0,NA,NA,NA,NA,NA,NA,NA,NA,NA,NA,NA,NA,NA,NA,NA,NA,NA,NA,NA
d2628,"""Falsch""-Screen",canvas.Screen,3_0_0_0_3_0_2,NA,NA,timeout,4995.846,194513.89999998,194502.669,194519.097,199498.575,199499.59999996,2023-11-04T08:41:24Z,199514.943,NULL,Vorwurf,mashtaka,d,NA,NA,NA,NA,sdf,0,0,NA,NA,NA,NA,NA,NA,NA,NA,NA,NA,NA,NA,NA,NA,NA,NA,NA,NA,NA
d2628,deep,flow.Sequence,3_0_0_0_3_0,NA,NA,completion,14721.435,184763,184760.674,184777.14,199498.575,199500,2023-11-04T08:41:24Z,199514.943,NULL,Vorwurf,mashtaka,d,NA,NA,NA,NA,sdf,NA,0,NA,NA,NA,NA,NA,NA,NA,NA,NA,NA,NA,NA,NA,NA,NA,NA,NA,NA,NA
d2628,shallow,flow.Sequence,3_0_0_0_3_1,NA,NA,skipped,NA,199500.19999999,NA,NA,199498.575,199500.30000001,2023-11-04T08:41:24Z,199514.943,NULL,Vorwurf,mashtaka,d,NA,NA,NA,NA,sdf,NA,0,NA,NA,NA,NA,NA,NA,NA,NA,NA,NA,NA,NA,NA,NA,NA,NA,NA,NA,NA
d2628,task,flow.Sequence,3_0_0_0_3,NA,NA,completion,14721.435,184763,184760.674,184777.14,199498.575,199500.5,2023-11-04T08:41:24Z,199514.943,NULL,Vorwurf,mashtaka,d,NA,NA,NA,NA,sdf,NA,0,NA,NA,NA,NA,NA,NA,NA,NA,NA,NA,NA,NA,NA,NA,NA,NA,NA,NA,NA
d2628,deep,flow.Sequence,3_0_0_0_4_0,NA,NA,skipped,NA,199500.59999996,NA,NA,199498.575,199500.80000001,2023-11-04T08:41:24Z,199514.943,NULL,Niveau,kiwango,s,usimamizi,mwamali,mshairi,NA,sdf,NA,0,NA,NA,NA,NA,NA,NA,NA,NA,NA,NA,NA,NA,NA,NA,NA,NA,NA,NA,NA
d2628,Shallow Question,html.Page,3_0_0_0_4_1_0,NA,NA,form submission,7400.9569999762,199500.89999998,199498.575,199514.943,206915.89999998,206916.09999996,2023-11-04T08:41:32Z,206925.518,NULL,Niveau,kiwango,s,usimamizi,mwamali,mshairi,usimamizi,NA,NA,0,NA,NA,NA,NA,NA,NA,NA,NA,NA,NA,NA,NA,NA,NA,NA,NA,NA,NA,NA
d2628,"""Richtig""-Screen",canvas.Screen,3_0_0_0_4_1_1,NA,NA,skipped,NA,206918.19999999,NA,NA,206915.89999998,206918.39999998,2023-11-04T08:41:32Z,206925.518,NULL,Niveau,kiwango,s,usimamizi,mwamali,mshairi,NA,sdf,NA,0,NA,NA,NA,NA,NA,NA,NA,NA,NA,NA,NA,NA,NA,NA,NA,NA,NA,NA,NA
d2628,"""Falsch""-Screen",canvas.Screen,3_0_0_0_4_1_2,NA,NA,timeout,4995.973,206919,206909.18,206925.518,211905.064,211906.19999999,2023-11-04T08:41:37Z,211921.491,NULL,Niveau,kiwango,s,usimamizi,mwamali,mshairi,NA,sdf,0,0,NA,NA,NA,NA,NA,NA,NA,NA,NA,NA,NA,NA,NA,NA,NA,NA,NA,NA,NA
d2628,shallow,flow.Sequence,3_0_0_0_4_1,NA,NA,completion,12390.121,199500.89999998,199498.575,199514.943,211905.064,211906.5,2023-11-04T08:41:37Z,211921.491,NULL,Niveau,kiwango,s,usimamizi,mwamali,mshairi,NA,sdf,NA,0,NA,NA,NA,NA,NA,NA,NA,NA,NA,NA,NA,NA,NA,NA,NA,NA,NA,NA,NA
d2628,task,flow.Sequence,3_0_0_0_4,NA,NA,completion,12390.121,199500.59999996,199498.575,199514.943,211905.064,211906.80000001,2023-11-04T08:41:37Z,211921.491,NULL,Niveau,kiwango,s,usimamizi,mwamali,mshairi,NA,sdf,NA,0,NA,NA,NA,NA,NA,NA,NA,NA,NA,NA,NA,NA,NA,NA,NA,NA,NA,NA,NA
d2628,Deep Question,html.Page,3_0_0_0_5_0_0,NA,NA,form submission,7752.3090000119,211907,211905.064,211921.491,219673.80000001,219674.19999999,2023-11-04T08:41:45Z,219681.654,NULL,Körper,kiwiliwili,d,NA,NA,NA,ufsheni,NA,NA,0,NA,NA,NA,NA,NA,NA,NA,NA,NA,NA,NA,NA,NA,NA,NA,NA,NA,NA,NA
d2628,"""Richtig""-Screen",canvas.Screen,3_0_0_0_5_0_1,NA,NA,skipped,NA,219677,NA,NA,219673.80000001,219677.30000001,2023-11-04T08:41:45Z,219681.654,NULL,Körper,kiwiliwili,d,NA,NA,NA,NA,sdf,NA,0,NA,NA,NA,NA,NA,NA,NA,NA,NA,NA,NA,NA,NA,NA,NA,NA,NA,NA,NA
d2628,"""Falsch""-Screen",canvas.Screen,3_0_0_0_5_0_2,NA,NA,timeout,4995.975,219678,219665.313,219681.654,224661.189,224662.80000001,2023-11-04T08:41:50Z,224677.629,NULL,Körper,kiwiliwili,d,NA,NA,NA,NA,sdf,0,0,NA,NA,NA,NA,NA,NA,NA,NA,NA,NA,NA,NA,NA,NA,NA,NA,NA,NA,NA
d2628,deep,flow.Sequence,3_0_0_0_5_0,NA,NA,completion,12739.698,211906.89999998,211905.064,211921.491,224661.189,224663.30000001,2023-11-04T08:41:50Z,224677.629,NULL,Körper,kiwiliwili,d,NA,NA,NA,NA,sdf,NA,0,NA,NA,NA,NA,NA,NA,NA,NA,NA,NA,NA,NA,NA,NA,NA,NA,NA,NA,NA
d2628,shallow,flow.Sequence,3_0_0_0_5_1,NA,NA,skipped,NA,224663.5,NA,NA,224661.189,224663.80000001,2023-11-04T08:41:50Z,224677.629,NULL,Körper,kiwiliwili,d,NA,NA,NA,NA,sdf,NA,0,NA,NA,NA,NA,NA,NA,NA,NA,NA,NA,NA,NA,NA,NA,NA,NA,NA,NA,NA
d2628,task,flow.Sequence,3_0_0_0_5,NA,NA,completion,12739.698,211906.89999998,211905.064,211921.491,224661.189,224664.09999996,2023-11-04T08:41:50Z,224677.629,NULL,Körper,kiwiliwili,d,NA,NA,NA,NA,sdf,NA,0,NA,NA,NA,NA,NA,NA,NA,NA,NA,NA,NA,NA,NA,NA,NA,NA,NA,NA,NA
d2628,deep,flow.Sequence,3_0_0_0_6_0,NA,NA,skipped,NA,224664.5,NA,NA,224661.189,224664.89999998,2023-11-04T08:41:50Z,224677.629,NULL,Papier,karatasi,s,uchambuzi,usalama,kukataliwa,NA,sdf,NA,0,NA,NA,NA,NA,NA,NA,NA,NA,NA,NA,NA,NA,NA,NA,NA,NA,NA,NA,NA
d2628,Shallow Question,html.Page,3_0_0_0_6_1_0,NA,NA,form submission,12832.070999988,224665.19999999,224661.189,224677.629,237509.69999999,237509.80000001,2023-11-04T08:42:02Z,237517.024,NULL,Papier,karatasi,s,uchambuzi,usalama,kukataliwa,uchambuzi,NA,NA,0,NA,NA,NA,NA,NA,NA,NA,NA,NA,NA,NA,NA,NA,NA,NA,NA,NA,NA,NA
d2628,"""Richtig""-Screen",canvas.Screen,3_0_0_0_6_1_1,NA,NA,skipped,NA,237512.19999999,NA,NA,237509.69999999,237512.30000001,2023-11-04T08:42:02Z,237517.024,NULL,Papier,karatasi,s,uchambuzi,usalama,kukataliwa,NA,sdf,NA,0,NA,NA,NA,NA,NA,NA,NA,NA,NA,NA,NA,NA,NA,NA,NA,NA,NA,NA,NA
d2628,"""Falsch""-Screen",canvas.Screen,3_0_0_0_6_1_2,NA,NA,timeout,4995.993,237513.09999996,237500.677,237517.024,242496.62,242497.59999996,2023-11-04T08:42:07Z,242513.017,NULL,Papier,karatasi,s,uchambuzi,usalama,kukataliwa,NA,sdf,0,0,NA,NA,NA,NA,NA,NA,NA,NA,NA,NA,NA,NA,NA,NA,NA,NA,NA,NA,NA
d2628,shallow,flow.Sequence,3_0_0_0_6_1,NA,NA,completion,17818.991,224665.09999996,224661.189,224677.629,242496.62,242497.80000001,2023-11-04T08:42:07Z,242513.017,NULL,Papier,karatasi,s,uchambuzi,usalama,kukataliwa,NA,sdf,NA,0,NA,NA,NA,NA,NA,NA,NA,NA,NA,NA,NA,NA,NA,NA,NA,NA,NA,NA,NA
d2628,task,flow.Sequence,3_0_0_0_6,NA,NA,completion,17818.991,224664.39999998,224661.189,224677.629,242496.62,242498.09999996,2023-11-04T08:42:07Z,242513.017,NULL,Papier,karatasi,s,uchambuzi,usalama,kukataliwa,NA,sdf,NA,0,NA,NA,NA,NA,NA,NA,NA,NA,NA,NA,NA,NA,NA,NA,NA,NA,NA,NA,NA
d2628,Deep Question,html.Page,3_0_0_0_7_0_0,NA,NA,form submission,12996.382999976,242498.30000001,242496.62,242513.017,255509.39999998,255509.69999999,2023-11-04T08:42:20Z,255518.901,NULL,Übersicht,kilindo,d,NA,NA,NA,kambuti,NA,NA,0,NA,NA,NA,NA,NA,NA,NA,NA,NA,NA,NA,NA,NA,NA,NA,NA,NA,NA,NA
d2628,"""Richtig""-Screen",canvas.Screen,3_0_0_0_7_0_1,NA,NA,skipped,NA,255512.09999996,NA,NA,255509.39999998,255512.30000001,2023-11-04T08:42:20Z,255518.901,NULL,Übersicht,kilindo,d,NA,NA,NA,NA,sdf,NA,0,NA,NA,NA,NA,NA,NA,NA,NA,NA,NA,NA,NA,NA,NA,NA,NA,NA,NA,NA
d2628,"""Falsch""-Screen",canvas.Screen,3_0_0_0_7_0_2,NA,NA,timeout,4996.057,255513.09999996,255502.551,255518.901,260498.436,260499.80000001,2023-11-04T08:42:25Z,260514.958,NULL,Übersicht,kilindo,d,NA,NA,NA,NA,sdf,0,0,NA,NA,NA,NA,NA,NA,NA,NA,NA,NA,NA,NA,NA,NA,NA,NA,NA,NA,NA
d2628,deep,flow.Sequence,3_0_0_0_7_0,NA,NA,completion,17985.419,242498.30000001,242496.62,242513.017,260498.436,260500.19999999,2023-11-04T08:42:25Z,260514.958,NULL,Übersicht,kilindo,d,NA,NA,NA,NA,sdf,NA,0,NA,NA,NA,NA,NA,NA,NA,NA,NA,NA,NA,NA,NA,NA,NA,NA,NA,NA,NA
d2628,shallow,flow.Sequence,3_0_0_0_7_1,NA,NA,skipped,NA,260500.30000001,NA,NA,260498.436,260500.39999998,2023-11-04T08:42:25Z,260514.958,NULL,Übersicht,kilindo,d,NA,NA,NA,NA,sdf,NA,0,NA,NA,NA,NA,NA,NA,NA,NA,NA,NA,NA,NA,NA,NA,NA,NA,NA,NA,NA
d2628,task,flow.Sequence,3_0_0_0_7,NA,NA,completion,17985.419,242498.30000001,242496.62,242513.017,260498.436,260500.69999999,2023-11-04T08:42:25Z,260514.958,NULL,Übersicht,kilindo,d,NA,NA,NA,NA,sdf,NA,0,NA,NA,NA,NA,NA,NA,NA,NA,NA,NA,NA,NA,NA,NA,NA,NA,NA,NA,NA
d2628,block,flow.Loop,3_0_0_0,NA,NA,completion,121167.389,139339.09999996,139147.629,139331.047,260498.436,260500.89999998,2023-11-04T08:42:25Z,260514.958,NULL,NA,NA,NA,NA,NA,NA,NA,sdf,NA,0,NA,NA,NA,NA,NA,NA,NA,NA,NA,NA,NA,NA,NA,NA,NA,NA,NA,NA,NA
d2628,weiter,canvas.Screen,3_0_0_1,sdf,keypress(Space),response,1474.542,260501,260498.436,260514.958,261989.5,261990.89999998,2023-11-04T08:42:27Z,262080.169,NULL,NA,NA,NA,NA,NA,NA,NA,sdf,NA,0,NA,NA,NA,NA,NA,NA,NA,NA,NA,NA,NA,NA,NA,NA,NA,NA,NA,NA,NA
d2628,check continue,flow.Sequence,3_0_0,NA,NA,completion,122658.453,139339,139147.629,139331.047,261989.5,261991.19999999,2023-11-04T08:42:27Z,262080.169,NULL,NA,NA,NA,NA,NA,NA,NA,sdf,NA,0,NA,NA,NA,NA,NA,NA,NA,NA,NA,NA,NA,NA,NA,NA,NA,NA,NA,NA,NA
d2628,Deep Question,html.Page,3_0_1_0_0_0_0,NA,NA,form submission,13625.530999988,262061.59999996,261980.267,262080.169,275705.69999999,275706.09999996,2023-11-04T08:42:41Z,275719.024,NULL,Körper,kiwiliwili,d,NA,NA,NA,kalambi,NA,NA,1,NA,NA,NA,NA,NA,NA,NA,NA,NA,NA,NA,NA,NA,NA,NA,NA,NA,NA,NA
d2628,"""Richtig""-Screen",canvas.Screen,3_0_1_0_0_0_1,NA,NA,skipped,NA,275709.09999996,NA,NA,275705.69999999,275709.39999998,2023-11-04T08:42:41Z,275719.024,NULL,Körper,kiwiliwili,d,NA,NA,NA,NA,sdfdsf,NA,1,NA,NA,NA,NA,NA,NA,NA,NA,NA,NA,NA,NA,NA,NA,NA,NA,NA,NA,NA
d2628,"""Falsch""-Screen",canvas.Screen,3_0_1_0_0_0_2,NA,NA,timeout,4995.921,275710.59999996,275702.567,275719.024,280698.18,280699.19999999,2023-11-04T08:42:46Z,280714.945,NULL,Körper,kiwiliwili,d,NA,NA,NA,NA,sdfdsf,0,1,NA,NA,NA,NA,NA,NA,NA,NA,NA,NA,NA,NA,NA,NA,NA,NA,NA,NA,NA
d2628,deep,flow.Sequence,3_0_1_0_0_0,NA,NA,completion,18618.011,262061.59999996,261980.267,262080.169,280698.18,280699.59999996,2023-11-04T08:42:46Z,280714.945,NULL,Körper,kiwiliwili,d,NA,NA,NA,NA,sdfdsf,NA,1,NA,NA,NA,NA,NA,NA,NA,NA,NA,NA,NA,NA,NA,NA,NA,NA,NA,NA,NA
d2628,shallow,flow.Sequence,3_0_1_0_0_1,NA,NA,skipped,NA,280699.69999999,NA,NA,280698.18,280699.80000001,2023-11-04T08:42:46Z,280714.945,NULL,Körper,kiwiliwili,d,NA,NA,NA,NA,sdfdsf,NA,1,NA,NA,NA,NA,NA,NA,NA,NA,NA,NA,NA,NA,NA,NA,NA,NA,NA,NA,NA
d2628,task,flow.Sequence,3_0_1_0_0,NA,NA,completion,18618.011,262061.59999996,261980.267,262080.169,280698.18,280700,2023-11-04T08:42:46Z,280714.945,NULL,Körper,kiwiliwili,d,NA,NA,NA,NA,sdfdsf,NA,1,NA,NA,NA,NA,NA,NA,NA,NA,NA,NA,NA,NA,NA,NA,NA,NA,NA,NA,NA
d2628,deep,flow.Sequence,3_0_1_0_1_0,NA,NA,skipped,NA,280700,NA,NA,280698.18,280700.19999999,2023-11-04T08:42:46Z,280714.945,NULL,Niveau,kiwango,s,usimamizi,mwamali,mshairi,NA,sdfdsf,NA,1,NA,NA,NA,NA,NA,NA,NA,NA,NA,NA,NA,NA,NA,NA,NA,NA,NA,NA,NA
d2628,Shallow Question,html.Page,3_0_1_0_1_1_0,NA,NA,form submission,7741.055,280700.30000001,280698.18,280714.945,288456,288456.19999999,2023-11-04T08:42:53Z,288458.486,NULL,Niveau,kiwango,s,usimamizi,mwamali,mshairi,kiwango,NA,NA,1,NA,NA,NA,NA,NA,NA,NA,NA,NA,NA,NA,NA,NA,NA,NA,NA,NA,NA,NA
d2628,"""Richtig""-Screen",canvas.Screen,3_0_1_0_1_1_1,NA,NA,timeout,4995.901,288458.39999998,288442.126,288458.486,293438.033,293439.09999996,2023-11-04T08:42:58Z,293454.387,NULL,Niveau,kiwango,s,usimamizi,mwamali,mshairi,NA,sdfdsf,1,1,NA,NA,NA,NA,NA,NA,NA,NA,NA,NA,NA,NA,NA,NA,NA,NA,NA,NA,NA
d2628,"""Falsch""-Screen",canvas.Screen,3_0_1_0_1_1_2,NA,NA,skipped,NA,293444.19999999,NA,NA,293438.033,293444.5,2023-11-04T08:42:58Z,293454.387,NULL,Niveau,kiwango,s,usimamizi,mwamali,mshairi,NA,sdfdsf,NA,1,NA,NA,NA,NA,NA,NA,NA,NA,NA,NA,NA,NA,NA,NA,NA,NA,NA,NA,NA
d2628,shallow,flow.Sequence,3_0_1_0_1_1,NA,NA,completion,12723.088,280700.30000001,280698.18,280714.945,293438.033,293444.89999998,2023-11-04T08:42:58Z,293454.387,NULL,Niveau,kiwango,s,usimamizi,mwamali,mshairi,NA,sdfdsf,NA,1,NA,NA,NA,NA,NA,NA,NA,NA,NA,NA,NA,NA,NA,NA,NA,NA,NA,NA,NA
d2628,task,flow.Sequence,3_0_1_0_1,NA,NA,completion,12723.088,280700,280698.18,280714.945,293438.033,293445.09999996,2023-11-04T08:42:58Z,293454.387,NULL,Niveau,kiwango,s,usimamizi,mwamali,mshairi,NA,sdfdsf,NA,1,NA,NA,NA,NA,NA,NA,NA,NA,NA,NA,NA,NA,NA,NA,NA,NA,NA,NA,NA
d2628,deep,flow.Sequence,3_0_1_0_2_0,NA,NA,skipped,NA,293445.30000001,NA,NA,293438.033,293445.5,2023-11-04T08:42:58Z,293454.387,NULL,Lawine,banguko,s,maambukizi,usuluhishi,chekechea,NA,sdfdsf,NA,1,NA,NA,NA,NA,NA,NA,NA,NA,NA,NA,NA,NA,NA,NA,NA,NA,NA,NA,NA
d2628,Shallow Question,html.Page,3_0_1_0_2_1_0,NA,NA,form submission,4953.5129999762,293445.59999996,293438.033,293454.387,298407.89999998,298408.09999996,2023-11-04T08:43:03Z,298416.975,NULL,Lawine,banguko,s,maambukizi,usuluhishi,chekechea,banguko,NA,NA,1,NA,NA,NA,NA,NA,NA,NA,NA,NA,NA,NA,NA,NA,NA,NA,NA,NA,NA,NA
d2628,"""Richtig""-Screen",canvas.Screen,3_0_1_0_2_1_1,NA,NA,timeout,4995.896,298410.19999999,298400.606,298416.975,303396.496,303397.39999998,2023-11-04T08:43:08Z,303412.871,NULL,Lawine,banguko,s,maambukizi,usuluhishi,chekechea,NA,sdfdsf,1,1,NA,NA,NA,NA,NA,NA,NA,NA,NA,NA,NA,NA,NA,NA,NA,NA,NA,NA,NA
d2628,"""Falsch""-Screen",canvas.Screen,3_0_1_0_2_1_2,NA,NA,skipped,NA,303402.30000001,NA,NA,303396.496,303402.69999999,2023-11-04T08:43:08Z,303412.871,NULL,Lawine,banguko,s,maambukizi,usuluhishi,chekechea,NA,sdfdsf,NA,1,NA,NA,NA,NA,NA,NA,NA,NA,NA,NA,NA,NA,NA,NA,NA,NA,NA,NA,NA
d2628,shallow,flow.Sequence,3_0_1_0_2_1,NA,NA,completion,9942.109,293445.59999996,293438.033,293454.387,303396.496,303402.89999998,2023-11-04T08:43:08Z,303412.871,NULL,Lawine,banguko,s,maambukizi,usuluhishi,chekechea,NA,sdfdsf,NA,1,NA,NA,NA,NA,NA,NA,NA,NA,NA,NA,NA,NA,NA,NA,NA,NA,NA,NA,NA
d2628,task,flow.Sequence,3_0_1_0_2,NA,NA,completion,9942.109,293445.30000001,293438.033,293454.387,303396.496,303403.19999999,2023-11-04T08:43:08Z,303412.871,NULL,Lawine,banguko,s,maambukizi,usuluhishi,chekechea,NA,sdfdsf,NA,1,NA,NA,NA,NA,NA,NA,NA,NA,NA,NA,NA,NA,NA,NA,NA,NA,NA,NA,NA
d2628,Deep Question,html.Page,3_0_1_0_3_0_0,NA,NA,form submission,11303.929000012,303403.30000001,303396.496,303412.871,314716.80000001,314717.09999996,2023-11-04T08:43:20Z,314720.19,NULL,Entwicklung,maendeleo,d,NA,NA,NA,kashashi,NA,NA,1,NA,NA,NA,NA,NA,NA,NA,NA,NA,NA,NA,NA,NA,NA,NA,NA,NA,NA,NA
d2628,"""Richtig""-Screen",canvas.Screen,3_0_1_0_3_0_1,NA,NA,skipped,NA,314719.80000001,NA,NA,314716.80000001,314720,2023-11-04T08:43:20Z,314720.19,NULL,Entwicklung,maendeleo,d,NA,NA,NA,NA,sdfdsf,NA,1,NA,NA,NA,NA,NA,NA,NA,NA,NA,NA,NA,NA,NA,NA,NA,NA,NA,NA,NA
d2628,"""Falsch""-Screen",canvas.Screen,3_0_1_0_3_0_2,NA,NA,timeout,4995.958,314721.09999996,314703.895,314720.19,319699.754,319700.89999998,2023-11-04T08:43:25Z,319716.148,NULL,Entwicklung,maendeleo,d,NA,NA,NA,NA,sdfdsf,0,1,NA,NA,NA,NA,NA,NA,NA,NA,NA,NA,NA,NA,NA,NA,NA,NA,NA,NA,NA
d2628,deep,flow.Sequence,3_0_1_0_3_0,NA,NA,completion,16286.883,303403.30000001,303396.496,303412.871,319699.754,319701.30000001,2023-11-04T08:43:25Z,319716.148,NULL,Entwicklung,maendeleo,d,NA,NA,NA,NA,sdfdsf,NA,1,NA,NA,NA,NA,NA,NA,NA,NA,NA,NA,NA,NA,NA,NA,NA,NA,NA,NA,NA
d2628,shallow,flow.Sequence,3_0_1_0_3_1,NA,NA,skipped,NA,319701.5,NA,NA,319699.754,319701.59999996,2023-11-04T08:43:25Z,319716.148,NULL,Entwicklung,maendeleo,d,NA,NA,NA,NA,sdfdsf,NA,1,NA,NA,NA,NA,NA,NA,NA,NA,NA,NA,NA,NA,NA,NA,NA,NA,NA,NA,NA
d2628,task,flow.Sequence,3_0_1_0_3,NA,NA,completion,16286.883,303403.19999999,303396.496,303412.871,319699.754,319701.80000001,2023-11-04T08:43:25Z,319716.148,NULL,Entwicklung,maendeleo,d,NA,NA,NA,NA,sdfdsf,NA,1,NA,NA,NA,NA,NA,NA,NA,NA,NA,NA,NA,NA,NA,NA,NA,NA,NA,NA,NA
d2628,deep,flow.Sequence,3_0_1_0_4_0,NA,NA,skipped,NA,319702,NA,NA,319699.754,319702.09999996,2023-11-04T08:43:25Z,319716.148,NULL,Papier,karatasi,s,uchambuzi,usalama,kukataliwa,NA,sdfdsf,NA,1,NA,NA,NA,NA,NA,NA,NA,NA,NA,NA,NA,NA,NA,NA,NA,NA,NA,NA,NA
d2628,Shallow Question,html.Page,3_0_1_0_4_1_0,NA,NA,form submission,4701.5519999881,319702.30000001,319699.754,319716.148,324417.69999999,324417.89999998,2023-11-04T08:43:29Z,324428.955,NULL,Papier,karatasi,s,uchambuzi,usalama,kukataliwa,karatasi,NA,NA,1,NA,NA,NA,NA,NA,NA,NA,NA,NA,NA,NA,NA,NA,NA,NA,NA,NA,NA,NA
d2628,"""Richtig""-Screen",canvas.Screen,3_0_1_0_4_1_1,NA,NA,timeout,4995.897,324420.19999999,324412.359,324428.955,329408.439,329409.39999998,2023-11-04T08:43:34Z,329424.852,NULL,Papier,karatasi,s,uchambuzi,usalama,kukataliwa,NA,sdfdsf,1,1,NA,NA,NA,NA,NA,NA,NA,NA,NA,NA,NA,NA,NA,NA,NA,NA,NA,NA,NA
d2628,"""Falsch""-Screen",canvas.Screen,3_0_1_0_4_1_2,NA,NA,skipped,NA,329414,NA,NA,329408.439,329414.5,2023-11-04T08:43:34Z,329424.852,NULL,Papier,karatasi,s,uchambuzi,usalama,kukataliwa,NA,sdfdsf,NA,1,NA,NA,NA,NA,NA,NA,NA,NA,NA,NA,NA,NA,NA,NA,NA,NA,NA,NA,NA
d2628,shallow,flow.Sequence,3_0_1_0_4_1,NA,NA,completion,9692.291,319702.30000001,319699.754,319716.148,329408.439,329414.89999998,2023-11-04T08:43:34Z,329424.852,NULL,Papier,karatasi,s,uchambuzi,usalama,kukataliwa,NA,sdfdsf,NA,1,NA,NA,NA,NA,NA,NA,NA,NA,NA,NA,NA,NA,NA,NA,NA,NA,NA,NA,NA
d2628,task,flow.Sequence,3_0_1_0_4,NA,NA,completion,9692.291,319701.89999998,319699.754,319716.148,329408.439,329415.09999996,2023-11-04T08:43:34Z,329424.852,NULL,Papier,karatasi,s,uchambuzi,usalama,kukataliwa,NA,sdfdsf,NA,1,NA,NA,NA,NA,NA,NA,NA,NA,NA,NA,NA,NA,NA,NA,NA,NA,NA,NA,NA
d2628,Deep Question,html.Page,3_0_1_0_5_0_0,NA,NA,form submission,10640.347999988,329415.19999999,329408.439,329424.852,340065.19999999,340065.39999998,2023-11-04T08:43:45Z,340066.028,NULL,Übersicht,kilindo,d,NA,NA,NA,katuli,NA,NA,1,NA,NA,NA,NA,NA,NA,NA,NA,NA,NA,NA,NA,NA,NA,NA,NA,NA,NA,NA
d2628,"""Richtig""-Screen",canvas.Screen,3_0_1_0_5_0_1,NA,NA,skipped,NA,340070.09999996,NA,NA,340065.19999999,340070.30000001,2023-11-04T08:43:45Z,340066.028,NULL,Übersicht,kilindo,d,NA,NA,NA,NA,sdfdsf,NA,1,NA,NA,NA,NA,NA,NA,NA,NA,NA,NA,NA,NA,NA,NA,NA,NA,NA,NA,NA
d2628,"""Falsch""-Screen",canvas.Screen,3_0_1_0_5_0_2,NA,NA,timeout,4995.991,340071.09999996,340049.417,340066.028,345045.523,345046.89999998,2023-11-04T08:43:50Z,345062.019,NULL,Übersicht,kilindo,d,NA,NA,NA,NA,sdfdsf,0,1,NA,NA,NA,NA,NA,NA,NA,NA,NA,NA,NA,NA,NA,NA,NA,NA,NA,NA,NA
d2628,deep,flow.Sequence,3_0_1_0_5_0,NA,NA,completion,15620.671,329415.19999999,329408.439,329424.852,345045.523,345047.39999998,2023-11-04T08:43:50Z,345062.019,NULL,Übersicht,kilindo,d,NA,NA,NA,NA,sdfdsf,NA,1,NA,NA,NA,NA,NA,NA,NA,NA,NA,NA,NA,NA,NA,NA,NA,NA,NA,NA,NA
d2628,shallow,flow.Sequence,3_0_1_0_5_1,NA,NA,skipped,NA,345047.5,NA,NA,345045.523,345047.69999999,2023-11-04T08:43:50Z,345062.019,NULL,Übersicht,kilindo,d,NA,NA,NA,NA,sdfdsf,NA,1,NA,NA,NA,NA,NA,NA,NA,NA,NA,NA,NA,NA,NA,NA,NA,NA,NA,NA,NA
d2628,task,flow.Sequence,3_0_1_0_5,NA,NA,completion,15620.671,329415.19999999,329408.439,329424.852,345045.523,345048,2023-11-04T08:43:50Z,345062.019,NULL,Übersicht,kilindo,d,NA,NA,NA,NA,sdfdsf,NA,1,NA,NA,NA,NA,NA,NA,NA,NA,NA,NA,NA,NA,NA,NA,NA,NA,NA,NA,NA
d2628,Deep Question,html.Page,3_0_1_0_6_0_0,NA,NA,form submission,10385.680999988,345048.19999999,345045.523,345062.019,355447.69999999,355448,2023-11-04T08:44:00Z,355453.384,NULL,Vorwurf,mashtaka,d,NA,NA,NA,malupi,NA,NA,1,NA,NA,NA,NA,NA,NA,NA,NA,NA,NA,NA,NA,NA,NA,NA,NA,NA,NA,NA
d2628,"""Richtig""-Screen",canvas.Screen,3_0_1_0_6_0_1,NA,NA,skipped,NA,355451.30000001,NA,NA,355447.69999999,355451.59999996,2023-11-04T08:44:00Z,355453.384,NULL,Vorwurf,mashtaka,d,NA,NA,NA,NA,sdfdsf,NA,1,NA,NA,NA,NA,NA,NA,NA,NA,NA,NA,NA,NA,NA,NA,NA,NA,NA,NA,NA
d2628,"""Falsch""-Screen",canvas.Screen,3_0_1_0_6_0_2,NA,NA,timeout,4995.956,355452.69999999,355436.795,355453.384,360432.947,360434,2023-11-04T08:44:05Z,360449.34,NULL,Vorwurf,mashtaka,d,NA,NA,NA,NA,sdfdsf,0,1,NA,NA,NA,NA,NA,NA,NA,NA,NA,NA,NA,NA,NA,NA,NA,NA,NA,NA,NA
d2628,deep,flow.Sequence,3_0_1_0_6_0,NA,NA,completion,15370.928,345048.09999996,345045.523,345062.019,360432.947,360434.39999998,2023-11-04T08:44:05Z,360449.34,NULL,Vorwurf,mashtaka,d,NA,NA,NA,NA,sdfdsf,NA,1,NA,NA,NA,NA,NA,NA,NA,NA,NA,NA,NA,NA,NA,NA,NA,NA,NA,NA,NA
d2628,shallow,flow.Sequence,3_0_1_0_6_1,NA,NA,skipped,NA,360434.5,NA,NA,360432.947,360434.59999996,2023-11-04T08:44:05Z,360449.34,NULL,Vorwurf,mashtaka,d,NA,NA,NA,NA,sdfdsf,NA,1,NA,NA,NA,NA,NA,NA,NA,NA,NA,NA,NA,NA,NA,NA,NA,NA,NA,NA,NA
d2628,task,flow.Sequence,3_0_1_0_6,NA,NA,completion,15370.928,345048.09999996,345045.523,345062.019,360432.947,360434.80000001,2023-11-04T08:44:05Z,360449.34,NULL,Vorwurf,mashtaka,d,NA,NA,NA,NA,sdfdsf,NA,1,NA,NA,NA,NA,NA,NA,NA,NA,NA,NA,NA,NA,NA,NA,NA,NA,NA,NA,NA
d2628,deep,flow.Sequence,3_0_1_0_7_0,NA,NA,skipped,NA,360435,NA,NA,360432.947,360435.09999996,2023-11-04T08:44:05Z,360449.34,NULL,System,maongozi,s,chokochoko,nuksani,mitaani,NA,sdfdsf,NA,1,NA,NA,NA,NA,NA,NA,NA,NA,NA,NA,NA,NA,NA,NA,NA,NA,NA,NA,NA
d2628,Shallow Question,html.Page,3_0_1_0_7_1_0,NA,NA,form submission,8382.3599999881,360435.30000001,360432.947,360449.34,368831.69999999,368832,2023-11-04T08:44:14Z,368842.487,NULL,System,maongozi,s,chokochoko,nuksani,mitaani,maongozi,NA,NA,1,NA,NA,NA,NA,NA,NA,NA,NA,NA,NA,NA,NA,NA,NA,NA,NA,NA,NA,NA
d2628,"""Richtig""-Screen",canvas.Screen,3_0_1_0_7_1_1,NA,NA,timeout,4995.857,368834.19999999,368826.065,368842.487,373821.924,373823,2023-11-04T08:44:19Z,373838.344,NULL,System,maongozi,s,chokochoko,nuksani,mitaani,NA,sdfdsf,1,1,NA,NA,NA,NA,NA,NA,NA,NA,NA,NA,NA,NA,NA,NA,NA,NA,NA,NA,NA
d2628,"""Falsch""-Screen",canvas.Screen,3_0_1_0_7_1_2,NA,NA,skipped,NA,373827.69999999,NA,NA,373821.924,373828.09999996,2023-11-04T08:44:19Z,373838.344,NULL,System,maongozi,s,chokochoko,nuksani,mitaani,NA,sdfdsf,NA,1,NA,NA,NA,NA,NA,NA,NA,NA,NA,NA,NA,NA,NA,NA,NA,NA,NA,NA,NA
d2628,shallow,flow.Sequence,3_0_1_0_7_1,NA,NA,completion,13372.584,360435.19999999,360432.947,360449.34,373821.924,373828.5,2023-11-04T08:44:19Z,373838.344,NULL,System,maongozi,s,chokochoko,nuksani,mitaani,NA,sdfdsf,NA,1,NA,NA,NA,NA,NA,NA,NA,NA,NA,NA,NA,NA,NA,NA,NA,NA,NA,NA,NA
d2628,task,flow.Sequence,3_0_1_0_7,NA,NA,completion,13372.584,360434.89999998,360432.947,360449.34,373821.924,373828.59999996,2023-11-04T08:44:19Z,373838.344,NULL,System,maongozi,s,chokochoko,nuksani,mitaani,NA,sdfdsf,NA,1,NA,NA,NA,NA,NA,NA,NA,NA,NA,NA,NA,NA,NA,NA,NA,NA,NA,NA,NA
d2628,block,flow.Loop,3_0_1_0,NA,NA,completion,111741.755,262061.5,261980.267,262080.169,373821.924,373828.80000001,2023-11-04T08:44:19Z,373838.344,NULL,NA,NA,NA,NA,NA,NA,NA,sdfdsf,NA,1,NA,NA,NA,NA,NA,NA,NA,NA,NA,NA,NA,NA,NA,NA,NA,NA,NA,NA,NA
d2628,weiter,canvas.Screen,3_0_1_1,sdf,keypress(Space),response,1418.2559999643,373829,373821.924,373838.344,375256.59999996,375258.09999996,2023-11-04T08:44:20Z,375337.063,NULL,NA,NA,NA,NA,NA,NA,NA,sdfdsf,NA,1,NA,NA,NA,NA,NA,NA,NA,NA,NA,NA,NA,NA,NA,NA,NA,NA,NA,NA,NA
d2628,check continue,flow.Sequence,3_0_1,NA,NA,completion,113176.43099996,262061.39999998,261980.267,262080.169,375256.59999996,375258.5,2023-11-04T08:44:20Z,375337.063,NULL,NA,NA,NA,NA,NA,NA,NA,sdfdsf,NA,1,NA,NA,NA,NA,NA,NA,NA,NA,NA,NA,NA,NA,NA,NA,NA,NA,NA,NA,NA
d2628,Deep Question,html.Page,3_0_2_0_0_0_0,NA,NA,form submission,9486.5369999642,375340,375254.127,375337.063,384823.59999996,384823.89999998,2023-11-04T08:44:30Z,384829.252,NULL,Übersicht,kilindo,d,NA,NA,NA,kiwelo,NA,NA,2,NA,NA,NA,NA,NA,NA,NA,NA,NA,NA,NA,NA,NA,NA,NA,NA,NA,NA,NA
d2628,"""Richtig""-Screen",canvas.Screen,3_0_2_0_0_0_1,NA,NA,skipped,NA,384827,NA,NA,384823.59999996,384827.19999999,2023-11-04T08:44:30Z,384829.252,NULL,Übersicht,kilindo,d,NA,NA,NA,NA,sdf,NA,2,NA,NA,NA,NA,NA,NA,NA,NA,NA,NA,NA,NA,NA,NA,NA,NA,NA,NA,NA
d2628,"""Falsch""-Screen",canvas.Screen,3_0_2_0_0_0_2,NA,NA,timeout,4995.987,384828,384812.923,384829.252,389808.793,389809.80000001,2023-11-04T08:44:35Z,389825.239,NULL,Übersicht,kilindo,d,NA,NA,NA,NA,sdf,0,2,NA,NA,NA,NA,NA,NA,NA,NA,NA,NA,NA,NA,NA,NA,NA,NA,NA,NA,NA
d2628,deep,flow.Sequence,3_0_2_0_0_0,NA,NA,completion,14471.73,375339.89999998,375254.127,375337.063,389808.793,389810.19999999,2023-11-04T08:44:35Z,389825.239,NULL,Übersicht,kilindo,d,NA,NA,NA,NA,sdf,NA,2,NA,NA,NA,NA,NA,NA,NA,NA,NA,NA,NA,NA,NA,NA,NA,NA,NA,NA,NA
d2628,shallow,flow.Sequence,3_0_2_0_0_1,NA,NA,skipped,NA,389810.39999998,NA,NA,389808.793,389810.5,2023-11-04T08:44:35Z,389825.239,NULL,Übersicht,kilindo,d,NA,NA,NA,NA,sdf,NA,2,NA,NA,NA,NA,NA,NA,NA,NA,NA,NA,NA,NA,NA,NA,NA,NA,NA,NA,NA
d2628,task,flow.Sequence,3_0_2_0_0,NA,NA,completion,14471.73,375339.89999998,375254.127,375337.063,389808.793,389810.80000001,2023-11-04T08:44:35Z,389825.239,NULL,Übersicht,kilindo,d,NA,NA,NA,NA,sdf,NA,2,NA,NA,NA,NA,NA,NA,NA,NA,NA,NA,NA,NA,NA,NA,NA,NA,NA,NA,NA
d2628,Deep Question,html.Page,3_0_2_0_1_0_0,NA,NA,form submission,12912.261,389811,389808.793,389825.239,402737.5,402737.80000001,2023-11-04T08:44:48Z,402747.879,NULL,Vorwurf,mashtaka,d,NA,NA,NA,nagashi,NA,NA,2,NA,NA,NA,NA,NA,NA,NA,NA,NA,NA,NA,NA,NA,NA,NA,NA,NA,NA,NA
d2628,"""Richtig""-Screen",canvas.Screen,3_0_2_0_1_0_1,NA,NA,skipped,NA,402740.19999999,NA,NA,402737.5,402740.30000001,2023-11-04T08:44:48Z,402747.879,NULL,Vorwurf,mashtaka,d,NA,NA,NA,NA,sdf,NA,2,NA,NA,NA,NA,NA,NA,NA,NA,NA,NA,NA,NA,NA,NA,NA,NA,NA,NA,NA
d2628,"""Falsch""-Screen",canvas.Screen,3_0_2_0_1_0_2,NA,NA,timeout,4995.914,402741.19999999,402731.492,402747.879,407727.412,407728.39999998,2023-11-04T08:44:53Z,407743.793,NULL,Vorwurf,mashtaka,d,NA,NA,NA,NA,sdf,0,2,NA,NA,NA,NA,NA,NA,NA,NA,NA,NA,NA,NA,NA,NA,NA,NA,NA,NA,NA
d2628,deep,flow.Sequence,3_0_2_0_1_0,NA,NA,completion,17902.173,389810.89999998,389808.793,389825.239,407727.412,407728.80000001,2023-11-04T08:44:53Z,407743.793,NULL,Vorwurf,mashtaka,d,NA,NA,NA,NA,sdf,NA,2,NA,NA,NA,NA,NA,NA,NA,NA,NA,NA,NA,NA,NA,NA,NA,NA,NA,NA,NA
d2628,shallow,flow.Sequence,3_0_2_0_1_1,NA,NA,skipped,NA,407729,NA,NA,407727.412,407729.09999996,2023-11-04T08:44:53Z,407743.793,NULL,Vorwurf,mashtaka,d,NA,NA,NA,NA,sdf,NA,2,NA,NA,NA,NA,NA,NA,NA,NA,NA,NA,NA,NA,NA,NA,NA,NA,NA,NA,NA
d2628,task,flow.Sequence,3_0_2_0_1,NA,NA,completion,17902.173,389810.89999998,389808.793,389825.239,407727.412,407729.30000001,2023-11-04T08:44:53Z,407743.793,NULL,Vorwurf,mashtaka,d,NA,NA,NA,NA,sdf,NA,2,NA,NA,NA,NA,NA,NA,NA,NA,NA,NA,NA,NA,NA,NA,NA,NA,NA,NA,NA
d2628,deep,flow.Sequence,3_0_2_0_2_0,NA,NA,skipped,NA,407729.5,NA,NA,407727.412,407729.59999996,2023-11-04T08:44:53Z,407743.793,NULL,Lawine,banguko,s,maambukizi,usuluhishi,chekechea,NA,sdf,NA,2,NA,NA,NA,NA,NA,NA,NA,NA,NA,NA,NA,NA,NA,NA,NA,NA,NA,NA,NA
d2628,Shallow Question,html.Page,3_0_2_0_2_1_0,NA,NA,form submission,5564.207,407729.80000001,407727.412,407743.793,413308,413308.19999999,2023-11-04T08:44:58Z,413322.55,NULL,Lawine,banguko,s,maambukizi,usuluhishi,chekechea,banguko,NA,NA,2,NA,NA,NA,NA,NA,NA,NA,NA,NA,NA,NA,NA,NA,NA,NA,NA,NA,NA,NA
d2628,"""Richtig""-Screen",canvas.Screen,3_0_2_0_2_1_1,NA,NA,timeout,4995.871,413311.09999996,413306.168,413322.55,418302.034,418303.09999996,2023-11-04T08:45:03Z,418318.421,NULL,Lawine,banguko,s,maambukizi,usuluhishi,chekechea,NA,sdf,1,2,NA,NA,NA,NA,NA,NA,NA,NA,NA,NA,NA,NA,NA,NA,NA,NA,NA,NA,NA
d2628,"""Falsch""-Screen",canvas.Screen,3_0_2_0_2_1_2,NA,NA,skipped,NA,418307.89999998,NA,NA,418302.034,418308.19999999,2023-11-04T08:45:03Z,418318.421,NULL,Lawine,banguko,s,maambukizi,usuluhishi,chekechea,NA,sdf,NA,2,NA,NA,NA,NA,NA,NA,NA,NA,NA,NA,NA,NA,NA,NA,NA,NA,NA,NA,NA
d2628,shallow,flow.Sequence,3_0_2_0_2_1,NA,NA,completion,10558.241,407729.80000001,407727.412,407743.793,418302.034,418308.59999996,2023-11-04T08:45:03Z,418318.421,NULL,Lawine,banguko,s,maambukizi,usuluhishi,chekechea,NA,sdf,NA,2,NA,NA,NA,NA,NA,NA,NA,NA,NA,NA,NA,NA,NA,NA,NA,NA,NA,NA,NA
d2628,task,flow.Sequence,3_0_2_0_2,NA,NA,completion,10558.241,407729.5,407727.412,407743.793,418302.034,418308.80000001,2023-11-04T08:45:03Z,418318.421,NULL,Lawine,banguko,s,maambukizi,usuluhishi,chekechea,NA,sdf,NA,2,NA,NA,NA,NA,NA,NA,NA,NA,NA,NA,NA,NA,NA,NA,NA,NA,NA,NA,NA
d2628,Deep Question,html.Page,3_0_2_0_3_0_0,NA,NA,form submission,7058.9789999762,418308.89999998,418302.034,418318.421,425377.39999998,425377.59999996,2023-11-04T08:45:10Z,425379.228,NULL,Entwicklung,maendeleo,d,NA,NA,NA,kiwelo,NA,NA,2,NA,NA,NA,NA,NA,NA,NA,NA,NA,NA,NA,NA,NA,NA,NA,NA,NA,NA,NA
d2628,"""Richtig""-Screen",canvas.Screen,3_0_2_0_3_0_1,NA,NA,skipped,NA,425380.39999998,NA,NA,425377.39999998,425380.69999999,2023-11-04T08:45:10Z,425379.228,NULL,Entwicklung,maendeleo,d,NA,NA,NA,NA,sdf,NA,2,NA,NA,NA,NA,NA,NA,NA,NA,NA,NA,NA,NA,NA,NA,NA,NA,NA,NA,NA
d2628,"""Falsch""-Screen",canvas.Screen,3_0_2_0_3_0_2,NA,NA,timeout,4995.96,425381.89999998,425362.922,425379.228,430358.817,430360,2023-11-04T08:45:15Z,430375.188,NULL,Entwicklung,maendeleo,d,NA,NA,NA,NA,sdf,0,2,NA,NA,NA,NA,NA,NA,NA,NA,NA,NA,NA,NA,NA,NA,NA,NA,NA,NA,NA
d2628,deep,flow.Sequence,3_0_2_0_3_0,NA,NA,completion,12040.396,418308.89999998,418302.034,418318.421,430358.817,430360.30000001,2023-11-04T08:45:15Z,430375.188,NULL,Entwicklung,maendeleo,d,NA,NA,NA,NA,sdf,NA,2,NA,NA,NA,NA,NA,NA,NA,NA,NA,NA,NA,NA,NA,NA,NA,NA,NA,NA,NA
d2628,shallow,flow.Sequence,3_0_2_0_3_1,NA,NA,skipped,NA,430360.5,NA,NA,430358.817,430360.59999996,2023-11-04T08:45:15Z,430375.188,NULL,Entwicklung,maendeleo,d,NA,NA,NA,NA,sdf,NA,2,NA,NA,NA,NA,NA,NA,NA,NA,NA,NA,NA,NA,NA,NA,NA,NA,NA,NA,NA
d2628,task,flow.Sequence,3_0_2_0_3,NA,NA,completion,12040.396,418308.89999998,418302.034,418318.421,430358.817,430360.80000001,2023-11-04T08:45:15Z,430375.188,NULL,Entwicklung,maendeleo,d,NA,NA,NA,NA,sdf,NA,2,NA,NA,NA,NA,NA,NA,NA,NA,NA,NA,NA,NA,NA,NA,NA,NA,NA,NA,NA
d2628,deep,flow.Sequence,3_0_2_0_4_0,NA,NA,skipped,NA,430360.89999998,NA,NA,430358.817,430361,2023-11-04T08:45:15Z,430375.188,NULL,Papier,karatasi,s,uchambuzi,usalama,kukataliwa,NA,sdf,NA,2,NA,NA,NA,NA,NA,NA,NA,NA,NA,NA,NA,NA,NA,NA,NA,NA,NA,NA,NA
d2628,Shallow Question,html.Page,3_0_2_0_4_1_0,NA,NA,form submission,4322.312,430361.19999999,430358.817,430375.188,434697.5,434697.69999999,2023-11-04T08:45:20Z,434704.931,NULL,Papier,karatasi,s,uchambuzi,usalama,kukataliwa,karatasi,NA,NA,2,NA,NA,NA,NA,NA,NA,NA,NA,NA,NA,NA,NA,NA,NA,NA,NA,NA,NA,NA
d2628,"""Richtig""-Screen",canvas.Screen,3_0_2_0_4_1_1,NA,NA,timeout,4995.968,434699.89999998,434688.585,434704.931,439684.475,439685.59999996,2023-11-04T08:45:25Z,439700.899,NULL,Papier,karatasi,s,uchambuzi,usalama,kukataliwa,NA,sdf,1,2,NA,NA,NA,NA,NA,NA,NA,NA,NA,NA,NA,NA,NA,NA,NA,NA,NA,NA,NA
d2628,"""Falsch""-Screen",canvas.Screen,3_0_2_0_4_1_2,NA,NA,skipped,NA,439690.39999998,NA,NA,439684.475,439690.69999999,2023-11-04T08:45:25Z,439700.899,NULL,Papier,karatasi,s,uchambuzi,usalama,kukataliwa,NA,sdf,NA,2,NA,NA,NA,NA,NA,NA,NA,NA,NA,NA,NA,NA,NA,NA,NA,NA,NA,NA,NA
d2628,shallow,flow.Sequence,3_0_2_0_4_1,NA,NA,completion,9309.287,430361.19999999,430358.817,430375.188,439684.475,439691,2023-11-04T08:45:25Z,439700.899,NULL,Papier,karatasi,s,uchambuzi,usalama,kukataliwa,NA,sdf,NA,2,NA,NA,NA,NA,NA,NA,NA,NA,NA,NA,NA,NA,NA,NA,NA,NA,NA,NA,NA
d2628,task,flow.Sequence,3_0_2_0_4,NA,NA,completion,9309.287,430360.89999998,430358.817,430375.188,439684.475,439691.30000001,2023-11-04T08:45:25Z,439700.899,NULL,Papier,karatasi,s,uchambuzi,usalama,kukataliwa,NA,sdf,NA,2,NA,NA,NA,NA,NA,NA,NA,NA,NA,NA,NA,NA,NA,NA,NA,NA,NA,NA,NA
d2628,deep,flow.Sequence,3_0_2_0_5_0,NA,NA,skipped,NA,439691.39999998,NA,NA,439684.475,439691.5,2023-11-04T08:45:25Z,439700.899,NULL,System,maongozi,s,chokochoko,nuksani,mitaani,NA,sdf,NA,2,NA,NA,NA,NA,NA,NA,NA,NA,NA,NA,NA,NA,NA,NA,NA,NA,NA,NA,NA
d2628,Shallow Question,html.Page,3_0_2_0_5_1_0,NA,NA,form submission,5386.8009999881,439691.59999996,439684.475,439700.899,445087.69999999,445087.89999998,2023-11-04T08:45:30Z,445096.405,NULL,System,maongozi,s,chokochoko,nuksani,mitaani,maongozi,NA,NA,2,NA,NA,NA,NA,NA,NA,NA,NA,NA,NA,NA,NA,NA,NA,NA,NA,NA,NA,NA
d2628,"""Richtig""-Screen",canvas.Screen,3_0_2_0_5_1_1,NA,NA,timeout,4995.886,445090.69999999,445080.053,445096.405,450075.916,450076.89999998,2023-11-04T08:45:35Z,450092.291,NULL,System,maongozi,s,chokochoko,nuksani,mitaani,NA,sdf,1,2,NA,NA,NA,NA,NA,NA,NA,NA,NA,NA,NA,NA,NA,NA,NA,NA,NA,NA,NA
d2628,"""Falsch""-Screen",canvas.Screen,3_0_2_0_5_1_2,NA,NA,skipped,NA,450081.5,NA,NA,450075.916,450081.89999998,2023-11-04T08:45:35Z,450092.291,NULL,System,maongozi,s,chokochoko,nuksani,mitaani,NA,sdf,NA,2,NA,NA,NA,NA,NA,NA,NA,NA,NA,NA,NA,NA,NA,NA,NA,NA,NA,NA,NA
d2628,shallow,flow.Sequence,3_0_2_0_5_1,NA,NA,completion,10375.017,439691.59999996,439684.475,439700.899,450075.916,450082.09999996,2023-11-04T08:45:35Z,450092.291,NULL,System,maongozi,s,chokochoko,nuksani,mitaani,NA,sdf,NA,2,NA,NA,NA,NA,NA,NA,NA,NA,NA,NA,NA,NA,NA,NA,NA,NA,NA,NA,NA
d2628,task,flow.Sequence,3_0_2_0_5,NA,NA,completion,10375.017,439691.30000001,439684.475,439700.899,450075.916,450082.39999998,2023-11-04T08:45:35Z,450092.291,NULL,System,maongozi,s,chokochoko,nuksani,mitaani,NA,sdf,NA,2,NA,NA,NA,NA,NA,NA,NA,NA,NA,NA,NA,NA,NA,NA,NA,NA,NA,NA,NA
d2628,Deep Question,html.Page,3_0_2_0_6_0_0,NA,NA,form submission,10651.408999988,450082.59999996,450075.916,450092.291,460743.69999999,460744,2023-11-04T08:45:46Z,460750.167,NULL,Körper,kiwiliwili,d,NA,NA,NA,kiwiwili,NA,NA,2,NA,NA,NA,NA,NA,NA,NA,NA,NA,NA,NA,NA,NA,NA,NA,NA,NA,NA,NA
d2628,"""Richtig""-Screen",canvas.Screen,3_0_2_0_6_0_1,NA,NA,skipped,NA,460747.39999998,NA,NA,460743.69999999,460747.69999999,2023-11-04T08:45:46Z,460750.167,NULL,Körper,kiwiliwili,d,NA,NA,NA,NA,sdf,NA,2,NA,NA,NA,NA,NA,NA,NA,NA,NA,NA,NA,NA,NA,NA,NA,NA,NA,NA,NA
d2628,"""Falsch""-Screen",canvas.Screen,3_0_2_0_6_0_2,NA,NA,timeout,4996.012,460748.89999998,460733.783,460750.167,465729.703,465730.80000001,2023-11-04T08:45:51Z,465746.179,NULL,Körper,kiwiliwili,d,NA,NA,NA,NA,sdf,0,2,NA,NA,NA,NA,NA,NA,NA,NA,NA,NA,NA,NA,NA,NA,NA,NA,NA,NA,NA
d2628,deep,flow.Sequence,3_0_2_0_6_0,NA,NA,completion,15637.412,450082.5,450075.916,450092.291,465729.703,465731.19999999,2023-11-04T08:45:51Z,465746.179,NULL,Körper,kiwiliwili,d,NA,NA,NA,NA,sdf,NA,2,NA,NA,NA,NA,NA,NA,NA,NA,NA,NA,NA,NA,NA,NA,NA,NA,NA,NA,NA
d2628,shallow,flow.Sequence,3_0_2_0_6_1,NA,NA,skipped,NA,465731.30000001,NA,NA,465729.703,465731.39999998,2023-11-04T08:45:51Z,465746.179,NULL,Körper,kiwiliwili,d,NA,NA,NA,NA,sdf,NA,2,NA,NA,NA,NA,NA,NA,NA,NA,NA,NA,NA,NA,NA,NA,NA,NA,NA,NA,NA
d2628,task,flow.Sequence,3_0_2_0_6,NA,NA,completion,15637.412,450082.5,450075.916,450092.291,465729.703,465731.59999996,2023-11-04T08:45:51Z,465746.179,NULL,Körper,kiwiliwili,d,NA,NA,NA,NA,sdf,NA,2,NA,NA,NA,NA,NA,NA,NA,NA,NA,NA,NA,NA,NA,NA,NA,NA,NA,NA,NA
d2628,deep,flow.Sequence,3_0_2_0_7_0,NA,NA,skipped,NA,465731.80000001,NA,NA,465729.703,465731.89999998,2023-11-04T08:45:51Z,465746.179,NULL,Niveau,kiwango,s,usimamizi,mwamali,mshairi,NA,sdf,NA,2,NA,NA,NA,NA,NA,NA,NA,NA,NA,NA,NA,NA,NA,NA,NA,NA,NA,NA,NA
d2628,Shallow Question,html.Page,3_0_2_0_7_1_0,NA,NA,form submission,13027.621000012,465732.09999996,465729.703,465746.179,478773.80000001,478774.09999996,2023-11-04T08:46:04Z,478785.415,NULL,Niveau,kiwango,s,usimamizi,mwamali,mshairi,kiwango,NA,NA,2,NA,NA,NA,NA,NA,NA,NA,NA,NA,NA,NA,NA,NA,NA,NA,NA,NA,NA,NA
d2628,"""Richtig""-Screen",canvas.Screen,3_0_2_0_7_1_1,NA,NA,timeout,4995.895,478776.39999998,478769.047,478785.415,483764.89,483766.09999996,2023-11-04T08:46:09Z,483781.31,NULL,Niveau,kiwango,s,usimamizi,mwamali,mshairi,NA,sdf,1,2,NA,NA,NA,NA,NA,NA,NA,NA,NA,NA,NA,NA,NA,NA,NA,NA,NA,NA,NA
d2628,"""Falsch""-Screen",canvas.Screen,3_0_2_0_7_1_2,NA,NA,skipped,NA,483770.80000001,NA,NA,483764.89,483771.09999996,2023-11-04T08:46:09Z,483781.31,NULL,Niveau,kiwango,s,usimamizi,mwamali,mshairi,NA,sdf,NA,2,NA,NA,NA,NA,NA,NA,NA,NA,NA,NA,NA,NA,NA,NA,NA,NA,NA,NA,NA
d2628,shallow,flow.Sequence,3_0_2_0_7_1,NA,NA,completion,18018.711,465732,465729.703,465746.179,483764.89,483771.30000001,2023-11-04T08:46:09Z,483781.31,NULL,Niveau,kiwango,s,usimamizi,mwamali,mshairi,NA,sdf,NA,2,NA,NA,NA,NA,NA,NA,NA,NA,NA,NA,NA,NA,NA,NA,NA,NA,NA,NA,NA
d2628,task,flow.Sequence,3_0_2_0_7,NA,NA,completion,18018.711,465731.69999999,465729.703,465746.179,483764.89,483771.59999996,2023-11-04T08:46:09Z,483781.31,NULL,Niveau,kiwango,s,usimamizi,mwamali,mshairi,NA,sdf,NA,2,NA,NA,NA,NA,NA,NA,NA,NA,NA,NA,NA,NA,NA,NA,NA,NA,NA,NA,NA
d2628,block,flow.Loop,3_0_2_0,NA,NA,completion,108427.827,375339.80000001,375254.127,375337.063,483764.89,483771.69999999,2023-11-04T08:46:09Z,483781.31,NULL,NA,NA,NA,NA,NA,NA,NA,sdf,NA,2,NA,NA,NA,NA,NA,NA,NA,NA,NA,NA,NA,NA,NA,NA,NA,NA,NA,NA,NA
d2628,weiter,canvas.Screen,3_0_2_1,sdf,keypress(Space),response,1434.4900000119,483772,483764.89,483781.31,485215.80000001,485217.30000001,2023-11-04T08:46:10Z,485280.04,NULL,NA,NA,NA,NA,NA,NA,NA,sdf,NA,2,NA,NA,NA,NA,NA,NA,NA,NA,NA,NA,NA,NA,NA,NA,NA,NA,NA,NA,NA
d2628,check continue,flow.Sequence,3_0_2,NA,NA,completion,109878.73700001,375339.69999999,375254.127,375337.063,485215.80000001,485217.69999999,2023-11-04T08:46:10Z,485280.04,NULL,NA,NA,NA,NA,NA,NA,NA,sdf,NA,2,NA,NA,NA,NA,NA,NA,NA,NA,NA,NA,NA,NA,NA,NA,NA,NA,NA,NA,NA
d2628,Deep Question,html.Page,3_0_3_0_0_0_0,NA,NA,form submission,17015.559999964,485277,485213.415,485280.04,502295.59999996,502295.89999998,2023-11-04T08:46:27Z,502299.351,NULL,Übersicht,kilindo,d,NA,NA,NA,malembo,NA,NA,3,NA,NA,NA,NA,NA,NA,NA,NA,NA,NA,NA,NA,NA,NA,NA,NA,NA,NA,NA
d2628,"""Richtig""-Screen",canvas.Screen,3_0_3_0_0_0_1,NA,NA,skipped,NA,502298.30000001,NA,NA,502295.59999996,502298.59999996,2023-11-04T08:46:27Z,502299.351,NULL,Übersicht,kilindo,d,NA,NA,NA,NA,qt,NA,3,NA,NA,NA,NA,NA,NA,NA,NA,NA,NA,NA,NA,NA,NA,NA,NA,NA,NA,NA
d2628,"""Falsch""-Screen",canvas.Screen,3_0_3_0_0_0_2,NA,NA,timeout,4995.991,502299.89999998,502282.974,502299.351,507278.941,507279.89999998,2023-11-04T08:46:32Z,507295.342,NULL,Übersicht,kilindo,d,NA,NA,NA,NA,qt,0,3,NA,NA,NA,NA,NA,NA,NA,NA,NA,NA,NA,NA,NA,NA,NA,NA,NA,NA,NA
d2628,deep,flow.Sequence,3_0_3_0_0_0,NA,NA,completion,21998.901,485277,485213.415,485280.04,507278.941,507280.30000001,2023-11-04T08:46:32Z,507295.342,NULL,Übersicht,kilindo,d,NA,NA,NA,NA,qt,NA,3,NA,NA,NA,NA,NA,NA,NA,NA,NA,NA,NA,NA,NA,NA,NA,NA,NA,NA,NA
d2628,shallow,flow.Sequence,3_0_3_0_0_1,NA,NA,skipped,NA,507280.5,NA,NA,507278.941,507280.59999996,2023-11-04T08:46:32Z,507295.342,NULL,Übersicht,kilindo,d,NA,NA,NA,NA,qt,NA,3,NA,NA,NA,NA,NA,NA,NA,NA,NA,NA,NA,NA,NA,NA,NA,NA,NA,NA,NA
d2628,task,flow.Sequence,3_0_3_0_0,NA,NA,completion,21998.901,485276.89999998,485213.415,485280.04,507278.941,507280.89999998,2023-11-04T08:46:32Z,507295.342,NULL,Übersicht,kilindo,d,NA,NA,NA,NA,qt,NA,3,NA,NA,NA,NA,NA,NA,NA,NA,NA,NA,NA,NA,NA,NA,NA,NA,NA,NA,NA
d2628,Deep Question,html.Page,3_0_3_0_1_0_0,NA,NA,form submission,9100.4580000119,507281,507278.941,507295.342,516395.80000001,516396.09999996,2023-11-04T08:46:41Z,516404.408,NULL,Vorwurf,mashtaka,d,NA,NA,NA,malembo,NA,NA,3,NA,NA,NA,NA,NA,NA,NA,NA,NA,NA,NA,NA,NA,NA,NA,NA,NA,NA,NA
d2628,"""Richtig""-Screen",canvas.Screen,3_0_3_0_1_0_1,NA,NA,skipped,NA,516398.80000001,NA,NA,516395.80000001,516399.09999996,2023-11-04T08:46:41Z,516404.408,NULL,Vorwurf,mashtaka,d,NA,NA,NA,NA,qt,NA,3,NA,NA,NA,NA,NA,NA,NA,NA,NA,NA,NA,NA,NA,NA,NA,NA,NA,NA,NA
d2628,"""Falsch""-Screen",canvas.Screen,3_0_3_0_1_0_2,NA,NA,timeout,4996.07,516399.89999998,516388.076,516404.408,521383.969,521385,2023-11-04T08:46:46Z,521400.478,NULL,Vorwurf,mashtaka,d,NA,NA,NA,NA,qt,0,3,NA,NA,NA,NA,NA,NA,NA,NA,NA,NA,NA,NA,NA,NA,NA,NA,NA,NA,NA
d2628,deep,flow.Sequence,3_0_3_0_1_0,NA,NA,completion,14088.627,507281,507278.941,507295.342,521383.969,521385.39999998,2023-11-04T08:46:46Z,521400.478,NULL,Vorwurf,mashtaka,d,NA,NA,NA,NA,qt,NA,3,NA,NA,NA,NA,NA,NA,NA,NA,NA,NA,NA,NA,NA,NA,NA,NA,NA,NA,NA
d2628,shallow,flow.Sequence,3_0_3_0_1_1,NA,NA,skipped,NA,521385.5,NA,NA,521383.969,521385.59999996,2023-11-04T08:46:46Z,521400.478,NULL,Vorwurf,mashtaka,d,NA,NA,NA,NA,qt,NA,3,NA,NA,NA,NA,NA,NA,NA,NA,NA,NA,NA,NA,NA,NA,NA,NA,NA,NA,NA
d2628,task,flow.Sequence,3_0_3_0_1,NA,NA,completion,14088.627,507280.89999998,507278.941,507295.342,521383.969,521385.80000001,2023-11-04T08:46:46Z,521400.478,NULL,Vorwurf,mashtaka,d,NA,NA,NA,NA,qt,NA,3,NA,NA,NA,NA,NA,NA,NA,NA,NA,NA,NA,NA,NA,NA,NA,NA,NA,NA,NA
d2628,Deep Question,html.Page,3_0_3_0_2_0_0,NA,NA,form submission,10331.322000012,521386,521383.969,521400.478,531731.80000000994,531732.19999999006,2023-11-04T08:46:57Z,531741.905,NULL,Entwicklung,maendeleo,d,NA,NA,NA,kateshi,NA,NA,3,NA,NA,NA,NA,NA,NA,NA,NA,NA,NA,NA,NA,NA,NA,NA,NA,NA,NA,NA
d2628,"""Richtig""-Screen",canvas.Screen,3_0_3_0_2_0_1,NA,NA,skipped,NA,531734.80000001,NA,NA,531731.80000000994,531735,2023-11-04T08:46:57Z,531741.905,NULL,Entwicklung,maendeleo,d,NA,NA,NA,NA,qt,NA,3,NA,NA,NA,NA,NA,NA,NA,NA,NA,NA,NA,NA,NA,NA,NA,NA,NA,NA,NA
d2628,"""Falsch""-Screen",canvas.Screen,3_0_3_0_2_0_2,NA,NA,timeout,4995.847,531735.69999999006,531725.483,531741.905,536721.088,536722.09999996,2023-11-04T08:47:02Z,536737.752,NULL,Entwicklung,maendeleo,d,NA,NA,NA,NA,qt,0,3,NA,NA,NA,NA,NA,NA,NA,NA,NA,NA,NA,NA,NA,NA,NA,NA,NA,NA,NA
d2628,deep,flow.Sequence,3_0_3_0_2_0,NA,NA,completion,15320.61,521385.89999998,521383.969,521400.478,536721.088,536722.5,2023-11-04T08:47:02Z,536737.752,NULL,Entwicklung,maendeleo,d,NA,NA,NA,NA,qt,NA,3,NA,NA,NA,NA,NA,NA,NA,NA,NA,NA,NA,NA,NA,NA,NA,NA,NA,NA,NA
d2628,shallow,flow.Sequence,3_0_3_0_2_1,NA,NA,skipped,NA,536722.59999996,NA,NA,536721.088,536722.69999999006,2023-11-04T08:47:02Z,536737.752,NULL,Entwicklung,maendeleo,d,NA,NA,NA,NA,qt,NA,3,NA,NA,NA,NA,NA,NA,NA,NA,NA,NA,NA,NA,NA,NA,NA,NA,NA,NA,NA
d2628,task,flow.Sequence,3_0_3_0_2,NA,NA,completion,15320.61,521385.89999998,521383.969,521400.478,536721.088,536722.89999998,2023-11-04T08:47:02Z,536737.752,NULL,Entwicklung,maendeleo,d,NA,NA,NA,NA,qt,NA,3,NA,NA,NA,NA,NA,NA,NA,NA,NA,NA,NA,NA,NA,NA,NA,NA,NA,NA,NA
d2628,deep,flow.Sequence,3_0_3_0_3_0,NA,NA,skipped,NA,536723.09999996,NA,NA,536721.088,536723.30000001,2023-11-04T08:47:02Z,536737.752,NULL,Papier,karatasi,s,uchambuzi,usalama,kukataliwa,NA,qt,NA,3,NA,NA,NA,NA,NA,NA,NA,NA,NA,NA,NA,NA,NA,NA,NA,NA,NA,NA,NA
d2628,Shallow Question,html.Page,3_0_3_0_3_1_0,NA,NA,form submission,3711.8479999643,536723.39999998,536721.088,536737.752,540449.59999996,540449.80000000994,2023-11-04T08:47:05Z,540451.323,NULL,Papier,karatasi,s,uchambuzi,usalama,kukataliwa,karatasi,NA,NA,3,NA,NA,NA,NA,NA,NA,NA,NA,NA,NA,NA,NA,NA,NA,NA,NA,NA,NA,NA
d2628,"""Richtig""-Screen",canvas.Screen,3_0_3_0_3_1_1,NA,NA,timeout,4995.9890000001,540452.69999999006,540434.969,540451.323,545430.886,545432.09999996,2023-11-04T08:47:10Z,545447.312,NULL,Papier,karatasi,s,uchambuzi,usalama,kukataliwa,NA,qt,1,3,NA,NA,NA,NA,NA,NA,NA,NA,NA,NA,NA,NA,NA,NA,NA,NA,NA,NA,NA
d2628,"""Falsch""-Screen",canvas.Screen,3_0_3_0_3_1_2,NA,NA,skipped,NA,545437.30000001,NA,NA,545430.886,545437.69999999006,2023-11-04T08:47:10Z,545447.312,NULL,Papier,karatasi,s,uchambuzi,usalama,kukataliwa,NA,qt,NA,3,NA,NA,NA,NA,NA,NA,NA,NA,NA,NA,NA,NA,NA,NA,NA,NA,NA,NA,NA
d2628,shallow,flow.Sequence,3_0_3_0_3_1,NA,NA,completion,8693.1340000001,536723.39999998,536721.088,536737.752,545430.886,545438.19999999006,2023-11-04T08:47:10Z,545447.312,NULL,Papier,karatasi,s,uchambuzi,usalama,kukataliwa,NA,qt,NA,3,NA,NA,NA,NA,NA,NA,NA,NA,NA,NA,NA,NA,NA,NA,NA,NA,NA,NA,NA
d2628,task,flow.Sequence,3_0_3_0_3,NA,NA,completion,8693.1340000001,536723.09999996,536721.088,536737.752,545430.886,545438.39999998,2023-11-04T08:47:10Z,545447.312,NULL,Papier,karatasi,s,uchambuzi,usalama,kukataliwa,NA,qt,NA,3,NA,NA,NA,NA,NA,NA,NA,NA,NA,NA,NA,NA,NA,NA,NA,NA,NA,NA,NA
d2628,deep,flow.Sequence,3_0_3_0_4_0,NA,NA,skipped,NA,545438.59999996,NA,NA,545430.886,545438.69999999006,2023-11-04T08:47:10Z,545447.312,NULL,System,maongozi,s,chokochoko,nuksani,mitaani,NA,qt,NA,3,NA,NA,NA,NA,NA,NA,NA,NA,NA,NA,NA,NA,NA,NA,NA,NA,NA,NA,NA
d2628,Shallow Question,html.Page,3_0_3_0_4_1_0,NA,NA,form submission,5222.5879999761,545438.80000001,545430.886,545447.312,550669.89999998,550670.19999999006,2023-11-04T08:47:16Z,550676.278,NULL,System,maongozi,s,chokochoko,nuksani,mitaani,maongozi,NA,NA,3,NA,NA,NA,NA,NA,NA,NA,NA,NA,NA,NA,NA,NA,NA,NA,NA,NA,NA,NA
d2628,"""Richtig""-Screen",canvas.Screen,3_0_3_0_4_1_1,NA,NA,timeout,4995.923,550672.30000001,550659.846,550676.278,555655.79,555656.69999999006,2023-11-04T08:47:21Z,555672.201,NULL,System,maongozi,s,chokochoko,nuksani,mitaani,NA,qt,1,3,NA,NA,NA,NA,NA,NA,NA,NA,NA,NA,NA,NA,NA,NA,NA,NA,NA,NA,NA
d2628,"""Falsch""-Screen",canvas.Screen,3_0_3_0_4_1_2,NA,NA,skipped,NA,555661.30000000994,NA,NA,555655.79,555661.69999999006,2023-11-04T08:47:21Z,555672.201,NULL,System,maongozi,s,chokochoko,nuksani,mitaani,NA,qt,NA,3,NA,NA,NA,NA,NA,NA,NA,NA,NA,NA,NA,NA,NA,NA,NA,NA,NA,NA,NA
d2628,shallow,flow.Sequence,3_0_3_0_4_1,NA,NA,completion,10208.478,545438.80000001,545430.886,545447.312,555655.79,555662,2023-11-04T08:47:21Z,555672.201,NULL,System,maongozi,s,chokochoko,nuksani,mitaani,NA,qt,NA,3,NA,NA,NA,NA,NA,NA,NA,NA,NA,NA,NA,NA,NA,NA,NA,NA,NA,NA,NA
d2628,task,flow.Sequence,3_0_3_0_4,NA,NA,completion,10208.478,545438.5,545430.886,545447.312,555655.79,555662.19999999006,2023-11-04T08:47:21Z,555672.201,NULL,System,maongozi,s,chokochoko,nuksani,mitaani,NA,qt,NA,3,NA,NA,NA,NA,NA,NA,NA,NA,NA,NA,NA,NA,NA,NA,NA,NA,NA,NA,NA
d2628,deep,flow.Sequence,3_0_3_0_5_0,NA,NA,skipped,NA,555662.39999998,NA,NA,555655.79,555662.5,2023-11-04T08:47:21Z,555672.201,NULL,Niveau,kiwango,s,usimamizi,mwamali,mshairi,NA,qt,NA,3,NA,NA,NA,NA,NA,NA,NA,NA,NA,NA,NA,NA,NA,NA,NA,NA,NA,NA,NA
d2628,Shallow Question,html.Page,3_0_3_0_5_1_0,NA,NA,form submission,6691.6989999762,555662.69999999006,555655.79,555672.201,562363.89999998,562364.09999996,2023-11-04T08:47:27Z,562366.632,NULL,Niveau,kiwango,s,usimamizi,mwamali,mshairi,kiwango,NA,NA,3,NA,NA,NA,NA,NA,NA,NA,NA,NA,NA,NA,NA,NA,NA,NA,NA,NA,NA,NA
d2628,"""Richtig""-Screen",canvas.Screen,3_0_3_0_5_1_1,NA,NA,timeout,4995.92,562366.30000000994,562350.311,562366.632,567346.16,567347,2023-11-04T08:47:32Z,567362.552,NULL,Niveau,kiwango,s,usimamizi,mwamali,mshairi,NA,qt,1,3,NA,NA,NA,NA,NA,NA,NA,NA,NA,NA,NA,NA,NA,NA,NA,NA,NA,NA,NA
d2628,"""Falsch""-Screen",canvas.Screen,3_0_3_0_5_1_2,NA,NA,skipped,NA,567351.39999998,NA,NA,567346.16,567351.69999999006,2023-11-04T08:47:32Z,567362.552,NULL,Niveau,kiwango,s,usimamizi,mwamali,mshairi,NA,qt,NA,3,NA,NA,NA,NA,NA,NA,NA,NA,NA,NA,NA,NA,NA,NA,NA,NA,NA,NA,NA
d2628,shallow,flow.Sequence,3_0_3_0_5_1,NA,NA,completion,11673.959,555662.59999996,555655.79,555672.201,567346.16,567352,2023-11-04T08:47:32Z,567362.552,NULL,Niveau,kiwango,s,usimamizi,mwamali,mshairi,NA,qt,NA,3,NA,NA,NA,NA,NA,NA,NA,NA,NA,NA,NA,NA,NA,NA,NA,NA,NA,NA,NA
d2628,task,flow.Sequence,3_0_3_0_5,NA,NA,completion,11673.959,555662.30000001,555655.79,555672.201,567346.16,567352.19999999006,2023-11-04T08:47:32Z,567362.552,NULL,Niveau,kiwango,s,usimamizi,mwamali,mshairi,NA,qt,NA,3,NA,NA,NA,NA,NA,NA,NA,NA,NA,NA,NA,NA,NA,NA,NA,NA,NA,NA,NA
d2628,Deep Question,html.Page,3_0_3_0_6_0_0,NA,NA,form submission,9791.1479999881,567352.39999998,567346.16,567362.552,577153.69999999006,577154,2023-11-04T08:47:42Z,577154.482,NULL,Körper,kiwiliwili,d,NA,NA,NA,kiwiwili,NA,NA,3,NA,NA,NA,NA,NA,NA,NA,NA,NA,NA,NA,NA,NA,NA,NA,NA,NA,NA,NA
d2628,"""Richtig""-Screen",canvas.Screen,3_0_3_0_6_0_1,NA,NA,skipped,NA,577157.89999998,NA,NA,577153.69999999006,577158.09999996,2023-11-04T08:47:42Z,577154.482,NULL,Körper,kiwiliwili,d,NA,NA,NA,NA,qt,NA,3,NA,NA,NA,NA,NA,NA,NA,NA,NA,NA,NA,NA,NA,NA,NA,NA,NA,NA,NA
d2628,"""Falsch""-Screen",canvas.Screen,3_0_3_0_6_0_2,NA,NA,timeout,4995.9430000001,577158.69999999006,577138.158,577154.482,582134.05,582135.19999999006,2023-11-04T08:47:47Z,582150.425,NULL,Körper,kiwiliwili,d,NA,NA,NA,NA,qt,0,3,NA,NA,NA,NA,NA,NA,NA,NA,NA,NA,NA,NA,NA,NA,NA,NA,NA,NA,NA
d2628,deep,flow.Sequence,3_0_3_0_6_0,NA,NA,completion,14771.498,567352.39999998,567346.16,567362.552,582134.05,582135.59999996,2023-11-04T08:47:47Z,582150.425,NULL,Körper,kiwiliwili,d,NA,NA,NA,NA,qt,NA,3,NA,NA,NA,NA,NA,NA,NA,NA,NA,NA,NA,NA,NA,NA,NA,NA,NA,NA,NA
d2628,shallow,flow.Sequence,3_0_3_0_6_1,NA,NA,skipped,NA,582135.80000001,NA,NA,582134.05,582135.89999998,2023-11-04T08:47:47Z,582150.425,NULL,Körper,kiwiliwili,d,NA,NA,NA,NA,qt,NA,3,NA,NA,NA,NA,NA,NA,NA,NA,NA,NA,NA,NA,NA,NA,NA,NA,NA,NA,NA
d2628,task,flow.Sequence,3_0_3_0_6,NA,NA,completion,14771.498,567352.30000001,567346.16,567362.552,582134.05,582136.19999999006,2023-11-04T08:47:47Z,582150.425,NULL,Körper,kiwiliwili,d,NA,NA,NA,NA,qt,NA,3,NA,NA,NA,NA,NA,NA,NA,NA,NA,NA,NA,NA,NA,NA,NA,NA,NA,NA,NA
d2628,deep,flow.Sequence,3_0_3_0_7_0,NA,NA,skipped,NA,582136.30000000994,NA,NA,582134.05,582136.5,2023-11-04T08:47:47Z,582150.425,NULL,Lawine,banguko,s,maambukizi,usuluhishi,chekechea,NA,qt,NA,3,NA,NA,NA,NA,NA,NA,NA,NA,NA,NA,NA,NA,NA,NA,NA,NA,NA,NA,NA
d2628,Shallow Question,html.Page,3_0_3_0_7_1_0,NA,NA,form submission,5971.3750000119,582136.69999999006,582134.05,582150.425,588121.80000001,588122.09999996,2023-11-04T08:47:53Z,588128.842,NULL,Lawine,banguko,s,maambukizi,usuluhishi,chekechea,banguko,NA,NA,3,NA,NA,NA,NA,NA,NA,NA,NA,NA,NA,NA,NA,NA,NA,NA,NA,NA,NA,NA
d2628,"""Richtig""-Screen",canvas.Screen,3_0_3_0_7_1_1,NA,NA,timeout,4995.8820000001,588124.30000000994,588112.462,588128.842,593108.361,593109.5,2023-11-04T08:47:58Z,593124.724,NULL,Lawine,banguko,s,maambukizi,usuluhishi,chekechea,NA,qt,1,3,NA,NA,NA,NA,NA,NA,NA,NA,NA,NA,NA,NA,NA,NA,NA,NA,NA,NA,NA
d2628,"""Falsch""-Screen",canvas.Screen,3_0_3_0_7_1_2,NA,NA,skipped,NA,593114.19999999006,NA,NA,593108.361,593114.59999996,2023-11-04T08:47:58Z,593124.724,NULL,Lawine,banguko,s,maambukizi,usuluhishi,chekechea,NA,qt,NA,3,NA,NA,NA,NA,NA,NA,NA,NA,NA,NA,NA,NA,NA,NA,NA,NA,NA,NA,NA
d2628,shallow,flow.Sequence,3_0_3_0_7_1,NA,NA,completion,10957.936,582136.59999996,582134.05,582150.425,593108.361,593114.89999998,2023-11-04T08:47:58Z,593124.724,NULL,Lawine,banguko,s,maambukizi,usuluhishi,chekechea,NA,qt,NA,3,NA,NA,NA,NA,NA,NA,NA,NA,NA,NA,NA,NA,NA,NA,NA,NA,NA,NA,NA
d2628,task,flow.Sequence,3_0_3_0_7,NA,NA,completion,10957.936,582136.30000000994,582134.05,582150.425,593108.361,593115.19999999006,2023-11-04T08:47:58Z,593124.724,NULL,Lawine,banguko,s,maambukizi,usuluhishi,chekechea,NA,qt,NA,3,NA,NA,NA,NA,NA,NA,NA,NA,NA,NA,NA,NA,NA,NA,NA,NA,NA,NA,NA
d2628,block,flow.Loop,3_0_3_0,NA,NA,completion,107828.321,485276.89999998,485213.415,485280.04,593108.361,593115.39999998,2023-11-04T08:47:58Z,593124.724,NULL,NA,NA,NA,NA,NA,NA,NA,qt,NA,3,NA,NA,NA,NA,NA,NA,NA,NA,NA,NA,NA,NA,NA,NA,NA,NA,NA,NA,NA
d2628,weiter,canvas.Screen,3_0_3_1,sdf,keypress(Space),response,1382.475999988,593115.5,593108.361,593124.724,594507.19999999006,594508.69999999006,2023-11-04T08:47:59Z,594590.162,NULL,NA,NA,NA,NA,NA,NA,NA,qt,NA,3,NA,NA,NA,NA,NA,NA,NA,NA,NA,NA,NA,NA,NA,NA,NA,NA,NA,NA,NA
d2628,check continue,flow.Sequence,3_0_3,NA,NA,completion,109227.15999999,485276.69999999,485213.415,485280.04,594507.19999999006,594509,2023-11-04T08:47:59Z,594590.162,NULL,NA,NA,NA,NA,NA,NA,NA,qt,NA,3,NA,NA,NA,NA,NA,NA,NA,NA,NA,NA,NA,NA,NA,NA,NA,NA,NA,NA,NA
d2628,Deep Question,html.Page,3_0_4_0_0_0_0,NA,NA,form submission,16795.138000012,594568.39999998,594507.192,594590.162,611385.30000000994,611385.59999996,2023-11-04T08:48:16Z,611392.998,NULL,Entwicklung,maendeleo,d,NA,NA,NA,kiwili,NA,NA,4,NA,NA,NA,NA,NA,NA,NA,NA,NA,NA,NA,NA,NA,NA,NA,NA,NA,NA,NA
d2628,"""Richtig""-Screen",canvas.Screen,3_0_4_0_0_0_1,NA,NA,skipped,NA,611388.89999998,NA,NA,611385.30000000994,611389.19999999006,2023-11-04T08:48:16Z,611392.998,NULL,Entwicklung,maendeleo,d,NA,NA,NA,NA,sd,NA,4,NA,NA,NA,NA,NA,NA,NA,NA,NA,NA,NA,NA,NA,NA,NA,NA,NA,NA,NA
d2628,"""Falsch""-Screen",canvas.Screen,3_0_4_0_0_0_2,NA,NA,timeout,4995.9399999999,611390.59999996,611376.468,611392.998,616372.214,616384.19999999006,2023-11-04T08:48:21Z,616388.938,NULL,Entwicklung,maendeleo,d,NA,NA,NA,NA,sd,0,4,NA,NA,NA,NA,NA,NA,NA,NA,NA,NA,NA,NA,NA,NA,NA,NA,NA,NA,NA
d2628,deep,flow.Sequence,3_0_4_0_0_0,NA,NA,completion,21782.052,594568.39999998,594507.192,594590.162,616372.214,616384.80000001,2023-11-04T08:48:21Z,616388.938,NULL,Entwicklung,maendeleo,d,NA,NA,NA,NA,sd,NA,4,NA,NA,NA,NA,NA,NA,NA,NA,NA,NA,NA,NA,NA,NA,NA,NA,NA,NA,NA
d2628,shallow,flow.Sequence,3_0_4_0_0_1,NA,NA,skipped,NA,616385,NA,NA,616372.214,616385.19999999006,2023-11-04T08:48:21Z,616388.938,NULL,Entwicklung,maendeleo,d,NA,NA,NA,NA,sd,NA,4,NA,NA,NA,NA,NA,NA,NA,NA,NA,NA,NA,NA,NA,NA,NA,NA,NA,NA,NA
d2628,task,flow.Sequence,3_0_4_0_0,NA,NA,completion,21782.052,594568.39999998,594507.192,594590.162,616372.214,616385.39999998,2023-11-04T08:48:21Z,616388.938,NULL,Entwicklung,maendeleo,d,NA,NA,NA,NA,sd,NA,4,NA,NA,NA,NA,NA,NA,NA,NA,NA,NA,NA,NA,NA,NA,NA,NA,NA,NA,NA
d2628,Deep Question,html.Page,3_0_4_0_1_0_0,NA,NA,form submission,17640.761999988,616385.59999996,616372.214,616388.938,634029.69999999006,634029.89999998,2023-11-04T08:48:39Z,634041.129,NULL,Übersicht,kilindo,d,NA,NA,NA,kawali,NA,NA,4,NA,NA,NA,NA,NA,NA,NA,NA,NA,NA,NA,NA,NA,NA,NA,NA,NA,NA,NA
d2628,"""Richtig""-Screen",canvas.Screen,3_0_4_0_1_0_1,NA,NA,skipped,NA,634032.39999998,NA,NA,634029.69999999006,634032.59999996,2023-11-04T08:48:39Z,634041.129,NULL,Übersicht,kilindo,d,NA,NA,NA,NA,sd,NA,4,NA,NA,NA,NA,NA,NA,NA,NA,NA,NA,NA,NA,NA,NA,NA,NA,NA,NA,NA
d2628,"""Falsch""-Screen",canvas.Screen,3_0_4_0_1_0_2,NA,NA,timeout,4995.873,634033.39999998,634024.621,634041.129,639020.346,639021.09999996,2023-11-04T08:48:44Z,639037.002,NULL,Übersicht,kilindo,d,NA,NA,NA,NA,sd,0,4,NA,NA,NA,NA,NA,NA,NA,NA,NA,NA,NA,NA,NA,NA,NA,NA,NA,NA,NA
d2628,deep,flow.Sequence,3_0_4_0_1_0,NA,NA,completion,22631.408,616385.59999996,616372.214,616388.938,639020.346,639021.5,2023-11-04T08:48:44Z,639037.002,NULL,Übersicht,kilindo,d,NA,NA,NA,NA,sd,NA,4,NA,NA,NA,NA,NA,NA,NA,NA,NA,NA,NA,NA,NA,NA,NA,NA,NA,NA,NA
d2628,shallow,flow.Sequence,3_0_4_0_1_1,NA,NA,skipped,NA,639021.69999999006,NA,NA,639020.346,639021.89999998,2023-11-04T08:48:44Z,639037.002,NULL,Übersicht,kilindo,d,NA,NA,NA,NA,sd,NA,4,NA,NA,NA,NA,NA,NA,NA,NA,NA,NA,NA,NA,NA,NA,NA,NA,NA,NA,NA
d2628,task,flow.Sequence,3_0_4_0_1,NA,NA,completion,22631.408,616385.59999996,616372.214,616388.938,639020.346,639022.09999996,2023-11-04T08:48:44Z,639037.002,NULL,Übersicht,kilindo,d,NA,NA,NA,NA,sd,NA,4,NA,NA,NA,NA,NA,NA,NA,NA,NA,NA,NA,NA,NA,NA,NA,NA,NA,NA,NA
d2628,Deep Question,html.Page,3_0_4_0_2_0_0,NA,NA,form submission,12456.697999988,639022.39999998,639020.346,639037.002,651493.69999999006,651494.09999996,2023-11-04T08:48:56Z,651493.365,NULL,Körper,kiwiliwili,d,NA,NA,NA,kiwiliwili,NA,NA,4,NA,NA,NA,NA,NA,NA,NA,NA,NA,NA,NA,NA,NA,NA,NA,NA,NA,NA,NA
d2628,"""Richtig""-Screen",canvas.Screen,3_0_4_0_2_0_1,NA,NA,timeout,4995.955,651497.39999998,651477.044,651493.365,656472.941,656474.19999999006,2023-11-04T08:49:01Z,656489.32,NULL,Körper,kiwiliwili,d,NA,NA,NA,NA,sd,1,4,NA,NA,NA,NA,NA,NA,NA,NA,NA,NA,NA,NA,NA,NA,NA,NA,NA,NA,NA
d2628,"""Falsch""-Screen",canvas.Screen,3_0_4_0_2_0_2,NA,NA,skipped,NA,656479.59999996,NA,NA,656472.941,656480,2023-11-04T08:49:01Z,656489.32,NULL,Körper,kiwiliwili,d,NA,NA,NA,NA,sd,NA,4,NA,NA,NA,NA,NA,NA,NA,NA,NA,NA,NA,NA,NA,NA,NA,NA,NA,NA,NA
d2628,deep,flow.Sequence,3_0_4_0_2_0,NA,NA,completion,17435.939,639022.39999998,639020.346,639037.002,656472.941,656480.30000001,2023-11-04T08:49:01Z,656489.32,NULL,Körper,kiwiliwili,d,NA,NA,NA,NA,sd,NA,4,NA,NA,NA,NA,NA,NA,NA,NA,NA,NA,NA,NA,NA,NA,NA,NA,NA,NA,NA
d2628,shallow,flow.Sequence,3_0_4_0_2_1,NA,NA,skipped,NA,656480.59999996,NA,NA,656472.941,656480.69999999006,2023-11-04T08:49:01Z,656489.32,NULL,Körper,kiwiliwili,d,NA,NA,NA,NA,sd,NA,4,NA,NA,NA,NA,NA,NA,NA,NA,NA,NA,NA,NA,NA,NA,NA,NA,NA,NA,NA
d2628,task,flow.Sequence,3_0_4_0_2,NA,NA,completion,17435.939,639022.30000001,639020.346,639037.002,656472.941,656480.89999998,2023-11-04T08:49:01Z,656489.32,NULL,Körper,kiwiliwili,d,NA,NA,NA,NA,sd,NA,4,NA,NA,NA,NA,NA,NA,NA,NA,NA,NA,NA,NA,NA,NA,NA,NA,NA,NA,NA
d2628,deep,flow.Sequence,3_0_4_0_3_0,NA,NA,skipped,NA,656481.09999996,NA,NA,656472.941,656481.30000001,2023-11-04T08:49:01Z,656489.32,NULL,Papier,karatasi,s,uchambuzi,usalama,kukataliwa,NA,sd,NA,4,NA,NA,NA,NA,NA,NA,NA,NA,NA,NA,NA,NA,NA,NA,NA,NA,NA,NA,NA
d2628,Shallow Question,html.Page,3_0_4_0_3_1_0,NA,NA,form submission,3729.980000012,656481.39999998,656472.941,656489.32,660219.30000001,660219.69999999006,2023-11-04T08:49:05Z,660242.697,NULL,Papier,karatasi,s,uchambuzi,usalama,kukataliwa,karatasi,NA,NA,4,NA,NA,NA,NA,NA,NA,NA,NA,NA,NA,NA,NA,NA,NA,NA,NA,NA,NA,NA
d2628,"""Richtig""-Screen",canvas.Screen,3_0_4_0_3_1_1,NA,NA,timeout,5006.0739999999,660222.09999996,660203.247,660242.697,665232.227,665233.30000001,2023-11-04T08:49:10Z,665248.771,NULL,Papier,karatasi,s,uchambuzi,usalama,kukataliwa,NA,sd,1,4,NA,NA,NA,NA,NA,NA,NA,NA,NA,NA,NA,NA,NA,NA,NA,NA,NA,NA,NA
d2628,"""Falsch""-Screen",canvas.Screen,3_0_4_0_3_1_2,NA,NA,skipped,NA,665237.80000001,NA,NA,665232.227,665238.19999999006,2023-11-04T08:49:10Z,665248.771,NULL,Papier,karatasi,s,uchambuzi,usalama,kukataliwa,NA,sd,NA,4,NA,NA,NA,NA,NA,NA,NA,NA,NA,NA,NA,NA,NA,NA,NA,NA,NA,NA,NA
d2628,shallow,flow.Sequence,3_0_4_0_3_1,NA,NA,completion,8742.907,656481.30000001,656472.941,656489.32,665232.227,665238.5,2023-11-04T08:49:10Z,665248.771,NULL,Papier,karatasi,s,uchambuzi,usalama,kukataliwa,NA,sd,NA,4,NA,NA,NA,NA,NA,NA,NA,NA,NA,NA,NA,NA,NA,NA,NA,NA,NA,NA,NA
d2628,task,flow.Sequence,3_0_4_0_3,NA,NA,completion,8742.907,656481.09999996,656472.941,656489.32,665232.227,665238.59999996,2023-11-04T08:49:10Z,665248.771,NULL,Papier,karatasi,s,uchambuzi,usalama,kukataliwa,NA,sd,NA,4,NA,NA,NA,NA,NA,NA,NA,NA,NA,NA,NA,NA,NA,NA,NA,NA,NA,NA,NA
d2628,deep,flow.Sequence,3_0_4_0_4_0,NA,NA,skipped,NA,665238.80000001,NA,NA,665232.227,665238.89999998,2023-11-04T08:49:10Z,665248.771,NULL,System,maongozi,s,chokochoko,nuksani,mitaani,NA,sd,NA,4,NA,NA,NA,NA,NA,NA,NA,NA,NA,NA,NA,NA,NA,NA,NA,NA,NA,NA,NA
d2628,Shallow Question,html.Page,3_0_4_0_4_1_0,NA,NA,form submission,6143.2290000001,665239,665232.227,665248.771,671392,671392.19999999006,2023-11-04T08:49:16Z,671393.708,NULL,System,maongozi,s,chokochoko,nuksani,mitaani,maongozi,NA,NA,4,NA,NA,NA,NA,NA,NA,NA,NA,NA,NA,NA,NA,NA,NA,NA,NA,NA,NA,NA
d2628,"""Richtig""-Screen",canvas.Screen,3_0_4_0_4_1_1,NA,NA,timeout,4995.9,671394.80000000994,671377.353,671393.708,676373.287,676374.69999999006,2023-11-04T08:49:21Z,676389.608,NULL,System,maongozi,s,chokochoko,nuksani,mitaani,NA,sd,1,4,NA,NA,NA,NA,NA,NA,NA,NA,NA,NA,NA,NA,NA,NA,NA,NA,NA,NA,NA
d2628,"""Falsch""-Screen",canvas.Screen,3_0_4_0_4_1_2,NA,NA,skipped,NA,676379.59999996,NA,NA,676373.287,676380,2023-11-04T08:49:21Z,676389.608,NULL,System,maongozi,s,chokochoko,nuksani,mitaani,NA,sd,NA,4,NA,NA,NA,NA,NA,NA,NA,NA,NA,NA,NA,NA,NA,NA,NA,NA,NA,NA,NA
d2628,shallow,flow.Sequence,3_0_4_0_4_1,NA,NA,completion,11124.516,665239,665232.227,665248.771,676373.287,676380.30000000994,2023-11-04T08:49:21Z,676389.608,NULL,System,maongozi,s,chokochoko,nuksani,mitaani,NA,sd,NA,4,NA,NA,NA,NA,NA,NA,NA,NA,NA,NA,NA,NA,NA,NA,NA,NA,NA,NA,NA
d2628,task,flow.Sequence,3_0_4_0_4,NA,NA,completion,11124.516,665238.69999999006,665232.227,665248.771,676373.287,676380.5,2023-11-04T08:49:21Z,676389.608,NULL,System,maongozi,s,chokochoko,nuksani,mitaani,NA,sd,NA,4,NA,NA,NA,NA,NA,NA,NA,NA,NA,NA,NA,NA,NA,NA,NA,NA,NA,NA,NA
d2628,Deep Question,html.Page,3_0_4_0_5_0_0,NA,NA,form submission,16866.192000012,676380.80000001,676373.287,676389.608,693255.80000001,693256,2023-11-04T08:49:38Z,693259.065,NULL,Vorwurf,mashtaka,d,NA,NA,NA,managelo,NA,NA,4,NA,NA,NA,NA,NA,NA,NA,NA,NA,NA,NA,NA,NA,NA,NA,NA,NA,NA,NA
d2628,"""Richtig""-Screen",canvas.Screen,3_0_4_0_5_0_1,NA,NA,skipped,NA,693260.30000000994,NA,NA,693255.80000001,693260.39999998,2023-11-04T08:49:38Z,693259.065,NULL,Vorwurf,mashtaka,d,NA,NA,NA,NA,sd,NA,4,NA,NA,NA,NA,NA,NA,NA,NA,NA,NA,NA,NA,NA,NA,NA,NA,NA,NA,NA
d2628,"""Falsch""-Screen",canvas.Screen,3_0_4_0_5_0_2,NA,NA,timeout,4996.0040000001,693261.19999999006,693242.606,693259.065,698238.598,698239.69999999006,2023-11-04T08:49:43Z,698255.069,NULL,Vorwurf,mashtaka,d,NA,NA,NA,NA,sd,0,4,NA,NA,NA,NA,NA,NA,NA,NA,NA,NA,NA,NA,NA,NA,NA,NA,NA,NA,NA
d2628,deep,flow.Sequence,3_0_4_0_5_0,NA,NA,completion,21848.99,676380.69999999006,676373.287,676389.608,698238.598,698240,2023-11-04T08:49:43Z,698255.069,NULL,Vorwurf,mashtaka,d,NA,NA,NA,NA,sd,NA,4,NA,NA,NA,NA,NA,NA,NA,NA,NA,NA,NA,NA,NA,NA,NA,NA,NA,NA,NA
d2628,shallow,flow.Sequence,3_0_4_0_5_1,NA,NA,skipped,NA,698240.19999999006,NA,NA,698238.598,698240.30000001,2023-11-04T08:49:43Z,698255.069,NULL,Vorwurf,mashtaka,d,NA,NA,NA,NA,sd,NA,4,NA,NA,NA,NA,NA,NA,NA,NA,NA,NA,NA,NA,NA,NA,NA,NA,NA,NA,NA
d2628,task,flow.Sequence,3_0_4_0_5,NA,NA,completion,21848.99,676380.59999996,676373.287,676389.608,698238.598,698240.5,2023-11-04T08:49:43Z,698255.069,NULL,Vorwurf,mashtaka,d,NA,NA,NA,NA,sd,NA,4,NA,NA,NA,NA,NA,NA,NA,NA,NA,NA,NA,NA,NA,NA,NA,NA,NA,NA,NA
d2628,deep,flow.Sequence,3_0_4_0_6_0,NA,NA,skipped,NA,698240.59999996,NA,NA,698238.598,698240.80000000994,2023-11-04T08:49:43Z,698255.069,NULL,Niveau,kiwango,s,usimamizi,mwamali,mshairi,NA,sd,NA,4,NA,NA,NA,NA,NA,NA,NA,NA,NA,NA,NA,NA,NA,NA,NA,NA,NA,NA,NA
d2628,Shallow Question,html.Page,3_0_4_0_6_1_0,NA,NA,form submission,5868.6309999881,698240.89999998,698238.598,698255.069,704123.69999999006,704124,2023-11-04T08:49:49Z,704133.512,NULL,Niveau,kiwango,s,usimamizi,mwamali,mshairi,kiwango,NA,NA,4,NA,NA,NA,NA,NA,NA,NA,NA,NA,NA,NA,NA,NA,NA,NA,NA,NA,NA,NA
d2628,"""Richtig""-Screen",canvas.Screen,3_0_4_0_6_1_1,NA,NA,timeout,4995.879,704126.39999998,704117.114,704133.512,709112.984,709114.30000001,2023-11-04T08:49:54Z,709129.391,NULL,Niveau,kiwango,s,usimamizi,mwamali,mshairi,NA,sd,1,4,NA,NA,NA,NA,NA,NA,NA,NA,NA,NA,NA,NA,NA,NA,NA,NA,NA,NA,NA
d2628,"""Falsch""-Screen",canvas.Screen,3_0_4_0_6_1_2,NA,NA,skipped,NA,709118.80000001,NA,NA,709112.984,709119.09999996,2023-11-04T08:49:54Z,709129.391,NULL,Niveau,kiwango,s,usimamizi,mwamali,mshairi,NA,sd,NA,4,NA,NA,NA,NA,NA,NA,NA,NA,NA,NA,NA,NA,NA,NA,NA,NA,NA,NA,NA
d2628,shallow,flow.Sequence,3_0_4_0_6_1,NA,NA,completion,10857.915,698240.89999998,698238.598,698255.069,709112.984,709119.5,2023-11-04T08:49:54Z,709129.391,NULL,Niveau,kiwango,s,usimamizi,mwamali,mshairi,NA,sd,NA,4,NA,NA,NA,NA,NA,NA,NA,NA,NA,NA,NA,NA,NA,NA,NA,NA,NA,NA,NA
d2628,task,flow.Sequence,3_0_4_0_6,NA,NA,completion,10857.915,698240.59999996,698238.598,698255.069,709112.984,709119.80000001,2023-11-04T08:49:54Z,709129.391,NULL,Niveau,kiwango,s,usimamizi,mwamali,mshairi,NA,sd,NA,4,NA,NA,NA,NA,NA,NA,NA,NA,NA,NA,NA,NA,NA,NA,NA,NA,NA,NA,NA
d2628,deep,flow.Sequence,3_0_4_0_7_0,NA,NA,skipped,NA,709119.89999998,NA,NA,709112.984,709120.09999996,2023-11-04T08:49:54Z,709129.391,NULL,Lawine,banguko,s,maambukizi,usuluhishi,chekechea,NA,sd,NA,4,NA,NA,NA,NA,NA,NA,NA,NA,NA,NA,NA,NA,NA,NA,NA,NA,NA,NA,NA
d2628,Shallow Question,html.Page,3_0_4_0_7_1_0,NA,NA,form submission,3766.0089999762,709120.09999996,709112.984,709129.391,712895.39999998,712895.59999996,2023-11-04T08:49:58Z,712909.704,NULL,Lawine,banguko,s,maambukizi,usuluhishi,chekechea,banguko,NA,NA,4,NA,NA,NA,NA,NA,NA,NA,NA,NA,NA,NA,NA,NA,NA,NA,NA,NA,NA,NA
d2628,"""Richtig""-Screen",canvas.Screen,3_0_4_0_7_1_1,NA,NA,timeout,4995.797,712897.89999998,712893.006,712909.704,717889.115,717890.19999999006,2023-11-04T08:50:03Z,717905.501,NULL,Lawine,banguko,s,maambukizi,usuluhishi,chekechea,NA,sd,1,4,NA,NA,NA,NA,NA,NA,NA,NA,NA,NA,NA,NA,NA,NA,NA,NA,NA,NA,NA
d2628,"""Falsch""-Screen",canvas.Screen,3_0_4_0_7_1_2,NA,NA,skipped,NA,717894.69999999006,NA,NA,717889.115,717895.09999996,2023-11-04T08:50:03Z,717905.501,NULL,Lawine,banguko,s,maambukizi,usuluhishi,chekechea,NA,sd,NA,4,NA,NA,NA,NA,NA,NA,NA,NA,NA,NA,NA,NA,NA,NA,NA,NA,NA,NA,NA
d2628,shallow,flow.Sequence,3_0_4_0_7_1,NA,NA,completion,8759.724,709120.09999996,709112.984,709129.391,717889.115,717895.39999998,2023-11-04T08:50:03Z,717905.501,NULL,Lawine,banguko,s,maambukizi,usuluhishi,chekechea,NA,sd,NA,4,NA,NA,NA,NA,NA,NA,NA,NA,NA,NA,NA,NA,NA,NA,NA,NA,NA,NA,NA
d2628,task,flow.Sequence,3_0_4_0_7,NA,NA,completion,8759.724,709119.80000001,709112.984,709129.391,717889.115,717895.59999996,2023-11-04T08:50:03Z,717905.501,NULL,Lawine,banguko,s,maambukizi,usuluhishi,chekechea,NA,sd,NA,4,NA,NA,NA,NA,NA,NA,NA,NA,NA,NA,NA,NA,NA,NA,NA,NA,NA,NA,NA
d2628,block,flow.Loop,3_0_4_0,NA,NA,completion,123298.953,594568.30000000994,594507.192,594590.162,717889.115,717895.80000001,2023-11-04T08:50:03Z,717905.501,NULL,NA,NA,NA,NA,NA,NA,NA,sd,NA,4,NA,NA,NA,NA,NA,NA,NA,NA,NA,NA,NA,NA,NA,NA,NA,NA,NA,NA,NA
d2628,weiter,canvas.Screen,3_0_4_1,sdf,keypress(Space),response,1241.3989999761,717895.80000001,717889.115,717905.501,719146.89999998,719148.39999998,2023-11-04T08:50:04Z,719237.709,NULL,NA,NA,NA,NA,NA,NA,NA,sd,NA,4,NA,NA,NA,NA,NA,NA,NA,NA,NA,NA,NA,NA,NA,NA,NA,NA,NA,NA,NA
d2628,check continue,flow.Sequence,3_0_4,NA,NA,completion,124556.73799998,594568.30000000994,594507.192,594590.162,719146.89999998,719148.89999998,2023-11-04T08:50:04Z,719237.709,NULL,NA,NA,NA,NA,NA,NA,NA,sd,NA,4,NA,NA,NA,NA,NA,NA,NA,NA,NA,NA,NA,NA,NA,NA,NA,NA,NA,NA,NA
d2628,Deep Question,html.Page,3_0_5_0_0_0_0,NA,NA,form submission,11267.791,719235,719154.464,719237.709,730505.5,730505.69999999006,2023-11-04T08:50:15Z,730511.749,NULL,Entwicklung,maendeleo,d,NA,NA,NA,mashteko,NA,NA,5,NA,NA,NA,NA,NA,NA,NA,NA,NA,NA,NA,NA,NA,NA,NA,NA,NA,NA,NA
d2628,"""Richtig""-Screen",canvas.Screen,3_0_5_0_0_0_1,NA,NA,skipped,NA,730509,NA,NA,730505.5,730509.19999999006,2023-11-04T08:50:15Z,730511.749,NULL,Entwicklung,maendeleo,d,NA,NA,NA,NA,sdf,NA,5,NA,NA,NA,NA,NA,NA,NA,NA,NA,NA,NA,NA,NA,NA,NA,NA,NA,NA,NA
d2628,"""Falsch""-Screen",canvas.Screen,3_0_5_0_0_0_2,NA,NA,timeout,4996.0600000001,730510.30000001,730495.321,730511.749,735491.308,735492.30000001,2023-11-04T08:50:20Z,735507.809,NULL,Entwicklung,maendeleo,d,NA,NA,NA,NA,sdf,0,5,NA,NA,NA,NA,NA,NA,NA,NA,NA,NA,NA,NA,NA,NA,NA,NA,NA,NA,NA
d2628,deep,flow.Sequence,3_0_5_0_0_0,NA,NA,completion,16253.599,719235,719154.464,719237.709,735491.308,735492.69999999006,2023-11-04T08:50:20Z,735507.809,NULL,Entwicklung,maendeleo,d,NA,NA,NA,NA,sdf,NA,5,NA,NA,NA,NA,NA,NA,NA,NA,NA,NA,NA,NA,NA,NA,NA,NA,NA,NA,NA
d2628,shallow,flow.Sequence,3_0_5_0_0_1,NA,NA,skipped,NA,735492.89999998,NA,NA,735491.308,735493,2023-11-04T08:50:20Z,735507.809,NULL,Entwicklung,maendeleo,d,NA,NA,NA,NA,sdf,NA,5,NA,NA,NA,NA,NA,NA,NA,NA,NA,NA,NA,NA,NA,NA,NA,NA,NA,NA,NA
d2628,task,flow.Sequence,3_0_5_0_0,NA,NA,completion,16253.599,719234.89999998,719154.464,719237.709,735491.308,735493.19999999006,2023-11-04T08:50:20Z,735507.809,NULL,Entwicklung,maendeleo,d,NA,NA,NA,NA,sdf,NA,5,NA,NA,NA,NA,NA,NA,NA,NA,NA,NA,NA,NA,NA,NA,NA,NA,NA,NA,NA
d2628,deep,flow.Sequence,3_0_5_0_1_0,NA,NA,skipped,NA,735493.30000001,NA,NA,735491.308,735493.5,2023-11-04T08:50:20Z,735507.809,NULL,System,maongozi,s,chokochoko,nuksani,mitaani,NA,sdf,NA,5,NA,NA,NA,NA,NA,NA,NA,NA,NA,NA,NA,NA,NA,NA,NA,NA,NA,NA,NA
d2628,Shallow Question,html.Page,3_0_5_0_1_1_0,NA,NA,form submission,4347.691,735493.5,735491.308,735507.809,739855.5,739855.80000001,2023-11-04T08:50:25Z,739870.81,NULL,System,maongozi,s,chokochoko,nuksani,mitaani,maongozi,NA,NA,5,NA,NA,NA,NA,NA,NA,NA,NA,NA,NA,NA,NA,NA,NA,NA,NA,NA,NA,NA
d2628,"""Richtig""-Screen",canvas.Screen,3_0_5_0_1_1_1,NA,NA,timeout,4995.884,739857.89999998,739854.407,739870.81,744850.264,744851.39999998,2023-11-04T08:50:30Z,744866.694,NULL,System,maongozi,s,chokochoko,nuksani,mitaani,NA,sdf,1,5,NA,NA,NA,NA,NA,NA,NA,NA,NA,NA,NA,NA,NA,NA,NA,NA,NA,NA,NA
d2628,"""Falsch""-Screen",canvas.Screen,3_0_5_0_1_1_2,NA,NA,skipped,NA,744856,NA,NA,744850.264,744856.30000001,2023-11-04T08:50:30Z,744866.694,NULL,System,maongozi,s,chokochoko,nuksani,mitaani,NA,sdf,NA,5,NA,NA,NA,NA,NA,NA,NA,NA,NA,NA,NA,NA,NA,NA,NA,NA,NA,NA,NA
d2628,shallow,flow.Sequence,3_0_5_0_1_1,NA,NA,completion,9342.455,735493.5,735491.308,735507.809,744850.264,744856.59999996,2023-11-04T08:50:30Z,744866.694,NULL,System,maongozi,s,chokochoko,nuksani,mitaani,NA,sdf,NA,5,NA,NA,NA,NA,NA,NA,NA,NA,NA,NA,NA,NA,NA,NA,NA,NA,NA,NA,NA
d2628,task,flow.Sequence,3_0_5_0_1,NA,NA,completion,9342.455,735493.30000001,735491.308,735507.809,744850.264,744856.89999998,2023-11-04T08:50:30Z,744866.694,NULL,System,maongozi,s,chokochoko,nuksani,mitaani,NA,sdf,NA,5,NA,NA,NA,NA,NA,NA,NA,NA,NA,NA,NA,NA,NA,NA,NA,NA,NA,NA,NA
d2628,Deep Question,html.Page,3_0_5_0_2_0_0,NA,NA,form submission,9840.806,744857,744850.264,744866.694,754707.5,754707.80000001,2023-11-04T08:50:40Z,754708.524,NULL,Vorwurf,mashtaka,d,NA,NA,NA,maendelo,NA,NA,5,NA,NA,NA,NA,NA,NA,NA,NA,NA,NA,NA,NA,NA,NA,NA,NA,NA,NA,NA
d2628,"""Richtig""-Screen",canvas.Screen,3_0_5_0_2_0_1,NA,NA,skipped,NA,754710.80000001,NA,NA,754707.5,754711.09999996,2023-11-04T08:50:40Z,754708.524,NULL,Vorwurf,mashtaka,d,NA,NA,NA,NA,sdf,NA,5,NA,NA,NA,NA,NA,NA,NA,NA,NA,NA,NA,NA,NA,NA,NA,NA,NA,NA,NA
d2628,"""Falsch""-Screen",canvas.Screen,3_0_5_0_2_0_2,NA,NA,timeout,4995.942,754712,754692.21,754708.524,759688.071,759689.09999996,2023-11-04T08:50:45Z,759704.466,NULL,Vorwurf,mashtaka,d,NA,NA,NA,NA,sdf,0,5,NA,NA,NA,NA,NA,NA,NA,NA,NA,NA,NA,NA,NA,NA,NA,NA,NA,NA,NA
d2628,deep,flow.Sequence,3_0_5_0_2_0,NA,NA,completion,14821.377,744857,744850.264,744866.694,759688.071,759689.5,2023-11-04T08:50:45Z,759704.466,NULL,Vorwurf,mashtaka,d,NA,NA,NA,NA,sdf,NA,5,NA,NA,NA,NA,NA,NA,NA,NA,NA,NA,NA,NA,NA,NA,NA,NA,NA,NA,NA
d2628,shallow,flow.Sequence,3_0_5_0_2_1,NA,NA,skipped,NA,759689.69999999006,NA,NA,759688.071,759689.89999998,2023-11-04T08:50:45Z,759704.466,NULL,Vorwurf,mashtaka,d,NA,NA,NA,NA,sdf,NA,5,NA,NA,NA,NA,NA,NA,NA,NA,NA,NA,NA,NA,NA,NA,NA,NA,NA,NA,NA
d2628,task,flow.Sequence,3_0_5_0_2,NA,NA,completion,14821.377,744857,744850.264,744866.694,759688.071,759690,2023-11-04T08:50:45Z,759704.466,NULL,Vorwurf,mashtaka,d,NA,NA,NA,NA,sdf,NA,5,NA,NA,NA,NA,NA,NA,NA,NA,NA,NA,NA,NA,NA,NA,NA,NA,NA,NA,NA
d2628,Deep Question,html.Page,3_0_5_0_3_0_0,NA,NA,form submission,7713.1339999642,759690.19999999006,759688.071,759704.466,767417.59999996,767417.89999998,2023-11-04T08:50:52Z,767431.557,NULL,Körper,kiwiliwili,d,NA,NA,NA,kiwiliwili,NA,NA,5,NA,NA,NA,NA,NA,NA,NA,NA,NA,NA,NA,NA,NA,NA,NA,NA,NA,NA,NA
d2628,"""Richtig""-Screen",canvas.Screen,3_0_5_0_3_0_1,NA,NA,timeout,4995.776,767421.19999999006,767415.108,767431.557,772410.916,772412.09999996,2023-11-04T08:50:57Z,772427.333,NULL,Körper,kiwiliwili,d,NA,NA,NA,NA,sdf,1,5,NA,NA,NA,NA,NA,NA,NA,NA,NA,NA,NA,NA,NA,NA,NA,NA,NA,NA,NA
d2628,"""Falsch""-Screen",canvas.Screen,3_0_5_0_3_0_2,NA,NA,skipped,NA,772416.89999998,NA,NA,772410.916,772417.19999999006,2023-11-04T08:50:57Z,772427.333,NULL,Körper,kiwiliwili,d,NA,NA,NA,NA,sdf,NA,5,NA,NA,NA,NA,NA,NA,NA,NA,NA,NA,NA,NA,NA,NA,NA,NA,NA,NA,NA
d2628,deep,flow.Sequence,3_0_5_0_3_0,NA,NA,completion,12706.45,759690.19999999006,759688.071,759704.466,772410.916,772417.5,2023-11-04T08:50:57Z,772427.333,NULL,Körper,kiwiliwili,d,NA,NA,NA,NA,sdf,NA,5,NA,NA,NA,NA,NA,NA,NA,NA,NA,NA,NA,NA,NA,NA,NA,NA,NA,NA,NA
d2628,shallow,flow.Sequence,3_0_5_0_3_1,NA,NA,skipped,NA,772417.69999999006,NA,NA,772410.916,772417.80000001,2023-11-04T08:50:57Z,772427.333,NULL,Körper,kiwiliwili,d,NA,NA,NA,NA,sdf,NA,5,NA,NA,NA,NA,NA,NA,NA,NA,NA,NA,NA,NA,NA,NA,NA,NA,NA,NA,NA
d2628,task,flow.Sequence,3_0_5_0_3,NA,NA,completion,12706.45,759690.19999999006,759688.071,759704.466,772410.916,772418,2023-11-04T08:50:57Z,772427.333,NULL,Körper,kiwiliwili,d,NA,NA,NA,NA,sdf,NA,5,NA,NA,NA,NA,NA,NA,NA,NA,NA,NA,NA,NA,NA,NA,NA,NA,NA,NA,NA
d2628,deep,flow.Sequence,3_0_5_0_4_0,NA,NA,skipped,NA,772418.09999996,NA,NA,772410.916,772418.30000001,2023-11-04T08:50:57Z,772427.333,NULL,Niveau,kiwango,s,usimamizi,mwamali,mshairi,NA,sdf,NA,5,NA,NA,NA,NA,NA,NA,NA,NA,NA,NA,NA,NA,NA,NA,NA,NA,NA,NA,NA
d2628,Shallow Question,html.Page,3_0_5_0_4_1_0,NA,NA,form submission,3984.0669999762,772418.39999998,772410.916,772427.333,776411.39999998,776411.59999996,2023-11-04T08:51:01Z,776424.078,NULL,Niveau,kiwango,s,usimamizi,mwamali,mshairi,kiwango,NA,NA,5,NA,NA,NA,NA,NA,NA,NA,NA,NA,NA,NA,NA,NA,NA,NA,NA,NA,NA,NA
d2628,"""Richtig""-Screen",canvas.Screen,3_0_5_0_4_1_1,NA,NA,timeout,4995.848,776413.80000001,776407.682,776424.078,781403.364,781404.5,2023-11-04T08:51:06Z,781419.926,NULL,Niveau,kiwango,s,usimamizi,mwamali,mshairi,NA,sdf,1,5,NA,NA,NA,NA,NA,NA,NA,NA,NA,NA,NA,NA,NA,NA,NA,NA,NA,NA,NA
d2628,"""Falsch""-Screen",canvas.Screen,3_0_5_0_4_1_2,NA,NA,skipped,NA,781409.69999999006,NA,NA,781403.364,781409.89999998,2023-11-04T08:51:06Z,781419.926,NULL,Niveau,kiwango,s,usimamizi,mwamali,mshairi,NA,sdf,NA,5,NA,NA,NA,NA,NA,NA,NA,NA,NA,NA,NA,NA,NA,NA,NA,NA,NA,NA,NA
d2628,shallow,flow.Sequence,3_0_5_0_4_1,NA,NA,completion,8976.031,772418.39999998,772410.916,772427.333,781403.364,781410.30000001,2023-11-04T08:51:06Z,781419.926,NULL,Niveau,kiwango,s,usimamizi,mwamali,mshairi,NA,sdf,NA,5,NA,NA,NA,NA,NA,NA,NA,NA,NA,NA,NA,NA,NA,NA,NA,NA,NA,NA,NA
d2628,task,flow.Sequence,3_0_5_0_4,NA,NA,completion,8976.031,772418.09999996,772410.916,772427.333,781403.364,781410.5,2023-11-04T08:51:06Z,781419.926,NULL,Niveau,kiwango,s,usimamizi,mwamali,mshairi,NA,sdf,NA,5,NA,NA,NA,NA,NA,NA,NA,NA,NA,NA,NA,NA,NA,NA,NA,NA,NA,NA,NA
d2628,deep,flow.Sequence,3_0_5_0_5_0,NA,NA,skipped,NA,781410.80000001,NA,NA,781403.364,781410.80000001,2023-11-04T08:51:06Z,781419.926,NULL,Lawine,banguko,s,maambukizi,usuluhishi,chekechea,NA,sdf,NA,5,NA,NA,NA,NA,NA,NA,NA,NA,NA,NA,NA,NA,NA,NA,NA,NA,NA,NA,NA
d2628,Shallow Question,html.Page,3_0_5_0_5_1_0,NA,NA,form submission,3467.2739999881,781411,781403.364,781419.926,784887.19999999006,784887.5,2023-11-04T08:51:10Z,784900.38,NULL,Lawine,banguko,s,maambukizi,usuluhishi,chekechea,banguko,NA,NA,5,NA,NA,NA,NA,NA,NA,NA,NA,NA,NA,NA,NA,NA,NA,NA,NA,NA,NA,NA
d2628,"""Richtig""-Screen",canvas.Screen,3_0_5_0_5_1_1,NA,NA,timeout,4995.991,784889.59999996,784884.073,784900.38,789879.679,789881.09999996,2023-11-04T08:51:15Z,789896.371,NULL,Lawine,banguko,s,maambukizi,usuluhishi,chekechea,NA,sdf,1,5,NA,NA,NA,NA,NA,NA,NA,NA,NA,NA,NA,NA,NA,NA,NA,NA,NA,NA,NA
d2628,"""Falsch""-Screen",canvas.Screen,3_0_5_0_5_1_2,NA,NA,skipped,NA,789887,NA,NA,789879.679,789887.39999998,2023-11-04T08:51:15Z,789896.371,NULL,Lawine,banguko,s,maambukizi,usuluhishi,chekechea,NA,sdf,NA,5,NA,NA,NA,NA,NA,NA,NA,NA,NA,NA,NA,NA,NA,NA,NA,NA,NA,NA,NA
d2628,shallow,flow.Sequence,3_0_5_0_5_1,NA,NA,completion,8459.753,781411,781403.364,781419.926,789879.679,789887.80000001,2023-11-04T08:51:15Z,789896.371,NULL,Lawine,banguko,s,maambukizi,usuluhishi,chekechea,NA,sdf,NA,5,NA,NA,NA,NA,NA,NA,NA,NA,NA,NA,NA,NA,NA,NA,NA,NA,NA,NA,NA
d2628,task,flow.Sequence,3_0_5_0_5,NA,NA,completion,8459.753,781410.69999999006,781403.364,781419.926,789879.679,789888,2023-11-04T08:51:15Z,789896.371,NULL,Lawine,banguko,s,maambukizi,usuluhishi,chekechea,NA,sdf,NA,5,NA,NA,NA,NA,NA,NA,NA,NA,NA,NA,NA,NA,NA,NA,NA,NA,NA,NA,NA
d2628,deep,flow.Sequence,3_0_5_0_6_0,NA,NA,skipped,NA,789888.19999999006,NA,NA,789879.679,789888.30000000994,2023-11-04T08:51:15Z,789896.371,NULL,Papier,karatasi,s,uchambuzi,usalama,kukataliwa,NA,sdf,NA,5,NA,NA,NA,NA,NA,NA,NA,NA,NA,NA,NA,NA,NA,NA,NA,NA,NA,NA,NA
d2628,Shallow Question,html.Page,3_0_5_0_6_1_0,NA,NA,form submission,3623.129,789888.5,789879.679,789896.371,793519.5,793519.80000000994,2023-11-04T08:51:18Z,793526.613,NULL,Papier,karatasi,s,uchambuzi,usalama,kukataliwa,karatasi,NA,NA,5,NA,NA,NA,NA,NA,NA,NA,NA,NA,NA,NA,NA,NA,NA,NA,NA,NA,NA,NA
d2628,"""Richtig""-Screen",canvas.Screen,3_0_5_0_6_1_1,NA,NA,timeout,4995.9789999999,793521.80000000994,793510.287,793526.613,798506.185,798507.30000000994,2023-11-04T08:51:23Z,798522.592,NULL,Papier,karatasi,s,uchambuzi,usalama,kukataliwa,NA,sdf,1,5,NA,NA,NA,NA,NA,NA,NA,NA,NA,NA,NA,NA,NA,NA,NA,NA,NA,NA,NA
d2628,"""Falsch""-Screen",canvas.Screen,3_0_5_0_6_1_2,NA,NA,skipped,NA,798511.89999998,NA,NA,798506.185,798512.30000000994,2023-11-04T08:51:23Z,798522.592,NULL,Papier,karatasi,s,uchambuzi,usalama,kukataliwa,NA,sdf,NA,5,NA,NA,NA,NA,NA,NA,NA,NA,NA,NA,NA,NA,NA,NA,NA,NA,NA,NA,NA
d2628,shallow,flow.Sequence,3_0_5_0_6_1,NA,NA,completion,8609.814,789888.39999998,789879.679,789896.371,798506.185,798512.59999996,2023-11-04T08:51:23Z,798522.592,NULL,Papier,karatasi,s,uchambuzi,usalama,kukataliwa,NA,sdf,NA,5,NA,NA,NA,NA,NA,NA,NA,NA,NA,NA,NA,NA,NA,NA,NA,NA,NA,NA,NA
d2628,task,flow.Sequence,3_0_5_0_6,NA,NA,completion,8609.814,789888.19999999006,789879.679,789896.371,798506.185,798512.80000001,2023-11-04T08:51:23Z,798522.592,NULL,Papier,karatasi,s,uchambuzi,usalama,kukataliwa,NA,sdf,NA,5,NA,NA,NA,NA,NA,NA,NA,NA,NA,NA,NA,NA,NA,NA,NA,NA,NA,NA,NA
d2628,Deep Question,html.Page,3_0_5_0_7_0_0,NA,NA,form submission,8223.0079999643,798513,798506.185,798522.592,806745.59999996,806745.80000001,2023-11-04T08:51:32Z,806749.094,NULL,Übersicht,kilindo,d,NA,NA,NA,mashtaka,NA,NA,5,NA,NA,NA,NA,NA,NA,NA,NA,NA,NA,NA,NA,NA,NA,NA,NA,NA,NA,NA
d2628,"""Richtig""-Screen",canvas.Screen,3_0_5_0_7_0_1,NA,NA,skipped,NA,806749,NA,NA,806745.59999996,806749.5,2023-11-04T08:51:32Z,806749.094,NULL,Übersicht,kilindo,d,NA,NA,NA,NA,sdf,NA,5,NA,NA,NA,NA,NA,NA,NA,NA,NA,NA,NA,NA,NA,NA,NA,NA,NA,NA,NA
d2628,"""Falsch""-Screen",canvas.Screen,3_0_5_0_7_0_2,NA,NA,timeout,4995.9519999999,806750.80000000994,806732.762,806749.094,811728.656,811729.69999999006,2023-11-04T08:51:37Z,811745.046,NULL,Übersicht,kilindo,d,NA,NA,NA,NA,sdf,0,5,NA,NA,NA,NA,NA,NA,NA,NA,NA,NA,NA,NA,NA,NA,NA,NA,NA,NA,NA
d2628,deep,flow.Sequence,3_0_5_0_7_0,NA,NA,completion,13206.064,798513,798506.185,798522.592,811728.656,811730.09999996,2023-11-04T08:51:37Z,811745.046,NULL,Übersicht,kilindo,d,NA,NA,NA,NA,sdf,NA,5,NA,NA,NA,NA,NA,NA,NA,NA,NA,NA,NA,NA,NA,NA,NA,NA,NA,NA,NA
d2628,shallow,flow.Sequence,3_0_5_0_7_1,NA,NA,skipped,NA,811730.19999999006,NA,NA,811728.656,811730.39999998,2023-11-04T08:51:37Z,811745.046,NULL,Übersicht,kilindo,d,NA,NA,NA,NA,sdf,NA,5,NA,NA,NA,NA,NA,NA,NA,NA,NA,NA,NA,NA,NA,NA,NA,NA,NA,NA,NA
d2628,task,flow.Sequence,3_0_5_0_7,NA,NA,completion,13206.064,798513,798506.185,798522.592,811728.656,811730.59999996,2023-11-04T08:51:37Z,811745.046,NULL,Übersicht,kilindo,d,NA,NA,NA,NA,sdf,NA,5,NA,NA,NA,NA,NA,NA,NA,NA,NA,NA,NA,NA,NA,NA,NA,NA,NA,NA,NA
d2628,block,flow.Loop,3_0_5_0,NA,NA,completion,92490.947,719234.80000001,719154.464,719237.709,811728.656,811730.80000001,2023-11-04T08:51:37Z,811745.046,NULL,NA,NA,NA,NA,NA,NA,NA,sdf,NA,5,NA,NA,NA,NA,NA,NA,NA,NA,NA,NA,NA,NA,NA,NA,NA,NA,NA,NA,NA
d2628,weiter,canvas.Screen,3_0_5_1,sdf,keypress(Space),response,1206.2540000119,811730.89999998,811728.656,811745.046,812951.30000001,812953.19999999006,2023-11-04T08:51:38Z,813010.639,NULL,NA,NA,NA,NA,NA,NA,NA,sdf,NA,5,NA,NA,NA,NA,NA,NA,NA,NA,NA,NA,NA,NA,NA,NA,NA,NA,NA,NA,NA
d2628,check continue,flow.Sequence,3_0_5,NA,NA,completion,93713.591000012,719234.69999999006,719154.464,719237.709,812951.30000001,812953.69999999006,2023-11-04T08:51:38Z,813010.639,NULL,NA,NA,NA,NA,NA,NA,NA,sdf,NA,5,NA,NA,NA,NA,NA,NA,NA,NA,NA,NA,NA,NA,NA,NA,NA,NA,NA,NA,NA
d2628,deep,flow.Sequence,3_0_6_0_0_0,NA,NA,skipped,NA,813019.30000001,NA,NA,812951.30000001,813019.59999996,2023-11-04T08:51:38Z,813010.639,NULL,Niveau,kiwango,s,usimamizi,mwamali,mshairi,NA,dfs,NA,6,NA,NA,NA,NA,NA,NA,NA,NA,NA,NA,NA,NA,NA,NA,NA,NA,NA,NA,NA
d2628,Shallow Question,html.Page,3_0_6_0_0_1_0,NA,NA,form submission,4398.9609999643,813019.89999998,812944.298,813010.639,817409.59999996,817410,2023-11-04T08:51:42Z,817423.708,NULL,Niveau,kiwango,s,usimamizi,mwamali,mshairi,kiwango,NA,NA,6,NA,NA,NA,NA,NA,NA,NA,NA,NA,NA,NA,NA,NA,NA,NA,NA,NA,NA,NA
d2628,"""Richtig""-Screen",canvas.Screen,3_0_6_0_0_1_1,NA,NA,timeout,4995.839,817412.19999999006,817407.071,817423.708,822403.224,822404.39999998,2023-11-04T08:51:47Z,822419.547,NULL,Niveau,kiwango,s,usimamizi,mwamali,mshairi,NA,dfs,1,6,NA,NA,NA,NA,NA,NA,NA,NA,NA,NA,NA,NA,NA,NA,NA,NA,NA,NA,NA
d2628,"""Falsch""-Screen",canvas.Screen,3_0_6_0_0_1_2,NA,NA,skipped,NA,822409.59999996,NA,NA,822403.224,822409.89999998,2023-11-04T08:51:47Z,822419.547,NULL,Niveau,kiwango,s,usimamizi,mwamali,mshairi,NA,dfs,NA,6,NA,NA,NA,NA,NA,NA,NA,NA,NA,NA,NA,NA,NA,NA,NA,NA,NA,NA,NA
d2628,shallow,flow.Sequence,3_0_6_0_0_1,NA,NA,completion,9392.5850000001,813019.80000001,812944.298,813010.639,822403.224,822410.30000000994,2023-11-04T08:51:47Z,822419.547,NULL,Niveau,kiwango,s,usimamizi,mwamali,mshairi,NA,dfs,NA,6,NA,NA,NA,NA,NA,NA,NA,NA,NA,NA,NA,NA,NA,NA,NA,NA,NA,NA,NA
d2628,task,flow.Sequence,3_0_6_0_0,NA,NA,completion,9392.5850000001,813018.39999998,812944.298,813010.639,822403.224,822410.5,2023-11-04T08:51:47Z,822419.547,NULL,Niveau,kiwango,s,usimamizi,mwamali,mshairi,NA,dfs,NA,6,NA,NA,NA,NA,NA,NA,NA,NA,NA,NA,NA,NA,NA,NA,NA,NA,NA,NA,NA
d2628,Deep Question,html.Page,3_0_6_0_1_0_0,NA,NA,form submission,6279.8529999761,822410.80000001,822403.224,822419.547,828699.39999998,828699.80000001,2023-11-04T08:51:54Z,828714.433,NULL,Vorwurf,mashtaka,d,NA,NA,NA,mashtaka,NA,NA,6,NA,NA,NA,NA,NA,NA,NA,NA,NA,NA,NA,NA,NA,NA,NA,NA,NA,NA,NA
d2628,"""Richtig""-Screen",canvas.Screen,3_0_6_0_1_0_1,NA,NA,timeout,4995.853,828702.69999999006,828698.062,828714.433,833693.913,833694.89999998,2023-11-04T08:51:59Z,833710.286,NULL,Vorwurf,mashtaka,d,NA,NA,NA,NA,dfs,1,6,NA,NA,NA,NA,NA,NA,NA,NA,NA,NA,NA,NA,NA,NA,NA,NA,NA,NA,NA
d2628,"""Falsch""-Screen",canvas.Screen,3_0_6_0_1_0_2,NA,NA,skipped,NA,833699.5,NA,NA,833693.913,833699.80000001,2023-11-04T08:51:59Z,833710.286,NULL,Vorwurf,mashtaka,d,NA,NA,NA,NA,dfs,NA,6,NA,NA,NA,NA,NA,NA,NA,NA,NA,NA,NA,NA,NA,NA,NA,NA,NA,NA,NA
d2628,deep,flow.Sequence,3_0_6_0_1_0,NA,NA,completion,11274.366,822410.80000001,822403.224,822419.547,833693.913,833700.19999999006,2023-11-04T08:51:59Z,833710.286,NULL,Vorwurf,mashtaka,d,NA,NA,NA,NA,dfs,NA,6,NA,NA,NA,NA,NA,NA,NA,NA,NA,NA,NA,NA,NA,NA,NA,NA,NA,NA,NA
d2628,shallow,flow.Sequence,3_0_6_0_1_1,NA,NA,skipped,NA,833700.30000001,NA,NA,833693.913,833700.39999998,2023-11-04T08:51:59Z,833710.286,NULL,Vorwurf,mashtaka,d,NA,NA,NA,NA,dfs,NA,6,NA,NA,NA,NA,NA,NA,NA,NA,NA,NA,NA,NA,NA,NA,NA,NA,NA,NA,NA
d2628,task,flow.Sequence,3_0_6_0_1,NA,NA,completion,11274.366,822410.69999999006,822403.224,822419.547,833693.913,833700.59999996,2023-11-04T08:51:59Z,833710.286,NULL,Vorwurf,mashtaka,d,NA,NA,NA,NA,dfs,NA,6,NA,NA,NA,NA,NA,NA,NA,NA,NA,NA,NA,NA,NA,NA,NA,NA,NA,NA,NA
d2628,Deep Question,html.Page,3_0_6_0_2_0_0,NA,NA,form submission,11347.014000012001,833700.80000001,833693.913,833710.286,845057.30000001,845057.69999999006,2023-11-04T08:52:10Z,845067.622,NULL,Übersicht,kilindo,d,NA,NA,NA,kiwelo,NA,NA,6,NA,NA,NA,NA,NA,NA,NA,NA,NA,NA,NA,NA,NA,NA,NA,NA,NA,NA,NA
