observation,sender,sender_type,sender_id,response,response_action,ended_on,duration,time_run,time_render,time_show,time_end,time_commit,timestamp,time_switch,german,swahili,enc,distractor1,distractor2,distractor3,response_2,x,correct,distractors,url_vp,url_sess,meta_labjs_version,meta_location,meta_user_agent,meta_platform,meta_language,meta_locale,meta_time_zone,meta_timezone_offset,meta_screen_width,meta_screen_height,meta_scroll_width,meta_scroll_height,meta_window_inner_width,meta_window_inner_height,meta_device_pixel_ratio,meta_labjs_build_flavor,meta_labjs_build_commit
63459,Introduction delayed retrieval,canvas.Screen,0,weiter,keypress(Space),response,2123.3,335.60000038147,170.3,353.7,2477,2479.9000005722,2024-03-11T13:03:59Z,2487,NA,NA,NA,NA,NA,NA,NA,NA,NA,NULL,156,"2",20.2.4,https://neurocog.fernuni.ch/studies/vweber/jbaenninger/delayed/index.html?vp=156&sess=2%0d,"Mozilla/5.0 (Windows NT 10.0; Win64; x64) AppleWebKit/537.36 (KHTML, like Gecko) Chrome/122.0.0.0 Safari/537.36 Edg/122.0.0.0",Win32,de,de-CH,Europe/Zurich,-60,1920,1080,1872,910,1872,958,1,production,f5b4a49f956347addd546a832a3327688c2c0fef
63459,Deep Question,html.Page,1_0_0_0,NA,NA,form submission,11222.100000381,2480.5,2470.43,2487,13709.100000381,13709.400000572,2024-03-11T13:04:10Z,13720.3,Gefährdung,kuhatarisha,s,uchokozi,udhaifu,makorowezo,gg,NA,NA,NULL,NA,NA,NA,NA,NA,NA,NA,NA,NA,NA,NA,NA,NA,NA,NA,NA,NA,NA,NA
63459,Save data screen,canvas.Screen,1_0_0_1,NA,NA,timeout,500.1,13710.400000572,13703.8,13720.3,14203.7,14204.800000191,2024-03-11T13:04:11Z,14220.4,Gefährdung,kuhatarisha,s,uchokozi,udhaifu,makorowezo,NA,NA,0,NULL,NA,NA,NA,NA,NA,NA,NA,NA,NA,NA,NA,NA,NA,NA,NA,NA,NA,NA,NA
63459,deep,flow.Sequence,1_0_0,NA,NA,completion,11716.7,2480.4000005722,2470.43,2487,14203.7,14205.199999809,2024-03-11T13:04:11Z,14220.4,Gefährdung,kuhatarisha,s,uchokozi,udhaifu,makorowezo,NA,NA,NA,NULL,NA,NA,NA,NA,NA,NA,NA,NA,NA,NA,NA,NA,NA,NA,NA,NA,NA,NA,NA
63459,task,flow.Sequence,1_0,NA,NA,completion,11716.7,2480.4000005722,2470.43,2487,14203.7,14205.300000191,2024-03-11T13:04:11Z,14220.4,Gefährdung,kuhatarisha,s,uchokozi,udhaifu,makorowezo,NA,NA,NA,NULL,NA,NA,NA,NA,NA,NA,NA,NA,NA,NA,NA,NA,NA,NA,NA,NA,NA,NA,NA
63459,Deep Question,html.Page,1_1_0_0,NA,NA,form submission,18780.900000191,14205.600000381,14203.7,14220.4,33001.300000191,33001.600000381,2024-03-11T13:04:30Z,33003.7,Kultur,utamaduni,s,shetani,gerezani,mazingira,gg,NA,NA,NULL,NA,NA,NA,NA,NA,NA,NA,NA,NA,NA,NA,NA,NA,NA,NA,NA,NA,NA,NA
63459,Save data screen,canvas.Screen,1_1_0_1,NA,NA,timeout,499.9,33002.600000381,32987.138,33003.7,33487.1,33487.900000572,2024-03-11T13:04:30Z,33503.6,Kultur,utamaduni,s,shetani,gerezani,mazingira,NA,NA,0,NULL,NA,NA,NA,NA,NA,NA,NA,NA,NA,NA,NA,NA,NA,NA,NA,NA,NA,NA,NA
63459,deep,flow.Sequence,1_1_0,NA,NA,completion,19266.7,14205.5,14203.7,14220.4,33487.1,33488.300000191,2024-03-11T13:04:30Z,33503.6,Kultur,utamaduni,s,shetani,gerezani,mazingira,NA,NA,NA,NULL,NA,NA,NA,NA,NA,NA,NA,NA,NA,NA,NA,NA,NA,NA,NA,NA,NA,NA,NA
63459,task,flow.Sequence,1_1,NA,NA,completion,19266.7,14205.5,14203.7,14220.4,33487.1,33488.5,2024-03-11T13:04:30Z,33503.6,Kultur,utamaduni,s,shetani,gerezani,mazingira,NA,NA,NA,NULL,NA,NA,NA,NA,NA,NA,NA,NA,NA,NA,NA,NA,NA,NA,NA,NA,NA,NA,NA
63459,Deep Question,html.Page,1_2_0_0,NA,NA,form submission,5621.5999998093,33496.400000572,33487.1,33503.6,39125.199999809,39125.5,2024-03-11T13:04:36Z,39137.1,Übersicht,kilindo,s,mgusano,chipukizi,kulinganisha,kk,NA,NA,NULL,NA,NA,NA,NA,NA,NA,NA,NA,NA,NA,NA,NA,NA,NA,NA,NA,NA,NA,NA
63459,Save data screen,canvas.Screen,1_2_0_1,NA,NA,timeout,500.1,39126,39120.5,39137.1,39620.3,39621.300000191,2024-03-11T13:04:36Z,39637.2,Übersicht,kilindo,s,mgusano,chipukizi,kulinganisha,NA,NA,0,NULL,NA,NA,NA,NA,NA,NA,NA,NA,NA,NA,NA,NA,NA,NA,NA,NA,NA,NA,NA
63459,deep,flow.Sequence,1_2_0,NA,NA,completion,6116.7,33496.300000191,33487.1,33503.6,39620.3,39621.600000381,2024-03-11T13:04:36Z,39637.2,Übersicht,kilindo,s,mgusano,chipukizi,kulinganisha,NA,NA,NA,NULL,NA,NA,NA,NA,NA,NA,NA,NA,NA,NA,NA,NA,NA,NA,NA,NA,NA,NA,NA
63459,task,flow.Sequence,1_2,NA,NA,completion,6116.7,33496.199999809,33487.1,33503.6,39620.3,39621.800000191,2024-03-11T13:04:36Z,39637.2,Übersicht,kilindo,s,mgusano,chipukizi,kulinganisha,NA,NA,NA,NULL,NA,NA,NA,NA,NA,NA,NA,NA,NA,NA,NA,NA,NA,NA,NA,NA,NA,NA,NA
63459,Deep Question,html.Page,1_3_0_0,NA,NA,form submission,1986.9000003815,39622,39620.3,39637.2,41624.100000381,41624.300000191,2024-03-11T13:04:38Z,41637.1,Verzögerung,kuchelewa,s,mwakilishi,mwanauchumi,jaribio,kk,NA,NA,NULL,NA,NA,NA,NA,NA,NA,NA,NA,NA,NA,NA,NA,NA,NA,NA,NA,NA,NA,NA
63459,Save data screen,canvas.Screen,1_3_0_1,NA,NA,timeout,500,41625,41620.518,41637.1,42120.4,42121.199999809,2024-03-11T13:04:39Z,42137.1,Verzögerung,kuchelewa,s,mwakilishi,mwanauchumi,jaribio,NA,NA,0,NULL,NA,NA,NA,NA,NA,NA,NA,NA,NA,NA,NA,NA,NA,NA,NA,NA,NA,NA,NA
63459,deep,flow.Sequence,1_3_0,NA,NA,completion,2483.2,39621.900000572,39620.3,39637.2,42120.4,42121.5,2024-03-11T13:04:39Z,42137.1,Verzögerung,kuchelewa,s,mwakilishi,mwanauchumi,jaribio,NA,NA,NA,NULL,NA,NA,NA,NA,NA,NA,NA,NA,NA,NA,NA,NA,NA,NA,NA,NA,NA,NA,NA
63459,task,flow.Sequence,1_3,NA,NA,completion,2483.2,39621.800000191,39620.3,39637.2,42120.4,42121.699999809,2024-03-11T13:04:39Z,42137.1,Verzögerung,kuchelewa,s,mwakilishi,mwanauchumi,jaribio,NA,NA,NA,NULL,NA,NA,NA,NA,NA,NA,NA,NA,NA,NA,NA,NA,NA,NA,NA,NA,NA,NA,NA
63459,Deep Question,html.Page,1_4_0_0,NA,NA,form submission,3685.0999998093,42121.800000191,42120.4,42137.1,45822.199999809,45822.400000572,2024-03-11T13:04:42Z,45837.1,Angreifer,mshambulizi,d,kitengo,tasinia,usafirishaji,kk,NA,NA,NULL,NA,NA,NA,NA,NA,NA,NA,NA,NA,NA,NA,NA,NA,NA,NA,NA,NA,NA,NA
63459,Save data screen,canvas.Screen,1_4_0_1,NA,NA,timeout,500.1,45823.100000381,45820.494,45837.1,46320.4,46321.300000191,2024-03-11T13:04:43Z,46337.2,Angreifer,mshambulizi,d,kitengo,tasinia,usafirishaji,NA,NA,0,NULL,NA,NA,NA,NA,NA,NA,NA,NA,NA,NA,NA,NA,NA,NA,NA,NA,NA,NA,NA
63459,deep,flow.Sequence,1_4_0,NA,NA,completion,4183.3,42121.800000191,42120.4,42137.1,46320.4,46321.5,2024-03-11T13:04:43Z,46337.2,Angreifer,mshambulizi,d,kitengo,tasinia,usafirishaji,NA,NA,NA,NULL,NA,NA,NA,NA,NA,NA,NA,NA,NA,NA,NA,NA,NA,NA,NA,NA,NA,NA,NA
63459,task,flow.Sequence,1_4,NA,NA,completion,4183.3,42121.800000191,42120.4,42137.1,46320.4,46321.699999809,2024-03-11T13:04:43Z,46337.2,Angreifer,mshambulizi,d,kitengo,tasinia,usafirishaji,NA,NA,NA,NULL,NA,NA,NA,NA,NA,NA,NA,NA,NA,NA,NA,NA,NA,NA,NA,NA,NA,NA,NA
63459,Deep Question,html.Page,1_5_0_0,NA,NA,form submission,11828.400000381,46321.900000572,46320.4,46337.2,58165.600000381,58165.699999809,2024-03-11T13:04:55Z,58170.438,Lawine,banguko,d,maambukizi,usuluhishi,chekechea,Bankugo,NA,NA,NULL,NA,NA,NA,NA,NA,NA,NA,NA,NA,NA,NA,NA,NA,NA,NA,NA,NA,NA,NA
63459,Save data screen,canvas.Screen,1_5_0_1,NA,NA,timeout,500.062,58166.100000381,58170.438,58170.438,58653.8,58654.400000572,2024-03-11T13:04:55Z,58670.5,Lawine,banguko,d,maambukizi,usuluhishi,chekechea,NA,NA,0,NULL,NA,NA,NA,NA,NA,NA,NA,NA,NA,NA,NA,NA,NA,NA,NA,NA,NA,NA,NA
63459,deep,flow.Sequence,1_5_0,NA,NA,completion,12316.6,46321.900000572,46320.4,46337.2,58653.8,58654.800000191,2024-03-11T13:04:55Z,58670.5,Lawine,banguko,d,maambukizi,usuluhishi,chekechea,NA,NA,NA,NULL,NA,NA,NA,NA,NA,NA,NA,NA,NA,NA,NA,NA,NA,NA,NA,NA,NA,NA,NA
63459,task,flow.Sequence,1_5,NA,NA,completion,12316.6,46321.800000191,46320.4,46337.2,58653.8,58655,2024-03-11T13:04:55Z,58670.5,Lawine,banguko,d,maambukizi,usuluhishi,chekechea,NA,NA,NA,NULL,NA,NA,NA,NA,NA,NA,NA,NA,NA,NA,NA,NA,NA,NA,NA,NA,NA,NA,NA
63459,Deep Question,html.Page,1_6_0_0,NA,NA,form submission,24726.400000572,58655.199999809,58653.8,58670.5,83396.900000572,83397.100000381,2024-03-11T13:05:20Z,83403.6,System,maongozi,d,chokochoko,nuksani,mitaani,kk,NA,NA,NULL,NA,NA,NA,NA,NA,NA,NA,NA,NA,NA,NA,NA,NA,NA,NA,NA,NA,NA,NA
63459,Save data screen,canvas.Screen,1_6_0_1,NA,NA,timeout,500.2,83398.900000572,83387.128,83403.6,83887.1,83887.900000572,2024-03-11T13:05:20Z,83903.8,System,maongozi,d,chokochoko,nuksani,mitaani,NA,NA,0,NULL,NA,NA,NA,NA,NA,NA,NA,NA,NA,NA,NA,NA,NA,NA,NA,NA,NA,NA,NA
63459,deep,flow.Sequence,1_6_0,NA,NA,completion,25216.6,58655.199999809,58653.8,58670.5,83887.1,83888.100000381,2024-03-11T13:05:20Z,83903.8,System,maongozi,d,chokochoko,nuksani,mitaani,NA,NA,NA,NULL,NA,NA,NA,NA,NA,NA,NA,NA,NA,NA,NA,NA,NA,NA,NA,NA,NA,NA,NA
63459,task,flow.Sequence,1_6,NA,NA,completion,25216.6,58655.100000381,58653.8,58670.5,83887.1,83888.300000191,2024-03-11T13:05:20Z,83903.8,System,maongozi,d,chokochoko,nuksani,mitaani,NA,NA,NA,NULL,NA,NA,NA,NA,NA,NA,NA,NA,NA,NA,NA,NA,NA,NA,NA,NA,NA,NA,NA
63459,Deep Question,html.Page,1_7_0_0,NA,NA,form submission,2985.5000001907,83888.5,83887.1,83903.8,86889.300000191,86889.5,2024-03-11T13:05:23Z,86903.7,Können,unaweza,d,kiongozi,bustani,mienendo,kk,NA,NA,NULL,NA,NA,NA,NA,NA,NA,NA,NA,NA,NA,NA,NA,NA,NA,NA,NA,NA,NA,NA
63459,Save data screen,canvas.Screen,1_7_0_1,NA,NA,timeout,500.10000000001,86890,86887.2,86903.7,87387.1,87387.800000191,2024-03-11T13:05:24Z,87403.8,Können,unaweza,d,kiongozi,bustani,mienendo,NA,NA,0,NULL,NA,NA,NA,NA,NA,NA,NA,NA,NA,NA,NA,NA,NA,NA,NA,NA,NA,NA,NA
63459,deep,flow.Sequence,1_7_0,NA,NA,completion,3483.3,83888.5,83887.1,83903.8,87387.1,87388.100000381,2024-03-11T13:05:24Z,87403.8,Können,unaweza,d,kiongozi,bustani,mienendo,NA,NA,NA,NULL,NA,NA,NA,NA,NA,NA,NA,NA,NA,NA,NA,NA,NA,NA,NA,NA,NA,NA,NA
63459,task,flow.Sequence,1_7,NA,NA,completion,3483.3,83888.400000572,83887.1,83903.8,87387.1,87388.199999809,2024-03-11T13:05:24Z,87403.8,Können,unaweza,d,kiongozi,bustani,mienendo,NA,NA,NA,NULL,NA,NA,NA,NA,NA,NA,NA,NA,NA,NA,NA,NA,NA,NA,NA,NA,NA,NA,NA
63459,Deep Question,html.Page,1_8_0_0,NA,NA,form submission,2405.3000003815,87388.400000572,87387.1,87403.8,89809.100000381,89809.199999809,2024-03-11T13:05:26Z,89820.4,Körper,kiwiliwili,s,mapambano,mpatanishi,kiolezo,kk,NA,NA,NULL,NA,NA,NA,NA,NA,NA,NA,NA,NA,NA,NA,NA,NA,NA,NA,NA,NA,NA,NA
63459,Save data screen,canvas.Screen,1_8_0_1,NA,NA,timeout,500.10000000001,89810.699999809,89803.774,89820.4,90303.8,90304.600000381,2024-03-11T13:05:27Z,90320.5,Körper,kiwiliwili,s,mapambano,mpatanishi,kiolezo,NA,NA,0,NULL,NA,NA,NA,NA,NA,NA,NA,NA,NA,NA,NA,NA,NA,NA,NA,NA,NA,NA,NA
63459,deep,flow.Sequence,1_8_0,NA,NA,completion,2900,87388.300000191,87387.1,87403.8,90303.8,90304.800000191,2024-03-11T13:05:27Z,90320.5,Körper,kiwiliwili,s,mapambano,mpatanishi,kiolezo,NA,NA,NA,NULL,NA,NA,NA,NA,NA,NA,NA,NA,NA,NA,NA,NA,NA,NA,NA,NA,NA,NA,NA
63459,task,flow.Sequence,1_8,NA,NA,completion,2900,87388.300000191,87387.1,87403.8,90303.8,90305,2024-03-11T13:05:27Z,90320.5,Körper,kiwiliwili,s,mapambano,mpatanishi,kiolezo,NA,NA,NA,NULL,NA,NA,NA,NA,NA,NA,NA,NA,NA,NA,NA,NA,NA,NA,NA,NA,NA,NA,NA
63459,Deep Question,html.Page,1_9_0_0,NA,NA,form submission,5318.8000001907,90305.199999809,90303.8,90320.5,95639.300000191,95639.400000572,2024-03-11T13:05:32Z,95653.8,Sänger,mwimbaji,d,msichana,shughuli,mshirika,kk,NA,NA,NULL,NA,NA,NA,NA,NA,NA,NA,NA,NA,NA,NA,NA,NA,NA,NA,NA,NA,NA,NA
63459,Save data screen,canvas.Screen,1_9_0_1,NA,NA,timeout,500,95641,95637.108,95653.8,96137.1,96137.800000191,2024-03-11T13:05:33Z,96153.8,Sänger,mwimbaji,d,msichana,shughuli,mshirika,NA,NA,0,NULL,NA,NA,NA,NA,NA,NA,NA,NA,NA,NA,NA,NA,NA,NA,NA,NA,NA,NA,NA
63459,deep,flow.Sequence,1_9_0,NA,NA,completion,5816.6,90305.199999809,90303.8,90320.5,96137.1,96138.199999809,2024-03-11T13:05:33Z,96153.8,Sänger,mwimbaji,d,msichana,shughuli,mshirika,NA,NA,NA,NULL,NA,NA,NA,NA,NA,NA,NA,NA,NA,NA,NA,NA,NA,NA,NA,NA,NA,NA,NA
63459,task,flow.Sequence,1_9,NA,NA,completion,5816.6,90305.100000381,90303.8,90320.5,96137.1,96138.300000191,2024-03-11T13:05:33Z,96153.8,Sänger,mwimbaji,d,msichana,shughuli,mshirika,NA,NA,NA,NULL,NA,NA,NA,NA,NA,NA,NA,NA,NA,NA,NA,NA,NA,NA,NA,NA,NA,NA,NA
63459,Deep Question,html.Page,1_10_0_0,NA,NA,form submission,48551.000000191,96138.5,96137.1,96153.8,144704.80000019,144705,2024-03-11T13:06:21Z,144720.4,Kreativität,ubunifu,d,mratibu,mwendelezo,makubaliano,kk,NA,NA,NULL,NA,NA,NA,NA,NA,NA,NA,NA,NA,NA,NA,NA,NA,NA,NA,NA,NA,NA,NA
63459,Save data screen,canvas.Screen,1_10_0_1,NA,NA,timeout,500,144706.69999981,144703.768,144720.4,145203.7,145204.5,2024-03-11T13:06:22Z,145220.4,Kreativität,ubunifu,d,mratibu,mwendelezo,makubaliano,NA,NA,0,NULL,NA,NA,NA,NA,NA,NA,NA,NA,NA,NA,NA,NA,NA,NA,NA,NA,NA,NA,NA
63459,deep,flow.Sequence,1_10_0,NA,NA,completion,49049.9,96138.400000572,96137.1,96153.8,145203.7,145204.69999981,2024-03-11T13:06:22Z,145220.4,Kreativität,ubunifu,d,mratibu,mwendelezo,makubaliano,NA,NA,NA,NULL,NA,NA,NA,NA,NA,NA,NA,NA,NA,NA,NA,NA,NA,NA,NA,NA,NA,NA,NA
63459,task,flow.Sequence,1_10,NA,NA,completion,49049.9,96138.400000572,96137.1,96153.8,145203.7,145204.90000057,2024-03-11T13:06:22Z,145220.4,Kreativität,ubunifu,d,mratibu,mwendelezo,makubaliano,NA,NA,NA,NULL,NA,NA,NA,NA,NA,NA,NA,NA,NA,NA,NA,NA,NA,NA,NA,NA,NA,NA,NA
63459,Deep Question,html.Page,1_11_0_0,NA,NA,form submission,1328.5000005722,145205.10000038001,145203.7,145220.4,146548.90000057,146549,2024-03-11T13:06:23Z,146553.6,Prüfung,mtihani,d,mkulima,mtizamo,ufumbuzi,kk,NA,NA,NULL,NA,NA,NA,NA,NA,NA,NA,NA,NA,NA,NA,NA,NA,NA,NA,NA,NA,NA,NA
63459,Save data screen,canvas.Screen,1_11_0_1,NA,NA,timeout,500.19999999998,146549.5,146537.06,146553.6,147037.1,147037.80000019,2024-03-11T13:06:23Z,147053.8,Prüfung,mtihani,d,mkulima,mtizamo,ufumbuzi,NA,NA,0,NULL,NA,NA,NA,NA,NA,NA,NA,NA,NA,NA,NA,NA,NA,NA,NA,NA,NA,NA,NA
63459,deep,flow.Sequence,1_11_0,NA,NA,completion,1816.7,145205.10000038001,145203.7,145220.4,147037.1,147038.10000038001,2024-03-11T13:06:23Z,147053.8,Prüfung,mtihani,d,mkulima,mtizamo,ufumbuzi,NA,NA,NA,NULL,NA,NA,NA,NA,NA,NA,NA,NA,NA,NA,NA,NA,NA,NA,NA,NA,NA,NA,NA
63459,task,flow.Sequence,1_11,NA,NA,completion,1816.7,145205,145203.7,145220.4,147037.1,147038.30000019,2024-03-11T13:06:23Z,147053.8,Prüfung,mtihani,d,mkulima,mtizamo,ufumbuzi,NA,NA,NA,NULL,NA,NA,NA,NA,NA,NA,NA,NA,NA,NA,NA,NA,NA,NA,NA,NA,NA,NA,NA
63459,Deep Question,html.Page,1_12_0_0,NA,NA,form submission,4793.3000003815,147038.40000057,147037.1,147053.8,151847.10000038001,151847.30000019,2024-03-11T13:06:28Z,151853.6,Kanzler,diwani,s,rasilmali,mahitaji,maabudu,dawami,NA,NA,NULL,NA,NA,NA,NA,NA,NA,NA,NA,NA,NA,NA,NA,NA,NA,NA,NA,NA,NA,NA
63459,Save data screen,canvas.Screen,1_12_0_1,NA,NA,timeout,500.10000000001,151848.69999981,151837.082,151853.6,152337.1,152337.69999981,2024-03-11T13:06:29Z,152353.7,Kanzler,diwani,s,rasilmali,mahitaji,maabudu,NA,NA,0,NULL,NA,NA,NA,NA,NA,NA,NA,NA,NA,NA,NA,NA,NA,NA,NA,NA,NA,NA,NA
63459,deep,flow.Sequence,1_12_0,NA,NA,completion,5283.3,147038.30000019,147037.1,147053.8,152337.1,152338,2024-03-11T13:06:29Z,152353.7,Kanzler,diwani,s,rasilmali,mahitaji,maabudu,NA,NA,NA,NULL,NA,NA,NA,NA,NA,NA,NA,NA,NA,NA,NA,NA,NA,NA,NA,NA,NA,NA,NA
63459,task,flow.Sequence,1_12,NA,NA,completion,5283.3,147038.30000019,147037.1,147053.8,152337.1,152338.10000038001,2024-03-11T13:06:29Z,152353.7,Kanzler,diwani,s,rasilmali,mahitaji,maabudu,NA,NA,NA,NULL,NA,NA,NA,NA,NA,NA,NA,NA,NA,NA,NA,NA,NA,NA,NA,NA,NA,NA,NA
63459,Deep Question,html.Page,1_13_0_0,NA,NA,form submission,6172.2000005722,152338.30000019,152337.1,152353.7,158525.90000057,158526.10000038001,2024-03-11T13:06:35Z,158537.1,Kontrolle,kudhibiti,s,mbinguni,kufunga,utegemezi,kk,NA,NA,NULL,NA,NA,NA,NA,NA,NA,NA,NA,NA,NA,NA,NA,NA,NA,NA,NA,NA,NA,NA
63459,Save data screen,canvas.Screen,1_13_0_1,NA,NA,timeout,500,158527.69999981,158520.404,158537.1,159020.4,159021,2024-03-11T13:06:35Z,159037.1,Kontrolle,kudhibiti,s,mbinguni,kufunga,utegemezi,NA,NA,0,NULL,NA,NA,NA,NA,NA,NA,NA,NA,NA,NA,NA,NA,NA,NA,NA,NA,NA,NA,NA
63459,deep,flow.Sequence,1_13_0,NA,NA,completion,6666.7,152338.30000019,152337.1,152353.7,159020.4,159021.40000057,2024-03-11T13:06:35Z,159037.1,Kontrolle,kudhibiti,s,mbinguni,kufunga,utegemezi,NA,NA,NA,NULL,NA,NA,NA,NA,NA,NA,NA,NA,NA,NA,NA,NA,NA,NA,NA,NA,NA,NA,NA
63459,task,flow.Sequence,1_13,NA,NA,completion,6666.7,152338.19999981,152337.1,152353.7,159020.4,159021.5,2024-03-11T13:06:35Z,159037.1,Kontrolle,kudhibiti,s,mbinguni,kufunga,utegemezi,NA,NA,NA,NULL,NA,NA,NA,NA,NA,NA,NA,NA,NA,NA,NA,NA,NA,NA,NA,NA,NA,NA,NA
63459,Deep Question,html.Page,1_14_0_0,NA,NA,form submission,1599.8000005722,159021.69999981,159020.4,159037.1,160636.90000057,160637.10000038001,2024-03-11T13:06:37Z,160655.1,Abrechnung,uhasibu,s,kusahihisha,mpambano,mashambulizi,kk,NA,NA,NULL,NA,NA,NA,NA,NA,NA,NA,NA,NA,NA,NA,NA,NA,NA,NA,NA,NA,NA,NA
63459,Save data screen,canvas.Screen,1_14_0_1,NA,NA,timeout,498.69999999998,160637.69999981,160637.06,160655.1,161137.1,161137.80000019,2024-03-11T13:06:37Z,161153.8,Abrechnung,uhasibu,s,kusahihisha,mpambano,mashambulizi,NA,NA,0,NULL,NA,NA,NA,NA,NA,NA,NA,NA,NA,NA,NA,NA,NA,NA,NA,NA,NA,NA,NA
63459,deep,flow.Sequence,1_14_0,NA,NA,completion,2100,159021.69999981,159020.4,159037.1,161137.1,161138.10000038001,2024-03-11T13:06:37Z,161153.8,Abrechnung,uhasibu,s,kusahihisha,mpambano,mashambulizi,NA,NA,NA,NULL,NA,NA,NA,NA,NA,NA,NA,NA,NA,NA,NA,NA,NA,NA,NA,NA,NA,NA,NA
63459,task,flow.Sequence,1_14,NA,NA,completion,2100,159021.60000038001,159020.4,159037.1,161137.1,161138.19999981,2024-03-11T13:06:37Z,161153.8,Abrechnung,uhasibu,s,kusahihisha,mpambano,mashambulizi,NA,NA,NA,NULL,NA,NA,NA,NA,NA,NA,NA,NA,NA,NA,NA,NA,NA,NA,NA,NA,NA,NA,NA
63459,Deep Question,html.Page,1_15_0_0,NA,NA,form submission,9110.6000005722,161138.40000057,161137.1,161153.8,170264.40000057,170264.5,2024-03-11T13:06:47Z,170270.2,Aufstand,ugomaji,d,mazidio,msingi,kujieleza,uegomi,NA,NA,NULL,NA,NA,NA,NA,NA,NA,NA,NA,NA,NA,NA,NA,NA,NA,NA,NA,NA,NA,NA
63459,Save data screen,canvas.Screen,1_15_0_1,NA,NA,timeout,500.19999999998,170266.10000038001,170253.77,170270.2,170753.8,170754.60000038001,2024-03-11T13:06:47Z,170770.4,Aufstand,ugomaji,d,mazidio,msingi,kujieleza,NA,NA,0,NULL,NA,NA,NA,NA,NA,NA,NA,NA,NA,NA,NA,NA,NA,NA,NA,NA,NA,NA,NA
63459,deep,flow.Sequence,1_15_0,NA,NA,completion,9600,161138.40000057,161137.1,161153.8,170753.8,170754.80000019,2024-03-11T13:06:47Z,170770.4,Aufstand,ugomaji,d,mazidio,msingi,kujieleza,NA,NA,NA,NULL,NA,NA,NA,NA,NA,NA,NA,NA,NA,NA,NA,NA,NA,NA,NA,NA,NA,NA,NA
63459,task,flow.Sequence,1_15,NA,NA,completion,9600,161138.40000057,161137.1,161153.8,170753.8,170754.90000057,2024-03-11T13:06:47Z,170770.4,Aufstand,ugomaji,d,mazidio,msingi,kujieleza,NA,NA,NA,NULL,NA,NA,NA,NA,NA,NA,NA,NA,NA,NA,NA,NA,NA,NA,NA,NA,NA,NA,NA
63459,retrieval block 1 (cued recall),flow.Loop,1,NA,NA,completion,168266.8,2480.3000001907,2470.43,2487,170753.8,170755.19999981,2024-03-11T13:06:47Z,170770.4,NA,NA,NA,NA,NA,NA,NA,NA,NA,NULL,NA,NA,NA,NA,NA,NA,NA,NA,NA,NA,NA,NA,NA,NA,NA,NA,NA,NA,NA
63459,Shallow Question,html.Page,2_0_0_0,NA,NA,form submission,13266.700000381,170755.40000057,170753.8,170770.4,184037.10000038001,184037.19999981,2024-03-11T13:07:00Z,184054,Prüfung,mtihani,d,mkulima,mtizamo,ufumbuzi,ufumbuzi,NA,NA,"c(""distractor1"", ""distractor2"", ""distractor3"")",NA,NA,NA,NA,NA,NA,NA,NA,NA,NA,NA,NA,NA,NA,NA,NA,NA,NA,NA
63459,Save data screen,canvas.Screen,2_0_0_1,NA,NA,timeout,499.70000000001,184038.80000019,184037.194,184054,184537.1,184537.69999981,2024-03-11T13:07:01Z,184553.7,Prüfung,mtihani,d,mkulima,mtizamo,ufumbuzi,NA,NA,0,"c(""distractor1"", ""distractor2"", ""distractor3"")",NA,NA,NA,NA,NA,NA,NA,NA,NA,NA,NA,NA,NA,NA,NA,NA,NA,NA,NA
63459,shallow,flow.Sequence,2_0_0,NA,NA,completion,13766.7,170755.30000019,170753.8,170770.4,184537.1,184538,2024-03-11T13:07:01Z,184553.7,Prüfung,mtihani,d,mkulima,mtizamo,ufumbuzi,NA,NA,NA,"c(""distractor1"", ""distractor2"", ""distractor3"")",NA,NA,NA,NA,NA,NA,NA,NA,NA,NA,NA,NA,NA,NA,NA,NA,NA,NA,NA
63459,task,flow.Sequence,2_0,NA,NA,completion,13766.7,170755.30000019,170753.8,170770.4,184537.1,184538.10000038001,2024-03-11T13:07:01Z,184553.7,Prüfung,mtihani,d,mkulima,mtizamo,ufumbuzi,NA,NA,NA,"c(""distractor1"", ""distractor2"", ""distractor3"")",NA,NA,NA,NA,NA,NA,NA,NA,NA,NA,NA,NA,NA,NA,NA,NA,NA,NA,NA
63459,Shallow Question,html.Page,2_1_0_0,NA,NA,form submission,7655.3,184538.30000019,184537.1,184553.7,192209,192209.19999981,2024-03-11T13:07:08Z,192220.2,Können,unaweza,d,kiongozi,bustani,mienendo,unaweza,NA,NA,"c(""distractor1"", ""distractor2"", ""distractor3"")",NA,NA,NA,NA,NA,NA,NA,NA,NA,NA,NA,NA,NA,NA,NA,NA,NA,NA,NA
63459,Save data screen,canvas.Screen,2_1_0_1,NA,NA,timeout,500.19999999998,192210.90000057,192203.718,192220.2,192703.7,192704.40000057,2024-03-11T13:07:09Z,192720.4,Können,unaweza,d,kiongozi,bustani,mienendo,NA,NA,1,"c(""distractor1"", ""distractor2"", ""distractor3"")",NA,NA,NA,NA,NA,NA,NA,NA,NA,NA,NA,NA,NA,NA,NA,NA,NA,NA,NA
63459,shallow,flow.Sequence,2_1_0,NA,NA,completion,8150,184538.30000019,184537.1,184553.7,192703.7,192705,2024-03-11T13:07:09Z,192720.4,Können,unaweza,d,kiongozi,bustani,mienendo,NA,NA,NA,"c(""distractor1"", ""distractor2"", ""distractor3"")",NA,NA,NA,NA,NA,NA,NA,NA,NA,NA,NA,NA,NA,NA,NA,NA,NA,NA,NA
63459,task,flow.Sequence,2_1,NA,NA,completion,8150,184538.19999981,184537.1,184553.7,192703.7,192705.10000038001,2024-03-11T13:07:09Z,192720.4,Können,unaweza,d,kiongozi,bustani,mienendo,NA,NA,NA,"c(""distractor1"", ""distractor2"", ""distractor3"")",NA,NA,NA,NA,NA,NA,NA,NA,NA,NA,NA,NA,NA,NA,NA,NA,NA,NA,NA
63459,Shallow Question,html.Page,2_2_0_0,NA,NA,form submission,6277.5000005722,192705.30000019,192703.7,192720.4,198997.90000057,198998.19999981,2024-03-11T13:07:15Z,199003.6,Kreativität,ubunifu,d,mratibu,mwendelezo,makubaliano,ubunifu,NA,NA,"c(""distractor1"", ""distractor2"", ""distractor3"")",NA,NA,NA,NA,NA,NA,NA,NA,NA,NA,NA,NA,NA,NA,NA,NA,NA,NA,NA
63459,Save data screen,canvas.Screen,2_2_0_1,NA,NA,timeout,500.19999999998,198999.69999981,198987.124,199003.6,199487,199487.80000019,2024-03-11T13:07:16Z,199503.8,Kreativität,ubunifu,d,mratibu,mwendelezo,makubaliano,NA,NA,1,"c(""distractor1"", ""distractor2"", ""distractor3"")",NA,NA,NA,NA,NA,NA,NA,NA,NA,NA,NA,NA,NA,NA,NA,NA,NA,NA,NA
63459,shallow,flow.Sequence,2_2_0,NA,NA,completion,6766.6,192705.19999981,192703.7,192720.4,199487,199488.10000038001,2024-03-11T13:07:16Z,199503.8,Kreativität,ubunifu,d,mratibu,mwendelezo,makubaliano,NA,NA,NA,"c(""distractor1"", ""distractor2"", ""distractor3"")",NA,NA,NA,NA,NA,NA,NA,NA,NA,NA,NA,NA,NA,NA,NA,NA,NA,NA,NA
63459,task,flow.Sequence,2_2,NA,NA,completion,6766.6,192705.19999981,192703.7,192720.4,199487,199488.30000019,2024-03-11T13:07:16Z,199503.8,Kreativität,ubunifu,d,mratibu,mwendelezo,makubaliano,NA,NA,NA,"c(""distractor1"", ""distractor2"", ""distractor3"")",NA,NA,NA,NA,NA,NA,NA,NA,NA,NA,NA,NA,NA,NA,NA,NA,NA,NA,NA
63459,Shallow Question,html.Page,2_3_0_0,NA,NA,form submission,10553.399999809,199488.40000057,199487,199503.8,210057.19999981,210057.40000057,2024-03-11T13:07:26Z,210070.3,Abrechnung,uhasibu,s,kusahihisha,mpambano,mashambulizi,mpambano,NA,NA,"c(""distractor1"", ""distractor2"", ""distractor3"")",NA,NA,NA,NA,NA,NA,NA,NA,NA,NA,NA,NA,NA,NA,NA,NA,NA,NA,NA
63459,Save data screen,canvas.Screen,2_3_0_1,NA,NA,timeout,500.10000000001,210059,210053.764,210070.3,210553.7,210554.5,2024-03-11T13:07:27Z,210570.4,Abrechnung,uhasibu,s,kusahihisha,mpambano,mashambulizi,NA,NA,0,"c(""distractor1"", ""distractor2"", ""distractor3"")",NA,NA,NA,NA,NA,NA,NA,NA,NA,NA,NA,NA,NA,NA,NA,NA,NA,NA,NA
63459,shallow,flow.Sequence,2_3_0,NA,NA,completion,11049.9,199488.40000057,199487,199503.8,210553.7,210554.69999981,2024-03-11T13:07:27Z,210570.4,Abrechnung,uhasibu,s,kusahihisha,mpambano,mashambulizi,NA,NA,NA,"c(""distractor1"", ""distractor2"", ""distractor3"")",NA,NA,NA,NA,NA,NA,NA,NA,NA,NA,NA,NA,NA,NA,NA,NA,NA,NA,NA
63459,task,flow.Sequence,2_3,NA,NA,completion,11049.9,199488.40000057,199487,199503.8,210553.7,210554.90000057,2024-03-11T13:07:27Z,210570.4,Abrechnung,uhasibu,s,kusahihisha,mpambano,mashambulizi,NA,NA,NA,"c(""distractor1"", ""distractor2"", ""distractor3"")",NA,NA,NA,NA,NA,NA,NA,NA,NA,NA,NA,NA,NA,NA,NA,NA,NA,NA,NA
63459,Shallow Question,html.Page,2_4_0_0,NA,NA,form submission,3329.5000005722,210555.10000038001,210553.7,210570.4,213899.90000057,213900.10000038001,2024-03-11T13:07:30Z,213903.6,Kanzler,diwani,s,rasilmali,mahitaji,maabudu,diwani,NA,NA,"c(""distractor1"", ""distractor2"", ""distractor3"")",NA,NA,NA,NA,NA,NA,NA,NA,NA,NA,NA,NA,NA,NA,NA,NA,NA,NA,NA
63459,Save data screen,canvas.Screen,2_4_0_1,NA,NA,timeout,500.10000000001,213900.60000038001,213887.25,213903.6,214387.1,214387.69999981,2024-03-11T13:07:31Z,214403.7,Kanzler,diwani,s,rasilmali,mahitaji,maabudu,NA,NA,1,"c(""distractor1"", ""distractor2"", ""distractor3"")",NA,NA,NA,NA,NA,NA,NA,NA,NA,NA,NA,NA,NA,NA,NA,NA,NA,NA,NA
63459,shallow,flow.Sequence,2_4_0,NA,NA,completion,3816.7,210555,210553.7,210570.4,214387.1,214388,2024-03-11T13:07:31Z,214403.7,Kanzler,diwani,s,rasilmali,mahitaji,maabudu,NA,NA,NA,"c(""distractor1"", ""distractor2"", ""distractor3"")",NA,NA,NA,NA,NA,NA,NA,NA,NA,NA,NA,NA,NA,NA,NA,NA,NA,NA,NA
63459,task,flow.Sequence,2_4,NA,NA,completion,3816.7,210555,210553.7,210570.4,214387.1,214388.10000038001,2024-03-11T13:07:31Z,214403.7,Kanzler,diwani,s,rasilmali,mahitaji,maabudu,NA,NA,NA,"c(""distractor1"", ""distractor2"", ""distractor3"")",NA,NA,NA,NA,NA,NA,NA,NA,NA,NA,NA,NA,NA,NA,NA,NA,NA,NA,NA
63459,Shallow Question,html.Page,2_5_0_0,NA,NA,form submission,14462.3,214388.19999981,214387.1,214403.7,228866,228866.19999981,2024-03-11T13:07:45Z,228870.41,Übersicht,kilindo,s,mgusano,chipukizi,kulinganisha,mgusano,NA,NA,"c(""distractor1"", ""distractor2"", ""distractor3"")",NA,NA,NA,NA,NA,NA,NA,NA,NA,NA,NA,NA,NA,NA,NA,NA,NA,NA,NA
63459,Save data screen,canvas.Screen,2_5_0_1,NA,NA,timeout,499.88999999998,228867.80000019,228870.41,228870.41,229353.7,229354.5,2024-03-11T13:07:46Z,229370.3,Übersicht,kilindo,s,mgusano,chipukizi,kulinganisha,NA,NA,0,"c(""distractor1"", ""distractor2"", ""distractor3"")",NA,NA,NA,NA,NA,NA,NA,NA,NA,NA,NA,NA,NA,NA,NA,NA,NA,NA,NA
63459,shallow,flow.Sequence,2_5_0,NA,NA,completion,14950,214388.19999981,214387.1,214403.7,229353.7,229354.69999981,2024-03-11T13:07:46Z,229370.3,Übersicht,kilindo,s,mgusano,chipukizi,kulinganisha,NA,NA,NA,"c(""distractor1"", ""distractor2"", ""distractor3"")",NA,NA,NA,NA,NA,NA,NA,NA,NA,NA,NA,NA,NA,NA,NA,NA,NA,NA,NA
63459,task,flow.Sequence,2_5,NA,NA,completion,14950,214388.10000038001,214387.1,214403.7,229353.7,229355,2024-03-11T13:07:46Z,229370.3,Übersicht,kilindo,s,mgusano,chipukizi,kulinganisha,NA,NA,NA,"c(""distractor1"", ""distractor2"", ""distractor3"")",NA,NA,NA,NA,NA,NA,NA,NA,NA,NA,NA,NA,NA,NA,NA,NA,NA,NA,NA
63459,Shallow Question,html.Page,2_6_0_0,NA,NA,form submission,10104.7,229355.10000038001,229353.7,229370.3,239475,239475.19999981,2024-03-11T13:07:56Z,239486.9,Gefährdung,kuhatarisha,s,uchokozi,udhaifu,makorowezo,udhaifu,NA,NA,"c(""distractor1"", ""distractor2"", ""distractor3"")",NA,NA,NA,NA,NA,NA,NA,NA,NA,NA,NA,NA,NA,NA,NA,NA,NA,NA,NA
63459,Save data screen,canvas.Screen,2_6_0_1,NA,NA,timeout,500.20000000001,239476.80000019,239470.406,239486.9,239970.3,239971.10000038001,2024-03-11T13:07:56Z,239987.1,Gefährdung,kuhatarisha,s,uchokozi,udhaifu,makorowezo,NA,NA,0,"c(""distractor1"", ""distractor2"", ""distractor3"")",NA,NA,NA,NA,NA,NA,NA,NA,NA,NA,NA,NA,NA,NA,NA,NA,NA,NA,NA
63459,shallow,flow.Sequence,2_6_0,NA,NA,completion,10600,229355.10000038001,229353.7,229370.3,239970.3,239971.40000057,2024-03-11T13:07:56Z,239987.1,Gefährdung,kuhatarisha,s,uchokozi,udhaifu,makorowezo,NA,NA,NA,"c(""distractor1"", ""distractor2"", ""distractor3"")",NA,NA,NA,NA,NA,NA,NA,NA,NA,NA,NA,NA,NA,NA,NA,NA,NA,NA,NA
63459,task,flow.Sequence,2_6,NA,NA,completion,10600,229355.10000038001,229353.7,229370.3,239970.3,239971.5,2024-03-11T13:07:56Z,239987.1,Gefährdung,kuhatarisha,s,uchokozi,udhaifu,makorowezo,NA,NA,NA,"c(""distractor1"", ""distractor2"", ""distractor3"")",NA,NA,NA,NA,NA,NA,NA,NA,NA,NA,NA,NA,NA,NA,NA,NA,NA,NA,NA
63459,Shallow Question,html.Page,2_7_0_0,NA,NA,form submission,10586.700000191,239971.80000019,239970.3,239987.1,250573.80000019,250574,2024-03-11T13:08:07Z,250587.1,System,maongozi,d,chokochoko,nuksani,mitaani,maongozi,NA,NA,"c(""distractor1"", ""distractor2"", ""distractor3"")",NA,NA,NA,NA,NA,NA,NA,NA,NA,NA,NA,NA,NA,NA,NA,NA,NA,NA,NA
63459,Save data screen,canvas.Screen,2_7_0_1,NA,NA,timeout,500,250575.60000038001,250570.436,250587.1,251070.3,251071.10000038001,2024-03-11T13:08:07Z,251087.1,System,maongozi,d,chokochoko,nuksani,mitaani,NA,NA,1,"c(""distractor1"", ""distractor2"", ""distractor3"")",NA,NA,NA,NA,NA,NA,NA,NA,NA,NA,NA,NA,NA,NA,NA,NA,NA,NA,NA
63459,shallow,flow.Sequence,2_7_0,NA,NA,completion,11083.2,239971.69999981,239970.3,239987.1,251070.3,251071.40000057,2024-03-11T13:08:07Z,251087.1,System,maongozi,d,chokochoko,nuksani,mitaani,NA,NA,NA,"c(""distractor1"", ""distractor2"", ""distractor3"")",NA,NA,NA,NA,NA,NA,NA,NA,NA,NA,NA,NA,NA,NA,NA,NA,NA,NA,NA
63459,task,flow.Sequence,2_7,NA,NA,completion,11083.2,239971.69999981,239970.3,239987.1,251070.3,251071.60000038001,2024-03-11T13:08:07Z,251087.1,System,maongozi,d,chokochoko,nuksani,mitaani,NA,NA,NA,"c(""distractor1"", ""distractor2"", ""distractor3"")",NA,NA,NA,NA,NA,NA,NA,NA,NA,NA,NA,NA,NA,NA,NA,NA,NA,NA,NA
63459,Shallow Question,html.Page,2_8_0_0,NA,NA,form submission,8299.7000001907,251071.69999981,251070.3,251087.1,259386.80000019,259387.10000038001,2024-03-11T13:08:15Z,259403.9,Lawine,banguko,d,maambukizi,usuluhishi,chekechea,banguko,NA,NA,"c(""distractor1"", ""distractor2"", ""distractor3"")",NA,NA,NA,NA,NA,NA,NA,NA,NA,NA,NA,NA,NA,NA,NA,NA,NA,NA,NA
63459,Save data screen,canvas.Screen,2_8_0_1,NA,NA,timeout,499.80000000002,259388.69999981,259387.078,259403.9,259887,259887.69999981,2024-03-11T13:08:16Z,259903.7,Lawine,banguko,d,maambukizi,usuluhishi,chekechea,NA,NA,1,"c(""distractor1"", ""distractor2"", ""distractor3"")",NA,NA,NA,NA,NA,NA,NA,NA,NA,NA,NA,NA,NA,NA,NA,NA,NA,NA,NA
63459,shallow,flow.Sequence,2_8_0,NA,NA,completion,8799.9,251071.69999981,251070.3,251087.1,259887,259888,2024-03-11T13:08:16Z,259903.7,Lawine,banguko,d,maambukizi,usuluhishi,chekechea,NA,NA,NA,"c(""distractor1"", ""distractor2"", ""distractor3"")",NA,NA,NA,NA,NA,NA,NA,NA,NA,NA,NA,NA,NA,NA,NA,NA,NA,NA,NA
63459,task,flow.Sequence,2_8,NA,NA,completion,8799.9,251071.69999981,251070.3,251087.1,259887,259888.10000038001,2024-03-11T13:08:16Z,259903.7,Lawine,banguko,d,maambukizi,usuluhishi,chekechea,NA,NA,NA,"c(""distractor1"", ""distractor2"", ""distractor3"")",NA,NA,NA,NA,NA,NA,NA,NA,NA,NA,NA,NA,NA,NA,NA,NA,NA,NA,NA
63459,Shallow Question,html.Page,2_9_0_0,NA,NA,form submission,4522.3,259888.19999981,259887,259903.7,264426,264426.30000019,2024-03-11T13:08:20Z,264436.9,Körper,kiwiliwili,s,mapambano,mpatanishi,kiolezo,kiwiliwili,NA,NA,"c(""distractor1"", ""distractor2"", ""distractor3"")",NA,NA,NA,NA,NA,NA,NA,NA,NA,NA,NA,NA,NA,NA,NA,NA,NA,NA,NA
63459,Save data screen,canvas.Screen,2_9_0_1,NA,NA,timeout,500.09999999998,264427.69999981,264420.4,264436.9,264920.4,264921.19999981,2024-03-11T13:08:21Z,264937,Körper,kiwiliwili,s,mapambano,mpatanishi,kiolezo,NA,NA,1,"c(""distractor1"", ""distractor2"", ""distractor3"")",NA,NA,NA,NA,NA,NA,NA,NA,NA,NA,NA,NA,NA,NA,NA,NA,NA,NA,NA
63459,shallow,flow.Sequence,2_9_0,NA,NA,completion,5016.7,259888.19999981,259887,259903.7,264920.4,264921.40000057,2024-03-11T13:08:21Z,264937,Körper,kiwiliwili,s,mapambano,mpatanishi,kiolezo,NA,NA,NA,"c(""distractor1"", ""distractor2"", ""distractor3"")",NA,NA,NA,NA,NA,NA,NA,NA,NA,NA,NA,NA,NA,NA,NA,NA,NA,NA,NA
63459,task,flow.Sequence,2_9,NA,NA,completion,5016.7,259888.19999981,259887,259903.7,264920.4,264921.60000038,2024-03-11T13:08:21Z,264937,Körper,kiwiliwili,s,mapambano,mpatanishi,kiolezo,NA,NA,NA,"c(""distractor1"", ""distractor2"", ""distractor3"")",NA,NA,NA,NA,NA,NA,NA,NA,NA,NA,NA,NA,NA,NA,NA,NA,NA,NA,NA
63459,Shallow Question,html.Page,2_10_0_0,NA,NA,form submission,8829.9000005722,264921.69999981,264920.4,264937,273766.90000057,273767.10000038,2024-03-11T13:08:30Z,273770.2,Verzögerung,kuchelewa,s,mwakilishi,mwanauchumi,jaribio,kuchelewa,NA,NA,"c(""distractor1"", ""distractor2"", ""distractor3"")",NA,NA,NA,NA,NA,NA,NA,NA,NA,NA,NA,NA,NA,NA,NA,NA,NA,NA,NA
63459,Save data screen,canvas.Screen,2_10_0_1,NA,NA,timeout,500.20000000001,273768.69999981,273753.744,273770.2,274253.6,274254.30000019,2024-03-11T13:08:30Z,274270.4,Verzögerung,kuchelewa,s,mwakilishi,mwanauchumi,jaribio,NA,NA,1,"c(""distractor1"", ""distractor2"", ""distractor3"")",NA,NA,NA,NA,NA,NA,NA,NA,NA,NA,NA,NA,NA,NA,NA,NA,NA,NA,NA
63459,shallow,flow.Sequence,2_10_0,NA,NA,completion,9316.6,264921.69999981,264920.4,264937,274253.6,274254.60000038,2024-03-11T13:08:30Z,274270.4,Verzögerung,kuchelewa,s,mwakilishi,mwanauchumi,jaribio,NA,NA,NA,"c(""distractor1"", ""distractor2"", ""distractor3"")",NA,NA,NA,NA,NA,NA,NA,NA,NA,NA,NA,NA,NA,NA,NA,NA,NA,NA,NA
63459,task,flow.Sequence,2_10,NA,NA,completion,9316.6,264921.69999981,264920.4,264937,274253.6,274254.69999981,2024-03-11T13:08:30Z,274270.4,Verzögerung,kuchelewa,s,mwakilishi,mwanauchumi,jaribio,NA,NA,NA,"c(""distractor1"", ""distractor2"", ""distractor3"")",NA,NA,NA,NA,NA,NA,NA,NA,NA,NA,NA,NA,NA,NA,NA,NA,NA,NA,NA
63459,Shallow Question,html.Page,2_11_0_0,NA,NA,form submission,3994.6,274254.80000019,274253.6,274270.4,278265,278265.30000019,2024-03-11T13:08:34Z,278270.2,Aufstand,ugomaji,d,mazidio,msingi,kujieleza,ugomaji,NA,NA,"c(""distractor1"", ""distractor2"", ""distractor3"")",NA,NA,NA,NA,NA,NA,NA,NA,NA,NA,NA,NA,NA,NA,NA,NA,NA,NA,NA
63459,Save data screen,canvas.Screen,2_11_0_1,NA,NA,timeout,500.20000000001,278266.69999981,278253.746,278270.2,278753.6,278754.30000019,2024-03-11T13:08:35Z,278770.4,Aufstand,ugomaji,d,mazidio,msingi,kujieleza,NA,NA,1,"c(""distractor1"", ""distractor2"", ""distractor3"")",NA,NA,NA,NA,NA,NA,NA,NA,NA,NA,NA,NA,NA,NA,NA,NA,NA,NA,NA
63459,shallow,flow.Sequence,2_11_0,NA,NA,completion,4483.2,274254.80000019,274253.6,274270.4,278753.6,278754.60000038,2024-03-11T13:08:35Z,278770.4,Aufstand,ugomaji,d,mazidio,msingi,kujieleza,NA,NA,NA,"c(""distractor1"", ""distractor2"", ""distractor3"")",NA,NA,NA,NA,NA,NA,NA,NA,NA,NA,NA,NA,NA,NA,NA,NA,NA,NA,NA
63459,task,flow.Sequence,2_11,NA,NA,completion,4483.2,274254.80000019,274253.6,274270.4,278753.6,278754.80000019,2024-03-11T13:08:35Z,278770.4,Aufstand,ugomaji,d,mazidio,msingi,kujieleza,NA,NA,NA,"c(""distractor1"", ""distractor2"", ""distractor3"")",NA,NA,NA,NA,NA,NA,NA,NA,NA,NA,NA,NA,NA,NA,NA,NA,NA,NA,NA
63459,Shallow Question,html.Page,2_12_0_0,NA,NA,form submission,5981.2999998092,278754.90000057,278753.6,278770.4,284751.69999981,284752,2024-03-11T13:08:41Z,284753.746,Sänger,mwimbaji,d,msichana,shughuli,mshirika,mwimbaji,NA,NA,"c(""distractor1"", ""distractor2"", ""distractor3"")",NA,NA,NA,NA,NA,NA,NA,NA,NA,NA,NA,NA,NA,NA,NA,NA,NA,NA,NA
63459,Save data screen,canvas.Screen,2_12_0_1,NA,NA,timeout,499.95400000003,284753.40000057,284753.746,284753.746,285236.9,285237.69999981,2024-03-11T13:08:41Z,285253.7,Sänger,mwimbaji,d,msichana,shughuli,mshirika,NA,NA,1,"c(""distractor1"", ""distractor2"", ""distractor3"")",NA,NA,NA,NA,NA,NA,NA,NA,NA,NA,NA,NA,NA,NA,NA,NA,NA,NA,NA
63459,shallow,flow.Sequence,2_12_0,NA,NA,completion,6466.5,278754.80000019,278753.6,278770.4,285236.9,285237.80000019,2024-03-11T13:08:41Z,285253.7,Sänger,mwimbaji,d,msichana,shughuli,mshirika,NA,NA,NA,"c(""distractor1"", ""distractor2"", ""distractor3"")",NA,NA,NA,NA,NA,NA,NA,NA,NA,NA,NA,NA,NA,NA,NA,NA,NA,NA,NA
63459,task,flow.Sequence,2_12,NA,NA,completion,6466.5,278754.80000019,278753.6,278770.4,285236.9,285238,2024-03-11T13:08:41Z,285253.7,Sänger,mwimbaji,d,msichana,shughuli,mshirika,NA,NA,NA,"c(""distractor1"", ""distractor2"", ""distractor3"")",NA,NA,NA,NA,NA,NA,NA,NA,NA,NA,NA,NA,NA,NA,NA,NA,NA,NA,NA
63459,Shallow Question,html.Page,2_13_0_0,NA,NA,form submission,9687.1000001907,285238.19999981,285236.9,285253.7,294940.80000019,294941,2024-03-11T13:08:51Z,294953.6,Kultur,utamaduni,s,shetani,gerezani,mazingira,gerezani,NA,NA,"c(""distractor1"", ""distractor2"", ""distractor3"")",NA,NA,NA,NA,NA,NA,NA,NA,NA,NA,NA,NA,NA,NA,NA,NA,NA,NA,NA
63459,Save data screen,canvas.Screen,2_13_0_1,NA,NA,timeout,500,294942.5,294937.094,294953.6,295437.1,295438,2024-03-11T13:08:51Z,295453.6,Kultur,utamaduni,s,shetani,gerezani,mazingira,NA,NA,0,"c(""distractor1"", ""distractor2"", ""distractor3"")",NA,NA,NA,NA,NA,NA,NA,NA,NA,NA,NA,NA,NA,NA,NA,NA,NA,NA,NA
63459,shallow,flow.Sequence,2_13_0,NA,NA,completion,10183.4,285238.10000038,285236.9,285253.7,295437.1,295438.30000019,2024-03-11T13:08:51Z,295453.6,Kultur,utamaduni,s,shetani,gerezani,mazingira,NA,NA,NA,"c(""distractor1"", ""distractor2"", ""distractor3"")",NA,NA,NA,NA,NA,NA,NA,NA,NA,NA,NA,NA,NA,NA,NA,NA,NA,NA,NA
63459,task,flow.Sequence,2_13,NA,NA,completion,10183.4,285238.10000038,285236.9,285253.7,295437.1,295438.40000057,2024-03-11T13:08:51Z,295453.6,Kultur,utamaduni,s,shetani,gerezani,mazingira,NA,NA,NA,"c(""distractor1"", ""distractor2"", ""distractor3"")",NA,NA,NA,NA,NA,NA,NA,NA,NA,NA,NA,NA,NA,NA,NA,NA,NA,NA,NA
63459,Shallow Question,html.Page,2_14_0_0,NA,NA,form submission,4738.0999998093,295438.60000038,295437.1,295453.6,300191.69999981,300191.90000057,2024-03-11T13:08:56Z,300220.4,Angreifer,mshambulizi,d,kitengo,tasinia,usafirishaji,mshambulizi,NA,NA,"c(""distractor1"", ""distractor2"", ""distractor3"")",NA,NA,NA,NA,NA,NA,NA,NA,NA,NA,NA,NA,NA,NA,NA,NA,NA,NA,NA
63459,Save data screen,canvas.Screen,2_14_0_1,NA,NA,timeout,500,300193.60000038,300203.932,300220.4,300703.6,300704.5,2024-03-11T13:08:57Z,300720.4,Angreifer,mshambulizi,d,kitengo,tasinia,usafirishaji,NA,NA,1,"c(""distractor1"", ""distractor2"", ""distractor3"")",NA,NA,NA,NA,NA,NA,NA,NA,NA,NA,NA,NA,NA,NA,NA,NA,NA,NA,NA
63459,shallow,flow.Sequence,2_14_0,NA,NA,completion,5250,295438.5,295437.1,295453.6,300703.6,300704.80000019,2024-03-11T13:08:57Z,300720.4,Angreifer,mshambulizi,d,kitengo,tasinia,usafirishaji,NA,NA,NA,"c(""distractor1"", ""distractor2"", ""distractor3"")",NA,NA,NA,NA,NA,NA,NA,NA,NA,NA,NA,NA,NA,NA,NA,NA,NA,NA,NA
63459,task,flow.Sequence,2_14,NA,NA,completion,5250,295438.5,295437.1,295453.6,300703.6,300705,2024-03-11T13:08:57Z,300720.4,Angreifer,mshambulizi,d,kitengo,tasinia,usafirishaji,NA,NA,NA,"c(""distractor1"", ""distractor2"", ""distractor3"")",NA,NA,NA,NA,NA,NA,NA,NA,NA,NA,NA,NA,NA,NA,NA,NA,NA,NA,NA
63459,Shallow Question,html.Page,2_15_0_0,NA,NA,form submission,12884.299999809,300705.10000038,300703.6,300720.4,313604.69999981,313604.90000057,2024-03-11T13:09:09Z,313620.3,Kontrolle,kudhibiti,s,mbinguni,kufunga,utegemezi,utegemezi,NA,NA,"c(""distractor1"", ""distractor2"", ""distractor3"")",NA,NA,NA,NA,NA,NA,NA,NA,NA,NA,NA,NA,NA,NA,NA,NA,NA,NA,NA
63459,Save data screen,canvas.Screen,2_15_0_1,NA,NA,timeout,499.90000000002,313606.5,313603.8,313620.3,314103.7,314104.60000038,2024-03-11T13:09:10Z,314120.2,Kontrolle,kudhibiti,s,mbinguni,kufunga,utegemezi,NA,NA,0,"c(""distractor1"", ""distractor2"", ""distractor3"")",NA,NA,NA,NA,NA,NA,NA,NA,NA,NA,NA,NA,NA,NA,NA,NA,NA,NA,NA
63459,shallow,flow.Sequence,2_15_0,NA,NA,completion,13383.3,300705.10000038,300703.6,300720.4,314103.7,314104.80000019,2024-03-11T13:09:10Z,314120.2,Kontrolle,kudhibiti,s,mbinguni,kufunga,utegemezi,NA,NA,NA,"c(""distractor1"", ""distractor2"", ""distractor3"")",NA,NA,NA,NA,NA,NA,NA,NA,NA,NA,NA,NA,NA,NA,NA,NA,NA,NA,NA
63459,task,flow.Sequence,2_15,NA,NA,completion,13383.3,300705,300703.6,300720.4,314103.7,314105,2024-03-11T13:09:10Z,314120.2,Kontrolle,kudhibiti,s,mbinguni,kufunga,utegemezi,NA,NA,NA,"c(""distractor1"", ""distractor2"", ""distractor3"")",NA,NA,NA,NA,NA,NA,NA,NA,NA,NA,NA,NA,NA,NA,NA,NA,NA,NA,NA
63459,retrieval block 2 (multiple choice),flow.Loop,2,NA,NA,completion,143333.3,170755.30000019,170753.8,170770.4,314103.7,314105.10000038,2024-03-11T13:09:10Z,314120.2,NA,NA,NA,NA,NA,NA,NA,NA,NA,"c(""distractor1"", ""distractor2"", ""distractor3"")",NA,NA,NA,NA,NA,NA,NA,NA,NA,NA,NA,NA,NA,NA,NA,NA,NA,NA,NA
63459,End,canvas.Screen,3,NA,keypress(Space),response,1482.7000005722,314105.19999981,314103.7,314120.2,315602.90000057,315604.10000038,2024-03-11T13:09:11Z,315620.3,NA,NA,NA,NA,NA,NA,NA,NA,NA,NULL,NA,NA,NA,NA,NA,NA,NA,NA,NA,NA,NA,NA,NA,NA,NA,NA,NA,NA,NA
63459,root,flow.Sequence,NA,NA,NA,completion,315249.20000057,335.5,170.3,353.7,315602.90000057,315604.69999981,2024-03-11T13:09:11Z,315620.3,NA,NA,NA,NA,NA,NA,NA,NA,NA,NULL,NA,NA,NA,NA,NA,NA,NA,NA,NA,NA,NA,NA,NA,NA,NA,NA,NA,NA,NA
65d6a,Introduction delayed retrieval,canvas.Screen,0,weiter,keypress(Space),response,2936.7,331.69999980927,332.76,332.8,3269.5,3271.8999996185,2024-03-11T12:44:05Z,3283,NA,NA,NA,NA,NA,NA,NA,NA,NA,NULL,152,"4",20.2.4,https://neurocog.fernuni.ch/studies/vweber/jbaenninger/delayed/index.html?vp=152&sess=4%0d,"Mozilla/5.0 (Windows NT 10.0; Win64; x64) AppleWebKit/537.36 (KHTML, like Gecko) Chrome/122.0.0.0 Safari/537.36 Edg/122.0.0.0",Win32,de,de-CH,Europe/Zurich,-60,1920,1080,1872,910,1872,958,1,production,f5b4a49f956347addd546a832a3327688c2c0fef
65d6a,Deep Question,html.Page,1_0_0_0,NA,NA,form submission,34874.199999809,3272.3999996185,3267.2,3283,38157.199999809,38157.399999619,2024-03-11T12:44:40Z,38166.3,Vermutung,udhanifu,d,haramia,tikisho,itifaki,ushunji,NA,NA,NULL,NA,NA,NA,NA,NA,NA,NA,NA,NA,NA,NA,NA,NA,NA,NA,NA,NA,NA,NA
65d6a,Save data screen,canvas.Screen,1_0_0_1,NA,NA,timeout,500,38158.699999809,38149.654,38166.3,38649.6,38650.800000191,2024-03-11T12:44:40Z,38666.3,Vermutung,udhanifu,d,haramia,tikisho,itifaki,NA,NA,0,NULL,NA,NA,NA,NA,NA,NA,NA,NA,NA,NA,NA,NA,NA,NA,NA,NA,NA,NA,NA
65d6a,deep,flow.Sequence,1_0_0,NA,NA,completion,35366.6,3272.3000001907,3267.2,3283,38649.6,38651.199999809,2024-03-11T12:44:40Z,38666.3,Vermutung,udhanifu,d,haramia,tikisho,itifaki,NA,NA,NA,NULL,NA,NA,NA,NA,NA,NA,NA,NA,NA,NA,NA,NA,NA,NA,NA,NA,NA,NA,NA
65d6a,task,flow.Sequence,1_0,NA,NA,completion,35366.6,3272.3000001907,3267.2,3283,38649.6,38651.399999619,2024-03-11T12:44:40Z,38666.3,Vermutung,udhanifu,d,haramia,tikisho,itifaki,NA,NA,NA,NULL,NA,NA,NA,NA,NA,NA,NA,NA,NA,NA,NA,NA,NA,NA,NA,NA,NA,NA,NA
65d6a,Deep Question,html.Page,1_1_0_0,NA,NA,form submission,48479.099999619,38651.600000381,38649.6,38666.3,87145.399999619,87145.600000381,2024-03-11T12:45:29Z,87149.4,Schock,mshtuko,s,biashara,kukataza,vichekesho,danji,NA,NA,NULL,NA,NA,NA,NA,NA,NA,NA,NA,NA,NA,NA,NA,NA,NA,NA,NA,NA,NA,NA
65d6a,Save data screen,canvas.Screen,1_1_0_1,NA,NA,timeout,500.20000000001,87147.800000191,87132.994,87149.4,87632.9,87633.899999619,2024-03-11T12:45:29Z,87649.6,Schock,mshtuko,s,biashara,kukataza,vichekesho,NA,NA,0,NULL,NA,NA,NA,NA,NA,NA,NA,NA,NA,NA,NA,NA,NA,NA,NA,NA,NA,NA,NA
65d6a,deep,flow.Sequence,1_1_0,NA,NA,completion,48966.6,38651.600000381,38649.6,38666.3,87632.9,87634.199999809,2024-03-11T12:45:29Z,87649.6,Schock,mshtuko,s,biashara,kukataza,vichekesho,NA,NA,NA,NULL,NA,NA,NA,NA,NA,NA,NA,NA,NA,NA,NA,NA,NA,NA,NA,NA,NA,NA,NA
65d6a,task,flow.Sequence,1_1,NA,NA,completion,48966.6,38651.600000381,38649.6,38666.3,87632.9,87634.399999619,2024-03-11T12:45:29Z,87649.6,Schock,mshtuko,s,biashara,kukataza,vichekesho,NA,NA,NA,NULL,NA,NA,NA,NA,NA,NA,NA,NA,NA,NA,NA,NA,NA,NA,NA,NA,NA,NA,NA
65d6a,Deep Question,html.Page,1_2_0_0,NA,NA,form submission,28054.599999809,87642.699999809,87632.9,87649.6,115704.19999981,115704.5,2024-03-11T12:45:57Z,115716.3,Schlange,foleni,s,uvumilivu,uteuzi,muuzaji,angahewa,NA,NA,NULL,NA,NA,NA,NA,NA,NA,NA,NA,NA,NA,NA,NA,NA,NA,NA,NA,NA,NA,NA
65d6a,Save data screen,canvas.Screen,1_2_0_1,NA,NA,timeout,499.89999999999,115706.19999981,115699.62,115716.3,116199.5,116200.5,2024-03-11T12:45:58Z,116216.2,Schlange,foleni,s,uvumilivu,uteuzi,muuzaji,NA,NA,0,NULL,NA,NA,NA,NA,NA,NA,NA,NA,NA,NA,NA,NA,NA,NA,NA,NA,NA,NA,NA
65d6a,deep,flow.Sequence,1_2_0,NA,NA,completion,28549.9,87634.600000381,87632.9,87649.6,116199.5,116200.80000019001,2024-03-11T12:45:58Z,116216.2,Schlange,foleni,s,uvumilivu,uteuzi,muuzaji,NA,NA,NA,NULL,NA,NA,NA,NA,NA,NA,NA,NA,NA,NA,NA,NA,NA,NA,NA,NA,NA,NA,NA
65d6a,task,flow.Sequence,1_2,NA,NA,completion,28549.9,87634.600000381,87632.9,87649.6,116199.5,116200.89999962,2024-03-11T12:45:58Z,116216.2,Schlange,foleni,s,uvumilivu,uteuzi,muuzaji,NA,NA,NA,NULL,NA,NA,NA,NA,NA,NA,NA,NA,NA,NA,NA,NA,NA,NA,NA,NA,NA,NA,NA
65d6a,Deep Question,html.Page,1_3_0_0,NA,NA,form submission,27026.3,116201.10000038,116199.5,116216.2,143242.5,143242.60000038001,2024-03-11T12:46:25Z,143249.3,Inhalt,yaliyomo,d,kishawishi,hifadhi,kutembea,ufanji,NA,NA,NULL,NA,NA,NA,NA,NA,NA,NA,NA,NA,NA,NA,NA,NA,NA,NA,NA,NA,NA,NA
65d6a,Save data screen,canvas.Screen,1_3_0_1,NA,NA,timeout,500.20000000001,143244.39999962,143232.924,143249.3,143732.9,143733.80000019,2024-03-11T12:46:26Z,143749.5,Inhalt,yaliyomo,d,kishawishi,hifadhi,kutembea,NA,NA,0,NULL,NA,NA,NA,NA,NA,NA,NA,NA,NA,NA,NA,NA,NA,NA,NA,NA,NA,NA,NA
65d6a,deep,flow.Sequence,1_3_0,NA,NA,completion,27516.7,116201,116199.5,116216.2,143732.9,143734,2024-03-11T12:46:26Z,143749.5,Inhalt,yaliyomo,d,kishawishi,hifadhi,kutembea,NA,NA,NA,NULL,NA,NA,NA,NA,NA,NA,NA,NA,NA,NA,NA,NA,NA,NA,NA,NA,NA,NA,NA
65d6a,task,flow.Sequence,1_3,NA,NA,completion,27516.7,116201,116199.5,116216.2,143732.9,143734.30000019,2024-03-11T12:46:26Z,143749.5,Inhalt,yaliyomo,d,kishawishi,hifadhi,kutembea,NA,NA,NA,NULL,NA,NA,NA,NA,NA,NA,NA,NA,NA,NA,NA,NA,NA,NA,NA,NA,NA,NA,NA
65d6a,Deep Question,html.Page,1_4_0_0,NA,NA,form submission,16852.899999619,143734.5,143732.9,143749.5,160602.39999961999,160602.69999981,2024-03-11T12:46:42Z,160616.2,Vergnügen,kichekesho,d,dubwana,mpanuko,mtesaji,vergunji,NA,NA,NULL,NA,NA,NA,NA,NA,NA,NA,NA,NA,NA,NA,NA,NA,NA,NA,NA,NA,NA,NA
65d6a,Save data screen,canvas.Screen,1_4_0_1,NA,NA,timeout,500,160604.39999961999,160599.534,160616.2,161099.5,161100.30000019,2024-03-11T12:46:43Z,161116.2,Vergnügen,kichekesho,d,dubwana,mpanuko,mtesaji,NA,NA,0,NULL,NA,NA,NA,NA,NA,NA,NA,NA,NA,NA,NA,NA,NA,NA,NA,NA,NA,NA,NA
65d6a,deep,flow.Sequence,1_4_0,NA,NA,completion,17350,143734.39999962,143732.9,143749.5,161099.5,161100.60000038001,2024-03-11T12:46:43Z,161116.2,Vergnügen,kichekesho,d,dubwana,mpanuko,mtesaji,NA,NA,NA,NULL,NA,NA,NA,NA,NA,NA,NA,NA,NA,NA,NA,NA,NA,NA,NA,NA,NA,NA,NA
65d6a,task,flow.Sequence,1_4,NA,NA,completion,17350,143734.30000019,143732.9,143749.5,161099.5,161100.80000019,2024-03-11T12:46:43Z,161116.2,Vergnügen,kichekesho,d,dubwana,mpanuko,mtesaji,NA,NA,NA,NULL,NA,NA,NA,NA,NA,NA,NA,NA,NA,NA,NA,NA,NA,NA,NA,NA,NA,NA,NA
65d6a,Deep Question,html.Page,1_5_0_0,NA,NA,form submission,16626.100000191,161100.89999961999,161099.5,161116.2,177742.30000019,177742.5,2024-03-11T12:47:00Z,177749.548,Verpackung,ufungaji,d,uhusiano,upimaji,uchunguzi,verpanji,NA,NA,NULL,NA,NA,NA,NA,NA,NA,NA,NA,NA,NA,NA,NA,NA,NA,NA,NA,NA,NA,NA
65d6a,Save data screen,canvas.Screen,1_5_0_1,NA,NA,timeout,500.052,177744.19999981,177749.548,177749.548,178232.8,178233.60000038001,2024-03-11T12:47:00Z,178249.6,Verpackung,ufungaji,d,uhusiano,upimaji,uchunguzi,NA,NA,0,NULL,NA,NA,NA,NA,NA,NA,NA,NA,NA,NA,NA,NA,NA,NA,NA,NA,NA,NA,NA
65d6a,deep,flow.Sequence,1_5_0,NA,NA,completion,17116.6,161100.89999961999,161099.5,161116.2,178232.8,178234,2024-03-11T12:47:00Z,178249.6,Verpackung,ufungaji,d,uhusiano,upimaji,uchunguzi,NA,NA,NA,NULL,NA,NA,NA,NA,NA,NA,NA,NA,NA,NA,NA,NA,NA,NA,NA,NA,NA,NA,NA
65d6a,task,flow.Sequence,1_5,NA,NA,completion,17116.6,161100.80000019,161099.5,161116.2,178232.8,178234.10000038001,2024-03-11T12:47:00Z,178249.6,Verpackung,ufungaji,d,uhusiano,upimaji,uchunguzi,NA,NA,NA,NULL,NA,NA,NA,NA,NA,NA,NA,NA,NA,NA,NA,NA,NA,NA,NA,NA,NA,NA,NA
65d6a,Deep Question,html.Page,1_6_0_0,NA,NA,form submission,31872.599999809,178234.30000019,178232.8,178249.6,210122.19999981,210122.30000019,2024-03-11T12:47:32Z,210132.8,Fenster,dirisha,s,walakini,tasawari,maarifa,windonji,NA,NA,NULL,NA,NA,NA,NA,NA,NA,NA,NA,NA,NA,NA,NA,NA,NA,NA,NA,NA,NA,NA
65d6a,Save data screen,canvas.Screen,1_6_0_1,NA,NA,timeout,499.90000000002,210124.10000038001,210116.25,210132.8,210616.2,210617.19999981,2024-03-11T12:47:32Z,210632.7,Fenster,dirisha,s,walakini,tasawari,maarifa,NA,NA,0,NULL,NA,NA,NA,NA,NA,NA,NA,NA,NA,NA,NA,NA,NA,NA,NA,NA,NA,NA,NA
65d6a,deep,flow.Sequence,1_6_0,NA,NA,completion,32366.6,178234.30000019,178232.8,178249.6,210616.2,210617.5,2024-03-11T12:47:32Z,210632.7,Fenster,dirisha,s,walakini,tasawari,maarifa,NA,NA,NA,NULL,NA,NA,NA,NA,NA,NA,NA,NA,NA,NA,NA,NA,NA,NA,NA,NA,NA,NA,NA
65d6a,task,flow.Sequence,1_6,NA,NA,completion,32366.6,178234.19999981,178232.8,178249.6,210616.2,210617.60000038001,2024-03-11T12:47:32Z,210632.7,Fenster,dirisha,s,walakini,tasawari,maarifa,NA,NA,NA,NULL,NA,NA,NA,NA,NA,NA,NA,NA,NA,NA,NA,NA,NA,NA,NA,NA,NA,NA,NA
65d6a,Deep Question,html.Page,1_7_0_0,NA,NA,form submission,24189.400000381,210617.80000019,210616.2,210632.7,234822.10000038001,234822.30000019,2024-03-11T12:47:57Z,234832.8,Notfall,dharura,d,rairai,malalamiko,ahueni,emergenji,NA,NA,NULL,NA,NA,NA,NA,NA,NA,NA,NA,NA,NA,NA,NA,NA,NA,NA,NA,NA,NA,NA
65d6a,Save data screen,canvas.Screen,1_7_0_1,NA,NA,timeout,500,234824,234816.28,234832.8,235316.1,235317.10000038001,2024-03-11T12:47:57Z,235332.8,Notfall,dharura,d,rairai,malalamiko,ahueni,NA,NA,0,NULL,NA,NA,NA,NA,NA,NA,NA,NA,NA,NA,NA,NA,NA,NA,NA,NA,NA,NA,NA
65d6a,deep,flow.Sequence,1_7_0,NA,NA,completion,24683.4,210617.80000019,210616.2,210632.7,235316.1,235317.39999962,2024-03-11T12:47:57Z,235332.8,Notfall,dharura,d,rairai,malalamiko,ahueni,NA,NA,NA,NULL,NA,NA,NA,NA,NA,NA,NA,NA,NA,NA,NA,NA,NA,NA,NA,NA,NA,NA,NA
65d6a,task,flow.Sequence,1_7,NA,NA,completion,24683.4,210617.69999981,210616.2,210632.7,235316.1,235317.60000038001,2024-03-11T12:47:57Z,235332.8,Notfall,dharura,d,rairai,malalamiko,ahueni,NA,NA,NA,NULL,NA,NA,NA,NA,NA,NA,NA,NA,NA,NA,NA,NA,NA,NA,NA,NA,NA,NA,NA
65d6a,Deep Question,html.Page,1_8_0_0,NA,NA,form submission,28383.599999619,235317.69999981,235316.1,235332.8,263716.39999962,263716.5,2024-03-11T12:48:26Z,263732.6,Tester,wanaojaribu,d,sherti,sihiri,mlipuko,bakalika,NA,NA,NULL,NA,NA,NA,NA,NA,NA,NA,NA,NA,NA,NA,NA,NA,NA,NA,NA,NA,NA,NA
65d6a,Save data screen,canvas.Screen,1_8_0_1,NA,NA,timeout,500.20000000001,263718,263715.962,263732.6,264216,264216.89999962,2024-03-11T12:48:26Z,264232.8,Tester,wanaojaribu,d,sherti,sihiri,mlipuko,NA,NA,0,NULL,NA,NA,NA,NA,NA,NA,NA,NA,NA,NA,NA,NA,NA,NA,NA,NA,NA,NA,NA
65d6a,deep,flow.Sequence,1_8_0,NA,NA,completion,28883.2,235317.69999981,235316.1,235332.8,264216,264217.10000038,2024-03-11T12:48:26Z,264232.8,Tester,wanaojaribu,d,sherti,sihiri,mlipuko,NA,NA,NA,NULL,NA,NA,NA,NA,NA,NA,NA,NA,NA,NA,NA,NA,NA,NA,NA,NA,NA,NA,NA
65d6a,task,flow.Sequence,1_8,NA,NA,completion,28883.2,235317.60000038001,235316.1,235332.8,264216,264217.19999981,2024-03-11T12:48:26Z,264232.8,Tester,wanaojaribu,d,sherti,sihiri,mlipuko,NA,NA,NA,NULL,NA,NA,NA,NA,NA,NA,NA,NA,NA,NA,NA,NA,NA,NA,NA,NA,NA,NA,NA
65d6a,Deep Question,html.Page,1_9_0_0,NA,NA,form submission,33277.300000381,264217.39999962,264216,264232.8,297510.10000038,297510.39999962,2024-03-11T12:48:59Z,297516,Toleranz,kuvumiliana,s,maombolezo,ujasusi,mchekeshaji,foleni,NA,NA,NULL,NA,NA,NA,NA,NA,NA,NA,NA,NA,NA,NA,NA,NA,NA,NA,NA,NA,NA,NA
65d6a,Save data screen,canvas.Screen,1_9_0_1,NA,NA,timeout,500,297512.10000038,297499.514,297516,297999.4,298000.30000019,2024-03-11T12:49:00Z,298016,Toleranz,kuvumiliana,s,maombolezo,ujasusi,mchekeshaji,NA,NA,0,NULL,NA,NA,NA,NA,NA,NA,NA,NA,NA,NA,NA,NA,NA,NA,NA,NA,NA,NA,NA
65d6a,deep,flow.Sequence,1_9_0,NA,NA,completion,33766.6,264217.30000019,264216,264232.8,297999.4,298000.60000038,2024-03-11T12:49:00Z,298016,Toleranz,kuvumiliana,s,maombolezo,ujasusi,mchekeshaji,NA,NA,NA,NULL,NA,NA,NA,NA,NA,NA,NA,NA,NA,NA,NA,NA,NA,NA,NA,NA,NA,NA,NA
65d6a,task,flow.Sequence,1_9,NA,NA,completion,33766.6,264217.30000019,264216,264232.8,297999.4,298000.69999981,2024-03-11T12:49:00Z,298016,Toleranz,kuvumiliana,s,maombolezo,ujasusi,mchekeshaji,NA,NA,NA,NULL,NA,NA,NA,NA,NA,NA,NA,NA,NA,NA,NA,NA,NA,NA,NA,NA,NA,NA,NA
65d6a,Deep Question,html.Page,1_10_0_0,NA,NA,form submission,14591.800000191,298001,297999.4,298016,312607.80000019,312607.89999962,2024-03-11T12:49:14Z,312632.8,Spionage,upelelezi,s,maslahi,utokazo,magangao,spionanji,NA,NA,NULL,NA,NA,NA,NA,NA,NA,NA,NA,NA,NA,NA,NA,NA,NA,NA,NA,NA,NA,NA
65d6a,Save data screen,canvas.Screen,1_10_0_1,NA,NA,timeout,499.79999999999,312609.69999981,312617,312632.8,313116.1,313117,2024-03-11T12:49:15Z,313132.6,Spionage,upelelezi,s,maslahi,utokazo,magangao,NA,NA,0,NULL,NA,NA,NA,NA,NA,NA,NA,NA,NA,NA,NA,NA,NA,NA,NA,NA,NA,NA,NA
65d6a,deep,flow.Sequence,1_10_0,NA,NA,completion,15100.1,298000.89999962,297999.4,298016,313116.1,313117.19999981,2024-03-11T12:49:15Z,313132.6,Spionage,upelelezi,s,maslahi,utokazo,magangao,NA,NA,NA,NULL,NA,NA,NA,NA,NA,NA,NA,NA,NA,NA,NA,NA,NA,NA,NA,NA,NA,NA,NA
65d6a,task,flow.Sequence,1_10,NA,NA,completion,15100.1,298000.80000019,297999.4,298016,313116.1,313117.39999962,2024-03-11T12:49:15Z,313132.6,Spionage,upelelezi,s,maslahi,utokazo,magangao,NA,NA,NA,NULL,NA,NA,NA,NA,NA,NA,NA,NA,NA,NA,NA,NA,NA,NA,NA,NA,NA,NA,NA
65d6a,Deep Question,html.Page,1_11_0_0,NA,NA,form submission,27553.4,313117.60000038,313116.1,313132.6,340686,340686.10000038,2024-03-11T12:49:42Z,340699.3,Theorie,nadharia,s,ushungi,mkutano,uwakilishi,teorinji,NA,NA,NULL,NA,NA,NA,NA,NA,NA,NA,NA,NA,NA,NA,NA,NA,NA,NA,NA,NA,NA,NA
65d6a,Save data screen,canvas.Screen,1_11_0_1,NA,NA,timeout,500.10000000003,340687.80000019,340682.758,340699.3,341182.7,341183.69999981,2024-03-11T12:49:43Z,341199.4,Theorie,nadharia,s,ushungi,mkutano,uwakilishi,NA,NA,0,NULL,NA,NA,NA,NA,NA,NA,NA,NA,NA,NA,NA,NA,NA,NA,NA,NA,NA,NA,NA
65d6a,deep,flow.Sequence,1_11_0,NA,NA,completion,28050.1,313117.5,313116.1,313132.6,341182.7,341183.89999962,2024-03-11T12:49:43Z,341199.4,Theorie,nadharia,s,ushungi,mkutano,uwakilishi,NA,NA,NA,NULL,NA,NA,NA,NA,NA,NA,NA,NA,NA,NA,NA,NA,NA,NA,NA,NA,NA,NA,NA
65d6a,task,flow.Sequence,1_11,NA,NA,completion,28050.1,313117.5,313116.1,313132.6,341182.7,341184.10000038,2024-03-11T12:49:43Z,341199.4,Theorie,nadharia,s,ushungi,mkutano,uwakilishi,NA,NA,NA,NULL,NA,NA,NA,NA,NA,NA,NA,NA,NA,NA,NA,NA,NA,NA,NA,NA,NA,NA,NA
65d6a,Deep Question,html.Page,1_12_0_0,NA,NA,form submission,29606.499999619,341184.19999981,341182.7,341199.4,370805.89999962,370806.10000038,2024-03-11T12:50:13Z,370816,Wohlstand,mafanikio,s,chimbuko,kumbuko,mapwaji,balakiki,NA,NA,NULL,NA,NA,NA,NA,NA,NA,NA,NA,NA,NA,NA,NA,NA,NA,NA,NA,NA,NA,NA
65d6a,Save data screen,canvas.Screen,1_12_0_1,NA,NA,timeout,500,370807.69999981,370799.4,370816,371299.4,371300.19999981,2024-03-11T12:50:13Z,371316,Wohlstand,mafanikio,s,chimbuko,kumbuko,mapwaji,NA,NA,0,NULL,NA,NA,NA,NA,NA,NA,NA,NA,NA,NA,NA,NA,NA,NA,NA,NA,NA,NA,NA
65d6a,deep,flow.Sequence,1_12_0,NA,NA,completion,30100,341184.10000038,341182.7,341199.4,371299.4,371300.39999962,2024-03-11T12:50:13Z,371316,Wohlstand,mafanikio,s,chimbuko,kumbuko,mapwaji,NA,NA,NA,NULL,NA,NA,NA,NA,NA,NA,NA,NA,NA,NA,NA,NA,NA,NA,NA,NA,NA,NA,NA
65d6a,task,flow.Sequence,1_12,NA,NA,completion,30100,341184.10000038,341182.7,341199.4,371299.4,371300.60000038,2024-03-11T12:50:13Z,371316,Wohlstand,mafanikio,s,chimbuko,kumbuko,mapwaji,NA,NA,NA,NULL,NA,NA,NA,NA,NA,NA,NA,NA,NA,NA,NA,NA,NA,NA,NA,NA,NA,NA,NA
65d6a,Deep Question,html.Page,1_13_0_0,NA,NA,form submission,37411.100000381,371300.89999962,371299.4,371316,408727.10000038,408727.19999981,2024-03-11T12:50:51Z,408732.5,Ergänzung,kijalizo,s,ulaghai,mustarehe,matangazo,ergenzewa,NA,NA,NULL,NA,NA,NA,NA,NA,NA,NA,NA,NA,NA,NA,NA,NA,NA,NA,NA,NA,NA,NA
65d6a,Save data screen,canvas.Screen,1_13_0_1,NA,NA,timeout,500.09999999998,408729,408716.012,408732.5,409215.9,409216.89999962,2024-03-11T12:50:51Z,409232.6,Ergänzung,kijalizo,s,ulaghai,mustarehe,matangazo,NA,NA,0,NULL,NA,NA,NA,NA,NA,NA,NA,NA,NA,NA,NA,NA,NA,NA,NA,NA,NA,NA,NA
65d6a,deep,flow.Sequence,1_13_0,NA,NA,completion,37899.9,371300.89999962,371299.4,371316,409215.9,409217.19999981,2024-03-11T12:50:51Z,409232.6,Ergänzung,kijalizo,s,ulaghai,mustarehe,matangazo,NA,NA,NA,NULL,NA,NA,NA,NA,NA,NA,NA,NA,NA,NA,NA,NA,NA,NA,NA,NA,NA,NA,NA
65d6a,task,flow.Sequence,1_13,NA,NA,completion,37899.9,371300.69999981,371299.4,371316,409215.9,409217.30000019,2024-03-11T12:50:51Z,409232.6,Ergänzung,kijalizo,s,ulaghai,mustarehe,matangazo,NA,NA,NA,NULL,NA,NA,NA,NA,NA,NA,NA,NA,NA,NA,NA,NA,NA,NA,NA,NA,NA,NA,NA
65d6a,Deep Question,html.Page,1_14_0_0,NA,NA,form submission,40184.200000191,409217.5,409215.9,409232.6,449416.80000019,449417,2024-03-11T12:51:31Z,449432.6,Schüler,mwanafunzi,d,mwekezaji,matumizi,uaminifu,studenji,NA,NA,NULL,NA,NA,NA,NA,NA,NA,NA,NA,NA,NA,NA,NA,NA,NA,NA,NA,NA,NA,NA
65d6a,Save data screen,canvas.Screen,1_14_0_1,NA,NA,timeout,500.10000000003,449418.80000019,449415.988,449432.6,449915.9,449916.89999962,2024-03-11T12:51:32Z,449932.7,Schüler,mwanafunzi,d,mwekezaji,matumizi,uaminifu,NA,NA,0,NULL,NA,NA,NA,NA,NA,NA,NA,NA,NA,NA,NA,NA,NA,NA,NA,NA,NA,NA,NA
65d6a,deep,flow.Sequence,1_14_0,NA,NA,completion,40683.3,409217.5,409215.9,409232.6,449915.9,449917,2024-03-11T12:51:32Z,449932.7,Schüler,mwanafunzi,d,mwekezaji,matumizi,uaminifu,NA,NA,NA,NULL,NA,NA,NA,NA,NA,NA,NA,NA,NA,NA,NA,NA,NA,NA,NA,NA,NA,NA,NA
65d6a,task,flow.Sequence,1_14,NA,NA,completion,40683.3,409217.39999962,409215.9,409232.6,449915.9,449917.19999981,2024-03-11T12:51:32Z,449932.7,Schüler,mwanafunzi,d,mwekezaji,matumizi,uaminifu,NA,NA,NA,NULL,NA,NA,NA,NA,NA,NA,NA,NA,NA,NA,NA,NA,NA,NA,NA,NA,NA,NA,NA
65d6a,Deep Question,html.Page,1_15_0_0,NA,NA,form submission,14506.900000381,449917.30000019,449915.9,449932.7,464439.60000038,464439.69999981,2024-03-11T12:51:46Z,464449.2,Hoffnung,matarajio,d,kutaalamika,uratibu,mvumbuzi,openji,NA,NA,NULL,NA,NA,NA,NA,NA,NA,NA,NA,NA,NA,NA,NA,NA,NA,NA,NA,NA,NA,NA
65d6a,Save data screen,canvas.Screen,1_15_0_1,NA,NA,timeout,499.89999999997,464441.39999962,464432.636,464449.2,464932.6,464933.5,2024-03-11T12:51:47Z,464949.1,Hoffnung,matarajio,d,kutaalamika,uratibu,mvumbuzi,NA,NA,0,NULL,NA,NA,NA,NA,NA,NA,NA,NA,NA,NA,NA,NA,NA,NA,NA,NA,NA,NA,NA
65d6a,deep,flow.Sequence,1_15_0,NA,NA,completion,14999.9,449917.30000019,449915.9,449932.7,464932.6,464933.69999981,2024-03-11T12:51:47Z,464949.1,Hoffnung,matarajio,d,kutaalamika,uratibu,mvumbuzi,NA,NA,NA,NULL,NA,NA,NA,NA,NA,NA,NA,NA,NA,NA,NA,NA,NA,NA,NA,NA,NA,NA,NA
65d6a,task,flow.Sequence,1_15,NA,NA,completion,14999.9,449917.30000019,449915.9,449932.7,464932.6,464933.89999962,2024-03-11T12:51:47Z,464949.1,Hoffnung,matarajio,d,kutaalamika,uratibu,mvumbuzi,NA,NA,NA,NULL,NA,NA,NA,NA,NA,NA,NA,NA,NA,NA,NA,NA,NA,NA,NA,NA,NA,NA,NA
65d6a,retrieval block 1 (cued recall),flow.Loop,1,NA,NA,completion,461649.6,3272.3000001907,3267.2,3283,464932.6,464934.10000038,2024-03-11T12:51:47Z,464949.1,NA,NA,NA,NA,NA,NA,NA,NA,NA,NULL,NA,NA,NA,NA,NA,NA,NA,NA,NA,NA,NA,NA,NA,NA,NA,NA,NA,NA,NA
65d6a,Shallow Question,html.Page,2_0_0_0,NA,NA,form submission,22643.700000191,464934.5,464932.6,464949.1,487592.80000019,487592.89999962,2024-03-11T12:52:09Z,487599.1,Notfall,dharura,d,rairai,malalamiko,ahueni,dharura,NA,NA,"c(""distractor1"", ""distractor2"", ""distractor3"")",NA,NA,NA,NA,NA,NA,NA,NA,NA,NA,NA,NA,NA,NA,NA,NA,NA,NA,NA
65d6a,Save data screen,canvas.Screen,2_0_0_1,NA,NA,timeout,500.10000000003,487594.60000038,487582.706,487599.1,488082.6,488083.5,2024-03-11T12:52:10Z,488099.2,Notfall,dharura,d,rairai,malalamiko,ahueni,NA,NA,1,"c(""distractor1"", ""distractor2"", ""distractor3"")",NA,NA,NA,NA,NA,NA,NA,NA,NA,NA,NA,NA,NA,NA,NA,NA,NA,NA,NA
65d6a,shallow,flow.Sequence,2_0_0,NA,NA,completion,23133.5,464934.5,464932.6,464949.1,488082.6,488083.89999962,2024-03-11T12:52:10Z,488099.2,Notfall,dharura,d,rairai,malalamiko,ahueni,NA,NA,NA,"c(""distractor1"", ""distractor2"", ""distractor3"")",NA,NA,NA,NA,NA,NA,NA,NA,NA,NA,NA,NA,NA,NA,NA,NA,NA,NA,NA
65d6a,task,flow.Sequence,2_0,NA,NA,completion,23133.5,464934.39999962,464932.6,464949.1,488082.6,488084,2024-03-11T12:52:10Z,488099.2,Notfall,dharura,d,rairai,malalamiko,ahueni,NA,NA,NA,"c(""distractor1"", ""distractor2"", ""distractor3"")",NA,NA,NA,NA,NA,NA,NA,NA,NA,NA,NA,NA,NA,NA,NA,NA,NA,NA,NA
65d6a,Shallow Question,html.Page,2_1_0_0,NA,NA,form submission,10435.3,488084.10000038,488082.6,488099.2,498534.5,498534.69999981,2024-03-11T12:52:20Z,498549.2,Fenster,dirisha,s,walakini,tasawari,maarifa,dirisha,NA,NA,"c(""distractor1"", ""distractor2"", ""distractor3"")",NA,NA,NA,NA,NA,NA,NA,NA,NA,NA,NA,NA,NA,NA,NA,NA,NA,NA,NA
65d6a,Save data screen,canvas.Screen,2_1_0_1,NA,NA,timeout,499.89999999997,498536.39999962,498532.6,498549.2,499032.5,499033.5,2024-03-11T12:52:21Z,499049.1,Fenster,dirisha,s,walakini,tasawari,maarifa,NA,NA,1,"c(""distractor1"", ""distractor2"", ""distractor3"")",NA,NA,NA,NA,NA,NA,NA,NA,NA,NA,NA,NA,NA,NA,NA,NA,NA,NA,NA
65d6a,shallow,flow.Sequence,2_1_0,NA,NA,completion,10933.3,488084.10000038,488082.6,488099.2,499032.5,499033.69999981,2024-03-11T12:52:21Z,499049.1,Fenster,dirisha,s,walakini,tasawari,maarifa,NA,NA,NA,"c(""distractor1"", ""distractor2"", ""distractor3"")",NA,NA,NA,NA,NA,NA,NA,NA,NA,NA,NA,NA,NA,NA,NA,NA,NA,NA,NA
65d6a,task,flow.Sequence,2_1,NA,NA,completion,10933.3,488084.10000038,488082.6,488099.2,499032.5,499033.89999962,2024-03-11T12:52:21Z,499049.1,Fenster,dirisha,s,walakini,tasawari,maarifa,NA,NA,NA,"c(""distractor1"", ""distractor2"", ""distractor3"")",NA,NA,NA,NA,NA,NA,NA,NA,NA,NA,NA,NA,NA,NA,NA,NA,NA,NA,NA
65d6a,Shallow Question,html.Page,2_2_0_0,NA,NA,form submission,24884.500000381,499034,499032.5,499049.1,523933.60000038,523933.80000019,2024-03-11T12:52:46Z,523949.2,Schüler,mwanafunzi,d,mwekezaji,matumizi,uaminifu,mwanafunzi,NA,NA,"c(""distractor1"", ""distractor2"", ""distractor3"")",NA,NA,NA,NA,NA,NA,NA,NA,NA,NA,NA,NA,NA,NA,NA,NA,NA,NA,NA
65d6a,Save data screen,canvas.Screen,2_2_0_1,NA,NA,timeout,499.99999999994,523935.30000019,523932.622,523949.2,524432.6,524433.39999962,2024-03-11T12:52:46Z,524449.2,Schüler,mwanafunzi,d,mwekezaji,matumizi,uaminifu,NA,NA,1,"c(""distractor1"", ""distractor2"", ""distractor3"")",NA,NA,NA,NA,NA,NA,NA,NA,NA,NA,NA,NA,NA,NA,NA,NA,NA,NA,NA
65d6a,shallow,flow.Sequence,2_2_0,NA,NA,completion,25383.5,499033.89999962,499032.5,499049.1,524432.6,524433.69999981,2024-03-11T12:52:46Z,524449.2,Schüler,mwanafunzi,d,mwekezaji,matumizi,uaminifu,NA,NA,NA,"c(""distractor1"", ""distractor2"", ""distractor3"")",NA,NA,NA,NA,NA,NA,NA,NA,NA,NA,NA,NA,NA,NA,NA,NA,NA,NA,NA
65d6a,task,flow.Sequence,2_2,NA,NA,completion,25383.5,499033.89999962,499032.5,499049.1,524432.6,524433.80000019,2024-03-11T12:52:46Z,524449.2,Schüler,mwanafunzi,d,mwekezaji,matumizi,uaminifu,NA,NA,NA,"c(""distractor1"", ""distractor2"", ""distractor3"")",NA,NA,NA,NA,NA,NA,NA,NA,NA,NA,NA,NA,NA,NA,NA,NA,NA,NA,NA
65d6a,Shallow Question,html.Page,2_3_0_0,NA,NA,form submission,14572.499999809,524434.10000038,524432.6,524449.2,539021.69999981,539021.89999962,2024-03-11T12:53:01Z,539032.5,Schock,mshtuko,s,biashara,kukataza,vichekesho,mshtuko,NA,NA,"c(""distractor1"", ""distractor2"", ""distractor3"")",NA,NA,NA,NA,NA,NA,NA,NA,NA,NA,NA,NA,NA,NA,NA,NA,NA,NA,NA
65d6a,Save data screen,canvas.Screen,2_3_0_1,NA,NA,timeout,500,539023.5,539015.98,539032.5,539515.8,539516.89999962,2024-03-11T12:53:01Z,539532.5,Schock,mshtuko,s,biashara,kukataza,vichekesho,NA,NA,1,"c(""distractor1"", ""distractor2"", ""distractor3"")",NA,NA,NA,NA,NA,NA,NA,NA,NA,NA,NA,NA,NA,NA,NA,NA,NA,NA,NA
65d6a,shallow,flow.Sequence,2_3_0,NA,NA,completion,15066.6,524434,524432.6,524449.2,539515.8,539517.10000038,2024-03-11T12:53:01Z,539532.5,Schock,mshtuko,s,biashara,kukataza,vichekesho,NA,NA,NA,"c(""distractor1"", ""distractor2"", ""distractor3"")",NA,NA,NA,NA,NA,NA,NA,NA,NA,NA,NA,NA,NA,NA,NA,NA,NA,NA,NA
65d6a,task,flow.Sequence,2_3,NA,NA,completion,15066.6,524433.89999962,524432.6,524449.2,539515.8,539517.30000019,2024-03-11T12:53:01Z,539532.5,Schock,mshtuko,s,biashara,kukataza,vichekesho,NA,NA,NA,"c(""distractor1"", ""distractor2"", ""distractor3"")",NA,NA,NA,NA,NA,NA,NA,NA,NA,NA,NA,NA,NA,NA,NA,NA,NA,NA,NA
65d6a,Shallow Question,html.Page,2_4_0_0,NA,NA,form submission,16514.300000191,539517.5,539515.8,539532.5,556046.80000019,556046.89999962,2024-03-11T12:53:18Z,556049.228,Schlange,foleni,s,uvumilivu,uteuzi,muuzaji,foleni,NA,NA,"c(""distractor1"", ""distractor2"", ""distractor3"")",NA,NA,NA,NA,NA,NA,NA,NA,NA,NA,NA,NA,NA,NA,NA,NA,NA,NA,NA
65d6a,Save data screen,canvas.Screen,2_4_0_1,NA,NA,timeout,499.97199999995,556048.60000038,556049.228,556049.228,556532.5,556533.30000019,2024-03-11T12:53:18Z,556549.2,Schlange,foleni,s,uvumilivu,uteuzi,muuzaji,NA,NA,1,"c(""distractor1"", ""distractor2"", ""distractor3"")",NA,NA,NA,NA,NA,NA,NA,NA,NA,NA,NA,NA,NA,NA,NA,NA,NA,NA,NA
65d6a,shallow,flow.Sequence,2_4_0,NA,NA,completion,17000,539517.39999962,539515.8,539532.5,556532.5,556533.60000038,2024-03-11T12:53:18Z,556549.2,Schlange,foleni,s,uvumilivu,uteuzi,muuzaji,NA,NA,NA,"c(""distractor1"", ""distractor2"", ""distractor3"")",NA,NA,NA,NA,NA,NA,NA,NA,NA,NA,NA,NA,NA,NA,NA,NA,NA,NA,NA
65d6a,task,flow.Sequence,2_4,NA,NA,completion,17000,539517.39999962,539515.8,539532.5,556532.5,556533.80000019,2024-03-11T12:53:18Z,556549.2,Schlange,foleni,s,uvumilivu,uteuzi,muuzaji,NA,NA,NA,"c(""distractor1"", ""distractor2"", ""distractor3"")",NA,NA,NA,NA,NA,NA,NA,NA,NA,NA,NA,NA,NA,NA,NA,NA,NA,NA,NA
65d6a,Shallow Question,html.Page,2_5_0_0,NA,NA,form submission,12351.3,556533.80000019,556532.5,556549.2,568900.5,568900.69999981,2024-03-11T12:53:31Z,568915.8,Theorie,nadharia,s,ushungi,mkutano,uwakilishi,nadharia,NA,NA,"c(""distractor1"", ""distractor2"", ""distractor3"")",NA,NA,NA,NA,NA,NA,NA,NA,NA,NA,NA,NA,NA,NA,NA,NA,NA,NA,NA
65d6a,Save data screen,canvas.Screen,2_5_0_1,NA,NA,timeout,500.09999999998,568902.39999962,568899.216,568915.8,569399.1,569400,2024-03-11T12:53:31Z,569415.9,Theorie,nadharia,s,ushungi,mkutano,uwakilishi,NA,NA,1,"c(""distractor1"", ""distractor2"", ""distractor3"")",NA,NA,NA,NA,NA,NA,NA,NA,NA,NA,NA,NA,NA,NA,NA,NA,NA,NA,NA
65d6a,shallow,flow.Sequence,2_5_0,NA,NA,completion,12849.9,556533.80000019,556532.5,556549.2,569399.1,569400.19999981,2024-03-11T12:53:31Z,569415.9,Theorie,nadharia,s,ushungi,mkutano,uwakilishi,NA,NA,NA,"c(""distractor1"", ""distractor2"", ""distractor3"")",NA,NA,NA,NA,NA,NA,NA,NA,NA,NA,NA,NA,NA,NA,NA,NA,NA,NA,NA
65d6a,task,flow.Sequence,2_5,NA,NA,completion,12849.9,556533.80000019,556532.5,556549.2,569399.1,569400.30000019,2024-03-11T12:53:31Z,569415.9,Theorie,nadharia,s,ushungi,mkutano,uwakilishi,NA,NA,NA,"c(""distractor1"", ""distractor2"", ""distractor3"")",NA,NA,NA,NA,NA,NA,NA,NA,NA,NA,NA,NA,NA,NA,NA,NA,NA,NA,NA
65d6a,Shallow Question,html.Page,2_6_0_0,NA,NA,form submission,6141.4999996185,569400.5,569399.1,569415.9,575557.39999962,575557.69999981,2024-03-11T12:53:37Z,575565.7,Vergnügen,kichekesho,d,dubwana,mpanuko,mtesaji,kichekesho,NA,NA,"c(""distractor1"", ""distractor2"", ""distractor3"")",NA,NA,NA,NA,NA,NA,NA,NA,NA,NA,NA,NA,NA,NA,NA,NA,NA,NA,NA
65d6a,Save data screen,canvas.Screen,2_6_0_1,NA,NA,timeout,500.20000000007,575559.19999981,575549.25,575565.7,576049.1,576050.10000038,2024-03-11T12:53:38Z,576065.9,Vergnügen,kichekesho,d,dubwana,mpanuko,mtesaji,NA,NA,1,"c(""distractor1"", ""distractor2"", ""distractor3"")",NA,NA,NA,NA,NA,NA,NA,NA,NA,NA,NA,NA,NA,NA,NA,NA,NA,NA,NA
65d6a,shallow,flow.Sequence,2_6_0,NA,NA,completion,6633.2,569400.5,569399.1,569415.9,576049.1,576050.39999962,2024-03-11T12:53:38Z,576065.9,Vergnügen,kichekesho,d,dubwana,mpanuko,mtesaji,NA,NA,NA,"c(""distractor1"", ""distractor2"", ""distractor3"")",NA,NA,NA,NA,NA,NA,NA,NA,NA,NA,NA,NA,NA,NA,NA,NA,NA,NA,NA
65d6a,task,flow.Sequence,2_6,NA,NA,completion,6633.2,569400.5,569399.1,569415.9,576049.1,576050.5,2024-03-11T12:53:38Z,576065.9,Vergnügen,kichekesho,d,dubwana,mpanuko,mtesaji,NA,NA,NA,"c(""distractor1"", ""distractor2"", ""distractor3"")",NA,NA,NA,NA,NA,NA,NA,NA,NA,NA,NA,NA,NA,NA,NA,NA,NA,NA,NA
65d6a,Shallow Question,html.Page,2_7_0_0,NA,NA,form submission,9237.4999996185,576050.69999981,576049.1,576065.9,585303.39999962,585303.60000038,2024-03-11T12:53:47Z,585315.9,Ergänzung,kijalizo,s,ulaghai,mustarehe,matangazo,kijalizo,NA,NA,"c(""distractor1"", ""distractor2"", ""distractor3"")",NA,NA,NA,NA,NA,NA,NA,NA,NA,NA,NA,NA,NA,NA,NA,NA,NA,NA,NA
65d6a,Save data screen,canvas.Screen,2_7_0_1,NA,NA,timeout,499.90000000002,585305.30000019,585299.194,585315.9,585799.1,585800,2024-03-11T12:53:48Z,585815.8,Ergänzung,kijalizo,s,ulaghai,mustarehe,matangazo,NA,NA,1,"c(""distractor1"", ""distractor2"", ""distractor3"")",NA,NA,NA,NA,NA,NA,NA,NA,NA,NA,NA,NA,NA,NA,NA,NA,NA,NA,NA
65d6a,shallow,flow.Sequence,2_7_0,NA,NA,completion,9733.2,576050.60000038,576049.1,576065.9,585799.1,585800.30000019,2024-03-11T12:53:48Z,585815.8,Ergänzung,kijalizo,s,ulaghai,mustarehe,matangazo,NA,NA,NA,"c(""distractor1"", ""distractor2"", ""distractor3"")",NA,NA,NA,NA,NA,NA,NA,NA,NA,NA,NA,NA,NA,NA,NA,NA,NA,NA,NA
65d6a,task,flow.Sequence,2_7,NA,NA,completion,9733.2,576050.60000038,576049.1,576065.9,585799.1,585800.39999962,2024-03-11T12:53:48Z,585815.8,Ergänzung,kijalizo,s,ulaghai,mustarehe,matangazo,NA,NA,NA,"c(""distractor1"", ""distractor2"", ""distractor3"")",NA,NA,NA,NA,NA,NA,NA,NA,NA,NA,NA,NA,NA,NA,NA,NA,NA,NA,NA
65d6a,Shallow Question,html.Page,2_8_0_0,NA,NA,form submission,17233.899999809,585800.60000038,585799.1,585815.8,603049.69999981,603050,2024-03-11T12:54:05Z,603065.6,Wohlstand,mafanikio,s,chimbuko,kumbuko,mapwaji,mafanikio,NA,NA,"c(""distractor1"", ""distractor2"", ""distractor3"")",NA,NA,NA,NA,NA,NA,NA,NA,NA,NA,NA,NA,NA,NA,NA,NA,NA,NA,NA
65d6a,Save data screen,canvas.Screen,2_8_0_1,NA,NA,timeout,500.20000000007,603051.5,603049.188,603065.6,603549,603550,2024-03-11T12:54:05Z,603565.8,Wohlstand,mafanikio,s,chimbuko,kumbuko,mapwaji,NA,NA,1,"c(""distractor1"", ""distractor2"", ""distractor3"")",NA,NA,NA,NA,NA,NA,NA,NA,NA,NA,NA,NA,NA,NA,NA,NA,NA,NA,NA
65d6a,shallow,flow.Sequence,2_8_0,NA,NA,completion,17733.2,585800.5,585799.1,585815.8,603549,603550.30000019,2024-03-11T12:54:05Z,603565.8,Wohlstand,mafanikio,s,chimbuko,kumbuko,mapwaji,NA,NA,NA,"c(""distractor1"", ""distractor2"", ""distractor3"")",NA,NA,NA,NA,NA,NA,NA,NA,NA,NA,NA,NA,NA,NA,NA,NA,NA,NA,NA
65d6a,task,flow.Sequence,2_8,NA,NA,completion,17733.2,585800.5,585799.1,585815.8,603549,603550.5,2024-03-11T12:54:05Z,603565.8,Wohlstand,mafanikio,s,chimbuko,kumbuko,mapwaji,NA,NA,NA,"c(""distractor1"", ""distractor2"", ""distractor3"")",NA,NA,NA,NA,NA,NA,NA,NA,NA,NA,NA,NA,NA,NA,NA,NA,NA,NA,NA
65d6a,Shallow Question,html.Page,2_9_0_0,NA,NA,form submission,17489.7,603550.60000038,603549,603565.8,621055.5,621055.69999981,2024-03-11T12:54:23Z,621065.7,Verpackung,ufungaji,d,uhusiano,upimaji,uchunguzi,ufungaji,NA,NA,"c(""distractor1"", ""distractor2"", ""distractor3"")",NA,NA,NA,NA,NA,NA,NA,NA,NA,NA,NA,NA,NA,NA,NA,NA,NA,NA,NA
65d6a,Save data screen,canvas.Screen,2_9_0_1,NA,NA,timeout,500.10000000009,621057.39999962,621049.156,621065.7,621549,621550.19999981,2024-03-11T12:54:23Z,621565.8,Verpackung,ufungaji,d,uhusiano,upimaji,uchunguzi,NA,NA,1,"c(""distractor1"", ""distractor2"", ""distractor3"")",NA,NA,NA,NA,NA,NA,NA,NA,NA,NA,NA,NA,NA,NA,NA,NA,NA,NA,NA
65d6a,shallow,flow.Sequence,2_9_0,NA,NA,completion,17983.2,603550.5,603549,603565.8,621549,621550.39999962,2024-03-11T12:54:23Z,621565.8,Verpackung,ufungaji,d,uhusiano,upimaji,uchunguzi,NA,NA,NA,"c(""distractor1"", ""distractor2"", ""distractor3"")",NA,NA,NA,NA,NA,NA,NA,NA,NA,NA,NA,NA,NA,NA,NA,NA,NA,NA,NA
65d6a,task,flow.Sequence,2_9,NA,NA,completion,17983.2,603550.5,603549,603565.8,621549,621550.60000038,2024-03-11T12:54:23Z,621565.8,Verpackung,ufungaji,d,uhusiano,upimaji,uchunguzi,NA,NA,NA,"c(""distractor1"", ""distractor2"", ""distractor3"")",NA,NA,NA,NA,NA,NA,NA,NA,NA,NA,NA,NA,NA,NA,NA,NA,NA,NA,NA
65d6a,Shallow Question,html.Page,2_10_0_0,NA,NA,form submission,7645.7,621550.69999981,621549,621565.8,629211.5,629211.69999981,2024-03-11T12:54:31Z,629215.7,Inhalt,yaliyomo,d,kishawishi,hifadhi,kutembea,yaliyomo,NA,NA,"c(""distractor1"", ""distractor2"", ""distractor3"")",NA,NA,NA,NA,NA,NA,NA,NA,NA,NA,NA,NA,NA,NA,NA,NA,NA,NA,NA
65d6a,Save data screen,canvas.Screen,2_10_0_1,NA,NA,timeout,500.10000000009,629213.19999981,629199.168,629215.7,629699,629699.80000019,2024-03-11T12:54:31Z,629715.8,Inhalt,yaliyomo,d,kishawishi,hifadhi,kutembea,NA,NA,1,"c(""distractor1"", ""distractor2"", ""distractor3"")",NA,NA,NA,NA,NA,NA,NA,NA,NA,NA,NA,NA,NA,NA,NA,NA,NA,NA,NA
65d6a,shallow,flow.Sequence,2_10_0,NA,NA,completion,8133.2,621550.69999981,621549,621565.8,629699,629700.10000038,2024-03-11T12:54:31Z,629715.8,Inhalt,yaliyomo,d,kishawishi,hifadhi,kutembea,NA,NA,NA,"c(""distractor1"", ""distractor2"", ""distractor3"")",NA,NA,NA,NA,NA,NA,NA,NA,NA,NA,NA,NA,NA,NA,NA,NA,NA,NA,NA
65d6a,task,flow.Sequence,2_10,NA,NA,completion,8133.2,621550.60000038,621549,621565.8,629699,629700.19999981,2024-03-11T12:54:31Z,629715.8,Inhalt,yaliyomo,d,kishawishi,hifadhi,kutembea,NA,NA,NA,"c(""distractor1"", ""distractor2"", ""distractor3"")",NA,NA,NA,NA,NA,NA,NA,NA,NA,NA,NA,NA,NA,NA,NA,NA,NA,NA,NA
65d6a,Shallow Question,html.Page,2_11_0_0,NA,NA,form submission,11546.7,629700.30000019,629699,629715.8,641262.5,641262.69999981,2024-03-11T12:54:43Z,641265.6,Vermutung,udhanifu,d,haramia,tikisho,itifaki,udhanifu,NA,NA,"c(""distractor1"", ""distractor2"", ""distractor3"")",NA,NA,NA,NA,NA,NA,NA,NA,NA,NA,NA,NA,NA,NA,NA,NA,NA,NA,NA
65d6a,Save data screen,canvas.Screen,2_11_0_1,NA,NA,timeout,500.20000000007,641264.30000019,641249.166,641265.6,641749.1,641749.89999962,2024-03-11T12:54:44Z,641765.8,Vermutung,udhanifu,d,haramia,tikisho,itifaki,NA,NA,1,"c(""distractor1"", ""distractor2"", ""distractor3"")",NA,NA,NA,NA,NA,NA,NA,NA,NA,NA,NA,NA,NA,NA,NA,NA,NA,NA,NA
65d6a,shallow,flow.Sequence,2_11_0,NA,NA,completion,12033.3,629700.30000019,629699,629715.8,641749.1,641750.10000038,2024-03-11T12:54:44Z,641765.8,Vermutung,udhanifu,d,haramia,tikisho,itifaki,NA,NA,NA,"c(""distractor1"", ""distractor2"", ""distractor3"")",NA,NA,NA,NA,NA,NA,NA,NA,NA,NA,NA,NA,NA,NA,NA,NA,NA,NA,NA
65d6a,task,flow.Sequence,2_11,NA,NA,completion,12033.3,629700.30000019,629699,629715.8,641749.1,641750.30000019,2024-03-11T12:54:44Z,641765.8,Vermutung,udhanifu,d,haramia,tikisho,itifaki,NA,NA,NA,"c(""distractor1"", ""distractor2"", ""distractor3"")",NA,NA,NA,NA,NA,NA,NA,NA,NA,NA,NA,NA,NA,NA,NA,NA,NA,NA,NA
65d6a,Shallow Question,html.Page,2_12_0_0,NA,NA,form submission,23825.500000191,641750.39999962,641749.1,641765.8,665591.30000019,665591.60000038,2024-03-11T12:55:07Z,665598.9,Tester,wanaojaribu,d,sherti,sihiri,mlipuko,sihiri,NA,NA,"c(""distractor1"", ""distractor2"", ""distractor3"")",NA,NA,NA,NA,NA,NA,NA,NA,NA,NA,NA,NA,NA,NA,NA,NA,NA,NA,NA
65d6a,Save data screen,canvas.Screen,2_12_0_1,NA,NA,timeout,500.19999999995,665593.19999981,665582.456,665598.9,666082.4,666083.39999962,2024-03-11T12:55:08Z,666099.1,Tester,wanaojaribu,d,sherti,sihiri,mlipuko,NA,NA,0,"c(""distractor1"", ""distractor2"", ""distractor3"")",NA,NA,NA,NA,NA,NA,NA,NA,NA,NA,NA,NA,NA,NA,NA,NA,NA,NA,NA
65d6a,shallow,flow.Sequence,2_12_0,NA,NA,completion,24316.6,641750.39999962,641749.1,641765.8,666082.4,666083.60000038,2024-03-11T12:55:08Z,666099.1,Tester,wanaojaribu,d,sherti,sihiri,mlipuko,NA,NA,NA,"c(""distractor1"", ""distractor2"", ""distractor3"")",NA,NA,NA,NA,NA,NA,NA,NA,NA,NA,NA,NA,NA,NA,NA,NA,NA,NA,NA
65d6a,task,flow.Sequence,2_12,NA,NA,completion,24316.6,641750.39999962,641749.1,641765.8,666082.4,666083.80000019,2024-03-11T12:55:08Z,666099.1,Tester,wanaojaribu,d,sherti,sihiri,mlipuko,NA,NA,NA,"c(""distractor1"", ""distractor2"", ""distractor3"")",NA,NA,NA,NA,NA,NA,NA,NA,NA,NA,NA,NA,NA,NA,NA,NA,NA,NA,NA
65d6a,Shallow Question,html.Page,2_13_0_0,NA,NA,form submission,13902.9,666083.89999962,666082.4,666099.1,680002,680002.10000038,2024-03-11T12:55:22Z,680015.6,Hoffnung,matarajio,d,kutaalamika,uratibu,mvumbuzi,matarajio,NA,NA,"c(""distractor1"", ""distractor2"", ""distractor3"")",NA,NA,NA,NA,NA,NA,NA,NA,NA,NA,NA,NA,NA,NA,NA,NA,NA,NA,NA
65d6a,Save data screen,canvas.Screen,2_13_0_1,NA,NA,timeout,500.09999999998,680003.60000038,679999.056,680015.6,680499,680499.69999981,2024-03-11T12:55:22Z,680515.7,Hoffnung,matarajio,d,kutaalamika,uratibu,mvumbuzi,NA,NA,1,"c(""distractor1"", ""distractor2"", ""distractor3"")",NA,NA,NA,NA,NA,NA,NA,NA,NA,NA,NA,NA,NA,NA,NA,NA,NA,NA,NA
65d6a,shallow,flow.Sequence,2_13_0,NA,NA,completion,14399.9,666083.89999962,666082.4,666099.1,680499,680499.69999981,2024-03-11T12:55:22Z,680515.7,Hoffnung,matarajio,d,kutaalamika,uratibu,mvumbuzi,NA,NA,NA,"c(""distractor1"", ""distractor2"", ""distractor3"")",NA,NA,NA,NA,NA,NA,NA,NA,NA,NA,NA,NA,NA,NA,NA,NA,NA,NA,NA
65d6a,task,flow.Sequence,2_13,NA,NA,completion,14399.9,666083.89999962,666082.4,666099.1,680499,680499.89999962,2024-03-11T12:55:22Z,680515.7,Hoffnung,matarajio,d,kutaalamika,uratibu,mvumbuzi,NA,NA,NA,"c(""distractor1"", ""distractor2"", ""distractor3"")",NA,NA,NA,NA,NA,NA,NA,NA,NA,NA,NA,NA,NA,NA,NA,NA,NA,NA,NA
65d6a,Shallow Question,html.Page,2_14_0_0,NA,NA,form submission,5383.3,680499.89999962,680499,680515.7,685899,685899.19999981,2024-03-11T12:55:28Z,685916.4,Toleranz,kuvumiliana,s,maombolezo,ujasusi,mchekeshaji,kuvumiliana,NA,NA,"c(""distractor1"", ""distractor2"", ""distractor3"")",NA,NA,NA,NA,NA,NA,NA,NA,NA,NA,NA,NA,NA,NA,NA,NA,NA,NA,NA
65d6a,Save data screen,canvas.Screen,2_14_0_1,NA,NA,timeout,499.19999999995,685900.5,685899.022,685916.4,686398.9,686399.60000038,2024-03-11T12:55:28Z,686415.6,Toleranz,kuvumiliana,s,maombolezo,ujasusi,mchekeshaji,NA,NA,1,"c(""distractor1"", ""distractor2"", ""distractor3"")",NA,NA,NA,NA,NA,NA,NA,NA,NA,NA,NA,NA,NA,NA,NA,NA,NA,NA,NA
65d6a,shallow,flow.Sequence,2_14_0,NA,NA,completion,5883.2000000001,680499.89999962,680499,680515.7,686398.9,686399.69999981,2024-03-11T12:55:28Z,686415.6,Toleranz,kuvumiliana,s,maombolezo,ujasusi,mchekeshaji,NA,NA,NA,"c(""distractor1"", ""distractor2"", ""distractor3"")",NA,NA,NA,NA,NA,NA,NA,NA,NA,NA,NA,NA,NA,NA,NA,NA,NA,NA,NA
65d6a,task,flow.Sequence,2_14,NA,NA,completion,5883.2000000001,680499.89999962,680499,680515.7,686398.9,686399.80000019,2024-03-11T12:55:28Z,686415.6,Toleranz,kuvumiliana,s,maombolezo,ujasusi,mchekeshaji,NA,NA,NA,"c(""distractor1"", ""distractor2"", ""distractor3"")",NA,NA,NA,NA,NA,NA,NA,NA,NA,NA,NA,NA,NA,NA,NA,NA,NA,NA,NA
65d6a,Shallow Question,html.Page,2_15_0_0,NA,NA,form submission,11563.700000191,686399.89999962,686398.9,686415.6,697979.30000019,697979.5,2024-03-11T12:55:40Z,697982.3,Spionage,upelelezi,s,maslahi,utokazo,magangao,upelelezi,NA,NA,"c(""distractor1"", ""distractor2"", ""distractor3"")",NA,NA,NA,NA,NA,NA,NA,NA,NA,NA,NA,NA,NA,NA,NA,NA,NA,NA,NA
65d6a,Save data screen,canvas.Screen,2_15_0_1,NA,NA,timeout,499.89999999991,697981.19999981,697965.758,697982.3,698465.7,698466.60000038,2024-03-11T12:55:40Z,698482.2,Spionage,upelelezi,s,maslahi,utokazo,magangao,NA,NA,1,"c(""distractor1"", ""distractor2"", ""distractor3"")",NA,NA,NA,NA,NA,NA,NA,NA,NA,NA,NA,NA,NA,NA,NA,NA,NA,NA,NA
65d6a,shallow,flow.Sequence,2_15_0,NA,NA,completion,12050.1,686399.89999962,686398.9,686415.6,698465.7,698466.69999981,2024-03-11T12:55:40Z,698482.2,Spionage,upelelezi,s,maslahi,utokazo,magangao,NA,NA,NA,"c(""distractor1"", ""distractor2"", ""distractor3"")",NA,NA,NA,NA,NA,NA,NA,NA,NA,NA,NA,NA,NA,NA,NA,NA,NA,NA,NA
65d6a,task,flow.Sequence,2_15,NA,NA,completion,12050.1,686399.89999962,686398.9,686415.6,698465.7,698466.89999962,2024-03-11T12:55:40Z,698482.2,Spionage,upelelezi,s,maslahi,utokazo,magangao,NA,NA,NA,"c(""distractor1"", ""distractor2"", ""distractor3"")",NA,NA,NA,NA,NA,NA,NA,NA,NA,NA,NA,NA,NA,NA,NA,NA,NA,NA,NA
65d6a,retrieval block 2 (multiple choice),flow.Loop,2,NA,NA,completion,233516.6,464934.39999962,464932.6,464949.1,698465.7,698467.10000038,2024-03-11T12:55:40Z,698482.2,NA,NA,NA,NA,NA,NA,NA,NA,NA,"c(""distractor1"", ""distractor2"", ""distractor3"")",NA,NA,NA,NA,NA,NA,NA,NA,NA,NA,NA,NA,NA,NA,NA,NA,NA,NA,NA
65d6a,End,canvas.Screen,3,NA,keypress(Space),response,2748.3,698467.19999981,698465.7,698482.2,701230.5,701231.69999981,2024-03-11T12:55:43Z,701232.416,NA,NA,NA,NA,NA,NA,NA,NA,NA,NULL,NA,NA,NA,NA,NA,NA,NA,NA,NA,NA,NA,NA,NA,NA,NA,NA,NA,NA,NA
65d6a,root,flow.Sequence,NA,NA,NA,completion,700897.7,331.60000038147,332.76,332.8,701230.5,701232.5,2024-03-11T12:55:43Z,701232.416,NA,NA,NA,NA,NA,NA,NA,NA,NA,NULL,NA,NA,NA,NA,NA,NA,NA,NA,NA,NA,NA,NA,NA,NA,NA,NA,NA,NA,NA
a131c,Introduction delayed retrieval,canvas.Screen,0,weiter,keypress(Space),response,15516.600000191,375,369.16,385.7,15902.300000191,15905.199999809,2024-03-18T13:24:34Z,15919.1,NA,NA,NA,NA,NA,NA,NA,NA,NA,NULL,153,4,20.2.4,https://neurocog.fernuni.ch/studies/vweber/jbaenninger/delayed/index.html?vp=153&sess=4,"Mozilla/5.0 (Windows NT 10.0; Win64; x64) AppleWebKit/537.36 (KHTML, like Gecko) Chrome/122.0.0.0 Safari/537.36 Edg/122.0.0.0",Win32,de,de-CH,Europe/Zurich,-60,1920,1080,1872,910,1872,958,1,production,f5b4a49f956347addd546a832a3327688c2c0fef
a131c,Deep Question,html.Page,1_0_0_0,NA,NA,form submission,5407.7999996185,15905.699999809,15902.738,15919.1,21326.899999619,21327.199999809,2024-03-18T13:24:39Z,21335.7,Tester,wanaojaribu,d,sherti,sihiri,mlipuko,Tester,NA,NA,NULL,NA,NA,NA,NA,NA,NA,NA,NA,NA,NA,NA,NA,NA,NA,NA,NA,NA,NA,NA
a131c,Save data screen,canvas.Screen,1_0_0_1,NA,NA,timeout,500.1,21328.100000381,21319.456,21335.7,21819.2,21820.199999809,2024-03-18T13:24:40Z,21835.8,Tester,wanaojaribu,d,sherti,sihiri,mlipuko,NA,NA,0,NULL,NA,NA,NA,NA,NA,NA,NA,NA,NA,NA,NA,NA,NA,NA,NA,NA,NA,NA,NA
a131c,deep,flow.Sequence,1_0_0,NA,NA,completion,5900.1,15905.699999809,15902.738,15919.1,21819.2,21820.5,2024-03-18T13:24:40Z,21835.8,Tester,wanaojaribu,d,sherti,sihiri,mlipuko,NA,NA,NA,NULL,NA,NA,NA,NA,NA,NA,NA,NA,NA,NA,NA,NA,NA,NA,NA,NA,NA,NA,NA
a131c,task,flow.Sequence,1_0,NA,NA,completion,5900.1,15905.600000381,15902.738,15919.1,21819.2,21820.699999809,2024-03-18T13:24:40Z,21835.8,Tester,wanaojaribu,d,sherti,sihiri,mlipuko,NA,NA,NA,NULL,NA,NA,NA,NA,NA,NA,NA,NA,NA,NA,NA,NA,NA,NA,NA,NA,NA,NA,NA
a131c,Deep Question,html.Page,1_1_0_0,NA,NA,form submission,4264.8999998093,21820.899999619,21819.2,21835.8,26100.699999809,26100.899999619,2024-03-18T13:24:44Z,26119.2,Schock,mshtuko,s,biashara,kukataza,vichekesho,Schock,NA,NA,NULL,NA,NA,NA,NA,NA,NA,NA,NA,NA,NA,NA,NA,NA,NA,NA,NA,NA,NA,NA
a131c,Save data screen,canvas.Screen,1_1_0_1,NA,NA,timeout,500,26101.699999809,26102.4,26119.2,26602.5,26603.399999619,2024-03-18T13:24:45Z,26619.2,Schock,mshtuko,s,biashara,kukataza,vichekesho,NA,NA,0,NULL,NA,NA,NA,NA,NA,NA,NA,NA,NA,NA,NA,NA,NA,NA,NA,NA,NA,NA,NA
a131c,deep,flow.Sequence,1_1_0,NA,NA,completion,4766.7,21820.899999619,21819.2,21835.8,26602.5,26603.699999809,2024-03-18T13:24:45Z,26619.2,Schock,mshtuko,s,biashara,kukataza,vichekesho,NA,NA,NA,NULL,NA,NA,NA,NA,NA,NA,NA,NA,NA,NA,NA,NA,NA,NA,NA,NA,NA,NA,NA
a131c,task,flow.Sequence,1_1,NA,NA,completion,4766.7,21820.899999619,21819.2,21835.8,26602.5,26604,2024-03-18T13:24:45Z,26619.2,Schock,mshtuko,s,biashara,kukataza,vichekesho,NA,NA,NA,NULL,NA,NA,NA,NA,NA,NA,NA,NA,NA,NA,NA,NA,NA,NA,NA,NA,NA,NA,NA
a131c,Deep Question,html.Page,1_2_0_0,NA,NA,form submission,8396.1000001907,26604.199999809,26602.5,26619.2,35015.300000191,35015.5,2024-03-18T13:24:53Z,35019.1,Verpackung,ufungaji,d,uhusiano,upimaji,uchunguzi,ufangani,NA,NA,NULL,NA,NA,NA,NA,NA,NA,NA,NA,NA,NA,NA,NA,NA,NA,NA,NA,NA,NA,NA
a131c,Save data screen,canvas.Screen,1_2_0_1,NA,NA,timeout,500.2,35016.300000191,35002.958,35019.1,35502.6,35503.399999619,2024-03-18T13:24:54Z,35519.3,Verpackung,ufungaji,d,uhusiano,upimaji,uchunguzi,NA,NA,0,NULL,NA,NA,NA,NA,NA,NA,NA,NA,NA,NA,NA,NA,NA,NA,NA,NA,NA,NA,NA
a131c,deep,flow.Sequence,1_2_0,NA,NA,completion,8883.4,26604,26602.5,26619.2,35502.6,35503.800000191,2024-03-18T13:24:54Z,35519.3,Verpackung,ufungaji,d,uhusiano,upimaji,uchunguzi,NA,NA,NA,NULL,NA,NA,NA,NA,NA,NA,NA,NA,NA,NA,NA,NA,NA,NA,NA,NA,NA,NA,NA
a131c,task,flow.Sequence,1_2,NA,NA,completion,8883.4,26604,26602.5,26619.2,35502.6,35503.899999619,2024-03-18T13:24:54Z,35519.3,Verpackung,ufungaji,d,uhusiano,upimaji,uchunguzi,NA,NA,NA,NULL,NA,NA,NA,NA,NA,NA,NA,NA,NA,NA,NA,NA,NA,NA,NA,NA,NA,NA,NA
a131c,Deep Question,html.Page,1_3_0_0,NA,NA,form submission,2953.8999998093,35504,35502.6,35519.3,38473.199999809,38473.399999619,2024-03-18T13:24:57Z,38485.8,Vermutung,udhanifu,d,haramia,tikisho,itifaki,Vermutung,NA,NA,NULL,NA,NA,NA,NA,NA,NA,NA,NA,NA,NA,NA,NA,NA,NA,NA,NA,NA,NA,NA
a131c,Save data screen,canvas.Screen,1_3_0_1,NA,NA,timeout,500.2,38474,38471.228,38485.8,38969.2,38969.800000191,2024-03-18T13:24:57Z,38986,Vermutung,udhanifu,d,haramia,tikisho,itifaki,NA,NA,0,NULL,NA,NA,NA,NA,NA,NA,NA,NA,NA,NA,NA,NA,NA,NA,NA,NA,NA,NA,NA
a131c,deep,flow.Sequence,1_3_0,NA,NA,completion,3449.9,35504,35502.6,35519.3,38969.2,38970.100000381,2024-03-18T13:24:57Z,38986,Vermutung,udhanifu,d,haramia,tikisho,itifaki,NA,NA,NA,NULL,NA,NA,NA,NA,NA,NA,NA,NA,NA,NA,NA,NA,NA,NA,NA,NA,NA,NA,NA
a131c,task,flow.Sequence,1_3,NA,NA,completion,3449.9,35504,35502.6,35519.3,38969.2,38970.300000191,2024-03-18T13:24:57Z,38986,Vermutung,udhanifu,d,haramia,tikisho,itifaki,NA,NA,NA,NULL,NA,NA,NA,NA,NA,NA,NA,NA,NA,NA,NA,NA,NA,NA,NA,NA,NA,NA,NA
a131c,Deep Question,html.Page,1_4_0_0,NA,NA,form submission,8591,38970.399999619,38969.2,38986,47577,47577.300000191,2024-03-18T13:25:06Z,47585.7,Toleranz,kuvumiliana,s,maombolezo,ujasusi,mchekeshaji,Toleranz,NA,NA,NULL,NA,NA,NA,NA,NA,NA,NA,NA,NA,NA,NA,NA,NA,NA,NA,NA,NA,NA,NA
a131c,Save data screen,canvas.Screen,1_4_0_1,NA,NA,timeout,500.10000000001,47577.800000191,47575.834,47585.7,48069.2,48069.699999809,2024-03-18T13:25:06Z,48085.8,Toleranz,kuvumiliana,s,maombolezo,ujasusi,mchekeshaji,NA,NA,0,NULL,NA,NA,NA,NA,NA,NA,NA,NA,NA,NA,NA,NA,NA,NA,NA,NA,NA,NA,NA
a131c,deep,flow.Sequence,1_4_0,NA,NA,completion,9083.2,38970.399999619,38969.2,38986,48069.2,48070,2024-03-18T13:25:06Z,48085.8,Toleranz,kuvumiliana,s,maombolezo,ujasusi,mchekeshaji,NA,NA,NA,NULL,NA,NA,NA,NA,NA,NA,NA,NA,NA,NA,NA,NA,NA,NA,NA,NA,NA,NA,NA
a131c,task,flow.Sequence,1_4,NA,NA,completion,9083.2,38970.399999619,38969.2,38986,48069.2,48070.100000381,2024-03-18T13:25:06Z,48085.8,Toleranz,kuvumiliana,s,maombolezo,ujasusi,mchekeshaji,NA,NA,NA,NULL,NA,NA,NA,NA,NA,NA,NA,NA,NA,NA,NA,NA,NA,NA,NA,NA,NA,NA,NA
a131c,Deep Question,html.Page,1_5_0_0,NA,NA,form submission,7169.3999998093,48070.300000191,48069.2,48085.8,55255.199999809,55255.5,2024-03-18T13:25:13Z,55269.2,Schlange,foleni,s,uvumilivu,uteuzi,muuzaji,findelio,NA,NA,NULL,NA,NA,NA,NA,NA,NA,NA,NA,NA,NA,NA,NA,NA,NA,NA,NA,NA,NA,NA
a131c,Save data screen,canvas.Screen,1_5_0_1,NA,NA,timeout,500,55255.899999619,55253.1,55269.2,55752.6,55753.300000191,2024-03-18T13:25:14Z,55769.2,Schlange,foleni,s,uvumilivu,uteuzi,muuzaji,NA,NA,0,NULL,NA,NA,NA,NA,NA,NA,NA,NA,NA,NA,NA,NA,NA,NA,NA,NA,NA,NA,NA
a131c,deep,flow.Sequence,1_5_0,NA,NA,completion,7666.8,48070.300000191,48069.2,48085.8,55752.6,55753.699999809,2024-03-18T13:25:14Z,55769.2,Schlange,foleni,s,uvumilivu,uteuzi,muuzaji,NA,NA,NA,NULL,NA,NA,NA,NA,NA,NA,NA,NA,NA,NA,NA,NA,NA,NA,NA,NA,NA,NA,NA
a131c,task,flow.Sequence,1_5,NA,NA,completion,7666.8,48070.199999809,48069.2,48085.8,55752.6,55753.899999619,2024-03-18T13:25:14Z,55769.2,Schlange,foleni,s,uvumilivu,uteuzi,muuzaji,NA,NA,NA,NULL,NA,NA,NA,NA,NA,NA,NA,NA,NA,NA,NA,NA,NA,NA,NA,NA,NA,NA,NA
a131c,Deep Question,html.Page,1_6_0_0,NA,NA,form submission,15726.100000191,55754,55752.6,55769.2,71495.300000191,71495.5,2024-03-18T13:25:30Z,71502.4,Vergnügen,kichekesho,d,dubwana,mpanuko,mtesaji,Vergnügen,NA,NA,NULL,NA,NA,NA,NA,NA,NA,NA,NA,NA,NA,NA,NA,NA,NA,NA,NA,NA,NA,NA
a131c,Save data screen,canvas.Screen,1_6_0_1,NA,NA,timeout,500.20000000001,71497.199999809,71486.462,71502.4,71985.8,71986.399999619,2024-03-18T13:25:30Z,72002.6,Vergnügen,kichekesho,d,dubwana,mpanuko,mtesaji,NA,NA,0,NULL,NA,NA,NA,NA,NA,NA,NA,NA,NA,NA,NA,NA,NA,NA,NA,NA,NA,NA,NA
a131c,deep,flow.Sequence,1_6_0,NA,NA,completion,16216.6,55754,55752.6,55769.2,71985.8,71986.699999809,2024-03-18T13:25:30Z,72002.6,Vergnügen,kichekesho,d,dubwana,mpanuko,mtesaji,NA,NA,NA,NULL,NA,NA,NA,NA,NA,NA,NA,NA,NA,NA,NA,NA,NA,NA,NA,NA,NA,NA,NA
a131c,task,flow.Sequence,1_6,NA,NA,completion,16216.6,55754,55752.6,55769.2,71985.8,71986.899999619,2024-03-18T13:25:30Z,72002.6,Vergnügen,kichekesho,d,dubwana,mpanuko,mtesaji,NA,NA,NA,NULL,NA,NA,NA,NA,NA,NA,NA,NA,NA,NA,NA,NA,NA,NA,NA,NA,NA,NA,NA
a131c,Deep Question,html.Page,1_7_0_0,NA,NA,form submission,12803.299999619,71987.100000381,71985.8,72002.6,84805.899999619,84806.100000381,2024-03-18T13:25:43Z,84819,Fenster,dirisha,s,walakini,tasawari,maarifa,Fenster,NA,NA,NULL,NA,NA,NA,NA,NA,NA,NA,NA,NA,NA,NA,NA,NA,NA,NA,NA,NA,NA,NA
a131c,Save data screen,canvas.Screen,1_7_0_1,NA,NA,timeout,500.3,84807.800000191,84804.012,84819,85302.5,85303.199999809,2024-03-18T13:25:43Z,85319.3,Fenster,dirisha,s,walakini,tasawari,maarifa,NA,NA,0,NULL,NA,NA,NA,NA,NA,NA,NA,NA,NA,NA,NA,NA,NA,NA,NA,NA,NA,NA,NA
a131c,deep,flow.Sequence,1_7_0,NA,NA,completion,13299.9,71987,71985.8,72002.6,85302.5,85303.5,2024-03-18T13:25:43Z,85319.3,Fenster,dirisha,s,walakini,tasawari,maarifa,NA,NA,NA,NULL,NA,NA,NA,NA,NA,NA,NA,NA,NA,NA,NA,NA,NA,NA,NA,NA,NA,NA,NA
a131c,task,flow.Sequence,1_7,NA,NA,completion,13299.9,71986.899999619,71985.8,72002.6,85302.5,85303.600000381,2024-03-18T13:25:43Z,85319.3,Fenster,dirisha,s,walakini,tasawari,maarifa,NA,NA,NA,NULL,NA,NA,NA,NA,NA,NA,NA,NA,NA,NA,NA,NA,NA,NA,NA,NA,NA,NA,NA
a131c,Deep Question,html.Page,1_8_0_0,NA,NA,form submission,6588.8000003815,85303.800000191,85302.5,85319.3,91908.100000381,91908.300000191,2024-03-18T13:25:50Z,91919.2,Hoffnung,matarajio,d,kutaalamika,uratibu,mvumbuzi,Hoffnung,NA,NA,NULL,NA,NA,NA,NA,NA,NA,NA,NA,NA,NA,NA,NA,NA,NA,NA,NA,NA,NA,NA
a131c,Save data screen,canvas.Screen,1_8_0_1,NA,NA,timeout,500,91909.800000191,91902.924,91919.2,92402.5,92403.199999809,2024-03-18T13:25:50Z,92419.2,Hoffnung,matarajio,d,kutaalamika,uratibu,mvumbuzi,NA,NA,0,NULL,NA,NA,NA,NA,NA,NA,NA,NA,NA,NA,NA,NA,NA,NA,NA,NA,NA,NA,NA
a131c,deep,flow.Sequence,1_8_0,NA,NA,completion,7083.2,85303.800000191,85302.5,85319.3,92402.5,92403.5,2024-03-18T13:25:50Z,92419.2,Hoffnung,matarajio,d,kutaalamika,uratibu,mvumbuzi,NA,NA,NA,NULL,NA,NA,NA,NA,NA,NA,NA,NA,NA,NA,NA,NA,NA,NA,NA,NA,NA,NA,NA
a131c,task,flow.Sequence,1_8,NA,NA,completion,7083.2,85303.800000191,85302.5,85319.3,92402.5,92403.600000381,2024-03-18T13:25:50Z,92419.2,Hoffnung,matarajio,d,kutaalamika,uratibu,mvumbuzi,NA,NA,NA,NULL,NA,NA,NA,NA,NA,NA,NA,NA,NA,NA,NA,NA,NA,NA,NA,NA,NA,NA,NA
a131c,Deep Question,html.Page,1_9_0_0,NA,NA,form submission,5567.9999998093,92403.800000191,92402.5,92419.2,97987.199999809,97987.399999619,2024-03-18T13:25:56Z,98002.4,Ergänzung,kijalizo,s,ulaghai,mustarehe,matangazo,Ergänzung,NA,NA,NULL,NA,NA,NA,NA,NA,NA,NA,NA,NA,NA,NA,NA,NA,NA,NA,NA,NA,NA,NA
a131c,Save data screen,canvas.Screen,1_9_0_1,NA,NA,timeout,500.10000000001,97988.899999619,97990.3,98002.4,98485.9,98486.600000381,2024-03-18T13:25:57Z,98502.5,Ergänzung,kijalizo,s,ulaghai,mustarehe,matangazo,NA,NA,0,NULL,NA,NA,NA,NA,NA,NA,NA,NA,NA,NA,NA,NA,NA,NA,NA,NA,NA,NA,NA
a131c,deep,flow.Sequence,1_9_0,NA,NA,completion,6066.7,92403.800000191,92402.5,92419.2,98485.9,98486.899999619,2024-03-18T13:25:57Z,98502.5,Ergänzung,kijalizo,s,ulaghai,mustarehe,matangazo,NA,NA,NA,NULL,NA,NA,NA,NA,NA,NA,NA,NA,NA,NA,NA,NA,NA,NA,NA,NA,NA,NA,NA
a131c,task,flow.Sequence,1_9,NA,NA,completion,6066.7,92403.699999809,92402.5,92419.2,98485.9,98487.100000381,2024-03-18T13:25:57Z,98502.5,Ergänzung,kijalizo,s,ulaghai,mustarehe,matangazo,NA,NA,NA,NULL,NA,NA,NA,NA,NA,NA,NA,NA,NA,NA,NA,NA,NA,NA,NA,NA,NA,NA,NA
a131c,Deep Question,html.Page,1_10_0_0,NA,NA,form submission,5275.6999998093,98487.399999619,98485.9,98502.5,103778.19999981,103778.30000019001,2024-03-18T13:26:02Z,103785.7,Theorie,nadharia,s,ushungi,mkutano,uwakilishi,nadhali,NA,NA,NULL,NA,NA,NA,NA,NA,NA,NA,NA,NA,NA,NA,NA,NA,NA,NA,NA,NA,NA,NA
a131c,Save data screen,canvas.Screen,1_10_0_1,NA,NA,timeout,500.2,103780,103769.826,103785.7,104269.2,104270,2024-03-18T13:26:02Z,104285.9,Theorie,nadharia,s,ushungi,mkutano,uwakilishi,NA,NA,0,NULL,NA,NA,NA,NA,NA,NA,NA,NA,NA,NA,NA,NA,NA,NA,NA,NA,NA,NA,NA
a131c,deep,flow.Sequence,1_10_0,NA,NA,completion,5766.7,98487.399999619,98485.9,98502.5,104269.2,104270.30000019001,2024-03-18T13:26:02Z,104285.9,Theorie,nadharia,s,ushungi,mkutano,uwakilishi,NA,NA,NA,NULL,NA,NA,NA,NA,NA,NA,NA,NA,NA,NA,NA,NA,NA,NA,NA,NA,NA,NA,NA
a131c,task,flow.Sequence,1_10,NA,NA,completion,5766.7,98487.199999809,98485.9,98502.5,104269.2,104270.39999962,2024-03-18T13:26:02Z,104285.9,Theorie,nadharia,s,ushungi,mkutano,uwakilishi,NA,NA,NA,NULL,NA,NA,NA,NA,NA,NA,NA,NA,NA,NA,NA,NA,NA,NA,NA,NA,NA,NA,NA
a131c,Deep Question,html.Page,1_11_0_0,NA,NA,form submission,15359.400000191,104270.60000038,104269.2,104285.9,119645.30000019001,119645.39999962,2024-03-18T13:26:18Z,119652.5,Notfall,dharura,d,rairai,malalamiko,ahueni,unafani,NA,NA,NULL,NA,NA,NA,NA,NA,NA,NA,NA,NA,NA,NA,NA,NA,NA,NA,NA,NA,NA,NA
a131c,Save data screen,canvas.Screen,1_11_0_1,NA,NA,timeout,500,119647.10000038,119636.206,119652.5,120135.7,120136.39999962,2024-03-18T13:26:18Z,120152.5,Notfall,dharura,d,rairai,malalamiko,ahueni,NA,NA,0,NULL,NA,NA,NA,NA,NA,NA,NA,NA,NA,NA,NA,NA,NA,NA,NA,NA,NA,NA,NA
a131c,deep,flow.Sequence,1_11_0,NA,NA,completion,15849.8,104270.60000038,104269.2,104285.9,120135.7,120136.60000038,2024-03-18T13:26:18Z,120152.5,Notfall,dharura,d,rairai,malalamiko,ahueni,NA,NA,NA,NULL,NA,NA,NA,NA,NA,NA,NA,NA,NA,NA,NA,NA,NA,NA,NA,NA,NA,NA,NA
a131c,task,flow.Sequence,1_11,NA,NA,completion,15849.8,104270.5,104269.2,104285.9,120135.7,120136.80000019001,2024-03-18T13:26:18Z,120152.5,Notfall,dharura,d,rairai,malalamiko,ahueni,NA,NA,NA,NULL,NA,NA,NA,NA,NA,NA,NA,NA,NA,NA,NA,NA,NA,NA,NA,NA,NA,NA,NA
a131c,Deep Question,html.Page,1_12_0_0,NA,NA,form submission,10090.5,120136.89999962,120135.7,120152.5,130243,130243.19999981,2024-03-18T13:26:28Z,130252.3,Wohlstand,mafanikio,s,chimbuko,kumbuko,mapwaji,minhiali,NA,NA,NULL,NA,NA,NA,NA,NA,NA,NA,NA,NA,NA,NA,NA,NA,NA,NA,NA,NA,NA,NA
a131c,Save data screen,canvas.Screen,1_12_0_1,NA,NA,timeout,500.2,130245,130236,130252.3,130735.8,130736.39999962,2024-03-18T13:26:29Z,130752.5,Wohlstand,mafanikio,s,chimbuko,kumbuko,mapwaji,NA,NA,0,NULL,NA,NA,NA,NA,NA,NA,NA,NA,NA,NA,NA,NA,NA,NA,NA,NA,NA,NA,NA
a131c,deep,flow.Sequence,1_12_0,NA,NA,completion,10583.3,120136.89999962,120135.7,120152.5,130735.8,130736.60000038,2024-03-18T13:26:29Z,130752.5,Wohlstand,mafanikio,s,chimbuko,kumbuko,mapwaji,NA,NA,NA,NULL,NA,NA,NA,NA,NA,NA,NA,NA,NA,NA,NA,NA,NA,NA,NA,NA,NA,NA,NA
a131c,task,flow.Sequence,1_12,NA,NA,completion,10583.3,120136.89999962,120135.7,120152.5,130735.8,130736.69999980999,2024-03-18T13:26:29Z,130752.5,Wohlstand,mafanikio,s,chimbuko,kumbuko,mapwaji,NA,NA,NA,NULL,NA,NA,NA,NA,NA,NA,NA,NA,NA,NA,NA,NA,NA,NA,NA,NA,NA,NA,NA
a131c,Deep Question,html.Page,1_13_0_0,NA,NA,form submission,7527.6999998093,130737,130735.8,130752.5,138280.19999981,138280.30000019,2024-03-18T13:26:36Z,138285.7,Inhalt,yaliyomo,d,kishawishi,hifadhi,kutembea,Inhalt,NA,NA,NULL,NA,NA,NA,NA,NA,NA,NA,NA,NA,NA,NA,NA,NA,NA,NA,NA,NA,NA,NA
a131c,Save data screen,canvas.Screen,1_13_0_1,NA,NA,timeout,500.09999999998,138282,138272.77,138285.7,138769.2,138769.80000019,2024-03-18T13:26:37Z,138785.8,Inhalt,yaliyomo,d,kishawishi,hifadhi,kutembea,NA,NA,0,NULL,NA,NA,NA,NA,NA,NA,NA,NA,NA,NA,NA,NA,NA,NA,NA,NA,NA,NA,NA
a131c,deep,flow.Sequence,1_13_0,NA,NA,completion,8016.7,130737,130735.8,130752.5,138769.2,138770.10000038001,2024-03-18T13:26:37Z,138785.8,Inhalt,yaliyomo,d,kishawishi,hifadhi,kutembea,NA,NA,NA,NULL,NA,NA,NA,NA,NA,NA,NA,NA,NA,NA,NA,NA,NA,NA,NA,NA,NA,NA,NA
a131c,task,flow.Sequence,1_13,NA,NA,completion,8016.7,130736.80000019001,130735.8,130752.5,138769.2,138770.30000019,2024-03-18T13:26:37Z,138785.8,Inhalt,yaliyomo,d,kishawishi,hifadhi,kutembea,NA,NA,NA,NULL,NA,NA,NA,NA,NA,NA,NA,NA,NA,NA,NA,NA,NA,NA,NA,NA,NA,NA,NA
a131c,Deep Question,html.Page,1_14_0_0,NA,NA,form submission,16609.2,138770.60000038001,138769.2,138785.8,155395,155395.30000019,2024-03-18T13:26:53Z,155402.4,Schüler,mwanafunzi,d,mwekezaji,matumizi,uaminifu,magsani,NA,NA,NULL,NA,NA,NA,NA,NA,NA,NA,NA,NA,NA,NA,NA,NA,NA,NA,NA,NA,NA,NA
a131c,Save data screen,canvas.Screen,1_14_0_1,NA,NA,timeout,500.10000000001,155396.89999962,155387.448,155402.4,155885.8,155886.39999961999,2024-03-18T13:26:54Z,155902.5,Schüler,mwanafunzi,d,mwekezaji,matumizi,uaminifu,NA,NA,0,NULL,NA,NA,NA,NA,NA,NA,NA,NA,NA,NA,NA,NA,NA,NA,NA,NA,NA,NA,NA
a131c,deep,flow.Sequence,1_14_0,NA,NA,completion,17100,138770.39999961999,138769.2,138785.8,155885.8,155886.69999981,2024-03-18T13:26:54Z,155902.5,Schüler,mwanafunzi,d,mwekezaji,matumizi,uaminifu,NA,NA,NA,NULL,NA,NA,NA,NA,NA,NA,NA,NA,NA,NA,NA,NA,NA,NA,NA,NA,NA,NA,NA
a131c,task,flow.Sequence,1_14,NA,NA,completion,17100,138770.39999961999,138769.2,138785.8,155885.8,155886.89999962,2024-03-18T13:26:54Z,155902.5,Schüler,mwanafunzi,d,mwekezaji,matumizi,uaminifu,NA,NA,NA,NULL,NA,NA,NA,NA,NA,NA,NA,NA,NA,NA,NA,NA,NA,NA,NA,NA,NA,NA,NA
a131c,Deep Question,html.Page,1_15_0_0,NA,NA,form submission,9942.6000003815,155887,155885.8,155902.5,165845.10000038001,165845.39999961999,2024-03-18T13:27:04Z,165852.4,Spionage,upelelezi,s,maslahi,utokazo,magangao,munuheli,NA,NA,NULL,NA,NA,NA,NA,NA,NA,NA,NA,NA,NA,NA,NA,NA,NA,NA,NA,NA,NA,NA
a131c,Save data screen,canvas.Screen,1_15_0_1,NA,NA,timeout,500,165847.10000038001,165835.9,165852.4,166335.8,166336.30000019,2024-03-18T13:27:04Z,166352.4,Spionage,upelelezi,s,maslahi,utokazo,magangao,NA,NA,0,NULL,NA,NA,NA,NA,NA,NA,NA,NA,NA,NA,NA,NA,NA,NA,NA,NA,NA,NA,NA
a131c,deep,flow.Sequence,1_15_0,NA,NA,completion,10433.3,155887,155885.8,155902.5,166335.8,166336.60000038001,2024-03-18T13:27:04Z,166352.4,Spionage,upelelezi,s,maslahi,utokazo,magangao,NA,NA,NA,NULL,NA,NA,NA,NA,NA,NA,NA,NA,NA,NA,NA,NA,NA,NA,NA,NA,NA,NA,NA
a131c,task,flow.Sequence,1_15,NA,NA,completion,10433.3,155887,155885.8,155902.5,166335.8,166336.80000019,2024-03-18T13:27:04Z,166352.4,Spionage,upelelezi,s,maslahi,utokazo,magangao,NA,NA,NA,NULL,NA,NA,NA,NA,NA,NA,NA,NA,NA,NA,NA,NA,NA,NA,NA,NA,NA,NA,NA
a131c,retrieval block 1 (cued recall),flow.Loop,1,NA,NA,completion,150416.7,15905.600000381,15902.738,15919.1,166335.8,166337.10000038001,2024-03-18T13:27:04Z,166352.4,NA,NA,NA,NA,NA,NA,NA,NA,NA,NULL,NA,NA,NA,NA,NA,NA,NA,NA,NA,NA,NA,NA,NA,NA,NA,NA,NA,NA,NA
a131c,Shallow Question,html.Page,2_0_0_0,NA,NA,form submission,6923.6,166337.19999981,166335.8,166352.4,173276,173276.30000019,2024-03-18T13:27:11Z,173285.9,Spionage,upelelezi,s,maslahi,utokazo,magangao,upelelezi,NA,NA,"c(""distractor1"", ""distractor2"", ""distractor3"")",NA,NA,NA,NA,NA,NA,NA,NA,NA,NA,NA,NA,NA,NA,NA,NA,NA,NA,NA
a131c,Save data screen,canvas.Screen,2_0_0_1,NA,NA,timeout,499.89999999999,173277.80000019,173269.254,173285.9,173769.2,173770,2024-03-18T13:27:12Z,173785.8,Spionage,upelelezi,s,maslahi,utokazo,magangao,NA,NA,1,"c(""distractor1"", ""distractor2"", ""distractor3"")",NA,NA,NA,NA,NA,NA,NA,NA,NA,NA,NA,NA,NA,NA,NA,NA,NA,NA,NA
a131c,shallow,flow.Sequence,2_0_0,NA,NA,completion,7416.8,166337.19999981,166335.8,166352.4,173769.2,173770.19999981,2024-03-18T13:27:12Z,173785.8,Spionage,upelelezi,s,maslahi,utokazo,magangao,NA,NA,NA,"c(""distractor1"", ""distractor2"", ""distractor3"")",NA,NA,NA,NA,NA,NA,NA,NA,NA,NA,NA,NA,NA,NA,NA,NA,NA,NA,NA
a131c,task,flow.Sequence,2_0,NA,NA,completion,7416.8,166337.19999981,166335.8,166352.4,173769.2,173770.60000038001,2024-03-18T13:27:12Z,173785.8,Spionage,upelelezi,s,maslahi,utokazo,magangao,NA,NA,NA,"c(""distractor1"", ""distractor2"", ""distractor3"")",NA,NA,NA,NA,NA,NA,NA,NA,NA,NA,NA,NA,NA,NA,NA,NA,NA,NA,NA
a131c,Shallow Question,html.Page,2_1_0_0,NA,NA,form submission,6400.0999996185,173770.69999981,173769.2,173785.8,180185.89999961999,180186.10000038001,2024-03-18T13:27:18Z,180203.3,Inhalt,yaliyomo,d,kishawishi,hifadhi,kutembea,hifadhi,NA,NA,"c(""distractor1"", ""distractor2"", ""distractor3"")",NA,NA,NA,NA,NA,NA,NA,NA,NA,NA,NA,NA,NA,NA,NA,NA,NA,NA,NA
a131c,Save data screen,canvas.Screen,2_1_0_1,NA,NA,timeout,499.30000000002,180187.80000019,180185.918,180203.3,180685.8,180686.60000038001,2024-03-18T13:27:19Z,180702.6,Inhalt,yaliyomo,d,kishawishi,hifadhi,kutembea,NA,NA,0,"c(""distractor1"", ""distractor2"", ""distractor3"")",NA,NA,NA,NA,NA,NA,NA,NA,NA,NA,NA,NA,NA,NA,NA,NA,NA,NA,NA
a131c,shallow,flow.Sequence,2_1_0,NA,NA,completion,6900,173770.69999981,173769.2,173785.8,180685.8,180686.80000019,2024-03-18T13:27:19Z,180702.6,Inhalt,yaliyomo,d,kishawishi,hifadhi,kutembea,NA,NA,NA,"c(""distractor1"", ""distractor2"", ""distractor3"")",NA,NA,NA,NA,NA,NA,NA,NA,NA,NA,NA,NA,NA,NA,NA,NA,NA,NA,NA
