observation,sender,sender_type,sender_id,response,response_action,ended_on,duration,time_run,time_render,time_show,time_end,time_commit,timestamp,time_switch,german,swahili,enc,distractor1,distractor2,distractor3,response_2,x,correct,distractors,url_vp,url_sess,meta_labjs_version,meta_location,meta_user_agent,meta_platform,meta_language,meta_locale,meta_time_zone,meta_timezone_offset,meta_screen_width,meta_screen_height,meta_scroll_width,meta_scroll_height,meta_window_inner_width,meta_window_inner_height,meta_device_pixel_ratio,meta_labjs_build_flavor,meta_labjs_build_commit
78c7f,Introduction delayed retrieval,canvas.Screen,0,weiter,keypress(Space),response,22283.758999976,927.30000001192,929.508,946.141,23229.899999976,23232.800000012,2023-06-21T08:34:37Z,23247.24,NA,NA,NA,NA,NA,NA,NA,NA,NA,NULL,220,2,20.2.4,https://neurocog.fernuni.ch/studies/vweber/sfink/delayed/index.html?vp=220&sess=2,"Mozilla/5.0 (Windows NT 10.0; Win64; x64) AppleWebKit/537.36 (KHTML, like Gecko) Chrome/114.0.0.0 Safari/537.36 Edg/114.0.1823.51",Win32,de,de-CH,Europe/Zurich,-120,1494,934,1439,767,1439,815,1.5,production,f5b4a49f956347addd546a832a3327688c2c0fef
78c7f,Deep Question,html.Page,1_0_0_0,NA,NA,form submission,6015.9599999881,23233.100000024,23221.153,23247.24,29263.199999988,29263.800000012,2023-06-21T08:34:43Z,29275.657,System,maongozi,d,chokochoko,nuksani,mitaani,kiliezo,NA,NA,NULL,NA,NA,NA,NA,NA,NA,NA,NA,NA,NA,NA,NA,NA,NA,NA,NA,NA,NA,NA
78c7f,Save data screen,canvas.Screen,1_0_0_1,NA,NA,timeout,504.759,29265.300000012,29246.037,29275.657,29763.528,29765.600000024,2023-06-21T08:34:44Z,29780.416,System,maongozi,d,chokochoko,nuksani,mitaani,NA,NA,0,NULL,NA,NA,NA,NA,NA,NA,NA,NA,NA,NA,NA,NA,NA,NA,NA,NA,NA,NA,NA
78c7f,deep,flow.Sequence,1_0_0,NA,NA,completion,6516.288,23233.100000024,23221.153,23247.24,29763.528,29766,2023-06-21T08:34:44Z,29780.416,System,maongozi,d,chokochoko,nuksani,mitaani,NA,NA,NA,NULL,NA,NA,NA,NA,NA,NA,NA,NA,NA,NA,NA,NA,NA,NA,NA,NA,NA,NA,NA
78c7f,task,flow.Sequence,1_0,NA,NA,completion,6516.288,23233,23221.153,23247.24,29763.528,29766.300000012,2023-06-21T08:34:44Z,29780.416,System,maongozi,d,chokochoko,nuksani,mitaani,NA,NA,NA,NULL,NA,NA,NA,NA,NA,NA,NA,NA,NA,NA,NA,NA,NA,NA,NA,NA,NA,NA,NA
78c7f,Deep Question,html.Page,1_1_0_0,NA,NA,form submission,5979.084,29766.399999976,29763.528,29780.416,35759.5,35760,2023-06-21T08:34:50Z,35774.163,Übersicht,kilindo,s,mgusano,chipukizi,kulinganisha,kilido,NA,NA,NULL,NA,NA,NA,NA,NA,NA,NA,NA,NA,NA,NA,NA,NA,NA,NA,NA,NA,NA,NA
78c7f,Save data screen,canvas.Screen,1_1_0_1,NA,NA,timeout,498.921,35761.100000024,35751.911,35774.163,36256.447,36257.300000012,2023-06-21T08:34:50Z,36273.084,Übersicht,kilindo,s,mgusano,chipukizi,kulinganisha,NA,NA,0,NULL,NA,NA,NA,NA,NA,NA,NA,NA,NA,NA,NA,NA,NA,NA,NA,NA,NA,NA,NA
78c7f,deep,flow.Sequence,1_1_0,NA,NA,completion,6476.031,29766.300000012,29763.528,29780.416,36256.447,36257.600000024,2023-06-21T08:34:50Z,36273.084,Übersicht,kilindo,s,mgusano,chipukizi,kulinganisha,NA,NA,NA,NULL,NA,NA,NA,NA,NA,NA,NA,NA,NA,NA,NA,NA,NA,NA,NA,NA,NA,NA,NA
78c7f,task,flow.Sequence,1_1,NA,NA,completion,6476.031,29766.300000012,29763.528,29780.416,36256.447,36257.699999988,2023-06-21T08:34:50Z,36273.084,Übersicht,kilindo,s,mgusano,chipukizi,kulinganisha,NA,NA,NA,NULL,NA,NA,NA,NA,NA,NA,NA,NA,NA,NA,NA,NA,NA,NA,NA,NA,NA,NA,NA
78c7f,Deep Question,html.Page,1_2_0_0,NA,NA,form submission,8440.0160000238,36258,36256.447,36273.084,44713.100000024,44713.600000024,2023-06-21T08:34:59Z,44713.308,Abrechnung,uhasibu,s,kusahihisha,mpambano,mashambulizi,tadhadhari,NA,NA,NULL,NA,NA,NA,NA,NA,NA,NA,NA,NA,NA,NA,NA,NA,NA,NA,NA,NA,NA,NA
78c7f,Save data screen,canvas.Screen,1_2_0_1,NA,NA,timeout,502.37,44714.800000012,44696.606,44713.308,45199.199,45200.300000012,2023-06-21T08:34:59Z,45215.678,Abrechnung,uhasibu,s,kusahihisha,mpambano,mashambulizi,NA,NA,0,NULL,NA,NA,NA,NA,NA,NA,NA,NA,NA,NA,NA,NA,NA,NA,NA,NA,NA,NA,NA
78c7f,deep,flow.Sequence,1_2_0,NA,NA,completion,8926.115,36257.899999976,36256.447,36273.084,45199.199,45200.699999988,2023-06-21T08:34:59Z,45215.678,Abrechnung,uhasibu,s,kusahihisha,mpambano,mashambulizi,NA,NA,NA,NULL,NA,NA,NA,NA,NA,NA,NA,NA,NA,NA,NA,NA,NA,NA,NA,NA,NA,NA,NA
78c7f,task,flow.Sequence,1_2,NA,NA,completion,8926.115,36257.899999976,36256.447,36273.084,45199.199,45200.899999976,2023-06-21T08:34:59Z,45215.678,Abrechnung,uhasibu,s,kusahihisha,mpambano,mashambulizi,NA,NA,NA,NULL,NA,NA,NA,NA,NA,NA,NA,NA,NA,NA,NA,NA,NA,NA,NA,NA,NA,NA,NA
78c7f,Deep Question,html.Page,1_3_0_0,NA,NA,form submission,3492.4220000238,45201,45199.199,45215.678,48708.100000024,48708.5,2023-06-21T08:35:03Z,48723.078,Sänger,mwimbaji,d,msichana,shughuli,mshirika,buko,NA,NA,NULL,NA,NA,NA,NA,NA,NA,NA,NA,NA,NA,NA,NA,NA,NA,NA,NA,NA,NA,NA
78c7f,Save data screen,canvas.Screen,1_3_0_1,NA,NA,timeout,499.535,48709.600000024,48701.438,48723.078,49201.578,49202.600000024,2023-06-21T08:35:03Z,49222.613,Sänger,mwimbaji,d,msichana,shughuli,mshirika,NA,NA,0,NULL,NA,NA,NA,NA,NA,NA,NA,NA,NA,NA,NA,NA,NA,NA,NA,NA,NA,NA,NA
78c7f,deep,flow.Sequence,1_3_0,NA,NA,completion,3985.9,45201,45199.199,45215.678,49201.578,49202.800000012,2023-06-21T08:35:03Z,49222.613,Sänger,mwimbaji,d,msichana,shughuli,mshirika,NA,NA,NA,NULL,NA,NA,NA,NA,NA,NA,NA,NA,NA,NA,NA,NA,NA,NA,NA,NA,NA,NA,NA
78c7f,task,flow.Sequence,1_3,NA,NA,completion,3985.9,45201,45199.199,45215.678,49201.578,49202.899999976,2023-06-21T08:35:03Z,49222.613,Sänger,mwimbaji,d,msichana,shughuli,mshirika,NA,NA,NA,NULL,NA,NA,NA,NA,NA,NA,NA,NA,NA,NA,NA,NA,NA,NA,NA,NA,NA,NA,NA
78c7f,Deep Question,html.Page,1_4_0_0,NA,NA,form submission,6483.887,49203.100000024,49201.578,49222.613,55706.5,55707.100000024,2023-06-21T08:35:10Z,55721.385,Kultur,utamaduni,s,shetani,gerezani,mazingira,tudmaon,NA,NA,NULL,NA,NA,NA,NA,NA,NA,NA,NA,NA,NA,NA,NA,NA,NA,NA,NA,NA,NA,NA
78c7f,Save data screen,canvas.Screen,1_4_0_1,NA,NA,timeout,508.228,55708.199999988,55704.308,55721.385,56212.936,56213.800000012,2023-06-21T08:35:10Z,56229.613,Kultur,utamaduni,s,shetani,gerezani,mazingira,NA,NA,0,NULL,NA,NA,NA,NA,NA,NA,NA,NA,NA,NA,NA,NA,NA,NA,NA,NA,NA,NA,NA
78c7f,deep,flow.Sequence,1_4_0,NA,NA,completion,6990.323,49203.100000024,49201.578,49222.613,56212.936,56214.100000024,2023-06-21T08:35:10Z,56229.613,Kultur,utamaduni,s,shetani,gerezani,mazingira,NA,NA,NA,NULL,NA,NA,NA,NA,NA,NA,NA,NA,NA,NA,NA,NA,NA,NA,NA,NA,NA,NA,NA
78c7f,task,flow.Sequence,1_4,NA,NA,completion,6990.323,49203,49201.578,49222.613,56212.936,56214.199999988,2023-06-21T08:35:10Z,56229.613,Kultur,utamaduni,s,shetani,gerezani,mazingira,NA,NA,NA,NULL,NA,NA,NA,NA,NA,NA,NA,NA,NA,NA,NA,NA,NA,NA,NA,NA,NA,NA,NA
78c7f,Deep Question,html.Page,1_5_0_0,NA,NA,form submission,3148.6870000119,56214.399999976,56212.936,56229.613,59378.300000012,59378.600000024,2023-06-21T08:35:13Z,59393.445,Kanzler,diwani,s,rasilmali,mahitaji,maabudu,diwani,NA,NA,NULL,NA,NA,NA,NA,NA,NA,NA,NA,NA,NA,NA,NA,NA,NA,NA,NA,NA,NA,NA
78c7f,Save data screen,canvas.Screen,1_5_0_1,NA,NA,timeout,504.553,59380,59369.587,59393.445,59881.323,59882.199999988,2023-06-21T08:35:14Z,59897.998,Kanzler,diwani,s,rasilmali,mahitaji,maabudu,NA,NA,1,NULL,NA,NA,NA,NA,NA,NA,NA,NA,NA,NA,NA,NA,NA,NA,NA,NA,NA,NA,NA
78c7f,deep,flow.Sequence,1_5_0,NA,NA,completion,3651.71,56214.399999976,56212.936,56229.613,59881.323,59882.399999976,2023-06-21T08:35:14Z,59897.998,Kanzler,diwani,s,rasilmali,mahitaji,maabudu,NA,NA,NA,NULL,NA,NA,NA,NA,NA,NA,NA,NA,NA,NA,NA,NA,NA,NA,NA,NA,NA,NA,NA
78c7f,task,flow.Sequence,1_5,NA,NA,completion,3651.71,56214.300000012,56212.936,56229.613,59881.323,59882.5,2023-06-21T08:35:14Z,59897.998,Kanzler,diwani,s,rasilmali,mahitaji,maabudu,NA,NA,NA,NULL,NA,NA,NA,NA,NA,NA,NA,NA,NA,NA,NA,NA,NA,NA,NA,NA,NA,NA,NA
78c7f,Deep Question,html.Page,1_6_0_0,NA,NA,form submission,9953.2019999881,59882.5,59881.323,59897.998,69851.199999988,69851.600000024,2023-06-21T08:35:24Z,69866.547,Können,unaweza,d,kiongozi,bustani,mienendo,amuweza,NA,NA,NULL,NA,NA,NA,NA,NA,NA,NA,NA,NA,NA,NA,NA,NA,NA,NA,NA,NA,NA,NA
78c7f,Save data screen,canvas.Screen,1_6_0_1,NA,NA,timeout,502.851,69854.800000012,69848.376,69866.547,70351.178,70352.199999988,2023-06-21T08:35:24Z,70369.398,Können,unaweza,d,kiongozi,bustani,mienendo,NA,NA,0,NULL,NA,NA,NA,NA,NA,NA,NA,NA,NA,NA,NA,NA,NA,NA,NA,NA,NA,NA,NA
78c7f,deep,flow.Sequence,1_6_0,NA,NA,completion,10453.18,59882.5,59881.323,59897.998,70351.178,70352.300000012,2023-06-21T08:35:24Z,70369.398,Können,unaweza,d,kiongozi,bustani,mienendo,NA,NA,NA,NULL,NA,NA,NA,NA,NA,NA,NA,NA,NA,NA,NA,NA,NA,NA,NA,NA,NA,NA,NA
78c7f,task,flow.Sequence,1_6,NA,NA,completion,10453.18,59882.5,59881.323,59897.998,70351.178,70352.399999976,2023-06-21T08:35:24Z,70369.398,Können,unaweza,d,kiongozi,bustani,mienendo,NA,NA,NA,NULL,NA,NA,NA,NA,NA,NA,NA,NA,NA,NA,NA,NA,NA,NA,NA,NA,NA,NA,NA
78c7f,Deep Question,html.Page,1_7_0_0,NA,NA,form submission,4149.9020000119,70352.600000024,70351.178,70369.398,74519.300000012,74519.600000024,2023-06-21T08:35:29Z,74534.698,Lawine,banguko,d,maambukizi,usuluhishi,chekechea,bonkugo,NA,NA,NULL,NA,NA,NA,NA,NA,NA,NA,NA,NA,NA,NA,NA,NA,NA,NA,NA,NA,NA,NA
78c7f,Save data screen,canvas.Screen,1_7_0_1,NA,NA,timeout,501.173,74522.699999988,74512.937,74534.698,75019.188,75020.100000024,2023-06-21T08:35:29Z,75035.871,Lawine,banguko,d,maambukizi,usuluhishi,chekechea,NA,NA,0,NULL,NA,NA,NA,NA,NA,NA,NA,NA,NA,NA,NA,NA,NA,NA,NA,NA,NA,NA,NA
78c7f,deep,flow.Sequence,1_7_0,NA,NA,completion,4649.79,70352.600000024,70351.178,70369.398,75019.188,75020.399999976,2023-06-21T08:35:29Z,75035.871,Lawine,banguko,d,maambukizi,usuluhishi,chekechea,NA,NA,NA,NULL,NA,NA,NA,NA,NA,NA,NA,NA,NA,NA,NA,NA,NA,NA,NA,NA,NA,NA,NA
78c7f,task,flow.Sequence,1_7,NA,NA,completion,4649.79,70352.5,70351.178,70369.398,75019.188,75020.5,2023-06-21T08:35:29Z,75035.871,Lawine,banguko,d,maambukizi,usuluhishi,chekechea,NA,NA,NA,NULL,NA,NA,NA,NA,NA,NA,NA,NA,NA,NA,NA,NA,NA,NA,NA,NA,NA,NA,NA
78c7f,Deep Question,html.Page,1_8_0_0,NA,NA,form submission,4014.129,75020.600000024,75019.188,75035.871,79050,79050.600000024,2023-06-21T08:35:33Z,79064.542,Verzögerung,kuchelewa,s,mwakilishi,mwanauchumi,jaribio,tadhani,NA,NA,NULL,NA,NA,NA,NA,NA,NA,NA,NA,NA,NA,NA,NA,NA,NA,NA,NA,NA,NA,NA
78c7f,Save data screen,canvas.Screen,1_8_0_1,NA,NA,timeout,495.658,79053.300000012,79045.081,79064.542,79544.132,79545,2023-06-21T08:35:34Z,79560.2,Verzögerung,kuchelewa,s,mwakilishi,mwanauchumi,jaribio,NA,NA,0,NULL,NA,NA,NA,NA,NA,NA,NA,NA,NA,NA,NA,NA,NA,NA,NA,NA,NA,NA,NA
78c7f,deep,flow.Sequence,1_8_0,NA,NA,completion,4508.261,75020.600000024,75019.188,75035.871,79544.132,79545.199999988,2023-06-21T08:35:34Z,79560.2,Verzögerung,kuchelewa,s,mwakilishi,mwanauchumi,jaribio,NA,NA,NA,NULL,NA,NA,NA,NA,NA,NA,NA,NA,NA,NA,NA,NA,NA,NA,NA,NA,NA,NA,NA
78c7f,task,flow.Sequence,1_8,NA,NA,completion,4508.261,75020.5,75019.188,75035.871,79544.132,79545.399999976,2023-06-21T08:35:34Z,79560.2,Verzögerung,kuchelewa,s,mwakilishi,mwanauchumi,jaribio,NA,NA,NA,NULL,NA,NA,NA,NA,NA,NA,NA,NA,NA,NA,NA,NA,NA,NA,NA,NA,NA,NA,NA
78c7f,Deep Question,html.Page,1_9_0_0,NA,NA,form submission,5311.9999999881,79545.5,79544.132,79560.2,84872.199999988,84872.600000024,2023-06-21T08:35:39Z,84884.877,Aufstand,ugomaji,d,mazidio,msingi,kujieleza,udungu,NA,NA,NULL,NA,NA,NA,NA,NA,NA,NA,NA,NA,NA,NA,NA,NA,NA,NA,NA,NA,NA,NA
78c7f,Save data screen,canvas.Screen,1_9_0_1,NA,NA,timeout,518.675,84875.100000024,84855.171,84884.877,85363.134,85364,2023-06-21T08:35:39Z,85403.552,Aufstand,ugomaji,d,mazidio,msingi,kujieleza,NA,NA,0,NULL,NA,NA,NA,NA,NA,NA,NA,NA,NA,NA,NA,NA,NA,NA,NA,NA,NA,NA,NA
78c7f,deep,flow.Sequence,1_9_0,NA,NA,completion,5802.934,79545.5,79544.132,79560.2,85363.134,85364.100000024,2023-06-21T08:35:39Z,85403.552,Aufstand,ugomaji,d,mazidio,msingi,kujieleza,NA,NA,NA,NULL,NA,NA,NA,NA,NA,NA,NA,NA,NA,NA,NA,NA,NA,NA,NA,NA,NA,NA,NA
78c7f,task,flow.Sequence,1_9,NA,NA,completion,5802.934,79545.399999976,79544.132,79560.2,85363.134,85364.300000012,2023-06-21T08:35:39Z,85403.552,Aufstand,ugomaji,d,mazidio,msingi,kujieleza,NA,NA,NA,NULL,NA,NA,NA,NA,NA,NA,NA,NA,NA,NA,NA,NA,NA,NA,NA,NA,NA,NA,NA
78c7f,Deep Question,html.Page,1_10_0_0,NA,NA,form submission,5214.0480000238,85364.399999976,85363.134,85403.552,90617.600000024,90618,2023-06-21T08:35:45Z,90633.185,Gefährdung,kuhatarisha,s,uchokozi,udhaifu,makorowezo,uluguru,NA,NA,NULL,NA,NA,NA,NA,NA,NA,NA,NA,NA,NA,NA,NA,NA,NA,NA,NA,NA,NA,NA
78c7f,Save data screen,canvas.Screen,1_10_0_1,NA,NA,timeout,501.542,90620.699999988,90607.142,90633.185,91118.034,91119,2023-06-21T08:35:45Z,91134.727,Gefährdung,kuhatarisha,s,uchokozi,udhaifu,makorowezo,NA,NA,0,NULL,NA,NA,NA,NA,NA,NA,NA,NA,NA,NA,NA,NA,NA,NA,NA,NA,NA,NA,NA
78c7f,deep,flow.Sequence,1_10_0,NA,NA,completion,5714.482,85364.300000012,85363.134,85403.552,91118.034,91119.199999988,2023-06-21T08:35:45Z,91134.727,Gefährdung,kuhatarisha,s,uchokozi,udhaifu,makorowezo,NA,NA,NA,NULL,NA,NA,NA,NA,NA,NA,NA,NA,NA,NA,NA,NA,NA,NA,NA,NA,NA,NA,NA
78c7f,task,flow.Sequence,1_10,NA,NA,completion,5714.482,85364.300000012,85363.134,85403.552,91118.034,91119.300000012,2023-06-21T08:35:45Z,91134.727,Gefährdung,kuhatarisha,s,uchokozi,udhaifu,makorowezo,NA,NA,NA,NULL,NA,NA,NA,NA,NA,NA,NA,NA,NA,NA,NA,NA,NA,NA,NA,NA,NA,NA,NA
78c7f,Deep Question,html.Page,1_11_0_0,NA,NA,form submission,3167.1729999762,91119.399999976,91118.034,91134.727,94301.899999976,94302.300000012,2023-06-21T08:35:48Z,94317.491,Kreativität,ubunifu,d,mratibu,mwendelezo,makubaliano,fu,NA,NA,NULL,NA,NA,NA,NA,NA,NA,NA,NA,NA,NA,NA,NA,NA,NA,NA,NA,NA,NA,NA
78c7f,Save data screen,canvas.Screen,1_11_0_1,NA,NA,timeout,500.686,94305.899999976,94296.222,94317.491,94801.477,94802.399999976,2023-06-21T08:35:49Z,94818.177,Kreativität,ubunifu,d,mratibu,mwendelezo,makubaliano,NA,NA,0,NULL,NA,NA,NA,NA,NA,NA,NA,NA,NA,NA,NA,NA,NA,NA,NA,NA,NA,NA,NA
78c7f,deep,flow.Sequence,1_11_0,NA,NA,completion,3666.75,91119.300000012,91118.034,91134.727,94801.477,94802.600000024,2023-06-21T08:35:49Z,94818.177,Kreativität,ubunifu,d,mratibu,mwendelezo,makubaliano,NA,NA,NA,NULL,NA,NA,NA,NA,NA,NA,NA,NA,NA,NA,NA,NA,NA,NA,NA,NA,NA,NA,NA
78c7f,task,flow.Sequence,1_11,NA,NA,completion,3666.75,91119.300000012,91118.034,91134.727,94801.477,94802.699999988,2023-06-21T08:35:49Z,94818.177,Kreativität,ubunifu,d,mratibu,mwendelezo,makubaliano,NA,NA,NA,NULL,NA,NA,NA,NA,NA,NA,NA,NA,NA,NA,NA,NA,NA,NA,NA,NA,NA,NA,NA
78c7f,Deep Question,html.Page,1_12_0_0,NA,NA,form submission,5320.7229999762,94802.899999976,94801.477,94818.177,100138.89999998,100139.30000001,2023-06-21T08:35:54Z,100153.445,Kontrolle,kudhibiti,s,mbinguni,kufunga,utegemezi,alengu,NA,NA,NULL,NA,NA,NA,NA,NA,NA,NA,NA,NA,NA,NA,NA,NA,NA,NA,NA,NA,NA,NA
78c7f,Save data screen,canvas.Screen,1_12_0_1,NA,NA,timeout,505.95699999999,100142.10000002,100127.038,100153.445,100642.718,100644,2023-06-21T08:35:55Z,100659.402,Kontrolle,kudhibiti,s,mbinguni,kufunga,utegemezi,NA,NA,0,NULL,NA,NA,NA,NA,NA,NA,NA,NA,NA,NA,NA,NA,NA,NA,NA,NA,NA,NA,NA
78c7f,deep,flow.Sequence,1_12_0,NA,NA,completion,5824.541,94802.800000012,94801.477,94818.177,100642.718,100644.10000002,2023-06-21T08:35:55Z,100659.402,Kontrolle,kudhibiti,s,mbinguni,kufunga,utegemezi,NA,NA,NA,NULL,NA,NA,NA,NA,NA,NA,NA,NA,NA,NA,NA,NA,NA,NA,NA,NA,NA,NA,NA
78c7f,task,flow.Sequence,1_12,NA,NA,completion,5824.541,94802.800000012,94801.477,94818.177,100642.718,100644.30000001,2023-06-21T08:35:55Z,100659.402,Kontrolle,kudhibiti,s,mbinguni,kufunga,utegemezi,NA,NA,NA,NULL,NA,NA,NA,NA,NA,NA,NA,NA,NA,NA,NA,NA,NA,NA,NA,NA,NA,NA,NA
78c7f,Deep Question,html.Page,1_13_0_0,NA,NA,form submission,7591.9979999762,100644.5,100642.718,100659.402,108251.39999998,108251.89999998,2023-06-21T08:36:02Z,108266.131,Prüfung,mtihani,d,mkulima,mtizamo,ufumbuzi,lakakuka,NA,NA,NULL,NA,NA,NA,NA,NA,NA,NA,NA,NA,NA,NA,NA,NA,NA,NA,NA,NA,NA,NA
78c7f,Save data screen,canvas.Screen,1_13_0_1,NA,NA,timeout,494.09800000001,108254.69999999,108233.735,108266.131,108743.543,108744.5,2023-06-21T08:36:03Z,108760.229,Prüfung,mtihani,d,mkulima,mtizamo,ufumbuzi,NA,NA,0,NULL,NA,NA,NA,NA,NA,NA,NA,NA,NA,NA,NA,NA,NA,NA,NA,NA,NA,NA,NA
78c7f,deep,flow.Sequence,1_13_0,NA,NA,completion,8084.141,100644.39999998,100642.718,100659.402,108743.543,108744.80000001,2023-06-21T08:36:03Z,108760.229,Prüfung,mtihani,d,mkulima,mtizamo,ufumbuzi,NA,NA,NA,NULL,NA,NA,NA,NA,NA,NA,NA,NA,NA,NA,NA,NA,NA,NA,NA,NA,NA,NA,NA
78c7f,task,flow.Sequence,1_13,NA,NA,completion,8084.141,100644.39999998,100642.718,100659.402,108743.543,108744.80000001,2023-06-21T08:36:03Z,108760.229,Prüfung,mtihani,d,mkulima,mtizamo,ufumbuzi,NA,NA,NA,NULL,NA,NA,NA,NA,NA,NA,NA,NA,NA,NA,NA,NA,NA,NA,NA,NA,NA,NA,NA
78c7f,Deep Question,html.Page,1_14_0_0,NA,NA,form submission,4209.5710000119,108745,108743.543,108760.229,112969.80000001,112970.10000002,2023-06-21T08:36:07Z,112985.096,Angreifer,mshambulizi,d,kitengo,tasinia,usafirishaji,tadhadhari,NA,NA,NULL,NA,NA,NA,NA,NA,NA,NA,NA,NA,NA,NA,NA,NA,NA,NA,NA,NA,NA,NA
78c7f,Save data screen,canvas.Screen,1_14_0_1,NA,NA,timeout,504.03199999999,112971.60000002,112963.908,112985.096,113472.4,113473.10000002,2023-06-21T08:36:07Z,113489.128,Angreifer,mshambulizi,d,kitengo,tasinia,usafirishaji,NA,NA,0,NULL,NA,NA,NA,NA,NA,NA,NA,NA,NA,NA,NA,NA,NA,NA,NA,NA,NA,NA,NA
78c7f,deep,flow.Sequence,1_14_0,NA,NA,completion,4712.171,108745,108743.543,108760.229,113472.4,113473.39999998,2023-06-21T08:36:07Z,113489.128,Angreifer,mshambulizi,d,kitengo,tasinia,usafirishaji,NA,NA,NA,NULL,NA,NA,NA,NA,NA,NA,NA,NA,NA,NA,NA,NA,NA,NA,NA,NA,NA,NA,NA
78c7f,task,flow.Sequence,1_14,NA,NA,completion,4712.171,108744.89999998,108743.543,108760.229,113472.4,113473.39999998,2023-06-21T08:36:07Z,113489.128,Angreifer,mshambulizi,d,kitengo,tasinia,usafirishaji,NA,NA,NA,NULL,NA,NA,NA,NA,NA,NA,NA,NA,NA,NA,NA,NA,NA,NA,NA,NA,NA,NA,NA
78c7f,Deep Question,html.Page,1_15_0_0,NA,NA,form submission,6836.0719999881,113473.60000002,113472.4,113489.128,120325.19999999,120325.69999999,2023-06-21T08:36:14Z,120340.25,Körper,kiwiliwili,s,mapambano,mpatanishi,kiolezo,kiwiliwili,NA,NA,NULL,NA,NA,NA,NA,NA,NA,NA,NA,NA,NA,NA,NA,NA,NA,NA,NA,NA,NA,NA
78c7f,Save data screen,canvas.Screen,1_15_0_1,NA,NA,timeout,493.47199999999,120328.39999998,120312.101,120340.25,120817.235,120818.19999999,2023-06-21T08:36:15Z,120833.722,Körper,kiwiliwili,s,mapambano,mpatanishi,kiolezo,NA,NA,1,NULL,NA,NA,NA,NA,NA,NA,NA,NA,NA,NA,NA,NA,NA,NA,NA,NA,NA,NA,NA
78c7f,deep,flow.Sequence,1_15_0,NA,NA,completion,7328.107,113473.5,113472.4,113489.128,120817.235,120818.5,2023-06-21T08:36:15Z,120833.722,Körper,kiwiliwili,s,mapambano,mpatanishi,kiolezo,NA,NA,NA,NULL,NA,NA,NA,NA,NA,NA,NA,NA,NA,NA,NA,NA,NA,NA,NA,NA,NA,NA,NA
78c7f,task,flow.Sequence,1_15,NA,NA,completion,7328.107,113473.39999998,113472.4,113489.128,120817.235,120818.60000002,2023-06-21T08:36:15Z,120833.722,Körper,kiwiliwili,s,mapambano,mpatanishi,kiolezo,NA,NA,NA,NULL,NA,NA,NA,NA,NA,NA,NA,NA,NA,NA,NA,NA,NA,NA,NA,NA,NA,NA,NA
78c7f,retrieval block 1 (cued recall),flow.Loop,1,NA,NA,completion,97569.995,23233,23221.153,23247.24,120817.235,120818.60000002,2023-06-21T08:36:15Z,120833.722,NA,NA,NA,NA,NA,NA,NA,NA,NA,NULL,NA,NA,NA,NA,NA,NA,NA,NA,NA,NA,NA,NA,NA,NA,NA,NA,NA,NA,NA
78c7f,Shallow Question,html.Page,2_0_0_0,NA,NA,form submission,3447.8780000238,120818.89999998,120817.235,120833.722,124281.60000002,124282,2023-06-21T08:36:18Z,124296.442,Übersicht,kilindo,s,mgusano,chipukizi,kulinganisha,kilindo,NA,NA,"c(""distractor1"", ""distractor2"", ""distractor3"")",NA,NA,NA,NA,NA,NA,NA,NA,NA,NA,NA,NA,NA,NA,NA,NA,NA,NA,NA
78c7f,Save data screen,canvas.Screen,2_0_0_1,NA,NA,timeout,494.98400000001,124284.5,124273.298,124296.442,124775.238,124777.39999998,2023-06-21T08:36:19Z,124791.426,Übersicht,kilindo,s,mgusano,chipukizi,kulinganisha,NA,NA,1,"c(""distractor1"", ""distractor2"", ""distractor3"")",NA,NA,NA,NA,NA,NA,NA,NA,NA,NA,NA,NA,NA,NA,NA,NA,NA,NA,NA
78c7f,shallow,flow.Sequence,2_0_0,NA,NA,completion,3941.516,120818.80000001,120817.235,120833.722,124775.238,124777.69999999,2023-06-21T08:36:19Z,124791.426,Übersicht,kilindo,s,mgusano,chipukizi,kulinganisha,NA,NA,NA,"c(""distractor1"", ""distractor2"", ""distractor3"")",NA,NA,NA,NA,NA,NA,NA,NA,NA,NA,NA,NA,NA,NA,NA,NA,NA,NA,NA
78c7f,task,flow.Sequence,2_0,NA,NA,completion,3941.516,120818.80000001,120817.235,120833.722,124775.238,124778,2023-06-21T08:36:19Z,124791.426,Übersicht,kilindo,s,mgusano,chipukizi,kulinganisha,NA,NA,NA,"c(""distractor1"", ""distractor2"", ""distractor3"")",NA,NA,NA,NA,NA,NA,NA,NA,NA,NA,NA,NA,NA,NA,NA,NA,NA,NA,NA
78c7f,Shallow Question,html.Page,2_1_0_0,NA,NA,form submission,5928.074,124778.30000001,124775.238,124791.426,130719.5,130719.89999998,2023-06-21T08:36:25Z,130735.325,Abrechnung,uhasibu,s,kusahihisha,mpambano,mashambulizi,uhasibu,NA,NA,"c(""distractor1"", ""distractor2"", ""distractor3"")",NA,NA,NA,NA,NA,NA,NA,NA,NA,NA,NA,NA,NA,NA,NA,NA,NA,NA,NA
78c7f,Save data screen,canvas.Screen,2_1_0_1,NA,NA,timeout,544.65999999999,130722.5,130714.69,130735.325,131223.557,131225.39999998,2023-06-21T08:36:25Z,131279.985,Abrechnung,uhasibu,s,kusahihisha,mpambano,mashambulizi,NA,NA,1,"c(""distractor1"", ""distractor2"", ""distractor3"")",NA,NA,NA,NA,NA,NA,NA,NA,NA,NA,NA,NA,NA,NA,NA,NA,NA,NA,NA
78c7f,shallow,flow.Sequence,2_1_0,NA,NA,completion,6432.131,124778.19999999,124775.238,124791.426,131223.557,131225.80000001,2023-06-21T08:36:25Z,131279.985,Abrechnung,uhasibu,s,kusahihisha,mpambano,mashambulizi,NA,NA,NA,"c(""distractor1"", ""distractor2"", ""distractor3"")",NA,NA,NA,NA,NA,NA,NA,NA,NA,NA,NA,NA,NA,NA,NA,NA,NA,NA,NA
78c7f,task,flow.Sequence,2_1,NA,NA,completion,6432.131,124778.10000002,124775.238,124791.426,131223.557,131226.10000002,2023-06-21T08:36:25Z,131279.985,Abrechnung,uhasibu,s,kusahihisha,mpambano,mashambulizi,NA,NA,NA,"c(""distractor1"", ""distractor2"", ""distractor3"")",NA,NA,NA,NA,NA,NA,NA,NA,NA,NA,NA,NA,NA,NA,NA,NA,NA,NA,NA
78c7f,Shallow Question,html.Page,2_2_0_0,NA,NA,form submission,2458.9149999762,131226.39999998,131223.557,131279.985,133738.89999998,133739.39999998,2023-06-21T08:36:28Z,133753.403,Kreativität,ubunifu,d,mratibu,mwendelezo,makubaliano,ubunifu,NA,NA,"c(""distractor1"", ""distractor2"", ""distractor3"")",NA,NA,NA,NA,NA,NA,NA,NA,NA,NA,NA,NA,NA,NA,NA,NA,NA,NA,NA
78c7f,Save data screen,canvas.Screen,2_2_0_1,NA,NA,timeout,497.55600000001,133740.39999998,133723.996,133753.403,134234.466,134235.30000001,2023-06-21T08:36:28Z,134250.959,Kreativität,ubunifu,d,mratibu,mwendelezo,makubaliano,NA,NA,1,"c(""distractor1"", ""distractor2"", ""distractor3"")",NA,NA,NA,NA,NA,NA,NA,NA,NA,NA,NA,NA,NA,NA,NA,NA,NA,NA,NA
78c7f,shallow,flow.Sequence,2_2_0,NA,NA,completion,2954.481,131226.39999998,131223.557,131279.985,134234.466,134235.5,2023-06-21T08:36:28Z,134250.959,Kreativität,ubunifu,d,mratibu,mwendelezo,makubaliano,NA,NA,NA,"c(""distractor1"", ""distractor2"", ""distractor3"")",NA,NA,NA,NA,NA,NA,NA,NA,NA,NA,NA,NA,NA,NA,NA,NA,NA,NA,NA
78c7f,task,flow.Sequence,2_2,NA,NA,completion,2954.481,131226.30000001,131223.557,131279.985,134234.466,134235.5,2023-06-21T08:36:28Z,134250.959,Kreativität,ubunifu,d,mratibu,mwendelezo,makubaliano,NA,NA,NA,"c(""distractor1"", ""distractor2"", ""distractor3"")",NA,NA,NA,NA,NA,NA,NA,NA,NA,NA,NA,NA,NA,NA,NA,NA,NA,NA,NA
78c7f,Shallow Question,html.Page,2_3_0_0,NA,NA,form submission,7801.7409999881,134235.69999999,134234.466,134250.959,142052.69999999,142053.10000002,2023-06-21T08:36:36Z,142068.092,Verzögerung,kuchelewa,s,mwakilishi,mwanauchumi,jaribio,kuchelewa,NA,NA,"c(""distractor1"", ""distractor2"", ""distractor3"")",NA,NA,NA,NA,NA,NA,NA,NA,NA,NA,NA,NA,NA,NA,NA,NA,NA,NA,NA
78c7f,Save data screen,canvas.Screen,2_3_0_1,NA,NA,timeout,500.24899999998,142056.19999999,142049.828,142068.092,142551.773,142553.39999998,2023-06-21T08:36:37Z,142568.341,Verzögerung,kuchelewa,s,mwakilishi,mwanauchumi,jaribio,NA,NA,1,"c(""distractor1"", ""distractor2"", ""distractor3"")",NA,NA,NA,NA,NA,NA,NA,NA,NA,NA,NA,NA,NA,NA,NA,NA,NA,NA,NA
78c7f,shallow,flow.Sequence,2_3_0,NA,NA,completion,8300.814,134235.69999999,134234.466,134250.959,142551.773,142554,2023-06-21T08:36:37Z,142568.341,Verzögerung,kuchelewa,s,mwakilishi,mwanauchumi,jaribio,NA,NA,NA,"c(""distractor1"", ""distractor2"", ""distractor3"")",NA,NA,NA,NA,NA,NA,NA,NA,NA,NA,NA,NA,NA,NA,NA,NA,NA,NA,NA
78c7f,task,flow.Sequence,2_3,NA,NA,completion,8300.814,134235.60000002,134234.466,134250.959,142551.773,142554.19999999,2023-06-21T08:36:37Z,142568.341,Verzögerung,kuchelewa,s,mwakilishi,mwanauchumi,jaribio,NA,NA,NA,"c(""distractor1"", ""distractor2"", ""distractor3"")",NA,NA,NA,NA,NA,NA,NA,NA,NA,NA,NA,NA,NA,NA,NA,NA,NA,NA,NA
78c7f,Shallow Question,html.Page,2_4_0_0,NA,NA,form submission,2042.8589999881,142554.5,142551.773,142568.341,144611.19999999,144611.69999999,2023-06-21T08:36:39Z,144626.587,Kanzler,diwani,s,rasilmali,mahitaji,maabudu,diwani,NA,NA,"c(""distractor1"", ""distractor2"", ""distractor3"")",NA,NA,NA,NA,NA,NA,NA,NA,NA,NA,NA,NA,NA,NA,NA,NA,NA,NA,NA
78c7f,Save data screen,canvas.Screen,2_4_0_1,NA,NA,timeout,498.31700000001,144614.69999999,144602.584,144626.587,145108.697,145110.39999998,2023-06-21T08:36:39Z,145124.904,Kanzler,diwani,s,rasilmali,mahitaji,maabudu,NA,NA,1,"c(""distractor1"", ""distractor2"", ""distractor3"")",NA,NA,NA,NA,NA,NA,NA,NA,NA,NA,NA,NA,NA,NA,NA,NA,NA,NA,NA
78c7f,shallow,flow.Sequence,2_4_0,NA,NA,completion,2540.356,142554.5,142551.773,142568.341,145108.697,145110.80000001,2023-06-21T08:36:39Z,145124.904,Kanzler,diwani,s,rasilmali,mahitaji,maabudu,NA,NA,NA,"c(""distractor1"", ""distractor2"", ""distractor3"")",NA,NA,NA,NA,NA,NA,NA,NA,NA,NA,NA,NA,NA,NA,NA,NA,NA,NA,NA
78c7f,task,flow.Sequence,2_4,NA,NA,completion,2540.356,142554.39999998,142551.773,142568.341,145108.697,145111,2023-06-21T08:36:39Z,145124.904,Kanzler,diwani,s,rasilmali,mahitaji,maabudu,NA,NA,NA,"c(""distractor1"", ""distractor2"", ""distractor3"")",NA,NA,NA,NA,NA,NA,NA,NA,NA,NA,NA,NA,NA,NA,NA,NA,NA,NA,NA
78c7f,Shallow Question,html.Page,2_5_0_0,NA,NA,form submission,7665.1960000238,145111.30000001,145108.697,145124.904,152790.10000002,152790.39999998,2023-06-21T08:36:47Z,152805.036,Aufstand,ugomaji,d,mazidio,msingi,kujieleza,ugomaji,NA,NA,"c(""distractor1"", ""distractor2"", ""distractor3"")",NA,NA,NA,NA,NA,NA,NA,NA,NA,NA,NA,NA,NA,NA,NA,NA,NA,NA,NA
78c7f,Save data screen,canvas.Screen,2_5_0_1,NA,NA,timeout,493.03100000002,152793.19999999,152786.466,152805.036,153281.809,153283.19999999,2023-06-21T08:36:47Z,153298.067,Aufstand,ugomaji,d,mazidio,msingi,kujieleza,NA,NA,1,"c(""distractor1"", ""distractor2"", ""distractor3"")",NA,NA,NA,NA,NA,NA,NA,NA,NA,NA,NA,NA,NA,NA,NA,NA,NA,NA,NA
78c7f,shallow,flow.Sequence,2_5_0,NA,NA,completion,8156.905,145111.30000001,145108.697,145124.904,153281.809,153283.5,2023-06-21T08:36:47Z,153298.067,Aufstand,ugomaji,d,mazidio,msingi,kujieleza,NA,NA,NA,"c(""distractor1"", ""distractor2"", ""distractor3"")",NA,NA,NA,NA,NA,NA,NA,NA,NA,NA,NA,NA,NA,NA,NA,NA,NA,NA,NA
78c7f,task,flow.Sequence,2_5,NA,NA,completion,8156.905,145111.10000002,145108.697,145124.904,153281.809,153283.60000002,2023-06-21T08:36:47Z,153298.067,Aufstand,ugomaji,d,mazidio,msingi,kujieleza,NA,NA,NA,"c(""distractor1"", ""distractor2"", ""distractor3"")",NA,NA,NA,NA,NA,NA,NA,NA,NA,NA,NA,NA,NA,NA,NA,NA,NA,NA,NA
78c7f,Shallow Question,html.Page,2_6_0_0,NA,NA,form submission,8106.2330000119,153283.80000001,153281.809,153298.067,161404.30000001,161404.69999999,2023-06-21T08:36:55Z,161419.209,Sänger,mwimbaji,d,msichana,shughuli,mshirika,mshirika,NA,NA,"c(""distractor1"", ""distractor2"", ""distractor3"")",NA,NA,NA,NA,NA,NA,NA,NA,NA,NA,NA,NA,NA,NA,NA,NA,NA,NA,NA
78c7f,Save data screen,canvas.Screen,2_6_0_1,NA,NA,timeout,498.916,161407.39999998,161391.353,161419.209,161901.482,161902.30000001,2023-06-21T08:36:56Z,161918.125,Sänger,mwimbaji,d,msichana,shughuli,mshirika,NA,NA,0,"c(""distractor1"", ""distractor2"", ""distractor3"")",NA,NA,NA,NA,NA,NA,NA,NA,NA,NA,NA,NA,NA,NA,NA,NA,NA,NA,NA
78c7f,shallow,flow.Sequence,2_6_0,NA,NA,completion,8603.415,153283.80000001,153281.809,153298.067,161901.482,161902.60000002,2023-06-21T08:36:56Z,161918.125,Sänger,mwimbaji,d,msichana,shughuli,mshirika,NA,NA,NA,"c(""distractor1"", ""distractor2"", ""distractor3"")",NA,NA,NA,NA,NA,NA,NA,NA,NA,NA,NA,NA,NA,NA,NA,NA,NA,NA,NA
78c7f,task,flow.Sequence,2_6,NA,NA,completion,8603.415,153283.69999999,153281.809,153298.067,161901.482,161902.80000001,2023-06-21T08:36:56Z,161918.125,Sänger,mwimbaji,d,msichana,shughuli,mshirika,NA,NA,NA,"c(""distractor1"", ""distractor2"", ""distractor3"")",NA,NA,NA,NA,NA,NA,NA,NA,NA,NA,NA,NA,NA,NA,NA,NA,NA,NA,NA
78c7f,Shallow Question,html.Page,2_7_0_0,NA,NA,form submission,8000.0749999881,161902.89999998,161901.482,161918.125,169918.19999999,169918.60000002,2023-06-21T08:37:04Z,169932.875,Können,unaweza,d,kiongozi,bustani,mienendo,unaweza,NA,NA,"c(""distractor1"", ""distractor2"", ""distractor3"")",NA,NA,NA,NA,NA,NA,NA,NA,NA,NA,NA,NA,NA,NA,NA,NA,NA,NA,NA
78c7f,Save data screen,canvas.Screen,2_7_0_1,NA,NA,timeout,491.83199999999,169921.10000002,169905.713,169932.875,170408.475,170410.30000001,2023-06-21T08:37:04Z,170424.707,Können,unaweza,d,kiongozi,bustani,mienendo,NA,NA,1,"c(""distractor1"", ""distractor2"", ""distractor3"")",NA,NA,NA,NA,NA,NA,NA,NA,NA,NA,NA,NA,NA,NA,NA,NA,NA,NA,NA
78c7f,shallow,flow.Sequence,2_7_0,NA,NA,completion,8490.35,161902.89999998,161901.482,161918.125,170408.475,170410.69999999,2023-06-21T08:37:04Z,170424.707,Können,unaweza,d,kiongozi,bustani,mienendo,NA,NA,NA,"c(""distractor1"", ""distractor2"", ""distractor3"")",NA,NA,NA,NA,NA,NA,NA,NA,NA,NA,NA,NA,NA,NA,NA,NA,NA,NA,NA
78c7f,task,flow.Sequence,2_7,NA,NA,completion,8490.35,161902.80000001,161901.482,161918.125,170408.475,170411,2023-06-21T08:37:04Z,170424.707,Können,unaweza,d,kiongozi,bustani,mienendo,NA,NA,NA,"c(""distractor1"", ""distractor2"", ""distractor3"")",NA,NA,NA,NA,NA,NA,NA,NA,NA,NA,NA,NA,NA,NA,NA,NA,NA,NA,NA
78c7f,Shallow Question,html.Page,2_8_0_0,NA,NA,form submission,8451.5930000119,170411.30000001,170408.475,170424.707,178876.30000001,178876.69999999,2023-06-21T08:37:13Z,178892.035,Gefährdung,kuhatarisha,s,uchokozi,udhaifu,makorowezo,kuhatarisha,NA,NA,"c(""distractor1"", ""distractor2"", ""distractor3"")",NA,NA,NA,NA,NA,NA,NA,NA,NA,NA,NA,NA,NA,NA,NA,NA,NA,NA,NA
78c7f,Save data screen,canvas.Screen,2_8_0_1,NA,NA,timeout,506.87599999999,178879.5,178869.922,178892.035,179382.588,179384.30000001,2023-06-21T08:37:13Z,179398.911,Gefährdung,kuhatarisha,s,uchokozi,udhaifu,makorowezo,NA,NA,1,"c(""distractor1"", ""distractor2"", ""distractor3"")",NA,NA,NA,NA,NA,NA,NA,NA,NA,NA,NA,NA,NA,NA,NA,NA,NA,NA,NA
78c7f,shallow,flow.Sequence,2_8_0,NA,NA,completion,8957.881,170411.30000001,170408.475,170424.707,179382.588,179384.80000001,2023-06-21T08:37:13Z,179398.911,Gefährdung,kuhatarisha,s,uchokozi,udhaifu,makorowezo,NA,NA,NA,"c(""distractor1"", ""distractor2"", ""distractor3"")",NA,NA,NA,NA,NA,NA,NA,NA,NA,NA,NA,NA,NA,NA,NA,NA,NA,NA,NA
78c7f,task,flow.Sequence,2_8,NA,NA,completion,8957.881,170411.19999999,170408.475,170424.707,179382.588,179385,2023-06-21T08:37:13Z,179398.911,Gefährdung,kuhatarisha,s,uchokozi,udhaifu,makorowezo,NA,NA,NA,"c(""distractor1"", ""distractor2"", ""distractor3"")",NA,NA,NA,NA,NA,NA,NA,NA,NA,NA,NA,NA,NA,NA,NA,NA,NA,NA,NA
78c7f,Shallow Question,html.Page,2_9_0_0,NA,NA,form submission,7544.8890000119,179385.19999999,179382.588,179398.911,186943.80000001,186944.30000001,2023-06-21T08:37:21Z,186958.671,System,maongozi,d,chokochoko,nuksani,mitaani,maongozi,NA,NA,"c(""distractor1"", ""distractor2"", ""distractor3"")",NA,NA,NA,NA,NA,NA,NA,NA,NA,NA,NA,NA,NA,NA,NA,NA,NA,NA,NA
78c7f,Save data screen,canvas.Screen,2_9_0_1,NA,NA,timeout,499.62700000001,186947.30000001,186925.785,186958.671,187441.465,187443,2023-06-21T08:37:21Z,187458.298,System,maongozi,d,chokochoko,nuksani,mitaani,NA,NA,1,"c(""distractor1"", ""distractor2"", ""distractor3"")",NA,NA,NA,NA,NA,NA,NA,NA,NA,NA,NA,NA,NA,NA,NA,NA,NA,NA,NA
78c7f,shallow,flow.Sequence,2_9_0,NA,NA,completion,8042.554,179385.19999999,179382.588,179398.911,187441.465,187443.5,2023-06-21T08:37:21Z,187458.298,System,maongozi,d,chokochoko,nuksani,mitaani,NA,NA,NA,"c(""distractor1"", ""distractor2"", ""distractor3"")",NA,NA,NA,NA,NA,NA,NA,NA,NA,NA,NA,NA,NA,NA,NA,NA,NA,NA,NA
78c7f,task,flow.Sequence,2_9,NA,NA,completion,8042.554,179385.10000002,179382.588,179398.911,187441.465,187443.69999999,2023-06-21T08:37:21Z,187458.298,System,maongozi,d,chokochoko,nuksani,mitaani,NA,NA,NA,"c(""distractor1"", ""distractor2"", ""distractor3"")",NA,NA,NA,NA,NA,NA,NA,NA,NA,NA,NA,NA,NA,NA,NA,NA,NA,NA,NA
78c7f,Shallow Question,html.Page,2_10_0_0,NA,NA,form submission,1990.9019999881,187444,187441.465,187458.298,189449.19999999,189449.5,2023-06-21T08:37:23Z,189464.507,Körper,kiwiliwili,s,mapambano,mpatanishi,kiolezo,kiwiliwili,NA,NA,"c(""distractor1"", ""distractor2"", ""distractor3"")",NA,NA,NA,NA,NA,NA,NA,NA,NA,NA,NA,NA,NA,NA,NA,NA,NA,NA,NA
78c7f,Save data screen,canvas.Screen,2_10_0_1,NA,NA,timeout,500.30499999999,189450.5,189440.42,189464.507,189948.491,189949.89999998,2023-06-21T08:37:24Z,189964.812,Körper,kiwiliwili,s,mapambano,mpatanishi,kiolezo,NA,NA,1,"c(""distractor1"", ""distractor2"", ""distractor3"")",NA,NA,NA,NA,NA,NA,NA,NA,NA,NA,NA,NA,NA,NA,NA,NA,NA,NA,NA
78c7f,shallow,flow.Sequence,2_10_0,NA,NA,completion,2490.193,187444,187441.465,187458.298,189948.491,189950.30000001,2023-06-21T08:37:24Z,189964.812,Körper,kiwiliwili,s,mapambano,mpatanishi,kiolezo,NA,NA,NA,"c(""distractor1"", ""distractor2"", ""distractor3"")",NA,NA,NA,NA,NA,NA,NA,NA,NA,NA,NA,NA,NA,NA,NA,NA,NA,NA,NA
78c7f,task,flow.Sequence,2_10,NA,NA,completion,2490.193,187443.89999998,187441.465,187458.298,189948.491,189950.39999998,2023-06-21T08:37:24Z,189964.812,Körper,kiwiliwili,s,mapambano,mpatanishi,kiolezo,NA,NA,NA,"c(""distractor1"", ""distractor2"", ""distractor3"")",NA,NA,NA,NA,NA,NA,NA,NA,NA,NA,NA,NA,NA,NA,NA,NA,NA,NA,NA
78c7f,Shallow Question,html.Page,2_11_0_0,NA,NA,form submission,4548.5879999762,189950.60000002,189948.491,189964.812,194513.39999998,194513.89999998,2023-06-21T08:37:29Z,194528.362,Angreifer,mshambulizi,d,kitengo,tasinia,usafirishaji,mshambulizi,NA,NA,"c(""distractor1"", ""distractor2"", ""distractor3"")",NA,NA,NA,NA,NA,NA,NA,NA,NA,NA,NA,NA,NA,NA,NA,NA,NA,NA,NA
78c7f,Save data screen,canvas.Screen,2_11_0_1,NA,NA,timeout,497.296,194516.39999998,194495.872,194528.362,195005.26,195006.60000002,2023-06-21T08:37:29Z,195025.658,Angreifer,mshambulizi,d,kitengo,tasinia,usafirishaji,NA,NA,1,"c(""distractor1"", ""distractor2"", ""distractor3"")",NA,NA,NA,NA,NA,NA,NA,NA,NA,NA,NA,NA,NA,NA,NA,NA,NA,NA,NA
78c7f,shallow,flow.Sequence,2_11_0,NA,NA,completion,5040.448,189950.5,189948.491,189964.812,195005.26,195006.80000001,2023-06-21T08:37:29Z,195025.658,Angreifer,mshambulizi,d,kitengo,tasinia,usafirishaji,NA,NA,NA,"c(""distractor1"", ""distractor2"", ""distractor3"")",NA,NA,NA,NA,NA,NA,NA,NA,NA,NA,NA,NA,NA,NA,NA,NA,NA,NA,NA
78c7f,task,flow.Sequence,2_11,NA,NA,completion,5040.448,189950.5,189948.491,189964.812,195005.26,195007,2023-06-21T08:37:29Z,195025.658,Angreifer,mshambulizi,d,kitengo,tasinia,usafirishaji,NA,NA,NA,"c(""distractor1"", ""distractor2"", ""distractor3"")",NA,NA,NA,NA,NA,NA,NA,NA,NA,NA,NA,NA,NA,NA,NA,NA,NA,NA,NA
78c7f,Shallow Question,html.Page,2_12_0_0,NA,NA,form submission,3863.0419999881,195007.19999999,195005.26,195025.658,198888.69999999,198889.10000002,2023-06-21T08:37:33Z,198903.689,Kontrolle,kudhibiti,s,mbinguni,kufunga,utegemezi,kufunga,NA,NA,"c(""distractor1"", ""distractor2"", ""distractor3"")",NA,NA,NA,NA,NA,NA,NA,NA,NA,NA,NA,NA,NA,NA,NA,NA,NA,NA,NA
78c7f,Save data screen,canvas.Screen,2_12_0_1,NA,NA,timeout,503.43599999999,198892.10000002,198875.986,198903.689,199390.78,199392.60000002,2023-06-21T08:37:33Z,199407.125,Kontrolle,kudhibiti,s,mbinguni,kufunga,utegemezi,NA,NA,0,"c(""distractor1"", ""distractor2"", ""distractor3"")",NA,NA,NA,NA,NA,NA,NA,NA,NA,NA,NA,NA,NA,NA,NA,NA,NA,NA,NA
78c7f,shallow,flow.Sequence,2_12_0,NA,NA,completion,4365.122,195007.19999999,195005.26,195025.658,199390.78,199393.10000002,2023-06-21T08:37:33Z,199407.125,Kontrolle,kudhibiti,s,mbinguni,kufunga,utegemezi,NA,NA,NA,"c(""distractor1"", ""distractor2"", ""distractor3"")",NA,NA,NA,NA,NA,NA,NA,NA,NA,NA,NA,NA,NA,NA,NA,NA,NA,NA,NA
78c7f,task,flow.Sequence,2_12,NA,NA,completion,4365.122,195007.10000002,195005.26,195025.658,199390.78,199393.30000001,2023-06-21T08:37:33Z,199407.125,Kontrolle,kudhibiti,s,mbinguni,kufunga,utegemezi,NA,NA,NA,"c(""distractor1"", ""distractor2"", ""distractor3"")",NA,NA,NA,NA,NA,NA,NA,NA,NA,NA,NA,NA,NA,NA,NA,NA,NA,NA,NA
78c7f,Shallow Question,html.Page,2_13_0_0,NA,NA,form submission,5909.2749999762,199393.5,199390.78,199407.125,205316.39999998,205316.80000001,2023-06-21T08:37:39Z,205331.745,Prüfung,mtihani,d,mkulima,mtizamo,ufumbuzi,mtihani,NA,NA,"c(""distractor1"", ""distractor2"", ""distractor3"")",NA,NA,NA,NA,NA,NA,NA,NA,NA,NA,NA,NA,NA,NA,NA,NA,NA,NA,NA
78c7f,Save data screen,canvas.Screen,2_13_0_1,NA,NA,timeout,505.67300000001,205319.39999998,205313.142,205331.745,205820.946,205822.60000002,2023-06-21T08:37:40Z,205837.418,Prüfung,mtihani,d,mkulima,mtizamo,ufumbuzi,NA,NA,1,"c(""distractor1"", ""distractor2"", ""distractor3"")",NA,NA,NA,NA,NA,NA,NA,NA,NA,NA,NA,NA,NA,NA,NA,NA,NA,NA,NA
78c7f,shallow,flow.Sequence,2_13_0,NA,NA,completion,6413.821,199393.39999998,199390.78,199407.125,205820.946,205823.10000002,2023-06-21T08:37:40Z,205837.418,Prüfung,mtihani,d,mkulima,mtizamo,ufumbuzi,NA,NA,NA,"c(""distractor1"", ""distractor2"", ""distractor3"")",NA,NA,NA,NA,NA,NA,NA,NA,NA,NA,NA,NA,NA,NA,NA,NA,NA,NA,NA
78c7f,task,flow.Sequence,2_13,NA,NA,completion,6413.821,199393.39999998,199390.78,199407.125,205820.946,205823.30000001,2023-06-21T08:37:40Z,205837.418,Prüfung,mtihani,d,mkulima,mtizamo,ufumbuzi,NA,NA,NA,"c(""distractor1"", ""distractor2"", ""distractor3"")",NA,NA,NA,NA,NA,NA,NA,NA,NA,NA,NA,NA,NA,NA,NA,NA,NA,NA,NA
78c7f,Shallow Question,html.Page,2_14_0_0,NA,NA,form submission,11538.281999988,205823.60000002,205820.946,205837.418,217375.69999999,217376.10000002,2023-06-21T08:37:51Z,217391.232,Kultur,utamaduni,s,shetani,gerezani,mazingira,utamaduni,NA,NA,"c(""distractor1"", ""distractor2"", ""distractor3"")",NA,NA,NA,NA,NA,NA,NA,NA,NA,NA,NA,NA,NA,NA,NA,NA,NA,NA,NA
78c7f,Save data screen,canvas.Screen,2_14_0_1,NA,NA,timeout,504.02900000001,217378.89999998,217364.56,217391.232,217879.216,217880.19999999,2023-06-21T08:37:52Z,217895.261,Kultur,utamaduni,s,shetani,gerezani,mazingira,NA,NA,1,"c(""distractor1"", ""distractor2"", ""distractor3"")",NA,NA,NA,NA,NA,NA,NA,NA,NA,NA,NA,NA,NA,NA,NA,NA,NA,NA,NA
78c7f,shallow,flow.Sequence,2_14_0,NA,NA,completion,12041.798,205823.60000002,205820.946,205837.418,217879.216,217880.5,2023-06-21T08:37:52Z,217895.261,Kultur,utamaduni,s,shetani,gerezani,mazingira,NA,NA,NA,"c(""distractor1"", ""distractor2"", ""distractor3"")",NA,NA,NA,NA,NA,NA,NA,NA,NA,NA,NA,NA,NA,NA,NA,NA,NA,NA,NA
78c7f,task,flow.Sequence,2_14,NA,NA,completion,12041.798,205823.5,205820.946,205837.418,217879.216,217880.60000002,2023-06-21T08:37:52Z,217895.261,Kultur,utamaduni,s,shetani,gerezani,mazingira,NA,NA,NA,"c(""distractor1"", ""distractor2"", ""distractor3"")",NA,NA,NA,NA,NA,NA,NA,NA,NA,NA,NA,NA,NA,NA,NA,NA,NA,NA,NA
78c7f,Shallow Question,html.Page,2_15_0_0,NA,NA,form submission,1876.5390000119,217880.69999999,217879.216,217895.261,219771.80000001,219772.19999999,2023-06-21T08:37:54Z,219787.038,Lawine,banguko,d,maambukizi,usuluhishi,chekechea,banguko,NA,NA,"c(""distractor1"", ""distractor2"", ""distractor3"")",NA,NA,NA,NA,NA,NA,NA,NA,NA,NA,NA,NA,NA,NA,NA,NA,NA,NA,NA
78c7f,Save data screen,canvas.Screen,2_15_0_1,NA,NA,timeout,528.66099999999,219773,219756.044,219787.038,220271.294,220273,2023-06-21T08:37:54Z,220315.699,Lawine,banguko,d,maambukizi,usuluhishi,chekechea,NA,NA,1,"c(""distractor1"", ""distractor2"", ""distractor3"")",NA,NA,NA,NA,NA,NA,NA,NA,NA,NA,NA,NA,NA,NA,NA,NA,NA,NA,NA
78c7f,shallow,flow.Sequence,2_15_0,NA,NA,completion,2376.033,217880.69999999,217879.216,217895.261,220271.294,220273.5,2023-06-21T08:37:54Z,220315.699,Lawine,banguko,d,maambukizi,usuluhishi,chekechea,NA,NA,NA,"c(""distractor1"", ""distractor2"", ""distractor3"")",NA,NA,NA,NA,NA,NA,NA,NA,NA,NA,NA,NA,NA,NA,NA,NA,NA,NA,NA
78c7f,task,flow.Sequence,2_15,NA,NA,completion,2376.033,217880.69999999,217879.216,217895.261,220271.294,220273.89999998,2023-06-21T08:37:54Z,220315.699,Lawine,banguko,d,maambukizi,usuluhishi,chekechea,NA,NA,NA,"c(""distractor1"", ""distractor2"", ""distractor3"")",NA,NA,NA,NA,NA,NA,NA,NA,NA,NA,NA,NA,NA,NA,NA,NA,NA,NA,NA
78c7f,retrieval block 2 (multiple choice),flow.Loop,2,NA,NA,completion,99437.572,120818.69999999,120817.235,120833.722,220271.294,220274.19999999,2023-06-21T08:37:54Z,220315.699,NA,NA,NA,NA,NA,NA,NA,NA,NA,"c(""distractor1"", ""distractor2"", ""distractor3"")",NA,NA,NA,NA,NA,NA,NA,NA,NA,NA,NA,NA,NA,NA,NA,NA,NA,NA,NA
78c7f,End,canvas.Screen,3,NA,keypress(Space),response,1075.6010000119,220274.39999998,220271.294,220315.699,221391.30000001,221394.39999998,2023-06-21T08:37:55Z,221412.7,NA,NA,NA,NA,NA,NA,NA,NA,NA,NULL,NA,NA,NA,NA,NA,NA,NA,NA,NA,NA,NA,NA,NA,NA,NA,NA,NA,NA,NA
78c7f,root,flow.Sequence,NA,NA,NA,completion,220445.15900001,927.10000002384,929.508,946.141,221391.30000001,221395.10000002,2023-06-21T08:37:55Z,221412.7,NA,NA,NA,NA,NA,NA,NA,NA,NA,NULL,NA,NA,NA,NA,NA,NA,NA,NA,NA,NA,NA,NA,NA,NA,NA,NA,NA,NA,NA
