observation,sender,sender_type,sender_id,response,response_action,ended_on,duration,time_run,time_render,time_show,time_end,time_commit,timestamp,time_switch,url_vp,url_sess,meta_labjs_version,meta_location,meta_user_agent,meta_platform,meta_language,meta_locale,meta_time_zone,meta_timezone_offset,meta_screen_width,meta_screen_height,meta_scroll_width,meta_scroll_height,meta_window_inner_width,meta_window_inner_height,meta_device_pixel_ratio,meta_labjs_build_flavor,meta_labjs_build_commit,distractors,german,swahili,enc,distractor1,distractor2,distractor3,x,correct,x_2,response_2
59f2d,Introduction general,canvas.Screen,0,weiter,keypress(q),response,79468.448999928,879.59999990463,873.063,889.751,80358.199999928,80361.899999976,2023-07-03T07:59:56Z,80375.108,220,3,20.2.4,https://neurocog.fernuni.ch/studies/vweber/sfink/encoding_immediate/index.html?vp=220&sess=3,"Mozilla/5.0 (Windows NT 10.0; Win64; x64) AppleWebKit/537.36 (KHTML, like Gecko) Chrome/114.0.0.0 Safari/537.36",Win32,de-CH,de,Europe/Zurich,-120,1536,864,1536,706,1536,754,1.25,production,f5b4a49f956347addd546a832a3327688c2c0fef,NA,NA,NA,NA,NA,NA,NA,NA,NA,NA,NA
59f2d,Introduction practice,canvas.Screen,1_0,NA,keypress(Space),response,6700.892,80362.099999905,80353.302,80375.108,87076,87077.299999952,2023-07-03T08:00:03Z,87085.657,NA,NA,NA,NA,NA,NA,NA,NA,NA,NA,NA,NA,NA,NA,NA,NA,NA,NA,NA,NULL,NA,NA,NA,NA,NA,NA,NA,NA,NA,NA
59f2d,deep,flow.Sequence,1_1_0_0,NA,NA,skipped,NA,87077.899999976,NA,NA,87076,87080.699999928,2023-07-03T08:00:03Z,87085.657,NA,NA,NA,NA,NA,NA,NA,NA,NA,NA,NA,NA,NA,NA,NA,NA,NA,NA,NA,"c(""distractor1"", ""distractor2"", ""distractor3"")",Rückhalt,msaada,s,muhula,auwali,kiwimbe,NA,NA,NA,NA
59f2d,Shallow Question,html.Page,1_1_0_1_0,muhula,NA,form submission,4348.343,87080.799999952,87068.527,87085.657,91434,91434.199999928,2023-07-03T08:00:07Z,91450.097,NA,NA,NA,NA,NA,NA,NA,NA,NA,NA,NA,NA,NA,NA,NA,NA,NA,NA,NA,"c(""distractor1"", ""distractor2"", ""distractor3"")",Rückhalt,msaada,s,muhula,auwali,kiwimbe,NA,NA,NA,NA
59f2d,"""Richtig""-Screen",canvas.Screen,1_1_0_1_1,NA,NA,skipped,NA,91435.5,NA,NA,91434,91435.699999928,2023-07-03T08:00:07Z,91450.097,NA,NA,NA,NA,NA,NA,NA,NA,NA,NA,NA,NA,NA,NA,NA,NA,NA,NA,NA,"c(""distractor1"", ""distractor2"", ""distractor3"")",Rückhalt,msaada,s,muhula,auwali,kiwimbe,NA,NA,NA,NA
59f2d,"""Falsch""-Screen",canvas.Screen,1_1_0_1_2,NA,NA,timeout,4994.465,91436.699999928,91415.282,91450.097,96428.213,96433.099999905,2023-07-03T08:00:12Z,96444.562,NA,NA,NA,NA,NA,NA,NA,NA,NA,NA,NA,NA,NA,NA,NA,NA,NA,NA,NA,"c(""distractor1"", ""distractor2"", ""distractor3"")",Rückhalt,msaada,s,muhula,auwali,kiwimbe,NA,0,NA,NA
59f2d,shallow,flow.Sequence,1_1_0_1,NA,NA,completion,9342.556,87080.799999952,87068.527,87085.657,96428.213,96433.599999905,2023-07-03T08:00:12Z,96444.562,NA,NA,NA,NA,NA,NA,NA,NA,NA,NA,NA,NA,NA,NA,NA,NA,NA,NA,NA,"c(""distractor1"", ""distractor2"", ""distractor3"")",Rückhalt,msaada,s,muhula,auwali,kiwimbe,NA,NA,NA,NA
59f2d,task,flow.Sequence,1_1_0,NA,NA,completion,9342.556,87077.799999952,87068.527,87085.657,96428.213,96434,2023-07-03T08:00:12Z,96444.562,NA,NA,NA,NA,NA,NA,NA,NA,NA,NA,NA,NA,NA,NA,NA,NA,NA,NA,NA,"c(""distractor1"", ""distractor2"", ""distractor3"")",Rückhalt,msaada,s,muhula,auwali,kiwimbe,NA,NA,NA,NA
59f2d,Deep Question,html.Page,1_1_1_0_0,ungo,NA,form submission,3524.1379999285,96434.399999976,96428.213,96444.562,99968.699999928,99969,2023-07-03T08:00:16Z,99975.006,NA,NA,NA,NA,NA,NA,NA,NA,NA,NA,NA,NA,NA,NA,NA,NA,NA,NA,NA,"c(""distractor1"", ""distractor2"", ""distractor3"")",Schatten,kivuli,d,NA,NA,NA,NA,NA,NA,NA
59f2d,"""Richtig""-Screen",canvas.Screen,1_1_1_0_1,NA,NA,skipped,NA,99971.099999905,NA,NA,99968.699999928,99971.299999952,2023-07-03T08:00:16Z,99975.006,NA,NA,NA,NA,NA,NA,NA,NA,NA,NA,NA,NA,NA,NA,NA,NA,NA,NA,NA,"c(""distractor1"", ""distractor2"", ""distractor3"")",Schatten,kivuli,d,NA,NA,NA,NA,NA,NA,NA
59f2d,"""Falsch""-Screen",canvas.Screen,1_1_1_0_2,NA,NA,timeout,4996.392,99972.199999928,99958.474,99975.006,104954.754,104955.5999999,2023-07-03T08:00:21Z,104971.398,NA,NA,NA,NA,NA,NA,NA,NA,NA,NA,NA,NA,NA,NA,NA,NA,NA,NA,NA,"c(""distractor1"", ""distractor2"", ""distractor3"")",Schatten,kivuli,d,NA,NA,NA,NA,0,NA,NA
59f2d,deep,flow.Sequence,1_1_1_0,NA,NA,completion,8510.192,96434.299999952,96428.213,96444.562,104954.754,104955.89999998,2023-07-03T08:00:21Z,104971.398,NA,NA,NA,NA,NA,NA,NA,NA,NA,NA,NA,NA,NA,NA,NA,NA,NA,NA,NA,"c(""distractor1"", ""distractor2"", ""distractor3"")",Schatten,kivuli,d,NA,NA,NA,NA,NA,NA,NA
59f2d,shallow,flow.Sequence,1_1_1_1,NA,NA,skipped,NA,104956,NA,NA,104954.754,104956.0999999,2023-07-03T08:00:21Z,104971.398,NA,NA,NA,NA,NA,NA,NA,NA,NA,NA,NA,NA,NA,NA,NA,NA,NA,NA,NA,"c(""distractor1"", ""distractor2"", ""distractor3"")",Schatten,kivuli,d,NA,NA,NA,NA,NA,NA,NA
59f2d,task,flow.Sequence,1_1_1,NA,NA,completion,8510.192,96434.199999928,96428.213,96444.562,104954.754,104956.29999995,2023-07-03T08:00:21Z,104971.398,NA,NA,NA,NA,NA,NA,NA,NA,NA,NA,NA,NA,NA,NA,NA,NA,NA,NA,NA,"c(""distractor1"", ""distractor2"", ""distractor3"")",Schatten,kivuli,d,NA,NA,NA,NA,NA,NA,NA
59f2d,Deep Question,html.Page,1_1_2_0_0,aango,NA,form submission,4912.2019999046,104956.5,104954.754,104971.398,109883.5999999,109883.79999995,2023-07-03T08:00:25Z,109900.551,NA,NA,NA,NA,NA,NA,NA,NA,NA,NA,NA,NA,NA,NA,NA,NA,NA,NA,NA,"c(""distractor1"", ""distractor2"", ""distractor3"")",Qualität,mtindo,d,NA,NA,NA,NA,NA,NA,NA
59f2d,"""Richtig""-Screen",canvas.Screen,1_1_2_0_1,NA,NA,skipped,NA,109886.19999993,NA,NA,109883.5999999,109886.39999998,2023-07-03T08:00:26Z,109900.551,NA,NA,NA,NA,NA,NA,NA,NA,NA,NA,NA,NA,NA,NA,NA,NA,NA,NA,NA,"c(""distractor1"", ""distractor2"", ""distractor3"")",Qualität,mtindo,d,NA,NA,NA,NA,NA,NA,NA
59f2d,"""Falsch""-Screen",canvas.Screen,1_1_2_0_2,NA,NA,timeout,4996.059,109888.0999999,109867.122,109900.551,114879.958,114880.5,2023-07-03T08:00:30Z,114896.61,NA,NA,NA,NA,NA,NA,NA,NA,NA,NA,NA,NA,NA,NA,NA,NA,NA,NA,NA,"c(""distractor1"", ""distractor2"", ""distractor3"")",Qualität,mtindo,d,NA,NA,NA,NA,0,NA,NA
59f2d,deep,flow.Sequence,1_1_2_0,NA,NA,completion,9908.56,104956.5,104954.754,104971.398,114879.958,114880.69999993,2023-07-03T08:00:30Z,114896.61,NA,NA,NA,NA,NA,NA,NA,NA,NA,NA,NA,NA,NA,NA,NA,NA,NA,NA,NA,"c(""distractor1"", ""distractor2"", ""distractor3"")",Qualität,mtindo,d,NA,NA,NA,NA,NA,NA,NA
59f2d,shallow,flow.Sequence,1_1_2_1,NA,NA,skipped,NA,114880.79999995,NA,NA,114879.958,114880.89999998,2023-07-03T08:00:30Z,114896.61,NA,NA,NA,NA,NA,NA,NA,NA,NA,NA,NA,NA,NA,NA,NA,NA,NA,NA,NA,"c(""distractor1"", ""distractor2"", ""distractor3"")",Qualität,mtindo,d,NA,NA,NA,NA,NA,NA,NA
59f2d,task,flow.Sequence,1_1_2,NA,NA,completion,9908.56,104956.39999998,104954.754,104971.398,114879.958,114881,2023-07-03T08:00:30Z,114896.61,NA,NA,NA,NA,NA,NA,NA,NA,NA,NA,NA,NA,NA,NA,NA,NA,NA,NA,NA,"c(""distractor1"", ""distractor2"", ""distractor3"")",Qualität,mtindo,d,NA,NA,NA,NA,NA,NA,NA
59f2d,Deep Question,html.Page,1_1_3_0_0,engo,NA,form submission,3579.89,114881.0999999,114879.958,114896.61,118476.5,118476.79999995,2023-07-03T08:00:34Z,118493.694,NA,NA,NA,NA,NA,NA,NA,NA,NA,NA,NA,NA,NA,NA,NA,NA,NA,NA,NA,"c(""distractor1"", ""distractor2"", ""distractor3"")",Gesundheit,salama,d,NA,NA,NA,NA,NA,NA,NA
59f2d,"""Richtig""-Screen",canvas.Screen,1_1_3_0_1,NA,NA,skipped,NA,118479.29999995,NA,NA,118476.5,118479.5,2023-07-03T08:00:34Z,118493.694,NA,NA,NA,NA,NA,NA,NA,NA,NA,NA,NA,NA,NA,NA,NA,NA,NA,NA,NA,"c(""distractor1"", ""distractor2"", ""distractor3"")",Gesundheit,salama,d,NA,NA,NA,NA,NA,NA,NA
59f2d,"""Falsch""-Screen",canvas.Screen,1_1_3_0_2,NA,NA,timeout,4995.487,118480.39999998,118459.827,118493.694,123472.429,123473.39999998,2023-07-03T08:00:39Z,123489.181,NA,NA,NA,NA,NA,NA,NA,NA,NA,NA,NA,NA,NA,NA,NA,NA,NA,NA,NA,"c(""distractor1"", ""distractor2"", ""distractor3"")",Gesundheit,salama,d,NA,NA,NA,NA,0,NA,NA
59f2d,deep,flow.Sequence,1_1_3_0,NA,NA,completion,8575.819,114881.0999999,114879.958,114896.61,123472.429,123473.89999998,2023-07-03T08:00:39Z,123489.181,NA,NA,NA,NA,NA,NA,NA,NA,NA,NA,NA,NA,NA,NA,NA,NA,NA,NA,NA,"c(""distractor1"", ""distractor2"", ""distractor3"")",Gesundheit,salama,d,NA,NA,NA,NA,NA,NA,NA
59f2d,shallow,flow.Sequence,1_1_3_1,NA,NA,skipped,NA,123474,NA,NA,123472.429,123474.19999993,2023-07-03T08:00:39Z,123489.181,NA,NA,NA,NA,NA,NA,NA,NA,NA,NA,NA,NA,NA,NA,NA,NA,NA,NA,NA,"c(""distractor1"", ""distractor2"", ""distractor3"")",Gesundheit,salama,d,NA,NA,NA,NA,NA,NA,NA
59f2d,task,flow.Sequence,1_1_3,NA,NA,completion,8575.819,114881.0999999,114879.958,114896.61,123472.429,123474.5,2023-07-03T08:00:39Z,123489.181,NA,NA,NA,NA,NA,NA,NA,NA,NA,NA,NA,NA,NA,NA,NA,NA,NA,NA,NA,"c(""distractor1"", ""distractor2"", ""distractor3"")",Gesundheit,salama,d,NA,NA,NA,NA,NA,NA,NA
59f2d,deep,flow.Sequence,1_1_4_0,NA,NA,skipped,NA,123474.69999993,NA,NA,123472.429,123474.89999998,2023-07-03T08:00:39Z,123489.181,NA,NA,NA,NA,NA,NA,NA,NA,NA,NA,NA,NA,NA,NA,NA,NA,NA,NA,NA,"c(""distractor1"", ""distractor2"", ""distractor3"")",Kritik,lawama,s,dereva,nafasi,mawazo,NA,NA,NA,NA
59f2d,Shallow Question,html.Page,1_1_4_1_0,dereva,NA,form submission,3026.319,123475.0999999,123472.429,123489.181,126515.5,126515.5999999,2023-07-03T08:00:42Z,126519.799,NA,NA,NA,NA,NA,NA,NA,NA,NA,NA,NA,NA,NA,NA,NA,NA,NA,NA,NA,"c(""distractor1"", ""distractor2"", ""distractor3"")",Kritik,lawama,s,dereva,nafasi,mawazo,NA,NA,NA,NA
59f2d,"""Richtig""-Screen",canvas.Screen,1_1_4_1_1,NA,NA,skipped,NA,126517.5,NA,NA,126515.5,126517.5999999,2023-07-03T08:00:42Z,126519.799,NA,NA,NA,NA,NA,NA,NA,NA,NA,NA,NA,NA,NA,NA,NA,NA,NA,NA,NA,"c(""distractor1"", ""distractor2"", ""distractor3"")",Kritik,lawama,s,dereva,nafasi,mawazo,NA,NA,NA,NA
59f2d,"""Falsch""-Screen",canvas.Screen,1_1_4_1_2,NA,NA,timeout,4996.032,126518.29999995,126503.549,126519.799,131499.501,131500.39999998,2023-07-03T08:00:47Z,131515.831,NA,NA,NA,NA,NA,NA,NA,NA,NA,NA,NA,NA,NA,NA,NA,NA,NA,NA,NA,"c(""distractor1"", ""distractor2"", ""distractor3"")",Kritik,lawama,s,dereva,nafasi,mawazo,NA,0,NA,NA
59f2d,shallow,flow.Sequence,1_1_4_1,NA,NA,completion,8010.32,123475,123472.429,123489.181,131499.501,131500.79999995,2023-07-03T08:00:47Z,131515.831,NA,NA,NA,NA,NA,NA,NA,NA,NA,NA,NA,NA,NA,NA,NA,NA,NA,NA,NA,"c(""distractor1"", ""distractor2"", ""distractor3"")",Kritik,lawama,s,dereva,nafasi,mawazo,NA,NA,NA,NA
59f2d,task,flow.Sequence,1_1_4,NA,NA,completion,8010.32,123474.5999999,123472.429,123489.181,131499.501,131501.0999999,2023-07-03T08:00:47Z,131515.831,NA,NA,NA,NA,NA,NA,NA,NA,NA,NA,NA,NA,NA,NA,NA,NA,NA,NA,NA,"c(""distractor1"", ""distractor2"", ""distractor3"")",Kritik,lawama,s,dereva,nafasi,mawazo,NA,NA,NA,NA
59f2d,deep,flow.Sequence,1_1_5_0,NA,NA,skipped,NA,131501.29999995,NA,NA,131499.501,131501.5,2023-07-03T08:00:47Z,131515.831,NA,NA,NA,NA,NA,NA,NA,NA,NA,NA,NA,NA,NA,NA,NA,NA,NA,NA,NA,"c(""distractor1"", ""distractor2"", ""distractor3"")",Gegenwart,hadhara,s,katiba,jokofu,mikopo,NA,NA,NA,NA
59f2d,Shallow Question,html.Page,1_1_5_1_0,mikopo,NA,form submission,2536.2689999046,131501.69999993,131499.501,131515.831,134052.0999999,134052.29999995,2023-07-03T08:00:50Z,134063.571,NA,NA,NA,NA,NA,NA,NA,NA,NA,NA,NA,NA,NA,NA,NA,NA,NA,NA,NA,"c(""distractor1"", ""distractor2"", ""distractor3"")",Gegenwart,hadhara,s,katiba,jokofu,mikopo,NA,NA,NA,NA
59f2d,"""Richtig""-Screen",canvas.Screen,1_1_5_1_1,NA,NA,skipped,NA,134054.0999999,NA,NA,134052.0999999,134054.19999993,2023-07-03T08:00:50Z,134063.571,NA,NA,NA,NA,NA,NA,NA,NA,NA,NA,NA,NA,NA,NA,NA,NA,NA,NA,NA,"c(""distractor1"", ""distractor2"", ""distractor3"")",Gegenwart,hadhara,s,katiba,jokofu,mikopo,NA,NA,NA,NA
59f2d,"""Falsch""-Screen",canvas.Screen,1_1_5_1_2,NA,NA,timeout,4996.04,134054.79999995,134047.534,134063.571,139043.444,139044.39999998,2023-07-03T08:00:55Z,139059.611,NA,NA,NA,NA,NA,NA,NA,NA,NA,NA,NA,NA,NA,NA,NA,NA,NA,NA,NA,"c(""distractor1"", ""distractor2"", ""distractor3"")",Gegenwart,hadhara,s,katiba,jokofu,mikopo,NA,0,NA,NA
59f2d,shallow,flow.Sequence,1_1_5_1,NA,NA,completion,7527.613,131501.69999993,131499.501,131515.831,139043.444,139044.89999998,2023-07-03T08:00:55Z,139059.611,NA,NA,NA,NA,NA,NA,NA,NA,NA,NA,NA,NA,NA,NA,NA,NA,NA,NA,NA,"c(""distractor1"", ""distractor2"", ""distractor3"")",Gegenwart,hadhara,s,katiba,jokofu,mikopo,NA,NA,NA,NA
59f2d,task,flow.Sequence,1_1_5,NA,NA,completion,7527.613,131501.19999993,131499.501,131515.831,139043.444,139045.19999993,2023-07-03T08:00:55Z,139059.611,NA,NA,NA,NA,NA,NA,NA,NA,NA,NA,NA,NA,NA,NA,NA,NA,NA,NA,NA,"c(""distractor1"", ""distractor2"", ""distractor3"")",Gegenwart,hadhara,s,katiba,jokofu,mikopo,NA,NA,NA,NA
59f2d,block,flow.Loop,1_1,NA,NA,completion,51957.787,87077.699999928,87068.527,87085.657,139043.444,139045.5,2023-07-03T08:00:55Z,139059.611,NA,NA,NA,NA,NA,NA,NA,NA,NA,NA,NA,NA,NA,NA,NA,NA,NA,NA,NA,"c(""distractor1"", ""distractor2"", ""distractor3"")",NA,NA,NA,NA,NA,NA,NA,NA,NA,NA
59f2d,Practice,flow.Sequence,1,NA,NA,completion,58668.336,80362.099999905,80353.302,80375.108,139043.444,139045.79999995,2023-07-03T08:00:55Z,139059.611,NA,NA,NA,NA,NA,NA,NA,NA,NA,NA,NA,NA,NA,NA,NA,NA,NA,NA,NA,NULL,NA,NA,NA,NA,NA,NA,NA,NA,NA,NA
59f2d,Experiment start,canvas.Screen,2,weiter,keypress(q),response,14685.389,139046,139043.444,139059.611,153745,153746.0999999,2023-07-03T08:01:09Z,153847.649,NA,NA,NA,NA,NA,NA,NA,NA,NA,NA,NA,NA,NA,NA,NA,NA,NA,NA,NA,NA,NA,NA,NA,NA,NA,NA,NA,NA,NA,NA
59f2d,Deep Question,html.Page,3_0_0_0_0_0_0,ungo,NA,form submission,4827.4509999046,153835,153830.426,153847.649,158675.0999999,158675.39999998,2023-07-03T08:01:14Z,158676.655,NA,NA,NA,NA,NA,NA,NA,NA,NA,NA,NA,NA,NA,NA,NA,NA,NA,NA,NA,NA,Papier,karatasi,d,NA,NA,NA,NA,NA,0,NA
59f2d,"""Richtig""-Screen",canvas.Screen,3_0_0_0_0_0_1,NA,NA,skipped,NA,158677.29999995,NA,NA,158675.0999999,158677.39999998,2023-07-03T08:01:14Z,158676.655,NA,NA,NA,NA,NA,NA,NA,NA,NA,NA,NA,NA,NA,NA,NA,NA,NA,NA,NA,NA,Papier,karatasi,d,NA,NA,NA,sdf,NA,0,NA
59f2d,"""Falsch""-Screen",canvas.Screen,3_0_0_0_0_0_2,NA,NA,timeout,4996.679,158678.0999999,158660.169,158676.655,163655.96,163658.39999998,2023-07-03T08:01:19Z,163673.334,NA,NA,NA,NA,NA,NA,NA,NA,NA,NA,NA,NA,NA,NA,NA,NA,NA,NA,NA,NA,Papier,karatasi,d,NA,NA,NA,sdf,0,0,NA
59f2d,deep,flow.Sequence,3_0_0_0_0_0,NA,NA,completion,9808.311,153834.89999998,153830.426,153847.649,163655.96,163658.5999999,2023-07-03T08:01:19Z,163673.334,NA,NA,NA,NA,NA,NA,NA,NA,NA,NA,NA,NA,NA,NA,NA,NA,NA,NA,NA,NA,Papier,karatasi,d,NA,NA,NA,sdf,NA,0,NA
59f2d,shallow,flow.Sequence,3_0_0_0_0_1,NA,NA,skipped,NA,163658.5999999,NA,NA,163655.96,163658.79999995,2023-07-03T08:01:19Z,163673.334,NA,NA,NA,NA,NA,NA,NA,NA,NA,NA,NA,NA,NA,NA,NA,NA,NA,NA,NA,NA,Papier,karatasi,d,NA,NA,NA,sdf,NA,0,NA
59f2d,task,flow.Sequence,3_0_0_0_0,NA,NA,completion,9808.311,153834.79999995,153830.426,153847.649,163655.96,163658.79999995,2023-07-03T08:01:19Z,163673.334,NA,NA,NA,NA,NA,NA,NA,NA,NA,NA,NA,NA,NA,NA,NA,NA,NA,NA,NA,NA,Papier,karatasi,d,NA,NA,NA,sdf,NA,0,NA
59f2d,deep,flow.Sequence,3_0_0_0_1_0,NA,NA,skipped,NA,163659.0999999,NA,NA,163655.96,163659.19999993,2023-07-03T08:01:19Z,163673.334,NA,NA,NA,NA,NA,NA,NA,NA,NA,NA,NA,NA,NA,NA,NA,NA,NA,NA,NA,NA,Spionage,upelelezi,s,maslahi,utokazo,magangao,sdf,NA,0,NA
59f2d,Shallow Question,html.Page,3_0_0_0_1_1_0,magangao,NA,form submission,5747.7659999046,163659.39999998,163655.96,163673.334,169421.0999999,169421.29999995,2023-07-03T08:01:25Z,169434.962,NA,NA,NA,NA,NA,NA,NA,NA,NA,NA,NA,NA,NA,NA,NA,NA,NA,NA,NA,NA,Spionage,upelelezi,s,maslahi,utokazo,magangao,NA,NA,0,NA
59f2d,"""Richtig""-Screen",canvas.Screen,3_0_0_0_1_1_1,NA,NA,skipped,NA,169423.0999999,NA,NA,169421.0999999,169423.19999993,2023-07-03T08:01:25Z,169434.962,NA,NA,NA,NA,NA,NA,NA,NA,NA,NA,NA,NA,NA,NA,NA,NA,NA,NA,NA,NA,Spionage,upelelezi,s,maslahi,utokazo,magangao,sdf,NA,0,NA
59f2d,"""Falsch""-Screen",canvas.Screen,3_0_0_0_1_1_2,NA,NA,timeout,4995.924,169423.69999993,169418.409,169434.962,174413.826,174414.69999993,2023-07-03T08:01:30Z,174430.886,NA,NA,NA,NA,NA,NA,NA,NA,NA,NA,NA,NA,NA,NA,NA,NA,NA,NA,NA,NA,Spionage,upelelezi,s,maslahi,utokazo,magangao,sdf,0,0,NA
59f2d,shallow,flow.Sequence,3_0_0_0_1_1,NA,NA,completion,10740.492,163659.39999998,163655.96,163673.334,174413.826,174415.29999995,2023-07-03T08:01:30Z,174430.886,NA,NA,NA,NA,NA,NA,NA,NA,NA,NA,NA,NA,NA,NA,NA,NA,NA,NA,NA,NA,Spionage,upelelezi,s,maslahi,utokazo,magangao,sdf,NA,0,NA
59f2d,task,flow.Sequence,3_0_0_0_1,NA,NA,completion,10740.492,163659.0999999,163655.96,163673.334,174413.826,174415.79999995,2023-07-03T08:01:30Z,174430.886,NA,NA,NA,NA,NA,NA,NA,NA,NA,NA,NA,NA,NA,NA,NA,NA,NA,NA,NA,NA,Spionage,upelelezi,s,maslahi,utokazo,magangao,sdf,NA,0,NA
59f2d,Deep Question,html.Page,3_0_0_0_2_0_0,ongo,NA,form submission,3605.114,174416.29999995,174413.826,174430.886,178036,178036.19999993,2023-07-03T08:01:34Z,178044.065,NA,NA,NA,NA,NA,NA,NA,NA,NA,NA,NA,NA,NA,NA,NA,NA,NA,NA,NA,NA,Niveau,kiwango,d,NA,NA,NA,NA,NA,0,NA
59f2d,"""Richtig""-Screen",canvas.Screen,3_0_0_0_2_0_1,NA,NA,skipped,NA,178038.79999995,NA,NA,178036,178038.89999998,2023-07-03T08:01:34Z,178044.065,NA,NA,NA,NA,NA,NA,NA,NA,NA,NA,NA,NA,NA,NA,NA,NA,NA,NA,NA,NA,Niveau,kiwango,d,NA,NA,NA,sdf,NA,0,NA
59f2d,"""Falsch""-Screen",canvas.Screen,3_0_0_0_2_0_2,NA,NA,timeout,4996.533,178039.69999993,178028.008,178044.065,183023.983,183024.5,2023-07-03T08:01:39Z,183040.598,NA,NA,NA,NA,NA,NA,NA,NA,NA,NA,NA,NA,NA,NA,NA,NA,NA,NA,NA,NA,Niveau,kiwango,d,NA,NA,NA,sdf,0,0,NA
59f2d,deep,flow.Sequence,3_0_0_0_2_0,NA,NA,completion,8593.097,174416.19999993,174413.826,174430.886,183023.983,183024.5999999,2023-07-03T08:01:39Z,183040.598,NA,NA,NA,NA,NA,NA,NA,NA,NA,NA,NA,NA,NA,NA,NA,NA,NA,NA,NA,NA,Niveau,kiwango,d,NA,NA,NA,sdf,NA,0,NA
59f2d,shallow,flow.Sequence,3_0_0_0_2_1,NA,NA,skipped,NA,183024.69999993,NA,NA,183023.983,183024.79999995,2023-07-03T08:01:39Z,183040.598,NA,NA,NA,NA,NA,NA,NA,NA,NA,NA,NA,NA,NA,NA,NA,NA,NA,NA,NA,NA,Niveau,kiwango,d,NA,NA,NA,sdf,NA,0,NA
59f2d,task,flow.Sequence,3_0_0_0_2,NA,NA,completion,8593.097,174416.0999999,174413.826,174430.886,183023.983,183024.89999998,2023-07-03T08:01:39Z,183040.598,NA,NA,NA,NA,NA,NA,NA,NA,NA,NA,NA,NA,NA,NA,NA,NA,NA,NA,NA,NA,Niveau,kiwango,d,NA,NA,NA,sdf,NA,0,NA
59f2d,deep,flow.Sequence,3_0_0_0_3_0,NA,NA,skipped,NA,183024.89999998,NA,NA,183023.983,183025,2023-07-03T08:01:39Z,183040.598,NA,NA,NA,NA,NA,NA,NA,NA,NA,NA,NA,NA,NA,NA,NA,NA,NA,NA,NA,NA,Fenster,dirisha,s,walakini,tasawari,maarifa,sdf,NA,0,NA
59f2d,Shallow Question,html.Page,3_0_0_0_3_1_0,tasawari,NA,form submission,6648.902,183025.0999999,183023.983,183040.598,189689.5,189689.69999993,2023-07-03T08:01:45Z,189701.197,NA,NA,NA,NA,NA,NA,NA,NA,NA,NA,NA,NA,NA,NA,NA,NA,NA,NA,NA,NA,Fenster,dirisha,s,walakini,tasawari,maarifa,NA,NA,0,NA
59f2d,"""Richtig""-Screen",canvas.Screen,3_0_0_0_3_1_1,NA,NA,skipped,NA,189691.5999999,NA,NA,189689.5,189691.69999993,2023-07-03T08:01:45Z,189701.197,NA,NA,NA,NA,NA,NA,NA,NA,NA,NA,NA,NA,NA,NA,NA,NA,NA,NA,NA,NA,Fenster,dirisha,s,walakini,tasawari,maarifa,sdf,NA,0,NA
59f2d,"""Falsch""-Screen",canvas.Screen,3_0_0_0_3_1_2,NA,NA,timeout,4996.153,189692.29999995,189685.134,189701.197,194680.996,194681.79999995,2023-07-03T08:01:50Z,194697.35,NA,NA,NA,NA,NA,NA,NA,NA,NA,NA,NA,NA,NA,NA,NA,NA,NA,NA,NA,NA,Fenster,dirisha,s,walakini,tasawari,maarifa,sdf,0,0,NA
59f2d,shallow,flow.Sequence,3_0_0_0_3_1,NA,NA,completion,11640.398,183025.0999999,183023.983,183040.598,194680.996,194682.39999998,2023-07-03T08:01:50Z,194697.35,NA,NA,NA,NA,NA,NA,NA,NA,NA,NA,NA,NA,NA,NA,NA,NA,NA,NA,NA,NA,Fenster,dirisha,s,walakini,tasawari,maarifa,sdf,NA,0,NA
59f2d,task,flow.Sequence,3_0_0_0_3,NA,NA,completion,11640.398,183024.89999998,183023.983,183040.598,194680.996,194682.5999999,2023-07-03T08:01:50Z,194697.35,NA,NA,NA,NA,NA,NA,NA,NA,NA,NA,NA,NA,NA,NA,NA,NA,NA,NA,NA,NA,Fenster,dirisha,s,walakini,tasawari,maarifa,sdf,NA,0,NA
59f2d,deep,flow.Sequence,3_0_0_0_4_0,NA,NA,skipped,NA,194682.79999995,NA,NA,194680.996,194683,2023-07-03T08:01:50Z,194697.35,NA,NA,NA,NA,NA,NA,NA,NA,NA,NA,NA,NA,NA,NA,NA,NA,NA,NA,NA,NA,Vorwurf,mashtaka,s,msukumo,mtangulizi,uenyekiti,sdf,NA,0,NA
59f2d,Shallow Question,html.Page,3_0_0_0_4_1_0,msukumo,NA,form submission,5714.4499999523,194683.19999993,194680.996,194697.35,200411.79999995,200412,2023-07-03T08:01:56Z,200426.391,NA,NA,NA,NA,NA,NA,NA,NA,NA,NA,NA,NA,NA,NA,NA,NA,NA,NA,NA,NA,Vorwurf,mashtaka,s,msukumo,mtangulizi,uenyekiti,NA,NA,0,NA
59f2d,"""Richtig""-Screen",canvas.Screen,3_0_0_0_4_1_1,NA,NA,skipped,NA,200414,NA,NA,200411.79999995,200414.0999999,2023-07-03T08:01:56Z,200426.391,NA,NA,NA,NA,NA,NA,NA,NA,NA,NA,NA,NA,NA,NA,NA,NA,NA,NA,NA,NA,Vorwurf,mashtaka,s,msukumo,mtangulizi,uenyekiti,sdf,NA,0,NA
59f2d,"""Falsch""-Screen",canvas.Screen,3_0_0_0_4_1_2,NA,NA,timeout,4995.77,200414.5999999,200409.044,200426.391,205405.17,205406.19999993,2023-07-03T08:02:01Z,205422.161,NA,NA,NA,NA,NA,NA,NA,NA,NA,NA,NA,NA,NA,NA,NA,NA,NA,NA,NA,NA,Vorwurf,mashtaka,s,msukumo,mtangulizi,uenyekiti,sdf,0,0,NA
59f2d,shallow,flow.Sequence,3_0_0_0_4_1,NA,NA,completion,10707.82,194683.0999999,194680.996,194697.35,205405.17,205406.69999993,2023-07-03T08:02:01Z,205422.161,NA,NA,NA,NA,NA,NA,NA,NA,NA,NA,NA,NA,NA,NA,NA,NA,NA,NA,NA,NA,Vorwurf,mashtaka,s,msukumo,mtangulizi,uenyekiti,sdf,NA,0,NA
59f2d,task,flow.Sequence,3_0_0_0_4,NA,NA,completion,10707.82,194682.79999995,194680.996,194697.35,205405.17,205406.89999998,2023-07-03T08:02:01Z,205422.161,NA,NA,NA,NA,NA,NA,NA,NA,NA,NA,NA,NA,NA,NA,NA,NA,NA,NA,NA,NA,Vorwurf,mashtaka,s,msukumo,mtangulizi,uenyekiti,sdf,NA,0,NA
59f2d,Deep Question,html.Page,3_0_0_0_5_0_0,elevo,NA,form submission,5768.4389999046,205407.0999999,205405.17,205422.161,211190.5999999,211190.69999993,2023-07-03T08:02:07Z,211200.226,NA,NA,NA,NA,NA,NA,NA,NA,NA,NA,NA,NA,NA,NA,NA,NA,NA,NA,NA,NA,Schüler,mwanafunzi,d,NA,NA,NA,NA,NA,0,NA
59f2d,"""Richtig""-Screen",canvas.Screen,3_0_0_0_5_0_1,NA,NA,skipped,NA,211192.5999999,NA,NA,211190.5999999,211192.69999993,2023-07-03T08:02:07Z,211200.226,NA,NA,NA,NA,NA,NA,NA,NA,NA,NA,NA,NA,NA,NA,NA,NA,NA,NA,NA,NA,Schüler,mwanafunzi,d,NA,NA,NA,sdf,NA,0,NA
59f2d,"""Falsch""-Screen",canvas.Screen,3_0_0_0_5_0_2,NA,NA,timeout,4995.934,211193.29999995,211184.008,211200.226,216179.99,216181.0999999,2023-07-03T08:02:12Z,216196.16,NA,NA,NA,NA,NA,NA,NA,NA,NA,NA,NA,NA,NA,NA,NA,NA,NA,NA,NA,NA,Schüler,mwanafunzi,d,NA,NA,NA,sdf,0,0,NA
59f2d,deep,flow.Sequence,3_0_0_0_5_0,NA,NA,completion,10757.829,205407.0999999,205405.17,205422.161,216179.99,216181.69999993,2023-07-03T08:02:12Z,216196.16,NA,NA,NA,NA,NA,NA,NA,NA,NA,NA,NA,NA,NA,NA,NA,NA,NA,NA,NA,NA,Schüler,mwanafunzi,d,NA,NA,NA,sdf,NA,0,NA
59f2d,shallow,flow.Sequence,3_0_0_0_5_1,NA,NA,skipped,NA,216181.89999998,NA,NA,216179.99,216182.19999993,2023-07-03T08:02:12Z,216196.16,NA,NA,NA,NA,NA,NA,NA,NA,NA,NA,NA,NA,NA,NA,NA,NA,NA,NA,NA,NA,Schüler,mwanafunzi,d,NA,NA,NA,sdf,NA,0,NA
59f2d,task,flow.Sequence,3_0_0_0_5,NA,NA,completion,10757.829,205407.0999999,205405.17,205422.161,216179.99,216182.39999998,2023-07-03T08:02:12Z,216196.16,NA,NA,NA,NA,NA,NA,NA,NA,NA,NA,NA,NA,NA,NA,NA,NA,NA,NA,NA,NA,Schüler,mwanafunzi,d,NA,NA,NA,sdf,NA,0,NA
59f2d,deep,flow.Sequence,3_0_0_0_6_0,NA,NA,skipped,NA,216182.69999993,NA,NA,216179.99,216182.79999995,2023-07-03T08:02:12Z,216196.16,NA,NA,NA,NA,NA,NA,NA,NA,NA,NA,NA,NA,NA,NA,NA,NA,NA,NA,NA,NA,Entwicklung,maendeleo,s,uangavu,mshindwa,badiliko,sdf,NA,0,NA
59f2d,Shallow Question,html.Page,3_0_0_0_6_1_0,uangavu,NA,form submission,5282.9399999046,216183,216179.99,216196.16,221479.0999999,221479.29999995,2023-07-03T08:02:17Z,221492.097,NA,NA,NA,NA,NA,NA,NA,NA,NA,NA,NA,NA,NA,NA,NA,NA,NA,NA,NA,NA,Entwicklung,maendeleo,s,uangavu,mshindwa,badiliko,NA,NA,0,NA
59f2d,"""Richtig""-Screen",canvas.Screen,3_0_0_0_6_1_1,NA,NA,skipped,NA,221481.29999995,NA,NA,221479.0999999,221481.39999998,2023-07-03T08:02:17Z,221492.097,NA,NA,NA,NA,NA,NA,NA,NA,NA,NA,NA,NA,NA,NA,NA,NA,NA,NA,NA,NA,Entwicklung,maendeleo,s,uangavu,mshindwa,badiliko,sdf,NA,0,NA
59f2d,"""Falsch""-Screen",canvas.Screen,3_0_0_0_6_1_2,NA,NA,timeout,4995.89,221482,221475.579,221492.097,226470.978,226471.39999998,2023-07-03T08:02:22Z,226487.987,NA,NA,NA,NA,NA,NA,NA,NA,NA,NA,NA,NA,NA,NA,NA,NA,NA,NA,NA,NA,Entwicklung,maendeleo,s,uangavu,mshindwa,badiliko,sdf,0,0,NA
59f2d,shallow,flow.Sequence,3_0_0_0_6_1,NA,NA,completion,10274.818,216182.89999998,216179.99,216196.16,226470.978,226471.69999993,2023-07-03T08:02:22Z,226487.987,NA,NA,NA,NA,NA,NA,NA,NA,NA,NA,NA,NA,NA,NA,NA,NA,NA,NA,NA,NA,Entwicklung,maendeleo,s,uangavu,mshindwa,badiliko,sdf,NA,0,NA
59f2d,task,flow.Sequence,3_0_0_0_6,NA,NA,completion,10274.818,216182.5999999,216179.99,216196.16,226470.978,226471.79999995,2023-07-03T08:02:22Z,226487.987,NA,NA,NA,NA,NA,NA,NA,NA,NA,NA,NA,NA,NA,NA,NA,NA,NA,NA,NA,NA,Entwicklung,maendeleo,s,uangavu,mshindwa,badiliko,sdf,NA,0,NA
59f2d,Deep Question,html.Page,3_0_0_0_7_0_0,ngo,NA,form submission,3811.3129999523,226471.89999998,226470.978,226487.987,230299.29999995,230299.5999999,2023-07-03T08:02:26Z,230301.102,NA,NA,NA,NA,NA,NA,NA,NA,NA,NA,NA,NA,NA,NA,NA,NA,NA,NA,NA,NA,Tester,wanaojaribu,d,NA,NA,NA,NA,NA,0,NA
59f2d,"""Richtig""-Screen",canvas.Screen,3_0_0_0_7_0_1,NA,NA,skipped,NA,230301.5999999,NA,NA,230299.29999995,230301.69999993,2023-07-03T08:02:26Z,230301.102,NA,NA,NA,NA,NA,NA,NA,NA,NA,NA,NA,NA,NA,NA,NA,NA,NA,NA,NA,NA,Tester,wanaojaribu,d,NA,NA,NA,sdf,NA,0,NA
59f2d,"""Falsch""-Screen",canvas.Screen,3_0_0_0_7_0_2,NA,NA,timeout,4996.684,230302.39999998,230284.763,230301.102,235280.769,235281.69999993,2023-07-03T08:02:31Z,235297.786,NA,NA,NA,NA,NA,NA,NA,NA,NA,NA,NA,NA,NA,NA,NA,NA,NA,NA,NA,NA,Tester,wanaojaribu,d,NA,NA,NA,sdf,0,0,NA
59f2d,deep,flow.Sequence,3_0_0_0_7_0,NA,NA,completion,8792.782,226471.89999998,226470.978,226487.987,235280.769,235282.0999999,2023-07-03T08:02:31Z,235297.786,NA,NA,NA,NA,NA,NA,NA,NA,NA,NA,NA,NA,NA,NA,NA,NA,NA,NA,NA,NA,Tester,wanaojaribu,d,NA,NA,NA,sdf,NA,0,NA
59f2d,shallow,flow.Sequence,3_0_0_0_7_1,NA,NA,skipped,NA,235282.29999995,NA,NA,235280.769,235282.5,2023-07-03T08:02:31Z,235297.786,NA,NA,NA,NA,NA,NA,NA,NA,NA,NA,NA,NA,NA,NA,NA,NA,NA,NA,NA,NA,Tester,wanaojaribu,d,NA,NA,NA,sdf,NA,0,NA
59f2d,task,flow.Sequence,3_0_0_0_7,NA,NA,completion,8792.782,226471.89999998,226470.978,226487.987,235280.769,235282.69999993,2023-07-03T08:02:31Z,235297.786,NA,NA,NA,NA,NA,NA,NA,NA,NA,NA,NA,NA,NA,NA,NA,NA,NA,NA,NA,NA,Tester,wanaojaribu,d,NA,NA,NA,sdf,NA,0,NA
59f2d,block,flow.Loop,3_0_0_0,NA,NA,completion,81433.12,153834.79999995,153830.426,153847.649,235280.769,235283.0999999,2023-07-03T08:02:31Z,235297.786,NA,NA,NA,NA,NA,NA,NA,NA,NA,NA,NA,NA,NA,NA,NA,NA,NA,NA,NA,NA,NA,NA,NA,NA,NA,NA,sdf,NA,0,NA
59f2d,weiter,canvas.Screen,3_0_0_1,sdf,keypress(Space),response,1179.0139999523,235283.29999995,235280.769,235297.786,236476.79999995,236477.89999998,2023-07-03T08:02:32Z,236512.676,NA,NA,NA,NA,NA,NA,NA,NA,NA,NA,NA,NA,NA,NA,NA,NA,NA,NA,NA,NA,NA,NA,NA,NA,NA,NA,sdf,NA,0,NA
59f2d,check continue,flow.Sequence,3_0_0,NA,NA,completion,82629.150999952,153834.79999995,153830.426,153847.649,236476.79999995,236478.39999998,2023-07-03T08:02:32Z,236512.676,NA,NA,NA,NA,NA,NA,NA,NA,NA,NA,NA,NA,NA,NA,NA,NA,NA,NA,NA,NA,NA,NA,NA,NA,NA,NA,sdf,NA,0,NA
59f2d,deep,flow.Sequence,3_0_1_0_0_0,NA,NA,skipped,NA,236507.89999998,NA,NA,236476.79999995,236508.0999999,2023-07-03T08:02:32Z,236512.676,NA,NA,NA,NA,NA,NA,NA,NA,NA,NA,NA,NA,NA,NA,NA,NA,NA,NA,NA,NA,Entwicklung,maendeleo,s,uangavu,mshindwa,badiliko,sdfdsf,NA,1,NA
59f2d,Shallow Question,html.Page,3_0_1_0_0_1_0,badiliko,NA,form submission,3758.1239999523,236508.0999999,236496.633,236512.676,240270.79999995,240271.0999999,2023-07-03T08:02:36Z,240276.25,NA,NA,NA,NA,NA,NA,NA,NA,NA,NA,NA,NA,NA,NA,NA,NA,NA,NA,NA,NA,Entwicklung,maendeleo,s,uangavu,mshindwa,badiliko,NA,NA,1,NA
59f2d,"""Richtig""-Screen",canvas.Screen,3_0_1_0_0_1_1,NA,NA,skipped,NA,240271.69999993,NA,NA,240270.79999995,240271.89999998,2023-07-03T08:02:36Z,240276.25,NA,NA,NA,NA,NA,NA,NA,NA,NA,NA,NA,NA,NA,NA,NA,NA,NA,NA,NA,NA,Entwicklung,maendeleo,s,uangavu,mshindwa,badiliko,sdfdsf,NA,1,NA
59f2d,"""Falsch""-Screen",canvas.Screen,3_0_1_0_0_1_2,NA,NA,timeout,4996.619,240272.39999998,240259.759,240276.25,245256.226,245256.89999998,2023-07-03T08:02:41Z,245272.869,NA,NA,NA,NA,NA,NA,NA,NA,NA,NA,NA,NA,NA,NA,NA,NA,NA,NA,NA,NA,Entwicklung,maendeleo,s,uangavu,mshindwa,badiliko,sdfdsf,0,1,NA
59f2d,shallow,flow.Sequence,3_0_1_0_0_1,NA,NA,completion,8743.55,236508.0999999,236496.633,236512.676,245256.226,245257.0999999,2023-07-03T08:02:41Z,245272.869,NA,NA,NA,NA,NA,NA,NA,NA,NA,NA,NA,NA,NA,NA,NA,NA,NA,NA,NA,NA,Entwicklung,maendeleo,s,uangavu,mshindwa,badiliko,sdfdsf,NA,1,NA
59f2d,task,flow.Sequence,3_0_1_0_0,NA,NA,completion,8743.55,236507.89999998,236496.633,236512.676,245256.226,245257.29999995,2023-07-03T08:02:41Z,245272.869,NA,NA,NA,NA,NA,NA,NA,NA,NA,NA,NA,NA,NA,NA,NA,NA,NA,NA,NA,NA,Entwicklung,maendeleo,s,uangavu,mshindwa,badiliko,sdfdsf,NA,1,NA
59f2d,Deep Question,html.Page,3_0_1_0_1_0_0,mw,NA,form submission,5498.2309999046,245257.39999998,245256.226,245272.869,250771.0999999,250771.29999995,2023-07-03T08:02:46Z,250784.292,NA,NA,NA,NA,NA,NA,NA,NA,NA,NA,NA,NA,NA,NA,NA,NA,NA,NA,NA,NA,Tester,wanaojaribu,d,NA,NA,NA,NA,NA,1,NA
59f2d,"""Richtig""-Screen",canvas.Screen,3_0_1_0_1_0_1,NA,NA,skipped,NA,250773.79999995,NA,NA,250771.0999999,250774,2023-07-03T08:02:46Z,250784.292,NA,NA,NA,NA,NA,NA,NA,NA,NA,NA,NA,NA,NA,NA,NA,NA,NA,NA,NA,NA,Tester,wanaojaribu,d,NA,NA,NA,sdfdsf,NA,1,NA
59f2d,"""Falsch""-Screen",canvas.Screen,3_0_1_0_1_0_2,NA,NA,timeout,4996.515,250774.79999995,250768.009,250784.292,255764.056,255764.89999998,2023-07-03T08:02:51Z,255780.807,NA,NA,NA,NA,NA,NA,NA,NA,NA,NA,NA,NA,NA,NA,NA,NA,NA,NA,NA,NA,Tester,wanaojaribu,d,NA,NA,NA,sdfdsf,0,1,NA
59f2d,deep,flow.Sequence,3_0_1_0_1_0,NA,NA,completion,10491.187,245257.39999998,245256.226,245272.869,255764.056,255765.39999998,2023-07-03T08:02:51Z,255780.807,NA,NA,NA,NA,NA,NA,NA,NA,NA,NA,NA,NA,NA,NA,NA,NA,NA,NA,NA,NA,Tester,wanaojaribu,d,NA,NA,NA,sdfdsf,NA,1,NA
59f2d,shallow,flow.Sequence,3_0_1_0_1_1,NA,NA,skipped,NA,255765.5999999,NA,NA,255764.056,255765.79999995,2023-07-03T08:02:51Z,255780.807,NA,NA,NA,NA,NA,NA,NA,NA,NA,NA,NA,NA,NA,NA,NA,NA,NA,NA,NA,NA,Tester,wanaojaribu,d,NA,NA,NA,sdfdsf,NA,1,NA
59f2d,task,flow.Sequence,3_0_1_0_1,NA,NA,completion,10491.187,245257.29999995,245256.226,245272.869,255764.056,255766.0999999,2023-07-03T08:02:51Z,255780.807,NA,NA,NA,NA,NA,NA,NA,NA,NA,NA,NA,NA,NA,NA,NA,NA,NA,NA,NA,NA,Tester,wanaojaribu,d,NA,NA,NA,sdfdsf,NA,1,NA
59f2d,Deep Question,html.Page,3_0_1_0_2_0_0,mw,NA,form submission,3115.9929999523,255766.39999998,255764.056,255780.807,258896.79999995,258896.89999998,2023-07-03T08:02:55Z,258911.149,NA,NA,NA,NA,NA,NA,NA,NA,NA,NA,NA,NA,NA,NA,NA,NA,NA,NA,NA,NA,Schüler,mwanafunzi,d,NA,NA,NA,NA,NA,1,NA
59f2d,"""Richtig""-Screen",canvas.Screen,3_0_1_0_2_0_1,NA,NA,skipped,NA,258898.89999998,NA,NA,258896.79999995,258899,2023-07-03T08:02:55Z,258911.149,NA,NA,NA,NA,NA,NA,NA,NA,NA,NA,NA,NA,NA,NA,NA,NA,NA,NA,NA,NA,Schüler,mwanafunzi,d,NA,NA,NA,sdfdsf,NA,1,NA
59f2d,"""Falsch""-Screen",canvas.Screen,3_0_1_0_2_0_2,NA,NA,timeout,4995.92,258899.5999999,258894.859,258911.149,263890.224,263891.29999995,2023-07-03T08:03:00Z,263907.069,NA,NA,NA,NA,NA,NA,NA,NA,NA,NA,NA,NA,NA,NA,NA,NA,NA,NA,NA,NA,Schüler,mwanafunzi,d,NA,NA,NA,sdfdsf,0,1,NA
59f2d,deep,flow.Sequence,3_0_1_0_2_0,NA,NA,completion,8109.417,255766.39999998,255764.056,255780.807,263890.224,263891.5999999,2023-07-03T08:03:00Z,263907.069,NA,NA,NA,NA,NA,NA,NA,NA,NA,NA,NA,NA,NA,NA,NA,NA,NA,NA,NA,NA,Schüler,mwanafunzi,d,NA,NA,NA,sdfdsf,NA,1,NA
59f2d,shallow,flow.Sequence,3_0_1_0_2_1,NA,NA,skipped,NA,263891.79999995,NA,NA,263890.224,263891.79999995,2023-07-03T08:03:00Z,263907.069,NA,NA,NA,NA,NA,NA,NA,NA,NA,NA,NA,NA,NA,NA,NA,NA,NA,NA,NA,NA,Schüler,mwanafunzi,d,NA,NA,NA,sdfdsf,NA,1,NA
59f2d,task,flow.Sequence,3_0_1_0_2,NA,NA,completion,8109.417,255766.29999995,255764.056,255780.807,263890.224,263892,2023-07-03T08:03:00Z,263907.069,NA,NA,NA,NA,NA,NA,NA,NA,NA,NA,NA,NA,NA,NA,NA,NA,NA,NA,NA,NA,Schüler,mwanafunzi,d,NA,NA,NA,sdfdsf,NA,1,NA
59f2d,Deep Question,html.Page,3_0_1_0_3_0_0,kele,NA,form submission,5842.0309999046,263892.0999999,263890.224,263907.069,269749.0999999,269749.29999995,2023-07-03T08:03:05Z,269752.018,NA,NA,NA,NA,NA,NA,NA,NA,NA,NA,NA,NA,NA,NA,NA,NA,NA,NA,NA,NA,Papier,karatasi,d,NA,NA,NA,NA,NA,1,NA
59f2d,"""Richtig""-Screen",canvas.Screen,3_0_1_0_3_0_1,NA,NA,skipped,NA,269752,NA,NA,269749.0999999,269752.29999995,2023-07-03T08:03:05Z,269752.018,NA,NA,NA,NA,NA,NA,NA,NA,NA,NA,NA,NA,NA,NA,NA,NA,NA,NA,NA,NA,Papier,karatasi,d,NA,NA,NA,sdfdsf,NA,1,NA
59f2d,"""Falsch""-Screen",canvas.Screen,3_0_1_0_3_0_2,NA,NA,timeout,4996.258,269752.89999998,269735.91,269752.018,274731.815,274732.69999993,2023-07-03T08:03:10Z,274748.276,NA,NA,NA,NA,NA,NA,NA,NA,NA,NA,NA,NA,NA,NA,NA,NA,NA,NA,NA,NA,Papier,karatasi,d,NA,NA,NA,sdfdsf,0,1,NA
59f2d,deep,flow.Sequence,3_0_1_0_3_0,NA,NA,completion,10824.746,263892.0999999,263890.224,263907.069,274731.815,274733.19999993,2023-07-03T08:03:10Z,274748.276,NA,NA,NA,NA,NA,NA,NA,NA,NA,NA,NA,NA,NA,NA,NA,NA,NA,NA,NA,NA,Papier,karatasi,d,NA,NA,NA,sdfdsf,NA,1,NA
59f2d,shallow,flow.Sequence,3_0_1_0_3_1,NA,NA,skipped,NA,274733.39999998,NA,NA,274731.815,274733.5999999,2023-07-03T08:03:10Z,274748.276,NA,NA,NA,NA,NA,NA,NA,NA,NA,NA,NA,NA,NA,NA,NA,NA,NA,NA,NA,NA,Papier,karatasi,d,NA,NA,NA,sdfdsf,NA,1,NA
59f2d,task,flow.Sequence,3_0_1_0_3,NA,NA,completion,10824.746,263892,263890.224,263907.069,274731.815,274733.89999998,2023-07-03T08:03:10Z,274748.276,NA,NA,NA,NA,NA,NA,NA,NA,NA,NA,NA,NA,NA,NA,NA,NA,NA,NA,NA,NA,Papier,karatasi,d,NA,NA,NA,sdfdsf,NA,1,NA
59f2d,deep,flow.Sequence,3_0_1_0_4_0,NA,NA,skipped,NA,274734.0999999,NA,NA,274731.815,274734.19999993,2023-07-03T08:03:10Z,274748.276,NA,NA,NA,NA,NA,NA,NA,NA,NA,NA,NA,NA,NA,NA,NA,NA,NA,NA,NA,NA,Vorwurf,mashtaka,s,msukumo,mtangulizi,uenyekiti,sdfdsf,NA,1,NA
59f2d,Shallow Question,html.Page,3_0_1_0_4_1_0,msukumo,NA,form submission,10964.224,274734.39999998,274731.815,274748.276,285712.5,285712.5999999,2023-07-03T08:03:21Z,285722.206,NA,NA,NA,NA,NA,NA,NA,NA,NA,NA,NA,NA,NA,NA,NA,NA,NA,NA,NA,NA,Vorwurf,mashtaka,s,msukumo,mtangulizi,uenyekiti,NA,NA,1,NA
59f2d,"""Richtig""-Screen",canvas.Screen,3_0_1_0_4_1_1,NA,NA,skipped,NA,285714.5,NA,NA,285712.5,285714.69999993,2023-07-03T08:03:21Z,285722.206,NA,NA,NA,NA,NA,NA,NA,NA,NA,NA,NA,NA,NA,NA,NA,NA,NA,NA,NA,NA,Vorwurf,mashtaka,s,msukumo,mtangulizi,uenyekiti,sdfdsf,NA,1,NA
59f2d,"""Falsch""-Screen",canvas.Screen,3_0_1_0_4_1_2,NA,NA,timeout,4996.225,285715.19999993,285705.964,285722.206,290701.536,290702.69999993,2023-07-03T08:03:26Z,290718.431,NA,NA,NA,NA,NA,NA,NA,NA,NA,NA,NA,NA,NA,NA,NA,NA,NA,NA,NA,NA,Vorwurf,mashtaka,s,msukumo,mtangulizi,uenyekiti,sdfdsf,0,1,NA
59f2d,shallow,flow.Sequence,3_0_1_0_4_1,NA,NA,completion,15953.26,274734.29999995,274731.815,274748.276,290701.536,290703.5,2023-07-03T08:03:26Z,290718.431,NA,NA,NA,NA,NA,NA,NA,NA,NA,NA,NA,NA,NA,NA,NA,NA,NA,NA,NA,NA,Vorwurf,mashtaka,s,msukumo,mtangulizi,uenyekiti,sdfdsf,NA,1,NA
59f2d,task,flow.Sequence,3_0_1_0_4,NA,NA,completion,15953.26,274734,274731.815,274748.276,290701.536,290704,2023-07-03T08:03:26Z,290718.431,NA,NA,NA,NA,NA,NA,NA,NA,NA,NA,NA,NA,NA,NA,NA,NA,NA,NA,NA,NA,Vorwurf,mashtaka,s,msukumo,mtangulizi,uenyekiti,sdfdsf,NA,1,NA
59f2d,Deep Question,html.Page,3_0_1_0_5_0_0,un,NA,form submission,4025.569,290704.5,290701.536,290718.431,294744,294744.0999999,2023-07-03T08:03:30Z,294748.132,NA,NA,NA,NA,NA,NA,NA,NA,NA,NA,NA,NA,NA,NA,NA,NA,NA,NA,NA,NA,Niveau,kiwango,d,NA,NA,NA,NA,NA,1,NA
59f2d,"""Richtig""-Screen",canvas.Screen,3_0_1_0_5_0_1,NA,NA,skipped,NA,294746.39999998,NA,NA,294744,294746.5,2023-07-03T08:03:30Z,294748.132,NA,NA,NA,NA,NA,NA,NA,NA,NA,NA,NA,NA,NA,NA,NA,NA,NA,NA,NA,NA,Niveau,kiwango,d,NA,NA,NA,sdfdsf,NA,1,NA
59f2d,"""Falsch""-Screen",canvas.Screen,3_0_1_0_5_0_2,NA,NA,timeout,4996.483,294747.39999998,294732.072,294748.132,299727.603,299728.5999999,2023-07-03T08:03:35Z,299744.615,NA,NA,NA,NA,NA,NA,NA,NA,NA,NA,NA,NA,NA,NA,NA,NA,NA,NA,NA,NA,Niveau,kiwango,d,NA,NA,NA,sdfdsf,0,1,NA
59f2d,deep,flow.Sequence,3_0_1_0_5_0,NA,NA,completion,9009.172,290704.39999998,290701.536,290718.431,299727.603,299729,2023-07-03T08:03:35Z,299744.615,NA,NA,NA,NA,NA,NA,NA,NA,NA,NA,NA,NA,NA,NA,NA,NA,NA,NA,NA,NA,Niveau,kiwango,d,NA,NA,NA,sdfdsf,NA,1,NA
59f2d,shallow,flow.Sequence,3_0_1_0_5_1,NA,NA,skipped,NA,299729.19999993,NA,NA,299727.603,299729.39999998,2023-07-03T08:03:35Z,299744.615,NA,NA,NA,NA,NA,NA,NA,NA,NA,NA,NA,NA,NA,NA,NA,NA,NA,NA,NA,NA,Niveau,kiwango,d,NA,NA,NA,sdfdsf,NA,1,NA
59f2d,task,flow.Sequence,3_0_1_0_5,NA,NA,completion,9009.172,290704.29999995,290701.536,290718.431,299727.603,299729.5999999,2023-07-03T08:03:35Z,299744.615,NA,NA,NA,NA,NA,NA,NA,NA,NA,NA,NA,NA,NA,NA,NA,NA,NA,NA,NA,NA,Niveau,kiwango,d,NA,NA,NA,sdfdsf,NA,1,NA
59f2d,deep,flow.Sequence,3_0_1_0_6_0,NA,NA,skipped,NA,299729.89999998,NA,NA,299727.603,299730.0999999,2023-07-03T08:03:35Z,299744.615,NA,NA,NA,NA,NA,NA,NA,NA,NA,NA,NA,NA,NA,NA,NA,NA,NA,NA,NA,NA,Fenster,dirisha,s,walakini,tasawari,maarifa,sdfdsf,NA,1,NA
59f2d,Shallow Question,html.Page,3_0_1_0_6_1_0,walakini,NA,form submission,6341.9849999046,299730.19999993,299727.603,299744.615,306086.5999999,306086.89999998,2023-07-03T08:03:42Z,306088.839,NA,NA,NA,NA,NA,NA,NA,NA,NA,NA,NA,NA,NA,NA,NA,NA,NA,NA,NA,NA,Fenster,dirisha,s,walakini,tasawari,maarifa,NA,NA,1,NA
59f2d,"""Richtig""-Screen",canvas.Screen,3_0_1_0_6_1_1,NA,NA,skipped,NA,306089.0999999,NA,NA,306086.5999999,306089.19999993,2023-07-03T08:03:42Z,306088.839,NA,NA,NA,NA,NA,NA,NA,NA,NA,NA,NA,NA,NA,NA,NA,NA,NA,NA,NA,NA,Fenster,dirisha,s,walakini,tasawari,maarifa,sdfdsf,NA,1,NA
59f2d,"""Falsch""-Screen",canvas.Screen,3_0_1_0_6_1_2,NA,NA,timeout,4996.458,306089.79999995,306072.705,306088.839,311068.44,311069.39999998,2023-07-03T08:03:47Z,311085.297,NA,NA,NA,NA,NA,NA,NA,NA,NA,NA,NA,NA,NA,NA,NA,NA,NA,NA,NA,NA,Fenster,dirisha,s,walakini,tasawari,maarifa,sdfdsf,0,1,NA
59f2d,shallow,flow.Sequence,3_0_1_0_6_1,NA,NA,completion,11323.825,299730.19999993,299727.603,299744.615,311068.44,311069.79999995,2023-07-03T08:03:47Z,311085.297,NA,NA,NA,NA,NA,NA,NA,NA,NA,NA,NA,NA,NA,NA,NA,NA,NA,NA,NA,NA,Fenster,dirisha,s,walakini,tasawari,maarifa,sdfdsf,NA,1,NA
59f2d,task,flow.Sequence,3_0_1_0_6,NA,NA,completion,11323.825,299729.79999995,299727.603,299744.615,311068.44,311070,2023-07-03T08:03:47Z,311085.297,NA,NA,NA,NA,NA,NA,NA,NA,NA,NA,NA,NA,NA,NA,NA,NA,NA,NA,NA,NA,Fenster,dirisha,s,walakini,tasawari,maarifa,sdfdsf,NA,1,NA
59f2d,deep,flow.Sequence,3_0_1_0_7_0,NA,NA,skipped,NA,311070.39999998,NA,NA,311068.44,311070.39999998,2023-07-03T08:03:47Z,311085.297,NA,NA,NA,NA,NA,NA,NA,NA,NA,NA,NA,NA,NA,NA,NA,NA,NA,NA,NA,NA,Spionage,upelelezi,s,maslahi,utokazo,magangao,sdfdsf,NA,1,NA
59f2d,Shallow Question,html.Page,3_0_1_0_7_1_0,upelelezi,NA,form submission,5273.9029999285,311070.5999999,311068.44,311085.297,316359.19999993,316359.39999998,2023-07-03T08:03:52Z,316363.731,NA,NA,NA,NA,NA,NA,NA,NA,NA,NA,NA,NA,NA,NA,NA,NA,NA,NA,NA,NA,Spionage,upelelezi,s,maslahi,utokazo,magangao,NA,NA,1,NA
59f2d,"""Richtig""-Screen",canvas.Screen,3_0_1_0_7_1_1,NA,NA,timeout,4996.001,316361.19999993,316347.302,316363.731,321343.396,321344.39999998,2023-07-03T08:03:57Z,321359.732,NA,NA,NA,NA,NA,NA,NA,NA,NA,NA,NA,NA,NA,NA,NA,NA,NA,NA,NA,NA,Spionage,upelelezi,s,maslahi,utokazo,magangao,sdfdsf,1,1,NA
59f2d,"""Falsch""-Screen",canvas.Screen,3_0_1_0_7_1_2,NA,NA,skipped,NA,321349.69999993,NA,NA,321343.396,321350.0999999,2023-07-03T08:03:57Z,321359.732,NA,NA,NA,NA,NA,NA,NA,NA,NA,NA,NA,NA,NA,NA,NA,NA,NA,NA,NA,NA,Spionage,upelelezi,s,maslahi,utokazo,magangao,sdfdsf,NA,1,NA
59f2d,shallow,flow.Sequence,3_0_1_0_7_1,NA,NA,completion,10258.099,311070.5999999,311068.44,311085.297,321343.396,321350.39999998,2023-07-03T08:03:57Z,321359.732,NA,NA,NA,NA,NA,NA,NA,NA,NA,NA,NA,NA,NA,NA,NA,NA,NA,NA,NA,NA,Spionage,upelelezi,s,maslahi,utokazo,magangao,sdfdsf,NA,1,NA
59f2d,task,flow.Sequence,3_0_1_0_7,NA,NA,completion,10258.099,311070.19999993,311068.44,311085.297,321343.396,321350.69999993,2023-07-03T08:03:57Z,321359.732,NA,NA,NA,NA,NA,NA,NA,NA,NA,NA,NA,NA,NA,NA,NA,NA,NA,NA,NA,NA,Spionage,upelelezi,s,maslahi,utokazo,magangao,sdfdsf,NA,1,NA
59f2d,block,flow.Loop,3_0_1_0,NA,NA,completion,84830.72,236507.89999998,236496.633,236512.676,321343.396,321351,2023-07-03T08:03:57Z,321359.732,NA,NA,NA,NA,NA,NA,NA,NA,NA,NA,NA,NA,NA,NA,NA,NA,NA,NA,NA,NA,NA,NA,NA,NA,NA,NA,sdfdsf,NA,1,NA
59f2d,weiter,canvas.Screen,3_0_1_1,sdf,keypress(Space),response,1774.0679999523,321351.0999999,321343.396,321359.732,323133.79999995,323134.89999998,2023-07-03T08:03:59Z,323191.757,NA,NA,NA,NA,NA,NA,NA,NA,NA,NA,NA,NA,NA,NA,NA,NA,NA,NA,NA,NA,NA,NA,NA,NA,NA,NA,sdfdsf,NA,1,NA
59f2d,check continue,flow.Sequence,3_0_1,NA,NA,completion,86621.123999952,236507.89999998,236496.633,236512.676,323133.79999995,323135.19999993,2023-07-03T08:03:59Z,323191.757,NA,NA,NA,NA,NA,NA,NA,NA,NA,NA,NA,NA,NA,NA,NA,NA,NA,NA,NA,NA,NA,NA,NA,NA,NA,NA,sdfdsf,NA,1,NA
59f2d,Deep Question,html.Page,3_0_2_0_0_0_0,kal,NA,form submission,6357.0429999523,323176.29999995,323175.263,323191.757,329548.79999995,329549,2023-07-03T08:04:05Z,329552.877,NA,NA,NA,NA,NA,NA,NA,NA,NA,NA,NA,NA,NA,NA,NA,NA,NA,NA,NA,NA,Tester,wanaojaribu,d,NA,NA,NA,NA,NA,2,NA
59f2d,"""Richtig""-Screen",canvas.Screen,3_0_2_0_0_0_1,NA,NA,skipped,NA,329551.39999998,NA,NA,329548.79999995,329551.5999999,2023-07-03T08:04:05Z,329552.877,NA,NA,NA,NA,NA,NA,NA,NA,NA,NA,NA,NA,NA,NA,NA,NA,NA,NA,NA,NA,Tester,wanaojaribu,d,NA,NA,NA,sdf,NA,2,NA
59f2d,"""Falsch""-Screen",canvas.Screen,3_0_2_0_0_0_2,NA,NA,timeout,4996.38,329552.39999998,329536.548,329552.877,334532.409,334533.39999998,2023-07-03T08:04:10Z,334549.257,NA,NA,NA,NA,NA,NA,NA,NA,NA,NA,NA,NA,NA,NA,NA,NA,NA,NA,NA,NA,Tester,wanaojaribu,d,NA,NA,NA,sdf,0,2,NA
59f2d,deep,flow.Sequence,3_0_2_0_0_0,NA,NA,completion,11340.652,323176.29999995,323175.263,323191.757,334532.409,334533.89999998,2023-07-03T08:04:10Z,334549.257,NA,NA,NA,NA,NA,NA,NA,NA,NA,NA,NA,NA,NA,NA,NA,NA,NA,NA,NA,NA,Tester,wanaojaribu,d,NA,NA,NA,sdf,NA,2,NA
59f2d,shallow,flow.Sequence,3_0_2_0_0_1,NA,NA,skipped,NA,334534.0999999,NA,NA,334532.409,334534.29999995,2023-07-03T08:04:10Z,334549.257,NA,NA,NA,NA,NA,NA,NA,NA,NA,NA,NA,NA,NA,NA,NA,NA,NA,NA,NA,NA,Tester,wanaojaribu,d,NA,NA,NA,sdf,NA,2,NA
59f2d,task,flow.Sequence,3_0_2_0_0,NA,NA,completion,11340.652,323176.29999995,323175.263,323191.757,334532.409,334534.5,2023-07-03T08:04:10Z,334549.257,NA,NA,NA,NA,NA,NA,NA,NA,NA,NA,NA,NA,NA,NA,NA,NA,NA,NA,NA,NA,Tester,wanaojaribu,d,NA,NA,NA,sdf,NA,2,NA
59f2d,Deep Question,html.Page,3_0_2_0_1_0_0,wakati,NA,form submission,8157.1429999762,334534.79999995,334532.409,334549.257,342706.39999998,342706.5999999,2023-07-03T08:04:18Z,342708.727,NA,NA,NA,NA,NA,NA,NA,NA,NA,NA,NA,NA,NA,NA,NA,NA,NA,NA,NA,NA,Papier,karatasi,d,NA,NA,NA,NA,NA,2,NA
59f2d,"""Richtig""-Screen",canvas.Screen,3_0_2_0_1_0_1,NA,NA,skipped,NA,342709.19999993,NA,NA,342706.39999998,342709.29999995,2023-07-03T08:04:18Z,342708.727,NA,NA,NA,NA,NA,NA,NA,NA,NA,NA,NA,NA,NA,NA,NA,NA,NA,NA,NA,NA,Papier,karatasi,d,NA,NA,NA,sdf,NA,2,NA
59f2d,"""Falsch""-Screen",canvas.Screen,3_0_2_0_1_0_2,NA,NA,timeout,4996.435,342710.19999993,342692.64,342708.727,347688.285,347690,2023-07-03T08:04:23Z,347705.162,NA,NA,NA,NA,NA,NA,NA,NA,NA,NA,NA,NA,NA,NA,NA,NA,NA,NA,NA,NA,Papier,karatasi,d,NA,NA,NA,sdf,0,2,NA
59f2d,deep,flow.Sequence,3_0_2_0_1_0,NA,NA,completion,13139.028,334534.69999993,334532.409,334549.257,347688.285,347690.29999995,2023-07-03T08:04:23Z,347705.162,NA,NA,NA,NA,NA,NA,NA,NA,NA,NA,NA,NA,NA,NA,NA,NA,NA,NA,NA,NA,Papier,karatasi,d,NA,NA,NA,sdf,NA,2,NA
59f2d,shallow,flow.Sequence,3_0_2_0_1_1,NA,NA,skipped,NA,347690.39999998,NA,NA,347688.285,347690.5999999,2023-07-03T08:04:23Z,347705.162,NA,NA,NA,NA,NA,NA,NA,NA,NA,NA,NA,NA,NA,NA,NA,NA,NA,NA,NA,NA,Papier,karatasi,d,NA,NA,NA,sdf,NA,2,NA
59f2d,task,flow.Sequence,3_0_2_0_1,NA,NA,completion,13139.028,334534.5999999,334532.409,334549.257,347688.285,347690.79999995,2023-07-03T08:04:23Z,347705.162,NA,NA,NA,NA,NA,NA,NA,NA,NA,NA,NA,NA,NA,NA,NA,NA,NA,NA,NA,NA,Papier,karatasi,d,NA,NA,NA,sdf,NA,2,NA
59f2d,deep,flow.Sequence,3_0_2_0_2_0,NA,NA,skipped,NA,347690.89999998,NA,NA,347688.285,347691,2023-07-03T08:04:23Z,347705.162,NA,NA,NA,NA,NA,NA,NA,NA,NA,NA,NA,NA,NA,NA,NA,NA,NA,NA,NA,NA,Spionage,upelelezi,s,maslahi,utokazo,magangao,sdf,NA,2,NA
59f2d,Shallow Question,html.Page,3_0_2_0_2_1_0,maslahi,NA,form submission,6386.6379999523,347691.0999999,347688.285,347705.162,354091.79999995,354092,2023-07-03T08:04:30Z,354099.54,NA,NA,NA,NA,NA,NA,NA,NA,NA,NA,NA,NA,NA,NA,NA,NA,NA,NA,NA,NA,Spionage,upelelezi,s,maslahi,utokazo,magangao,NA,NA,2,NA
59f2d,"""Richtig""-Screen",canvas.Screen,3_0_2_0_2_1_1,NA,NA,skipped,NA,354093.89999998,NA,NA,354091.79999995,354094.0999999,2023-07-03T08:04:30Z,354099.54,NA,NA,NA,NA,NA,NA,NA,NA,NA,NA,NA,NA,NA,NA,NA,NA,NA,NA,NA,NA,Spionage,upelelezi,s,maslahi,utokazo,magangao,sdf,NA,2,NA
59f2d,"""Falsch""-Screen",canvas.Screen,3_0_2_0_2_1_2,NA,NA,timeout,4996.466,354094.5999999,354082.981,354099.54,359078.698,359079.69999993,2023-07-03T08:04:35Z,359096.006,NA,NA,NA,NA,NA,NA,NA,NA,NA,NA,NA,NA,NA,NA,NA,NA,NA,NA,NA,NA,Spionage,upelelezi,s,maslahi,utokazo,magangao,sdf,0,2,NA
59f2d,shallow,flow.Sequence,3_0_2_0_2_1,NA,NA,completion,11373.536,347691,347688.285,347705.162,359078.698,359080.0999999,2023-07-03T08:04:35Z,359096.006,NA,NA,NA,NA,NA,NA,NA,NA,NA,NA,NA,NA,NA,NA,NA,NA,NA,NA,NA,NA,Spionage,upelelezi,s,maslahi,utokazo,magangao,sdf,NA,2,NA
59f2d,task,flow.Sequence,3_0_2_0_2,NA,NA,completion,11373.536,347690.89999998,347688.285,347705.162,359078.698,359080.29999995,2023-07-03T08:04:35Z,359096.006,NA,NA,NA,NA,NA,NA,NA,NA,NA,NA,NA,NA,NA,NA,NA,NA,NA,NA,NA,NA,Spionage,upelelezi,s,maslahi,utokazo,magangao,sdf,NA,2,NA
59f2d,Deep Question,html.Page,3_0_2_0_3_0_0,mwan,NA,form submission,5622.494,359080.5999999,359078.698,359096.006,364718.5,364718.69999993,2023-07-03T08:04:40Z,364723.969,NA,NA,NA,NA,NA,NA,NA,NA,NA,NA,NA,NA,NA,NA,NA,NA,NA,NA,NA,NA,Schüler,mwanafunzi,d,NA,NA,NA,NA,NA,2,NA
59f2d,"""Richtig""-Screen",canvas.Screen,3_0_2_0_3_0_1,NA,NA,skipped,NA,364721.0999999,NA,NA,364718.5,364721.29999995,2023-07-03T08:04:40Z,364723.969,NA,NA,NA,NA,NA,NA,NA,NA,NA,NA,NA,NA,NA,NA,NA,NA,NA,NA,NA,NA,Schüler,mwanafunzi,d,NA,NA,NA,sdf,NA,2,NA
59f2d,"""Falsch""-Screen",canvas.Screen,3_0_2_0_3_0_2,NA,NA,timeout,4996.634,364722.89999998,364707.348,364723.969,369703.405,369704.29999995,2023-07-03T08:04:45Z,369720.603,NA,NA,NA,NA,NA,NA,NA,NA,NA,NA,NA,NA,NA,NA,NA,NA,NA,NA,NA,NA,Schüler,mwanafunzi,d,NA,NA,NA,sdf,0,2,NA
59f2d,deep,flow.Sequence,3_0_2_0_3_0,NA,NA,completion,10607.399,359080.5,359078.698,359096.006,369703.405,369704.79999995,2023-07-03T08:04:45Z,369720.603,NA,NA,NA,NA,NA,NA,NA,NA,NA,NA,NA,NA,NA,NA,NA,NA,NA,NA,NA,NA,Schüler,mwanafunzi,d,NA,NA,NA,sdf,NA,2,NA
59f2d,shallow,flow.Sequence,3_0_2_0_3_1,NA,NA,skipped,NA,369705,NA,NA,369703.405,369705.19999993,2023-07-03T08:04:45Z,369720.603,NA,NA,NA,NA,NA,NA,NA,NA,NA,NA,NA,NA,NA,NA,NA,NA,NA,NA,NA,NA,Schüler,mwanafunzi,d,NA,NA,NA,sdf,NA,2,NA
59f2d,task,flow.Sequence,3_0_2_0_3,NA,NA,completion,10607.399,359080.5,359078.698,359096.006,369703.405,369705.39999998,2023-07-03T08:04:45Z,369720.603,NA,NA,NA,NA,NA,NA,NA,NA,NA,NA,NA,NA,NA,NA,NA,NA,NA,NA,NA,NA,Schüler,mwanafunzi,d,NA,NA,NA,sdf,NA,2,NA
59f2d,deep,flow.Sequence,3_0_2_0_4_0,NA,NA,skipped,NA,369705.69999993,NA,NA,369703.405,369705.79999995,2023-07-03T08:04:45Z,369720.603,NA,NA,NA,NA,NA,NA,NA,NA,NA,NA,NA,NA,NA,NA,NA,NA,NA,NA,NA,NA,Entwicklung,maendeleo,s,uangavu,mshindwa,badiliko,sdf,NA,2,NA
59f2d,Shallow Question,html.Page,3_0_2_0_4_1_0,mshindwa,NA,form submission,7128.2969999762,369706,369703.405,369720.603,376848.89999998,376849,2023-07-03T08:04:52Z,376864.674,NA,NA,NA,NA,NA,NA,NA,NA,NA,NA,NA,NA,NA,NA,NA,NA,NA,NA,NA,NA,Entwicklung,maendeleo,s,uangavu,mshindwa,badiliko,NA,NA,2,NA
59f2d,"""Richtig""-Screen",canvas.Screen,3_0_2_0_4_1_1,NA,NA,skipped,NA,376850.5999999,NA,NA,376848.89999998,376850.69999993,2023-07-03T08:04:52Z,376864.674,NA,NA,NA,NA,NA,NA,NA,NA,NA,NA,NA,NA,NA,NA,NA,NA,NA,NA,NA,NA,Entwicklung,maendeleo,s,uangavu,mshindwa,badiliko,sdf,NA,2,NA
59f2d,"""Falsch""-Screen",canvas.Screen,3_0_2_0_4_1_2,NA,NA,timeout,4995.925,376851.19999993,376847.95,376864.674,381843.758,381844.5999999,2023-07-03T08:04:57Z,381860.599,NA,NA,NA,NA,NA,NA,NA,NA,NA,NA,NA,NA,NA,NA,NA,NA,NA,NA,NA,NA,Entwicklung,maendeleo,s,uangavu,mshindwa,badiliko,sdf,0,2,NA
59f2d,shallow,flow.Sequence,3_0_2_0_4_1,NA,NA,completion,12123.155,369705.89999998,369703.405,369720.603,381843.758,381845,2023-07-03T08:04:57Z,381860.599,NA,NA,NA,NA,NA,NA,NA,NA,NA,NA,NA,NA,NA,NA,NA,NA,NA,NA,NA,NA,Entwicklung,maendeleo,s,uangavu,mshindwa,badiliko,sdf,NA,2,NA
59f2d,task,flow.Sequence,3_0_2_0_4,NA,NA,completion,12123.155,369705.5999999,369703.405,369720.603,381843.758,381845.29999995,2023-07-03T08:04:57Z,381860.599,NA,NA,NA,NA,NA,NA,NA,NA,NA,NA,NA,NA,NA,NA,NA,NA,NA,NA,NA,NA,Entwicklung,maendeleo,s,uangavu,mshindwa,badiliko,sdf,NA,2,NA
59f2d,deep,flow.Sequence,3_0_2_0_5_0,NA,NA,skipped,NA,381845.5,NA,NA,381843.758,381845.69999993,2023-07-03T08:04:57Z,381860.599,NA,NA,NA,NA,NA,NA,NA,NA,NA,NA,NA,NA,NA,NA,NA,NA,NA,NA,NA,NA,Vorwurf,mashtaka,s,msukumo,mtangulizi,uenyekiti,sdf,NA,2,NA
59f2d,Shallow Question,html.Page,3_0_2_0_5_1_0,mtangulizi,NA,form submission,6298.7009999523,381845.79999995,381843.758,381860.599,388159.29999995,388159.5,2023-07-03T08:05:04Z,388171.366,NA,NA,NA,NA,NA,NA,NA,NA,NA,NA,NA,NA,NA,NA,NA,NA,NA,NA,NA,NA,Vorwurf,mashtaka,s,msukumo,mtangulizi,uenyekiti,NA,NA,2,NA
59f2d,"""Richtig""-Screen",canvas.Screen,3_0_2_0_5_1_1,NA,NA,skipped,NA,388162.29999995,NA,NA,388159.29999995,388162.39999998,2023-07-03T08:05:04Z,388171.366,NA,NA,NA,NA,NA,NA,NA,NA,NA,NA,NA,NA,NA,NA,NA,NA,NA,NA,NA,NA,Vorwurf,mashtaka,s,msukumo,mtangulizi,uenyekiti,sdf,NA,2,NA
59f2d,"""Falsch""-Screen",canvas.Screen,3_0_2_0_5_1_2,NA,NA,timeout,4995.916,388163.0999999,388154.723,388171.366,393150.68,393153.5999999,2023-07-03T08:05:09Z,393167.282,NA,NA,NA,NA,NA,NA,NA,NA,NA,NA,NA,NA,NA,NA,NA,NA,NA,NA,NA,NA,Vorwurf,mashtaka,s,msukumo,mtangulizi,uenyekiti,sdf,0,2,NA
59f2d,shallow,flow.Sequence,3_0_2_0_5_1,NA,NA,completion,11290.081,381845.79999995,381843.758,381860.599,393150.68,393154,2023-07-03T08:05:09Z,393167.282,NA,NA,NA,NA,NA,NA,NA,NA,NA,NA,NA,NA,NA,NA,NA,NA,NA,NA,NA,NA,Vorwurf,mashtaka,s,msukumo,mtangulizi,uenyekiti,sdf,NA,2,NA
59f2d,task,flow.Sequence,3_0_2_0_5,NA,NA,completion,11290.081,381845.39999998,381843.758,381860.599,393150.68,393154.0999999,2023-07-03T08:05:09Z,393167.282,NA,NA,NA,NA,NA,NA,NA,NA,NA,NA,NA,NA,NA,NA,NA,NA,NA,NA,NA,NA,Vorwurf,mashtaka,s,msukumo,mtangulizi,uenyekiti,sdf,NA,2,NA
59f2d,deep,flow.Sequence,3_0_2_0_6_0,NA,NA,skipped,NA,393154.39999998,NA,NA,393150.68,393154.5999999,2023-07-03T08:05:09Z,393167.282,NA,NA,NA,NA,NA,NA,NA,NA,NA,NA,NA,NA,NA,NA,NA,NA,NA,NA,NA,NA,Fenster,dirisha,s,walakini,tasawari,maarifa,sdf,NA,2,NA
59f2d,Shallow Question,html.Page,3_0_2_0_6_1_0,dirisha,NA,form submission,9939.1179999762,393154.79999995,393150.68,393167.282,403106.39999998,403106.5,2023-07-03T08:05:19Z,403109.077,NA,NA,NA,NA,NA,NA,NA,NA,NA,NA,NA,NA,NA,NA,NA,NA,NA,NA,NA,NA,Fenster,dirisha,s,walakini,tasawari,maarifa,NA,NA,2,NA
59f2d,"""Richtig""-Screen",canvas.Screen,3_0_2_0_6_1_1,NA,NA,timeout,4996.458,403108.29999995,403092.852,403109.077,408088.672,408090.39999998,2023-07-03T08:05:24Z,408105.535,NA,NA,NA,NA,NA,NA,NA,NA,NA,NA,NA,NA,NA,NA,NA,NA,NA,NA,NA,NA,Fenster,dirisha,s,walakini,tasawari,maarifa,sdf,1,2,NA
59f2d,"""Falsch""-Screen",canvas.Screen,3_0_2_0_6_1_2,NA,NA,skipped,NA,408093.69999993,NA,NA,408088.672,408093.89999998,2023-07-03T08:05:24Z,408105.535,NA,NA,NA,NA,NA,NA,NA,NA,NA,NA,NA,NA,NA,NA,NA,NA,NA,NA,NA,NA,Fenster,dirisha,s,walakini,tasawari,maarifa,sdf,NA,2,NA
59f2d,shallow,flow.Sequence,3_0_2_0_6_1,NA,NA,completion,14921.39,393154.69999993,393150.68,393167.282,408088.672,408094.0999999,2023-07-03T08:05:24Z,408105.535,NA,NA,NA,NA,NA,NA,NA,NA,NA,NA,NA,NA,NA,NA,NA,NA,NA,NA,NA,NA,Fenster,dirisha,s,walakini,tasawari,maarifa,sdf,NA,2,NA
59f2d,task,flow.Sequence,3_0_2_0_6,NA,NA,completion,14921.39,393154.29999995,393150.68,393167.282,408088.672,408094.19999993,2023-07-03T08:05:24Z,408105.535,NA,NA,NA,NA,NA,NA,NA,NA,NA,NA,NA,NA,NA,NA,NA,NA,NA,NA,NA,NA,Fenster,dirisha,s,walakini,tasawari,maarifa,sdf,NA,2,NA
59f2d,Deep Question,html.Page,3_0_2_0_7_0_0,maen,NA,form submission,4533.8649999762,408094.39999998,408088.672,408105.535,412639.39999998,412639.5999999,2023-07-03T08:05:28Z,412651.217,NA,NA,NA,NA,NA,NA,NA,NA,NA,NA,NA,NA,NA,NA,NA,NA,NA,NA,NA,NA,Niveau,kiwango,d,NA,NA,NA,NA,NA,2,NA
59f2d,"""Richtig""-Screen",canvas.Screen,3_0_2_0_7_0_1,NA,NA,skipped,NA,412642.0999999,NA,NA,412639.39999998,412642.29999995,2023-07-03T08:05:28Z,412651.217,NA,NA,NA,NA,NA,NA,NA,NA,NA,NA,NA,NA,NA,NA,NA,NA,NA,NA,NA,NA,Niveau,kiwango,d,NA,NA,NA,sdf,NA,2,NA
59f2d,"""Falsch""-Screen",canvas.Screen,3_0_2_0_7_0_2,NA,NA,timeout,4995.978,412643.19999993,412635.152,412651.217,417630.844,417631.79999995,2023-07-03T08:05:33Z,417647.195,NA,NA,NA,NA,NA,NA,NA,NA,NA,NA,NA,NA,NA,NA,NA,NA,NA,NA,NA,NA,Niveau,kiwango,d,NA,NA,NA,sdf,0,2,NA
59f2d,deep,flow.Sequence,3_0_2_0_7_0,NA,NA,completion,9525.309,408094.39999998,408088.672,408105.535,417630.844,417632.19999993,2023-07-03T08:05:33Z,417647.195,NA,NA,NA,NA,NA,NA,NA,NA,NA,NA,NA,NA,NA,NA,NA,NA,NA,NA,NA,NA,Niveau,kiwango,d,NA,NA,NA,sdf,NA,2,NA
59f2d,shallow,flow.Sequence,3_0_2_0_7_1,NA,NA,skipped,NA,417632.29999995,NA,NA,417630.844,417632.5,2023-07-03T08:05:33Z,417647.195,NA,NA,NA,NA,NA,NA,NA,NA,NA,NA,NA,NA,NA,NA,NA,NA,NA,NA,NA,NA,Niveau,kiwango,d,NA,NA,NA,sdf,NA,2,NA
59f2d,task,flow.Sequence,3_0_2_0_7,NA,NA,completion,9525.309,408094.29999995,408088.672,408105.535,417630.844,417632.79999995,2023-07-03T08:05:33Z,417647.195,NA,NA,NA,NA,NA,NA,NA,NA,NA,NA,NA,NA,NA,NA,NA,NA,NA,NA,NA,NA,Niveau,kiwango,d,NA,NA,NA,sdf,NA,2,NA
59f2d,block,flow.Loop,3_0_2_0,NA,NA,completion,94439.087,323176.29999995,323175.263,323191.757,417630.844,417633.0999999,2023-07-03T08:05:33Z,417647.195,NA,NA,NA,NA,NA,NA,NA,NA,NA,NA,NA,NA,NA,NA,NA,NA,NA,NA,NA,NA,NA,NA,NA,NA,NA,NA,sdf,NA,2,NA
59f2d,weiter,canvas.Screen,3_0_2_1,sdf,keypress(Space),response,959.10499995231,417633.0999999,417630.844,417647.195,418606.29999995,418607.5,2023-07-03T08:05:34Z,418663.131,NA,NA,NA,NA,NA,NA,NA,NA,NA,NA,NA,NA,NA,NA,NA,NA,NA,NA,NA,NA,NA,NA,NA,NA,NA,NA,sdf,NA,2,NA
59f2d,check continue,flow.Sequence,3_0_2,NA,NA,completion,95414.542999952,323176.19999993,323175.263,323191.757,418606.29999995,418607.89999998,2023-07-03T08:05:34Z,418663.131,NA,NA,NA,NA,NA,NA,NA,NA,NA,NA,NA,NA,NA,NA,NA,NA,NA,NA,NA,NA,NA,NA,NA,NA,NA,NA,sdf,NA,2,NA
59f2d,Deep Question,html.Page,3_0_3_0_0_0_0,katalaki,NA,form submission,11653.768999976,418657.19999993,418646.841,418663.131,430316.89999998,430317,2023-07-03T08:05:46Z,430320.015,NA,NA,NA,NA,NA,NA,NA,NA,NA,NA,NA,NA,NA,NA,NA,NA,NA,NA,NA,NA,Papier,karatasi,d,NA,NA,NA,NA,NA,3,NA
59f2d,"""Richtig""-Screen",canvas.Screen,3_0_3_0_0_0_1,NA,NA,skipped,NA,430319.29999995,NA,NA,430316.89999998,430319.5,2023-07-03T08:05:46Z,430320.015,NA,NA,NA,NA,NA,NA,NA,NA,NA,NA,NA,NA,NA,NA,NA,NA,NA,NA,NA,NA,Papier,karatasi,d,NA,NA,NA,qt,NA,3,NA
59f2d,"""Falsch""-Screen",canvas.Screen,3_0_3_0_0_0_2,NA,NA,timeout,4996.615,430320.5,430304.077,430320.015,435299.72,435300.69999993,2023-07-03T08:05:51Z,435316.63,NA,NA,NA,NA,NA,NA,NA,NA,NA,NA,NA,NA,NA,NA,NA,NA,NA,NA,NA,NA,Papier,karatasi,d,NA,NA,NA,qt,0,3,NA
59f2d,deep,flow.Sequence,3_0_3_0_0_0,NA,NA,completion,16636.589,418657.19999993,418646.841,418663.131,435299.72,435301.19999993,2023-07-03T08:05:51Z,435316.63,NA,NA,NA,NA,NA,NA,NA,NA,NA,NA,NA,NA,NA,NA,NA,NA,NA,NA,NA,NA,Papier,karatasi,d,NA,NA,NA,qt,NA,3,NA
59f2d,shallow,flow.Sequence,3_0_3_0_0_1,NA,NA,skipped,NA,435301.39999998,NA,NA,435299.72,435301.5,2023-07-03T08:05:51Z,435316.63,NA,NA,NA,NA,NA,NA,NA,NA,NA,NA,NA,NA,NA,NA,NA,NA,NA,NA,NA,NA,Papier,karatasi,d,NA,NA,NA,qt,NA,3,NA
59f2d,task,flow.Sequence,3_0_3_0_0,NA,NA,completion,16636.589,418657.19999993,418646.841,418663.131,435299.72,435301.79999995,2023-07-03T08:05:51Z,435316.63,NA,NA,NA,NA,NA,NA,NA,NA,NA,NA,NA,NA,NA,NA,NA,NA,NA,NA,NA,NA,Papier,karatasi,d,NA,NA,NA,qt,NA,3,NA
59f2d,deep,flow.Sequence,3_0_3_0_1_0,NA,NA,skipped,NA,435302,NA,NA,435299.72,435302.0999999,2023-07-03T08:05:51Z,435316.63,NA,NA,NA,NA,NA,NA,NA,NA,NA,NA,NA,NA,NA,NA,NA,NA,NA,NA,NA,NA,Vorwurf,mashtaka,s,msukumo,mtangulizi,uenyekiti,qt,NA,3,NA
59f2d,Shallow Question,html.Page,3_0_3_0_1_1_0,mashtaka,NA,form submission,4201.6699999523,435302.29999995,435299.72,435316.63,439518.29999995,439518.5,2023-07-03T08:05:55Z,439529.225,NA,NA,NA,NA,NA,NA,NA,NA,NA,NA,NA,NA,NA,NA,NA,NA,NA,NA,NA,NA,Vorwurf,mashtaka,s,msukumo,mtangulizi,uenyekiti,NA,NA,3,NA
59f2d,"""Richtig""-Screen",canvas.Screen,3_0_3_0_1_1_1,NA,NA,timeout,4996.255,439520.29999995,439512.787,439529.225,444508.491,444509.5,2023-07-03T08:06:00Z,444525.48,NA,NA,NA,NA,NA,NA,NA,NA,NA,NA,NA,NA,NA,NA,NA,NA,NA,NA,NA,NA,Vorwurf,mashtaka,s,msukumo,mtangulizi,uenyekiti,qt,1,3,NA
59f2d,"""Falsch""-Screen",canvas.Screen,3_0_3_0_1_1_2,NA,NA,skipped,NA,444514.79999995,NA,NA,444508.491,444515.19999993,2023-07-03T08:06:00Z,444525.48,NA,NA,NA,NA,NA,NA,NA,NA,NA,NA,NA,NA,NA,NA,NA,NA,NA,NA,NA,NA,Vorwurf,mashtaka,s,msukumo,mtangulizi,uenyekiti,qt,NA,3,NA
59f2d,shallow,flow.Sequence,3_0_3_0_1_1,NA,NA,completion,9191.861,435302.19999993,435299.72,435316.63,444508.491,444515.5999999,2023-07-03T08:06:00Z,444525.48,NA,NA,NA,NA,NA,NA,NA,NA,NA,NA,NA,NA,NA,NA,NA,NA,NA,NA,NA,NA,Vorwurf,mashtaka,s,msukumo,mtangulizi,uenyekiti,qt,NA,3,NA
59f2d,task,flow.Sequence,3_0_3_0_1,NA,NA,completion,9191.861,435302,435299.72,435316.63,444508.491,444515.89999998,2023-07-03T08:06:00Z,444525.48,NA,NA,NA,NA,NA,NA,NA,NA,NA,NA,NA,NA,NA,NA,NA,NA,NA,NA,NA,NA,Vorwurf,mashtaka,s,msukumo,mtangulizi,uenyekiti,qt,NA,3,NA
59f2d,Deep Question,html.Page,3_0_3_0_2_0_0,mwank,NA,form submission,6278.6199999047,444516,444508.491,444525.48,450804.0999999,450804.29999995,2023-07-03T08:06:06Z,450819.93,NA,NA,NA,NA,NA,NA,NA,NA,NA,NA,NA,NA,NA,NA,NA,NA,NA,NA,NA,NA,Tester,wanaojaribu,d,NA,NA,NA,NA,NA,3,NA
59f2d,"""Richtig""-Screen",canvas.Screen,3_0_3_0_2_0_1,NA,NA,skipped,NA,450806.5999999,NA,NA,450804.0999999,450806.69999993,2023-07-03T08:06:06Z,450819.93,NA,NA,NA,NA,NA,NA,NA,NA,NA,NA,NA,NA,NA,NA,NA,NA,NA,NA,NA,NA,Tester,wanaojaribu,d,NA,NA,NA,qt,NA,3,NA
59f2d,"""Falsch""-Screen",canvas.Screen,3_0_3_0_2_0_2,NA,NA,timeout,4996.4,450807.5,450803.161,450819.93,455799.359,455800.39999998,2023-07-03T08:06:11Z,455816.33,NA,NA,NA,NA,NA,NA,NA,NA,NA,NA,NA,NA,NA,NA,NA,NA,NA,NA,NA,NA,Tester,wanaojaribu,d,NA,NA,NA,qt,0,3,NA
59f2d,deep,flow.Sequence,3_0_3_0_2_0,NA,NA,completion,11273.879,444516,444508.491,444525.48,455799.359,455801,2023-07-03T08:06:11Z,455816.33,NA,NA,NA,NA,NA,NA,NA,NA,NA,NA,NA,NA,NA,NA,NA,NA,NA,NA,NA,NA,Tester,wanaojaribu,d,NA,NA,NA,qt,NA,3,NA
59f2d,shallow,flow.Sequence,3_0_3_0_2_1,NA,NA,skipped,NA,455801.19999993,NA,NA,455799.359,455801.29999995,2023-07-03T08:06:11Z,455816.33,NA,NA,NA,NA,NA,NA,NA,NA,NA,NA,NA,NA,NA,NA,NA,NA,NA,NA,NA,NA,Tester,wanaojaribu,d,NA,NA,NA,qt,NA,3,NA
59f2d,task,flow.Sequence,3_0_3_0_2,NA,NA,completion,11273.879,444515.89999998,444508.491,444525.48,455799.359,455801.5999999,2023-07-03T08:06:11Z,455816.33,NA,NA,NA,NA,NA,NA,NA,NA,NA,NA,NA,NA,NA,NA,NA,NA,NA,NA,NA,NA,Tester,wanaojaribu,d,NA,NA,NA,qt,NA,3,NA
59f2d,Deep Question,html.Page,3_0_3_0_3_0_0,maendele,NA,form submission,6853.0699999761,455801.89999998,455799.359,455816.33,462669.39999998,462669.5999999,2023-07-03T08:06:18Z,462676.743,NA,NA,NA,NA,NA,NA,NA,NA,NA,NA,NA,NA,NA,NA,NA,NA,NA,NA,NA,NA,Niveau,kiwango,d,NA,NA,NA,NA,NA,3,NA
59f2d,"""Richtig""-Screen",canvas.Screen,3_0_3_0_3_0_1,NA,NA,skipped,NA,462672.19999993,NA,NA,462669.39999998,462672.39999998,2023-07-03T08:06:18Z,462676.743,NA,NA,NA,NA,NA,NA,NA,NA,NA,NA,NA,NA,NA,NA,NA,NA,NA,NA,NA,NA,Niveau,kiwango,d,NA,NA,NA,qt,NA,3,NA
59f2d,"""Falsch""-Screen",canvas.Screen,3_0_3_0_3_0_2,NA,NA,timeout,4996.482,462673.19999993,462660.725,462676.743,467656.316,467657.19999993,2023-07-03T08:06:23Z,467673.225,NA,NA,NA,NA,NA,NA,NA,NA,NA,NA,NA,NA,NA,NA,NA,NA,NA,NA,NA,NA,Niveau,kiwango,d,NA,NA,NA,qt,0,3,NA
59f2d,deep,flow.Sequence,3_0_3_0_3_0,NA,NA,completion,11839.986,455801.79999995,455799.359,455816.33,467656.316,467657.5999999,2023-07-03T08:06:23Z,467673.225,NA,NA,NA,NA,NA,NA,NA,NA,NA,NA,NA,NA,NA,NA,NA,NA,NA,NA,NA,NA,Niveau,kiwango,d,NA,NA,NA,qt,NA,3,NA
59f2d,shallow,flow.Sequence,3_0_3_0_3_1,NA,NA,skipped,NA,467657.79999995,NA,NA,467656.316,467658,2023-07-03T08:06:23Z,467673.225,NA,NA,NA,NA,NA,NA,NA,NA,NA,NA,NA,NA,NA,NA,NA,NA,NA,NA,NA,NA,Niveau,kiwango,d,NA,NA,NA,qt,NA,3,NA
59f2d,task,flow.Sequence,3_0_3_0_3,NA,NA,completion,11839.986,455801.69999993,455799.359,455816.33,467656.316,467658.29999995,2023-07-03T08:06:23Z,467673.225,NA,NA,NA,NA,NA,NA,NA,NA,NA,NA,NA,NA,NA,NA,NA,NA,NA,NA,NA,NA,Niveau,kiwango,d,NA,NA,NA,qt,NA,3,NA
59f2d,deep,flow.Sequence,3_0_3_0_4_0,NA,NA,skipped,NA,467658.5,NA,NA,467656.316,467658.69999993,2023-07-03T08:06:23Z,467673.225,NA,NA,NA,NA,NA,NA,NA,NA,NA,NA,NA,NA,NA,NA,NA,NA,NA,NA,NA,NA,Entwicklung,maendeleo,s,uangavu,mshindwa,badiliko,qt,NA,3,NA
59f2d,Shallow Question,html.Page,3_0_3_0_4_1_0,maendeleo,NA,form submission,2969.6749999762,467658.79999995,467656.316,467673.225,470642.89999998,470643.0999999,2023-07-03T08:06:26Z,470654.04,NA,NA,NA,NA,NA,NA,NA,NA,NA,NA,NA,NA,NA,NA,NA,NA,NA,NA,NA,NA,Entwicklung,maendeleo,s,uangavu,mshindwa,badiliko,NA,NA,3,NA
59f2d,"""Richtig""-Screen",canvas.Screen,3_0_3_0_4_1_1,NA,NA,timeout,4995.946,470644.69999993,470637.459,470654.04,475633.312,475634.5999999,2023-07-03T08:06:31Z,475649.986,NA,NA,NA,NA,NA,NA,NA,NA,NA,NA,NA,NA,NA,NA,NA,NA,NA,NA,NA,NA,Entwicklung,maendeleo,s,uangavu,mshindwa,badiliko,qt,1,3,NA
59f2d,"""Falsch""-Screen",canvas.Screen,3_0_3_0_4_1_2,NA,NA,skipped,NA,475640.29999995,NA,NA,475633.312,475640.5999999,2023-07-03T08:06:31Z,475649.986,NA,NA,NA,NA,NA,NA,NA,NA,NA,NA,NA,NA,NA,NA,NA,NA,NA,NA,NA,NA,Entwicklung,maendeleo,s,uangavu,mshindwa,badiliko,qt,NA,3,NA
59f2d,shallow,flow.Sequence,3_0_3_0_4_1,NA,NA,completion,7960.087,467658.79999995,467656.316,467673.225,475633.312,475640.89999998,2023-07-03T08:06:31Z,475649.986,NA,NA,NA,NA,NA,NA,NA,NA,NA,NA,NA,NA,NA,NA,NA,NA,NA,NA,NA,NA,Entwicklung,maendeleo,s,uangavu,mshindwa,badiliko,qt,NA,3,NA
59f2d,task,flow.Sequence,3_0_3_0_4,NA,NA,completion,7960.087,467658.39999998,467656.316,467673.225,475633.312,475641.0999999,2023-07-03T08:06:31Z,475649.986,NA,NA,NA,NA,NA,NA,NA,NA,NA,NA,NA,NA,NA,NA,NA,NA,NA,NA,NA,NA,Entwicklung,maendeleo,s,uangavu,mshindwa,badiliko,qt,NA,3,NA
59f2d,deep,flow.Sequence,3_0_3_0_5_0,NA,NA,skipped,NA,475641.29999995,NA,NA,475633.312,475641.39999998,2023-07-03T08:06:31Z,475649.986,NA,NA,NA,NA,NA,NA,NA,NA,NA,NA,NA,NA,NA,NA,NA,NA,NA,NA,NA,NA,Spionage,upelelezi,s,maslahi,utokazo,magangao,qt,NA,3,NA
59f2d,Shallow Question,html.Page,3_0_3_0_5_1_0,upelelezi,NA,form submission,4558.1139999047,475641.5999999,475633.312,475649.986,480208.0999999,480208.39999998,2023-07-03T08:06:36Z,480212.331,NA,NA,NA,NA,NA,NA,NA,NA,NA,NA,NA,NA,NA,NA,NA,NA,NA,NA,NA,NA,Spionage,upelelezi,s,maslahi,utokazo,magangao,NA,NA,3,NA
59f2d,"""Richtig""-Screen",canvas.Screen,3_0_3_0_5_1_1,NA,NA,timeout,4996.298,480210.0999999,480196.316,480212.331,485192.244,485192.79999995,2023-07-03T08:06:41Z,485208.629,NA,NA,NA,NA,NA,NA,NA,NA,NA,NA,NA,NA,NA,NA,NA,NA,NA,NA,NA,NA,Spionage,upelelezi,s,maslahi,utokazo,magangao,qt,1,3,NA
59f2d,"""Falsch""-Screen",canvas.Screen,3_0_3_0_5_1_2,NA,NA,skipped,NA,485195.39999998,NA,NA,485192.244,485195.5999999,2023-07-03T08:06:41Z,485208.629,NA,NA,NA,NA,NA,NA,NA,NA,NA,NA,NA,NA,NA,NA,NA,NA,NA,NA,NA,NA,Spionage,upelelezi,s,maslahi,utokazo,magangao,qt,NA,3,NA
59f2d,shallow,flow.Sequence,3_0_3_0_5_1,NA,NA,completion,9542.258,475641.5,475633.312,475649.986,485192.244,485195.79999995,2023-07-03T08:06:41Z,485208.629,NA,NA,NA,NA,NA,NA,NA,NA,NA,NA,NA,NA,NA,NA,NA,NA,NA,NA,NA,NA,Spionage,upelelezi,s,maslahi,utokazo,magangao,qt,NA,3,NA
59f2d,task,flow.Sequence,3_0_3_0_5,NA,NA,completion,9542.258,475641.19999993,475633.312,475649.986,485192.244,485195.89999998,2023-07-03T08:06:41Z,485208.629,NA,NA,NA,NA,NA,NA,NA,NA,NA,NA,NA,NA,NA,NA,NA,NA,NA,NA,NA,NA,Spionage,upelelezi,s,maslahi,utokazo,magangao,qt,NA,3,NA
59f2d,deep,flow.Sequence,3_0_3_0_6_0,NA,NA,skipped,NA,485196,NA,NA,485192.244,485196,2023-07-03T08:06:41Z,485208.629,NA,NA,NA,NA,NA,NA,NA,NA,NA,NA,NA,NA,NA,NA,NA,NA,NA,NA,NA,NA,Fenster,dirisha,s,walakini,tasawari,maarifa,qt,NA,3,NA
59f2d,Shallow Question,html.Page,3_0_3_0_6_1_0,dirisha,NA,form submission,3750.0709999285,485196,485192.244,485208.629,488958.69999993,488959,2023-07-03T08:06:45Z,488971.916,NA,NA,NA,NA,NA,NA,NA,NA,NA,NA,NA,NA,NA,NA,NA,NA,NA,NA,NA,NA,Fenster,dirisha,s,walakini,tasawari,maarifa,NA,NA,3,NA
59f2d,"""Richtig""-Screen",canvas.Screen,3_0_3_0_6_1_1,NA,NA,timeout,4995.822,488960.89999998,488955.739,488971.916,493951.514,493952.5,2023-07-03T08:06:50Z,493967.738,NA,NA,NA,NA,NA,NA,NA,NA,NA,NA,NA,NA,NA,NA,NA,NA,NA,NA,NA,NA,Fenster,dirisha,s,walakini,tasawari,maarifa,qt,1,3,NA
59f2d,"""Falsch""-Screen",canvas.Screen,3_0_3_0_6_1_2,NA,NA,skipped,NA,493957.69999993,NA,NA,493951.514,493958.0999999,2023-07-03T08:06:50Z,493967.738,NA,NA,NA,NA,NA,NA,NA,NA,NA,NA,NA,NA,NA,NA,NA,NA,NA,NA,NA,NA,Fenster,dirisha,s,walakini,tasawari,maarifa,qt,NA,3,NA
59f2d,shallow,flow.Sequence,3_0_3_0_6_1,NA,NA,completion,8742.885,485196,485192.244,485208.629,493951.514,493958.5,2023-07-03T08:06:50Z,493967.738,NA,NA,NA,NA,NA,NA,NA,NA,NA,NA,NA,NA,NA,NA,NA,NA,NA,NA,NA,NA,Fenster,dirisha,s,walakini,tasawari,maarifa,qt,NA,3,NA
59f2d,task,flow.Sequence,3_0_3_0_6,NA,NA,completion,8742.885,485195.89999998,485192.244,485208.629,493951.514,493958.69999993,2023-07-03T08:06:50Z,493967.738,NA,NA,NA,NA,NA,NA,NA,NA,NA,NA,NA,NA,NA,NA,NA,NA,NA,NA,NA,NA,Fenster,dirisha,s,walakini,tasawari,maarifa,qt,NA,3,NA
59f2d,Deep Question,html.Page,3_0_3_0_7_0_0,mwankofireze,NA,form submission,15739.861999905,493959,493951.514,493967.738,509707.5999999,509707.79999995,2023-07-03T08:07:05Z,509722.095,NA,NA,NA,NA,NA,NA,NA,NA,NA,NA,NA,NA,NA,NA,NA,NA,NA,NA,NA,NA,Schüler,mwanafunzi,d,NA,NA,NA,NA,NA,3,NA
59f2d,"""Richtig""-Screen",canvas.Screen,3_0_3_0_7_0_1,NA,NA,skipped,NA,509709.69999993,NA,NA,509707.5999999,509709.79999995,2023-07-03T08:07:05Z,509722.095,NA,NA,NA,NA,NA,NA,NA,NA,NA,NA,NA,NA,NA,NA,NA,NA,NA,NA,NA,NA,Schüler,mwanafunzi,d,NA,NA,NA,qt,NA,3,NA
59f2d,"""Falsch""-Screen",canvas.Screen,3_0_3_0_7_0_2,NA,NA,timeout,4995.706,509710.5,509704.814,509722.095,514700.922,514701.5,2023-07-03T08:07:10Z,514717.801,NA,NA,NA,NA,NA,NA,NA,NA,NA,NA,NA,NA,NA,NA,NA,NA,NA,NA,NA,NA,Schüler,mwanafunzi,d,NA,NA,NA,qt,0,3,NA
59f2d,deep,flow.Sequence,3_0_3_0_7_0,NA,NA,completion,20733.184,493958.89999998,493951.514,493967.738,514700.922,514701.69999993,2023-07-03T08:07:10Z,514717.801,NA,NA,NA,NA,NA,NA,NA,NA,NA,NA,NA,NA,NA,NA,NA,NA,NA,NA,NA,NA,Schüler,mwanafunzi,d,NA,NA,NA,qt,NA,3,NA
59f2d,shallow,flow.Sequence,3_0_3_0_7_1,NA,NA,skipped,NA,514701.89999998,NA,NA,514700.922,514702,2023-07-03T08:07:10Z,514717.801,NA,NA,NA,NA,NA,NA,NA,NA,NA,NA,NA,NA,NA,NA,NA,NA,NA,NA,NA,NA,Schüler,mwanafunzi,d,NA,NA,NA,qt,NA,3,NA
59f2d,task,flow.Sequence,3_0_3_0_7,NA,NA,completion,20733.184,493958.89999998,493951.514,493967.738,514700.922,514702.0999999,2023-07-03T08:07:10Z,514717.801,NA,NA,NA,NA,NA,NA,NA,NA,NA,NA,NA,NA,NA,NA,NA,NA,NA,NA,NA,NA,Schüler,mwanafunzi,d,NA,NA,NA,qt,NA,3,NA
59f2d,block,flow.Loop,3_0_3_0,NA,NA,completion,96037.791,418657.0999999,418646.841,418663.131,514700.922,514702.29999995,2023-07-03T08:07:10Z,514717.801,NA,NA,NA,NA,NA,NA,NA,NA,NA,NA,NA,NA,NA,NA,NA,NA,NA,NA,NA,NA,NA,NA,NA,NA,NA,NA,qt,NA,3,NA
59f2d,weiter,canvas.Screen,3_0_3_1,sdf,keypress(Space),response,1084.5989999762,514702.39999998,514700.922,514717.801,515802.39999998,515803.5999999,2023-07-03T08:07:11Z,515850.439,NA,NA,NA,NA,NA,NA,NA,NA,NA,NA,NA,NA,NA,NA,NA,NA,NA,NA,NA,NA,NA,NA,NA,NA,NA,NA,qt,NA,3,NA
59f2d,check continue,flow.Sequence,3_0_3,NA,NA,completion,97139.268999976,418657,418646.841,418663.131,515802.39999998,515804,2023-07-03T08:07:11Z,515850.439,NA,NA,NA,NA,NA,NA,NA,NA,NA,NA,NA,NA,NA,NA,NA,NA,NA,NA,NA,NA,NA,NA,NA,NA,NA,NA,qt,NA,3,NA
59f2d,Deep Question,html.Page,3_0_4_0_0_0_0,mwanafunzi,NA,form submission,10402.460999976,515834.0999999,515833.109,515850.439,526252.89999998,526253.69999993,2023-07-03T08:07:22Z,526257.832,NA,NA,NA,NA,NA,NA,NA,NA,NA,NA,NA,NA,NA,NA,NA,NA,NA,NA,NA,NA,Schüler,mwanafunzi,d,NA,NA,NA,NA,NA,4,NA
59f2d,"""Richtig""-Screen",canvas.Screen,3_0_4_0_0_0_1,NA,NA,timeout,4996.5619999999,526255.5999999,526241.61,526257.832,531237.342,531238.29999995,2023-07-03T08:07:27Z,531254.394,NA,NA,NA,NA,NA,NA,NA,NA,NA,NA,NA,NA,NA,NA,NA,NA,NA,NA,NA,NA,Schüler,mwanafunzi,d,NA,NA,NA,sd,1,4,NA
59f2d,"""Falsch""-Screen",canvas.Screen,3_0_4_0_0_0_2,NA,NA,skipped,NA,531243,NA,NA,531237.342,531243.0999999,2023-07-03T08:07:27Z,531254.394,NA,NA,NA,NA,NA,NA,NA,NA,NA,NA,NA,NA,NA,NA,NA,NA,NA,NA,NA,NA,Schüler,mwanafunzi,d,NA,NA,NA,sd,NA,4,NA
59f2d,deep,flow.Sequence,3_0_4_0_0_0,NA,NA,completion,15386.903,515834.0999999,515833.109,515850.439,531237.342,531243.19999993,2023-07-03T08:07:27Z,531254.394,NA,NA,NA,NA,NA,NA,NA,NA,NA,NA,NA,NA,NA,NA,NA,NA,NA,NA,NA,NA,Schüler,mwanafunzi,d,NA,NA,NA,sd,NA,4,NA
59f2d,shallow,flow.Sequence,3_0_4_0_0_1,NA,NA,skipped,NA,531243.19999993,NA,NA,531237.342,531243.19999993,2023-07-03T08:07:27Z,531254.394,NA,NA,NA,NA,NA,NA,NA,NA,NA,NA,NA,NA,NA,NA,NA,NA,NA,NA,NA,NA,Schüler,mwanafunzi,d,NA,NA,NA,sd,NA,4,NA
59f2d,task,flow.Sequence,3_0_4_0_0,NA,NA,completion,15386.903,515834,515833.109,515850.439,531237.342,531243.39999998,2023-07-03T08:07:27Z,531254.394,NA,NA,NA,NA,NA,NA,NA,NA,NA,NA,NA,NA,NA,NA,NA,NA,NA,NA,NA,NA,Schüler,mwanafunzi,d,NA,NA,NA,sd,NA,4,NA
59f2d,Deep Question,html.Page,3_0_4_0_1_0_0,kalataki,NA,form submission,11926.905999952,531243.39999998,531237.342,531254.394,543181.29999995,543181.5,2023-07-03T08:07:39Z,543194.013,NA,NA,NA,NA,NA,NA,NA,NA,NA,NA,NA,NA,NA,NA,NA,NA,NA,NA,NA,NA,Papier,karatasi,d,NA,NA,NA,NA,NA,4,NA
59f2d,"""Richtig""-Screen",canvas.Screen,3_0_4_0_1_0_1,NA,NA,skipped,NA,543183.39999998,NA,NA,543181.29999995,543183.5,2023-07-03T08:07:39Z,543194.013,NA,NA,NA,NA,NA,NA,NA,NA,NA,NA,NA,NA,NA,NA,NA,NA,NA,NA,NA,NA,Papier,karatasi,d,NA,NA,NA,sd,NA,4,NA
59f2d,"""Falsch""-Screen",canvas.Screen,3_0_4_0_1_0_2,NA,NA,timeout,4996.3509999999,543184.0999999,543177.87,543194.013,548173.676,548174.69999993,2023-07-03T08:07:44Z,548190.364,NA,NA,NA,NA,NA,NA,NA,NA,NA,NA,NA,NA,NA,NA,NA,NA,NA,NA,NA,NA,Papier,karatasi,d,NA,NA,NA,sd,0,4,NA
59f2d,deep,flow.Sequence,3_0_4_0_1_0,NA,NA,completion,16919.282,531243.39999998,531237.342,531254.394,548173.676,548175,2023-07-03T08:07:44Z,548190.364,NA,NA,NA,NA,NA,NA,NA,NA,NA,NA,NA,NA,NA,NA,NA,NA,NA,NA,NA,NA,Papier,karatasi,d,NA,NA,NA,sd,NA,4,NA
59f2d,shallow,flow.Sequence,3_0_4_0_1_1,NA,NA,skipped,NA,548175.19999993,NA,NA,548173.676,548175.39999998,2023-07-03T08:07:44Z,548190.364,NA,NA,NA,NA,NA,NA,NA,NA,NA,NA,NA,NA,NA,NA,NA,NA,NA,NA,NA,NA,Papier,karatasi,d,NA,NA,NA,sd,NA,4,NA
59f2d,task,flow.Sequence,3_0_4_0_1,NA,NA,completion,16919.282,531243.39999998,531237.342,531254.394,548173.676,548175.5999999,2023-07-03T08:07:44Z,548190.364,NA,NA,NA,NA,NA,NA,NA,NA,NA,NA,NA,NA,NA,NA,NA,NA,NA,NA,NA,NA,Papier,karatasi,d,NA,NA,NA,sd,NA,4,NA
59f2d,deep,flow.Sequence,3_0_4_0_2_0,NA,NA,skipped,NA,548175.79999995,NA,NA,548173.676,548175.89999998,2023-07-03T08:07:44Z,548190.364,NA,NA,NA,NA,NA,NA,NA,NA,NA,NA,NA,NA,NA,NA,NA,NA,NA,NA,NA,NA,Vorwurf,mashtaka,s,msukumo,mtangulizi,uenyekiti,sd,NA,4,NA
59f2d,Shallow Question,html.Page,3_0_4_0_2_1_0,mtangulizi,NA,form submission,6645.4359999524,548176.0999999,548173.676,548190.364,554835.79999995,554835.89999998,2023-07-03T08:07:50Z,554851.612,NA,NA,NA,NA,NA,NA,NA,NA,NA,NA,NA,NA,NA,NA,NA,NA,NA,NA,NA,NA,Vorwurf,mashtaka,s,msukumo,mtangulizi,uenyekiti,NA,NA,4,NA
59f2d,"""Richtig""-Screen",canvas.Screen,3_0_4_0_2_1_1,NA,NA,skipped,NA,554837.69999993,NA,NA,554835.79999995,554837.79999995,2023-07-03T08:07:50Z,554851.612,NA,NA,NA,NA,NA,NA,NA,NA,NA,NA,NA,NA,NA,NA,NA,NA,NA,NA,NA,NA,Vorwurf,mashtaka,s,msukumo,mtangulizi,uenyekiti,sd,NA,4,NA
59f2d,"""Falsch""-Screen",canvas.Screen,3_0_4_0_2_1_2,NA,NA,timeout,4995.27,554838.39999998,554835.031,554851.612,559830.822,559831.79999995,2023-07-03T08:07:55Z,559846.882,NA,NA,NA,NA,NA,NA,NA,NA,NA,NA,NA,NA,NA,NA,NA,NA,NA,NA,NA,NA,Vorwurf,mashtaka,s,msukumo,mtangulizi,uenyekiti,sd,0,4,NA
59f2d,shallow,flow.Sequence,3_0_4_0_2_1,NA,NA,completion,11640.458,548176.0999999,548173.676,548190.364,559830.822,559832.19999993,2023-07-03T08:07:55Z,559846.882,NA,NA,NA,NA,NA,NA,NA,NA,NA,NA,NA,NA,NA,NA,NA,NA,NA,NA,NA,NA,Vorwurf,mashtaka,s,msukumo,mtangulizi,uenyekiti,sd,NA,4,NA
59f2d,task,flow.Sequence,3_0_4_0_2,NA,NA,completion,11640.458,548175.79999995,548173.676,548190.364,559830.822,559832.39999998,2023-07-03T08:07:55Z,559846.882,NA,NA,NA,NA,NA,NA,NA,NA,NA,NA,NA,NA,NA,NA,NA,NA,NA,NA,NA,NA,Vorwurf,mashtaka,s,msukumo,mtangulizi,uenyekiti,sd,NA,4,NA
59f2d,deep,flow.Sequence,3_0_4_0_3_0,NA,NA,skipped,NA,559832.69999993,NA,NA,559830.822,559832.79999995,2023-07-03T08:07:55Z,559846.882,NA,NA,NA,NA,NA,NA,NA,NA,NA,NA,NA,NA,NA,NA,NA,NA,NA,NA,NA,NA,Spionage,upelelezi,s,maslahi,utokazo,magangao,sd,NA,4,NA
59f2d,Shallow Question,html.Page,3_0_4_0_3_1_0,upelelezi,NA,form submission,5594.9179999523,559833,559830.822,559846.882,565441.79999995,565441.89999998,2023-07-03T08:08:01Z,565442.287,NA,NA,NA,NA,NA,NA,NA,NA,NA,NA,NA,NA,NA,NA,NA,NA,NA,NA,NA,NA,Spionage,upelelezi,s,maslahi,utokazo,magangao,NA,NA,4,NA
59f2d,"""Richtig""-Screen",canvas.Screen,3_0_4_0_3_1_1,NA,NA,timeout,4995.956,565443.79999995,565426.23,565442.287,570421.962,570422.89999998,2023-07-03T08:08:06Z,570438.243,NA,NA,NA,NA,NA,NA,NA,NA,NA,NA,NA,NA,NA,NA,NA,NA,NA,NA,NA,NA,Spionage,upelelezi,s,maslahi,utokazo,magangao,sd,1,4,NA
59f2d,"""Falsch""-Screen",canvas.Screen,3_0_4_0_3_1_2,NA,NA,skipped,NA,570428.19999993,NA,NA,570421.962,570428.29999995,2023-07-03T08:08:06Z,570438.243,NA,NA,NA,NA,NA,NA,NA,NA,NA,NA,NA,NA,NA,NA,NA,NA,NA,NA,NA,NA,Spionage,upelelezi,s,maslahi,utokazo,magangao,sd,NA,4,NA
59f2d,shallow,flow.Sequence,3_0_4_0_3_1,NA,NA,completion,10575.08,559832.89999998,559830.822,559846.882,570421.962,570428.39999998,2023-07-03T08:08:06Z,570438.243,NA,NA,NA,NA,NA,NA,NA,NA,NA,NA,NA,NA,NA,NA,NA,NA,NA,NA,NA,NA,Spionage,upelelezi,s,maslahi,utokazo,magangao,sd,NA,4,NA
59f2d,task,flow.Sequence,3_0_4_0_3,NA,NA,completion,10575.08,559832.5,559830.822,559846.882,570421.962,570428.5,2023-07-03T08:08:06Z,570438.243,NA,NA,NA,NA,NA,NA,NA,NA,NA,NA,NA,NA,NA,NA,NA,NA,NA,NA,NA,NA,Spionage,upelelezi,s,maslahi,utokazo,magangao,sd,NA,4,NA
59f2d,Deep Question,html.Page,3_0_4_0_4_0_0,a,NA,form submission,6310.257,570428.5999999,570421.962,570438.243,576748.5,576748.69999993,2023-07-03T08:08:12Z,576749.636,NA,NA,NA,NA,NA,NA,NA,NA,NA,NA,NA,NA,NA,NA,NA,NA,NA,NA,NA,NA,Niveau,kiwango,d,NA,NA,NA,NA,NA,4,NA
59f2d,"""Richtig""-Screen",canvas.Screen,3_0_4_0_4_0_1,NA,NA,skipped,NA,576750.39999998,NA,NA,576748.5,576750.69999993,2023-07-03T08:08:12Z,576749.636,NA,NA,NA,NA,NA,NA,NA,NA,NA,NA,NA,NA,NA,NA,NA,NA,NA,NA,NA,NA,Niveau,kiwango,d,NA,NA,NA,sd,NA,4,NA
59f2d,"""Falsch""-Screen",canvas.Screen,3_0_4_0_4_0_2,NA,NA,timeout,4996.384,576751.39999998,576733.773,576749.636,581728.961,581729.89999998,2023-07-03T08:08:17Z,581746.02,NA,NA,NA,NA,NA,NA,NA,NA,NA,NA,NA,NA,NA,NA,NA,NA,NA,NA,NA,NA,Niveau,kiwango,d,NA,NA,NA,sd,0,4,NA
59f2d,deep,flow.Sequence,3_0_4_0_4_0,NA,NA,completion,11290.718,570428.5999999,570421.962,570438.243,581728.961,581730.19999993,2023-07-03T08:08:17Z,581746.02,NA,NA,NA,NA,NA,NA,NA,NA,NA,NA,NA,NA,NA,NA,NA,NA,NA,NA,NA,NA,Niveau,kiwango,d,NA,NA,NA,sd,NA,4,NA
59f2d,shallow,flow.Sequence,3_0_4_0_4_1,NA,NA,skipped,NA,581730.39999998,NA,NA,581728.961,581730.5,2023-07-03T08:08:17Z,581746.02,NA,NA,NA,NA,NA,NA,NA,NA,NA,NA,NA,NA,NA,NA,NA,NA,NA,NA,NA,NA,Niveau,kiwango,d,NA,NA,NA,sd,NA,4,NA
59f2d,task,flow.Sequence,3_0_4_0_4,NA,NA,completion,11290.718,570428.5999999,570421.962,570438.243,581728.961,581730.79999995,2023-07-03T08:08:17Z,581746.02,NA,NA,NA,NA,NA,NA,NA,NA,NA,NA,NA,NA,NA,NA,NA,NA,NA,NA,NA,NA,Niveau,kiwango,d,NA,NA,NA,sd,NA,4,NA
59f2d,Deep Question,html.Page,3_0_4_0_5_0_0,man,NA,form submission,9615.1799999285,581731,581728.961,581746.02,591361.19999993,591361.29999995,2023-07-03T08:08:27Z,591371.017,NA,NA,NA,NA,NA,NA,NA,NA,NA,NA,NA,NA,NA,NA,NA,NA,NA,NA,NA,NA,Tester,wanaojaribu,d,NA,NA,NA,NA,NA,4,NA
59f2d,"""Richtig""-Screen",canvas.Screen,3_0_4_0_5_0_1,NA,NA,skipped,NA,591363.19999993,NA,NA,591361.19999993,591363.39999998,2023-07-03T08:08:27Z,591371.017,NA,NA,NA,NA,NA,NA,NA,NA,NA,NA,NA,NA,NA,NA,NA,NA,NA,NA,NA,NA,Tester,wanaojaribu,d,NA,NA,NA,sd,NA,4,NA
59f2d,"""Falsch""-Screen",canvas.Screen,3_0_4_0_5_0_2,NA,NA,timeout,4996.203,591364,591354.971,591371.017,596350.325,596351.29999995,2023-07-03T08:08:32Z,596367.22,NA,NA,NA,NA,NA,NA,NA,NA,NA,NA,NA,NA,NA,NA,NA,NA,NA,NA,NA,NA,Tester,wanaojaribu,d,NA,NA,NA,sd,0,4,NA
59f2d,deep,flow.Sequence,3_0_4_0_5_0,NA,NA,completion,14604.305,581730.89999998,581728.961,581746.02,596350.325,596351.79999995,2023-07-03T08:08:32Z,596367.22,NA,NA,NA,NA,NA,NA,NA,NA,NA,NA,NA,NA,NA,NA,NA,NA,NA,NA,NA,NA,Tester,wanaojaribu,d,NA,NA,NA,sd,NA,4,NA
59f2d,shallow,flow.Sequence,3_0_4_0_5_1,NA,NA,skipped,NA,596352,NA,NA,596350.325,596352.19999993,2023-07-03T08:08:32Z,596367.22,NA,NA,NA,NA,NA,NA,NA,NA,NA,NA,NA,NA,NA,NA,NA,NA,NA,NA,NA,NA,Tester,wanaojaribu,d,NA,NA,NA,sd,NA,4,NA
59f2d,task,flow.Sequence,3_0_4_0_5,NA,NA,completion,14604.305,581730.89999998,581728.961,581746.02,596350.325,596352.5,2023-07-03T08:08:32Z,596367.22,NA,NA,NA,NA,NA,NA,NA,NA,NA,NA,NA,NA,NA,NA,NA,NA,NA,NA,NA,NA,Tester,wanaojaribu,d,NA,NA,NA,sd,NA,4,NA
59f2d,deep,flow.Sequence,3_0_4_0_6_0,NA,NA,skipped,NA,596352.5999999,NA,NA,596350.325,596352.79999995,2023-07-03T08:08:32Z,596367.22,NA,NA,NA,NA,NA,NA,NA,NA,NA,NA,NA,NA,NA,NA,NA,NA,NA,NA,NA,NA,Entwicklung,maendeleo,s,uangavu,mshindwa,badiliko,sd,NA,4,NA
59f2d,Shallow Question,html.Page,3_0_4_0_6_1_0,maendeleo,NA,form submission,4186.28,596353,596350.325,596367.22,600553.5,600553.69999993,2023-07-03T08:08:36Z,600563.412,NA,NA,NA,NA,NA,NA,NA,NA,NA,NA,NA,NA,NA,NA,NA,NA,NA,NA,NA,NA,Entwicklung,maendeleo,s,uangavu,mshindwa,badiliko,NA,NA,4,NA
59f2d,"""Richtig""-Screen",canvas.Screen,3_0_4_0_6_1_1,NA,NA,timeout,4995.929,600555.5999999,600546.833,600563.412,605543.032,605544,2023-07-03T08:08:41Z,605559.341,NA,NA,NA,NA,NA,NA,NA,NA,NA,NA,NA,NA,NA,NA,NA,NA,NA,NA,NA,NA,Entwicklung,maendeleo,s,uangavu,mshindwa,badiliko,sd,1,4,NA
59f2d,"""Falsch""-Screen",canvas.Screen,3_0_4_0_6_1_2,NA,NA,skipped,NA,605549.29999995,NA,NA,605543.032,605549.5999999,2023-07-03T08:08:41Z,605559.341,NA,NA,NA,NA,NA,NA,NA,NA,NA,NA,NA,NA,NA,NA,NA,NA,NA,NA,NA,NA,Entwicklung,maendeleo,s,uangavu,mshindwa,badiliko,sd,NA,4,NA
59f2d,shallow,flow.Sequence,3_0_4_0_6_1,NA,NA,completion,9175.812,596352.79999995,596350.325,596367.22,605543.032,605549.89999998,2023-07-03T08:08:41Z,605559.341,NA,NA,NA,NA,NA,NA,NA,NA,NA,NA,NA,NA,NA,NA,NA,NA,NA,NA,NA,NA,Entwicklung,maendeleo,s,uangavu,mshindwa,badiliko,sd,NA,4,NA
59f2d,task,flow.Sequence,3_0_4_0_6,NA,NA,completion,9175.812,596352.5999999,596350.325,596367.22,605543.032,605550.19999993,2023-07-03T08:08:41Z,605559.341,NA,NA,NA,NA,NA,NA,NA,NA,NA,NA,NA,NA,NA,NA,NA,NA,NA,NA,NA,NA,Entwicklung,maendeleo,s,uangavu,mshindwa,badiliko,sd,NA,4,NA
59f2d,deep,flow.Sequence,3_0_4_0_7_0,NA,NA,skipped,NA,605550.39999998,NA,NA,605543.032,605550.5,2023-07-03T08:08:41Z,605559.341,NA,NA,NA,NA,NA,NA,NA,NA,NA,NA,NA,NA,NA,NA,NA,NA,NA,NA,NA,NA,Fenster,dirisha,s,walakini,tasawari,maarifa,sd,NA,4,NA
59f2d,Shallow Question,html.Page,3_0_4_0_7_1_0,dirisha,NA,form submission,4190.8589999285,605550.69999993,605543.032,605559.341,609750.19999993,609750.39999998,2023-07-03T08:08:45Z,609755.826,NA,NA,NA,NA,NA,NA,NA,NA,NA,NA,NA,NA,NA,NA,NA,NA,NA,NA,NA,NA,Fenster,dirisha,s,walakini,tasawari,maarifa,NA,NA,4,NA
59f2d,"""Richtig""-Screen",canvas.Screen,3_0_4_0_7_1_1,NA,NA,timeout,4995.9300000001,609752.0999999,609739.624,609755.826,614735.746,614736.5999999,2023-07-03T08:08:50Z,614751.756,NA,NA,NA,NA,NA,NA,NA,NA,NA,NA,NA,NA,NA,NA,NA,NA,NA,NA,NA,NA,Fenster,dirisha,s,walakini,tasawari,maarifa,sd,1,4,NA
59f2d,"""Falsch""-Screen",canvas.Screen,3_0_4_0_7_1_2,NA,NA,skipped,NA,614742,NA,NA,614735.746,614742.39999998,2023-07-03T08:08:50Z,614751.756,NA,NA,NA,NA,NA,NA,NA,NA,NA,NA,NA,NA,NA,NA,NA,NA,NA,NA,NA,NA,Fenster,dirisha,s,walakini,tasawari,maarifa,sd,NA,4,NA
59f2d,shallow,flow.Sequence,3_0_4_0_7_1,NA,NA,completion,9176.405,605550.5999999,605543.032,605559.341,614735.746,614742.69999993,2023-07-03T08:08:50Z,614751.756,NA,NA,NA,NA,NA,NA,NA,NA,NA,NA,NA,NA,NA,NA,NA,NA,NA,NA,NA,NA,Fenster,dirisha,s,walakini,tasawari,maarifa,sd,NA,4,NA
59f2d,task,flow.Sequence,3_0_4_0_7,NA,NA,completion,9176.405,605550.39999998,605543.032,605559.341,614735.746,614743,2023-07-03T08:08:50Z,614751.756,NA,NA,NA,NA,NA,NA,NA,NA,NA,NA,NA,NA,NA,NA,NA,NA,NA,NA,NA,NA,Fenster,dirisha,s,walakini,tasawari,maarifa,sd,NA,4,NA
59f2d,block,flow.Loop,3_0_4_0,NA,NA,completion,98885.307,515834,515833.109,515850.439,614735.746,614743.19999993,2023-07-03T08:08:50Z,614751.756,NA,NA,NA,NA,NA,NA,NA,NA,NA,NA,NA,NA,NA,NA,NA,NA,NA,NA,NA,NA,NA,NA,NA,NA,NA,NA,sd,NA,4,NA
59f2d,weiter,canvas.Screen,3_0_4_1,sdf,keypress(Space),response,2320.4439999284,614743.39999998,614735.746,614751.756,617072.19999993,617073.29999995,2023-07-03T08:08:53Z,617133.229,NA,NA,NA,NA,NA,NA,NA,NA,NA,NA,NA,NA,NA,NA,NA,NA,NA,NA,NA,NA,NA,NA,NA,NA,NA,NA,sd,NA,4,NA
59f2d,check continue,flow.Sequence,3_0_4,NA,NA,completion,101221.76099993,515834,515833.109,515850.439,617072.19999993,617073.5999999,2023-07-03T08:08:53Z,617133.229,NA,NA,NA,NA,NA,NA,NA,NA,NA,NA,NA,NA,NA,NA,NA,NA,NA,NA,NA,NA,NA,NA,NA,NA,NA,NA,sd,NA,4,NA
59f2d,Deep Question,html.Page,3_0_5_0_0_0_0,wangajaribu,NA,form submission,13098.470999928,617120.29999995,617117.088,617133.229,630231.69999993,630231.89999998,2023-07-03T08:09:06Z,630238.995,NA,NA,NA,NA,NA,NA,NA,NA,NA,NA,NA,NA,NA,NA,NA,NA,NA,NA,NA,NA,Niveau,kiwango,d,NA,NA,NA,NA,NA,5,NA
59f2d,"""Richtig""-Screen",canvas.Screen,3_0_5_0_0_0_1,NA,NA,skipped,NA,630234.39999998,NA,NA,630231.69999993,630234.5999999,2023-07-03T08:09:06Z,630238.995,NA,NA,NA,NA,NA,NA,NA,NA,NA,NA,NA,NA,NA,NA,NA,NA,NA,NA,NA,NA,Niveau,kiwango,d,NA,NA,NA,sdf,NA,5,NA
59f2d,"""Falsch""-Screen",canvas.Screen,3_0_5_0_0_0_2,NA,NA,timeout,4996.014,630235.5,630222.717,630238.995,635218.531,635220.19999993,2023-07-03T08:09:11Z,635235.009,NA,NA,NA,NA,NA,NA,NA,NA,NA,NA,NA,NA,NA,NA,NA,NA,NA,NA,NA,NA,Niveau,kiwango,d,NA,NA,NA,sdf,0,5,NA
59f2d,deep,flow.Sequence,3_0_5_0_0_0,NA,NA,completion,18085.302,617120.29999995,617117.088,617133.229,635218.531,635220.5,2023-07-03T08:09:11Z,635235.009,NA,NA,NA,NA,NA,NA,NA,NA,NA,NA,NA,NA,NA,NA,NA,NA,NA,NA,NA,NA,Niveau,kiwango,d,NA,NA,NA,sdf,NA,5,NA
59f2d,shallow,flow.Sequence,3_0_5_0_0_1,NA,NA,skipped,NA,635220.5999999,NA,NA,635218.531,635220.69999993,2023-07-03T08:09:11Z,635235.009,NA,NA,NA,NA,NA,NA,NA,NA,NA,NA,NA,NA,NA,NA,NA,NA,NA,NA,NA,NA,Niveau,kiwango,d,NA,NA,NA,sdf,NA,5,NA
59f2d,task,flow.Sequence,3_0_5_0_0,NA,NA,completion,18085.302,617120.29999995,617117.088,617133.229,635218.531,635220.79999995,2023-07-03T08:09:11Z,635235.009,NA,NA,NA,NA,NA,NA,NA,NA,NA,NA,NA,NA,NA,NA,NA,NA,NA,NA,NA,NA,Niveau,kiwango,d,NA,NA,NA,sdf,NA,5,NA
59f2d,Deep Question,html.Page,3_0_5_0_1_0_0,karataki,NA,form submission,5906.6909999285,635221,635218.531,635235.009,641141.69999993,641141.89999998,2023-07-03T08:09:17Z,641146.689,NA,NA,NA,NA,NA,NA,NA,NA,NA,NA,NA,NA,NA,NA,NA,NA,NA,NA,NA,NA,Papier,karatasi,d,NA,NA,NA,NA,NA,5,NA
59f2d,"""Richtig""-Screen",canvas.Screen,3_0_5_0_1_0_1,NA,NA,skipped,NA,641144.39999998,NA,NA,641141.69999993,641144.5,2023-07-03T08:09:17Z,641146.689,NA,NA,NA,NA,NA,NA,NA,NA,NA,NA,NA,NA,NA,NA,NA,NA,NA,NA,NA,NA,Papier,karatasi,d,NA,NA,NA,sdf,NA,5,NA
59f2d,"""Falsch""-Screen",canvas.Screen,3_0_5_0_1_0_2,NA,NA,timeout,4996.499,641145.39999998,641130.639,641146.689,646126.5,646127.19999993,2023-07-03T08:09:22Z,646143.188,NA,NA,NA,NA,NA,NA,NA,NA,NA,NA,NA,NA,NA,NA,NA,NA,NA,NA,NA,NA,Papier,karatasi,d,NA,NA,NA,sdf,0,5,NA
59f2d,deep,flow.Sequence,3_0_5_0_1_0,NA,NA,completion,10891.491,635221,635218.531,635235.009,646126.5,646127.5999999,2023-07-03T08:09:22Z,646143.188,NA,NA,NA,NA,NA,NA,NA,NA,NA,NA,NA,NA,NA,NA,NA,NA,NA,NA,NA,NA,Papier,karatasi,d,NA,NA,NA,sdf,NA,5,NA
59f2d,shallow,flow.Sequence,3_0_5_0_1_1,NA,NA,skipped,NA,646127.69999993,NA,NA,646126.5,646127.89999998,2023-07-03T08:09:22Z,646143.188,NA,NA,NA,NA,NA,NA,NA,NA,NA,NA,NA,NA,NA,NA,NA,NA,NA,NA,NA,NA,Papier,karatasi,d,NA,NA,NA,sdf,NA,5,NA
59f2d,task,flow.Sequence,3_0_5_0_1,NA,NA,completion,10891.491,635220.89999998,635218.531,635235.009,646126.5,646128,2023-07-03T08:09:22Z,646143.188,NA,NA,NA,NA,NA,NA,NA,NA,NA,NA,NA,NA,NA,NA,NA,NA,NA,NA,NA,NA,Papier,karatasi,d,NA,NA,NA,sdf,NA,5,NA
59f2d,deep,flow.Sequence,3_0_5_0_2_0,NA,NA,skipped,NA,646128.19999993,NA,NA,646126.5,646128.29999995,2023-07-03T08:09:22Z,646143.188,NA,NA,NA,NA,NA,NA,NA,NA,NA,NA,NA,NA,NA,NA,NA,NA,NA,NA,NA,NA,Entwicklung,maendeleo,s,uangavu,mshindwa,badiliko,sdf,NA,5,NA
59f2d,Shallow Question,html.Page,3_0_5_0_2_1_0,maendeleo,NA,form submission,3102.312,646128.39999998,646126.5,646143.188,649245.5,649245.69999993,2023-07-03T08:09:25Z,649256.725,NA,NA,NA,NA,NA,NA,NA,NA,NA,NA,NA,NA,NA,NA,NA,NA,NA,NA,NA,NA,Entwicklung,maendeleo,s,uangavu,mshindwa,badiliko,NA,NA,5,NA
59f2d,"""Richtig""-Screen",canvas.Screen,3_0_5_0_2_1_1,NA,NA,timeout,4996.549,649247.39999998,649240.314,649256.725,654236.653,654237.0999999,2023-07-03T08:09:30Z,654253.274,NA,NA,NA,NA,NA,NA,NA,NA,NA,NA,NA,NA,NA,NA,NA,NA,NA,NA,NA,NA,Entwicklung,maendeleo,s,uangavu,mshindwa,badiliko,sdf,1,5,NA
59f2d,"""Falsch""-Screen",canvas.Screen,3_0_5_0_2_1_2,NA,NA,skipped,NA,654238.89999998,NA,NA,654236.653,654239.0999999,2023-07-03T08:09:30Z,654253.274,NA,NA,NA,NA,NA,NA,NA,NA,NA,NA,NA,NA,NA,NA,NA,NA,NA,NA,NA,NA,Entwicklung,maendeleo,s,uangavu,mshindwa,badiliko,sdf,NA,5,NA
59f2d,shallow,flow.Sequence,3_0_5_0_2_1,NA,NA,completion,8093.4650000001,646128.39999998,646126.5,646143.188,654236.653,654239.19999993,2023-07-03T08:09:30Z,654253.274,NA,NA,NA,NA,NA,NA,NA,NA,NA,NA,NA,NA,NA,NA,NA,NA,NA,NA,NA,NA,Entwicklung,maendeleo,s,uangavu,mshindwa,badiliko,sdf,NA,5,NA
59f2d,task,flow.Sequence,3_0_5_0_2,NA,NA,completion,8093.4650000001,646128.19999993,646126.5,646143.188,654236.653,654239.19999993,2023-07-03T08:09:30Z,654253.274,NA,NA,NA,NA,NA,NA,NA,NA,NA,NA,NA,NA,NA,NA,NA,NA,NA,NA,NA,NA,Entwicklung,maendeleo,s,uangavu,mshindwa,badiliko,sdf,NA,5,NA
59f2d,Deep Question,html.Page,3_0_5_0_3_0_0,waranojaribu,NA,form submission,11475.726,654239.29999995,654236.653,654253.274,665729,665729.0999999,2023-07-03T08:09:41Z,665743.82,NA,NA,NA,NA,NA,NA,NA,NA,NA,NA,NA,NA,NA,NA,NA,NA,NA,NA,NA,NA,Tester,wanaojaribu,d,NA,NA,NA,NA,NA,5,NA
59f2d,"""Richtig""-Screen",canvas.Screen,3_0_5_0_3_0_1,NA,NA,skipped,NA,665730.89999998,NA,NA,665729,665731,2023-07-03T08:09:41Z,665743.82,NA,NA,NA,NA,NA,NA,NA,NA,NA,NA,NA,NA,NA,NA,NA,NA,NA,NA,NA,NA,Tester,wanaojaribu,d,NA,NA,NA,sdf,NA,5,NA
59f2d,"""Falsch""-Screen",canvas.Screen,3_0_5_0_3_0_2,NA,NA,timeout,4995.714,665731.5999999,665726.632,665743.82,670723.006,670723.5999999,2023-07-03T08:09:46Z,670739.534,NA,NA,NA,NA,NA,NA,NA,NA,NA,NA,NA,NA,NA,NA,NA,NA,NA,NA,NA,NA,Tester,wanaojaribu,d,NA,NA,NA,sdf,0,5,NA
59f2d,deep,flow.Sequence,3_0_5_0_3_0,NA,NA,completion,16469.732,654239.29999995,654236.653,654253.274,670723.006,670723.89999998,2023-07-03T08:09:46Z,670739.534,NA,NA,NA,NA,NA,NA,NA,NA,NA,NA,NA,NA,NA,NA,NA,NA,NA,NA,NA,NA,Tester,wanaojaribu,d,NA,NA,NA,sdf,NA,5,NA
59f2d,shallow,flow.Sequence,3_0_5_0_3_1,NA,NA,skipped,NA,670724,NA,NA,670723.006,670724.0999999,2023-07-03T08:09:46Z,670739.534,NA,NA,NA,NA,NA,NA,NA,NA,NA,NA,NA,NA,NA,NA,NA,NA,NA,NA,NA,NA,Tester,wanaojaribu,d,NA,NA,NA,sdf,NA,5,NA
59f2d,task,flow.Sequence,3_0_5_0_3,NA,NA,completion,16469.732,654239.19999993,654236.653,654253.274,670723.006,670724.19999993,2023-07-03T08:09:46Z,670739.534,NA,NA,NA,NA,NA,NA,NA,NA,NA,NA,NA,NA,NA,NA,NA,NA,NA,NA,NA,NA,Tester,wanaojaribu,d,NA,NA,NA,sdf,NA,5,NA
59f2d,deep,flow.Sequence,3_0_5_0_4_0,NA,NA,skipped,NA,670724.29999995,NA,NA,670723.006,670724.29999995,2023-07-03T08:09:46Z,670739.534,NA,NA,NA,NA,NA,NA,NA,NA,NA,NA,NA,NA,NA,NA,NA,NA,NA,NA,NA,NA,Fenster,dirisha,s,walakini,tasawari,maarifa,sdf,NA,5,NA
59f2d,Shallow Question,html.Page,3_0_5_0_4_1_0,dirisha,NA,form submission,3503.7659999523,670724.5,670723.006,670739.534,674243.29999995,674243.5,2023-07-03T08:09:50Z,674253.182,NA,NA,NA,NA,NA,NA,NA,NA,NA,NA,NA,NA,NA,NA,NA,NA,NA,NA,NA,NA,Fenster,dirisha,s,walakini,tasawari,maarifa,NA,NA,5,NA
59f2d,"""Richtig""-Screen",canvas.Screen,3_0_5_0_4_1_1,NA,NA,timeout,4995.617,674245.19999993,674236.336,674253.182,679232.506,679233.39999998,2023-07-03T08:09:55Z,679248.799,NA,NA,NA,NA,NA,NA,NA,NA,NA,NA,NA,NA,NA,NA,NA,NA,NA,NA,NA,NA,Fenster,dirisha,s,walakini,tasawari,maarifa,sdf,1,5,NA
59f2d,"""Falsch""-Screen",canvas.Screen,3_0_5_0_4_1_2,NA,NA,skipped,NA,679238.5,NA,NA,679232.506,679238.79999995,2023-07-03T08:09:55Z,679248.799,NA,NA,NA,NA,NA,NA,NA,NA,NA,NA,NA,NA,NA,NA,NA,NA,NA,NA,NA,NA,Fenster,dirisha,s,walakini,tasawari,maarifa,sdf,NA,5,NA
59f2d,shallow,flow.Sequence,3_0_5_0_4_1,NA,NA,completion,8492.9720000001,670724.39999998,670723.006,670739.534,679232.506,679239.0999999,2023-07-03T08:09:55Z,679248.799,NA,NA,NA,NA,NA,NA,NA,NA,NA,NA,NA,NA,NA,NA,NA,NA,NA,NA,NA,NA,Fenster,dirisha,s,walakini,tasawari,maarifa,sdf,NA,5,NA
59f2d,task,flow.Sequence,3_0_5_0_4,NA,NA,completion,8492.9720000001,670724.29999995,670723.006,670739.534,679232.506,679239.29999995,2023-07-03T08:09:55Z,679248.799,NA,NA,NA,NA,NA,NA,NA,NA,NA,NA,NA,NA,NA,NA,NA,NA,NA,NA,NA,NA,Fenster,dirisha,s,walakini,tasawari,maarifa,sdf,NA,5,NA
59f2d,deep,flow.Sequence,3_0_5_0_5_0,NA,NA,skipped,NA,679239.5999999,NA,NA,679232.506,679239.5999999,2023-07-03T08:09:55Z,679248.799,NA,NA,NA,NA,NA,NA,NA,NA,NA,NA,NA,NA,NA,NA,NA,NA,NA,NA,NA,NA,Spionage,upelelezi,s,maslahi,utokazo,magangao,sdf,NA,5,NA
59f2d,Shallow Question,html.Page,3_0_5_0_5_1_0,upelelezi,NA,form submission,3124.3009999046,679239.89999998,679232.506,679248.799,682373.0999999,682373.29999995,2023-07-03T08:09:58Z,682379.665,NA,NA,NA,NA,NA,NA,NA,NA,NA,NA,NA,NA,NA,NA,NA,NA,NA,NA,NA,NA,Spionage,upelelezi,s,maslahi,utokazo,magangao,NA,NA,5,NA
59f2d,"""Richtig""-Screen",canvas.Screen,3_0_5_0_5_1_1,NA,NA,timeout,4995.705,682375.0999999,682363.395,682379.665,687359.241,687360.0999999,2023-07-03T08:10:03Z,687375.37,NA,NA,NA,NA,NA,NA,NA,NA,NA,NA,NA,NA,NA,NA,NA,NA,NA,NA,NA,NA,Spionage,upelelezi,s,maslahi,utokazo,magangao,sdf,1,5,NA
59f2d,"""Falsch""-Screen",canvas.Screen,3_0_5_0_5_1_2,NA,NA,skipped,NA,687365.29999995,NA,NA,687359.241,687365.69999993,2023-07-03T08:10:03Z,687375.37,NA,NA,NA,NA,NA,NA,NA,NA,NA,NA,NA,NA,NA,NA,NA,NA,NA,NA,NA,NA,Spionage,upelelezi,s,maslahi,utokazo,magangao,sdf,NA,5,NA
59f2d,shallow,flow.Sequence,3_0_5_0_5_1,NA,NA,completion,8110.442,679239.79999995,679232.506,679248.799,687359.241,687366,2023-07-03T08:10:03Z,687375.37,NA,NA,NA,NA,NA,NA,NA,NA,NA,NA,NA,NA,NA,NA,NA,NA,NA,NA,NA,NA,Spionage,upelelezi,s,maslahi,utokazo,magangao,sdf,NA,5,NA
59f2d,task,flow.Sequence,3_0_5_0_5,NA,NA,completion,8110.442,679239.39999998,679232.506,679248.799,687359.241,687366.29999995,2023-07-03T08:10:03Z,687375.37,NA,NA,NA,NA,NA,NA,NA,NA,NA,NA,NA,NA,NA,NA,NA,NA,NA,NA,NA,NA,Spionage,upelelezi,s,maslahi,utokazo,magangao,sdf,NA,5,NA
59f2d,deep,flow.Sequence,3_0_5_0_6_0,NA,NA,skipped,NA,687366.39999998,NA,NA,687359.241,687366.5999999,2023-07-03T08:10:03Z,687375.37,NA,NA,NA,NA,NA,NA,NA,NA,NA,NA,NA,NA,NA,NA,NA,NA,NA,NA,NA,NA,Vorwurf,mashtaka,s,msukumo,mtangulizi,uenyekiti,sdf,NA,5,NA
59f2d,Shallow Question,html.Page,3_0_5_0_6_1_0,mashtaka,NA,form submission,5723.8299999285,687366.69999993,687359.241,687375.37,693099.19999993,693099.39999998,2023-07-03T08:10:09Z,693104.023,NA,NA,NA,NA,NA,NA,NA,NA,NA,NA,NA,NA,NA,NA,NA,NA,NA,NA,NA,NA,Vorwurf,mashtaka,s,msukumo,mtangulizi,uenyekiti,NA,NA,5,NA
59f2d,"""Richtig""-Screen",canvas.Screen,3_0_5_0_6_1_1,NA,NA,timeout,4996.3369999999,693101.19999993,693087.892,693104.023,698083.79,698084.69999993,2023-07-03T08:10:14Z,698100.36,NA,NA,NA,NA,NA,NA,NA,NA,NA,NA,NA,NA,NA,NA,NA,NA,NA,NA,NA,NA,Vorwurf,mashtaka,s,msukumo,mtangulizi,uenyekiti,sdf,1,5,NA
59f2d,"""Falsch""-Screen",canvas.Screen,3_0_5_0_6_1_2,NA,NA,skipped,NA,698090,NA,NA,698083.79,698090.29999995,2023-07-03T08:10:14Z,698100.36,NA,NA,NA,NA,NA,NA,NA,NA,NA,NA,NA,NA,NA,NA,NA,NA,NA,NA,NA,NA,Vorwurf,mashtaka,s,msukumo,mtangulizi,uenyekiti,sdf,NA,5,NA
59f2d,shallow,flow.Sequence,3_0_5_0_6_1,NA,NA,completion,10708.42,687366.69999993,687359.241,687375.37,698083.79,698090.29999995,2023-07-03T08:10:14Z,698100.36,NA,NA,NA,NA,NA,NA,NA,NA,NA,NA,NA,NA,NA,NA,NA,NA,NA,NA,NA,NA,Vorwurf,mashtaka,s,msukumo,mtangulizi,uenyekiti,sdf,NA,5,NA
59f2d,task,flow.Sequence,3_0_5_0_6,NA,NA,completion,10708.42,687366.39999998,687359.241,687375.37,698083.79,698090.39999998,2023-07-03T08:10:14Z,698100.36,NA,NA,NA,NA,NA,NA,NA,NA,NA,NA,NA,NA,NA,NA,NA,NA,NA,NA,NA,NA,Vorwurf,mashtaka,s,msukumo,mtangulizi,uenyekiti,sdf,NA,5,NA
59f2d,Deep Question,html.Page,3_0_5_0_7_0_0,mwangofienzi,NA,form submission,9735.3399999285,698090.5,698083.79,698100.36,707835.69999993,707835.89999998,2023-07-03T08:10:23Z,707841.929,NA,NA,NA,NA,NA,NA,NA,NA,NA,NA,NA,NA,NA,NA,NA,NA,NA,NA,NA,NA,Schüler,mwanafunzi,d,NA,NA,NA,NA,NA,5,NA
59f2d,"""Richtig""-Screen",canvas.Screen,3_0_5_0_7_0_1,NA,NA,skipped,NA,707838.39999998,NA,NA,707835.69999993,707838.5999999,2023-07-03T08:10:23Z,707841.929,NA,NA,NA,NA,NA,NA,NA,NA,NA,NA,NA,NA,NA,NA,NA,NA,NA,NA,NA,NA,Schüler,mwanafunzi,d,NA,NA,NA,sdf,NA,5,NA
59f2d,"""Falsch""-Screen",canvas.Screen,3_0_5_0_7_0_2,NA,NA,timeout,4996.1310000001,707839.5,707825.817,707841.929,712821.564,712822.5999999,2023-07-03T08:10:28Z,712838.06,NA,NA,NA,NA,NA,NA,NA,NA,NA,NA,NA,NA,NA,NA,NA,NA,NA,NA,NA,NA,Schüler,mwanafunzi,d,NA,NA,NA,sdf,0,5,NA
59f2d,deep,flow.Sequence,3_0_5_0_7_0,NA,NA,completion,14721.204,698090.5,698083.79,698100.36,712821.564,712822.89999998,2023-07-03T08:10:28Z,712838.06,NA,NA,NA,NA,NA,NA,NA,NA,NA,NA,NA,NA,NA,NA,NA,NA,NA,NA,NA,NA,Schüler,mwanafunzi,d,NA,NA,NA,sdf,NA,5,NA
59f2d,shallow,flow.Sequence,3_0_5_0_7_1,NA,NA,skipped,NA,712823.0999999,NA,NA,712821.564,712823.29999995,2023-07-03T08:10:28Z,712838.06,NA,NA,NA,NA,NA,NA,NA,NA,NA,NA,NA,NA,NA,NA,NA,NA,NA,NA,NA,NA,Schüler,mwanafunzi,d,NA,NA,NA,sdf,NA,5,NA
59f2d,task,flow.Sequence,3_0_5_0_7,NA,NA,completion,14721.204,698090.5,698083.79,698100.36,712821.564,712823.5999999,2023-07-03T08:10:28Z,712838.06,NA,NA,NA,NA,NA,NA,NA,NA,NA,NA,NA,NA,NA,NA,NA,NA,NA,NA,NA,NA,Schüler,mwanafunzi,d,NA,NA,NA,sdf,NA,5,NA
59f2d,block,flow.Loop,3_0_5_0,NA,NA,completion,95688.335,617120.29999995,617117.088,617133.229,712821.564,712823.89999998,2023-07-03T08:10:28Z,712838.06,NA,NA,NA,NA,NA,NA,NA,NA,NA,NA,NA,NA,NA,NA,NA,NA,NA,NA,NA,NA,NA,NA,NA,NA,NA,NA,sdf,NA,5,NA
59f2d,weiter,canvas.Screen,3_0_5_1,sdf,keypress(Space),response,901.93999999994,712824,712821.564,712838.06,713740,713741.19999993,2023-07-03T08:10:29Z,713786.974,NA,NA,NA,NA,NA,NA,NA,NA,NA,NA,NA,NA,NA,NA,NA,NA,NA,NA,NA,NA,NA,NA,NA,NA,NA,NA,sdf,NA,5,NA
59f2d,check continue,flow.Sequence,3_0_5,NA,NA,completion,96606.771,617120.19999993,617117.088,617133.229,713740,713741.5,2023-07-03T08:10:29Z,713786.974,NA,NA,NA,NA,NA,NA,NA,NA,NA,NA,NA,NA,NA,NA,NA,NA,NA,NA,NA,NA,NA,NA,NA,NA,NA,NA,sdf,NA,5,NA
59f2d,deep,flow.Sequence,3_0_6_0_0_0,NA,NA,skipped,NA,713783.79999995,NA,NA,713740,713783.79999995,2023-07-03T08:10:29Z,713786.974,NA,NA,NA,NA,NA,NA,NA,NA,NA,NA,NA,NA,NA,NA,NA,NA,NA,NA,NA,NA,Vorwurf,mashtaka,s,msukumo,mtangulizi,uenyekiti,dfs,NA,6,NA
59f2d,Shallow Question,html.Page,3_0_6_0_0_1_0,mashtaka,NA,form submission,4484.7259999284,713784,713770.875,713786.974,718271.69999993,718271.89999998,2023-07-03T08:10:34Z,718283.679,NA,NA,NA,NA,NA,NA,NA,NA,NA,NA,NA,NA,NA,NA,NA,NA,NA,NA,NA,NA,Vorwurf,mashtaka,s,msukumo,mtangulizi,uenyekiti,NA,NA,6,NA
59f2d,"""Richtig""-Screen",canvas.Screen,3_0_6_0_0_1_1,NA,NA,timeout,4996.088,718273.5999999,718266.719,718283.679,723263.224,723263.79999995,2023-07-03T08:10:39Z,723279.767,NA,NA,NA,NA,NA,NA,NA,NA,NA,NA,NA,NA,NA,NA,NA,NA,NA,NA,NA,NA,Vorwurf,mashtaka,s,msukumo,mtangulizi,uenyekiti,dfs,1,6,NA
59f2d,"""Falsch""-Screen",canvas.Screen,3_0_6_0_0_1_2,NA,NA,skipped,NA,723265.39999998,NA,NA,723263.224,723265.5,2023-07-03T08:10:39Z,723279.767,NA,NA,NA,NA,NA,NA,NA,NA,NA,NA,NA,NA,NA,NA,NA,NA,NA,NA,NA,NA,Vorwurf,mashtaka,s,msukumo,mtangulizi,uenyekiti,dfs,NA,6,NA
59f2d,shallow,flow.Sequence,3_0_6_0_0_1,NA,NA,completion,9476.25,713784,713770.875,713786.974,723263.224,723265.5999999,2023-07-03T08:10:39Z,723279.767,NA,NA,NA,NA,NA,NA,NA,NA,NA,NA,NA,NA,NA,NA,NA,NA,NA,NA,NA,NA,Vorwurf,mashtaka,s,msukumo,mtangulizi,uenyekiti,dfs,NA,6,NA
59f2d,task,flow.Sequence,3_0_6_0_0,NA,NA,completion,9476.25,713783.69999993,713770.875,713786.974,723263.224,723265.69999993,2023-07-03T08:10:39Z,723279.767,NA,NA,NA,NA,NA,NA,NA,NA,NA,NA,NA,NA,NA,NA,NA,NA,NA,NA,NA,NA,Vorwurf,mashtaka,s,msukumo,mtangulizi,uenyekiti,dfs,NA,6,NA
59f2d,Deep Question,html.Page,3_0_6_0_1_0_0,karatasi,NA,form submission,9391.5329999523,723265.79999995,723263.224,723279.767,732671.29999995,732671.5999999,2023-07-03T08:10:48Z,732688.579,NA,NA,NA,NA,NA,NA,NA,NA,NA,NA,NA,NA,NA,NA,NA,NA,NA,NA,NA,NA,Papier,karatasi,d,NA,NA,NA,NA,NA,6,NA
59f2d,"""Richtig""-Screen",canvas.Screen,3_0_6_0_1_0_1,NA,NA,timeout,4996.014,732673.5999999,732654.802,732688.579,737667.42,737669.0999999,2023-07-03T08:10:53Z,737684.593,NA,NA,NA,NA,NA,NA,NA,NA,NA,NA,NA,NA,NA,NA,NA,NA,NA,NA,NA,NA,Papier,karatasi,d,NA,NA,NA,dfs,1,6,NA
59f2d,"""Falsch""-Screen",canvas.Screen,3_0_6_0_1_0_2,NA,NA,skipped,NA,737671.5,NA,NA,737667.42,737671.69999993,2023-07-03T08:10:53Z,737684.593,NA,NA,NA,NA,NA,NA,NA,NA,NA,NA,NA,NA,NA,NA,NA,NA,NA,NA,NA,NA,Papier,karatasi,d,NA,NA,NA,dfs,NA,6,NA
59f2d,deep,flow.Sequence,3_0_6_0_1_0,NA,NA,completion,14387.653,723265.69999993,723263.224,723279.767,737667.42,737671.79999995,2023-07-03T08:10:53Z,737684.593,NA,NA,NA,NA,NA,NA,NA,NA,NA,NA,NA,NA,NA,NA,NA,NA,NA,NA,NA,NA,Papier,karatasi,d,NA,NA,NA,dfs,NA,6,NA
59f2d,shallow,flow.Sequence,3_0_6_0_1_1,NA,NA,skipped,NA,737671.89999998,NA,NA,737667.42,737672,2023-07-03T08:10:53Z,737684.593,NA,NA,NA,NA,NA,NA,NA,NA,NA,NA,NA,NA,NA,NA,NA,NA,NA,NA,NA,NA,Papier,karatasi,d,NA,NA,NA,dfs,NA,6,NA
59f2d,task,flow.Sequence,3_0_6_0_1,NA,NA,completion,14387.653,723265.69999993,723263.224,723279.767,737667.42,737672,2023-07-03T08:10:53Z,737684.593,NA,NA,NA,NA,NA,NA,NA,NA,NA,NA,NA,NA,NA,NA,NA,NA,NA,NA,NA,NA,Papier,karatasi,d,NA,NA,NA,dfs,NA,6,NA
59f2d,Deep Question,html.Page,3_0_6_0_2_0_0,kiwengo,NA,form submission,10097.106999928,737672.0999999,737667.42,737684.593,747781.69999993,747781.79999995,2023-07-03T08:11:03Z,747792.358,NA,NA,NA,NA,NA,NA,NA,NA,NA,NA,NA,NA,NA,NA,NA,NA,NA,NA,NA,NA,Tester,wanaojaribu,d,NA,NA,NA,NA,NA,6,NA
59f2d,"""Richtig""-Screen",canvas.Screen,3_0_6_0_2_0_1,NA,NA,skipped,NA,747784.29999995,NA,NA,747781.69999993,747784.39999998,2023-07-03T08:11:03Z,747792.358,NA,NA,NA,NA,NA,NA,NA,NA,NA,NA,NA,NA,NA,NA,NA,NA,NA,NA,NA,NA,Tester,wanaojaribu,d,NA,NA,NA,dfs,NA,6,NA
59f2d,"""Falsch""-Screen",canvas.Screen,3_0_6_0_2_0_2,NA,NA,timeout,4996.475,747786.0999999,747775.854,747792.358,752772.026,752773.0999999,2023-07-03T08:11:08Z,752788.833,NA,NA,NA,NA,NA,NA,NA,NA,NA,NA,NA,NA,NA,NA,NA,NA,NA,NA,NA,NA,Tester,wanaojaribu,d,NA,NA,NA,dfs,0,6,NA
59f2d,deep,flow.Sequence,3_0_6_0_2_0,NA,NA,completion,15087.433,737672.0999999,737667.42,737684.593,752772.026,752773.5,2023-07-03T08:11:08Z,752788.833,NA,NA,NA,NA,NA,NA,NA,NA,NA,NA,NA,NA,NA,NA,NA,NA,NA,NA,NA,NA,Tester,wanaojaribu,d,NA,NA,NA,dfs,NA,6,NA
59f2d,shallow,flow.Sequence,3_0_6_0_2_1,NA,NA,skipped,NA,752773.79999995,NA,NA,752772.026,752773.79999995,2023-07-03T08:11:08Z,752788.833,NA,NA,NA,NA,NA,NA,NA,NA,NA,NA,NA,NA,NA,NA,NA,NA,NA,NA,NA,NA,Tester,wanaojaribu,d,NA,NA,NA,dfs,NA,6,NA
59f2d,task,flow.Sequence,3_0_6_0_2,NA,NA,completion,15087.433,737672.0999999,737667.42,737684.593,752772.026,752774.0999999,2023-07-03T08:11:08Z,752788.833,NA,NA,NA,NA,NA,NA,NA,NA,NA,NA,NA,NA,NA,NA,NA,NA,NA,NA,NA,NA,Tester,wanaojaribu,d,NA,NA,NA,dfs,NA,6,NA
