observation,sender,sender_type,sender_id,response,response_action,ended_on,duration,time_run,time_render,time_show,time_end,time_commit,timestamp,time_switch,distractors,german,swahili,enc,distractor1,distractor2,distractor3,response_2,x,correct,x_2,url_vp,url_sess,meta_labjs_version,meta_location,meta_user_agent,meta_platform,meta_language,meta_locale,meta_time_zone,meta_timezone_offset,meta_screen_width,meta_screen_height,meta_scroll_width,meta_scroll_height,meta_window_inner_width,meta_window_inner_height,meta_device_pixel_ratio,meta_labjs_build_flavor,meta_labjs_build_commit
c50e7,Introduction general,canvas.Screen,0,weiter,keypress(q),response,1987406.3970004,2851.6000003815,1875.692,2400205.703,4387612.1000004,4387618.7000003,2023-06-19T15:58:18Z,4387620.571,NULL,NA,NA,NA,NA,NA,NA,NA,NA,NA,NA,220,1,20.2.4,https://neurocog.fernuni.ch/studies/vweber/sfink/encoding_immediate/index.html?vp=220&sess=1,"Mozilla/5.0 (Windows NT 10.0; Win64; x64) AppleWebKit/537.36 (KHTML, like Gecko) Chrome/114.0.0.0 Safari/537.36",Win32,de-CH,de,Europe/Zurich,-120,1536,864,1536,706,1536,754,1.25,production,f5b4a49f956347addd546a832a3327688c2c0fef
c50e7,Introduction practice,canvas.Screen,1_0,NA,keypress(Space),response,7064.029000381,4387619.6000004,4387602.457,4387620.571,4394684.6000004,4394685.5,2023-06-19T15:58:25Z,4394690.728,NULL,NA,NA,NA,NA,NA,NA,NA,NA,NA,NA,NA,NA,NA,NA,NA,NA,NA,NA,NA,NA,NA,NA,NA,NA,NA,NA,NA,NA,NA
c50e7,Deep Question,html.Page,1_1_0_0_0,NA,NA,form submission,14121.272,4394685.8000002,4394677.521,4394690.728,4408812,4408812.3000002,2023-06-19T15:58:39Z,4408828.9,"c(""distractor1"", ""distractor2"", ""distractor3"")",Schatten,kivuli,d,NA,NA,NA,schatten,NA,NA,NA,NA,NA,NA,NA,NA,NA,NA,NA,NA,NA,NA,NA,NA,NA,NA,NA,NA,NA,NA
c50e7,"""Richtig""-Screen",canvas.Screen,1_1_0_0_1,NA,NA,skipped,NA,4408814.3000002,NA,NA,4408812,4408814.6000004,2023-06-19T15:58:39Z,4408828.9,"c(""distractor1"", ""distractor2"", ""distractor3"")",Schatten,kivuli,d,NA,NA,NA,NA,NA,NA,NA,NA,NA,NA,NA,NA,NA,NA,NA,NA,NA,NA,NA,NA,NA,NA,NA,NA,NA,NA
c50e7,"""Falsch""-Screen",canvas.Screen,1_1_0_0_2,NA,NA,timeout,4995.4139999999,4408816.2000003,4408795.575,4408828.9,4413807.69,4413810.7000003,2023-06-19T15:58:44Z,4413824.314,"c(""distractor1"", ""distractor2"", ""distractor3"")",Schatten,kivuli,d,NA,NA,NA,NA,NA,0,NA,NA,NA,NA,NA,NA,NA,NA,NA,NA,NA,NA,NA,NA,NA,NA,NA,NA,NA,NA
c50e7,deep,flow.Sequence,1_1_0_0,NA,NA,completion,19116.962,4394685.8000002,4394677.521,4394690.728,4413807.69,4413811.1000004,2023-06-19T15:58:44Z,4413824.314,"c(""distractor1"", ""distractor2"", ""distractor3"")",Schatten,kivuli,d,NA,NA,NA,NA,NA,NA,NA,NA,NA,NA,NA,NA,NA,NA,NA,NA,NA,NA,NA,NA,NA,NA,NA,NA,NA,NA
c50e7,shallow,flow.Sequence,1_1_0_1,NA,NA,skipped,NA,4413811.3000002,NA,NA,4413807.69,4413811.5,2023-06-19T15:58:44Z,4413824.314,"c(""distractor1"", ""distractor2"", ""distractor3"")",Schatten,kivuli,d,NA,NA,NA,NA,NA,NA,NA,NA,NA,NA,NA,NA,NA,NA,NA,NA,NA,NA,NA,NA,NA,NA,NA,NA,NA,NA
c50e7,task,flow.Sequence,1_1_0,NA,NA,completion,19116.962,4394685.8000002,4394677.521,4394690.728,4413807.69,4413811.6000004,2023-06-19T15:58:44Z,4413824.314,"c(""distractor1"", ""distractor2"", ""distractor3"")",Schatten,kivuli,d,NA,NA,NA,NA,NA,NA,NA,NA,NA,NA,NA,NA,NA,NA,NA,NA,NA,NA,NA,NA,NA,NA,NA,NA,NA,NA
c50e7,Deep Question,html.Page,1_1_1_0_0,NA,NA,form submission,12930.786000381,4413811.8000002,4413807.69,4413824.314,4426755.1000004,4426755.4000001,2023-06-19T15:58:57Z,4426763.998,"c(""distractor1"", ""distractor2"", ""distractor3"")",Qualität,mtindo,d,NA,NA,NA,qualität,NA,NA,NA,NA,NA,NA,NA,NA,NA,NA,NA,NA,NA,NA,NA,NA,NA,NA,NA,NA,NA,NA
c50e7,"""Richtig""-Screen",canvas.Screen,1_1_1_0_1,NA,NA,skipped,NA,4426758.4000001,NA,NA,4426755.1000004,4426758.7000003,2023-06-19T15:58:57Z,4426763.998,"c(""distractor1"", ""distractor2"", ""distractor3"")",Qualität,mtindo,d,NA,NA,NA,NA,NA,NA,NA,NA,NA,NA,NA,NA,NA,NA,NA,NA,NA,NA,NA,NA,NA,NA,NA,NA,NA,NA
c50e7,"""Falsch""-Screen",canvas.Screen,1_1_1_0_2,NA,NA,timeout,5003.6809999999,4426760.2000003,4426743.268,4426763.998,4431751.026,4431751.7000003,2023-06-19T15:59:02Z,4431767.679,"c(""distractor1"", ""distractor2"", ""distractor3"")",Qualität,mtindo,d,NA,NA,NA,NA,NA,0,NA,NA,NA,NA,NA,NA,NA,NA,NA,NA,NA,NA,NA,NA,NA,NA,NA,NA,NA,NA
c50e7,deep,flow.Sequence,1_1_1_0,NA,NA,completion,17926.711999999,4413811.8000002,4413807.69,4413824.314,4431751.026,4431752.2000003,2023-06-19T15:59:02Z,4431767.679,"c(""distractor1"", ""distractor2"", ""distractor3"")",Qualität,mtindo,d,NA,NA,NA,NA,NA,NA,NA,NA,NA,NA,NA,NA,NA,NA,NA,NA,NA,NA,NA,NA,NA,NA,NA,NA,NA,NA
c50e7,shallow,flow.Sequence,1_1_1_1,NA,NA,skipped,NA,4431752.4000001,NA,NA,4431751.026,4431752.7000003,2023-06-19T15:59:02Z,4431767.679,"c(""distractor1"", ""distractor2"", ""distractor3"")",Qualität,mtindo,d,NA,NA,NA,NA,NA,NA,NA,NA,NA,NA,NA,NA,NA,NA,NA,NA,NA,NA,NA,NA,NA,NA,NA,NA,NA,NA
c50e7,task,flow.Sequence,1_1_1,NA,NA,completion,17926.711999999,4413811.7000003,4413807.69,4413824.314,4431751.026,4431753,2023-06-19T15:59:02Z,4431767.679,"c(""distractor1"", ""distractor2"", ""distractor3"")",Qualität,mtindo,d,NA,NA,NA,NA,NA,NA,NA,NA,NA,NA,NA,NA,NA,NA,NA,NA,NA,NA,NA,NA,NA,NA,NA,NA,NA,NA
c50e7,deep,flow.Sequence,1_1_2_0,NA,NA,skipped,NA,4431753.2000003,NA,NA,4431751.026,4431753.5,2023-06-19T15:59:02Z,4431767.679,"c(""distractor1"", ""distractor2"", ""distractor3"")",Rückhalt,msaada,s,muhula,auwali,kiwimbe,NA,NA,NA,NA,NA,NA,NA,NA,NA,NA,NA,NA,NA,NA,NA,NA,NA,NA,NA,NA,NA,NA,NA
c50e7,Shallow Question,html.Page,1_1_2_1_0,NA,NA,form submission,4980.2210000958,4431753.7000003,4431751.026,4431767.679,4436747.9000001,4436748.2000003,2023-06-19T15:59:07Z,4436749.882,"c(""distractor1"", ""distractor2"", ""distractor3"")",Rückhalt,msaada,s,muhula,auwali,kiwimbe,muhula,NA,NA,NA,NA,NA,NA,NA,NA,NA,NA,NA,NA,NA,NA,NA,NA,NA,NA,NA,NA,NA,NA
c50e7,"""Richtig""-Screen",canvas.Screen,1_1_2_1_1,NA,NA,skipped,NA,4436750.2000003,NA,NA,4436747.9000001,4436750.5,2023-06-19T15:59:07Z,4436749.882,"c(""distractor1"", ""distractor2"", ""distractor3"")",Rückhalt,msaada,s,muhula,auwali,kiwimbe,NA,NA,NA,NA,NA,NA,NA,NA,NA,NA,NA,NA,NA,NA,NA,NA,NA,NA,NA,NA,NA,NA,NA
c50e7,"""Falsch""-Screen",canvas.Screen,1_1_2_1_2,NA,NA,timeout,5007.8559999997,4436751.3000002,4436731.858,4436749.882,4441741.118,4441741.7000003,2023-06-19T15:59:12Z,4441757.738,"c(""distractor1"", ""distractor2"", ""distractor3"")",Rückhalt,msaada,s,muhula,auwali,kiwimbe,NA,NA,0,NA,NA,NA,NA,NA,NA,NA,NA,NA,NA,NA,NA,NA,NA,NA,NA,NA,NA,NA,NA
c50e7,shallow,flow.Sequence,1_1_2_1,NA,NA,completion,9973.4390000002,4431753.7000003,4431751.026,4431767.679,4441741.118,4441741.9000001,2023-06-19T15:59:12Z,4441757.738,"c(""distractor1"", ""distractor2"", ""distractor3"")",Rückhalt,msaada,s,muhula,auwali,kiwimbe,NA,NA,NA,NA,NA,NA,NA,NA,NA,NA,NA,NA,NA,NA,NA,NA,NA,NA,NA,NA,NA,NA,NA
c50e7,task,flow.Sequence,1_1_2,NA,NA,completion,9973.4390000002,4431753.2000003,4431751.026,4431767.679,4441741.118,4441742.1000004,2023-06-19T15:59:12Z,4441757.738,"c(""distractor1"", ""distractor2"", ""distractor3"")",Rückhalt,msaada,s,muhula,auwali,kiwimbe,NA,NA,NA,NA,NA,NA,NA,NA,NA,NA,NA,NA,NA,NA,NA,NA,NA,NA,NA,NA,NA,NA,NA
c50e7,deep,flow.Sequence,1_1_3_0,NA,NA,skipped,NA,4441742.2000003,NA,NA,4441741.118,4441742.4000001,2023-06-19T15:59:12Z,4441757.738,"c(""distractor1"", ""distractor2"", ""distractor3"")",Gegenwart,hadhara,s,katiba,jokofu,mikopo,NA,NA,NA,NA,NA,NA,NA,NA,NA,NA,NA,NA,NA,NA,NA,NA,NA,NA,NA,NA,NA,NA,NA
c50e7,Shallow Question,html.Page,1_1_3_1_0,NA,NA,form submission,3474.9620002862,4441742.5,4441741.118,4441757.738,4445232.7000003,4445233,2023-06-19T15:59:16Z,4445252.531,"c(""distractor1"", ""distractor2"", ""distractor3"")",Gegenwart,hadhara,s,katiba,jokofu,mikopo,katiba,NA,NA,NA,NA,NA,NA,NA,NA,NA,NA,NA,NA,NA,NA,NA,NA,NA,NA,NA,NA,NA,NA
c50e7,"""Richtig""-Screen",canvas.Screen,1_1_3_1_1,NA,NA,skipped,NA,4445235.5,NA,NA,4445232.7000003,4445235.7000003,2023-06-19T15:59:16Z,4445252.531,"c(""distractor1"", ""distractor2"", ""distractor3"")",Gegenwart,hadhara,s,katiba,jokofu,mikopo,NA,NA,NA,NA,NA,NA,NA,NA,NA,NA,NA,NA,NA,NA,NA,NA,NA,NA,NA,NA,NA,NA,NA
c50e7,"""Falsch""-Screen",canvas.Screen,1_1_3_1_2,NA,NA,timeout,4995.3629999999,4445236.9000001,4445218.478,4445252.531,4450231.238,4450231.9000001,2023-06-19T15:59:21Z,4450247.894,"c(""distractor1"", ""distractor2"", ""distractor3"")",Gegenwart,hadhara,s,katiba,jokofu,mikopo,NA,NA,0,NA,NA,NA,NA,NA,NA,NA,NA,NA,NA,NA,NA,NA,NA,NA,NA,NA,NA,NA,NA
c50e7,shallow,flow.Sequence,1_1_3_1,NA,NA,completion,8473.5,4441742.5,4441741.118,4441757.738,4450231.238,4450232.3000002,2023-06-19T15:59:21Z,4450247.894,"c(""distractor1"", ""distractor2"", ""distractor3"")",Gegenwart,hadhara,s,katiba,jokofu,mikopo,NA,NA,NA,NA,NA,NA,NA,NA,NA,NA,NA,NA,NA,NA,NA,NA,NA,NA,NA,NA,NA,NA,NA
c50e7,task,flow.Sequence,1_1_3,NA,NA,completion,8473.5,4441742.2000003,4441741.118,4441757.738,4450231.238,4450232.4000001,2023-06-19T15:59:21Z,4450247.894,"c(""distractor1"", ""distractor2"", ""distractor3"")",Gegenwart,hadhara,s,katiba,jokofu,mikopo,NA,NA,NA,NA,NA,NA,NA,NA,NA,NA,NA,NA,NA,NA,NA,NA,NA,NA,NA,NA,NA,NA,NA
c50e7,Deep Question,html.Page,1_1_4_0_0,NA,NA,form submission,4985.8060002858,4450232.7000003,4450231.238,4450247.894,4455233.7000003,4455234,2023-06-19T15:59:26Z,4455255.279,"c(""distractor1"", ""distractor2"", ""distractor3"")",Gesundheit,salama,d,NA,NA,NA,gesundhei,NA,NA,NA,NA,NA,NA,NA,NA,NA,NA,NA,NA,NA,NA,NA,NA,NA,NA,NA,NA,NA,NA
c50e7,"""Richtig""-Screen",canvas.Screen,1_1_4_0_1,NA,NA,skipped,NA,4455236.9000001,NA,NA,4455233.7000003,4455237.1000004,2023-06-19T15:59:26Z,4455255.279,"c(""distractor1"", ""distractor2"", ""distractor3"")",Gesundheit,salama,d,NA,NA,NA,NA,NA,NA,NA,NA,NA,NA,NA,NA,NA,NA,NA,NA,NA,NA,NA,NA,NA,NA,NA,NA,NA,NA
c50e7,"""Falsch""-Screen",canvas.Screen,1_1_4_0_2,NA,NA,timeout,5007.125,4455238.3000002,4455221.15,4455255.279,4460245.755,4460246.4000001,2023-06-19T15:59:31Z,4460262.404,"c(""distractor1"", ""distractor2"", ""distractor3"")",Gesundheit,salama,d,NA,NA,NA,NA,NA,0,NA,NA,NA,NA,NA,NA,NA,NA,NA,NA,NA,NA,NA,NA,NA,NA,NA,NA,NA,NA
c50e7,deep,flow.Sequence,1_1_4_0,NA,NA,completion,9997.8609999996,4450232.6000004,4450231.238,4450247.894,4460245.755,4460246.6000004,2023-06-19T15:59:31Z,4460262.404,"c(""distractor1"", ""distractor2"", ""distractor3"")",Gesundheit,salama,d,NA,NA,NA,NA,NA,NA,NA,NA,NA,NA,NA,NA,NA,NA,NA,NA,NA,NA,NA,NA,NA,NA,NA,NA,NA,NA
c50e7,shallow,flow.Sequence,1_1_4_1,NA,NA,skipped,NA,4460246.8000002,NA,NA,4460245.755,4460247,2023-06-19T15:59:31Z,4460262.404,"c(""distractor1"", ""distractor2"", ""distractor3"")",Gesundheit,salama,d,NA,NA,NA,NA,NA,NA,NA,NA,NA,NA,NA,NA,NA,NA,NA,NA,NA,NA,NA,NA,NA,NA,NA,NA,NA,NA
c50e7,task,flow.Sequence,1_1_4,NA,NA,completion,9997.8609999996,4450232.6000004,4450231.238,4450247.894,4460245.755,4460247.1000004,2023-06-19T15:59:31Z,4460262.404,"c(""distractor1"", ""distractor2"", ""distractor3"")",Gesundheit,salama,d,NA,NA,NA,NA,NA,NA,NA,NA,NA,NA,NA,NA,NA,NA,NA,NA,NA,NA,NA,NA,NA,NA,NA,NA,NA,NA
c50e7,deep,flow.Sequence,1_1_5_0,NA,NA,skipped,NA,4460247.2000003,NA,NA,4460245.755,4460247.3000002,2023-06-19T15:59:31Z,4460262.404,"c(""distractor1"", ""distractor2"", ""distractor3"")",Kritik,lawama,s,dereva,nafasi,mawazo,NA,NA,NA,NA,NA,NA,NA,NA,NA,NA,NA,NA,NA,NA,NA,NA,NA,NA,NA,NA,NA,NA,NA
c50e7,Shallow Question,html.Page,1_1_5_1_0,NA,NA,form submission,4261.8960001906,4460247.5,4460245.755,4460262.404,4464524.3000002,4464524.5,2023-06-19T15:59:35Z,4464531.946,"c(""distractor1"", ""distractor2"", ""distractor3"")",Kritik,lawama,s,dereva,nafasi,mawazo,dereva,NA,NA,NA,NA,NA,NA,NA,NA,NA,NA,NA,NA,NA,NA,NA,NA,NA,NA,NA,NA,NA,NA
c50e7,"""Richtig""-Screen",canvas.Screen,1_1_5_1_1,NA,NA,skipped,NA,4464527.2000003,NA,NA,4464524.3000002,4464527.3000002,2023-06-19T15:59:35Z,4464531.946,"c(""distractor1"", ""distractor2"", ""distractor3"")",Kritik,lawama,s,dereva,nafasi,mawazo,NA,NA,NA,NA,NA,NA,NA,NA,NA,NA,NA,NA,NA,NA,NA,NA,NA,NA,NA,NA,NA,NA,NA
c50e7,"""Falsch""-Screen",canvas.Screen,1_1_5_1_2,NA,NA,timeout,4999.5829999996,4464528.2000003,4464518.208,4464531.946,4469514.883,4469515.3000002,2023-06-19T15:59:40Z,4469531.529,"c(""distractor1"", ""distractor2"", ""distractor3"")",Kritik,lawama,s,dereva,nafasi,mawazo,NA,NA,0,NA,NA,NA,NA,NA,NA,NA,NA,NA,NA,NA,NA,NA,NA,NA,NA,NA,NA,NA,NA
c50e7,shallow,flow.Sequence,1_1_5_1,NA,NA,completion,9252.4790000003,4460247.4000001,4460245.755,4460262.404,4469514.883,4469515.6000004,2023-06-19T15:59:40Z,4469531.529,"c(""distractor1"", ""distractor2"", ""distractor3"")",Kritik,lawama,s,dereva,nafasi,mawazo,NA,NA,NA,NA,NA,NA,NA,NA,NA,NA,NA,NA,NA,NA,NA,NA,NA,NA,NA,NA,NA,NA,NA
c50e7,task,flow.Sequence,1_1_5,NA,NA,completion,9252.4790000003,4460247.1000004,4460245.755,4460262.404,4469514.883,4469515.6000004,2023-06-19T15:59:40Z,4469531.529,"c(""distractor1"", ""distractor2"", ""distractor3"")",Kritik,lawama,s,dereva,nafasi,mawazo,NA,NA,NA,NA,NA,NA,NA,NA,NA,NA,NA,NA,NA,NA,NA,NA,NA,NA,NA,NA,NA,NA,NA
c50e7,block,flow.Loop,1_1,NA,NA,completion,74824.155,4394685.7000003,4394677.521,4394690.728,4469514.883,4469515.9000001,2023-06-19T15:59:40Z,4469531.529,"c(""distractor1"", ""distractor2"", ""distractor3"")",NA,NA,NA,NA,NA,NA,NA,NA,NA,NA,NA,NA,NA,NA,NA,NA,NA,NA,NA,NA,NA,NA,NA,NA,NA,NA,NA,NA,NA
c50e7,Practice,flow.Sequence,1,NA,NA,completion,81894.312,4387619.5,4387602.457,4387620.571,4469514.883,4469516.1000004,2023-06-19T15:59:40Z,4469531.529,NULL,NA,NA,NA,NA,NA,NA,NA,NA,NA,NA,NA,NA,NA,NA,NA,NA,NA,NA,NA,NA,NA,NA,NA,NA,NA,NA,NA,NA,NA
c50e7,Experiment start,canvas.Screen,2,weiter,keypress(q),response,4255.5710003814,4469516.2000003,4469514.883,4469531.529,4473787.1000004,4473787.9000001,2023-06-19T15:59:44Z,4473902.083,NULL,NA,NA,NA,NA,NA,NA,NA,NA,NA,NA,NA,NA,NA,NA,NA,NA,NA,NA,NA,NA,NA,NA,NA,NA,NA,NA,NA,NA,NA
c50e7,Deep Question,html.Page,3_0_0_0_0_0_0,NA,NA,form submission,5757.7170001911,4473898.6000004,4473894.359,4473902.083,4479659.8000002,4479660,2023-06-19T15:59:50Z,4479662.907,NULL,System,maongozi,d,NA,NA,NA,zuung,NA,NA,0,NA,NA,NA,NA,NA,NA,NA,NA,NA,NA,NA,NA,NA,NA,NA,NA,NA,NA,NA
c50e7,"""Richtig""-Screen",canvas.Screen,3_0_0_0_0_0_1,NA,NA,skipped,NA,4479662.5,NA,NA,4479659.8000002,4479662.7000003,2023-06-19T15:59:50Z,4479662.907,NULL,System,maongozi,d,NA,NA,NA,NA,sdf,NA,0,NA,NA,NA,NA,NA,NA,NA,NA,NA,NA,NA,NA,NA,NA,NA,NA,NA,NA,NA
c50e7,"""Falsch""-Screen",canvas.Screen,3_0_0_0_0_0_2,NA,NA,timeout,5008.0690000001,4479663.5,4479658.591,4479662.907,4484654.281,4484654.8000002,2023-06-19T15:59:55Z,4484670.976,NULL,System,maongozi,d,NA,NA,NA,NA,sdf,0,0,NA,NA,NA,NA,NA,NA,NA,NA,NA,NA,NA,NA,NA,NA,NA,NA,NA,NA,NA
c50e7,deep,flow.Sequence,3_0_0_0_0_0,NA,NA,completion,10752.198000001,4473898.6000004,4473894.359,4473902.083,4484654.281,4484655,2023-06-19T15:59:55Z,4484670.976,NULL,System,maongozi,d,NA,NA,NA,NA,sdf,NA,0,NA,NA,NA,NA,NA,NA,NA,NA,NA,NA,NA,NA,NA,NA,NA,NA,NA,NA,NA
c50e7,shallow,flow.Sequence,3_0_0_0_0_1,NA,NA,skipped,NA,4484655,NA,NA,4484654.281,4484655.2000003,2023-06-19T15:59:55Z,4484670.976,NULL,System,maongozi,d,NA,NA,NA,NA,sdf,NA,0,NA,NA,NA,NA,NA,NA,NA,NA,NA,NA,NA,NA,NA,NA,NA,NA,NA,NA,NA
c50e7,task,flow.Sequence,3_0_0_0_0,NA,NA,completion,10752.198000001,4473898.5,4473894.359,4473902.083,4484654.281,4484655.2000003,2023-06-19T15:59:55Z,4484670.976,NULL,System,maongozi,d,NA,NA,NA,NA,sdf,NA,0,NA,NA,NA,NA,NA,NA,NA,NA,NA,NA,NA,NA,NA,NA,NA,NA,NA,NA,NA
c50e7,Deep Question,html.Page,3_0_0_0_1_0_0,NA,NA,form submission,5746.4240000956,4484655.3000002,4484654.281,4484670.976,4490417.4000001,4490417.7000003,2023-06-19T16:00:01Z,4490432.149,NULL,Lawine,banguko,d,NA,NA,NA,ungu,NA,NA,0,NA,NA,NA,NA,NA,NA,NA,NA,NA,NA,NA,NA,NA,NA,NA,NA,NA,NA,NA
c50e7,"""Richtig""-Screen",canvas.Screen,3_0_0_0_1_0_1,NA,NA,skipped,NA,4490420.2000003,NA,NA,4490417.4000001,4490420.4000001,2023-06-19T16:00:01Z,4490432.149,NULL,Lawine,banguko,d,NA,NA,NA,NA,sdf,NA,0,NA,NA,NA,NA,NA,NA,NA,NA,NA,NA,NA,NA,NA,NA,NA,NA,NA,NA,NA
c50e7,"""Falsch""-Screen",canvas.Screen,3_0_0_0_1_0_2,NA,NA,timeout,4995.2910000002,4490421.2000003,4490411.05,4490432.149,4495410.777,4495411.4000001,2023-06-19T16:00:06Z,4495427.44,NULL,Lawine,banguko,d,NA,NA,NA,NA,sdf,0,0,NA,NA,NA,NA,NA,NA,NA,NA,NA,NA,NA,NA,NA,NA,NA,NA,NA,NA,NA
c50e7,deep,flow.Sequence,3_0_0_0_1_0,NA,NA,completion,10739.801,4484655.3000002,4484654.281,4484670.976,4495410.777,4495411.7000003,2023-06-19T16:00:06Z,4495427.44,NULL,Lawine,banguko,d,NA,NA,NA,NA,sdf,NA,0,NA,NA,NA,NA,NA,NA,NA,NA,NA,NA,NA,NA,NA,NA,NA,NA,NA,NA,NA
c50e7,shallow,flow.Sequence,3_0_0_0_1_1,NA,NA,skipped,NA,4495411.9000001,NA,NA,4495410.777,4495412,2023-06-19T16:00:06Z,4495427.44,NULL,Lawine,banguko,d,NA,NA,NA,NA,sdf,NA,0,NA,NA,NA,NA,NA,NA,NA,NA,NA,NA,NA,NA,NA,NA,NA,NA,NA,NA,NA
c50e7,task,flow.Sequence,3_0_0_0_1,NA,NA,completion,10739.801,4484655.3000002,4484654.281,4484670.976,4495410.777,4495412.3000002,2023-06-19T16:00:06Z,4495427.44,NULL,Lawine,banguko,d,NA,NA,NA,NA,sdf,NA,0,NA,NA,NA,NA,NA,NA,NA,NA,NA,NA,NA,NA,NA,NA,NA,NA,NA,NA,NA
c50e7,Deep Question,html.Page,3_0_0_0_2_0_0,NA,NA,form submission,5656.6600003811,4495412.5,4495410.777,4495427.44,4501084.1000004,4501084.3000002,2023-06-19T16:00:11Z,4501092.938,NULL,Konkurrent,mshindani,d,NA,NA,NA,kuk,NA,NA,0,NA,NA,NA,NA,NA,NA,NA,NA,NA,NA,NA,NA,NA,NA,NA,NA,NA,NA,NA
c50e7,"""Richtig""-Screen",canvas.Screen,3_0_0_0_2_0_1,NA,NA,skipped,NA,4501086.9000001,NA,NA,4501084.1000004,4501087.1000004,2023-06-19T16:00:11Z,4501092.938,NULL,Konkurrent,mshindani,d,NA,NA,NA,NA,sdf,NA,0,NA,NA,NA,NA,NA,NA,NA,NA,NA,NA,NA,NA,NA,NA,NA,NA,NA,NA,NA
c50e7,"""Falsch""-Screen",canvas.Screen,3_0_0_0_2_0_2,NA,NA,timeout,4999.6409999998,4501088.1000004,4501076.38,4501092.938,4506075.936,4506076.7000003,2023-06-19T16:00:16Z,4506092.579,NULL,Konkurrent,mshindani,d,NA,NA,NA,NA,sdf,0,0,NA,NA,NA,NA,NA,NA,NA,NA,NA,NA,NA,NA,NA,NA,NA,NA,NA,NA,NA
c50e7,deep,flow.Sequence,3_0_0_0_2_0,NA,NA,completion,10648.495999999,4495412.4000001,4495410.777,4495427.44,4506075.936,4506077.1000004,2023-06-19T16:00:16Z,4506092.579,NULL,Konkurrent,mshindani,d,NA,NA,NA,NA,sdf,NA,0,NA,NA,NA,NA,NA,NA,NA,NA,NA,NA,NA,NA,NA,NA,NA,NA,NA,NA,NA
c50e7,shallow,flow.Sequence,3_0_0_0_2_1,NA,NA,skipped,NA,4506077.3000002,NA,NA,4506075.936,4506077.4000001,2023-06-19T16:00:16Z,4506092.579,NULL,Konkurrent,mshindani,d,NA,NA,NA,NA,sdf,NA,0,NA,NA,NA,NA,NA,NA,NA,NA,NA,NA,NA,NA,NA,NA,NA,NA,NA,NA,NA
c50e7,task,flow.Sequence,3_0_0_0_2,NA,NA,completion,10648.495999999,4495412.3000002,4495410.777,4495427.44,4506075.936,4506077.7000003,2023-06-19T16:00:16Z,4506092.579,NULL,Konkurrent,mshindani,d,NA,NA,NA,NA,sdf,NA,0,NA,NA,NA,NA,NA,NA,NA,NA,NA,NA,NA,NA,NA,NA,NA,NA,NA,NA,NA
c50e7,deep,flow.Sequence,3_0_0_0_3_0,NA,NA,skipped,NA,4506077.9000001,NA,NA,4506075.936,4506078,2023-06-19T16:00:16Z,4506092.579,NULL,Übersicht,kilindo,s,mgusano,chipukizi,kulinganisha,NA,sdf,NA,0,NA,NA,NA,NA,NA,NA,NA,NA,NA,NA,NA,NA,NA,NA,NA,NA,NA,NA,NA
c50e7,Shallow Question,html.Page,3_0_0_0_3_1_0,NA,NA,form submission,9092.3210000955,4506078.1000004,4506075.936,4506092.579,4515184.9000001,4515185.3000002,2023-06-19T16:00:26Z,4515197.434,NULL,Übersicht,kilindo,s,mgusano,chipukizi,kulinganisha,mgusano,NA,NA,0,NA,NA,NA,NA,NA,NA,NA,NA,NA,NA,NA,NA,NA,NA,NA,NA,NA,NA,NA
c50e7,"""Richtig""-Screen",canvas.Screen,3_0_0_0_3_1_1,NA,NA,skipped,NA,4515188.6000004,NA,NA,4515184.9000001,4515188.9000001,2023-06-19T16:00:26Z,4515197.434,NULL,Übersicht,kilindo,s,mgusano,chipukizi,kulinganisha,NA,sdf,NA,0,NA,NA,NA,NA,NA,NA,NA,NA,NA,NA,NA,NA,NA,NA,NA,NA,NA,NA,NA
c50e7,"""Falsch""-Screen",canvas.Screen,3_0_0_0_3_1_2,NA,NA,timeout,4990.6559999995,4515189.9000001,4515168.293,4515197.434,4520171.968,4520172.8000002,2023-06-19T16:00:31Z,4520188.09,NULL,Übersicht,kilindo,s,mgusano,chipukizi,kulinganisha,NA,sdf,0,0,NA,NA,NA,NA,NA,NA,NA,NA,NA,NA,NA,NA,NA,NA,NA,NA,NA,NA,NA
c50e7,shallow,flow.Sequence,3_0_0_0_3_1,NA,NA,completion,14079.389,4506078.1000004,4506075.936,4506092.579,4520171.968,4520173.1000004,2023-06-19T16:00:31Z,4520188.09,NULL,Übersicht,kilindo,s,mgusano,chipukizi,kulinganisha,NA,sdf,NA,0,NA,NA,NA,NA,NA,NA,NA,NA,NA,NA,NA,NA,NA,NA,NA,NA,NA,NA,NA
c50e7,task,flow.Sequence,3_0_0_0_3,NA,NA,completion,14079.389,4506077.8000002,4506075.936,4506092.579,4520171.968,4520173.2000003,2023-06-19T16:00:31Z,4520188.09,NULL,Übersicht,kilindo,s,mgusano,chipukizi,kulinganisha,NA,sdf,NA,0,NA,NA,NA,NA,NA,NA,NA,NA,NA,NA,NA,NA,NA,NA,NA,NA,NA,NA,NA
c50e7,deep,flow.Sequence,3_0_0_0_4_0,NA,NA,skipped,NA,4520173.3000002,NA,NA,4520171.968,4520173.4000001,2023-06-19T16:00:31Z,4520188.09,NULL,Zuwachs,nyongeza,s,matilaba,udhibiti,hudhurio,NA,sdf,NA,0,NA,NA,NA,NA,NA,NA,NA,NA,NA,NA,NA,NA,NA,NA,NA,NA,NA,NA,NA
c50e7,Shallow Question,html.Page,3_0_0_0_4_1_0,NA,NA,form submission,6458.4100000001,4520173.6000004,4520171.968,4520188.09,4526646.5,4526646.9000001,2023-06-19T16:00:37Z,4526656.43,NULL,Zuwachs,nyongeza,s,matilaba,udhibiti,hudhurio,hudhurio,NA,NA,0,NA,NA,NA,NA,NA,NA,NA,NA,NA,NA,NA,NA,NA,NA,NA,NA,NA,NA,NA
c50e7,"""Richtig""-Screen",canvas.Screen,3_0_0_0_4_1_1,NA,NA,skipped,NA,4526649.1000004,NA,NA,4526646.5,4526649.3000002,2023-06-19T16:00:37Z,4526656.43,NULL,Zuwachs,nyongeza,s,matilaba,udhibiti,hudhurio,NA,sdf,NA,0,NA,NA,NA,NA,NA,NA,NA,NA,NA,NA,NA,NA,NA,NA,NA,NA,NA,NA,NA
c50e7,"""Falsch""-Screen",canvas.Screen,3_0_0_0_4_1_2,NA,NA,timeout,4999.5590000004,4526649.9000001,4526634.512,4526656.43,4531639.331,4531640,2023-06-19T16:00:42Z,4531655.989,NULL,Zuwachs,nyongeza,s,matilaba,udhibiti,hudhurio,NA,sdf,0,0,NA,NA,NA,NA,NA,NA,NA,NA,NA,NA,NA,NA,NA,NA,NA,NA,NA,NA,NA
c50e7,shallow,flow.Sequence,3_0_0_0_4_1,NA,NA,completion,11451.241,4520173.6000004,4520171.968,4520188.09,4531639.331,4531640.3000002,2023-06-19T16:00:42Z,4531655.989,NULL,Zuwachs,nyongeza,s,matilaba,udhibiti,hudhurio,NA,sdf,NA,0,NA,NA,NA,NA,NA,NA,NA,NA,NA,NA,NA,NA,NA,NA,NA,NA,NA,NA,NA
c50e7,task,flow.Sequence,3_0_0_0_4,NA,NA,completion,11451.241,4520173.3000002,4520171.968,4520188.09,4531639.331,4531640.5,2023-06-19T16:00:42Z,4531655.989,NULL,Zuwachs,nyongeza,s,matilaba,udhibiti,hudhurio,NA,sdf,NA,0,NA,NA,NA,NA,NA,NA,NA,NA,NA,NA,NA,NA,NA,NA,NA,NA,NA,NA,NA
c50e7,deep,flow.Sequence,3_0_0_0_5_0,NA,NA,skipped,NA,4531640.7000003,NA,NA,4531639.331,4531640.9000001,2023-06-19T16:00:42Z,4531655.989,NULL,Symbol,kielezo,s,kinyume,nderemo,utayari,NA,sdf,NA,0,NA,NA,NA,NA,NA,NA,NA,NA,NA,NA,NA,NA,NA,NA,NA,NA,NA,NA,NA
c50e7,Shallow Question,html.Page,3_0_0_0_5_1_0,NA,NA,form submission,6003.9110000953,4531641,4531639.331,4531655.989,4537659.9000001,4537660.1000004,2023-06-19T16:00:48Z,4537679.426,NULL,Symbol,kielezo,s,kinyume,nderemo,utayari,nderemo,NA,NA,0,NA,NA,NA,NA,NA,NA,NA,NA,NA,NA,NA,NA,NA,NA,NA,NA,NA,NA,NA
c50e7,"""Richtig""-Screen",canvas.Screen,3_0_0_0_5_1_1,NA,NA,skipped,NA,4537663.2000003,NA,NA,4537659.9000001,4537663.4000001,2023-06-19T16:00:48Z,4537679.426,NULL,Symbol,kielezo,s,kinyume,nderemo,utayari,NA,sdf,NA,0,NA,NA,NA,NA,NA,NA,NA,NA,NA,NA,NA,NA,NA,NA,NA,NA,NA,NA,NA
c50e7,"""Falsch""-Screen",canvas.Screen,3_0_0_0_5_1_2,NA,NA,timeout,5003.7620000001,4537664.2000003,4537657.851,4537679.426,4542666.546,4542667.2000003,2023-06-19T16:00:53Z,4542683.188,NULL,Symbol,kielezo,s,kinyume,nderemo,utayari,NA,sdf,0,0,NA,NA,NA,NA,NA,NA,NA,NA,NA,NA,NA,NA,NA,NA,NA,NA,NA,NA,NA
c50e7,shallow,flow.Sequence,3_0_0_0_5_1,NA,NA,completion,11010.557,4531641,4531639.331,4531655.989,4542666.546,4542667.4000001,2023-06-19T16:00:53Z,4542683.188,NULL,Symbol,kielezo,s,kinyume,nderemo,utayari,NA,sdf,NA,0,NA,NA,NA,NA,NA,NA,NA,NA,NA,NA,NA,NA,NA,NA,NA,NA,NA,NA,NA
c50e7,task,flow.Sequence,3_0_0_0_5,NA,NA,completion,11010.557,4531640.7000003,4531639.331,4531655.989,4542666.546,4542667.7000003,2023-06-19T16:00:53Z,4542683.188,NULL,Symbol,kielezo,s,kinyume,nderemo,utayari,NA,sdf,NA,0,NA,NA,NA,NA,NA,NA,NA,NA,NA,NA,NA,NA,NA,NA,NA,NA,NA,NA,NA
c50e7,Deep Question,html.Page,3_0_0_0_6_0_0,NA,NA,form submission,6184.7120000953,4542668,4542666.546,4542683.188,4548867.9000001,4548868.1000004,2023-06-19T16:00:59Z,4548868.997,NULL,Vorsorge,tahadhari,d,NA,NA,NA,kili,NA,NA,0,NA,NA,NA,NA,NA,NA,NA,NA,NA,NA,NA,NA,NA,NA,NA,NA,NA,NA,NA
c50e7,"""Richtig""-Screen",canvas.Screen,3_0_0_0_6_0_1,NA,NA,skipped,NA,4548871.2000003,NA,NA,4548867.9000001,4548871.4000001,2023-06-19T16:00:59Z,4548868.997,NULL,Vorsorge,tahadhari,d,NA,NA,NA,NA,sdf,NA,0,NA,NA,NA,NA,NA,NA,NA,NA,NA,NA,NA,NA,NA,NA,NA,NA,NA,NA,NA
c50e7,"""Falsch""-Screen",canvas.Screen,3_0_0_0_6_0_2,NA,NA,timeout,4995.3929999992,4548872.5,4548852.297,4548868.997,4553847.743,4553848.4000001,2023-06-19T16:01:04Z,4553864.39,NULL,Vorsorge,tahadhari,d,NA,NA,NA,NA,sdf,0,0,NA,NA,NA,NA,NA,NA,NA,NA,NA,NA,NA,NA,NA,NA,NA,NA,NA,NA,NA
c50e7,deep,flow.Sequence,3_0_0_0_6_0,NA,NA,completion,11164.555,4542668,4542666.546,4542683.188,4553847.743,4553848.6000004,2023-06-19T16:01:04Z,4553864.39,NULL,Vorsorge,tahadhari,d,NA,NA,NA,NA,sdf,NA,0,NA,NA,NA,NA,NA,NA,NA,NA,NA,NA,NA,NA,NA,NA,NA,NA,NA,NA,NA
c50e7,shallow,flow.Sequence,3_0_0_0_6_1,NA,NA,skipped,NA,4553848.7000003,NA,NA,4553847.743,4553848.9000001,2023-06-19T16:01:04Z,4553864.39,NULL,Vorsorge,tahadhari,d,NA,NA,NA,NA,sdf,NA,0,NA,NA,NA,NA,NA,NA,NA,NA,NA,NA,NA,NA,NA,NA,NA,NA,NA,NA,NA
c50e7,task,flow.Sequence,3_0_0_0_6,NA,NA,completion,11164.555,4542667.9000001,4542666.546,4542683.188,4553847.743,4553849,2023-06-19T16:01:04Z,4553864.39,NULL,Vorsorge,tahadhari,d,NA,NA,NA,NA,sdf,NA,0,NA,NA,NA,NA,NA,NA,NA,NA,NA,NA,NA,NA,NA,NA,NA,NA,NA,NA,NA
c50e7,deep,flow.Sequence,3_0_0_0_7_0,NA,NA,skipped,NA,4553849.2000003,NA,NA,4553847.743,4553849.2000003,2023-06-19T16:01:04Z,4553864.39,NULL,Körper,kiwiliwili,s,mapambano,mpatanishi,kiolezo,NA,sdf,NA,0,NA,NA,NA,NA,NA,NA,NA,NA,NA,NA,NA,NA,NA,NA,NA,NA,NA,NA,NA
c50e7,Shallow Question,html.Page,3_0_0_0_7_1_0,NA,NA,form submission,8817.9100001911,4553849.3000002,4553847.743,4553864.39,4562682.3000002,4562682.5,2023-06-19T16:01:13Z,4562699.837,NULL,Körper,kiwiliwili,s,mapambano,mpatanishi,kiolezo,mapambano,NA,NA,0,NA,NA,NA,NA,NA,NA,NA,NA,NA,NA,NA,NA,NA,NA,NA,NA,NA,NA,NA
c50e7,"""Richtig""-Screen",canvas.Screen,3_0_0_0_7_1_1,NA,NA,skipped,NA,4562684.3000002,NA,NA,4562682.3000002,4562684.6000004,2023-06-19T16:01:13Z,4562699.837,NULL,Körper,kiwiliwili,s,mapambano,mpatanishi,kiolezo,NA,sdf,NA,0,NA,NA,NA,NA,NA,NA,NA,NA,NA,NA,NA,NA,NA,NA,NA,NA,NA,NA,NA
c50e7,"""Falsch""-Screen",canvas.Screen,3_0_0_0_7_1_2,NA,NA,timeout,5003.7799999993,4562685.1000004,4562680.926,4562699.837,4567686.973,4567687.5,2023-06-19T16:01:18Z,4567703.617,NULL,Körper,kiwiliwili,s,mapambano,mpatanishi,kiolezo,NA,sdf,0,0,NA,NA,NA,NA,NA,NA,NA,NA,NA,NA,NA,NA,NA,NA,NA,NA,NA,NA,NA
c50e7,shallow,flow.Sequence,3_0_0_0_7_1,NA,NA,completion,13822.583000001,4553849.3000002,4553847.743,4553864.39,4567686.973,4567687.8000002,2023-06-19T16:01:18Z,4567703.617,NULL,Körper,kiwiliwili,s,mapambano,mpatanishi,kiolezo,NA,sdf,NA,0,NA,NA,NA,NA,NA,NA,NA,NA,NA,NA,NA,NA,NA,NA,NA,NA,NA,NA,NA
c50e7,task,flow.Sequence,3_0_0_0_7,NA,NA,completion,13822.583000001,4553849.1000004,4553847.743,4553864.39,4567686.973,4567687.9000001,2023-06-19T16:01:18Z,4567703.617,NULL,Körper,kiwiliwili,s,mapambano,mpatanishi,kiolezo,NA,sdf,NA,0,NA,NA,NA,NA,NA,NA,NA,NA,NA,NA,NA,NA,NA,NA,NA,NA,NA,NA,NA
c50e7,block,flow.Loop,3_0_0_0,NA,NA,completion,93784.890000001,4473898.4000001,4473894.359,4473902.083,4567686.973,4567688.2000003,2023-06-19T16:01:18Z,4567703.617,NULL,NA,NA,NA,NA,NA,NA,NA,sdf,NA,0,NA,NA,NA,NA,NA,NA,NA,NA,NA,NA,NA,NA,NA,NA,NA,NA,NA,NA,NA
c50e7,weiter,canvas.Screen,3_0_0_1,sdf,keypress(Space),response,2065.3830000004,4567688.3000002,4567686.973,4567703.617,4569769,4569769.8000002,2023-06-19T16:01:20Z,4569861.858,NULL,NA,NA,NA,NA,NA,NA,NA,sdf,NA,0,NA,NA,NA,NA,NA,NA,NA,NA,NA,NA,NA,NA,NA,NA,NA,NA,NA,NA,NA
c50e7,check continue,flow.Sequence,3_0_0,NA,NA,completion,95866.917,4473898.4000001,4473894.359,4473902.083,4569769,4569770.1000004,2023-06-19T16:01:20Z,4569861.858,NULL,NA,NA,NA,NA,NA,NA,NA,sdf,NA,0,NA,NA,NA,NA,NA,NA,NA,NA,NA,NA,NA,NA,NA,NA,NA,NA,NA,NA,NA
c50e7,Deep Question,html.Page,3_0_1_0_0_0_0,NA,NA,form submission,9002.0420000954,4569834.6000004,4569845.202,4569861.858,4578863.9000001,4578864.2000003,2023-06-19T16:01:29Z,4578867.289,NULL,Lawine,banguko,d,NA,NA,NA,bankung,NA,NA,1,NA,NA,NA,NA,NA,NA,NA,NA,NA,NA,NA,NA,NA,NA,NA,NA,NA,NA,NA
c50e7,"""Richtig""-Screen",canvas.Screen,3_0_1_0_0_0_1,NA,NA,skipped,NA,4578866.3000002,NA,NA,4578863.9000001,4578866.5,2023-06-19T16:01:29Z,4578867.289,NULL,Lawine,banguko,d,NA,NA,NA,NA,sdfdsf,NA,1,NA,NA,NA,NA,NA,NA,NA,NA,NA,NA,NA,NA,NA,NA,NA,NA,NA,NA,NA
c50e7,"""Falsch""-Screen",canvas.Screen,3_0_1_0_0_0_2,NA,NA,timeout,5003.7640000004,4578867.2000003,4578863.159,4578867.289,4583854.457,4583855.1000004,2023-06-19T16:01:34Z,4583871.053,NULL,Lawine,banguko,d,NA,NA,NA,NA,sdfdsf,0,1,NA,NA,NA,NA,NA,NA,NA,NA,NA,NA,NA,NA,NA,NA,NA,NA,NA,NA,NA
c50e7,deep,flow.Sequence,3_0_1_0_0_0,NA,NA,completion,13992.599,4569834.5,4569845.202,4569861.858,4583854.457,4583855.5,2023-06-19T16:01:34Z,4583871.053,NULL,Lawine,banguko,d,NA,NA,NA,NA,sdfdsf,NA,1,NA,NA,NA,NA,NA,NA,NA,NA,NA,NA,NA,NA,NA,NA,NA,NA,NA,NA,NA
c50e7,shallow,flow.Sequence,3_0_1_0_0_1,NA,NA,skipped,NA,4583855.7000003,NA,NA,4583854.457,4583855.9000001,2023-06-19T16:01:34Z,4583871.053,NULL,Lawine,banguko,d,NA,NA,NA,NA,sdfdsf,NA,1,NA,NA,NA,NA,NA,NA,NA,NA,NA,NA,NA,NA,NA,NA,NA,NA,NA,NA,NA
c50e7,task,flow.Sequence,3_0_1_0_0,NA,NA,completion,13992.599,4569834.4000001,4569845.202,4569861.858,4583854.457,4583856.2000003,2023-06-19T16:01:34Z,4583871.053,NULL,Lawine,banguko,d,NA,NA,NA,NA,sdfdsf,NA,1,NA,NA,NA,NA,NA,NA,NA,NA,NA,NA,NA,NA,NA,NA,NA,NA,NA,NA,NA
c50e7,Deep Question,html.Page,3_0_1_0_1_0_0,NA,NA,form submission,7789.1470002858,4583856.3000002,4583854.457,4583871.053,4591660.2000003,4591660.5,2023-06-19T16:01:42Z,4591665.407,NULL,Konkurrent,mshindani,d,NA,NA,NA,kil,NA,NA,1,NA,NA,NA,NA,NA,NA,NA,NA,NA,NA,NA,NA,NA,NA,NA,NA,NA,NA,NA
c50e7,"""Richtig""-Screen",canvas.Screen,3_0_1_0_1_0_1,NA,NA,skipped,NA,4591663.1000004,NA,NA,4591660.2000003,4591663.3000002,2023-06-19T16:01:42Z,4591665.407,NULL,Konkurrent,mshindani,d,NA,NA,NA,NA,sdfdsf,NA,1,NA,NA,NA,NA,NA,NA,NA,NA,NA,NA,NA,NA,NA,NA,NA,NA,NA,NA,NA
c50e7,"""Falsch""-Screen",canvas.Screen,3_0_1_0_1_0_2,NA,NA,timeout,4995.466,4591664.3000002,4591657.091,4591665.407,4596644.211,4596644.8000002,2023-06-19T16:01:47Z,4596660.873,NULL,Konkurrent,mshindani,d,NA,NA,NA,NA,sdfdsf,0,1,NA,NA,NA,NA,NA,NA,NA,NA,NA,NA,NA,NA,NA,NA,NA,NA,NA,NA,NA
c50e7,deep,flow.Sequence,3_0_1_0_1_0,NA,NA,completion,12773.158,4583856.3000002,4583854.457,4583871.053,4596644.211,4596645.2000003,2023-06-19T16:01:47Z,4596660.873,NULL,Konkurrent,mshindani,d,NA,NA,NA,NA,sdfdsf,NA,1,NA,NA,NA,NA,NA,NA,NA,NA,NA,NA,NA,NA,NA,NA,NA,NA,NA,NA,NA
c50e7,shallow,flow.Sequence,3_0_1_0_1_1,NA,NA,skipped,NA,4596645.3000002,NA,NA,4596644.211,4596645.5,2023-06-19T16:01:47Z,4596660.873,NULL,Konkurrent,mshindani,d,NA,NA,NA,NA,sdfdsf,NA,1,NA,NA,NA,NA,NA,NA,NA,NA,NA,NA,NA,NA,NA,NA,NA,NA,NA,NA,NA
c50e7,task,flow.Sequence,3_0_1_0_1,NA,NA,completion,12773.158,4583856.3000002,4583854.457,4583871.053,4596644.211,4596645.8000002,2023-06-19T16:01:47Z,4596660.873,NULL,Konkurrent,mshindani,d,NA,NA,NA,NA,sdfdsf,NA,1,NA,NA,NA,NA,NA,NA,NA,NA,NA,NA,NA,NA,NA,NA,NA,NA,NA,NA,NA
c50e7,deep,flow.Sequence,3_0_1_0_2_0,NA,NA,skipped,NA,4596646,NA,NA,4596644.211,4596646.1000004,2023-06-19T16:01:47Z,4596660.873,NULL,Symbol,kielezo,s,kinyume,nderemo,utayari,NA,sdfdsf,NA,1,NA,NA,NA,NA,NA,NA,NA,NA,NA,NA,NA,NA,NA,NA,NA,NA,NA,NA,NA
c50e7,Shallow Question,html.Page,3_0_1_0_2_1_0,NA,NA,form submission,9348.3270002864,4596646.2000003,4596644.211,4596660.873,4606009.2000003,4606009.4000001,2023-06-19T16:01:56Z,4606017.163,NULL,Symbol,kielezo,s,kinyume,nderemo,utayari,kinyume,NA,NA,1,NA,NA,NA,NA,NA,NA,NA,NA,NA,NA,NA,NA,NA,NA,NA,NA,NA,NA,NA
c50e7,"""Richtig""-Screen",canvas.Screen,3_0_1_0_2_1_1,NA,NA,skipped,NA,4606011.6000004,NA,NA,4606009.2000003,4606011.7000003,2023-06-19T16:01:56Z,4606017.163,NULL,Symbol,kielezo,s,kinyume,nderemo,utayari,NA,sdfdsf,NA,1,NA,NA,NA,NA,NA,NA,NA,NA,NA,NA,NA,NA,NA,NA,NA,NA,NA,NA,NA
c50e7,"""Falsch""-Screen",canvas.Screen,3_0_1_0_2_1_2,NA,NA,timeout,4995.2609999999,4606012.4000001,4606007.614,4606017.163,4610995.774,4610996.4000001,2023-06-19T16:02:01Z,4611012.424,NULL,Symbol,kielezo,s,kinyume,nderemo,utayari,NA,sdfdsf,0,1,NA,NA,NA,NA,NA,NA,NA,NA,NA,NA,NA,NA,NA,NA,NA,NA,NA,NA,NA
c50e7,shallow,flow.Sequence,3_0_1_0_2_1,NA,NA,completion,14334.901000001,4596646.2000003,4596644.211,4596660.873,4610995.774,4610996.7000003,2023-06-19T16:02:01Z,4611012.424,NULL,Symbol,kielezo,s,kinyume,nderemo,utayari,NA,sdfdsf,NA,1,NA,NA,NA,NA,NA,NA,NA,NA,NA,NA,NA,NA,NA,NA,NA,NA,NA,NA,NA
c50e7,task,flow.Sequence,3_0_1_0_2,NA,NA,completion,14334.901000001,4596645.9000001,4596644.211,4596660.873,4610995.774,4610996.9000001,2023-06-19T16:02:01Z,4611012.424,NULL,Symbol,kielezo,s,kinyume,nderemo,utayari,NA,sdfdsf,NA,1,NA,NA,NA,NA,NA,NA,NA,NA,NA,NA,NA,NA,NA,NA,NA,NA,NA,NA,NA
c50e7,deep,flow.Sequence,3_0_1_0_3_0,NA,NA,skipped,NA,4610997,NA,NA,4610995.774,4610997.2000003,2023-06-19T16:02:01Z,4611012.424,NULL,Zuwachs,nyongeza,s,matilaba,udhibiti,hudhurio,NA,sdfdsf,NA,1,NA,NA,NA,NA,NA,NA,NA,NA,NA,NA,NA,NA,NA,NA,NA,NA,NA,NA,NA
c50e7,Shallow Question,html.Page,3_0_1_0_3_1_0,NA,NA,form submission,7034.7760002865,4610997.3000002,4610995.774,4611012.424,4618047.2000003,4618047.4000001,2023-06-19T16:02:08Z,4618065.349,NULL,Zuwachs,nyongeza,s,matilaba,udhibiti,hudhurio,hudhurio,NA,NA,1,NA,NA,NA,NA,NA,NA,NA,NA,NA,NA,NA,NA,NA,NA,NA,NA,NA,NA,NA
c50e7,"""Richtig""-Screen",canvas.Screen,3_0_1_0_3_1_1,NA,NA,skipped,NA,4618050,NA,NA,4618047.2000003,4618050.2000003,2023-06-19T16:02:08Z,4618065.349,NULL,Zuwachs,nyongeza,s,matilaba,udhibiti,hudhurio,NA,sdfdsf,NA,1,NA,NA,NA,NA,NA,NA,NA,NA,NA,NA,NA,NA,NA,NA,NA,NA,NA,NA,NA
c50e7,"""Falsch""-Screen",canvas.Screen,3_0_1_0_3_1_2,NA,NA,timeout,5007.9219999993,4618051.1000004,4618039.55,4618065.349,4623056.632,4623057.4000001,2023-06-19T16:02:13Z,4623073.271,NULL,Zuwachs,nyongeza,s,matilaba,udhibiti,hudhurio,NA,sdfdsf,0,1,NA,NA,NA,NA,NA,NA,NA,NA,NA,NA,NA,NA,NA,NA,NA,NA,NA,NA,NA
c50e7,shallow,flow.Sequence,3_0_1_0_3_1,NA,NA,completion,12044.208000001,4610997.3000002,4610995.774,4611012.424,4623056.632,4623057.7000003,2023-06-19T16:02:13Z,4623073.271,NULL,Zuwachs,nyongeza,s,matilaba,udhibiti,hudhurio,NA,sdfdsf,NA,1,NA,NA,NA,NA,NA,NA,NA,NA,NA,NA,NA,NA,NA,NA,NA,NA,NA,NA,NA
c50e7,task,flow.Sequence,3_0_1_0_3,NA,NA,completion,12044.208000001,4610997,4610995.774,4611012.424,4623056.632,4623057.8000002,2023-06-19T16:02:13Z,4623073.271,NULL,Zuwachs,nyongeza,s,matilaba,udhibiti,hudhurio,NA,sdfdsf,NA,1,NA,NA,NA,NA,NA,NA,NA,NA,NA,NA,NA,NA,NA,NA,NA,NA,NA,NA,NA
c50e7,deep,flow.Sequence,3_0_1_0_4_0,NA,NA,skipped,NA,4623058,NA,NA,4623056.632,4623058,2023-06-19T16:02:13Z,4623073.271,NULL,Übersicht,kilindo,s,mgusano,chipukizi,kulinganisha,NA,sdfdsf,NA,1,NA,NA,NA,NA,NA,NA,NA,NA,NA,NA,NA,NA,NA,NA,NA,NA,NA,NA,NA
c50e7,Shallow Question,html.Page,3_0_1_0_4_1_0,NA,NA,form submission,6477.8290003818,4623058.1000004,4623056.632,4623073.271,4629551.1000004,4629551.4000001,2023-06-19T16:02:20Z,4629555.477,NULL,Übersicht,kilindo,s,mgusano,chipukizi,kulinganisha,kilindo,NA,NA,1,NA,NA,NA,NA,NA,NA,NA,NA,NA,NA,NA,NA,NA,NA,NA,NA,NA,NA,NA
c50e7,"""Richtig""-Screen",canvas.Screen,3_0_1_0_4_1_1,NA,NA,timeout,4999.568,4629553.8000002,4629546.727,4629555.477,4634538.389,4634538.9000001,2023-06-19T16:02:25Z,4634555.045,NULL,Übersicht,kilindo,s,mgusano,chipukizi,kulinganisha,NA,sdfdsf,1,1,NA,NA,NA,NA,NA,NA,NA,NA,NA,NA,NA,NA,NA,NA,NA,NA,NA,NA,NA
c50e7,"""Falsch""-Screen",canvas.Screen,3_0_1_0_4_1_2,NA,NA,skipped,NA,4634542.4000001,NA,NA,4634538.389,4634542.7000003,2023-06-19T16:02:25Z,4634555.045,NULL,Übersicht,kilindo,s,mgusano,chipukizi,kulinganisha,NA,sdfdsf,NA,1,NA,NA,NA,NA,NA,NA,NA,NA,NA,NA,NA,NA,NA,NA,NA,NA,NA,NA,NA
c50e7,shallow,flow.Sequence,3_0_1_0_4_1,NA,NA,completion,11465.118000001,4623058.1000004,4623056.632,4623073.271,4634538.389,4634542.9000001,2023-06-19T16:02:25Z,4634555.045,NULL,Übersicht,kilindo,s,mgusano,chipukizi,kulinganisha,NA,sdfdsf,NA,1,NA,NA,NA,NA,NA,NA,NA,NA,NA,NA,NA,NA,NA,NA,NA,NA,NA,NA,NA
c50e7,task,flow.Sequence,3_0_1_0_4,NA,NA,completion,11465.118000001,4623057.9000001,4623056.632,4623073.271,4634538.389,4634543.1000004,2023-06-19T16:02:25Z,4634555.045,NULL,Übersicht,kilindo,s,mgusano,chipukizi,kulinganisha,NA,sdfdsf,NA,1,NA,NA,NA,NA,NA,NA,NA,NA,NA,NA,NA,NA,NA,NA,NA,NA,NA,NA,NA
c50e7,Deep Question,html.Page,3_0_1_0_5_0_0,NA,NA,form submission,13248.955,4634543.2000003,4634538.389,4634555.045,4647804,4647804.3000002,2023-06-19T16:02:38Z,4647806.302,NULL,System,maongozi,d,NA,NA,NA,bankugo,NA,NA,1,NA,NA,NA,NA,NA,NA,NA,NA,NA,NA,NA,NA,NA,NA,NA,NA,NA,NA,NA
c50e7,"""Richtig""-Screen",canvas.Screen,3_0_1_0_5_0_1,NA,NA,skipped,NA,4647806.9000001,NA,NA,4647804,4647807.1000004,2023-06-19T16:02:38Z,4647806.302,NULL,System,maongozi,d,NA,NA,NA,NA,sdfdsf,NA,1,NA,NA,NA,NA,NA,NA,NA,NA,NA,NA,NA,NA,NA,NA,NA,NA,NA,NA,NA
c50e7,"""Falsch""-Screen",canvas.Screen,3_0_1_0_5_0_2,NA,NA,timeout,5007.858,4647808.6000004,4647802.004,4647806.302,4652797.537,4652798.1000004,2023-06-19T16:02:43Z,4652814.16,NULL,System,maongozi,d,NA,NA,NA,NA,sdfdsf,0,1,NA,NA,NA,NA,NA,NA,NA,NA,NA,NA,NA,NA,NA,NA,NA,NA,NA,NA,NA
c50e7,deep,flow.Sequence,3_0_1_0_5_0,NA,NA,completion,18242.492,4634543.1000004,4634538.389,4634555.045,4652797.537,4652798.5,2023-06-19T16:02:43Z,4652814.16,NULL,System,maongozi,d,NA,NA,NA,NA,sdfdsf,NA,1,NA,NA,NA,NA,NA,NA,NA,NA,NA,NA,NA,NA,NA,NA,NA,NA,NA,NA,NA
c50e7,shallow,flow.Sequence,3_0_1_0_5_1,NA,NA,skipped,NA,4652798.6000004,NA,NA,4652797.537,4652798.9000001,2023-06-19T16:02:43Z,4652814.16,NULL,System,maongozi,d,NA,NA,NA,NA,sdfdsf,NA,1,NA,NA,NA,NA,NA,NA,NA,NA,NA,NA,NA,NA,NA,NA,NA,NA,NA,NA,NA
c50e7,task,flow.Sequence,3_0_1_0_5,NA,NA,completion,18242.492,4634543.1000004,4634538.389,4634555.045,4652797.537,4652799.2000003,2023-06-19T16:02:43Z,4652814.16,NULL,System,maongozi,d,NA,NA,NA,NA,sdfdsf,NA,1,NA,NA,NA,NA,NA,NA,NA,NA,NA,NA,NA,NA,NA,NA,NA,NA,NA,NA,NA
c50e7,Deep Question,html.Page,3_0_1_0_6_0_0,NA,NA,form submission,7121.8399999999,4652799.4000001,4652797.537,4652814.16,4659936,4659936.3000002,2023-06-19T16:02:50Z,4659945.892,NULL,Vorsorge,tahadhari,d,NA,NA,NA,kiwiliwili,NA,NA,1,NA,NA,NA,NA,NA,NA,NA,NA,NA,NA,NA,NA,NA,NA,NA,NA,NA,NA,NA
c50e7,"""Richtig""-Screen",canvas.Screen,3_0_1_0_6_0_1,NA,NA,skipped,NA,4659938.6000004,NA,NA,4659936,4659938.8000002,2023-06-19T16:02:50Z,4659945.892,NULL,Vorsorge,tahadhari,d,NA,NA,NA,NA,sdfdsf,NA,1,NA,NA,NA,NA,NA,NA,NA,NA,NA,NA,NA,NA,NA,NA,NA,NA,NA,NA,NA
c50e7,"""Falsch""-Screen",canvas.Screen,3_0_1_0_6_0_2,NA,NA,timeout,5003.8360000001,4659939.5,4659925.152,4659945.892,4664933.065,4664933.6000004,2023-06-19T16:02:55Z,4664949.728,NULL,Vorsorge,tahadhari,d,NA,NA,NA,NA,sdfdsf,0,1,NA,NA,NA,NA,NA,NA,NA,NA,NA,NA,NA,NA,NA,NA,NA,NA,NA,NA,NA
c50e7,deep,flow.Sequence,3_0_1_0_6_0,NA,NA,completion,12118.905,4652799.4000001,4652797.537,4652814.16,4664933.065,4664933.9000001,2023-06-19T16:02:55Z,4664949.728,NULL,Vorsorge,tahadhari,d,NA,NA,NA,NA,sdfdsf,NA,1,NA,NA,NA,NA,NA,NA,NA,NA,NA,NA,NA,NA,NA,NA,NA,NA,NA,NA,NA
c50e7,shallow,flow.Sequence,3_0_1_0_6_1,NA,NA,skipped,NA,4664934,NA,NA,4664933.065,4664934.1000004,2023-06-19T16:02:55Z,4664949.728,NULL,Vorsorge,tahadhari,d,NA,NA,NA,NA,sdfdsf,NA,1,NA,NA,NA,NA,NA,NA,NA,NA,NA,NA,NA,NA,NA,NA,NA,NA,NA,NA,NA
c50e7,task,flow.Sequence,3_0_1_0_6,NA,NA,completion,12118.905,4652799.3000002,4652797.537,4652814.16,4664933.065,4664934.3000002,2023-06-19T16:02:55Z,4664949.728,NULL,Vorsorge,tahadhari,d,NA,NA,NA,NA,sdfdsf,NA,1,NA,NA,NA,NA,NA,NA,NA,NA,NA,NA,NA,NA,NA,NA,NA,NA,NA,NA,NA
c50e7,deep,flow.Sequence,3_0_1_0_7_0,NA,NA,skipped,NA,4664934.5,NA,NA,4664933.065,4664934.6000004,2023-06-19T16:02:55Z,4664949.728,NULL,Körper,kiwiliwili,s,mapambano,mpatanishi,kiolezo,NA,sdfdsf,NA,1,NA,NA,NA,NA,NA,NA,NA,NA,NA,NA,NA,NA,NA,NA,NA,NA,NA,NA,NA
c50e7,Shallow Question,html.Page,3_0_1_0_7_1_0,NA,NA,form submission,4967.972000286,4664934.7000003,4664933.065,4664949.728,4669917.7000003,4669917.9000001,2023-06-19T16:03:00Z,4669931.992,NULL,Körper,kiwiliwili,s,mapambano,mpatanishi,kiolezo,kiwiliwili,NA,NA,1,NA,NA,NA,NA,NA,NA,NA,NA,NA,NA,NA,NA,NA,NA,NA,NA,NA,NA,NA
c50e7,"""Richtig""-Screen",canvas.Screen,3_0_1_0_7_1_1,NA,NA,timeout,5007.7110000001,4669919.8000002,4669910.587,4669931.992,4674923.063,4674923.8000002,2023-06-19T16:03:05Z,4674939.703,NULL,Körper,kiwiliwili,s,mapambano,mpatanishi,kiolezo,NA,sdfdsf,1,1,NA,NA,NA,NA,NA,NA,NA,NA,NA,NA,NA,NA,NA,NA,NA,NA,NA,NA,NA
c50e7,"""Falsch""-Screen",canvas.Screen,3_0_1_0_7_1_2,NA,NA,skipped,NA,4674928.3000002,NA,NA,4674923.063,4674928.6000004,2023-06-19T16:03:05Z,4674939.703,NULL,Körper,kiwiliwili,s,mapambano,mpatanishi,kiolezo,NA,sdfdsf,NA,1,NA,NA,NA,NA,NA,NA,NA,NA,NA,NA,NA,NA,NA,NA,NA,NA,NA,NA,NA
c50e7,shallow,flow.Sequence,3_0_1_0_7_1,NA,NA,completion,9973.335,4664934.6000004,4664933.065,4664949.728,4674923.063,4674929,2023-06-19T16:03:05Z,4674939.703,NULL,Körper,kiwiliwili,s,mapambano,mpatanishi,kiolezo,NA,sdfdsf,NA,1,NA,NA,NA,NA,NA,NA,NA,NA,NA,NA,NA,NA,NA,NA,NA,NA,NA,NA,NA
c50e7,task,flow.Sequence,3_0_1_0_7,NA,NA,completion,9973.335,4664934.4000001,4664933.065,4664949.728,4674923.063,4674929.2000003,2023-06-19T16:03:05Z,4674939.703,NULL,Körper,kiwiliwili,s,mapambano,mpatanishi,kiolezo,NA,sdfdsf,NA,1,NA,NA,NA,NA,NA,NA,NA,NA,NA,NA,NA,NA,NA,NA,NA,NA,NA,NA,NA
c50e7,block,flow.Loop,3_0_1_0,NA,NA,completion,105061.205,4569834.4000001,4569845.202,4569861.858,4674923.063,4674929.3000002,2023-06-19T16:03:05Z,4674939.703,NULL,NA,NA,NA,NA,NA,NA,NA,sdfdsf,NA,1,NA,NA,NA,NA,NA,NA,NA,NA,NA,NA,NA,NA,NA,NA,NA,NA,NA,NA,NA
c50e7,weiter,canvas.Screen,3_0_1_1,sdf,keypress(Space),response,2811.7970000003,4674929.4000001,4674923.063,4674939.703,4677751.5,4677752.2000003,2023-06-19T16:03:08Z,4677801.997,NULL,NA,NA,NA,NA,NA,NA,NA,sdfdsf,NA,1,NA,NA,NA,NA,NA,NA,NA,NA,NA,NA,NA,NA,NA,NA,NA,NA,NA,NA,NA
c50e7,check continue,flow.Sequence,3_0_1,NA,NA,completion,107889.642,4569834.4000001,4569845.202,4569861.858,4677751.5,4677752.4000001,2023-06-19T16:03:08Z,4677801.997,NULL,NA,NA,NA,NA,NA,NA,NA,sdfdsf,NA,1,NA,NA,NA,NA,NA,NA,NA,NA,NA,NA,NA,NA,NA,NA,NA,NA,NA,NA,NA
c50e7,deep,flow.Sequence,3_0_2_0_0_0,NA,NA,skipped,NA,4677794.2000003,NA,NA,4677751.5,4677794.3000002,2023-06-19T16:03:08Z,4677801.997,NULL,Zuwachs,nyongeza,s,matilaba,udhibiti,hudhurio,NA,sdf,NA,2,NA,NA,NA,NA,NA,NA,NA,NA,NA,NA,NA,NA,NA,NA,NA,NA,NA,NA,NA
c50e7,Shallow Question,html.Page,3_0_2_0_0_1_0,NA,NA,form submission,6242.8030001903,4677794.4000001,4677787.232,4677801.997,4684044.8000002,4684045.1000004,2023-06-19T16:03:14Z,4684047.293,NULL,Zuwachs,nyongeza,s,matilaba,udhibiti,hudhurio,nyongeza,NA,NA,2,NA,NA,NA,NA,NA,NA,NA,NA,NA,NA,NA,NA,NA,NA,NA,NA,NA,NA,NA
c50e7,"""Richtig""-Screen",canvas.Screen,3_0_2_0_0_1_1,NA,NA,timeout,4995.3780000005,4684047.5,4684042.046,4684047.293,4689025.998,4689026.6000004,2023-06-19T16:03:19Z,4689042.671,NULL,Zuwachs,nyongeza,s,matilaba,udhibiti,hudhurio,NA,sdf,1,2,NA,NA,NA,NA,NA,NA,NA,NA,NA,NA,NA,NA,NA,NA,NA,NA,NA,NA,NA
c50e7,"""Falsch""-Screen",canvas.Screen,3_0_2_0_0_1_2,NA,NA,skipped,NA,4689030.6000004,NA,NA,4689025.998,4689030.8000002,2023-06-19T16:03:19Z,4689042.671,NULL,Zuwachs,nyongeza,s,matilaba,udhibiti,hudhurio,NA,sdf,NA,2,NA,NA,NA,NA,NA,NA,NA,NA,NA,NA,NA,NA,NA,NA,NA,NA,NA,NA,NA
c50e7,shallow,flow.Sequence,3_0_2_0_0_1,NA,NA,completion,11224.000999999,4677794.4000001,4677787.232,4677801.997,4689025.998,4689031,2023-06-19T16:03:19Z,4689042.671,NULL,Zuwachs,nyongeza,s,matilaba,udhibiti,hudhurio,NA,sdf,NA,2,NA,NA,NA,NA,NA,NA,NA,NA,NA,NA,NA,NA,NA,NA,NA,NA,NA,NA,NA
c50e7,task,flow.Sequence,3_0_2_0_0,NA,NA,completion,11224.000999999,4677794.1000004,4677787.232,4677801.997,4689025.998,4689031.1000004,2023-06-19T16:03:19Z,4689042.671,NULL,Zuwachs,nyongeza,s,matilaba,udhibiti,hudhurio,NA,sdf,NA,2,NA,NA,NA,NA,NA,NA,NA,NA,NA,NA,NA,NA,NA,NA,NA,NA,NA,NA,NA
c50e7,Deep Question,html.Page,3_0_2_0_1_0_0,NA,NA,form submission,7000.8289999999,4689031.3000002,4689025.998,4689042.671,4696043.5,4696043.8000002,2023-06-19T16:03:26Z,4696049.236,NULL,Vorsorge,tahadhari,d,NA,NA,NA,n,NA,NA,2,NA,NA,NA,NA,NA,NA,NA,NA,NA,NA,NA,NA,NA,NA,NA,NA,NA,NA,NA
c50e7,"""Richtig""-Screen",canvas.Screen,3_0_2_0_1_0_1,NA,NA,skipped,NA,4696046.5,NA,NA,4696043.5,4696046.6000004,2023-06-19T16:03:26Z,4696049.236,NULL,Vorsorge,tahadhari,d,NA,NA,NA,NA,sdf,NA,2,NA,NA,NA,NA,NA,NA,NA,NA,NA,NA,NA,NA,NA,NA,NA,NA,NA,NA,NA
c50e7,"""Falsch""-Screen",canvas.Screen,3_0_2_0_1_0_2,NA,NA,timeout,5003.8370000003,4696047.7000003,4696032.64,4696049.236,4701036.442,4701037,2023-06-19T16:03:31Z,4701053.073,NULL,Vorsorge,tahadhari,d,NA,NA,NA,NA,sdf,0,2,NA,NA,NA,NA,NA,NA,NA,NA,NA,NA,NA,NA,NA,NA,NA,NA,NA,NA,NA
c50e7,deep,flow.Sequence,3_0_2_0_1_0,NA,NA,completion,11993.771,4689031.2000003,4689025.998,4689042.671,4701036.442,4701037.2000003,2023-06-19T16:03:31Z,4701053.073,NULL,Vorsorge,tahadhari,d,NA,NA,NA,NA,sdf,NA,2,NA,NA,NA,NA,NA,NA,NA,NA,NA,NA,NA,NA,NA,NA,NA,NA,NA,NA,NA
c50e7,shallow,flow.Sequence,3_0_2_0_1_1,NA,NA,skipped,NA,4701037.3000002,NA,NA,4701036.442,4701037.4000001,2023-06-19T16:03:31Z,4701053.073,NULL,Vorsorge,tahadhari,d,NA,NA,NA,NA,sdf,NA,2,NA,NA,NA,NA,NA,NA,NA,NA,NA,NA,NA,NA,NA,NA,NA,NA,NA,NA,NA
c50e7,task,flow.Sequence,3_0_2_0_1,NA,NA,completion,11993.771,4689031.2000003,4689025.998,4689042.671,4701036.442,4701037.6000004,2023-06-19T16:03:31Z,4701053.073,NULL,Vorsorge,tahadhari,d,NA,NA,NA,NA,sdf,NA,2,NA,NA,NA,NA,NA,NA,NA,NA,NA,NA,NA,NA,NA,NA,NA,NA,NA,NA,NA
c50e7,deep,flow.Sequence,3_0_2_0_2_0,NA,NA,skipped,NA,4701037.6000004,NA,NA,4701036.442,4701037.8000002,2023-06-19T16:03:31Z,4701053.073,NULL,Übersicht,kilindo,s,mgusano,chipukizi,kulinganisha,NA,sdf,NA,2,NA,NA,NA,NA,NA,NA,NA,NA,NA,NA,NA,NA,NA,NA,NA,NA,NA,NA,NA
c50e7,Shallow Question,html.Page,3_0_2_0_2_1_0,NA,NA,form submission,4916.7270001909,4701037.8000002,4701036.442,4701053.073,4705969.8000002,4705970,2023-06-19T16:03:36Z,4705972.76,NULL,Übersicht,kilindo,s,mgusano,chipukizi,kulinganisha,kilindo,NA,NA,2,NA,NA,NA,NA,NA,NA,NA,NA,NA,NA,NA,NA,NA,NA,NA,NA,NA,NA,NA
c50e7,"""Richtig""-Screen",canvas.Screen,3_0_2_0_2_1_1,NA,NA,timeout,4995.3730000006,4705972,4705955.732,4705972.76,4710951.53,4710962,2023-06-19T16:03:41Z,4710968.133,NULL,Übersicht,kilindo,s,mgusano,chipukizi,kulinganisha,NA,sdf,1,2,NA,NA,NA,NA,NA,NA,NA,NA,NA,NA,NA,NA,NA,NA,NA,NA,NA,NA,NA
c50e7,"""Falsch""-Screen",canvas.Screen,3_0_2_0_2_1_2,NA,NA,skipped,NA,4710965.9000001,NA,NA,4710951.53,4710966.1000004,2023-06-19T16:03:41Z,4710968.133,NULL,Übersicht,kilindo,s,mgusano,chipukizi,kulinganisha,NA,sdf,NA,2,NA,NA,NA,NA,NA,NA,NA,NA,NA,NA,NA,NA,NA,NA,NA,NA,NA,NA,NA
c50e7,shallow,flow.Sequence,3_0_2_0_2_1,NA,NA,completion,9898.4570000004,4701037.8000002,4701036.442,4701053.073,4710951.53,4710966.3000002,2023-06-19T16:03:41Z,4710968.133,NULL,Übersicht,kilindo,s,mgusano,chipukizi,kulinganisha,NA,sdf,NA,2,NA,NA,NA,NA,NA,NA,NA,NA,NA,NA,NA,NA,NA,NA,NA,NA,NA,NA,NA
c50e7,task,flow.Sequence,3_0_2_0_2,NA,NA,completion,9898.4570000004,4701037.6000004,4701036.442,4701053.073,4710951.53,4710966.5,2023-06-19T16:03:41Z,4710968.133,NULL,Übersicht,kilindo,s,mgusano,chipukizi,kulinganisha,NA,sdf,NA,2,NA,NA,NA,NA,NA,NA,NA,NA,NA,NA,NA,NA,NA,NA,NA,NA,NA,NA,NA
c50e7,Deep Question,html.Page,3_0_2_0_3_0_0,NA,NA,form submission,10236.467000381,4710966.6000004,4710951.53,4710968.133,4721204.6000004,4721204.9000001,2023-06-19T16:03:52Z,4721219.796,NULL,System,maongozi,d,NA,NA,NA,moangari,NA,NA,2,NA,NA,NA,NA,NA,NA,NA,NA,NA,NA,NA,NA,NA,NA,NA,NA,NA,NA,NA
c50e7,"""Richtig""-Screen",canvas.Screen,3_0_2_0_3_0_1,NA,NA,skipped,NA,4721207.4000001,NA,NA,4721204.6000004,4721207.6000004,2023-06-19T16:03:52Z,4721219.796,NULL,System,maongozi,d,NA,NA,NA,NA,sdf,NA,2,NA,NA,NA,NA,NA,NA,NA,NA,NA,NA,NA,NA,NA,NA,NA,NA,NA,NA,NA
c50e7,"""Falsch""-Screen",canvas.Screen,3_0_2_0_3_0_2,NA,NA,timeout,4995.4380000001,4721208.5,4721198.657,4721219.796,4726198.563,4726199.1000004,2023-06-19T16:03:57Z,4726215.234,NULL,System,maongozi,d,NA,NA,NA,NA,sdf,0,2,NA,NA,NA,NA,NA,NA,NA,NA,NA,NA,NA,NA,NA,NA,NA,NA,NA,NA,NA
c50e7,deep,flow.Sequence,3_0_2_0_3_0,NA,NA,completion,15230.43,4710966.6000004,4710951.53,4710968.133,4726198.563,4726199.4000001,2023-06-19T16:03:57Z,4726215.234,NULL,System,maongozi,d,NA,NA,NA,NA,sdf,NA,2,NA,NA,NA,NA,NA,NA,NA,NA,NA,NA,NA,NA,NA,NA,NA,NA,NA,NA,NA
c50e7,shallow,flow.Sequence,3_0_2_0_3_1,NA,NA,skipped,NA,4726199.6000004,NA,NA,4726198.563,4726199.7000003,2023-06-19T16:03:57Z,4726215.234,NULL,System,maongozi,d,NA,NA,NA,NA,sdf,NA,2,NA,NA,NA,NA,NA,NA,NA,NA,NA,NA,NA,NA,NA,NA,NA,NA,NA,NA,NA
c50e7,task,flow.Sequence,3_0_2_0_3,NA,NA,completion,15230.43,4710966.5,4710951.53,4710968.133,4726198.563,4726199.8000002,2023-06-19T16:03:57Z,4726215.234,NULL,System,maongozi,d,NA,NA,NA,NA,sdf,NA,2,NA,NA,NA,NA,NA,NA,NA,NA,NA,NA,NA,NA,NA,NA,NA,NA,NA,NA,NA
c50e7,Deep Question,html.Page,3_0_2_0_4_0_0,NA,NA,form submission,9361.4660002859,4726200,4726198.563,4726215.234,4735576.7000003,4735576.9000001,2023-06-19T16:04:06Z,4735594.502,NULL,Lawine,banguko,d,NA,NA,NA,ungu,NA,NA,2,NA,NA,NA,NA,NA,NA,NA,NA,NA,NA,NA,NA,NA,NA,NA,NA,NA,NA,NA
c50e7,"""Richtig""-Screen",canvas.Screen,3_0_2_0_4_0_1,NA,NA,skipped,NA,4735579.3000002,NA,NA,4735576.7000003,4735579.6000004,2023-06-19T16:04:06Z,4735594.502,NULL,Lawine,banguko,d,NA,NA,NA,NA,sdf,NA,2,NA,NA,NA,NA,NA,NA,NA,NA,NA,NA,NA,NA,NA,NA,NA,NA,NA,NA,NA
c50e7,"""Falsch""-Screen",canvas.Screen,3_0_2_0_4_0_2,NA,NA,timeout,4999.6129999999,4735580.6000004,4735565.126,4735594.502,4740577.493,4740578,2023-06-19T16:04:11Z,4740594.115,NULL,Lawine,banguko,d,NA,NA,NA,NA,sdf,0,2,NA,NA,NA,NA,NA,NA,NA,NA,NA,NA,NA,NA,NA,NA,NA,NA,NA,NA,NA
c50e7,deep,flow.Sequence,3_0_2_0_4_0,NA,NA,completion,14362.259,4726200,4726198.563,4726215.234,4740577.493,4740578.3000002,2023-06-19T16:04:11Z,4740594.115,NULL,Lawine,banguko,d,NA,NA,NA,NA,sdf,NA,2,NA,NA,NA,NA,NA,NA,NA,NA,NA,NA,NA,NA,NA,NA,NA,NA,NA,NA,NA
c50e7,shallow,flow.Sequence,3_0_2_0_4_1,NA,NA,skipped,NA,4740578.3000002,NA,NA,4740577.493,4740578.4000001,2023-06-19T16:04:11Z,4740594.115,NULL,Lawine,banguko,d,NA,NA,NA,NA,sdf,NA,2,NA,NA,NA,NA,NA,NA,NA,NA,NA,NA,NA,NA,NA,NA,NA,NA,NA,NA,NA
c50e7,task,flow.Sequence,3_0_2_0_4,NA,NA,completion,14362.259,4726199.9000001,4726198.563,4726215.234,4740577.493,4740578.7000003,2023-06-19T16:04:11Z,4740594.115,NULL,Lawine,banguko,d,NA,NA,NA,NA,sdf,NA,2,NA,NA,NA,NA,NA,NA,NA,NA,NA,NA,NA,NA,NA,NA,NA,NA,NA,NA,NA
c50e7,deep,flow.Sequence,3_0_2_0_5_0,NA,NA,skipped,NA,4740578.8000002,NA,NA,4740577.493,4740578.8000002,2023-06-19T16:04:11Z,4740594.115,NULL,Körper,kiwiliwili,s,mapambano,mpatanishi,kiolezo,NA,sdf,NA,2,NA,NA,NA,NA,NA,NA,NA,NA,NA,NA,NA,NA,NA,NA,NA,NA,NA,NA,NA
c50e7,Shallow Question,html.Page,3_0_2_0_5_1_0,NA,NA,form submission,3804.5850002859,4740578.9000001,4740577.493,4740594.115,4744398.7000003,4744398.9000001,2023-06-19T16:04:15Z,4744418.175,NULL,Körper,kiwiliwili,s,mapambano,mpatanishi,kiolezo,kiwiliwili,NA,NA,2,NA,NA,NA,NA,NA,NA,NA,NA,NA,NA,NA,NA,NA,NA,NA,NA,NA,NA,NA
c50e7,"""Richtig""-Screen",canvas.Screen,3_0_2_0_5_1_1,NA,NA,timeout,5007.767,4744401.4000001,4744392.645,4744418.175,4749409.298,4749409.9000001,2023-06-19T16:04:20Z,4749425.942,NULL,Körper,kiwiliwili,s,mapambano,mpatanishi,kiolezo,NA,sdf,1,2,NA,NA,NA,NA,NA,NA,NA,NA,NA,NA,NA,NA,NA,NA,NA,NA,NA,NA,NA
c50e7,"""Falsch""-Screen",canvas.Screen,3_0_2_0_5_1_2,NA,NA,skipped,NA,4749413.8000002,NA,NA,4749409.298,4749414,2023-06-19T16:04:20Z,4749425.942,NULL,Körper,kiwiliwili,s,mapambano,mpatanishi,kiolezo,NA,sdf,NA,2,NA,NA,NA,NA,NA,NA,NA,NA,NA,NA,NA,NA,NA,NA,NA,NA,NA,NA,NA
c50e7,shallow,flow.Sequence,3_0_2_0_5_1,NA,NA,completion,8815.1830000002,4740578.9000001,4740577.493,4740594.115,4749409.298,4749414.3000002,2023-06-19T16:04:20Z,4749425.942,NULL,Körper,kiwiliwili,s,mapambano,mpatanishi,kiolezo,NA,sdf,NA,2,NA,NA,NA,NA,NA,NA,NA,NA,NA,NA,NA,NA,NA,NA,NA,NA,NA,NA,NA
c50e7,task,flow.Sequence,3_0_2_0_5,NA,NA,completion,8815.1830000002,4740578.7000003,4740577.493,4740594.115,4749409.298,4749414.4000001,2023-06-19T16:04:20Z,4749425.942,NULL,Körper,kiwiliwili,s,mapambano,mpatanishi,kiolezo,NA,sdf,NA,2,NA,NA,NA,NA,NA,NA,NA,NA,NA,NA,NA,NA,NA,NA,NA,NA,NA,NA,NA
c50e7,Deep Question,html.Page,3_0_2_0_6_0_0,NA,NA,form submission,10307.258000286,4749414.6000004,4749409.298,4749425.942,4759733.2000003,4759733.4000001,2023-06-19T16:04:30Z,4759752.712,NULL,Konkurrent,mshindani,d,NA,NA,NA,danghari,NA,NA,2,NA,NA,NA,NA,NA,NA,NA,NA,NA,NA,NA,NA,NA,NA,NA,NA,NA,NA,NA
c50e7,"""Richtig""-Screen",canvas.Screen,3_0_2_0_6_0_1,NA,NA,skipped,NA,4759736.3000002,NA,NA,4759733.2000003,4759736.5,2023-06-19T16:04:30Z,4759752.712,NULL,Konkurrent,mshindani,d,NA,NA,NA,NA,sdf,NA,2,NA,NA,NA,NA,NA,NA,NA,NA,NA,NA,NA,NA,NA,NA,NA,NA,NA,NA,NA
c50e7,"""Falsch""-Screen",canvas.Screen,3_0_2_0_6_0_2,NA,NA,timeout,4999.4669999992,4759737.5,4759735.992,4759752.712,4764735.517,4764736,2023-06-19T16:04:35Z,4764752.179,NULL,Konkurrent,mshindani,d,NA,NA,NA,NA,sdf,0,2,NA,NA,NA,NA,NA,NA,NA,NA,NA,NA,NA,NA,NA,NA,NA,NA,NA,NA,NA
c50e7,deep,flow.Sequence,3_0_2_0_6_0,NA,NA,completion,15309.575,4749414.6000004,4749409.298,4749425.942,4764735.517,4764736.3000002,2023-06-19T16:04:35Z,4764752.179,NULL,Konkurrent,mshindani,d,NA,NA,NA,NA,sdf,NA,2,NA,NA,NA,NA,NA,NA,NA,NA,NA,NA,NA,NA,NA,NA,NA,NA,NA,NA,NA
c50e7,shallow,flow.Sequence,3_0_2_0_6_1,NA,NA,skipped,NA,4764736.4000001,NA,NA,4764735.517,4764736.5,2023-06-19T16:04:35Z,4764752.179,NULL,Konkurrent,mshindani,d,NA,NA,NA,NA,sdf,NA,2,NA,NA,NA,NA,NA,NA,NA,NA,NA,NA,NA,NA,NA,NA,NA,NA,NA,NA,NA
c50e7,task,flow.Sequence,3_0_2_0_6,NA,NA,completion,15309.575,4749414.5,4749409.298,4749425.942,4764735.517,4764736.6000004,2023-06-19T16:04:35Z,4764752.179,NULL,Konkurrent,mshindani,d,NA,NA,NA,NA,sdf,NA,2,NA,NA,NA,NA,NA,NA,NA,NA,NA,NA,NA,NA,NA,NA,NA,NA,NA,NA,NA
c50e7,deep,flow.Sequence,3_0_2_0_7_0,NA,NA,skipped,NA,4764736.8000002,NA,NA,4764735.517,4764736.8000002,2023-06-19T16:04:35Z,4764752.179,NULL,Symbol,kielezo,s,kinyume,nderemo,utayari,NA,sdf,NA,2,NA,NA,NA,NA,NA,NA,NA,NA,NA,NA,NA,NA,NA,NA,NA,NA,NA,NA,NA
c50e7,Shallow Question,html.Page,3_0_2_0_7_1_0,NA,NA,form submission,4615.4210003819,4764737,4764735.517,4764752.179,4769367.6000004,4769367.9000001,2023-06-19T16:04:40Z,4769367.641,NULL,Symbol,kielezo,s,kinyume,nderemo,utayari,kielezo,NA,NA,2,NA,NA,NA,NA,NA,NA,NA,NA,NA,NA,NA,NA,NA,NA,NA,NA,NA,NA,NA
c50e7,"""Richtig""-Screen",canvas.Screen,3_0_2_0_7_1_1,NA,NA,timeout,4995.358,4769370.6000004,4769363.091,4769367.641,4774346.39,4774347,2023-06-19T16:04:45Z,4774362.999,NULL,Symbol,kielezo,s,kinyume,nderemo,utayari,NA,sdf,1,2,NA,NA,NA,NA,NA,NA,NA,NA,NA,NA,NA,NA,NA,NA,NA,NA,NA,NA,NA
c50e7,"""Falsch""-Screen",canvas.Screen,3_0_2_0_7_1_2,NA,NA,skipped,NA,4774350.3000002,NA,NA,4774346.39,4774350.5,2023-06-19T16:04:45Z,4774362.999,NULL,Symbol,kielezo,s,kinyume,nderemo,utayari,NA,sdf,NA,2,NA,NA,NA,NA,NA,NA,NA,NA,NA,NA,NA,NA,NA,NA,NA,NA,NA,NA,NA
c50e7,shallow,flow.Sequence,3_0_2_0_7_1,NA,NA,completion,9594.2110000001,4764737,4764735.517,4764752.179,4774346.39,4774350.8000002,2023-06-19T16:04:45Z,4774362.999,NULL,Symbol,kielezo,s,kinyume,nderemo,utayari,NA,sdf,NA,2,NA,NA,NA,NA,NA,NA,NA,NA,NA,NA,NA,NA,NA,NA,NA,NA,NA,NA,NA
c50e7,task,flow.Sequence,3_0_2_0_7,NA,NA,completion,9594.2110000001,4764736.8000002,4764735.517,4764752.179,4774346.39,4774350.8000002,2023-06-19T16:04:45Z,4774362.999,NULL,Symbol,kielezo,s,kinyume,nderemo,utayari,NA,sdf,NA,2,NA,NA,NA,NA,NA,NA,NA,NA,NA,NA,NA,NA,NA,NA,NA,NA,NA,NA,NA
c50e7,block,flow.Loop,3_0_2_0,NA,NA,completion,96544.392999999,4677794,4677787.232,4677801.997,4774346.39,4774351,2023-06-19T16:04:45Z,4774362.999,NULL,NA,NA,NA,NA,NA,NA,NA,sdf,NA,2,NA,NA,NA,NA,NA,NA,NA,NA,NA,NA,NA,NA,NA,NA,NA,NA,NA,NA,NA
c50e7,weiter,canvas.Screen,3_0_2_1,sdf,keypress(Space),response,1759.7010002863,4774351.1000004,4774346.39,4774362.999,4776122.7000003,4776123.4000001,2023-06-19T16:04:47Z,4776193.95,NULL,NA,NA,NA,NA,NA,NA,NA,sdf,NA,2,NA,NA,NA,NA,NA,NA,NA,NA,NA,NA,NA,NA,NA,NA,NA,NA,NA,NA,NA
c50e7,check continue,flow.Sequence,3_0_2,NA,NA,completion,98320.703000286,4677794,4677787.232,4677801.997,4776122.7000003,4776123.5,2023-06-19T16:04:47Z,4776193.95,NULL,NA,NA,NA,NA,NA,NA,NA,sdf,NA,2,NA,NA,NA,NA,NA,NA,NA,NA,NA,NA,NA,NA,NA,NA,NA,NA,NA,NA,NA
c50e7,Deep Question,html.Page,3_0_3_0_0_0_0,NA,NA,form submission,8917.2500002859,4776166.4000001,4776161.459,4776193.95,4785111.2000003,4785111.5,2023-06-19T16:04:55Z,4785139.893,NULL,Lawine,banguko,d,NA,NA,NA,mshing,NA,NA,3,NA,NA,NA,NA,NA,NA,NA,NA,NA,NA,NA,NA,NA,NA,NA,NA,NA,NA,NA
c50e7,"""Richtig""-Screen",canvas.Screen,3_0_3_0_0_0_1,NA,NA,skipped,NA,4785113.4000001,NA,NA,4785111.2000003,4785113.6000004,2023-06-19T16:04:55Z,4785139.893,NULL,Lawine,banguko,d,NA,NA,NA,NA,qt,NA,3,NA,NA,NA,NA,NA,NA,NA,NA,NA,NA,NA,NA,NA,NA,NA,NA,NA,NA,NA
c50e7,"""Falsch""-Screen",canvas.Screen,3_0_3_0_0_0_2,NA,NA,timeout,4995.2369999997,4785114.2000003,4785123.256,4785139.893,4790118.517,4790130.2000003,2023-06-19T16:05:01Z,4790135.13,NULL,Lawine,banguko,d,NA,NA,NA,NA,qt,0,3,NA,NA,NA,NA,NA,NA,NA,NA,NA,NA,NA,NA,NA,NA,NA,NA,NA,NA,NA
c50e7,deep,flow.Sequence,3_0_3_0_0_0,NA,NA,completion,13924.567,4776166.4000001,4776161.459,4776193.95,4790118.517,4790130.5,2023-06-19T16:05:01Z,4790135.13,NULL,Lawine,banguko,d,NA,NA,NA,NA,qt,NA,3,NA,NA,NA,NA,NA,NA,NA,NA,NA,NA,NA,NA,NA,NA,NA,NA,NA,NA,NA
c50e7,shallow,flow.Sequence,3_0_3_0_0_1,NA,NA,skipped,NA,4790130.5,NA,NA,4790118.517,4790130.7000003,2023-06-19T16:05:01Z,4790135.13,NULL,Lawine,banguko,d,NA,NA,NA,NA,qt,NA,3,NA,NA,NA,NA,NA,NA,NA,NA,NA,NA,NA,NA,NA,NA,NA,NA,NA,NA,NA
c50e7,task,flow.Sequence,3_0_3_0_0,NA,NA,completion,13924.567,4776166.4000001,4776161.459,4776193.95,4790118.517,4790130.8000002,2023-06-19T16:05:01Z,4790135.13,NULL,Lawine,banguko,d,NA,NA,NA,NA,qt,NA,3,NA,NA,NA,NA,NA,NA,NA,NA,NA,NA,NA,NA,NA,NA,NA,NA,NA,NA,NA
c50e7,deep,flow.Sequence,3_0_3_0_1_0,NA,NA,skipped,NA,4790130.9000001,NA,NA,4790118.517,4790131,2023-06-19T16:05:01Z,4790135.13,NULL,Körper,kiwiliwili,s,mapambano,mpatanishi,kiolezo,NA,qt,NA,3,NA,NA,NA,NA,NA,NA,NA,NA,NA,NA,NA,NA,NA,NA,NA,NA,NA,NA,NA
c50e7,Shallow Question,html.Page,3_0_3_0_1_1_0,NA,NA,form submission,3397.4700003816,4790131.1000004,4790118.517,4790135.13,4793532.6000004,4793532.8000002,2023-06-19T16:05:04Z,4793546.707,NULL,Körper,kiwiliwili,s,mapambano,mpatanishi,kiolezo,kiwiliwili,NA,NA,3,NA,NA,NA,NA,NA,NA,NA,NA,NA,NA,NA,NA,NA,NA,NA,NA,NA,NA,NA
c50e7,"""Richtig""-Screen",canvas.Screen,3_0_3_0_1_1_1,NA,NA,timeout,4999.5269999998,4793534.6000004,4793521.334,4793546.707,4798529.57,4798530.2000003,2023-06-19T16:05:09Z,4798546.234,NULL,Körper,kiwiliwili,s,mapambano,mpatanishi,kiolezo,NA,qt,1,3,NA,NA,NA,NA,NA,NA,NA,NA,NA,NA,NA,NA,NA,NA,NA,NA,NA,NA,NA
c50e7,"""Falsch""-Screen",canvas.Screen,3_0_3_0_1_1_2,NA,NA,skipped,NA,4798534.3000002,NA,NA,4798529.57,4798534.6000004,2023-06-19T16:05:09Z,4798546.234,NULL,Körper,kiwiliwili,s,mapambano,mpatanishi,kiolezo,NA,qt,NA,3,NA,NA,NA,NA,NA,NA,NA,NA,NA,NA,NA,NA,NA,NA,NA,NA,NA,NA,NA
c50e7,shallow,flow.Sequence,3_0_3_0_1_1,NA,NA,completion,8394.4400000004,4790131.1000004,4790118.517,4790135.13,4798529.57,4798534.8000002,2023-06-19T16:05:09Z,4798546.234,NULL,Körper,kiwiliwili,s,mapambano,mpatanishi,kiolezo,NA,qt,NA,3,NA,NA,NA,NA,NA,NA,NA,NA,NA,NA,NA,NA,NA,NA,NA,NA,NA,NA,NA
c50e7,task,flow.Sequence,3_0_3_0_1,NA,NA,completion,8394.4400000004,4790130.9000001,4790118.517,4790135.13,4798529.57,4798535.1000004,2023-06-19T16:05:09Z,4798546.234,NULL,Körper,kiwiliwili,s,mapambano,mpatanishi,kiolezo,NA,qt,NA,3,NA,NA,NA,NA,NA,NA,NA,NA,NA,NA,NA,NA,NA,NA,NA,NA,NA,NA,NA
c50e7,Deep Question,html.Page,3_0_3_0_2_0_0,NA,NA,form submission,9433.6660000952,4798535.2000003,4798529.57,4798546.234,4807979.9000001,4807980.3000002,2023-06-19T16:05:18Z,4807981.209,NULL,Vorsorge,tahadhari,d,NA,NA,NA,dshang,NA,NA,3,NA,NA,NA,NA,NA,NA,NA,NA,NA,NA,NA,NA,NA,NA,NA,NA,NA,NA,NA
c50e7,"""Richtig""-Screen",canvas.Screen,3_0_3_0_2_0_1,NA,NA,skipped,NA,4807982.4000001,NA,NA,4807979.9000001,4807982.6000004,2023-06-19T16:05:18Z,4807981.209,NULL,Vorsorge,tahadhari,d,NA,NA,NA,NA,qt,NA,3,NA,NA,NA,NA,NA,NA,NA,NA,NA,NA,NA,NA,NA,NA,NA,NA,NA,NA,NA
c50e7,"""Falsch""-Screen",canvas.Screen,3_0_3_0_2_0_2,NA,NA,timeout,5007.9900000002,4807983.2000003,4807976.894,4807981.209,4812972.629,4812973.2000003,2023-06-19T16:05:23Z,4812989.199,NULL,Vorsorge,tahadhari,d,NA,NA,NA,NA,qt,0,3,NA,NA,NA,NA,NA,NA,NA,NA,NA,NA,NA,NA,NA,NA,NA,NA,NA,NA,NA
c50e7,deep,flow.Sequence,3_0_3_0_2_0,NA,NA,completion,14426.395,4798535.1000004,4798529.57,4798546.234,4812972.629,4812973.4000001,2023-06-19T16:05:23Z,4812989.199,NULL,Vorsorge,tahadhari,d,NA,NA,NA,NA,qt,NA,3,NA,NA,NA,NA,NA,NA,NA,NA,NA,NA,NA,NA,NA,NA,NA,NA,NA,NA,NA
c50e7,shallow,flow.Sequence,3_0_3_0_2_1,NA,NA,skipped,NA,4812973.5,NA,NA,4812972.629,4812973.7000003,2023-06-19T16:05:23Z,4812989.199,NULL,Vorsorge,tahadhari,d,NA,NA,NA,NA,qt,NA,3,NA,NA,NA,NA,NA,NA,NA,NA,NA,NA,NA,NA,NA,NA,NA,NA,NA,NA,NA
c50e7,task,flow.Sequence,3_0_3_0_2,NA,NA,completion,14426.395,4798535.1000004,4798529.57,4798546.234,4812972.629,4812973.8000002,2023-06-19T16:05:23Z,4812989.199,NULL,Vorsorge,tahadhari,d,NA,NA,NA,NA,qt,NA,3,NA,NA,NA,NA,NA,NA,NA,NA,NA,NA,NA,NA,NA,NA,NA,NA,NA,NA,NA
c50e7,deep,flow.Sequence,3_0_3_0_3_0,NA,NA,skipped,NA,4812973.8000002,NA,NA,4812972.629,4812974,2023-06-19T16:05:23Z,4812989.199,NULL,Übersicht,kilindo,s,mgusano,chipukizi,kulinganisha,NA,qt,NA,3,NA,NA,NA,NA,NA,NA,NA,NA,NA,NA,NA,NA,NA,NA,NA,NA,NA,NA,NA
c50e7,Shallow Question,html.Page,3_0_3_0_3_1_0,NA,NA,form submission,8772.4010003814,4812974.1000004,4812972.629,4812989.199,4821761.6000004,4821761.9000001,2023-06-19T16:05:32Z,4821762.952,NULL,Übersicht,kilindo,s,mgusano,chipukizi,kulinganisha,mgusano,NA,NA,3,NA,NA,NA,NA,NA,NA,NA,NA,NA,NA,NA,NA,NA,NA,NA,NA,NA,NA,NA
c50e7,"""Richtig""-Screen",canvas.Screen,3_0_3_0_3_1_1,NA,NA,skipped,NA,4821764.7000003,NA,NA,4821761.6000004,4821764.8000002,2023-06-19T16:05:32Z,4821762.952,NULL,Übersicht,kilindo,s,mgusano,chipukizi,kulinganisha,NA,qt,NA,3,NA,NA,NA,NA,NA,NA,NA,NA,NA,NA,NA,NA,NA,NA,NA,NA,NA,NA,NA
c50e7,"""Falsch""-Screen",canvas.Screen,3_0_3_0_3_1_2,NA,NA,timeout,5007.8570000008,4821765.8000002,4821744.786,4821762.952,4826754.157,4826754.8000002,2023-06-19T16:05:37Z,4826770.809,NULL,Übersicht,kilindo,s,mgusano,chipukizi,kulinganisha,NA,qt,0,3,NA,NA,NA,NA,NA,NA,NA,NA,NA,NA,NA,NA,NA,NA,NA,NA,NA,NA,NA
c50e7,shallow,flow.Sequence,3_0_3_0_3_1,NA,NA,completion,13764.958,4812974,4812972.629,4812989.199,4826754.157,4826755.1000004,2023-06-19T16:05:37Z,4826770.809,NULL,Übersicht,kilindo,s,mgusano,chipukizi,kulinganisha,NA,qt,NA,3,NA,NA,NA,NA,NA,NA,NA,NA,NA,NA,NA,NA,NA,NA,NA,NA,NA,NA,NA
c50e7,task,flow.Sequence,3_0_3_0_3,NA,NA,completion,13764.958,4812973.8000002,4812972.629,4812989.199,4826754.157,4826755.3000002,2023-06-19T16:05:37Z,4826770.809,NULL,Übersicht,kilindo,s,mgusano,chipukizi,kulinganisha,NA,qt,NA,3,NA,NA,NA,NA,NA,NA,NA,NA,NA,NA,NA,NA,NA,NA,NA,NA,NA,NA,NA
c50e7,deep,flow.Sequence,3_0_3_0_4_0,NA,NA,skipped,NA,4826755.5,NA,NA,4826754.157,4826755.6000004,2023-06-19T16:05:37Z,4826770.809,NULL,Symbol,kielezo,s,kinyume,nderemo,utayari,NA,qt,NA,3,NA,NA,NA,NA,NA,NA,NA,NA,NA,NA,NA,NA,NA,NA,NA,NA,NA,NA,NA
c50e7,Shallow Question,html.Page,3_0_3_0_4_1_0,NA,NA,form submission,7302.3910002857,4826755.8000002,4826754.157,4826770.809,4834073.2000003,4834073.3000002,2023-06-19T16:05:44Z,4834086.224,NULL,Symbol,kielezo,s,kinyume,nderemo,utayari,kielezo,NA,NA,3,NA,NA,NA,NA,NA,NA,NA,NA,NA,NA,NA,NA,NA,NA,NA,NA,NA,NA,NA
c50e7,"""Richtig""-Screen",canvas.Screen,3_0_3_0_4_1_1,NA,NA,timeout,5007.926,4834075.3000002,4834065.051,4834086.224,4839077.551,4839078.1000004,2023-06-19T16:05:49Z,4839094.15,NULL,Symbol,kielezo,s,kinyume,nderemo,utayari,NA,qt,1,3,NA,NA,NA,NA,NA,NA,NA,NA,NA,NA,NA,NA,NA,NA,NA,NA,NA,NA,NA
c50e7,"""Falsch""-Screen",canvas.Screen,3_0_3_0_4_1_2,NA,NA,skipped,NA,4839082.1000004,NA,NA,4839077.551,4839082.2000003,2023-06-19T16:05:49Z,4839094.15,NULL,Symbol,kielezo,s,kinyume,nderemo,utayari,NA,qt,NA,3,NA,NA,NA,NA,NA,NA,NA,NA,NA,NA,NA,NA,NA,NA,NA,NA,NA,NA,NA
c50e7,shallow,flow.Sequence,3_0_3_0_4_1,NA,NA,completion,12306.742,4826755.7000003,4826754.157,4826770.809,4839077.551,4839082.5,2023-06-19T16:05:49Z,4839094.15,NULL,Symbol,kielezo,s,kinyume,nderemo,utayari,NA,qt,NA,3,NA,NA,NA,NA,NA,NA,NA,NA,NA,NA,NA,NA,NA,NA,NA,NA,NA,NA,NA
c50e7,task,flow.Sequence,3_0_3_0_4,NA,NA,completion,12306.742,4826755.5,4826754.157,4826770.809,4839077.551,4839082.7000003,2023-06-19T16:05:49Z,4839094.15,NULL,Symbol,kielezo,s,kinyume,nderemo,utayari,NA,qt,NA,3,NA,NA,NA,NA,NA,NA,NA,NA,NA,NA,NA,NA,NA,NA,NA,NA,NA,NA,NA
c50e7,Deep Question,html.Page,3_0_3_0_5_0_0,NA,NA,form submission,11261.35,4839082.8000002,4839077.551,4839094.15,4850355.5,4850355.8000002,2023-06-19T16:06:01Z,4850358.126,NULL,Konkurrent,mshindani,d,NA,NA,NA,moashani,NA,NA,3,NA,NA,NA,NA,NA,NA,NA,NA,NA,NA,NA,NA,NA,NA,NA,NA,NA,NA,NA
c50e7,"""Richtig""-Screen",canvas.Screen,3_0_3_0_5_0_1,NA,NA,skipped,NA,4850358.7000003,NA,NA,4850355.5,4850358.8000002,2023-06-19T16:06:01Z,4850358.126,NULL,Konkurrent,mshindani,d,NA,NA,NA,NA,qt,NA,3,NA,NA,NA,NA,NA,NA,NA,NA,NA,NA,NA,NA,NA,NA,NA,NA,NA,NA,NA
c50e7,"""Falsch""-Screen",canvas.Screen,3_0_3_0_5_0_2,NA,NA,timeout,5008.068,4850359.9000001,4850349.539,4850358.126,4855349.556,4855350.2000003,2023-06-19T16:06:06Z,4855366.194,NULL,Konkurrent,mshindani,d,NA,NA,NA,NA,qt,0,3,NA,NA,NA,NA,NA,NA,NA,NA,NA,NA,NA,NA,NA,NA,NA,NA,NA,NA,NA
c50e7,deep,flow.Sequence,3_0_3_0_5_0,NA,NA,completion,16255.405999999,4839082.8000002,4839077.551,4839094.15,4855349.556,4855350.5,2023-06-19T16:06:06Z,4855366.194,NULL,Konkurrent,mshindani,d,NA,NA,NA,NA,qt,NA,3,NA,NA,NA,NA,NA,NA,NA,NA,NA,NA,NA,NA,NA,NA,NA,NA,NA,NA,NA
c50e7,shallow,flow.Sequence,3_0_3_0_5_1,NA,NA,skipped,NA,4855350.8000002,NA,NA,4855349.556,4855351,2023-06-19T16:06:06Z,4855366.194,NULL,Konkurrent,mshindani,d,NA,NA,NA,NA,qt,NA,3,NA,NA,NA,NA,NA,NA,NA,NA,NA,NA,NA,NA,NA,NA,NA,NA,NA,NA,NA
c50e7,task,flow.Sequence,3_0_3_0_5,NA,NA,completion,16255.405999999,4839082.8000002,4839077.551,4839094.15,4855349.556,4855351.2000003,2023-06-19T16:06:06Z,4855366.194,NULL,Konkurrent,mshindani,d,NA,NA,NA,NA,qt,NA,3,NA,NA,NA,NA,NA,NA,NA,NA,NA,NA,NA,NA,NA,NA,NA,NA,NA,NA,NA
c50e7,Deep Question,html.Page,3_0_3_0_6_0_0,NA,NA,form submission,4620.9060003813,4855352.5,4855349.556,4855366.194,4859987.1000004,4859987.4000001,2023-06-19T16:06:10Z,4859998.421,NULL,System,maongozi,d,NA,NA,NA,kiliezo,NA,NA,3,NA,NA,NA,NA,NA,NA,NA,NA,NA,NA,NA,NA,NA,NA,NA,NA,NA,NA,NA
c50e7,"""Richtig""-Screen",canvas.Screen,3_0_3_0_6_0_1,NA,NA,skipped,NA,4859990.1000004,NA,NA,4859987.1000004,4859990.3000002,2023-06-19T16:06:10Z,4859998.421,NULL,System,maongozi,d,NA,NA,NA,NA,qt,NA,3,NA,NA,NA,NA,NA,NA,NA,NA,NA,NA,NA,NA,NA,NA,NA,NA,NA,NA,NA
c50e7,"""Falsch""-Screen",canvas.Screen,3_0_3_0_6_0_2,NA,NA,timeout,4995.3949999996,4859991.2000003,4859973.332,4859998.421,4864977.181,4864977.9000001,2023-06-19T16:06:15Z,4864993.816,NULL,System,maongozi,d,NA,NA,NA,NA,qt,0,3,NA,NA,NA,NA,NA,NA,NA,NA,NA,NA,NA,NA,NA,NA,NA,NA,NA,NA,NA
c50e7,deep,flow.Sequence,3_0_3_0_6_0,NA,NA,completion,9610.9869999997,4855352.4000001,4855349.556,4855366.194,4864977.181,4864978,2023-06-19T16:06:15Z,4864993.816,NULL,System,maongozi,d,NA,NA,NA,NA,qt,NA,3,NA,NA,NA,NA,NA,NA,NA,NA,NA,NA,NA,NA,NA,NA,NA,NA,NA,NA,NA
c50e7,shallow,flow.Sequence,3_0_3_0_6_1,NA,NA,skipped,NA,4864978.2000003,NA,NA,4864977.181,4864978.3000002,2023-06-19T16:06:15Z,4864993.816,NULL,System,maongozi,d,NA,NA,NA,NA,qt,NA,3,NA,NA,NA,NA,NA,NA,NA,NA,NA,NA,NA,NA,NA,NA,NA,NA,NA,NA,NA
c50e7,task,flow.Sequence,3_0_3_0_6,NA,NA,completion,9610.9869999997,4855352.3000002,4855349.556,4855366.194,4864977.181,4864978.4000001,2023-06-19T16:06:15Z,4864993.816,NULL,System,maongozi,d,NA,NA,NA,NA,qt,NA,3,NA,NA,NA,NA,NA,NA,NA,NA,NA,NA,NA,NA,NA,NA,NA,NA,NA,NA,NA
c50e7,deep,flow.Sequence,3_0_3_0_7_0,NA,NA,skipped,NA,4864978.6000004,NA,NA,4864977.181,4864978.7000003,2023-06-19T16:06:15Z,4864993.816,NULL,Zuwachs,nyongeza,s,matilaba,udhibiti,hudhurio,NA,qt,NA,3,NA,NA,NA,NA,NA,NA,NA,NA,NA,NA,NA,NA,NA,NA,NA,NA,NA,NA,NA
c50e7,Shallow Question,html.Page,3_0_3_0_7_1_0,NA,NA,form submission,5937.9840001911,4864978.7000003,4864977.181,4864993.816,4870931.8000002,4870931.9000001,2023-06-19T16:06:21Z,4870946.664,NULL,Zuwachs,nyongeza,s,matilaba,udhibiti,hudhurio,hudhurio,NA,NA,3,NA,NA,NA,NA,NA,NA,NA,NA,NA,NA,NA,NA,NA,NA,NA,NA,NA,NA,NA
c50e7,"""Richtig""-Screen",canvas.Screen,3_0_3_0_7_1_1,NA,NA,skipped,NA,4870933.8000002,NA,NA,4870931.8000002,4870934,2023-06-19T16:06:21Z,4870946.664,NULL,Zuwachs,nyongeza,s,matilaba,udhibiti,hudhurio,NA,qt,NA,3,NA,NA,NA,NA,NA,NA,NA,NA,NA,NA,NA,NA,NA,NA,NA,NA,NA,NA,NA
c50e7,"""Falsch""-Screen",canvas.Screen,3_0_3_0_7_1_2,NA,NA,timeout,4999.5099999998,4870934.6000004,4870916.89,4870946.664,4875929.62,4875930.2000003,2023-06-19T16:06:26Z,4875946.174,NULL,Zuwachs,nyongeza,s,matilaba,udhibiti,hudhurio,NA,qt,0,3,NA,NA,NA,NA,NA,NA,NA,NA,NA,NA,NA,NA,NA,NA,NA,NA,NA,NA,NA
c50e7,shallow,flow.Sequence,3_0_3_0_7_1,NA,NA,completion,10935.804,4864978.7000003,4864977.181,4864993.816,4875929.62,4875930.3000002,2023-06-19T16:06:26Z,4875946.174,NULL,Zuwachs,nyongeza,s,matilaba,udhibiti,hudhurio,NA,qt,NA,3,NA,NA,NA,NA,NA,NA,NA,NA,NA,NA,NA,NA,NA,NA,NA,NA,NA,NA,NA
c50e7,task,flow.Sequence,3_0_3_0_7,NA,NA,completion,10935.804,4864978.6000004,4864977.181,4864993.816,4875929.62,4875930.5,2023-06-19T16:06:26Z,4875946.174,NULL,Zuwachs,nyongeza,s,matilaba,udhibiti,hudhurio,NA,qt,NA,3,NA,NA,NA,NA,NA,NA,NA,NA,NA,NA,NA,NA,NA,NA,NA,NA,NA,NA,NA
c50e7,block,flow.Loop,3_0_3_0,NA,NA,completion,99735.67,4776166.3000002,4776161.459,4776193.95,4875929.62,4875930.6000004,2023-06-19T16:06:26Z,4875946.174,NULL,NA,NA,NA,NA,NA,NA,NA,qt,NA,3,NA,NA,NA,NA,NA,NA,NA,NA,NA,NA,NA,NA,NA,NA,NA,NA,NA,NA,NA
c50e7,weiter,canvas.Screen,3_0_3_1,sdf,keypress(Space),response,1472.2260000957,4875930.7000003,4875929.62,4875946.174,4877418.4000001,4877419.1000004,2023-06-19T16:06:28Z,4877475.227,NULL,NA,NA,NA,NA,NA,NA,NA,qt,NA,3,NA,NA,NA,NA,NA,NA,NA,NA,NA,NA,NA,NA,NA,NA,NA,NA,NA,NA,NA
c50e7,check continue,flow.Sequence,3_0_3,NA,NA,completion,101224.4500001,4776166.2000003,4776161.459,4776193.95,4877418.4000001,4877419.4000001,2023-06-19T16:06:28Z,4877475.227,NULL,NA,NA,NA,NA,NA,NA,NA,qt,NA,3,NA,NA,NA,NA,NA,NA,NA,NA,NA,NA,NA,NA,NA,NA,NA,NA,NA,NA,NA
c50e7,Deep Question,html.Page,3_0_4_0_0_0_0,NA,NA,form submission,8860.4730002861,4877464.1000004,4877461.582,4877475.227,4886335.7000003,4886335.8000002,2023-06-19T16:06:37Z,4886343.463,NULL,Konkurrent,mshindani,d,NA,NA,NA,tadhari,NA,NA,4,NA,NA,NA,NA,NA,NA,NA,NA,NA,NA,NA,NA,NA,NA,NA,NA,NA,NA,NA
c50e7,"""Richtig""-Screen",canvas.Screen,3_0_4_0_0_0_1,NA,NA,skipped,NA,4886338.3000002,NA,NA,4886335.7000003,4886338.5,2023-06-19T16:06:37Z,4886343.463,NULL,Konkurrent,mshindani,d,NA,NA,NA,NA,sd,NA,4,NA,NA,NA,NA,NA,NA,NA,NA,NA,NA,NA,NA,NA,NA,NA,NA,NA,NA,NA
c50e7,"""Falsch""-Screen",canvas.Screen,3_0_4_0_0_0_2,NA,NA,timeout,4995.4629999995,4886339.4000001,4886330.682,4886343.463,4891322.295,4891322.9000001,2023-06-19T16:06:42Z,4891338.926,NULL,Konkurrent,mshindani,d,NA,NA,NA,NA,sd,0,4,NA,NA,NA,NA,NA,NA,NA,NA,NA,NA,NA,NA,NA,NA,NA,NA,NA,NA,NA
c50e7,deep,flow.Sequence,3_0_4_0_0_0,NA,NA,completion,13847.068,4877464.1000004,4877461.582,4877475.227,4891322.295,4891323.1000004,2023-06-19T16:06:42Z,4891338.926,NULL,Konkurrent,mshindani,d,NA,NA,NA,NA,sd,NA,4,NA,NA,NA,NA,NA,NA,NA,NA,NA,NA,NA,NA,NA,NA,NA,NA,NA,NA,NA
c50e7,shallow,flow.Sequence,3_0_4_0_0_1,NA,NA,skipped,NA,4891323.1000004,NA,NA,4891322.295,4891323.3000002,2023-06-19T16:06:42Z,4891338.926,NULL,Konkurrent,mshindani,d,NA,NA,NA,NA,sd,NA,4,NA,NA,NA,NA,NA,NA,NA,NA,NA,NA,NA,NA,NA,NA,NA,NA,NA,NA,NA
c50e7,task,flow.Sequence,3_0_4_0_0,NA,NA,completion,13847.068,4877464.1000004,4877461.582,4877475.227,4891322.295,4891323.4000001,2023-06-19T16:06:42Z,4891338.926,NULL,Konkurrent,mshindani,d,NA,NA,NA,NA,sd,NA,4,NA,NA,NA,NA,NA,NA,NA,NA,NA,NA,NA,NA,NA,NA,NA,NA,NA,NA,NA
c50e7,deep,flow.Sequence,3_0_4_0_1_0,NA,NA,skipped,NA,4891323.5,NA,NA,4891322.295,4891323.6000004,2023-06-19T16:06:42Z,4891338.926,NULL,Zuwachs,nyongeza,s,matilaba,udhibiti,hudhurio,NA,sd,NA,4,NA,NA,NA,NA,NA,NA,NA,NA,NA,NA,NA,NA,NA,NA,NA,NA,NA,NA,NA
c50e7,Shallow Question,html.Page,3_0_4_0_1_1_0,NA,NA,form submission,5562.7740002861,4891323.7000003,4891322.295,4891338.926,4896901.7000003,4896901.9000001,2023-06-19T16:06:47Z,4896916.739,NULL,Zuwachs,nyongeza,s,matilaba,udhibiti,hudhurio,nyongeza,NA,NA,4,NA,NA,NA,NA,NA,NA,NA,NA,NA,NA,NA,NA,NA,NA,NA,NA,NA,NA,NA
c50e7,"""Richtig""-Screen",canvas.Screen,3_0_4_0_1_1_1,NA,NA,timeout,4999.4969999995,4896904.4000001,4896891.319,4896916.739,4901899.58,4901900.1000004,2023-06-19T16:06:52Z,4901916.236,NULL,Zuwachs,nyongeza,s,matilaba,udhibiti,hudhurio,NA,sd,1,4,NA,NA,NA,NA,NA,NA,NA,NA,NA,NA,NA,NA,NA,NA,NA,NA,NA,NA,NA
c50e7,"""Falsch""-Screen",canvas.Screen,3_0_4_0_1_1_2,NA,NA,skipped,NA,4901903.3000002,NA,NA,4901899.58,4901903.6000004,2023-06-19T16:06:52Z,4901916.236,NULL,Zuwachs,nyongeza,s,matilaba,udhibiti,hudhurio,NA,sd,NA,4,NA,NA,NA,NA,NA,NA,NA,NA,NA,NA,NA,NA,NA,NA,NA,NA,NA,NA,NA
c50e7,shallow,flow.Sequence,3_0_4_0_1_1,NA,NA,completion,10560.654,4891323.7000003,4891322.295,4891338.926,4901899.58,4901903.8000002,2023-06-19T16:06:52Z,4901916.236,NULL,Zuwachs,nyongeza,s,matilaba,udhibiti,hudhurio,NA,sd,NA,4,NA,NA,NA,NA,NA,NA,NA,NA,NA,NA,NA,NA,NA,NA,NA,NA,NA,NA,NA
c50e7,task,flow.Sequence,3_0_4_0_1,NA,NA,completion,10560.654,4891323.5,4891322.295,4891338.926,4901899.58,4901904,2023-06-19T16:06:52Z,4901916.236,NULL,Zuwachs,nyongeza,s,matilaba,udhibiti,hudhurio,NA,sd,NA,4,NA,NA,NA,NA,NA,NA,NA,NA,NA,NA,NA,NA,NA,NA,NA,NA,NA,NA,NA
c50e7,Deep Question,html.Page,3_0_4_0_2_0_0,NA,NA,form submission,6616.9640002865,4901904.1000004,4901899.58,4901916.236,4908533.2000003,4908533.5,2023-06-19T16:06:59Z,4908543.597,NULL,System,maongozi,d,NA,NA,NA,kiliezo,NA,NA,4,NA,NA,NA,NA,NA,NA,NA,NA,NA,NA,NA,NA,NA,NA,NA,NA,NA,NA,NA
c50e7,"""Richtig""-Screen",canvas.Screen,3_0_4_0_2_0_1,NA,NA,skipped,NA,4908536,NA,NA,4908533.2000003,4908536.3000002,2023-06-19T16:06:59Z,4908543.597,NULL,System,maongozi,d,NA,NA,NA,NA,sd,NA,4,NA,NA,NA,NA,NA,NA,NA,NA,NA,NA,NA,NA,NA,NA,NA,NA,NA,NA,NA
c50e7,"""Falsch""-Screen",canvas.Screen,3_0_4_0_2_0_2,NA,NA,timeout,5007.8090000004,4908537.2000003,4908527.003,4908543.597,4913534.802,4913535.3000002,2023-06-19T16:07:04Z,4913551.406,NULL,System,maongozi,d,NA,NA,NA,NA,sd,0,4,NA,NA,NA,NA,NA,NA,NA,NA,NA,NA,NA,NA,NA,NA,NA,NA,NA,NA,NA
c50e7,deep,flow.Sequence,3_0_4_0_2_0,NA,NA,completion,11618.566000001,4901904,4901899.58,4901916.236,4913534.802,4913535.6000004,2023-06-19T16:07:04Z,4913551.406,NULL,System,maongozi,d,NA,NA,NA,NA,sd,NA,4,NA,NA,NA,NA,NA,NA,NA,NA,NA,NA,NA,NA,NA,NA,NA,NA,NA,NA,NA
c50e7,shallow,flow.Sequence,3_0_4_0_2_1,NA,NA,skipped,NA,4913535.6000004,NA,NA,4913534.802,4913535.8000002,2023-06-19T16:07:04Z,4913551.406,NULL,System,maongozi,d,NA,NA,NA,NA,sd,NA,4,NA,NA,NA,NA,NA,NA,NA,NA,NA,NA,NA,NA,NA,NA,NA,NA,NA,NA,NA
c50e7,task,flow.Sequence,3_0_4_0_2,NA,NA,completion,11618.566000001,4901904,4901899.58,4901916.236,4913534.802,4913536,2023-06-19T16:07:04Z,4913551.406,NULL,System,maongozi,d,NA,NA,NA,NA,sd,NA,4,NA,NA,NA,NA,NA,NA,NA,NA,NA,NA,NA,NA,NA,NA,NA,NA,NA,NA,NA
c50e7,Deep Question,html.Page,3_0_4_0_3_0_0,NA,NA,form submission,6397.2940002857,4913536.1000004,4913534.802,4913551.406,4919948.7000003,4919949,2023-06-19T16:07:10Z,4919954.151,NULL,Vorsorge,tahadhari,d,NA,NA,NA,tadhari,NA,NA,4,NA,NA,NA,NA,NA,NA,NA,NA,NA,NA,NA,NA,NA,NA,NA,NA,NA,NA,NA
c50e7,"""Richtig""-Screen",canvas.Screen,3_0_4_0_3_0_1,NA,NA,skipped,NA,4919951.1000004,NA,NA,4919948.7000003,4919951.3000002,2023-06-19T16:07:10Z,4919954.151,NULL,Vorsorge,tahadhari,d,NA,NA,NA,NA,sd,NA,4,NA,NA,NA,NA,NA,NA,NA,NA,NA,NA,NA,NA,NA,NA,NA,NA,NA,NA,NA
c50e7,"""Falsch""-Screen",canvas.Screen,3_0_4_0_3_0_2,NA,NA,timeout,4995.6040000003,4919951.9000001,4919945.632,4919954.151,4924933.096,4924933.8000002,2023-06-19T16:07:15Z,4924949.755,NULL,Vorsorge,tahadhari,d,NA,NA,NA,NA,sd,0,4,NA,NA,NA,NA,NA,NA,NA,NA,NA,NA,NA,NA,NA,NA,NA,NA,NA,NA,NA
c50e7,deep,flow.Sequence,3_0_4_0_3_0,NA,NA,completion,11381.689999999,4913536.1000004,4913534.802,4913551.406,4924933.096,4924934,2023-06-19T16:07:15Z,4924949.755,NULL,Vorsorge,tahadhari,d,NA,NA,NA,NA,sd,NA,4,NA,NA,NA,NA,NA,NA,NA,NA,NA,NA,NA,NA,NA,NA,NA,NA,NA,NA,NA
c50e7,shallow,flow.Sequence,3_0_4_0_3_1,NA,NA,skipped,NA,4924934.2000003,NA,NA,4924933.096,4924934.3000002,2023-06-19T16:07:15Z,4924949.755,NULL,Vorsorge,tahadhari,d,NA,NA,NA,NA,sd,NA,4,NA,NA,NA,NA,NA,NA,NA,NA,NA,NA,NA,NA,NA,NA,NA,NA,NA,NA,NA
c50e7,task,flow.Sequence,3_0_4_0_3,NA,NA,completion,11381.689999999,4913536.1000004,4913534.802,4913551.406,4924933.096,4924934.5,2023-06-19T16:07:15Z,4924949.755,NULL,Vorsorge,tahadhari,d,NA,NA,NA,NA,sd,NA,4,NA,NA,NA,NA,NA,NA,NA,NA,NA,NA,NA,NA,NA,NA,NA,NA,NA,NA,NA
c50e7,Deep Question,html.Page,3_0_4_0_4_0_0,NA,NA,form submission,7520.6450000955,4924934.6000004,4924933.096,4924949.755,4932470.4000001,4932470.6000004,2023-06-19T16:07:23Z,4932473.268,NULL,Lawine,banguko,d,NA,NA,NA,hunghui,NA,NA,4,NA,NA,NA,NA,NA,NA,NA,NA,NA,NA,NA,NA,NA,NA,NA,NA,NA,NA,NA
c50e7,"""Richtig""-Screen",canvas.Screen,3_0_4_0_4_0_1,NA,NA,skipped,NA,4932472.7000003,NA,NA,4932470.4000001,4932472.8000002,2023-06-19T16:07:23Z,4932473.268,NULL,Lawine,banguko,d,NA,NA,NA,NA,sd,NA,4,NA,NA,NA,NA,NA,NA,NA,NA,NA,NA,NA,NA,NA,NA,NA,NA,NA,NA,NA
c50e7,"""Falsch""-Screen",canvas.Screen,3_0_4_0_4_0_2,NA,NA,timeout,5003.8020000001,4932473.7000003,4932460.518,4932473.268,4937460.446,4937460.9000001,2023-06-19T16:07:28Z,4937477.07,NULL,Lawine,banguko,d,NA,NA,NA,NA,sd,0,4,NA,NA,NA,NA,NA,NA,NA,NA,NA,NA,NA,NA,NA,NA,NA,NA,NA,NA,NA
c50e7,deep,flow.Sequence,3_0_4_0_4_0,NA,NA,completion,12510.691000001,4924934.5,4924933.096,4924949.755,4937460.446,4937461.2000003,2023-06-19T16:07:28Z,4937477.07,NULL,Lawine,banguko,d,NA,NA,NA,NA,sd,NA,4,NA,NA,NA,NA,NA,NA,NA,NA,NA,NA,NA,NA,NA,NA,NA,NA,NA,NA,NA
c50e7,shallow,flow.Sequence,3_0_4_0_4_1,NA,NA,skipped,NA,4937461.3000002,NA,NA,4937460.446,4937461.5,2023-06-19T16:07:28Z,4937477.07,NULL,Lawine,banguko,d,NA,NA,NA,NA,sd,NA,4,NA,NA,NA,NA,NA,NA,NA,NA,NA,NA,NA,NA,NA,NA,NA,NA,NA,NA,NA
c50e7,task,flow.Sequence,3_0_4_0_4,NA,NA,completion,12510.691000001,4924934.5,4924933.096,4924949.755,4937460.446,4937461.6000004,2023-06-19T16:07:28Z,4937477.07,NULL,Lawine,banguko,d,NA,NA,NA,NA,sd,NA,4,NA,NA,NA,NA,NA,NA,NA,NA,NA,NA,NA,NA,NA,NA,NA,NA,NA,NA,NA
c50e7,deep,flow.Sequence,3_0_4_0_5_0,NA,NA,skipped,NA,4937461.8000002,NA,NA,4937460.446,4937461.8000002,2023-06-19T16:07:28Z,4937477.07,NULL,Übersicht,kilindo,s,mgusano,chipukizi,kulinganisha,NA,sd,NA,4,NA,NA,NA,NA,NA,NA,NA,NA,NA,NA,NA,NA,NA,NA,NA,NA,NA,NA,NA
c50e7,Shallow Question,html.Page,3_0_4_0_5_1_0,NA,NA,form submission,5087.5300003812,4937461.9000001,4937460.446,4937477.07,4942564.6000004,4942564.8000002,2023-06-19T16:07:33Z,4942580.168,NULL,Übersicht,kilindo,s,mgusano,chipukizi,kulinganisha,kilindo,NA,NA,4,NA,NA,NA,NA,NA,NA,NA,NA,NA,NA,NA,NA,NA,NA,NA,NA,NA,NA,NA
c50e7,"""Richtig""-Screen",canvas.Screen,3_0_4_0_5_1_1,NA,NA,timeout,4995.2660000008,4942567.5,4942550.31,4942580.168,4947558.849,4947559.4000001,2023-06-19T16:07:38Z,4947575.434,NULL,Übersicht,kilindo,s,mgusano,chipukizi,kulinganisha,NA,sd,1,4,NA,NA,NA,NA,NA,NA,NA,NA,NA,NA,NA,NA,NA,NA,NA,NA,NA,NA,NA
c50e7,"""Falsch""-Screen",canvas.Screen,3_0_4_0_5_1_2,NA,NA,skipped,NA,4947563.6000004,NA,NA,4947558.849,4947563.9000001,2023-06-19T16:07:38Z,4947575.434,NULL,Übersicht,kilindo,s,mgusano,chipukizi,kulinganisha,NA,sd,NA,4,NA,NA,NA,NA,NA,NA,NA,NA,NA,NA,NA,NA,NA,NA,NA,NA,NA,NA,NA
c50e7,shallow,flow.Sequence,3_0_4_0_5_1,NA,NA,completion,10081.779,4937461.9000001,4937460.446,4937477.07,4947558.849,4947564.2000003,2023-06-19T16:07:38Z,4947575.434,NULL,Übersicht,kilindo,s,mgusano,chipukizi,kulinganisha,NA,sd,NA,4,NA,NA,NA,NA,NA,NA,NA,NA,NA,NA,NA,NA,NA,NA,NA,NA,NA,NA,NA
c50e7,task,flow.Sequence,3_0_4_0_5,NA,NA,completion,10081.779,4937461.7000003,4937460.446,4937477.07,4947558.849,4947564.4000001,2023-06-19T16:07:38Z,4947575.434,NULL,Übersicht,kilindo,s,mgusano,chipukizi,kulinganisha,NA,sd,NA,4,NA,NA,NA,NA,NA,NA,NA,NA,NA,NA,NA,NA,NA,NA,NA,NA,NA,NA,NA
c50e7,deep,flow.Sequence,3_0_4_0_6_0,NA,NA,skipped,NA,4947565.7000003,NA,NA,4947558.849,4947565.9000001,2023-06-19T16:07:38Z,4947575.434,NULL,Körper,kiwiliwili,s,mapambano,mpatanishi,kiolezo,NA,sd,NA,4,NA,NA,NA,NA,NA,NA,NA,NA,NA,NA,NA,NA,NA,NA,NA,NA,NA,NA,NA
c50e7,Shallow Question,html.Page,3_0_4_0_6_1_0,NA,NA,form submission,5444.5659999996,4947566,4947558.849,4947575.434,4953020,4953020.3000002,2023-06-19T16:07:43Z,4953027.749,NULL,Körper,kiwiliwili,s,mapambano,mpatanishi,kiolezo,kiwiliwili,NA,NA,4,NA,NA,NA,NA,NA,NA,NA,NA,NA,NA,NA,NA,NA,NA,NA,NA,NA,NA,NA
c50e7,"""Richtig""-Screen",canvas.Screen,3_0_4_0_6_1_1,NA,NA,timeout,4999.6680000005,4953023.4000001,4953006.57,4953027.749,4958010.764,4958011.3000002,2023-06-19T16:07:48Z,4958027.417,NULL,Körper,kiwiliwili,s,mapambano,mpatanishi,kiolezo,NA,sd,1,4,NA,NA,NA,NA,NA,NA,NA,NA,NA,NA,NA,NA,NA,NA,NA,NA,NA,NA,NA
c50e7,"""Falsch""-Screen",canvas.Screen,3_0_4_0_6_1_2,NA,NA,skipped,NA,4958014.6000004,NA,NA,4958010.764,4958014.9000001,2023-06-19T16:07:48Z,4958027.417,NULL,Körper,kiwiliwili,s,mapambano,mpatanishi,kiolezo,NA,sd,NA,4,NA,NA,NA,NA,NA,NA,NA,NA,NA,NA,NA,NA,NA,NA,NA,NA,NA,NA,NA
c50e7,shallow,flow.Sequence,3_0_4_0_6_1,NA,NA,completion,10435.33,4947566,4947558.849,4947575.434,4958010.764,4958015.1000004,2023-06-19T16:07:48Z,4958027.417,NULL,Körper,kiwiliwili,s,mapambano,mpatanishi,kiolezo,NA,sd,NA,4,NA,NA,NA,NA,NA,NA,NA,NA,NA,NA,NA,NA,NA,NA,NA,NA,NA,NA,NA
c50e7,task,flow.Sequence,3_0_4_0_6,NA,NA,completion,10435.33,4947565.6000004,4947558.849,4947575.434,4958010.764,4958015.3000002,2023-06-19T16:07:48Z,4958027.417,NULL,Körper,kiwiliwili,s,mapambano,mpatanishi,kiolezo,NA,sd,NA,4,NA,NA,NA,NA,NA,NA,NA,NA,NA,NA,NA,NA,NA,NA,NA,NA,NA,NA,NA
c50e7,deep,flow.Sequence,3_0_4_0_7_0,NA,NA,skipped,NA,4958015.5,NA,NA,4958010.764,4958015.5,2023-06-19T16:07:48Z,4958027.417,NULL,Symbol,kielezo,s,kinyume,nderemo,utayari,NA,sd,NA,4,NA,NA,NA,NA,NA,NA,NA,NA,NA,NA,NA,NA,NA,NA,NA,NA,NA,NA,NA
c50e7,Shallow Question,html.Page,3_0_4_0_7_1_0,NA,NA,form submission,7241.6830003811,4958015.6000004,4958010.764,4958027.417,4965269.1000004,4965269.3000002,2023-06-19T16:07:56Z,4965284.321,NULL,Symbol,kielezo,s,kinyume,nderemo,utayari,kielezo,NA,NA,4,NA,NA,NA,NA,NA,NA,NA,NA,NA,NA,NA,NA,NA,NA,NA,NA,NA,NA,NA
c50e7,"""Richtig""-Screen",canvas.Screen,3_0_4_0_7_1_1,NA,NA,timeout,5007.7999999998,4965271.1000004,4965263.047,4965284.321,4970275.484,4970276.2000003,2023-06-19T16:08:01Z,4970292.121,NULL,Symbol,kielezo,s,kinyume,nderemo,utayari,NA,sd,1,4,NA,NA,NA,NA,NA,NA,NA,NA,NA,NA,NA,NA,NA,NA,NA,NA,NA,NA,NA
c50e7,"""Falsch""-Screen",canvas.Screen,3_0_4_0_7_1_2,NA,NA,skipped,NA,4970280.6000004,NA,NA,4970275.484,4970280.9000001,2023-06-19T16:08:01Z,4970292.121,NULL,Symbol,kielezo,s,kinyume,nderemo,utayari,NA,sd,NA,4,NA,NA,NA,NA,NA,NA,NA,NA,NA,NA,NA,NA,NA,NA,NA,NA,NA,NA,NA
c50e7,shallow,flow.Sequence,3_0_4_0_7_1,NA,NA,completion,12248.067,4958015.6000004,4958010.764,4958027.417,4970275.484,4970281.3000002,2023-06-19T16:08:01Z,4970292.121,NULL,Symbol,kielezo,s,kinyume,nderemo,utayari,NA,sd,NA,4,NA,NA,NA,NA,NA,NA,NA,NA,NA,NA,NA,NA,NA,NA,NA,NA,NA,NA,NA
c50e7,task,flow.Sequence,3_0_4_0_7,NA,NA,completion,12248.067,4958015.4000001,4958010.764,4958027.417,4970275.484,4970281.4000001,2023-06-19T16:08:01Z,4970292.121,NULL,Symbol,kielezo,s,kinyume,nderemo,utayari,NA,sd,NA,4,NA,NA,NA,NA,NA,NA,NA,NA,NA,NA,NA,NA,NA,NA,NA,NA,NA,NA,NA
c50e7,block,flow.Loop,3_0_4_0,NA,NA,completion,92800.257,4877464.1000004,4877461.582,4877475.227,4970275.484,4970281.7000003,2023-06-19T16:08:01Z,4970292.121,NULL,NA,NA,NA,NA,NA,NA,NA,sd,NA,4,NA,NA,NA,NA,NA,NA,NA,NA,NA,NA,NA,NA,NA,NA,NA,NA,NA,NA,NA
c50e7,weiter,canvas.Screen,3_0_4_1,sdf,keypress(Space),response,1665.8789999997,4970281.9000001,4970275.484,4970292.121,4971958,4971958.7000003,2023-06-19T16:08:02Z,4972025.269,NULL,NA,NA,NA,NA,NA,NA,NA,sd,NA,4,NA,NA,NA,NA,NA,NA,NA,NA,NA,NA,NA,NA,NA,NA,NA,NA,NA,NA,NA
c50e7,check continue,flow.Sequence,3_0_4,NA,NA,completion,94482.773,4877464.1000004,4877461.582,4877475.227,4971958,4971958.8000002,2023-06-19T16:08:02Z,4972025.269,NULL,NA,NA,NA,NA,NA,NA,NA,sd,NA,4,NA,NA,NA,NA,NA,NA,NA,NA,NA,NA,NA,NA,NA,NA,NA,NA,NA,NA,NA
c50e7,deep,flow.Sequence,3_0_5_0_0_0,NA,NA,skipped,NA,4972001.3000002,NA,NA,4971958,4972008.3000002,2023-06-19T16:08:02Z,4972025.269,NULL,Übersicht,kilindo,s,mgusano,chipukizi,kulinganisha,NA,sdf,NA,5,NA,NA,NA,NA,NA,NA,NA,NA,NA,NA,NA,NA,NA,NA,NA,NA,NA,NA,NA
c50e7,Shallow Question,html.Page,3_0_5_0_0_1_0,NA,NA,form submission,6359.2309999997,4972008.4000001,4972007.298,4972025.269,4978384.5,4978384.6000004,2023-06-19T16:08:09Z,4978393.72,NULL,Übersicht,kilindo,s,mgusano,chipukizi,kulinganisha,kilindo,NA,NA,5,NA,NA,NA,NA,NA,NA,NA,NA,NA,NA,NA,NA,NA,NA,NA,NA,NA,NA,NA
c50e7,"""Richtig""-Screen",canvas.Screen,3_0_5_0_0_1_1,NA,NA,timeout,4999.4199999999,4978386.6000004,4978375.934,4978393.72,4983376.498,4983377.1000004,2023-06-19T16:08:14Z,4983393.14,NULL,Übersicht,kilindo,s,mgusano,chipukizi,kulinganisha,NA,sdf,1,5,NA,NA,NA,NA,NA,NA,NA,NA,NA,NA,NA,NA,NA,NA,NA,NA,NA,NA,NA
c50e7,"""Falsch""-Screen",canvas.Screen,3_0_5_0_0_1_2,NA,NA,skipped,NA,4983380.7000003,NA,NA,4983376.498,4983380.9000001,2023-06-19T16:08:14Z,4983393.14,NULL,Übersicht,kilindo,s,mgusano,chipukizi,kulinganisha,NA,sdf,NA,5,NA,NA,NA,NA,NA,NA,NA,NA,NA,NA,NA,NA,NA,NA,NA,NA,NA,NA,NA
c50e7,shallow,flow.Sequence,3_0_5_0_0_1,NA,NA,completion,11351.228999999,4972008.4000001,4972007.298,4972025.269,4983376.498,4983381.2000003,2023-06-19T16:08:14Z,4983393.14,NULL,Übersicht,kilindo,s,mgusano,chipukizi,kulinganisha,NA,sdf,NA,5,NA,NA,NA,NA,NA,NA,NA,NA,NA,NA,NA,NA,NA,NA,NA,NA,NA,NA,NA
c50e7,task,flow.Sequence,3_0_5_0_0,NA,NA,completion,11351.228999999,4972001.3000002,4972007.298,4972025.269,4983376.498,4983381.4000001,2023-06-19T16:08:14Z,4983393.14,NULL,Übersicht,kilindo,s,mgusano,chipukizi,kulinganisha,NA,sdf,NA,5,NA,NA,NA,NA,NA,NA,NA,NA,NA,NA,NA,NA,NA,NA,NA,NA,NA,NA,NA
c50e7,deep,flow.Sequence,3_0_5_0_1_0,NA,NA,skipped,NA,4983381.5,NA,NA,4983376.498,4983381.6000004,2023-06-19T16:08:14Z,4983393.14,NULL,Symbol,kielezo,s,kinyume,nderemo,utayari,NA,sdf,NA,5,NA,NA,NA,NA,NA,NA,NA,NA,NA,NA,NA,NA,NA,NA,NA,NA,NA,NA,NA
c50e7,Shallow Question,html.Page,3_0_5_0_1_1_0,NA,NA,form submission,8081.1600001911,4983381.7000003,4983376.498,4983393.14,4991474.3000002,4991474.5,2023-06-19T16:08:22Z,4991474.782,NULL,Symbol,kielezo,s,kinyume,nderemo,utayari,kielezo,NA,NA,5,NA,NA,NA,NA,NA,NA,NA,NA,NA,NA,NA,NA,NA,NA,NA,NA,NA,NA,NA
c50e7,"""Richtig""-Screen",canvas.Screen,3_0_5_0_1_1_1,NA,NA,timeout,4999.5710000005,4991476.5,4991457.535,4991474.782,4996457.718,4996458.3000002,2023-06-19T16:08:27Z,4996474.353,NULL,Symbol,kielezo,s,kinyume,nderemo,utayari,NA,sdf,1,5,NA,NA,NA,NA,NA,NA,NA,NA,NA,NA,NA,NA,NA,NA,NA,NA,NA,NA,NA
c50e7,"""Falsch""-Screen",canvas.Screen,3_0_5_0_1_1_2,NA,NA,skipped,NA,4996461.3000002,NA,NA,4996457.718,4996461.5,2023-06-19T16:08:27Z,4996474.353,NULL,Symbol,kielezo,s,kinyume,nderemo,utayari,NA,sdf,NA,5,NA,NA,NA,NA,NA,NA,NA,NA,NA,NA,NA,NA,NA,NA,NA,NA,NA,NA,NA
c50e7,shallow,flow.Sequence,3_0_5_0_1_1,NA,NA,completion,13064.578000001,4983381.6000004,4983376.498,4983393.14,4996457.718,4996461.7000003,2023-06-19T16:08:27Z,4996474.353,NULL,Symbol,kielezo,s,kinyume,nderemo,utayari,NA,sdf,NA,5,NA,NA,NA,NA,NA,NA,NA,NA,NA,NA,NA,NA,NA,NA,NA,NA,NA,NA,NA
c50e7,task,flow.Sequence,3_0_5_0_1,NA,NA,completion,13064.578000001,4983381.5,4983376.498,4983393.14,4996457.718,4996461.8000002,2023-06-19T16:08:27Z,4996474.353,NULL,Symbol,kielezo,s,kinyume,nderemo,utayari,NA,sdf,NA,5,NA,NA,NA,NA,NA,NA,NA,NA,NA,NA,NA,NA,NA,NA,NA,NA,NA,NA,NA
c50e7,deep,flow.Sequence,3_0_5_0_2_0,NA,NA,skipped,NA,4996462,NA,NA,4996457.718,4996462,2023-06-19T16:08:27Z,4996474.353,NULL,Körper,kiwiliwili,s,mapambano,mpatanishi,kiolezo,NA,sdf,NA,5,NA,NA,NA,NA,NA,NA,NA,NA,NA,NA,NA,NA,NA,NA,NA,NA,NA,NA,NA
c50e7,Shallow Question,html.Page,3_0_5_0_2_1_0,NA,NA,form submission,5472.2470003814,4996462.2000003,4996457.718,4996474.353,5001946.6000004,5001946.8000002,2023-06-19T16:08:32Z,5001956.01,NULL,Körper,kiwiliwili,s,mapambano,mpatanishi,kiolezo,kiwiliwili,NA,NA,5,NA,NA,NA,NA,NA,NA,NA,NA,NA,NA,NA,NA,NA,NA,NA,NA,NA,NA,NA
c50e7,"""Richtig""-Screen",canvas.Screen,3_0_5_0_2_1_1,NA,NA,timeout,4995.2760000005,5001948.6000004,5001930.684,5001956.01,5006934.679,5006935.3000002,2023-06-19T16:08:37Z,5006951.286,NULL,Körper,kiwiliwili,s,mapambano,mpatanishi,kiolezo,NA,sdf,1,5,NA,NA,NA,NA,NA,NA,NA,NA,NA,NA,NA,NA,NA,NA,NA,NA,NA,NA,NA
c50e7,"""Falsch""-Screen",canvas.Screen,3_0_5_0_2_1_2,NA,NA,skipped,NA,5006939.5,NA,NA,5006934.679,5006939.8000002,2023-06-19T16:08:37Z,5006951.286,NULL,Körper,kiwiliwili,s,mapambano,mpatanishi,kiolezo,NA,sdf,NA,5,NA,NA,NA,NA,NA,NA,NA,NA,NA,NA,NA,NA,NA,NA,NA,NA,NA,NA,NA
c50e7,shallow,flow.Sequence,3_0_5_0_2_1,NA,NA,completion,10460.325999999,4996462.2000003,4996457.718,4996474.353,5006934.679,5006952.7000003,2023-06-19T16:08:37Z,5006951.286,NULL,Körper,kiwiliwili,s,mapambano,mpatanishi,kiolezo,NA,sdf,NA,5,NA,NA,NA,NA,NA,NA,NA,NA,NA,NA,NA,NA,NA,NA,NA,NA,NA,NA,NA
c50e7,task,flow.Sequence,3_0_5_0_2,NA,NA,completion,10460.325999999,4996462,4996457.718,4996474.353,5006934.679,5006953.2000003,2023-06-19T16:08:37Z,5006951.286,NULL,Körper,kiwiliwili,s,mapambano,mpatanishi,kiolezo,NA,sdf,NA,5,NA,NA,NA,NA,NA,NA,NA,NA,NA,NA,NA,NA,NA,NA,NA,NA,NA,NA,NA
c50e7,deep,flow.Sequence,3_0_5_0_3_0,NA,NA,skipped,NA,5006953.4000001,NA,NA,5006934.679,5006953.6000004,2023-06-19T16:08:37Z,5006951.286,NULL,Zuwachs,nyongeza,s,matilaba,udhibiti,hudhurio,NA,sdf,NA,5,NA,NA,NA,NA,NA,NA,NA,NA,NA,NA,NA,NA,NA,NA,NA,NA,NA,NA,NA
c50e7,Shallow Question,html.Page,3_0_5_0_3_1_0,NA,NA,form submission,6392.3140003812,5006953.8000002,5006934.679,5006951.286,5013343.6000004,5013343.8000002,2023-06-19T16:08:44Z,5013346.571,NULL,Zuwachs,nyongeza,s,matilaba,udhibiti,hudhurio,nyongeza,NA,NA,5,NA,NA,NA,NA,NA,NA,NA,NA,NA,NA,NA,NA,NA,NA,NA,NA,NA,NA,NA
c50e7,"""Richtig""-Screen",canvas.Screen,3_0_5_0_3_1_1,NA,NA,timeout,5003.9049999993,5013345.6000004,5013336.538,5013346.571,5018333.806,5018334.4000001,2023-06-19T16:08:49Z,5018350.476,NULL,Zuwachs,nyongeza,s,matilaba,udhibiti,hudhurio,NA,sdf,1,5,NA,NA,NA,NA,NA,NA,NA,NA,NA,NA,NA,NA,NA,NA,NA,NA,NA,NA,NA
c50e7,"""Falsch""-Screen",canvas.Screen,3_0_5_0_3_1_2,NA,NA,skipped,NA,5018338.6000004,NA,NA,5018333.806,5018338.9000001,2023-06-19T16:08:49Z,5018350.476,NULL,Zuwachs,nyongeza,s,matilaba,udhibiti,hudhurio,NA,sdf,NA,5,NA,NA,NA,NA,NA,NA,NA,NA,NA,NA,NA,NA,NA,NA,NA,NA,NA,NA,NA
c50e7,shallow,flow.Sequence,3_0_5_0_3_1,NA,NA,completion,11382.52,5006953.7000003,5006934.679,5006951.286,5018333.806,5018339.2000003,2023-06-19T16:08:49Z,5018350.476,NULL,Zuwachs,nyongeza,s,matilaba,udhibiti,hudhurio,NA,sdf,NA,5,NA,NA,NA,NA,NA,NA,NA,NA,NA,NA,NA,NA,NA,NA,NA,NA,NA,NA,NA
c50e7,task,flow.Sequence,3_0_5_0_3,NA,NA,completion,11382.52,5006953.4000001,5006934.679,5006951.286,5018333.806,5018339.4000001,2023-06-19T16:08:49Z,5018350.476,NULL,Zuwachs,nyongeza,s,matilaba,udhibiti,hudhurio,NA,sdf,NA,5,NA,NA,NA,NA,NA,NA,NA,NA,NA,NA,NA,NA,NA,NA,NA,NA,NA,NA,NA
c50e7,Deep Question,html.Page,3_0_5_0_4_0_0,NA,NA,form submission,12237.924000096,5018339.6000004,5018333.806,5018350.476,5030588.4000001,5030588.6000004,2023-06-19T16:09:01Z,5030605.543,NULL,Vorsorge,tahadhari,d,NA,NA,NA,tadhangari,NA,NA,5,NA,NA,NA,NA,NA,NA,NA,NA,NA,NA,NA,NA,NA,NA,NA,NA,NA,NA,NA
c50e7,"""Richtig""-Screen",canvas.Screen,3_0_5_0_4_0_1,NA,NA,skipped,NA,5030591.3000002,NA,NA,5030588.4000001,5030591.4000001,2023-06-19T16:09:01Z,5030605.543,NULL,Vorsorge,tahadhari,d,NA,NA,NA,NA,sdf,NA,5,NA,NA,NA,NA,NA,NA,NA,NA,NA,NA,NA,NA,NA,NA,NA,NA,NA,NA,NA
c50e7,"""Falsch""-Screen",canvas.Screen,3_0_5_0_4_0_2,NA,NA,timeout,4995.3960000006,5030592.5,5030584.415,5030605.543,5035584.286,5035584.9000001,2023-06-19T16:09:06Z,5035600.939,NULL,Vorsorge,tahadhari,d,NA,NA,NA,NA,sdf,0,5,NA,NA,NA,NA,NA,NA,NA,NA,NA,NA,NA,NA,NA,NA,NA,NA,NA,NA,NA
c50e7,deep,flow.Sequence,3_0_5_0_4_0,NA,NA,completion,17233.810000001,5018339.6000004,5018333.806,5018350.476,5035584.286,5035585.4000001,2023-06-19T16:09:06Z,5035600.939,NULL,Vorsorge,tahadhari,d,NA,NA,NA,NA,sdf,NA,5,NA,NA,NA,NA,NA,NA,NA,NA,NA,NA,NA,NA,NA,NA,NA,NA,NA,NA,NA
c50e7,shallow,flow.Sequence,3_0_5_0_4_1,NA,NA,skipped,NA,5035585.6000004,NA,NA,5035584.286,5035585.8000002,2023-06-19T16:09:06Z,5035600.939,NULL,Vorsorge,tahadhari,d,NA,NA,NA,NA,sdf,NA,5,NA,NA,NA,NA,NA,NA,NA,NA,NA,NA,NA,NA,NA,NA,NA,NA,NA,NA,NA
c50e7,task,flow.Sequence,3_0_5_0_4,NA,NA,completion,17233.810000001,5018339.5,5018333.806,5018350.476,5035584.286,5035586.1000004,2023-06-19T16:09:06Z,5035600.939,NULL,Vorsorge,tahadhari,d,NA,NA,NA,NA,sdf,NA,5,NA,NA,NA,NA,NA,NA,NA,NA,NA,NA,NA,NA,NA,NA,NA,NA,NA,NA,NA
c50e7,Deep Question,html.Page,3_0_5_0_5_0_0,NA,NA,form submission,14630.961000095,5035586.3000002,5035584.286,5035600.939,5050231.9000001,5050232.1000004,2023-06-19T16:09:21Z,5050244.485,NULL,Lawine,banguko,d,NA,NA,NA,bangkari,NA,NA,5,NA,NA,NA,NA,NA,NA,NA,NA,NA,NA,NA,NA,NA,NA,NA,NA,NA,NA,NA
c50e7,"""Richtig""-Screen",canvas.Screen,3_0_5_0_5_0_1,NA,NA,skipped,NA,5050234.5,NA,NA,5050231.9000001,5050234.7000003,2023-06-19T16:09:21Z,5050244.485,NULL,Lawine,banguko,d,NA,NA,NA,NA,sdf,NA,5,NA,NA,NA,NA,NA,NA,NA,NA,NA,NA,NA,NA,NA,NA,NA,NA,NA,NA,NA
c50e7,"""Falsch""-Screen",canvas.Screen,3_0_5_0_5_0_2,NA,NA,timeout,5003.7469999995,5050235.5,5050227.772,5050244.485,5055231.632,5055232.2000003,2023-06-19T16:09:26Z,5055248.232,NULL,Lawine,banguko,d,NA,NA,NA,NA,sdf,0,5,NA,NA,NA,NA,NA,NA,NA,NA,NA,NA,NA,NA,NA,NA,NA,NA,NA,NA,NA
c50e7,deep,flow.Sequence,3_0_5_0_5_0,NA,NA,completion,19630.693,5035586.3000002,5035584.286,5035600.939,5055231.632,5055232.5,2023-06-19T16:09:26Z,5055248.232,NULL,Lawine,banguko,d,NA,NA,NA,NA,sdf,NA,5,NA,NA,NA,NA,NA,NA,NA,NA,NA,NA,NA,NA,NA,NA,NA,NA,NA,NA,NA
c50e7,shallow,flow.Sequence,3_0_5_0_5_1,NA,NA,skipped,NA,5055232.7000003,NA,NA,5055231.632,5055232.9000001,2023-06-19T16:09:26Z,5055248.232,NULL,Lawine,banguko,d,NA,NA,NA,NA,sdf,NA,5,NA,NA,NA,NA,NA,NA,NA,NA,NA,NA,NA,NA,NA,NA,NA,NA,NA,NA,NA
c50e7,task,flow.Sequence,3_0_5_0_5,NA,NA,completion,19630.693,5035586.2000003,5035584.286,5035600.939,5055231.632,5055233.2000003,2023-06-19T16:09:26Z,5055248.232,NULL,Lawine,banguko,d,NA,NA,NA,NA,sdf,NA,5,NA,NA,NA,NA,NA,NA,NA,NA,NA,NA,NA,NA,NA,NA,NA,NA,NA,NA,NA
c50e7,Deep Question,html.Page,3_0_5_0_6_0_0,NA,NA,form submission,11926.768,5055233.3000002,5055231.632,5055248.232,5067175,5067175.3000002,2023-06-19T16:09:38Z,5067187.435,NULL,Konkurrent,mshindani,d,NA,NA,NA,mshi,NA,NA,5,NA,NA,NA,NA,NA,NA,NA,NA,NA,NA,NA,NA,NA,NA,NA,NA,NA,NA,NA
c50e7,"""Richtig""-Screen",canvas.Screen,3_0_5_0_6_0_1,NA,NA,skipped,NA,5067177.9000001,NA,NA,5067175,5067178.1000004,2023-06-19T16:09:38Z,5067187.435,NULL,Konkurrent,mshindani,d,NA,NA,NA,NA,sdf,NA,5,NA,NA,NA,NA,NA,NA,NA,NA,NA,NA,NA,NA,NA,NA,NA,NA,NA,NA,NA
c50e7,"""Falsch""-Screen",canvas.Screen,3_0_5_0_6_0_2,NA,NA,timeout,4999.6680000005,5067179.1000004,5067170.838,5067187.435,5072170.449,5072171.2000003,2023-06-19T16:09:43Z,5072187.103,NULL,Konkurrent,mshindani,d,NA,NA,NA,NA,sdf,0,5,NA,NA,NA,NA,NA,NA,NA,NA,NA,NA,NA,NA,NA,NA,NA,NA,NA,NA,NA
c50e7,deep,flow.Sequence,3_0_5_0_6_0,NA,NA,completion,16922.217,5055233.2000003,5055231.632,5055248.232,5072170.449,5072171.7000003,2023-06-19T16:09:43Z,5072187.103,NULL,Konkurrent,mshindani,d,NA,NA,NA,NA,sdf,NA,5,NA,NA,NA,NA,NA,NA,NA,NA,NA,NA,NA,NA,NA,NA,NA,NA,NA,NA,NA
c50e7,shallow,flow.Sequence,3_0_5_0_6_1,NA,NA,skipped,NA,5072171.9000001,NA,NA,5072170.449,5072172.1000004,2023-06-19T16:09:43Z,5072187.103,NULL,Konkurrent,mshindani,d,NA,NA,NA,NA,sdf,NA,5,NA,NA,NA,NA,NA,NA,NA,NA,NA,NA,NA,NA,NA,NA,NA,NA,NA,NA,NA
c50e7,task,flow.Sequence,3_0_5_0_6,NA,NA,completion,16922.217,5055233.2000003,5055231.632,5055248.232,5072170.449,5072172.4000001,2023-06-19T16:09:43Z,5072187.103,NULL,Konkurrent,mshindani,d,NA,NA,NA,NA,sdf,NA,5,NA,NA,NA,NA,NA,NA,NA,NA,NA,NA,NA,NA,NA,NA,NA,NA,NA,NA,NA
c50e7,Deep Question,html.Page,3_0_5_0_7_0_0,NA,NA,form submission,8896.097000286,5072172.7000003,5072170.449,5072187.103,5081083.2000003,5081083.3000002,2023-06-19T16:09:51Z,5081097.643,NULL,System,maongozi,d,NA,NA,NA,kiliedo,NA,NA,5,NA,NA,NA,NA,NA,NA,NA,NA,NA,NA,NA,NA,NA,NA,NA,NA,NA,NA,NA
c50e7,"""Richtig""-Screen",canvas.Screen,3_0_5_0_7_0_1,NA,NA,skipped,NA,5081085.8000002,NA,NA,5081083.2000003,5081086.1000004,2023-06-19T16:09:51Z,5081097.643,NULL,System,maongozi,d,NA,NA,NA,NA,sdf,NA,5,NA,NA,NA,NA,NA,NA,NA,NA,NA,NA,NA,NA,NA,NA,NA,NA,NA,NA,NA
c50e7,"""Falsch""-Screen",canvas.Screen,3_0_5_0_7_0_2,NA,NA,timeout,5003.6370000001,5081086.9000001,5081076.545,5081097.643,5086084.636,5086085.2000003,2023-06-19T16:09:56Z,5086101.28,NULL,System,maongozi,d,NA,NA,NA,NA,sdf,0,5,NA,NA,NA,NA,NA,NA,NA,NA,NA,NA,NA,NA,NA,NA,NA,NA,NA,NA,NA
c50e7,deep,flow.Sequence,3_0_5_0_7_0,NA,NA,completion,13897.533,5072172.6000004,5072170.449,5072187.103,5086084.636,5086085.4000001,2023-06-19T16:09:56Z,5086101.28,NULL,System,maongozi,d,NA,NA,NA,NA,sdf,NA,5,NA,NA,NA,NA,NA,NA,NA,NA,NA,NA,NA,NA,NA,NA,NA,NA,NA,NA,NA
c50e7,shallow,flow.Sequence,3_0_5_0_7_1,NA,NA,skipped,NA,5086085.6000004,NA,NA,5086084.636,5086085.7000003,2023-06-19T16:09:56Z,5086101.28,NULL,System,maongozi,d,NA,NA,NA,NA,sdf,NA,5,NA,NA,NA,NA,NA,NA,NA,NA,NA,NA,NA,NA,NA,NA,NA,NA,NA,NA,NA
c50e7,task,flow.Sequence,3_0_5_0_7,NA,NA,completion,13897.533,5072172.6000004,5072170.449,5072187.103,5086084.636,5086085.9000001,2023-06-19T16:09:56Z,5086101.28,NULL,System,maongozi,d,NA,NA,NA,NA,sdf,NA,5,NA,NA,NA,NA,NA,NA,NA,NA,NA,NA,NA,NA,NA,NA,NA,NA,NA,NA,NA
c50e7,block,flow.Loop,3_0_5_0,NA,NA,completion,114059.367,4972001.2000003,4972007.298,4972025.269,5086084.636,5086086,2023-06-19T16:09:56Z,5086101.28,NULL,NA,NA,NA,NA,NA,NA,NA,sdf,NA,5,NA,NA,NA,NA,NA,NA,NA,NA,NA,NA,NA,NA,NA,NA,NA,NA,NA,NA,NA
c50e7,weiter,canvas.Screen,3_0_5_1,sdf,keypress(Space),response,1250.8200003812,5086086.2000003,5086084.636,5086101.28,5087352.1000004,5087352.8000002,2023-06-19T16:09:58Z,5087409.545,NULL,NA,NA,NA,NA,NA,NA,NA,sdf,NA,5,NA,NA,NA,NA,NA,NA,NA,NA,NA,NA,NA,NA,NA,NA,NA,NA,NA,NA,NA
c50e7,check continue,flow.Sequence,3_0_5,NA,NA,completion,115326.83100038,4972001.2000003,4972007.298,4972025.269,5087352.1000004,5087353,2023-06-19T16:09:58Z,5087409.545,NULL,NA,NA,NA,NA,NA,NA,NA,sdf,NA,5,NA,NA,NA,NA,NA,NA,NA,NA,NA,NA,NA,NA,NA,NA,NA,NA,NA,NA,NA
c50e7,deep,flow.Sequence,3_0_6_0_0_0,NA,NA,skipped,NA,5087392.5,NA,NA,5087352.1000004,5087392.7000003,2023-06-19T16:09:58Z,5087409.545,NULL,Körper,kiwiliwili,s,mapambano,mpatanishi,kiolezo,NA,dfs,NA,6,NA,NA,NA,NA,NA,NA,NA,NA,NA,NA,NA,NA,NA,NA,NA,NA,NA,NA,NA
c50e7,Shallow Question,html.Page,3_0_6_0_0_1_0,NA,NA,form submission,3696.4550000001,5087392.8000002,5087383.498,5087409.545,5091106,5091106.3000002,2023-06-19T16:10:01Z,5091112.205,NULL,Körper,kiwiliwili,s,mapambano,mpatanishi,kiolezo,kiwiliwili,NA,NA,6,NA,NA,NA,NA,NA,NA,NA,NA,NA,NA,NA,NA,NA,NA,NA,NA,NA,NA,NA
c50e7,"""Richtig""-Screen",canvas.Screen,3_0_6_0_0_1_1,NA,NA,timeout,4995.3219999997,5091106.9000001,5091095.125,5091112.205,5096090.871,5096091.4000001,2023-06-19T16:10:06Z,5096107.527,NULL,Körper,kiwiliwili,s,mapambano,mpatanishi,kiolezo,NA,dfs,1,6,NA,NA,NA,NA,NA,NA,NA,NA,NA,NA,NA,NA,NA,NA,NA,NA,NA,NA,NA
c50e7,"""Falsch""-Screen",canvas.Screen,3_0_6_0_0_1_2,NA,NA,skipped,NA,5096094.9000001,NA,NA,5096090.871,5096095.1000004,2023-06-19T16:10:06Z,5096107.527,NULL,Körper,kiwiliwili,s,mapambano,mpatanishi,kiolezo,NA,dfs,NA,6,NA,NA,NA,NA,NA,NA,NA,NA,NA,NA,NA,NA,NA,NA,NA,NA,NA,NA,NA
c50e7,shallow,flow.Sequence,3_0_6_0_0_1,NA,NA,completion,8681.3260000004,5087392.8000002,5087383.498,5087409.545,5096090.871,5096095.3000002,2023-06-19T16:10:06Z,5096107.527,NULL,Körper,kiwiliwili,s,mapambano,mpatanishi,kiolezo,NA,dfs,NA,6,NA,NA,NA,NA,NA,NA,NA,NA,NA,NA,NA,NA,NA,NA,NA,NA,NA,NA,NA
c50e7,task,flow.Sequence,3_0_6_0_0,NA,NA,completion,8681.3260000004,5087392.5,5087383.498,5087409.545,5096090.871,5096095.5,2023-06-19T16:10:06Z,5096107.527,NULL,Körper,kiwiliwili,s,mapambano,mpatanishi,kiolezo,NA,dfs,NA,6,NA,NA,NA,NA,NA,NA,NA,NA,NA,NA,NA,NA,NA,NA,NA,NA,NA,NA,NA
c50e7,deep,flow.Sequence,3_0_6_0_1_0,NA,NA,skipped,NA,5096095.7000003,NA,NA,5096090.871,5096095.9000001,2023-06-19T16:10:06Z,5096107.527,NULL,Übersicht,kilindo,s,mgusano,chipukizi,kulinganisha,NA,dfs,NA,6,NA,NA,NA,NA,NA,NA,NA,NA,NA,NA,NA,NA,NA,NA,NA,NA,NA,NA,NA
