observation,sender,sender_type,sender_id,response,response_action,ended_on,duration,time_run,time_render,time_show,time_end,time_commit,timestamp,time_switch,german,swahili,enc,distractor1,distractor2,distractor3,response_2,x,correct,distractors,url_vp,url_sess,meta_labjs_version,meta_location,meta_user_agent,meta_platform,meta_language,meta_locale,meta_time_zone,meta_timezone_offset,meta_screen_width,meta_screen_height,meta_scroll_width,meta_scroll_height,meta_window_inner_width,meta_window_inner_height,meta_device_pixel_ratio,meta_labjs_build_flavor,meta_labjs_build_commit
37b7a,Introduction delayed retrieval,canvas.Screen,0,weiter,keypress(Space),response,20884.12,715,719.22,735.88,21620,21629,2024-06-05T15:24:34Z,21630.7,NA,NA,NA,NA,NA,NA,NA,NA,NA,NULL,197,4,20.2.4,https://neurocog.fernuni.ch/studies/vweber/aberisha/delayed/index.html?vp=197&sess=4,Mozilla/5.0 (Macintosh; Intel Mac OS X 10.15; rv:124.0) Gecko/20100101 Firefox/124.0,MacIntel,de,de-CH,Europe/Zurich,-120,1470,956,1470,680,1470,728,2,production,f5b4a49f956347addd546a832a3327688c2c0fef
37b7a,Deep Question,html.Page,1_0_0_0,NA,NA,form submission,8038.3,21631,21630.56,21630.7,29669,29669,2024-06-05T15:24:42Z,29669.28,Respekt,heshima,d,changamnao,upinzani,ufanisi,f,NA,NA,NULL,NA,NA,NA,NA,NA,NA,NA,NA,NA,NA,NA,NA,NA,NA,NA,NA,NA,NA,NA
37b7a,Save data screen,canvas.Screen,1_0_0_1,NA,NA,timeout,500,29673,29662.5,29669.28,30152.6,30154,2024-06-05T15:24:43Z,30169.28,Respekt,heshima,d,changamnao,upinzani,ufanisi,NA,NA,0,NULL,NA,NA,NA,NA,NA,NA,NA,NA,NA,NA,NA,NA,NA,NA,NA,NA,NA,NA,NA
37b7a,deep,flow.Sequence,1_0_0,NA,NA,completion,8521.9,21631,21630.56,21630.7,30152.6,30154,2024-06-05T15:24:43Z,30169.28,Respekt,heshima,d,changamnao,upinzani,ufanisi,NA,NA,NA,NULL,NA,NA,NA,NA,NA,NA,NA,NA,NA,NA,NA,NA,NA,NA,NA,NA,NA,NA,NA
37b7a,task,flow.Sequence,1_0,NA,NA,completion,8521.9,21630,21630.56,21630.7,30152.6,30155,2024-06-05T15:24:43Z,30169.28,Respekt,heshima,d,changamnao,upinzani,ufanisi,NA,NA,NA,NULL,NA,NA,NA,NA,NA,NA,NA,NA,NA,NA,NA,NA,NA,NA,NA,NA,NA,NA,NA
37b7a,Deep Question,html.Page,1_1_0_0,NA,NA,form submission,10880.72,30155,30152.6,30169.28,41050,41050,2024-06-05T15:24:54Z,41052.48,Flexibilität,kubadilika,s,enjini,usikilivu,hesabu,k,NA,NA,NULL,NA,NA,NA,NA,NA,NA,NA,NA,NA,NA,NA,NA,NA,NA,NA,NA,NA,NA,NA
37b7a,Save data screen,canvas.Screen,1_1_0_1,NA,NA,timeout,500.16,41052,41047.1,41052.48,41535.96,41536,2024-06-05T15:24:54Z,41552.64,Flexibilität,kubadilika,s,enjini,usikilivu,hesabu,NA,NA,0,NULL,NA,NA,NA,NA,NA,NA,NA,NA,NA,NA,NA,NA,NA,NA,NA,NA,NA,NA,NA
37b7a,deep,flow.Sequence,1_1_0,NA,NA,completion,11366.68,30155,30152.6,30169.28,41535.96,41537,2024-06-05T15:24:54Z,41552.64,Flexibilität,kubadilika,s,enjini,usikilivu,hesabu,NA,NA,NA,NULL,NA,NA,NA,NA,NA,NA,NA,NA,NA,NA,NA,NA,NA,NA,NA,NA,NA,NA,NA
37b7a,task,flow.Sequence,1_1,NA,NA,completion,11366.68,30155,30152.6,30169.28,41535.96,41537,2024-06-05T15:24:54Z,41552.64,Flexibilität,kubadilika,s,enjini,usikilivu,hesabu,NA,NA,NA,NULL,NA,NA,NA,NA,NA,NA,NA,NA,NA,NA,NA,NA,NA,NA,NA,NA,NA,NA,NA
37b7a,Deep Question,html.Page,1_2_0_0,NA,NA,form submission,8380.36,41537,41535.96,41552.64,49933,49933,2024-06-05T15:25:03Z,49936,Vorwurf,mashtaka,s,msukumo,mtangulizi,uenyekiti,mash,NA,NA,NULL,NA,NA,NA,NA,NA,NA,NA,NA,NA,NA,NA,NA,NA,NA,NA,NA,NA,NA,NA
37b7a,Save data screen,canvas.Screen,1_2_0_1,NA,NA,timeout,500,49935,49930.76,49936,50419.32,50423,2024-06-05T15:25:03Z,50436,Vorwurf,mashtaka,s,msukumo,mtangulizi,uenyekiti,NA,NA,0,NULL,NA,NA,NA,NA,NA,NA,NA,NA,NA,NA,NA,NA,NA,NA,NA,NA,NA,NA,NA
37b7a,deep,flow.Sequence,1_2_0,NA,NA,completion,8866.68,41537,41535.96,41552.64,50419.32,50424,2024-06-05T15:25:03Z,50436,Vorwurf,mashtaka,s,msukumo,mtangulizi,uenyekiti,NA,NA,NA,NULL,NA,NA,NA,NA,NA,NA,NA,NA,NA,NA,NA,NA,NA,NA,NA,NA,NA,NA,NA
37b7a,task,flow.Sequence,1_2,NA,NA,completion,8866.68,41537,41535.96,41552.64,50419.32,50425,2024-06-05T15:25:03Z,50436,Vorwurf,mashtaka,s,msukumo,mtangulizi,uenyekiti,NA,NA,NA,NULL,NA,NA,NA,NA,NA,NA,NA,NA,NA,NA,NA,NA,NA,NA,NA,NA,NA,NA,NA
37b7a,Deep Question,html.Page,1_3_0_0,NA,NA,form submission,13338,50425,50419.32,50436,63774,63775,2024-06-05T15:25:16Z,63785.38,Entwicklung,maendeleo,s,uangavu,mshindwa,badiliko,kili,NA,NA,NULL,NA,NA,NA,NA,NA,NA,NA,NA,NA,NA,NA,NA,NA,NA,NA,NA,NA,NA,NA
37b7a,Save data screen,canvas.Screen,1_3_0_1,NA,NA,timeout,500.66,63780,63770.76,63785.38,64269.36,64270,2024-06-05T15:25:17Z,64286.04,Entwicklung,maendeleo,s,uangavu,mshindwa,badiliko,NA,NA,0,NULL,NA,NA,NA,NA,NA,NA,NA,NA,NA,NA,NA,NA,NA,NA,NA,NA,NA,NA,NA
37b7a,deep,flow.Sequence,1_3_0,NA,NA,completion,13833.36,50425,50419.32,50436,64269.36,64270,2024-06-05T15:25:17Z,64286.04,Entwicklung,maendeleo,s,uangavu,mshindwa,badiliko,NA,NA,NA,NULL,NA,NA,NA,NA,NA,NA,NA,NA,NA,NA,NA,NA,NA,NA,NA,NA,NA,NA,NA
37b7a,task,flow.Sequence,1_3,NA,NA,completion,13833.36,50425,50419.32,50436,64269.36,64271,2024-06-05T15:25:17Z,64286.04,Entwicklung,maendeleo,s,uangavu,mshindwa,badiliko,NA,NA,NA,NULL,NA,NA,NA,NA,NA,NA,NA,NA,NA,NA,NA,NA,NA,NA,NA,NA,NA,NA,NA
37b7a,Deep Question,html.Page,1_4_0_0,NA,NA,form submission,9700.96,64271,64269.36,64286.04,73987,73990,2024-06-05T15:25:27Z,73986.04,Atmosphäre,angahewa,s,kuteseka,usahihi,kutoamini,f,NA,NA,NULL,NA,NA,NA,NA,NA,NA,NA,NA,NA,NA,NA,NA,NA,NA,NA,NA,NA,NA,NA
37b7a,Save data screen,canvas.Screen,1_4_0_1,NA,NA,timeout,500,73996,73982.44,73986.04,74469.36,74470,2024-06-05T15:25:27Z,74486.04,Atmosphäre,angahewa,s,kuteseka,usahihi,kutoamini,NA,NA,0,NULL,NA,NA,NA,NA,NA,NA,NA,NA,NA,NA,NA,NA,NA,NA,NA,NA,NA,NA,NA
37b7a,deep,flow.Sequence,1_4_0,NA,NA,completion,10183.32,64271,64269.36,64286.04,74469.36,74471,2024-06-05T15:25:27Z,74486.04,Atmosphäre,angahewa,s,kuteseka,usahihi,kutoamini,NA,NA,NA,NULL,NA,NA,NA,NA,NA,NA,NA,NA,NA,NA,NA,NA,NA,NA,NA,NA,NA,NA,NA
37b7a,task,flow.Sequence,1_4,NA,NA,completion,10183.32,64271,64269.36,64286.04,74469.36,74471,2024-06-05T15:25:27Z,74486.04,Atmosphäre,angahewa,s,kuteseka,usahihi,kutoamini,NA,NA,NA,NULL,NA,NA,NA,NA,NA,NA,NA,NA,NA,NA,NA,NA,NA,NA,NA,NA,NA,NA,NA
37b7a,Deep Question,html.Page,1_5_0_0,NA,NA,form submission,8959.96,74472,74469.36,74486.04,83446,83447,2024-06-05T15:25:36Z,83452.74,Fleisch,mshakiki,d,kizunguzungu,mshikamano,angusho,m,NA,NA,NULL,NA,NA,NA,NA,NA,NA,NA,NA,NA,NA,NA,NA,NA,NA,NA,NA,NA,NA,NA
37b7a,Save data screen,canvas.Screen,1_5_0_1,NA,NA,timeout,499.14,83449,83442.96,83452.74,83936.06,83937,2024-06-05T15:25:37Z,83951.88,Fleisch,mshakiki,d,kizunguzungu,mshikamano,angusho,NA,NA,0,NULL,NA,NA,NA,NA,NA,NA,NA,NA,NA,NA,NA,NA,NA,NA,NA,NA,NA,NA,NA
37b7a,deep,flow.Sequence,1_5_0,NA,NA,completion,9450.02,74471,74469.36,74486.04,83936.06,83938,2024-06-05T15:25:37Z,83951.88,Fleisch,mshakiki,d,kizunguzungu,mshikamano,angusho,NA,NA,NA,NULL,NA,NA,NA,NA,NA,NA,NA,NA,NA,NA,NA,NA,NA,NA,NA,NA,NA,NA,NA
37b7a,task,flow.Sequence,1_5,NA,NA,completion,9450.02,74471,74469.36,74486.04,83936.06,83938,2024-06-05T15:25:37Z,83951.88,Fleisch,mshakiki,d,kizunguzungu,mshikamano,angusho,NA,NA,NA,NULL,NA,NA,NA,NA,NA,NA,NA,NA,NA,NA,NA,NA,NA,NA,NA,NA,NA,NA,NA
37b7a,Deep Question,html.Page,1_6_0_0,NA,NA,form submission,4033.12,83938,83936.06,83951.88,87985,87985,2024-06-05T15:25:41Z,87986.08,Niveau,kiwango,d,usimamizi,mwamali,mshairi,f,NA,NA,NULL,NA,NA,NA,NA,NA,NA,NA,NA,NA,NA,NA,NA,NA,NA,NA,NA,NA,NA,NA
37b7a,Save data screen,canvas.Screen,1_6_0_1,NA,NA,timeout,500,87987,87982.46,87986.08,88469.4,88470,2024-06-05T15:25:41Z,88486.08,Niveau,kiwango,d,usimamizi,mwamali,mshairi,NA,NA,0,NULL,NA,NA,NA,NA,NA,NA,NA,NA,NA,NA,NA,NA,NA,NA,NA,NA,NA,NA,NA
37b7a,deep,flow.Sequence,1_6_0,NA,NA,completion,4517.52,83938,83936.06,83951.88,88469.4,88471,2024-06-05T15:25:41Z,88486.08,Niveau,kiwango,d,usimamizi,mwamali,mshairi,NA,NA,NA,NULL,NA,NA,NA,NA,NA,NA,NA,NA,NA,NA,NA,NA,NA,NA,NA,NA,NA,NA,NA
37b7a,task,flow.Sequence,1_6,NA,NA,completion,4517.52,83938,83936.06,83951.88,88469.4,88471,2024-06-05T15:25:41Z,88486.08,Niveau,kiwango,d,usimamizi,mwamali,mshairi,NA,NA,NA,NULL,NA,NA,NA,NA,NA,NA,NA,NA,NA,NA,NA,NA,NA,NA,NA,NA,NA,NA,NA
37b7a,Deep Question,html.Page,1_7_0_0,NA,NA,form submission,4207.92,88473,88469.4,88486.08,92694,92694,2024-06-05T15:25:45Z,92702.78,Erneuerung,ukarabati,d,ushawishi,ukalifu,unyonyaji,f,NA,NA,NULL,NA,NA,NA,NA,NA,NA,NA,NA,NA,NA,NA,NA,NA,NA,NA,NA,NA,NA,NA
37b7a,Save data screen,canvas.Screen,1_7_0_1,NA,NA,timeout,499.98,92696,92691.78,92702.78,93186.08,93187,2024-06-05T15:25:46Z,93202.76,Erneuerung,ukarabati,d,ushawishi,ukalifu,unyonyaji,NA,NA,0,NULL,NA,NA,NA,NA,NA,NA,NA,NA,NA,NA,NA,NA,NA,NA,NA,NA,NA,NA,NA
37b7a,deep,flow.Sequence,1_7_0,NA,NA,completion,4700,88471,88469.4,88486.08,93186.08,93188,2024-06-05T15:25:46Z,93202.76,Erneuerung,ukarabati,d,ushawishi,ukalifu,unyonyaji,NA,NA,NA,NULL,NA,NA,NA,NA,NA,NA,NA,NA,NA,NA,NA,NA,NA,NA,NA,NA,NA,NA,NA
37b7a,task,flow.Sequence,1_7,NA,NA,completion,4700,88471,88469.4,88486.08,93186.08,93188,2024-06-05T15:25:46Z,93202.76,Erneuerung,ukarabati,d,ushawishi,ukalifu,unyonyaji,NA,NA,NA,NULL,NA,NA,NA,NA,NA,NA,NA,NA,NA,NA,NA,NA,NA,NA,NA,NA,NA,NA,NA
37b7a,Deep Question,html.Page,1_8_0_0,NA,NA,form submission,5327.24,93188,93186.08,93202.76,98530,98530,2024-06-05T15:25:51Z,98536.1,Begegnung,kukutana,s,mmasihiya,mpiganaji,husiano,h,NA,NA,NULL,NA,NA,NA,NA,NA,NA,NA,NA,NA,NA,NA,NA,NA,NA,NA,NA,NA,NA,NA
37b7a,Save data screen,canvas.Screen,1_8_0_1,NA,NA,timeout,500,98533,98526.04,98536.1,99019.42,99020,2024-06-05T15:25:52Z,99036.1,Begegnung,kukutana,s,mmasihiya,mpiganaji,husiano,NA,NA,0,NULL,NA,NA,NA,NA,NA,NA,NA,NA,NA,NA,NA,NA,NA,NA,NA,NA,NA,NA,NA
37b7a,deep,flow.Sequence,1_8_0,NA,NA,completion,5816.66,93188,93186.08,93202.76,99019.42,99021,2024-06-05T15:25:52Z,99036.1,Begegnung,kukutana,s,mmasihiya,mpiganaji,husiano,NA,NA,NA,NULL,NA,NA,NA,NA,NA,NA,NA,NA,NA,NA,NA,NA,NA,NA,NA,NA,NA,NA,NA
37b7a,task,flow.Sequence,1_8,NA,NA,completion,5816.66,93188,93186.08,93202.76,99019.42,99021,2024-06-05T15:25:52Z,99036.1,Begegnung,kukutana,s,mmasihiya,mpiganaji,husiano,NA,NA,NA,NULL,NA,NA,NA,NA,NA,NA,NA,NA,NA,NA,NA,NA,NA,NA,NA,NA,NA,NA,NA
37b7a,Deep Question,html.Page,1_9_0_0,NA,NA,form submission,3246.9,99021,99019.42,99036.1,102283,102284,2024-06-05T15:25:55Z,102286.1,Orientierung,urekebisho,d,uelekeo,marekebisho,utunzaji,f,NA,NA,NULL,NA,NA,NA,NA,NA,NA,NA,NA,NA,NA,NA,NA,NA,NA,NA,NA,NA,NA,NA
37b7a,Save data screen,canvas.Screen,1_9_0_1,NA,NA,timeout,499.09999999999,102285,102280.56,102286.1,102769.42,102770,2024-06-05T15:25:55Z,102785.2,Orientierung,urekebisho,d,uelekeo,marekebisho,utunzaji,NA,NA,0,NULL,NA,NA,NA,NA,NA,NA,NA,NA,NA,NA,NA,NA,NA,NA,NA,NA,NA,NA,NA
37b7a,deep,flow.Sequence,1_9_0,NA,NA,completion,3733.32,99021,99019.42,99036.1,102769.42,102770,2024-06-05T15:25:55Z,102785.2,Orientierung,urekebisho,d,uelekeo,marekebisho,utunzaji,NA,NA,NA,NULL,NA,NA,NA,NA,NA,NA,NA,NA,NA,NA,NA,NA,NA,NA,NA,NA,NA,NA,NA
37b7a,task,flow.Sequence,1_9,NA,NA,completion,3733.32,99021,99019.42,99036.1,102769.42,102771,2024-06-05T15:25:55Z,102785.2,Orientierung,urekebisho,d,uelekeo,marekebisho,utunzaji,NA,NA,NA,NULL,NA,NA,NA,NA,NA,NA,NA,NA,NA,NA,NA,NA,NA,NA,NA,NA,NA,NA,NA
37b7a,Deep Question,html.Page,1_10_0_0,NA,NA,form submission,2775.8,102771,102769.42,102785.2,105561,105561,2024-06-05T15:25:58Z,105557.86,Genehmigung,idhini,s,mwanamke,itikadi,fedheha,f,NA,NA,NULL,NA,NA,NA,NA,NA,NA,NA,NA,NA,NA,NA,NA,NA,NA,NA,NA,NA,NA,NA
37b7a,Save data screen,canvas.Screen,1_10_0_1,NA,NA,timeout,494.92,105563,105557.78,105557.86,106036.1,106037,2024-06-05T15:25:59Z,106052.78,Genehmigung,idhini,s,mwanamke,itikadi,fedheha,NA,NA,0,NULL,NA,NA,NA,NA,NA,NA,NA,NA,NA,NA,NA,NA,NA,NA,NA,NA,NA,NA,NA
37b7a,deep,flow.Sequence,1_10_0,NA,NA,completion,3250.9,102771,102769.42,102785.2,106036.1,106038,2024-06-05T15:25:59Z,106052.78,Genehmigung,idhini,s,mwanamke,itikadi,fedheha,NA,NA,NA,NULL,NA,NA,NA,NA,NA,NA,NA,NA,NA,NA,NA,NA,NA,NA,NA,NA,NA,NA,NA
37b7a,task,flow.Sequence,1_10,NA,NA,completion,3250.9,102771,102769.42,102785.2,106036.1,106038,2024-06-05T15:25:59Z,106052.78,Genehmigung,idhini,s,mwanamke,itikadi,fedheha,NA,NA,NA,NULL,NA,NA,NA,NA,NA,NA,NA,NA,NA,NA,NA,NA,NA,NA,NA,NA,NA,NA,NA
37b7a,Deep Question,html.Page,1_11_0_0,NA,NA,form submission,6574.22,106038,106036.1,106052.78,112627,112627,2024-06-05T15:26:05Z,112635.16,Betrüger,mdanganyifu,s,mwanamuziki,wastani,mahakama,kuh,NA,NA,NULL,NA,NA,NA,NA,NA,NA,NA,NA,NA,NA,NA,NA,NA,NA,NA,NA,NA,NA,NA
37b7a,Save data screen,canvas.Screen,1_11_0_1,NA,NA,timeout,500.98,112629,112624.9,112635.16,113119.46,113120,2024-06-05T15:26:06Z,113136.14,Betrüger,mdanganyifu,s,mwanamuziki,wastani,mahakama,NA,NA,0,NULL,NA,NA,NA,NA,NA,NA,NA,NA,NA,NA,NA,NA,NA,NA,NA,NA,NA,NA,NA
37b7a,deep,flow.Sequence,1_11_0,NA,NA,completion,7066.68,106038,106036.1,106052.78,113119.46,113121,2024-06-05T15:26:06Z,113136.14,Betrüger,mdanganyifu,s,mwanamuziki,wastani,mahakama,NA,NA,NA,NULL,NA,NA,NA,NA,NA,NA,NA,NA,NA,NA,NA,NA,NA,NA,NA,NA,NA,NA,NA
37b7a,task,flow.Sequence,1_11,NA,NA,completion,7066.68,106038,106036.1,106052.78,113119.46,113121,2024-06-05T15:26:06Z,113136.14,Betrüger,mdanganyifu,s,mwanamuziki,wastani,mahakama,NA,NA,NA,NULL,NA,NA,NA,NA,NA,NA,NA,NA,NA,NA,NA,NA,NA,NA,NA,NA,NA,NA,NA
37b7a,Deep Question,html.Page,1_12_0_0,NA,NA,form submission,3325.86,113121,113119.46,113136.14,116462,116462,2024-06-05T15:26:09Z,116469.48,Wechsel,ugeuzaji,d,utambulisho,kujenga,wasiwasi,g,NA,NA,NULL,NA,NA,NA,NA,NA,NA,NA,NA,NA,NA,NA,NA,NA,NA,NA,NA,NA,NA,NA
37b7a,Save data screen,canvas.Screen,1_12_0_1,NA,NA,timeout,499.98000000001,116465,116460.34,116469.48,116952.78,116954,2024-06-05T15:26:10Z,116969.46,Wechsel,ugeuzaji,d,utambulisho,kujenga,wasiwasi,NA,NA,0,NULL,NA,NA,NA,NA,NA,NA,NA,NA,NA,NA,NA,NA,NA,NA,NA,NA,NA,NA,NA
37b7a,deep,flow.Sequence,1_12_0,NA,NA,completion,3816.64,113121,113119.46,113136.14,116952.78,116954,2024-06-05T15:26:10Z,116969.46,Wechsel,ugeuzaji,d,utambulisho,kujenga,wasiwasi,NA,NA,NA,NULL,NA,NA,NA,NA,NA,NA,NA,NA,NA,NA,NA,NA,NA,NA,NA,NA,NA,NA,NA
37b7a,task,flow.Sequence,1_12,NA,NA,completion,3816.64,113121,113119.46,113136.14,116952.78,116954,2024-06-05T15:26:10Z,116969.46,Wechsel,ugeuzaji,d,utambulisho,kujenga,wasiwasi,NA,NA,NA,NULL,NA,NA,NA,NA,NA,NA,NA,NA,NA,NA,NA,NA,NA,NA,NA,NA,NA,NA,NA
37b7a,Deep Question,html.Page,1_13_0_0,NA,NA,form submission,9521.54,116955,116952.78,116969.46,126491,126492,2024-06-05T15:26:19Z,126502.86,Stimmung,kinyongo,s,kilekile,kisambo,madhehebu,a,NA,NA,NULL,NA,NA,NA,NA,NA,NA,NA,NA,NA,NA,NA,NA,NA,NA,NA,NA,NA,NA,NA
37b7a,Save data screen,canvas.Screen,1_13_0_1,NA,NA,timeout,499.96000000001,126493,126488.56,126502.86,126986.16,126987,2024-06-05T15:26:20Z,127002.82,Stimmung,kinyongo,s,kilekile,kisambo,madhehebu,NA,NA,0,NULL,NA,NA,NA,NA,NA,NA,NA,NA,NA,NA,NA,NA,NA,NA,NA,NA,NA,NA,NA
37b7a,deep,flow.Sequence,1_13_0,NA,NA,completion,10016.7,116954,116952.78,116969.46,126986.16,126987,2024-06-05T15:26:20Z,127002.82,Stimmung,kinyongo,s,kilekile,kisambo,madhehebu,NA,NA,NA,NULL,NA,NA,NA,NA,NA,NA,NA,NA,NA,NA,NA,NA,NA,NA,NA,NA,NA,NA,NA
37b7a,task,flow.Sequence,1_13,NA,NA,completion,10016.7,116954,116952.78,116969.46,126986.16,126987,2024-06-05T15:26:20Z,127002.82,Stimmung,kinyongo,s,kilekile,kisambo,madhehebu,NA,NA,NA,NULL,NA,NA,NA,NA,NA,NA,NA,NA,NA,NA,NA,NA,NA,NA,NA,NA,NA,NA,NA
37b7a,Deep Question,html.Page,1_14_0_0,NA,NA,form submission,4204.18,126988,126986.16,127002.82,131207,131207,2024-06-05T15:26:24Z,131218.78,Integrität,uadilifu,d,muungano,mtiririko,upunguaji,f,NA,NA,NULL,NA,NA,NA,NA,NA,NA,NA,NA,NA,NA,NA,NA,NA,NA,NA,NA,NA,NA,NA
37b7a,Save data screen,canvas.Screen,1_14_0_1,NA,NA,timeout,500.72,131209,131205.34,131218.78,131702.82,131705,2024-06-05T15:26:24Z,131719.5,Integrität,uadilifu,d,muungano,mtiririko,upunguaji,NA,NA,0,NULL,NA,NA,NA,NA,NA,NA,NA,NA,NA,NA,NA,NA,NA,NA,NA,NA,NA,NA,NA
37b7a,deep,flow.Sequence,1_14_0,NA,NA,completion,4700,126988,126986.16,127002.82,131702.82,131706,2024-06-05T15:26:24Z,131719.5,Integrität,uadilifu,d,muungano,mtiririko,upunguaji,NA,NA,NA,NULL,NA,NA,NA,NA,NA,NA,NA,NA,NA,NA,NA,NA,NA,NA,NA,NA,NA,NA,NA
37b7a,task,flow.Sequence,1_14,NA,NA,completion,4700,126988,126986.16,127002.82,131702.82,131706,2024-06-05T15:26:24Z,131719.5,Integrität,uadilifu,d,muungano,mtiririko,upunguaji,NA,NA,NA,NULL,NA,NA,NA,NA,NA,NA,NA,NA,NA,NA,NA,NA,NA,NA,NA,NA,NA,NA,NA
37b7a,Deep Question,html.Page,1_15_0_0,NA,NA,form submission,6416.5,131708,131702.82,131719.5,138136,138136,2024-06-05T15:26:31Z,138135.2,Papier,karatasi,d,uchambuzi,usalama,kukataliwa,f,NA,NA,NULL,NA,NA,NA,NA,NA,NA,NA,NA,NA,NA,NA,NA,NA,NA,NA,NA,NA,NA,NA
37b7a,Save data screen,canvas.Screen,1_15_0_1,NA,NA,timeout,500.97999999998,138142,138131.42,138135.2,138619.5,138620,2024-06-05T15:26:31Z,138636.18,Papier,karatasi,d,uchambuzi,usalama,kukataliwa,NA,NA,0,NULL,NA,NA,NA,NA,NA,NA,NA,NA,NA,NA,NA,NA,NA,NA,NA,NA,NA,NA,NA
37b7a,deep,flow.Sequence,1_15_0,NA,NA,completion,6900,131708,131702.82,131719.5,138619.5,138621,2024-06-05T15:26:31Z,138636.18,Papier,karatasi,d,uchambuzi,usalama,kukataliwa,NA,NA,NA,NULL,NA,NA,NA,NA,NA,NA,NA,NA,NA,NA,NA,NA,NA,NA,NA,NA,NA,NA,NA
37b7a,task,flow.Sequence,1_15,NA,NA,completion,6900,131707,131702.82,131719.5,138619.5,138621,2024-06-05T15:26:31Z,138636.18,Papier,karatasi,d,uchambuzi,usalama,kukataliwa,NA,NA,NA,NULL,NA,NA,NA,NA,NA,NA,NA,NA,NA,NA,NA,NA,NA,NA,NA,NA,NA,NA,NA
37b7a,retrieval block 1 (cued recall),flow.Loop,1,NA,NA,completion,116988.8,21630,21630.56,21630.7,138619.5,138622,2024-06-05T15:26:31Z,138636.18,NA,NA,NA,NA,NA,NA,NA,NA,NA,NULL,NA,NA,NA,NA,NA,NA,NA,NA,NA,NA,NA,NA,NA,NA,NA,NA,NA,NA,NA
37b7a,Shallow Question,html.Page,2_0_0_0,NA,NA,form submission,11876.82,138623,138619.5,138636.18,150513,150514,2024-06-05T15:26:43Z,150519.54,Betrüger,mdanganyifu,s,mwanamuziki,wastani,mahakama,mdanganyifu,NA,NA,"c(""distractor1"", ""distractor2"", ""distractor3"")",NA,NA,NA,NA,NA,NA,NA,NA,NA,NA,NA,NA,NA,NA,NA,NA,NA,NA,NA
37b7a,Save data screen,canvas.Screen,2_0_0_1,NA,NA,timeout,500,150516,150510.68,150519.54,151002.86,151003,2024-06-05T15:26:44Z,151019.54,Betrüger,mdanganyifu,s,mwanamuziki,wastani,mahakama,NA,NA,1,"c(""distractor1"", ""distractor2"", ""distractor3"")",NA,NA,NA,NA,NA,NA,NA,NA,NA,NA,NA,NA,NA,NA,NA,NA,NA,NA,NA
37b7a,shallow,flow.Sequence,2_0_0,NA,NA,completion,12366.68,138622,138619.5,138636.18,151002.86,151005,2024-06-05T15:26:44Z,151019.54,Betrüger,mdanganyifu,s,mwanamuziki,wastani,mahakama,NA,NA,NA,"c(""distractor1"", ""distractor2"", ""distractor3"")",NA,NA,NA,NA,NA,NA,NA,NA,NA,NA,NA,NA,NA,NA,NA,NA,NA,NA,NA
37b7a,task,flow.Sequence,2_0,NA,NA,completion,12366.68,138622,138619.5,138636.18,151002.86,151006,2024-06-05T15:26:44Z,151019.54,Betrüger,mdanganyifu,s,mwanamuziki,wastani,mahakama,NA,NA,NA,"c(""distractor1"", ""distractor2"", ""distractor3"")",NA,NA,NA,NA,NA,NA,NA,NA,NA,NA,NA,NA,NA,NA,NA,NA,NA,NA,NA
37b7a,Shallow Question,html.Page,2_1_0_0,NA,NA,form submission,16268.46,151006,151002.86,151019.54,167288,167289,2024-06-05T15:27:00Z,167286.24,Niveau,kiwango,d,usimamizi,mwamali,mshairi,mshairi,NA,NA,"c(""distractor1"", ""distractor2"", ""distractor3"")",NA,NA,NA,NA,NA,NA,NA,NA,NA,NA,NA,NA,NA,NA,NA,NA,NA,NA,NA
37b7a,Save data screen,canvas.Screen,2_1_0_1,NA,NA,timeout,500,167294,167283.48,167286.24,167769.56,167770,2024-06-05T15:27:00Z,167786.24,Niveau,kiwango,d,usimamizi,mwamali,mshairi,NA,NA,0,"c(""distractor1"", ""distractor2"", ""distractor3"")",NA,NA,NA,NA,NA,NA,NA,NA,NA,NA,NA,NA,NA,NA,NA,NA,NA,NA,NA
37b7a,shallow,flow.Sequence,2_1_0,NA,NA,completion,16750.02,151006,151002.86,151019.54,167769.56,167771,2024-06-05T15:27:00Z,167786.24,Niveau,kiwango,d,usimamizi,mwamali,mshairi,NA,NA,NA,"c(""distractor1"", ""distractor2"", ""distractor3"")",NA,NA,NA,NA,NA,NA,NA,NA,NA,NA,NA,NA,NA,NA,NA,NA,NA,NA,NA
37b7a,task,flow.Sequence,2_1,NA,NA,completion,16750.02,151006,151002.86,151019.54,167769.56,167771,2024-06-05T15:27:00Z,167786.24,Niveau,kiwango,d,usimamizi,mwamali,mshairi,NA,NA,NA,"c(""distractor1"", ""distractor2"", ""distractor3"")",NA,NA,NA,NA,NA,NA,NA,NA,NA,NA,NA,NA,NA,NA,NA,NA,NA,NA,NA
37b7a,Shallow Question,html.Page,2_2_0_0,NA,NA,form submission,13522.76,167771,167769.56,167786.24,181309,181309,2024-06-05T15:27:14Z,181319.64,Erneuerung,ukarabati,d,ushawishi,ukalifu,unyonyaji,ukalifu,NA,NA,"c(""distractor1"", ""distractor2"", ""distractor3"")",NA,NA,NA,NA,NA,NA,NA,NA,NA,NA,NA,NA,NA,NA,NA,NA,NA,NA,NA
37b7a,Save data screen,canvas.Screen,2_2_0_1,NA,NA,timeout,499.97999999998,181311,181305.88,181319.64,181802.94,181803,2024-06-05T15:27:15Z,181819.62,Erneuerung,ukarabati,d,ushawishi,ukalifu,unyonyaji,NA,NA,0,"c(""distractor1"", ""distractor2"", ""distractor3"")",NA,NA,NA,NA,NA,NA,NA,NA,NA,NA,NA,NA,NA,NA,NA,NA,NA,NA,NA
37b7a,shallow,flow.Sequence,2_2_0,NA,NA,completion,14016.7,167771,167769.56,167786.24,181802.94,181804,2024-06-05T15:27:15Z,181819.62,Erneuerung,ukarabati,d,ushawishi,ukalifu,unyonyaji,NA,NA,NA,"c(""distractor1"", ""distractor2"", ""distractor3"")",NA,NA,NA,NA,NA,NA,NA,NA,NA,NA,NA,NA,NA,NA,NA,NA,NA,NA,NA
37b7a,task,flow.Sequence,2_2,NA,NA,completion,14016.7,167771,167769.56,167786.24,181802.94,181804,2024-06-05T15:27:15Z,181819.62,Erneuerung,ukarabati,d,ushawishi,ukalifu,unyonyaji,NA,NA,NA,"c(""distractor1"", ""distractor2"", ""distractor3"")",NA,NA,NA,NA,NA,NA,NA,NA,NA,NA,NA,NA,NA,NA,NA,NA,NA,NA,NA
37b7a,Shallow Question,html.Page,2_3_0_0,NA,NA,form submission,4707.38,181805,181802.94,181819.62,186527,186528,2024-06-05T15:27:19Z,186535.88,Papier,karatasi,d,uchambuzi,usalama,kukataliwa,karatasi,NA,NA,"c(""distractor1"", ""distractor2"", ""distractor3"")",NA,NA,NA,NA,NA,NA,NA,NA,NA,NA,NA,NA,NA,NA,NA,NA,NA,NA,NA
37b7a,Save data screen,canvas.Screen,2_3_0_1,NA,NA,timeout,500.39999999999,186530,186524.76,186535.88,187019.62,187021,2024-06-05T15:27:20Z,187036.28,Papier,karatasi,d,uchambuzi,usalama,kukataliwa,NA,NA,1,"c(""distractor1"", ""distractor2"", ""distractor3"")",NA,NA,NA,NA,NA,NA,NA,NA,NA,NA,NA,NA,NA,NA,NA,NA,NA,NA,NA
37b7a,shallow,flow.Sequence,2_3_0,NA,NA,completion,5200,181805,181802.94,181819.62,187019.62,187022,2024-06-05T15:27:20Z,187036.28,Papier,karatasi,d,uchambuzi,usalama,kukataliwa,NA,NA,NA,"c(""distractor1"", ""distractor2"", ""distractor3"")",NA,NA,NA,NA,NA,NA,NA,NA,NA,NA,NA,NA,NA,NA,NA,NA,NA,NA,NA
37b7a,task,flow.Sequence,2_3,NA,NA,completion,5200,181805,181802.94,181819.62,187019.62,187022,2024-06-05T15:27:20Z,187036.28,Papier,karatasi,d,uchambuzi,usalama,kukataliwa,NA,NA,NA,"c(""distractor1"", ""distractor2"", ""distractor3"")",NA,NA,NA,NA,NA,NA,NA,NA,NA,NA,NA,NA,NA,NA,NA,NA,NA,NA,NA
37b7a,Shallow Question,html.Page,2_4_0_0,NA,NA,form submission,4304.72,187023,187019.62,187036.28,191341,191342,2024-06-05T15:27:24Z,191352.98,Begegnung,kukutana,s,mmasihiya,mpiganaji,husiano,kukutana,NA,NA,"c(""distractor1"", ""distractor2"", ""distractor3"")",NA,NA,NA,NA,NA,NA,NA,NA,NA,NA,NA,NA,NA,NA,NA,NA,NA,NA,NA
37b7a,Save data screen,canvas.Screen,2_4_0_1,NA,NA,timeout,500,191344,191338.38,191352.98,191836.14,191838,2024-06-05T15:27:25Z,191852.98,Begegnung,kukutana,s,mmasihiya,mpiganaji,husiano,NA,NA,1,"c(""distractor1"", ""distractor2"", ""distractor3"")",NA,NA,NA,NA,NA,NA,NA,NA,NA,NA,NA,NA,NA,NA,NA,NA,NA,NA,NA
37b7a,shallow,flow.Sequence,2_4_0,NA,NA,completion,4799.86,187023,187019.62,187036.28,191836.14,191840,2024-06-05T15:27:25Z,191852.98,Begegnung,kukutana,s,mmasihiya,mpiganaji,husiano,NA,NA,NA,"c(""distractor1"", ""distractor2"", ""distractor3"")",NA,NA,NA,NA,NA,NA,NA,NA,NA,NA,NA,NA,NA,NA,NA,NA,NA,NA,NA
37b7a,task,flow.Sequence,2_4,NA,NA,completion,4799.86,187023,187019.62,187036.28,191836.14,191840,2024-06-05T15:27:25Z,191852.98,Begegnung,kukutana,s,mmasihiya,mpiganaji,husiano,NA,NA,NA,"c(""distractor1"", ""distractor2"", ""distractor3"")",NA,NA,NA,NA,NA,NA,NA,NA,NA,NA,NA,NA,NA,NA,NA,NA,NA,NA,NA
37b7a,Shallow Question,html.Page,2_5_0_0,NA,NA,form submission,5590.02,191841,191836.14,191852.98,197443,197444,2024-06-05T15:27:30Z,197452.98,Vorwurf,mashtaka,s,msukumo,mtangulizi,uenyekiti,mashtaka,NA,NA,"c(""distractor1"", ""distractor2"", ""distractor3"")",NA,NA,NA,NA,NA,NA,NA,NA,NA,NA,NA,NA,NA,NA,NA,NA,NA,NA,NA
37b7a,Save data screen,canvas.Screen,2_5_0_1,NA,NA,timeout,499.97999999998,197449,197438.88,197452.98,197936.3,197937,2024-06-05T15:27:31Z,197952.96,Vorwurf,mashtaka,s,msukumo,mtangulizi,uenyekiti,NA,NA,1,"c(""distractor1"", ""distractor2"", ""distractor3"")",NA,NA,NA,NA,NA,NA,NA,NA,NA,NA,NA,NA,NA,NA,NA,NA,NA,NA,NA
37b7a,shallow,flow.Sequence,2_5_0,NA,NA,completion,6083.32,191840,191836.14,191852.98,197936.3,197937,2024-06-05T15:27:31Z,197952.96,Vorwurf,mashtaka,s,msukumo,mtangulizi,uenyekiti,NA,NA,NA,"c(""distractor1"", ""distractor2"", ""distractor3"")",NA,NA,NA,NA,NA,NA,NA,NA,NA,NA,NA,NA,NA,NA,NA,NA,NA,NA,NA
37b7a,task,flow.Sequence,2_5,NA,NA,completion,6083.32,191840,191836.14,191852.98,197936.3,197938,2024-06-05T15:27:31Z,197952.96,Vorwurf,mashtaka,s,msukumo,mtangulizi,uenyekiti,NA,NA,NA,"c(""distractor1"", ""distractor2"", ""distractor3"")",NA,NA,NA,NA,NA,NA,NA,NA,NA,NA,NA,NA,NA,NA,NA,NA,NA,NA,NA
37b7a,Shallow Question,html.Page,2_6_0_0,NA,NA,form submission,6340.04,197938,197936.3,197952.96,204293,204294,2024-06-05T15:27:37Z,204302.1,Genehmigung,idhini,s,mwanamke,itikadi,fedheha,idhini,NA,NA,"c(""distractor1"", ""distractor2"", ""distractor3"")",NA,NA,NA,NA,NA,NA,NA,NA,NA,NA,NA,NA,NA,NA,NA,NA,NA,NA,NA
37b7a,Save data screen,canvas.Screen,2_6_0_1,NA,NA,timeout,500.89999999999,204295,204291.2,204302.1,204785.96,204787,2024-06-05T15:27:38Z,204803,Genehmigung,idhini,s,mwanamke,itikadi,fedheha,NA,NA,1,"c(""distractor1"", ""distractor2"", ""distractor3"")",NA,NA,NA,NA,NA,NA,NA,NA,NA,NA,NA,NA,NA,NA,NA,NA,NA,NA,NA
37b7a,shallow,flow.Sequence,2_6_0,NA,NA,completion,6833,197938,197936.3,197952.96,204785.96,204788,2024-06-05T15:27:38Z,204803,Genehmigung,idhini,s,mwanamke,itikadi,fedheha,NA,NA,NA,"c(""distractor1"", ""distractor2"", ""distractor3"")",NA,NA,NA,NA,NA,NA,NA,NA,NA,NA,NA,NA,NA,NA,NA,NA,NA,NA,NA
37b7a,task,flow.Sequence,2_6,NA,NA,completion,6833,197938,197936.3,197952.96,204785.96,204788,2024-06-05T15:27:38Z,204803,Genehmigung,idhini,s,mwanamke,itikadi,fedheha,NA,NA,NA,"c(""distractor1"", ""distractor2"", ""distractor3"")",NA,NA,NA,NA,NA,NA,NA,NA,NA,NA,NA,NA,NA,NA,NA,NA,NA,NA,NA
37b7a,Shallow Question,html.Page,2_7_0_0,NA,NA,form submission,6140,204789,204785.96,204803,210943,210944,2024-06-05T15:27:44Z,210953.02,Respekt,heshima,d,changamnao,upinzani,ufanisi,ufanisi,NA,NA,"c(""distractor1"", ""distractor2"", ""distractor3"")",NA,NA,NA,NA,NA,NA,NA,NA,NA,NA,NA,NA,NA,NA,NA,NA,NA,NA,NA
37b7a,Save data screen,canvas.Screen,2_7_0_1,NA,NA,timeout,499.98000000001,210946,210940.98,210953.02,211436.34,211437,2024-06-05T15:27:44Z,211453,Respekt,heshima,d,changamnao,upinzani,ufanisi,NA,NA,0,"c(""distractor1"", ""distractor2"", ""distractor3"")",NA,NA,NA,NA,NA,NA,NA,NA,NA,NA,NA,NA,NA,NA,NA,NA,NA,NA,NA
37b7a,shallow,flow.Sequence,2_7_0,NA,NA,completion,6633.34,204789,204785.96,204803,211436.34,211437,2024-06-05T15:27:44Z,211453,Respekt,heshima,d,changamnao,upinzani,ufanisi,NA,NA,NA,"c(""distractor1"", ""distractor2"", ""distractor3"")",NA,NA,NA,NA,NA,NA,NA,NA,NA,NA,NA,NA,NA,NA,NA,NA,NA,NA,NA
37b7a,task,flow.Sequence,2_7,NA,NA,completion,6633.34,204788,204785.96,204803,211436.34,211438,2024-06-05T15:27:44Z,211453,Respekt,heshima,d,changamnao,upinzani,ufanisi,NA,NA,NA,"c(""distractor1"", ""distractor2"", ""distractor3"")",NA,NA,NA,NA,NA,NA,NA,NA,NA,NA,NA,NA,NA,NA,NA,NA,NA,NA,NA
37b7a,Shallow Question,html.Page,2_8_0_0,NA,NA,form submission,6205,211438,211436.34,211453,217658,217658,2024-06-05T15:27:50Z,217669.28,Stimmung,kinyongo,s,kilekile,kisambo,madhehebu,kinyongo,NA,NA,"c(""distractor1"", ""distractor2"", ""distractor3"")",NA,NA,NA,NA,NA,NA,NA,NA,NA,NA,NA,NA,NA,NA,NA,NA,NA,NA,NA
37b7a,Save data screen,canvas.Screen,2_8_0_1,NA,NA,timeout,500.42000000001,217660,217655.64,217669.28,218152.38,218153,2024-06-05T15:27:51Z,218169.7,Stimmung,kinyongo,s,kilekile,kisambo,madhehebu,NA,NA,1,"c(""distractor1"", ""distractor2"", ""distractor3"")",NA,NA,NA,NA,NA,NA,NA,NA,NA,NA,NA,NA,NA,NA,NA,NA,NA,NA,NA
37b7a,shallow,flow.Sequence,2_8_0,NA,NA,completion,6699.38,211438,211436.34,211453,218152.38,218154,2024-06-05T15:27:51Z,218169.7,Stimmung,kinyongo,s,kilekile,kisambo,madhehebu,NA,NA,NA,"c(""distractor1"", ""distractor2"", ""distractor3"")",NA,NA,NA,NA,NA,NA,NA,NA,NA,NA,NA,NA,NA,NA,NA,NA,NA,NA,NA
37b7a,task,flow.Sequence,2_8,NA,NA,completion,6699.38,211438,211436.34,211453,218152.38,218154,2024-06-05T15:27:51Z,218169.7,Stimmung,kinyongo,s,kilekile,kisambo,madhehebu,NA,NA,NA,"c(""distractor1"", ""distractor2"", ""distractor3"")",NA,NA,NA,NA,NA,NA,NA,NA,NA,NA,NA,NA,NA,NA,NA,NA,NA,NA,NA
37b7a,Shallow Question,html.Page,2_9_0_0,NA,NA,form submission,10906.3,218154,218152.38,218169.7,229076,229076,2024-06-05T15:28:02Z,229086.38,Atmosphäre,angahewa,s,kuteseka,usahihi,kutoamini,kuteseka,NA,NA,"c(""distractor1"", ""distractor2"", ""distractor3"")",NA,NA,NA,NA,NA,NA,NA,NA,NA,NA,NA,NA,NA,NA,NA,NA,NA,NA,NA
37b7a,Save data screen,canvas.Screen,2_9_0_1,NA,NA,timeout,499.72,229078,229073.98,229086.38,229569.7,229571,2024-06-05T15:28:02Z,229586.1,Atmosphäre,angahewa,s,kuteseka,usahihi,kutoamini,NA,NA,0,"c(""distractor1"", ""distractor2"", ""distractor3"")",NA,NA,NA,NA,NA,NA,NA,NA,NA,NA,NA,NA,NA,NA,NA,NA,NA,NA,NA
37b7a,shallow,flow.Sequence,2_9_0,NA,NA,completion,11400,218154,218152.38,218169.7,229569.7,229572,2024-06-05T15:28:02Z,229586.1,Atmosphäre,angahewa,s,kuteseka,usahihi,kutoamini,NA,NA,NA,"c(""distractor1"", ""distractor2"", ""distractor3"")",NA,NA,NA,NA,NA,NA,NA,NA,NA,NA,NA,NA,NA,NA,NA,NA,NA,NA,NA
37b7a,task,flow.Sequence,2_9,NA,NA,completion,11400,218154,218152.38,218169.7,229569.7,229572,2024-06-05T15:28:02Z,229586.1,Atmosphäre,angahewa,s,kuteseka,usahihi,kutoamini,NA,NA,NA,"c(""distractor1"", ""distractor2"", ""distractor3"")",NA,NA,NA,NA,NA,NA,NA,NA,NA,NA,NA,NA,NA,NA,NA,NA,NA,NA,NA
37b7a,Shallow Question,html.Page,2_10_0_0,NA,NA,form submission,9570.9,229572,229569.7,229586.1,239157,239157,2024-06-05T15:28:12Z,239169.74,Fleisch,mshakiki,d,kizunguzungu,mshikamano,angusho,mshikamano,NA,NA,"c(""distractor1"", ""distractor2"", ""distractor3"")",NA,NA,NA,NA,NA,NA,NA,NA,NA,NA,NA,NA,NA,NA,NA,NA,NA,NA,NA
37b7a,Save data screen,canvas.Screen,2_10_0_1,NA,NA,timeout,500,239159,239155.14,239169.74,239653.06,239654,2024-06-05T15:28:12Z,239669.74,Fleisch,mshakiki,d,kizunguzungu,mshikamano,angusho,NA,NA,0,"c(""distractor1"", ""distractor2"", ""distractor3"")",NA,NA,NA,NA,NA,NA,NA,NA,NA,NA,NA,NA,NA,NA,NA,NA,NA,NA,NA
37b7a,shallow,flow.Sequence,2_10_0,NA,NA,completion,10066.96,229572,229569.7,229586.1,239653.06,239654,2024-06-05T15:28:12Z,239669.74,Fleisch,mshakiki,d,kizunguzungu,mshikamano,angusho,NA,NA,NA,"c(""distractor1"", ""distractor2"", ""distractor3"")",NA,NA,NA,NA,NA,NA,NA,NA,NA,NA,NA,NA,NA,NA,NA,NA,NA,NA,NA
37b7a,task,flow.Sequence,2_10,NA,NA,completion,10066.96,229572,229569.7,229586.1,239653.06,239654,2024-06-05T15:28:12Z,239669.74,Fleisch,mshakiki,d,kizunguzungu,mshikamano,angusho,NA,NA,NA,"c(""distractor1"", ""distractor2"", ""distractor3"")",NA,NA,NA,NA,NA,NA,NA,NA,NA,NA,NA,NA,NA,NA,NA,NA,NA,NA,NA
37b7a,Shallow Question,html.Page,2_11_0_0,NA,NA,form submission,8192.26,239655,239653.06,239669.74,247862,247862,2024-06-05T15:28:21Z,247869.34,Wechsel,ugeuzaji,d,utambulisho,kujenga,wasiwasi,utambulisho,NA,NA,"c(""distractor1"", ""distractor2"", ""distractor3"")",NA,NA,NA,NA,NA,NA,NA,NA,NA,NA,NA,NA,NA,NA,NA,NA,NA,NA,NA
37b7a,Save data screen,canvas.Screen,2_11_0_1,NA,NA,timeout,500.39999999999,247863,247859.74,247869.34,248353.08,248355,2024-06-05T15:28:21Z,248369.74,Wechsel,ugeuzaji,d,utambulisho,kujenga,wasiwasi,NA,NA,0,"c(""distractor1"", ""distractor2"", ""distractor3"")",NA,NA,NA,NA,NA,NA,NA,NA,NA,NA,NA,NA,NA,NA,NA,NA,NA,NA,NA
37b7a,shallow,flow.Sequence,2_11_0,NA,NA,completion,8683.34,239655,239653.06,239669.74,248353.08,248357,2024-06-05T15:28:21Z,248369.74,Wechsel,ugeuzaji,d,utambulisho,kujenga,wasiwasi,NA,NA,NA,"c(""distractor1"", ""distractor2"", ""distractor3"")",NA,NA,NA,NA,NA,NA,NA,NA,NA,NA,NA,NA,NA,NA,NA,NA,NA,NA,NA
37b7a,task,flow.Sequence,2_11,NA,NA,completion,8683.34,239654,239653.06,239669.74,248353.08,248357,2024-06-05T15:28:21Z,248369.74,Wechsel,ugeuzaji,d,utambulisho,kujenga,wasiwasi,NA,NA,NA,"c(""distractor1"", ""distractor2"", ""distractor3"")",NA,NA,NA,NA,NA,NA,NA,NA,NA,NA,NA,NA,NA,NA,NA,NA,NA,NA,NA
37b7a,Shallow Question,html.Page,2_12_0_0,NA,NA,form submission,8628.26,248358,248353.08,248369.74,256998,257001,2024-06-05T15:28:30Z,257003.1,Flexibilität,kubadilika,s,enjini,usikilivu,hesabu,kubadilika,NA,NA,"c(""distractor1"", ""distractor2"", ""distractor3"")",NA,NA,NA,NA,NA,NA,NA,NA,NA,NA,NA,NA,NA,NA,NA,NA,NA,NA,NA
37b7a,Save data screen,canvas.Screen,2_12_0_1,NA,NA,timeout,500,257006,256993.2,257003.1,257486.42,257487,2024-06-05T15:28:30Z,257503.1,Flexibilität,kubadilika,s,enjini,usikilivu,hesabu,NA,NA,1,"c(""distractor1"", ""distractor2"", ""distractor3"")",NA,NA,NA,NA,NA,NA,NA,NA,NA,NA,NA,NA,NA,NA,NA,NA,NA,NA,NA
37b7a,shallow,flow.Sequence,2_12_0,NA,NA,completion,9116.68,248358,248353.08,248369.74,257486.42,257487,2024-06-05T15:28:30Z,257503.1,Flexibilität,kubadilika,s,enjini,usikilivu,hesabu,NA,NA,NA,"c(""distractor1"", ""distractor2"", ""distractor3"")",NA,NA,NA,NA,NA,NA,NA,NA,NA,NA,NA,NA,NA,NA,NA,NA,NA,NA,NA
37b7a,task,flow.Sequence,2_12,NA,NA,completion,9116.68,248358,248353.08,248369.74,257486.42,257488,2024-06-05T15:28:30Z,257503.1,Flexibilität,kubadilika,s,enjini,usikilivu,hesabu,NA,NA,NA,"c(""distractor1"", ""distractor2"", ""distractor3"")",NA,NA,NA,NA,NA,NA,NA,NA,NA,NA,NA,NA,NA,NA,NA,NA,NA,NA,NA
37b7a,Shallow Question,html.Page,2_13_0_0,NA,NA,form submission,16185.9,257488,257486.42,257503.1,273689,273690,2024-06-05T15:28:46Z,273703.06,Orientierung,urekebisho,d,uelekeo,marekebisho,utunzaji,utunzaji,NA,NA,"c(""distractor1"", ""distractor2"", ""distractor3"")",NA,NA,NA,NA,NA,NA,NA,NA,NA,NA,NA,NA,NA,NA,NA,NA,NA,NA,NA
37b7a,Save data screen,canvas.Screen,2_13_0_1,NA,NA,timeout,499.44,273692,273687.32,273703.06,274186.46,274187,2024-06-05T15:28:47Z,274202.5,Orientierung,urekebisho,d,uelekeo,marekebisho,utunzaji,NA,NA,0,"c(""distractor1"", ""distractor2"", ""distractor3"")",NA,NA,NA,NA,NA,NA,NA,NA,NA,NA,NA,NA,NA,NA,NA,NA,NA,NA,NA
37b7a,shallow,flow.Sequence,2_13_0,NA,NA,completion,16683.36,257488,257486.42,257503.1,274186.46,274188,2024-06-05T15:28:47Z,274202.5,Orientierung,urekebisho,d,uelekeo,marekebisho,utunzaji,NA,NA,NA,"c(""distractor1"", ""distractor2"", ""distractor3"")",NA,NA,NA,NA,NA,NA,NA,NA,NA,NA,NA,NA,NA,NA,NA,NA,NA,NA,NA
37b7a,task,flow.Sequence,2_13,NA,NA,completion,16683.36,257488,257486.42,257503.1,274186.46,274189,2024-06-05T15:28:47Z,274202.5,Orientierung,urekebisho,d,uelekeo,marekebisho,utunzaji,NA,NA,NA,"c(""distractor1"", ""distractor2"", ""distractor3"")",NA,NA,NA,NA,NA,NA,NA,NA,NA,NA,NA,NA,NA,NA,NA,NA,NA,NA,NA
37b7a,Shallow Question,html.Page,2_14_0_0,NA,NA,form submission,8274.5,274189,274186.46,274202.5,282477,282477,2024-06-05T15:28:55Z,282486.5,Entwicklung,maendeleo,s,uangavu,mshindwa,badiliko,maendeleo,NA,NA,"c(""distractor1"", ""distractor2"", ""distractor3"")",NA,NA,NA,NA,NA,NA,NA,NA,NA,NA,NA,NA,NA,NA,NA,NA,NA,NA,NA
37b7a,Save data screen,canvas.Screen,2_14_0_1,NA,NA,timeout,499.97999999998,282479,282474.32,282486.5,282969.82,282971,2024-06-05T15:28:56Z,282986.48,Entwicklung,maendeleo,s,uangavu,mshindwa,badiliko,NA,NA,1,"c(""distractor1"", ""distractor2"", ""distractor3"")",NA,NA,NA,NA,NA,NA,NA,NA,NA,NA,NA,NA,NA,NA,NA,NA,NA,NA,NA
37b7a,shallow,flow.Sequence,2_14_0,NA,NA,completion,8767.32,274189,274186.46,274202.5,282969.82,282971,2024-06-05T15:28:56Z,282986.48,Entwicklung,maendeleo,s,uangavu,mshindwa,badiliko,NA,NA,NA,"c(""distractor1"", ""distractor2"", ""distractor3"")",NA,NA,NA,NA,NA,NA,NA,NA,NA,NA,NA,NA,NA,NA,NA,NA,NA,NA,NA
37b7a,task,flow.Sequence,2_14,NA,NA,completion,8767.32,274189,274186.46,274202.5,282969.82,282971,2024-06-05T15:28:56Z,282986.48,Entwicklung,maendeleo,s,uangavu,mshindwa,badiliko,NA,NA,NA,"c(""distractor1"", ""distractor2"", ""distractor3"")",NA,NA,NA,NA,NA,NA,NA,NA,NA,NA,NA,NA,NA,NA,NA,NA,NA,NA,NA
37b7a,Shallow Question,html.Page,2_15_0_0,NA,NA,form submission,14187.52,282972,282969.82,282986.48,297174,297174,2024-06-05T15:29:10Z,297186.52,Integrität,uadilifu,d,muungano,mtiririko,upunguaji,upunguaji,NA,NA,"c(""distractor1"", ""distractor2"", ""distractor3"")",NA,NA,NA,NA,NA,NA,NA,NA,NA,NA,NA,NA,NA,NA,NA,NA,NA,NA,NA
37b7a,Save data screen,canvas.Screen,2_15_0_1,NA,NA,timeout,500,297176,297171.6,297186.52,297669.86,297672,2024-06-05T15:29:10Z,297686.52,Integrität,uadilifu,d,muungano,mtiririko,upunguaji,NA,NA,0,"c(""distractor1"", ""distractor2"", ""distractor3"")",NA,NA,NA,NA,NA,NA,NA,NA,NA,NA,NA,NA,NA,NA,NA,NA,NA,NA,NA
37b7a,shallow,flow.Sequence,2_15_0,NA,NA,completion,14683.38,282972,282969.82,282986.48,297669.86,297674,2024-06-05T15:29:10Z,297686.52,Integrität,uadilifu,d,muungano,mtiririko,upunguaji,NA,NA,NA,"c(""distractor1"", ""distractor2"", ""distractor3"")",NA,NA,NA,NA,NA,NA,NA,NA,NA,NA,NA,NA,NA,NA,NA,NA,NA,NA,NA
37b7a,task,flow.Sequence,2_15,NA,NA,completion,14683.38,282972,282969.82,282986.48,297669.86,297674,2024-06-05T15:29:10Z,297686.52,Integrität,uadilifu,d,muungano,mtiririko,upunguaji,NA,NA,NA,"c(""distractor1"", ""distractor2"", ""distractor3"")",NA,NA,NA,NA,NA,NA,NA,NA,NA,NA,NA,NA,NA,NA,NA,NA,NA,NA,NA
37b7a,retrieval block 2 (multiple choice),flow.Loop,2,NA,NA,completion,159033.68,138622,138619.5,138636.18,297669.86,297675,2024-06-05T15:29:10Z,297686.52,NA,NA,NA,NA,NA,NA,NA,NA,NA,"c(""distractor1"", ""distractor2"", ""distractor3"")",NA,NA,NA,NA,NA,NA,NA,NA,NA,NA,NA,NA,NA,NA,NA,NA,NA,NA,NA
37b7a,End,canvas.Screen,3,NA,keypress(Space),response,3351.48,297675,297669.86,297686.52,301038,301045,2024-06-05T15:29:14Z,301046.58,NA,NA,NA,NA,NA,NA,NA,NA,NA,NULL,NA,NA,NA,NA,NA,NA,NA,NA,NA,NA,NA,NA,NA,NA,NA,NA,NA,NA,NA
37b7a,root,flow.Sequence,NA,NA,NA,completion,300302.12,715,719.22,735.88,301038,301047,2024-06-05T15:29:14Z,301046.58,NA,NA,NA,NA,NA,NA,NA,NA,NA,NULL,NA,NA,NA,NA,NA,NA,NA,NA,NA,NA,NA,NA,NA,NA,NA,NA,NA,NA,NA
