observation,sender,sender_type,sender_id,response,response_action,ended_on,duration,time_run,time_render,time_show,time_end,time_commit,timestamp,time_switch,distractors,german,swahili,enc,distractor1,distractor2,distractor3,response_2,x,correct,x_2,url_vp,url_sess,meta_labjs_version,meta_location,meta_user_agent,meta_platform,meta_language,meta_locale,meta_time_zone,meta_timezone_offset,meta_screen_width,meta_screen_height,meta_scroll_width,meta_scroll_height,meta_window_inner_width,meta_window_inner_height,meta_device_pixel_ratio,meta_labjs_build_flavor,meta_labjs_build_commit
4f2cf,Introduction general,canvas.Screen,0,weiter,keypress(q),response,66264.667000004,866.10000000149,766.715,883.633,67148.300000004,67151.200000003,2023-10-13T18:02:26Z,67165.351,NULL,NA,NA,NA,NA,NA,NA,NA,NA,NA,NA,148,1,20.2.4,https://neurocog.fernuni.ch/studies/vweber/jbaenninger/encoding_immediate/index.html?vp=148&sess=1,"Mozilla/5.0 (Windows NT 10.0; Win64; x64) AppleWebKit/537.36 (KHTML, like Gecko) Chrome/117.0.0.0 Safari/537.36 Edg/117.0.2045.60",Win32,de,de-CH,Europe/Zurich,-120,1280,800,1272,630,1272,678,1.5,production,f5b4a49f956347addd546a832a3327688c2c0fef
4f2cf,Introduction practice,canvas.Screen,1_0,NA,keypress(Space),response,10769.349000003,67151.5,67147.902,67165.351,77934.700000003,77936.200000003,2023-10-13T18:02:37Z,77962.118,NULL,NA,NA,NA,NA,NA,NA,NA,NA,NA,NA,NA,NA,NA,NA,NA,NA,NA,NA,NA,NA,NA,NA,NA,NA,NA,NA,NA,NA,NA
4f2cf,Deep Question,html.Page,1_1_0_0_0,NA,NA,form submission,4647.882,77937,77934.093,77962.118,82610,82610.300000004,2023-10-13T18:02:42Z,82625.873,"c(""distractor1"", ""distractor2"", ""distractor3"")",Qualität,mtindo,d,NA,NA,NA,jj,NA,NA,NA,NA,NA,NA,NA,NA,NA,NA,NA,NA,NA,NA,NA,NA,NA,NA,NA,NA,NA,NA
4f2cf,"""Richtig""-Screen",canvas.Screen,1_1_0_0_1,NA,NA,skipped,NA,82612.700000003,NA,NA,82610,82613,2023-10-13T18:02:42Z,82625.873,"c(""distractor1"", ""distractor2"", ""distractor3"")",Qualität,mtindo,d,NA,NA,NA,NA,NA,NA,NA,NA,NA,NA,NA,NA,NA,NA,NA,NA,NA,NA,NA,NA,NA,NA,NA,NA,NA,NA
4f2cf,"""Falsch""-Screen",canvas.Screen,1_1_0_0_2,NA,NA,timeout,4995.731,82615,82597.845,82625.873,87604.898,87612.200000003,2023-10-13T18:02:47Z,87621.604,"c(""distractor1"", ""distractor2"", ""distractor3"")",Qualität,mtindo,d,NA,NA,NA,NA,NA,0,NA,NA,NA,NA,NA,NA,NA,NA,NA,NA,NA,NA,NA,NA,NA,NA,NA,NA,NA,NA
4f2cf,deep,flow.Sequence,1_1_0_0,NA,NA,completion,9642.78,77937,77934.093,77962.118,87604.898,87612.800000004,2023-10-13T18:02:47Z,87621.604,"c(""distractor1"", ""distractor2"", ""distractor3"")",Qualität,mtindo,d,NA,NA,NA,NA,NA,NA,NA,NA,NA,NA,NA,NA,NA,NA,NA,NA,NA,NA,NA,NA,NA,NA,NA,NA,NA,NA
4f2cf,shallow,flow.Sequence,1_1_0_1,NA,NA,skipped,NA,87613,NA,NA,87604.898,87613.200000003,2023-10-13T18:02:47Z,87621.604,"c(""distractor1"", ""distractor2"", ""distractor3"")",Qualität,mtindo,d,NA,NA,NA,NA,NA,NA,NA,NA,NA,NA,NA,NA,NA,NA,NA,NA,NA,NA,NA,NA,NA,NA,NA,NA,NA,NA
4f2cf,task,flow.Sequence,1_1_0,NA,NA,completion,9642.78,77936.899999999,77934.093,77962.118,87604.898,87613.5,2023-10-13T18:02:47Z,87621.604,"c(""distractor1"", ""distractor2"", ""distractor3"")",Qualität,mtindo,d,NA,NA,NA,NA,NA,NA,NA,NA,NA,NA,NA,NA,NA,NA,NA,NA,NA,NA,NA,NA,NA,NA,NA,NA,NA,NA
4f2cf,Deep Question,html.Page,1_1_1_0_0,NA,NA,form submission,6018.1960000045,87613.800000004,87604.898,87621.604,93639.800000004,93640.300000004,2023-10-13T18:02:53Z,93641.223,"c(""distractor1"", ""distractor2"", ""distractor3"")",Gesundheit,salama,d,NA,NA,NA,jk,NA,NA,NA,NA,NA,NA,NA,NA,NA,NA,NA,NA,NA,NA,NA,NA,NA,NA,NA,NA,NA,NA
4f2cf,"""Richtig""-Screen",canvas.Screen,1_1_1_0_1,NA,NA,skipped,NA,93643,NA,NA,93639.800000004,93643.200000003,2023-10-13T18:02:53Z,93641.223,"c(""distractor1"", ""distractor2"", ""distractor3"")",Gesundheit,salama,d,NA,NA,NA,NA,NA,NA,NA,NA,NA,NA,NA,NA,NA,NA,NA,NA,NA,NA,NA,NA,NA,NA,NA,NA,NA,NA
4f2cf,"""Falsch""-Screen",canvas.Screen,1_1_1_0_2,NA,NA,timeout,5003.896,93644.200000003,93627.183,93641.223,98628.482,98635.100000001,2023-10-13T18:02:58Z,98645.119,"c(""distractor1"", ""distractor2"", ""distractor3"")",Gesundheit,salama,d,NA,NA,NA,NA,NA,0,NA,NA,NA,NA,NA,NA,NA,NA,NA,NA,NA,NA,NA,NA,NA,NA,NA,NA,NA,NA
4f2cf,deep,flow.Sequence,1_1_1_0,NA,NA,completion,11006.878,87613.700000003,87604.898,87621.604,98628.482,98635.399999999,2023-10-13T18:02:58Z,98645.119,"c(""distractor1"", ""distractor2"", ""distractor3"")",Gesundheit,salama,d,NA,NA,NA,NA,NA,NA,NA,NA,NA,NA,NA,NA,NA,NA,NA,NA,NA,NA,NA,NA,NA,NA,NA,NA,NA,NA
4f2cf,shallow,flow.Sequence,1_1_1_1,NA,NA,skipped,NA,98635.5,NA,NA,98628.482,98635.5,2023-10-13T18:02:58Z,98645.119,"c(""distractor1"", ""distractor2"", ""distractor3"")",Gesundheit,salama,d,NA,NA,NA,NA,NA,NA,NA,NA,NA,NA,NA,NA,NA,NA,NA,NA,NA,NA,NA,NA,NA,NA,NA,NA,NA,NA
4f2cf,task,flow.Sequence,1_1_1,NA,NA,completion,11006.878,87613.600000001,87604.898,87621.604,98628.482,98635.800000004,2023-10-13T18:02:58Z,98645.119,"c(""distractor1"", ""distractor2"", ""distractor3"")",Gesundheit,salama,d,NA,NA,NA,NA,NA,NA,NA,NA,NA,NA,NA,NA,NA,NA,NA,NA,NA,NA,NA,NA,NA,NA,NA,NA,NA,NA
4f2cf,deep,flow.Sequence,1_1_2_0,NA,NA,skipped,NA,98635.800000004,NA,NA,98628.482,98635.899999999,2023-10-13T18:02:58Z,98645.119,"c(""distractor1"", ""distractor2"", ""distractor3"")",Gegenwart,hadhara,s,katiba,jokofu,mikopo,NA,NA,NA,NA,NA,NA,NA,NA,NA,NA,NA,NA,NA,NA,NA,NA,NA,NA,NA,NA,NA,NA,NA
4f2cf,Shallow Question,html.Page,1_1_2_1_0,NA,NA,form submission,7089.7809999985,98636,98628.482,98645.119,105734.9,105735.2,2023-10-13T18:03:05Z,105749.805,"c(""distractor1"", ""distractor2"", ""distractor3"")",Gegenwart,hadhara,s,katiba,jokofu,mikopo,katiba,NA,NA,NA,NA,NA,NA,NA,NA,NA,NA,NA,NA,NA,NA,NA,NA,NA,NA,NA,NA,NA,NA
4f2cf,"""Richtig""-Screen",canvas.Screen,1_1_2_1_1,NA,NA,skipped,NA,105738,NA,NA,105734.9,105738.2,2023-10-13T18:03:05Z,105749.805,"c(""distractor1"", ""distractor2"", ""distractor3"")",Gegenwart,hadhara,s,katiba,jokofu,mikopo,NA,NA,NA,NA,NA,NA,NA,NA,NA,NA,NA,NA,NA,NA,NA,NA,NA,NA,NA,NA,NA,NA,NA
4f2cf,"""Falsch""-Screen",canvas.Screen,1_1_2_1_2,NA,NA,timeout,5001.312,105739.3,105729.189,105749.805,110734.378,110737.5,2023-10-13T18:03:10Z,110751.117,"c(""distractor1"", ""distractor2"", ""distractor3"")",Gegenwart,hadhara,s,katiba,jokofu,mikopo,NA,NA,0,NA,NA,NA,NA,NA,NA,NA,NA,NA,NA,NA,NA,NA,NA,NA,NA,NA,NA,NA,NA
4f2cf,shallow,flow.Sequence,1_1_2_1,NA,NA,completion,12089.259,98636,98628.482,98645.119,110734.378,110737.7,2023-10-13T18:03:10Z,110751.117,"c(""distractor1"", ""distractor2"", ""distractor3"")",Gegenwart,hadhara,s,katiba,jokofu,mikopo,NA,NA,NA,NA,NA,NA,NA,NA,NA,NA,NA,NA,NA,NA,NA,NA,NA,NA,NA,NA,NA,NA,NA
4f2cf,task,flow.Sequence,1_1_2,NA,NA,completion,12089.259,98635.800000004,98628.482,98645.119,110734.378,110737.9,2023-10-13T18:03:10Z,110751.117,"c(""distractor1"", ""distractor2"", ""distractor3"")",Gegenwart,hadhara,s,katiba,jokofu,mikopo,NA,NA,NA,NA,NA,NA,NA,NA,NA,NA,NA,NA,NA,NA,NA,NA,NA,NA,NA,NA,NA,NA,NA
4f2cf,deep,flow.Sequence,1_1_3_0,NA,NA,skipped,NA,110738,NA,NA,110734.378,110738,2023-10-13T18:03:10Z,110751.117,"c(""distractor1"", ""distractor2"", ""distractor3"")",Rückhalt,msaada,s,muhula,auwali,kiwimbe,NA,NA,NA,NA,NA,NA,NA,NA,NA,NA,NA,NA,NA,NA,NA,NA,NA,NA,NA,NA,NA,NA,NA
4f2cf,Shallow Question,html.Page,1_1_3_1_0,NA,NA,form submission,6026.883,110738.1,110734.378,110751.117,116778,116778.4,2023-10-13T18:03:16Z,116780.345,"c(""distractor1"", ""distractor2"", ""distractor3"")",Rückhalt,msaada,s,muhula,auwali,kiwimbe,auwali,NA,NA,NA,NA,NA,NA,NA,NA,NA,NA,NA,NA,NA,NA,NA,NA,NA,NA,NA,NA,NA,NA
4f2cf,"""Richtig""-Screen",canvas.Screen,1_1_3_1_1,NA,NA,skipped,NA,116782,NA,NA,116778,116782.2,2023-10-13T18:03:16Z,116780.345,"c(""distractor1"", ""distractor2"", ""distractor3"")",Rückhalt,msaada,s,muhula,auwali,kiwimbe,NA,NA,NA,NA,NA,NA,NA,NA,NA,NA,NA,NA,NA,NA,NA,NA,NA,NA,NA,NA,NA,NA,NA
4f2cf,"""Falsch""-Screen",canvas.Screen,1_1_3_1_2,NA,NA,timeout,4998.75,116783.3,116762.696,116780.345,121762.492,121770.6,2023-10-13T18:03:21Z,121779.095,"c(""distractor1"", ""distractor2"", ""distractor3"")",Rückhalt,msaada,s,muhula,auwali,kiwimbe,NA,NA,0,NA,NA,NA,NA,NA,NA,NA,NA,NA,NA,NA,NA,NA,NA,NA,NA,NA,NA,NA,NA
4f2cf,shallow,flow.Sequence,1_1_3_1,NA,NA,completion,11011.375,110738.1,110734.378,110751.117,121762.492,121770.9,2023-10-13T18:03:21Z,121779.095,"c(""distractor1"", ""distractor2"", ""distractor3"")",Rückhalt,msaada,s,muhula,auwali,kiwimbe,NA,NA,NA,NA,NA,NA,NA,NA,NA,NA,NA,NA,NA,NA,NA,NA,NA,NA,NA,NA,NA,NA,NA
4f2cf,task,flow.Sequence,1_1_3,NA,NA,completion,11011.375,110737.9,110734.378,110751.117,121762.492,121771,2023-10-13T18:03:21Z,121779.095,"c(""distractor1"", ""distractor2"", ""distractor3"")",Rückhalt,msaada,s,muhula,auwali,kiwimbe,NA,NA,NA,NA,NA,NA,NA,NA,NA,NA,NA,NA,NA,NA,NA,NA,NA,NA,NA,NA,NA,NA,NA
4f2cf,Deep Question,html.Page,1_1_4_0_0,NA,NA,form submission,7262.905,121771.2,121762.492,121779.095,129042,129042.3,2023-10-13T18:03:28Z,129044.425,"c(""distractor1"", ""distractor2"", ""distractor3"")",Schatten,kivuli,d,NA,NA,NA,hh,NA,NA,NA,NA,NA,NA,NA,NA,NA,NA,NA,NA,NA,NA,NA,NA,NA,NA,NA,NA,NA,NA
4f2cf,"""Richtig""-Screen",canvas.Screen,1_1_4_0_1,NA,NA,skipped,NA,129046.2,NA,NA,129042,129046.3,2023-10-13T18:03:28Z,129044.425,"c(""distractor1"", ""distractor2"", ""distractor3"")",Schatten,kivuli,d,NA,NA,NA,NA,NA,NA,NA,NA,NA,NA,NA,NA,NA,NA,NA,NA,NA,NA,NA,NA,NA,NA,NA,NA,NA,NA
4f2cf,"""Falsch""-Screen",canvas.Screen,1_1_4_0_2,NA,NA,timeout,5000.905,129047.9,129028.417,129044.425,134028.633,134029.2,2023-10-13T18:03:33Z,134045.33,"c(""distractor1"", ""distractor2"", ""distractor3"")",Schatten,kivuli,d,NA,NA,NA,NA,NA,0,NA,NA,NA,NA,NA,NA,NA,NA,NA,NA,NA,NA,NA,NA,NA,NA,NA,NA,NA,NA
4f2cf,deep,flow.Sequence,1_1_4_0,NA,NA,completion,12249.538,121771.2,121762.492,121779.095,134028.633,134029.4,2023-10-13T18:03:33Z,134045.33,"c(""distractor1"", ""distractor2"", ""distractor3"")",Schatten,kivuli,d,NA,NA,NA,NA,NA,NA,NA,NA,NA,NA,NA,NA,NA,NA,NA,NA,NA,NA,NA,NA,NA,NA,NA,NA,NA,NA
4f2cf,shallow,flow.Sequence,1_1_4_1,NA,NA,skipped,NA,134029.6,NA,NA,134028.633,134029.7,2023-10-13T18:03:33Z,134045.33,"c(""distractor1"", ""distractor2"", ""distractor3"")",Schatten,kivuli,d,NA,NA,NA,NA,NA,NA,NA,NA,NA,NA,NA,NA,NA,NA,NA,NA,NA,NA,NA,NA,NA,NA,NA,NA,NA,NA
4f2cf,task,flow.Sequence,1_1_4,NA,NA,completion,12249.538,121771.1,121762.492,121779.095,134028.633,134029.8,2023-10-13T18:03:33Z,134045.33,"c(""distractor1"", ""distractor2"", ""distractor3"")",Schatten,kivuli,d,NA,NA,NA,NA,NA,NA,NA,NA,NA,NA,NA,NA,NA,NA,NA,NA,NA,NA,NA,NA,NA,NA,NA,NA,NA,NA
4f2cf,deep,flow.Sequence,1_1_5_0,NA,NA,skipped,NA,134029.9,NA,NA,134028.633,134030,2023-10-13T18:03:33Z,134045.33,"c(""distractor1"", ""distractor2"", ""distractor3"")",Kritik,lawama,s,dereva,nafasi,mawazo,NA,NA,NA,NA,NA,NA,NA,NA,NA,NA,NA,NA,NA,NA,NA,NA,NA,NA,NA,NA,NA,NA,NA
4f2cf,Shallow Question,html.Page,1_1_5_1_0,NA,NA,form submission,5242.2700000015,134030.1,134028.633,134045.33,139287.6,139287.8,2023-10-13T18:03:39Z,139302.484,"c(""distractor1"", ""distractor2"", ""distractor3"")",Kritik,lawama,s,dereva,nafasi,mawazo,lawama,NA,NA,NA,NA,NA,NA,NA,NA,NA,NA,NA,NA,NA,NA,NA,NA,NA,NA,NA,NA,NA,NA
4f2cf,"""Richtig""-Screen",canvas.Screen,1_1_5_1_1,NA,NA,timeout,4992.44,139290.7,139286.096,139302.484,144278.261,144279.3,2023-10-13T18:03:44Z,144294.924,"c(""distractor1"", ""distractor2"", ""distractor3"")",Kritik,lawama,s,dereva,nafasi,mawazo,NA,NA,1,NA,NA,NA,NA,NA,NA,NA,NA,NA,NA,NA,NA,NA,NA,NA,NA,NA,NA,NA,NA
4f2cf,"""Falsch""-Screen",canvas.Screen,1_1_5_1_2,NA,NA,skipped,NA,144282.3,NA,NA,144278.261,144282.5,2023-10-13T18:03:44Z,144294.924,"c(""distractor1"", ""distractor2"", ""distractor3"")",Kritik,lawama,s,dereva,nafasi,mawazo,NA,NA,NA,NA,NA,NA,NA,NA,NA,NA,NA,NA,NA,NA,NA,NA,NA,NA,NA,NA,NA,NA,NA
4f2cf,shallow,flow.Sequence,1_1_5_1,NA,NA,completion,10232.931,134030,134028.633,134045.33,144278.261,144282.7,2023-10-13T18:03:44Z,144294.924,"c(""distractor1"", ""distractor2"", ""distractor3"")",Kritik,lawama,s,dereva,nafasi,mawazo,NA,NA,NA,NA,NA,NA,NA,NA,NA,NA,NA,NA,NA,NA,NA,NA,NA,NA,NA,NA,NA,NA,NA
4f2cf,task,flow.Sequence,1_1_5,NA,NA,completion,10232.931,134029.9,134028.633,134045.33,144278.261,144282.9,2023-10-13T18:03:44Z,144294.924,"c(""distractor1"", ""distractor2"", ""distractor3"")",Kritik,lawama,s,dereva,nafasi,mawazo,NA,NA,NA,NA,NA,NA,NA,NA,NA,NA,NA,NA,NA,NA,NA,NA,NA,NA,NA,NA,NA,NA,NA
4f2cf,block,flow.Loop,1_1,NA,NA,completion,66316.143,77936.600000001,77934.093,77962.118,144278.261,144283.1,2023-10-13T18:03:44Z,144294.924,"c(""distractor1"", ""distractor2"", ""distractor3"")",NA,NA,NA,NA,NA,NA,NA,NA,NA,NA,NA,NA,NA,NA,NA,NA,NA,NA,NA,NA,NA,NA,NA,NA,NA,NA,NA,NA,NA
4f2cf,Practice,flow.Sequence,1,NA,NA,completion,77112.91,67151.399999999,67147.902,67165.351,144278.261,144283.2,2023-10-13T18:03:44Z,144294.924,NULL,NA,NA,NA,NA,NA,NA,NA,NA,NA,NA,NA,NA,NA,NA,NA,NA,NA,NA,NA,NA,NA,NA,NA,NA,NA,NA,NA,NA,NA
4f2cf,Experiment start,canvas.Screen,2,weiter,keypress(q),response,29313.776000003,144283.4,144278.261,144294.924,173608.7,173610,2023-10-13T18:04:13Z,173772.89,NULL,NA,NA,NA,NA,NA,NA,NA,NA,NA,NA,NA,NA,NA,NA,NA,NA,NA,NA,NA,NA,NA,NA,NA,NA,NA,NA,NA,NA,NA
4f2cf,deep,flow.Sequence,3_0_0_0_0_0,NA,NA,skipped,NA,173755.9,NA,NA,173608.7,173756.1,2023-10-13T18:04:13Z,173772.89,NULL,Konkurrent,mshindani,s,msemaji,mvutaji,kipukusa,NA,sdf,NA,0,NA,NA,NA,NA,NA,NA,NA,NA,NA,NA,NA,NA,NA,NA,NA,NA,NA,NA,NA
4f2cf,Shallow Question,html.Page,3_0_0_0_0_1_0,NA,NA,form submission,5786.7100000015,173756.1,173749.419,173772.89,179559.6,179559.9,2023-10-13T18:04:19Z,179574.883,NULL,Konkurrent,mshindani,s,msemaji,mvutaji,kipukusa,msemaji,NA,NA,0,NA,NA,NA,NA,NA,NA,NA,NA,NA,NA,NA,NA,NA,NA,NA,NA,NA,NA,NA
4f2cf,"""Richtig""-Screen",canvas.Screen,3_0_0_0_0_1_1,NA,NA,skipped,NA,179563.3,NA,NA,179559.6,179563.5,2023-10-13T18:04:19Z,179574.883,NULL,Konkurrent,mshindani,s,msemaji,mvutaji,kipukusa,NA,sdf,NA,0,NA,NA,NA,NA,NA,NA,NA,NA,NA,NA,NA,NA,NA,NA,NA,NA,NA,NA,NA
4f2cf,"""Falsch""-Screen",canvas.Screen,3_0_0_0_0_1_2,NA,NA,timeout,5008.042,179564.4,179549.798,179574.883,184566.277,184567.3,2023-10-13T18:04:24Z,184582.925,NULL,Konkurrent,mshindani,s,msemaji,mvutaji,kipukusa,NA,sdf,0,0,NA,NA,NA,NA,NA,NA,NA,NA,NA,NA,NA,NA,NA,NA,NA,NA,NA,NA,NA
4f2cf,shallow,flow.Sequence,3_0_0_0_0_1,NA,NA,completion,10793.387,173756.1,173749.419,173772.89,184566.277,184567.5,2023-10-13T18:04:24Z,184582.925,NULL,Konkurrent,mshindani,s,msemaji,mvutaji,kipukusa,NA,sdf,NA,0,NA,NA,NA,NA,NA,NA,NA,NA,NA,NA,NA,NA,NA,NA,NA,NA,NA,NA,NA
4f2cf,task,flow.Sequence,3_0_0_0_0,NA,NA,completion,10793.387,173755.9,173749.419,173772.89,184566.277,184567.6,2023-10-13T18:04:24Z,184582.925,NULL,Konkurrent,mshindani,s,msemaji,mvutaji,kipukusa,NA,sdf,NA,0,NA,NA,NA,NA,NA,NA,NA,NA,NA,NA,NA,NA,NA,NA,NA,NA,NA,NA,NA
4f2cf,Deep Question,html.Page,3_0_0_0_1_0_0,NA,NA,form submission,4545.275000003,184567.7,184566.277,184582.925,189128.2,189128.4,2023-10-13T18:04:28Z,189142.876,NULL,Symbol,kielezo,d,NA,NA,NA,kk,NA,NA,0,NA,NA,NA,NA,NA,NA,NA,NA,NA,NA,NA,NA,NA,NA,NA,NA,NA,NA,NA
4f2cf,"""Richtig""-Screen",canvas.Screen,3_0_0_0_1_0_1,NA,NA,skipped,NA,189131.5,NA,NA,189128.2,189131.6,2023-10-13T18:04:28Z,189142.876,NULL,Symbol,kielezo,d,NA,NA,NA,NA,sdf,NA,0,NA,NA,NA,NA,NA,NA,NA,NA,NA,NA,NA,NA,NA,NA,NA,NA,NA,NA,NA
4f2cf,"""Falsch""-Screen",canvas.Screen,3_0_0_0_1_0_2,NA,NA,timeout,4992.068,189133,189117.521,189142.876,194118.283,194122.7,2023-10-13T18:04:33Z,194134.944,NULL,Symbol,kielezo,d,NA,NA,NA,NA,sdf,0,0,NA,NA,NA,NA,NA,NA,NA,NA,NA,NA,NA,NA,NA,NA,NA,NA,NA,NA,NA
4f2cf,deep,flow.Sequence,3_0_0_0_1_0,NA,NA,completion,9535.358,184567.7,184566.277,184582.925,194118.283,194123,2023-10-13T18:04:33Z,194134.944,NULL,Symbol,kielezo,d,NA,NA,NA,NA,sdf,NA,0,NA,NA,NA,NA,NA,NA,NA,NA,NA,NA,NA,NA,NA,NA,NA,NA,NA,NA,NA
4f2cf,shallow,flow.Sequence,3_0_0_0_1_1,NA,NA,skipped,NA,194123.1,NA,NA,194118.283,194123.2,2023-10-13T18:04:33Z,194134.944,NULL,Symbol,kielezo,d,NA,NA,NA,NA,sdf,NA,0,NA,NA,NA,NA,NA,NA,NA,NA,NA,NA,NA,NA,NA,NA,NA,NA,NA,NA,NA
4f2cf,task,flow.Sequence,3_0_0_0_1,NA,NA,completion,9535.358,184567.7,184566.277,184582.925,194118.283,194123.3,2023-10-13T18:04:33Z,194134.944,NULL,Symbol,kielezo,d,NA,NA,NA,NA,sdf,NA,0,NA,NA,NA,NA,NA,NA,NA,NA,NA,NA,NA,NA,NA,NA,NA,NA,NA,NA,NA
4f2cf,Deep Question,html.Page,3_0_0_0_2_0_0,NA,NA,form submission,4365.556,194124.4,194118.283,194134.944,198500.5,198502,2023-10-13T18:04:38Z,198516.826,NULL,Fenster,dirisha,d,NA,NA,NA,kk,NA,NA,0,NA,NA,NA,NA,NA,NA,NA,NA,NA,NA,NA,NA,NA,NA,NA,NA,NA,NA,NA
4f2cf,"""Richtig""-Screen",canvas.Screen,3_0_0_0_2_0_1,NA,NA,skipped,NA,198512.3,NA,NA,198500.5,198512.5,2023-10-13T18:04:38Z,198516.826,NULL,Fenster,dirisha,d,NA,NA,NA,NA,sdf,NA,0,NA,NA,NA,NA,NA,NA,NA,NA,NA,NA,NA,NA,NA,NA,NA,NA,NA,NA,NA
4f2cf,"""Falsch""-Screen",canvas.Screen,3_0_0_0_2_0_2,NA,NA,timeout,4992.688,198514.6,198485.266,198516.826,203492.825,203493.4,2023-10-13T18:04:43Z,203509.514,NULL,Fenster,dirisha,d,NA,NA,NA,NA,sdf,0,0,NA,NA,NA,NA,NA,NA,NA,NA,NA,NA,NA,NA,NA,NA,NA,NA,NA,NA,NA
4f2cf,deep,flow.Sequence,3_0_0_0_2_0,NA,NA,completion,9357.881,194124.4,194118.283,194134.944,203492.825,203493.6,2023-10-13T18:04:43Z,203509.514,NULL,Fenster,dirisha,d,NA,NA,NA,NA,sdf,NA,0,NA,NA,NA,NA,NA,NA,NA,NA,NA,NA,NA,NA,NA,NA,NA,NA,NA,NA,NA
4f2cf,shallow,flow.Sequence,3_0_0_0_2_1,NA,NA,skipped,NA,203493.7,NA,NA,203492.825,203493.7,2023-10-13T18:04:43Z,203509.514,NULL,Fenster,dirisha,d,NA,NA,NA,NA,sdf,NA,0,NA,NA,NA,NA,NA,NA,NA,NA,NA,NA,NA,NA,NA,NA,NA,NA,NA,NA,NA
4f2cf,task,flow.Sequence,3_0_0_0_2,NA,NA,completion,9357.881,194124.1,194118.283,194134.944,203492.825,203493.9,2023-10-13T18:04:43Z,203509.514,NULL,Fenster,dirisha,d,NA,NA,NA,NA,sdf,NA,0,NA,NA,NA,NA,NA,NA,NA,NA,NA,NA,NA,NA,NA,NA,NA,NA,NA,NA,NA
4f2cf,Deep Question,html.Page,3_0_0_0_3_0_0,NA,NA,form submission,6372.8859999985,203494,203492.825,203509.514,209882.4,209882.7,2023-10-13T18:04:49Z,209895.804,NULL,Zuwachs,nyongeza,d,NA,NA,NA,dc,NA,NA,0,NA,NA,NA,NA,NA,NA,NA,NA,NA,NA,NA,NA,NA,NA,NA,NA,NA,NA,NA
4f2cf,"""Richtig""-Screen",canvas.Screen,3_0_0_0_3_0_1,NA,NA,skipped,NA,209895.6,NA,NA,209882.4,209895.7,2023-10-13T18:04:49Z,209895.804,NULL,Zuwachs,nyongeza,d,NA,NA,NA,NA,sdf,NA,0,NA,NA,NA,NA,NA,NA,NA,NA,NA,NA,NA,NA,NA,NA,NA,NA,NA,NA,NA
4f2cf,"""Falsch""-Screen",canvas.Screen,3_0_0_0_3_0_2,NA,NA,timeout,5003.602,209896.9,209868.099,209895.804,214882.781,214887.3,2023-10-13T18:04:54Z,214899.406,NULL,Zuwachs,nyongeza,d,NA,NA,NA,NA,sdf,0,0,NA,NA,NA,NA,NA,NA,NA,NA,NA,NA,NA,NA,NA,NA,NA,NA,NA,NA,NA
4f2cf,deep,flow.Sequence,3_0_0_0_3_0,NA,NA,completion,11373.267,203494,203492.825,203509.514,214882.781,214888,2023-10-13T18:04:54Z,214899.406,NULL,Zuwachs,nyongeza,d,NA,NA,NA,NA,sdf,NA,0,NA,NA,NA,NA,NA,NA,NA,NA,NA,NA,NA,NA,NA,NA,NA,NA,NA,NA,NA
4f2cf,shallow,flow.Sequence,3_0_0_0_3_1,NA,NA,skipped,NA,214888.2,NA,NA,214882.781,214888.4,2023-10-13T18:04:54Z,214899.406,NULL,Zuwachs,nyongeza,d,NA,NA,NA,NA,sdf,NA,0,NA,NA,NA,NA,NA,NA,NA,NA,NA,NA,NA,NA,NA,NA,NA,NA,NA,NA,NA
4f2cf,task,flow.Sequence,3_0_0_0_3,NA,NA,completion,11373.267,203493.9,203492.825,203509.514,214882.781,214889.1,2023-10-13T18:04:54Z,214899.406,NULL,Zuwachs,nyongeza,d,NA,NA,NA,NA,sdf,NA,0,NA,NA,NA,NA,NA,NA,NA,NA,NA,NA,NA,NA,NA,NA,NA,NA,NA,NA,NA
4f2cf,deep,flow.Sequence,3_0_0_0_4_0,NA,NA,skipped,NA,214889.2,NA,NA,214882.781,214889.2,2023-10-13T18:04:54Z,214899.406,NULL,Vorsorge,tahadhari,s,ufafanuzi,makini,mashambani,NA,sdf,NA,0,NA,NA,NA,NA,NA,NA,NA,NA,NA,NA,NA,NA,NA,NA,NA,NA,NA,NA,NA
4f2cf,Shallow Question,html.Page,3_0_0_0_4_1_0,NA,NA,form submission,6762.9939999985,214889.3,214882.781,214899.406,221662.4,221662.7,2023-10-13T18:05:01Z,221678.763,NULL,Vorsorge,tahadhari,s,ufafanuzi,makini,mashambani,ufafanuzi,NA,NA,0,NA,NA,NA,NA,NA,NA,NA,NA,NA,NA,NA,NA,NA,NA,NA,NA,NA,NA,NA
4f2cf,"""Richtig""-Screen",canvas.Screen,3_0_0_0_4_1_1,NA,NA,skipped,NA,221665.7,NA,NA,221662.4,221665.9,2023-10-13T18:05:01Z,221678.763,NULL,Vorsorge,tahadhari,s,ufafanuzi,makini,mashambani,NA,sdf,NA,0,NA,NA,NA,NA,NA,NA,NA,NA,NA,NA,NA,NA,NA,NA,NA,NA,NA,NA,NA
4f2cf,"""Falsch""-Screen",canvas.Screen,3_0_0_0_4_1_2,NA,NA,timeout,5006.965,221667.5,221661.761,221678.763,226666.418,226681.6,2023-10-13T18:05:06Z,226685.728,NULL,Vorsorge,tahadhari,s,ufafanuzi,makini,mashambani,NA,sdf,0,0,NA,NA,NA,NA,NA,NA,NA,NA,NA,NA,NA,NA,NA,NA,NA,NA,NA,NA,NA
4f2cf,shallow,flow.Sequence,3_0_0_0_4_1,NA,NA,completion,11767.012,214889.3,214882.781,214899.406,226666.418,226681.8,2023-10-13T18:05:06Z,226685.728,NULL,Vorsorge,tahadhari,s,ufafanuzi,makini,mashambani,NA,sdf,NA,0,NA,NA,NA,NA,NA,NA,NA,NA,NA,NA,NA,NA,NA,NA,NA,NA,NA,NA,NA
4f2cf,task,flow.Sequence,3_0_0_0_4,NA,NA,completion,11767.012,214889.2,214882.781,214899.406,226666.418,226682,2023-10-13T18:05:06Z,226685.728,NULL,Vorsorge,tahadhari,s,ufafanuzi,makini,mashambani,NA,sdf,NA,0,NA,NA,NA,NA,NA,NA,NA,NA,NA,NA,NA,NA,NA,NA,NA,NA,NA,NA,NA
4f2cf,Deep Question,html.Page,3_0_0_0_5_0_0,NA,NA,form submission,3772.8720000015,226682.2,226666.418,226685.728,230458.6,230458.9,2023-10-13T18:05:10Z,230461.831,NULL,Spionage,upelelezi,d,NA,NA,NA,sdf,NA,NA,0,NA,NA,NA,NA,NA,NA,NA,NA,NA,NA,NA,NA,NA,NA,NA,NA,NA,NA,NA
4f2cf,"""Richtig""-Screen",canvas.Screen,3_0_0_0_5_0_1,NA,NA,skipped,NA,230463.1,NA,NA,230458.6,230463.3,2023-10-13T18:05:10Z,230461.831,NULL,Spionage,upelelezi,d,NA,NA,NA,NA,sdf,NA,0,NA,NA,NA,NA,NA,NA,NA,NA,NA,NA,NA,NA,NA,NA,NA,NA,NA,NA,NA
4f2cf,"""Falsch""-Screen",canvas.Screen,3_0_0_0_5_0_2,NA,NA,timeout,4999.353,230464.7,230445.275,230461.831,235444.465,235445.4,2023-10-13T18:05:15Z,235461.184,NULL,Spionage,upelelezi,d,NA,NA,NA,NA,sdf,0,0,NA,NA,NA,NA,NA,NA,NA,NA,NA,NA,NA,NA,NA,NA,NA,NA,NA,NA,NA
4f2cf,deep,flow.Sequence,3_0_0_0_5_0,NA,NA,completion,8758.737,226682.2,226666.418,226685.728,235444.465,235445.7,2023-10-13T18:05:15Z,235461.184,NULL,Spionage,upelelezi,d,NA,NA,NA,NA,sdf,NA,0,NA,NA,NA,NA,NA,NA,NA,NA,NA,NA,NA,NA,NA,NA,NA,NA,NA,NA,NA
4f2cf,shallow,flow.Sequence,3_0_0_0_5_1,NA,NA,skipped,NA,235445.8,NA,NA,235444.465,235445.8,2023-10-13T18:05:15Z,235461.184,NULL,Spionage,upelelezi,d,NA,NA,NA,NA,sdf,NA,0,NA,NA,NA,NA,NA,NA,NA,NA,NA,NA,NA,NA,NA,NA,NA,NA,NA,NA,NA
4f2cf,task,flow.Sequence,3_0_0_0_5,NA,NA,completion,8758.737,226682.1,226666.418,226685.728,235444.465,235445.9,2023-10-13T18:05:15Z,235461.184,NULL,Spionage,upelelezi,d,NA,NA,NA,NA,sdf,NA,0,NA,NA,NA,NA,NA,NA,NA,NA,NA,NA,NA,NA,NA,NA,NA,NA,NA,NA,NA
4f2cf,deep,flow.Sequence,3_0_0_0_6_0,NA,NA,skipped,NA,235446.1,NA,NA,235444.465,235446.1,2023-10-13T18:05:15Z,235461.184,NULL,Tester,wanaojaribu,s,sherti,sihiri,mlipuko,NA,sdf,NA,0,NA,NA,NA,NA,NA,NA,NA,NA,NA,NA,NA,NA,NA,NA,NA,NA,NA,NA,NA
4f2cf,Shallow Question,html.Page,3_0_0_0_6_1_0,NA,NA,form submission,5868.6160000045,235446.2,235444.465,235461.184,241329.8,241330,2023-10-13T18:05:21Z,241346.233,NULL,Tester,wanaojaribu,s,sherti,sihiri,mlipuko,sherti,NA,NA,0,NA,NA,NA,NA,NA,NA,NA,NA,NA,NA,NA,NA,NA,NA,NA,NA,NA,NA,NA
4f2cf,"""Richtig""-Screen",canvas.Screen,3_0_0_0_6_1_1,NA,NA,skipped,NA,241333.3,NA,NA,241329.8,241333.5,2023-10-13T18:05:21Z,241346.233,NULL,Tester,wanaojaribu,s,sherti,sihiri,mlipuko,NA,sdf,NA,0,NA,NA,NA,NA,NA,NA,NA,NA,NA,NA,NA,NA,NA,NA,NA,NA,NA,NA,NA
4f2cf,"""Falsch""-Screen",canvas.Screen,3_0_0_0_6_1_2,NA,NA,timeout,5001.292,241334.5,241313.084,241346.233,246330.839,246331.7,2023-10-13T18:05:26Z,246347.525,NULL,Tester,wanaojaribu,s,sherti,sihiri,mlipuko,NA,sdf,0,0,NA,NA,NA,NA,NA,NA,NA,NA,NA,NA,NA,NA,NA,NA,NA,NA,NA,NA,NA
4f2cf,shallow,flow.Sequence,3_0_0_0_6_1,NA,NA,completion,10869.655,235446.2,235444.465,235461.184,246330.839,246331.9,2023-10-13T18:05:26Z,246347.525,NULL,Tester,wanaojaribu,s,sherti,sihiri,mlipuko,NA,sdf,NA,0,NA,NA,NA,NA,NA,NA,NA,NA,NA,NA,NA,NA,NA,NA,NA,NA,NA,NA,NA
4f2cf,task,flow.Sequence,3_0_0_0_6,NA,NA,completion,10869.655,235446.1,235444.465,235461.184,246330.839,246332,2023-10-13T18:05:26Z,246347.525,NULL,Tester,wanaojaribu,s,sherti,sihiri,mlipuko,NA,sdf,NA,0,NA,NA,NA,NA,NA,NA,NA,NA,NA,NA,NA,NA,NA,NA,NA,NA,NA,NA,NA
4f2cf,deep,flow.Sequence,3_0_0_0_7_0,NA,NA,skipped,NA,246332.1,NA,NA,246330.839,246332.2,2023-10-13T18:05:26Z,246347.525,NULL,Schüler,mwanafunzi,s,mwekezaji,matumizi,uaminifu,NA,sdf,NA,0,NA,NA,NA,NA,NA,NA,NA,NA,NA,NA,NA,NA,NA,NA,NA,NA,NA,NA,NA
4f2cf,Shallow Question,html.Page,3_0_0_0_7_1_0,NA,NA,form submission,5823.7750000045,246332.7,246330.839,246347.525,252171.3,252171.6,2023-10-13T18:05:31Z,252187.443,NULL,Schüler,mwanafunzi,s,mwekezaji,matumizi,uaminifu,mwekezaji,NA,NA,0,NA,NA,NA,NA,NA,NA,NA,NA,NA,NA,NA,NA,NA,NA,NA,NA,NA,NA,NA
4f2cf,"""Richtig""-Screen",canvas.Screen,3_0_0_0_7_1_1,NA,NA,skipped,NA,252174.5,NA,NA,252171.3,252174.7,2023-10-13T18:05:31Z,252187.443,NULL,Schüler,mwanafunzi,s,mwekezaji,matumizi,uaminifu,NA,sdf,NA,0,NA,NA,NA,NA,NA,NA,NA,NA,NA,NA,NA,NA,NA,NA,NA,NA,NA,NA,NA
4f2cf,"""Falsch""-Screen",canvas.Screen,3_0_0_0_7_1_2,NA,NA,timeout,4999.044,252176.3,252163.164,252187.443,257169.969,257171,2023-10-13T18:05:36Z,257186.487,NULL,Schüler,mwanafunzi,s,mwekezaji,matumizi,uaminifu,NA,sdf,0,0,NA,NA,NA,NA,NA,NA,NA,NA,NA,NA,NA,NA,NA,NA,NA,NA,NA,NA,NA
4f2cf,shallow,flow.Sequence,3_0_0_0_7_1,NA,NA,completion,10822.444,246332.6,246330.839,246347.525,257169.969,257171.2,2023-10-13T18:05:36Z,257186.487,NULL,Schüler,mwanafunzi,s,mwekezaji,matumizi,uaminifu,NA,sdf,NA,0,NA,NA,NA,NA,NA,NA,NA,NA,NA,NA,NA,NA,NA,NA,NA,NA,NA,NA,NA
4f2cf,task,flow.Sequence,3_0_0_0_7,NA,NA,completion,10822.444,246332.1,246330.839,246347.525,257169.969,257171.4,2023-10-13T18:05:36Z,257186.487,NULL,Schüler,mwanafunzi,s,mwekezaji,matumizi,uaminifu,NA,sdf,NA,0,NA,NA,NA,NA,NA,NA,NA,NA,NA,NA,NA,NA,NA,NA,NA,NA,NA,NA,NA
4f2cf,block,flow.Loop,3_0_0_0,NA,NA,completion,83397.079,173755.9,173749.419,173772.89,257169.969,257171.5,2023-10-13T18:05:36Z,257186.487,NULL,NA,NA,NA,NA,NA,NA,NA,sdf,NA,0,NA,NA,NA,NA,NA,NA,NA,NA,NA,NA,NA,NA,NA,NA,NA,NA,NA,NA,NA
4f2cf,weiter,canvas.Screen,3_0_0_1,sdf,keypress(Space),response,2011.6130000015,257171.6,257169.969,257186.487,259198.1,259198.8,2023-10-13T18:05:38Z,259248.624,NULL,NA,NA,NA,NA,NA,NA,NA,sdf,NA,0,NA,NA,NA,NA,NA,NA,NA,NA,NA,NA,NA,NA,NA,NA,NA,NA,NA,NA,NA
4f2cf,check continue,flow.Sequence,3_0_0,NA,NA,completion,85425.210000001,173755.9,173749.419,173772.89,259198.1,259199,2023-10-13T18:05:38Z,259248.624,NULL,NA,NA,NA,NA,NA,NA,NA,sdf,NA,0,NA,NA,NA,NA,NA,NA,NA,NA,NA,NA,NA,NA,NA,NA,NA,NA,NA,NA,NA
4f2cf,Deep Question,html.Page,3_0_1_0_0_0_0,NA,NA,form submission,6446.7759999985,259231.3,259220.006,259248.624,265695.4,265695.6,2023-10-13T18:05:45Z,265697.602,NULL,Spionage,upelelezi,d,NA,NA,NA,lkj,NA,NA,1,NA,NA,NA,NA,NA,NA,NA,NA,NA,NA,NA,NA,NA,NA,NA,NA,NA,NA,NA
4f2cf,"""Richtig""-Screen",canvas.Screen,3_0_1_0_0_0_1,NA,NA,skipped,NA,265698.4,NA,NA,265695.4,265698.5,2023-10-13T18:05:45Z,265697.602,NULL,Spionage,upelelezi,d,NA,NA,NA,NA,sdfdsf,NA,1,NA,NA,NA,NA,NA,NA,NA,NA,NA,NA,NA,NA,NA,NA,NA,NA,NA,NA,NA
4f2cf,"""Falsch""-Screen",canvas.Screen,3_0_1_0_0_0_2,NA,NA,timeout,4996.781,265699.7,265681.476,265697.602,270677.763,270678.5,2023-10-13T18:05:50Z,270694.383,NULL,Spionage,upelelezi,d,NA,NA,NA,NA,sdfdsf,0,1,NA,NA,NA,NA,NA,NA,NA,NA,NA,NA,NA,NA,NA,NA,NA,NA,NA,NA,NA
4f2cf,deep,flow.Sequence,3_0_1_0_0_0,NA,NA,completion,11429.139,259231.3,259220.006,259248.624,270677.763,270678.7,2023-10-13T18:05:50Z,270694.383,NULL,Spionage,upelelezi,d,NA,NA,NA,NA,sdfdsf,NA,1,NA,NA,NA,NA,NA,NA,NA,NA,NA,NA,NA,NA,NA,NA,NA,NA,NA,NA,NA
4f2cf,shallow,flow.Sequence,3_0_1_0_0_1,NA,NA,skipped,NA,270678.7,NA,NA,270677.763,270678.7,2023-10-13T18:05:50Z,270694.383,NULL,Spionage,upelelezi,d,NA,NA,NA,NA,sdfdsf,NA,1,NA,NA,NA,NA,NA,NA,NA,NA,NA,NA,NA,NA,NA,NA,NA,NA,NA,NA,NA
4f2cf,task,flow.Sequence,3_0_1_0_0,NA,NA,completion,11429.139,259231.3,259220.006,259248.624,270677.763,270678.8,2023-10-13T18:05:50Z,270694.383,NULL,Spionage,upelelezi,d,NA,NA,NA,NA,sdfdsf,NA,1,NA,NA,NA,NA,NA,NA,NA,NA,NA,NA,NA,NA,NA,NA,NA,NA,NA,NA,NA
4f2cf,Deep Question,html.Page,3_0_1_0_1_0_0,NA,NA,form submission,5061.0169999985,270678.9,270677.763,270694.383,275755.4,275755.7,2023-10-13T18:05:55Z,275766.342,NULL,Symbol,kielezo,d,NA,NA,NA,hj,NA,NA,1,NA,NA,NA,NA,NA,NA,NA,NA,NA,NA,NA,NA,NA,NA,NA,NA,NA,NA,NA
4f2cf,"""Richtig""-Screen",canvas.Screen,3_0_1_0_1_0_1,NA,NA,skipped,NA,275759.1,NA,NA,275755.4,275759.3,2023-10-13T18:05:55Z,275766.342,NULL,Symbol,kielezo,d,NA,NA,NA,NA,sdfdsf,NA,1,NA,NA,NA,NA,NA,NA,NA,NA,NA,NA,NA,NA,NA,NA,NA,NA,NA,NA,NA
4f2cf,"""Falsch""-Screen",canvas.Screen,3_0_1_0_1_0_2,NA,NA,timeout,5000.453,275760.4,275748.315,275766.342,280750.193,280751,2023-10-13T18:06:00Z,280766.795,NULL,Symbol,kielezo,d,NA,NA,NA,NA,sdfdsf,0,1,NA,NA,NA,NA,NA,NA,NA,NA,NA,NA,NA,NA,NA,NA,NA,NA,NA,NA,NA
4f2cf,deep,flow.Sequence,3_0_1_0_1_0,NA,NA,completion,10055.81,270678.8,270677.763,270694.383,280750.193,280751.2,2023-10-13T18:06:00Z,280766.795,NULL,Symbol,kielezo,d,NA,NA,NA,NA,sdfdsf,NA,1,NA,NA,NA,NA,NA,NA,NA,NA,NA,NA,NA,NA,NA,NA,NA,NA,NA,NA,NA
4f2cf,shallow,flow.Sequence,3_0_1_0_1_1,NA,NA,skipped,NA,280751.3,NA,NA,280750.193,280751.4,2023-10-13T18:06:00Z,280766.795,NULL,Symbol,kielezo,d,NA,NA,NA,NA,sdfdsf,NA,1,NA,NA,NA,NA,NA,NA,NA,NA,NA,NA,NA,NA,NA,NA,NA,NA,NA,NA,NA
4f2cf,task,flow.Sequence,3_0_1_0_1,NA,NA,completion,10055.81,270678.8,270677.763,270694.383,280750.193,280751.5,2023-10-13T18:06:00Z,280766.795,NULL,Symbol,kielezo,d,NA,NA,NA,NA,sdfdsf,NA,1,NA,NA,NA,NA,NA,NA,NA,NA,NA,NA,NA,NA,NA,NA,NA,NA,NA,NA,NA
4f2cf,deep,flow.Sequence,3_0_1_0_2_0,NA,NA,skipped,NA,280751.5,NA,NA,280750.193,280751.6,2023-10-13T18:06:00Z,280766.795,NULL,Vorsorge,tahadhari,s,ufafanuzi,makini,mashambani,NA,sdfdsf,NA,1,NA,NA,NA,NA,NA,NA,NA,NA,NA,NA,NA,NA,NA,NA,NA,NA,NA,NA,NA
4f2cf,Shallow Question,html.Page,3_0_1_0_2_1_0,NA,NA,form submission,4372.5050000045,280751.7,280750.193,280766.795,285139.3,285139.7,2023-10-13T18:06:04Z,285155.78,NULL,Vorsorge,tahadhari,s,ufafanuzi,makini,mashambani,makini,NA,NA,1,NA,NA,NA,NA,NA,NA,NA,NA,NA,NA,NA,NA,NA,NA,NA,NA,NA,NA,NA
4f2cf,"""Richtig""-Screen",canvas.Screen,3_0_1_0_2_1_1,NA,NA,skipped,NA,285150.7,NA,NA,285139.3,285150.9,2023-10-13T18:06:04Z,285155.78,NULL,Vorsorge,tahadhari,s,ufafanuzi,makini,mashambani,NA,sdfdsf,NA,1,NA,NA,NA,NA,NA,NA,NA,NA,NA,NA,NA,NA,NA,NA,NA,NA,NA,NA,NA
4f2cf,"""Falsch""-Screen",canvas.Screen,3_0_1_0_2_1_2,NA,NA,timeout,4996.9289999999,285152.1,285133.451,285155.78,290136.073,290137.3,2023-10-13T18:06:09Z,290152.709,NULL,Vorsorge,tahadhari,s,ufafanuzi,makini,mashambani,NA,sdfdsf,0,1,NA,NA,NA,NA,NA,NA,NA,NA,NA,NA,NA,NA,NA,NA,NA,NA,NA,NA,NA
4f2cf,shallow,flow.Sequence,3_0_1_0_2_1,NA,NA,completion,9369.278,280751.7,280750.193,280766.795,290136.073,290138.4,2023-10-13T18:06:09Z,290152.709,NULL,Vorsorge,tahadhari,s,ufafanuzi,makini,mashambani,NA,sdfdsf,NA,1,NA,NA,NA,NA,NA,NA,NA,NA,NA,NA,NA,NA,NA,NA,NA,NA,NA,NA,NA
4f2cf,task,flow.Sequence,3_0_1_0_2,NA,NA,completion,9369.278,280751.5,280750.193,280766.795,290136.073,290138.6,2023-10-13T18:06:09Z,290152.709,NULL,Vorsorge,tahadhari,s,ufafanuzi,makini,mashambani,NA,sdfdsf,NA,1,NA,NA,NA,NA,NA,NA,NA,NA,NA,NA,NA,NA,NA,NA,NA,NA,NA,NA,NA
4f2cf,deep,flow.Sequence,3_0_1_0_3_0,NA,NA,skipped,NA,290139.1,NA,NA,290136.073,290139.3,2023-10-13T18:06:09Z,290152.709,NULL,Schüler,mwanafunzi,s,mwekezaji,matumizi,uaminifu,NA,sdfdsf,NA,1,NA,NA,NA,NA,NA,NA,NA,NA,NA,NA,NA,NA,NA,NA,NA,NA,NA,NA,NA
4f2cf,Shallow Question,html.Page,3_0_1_0_3_1_0,NA,NA,form submission,5082.5910000045,290139.5,290136.073,290152.709,295235.3,295235.6,2023-10-13T18:06:14Z,295251.68,NULL,Schüler,mwanafunzi,s,mwekezaji,matumizi,uaminifu,mwanafunzi,NA,NA,1,NA,NA,NA,NA,NA,NA,NA,NA,NA,NA,NA,NA,NA,NA,NA,NA,NA,NA,NA
4f2cf,"""Richtig""-Screen",canvas.Screen,3_0_1_0_3_1_1,NA,NA,timeout,4996.883,295240.2,295219.511,295251.68,300231.857,300232.8,2023-10-13T18:06:19Z,300248.563,NULL,Schüler,mwanafunzi,s,mwekezaji,matumizi,uaminifu,NA,sdfdsf,1,1,NA,NA,NA,NA,NA,NA,NA,NA,NA,NA,NA,NA,NA,NA,NA,NA,NA,NA,NA
4f2cf,"""Falsch""-Screen",canvas.Screen,3_0_1_0_3_1_2,NA,NA,skipped,NA,300235.6,NA,NA,300231.857,300235.9,2023-10-13T18:06:19Z,300248.563,NULL,Schüler,mwanafunzi,s,mwekezaji,matumizi,uaminifu,NA,sdfdsf,NA,1,NA,NA,NA,NA,NA,NA,NA,NA,NA,NA,NA,NA,NA,NA,NA,NA,NA,NA,NA
4f2cf,shallow,flow.Sequence,3_0_1_0_3_1,NA,NA,completion,10079.148,290139.5,290136.073,290152.709,300231.857,300236.1,2023-10-13T18:06:19Z,300248.563,NULL,Schüler,mwanafunzi,s,mwekezaji,matumizi,uaminifu,NA,sdfdsf,NA,1,NA,NA,NA,NA,NA,NA,NA,NA,NA,NA,NA,NA,NA,NA,NA,NA,NA,NA,NA
4f2cf,task,flow.Sequence,3_0_1_0_3,NA,NA,completion,10079.148,290139,290136.073,290152.709,300231.857,300236.3,2023-10-13T18:06:19Z,300248.563,NULL,Schüler,mwanafunzi,s,mwekezaji,matumizi,uaminifu,NA,sdfdsf,NA,1,NA,NA,NA,NA,NA,NA,NA,NA,NA,NA,NA,NA,NA,NA,NA,NA,NA,NA,NA
4f2cf,deep,flow.Sequence,3_0_1_0_4_0,NA,NA,skipped,NA,300236.4,NA,NA,300231.857,300236.5,2023-10-13T18:06:19Z,300248.563,NULL,Konkurrent,mshindani,s,msemaji,mvutaji,kipukusa,NA,sdfdsf,NA,1,NA,NA,NA,NA,NA,NA,NA,NA,NA,NA,NA,NA,NA,NA,NA,NA,NA,NA,NA
4f2cf,Shallow Question,html.Page,3_0_1_0_4_1_0,NA,NA,form submission,11420.437,300236.6,300231.857,300248.563,311669,311669.3,2023-10-13T18:06:31Z,311685.477,NULL,Konkurrent,mshindani,s,msemaji,mvutaji,kipukusa,msemaji,NA,NA,1,NA,NA,NA,NA,NA,NA,NA,NA,NA,NA,NA,NA,NA,NA,NA,NA,NA,NA,NA
4f2cf,"""Richtig""-Screen",canvas.Screen,3_0_1_0_4_1_1,NA,NA,skipped,NA,311673.7,NA,NA,311669,311673.9,2023-10-13T18:06:31Z,311685.477,NULL,Konkurrent,mshindani,s,msemaji,mvutaji,kipukusa,NA,sdfdsf,NA,1,NA,NA,NA,NA,NA,NA,NA,NA,NA,NA,NA,NA,NA,NA,NA,NA,NA,NA,NA
4f2cf,"""Falsch""-Screen",canvas.Screen,3_0_1_0_4_1_2,NA,NA,timeout,5001.331,311676,311659.588,311685.477,316669.564,316670.4,2023-10-13T18:06:36Z,316686.808,NULL,Konkurrent,mshindani,s,msemaji,mvutaji,kipukusa,NA,sdfdsf,0,1,NA,NA,NA,NA,NA,NA,NA,NA,NA,NA,NA,NA,NA,NA,NA,NA,NA,NA,NA
4f2cf,shallow,flow.Sequence,3_0_1_0_4_1,NA,NA,completion,16421.001,300236.6,300231.857,300248.563,316669.564,316670.9,2023-10-13T18:06:36Z,316686.808,NULL,Konkurrent,mshindani,s,msemaji,mvutaji,kipukusa,NA,sdfdsf,NA,1,NA,NA,NA,NA,NA,NA,NA,NA,NA,NA,NA,NA,NA,NA,NA,NA,NA,NA,NA
4f2cf,task,flow.Sequence,3_0_1_0_4,NA,NA,completion,16421.001,300236.4,300231.857,300248.563,316669.564,316670.9,2023-10-13T18:06:36Z,316686.808,NULL,Konkurrent,mshindani,s,msemaji,mvutaji,kipukusa,NA,sdfdsf,NA,1,NA,NA,NA,NA,NA,NA,NA,NA,NA,NA,NA,NA,NA,NA,NA,NA,NA,NA,NA
4f2cf,Deep Question,html.Page,3_0_1_0_5_0_0,NA,NA,form submission,2953.7920000015,316671.3,316669.564,316686.808,319640.6,319641,2023-10-13T18:06:39Z,319671.463,NULL,Zuwachs,nyongeza,d,NA,NA,NA,k,NA,NA,1,NA,NA,NA,NA,NA,NA,NA,NA,NA,NA,NA,NA,NA,NA,NA,NA,NA,NA,NA
4f2cf,"""Richtig""-Screen",canvas.Screen,3_0_1_0_5_0_1,NA,NA,skipped,NA,319651.1,NA,NA,319640.6,319651.4,2023-10-13T18:06:39Z,319671.463,NULL,Zuwachs,nyongeza,d,NA,NA,NA,NA,sdfdsf,NA,1,NA,NA,NA,NA,NA,NA,NA,NA,NA,NA,NA,NA,NA,NA,NA,NA,NA,NA,NA
4f2cf,"""Falsch""-Screen",canvas.Screen,3_0_1_0_5_0_2,NA,NA,timeout,5000.791,319653.2,319654.691,319671.463,324655.559,324656.4,2023-10-13T18:06:44Z,324672.254,NULL,Zuwachs,nyongeza,d,NA,NA,NA,NA,sdfdsf,0,1,NA,NA,NA,NA,NA,NA,NA,NA,NA,NA,NA,NA,NA,NA,NA,NA,NA,NA,NA
4f2cf,deep,flow.Sequence,3_0_1_0_5_0,NA,NA,completion,7968.751,316671.3,316669.564,316686.808,324655.559,324656.6,2023-10-13T18:06:44Z,324672.254,NULL,Zuwachs,nyongeza,d,NA,NA,NA,NA,sdfdsf,NA,1,NA,NA,NA,NA,NA,NA,NA,NA,NA,NA,NA,NA,NA,NA,NA,NA,NA,NA,NA
4f2cf,shallow,flow.Sequence,3_0_1_0_5_1,NA,NA,skipped,NA,324656.7,NA,NA,324655.559,324656.8,2023-10-13T18:06:44Z,324672.254,NULL,Zuwachs,nyongeza,d,NA,NA,NA,NA,sdfdsf,NA,1,NA,NA,NA,NA,NA,NA,NA,NA,NA,NA,NA,NA,NA,NA,NA,NA,NA,NA,NA
4f2cf,task,flow.Sequence,3_0_1_0_5,NA,NA,completion,7968.751,316671,316669.564,316686.808,324655.559,324657,2023-10-13T18:06:44Z,324672.254,NULL,Zuwachs,nyongeza,d,NA,NA,NA,NA,sdfdsf,NA,1,NA,NA,NA,NA,NA,NA,NA,NA,NA,NA,NA,NA,NA,NA,NA,NA,NA,NA,NA
4f2cf,deep,flow.Sequence,3_0_1_0_6_0,NA,NA,skipped,NA,324657.1,NA,NA,324655.559,324657.1,2023-10-13T18:06:44Z,324672.254,NULL,Tester,wanaojaribu,s,sherti,sihiri,mlipuko,NA,sdfdsf,NA,1,NA,NA,NA,NA,NA,NA,NA,NA,NA,NA,NA,NA,NA,NA,NA,NA,NA,NA,NA
4f2cf,Shallow Question,html.Page,3_0_1_0_6_1_0,NA,NA,form submission,9060.746,324657.2,324655.559,324672.254,333733,333733.2,2023-10-13T18:06:53Z,333747.818,NULL,Tester,wanaojaribu,s,sherti,sihiri,mlipuko,wanaojaribu,NA,NA,1,NA,NA,NA,NA,NA,NA,NA,NA,NA,NA,NA,NA,NA,NA,NA,NA,NA,NA,NA
4f2cf,"""Richtig""-Screen",canvas.Screen,3_0_1_0_6_1_1,NA,NA,timeout,5000.875,333735.8,333718.411,333747.818,338732.051,338732.5,2023-10-13T18:06:58Z,338748.693,NULL,Tester,wanaojaribu,s,sherti,sihiri,mlipuko,NA,sdfdsf,1,1,NA,NA,NA,NA,NA,NA,NA,NA,NA,NA,NA,NA,NA,NA,NA,NA,NA,NA,NA
4f2cf,"""Falsch""-Screen",canvas.Screen,3_0_1_0_6_1_2,NA,NA,skipped,NA,338758.4,NA,NA,338732.051,338758.6,2023-10-13T18:06:58Z,338748.693,NULL,Tester,wanaojaribu,s,sherti,sihiri,mlipuko,NA,sdfdsf,NA,1,NA,NA,NA,NA,NA,NA,NA,NA,NA,NA,NA,NA,NA,NA,NA,NA,NA,NA,NA
4f2cf,shallow,flow.Sequence,3_0_1_0_6_1,NA,NA,completion,14059.797,324657.2,324655.559,324672.254,338732.051,338759.5,2023-10-13T18:06:58Z,338748.693,NULL,Tester,wanaojaribu,s,sherti,sihiri,mlipuko,NA,sdfdsf,NA,1,NA,NA,NA,NA,NA,NA,NA,NA,NA,NA,NA,NA,NA,NA,NA,NA,NA,NA,NA
4f2cf,task,flow.Sequence,3_0_1_0_6,NA,NA,completion,14059.797,324657,324655.559,324672.254,338732.051,338759.7,2023-10-13T18:06:58Z,338748.693,NULL,Tester,wanaojaribu,s,sherti,sihiri,mlipuko,NA,sdfdsf,NA,1,NA,NA,NA,NA,NA,NA,NA,NA,NA,NA,NA,NA,NA,NA,NA,NA,NA,NA,NA
4f2cf,Deep Question,html.Page,3_0_1_0_7_0_0,NA,NA,form submission,3241.2069999985,338760.1,338732.051,338748.693,341989.9,341990.1,2023-10-13T18:07:01Z,342006.259,NULL,Fenster,dirisha,d,NA,NA,NA,k,NA,NA,1,NA,NA,NA,NA,NA,NA,NA,NA,NA,NA,NA,NA,NA,NA,NA,NA,NA,NA,NA
4f2cf,"""Richtig""-Screen",canvas.Screen,3_0_1_0_7_0_1,NA,NA,skipped,NA,341993.1,NA,NA,341989.9,341993.3,2023-10-13T18:07:01Z,342006.259,NULL,Fenster,dirisha,d,NA,NA,NA,NA,sdfdsf,NA,1,NA,NA,NA,NA,NA,NA,NA,NA,NA,NA,NA,NA,NA,NA,NA,NA,NA,NA,NA
4f2cf,"""Falsch""-Screen",canvas.Screen,3_0_1_0_7_0_2,NA,NA,timeout,5008.182,341994.4,341986.434,342006.259,346997.743,346998.6,2023-10-13T18:07:06Z,347014.441,NULL,Fenster,dirisha,d,NA,NA,NA,NA,sdfdsf,0,1,NA,NA,NA,NA,NA,NA,NA,NA,NA,NA,NA,NA,NA,NA,NA,NA,NA,NA,NA
4f2cf,deep,flow.Sequence,3_0_1_0_7_0,NA,NA,completion,8249.05,338760,338732.051,338748.693,346997.743,346998.9,2023-10-13T18:07:06Z,347014.441,NULL,Fenster,dirisha,d,NA,NA,NA,NA,sdfdsf,NA,1,NA,NA,NA,NA,NA,NA,NA,NA,NA,NA,NA,NA,NA,NA,NA,NA,NA,NA,NA
4f2cf,shallow,flow.Sequence,3_0_1_0_7_1,NA,NA,skipped,NA,346999,NA,NA,346997.743,346999.1,2023-10-13T18:07:06Z,347014.441,NULL,Fenster,dirisha,d,NA,NA,NA,NA,sdfdsf,NA,1,NA,NA,NA,NA,NA,NA,NA,NA,NA,NA,NA,NA,NA,NA,NA,NA,NA,NA,NA
4f2cf,task,flow.Sequence,3_0_1_0_7,NA,NA,completion,8249.05,338760,338732.051,338748.693,346997.743,346999.2,2023-10-13T18:07:06Z,347014.441,NULL,Fenster,dirisha,d,NA,NA,NA,NA,sdfdsf,NA,1,NA,NA,NA,NA,NA,NA,NA,NA,NA,NA,NA,NA,NA,NA,NA,NA,NA,NA,NA
4f2cf,block,flow.Loop,3_0_1_0,NA,NA,completion,87749.119,259231.3,259220.006,259248.624,346997.743,346999.3,2023-10-13T18:07:06Z,347014.441,NULL,NA,NA,NA,NA,NA,NA,NA,sdfdsf,NA,1,NA,NA,NA,NA,NA,NA,NA,NA,NA,NA,NA,NA,NA,NA,NA,NA,NA,NA,NA
4f2cf,weiter,canvas.Screen,3_0_1_1,sdf,keypress(Space),response,1268.1590000015,346999.5,346997.743,347014.441,348282.6,348283.6,2023-10-13T18:07:08Z,348381.075,NULL,NA,NA,NA,NA,NA,NA,NA,sdfdsf,NA,1,NA,NA,NA,NA,NA,NA,NA,NA,NA,NA,NA,NA,NA,NA,NA,NA,NA,NA,NA
4f2cf,check continue,flow.Sequence,3_0_1,NA,NA,completion,89033.976000001,259231.2,259220.006,259248.624,348282.6,348283.8,2023-10-13T18:07:08Z,348381.075,NULL,NA,NA,NA,NA,NA,NA,NA,sdfdsf,NA,1,NA,NA,NA,NA,NA,NA,NA,NA,NA,NA,NA,NA,NA,NA,NA,NA,NA,NA,NA
4f2cf,deep,flow.Sequence,3_0_2_0_0_0,NA,NA,skipped,NA,348363.2,NA,NA,348282.6,348363.5,2023-10-13T18:07:08Z,348381.075,NULL,Tester,wanaojaribu,s,sherti,sihiri,mlipuko,NA,sdf,NA,2,NA,NA,NA,NA,NA,NA,NA,NA,NA,NA,NA,NA,NA,NA,NA,NA,NA,NA,NA
4f2cf,Shallow Question,html.Page,3_0_2_0_0_1_0,NA,NA,form submission,6480.8249999985,348363.8,348352.91,348381.075,354861.9,354862.2,2023-10-13T18:07:14Z,354876.519,NULL,Tester,wanaojaribu,s,sherti,sihiri,mlipuko,wanaojaribu,NA,NA,2,NA,NA,NA,NA,NA,NA,NA,NA,NA,NA,NA,NA,NA,NA,NA,NA,NA,NA,NA
4f2cf,"""Richtig""-Screen",canvas.Screen,3_0_2_0_0_1_1,NA,NA,timeout,5008.346,354865.3,354854.804,354876.519,359868.226,359871.7,2023-10-13T18:07:19Z,359884.865,NULL,Tester,wanaojaribu,s,sherti,sihiri,mlipuko,NA,sdf,1,2,NA,NA,NA,NA,NA,NA,NA,NA,NA,NA,NA,NA,NA,NA,NA,NA,NA,NA,NA
4f2cf,"""Falsch""-Screen",canvas.Screen,3_0_2_0_0_1_2,NA,NA,skipped,NA,359874.1,NA,NA,359868.226,359874.2,2023-10-13T18:07:19Z,359884.865,NULL,Tester,wanaojaribu,s,sherti,sihiri,mlipuko,NA,sdf,NA,2,NA,NA,NA,NA,NA,NA,NA,NA,NA,NA,NA,NA,NA,NA,NA,NA,NA,NA,NA
4f2cf,shallow,flow.Sequence,3_0_2_0_0_1,NA,NA,completion,11487.151,348363.7,348352.91,348381.075,359868.226,359874.4,2023-10-13T18:07:19Z,359884.865,NULL,Tester,wanaojaribu,s,sherti,sihiri,mlipuko,NA,sdf,NA,2,NA,NA,NA,NA,NA,NA,NA,NA,NA,NA,NA,NA,NA,NA,NA,NA,NA,NA,NA
4f2cf,task,flow.Sequence,3_0_2_0_0,NA,NA,completion,11487.151,348363.1,348352.91,348381.075,359868.226,359874.5,2023-10-13T18:07:19Z,359884.865,NULL,Tester,wanaojaribu,s,sherti,sihiri,mlipuko,NA,sdf,NA,2,NA,NA,NA,NA,NA,NA,NA,NA,NA,NA,NA,NA,NA,NA,NA,NA,NA,NA,NA
4f2cf,Deep Question,html.Page,3_0_2_0_1_0_0,NA,NA,form submission,3431.0349999985,359874.6,359868.226,359884.865,363315.9,363316.1,2023-10-13T18:07:23Z,363339.076,NULL,Zuwachs,nyongeza,d,NA,NA,NA,j,NA,NA,2,NA,NA,NA,NA,NA,NA,NA,NA,NA,NA,NA,NA,NA,NA,NA,NA,NA,NA,NA
4f2cf,"""Richtig""-Screen",canvas.Screen,3_0_2_0_1_0_1,NA,NA,skipped,NA,363316.8,NA,NA,363315.9,363317,2023-10-13T18:07:23Z,363339.076,NULL,Zuwachs,nyongeza,d,NA,NA,NA,NA,sdf,NA,2,NA,NA,NA,NA,NA,NA,NA,NA,NA,NA,NA,NA,NA,NA,NA,NA,NA,NA,NA
4f2cf,"""Falsch""-Screen",canvas.Screen,3_0_2_0_1_0_2,NA,NA,timeout,4995.163,363317.8,363322.424,363339.076,368317.485,368318.6,2023-10-13T18:07:28Z,368334.239,NULL,Zuwachs,nyongeza,d,NA,NA,NA,NA,sdf,0,2,NA,NA,NA,NA,NA,NA,NA,NA,NA,NA,NA,NA,NA,NA,NA,NA,NA,NA,NA
4f2cf,deep,flow.Sequence,3_0_2_0_1_0,NA,NA,completion,8432.62,359874.6,359868.226,359884.865,368317.485,368318.7,2023-10-13T18:07:28Z,368334.239,NULL,Zuwachs,nyongeza,d,NA,NA,NA,NA,sdf,NA,2,NA,NA,NA,NA,NA,NA,NA,NA,NA,NA,NA,NA,NA,NA,NA,NA,NA,NA,NA
4f2cf,shallow,flow.Sequence,3_0_2_0_1_1,NA,NA,skipped,NA,368318.7,NA,NA,368317.485,368318.9,2023-10-13T18:07:28Z,368334.239,NULL,Zuwachs,nyongeza,d,NA,NA,NA,NA,sdf,NA,2,NA,NA,NA,NA,NA,NA,NA,NA,NA,NA,NA,NA,NA,NA,NA,NA,NA,NA,NA
4f2cf,task,flow.Sequence,3_0_2_0_1,NA,NA,completion,8432.62,359874.5,359868.226,359884.865,368317.485,368318.9,2023-10-13T18:07:28Z,368334.239,NULL,Zuwachs,nyongeza,d,NA,NA,NA,NA,sdf,NA,2,NA,NA,NA,NA,NA,NA,NA,NA,NA,NA,NA,NA,NA,NA,NA,NA,NA,NA,NA
4f2cf,Deep Question,html.Page,3_0_2_0_2_0_0,NA,NA,form submission,2968.1609999985,368319,368317.485,368334.239,371302.4,371302.7,2023-10-13T18:07:31Z,371311.612,NULL,Spionage,upelelezi,d,NA,NA,NA,sd,NA,NA,2,NA,NA,NA,NA,NA,NA,NA,NA,NA,NA,NA,NA,NA,NA,NA,NA,NA,NA,NA
4f2cf,"""Richtig""-Screen",canvas.Screen,3_0_2_0_2_0_1,NA,NA,skipped,NA,371304.9,NA,NA,371302.4,371305.1,2023-10-13T18:07:31Z,371311.612,NULL,Spionage,upelelezi,d,NA,NA,NA,NA,sdf,NA,2,NA,NA,NA,NA,NA,NA,NA,NA,NA,NA,NA,NA,NA,NA,NA,NA,NA,NA,NA
4f2cf,"""Falsch""-Screen",canvas.Screen,3_0_2_0_2_0_2,NA,NA,timeout,4999.952,371305.5,371296.091,371311.612,376294.869,376298.5,2023-10-13T18:07:36Z,376311.564,NULL,Spionage,upelelezi,d,NA,NA,NA,NA,sdf,0,2,NA,NA,NA,NA,NA,NA,NA,NA,NA,NA,NA,NA,NA,NA,NA,NA,NA,NA,NA
4f2cf,deep,flow.Sequence,3_0_2_0_2_0,NA,NA,completion,7960.63,368319,368317.485,368334.239,376294.869,376298.7,2023-10-13T18:07:36Z,376311.564,NULL,Spionage,upelelezi,d,NA,NA,NA,NA,sdf,NA,2,NA,NA,NA,NA,NA,NA,NA,NA,NA,NA,NA,NA,NA,NA,NA,NA,NA,NA,NA
4f2cf,shallow,flow.Sequence,3_0_2_0_2_1,NA,NA,skipped,NA,376298.8,NA,NA,376294.869,376298.9,2023-10-13T18:07:36Z,376311.564,NULL,Spionage,upelelezi,d,NA,NA,NA,NA,sdf,NA,2,NA,NA,NA,NA,NA,NA,NA,NA,NA,NA,NA,NA,NA,NA,NA,NA,NA,NA,NA
4f2cf,task,flow.Sequence,3_0_2_0_2,NA,NA,completion,7960.63,368319,368317.485,368334.239,376294.869,376299,2023-10-13T18:07:36Z,376311.564,NULL,Spionage,upelelezi,d,NA,NA,NA,NA,sdf,NA,2,NA,NA,NA,NA,NA,NA,NA,NA,NA,NA,NA,NA,NA,NA,NA,NA,NA,NA,NA
4f2cf,Deep Question,html.Page,3_0_2_0_3_0_0,NA,NA,form submission,5690.0360000015,376299.2,376294.869,376311.564,382001.6,382001.9,2023-10-13T18:07:41Z,382006.29,NULL,Symbol,kielezo,d,NA,NA,NA,lk,NA,NA,2,NA,NA,NA,NA,NA,NA,NA,NA,NA,NA,NA,NA,NA,NA,NA,NA,NA,NA,NA
4f2cf,"""Richtig""-Screen",canvas.Screen,3_0_2_0_3_0_1,NA,NA,skipped,NA,382004.8,NA,NA,382001.6,382005,2023-10-13T18:07:41Z,382006.29,NULL,Symbol,kielezo,d,NA,NA,NA,NA,sdf,NA,2,NA,NA,NA,NA,NA,NA,NA,NA,NA,NA,NA,NA,NA,NA,NA,NA,NA,NA,NA
4f2cf,"""Falsch""-Screen",canvas.Screen,3_0_2_0_3_0_2,NA,NA,timeout,4992.381,382006.1,381989.552,382006.29,386982.042,386982.7,2023-10-13T18:07:46Z,386998.671,NULL,Symbol,kielezo,d,NA,NA,NA,NA,sdf,0,2,NA,NA,NA,NA,NA,NA,NA,NA,NA,NA,NA,NA,NA,NA,NA,NA,NA,NA,NA
4f2cf,deep,flow.Sequence,3_0_2_0_3_0,NA,NA,completion,10670.478,376299.2,376294.869,376311.564,386982.042,386982.9,2023-10-13T18:07:46Z,386998.671,NULL,Symbol,kielezo,d,NA,NA,NA,NA,sdf,NA,2,NA,NA,NA,NA,NA,NA,NA,NA,NA,NA,NA,NA,NA,NA,NA,NA,NA,NA,NA
4f2cf,shallow,flow.Sequence,3_0_2_0_3_1,NA,NA,skipped,NA,386983,NA,NA,386982.042,386983.1,2023-10-13T18:07:46Z,386998.671,NULL,Symbol,kielezo,d,NA,NA,NA,NA,sdf,NA,2,NA,NA,NA,NA,NA,NA,NA,NA,NA,NA,NA,NA,NA,NA,NA,NA,NA,NA,NA
4f2cf,task,flow.Sequence,3_0_2_0_3,NA,NA,completion,10670.478,376299.1,376294.869,376311.564,386982.042,386983.2,2023-10-13T18:07:46Z,386998.671,NULL,Symbol,kielezo,d,NA,NA,NA,NA,sdf,NA,2,NA,NA,NA,NA,NA,NA,NA,NA,NA,NA,NA,NA,NA,NA,NA,NA,NA,NA,NA
4f2cf,deep,flow.Sequence,3_0_2_0_4_0,NA,NA,skipped,NA,386983.3,NA,NA,386982.042,386983.4,2023-10-13T18:07:46Z,386998.671,NULL,Schüler,mwanafunzi,s,mwekezaji,matumizi,uaminifu,NA,sdf,NA,2,NA,NA,NA,NA,NA,NA,NA,NA,NA,NA,NA,NA,NA,NA,NA,NA,NA,NA,NA
4f2cf,Shallow Question,html.Page,3_0_2_0_4_1_0,NA,NA,form submission,4669.7289999985,386983.5,386982.042,386998.671,391668.4,391668.6,2023-10-13T18:07:51Z,391680.594,NULL,Schüler,mwanafunzi,s,mwekezaji,matumizi,uaminifu,mwanafunzi,NA,NA,2,NA,NA,NA,NA,NA,NA,NA,NA,NA,NA,NA,NA,NA,NA,NA,NA,NA,NA,NA
4f2cf,"""Richtig""-Screen",canvas.Screen,3_0_2_0_4_1_1,NA,NA,timeout,5003.962,391671.2,391655.474,391680.594,396667.982,396672.9,2023-10-13T18:07:56Z,396684.556,NULL,Schüler,mwanafunzi,s,mwekezaji,matumizi,uaminifu,NA,sdf,1,2,NA,NA,NA,NA,NA,NA,NA,NA,NA,NA,NA,NA,NA,NA,NA,NA,NA,NA,NA
4f2cf,"""Falsch""-Screen",canvas.Screen,3_0_2_0_4_1_2,NA,NA,skipped,NA,396675.6,NA,NA,396667.982,396675.8,2023-10-13T18:07:56Z,396684.556,NULL,Schüler,mwanafunzi,s,mwekezaji,matumizi,uaminifu,NA,sdf,NA,2,NA,NA,NA,NA,NA,NA,NA,NA,NA,NA,NA,NA,NA,NA,NA,NA,NA,NA,NA
4f2cf,shallow,flow.Sequence,3_0_2_0_4_1,NA,NA,completion,9669.311,386983.5,386982.042,386998.671,396667.982,396675.9,2023-10-13T18:07:56Z,396684.556,NULL,Schüler,mwanafunzi,s,mwekezaji,matumizi,uaminifu,NA,sdf,NA,2,NA,NA,NA,NA,NA,NA,NA,NA,NA,NA,NA,NA,NA,NA,NA,NA,NA,NA,NA
4f2cf,task,flow.Sequence,3_0_2_0_4,NA,NA,completion,9669.311,386983.3,386982.042,386998.671,396667.982,396676.1,2023-10-13T18:07:56Z,396684.556,NULL,Schüler,mwanafunzi,s,mwekezaji,matumizi,uaminifu,NA,sdf,NA,2,NA,NA,NA,NA,NA,NA,NA,NA,NA,NA,NA,NA,NA,NA,NA,NA,NA,NA,NA
4f2cf,deep,flow.Sequence,3_0_2_0_5_0,NA,NA,skipped,NA,396676.2,NA,NA,396667.982,396676.3,2023-10-13T18:07:56Z,396684.556,NULL,Konkurrent,mshindani,s,msemaji,mvutaji,kipukusa,NA,sdf,NA,2,NA,NA,NA,NA,NA,NA,NA,NA,NA,NA,NA,NA,NA,NA,NA,NA,NA,NA,NA
4f2cf,Shallow Question,html.Page,3_0_2_0_5_1_0,NA,NA,form submission,13277.444,396676.4,396667.982,396684.556,409962,409962.2,2023-10-13T18:08:09Z,409975.652,NULL,Konkurrent,mshindani,s,msemaji,mvutaji,kipukusa,msemaji,NA,NA,2,NA,NA,NA,NA,NA,NA,NA,NA,NA,NA,NA,NA,NA,NA,NA,NA,NA,NA,NA
4f2cf,"""Richtig""-Screen",canvas.Screen,3_0_2_0_5_1_1,NA,NA,skipped,NA,409975.8,NA,NA,409962,409976.1,2023-10-13T18:08:09Z,409975.652,NULL,Konkurrent,mshindani,s,msemaji,mvutaji,kipukusa,NA,sdf,NA,2,NA,NA,NA,NA,NA,NA,NA,NA,NA,NA,NA,NA,NA,NA,NA,NA,NA,NA,NA
4f2cf,"""Falsch""-Screen",canvas.Screen,3_0_2_0_5_1_2,NA,NA,timeout,4994.929,409976.7,409958.381,409975.652,414953.897,414954.7,2023-10-13T18:08:14Z,414970.581,NULL,Konkurrent,mshindani,s,msemaji,mvutaji,kipukusa,NA,sdf,0,2,NA,NA,NA,NA,NA,NA,NA,NA,NA,NA,NA,NA,NA,NA,NA,NA,NA,NA,NA
4f2cf,shallow,flow.Sequence,3_0_2_0_5_1,NA,NA,completion,18269.341,396676.4,396667.982,396684.556,414953.897,414954.8,2023-10-13T18:08:14Z,414970.581,NULL,Konkurrent,mshindani,s,msemaji,mvutaji,kipukusa,NA,sdf,NA,2,NA,NA,NA,NA,NA,NA,NA,NA,NA,NA,NA,NA,NA,NA,NA,NA,NA,NA,NA
4f2cf,task,flow.Sequence,3_0_2_0_5,NA,NA,completion,18269.341,396676.1,396667.982,396684.556,414953.897,414955,2023-10-13T18:08:14Z,414970.581,NULL,Konkurrent,mshindani,s,msemaji,mvutaji,kipukusa,NA,sdf,NA,2,NA,NA,NA,NA,NA,NA,NA,NA,NA,NA,NA,NA,NA,NA,NA,NA,NA,NA,NA
4f2cf,deep,flow.Sequence,3_0_2_0_6_0,NA,NA,skipped,NA,414955.1,NA,NA,414953.897,414955.1,2023-10-13T18:08:14Z,414970.581,NULL,Vorsorge,tahadhari,s,ufafanuzi,makini,mashambani,NA,sdf,NA,2,NA,NA,NA,NA,NA,NA,NA,NA,NA,NA,NA,NA,NA,NA,NA,NA,NA,NA,NA
4f2cf,Shallow Question,html.Page,3_0_2_0_6_1_0,NA,NA,form submission,9101.0190000015,414955.1,414953.897,414970.581,424071.6,424071.8,2023-10-13T18:08:23Z,424087.878,NULL,Vorsorge,tahadhari,s,ufafanuzi,makini,mashambani,tahadhari,NA,NA,2,NA,NA,NA,NA,NA,NA,NA,NA,NA,NA,NA,NA,NA,NA,NA,NA,NA,NA,NA
4f2cf,"""Richtig""-Screen",canvas.Screen,3_0_2_0_6_1_1,NA,NA,timeout,4996.103,424075,424055.476,424087.878,429067.428,429068.3,2023-10-13T18:08:28Z,429083.981,NULL,Vorsorge,tahadhari,s,ufafanuzi,makini,mashambani,NA,sdf,1,2,NA,NA,NA,NA,NA,NA,NA,NA,NA,NA,NA,NA,NA,NA,NA,NA,NA,NA,NA
4f2cf,"""Falsch""-Screen",canvas.Screen,3_0_2_0_6_1_2,NA,NA,skipped,NA,429077.9,NA,NA,429067.428,429078.4,2023-10-13T18:08:28Z,429083.981,NULL,Vorsorge,tahadhari,s,ufafanuzi,makini,mashambani,NA,sdf,NA,2,NA,NA,NA,NA,NA,NA,NA,NA,NA,NA,NA,NA,NA,NA,NA,NA,NA,NA,NA
4f2cf,shallow,flow.Sequence,3_0_2_0_6_1,NA,NA,completion,14096.847,414955.1,414953.897,414970.581,429067.428,429078.9,2023-10-13T18:08:28Z,429083.981,NULL,Vorsorge,tahadhari,s,ufafanuzi,makini,mashambani,NA,sdf,NA,2,NA,NA,NA,NA,NA,NA,NA,NA,NA,NA,NA,NA,NA,NA,NA,NA,NA,NA,NA
4f2cf,task,flow.Sequence,3_0_2_0_6,NA,NA,completion,14096.847,414955,414953.897,414970.581,429067.428,429079.4,2023-10-13T18:08:28Z,429083.981,NULL,Vorsorge,tahadhari,s,ufafanuzi,makini,mashambani,NA,sdf,NA,2,NA,NA,NA,NA,NA,NA,NA,NA,NA,NA,NA,NA,NA,NA,NA,NA,NA,NA,NA
4f2cf,Deep Question,html.Page,3_0_2_0_7_0_0,NA,NA,form submission,3444.719000003,429079.9,429067.428,429083.981,432528.7,432529.1,2023-10-13T18:08:32Z,432534.366,NULL,Fenster,dirisha,d,NA,NA,NA,k,NA,NA,2,NA,NA,NA,NA,NA,NA,NA,NA,NA,NA,NA,NA,NA,NA,NA,NA,NA,NA,NA
4f2cf,"""Richtig""-Screen",canvas.Screen,3_0_2_0_7_0_1,NA,NA,skipped,NA,432539.4,NA,NA,432528.7,432539.7,2023-10-13T18:08:32Z,432534.366,NULL,Fenster,dirisha,d,NA,NA,NA,NA,sdf,NA,2,NA,NA,NA,NA,NA,NA,NA,NA,NA,NA,NA,NA,NA,NA,NA,NA,NA,NA,NA
4f2cf,"""Falsch""-Screen",canvas.Screen,3_0_2_0_7_0_2,NA,NA,timeout,4996.404,432541.6,432518.015,432534.366,437513.864,437517.7,2023-10-13T18:08:37Z,437530.77,NULL,Fenster,dirisha,d,NA,NA,NA,NA,sdf,0,2,NA,NA,NA,NA,NA,NA,NA,NA,NA,NA,NA,NA,NA,NA,NA,NA,NA,NA,NA
4f2cf,deep,flow.Sequence,3_0_2_0_7_0,NA,NA,completion,8429.883,429079.7,429067.428,429083.981,437513.864,437518.9,2023-10-13T18:08:37Z,437530.77,NULL,Fenster,dirisha,d,NA,NA,NA,NA,sdf,NA,2,NA,NA,NA,NA,NA,NA,NA,NA,NA,NA,NA,NA,NA,NA,NA,NA,NA,NA,NA
4f2cf,shallow,flow.Sequence,3_0_2_0_7_1,NA,NA,skipped,NA,437519,NA,NA,437513.864,437519.2,2023-10-13T18:08:37Z,437530.77,NULL,Fenster,dirisha,d,NA,NA,NA,NA,sdf,NA,2,NA,NA,NA,NA,NA,NA,NA,NA,NA,NA,NA,NA,NA,NA,NA,NA,NA,NA,NA
4f2cf,task,flow.Sequence,3_0_2_0_7,NA,NA,completion,8429.883,429079.7,429067.428,429083.981,437513.864,437519.4,2023-10-13T18:08:37Z,437530.77,NULL,Fenster,dirisha,d,NA,NA,NA,NA,sdf,NA,2,NA,NA,NA,NA,NA,NA,NA,NA,NA,NA,NA,NA,NA,NA,NA,NA,NA,NA,NA
4f2cf,block,flow.Loop,3_0_2_0,NA,NA,completion,89132.789,348363,348352.91,348381.075,437513.864,437519.9,2023-10-13T18:08:37Z,437530.77,NULL,NA,NA,NA,NA,NA,NA,NA,sdf,NA,2,NA,NA,NA,NA,NA,NA,NA,NA,NA,NA,NA,NA,NA,NA,NA,NA,NA,NA,NA
4f2cf,weiter,canvas.Screen,3_0_2_1,sdf,keypress(Space),response,1195.0300000045,437520.1,437513.864,437530.77,438725.8,438726.5,2023-10-13T18:08:38Z,438810.369,NULL,NA,NA,NA,NA,NA,NA,NA,sdf,NA,2,NA,NA,NA,NA,NA,NA,NA,NA,NA,NA,NA,NA,NA,NA,NA,NA,NA,NA,NA
4f2cf,check continue,flow.Sequence,3_0_2,NA,NA,completion,90344.725000004,348362.9,348352.91,348381.075,438725.8,438726.6,2023-10-13T18:08:38Z,438810.369,NULL,NA,NA,NA,NA,NA,NA,NA,sdf,NA,2,NA,NA,NA,NA,NA,NA,NA,NA,NA,NA,NA,NA,NA,NA,NA,NA,NA,NA,NA
4f2cf,Deep Question,html.Page,3_0_3_0_0_0_0,NA,NA,form submission,2974.0309999985,438793,438784.35,438810.369,441784.4,441784.7,2023-10-13T18:08:41Z,441793.3,NULL,Zuwachs,nyongeza,d,NA,NA,NA,k,NA,NA,3,NA,NA,NA,NA,NA,NA,NA,NA,NA,NA,NA,NA,NA,NA,NA,NA,NA,NA,NA
4f2cf,"""Richtig""-Screen",canvas.Screen,3_0_3_0_0_0_1,NA,NA,skipped,NA,441785.9,NA,NA,441784.4,441786.1,2023-10-13T18:08:41Z,441793.3,NULL,Zuwachs,nyongeza,d,NA,NA,NA,NA,qt,NA,3,NA,NA,NA,NA,NA,NA,NA,NA,NA,NA,NA,NA,NA,NA,NA,NA,NA,NA,NA
4f2cf,"""Falsch""-Screen",canvas.Screen,3_0_3_0_0_0_2,NA,NA,timeout,5001.338,441787,441777.805,441793.3,446778.017,446783.6,2023-10-13T18:08:46Z,446794.638,NULL,Zuwachs,nyongeza,d,NA,NA,NA,NA,qt,0,3,NA,NA,NA,NA,NA,NA,NA,NA,NA,NA,NA,NA,NA,NA,NA,NA,NA,NA,NA
4f2cf,deep,flow.Sequence,3_0_3_0_0_0,NA,NA,completion,7967.648,438793,438784.35,438810.369,446778.017,446783.7,2023-10-13T18:08:46Z,446794.638,NULL,Zuwachs,nyongeza,d,NA,NA,NA,NA,qt,NA,3,NA,NA,NA,NA,NA,NA,NA,NA,NA,NA,NA,NA,NA,NA,NA,NA,NA,NA,NA
4f2cf,shallow,flow.Sequence,3_0_3_0_0_1,NA,NA,skipped,NA,446783.9,NA,NA,446778.017,446783.9,2023-10-13T18:08:46Z,446794.638,NULL,Zuwachs,nyongeza,d,NA,NA,NA,NA,qt,NA,3,NA,NA,NA,NA,NA,NA,NA,NA,NA,NA,NA,NA,NA,NA,NA,NA,NA,NA,NA
4f2cf,task,flow.Sequence,3_0_3_0_0,NA,NA,completion,7967.648,438793,438784.35,438810.369,446778.017,446784.1,2023-10-13T18:08:46Z,446794.638,NULL,Zuwachs,nyongeza,d,NA,NA,NA,NA,qt,NA,3,NA,NA,NA,NA,NA,NA,NA,NA,NA,NA,NA,NA,NA,NA,NA,NA,NA,NA,NA
4f2cf,deep,flow.Sequence,3_0_3_0_1_0,NA,NA,skipped,NA,446784.2,NA,NA,446778.017,446784.2,2023-10-13T18:08:46Z,446794.638,NULL,Tester,wanaojaribu,s,sherti,sihiri,mlipuko,NA,qt,NA,3,NA,NA,NA,NA,NA,NA,NA,NA,NA,NA,NA,NA,NA,NA,NA,NA,NA,NA,NA
4f2cf,Shallow Question,html.Page,3_0_3_0_1_1_0,NA,NA,form submission,5196.062000003,446784.3,446778.017,446794.638,451990.7,451990.9,2023-10-13T18:08:51Z,452005.729,NULL,Tester,wanaojaribu,s,sherti,sihiri,mlipuko,wanaojaribu,NA,NA,3,NA,NA,NA,NA,NA,NA,NA,NA,NA,NA,NA,NA,NA,NA,NA,NA,NA,NA,NA
4f2cf,"""Richtig""-Screen",canvas.Screen,3_0_3_0_1_1_1,NA,NA,timeout,5007.936,451993.6,451985.507,452005.729,456996.979,456998.5,2023-10-13T18:08:56Z,457013.665,NULL,Tester,wanaojaribu,s,sherti,sihiri,mlipuko,NA,qt,1,3,NA,NA,NA,NA,NA,NA,NA,NA,NA,NA,NA,NA,NA,NA,NA,NA,NA,NA,NA
4f2cf,"""Falsch""-Screen",canvas.Screen,3_0_3_0_1_1_2,NA,NA,skipped,NA,457012.4,NA,NA,456996.979,457012.6,2023-10-13T18:08:56Z,457013.665,NULL,Tester,wanaojaribu,s,sherti,sihiri,mlipuko,NA,qt,NA,3,NA,NA,NA,NA,NA,NA,NA,NA,NA,NA,NA,NA,NA,NA,NA,NA,NA,NA,NA
4f2cf,shallow,flow.Sequence,3_0_3_0_1_1,NA,NA,completion,10202.341,446784.3,446778.017,446794.638,456996.979,457012.9,2023-10-13T18:08:56Z,457013.665,NULL,Tester,wanaojaribu,s,sherti,sihiri,mlipuko,NA,qt,NA,3,NA,NA,NA,NA,NA,NA,NA,NA,NA,NA,NA,NA,NA,NA,NA,NA,NA,NA,NA
4f2cf,task,flow.Sequence,3_0_3_0_1,NA,NA,completion,10202.341,446784.1,446778.017,446794.638,456996.979,457013.1,2023-10-13T18:08:56Z,457013.665,NULL,Tester,wanaojaribu,s,sherti,sihiri,mlipuko,NA,qt,NA,3,NA,NA,NA,NA,NA,NA,NA,NA,NA,NA,NA,NA,NA,NA,NA,NA,NA,NA,NA
4f2cf,deep,flow.Sequence,3_0_3_0_2_0,NA,NA,skipped,NA,457013.3,NA,NA,456996.979,457013.4,2023-10-13T18:08:56Z,457013.665,NULL,Vorsorge,tahadhari,s,ufafanuzi,makini,mashambani,NA,qt,NA,3,NA,NA,NA,NA,NA,NA,NA,NA,NA,NA,NA,NA,NA,NA,NA,NA,NA,NA,NA
4f2cf,Shallow Question,html.Page,3_0_3_0_2_1_0,NA,NA,form submission,8961.7349999985,457013.6,456996.979,457013.665,465975.4,465975.8,2023-10-13T18:09:05Z,465990.707,NULL,Vorsorge,tahadhari,s,ufafanuzi,makini,mashambani,tahadhari,NA,NA,3,NA,NA,NA,NA,NA,NA,NA,NA,NA,NA,NA,NA,NA,NA,NA,NA,NA,NA,NA
4f2cf,"""Richtig""-Screen",canvas.Screen,3_0_3_0_2_1_1,NA,NA,timeout,4999.992,465978.6,465962.377,465990.707,470973.958,470978.9,2023-10-13T18:09:10Z,470990.699,NULL,Vorsorge,tahadhari,s,ufafanuzi,makini,mashambani,NA,qt,1,3,NA,NA,NA,NA,NA,NA,NA,NA,NA,NA,NA,NA,NA,NA,NA,NA,NA,NA,NA
4f2cf,"""Falsch""-Screen",canvas.Screen,3_0_3_0_2_1_2,NA,NA,skipped,NA,470992.6,NA,NA,470973.958,470992.9,2023-10-13T18:09:10Z,470990.699,NULL,Vorsorge,tahadhari,s,ufafanuzi,makini,mashambani,NA,qt,NA,3,NA,NA,NA,NA,NA,NA,NA,NA,NA,NA,NA,NA,NA,NA,NA,NA,NA,NA,NA
4f2cf,shallow,flow.Sequence,3_0_3_0_2_1,NA,NA,completion,13960.293,457013.6,456996.979,457013.665,470973.958,470993.1,2023-10-13T18:09:10Z,470990.699,NULL,Vorsorge,tahadhari,s,ufafanuzi,makini,mashambani,NA,qt,NA,3,NA,NA,NA,NA,NA,NA,NA,NA,NA,NA,NA,NA,NA,NA,NA,NA,NA,NA,NA
4f2cf,task,flow.Sequence,3_0_3_0_2,NA,NA,completion,13960.293,457013.3,456996.979,457013.665,470973.958,470993.4,2023-10-13T18:09:10Z,470990.699,NULL,Vorsorge,tahadhari,s,ufafanuzi,makini,mashambani,NA,qt,NA,3,NA,NA,NA,NA,NA,NA,NA,NA,NA,NA,NA,NA,NA,NA,NA,NA,NA,NA,NA
4f2cf,Deep Question,html.Page,3_0_3_0_3_0_0,NA,NA,form submission,3542.801,470993.7,470973.958,470990.699,474533.5,474533.8,2023-10-13T18:09:14Z,474550.042,NULL,Symbol,kielezo,d,NA,NA,NA,j,NA,NA,3,NA,NA,NA,NA,NA,NA,NA,NA,NA,NA,NA,NA,NA,NA,NA,NA,NA,NA,NA
4f2cf,"""Richtig""-Screen",canvas.Screen,3_0_3_0_3_0_1,NA,NA,skipped,NA,474543.2,NA,NA,474533.5,474543.3,2023-10-13T18:09:14Z,474550.042,NULL,Symbol,kielezo,d,NA,NA,NA,NA,qt,NA,3,NA,NA,NA,NA,NA,NA,NA,NA,NA,NA,NA,NA,NA,NA,NA,NA,NA,NA,NA
4f2cf,"""Falsch""-Screen",canvas.Screen,3_0_3_0_3_0_2,NA,NA,timeout,5001.543,474543.8,474530.917,474550.042,479534.835,479535.8,2023-10-13T18:09:19Z,479551.585,NULL,Symbol,kielezo,d,NA,NA,NA,NA,qt,0,3,NA,NA,NA,NA,NA,NA,NA,NA,NA,NA,NA,NA,NA,NA,NA,NA,NA,NA,NA
4f2cf,deep,flow.Sequence,3_0_3_0_3_0,NA,NA,completion,8544.136,470993.6,470973.958,470990.699,479534.835,479536,2023-10-13T18:09:19Z,479551.585,NULL,Symbol,kielezo,d,NA,NA,NA,NA,qt,NA,3,NA,NA,NA,NA,NA,NA,NA,NA,NA,NA,NA,NA,NA,NA,NA,NA,NA,NA,NA
4f2cf,shallow,flow.Sequence,3_0_3_0_3_1,NA,NA,skipped,NA,479536,NA,NA,479534.835,479536.1,2023-10-13T18:09:19Z,479551.585,NULL,Symbol,kielezo,d,NA,NA,NA,NA,qt,NA,3,NA,NA,NA,NA,NA,NA,NA,NA,NA,NA,NA,NA,NA,NA,NA,NA,NA,NA,NA
4f2cf,task,flow.Sequence,3_0_3_0_3,NA,NA,completion,8544.136,470993.6,470973.958,470990.699,479534.835,479536.2,2023-10-13T18:09:19Z,479551.585,NULL,Symbol,kielezo,d,NA,NA,NA,NA,qt,NA,3,NA,NA,NA,NA,NA,NA,NA,NA,NA,NA,NA,NA,NA,NA,NA,NA,NA,NA,NA
4f2cf,deep,flow.Sequence,3_0_3_0_4_0,NA,NA,skipped,NA,479536.3,NA,NA,479534.835,479536.3,2023-10-13T18:09:19Z,479551.585,NULL,Schüler,mwanafunzi,s,mwekezaji,matumizi,uaminifu,NA,qt,NA,3,NA,NA,NA,NA,NA,NA,NA,NA,NA,NA,NA,NA,NA,NA,NA,NA,NA,NA,NA
4f2cf,Shallow Question,html.Page,3_0_3_0_4_1_0,NA,NA,form submission,4051.415,479536.3,479534.835,479551.585,483603,483603.2,2023-10-13T18:09:23Z,483618.177,NULL,Schüler,mwanafunzi,s,mwekezaji,matumizi,uaminifu,mwanafunzi,NA,NA,3,NA,NA,NA,NA,NA,NA,NA,NA,NA,NA,NA,NA,NA,NA,NA,NA,NA,NA,NA
4f2cf,"""Richtig""-Screen",canvas.Screen,3_0_3_0_4_1_1,NA,NA,timeout,4994.4829999999,483605.8,483588.107,483618.177,488595.389,488602.3,2023-10-13T18:09:28Z,488612.66,NULL,Schüler,mwanafunzi,s,mwekezaji,matumizi,uaminifu,NA,qt,1,3,NA,NA,NA,NA,NA,NA,NA,NA,NA,NA,NA,NA,NA,NA,NA,NA,NA,NA,NA
4f2cf,"""Falsch""-Screen",canvas.Screen,3_0_3_0_4_1_2,NA,NA,skipped,NA,488605.5,NA,NA,488595.389,488605.6,2023-10-13T18:09:28Z,488612.66,NULL,Schüler,mwanafunzi,s,mwekezaji,matumizi,uaminifu,NA,qt,NA,3,NA,NA,NA,NA,NA,NA,NA,NA,NA,NA,NA,NA,NA,NA,NA,NA,NA,NA,NA
4f2cf,shallow,flow.Sequence,3_0_3_0_4_1,NA,NA,completion,9043.804,479536.3,479534.835,479551.585,488595.389,488605.8,2023-10-13T18:09:28Z,488612.66,NULL,Schüler,mwanafunzi,s,mwekezaji,matumizi,uaminifu,NA,qt,NA,3,NA,NA,NA,NA,NA,NA,NA,NA,NA,NA,NA,NA,NA,NA,NA,NA,NA,NA,NA
4f2cf,task,flow.Sequence,3_0_3_0_4,NA,NA,completion,9043.804,479536.2,479534.835,479551.585,488595.389,488605.9,2023-10-13T18:09:28Z,488612.66,NULL,Schüler,mwanafunzi,s,mwekezaji,matumizi,uaminifu,NA,qt,NA,3,NA,NA,NA,NA,NA,NA,NA,NA,NA,NA,NA,NA,NA,NA,NA,NA,NA,NA,NA
4f2cf,Deep Question,html.Page,3_0_3_0_5_0_0,NA,NA,form submission,3567.34,488606.4,488595.389,488612.66,492180,492180.2,2023-10-13T18:09:31Z,492196.562,NULL,Spionage,upelelezi,d,NA,NA,NA,l,NA,NA,3,NA,NA,NA,NA,NA,NA,NA,NA,NA,NA,NA,NA,NA,NA,NA,NA,NA,NA,NA
4f2cf,"""Richtig""-Screen",canvas.Screen,3_0_3_0_5_0_1,NA,NA,skipped,NA,492183,NA,NA,492180,492183.3,2023-10-13T18:09:31Z,492196.562,NULL,Spionage,upelelezi,d,NA,NA,NA,NA,qt,NA,3,NA,NA,NA,NA,NA,NA,NA,NA,NA,NA,NA,NA,NA,NA,NA,NA,NA,NA,NA
4f2cf,"""Falsch""-Screen",canvas.Screen,3_0_3_0_5_0_2,NA,NA,timeout,4997.901,492184.2,492163.621,492196.562,497177.718,497178.4,2023-10-13T18:09:36Z,497194.463,NULL,Spionage,upelelezi,d,NA,NA,NA,NA,qt,0,3,NA,NA,NA,NA,NA,NA,NA,NA,NA,NA,NA,NA,NA,NA,NA,NA,NA,NA,NA
4f2cf,deep,flow.Sequence,3_0_3_0_5_0,NA,NA,completion,8565.058,488606.3,488595.389,488612.66,497177.718,497178.6,2023-10-13T18:09:36Z,497194.463,NULL,Spionage,upelelezi,d,NA,NA,NA,NA,qt,NA,3,NA,NA,NA,NA,NA,NA,NA,NA,NA,NA,NA,NA,NA,NA,NA,NA,NA,NA,NA
4f2cf,shallow,flow.Sequence,3_0_3_0_5_1,NA,NA,skipped,NA,497178.6,NA,NA,497177.718,497178.8,2023-10-13T18:09:36Z,497194.463,NULL,Spionage,upelelezi,d,NA,NA,NA,NA,qt,NA,3,NA,NA,NA,NA,NA,NA,NA,NA,NA,NA,NA,NA,NA,NA,NA,NA,NA,NA,NA
4f2cf,task,flow.Sequence,3_0_3_0_5,NA,NA,completion,8565.058,488605.9,488595.389,488612.66,497177.718,497178.9,2023-10-13T18:09:36Z,497194.463,NULL,Spionage,upelelezi,d,NA,NA,NA,NA,qt,NA,3,NA,NA,NA,NA,NA,NA,NA,NA,NA,NA,NA,NA,NA,NA,NA,NA,NA,NA,NA
4f2cf,deep,flow.Sequence,3_0_3_0_6_0,NA,NA,skipped,NA,497179,NA,NA,497177.718,497179.1,2023-10-13T18:09:36Z,497194.463,NULL,Konkurrent,mshindani,s,msemaji,mvutaji,kipukusa,NA,qt,NA,3,NA,NA,NA,NA,NA,NA,NA,NA,NA,NA,NA,NA,NA,NA,NA,NA,NA,NA,NA
4f2cf,Shallow Question,html.Page,3_0_3_0_6_1_0,NA,NA,form submission,7665.737000003,497179.2,497177.718,497194.463,504860.2,504860.5,2023-10-13T18:09:44Z,504874.078,NULL,Konkurrent,mshindani,s,msemaji,mvutaji,kipukusa,mshindani,NA,NA,3,NA,NA,NA,NA,NA,NA,NA,NA,NA,NA,NA,NA,NA,NA,NA,NA,NA,NA,NA
4f2cf,"""Richtig""-Screen",canvas.Screen,3_0_3_0_6_1_1,NA,NA,timeout,4994.924,504863.9,504845.429,504874.078,509852.215,509857.5,2023-10-13T18:09:49Z,509869.002,NULL,Konkurrent,mshindani,s,msemaji,mvutaji,kipukusa,NA,qt,1,3,NA,NA,NA,NA,NA,NA,NA,NA,NA,NA,NA,NA,NA,NA,NA,NA,NA,NA,NA
4f2cf,"""Falsch""-Screen",canvas.Screen,3_0_3_0_6_1_2,NA,NA,skipped,NA,509859.9,NA,NA,509852.215,509860,2023-10-13T18:09:49Z,509869.002,NULL,Konkurrent,mshindani,s,msemaji,mvutaji,kipukusa,NA,qt,NA,3,NA,NA,NA,NA,NA,NA,NA,NA,NA,NA,NA,NA,NA,NA,NA,NA,NA,NA,NA
4f2cf,shallow,flow.Sequence,3_0_3_0_6_1,NA,NA,completion,12657.752,497179.2,497177.718,497194.463,509852.215,509860.2,2023-10-13T18:09:49Z,509869.002,NULL,Konkurrent,mshindani,s,msemaji,mvutaji,kipukusa,NA,qt,NA,3,NA,NA,NA,NA,NA,NA,NA,NA,NA,NA,NA,NA,NA,NA,NA,NA,NA,NA,NA
4f2cf,task,flow.Sequence,3_0_3_0_6,NA,NA,completion,12657.752,497178.9,497177.718,497194.463,509852.215,509860.3,2023-10-13T18:09:49Z,509869.002,NULL,Konkurrent,mshindani,s,msemaji,mvutaji,kipukusa,NA,qt,NA,3,NA,NA,NA,NA,NA,NA,NA,NA,NA,NA,NA,NA,NA,NA,NA,NA,NA,NA,NA
4f2cf,Deep Question,html.Page,3_0_3_0_7_0_0,NA,NA,form submission,6959.0980000015,509860.5,509852.215,509869.002,516828.1,516828.6,2023-10-13T18:09:56Z,516840.231,NULL,Fenster,dirisha,d,NA,NA,NA,j,NA,NA,3,NA,NA,NA,NA,NA,NA,NA,NA,NA,NA,NA,NA,NA,NA,NA,NA,NA,NA,NA
4f2cf,"""Richtig""-Screen",canvas.Screen,3_0_3_0_7_0_1,NA,NA,skipped,NA,516842.7,NA,NA,516828.1,516842.9,2023-10-13T18:09:56Z,516840.231,NULL,Fenster,dirisha,d,NA,NA,NA,NA,qt,NA,3,NA,NA,NA,NA,NA,NA,NA,NA,NA,NA,NA,NA,NA,NA,NA,NA,NA,NA,NA
4f2cf,"""Falsch""-Screen",canvas.Screen,3_0_3_0_7_0_2,NA,NA,timeout,5007.373,516845.1,516824.828,516840.231,521830.926,521831.9,2023-10-13T18:10:01Z,521847.604,NULL,Fenster,dirisha,d,NA,NA,NA,NA,qt,0,3,NA,NA,NA,NA,NA,NA,NA,NA,NA,NA,NA,NA,NA,NA,NA,NA,NA,NA,NA
4f2cf,deep,flow.Sequence,3_0_3_0_7_0,NA,NA,completion,11961.924,509860.4,509852.215,509869.002,521830.926,521832.1,2023-10-13T18:10:01Z,521847.604,NULL,Fenster,dirisha,d,NA,NA,NA,NA,qt,NA,3,NA,NA,NA,NA,NA,NA,NA,NA,NA,NA,NA,NA,NA,NA,NA,NA,NA,NA,NA
4f2cf,shallow,flow.Sequence,3_0_3_0_7_1,NA,NA,skipped,NA,521832.2,NA,NA,521830.926,521832.3,2023-10-13T18:10:01Z,521847.604,NULL,Fenster,dirisha,d,NA,NA,NA,NA,qt,NA,3,NA,NA,NA,NA,NA,NA,NA,NA,NA,NA,NA,NA,NA,NA,NA,NA,NA,NA,NA
4f2cf,task,flow.Sequence,3_0_3_0_7,NA,NA,completion,11961.924,509860.4,509852.215,509869.002,521830.926,521832.4,2023-10-13T18:10:01Z,521847.604,NULL,Fenster,dirisha,d,NA,NA,NA,NA,qt,NA,3,NA,NA,NA,NA,NA,NA,NA,NA,NA,NA,NA,NA,NA,NA,NA,NA,NA,NA,NA
4f2cf,block,flow.Loop,3_0_3_0,NA,NA,completion,83020.557,438792.9,438784.35,438810.369,521830.926,521832.5,2023-10-13T18:10:01Z,521847.604,NULL,NA,NA,NA,NA,NA,NA,NA,qt,NA,3,NA,NA,NA,NA,NA,NA,NA,NA,NA,NA,NA,NA,NA,NA,NA,NA,NA,NA,NA
4f2cf,weiter,canvas.Screen,3_0_3_1,sdf,keypress(Space),response,1421.9960000015,521832.6,521830.926,521847.604,523269.6,523270.7,2023-10-13T18:10:03Z,523355.363,NULL,NA,NA,NA,NA,NA,NA,NA,qt,NA,3,NA,NA,NA,NA,NA,NA,NA,NA,NA,NA,NA,NA,NA,NA,NA,NA,NA,NA,NA
4f2cf,check continue,flow.Sequence,3_0_3,NA,NA,completion,84459.231000001,438792.8,438784.35,438810.369,523269.6,523271.3,2023-10-13T18:10:03Z,523355.363,NULL,NA,NA,NA,NA,NA,NA,NA,qt,NA,3,NA,NA,NA,NA,NA,NA,NA,NA,NA,NA,NA,NA,NA,NA,NA,NA,NA,NA,NA
4f2cf,deep,flow.Sequence,3_0_4_0_0_0,NA,NA,skipped,NA,523346.3,NA,NA,523269.6,523346.5,2023-10-13T18:10:03Z,523355.363,NULL,Konkurrent,mshindani,s,msemaji,mvutaji,kipukusa,NA,sd,NA,4,NA,NA,NA,NA,NA,NA,NA,NA,NA,NA,NA,NA,NA,NA,NA,NA,NA,NA,NA
4f2cf,Shallow Question,html.Page,3_0_4_0_0_1_0,NA,NA,form submission,9001.2370000015,523346.6,523338.516,523355.363,532356.6,532357,2023-10-13T18:10:12Z,532371.683,NULL,Konkurrent,mshindani,s,msemaji,mvutaji,kipukusa,mshindani,NA,NA,4,NA,NA,NA,NA,NA,NA,NA,NA,NA,NA,NA,NA,NA,NA,NA,NA,NA,NA,NA
4f2cf,"""Richtig""-Screen",canvas.Screen,3_0_4_0_0_1_1,NA,NA,timeout,4993.632,532364.8,532340.834,532371.683,537348.595,537351.7,2023-10-13T18:10:17Z,537365.315,NULL,Konkurrent,mshindani,s,msemaji,mvutaji,kipukusa,NA,sd,1,4,NA,NA,NA,NA,NA,NA,NA,NA,NA,NA,NA,NA,NA,NA,NA,NA,NA,NA,NA
4f2cf,"""Falsch""-Screen",canvas.Screen,3_0_4_0_0_1_2,NA,NA,skipped,NA,537354.3,NA,NA,537348.595,537354.5,2023-10-13T18:10:17Z,537365.315,NULL,Konkurrent,mshindani,s,msemaji,mvutaji,kipukusa,NA,sd,NA,4,NA,NA,NA,NA,NA,NA,NA,NA,NA,NA,NA,NA,NA,NA,NA,NA,NA,NA,NA
4f2cf,shallow,flow.Sequence,3_0_4_0_0_1,NA,NA,completion,13993.232,523346.6,523338.516,523355.363,537348.595,537354.6,2023-10-13T18:10:17Z,537365.315,NULL,Konkurrent,mshindani,s,msemaji,mvutaji,kipukusa,NA,sd,NA,4,NA,NA,NA,NA,NA,NA,NA,NA,NA,NA,NA,NA,NA,NA,NA,NA,NA,NA,NA
4f2cf,task,flow.Sequence,3_0_4_0_0,NA,NA,completion,13993.232,523346.3,523338.516,523355.363,537348.595,537354.7,2023-10-13T18:10:17Z,537365.315,NULL,Konkurrent,mshindani,s,msemaji,mvutaji,kipukusa,NA,sd,NA,4,NA,NA,NA,NA,NA,NA,NA,NA,NA,NA,NA,NA,NA,NA,NA,NA,NA,NA,NA
4f2cf,Deep Question,html.Page,3_0_4_0_1_0_0,NA,NA,form submission,7547.885000003,537354.9,537348.595,537365.315,544913.2,544913.5,2023-10-13T18:10:24Z,544929.696,NULL,Symbol,kielezo,d,NA,NA,NA,kj,NA,NA,4,NA,NA,NA,NA,NA,NA,NA,NA,NA,NA,NA,NA,NA,NA,NA,NA,NA,NA,NA
4f2cf,"""Richtig""-Screen",canvas.Screen,3_0_4_0_1_0_1,NA,NA,skipped,NA,544917.4,NA,NA,544913.2,544917.6,2023-10-13T18:10:24Z,544929.696,NULL,Symbol,kielezo,d,NA,NA,NA,NA,sd,NA,4,NA,NA,NA,NA,NA,NA,NA,NA,NA,NA,NA,NA,NA,NA,NA,NA,NA,NA,NA
4f2cf,"""Falsch""-Screen",canvas.Screen,3_0_4_0_1_0_2,NA,NA,timeout,4996.5380000001,544918.8,544898.865,544929.696,549909.56,549910.2,2023-10-13T18:10:29Z,549926.234,NULL,Symbol,kielezo,d,NA,NA,NA,NA,sd,0,4,NA,NA,NA,NA,NA,NA,NA,NA,NA,NA,NA,NA,NA,NA,NA,NA,NA,NA,NA
4f2cf,deep,flow.Sequence,3_0_4_0_1_0,NA,NA,completion,12544.245,537354.8,537348.595,537365.315,549909.56,549910.4,2023-10-13T18:10:29Z,549926.234,NULL,Symbol,kielezo,d,NA,NA,NA,NA,sd,NA,4,NA,NA,NA,NA,NA,NA,NA,NA,NA,NA,NA,NA,NA,NA,NA,NA,NA,NA,NA
4f2cf,shallow,flow.Sequence,3_0_4_0_1_1,NA,NA,skipped,NA,549910.5,NA,NA,549909.56,549910.6,2023-10-13T18:10:29Z,549926.234,NULL,Symbol,kielezo,d,NA,NA,NA,NA,sd,NA,4,NA,NA,NA,NA,NA,NA,NA,NA,NA,NA,NA,NA,NA,NA,NA,NA,NA,NA,NA
4f2cf,task,flow.Sequence,3_0_4_0_1,NA,NA,completion,12544.245,537354.8,537348.595,537365.315,549909.56,549910.7,2023-10-13T18:10:29Z,549926.234,NULL,Symbol,kielezo,d,NA,NA,NA,NA,sd,NA,4,NA,NA,NA,NA,NA,NA,NA,NA,NA,NA,NA,NA,NA,NA,NA,NA,NA,NA,NA
4f2cf,Deep Question,html.Page,3_0_4_0_2_0_0,NA,NA,form submission,9150.2659999999,549910.9,549909.56,549926.234,559076.5,559076.8,2023-10-13T18:10:38Z,559087.47,NULL,Fenster,dirisha,d,NA,NA,NA,dirisha,NA,NA,4,NA,NA,NA,NA,NA,NA,NA,NA,NA,NA,NA,NA,NA,NA,NA,NA,NA,NA,NA
4f2cf,"""Richtig""-Screen",canvas.Screen,3_0_4_0_2_0_1,NA,NA,timeout,4994.7320000001,559080,559072.885,559087.47,564065.602,564073.7,2023-10-13T18:10:43Z,564082.202,NULL,Fenster,dirisha,d,NA,NA,NA,NA,sd,1,4,NA,NA,NA,NA,NA,NA,NA,NA,NA,NA,NA,NA,NA,NA,NA,NA,NA,NA,NA
4f2cf,"""Falsch""-Screen",canvas.Screen,3_0_4_0_2_0_2,NA,NA,skipped,NA,564077.9,NA,NA,564065.602,564078.1,2023-10-13T18:10:43Z,564082.202,NULL,Fenster,dirisha,d,NA,NA,NA,NA,sd,NA,4,NA,NA,NA,NA,NA,NA,NA,NA,NA,NA,NA,NA,NA,NA,NA,NA,NA,NA,NA
4f2cf,deep,flow.Sequence,3_0_4_0_2_0,NA,NA,completion,14139.368,549910.8,549909.56,549926.234,564065.602,564078.6,2023-10-13T18:10:43Z,564082.202,NULL,Fenster,dirisha,d,NA,NA,NA,NA,sd,NA,4,NA,NA,NA,NA,NA,NA,NA,NA,NA,NA,NA,NA,NA,NA,NA,NA,NA,NA,NA
4f2cf,shallow,flow.Sequence,3_0_4_0_2_1,NA,NA,skipped,NA,564078.8,NA,NA,564065.602,564078.9,2023-10-13T18:10:43Z,564082.202,NULL,Fenster,dirisha,d,NA,NA,NA,NA,sd,NA,4,NA,NA,NA,NA,NA,NA,NA,NA,NA,NA,NA,NA,NA,NA,NA,NA,NA,NA,NA
4f2cf,task,flow.Sequence,3_0_4_0_2,NA,NA,completion,14139.368,549910.8,549909.56,549926.234,564065.602,564078.9,2023-10-13T18:10:43Z,564082.202,NULL,Fenster,dirisha,d,NA,NA,NA,NA,sd,NA,4,NA,NA,NA,NA,NA,NA,NA,NA,NA,NA,NA,NA,NA,NA,NA,NA,NA,NA,NA
4f2cf,deep,flow.Sequence,3_0_4_0_3_0,NA,NA,skipped,NA,564079,NA,NA,564065.602,564079.1,2023-10-13T18:10:43Z,564082.202,NULL,Tester,wanaojaribu,s,sherti,sihiri,mlipuko,NA,sd,NA,4,NA,NA,NA,NA,NA,NA,NA,NA,NA,NA,NA,NA,NA,NA,NA,NA,NA,NA,NA
4f2cf,Shallow Question,html.Page,3_0_4_0_3_1_0,NA,NA,form submission,6789.4980000029,564079.2,564065.602,564082.202,570871.7,570872,2023-10-13T18:10:50Z,570886.615,NULL,Tester,wanaojaribu,s,sherti,sihiri,mlipuko,wanaojaribu,NA,NA,4,NA,NA,NA,NA,NA,NA,NA,NA,NA,NA,NA,NA,NA,NA,NA,NA,NA,NA,NA
4f2cf,"""Richtig""-Screen",canvas.Screen,3_0_4_0_3_1_1,NA,NA,timeout,5005.995,570874.4,570855.52,570886.615,575876.027,575876.6,2023-10-13T18:10:55Z,575892.61,NULL,Tester,wanaojaribu,s,sherti,sihiri,mlipuko,NA,sd,1,4,NA,NA,NA,NA,NA,NA,NA,NA,NA,NA,NA,NA,NA,NA,NA,NA,NA,NA,NA
4f2cf,"""Falsch""-Screen",canvas.Screen,3_0_4_0_3_1_2,NA,NA,skipped,NA,575879.4,NA,NA,575876.027,575879.5,2023-10-13T18:10:55Z,575892.61,NULL,Tester,wanaojaribu,s,sherti,sihiri,mlipuko,NA,sd,NA,4,NA,NA,NA,NA,NA,NA,NA,NA,NA,NA,NA,NA,NA,NA,NA,NA,NA,NA,NA
4f2cf,shallow,flow.Sequence,3_0_4_0_3_1,NA,NA,completion,11793.825,564079.2,564065.602,564082.202,575876.027,575879.7,2023-10-13T18:10:55Z,575892.61,NULL,Tester,wanaojaribu,s,sherti,sihiri,mlipuko,NA,sd,NA,4,NA,NA,NA,NA,NA,NA,NA,NA,NA,NA,NA,NA,NA,NA,NA,NA,NA,NA,NA
4f2cf,task,flow.Sequence,3_0_4_0_3,NA,NA,completion,11793.825,564079,564065.602,564082.202,575876.027,575879.8,2023-10-13T18:10:55Z,575892.61,NULL,Tester,wanaojaribu,s,sherti,sihiri,mlipuko,NA,sd,NA,4,NA,NA,NA,NA,NA,NA,NA,NA,NA,NA,NA,NA,NA,NA,NA,NA,NA,NA,NA
4f2cf,deep,flow.Sequence,3_0_4_0_4_0,NA,NA,skipped,NA,575880,NA,NA,575876.027,575880.1,2023-10-13T18:10:55Z,575892.61,NULL,Vorsorge,tahadhari,s,ufafanuzi,makini,mashambani,NA,sd,NA,4,NA,NA,NA,NA,NA,NA,NA,NA,NA,NA,NA,NA,NA,NA,NA,NA,NA,NA,NA
4f2cf,Shallow Question,html.Page,3_0_4_0_4_1_0,NA,NA,form submission,7063.4900000015,575880.2,575876.027,575892.61,582956.1,582956.5,2023-10-13T18:11:02Z,582971.253,NULL,Vorsorge,tahadhari,s,ufafanuzi,makini,mashambani,tahadhari,NA,NA,4,NA,NA,NA,NA,NA,NA,NA,NA,NA,NA,NA,NA,NA,NA,NA,NA,NA,NA,NA
4f2cf,"""Richtig""-Screen",canvas.Screen,3_0_4_0_4_1_1,NA,NA,timeout,5000.1039999999,582959.1,582948.873,582971.253,587954.65,587955.5,2023-10-13T18:11:07Z,587971.357,NULL,Vorsorge,tahadhari,s,ufafanuzi,makini,mashambani,NA,sd,1,4,NA,NA,NA,NA,NA,NA,NA,NA,NA,NA,NA,NA,NA,NA,NA,NA,NA,NA,NA
4f2cf,"""Falsch""-Screen",canvas.Screen,3_0_4_0_4_1_2,NA,NA,skipped,NA,587958.1,NA,NA,587954.65,587958.3,2023-10-13T18:11:07Z,587971.357,NULL,Vorsorge,tahadhari,s,ufafanuzi,makini,mashambani,NA,sd,NA,4,NA,NA,NA,NA,NA,NA,NA,NA,NA,NA,NA,NA,NA,NA,NA,NA,NA,NA,NA
4f2cf,shallow,flow.Sequence,3_0_4_0_4_1,NA,NA,completion,12062.04,575880.2,575876.027,575892.61,587954.65,587958.4,2023-10-13T18:11:07Z,587971.357,NULL,Vorsorge,tahadhari,s,ufafanuzi,makini,mashambani,NA,sd,NA,4,NA,NA,NA,NA,NA,NA,NA,NA,NA,NA,NA,NA,NA,NA,NA,NA,NA,NA,NA
4f2cf,task,flow.Sequence,3_0_4_0_4,NA,NA,completion,12062.04,575879.9,575876.027,575892.61,587954.65,587958.6,2023-10-13T18:11:07Z,587971.357,NULL,Vorsorge,tahadhari,s,ufafanuzi,makini,mashambani,NA,sd,NA,4,NA,NA,NA,NA,NA,NA,NA,NA,NA,NA,NA,NA,NA,NA,NA,NA,NA,NA,NA
4f2cf,deep,flow.Sequence,3_0_4_0_5_0,NA,NA,skipped,NA,587958.7,NA,NA,587954.65,587958.8,2023-10-13T18:11:07Z,587971.357,NULL,Schüler,mwanafunzi,s,mwekezaji,matumizi,uaminifu,NA,sd,NA,4,NA,NA,NA,NA,NA,NA,NA,NA,NA,NA,NA,NA,NA,NA,NA,NA,NA,NA,NA
4f2cf,Shallow Question,html.Page,3_0_4_0_5_1_0,NA,NA,form submission,3414.343000003,587958.9,587954.65,587971.357,591385.7,591386,2023-10-13T18:11:11Z,591400.941,NULL,Schüler,mwanafunzi,s,mwekezaji,matumizi,uaminifu,mwanafunzi,NA,NA,4,NA,NA,NA,NA,NA,NA,NA,NA,NA,NA,NA,NA,NA,NA,NA,NA,NA,NA,NA
4f2cf,"""Richtig""-Screen",canvas.Screen,3_0_4_0_5_1_1,NA,NA,timeout,4998.4670000001,591389.1,591369.546,591400.941,596382.815,596383.3,2023-10-13T18:11:16Z,596399.408,NULL,Schüler,mwanafunzi,s,mwekezaji,matumizi,uaminifu,NA,sd,1,4,NA,NA,NA,NA,NA,NA,NA,NA,NA,NA,NA,NA,NA,NA,NA,NA,NA,NA,NA
4f2cf,"""Falsch""-Screen",canvas.Screen,3_0_4_0_5_1_2,NA,NA,skipped,NA,596386.1,NA,NA,596382.815,596386.4,2023-10-13T18:11:16Z,596399.408,NULL,Schüler,mwanafunzi,s,mwekezaji,matumizi,uaminifu,NA,sd,NA,4,NA,NA,NA,NA,NA,NA,NA,NA,NA,NA,NA,NA,NA,NA,NA,NA,NA,NA,NA
4f2cf,shallow,flow.Sequence,3_0_4_0_5_1,NA,NA,completion,8411.458,587958.9,587954.65,587971.357,596382.815,596386.5,2023-10-13T18:11:16Z,596399.408,NULL,Schüler,mwanafunzi,s,mwekezaji,matumizi,uaminifu,NA,sd,NA,4,NA,NA,NA,NA,NA,NA,NA,NA,NA,NA,NA,NA,NA,NA,NA,NA,NA,NA,NA
4f2cf,task,flow.Sequence,3_0_4_0_5,NA,NA,completion,8411.458,587958.6,587954.65,587971.357,596382.815,596386.7,2023-10-13T18:11:16Z,596399.408,NULL,Schüler,mwanafunzi,s,mwekezaji,matumizi,uaminifu,NA,sd,NA,4,NA,NA,NA,NA,NA,NA,NA,NA,NA,NA,NA,NA,NA,NA,NA,NA,NA,NA,NA
4f2cf,Deep Question,html.Page,3_0_4_0_6_0_0,NA,NA,form submission,4454.8920000044,596386.8,596382.815,596399.408,600854.3,600854.6,2023-10-13T18:11:20Z,600869.744,NULL,Zuwachs,nyongeza,d,NA,NA,NA,k,NA,NA,4,NA,NA,NA,NA,NA,NA,NA,NA,NA,NA,NA,NA,NA,NA,NA,NA,NA,NA,NA
4f2cf,"""Richtig""-Screen",canvas.Screen,3_0_4_0_6_0_1,NA,NA,skipped,NA,600857.3,NA,NA,600854.3,600857.6,2023-10-13T18:11:20Z,600869.744,NULL,Zuwachs,nyongeza,d,NA,NA,NA,NA,sd,NA,4,NA,NA,NA,NA,NA,NA,NA,NA,NA,NA,NA,NA,NA,NA,NA,NA,NA,NA,NA
4f2cf,"""Falsch""-Screen",canvas.Screen,3_0_4_0_6_0_2,NA,NA,timeout,5001.8690000001,600858.6,600837.593,600869.744,605854.92,605855.5,2023-10-13T18:11:25Z,605871.613,NULL,Zuwachs,nyongeza,d,NA,NA,NA,NA,sd,0,4,NA,NA,NA,NA,NA,NA,NA,NA,NA,NA,NA,NA,NA,NA,NA,NA,NA,NA,NA
4f2cf,deep,flow.Sequence,3_0_4_0_6_0,NA,NA,completion,9455.512,596386.8,596382.815,596399.408,605854.92,605855.8,2023-10-13T18:11:25Z,605871.613,NULL,Zuwachs,nyongeza,d,NA,NA,NA,NA,sd,NA,4,NA,NA,NA,NA,NA,NA,NA,NA,NA,NA,NA,NA,NA,NA,NA,NA,NA,NA,NA
4f2cf,shallow,flow.Sequence,3_0_4_0_6_1,NA,NA,skipped,NA,605855.9,NA,NA,605854.92,605856,2023-10-13T18:11:25Z,605871.613,NULL,Zuwachs,nyongeza,d,NA,NA,NA,NA,sd,NA,4,NA,NA,NA,NA,NA,NA,NA,NA,NA,NA,NA,NA,NA,NA,NA,NA,NA,NA,NA
4f2cf,task,flow.Sequence,3_0_4_0_6,NA,NA,completion,9455.512,596386.7,596382.815,596399.408,605854.92,605856.2,2023-10-13T18:11:25Z,605871.613,NULL,Zuwachs,nyongeza,d,NA,NA,NA,NA,sd,NA,4,NA,NA,NA,NA,NA,NA,NA,NA,NA,NA,NA,NA,NA,NA,NA,NA,NA,NA,NA
4f2cf,Deep Question,html.Page,3_0_4_0_7_0_0,NA,NA,form submission,7305.7869999985,605856.2,605854.92,605871.613,613177.4,613177.6,2023-10-13T18:11:32Z,613188.016,NULL,Spionage,upelelezi,d,NA,NA,NA,d$,NA,NA,4,NA,NA,NA,NA,NA,NA,NA,NA,NA,NA,NA,NA,NA,NA,NA,NA,NA,NA,NA
4f2cf,"""Richtig""-Screen",canvas.Screen,3_0_4_0_7_0_1,NA,NA,skipped,NA,613180.8,NA,NA,613177.4,613181,2023-10-13T18:11:32Z,613188.016,NULL,Spionage,upelelezi,d,NA,NA,NA,NA,sd,NA,4,NA,NA,NA,NA,NA,NA,NA,NA,NA,NA,NA,NA,NA,NA,NA,NA,NA,NA,NA
4f2cf,"""Falsch""-Screen",canvas.Screen,3_0_4_0_7_0_2,NA,NA,timeout,4999.192,613182.1,613173.642,613188.016,618170.506,618171,2023-10-13T18:11:37Z,618187.208,NULL,Spionage,upelelezi,d,NA,NA,NA,NA,sd,0,4,NA,NA,NA,NA,NA,NA,NA,NA,NA,NA,NA,NA,NA,NA,NA,NA,NA,NA,NA
4f2cf,deep,flow.Sequence,3_0_4_0_7_0,NA,NA,completion,12298.893,605856.2,605854.92,605871.613,618170.506,618171.1,2023-10-13T18:11:37Z,618187.208,NULL,Spionage,upelelezi,d,NA,NA,NA,NA,sd,NA,4,NA,NA,NA,NA,NA,NA,NA,NA,NA,NA,NA,NA,NA,NA,NA,NA,NA,NA,NA
4f2cf,shallow,flow.Sequence,3_0_4_0_7_1,NA,NA,skipped,NA,618171.2,NA,NA,618170.506,618171.3,2023-10-13T18:11:37Z,618187.208,NULL,Spionage,upelelezi,d,NA,NA,NA,NA,sd,NA,4,NA,NA,NA,NA,NA,NA,NA,NA,NA,NA,NA,NA,NA,NA,NA,NA,NA,NA,NA
4f2cf,task,flow.Sequence,3_0_4_0_7,NA,NA,completion,12298.893,605856.2,605854.92,605871.613,618170.506,618171.4,2023-10-13T18:11:37Z,618187.208,NULL,Spionage,upelelezi,d,NA,NA,NA,NA,sd,NA,4,NA,NA,NA,NA,NA,NA,NA,NA,NA,NA,NA,NA,NA,NA,NA,NA,NA,NA,NA
4f2cf,block,flow.Loop,3_0_4_0,NA,NA,completion,94815.143,523346.3,523338.516,523355.363,618170.506,618171.6,2023-10-13T18:11:37Z,618187.208,NULL,NA,NA,NA,NA,NA,NA,NA,sd,NA,4,NA,NA,NA,NA,NA,NA,NA,NA,NA,NA,NA,NA,NA,NA,NA,NA,NA,NA,NA
4f2cf,weiter,canvas.Screen,3_0_4_1,sdf,keypress(Space),response,1152.492000003,618171.7,618170.506,618187.208,619339.7,619340.7,2023-10-13T18:11:39Z,619393.04,NULL,NA,NA,NA,NA,NA,NA,NA,sd,NA,4,NA,NA,NA,NA,NA,NA,NA,NA,NA,NA,NA,NA,NA,NA,NA,NA,NA,NA,NA
4f2cf,check continue,flow.Sequence,3_0_4,NA,NA,completion,95984.337000003,523346.3,523338.516,523355.363,619339.7,619341,2023-10-13T18:11:39Z,619393.04,NULL,NA,NA,NA,NA,NA,NA,NA,sd,NA,4,NA,NA,NA,NA,NA,NA,NA,NA,NA,NA,NA,NA,NA,NA,NA,NA,NA,NA,NA
4f2cf,Deep Question,html.Page,3_0_5_0_0_0_0,NA,NA,form submission,3846.8599999985,619376,619373.049,619393.04,623239.9,623240.1,2023-10-13T18:11:42Z,623256.358,NULL,Fenster,dirisha,d,NA,NA,NA,dirisha,NA,NA,5,NA,NA,NA,NA,NA,NA,NA,NA,NA,NA,NA,NA,NA,NA,NA,NA,NA,NA,NA
4f2cf,"""Richtig""-Screen",canvas.Screen,3_0_5_0_0_0_1,NA,NA,timeout,5004.8319999999,623242.7,623224.163,623256.358,628244.651,628247.8,2023-10-13T18:11:47Z,628261.19,NULL,Fenster,dirisha,d,NA,NA,NA,NA,sdf,1,5,NA,NA,NA,NA,NA,NA,NA,NA,NA,NA,NA,NA,NA,NA,NA,NA,NA,NA,NA
4f2cf,"""Falsch""-Screen",canvas.Screen,3_0_5_0_0_0_2,NA,NA,skipped,NA,628250.4,NA,NA,628244.651,628250.7,2023-10-13T18:11:47Z,628261.19,NULL,Fenster,dirisha,d,NA,NA,NA,NA,sdf,NA,5,NA,NA,NA,NA,NA,NA,NA,NA,NA,NA,NA,NA,NA,NA,NA,NA,NA,NA,NA
4f2cf,deep,flow.Sequence,3_0_5_0_0_0,NA,NA,completion,8851.6109999999,619375.9,619373.049,619393.04,628244.651,628250.9,2023-10-13T18:11:47Z,628261.19,NULL,Fenster,dirisha,d,NA,NA,NA,NA,sdf,NA,5,NA,NA,NA,NA,NA,NA,NA,NA,NA,NA,NA,NA,NA,NA,NA,NA,NA,NA,NA
4f2cf,shallow,flow.Sequence,3_0_5_0_0_1,NA,NA,skipped,NA,628250.9,NA,NA,628244.651,628251,2023-10-13T18:11:47Z,628261.19,NULL,Fenster,dirisha,d,NA,NA,NA,NA,sdf,NA,5,NA,NA,NA,NA,NA,NA,NA,NA,NA,NA,NA,NA,NA,NA,NA,NA,NA,NA,NA
4f2cf,task,flow.Sequence,3_0_5_0_0,NA,NA,completion,8851.6109999999,619375.9,619373.049,619393.04,628244.651,628251.1,2023-10-13T18:11:47Z,628261.19,NULL,Fenster,dirisha,d,NA,NA,NA,NA,sdf,NA,5,NA,NA,NA,NA,NA,NA,NA,NA,NA,NA,NA,NA,NA,NA,NA,NA,NA,NA,NA
4f2cf,deep,flow.Sequence,3_0_5_0_1_0,NA,NA,skipped,NA,628251.2,NA,NA,628244.651,628251.3,2023-10-13T18:11:47Z,628261.19,NULL,Schüler,mwanafunzi,s,mwekezaji,matumizi,uaminifu,NA,sdf,NA,5,NA,NA,NA,NA,NA,NA,NA,NA,NA,NA,NA,NA,NA,NA,NA,NA,NA,NA,NA
4f2cf,Shallow Question,html.Page,3_0_5_0_1_1_0,NA,NA,form submission,4392.8100000001,628251.3,628244.651,628261.19,632654,632654.6,2023-10-13T18:11:52Z,632668.918,NULL,Schüler,mwanafunzi,s,mwekezaji,matumizi,uaminifu,mwanafunzi,NA,NA,5,NA,NA,NA,NA,NA,NA,NA,NA,NA,NA,NA,NA,NA,NA,NA,NA,NA,NA,NA
4f2cf,"""Richtig""-Screen",canvas.Screen,3_0_5_0_1_1_1,NA,NA,timeout,5000.599,632657.4,632649.417,632668.918,637652.832,637653.4,2023-10-13T18:11:57Z,637669.517,NULL,Schüler,mwanafunzi,s,mwekezaji,matumizi,uaminifu,NA,sdf,1,5,NA,NA,NA,NA,NA,NA,NA,NA,NA,NA,NA,NA,NA,NA,NA,NA,NA,NA,NA
4f2cf,"""Falsch""-Screen",canvas.Screen,3_0_5_0_1_1_2,NA,NA,skipped,NA,637656.4,NA,NA,637652.832,637656.8,2023-10-13T18:11:57Z,637669.517,NULL,Schüler,mwanafunzi,s,mwekezaji,matumizi,uaminifu,NA,sdf,NA,5,NA,NA,NA,NA,NA,NA,NA,NA,NA,NA,NA,NA,NA,NA,NA,NA,NA,NA,NA
4f2cf,shallow,flow.Sequence,3_0_5_0_1_1,NA,NA,completion,9391.6420000001,628251.3,628244.651,628261.19,637652.832,637656.9,2023-10-13T18:11:57Z,637669.517,NULL,Schüler,mwanafunzi,s,mwekezaji,matumizi,uaminifu,NA,sdf,NA,5,NA,NA,NA,NA,NA,NA,NA,NA,NA,NA,NA,NA,NA,NA,NA,NA,NA,NA,NA
4f2cf,task,flow.Sequence,3_0_5_0_1,NA,NA,completion,9391.6420000001,628251.2,628244.651,628261.19,637652.832,637657.1,2023-10-13T18:11:57Z,637669.517,NULL,Schüler,mwanafunzi,s,mwekezaji,matumizi,uaminifu,NA,sdf,NA,5,NA,NA,NA,NA,NA,NA,NA,NA,NA,NA,NA,NA,NA,NA,NA,NA,NA,NA,NA
4f2cf,Deep Question,html.Page,3_0_5_0_2_0_0,NA,NA,form submission,3843.483,637657.3,637652.832,637669.517,641513,641513.2,2023-10-13T18:12:01Z,641520.249,NULL,Symbol,kielezo,d,NA,NA,NA,j,NA,NA,5,NA,NA,NA,NA,NA,NA,NA,NA,NA,NA,NA,NA,NA,NA,NA,NA,NA,NA,NA
4f2cf,"""Richtig""-Screen",canvas.Screen,3_0_5_0_2_0_1,NA,NA,skipped,NA,641516,NA,NA,641513,641516.2,2023-10-13T18:12:01Z,641520.249,NULL,Symbol,kielezo,d,NA,NA,NA,NA,sdf,NA,5,NA,NA,NA,NA,NA,NA,NA,NA,NA,NA,NA,NA,NA,NA,NA,NA,NA,NA,NA
4f2cf,"""Falsch""-Screen",canvas.Screen,3_0_5_0_2_0_2,NA,NA,timeout,4999.005,641517.1,641511.166,641520.249,646502.615,646503.4,2023-10-13T18:12:06Z,646519.254,NULL,Symbol,kielezo,d,NA,NA,NA,NA,sdf,0,5,NA,NA,NA,NA,NA,NA,NA,NA,NA,NA,NA,NA,NA,NA,NA,NA,NA,NA,NA
4f2cf,deep,flow.Sequence,3_0_5_0_2_0,NA,NA,completion,8833.098,637657.3,637652.832,637669.517,646502.615,646503.6,2023-10-13T18:12:06Z,646519.254,NULL,Symbol,kielezo,d,NA,NA,NA,NA,sdf,NA,5,NA,NA,NA,NA,NA,NA,NA,NA,NA,NA,NA,NA,NA,NA,NA,NA,NA,NA,NA
4f2cf,shallow,flow.Sequence,3_0_5_0_2_1,NA,NA,skipped,NA,646503.7,NA,NA,646502.615,646503.8,2023-10-13T18:12:06Z,646519.254,NULL,Symbol,kielezo,d,NA,NA,NA,NA,sdf,NA,5,NA,NA,NA,NA,NA,NA,NA,NA,NA,NA,NA,NA,NA,NA,NA,NA,NA,NA,NA
4f2cf,task,flow.Sequence,3_0_5_0_2,NA,NA,completion,8833.098,637657.2,637652.832,637669.517,646502.615,646504,2023-10-13T18:12:06Z,646519.254,NULL,Symbol,kielezo,d,NA,NA,NA,NA,sdf,NA,5,NA,NA,NA,NA,NA,NA,NA,NA,NA,NA,NA,NA,NA,NA,NA,NA,NA,NA,NA
4f2cf,deep,flow.Sequence,3_0_5_0_3_0,NA,NA,skipped,NA,646504,NA,NA,646502.615,646504.1,2023-10-13T18:12:06Z,646519.254,NULL,Vorsorge,tahadhari,s,ufafanuzi,makini,mashambani,NA,sdf,NA,5,NA,NA,NA,NA,NA,NA,NA,NA,NA,NA,NA,NA,NA,NA,NA,NA,NA,NA,NA
4f2cf,Shallow Question,html.Page,3_0_5_0_3_1_0,NA,NA,form submission,4499.6459999986,646504.2,646502.615,646519.254,651018.9,651019.2,2023-10-13T18:12:10Z,651034.104,NULL,Vorsorge,tahadhari,s,ufafanuzi,makini,mashambani,tahadhari,NA,NA,5,NA,NA,NA,NA,NA,NA,NA,NA,NA,NA,NA,NA,NA,NA,NA,NA,NA,NA,NA
4f2cf,"""Richtig""-Screen",canvas.Screen,3_0_5_0_3_1_1,NA,NA,timeout,4998.286,651022.2,651002.67,651034.104,656015.671,656016.4,2023-10-13T18:12:15Z,656032.39,NULL,Vorsorge,tahadhari,s,ufafanuzi,makini,mashambani,NA,sdf,1,5,NA,NA,NA,NA,NA,NA,NA,NA,NA,NA,NA,NA,NA,NA,NA,NA,NA,NA,NA
4f2cf,"""Falsch""-Screen",canvas.Screen,3_0_5_0_3_1_2,NA,NA,skipped,NA,656019.3,NA,NA,656015.671,656019.4,2023-10-13T18:12:15Z,656032.39,NULL,Vorsorge,tahadhari,s,ufafanuzi,makini,mashambani,NA,sdf,NA,5,NA,NA,NA,NA,NA,NA,NA,NA,NA,NA,NA,NA,NA,NA,NA,NA,NA,NA,NA
4f2cf,shallow,flow.Sequence,3_0_5_0_3_1,NA,NA,completion,9496.417,646504.2,646502.615,646519.254,656015.671,656019.6,2023-10-13T18:12:15Z,656032.39,NULL,Vorsorge,tahadhari,s,ufafanuzi,makini,mashambani,NA,sdf,NA,5,NA,NA,NA,NA,NA,NA,NA,NA,NA,NA,NA,NA,NA,NA,NA,NA,NA,NA,NA
4f2cf,task,flow.Sequence,3_0_5_0_3,NA,NA,completion,9496.417,646504,646502.615,646519.254,656015.671,656019.8,2023-10-13T18:12:15Z,656032.39,NULL,Vorsorge,tahadhari,s,ufafanuzi,makini,mashambani,NA,sdf,NA,5,NA,NA,NA,NA,NA,NA,NA,NA,NA,NA,NA,NA,NA,NA,NA,NA,NA,NA,NA
4f2cf,deep,flow.Sequence,3_0_5_0_4_0,NA,NA,skipped,NA,656019.9,NA,NA,656015.671,656020,2023-10-13T18:12:15Z,656032.39,NULL,Konkurrent,mshindani,s,msemaji,mvutaji,kipukusa,NA,sdf,NA,5,NA,NA,NA,NA,NA,NA,NA,NA,NA,NA,NA,NA,NA,NA,NA,NA,NA,NA,NA
4f2cf,Shallow Question,html.Page,3_0_5_0_4_1_0,NA,NA,form submission,6059.7100000015,656020.1,656015.671,656032.39,662092.1,662092.3,2023-10-13T18:12:21Z,662106.708,NULL,Konkurrent,mshindani,s,msemaji,mvutaji,kipukusa,mshindani,NA,NA,5,NA,NA,NA,NA,NA,NA,NA,NA,NA,NA,NA,NA,NA,NA,NA,NA,NA,NA,NA
4f2cf,"""Richtig""-Screen",canvas.Screen,3_0_5_0_4_1_1,NA,NA,timeout,5006.924,662095.1,662078.054,662106.708,667096.896,667098,2023-10-13T18:12:26Z,667113.632,NULL,Konkurrent,mshindani,s,msemaji,mvutaji,kipukusa,NA,sdf,1,5,NA,NA,NA,NA,NA,NA,NA,NA,NA,NA,NA,NA,NA,NA,NA,NA,NA,NA,NA
4f2cf,"""Falsch""-Screen",canvas.Screen,3_0_5_0_4_1_2,NA,NA,skipped,NA,667100.8,NA,NA,667096.896,667100.9,2023-10-13T18:12:26Z,667113.632,NULL,Konkurrent,mshindani,s,msemaji,mvutaji,kipukusa,NA,sdf,NA,5,NA,NA,NA,NA,NA,NA,NA,NA,NA,NA,NA,NA,NA,NA,NA,NA,NA,NA,NA
4f2cf,shallow,flow.Sequence,3_0_5_0_4_1,NA,NA,completion,11064.506,656020,656015.671,656032.39,667096.896,667101.1,2023-10-13T18:12:26Z,667113.632,NULL,Konkurrent,mshindani,s,msemaji,mvutaji,kipukusa,NA,sdf,NA,5,NA,NA,NA,NA,NA,NA,NA,NA,NA,NA,NA,NA,NA,NA,NA,NA,NA,NA,NA
4f2cf,task,flow.Sequence,3_0_5_0_4,NA,NA,completion,11064.506,656019.9,656015.671,656032.39,667096.896,667101.2,2023-10-13T18:12:26Z,667113.632,NULL,Konkurrent,mshindani,s,msemaji,mvutaji,kipukusa,NA,sdf,NA,5,NA,NA,NA,NA,NA,NA,NA,NA,NA,NA,NA,NA,NA,NA,NA,NA,NA,NA,NA
4f2cf,Deep Question,html.Page,3_0_5_0_5_0_0,NA,NA,form submission,6936.1680000045,667101.4,667096.896,667113.632,674049.8,674050.3,2023-10-13T18:12:33Z,674065.008,NULL,Zuwachs,nyongeza,d,NA,NA,NA,nyongeza,NA,NA,5,NA,NA,NA,NA,NA,NA,NA,NA,NA,NA,NA,NA,NA,NA,NA,NA,NA,NA,NA
4f2cf,"""Richtig""-Screen",canvas.Screen,3_0_5_0_5_0_1,NA,NA,timeout,5006.1969999999,674053,674047.417,674065.008,679054.488,679055.5,2023-10-13T18:12:38Z,679071.205,NULL,Zuwachs,nyongeza,d,NA,NA,NA,NA,sdf,1,5,NA,NA,NA,NA,NA,NA,NA,NA,NA,NA,NA,NA,NA,NA,NA,NA,NA,NA,NA
4f2cf,"""Falsch""-Screen",canvas.Screen,3_0_5_0_5_0_2,NA,NA,skipped,NA,679058.2,NA,NA,679054.488,679058.4,2023-10-13T18:12:38Z,679071.205,NULL,Zuwachs,nyongeza,d,NA,NA,NA,NA,sdf,NA,5,NA,NA,NA,NA,NA,NA,NA,NA,NA,NA,NA,NA,NA,NA,NA,NA,NA,NA,NA
4f2cf,deep,flow.Sequence,3_0_5_0_5_0,NA,NA,completion,11940.856,667101.4,667096.896,667113.632,679054.488,679058.5,2023-10-13T18:12:38Z,679071.205,NULL,Zuwachs,nyongeza,d,NA,NA,NA,NA,sdf,NA,5,NA,NA,NA,NA,NA,NA,NA,NA,NA,NA,NA,NA,NA,NA,NA,NA,NA,NA,NA
4f2cf,shallow,flow.Sequence,3_0_5_0_5_1,NA,NA,skipped,NA,679058.6,NA,NA,679054.488,679058.7,2023-10-13T18:12:38Z,679071.205,NULL,Zuwachs,nyongeza,d,NA,NA,NA,NA,sdf,NA,5,NA,NA,NA,NA,NA,NA,NA,NA,NA,NA,NA,NA,NA,NA,NA,NA,NA,NA,NA
4f2cf,task,flow.Sequence,3_0_5_0_5,NA,NA,completion,11940.856,667101.4,667096.896,667113.632,679054.488,679059.4,2023-10-13T18:12:38Z,679071.205,NULL,Zuwachs,nyongeza,d,NA,NA,NA,NA,sdf,NA,5,NA,NA,NA,NA,NA,NA,NA,NA,NA,NA,NA,NA,NA,NA,NA,NA,NA,NA,NA
4f2cf,deep,flow.Sequence,3_0_5_0_6_0,NA,NA,skipped,NA,679059.5,NA,NA,679054.488,679059.6,2023-10-13T18:12:38Z,679071.205,NULL,Tester,wanaojaribu,s,sherti,sihiri,mlipuko,NA,sdf,NA,5,NA,NA,NA,NA,NA,NA,NA,NA,NA,NA,NA,NA,NA,NA,NA,NA,NA,NA,NA
4f2cf,Shallow Question,html.Page,3_0_5_0_6_1_0,NA,NA,form submission,4868.1949999986,679059.7,679054.488,679071.205,683939.4,683939.7,2023-10-13T18:12:43Z,683953.482,NULL,Tester,wanaojaribu,s,sherti,sihiri,mlipuko,wanaojaribu,NA,NA,5,NA,NA,NA,NA,NA,NA,NA,NA,NA,NA,NA,NA,NA,NA,NA,NA,NA,NA,NA
4f2cf,"""Richtig""-Screen",canvas.Screen,3_0_5_0_6_1_1,NA,NA,timeout,5008.091,683942.7,683927.203,683953.482,688943.881,688950.8,2023-10-13T18:12:48Z,688961.573,NULL,Tester,wanaojaribu,s,sherti,sihiri,mlipuko,NA,sdf,1,5,NA,NA,NA,NA,NA,NA,NA,NA,NA,NA,NA,NA,NA,NA,NA,NA,NA,NA,NA
4f2cf,"""Falsch""-Screen",canvas.Screen,3_0_5_0_6_1_2,NA,NA,skipped,NA,688953.6,NA,NA,688943.881,688953.8,2023-10-13T18:12:48Z,688961.573,NULL,Tester,wanaojaribu,s,sherti,sihiri,mlipuko,NA,sdf,NA,5,NA,NA,NA,NA,NA,NA,NA,NA,NA,NA,NA,NA,NA,NA,NA,NA,NA,NA,NA
4f2cf,shallow,flow.Sequence,3_0_5_0_6_1,NA,NA,completion,9872.6760000001,679059.7,679054.488,679071.205,688943.881,688954,2023-10-13T18:12:48Z,688961.573,NULL,Tester,wanaojaribu,s,sherti,sihiri,mlipuko,NA,sdf,NA,5,NA,NA,NA,NA,NA,NA,NA,NA,NA,NA,NA,NA,NA,NA,NA,NA,NA,NA,NA
4f2cf,task,flow.Sequence,3_0_5_0_6,NA,NA,completion,9872.6760000001,679059.5,679054.488,679071.205,688943.881,688954.1,2023-10-13T18:12:48Z,688961.573,NULL,Tester,wanaojaribu,s,sherti,sihiri,mlipuko,NA,sdf,NA,5,NA,NA,NA,NA,NA,NA,NA,NA,NA,NA,NA,NA,NA,NA,NA,NA,NA,NA,NA
4f2cf,Deep Question,html.Page,3_0_5_0_7_0_0,NA,NA,form submission,6254.127000003,688954.2,688943.881,688961.573,695215.7,695216.2,2023-10-13T18:12:54Z,695231.156,NULL,Spionage,upelelezi,d,NA,NA,NA,upelelezi,NA,NA,5,NA,NA,NA,NA,NA,NA,NA,NA,NA,NA,NA,NA,NA,NA,NA,NA,NA,NA,NA
4f2cf,"""Richtig""-Screen",canvas.Screen,3_0_5_0_7_0_1,NA,NA,timeout,4995.272,695218.9,695213.265,695231.156,700206.615,700213.7,2023-10-13T18:12:59Z,700226.428,NULL,Spionage,upelelezi,d,NA,NA,NA,NA,sdf,1,5,NA,NA,NA,NA,NA,NA,NA,NA,NA,NA,NA,NA,NA,NA,NA,NA,NA,NA,NA
4f2cf,"""Falsch""-Screen",canvas.Screen,3_0_5_0_7_0_2,NA,NA,skipped,NA,700216.2,NA,NA,700206.615,700216.4,2023-10-13T18:12:59Z,700226.428,NULL,Spionage,upelelezi,d,NA,NA,NA,NA,sdf,NA,5,NA,NA,NA,NA,NA,NA,NA,NA,NA,NA,NA,NA,NA,NA,NA,NA,NA,NA,NA
4f2cf,deep,flow.Sequence,3_0_5_0_7_0,NA,NA,completion,11245.042,688954.2,688943.881,688961.573,700206.615,700216.6,2023-10-13T18:12:59Z,700226.428,NULL,Spionage,upelelezi,d,NA,NA,NA,NA,sdf,NA,5,NA,NA,NA,NA,NA,NA,NA,NA,NA,NA,NA,NA,NA,NA,NA,NA,NA,NA,NA
4f2cf,shallow,flow.Sequence,3_0_5_0_7_1,NA,NA,skipped,NA,700216.6,NA,NA,700206.615,700216.7,2023-10-13T18:12:59Z,700226.428,NULL,Spionage,upelelezi,d,NA,NA,NA,NA,sdf,NA,5,NA,NA,NA,NA,NA,NA,NA,NA,NA,NA,NA,NA,NA,NA,NA,NA,NA,NA,NA
4f2cf,task,flow.Sequence,3_0_5_0_7,NA,NA,completion,11245.042,688954.2,688943.881,688961.573,700206.615,700216.8,2023-10-13T18:12:59Z,700226.428,NULL,Spionage,upelelezi,d,NA,NA,NA,NA,sdf,NA,5,NA,NA,NA,NA,NA,NA,NA,NA,NA,NA,NA,NA,NA,NA,NA,NA,NA,NA,NA
4f2cf,block,flow.Loop,3_0_5_0,NA,NA,completion,80813.575,619375.9,619373.049,619393.04,700206.615,700217,2023-10-13T18:12:59Z,700226.428,NULL,NA,NA,NA,NA,NA,NA,NA,sdf,NA,5,NA,NA,NA,NA,NA,NA,NA,NA,NA,NA,NA,NA,NA,NA,NA,NA,NA,NA,NA
4f2cf,weiter,canvas.Screen,3_0_5_1,sdf,keypress(Space),response,1154.1720000015,700217.1,700206.615,700226.428,701380.6,701381.5,2023-10-13T18:13:01Z,701694.364,NULL,NA,NA,NA,NA,NA,NA,NA,sdf,NA,5,NA,NA,NA,NA,NA,NA,NA,NA,NA,NA,NA,NA,NA,NA,NA,NA,NA,NA,NA
4f2cf,check continue,flow.Sequence,3_0_5,NA,NA,completion,81987.560000001,619375.9,619373.049,619393.04,701380.6,701381.6,2023-10-13T18:13:01Z,701694.364,NULL,NA,NA,NA,NA,NA,NA,NA,sdf,NA,5,NA,NA,NA,NA,NA,NA,NA,NA,NA,NA,NA,NA,NA,NA,NA,NA,NA,NA,NA
4f2cf,check continue,flow.Sequence,3_0_6,NA,NA,skipped,NA,701420.2,NA,NA,701380.6,701420.4,2023-10-13T18:13:01Z,701694.364,NULL,NA,NA,NA,NA,NA,NA,NA,dfs,NA,6,NA,NA,NA,NA,NA,NA,NA,NA,NA,NA,NA,NA,NA,NA,NA,NA,NA,NA,NA
4f2cf,check continue,flow.Sequence,3_0_7,NA,NA,skipped,NA,701444.3,NA,NA,701380.6,701444.4,2023-10-13T18:13:01Z,701694.364,NULL,NA,NA,NA,NA,NA,NA,NA,df,NA,7,NA,NA,NA,NA,NA,NA,NA,NA,NA,NA,NA,NA,NA,NA,NA,NA,NA,NA,NA
4f2cf,check continue,flow.Sequence,3_0_8,NA,NA,skipped,NA,701461.3,NA,NA,701380.6,701461.4,2023-10-13T18:13:01Z,701694.364,NULL,NA,NA,NA,NA,NA,NA,NA,dfs,NA,8,NA,NA,NA,NA,NA,NA,NA,NA,NA,NA,NA,NA,NA,NA,NA,NA,NA,NA,NA
4f2cf,check continue,flow.Sequence,3_0_9,NA,NA,skipped,NA,701479.2,NA,NA,701380.6,701479.2,2023-10-13T18:13:01Z,701694.364,NULL,NA,NA,NA,NA,NA,NA,NA,dsf,NA,9,NA,NA,NA,NA,NA,NA,NA,NA,NA,NA,NA,NA,NA,NA,NA,NA,NA,NA,NA
4f2cf,check continue,flow.Sequence,3_0_10,NA,NA,skipped,NA,701492.7,NA,NA,701380.6,701492.8,2023-10-13T18:13:01Z,701694.364,NULL,NA,NA,NA,NA,NA,NA,NA,df,NA,10,NA,NA,NA,NA,NA,NA,NA,NA,NA,NA,NA,NA,NA,NA,NA,NA,NA,NA,NA
4f2cf,check continue,flow.Sequence,3_0_11,NA,NA,skipped,NA,701505,NA,NA,701380.6,701505.1,2023-10-13T18:13:01Z,701694.364,NULL,NA,NA,NA,NA,NA,NA,NA,dfs,NA,11,NA,NA,NA,NA,NA,NA,NA,NA,NA,NA,NA,NA,NA,NA,NA,NA,NA,NA,NA
4f2cf,check continue,flow.Sequence,3_0_12,NA,NA,skipped,NA,701517.7,NA,NA,701380.6,701517.8,2023-10-13T18:13:01Z,701694.364,NULL,NA,NA,NA,NA,NA,NA,NA,dsf,NA,12,NA,NA,NA,NA,NA,NA,NA,NA,NA,NA,NA,NA,NA,NA,NA,NA,NA,NA,NA
4f2cf,check continue,flow.Sequence,3_0_13,NA,NA,skipped,NA,701529.8,NA,NA,701380.6,701529.8,2023-10-13T18:13:01Z,701694.364,NULL,NA,NA,NA,NA,NA,NA,NA,dsf,NA,13,NA,NA,NA,NA,NA,NA,NA,NA,NA,NA,NA,NA,NA,NA,NA,NA,NA,NA,NA
4f2cf,check continue,flow.Sequence,3_0_14,NA,NA,skipped,NA,701541,NA,NA,701380.6,701541.2,2023-10-13T18:13:01Z,701694.364,NULL,NA,NA,NA,NA,NA,NA,NA,NA,NA,14,NA,NA,NA,NA,NA,NA,NA,NA,NA,NA,NA,NA,NA,NA,NA,NA,NA,NA,NA
4f2cf,check continue,flow.Sequence,3_0_15,NA,NA,skipped,NA,701552.9,NA,NA,701380.6,701553,2023-10-13T18:13:01Z,701694.364,NULL,NA,NA,NA,NA,NA,NA,NA,NA,NA,15,NA,NA,NA,NA,NA,NA,NA,NA,NA,NA,NA,NA,NA,NA,NA,NA,NA,NA,NA
4f2cf,check continue,flow.Sequence,3_0_16,NA,NA,skipped,NA,701563.7,NA,NA,701380.6,701563.7,2023-10-13T18:13:01Z,701694.364,NULL,NA,NA,NA,NA,NA,NA,NA,NA,NA,16,NA,NA,NA,NA,NA,NA,NA,NA,NA,NA,NA,NA,NA,NA,NA,NA,NA,NA,NA
4f2cf,check continue,flow.Sequence,3_0_17,NA,NA,skipped,NA,701574.6,NA,NA,701380.6,701574.6,2023-10-13T18:13:01Z,701694.364,NULL,NA,NA,NA,NA,NA,NA,NA,NA,NA,17,NA,NA,NA,NA,NA,NA,NA,NA,NA,NA,NA,NA,NA,NA,NA,NA,NA,NA,NA
4f2cf,check continue,flow.Sequence,3_0_18,NA,NA,skipped,NA,701585.8,NA,NA,701380.6,701585.9,2023-10-13T18:13:01Z,701694.364,NULL,NA,NA,NA,NA,NA,NA,NA,NA,NA,18,NA,NA,NA,NA,NA,NA,NA,NA,NA,NA,NA,NA,NA,NA,NA,NA,NA,NA,NA
4f2cf,check continue,flow.Sequence,3_0_19,NA,NA,skipped,NA,701597.2,NA,NA,701380.6,701597.3,2023-10-13T18:13:01Z,701694.364,NULL,NA,NA,NA,NA,NA,NA,NA,NA,NA,19,NA,NA,NA,NA,NA,NA,NA,NA,NA,NA,NA,NA,NA,NA,NA,NA,NA,NA,NA
4f2cf,check continue,flow.Sequence,3_0_20,NA,NA,skipped,NA,701608.5,NA,NA,701380.6,701608.6,2023-10-13T18:13:01Z,701694.364,NULL,NA,NA,NA,NA,NA,NA,NA,NA,NA,20,NA,NA,NA,NA,NA,NA,NA,NA,NA,NA,NA,NA,NA,NA,NA,NA,NA,NA,NA
4f2cf,check continue,flow.Sequence,3_0_21,NA,NA,skipped,NA,701619,NA,NA,701380.6,701619,2023-10-13T18:13:01Z,701694.364,NULL,NA,NA,NA,NA,NA,NA,NA,NA,NA,21,NA,NA,NA,NA,NA,NA,NA,NA,NA,NA,NA,NA,NA,NA,NA,NA,NA,NA,NA
4f2cf,check continue,flow.Sequence,3_0_22,NA,NA,skipped,NA,701632,NA,NA,701380.6,701632,2023-10-13T18:13:01Z,701694.364,NULL,NA,NA,NA,NA,NA,NA,NA,NA,NA,22,NA,NA,NA,NA,NA,NA,NA,NA,NA,NA,NA,NA,NA,NA,NA,NA,NA,NA,NA
4f2cf,check continue,flow.Sequence,3_0_23,NA,NA,skipped,NA,701642.5,NA,NA,701380.6,701642.5,2023-10-13T18:13:01Z,701694.364,NULL,NA,NA,NA,NA,NA,NA,NA,NA,NA,23,NA,NA,NA,NA,NA,NA,NA,NA,NA,NA,NA,NA,NA,NA,NA,NA,NA,NA,NA
4f2cf,check continue,flow.Sequence,3_0_24,NA,NA,skipped,NA,701655.2,NA,NA,701380.6,701655.3,2023-10-13T18:13:01Z,701694.364,NULL,NA,NA,NA,NA,NA,NA,NA,NA,NA,24,NA,NA,NA,NA,NA,NA,NA,NA,NA,NA,NA,NA,NA,NA,NA,NA,NA,NA,NA
4f2cf,check continue,flow.Sequence,3_0_25,NA,NA,skipped,NA,701664.8,NA,NA,701380.6,701665,2023-10-13T18:13:01Z,701694.364,NULL,NA,NA,NA,NA,NA,NA,NA,NA,NA,25,NA,NA,NA,NA,NA,NA,NA,NA,NA,NA,NA,NA,NA,NA,NA,NA,NA,NA,NA
4f2cf,check continue,flow.Sequence,3_0_26,NA,NA,skipped,NA,701676.1,NA,NA,701380.6,701676.2,2023-10-13T18:13:01Z,701694.364,NULL,NA,NA,NA,NA,NA,NA,NA,NA,NA,26,NA,NA,NA,NA,NA,NA,NA,NA,NA,NA,NA,NA,NA,NA,NA,NA,NA,NA,NA
4f2cf,check continue,flow.Sequence,3_0_27,NA,NA,skipped,NA,701686.3,NA,NA,701380.6,701686.4,2023-10-13T18:13:01Z,701694.364,NULL,NA,NA,NA,NA,NA,NA,NA,NA,NA,27,NA,NA,NA,NA,NA,NA,NA,NA,NA,NA,NA,NA,NA,NA,NA,NA,NA,NA,NA
4f2cf,check continue,flow.Sequence,3_0_28,NA,NA,skipped,NA,701697.5,NA,NA,701380.6,701697.5,2023-10-13T18:13:01Z,701694.364,NULL,NA,NA,NA,NA,NA,NA,NA,NA,NA,28,NA,NA,NA,NA,NA,NA,NA,NA,NA,NA,NA,NA,NA,NA,NA,NA,NA,NA,NA
4f2cf,check continue,flow.Sequence,3_0_29,NA,NA,skipped,NA,701707.4,NA,NA,701380.6,701707.4,2023-10-13T18:13:01Z,701694.364,NULL,NA,NA,NA,NA,NA,NA,NA,NA,NA,29,NA,NA,NA,NA,NA,NA,NA,NA,NA,NA,NA,NA,NA,NA,NA,NA,NA,NA,NA
4f2cf,until continue,flow.Loop,3_0,NA,NA,completion,527607.71,173728.1,173749.419,173772.89,701380.6,701707.5,2023-10-13T18:13:01Z,701694.364,NULL,NA,NA,NA,NA,NA,NA,NA,NA,NA,NA,NA,NA,NA,NA,NA,NA,NA,NA,NA,NA,NA,NA,NA,NA,NA,NA,NA,NA,NA
4f2cf,block 1,flow.Sequence,3,NA,NA,completion,527607.71,173728.1,173749.419,173772.89,701380.6,701707.5,2023-10-13T18:13:01Z,701694.364,NULL,NA,NA,NA,NA,NA,NA,NA,NA,NA,NA,NA,NA,NA,NA,NA,NA,NA,NA,NA,NA,NA,NA,NA,NA,NA,NA,NA,NA,NA
4f2cf,1.Part Over,canvas.Screen,4,NA,keypress(Space),response,2322.1360000001,701707.6,701375.277,701694.364,704016.5,704017,2023-10-13T18:13:03Z,704091.39,NULL,NA,NA,NA,NA,NA,NA,NA,NA,NA,NA,NA,NA,NA,NA,NA,NA,NA,NA,NA,NA,NA,NA,NA,NA,NA,NA,NA,NA,NA
4f2cf,deep,flow.Sequence,5_0_0_0_0_0,NA,NA,skipped,NA,704074.1,NA,NA,704016.5,704074.2,2023-10-13T18:13:03Z,704091.39,NULL,Beweis,ushahidi,s,marudio,kizuizi,mtendaji,NA,sdf,NA,0,NA,NA,NA,NA,NA,NA,NA,NA,NA,NA,NA,NA,NA,NA,NA,NA,NA,NA,NA
4f2cf,Shallow Question,html.Page,5_0_0_0_0_1_0,NA,NA,form submission,6351.11,704074.2,704066.248,704091.39,710442.5,710442.8,2023-10-13T18:13:10Z,710457.254,NULL,Beweis,ushahidi,s,marudio,kizuizi,mtendaji,ushahidi,NA,NA,0,NA,NA,NA,NA,NA,NA,NA,NA,NA,NA,NA,NA,NA,NA,NA,NA,NA,NA,NA
4f2cf,"""Richtig""-Screen",canvas.Screen,5_0_0_0_0_1_1,NA,NA,timeout,5000.782,710445.2,710436.23,710457.254,715440.204,715441.2,2023-10-13T18:13:15Z,715458.036,NULL,Beweis,ushahidi,s,marudio,kizuizi,mtendaji,NA,sdf,1,0,NA,NA,NA,NA,NA,NA,NA,NA,NA,NA,NA,NA,NA,NA,NA,NA,NA,NA,NA
4f2cf,"""Falsch""-Screen",canvas.Screen,5_0_0_0_0_1_2,NA,NA,skipped,NA,715444.6,NA,NA,715440.204,715444.8,2023-10-13T18:13:15Z,715458.036,NULL,Beweis,ushahidi,s,marudio,kizuizi,mtendaji,NA,sdf,NA,0,NA,NA,NA,NA,NA,NA,NA,NA,NA,NA,NA,NA,NA,NA,NA,NA,NA,NA,NA
4f2cf,shallow,flow.Sequence,5_0_0_0_0_1,NA,NA,completion,11348.814,704074.2,704066.248,704091.39,715440.204,715445,2023-10-13T18:13:15Z,715458.036,NULL,Beweis,ushahidi,s,marudio,kizuizi,mtendaji,NA,sdf,NA,0,NA,NA,NA,NA,NA,NA,NA,NA,NA,NA,NA,NA,NA,NA,NA,NA,NA,NA,NA
4f2cf,task,flow.Sequence,5_0_0_0_0,NA,NA,completion,11348.814,704074.1,704066.248,704091.39,715440.204,715445.2,2023-10-13T18:13:15Z,715458.036,NULL,Beweis,ushahidi,s,marudio,kizuizi,mtendaji,NA,sdf,NA,0,NA,NA,NA,NA,NA,NA,NA,NA,NA,NA,NA,NA,NA,NA,NA,NA,NA,NA,NA
4f2cf,deep,flow.Sequence,5_0_0_0_1_0,NA,NA,skipped,NA,715445.3,NA,NA,715440.204,715445.3,2023-10-13T18:13:15Z,715458.036,NULL,Polizist,msongora,s,simanzi,mandhari,nidhamu,NA,sdf,NA,0,NA,NA,NA,NA,NA,NA,NA,NA,NA,NA,NA,NA,NA,NA,NA,NA,NA,NA,NA
4f2cf,Shallow Question,html.Page,5_0_0_0_1_1_0,NA,NA,form submission,4812.464,715445.5,715440.204,715458.036,720270.5,720270.7,2023-10-13T18:13:20Z,720292.054,NULL,Polizist,msongora,s,simanzi,mandhari,nidhamu,simanzi,NA,NA,0,NA,NA,NA,NA,NA,NA,NA,NA,NA,NA,NA,NA,NA,NA,NA,NA,NA,NA,NA
4f2cf,"""Richtig""-Screen",canvas.Screen,5_0_0_0_1_1_1,NA,NA,skipped,NA,720273.2,NA,NA,720270.5,720273.3,2023-10-13T18:13:20Z,720292.054,NULL,Polizist,msongora,s,simanzi,mandhari,nidhamu,NA,sdf,NA,0,NA,NA,NA,NA,NA,NA,NA,NA,NA,NA,NA,NA,NA,NA,NA,NA,NA,NA,NA
