observation,sender,sender_type,sender_id,response,response_action,ended_on,duration,time_run,time_render,time_show,time_end,time_commit,timestamp,time_switch,distractors,german,swahili,enc,distractor1,distractor2,distractor3,response_2,x,correct,x_2,url_vp,url_sess,meta_labjs_version,meta_location,meta_user_agent,meta_platform,meta_language,meta_locale,meta_time_zone,meta_timezone_offset,meta_screen_width,meta_screen_height,meta_scroll_width,meta_scroll_height,meta_window_inner_width,meta_window_inner_height,meta_device_pixel_ratio,meta_labjs_build_flavor,meta_labjs_build_commit
29667,Introduction general,canvas.Screen,0,weiter,keypress(q),response,3203143.5180003,305.59999990463,298.998,315.682,3203459.2000003,3203462.8000002,2023-06-22T16:02:09Z,3203471.169,NULL,NA,NA,NA,NA,NA,NA,NA,NA,NA,NA,216,3,20.2.4,https://neurocog.fernuni.ch/studies/vweber/sfink/encoding_immediate/index.html?vp=216&sess=3,"Mozilla/5.0 (Windows NT 10.0; Win64; x64) AppleWebKit/537.36 (KHTML, like Gecko) Chrome/114.0.0.0 Safari/537.36",Win32,de-CH,de,Europe/Zurich,-120,1536,864,1536,706,1536,754,1.25,production,f5b4a49f956347addd546a832a3327688c2c0fef
29667,Introduction practice,canvas.Screen,1_0,NA,keypress(Space),response,8178.6310001905,3203463.0999999,3203451.45,3203471.169,3211649.8000002,3211650.3000002,2023-06-22T16:02:17Z,3211664.352,NULL,NA,NA,NA,NA,NA,NA,NA,NA,NA,NA,NA,NA,NA,NA,NA,NA,NA,NA,NA,NA,NA,NA,NA,NA,NA,NA,NA,NA,NA
29667,deep,flow.Sequence,1_1_0_0,NA,NA,skipped,NA,3211650.5,NA,NA,3211649.8000002,3211652,2023-06-22T16:02:17Z,3211664.352,"c(""distractor1"", ""distractor2"", ""distractor3"")",Rückhalt,msaada,s,muhula,auwali,kiwimbe,NA,NA,NA,NA,NA,NA,NA,NA,NA,NA,NA,NA,NA,NA,NA,NA,NA,NA,NA,NA,NA,NA,NA
29667,Shallow Question,html.Page,1_1_0_1_0,NA,NA,form submission,4198.2479999047,3211652.2000003,3211647.303,3211664.352,3215862.5999999,3215862.9000001,2023-06-22T16:02:21Z,3215877.556,"c(""distractor1"", ""distractor2"", ""distractor3"")",Rückhalt,msaada,s,muhula,auwali,kiwimbe,muhula,NA,NA,NA,NA,NA,NA,NA,NA,NA,NA,NA,NA,NA,NA,NA,NA,NA,NA,NA,NA,NA,NA
29667,"""Richtig""-Screen",canvas.Screen,1_1_0_1_1,NA,NA,skipped,NA,3215864.9000001,NA,NA,3215862.5999999,3215865.0999999,2023-06-22T16:02:21Z,3215877.556,"c(""distractor1"", ""distractor2"", ""distractor3"")",Rückhalt,msaada,s,muhula,auwali,kiwimbe,NA,NA,NA,NA,NA,NA,NA,NA,NA,NA,NA,NA,NA,NA,NA,NA,NA,NA,NA,NA,NA,NA,NA
29667,"""Falsch""-Screen",canvas.Screen,1_1_0_1_2,NA,NA,timeout,4995.8930000002,3215866.5999999,3215844.229,3215877.556,3220856.84,3220858.8000002,2023-06-22T16:02:26Z,3220873.449,"c(""distractor1"", ""distractor2"", ""distractor3"")",Rückhalt,msaada,s,muhula,auwali,kiwimbe,NA,NA,0,NA,NA,NA,NA,NA,NA,NA,NA,NA,NA,NA,NA,NA,NA,NA,NA,NA,NA,NA,NA
29667,shallow,flow.Sequence,1_1_0_1,NA,NA,completion,9192.4879999999,3211652.2000003,3211647.303,3211664.352,3220856.84,3220859.0999999,2023-06-22T16:02:26Z,3220873.449,"c(""distractor1"", ""distractor2"", ""distractor3"")",Rückhalt,msaada,s,muhula,auwali,kiwimbe,NA,NA,NA,NA,NA,NA,NA,NA,NA,NA,NA,NA,NA,NA,NA,NA,NA,NA,NA,NA,NA,NA,NA
29667,task,flow.Sequence,1_1_0,NA,NA,completion,9192.4879999999,3211650.5,3211647.303,3211664.352,3220856.84,3220859.3000002,2023-06-22T16:02:26Z,3220873.449,"c(""distractor1"", ""distractor2"", ""distractor3"")",Rückhalt,msaada,s,muhula,auwali,kiwimbe,NA,NA,NA,NA,NA,NA,NA,NA,NA,NA,NA,NA,NA,NA,NA,NA,NA,NA,NA,NA,NA,NA,NA
29667,Deep Question,html.Page,1_1_1_0_0,NA,NA,form submission,3090.2510002861,3220859.5999999,3220856.84,3220873.449,3223963.7000003,3223964,2023-06-22T16:02:29Z,3223970.902,"c(""distractor1"", ""distractor2"", ""distractor3"")",Qualität,mtindo,d,NA,NA,NA,dfaop,NA,NA,NA,NA,NA,NA,NA,NA,NA,NA,NA,NA,NA,NA,NA,NA,NA,NA,NA,NA,NA,NA
29667,"""Richtig""-Screen",canvas.Screen,1_1_1_0_1,NA,NA,skipped,NA,3223966.0999999,NA,NA,3223963.7000003,3223966.3000002,2023-06-22T16:02:29Z,3223970.902,"c(""distractor1"", ""distractor2"", ""distractor3"")",Qualität,mtindo,d,NA,NA,NA,NA,NA,NA,NA,NA,NA,NA,NA,NA,NA,NA,NA,NA,NA,NA,NA,NA,NA,NA,NA,NA,NA,NA
29667,"""Falsch""-Screen",canvas.Screen,1_1_1_0_2,NA,NA,timeout,4995.9170000004,3223967.3000002,3223954.267,3223970.902,3228950.183,3228950.7000003,2023-06-22T16:02:34Z,3228966.819,"c(""distractor1"", ""distractor2"", ""distractor3"")",Qualität,mtindo,d,NA,NA,NA,NA,NA,0,NA,NA,NA,NA,NA,NA,NA,NA,NA,NA,NA,NA,NA,NA,NA,NA,NA,NA,NA,NA
29667,deep,flow.Sequence,1_1_1_0,NA,NA,completion,8076.7340000002,3220859.5,3220856.84,3220873.449,3228950.183,3228950.8000002,2023-06-22T16:02:34Z,3228966.819,"c(""distractor1"", ""distractor2"", ""distractor3"")",Qualität,mtindo,d,NA,NA,NA,NA,NA,NA,NA,NA,NA,NA,NA,NA,NA,NA,NA,NA,NA,NA,NA,NA,NA,NA,NA,NA,NA,NA
29667,shallow,flow.Sequence,1_1_1_1,NA,NA,skipped,NA,3228950.8000002,NA,NA,3228950.183,3228950.9000001,2023-06-22T16:02:34Z,3228966.819,"c(""distractor1"", ""distractor2"", ""distractor3"")",Qualität,mtindo,d,NA,NA,NA,NA,NA,NA,NA,NA,NA,NA,NA,NA,NA,NA,NA,NA,NA,NA,NA,NA,NA,NA,NA,NA,NA,NA
29667,task,flow.Sequence,1_1_1,NA,NA,completion,8076.7340000002,3220859.4000001,3220856.84,3220873.449,3228950.183,3228951,2023-06-22T16:02:34Z,3228966.819,"c(""distractor1"", ""distractor2"", ""distractor3"")",Qualität,mtindo,d,NA,NA,NA,NA,NA,NA,NA,NA,NA,NA,NA,NA,NA,NA,NA,NA,NA,NA,NA,NA,NA,NA,NA,NA,NA,NA
29667,Deep Question,html.Page,1_1_2_0_0,NA,NA,form submission,2728.6809999999,3228951.0999999,3228950.183,3228966.819,3231695.5,3231695.8000002,2023-06-22T16:02:37Z,3231697.877,"c(""distractor1"", ""distractor2"", ""distractor3"")",Gesundheit,salama,d,NA,NA,NA,ih,NA,NA,NA,NA,NA,NA,NA,NA,NA,NA,NA,NA,NA,NA,NA,NA,NA,NA,NA,NA,NA,NA
29667,"""Richtig""-Screen",canvas.Screen,1_1_2_0_1,NA,NA,skipped,NA,3231698.2000003,NA,NA,3231695.5,3231698.4000001,2023-06-22T16:02:37Z,3231697.877,"c(""distractor1"", ""distractor2"", ""distractor3"")",Gesundheit,salama,d,NA,NA,NA,NA,NA,NA,NA,NA,NA,NA,NA,NA,NA,NA,NA,NA,NA,NA,NA,NA,NA,NA,NA,NA,NA,NA
29667,"""Falsch""-Screen",canvas.Screen,1_1_2_0_2,NA,NA,timeout,4995.923,3231699.5,3231681.306,3231697.877,3236677.141,3236677.5999999,2023-06-22T16:02:42Z,3236693.8,"c(""distractor1"", ""distractor2"", ""distractor3"")",Gesundheit,salama,d,NA,NA,NA,NA,NA,0,NA,NA,NA,NA,NA,NA,NA,NA,NA,NA,NA,NA,NA,NA,NA,NA,NA,NA,NA,NA
29667,deep,flow.Sequence,1_1_2_0,NA,NA,completion,7710.3219999997,3228951.0999999,3228950.183,3228966.819,3236677.141,3236677.7000003,2023-06-22T16:02:42Z,3236693.8,"c(""distractor1"", ""distractor2"", ""distractor3"")",Gesundheit,salama,d,NA,NA,NA,NA,NA,NA,NA,NA,NA,NA,NA,NA,NA,NA,NA,NA,NA,NA,NA,NA,NA,NA,NA,NA,NA,NA
29667,shallow,flow.Sequence,1_1_2_1,NA,NA,skipped,NA,3236677.8000002,NA,NA,3236677.141,3236677.9000001,2023-06-22T16:02:42Z,3236693.8,"c(""distractor1"", ""distractor2"", ""distractor3"")",Gesundheit,salama,d,NA,NA,NA,NA,NA,NA,NA,NA,NA,NA,NA,NA,NA,NA,NA,NA,NA,NA,NA,NA,NA,NA,NA,NA,NA,NA
29667,task,flow.Sequence,1_1_2,NA,NA,completion,7710.3219999997,3228951,3228950.183,3228966.819,3236677.141,3236678,2023-06-22T16:02:42Z,3236693.8,"c(""distractor1"", ""distractor2"", ""distractor3"")",Gesundheit,salama,d,NA,NA,NA,NA,NA,NA,NA,NA,NA,NA,NA,NA,NA,NA,NA,NA,NA,NA,NA,NA,NA,NA,NA,NA,NA,NA
29667,Deep Question,html.Page,1_1_3_0_0,NA,NA,form submission,2453.2000000002,3236678,3236677.141,3236693.8,3239147,3239147.3000002,2023-06-22T16:02:45Z,3239158.399,"c(""distractor1"", ""distractor2"", ""distractor3"")",Schatten,kivuli,d,NA,NA,NA,rtf,NA,NA,NA,NA,NA,NA,NA,NA,NA,NA,NA,NA,NA,NA,NA,NA,NA,NA,NA,NA,NA,NA
29667,"""Richtig""-Screen",canvas.Screen,1_1_3_0_1,NA,NA,skipped,NA,3239150.2000003,NA,NA,3239147,3239150.4000001,2023-06-22T16:02:45Z,3239158.399,"c(""distractor1"", ""distractor2"", ""distractor3"")",Schatten,kivuli,d,NA,NA,NA,NA,NA,NA,NA,NA,NA,NA,NA,NA,NA,NA,NA,NA,NA,NA,NA,NA,NA,NA,NA,NA,NA,NA
29667,"""Falsch""-Screen",canvas.Screen,1_1_3_0_2,NA,NA,timeout,4995.8839999996,3239152.3000002,3239141.777,3239158.399,3244137.676,3244138.2000003,2023-06-22T16:02:50Z,3244154.283,"c(""distractor1"", ""distractor2"", ""distractor3"")",Schatten,kivuli,d,NA,NA,NA,NA,NA,0,NA,NA,NA,NA,NA,NA,NA,NA,NA,NA,NA,NA,NA,NA,NA,NA,NA,NA,NA,NA
29667,deep,flow.Sequence,1_1_3_0,NA,NA,completion,7443.8760000002,3236678,3236677.141,3236693.8,3244137.676,3244138.4000001,2023-06-22T16:02:50Z,3244154.283,"c(""distractor1"", ""distractor2"", ""distractor3"")",Schatten,kivuli,d,NA,NA,NA,NA,NA,NA,NA,NA,NA,NA,NA,NA,NA,NA,NA,NA,NA,NA,NA,NA,NA,NA,NA,NA,NA,NA
29667,shallow,flow.Sequence,1_1_3_1,NA,NA,skipped,NA,3244138.5,NA,NA,3244137.676,3244138.5999999,2023-06-22T16:02:50Z,3244154.283,"c(""distractor1"", ""distractor2"", ""distractor3"")",Schatten,kivuli,d,NA,NA,NA,NA,NA,NA,NA,NA,NA,NA,NA,NA,NA,NA,NA,NA,NA,NA,NA,NA,NA,NA,NA,NA,NA,NA
29667,task,flow.Sequence,1_1_3,NA,NA,completion,7443.8760000002,3236678,3236677.141,3236693.8,3244137.676,3244138.7000003,2023-06-22T16:02:50Z,3244154.283,"c(""distractor1"", ""distractor2"", ""distractor3"")",Schatten,kivuli,d,NA,NA,NA,NA,NA,NA,NA,NA,NA,NA,NA,NA,NA,NA,NA,NA,NA,NA,NA,NA,NA,NA,NA,NA,NA,NA
29667,deep,flow.Sequence,1_1_4_0,NA,NA,skipped,NA,3244138.7000003,NA,NA,3244137.676,3244138.8000002,2023-06-22T16:02:50Z,3244154.283,"c(""distractor1"", ""distractor2"", ""distractor3"")",Kritik,lawama,s,dereva,nafasi,mawazo,NA,NA,NA,NA,NA,NA,NA,NA,NA,NA,NA,NA,NA,NA,NA,NA,NA,NA,NA,NA,NA,NA,NA
29667,Shallow Question,html.Page,1_1_4_1_0,NA,NA,form submission,2731.1170000955,3244139,3244137.676,3244154.283,3246885.4000001,3246885.5999999,2023-06-22T16:02:52Z,3246902.927,"c(""distractor1"", ""distractor2"", ""distractor3"")",Kritik,lawama,s,dereva,nafasi,mawazo,mawazo,NA,NA,NA,NA,NA,NA,NA,NA,NA,NA,NA,NA,NA,NA,NA,NA,NA,NA,NA,NA,NA,NA
29667,"""Richtig""-Screen",canvas.Screen,1_1_4_1_1,NA,NA,skipped,NA,3246888.2000003,NA,NA,3246885.4000001,3246888.3000002,2023-06-22T16:02:52Z,3246902.927,"c(""distractor1"", ""distractor2"", ""distractor3"")",Kritik,lawama,s,dereva,nafasi,mawazo,NA,NA,NA,NA,NA,NA,NA,NA,NA,NA,NA,NA,NA,NA,NA,NA,NA,NA,NA,NA,NA,NA,NA
29667,"""Falsch""-Screen",canvas.Screen,1_1_4_1_2,NA,NA,timeout,4994.9759999998,3246889.4000001,3246868.722,3246902.927,3251881.305,3251881.9000001,2023-06-22T16:02:57Z,3251897.903,"c(""distractor1"", ""distractor2"", ""distractor3"")",Kritik,lawama,s,dereva,nafasi,mawazo,NA,NA,0,NA,NA,NA,NA,NA,NA,NA,NA,NA,NA,NA,NA,NA,NA,NA,NA,NA,NA,NA,NA
29667,shallow,flow.Sequence,1_1_4_1,NA,NA,completion,7727.0220000003,3244138.9000001,3244137.676,3244154.283,3251881.305,3251882.0999999,2023-06-22T16:02:57Z,3251897.903,"c(""distractor1"", ""distractor2"", ""distractor3"")",Kritik,lawama,s,dereva,nafasi,mawazo,NA,NA,NA,NA,NA,NA,NA,NA,NA,NA,NA,NA,NA,NA,NA,NA,NA,NA,NA,NA,NA,NA,NA
29667,task,flow.Sequence,1_1_4,NA,NA,completion,7727.0220000003,3244138.7000003,3244137.676,3244154.283,3251881.305,3251882.2000003,2023-06-22T16:02:57Z,3251897.903,"c(""distractor1"", ""distractor2"", ""distractor3"")",Kritik,lawama,s,dereva,nafasi,mawazo,NA,NA,NA,NA,NA,NA,NA,NA,NA,NA,NA,NA,NA,NA,NA,NA,NA,NA,NA,NA,NA,NA,NA
29667,deep,flow.Sequence,1_1_5_0,NA,NA,skipped,NA,3251882.3000002,NA,NA,3251881.305,3251882.4000001,2023-06-22T16:02:57Z,3251897.903,"c(""distractor1"", ""distractor2"", ""distractor3"")",Gegenwart,hadhara,s,katiba,jokofu,mikopo,NA,NA,NA,NA,NA,NA,NA,NA,NA,NA,NA,NA,NA,NA,NA,NA,NA,NA,NA,NA,NA,NA,NA
29667,Shallow Question,html.Page,1_1_5_1_0,NA,NA,form submission,2480.6969999047,3251882.5,3251881.305,3251897.903,3254378.5999999,3254378.7000003,2023-06-22T16:03:00Z,3254379.208,"c(""distractor1"", ""distractor2"", ""distractor3"")",Gegenwart,hadhara,s,katiba,jokofu,mikopo,katiba,NA,NA,NA,NA,NA,NA,NA,NA,NA,NA,NA,NA,NA,NA,NA,NA,NA,NA,NA,NA,NA,NA
29667,"""Richtig""-Screen",canvas.Screen,1_1_5_1_1,NA,NA,skipped,NA,3254380.7000003,NA,NA,3254378.5999999,3254380.9000001,2023-06-22T16:03:00Z,3254379.208,"c(""distractor1"", ""distractor2"", ""distractor3"")",Gegenwart,hadhara,s,katiba,jokofu,mikopo,NA,NA,NA,NA,NA,NA,NA,NA,NA,NA,NA,NA,NA,NA,NA,NA,NA,NA,NA,NA,NA,NA,NA
29667,"""Falsch""-Screen",canvas.Screen,1_1_5_1_2,NA,NA,timeout,4995.8989999997,3254381.5999999,3254362.567,3254379.208,3259358.473,3259359.0999999,2023-06-22T16:03:05Z,3259375.107,"c(""distractor1"", ""distractor2"", ""distractor3"")",Gegenwart,hadhara,s,katiba,jokofu,mikopo,NA,NA,0,NA,NA,NA,NA,NA,NA,NA,NA,NA,NA,NA,NA,NA,NA,NA,NA,NA,NA,NA,NA
29667,shallow,flow.Sequence,1_1_5_1,NA,NA,completion,7460.5700000003,3251882.5,3251881.305,3251897.903,3259358.473,3259359.3000002,2023-06-22T16:03:05Z,3259375.107,"c(""distractor1"", ""distractor2"", ""distractor3"")",Gegenwart,hadhara,s,katiba,jokofu,mikopo,NA,NA,NA,NA,NA,NA,NA,NA,NA,NA,NA,NA,NA,NA,NA,NA,NA,NA,NA,NA,NA,NA,NA
29667,task,flow.Sequence,1_1_5,NA,NA,completion,7460.5700000003,3251882.3000002,3251881.305,3251897.903,3259358.473,3259359.4000001,2023-06-22T16:03:05Z,3259375.107,"c(""distractor1"", ""distractor2"", ""distractor3"")",Gegenwart,hadhara,s,katiba,jokofu,mikopo,NA,NA,NA,NA,NA,NA,NA,NA,NA,NA,NA,NA,NA,NA,NA,NA,NA,NA,NA,NA,NA,NA,NA
29667,block,flow.Loop,1_1,NA,NA,completion,47694.121,3211650.5,3211647.303,3211664.352,3259358.473,3259359.5999999,2023-06-22T16:03:05Z,3259375.107,"c(""distractor1"", ""distractor2"", ""distractor3"")",NA,NA,NA,NA,NA,NA,NA,NA,NA,NA,NA,NA,NA,NA,NA,NA,NA,NA,NA,NA,NA,NA,NA,NA,NA,NA,NA,NA,NA
29667,Practice,flow.Sequence,1,NA,NA,completion,55887.304,3203463.0999999,3203451.45,3203471.169,3259358.473,3259359.7000003,2023-06-22T16:03:05Z,3259375.107,NULL,NA,NA,NA,NA,NA,NA,NA,NA,NA,NA,NA,NA,NA,NA,NA,NA,NA,NA,NA,NA,NA,NA,NA,NA,NA,NA,NA,NA,NA
29667,Experiment start,canvas.Screen,2,weiter,keypress(q),response,8824.0930002863,3259359.8000002,3259358.473,3259375.107,3268199.2000003,3268199.8000002,2023-06-22T16:03:14Z,3268301.075,NULL,NA,NA,NA,NA,NA,NA,NA,NA,NA,NA,NA,NA,NA,NA,NA,NA,NA,NA,NA,NA,NA,NA,NA,NA,NA,NA,NA,NA,NA
29667,deep,flow.Sequence,3_0_0_0_0_0,NA,NA,skipped,NA,3268297.8000002,NA,NA,3268199.2000003,3268297.9000001,2023-06-22T16:03:14Z,3268301.075,NULL,Theorie,nadharia,s,ushungi,mkutano,uwakilishi,NA,sdf,NA,0,NA,NA,NA,NA,NA,NA,NA,NA,NA,NA,NA,NA,NA,NA,NA,NA,NA,NA,NA
29667,Shallow Question,html.Page,3_0_0_0_0_1_0,NA,NA,form submission,3594.7250001905,3268298.0999999,3268284.014,3268301.075,3271895.8000002,3271896.0999999,2023-06-22T16:03:17Z,3271898.122,NULL,Theorie,nadharia,s,ushungi,mkutano,uwakilishi,ushungi,NA,NA,0,NA,NA,NA,NA,NA,NA,NA,NA,NA,NA,NA,NA,NA,NA,NA,NA,NA,NA,NA
29667,"""Richtig""-Screen",canvas.Screen,3_0_0_0_0_1_1,NA,NA,skipped,NA,3271897,NA,NA,3271895.8000002,3271897.2000003,2023-06-22T16:03:17Z,3271898.122,NULL,Theorie,nadharia,s,ushungi,mkutano,uwakilishi,NA,sdf,NA,0,NA,NA,NA,NA,NA,NA,NA,NA,NA,NA,NA,NA,NA,NA,NA,NA,NA,NA,NA
29667,"""Falsch""-Screen",canvas.Screen,3_0_0_0_0_1_2,NA,NA,timeout,4995.9210000001,3271898.0999999,3271881.461,3271898.122,3276877.401,3276877.9000001,2023-06-22T16:03:22Z,3276894.043,NULL,Theorie,nadharia,s,ushungi,mkutano,uwakilishi,NA,sdf,0,0,NA,NA,NA,NA,NA,NA,NA,NA,NA,NA,NA,NA,NA,NA,NA,NA,NA,NA,NA
29667,shallow,flow.Sequence,3_0_0_0_0_1,NA,NA,completion,8576.3259999999,3268298.0999999,3268284.014,3268301.075,3276877.401,3276878.0999999,2023-06-22T16:03:22Z,3276894.043,NULL,Theorie,nadharia,s,ushungi,mkutano,uwakilishi,NA,sdf,NA,0,NA,NA,NA,NA,NA,NA,NA,NA,NA,NA,NA,NA,NA,NA,NA,NA,NA,NA,NA
29667,task,flow.Sequence,3_0_0_0_0,NA,NA,completion,8576.3259999999,3268297.7000003,3268284.014,3268301.075,3276877.401,3276878.3000002,2023-06-22T16:03:22Z,3276894.043,NULL,Theorie,nadharia,s,ushungi,mkutano,uwakilishi,NA,sdf,NA,0,NA,NA,NA,NA,NA,NA,NA,NA,NA,NA,NA,NA,NA,NA,NA,NA,NA,NA,NA
29667,Deep Question,html.Page,3_0_0_0_1_0_0,NA,NA,form submission,3154.0569999046,3276878.4000001,3276877.401,3276894.043,3280048.0999999,3280048.2000003,2023-06-22T16:03:26Z,3280058.071,NULL,Erneuerung,ukarabati,d,NA,NA,NA,fa,NA,NA,0,NA,NA,NA,NA,NA,NA,NA,NA,NA,NA,NA,NA,NA,NA,NA,NA,NA,NA,NA
29667,"""Richtig""-Screen",canvas.Screen,3_0_0_0_1_0_1,NA,NA,skipped,NA,3280050.0999999,NA,NA,3280048.0999999,3280050.4000001,2023-06-22T16:03:26Z,3280058.071,NULL,Erneuerung,ukarabati,d,NA,NA,NA,NA,sdf,NA,0,NA,NA,NA,NA,NA,NA,NA,NA,NA,NA,NA,NA,NA,NA,NA,NA,NA,NA,NA
29667,"""Falsch""-Screen",canvas.Screen,3_0_0_0_1_0_2,NA,NA,timeout,4995.9300000002,3280050.9000001,3280041.456,3280058.071,3285037.346,3285037.9000001,2023-06-22T16:03:31Z,3285054.001,NULL,Erneuerung,ukarabati,d,NA,NA,NA,NA,sdf,0,0,NA,NA,NA,NA,NA,NA,NA,NA,NA,NA,NA,NA,NA,NA,NA,NA,NA,NA,NA
29667,deep,flow.Sequence,3_0_0_0_1_0,NA,NA,completion,8143.3029999998,3276878.4000001,3276877.401,3276894.043,3285037.346,3285038.0999999,2023-06-22T16:03:31Z,3285054.001,NULL,Erneuerung,ukarabati,d,NA,NA,NA,NA,sdf,NA,0,NA,NA,NA,NA,NA,NA,NA,NA,NA,NA,NA,NA,NA,NA,NA,NA,NA,NA,NA
29667,shallow,flow.Sequence,3_0_0_0_1_1,NA,NA,skipped,NA,3285038.0999999,NA,NA,3285037.346,3285038.2000003,2023-06-22T16:03:31Z,3285054.001,NULL,Erneuerung,ukarabati,d,NA,NA,NA,NA,sdf,NA,0,NA,NA,NA,NA,NA,NA,NA,NA,NA,NA,NA,NA,NA,NA,NA,NA,NA,NA,NA
29667,task,flow.Sequence,3_0_0_0_1,NA,NA,completion,8143.3029999998,3276878.4000001,3276877.401,3276894.043,3285037.346,3285038.3000002,2023-06-22T16:03:31Z,3285054.001,NULL,Erneuerung,ukarabati,d,NA,NA,NA,NA,sdf,NA,0,NA,NA,NA,NA,NA,NA,NA,NA,NA,NA,NA,NA,NA,NA,NA,NA,NA,NA,NA
29667,deep,flow.Sequence,3_0_0_0_2_0,NA,NA,skipped,NA,3285038.4000001,NA,NA,3285037.346,3285038.4000001,2023-06-22T16:03:31Z,3285054.001,NULL,Atmosphäre,angahewa,s,kuteseka,usahihi,kutoamini,NA,sdf,NA,0,NA,NA,NA,NA,NA,NA,NA,NA,NA,NA,NA,NA,NA,NA,NA,NA,NA,NA,NA
29667,Shallow Question,html.Page,3_0_0_0_2_1_0,NA,NA,form submission,4189.5989999045,3285038.5999999,3285037.346,3285054.001,3289243.5999999,3289243.8000002,2023-06-22T16:03:35Z,3289250.5,NULL,Atmosphäre,angahewa,s,kuteseka,usahihi,kutoamini,kutoamini,NA,NA,0,NA,NA,NA,NA,NA,NA,NA,NA,NA,NA,NA,NA,NA,NA,NA,NA,NA,NA,NA
29667,"""Richtig""-Screen",canvas.Screen,3_0_0_0_2_1_1,NA,NA,skipped,NA,3289245.9000001,NA,NA,3289243.5999999,3289246.0999999,2023-06-22T16:03:35Z,3289250.5,NULL,Atmosphäre,angahewa,s,kuteseka,usahihi,kutoamini,NA,sdf,NA,0,NA,NA,NA,NA,NA,NA,NA,NA,NA,NA,NA,NA,NA,NA,NA,NA,NA,NA,NA
29667,"""Falsch""-Screen",canvas.Screen,3_0_0_0_2_1_2,NA,NA,timeout,4995.9210000001,3289246.9000001,3289233.917,3289250.5,3294229.772,3294230.3000002,2023-06-22T16:03:40Z,3294246.421,NULL,Atmosphäre,angahewa,s,kuteseka,usahihi,kutoamini,NA,sdf,0,0,NA,NA,NA,NA,NA,NA,NA,NA,NA,NA,NA,NA,NA,NA,NA,NA,NA,NA,NA
29667,shallow,flow.Sequence,3_0_0_0_2_1,NA,NA,completion,9175.7709999997,3285038.5999999,3285037.346,3285054.001,3294229.772,3294230.5999999,2023-06-22T16:03:40Z,3294246.421,NULL,Atmosphäre,angahewa,s,kuteseka,usahihi,kutoamini,NA,sdf,NA,0,NA,NA,NA,NA,NA,NA,NA,NA,NA,NA,NA,NA,NA,NA,NA,NA,NA,NA,NA
29667,task,flow.Sequence,3_0_0_0_2,NA,NA,completion,9175.7709999997,3285038.4000001,3285037.346,3285054.001,3294229.772,3294230.5999999,2023-06-22T16:03:40Z,3294246.421,NULL,Atmosphäre,angahewa,s,kuteseka,usahihi,kutoamini,NA,sdf,NA,0,NA,NA,NA,NA,NA,NA,NA,NA,NA,NA,NA,NA,NA,NA,NA,NA,NA,NA,NA
29667,Deep Question,html.Page,3_0_0_0_3_0_0,NA,NA,form submission,2417.6789999045,3294230.8000002,3294229.772,3294246.421,3296664.0999999,3296664.4000001,2023-06-22T16:03:42Z,3296677.719,NULL,Hoffnung,matarajio,d,NA,NA,NA,fs,NA,NA,0,NA,NA,NA,NA,NA,NA,NA,NA,NA,NA,NA,NA,NA,NA,NA,NA,NA,NA,NA
29667,"""Richtig""-Screen",canvas.Screen,3_0_0_0_3_0_1,NA,NA,skipped,NA,3296666.2000003,NA,NA,3296664.0999999,3296666.4000001,2023-06-22T16:03:42Z,3296677.719,NULL,Hoffnung,matarajio,d,NA,NA,NA,NA,sdf,NA,0,NA,NA,NA,NA,NA,NA,NA,NA,NA,NA,NA,NA,NA,NA,NA,NA,NA,NA,NA
29667,"""Falsch""-Screen",canvas.Screen,3_0_0_0_3_0_2,NA,NA,timeout,4995.9399999999,3296667,3296661.12,3296677.719,3301656.945,3301657.4000001,2023-06-22T16:03:47Z,3301673.659,NULL,Hoffnung,matarajio,d,NA,NA,NA,NA,sdf,0,0,NA,NA,NA,NA,NA,NA,NA,NA,NA,NA,NA,NA,NA,NA,NA,NA,NA,NA,NA
29667,deep,flow.Sequence,3_0_0_0_3_0,NA,NA,completion,7410.5239999997,3294230.8000002,3294229.772,3294246.421,3301656.945,3301657.5,2023-06-22T16:03:47Z,3301673.659,NULL,Hoffnung,matarajio,d,NA,NA,NA,NA,sdf,NA,0,NA,NA,NA,NA,NA,NA,NA,NA,NA,NA,NA,NA,NA,NA,NA,NA,NA,NA,NA
29667,shallow,flow.Sequence,3_0_0_0_3_1,NA,NA,skipped,NA,3301657.5999999,NA,NA,3301656.945,3301657.8000002,2023-06-22T16:03:47Z,3301673.659,NULL,Hoffnung,matarajio,d,NA,NA,NA,NA,sdf,NA,0,NA,NA,NA,NA,NA,NA,NA,NA,NA,NA,NA,NA,NA,NA,NA,NA,NA,NA,NA
29667,task,flow.Sequence,3_0_0_0_3,NA,NA,completion,7410.5239999997,3294230.8000002,3294229.772,3294246.421,3301656.945,3301657.8000002,2023-06-22T16:03:47Z,3301673.659,NULL,Hoffnung,matarajio,d,NA,NA,NA,NA,sdf,NA,0,NA,NA,NA,NA,NA,NA,NA,NA,NA,NA,NA,NA,NA,NA,NA,NA,NA,NA,NA
29667,deep,flow.Sequence,3_0_0_0_4_0,NA,NA,skipped,NA,3301658,NA,NA,3301656.945,3301658.0999999,2023-06-22T16:03:47Z,3301673.659,NULL,Flexibilität,kubadilika,s,enjini,usikilivu,hesabu,NA,sdf,NA,0,NA,NA,NA,NA,NA,NA,NA,NA,NA,NA,NA,NA,NA,NA,NA,NA,NA,NA,NA
29667,Shallow Question,html.Page,3_0_0_0_4_1_0,NA,NA,form submission,3734.5410002861,3301658.0999999,3301656.945,3301673.659,3305408.2000003,3305408.3000002,2023-06-22T16:03:51Z,3305420.506,NULL,Flexibilität,kubadilika,s,enjini,usikilivu,hesabu,usikilivu,NA,NA,0,NA,NA,NA,NA,NA,NA,NA,NA,NA,NA,NA,NA,NA,NA,NA,NA,NA,NA,NA
29667,"""Richtig""-Screen",canvas.Screen,3_0_0_0_4_1_1,NA,NA,skipped,NA,3305410.2000003,NA,NA,3305408.2000003,3305410.4000001,2023-06-22T16:03:51Z,3305420.506,NULL,Flexibilität,kubadilika,s,enjini,usikilivu,hesabu,NA,sdf,NA,0,NA,NA,NA,NA,NA,NA,NA,NA,NA,NA,NA,NA,NA,NA,NA,NA,NA,NA,NA
29667,"""Falsch""-Screen",canvas.Screen,3_0_0_0_4_1_2,NA,NA,timeout,4995.9339999999,3305410.9000001,3305403.944,3305420.506,3310399.795,3310400.3000002,2023-06-22T16:03:56Z,3310416.44,NULL,Flexibilität,kubadilika,s,enjini,usikilivu,hesabu,NA,sdf,0,0,NA,NA,NA,NA,NA,NA,NA,NA,NA,NA,NA,NA,NA,NA,NA,NA,NA,NA,NA
29667,shallow,flow.Sequence,3_0_0_0_4_1,NA,NA,completion,8726.1359999999,3301658.0999999,3301656.945,3301673.659,3310399.795,3310400.4000001,2023-06-22T16:03:56Z,3310416.44,NULL,Flexibilität,kubadilika,s,enjini,usikilivu,hesabu,NA,sdf,NA,0,NA,NA,NA,NA,NA,NA,NA,NA,NA,NA,NA,NA,NA,NA,NA,NA,NA,NA,NA
29667,task,flow.Sequence,3_0_0_0_4,NA,NA,completion,8726.1359999999,3301658,3301656.945,3301673.659,3310399.795,3310400.5,2023-06-22T16:03:56Z,3310416.44,NULL,Flexibilität,kubadilika,s,enjini,usikilivu,hesabu,NA,sdf,NA,0,NA,NA,NA,NA,NA,NA,NA,NA,NA,NA,NA,NA,NA,NA,NA,NA,NA,NA,NA
29667,deep,flow.Sequence,3_0_0_0_5_0,NA,NA,skipped,NA,3310400.7000003,NA,NA,3310399.795,3310400.7000003,2023-06-22T16:03:56Z,3310416.44,NULL,Schock,mshtuko,s,biashara,kukataza,vichekesho,NA,sdf,NA,0,NA,NA,NA,NA,NA,NA,NA,NA,NA,NA,NA,NA,NA,NA,NA,NA,NA,NA,NA
29667,Shallow Question,html.Page,3_0_0_0_5_1_0,NA,NA,form submission,7994.5600000001,3310400.8000002,3310399.795,3310416.44,3318411,3318411.2000003,2023-06-22T16:04:04Z,3318426.483,NULL,Schock,mshtuko,s,biashara,kukataza,vichekesho,mshtuko,NA,NA,0,NA,NA,NA,NA,NA,NA,NA,NA,NA,NA,NA,NA,NA,NA,NA,NA,NA,NA,NA
29667,"""Richtig""-Screen",canvas.Screen,3_0_0_0_5_1_1,NA,NA,timeout,4995.9180000001,3318413.5,3318409.867,3318426.483,3323405.761,3323406.3000002,2023-06-22T16:04:09Z,3323422.401,NULL,Schock,mshtuko,s,biashara,kukataza,vichekesho,NA,sdf,1,0,NA,NA,NA,NA,NA,NA,NA,NA,NA,NA,NA,NA,NA,NA,NA,NA,NA,NA,NA
29667,"""Falsch""-Screen",canvas.Screen,3_0_0_0_5_1_2,NA,NA,skipped,NA,3323408.8000002,NA,NA,3323405.761,3323409.0999999,2023-06-22T16:04:09Z,3323422.401,NULL,Schock,mshtuko,s,biashara,kukataza,vichekesho,NA,sdf,NA,0,NA,NA,NA,NA,NA,NA,NA,NA,NA,NA,NA,NA,NA,NA,NA,NA,NA,NA,NA
29667,shallow,flow.Sequence,3_0_0_0_5_1,NA,NA,completion,12989.321,3310400.7000003,3310399.795,3310416.44,3323405.761,3323409.3000002,2023-06-22T16:04:09Z,3323422.401,NULL,Schock,mshtuko,s,biashara,kukataza,vichekesho,NA,sdf,NA,0,NA,NA,NA,NA,NA,NA,NA,NA,NA,NA,NA,NA,NA,NA,NA,NA,NA,NA,NA
29667,task,flow.Sequence,3_0_0_0_5,NA,NA,completion,12989.321,3310400.5999999,3310399.795,3310416.44,3323405.761,3323409.4000001,2023-06-22T16:04:09Z,3323422.401,NULL,Schock,mshtuko,s,biashara,kukataza,vichekesho,NA,sdf,NA,0,NA,NA,NA,NA,NA,NA,NA,NA,NA,NA,NA,NA,NA,NA,NA,NA,NA,NA,NA
29667,Deep Question,html.Page,3_0_0_0_6_0_0,NA,NA,form submission,2047.0989999999,3323409.5,3323405.761,3323422.401,3325469.5,3325469.8000002,2023-06-22T16:04:11Z,3325470.681,NULL,Wechsel,ugeuzaji,d,NA,NA,NA,iup,NA,NA,0,NA,NA,NA,NA,NA,NA,NA,NA,NA,NA,NA,NA,NA,NA,NA,NA,NA,NA,NA
29667,"""Richtig""-Screen",canvas.Screen,3_0_0_0_6_0_1,NA,NA,skipped,NA,3325470.5999999,NA,NA,3325469.5,3325471,2023-06-22T16:04:11Z,3325470.681,NULL,Wechsel,ugeuzaji,d,NA,NA,NA,NA,sdf,NA,0,NA,NA,NA,NA,NA,NA,NA,NA,NA,NA,NA,NA,NA,NA,NA,NA,NA,NA,NA
29667,"""Falsch""-Screen",canvas.Screen,3_0_0_0_6_0_2,NA,NA,timeout,4995.929,3325472,3325454.033,3325470.681,3330449.959,3330450.5,2023-06-22T16:04:16Z,3330466.61,NULL,Wechsel,ugeuzaji,d,NA,NA,NA,NA,sdf,0,0,NA,NA,NA,NA,NA,NA,NA,NA,NA,NA,NA,NA,NA,NA,NA,NA,NA,NA,NA
29667,deep,flow.Sequence,3_0_0_0_6_0,NA,NA,completion,7027.5579999997,3323409.5,3323405.761,3323422.401,3330449.959,3330450.5999999,2023-06-22T16:04:16Z,3330466.61,NULL,Wechsel,ugeuzaji,d,NA,NA,NA,NA,sdf,NA,0,NA,NA,NA,NA,NA,NA,NA,NA,NA,NA,NA,NA,NA,NA,NA,NA,NA,NA,NA
29667,shallow,flow.Sequence,3_0_0_0_6_1,NA,NA,skipped,NA,3330450.7000003,NA,NA,3330449.959,3330450.8000002,2023-06-22T16:04:16Z,3330466.61,NULL,Wechsel,ugeuzaji,d,NA,NA,NA,NA,sdf,NA,0,NA,NA,NA,NA,NA,NA,NA,NA,NA,NA,NA,NA,NA,NA,NA,NA,NA,NA,NA
29667,task,flow.Sequence,3_0_0_0_6,NA,NA,completion,7027.5579999997,3323409.4000001,3323405.761,3323422.401,3330449.959,3330450.9000001,2023-06-22T16:04:16Z,3330466.61,NULL,Wechsel,ugeuzaji,d,NA,NA,NA,NA,sdf,NA,0,NA,NA,NA,NA,NA,NA,NA,NA,NA,NA,NA,NA,NA,NA,NA,NA,NA,NA,NA
29667,Deep Question,html.Page,3_0_0_0_7_0_0,NA,NA,form submission,3655.5900002862,3330451,3330449.959,3330466.61,3334122.2000003,3334122.4000001,2023-06-22T16:04:20Z,3334130.218,NULL,Verpackung,ufungaji,d,NA,NA,NA,ert,NA,NA,0,NA,NA,NA,NA,NA,NA,NA,NA,NA,NA,NA,NA,NA,NA,NA,NA,NA,NA,NA
29667,"""Richtig""-Screen",canvas.Screen,3_0_0_0_7_0_1,NA,NA,skipped,NA,3334124.7000003,NA,NA,3334122.2000003,3334124.8000002,2023-06-22T16:04:20Z,3334130.218,NULL,Verpackung,ufungaji,d,NA,NA,NA,NA,sdf,NA,0,NA,NA,NA,NA,NA,NA,NA,NA,NA,NA,NA,NA,NA,NA,NA,NA,NA,NA,NA
29667,"""Falsch""-Screen",canvas.Screen,3_0_0_0_7_0_2,NA,NA,timeout,4995.9100000001,3334125.8000002,3334113.615,3334130.218,3339109.516,3339111.5999999,2023-06-22T16:04:25Z,3339126.128,NULL,Verpackung,ufungaji,d,NA,NA,NA,NA,sdf,0,0,NA,NA,NA,NA,NA,NA,NA,NA,NA,NA,NA,NA,NA,NA,NA,NA,NA,NA,NA
29667,deep,flow.Sequence,3_0_0_0_7_0,NA,NA,completion,8642.906,3330451,3330449.959,3330466.61,3339109.516,3339111.8000002,2023-06-22T16:04:25Z,3339126.128,NULL,Verpackung,ufungaji,d,NA,NA,NA,NA,sdf,NA,0,NA,NA,NA,NA,NA,NA,NA,NA,NA,NA,NA,NA,NA,NA,NA,NA,NA,NA,NA
29667,shallow,flow.Sequence,3_0_0_0_7_1,NA,NA,skipped,NA,3339111.8000002,NA,NA,3339109.516,3339111.8000002,2023-06-22T16:04:25Z,3339126.128,NULL,Verpackung,ufungaji,d,NA,NA,NA,NA,sdf,NA,0,NA,NA,NA,NA,NA,NA,NA,NA,NA,NA,NA,NA,NA,NA,NA,NA,NA,NA,NA
29667,task,flow.Sequence,3_0_0_0_7,NA,NA,completion,8642.906,3330451,3330449.959,3330466.61,3339109.516,3339111.9000001,2023-06-22T16:04:25Z,3339126.128,NULL,Verpackung,ufungaji,d,NA,NA,NA,NA,sdf,NA,0,NA,NA,NA,NA,NA,NA,NA,NA,NA,NA,NA,NA,NA,NA,NA,NA,NA,NA,NA
29667,block,flow.Loop,3_0_0_0,NA,NA,completion,70808.441,3268297.7000003,3268284.014,3268301.075,3339109.516,3339112,2023-06-22T16:04:25Z,3339126.128,NULL,NA,NA,NA,NA,NA,NA,NA,sdf,NA,0,NA,NA,NA,NA,NA,NA,NA,NA,NA,NA,NA,NA,NA,NA,NA,NA,NA,NA,NA
29667,weiter,canvas.Screen,3_0_0_1,sdf,keypress(Space),response,957.57200028608,3339112.0999999,3339109.516,3339126.128,3340083.7000003,3340084.3000002,2023-06-22T16:04:26Z,3340125.293,NULL,NA,NA,NA,NA,NA,NA,NA,sdf,NA,0,NA,NA,NA,NA,NA,NA,NA,NA,NA,NA,NA,NA,NA,NA,NA,NA,NA,NA,NA
29667,check continue,flow.Sequence,3_0_0,NA,NA,completion,71782.625000286,3268297.7000003,3268284.014,3268301.075,3340083.7000003,3340084.4000001,2023-06-22T16:04:26Z,3340125.293,NULL,NA,NA,NA,NA,NA,NA,NA,sdf,NA,0,NA,NA,NA,NA,NA,NA,NA,NA,NA,NA,NA,NA,NA,NA,NA,NA,NA,NA,NA
29667,Deep Question,html.Page,3_0_1_0_0_0_0,NA,NA,form submission,5196.6070000953,3340121.5,3340108.602,3340125.293,3345321.9000001,3345322,2023-06-22T16:04:31Z,3345337.706,NULL,Wechsel,ugeuzaji,d,NA,NA,NA,ugue,NA,NA,1,NA,NA,NA,NA,NA,NA,NA,NA,NA,NA,NA,NA,NA,NA,NA,NA,NA,NA,NA
29667,"""Richtig""-Screen",canvas.Screen,3_0_1_0_0_0_1,NA,NA,skipped,NA,3345324.5,NA,NA,3345321.9000001,3345324.7000003,2023-06-22T16:04:31Z,3345337.706,NULL,Wechsel,ugeuzaji,d,NA,NA,NA,NA,sdfdsf,NA,1,NA,NA,NA,NA,NA,NA,NA,NA,NA,NA,NA,NA,NA,NA,NA,NA,NA,NA,NA
29667,"""Falsch""-Screen",canvas.Screen,3_0_1_0_0_0_2,NA,NA,timeout,4996.5,3345325.7000003,3345321.051,3345337.706,3350316.93,3350317.4000001,2023-06-22T16:04:36Z,3350334.206,NULL,Wechsel,ugeuzaji,d,NA,NA,NA,NA,sdfdsf,0,1,NA,NA,NA,NA,NA,NA,NA,NA,NA,NA,NA,NA,NA,NA,NA,NA,NA,NA,NA
29667,deep,flow.Sequence,3_0_1_0_0_0,NA,NA,completion,10191.637,3340121.4000001,3340108.602,3340125.293,3350316.93,3350317.5,2023-06-22T16:04:36Z,3350334.206,NULL,Wechsel,ugeuzaji,d,NA,NA,NA,NA,sdfdsf,NA,1,NA,NA,NA,NA,NA,NA,NA,NA,NA,NA,NA,NA,NA,NA,NA,NA,NA,NA,NA
29667,shallow,flow.Sequence,3_0_1_0_0_1,NA,NA,skipped,NA,3350317.5999999,NA,NA,3350316.93,3350317.7000003,2023-06-22T16:04:36Z,3350334.206,NULL,Wechsel,ugeuzaji,d,NA,NA,NA,NA,sdfdsf,NA,1,NA,NA,NA,NA,NA,NA,NA,NA,NA,NA,NA,NA,NA,NA,NA,NA,NA,NA,NA
29667,task,flow.Sequence,3_0_1_0_0,NA,NA,completion,10191.637,3340121.4000001,3340108.602,3340125.293,3350316.93,3350317.7000003,2023-06-22T16:04:36Z,3350334.206,NULL,Wechsel,ugeuzaji,d,NA,NA,NA,NA,sdfdsf,NA,1,NA,NA,NA,NA,NA,NA,NA,NA,NA,NA,NA,NA,NA,NA,NA,NA,NA,NA,NA
29667,deep,flow.Sequence,3_0_1_0_1_0,NA,NA,skipped,NA,3350317.8000002,NA,NA,3350316.93,3350317.8000002,2023-06-22T16:04:36Z,3350334.206,NULL,Atmosphäre,angahewa,s,kuteseka,usahihi,kutoamini,NA,sdfdsf,NA,1,NA,NA,NA,NA,NA,NA,NA,NA,NA,NA,NA,NA,NA,NA,NA,NA,NA,NA,NA
29667,Shallow Question,html.Page,3_0_1_0_1_1_0,NA,NA,form submission,7767.7940000002,3350317.9000001,3350316.93,3350334.206,3358102,3358102.2000003,2023-06-22T16:04:44Z,3358110.518,NULL,Atmosphäre,angahewa,s,kuteseka,usahihi,kutoamini,angahewa,NA,NA,1,NA,NA,NA,NA,NA,NA,NA,NA,NA,NA,NA,NA,NA,NA,NA,NA,NA,NA,NA
29667,"""Richtig""-Screen",canvas.Screen,3_0_1_0_1_1_1,NA,NA,timeout,4995.8819999998,3358104.5999999,3358093.852,3358110.518,3363089.759,3363090.3000002,2023-06-22T16:04:49Z,3363106.4,NULL,Atmosphäre,angahewa,s,kuteseka,usahihi,kutoamini,NA,sdfdsf,1,1,NA,NA,NA,NA,NA,NA,NA,NA,NA,NA,NA,NA,NA,NA,NA,NA,NA,NA,NA
29667,"""Falsch""-Screen",canvas.Screen,3_0_1_0_1_1_2,NA,NA,skipped,NA,3363092.5999999,NA,NA,3363089.759,3363092.8000002,2023-06-22T16:04:49Z,3363106.4,NULL,Atmosphäre,angahewa,s,kuteseka,usahihi,kutoamini,NA,sdfdsf,NA,1,NA,NA,NA,NA,NA,NA,NA,NA,NA,NA,NA,NA,NA,NA,NA,NA,NA,NA,NA
29667,shallow,flow.Sequence,3_0_1_0_1_1,NA,NA,completion,12755.553,3350317.9000001,3350316.93,3350334.206,3363089.759,3363092.9000001,2023-06-22T16:04:49Z,3363106.4,NULL,Atmosphäre,angahewa,s,kuteseka,usahihi,kutoamini,NA,sdfdsf,NA,1,NA,NA,NA,NA,NA,NA,NA,NA,NA,NA,NA,NA,NA,NA,NA,NA,NA,NA,NA
29667,task,flow.Sequence,3_0_1_0_1,NA,NA,completion,12755.553,3350317.7000003,3350316.93,3350334.206,3363089.759,3363093.0999999,2023-06-22T16:04:49Z,3363106.4,NULL,Atmosphäre,angahewa,s,kuteseka,usahihi,kutoamini,NA,sdfdsf,NA,1,NA,NA,NA,NA,NA,NA,NA,NA,NA,NA,NA,NA,NA,NA,NA,NA,NA,NA,NA
29667,deep,flow.Sequence,3_0_1_0_2_0,NA,NA,skipped,NA,3363093.2000003,NA,NA,3363089.759,3363093.3000002,2023-06-22T16:04:49Z,3363106.4,NULL,Theorie,nadharia,s,ushungi,mkutano,uwakilishi,NA,sdfdsf,NA,1,NA,NA,NA,NA,NA,NA,NA,NA,NA,NA,NA,NA,NA,NA,NA,NA,NA,NA,NA
29667,Shallow Question,html.Page,3_0_1_0_2_1_0,NA,NA,form submission,3094.1000000001,3363093.3000002,3363089.759,3363106.4,3366200.5,3366200.8000002,2023-06-22T16:04:52Z,3366203.819,NULL,Theorie,nadharia,s,ushungi,mkutano,uwakilishi,nadharia,NA,NA,1,NA,NA,NA,NA,NA,NA,NA,NA,NA,NA,NA,NA,NA,NA,NA,NA,NA,NA,NA
29667,"""Richtig""-Screen",canvas.Screen,3_0_1_0_2_1_1,NA,NA,timeout,4995.909,3366203,3366187.227,3366203.819,3371183.093,3371183.5,2023-06-22T16:04:57Z,3371199.728,NULL,Theorie,nadharia,s,ushungi,mkutano,uwakilishi,NA,sdfdsf,1,1,NA,NA,NA,NA,NA,NA,NA,NA,NA,NA,NA,NA,NA,NA,NA,NA,NA,NA,NA
29667,"""Falsch""-Screen",canvas.Screen,3_0_1_0_2_1_2,NA,NA,skipped,NA,3371185.8000002,NA,NA,3371183.093,3371185.9000001,2023-06-22T16:04:57Z,3371199.728,NULL,Theorie,nadharia,s,ushungi,mkutano,uwakilishi,NA,sdfdsf,NA,1,NA,NA,NA,NA,NA,NA,NA,NA,NA,NA,NA,NA,NA,NA,NA,NA,NA,NA,NA
29667,shallow,flow.Sequence,3_0_1_0_2_1,NA,NA,completion,8076.693,3363093.3000002,3363089.759,3363106.4,3371183.093,3371186.0999999,2023-06-22T16:04:57Z,3371199.728,NULL,Theorie,nadharia,s,ushungi,mkutano,uwakilishi,NA,sdfdsf,NA,1,NA,NA,NA,NA,NA,NA,NA,NA,NA,NA,NA,NA,NA,NA,NA,NA,NA,NA,NA
29667,task,flow.Sequence,3_0_1_0_2,NA,NA,completion,8076.693,3363093.0999999,3363089.759,3363106.4,3371183.093,3371186.2000003,2023-06-22T16:04:57Z,3371199.728,NULL,Theorie,nadharia,s,ushungi,mkutano,uwakilishi,NA,sdfdsf,NA,1,NA,NA,NA,NA,NA,NA,NA,NA,NA,NA,NA,NA,NA,NA,NA,NA,NA,NA,NA
29667,deep,flow.Sequence,3_0_1_0_3_0,NA,NA,skipped,NA,3371186.3000002,NA,NA,3371183.093,3371186.4000001,2023-06-22T16:04:57Z,3371199.728,NULL,Schock,mshtuko,s,biashara,kukataza,vichekesho,NA,sdfdsf,NA,1,NA,NA,NA,NA,NA,NA,NA,NA,NA,NA,NA,NA,NA,NA,NA,NA,NA,NA,NA
29667,Shallow Question,html.Page,3_0_1_0_3_1_0,NA,NA,form submission,1615.3719999045,3371186.5,3371183.093,3371199.728,3372815.0999999,3372815.4000001,2023-06-22T16:04:58Z,3372832.721,NULL,Schock,mshtuko,s,biashara,kukataza,vichekesho,mshtuko,NA,NA,1,NA,NA,NA,NA,NA,NA,NA,NA,NA,NA,NA,NA,NA,NA,NA,NA,NA,NA,NA
29667,"""Richtig""-Screen",canvas.Screen,3_0_1_0_3_1_1,NA,NA,timeout,4994.8930000002,3372816.2000003,3372798.443,3372832.721,3377810.971,3377811.4000001,2023-06-22T16:05:03Z,3377827.614,NULL,Schock,mshtuko,s,biashara,kukataza,vichekesho,NA,sdfdsf,1,1,NA,NA,NA,NA,NA,NA,NA,NA,NA,NA,NA,NA,NA,NA,NA,NA,NA,NA,NA
29667,"""Falsch""-Screen",canvas.Screen,3_0_1_0_3_1_2,NA,NA,skipped,NA,3377813.8000002,NA,NA,3377810.971,3377813.9000001,2023-06-22T16:05:03Z,3377827.614,NULL,Schock,mshtuko,s,biashara,kukataza,vichekesho,NA,sdfdsf,NA,1,NA,NA,NA,NA,NA,NA,NA,NA,NA,NA,NA,NA,NA,NA,NA,NA,NA,NA,NA
29667,shallow,flow.Sequence,3_0_1_0_3_1,NA,NA,completion,6611.2429999998,3371186.5,3371183.093,3371199.728,3377810.971,3377814.0999999,2023-06-22T16:05:03Z,3377827.614,NULL,Schock,mshtuko,s,biashara,kukataza,vichekesho,NA,sdfdsf,NA,1,NA,NA,NA,NA,NA,NA,NA,NA,NA,NA,NA,NA,NA,NA,NA,NA,NA,NA,NA
29667,task,flow.Sequence,3_0_1_0_3,NA,NA,completion,6611.2429999998,3371186.3000002,3371183.093,3371199.728,3377810.971,3377814.3000002,2023-06-22T16:05:03Z,3377827.614,NULL,Schock,mshtuko,s,biashara,kukataza,vichekesho,NA,sdfdsf,NA,1,NA,NA,NA,NA,NA,NA,NA,NA,NA,NA,NA,NA,NA,NA,NA,NA,NA,NA,NA
29667,Deep Question,html.Page,3_0_1_0_4_0_0,NA,NA,form submission,3050.586000286,3377814.4000001,3377810.971,3377827.614,3380878.2000003,3380878.5,2023-06-22T16:05:06Z,3380891.724,NULL,Erneuerung,ukarabati,d,NA,NA,NA,f,NA,NA,1,NA,NA,NA,NA,NA,NA,NA,NA,NA,NA,NA,NA,NA,NA,NA,NA,NA,NA,NA
29667,"""Richtig""-Screen",canvas.Screen,3_0_1_0_4_0_1,NA,NA,skipped,NA,3380881,NA,NA,3380878.2000003,3380881.2000003,2023-06-22T16:05:06Z,3380891.724,NULL,Erneuerung,ukarabati,d,NA,NA,NA,NA,sdfdsf,NA,1,NA,NA,NA,NA,NA,NA,NA,NA,NA,NA,NA,NA,NA,NA,NA,NA,NA,NA,NA
29667,"""Falsch""-Screen",canvas.Screen,3_0_1_0_4_0_2,NA,NA,timeout,4995.8880000003,3380882.3000002,3380875.096,3380891.724,3385871.147,3385871.5999999,2023-06-22T16:05:11Z,3385887.612,NULL,Erneuerung,ukarabati,d,NA,NA,NA,NA,sdfdsf,0,1,NA,NA,NA,NA,NA,NA,NA,NA,NA,NA,NA,NA,NA,NA,NA,NA,NA,NA,NA
29667,deep,flow.Sequence,3_0_1_0_4_0,NA,NA,completion,8043.5329999998,3377814.4000001,3377810.971,3377827.614,3385871.147,3385871.7000003,2023-06-22T16:05:11Z,3385887.612,NULL,Erneuerung,ukarabati,d,NA,NA,NA,NA,sdfdsf,NA,1,NA,NA,NA,NA,NA,NA,NA,NA,NA,NA,NA,NA,NA,NA,NA,NA,NA,NA,NA
29667,shallow,flow.Sequence,3_0_1_0_4_1,NA,NA,skipped,NA,3385871.8000002,NA,NA,3385871.147,3385871.8000002,2023-06-22T16:05:11Z,3385887.612,NULL,Erneuerung,ukarabati,d,NA,NA,NA,NA,sdfdsf,NA,1,NA,NA,NA,NA,NA,NA,NA,NA,NA,NA,NA,NA,NA,NA,NA,NA,NA,NA,NA
29667,task,flow.Sequence,3_0_1_0_4,NA,NA,completion,8043.5329999998,3377814.4000001,3377810.971,3377827.614,3385871.147,3385871.9000001,2023-06-22T16:05:11Z,3385887.612,NULL,Erneuerung,ukarabati,d,NA,NA,NA,NA,sdfdsf,NA,1,NA,NA,NA,NA,NA,NA,NA,NA,NA,NA,NA,NA,NA,NA,NA,NA,NA,NA,NA
29667,Deep Question,html.Page,3_0_1_0_5_0_0,NA,NA,form submission,5725.8879999998,3385872,3385871.147,3385887.612,3391613.5,3391613.7000003,2023-06-22T16:05:17Z,3391616.231,NULL,Verpackung,ufungaji,d,NA,NA,NA,f,NA,NA,1,NA,NA,NA,NA,NA,NA,NA,NA,NA,NA,NA,NA,NA,NA,NA,NA,NA,NA,NA
29667,"""Richtig""-Screen",canvas.Screen,3_0_1_0_5_0_1,NA,NA,skipped,NA,3391615.5,NA,NA,3391613.5,3391615.7000003,2023-06-22T16:05:17Z,3391616.231,NULL,Verpackung,ufungaji,d,NA,NA,NA,NA,sdfdsf,NA,1,NA,NA,NA,NA,NA,NA,NA,NA,NA,NA,NA,NA,NA,NA,NA,NA,NA,NA,NA
29667,"""Falsch""-Screen",canvas.Screen,3_0_1_0_5_0_2,NA,NA,timeout,4995.9109999998,3391616.4000001,3391599.574,3391616.231,3396595.502,3396596,2023-06-22T16:05:22Z,3396612.142,NULL,Verpackung,ufungaji,d,NA,NA,NA,NA,sdfdsf,0,1,NA,NA,NA,NA,NA,NA,NA,NA,NA,NA,NA,NA,NA,NA,NA,NA,NA,NA,NA
29667,deep,flow.Sequence,3_0_1_0_5_0,NA,NA,completion,10707.89,3385871.9000001,3385871.147,3385887.612,3396595.502,3396596.7000003,2023-06-22T16:05:22Z,3396612.142,NULL,Verpackung,ufungaji,d,NA,NA,NA,NA,sdfdsf,NA,1,NA,NA,NA,NA,NA,NA,NA,NA,NA,NA,NA,NA,NA,NA,NA,NA,NA,NA,NA
29667,shallow,flow.Sequence,3_0_1_0_5_1,NA,NA,skipped,NA,3396596.8000002,NA,NA,3396595.502,3396596.9000001,2023-06-22T16:05:22Z,3396612.142,NULL,Verpackung,ufungaji,d,NA,NA,NA,NA,sdfdsf,NA,1,NA,NA,NA,NA,NA,NA,NA,NA,NA,NA,NA,NA,NA,NA,NA,NA,NA,NA,NA
29667,task,flow.Sequence,3_0_1_0_5,NA,NA,completion,10707.89,3385871.9000001,3385871.147,3385887.612,3396595.502,3396597,2023-06-22T16:05:22Z,3396612.142,NULL,Verpackung,ufungaji,d,NA,NA,NA,NA,sdfdsf,NA,1,NA,NA,NA,NA,NA,NA,NA,NA,NA,NA,NA,NA,NA,NA,NA,NA,NA,NA,NA
29667,Deep Question,html.Page,3_0_1_0_6_0_0,NA,NA,form submission,7926.858,3396597.0999999,3396595.502,3396612.142,3404539,3404539.3000002,2023-06-22T16:05:30Z,3404556.863,NULL,Hoffnung,matarajio,d,NA,NA,NA,f,NA,NA,1,NA,NA,NA,NA,NA,NA,NA,NA,NA,NA,NA,NA,NA,NA,NA,NA,NA,NA,NA
29667,"""Richtig""-Screen",canvas.Screen,3_0_1_0_6_0_1,NA,NA,skipped,NA,3404542,NA,NA,3404539,3404542.0999999,2023-06-22T16:05:30Z,3404556.863,NULL,Hoffnung,matarajio,d,NA,NA,NA,NA,sdfdsf,NA,1,NA,NA,NA,NA,NA,NA,NA,NA,NA,NA,NA,NA,NA,NA,NA,NA,NA,NA,NA
29667,"""Falsch""-Screen",canvas.Screen,3_0_1_0_6_0_2,NA,NA,timeout,4994.645,3404543.0999999,3404522.271,3404556.863,3409534.823,3409535.2000003,2023-06-22T16:05:35Z,3409551.508,NULL,Hoffnung,matarajio,d,NA,NA,NA,NA,sdfdsf,0,1,NA,NA,NA,NA,NA,NA,NA,NA,NA,NA,NA,NA,NA,NA,NA,NA,NA,NA,NA
29667,deep,flow.Sequence,3_0_1_0_6_0,NA,NA,completion,12922.681,3396597.0999999,3396595.502,3396612.142,3409534.823,3409535.4000001,2023-06-22T16:05:35Z,3409551.508,NULL,Hoffnung,matarajio,d,NA,NA,NA,NA,sdfdsf,NA,1,NA,NA,NA,NA,NA,NA,NA,NA,NA,NA,NA,NA,NA,NA,NA,NA,NA,NA,NA
29667,shallow,flow.Sequence,3_0_1_0_6_1,NA,NA,skipped,NA,3409535.4000001,NA,NA,3409534.823,3409535.4000001,2023-06-22T16:05:35Z,3409551.508,NULL,Hoffnung,matarajio,d,NA,NA,NA,NA,sdfdsf,NA,1,NA,NA,NA,NA,NA,NA,NA,NA,NA,NA,NA,NA,NA,NA,NA,NA,NA,NA,NA
29667,task,flow.Sequence,3_0_1_0_6,NA,NA,completion,12922.681,3396597.0999999,3396595.502,3396612.142,3409534.823,3409535.5999999,2023-06-22T16:05:35Z,3409551.508,NULL,Hoffnung,matarajio,d,NA,NA,NA,NA,sdfdsf,NA,1,NA,NA,NA,NA,NA,NA,NA,NA,NA,NA,NA,NA,NA,NA,NA,NA,NA,NA,NA
29667,deep,flow.Sequence,3_0_1_0_7_0,NA,NA,skipped,NA,3409535.5999999,NA,NA,3409534.823,3409535.7000003,2023-06-22T16:05:35Z,3409551.508,NULL,Flexibilität,kubadilika,s,enjini,usikilivu,hesabu,NA,sdfdsf,NA,1,NA,NA,NA,NA,NA,NA,NA,NA,NA,NA,NA,NA,NA,NA,NA,NA,NA,NA,NA
29667,Shallow Question,html.Page,3_0_1_0_7_1_0,NA,NA,form submission,9795.7920001908,3409535.7000003,3409534.823,3409551.508,3419347.3000002,3419347.5,2023-06-22T16:05:45Z,3419360.095,NULL,Flexibilität,kubadilika,s,enjini,usikilivu,hesabu,kubadilika,NA,NA,1,NA,NA,NA,NA,NA,NA,NA,NA,NA,NA,NA,NA,NA,NA,NA,NA,NA,NA,NA
29667,"""Richtig""-Screen",canvas.Screen,3_0_1_0_7_1_1,NA,NA,timeout,4995.8839999996,3419349.8000002,3419343.442,3419360.095,3424339.336,3424339.7000003,2023-06-22T16:05:50Z,3424355.979,NULL,Flexibilität,kubadilika,s,enjini,usikilivu,hesabu,NA,sdfdsf,1,1,NA,NA,NA,NA,NA,NA,NA,NA,NA,NA,NA,NA,NA,NA,NA,NA,NA,NA,NA
29667,"""Falsch""-Screen",canvas.Screen,3_0_1_0_7_1_2,NA,NA,skipped,NA,3424341.5,NA,NA,3424339.336,3424341.5999999,2023-06-22T16:05:50Z,3424355.979,NULL,Flexibilität,kubadilika,s,enjini,usikilivu,hesabu,NA,sdfdsf,NA,1,NA,NA,NA,NA,NA,NA,NA,NA,NA,NA,NA,NA,NA,NA,NA,NA,NA,NA,NA
29667,shallow,flow.Sequence,3_0_1_0_7_1,NA,NA,completion,14787.828,3409535.7000003,3409534.823,3409551.508,3424339.336,3424341.8000002,2023-06-22T16:05:50Z,3424355.979,NULL,Flexibilität,kubadilika,s,enjini,usikilivu,hesabu,NA,sdfdsf,NA,1,NA,NA,NA,NA,NA,NA,NA,NA,NA,NA,NA,NA,NA,NA,NA,NA,NA,NA,NA
29667,task,flow.Sequence,3_0_1_0_7,NA,NA,completion,14787.828,3409535.5999999,3409534.823,3409551.508,3424339.336,3424341.8000002,2023-06-22T16:05:50Z,3424355.979,NULL,Flexibilität,kubadilika,s,enjini,usikilivu,hesabu,NA,sdfdsf,NA,1,NA,NA,NA,NA,NA,NA,NA,NA,NA,NA,NA,NA,NA,NA,NA,NA,NA,NA,NA
29667,block,flow.Loop,3_0_1_0,NA,NA,completion,84214.043,3340121.4000001,3340108.602,3340125.293,3424339.336,3424341.9000001,2023-06-22T16:05:50Z,3424355.979,NULL,NA,NA,NA,NA,NA,NA,NA,sdfdsf,NA,1,NA,NA,NA,NA,NA,NA,NA,NA,NA,NA,NA,NA,NA,NA,NA,NA,NA,NA,NA
29667,weiter,canvas.Screen,3_0_1_1,sdf,keypress(Space),response,903.52100000018,3424342,3424339.336,3424355.979,3425259.5,3425260,2023-06-22T16:05:51Z,3425322.968,NULL,NA,NA,NA,NA,NA,NA,NA,sdfdsf,NA,1,NA,NA,NA,NA,NA,NA,NA,NA,NA,NA,NA,NA,NA,NA,NA,NA,NA,NA,NA
29667,check continue,flow.Sequence,3_0_1,NA,NA,completion,85134.207,3340121.3000002,3340108.602,3340125.293,3425259.5,3425260.2000003,2023-06-22T16:05:51Z,3425322.968,NULL,NA,NA,NA,NA,NA,NA,NA,sdfdsf,NA,1,NA,NA,NA,NA,NA,NA,NA,NA,NA,NA,NA,NA,NA,NA,NA,NA,NA,NA,NA
29667,Deep Question,html.Page,3_0_2_0_0_0_0,NA,NA,form submission,7615.0320000001,3425297.0999999,3425288.51,3425322.968,3432938,3432938.2000003,2023-06-22T16:05:58Z,3432948.96,NULL,Wechsel,ugeuzaji,d,NA,NA,NA,ugeuji,NA,NA,2,NA,NA,NA,NA,NA,NA,NA,NA,NA,NA,NA,NA,NA,NA,NA,NA,NA,NA,NA
29667,"""Richtig""-Screen",canvas.Screen,3_0_2_0_0_0_1,NA,NA,skipped,NA,3432940.8000002,NA,NA,3432938,3432941,2023-06-22T16:05:58Z,3432948.96,NULL,Wechsel,ugeuzaji,d,NA,NA,NA,NA,sdf,NA,2,NA,NA,NA,NA,NA,NA,NA,NA,NA,NA,NA,NA,NA,NA,NA,NA,NA,NA,NA
29667,"""Falsch""-Screen",canvas.Screen,3_0_2_0_0_0_2,NA,NA,timeout,4995.8560000001,3432942.0999999,3432932.266,3432948.96,3437928.149,3437928.5,2023-06-22T16:06:03Z,3437944.816,NULL,Wechsel,ugeuzaji,d,NA,NA,NA,NA,sdf,0,2,NA,NA,NA,NA,NA,NA,NA,NA,NA,NA,NA,NA,NA,NA,NA,NA,NA,NA,NA
29667,deep,flow.Sequence,3_0_2_0_0_0,NA,NA,completion,12605.181,3425297,3425288.51,3425322.968,3437928.149,3437928.7000003,2023-06-22T16:06:03Z,3437944.816,NULL,Wechsel,ugeuzaji,d,NA,NA,NA,NA,sdf,NA,2,NA,NA,NA,NA,NA,NA,NA,NA,NA,NA,NA,NA,NA,NA,NA,NA,NA,NA,NA
29667,shallow,flow.Sequence,3_0_2_0_0_1,NA,NA,skipped,NA,3437928.9000001,NA,NA,3437928.149,3437928.9000001,2023-06-22T16:06:03Z,3437944.816,NULL,Wechsel,ugeuzaji,d,NA,NA,NA,NA,sdf,NA,2,NA,NA,NA,NA,NA,NA,NA,NA,NA,NA,NA,NA,NA,NA,NA,NA,NA,NA,NA
29667,task,flow.Sequence,3_0_2_0_0,NA,NA,completion,12605.181,3425297,3425288.51,3425322.968,3437928.149,3437929,2023-06-22T16:06:03Z,3437944.816,NULL,Wechsel,ugeuzaji,d,NA,NA,NA,NA,sdf,NA,2,NA,NA,NA,NA,NA,NA,NA,NA,NA,NA,NA,NA,NA,NA,NA,NA,NA,NA,NA
29667,deep,flow.Sequence,3_0_2_0_1_0,NA,NA,skipped,NA,3437929.2000003,NA,NA,3437928.149,3437929.2000003,2023-06-22T16:06:03Z,3437944.816,NULL,Flexibilität,kubadilika,s,enjini,usikilivu,hesabu,NA,sdf,NA,2,NA,NA,NA,NA,NA,NA,NA,NA,NA,NA,NA,NA,NA,NA,NA,NA,NA,NA,NA
29667,Shallow Question,html.Page,3_0_2_0_1_1_0,NA,NA,form submission,4652.2839999045,3437929.3000002,3437928.149,3437944.816,3442597.0999999,3442597.3000002,2023-06-22T16:06:08Z,3442607.622,NULL,Flexibilität,kubadilika,s,enjini,usikilivu,hesabu,kubadilika,NA,NA,2,NA,NA,NA,NA,NA,NA,NA,NA,NA,NA,NA,NA,NA,NA,NA,NA,NA,NA,NA
29667,"""Richtig""-Screen",canvas.Screen,3_0_2_0_1_1_1,NA,NA,timeout,4995.8790000002,3442599.2000003,3442590.967,3442607.622,3447586.868,3447587.3000002,2023-06-22T16:06:13Z,3447603.501,NULL,Flexibilität,kubadilika,s,enjini,usikilivu,hesabu,NA,sdf,1,2,NA,NA,NA,NA,NA,NA,NA,NA,NA,NA,NA,NA,NA,NA,NA,NA,NA,NA,NA
29667,"""Falsch""-Screen",canvas.Screen,3_0_2_0_1_1_2,NA,NA,skipped,NA,3447589.8000002,NA,NA,3447586.868,3447590.0999999,2023-06-22T16:06:13Z,3447603.501,NULL,Flexibilität,kubadilika,s,enjini,usikilivu,hesabu,NA,sdf,NA,2,NA,NA,NA,NA,NA,NA,NA,NA,NA,NA,NA,NA,NA,NA,NA,NA,NA,NA,NA
29667,shallow,flow.Sequence,3_0_2_0_1_1,NA,NA,completion,9642.0519999997,3437929.3000002,3437928.149,3437944.816,3447586.868,3447590.2000003,2023-06-22T16:06:13Z,3447603.501,NULL,Flexibilität,kubadilika,s,enjini,usikilivu,hesabu,NA,sdf,NA,2,NA,NA,NA,NA,NA,NA,NA,NA,NA,NA,NA,NA,NA,NA,NA,NA,NA,NA,NA
29667,task,flow.Sequence,3_0_2_0_1,NA,NA,completion,9642.0519999997,3437929.0999999,3437928.149,3437944.816,3447586.868,3447590.3000002,2023-06-22T16:06:13Z,3447603.501,NULL,Flexibilität,kubadilika,s,enjini,usikilivu,hesabu,NA,sdf,NA,2,NA,NA,NA,NA,NA,NA,NA,NA,NA,NA,NA,NA,NA,NA,NA,NA,NA,NA,NA
29667,deep,flow.Sequence,3_0_2_0_2_0,NA,NA,skipped,NA,3447590.4000001,NA,NA,3447586.868,3447590.5,2023-06-22T16:06:13Z,3447603.501,NULL,Theorie,nadharia,s,ushungi,mkutano,uwakilishi,NA,sdf,NA,2,NA,NA,NA,NA,NA,NA,NA,NA,NA,NA,NA,NA,NA,NA,NA,NA,NA,NA,NA
29667,Shallow Question,html.Page,3_0_2_0_2_1_0,NA,NA,form submission,2665.1990002859,3447590.5999999,3447586.868,3447603.501,3450268.7000003,3450268.9000001,2023-06-22T16:06:16Z,3450284.599,NULL,Theorie,nadharia,s,ushungi,mkutano,uwakilishi,nadharia,NA,NA,2,NA,NA,NA,NA,NA,NA,NA,NA,NA,NA,NA,NA,NA,NA,NA,NA,NA,NA,NA
29667,"""Richtig""-Screen",canvas.Screen,3_0_2_0_2_1_1,NA,NA,timeout,4995.9199999999,3450269.7000003,3450251.381,3450284.599,3455263.884,3455264.3000002,2023-06-22T16:06:21Z,3455280.519,NULL,Theorie,nadharia,s,ushungi,mkutano,uwakilishi,NA,sdf,1,2,NA,NA,NA,NA,NA,NA,NA,NA,NA,NA,NA,NA,NA,NA,NA,NA,NA,NA,NA
29667,"""Falsch""-Screen",canvas.Screen,3_0_2_0_2_1_2,NA,NA,skipped,NA,3455266.8000002,NA,NA,3455263.884,3455266.9000001,2023-06-22T16:06:21Z,3455280.519,NULL,Theorie,nadharia,s,ushungi,mkutano,uwakilishi,NA,sdf,NA,2,NA,NA,NA,NA,NA,NA,NA,NA,NA,NA,NA,NA,NA,NA,NA,NA,NA,NA,NA
29667,shallow,flow.Sequence,3_0_2_0_2_1,NA,NA,completion,7660.3829999999,3447590.5,3447586.868,3447603.501,3455263.884,3455267.0999999,2023-06-22T16:06:21Z,3455280.519,NULL,Theorie,nadharia,s,ushungi,mkutano,uwakilishi,NA,sdf,NA,2,NA,NA,NA,NA,NA,NA,NA,NA,NA,NA,NA,NA,NA,NA,NA,NA,NA,NA,NA
29667,task,flow.Sequence,3_0_2_0_2,NA,NA,completion,7660.3829999999,3447590.4000001,3447586.868,3447603.501,3455263.884,3455267.8000002,2023-06-22T16:06:21Z,3455280.519,NULL,Theorie,nadharia,s,ushungi,mkutano,uwakilishi,NA,sdf,NA,2,NA,NA,NA,NA,NA,NA,NA,NA,NA,NA,NA,NA,NA,NA,NA,NA,NA,NA,NA
29667,deep,flow.Sequence,3_0_2_0_3_0,NA,NA,skipped,NA,3455268,NA,NA,3455263.884,3455268.0999999,2023-06-22T16:06:21Z,3455280.519,NULL,Schock,mshtuko,s,biashara,kukataza,vichekesho,NA,sdf,NA,2,NA,NA,NA,NA,NA,NA,NA,NA,NA,NA,NA,NA,NA,NA,NA,NA,NA,NA,NA
29667,Shallow Question,html.Page,3_0_2_0_3_1_0,NA,NA,form submission,2826.4810000001,3455268.2000003,3455263.884,3455280.519,3458107,3458107.2000003,2023-06-22T16:06:24Z,3458111.493,NULL,Schock,mshtuko,s,biashara,kukataza,vichekesho,mshtuko,NA,NA,2,NA,NA,NA,NA,NA,NA,NA,NA,NA,NA,NA,NA,NA,NA,NA,NA,NA,NA,NA
29667,"""Richtig""-Screen",canvas.Screen,3_0_2_0_3_1_1,NA,NA,timeout,4995.9260000004,3458107.9000001,3458094.935,3458111.493,3463090.782,3463091.2000003,2023-06-22T16:06:29Z,3463107.419,NULL,Schock,mshtuko,s,biashara,kukataza,vichekesho,NA,sdf,1,2,NA,NA,NA,NA,NA,NA,NA,NA,NA,NA,NA,NA,NA,NA,NA,NA,NA,NA,NA
29667,"""Falsch""-Screen",canvas.Screen,3_0_2_0_3_1_2,NA,NA,skipped,NA,3463093.3000002,NA,NA,3463090.782,3463093.5,2023-06-22T16:06:29Z,3463107.419,NULL,Schock,mshtuko,s,biashara,kukataza,vichekesho,NA,sdf,NA,2,NA,NA,NA,NA,NA,NA,NA,NA,NA,NA,NA,NA,NA,NA,NA,NA,NA,NA,NA
29667,shallow,flow.Sequence,3_0_2_0_3_1,NA,NA,completion,7810.2630000003,3455268.2000003,3455263.884,3455280.519,3463090.782,3463093.5999999,2023-06-22T16:06:29Z,3463107.419,NULL,Schock,mshtuko,s,biashara,kukataza,vichekesho,NA,sdf,NA,2,NA,NA,NA,NA,NA,NA,NA,NA,NA,NA,NA,NA,NA,NA,NA,NA,NA,NA,NA
29667,task,flow.Sequence,3_0_2_0_3,NA,NA,completion,7810.2630000003,3455268,3455263.884,3455280.519,3463090.782,3463093.5999999,2023-06-22T16:06:29Z,3463107.419,NULL,Schock,mshtuko,s,biashara,kukataza,vichekesho,NA,sdf,NA,2,NA,NA,NA,NA,NA,NA,NA,NA,NA,NA,NA,NA,NA,NA,NA,NA,NA,NA,NA
29667,deep,flow.Sequence,3_0_2_0_4_0,NA,NA,skipped,NA,3463093.8000002,NA,NA,3463090.782,3463093.8000002,2023-06-22T16:06:29Z,3463107.419,NULL,Atmosphäre,angahewa,s,kuteseka,usahihi,kutoamini,NA,sdf,NA,2,NA,NA,NA,NA,NA,NA,NA,NA,NA,NA,NA,NA,NA,NA,NA,NA,NA,NA,NA
29667,Shallow Question,html.Page,3_0_2_0_4_1_0,NA,NA,form submission,2507.1809999044,3463093.9000001,3463090.782,3463107.419,3465614.5999999,3465614.9000001,2023-06-22T16:06:31Z,3465622.078,NULL,Atmosphäre,angahewa,s,kuteseka,usahihi,kutoamini,angahewa,NA,NA,2,NA,NA,NA,NA,NA,NA,NA,NA,NA,NA,NA,NA,NA,NA,NA,NA,NA,NA,NA
29667,"""Richtig""-Screen",canvas.Screen,3_0_2_0_4_1_1,NA,NA,timeout,4995.781,3465615.5,3465605.343,3465622.078,3470601.268,3470601.8000002,2023-06-22T16:06:36Z,3470617.859,NULL,Atmosphäre,angahewa,s,kuteseka,usahihi,kutoamini,NA,sdf,1,2,NA,NA,NA,NA,NA,NA,NA,NA,NA,NA,NA,NA,NA,NA,NA,NA,NA,NA,NA
29667,"""Falsch""-Screen",canvas.Screen,3_0_2_0_4_1_2,NA,NA,skipped,NA,3470604.0999999,NA,NA,3470601.268,3470604.4000001,2023-06-22T16:06:36Z,3470617.859,NULL,Atmosphäre,angahewa,s,kuteseka,usahihi,kutoamini,NA,sdf,NA,2,NA,NA,NA,NA,NA,NA,NA,NA,NA,NA,NA,NA,NA,NA,NA,NA,NA,NA,NA
29667,shallow,flow.Sequence,3_0_2_0_4_1,NA,NA,completion,7493.8489999999,3463093.8000002,3463090.782,3463107.419,3470601.268,3470604.4000001,2023-06-22T16:06:36Z,3470617.859,NULL,Atmosphäre,angahewa,s,kuteseka,usahihi,kutoamini,NA,sdf,NA,2,NA,NA,NA,NA,NA,NA,NA,NA,NA,NA,NA,NA,NA,NA,NA,NA,NA,NA,NA
29667,task,flow.Sequence,3_0_2_0_4,NA,NA,completion,7493.8489999999,3463093.8000002,3463090.782,3463107.419,3470601.268,3470604.5999999,2023-06-22T16:06:36Z,3470617.859,NULL,Atmosphäre,angahewa,s,kuteseka,usahihi,kutoamini,NA,sdf,NA,2,NA,NA,NA,NA,NA,NA,NA,NA,NA,NA,NA,NA,NA,NA,NA,NA,NA,NA,NA
29667,Deep Question,html.Page,3_0_2_0_5_0_0,NA,NA,form submission,5198.0410000952,3470604.7000003,3470601.268,3470617.859,3475815.9000001,3475816.2000003,2023-06-22T16:06:41Z,3475830.277,NULL,Erneuerung,ukarabati,d,NA,NA,NA,f,NA,NA,2,NA,NA,NA,NA,NA,NA,NA,NA,NA,NA,NA,NA,NA,NA,NA,NA,NA,NA,NA
29667,"""Richtig""-Screen",canvas.Screen,3_0_2_0_5_0_1,NA,NA,skipped,NA,3475818.2000003,NA,NA,3475815.9000001,3475818.3000002,2023-06-22T16:06:41Z,3475830.277,NULL,Erneuerung,ukarabati,d,NA,NA,NA,NA,sdf,NA,2,NA,NA,NA,NA,NA,NA,NA,NA,NA,NA,NA,NA,NA,NA,NA,NA,NA,NA,NA
29667,"""Falsch""-Screen",canvas.Screen,3_0_2_0_5_0_2,NA,NA,timeout,4995.895,3475818.9000001,3475813.601,3475830.277,3480809.513,3480811.7000003,2023-06-22T16:06:46Z,3480826.172,NULL,Erneuerung,ukarabati,d,NA,NA,NA,NA,sdf,0,2,NA,NA,NA,NA,NA,NA,NA,NA,NA,NA,NA,NA,NA,NA,NA,NA,NA,NA,NA
29667,deep,flow.Sequence,3_0_2_0_5_0,NA,NA,completion,10191.654,3470604.7000003,3470601.268,3470617.859,3480809.513,3480811.8000002,2023-06-22T16:06:46Z,3480826.172,NULL,Erneuerung,ukarabati,d,NA,NA,NA,NA,sdf,NA,2,NA,NA,NA,NA,NA,NA,NA,NA,NA,NA,NA,NA,NA,NA,NA,NA,NA,NA,NA
29667,shallow,flow.Sequence,3_0_2_0_5_1,NA,NA,skipped,NA,3480811.9000001,NA,NA,3480809.513,3480812,2023-06-22T16:06:46Z,3480826.172,NULL,Erneuerung,ukarabati,d,NA,NA,NA,NA,sdf,NA,2,NA,NA,NA,NA,NA,NA,NA,NA,NA,NA,NA,NA,NA,NA,NA,NA,NA,NA,NA
29667,task,flow.Sequence,3_0_2_0_5,NA,NA,completion,10191.654,3470604.7000003,3470601.268,3470617.859,3480809.513,3480812.0999999,2023-06-22T16:06:46Z,3480826.172,NULL,Erneuerung,ukarabati,d,NA,NA,NA,NA,sdf,NA,2,NA,NA,NA,NA,NA,NA,NA,NA,NA,NA,NA,NA,NA,NA,NA,NA,NA,NA,NA
29667,Deep Question,html.Page,3_0_2_0_6_0_0,NA,NA,form submission,9773.5280002863,3480812.2000003,3480809.513,3480826.172,3490599.7000003,3490600,2023-06-22T16:06:56Z,3490601.412,NULL,Verpackung,ufungaji,d,NA,NA,NA,f,NA,NA,2,NA,NA,NA,NA,NA,NA,NA,NA,NA,NA,NA,NA,NA,NA,NA,NA,NA,NA,NA
29667,"""Richtig""-Screen",canvas.Screen,3_0_2_0_6_0_1,NA,NA,skipped,NA,3490603.0999999,NA,NA,3490599.7000003,3490603.4000001,2023-06-22T16:06:56Z,3490601.412,NULL,Verpackung,ufungaji,d,NA,NA,NA,NA,sdf,NA,2,NA,NA,NA,NA,NA,NA,NA,NA,NA,NA,NA,NA,NA,NA,NA,NA,NA,NA,NA
29667,"""Falsch""-Screen",canvas.Screen,3_0_2_0_6_0_2,NA,NA,timeout,4996.3280000002,3490604,3490584.793,3490601.412,3495580.688,3495582.8000002,2023-06-22T16:07:01Z,3495597.74,NULL,Verpackung,ufungaji,d,NA,NA,NA,NA,sdf,0,2,NA,NA,NA,NA,NA,NA,NA,NA,NA,NA,NA,NA,NA,NA,NA,NA,NA,NA,NA
29667,deep,flow.Sequence,3_0_2_0_6_0,NA,NA,completion,14754.516,3480812.2000003,3480809.513,3480826.172,3495580.688,3495583.0999999,2023-06-22T16:07:01Z,3495597.74,NULL,Verpackung,ufungaji,d,NA,NA,NA,NA,sdf,NA,2,NA,NA,NA,NA,NA,NA,NA,NA,NA,NA,NA,NA,NA,NA,NA,NA,NA,NA,NA
29667,shallow,flow.Sequence,3_0_2_0_6_1,NA,NA,skipped,NA,3495583.0999999,NA,NA,3495580.688,3495583.0999999,2023-06-22T16:07:01Z,3495597.74,NULL,Verpackung,ufungaji,d,NA,NA,NA,NA,sdf,NA,2,NA,NA,NA,NA,NA,NA,NA,NA,NA,NA,NA,NA,NA,NA,NA,NA,NA,NA,NA
29667,task,flow.Sequence,3_0_2_0_6,NA,NA,completion,14754.516,3480812.2000003,3480809.513,3480826.172,3495580.688,3495583.2000003,2023-06-22T16:07:01Z,3495597.74,NULL,Verpackung,ufungaji,d,NA,NA,NA,NA,sdf,NA,2,NA,NA,NA,NA,NA,NA,NA,NA,NA,NA,NA,NA,NA,NA,NA,NA,NA,NA,NA
29667,Deep Question,html.Page,3_0_2_0_7_0_0,NA,NA,form submission,8009.0600001905,3495583.3000002,3495580.688,3495597.74,3503606.8000002,3503606.9000001,2023-06-22T16:07:09Z,3503624.495,NULL,Hoffnung,matarajio,d,NA,NA,NA,f,NA,NA,2,NA,NA,NA,NA,NA,NA,NA,NA,NA,NA,NA,NA,NA,NA,NA,NA,NA,NA,NA
29667,"""Richtig""-Screen",canvas.Screen,3_0_2_0_7_0_1,NA,NA,skipped,NA,3503609.5,NA,NA,3503606.8000002,3503609.7000003,2023-06-22T16:07:09Z,3503624.495,NULL,Hoffnung,matarajio,d,NA,NA,NA,NA,sdf,NA,2,NA,NA,NA,NA,NA,NA,NA,NA,NA,NA,NA,NA,NA,NA,NA,NA,NA,NA,NA
29667,"""Falsch""-Screen",canvas.Screen,3_0_2_0_7_0_2,NA,NA,timeout,4995.446,3503610.5999999,3503590.787,3503624.495,3508603.312,3508603.8000002,2023-06-22T16:07:14Z,3508619.941,NULL,Hoffnung,matarajio,d,NA,NA,NA,NA,sdf,0,2,NA,NA,NA,NA,NA,NA,NA,NA,NA,NA,NA,NA,NA,NA,NA,NA,NA,NA,NA
29667,deep,flow.Sequence,3_0_2_0_7_0,NA,NA,completion,13005.572,3495583.3000002,3495580.688,3495597.74,3508603.312,3508604,2023-06-22T16:07:14Z,3508619.941,NULL,Hoffnung,matarajio,d,NA,NA,NA,NA,sdf,NA,2,NA,NA,NA,NA,NA,NA,NA,NA,NA,NA,NA,NA,NA,NA,NA,NA,NA,NA,NA
29667,shallow,flow.Sequence,3_0_2_0_7_1,NA,NA,skipped,NA,3508604.0999999,NA,NA,3508603.312,3508604.2000003,2023-06-22T16:07:14Z,3508619.941,NULL,Hoffnung,matarajio,d,NA,NA,NA,NA,sdf,NA,2,NA,NA,NA,NA,NA,NA,NA,NA,NA,NA,NA,NA,NA,NA,NA,NA,NA,NA,NA
29667,task,flow.Sequence,3_0_2_0_7,NA,NA,completion,13005.572,3495583.3000002,3495580.688,3495597.74,3508603.312,3508604.3000002,2023-06-22T16:07:14Z,3508619.941,NULL,Hoffnung,matarajio,d,NA,NA,NA,NA,sdf,NA,2,NA,NA,NA,NA,NA,NA,NA,NA,NA,NA,NA,NA,NA,NA,NA,NA,NA,NA,NA
29667,block,flow.Loop,3_0_2_0,NA,NA,completion,83280.344,3425297,3425288.51,3425322.968,3508603.312,3508604.4000001,2023-06-22T16:07:14Z,3508619.941,NULL,NA,NA,NA,NA,NA,NA,NA,sdf,NA,2,NA,NA,NA,NA,NA,NA,NA,NA,NA,NA,NA,NA,NA,NA,NA,NA,NA,NA,NA
29667,weiter,canvas.Screen,3_0_2_1,sdf,keypress(Space),response,1427.0589999999,3508604.4000001,3508603.312,3508619.941,3510047,3510047.4000001,2023-06-22T16:07:16Z,3510102.059,NULL,NA,NA,NA,NA,NA,NA,NA,sdf,NA,2,NA,NA,NA,NA,NA,NA,NA,NA,NA,NA,NA,NA,NA,NA,NA,NA,NA,NA,NA
29667,check continue,flow.Sequence,3_0_2,NA,NA,completion,84724.032,3425296.9000001,3425288.51,3425322.968,3510047,3510047.5999999,2023-06-22T16:07:16Z,3510102.059,NULL,NA,NA,NA,NA,NA,NA,NA,sdf,NA,2,NA,NA,NA,NA,NA,NA,NA,NA,NA,NA,NA,NA,NA,NA,NA,NA,NA,NA,NA
29667,deep,flow.Sequence,3_0_3_0_0_0,NA,NA,skipped,NA,3510084.9000001,NA,NA,3510047,3510084.9000001,2023-06-22T16:07:16Z,3510102.059,NULL,Theorie,nadharia,s,ushungi,mkutano,uwakilishi,NA,qt,NA,3,NA,NA,NA,NA,NA,NA,NA,NA,NA,NA,NA,NA,NA,NA,NA,NA,NA,NA,NA
29667,Shallow Question,html.Page,3_0_3_0_0_1_0,NA,NA,form submission,2555.3410000955,3510085,3510085.338,3510102.059,3512657.4000001,3512657.8000002,2023-06-22T16:07:18Z,3512666.61,NULL,Theorie,nadharia,s,ushungi,mkutano,uwakilishi,nadharia,NA,NA,3,NA,NA,NA,NA,NA,NA,NA,NA,NA,NA,NA,NA,NA,NA,NA,NA,NA,NA,NA
29667,"""Richtig""-Screen",canvas.Screen,3_0_3_0_0_1_1,NA,NA,timeout,4996.0050000004,3512658.5999999,3512649.976,3512666.61,3517645.807,3517646.2000003,2023-06-22T16:07:23Z,3517662.615,NULL,Theorie,nadharia,s,ushungi,mkutano,uwakilishi,NA,qt,1,3,NA,NA,NA,NA,NA,NA,NA,NA,NA,NA,NA,NA,NA,NA,NA,NA,NA,NA,NA
29667,"""Falsch""-Screen",canvas.Screen,3_0_3_0_0_1_2,NA,NA,skipped,NA,3517647.9000001,NA,NA,3517645.807,3517648.0999999,2023-06-22T16:07:23Z,3517662.615,NULL,Theorie,nadharia,s,ushungi,mkutano,uwakilishi,NA,qt,NA,3,NA,NA,NA,NA,NA,NA,NA,NA,NA,NA,NA,NA,NA,NA,NA,NA,NA,NA,NA
29667,shallow,flow.Sequence,3_0_3_0_0_1,NA,NA,completion,7543.7480000001,3510085,3510085.338,3510102.059,3517645.807,3517648.3000002,2023-06-22T16:07:23Z,3517662.615,NULL,Theorie,nadharia,s,ushungi,mkutano,uwakilishi,NA,qt,NA,3,NA,NA,NA,NA,NA,NA,NA,NA,NA,NA,NA,NA,NA,NA,NA,NA,NA,NA,NA
29667,task,flow.Sequence,3_0_3_0_0,NA,NA,completion,7543.7480000001,3510084.8000002,3510085.338,3510102.059,3517645.807,3517648.3000002,2023-06-22T16:07:23Z,3517662.615,NULL,Theorie,nadharia,s,ushungi,mkutano,uwakilishi,NA,qt,NA,3,NA,NA,NA,NA,NA,NA,NA,NA,NA,NA,NA,NA,NA,NA,NA,NA,NA,NA,NA
29667,Deep Question,html.Page,3_0_3_0_1_0_0,NA,NA,form submission,8166.4849999044,3517648.4000001,3517645.807,3517662.615,3525829.0999999,3525829.4000001,2023-06-22T16:07:31Z,3525839.074,NULL,Wechsel,ugeuzaji,d,NA,NA,NA,ugeuzaji,NA,NA,3,NA,NA,NA,NA,NA,NA,NA,NA,NA,NA,NA,NA,NA,NA,NA,NA,NA,NA,NA
29667,"""Richtig""-Screen",canvas.Screen,3_0_3_0_1_0_1,NA,NA,timeout,4996.0720000002,3525831.7000003,3525822.464,3525839.074,3530818.352,3530818.8000002,2023-06-22T16:07:36Z,3530835.146,NULL,Wechsel,ugeuzaji,d,NA,NA,NA,NA,qt,1,3,NA,NA,NA,NA,NA,NA,NA,NA,NA,NA,NA,NA,NA,NA,NA,NA,NA,NA,NA
29667,"""Falsch""-Screen",canvas.Screen,3_0_3_0_1_0_2,NA,NA,skipped,NA,3530821,NA,NA,3530818.352,3530821.2000003,2023-06-22T16:07:36Z,3530835.146,NULL,Wechsel,ugeuzaji,d,NA,NA,NA,NA,qt,NA,3,NA,NA,NA,NA,NA,NA,NA,NA,NA,NA,NA,NA,NA,NA,NA,NA,NA,NA,NA
29667,deep,flow.Sequence,3_0_3_0_1_0,NA,NA,completion,13155.737,3517648.4000001,3517645.807,3517662.615,3530818.352,3530821.4000001,2023-06-22T16:07:36Z,3530835.146,NULL,Wechsel,ugeuzaji,d,NA,NA,NA,NA,qt,NA,3,NA,NA,NA,NA,NA,NA,NA,NA,NA,NA,NA,NA,NA,NA,NA,NA,NA,NA,NA
29667,shallow,flow.Sequence,3_0_3_0_1_1,NA,NA,skipped,NA,3530821.4000001,NA,NA,3530818.352,3530821.5,2023-06-22T16:07:36Z,3530835.146,NULL,Wechsel,ugeuzaji,d,NA,NA,NA,NA,qt,NA,3,NA,NA,NA,NA,NA,NA,NA,NA,NA,NA,NA,NA,NA,NA,NA,NA,NA,NA,NA
29667,task,flow.Sequence,3_0_3_0_1,NA,NA,completion,13155.737,3517648.4000001,3517645.807,3517662.615,3530818.352,3530821.5999999,2023-06-22T16:07:36Z,3530835.146,NULL,Wechsel,ugeuzaji,d,NA,NA,NA,NA,qt,NA,3,NA,NA,NA,NA,NA,NA,NA,NA,NA,NA,NA,NA,NA,NA,NA,NA,NA,NA,NA
29667,Deep Question,html.Page,3_0_3_0_2_0_0,NA,NA,form submission,6257.6540001906,3530821.7000003,3530818.352,3530835.146,3537092.8000002,3537093,2023-06-22T16:07:43Z,3537096.464,NULL,Hoffnung,matarajio,d,NA,NA,NA,mataraji,NA,NA,3,NA,NA,NA,NA,NA,NA,NA,NA,NA,NA,NA,NA,NA,NA,NA,NA,NA,NA,NA
29667,"""Richtig""-Screen",canvas.Screen,3_0_3_0_2_0_1,NA,NA,skipped,NA,3537094.5,NA,NA,3537092.8000002,3537094.7000003,2023-06-22T16:07:43Z,3537096.464,NULL,Hoffnung,matarajio,d,NA,NA,NA,NA,qt,NA,3,NA,NA,NA,NA,NA,NA,NA,NA,NA,NA,NA,NA,NA,NA,NA,NA,NA,NA,NA
29667,"""Falsch""-Screen",canvas.Screen,3_0_3_0_2_0_2,NA,NA,timeout,4995.9269999997,3537095.2000003,3537079.892,3537096.464,3542075.732,3542078.3000002,2023-06-22T16:07:48Z,3542092.391,NULL,Hoffnung,matarajio,d,NA,NA,NA,NA,qt,0,3,NA,NA,NA,NA,NA,NA,NA,NA,NA,NA,NA,NA,NA,NA,NA,NA,NA,NA,NA
29667,deep,flow.Sequence,3_0_3_0_2_0,NA,NA,completion,11240.586,3530821.7000003,3530818.352,3530835.146,3542075.732,3542078.5,2023-06-22T16:07:48Z,3542092.391,NULL,Hoffnung,matarajio,d,NA,NA,NA,NA,qt,NA,3,NA,NA,NA,NA,NA,NA,NA,NA,NA,NA,NA,NA,NA,NA,NA,NA,NA,NA,NA
29667,shallow,flow.Sequence,3_0_3_0_2_1,NA,NA,skipped,NA,3542078.5999999,NA,NA,3542075.732,3542078.5999999,2023-06-22T16:07:48Z,3542092.391,NULL,Hoffnung,matarajio,d,NA,NA,NA,NA,qt,NA,3,NA,NA,NA,NA,NA,NA,NA,NA,NA,NA,NA,NA,NA,NA,NA,NA,NA,NA,NA
29667,task,flow.Sequence,3_0_3_0_2,NA,NA,completion,11240.586,3530821.5999999,3530818.352,3530835.146,3542075.732,3542078.8000002,2023-06-22T16:07:48Z,3542092.391,NULL,Hoffnung,matarajio,d,NA,NA,NA,NA,qt,NA,3,NA,NA,NA,NA,NA,NA,NA,NA,NA,NA,NA,NA,NA,NA,NA,NA,NA,NA,NA
29667,deep,flow.Sequence,3_0_3_0_3_0,NA,NA,skipped,NA,3542078.8000002,NA,NA,3542075.732,3542078.9000001,2023-06-22T16:07:48Z,3542092.391,NULL,Flexibilität,kubadilika,s,enjini,usikilivu,hesabu,NA,qt,NA,3,NA,NA,NA,NA,NA,NA,NA,NA,NA,NA,NA,NA,NA,NA,NA,NA,NA,NA,NA
29667,Shallow Question,html.Page,3_0_3_0_3_1_0,NA,NA,form submission,5296.2089999048,3542079,3542075.732,3542092.391,3547388.5999999,3547388.9000001,2023-06-22T16:07:53Z,3547404.685,NULL,Flexibilität,kubadilika,s,enjini,usikilivu,hesabu,kubadilika,NA,NA,3,NA,NA,NA,NA,NA,NA,NA,NA,NA,NA,NA,NA,NA,NA,NA,NA,NA,NA,NA
29667,"""Richtig""-Screen",canvas.Screen,3_0_3_0_3_1_1,NA,NA,timeout,4995.8539999998,3547391.3000002,3547371.381,3547404.685,3552383.932,3552384.4000001,2023-06-22T16:07:58Z,3552400.539,NULL,Flexibilität,kubadilika,s,enjini,usikilivu,hesabu,NA,qt,1,3,NA,NA,NA,NA,NA,NA,NA,NA,NA,NA,NA,NA,NA,NA,NA,NA,NA,NA,NA
29667,"""Falsch""-Screen",canvas.Screen,3_0_3_0_3_1_2,NA,NA,skipped,NA,3552386.0999999,NA,NA,3552383.932,3552386.2000003,2023-06-22T16:07:58Z,3552400.539,NULL,Flexibilität,kubadilika,s,enjini,usikilivu,hesabu,NA,qt,NA,3,NA,NA,NA,NA,NA,NA,NA,NA,NA,NA,NA,NA,NA,NA,NA,NA,NA,NA,NA
29667,shallow,flow.Sequence,3_0_3_0_3_1,NA,NA,completion,10291.541,3542079,3542075.732,3542092.391,3552383.932,3552386.4000001,2023-06-22T16:07:58Z,3552400.539,NULL,Flexibilität,kubadilika,s,enjini,usikilivu,hesabu,NA,qt,NA,3,NA,NA,NA,NA,NA,NA,NA,NA,NA,NA,NA,NA,NA,NA,NA,NA,NA,NA,NA
29667,task,flow.Sequence,3_0_3_0_3,NA,NA,completion,10291.541,3542078.8000002,3542075.732,3542092.391,3552383.932,3552386.5,2023-06-22T16:07:58Z,3552400.539,NULL,Flexibilität,kubadilika,s,enjini,usikilivu,hesabu,NA,qt,NA,3,NA,NA,NA,NA,NA,NA,NA,NA,NA,NA,NA,NA,NA,NA,NA,NA,NA,NA,NA
29667,deep,flow.Sequence,3_0_3_0_4_0,NA,NA,skipped,NA,3552386.5,NA,NA,3552383.932,3552386.5999999,2023-06-22T16:07:58Z,3552400.539,NULL,Atmosphäre,angahewa,s,kuteseka,usahihi,kutoamini,NA,qt,NA,3,NA,NA,NA,NA,NA,NA,NA,NA,NA,NA,NA,NA,NA,NA,NA,NA,NA,NA,NA
29667,Shallow Question,html.Page,3_0_3_0_4_1_0,NA,NA,form submission,2962.0609999048,3552386.7000003,3552383.932,3552400.539,3555362.5999999,3555362.9000001,2023-06-22T16:08:01Z,3555364.772,NULL,Atmosphäre,angahewa,s,kuteseka,usahihi,kutoamini,angahewa,NA,NA,3,NA,NA,NA,NA,NA,NA,NA,NA,NA,NA,NA,NA,NA,NA,NA,NA,NA,NA,NA
29667,"""Richtig""-Screen",canvas.Screen,3_0_3_0_4_1_1,NA,NA,timeout,4995.9310000003,3555363.5999999,3555348.145,3555364.772,3560344.053,3560344.5999999,2023-06-22T16:08:06Z,3560360.703,NULL,Atmosphäre,angahewa,s,kuteseka,usahihi,kutoamini,NA,qt,1,3,NA,NA,NA,NA,NA,NA,NA,NA,NA,NA,NA,NA,NA,NA,NA,NA,NA,NA,NA
29667,"""Falsch""-Screen",canvas.Screen,3_0_3_0_4_1_2,NA,NA,skipped,NA,3560347,NA,NA,3560344.053,3560347.0999999,2023-06-22T16:08:06Z,3560360.703,NULL,Atmosphäre,angahewa,s,kuteseka,usahihi,kutoamini,NA,qt,NA,3,NA,NA,NA,NA,NA,NA,NA,NA,NA,NA,NA,NA,NA,NA,NA,NA,NA,NA,NA
29667,shallow,flow.Sequence,3_0_3_0_4_1,NA,NA,completion,7943.514,3552386.7000003,3552383.932,3552400.539,3560344.053,3560347.3000002,2023-06-22T16:08:06Z,3560360.703,NULL,Atmosphäre,angahewa,s,kuteseka,usahihi,kutoamini,NA,qt,NA,3,NA,NA,NA,NA,NA,NA,NA,NA,NA,NA,NA,NA,NA,NA,NA,NA,NA,NA,NA
29667,task,flow.Sequence,3_0_3_0_4,NA,NA,completion,7943.514,3552386.5,3552383.932,3552400.539,3560344.053,3560347.4000001,2023-06-22T16:08:06Z,3560360.703,NULL,Atmosphäre,angahewa,s,kuteseka,usahihi,kutoamini,NA,qt,NA,3,NA,NA,NA,NA,NA,NA,NA,NA,NA,NA,NA,NA,NA,NA,NA,NA,NA,NA,NA
29667,Deep Question,html.Page,3_0_3_0_5_0_0,NA,NA,form submission,4690.9970002859,3560347.5999999,3560344.053,3560360.703,3565051.7000003,3565052,2023-06-22T16:08:11Z,3565056.778,NULL,Verpackung,ufungaji,d,NA,NA,NA,ufungi,NA,NA,3,NA,NA,NA,NA,NA,NA,NA,NA,NA,NA,NA,NA,NA,NA,NA,NA,NA,NA,NA
29667,"""Richtig""-Screen",canvas.Screen,3_0_3_0_5_0_1,NA,NA,skipped,NA,3565053.8000002,NA,NA,3565051.7000003,3565053.9000001,2023-06-22T16:08:11Z,3565056.778,NULL,Verpackung,ufungaji,d,NA,NA,NA,NA,qt,NA,3,NA,NA,NA,NA,NA,NA,NA,NA,NA,NA,NA,NA,NA,NA,NA,NA,NA,NA,NA
29667,"""Falsch""-Screen",canvas.Screen,3_0_3_0_5_0_2,NA,NA,timeout,4995.9339999999,3565054.5,3565040.199,3565056.778,3570036.059,3570036.5,2023-06-22T16:08:16Z,3570052.712,NULL,Verpackung,ufungaji,d,NA,NA,NA,NA,qt,0,3,NA,NA,NA,NA,NA,NA,NA,NA,NA,NA,NA,NA,NA,NA,NA,NA,NA,NA,NA
29667,deep,flow.Sequence,3_0_3_0_5_0,NA,NA,completion,9675.3559999997,3560347.5999999,3560344.053,3560360.703,3570036.059,3570036.7000003,2023-06-22T16:08:16Z,3570052.712,NULL,Verpackung,ufungaji,d,NA,NA,NA,NA,qt,NA,3,NA,NA,NA,NA,NA,NA,NA,NA,NA,NA,NA,NA,NA,NA,NA,NA,NA,NA,NA
29667,shallow,flow.Sequence,3_0_3_0_5_1,NA,NA,skipped,NA,3570036.7000003,NA,NA,3570036.059,3570036.8000002,2023-06-22T16:08:16Z,3570052.712,NULL,Verpackung,ufungaji,d,NA,NA,NA,NA,qt,NA,3,NA,NA,NA,NA,NA,NA,NA,NA,NA,NA,NA,NA,NA,NA,NA,NA,NA,NA,NA
29667,task,flow.Sequence,3_0_3_0_5,NA,NA,completion,9675.3559999997,3560347.5,3560344.053,3560360.703,3570036.059,3570036.9000001,2023-06-22T16:08:16Z,3570052.712,NULL,Verpackung,ufungaji,d,NA,NA,NA,NA,qt,NA,3,NA,NA,NA,NA,NA,NA,NA,NA,NA,NA,NA,NA,NA,NA,NA,NA,NA,NA,NA
29667,deep,flow.Sequence,3_0_3_0_6_0,NA,NA,skipped,NA,3570037.0999999,NA,NA,3570036.059,3570037.0999999,2023-06-22T16:08:16Z,3570052.712,NULL,Schock,mshtuko,s,biashara,kukataza,vichekesho,NA,qt,NA,3,NA,NA,NA,NA,NA,NA,NA,NA,NA,NA,NA,NA,NA,NA,NA,NA,NA,NA,NA
29667,Shallow Question,html.Page,3_0_3_0_6_1_0,NA,NA,form submission,4970.5880001909,3570037.8000002,3570036.059,3570052.712,3575023.3000002,3575023.5999999,2023-06-22T16:08:21Z,3575031.905,NULL,Schock,mshtuko,s,biashara,kukataza,vichekesho,mshtuko,NA,NA,3,NA,NA,NA,NA,NA,NA,NA,NA,NA,NA,NA,NA,NA,NA,NA,NA,NA,NA,NA
29667,"""Richtig""-Screen",canvas.Screen,3_0_3_0_6_1_1,NA,NA,timeout,4995.8870000001,3575026,3575015.325,3575031.905,3580011.181,3580011.5999999,2023-06-22T16:08:26Z,3580027.792,NULL,Schock,mshtuko,s,biashara,kukataza,vichekesho,NA,qt,1,3,NA,NA,NA,NA,NA,NA,NA,NA,NA,NA,NA,NA,NA,NA,NA,NA,NA,NA,NA
29667,"""Falsch""-Screen",canvas.Screen,3_0_3_0_6_1_2,NA,NA,skipped,NA,3580014,NA,NA,3580011.181,3580014.0999999,2023-06-22T16:08:26Z,3580027.792,NULL,Schock,mshtuko,s,biashara,kukataza,vichekesho,NA,qt,NA,3,NA,NA,NA,NA,NA,NA,NA,NA,NA,NA,NA,NA,NA,NA,NA,NA,NA,NA,NA
29667,shallow,flow.Sequence,3_0_3_0_6_1,NA,NA,completion,9958.469,3570037.7000003,3570036.059,3570052.712,3580011.181,3580014.2000003,2023-06-22T16:08:26Z,3580027.792,NULL,Schock,mshtuko,s,biashara,kukataza,vichekesho,NA,qt,NA,3,NA,NA,NA,NA,NA,NA,NA,NA,NA,NA,NA,NA,NA,NA,NA,NA,NA,NA,NA
29667,task,flow.Sequence,3_0_3_0_6,NA,NA,completion,9958.469,3570037,3570036.059,3570052.712,3580011.181,3580014.4000001,2023-06-22T16:08:26Z,3580027.792,NULL,Schock,mshtuko,s,biashara,kukataza,vichekesho,NA,qt,NA,3,NA,NA,NA,NA,NA,NA,NA,NA,NA,NA,NA,NA,NA,NA,NA,NA,NA,NA,NA
29667,Deep Question,html.Page,3_0_3_0_7_0_0,NA,NA,form submission,11118.908000286,3580014.5,3580011.181,3580027.792,3591146.7000003,3591146.9000001,2023-06-22T16:08:37Z,3591151.969,NULL,Erneuerung,ukarabati,d,NA,NA,NA,akara,NA,NA,3,NA,NA,NA,NA,NA,NA,NA,NA,NA,NA,NA,NA,NA,NA,NA,NA,NA,NA,NA
29667,"""Richtig""-Screen",canvas.Screen,3_0_3_0_7_0_1,NA,NA,skipped,NA,3591149.0999999,NA,NA,3591146.7000003,3591149.4000001,2023-06-22T16:08:37Z,3591151.969,NULL,Erneuerung,ukarabati,d,NA,NA,NA,NA,qt,NA,3,NA,NA,NA,NA,NA,NA,NA,NA,NA,NA,NA,NA,NA,NA,NA,NA,NA,NA,NA
29667,"""Falsch""-Screen",canvas.Screen,3_0_3_0_7_0_2,NA,NA,timeout,4995.9470000002,3591150.3000002,3591135.362,3591151.969,3596131.258,3596131.7000003,2023-06-22T16:08:42Z,3596147.916,NULL,Erneuerung,ukarabati,d,NA,NA,NA,NA,qt,0,3,NA,NA,NA,NA,NA,NA,NA,NA,NA,NA,NA,NA,NA,NA,NA,NA,NA,NA,NA
29667,deep,flow.Sequence,3_0_3_0_7_0,NA,NA,completion,16103.466,3580014.5,3580011.181,3580027.792,3596131.258,3596131.8000002,2023-06-22T16:08:42Z,3596147.916,NULL,Erneuerung,ukarabati,d,NA,NA,NA,NA,qt,NA,3,NA,NA,NA,NA,NA,NA,NA,NA,NA,NA,NA,NA,NA,NA,NA,NA,NA,NA,NA
29667,shallow,flow.Sequence,3_0_3_0_7_1,NA,NA,skipped,NA,3596131.9000001,NA,NA,3596131.258,3596132,2023-06-22T16:08:42Z,3596147.916,NULL,Erneuerung,ukarabati,d,NA,NA,NA,NA,qt,NA,3,NA,NA,NA,NA,NA,NA,NA,NA,NA,NA,NA,NA,NA,NA,NA,NA,NA,NA,NA
29667,task,flow.Sequence,3_0_3_0_7,NA,NA,completion,16103.466,3580014.5,3580011.181,3580027.792,3596131.258,3596132.0999999,2023-06-22T16:08:42Z,3596147.916,NULL,Erneuerung,ukarabati,d,NA,NA,NA,NA,qt,NA,3,NA,NA,NA,NA,NA,NA,NA,NA,NA,NA,NA,NA,NA,NA,NA,NA,NA,NA,NA
29667,block,flow.Loop,3_0_3_0,NA,NA,completion,86029.199,3510084.8000002,3510085.338,3510102.059,3596131.258,3596132.0999999,2023-06-22T16:08:42Z,3596147.916,NULL,NA,NA,NA,NA,NA,NA,NA,qt,NA,3,NA,NA,NA,NA,NA,NA,NA,NA,NA,NA,NA,NA,NA,NA,NA,NA,NA,NA,NA
29667,weiter,canvas.Screen,3_0_3_1,sdf,keypress(Space),response,1592.0839999998,3596132.2000003,3596131.258,3596147.916,3597740,3597740.5999999,2023-06-22T16:08:43Z,3597779.849,NULL,NA,NA,NA,NA,NA,NA,NA,qt,NA,3,NA,NA,NA,NA,NA,NA,NA,NA,NA,NA,NA,NA,NA,NA,NA,NA,NA,NA,NA
29667,check continue,flow.Sequence,3_0_3,NA,NA,completion,87637.941,3510084.7000003,3510085.338,3510102.059,3597740,3597740.8000002,2023-06-22T16:08:43Z,3597779.849,NULL,NA,NA,NA,NA,NA,NA,NA,qt,NA,3,NA,NA,NA,NA,NA,NA,NA,NA,NA,NA,NA,NA,NA,NA,NA,NA,NA,NA,NA
29667,deep,flow.Sequence,3_0_4_0_0_0,NA,NA,skipped,NA,3597774.5,NA,NA,3597740,3597774.7000003,2023-06-22T16:08:43Z,3597779.849,NULL,Theorie,nadharia,s,ushungi,mkutano,uwakilishi,NA,sd,NA,4,NA,NA,NA,NA,NA,NA,NA,NA,NA,NA,NA,NA,NA,NA,NA,NA,NA,NA,NA
29667,Shallow Question,html.Page,3_0_4_0_0_1_0,NA,NA,form submission,4432.6510000001,3597774.8000002,3597763.17,3597779.849,3602212.5,3602212.7000003,2023-06-22T16:08:48Z,3602226.232,NULL,Theorie,nadharia,s,ushungi,mkutano,uwakilishi,nadharia,NA,NA,4,NA,NA,NA,NA,NA,NA,NA,NA,NA,NA,NA,NA,NA,NA,NA,NA,NA,NA,NA
29667,"""Richtig""-Screen",canvas.Screen,3_0_4_0_0_1_1,NA,NA,timeout,4995.8840000001,3602214.9000001,3602209.625,3602226.232,3607205.473,3607207.2000003,2023-06-22T16:08:53Z,3607222.116,NULL,Theorie,nadharia,s,ushungi,mkutano,uwakilishi,NA,sd,1,4,NA,NA,NA,NA,NA,NA,NA,NA,NA,NA,NA,NA,NA,NA,NA,NA,NA,NA,NA
29667,"""Falsch""-Screen",canvas.Screen,3_0_4_0_0_1_2,NA,NA,skipped,NA,3607209.8000002,NA,NA,3607205.473,3607209.9000001,2023-06-22T16:08:53Z,3607222.116,NULL,Theorie,nadharia,s,ushungi,mkutano,uwakilishi,NA,sd,NA,4,NA,NA,NA,NA,NA,NA,NA,NA,NA,NA,NA,NA,NA,NA,NA,NA,NA,NA,NA
29667,shallow,flow.Sequence,3_0_4_0_0_1,NA,NA,completion,9425.6240000003,3597774.7000003,3597763.17,3597779.849,3607205.473,3607210.0999999,2023-06-22T16:08:53Z,3607222.116,NULL,Theorie,nadharia,s,ushungi,mkutano,uwakilishi,NA,sd,NA,4,NA,NA,NA,NA,NA,NA,NA,NA,NA,NA,NA,NA,NA,NA,NA,NA,NA,NA,NA
29667,task,flow.Sequence,3_0_4_0_0,NA,NA,completion,9425.6240000003,3597774.5,3597763.17,3597779.849,3607205.473,3607210.4000001,2023-06-22T16:08:53Z,3607222.116,NULL,Theorie,nadharia,s,ushungi,mkutano,uwakilishi,NA,sd,NA,4,NA,NA,NA,NA,NA,NA,NA,NA,NA,NA,NA,NA,NA,NA,NA,NA,NA,NA,NA
29667,deep,flow.Sequence,3_0_4_0_1_0,NA,NA,skipped,NA,3607210.5,NA,NA,3607205.473,3607210.5999999,2023-06-22T16:08:53Z,3607222.116,NULL,Atmosphäre,angahewa,s,kuteseka,usahihi,kutoamini,NA,sd,NA,4,NA,NA,NA,NA,NA,NA,NA,NA,NA,NA,NA,NA,NA,NA,NA,NA,NA,NA,NA
29667,Shallow Question,html.Page,3_0_4_0_1_1_0,NA,NA,form submission,2027.7840000954,3607210.8000002,3607205.473,3607222.116,3609249.9000001,3609250.0999999,2023-06-22T16:08:55Z,3609253.732,NULL,Atmosphäre,angahewa,s,kuteseka,usahihi,kutoamini,angahewa,NA,NA,4,NA,NA,NA,NA,NA,NA,NA,NA,NA,NA,NA,NA,NA,NA,NA,NA,NA,NA,NA
29667,"""Richtig""-Screen",canvas.Screen,3_0_4_0_1_1_1,NA,NA,timeout,4995.96,3609250.7000003,3609237.174,3609253.732,3614232.973,3614233.3000002,2023-06-22T16:09:00Z,3614249.692,NULL,Atmosphäre,angahewa,s,kuteseka,usahihi,kutoamini,NA,sd,1,4,NA,NA,NA,NA,NA,NA,NA,NA,NA,NA,NA,NA,NA,NA,NA,NA,NA,NA,NA
29667,"""Falsch""-Screen",canvas.Screen,3_0_4_0_1_1_2,NA,NA,skipped,NA,3614235.4000001,NA,NA,3614232.973,3614235.5,2023-06-22T16:09:00Z,3614249.692,NULL,Atmosphäre,angahewa,s,kuteseka,usahihi,kutoamini,NA,sd,NA,4,NA,NA,NA,NA,NA,NA,NA,NA,NA,NA,NA,NA,NA,NA,NA,NA,NA,NA,NA
29667,shallow,flow.Sequence,3_0_4_0_1_1,NA,NA,completion,7010.8570000003,3607210.8000002,3607205.473,3607222.116,3614232.973,3614235.7000003,2023-06-22T16:09:00Z,3614249.692,NULL,Atmosphäre,angahewa,s,kuteseka,usahihi,kutoamini,NA,sd,NA,4,NA,NA,NA,NA,NA,NA,NA,NA,NA,NA,NA,NA,NA,NA,NA,NA,NA,NA,NA
29667,task,flow.Sequence,3_0_4_0_1,NA,NA,completion,7010.8570000003,3607210.5,3607205.473,3607222.116,3614232.973,3614235.8000002,2023-06-22T16:09:00Z,3614249.692,NULL,Atmosphäre,angahewa,s,kuteseka,usahihi,kutoamini,NA,sd,NA,4,NA,NA,NA,NA,NA,NA,NA,NA,NA,NA,NA,NA,NA,NA,NA,NA,NA,NA,NA
29667,Deep Question,html.Page,3_0_4_0_2_0_0,NA,NA,form submission,9960.9079999048,3614235.9000001,3614232.973,3614249.692,3624210.5999999,3624210.9000001,2023-06-22T16:09:10Z,3624224.78,NULL,Hoffnung,matarajio,d,NA,NA,NA,matarajio,NA,NA,4,NA,NA,NA,NA,NA,NA,NA,NA,NA,NA,NA,NA,NA,NA,NA,NA,NA,NA,NA
29667,"""Richtig""-Screen",canvas.Screen,3_0_4_0_2_0_1,NA,NA,timeout,4995.8960000002,3624212.8000002,3624208.087,3624224.78,3629204.029,3629204.5,2023-06-22T16:09:15Z,3629220.676,NULL,Hoffnung,matarajio,d,NA,NA,NA,NA,sd,1,4,NA,NA,NA,NA,NA,NA,NA,NA,NA,NA,NA,NA,NA,NA,NA,NA,NA,NA,NA
29667,"""Falsch""-Screen",canvas.Screen,3_0_4_0_2_0_2,NA,NA,skipped,NA,3629206.3000002,NA,NA,3629204.029,3629206.4000001,2023-06-22T16:09:15Z,3629220.676,NULL,Hoffnung,matarajio,d,NA,NA,NA,NA,sd,NA,4,NA,NA,NA,NA,NA,NA,NA,NA,NA,NA,NA,NA,NA,NA,NA,NA,NA,NA,NA
29667,deep,flow.Sequence,3_0_4_0_2_0,NA,NA,completion,14954.337,3614235.9000001,3614232.973,3614249.692,3629204.029,3629206.5999999,2023-06-22T16:09:15Z,3629220.676,NULL,Hoffnung,matarajio,d,NA,NA,NA,NA,sd,NA,4,NA,NA,NA,NA,NA,NA,NA,NA,NA,NA,NA,NA,NA,NA,NA,NA,NA,NA,NA
29667,shallow,flow.Sequence,3_0_4_0_2_1,NA,NA,skipped,NA,3629206.5999999,NA,NA,3629204.029,3629206.7000003,2023-06-22T16:09:15Z,3629220.676,NULL,Hoffnung,matarajio,d,NA,NA,NA,NA,sd,NA,4,NA,NA,NA,NA,NA,NA,NA,NA,NA,NA,NA,NA,NA,NA,NA,NA,NA,NA,NA
29667,task,flow.Sequence,3_0_4_0_2,NA,NA,completion,14954.337,3614235.9000001,3614232.973,3614249.692,3629204.029,3629206.7000003,2023-06-22T16:09:15Z,3629220.676,NULL,Hoffnung,matarajio,d,NA,NA,NA,NA,sd,NA,4,NA,NA,NA,NA,NA,NA,NA,NA,NA,NA,NA,NA,NA,NA,NA,NA,NA,NA,NA
29667,deep,flow.Sequence,3_0_4_0_3_0,NA,NA,skipped,NA,3629206.8000002,NA,NA,3629204.029,3629206.8000002,2023-06-22T16:09:15Z,3629220.676,NULL,Flexibilität,kubadilika,s,enjini,usikilivu,hesabu,NA,sd,NA,4,NA,NA,NA,NA,NA,NA,NA,NA,NA,NA,NA,NA,NA,NA,NA,NA,NA,NA,NA
29667,Shallow Question,html.Page,3_0_4_0_3_1_0,NA,NA,form submission,3323.2240000954,3629206.9000001,3629204.029,3629220.676,3632543.9000001,3632544.3000002,2023-06-22T16:09:18Z,3632551.258,NULL,Flexibilität,kubadilika,s,enjini,usikilivu,hesabu,kubadilika,NA,NA,4,NA,NA,NA,NA,NA,NA,NA,NA,NA,NA,NA,NA,NA,NA,NA,NA,NA,NA,NA
29667,"""Richtig""-Screen",canvas.Screen,3_0_4_0_3_1_1,NA,NA,timeout,4995.8540000003,3632546.5999999,3632534.603,3632551.258,3637530.508,3637531,2023-06-22T16:09:23Z,3637547.112,NULL,Flexibilität,kubadilika,s,enjini,usikilivu,hesabu,NA,sd,1,4,NA,NA,NA,NA,NA,NA,NA,NA,NA,NA,NA,NA,NA,NA,NA,NA,NA,NA,NA
29667,"""Falsch""-Screen",canvas.Screen,3_0_4_0_3_1_2,NA,NA,skipped,NA,3637533.2000003,NA,NA,3637530.508,3637533.4000001,2023-06-22T16:09:23Z,3637547.112,NULL,Flexibilität,kubadilika,s,enjini,usikilivu,hesabu,NA,sd,NA,4,NA,NA,NA,NA,NA,NA,NA,NA,NA,NA,NA,NA,NA,NA,NA,NA,NA,NA,NA
29667,shallow,flow.Sequence,3_0_4_0_3_1,NA,NA,completion,8309.8319999999,3629206.9000001,3629204.029,3629220.676,3637530.508,3637533.5999999,2023-06-22T16:09:23Z,3637547.112,NULL,Flexibilität,kubadilika,s,enjini,usikilivu,hesabu,NA,sd,NA,4,NA,NA,NA,NA,NA,NA,NA,NA,NA,NA,NA,NA,NA,NA,NA,NA,NA,NA,NA
29667,task,flow.Sequence,3_0_4_0_3,NA,NA,completion,8309.8319999999,3629206.7000003,3629204.029,3629220.676,3637530.508,3637533.5999999,2023-06-22T16:09:23Z,3637547.112,NULL,Flexibilität,kubadilika,s,enjini,usikilivu,hesabu,NA,sd,NA,4,NA,NA,NA,NA,NA,NA,NA,NA,NA,NA,NA,NA,NA,NA,NA,NA,NA,NA,NA
29667,deep,flow.Sequence,3_0_4_0_4_0,NA,NA,skipped,NA,3637533.8000002,NA,NA,3637530.508,3637533.8000002,2023-06-22T16:09:23Z,3637547.112,NULL,Schock,mshtuko,s,biashara,kukataza,vichekesho,NA,sd,NA,4,NA,NA,NA,NA,NA,NA,NA,NA,NA,NA,NA,NA,NA,NA,NA,NA,NA,NA,NA
29667,Shallow Question,html.Page,3_0_4_0_4_1_0,NA,NA,form submission,3544.0880002859,3637534,3637530.508,3637547.112,3641091.2000003,3641091.5,2023-06-22T16:09:27Z,3641094.186,NULL,Schock,mshtuko,s,biashara,kukataza,vichekesho,mshtuko,NA,NA,4,NA,NA,NA,NA,NA,NA,NA,NA,NA,NA,NA,NA,NA,NA,NA,NA,NA,NA,NA
29667,"""Richtig""-Screen",canvas.Screen,3_0_4_0_4_1_1,NA,NA,timeout,4995.9209999996,3641093.5999999,3641077.576,3641094.186,3646073.469,3646075.8000002,2023-06-22T16:09:32Z,3646090.107,NULL,Schock,mshtuko,s,biashara,kukataza,vichekesho,NA,sd,1,4,NA,NA,NA,NA,NA,NA,NA,NA,NA,NA,NA,NA,NA,NA,NA,NA,NA,NA,NA
29667,"""Falsch""-Screen",canvas.Screen,3_0_4_0_4_1_2,NA,NA,skipped,NA,3646078.2000003,NA,NA,3646073.469,3646078.4000001,2023-06-22T16:09:32Z,3646090.107,NULL,Schock,mshtuko,s,biashara,kukataza,vichekesho,NA,sd,NA,4,NA,NA,NA,NA,NA,NA,NA,NA,NA,NA,NA,NA,NA,NA,NA,NA,NA,NA,NA
29667,shallow,flow.Sequence,3_0_4_0_4_1,NA,NA,completion,8526.3569999998,3637533.9000001,3637530.508,3637547.112,3646073.469,3646078.5,2023-06-22T16:09:32Z,3646090.107,NULL,Schock,mshtuko,s,biashara,kukataza,vichekesho,NA,sd,NA,4,NA,NA,NA,NA,NA,NA,NA,NA,NA,NA,NA,NA,NA,NA,NA,NA,NA,NA,NA
29667,task,flow.Sequence,3_0_4_0_4,NA,NA,completion,8526.3569999998,3637533.7000003,3637530.508,3637547.112,3646073.469,3646078.7000003,2023-06-22T16:09:32Z,3646090.107,NULL,Schock,mshtuko,s,biashara,kukataza,vichekesho,NA,sd,NA,4,NA,NA,NA,NA,NA,NA,NA,NA,NA,NA,NA,NA,NA,NA,NA,NA,NA,NA,NA
29667,Deep Question,html.Page,3_0_4_0_5_0_0,NA,NA,form submission,8140.7930000955,3646078.8000002,3646073.469,3646090.107,3654230.9000001,3654231.0999999,2023-06-22T16:09:40Z,3654233.375,NULL,Verpackung,ufungaji,d,NA,NA,NA,ufungaji,NA,NA,4,NA,NA,NA,NA,NA,NA,NA,NA,NA,NA,NA,NA,NA,NA,NA,NA,NA,NA,NA
29667,"""Richtig""-Screen",canvas.Screen,3_0_4_0_5_0_1,NA,NA,timeout,4995.932,3654233.8000002,3654216.8,3654233.375,3659212.658,3659213.0999999,2023-06-22T16:09:45Z,3659229.307,NULL,Verpackung,ufungaji,d,NA,NA,NA,NA,sd,1,4,NA,NA,NA,NA,NA,NA,NA,NA,NA,NA,NA,NA,NA,NA,NA,NA,NA,NA,NA
29667,"""Falsch""-Screen",canvas.Screen,3_0_4_0_5_0_2,NA,NA,skipped,NA,3659215.3000002,NA,NA,3659212.658,3659215.5,2023-06-22T16:09:45Z,3659229.307,NULL,Verpackung,ufungaji,d,NA,NA,NA,NA,sd,NA,4,NA,NA,NA,NA,NA,NA,NA,NA,NA,NA,NA,NA,NA,NA,NA,NA,NA,NA,NA
29667,deep,flow.Sequence,3_0_4_0_5_0,NA,NA,completion,13122.551,3646078.7000003,3646073.469,3646090.107,3659212.658,3659215.5999999,2023-06-22T16:09:45Z,3659229.307,NULL,Verpackung,ufungaji,d,NA,NA,NA,NA,sd,NA,4,NA,NA,NA,NA,NA,NA,NA,NA,NA,NA,NA,NA,NA,NA,NA,NA,NA,NA,NA
29667,shallow,flow.Sequence,3_0_4_0_5_1,NA,NA,skipped,NA,3659215.7000003,NA,NA,3659212.658,3659215.8000002,2023-06-22T16:09:45Z,3659229.307,NULL,Verpackung,ufungaji,d,NA,NA,NA,NA,sd,NA,4,NA,NA,NA,NA,NA,NA,NA,NA,NA,NA,NA,NA,NA,NA,NA,NA,NA,NA,NA
29667,task,flow.Sequence,3_0_4_0_5,NA,NA,completion,13122.551,3646078.7000003,3646073.469,3646090.107,3659212.658,3659215.9000001,2023-06-22T16:09:45Z,3659229.307,NULL,Verpackung,ufungaji,d,NA,NA,NA,NA,sd,NA,4,NA,NA,NA,NA,NA,NA,NA,NA,NA,NA,NA,NA,NA,NA,NA,NA,NA,NA,NA
29667,Deep Question,html.Page,3_0_4_0_6_0_0,NA,NA,form submission,11341.792999905,3659216,3659212.658,3659229.307,3670571.0999999,3670571.4000001,2023-06-22T16:09:56Z,3670603.287,NULL,Erneuerung,ukarabati,d,NA,NA,NA,ukarabati,NA,NA,4,NA,NA,NA,NA,NA,NA,NA,NA,NA,NA,NA,NA,NA,NA,NA,NA,NA,NA,NA
29667,"""Richtig""-Screen",canvas.Screen,3_0_4_0_6_0_1,NA,NA,timeout,4995.8620000002,3670574,3670586.679,3670603.287,3675582.765,3675583.2000003,2023-06-22T16:10:01Z,3675599.149,NULL,Erneuerung,ukarabati,d,NA,NA,NA,NA,sd,1,4,NA,NA,NA,NA,NA,NA,NA,NA,NA,NA,NA,NA,NA,NA,NA,NA,NA,NA,NA
29667,"""Falsch""-Screen",canvas.Screen,3_0_4_0_6_0_2,NA,NA,skipped,NA,3675584.8000002,NA,NA,3675582.765,3675584.9000001,2023-06-22T16:10:01Z,3675599.149,NULL,Erneuerung,ukarabati,d,NA,NA,NA,NA,sd,NA,4,NA,NA,NA,NA,NA,NA,NA,NA,NA,NA,NA,NA,NA,NA,NA,NA,NA,NA,NA
29667,deep,flow.Sequence,3_0_4_0_6_0,NA,NA,completion,16353.458,3659216,3659212.658,3659229.307,3675582.765,3675585.0999999,2023-06-22T16:10:01Z,3675599.149,NULL,Erneuerung,ukarabati,d,NA,NA,NA,NA,sd,NA,4,NA,NA,NA,NA,NA,NA,NA,NA,NA,NA,NA,NA,NA,NA,NA,NA,NA,NA,NA
29667,shallow,flow.Sequence,3_0_4_0_6_1,NA,NA,skipped,NA,3675585.0999999,NA,NA,3675582.765,3675585.2000003,2023-06-22T16:10:01Z,3675599.149,NULL,Erneuerung,ukarabati,d,NA,NA,NA,NA,sd,NA,4,NA,NA,NA,NA,NA,NA,NA,NA,NA,NA,NA,NA,NA,NA,NA,NA,NA,NA,NA
29667,task,flow.Sequence,3_0_4_0_6,NA,NA,completion,16353.458,3659216,3659212.658,3659229.307,3675582.765,3675585.3000002,2023-06-22T16:10:01Z,3675599.149,NULL,Erneuerung,ukarabati,d,NA,NA,NA,NA,sd,NA,4,NA,NA,NA,NA,NA,NA,NA,NA,NA,NA,NA,NA,NA,NA,NA,NA,NA,NA,NA
29667,Deep Question,html.Page,3_0_4_0_7_0_0,NA,NA,form submission,10554.251000095,3675585.4000001,3675582.765,3675599.149,3686153.4000001,3686153.5999999,2023-06-22T16:10:12Z,3686157.091,NULL,Wechsel,ugeuzaji,d,NA,NA,NA,ugeuzaji,NA,NA,4,NA,NA,NA,NA,NA,NA,NA,NA,NA,NA,NA,NA,NA,NA,NA,NA,NA,NA,NA
29667,"""Richtig""-Screen",canvas.Screen,3_0_4_0_7_0_1,NA,NA,timeout,4995.9160000002,3686155.4000001,3686140.429,3686157.091,3691136.368,3691136.9000001,2023-06-22T16:10:17Z,3691153.007,NULL,Wechsel,ugeuzaji,d,NA,NA,NA,NA,sd,1,4,NA,NA,NA,NA,NA,NA,NA,NA,NA,NA,NA,NA,NA,NA,NA,NA,NA,NA,NA
29667,"""Falsch""-Screen",canvas.Screen,3_0_4_0_7_0_2,NA,NA,skipped,NA,3691138.5,NA,NA,3691136.368,3691138.5,2023-06-22T16:10:17Z,3691153.007,NULL,Wechsel,ugeuzaji,d,NA,NA,NA,NA,sd,NA,4,NA,NA,NA,NA,NA,NA,NA,NA,NA,NA,NA,NA,NA,NA,NA,NA,NA,NA,NA
29667,deep,flow.Sequence,3_0_4_0_7_0,NA,NA,completion,15537.219,3675585.4000001,3675582.765,3675599.149,3691136.368,3691138.7000003,2023-06-22T16:10:17Z,3691153.007,NULL,Wechsel,ugeuzaji,d,NA,NA,NA,NA,sd,NA,4,NA,NA,NA,NA,NA,NA,NA,NA,NA,NA,NA,NA,NA,NA,NA,NA,NA,NA,NA
29667,shallow,flow.Sequence,3_0_4_0_7_1,NA,NA,skipped,NA,3691138.8000002,NA,NA,3691136.368,3691138.8000002,2023-06-22T16:10:17Z,3691153.007,NULL,Wechsel,ugeuzaji,d,NA,NA,NA,NA,sd,NA,4,NA,NA,NA,NA,NA,NA,NA,NA,NA,NA,NA,NA,NA,NA,NA,NA,NA,NA,NA
29667,task,flow.Sequence,3_0_4_0_7,NA,NA,completion,15537.219,3675585.4000001,3675582.765,3675599.149,3691136.368,3691138.9000001,2023-06-22T16:10:17Z,3691153.007,NULL,Wechsel,ugeuzaji,d,NA,NA,NA,NA,sd,NA,4,NA,NA,NA,NA,NA,NA,NA,NA,NA,NA,NA,NA,NA,NA,NA,NA,NA,NA,NA
29667,block,flow.Loop,3_0_4_0,NA,NA,completion,93356.519,3597774.5,3597763.17,3597779.849,3691136.368,3691139,2023-06-22T16:10:17Z,3691153.007,NULL,NA,NA,NA,NA,NA,NA,NA,sd,NA,4,NA,NA,NA,NA,NA,NA,NA,NA,NA,NA,NA,NA,NA,NA,NA,NA,NA,NA,NA
29667,weiter,canvas.Screen,3_0_4_1,sdf,keypress(Space),response,799.79300019052,3691139,3691136.368,3691153.007,3691952.8000002,3691953.3000002,2023-06-22T16:10:17Z,3692618.447,NULL,NA,NA,NA,NA,NA,NA,NA,sd,NA,4,NA,NA,NA,NA,NA,NA,NA,NA,NA,NA,NA,NA,NA,NA,NA,NA,NA,NA,NA
29667,check continue,flow.Sequence,3_0_4,NA,NA,completion,94172.951000191,3597774.4000001,3597763.17,3597779.849,3691952.8000002,3691953.4000001,2023-06-22T16:10:17Z,3692618.447,NULL,NA,NA,NA,NA,NA,NA,NA,sd,NA,4,NA,NA,NA,NA,NA,NA,NA,NA,NA,NA,NA,NA,NA,NA,NA,NA,NA,NA,NA
29667,check continue,flow.Sequence,3_0_5,NA,NA,skipped,NA,3691987.0999999,NA,NA,3691952.8000002,3691987.3000002,2023-06-22T16:10:17Z,3692618.447,NULL,NA,NA,NA,NA,NA,NA,NA,sdf,NA,5,NA,NA,NA,NA,NA,NA,NA,NA,NA,NA,NA,NA,NA,NA,NA,NA,NA,NA,NA
29667,check continue,flow.Sequence,3_0_6,NA,NA,skipped,NA,3692014.2000003,NA,NA,3691952.8000002,3692014.4000001,2023-06-22T16:10:18Z,3692618.447,NULL,NA,NA,NA,NA,NA,NA,NA,dfs,NA,6,NA,NA,NA,NA,NA,NA,NA,NA,NA,NA,NA,NA,NA,NA,NA,NA,NA,NA,NA
29667,check continue,flow.Sequence,3_0_7,NA,NA,skipped,NA,3692037.7000003,NA,NA,3691952.8000002,3692037.9000001,2023-06-22T16:10:18Z,3692618.447,NULL,NA,NA,NA,NA,NA,NA,NA,df,NA,7,NA,NA,NA,NA,NA,NA,NA,NA,NA,NA,NA,NA,NA,NA,NA,NA,NA,NA,NA
29667,check continue,flow.Sequence,3_0_8,NA,NA,skipped,NA,3692069.3000002,NA,NA,3691952.8000002,3692069.5999999,2023-06-22T16:10:18Z,3692618.447,NULL,NA,NA,NA,NA,NA,NA,NA,dfs,NA,8,NA,NA,NA,NA,NA,NA,NA,NA,NA,NA,NA,NA,NA,NA,NA,NA,NA,NA,NA
29667,check continue,flow.Sequence,3_0_9,NA,NA,skipped,NA,3692092.8000002,NA,NA,3691952.8000002,3692093,2023-06-22T16:10:18Z,3692618.447,NULL,NA,NA,NA,NA,NA,NA,NA,dsf,NA,9,NA,NA,NA,NA,NA,NA,NA,NA,NA,NA,NA,NA,NA,NA,NA,NA,NA,NA,NA
29667,check continue,flow.Sequence,3_0_10,NA,NA,skipped,NA,3692113,NA,NA,3691952.8000002,3692113.0999999,2023-06-22T16:10:18Z,3692618.447,NULL,NA,NA,NA,NA,NA,NA,NA,df,NA,10,NA,NA,NA,NA,NA,NA,NA,NA,NA,NA,NA,NA,NA,NA,NA,NA,NA,NA,NA
29667,check continue,flow.Sequence,3_0_11,NA,NA,skipped,NA,3692135.5,NA,NA,3691952.8000002,3692135.5999999,2023-06-22T16:10:18Z,3692618.447,NULL,NA,NA,NA,NA,NA,NA,NA,dfs,NA,11,NA,NA,NA,NA,NA,NA,NA,NA,NA,NA,NA,NA,NA,NA,NA,NA,NA,NA,NA
29667,check continue,flow.Sequence,3_0_12,NA,NA,skipped,NA,3692159.2000003,NA,NA,3691952.8000002,3692159.3000002,2023-06-22T16:10:18Z,3692618.447,NULL,NA,NA,NA,NA,NA,NA,NA,dsf,NA,12,NA,NA,NA,NA,NA,NA,NA,NA,NA,NA,NA,NA,NA,NA,NA,NA,NA,NA,NA
29667,check continue,flow.Sequence,3_0_13,NA,NA,skipped,NA,3692186.8000002,NA,NA,3691952.8000002,3692186.9000001,2023-06-22T16:10:18Z,3692618.447,NULL,NA,NA,NA,NA,NA,NA,NA,dsf,NA,13,NA,NA,NA,NA,NA,NA,NA,NA,NA,NA,NA,NA,NA,NA,NA,NA,NA,NA,NA
29667,check continue,flow.Sequence,3_0_14,NA,NA,skipped,NA,3692214.5,NA,NA,3691952.8000002,3692214.5999999,2023-06-22T16:10:18Z,3692618.447,NULL,NA,NA,NA,NA,NA,NA,NA,NA,NA,14,NA,NA,NA,NA,NA,NA,NA,NA,NA,NA,NA,NA,NA,NA,NA,NA,NA,NA,NA
29667,check continue,flow.Sequence,3_0_15,NA,NA,skipped,NA,3692235.3000002,NA,NA,3691952.8000002,3692235.5999999,2023-06-22T16:10:18Z,3692618.447,NULL,NA,NA,NA,NA,NA,NA,NA,NA,NA,15,NA,NA,NA,NA,NA,NA,NA,NA,NA,NA,NA,NA,NA,NA,NA,NA,NA,NA,NA
29667,check continue,flow.Sequence,3_0_16,NA,NA,skipped,NA,3692266.8000002,NA,NA,3691952.8000002,3692266.9000001,2023-06-22T16:10:18Z,3692618.447,NULL,NA,NA,NA,NA,NA,NA,NA,NA,NA,16,NA,NA,NA,NA,NA,NA,NA,NA,NA,NA,NA,NA,NA,NA,NA,NA,NA,NA,NA
29667,check continue,flow.Sequence,3_0_17,NA,NA,skipped,NA,3692294.4000001,NA,NA,3691952.8000002,3692294.5,2023-06-22T16:10:18Z,3692618.447,NULL,NA,NA,NA,NA,NA,NA,NA,NA,NA,17,NA,NA,NA,NA,NA,NA,NA,NA,NA,NA,NA,NA,NA,NA,NA,NA,NA,NA,NA
29667,check continue,flow.Sequence,3_0_18,NA,NA,skipped,NA,3692316.2000003,NA,NA,3691952.8000002,3692316.4000001,2023-06-22T16:10:18Z,3692618.447,NULL,NA,NA,NA,NA,NA,NA,NA,NA,NA,18,NA,NA,NA,NA,NA,NA,NA,NA,NA,NA,NA,NA,NA,NA,NA,NA,NA,NA,NA
29667,check continue,flow.Sequence,3_0_19,NA,NA,skipped,NA,3692347.7000003,NA,NA,3691952.8000002,3692347.8000002,2023-06-22T16:10:18Z,3692618.447,NULL,NA,NA,NA,NA,NA,NA,NA,NA,NA,19,NA,NA,NA,NA,NA,NA,NA,NA,NA,NA,NA,NA,NA,NA,NA,NA,NA,NA,NA
29667,check continue,flow.Sequence,3_0_20,NA,NA,skipped,NA,3692373,NA,NA,3691952.8000002,3692373.0999999,2023-06-22T16:10:18Z,3692618.447,NULL,NA,NA,NA,NA,NA,NA,NA,NA,NA,20,NA,NA,NA,NA,NA,NA,NA,NA,NA,NA,NA,NA,NA,NA,NA,NA,NA,NA,NA
29667,check continue,flow.Sequence,3_0_21,NA,NA,skipped,NA,3692394,NA,NA,3691952.8000002,3692394.0999999,2023-06-22T16:10:18Z,3692618.447,NULL,NA,NA,NA,NA,NA,NA,NA,NA,NA,21,NA,NA,NA,NA,NA,NA,NA,NA,NA,NA,NA,NA,NA,NA,NA,NA,NA,NA,NA
29667,check continue,flow.Sequence,3_0_22,NA,NA,skipped,NA,3692417.8000002,NA,NA,3691952.8000002,3692417.9000001,2023-06-22T16:10:18Z,3692618.447,NULL,NA,NA,NA,NA,NA,NA,NA,NA,NA,22,NA,NA,NA,NA,NA,NA,NA,NA,NA,NA,NA,NA,NA,NA,NA,NA,NA,NA,NA
29667,check continue,flow.Sequence,3_0_23,NA,NA,skipped,NA,3692445.3000002,NA,NA,3691952.8000002,3692445.4000001,2023-06-22T16:10:18Z,3692618.447,NULL,NA,NA,NA,NA,NA,NA,NA,NA,NA,23,NA,NA,NA,NA,NA,NA,NA,NA,NA,NA,NA,NA,NA,NA,NA,NA,NA,NA,NA
29667,check continue,flow.Sequence,3_0_24,NA,NA,skipped,NA,3692485.4000001,NA,NA,3691952.8000002,3692485.5999999,2023-06-22T16:10:18Z,3692618.447,NULL,NA,NA,NA,NA,NA,NA,NA,NA,NA,24,NA,NA,NA,NA,NA,NA,NA,NA,NA,NA,NA,NA,NA,NA,NA,NA,NA,NA,NA
29667,check continue,flow.Sequence,3_0_25,NA,NA,skipped,NA,3692514.2000003,NA,NA,3691952.8000002,3692514.4000001,2023-06-22T16:10:18Z,3692618.447,NULL,NA,NA,NA,NA,NA,NA,NA,NA,NA,25,NA,NA,NA,NA,NA,NA,NA,NA,NA,NA,NA,NA,NA,NA,NA,NA,NA,NA,NA
29667,check continue,flow.Sequence,3_0_26,NA,NA,skipped,NA,3692541.4000001,NA,NA,3691952.8000002,3692541.5,2023-06-22T16:10:18Z,3692618.447,NULL,NA,NA,NA,NA,NA,NA,NA,NA,NA,26,NA,NA,NA,NA,NA,NA,NA,NA,NA,NA,NA,NA,NA,NA,NA,NA,NA,NA,NA
29667,check continue,flow.Sequence,3_0_27,NA,NA,skipped,NA,3692563.5999999,NA,NA,3691952.8000002,3692563.8000002,2023-06-22T16:10:18Z,3692618.447,NULL,NA,NA,NA,NA,NA,NA,NA,NA,NA,27,NA,NA,NA,NA,NA,NA,NA,NA,NA,NA,NA,NA,NA,NA,NA,NA,NA,NA,NA
29667,check continue,flow.Sequence,3_0_28,NA,NA,skipped,NA,3692585.5999999,NA,NA,3691952.8000002,3692585.8000002,2023-06-22T16:10:18Z,3692618.447,NULL,NA,NA,NA,NA,NA,NA,NA,NA,NA,28,NA,NA,NA,NA,NA,NA,NA,NA,NA,NA,NA,NA,NA,NA,NA,NA,NA,NA,NA
29667,check continue,flow.Sequence,3_0_29,NA,NA,skipped,NA,3692606.9000001,NA,NA,3691952.8000002,3692607.0999999,2023-06-22T16:10:18Z,3692618.447,NULL,NA,NA,NA,NA,NA,NA,NA,NA,NA,29,NA,NA,NA,NA,NA,NA,NA,NA,NA,NA,NA,NA,NA,NA,NA,NA,NA,NA,NA
29667,until continue,flow.Loop,3_0,NA,NA,completion,423651.72500019,3268265.4000001,3268284.014,3268301.075,3691952.8000002,3692607.2000003,2023-06-22T16:10:18Z,3692618.447,NULL,NA,NA,NA,NA,NA,NA,NA,NA,NA,NA,NA,NA,NA,NA,NA,NA,NA,NA,NA,NA,NA,NA,NA,NA,NA,NA,NA,NA,NA
29667,block 1,flow.Sequence,3,NA,NA,completion,423651.72500019,3268265.4000001,3268284.014,3268301.075,3691952.8000002,3692607.3000002,2023-06-22T16:10:18Z,3692618.447,NULL,NA,NA,NA,NA,NA,NA,NA,NA,NA,NA,NA,NA,NA,NA,NA,NA,NA,NA,NA,NA,NA,NA,NA,NA,NA,NA,NA,NA,NA
29667,1.Part Over,canvas.Screen,4,NA,keypress(Space),response,1263.3530001906,3692607.4000001,3692601.75,3692618.447,3693881.8000002,3693882.3000002,2023-06-22T16:10:19Z,3693950.671,NULL,NA,NA,NA,NA,NA,NA,NA,NA,NA,NA,NA,NA,NA,NA,NA,NA,NA,NA,NA,NA,NA,NA,NA,NA,NA,NA,NA,NA,NA
29667,deep,flow.Sequence,5_0_0_0_0_0,NA,NA,skipped,NA,3693945.5,NA,NA,3693881.8000002,3693945.5,2023-06-22T16:10:19Z,3693950.671,NULL,Wohlstand,mafanikio,s,chimbuko,kumbuko,mapwaji,NA,sdf,NA,0,NA,NA,NA,NA,NA,NA,NA,NA,NA,NA,NA,NA,NA,NA,NA,NA,NA,NA,NA
29667,Shallow Question,html.Page,5_0_0_0_0_1_0,NA,NA,form submission,3441.2290000953,3693945.7000003,3693934.022,3693950.671,3697391.9000001,3697392.0999999,2023-06-22T16:10:23Z,3697397.846,NULL,Wohlstand,mafanikio,s,chimbuko,kumbuko,mapwaji,mafanikio,NA,NA,0,NA,NA,NA,NA,NA,NA,NA,NA,NA,NA,NA,NA,NA,NA,NA,NA,NA,NA,NA
29667,"""Richtig""-Screen",canvas.Screen,5_0_0_0_0_1_1,NA,NA,timeout,4996.537,3697393.9000001,3697381.224,3697397.846,3702377.119,3702377.5999999,2023-06-22T16:10:28Z,3702394.383,NULL,Wohlstand,mafanikio,s,chimbuko,kumbuko,mapwaji,NA,sdf,1,0,NA,NA,NA,NA,NA,NA,NA,NA,NA,NA,NA,NA,NA,NA,NA,NA,NA,NA,NA
29667,"""Falsch""-Screen",canvas.Screen,5_0_0_0_0_1_2,NA,NA,skipped,NA,3702379.7000003,NA,NA,3702377.119,3702379.9000001,2023-06-22T16:10:28Z,3702394.383,NULL,Wohlstand,mafanikio,s,chimbuko,kumbuko,mapwaji,NA,sdf,NA,0,NA,NA,NA,NA,NA,NA,NA,NA,NA,NA,NA,NA,NA,NA,NA,NA,NA,NA,NA
29667,shallow,flow.Sequence,5_0_0_0_0_1,NA,NA,completion,8426.4479999999,3693945.7000003,3693934.022,3693950.671,3702377.119,3702380,2023-06-22T16:10:28Z,3702394.383,NULL,Wohlstand,mafanikio,s,chimbuko,kumbuko,mapwaji,NA,sdf,NA,0,NA,NA,NA,NA,NA,NA,NA,NA,NA,NA,NA,NA,NA,NA,NA,NA,NA,NA,NA
29667,task,flow.Sequence,5_0_0_0_0,NA,NA,completion,8426.4479999999,3693945.5,3693934.022,3693950.671,3702377.119,3702380.0999999,2023-06-22T16:10:28Z,3702394.383,NULL,Wohlstand,mafanikio,s,chimbuko,kumbuko,mapwaji,NA,sdf,NA,0,NA,NA,NA,NA,NA,NA,NA,NA,NA,NA,NA,NA,NA,NA,NA,NA,NA,NA,NA
29667,Deep Question,html.Page,5_0_0_0_1_0_0,NA,NA,form submission,2841.8170002862,3702380.2000003,3702377.119,3702394.383,3705236.2000003,3705236.3000002,2023-06-22T16:10:31Z,3705241.378,NULL,Vergnügen,kichekesho,d,NA,NA,NA,f,NA,NA,0,NA,NA,NA,NA,NA,NA,NA,NA,NA,NA,NA,NA,NA,NA,NA,NA,NA,NA,NA
29667,"""Richtig""-Screen",canvas.Screen,5_0_0_0_1_0_1,NA,NA,skipped,NA,3705238.0999999,NA,NA,3705236.2000003,3705238.2000003,2023-06-22T16:10:31Z,3705241.378,NULL,Vergnügen,kichekesho,d,NA,NA,NA,NA,sdf,NA,0,NA,NA,NA,NA,NA,NA,NA,NA,NA,NA,NA,NA,NA,NA,NA,NA,NA,NA,NA
29667,"""Falsch""-Screen",canvas.Screen,5_0_0_0_1_0_2,NA,NA,timeout,4995.8909999998,3705238.7000003,3705224.757,3705241.378,3710220.658,3710221.3000002,2023-06-22T16:10:36Z,3710237.269,NULL,Vergnügen,kichekesho,d,NA,NA,NA,NA,sdf,0,0,NA,NA,NA,NA,NA,NA,NA,NA,NA,NA,NA,NA,NA,NA,NA,NA,NA,NA,NA
29667,deep,flow.Sequence,5_0_0_0_1_0,NA,NA,completion,7826.2749999999,3702380.2000003,3702377.119,3702394.383,3710220.658,3710221.5,2023-06-22T16:10:36Z,3710237.269,NULL,Vergnügen,kichekesho,d,NA,NA,NA,NA,sdf,NA,0,NA,NA,NA,NA,NA,NA,NA,NA,NA,NA,NA,NA,NA,NA,NA,NA,NA,NA,NA
29667,shallow,flow.Sequence,5_0_0_0_1_1,NA,NA,skipped,NA,3710221.5,NA,NA,3710220.658,3710221.7000003,2023-06-22T16:10:36Z,3710237.269,NULL,Vergnügen,kichekesho,d,NA,NA,NA,NA,sdf,NA,0,NA,NA,NA,NA,NA,NA,NA,NA,NA,NA,NA,NA,NA,NA,NA,NA,NA,NA,NA
29667,task,flow.Sequence,5_0_0_0_1,NA,NA,completion,7826.2749999999,3702380.0999999,3702377.119,3702394.383,3710220.658,3710221.7000003,2023-06-22T16:10:36Z,3710237.269,NULL,Vergnügen,kichekesho,d,NA,NA,NA,NA,sdf,NA,0,NA,NA,NA,NA,NA,NA,NA,NA,NA,NA,NA,NA,NA,NA,NA,NA,NA,NA,NA
29667,deep,flow.Sequence,5_0_0_0_2_0,NA,NA,skipped,NA,3710221.8000002,NA,NA,3710220.658,3710221.9000001,2023-06-22T16:10:36Z,3710237.269,NULL,Ergänzung,kijalizo,s,ulaghai,mustarehe,matangazo,NA,sdf,NA,0,NA,NA,NA,NA,NA,NA,NA,NA,NA,NA,NA,NA,NA,NA,NA,NA,NA,NA,NA
29667,Shallow Question,html.Page,5_0_0_0_2_1_0,NA,NA,form submission,3287.6310000955,3710221.9000001,3710220.658,3710237.269,3713524.9000001,3713525.0999999,2023-06-22T16:10:39Z,3713534.552,NULL,Ergänzung,kijalizo,s,ulaghai,mustarehe,matangazo,matangazo,NA,NA,0,NA,NA,NA,NA,NA,NA,NA,NA,NA,NA,NA,NA,NA,NA,NA,NA,NA,NA,NA
29667,"""Richtig""-Screen",canvas.Screen,5_0_0_0_2_1_1,NA,NA,skipped,NA,3713527.5999999,NA,NA,3713524.9000001,3713527.7000003,2023-06-22T16:10:39Z,3713534.552,NULL,Ergänzung,kijalizo,s,ulaghai,mustarehe,matangazo,NA,sdf,NA,0,NA,NA,NA,NA,NA,NA,NA,NA,NA,NA,NA,NA,NA,NA,NA,NA,NA,NA,NA
29667,"""Falsch""-Screen",canvas.Screen,5_0_0_0_2_1_2,NA,NA,timeout,4995.8899999997,3713528.5999999,3713517.976,3713534.552,3718513.801,3718514.3000002,2023-06-22T16:10:44Z,3718530.442,NULL,Ergänzung,kijalizo,s,ulaghai,mustarehe,matangazo,NA,sdf,0,0,NA,NA,NA,NA,NA,NA,NA,NA,NA,NA,NA,NA,NA,NA,NA,NA,NA,NA,NA
29667,shallow,flow.Sequence,5_0_0_0_2_1,NA,NA,completion,8276.5320000001,3710221.9000001,3710220.658,3710237.269,3718513.801,3718514.5,2023-06-22T16:10:44Z,3718530.442,NULL,Ergänzung,kijalizo,s,ulaghai,mustarehe,matangazo,NA,sdf,NA,0,NA,NA,NA,NA,NA,NA,NA,NA,NA,NA,NA,NA,NA,NA,NA,NA,NA,NA,NA
29667,task,flow.Sequence,5_0_0_0_2,NA,NA,completion,8276.5320000001,3710221.7000003,3710220.658,3710237.269,3718513.801,3718514.5999999,2023-06-22T16:10:44Z,3718530.442,NULL,Ergänzung,kijalizo,s,ulaghai,mustarehe,matangazo,NA,sdf,NA,0,NA,NA,NA,NA,NA,NA,NA,NA,NA,NA,NA,NA,NA,NA,NA,NA,NA,NA,NA
29667,deep,flow.Sequence,5_0_0_0_3_0,NA,NA,skipped,NA,3718514.5999999,NA,NA,3718513.801,3718514.5999999,2023-06-22T16:10:44Z,3718530.442,NULL,Stimmung,kinyongo,s,kilekile,kisambo,madhehebu,NA,sdf,NA,0,NA,NA,NA,NA,NA,NA,NA,NA,NA,NA,NA,NA,NA,NA,NA,NA,NA,NA,NA
29667,Shallow Question,html.Page,5_0_0_0_3_1_0,NA,NA,form submission,2636.0580000002,3718514.7000003,3718513.801,3718530.442,3721166.5,3721166.8000002,2023-06-22T16:10:47Z,3721178.272,NULL,Stimmung,kinyongo,s,kilekile,kisambo,madhehebu,madhehebu,NA,NA,0,NA,NA,NA,NA,NA,NA,NA,NA,NA,NA,NA,NA,NA,NA,NA,NA,NA,NA,NA
29667,"""Richtig""-Screen",canvas.Screen,5_0_0_0_3_1_1,NA,NA,skipped,NA,3721169.8000002,NA,NA,3721166.5,3721170.0999999,2023-06-22T16:10:47Z,3721178.272,NULL,Stimmung,kinyongo,s,kilekile,kisambo,madhehebu,NA,sdf,NA,0,NA,NA,NA,NA,NA,NA,NA,NA,NA,NA,NA,NA,NA,NA,NA,NA,NA,NA,NA
29667,"""Falsch""-Screen",canvas.Screen,5_0_0_0_3_1_2,NA,NA,timeout,4995.9110000003,3721171.2000003,3721161.616,3721178.272,3726157.534,3726158,2023-06-22T16:10:52Z,3726174.183,NULL,Stimmung,kinyongo,s,kilekile,kisambo,madhehebu,NA,sdf,0,0,NA,NA,NA,NA,NA,NA,NA,NA,NA,NA,NA,NA,NA,NA,NA,NA,NA,NA,NA
29667,shallow,flow.Sequence,5_0_0_0_3_1,NA,NA,completion,7627.0920000002,3718514.7000003,3718513.801,3718530.442,3726157.534,3726158.3000002,2023-06-22T16:10:52Z,3726174.183,NULL,Stimmung,kinyongo,s,kilekile,kisambo,madhehebu,NA,sdf,NA,0,NA,NA,NA,NA,NA,NA,NA,NA,NA,NA,NA,NA,NA,NA,NA,NA,NA,NA,NA
29667,task,flow.Sequence,5_0_0_0_3,NA,NA,completion,7627.0920000002,3718514.5999999,3718513.801,3718530.442,3726157.534,3726158.4000001,2023-06-22T16:10:52Z,3726174.183,NULL,Stimmung,kinyongo,s,kilekile,kisambo,madhehebu,NA,sdf,NA,0,NA,NA,NA,NA,NA,NA,NA,NA,NA,NA,NA,NA,NA,NA,NA,NA,NA,NA,NA
29667,deep,flow.Sequence,5_0_0_0_4_0,NA,NA,skipped,NA,3726158.5,NA,NA,3726157.534,3726158.5999999,2023-06-22T16:10:52Z,3726174.183,NULL,Betrüger,mdanganyifu,s,mwanamuziki,wastani,mahakama,NA,sdf,NA,0,NA,NA,NA,NA,NA,NA,NA,NA,NA,NA,NA,NA,NA,NA,NA,NA,NA,NA,NA
29667,Shallow Question,html.Page,5_0_0_0_4_1_0,NA,NA,form submission,3092.3169999998,3726158.5999999,3726157.534,3726174.183,3729266.5,3729266.7000003,2023-06-22T16:10:55Z,3729271.599,NULL,Betrüger,mdanganyifu,s,mwanamuziki,wastani,mahakama,mdanganyifu,NA,NA,0,NA,NA,NA,NA,NA,NA,NA,NA,NA,NA,NA,NA,NA,NA,NA,NA,NA,NA,NA
29667,"""Richtig""-Screen",canvas.Screen,5_0_0_0_4_1_1,NA,NA,timeout,4995.9360000002,3729268.9000001,3729254.973,3729271.599,3734250.886,3734251.4000001,2023-06-22T16:11:00Z,3734267.535,NULL,Betrüger,mdanganyifu,s,mwanamuziki,wastani,mahakama,NA,sdf,1,0,NA,NA,NA,NA,NA,NA,NA,NA,NA,NA,NA,NA,NA,NA,NA,NA,NA,NA,NA
29667,"""Falsch""-Screen",canvas.Screen,5_0_0_0_4_1_2,NA,NA,skipped,NA,3734253.7000003,NA,NA,3734250.886,3734253.9000001,2023-06-22T16:11:00Z,3734267.535,NULL,Betrüger,mdanganyifu,s,mwanamuziki,wastani,mahakama,NA,sdf,NA,0,NA,NA,NA,NA,NA,NA,NA,NA,NA,NA,NA,NA,NA,NA,NA,NA,NA,NA,NA
29667,shallow,flow.Sequence,5_0_0_0_4_1,NA,NA,completion,8076.7029999997,3726158.5999999,3726157.534,3726174.183,3734250.886,3734254.0999999,2023-06-22T16:11:00Z,3734267.535,NULL,Betrüger,mdanganyifu,s,mwanamuziki,wastani,mahakama,NA,sdf,NA,0,NA,NA,NA,NA,NA,NA,NA,NA,NA,NA,NA,NA,NA,NA,NA,NA,NA,NA,NA
29667,task,flow.Sequence,5_0_0_0_4,NA,NA,completion,8076.7029999997,3726158.5,3726157.534,3726174.183,3734250.886,3734254.2000003,2023-06-22T16:11:00Z,3734267.535,NULL,Betrüger,mdanganyifu,s,mwanamuziki,wastani,mahakama,NA,sdf,NA,0,NA,NA,NA,NA,NA,NA,NA,NA,NA,NA,NA,NA,NA,NA,NA,NA,NA,NA,NA
29667,Deep Question,html.Page,5_0_0_0_5_0_0,NA,NA,form submission,4198.9649999999,3734254.3000002,3734250.886,3734267.535,3738466.5,3738466.7000003,2023-06-22T16:11:04Z,3738480.723,NULL,Orientierung,urekebisho,d,NA,NA,NA,f,NA,NA,0,NA,NA,NA,NA,NA,NA,NA,NA,NA,NA,NA,NA,NA,NA,NA,NA,NA,NA,NA
29667,"""Richtig""-Screen",canvas.Screen,5_0_0_0_5_0_1,NA,NA,skipped,NA,3738469.5,NA,NA,3738466.5,3738469.7000003,2023-06-22T16:11:04Z,3738480.723,NULL,Orientierung,urekebisho,d,NA,NA,NA,NA,sdf,NA,0,NA,NA,NA,NA,NA,NA,NA,NA,NA,NA,NA,NA,NA,NA,NA,NA,NA,NA,NA
