observation,sender,sender_type,sender_id,response,response_action,ended_on,duration,time_run,time_render,time_show,time_end,time_commit,timestamp,time_switch,distractors,german,swahili,enc,distractor1,distractor2,distractor3,response_2,x,correct,x_2,url_vp,url_sess,meta_labjs_version,meta_location,meta_user_agent,meta_platform,meta_language,meta_locale,meta_time_zone,meta_timezone_offset,meta_screen_width,meta_screen_height,meta_scroll_width,meta_scroll_height,meta_window_inner_width,meta_window_inner_height,meta_device_pixel_ratio,meta_labjs_build_flavor,meta_labjs_build_commit
44f7a,Introduction general,canvas.Screen,0,weiter,keypress(q),response,66103.04,555,555.32,571.96,66675,66684,2023-08-19T08:27:39Z,66684.84,NULL,NA,NA,NA,NA,NA,NA,NA,NA,NA,NA,179,1,20.2.4,https://neurocog.fernuni.ch/studies/vweber/sliechti/encoding_immediate/index.html?vp=179&sess=1,Mozilla/5.0 (Windows NT 10.0; Win64; x64; rv:109.0) Gecko/20100101 Firefox/116.0,Win32,de,de-CH,Europe/Zurich,-120,1280,720,1280,587,1280,587,1.5,production,f5b4a49f956347addd546a832a3327688c2c0fef
44f7a,Introduction practice,canvas.Screen,1_0,NA,keypress(Space),response,10741.16,66684,66684.26,66684.84,77426,77435,2023-08-19T08:27:50Z,77445.44,NULL,NA,NA,NA,NA,NA,NA,NA,NA,NA,NA,NA,NA,NA,NA,NA,NA,NA,NA,NA,NA,NA,NA,NA,NA,NA,NA,NA,NA,NA
44f7a,deep,flow.Sequence,1_1_0_0,NA,NA,skipped,NA,77438,NA,NA,77426,77439,2023-08-19T08:27:50Z,77445.44,"c(""distractor1"", ""distractor2"", ""distractor3"")",Kritik,lawama,s,dereva,nafasi,mawazo,NA,NA,NA,NA,NA,NA,NA,NA,NA,NA,NA,NA,NA,NA,NA,NA,NA,NA,NA,NA,NA,NA,NA
44f7a,Shallow Question,html.Page,1_1_0_1_0,NA,NA,form submission,6429.56,77439,77439.56,77445.44,83875,83875,2023-08-19T08:27:57Z,83877.92,"c(""distractor1"", ""distractor2"", ""distractor3"")",Kritik,lawama,s,dereva,nafasi,mawazo,mawazo,NA,NA,NA,NA,NA,NA,NA,NA,NA,NA,NA,NA,NA,NA,NA,NA,NA,NA,NA,NA,NA,NA
44f7a,"""Richtig""-Screen",canvas.Screen,1_1_0_1_1,NA,NA,skipped,NA,83879,NA,NA,83875,83879,2023-08-19T08:27:57Z,83877.92,"c(""distractor1"", ""distractor2"", ""distractor3"")",Kritik,lawama,s,dereva,nafasi,mawazo,NA,NA,NA,NA,NA,NA,NA,NA,NA,NA,NA,NA,NA,NA,NA,NA,NA,NA,NA,NA,NA,NA,NA
44f7a,"""Falsch""-Screen",canvas.Screen,1_1_0_1_2,NA,NA,timeout,4999.36,83881,83859.96,83877.92,88860.7,88862,2023-08-19T08:28:01Z,88877.28,"c(""distractor1"", ""distractor2"", ""distractor3"")",Kritik,lawama,s,dereva,nafasi,mawazo,NA,NA,0,NA,NA,NA,NA,NA,NA,NA,NA,NA,NA,NA,NA,NA,NA,NA,NA,NA,NA,NA,NA
44f7a,shallow,flow.Sequence,1_1_0_1,NA,NA,completion,11415.26,77439,77439.56,77445.44,88860.7,88863,2023-08-19T08:28:01Z,88877.28,"c(""distractor1"", ""distractor2"", ""distractor3"")",Kritik,lawama,s,dereva,nafasi,mawazo,NA,NA,NA,NA,NA,NA,NA,NA,NA,NA,NA,NA,NA,NA,NA,NA,NA,NA,NA,NA,NA,NA,NA
44f7a,task,flow.Sequence,1_1_0,NA,NA,completion,11415.26,77438,77439.56,77445.44,88860.7,88864,2023-08-19T08:28:01Z,88877.28,"c(""distractor1"", ""distractor2"", ""distractor3"")",Kritik,lawama,s,dereva,nafasi,mawazo,NA,NA,NA,NA,NA,NA,NA,NA,NA,NA,NA,NA,NA,NA,NA,NA,NA,NA,NA,NA,NA,NA,NA
44f7a,Deep Question,html.Page,1_1_1_0_0,NA,NA,form submission,7870.72,88865,88860.7,88877.28,96748,96749,2023-08-19T08:28:09Z,96759.66,"c(""distractor1"", ""distractor2"", ""distractor3"")",Gesundheit,salama,d,NA,NA,NA,djsalkjdlka,NA,NA,NA,NA,NA,NA,NA,NA,NA,NA,NA,NA,NA,NA,NA,NA,NA,NA,NA,NA,NA,NA
44f7a,"""Richtig""-Screen",canvas.Screen,1_1_1_0_1,NA,NA,skipped,NA,96756,NA,NA,96748,96756,2023-08-19T08:28:09Z,96759.66,"c(""distractor1"", ""distractor2"", ""distractor3"")",Gesundheit,salama,d,NA,NA,NA,NA,NA,NA,NA,NA,NA,NA,NA,NA,NA,NA,NA,NA,NA,NA,NA,NA,NA,NA,NA,NA,NA,NA
44f7a,"""Falsch""-Screen",canvas.Screen,1_1_1_0_2,NA,NA,timeout,4999.3,96761,96740.9,96759.66,101742.38,101744,2023-08-19T08:28:14Z,101758.96,"c(""distractor1"", ""distractor2"", ""distractor3"")",Gesundheit,salama,d,NA,NA,NA,NA,NA,0,NA,NA,NA,NA,NA,NA,NA,NA,NA,NA,NA,NA,NA,NA,NA,NA,NA,NA,NA,NA
44f7a,deep,flow.Sequence,1_1_1_0,NA,NA,completion,12865.1,88865,88860.7,88877.28,101742.38,101746,2023-08-19T08:28:14Z,101758.96,"c(""distractor1"", ""distractor2"", ""distractor3"")",Gesundheit,salama,d,NA,NA,NA,NA,NA,NA,NA,NA,NA,NA,NA,NA,NA,NA,NA,NA,NA,NA,NA,NA,NA,NA,NA,NA,NA,NA
44f7a,shallow,flow.Sequence,1_1_1_1,NA,NA,skipped,NA,101746,NA,NA,101742.38,101747,2023-08-19T08:28:14Z,101758.96,"c(""distractor1"", ""distractor2"", ""distractor3"")",Gesundheit,salama,d,NA,NA,NA,NA,NA,NA,NA,NA,NA,NA,NA,NA,NA,NA,NA,NA,NA,NA,NA,NA,NA,NA,NA,NA,NA,NA
44f7a,task,flow.Sequence,1_1_1,NA,NA,completion,12865.1,88864,88860.7,88877.28,101742.38,101748,2023-08-19T08:28:14Z,101758.96,"c(""distractor1"", ""distractor2"", ""distractor3"")",Gesundheit,salama,d,NA,NA,NA,NA,NA,NA,NA,NA,NA,NA,NA,NA,NA,NA,NA,NA,NA,NA,NA,NA,NA,NA,NA,NA,NA,NA
44f7a,deep,flow.Sequence,1_1_2_0,NA,NA,skipped,NA,101750,NA,NA,101742.38,101750,2023-08-19T08:28:14Z,101758.96,"c(""distractor1"", ""distractor2"", ""distractor3"")",Rückhalt,msaada,s,muhula,auwali,kiwimbe,NA,NA,NA,NA,NA,NA,NA,NA,NA,NA,NA,NA,NA,NA,NA,NA,NA,NA,NA,NA,NA,NA,NA
44f7a,Shallow Question,html.Page,1_1_2_1_0,NA,NA,form submission,6981.04,101750,101742.38,101758.96,108740,108740,2023-08-19T08:28:21Z,108741.48,"c(""distractor1"", ""distractor2"", ""distractor3"")",Rückhalt,msaada,s,muhula,auwali,kiwimbe,msaada,NA,NA,NA,NA,NA,NA,NA,NA,NA,NA,NA,NA,NA,NA,NA,NA,NA,NA,NA,NA,NA,NA
44f7a,"""Richtig""-Screen",canvas.Screen,1_1_2_1_1,NA,NA,timeout,4999.28,108744,108735.6,108741.48,113724.16,113726,2023-08-19T08:28:26Z,113740.76,"c(""distractor1"", ""distractor2"", ""distractor3"")",Rückhalt,msaada,s,muhula,auwali,kiwimbe,NA,NA,1,NA,NA,NA,NA,NA,NA,NA,NA,NA,NA,NA,NA,NA,NA,NA,NA,NA,NA,NA,NA
44f7a,"""Falsch""-Screen",canvas.Screen,1_1_2_1_2,NA,NA,skipped,NA,113735,NA,NA,113724.16,113736,2023-08-19T08:28:26Z,113740.76,"c(""distractor1"", ""distractor2"", ""distractor3"")",Rückhalt,msaada,s,muhula,auwali,kiwimbe,NA,NA,NA,NA,NA,NA,NA,NA,NA,NA,NA,NA,NA,NA,NA,NA,NA,NA,NA,NA,NA,NA,NA
44f7a,shallow,flow.Sequence,1_1_2_1,NA,NA,completion,11965.2,101750,101742.38,101758.96,113724.16,113736,2023-08-19T08:28:26Z,113740.76,"c(""distractor1"", ""distractor2"", ""distractor3"")",Rückhalt,msaada,s,muhula,auwali,kiwimbe,NA,NA,NA,NA,NA,NA,NA,NA,NA,NA,NA,NA,NA,NA,NA,NA,NA,NA,NA,NA,NA,NA,NA
44f7a,task,flow.Sequence,1_1_2,NA,NA,completion,11965.2,101749,101742.38,101758.96,113724.16,113737,2023-08-19T08:28:26Z,113740.76,"c(""distractor1"", ""distractor2"", ""distractor3"")",Rückhalt,msaada,s,muhula,auwali,kiwimbe,NA,NA,NA,NA,NA,NA,NA,NA,NA,NA,NA,NA,NA,NA,NA,NA,NA,NA,NA,NA,NA,NA,NA
44f7a,deep,flow.Sequence,1_1_3_0,NA,NA,skipped,NA,113737,NA,NA,113724.16,113737,2023-08-19T08:28:26Z,113740.76,"c(""distractor1"", ""distractor2"", ""distractor3"")",Gegenwart,hadhara,s,katiba,jokofu,mikopo,NA,NA,NA,NA,NA,NA,NA,NA,NA,NA,NA,NA,NA,NA,NA,NA,NA,NA,NA,NA,NA,NA,NA
44f7a,Shallow Question,html.Page,1_1_3_1_0,NA,NA,form submission,7233.24,113738,113724.16,113740.76,120974,120974,2023-08-19T08:28:34Z,120973.2,"c(""distractor1"", ""distractor2"", ""distractor3"")",Gegenwart,hadhara,s,katiba,jokofu,mikopo,jokofu,NA,NA,NA,NA,NA,NA,NA,NA,NA,NA,NA,NA,NA,NA,NA,NA,NA,NA,NA,NA,NA,NA
44f7a,"""Richtig""-Screen",canvas.Screen,1_1_3_1_1,NA,NA,skipped,NA,120978,NA,NA,120974,120979,2023-08-19T08:28:34Z,120973.2,"c(""distractor1"", ""distractor2"", ""distractor3"")",Gegenwart,hadhara,s,katiba,jokofu,mikopo,NA,NA,NA,NA,NA,NA,NA,NA,NA,NA,NA,NA,NA,NA,NA,NA,NA,NA,NA,NA,NA,NA,NA
44f7a,"""Falsch""-Screen",canvas.Screen,1_1_3_1_2,NA,NA,timeout,4999.3,120983,120969.06,120973.2,125955.98,125958,2023-08-19T08:28:39Z,125972.5,"c(""distractor1"", ""distractor2"", ""distractor3"")",Gegenwart,hadhara,s,katiba,jokofu,mikopo,NA,NA,0,NA,NA,NA,NA,NA,NA,NA,NA,NA,NA,NA,NA,NA,NA,NA,NA,NA,NA,NA,NA
44f7a,shallow,flow.Sequence,1_1_3_1,NA,NA,completion,12215.22,113738,113724.16,113740.76,125955.98,125959,2023-08-19T08:28:39Z,125972.5,"c(""distractor1"", ""distractor2"", ""distractor3"")",Gegenwart,hadhara,s,katiba,jokofu,mikopo,NA,NA,NA,NA,NA,NA,NA,NA,NA,NA,NA,NA,NA,NA,NA,NA,NA,NA,NA,NA,NA,NA,NA
44f7a,task,flow.Sequence,1_1_3,NA,NA,completion,12215.22,113737,113724.16,113740.76,125955.98,125959,2023-08-19T08:28:39Z,125972.5,"c(""distractor1"", ""distractor2"", ""distractor3"")",Gegenwart,hadhara,s,katiba,jokofu,mikopo,NA,NA,NA,NA,NA,NA,NA,NA,NA,NA,NA,NA,NA,NA,NA,NA,NA,NA,NA,NA,NA,NA,NA
44f7a,Deep Question,html.Page,1_1_4_0_0,NA,NA,form submission,4716.5,125960,125955.98,125972.5,130689,130690,2023-08-19T08:28:43Z,130688.64,"c(""distractor1"", ""distractor2"", ""distractor3"")",Schatten,kivuli,d,NA,NA,NA,kfslkfj,NA,NA,NA,NA,NA,NA,NA,NA,NA,NA,NA,NA,NA,NA,NA,NA,NA,NA,NA,NA,NA,NA
44f7a,"""Richtig""-Screen",canvas.Screen,1_1_4_0_1,NA,NA,skipped,NA,130696,NA,NA,130689,130696,2023-08-19T08:28:43Z,130688.64,"c(""distractor1"", ""distractor2"", ""distractor3"")",Schatten,kivuli,d,NA,NA,NA,NA,NA,NA,NA,NA,NA,NA,NA,NA,NA,NA,NA,NA,NA,NA,NA,NA,NA,NA,NA,NA,NA,NA
44f7a,"""Falsch""-Screen",canvas.Screen,1_1_4_0_2,NA,NA,timeout,4999.3,130700,130684.16,130688.64,135671.26,135672,2023-08-19T08:28:48Z,135687.94,"c(""distractor1"", ""distractor2"", ""distractor3"")",Schatten,kivuli,d,NA,NA,NA,NA,NA,0,NA,NA,NA,NA,NA,NA,NA,NA,NA,NA,NA,NA,NA,NA,NA,NA,NA,NA,NA,NA
44f7a,deep,flow.Sequence,1_1_4_0,NA,NA,completion,9698.76,125960,125955.98,125972.5,135671.26,135673,2023-08-19T08:28:48Z,135687.94,"c(""distractor1"", ""distractor2"", ""distractor3"")",Schatten,kivuli,d,NA,NA,NA,NA,NA,NA,NA,NA,NA,NA,NA,NA,NA,NA,NA,NA,NA,NA,NA,NA,NA,NA,NA,NA,NA,NA
44f7a,shallow,flow.Sequence,1_1_4_1,NA,NA,skipped,NA,135673,NA,NA,135671.26,135674,2023-08-19T08:28:48Z,135687.94,"c(""distractor1"", ""distractor2"", ""distractor3"")",Schatten,kivuli,d,NA,NA,NA,NA,NA,NA,NA,NA,NA,NA,NA,NA,NA,NA,NA,NA,NA,NA,NA,NA,NA,NA,NA,NA,NA,NA
44f7a,task,flow.Sequence,1_1_4,NA,NA,completion,9698.76,125960,125955.98,125972.5,135671.26,135674,2023-08-19T08:28:48Z,135687.94,"c(""distractor1"", ""distractor2"", ""distractor3"")",Schatten,kivuli,d,NA,NA,NA,NA,NA,NA,NA,NA,NA,NA,NA,NA,NA,NA,NA,NA,NA,NA,NA,NA,NA,NA,NA,NA,NA,NA
44f7a,Deep Question,html.Page,1_1_5_0_0,NA,NA,form submission,4305.06,135675,135671.26,135687.94,139993,139993,2023-08-19T08:28:53Z,140004.02,"c(""distractor1"", ""distractor2"", ""distractor3"")",Qualität,mtindo,d,NA,NA,NA,jsdlksjdlasj,NA,NA,NA,NA,NA,NA,NA,NA,NA,NA,NA,NA,NA,NA,NA,NA,NA,NA,NA,NA,NA,NA
44f7a,"""Richtig""-Screen",canvas.Screen,1_1_5_0_1,NA,NA,skipped,NA,140000,NA,NA,139993,140000,2023-08-19T08:28:53Z,140004.02,"c(""distractor1"", ""distractor2"", ""distractor3"")",Qualität,mtindo,d,NA,NA,NA,NA,NA,NA,NA,NA,NA,NA,NA,NA,NA,NA,NA,NA,NA,NA,NA,NA,NA,NA,NA,NA,NA,NA
44f7a,"""Falsch""-Screen",canvas.Screen,1_1_5_0_2,NA,NA,timeout,4999.48,140006,139985.72,140004.02,144986.84,144989,2023-08-19T08:28:58Z,145003.5,"c(""distractor1"", ""distractor2"", ""distractor3"")",Qualität,mtindo,d,NA,NA,NA,NA,NA,0,NA,NA,NA,NA,NA,NA,NA,NA,NA,NA,NA,NA,NA,NA,NA,NA,NA,NA,NA,NA
44f7a,deep,flow.Sequence,1_1_5_0,NA,NA,completion,9298.9,135674,135671.26,135687.94,144986.84,144990,2023-08-19T08:28:58Z,145003.5,"c(""distractor1"", ""distractor2"", ""distractor3"")",Qualität,mtindo,d,NA,NA,NA,NA,NA,NA,NA,NA,NA,NA,NA,NA,NA,NA,NA,NA,NA,NA,NA,NA,NA,NA,NA,NA,NA,NA
44f7a,shallow,flow.Sequence,1_1_5_1,NA,NA,skipped,NA,144990,NA,NA,144986.84,144990,2023-08-19T08:28:58Z,145003.5,"c(""distractor1"", ""distractor2"", ""distractor3"")",Qualität,mtindo,d,NA,NA,NA,NA,NA,NA,NA,NA,NA,NA,NA,NA,NA,NA,NA,NA,NA,NA,NA,NA,NA,NA,NA,NA,NA,NA
44f7a,task,flow.Sequence,1_1_5,NA,NA,completion,9298.9,135674,135671.26,135687.94,144986.84,144991,2023-08-19T08:28:58Z,145003.5,"c(""distractor1"", ""distractor2"", ""distractor3"")",Qualität,mtindo,d,NA,NA,NA,NA,NA,NA,NA,NA,NA,NA,NA,NA,NA,NA,NA,NA,NA,NA,NA,NA,NA,NA,NA,NA,NA,NA
44f7a,block,flow.Loop,1_1,NA,NA,completion,67541.4,77437,77439.56,77445.44,144986.84,144991,2023-08-19T08:28:58Z,145003.5,"c(""distractor1"", ""distractor2"", ""distractor3"")",NA,NA,NA,NA,NA,NA,NA,NA,NA,NA,NA,NA,NA,NA,NA,NA,NA,NA,NA,NA,NA,NA,NA,NA,NA,NA,NA,NA,NA
44f7a,Practice,flow.Sequence,1,NA,NA,completion,78302,66684,66684.26,66684.84,144986.84,144992,2023-08-19T08:28:58Z,145003.5,NULL,NA,NA,NA,NA,NA,NA,NA,NA,NA,NA,NA,NA,NA,NA,NA,NA,NA,NA,NA,NA,NA,NA,NA,NA,NA,NA,NA,NA,NA
44f7a,Experiment start,canvas.Screen,2,weiter,keypress(q),response,46812.5,144992,144986.84,145003.5,191816,191824,2023-08-19T08:29:44Z,191924.2,NULL,NA,NA,NA,NA,NA,NA,NA,NA,NA,NA,NA,NA,NA,NA,NA,NA,NA,NA,NA,NA,NA,NA,NA,NA,NA,NA,NA,NA,NA
44f7a,deep,flow.Sequence,3_0_0_0_0_0,NA,NA,skipped,NA,191923,NA,NA,191816,191924,2023-08-19T08:29:45Z,191924.2,NULL,System,maongozi,s,chokochoko,nuksani,mitaani,NA,sdf,NA,0,NA,NA,NA,NA,NA,NA,NA,NA,NA,NA,NA,NA,NA,NA,NA,NA,NA,NA,NA
44f7a,Shallow Question,html.Page,3_0_0_0_0_1_0,NA,NA,form submission,7715.8,191924,191924.04,191924.2,199640,199640,2023-08-19T08:29:52Z,199646.3,NULL,System,maongozi,s,chokochoko,nuksani,mitaani,maongozi,NA,NA,0,NA,NA,NA,NA,NA,NA,NA,NA,NA,NA,NA,NA,NA,NA,NA,NA,NA,NA,NA
44f7a,"""Richtig""-Screen",canvas.Screen,3_0_0_0_0_1_1,NA,NA,timeout,4999.4,199646,199634.92,199646.3,204629.12,204635,2023-08-19T08:29:57Z,204645.7,NULL,System,maongozi,s,chokochoko,nuksani,mitaani,NA,sdf,1,0,NA,NA,NA,NA,NA,NA,NA,NA,NA,NA,NA,NA,NA,NA,NA,NA,NA,NA,NA
44f7a,"""Falsch""-Screen",canvas.Screen,3_0_0_0_0_1_2,NA,NA,skipped,NA,204647,NA,NA,204629.12,204647,2023-08-19T08:29:57Z,204645.7,NULL,System,maongozi,s,chokochoko,nuksani,mitaani,NA,sdf,NA,0,NA,NA,NA,NA,NA,NA,NA,NA,NA,NA,NA,NA,NA,NA,NA,NA,NA,NA,NA
44f7a,shallow,flow.Sequence,3_0_0_0_0_1,NA,NA,completion,12704.92,191924,191924.04,191924.2,204629.12,204648,2023-08-19T08:29:57Z,204645.7,NULL,System,maongozi,s,chokochoko,nuksani,mitaani,NA,sdf,NA,0,NA,NA,NA,NA,NA,NA,NA,NA,NA,NA,NA,NA,NA,NA,NA,NA,NA,NA,NA
44f7a,task,flow.Sequence,3_0_0_0_0,NA,NA,completion,12704.92,191923,191924.04,191924.2,204629.12,204648,2023-08-19T08:29:57Z,204645.7,NULL,System,maongozi,s,chokochoko,nuksani,mitaani,NA,sdf,NA,0,NA,NA,NA,NA,NA,NA,NA,NA,NA,NA,NA,NA,NA,NA,NA,NA,NA,NA,NA
44f7a,Deep Question,html.Page,3_0_0_0_1_0_0,NA,NA,form submission,5136.3,204648,204629.12,204645.7,209782,209783,2023-08-19T08:30:02Z,209794.96,NULL,Entwicklung,maendeleo,d,NA,NA,NA,jdlaskjdla,NA,NA,0,NA,NA,NA,NA,NA,NA,NA,NA,NA,NA,NA,NA,NA,NA,NA,NA,NA,NA,NA
44f7a,"""Richtig""-Screen",canvas.Screen,3_0_0_0_1_0_1,NA,NA,skipped,NA,209790,NA,NA,209782,209790,2023-08-19T08:30:02Z,209794.96,NULL,Entwicklung,maendeleo,d,NA,NA,NA,NA,sdf,NA,0,NA,NA,NA,NA,NA,NA,NA,NA,NA,NA,NA,NA,NA,NA,NA,NA,NA,NA,NA
44f7a,"""Falsch""-Screen",canvas.Screen,3_0_0_0_1_0_2,NA,NA,timeout,4999.38,209795,209776.06,209794.96,214777.7,214779,2023-08-19T08:30:07Z,214794.34,NULL,Entwicklung,maendeleo,d,NA,NA,NA,NA,sdf,0,0,NA,NA,NA,NA,NA,NA,NA,NA,NA,NA,NA,NA,NA,NA,NA,NA,NA,NA,NA
44f7a,deep,flow.Sequence,3_0_0_0_1_0,NA,NA,completion,10132,204648,204629.12,204645.7,214777.7,214780,2023-08-19T08:30:07Z,214794.34,NULL,Entwicklung,maendeleo,d,NA,NA,NA,NA,sdf,NA,0,NA,NA,NA,NA,NA,NA,NA,NA,NA,NA,NA,NA,NA,NA,NA,NA,NA,NA,NA
44f7a,shallow,flow.Sequence,3_0_0_0_1_1,NA,NA,skipped,NA,214781,NA,NA,214777.7,214781,2023-08-19T08:30:07Z,214794.34,NULL,Entwicklung,maendeleo,d,NA,NA,NA,NA,sdf,NA,0,NA,NA,NA,NA,NA,NA,NA,NA,NA,NA,NA,NA,NA,NA,NA,NA,NA,NA,NA
44f7a,task,flow.Sequence,3_0_0_0_1,NA,NA,completion,10132,204648,204629.12,204645.7,214777.7,214782,2023-08-19T08:30:07Z,214794.34,NULL,Entwicklung,maendeleo,d,NA,NA,NA,NA,sdf,NA,0,NA,NA,NA,NA,NA,NA,NA,NA,NA,NA,NA,NA,NA,NA,NA,NA,NA,NA,NA
44f7a,Deep Question,html.Page,3_0_0_0_2_0_0,NA,NA,form submission,4987.66,214783,214777.7,214794.34,219782,219782,2023-08-19T08:30:12Z,219793.6,NULL,Körper,kiwiliwili,d,NA,NA,NA,jkjl,NA,NA,0,NA,NA,NA,NA,NA,NA,NA,NA,NA,NA,NA,NA,NA,NA,NA,NA,NA,NA,NA
44f7a,"""Richtig""-Screen",canvas.Screen,3_0_0_0_2_0_1,NA,NA,skipped,NA,219783,NA,NA,219782,219783,2023-08-19T08:30:12Z,219793.6,NULL,Körper,kiwiliwili,d,NA,NA,NA,NA,sdf,NA,0,NA,NA,NA,NA,NA,NA,NA,NA,NA,NA,NA,NA,NA,NA,NA,NA,NA,NA,NA
44f7a,"""Falsch""-Screen",canvas.Screen,3_0_0_0_2_0_2,NA,NA,timeout,4999.58,219785,219779.7,219793.6,224776.56,224778,2023-08-19T08:30:17Z,224793.18,NULL,Körper,kiwiliwili,d,NA,NA,NA,NA,sdf,0,0,NA,NA,NA,NA,NA,NA,NA,NA,NA,NA,NA,NA,NA,NA,NA,NA,NA,NA,NA
44f7a,deep,flow.Sequence,3_0_0_0_2_0,NA,NA,completion,9982.22,214783,214777.7,214794.34,224776.56,224779,2023-08-19T08:30:17Z,224793.18,NULL,Körper,kiwiliwili,d,NA,NA,NA,NA,sdf,NA,0,NA,NA,NA,NA,NA,NA,NA,NA,NA,NA,NA,NA,NA,NA,NA,NA,NA,NA,NA
44f7a,shallow,flow.Sequence,3_0_0_0_2_1,NA,NA,skipped,NA,224780,NA,NA,224776.56,224780,2023-08-19T08:30:17Z,224793.18,NULL,Körper,kiwiliwili,d,NA,NA,NA,NA,sdf,NA,0,NA,NA,NA,NA,NA,NA,NA,NA,NA,NA,NA,NA,NA,NA,NA,NA,NA,NA,NA
44f7a,task,flow.Sequence,3_0_0_0_2,NA,NA,completion,9982.22,214783,214777.7,214794.34,224776.56,224781,2023-08-19T08:30:17Z,224793.18,NULL,Körper,kiwiliwili,d,NA,NA,NA,NA,sdf,NA,0,NA,NA,NA,NA,NA,NA,NA,NA,NA,NA,NA,NA,NA,NA,NA,NA,NA,NA,NA
44f7a,Deep Question,html.Page,3_0_0_0_3_0_0,NA,NA,form submission,4201.82,224781,224776.56,224793.18,228995,228996,2023-08-19T08:30:22Z,229008.56,NULL,Vorwurf,mashtaka,d,NA,NA,NA,kjhkh,NA,NA,0,NA,NA,NA,NA,NA,NA,NA,NA,NA,NA,NA,NA,NA,NA,NA,NA,NA,NA,NA
44f7a,"""Richtig""-Screen",canvas.Screen,3_0_0_0_3_0_1,NA,NA,skipped,NA,229003,NA,NA,228995,229003,2023-08-19T08:30:22Z,229008.56,NULL,Vorwurf,mashtaka,d,NA,NA,NA,NA,sdf,NA,0,NA,NA,NA,NA,NA,NA,NA,NA,NA,NA,NA,NA,NA,NA,NA,NA,NA,NA,NA
44f7a,"""Falsch""-Screen",canvas.Screen,3_0_0_0_3_0_2,NA,NA,timeout,5000.04,229007,228989.88,229008.56,233991.94,233994,2023-08-19T08:30:27Z,234008.6,NULL,Vorwurf,mashtaka,d,NA,NA,NA,NA,sdf,0,0,NA,NA,NA,NA,NA,NA,NA,NA,NA,NA,NA,NA,NA,NA,NA,NA,NA,NA,NA
44f7a,deep,flow.Sequence,3_0_0_0_3_0,NA,NA,completion,9198.76,224781,224776.56,224793.18,233991.94,233994,2023-08-19T08:30:27Z,234008.6,NULL,Vorwurf,mashtaka,d,NA,NA,NA,NA,sdf,NA,0,NA,NA,NA,NA,NA,NA,NA,NA,NA,NA,NA,NA,NA,NA,NA,NA,NA,NA,NA
44f7a,shallow,flow.Sequence,3_0_0_0_3_1,NA,NA,skipped,NA,233995,NA,NA,233991.94,233995,2023-08-19T08:30:27Z,234008.6,NULL,Vorwurf,mashtaka,d,NA,NA,NA,NA,sdf,NA,0,NA,NA,NA,NA,NA,NA,NA,NA,NA,NA,NA,NA,NA,NA,NA,NA,NA,NA,NA
44f7a,task,flow.Sequence,3_0_0_0_3,NA,NA,completion,9198.76,224781,224776.56,224793.18,233991.94,233995,2023-08-19T08:30:27Z,234008.6,NULL,Vorwurf,mashtaka,d,NA,NA,NA,NA,sdf,NA,0,NA,NA,NA,NA,NA,NA,NA,NA,NA,NA,NA,NA,NA,NA,NA,NA,NA,NA,NA
44f7a,deep,flow.Sequence,3_0_0_0_4_0,NA,NA,skipped,NA,233995,NA,NA,233991.94,233995,2023-08-19T08:30:27Z,234008.6,NULL,Niveau,kiwango,s,usimamizi,mwamali,mshairi,NA,sdf,NA,0,NA,NA,NA,NA,NA,NA,NA,NA,NA,NA,NA,NA,NA,NA,NA,NA,NA,NA,NA
44f7a,Shallow Question,html.Page,3_0_0_0_4_1_0,NA,NA,form submission,5848.4,233996,233991.94,234008.6,239857,239858,2023-08-19T08:30:32Z,239857.72,NULL,Niveau,kiwango,s,usimamizi,mwamali,mshairi,mshairi,NA,NA,0,NA,NA,NA,NA,NA,NA,NA,NA,NA,NA,NA,NA,NA,NA,NA,NA,NA,NA,NA
44f7a,"""Richtig""-Screen",canvas.Screen,3_0_0_0_4_1_1,NA,NA,skipped,NA,239864,NA,NA,239857,239864,2023-08-19T08:30:32Z,239857.72,NULL,Niveau,kiwango,s,usimamizi,mwamali,mshairi,NA,sdf,NA,0,NA,NA,NA,NA,NA,NA,NA,NA,NA,NA,NA,NA,NA,NA,NA,NA,NA,NA,NA
44f7a,"""Falsch""-Screen",canvas.Screen,3_0_0_0_4_1_2,NA,NA,timeout,4999.42,239868,239852.44,239857.72,244840.44,244841,2023-08-19T08:30:37Z,244857.14,NULL,Niveau,kiwango,s,usimamizi,mwamali,mshairi,NA,sdf,0,0,NA,NA,NA,NA,NA,NA,NA,NA,NA,NA,NA,NA,NA,NA,NA,NA,NA,NA,NA
44f7a,shallow,flow.Sequence,3_0_0_0_4_1,NA,NA,completion,10831.84,233995,233991.94,234008.6,244840.44,244841,2023-08-19T08:30:37Z,244857.14,NULL,Niveau,kiwango,s,usimamizi,mwamali,mshairi,NA,sdf,NA,0,NA,NA,NA,NA,NA,NA,NA,NA,NA,NA,NA,NA,NA,NA,NA,NA,NA,NA,NA
44f7a,task,flow.Sequence,3_0_0_0_4,NA,NA,completion,10831.84,233995,233991.94,234008.6,244840.44,244841,2023-08-19T08:30:37Z,244857.14,NULL,Niveau,kiwango,s,usimamizi,mwamali,mshairi,NA,sdf,NA,0,NA,NA,NA,NA,NA,NA,NA,NA,NA,NA,NA,NA,NA,NA,NA,NA,NA,NA,NA
44f7a,deep,flow.Sequence,3_0_0_0_5_0,NA,NA,skipped,NA,244841,NA,NA,244840.44,244841,2023-08-19T08:30:37Z,244857.14,NULL,Lawine,banguko,s,maambukizi,usuluhishi,chekechea,NA,sdf,NA,0,NA,NA,NA,NA,NA,NA,NA,NA,NA,NA,NA,NA,NA,NA,NA,NA,NA,NA,NA
44f7a,Shallow Question,html.Page,3_0_0_0_5_1_0,NA,NA,form submission,4439.86,244842,244840.44,244857.14,249297,249297,2023-08-19T08:30:42Z,249306.56,NULL,Lawine,banguko,s,maambukizi,usuluhishi,chekechea,banguko,NA,NA,0,NA,NA,NA,NA,NA,NA,NA,NA,NA,NA,NA,NA,NA,NA,NA,NA,NA,NA,NA
44f7a,"""Richtig""-Screen",canvas.Screen,3_0_0_0_5_1_1,NA,NA,timeout,4999.32,249303,249292.76,249306.56,254289.36,254291,2023-08-19T08:30:47Z,254305.88,NULL,Lawine,banguko,s,maambukizi,usuluhishi,chekechea,NA,sdf,1,0,NA,NA,NA,NA,NA,NA,NA,NA,NA,NA,NA,NA,NA,NA,NA,NA,NA,NA,NA
44f7a,"""Falsch""-Screen",canvas.Screen,3_0_0_0_5_1_2,NA,NA,skipped,NA,254298,NA,NA,254289.36,254298,2023-08-19T08:30:47Z,254305.88,NULL,Lawine,banguko,s,maambukizi,usuluhishi,chekechea,NA,sdf,NA,0,NA,NA,NA,NA,NA,NA,NA,NA,NA,NA,NA,NA,NA,NA,NA,NA,NA,NA,NA
44f7a,shallow,flow.Sequence,3_0_0_0_5_1,NA,NA,completion,9432.22,244842,244840.44,244857.14,254289.36,254298,2023-08-19T08:30:47Z,254305.88,NULL,Lawine,banguko,s,maambukizi,usuluhishi,chekechea,NA,sdf,NA,0,NA,NA,NA,NA,NA,NA,NA,NA,NA,NA,NA,NA,NA,NA,NA,NA,NA,NA,NA
44f7a,task,flow.Sequence,3_0_0_0_5,NA,NA,completion,9432.22,244841,244840.44,244857.14,254289.36,254299,2023-08-19T08:30:47Z,254305.88,NULL,Lawine,banguko,s,maambukizi,usuluhishi,chekechea,NA,sdf,NA,0,NA,NA,NA,NA,NA,NA,NA,NA,NA,NA,NA,NA,NA,NA,NA,NA,NA,NA,NA
44f7a,Deep Question,html.Page,3_0_0_0_6_0_0,NA,NA,form submission,5073.12,254299,254289.36,254305.88,259379,259380,2023-08-19T08:30:52Z,259388.66,NULL,Übersicht,kilindo,d,NA,NA,NA,bbnbn,NA,NA,0,NA,NA,NA,NA,NA,NA,NA,NA,NA,NA,NA,NA,NA,NA,NA,NA,NA,NA,NA
44f7a,"""Richtig""-Screen",canvas.Screen,3_0_0_0_6_0_1,NA,NA,skipped,NA,259380,NA,NA,259379,259381,2023-08-19T08:30:52Z,259388.66,NULL,Übersicht,kilindo,d,NA,NA,NA,NA,sdf,NA,0,NA,NA,NA,NA,NA,NA,NA,NA,NA,NA,NA,NA,NA,NA,NA,NA,NA,NA,NA
44f7a,"""Falsch""-Screen",canvas.Screen,3_0_0_0_6_0_2,NA,NA,timeout,4999.32,259383,259377.46,259388.66,264371.36,264374,2023-08-19T08:30:57Z,264387.98,NULL,Übersicht,kilindo,d,NA,NA,NA,NA,sdf,0,0,NA,NA,NA,NA,NA,NA,NA,NA,NA,NA,NA,NA,NA,NA,NA,NA,NA,NA,NA
44f7a,deep,flow.Sequence,3_0_0_0_6_0,NA,NA,completion,10065.48,254299,254289.36,254305.88,264371.36,264376,2023-08-19T08:30:57Z,264387.98,NULL,Übersicht,kilindo,d,NA,NA,NA,NA,sdf,NA,0,NA,NA,NA,NA,NA,NA,NA,NA,NA,NA,NA,NA,NA,NA,NA,NA,NA,NA,NA
44f7a,shallow,flow.Sequence,3_0_0_0_6_1,NA,NA,skipped,NA,264377,NA,NA,264371.36,264378,2023-08-19T08:30:57Z,264387.98,NULL,Übersicht,kilindo,d,NA,NA,NA,NA,sdf,NA,0,NA,NA,NA,NA,NA,NA,NA,NA,NA,NA,NA,NA,NA,NA,NA,NA,NA,NA,NA
44f7a,task,flow.Sequence,3_0_0_0_6,NA,NA,completion,10065.48,254299,254289.36,254305.88,264371.36,264379,2023-08-19T08:30:57Z,264387.98,NULL,Übersicht,kilindo,d,NA,NA,NA,NA,sdf,NA,0,NA,NA,NA,NA,NA,NA,NA,NA,NA,NA,NA,NA,NA,NA,NA,NA,NA,NA,NA
44f7a,deep,flow.Sequence,3_0_0_0_7_0,NA,NA,skipped,NA,264380,NA,NA,264371.36,264380,2023-08-19T08:30:57Z,264387.98,NULL,Papier,karatasi,s,uchambuzi,usalama,kukataliwa,NA,sdf,NA,0,NA,NA,NA,NA,NA,NA,NA,NA,NA,NA,NA,NA,NA,NA,NA,NA,NA,NA,NA
44f7a,Shallow Question,html.Page,3_0_0_0_7_1_0,NA,NA,form submission,5657.02,264380,264371.36,264387.98,270045,270046,2023-08-19T08:31:03Z,270053.86,NULL,Papier,karatasi,s,uchambuzi,usalama,kukataliwa,usalama,NA,NA,0,NA,NA,NA,NA,NA,NA,NA,NA,NA,NA,NA,NA,NA,NA,NA,NA,NA,NA,NA
44f7a,"""Richtig""-Screen",canvas.Screen,3_0_0_0_7_1_1,NA,NA,skipped,NA,270052,NA,NA,270045,270052,2023-08-19T08:31:03Z,270053.86,NULL,Papier,karatasi,s,uchambuzi,usalama,kukataliwa,NA,sdf,NA,0,NA,NA,NA,NA,NA,NA,NA,NA,NA,NA,NA,NA,NA,NA,NA,NA,NA,NA,NA
44f7a,"""Falsch""-Screen",canvas.Screen,3_0_0_0_7_1_2,NA,NA,timeout,4999.4,270057,270040.3,270053.86,275036.74,275038,2023-08-19T08:31:08Z,275053.26,NULL,Papier,karatasi,s,uchambuzi,usalama,kukataliwa,NA,sdf,0,0,NA,NA,NA,NA,NA,NA,NA,NA,NA,NA,NA,NA,NA,NA,NA,NA,NA,NA,NA
44f7a,shallow,flow.Sequence,3_0_0_0_7_1,NA,NA,completion,10648.76,264380,264371.36,264387.98,275036.74,275040,2023-08-19T08:31:08Z,275053.26,NULL,Papier,karatasi,s,uchambuzi,usalama,kukataliwa,NA,sdf,NA,0,NA,NA,NA,NA,NA,NA,NA,NA,NA,NA,NA,NA,NA,NA,NA,NA,NA,NA,NA
44f7a,task,flow.Sequence,3_0_0_0_7,NA,NA,completion,10648.76,264380,264371.36,264387.98,275036.74,275041,2023-08-19T08:31:08Z,275053.26,NULL,Papier,karatasi,s,uchambuzi,usalama,kukataliwa,NA,sdf,NA,0,NA,NA,NA,NA,NA,NA,NA,NA,NA,NA,NA,NA,NA,NA,NA,NA,NA,NA,NA
44f7a,block,flow.Loop,3_0_0_0,NA,NA,completion,83112.54,191923,191924.04,191924.2,275036.74,275043,2023-08-19T08:31:08Z,275053.26,NULL,NA,NA,NA,NA,NA,NA,NA,sdf,NA,0,NA,NA,NA,NA,NA,NA,NA,NA,NA,NA,NA,NA,NA,NA,NA,NA,NA,NA,NA
44f7a,weiter,canvas.Screen,3_0_0_1,sdf,keypress(Space),response,1949.74,275043,275036.74,275053.26,277003,277016,2023-08-19T08:31:10Z,277076.46,NULL,NA,NA,NA,NA,NA,NA,NA,sdf,NA,0,NA,NA,NA,NA,NA,NA,NA,NA,NA,NA,NA,NA,NA,NA,NA,NA,NA,NA,NA
44f7a,check continue,flow.Sequence,3_0_0,NA,NA,completion,85078.8,191923,191924.04,191924.2,277003,277017,2023-08-19T08:31:10Z,277076.46,NULL,NA,NA,NA,NA,NA,NA,NA,sdf,NA,0,NA,NA,NA,NA,NA,NA,NA,NA,NA,NA,NA,NA,NA,NA,NA,NA,NA,NA,NA
44f7a,deep,flow.Sequence,3_0_1_0_0_0,NA,NA,skipped,NA,277076,NA,NA,277003,277076,2023-08-19T08:31:10Z,277076.46,NULL,Niveau,kiwango,s,usimamizi,mwamali,mshairi,NA,sdfdsf,NA,1,NA,NA,NA,NA,NA,NA,NA,NA,NA,NA,NA,NA,NA,NA,NA,NA,NA,NA,NA
44f7a,Shallow Question,html.Page,3_0_1_0_0_1_0,NA,NA,form submission,9567.54,277076,277076.12,277076.46,286644,286645,2023-08-19T08:31:19Z,286651.68,NULL,Niveau,kiwango,s,usimamizi,mwamali,mshairi,kiwango,NA,NA,1,NA,NA,NA,NA,NA,NA,NA,NA,NA,NA,NA,NA,NA,NA,NA,NA,NA,NA,NA
44f7a,"""Richtig""-Screen",canvas.Screen,3_0_1_0_0_1_1,NA,NA,timeout,4999.48,286650,286637.96,286651.68,291634.52,291636,2023-08-19T08:31:24Z,291651.16,NULL,Niveau,kiwango,s,usimamizi,mwamali,mshairi,NA,sdfdsf,1,1,NA,NA,NA,NA,NA,NA,NA,NA,NA,NA,NA,NA,NA,NA,NA,NA,NA,NA,NA
44f7a,"""Falsch""-Screen",canvas.Screen,3_0_1_0_0_1_2,NA,NA,skipped,NA,291644,NA,NA,291634.52,291644,2023-08-19T08:31:24Z,291651.16,NULL,Niveau,kiwango,s,usimamizi,mwamali,mshairi,NA,sdfdsf,NA,1,NA,NA,NA,NA,NA,NA,NA,NA,NA,NA,NA,NA,NA,NA,NA,NA,NA,NA,NA
44f7a,shallow,flow.Sequence,3_0_1_0_0_1,NA,NA,completion,14558.06,277076,277076.12,277076.46,291634.52,291644,2023-08-19T08:31:24Z,291651.16,NULL,Niveau,kiwango,s,usimamizi,mwamali,mshairi,NA,sdfdsf,NA,1,NA,NA,NA,NA,NA,NA,NA,NA,NA,NA,NA,NA,NA,NA,NA,NA,NA,NA,NA
44f7a,task,flow.Sequence,3_0_1_0_0,NA,NA,completion,14558.06,277076,277076.12,277076.46,291634.52,291645,2023-08-19T08:31:24Z,291651.16,NULL,Niveau,kiwango,s,usimamizi,mwamali,mshairi,NA,sdfdsf,NA,1,NA,NA,NA,NA,NA,NA,NA,NA,NA,NA,NA,NA,NA,NA,NA,NA,NA,NA,NA
44f7a,deep,flow.Sequence,3_0_1_0_1_0,NA,NA,skipped,NA,291645,NA,NA,291634.52,291645,2023-08-19T08:31:24Z,291651.16,NULL,Lawine,banguko,s,maambukizi,usuluhishi,chekechea,NA,sdfdsf,NA,1,NA,NA,NA,NA,NA,NA,NA,NA,NA,NA,NA,NA,NA,NA,NA,NA,NA,NA,NA
44f7a,Shallow Question,html.Page,3_0_1_0_1_1_0,NA,NA,form submission,16388.84,291646,291634.52,291651.16,308040,308040,2023-08-19T08:31:41Z,308048.92,NULL,Lawine,banguko,s,maambukizi,usuluhishi,chekechea,usuluhishi,NA,NA,1,NA,NA,NA,NA,NA,NA,NA,NA,NA,NA,NA,NA,NA,NA,NA,NA,NA,NA,NA
44f7a,"""Richtig""-Screen",canvas.Screen,3_0_1_0_1_1_1,NA,NA,skipped,NA,308043,NA,NA,308040,308043,2023-08-19T08:31:41Z,308048.92,NULL,Lawine,banguko,s,maambukizi,usuluhishi,chekechea,NA,sdfdsf,NA,1,NA,NA,NA,NA,NA,NA,NA,NA,NA,NA,NA,NA,NA,NA,NA,NA,NA,NA,NA
44f7a,"""Falsch""-Screen",canvas.Screen,3_0_1_0_1_1_2,NA,NA,timeout,4999.36,308046,308037.24,308048.92,313031.84,313033,2023-08-19T08:31:46Z,313048.28,NULL,Lawine,banguko,s,maambukizi,usuluhishi,chekechea,NA,sdfdsf,0,1,NA,NA,NA,NA,NA,NA,NA,NA,NA,NA,NA,NA,NA,NA,NA,NA,NA,NA,NA
44f7a,shallow,flow.Sequence,3_0_1_0_1_1,NA,NA,completion,21380.68,291645,291634.52,291651.16,313031.84,313034,2023-08-19T08:31:46Z,313048.28,NULL,Lawine,banguko,s,maambukizi,usuluhishi,chekechea,NA,sdfdsf,NA,1,NA,NA,NA,NA,NA,NA,NA,NA,NA,NA,NA,NA,NA,NA,NA,NA,NA,NA,NA
44f7a,task,flow.Sequence,3_0_1_0_1,NA,NA,completion,21380.68,291645,291634.52,291651.16,313031.84,313034,2023-08-19T08:31:46Z,313048.28,NULL,Lawine,banguko,s,maambukizi,usuluhishi,chekechea,NA,sdfdsf,NA,1,NA,NA,NA,NA,NA,NA,NA,NA,NA,NA,NA,NA,NA,NA,NA,NA,NA,NA,NA
44f7a,Deep Question,html.Page,3_0_1_0_2_0_0,NA,NA,form submission,7982.72,313035,313031.84,313048.28,321031,321032,2023-08-19T08:31:54Z,321047.28,NULL,Übersicht,kilindo,d,NA,NA,NA,malangawi,NA,NA,1,NA,NA,NA,NA,NA,NA,NA,NA,NA,NA,NA,NA,NA,NA,NA,NA,NA,NA,NA
44f7a,"""Richtig""-Screen",canvas.Screen,3_0_1_0_2_0_1,NA,NA,skipped,NA,321038,NA,NA,321031,321038,2023-08-19T08:31:54Z,321047.28,NULL,Übersicht,kilindo,d,NA,NA,NA,NA,sdfdsf,NA,1,NA,NA,NA,NA,NA,NA,NA,NA,NA,NA,NA,NA,NA,NA,NA,NA,NA,NA,NA
44f7a,"""Falsch""-Screen",canvas.Screen,3_0_1_0_2_0_2,NA,NA,timeout,4999.3799999999,321045,321022.94,321047.28,326030.06,326031,2023-08-19T08:31:59Z,326046.66,NULL,Übersicht,kilindo,d,NA,NA,NA,NA,sdfdsf,0,1,NA,NA,NA,NA,NA,NA,NA,NA,NA,NA,NA,NA,NA,NA,NA,NA,NA,NA,NA
44f7a,deep,flow.Sequence,3_0_1_0_2_0,NA,NA,completion,12981.78,313035,313031.84,313048.28,326030.06,326031,2023-08-19T08:31:59Z,326046.66,NULL,Übersicht,kilindo,d,NA,NA,NA,NA,sdfdsf,NA,1,NA,NA,NA,NA,NA,NA,NA,NA,NA,NA,NA,NA,NA,NA,NA,NA,NA,NA,NA
44f7a,shallow,flow.Sequence,3_0_1_0_2_1,NA,NA,skipped,NA,326032,NA,NA,326030.06,326032,2023-08-19T08:31:59Z,326046.66,NULL,Übersicht,kilindo,d,NA,NA,NA,NA,sdfdsf,NA,1,NA,NA,NA,NA,NA,NA,NA,NA,NA,NA,NA,NA,NA,NA,NA,NA,NA,NA,NA
44f7a,task,flow.Sequence,3_0_1_0_2,NA,NA,completion,12981.78,313035,313031.84,313048.28,326030.06,326032,2023-08-19T08:31:59Z,326046.66,NULL,Übersicht,kilindo,d,NA,NA,NA,NA,sdfdsf,NA,1,NA,NA,NA,NA,NA,NA,NA,NA,NA,NA,NA,NA,NA,NA,NA,NA,NA,NA,NA
44f7a,deep,flow.Sequence,3_0_1_0_3_0,NA,NA,skipped,NA,326033,NA,NA,326030.06,326033,2023-08-19T08:31:59Z,326046.66,NULL,Papier,karatasi,s,uchambuzi,usalama,kukataliwa,NA,sdfdsf,NA,1,NA,NA,NA,NA,NA,NA,NA,NA,NA,NA,NA,NA,NA,NA,NA,NA,NA,NA,NA
44f7a,Shallow Question,html.Page,3_0_1_0_3_1_0,NA,NA,form submission,4143.34,326033,326030.06,326046.66,330190,330191,2023-08-19T08:32:03Z,330196.22,NULL,Papier,karatasi,s,uchambuzi,usalama,kukataliwa,karatasi,NA,NA,1,NA,NA,NA,NA,NA,NA,NA,NA,NA,NA,NA,NA,NA,NA,NA,NA,NA,NA,NA
44f7a,"""Richtig""-Screen",canvas.Screen,3_0_1_0_3_1_1,NA,NA,timeout,4999.28,330197,330184.2,330196.22,335178.96,335180,2023-08-19T08:32:08Z,335195.5,NULL,Papier,karatasi,s,uchambuzi,usalama,kukataliwa,NA,sdfdsf,1,1,NA,NA,NA,NA,NA,NA,NA,NA,NA,NA,NA,NA,NA,NA,NA,NA,NA,NA,NA
44f7a,"""Falsch""-Screen",canvas.Screen,3_0_1_0_3_1_2,NA,NA,skipped,NA,335187,NA,NA,335178.96,335187,2023-08-19T08:32:08Z,335195.5,NULL,Papier,karatasi,s,uchambuzi,usalama,kukataliwa,NA,sdfdsf,NA,1,NA,NA,NA,NA,NA,NA,NA,NA,NA,NA,NA,NA,NA,NA,NA,NA,NA,NA,NA
44f7a,shallow,flow.Sequence,3_0_1_0_3_1,NA,NA,completion,9132.3,326033,326030.06,326046.66,335178.96,335188,2023-08-19T08:32:08Z,335195.5,NULL,Papier,karatasi,s,uchambuzi,usalama,kukataliwa,NA,sdfdsf,NA,1,NA,NA,NA,NA,NA,NA,NA,NA,NA,NA,NA,NA,NA,NA,NA,NA,NA,NA,NA
44f7a,task,flow.Sequence,3_0_1_0_3,NA,NA,completion,9132.3,326032,326030.06,326046.66,335178.96,335188,2023-08-19T08:32:08Z,335195.5,NULL,Papier,karatasi,s,uchambuzi,usalama,kukataliwa,NA,sdfdsf,NA,1,NA,NA,NA,NA,NA,NA,NA,NA,NA,NA,NA,NA,NA,NA,NA,NA,NA,NA,NA
44f7a,Deep Question,html.Page,3_0_1_0_4_0_0,NA,NA,form submission,5106.5,335188,335178.96,335195.5,340302,340302,2023-08-19T08:32:13Z,340311.52,NULL,Vorwurf,mashtaka,d,NA,NA,NA,jsaldkj,NA,NA,1,NA,NA,NA,NA,NA,NA,NA,NA,NA,NA,NA,NA,NA,NA,NA,NA,NA,NA,NA
44f7a,"""Richtig""-Screen",canvas.Screen,3_0_1_0_4_0_1,NA,NA,skipped,NA,340307,NA,NA,340302,340307,2023-08-19T08:32:13Z,340311.52,NULL,Vorwurf,mashtaka,d,NA,NA,NA,NA,sdfdsf,NA,1,NA,NA,NA,NA,NA,NA,NA,NA,NA,NA,NA,NA,NA,NA,NA,NA,NA,NA,NA
44f7a,"""Falsch""-Screen",canvas.Screen,3_0_1_0_4_0_2,NA,NA,timeout,4999.28,340310,340295.5,340311.52,345294.24,345295,2023-08-19T08:32:18Z,345310.8,NULL,Vorwurf,mashtaka,d,NA,NA,NA,NA,sdfdsf,0,1,NA,NA,NA,NA,NA,NA,NA,NA,NA,NA,NA,NA,NA,NA,NA,NA,NA,NA,NA
44f7a,deep,flow.Sequence,3_0_1_0_4_0,NA,NA,completion,10098.74,335188,335178.96,335195.5,345294.24,345295,2023-08-19T08:32:18Z,345310.8,NULL,Vorwurf,mashtaka,d,NA,NA,NA,NA,sdfdsf,NA,1,NA,NA,NA,NA,NA,NA,NA,NA,NA,NA,NA,NA,NA,NA,NA,NA,NA,NA,NA
44f7a,shallow,flow.Sequence,3_0_1_0_4_1,NA,NA,skipped,NA,345296,NA,NA,345294.24,345296,2023-08-19T08:32:18Z,345310.8,NULL,Vorwurf,mashtaka,d,NA,NA,NA,NA,sdfdsf,NA,1,NA,NA,NA,NA,NA,NA,NA,NA,NA,NA,NA,NA,NA,NA,NA,NA,NA,NA,NA
44f7a,task,flow.Sequence,3_0_1_0_4,NA,NA,completion,10098.74,335188,335178.96,335195.5,345294.24,345297,2023-08-19T08:32:18Z,345310.8,NULL,Vorwurf,mashtaka,d,NA,NA,NA,NA,sdfdsf,NA,1,NA,NA,NA,NA,NA,NA,NA,NA,NA,NA,NA,NA,NA,NA,NA,NA,NA,NA,NA
44f7a,Deep Question,html.Page,3_0_1_0_5_0_0,NA,NA,form submission,8225.2,345298,345294.24,345310.8,353536,353536,2023-08-19T08:32:26Z,353543.08,NULL,Körper,kiwiliwili,d,NA,NA,NA,malanga,NA,NA,1,NA,NA,NA,NA,NA,NA,NA,NA,NA,NA,NA,NA,NA,NA,NA,NA,NA,NA,NA
44f7a,"""Richtig""-Screen",canvas.Screen,3_0_1_0_5_0_1,NA,NA,skipped,NA,353540,NA,NA,353536,353540,2023-08-19T08:32:26Z,353543.08,NULL,Körper,kiwiliwili,d,NA,NA,NA,NA,sdfdsf,NA,1,NA,NA,NA,NA,NA,NA,NA,NA,NA,NA,NA,NA,NA,NA,NA,NA,NA,NA,NA
44f7a,"""Falsch""-Screen",canvas.Screen,3_0_1_0_5_0_2,NA,NA,timeout,4999.28,353543,353531.64,353543.08,358525.9,358532,2023-08-19T08:32:31Z,358542.36,NULL,Körper,kiwiliwili,d,NA,NA,NA,NA,sdfdsf,0,1,NA,NA,NA,NA,NA,NA,NA,NA,NA,NA,NA,NA,NA,NA,NA,NA,NA,NA,NA
44f7a,deep,flow.Sequence,3_0_1_0_5_0,NA,NA,completion,13215.1,345298,345294.24,345310.8,358525.9,358534,2023-08-19T08:32:31Z,358542.36,NULL,Körper,kiwiliwili,d,NA,NA,NA,NA,sdfdsf,NA,1,NA,NA,NA,NA,NA,NA,NA,NA,NA,NA,NA,NA,NA,NA,NA,NA,NA,NA,NA
44f7a,shallow,flow.Sequence,3_0_1_0_5_1,NA,NA,skipped,NA,358535,NA,NA,358525.9,358535,2023-08-19T08:32:31Z,358542.36,NULL,Körper,kiwiliwili,d,NA,NA,NA,NA,sdfdsf,NA,1,NA,NA,NA,NA,NA,NA,NA,NA,NA,NA,NA,NA,NA,NA,NA,NA,NA,NA,NA
44f7a,task,flow.Sequence,3_0_1_0_5,NA,NA,completion,13215.1,345298,345294.24,345310.8,358525.9,358535,2023-08-19T08:32:31Z,358542.36,NULL,Körper,kiwiliwili,d,NA,NA,NA,NA,sdfdsf,NA,1,NA,NA,NA,NA,NA,NA,NA,NA,NA,NA,NA,NA,NA,NA,NA,NA,NA,NA,NA
44f7a,Deep Question,html.Page,3_0_1_0_6_0_0,NA,NA,form submission,4377.64,358536,358525.9,358542.36,362920,362921,2023-08-19T08:32:36Z,362925.24,NULL,Entwicklung,maendeleo,d,NA,NA,NA,kjlkjkj,NA,NA,1,NA,NA,NA,NA,NA,NA,NA,NA,NA,NA,NA,NA,NA,NA,NA,NA,NA,NA,NA
44f7a,"""Richtig""-Screen",canvas.Screen,3_0_1_0_6_0_1,NA,NA,skipped,NA,362927,NA,NA,362920,362928,2023-08-19T08:32:36Z,362925.24,NULL,Entwicklung,maendeleo,d,NA,NA,NA,NA,sdfdsf,NA,1,NA,NA,NA,NA,NA,NA,NA,NA,NA,NA,NA,NA,NA,NA,NA,NA,NA,NA,NA
44f7a,"""Falsch""-Screen",canvas.Screen,3_0_1_0_6_0_2,NA,NA,timeout,4999.26,362931,362912.54,362925.24,367907.94,367909,2023-08-19T08:32:41Z,367924.5,NULL,Entwicklung,maendeleo,d,NA,NA,NA,NA,sdfdsf,0,1,NA,NA,NA,NA,NA,NA,NA,NA,NA,NA,NA,NA,NA,NA,NA,NA,NA,NA,NA
44f7a,deep,flow.Sequence,3_0_1_0_6_0,NA,NA,completion,9365.58,358536,358525.9,358542.36,367907.94,367910,2023-08-19T08:32:41Z,367924.5,NULL,Entwicklung,maendeleo,d,NA,NA,NA,NA,sdfdsf,NA,1,NA,NA,NA,NA,NA,NA,NA,NA,NA,NA,NA,NA,NA,NA,NA,NA,NA,NA,NA
44f7a,shallow,flow.Sequence,3_0_1_0_6_1,NA,NA,skipped,NA,367911,NA,NA,367907.94,367911,2023-08-19T08:32:41Z,367924.5,NULL,Entwicklung,maendeleo,d,NA,NA,NA,NA,sdfdsf,NA,1,NA,NA,NA,NA,NA,NA,NA,NA,NA,NA,NA,NA,NA,NA,NA,NA,NA,NA,NA
44f7a,task,flow.Sequence,3_0_1_0_6,NA,NA,completion,9365.58,358535,358525.9,358542.36,367907.94,367911,2023-08-19T08:32:41Z,367924.5,NULL,Entwicklung,maendeleo,d,NA,NA,NA,NA,sdfdsf,NA,1,NA,NA,NA,NA,NA,NA,NA,NA,NA,NA,NA,NA,NA,NA,NA,NA,NA,NA,NA
44f7a,deep,flow.Sequence,3_0_1_0_7_0,NA,NA,skipped,NA,367911,NA,NA,367907.94,367911,2023-08-19T08:32:41Z,367924.5,NULL,System,maongozi,s,chokochoko,nuksani,mitaani,NA,sdfdsf,NA,1,NA,NA,NA,NA,NA,NA,NA,NA,NA,NA,NA,NA,NA,NA,NA,NA,NA,NA,NA
44f7a,Shallow Question,html.Page,3_0_1_0_7_1_0,NA,NA,form submission,4680.5,367912,367907.94,367924.5,372605,372605,2023-08-19T08:32:45Z,372607.22,NULL,System,maongozi,s,chokochoko,nuksani,mitaani,maongozi,NA,NA,1,NA,NA,NA,NA,NA,NA,NA,NA,NA,NA,NA,NA,NA,NA,NA,NA,NA,NA,NA
44f7a,"""Richtig""-Screen",canvas.Screen,3_0_1_0_7_1_1,NA,NA,timeout,4999.42,372609,372601.2,372607.22,377590.06,377591,2023-08-19T08:32:50Z,377606.64,NULL,System,maongozi,s,chokochoko,nuksani,mitaani,NA,sdfdsf,1,1,NA,NA,NA,NA,NA,NA,NA,NA,NA,NA,NA,NA,NA,NA,NA,NA,NA,NA,NA
44f7a,"""Falsch""-Screen",canvas.Screen,3_0_1_0_7_1_2,NA,NA,skipped,NA,377598,NA,NA,377590.06,377599,2023-08-19T08:32:50Z,377606.64,NULL,System,maongozi,s,chokochoko,nuksani,mitaani,NA,sdfdsf,NA,1,NA,NA,NA,NA,NA,NA,NA,NA,NA,NA,NA,NA,NA,NA,NA,NA,NA,NA,NA
44f7a,shallow,flow.Sequence,3_0_1_0_7_1,NA,NA,completion,9665.56,367912,367907.94,367924.5,377590.06,377599,2023-08-19T08:32:50Z,377606.64,NULL,System,maongozi,s,chokochoko,nuksani,mitaani,NA,sdfdsf,NA,1,NA,NA,NA,NA,NA,NA,NA,NA,NA,NA,NA,NA,NA,NA,NA,NA,NA,NA,NA
44f7a,task,flow.Sequence,3_0_1_0_7,NA,NA,completion,9665.56,367911,367907.94,367924.5,377590.06,377600,2023-08-19T08:32:50Z,377606.64,NULL,System,maongozi,s,chokochoko,nuksani,mitaani,NA,sdfdsf,NA,1,NA,NA,NA,NA,NA,NA,NA,NA,NA,NA,NA,NA,NA,NA,NA,NA,NA,NA,NA
44f7a,block,flow.Loop,3_0_1_0,NA,NA,completion,100513.6,277076,277076.12,277076.46,377590.06,377600,2023-08-19T08:32:50Z,377606.64,NULL,NA,NA,NA,NA,NA,NA,NA,sdfdsf,NA,1,NA,NA,NA,NA,NA,NA,NA,NA,NA,NA,NA,NA,NA,NA,NA,NA,NA,NA,NA
44f7a,weiter,canvas.Screen,3_0_1_1,sdf,keypress(Space),response,1161.36,377601,377590.06,377606.64,378768,378779,2023-08-19T08:32:51Z,378839.7,NULL,NA,NA,NA,NA,NA,NA,NA,sdfdsf,NA,1,NA,NA,NA,NA,NA,NA,NA,NA,NA,NA,NA,NA,NA,NA,NA,NA,NA,NA,NA
44f7a,check continue,flow.Sequence,3_0_1,NA,NA,completion,101691.54,277076,277076.12,277076.46,378768,378779,2023-08-19T08:32:51Z,378839.7,NULL,NA,NA,NA,NA,NA,NA,NA,sdfdsf,NA,1,NA,NA,NA,NA,NA,NA,NA,NA,NA,NA,NA,NA,NA,NA,NA,NA,NA,NA,NA
44f7a,Deep Question,html.Page,3_0_2_0_0_0_0,NA,NA,form submission,6872.3,378839,378838.9,378839.7,385712,385713,2023-08-19T08:32:58Z,385705.7,NULL,Vorwurf,mashtaka,d,NA,NA,NA,mangawi,NA,NA,2,NA,NA,NA,NA,NA,NA,NA,NA,NA,NA,NA,NA,NA,NA,NA,NA,NA,NA,NA
44f7a,"""Richtig""-Screen",canvas.Screen,3_0_2_0_0_0_1,NA,NA,skipped,NA,385715,NA,NA,385712,385716,2023-08-19T08:32:58Z,385705.7,NULL,Vorwurf,mashtaka,d,NA,NA,NA,NA,sdf,NA,2,NA,NA,NA,NA,NA,NA,NA,NA,NA,NA,NA,NA,NA,NA,NA,NA,NA,NA,NA
44f7a,"""Falsch""-Screen",canvas.Screen,3_0_2_0_0_0_2,NA,NA,timeout,4999.34,385719,385703.64,385705.7,390688.36,390690,2023-08-19T08:33:03Z,390705.04,NULL,Vorwurf,mashtaka,d,NA,NA,NA,NA,sdf,0,2,NA,NA,NA,NA,NA,NA,NA,NA,NA,NA,NA,NA,NA,NA,NA,NA,NA,NA,NA
44f7a,deep,flow.Sequence,3_0_2_0_0_0,NA,NA,completion,11848.66,378839,378838.9,378839.7,390688.36,390691,2023-08-19T08:33:03Z,390705.04,NULL,Vorwurf,mashtaka,d,NA,NA,NA,NA,sdf,NA,2,NA,NA,NA,NA,NA,NA,NA,NA,NA,NA,NA,NA,NA,NA,NA,NA,NA,NA,NA
44f7a,shallow,flow.Sequence,3_0_2_0_0_1,NA,NA,skipped,NA,390691,NA,NA,390688.36,390692,2023-08-19T08:33:03Z,390705.04,NULL,Vorwurf,mashtaka,d,NA,NA,NA,NA,sdf,NA,2,NA,NA,NA,NA,NA,NA,NA,NA,NA,NA,NA,NA,NA,NA,NA,NA,NA,NA,NA
44f7a,task,flow.Sequence,3_0_2_0_0,NA,NA,completion,11848.66,378839,378838.9,378839.7,390688.36,390692,2023-08-19T08:33:03Z,390705.04,NULL,Vorwurf,mashtaka,d,NA,NA,NA,NA,sdf,NA,2,NA,NA,NA,NA,NA,NA,NA,NA,NA,NA,NA,NA,NA,NA,NA,NA,NA,NA,NA
44f7a,deep,flow.Sequence,3_0_2_0_1_0,NA,NA,skipped,NA,390693,NA,NA,390688.36,390693,2023-08-19T08:33:03Z,390705.04,NULL,Niveau,kiwango,s,usimamizi,mwamali,mshairi,NA,sdf,NA,2,NA,NA,NA,NA,NA,NA,NA,NA,NA,NA,NA,NA,NA,NA,NA,NA,NA,NA,NA
44f7a,Shallow Question,html.Page,3_0_2_0_1_1_0,NA,NA,form submission,4914.96,390693,390688.36,390705.04,395620,395621,2023-08-19T08:33:08Z,395620.96,NULL,Niveau,kiwango,s,usimamizi,mwamali,mshairi,kiwango,NA,NA,2,NA,NA,NA,NA,NA,NA,NA,NA,NA,NA,NA,NA,NA,NA,NA,NA,NA,NA,NA
44f7a,"""Richtig""-Screen",canvas.Screen,3_0_2_0_1_1_1,NA,NA,timeout,4999.42,395628,395613.36,395620.96,400603.72,400605,2023-08-19T08:33:13Z,400620.38,NULL,Niveau,kiwango,s,usimamizi,mwamali,mshairi,NA,sdf,1,2,NA,NA,NA,NA,NA,NA,NA,NA,NA,NA,NA,NA,NA,NA,NA,NA,NA,NA,NA
44f7a,"""Falsch""-Screen",canvas.Screen,3_0_2_0_1_1_2,NA,NA,skipped,NA,400610,NA,NA,400603.72,400610,2023-08-19T08:33:13Z,400620.38,NULL,Niveau,kiwango,s,usimamizi,mwamali,mshairi,NA,sdf,NA,2,NA,NA,NA,NA,NA,NA,NA,NA,NA,NA,NA,NA,NA,NA,NA,NA,NA,NA,NA
44f7a,shallow,flow.Sequence,3_0_2_0_1_1,NA,NA,completion,9898.68,390693,390688.36,390705.04,400603.72,400610,2023-08-19T08:33:13Z,400620.38,NULL,Niveau,kiwango,s,usimamizi,mwamali,mshairi,NA,sdf,NA,2,NA,NA,NA,NA,NA,NA,NA,NA,NA,NA,NA,NA,NA,NA,NA,NA,NA,NA,NA
44f7a,task,flow.Sequence,3_0_2_0_1,NA,NA,completion,9898.68,390693,390688.36,390705.04,400603.72,400610,2023-08-19T08:33:13Z,400620.38,NULL,Niveau,kiwango,s,usimamizi,mwamali,mshairi,NA,sdf,NA,2,NA,NA,NA,NA,NA,NA,NA,NA,NA,NA,NA,NA,NA,NA,NA,NA,NA,NA,NA
44f7a,Deep Question,html.Page,3_0_2_0_2_0_0,NA,NA,form submission,4668.62,400610,400603.72,400620.38,405289,405290,2023-08-19T08:33:18Z,405286.5,NULL,Übersicht,kilindo,d,NA,NA,NA,jlkjlkj,NA,NA,2,NA,NA,NA,NA,NA,NA,NA,NA,NA,NA,NA,NA,NA,NA,NA,NA,NA,NA,NA
44f7a,"""Richtig""-Screen",canvas.Screen,3_0_2_0_2_0_1,NA,NA,skipped,NA,405296,NA,NA,405289,405296,2023-08-19T08:33:18Z,405286.5,NULL,Übersicht,kilindo,d,NA,NA,NA,NA,sdf,NA,2,NA,NA,NA,NA,NA,NA,NA,NA,NA,NA,NA,NA,NA,NA,NA,NA,NA,NA,NA
44f7a,"""Falsch""-Screen",canvas.Screen,3_0_2_0_2_0_2,NA,NA,timeout,4999.32,405299,405283.1,405286.5,410269.12,410270,2023-08-19T08:33:23Z,410285.82,NULL,Übersicht,kilindo,d,NA,NA,NA,NA,sdf,0,2,NA,NA,NA,NA,NA,NA,NA,NA,NA,NA,NA,NA,NA,NA,NA,NA,NA,NA,NA
44f7a,deep,flow.Sequence,3_0_2_0_2_0,NA,NA,completion,9648.74,400610,400603.72,400620.38,410269.12,410271,2023-08-19T08:33:23Z,410285.82,NULL,Übersicht,kilindo,d,NA,NA,NA,NA,sdf,NA,2,NA,NA,NA,NA,NA,NA,NA,NA,NA,NA,NA,NA,NA,NA,NA,NA,NA,NA,NA
44f7a,shallow,flow.Sequence,3_0_2_0_2_1,NA,NA,skipped,NA,410271,NA,NA,410269.12,410271,2023-08-19T08:33:23Z,410285.82,NULL,Übersicht,kilindo,d,NA,NA,NA,NA,sdf,NA,2,NA,NA,NA,NA,NA,NA,NA,NA,NA,NA,NA,NA,NA,NA,NA,NA,NA,NA,NA
44f7a,task,flow.Sequence,3_0_2_0_2,NA,NA,completion,9648.74,400610,400603.72,400620.38,410269.12,410271,2023-08-19T08:33:23Z,410285.82,NULL,Übersicht,kilindo,d,NA,NA,NA,NA,sdf,NA,2,NA,NA,NA,NA,NA,NA,NA,NA,NA,NA,NA,NA,NA,NA,NA,NA,NA,NA,NA
44f7a,deep,flow.Sequence,3_0_2_0_3_0,NA,NA,skipped,NA,410271,NA,NA,410269.12,410271,2023-08-19T08:33:23Z,410285.82,NULL,System,maongozi,s,chokochoko,nuksani,mitaani,NA,sdf,NA,2,NA,NA,NA,NA,NA,NA,NA,NA,NA,NA,NA,NA,NA,NA,NA,NA,NA,NA,NA
44f7a,Shallow Question,html.Page,3_0_2_0_3_1_0,NA,NA,form submission,4506.18,410272,410269.12,410285.82,414792,414795,2023-08-19T08:33:27Z,414801.82,NULL,System,maongozi,s,chokochoko,nuksani,mitaani,maongozi,NA,NA,2,NA,NA,NA,NA,NA,NA,NA,NA,NA,NA,NA,NA,NA,NA,NA,NA,NA,NA,NA
44f7a,"""Richtig""-Screen",canvas.Screen,3_0_2_0_3_1_1,NA,NA,timeout,4999.4,414803,414784.7,414801.82,419784.66,419787,2023-08-19T08:33:32Z,419801.22,NULL,System,maongozi,s,chokochoko,nuksani,mitaani,NA,sdf,1,2,NA,NA,NA,NA,NA,NA,NA,NA,NA,NA,NA,NA,NA,NA,NA,NA,NA,NA,NA
44f7a,"""Falsch""-Screen",canvas.Screen,3_0_2_0_3_1_2,NA,NA,skipped,NA,419795,NA,NA,419784.66,419796,2023-08-19T08:33:32Z,419801.22,NULL,System,maongozi,s,chokochoko,nuksani,mitaani,NA,sdf,NA,2,NA,NA,NA,NA,NA,NA,NA,NA,NA,NA,NA,NA,NA,NA,NA,NA,NA,NA,NA
44f7a,shallow,flow.Sequence,3_0_2_0_3_1,NA,NA,completion,9498.84,410272,410269.12,410285.82,419784.66,419796,2023-08-19T08:33:32Z,419801.22,NULL,System,maongozi,s,chokochoko,nuksani,mitaani,NA,sdf,NA,2,NA,NA,NA,NA,NA,NA,NA,NA,NA,NA,NA,NA,NA,NA,NA,NA,NA,NA,NA
44f7a,task,flow.Sequence,3_0_2_0_3,NA,NA,completion,9498.84,410271,410269.12,410285.82,419784.66,419797,2023-08-19T08:33:32Z,419801.22,NULL,System,maongozi,s,chokochoko,nuksani,mitaani,NA,sdf,NA,2,NA,NA,NA,NA,NA,NA,NA,NA,NA,NA,NA,NA,NA,NA,NA,NA,NA,NA,NA
44f7a,deep,flow.Sequence,3_0_2_0_4_0,NA,NA,skipped,NA,419798,NA,NA,419784.66,419798,2023-08-19T08:33:32Z,419801.22,NULL,Lawine,banguko,s,maambukizi,usuluhishi,chekechea,NA,sdf,NA,2,NA,NA,NA,NA,NA,NA,NA,NA,NA,NA,NA,NA,NA,NA,NA,NA,NA,NA,NA
44f7a,Shallow Question,html.Page,3_0_2_0_4_1_0,NA,NA,form submission,5566.78,419798,419784.66,419801.22,425368,425369,2023-08-19T08:33:38Z,425367.14,NULL,Lawine,banguko,s,maambukizi,usuluhishi,chekechea,banguko,NA,NA,2,NA,NA,NA,NA,NA,NA,NA,NA,NA,NA,NA,NA,NA,NA,NA,NA,NA,NA,NA
44f7a,"""Richtig""-Screen",canvas.Screen,3_0_2_0_4_1_1,NA,NA,timeout,4999.34,425375,425362.7,425367.14,430350,430352,2023-08-19T08:33:43Z,430366.48,NULL,Lawine,banguko,s,maambukizi,usuluhishi,chekechea,NA,sdf,1,2,NA,NA,NA,NA,NA,NA,NA,NA,NA,NA,NA,NA,NA,NA,NA,NA,NA,NA,NA
44f7a,"""Falsch""-Screen",canvas.Screen,3_0_2_0_4_1_2,NA,NA,skipped,NA,430362,NA,NA,430350,430362,2023-08-19T08:33:43Z,430366.48,NULL,Lawine,banguko,s,maambukizi,usuluhishi,chekechea,NA,sdf,NA,2,NA,NA,NA,NA,NA,NA,NA,NA,NA,NA,NA,NA,NA,NA,NA,NA,NA,NA,NA
44f7a,shallow,flow.Sequence,3_0_2_0_4_1,NA,NA,completion,10548.78,419798,419784.66,419801.22,430350,430363,2023-08-19T08:33:43Z,430366.48,NULL,Lawine,banguko,s,maambukizi,usuluhishi,chekechea,NA,sdf,NA,2,NA,NA,NA,NA,NA,NA,NA,NA,NA,NA,NA,NA,NA,NA,NA,NA,NA,NA,NA
44f7a,task,flow.Sequence,3_0_2_0_4,NA,NA,completion,10548.78,419797,419784.66,419801.22,430350,430363,2023-08-19T08:33:43Z,430366.48,NULL,Lawine,banguko,s,maambukizi,usuluhishi,chekechea,NA,sdf,NA,2,NA,NA,NA,NA,NA,NA,NA,NA,NA,NA,NA,NA,NA,NA,NA,NA,NA,NA,NA
44f7a,deep,flow.Sequence,3_0_2_0_5_0,NA,NA,skipped,NA,430364,NA,NA,430350,430364,2023-08-19T08:33:43Z,430366.48,NULL,Papier,karatasi,s,uchambuzi,usalama,kukataliwa,NA,sdf,NA,2,NA,NA,NA,NA,NA,NA,NA,NA,NA,NA,NA,NA,NA,NA,NA,NA,NA,NA,NA
44f7a,Shallow Question,html.Page,3_0_2_0_5_1_0,NA,NA,form submission,3576.52,430364,430350,430366.48,433943,433944,2023-08-19T08:33:47Z,433949.48,NULL,Papier,karatasi,s,uchambuzi,usalama,kukataliwa,karatasi,NA,NA,2,NA,NA,NA,NA,NA,NA,NA,NA,NA,NA,NA,NA,NA,NA,NA,NA,NA,NA,NA
44f7a,"""Richtig""-Screen",canvas.Screen,3_0_2_0_5_1_1,NA,NA,timeout,4999.26,433951,433936.6,433949.48,438932.08,438933,2023-08-19T08:33:52Z,438948.74,NULL,Papier,karatasi,s,uchambuzi,usalama,kukataliwa,NA,sdf,1,2,NA,NA,NA,NA,NA,NA,NA,NA,NA,NA,NA,NA,NA,NA,NA,NA,NA,NA,NA
44f7a,"""Falsch""-Screen",canvas.Screen,3_0_2_0_5_1_2,NA,NA,skipped,NA,438939,NA,NA,438932.08,438940,2023-08-19T08:33:52Z,438948.74,NULL,Papier,karatasi,s,uchambuzi,usalama,kukataliwa,NA,sdf,NA,2,NA,NA,NA,NA,NA,NA,NA,NA,NA,NA,NA,NA,NA,NA,NA,NA,NA,NA,NA
44f7a,shallow,flow.Sequence,3_0_2_0_5_1,NA,NA,completion,8565.6,430364,430350,430366.48,438932.08,438940,2023-08-19T08:33:52Z,438948.74,NULL,Papier,karatasi,s,uchambuzi,usalama,kukataliwa,NA,sdf,NA,2,NA,NA,NA,NA,NA,NA,NA,NA,NA,NA,NA,NA,NA,NA,NA,NA,NA,NA,NA
44f7a,task,flow.Sequence,3_0_2_0_5,NA,NA,completion,8565.6,430364,430350,430366.48,438932.08,438941,2023-08-19T08:33:52Z,438948.74,NULL,Papier,karatasi,s,uchambuzi,usalama,kukataliwa,NA,sdf,NA,2,NA,NA,NA,NA,NA,NA,NA,NA,NA,NA,NA,NA,NA,NA,NA,NA,NA,NA,NA
44f7a,Deep Question,html.Page,3_0_2_0_6_0_0,NA,NA,form submission,6550.26,438941,438932.08,438948.74,445499,445500,2023-08-19T08:33:58Z,445497.84,NULL,Körper,kiwiliwili,d,NA,NA,NA,kiwiliwili,NA,NA,2,NA,NA,NA,NA,NA,NA,NA,NA,NA,NA,NA,NA,NA,NA,NA,NA,NA,NA,NA
44f7a,"""Richtig""-Screen",canvas.Screen,3_0_2_0_6_0_1,NA,NA,timeout,4999.46,445507,445491.1,445497.84,450480.62,450482,2023-08-19T08:34:03Z,450497.3,NULL,Körper,kiwiliwili,d,NA,NA,NA,NA,sdf,1,2,NA,NA,NA,NA,NA,NA,NA,NA,NA,NA,NA,NA,NA,NA,NA,NA,NA,NA,NA
44f7a,"""Falsch""-Screen",canvas.Screen,3_0_2_0_6_0_2,NA,NA,skipped,NA,450488,NA,NA,450480.62,450488,2023-08-19T08:34:03Z,450497.3,NULL,Körper,kiwiliwili,d,NA,NA,NA,NA,sdf,NA,2,NA,NA,NA,NA,NA,NA,NA,NA,NA,NA,NA,NA,NA,NA,NA,NA,NA,NA,NA
44f7a,deep,flow.Sequence,3_0_2_0_6_0,NA,NA,completion,11531.88,438941,438932.08,438948.74,450480.62,450489,2023-08-19T08:34:03Z,450497.3,NULL,Körper,kiwiliwili,d,NA,NA,NA,NA,sdf,NA,2,NA,NA,NA,NA,NA,NA,NA,NA,NA,NA,NA,NA,NA,NA,NA,NA,NA,NA,NA
44f7a,shallow,flow.Sequence,3_0_2_0_6_1,NA,NA,skipped,NA,450489,NA,NA,450480.62,450489,2023-08-19T08:34:03Z,450497.3,NULL,Körper,kiwiliwili,d,NA,NA,NA,NA,sdf,NA,2,NA,NA,NA,NA,NA,NA,NA,NA,NA,NA,NA,NA,NA,NA,NA,NA,NA,NA,NA
44f7a,task,flow.Sequence,3_0_2_0_6,NA,NA,completion,11531.88,438941,438932.08,438948.74,450480.62,450490,2023-08-19T08:34:03Z,450497.3,NULL,Körper,kiwiliwili,d,NA,NA,NA,NA,sdf,NA,2,NA,NA,NA,NA,NA,NA,NA,NA,NA,NA,NA,NA,NA,NA,NA,NA,NA,NA,NA
44f7a,Deep Question,html.Page,3_0_2_0_7_0_0,NA,NA,form submission,5352.7,450490,450480.62,450497.3,455850,455850,2023-08-19T08:34:08Z,455846.5,NULL,Entwicklung,maendeleo,d,NA,NA,NA,banguko,NA,NA,2,NA,NA,NA,NA,NA,NA,NA,NA,NA,NA,NA,NA,NA,NA,NA,NA,NA,NA,NA
44f7a,"""Richtig""-Screen",canvas.Screen,3_0_2_0_7_0_1,NA,NA,skipped,NA,455853,NA,NA,455850,455853,2023-08-19T08:34:08Z,455846.5,NULL,Entwicklung,maendeleo,d,NA,NA,NA,NA,sdf,NA,2,NA,NA,NA,NA,NA,NA,NA,NA,NA,NA,NA,NA,NA,NA,NA,NA,NA,NA,NA
44f7a,"""Falsch""-Screen",canvas.Screen,3_0_2_0_7_0_2,NA,NA,timeout,4999.42,455857,455845.6,455846.5,460829.28,460831,2023-08-19T08:34:13Z,460845.92,NULL,Entwicklung,maendeleo,d,NA,NA,NA,NA,sdf,0,2,NA,NA,NA,NA,NA,NA,NA,NA,NA,NA,NA,NA,NA,NA,NA,NA,NA,NA,NA
44f7a,deep,flow.Sequence,3_0_2_0_7_0,NA,NA,completion,10331.98,450490,450480.62,450497.3,460829.28,460832,2023-08-19T08:34:13Z,460845.92,NULL,Entwicklung,maendeleo,d,NA,NA,NA,NA,sdf,NA,2,NA,NA,NA,NA,NA,NA,NA,NA,NA,NA,NA,NA,NA,NA,NA,NA,NA,NA,NA
44f7a,shallow,flow.Sequence,3_0_2_0_7_1,NA,NA,skipped,NA,460832,NA,NA,460829.28,460832,2023-08-19T08:34:13Z,460845.92,NULL,Entwicklung,maendeleo,d,NA,NA,NA,NA,sdf,NA,2,NA,NA,NA,NA,NA,NA,NA,NA,NA,NA,NA,NA,NA,NA,NA,NA,NA,NA,NA
44f7a,task,flow.Sequence,3_0_2_0_7,NA,NA,completion,10331.98,450490,450480.62,450497.3,460829.28,460833,2023-08-19T08:34:13Z,460845.92,NULL,Entwicklung,maendeleo,d,NA,NA,NA,NA,sdf,NA,2,NA,NA,NA,NA,NA,NA,NA,NA,NA,NA,NA,NA,NA,NA,NA,NA,NA,NA,NA
44f7a,block,flow.Loop,3_0_2_0,NA,NA,completion,81989.58,378839,378838.9,378839.7,460829.28,460833,2023-08-19T08:34:13Z,460845.92,NULL,NA,NA,NA,NA,NA,NA,NA,sdf,NA,2,NA,NA,NA,NA,NA,NA,NA,NA,NA,NA,NA,NA,NA,NA,NA,NA,NA,NA,NA
44f7a,weiter,canvas.Screen,3_0_2_1,sdf,keypress(Space),response,1079.08,460833,460829.28,460845.92,461925,461942,2023-08-19T08:34:15Z,462012.42,NULL,NA,NA,NA,NA,NA,NA,NA,sdf,NA,2,NA,NA,NA,NA,NA,NA,NA,NA,NA,NA,NA,NA,NA,NA,NA,NA,NA,NA,NA
44f7a,check continue,flow.Sequence,3_0_2,NA,NA,completion,83085.3,378839,378838.9,378839.7,461925,461943,2023-08-19T08:34:15Z,462012.42,NULL,NA,NA,NA,NA,NA,NA,NA,sdf,NA,2,NA,NA,NA,NA,NA,NA,NA,NA,NA,NA,NA,NA,NA,NA,NA,NA,NA,NA,NA
44f7a,Deep Question,html.Page,3_0_3_0_0_0_0,NA,NA,form submission,5447.58,462005,461995.74,462012.42,467460,467461,2023-08-19T08:34:20Z,467461.7,NULL,Übersicht,kilindo,d,NA,NA,NA,banguko,NA,NA,3,NA,NA,NA,NA,NA,NA,NA,NA,NA,NA,NA,NA,NA,NA,NA,NA,NA,NA,NA
44f7a,"""Richtig""-Screen",canvas.Screen,3_0_3_0_0_0_1,NA,NA,skipped,NA,467464,NA,NA,467460,467464,2023-08-19T08:34:20Z,467461.7,NULL,Übersicht,kilindo,d,NA,NA,NA,NA,qt,NA,3,NA,NA,NA,NA,NA,NA,NA,NA,NA,NA,NA,NA,NA,NA,NA,NA,NA,NA,NA
44f7a,"""Falsch""-Screen",canvas.Screen,3_0_3_0_0_0_2,NA,NA,timeout,4999.38,467466,467458.86,467461.7,472444.52,472446,2023-08-19T08:34:25Z,472461.08,NULL,Übersicht,kilindo,d,NA,NA,NA,NA,qt,0,3,NA,NA,NA,NA,NA,NA,NA,NA,NA,NA,NA,NA,NA,NA,NA,NA,NA,NA,NA
44f7a,deep,flow.Sequence,3_0_3_0_0_0,NA,NA,completion,10432.1,462005,461995.74,462012.42,472444.52,472446,2023-08-19T08:34:25Z,472461.08,NULL,Übersicht,kilindo,d,NA,NA,NA,NA,qt,NA,3,NA,NA,NA,NA,NA,NA,NA,NA,NA,NA,NA,NA,NA,NA,NA,NA,NA,NA,NA
44f7a,shallow,flow.Sequence,3_0_3_0_0_1,NA,NA,skipped,NA,472447,NA,NA,472444.52,472447,2023-08-19T08:34:25Z,472461.08,NULL,Übersicht,kilindo,d,NA,NA,NA,NA,qt,NA,3,NA,NA,NA,NA,NA,NA,NA,NA,NA,NA,NA,NA,NA,NA,NA,NA,NA,NA,NA
44f7a,task,flow.Sequence,3_0_3_0_0,NA,NA,completion,10432.1,462005,461995.74,462012.42,472444.52,472447,2023-08-19T08:34:25Z,472461.08,NULL,Übersicht,kilindo,d,NA,NA,NA,NA,qt,NA,3,NA,NA,NA,NA,NA,NA,NA,NA,NA,NA,NA,NA,NA,NA,NA,NA,NA,NA,NA
44f7a,deep,flow.Sequence,3_0_3_0_1_0,NA,NA,skipped,NA,472448,NA,NA,472444.52,472448,2023-08-19T08:34:25Z,472461.08,NULL,Niveau,kiwango,s,usimamizi,mwamali,mshairi,NA,qt,NA,3,NA,NA,NA,NA,NA,NA,NA,NA,NA,NA,NA,NA,NA,NA,NA,NA,NA,NA,NA
44f7a,Shallow Question,html.Page,3_0_3_0_1_1_0,NA,NA,form submission,5594.92,472448,472444.52,472461.08,478056,478057,2023-08-19T08:34:31Z,478060.34,NULL,Niveau,kiwango,s,usimamizi,mwamali,mshairi,kiwango,NA,NA,3,NA,NA,NA,NA,NA,NA,NA,NA,NA,NA,NA,NA,NA,NA,NA,NA,NA,NA,NA
44f7a,"""Richtig""-Screen",canvas.Screen,3_0_3_0_1_1_1,NA,NA,timeout,4999.44,478063,478050.88,478060.34,483043.08,483044,2023-08-19T08:34:36Z,483059.78,NULL,Niveau,kiwango,s,usimamizi,mwamali,mshairi,NA,qt,1,3,NA,NA,NA,NA,NA,NA,NA,NA,NA,NA,NA,NA,NA,NA,NA,NA,NA,NA,NA
44f7a,"""Falsch""-Screen",canvas.Screen,3_0_3_0_1_1_2,NA,NA,skipped,NA,483047,NA,NA,483043.08,483048,2023-08-19T08:34:36Z,483059.78,NULL,Niveau,kiwango,s,usimamizi,mwamali,mshairi,NA,qt,NA,3,NA,NA,NA,NA,NA,NA,NA,NA,NA,NA,NA,NA,NA,NA,NA,NA,NA,NA,NA
44f7a,shallow,flow.Sequence,3_0_3_0_1_1,NA,NA,completion,10582,472448,472444.52,472461.08,483043.08,483048,2023-08-19T08:34:36Z,483059.78,NULL,Niveau,kiwango,s,usimamizi,mwamali,mshairi,NA,qt,NA,3,NA,NA,NA,NA,NA,NA,NA,NA,NA,NA,NA,NA,NA,NA,NA,NA,NA,NA,NA
44f7a,task,flow.Sequence,3_0_3_0_1,NA,NA,completion,10582,472448,472444.52,472461.08,483043.08,483048,2023-08-19T08:34:36Z,483059.78,NULL,Niveau,kiwango,s,usimamizi,mwamali,mshairi,NA,qt,NA,3,NA,NA,NA,NA,NA,NA,NA,NA,NA,NA,NA,NA,NA,NA,NA,NA,NA,NA,NA
44f7a,Deep Question,html.Page,3_0_3_0_2_0_0,NA,NA,form submission,4338.22,483049,483043.08,483059.78,487398,487399,2023-08-19T08:34:40Z,487398.38,NULL,Körper,kiwiliwili,d,NA,NA,NA,kiwiliwili,NA,NA,3,NA,NA,NA,NA,NA,NA,NA,NA,NA,NA,NA,NA,NA,NA,NA,NA,NA,NA,NA
44f7a,"""Richtig""-Screen",canvas.Screen,3_0_3_0_2_0_1,NA,NA,timeout,4993.48,487401,487398,487398.38,492375.34,492381,2023-08-19T08:34:45Z,492391.86,NULL,Körper,kiwiliwili,d,NA,NA,NA,NA,qt,1,3,NA,NA,NA,NA,NA,NA,NA,NA,NA,NA,NA,NA,NA,NA,NA,NA,NA,NA,NA
44f7a,"""Falsch""-Screen",canvas.Screen,3_0_3_0_2_0_2,NA,NA,skipped,NA,492395,NA,NA,492375.34,492396,2023-08-19T08:34:45Z,492391.86,NULL,Körper,kiwiliwili,d,NA,NA,NA,NA,qt,NA,3,NA,NA,NA,NA,NA,NA,NA,NA,NA,NA,NA,NA,NA,NA,NA,NA,NA,NA,NA
44f7a,deep,flow.Sequence,3_0_3_0_2_0,NA,NA,completion,9315.56,483049,483043.08,483059.78,492375.34,492396,2023-08-19T08:34:45Z,492391.86,NULL,Körper,kiwiliwili,d,NA,NA,NA,NA,qt,NA,3,NA,NA,NA,NA,NA,NA,NA,NA,NA,NA,NA,NA,NA,NA,NA,NA,NA,NA,NA
44f7a,shallow,flow.Sequence,3_0_3_0_2_1,NA,NA,skipped,NA,492396,NA,NA,492375.34,492396,2023-08-19T08:34:45Z,492391.86,NULL,Körper,kiwiliwili,d,NA,NA,NA,NA,qt,NA,3,NA,NA,NA,NA,NA,NA,NA,NA,NA,NA,NA,NA,NA,NA,NA,NA,NA,NA,NA
44f7a,task,flow.Sequence,3_0_3_0_2,NA,NA,completion,9315.56,483049,483043.08,483059.78,492375.34,492397,2023-08-19T08:34:45Z,492391.86,NULL,Körper,kiwiliwili,d,NA,NA,NA,NA,qt,NA,3,NA,NA,NA,NA,NA,NA,NA,NA,NA,NA,NA,NA,NA,NA,NA,NA,NA,NA,NA
44f7a,deep,flow.Sequence,3_0_3_0_3_0,NA,NA,skipped,NA,492398,NA,NA,492375.34,492398,2023-08-19T08:34:45Z,492391.86,NULL,Papier,karatasi,s,uchambuzi,usalama,kukataliwa,NA,qt,NA,3,NA,NA,NA,NA,NA,NA,NA,NA,NA,NA,NA,NA,NA,NA,NA,NA,NA,NA,NA
44f7a,Shallow Question,html.Page,3_0_3_0_3_1_0,NA,NA,form submission,4713.14,492398,492375.34,492391.86,497105,497106,2023-08-19T08:34:50Z,497107.84,NULL,Papier,karatasi,s,uchambuzi,usalama,kukataliwa,karatasi,NA,NA,3,NA,NA,NA,NA,NA,NA,NA,NA,NA,NA,NA,NA,NA,NA,NA,NA,NA,NA,NA
44f7a,"""Richtig""-Screen",canvas.Screen,3_0_3_0_3_1_1,NA,NA,timeout,4999.36,497111,497097.92,497107.84,502090.6,502092,2023-08-19T08:34:55Z,502107.2,NULL,Papier,karatasi,s,uchambuzi,usalama,kukataliwa,NA,qt,1,3,NA,NA,NA,NA,NA,NA,NA,NA,NA,NA,NA,NA,NA,NA,NA,NA,NA,NA,NA
44f7a,"""Falsch""-Screen",canvas.Screen,3_0_3_0_3_1_2,NA,NA,skipped,NA,502098,NA,NA,502090.6,502099,2023-08-19T08:34:55Z,502107.2,NULL,Papier,karatasi,s,uchambuzi,usalama,kukataliwa,NA,qt,NA,3,NA,NA,NA,NA,NA,NA,NA,NA,NA,NA,NA,NA,NA,NA,NA,NA,NA,NA,NA
44f7a,shallow,flow.Sequence,3_0_3_0_3_1,NA,NA,completion,9698.74,492398,492375.34,492391.86,502090.6,502099,2023-08-19T08:34:55Z,502107.2,NULL,Papier,karatasi,s,uchambuzi,usalama,kukataliwa,NA,qt,NA,3,NA,NA,NA,NA,NA,NA,NA,NA,NA,NA,NA,NA,NA,NA,NA,NA,NA,NA,NA
44f7a,task,flow.Sequence,3_0_3_0_3,NA,NA,completion,9698.74,492397,492375.34,492391.86,502090.6,502100,2023-08-19T08:34:55Z,502107.2,NULL,Papier,karatasi,s,uchambuzi,usalama,kukataliwa,NA,qt,NA,3,NA,NA,NA,NA,NA,NA,NA,NA,NA,NA,NA,NA,NA,NA,NA,NA,NA,NA,NA
44f7a,deep,flow.Sequence,3_0_3_0_4_0,NA,NA,skipped,NA,502101,NA,NA,502090.6,502101,2023-08-19T08:34:55Z,502107.2,NULL,System,maongozi,s,chokochoko,nuksani,mitaani,NA,qt,NA,3,NA,NA,NA,NA,NA,NA,NA,NA,NA,NA,NA,NA,NA,NA,NA,NA,NA,NA,NA
44f7a,Shallow Question,html.Page,3_0_3_0_4_1_0,NA,NA,form submission,7414.8,502101,502090.6,502107.2,509522,509523,2023-08-19T08:35:02Z,509523,NULL,System,maongozi,s,chokochoko,nuksani,mitaani,maongozi,NA,NA,3,NA,NA,NA,NA,NA,NA,NA,NA,NA,NA,NA,NA,NA,NA,NA,NA,NA,NA,NA
44f7a,"""Richtig""-Screen",canvas.Screen,3_0_3_0_4_1_1,NA,NA,timeout,4999.36,509528,509517.94,509523,514505.7,514508,2023-08-19T08:35:07Z,514522.36,NULL,System,maongozi,s,chokochoko,nuksani,mitaani,NA,qt,1,3,NA,NA,NA,NA,NA,NA,NA,NA,NA,NA,NA,NA,NA,NA,NA,NA,NA,NA,NA
44f7a,"""Falsch""-Screen",canvas.Screen,3_0_3_0_4_1_2,NA,NA,skipped,NA,514512,NA,NA,514505.7,514513,2023-08-19T08:35:07Z,514522.36,NULL,System,maongozi,s,chokochoko,nuksani,mitaani,NA,qt,NA,3,NA,NA,NA,NA,NA,NA,NA,NA,NA,NA,NA,NA,NA,NA,NA,NA,NA,NA,NA
44f7a,shallow,flow.Sequence,3_0_3_0_4_1,NA,NA,completion,12398.5,502101,502090.6,502107.2,514505.7,514513,2023-08-19T08:35:07Z,514522.36,NULL,System,maongozi,s,chokochoko,nuksani,mitaani,NA,qt,NA,3,NA,NA,NA,NA,NA,NA,NA,NA,NA,NA,NA,NA,NA,NA,NA,NA,NA,NA,NA
44f7a,task,flow.Sequence,3_0_3_0_4,NA,NA,completion,12398.5,502101,502090.6,502107.2,514505.7,514513,2023-08-19T08:35:07Z,514522.36,NULL,System,maongozi,s,chokochoko,nuksani,mitaani,NA,qt,NA,3,NA,NA,NA,NA,NA,NA,NA,NA,NA,NA,NA,NA,NA,NA,NA,NA,NA,NA,NA
44f7a,deep,flow.Sequence,3_0_3_0_5_0,NA,NA,skipped,NA,514513,NA,NA,514505.7,514514,2023-08-19T08:35:07Z,514522.36,NULL,Lawine,banguko,s,maambukizi,usuluhishi,chekechea,NA,qt,NA,3,NA,NA,NA,NA,NA,NA,NA,NA,NA,NA,NA,NA,NA,NA,NA,NA,NA,NA,NA
44f7a,Shallow Question,html.Page,3_0_3_0_5_1_0,NA,NA,form submission,4524.64,514514,514505.7,514522.36,519047,519048,2023-08-19T08:35:12Z,519055.14,NULL,Lawine,banguko,s,maambukizi,usuluhishi,chekechea,banguko,NA,NA,3,NA,NA,NA,NA,NA,NA,NA,NA,NA,NA,NA,NA,NA,NA,NA,NA,NA,NA,NA
44f7a,"""Richtig""-Screen",canvas.Screen,3_0_3_0_5_1_1,NA,NA,timeout,4999.3,519055,519041.76,519055.14,524037.78,524040,2023-08-19T08:35:17Z,524054.44,NULL,Lawine,banguko,s,maambukizi,usuluhishi,chekechea,NA,qt,1,3,NA,NA,NA,NA,NA,NA,NA,NA,NA,NA,NA,NA,NA,NA,NA,NA,NA,NA,NA
44f7a,"""Falsch""-Screen",canvas.Screen,3_0_3_0_5_1_2,NA,NA,skipped,NA,524046,NA,NA,524037.78,524047,2023-08-19T08:35:17Z,524054.44,NULL,Lawine,banguko,s,maambukizi,usuluhishi,chekechea,NA,qt,NA,3,NA,NA,NA,NA,NA,NA,NA,NA,NA,NA,NA,NA,NA,NA,NA,NA,NA,NA,NA
44f7a,shallow,flow.Sequence,3_0_3_0_5_1,NA,NA,completion,9515.42,514514,514505.7,514522.36,524037.78,524048,2023-08-19T08:35:17Z,524054.44,NULL,Lawine,banguko,s,maambukizi,usuluhishi,chekechea,NA,qt,NA,3,NA,NA,NA,NA,NA,NA,NA,NA,NA,NA,NA,NA,NA,NA,NA,NA,NA,NA,NA
44f7a,task,flow.Sequence,3_0_3_0_5,NA,NA,completion,9515.42,514513,514505.7,514522.36,524037.78,524048,2023-08-19T08:35:17Z,524054.44,NULL,Lawine,banguko,s,maambukizi,usuluhishi,chekechea,NA,qt,NA,3,NA,NA,NA,NA,NA,NA,NA,NA,NA,NA,NA,NA,NA,NA,NA,NA,NA,NA,NA
44f7a,Deep Question,html.Page,3_0_3_0_6_0_0,NA,NA,form submission,17414.56,524049,524037.78,524054.44,541469,541469,2023-08-19T08:35:34Z,541468.02,NULL,Entwicklung,maendeleo,d,NA,NA,NA,jkkj,NA,NA,3,NA,NA,NA,NA,NA,NA,NA,NA,NA,NA,NA,NA,NA,NA,NA,NA,NA,NA,NA
44f7a,"""Richtig""-Screen",canvas.Screen,3_0_3_0_6_0_1,NA,NA,skipped,NA,541471,NA,NA,541469,541471,2023-08-19T08:35:34Z,541468.02,NULL,Entwicklung,maendeleo,d,NA,NA,NA,NA,qt,NA,3,NA,NA,NA,NA,NA,NA,NA,NA,NA,NA,NA,NA,NA,NA,NA,NA,NA,NA,NA
44f7a,"""Falsch""-Screen",canvas.Screen,3_0_3_0_6_0_2,NA,NA,timeout,5000.04,541473,541467.1,541468.02,546451.54,546453,2023-08-19T08:35:39Z,546468.06,NULL,Entwicklung,maendeleo,d,NA,NA,NA,NA,qt,0,3,NA,NA,NA,NA,NA,NA,NA,NA,NA,NA,NA,NA,NA,NA,NA,NA,NA,NA,NA
44f7a,deep,flow.Sequence,3_0_3_0_6_0,NA,NA,completion,22397.1,524049,524037.78,524054.44,546451.54,546453,2023-08-19T08:35:39Z,546468.06,NULL,Entwicklung,maendeleo,d,NA,NA,NA,NA,qt,NA,3,NA,NA,NA,NA,NA,NA,NA,NA,NA,NA,NA,NA,NA,NA,NA,NA,NA,NA,NA
44f7a,shallow,flow.Sequence,3_0_3_0_6_1,NA,NA,skipped,NA,546453,NA,NA,546451.54,546453,2023-08-19T08:35:39Z,546468.06,NULL,Entwicklung,maendeleo,d,NA,NA,NA,NA,qt,NA,3,NA,NA,NA,NA,NA,NA,NA,NA,NA,NA,NA,NA,NA,NA,NA,NA,NA,NA,NA
44f7a,task,flow.Sequence,3_0_3_0_6,NA,NA,completion,22397.1,524049,524037.78,524054.44,546451.54,546454,2023-08-19T08:35:39Z,546468.06,NULL,Entwicklung,maendeleo,d,NA,NA,NA,NA,qt,NA,3,NA,NA,NA,NA,NA,NA,NA,NA,NA,NA,NA,NA,NA,NA,NA,NA,NA,NA,NA
44f7a,Deep Question,html.Page,3_0_3_0_7_0_0,NA,NA,form submission,4485.9399999999,546454,546451.54,546468.06,550954,550955,2023-08-19T08:35:44Z,550967.52,NULL,Vorwurf,mashtaka,d,NA,NA,NA,jk,NA,NA,3,NA,NA,NA,NA,NA,NA,NA,NA,NA,NA,NA,NA,NA,NA,NA,NA,NA,NA,NA
44f7a,"""Richtig""-Screen",canvas.Screen,3_0_3_0_7_0_1,NA,NA,skipped,NA,550962,NA,NA,550954,550962,2023-08-19T08:35:44Z,550967.52,NULL,Vorwurf,mashtaka,d,NA,NA,NA,NA,qt,NA,3,NA,NA,NA,NA,NA,NA,NA,NA,NA,NA,NA,NA,NA,NA,NA,NA,NA,NA,NA
44f7a,"""Falsch""-Screen",canvas.Screen,3_0_3_0_7_0_2,NA,NA,timeout,4999.34,550965,550953,550967.52,555950.34,555952,2023-08-19T08:35:49Z,555966.86,NULL,Vorwurf,mashtaka,d,NA,NA,NA,NA,qt,0,3,NA,NA,NA,NA,NA,NA,NA,NA,NA,NA,NA,NA,NA,NA,NA,NA,NA,NA,NA
44f7a,deep,flow.Sequence,3_0_3_0_7_0,NA,NA,completion,9482.2799999999,546454,546451.54,546468.06,555950.34,555953,2023-08-19T08:35:49Z,555966.86,NULL,Vorwurf,mashtaka,d,NA,NA,NA,NA,qt,NA,3,NA,NA,NA,NA,NA,NA,NA,NA,NA,NA,NA,NA,NA,NA,NA,NA,NA,NA,NA
44f7a,shallow,flow.Sequence,3_0_3_0_7_1,NA,NA,skipped,NA,555953,NA,NA,555950.34,555954,2023-08-19T08:35:49Z,555966.86,NULL,Vorwurf,mashtaka,d,NA,NA,NA,NA,qt,NA,3,NA,NA,NA,NA,NA,NA,NA,NA,NA,NA,NA,NA,NA,NA,NA,NA,NA,NA,NA
44f7a,task,flow.Sequence,3_0_3_0_7,NA,NA,completion,9482.2799999999,546454,546451.54,546468.06,555950.34,555955,2023-08-19T08:35:49Z,555966.86,NULL,Vorwurf,mashtaka,d,NA,NA,NA,NA,qt,NA,3,NA,NA,NA,NA,NA,NA,NA,NA,NA,NA,NA,NA,NA,NA,NA,NA,NA,NA,NA
44f7a,block,flow.Loop,3_0_3_0,NA,NA,completion,93937.92,462005,461995.74,462012.42,555950.34,555955,2023-08-19T08:35:49Z,555966.86,NULL,NA,NA,NA,NA,NA,NA,NA,qt,NA,3,NA,NA,NA,NA,NA,NA,NA,NA,NA,NA,NA,NA,NA,NA,NA,NA,NA,NA,NA
44f7a,weiter,canvas.Screen,3_0_3_1,sdf,keypress(Space),response,973.14000000001,555956,555950.34,555966.86,556940,556958,2023-08-19T08:35:50Z,557021.24,NULL,NA,NA,NA,NA,NA,NA,NA,qt,NA,3,NA,NA,NA,NA,NA,NA,NA,NA,NA,NA,NA,NA,NA,NA,NA,NA,NA,NA,NA
44f7a,check continue,flow.Sequence,3_0_3,NA,NA,completion,94927.58,462005,461995.74,462012.42,556940,556958,2023-08-19T08:35:50Z,557021.24,NULL,NA,NA,NA,NA,NA,NA,NA,qt,NA,3,NA,NA,NA,NA,NA,NA,NA,NA,NA,NA,NA,NA,NA,NA,NA,NA,NA,NA,NA
44f7a,Deep Question,html.Page,3_0_4_0_0_0_0,NA,NA,form submission,3575.76,557021,557020.9,557021.24,560597,560597,2023-08-19T08:35:53Z,560599.74,NULL,Übersicht,kilindo,d,NA,NA,NA,kjkjkjh,NA,NA,4,NA,NA,NA,NA,NA,NA,NA,NA,NA,NA,NA,NA,NA,NA,NA,NA,NA,NA,NA
44f7a,"""Richtig""-Screen",canvas.Screen,3_0_4_0_0_0_1,NA,NA,skipped,NA,560600,NA,NA,560597,560600,2023-08-19T08:35:53Z,560599.74,NULL,Übersicht,kilindo,d,NA,NA,NA,NA,sd,NA,4,NA,NA,NA,NA,NA,NA,NA,NA,NA,NA,NA,NA,NA,NA,NA,NA,NA,NA,NA
44f7a,"""Falsch""-Screen",canvas.Screen,3_0_4_0_0_0_2,NA,NA,timeout,4999.3200000001,560603,560596.06,560599.74,565582.46,565584,2023-08-19T08:35:58Z,565599.06,NULL,Übersicht,kilindo,d,NA,NA,NA,NA,sd,0,4,NA,NA,NA,NA,NA,NA,NA,NA,NA,NA,NA,NA,NA,NA,NA,NA,NA,NA,NA
44f7a,deep,flow.Sequence,3_0_4_0_0_0,NA,NA,completion,8561.22,557021,557020.9,557021.24,565582.46,565585,2023-08-19T08:35:58Z,565599.06,NULL,Übersicht,kilindo,d,NA,NA,NA,NA,sd,NA,4,NA,NA,NA,NA,NA,NA,NA,NA,NA,NA,NA,NA,NA,NA,NA,NA,NA,NA,NA
44f7a,shallow,flow.Sequence,3_0_4_0_0_1,NA,NA,skipped,NA,565585,NA,NA,565582.46,565585,2023-08-19T08:35:58Z,565599.06,NULL,Übersicht,kilindo,d,NA,NA,NA,NA,sd,NA,4,NA,NA,NA,NA,NA,NA,NA,NA,NA,NA,NA,NA,NA,NA,NA,NA,NA,NA,NA
44f7a,task,flow.Sequence,3_0_4_0_0,NA,NA,completion,8561.22,557021,557020.9,557021.24,565582.46,565585,2023-08-19T08:35:58Z,565599.06,NULL,Übersicht,kilindo,d,NA,NA,NA,NA,sd,NA,4,NA,NA,NA,NA,NA,NA,NA,NA,NA,NA,NA,NA,NA,NA,NA,NA,NA,NA,NA
44f7a,Deep Question,html.Page,3_0_4_0_1_0_0,NA,NA,form submission,8286.9399999999,565586,565582.46,565599.06,573886,573886,2023-08-19T08:36:07Z,573885.5,NULL,Vorwurf,mashtaka,d,NA,NA,NA,mashtaka,NA,NA,4,NA,NA,NA,NA,NA,NA,NA,NA,NA,NA,NA,NA,NA,NA,NA,NA,NA,NA,NA
44f7a,"""Richtig""-Screen",canvas.Screen,3_0_4_0_1_0_1,NA,NA,timeout,4995.14,573890,573885.16,573885.5,578864.08,578866,2023-08-19T08:36:11Z,578880.64,NULL,Vorwurf,mashtaka,d,NA,NA,NA,NA,sd,1,4,NA,NA,NA,NA,NA,NA,NA,NA,NA,NA,NA,NA,NA,NA,NA,NA,NA,NA,NA
44f7a,"""Falsch""-Screen",canvas.Screen,3_0_4_0_1_0_2,NA,NA,skipped,NA,578874,NA,NA,578864.08,578874,2023-08-19T08:36:12Z,578880.64,NULL,Vorwurf,mashtaka,d,NA,NA,NA,NA,sd,NA,4,NA,NA,NA,NA,NA,NA,NA,NA,NA,NA,NA,NA,NA,NA,NA,NA,NA,NA,NA
44f7a,deep,flow.Sequence,3_0_4_0_1_0,NA,NA,completion,13265.02,565586,565582.46,565599.06,578864.08,578874,2023-08-19T08:36:12Z,578880.64,NULL,Vorwurf,mashtaka,d,NA,NA,NA,NA,sd,NA,4,NA,NA,NA,NA,NA,NA,NA,NA,NA,NA,NA,NA,NA,NA,NA,NA,NA,NA,NA
44f7a,shallow,flow.Sequence,3_0_4_0_1_1,NA,NA,skipped,NA,578875,NA,NA,578864.08,578875,2023-08-19T08:36:12Z,578880.64,NULL,Vorwurf,mashtaka,d,NA,NA,NA,NA,sd,NA,4,NA,NA,NA,NA,NA,NA,NA,NA,NA,NA,NA,NA,NA,NA,NA,NA,NA,NA,NA
44f7a,task,flow.Sequence,3_0_4_0_1,NA,NA,completion,13265.02,565586,565582.46,565599.06,578864.08,578875,2023-08-19T08:36:12Z,578880.64,NULL,Vorwurf,mashtaka,d,NA,NA,NA,NA,sd,NA,4,NA,NA,NA,NA,NA,NA,NA,NA,NA,NA,NA,NA,NA,NA,NA,NA,NA,NA,NA
44f7a,deep,flow.Sequence,3_0_4_0_2_0,NA,NA,skipped,NA,578875,NA,NA,578864.08,578875,2023-08-19T08:36:12Z,578880.64,NULL,Niveau,kiwango,s,usimamizi,mwamali,mshairi,NA,sd,NA,4,NA,NA,NA,NA,NA,NA,NA,NA,NA,NA,NA,NA,NA,NA,NA,NA,NA,NA,NA
44f7a,Shallow Question,html.Page,3_0_4_0_2_1_0,NA,NA,form submission,5569.36,578876,578864.08,578880.64,584450,584451,2023-08-19T08:36:17Z,584446.56,NULL,Niveau,kiwango,s,usimamizi,mwamali,mshairi,kiwango,NA,NA,4,NA,NA,NA,NA,NA,NA,NA,NA,NA,NA,NA,NA,NA,NA,NA,NA,NA,NA,NA
44f7a,"""Richtig""-Screen",canvas.Screen,3_0_4_0_2_1_1,NA,NA,timeout,4999.36,584456,584445.1,584446.56,589429.38,589430,2023-08-19T08:36:22Z,589445.92,NULL,Niveau,kiwango,s,usimamizi,mwamali,mshairi,NA,sd,1,4,NA,NA,NA,NA,NA,NA,NA,NA,NA,NA,NA,NA,NA,NA,NA,NA,NA,NA,NA
44f7a,"""Falsch""-Screen",canvas.Screen,3_0_4_0_2_1_2,NA,NA,skipped,NA,589436,NA,NA,589429.38,589436,2023-08-19T08:36:22Z,589445.92,NULL,Niveau,kiwango,s,usimamizi,mwamali,mshairi,NA,sd,NA,4,NA,NA,NA,NA,NA,NA,NA,NA,NA,NA,NA,NA,NA,NA,NA,NA,NA,NA,NA
44f7a,shallow,flow.Sequence,3_0_4_0_2_1,NA,NA,completion,10548.74,578876,578864.08,578880.64,589429.38,589437,2023-08-19T08:36:22Z,589445.92,NULL,Niveau,kiwango,s,usimamizi,mwamali,mshairi,NA,sd,NA,4,NA,NA,NA,NA,NA,NA,NA,NA,NA,NA,NA,NA,NA,NA,NA,NA,NA,NA,NA
44f7a,task,flow.Sequence,3_0_4_0_2,NA,NA,completion,10548.74,578875,578864.08,578880.64,589429.38,589437,2023-08-19T08:36:22Z,589445.92,NULL,Niveau,kiwango,s,usimamizi,mwamali,mshairi,NA,sd,NA,4,NA,NA,NA,NA,NA,NA,NA,NA,NA,NA,NA,NA,NA,NA,NA,NA,NA,NA,NA
44f7a,deep,flow.Sequence,3_0_4_0_3_0,NA,NA,skipped,NA,589437,NA,NA,589429.38,589437,2023-08-19T08:36:22Z,589445.92,NULL,System,maongozi,s,chokochoko,nuksani,mitaani,NA,sd,NA,4,NA,NA,NA,NA,NA,NA,NA,NA,NA,NA,NA,NA,NA,NA,NA,NA,NA,NA,NA
44f7a,Shallow Question,html.Page,3_0_4_0_3_1_0,NA,NA,form submission,5616.08,589437,589429.38,589445.92,595062,595063,2023-08-19T08:36:28Z,595078.68,NULL,System,maongozi,s,chokochoko,nuksani,mitaani,maongozi,NA,NA,4,NA,NA,NA,NA,NA,NA,NA,NA,NA,NA,NA,NA,NA,NA,NA,NA,NA,NA,NA
44f7a,"""Richtig""-Screen",canvas.Screen,3_0_4_0_3_1_1,NA,NA,timeout,4999.22,595064,595061.02,595078.68,600061.36,600063,2023-08-19T08:36:33Z,600077.9,NULL,System,maongozi,s,chokochoko,nuksani,mitaani,NA,sd,1,4,NA,NA,NA,NA,NA,NA,NA,NA,NA,NA,NA,NA,NA,NA,NA,NA,NA,NA,NA
44f7a,"""Falsch""-Screen",canvas.Screen,3_0_4_0_3_1_2,NA,NA,skipped,NA,600070,NA,NA,600061.36,600070,2023-08-19T08:36:33Z,600077.9,NULL,System,maongozi,s,chokochoko,nuksani,mitaani,NA,sd,NA,4,NA,NA,NA,NA,NA,NA,NA,NA,NA,NA,NA,NA,NA,NA,NA,NA,NA,NA,NA
44f7a,shallow,flow.Sequence,3_0_4_0_3_1,NA,NA,completion,10615.44,589437,589429.38,589445.92,600061.36,600071,2023-08-19T08:36:33Z,600077.9,NULL,System,maongozi,s,chokochoko,nuksani,mitaani,NA,sd,NA,4,NA,NA,NA,NA,NA,NA,NA,NA,NA,NA,NA,NA,NA,NA,NA,NA,NA,NA,NA
44f7a,task,flow.Sequence,3_0_4_0_3,NA,NA,completion,10615.44,589437,589429.38,589445.92,600061.36,600072,2023-08-19T08:36:33Z,600077.9,NULL,System,maongozi,s,chokochoko,nuksani,mitaani,NA,sd,NA,4,NA,NA,NA,NA,NA,NA,NA,NA,NA,NA,NA,NA,NA,NA,NA,NA,NA,NA,NA
44f7a,Deep Question,html.Page,3_0_4_0_4_0_0,NA,NA,form submission,5470.1,600072,600061.36,600077.9,605548,605549,2023-08-19T08:36:38Z,605547.22,NULL,Entwicklung,maendeleo,d,NA,NA,NA,baguko,NA,NA,4,NA,NA,NA,NA,NA,NA,NA,NA,NA,NA,NA,NA,NA,NA,NA,NA,NA,NA,NA
44f7a,"""Richtig""-Screen",canvas.Screen,3_0_4_0_4_0_1,NA,NA,skipped,NA,605551,NA,NA,605548,605552,2023-08-19T08:36:38Z,605547.22,NULL,Entwicklung,maendeleo,d,NA,NA,NA,NA,sd,NA,4,NA,NA,NA,NA,NA,NA,NA,NA,NA,NA,NA,NA,NA,NA,NA,NA,NA,NA,NA
44f7a,"""Falsch""-Screen",canvas.Screen,3_0_4_0_4_0_2,NA,NA,timeout,4996.04,605554,605546.94,605547.22,610526.7,610528,2023-08-19T08:36:43Z,610543.26,NULL,Entwicklung,maendeleo,d,NA,NA,NA,NA,sd,0,4,NA,NA,NA,NA,NA,NA,NA,NA,NA,NA,NA,NA,NA,NA,NA,NA,NA,NA,NA
44f7a,deep,flow.Sequence,3_0_4_0_4_0,NA,NA,completion,10448.8,600072,600061.36,600077.9,610526.7,610529,2023-08-19T08:36:43Z,610543.26,NULL,Entwicklung,maendeleo,d,NA,NA,NA,NA,sd,NA,4,NA,NA,NA,NA,NA,NA,NA,NA,NA,NA,NA,NA,NA,NA,NA,NA,NA,NA,NA
44f7a,shallow,flow.Sequence,3_0_4_0_4_1,NA,NA,skipped,NA,610530,NA,NA,610526.7,610530,2023-08-19T08:36:43Z,610543.26,NULL,Entwicklung,maendeleo,d,NA,NA,NA,NA,sd,NA,4,NA,NA,NA,NA,NA,NA,NA,NA,NA,NA,NA,NA,NA,NA,NA,NA,NA,NA,NA
44f7a,task,flow.Sequence,3_0_4_0_4,NA,NA,completion,10448.8,600072,600061.36,600077.9,610526.7,610530,2023-08-19T08:36:43Z,610543.26,NULL,Entwicklung,maendeleo,d,NA,NA,NA,NA,sd,NA,4,NA,NA,NA,NA,NA,NA,NA,NA,NA,NA,NA,NA,NA,NA,NA,NA,NA,NA,NA
44f7a,deep,flow.Sequence,3_0_4_0_5_0,NA,NA,skipped,NA,610530,NA,NA,610526.7,610530,2023-08-19T08:36:43Z,610543.26,NULL,Papier,karatasi,s,uchambuzi,usalama,kukataliwa,NA,sd,NA,4,NA,NA,NA,NA,NA,NA,NA,NA,NA,NA,NA,NA,NA,NA,NA,NA,NA,NA,NA
44f7a,Shallow Question,html.Page,3_0_4_0_5_1_0,NA,NA,form submission,3008.74,610531,610526.7,610543.26,613552,613553,2023-08-19T08:36:46Z,613559.44,NULL,Papier,karatasi,s,uchambuzi,usalama,kukataliwa,karatasi,NA,NA,4,NA,NA,NA,NA,NA,NA,NA,NA,NA,NA,NA,NA,NA,NA,NA,NA,NA,NA,NA
44f7a,"""Richtig""-Screen",canvas.Screen,3_0_4_0_5_1_1,NA,NA,timeout,4999.42,613556,613549.04,613559.44,618542.3,618544,2023-08-19T08:36:51Z,618558.86,NULL,Papier,karatasi,s,uchambuzi,usalama,kukataliwa,NA,sd,1,4,NA,NA,NA,NA,NA,NA,NA,NA,NA,NA,NA,NA,NA,NA,NA,NA,NA,NA,NA
44f7a,"""Falsch""-Screen",canvas.Screen,3_0_4_0_5_1_2,NA,NA,skipped,NA,618551,NA,NA,618542.3,618551,2023-08-19T08:36:51Z,618558.86,NULL,Papier,karatasi,s,uchambuzi,usalama,kukataliwa,NA,sd,NA,4,NA,NA,NA,NA,NA,NA,NA,NA,NA,NA,NA,NA,NA,NA,NA,NA,NA,NA,NA
44f7a,shallow,flow.Sequence,3_0_4_0_5_1,NA,NA,completion,7999.04,610530,610526.7,610543.26,618542.3,618552,2023-08-19T08:36:51Z,618558.86,NULL,Papier,karatasi,s,uchambuzi,usalama,kukataliwa,NA,sd,NA,4,NA,NA,NA,NA,NA,NA,NA,NA,NA,NA,NA,NA,NA,NA,NA,NA,NA,NA,NA
44f7a,task,flow.Sequence,3_0_4_0_5,NA,NA,completion,7999.04,610530,610526.7,610543.26,618542.3,618552,2023-08-19T08:36:51Z,618558.86,NULL,Papier,karatasi,s,uchambuzi,usalama,kukataliwa,NA,sd,NA,4,NA,NA,NA,NA,NA,NA,NA,NA,NA,NA,NA,NA,NA,NA,NA,NA,NA,NA,NA
44f7a,Deep Question,html.Page,3_0_4_0_6_0_0,NA,NA,form submission,5484.14,618553,618542.3,618558.86,624043,624043,2023-08-19T08:36:57Z,624058.12,NULL,Körper,kiwiliwili,d,NA,NA,NA,kiwiliwili,NA,NA,4,NA,NA,NA,NA,NA,NA,NA,NA,NA,NA,NA,NA,NA,NA,NA,NA,NA,NA,NA
44f7a,"""Richtig""-Screen",canvas.Screen,3_0_4_0_6_0_1,NA,NA,timeout,4999.4,624046,624041.98,624058.12,629040.9,629044,2023-08-19T08:37:02Z,629057.52,NULL,Körper,kiwiliwili,d,NA,NA,NA,NA,sd,1,4,NA,NA,NA,NA,NA,NA,NA,NA,NA,NA,NA,NA,NA,NA,NA,NA,NA,NA,NA
44f7a,"""Falsch""-Screen",canvas.Screen,3_0_4_0_6_0_2,NA,NA,skipped,NA,629060,NA,NA,629040.9,629060,2023-08-19T08:37:02Z,629057.52,NULL,Körper,kiwiliwili,d,NA,NA,NA,NA,sd,NA,4,NA,NA,NA,NA,NA,NA,NA,NA,NA,NA,NA,NA,NA,NA,NA,NA,NA,NA,NA
44f7a,deep,flow.Sequence,3_0_4_0_6_0,NA,NA,completion,10482.04,618553,618542.3,618558.86,629040.9,629060,2023-08-19T08:37:02Z,629057.52,NULL,Körper,kiwiliwili,d,NA,NA,NA,NA,sd,NA,4,NA,NA,NA,NA,NA,NA,NA,NA,NA,NA,NA,NA,NA,NA,NA,NA,NA,NA,NA
44f7a,shallow,flow.Sequence,3_0_4_0_6_1,NA,NA,skipped,NA,629060,NA,NA,629040.9,629060,2023-08-19T08:37:02Z,629057.52,NULL,Körper,kiwiliwili,d,NA,NA,NA,NA,sd,NA,4,NA,NA,NA,NA,NA,NA,NA,NA,NA,NA,NA,NA,NA,NA,NA,NA,NA,NA,NA
44f7a,task,flow.Sequence,3_0_4_0_6,NA,NA,completion,10482.04,618552,618542.3,618558.86,629040.9,629061,2023-08-19T08:37:02Z,629057.52,NULL,Körper,kiwiliwili,d,NA,NA,NA,NA,sd,NA,4,NA,NA,NA,NA,NA,NA,NA,NA,NA,NA,NA,NA,NA,NA,NA,NA,NA,NA,NA
44f7a,deep,flow.Sequence,3_0_4_0_7_0,NA,NA,skipped,NA,629061,NA,NA,629040.9,629061,2023-08-19T08:37:02Z,629057.52,NULL,Lawine,banguko,s,maambukizi,usuluhishi,chekechea,NA,sd,NA,4,NA,NA,NA,NA,NA,NA,NA,NA,NA,NA,NA,NA,NA,NA,NA,NA,NA,NA,NA
44f7a,Shallow Question,html.Page,3_0_4_0_7_1_0,NA,NA,form submission,3775.48,629062,629040.9,629057.52,632833,632833,2023-08-19T08:37:05Z,632840.3,NULL,Lawine,banguko,s,maambukizi,usuluhishi,chekechea,banguko,NA,NA,4,NA,NA,NA,NA,NA,NA,NA,NA,NA,NA,NA,NA,NA,NA,NA,NA,NA,NA,NA
44f7a,"""Richtig""-Screen",canvas.Screen,3_0_4_0_7_1_1,NA,NA,timeout,4999.38,632837,632827.08,632840.3,637823.16,637825,2023-08-19T08:37:10Z,637839.68,NULL,Lawine,banguko,s,maambukizi,usuluhishi,chekechea,NA,sd,1,4,NA,NA,NA,NA,NA,NA,NA,NA,NA,NA,NA,NA,NA,NA,NA,NA,NA,NA,NA
44f7a,"""Falsch""-Screen",canvas.Screen,3_0_4_0_7_1_2,NA,NA,skipped,NA,637833,NA,NA,637823.16,637834,2023-08-19T08:37:10Z,637839.68,NULL,Lawine,banguko,s,maambukizi,usuluhishi,chekechea,NA,sd,NA,4,NA,NA,NA,NA,NA,NA,NA,NA,NA,NA,NA,NA,NA,NA,NA,NA,NA,NA,NA
44f7a,shallow,flow.Sequence,3_0_4_0_7_1,NA,NA,completion,8765.64,629062,629040.9,629057.52,637823.16,637835,2023-08-19T08:37:10Z,637839.68,NULL,Lawine,banguko,s,maambukizi,usuluhishi,chekechea,NA,sd,NA,4,NA,NA,NA,NA,NA,NA,NA,NA,NA,NA,NA,NA,NA,NA,NA,NA,NA,NA,NA
44f7a,task,flow.Sequence,3_0_4_0_7,NA,NA,completion,8765.64,629061,629040.9,629057.52,637823.16,637835,2023-08-19T08:37:10Z,637839.68,NULL,Lawine,banguko,s,maambukizi,usuluhishi,chekechea,NA,sd,NA,4,NA,NA,NA,NA,NA,NA,NA,NA,NA,NA,NA,NA,NA,NA,NA,NA,NA,NA,NA
44f7a,block,flow.Loop,3_0_4_0,NA,NA,completion,80801.92,557021,557020.9,557021.24,637823.16,637836,2023-08-19T08:37:10Z,637839.68,NULL,NA,NA,NA,NA,NA,NA,NA,sd,NA,4,NA,NA,NA,NA,NA,NA,NA,NA,NA,NA,NA,NA,NA,NA,NA,NA,NA,NA,NA
44f7a,weiter,canvas.Screen,3_0_4_1,sdf,keypress(Space),response,992.31999999995,637837,637823.16,637839.68,638832,638849,2023-08-19T08:37:11Z,639596.38,NULL,NA,NA,NA,NA,NA,NA,NA,sd,NA,4,NA,NA,NA,NA,NA,NA,NA,NA,NA,NA,NA,NA,NA,NA,NA,NA,NA,NA,NA
44f7a,check continue,flow.Sequence,3_0_4,NA,NA,completion,81810.76,557021,557020.9,557021.24,638832,638850,2023-08-19T08:37:11Z,639596.38,NULL,NA,NA,NA,NA,NA,NA,NA,sd,NA,4,NA,NA,NA,NA,NA,NA,NA,NA,NA,NA,NA,NA,NA,NA,NA,NA,NA,NA,NA
44f7a,check continue,flow.Sequence,3_0_5,NA,NA,skipped,NA,638916,NA,NA,638832,638916,2023-08-19T08:37:12Z,639596.38,NULL,NA,NA,NA,NA,NA,NA,NA,sdf,NA,5,NA,NA,NA,NA,NA,NA,NA,NA,NA,NA,NA,NA,NA,NA,NA,NA,NA,NA,NA
44f7a,check continue,flow.Sequence,3_0_6,NA,NA,skipped,NA,638952,NA,NA,638832,638952,2023-08-19T08:37:12Z,639596.38,NULL,NA,NA,NA,NA,NA,NA,NA,dfs,NA,6,NA,NA,NA,NA,NA,NA,NA,NA,NA,NA,NA,NA,NA,NA,NA,NA,NA,NA,NA
44f7a,check continue,flow.Sequence,3_0_7,NA,NA,skipped,NA,638983,NA,NA,638832,638983,2023-08-19T08:37:12Z,639596.38,NULL,NA,NA,NA,NA,NA,NA,NA,df,NA,7,NA,NA,NA,NA,NA,NA,NA,NA,NA,NA,NA,NA,NA,NA,NA,NA,NA,NA,NA
44f7a,check continue,flow.Sequence,3_0_8,NA,NA,skipped,NA,639014,NA,NA,638832,639014,2023-08-19T08:37:12Z,639596.38,NULL,NA,NA,NA,NA,NA,NA,NA,dfs,NA,8,NA,NA,NA,NA,NA,NA,NA,NA,NA,NA,NA,NA,NA,NA,NA,NA,NA,NA,NA
44f7a,check continue,flow.Sequence,3_0_9,NA,NA,skipped,NA,639042,NA,NA,638832,639042,2023-08-19T08:37:12Z,639596.38,NULL,NA,NA,NA,NA,NA,NA,NA,dsf,NA,9,NA,NA,NA,NA,NA,NA,NA,NA,NA,NA,NA,NA,NA,NA,NA,NA,NA,NA,NA
44f7a,check continue,flow.Sequence,3_0_10,NA,NA,skipped,NA,639071,NA,NA,638832,639072,2023-08-19T08:37:12Z,639596.38,NULL,NA,NA,NA,NA,NA,NA,NA,df,NA,10,NA,NA,NA,NA,NA,NA,NA,NA,NA,NA,NA,NA,NA,NA,NA,NA,NA,NA,NA
44f7a,check continue,flow.Sequence,3_0_11,NA,NA,skipped,NA,639098,NA,NA,638832,639098,2023-08-19T08:37:12Z,639596.38,NULL,NA,NA,NA,NA,NA,NA,NA,dfs,NA,11,NA,NA,NA,NA,NA,NA,NA,NA,NA,NA,NA,NA,NA,NA,NA,NA,NA,NA,NA
44f7a,check continue,flow.Sequence,3_0_12,NA,NA,skipped,NA,639130,NA,NA,638832,639130,2023-08-19T08:37:12Z,639596.38,NULL,NA,NA,NA,NA,NA,NA,NA,dsf,NA,12,NA,NA,NA,NA,NA,NA,NA,NA,NA,NA,NA,NA,NA,NA,NA,NA,NA,NA,NA
44f7a,check continue,flow.Sequence,3_0_13,NA,NA,skipped,NA,639158,NA,NA,638832,639158,2023-08-19T08:37:12Z,639596.38,NULL,NA,NA,NA,NA,NA,NA,NA,dsf,NA,13,NA,NA,NA,NA,NA,NA,NA,NA,NA,NA,NA,NA,NA,NA,NA,NA,NA,NA,NA
44f7a,check continue,flow.Sequence,3_0_14,NA,NA,skipped,NA,639185,NA,NA,638832,639185,2023-08-19T08:37:12Z,639596.38,NULL,NA,NA,NA,NA,NA,NA,NA,NA,NA,14,NA,NA,NA,NA,NA,NA,NA,NA,NA,NA,NA,NA,NA,NA,NA,NA,NA,NA,NA
44f7a,check continue,flow.Sequence,3_0_15,NA,NA,skipped,NA,639214,NA,NA,638832,639214,2023-08-19T08:37:12Z,639596.38,NULL,NA,NA,NA,NA,NA,NA,NA,NA,NA,15,NA,NA,NA,NA,NA,NA,NA,NA,NA,NA,NA,NA,NA,NA,NA,NA,NA,NA,NA
44f7a,check continue,flow.Sequence,3_0_16,NA,NA,skipped,NA,639241,NA,NA,638832,639241,2023-08-19T08:37:12Z,639596.38,NULL,NA,NA,NA,NA,NA,NA,NA,NA,NA,16,NA,NA,NA,NA,NA,NA,NA,NA,NA,NA,NA,NA,NA,NA,NA,NA,NA,NA,NA
44f7a,check continue,flow.Sequence,3_0_17,NA,NA,skipped,NA,639267,NA,NA,638832,639267,2023-08-19T08:37:12Z,639596.38,NULL,NA,NA,NA,NA,NA,NA,NA,NA,NA,17,NA,NA,NA,NA,NA,NA,NA,NA,NA,NA,NA,NA,NA,NA,NA,NA,NA,NA,NA
44f7a,check continue,flow.Sequence,3_0_18,NA,NA,skipped,NA,639297,NA,NA,638832,639297,2023-08-19T08:37:12Z,639596.38,NULL,NA,NA,NA,NA,NA,NA,NA,NA,NA,18,NA,NA,NA,NA,NA,NA,NA,NA,NA,NA,NA,NA,NA,NA,NA,NA,NA,NA,NA
44f7a,check continue,flow.Sequence,3_0_19,NA,NA,skipped,NA,639324,NA,NA,638832,639324,2023-08-19T08:37:12Z,639596.38,NULL,NA,NA,NA,NA,NA,NA,NA,NA,NA,19,NA,NA,NA,NA,NA,NA,NA,NA,NA,NA,NA,NA,NA,NA,NA,NA,NA,NA,NA
44f7a,check continue,flow.Sequence,3_0_20,NA,NA,skipped,NA,639356,NA,NA,638832,639356,2023-08-19T08:37:12Z,639596.38,NULL,NA,NA,NA,NA,NA,NA,NA,NA,NA,20,NA,NA,NA,NA,NA,NA,NA,NA,NA,NA,NA,NA,NA,NA,NA,NA,NA,NA,NA
44f7a,check continue,flow.Sequence,3_0_21,NA,NA,skipped,NA,639385,NA,NA,638832,639385,2023-08-19T08:37:12Z,639596.38,NULL,NA,NA,NA,NA,NA,NA,NA,NA,NA,21,NA,NA,NA,NA,NA,NA,NA,NA,NA,NA,NA,NA,NA,NA,NA,NA,NA,NA,NA
44f7a,check continue,flow.Sequence,3_0_22,NA,NA,skipped,NA,639410,NA,NA,638832,639410,2023-08-19T08:37:12Z,639596.38,NULL,NA,NA,NA,NA,NA,NA,NA,NA,NA,22,NA,NA,NA,NA,NA,NA,NA,NA,NA,NA,NA,NA,NA,NA,NA,NA,NA,NA,NA
44f7a,check continue,flow.Sequence,3_0_23,NA,NA,skipped,NA,639439,NA,NA,638832,639439,2023-08-19T08:37:12Z,639596.38,NULL,NA,NA,NA,NA,NA,NA,NA,NA,NA,23,NA,NA,NA,NA,NA,NA,NA,NA,NA,NA,NA,NA,NA,NA,NA,NA,NA,NA,NA
44f7a,check continue,flow.Sequence,3_0_24,NA,NA,skipped,NA,639466,NA,NA,638832,639466,2023-08-19T08:37:12Z,639596.38,NULL,NA,NA,NA,NA,NA,NA,NA,NA,NA,24,NA,NA,NA,NA,NA,NA,NA,NA,NA,NA,NA,NA,NA,NA,NA,NA,NA,NA,NA
44f7a,check continue,flow.Sequence,3_0_25,NA,NA,skipped,NA,639495,NA,NA,638832,639495,2023-08-19T08:37:12Z,639596.38,NULL,NA,NA,NA,NA,NA,NA,NA,NA,NA,25,NA,NA,NA,NA,NA,NA,NA,NA,NA,NA,NA,NA,NA,NA,NA,NA,NA,NA,NA
44f7a,check continue,flow.Sequence,3_0_26,NA,NA,skipped,NA,639519,NA,NA,638832,639519,2023-08-19T08:37:12Z,639596.38,NULL,NA,NA,NA,NA,NA,NA,NA,NA,NA,26,NA,NA,NA,NA,NA,NA,NA,NA,NA,NA,NA,NA,NA,NA,NA,NA,NA,NA,NA
44f7a,check continue,flow.Sequence,3_0_27,NA,NA,skipped,NA,639544,NA,NA,638832,639544,2023-08-19T08:37:12Z,639596.38,NULL,NA,NA,NA,NA,NA,NA,NA,NA,NA,27,NA,NA,NA,NA,NA,NA,NA,NA,NA,NA,NA,NA,NA,NA,NA,NA,NA,NA,NA
44f7a,check continue,flow.Sequence,3_0_28,NA,NA,skipped,NA,639571,NA,NA,638832,639572,2023-08-19T08:37:12Z,639596.38,NULL,NA,NA,NA,NA,NA,NA,NA,NA,NA,28,NA,NA,NA,NA,NA,NA,NA,NA,NA,NA,NA,NA,NA,NA,NA,NA,NA,NA,NA
44f7a,check continue,flow.Sequence,3_0_29,NA,NA,skipped,NA,639595,NA,NA,638832,639596,2023-08-19T08:37:12Z,639596.38,NULL,NA,NA,NA,NA,NA,NA,NA,NA,NA,29,NA,NA,NA,NA,NA,NA,NA,NA,NA,NA,NA,NA,NA,NA,NA,NA,NA,NA,NA
44f7a,until continue,flow.Loop,3_0,NA,NA,completion,446907.8,191888,191924.04,191924.2,638832,639596,2023-08-19T08:37:12Z,639596.38,NULL,NA,NA,NA,NA,NA,NA,NA,NA,NA,NA,NA,NA,NA,NA,NA,NA,NA,NA,NA,NA,NA,NA,NA,NA,NA,NA,NA,NA,NA
44f7a,block 1,flow.Sequence,3,NA,NA,completion,446907.8,191888,191924.04,191924.2,638832,639596,2023-08-19T08:37:12Z,639596.38,NULL,NA,NA,NA,NA,NA,NA,NA,NA,NA,NA,NA,NA,NA,NA,NA,NA,NA,NA,NA,NA,NA,NA,NA,NA,NA,NA,NA,NA,NA
44f7a,1.Part Over,canvas.Screen,4,NA,keypress(Space),response,2656.62,639596,639596.04,639596.38,642253,642267,2023-08-19T08:37:15Z,642328.4,NULL,NA,NA,NA,NA,NA,NA,NA,NA,NA,NA,NA,NA,NA,NA,NA,NA,NA,NA,NA,NA,NA,NA,NA,NA,NA,NA,NA,NA,NA
44f7a,deep,flow.Sequence,5_0_0_0_0_0,NA,NA,skipped,NA,642328,NA,NA,642253,642328,2023-08-19T08:37:15Z,642328.4,NULL,Fleisch,mshakiki,s,kizunguzungu,mshikamano,angusho,NA,sdf,NA,0,NA,NA,NA,NA,NA,NA,NA,NA,NA,NA,NA,NA,NA,NA,NA,NA,NA,NA,NA
44f7a,Shallow Question,html.Page,5_0_0_0_0_1_0,NA,NA,form submission,5061.6,642328,642328,642328.4,647390,647390,2023-08-19T08:37:20Z,647388.42,NULL,Fleisch,mshakiki,s,kizunguzungu,mshikamano,angusho,angusho,NA,NA,0,NA,NA,NA,NA,NA,NA,NA,NA,NA,NA,NA,NA,NA,NA,NA,NA,NA,NA,NA
44f7a,"""Richtig""-Screen",canvas.Screen,5_0_0_0_0_1_1,NA,NA,skipped,NA,647393,NA,NA,647390,647393,2023-08-19T08:37:20Z,647388.42,NULL,Fleisch,mshakiki,s,kizunguzungu,mshikamano,angusho,NA,sdf,NA,0,NA,NA,NA,NA,NA,NA,NA,NA,NA,NA,NA,NA,NA,NA,NA,NA,NA,NA,NA
44f7a,"""Falsch""-Screen",canvas.Screen,5_0_0_0_0_1_2,NA,NA,timeout,4999.4399999999,647395,647387,647388.42,652371.16,652373,2023-08-19T08:37:25Z,652387.86,NULL,Fleisch,mshakiki,s,kizunguzungu,mshikamano,angusho,NA,sdf,0,0,NA,NA,NA,NA,NA,NA,NA,NA,NA,NA,NA,NA,NA,NA,NA,NA,NA,NA,NA
44f7a,shallow,flow.Sequence,5_0_0_0_0_1,NA,NA,completion,10042.76,642328,642328,642328.4,652371.16,652373,2023-08-19T08:37:25Z,652387.86,NULL,Fleisch,mshakiki,s,kizunguzungu,mshikamano,angusho,NA,sdf,NA,0,NA,NA,NA,NA,NA,NA,NA,NA,NA,NA,NA,NA,NA,NA,NA,NA,NA,NA,NA
44f7a,task,flow.Sequence,5_0_0_0_0,NA,NA,completion,10042.76,642328,642328,642328.4,652371.16,652374,2023-08-19T08:37:25Z,652387.86,NULL,Fleisch,mshakiki,s,kizunguzungu,mshikamano,angusho,NA,sdf,NA,0,NA,NA,NA,NA,NA,NA,NA,NA,NA,NA,NA,NA,NA,NA,NA,NA,NA,NA,NA
44f7a,deep,flow.Sequence,5_0_0_0_1_0,NA,NA,skipped,NA,652374,NA,NA,652371.16,652374,2023-08-19T08:37:25Z,652387.86,NULL,Integrität,uadilifu,s,muungano,mtiririko,upunguaji,NA,sdf,NA,0,NA,NA,NA,NA,NA,NA,NA,NA,NA,NA,NA,NA,NA,NA,NA,NA,NA,NA,NA
44f7a,Shallow Question,html.Page,5_0_0_0_1_1_0,NA,NA,form submission,2584.14,652374,652371.16,652387.86,654972,654972,2023-08-19T08:37:28Z,654971.38,NULL,Integrität,uadilifu,s,muungano,mtiririko,upunguaji,mtiririko,NA,NA,0,NA,NA,NA,NA,NA,NA,NA,NA,NA,NA,NA,NA,NA,NA,NA,NA,NA,NA,NA
44f7a,"""Richtig""-Screen",canvas.Screen,5_0_0_0_1_1_1,NA,NA,skipped,NA,654975,NA,NA,654972,654975,2023-08-19T08:37:28Z,654971.38,NULL,Integrität,uadilifu,s,muungano,mtiririko,upunguaji,NA,sdf,NA,0,NA,NA,NA,NA,NA,NA,NA,NA,NA,NA,NA,NA,NA,NA,NA,NA,NA,NA,NA
44f7a,"""Falsch""-Screen",canvas.Screen,5_0_0_0_1_1_2,NA,NA,timeout,4998.76,654977,654971,654971.38,659953.62,659955,2023-08-19T08:37:33Z,659970.14,NULL,Integrität,uadilifu,s,muungano,mtiririko,upunguaji,NA,sdf,0,0,NA,NA,NA,NA,NA,NA,NA,NA,NA,NA,NA,NA,NA,NA,NA,NA,NA,NA,NA
44f7a,shallow,flow.Sequence,5_0_0_0_1_1,NA,NA,completion,7565.76,652374,652371.16,652387.86,659953.62,659955,2023-08-19T08:37:33Z,659970.14,NULL,Integrität,uadilifu,s,muungano,mtiririko,upunguaji,NA,sdf,NA,0,NA,NA,NA,NA,NA,NA,NA,NA,NA,NA,NA,NA,NA,NA,NA,NA,NA,NA,NA
44f7a,task,flow.Sequence,5_0_0_0_1,NA,NA,completion,7565.76,652374,652371.16,652387.86,659953.62,659956,2023-08-19T08:37:33Z,659970.14,NULL,Integrität,uadilifu,s,muungano,mtiririko,upunguaji,NA,sdf,NA,0,NA,NA,NA,NA,NA,NA,NA,NA,NA,NA,NA,NA,NA,NA,NA,NA,NA,NA,NA
44f7a,Deep Question,html.Page,5_0_0_0_2_0_0,NA,NA,form submission,5264.86,659957,659953.62,659970.14,665235,665236,2023-08-19T08:37:38Z,665236.18,NULL,Genehmigung,idhini,d,NA,NA,NA,zuzz,NA,NA,0,NA,NA,NA,NA,NA,NA,NA,NA,NA,NA,NA,NA,NA,NA,NA,NA,NA,NA,NA
44f7a,"""Richtig""-Screen",canvas.Screen,5_0_0_0_2_0_1,NA,NA,skipped,NA,665238,NA,NA,665235,665238,2023-08-19T08:37:38Z,665236.18,NULL,Genehmigung,idhini,d,NA,NA,NA,NA,sdf,NA,0,NA,NA,NA,NA,NA,NA,NA,NA,NA,NA,NA,NA,NA,NA,NA,NA,NA,NA,NA
44f7a,"""Falsch""-Screen",canvas.Screen,5_0_0_0_2_0_2,NA,NA,timeout,4999.4399999999,665241,665231.14,665236.18,670218.96,670220,2023-08-19T08:37:43Z,670235.62,NULL,Genehmigung,idhini,d,NA,NA,NA,NA,sdf,0,0,NA,NA,NA,NA,NA,NA,NA,NA,NA,NA,NA,NA,NA,NA,NA,NA,NA,NA,NA
44f7a,deep,flow.Sequence,5_0_0_0_2_0,NA,NA,completion,10248.82,659956,659953.62,659970.14,670218.96,670221,2023-08-19T08:37:43Z,670235.62,NULL,Genehmigung,idhini,d,NA,NA,NA,NA,sdf,NA,0,NA,NA,NA,NA,NA,NA,NA,NA,NA,NA,NA,NA,NA,NA,NA,NA,NA,NA,NA
44f7a,shallow,flow.Sequence,5_0_0_0_2_1,NA,NA,skipped,NA,670221,NA,NA,670218.96,670221,2023-08-19T08:37:43Z,670235.62,NULL,Genehmigung,idhini,d,NA,NA,NA,NA,sdf,NA,0,NA,NA,NA,NA,NA,NA,NA,NA,NA,NA,NA,NA,NA,NA,NA,NA,NA,NA,NA
44f7a,task,flow.Sequence,5_0_0_0_2,NA,NA,completion,10248.82,659956,659953.62,659970.14,670218.96,670222,2023-08-19T08:37:43Z,670235.62,NULL,Genehmigung,idhini,d,NA,NA,NA,NA,sdf,NA,0,NA,NA,NA,NA,NA,NA,NA,NA,NA,NA,NA,NA,NA,NA,NA,NA,NA,NA,NA
44f7a,Deep Question,html.Page,5_0_0_0_3_0_0,NA,NA,form submission,4561.38,670222,670218.96,670235.62,674797,674798,2023-08-19T08:37:47Z,674801.6,NULL,Begegnung,kukutana,d,NA,NA,NA,jhkjhkj,NA,NA,0,NA,NA,NA,NA,NA,NA,NA,NA,NA,NA,NA,NA,NA,NA,NA,NA,NA,NA,NA
44f7a,"""Richtig""-Screen",canvas.Screen,5_0_0_0_3_0_1,NA,NA,skipped,NA,674802,NA,NA,674797,674802,2023-08-19T08:37:47Z,674801.6,NULL,Begegnung,kukutana,d,NA,NA,NA,NA,sdf,NA,0,NA,NA,NA,NA,NA,NA,NA,NA,NA,NA,NA,NA,NA,NA,NA,NA,NA,NA,NA
44f7a,"""Falsch""-Screen",canvas.Screen,5_0_0_0_3_0_2,NA,NA,timeout,4999.4,674806,674786.72,674801.6,679784.32,679786,2023-08-19T08:37:52Z,679801,NULL,Begegnung,kukutana,d,NA,NA,NA,NA,sdf,0,0,NA,NA,NA,NA,NA,NA,NA,NA,NA,NA,NA,NA,NA,NA,NA,NA,NA,NA,NA
44f7a,deep,flow.Sequence,5_0_0_0_3_0,NA,NA,completion,9548.7,670222,670218.96,670235.62,679784.32,679787,2023-08-19T08:37:52Z,679801,NULL,Begegnung,kukutana,d,NA,NA,NA,NA,sdf,NA,0,NA,NA,NA,NA,NA,NA,NA,NA,NA,NA,NA,NA,NA,NA,NA,NA,NA,NA,NA
44f7a,shallow,flow.Sequence,5_0_0_0_3_1,NA,NA,skipped,NA,679787,NA,NA,679784.32,679787,2023-08-19T08:37:52Z,679801,NULL,Begegnung,kukutana,d,NA,NA,NA,NA,sdf,NA,0,NA,NA,NA,NA,NA,NA,NA,NA,NA,NA,NA,NA,NA,NA,NA,NA,NA,NA,NA
44f7a,task,flow.Sequence,5_0_0_0_3,NA,NA,completion,9548.7,670222,670218.96,670235.62,679784.32,679787,2023-08-19T08:37:52Z,679801,NULL,Begegnung,kukutana,d,NA,NA,NA,NA,sdf,NA,0,NA,NA,NA,NA,NA,NA,NA,NA,NA,NA,NA,NA,NA,NA,NA,NA,NA,NA,NA
44f7a,Deep Question,html.Page,5_0_0_0_4_0_0,NA,NA,form submission,4685,679787,679784.32,679801,684486,684488,2023-08-19T08:37:57Z,684500.26,NULL,Verzögerung,kuchelewa,d,NA,NA,NA,jhkjhkjh,NA,NA,0,NA,NA,NA,NA,NA,NA,NA,NA,NA,NA,NA,NA,NA,NA,NA,NA,NA,NA,NA
44f7a,"""Richtig""-Screen",canvas.Screen,5_0_0_0_4_0_1,NA,NA,skipped,NA,684492,NA,NA,684486,684492,2023-08-19T08:37:57Z,684500.26,NULL,Verzögerung,kuchelewa,d,NA,NA,NA,NA,sdf,NA,0,NA,NA,NA,NA,NA,NA,NA,NA,NA,NA,NA,NA,NA,NA,NA,NA,NA,NA,NA
44f7a,"""Falsch""-Screen",canvas.Screen,5_0_0_0_4_0_2,NA,NA,timeout,4999.46,684494,684484.22,684500.26,689483.14,689485,2023-08-19T08:38:02Z,689499.72,NULL,Verzögerung,kuchelewa,d,NA,NA,NA,NA,sdf,0,0,NA,NA,NA,NA,NA,NA,NA,NA,NA,NA,NA,NA,NA,NA,NA,NA,NA,NA,NA
44f7a,deep,flow.Sequence,5_0_0_0_4_0,NA,NA,completion,9682.14,679787,679784.32,679801,689483.14,689486,2023-08-19T08:38:02Z,689499.72,NULL,Verzögerung,kuchelewa,d,NA,NA,NA,NA,sdf,NA,0,NA,NA,NA,NA,NA,NA,NA,NA,NA,NA,NA,NA,NA,NA,NA,NA,NA,NA,NA
44f7a,shallow,flow.Sequence,5_0_0_0_4_1,NA,NA,skipped,NA,689486,NA,NA,689483.14,689486,2023-08-19T08:38:02Z,689499.72,NULL,Verzögerung,kuchelewa,d,NA,NA,NA,NA,sdf,NA,0,NA,NA,NA,NA,NA,NA,NA,NA,NA,NA,NA,NA,NA,NA,NA,NA,NA,NA,NA
44f7a,task,flow.Sequence,5_0_0_0_4,NA,NA,completion,9682.14,679787,679784.32,679801,689483.14,689487,2023-08-19T08:38:02Z,689499.72,NULL,Verzögerung,kuchelewa,d,NA,NA,NA,NA,sdf,NA,0,NA,NA,NA,NA,NA,NA,NA,NA,NA,NA,NA,NA,NA,NA,NA,NA,NA,NA,NA
44f7a,deep,flow.Sequence,5_0_0_0_5_0,NA,NA,skipped,NA,689487,NA,NA,689483.14,689488,2023-08-19T08:38:02Z,689499.72,NULL,Prüfung,mtihani,s,mkulima,mtizamo,ufumbuzi,NA,sdf,NA,0,NA,NA,NA,NA,NA,NA,NA,NA,NA,NA,NA,NA,NA,NA,NA,NA,NA,NA,NA
44f7a,Shallow Question,html.Page,5_0_0_0_5_1_0,NA,NA,form submission,5472.28,689489,689483.14,689499.72,694972,694972,2023-08-19T08:38:08Z,694982.3,NULL,Prüfung,mtihani,s,mkulima,mtizamo,ufumbuzi,ufumbuzi,NA,NA,0,NA,NA,NA,NA,NA,NA,NA,NA,NA,NA,NA,NA,NA,NA,NA,NA,NA,NA,NA
44f7a,"""Richtig""-Screen",canvas.Screen,5_0_0_0_5_1_1,NA,NA,skipped,NA,694975,NA,NA,694972,694975,2023-08-19T08:38:08Z,694982.3,NULL,Prüfung,mtihani,s,mkulima,mtizamo,ufumbuzi,NA,sdf,NA,0,NA,NA,NA,NA,NA,NA,NA,NA,NA,NA,NA,NA,NA,NA,NA,NA,NA,NA,NA
44f7a,"""Falsch""-Screen",canvas.Screen,5_0_0_0_5_1_2,NA,NA,timeout,4999.38,694978,694967.54,694982.3,699965.18,699967,2023-08-19T08:38:13Z,699981.68,NULL,Prüfung,mtihani,s,mkulima,mtizamo,ufumbuzi,NA,sdf,0,0,NA,NA,NA,NA,NA,NA,NA,NA,NA,NA,NA,NA,NA,NA,NA,NA,NA,NA,NA
44f7a,shallow,flow.Sequence,5_0_0_0_5_1,NA,NA,completion,10465.46,689488,689483.14,689499.72,699965.18,699968,2023-08-19T08:38:13Z,699981.68,NULL,Prüfung,mtihani,s,mkulima,mtizamo,ufumbuzi,NA,sdf,NA,0,NA,NA,NA,NA,NA,NA,NA,NA,NA,NA,NA,NA,NA,NA,NA,NA,NA,NA,NA
44f7a,task,flow.Sequence,5_0_0_0_5,NA,NA,completion,10465.46,689487,689483.14,689499.72,699965.18,699969,2023-08-19T08:38:13Z,699981.68,NULL,Prüfung,mtihani,s,mkulima,mtizamo,ufumbuzi,NA,sdf,NA,0,NA,NA,NA,NA,NA,NA,NA,NA,NA,NA,NA,NA,NA,NA,NA,NA,NA,NA,NA
44f7a,Deep Question,html.Page,5_0_0_0_6_0_0,NA,NA,form submission,2861.3199999999,699970,699965.18,699981.68,702843,702844,2023-08-19T08:38:15Z,702850.56,NULL,Kultur,utamaduni,d,NA,NA,NA,klkjlkj,NA,NA,0,NA,NA,NA,NA,NA,NA,NA,NA,NA,NA,NA,NA,NA,NA,NA,NA,NA,NA,NA
44f7a,"""Richtig""-Screen",canvas.Screen,5_0_0_0_6_0_1,NA,NA,skipped,NA,702847,NA,NA,702843,702847,2023-08-19T08:38:15Z,702850.56,NULL,Kultur,utamaduni,d,NA,NA,NA,NA,sdf,NA,0,NA,NA,NA,NA,NA,NA,NA,NA,NA,NA,NA,NA,NA,NA,NA,NA,NA,NA,NA
44f7a,"""Falsch""-Screen",canvas.Screen,5_0_0_0_6_0_2,NA,NA,timeout,4996.7599999999,702853,702841.8,702850.56,707830.72,707832,2023-08-19T08:38:20Z,707847.32,NULL,Kultur,utamaduni,d,NA,NA,NA,NA,sdf,0,0,NA,NA,NA,NA,NA,NA,NA,NA,NA,NA,NA,NA,NA,NA,NA,NA,NA,NA,NA
44f7a,deep,flow.Sequence,5_0_0_0_6_0,NA,NA,completion,7849.0399999999,699970,699965.18,699981.68,707830.72,707832,2023-08-19T08:38:20Z,707847.32,NULL,Kultur,utamaduni,d,NA,NA,NA,NA,sdf,NA,0,NA,NA,NA,NA,NA,NA,NA,NA,NA,NA,NA,NA,NA,NA,NA,NA,NA,NA,NA
44f7a,shallow,flow.Sequence,5_0_0_0_6_1,NA,NA,skipped,NA,707833,NA,NA,707830.72,707833,2023-08-19T08:38:20Z,707847.32,NULL,Kultur,utamaduni,d,NA,NA,NA,NA,sdf,NA,0,NA,NA,NA,NA,NA,NA,NA,NA,NA,NA,NA,NA,NA,NA,NA,NA,NA,NA,NA
44f7a,task,flow.Sequence,5_0_0_0_6,NA,NA,completion,7849.0399999999,699969,699965.18,699981.68,707830.72,707834,2023-08-19T08:38:20Z,707847.32,NULL,Kultur,utamaduni,d,NA,NA,NA,NA,sdf,NA,0,NA,NA,NA,NA,NA,NA,NA,NA,NA,NA,NA,NA,NA,NA,NA,NA,NA,NA,NA
44f7a,deep,flow.Sequence,5_0_0_0_7_0,NA,NA,skipped,NA,707834,NA,NA,707830.72,707835,2023-08-19T08:38:20Z,707847.32,NULL,Aufstand,ugomaji,s,mazidio,msingi,kujieleza,NA,sdf,NA,0,NA,NA,NA,NA,NA,NA,NA,NA,NA,NA,NA,NA,NA,NA,NA,NA,NA,NA,NA
44f7a,Shallow Question,html.Page,5_0_0_0_7_1_0,NA,NA,form submission,3989.6800000001,707835,707830.72,707847.32,711837,711837,2023-08-19T08:38:24Z,711846.86,NULL,Aufstand,ugomaji,s,mazidio,msingi,kujieleza,msingi,NA,NA,0,NA,NA,NA,NA,NA,NA,NA,NA,NA,NA,NA,NA,NA,NA,NA,NA,NA,NA,NA
44f7a,"""Richtig""-Screen",canvas.Screen,5_0_0_0_7_1_1,NA,NA,skipped,NA,711843,NA,NA,711837,711844,2023-08-19T08:38:24Z,711846.86,NULL,Aufstand,ugomaji,s,mazidio,msingi,kujieleza,NA,sdf,NA,0,NA,NA,NA,NA,NA,NA,NA,NA,NA,NA,NA,NA,NA,NA,NA,NA,NA,NA,NA
44f7a,"""Falsch""-Screen",canvas.Screen,5_0_0_0_7_1_2,NA,NA,timeout,4999.4,711848,711832.06,711846.86,716829.56,716830,2023-08-19T08:38:29Z,716846.26,NULL,Aufstand,ugomaji,s,mazidio,msingi,kujieleza,NA,sdf,0,0,NA,NA,NA,NA,NA,NA,NA,NA,NA,NA,NA,NA,NA,NA,NA,NA,NA,NA,NA
44f7a,shallow,flow.Sequence,5_0_0_0_7_1,NA,NA,completion,8982.2400000001,707835,707830.72,707847.32,716829.56,716831,2023-08-19T08:38:29Z,716846.26,NULL,Aufstand,ugomaji,s,mazidio,msingi,kujieleza,NA,sdf,NA,0,NA,NA,NA,NA,NA,NA,NA,NA,NA,NA,NA,NA,NA,NA,NA,NA,NA,NA,NA
44f7a,task,flow.Sequence,5_0_0_0_7,NA,NA,completion,8982.2400000001,707834,707830.72,707847.32,716829.56,716831,2023-08-19T08:38:29Z,716846.26,NULL,Aufstand,ugomaji,s,mazidio,msingi,kujieleza,NA,sdf,NA,0,NA,NA,NA,NA,NA,NA,NA,NA,NA,NA,NA,NA,NA,NA,NA,NA,NA,NA,NA
44f7a,block,flow.Loop,5_0_0_0,NA,NA,completion,74501.16,642328,642328,642328.4,716829.56,716832,2023-08-19T08:38:29Z,716846.26,NULL,NA,NA,NA,NA,NA,NA,NA,sdf,NA,0,NA,NA,NA,NA,NA,NA,NA,NA,NA,NA,NA,NA,NA,NA,NA,NA,NA,NA,NA
44f7a,weiter,canvas.Screen,5_0_0_1,sdf,keypress(Space),response,844.73999999999,716832,716829.56,716846.26,717691,717701,2023-08-19T08:38:30Z,717756.4,NULL,NA,NA,NA,NA,NA,NA,NA,sdf,NA,0,NA,NA,NA,NA,NA,NA,NA,NA,NA,NA,NA,NA,NA,NA,NA,NA,NA,NA,NA
44f7a,check continue,flow.Sequence,5_0_0,NA,NA,completion,75362.6,642328,642328,642328.4,717691,717701,2023-08-19T08:38:30Z,717756.4,NULL,NA,NA,NA,NA,NA,NA,NA,sdf,NA,0,NA,NA,NA,NA,NA,NA,NA,NA,NA,NA,NA,NA,NA,NA,NA,NA,NA,NA,NA
44f7a,Deep Question,html.Page,5_0_1_0_0_0_0,NA,NA,form submission,2716.6,717756,717755.96,717756.4,720473,720473,2023-08-19T08:38:33Z,720478.98,NULL,Kultur,utamaduni,d,NA,NA,NA,jlkj,NA,NA,1,NA,NA,NA,NA,NA,NA,NA,NA,NA,NA,NA,NA,NA,NA,NA,NA,NA,NA,NA
44f7a,"""Richtig""-Screen",canvas.Screen,5_0_1_0_0_0_1,NA,NA,skipped,NA,720477,NA,NA,720473,720477,2023-08-19T08:38:33Z,720478.98,NULL,Kultur,utamaduni,d,NA,NA,NA,NA,sdfdsf,NA,1,NA,NA,NA,NA,NA,NA,NA,NA,NA,NA,NA,NA,NA,NA,NA,NA,NA,NA,NA
44f7a,"""Falsch""-Screen",canvas.Screen,5_0_1_0_0_0_2,NA,NA,timeout,4999.46,720480,720472.1,720478.98,725461.82,725463,2023-08-19T08:38:38Z,725478.44,NULL,Kultur,utamaduni,d,NA,NA,NA,NA,sdfdsf,0,1,NA,NA,NA,NA,NA,NA,NA,NA,NA,NA,NA,NA,NA,NA,NA,NA,NA,NA,NA
44f7a,deep,flow.Sequence,5_0_1_0_0_0,NA,NA,completion,7705.4199999999,717756,717755.96,717756.4,725461.82,725464,2023-08-19T08:38:38Z,725478.44,NULL,Kultur,utamaduni,d,NA,NA,NA,NA,sdfdsf,NA,1,NA,NA,NA,NA,NA,NA,NA,NA,NA,NA,NA,NA,NA,NA,NA,NA,NA,NA,NA
44f7a,shallow,flow.Sequence,5_0_1_0_0_1,NA,NA,skipped,NA,725465,NA,NA,725461.82,725465,2023-08-19T08:38:38Z,725478.44,NULL,Kultur,utamaduni,d,NA,NA,NA,NA,sdfdsf,NA,1,NA,NA,NA,NA,NA,NA,NA,NA,NA,NA,NA,NA,NA,NA,NA,NA,NA,NA,NA
44f7a,task,flow.Sequence,5_0_1_0_0,NA,NA,completion,7705.4199999999,717756,717755.96,717756.4,725461.82,725465,2023-08-19T08:38:38Z,725478.44,NULL,Kultur,utamaduni,d,NA,NA,NA,NA,sdfdsf,NA,1,NA,NA,NA,NA,NA,NA,NA,NA,NA,NA,NA,NA,NA,NA,NA,NA,NA,NA,NA
44f7a,deep,flow.Sequence,5_0_1_0_1_0,NA,NA,skipped,NA,725466,NA,NA,725461.82,725466,2023-08-19T08:38:38Z,725478.44,NULL,Fleisch,mshakiki,s,kizunguzungu,mshikamano,angusho,NA,sdfdsf,NA,1,NA,NA,NA,NA,NA,NA,NA,NA,NA,NA,NA,NA,NA,NA,NA,NA,NA,NA,NA
44f7a,Shallow Question,html.Page,5_0_1_0_1_1_0,NA,NA,form submission,5643.5600000001,725466,725461.82,725478.44,731122,731123,2023-08-19T08:38:44Z,731127.66,NULL,Fleisch,mshakiki,s,kizunguzungu,mshikamano,angusho,mshakiki,NA,NA,1,NA,NA,NA,NA,NA,NA,NA,NA,NA,NA,NA,NA,NA,NA,NA,NA,NA,NA,NA
44f7a,"""Richtig""-Screen",canvas.Screen,5_0_1_0_1_1_1,NA,NA,timeout,4999.36,731126,731121.12,731127.66,736110.36,736112,2023-08-19T08:38:49Z,736127.02,NULL,Fleisch,mshakiki,s,kizunguzungu,mshikamano,angusho,NA,sdfdsf,1,1,NA,NA,NA,NA,NA,NA,NA,NA,NA,NA,NA,NA,NA,NA,NA,NA,NA,NA,NA
44f7a,"""Falsch""-Screen",canvas.Screen,5_0_1_0_1_1_2,NA,NA,skipped,NA,736118,NA,NA,736110.36,736118,2023-08-19T08:38:49Z,736127.02,NULL,Fleisch,mshakiki,s,kizunguzungu,mshikamano,angusho,NA,sdfdsf,NA,1,NA,NA,NA,NA,NA,NA,NA,NA,NA,NA,NA,NA,NA,NA,NA,NA,NA,NA,NA
44f7a,shallow,flow.Sequence,5_0_1_0_1_1,NA,NA,completion,10631.92,725466,725461.82,725478.44,736110.36,736119,2023-08-19T08:38:49Z,736127.02,NULL,Fleisch,mshakiki,s,kizunguzungu,mshikamano,angusho,NA,sdfdsf,NA,1,NA,NA,NA,NA,NA,NA,NA,NA,NA,NA,NA,NA,NA,NA,NA,NA,NA,NA,NA
44f7a,task,flow.Sequence,5_0_1_0_1,NA,NA,completion,10631.92,725466,725461.82,725478.44,736110.36,736119,2023-08-19T08:38:49Z,736127.02,NULL,Fleisch,mshakiki,s,kizunguzungu,mshikamano,angusho,NA,sdfdsf,NA,1,NA,NA,NA,NA,NA,NA,NA,NA,NA,NA,NA,NA,NA,NA,NA,NA,NA,NA,NA
44f7a,Deep Question,html.Page,5_0_1_0_2_0_0,NA,NA,form submission,3548.98,736120,736110.36,736127.02,739676,739676,2023-08-19T08:38:52Z,739676.46,NULL,Verzögerung,kuchelewa,d,NA,NA,NA,kjlkjl,NA,NA,1,NA,NA,NA,NA,NA,NA,NA,NA,NA,NA,NA,NA,NA,NA,NA,NA,NA,NA,NA
44f7a,"""Richtig""-Screen",canvas.Screen,5_0_1_0_2_0_1,NA,NA,skipped,NA,739679,NA,NA,739676,739679,2023-08-19T08:38:52Z,739676.46,NULL,Verzögerung,kuchelewa,d,NA,NA,NA,NA,sdfdsf,NA,1,NA,NA,NA,NA,NA,NA,NA,NA,NA,NA,NA,NA,NA,NA,NA,NA,NA,NA,NA
44f7a,"""Falsch""-Screen",canvas.Screen,5_0_1_0_2_0_2,NA,NA,timeout,4999.52,739683,739675.46,739676.46,744659.32,744663,2023-08-19T08:38:57Z,744675.98,NULL,Verzögerung,kuchelewa,d,NA,NA,NA,NA,sdfdsf,0,1,NA,NA,NA,NA,NA,NA,NA,NA,NA,NA,NA,NA,NA,NA,NA,NA,NA,NA,NA
44f7a,deep,flow.Sequence,5_0_1_0_2_0,NA,NA,completion,8532.2999999999,736120,736110.36,736127.02,744659.32,744665,2023-08-19T08:38:57Z,744675.98,NULL,Verzögerung,kuchelewa,d,NA,NA,NA,NA,sdfdsf,NA,1,NA,NA,NA,NA,NA,NA,NA,NA,NA,NA,NA,NA,NA,NA,NA,NA,NA,NA,NA
44f7a,shallow,flow.Sequence,5_0_1_0_2_1,NA,NA,skipped,NA,744665,NA,NA,744659.32,744666,2023-08-19T08:38:57Z,744675.98,NULL,Verzögerung,kuchelewa,d,NA,NA,NA,NA,sdfdsf,NA,1,NA,NA,NA,NA,NA,NA,NA,NA,NA,NA,NA,NA,NA,NA,NA,NA,NA,NA,NA
44f7a,task,flow.Sequence,5_0_1_0_2,NA,NA,completion,8532.2999999999,736120,736110.36,736127.02,744659.32,744666,2023-08-19T08:38:57Z,744675.98,NULL,Verzögerung,kuchelewa,d,NA,NA,NA,NA,sdfdsf,NA,1,NA,NA,NA,NA,NA,NA,NA,NA,NA,NA,NA,NA,NA,NA,NA,NA,NA,NA,NA
44f7a,deep,flow.Sequence,5_0_1_0_3_0,NA,NA,skipped,NA,744666,NA,NA,744659.32,744666,2023-08-19T08:38:57Z,744675.98,NULL,Aufstand,ugomaji,s,mazidio,msingi,kujieleza,NA,sdfdsf,NA,1,NA,NA,NA,NA,NA,NA,NA,NA,NA,NA,NA,NA,NA,NA,NA,NA,NA,NA,NA
44f7a,Shallow Question,html.Page,5_0_1_0_3_1_0,NA,NA,form submission,4662.02,744666,744659.32,744675.98,749338,749339,2023-08-19T08:39:02Z,749341.96,NULL,Aufstand,ugomaji,s,mazidio,msingi,kujieleza,ugomaji,NA,NA,1,NA,NA,NA,NA,NA,NA,NA,NA,NA,NA,NA,NA,NA,NA,NA,NA,NA,NA,NA
44f7a,"""Richtig""-Screen",canvas.Screen,5_0_1_0_3_1_1,NA,NA,timeout,4999.38,749346,749337.14,749341.96,754324.76,754326,2023-08-19T08:39:07Z,754341.34,NULL,Aufstand,ugomaji,s,mazidio,msingi,kujieleza,NA,sdfdsf,1,1,NA,NA,NA,NA,NA,NA,NA,NA,NA,NA,NA,NA,NA,NA,NA,NA,NA,NA,NA
44f7a,"""Falsch""-Screen",canvas.Screen,5_0_1_0_3_1_2,NA,NA,skipped,NA,754334,NA,NA,754324.76,754335,2023-08-19T08:39:07Z,754341.34,NULL,Aufstand,ugomaji,s,mazidio,msingi,kujieleza,NA,sdfdsf,NA,1,NA,NA,NA,NA,NA,NA,NA,NA,NA,NA,NA,NA,NA,NA,NA,NA,NA,NA,NA
44f7a,shallow,flow.Sequence,5_0_1_0_3_1,NA,NA,completion,9648.78,744666,744659.32,744675.98,754324.76,754336,2023-08-19T08:39:07Z,754341.34,NULL,Aufstand,ugomaji,s,mazidio,msingi,kujieleza,NA,sdfdsf,NA,1,NA,NA,NA,NA,NA,NA,NA,NA,NA,NA,NA,NA,NA,NA,NA,NA,NA,NA,NA
