observation,sender,sender_type,sender_id,response,response_action,ended_on,duration,time_run,time_render,time_show,time_end,time_commit,timestamp,time_switch,distractors,german,swahili,enc,distractor1,distractor2,distractor3,response_2,x,correct,x_2,url_vp,url_sess,meta_labjs_version,meta_location,meta_user_agent,meta_platform,meta_language,meta_locale,meta_time_zone,meta_timezone_offset,meta_screen_width,meta_screen_height,meta_scroll_width,meta_scroll_height,meta_window_inner_width,meta_window_inner_height,meta_device_pixel_ratio,meta_labjs_build_flavor,meta_labjs_build_commit
74f25,Introduction general,canvas.Screen,0,weiter,keypress(q),response,210311.478,1434.5,1032.419,1499.022,211810.5,211819.7,2023-03-24T08:22:42Z,211827.931,NULL,NA,NA,NA,NA,NA,NA,NA,NA,NA,NA,204,1,20.2.4,https://neurocog.fernuni.ch/studies/vweber/sfink/encoding_immediate/index.html?vp=204&sess=1,"Mozilla/5.0 (Windows NT 10.0; Win64; x64) AppleWebKit/537.36 (KHTML, like Gecko) Chrome/111.0.0.0 Safari/537.36 Edg/111.0.1661.44",Win32,de,de-CH,Europe/Zurich,-60,1536,864,1536,666,1536,714,1.25,production,f5b4a49f956347addd546a832a3327688c2c0fef
74f25,Introduction practice,canvas.Screen,1_0,NA,keypress(Space),response,13050.469,211820.2,211797.818,211827.931,224878.4,224879.2,2023-03-24T08:22:55Z,224890.187,NULL,NA,NA,NA,NA,NA,NA,NA,NA,NA,NA,NA,NA,NA,NA,NA,NA,NA,NA,NA,NA,NA,NA,NA,NA,NA,NA,NA,NA,NA
74f25,deep,flow.Sequence,1_1_0_0,NA,NA,skipped,NA,224879.7,NA,NA,224878.4,224882.4,2023-03-24T08:22:55Z,224890.187,"c(""distractor1"", ""distractor2"", ""distractor3"")",Gegenwart,hadhara,s,katiba,jokofu,mikopo,NA,NA,NA,NA,NA,NA,NA,NA,NA,NA,NA,NA,NA,NA,NA,NA,NA,NA,NA,NA,NA,NA,NA
74f25,Shallow Question,html.Page,1_1_0_1_0,NA,NA,form submission,17149.813,224882.6,224869.242,224890.187,242040,242040.2,2023-03-24T08:23:13Z,242051.063,"c(""distractor1"", ""distractor2"", ""distractor3"")",Gegenwart,hadhara,s,katiba,jokofu,mikopo,hadhara,NA,NA,NA,NA,NA,NA,NA,NA,NA,NA,NA,NA,NA,NA,NA,NA,NA,NA,NA,NA,NA,NA
74f25,"""Richtig""-Screen",canvas.Screen,1_1_0_1_1,NA,NA,timeout,4998.633,242041.3,242034.64,242051.063,247033.054,247036.9,2023-03-24T08:23:18Z,247049.696,"c(""distractor1"", ""distractor2"", ""distractor3"")",Gegenwart,hadhara,s,katiba,jokofu,mikopo,NA,NA,1,NA,NA,NA,NA,NA,NA,NA,NA,NA,NA,NA,NA,NA,NA,NA,NA,NA,NA,NA,NA
74f25,"""Falsch""-Screen",canvas.Screen,1_1_0_1_2,NA,NA,skipped,NA,247039.1,NA,NA,247033.054,247039.4,2023-03-24T08:23:18Z,247049.696,"c(""distractor1"", ""distractor2"", ""distractor3"")",Gegenwart,hadhara,s,katiba,jokofu,mikopo,NA,NA,NA,NA,NA,NA,NA,NA,NA,NA,NA,NA,NA,NA,NA,NA,NA,NA,NA,NA,NA,NA,NA
74f25,shallow,flow.Sequence,1_1_0_1,NA,NA,completion,22142.867,224882.6,224869.242,224890.187,247033.054,247039.8,2023-03-24T08:23:18Z,247049.696,"c(""distractor1"", ""distractor2"", ""distractor3"")",Gegenwart,hadhara,s,katiba,jokofu,mikopo,NA,NA,NA,NA,NA,NA,NA,NA,NA,NA,NA,NA,NA,NA,NA,NA,NA,NA,NA,NA,NA,NA,NA
74f25,task,flow.Sequence,1_1_0,NA,NA,completion,22142.867,224879.6,224869.242,224890.187,247033.054,247039.9,2023-03-24T08:23:18Z,247049.696,"c(""distractor1"", ""distractor2"", ""distractor3"")",Gegenwart,hadhara,s,katiba,jokofu,mikopo,NA,NA,NA,NA,NA,NA,NA,NA,NA,NA,NA,NA,NA,NA,NA,NA,NA,NA,NA,NA,NA,NA,NA
74f25,Deep Question,html.Page,1_1_1_0_0,NA,NA,form submission,7468.5040000002,247040.2,247033.054,247049.696,254518.2,254518.4,2023-03-24T08:23:25Z,254530.186,"c(""distractor1"", ""distractor2"", ""distractor3"")",Schatten,kivuli,d,NA,NA,NA,dofta,NA,NA,NA,NA,NA,NA,NA,NA,NA,NA,NA,NA,NA,NA,NA,NA,NA,NA,NA,NA,NA,NA
74f25,"""Richtig""-Screen",canvas.Screen,1_1_1_0_1,NA,NA,skipped,NA,254521.1,NA,NA,254518.2,254521.3,2023-03-24T08:23:25Z,254530.186,"c(""distractor1"", ""distractor2"", ""distractor3"")",Schatten,kivuli,d,NA,NA,NA,NA,NA,NA,NA,NA,NA,NA,NA,NA,NA,NA,NA,NA,NA,NA,NA,NA,NA,NA,NA,NA,NA,NA
74f25,"""Falsch""-Screen",canvas.Screen,1_1_1_0_2,NA,NA,timeout,4998.642,254522.2,254513.833,254530.186,259512.154,259513.3,2023-03-24T08:23:30Z,259528.828,"c(""distractor1"", ""distractor2"", ""distractor3"")",Schatten,kivuli,d,NA,NA,NA,NA,NA,0,NA,NA,NA,NA,NA,NA,NA,NA,NA,NA,NA,NA,NA,NA,NA,NA,NA,NA,NA,NA
74f25,deep,flow.Sequence,1_1_1_0,NA,NA,completion,12462.458,247040.1,247033.054,247049.696,259512.154,259513.7,2023-03-24T08:23:30Z,259528.828,"c(""distractor1"", ""distractor2"", ""distractor3"")",Schatten,kivuli,d,NA,NA,NA,NA,NA,NA,NA,NA,NA,NA,NA,NA,NA,NA,NA,NA,NA,NA,NA,NA,NA,NA,NA,NA,NA,NA
74f25,shallow,flow.Sequence,1_1_1_1,NA,NA,skipped,NA,259513.9,NA,NA,259512.154,259514,2023-03-24T08:23:30Z,259528.828,"c(""distractor1"", ""distractor2"", ""distractor3"")",Schatten,kivuli,d,NA,NA,NA,NA,NA,NA,NA,NA,NA,NA,NA,NA,NA,NA,NA,NA,NA,NA,NA,NA,NA,NA,NA,NA,NA,NA
74f25,task,flow.Sequence,1_1_1,NA,NA,completion,12462.458,247040,247033.054,247049.696,259512.154,259514.3,2023-03-24T08:23:30Z,259528.828,"c(""distractor1"", ""distractor2"", ""distractor3"")",Schatten,kivuli,d,NA,NA,NA,NA,NA,NA,NA,NA,NA,NA,NA,NA,NA,NA,NA,NA,NA,NA,NA,NA,NA,NA,NA,NA,NA,NA
74f25,deep,flow.Sequence,1_1_2_0,NA,NA,skipped,NA,259514.5,NA,NA,259512.154,259514.5,2023-03-24T08:23:30Z,259528.828,"c(""distractor1"", ""distractor2"", ""distractor3"")",Rückhalt,msaada,s,muhula,auwali,kiwimbe,NA,NA,NA,NA,NA,NA,NA,NA,NA,NA,NA,NA,NA,NA,NA,NA,NA,NA,NA,NA,NA,NA,NA
74f25,Shallow Question,html.Page,1_1_2_1_0,NA,NA,form submission,8395.0719999999,259514.7,259512.154,259528.828,267923.9,267924.2,2023-03-24T08:23:38Z,267925.737,"c(""distractor1"", ""distractor2"", ""distractor3"")",Rückhalt,msaada,s,muhula,auwali,kiwimbe,kiwimbe,NA,NA,NA,NA,NA,NA,NA,NA,NA,NA,NA,NA,NA,NA,NA,NA,NA,NA,NA,NA,NA,NA
74f25,"""Richtig""-Screen",canvas.Screen,1_1_2_1_1,NA,NA,skipped,NA,267926.4,NA,NA,267923.9,267926.4,2023-03-24T08:23:38Z,267925.737,"c(""distractor1"", ""distractor2"", ""distractor3"")",Rückhalt,msaada,s,muhula,auwali,kiwimbe,NA,NA,NA,NA,NA,NA,NA,NA,NA,NA,NA,NA,NA,NA,NA,NA,NA,NA,NA,NA,NA,NA,NA
74f25,"""Falsch""-Screen",canvas.Screen,1_1_2_1_2,NA,NA,timeout,4998.265,267927.2,267909.315,267925.737,272907.414,272908.1,2023-03-24T08:23:43Z,272924.002,"c(""distractor1"", ""distractor2"", ""distractor3"")",Rückhalt,msaada,s,muhula,auwali,kiwimbe,NA,NA,0,NA,NA,NA,NA,NA,NA,NA,NA,NA,NA,NA,NA,NA,NA,NA,NA,NA,NA,NA,NA
74f25,shallow,flow.Sequence,1_1_2_1,NA,NA,completion,13378.586,259514.6,259512.154,259528.828,272907.414,272908.2,2023-03-24T08:23:43Z,272924.002,"c(""distractor1"", ""distractor2"", ""distractor3"")",Rückhalt,msaada,s,muhula,auwali,kiwimbe,NA,NA,NA,NA,NA,NA,NA,NA,NA,NA,NA,NA,NA,NA,NA,NA,NA,NA,NA,NA,NA,NA,NA
74f25,task,flow.Sequence,1_1_2,NA,NA,completion,13378.586,259514.3,259512.154,259528.828,272907.414,272908.3,2023-03-24T08:23:43Z,272924.002,"c(""distractor1"", ""distractor2"", ""distractor3"")",Rückhalt,msaada,s,muhula,auwali,kiwimbe,NA,NA,NA,NA,NA,NA,NA,NA,NA,NA,NA,NA,NA,NA,NA,NA,NA,NA,NA,NA,NA,NA,NA
74f25,Deep Question,html.Page,1_1_3_0_0,NA,NA,form submission,4362.2980000003,272908.4,272907.414,272924.002,277286.3,277286.5,2023-03-24T08:23:48Z,277289.237,"c(""distractor1"", ""distractor2"", ""distractor3"")",Gesundheit,salama,d,NA,NA,NA,oejf,NA,NA,NA,NA,NA,NA,NA,NA,NA,NA,NA,NA,NA,NA,NA,NA,NA,NA,NA,NA,NA,NA
74f25,"""Richtig""-Screen",canvas.Screen,1_1_3_0_1,NA,NA,skipped,NA,277288.6,NA,NA,277286.3,277288.8,2023-03-24T08:23:48Z,277289.237,"c(""distractor1"", ""distractor2"", ""distractor3"")",Gesundheit,salama,d,NA,NA,NA,NA,NA,NA,NA,NA,NA,NA,NA,NA,NA,NA,NA,NA,NA,NA,NA,NA,NA,NA,NA,NA,NA,NA
74f25,"""Falsch""-Screen",canvas.Screen,1_1_3_0_2,NA,NA,timeout,4998.501,277289.6,277272.829,277289.237,282271.124,282272,2023-03-24T08:23:53Z,282287.738,"c(""distractor1"", ""distractor2"", ""distractor3"")",Gesundheit,salama,d,NA,NA,NA,NA,NA,0,NA,NA,NA,NA,NA,NA,NA,NA,NA,NA,NA,NA,NA,NA,NA,NA,NA,NA,NA,NA
74f25,deep,flow.Sequence,1_1_3_0,NA,NA,completion,9347.122,272908.4,272907.414,272924.002,282271.124,282272.3,2023-03-24T08:23:53Z,282287.738,"c(""distractor1"", ""distractor2"", ""distractor3"")",Gesundheit,salama,d,NA,NA,NA,NA,NA,NA,NA,NA,NA,NA,NA,NA,NA,NA,NA,NA,NA,NA,NA,NA,NA,NA,NA,NA,NA,NA
74f25,shallow,flow.Sequence,1_1_3_1,NA,NA,skipped,NA,282272.5,NA,NA,282271.124,282272.5,2023-03-24T08:23:53Z,282287.738,"c(""distractor1"", ""distractor2"", ""distractor3"")",Gesundheit,salama,d,NA,NA,NA,NA,NA,NA,NA,NA,NA,NA,NA,NA,NA,NA,NA,NA,NA,NA,NA,NA,NA,NA,NA,NA,NA,NA
74f25,task,flow.Sequence,1_1_3,NA,NA,completion,9347.122,272908.3,272907.414,272924.002,282271.124,282272.6,2023-03-24T08:23:53Z,282287.738,"c(""distractor1"", ""distractor2"", ""distractor3"")",Gesundheit,salama,d,NA,NA,NA,NA,NA,NA,NA,NA,NA,NA,NA,NA,NA,NA,NA,NA,NA,NA,NA,NA,NA,NA,NA,NA,NA,NA
74f25,deep,flow.Sequence,1_1_4_0,NA,NA,skipped,NA,282272.8,NA,NA,282271.124,282272.9,2023-03-24T08:23:53Z,282287.738,"c(""distractor1"", ""distractor2"", ""distractor3"")",Kritik,lawama,s,dereva,nafasi,mawazo,NA,NA,NA,NA,NA,NA,NA,NA,NA,NA,NA,NA,NA,NA,NA,NA,NA,NA,NA,NA,NA,NA,NA
74f25,Shallow Question,html.Page,1_1_4_1_0,NA,NA,form submission,2940.6619999999,282272.9,282271.124,282287.738,285228.4,285228.6,2023-03-24T08:23:56Z,285236.586,"c(""distractor1"", ""distractor2"", ""distractor3"")",Kritik,lawama,s,dereva,nafasi,mawazo,nafasi,NA,NA,NA,NA,NA,NA,NA,NA,NA,NA,NA,NA,NA,NA,NA,NA,NA,NA,NA,NA,NA,NA
74f25,"""Richtig""-Screen",canvas.Screen,1_1_4_1_1,NA,NA,skipped,NA,285230.6,NA,NA,285228.4,285230.6,2023-03-24T08:23:56Z,285236.586,"c(""distractor1"", ""distractor2"", ""distractor3"")",Kritik,lawama,s,dereva,nafasi,mawazo,NA,NA,NA,NA,NA,NA,NA,NA,NA,NA,NA,NA,NA,NA,NA,NA,NA,NA,NA,NA,NA,NA,NA
74f25,"""Falsch""-Screen",canvas.Screen,1_1_4_1_2,NA,NA,timeout,4998.411,285231.3,285220.183,285236.586,290218.329,290219.5,2023-03-24T08:24:01Z,290234.997,"c(""distractor1"", ""distractor2"", ""distractor3"")",Kritik,lawama,s,dereva,nafasi,mawazo,NA,NA,0,NA,NA,NA,NA,NA,NA,NA,NA,NA,NA,NA,NA,NA,NA,NA,NA,NA,NA,NA,NA
74f25,shallow,flow.Sequence,1_1_4_1,NA,NA,completion,7930.591,282272.9,282271.124,282287.738,290218.329,290219.9,2023-03-24T08:24:01Z,290234.997,"c(""distractor1"", ""distractor2"", ""distractor3"")",Kritik,lawama,s,dereva,nafasi,mawazo,NA,NA,NA,NA,NA,NA,NA,NA,NA,NA,NA,NA,NA,NA,NA,NA,NA,NA,NA,NA,NA,NA,NA
74f25,task,flow.Sequence,1_1_4,NA,NA,completion,7930.591,282272.7,282271.124,282287.738,290218.329,290220,2023-03-24T08:24:01Z,290234.997,"c(""distractor1"", ""distractor2"", ""distractor3"")",Kritik,lawama,s,dereva,nafasi,mawazo,NA,NA,NA,NA,NA,NA,NA,NA,NA,NA,NA,NA,NA,NA,NA,NA,NA,NA,NA,NA,NA,NA,NA
74f25,Deep Question,html.Page,1_1_5_0_0,NA,NA,form submission,5834.8030000003,290220.4,290218.329,290234.997,296069.8,296070.1,2023-03-24T08:24:07Z,296083.243,"c(""distractor1"", ""distractor2"", ""distractor3"")",Qualität,mtindo,d,NA,NA,NA,dfpwjr,NA,NA,NA,NA,NA,NA,NA,NA,NA,NA,NA,NA,NA,NA,NA,NA,NA,NA,NA,NA,NA,NA
74f25,"""Richtig""-Screen",canvas.Screen,1_1_5_0_1,NA,NA,skipped,NA,296072.4,NA,NA,296069.8,296072.6,2023-03-24T08:24:07Z,296083.243,"c(""distractor1"", ""distractor2"", ""distractor3"")",Qualität,mtindo,d,NA,NA,NA,NA,NA,NA,NA,NA,NA,NA,NA,NA,NA,NA,NA,NA,NA,NA,NA,NA,NA,NA,NA,NA,NA,NA
74f25,"""Falsch""-Screen",canvas.Screen,1_1_5_0_2,NA,NA,timeout,5000.286,296073.3,296066.482,296083.243,301064.825,301065.9,2023-03-24T08:24:12Z,301083.529,"c(""distractor1"", ""distractor2"", ""distractor3"")",Qualität,mtindo,d,NA,NA,NA,NA,NA,0,NA,NA,NA,NA,NA,NA,NA,NA,NA,NA,NA,NA,NA,NA,NA,NA,NA,NA,NA,NA
74f25,deep,flow.Sequence,1_1_5_0,NA,NA,completion,10829.828,290220.3,290218.329,290234.997,301064.825,301066.3,2023-03-24T08:24:12Z,301083.529,"c(""distractor1"", ""distractor2"", ""distractor3"")",Qualität,mtindo,d,NA,NA,NA,NA,NA,NA,NA,NA,NA,NA,NA,NA,NA,NA,NA,NA,NA,NA,NA,NA,NA,NA,NA,NA,NA,NA
74f25,shallow,flow.Sequence,1_1_5_1,NA,NA,skipped,NA,301066.4,NA,NA,301064.825,301066.6,2023-03-24T08:24:12Z,301083.529,"c(""distractor1"", ""distractor2"", ""distractor3"")",Qualität,mtindo,d,NA,NA,NA,NA,NA,NA,NA,NA,NA,NA,NA,NA,NA,NA,NA,NA,NA,NA,NA,NA,NA,NA,NA,NA,NA,NA
74f25,task,flow.Sequence,1_1_5,NA,NA,completion,10829.828,290220.2,290218.329,290234.997,301064.825,301066.8,2023-03-24T08:24:12Z,301083.529,"c(""distractor1"", ""distractor2"", ""distractor3"")",Qualität,mtindo,d,NA,NA,NA,NA,NA,NA,NA,NA,NA,NA,NA,NA,NA,NA,NA,NA,NA,NA,NA,NA,NA,NA,NA,NA,NA,NA
74f25,block,flow.Loop,1_1,NA,NA,completion,76174.638,224879.6,224869.242,224890.187,301064.825,301067.2,2023-03-24T08:24:12Z,301083.529,"c(""distractor1"", ""distractor2"", ""distractor3"")",NA,NA,NA,NA,NA,NA,NA,NA,NA,NA,NA,NA,NA,NA,NA,NA,NA,NA,NA,NA,NA,NA,NA,NA,NA,NA,NA,NA,NA
74f25,Practice,flow.Sequence,1,NA,NA,completion,89236.894,211820.2,211797.818,211827.931,301064.825,301067.3,2023-03-24T08:24:12Z,301083.529,NULL,NA,NA,NA,NA,NA,NA,NA,NA,NA,NA,NA,NA,NA,NA,NA,NA,NA,NA,NA,NA,NA,NA,NA,NA,NA,NA,NA,NA,NA
74f25,Experiment start,canvas.Screen,2,weiter,keypress(q),response,8550.8709999999,301067.5,301064.825,301083.529,309634.4,309636.3,2023-03-24T08:24:20Z,309694.889,NULL,NA,NA,NA,NA,NA,NA,NA,NA,NA,NA,NA,NA,NA,NA,NA,NA,NA,NA,NA,NA,NA,NA,NA,NA,NA,NA,NA,NA,NA
74f25,deep,flow.Sequence,3_0_0_0_0_0,NA,NA,skipped,NA,309701,NA,NA,309634.4,309701,2023-03-24T08:24:20Z,309694.889,NULL,Fenster,dirisha,s,walakini,tasawari,maarifa,NA,sdf,NA,0,NA,NA,NA,NA,NA,NA,NA,NA,NA,NA,NA,NA,NA,NA,NA,NA,NA,NA,NA
74f25,Shallow Question,html.Page,3_0_0_0_0_1_0,NA,NA,form submission,4115.4110000003,309701.1,309628.597,309694.889,313810.3,313810.5,2023-03-24T08:24:24Z,313837.966,NULL,Fenster,dirisha,s,walakini,tasawari,maarifa,walakini,NA,NA,0,NA,NA,NA,NA,NA,NA,NA,NA,NA,NA,NA,NA,NA,NA,NA,NA,NA,NA,NA
74f25,"""Richtig""-Screen",canvas.Screen,3_0_0_0_0_1_1,NA,NA,skipped,NA,313812.6,NA,NA,313810.3,313812.9,2023-03-24T08:24:24Z,313837.966,NULL,Fenster,dirisha,s,walakini,tasawari,maarifa,NA,sdf,NA,0,NA,NA,NA,NA,NA,NA,NA,NA,NA,NA,NA,NA,NA,NA,NA,NA,NA,NA,NA
74f25,"""Falsch""-Screen",canvas.Screen,3_0_0_0_0_1_2,NA,NA,timeout,5004.192,313813.3,313793.562,313837.966,318825.496,318826.7,2023-03-24T08:24:29Z,318842.158,NULL,Fenster,dirisha,s,walakini,tasawari,maarifa,NA,sdf,0,0,NA,NA,NA,NA,NA,NA,NA,NA,NA,NA,NA,NA,NA,NA,NA,NA,NA,NA,NA
74f25,shallow,flow.Sequence,3_0_0_0_0_1,NA,NA,completion,9130.607,309701.1,309628.597,309694.889,318825.496,318827.2,2023-03-24T08:24:29Z,318842.158,NULL,Fenster,dirisha,s,walakini,tasawari,maarifa,NA,sdf,NA,0,NA,NA,NA,NA,NA,NA,NA,NA,NA,NA,NA,NA,NA,NA,NA,NA,NA,NA,NA
74f25,task,flow.Sequence,3_0_0_0_0,NA,NA,completion,9130.607,309700.9,309628.597,309694.889,318825.496,318827.4,2023-03-24T08:24:29Z,318842.158,NULL,Fenster,dirisha,s,walakini,tasawari,maarifa,NA,sdf,NA,0,NA,NA,NA,NA,NA,NA,NA,NA,NA,NA,NA,NA,NA,NA,NA,NA,NA,NA,NA
74f25,Deep Question,html.Page,3_0_0_0_1_0_0,NA,NA,form submission,3983.9420000001,318827.6,318825.496,318842.158,322826.1,322826.4,2023-03-24T08:24:33Z,322840.823,NULL,Vorsorge,tahadhari,d,NA,NA,NA,wert,NA,NA,0,NA,NA,NA,NA,NA,NA,NA,NA,NA,NA,NA,NA,NA,NA,NA,NA,NA,NA,NA
74f25,"""Richtig""-Screen",canvas.Screen,3_0_0_0_1_0_1,NA,NA,skipped,NA,322828.7,NA,NA,322826.1,322828.8,2023-03-24T08:24:33Z,322840.823,NULL,Vorsorge,tahadhari,d,NA,NA,NA,NA,sdf,NA,0,NA,NA,NA,NA,NA,NA,NA,NA,NA,NA,NA,NA,NA,NA,NA,NA,NA,NA,NA
74f25,"""Falsch""-Screen",canvas.Screen,3_0_0_0_1_0_2,NA,NA,timeout,4998.298,322829.5,322824.158,322840.823,327822.453,327823.4,2023-03-24T08:24:38Z,327839.121,NULL,Vorsorge,tahadhari,d,NA,NA,NA,NA,sdf,0,0,NA,NA,NA,NA,NA,NA,NA,NA,NA,NA,NA,NA,NA,NA,NA,NA,NA,NA,NA
74f25,deep,flow.Sequence,3_0_0_0_1_0,NA,NA,completion,8980.295,318827.5,318825.496,318842.158,327822.453,327823.6,2023-03-24T08:24:38Z,327839.121,NULL,Vorsorge,tahadhari,d,NA,NA,NA,NA,sdf,NA,0,NA,NA,NA,NA,NA,NA,NA,NA,NA,NA,NA,NA,NA,NA,NA,NA,NA,NA,NA
74f25,shallow,flow.Sequence,3_0_0_0_1_1,NA,NA,skipped,NA,327823.8,NA,NA,327822.453,327824.1,2023-03-24T08:24:38Z,327839.121,NULL,Vorsorge,tahadhari,d,NA,NA,NA,NA,sdf,NA,0,NA,NA,NA,NA,NA,NA,NA,NA,NA,NA,NA,NA,NA,NA,NA,NA,NA,NA,NA
74f25,task,flow.Sequence,3_0_0_0_1,NA,NA,completion,8980.295,318827.4,318825.496,318842.158,327822.453,327824.3,2023-03-24T08:24:38Z,327839.121,NULL,Vorsorge,tahadhari,d,NA,NA,NA,NA,sdf,NA,0,NA,NA,NA,NA,NA,NA,NA,NA,NA,NA,NA,NA,NA,NA,NA,NA,NA,NA,NA
74f25,Deep Question,html.Page,3_0_0_0_2_0_0,NA,NA,form submission,4033.0790000002,327824.4,327822.453,327839.121,331872.2,331872.5,2023-03-24T08:24:42Z,331887.639,NULL,Tester,wanaojaribu,d,NA,NA,NA,trt,NA,NA,0,NA,NA,NA,NA,NA,NA,NA,NA,NA,NA,NA,NA,NA,NA,NA,NA,NA,NA,NA
74f25,"""Richtig""-Screen",canvas.Screen,3_0_0_0_2_0_1,NA,NA,skipped,NA,331874.8,NA,NA,331872.2,331875,2023-03-24T08:24:42Z,331887.639,NULL,Tester,wanaojaribu,d,NA,NA,NA,NA,sdf,NA,0,NA,NA,NA,NA,NA,NA,NA,NA,NA,NA,NA,NA,NA,NA,NA,NA,NA,NA,NA
74f25,"""Falsch""-Screen",canvas.Screen,3_0_0_0_2_0_2,NA,NA,timeout,4998.425,331875.5,331871.017,331887.639,336869.389,336870.3,2023-03-24T08:24:47Z,336886.064,NULL,Tester,wanaojaribu,d,NA,NA,NA,NA,sdf,0,0,NA,NA,NA,NA,NA,NA,NA,NA,NA,NA,NA,NA,NA,NA,NA,NA,NA,NA,NA
74f25,deep,flow.Sequence,3_0_0_0_2_0,NA,NA,completion,9030.268,327824.4,327822.453,327839.121,336869.389,336870.6,2023-03-24T08:24:47Z,336886.064,NULL,Tester,wanaojaribu,d,NA,NA,NA,NA,sdf,NA,0,NA,NA,NA,NA,NA,NA,NA,NA,NA,NA,NA,NA,NA,NA,NA,NA,NA,NA,NA
74f25,shallow,flow.Sequence,3_0_0_0_2_1,NA,NA,skipped,NA,336870.7,NA,NA,336869.389,336870.8,2023-03-24T08:24:47Z,336886.064,NULL,Tester,wanaojaribu,d,NA,NA,NA,NA,sdf,NA,0,NA,NA,NA,NA,NA,NA,NA,NA,NA,NA,NA,NA,NA,NA,NA,NA,NA,NA,NA
74f25,task,flow.Sequence,3_0_0_0_2,NA,NA,completion,9030.268,327824.4,327822.453,327839.121,336869.389,336871,2023-03-24T08:24:47Z,336886.064,NULL,Tester,wanaojaribu,d,NA,NA,NA,NA,sdf,NA,0,NA,NA,NA,NA,NA,NA,NA,NA,NA,NA,NA,NA,NA,NA,NA,NA,NA,NA,NA
74f25,Deep Question,html.Page,3_0_0_0_3_0_0,NA,NA,form submission,2796.436,336871.3,336869.389,336886.064,339682.5,339682.7,2023-03-24T08:24:50Z,339684.821,NULL,Konkurrent,mshindani,d,NA,NA,NA,zuizui,NA,NA,0,NA,NA,NA,NA,NA,NA,NA,NA,NA,NA,NA,NA,NA,NA,NA,NA,NA,NA,NA
74f25,"""Richtig""-Screen",canvas.Screen,3_0_0_0_3_0_1,NA,NA,skipped,NA,339684.8,NA,NA,339682.5,339684.9,2023-03-24T08:24:50Z,339684.821,NULL,Konkurrent,mshindani,d,NA,NA,NA,NA,sdf,NA,0,NA,NA,NA,NA,NA,NA,NA,NA,NA,NA,NA,NA,NA,NA,NA,NA,NA,NA,NA
74f25,"""Falsch""-Screen",canvas.Screen,3_0_0_0_3_0_2,NA,NA,timeout,5001.397,339685.7,339668.392,339684.821,344666.768,344667.7,2023-03-24T08:24:55Z,344686.218,NULL,Konkurrent,mshindani,d,NA,NA,NA,NA,sdf,0,0,NA,NA,NA,NA,NA,NA,NA,NA,NA,NA,NA,NA,NA,NA,NA,NA,NA,NA,NA
74f25,deep,flow.Sequence,3_0_0_0_3_0,NA,NA,completion,7780.704,336871.2,336869.389,336886.064,344666.768,344667.9,2023-03-24T08:24:55Z,344686.218,NULL,Konkurrent,mshindani,d,NA,NA,NA,NA,sdf,NA,0,NA,NA,NA,NA,NA,NA,NA,NA,NA,NA,NA,NA,NA,NA,NA,NA,NA,NA,NA
74f25,shallow,flow.Sequence,3_0_0_0_3_1,NA,NA,skipped,NA,344668.1,NA,NA,344666.768,344668.3,2023-03-24T08:24:55Z,344686.218,NULL,Konkurrent,mshindani,d,NA,NA,NA,NA,sdf,NA,0,NA,NA,NA,NA,NA,NA,NA,NA,NA,NA,NA,NA,NA,NA,NA,NA,NA,NA,NA
74f25,task,flow.Sequence,3_0_0_0_3,NA,NA,completion,7780.704,336871.2,336869.389,336886.064,344666.768,344668.4,2023-03-24T08:24:55Z,344686.218,NULL,Konkurrent,mshindani,d,NA,NA,NA,NA,sdf,NA,0,NA,NA,NA,NA,NA,NA,NA,NA,NA,NA,NA,NA,NA,NA,NA,NA,NA,NA,NA
74f25,deep,flow.Sequence,3_0_0_0_4_0,NA,NA,skipped,NA,344668.6,NA,NA,344666.768,344668.6,2023-03-24T08:24:55Z,344686.218,NULL,Zuwachs,nyongeza,s,matilaba,udhibiti,hudhurio,NA,sdf,NA,0,NA,NA,NA,NA,NA,NA,NA,NA,NA,NA,NA,NA,NA,NA,NA,NA,NA,NA,NA
74f25,Shallow Question,html.Page,3_0_0_0_4_1_0,NA,NA,form submission,5125.782,344668.7,344666.768,344686.218,349812,349812.2,2023-03-24T08:25:00Z,349814.743,NULL,Zuwachs,nyongeza,s,matilaba,udhibiti,hudhurio,hudhurio,NA,NA,0,NA,NA,NA,NA,NA,NA,NA,NA,NA,NA,NA,NA,NA,NA,NA,NA,NA,NA,NA
74f25,"""Richtig""-Screen",canvas.Screen,3_0_0_0_4_1_1,NA,NA,skipped,NA,349814.5,NA,NA,349812,349814.6,2023-03-24T08:25:00Z,349814.743,NULL,Zuwachs,nyongeza,s,matilaba,udhibiti,hudhurio,NA,sdf,NA,0,NA,NA,NA,NA,NA,NA,NA,NA,NA,NA,NA,NA,NA,NA,NA,NA,NA,NA,NA
74f25,"""Falsch""-Screen",canvas.Screen,3_0_0_0_4_1_2,NA,NA,timeout,4998.616,349815.3,349798.301,349814.743,354796.556,354797.4,2023-03-24T08:25:05Z,354813.359,NULL,Zuwachs,nyongeza,s,matilaba,udhibiti,hudhurio,NA,sdf,0,0,NA,NA,NA,NA,NA,NA,NA,NA,NA,NA,NA,NA,NA,NA,NA,NA,NA,NA,NA
74f25,shallow,flow.Sequence,3_0_0_0_4_1,NA,NA,completion,10110.338,344668.7,344666.768,344686.218,354796.556,354797.7,2023-03-24T08:25:05Z,354813.359,NULL,Zuwachs,nyongeza,s,matilaba,udhibiti,hudhurio,NA,sdf,NA,0,NA,NA,NA,NA,NA,NA,NA,NA,NA,NA,NA,NA,NA,NA,NA,NA,NA,NA,NA
74f25,task,flow.Sequence,3_0_0_0_4,NA,NA,completion,10110.338,344668.5,344666.768,344686.218,354796.556,354797.8,2023-03-24T08:25:05Z,354813.359,NULL,Zuwachs,nyongeza,s,matilaba,udhibiti,hudhurio,NA,sdf,NA,0,NA,NA,NA,NA,NA,NA,NA,NA,NA,NA,NA,NA,NA,NA,NA,NA,NA,NA,NA
74f25,deep,flow.Sequence,3_0_0_0_5_0,NA,NA,skipped,NA,354797.9,NA,NA,354796.556,354798,2023-03-24T08:25:05Z,354813.359,NULL,Spionage,upelelezi,s,maslahi,utokazo,magangao,NA,sdf,NA,0,NA,NA,NA,NA,NA,NA,NA,NA,NA,NA,NA,NA,NA,NA,NA,NA,NA,NA,NA
74f25,Shallow Question,html.Page,3_0_0_0_5_1_0,NA,NA,form submission,4978.7410000001,354798.1,354796.556,354813.359,359792.1,359792.2,2023-03-24T08:25:10Z,359794.711,NULL,Spionage,upelelezi,s,maslahi,utokazo,magangao,maslahi,NA,NA,0,NA,NA,NA,NA,NA,NA,NA,NA,NA,NA,NA,NA,NA,NA,NA,NA,NA,NA,NA
74f25,"""Richtig""-Screen",canvas.Screen,3_0_0_0_5_1_1,NA,NA,skipped,NA,359794.3,NA,NA,359792.1,359794.4,2023-03-24T08:25:10Z,359794.711,NULL,Spionage,upelelezi,s,maslahi,utokazo,magangao,NA,sdf,NA,0,NA,NA,NA,NA,NA,NA,NA,NA,NA,NA,NA,NA,NA,NA,NA,NA,NA,NA,NA
74f25,"""Falsch""-Screen",canvas.Screen,3_0_0_0_5_1_2,NA,NA,timeout,4998.576,359794.9,359778.308,359794.711,364776.532,364778.5,2023-03-24T08:25:15Z,364793.287,NULL,Spionage,upelelezi,s,maslahi,utokazo,magangao,NA,sdf,0,0,NA,NA,NA,NA,NA,NA,NA,NA,NA,NA,NA,NA,NA,NA,NA,NA,NA,NA,NA
74f25,shallow,flow.Sequence,3_0_0_0_5_1,NA,NA,completion,9963.173,354798.1,354796.556,354813.359,364776.532,364778.7,2023-03-24T08:25:15Z,364793.287,NULL,Spionage,upelelezi,s,maslahi,utokazo,magangao,NA,sdf,NA,0,NA,NA,NA,NA,NA,NA,NA,NA,NA,NA,NA,NA,NA,NA,NA,NA,NA,NA,NA
74f25,task,flow.Sequence,3_0_0_0_5,NA,NA,completion,9963.173,354797.9,354796.556,354813.359,364776.532,364778.9,2023-03-24T08:25:15Z,364793.287,NULL,Spionage,upelelezi,s,maslahi,utokazo,magangao,NA,sdf,NA,0,NA,NA,NA,NA,NA,NA,NA,NA,NA,NA,NA,NA,NA,NA,NA,NA,NA,NA,NA
74f25,deep,flow.Sequence,3_0_0_0_6_0,NA,NA,skipped,NA,364779.1,NA,NA,364776.532,364779.2,2023-03-24T08:25:15Z,364793.287,NULL,Symbol,kielezo,s,kinyume,nderemo,utayari,NA,sdf,NA,0,NA,NA,NA,NA,NA,NA,NA,NA,NA,NA,NA,NA,NA,NA,NA,NA,NA,NA,NA
74f25,Shallow Question,html.Page,3_0_0_0_6_1_0,NA,NA,form submission,5185.213,364779.2,364776.532,364793.287,369978.5,369978.7,2023-03-24T08:25:21Z,369991.413,NULL,Symbol,kielezo,s,kinyume,nderemo,utayari,kielezo,NA,NA,0,NA,NA,NA,NA,NA,NA,NA,NA,NA,NA,NA,NA,NA,NA,NA,NA,NA,NA,NA
74f25,"""Richtig""-Screen",canvas.Screen,3_0_0_0_6_1_1,NA,NA,timeout,4998.356,369980.7,369974.956,369991.413,374973.094,374973.9,2023-03-24T08:25:26Z,374989.769,NULL,Symbol,kielezo,s,kinyume,nderemo,utayari,NA,sdf,1,0,NA,NA,NA,NA,NA,NA,NA,NA,NA,NA,NA,NA,NA,NA,NA,NA,NA,NA,NA
74f25,"""Falsch""-Screen",canvas.Screen,3_0_0_0_6_1_2,NA,NA,skipped,NA,374977.2,NA,NA,374973.094,374977.4,2023-03-24T08:25:26Z,374989.769,NULL,Symbol,kielezo,s,kinyume,nderemo,utayari,NA,sdf,NA,0,NA,NA,NA,NA,NA,NA,NA,NA,NA,NA,NA,NA,NA,NA,NA,NA,NA,NA,NA
74f25,shallow,flow.Sequence,3_0_0_0_6_1,NA,NA,completion,10179.807,364779.2,364776.532,364793.287,374973.094,374977.5,2023-03-24T08:25:26Z,374989.769,NULL,Symbol,kielezo,s,kinyume,nderemo,utayari,NA,sdf,NA,0,NA,NA,NA,NA,NA,NA,NA,NA,NA,NA,NA,NA,NA,NA,NA,NA,NA,NA,NA
74f25,task,flow.Sequence,3_0_0_0_6,NA,NA,completion,10179.807,364779,364776.532,364793.287,374973.094,374977.7,2023-03-24T08:25:26Z,374989.769,NULL,Symbol,kielezo,s,kinyume,nderemo,utayari,NA,sdf,NA,0,NA,NA,NA,NA,NA,NA,NA,NA,NA,NA,NA,NA,NA,NA,NA,NA,NA,NA,NA
74f25,Deep Question,html.Page,3_0_0_0_7_0_0,NA,NA,form submission,3654.6309999999,374977.8,374973.094,374989.769,378644.4,378644.7,2023-03-24T08:25:29Z,378655.402,NULL,Schüler,mwanafunzi,d,NA,NA,NA,zuzuzu,NA,NA,0,NA,NA,NA,NA,NA,NA,NA,NA,NA,NA,NA,NA,NA,NA,NA,NA,NA,NA,NA
74f25,"""Richtig""-Screen",canvas.Screen,3_0_0_0_7_0_1,NA,NA,skipped,NA,378646.8,NA,NA,378644.4,378646.9,2023-03-24T08:25:29Z,378655.402,NULL,Schüler,mwanafunzi,d,NA,NA,NA,NA,sdf,NA,0,NA,NA,NA,NA,NA,NA,NA,NA,NA,NA,NA,NA,NA,NA,NA,NA,NA,NA,NA
74f25,"""Falsch""-Screen",canvas.Screen,3_0_0_0_7_0_2,NA,NA,timeout,4998.225,378647.5,378638.625,378655.402,383636.955,383638,2023-03-24T08:25:34Z,383653.627,NULL,Schüler,mwanafunzi,d,NA,NA,NA,NA,sdf,0,0,NA,NA,NA,NA,NA,NA,NA,NA,NA,NA,NA,NA,NA,NA,NA,NA,NA,NA,NA
74f25,deep,flow.Sequence,3_0_0_0_7_0,NA,NA,completion,8647.186,374977.8,374973.094,374989.769,383636.955,383638.1,2023-03-24T08:25:34Z,383653.627,NULL,Schüler,mwanafunzi,d,NA,NA,NA,NA,sdf,NA,0,NA,NA,NA,NA,NA,NA,NA,NA,NA,NA,NA,NA,NA,NA,NA,NA,NA,NA,NA
74f25,shallow,flow.Sequence,3_0_0_0_7_1,NA,NA,skipped,NA,383638.3,NA,NA,383636.955,383638.4,2023-03-24T08:25:34Z,383653.627,NULL,Schüler,mwanafunzi,d,NA,NA,NA,NA,sdf,NA,0,NA,NA,NA,NA,NA,NA,NA,NA,NA,NA,NA,NA,NA,NA,NA,NA,NA,NA,NA
74f25,task,flow.Sequence,3_0_0_0_7,NA,NA,completion,8647.186,374977.8,374973.094,374989.769,383636.955,383638.5,2023-03-24T08:25:34Z,383653.627,NULL,Schüler,mwanafunzi,d,NA,NA,NA,NA,sdf,NA,0,NA,NA,NA,NA,NA,NA,NA,NA,NA,NA,NA,NA,NA,NA,NA,NA,NA,NA,NA
74f25,block,flow.Loop,3_0_0_0,NA,NA,completion,73942.066,309700.9,309628.597,309694.889,383636.955,383638.9,2023-03-24T08:25:34Z,383653.627,NULL,NA,NA,NA,NA,NA,NA,NA,sdf,NA,0,NA,NA,NA,NA,NA,NA,NA,NA,NA,NA,NA,NA,NA,NA,NA,NA,NA,NA,NA
74f25,weiter,canvas.Screen,3_0_0_1,sdf,keypress(Space),response,1692.5730000002,383639,383636.955,383653.627,385346.2,385347.9,2023-03-24T08:25:36Z,385374.66,NULL,NA,NA,NA,NA,NA,NA,NA,sdf,NA,0,NA,NA,NA,NA,NA,NA,NA,NA,NA,NA,NA,NA,NA,NA,NA,NA,NA,NA,NA
74f25,check continue,flow.Sequence,3_0_0,NA,NA,completion,75651.311,309700.8,309628.597,309694.889,385346.2,385348.2,2023-03-24T08:25:36Z,385374.66,NULL,NA,NA,NA,NA,NA,NA,NA,sdf,NA,0,NA,NA,NA,NA,NA,NA,NA,NA,NA,NA,NA,NA,NA,NA,NA,NA,NA,NA,NA
74f25,deep,flow.Sequence,3_0_1_0_0_0,NA,NA,skipped,NA,385382.6,NA,NA,385346.2,385382.7,2023-03-24T08:25:36Z,385374.66,NULL,Spionage,upelelezi,s,maslahi,utokazo,magangao,NA,sdfdsf,NA,1,NA,NA,NA,NA,NA,NA,NA,NA,NA,NA,NA,NA,NA,NA,NA,NA,NA,NA,NA
74f25,Shallow Question,html.Page,3_0_1_0_0_1_0,NA,NA,form submission,6781.7399999999,385382.7,385336.086,385374.66,392156.4,392156.5,2023-03-24T08:25:43Z,392167.431,NULL,Spionage,upelelezi,s,maslahi,utokazo,magangao,maslahi,NA,NA,1,NA,NA,NA,NA,NA,NA,NA,NA,NA,NA,NA,NA,NA,NA,NA,NA,NA,NA,NA
74f25,"""Richtig""-Screen",canvas.Screen,3_0_1_0_0_1_1,NA,NA,skipped,NA,392158.6,NA,NA,392156.4,392158.7,2023-03-24T08:25:43Z,392167.431,NULL,Spionage,upelelezi,s,maslahi,utokazo,magangao,NA,sdfdsf,NA,1,NA,NA,NA,NA,NA,NA,NA,NA,NA,NA,NA,NA,NA,NA,NA,NA,NA,NA,NA
74f25,"""Falsch""-Screen",canvas.Screen,3_0_1_0_0_1_2,NA,NA,timeout,4998.132,392159.2,392150.788,392167.431,397148.767,397150.4,2023-03-24T08:25:48Z,397165.563,NULL,Spionage,upelelezi,s,maslahi,utokazo,magangao,NA,sdfdsf,0,1,NA,NA,NA,NA,NA,NA,NA,NA,NA,NA,NA,NA,NA,NA,NA,NA,NA,NA,NA
74f25,shallow,flow.Sequence,3_0_1_0_0_1,NA,NA,completion,11774.107,385382.7,385336.086,385374.66,397148.767,397151.1,2023-03-24T08:25:48Z,397165.563,NULL,Spionage,upelelezi,s,maslahi,utokazo,magangao,NA,sdfdsf,NA,1,NA,NA,NA,NA,NA,NA,NA,NA,NA,NA,NA,NA,NA,NA,NA,NA,NA,NA,NA
74f25,task,flow.Sequence,3_0_1_0_0,NA,NA,completion,11774.107,385382.6,385336.086,385374.66,397148.767,397151.4,2023-03-24T08:25:48Z,397165.563,NULL,Spionage,upelelezi,s,maslahi,utokazo,magangao,NA,sdfdsf,NA,1,NA,NA,NA,NA,NA,NA,NA,NA,NA,NA,NA,NA,NA,NA,NA,NA,NA,NA,NA
74f25,Deep Question,html.Page,3_0_1_0_1_0_0,NA,NA,form submission,10170.837,397151.7,397148.767,397165.563,407336.4,407336.6,2023-03-24T08:25:58Z,407345.384,NULL,Schüler,mwanafunzi,d,NA,NA,NA,mwanafunzi,NA,NA,1,NA,NA,NA,NA,NA,NA,NA,NA,NA,NA,NA,NA,NA,NA,NA,NA,NA,NA,NA
74f25,"""Richtig""-Screen",canvas.Screen,3_0_1_0_1_0_1,NA,NA,timeout,4998.298,407338.9,407328.968,407345.384,412327.272,412328.2,2023-03-24T08:26:03Z,412343.682,NULL,Schüler,mwanafunzi,d,NA,NA,NA,NA,sdfdsf,1,1,NA,NA,NA,NA,NA,NA,NA,NA,NA,NA,NA,NA,NA,NA,NA,NA,NA,NA,NA
74f25,"""Falsch""-Screen",canvas.Screen,3_0_1_0_1_0_2,NA,NA,skipped,NA,412332.1,NA,NA,412327.272,412332.4,2023-03-24T08:26:03Z,412343.682,NULL,Schüler,mwanafunzi,d,NA,NA,NA,NA,sdfdsf,NA,1,NA,NA,NA,NA,NA,NA,NA,NA,NA,NA,NA,NA,NA,NA,NA,NA,NA,NA,NA
74f25,deep,flow.Sequence,3_0_1_0_1_0,NA,NA,completion,15161.709,397151.7,397148.767,397165.563,412327.272,412332.6,2023-03-24T08:26:03Z,412343.682,NULL,Schüler,mwanafunzi,d,NA,NA,NA,NA,sdfdsf,NA,1,NA,NA,NA,NA,NA,NA,NA,NA,NA,NA,NA,NA,NA,NA,NA,NA,NA,NA,NA
74f25,shallow,flow.Sequence,3_0_1_0_1_1,NA,NA,skipped,NA,412332.7,NA,NA,412327.272,412332.9,2023-03-24T08:26:03Z,412343.682,NULL,Schüler,mwanafunzi,d,NA,NA,NA,NA,sdfdsf,NA,1,NA,NA,NA,NA,NA,NA,NA,NA,NA,NA,NA,NA,NA,NA,NA,NA,NA,NA,NA
74f25,task,flow.Sequence,3_0_1_0_1,NA,NA,completion,15161.709,397151.6,397148.767,397165.563,412327.272,412332.9,2023-03-24T08:26:03Z,412343.682,NULL,Schüler,mwanafunzi,d,NA,NA,NA,NA,sdfdsf,NA,1,NA,NA,NA,NA,NA,NA,NA,NA,NA,NA,NA,NA,NA,NA,NA,NA,NA,NA,NA
74f25,deep,flow.Sequence,3_0_1_0_2_0,NA,NA,skipped,NA,412333.1,NA,NA,412327.272,412333.1,2023-03-24T08:26:03Z,412343.682,NULL,Fenster,dirisha,s,walakini,tasawari,maarifa,NA,sdfdsf,NA,1,NA,NA,NA,NA,NA,NA,NA,NA,NA,NA,NA,NA,NA,NA,NA,NA,NA,NA,NA
74f25,Shallow Question,html.Page,3_0_1_0_2_1_0,NA,NA,form submission,4820.4180000001,412333.2,412327.272,412343.682,417164.1,417164.3,2023-03-24T08:26:08Z,417175.603,NULL,Fenster,dirisha,s,walakini,tasawari,maarifa,dirisha,NA,NA,1,NA,NA,NA,NA,NA,NA,NA,NA,NA,NA,NA,NA,NA,NA,NA,NA,NA,NA,NA
74f25,"""Richtig""-Screen",canvas.Screen,3_0_1_0_2_1_1,NA,NA,timeout,4998.342,417166.2,417158.884,417175.603,422157.197,422158,2023-03-24T08:26:13Z,422173.945,NULL,Fenster,dirisha,s,walakini,tasawari,maarifa,NA,sdfdsf,1,1,NA,NA,NA,NA,NA,NA,NA,NA,NA,NA,NA,NA,NA,NA,NA,NA,NA,NA,NA
74f25,"""Falsch""-Screen",canvas.Screen,3_0_1_0_2_1_2,NA,NA,skipped,NA,422161.7,NA,NA,422157.197,422162,2023-03-24T08:26:13Z,422173.945,NULL,Fenster,dirisha,s,walakini,tasawari,maarifa,NA,sdfdsf,NA,1,NA,NA,NA,NA,NA,NA,NA,NA,NA,NA,NA,NA,NA,NA,NA,NA,NA,NA,NA
74f25,shallow,flow.Sequence,3_0_1_0_2_1,NA,NA,completion,9813.515,412333.2,412327.272,412343.682,422157.197,422162.3,2023-03-24T08:26:13Z,422173.945,NULL,Fenster,dirisha,s,walakini,tasawari,maarifa,NA,sdfdsf,NA,1,NA,NA,NA,NA,NA,NA,NA,NA,NA,NA,NA,NA,NA,NA,NA,NA,NA,NA,NA
74f25,task,flow.Sequence,3_0_1_0_2,NA,NA,completion,9813.515,412333,412327.272,412343.682,422157.197,422162.4,2023-03-24T08:26:13Z,422173.945,NULL,Fenster,dirisha,s,walakini,tasawari,maarifa,NA,sdfdsf,NA,1,NA,NA,NA,NA,NA,NA,NA,NA,NA,NA,NA,NA,NA,NA,NA,NA,NA,NA,NA
74f25,Deep Question,html.Page,3_0_1_0_3_0_0,NA,NA,form submission,4104.4549999999,422162.5,422157.197,422173.945,426278.4,426278.6,2023-03-24T08:26:17Z,426289.368,NULL,Vorsorge,tahadhari,d,NA,NA,NA,rtert,NA,NA,1,NA,NA,NA,NA,NA,NA,NA,NA,NA,NA,NA,NA,NA,NA,NA,NA,NA,NA,NA
74f25,"""Richtig""-Screen",canvas.Screen,3_0_1_0_3_0_1,NA,NA,skipped,NA,426280.5,NA,NA,426278.4,426280.7,2023-03-24T08:26:17Z,426289.368,NULL,Vorsorge,tahadhari,d,NA,NA,NA,NA,sdfdsf,NA,1,NA,NA,NA,NA,NA,NA,NA,NA,NA,NA,NA,NA,NA,NA,NA,NA,NA,NA,NA
74f25,"""Falsch""-Screen",canvas.Screen,3_0_1_0_3_0_2,NA,NA,timeout,4998.08,426281.3,426272.596,426289.368,431270.709,431271.6,2023-03-24T08:26:22Z,431287.448,NULL,Vorsorge,tahadhari,d,NA,NA,NA,NA,sdfdsf,0,1,NA,NA,NA,NA,NA,NA,NA,NA,NA,NA,NA,NA,NA,NA,NA,NA,NA,NA,NA
74f25,deep,flow.Sequence,3_0_1_0_3_0,NA,NA,completion,9096.764,422162.5,422157.197,422173.945,431270.709,431272,2023-03-24T08:26:22Z,431287.448,NULL,Vorsorge,tahadhari,d,NA,NA,NA,NA,sdfdsf,NA,1,NA,NA,NA,NA,NA,NA,NA,NA,NA,NA,NA,NA,NA,NA,NA,NA,NA,NA,NA
74f25,shallow,flow.Sequence,3_0_1_0_3_1,NA,NA,skipped,NA,431272,NA,NA,431270.709,431272.2,2023-03-24T08:26:22Z,431287.448,NULL,Vorsorge,tahadhari,d,NA,NA,NA,NA,sdfdsf,NA,1,NA,NA,NA,NA,NA,NA,NA,NA,NA,NA,NA,NA,NA,NA,NA,NA,NA,NA,NA
74f25,task,flow.Sequence,3_0_1_0_3,NA,NA,completion,9096.764,422162.4,422157.197,422173.945,431270.709,431272.3,2023-03-24T08:26:22Z,431287.448,NULL,Vorsorge,tahadhari,d,NA,NA,NA,NA,sdfdsf,NA,1,NA,NA,NA,NA,NA,NA,NA,NA,NA,NA,NA,NA,NA,NA,NA,NA,NA,NA,NA
74f25,deep,flow.Sequence,3_0_1_0_4_0,NA,NA,skipped,NA,431272.4,NA,NA,431270.709,431272.5,2023-03-24T08:26:22Z,431287.448,NULL,Symbol,kielezo,s,kinyume,nderemo,utayari,NA,sdfdsf,NA,1,NA,NA,NA,NA,NA,NA,NA,NA,NA,NA,NA,NA,NA,NA,NA,NA,NA,NA,NA
74f25,Shallow Question,html.Page,3_0_1_0_4_1_0,NA,NA,form submission,5810.6520000001,431272.5,431270.709,431287.448,437098.1,437098.4,2023-03-24T08:26:28Z,437102.029,NULL,Symbol,kielezo,s,kinyume,nderemo,utayari,kielezo,NA,NA,1,NA,NA,NA,NA,NA,NA,NA,NA,NA,NA,NA,NA,NA,NA,NA,NA,NA,NA,NA
74f25,"""Richtig""-Screen",canvas.Screen,3_0_1_0_4_1_1,NA,NA,timeout,4998.264,437100.4,437085.592,437102.029,442084.104,442086,2023-03-24T08:26:33Z,442100.293,NULL,Symbol,kielezo,s,kinyume,nderemo,utayari,NA,sdfdsf,1,1,NA,NA,NA,NA,NA,NA,NA,NA,NA,NA,NA,NA,NA,NA,NA,NA,NA,NA,NA
74f25,"""Falsch""-Screen",canvas.Screen,3_0_1_0_4_1_2,NA,NA,skipped,NA,442090.5,NA,NA,442084.104,442090.8,2023-03-24T08:26:33Z,442100.293,NULL,Symbol,kielezo,s,kinyume,nderemo,utayari,NA,sdfdsf,NA,1,NA,NA,NA,NA,NA,NA,NA,NA,NA,NA,NA,NA,NA,NA,NA,NA,NA,NA,NA
74f25,shallow,flow.Sequence,3_0_1_0_4_1,NA,NA,completion,10796.656,431272.5,431270.709,431287.448,442084.104,442091,2023-03-24T08:26:33Z,442100.293,NULL,Symbol,kielezo,s,kinyume,nderemo,utayari,NA,sdfdsf,NA,1,NA,NA,NA,NA,NA,NA,NA,NA,NA,NA,NA,NA,NA,NA,NA,NA,NA,NA,NA
74f25,task,flow.Sequence,3_0_1_0_4,NA,NA,completion,10796.656,431272.3,431270.709,431287.448,442084.104,442091.2,2023-03-24T08:26:33Z,442100.293,NULL,Symbol,kielezo,s,kinyume,nderemo,utayari,NA,sdfdsf,NA,1,NA,NA,NA,NA,NA,NA,NA,NA,NA,NA,NA,NA,NA,NA,NA,NA,NA,NA,NA
74f25,Deep Question,html.Page,3_0_1_0_5_0_0,NA,NA,form submission,3574.207,442091.4,442084.104,442100.293,445674.5,445674.7,2023-03-24T08:26:36Z,445682.691,NULL,Tester,wanaojaribu,d,NA,NA,NA,rter,NA,NA,1,NA,NA,NA,NA,NA,NA,NA,NA,NA,NA,NA,NA,NA,NA,NA,NA,NA,NA,NA
74f25,"""Richtig""-Screen",canvas.Screen,3_0_1_0_5_0_1,NA,NA,skipped,NA,445676.8,NA,NA,445674.5,445676.9,2023-03-24T08:26:36Z,445682.691,NULL,Tester,wanaojaribu,d,NA,NA,NA,NA,sdfdsf,NA,1,NA,NA,NA,NA,NA,NA,NA,NA,NA,NA,NA,NA,NA,NA,NA,NA,NA,NA,NA
74f25,"""Falsch""-Screen",canvas.Screen,3_0_1_0_5_0_2,NA,NA,timeout,4998.311,445677.6,445666.062,445682.691,450664.319,450665.1,2023-03-24T08:26:41Z,450681.002,NULL,Tester,wanaojaribu,d,NA,NA,NA,NA,sdfdsf,0,1,NA,NA,NA,NA,NA,NA,NA,NA,NA,NA,NA,NA,NA,NA,NA,NA,NA,NA,NA
74f25,deep,flow.Sequence,3_0_1_0_5_0,NA,NA,completion,8564.026,442091.3,442084.104,442100.293,450664.319,450665.4,2023-03-24T08:26:41Z,450681.002,NULL,Tester,wanaojaribu,d,NA,NA,NA,NA,sdfdsf,NA,1,NA,NA,NA,NA,NA,NA,NA,NA,NA,NA,NA,NA,NA,NA,NA,NA,NA,NA,NA
74f25,shallow,flow.Sequence,3_0_1_0_5_1,NA,NA,skipped,NA,450665.4,NA,NA,450664.319,450665.5,2023-03-24T08:26:41Z,450681.002,NULL,Tester,wanaojaribu,d,NA,NA,NA,NA,sdfdsf,NA,1,NA,NA,NA,NA,NA,NA,NA,NA,NA,NA,NA,NA,NA,NA,NA,NA,NA,NA,NA
74f25,task,flow.Sequence,3_0_1_0_5,NA,NA,completion,8564.026,442091.3,442084.104,442100.293,450664.319,450665.7,2023-03-24T08:26:41Z,450681.002,NULL,Tester,wanaojaribu,d,NA,NA,NA,NA,sdfdsf,NA,1,NA,NA,NA,NA,NA,NA,NA,NA,NA,NA,NA,NA,NA,NA,NA,NA,NA,NA,NA
74f25,Deep Question,html.Page,3_0_1_0_6_0_0,NA,NA,form submission,3658.1980000002,450665.8,450664.319,450681.002,454339.2,454339.3,2023-03-24T08:26:45Z,454346.319,NULL,Konkurrent,mshindani,d,NA,NA,NA,zttu,NA,NA,1,NA,NA,NA,NA,NA,NA,NA,NA,NA,NA,NA,NA,NA,NA,NA,NA,NA,NA,NA
74f25,"""Richtig""-Screen",canvas.Screen,3_0_1_0_6_0_1,NA,NA,skipped,NA,454341.4,NA,NA,454339.2,454341.5,2023-03-24T08:26:45Z,454346.319,NULL,Konkurrent,mshindani,d,NA,NA,NA,NA,sdfdsf,NA,1,NA,NA,NA,NA,NA,NA,NA,NA,NA,NA,NA,NA,NA,NA,NA,NA,NA,NA,NA
74f25,"""Falsch""-Screen",canvas.Screen,3_0_1_0_6_0_2,NA,NA,timeout,4998.307,454342,454329.715,454346.319,459327.924,459329,2023-03-24T08:26:50Z,459344.626,NULL,Konkurrent,mshindani,d,NA,NA,NA,NA,sdfdsf,0,1,NA,NA,NA,NA,NA,NA,NA,NA,NA,NA,NA,NA,NA,NA,NA,NA,NA,NA,NA
74f25,deep,flow.Sequence,3_0_1_0_6_0,NA,NA,completion,8646.922,450665.7,450664.319,450681.002,459327.924,459329.3,2023-03-24T08:26:50Z,459344.626,NULL,Konkurrent,mshindani,d,NA,NA,NA,NA,sdfdsf,NA,1,NA,NA,NA,NA,NA,NA,NA,NA,NA,NA,NA,NA,NA,NA,NA,NA,NA,NA,NA
74f25,shallow,flow.Sequence,3_0_1_0_6_1,NA,NA,skipped,NA,459329.4,NA,NA,459327.924,459329.5,2023-03-24T08:26:50Z,459344.626,NULL,Konkurrent,mshindani,d,NA,NA,NA,NA,sdfdsf,NA,1,NA,NA,NA,NA,NA,NA,NA,NA,NA,NA,NA,NA,NA,NA,NA,NA,NA,NA,NA
74f25,task,flow.Sequence,3_0_1_0_6,NA,NA,completion,8646.922,450665.7,450664.319,450681.002,459327.924,459329.7,2023-03-24T08:26:50Z,459344.626,NULL,Konkurrent,mshindani,d,NA,NA,NA,NA,sdfdsf,NA,1,NA,NA,NA,NA,NA,NA,NA,NA,NA,NA,NA,NA,NA,NA,NA,NA,NA,NA,NA
74f25,deep,flow.Sequence,3_0_1_0_7_0,NA,NA,skipped,NA,459329.9,NA,NA,459327.924,459329.9,2023-03-24T08:26:50Z,459344.626,NULL,Zuwachs,nyongeza,s,matilaba,udhibiti,hudhurio,NA,sdfdsf,NA,1,NA,NA,NA,NA,NA,NA,NA,NA,NA,NA,NA,NA,NA,NA,NA,NA,NA,NA,NA
74f25,Shallow Question,html.Page,3_0_1_0_7_1_0,NA,NA,form submission,4611.874,459330,459327.924,459344.626,463956.5,463956.7,2023-03-24T08:26:55Z,463959.561,NULL,Zuwachs,nyongeza,s,matilaba,udhibiti,hudhurio,nyongeza,NA,NA,1,NA,NA,NA,NA,NA,NA,NA,NA,NA,NA,NA,NA,NA,NA,NA,NA,NA,NA,NA
74f25,"""Richtig""-Screen",canvas.Screen,3_0_1_0_7_1_1,NA,NA,timeout,4998.419,463958.7,463942.902,463959.561,468941.393,468942.3,2023-03-24T08:27:00Z,468957.98,NULL,Zuwachs,nyongeza,s,matilaba,udhibiti,hudhurio,NA,sdfdsf,1,1,NA,NA,NA,NA,NA,NA,NA,NA,NA,NA,NA,NA,NA,NA,NA,NA,NA,NA,NA
74f25,"""Falsch""-Screen",canvas.Screen,3_0_1_0_7_1_2,NA,NA,skipped,NA,468947.2,NA,NA,468941.393,468947.5,2023-03-24T08:27:00Z,468957.98,NULL,Zuwachs,nyongeza,s,matilaba,udhibiti,hudhurio,NA,sdfdsf,NA,1,NA,NA,NA,NA,NA,NA,NA,NA,NA,NA,NA,NA,NA,NA,NA,NA,NA,NA,NA
74f25,shallow,flow.Sequence,3_0_1_0_7_1,NA,NA,completion,9596.767,459330,459327.924,459344.626,468941.393,468947.7,2023-03-24T08:27:00Z,468957.98,NULL,Zuwachs,nyongeza,s,matilaba,udhibiti,hudhurio,NA,sdfdsf,NA,1,NA,NA,NA,NA,NA,NA,NA,NA,NA,NA,NA,NA,NA,NA,NA,NA,NA,NA,NA
74f25,task,flow.Sequence,3_0_1_0_7,NA,NA,completion,9596.767,459329.8,459327.924,459344.626,468941.393,468948,2023-03-24T08:27:00Z,468957.98,NULL,Zuwachs,nyongeza,s,matilaba,udhibiti,hudhurio,NA,sdfdsf,NA,1,NA,NA,NA,NA,NA,NA,NA,NA,NA,NA,NA,NA,NA,NA,NA,NA,NA,NA,NA
74f25,block,flow.Loop,3_0_1_0,NA,NA,completion,83566.733,385382.6,385336.086,385374.66,468941.393,468948.1,2023-03-24T08:27:00Z,468957.98,NULL,NA,NA,NA,NA,NA,NA,NA,sdfdsf,NA,1,NA,NA,NA,NA,NA,NA,NA,NA,NA,NA,NA,NA,NA,NA,NA,NA,NA,NA,NA
74f25,weiter,canvas.Screen,3_0_1_1,sdf,keypress(Space),response,6628.9199999999,468948.2,468941.393,468957.98,475586.9,475589.3,2023-03-24T08:27:06Z,475608.841,NULL,NA,NA,NA,NA,NA,NA,NA,sdfdsf,NA,1,NA,NA,NA,NA,NA,NA,NA,NA,NA,NA,NA,NA,NA,NA,NA,NA,NA,NA,NA
74f25,check continue,flow.Sequence,3_0_1,NA,NA,completion,90212.24,385382.5,385336.086,385374.66,475586.9,475589.6,2023-03-24T08:27:06Z,475608.841,NULL,NA,NA,NA,NA,NA,NA,NA,sdfdsf,NA,1,NA,NA,NA,NA,NA,NA,NA,NA,NA,NA,NA,NA,NA,NA,NA,NA,NA,NA,NA
74f25,Deep Question,html.Page,3_0_2_0_0_0_0,NA,NA,form submission,9355.5589999999,475616.9,475587.763,475608.841,484964.4,484964.7,2023-03-24T08:27:16Z,484969.095,NULL,Schüler,mwanafunzi,d,NA,NA,NA,mwanafunzi,NA,NA,2,NA,NA,NA,NA,NA,NA,NA,NA,NA,NA,NA,NA,NA,NA,NA,NA,NA,NA,NA
74f25,"""Richtig""-Screen",canvas.Screen,3_0_2_0_0_0_1,NA,NA,timeout,4998.64,484966.9,484952.773,484969.095,489951.083,489952.2,2023-03-24T08:27:21Z,489967.735,NULL,Schüler,mwanafunzi,d,NA,NA,NA,NA,sdf,1,2,NA,NA,NA,NA,NA,NA,NA,NA,NA,NA,NA,NA,NA,NA,NA,NA,NA,NA,NA
74f25,"""Falsch""-Screen",canvas.Screen,3_0_2_0_0_0_2,NA,NA,skipped,NA,489956.6,NA,NA,489951.083,489957,2023-03-24T08:27:21Z,489967.735,NULL,Schüler,mwanafunzi,d,NA,NA,NA,NA,sdf,NA,2,NA,NA,NA,NA,NA,NA,NA,NA,NA,NA,NA,NA,NA,NA,NA,NA,NA,NA,NA
74f25,deep,flow.Sequence,3_0_2_0_0_0,NA,NA,completion,14342.242,475616.9,475587.763,475608.841,489951.083,489957.3,2023-03-24T08:27:21Z,489967.735,NULL,Schüler,mwanafunzi,d,NA,NA,NA,NA,sdf,NA,2,NA,NA,NA,NA,NA,NA,NA,NA,NA,NA,NA,NA,NA,NA,NA,NA,NA,NA,NA
74f25,shallow,flow.Sequence,3_0_2_0_0_1,NA,NA,skipped,NA,489957.5,NA,NA,489951.083,489957.6,2023-03-24T08:27:21Z,489967.735,NULL,Schüler,mwanafunzi,d,NA,NA,NA,NA,sdf,NA,2,NA,NA,NA,NA,NA,NA,NA,NA,NA,NA,NA,NA,NA,NA,NA,NA,NA,NA,NA
74f25,task,flow.Sequence,3_0_2_0_0,NA,NA,completion,14342.242,475616.9,475587.763,475608.841,489951.083,489957.8,2023-03-24T08:27:21Z,489967.735,NULL,Schüler,mwanafunzi,d,NA,NA,NA,NA,sdf,NA,2,NA,NA,NA,NA,NA,NA,NA,NA,NA,NA,NA,NA,NA,NA,NA,NA,NA,NA,NA
74f25,Deep Question,html.Page,3_0_2_0_1_0_0,NA,NA,form submission,5142.6649999999,489957.9,489951.083,489967.735,495110.4,495110.6,2023-03-24T08:27:26Z,495115.663,NULL,Konkurrent,mshindani,d,NA,NA,NA,ddd,NA,NA,2,NA,NA,NA,NA,NA,NA,NA,NA,NA,NA,NA,NA,NA,NA,NA,NA,NA,NA,NA
74f25,"""Richtig""-Screen",canvas.Screen,3_0_2_0_1_0_1,NA,NA,skipped,NA,495112.5,NA,NA,495110.4,495112.6,2023-03-24T08:27:26Z,495115.663,NULL,Konkurrent,mshindani,d,NA,NA,NA,NA,sdf,NA,2,NA,NA,NA,NA,NA,NA,NA,NA,NA,NA,NA,NA,NA,NA,NA,NA,NA,NA,NA
74f25,"""Falsch""-Screen",canvas.Screen,3_0_2_0_1_0_2,NA,NA,timeout,4998.729,495113.2,495099.39,495115.663,500097.65,500098.7,2023-03-24T08:27:31Z,500114.392,NULL,Konkurrent,mshindani,d,NA,NA,NA,NA,sdf,0,2,NA,NA,NA,NA,NA,NA,NA,NA,NA,NA,NA,NA,NA,NA,NA,NA,NA,NA,NA
74f25,deep,flow.Sequence,3_0_2_0_1_0,NA,NA,completion,10129.915,489957.9,489951.083,489967.735,500097.65,500098.9,2023-03-24T08:27:31Z,500114.392,NULL,Konkurrent,mshindani,d,NA,NA,NA,NA,sdf,NA,2,NA,NA,NA,NA,NA,NA,NA,NA,NA,NA,NA,NA,NA,NA,NA,NA,NA,NA,NA
74f25,shallow,flow.Sequence,3_0_2_0_1_1,NA,NA,skipped,NA,500098.9,NA,NA,500097.65,500099.1,2023-03-24T08:27:31Z,500114.392,NULL,Konkurrent,mshindani,d,NA,NA,NA,NA,sdf,NA,2,NA,NA,NA,NA,NA,NA,NA,NA,NA,NA,NA,NA,NA,NA,NA,NA,NA,NA,NA
74f25,task,flow.Sequence,3_0_2_0_1,NA,NA,completion,10129.915,489957.9,489951.083,489967.735,500097.65,500099.2,2023-03-24T08:27:31Z,500114.392,NULL,Konkurrent,mshindani,d,NA,NA,NA,NA,sdf,NA,2,NA,NA,NA,NA,NA,NA,NA,NA,NA,NA,NA,NA,NA,NA,NA,NA,NA,NA,NA
74f25,deep,flow.Sequence,3_0_2_0_2_0,NA,NA,skipped,NA,500099.3,NA,NA,500097.65,500099.4,2023-03-24T08:27:31Z,500114.392,NULL,Fenster,dirisha,s,walakini,tasawari,maarifa,NA,sdf,NA,2,NA,NA,NA,NA,NA,NA,NA,NA,NA,NA,NA,NA,NA,NA,NA,NA,NA,NA,NA
74f25,Shallow Question,html.Page,3_0_2_0_2_1_0,NA,NA,form submission,6534.0079999999,500099.5,500097.65,500114.392,506648.4,506648.6,2023-03-24T08:27:37Z,506662.071,NULL,Fenster,dirisha,s,walakini,tasawari,maarifa,dirisha,NA,NA,2,NA,NA,NA,NA,NA,NA,NA,NA,NA,NA,NA,NA,NA,NA,NA,NA,NA,NA,NA
74f25,"""Richtig""-Screen",canvas.Screen,3_0_2_0_2_1_1,NA,NA,timeout,4998.351,506650.7,506645.466,506662.071,511643.759,511644.6,2023-03-24T08:27:42Z,511660.422,NULL,Fenster,dirisha,s,walakini,tasawari,maarifa,NA,sdf,1,2,NA,NA,NA,NA,NA,NA,NA,NA,NA,NA,NA,NA,NA,NA,NA,NA,NA,NA,NA
74f25,"""Falsch""-Screen",canvas.Screen,3_0_2_0_2_1_2,NA,NA,skipped,NA,511648.8,NA,NA,511643.759,511649,2023-03-24T08:27:42Z,511660.422,NULL,Fenster,dirisha,s,walakini,tasawari,maarifa,NA,sdf,NA,2,NA,NA,NA,NA,NA,NA,NA,NA,NA,NA,NA,NA,NA,NA,NA,NA,NA,NA,NA
74f25,shallow,flow.Sequence,3_0_2_0_2_1,NA,NA,completion,11529.367,500099.4,500097.65,500114.392,511643.759,511649.3,2023-03-24T08:27:42Z,511660.422,NULL,Fenster,dirisha,s,walakini,tasawari,maarifa,NA,sdf,NA,2,NA,NA,NA,NA,NA,NA,NA,NA,NA,NA,NA,NA,NA,NA,NA,NA,NA,NA,NA
74f25,task,flow.Sequence,3_0_2_0_2,NA,NA,completion,11529.367,500099.3,500097.65,500114.392,511643.759,511649.4,2023-03-24T08:27:42Z,511660.422,NULL,Fenster,dirisha,s,walakini,tasawari,maarifa,NA,sdf,NA,2,NA,NA,NA,NA,NA,NA,NA,NA,NA,NA,NA,NA,NA,NA,NA,NA,NA,NA,NA
74f25,Deep Question,html.Page,3_0_2_0_3_0_0,NA,NA,form submission,4631.6780000001,511649.6,511643.759,511660.422,516292.1,516292.4,2023-03-24T08:27:47Z,516315.415,NULL,Tester,wanaojaribu,d,NA,NA,NA,ww,NA,NA,2,NA,NA,NA,NA,NA,NA,NA,NA,NA,NA,NA,NA,NA,NA,NA,NA,NA,NA,NA
74f25,"""Richtig""-Screen",canvas.Screen,3_0_2_0_3_0_1,NA,NA,skipped,NA,516294.5,NA,NA,516292.1,516294.7,2023-03-24T08:27:47Z,516315.415,NULL,Tester,wanaojaribu,d,NA,NA,NA,NA,sdf,NA,2,NA,NA,NA,NA,NA,NA,NA,NA,NA,NA,NA,NA,NA,NA,NA,NA,NA,NA,NA
74f25,"""Falsch""-Screen",canvas.Screen,3_0_2_0_3_0_2,NA,NA,timeout,4991.479,516295.3,516275.213,516315.415,521290.517,521291.4,2023-03-24T08:27:52Z,521306.894,NULL,Tester,wanaojaribu,d,NA,NA,NA,NA,sdf,0,2,NA,NA,NA,NA,NA,NA,NA,NA,NA,NA,NA,NA,NA,NA,NA,NA,NA,NA,NA
74f25,deep,flow.Sequence,3_0_2_0_3_0,NA,NA,completion,9630.095,511649.5,511643.759,511660.422,521290.517,521291.8,2023-03-24T08:27:52Z,521306.894,NULL,Tester,wanaojaribu,d,NA,NA,NA,NA,sdf,NA,2,NA,NA,NA,NA,NA,NA,NA,NA,NA,NA,NA,NA,NA,NA,NA,NA,NA,NA,NA
74f25,shallow,flow.Sequence,3_0_2_0_3_1,NA,NA,skipped,NA,521291.8,NA,NA,521290.517,521291.9,2023-03-24T08:27:52Z,521306.894,NULL,Tester,wanaojaribu,d,NA,NA,NA,NA,sdf,NA,2,NA,NA,NA,NA,NA,NA,NA,NA,NA,NA,NA,NA,NA,NA,NA,NA,NA,NA,NA
74f25,task,flow.Sequence,3_0_2_0_3,NA,NA,completion,9630.095,511649.5,511643.759,511660.422,521290.517,521292,2023-03-24T08:27:52Z,521306.894,NULL,Tester,wanaojaribu,d,NA,NA,NA,NA,sdf,NA,2,NA,NA,NA,NA,NA,NA,NA,NA,NA,NA,NA,NA,NA,NA,NA,NA,NA,NA,NA
74f25,deep,flow.Sequence,3_0_2_0_4_0,NA,NA,skipped,NA,521292.1,NA,NA,521290.517,521292.2,2023-03-24T08:27:52Z,521306.894,NULL,Spionage,upelelezi,s,maslahi,utokazo,magangao,NA,sdf,NA,2,NA,NA,NA,NA,NA,NA,NA,NA,NA,NA,NA,NA,NA,NA,NA,NA,NA,NA,NA
74f25,Shallow Question,html.Page,3_0_2_0_4_1_0,NA,NA,form submission,12733.506,521292.3,521290.517,521306.894,534040.4,534040.6,2023-03-24T08:28:05Z,534052.832,NULL,Spionage,upelelezi,s,maslahi,utokazo,magangao,upelelezi,NA,NA,2,NA,NA,NA,NA,NA,NA,NA,NA,NA,NA,NA,NA,NA,NA,NA,NA,NA,NA,NA
74f25,"""Richtig""-Screen",canvas.Screen,3_0_2_0_4_1_1,NA,NA,timeout,4998.325,534042.7,534036.298,534052.832,539034.417,539035.5,2023-03-24T08:28:10Z,539051.157,NULL,Spionage,upelelezi,s,maslahi,utokazo,magangao,NA,sdf,1,2,NA,NA,NA,NA,NA,NA,NA,NA,NA,NA,NA,NA,NA,NA,NA,NA,NA,NA,NA
74f25,"""Falsch""-Screen",canvas.Screen,3_0_2_0_4_1_2,NA,NA,skipped,NA,539039.2,NA,NA,539034.417,539039.4,2023-03-24T08:28:10Z,539051.157,NULL,Spionage,upelelezi,s,maslahi,utokazo,magangao,NA,sdf,NA,2,NA,NA,NA,NA,NA,NA,NA,NA,NA,NA,NA,NA,NA,NA,NA,NA,NA,NA,NA
74f25,shallow,flow.Sequence,3_0_2_0_4_1,NA,NA,completion,17727.523,521292.3,521290.517,521306.894,539034.417,539039.7,2023-03-24T08:28:10Z,539051.157,NULL,Spionage,upelelezi,s,maslahi,utokazo,magangao,NA,sdf,NA,2,NA,NA,NA,NA,NA,NA,NA,NA,NA,NA,NA,NA,NA,NA,NA,NA,NA,NA,NA
74f25,task,flow.Sequence,3_0_2_0_4,NA,NA,completion,17727.523,521292.1,521290.517,521306.894,539034.417,539039.8,2023-03-24T08:28:10Z,539051.157,NULL,Spionage,upelelezi,s,maslahi,utokazo,magangao,NA,sdf,NA,2,NA,NA,NA,NA,NA,NA,NA,NA,NA,NA,NA,NA,NA,NA,NA,NA,NA,NA,NA
74f25,deep,flow.Sequence,3_0_2_0_5_0,NA,NA,skipped,NA,539040,NA,NA,539034.417,539040.1,2023-03-24T08:28:10Z,539051.157,NULL,Symbol,kielezo,s,kinyume,nderemo,utayari,NA,sdf,NA,2,NA,NA,NA,NA,NA,NA,NA,NA,NA,NA,NA,NA,NA,NA,NA,NA,NA,NA,NA
74f25,Shallow Question,html.Page,3_0_2_0_5_1_0,NA,NA,form submission,15846.443,539040.2,539034.417,539051.157,554897.6,554897.9,2023-03-24T08:28:25Z,554912.446,NULL,Symbol,kielezo,s,kinyume,nderemo,utayari,kielezo,NA,NA,2,NA,NA,NA,NA,NA,NA,NA,NA,NA,NA,NA,NA,NA,NA,NA,NA,NA,NA,NA
74f25,"""Richtig""-Screen",canvas.Screen,3_0_2_0_5_1_1,NA,NA,timeout,4998.178,554899.6,554895.903,554912.446,559894.1,559895,2023-03-24T08:28:30Z,559910.624,NULL,Symbol,kielezo,s,kinyume,nderemo,utayari,NA,sdf,1,2,NA,NA,NA,NA,NA,NA,NA,NA,NA,NA,NA,NA,NA,NA,NA,NA,NA,NA,NA
74f25,"""Falsch""-Screen",canvas.Screen,3_0_2_0_5_1_2,NA,NA,skipped,NA,559899.1,NA,NA,559894.1,559899.5,2023-03-24T08:28:30Z,559910.624,NULL,Symbol,kielezo,s,kinyume,nderemo,utayari,NA,sdf,NA,2,NA,NA,NA,NA,NA,NA,NA,NA,NA,NA,NA,NA,NA,NA,NA,NA,NA,NA,NA
74f25,shallow,flow.Sequence,3_0_2_0_5_1,NA,NA,completion,20842.943,539040.1,539034.417,539051.157,559894.1,559899.8,2023-03-24T08:28:30Z,559910.624,NULL,Symbol,kielezo,s,kinyume,nderemo,utayari,NA,sdf,NA,2,NA,NA,NA,NA,NA,NA,NA,NA,NA,NA,NA,NA,NA,NA,NA,NA,NA,NA,NA
74f25,task,flow.Sequence,3_0_2_0_5,NA,NA,completion,20842.943,539040,539034.417,539051.157,559894.1,559900.1,2023-03-24T08:28:30Z,559910.624,NULL,Symbol,kielezo,s,kinyume,nderemo,utayari,NA,sdf,NA,2,NA,NA,NA,NA,NA,NA,NA,NA,NA,NA,NA,NA,NA,NA,NA,NA,NA,NA,NA
74f25,Deep Question,html.Page,3_0_2_0_6_0_0,NA,NA,form submission,3329.876,559900.3,559894.1,559910.624,563240.5,563240.6,2023-03-24T08:28:34Z,563242.681,NULL,Vorsorge,tahadhari,d,NA,NA,NA,ww,NA,NA,2,NA,NA,NA,NA,NA,NA,NA,NA,NA,NA,NA,NA,NA,NA,NA,NA,NA,NA,NA
74f25,"""Richtig""-Screen",canvas.Screen,3_0_2_0_6_0_1,NA,NA,skipped,NA,563242.6,NA,NA,563240.5,563242.8,2023-03-24T08:28:34Z,563242.681,NULL,Vorsorge,tahadhari,d,NA,NA,NA,NA,sdf,NA,2,NA,NA,NA,NA,NA,NA,NA,NA,NA,NA,NA,NA,NA,NA,NA,NA,NA,NA,NA
74f25,"""Falsch""-Screen",canvas.Screen,3_0_2_0_6_0_2,NA,NA,timeout,4998.665,563243.6,563226.355,563242.681,568224.664,568225.8,2023-03-24T08:28:39Z,568241.346,NULL,Vorsorge,tahadhari,d,NA,NA,NA,NA,sdf,0,2,NA,NA,NA,NA,NA,NA,NA,NA,NA,NA,NA,NA,NA,NA,NA,NA,NA,NA,NA
74f25,deep,flow.Sequence,3_0_2_0_6_0,NA,NA,completion,8314.04,559900.3,559894.1,559910.624,568224.664,568226.1,2023-03-24T08:28:39Z,568241.346,NULL,Vorsorge,tahadhari,d,NA,NA,NA,NA,sdf,NA,2,NA,NA,NA,NA,NA,NA,NA,NA,NA,NA,NA,NA,NA,NA,NA,NA,NA,NA,NA
74f25,shallow,flow.Sequence,3_0_2_0_6_1,NA,NA,skipped,NA,568226.3,NA,NA,568224.664,568226.4,2023-03-24T08:28:39Z,568241.346,NULL,Vorsorge,tahadhari,d,NA,NA,NA,NA,sdf,NA,2,NA,NA,NA,NA,NA,NA,NA,NA,NA,NA,NA,NA,NA,NA,NA,NA,NA,NA,NA
74f25,task,flow.Sequence,3_0_2_0_6,NA,NA,completion,8314.04,559900.2,559894.1,559910.624,568224.664,568226.5,2023-03-24T08:28:39Z,568241.346,NULL,Vorsorge,tahadhari,d,NA,NA,NA,NA,sdf,NA,2,NA,NA,NA,NA,NA,NA,NA,NA,NA,NA,NA,NA,NA,NA,NA,NA,NA,NA,NA
74f25,deep,flow.Sequence,3_0_2_0_7_0,NA,NA,skipped,NA,568226.6,NA,NA,568224.664,568226.6,2023-03-24T08:28:39Z,568241.346,NULL,Zuwachs,nyongeza,s,matilaba,udhibiti,hudhurio,NA,sdf,NA,2,NA,NA,NA,NA,NA,NA,NA,NA,NA,NA,NA,NA,NA,NA,NA,NA,NA,NA,NA
74f25,Shallow Question,html.Page,3_0_2_0_7_1_0,NA,NA,form submission,4171.154,568226.8,568224.664,568241.346,572412.5,572412.8,2023-03-24T08:28:43Z,572423.219,NULL,Zuwachs,nyongeza,s,matilaba,udhibiti,hudhurio,nyongeza,NA,NA,2,NA,NA,NA,NA,NA,NA,NA,NA,NA,NA,NA,NA,NA,NA,NA,NA,NA,NA,NA
74f25,"""Richtig""-Screen",canvas.Screen,3_0_2_0_7_1_1,NA,NA,timeout,4998.257,572414.8,572406.663,572423.219,577404.911,577405.8,2023-03-24T08:28:48Z,577421.476,NULL,Zuwachs,nyongeza,s,matilaba,udhibiti,hudhurio,NA,sdf,1,2,NA,NA,NA,NA,NA,NA,NA,NA,NA,NA,NA,NA,NA,NA,NA,NA,NA,NA,NA
74f25,"""Falsch""-Screen",canvas.Screen,3_0_2_0_7_1_2,NA,NA,skipped,NA,577409.7,NA,NA,577404.911,577410,2023-03-24T08:28:48Z,577421.476,NULL,Zuwachs,nyongeza,s,matilaba,udhibiti,hudhurio,NA,sdf,NA,2,NA,NA,NA,NA,NA,NA,NA,NA,NA,NA,NA,NA,NA,NA,NA,NA,NA,NA,NA
74f25,shallow,flow.Sequence,3_0_2_0_7_1,NA,NA,completion,9163.5649999999,568226.7,568224.664,568241.346,577404.911,577410.1,2023-03-24T08:28:48Z,577421.476,NULL,Zuwachs,nyongeza,s,matilaba,udhibiti,hudhurio,NA,sdf,NA,2,NA,NA,NA,NA,NA,NA,NA,NA,NA,NA,NA,NA,NA,NA,NA,NA,NA,NA,NA
74f25,task,flow.Sequence,3_0_2_0_7,NA,NA,completion,9163.5649999999,568226.5,568224.664,568241.346,577404.911,577410.2,2023-03-24T08:28:48Z,577421.476,NULL,Zuwachs,nyongeza,s,matilaba,udhibiti,hudhurio,NA,sdf,NA,2,NA,NA,NA,NA,NA,NA,NA,NA,NA,NA,NA,NA,NA,NA,NA,NA,NA,NA,NA
74f25,block,flow.Loop,3_0_2_0,NA,NA,completion,101796.07,475616.9,475587.763,475608.841,577404.911,577410.4,2023-03-24T08:28:48Z,577421.476,NULL,NA,NA,NA,NA,NA,NA,NA,sdf,NA,2,NA,NA,NA,NA,NA,NA,NA,NA,NA,NA,NA,NA,NA,NA,NA,NA,NA,NA,NA
74f25,weiter,canvas.Screen,3_0_2_1,sdf,keypress(Space),response,949.82400000026,577410.5,577404.911,577421.476,578371.3,578372.5,2023-03-24T08:28:49Z,578387.618,NULL,NA,NA,NA,NA,NA,NA,NA,sdf,NA,2,NA,NA,NA,NA,NA,NA,NA,NA,NA,NA,NA,NA,NA,NA,NA,NA,NA,NA,NA
74f25,check continue,flow.Sequence,3_0_2,NA,NA,completion,102762.459,475616.9,475587.763,475608.841,578371.3,578372.8,2023-03-24T08:28:49Z,578387.618,NULL,NA,NA,NA,NA,NA,NA,NA,sdf,NA,2,NA,NA,NA,NA,NA,NA,NA,NA,NA,NA,NA,NA,NA,NA,NA,NA,NA,NA,NA
74f25,deep,flow.Sequence,3_0_3_0_0_0,NA,NA,skipped,NA,578402.6,NA,NA,578371.3,578402.6,2023-03-24T08:28:49Z,578387.618,NULL,Spionage,upelelezi,s,maslahi,utokazo,magangao,NA,qt,NA,3,NA,NA,NA,NA,NA,NA,NA,NA,NA,NA,NA,NA,NA,NA,NA,NA,NA,NA,NA
74f25,Shallow Question,html.Page,3_0_3_0_0_1_0,NA,NA,form submission,4058.1820000003,578402.7,578371.682,578387.618,582445.8,582446,2023-03-24T08:28:53Z,582452.939,NULL,Spionage,upelelezi,s,maslahi,utokazo,magangao,upelelezi,NA,NA,3,NA,NA,NA,NA,NA,NA,NA,NA,NA,NA,NA,NA,NA,NA,NA,NA,NA,NA,NA
74f25,"""Richtig""-Screen",canvas.Screen,3_0_3_0_0_1_1,NA,NA,timeout,4998.573,582448.1,582436.534,582452.939,587434.753,587435.7,2023-03-24T08:28:58Z,587451.512,NULL,Spionage,upelelezi,s,maslahi,utokazo,magangao,NA,qt,1,3,NA,NA,NA,NA,NA,NA,NA,NA,NA,NA,NA,NA,NA,NA,NA,NA,NA,NA,NA
74f25,"""Falsch""-Screen",canvas.Screen,3_0_3_0_0_1_2,NA,NA,skipped,NA,587439.7,NA,NA,587434.753,587440.1,2023-03-24T08:28:58Z,587451.512,NULL,Spionage,upelelezi,s,maslahi,utokazo,magangao,NA,qt,NA,3,NA,NA,NA,NA,NA,NA,NA,NA,NA,NA,NA,NA,NA,NA,NA,NA,NA,NA,NA
74f25,shallow,flow.Sequence,3_0_3_0_0_1,NA,NA,completion,9047.135,578402.7,578371.682,578387.618,587434.753,587440.2,2023-03-24T08:28:58Z,587451.512,NULL,Spionage,upelelezi,s,maslahi,utokazo,magangao,NA,qt,NA,3,NA,NA,NA,NA,NA,NA,NA,NA,NA,NA,NA,NA,NA,NA,NA,NA,NA,NA,NA
74f25,task,flow.Sequence,3_0_3_0_0,NA,NA,completion,9047.135,578402.5,578371.682,578387.618,587434.753,587440.4,2023-03-24T08:28:58Z,587451.512,NULL,Spionage,upelelezi,s,maslahi,utokazo,magangao,NA,qt,NA,3,NA,NA,NA,NA,NA,NA,NA,NA,NA,NA,NA,NA,NA,NA,NA,NA,NA,NA,NA
74f25,Deep Question,html.Page,3_0_3_0_1_0_0,NA,NA,form submission,6418.7880000003,587440.5,587434.753,587451.512,593870.3,593870.5,2023-03-24T08:29:04Z,593882.705,NULL,Vorsorge,tahadhari,d,NA,NA,NA,tahadhari,NA,NA,3,NA,NA,NA,NA,NA,NA,NA,NA,NA,NA,NA,NA,NA,NA,NA,NA,NA,NA,NA
74f25,"""Richtig""-Screen",canvas.Screen,3_0_3_0_1_0_1,NA,NA,timeout,4998.148,593872.7,593866.038,593882.705,598864.191,598864.9,2023-03-24T08:29:09Z,598880.853,NULL,Vorsorge,tahadhari,d,NA,NA,NA,NA,qt,1,3,NA,NA,NA,NA,NA,NA,NA,NA,NA,NA,NA,NA,NA,NA,NA,NA,NA,NA,NA
74f25,"""Falsch""-Screen",canvas.Screen,3_0_3_0_1_0_2,NA,NA,skipped,NA,598868.5,NA,NA,598864.191,598868.8,2023-03-24T08:29:09Z,598880.853,NULL,Vorsorge,tahadhari,d,NA,NA,NA,NA,qt,NA,3,NA,NA,NA,NA,NA,NA,NA,NA,NA,NA,NA,NA,NA,NA,NA,NA,NA,NA,NA
74f25,deep,flow.Sequence,3_0_3_0_1_0,NA,NA,completion,11412.679,587440.5,587434.753,587451.512,598864.191,598869,2023-03-24T08:29:09Z,598880.853,NULL,Vorsorge,tahadhari,d,NA,NA,NA,NA,qt,NA,3,NA,NA,NA,NA,NA,NA,NA,NA,NA,NA,NA,NA,NA,NA,NA,NA,NA,NA,NA
74f25,shallow,flow.Sequence,3_0_3_0_1_1,NA,NA,skipped,NA,598869,NA,NA,598864.191,598869.1,2023-03-24T08:29:09Z,598880.853,NULL,Vorsorge,tahadhari,d,NA,NA,NA,NA,qt,NA,3,NA,NA,NA,NA,NA,NA,NA,NA,NA,NA,NA,NA,NA,NA,NA,NA,NA,NA,NA
74f25,task,flow.Sequence,3_0_3_0_1,NA,NA,completion,11412.679,587440.5,587434.753,587451.512,598864.191,598869.2,2023-03-24T08:29:09Z,598880.853,NULL,Vorsorge,tahadhari,d,NA,NA,NA,NA,qt,NA,3,NA,NA,NA,NA,NA,NA,NA,NA,NA,NA,NA,NA,NA,NA,NA,NA,NA,NA,NA
74f25,Deep Question,html.Page,3_0_3_0_2_0_0,NA,NA,form submission,6875.647,598869.4,598864.191,598880.853,605756.5,605756.6,2023-03-24T08:29:16Z,605761.684,NULL,Schüler,mwanafunzi,d,NA,NA,NA,mwanafunzi,NA,NA,3,NA,NA,NA,NA,NA,NA,NA,NA,NA,NA,NA,NA,NA,NA,NA,NA,NA,NA,NA
74f25,"""Richtig""-Screen",canvas.Screen,3_0_3_0_2_0_1,NA,NA,timeout,4998.637,605758.7,605745.335,605761.684,610743.664,610744.5,2023-03-24T08:29:21Z,610760.321,NULL,Schüler,mwanafunzi,d,NA,NA,NA,NA,qt,1,3,NA,NA,NA,NA,NA,NA,NA,NA,NA,NA,NA,NA,NA,NA,NA,NA,NA,NA,NA
74f25,"""Falsch""-Screen",canvas.Screen,3_0_3_0_2_0_2,NA,NA,skipped,NA,610748.5,NA,NA,610743.664,610748.7,2023-03-24T08:29:21Z,610760.321,NULL,Schüler,mwanafunzi,d,NA,NA,NA,NA,qt,NA,3,NA,NA,NA,NA,NA,NA,NA,NA,NA,NA,NA,NA,NA,NA,NA,NA,NA,NA,NA
74f25,deep,flow.Sequence,3_0_3_0_2_0,NA,NA,completion,11862.811,598869.3,598864.191,598880.853,610743.664,610748.9,2023-03-24T08:29:21Z,610760.321,NULL,Schüler,mwanafunzi,d,NA,NA,NA,NA,qt,NA,3,NA,NA,NA,NA,NA,NA,NA,NA,NA,NA,NA,NA,NA,NA,NA,NA,NA,NA,NA
74f25,shallow,flow.Sequence,3_0_3_0_2_1,NA,NA,skipped,NA,610749,NA,NA,610743.664,610749.1,2023-03-24T08:29:21Z,610760.321,NULL,Schüler,mwanafunzi,d,NA,NA,NA,NA,qt,NA,3,NA,NA,NA,NA,NA,NA,NA,NA,NA,NA,NA,NA,NA,NA,NA,NA,NA,NA,NA
74f25,task,flow.Sequence,3_0_3_0_2,NA,NA,completion,11862.811,598869.3,598864.191,598880.853,610743.664,610749.2,2023-03-24T08:29:21Z,610760.321,NULL,Schüler,mwanafunzi,d,NA,NA,NA,NA,qt,NA,3,NA,NA,NA,NA,NA,NA,NA,NA,NA,NA,NA,NA,NA,NA,NA,NA,NA,NA,NA
74f25,Deep Question,html.Page,3_0_3_0_3_0_0,NA,NA,form submission,1980.2790000001,610749.3,610743.664,610760.321,612740.6,612740.8,2023-03-24T08:29:23Z,612742.695,NULL,Konkurrent,mshindani,d,NA,NA,NA,e,NA,NA,3,NA,NA,NA,NA,NA,NA,NA,NA,NA,NA,NA,NA,NA,NA,NA,NA,NA,NA,NA
74f25,"""Richtig""-Screen",canvas.Screen,3_0_3_0_3_0_1,NA,NA,skipped,NA,612741.6,NA,NA,612740.6,612741.7,2023-03-24T08:29:23Z,612742.695,NULL,Konkurrent,mshindani,d,NA,NA,NA,NA,qt,NA,3,NA,NA,NA,NA,NA,NA,NA,NA,NA,NA,NA,NA,NA,NA,NA,NA,NA,NA,NA
74f25,"""Falsch""-Screen",canvas.Screen,3_0_3_0_3_0_2,NA,NA,timeout,4998.2710000001,612742.2,612726.319,612742.695,617724.598,617726.3,2023-03-24T08:29:28Z,617740.966,NULL,Konkurrent,mshindani,d,NA,NA,NA,NA,qt,0,3,NA,NA,NA,NA,NA,NA,NA,NA,NA,NA,NA,NA,NA,NA,NA,NA,NA,NA,NA
74f25,deep,flow.Sequence,3_0_3_0_3_0,NA,NA,completion,6964.277,610749.3,610743.664,610760.321,617724.598,617726.6,2023-03-24T08:29:28Z,617740.966,NULL,Konkurrent,mshindani,d,NA,NA,NA,NA,qt,NA,3,NA,NA,NA,NA,NA,NA,NA,NA,NA,NA,NA,NA,NA,NA,NA,NA,NA,NA,NA
74f25,shallow,flow.Sequence,3_0_3_0_3_1,NA,NA,skipped,NA,617726.9,NA,NA,617724.598,617727,2023-03-24T08:29:28Z,617740.966,NULL,Konkurrent,mshindani,d,NA,NA,NA,NA,qt,NA,3,NA,NA,NA,NA,NA,NA,NA,NA,NA,NA,NA,NA,NA,NA,NA,NA,NA,NA,NA
74f25,task,flow.Sequence,3_0_3_0_3,NA,NA,completion,6964.277,610749.3,610743.664,610760.321,617724.598,617727.2,2023-03-24T08:29:28Z,617740.966,NULL,Konkurrent,mshindani,d,NA,NA,NA,NA,qt,NA,3,NA,NA,NA,NA,NA,NA,NA,NA,NA,NA,NA,NA,NA,NA,NA,NA,NA,NA,NA
74f25,deep,flow.Sequence,3_0_3_0_4_0,NA,NA,skipped,NA,617727.3,NA,NA,617724.598,617727.4,2023-03-24T08:29:28Z,617740.966,NULL,Zuwachs,nyongeza,s,matilaba,udhibiti,hudhurio,NA,qt,NA,3,NA,NA,NA,NA,NA,NA,NA,NA,NA,NA,NA,NA,NA,NA,NA,NA,NA,NA,NA
74f25,Shallow Question,html.Page,3_0_3_0_4_1_0,NA,NA,form submission,3483.6340000001,617727.5,617724.598,617740.966,621224.6,621224.8,2023-03-24T08:29:32Z,621240.145,NULL,Zuwachs,nyongeza,s,matilaba,udhibiti,hudhurio,nyongeza,NA,NA,3,NA,NA,NA,NA,NA,NA,NA,NA,NA,NA,NA,NA,NA,NA,NA,NA,NA,NA,NA
74f25,"""Richtig""-Screen",canvas.Screen,3_0_3_0_4_1_1,NA,NA,timeout,4997.954,621226.8,621223.342,621240.145,626221.749,626222.9,2023-03-24T08:29:37Z,626238.099,NULL,Zuwachs,nyongeza,s,matilaba,udhibiti,hudhurio,NA,qt,1,3,NA,NA,NA,NA,NA,NA,NA,NA,NA,NA,NA,NA,NA,NA,NA,NA,NA,NA,NA
74f25,"""Falsch""-Screen",canvas.Screen,3_0_3_0_4_1_2,NA,NA,skipped,NA,626227,NA,NA,626221.749,626227.3,2023-03-24T08:29:37Z,626238.099,NULL,Zuwachs,nyongeza,s,matilaba,udhibiti,hudhurio,NA,qt,NA,3,NA,NA,NA,NA,NA,NA,NA,NA,NA,NA,NA,NA,NA,NA,NA,NA,NA,NA,NA
74f25,shallow,flow.Sequence,3_0_3_0_4_1,NA,NA,completion,8480.7829999999,617727.4,617724.598,617740.966,626221.749,626227.6,2023-03-24T08:29:37Z,626238.099,NULL,Zuwachs,nyongeza,s,matilaba,udhibiti,hudhurio,NA,qt,NA,3,NA,NA,NA,NA,NA,NA,NA,NA,NA,NA,NA,NA,NA,NA,NA,NA,NA,NA,NA
74f25,task,flow.Sequence,3_0_3_0_4,NA,NA,completion,8480.7829999999,617727.2,617724.598,617740.966,626221.749,626227.7,2023-03-24T08:29:37Z,626238.099,NULL,Zuwachs,nyongeza,s,matilaba,udhibiti,hudhurio,NA,qt,NA,3,NA,NA,NA,NA,NA,NA,NA,NA,NA,NA,NA,NA,NA,NA,NA,NA,NA,NA,NA
74f25,deep,flow.Sequence,3_0_3_0_5_0,NA,NA,skipped,NA,626227.8,NA,NA,626221.749,626227.9,2023-03-24T08:29:37Z,626238.099,NULL,Fenster,dirisha,s,walakini,tasawari,maarifa,NA,qt,NA,3,NA,NA,NA,NA,NA,NA,NA,NA,NA,NA,NA,NA,NA,NA,NA,NA,NA,NA,NA
74f25,Shallow Question,html.Page,3_0_3_0_5_1_0,NA,NA,form submission,3734.501,626228,626221.749,626238.099,629972.6,629972.7,2023-03-24T08:29:41Z,629987.131,NULL,Fenster,dirisha,s,walakini,tasawari,maarifa,dirisha,NA,NA,3,NA,NA,NA,NA,NA,NA,NA,NA,NA,NA,NA,NA,NA,NA,NA,NA,NA,NA,NA
74f25,"""Richtig""-Screen",canvas.Screen,3_0_3_0_5_1_1,NA,NA,timeout,4998.325,629974.7,629970.714,629987.131,634968.713,634969.6,2023-03-24T08:29:46Z,634985.456,NULL,Fenster,dirisha,s,walakini,tasawari,maarifa,NA,qt,1,3,NA,NA,NA,NA,NA,NA,NA,NA,NA,NA,NA,NA,NA,NA,NA,NA,NA,NA,NA
74f25,"""Falsch""-Screen",canvas.Screen,3_0_3_0_5_1_2,NA,NA,skipped,NA,634974.1,NA,NA,634968.713,634974.3,2023-03-24T08:29:46Z,634985.456,NULL,Fenster,dirisha,s,walakini,tasawari,maarifa,NA,qt,NA,3,NA,NA,NA,NA,NA,NA,NA,NA,NA,NA,NA,NA,NA,NA,NA,NA,NA,NA,NA
74f25,shallow,flow.Sequence,3_0_3_0_5_1,NA,NA,completion,8730.6139999999,626228,626221.749,626238.099,634968.713,634974.5,2023-03-24T08:29:46Z,634985.456,NULL,Fenster,dirisha,s,walakini,tasawari,maarifa,NA,qt,NA,3,NA,NA,NA,NA,NA,NA,NA,NA,NA,NA,NA,NA,NA,NA,NA,NA,NA,NA,NA
74f25,task,flow.Sequence,3_0_3_0_5,NA,NA,completion,8730.6139999999,626227.8,626221.749,626238.099,634968.713,634974.7,2023-03-24T08:29:46Z,634985.456,NULL,Fenster,dirisha,s,walakini,tasawari,maarifa,NA,qt,NA,3,NA,NA,NA,NA,NA,NA,NA,NA,NA,NA,NA,NA,NA,NA,NA,NA,NA,NA,NA
74f25,Deep Question,html.Page,3_0_3_0_6_0_0,NA,NA,form submission,4638.8440000003,634974.8,634968.713,634985.456,639624.3,639624.6,2023-03-24T08:29:50Z,639633.762,NULL,Tester,wanaojaribu,d,NA,NA,NA,f,NA,NA,3,NA,NA,NA,NA,NA,NA,NA,NA,NA,NA,NA,NA,NA,NA,NA,NA,NA,NA,NA
74f25,"""Richtig""-Screen",canvas.Screen,3_0_3_0_6_0_1,NA,NA,skipped,NA,639626.7,NA,NA,639624.3,639626.8,2023-03-24T08:29:50Z,639633.762,NULL,Tester,wanaojaribu,d,NA,NA,NA,NA,qt,NA,3,NA,NA,NA,NA,NA,NA,NA,NA,NA,NA,NA,NA,NA,NA,NA,NA,NA,NA,NA
74f25,"""Falsch""-Screen",canvas.Screen,3_0_3_0_6_0_2,NA,NA,timeout,4998.134,639627.4,639617.131,639633.762,644615.455,644616.5,2023-03-24T08:29:55Z,644631.896,NULL,Tester,wanaojaribu,d,NA,NA,NA,NA,qt,0,3,NA,NA,NA,NA,NA,NA,NA,NA,NA,NA,NA,NA,NA,NA,NA,NA,NA,NA,NA
74f25,deep,flow.Sequence,3_0_3_0_6_0,NA,NA,completion,9629.999,634974.8,634968.713,634985.456,644615.455,644616.9,2023-03-24T08:29:55Z,644631.896,NULL,Tester,wanaojaribu,d,NA,NA,NA,NA,qt,NA,3,NA,NA,NA,NA,NA,NA,NA,NA,NA,NA,NA,NA,NA,NA,NA,NA,NA,NA,NA
74f25,shallow,flow.Sequence,3_0_3_0_6_1,NA,NA,skipped,NA,644617.1,NA,NA,644615.455,644617.2,2023-03-24T08:29:55Z,644631.896,NULL,Tester,wanaojaribu,d,NA,NA,NA,NA,qt,NA,3,NA,NA,NA,NA,NA,NA,NA,NA,NA,NA,NA,NA,NA,NA,NA,NA,NA,NA,NA
74f25,task,flow.Sequence,3_0_3_0_6,NA,NA,completion,9629.999,634974.8,634968.713,634985.456,644615.455,644617.3,2023-03-24T08:29:55Z,644631.896,NULL,Tester,wanaojaribu,d,NA,NA,NA,NA,qt,NA,3,NA,NA,NA,NA,NA,NA,NA,NA,NA,NA,NA,NA,NA,NA,NA,NA,NA,NA,NA
74f25,deep,flow.Sequence,3_0_3_0_7_0,NA,NA,skipped,NA,644617.4,NA,NA,644615.455,644617.5,2023-03-24T08:29:55Z,644631.896,NULL,Symbol,kielezo,s,kinyume,nderemo,utayari,NA,qt,NA,3,NA,NA,NA,NA,NA,NA,NA,NA,NA,NA,NA,NA,NA,NA,NA,NA,NA,NA,NA
74f25,Shallow Question,html.Page,3_0_3_0_7_1_0,NA,NA,form submission,9464.3040000002,644617.6,644615.455,644631.896,654096.2,654096.5,2023-03-24T08:30:05Z,654112.329,NULL,Symbol,kielezo,s,kinyume,nderemo,utayari,kielezo,NA,NA,3,NA,NA,NA,NA,NA,NA,NA,NA,NA,NA,NA,NA,NA,NA,NA,NA,NA,NA,NA
74f25,"""Richtig""-Screen",canvas.Screen,3_0_3_0_7_1_1,NA,NA,timeout,4998.35,654098.5,654079.089,654112.329,659094.009,659095,2023-03-24T08:30:10Z,659110.679,NULL,Symbol,kielezo,s,kinyume,nderemo,utayari,NA,qt,1,3,NA,NA,NA,NA,NA,NA,NA,NA,NA,NA,NA,NA,NA,NA,NA,NA,NA,NA,NA
74f25,"""Falsch""-Screen",canvas.Screen,3_0_3_0_7_1_2,NA,NA,skipped,NA,659098.9,NA,NA,659094.009,659099.1,2023-03-24T08:30:10Z,659110.679,NULL,Symbol,kielezo,s,kinyume,nderemo,utayari,NA,qt,NA,3,NA,NA,NA,NA,NA,NA,NA,NA,NA,NA,NA,NA,NA,NA,NA,NA,NA,NA,NA
74f25,shallow,flow.Sequence,3_0_3_0_7_1,NA,NA,completion,14462.113,644617.6,644615.455,644631.896,659094.009,659099.3,2023-03-24T08:30:10Z,659110.679,NULL,Symbol,kielezo,s,kinyume,nderemo,utayari,NA,qt,NA,3,NA,NA,NA,NA,NA,NA,NA,NA,NA,NA,NA,NA,NA,NA,NA,NA,NA,NA,NA
74f25,task,flow.Sequence,3_0_3_0_7,NA,NA,completion,14462.113,644617.4,644615.455,644631.896,659094.009,659099.5,2023-03-24T08:30:10Z,659110.679,NULL,Symbol,kielezo,s,kinyume,nderemo,utayari,NA,qt,NA,3,NA,NA,NA,NA,NA,NA,NA,NA,NA,NA,NA,NA,NA,NA,NA,NA,NA,NA,NA
74f25,block,flow.Loop,3_0_3_0,NA,NA,completion,80706.391,578402.5,578371.682,578387.618,659094.009,659099.6,2023-03-24T08:30:10Z,659110.679,NULL,NA,NA,NA,NA,NA,NA,NA,qt,NA,3,NA,NA,NA,NA,NA,NA,NA,NA,NA,NA,NA,NA,NA,NA,NA,NA,NA,NA,NA
74f25,weiter,canvas.Screen,3_0_3_1,sdf,keypress(Space),response,1465.1210000003,659099.8,659094.009,659110.679,660575.8,660577.6,2023-03-24T08:30:11Z,660893.065,NULL,NA,NA,NA,NA,NA,NA,NA,qt,NA,3,NA,NA,NA,NA,NA,NA,NA,NA,NA,NA,NA,NA,NA,NA,NA,NA,NA,NA,NA
74f25,check continue,flow.Sequence,3_0_3,NA,NA,completion,82188.182,578402.5,578371.682,578387.618,660575.8,660577.9,2023-03-24T08:30:11Z,660893.065,NULL,NA,NA,NA,NA,NA,NA,NA,qt,NA,3,NA,NA,NA,NA,NA,NA,NA,NA,NA,NA,NA,NA,NA,NA,NA,NA,NA,NA,NA
74f25,check continue,flow.Sequence,3_0_4,NA,NA,skipped,NA,660608.1,NA,NA,660575.8,660608.3,2023-03-24T08:30:11Z,660893.065,NULL,NA,NA,NA,NA,NA,NA,NA,sd,NA,4,NA,NA,NA,NA,NA,NA,NA,NA,NA,NA,NA,NA,NA,NA,NA,NA,NA,NA,NA
74f25,check continue,flow.Sequence,3_0_5,NA,NA,skipped,NA,660621.9,NA,NA,660575.8,660622,2023-03-24T08:30:11Z,660893.065,NULL,NA,NA,NA,NA,NA,NA,NA,sdf,NA,5,NA,NA,NA,NA,NA,NA,NA,NA,NA,NA,NA,NA,NA,NA,NA,NA,NA,NA,NA
74f25,check continue,flow.Sequence,3_0_6,NA,NA,skipped,NA,660637.1,NA,NA,660575.8,660637.1,2023-03-24T08:30:11Z,660893.065,NULL,NA,NA,NA,NA,NA,NA,NA,dfs,NA,6,NA,NA,NA,NA,NA,NA,NA,NA,NA,NA,NA,NA,NA,NA,NA,NA,NA,NA,NA
74f25,check continue,flow.Sequence,3_0_7,NA,NA,skipped,NA,660648.3,NA,NA,660575.8,660648.4,2023-03-24T08:30:11Z,660893.065,NULL,NA,NA,NA,NA,NA,NA,NA,df,NA,7,NA,NA,NA,NA,NA,NA,NA,NA,NA,NA,NA,NA,NA,NA,NA,NA,NA,NA,NA
74f25,check continue,flow.Sequence,3_0_8,NA,NA,skipped,NA,660660.3,NA,NA,660575.8,660660.4,2023-03-24T08:30:11Z,660893.065,NULL,NA,NA,NA,NA,NA,NA,NA,dfs,NA,8,NA,NA,NA,NA,NA,NA,NA,NA,NA,NA,NA,NA,NA,NA,NA,NA,NA,NA,NA
74f25,check continue,flow.Sequence,3_0_9,NA,NA,skipped,NA,660678,NA,NA,660575.8,660678.1,2023-03-24T08:30:11Z,660893.065,NULL,NA,NA,NA,NA,NA,NA,NA,dsf,NA,9,NA,NA,NA,NA,NA,NA,NA,NA,NA,NA,NA,NA,NA,NA,NA,NA,NA,NA,NA
74f25,check continue,flow.Sequence,3_0_10,NA,NA,skipped,NA,660694.5,NA,NA,660575.8,660694.6,2023-03-24T08:30:11Z,660893.065,NULL,NA,NA,NA,NA,NA,NA,NA,df,NA,10,NA,NA,NA,NA,NA,NA,NA,NA,NA,NA,NA,NA,NA,NA,NA,NA,NA,NA,NA
74f25,check continue,flow.Sequence,3_0_11,NA,NA,skipped,NA,660711.5,NA,NA,660575.8,660711.5,2023-03-24T08:30:11Z,660893.065,NULL,NA,NA,NA,NA,NA,NA,NA,dfs,NA,11,NA,NA,NA,NA,NA,NA,NA,NA,NA,NA,NA,NA,NA,NA,NA,NA,NA,NA,NA
74f25,check continue,flow.Sequence,3_0_12,NA,NA,skipped,NA,660727.2,NA,NA,660575.8,660727.3,2023-03-24T08:30:11Z,660893.065,NULL,NA,NA,NA,NA,NA,NA,NA,dsf,NA,12,NA,NA,NA,NA,NA,NA,NA,NA,NA,NA,NA,NA,NA,NA,NA,NA,NA,NA,NA
74f25,check continue,flow.Sequence,3_0_13,NA,NA,skipped,NA,660738.5,NA,NA,660575.8,660738.6,2023-03-24T08:30:11Z,660893.065,NULL,NA,NA,NA,NA,NA,NA,NA,dsf,NA,13,NA,NA,NA,NA,NA,NA,NA,NA,NA,NA,NA,NA,NA,NA,NA,NA,NA,NA,NA
74f25,check continue,flow.Sequence,3_0_14,NA,NA,skipped,NA,660750,NA,NA,660575.8,660750,2023-03-24T08:30:11Z,660893.065,NULL,NA,NA,NA,NA,NA,NA,NA,NA,NA,14,NA,NA,NA,NA,NA,NA,NA,NA,NA,NA,NA,NA,NA,NA,NA,NA,NA,NA,NA
74f25,check continue,flow.Sequence,3_0_15,NA,NA,skipped,NA,660759.6,NA,NA,660575.8,660759.6,2023-03-24T08:30:11Z,660893.065,NULL,NA,NA,NA,NA,NA,NA,NA,NA,NA,15,NA,NA,NA,NA,NA,NA,NA,NA,NA,NA,NA,NA,NA,NA,NA,NA,NA,NA,NA
74f25,check continue,flow.Sequence,3_0_16,NA,NA,skipped,NA,660772.6,NA,NA,660575.8,660772.6,2023-03-24T08:30:11Z,660893.065,NULL,NA,NA,NA,NA,NA,NA,NA,NA,NA,16,NA,NA,NA,NA,NA,NA,NA,NA,NA,NA,NA,NA,NA,NA,NA,NA,NA,NA,NA
74f25,check continue,flow.Sequence,3_0_17,NA,NA,skipped,NA,660782.2,NA,NA,660575.8,660782.4,2023-03-24T08:30:11Z,660893.065,NULL,NA,NA,NA,NA,NA,NA,NA,NA,NA,17,NA,NA,NA,NA,NA,NA,NA,NA,NA,NA,NA,NA,NA,NA,NA,NA,NA,NA,NA
74f25,check continue,flow.Sequence,3_0_18,NA,NA,skipped,NA,660791.2,NA,NA,660575.8,660791.3,2023-03-24T08:30:11Z,660893.065,NULL,NA,NA,NA,NA,NA,NA,NA,NA,NA,18,NA,NA,NA,NA,NA,NA,NA,NA,NA,NA,NA,NA,NA,NA,NA,NA,NA,NA,NA
74f25,check continue,flow.Sequence,3_0_19,NA,NA,skipped,NA,660802.1,NA,NA,660575.8,660802.2,2023-03-24T08:30:11Z,660893.065,NULL,NA,NA,NA,NA,NA,NA,NA,NA,NA,19,NA,NA,NA,NA,NA,NA,NA,NA,NA,NA,NA,NA,NA,NA,NA,NA,NA,NA,NA
74f25,check continue,flow.Sequence,3_0_20,NA,NA,skipped,NA,660811.5,NA,NA,660575.8,660811.6,2023-03-24T08:30:11Z,660893.065,NULL,NA,NA,NA,NA,NA,NA,NA,NA,NA,20,NA,NA,NA,NA,NA,NA,NA,NA,NA,NA,NA,NA,NA,NA,NA,NA,NA,NA,NA
74f25,check continue,flow.Sequence,3_0_21,NA,NA,skipped,NA,660821.9,NA,NA,660575.8,660822,2023-03-24T08:30:11Z,660893.065,NULL,NA,NA,NA,NA,NA,NA,NA,NA,NA,21,NA,NA,NA,NA,NA,NA,NA,NA,NA,NA,NA,NA,NA,NA,NA,NA,NA,NA,NA
74f25,check continue,flow.Sequence,3_0_22,NA,NA,skipped,NA,660830.6,NA,NA,660575.8,660830.8,2023-03-24T08:30:11Z,660893.065,NULL,NA,NA,NA,NA,NA,NA,NA,NA,NA,22,NA,NA,NA,NA,NA,NA,NA,NA,NA,NA,NA,NA,NA,NA,NA,NA,NA,NA,NA
74f25,check continue,flow.Sequence,3_0_23,NA,NA,skipped,NA,660840.6,NA,NA,660575.8,660840.6,2023-03-24T08:30:11Z,660893.065,NULL,NA,NA,NA,NA,NA,NA,NA,NA,NA,23,NA,NA,NA,NA,NA,NA,NA,NA,NA,NA,NA,NA,NA,NA,NA,NA,NA,NA,NA
74f25,check continue,flow.Sequence,3_0_24,NA,NA,skipped,NA,660849.3,NA,NA,660575.8,660849.4,2023-03-24T08:30:11Z,660893.065,NULL,NA,NA,NA,NA,NA,NA,NA,NA,NA,24,NA,NA,NA,NA,NA,NA,NA,NA,NA,NA,NA,NA,NA,NA,NA,NA,NA,NA,NA
74f25,check continue,flow.Sequence,3_0_25,NA,NA,skipped,NA,660857.9,NA,NA,660575.8,660858,2023-03-24T08:30:11Z,660893.065,NULL,NA,NA,NA,NA,NA,NA,NA,NA,NA,25,NA,NA,NA,NA,NA,NA,NA,NA,NA,NA,NA,NA,NA,NA,NA,NA,NA,NA,NA
74f25,check continue,flow.Sequence,3_0_26,NA,NA,skipped,NA,660868.5,NA,NA,660575.8,660868.6,2023-03-24T08:30:11Z,660893.065,NULL,NA,NA,NA,NA,NA,NA,NA,NA,NA,26,NA,NA,NA,NA,NA,NA,NA,NA,NA,NA,NA,NA,NA,NA,NA,NA,NA,NA,NA
74f25,check continue,flow.Sequence,3_0_27,NA,NA,skipped,NA,660879.1,NA,NA,660575.8,660879.2,2023-03-24T08:30:11Z,660893.065,NULL,NA,NA,NA,NA,NA,NA,NA,NA,NA,27,NA,NA,NA,NA,NA,NA,NA,NA,NA,NA,NA,NA,NA,NA,NA,NA,NA,NA,NA
74f25,check continue,flow.Sequence,3_0_28,NA,NA,skipped,NA,660889.7,NA,NA,660575.8,660889.8,2023-03-24T08:30:11Z,660893.065,NULL,NA,NA,NA,NA,NA,NA,NA,NA,NA,28,NA,NA,NA,NA,NA,NA,NA,NA,NA,NA,NA,NA,NA,NA,NA,NA,NA,NA,NA
74f25,check continue,flow.Sequence,3_0_29,NA,NA,skipped,NA,660899.1,NA,NA,660575.8,660899.1,2023-03-24T08:30:11Z,660893.065,NULL,NA,NA,NA,NA,NA,NA,NA,NA,NA,29,NA,NA,NA,NA,NA,NA,NA,NA,NA,NA,NA,NA,NA,NA,NA,NA,NA,NA,NA
74f25,until continue,flow.Loop,3_0,NA,NA,completion,350880.911,309683.5,309628.597,309694.889,660575.8,660899.2,2023-03-24T08:30:11Z,660893.065,NULL,NA,NA,NA,NA,NA,NA,NA,NA,NA,NA,NA,NA,NA,NA,NA,NA,NA,NA,NA,NA,NA,NA,NA,NA,NA,NA,NA,NA,NA
74f25,block 1,flow.Sequence,3,NA,NA,completion,350880.911,309683.5,309628.597,309694.889,660575.8,660899.2,2023-03-24T08:30:11Z,660893.065,NULL,NA,NA,NA,NA,NA,NA,NA,NA,NA,NA,NA,NA,NA,NA,NA,NA,NA,NA,NA,NA,NA,NA,NA,NA,NA,NA,NA,NA,NA
74f25,1.Part Over,canvas.Screen,4,NA,keypress(Space),response,1991.0350000001,660899.3,660560.903,660893.065,662884.1,662885.1,2023-03-24T08:30:13Z,662942.727,NULL,NA,NA,NA,NA,NA,NA,NA,NA,NA,NA,NA,NA,NA,NA,NA,NA,NA,NA,NA,NA,NA,NA,NA,NA,NA,NA,NA,NA,NA
74f25,deep,flow.Sequence,5_0_0_0_0_0,NA,NA,skipped,NA,662928.6,NA,NA,662884.1,662928.7,2023-03-24T08:30:13Z,662942.727,NULL,Toleranz,kuvumiliana,s,maombolezo,ujasusi,mchekeshaji,NA,sdf,NA,0,NA,NA,NA,NA,NA,NA,NA,NA,NA,NA,NA,NA,NA,NA,NA,NA,NA,NA,NA
74f25,Shallow Question,html.Page,5_0_0_0_0_1_0,NA,NA,form submission,6763.4730000002,662928.8,662925.183,662942.727,669706.2,669706.4,2023-03-24T08:30:20Z,669706.826,NULL,Toleranz,kuvumiliana,s,maombolezo,ujasusi,mchekeshaji,maombolezo,NA,NA,0,NA,NA,NA,NA,NA,NA,NA,NA,NA,NA,NA,NA,NA,NA,NA,NA,NA,NA,NA
74f25,"""Richtig""-Screen",canvas.Screen,5_0_0_0_0_1_1,NA,NA,skipped,NA,669708.6,NA,NA,669706.2,669708.7,2023-03-24T08:30:20Z,669706.826,NULL,Toleranz,kuvumiliana,s,maombolezo,ujasusi,mchekeshaji,NA,sdf,NA,0,NA,NA,NA,NA,NA,NA,NA,NA,NA,NA,NA,NA,NA,NA,NA,NA,NA,NA,NA
74f25,"""Falsch""-Screen",canvas.Screen,5_0_0_0_0_1_2,NA,NA,timeout,4998.626,669709.2,669690.31,669706.826,674688.641,674689.6,2023-03-24T08:30:25Z,674705.452,NULL,Toleranz,kuvumiliana,s,maombolezo,ujasusi,mchekeshaji,NA,sdf,0,0,NA,NA,NA,NA,NA,NA,NA,NA,NA,NA,NA,NA,NA,NA,NA,NA,NA,NA,NA
74f25,shallow,flow.Sequence,5_0_0_0_0_1,NA,NA,completion,11745.914,662928.8,662925.183,662942.727,674688.641,674689.9,2023-03-24T08:30:25Z,674705.452,NULL,Toleranz,kuvumiliana,s,maombolezo,ujasusi,mchekeshaji,NA,sdf,NA,0,NA,NA,NA,NA,NA,NA,NA,NA,NA,NA,NA,NA,NA,NA,NA,NA,NA,NA,NA
74f25,task,flow.Sequence,5_0_0_0_0,NA,NA,completion,11745.914,662928.6,662925.183,662942.727,674688.641,674690,2023-03-24T08:30:25Z,674705.452,NULL,Toleranz,kuvumiliana,s,maombolezo,ujasusi,mchekeshaji,NA,sdf,NA,0,NA,NA,NA,NA,NA,NA,NA,NA,NA,NA,NA,NA,NA,NA,NA,NA,NA,NA,NA
74f25,Deep Question,html.Page,5_0_0_0_1_0_0,NA,NA,form submission,4169.048,674690.2,674688.641,674705.452,678874.5,678874.7,2023-03-24T08:30:29Z,678887.359,NULL,Inhalt,yaliyomo,d,NA,NA,NA,er,NA,NA,0,NA,NA,NA,NA,NA,NA,NA,NA,NA,NA,NA,NA,NA,NA,NA,NA,NA,NA,NA
74f25,"""Richtig""-Screen",canvas.Screen,5_0_0_0_1_0_1,NA,NA,skipped,NA,678876.8,NA,NA,678874.5,678877,2023-03-24T08:30:29Z,678887.359,NULL,Inhalt,yaliyomo,d,NA,NA,NA,NA,sdf,NA,0,NA,NA,NA,NA,NA,NA,NA,NA,NA,NA,NA,NA,NA,NA,NA,NA,NA,NA,NA
74f25,"""Falsch""-Screen",canvas.Screen,5_0_0_0_1_0_2,NA,NA,timeout,4998.1989999999,678877.6,678870.645,678887.359,683868.98,683870,2023-03-24T08:30:34Z,683885.558,NULL,Inhalt,yaliyomo,d,NA,NA,NA,NA,sdf,0,0,NA,NA,NA,NA,NA,NA,NA,NA,NA,NA,NA,NA,NA,NA,NA,NA,NA,NA,NA
74f25,deep,flow.Sequence,5_0_0_0_1_0,NA,NA,completion,9163.5279999999,674690.2,674688.641,674705.452,683868.98,683870.3,2023-03-24T08:30:34Z,683885.558,NULL,Inhalt,yaliyomo,d,NA,NA,NA,NA,sdf,NA,0,NA,NA,NA,NA,NA,NA,NA,NA,NA,NA,NA,NA,NA,NA,NA,NA,NA,NA,NA
74f25,shallow,flow.Sequence,5_0_0_0_1_1,NA,NA,skipped,NA,683870.4,NA,NA,683868.98,683870.5,2023-03-24T08:30:34Z,683885.558,NULL,Inhalt,yaliyomo,d,NA,NA,NA,NA,sdf,NA,0,NA,NA,NA,NA,NA,NA,NA,NA,NA,NA,NA,NA,NA,NA,NA,NA,NA,NA,NA
74f25,task,flow.Sequence,5_0_0_0_1,NA,NA,completion,9163.5279999999,674690.1,674688.641,674705.452,683868.98,683870.7,2023-03-24T08:30:34Z,683885.558,NULL,Inhalt,yaliyomo,d,NA,NA,NA,NA,sdf,NA,0,NA,NA,NA,NA,NA,NA,NA,NA,NA,NA,NA,NA,NA,NA,NA,NA,NA,NA,NA
74f25,Deep Question,html.Page,5_0_0_0_2_0_0,NA,NA,form submission,3124.942,683871,683868.98,683885.558,687010.5,687010.7,2023-03-24T08:30:38Z,687017.587,NULL,Beweis,ushahidi,d,NA,NA,NA,fefre,NA,NA,0,NA,NA,NA,NA,NA,NA,NA,NA,NA,NA,NA,NA,NA,NA,NA,NA,NA,NA,NA
74f25,"""Richtig""-Screen",canvas.Screen,5_0_0_0_2_0_1,NA,NA,skipped,NA,687013.2,NA,NA,687010.5,687013.2,2023-03-24T08:30:38Z,687017.587,NULL,Beweis,ushahidi,d,NA,NA,NA,NA,sdf,NA,0,NA,NA,NA,NA,NA,NA,NA,NA,NA,NA,NA,NA,NA,NA,NA,NA,NA,NA,NA
74f25,"""Falsch""-Screen",canvas.Screen,5_0_0_0_2_0_2,NA,NA,timeout,4998.664,687013.9,687001.25,687017.587,691999.574,692000.5,2023-03-24T08:30:43Z,692016.251,NULL,Beweis,ushahidi,d,NA,NA,NA,NA,sdf,0,0,NA,NA,NA,NA,NA,NA,NA,NA,NA,NA,NA,NA,NA,NA,NA,NA,NA,NA,NA
74f25,deep,flow.Sequence,5_0_0_0_2_0,NA,NA,completion,8114.0160000001,683870.9,683868.98,683885.558,691999.574,692000.8,2023-03-24T08:30:43Z,692016.251,NULL,Beweis,ushahidi,d,NA,NA,NA,NA,sdf,NA,0,NA,NA,NA,NA,NA,NA,NA,NA,NA,NA,NA,NA,NA,NA,NA,NA,NA,NA,NA
74f25,shallow,flow.Sequence,5_0_0_0_2_1,NA,NA,skipped,NA,692000.9,NA,NA,691999.574,692001,2023-03-24T08:30:43Z,692016.251,NULL,Beweis,ushahidi,d,NA,NA,NA,NA,sdf,NA,0,NA,NA,NA,NA,NA,NA,NA,NA,NA,NA,NA,NA,NA,NA,NA,NA,NA,NA,NA
74f25,task,flow.Sequence,5_0_0_0_2,NA,NA,completion,8114.0160000001,683870.9,683868.98,683885.558,691999.574,692001.1,2023-03-24T08:30:43Z,692016.251,NULL,Beweis,ushahidi,d,NA,NA,NA,NA,sdf,NA,0,NA,NA,NA,NA,NA,NA,NA,NA,NA,NA,NA,NA,NA,NA,NA,NA,NA,NA,NA
74f25,Deep Question,html.Page,5_0_0_0_3_0_0,NA,NA,form submission,4407.849,692001.3,691999.574,692016.251,696424.1,696424.3,2023-03-24T08:30:47Z,696431.291,NULL,Polizist,msongora,d,NA,NA,NA,eer,NA,NA,0,NA,NA,NA,NA,NA,NA,NA,NA,NA,NA,NA,NA,NA,NA,NA,NA,NA,NA,NA
74f25,"""Richtig""-Screen",canvas.Screen,5_0_0_0_3_0_1,NA,NA,skipped,NA,696426.8,NA,NA,696424.1,696427,2023-03-24T08:30:47Z,696431.291,NULL,Polizist,msongora,d,NA,NA,NA,NA,sdf,NA,0,NA,NA,NA,NA,NA,NA,NA,NA,NA,NA,NA,NA,NA,NA,NA,NA,NA,NA,NA
74f25,"""Falsch""-Screen",canvas.Screen,5_0_0_0_3_0_2,NA,NA,timeout,4998.309,696427.7,696414.646,696431.291,701412.939,701413.8,2023-03-24T08:30:52Z,701429.6,NULL,Polizist,msongora,d,NA,NA,NA,NA,sdf,0,0,NA,NA,NA,NA,NA,NA,NA,NA,NA,NA,NA,NA,NA,NA,NA,NA,NA,NA,NA
74f25,deep,flow.Sequence,5_0_0_0_3_0,NA,NA,completion,9396.688,692001.3,691999.574,692016.251,701412.939,701414.1,2023-03-24T08:30:52Z,701429.6,NULL,Polizist,msongora,d,NA,NA,NA,NA,sdf,NA,0,NA,NA,NA,NA,NA,NA,NA,NA,NA,NA,NA,NA,NA,NA,NA,NA,NA,NA,NA
74f25,shallow,flow.Sequence,5_0_0_0_3_1,NA,NA,skipped,NA,701414.1,NA,NA,701412.939,701414.3,2023-03-24T08:30:52Z,701429.6,NULL,Polizist,msongora,d,NA,NA,NA,NA,sdf,NA,0,NA,NA,NA,NA,NA,NA,NA,NA,NA,NA,NA,NA,NA,NA,NA,NA,NA,NA,NA
74f25,task,flow.Sequence,5_0_0_0_3,NA,NA,completion,9396.688,692001.3,691999.574,692016.251,701412.939,701414.4,2023-03-24T08:30:52Z,701429.6,NULL,Polizist,msongora,d,NA,NA,NA,NA,sdf,NA,0,NA,NA,NA,NA,NA,NA,NA,NA,NA,NA,NA,NA,NA,NA,NA,NA,NA,NA,NA
74f25,Deep Question,html.Page,5_0_0_0_4_0_0,NA,NA,form submission,3100.7000000003,701414.6,701412.939,701429.6,704530.3,704530.5,2023-03-24T08:30:55Z,704545.096,NULL,Vermutung,udhanifu,d,NA,NA,NA,dfd,NA,NA,0,NA,NA,NA,NA,NA,NA,NA,NA,NA,NA,NA,NA,NA,NA,NA,NA,NA,NA,NA
74f25,"""Richtig""-Screen",canvas.Screen,5_0_0_0_4_0_1,NA,NA,skipped,NA,704532.8,NA,NA,704530.3,704532.9,2023-03-24T08:30:55Z,704545.096,NULL,Vermutung,udhanifu,d,NA,NA,NA,NA,sdf,NA,0,NA,NA,NA,NA,NA,NA,NA,NA,NA,NA,NA,NA,NA,NA,NA,NA,NA,NA,NA
74f25,"""Falsch""-Screen",canvas.Screen,5_0_0_0_4_0_2,NA,NA,timeout,4998.562,704533.5,704528.57,704545.096,709526.953,709528.5,2023-03-24T08:31:00Z,709543.658,NULL,Vermutung,udhanifu,d,NA,NA,NA,NA,sdf,0,0,NA,NA,NA,NA,NA,NA,NA,NA,NA,NA,NA,NA,NA,NA,NA,NA,NA,NA,NA
74f25,deep,flow.Sequence,5_0_0_0_4_0,NA,NA,completion,8097.353,701414.5,701412.939,701429.6,709526.953,709528.8,2023-03-24T08:31:00Z,709543.658,NULL,Vermutung,udhanifu,d,NA,NA,NA,NA,sdf,NA,0,NA,NA,NA,NA,NA,NA,NA,NA,NA,NA,NA,NA,NA,NA,NA,NA,NA,NA,NA
74f25,shallow,flow.Sequence,5_0_0_0_4_1,NA,NA,skipped,NA,709528.8,NA,NA,709526.953,709528.9,2023-03-24T08:31:00Z,709543.658,NULL,Vermutung,udhanifu,d,NA,NA,NA,NA,sdf,NA,0,NA,NA,NA,NA,NA,NA,NA,NA,NA,NA,NA,NA,NA,NA,NA,NA,NA,NA,NA
74f25,task,flow.Sequence,5_0_0_0_4,NA,NA,completion,8097.353,701414.5,701412.939,701429.6,709526.953,709529.1,2023-03-24T08:31:00Z,709543.658,NULL,Vermutung,udhanifu,d,NA,NA,NA,NA,sdf,NA,0,NA,NA,NA,NA,NA,NA,NA,NA,NA,NA,NA,NA,NA,NA,NA,NA,NA,NA,NA
74f25,deep,flow.Sequence,5_0_0_0_5_0,NA,NA,skipped,NA,709529.2,NA,NA,709526.953,709529.2,2023-03-24T08:31:00Z,709543.658,NULL,Annäherung,maegesho,s,madahili,kujiamini,mapendekezo,NA,sdf,NA,0,NA,NA,NA,NA,NA,NA,NA,NA,NA,NA,NA,NA,NA,NA,NA,NA,NA,NA,NA
74f25,Shallow Question,html.Page,5_0_0_0_5_1_0,NA,NA,form submission,8218.942,709529.4,709526.953,709543.658,717762.6,717762.8,2023-03-24T08:31:08Z,717773.956,NULL,Annäherung,maegesho,s,madahili,kujiamini,mapendekezo,madahili,NA,NA,0,NA,NA,NA,NA,NA,NA,NA,NA,NA,NA,NA,NA,NA,NA,NA,NA,NA,NA,NA
74f25,"""Richtig""-Screen",canvas.Screen,5_0_0_0_5_1_1,NA,NA,skipped,NA,717765,NA,NA,717762.6,717765.1,2023-03-24T08:31:08Z,717773.956,NULL,Annäherung,maegesho,s,madahili,kujiamini,mapendekezo,NA,sdf,NA,0,NA,NA,NA,NA,NA,NA,NA,NA,NA,NA,NA,NA,NA,NA,NA,NA,NA,NA,NA
74f25,"""Falsch""-Screen",canvas.Screen,5_0_0_0_5_1_2,NA,NA,timeout,4998.525,717765.7,717757.582,717773.956,722755.854,722756.8,2023-03-24T08:31:13Z,722772.481,NULL,Annäherung,maegesho,s,madahili,kujiamini,mapendekezo,NA,sdf,0,0,NA,NA,NA,NA,NA,NA,NA,NA,NA,NA,NA,NA,NA,NA,NA,NA,NA,NA,NA
74f25,shallow,flow.Sequence,5_0_0_0_5_1,NA,NA,completion,13212.196,709529.3,709526.953,709543.658,722755.854,722757.1,2023-03-24T08:31:13Z,722772.481,NULL,Annäherung,maegesho,s,madahili,kujiamini,mapendekezo,NA,sdf,NA,0,NA,NA,NA,NA,NA,NA,NA,NA,NA,NA,NA,NA,NA,NA,NA,NA,NA,NA,NA
74f25,task,flow.Sequence,5_0_0_0_5,NA,NA,completion,13212.196,709529.2,709526.953,709543.658,722755.854,722757.3,2023-03-24T08:31:13Z,722772.481,NULL,Annäherung,maegesho,s,madahili,kujiamini,mapendekezo,NA,sdf,NA,0,NA,NA,NA,NA,NA,NA,NA,NA,NA,NA,NA,NA,NA,NA,NA,NA,NA,NA,NA
74f25,deep,flow.Sequence,5_0_0_0_6_0,NA,NA,skipped,NA,722757.4,NA,NA,722755.854,722757.5,2023-03-24T08:31:13Z,722772.481,NULL,Sympathie,mapendano,s,dhamiria,fungamano,maazimio,NA,sdf,NA,0,NA,NA,NA,NA,NA,NA,NA,NA,NA,NA,NA,NA,NA,NA,NA,NA,NA,NA,NA
74f25,Shallow Question,html.Page,5_0_0_0_6_1_0,NA,NA,form submission,4810.1190000001,722757.6,722755.854,722772.481,727582.6,727582.8,2023-03-24T08:31:18Z,727587.281,NULL,Sympathie,mapendano,s,dhamiria,fungamano,maazimio,maazimio,NA,NA,0,NA,NA,NA,NA,NA,NA,NA,NA,NA,NA,NA,NA,NA,NA,NA,NA,NA,NA,NA
74f25,"""Richtig""-Screen",canvas.Screen,5_0_0_0_6_1_1,NA,NA,skipped,NA,727584.9,NA,NA,727582.6,727585,2023-03-24T08:31:18Z,727587.281,NULL,Sympathie,mapendano,s,dhamiria,fungamano,maazimio,NA,sdf,NA,0,NA,NA,NA,NA,NA,NA,NA,NA,NA,NA,NA,NA,NA,NA,NA,NA,NA,NA,NA
74f25,"""Falsch""-Screen",canvas.Screen,5_0_0_0_6_1_2,NA,NA,timeout,4998.626,727585.5,727570.959,727587.281,732569.118,732570.4,2023-03-24T08:31:23Z,732585.907,NULL,Sympathie,mapendano,s,dhamiria,fungamano,maazimio,NA,sdf,0,0,NA,NA,NA,NA,NA,NA,NA,NA,NA,NA,NA,NA,NA,NA,NA,NA,NA,NA,NA
74f25,shallow,flow.Sequence,5_0_0_0_6_1,NA,NA,completion,9796.637,722757.6,722755.854,722772.481,732569.118,732570.7,2023-03-24T08:31:23Z,732585.907,NULL,Sympathie,mapendano,s,dhamiria,fungamano,maazimio,NA,sdf,NA,0,NA,NA,NA,NA,NA,NA,NA,NA,NA,NA,NA,NA,NA,NA,NA,NA,NA,NA,NA
74f25,task,flow.Sequence,5_0_0_0_6,NA,NA,completion,9796.637,722757.4,722755.854,722772.481,732569.118,732570.9,2023-03-24T08:31:23Z,732585.907,NULL,Sympathie,mapendano,s,dhamiria,fungamano,maazimio,NA,sdf,NA,0,NA,NA,NA,NA,NA,NA,NA,NA,NA,NA,NA,NA,NA,NA,NA,NA,NA,NA,NA
74f25,deep,flow.Sequence,5_0_0_0_7_0,NA,NA,skipped,NA,732571.1,NA,NA,732569.118,732571.1,2023-03-24T08:31:23Z,732585.907,NULL,Schlange,foleni,s,uvumilivu,uteuzi,muuzaji,NA,sdf,NA,0,NA,NA,NA,NA,NA,NA,NA,NA,NA,NA,NA,NA,NA,NA,NA,NA,NA,NA,NA
74f25,Shallow Question,html.Page,5_0_0_0_7_1_0,NA,NA,form submission,6242.7930000002,732571.2,732569.118,732585.907,738828.7,738828.9,2023-03-24T08:31:29Z,738833.465,NULL,Schlange,foleni,s,uvumilivu,uteuzi,muuzaji,uteuzi,NA,NA,0,NA,NA,NA,NA,NA,NA,NA,NA,NA,NA,NA,NA,NA,NA,NA,NA,NA,NA,NA
74f25,"""Richtig""-Screen",canvas.Screen,5_0_0_0_7_1_1,NA,NA,skipped,NA,738831,NA,NA,738828.7,738831.1,2023-03-24T08:31:29Z,738833.465,NULL,Schlange,foleni,s,uvumilivu,uteuzi,muuzaji,NA,sdf,NA,0,NA,NA,NA,NA,NA,NA,NA,NA,NA,NA,NA,NA,NA,NA,NA,NA,NA,NA,NA
74f25,"""Falsch""-Screen",canvas.Screen,5_0_0_0_7_1_2,NA,NA,timeout,4998.272,738831.7,738817.132,738833.465,743815.374,743816.7,2023-03-24T08:31:34Z,743831.737,NULL,Schlange,foleni,s,uvumilivu,uteuzi,muuzaji,NA,sdf,0,0,NA,NA,NA,NA,NA,NA,NA,NA,NA,NA,NA,NA,NA,NA,NA,NA,NA,NA,NA
74f25,shallow,flow.Sequence,5_0_0_0_7_1,NA,NA,completion,11229.467,732571.2,732569.118,732585.907,743815.374,743817,2023-03-24T08:31:34Z,743831.737,NULL,Schlange,foleni,s,uvumilivu,uteuzi,muuzaji,NA,sdf,NA,0,NA,NA,NA,NA,NA,NA,NA,NA,NA,NA,NA,NA,NA,NA,NA,NA,NA,NA,NA
74f25,task,flow.Sequence,5_0_0_0_7,NA,NA,completion,11229.467,732571,732569.118,732585.907,743815.374,743817.2,2023-03-24T08:31:34Z,743831.737,NULL,Schlange,foleni,s,uvumilivu,uteuzi,muuzaji,NA,sdf,NA,0,NA,NA,NA,NA,NA,NA,NA,NA,NA,NA,NA,NA,NA,NA,NA,NA,NA,NA,NA
74f25,block,flow.Loop,5_0_0_0,NA,NA,completion,80872.647,662928.6,662925.183,662942.727,743815.374,743817.3,2023-03-24T08:31:34Z,743831.737,NULL,NA,NA,NA,NA,NA,NA,NA,sdf,NA,0,NA,NA,NA,NA,NA,NA,NA,NA,NA,NA,NA,NA,NA,NA,NA,NA,NA,NA,NA
74f25,weiter,canvas.Screen,5_0_0_1,sdf,keypress(Space),response,1043.8630000001,743817.5,743815.374,743831.737,744875.6,744880.1,2023-03-24T08:31:35Z,744898.033,NULL,NA,NA,NA,NA,NA,NA,NA,sdf,NA,0,NA,NA,NA,NA,NA,NA,NA,NA,NA,NA,NA,NA,NA,NA,NA,NA,NA,NA,NA
74f25,check continue,flow.Sequence,5_0_0,NA,NA,completion,81932.873,662928.6,662925.183,662942.727,744875.6,744880.5,2023-03-24T08:31:35Z,744898.033,NULL,NA,NA,NA,NA,NA,NA,NA,sdf,NA,0,NA,NA,NA,NA,NA,NA,NA,NA,NA,NA,NA,NA,NA,NA,NA,NA,NA,NA,NA
74f25,Deep Question,html.Page,5_0_1_0_0_0_0,NA,NA,form submission,4048.067,744908.6,744865.027,744898.033,748946.1,748946.3,2023-03-24T08:31:40Z,748946.69,NULL,Inhalt,yaliyomo,d,NA,NA,NA,er,NA,NA,1,NA,NA,NA,NA,NA,NA,NA,NA,NA,NA,NA,NA,NA,NA,NA,NA,NA,NA,NA
74f25,"""Richtig""-Screen",canvas.Screen,5_0_1_0_0_0_1,NA,NA,skipped,NA,748948.8,NA,NA,748946.1,748948.9,2023-03-24T08:31:40Z,748946.69,NULL,Inhalt,yaliyomo,d,NA,NA,NA,NA,sdfdsf,NA,1,NA,NA,NA,NA,NA,NA,NA,NA,NA,NA,NA,NA,NA,NA,NA,NA,NA,NA,NA
74f25,"""Falsch""-Screen",canvas.Screen,5_0_1_0_0_0_2,NA,NA,timeout,4998.564,748949.6,748930.42,748946.69,753928.676,753929.6,2023-03-24T08:31:44Z,753945.254,NULL,Inhalt,yaliyomo,d,NA,NA,NA,NA,sdfdsf,0,1,NA,NA,NA,NA,NA,NA,NA,NA,NA,NA,NA,NA,NA,NA,NA,NA,NA,NA,NA
74f25,deep,flow.Sequence,5_0_1_0_0_0,NA,NA,completion,9030.6429999999,744908.6,744865.027,744898.033,753928.676,753929.9,2023-03-24T08:31:44Z,753945.254,NULL,Inhalt,yaliyomo,d,NA,NA,NA,NA,sdfdsf,NA,1,NA,NA,NA,NA,NA,NA,NA,NA,NA,NA,NA,NA,NA,NA,NA,NA,NA,NA,NA
74f25,shallow,flow.Sequence,5_0_1_0_0_1,NA,NA,skipped,NA,753930,NA,NA,753928.676,753930.1,2023-03-24T08:31:44Z,753945.254,NULL,Inhalt,yaliyomo,d,NA,NA,NA,NA,sdfdsf,NA,1,NA,NA,NA,NA,NA,NA,NA,NA,NA,NA,NA,NA,NA,NA,NA,NA,NA,NA,NA
74f25,task,flow.Sequence,5_0_1_0_0,NA,NA,completion,9030.6429999999,744908.6,744865.027,744898.033,753928.676,753930.3,2023-03-24T08:31:44Z,753945.254,NULL,Inhalt,yaliyomo,d,NA,NA,NA,NA,sdfdsf,NA,1,NA,NA,NA,NA,NA,NA,NA,NA,NA,NA,NA,NA,NA,NA,NA,NA,NA,NA,NA
74f25,deep,flow.Sequence,5_0_1_0_1_0,NA,NA,skipped,NA,753930.4,NA,NA,753928.676,753930.4,2023-03-24T08:31:44Z,753945.254,NULL,Annäherung,maegesho,s,madahili,kujiamini,mapendekezo,NA,sdfdsf,NA,1,NA,NA,NA,NA,NA,NA,NA,NA,NA,NA,NA,NA,NA,NA,NA,NA,NA,NA,NA
74f25,Shallow Question,html.Page,5_0_1_0_1_1_0,NA,NA,form submission,9323.246,753930.5,753928.676,753945.254,763268.5,763268.7,2023-03-24T08:31:54Z,763275.219,NULL,Annäherung,maegesho,s,madahili,kujiamini,mapendekezo,mapendekezo,NA,NA,1,NA,NA,NA,NA,NA,NA,NA,NA,NA,NA,NA,NA,NA,NA,NA,NA,NA,NA,NA
74f25,"""Richtig""-Screen",canvas.Screen,5_0_1_0_1_1_1,NA,NA,skipped,NA,763270.9,NA,NA,763268.5,763271,2023-03-24T08:31:54Z,763275.219,NULL,Annäherung,maegesho,s,madahili,kujiamini,mapendekezo,NA,sdfdsf,NA,1,NA,NA,NA,NA,NA,NA,NA,NA,NA,NA,NA,NA,NA,NA,NA,NA,NA,NA,NA
74f25,"""Falsch""-Screen",canvas.Screen,5_0_1_0_1_1_2,NA,NA,timeout,4998.583,763271.6,763258.878,763275.219,768257.181,768258,2023-03-24T08:31:59Z,768273.802,NULL,Annäherung,maegesho,s,madahili,kujiamini,mapendekezo,NA,sdfdsf,0,1,NA,NA,NA,NA,NA,NA,NA,NA,NA,NA,NA,NA,NA,NA,NA,NA,NA,NA,NA
74f25,shallow,flow.Sequence,5_0_1_0_1_1,NA,NA,completion,14311.927,753930.5,753928.676,753945.254,768257.181,768258.3,2023-03-24T08:31:59Z,768273.802,NULL,Annäherung,maegesho,s,madahili,kujiamini,mapendekezo,NA,sdfdsf,NA,1,NA,NA,NA,NA,NA,NA,NA,NA,NA,NA,NA,NA,NA,NA,NA,NA,NA,NA,NA
74f25,task,flow.Sequence,5_0_1_0_1,NA,NA,completion,14311.927,753930.3,753928.676,753945.254,768257.181,768258.6,2023-03-24T08:31:59Z,768273.802,NULL,Annäherung,maegesho,s,madahili,kujiamini,mapendekezo,NA,sdfdsf,NA,1,NA,NA,NA,NA,NA,NA,NA,NA,NA,NA,NA,NA,NA,NA,NA,NA,NA,NA,NA
74f25,deep,flow.Sequence,5_0_1_0_2_0,NA,NA,skipped,NA,768258.8,NA,NA,768257.181,768258.9,2023-03-24T08:31:59Z,768273.802,NULL,Sympathie,mapendano,s,dhamiria,fungamano,maazimio,NA,sdfdsf,NA,1,NA,NA,NA,NA,NA,NA,NA,NA,NA,NA,NA,NA,NA,NA,NA,NA,NA,NA,NA
74f25,Shallow Question,html.Page,5_0_1_0_2_1_0,NA,NA,form submission,3984.8980000002002,768259.1,768257.181,768273.802,772258.7,772258.9,2023-03-24T08:32:03Z,772272.159,NULL,Sympathie,mapendano,s,dhamiria,fungamano,maazimio,mapendano,NA,NA,1,NA,NA,NA,NA,NA,NA,NA,NA,NA,NA,NA,NA,NA,NA,NA,NA,NA,NA,NA
74f25,"""Richtig""-Screen",canvas.Screen,5_0_1_0_2_1_1,NA,NA,timeout,4998.633,772261,772256.004,772272.159,777254.122,777255.1,2023-03-24T08:32:08Z,777270.792,NULL,Sympathie,mapendano,s,dhamiria,fungamano,maazimio,NA,sdfdsf,1,1,NA,NA,NA,NA,NA,NA,NA,NA,NA,NA,NA,NA,NA,NA,NA,NA,NA,NA,NA
74f25,"""Falsch""-Screen",canvas.Screen,5_0_1_0_2_1_2,NA,NA,skipped,NA,777259,NA,NA,777254.122,777259.3,2023-03-24T08:32:08Z,777270.792,NULL,Sympathie,mapendano,s,dhamiria,fungamano,maazimio,NA,sdfdsf,NA,1,NA,NA,NA,NA,NA,NA,NA,NA,NA,NA,NA,NA,NA,NA,NA,NA,NA,NA,NA
74f25,shallow,flow.Sequence,5_0_1_0_2_1,NA,NA,completion,8980.3199999999,768259,768257.181,768273.802,777254.122,777259.5,2023-03-24T08:32:08Z,777270.792,NULL,Sympathie,mapendano,s,dhamiria,fungamano,maazimio,NA,sdfdsf,NA,1,NA,NA,NA,NA,NA,NA,NA,NA,NA,NA,NA,NA,NA,NA,NA,NA,NA,NA,NA
74f25,task,flow.Sequence,5_0_1_0_2,NA,NA,completion,8980.3199999999,768258.8,768257.181,768273.802,777254.122,777259.7,2023-03-24T08:32:08Z,777270.792,NULL,Sympathie,mapendano,s,dhamiria,fungamano,maazimio,NA,sdfdsf,NA,1,NA,NA,NA,NA,NA,NA,NA,NA,NA,NA,NA,NA,NA,NA,NA,NA,NA,NA,NA
74f25,Deep Question,html.Page,5_0_1_0_3_0_0,NA,NA,form submission,12337.408,777259.9,777254.122,777270.792,789608.2,789608.4,2023-03-24T08:32:20Z,789616.545,NULL,Beweis,ushahidi,d,NA,NA,NA,sdfs,NA,NA,1,NA,NA,NA,NA,NA,NA,NA,NA,NA,NA,NA,NA,NA,NA,NA,NA,NA,NA,NA
74f25,"""Richtig""-Screen",canvas.Screen,5_0_1_0_3_0_1,NA,NA,skipped,NA,789610.6,NA,NA,789608.2,789610.6,2023-03-24T08:32:20Z,789616.545,NULL,Beweis,ushahidi,d,NA,NA,NA,NA,sdfdsf,NA,1,NA,NA,NA,NA,NA,NA,NA,NA,NA,NA,NA,NA,NA,NA,NA,NA,NA,NA,NA
74f25,"""Falsch""-Screen",canvas.Screen,5_0_1_0_3_0_2,NA,NA,timeout,4998.423,789611.3,789599.863,789616.545,794598.196,794599.1,2023-03-24T08:32:25Z,794614.968,NULL,Beweis,ushahidi,d,NA,NA,NA,NA,sdfdsf,0,1,NA,NA,NA,NA,NA,NA,NA,NA,NA,NA,NA,NA,NA,NA,NA,NA,NA,NA,NA
74f25,deep,flow.Sequence,5_0_1_0_3_0,NA,NA,completion,17327.404,777259.8,777254.122,777270.792,794598.196,794599.6,2023-03-24T08:32:25Z,794614.968,NULL,Beweis,ushahidi,d,NA,NA,NA,NA,sdfdsf,NA,1,NA,NA,NA,NA,NA,NA,NA,NA,NA,NA,NA,NA,NA,NA,NA,NA,NA,NA,NA
74f25,shallow,flow.Sequence,5_0_1_0_3_1,NA,NA,skipped,NA,794599.7,NA,NA,794598.196,794599.8,2023-03-24T08:32:25Z,794614.968,NULL,Beweis,ushahidi,d,NA,NA,NA,NA,sdfdsf,NA,1,NA,NA,NA,NA,NA,NA,NA,NA,NA,NA,NA,NA,NA,NA,NA,NA,NA,NA,NA
74f25,task,flow.Sequence,5_0_1_0_3,NA,NA,completion,17327.404,777259.8,777254.122,777270.792,794598.196,794600.1,2023-03-24T08:32:25Z,794614.968,NULL,Beweis,ushahidi,d,NA,NA,NA,NA,sdfdsf,NA,1,NA,NA,NA,NA,NA,NA,NA,NA,NA,NA,NA,NA,NA,NA,NA,NA,NA,NA,NA
74f25,Deep Question,html.Page,5_0_1_0_4_0_0,NA,NA,form submission,3429.3320000003,794600.2,794598.196,794614.968,798044.3,798044.6,2023-03-24T08:32:29Z,798063.752,NULL,Vermutung,udhanifu,d,NA,NA,NA,sdfd,NA,NA,1,NA,NA,NA,NA,NA,NA,NA,NA,NA,NA,NA,NA,NA,NA,NA,NA,NA,NA,NA
74f25,"""Richtig""-Screen",canvas.Screen,5_0_1_0_4_0_1,NA,NA,skipped,NA,798046.6,NA,NA,798044.3,798046.7,2023-03-24T08:32:29Z,798063.752,NULL,Vermutung,udhanifu,d,NA,NA,NA,NA,sdfdsf,NA,1,NA,NA,NA,NA,NA,NA,NA,NA,NA,NA,NA,NA,NA,NA,NA,NA,NA,NA,NA
74f25,"""Falsch""-Screen",canvas.Screen,5_0_1_0_4_0_2,NA,NA,timeout,4998.294,798047.5,798046.844,798063.752,803045.323,803046.9,2023-03-24T08:32:34Z,803062.046,NULL,Vermutung,udhanifu,d,NA,NA,NA,NA,sdfdsf,0,1,NA,NA,NA,NA,NA,NA,NA,NA,NA,NA,NA,NA,NA,NA,NA,NA,NA,NA,NA
74f25,deep,flow.Sequence,5_0_1_0_4_0,NA,NA,completion,8430.355,794600.1,794598.196,794614.968,803045.323,803047.3,2023-03-24T08:32:34Z,803062.046,NULL,Vermutung,udhanifu,d,NA,NA,NA,NA,sdfdsf,NA,1,NA,NA,NA,NA,NA,NA,NA,NA,NA,NA,NA,NA,NA,NA,NA,NA,NA,NA,NA
74f25,shallow,flow.Sequence,5_0_1_0_4_1,NA,NA,skipped,NA,803047.3,NA,NA,803045.323,803047.5,2023-03-24T08:32:34Z,803062.046,NULL,Vermutung,udhanifu,d,NA,NA,NA,NA,sdfdsf,NA,1,NA,NA,NA,NA,NA,NA,NA,NA,NA,NA,NA,NA,NA,NA,NA,NA,NA,NA,NA
74f25,task,flow.Sequence,5_0_1_0_4,NA,NA,completion,8430.355,794600.1,794598.196,794614.968,803045.323,803047.5,2023-03-24T08:32:34Z,803062.046,NULL,Vermutung,udhanifu,d,NA,NA,NA,NA,sdfdsf,NA,1,NA,NA,NA,NA,NA,NA,NA,NA,NA,NA,NA,NA,NA,NA,NA,NA,NA,NA,NA
74f25,deep,flow.Sequence,5_0_1_0_5_0,NA,NA,skipped,NA,803047.7,NA,NA,803045.323,803047.7,2023-03-24T08:32:34Z,803062.046,NULL,Toleranz,kuvumiliana,s,maombolezo,ujasusi,mchekeshaji,NA,sdfdsf,NA,1,NA,NA,NA,NA,NA,NA,NA,NA,NA,NA,NA,NA,NA,NA,NA,NA,NA,NA,NA
74f25,Shallow Question,html.Page,5_0_1_0_5_1_0,NA,NA,form submission,9418.7540000003,803047.8,803045.323,803062.046,812480.8,812480.9,2023-03-24T08:32:43Z,812492.272,NULL,Toleranz,kuvumiliana,s,maombolezo,ujasusi,mchekeshaji,kuvumiliana,NA,NA,1,NA,NA,NA,NA,NA,NA,NA,NA,NA,NA,NA,NA,NA,NA,NA,NA,NA,NA,NA
74f25,"""Richtig""-Screen",canvas.Screen,5_0_1_0_5_1_1,NA,NA,timeout,4998.179,812483.4,812475.638,812492.272,817473.902,817490.6,2023-03-24T08:32:48Z,817490.451,NULL,Toleranz,kuvumiliana,s,maombolezo,ujasusi,mchekeshaji,NA,sdfdsf,1,1,NA,NA,NA,NA,NA,NA,NA,NA,NA,NA,NA,NA,NA,NA,NA,NA,NA,NA,NA
74f25,"""Falsch""-Screen",canvas.Screen,5_0_1_0_5_1_2,NA,NA,skipped,NA,817494.7,NA,NA,817473.902,817495,2023-03-24T08:32:48Z,817490.451,NULL,Toleranz,kuvumiliana,s,maombolezo,ujasusi,mchekeshaji,NA,sdfdsf,NA,1,NA,NA,NA,NA,NA,NA,NA,NA,NA,NA,NA,NA,NA,NA,NA,NA,NA,NA,NA
74f25,shallow,flow.Sequence,5_0_1_0_5_1,NA,NA,completion,14411.856,803047.8,803045.323,803062.046,817473.902,817495.2,2023-03-24T08:32:48Z,817490.451,NULL,Toleranz,kuvumiliana,s,maombolezo,ujasusi,mchekeshaji,NA,sdfdsf,NA,1,NA,NA,NA,NA,NA,NA,NA,NA,NA,NA,NA,NA,NA,NA,NA,NA,NA,NA,NA
74f25,task,flow.Sequence,5_0_1_0_5,NA,NA,completion,14411.856,803047.7,803045.323,803062.046,817473.902,817495.3,2023-03-24T08:32:48Z,817490.451,NULL,Toleranz,kuvumiliana,s,maombolezo,ujasusi,mchekeshaji,NA,sdfdsf,NA,1,NA,NA,NA,NA,NA,NA,NA,NA,NA,NA,NA,NA,NA,NA,NA,NA,NA,NA,NA
74f25,Deep Question,html.Page,5_0_1_0_6_0_0,NA,NA,form submission,11459.749,817495.6,817473.902,817490.451,828950.2,828950.5,2023-03-24T08:33:00Z,828953.028,NULL,Polizist,msongora,d,NA,NA,NA,mdosongo,NA,NA,1,NA,NA,NA,NA,NA,NA,NA,NA,NA,NA,NA,NA,NA,NA,NA,NA,NA,NA,NA
74f25,"""Richtig""-Screen",canvas.Screen,5_0_1_0_6_0_1,NA,NA,skipped,NA,828952.2,NA,NA,828950.2,828952.4,2023-03-24T08:33:00Z,828953.028,NULL,Polizist,msongora,d,NA,NA,NA,NA,sdfdsf,NA,1,NA,NA,NA,NA,NA,NA,NA,NA,NA,NA,NA,NA,NA,NA,NA,NA,NA,NA,NA
74f25,"""Falsch""-Screen",canvas.Screen,5_0_1_0_6_0_2,NA,NA,timeout,4998.6749999999,828952.9,828935.699,828953.028,833935.31,833936.3,2023-03-24T08:33:05Z,833951.703,NULL,Polizist,msongora,d,NA,NA,NA,NA,sdfdsf,0,1,NA,NA,NA,NA,NA,NA,NA,NA,NA,NA,NA,NA,NA,NA,NA,NA,NA,NA,NA
74f25,deep,flow.Sequence,5_0_1_0_6_0,NA,NA,completion,16444.859,817495.4,817473.902,817490.451,833935.31,833936.5,2023-03-24T08:33:05Z,833951.703,NULL,Polizist,msongora,d,NA,NA,NA,NA,sdfdsf,NA,1,NA,NA,NA,NA,NA,NA,NA,NA,NA,NA,NA,NA,NA,NA,NA,NA,NA,NA,NA
74f25,shallow,flow.Sequence,5_0_1_0_6_1,NA,NA,skipped,NA,833936.6,NA,NA,833935.31,833936.8,2023-03-24T08:33:05Z,833951.703,NULL,Polizist,msongora,d,NA,NA,NA,NA,sdfdsf,NA,1,NA,NA,NA,NA,NA,NA,NA,NA,NA,NA,NA,NA,NA,NA,NA,NA,NA,NA,NA
74f25,task,flow.Sequence,5_0_1_0_6,NA,NA,completion,16444.859,817495.4,817473.902,817490.451,833935.31,833936.8,2023-03-24T08:33:05Z,833951.703,NULL,Polizist,msongora,d,NA,NA,NA,NA,sdfdsf,NA,1,NA,NA,NA,NA,NA,NA,NA,NA,NA,NA,NA,NA,NA,NA,NA,NA,NA,NA,NA
74f25,deep,flow.Sequence,5_0_1_0_7_0,NA,NA,skipped,NA,833937,NA,NA,833935.31,833937.1,2023-03-24T08:33:05Z,833951.703,NULL,Schlange,foleni,s,uvumilivu,uteuzi,muuzaji,NA,sdfdsf,NA,1,NA,NA,NA,NA,NA,NA,NA,NA,NA,NA,NA,NA,NA,NA,NA,NA,NA,NA,NA
74f25,Shallow Question,html.Page,5_0_1_0_7_1_0,NA,NA,form submission,4394.8970000001,833937.1,833935.31,833951.703,838346.6,838346.9,2023-03-24T08:33:09Z,838349.9,NULL,Schlange,foleni,s,uvumilivu,uteuzi,muuzaji,foleni,NA,NA,1,NA,NA,NA,NA,NA,NA,NA,NA,NA,NA,NA,NA,NA,NA,NA,NA,NA,NA,NA
74f25,"""Richtig""-Screen",canvas.Screen,5_0_1_0_7_1_1,NA,NA,timeout,4998.4739999999,838349,838333.568,838349.9,843331.792,843335.9,2023-03-24T08:33:14Z,843348.374,NULL,Schlange,foleni,s,uvumilivu,uteuzi,muuzaji,NA,sdfdsf,1,1,NA,NA,NA,NA,NA,NA,NA,NA,NA,NA,NA,NA,NA,NA,NA,NA,NA,NA,NA
74f25,"""Falsch""-Screen",canvas.Screen,5_0_1_0_7_1_2,NA,NA,skipped,NA,843340,NA,NA,843331.792,843340.1,2023-03-24T08:33:14Z,843348.374,NULL,Schlange,foleni,s,uvumilivu,uteuzi,muuzaji,NA,sdfdsf,NA,1,NA,NA,NA,NA,NA,NA,NA,NA,NA,NA,NA,NA,NA,NA,NA,NA,NA,NA,NA
74f25,shallow,flow.Sequence,5_0_1_0_7_1,NA,NA,completion,9380.089,833937.1,833935.31,833951.703,843331.792,843340.5,2023-03-24T08:33:14Z,843348.374,NULL,Schlange,foleni,s,uvumilivu,uteuzi,muuzaji,NA,sdfdsf,NA,1,NA,NA,NA,NA,NA,NA,NA,NA,NA,NA,NA,NA,NA,NA,NA,NA,NA,NA,NA
74f25,task,flow.Sequence,5_0_1_0_7,NA,NA,completion,9380.089,833937,833935.31,833951.703,843331.792,843340.7,2023-03-24T08:33:14Z,843348.374,NULL,Schlange,foleni,s,uvumilivu,uteuzi,muuzaji,NA,sdfdsf,NA,1,NA,NA,NA,NA,NA,NA,NA,NA,NA,NA,NA,NA,NA,NA,NA,NA,NA,NA,NA
74f25,block,flow.Loop,5_0_1_0,NA,NA,completion,98433.759,744908.6,744865.027,744898.033,843331.792,843340.9,2023-03-24T08:33:14Z,843348.374,NULL,NA,NA,NA,NA,NA,NA,NA,sdfdsf,NA,1,NA,NA,NA,NA,NA,NA,NA,NA,NA,NA,NA,NA,NA,NA,NA,NA,NA,NA,NA
74f25,weiter,canvas.Screen,5_0_1_1,sdf,keypress(Space),response,840.62600000005,843341.1,843331.792,843348.374,844189,844191.6,2023-03-24T08:33:15Z,844214.538,NULL,NA,NA,NA,NA,NA,NA,NA,sdfdsf,NA,1,NA,NA,NA,NA,NA,NA,NA,NA,NA,NA,NA,NA,NA,NA,NA,NA,NA,NA,NA
74f25,check continue,flow.Sequence,5_0_1,NA,NA,completion,99290.967,744908.5,744865.027,744898.033,844189,844192,2023-03-24T08:33:15Z,844214.538,NULL,NA,NA,NA,NA,NA,NA,NA,sdfdsf,NA,1,NA,NA,NA,NA,NA,NA,NA,NA,NA,NA,NA,NA,NA,NA,NA,NA,NA,NA,NA
74f25,Deep Question,html.Page,5_0_2_0_0_0_0,NA,NA,form submission,2446.1620000002,844224.9,844187.29,844214.538,846660.7,846660.9,2023-03-24T08:33:17Z,846663.721,NULL,Inhalt,yaliyomo,d,NA,NA,NA,sdf,NA,NA,2,NA,NA,NA,NA,NA,NA,NA,NA,NA,NA,NA,NA,NA,NA,NA,NA,NA,NA,NA
74f25,"""Richtig""-Screen",canvas.Screen,5_0_2_0_0_0_1,NA,NA,skipped,NA,846662.9,NA,NA,846660.7,846663.1,2023-03-24T08:33:17Z,846663.721,NULL,Inhalt,yaliyomo,d,NA,NA,NA,NA,sdf,NA,2,NA,NA,NA,NA,NA,NA,NA,NA,NA,NA,NA,NA,NA,NA,NA,NA,NA,NA,NA
74f25,"""Falsch""-Screen",canvas.Screen,5_0_2_0_0_0_2,NA,NA,timeout,4998.652,846663.6,846649.289,846663.721,851645.717,851646.5,2023-03-24T08:33:22Z,851662.373,NULL,Inhalt,yaliyomo,d,NA,NA,NA,NA,sdf,0,2,NA,NA,NA,NA,NA,NA,NA,NA,NA,NA,NA,NA,NA,NA,NA,NA,NA,NA,NA
74f25,deep,flow.Sequence,5_0_2_0_0_0,NA,NA,completion,7431.179,844224.9,844187.29,844214.538,851645.717,851646.8,2023-03-24T08:33:22Z,851662.373,NULL,Inhalt,yaliyomo,d,NA,NA,NA,NA,sdf,NA,2,NA,NA,NA,NA,NA,NA,NA,NA,NA,NA,NA,NA,NA,NA,NA,NA,NA,NA,NA
74f25,shallow,flow.Sequence,5_0_2_0_0_1,NA,NA,skipped,NA,851646.9,NA,NA,851645.717,851647.1,2023-03-24T08:33:22Z,851662.373,NULL,Inhalt,yaliyomo,d,NA,NA,NA,NA,sdf,NA,2,NA,NA,NA,NA,NA,NA,NA,NA,NA,NA,NA,NA,NA,NA,NA,NA,NA,NA,NA
74f25,task,flow.Sequence,5_0_2_0_0,NA,NA,completion,7431.179,844224.8,844187.29,844214.538,851645.717,851647.1,2023-03-24T08:33:22Z,851662.373,NULL,Inhalt,yaliyomo,d,NA,NA,NA,NA,sdf,NA,2,NA,NA,NA,NA,NA,NA,NA,NA,NA,NA,NA,NA,NA,NA,NA,NA,NA,NA,NA
74f25,deep,flow.Sequence,5_0_2_0_1_0,NA,NA,skipped,NA,851647.2,NA,NA,851645.717,851647.3,2023-03-24T08:33:22Z,851662.373,NULL,Sympathie,mapendano,s,dhamiria,fungamano,maazimio,NA,sdf,NA,2,NA,NA,NA,NA,NA,NA,NA,NA,NA,NA,NA,NA,NA,NA,NA,NA,NA,NA,NA
