observation,sender,sender_type,sender_id,response,response_action,ended_on,duration,time_run,time_render,time_show,time_end,time_commit,timestamp,time_switch,distractors,german,swahili,enc,distractor1,distractor2,distractor3,response_2,x,correct,x_2,url_vp,url_sess,meta_labjs_version,meta_location,meta_user_agent,meta_platform,meta_language,meta_locale,meta_time_zone,meta_timezone_offset,meta_screen_width,meta_screen_height,meta_scroll_width,meta_scroll_height,meta_window_inner_width,meta_window_inner_height,meta_device_pixel_ratio,meta_labjs_build_flavor,meta_labjs_build_commit
1186f,Introduction general,canvas.Screen,0,weiter,keypress(q),response,38957.600000012,401.10000002384,128.1,411.2,39368.800000012,39373.400000036,2024-06-02T10:05:48Z,39373.198,NULL,NA,NA,NA,NA,NA,NA,NA,NA,NA,NA,196,3,20.2.4,https://neurocog.fernuni.ch/studies/vweber/aberisha/encoding_immediate/index.html?vp=196&sess=3,"Mozilla/5.0 (Windows NT 10.0; Win64; x64) AppleWebKit/537.36 (KHTML, like Gecko) Chrome/125.0.0.0 Safari/537.36",Win32,de-DE,de,Europe/Zurich,-120,1536,864,1536,682,1536,730,1.25,production,f5b4a49f956347addd546a832a3327688c2c0fef
1186f,Introduction practice,canvas.Screen,1_0,NA,keypress(Space),response,6336.0020000477,39374.100000024,39373.198,39373.198,45709.200000048,45710.400000036,2024-06-02T10:05:54Z,45716.8,NULL,NA,NA,NA,NA,NA,NA,NA,NA,NA,NA,NA,NA,NA,NA,NA,NA,NA,NA,NA,NA,NA,NA,NA,NA,NA,NA,NA,NA,NA
1186f,deep,flow.Sequence,1_1_0_0,NA,NA,skipped,NA,45710.800000012,NA,NA,45709.200000048,45711.300000012,2024-06-02T10:05:54Z,45716.8,"c(""distractor1"", ""distractor2"", ""distractor3"")",Kritik,lawama,s,dereva,nafasi,mawazo,NA,NA,NA,NA,NA,NA,NA,NA,NA,NA,NA,NA,NA,NA,NA,NA,NA,NA,NA,NA,NA,NA,NA
1186f,Shallow Question,html.Page,1_1_0_1_0,NA,NA,form submission,5779.5000000119,45711.800000012,45702.78,45716.8,51496.300000012,51496.5,2024-06-02T10:06:00Z,51513.3,"c(""distractor1"", ""distractor2"", ""distractor3"")",Kritik,lawama,s,dereva,nafasi,mawazo,lawama,NA,NA,NA,NA,NA,NA,NA,NA,NA,NA,NA,NA,NA,NA,NA,NA,NA,NA,NA,NA,NA,NA
1186f,"""Richtig""-Screen",canvas.Screen,1_1_0_1_1,NA,NA,timeout,4997,51498.400000036,51497.408,51513.3,56493.9,56495.5,2024-06-02T10:06:05Z,56510.3,"c(""distractor1"", ""distractor2"", ""distractor3"")",Kritik,lawama,s,dereva,nafasi,mawazo,NA,NA,1,NA,NA,NA,NA,NA,NA,NA,NA,NA,NA,NA,NA,NA,NA,NA,NA,NA,NA,NA,NA
1186f,"""Falsch""-Screen",canvas.Screen,1_1_0_1_2,NA,NA,skipped,NA,56499.5,NA,NA,56493.9,56499.700000048,2024-06-02T10:06:05Z,56510.3,"c(""distractor1"", ""distractor2"", ""distractor3"")",Kritik,lawama,s,dereva,nafasi,mawazo,NA,NA,NA,NA,NA,NA,NA,NA,NA,NA,NA,NA,NA,NA,NA,NA,NA,NA,NA,NA,NA,NA,NA
1186f,shallow,flow.Sequence,1_1_0_1,NA,NA,completion,10777.1,45711.700000048,45702.78,45716.8,56493.9,56499.800000012,2024-06-02T10:06:05Z,56510.3,"c(""distractor1"", ""distractor2"", ""distractor3"")",Kritik,lawama,s,dereva,nafasi,mawazo,NA,NA,NA,NA,NA,NA,NA,NA,NA,NA,NA,NA,NA,NA,NA,NA,NA,NA,NA,NA,NA,NA,NA
1186f,task,flow.Sequence,1_1_0,NA,NA,completion,10777.1,45710.800000012,45702.78,45716.8,56493.9,56500,2024-06-02T10:06:05Z,56510.3,"c(""distractor1"", ""distractor2"", ""distractor3"")",Kritik,lawama,s,dereva,nafasi,mawazo,NA,NA,NA,NA,NA,NA,NA,NA,NA,NA,NA,NA,NA,NA,NA,NA,NA,NA,NA,NA,NA,NA,NA
1186f,deep,flow.Sequence,1_1_1_0,NA,NA,skipped,NA,56500.100000024,NA,NA,56493.9,56500.200000048,2024-06-02T10:06:05Z,56510.3,"c(""distractor1"", ""distractor2"", ""distractor3"")",Gegenwart,hadhara,s,katiba,jokofu,mikopo,NA,NA,NA,NA,NA,NA,NA,NA,NA,NA,NA,NA,NA,NA,NA,NA,NA,NA,NA,NA,NA,NA,NA
1186f,Shallow Question,html.Page,1_1_1_1_0,NA,NA,form submission,6560.9000000477,56504.400000036,56493.9,56510.3,63071.200000048,63071.5,2024-06-02T10:06:11Z,63073.652,"c(""distractor1"", ""distractor2"", ""distractor3"")",Gegenwart,hadhara,s,katiba,jokofu,mikopo,hadhara,NA,NA,NA,NA,NA,NA,NA,NA,NA,NA,NA,NA,NA,NA,NA,NA,NA,NA,NA,NA,NA,NA
1186f,"""Richtig""-Screen",canvas.Screen,1_1_1_1_1,NA,NA,timeout,4996.748,63075.200000048,63073.652,63073.652,68053.4,68054.5,2024-06-02T10:06:16Z,68070.4,"c(""distractor1"", ""distractor2"", ""distractor3"")",Gegenwart,hadhara,s,katiba,jokofu,mikopo,NA,NA,1,NA,NA,NA,NA,NA,NA,NA,NA,NA,NA,NA,NA,NA,NA,NA,NA,NA,NA,NA,NA
1186f,"""Falsch""-Screen",canvas.Screen,1_1_1_1_2,NA,NA,skipped,NA,68060,NA,NA,68053.4,68060.200000048,2024-06-02T10:06:16Z,68070.4,"c(""distractor1"", ""distractor2"", ""distractor3"")",Gegenwart,hadhara,s,katiba,jokofu,mikopo,NA,NA,NA,NA,NA,NA,NA,NA,NA,NA,NA,NA,NA,NA,NA,NA,NA,NA,NA,NA,NA,NA,NA
1186f,shallow,flow.Sequence,1_1_1_1,NA,NA,completion,11543.1,56500.300000012,56493.9,56510.3,68053.4,68060.300000012,2024-06-02T10:06:16Z,68070.4,"c(""distractor1"", ""distractor2"", ""distractor3"")",Gegenwart,hadhara,s,katiba,jokofu,mikopo,NA,NA,NA,NA,NA,NA,NA,NA,NA,NA,NA,NA,NA,NA,NA,NA,NA,NA,NA,NA,NA,NA,NA
1186f,task,flow.Sequence,1_1_1,NA,NA,completion,11543.1,56500.100000024,56493.9,56510.3,68053.4,68060.300000012,2024-06-02T10:06:16Z,68070.4,"c(""distractor1"", ""distractor2"", ""distractor3"")",Gegenwart,hadhara,s,katiba,jokofu,mikopo,NA,NA,NA,NA,NA,NA,NA,NA,NA,NA,NA,NA,NA,NA,NA,NA,NA,NA,NA,NA,NA,NA,NA
1186f,Deep Question,html.Page,1_1_2_0_0,NA,NA,form submission,6889.6,68060.400000036,68053.4,68070.4,74960,74960.300000012,2024-06-02T10:06:23Z,74966.17,"c(""distractor1"", ""distractor2"", ""distractor3"")",Qualität,mtindo,d,NA,NA,NA,rgfgd,NA,NA,NA,NA,NA,NA,NA,NA,NA,NA,NA,NA,NA,NA,NA,NA,NA,NA,NA,NA,NA,NA
1186f,"""Richtig""-Screen",canvas.Screen,1_1_2_0_1,NA,NA,skipped,NA,74963.800000012,NA,NA,74960,74963.900000036,2024-06-02T10:06:23Z,74966.17,"c(""distractor1"", ""distractor2"", ""distractor3"")",Qualität,mtindo,d,NA,NA,NA,NA,NA,NA,NA,NA,NA,NA,NA,NA,NA,NA,NA,NA,NA,NA,NA,NA,NA,NA,NA,NA,NA,NA
1186f,"""Falsch""-Screen",canvas.Screen,1_1_2_0_2,NA,NA,timeout,4996.73,74965.100000024,74966.17,74966.17,79946.3,79947.300000012,2024-06-02T10:06:28Z,79962.9,"c(""distractor1"", ""distractor2"", ""distractor3"")",Qualität,mtindo,d,NA,NA,NA,NA,NA,0,NA,NA,NA,NA,NA,NA,NA,NA,NA,NA,NA,NA,NA,NA,NA,NA,NA,NA,NA,NA
1186f,deep,flow.Sequence,1_1_2_0,NA,NA,completion,11875.9,68060.400000036,68053.4,68070.4,79946.3,79947.600000024,2024-06-02T10:06:28Z,79962.9,"c(""distractor1"", ""distractor2"", ""distractor3"")",Qualität,mtindo,d,NA,NA,NA,NA,NA,NA,NA,NA,NA,NA,NA,NA,NA,NA,NA,NA,NA,NA,NA,NA,NA,NA,NA,NA,NA,NA
1186f,shallow,flow.Sequence,1_1_2_1,NA,NA,skipped,NA,79947.800000012,NA,NA,79946.3,79948,2024-06-02T10:06:28Z,79962.9,"c(""distractor1"", ""distractor2"", ""distractor3"")",Qualität,mtindo,d,NA,NA,NA,NA,NA,NA,NA,NA,NA,NA,NA,NA,NA,NA,NA,NA,NA,NA,NA,NA,NA,NA,NA,NA,NA,NA
1186f,task,flow.Sequence,1_1_2,NA,NA,completion,11875.9,68060.300000012,68053.4,68070.4,79946.3,79948.300000012,2024-06-02T10:06:28Z,79962.9,"c(""distractor1"", ""distractor2"", ""distractor3"")",Qualität,mtindo,d,NA,NA,NA,NA,NA,NA,NA,NA,NA,NA,NA,NA,NA,NA,NA,NA,NA,NA,NA,NA,NA,NA,NA,NA,NA,NA
1186f,Deep Question,html.Page,1_1_3_0_0,NA,NA,form submission,6995.1,79948.5,79946.3,79962.9,86958,86958.300000012,2024-06-02T10:06:35Z,86976.8,"c(""distractor1"", ""distractor2"", ""distractor3"")",Schatten,kivuli,d,NA,NA,NA,sersd,NA,NA,NA,NA,NA,NA,NA,NA,NA,NA,NA,NA,NA,NA,NA,NA,NA,NA,NA,NA,NA,NA
1186f,"""Richtig""-Screen",canvas.Screen,1_1_3_0_1,NA,NA,skipped,NA,86961.200000048,NA,NA,86958,86961.400000036,2024-06-02T10:06:35Z,86976.8,"c(""distractor1"", ""distractor2"", ""distractor3"")",Schatten,kivuli,d,NA,NA,NA,NA,NA,NA,NA,NA,NA,NA,NA,NA,NA,NA,NA,NA,NA,NA,NA,NA,NA,NA,NA,NA,NA,NA
1186f,"""Falsch""-Screen",canvas.Screen,1_1_3_0_2,NA,NA,timeout,4995.7,86961.800000012,86959.448,86976.8,91955.6,91956.400000036,2024-06-02T10:06:40Z,91972.5,"c(""distractor1"", ""distractor2"", ""distractor3"")",Schatten,kivuli,d,NA,NA,NA,NA,NA,0,NA,NA,NA,NA,NA,NA,NA,NA,NA,NA,NA,NA,NA,NA,NA,NA,NA,NA,NA,NA
1186f,deep,flow.Sequence,1_1_3_0,NA,NA,completion,11992.7,79948.5,79946.3,79962.9,91955.6,91956.800000012,2024-06-02T10:06:40Z,91972.5,"c(""distractor1"", ""distractor2"", ""distractor3"")",Schatten,kivuli,d,NA,NA,NA,NA,NA,NA,NA,NA,NA,NA,NA,NA,NA,NA,NA,NA,NA,NA,NA,NA,NA,NA,NA,NA,NA,NA
1186f,shallow,flow.Sequence,1_1_3_1,NA,NA,skipped,NA,91956.900000036,NA,NA,91955.6,91957.100000024,2024-06-02T10:06:40Z,91972.5,"c(""distractor1"", ""distractor2"", ""distractor3"")",Schatten,kivuli,d,NA,NA,NA,NA,NA,NA,NA,NA,NA,NA,NA,NA,NA,NA,NA,NA,NA,NA,NA,NA,NA,NA,NA,NA,NA,NA
1186f,task,flow.Sequence,1_1_3,NA,NA,completion,11992.7,79948.400000036,79946.3,79962.9,91955.6,91957.300000012,2024-06-02T10:06:40Z,91972.5,"c(""distractor1"", ""distractor2"", ""distractor3"")",Schatten,kivuli,d,NA,NA,NA,NA,NA,NA,NA,NA,NA,NA,NA,NA,NA,NA,NA,NA,NA,NA,NA,NA,NA,NA,NA,NA,NA,NA
1186f,Deep Question,html.Page,1_1_4_0_0,NA,NA,form submission,6799.4000000358,91957.5,91955.6,91972.5,98771.900000036,98772.100000024,2024-06-02T10:06:47Z,98784.5,"c(""distractor1"", ""distractor2"", ""distractor3"")",Gesundheit,salama,d,NA,NA,NA,zhghh,NA,NA,NA,NA,NA,NA,NA,NA,NA,NA,NA,NA,NA,NA,NA,NA,NA,NA,NA,NA,NA,NA
1186f,"""Richtig""-Screen",canvas.Screen,1_1_4_0_1,NA,NA,skipped,NA,98774.400000036,NA,NA,98771.900000036,98774.5,2024-06-02T10:06:47Z,98784.5,"c(""distractor1"", ""distractor2"", ""distractor3"")",Gesundheit,salama,d,NA,NA,NA,NA,NA,NA,NA,NA,NA,NA,NA,NA,NA,NA,NA,NA,NA,NA,NA,NA,NA,NA,NA,NA,NA,NA
1186f,"""Falsch""-Screen",canvas.Screen,1_1_4_0_2,NA,NA,timeout,4996.9,98774.900000036,98768.028,98784.5,103765,103765.90000004,2024-06-02T10:06:52Z,103781.4,"c(""distractor1"", ""distractor2"", ""distractor3"")",Gesundheit,salama,d,NA,NA,NA,NA,NA,0,NA,NA,NA,NA,NA,NA,NA,NA,NA,NA,NA,NA,NA,NA,NA,NA,NA,NA,NA,NA
1186f,deep,flow.Sequence,1_1_4_0,NA,NA,completion,11792.5,91957.400000036,91955.6,91972.5,103765,103766.30000001,2024-06-02T10:06:52Z,103781.4,"c(""distractor1"", ""distractor2"", ""distractor3"")",Gesundheit,salama,d,NA,NA,NA,NA,NA,NA,NA,NA,NA,NA,NA,NA,NA,NA,NA,NA,NA,NA,NA,NA,NA,NA,NA,NA,NA,NA
1186f,shallow,flow.Sequence,1_1_4_1,NA,NA,skipped,NA,103766.40000004,NA,NA,103765,103766.60000002,2024-06-02T10:06:52Z,103781.4,"c(""distractor1"", ""distractor2"", ""distractor3"")",Gesundheit,salama,d,NA,NA,NA,NA,NA,NA,NA,NA,NA,NA,NA,NA,NA,NA,NA,NA,NA,NA,NA,NA,NA,NA,NA,NA,NA,NA
1186f,task,flow.Sequence,1_1_4,NA,NA,completion,11792.5,91957.400000036,91955.6,91972.5,103765,103766.80000001,2024-06-02T10:06:52Z,103781.4,"c(""distractor1"", ""distractor2"", ""distractor3"")",Gesundheit,salama,d,NA,NA,NA,NA,NA,NA,NA,NA,NA,NA,NA,NA,NA,NA,NA,NA,NA,NA,NA,NA,NA,NA,NA,NA,NA,NA
1186f,deep,flow.Sequence,1_1_5_0,NA,NA,skipped,NA,103767,NA,NA,103765,103767.10000002,2024-06-02T10:06:52Z,103781.4,"c(""distractor1"", ""distractor2"", ""distractor3"")",Rückhalt,msaada,s,muhula,auwali,kiwimbe,NA,NA,NA,NA,NA,NA,NA,NA,NA,NA,NA,NA,NA,NA,NA,NA,NA,NA,NA,NA,NA,NA,NA
1186f,Shallow Question,html.Page,1_1_5_1_0,NA,NA,form submission,6759.9000000119,103767.30000001,103765,103781.4,110541.30000001,110541.60000002,2024-06-02T10:06:59Z,110544.572,"c(""distractor1"", ""distractor2"", ""distractor3"")",Rückhalt,msaada,s,muhula,auwali,kiwimbe,auwali,NA,NA,NA,NA,NA,NA,NA,NA,NA,NA,NA,NA,NA,NA,NA,NA,NA,NA,NA,NA,NA,NA
1186f,"""Richtig""-Screen",canvas.Screen,1_1_5_1_1,NA,NA,skipped,NA,110544.90000004,NA,NA,110541.30000001,110545.10000002,2024-06-02T10:06:59Z,110544.572,"c(""distractor1"", ""distractor2"", ""distractor3"")",Rückhalt,msaada,s,muhula,auwali,kiwimbe,NA,NA,NA,NA,NA,NA,NA,NA,NA,NA,NA,NA,NA,NA,NA,NA,NA,NA,NA,NA,NA,NA,NA
1186f,"""Falsch""-Screen",canvas.Screen,1_1_5_1_2,NA,NA,timeout,4996.328,110546,110544.572,110544.572,115524.3,115525.20000005,2024-06-02T10:07:04Z,115540.9,"c(""distractor1"", ""distractor2"", ""distractor3"")",Rückhalt,msaada,s,muhula,auwali,kiwimbe,NA,NA,0,NA,NA,NA,NA,NA,NA,NA,NA,NA,NA,NA,NA,NA,NA,NA,NA,NA,NA,NA,NA
1186f,shallow,flow.Sequence,1_1_5_1,NA,NA,completion,11742.9,103767.20000005,103765,103781.4,115524.3,115525.5,2024-06-02T10:07:04Z,115540.9,"c(""distractor1"", ""distractor2"", ""distractor3"")",Rückhalt,msaada,s,muhula,auwali,kiwimbe,NA,NA,NA,NA,NA,NA,NA,NA,NA,NA,NA,NA,NA,NA,NA,NA,NA,NA,NA,NA,NA,NA,NA
1186f,task,flow.Sequence,1_1_5,NA,NA,completion,11742.9,103766.90000004,103765,103781.4,115524.3,115525.80000001,2024-06-02T10:07:04Z,115540.9,"c(""distractor1"", ""distractor2"", ""distractor3"")",Rückhalt,msaada,s,muhula,auwali,kiwimbe,NA,NA,NA,NA,NA,NA,NA,NA,NA,NA,NA,NA,NA,NA,NA,NA,NA,NA,NA,NA,NA,NA,NA
1186f,block,flow.Loop,1_1,NA,NA,completion,69807.5,45710.700000048,45702.78,45716.8,115524.3,115526.20000005,2024-06-02T10:07:04Z,115540.9,"c(""distractor1"", ""distractor2"", ""distractor3"")",NA,NA,NA,NA,NA,NA,NA,NA,NA,NA,NA,NA,NA,NA,NA,NA,NA,NA,NA,NA,NA,NA,NA,NA,NA,NA,NA,NA,NA
1186f,Practice,flow.Sequence,1,NA,NA,completion,76151.102,39374,39373.198,39373.198,115524.3,115526.40000004,2024-06-02T10:07:04Z,115540.9,NULL,NA,NA,NA,NA,NA,NA,NA,NA,NA,NA,NA,NA,NA,NA,NA,NA,NA,NA,NA,NA,NA,NA,NA,NA,NA,NA,NA,NA,NA
1186f,Experiment start,canvas.Screen,2,weiter,keypress(q),response,13947.1,115526.60000002,115524.3,115540.9,129488,129488.90000004,2024-06-02T10:07:18Z,129548.9,NULL,NA,NA,NA,NA,NA,NA,NA,NA,NA,NA,NA,NA,NA,NA,NA,NA,NA,NA,NA,NA,NA,NA,NA,NA,NA,NA,NA,NA,NA
1186f,Deep Question,html.Page,3_0_0_0_0_0_0,NA,NA,form submission,5861.2000000238,129543.30000001,129539.506,129548.9,135410.10000002,135410.30000001,2024-06-02T10:07:24Z,135412.528,NULL,Übersicht,kilindo,d,NA,NA,NA,ghhffg,NA,NA,0,NA,NA,NA,NA,NA,NA,NA,NA,NA,NA,NA,NA,NA,NA,NA,NA,NA,NA,NA
1186f,"""Richtig""-Screen",canvas.Screen,3_0_0_0_0_0_1,NA,NA,skipped,NA,135413.5,NA,NA,135410.10000002,135413.70000005,2024-06-02T10:07:24Z,135412.528,NULL,Übersicht,kilindo,d,NA,NA,NA,NA,sdf,NA,0,NA,NA,NA,NA,NA,NA,NA,NA,NA,NA,NA,NA,NA,NA,NA,NA,NA,NA,NA
1186f,"""Falsch""-Screen",canvas.Screen,3_0_0_0_0_0_2,NA,NA,timeout,4996.872,135414.30000001,135412.528,135412.528,140392.6,140393.40000004,2024-06-02T10:07:29Z,140409.4,NULL,Übersicht,kilindo,d,NA,NA,NA,NA,sdf,0,0,NA,NA,NA,NA,NA,NA,NA,NA,NA,NA,NA,NA,NA,NA,NA,NA,NA,NA,NA
1186f,deep,flow.Sequence,3_0_0_0_0_0,NA,NA,completion,10843.7,129543.30000001,129539.506,129548.9,140392.6,140393.80000001,2024-06-02T10:07:29Z,140409.4,NULL,Übersicht,kilindo,d,NA,NA,NA,NA,sdf,NA,0,NA,NA,NA,NA,NA,NA,NA,NA,NA,NA,NA,NA,NA,NA,NA,NA,NA,NA,NA
1186f,shallow,flow.Sequence,3_0_0_0_0_1,NA,NA,skipped,NA,140393.90000004,NA,NA,140392.6,140394.10000002,2024-06-02T10:07:29Z,140409.4,NULL,Übersicht,kilindo,d,NA,NA,NA,NA,sdf,NA,0,NA,NA,NA,NA,NA,NA,NA,NA,NA,NA,NA,NA,NA,NA,NA,NA,NA,NA,NA
1186f,task,flow.Sequence,3_0_0_0_0,NA,NA,completion,10843.7,129543.30000001,129539.506,129548.9,140392.6,140394.30000001,2024-06-02T10:07:29Z,140409.4,NULL,Übersicht,kilindo,d,NA,NA,NA,NA,sdf,NA,0,NA,NA,NA,NA,NA,NA,NA,NA,NA,NA,NA,NA,NA,NA,NA,NA,NA,NA,NA
1186f,deep,flow.Sequence,3_0_0_0_1_0,NA,NA,skipped,NA,140394.40000004,NA,NA,140392.6,140394.40000004,2024-06-02T10:07:29Z,140409.4,NULL,System,maongozi,s,chokochoko,nuksani,mitaani,NA,sdf,NA,0,NA,NA,NA,NA,NA,NA,NA,NA,NA,NA,NA,NA,NA,NA,NA,NA,NA,NA,NA
1186f,Shallow Question,html.Page,3_0_0_0_1_1_0,NA,NA,form submission,21632.500000036,140394.5,140392.6,140409.4,162041.90000004,162042,2024-06-02T10:07:50Z,162045.7,NULL,System,maongozi,s,chokochoko,nuksani,mitaani,mitaani,NA,NA,0,NA,NA,NA,NA,NA,NA,NA,NA,NA,NA,NA,NA,NA,NA,NA,NA,NA,NA,NA
1186f,"""Richtig""-Screen",canvas.Screen,3_0_0_0_1_1_1,NA,NA,skipped,NA,162043.40000004,NA,NA,162041.90000004,162043.5,2024-06-02T10:07:50Z,162045.7,NULL,System,maongozi,s,chokochoko,nuksani,mitaani,NA,sdf,NA,0,NA,NA,NA,NA,NA,NA,NA,NA,NA,NA,NA,NA,NA,NA,NA,NA,NA,NA,NA
1186f,"""Falsch""-Screen",canvas.Screen,3_0_0_0_1_1_2,NA,NA,timeout,4997.5,162043.80000001,162029.76,162045.7,167026.4,167026.90000004,2024-06-02T10:07:55Z,167043.2,NULL,System,maongozi,s,chokochoko,nuksani,mitaani,NA,sdf,0,0,NA,NA,NA,NA,NA,NA,NA,NA,NA,NA,NA,NA,NA,NA,NA,NA,NA,NA,NA
1186f,shallow,flow.Sequence,3_0_0_0_1_1,NA,NA,completion,26617,140394.5,140392.6,140409.4,167026.4,167027.10000002,2024-06-02T10:07:55Z,167043.2,NULL,System,maongozi,s,chokochoko,nuksani,mitaani,NA,sdf,NA,0,NA,NA,NA,NA,NA,NA,NA,NA,NA,NA,NA,NA,NA,NA,NA,NA,NA,NA,NA
1186f,task,flow.Sequence,3_0_0_0_1,NA,NA,completion,26617,140394.30000001,140392.6,140409.4,167026.4,167027.20000005,2024-06-02T10:07:55Z,167043.2,NULL,System,maongozi,s,chokochoko,nuksani,mitaani,NA,sdf,NA,0,NA,NA,NA,NA,NA,NA,NA,NA,NA,NA,NA,NA,NA,NA,NA,NA,NA,NA,NA
1186f,deep,flow.Sequence,3_0_0_0_2_0,NA,NA,skipped,NA,167027.20000005,NA,NA,167026.4,167027.30000001,2024-06-02T10:07:55Z,167043.2,NULL,Konkurrent,mshindani,s,msemaji,mvutaji,kipukusa,NA,sdf,NA,0,NA,NA,NA,NA,NA,NA,NA,NA,NA,NA,NA,NA,NA,NA,NA,NA,NA,NA,NA
1186f,Shallow Question,html.Page,3_0_0_0_2_1_0,NA,NA,form submission,5108.0000000477,167027.40000004,167026.4,167043.2,172151.20000005,172151.40000004,2024-06-02T10:08:00Z,172156.3,NULL,Konkurrent,mshindani,s,msemaji,mvutaji,kipukusa,mshindani,NA,NA,0,NA,NA,NA,NA,NA,NA,NA,NA,NA,NA,NA,NA,NA,NA,NA,NA,NA,NA,NA
1186f,"""Richtig""-Screen",canvas.Screen,3_0_0_0_2_1_1,NA,NA,timeout,4996.8,172154.30000001,172140.342,172156.3,177136.5,177137.5,2024-06-02T10:08:05Z,177153.1,NULL,Konkurrent,mshindani,s,msemaji,mvutaji,kipukusa,NA,sdf,1,0,NA,NA,NA,NA,NA,NA,NA,NA,NA,NA,NA,NA,NA,NA,NA,NA,NA,NA,NA
1186f,"""Falsch""-Screen",canvas.Screen,3_0_0_0_2_1_2,NA,NA,skipped,NA,177142.90000004,NA,NA,177136.5,177143,2024-06-02T10:08:05Z,177153.1,NULL,Konkurrent,mshindani,s,msemaji,mvutaji,kipukusa,NA,sdf,NA,0,NA,NA,NA,NA,NA,NA,NA,NA,NA,NA,NA,NA,NA,NA,NA,NA,NA,NA,NA
1186f,shallow,flow.Sequence,3_0_0_0_2_1,NA,NA,completion,10093.3,167027.40000004,167026.4,167043.2,177136.5,177143.10000002,2024-06-02T10:08:05Z,177153.1,NULL,Konkurrent,mshindani,s,msemaji,mvutaji,kipukusa,NA,sdf,NA,0,NA,NA,NA,NA,NA,NA,NA,NA,NA,NA,NA,NA,NA,NA,NA,NA,NA,NA,NA
1186f,task,flow.Sequence,3_0_0_0_2,NA,NA,completion,10093.3,167027.20000005,167026.4,167043.2,177136.5,177143.10000002,2024-06-02T10:08:05Z,177153.1,NULL,Konkurrent,mshindani,s,msemaji,mvutaji,kipukusa,NA,sdf,NA,0,NA,NA,NA,NA,NA,NA,NA,NA,NA,NA,NA,NA,NA,NA,NA,NA,NA,NA,NA
1186f,deep,flow.Sequence,3_0_0_0_3_0,NA,NA,skipped,NA,177143.20000005,NA,NA,177136.5,177143.20000005,2024-06-02T10:08:05Z,177153.1,NULL,Lawine,banguko,s,maambukizi,usuluhishi,chekechea,NA,sdf,NA,0,NA,NA,NA,NA,NA,NA,NA,NA,NA,NA,NA,NA,NA,NA,NA,NA,NA,NA,NA
1186f,Shallow Question,html.Page,3_0_0_0_3_1_0,NA,NA,form submission,4700.2000000119,177143.20000005,177136.5,177153.1,181853.30000001,181853.5,2024-06-02T10:08:10Z,181867.5,NULL,Lawine,banguko,s,maambukizi,usuluhishi,chekechea,banguko,NA,NA,0,NA,NA,NA,NA,NA,NA,NA,NA,NA,NA,NA,NA,NA,NA,NA,NA,NA,NA,NA
1186f,"""Richtig""-Screen",canvas.Screen,3_0_0_0_3_1_1,NA,NA,timeout,4996.8,181856.60000002,181851.018,181867.5,186847.3,186848.30000001,2024-06-02T10:08:15Z,186864.3,NULL,Lawine,banguko,s,maambukizi,usuluhishi,chekechea,NA,sdf,1,0,NA,NA,NA,NA,NA,NA,NA,NA,NA,NA,NA,NA,NA,NA,NA,NA,NA,NA,NA
1186f,"""Falsch""-Screen",canvas.Screen,3_0_0_0_3_1_2,NA,NA,skipped,NA,186853.70000005,NA,NA,186847.3,186853.80000001,2024-06-02T10:08:15Z,186864.3,NULL,Lawine,banguko,s,maambukizi,usuluhishi,chekechea,NA,sdf,NA,0,NA,NA,NA,NA,NA,NA,NA,NA,NA,NA,NA,NA,NA,NA,NA,NA,NA,NA,NA
1186f,shallow,flow.Sequence,3_0_0_0_3_1,NA,NA,completion,9694.2,177143.20000005,177136.5,177153.1,186847.3,186853.90000004,2024-06-02T10:08:15Z,186864.3,NULL,Lawine,banguko,s,maambukizi,usuluhishi,chekechea,NA,sdf,NA,0,NA,NA,NA,NA,NA,NA,NA,NA,NA,NA,NA,NA,NA,NA,NA,NA,NA,NA,NA
1186f,task,flow.Sequence,3_0_0_0_3,NA,NA,completion,9694.2,177143.20000005,177136.5,177153.1,186847.3,186854,2024-06-02T10:08:15Z,186864.3,NULL,Lawine,banguko,s,maambukizi,usuluhishi,chekechea,NA,sdf,NA,0,NA,NA,NA,NA,NA,NA,NA,NA,NA,NA,NA,NA,NA,NA,NA,NA,NA,NA,NA
1186f,deep,flow.Sequence,3_0_0_0_4_0,NA,NA,skipped,NA,186854,NA,NA,186847.3,186854,2024-06-02T10:08:15Z,186864.3,NULL,Vorsorge,tahadhari,s,ufafanuzi,makini,mashambani,NA,sdf,NA,0,NA,NA,NA,NA,NA,NA,NA,NA,NA,NA,NA,NA,NA,NA,NA,NA,NA,NA,NA
1186f,Shallow Question,html.Page,3_0_0_0_4_1_0,NA,NA,form submission,4730.4000000477,186854,186847.3,186864.3,191594.70000005,191594.90000004,2024-06-02T10:08:20Z,191611.5,NULL,Vorsorge,tahadhari,s,ufafanuzi,makini,mashambani,makini,NA,NA,0,NA,NA,NA,NA,NA,NA,NA,NA,NA,NA,NA,NA,NA,NA,NA,NA,NA,NA,NA
1186f,"""Richtig""-Screen",canvas.Screen,3_0_0_0_4_1_1,NA,NA,skipped,NA,191597.60000002,NA,NA,191594.70000005,191597.80000001,2024-06-02T10:08:20Z,191611.5,NULL,Vorsorge,tahadhari,s,ufafanuzi,makini,mashambani,NA,sdf,NA,0,NA,NA,NA,NA,NA,NA,NA,NA,NA,NA,NA,NA,NA,NA,NA,NA,NA,NA,NA
1186f,"""Falsch""-Screen",canvas.Screen,3_0_0_0_4_1_2,NA,NA,timeout,4996.5,191598.5,191594.894,191611.5,196591.3,196592.20000005,2024-06-02T10:08:25Z,196608,NULL,Vorsorge,tahadhari,s,ufafanuzi,makini,mashambani,NA,sdf,0,0,NA,NA,NA,NA,NA,NA,NA,NA,NA,NA,NA,NA,NA,NA,NA,NA,NA,NA,NA
1186f,shallow,flow.Sequence,3_0_0_0_4_1,NA,NA,completion,9727,186854,186847.3,186864.3,196591.3,196592.60000002,2024-06-02T10:08:25Z,196608,NULL,Vorsorge,tahadhari,s,ufafanuzi,makini,mashambani,NA,sdf,NA,0,NA,NA,NA,NA,NA,NA,NA,NA,NA,NA,NA,NA,NA,NA,NA,NA,NA,NA,NA
1186f,task,flow.Sequence,3_0_0_0_4,NA,NA,completion,9727,186854,186847.3,186864.3,196591.3,196592.80000001,2024-06-02T10:08:25Z,196608,NULL,Vorsorge,tahadhari,s,ufafanuzi,makini,mashambani,NA,sdf,NA,0,NA,NA,NA,NA,NA,NA,NA,NA,NA,NA,NA,NA,NA,NA,NA,NA,NA,NA,NA
1186f,Deep Question,html.Page,3_0_0_0_5_0_0,NA,NA,form submission,6663.9000000358,196593,196591.3,196608,203271.90000004,203272.10000002,2024-06-02T10:08:32Z,203287.3,NULL,Symbol,kielezo,d,NA,NA,NA,mshidani,NA,NA,0,NA,NA,NA,NA,NA,NA,NA,NA,NA,NA,NA,NA,NA,NA,NA,NA,NA,NA,NA
1186f,"""Richtig""-Screen",canvas.Screen,3_0_0_0_5_0_1,NA,NA,skipped,NA,203275.20000005,NA,NA,203271.90000004,203275.30000001,2024-06-02T10:08:32Z,203287.3,NULL,Symbol,kielezo,d,NA,NA,NA,NA,sdf,NA,0,NA,NA,NA,NA,NA,NA,NA,NA,NA,NA,NA,NA,NA,NA,NA,NA,NA,NA,NA
1186f,"""Falsch""-Screen",canvas.Screen,3_0_0_0_5_0_2,NA,NA,timeout,4997.2,203276.10000002,203271.208,203287.3,208267.5,208268.5,2024-06-02T10:08:37Z,208284.5,NULL,Symbol,kielezo,d,NA,NA,NA,NA,sdf,0,0,NA,NA,NA,NA,NA,NA,NA,NA,NA,NA,NA,NA,NA,NA,NA,NA,NA,NA,NA
1186f,deep,flow.Sequence,3_0_0_0_5_0,NA,NA,completion,11659.5,196593,196591.3,196608,208267.5,208268.90000004,2024-06-02T10:08:37Z,208284.5,NULL,Symbol,kielezo,d,NA,NA,NA,NA,sdf,NA,0,NA,NA,NA,NA,NA,NA,NA,NA,NA,NA,NA,NA,NA,NA,NA,NA,NA,NA,NA
1186f,shallow,flow.Sequence,3_0_0_0_5_1,NA,NA,skipped,NA,208269.10000002,NA,NA,208267.5,208269.20000005,2024-06-02T10:08:37Z,208284.5,NULL,Symbol,kielezo,d,NA,NA,NA,NA,sdf,NA,0,NA,NA,NA,NA,NA,NA,NA,NA,NA,NA,NA,NA,NA,NA,NA,NA,NA,NA,NA
1186f,task,flow.Sequence,3_0_0_0_5,NA,NA,completion,11659.5,196593,196591.3,196608,208267.5,208269.40000004,2024-06-02T10:08:37Z,208284.5,NULL,Symbol,kielezo,d,NA,NA,NA,NA,sdf,NA,0,NA,NA,NA,NA,NA,NA,NA,NA,NA,NA,NA,NA,NA,NA,NA,NA,NA,NA,NA
1186f,Deep Question,html.Page,3_0_0_0_6_0_0,NA,NA,form submission,5186.6000000238,208269.5,208267.5,208284.5,213471.10000002,213471.20000005,2024-06-02T10:08:42Z,213481.3,NULL,Zuwachs,nyongeza,d,NA,NA,NA,kielezo,NA,NA,0,NA,NA,NA,NA,NA,NA,NA,NA,NA,NA,NA,NA,NA,NA,NA,NA,NA,NA,NA
1186f,"""Richtig""-Screen",canvas.Screen,3_0_0_0_6_0_1,NA,NA,skipped,NA,213472.80000001,NA,NA,213471.10000002,213472.90000004,2024-06-02T10:08:42Z,213481.3,NULL,Zuwachs,nyongeza,d,NA,NA,NA,NA,sdf,NA,0,NA,NA,NA,NA,NA,NA,NA,NA,NA,NA,NA,NA,NA,NA,NA,NA,NA,NA,NA
1186f,"""Falsch""-Screen",canvas.Screen,3_0_0_0_6_0_2,NA,NA,timeout,4996.9,213473.30000001,213464.794,213481.3,218461.3,218462.40000004,2024-06-02T10:08:47Z,218478.2,NULL,Zuwachs,nyongeza,d,NA,NA,NA,NA,sdf,0,0,NA,NA,NA,NA,NA,NA,NA,NA,NA,NA,NA,NA,NA,NA,NA,NA,NA,NA,NA
1186f,deep,flow.Sequence,3_0_0_0_6_0,NA,NA,completion,10176.8,208269.5,208267.5,208284.5,218461.3,218462.80000001,2024-06-02T10:08:47Z,218478.2,NULL,Zuwachs,nyongeza,d,NA,NA,NA,NA,sdf,NA,0,NA,NA,NA,NA,NA,NA,NA,NA,NA,NA,NA,NA,NA,NA,NA,NA,NA,NA,NA
1186f,shallow,flow.Sequence,3_0_0_0_6_1,NA,NA,skipped,NA,218462.90000004,NA,NA,218461.3,218463,2024-06-02T10:08:47Z,218478.2,NULL,Zuwachs,nyongeza,d,NA,NA,NA,NA,sdf,NA,0,NA,NA,NA,NA,NA,NA,NA,NA,NA,NA,NA,NA,NA,NA,NA,NA,NA,NA,NA
1186f,task,flow.Sequence,3_0_0_0_6,NA,NA,completion,10176.8,208269.5,208267.5,208284.5,218461.3,218463.20000005,2024-06-02T10:08:47Z,218478.2,NULL,Zuwachs,nyongeza,d,NA,NA,NA,NA,sdf,NA,0,NA,NA,NA,NA,NA,NA,NA,NA,NA,NA,NA,NA,NA,NA,NA,NA,NA,NA,NA
1186f,Deep Question,html.Page,3_0_0_0_7_0_0,NA,NA,form submission,6441.8,218463.40000004,218461.3,218478.2,224920,224920.30000001,2024-06-02T10:08:53Z,224924.654,NULL,Körper,kiwiliwili,d,NA,NA,NA,nongeza,NA,NA,0,NA,NA,NA,NA,NA,NA,NA,NA,NA,NA,NA,NA,NA,NA,NA,NA,NA,NA,NA
1186f,"""Richtig""-Screen",canvas.Screen,3_0_0_0_7_0_1,NA,NA,skipped,NA,224923.30000001,NA,NA,224920,224923.5,2024-06-02T10:08:53Z,224924.654,NULL,Körper,kiwiliwili,d,NA,NA,NA,NA,sdf,NA,0,NA,NA,NA,NA,NA,NA,NA,NA,NA,NA,NA,NA,NA,NA,NA,NA,NA,NA,NA
1186f,"""Falsch""-Screen",canvas.Screen,3_0_0_0_7_0_2,NA,NA,timeout,4996.446,224924.10000002,224924.654,224924.654,229904.5,229905.30000001,2024-06-02T10:08:58Z,229921.1,NULL,Körper,kiwiliwili,d,NA,NA,NA,NA,sdf,0,0,NA,NA,NA,NA,NA,NA,NA,NA,NA,NA,NA,NA,NA,NA,NA,NA,NA,NA,NA
1186f,deep,flow.Sequence,3_0_0_0_7_0,NA,NA,completion,11426.3,218463.40000004,218461.3,218478.2,229904.5,229905.60000002,2024-06-02T10:08:58Z,229921.1,NULL,Körper,kiwiliwili,d,NA,NA,NA,NA,sdf,NA,0,NA,NA,NA,NA,NA,NA,NA,NA,NA,NA,NA,NA,NA,NA,NA,NA,NA,NA,NA
1186f,shallow,flow.Sequence,3_0_0_0_7_1,NA,NA,skipped,NA,229905.70000005,NA,NA,229904.5,229905.80000001,2024-06-02T10:08:58Z,229921.1,NULL,Körper,kiwiliwili,d,NA,NA,NA,NA,sdf,NA,0,NA,NA,NA,NA,NA,NA,NA,NA,NA,NA,NA,NA,NA,NA,NA,NA,NA,NA,NA
1186f,task,flow.Sequence,3_0_0_0_7,NA,NA,completion,11426.3,218463.40000004,218461.3,218478.2,229904.5,229906,2024-06-02T10:08:58Z,229921.1,NULL,Körper,kiwiliwili,d,NA,NA,NA,NA,sdf,NA,0,NA,NA,NA,NA,NA,NA,NA,NA,NA,NA,NA,NA,NA,NA,NA,NA,NA,NA,NA
1186f,block,flow.Loop,3_0_0_0,NA,NA,completion,100355.6,129543.30000001,129539.506,129548.9,229904.5,229906.20000005,2024-06-02T10:08:58Z,229921.1,NULL,NA,NA,NA,NA,NA,NA,NA,sdf,NA,0,NA,NA,NA,NA,NA,NA,NA,NA,NA,NA,NA,NA,NA,NA,NA,NA,NA,NA,NA
1186f,weiter,canvas.Screen,3_0_0_1,sdf,keypress(Space),response,1000.9,229906.30000001,229904.5,229921.1,230922,230922.90000004,2024-06-02T10:08:59Z,230954,NULL,NA,NA,NA,NA,NA,NA,NA,sdf,NA,0,NA,NA,NA,NA,NA,NA,NA,NA,NA,NA,NA,NA,NA,NA,NA,NA,NA,NA,NA
1186f,check continue,flow.Sequence,3_0_0,NA,NA,completion,101373.1,129543.30000001,129539.506,129548.9,230922,230923.20000005,2024-06-02T10:08:59Z,230954,NULL,NA,NA,NA,NA,NA,NA,NA,sdf,NA,0,NA,NA,NA,NA,NA,NA,NA,NA,NA,NA,NA,NA,NA,NA,NA,NA,NA,NA,NA
1186f,Deep Question,html.Page,3_0_1_0_0_0_0,NA,NA,form submission,9342.3000000119,230942.30000001,230937.726,230954,240296.30000001,240296.5,2024-06-02T10:09:09Z,240298.546,NULL,Körper,kiwiliwili,d,NA,NA,NA,kiwiliwili,NA,NA,1,NA,NA,NA,NA,NA,NA,NA,NA,NA,NA,NA,NA,NA,NA,NA,NA,NA,NA,NA
1186f,"""Richtig""-Screen",canvas.Screen,3_0_1_0_0_0_1,NA,NA,timeout,4996.454,240297.90000004,240298.546,240298.546,245278.4,245279.40000004,2024-06-02T10:09:14Z,245295,NULL,Körper,kiwiliwili,d,NA,NA,NA,NA,sdfdsf,1,1,NA,NA,NA,NA,NA,NA,NA,NA,NA,NA,NA,NA,NA,NA,NA,NA,NA,NA,NA
1186f,"""Falsch""-Screen",canvas.Screen,3_0_1_0_0_0_2,NA,NA,skipped,NA,245285.40000004,NA,NA,245278.4,245285.5,2024-06-02T10:09:14Z,245295,NULL,Körper,kiwiliwili,d,NA,NA,NA,NA,sdfdsf,NA,1,NA,NA,NA,NA,NA,NA,NA,NA,NA,NA,NA,NA,NA,NA,NA,NA,NA,NA,NA
1186f,deep,flow.Sequence,3_0_1_0_0_0,NA,NA,completion,14324.4,230942.30000001,230937.726,230954,245278.4,245285.60000002,2024-06-02T10:09:14Z,245295,NULL,Körper,kiwiliwili,d,NA,NA,NA,NA,sdfdsf,NA,1,NA,NA,NA,NA,NA,NA,NA,NA,NA,NA,NA,NA,NA,NA,NA,NA,NA,NA,NA
1186f,shallow,flow.Sequence,3_0_1_0_0_1,NA,NA,skipped,NA,245285.70000005,NA,NA,245278.4,245285.70000005,2024-06-02T10:09:14Z,245295,NULL,Körper,kiwiliwili,d,NA,NA,NA,NA,sdfdsf,NA,1,NA,NA,NA,NA,NA,NA,NA,NA,NA,NA,NA,NA,NA,NA,NA,NA,NA,NA,NA
1186f,task,flow.Sequence,3_0_1_0_0,NA,NA,completion,14324.4,230942.30000001,230937.726,230954,245278.4,245285.70000005,2024-06-02T10:09:14Z,245295,NULL,Körper,kiwiliwili,d,NA,NA,NA,NA,sdfdsf,NA,1,NA,NA,NA,NA,NA,NA,NA,NA,NA,NA,NA,NA,NA,NA,NA,NA,NA,NA,NA
1186f,deep,flow.Sequence,3_0_1_0_1_0,NA,NA,skipped,NA,245285.70000005,NA,NA,245278.4,245285.70000005,2024-06-02T10:09:14Z,245295,NULL,Konkurrent,mshindani,s,msemaji,mvutaji,kipukusa,NA,sdfdsf,NA,1,NA,NA,NA,NA,NA,NA,NA,NA,NA,NA,NA,NA,NA,NA,NA,NA,NA,NA,NA
1186f,Shallow Question,html.Page,3_0_1_0_1_1_0,NA,NA,form submission,4634.4000000358,245285.80000001,245278.4,245295,249929.40000004,249929.60000002,2024-06-02T10:09:18Z,249942,NULL,Konkurrent,mshindani,s,msemaji,mvutaji,kipukusa,mshindani,NA,NA,1,NA,NA,NA,NA,NA,NA,NA,NA,NA,NA,NA,NA,NA,NA,NA,NA,NA,NA,NA
1186f,"""Richtig""-Screen",canvas.Screen,3_0_1_0_1_1_1,NA,NA,timeout,4997.3,249932.60000002,249925.794,249942,254922.3,254923.10000002,2024-06-02T10:09:23Z,254939.3,NULL,Konkurrent,mshindani,s,msemaji,mvutaji,kipukusa,NA,sdfdsf,1,1,NA,NA,NA,NA,NA,NA,NA,NA,NA,NA,NA,NA,NA,NA,NA,NA,NA,NA,NA
1186f,"""Falsch""-Screen",canvas.Screen,3_0_1_0_1_1_2,NA,NA,skipped,NA,254928.10000002,NA,NA,254922.3,254928.40000004,2024-06-02T10:09:23Z,254939.3,NULL,Konkurrent,mshindani,s,msemaji,mvutaji,kipukusa,NA,sdfdsf,NA,1,NA,NA,NA,NA,NA,NA,NA,NA,NA,NA,NA,NA,NA,NA,NA,NA,NA,NA,NA
1186f,shallow,flow.Sequence,3_0_1_0_1_1,NA,NA,completion,9627.3,245285.70000005,245278.4,245295,254922.3,254928.40000004,2024-06-02T10:09:23Z,254939.3,NULL,Konkurrent,mshindani,s,msemaji,mvutaji,kipukusa,NA,sdfdsf,NA,1,NA,NA,NA,NA,NA,NA,NA,NA,NA,NA,NA,NA,NA,NA,NA,NA,NA,NA,NA
1186f,task,flow.Sequence,3_0_1_0_1,NA,NA,completion,9627.3,245285.70000005,245278.4,245295,254922.3,254928.5,2024-06-02T10:09:23Z,254939.3,NULL,Konkurrent,mshindani,s,msemaji,mvutaji,kipukusa,NA,sdfdsf,NA,1,NA,NA,NA,NA,NA,NA,NA,NA,NA,NA,NA,NA,NA,NA,NA,NA,NA,NA,NA
1186f,Deep Question,html.Page,3_0_1_0_2_0_0,NA,NA,form submission,11900.800000024,254928.60000002,254922.3,254939.3,266840.10000002,266840.20000005,2024-06-02T10:09:35Z,266848.5,NULL,Symbol,kielezo,d,NA,NA,NA,nyonleza,NA,NA,1,NA,NA,NA,NA,NA,NA,NA,NA,NA,NA,NA,NA,NA,NA,NA,NA,NA,NA,NA
1186f,"""Richtig""-Screen",canvas.Screen,3_0_1_0_2_0_1,NA,NA,skipped,NA,266841.60000002,NA,NA,266840.10000002,266841.70000005,2024-06-02T10:09:35Z,266848.5,NULL,Symbol,kielezo,d,NA,NA,NA,NA,sdfdsf,NA,1,NA,NA,NA,NA,NA,NA,NA,NA,NA,NA,NA,NA,NA,NA,NA,NA,NA,NA,NA
1186f,"""Falsch""-Screen",canvas.Screen,3_0_1_0_2_0_2,NA,NA,timeout,4997.2,266842,266831.99,266848.5,271828.7,271829.5,2024-06-02T10:09:40Z,271845.7,NULL,Symbol,kielezo,d,NA,NA,NA,NA,sdfdsf,0,1,NA,NA,NA,NA,NA,NA,NA,NA,NA,NA,NA,NA,NA,NA,NA,NA,NA,NA,NA
1186f,deep,flow.Sequence,3_0_1_0_2_0,NA,NA,completion,16889.4,254928.5,254922.3,254939.3,271828.7,271829.90000004,2024-06-02T10:09:40Z,271845.7,NULL,Symbol,kielezo,d,NA,NA,NA,NA,sdfdsf,NA,1,NA,NA,NA,NA,NA,NA,NA,NA,NA,NA,NA,NA,NA,NA,NA,NA,NA,NA,NA
1186f,shallow,flow.Sequence,3_0_1_0_2_1,NA,NA,skipped,NA,271830,NA,NA,271828.7,271830.20000005,2024-06-02T10:09:40Z,271845.7,NULL,Symbol,kielezo,d,NA,NA,NA,NA,sdfdsf,NA,1,NA,NA,NA,NA,NA,NA,NA,NA,NA,NA,NA,NA,NA,NA,NA,NA,NA,NA,NA
1186f,task,flow.Sequence,3_0_1_0_2,NA,NA,completion,16889.4,254928.5,254922.3,254939.3,271828.7,271830.30000001,2024-06-02T10:09:40Z,271845.7,NULL,Symbol,kielezo,d,NA,NA,NA,NA,sdfdsf,NA,1,NA,NA,NA,NA,NA,NA,NA,NA,NA,NA,NA,NA,NA,NA,NA,NA,NA,NA,NA
1186f,deep,flow.Sequence,3_0_1_0_3_0,NA,NA,skipped,NA,271830.5,NA,NA,271828.7,271830.60000002,2024-06-02T10:09:40Z,271845.7,NULL,System,maongozi,s,chokochoko,nuksani,mitaani,NA,sdfdsf,NA,1,NA,NA,NA,NA,NA,NA,NA,NA,NA,NA,NA,NA,NA,NA,NA,NA,NA,NA,NA
1186f,Shallow Question,html.Page,3_0_1_0_3_1_0,NA,NA,form submission,6313.3,271830.70000005,271828.7,271845.7,278159,278159.30000001,2024-06-02T10:09:46Z,278175.1,NULL,System,maongozi,s,chokochoko,nuksani,mitaani,maongozi,NA,NA,1,NA,NA,NA,NA,NA,NA,NA,NA,NA,NA,NA,NA,NA,NA,NA,NA,NA,NA,NA
1186f,"""Richtig""-Screen",canvas.Screen,3_0_1_0_3_1_1,NA,NA,timeout,4997.2,278162.5,278158.558,278175.1,283155.3,283156.20000005,2024-06-02T10:09:51Z,283172.3,NULL,System,maongozi,s,chokochoko,nuksani,mitaani,NA,sdfdsf,1,1,NA,NA,NA,NA,NA,NA,NA,NA,NA,NA,NA,NA,NA,NA,NA,NA,NA,NA,NA
1186f,"""Falsch""-Screen",canvas.Screen,3_0_1_0_3_1_2,NA,NA,skipped,NA,283161.40000004,NA,NA,283155.3,283161.60000002,2024-06-02T10:09:51Z,283172.3,NULL,System,maongozi,s,chokochoko,nuksani,mitaani,NA,sdfdsf,NA,1,NA,NA,NA,NA,NA,NA,NA,NA,NA,NA,NA,NA,NA,NA,NA,NA,NA,NA,NA
1186f,shallow,flow.Sequence,3_0_1_0_3_1,NA,NA,completion,11309.6,271830.70000005,271828.7,271845.7,283155.3,283161.70000005,2024-06-02T10:09:51Z,283172.3,NULL,System,maongozi,s,chokochoko,nuksani,mitaani,NA,sdfdsf,NA,1,NA,NA,NA,NA,NA,NA,NA,NA,NA,NA,NA,NA,NA,NA,NA,NA,NA,NA,NA
1186f,task,flow.Sequence,3_0_1_0_3,NA,NA,completion,11309.6,271830.40000004,271828.7,271845.7,283155.3,283161.70000005,2024-06-02T10:09:51Z,283172.3,NULL,System,maongozi,s,chokochoko,nuksani,mitaani,NA,sdfdsf,NA,1,NA,NA,NA,NA,NA,NA,NA,NA,NA,NA,NA,NA,NA,NA,NA,NA,NA,NA,NA
1186f,Deep Question,html.Page,3_0_1_0_4_0_0,NA,NA,form submission,12404.7,283161.80000001,283155.3,283172.3,295577,295577.20000005,2024-06-02T10:10:04Z,295580.86,NULL,Zuwachs,nyongeza,d,NA,NA,NA,nyonleza,NA,NA,1,NA,NA,NA,NA,NA,NA,NA,NA,NA,NA,NA,NA,NA,NA,NA,NA,NA,NA,NA
1186f,"""Richtig""-Screen",canvas.Screen,3_0_1_0_4_0_1,NA,NA,skipped,NA,295578.60000002,NA,NA,295577,295578.80000001,2024-06-02T10:10:04Z,295580.86,NULL,Zuwachs,nyongeza,d,NA,NA,NA,NA,sdfdsf,NA,1,NA,NA,NA,NA,NA,NA,NA,NA,NA,NA,NA,NA,NA,NA,NA,NA,NA,NA,NA
1186f,"""Falsch""-Screen",canvas.Screen,3_0_1_0_4_0_2,NA,NA,timeout,4997.14,295579.20000005,295580.86,295580.86,300561.3,300562.30000001,2024-06-02T10:10:09Z,300578,NULL,Zuwachs,nyongeza,d,NA,NA,NA,NA,sdfdsf,0,1,NA,NA,NA,NA,NA,NA,NA,NA,NA,NA,NA,NA,NA,NA,NA,NA,NA,NA,NA
1186f,deep,flow.Sequence,3_0_1_0_4_0,NA,NA,completion,17389,283161.70000005,283155.3,283172.3,300561.3,300563,2024-06-02T10:10:09Z,300578,NULL,Zuwachs,nyongeza,d,NA,NA,NA,NA,sdfdsf,NA,1,NA,NA,NA,NA,NA,NA,NA,NA,NA,NA,NA,NA,NA,NA,NA,NA,NA,NA,NA
1186f,shallow,flow.Sequence,3_0_1_0_4_1,NA,NA,skipped,NA,300563.20000005,NA,NA,300561.3,300563.40000004,2024-06-02T10:10:09Z,300578,NULL,Zuwachs,nyongeza,d,NA,NA,NA,NA,sdfdsf,NA,1,NA,NA,NA,NA,NA,NA,NA,NA,NA,NA,NA,NA,NA,NA,NA,NA,NA,NA,NA
1186f,task,flow.Sequence,3_0_1_0_4,NA,NA,completion,17389,283161.70000005,283155.3,283172.3,300561.3,300563.60000002,2024-06-02T10:10:09Z,300578,NULL,Zuwachs,nyongeza,d,NA,NA,NA,NA,sdfdsf,NA,1,NA,NA,NA,NA,NA,NA,NA,NA,NA,NA,NA,NA,NA,NA,NA,NA,NA,NA,NA
1186f,deep,flow.Sequence,3_0_1_0_5_0,NA,NA,skipped,NA,300563.80000001,NA,NA,300561.3,300563.90000004,2024-06-02T10:10:09Z,300578,NULL,Lawine,banguko,s,maambukizi,usuluhishi,chekechea,NA,sdfdsf,NA,1,NA,NA,NA,NA,NA,NA,NA,NA,NA,NA,NA,NA,NA,NA,NA,NA,NA,NA,NA
1186f,Shallow Question,html.Page,3_0_1_0_5_1_0,NA,NA,form submission,5992.9000000358,300564.10000002,300561.3,300578,306570.90000004,306571.10000002,2024-06-02T10:10:15Z,306574.428,NULL,Lawine,banguko,s,maambukizi,usuluhishi,chekechea,banguko,NA,NA,1,NA,NA,NA,NA,NA,NA,NA,NA,NA,NA,NA,NA,NA,NA,NA,NA,NA,NA,NA
1186f,"""Richtig""-Screen",canvas.Screen,3_0_1_0_5_1_1,NA,NA,timeout,4997.072,306574.70000005,306574.428,306574.428,311554.4,311555.30000001,2024-06-02T10:10:20Z,311571.5,NULL,Lawine,banguko,s,maambukizi,usuluhishi,chekechea,NA,sdfdsf,1,1,NA,NA,NA,NA,NA,NA,NA,NA,NA,NA,NA,NA,NA,NA,NA,NA,NA,NA,NA
1186f,"""Falsch""-Screen",canvas.Screen,3_0_1_0_5_1_2,NA,NA,skipped,NA,311560.40000004,NA,NA,311554.4,311560.5,2024-06-02T10:10:20Z,311571.5,NULL,Lawine,banguko,s,maambukizi,usuluhishi,chekechea,NA,sdfdsf,NA,1,NA,NA,NA,NA,NA,NA,NA,NA,NA,NA,NA,NA,NA,NA,NA,NA,NA,NA,NA
1186f,shallow,flow.Sequence,3_0_1_0_5_1,NA,NA,completion,10976.4,300564.10000002,300561.3,300578,311554.4,311560.70000005,2024-06-02T10:10:20Z,311571.5,NULL,Lawine,banguko,s,maambukizi,usuluhishi,chekechea,NA,sdfdsf,NA,1,NA,NA,NA,NA,NA,NA,NA,NA,NA,NA,NA,NA,NA,NA,NA,NA,NA,NA,NA
1186f,task,flow.Sequence,3_0_1_0_5,NA,NA,completion,10976.4,300563.70000005,300561.3,300578,311554.4,311560.70000005,2024-06-02T10:10:20Z,311571.5,NULL,Lawine,banguko,s,maambukizi,usuluhishi,chekechea,NA,sdfdsf,NA,1,NA,NA,NA,NA,NA,NA,NA,NA,NA,NA,NA,NA,NA,NA,NA,NA,NA,NA,NA
1186f,Deep Question,html.Page,3_0_1_0_6_0_0,NA,NA,form submission,4062,311560.80000001,311554.4,311571.5,315633.5,315633.60000002,2024-06-02T10:10:24Z,315635.784,NULL,Übersicht,kilindo,d,NA,NA,NA,ghfg,NA,NA,1,NA,NA,NA,NA,NA,NA,NA,NA,NA,NA,NA,NA,NA,NA,NA,NA,NA,NA,NA
1186f,"""Richtig""-Screen",canvas.Screen,3_0_1_0_6_0_1,NA,NA,skipped,NA,315636.5,NA,NA,315633.5,315636.60000002,2024-06-02T10:10:24Z,315635.784,NULL,Übersicht,kilindo,d,NA,NA,NA,NA,sdfdsf,NA,1,NA,NA,NA,NA,NA,NA,NA,NA,NA,NA,NA,NA,NA,NA,NA,NA,NA,NA,NA
1186f,"""Falsch""-Screen",canvas.Screen,3_0_1_0_6_0_2,NA,NA,timeout,4996.616,315637,315635.784,315635.784,320615.8,320616.5,2024-06-02T10:10:29Z,320632.4,NULL,Übersicht,kilindo,d,NA,NA,NA,NA,sdfdsf,0,1,NA,NA,NA,NA,NA,NA,NA,NA,NA,NA,NA,NA,NA,NA,NA,NA,NA,NA,NA
1186f,deep,flow.Sequence,3_0_1_0_6_0,NA,NA,completion,9044.3,311560.80000001,311554.4,311571.5,320615.8,320616.80000001,2024-06-02T10:10:29Z,320632.4,NULL,Übersicht,kilindo,d,NA,NA,NA,NA,sdfdsf,NA,1,NA,NA,NA,NA,NA,NA,NA,NA,NA,NA,NA,NA,NA,NA,NA,NA,NA,NA,NA
1186f,shallow,flow.Sequence,3_0_1_0_6_1,NA,NA,skipped,NA,320616.90000004,NA,NA,320615.8,320617.10000002,2024-06-02T10:10:29Z,320632.4,NULL,Übersicht,kilindo,d,NA,NA,NA,NA,sdfdsf,NA,1,NA,NA,NA,NA,NA,NA,NA,NA,NA,NA,NA,NA,NA,NA,NA,NA,NA,NA,NA
1186f,task,flow.Sequence,3_0_1_0_6,NA,NA,completion,9044.3,311560.70000005,311554.4,311571.5,320615.8,320617.30000001,2024-06-02T10:10:29Z,320632.4,NULL,Übersicht,kilindo,d,NA,NA,NA,NA,sdfdsf,NA,1,NA,NA,NA,NA,NA,NA,NA,NA,NA,NA,NA,NA,NA,NA,NA,NA,NA,NA,NA
1186f,deep,flow.Sequence,3_0_1_0_7_0,NA,NA,skipped,NA,320617.40000004,NA,NA,320615.8,320617.5,2024-06-02T10:10:29Z,320632.4,NULL,Vorsorge,tahadhari,s,ufafanuzi,makini,mashambani,NA,sdfdsf,NA,1,NA,NA,NA,NA,NA,NA,NA,NA,NA,NA,NA,NA,NA,NA,NA,NA,NA,NA,NA
1186f,Shallow Question,html.Page,3_0_1_0_7_1_0,NA,NA,form submission,4703.0000000357,320617.60000002,320615.8,320632.4,325335.40000004,325335.60000002,2024-06-02T10:10:34Z,325346.1,NULL,Vorsorge,tahadhari,s,ufafanuzi,makini,mashambani,tahadhari,NA,NA,1,NA,NA,NA,NA,NA,NA,NA,NA,NA,NA,NA,NA,NA,NA,NA,NA,NA,NA,NA
1186f,"""Richtig""-Screen",canvas.Screen,3_0_1_0_7_1_1,NA,NA,timeout,4996.8,325338.80000001,325329.956,325346.1,330326.6,330327,2024-06-02T10:10:39Z,330342.9,NULL,Vorsorge,tahadhari,s,ufafanuzi,makini,mashambani,NA,sdfdsf,1,1,NA,NA,NA,NA,NA,NA,NA,NA,NA,NA,NA,NA,NA,NA,NA,NA,NA,NA,NA
1186f,"""Falsch""-Screen",canvas.Screen,3_0_1_0_7_1_2,NA,NA,skipped,NA,330329.30000001,NA,NA,330326.6,330329.40000004,2024-06-02T10:10:39Z,330342.9,NULL,Vorsorge,tahadhari,s,ufafanuzi,makini,mashambani,NA,sdfdsf,NA,1,NA,NA,NA,NA,NA,NA,NA,NA,NA,NA,NA,NA,NA,NA,NA,NA,NA,NA,NA
1186f,shallow,flow.Sequence,3_0_1_0_7_1,NA,NA,completion,9694.2,320617.60000002,320615.8,320632.4,330326.6,330329.60000002,2024-06-02T10:10:39Z,330342.9,NULL,Vorsorge,tahadhari,s,ufafanuzi,makini,mashambani,NA,sdfdsf,NA,1,NA,NA,NA,NA,NA,NA,NA,NA,NA,NA,NA,NA,NA,NA,NA,NA,NA,NA,NA
1186f,task,flow.Sequence,3_0_1_0_7,NA,NA,completion,9694.2,320617.30000001,320615.8,320632.4,330326.6,330329.70000005,2024-06-02T10:10:39Z,330342.9,NULL,Vorsorge,tahadhari,s,ufafanuzi,makini,mashambani,NA,sdfdsf,NA,1,NA,NA,NA,NA,NA,NA,NA,NA,NA,NA,NA,NA,NA,NA,NA,NA,NA,NA,NA
1186f,block,flow.Loop,3_0_1_0,NA,NA,completion,99372.6,230942.30000001,230937.726,230954,330326.6,330329.70000005,2024-06-02T10:10:39Z,330342.9,NULL,NA,NA,NA,NA,NA,NA,NA,sdfdsf,NA,1,NA,NA,NA,NA,NA,NA,NA,NA,NA,NA,NA,NA,NA,NA,NA,NA,NA,NA,NA
1186f,weiter,canvas.Screen,3_0_1_1,sdf,keypress(Space),response,623.00000003574,330329.80000001,330326.6,330342.9,330965.90000004,330967.10000002,2024-06-02T10:10:39Z,330992.5,NULL,NA,NA,NA,NA,NA,NA,NA,sdfdsf,NA,1,NA,NA,NA,NA,NA,NA,NA,NA,NA,NA,NA,NA,NA,NA,NA,NA,NA,NA,NA
1186f,check continue,flow.Sequence,3_0_1,NA,NA,completion,100011.90000004,230942.30000001,230937.726,230954,330965.90000004,330967.5,2024-06-02T10:10:39Z,330992.5,NULL,NA,NA,NA,NA,NA,NA,NA,sdfdsf,NA,1,NA,NA,NA,NA,NA,NA,NA,NA,NA,NA,NA,NA,NA,NA,NA,NA,NA,NA,NA
1186f,Deep Question,html.Page,3_0_2_0_0_0_0,NA,NA,form submission,7241.6000000238,330985.10000002,330976.358,330992.5,338234.10000002,338234.30000001,2024-06-02T10:10:47Z,338238,NULL,Übersicht,kilindo,d,NA,NA,NA,kilindo,NA,NA,2,NA,NA,NA,NA,NA,NA,NA,NA,NA,NA,NA,NA,NA,NA,NA,NA,NA,NA,NA
1186f,"""Richtig""-Screen",canvas.Screen,3_0_2_0_0_0_1,NA,NA,timeout,4997.4,338237.40000004,338223.4,338238,343218.6,343219.5,2024-06-02T10:10:52Z,343235.4,NULL,Übersicht,kilindo,d,NA,NA,NA,NA,sdf,1,2,NA,NA,NA,NA,NA,NA,NA,NA,NA,NA,NA,NA,NA,NA,NA,NA,NA,NA,NA
1186f,"""Falsch""-Screen",canvas.Screen,3_0_2_0_0_0_2,NA,NA,skipped,NA,343224.30000001,NA,NA,343218.6,343224.40000004,2024-06-02T10:10:52Z,343235.4,NULL,Übersicht,kilindo,d,NA,NA,NA,NA,sdf,NA,2,NA,NA,NA,NA,NA,NA,NA,NA,NA,NA,NA,NA,NA,NA,NA,NA,NA,NA,NA
1186f,deep,flow.Sequence,3_0_2_0_0_0,NA,NA,completion,12226.1,330985.10000002,330976.358,330992.5,343218.6,343224.60000002,2024-06-02T10:10:52Z,343235.4,NULL,Übersicht,kilindo,d,NA,NA,NA,NA,sdf,NA,2,NA,NA,NA,NA,NA,NA,NA,NA,NA,NA,NA,NA,NA,NA,NA,NA,NA,NA,NA
1186f,shallow,flow.Sequence,3_0_2_0_0_1,NA,NA,skipped,NA,343224.60000002,NA,NA,343218.6,343224.60000002,2024-06-02T10:10:52Z,343235.4,NULL,Übersicht,kilindo,d,NA,NA,NA,NA,sdf,NA,2,NA,NA,NA,NA,NA,NA,NA,NA,NA,NA,NA,NA,NA,NA,NA,NA,NA,NA,NA
1186f,task,flow.Sequence,3_0_2_0_0,NA,NA,completion,12226.1,330985.10000002,330976.358,330992.5,343218.6,343224.60000002,2024-06-02T10:10:52Z,343235.4,NULL,Übersicht,kilindo,d,NA,NA,NA,NA,sdf,NA,2,NA,NA,NA,NA,NA,NA,NA,NA,NA,NA,NA,NA,NA,NA,NA,NA,NA,NA,NA
1186f,deep,flow.Sequence,3_0_2_0_1_0,NA,NA,skipped,NA,343224.70000005,NA,NA,343218.6,343224.70000005,2024-06-02T10:10:52Z,343235.4,NULL,Konkurrent,mshindani,s,msemaji,mvutaji,kipukusa,NA,sdf,NA,2,NA,NA,NA,NA,NA,NA,NA,NA,NA,NA,NA,NA,NA,NA,NA,NA,NA,NA,NA
1186f,Shallow Question,html.Page,3_0_2_0_1_1_0,NA,NA,form submission,3767.4000000119,343224.80000001,343218.6,343235.4,347002.80000001,347003,2024-06-02T10:10:55Z,347016.4,NULL,Konkurrent,mshindani,s,msemaji,mvutaji,kipukusa,mshindani,NA,NA,2,NA,NA,NA,NA,NA,NA,NA,NA,NA,NA,NA,NA,NA,NA,NA,NA,NA,NA,NA
1186f,"""Richtig""-Screen",canvas.Screen,3_0_2_0_1_1_1,NA,NA,timeout,4997,347006,347000.766,347016.4,351996.7,351997.5,2024-06-02T10:11:00Z,352013.4,NULL,Konkurrent,mshindani,s,msemaji,mvutaji,kipukusa,NA,sdf,1,2,NA,NA,NA,NA,NA,NA,NA,NA,NA,NA,NA,NA,NA,NA,NA,NA,NA,NA,NA
1186f,"""Falsch""-Screen",canvas.Screen,3_0_2_0_1_1_2,NA,NA,skipped,NA,352002.80000001,NA,NA,351996.7,352002.80000001,2024-06-02T10:11:00Z,352013.4,NULL,Konkurrent,mshindani,s,msemaji,mvutaji,kipukusa,NA,sdf,NA,2,NA,NA,NA,NA,NA,NA,NA,NA,NA,NA,NA,NA,NA,NA,NA,NA,NA,NA,NA
1186f,shallow,flow.Sequence,3_0_2_0_1_1,NA,NA,completion,8761.3,343224.80000001,343218.6,343235.4,351996.7,352002.90000004,2024-06-02T10:11:00Z,352013.4,NULL,Konkurrent,mshindani,s,msemaji,mvutaji,kipukusa,NA,sdf,NA,2,NA,NA,NA,NA,NA,NA,NA,NA,NA,NA,NA,NA,NA,NA,NA,NA,NA,NA,NA
1186f,task,flow.Sequence,3_0_2_0_1,NA,NA,completion,8761.3,343224.70000005,343218.6,343235.4,351996.7,352003,2024-06-02T10:11:00Z,352013.4,NULL,Konkurrent,mshindani,s,msemaji,mvutaji,kipukusa,NA,sdf,NA,2,NA,NA,NA,NA,NA,NA,NA,NA,NA,NA,NA,NA,NA,NA,NA,NA,NA,NA,NA
1186f,deep,flow.Sequence,3_0_2_0_2_0,NA,NA,skipped,NA,352003,NA,NA,351996.7,352003,2024-06-02T10:11:00Z,352013.4,NULL,System,maongozi,s,chokochoko,nuksani,mitaani,NA,sdf,NA,2,NA,NA,NA,NA,NA,NA,NA,NA,NA,NA,NA,NA,NA,NA,NA,NA,NA,NA,NA
1186f,Shallow Question,html.Page,3_0_2_0_2_1_0,NA,NA,form submission,3440.3000000477,352003.10000002,351996.7,352013.4,355453.70000005,355453.80000001,2024-06-02T10:11:04Z,355460.8,NULL,System,maongozi,s,chokochoko,nuksani,mitaani,maongozi,NA,NA,2,NA,NA,NA,NA,NA,NA,NA,NA,NA,NA,NA,NA,NA,NA,NA,NA,NA,NA,NA
1186f,"""Richtig""-Screen",canvas.Screen,3_0_2_0_2_1_1,NA,NA,timeout,4997,355456.20000005,355445.592,355460.8,360441.5,360441.90000004,2024-06-02T10:11:09Z,360457.8,NULL,System,maongozi,s,chokochoko,nuksani,mitaani,NA,sdf,1,2,NA,NA,NA,NA,NA,NA,NA,NA,NA,NA,NA,NA,NA,NA,NA,NA,NA,NA,NA
1186f,"""Falsch""-Screen",canvas.Screen,3_0_2_0_2_1_2,NA,NA,skipped,NA,360444.70000005,NA,NA,360441.5,360444.80000001,2024-06-02T10:11:09Z,360457.8,NULL,System,maongozi,s,chokochoko,nuksani,mitaani,NA,sdf,NA,2,NA,NA,NA,NA,NA,NA,NA,NA,NA,NA,NA,NA,NA,NA,NA,NA,NA,NA,NA
1186f,shallow,flow.Sequence,3_0_2_0_2_1,NA,NA,completion,8428.1,352003,351996.7,352013.4,360441.5,360444.90000004,2024-06-02T10:11:09Z,360457.8,NULL,System,maongozi,s,chokochoko,nuksani,mitaani,NA,sdf,NA,2,NA,NA,NA,NA,NA,NA,NA,NA,NA,NA,NA,NA,NA,NA,NA,NA,NA,NA,NA
1186f,task,flow.Sequence,3_0_2_0_2,NA,NA,completion,8428.1,352003,351996.7,352013.4,360441.5,360445,2024-06-02T10:11:09Z,360457.8,NULL,System,maongozi,s,chokochoko,nuksani,mitaani,NA,sdf,NA,2,NA,NA,NA,NA,NA,NA,NA,NA,NA,NA,NA,NA,NA,NA,NA,NA,NA,NA,NA
1186f,deep,flow.Sequence,3_0_2_0_3_0,NA,NA,skipped,NA,360445.10000002,NA,NA,360441.5,360445.30000001,2024-06-02T10:11:09Z,360457.8,NULL,Lawine,banguko,s,maambukizi,usuluhishi,chekechea,NA,sdf,NA,2,NA,NA,NA,NA,NA,NA,NA,NA,NA,NA,NA,NA,NA,NA,NA,NA,NA,NA,NA
1186f,Shallow Question,html.Page,3_0_2_0_3_1_0,NA,NA,form submission,4221.2,360445.30000001,360441.5,360457.8,364679,364679.20000005,2024-06-02T10:11:13Z,364688.5,NULL,Lawine,banguko,s,maambukizi,usuluhishi,chekechea,banguko,NA,NA,2,NA,NA,NA,NA,NA,NA,NA,NA,NA,NA,NA,NA,NA,NA,NA,NA,NA,NA,NA
1186f,"""Richtig""-Screen",canvas.Screen,3_0_2_0_3_1_1,NA,NA,timeout,4997.4,364680.5,364672.542,364688.5,369668.8,369670.5,2024-06-02T10:11:18Z,369685.9,NULL,Lawine,banguko,s,maambukizi,usuluhishi,chekechea,NA,sdf,1,2,NA,NA,NA,NA,NA,NA,NA,NA,NA,NA,NA,NA,NA,NA,NA,NA,NA,NA,NA
1186f,"""Falsch""-Screen",canvas.Screen,3_0_2_0_3_1_2,NA,NA,skipped,NA,369675.10000002,NA,NA,369668.8,369675.10000002,2024-06-02T10:11:18Z,369685.9,NULL,Lawine,banguko,s,maambukizi,usuluhishi,chekechea,NA,sdf,NA,2,NA,NA,NA,NA,NA,NA,NA,NA,NA,NA,NA,NA,NA,NA,NA,NA,NA,NA,NA
1186f,shallow,flow.Sequence,3_0_2_0_3_1,NA,NA,completion,9211,360445.30000001,360441.5,360457.8,369668.8,369675.20000005,2024-06-02T10:11:18Z,369685.9,NULL,Lawine,banguko,s,maambukizi,usuluhishi,chekechea,NA,sdf,NA,2,NA,NA,NA,NA,NA,NA,NA,NA,NA,NA,NA,NA,NA,NA,NA,NA,NA,NA,NA
1186f,task,flow.Sequence,3_0_2_0_3,NA,NA,completion,9211,360445.10000002,360441.5,360457.8,369668.8,369675.30000001,2024-06-02T10:11:18Z,369685.9,NULL,Lawine,banguko,s,maambukizi,usuluhishi,chekechea,NA,sdf,NA,2,NA,NA,NA,NA,NA,NA,NA,NA,NA,NA,NA,NA,NA,NA,NA,NA,NA,NA,NA
1186f,deep,flow.Sequence,3_0_2_0_4_0,NA,NA,skipped,NA,369675.30000001,NA,NA,369668.8,369675.40000004,2024-06-02T10:11:18Z,369685.9,NULL,Vorsorge,tahadhari,s,ufafanuzi,makini,mashambani,NA,sdf,NA,2,NA,NA,NA,NA,NA,NA,NA,NA,NA,NA,NA,NA,NA,NA,NA,NA,NA,NA,NA
1186f,Shallow Question,html.Page,3_0_2_0_4_1_0,NA,NA,form submission,4009.0000000357,369675.40000004,369668.8,369685.9,373694.90000004,373695.10000002,2024-06-02T10:11:22Z,373716.6,NULL,Vorsorge,tahadhari,s,ufafanuzi,makini,mashambani,tahadhari,NA,NA,2,NA,NA,NA,NA,NA,NA,NA,NA,NA,NA,NA,NA,NA,NA,NA,NA,NA,NA,NA
1186f,"""Richtig""-Screen",canvas.Screen,3_0_2_0_4_1_1,NA,NA,timeout,4996.8,373697.80000001,373699.9,373716.6,378696.7,378697.5,2024-06-02T10:11:27Z,378713.4,NULL,Vorsorge,tahadhari,s,ufafanuzi,makini,mashambani,NA,sdf,1,2,NA,NA,NA,NA,NA,NA,NA,NA,NA,NA,NA,NA,NA,NA,NA,NA,NA,NA,NA
1186f,"""Falsch""-Screen",canvas.Screen,3_0_2_0_4_1_2,NA,NA,skipped,NA,378702.30000001,NA,NA,378696.7,378702.40000004,2024-06-02T10:11:27Z,378713.4,NULL,Vorsorge,tahadhari,s,ufafanuzi,makini,mashambani,NA,sdf,NA,2,NA,NA,NA,NA,NA,NA,NA,NA,NA,NA,NA,NA,NA,NA,NA,NA,NA,NA,NA
1186f,shallow,flow.Sequence,3_0_2_0_4_1,NA,NA,completion,9010.8,369675.40000004,369668.8,369685.9,378696.7,378702.40000004,2024-06-02T10:11:27Z,378713.4,NULL,Vorsorge,tahadhari,s,ufafanuzi,makini,mashambani,NA,sdf,NA,2,NA,NA,NA,NA,NA,NA,NA,NA,NA,NA,NA,NA,NA,NA,NA,NA,NA,NA,NA
1186f,task,flow.Sequence,3_0_2_0_4,NA,NA,completion,9010.8,369675.30000001,369668.8,369685.9,378696.7,378702.5,2024-06-02T10:11:27Z,378713.4,NULL,Vorsorge,tahadhari,s,ufafanuzi,makini,mashambani,NA,sdf,NA,2,NA,NA,NA,NA,NA,NA,NA,NA,NA,NA,NA,NA,NA,NA,NA,NA,NA,NA,NA
1186f,Deep Question,html.Page,3_0_2_0_5_0_0,NA,NA,form submission,19426.400000012,378702.60000002,378696.7,378713.4,398139.80000001,398140,2024-06-02T10:11:46Z,398151.3,NULL,Symbol,kielezo,d,NA,NA,NA,kilindo,NA,NA,2,NA,NA,NA,NA,NA,NA,NA,NA,NA,NA,NA,NA,NA,NA,NA,NA,NA,NA,NA
1186f,"""Richtig""-Screen",canvas.Screen,3_0_2_0_5_0_1,NA,NA,skipped,NA,398143.30000001,NA,NA,398139.80000001,398143.40000004,2024-06-02T10:11:46Z,398151.3,NULL,Symbol,kielezo,d,NA,NA,NA,NA,sdf,NA,2,NA,NA,NA,NA,NA,NA,NA,NA,NA,NA,NA,NA,NA,NA,NA,NA,NA,NA,NA
1186f,"""Falsch""-Screen",canvas.Screen,3_0_2_0_5_0_2,NA,NA,timeout,4997.3,398144.20000005,398134.9,398151.3,403131.7,403132.5,2024-06-02T10:11:51Z,403148.6,NULL,Symbol,kielezo,d,NA,NA,NA,NA,sdf,0,2,NA,NA,NA,NA,NA,NA,NA,NA,NA,NA,NA,NA,NA,NA,NA,NA,NA,NA,NA
1186f,deep,flow.Sequence,3_0_2_0_5_0,NA,NA,completion,24418.3,378702.60000002,378696.7,378713.4,403131.7,403133,2024-06-02T10:11:51Z,403148.6,NULL,Symbol,kielezo,d,NA,NA,NA,NA,sdf,NA,2,NA,NA,NA,NA,NA,NA,NA,NA,NA,NA,NA,NA,NA,NA,NA,NA,NA,NA,NA
1186f,shallow,flow.Sequence,3_0_2_0_5_1,NA,NA,skipped,NA,403133.20000005,NA,NA,403131.7,403133.40000004,2024-06-02T10:11:51Z,403148.6,NULL,Symbol,kielezo,d,NA,NA,NA,NA,sdf,NA,2,NA,NA,NA,NA,NA,NA,NA,NA,NA,NA,NA,NA,NA,NA,NA,NA,NA,NA,NA
1186f,task,flow.Sequence,3_0_2_0_5,NA,NA,completion,24418.3,378702.5,378696.7,378713.4,403131.7,403133.70000005,2024-06-02T10:11:51Z,403148.6,NULL,Symbol,kielezo,d,NA,NA,NA,NA,sdf,NA,2,NA,NA,NA,NA,NA,NA,NA,NA,NA,NA,NA,NA,NA,NA,NA,NA,NA,NA,NA
1186f,Deep Question,html.Page,3_0_2_0_6_0_0,NA,NA,form submission,10165.100000048,403134,403131.7,403148.6,413313.70000005,413313.90000004,2024-06-02T10:12:02Z,413325.8,NULL,Körper,kiwiliwili,d,NA,NA,NA,kiwaliwili,NA,NA,2,NA,NA,NA,NA,NA,NA,NA,NA,NA,NA,NA,NA,NA,NA,NA,NA,NA,NA,NA
1186f,"""Richtig""-Screen",canvas.Screen,3_0_2_0_6_0_1,NA,NA,skipped,NA,413317,NA,NA,413313.70000005,413317.10000002,2024-06-02T10:12:02Z,413325.8,NULL,Körper,kiwiliwili,d,NA,NA,NA,NA,sdf,NA,2,NA,NA,NA,NA,NA,NA,NA,NA,NA,NA,NA,NA,NA,NA,NA,NA,NA,NA,NA
1186f,"""Falsch""-Screen",canvas.Screen,3_0_2_0_6_0_2,NA,NA,timeout,4997,413317.90000004,413309.32,413325.8,418306,418306.90000004,2024-06-02T10:12:07Z,418322.8,NULL,Körper,kiwiliwili,d,NA,NA,NA,NA,sdf,0,2,NA,NA,NA,NA,NA,NA,NA,NA,NA,NA,NA,NA,NA,NA,NA,NA,NA,NA,NA
1186f,deep,flow.Sequence,3_0_2_0_6_0,NA,NA,completion,15157.4,403133.90000004,403131.7,403148.6,418306,418307.30000001,2024-06-02T10:12:07Z,418322.8,NULL,Körper,kiwiliwili,d,NA,NA,NA,NA,sdf,NA,2,NA,NA,NA,NA,NA,NA,NA,NA,NA,NA,NA,NA,NA,NA,NA,NA,NA,NA,NA
1186f,shallow,flow.Sequence,3_0_2_0_6_1,NA,NA,skipped,NA,418307.40000004,NA,NA,418306,418307.60000002,2024-06-02T10:12:07Z,418322.8,NULL,Körper,kiwiliwili,d,NA,NA,NA,NA,sdf,NA,2,NA,NA,NA,NA,NA,NA,NA,NA,NA,NA,NA,NA,NA,NA,NA,NA,NA,NA,NA
1186f,task,flow.Sequence,3_0_2_0_6,NA,NA,completion,15157.4,403133.80000001,403131.7,403148.6,418306,418307.80000001,2024-06-02T10:12:07Z,418322.8,NULL,Körper,kiwiliwili,d,NA,NA,NA,NA,sdf,NA,2,NA,NA,NA,NA,NA,NA,NA,NA,NA,NA,NA,NA,NA,NA,NA,NA,NA,NA,NA
1186f,Deep Question,html.Page,3_0_2_0_7_0_0,NA,NA,form submission,9281.3000000239,418308,418306,418322.8,427604.10000002,427604.20000005,2024-06-02T10:12:16Z,427617.1,NULL,Zuwachs,nyongeza,d,NA,NA,NA,nyonleza,NA,NA,2,NA,NA,NA,NA,NA,NA,NA,NA,NA,NA,NA,NA,NA,NA,NA,NA,NA,NA,NA
1186f,"""Richtig""-Screen",canvas.Screen,3_0_2_0_7_0_1,NA,NA,skipped,NA,427607.30000001,NA,NA,427604.10000002,427607.5,2024-06-02T10:12:16Z,427617.1,NULL,Zuwachs,nyongeza,d,NA,NA,NA,NA,sdf,NA,2,NA,NA,NA,NA,NA,NA,NA,NA,NA,NA,NA,NA,NA,NA,NA,NA,NA,NA,NA
1186f,"""Falsch""-Screen",canvas.Screen,3_0_2_0_7_0_2,NA,NA,timeout,4996.8,427608.20000005,427600.592,427617.1,432597.3,432598.20000005,2024-06-02T10:12:21Z,432613.9,NULL,Zuwachs,nyongeza,d,NA,NA,NA,NA,sdf,0,2,NA,NA,NA,NA,NA,NA,NA,NA,NA,NA,NA,NA,NA,NA,NA,NA,NA,NA,NA
1186f,deep,flow.Sequence,3_0_2_0_7_0,NA,NA,completion,14274.5,418307.90000004,418306,418322.8,432597.3,432598.70000005,2024-06-02T10:12:21Z,432613.9,NULL,Zuwachs,nyongeza,d,NA,NA,NA,NA,sdf,NA,2,NA,NA,NA,NA,NA,NA,NA,NA,NA,NA,NA,NA,NA,NA,NA,NA,NA,NA,NA
1186f,shallow,flow.Sequence,3_0_2_0_7_1,NA,NA,skipped,NA,432598.80000001,NA,NA,432597.3,432598.90000004,2024-06-02T10:12:21Z,432613.9,NULL,Zuwachs,nyongeza,d,NA,NA,NA,NA,sdf,NA,2,NA,NA,NA,NA,NA,NA,NA,NA,NA,NA,NA,NA,NA,NA,NA,NA,NA,NA,NA
1186f,task,flow.Sequence,3_0_2_0_7,NA,NA,completion,14274.5,418307.90000004,418306,418322.8,432597.3,432599,2024-06-02T10:12:21Z,432613.9,NULL,Zuwachs,nyongeza,d,NA,NA,NA,NA,sdf,NA,2,NA,NA,NA,NA,NA,NA,NA,NA,NA,NA,NA,NA,NA,NA,NA,NA,NA,NA,NA
1186f,block,flow.Loop,3_0_2_0,NA,NA,completion,101604.8,330985.10000002,330976.358,330992.5,432597.3,432599.20000005,2024-06-02T10:12:21Z,432613.9,NULL,NA,NA,NA,NA,NA,NA,NA,sdf,NA,2,NA,NA,NA,NA,NA,NA,NA,NA,NA,NA,NA,NA,NA,NA,NA,NA,NA,NA,NA
1186f,weiter,canvas.Screen,3_0_2_1,sdf,keypress(Space),response,674.59999999998,432599.40000004,432597.3,432613.9,433288.5,433289.60000002,2024-06-02T10:12:22Z,433296.996,NULL,NA,NA,NA,NA,NA,NA,NA,sdf,NA,2,NA,NA,NA,NA,NA,NA,NA,NA,NA,NA,NA,NA,NA,NA,NA,NA,NA,NA,NA
1186f,check continue,flow.Sequence,3_0_2,NA,NA,completion,102296,330985,330976.358,330992.5,433288.5,433289.90000004,2024-06-02T10:12:22Z,433296.996,NULL,NA,NA,NA,NA,NA,NA,NA,sdf,NA,2,NA,NA,NA,NA,NA,NA,NA,NA,NA,NA,NA,NA,NA,NA,NA,NA,NA,NA,NA
1186f,deep,flow.Sequence,3_0_3_0_0_0,NA,NA,skipped,NA,433308.40000004,NA,NA,433288.5,433308.60000002,2024-06-02T10:12:22Z,433296.996,NULL,Lawine,banguko,s,maambukizi,usuluhishi,chekechea,NA,qt,NA,3,NA,NA,NA,NA,NA,NA,NA,NA,NA,NA,NA,NA,NA,NA,NA,NA,NA,NA,NA
1186f,Shallow Question,html.Page,3_0_3_0_0_1_0,NA,NA,form submission,3190.1040000239,433308.90000004,433296.996,433296.996,436487.10000002,436487.20000005,2024-06-02T10:12:25Z,436494.8,NULL,Lawine,banguko,s,maambukizi,usuluhishi,chekechea,banguko,NA,NA,3,NA,NA,NA,NA,NA,NA,NA,NA,NA,NA,NA,NA,NA,NA,NA,NA,NA,NA,NA
1186f,"""Richtig""-Screen",canvas.Screen,3_0_3_0_0_1_1,NA,NA,timeout,4997.3,436490.20000005,436478.456,436494.8,441475.1,441476,2024-06-02T10:12:30Z,441492.1,NULL,Lawine,banguko,s,maambukizi,usuluhishi,chekechea,NA,qt,1,3,NA,NA,NA,NA,NA,NA,NA,NA,NA,NA,NA,NA,NA,NA,NA,NA,NA,NA,NA
1186f,"""Falsch""-Screen",canvas.Screen,3_0_3_0_0_1_2,NA,NA,skipped,NA,441481,NA,NA,441475.1,441481.10000002,2024-06-02T10:12:30Z,441492.1,NULL,Lawine,banguko,s,maambukizi,usuluhishi,chekechea,NA,qt,NA,3,NA,NA,NA,NA,NA,NA,NA,NA,NA,NA,NA,NA,NA,NA,NA,NA,NA,NA,NA
1186f,shallow,flow.Sequence,3_0_3_0_0_1,NA,NA,completion,8178.104,433308.90000004,433296.996,433296.996,441475.1,441481.20000005,2024-06-02T10:12:30Z,441492.1,NULL,Lawine,banguko,s,maambukizi,usuluhishi,chekechea,NA,qt,NA,3,NA,NA,NA,NA,NA,NA,NA,NA,NA,NA,NA,NA,NA,NA,NA,NA,NA,NA,NA
1186f,task,flow.Sequence,3_0_3_0_0,NA,NA,completion,8178.104,433308.40000004,433296.996,433296.996,441475.1,441481.30000001,2024-06-02T10:12:30Z,441492.1,NULL,Lawine,banguko,s,maambukizi,usuluhishi,chekechea,NA,qt,NA,3,NA,NA,NA,NA,NA,NA,NA,NA,NA,NA,NA,NA,NA,NA,NA,NA,NA,NA,NA
1186f,Deep Question,html.Page,3_0_3_0_1_0_0,NA,NA,form submission,9094.0000000239,441481.30000001,441475.1,441492.1,450586.10000002,450586.40000004,2024-06-02T10:12:39Z,450603.3,NULL,Übersicht,kilindo,d,NA,NA,NA,kilindo,NA,NA,3,NA,NA,NA,NA,NA,NA,NA,NA,NA,NA,NA,NA,NA,NA,NA,NA,NA,NA,NA
1186f,"""Richtig""-Screen",canvas.Screen,3_0_3_0_1_0_1,NA,NA,timeout,4996.3,450590,450586.622,450603.3,455583.3,455584.10000002,2024-06-02T10:12:44Z,455599.6,NULL,Übersicht,kilindo,d,NA,NA,NA,NA,qt,1,3,NA,NA,NA,NA,NA,NA,NA,NA,NA,NA,NA,NA,NA,NA,NA,NA,NA,NA,NA
1186f,"""Falsch""-Screen",canvas.Screen,3_0_3_0_1_0_2,NA,NA,skipped,NA,455589.60000002,NA,NA,455583.3,455589.80000001,2024-06-02T10:12:44Z,455599.6,NULL,Übersicht,kilindo,d,NA,NA,NA,NA,qt,NA,3,NA,NA,NA,NA,NA,NA,NA,NA,NA,NA,NA,NA,NA,NA,NA,NA,NA,NA,NA
1186f,deep,flow.Sequence,3_0_3_0_1_0,NA,NA,completion,14091.2,441481.30000001,441475.1,441492.1,455583.3,455590.10000002,2024-06-02T10:12:44Z,455599.6,NULL,Übersicht,kilindo,d,NA,NA,NA,NA,qt,NA,3,NA,NA,NA,NA,NA,NA,NA,NA,NA,NA,NA,NA,NA,NA,NA,NA,NA,NA,NA
1186f,shallow,flow.Sequence,3_0_3_0_1_1,NA,NA,skipped,NA,455590.20000005,NA,NA,455583.3,455590.40000004,2024-06-02T10:12:44Z,455599.6,NULL,Übersicht,kilindo,d,NA,NA,NA,NA,qt,NA,3,NA,NA,NA,NA,NA,NA,NA,NA,NA,NA,NA,NA,NA,NA,NA,NA,NA,NA,NA
1186f,task,flow.Sequence,3_0_3_0_1,NA,NA,completion,14091.2,441481.30000001,441475.1,441492.1,455583.3,455590.5,2024-06-02T10:12:44Z,455599.6,NULL,Übersicht,kilindo,d,NA,NA,NA,NA,qt,NA,3,NA,NA,NA,NA,NA,NA,NA,NA,NA,NA,NA,NA,NA,NA,NA,NA,NA,NA,NA
1186f,Deep Question,html.Page,3_0_3_0_2_0_0,NA,NA,form submission,6176.1000000477,455590.60000002,455583.3,455599.6,461775.70000005,461776,2024-06-02T10:12:50Z,461779.624,NULL,Körper,kiwiliwili,d,NA,NA,NA,kiwiliwili,NA,NA,3,NA,NA,NA,NA,NA,NA,NA,NA,NA,NA,NA,NA,NA,NA,NA,NA,NA,NA,NA
1186f,"""Richtig""-Screen",canvas.Screen,3_0_3_0_2_0_1,NA,NA,timeout,4996.876,461778.90000004,461779.624,461779.624,466759.7,466760.70000005,2024-06-02T10:12:55Z,466776.5,NULL,Körper,kiwiliwili,d,NA,NA,NA,NA,qt,1,3,NA,NA,NA,NA,NA,NA,NA,NA,NA,NA,NA,NA,NA,NA,NA,NA,NA,NA,NA
1186f,"""Falsch""-Screen",canvas.Screen,3_0_3_0_2_0_2,NA,NA,skipped,NA,466765.5,NA,NA,466759.7,466765.60000002,2024-06-02T10:12:55Z,466776.5,NULL,Körper,kiwiliwili,d,NA,NA,NA,NA,qt,NA,3,NA,NA,NA,NA,NA,NA,NA,NA,NA,NA,NA,NA,NA,NA,NA,NA,NA,NA,NA
1186f,deep,flow.Sequence,3_0_3_0_2_0,NA,NA,completion,11160.1,455590.60000002,455583.3,455599.6,466759.7,466765.70000005,2024-06-02T10:12:55Z,466776.5,NULL,Körper,kiwiliwili,d,NA,NA,NA,NA,qt,NA,3,NA,NA,NA,NA,NA,NA,NA,NA,NA,NA,NA,NA,NA,NA,NA,NA,NA,NA,NA
1186f,shallow,flow.Sequence,3_0_3_0_2_1,NA,NA,skipped,NA,466765.70000005,NA,NA,466759.7,466765.80000001,2024-06-02T10:12:55Z,466776.5,NULL,Körper,kiwiliwili,d,NA,NA,NA,NA,qt,NA,3,NA,NA,NA,NA,NA,NA,NA,NA,NA,NA,NA,NA,NA,NA,NA,NA,NA,NA,NA
1186f,task,flow.Sequence,3_0_3_0_2,NA,NA,completion,11160.1,455590.60000002,455583.3,455599.6,466759.7,466765.90000004,2024-06-02T10:12:55Z,466776.5,NULL,Körper,kiwiliwili,d,NA,NA,NA,NA,qt,NA,3,NA,NA,NA,NA,NA,NA,NA,NA,NA,NA,NA,NA,NA,NA,NA,NA,NA,NA,NA
1186f,Deep Question,html.Page,3_0_3_0_3_0_0,NA,NA,form submission,5955.2000000477,466765.90000004,466759.7,466776.5,472731.70000005,472732,2024-06-02T10:13:01Z,472739.2,NULL,Symbol,kielezo,d,NA,NA,NA,kieleza,NA,NA,3,NA,NA,NA,NA,NA,NA,NA,NA,NA,NA,NA,NA,NA,NA,NA,NA,NA,NA,NA
1186f,"""Richtig""-Screen",canvas.Screen,3_0_3_0_3_0_1,NA,NA,skipped,NA,472734.90000004,NA,NA,472731.70000005,472735.10000002,2024-06-02T10:13:01Z,472739.2,NULL,Symbol,kielezo,d,NA,NA,NA,NA,qt,NA,3,NA,NA,NA,NA,NA,NA,NA,NA,NA,NA,NA,NA,NA,NA,NA,NA,NA,NA,NA
1186f,"""Falsch""-Screen",canvas.Screen,3_0_3_0_3_0_2,NA,NA,timeout,4997.3,472735.80000001,472722.654,472739.2,477719.7,477720.60000002,2024-06-02T10:13:06Z,477736.5,NULL,Symbol,kielezo,d,NA,NA,NA,NA,qt,0,3,NA,NA,NA,NA,NA,NA,NA,NA,NA,NA,NA,NA,NA,NA,NA,NA,NA,NA,NA
1186f,deep,flow.Sequence,3_0_3_0_3_0,NA,NA,completion,10943.2,466765.90000004,466759.7,466776.5,477719.7,477721.10000002,2024-06-02T10:13:06Z,477736.5,NULL,Symbol,kielezo,d,NA,NA,NA,NA,qt,NA,3,NA,NA,NA,NA,NA,NA,NA,NA,NA,NA,NA,NA,NA,NA,NA,NA,NA,NA,NA
1186f,shallow,flow.Sequence,3_0_3_0_3_1,NA,NA,skipped,NA,477721.20000005,NA,NA,477719.7,477721.40000004,2024-06-02T10:13:06Z,477736.5,NULL,Symbol,kielezo,d,NA,NA,NA,NA,qt,NA,3,NA,NA,NA,NA,NA,NA,NA,NA,NA,NA,NA,NA,NA,NA,NA,NA,NA,NA,NA
1186f,task,flow.Sequence,3_0_3_0_3,NA,NA,completion,10943.2,466765.90000004,466759.7,466776.5,477719.7,477721.70000005,2024-06-02T10:13:06Z,477736.5,NULL,Symbol,kielezo,d,NA,NA,NA,NA,qt,NA,3,NA,NA,NA,NA,NA,NA,NA,NA,NA,NA,NA,NA,NA,NA,NA,NA,NA,NA,NA
1186f,deep,flow.Sequence,3_0_3_0_4_0,NA,NA,skipped,NA,477721.80000001,NA,NA,477719.7,477722,2024-06-02T10:13:06Z,477736.5,NULL,System,maongozi,s,chokochoko,nuksani,mitaani,NA,qt,NA,3,NA,NA,NA,NA,NA,NA,NA,NA,NA,NA,NA,NA,NA,NA,NA,NA,NA,NA,NA
1186f,Shallow Question,html.Page,3_0_3_0_4_1_0,NA,NA,form submission,3502.3000000119,477722.10000002,477719.7,477736.5,481238.80000001,481238.90000004,2024-06-02T10:13:10Z,481250.6,NULL,System,maongozi,s,chokochoko,nuksani,mitaani,maongozi,NA,NA,3,NA,NA,NA,NA,NA,NA,NA,NA,NA,NA,NA,NA,NA,NA,NA,NA,NA,NA,NA
1186f,"""Richtig""-Screen",canvas.Screen,3_0_3_0_4_1_1,NA,NA,timeout,4996.8,481242,481234.554,481250.6,486231.2,486232.10000002,2024-06-02T10:13:15Z,486247.4,NULL,System,maongozi,s,chokochoko,nuksani,mitaani,NA,qt,1,3,NA,NA,NA,NA,NA,NA,NA,NA,NA,NA,NA,NA,NA,NA,NA,NA,NA,NA,NA
1186f,"""Falsch""-Screen",canvas.Screen,3_0_3_0_4_1_2,NA,NA,skipped,NA,486237.70000005,NA,NA,486231.2,486237.90000004,2024-06-02T10:13:15Z,486247.4,NULL,System,maongozi,s,chokochoko,nuksani,mitaani,NA,qt,NA,3,NA,NA,NA,NA,NA,NA,NA,NA,NA,NA,NA,NA,NA,NA,NA,NA,NA,NA,NA
1186f,shallow,flow.Sequence,3_0_3_0_4_1,NA,NA,completion,8494.7,477722.10000002,477719.7,477736.5,486231.2,486238.20000005,2024-06-02T10:13:15Z,486247.4,NULL,System,maongozi,s,chokochoko,nuksani,mitaani,NA,qt,NA,3,NA,NA,NA,NA,NA,NA,NA,NA,NA,NA,NA,NA,NA,NA,NA,NA,NA,NA,NA
1186f,task,flow.Sequence,3_0_3_0_4,NA,NA,completion,8494.7,477721.70000005,477719.7,477736.5,486231.2,486238.5,2024-06-02T10:13:15Z,486247.4,NULL,System,maongozi,s,chokochoko,nuksani,mitaani,NA,qt,NA,3,NA,NA,NA,NA,NA,NA,NA,NA,NA,NA,NA,NA,NA,NA,NA,NA,NA,NA,NA
1186f,deep,flow.Sequence,3_0_3_0_5_0,NA,NA,skipped,NA,486238.60000002,NA,NA,486231.2,486238.70000005,2024-06-02T10:13:15Z,486247.4,NULL,Vorsorge,tahadhari,s,ufafanuzi,makini,mashambani,NA,qt,NA,3,NA,NA,NA,NA,NA,NA,NA,NA,NA,NA,NA,NA,NA,NA,NA,NA,NA,NA,NA
1186f,Shallow Question,html.Page,3_0_3_0_5_1_0,NA,NA,form submission,3573.6,486238.90000004,486231.2,486247.4,489821,489821.30000001,2024-06-02T10:13:18Z,489828.8,NULL,Vorsorge,tahadhari,s,ufafanuzi,makini,mashambani,tahadhari,NA,NA,3,NA,NA,NA,NA,NA,NA,NA,NA,NA,NA,NA,NA,NA,NA,NA,NA,NA,NA,NA
1186f,"""Richtig""-Screen",canvas.Screen,3_0_3_0_5_1_1,NA,NA,timeout,4997.2,489824.20000005,489812.262,489828.8,494809.1,494810,2024-06-02T10:13:23Z,494826,NULL,Vorsorge,tahadhari,s,ufafanuzi,makini,mashambani,NA,qt,1,3,NA,NA,NA,NA,NA,NA,NA,NA,NA,NA,NA,NA,NA,NA,NA,NA,NA,NA,NA
1186f,"""Falsch""-Screen",canvas.Screen,3_0_3_0_5_1_2,NA,NA,skipped,NA,494814.80000001,NA,NA,494809.1,494815,2024-06-02T10:13:23Z,494826,NULL,Vorsorge,tahadhari,s,ufafanuzi,makini,mashambani,NA,qt,NA,3,NA,NA,NA,NA,NA,NA,NA,NA,NA,NA,NA,NA,NA,NA,NA,NA,NA,NA,NA
1186f,shallow,flow.Sequence,3_0_3_0_5_1,NA,NA,completion,8561.7,486238.80000001,486231.2,486247.4,494809.1,494815.20000005,2024-06-02T10:13:23Z,494826,NULL,Vorsorge,tahadhari,s,ufafanuzi,makini,mashambani,NA,qt,NA,3,NA,NA,NA,NA,NA,NA,NA,NA,NA,NA,NA,NA,NA,NA,NA,NA,NA,NA,NA
1186f,task,flow.Sequence,3_0_3_0_5,NA,NA,completion,8561.7,486238.60000002,486231.2,486247.4,494809.1,494815.40000004,2024-06-02T10:13:23Z,494826,NULL,Vorsorge,tahadhari,s,ufafanuzi,makini,mashambani,NA,qt,NA,3,NA,NA,NA,NA,NA,NA,NA,NA,NA,NA,NA,NA,NA,NA,NA,NA,NA,NA,NA
1186f,deep,flow.Sequence,3_0_3_0_6_0,NA,NA,skipped,NA,494815.40000004,NA,NA,494809.1,494815.40000004,2024-06-02T10:13:23Z,494826,NULL,Konkurrent,mshindani,s,msemaji,mvutaji,kipukusa,NA,qt,NA,3,NA,NA,NA,NA,NA,NA,NA,NA,NA,NA,NA,NA,NA,NA,NA,NA,NA,NA,NA
1186f,Shallow Question,html.Page,3_0_3_0_6_1_0,NA,NA,form submission,4099.3000000119,494815.40000004,494809.1,494826,498925.30000001,498925.60000002,2024-06-02T10:13:27Z,498940,NULL,Konkurrent,mshindani,s,msemaji,mvutaji,kipukusa,mshindani,NA,NA,3,NA,NA,NA,NA,NA,NA,NA,NA,NA,NA,NA,NA,NA,NA,NA,NA,NA,NA,NA
1186f,"""Richtig""-Screen",canvas.Screen,3_0_3_0_6_1_1,NA,NA,timeout,4997.1,498928.60000002,498923.656,498940,503920.3,503921.20000005,2024-06-02T10:13:32Z,503937.1,NULL,Konkurrent,mshindani,s,msemaji,mvutaji,kipukusa,NA,qt,1,3,NA,NA,NA,NA,NA,NA,NA,NA,NA,NA,NA,NA,NA,NA,NA,NA,NA,NA,NA
1186f,"""Falsch""-Screen",canvas.Screen,3_0_3_0_6_1_2,NA,NA,skipped,NA,503926.20000005,NA,NA,503920.3,503926.20000005,2024-06-02T10:13:32Z,503937.1,NULL,Konkurrent,mshindani,s,msemaji,mvutaji,kipukusa,NA,qt,NA,3,NA,NA,NA,NA,NA,NA,NA,NA,NA,NA,NA,NA,NA,NA,NA,NA,NA,NA,NA
1186f,shallow,flow.Sequence,3_0_3_0_6_1,NA,NA,completion,9094.3,494815.40000004,494809.1,494826,503920.3,503926.40000004,2024-06-02T10:13:32Z,503937.1,NULL,Konkurrent,mshindani,s,msemaji,mvutaji,kipukusa,NA,qt,NA,3,NA,NA,NA,NA,NA,NA,NA,NA,NA,NA,NA,NA,NA,NA,NA,NA,NA,NA,NA
1186f,task,flow.Sequence,3_0_3_0_6,NA,NA,completion,9094.3,494815.40000004,494809.1,494826,503920.3,503926.40000004,2024-06-02T10:13:32Z,503937.1,NULL,Konkurrent,mshindani,s,msemaji,mvutaji,kipukusa,NA,qt,NA,3,NA,NA,NA,NA,NA,NA,NA,NA,NA,NA,NA,NA,NA,NA,NA,NA,NA,NA,NA
1186f,Deep Question,html.Page,3_0_3_0_7_0_0,NA,NA,form submission,11164.700000012,503926.40000004,503920.3,503937.1,515101.80000001,515101.90000004,2024-06-02T10:13:43Z,515113.4,NULL,Zuwachs,nyongeza,d,NA,NA,NA,kielezo,NA,NA,3,NA,NA,NA,NA,NA,NA,NA,NA,NA,NA,NA,NA,NA,NA,NA,NA,NA,NA,NA
1186f,"""Richtig""-Screen",canvas.Screen,3_0_3_0_7_0_1,NA,NA,skipped,NA,515103.30000001,NA,NA,515101.80000001,515103.5,2024-06-02T10:13:43Z,515113.4,NULL,Zuwachs,nyongeza,d,NA,NA,NA,NA,qt,NA,3,NA,NA,NA,NA,NA,NA,NA,NA,NA,NA,NA,NA,NA,NA,NA,NA,NA,NA,NA
1186f,"""Falsch""-Screen",canvas.Screen,3_0_3_0_7_0_2,NA,NA,timeout,4997.1,515103.90000004,515097.334,515113.4,520093.5,520094.40000004,2024-06-02T10:13:48Z,520110.5,NULL,Zuwachs,nyongeza,d,NA,NA,NA,NA,qt,0,3,NA,NA,NA,NA,NA,NA,NA,NA,NA,NA,NA,NA,NA,NA,NA,NA,NA,NA,NA
1186f,deep,flow.Sequence,3_0_3_0_7_0,NA,NA,completion,16156.4,503926.40000004,503920.3,503937.1,520093.5,520094.80000001,2024-06-02T10:13:48Z,520110.5,NULL,Zuwachs,nyongeza,d,NA,NA,NA,NA,qt,NA,3,NA,NA,NA,NA,NA,NA,NA,NA,NA,NA,NA,NA,NA,NA,NA,NA,NA,NA,NA
1186f,shallow,flow.Sequence,3_0_3_0_7_1,NA,NA,skipped,NA,520094.90000004,NA,NA,520093.5,520095,2024-06-02T10:13:48Z,520110.5,NULL,Zuwachs,nyongeza,d,NA,NA,NA,NA,qt,NA,3,NA,NA,NA,NA,NA,NA,NA,NA,NA,NA,NA,NA,NA,NA,NA,NA,NA,NA,NA
1186f,task,flow.Sequence,3_0_3_0_7,NA,NA,completion,16156.4,503926.40000004,503920.3,503937.1,520093.5,520095.20000005,2024-06-02T10:13:48Z,520110.5,NULL,Zuwachs,nyongeza,d,NA,NA,NA,NA,qt,NA,3,NA,NA,NA,NA,NA,NA,NA,NA,NA,NA,NA,NA,NA,NA,NA,NA,NA,NA,NA
1186f,block,flow.Loop,3_0_3_0,NA,NA,completion,86796.504,433308.40000004,433296.996,433296.996,520093.5,520095.5,2024-06-02T10:13:48Z,520110.5,NULL,NA,NA,NA,NA,NA,NA,NA,qt,NA,3,NA,NA,NA,NA,NA,NA,NA,NA,NA,NA,NA,NA,NA,NA,NA,NA,NA,NA,NA
1186f,weiter,canvas.Screen,3_0_3_1,sdf,keypress(Space),response,811.80000001192,520095.60000002,520093.5,520110.5,520922.30000001,520923.30000001,2024-06-02T10:13:49Z,521259.4,NULL,NA,NA,NA,NA,NA,NA,NA,qt,NA,3,NA,NA,NA,NA,NA,NA,NA,NA,NA,NA,NA,NA,NA,NA,NA,NA,NA,NA,NA
1186f,check continue,flow.Sequence,3_0_3,NA,NA,completion,87625.304000012,433308.40000004,433296.996,433296.996,520922.30000001,520923.60000002,2024-06-02T10:13:49Z,521259.4,NULL,NA,NA,NA,NA,NA,NA,NA,qt,NA,3,NA,NA,NA,NA,NA,NA,NA,NA,NA,NA,NA,NA,NA,NA,NA,NA,NA,NA,NA
1186f,check continue,flow.Sequence,3_0_4,NA,NA,skipped,NA,520942.10000002,NA,NA,520922.30000001,520942.10000002,2024-06-02T10:13:49Z,521259.4,NULL,NA,NA,NA,NA,NA,NA,NA,sd,NA,4,NA,NA,NA,NA,NA,NA,NA,NA,NA,NA,NA,NA,NA,NA,NA,NA,NA,NA,NA
1186f,check continue,flow.Sequence,3_0_5,NA,NA,skipped,NA,520955.60000002,NA,NA,520922.30000001,520955.70000005,2024-06-02T10:13:49Z,521259.4,NULL,NA,NA,NA,NA,NA,NA,NA,sdf,NA,5,NA,NA,NA,NA,NA,NA,NA,NA,NA,NA,NA,NA,NA,NA,NA,NA,NA,NA,NA
1186f,check continue,flow.Sequence,3_0_6,NA,NA,skipped,NA,520975.70000005,NA,NA,520922.30000001,520975.90000004,2024-06-02T10:13:49Z,521259.4,NULL,NA,NA,NA,NA,NA,NA,NA,dfs,NA,6,NA,NA,NA,NA,NA,NA,NA,NA,NA,NA,NA,NA,NA,NA,NA,NA,NA,NA,NA
1186f,check continue,flow.Sequence,3_0_7,NA,NA,skipped,NA,520989.30000001,NA,NA,520922.30000001,520989.40000004,2024-06-02T10:13:49Z,521259.4,NULL,NA,NA,NA,NA,NA,NA,NA,df,NA,7,NA,NA,NA,NA,NA,NA,NA,NA,NA,NA,NA,NA,NA,NA,NA,NA,NA,NA,NA
1186f,check continue,flow.Sequence,3_0_8,NA,NA,skipped,NA,521002.70000005,NA,NA,520922.30000001,521002.90000004,2024-06-02T10:13:49Z,521259.4,NULL,NA,NA,NA,NA,NA,NA,NA,dfs,NA,8,NA,NA,NA,NA,NA,NA,NA,NA,NA,NA,NA,NA,NA,NA,NA,NA,NA,NA,NA
1186f,check continue,flow.Sequence,3_0_9,NA,NA,skipped,NA,521016.10000002,NA,NA,520922.30000001,521016.10000002,2024-06-02T10:13:49Z,521259.4,NULL,NA,NA,NA,NA,NA,NA,NA,dsf,NA,9,NA,NA,NA,NA,NA,NA,NA,NA,NA,NA,NA,NA,NA,NA,NA,NA,NA,NA,NA
1186f,check continue,flow.Sequence,3_0_10,NA,NA,skipped,NA,521028.60000002,NA,NA,520922.30000001,521028.70000005,2024-06-02T10:13:49Z,521259.4,NULL,NA,NA,NA,NA,NA,NA,NA,df,NA,10,NA,NA,NA,NA,NA,NA,NA,NA,NA,NA,NA,NA,NA,NA,NA,NA,NA,NA,NA
1186f,check continue,flow.Sequence,3_0_11,NA,NA,skipped,NA,521041.30000001,NA,NA,520922.30000001,521041.40000004,2024-06-02T10:13:49Z,521259.4,NULL,NA,NA,NA,NA,NA,NA,NA,dfs,NA,11,NA,NA,NA,NA,NA,NA,NA,NA,NA,NA,NA,NA,NA,NA,NA,NA,NA,NA,NA
1186f,check continue,flow.Sequence,3_0_12,NA,NA,skipped,NA,521054.70000005,NA,NA,520922.30000001,521054.80000001,2024-06-02T10:13:49Z,521259.4,NULL,NA,NA,NA,NA,NA,NA,NA,dsf,NA,12,NA,NA,NA,NA,NA,NA,NA,NA,NA,NA,NA,NA,NA,NA,NA,NA,NA,NA,NA
1186f,check continue,flow.Sequence,3_0_13,NA,NA,skipped,NA,521066.20000005,NA,NA,520922.30000001,521066.20000005,2024-06-02T10:13:49Z,521259.4,NULL,NA,NA,NA,NA,NA,NA,NA,dsf,NA,13,NA,NA,NA,NA,NA,NA,NA,NA,NA,NA,NA,NA,NA,NA,NA,NA,NA,NA,NA
1186f,check continue,flow.Sequence,3_0_14,NA,NA,skipped,NA,521077.10000002,NA,NA,520922.30000001,521077.10000002,2024-06-02T10:13:49Z,521259.4,NULL,NA,NA,NA,NA,NA,NA,NA,NA,NA,14,NA,NA,NA,NA,NA,NA,NA,NA,NA,NA,NA,NA,NA,NA,NA,NA,NA,NA,NA
1186f,check continue,flow.Sequence,3_0_15,NA,NA,skipped,NA,521088.70000005,NA,NA,520922.30000001,521088.80000001,2024-06-02T10:13:49Z,521259.4,NULL,NA,NA,NA,NA,NA,NA,NA,NA,NA,15,NA,NA,NA,NA,NA,NA,NA,NA,NA,NA,NA,NA,NA,NA,NA,NA,NA,NA,NA
1186f,check continue,flow.Sequence,3_0_16,NA,NA,skipped,NA,521099.80000001,NA,NA,520922.30000001,521099.80000001,2024-06-02T10:13:49Z,521259.4,NULL,NA,NA,NA,NA,NA,NA,NA,NA,NA,16,NA,NA,NA,NA,NA,NA,NA,NA,NA,NA,NA,NA,NA,NA,NA,NA,NA,NA,NA
1186f,check continue,flow.Sequence,3_0_17,NA,NA,skipped,NA,521111.10000002,NA,NA,520922.30000001,521111.20000005,2024-06-02T10:13:49Z,521259.4,NULL,NA,NA,NA,NA,NA,NA,NA,NA,NA,17,NA,NA,NA,NA,NA,NA,NA,NA,NA,NA,NA,NA,NA,NA,NA,NA,NA,NA,NA
1186f,check continue,flow.Sequence,3_0_18,NA,NA,skipped,NA,521122.70000005,NA,NA,520922.30000001,521122.80000001,2024-06-02T10:13:49Z,521259.4,NULL,NA,NA,NA,NA,NA,NA,NA,NA,NA,18,NA,NA,NA,NA,NA,NA,NA,NA,NA,NA,NA,NA,NA,NA,NA,NA,NA,NA,NA
1186f,check continue,flow.Sequence,3_0_19,NA,NA,skipped,NA,521134.20000005,NA,NA,520922.30000001,521134.30000001,2024-06-02T10:13:49Z,521259.4,NULL,NA,NA,NA,NA,NA,NA,NA,NA,NA,19,NA,NA,NA,NA,NA,NA,NA,NA,NA,NA,NA,NA,NA,NA,NA,NA,NA,NA,NA
1186f,check continue,flow.Sequence,3_0_20,NA,NA,skipped,NA,521146.20000005,NA,NA,520922.30000001,521146.30000001,2024-06-02T10:13:49Z,521259.4,NULL,NA,NA,NA,NA,NA,NA,NA,NA,NA,20,NA,NA,NA,NA,NA,NA,NA,NA,NA,NA,NA,NA,NA,NA,NA,NA,NA,NA,NA
1186f,check continue,flow.Sequence,3_0_21,NA,NA,skipped,NA,521158,NA,NA,520922.30000001,521158,2024-06-02T10:13:49Z,521259.4,NULL,NA,NA,NA,NA,NA,NA,NA,NA,NA,21,NA,NA,NA,NA,NA,NA,NA,NA,NA,NA,NA,NA,NA,NA,NA,NA,NA,NA,NA
1186f,check continue,flow.Sequence,3_0_22,NA,NA,skipped,NA,521171.40000004,NA,NA,520922.30000001,521171.40000004,2024-06-02T10:13:49Z,521259.4,NULL,NA,NA,NA,NA,NA,NA,NA,NA,NA,22,NA,NA,NA,NA,NA,NA,NA,NA,NA,NA,NA,NA,NA,NA,NA,NA,NA,NA,NA
1186f,check continue,flow.Sequence,3_0_23,NA,NA,skipped,NA,521181.5,NA,NA,520922.30000001,521181.60000002,2024-06-02T10:13:49Z,521259.4,NULL,NA,NA,NA,NA,NA,NA,NA,NA,NA,23,NA,NA,NA,NA,NA,NA,NA,NA,NA,NA,NA,NA,NA,NA,NA,NA,NA,NA,NA
1186f,check continue,flow.Sequence,3_0_24,NA,NA,skipped,NA,521192.90000004,NA,NA,520922.30000001,521193,2024-06-02T10:13:49Z,521259.4,NULL,NA,NA,NA,NA,NA,NA,NA,NA,NA,24,NA,NA,NA,NA,NA,NA,NA,NA,NA,NA,NA,NA,NA,NA,NA,NA,NA,NA,NA
1186f,check continue,flow.Sequence,3_0_25,NA,NA,skipped,NA,521203.10000002,NA,NA,520922.30000001,521203.10000002,2024-06-02T10:13:49Z,521259.4,NULL,NA,NA,NA,NA,NA,NA,NA,NA,NA,25,NA,NA,NA,NA,NA,NA,NA,NA,NA,NA,NA,NA,NA,NA,NA,NA,NA,NA,NA
1186f,check continue,flow.Sequence,3_0_26,NA,NA,skipped,NA,521213.30000001,NA,NA,520922.30000001,521213.30000001,2024-06-02T10:13:50Z,521259.4,NULL,NA,NA,NA,NA,NA,NA,NA,NA,NA,26,NA,NA,NA,NA,NA,NA,NA,NA,NA,NA,NA,NA,NA,NA,NA,NA,NA,NA,NA
1186f,check continue,flow.Sequence,3_0_27,NA,NA,skipped,NA,521224.60000002,NA,NA,520922.30000001,521224.70000005,2024-06-02T10:13:50Z,521259.4,NULL,NA,NA,NA,NA,NA,NA,NA,NA,NA,27,NA,NA,NA,NA,NA,NA,NA,NA,NA,NA,NA,NA,NA,NA,NA,NA,NA,NA,NA
1186f,check continue,flow.Sequence,3_0_28,NA,NA,skipped,NA,521235.5,NA,NA,520922.30000001,521235.60000002,2024-06-02T10:13:50Z,521259.4,NULL,NA,NA,NA,NA,NA,NA,NA,NA,NA,28,NA,NA,NA,NA,NA,NA,NA,NA,NA,NA,NA,NA,NA,NA,NA,NA,NA,NA,NA
1186f,check continue,flow.Sequence,3_0_29,NA,NA,skipped,NA,521247.20000005,NA,NA,520922.30000001,521247.20000005,2024-06-02T10:13:50Z,521259.4,NULL,NA,NA,NA,NA,NA,NA,NA,NA,NA,29,NA,NA,NA,NA,NA,NA,NA,NA,NA,NA,NA,NA,NA,NA,NA,NA,NA,NA,NA
1186f,until continue,flow.Loop,3_0,NA,NA,completion,391373.40000001,129527.60000002,129539.506,129548.9,520922.30000001,521247.30000001,2024-06-02T10:13:50Z,521259.4,NULL,NA,NA,NA,NA,NA,NA,NA,NA,NA,NA,NA,NA,NA,NA,NA,NA,NA,NA,NA,NA,NA,NA,NA,NA,NA,NA,NA,NA,NA
1186f,block 1,flow.Sequence,3,NA,NA,completion,391373.40000001,129527.5,129539.506,129548.9,520922.30000001,521247.40000004,2024-06-02T10:13:50Z,521259.4,NULL,NA,NA,NA,NA,NA,NA,NA,NA,NA,NA,NA,NA,NA,NA,NA,NA,NA,NA,NA,NA,NA,NA,NA,NA,NA,NA,NA,NA,NA
1186f,1.Part Over,canvas.Screen,4,NA,keypress(Space),response,1932.7000000238,521247.5,521243.788,521259.4,523192.10000002,523193.40000004,2024-06-02T10:13:51Z,523241.8,NULL,NA,NA,NA,NA,NA,NA,NA,NA,NA,NA,NA,NA,NA,NA,NA,NA,NA,NA,NA,NA,NA,NA,NA,NA,NA,NA,NA,NA,NA
1186f,Deep Question,html.Page,5_0_0_0_0_0_0,NA,NA,form submission,5051.9000000477,523234.70000005,523226.9,523241.8,528293.70000005,528293.90000004,2024-06-02T10:13:57Z,528305.1,NULL,Sympathie,mapendano,d,NA,NA,NA,fjgkf,NA,NA,0,NA,NA,NA,NA,NA,NA,NA,NA,NA,NA,NA,NA,NA,NA,NA,NA,NA,NA,NA
1186f,"""Richtig""-Screen",canvas.Screen,5_0_0_0_0_0_1,NA,NA,skipped,NA,528296.90000004,NA,NA,528293.70000005,528297,2024-06-02T10:13:57Z,528305.1,NULL,Sympathie,mapendano,d,NA,NA,NA,NA,sdf,NA,0,NA,NA,NA,NA,NA,NA,NA,NA,NA,NA,NA,NA,NA,NA,NA,NA,NA,NA,NA
1186f,"""Falsch""-Screen",canvas.Screen,5_0_0_0_0_0_2,NA,NA,timeout,4997.2000000001,528297.80000001,528289.054,528305.1,533285.4,533286.40000004,2024-06-02T10:14:02Z,533302.3,NULL,Sympathie,mapendano,d,NA,NA,NA,NA,sdf,0,0,NA,NA,NA,NA,NA,NA,NA,NA,NA,NA,NA,NA,NA,NA,NA,NA,NA,NA,NA
1186f,deep,flow.Sequence,5_0_0_0_0_0,NA,NA,completion,10043.6,523234.70000005,523226.9,523241.8,533285.4,533286.80000000994,2024-06-02T10:14:02Z,533302.3,NULL,Sympathie,mapendano,d,NA,NA,NA,NA,sdf,NA,0,NA,NA,NA,NA,NA,NA,NA,NA,NA,NA,NA,NA,NA,NA,NA,NA,NA,NA,NA
1186f,shallow,flow.Sequence,5_0_0_0_0_1,NA,NA,skipped,NA,533286.90000004,NA,NA,533285.4,533287.10000002,2024-06-02T10:14:02Z,533302.3,NULL,Sympathie,mapendano,d,NA,NA,NA,NA,sdf,NA,0,NA,NA,NA,NA,NA,NA,NA,NA,NA,NA,NA,NA,NA,NA,NA,NA,NA,NA,NA
1186f,task,flow.Sequence,5_0_0_0_0,NA,NA,completion,10043.6,523234.70000005,523226.9,523241.8,533285.4,533287.30000001,2024-06-02T10:14:02Z,533302.3,NULL,Sympathie,mapendano,d,NA,NA,NA,NA,sdf,NA,0,NA,NA,NA,NA,NA,NA,NA,NA,NA,NA,NA,NA,NA,NA,NA,NA,NA,NA,NA
1186f,deep,flow.Sequence,5_0_0_0_1_0,NA,NA,skipped,NA,533287.40000004,NA,NA,533285.4,533287.5,2024-06-02T10:14:02Z,533302.3,NULL,Prüfung,mtihani,s,mkulima,mtizamo,ufumbuzi,NA,sdf,NA,0,NA,NA,NA,NA,NA,NA,NA,NA,NA,NA,NA,NA,NA,NA,NA,NA,NA,NA,NA
1186f,Shallow Question,html.Page,5_0_0_0_1_1_0,NA,NA,form submission,4657.0000000119,533287.60000002,533285.4,533302.3,537959.30000001,537959.5,2024-06-02T10:14:06Z,537965.8,NULL,Prüfung,mtihani,s,mkulima,mtizamo,ufumbuzi,ufumbuzi,NA,NA,0,NA,NA,NA,NA,NA,NA,NA,NA,NA,NA,NA,NA,NA,NA,NA,NA,NA,NA,NA
1186f,"""Richtig""-Screen",canvas.Screen,5_0_0_0_1_1_1,NA,NA,skipped,NA,537962.90000004,NA,NA,537959.30000001,537963,2024-06-02T10:14:06Z,537965.8,NULL,Prüfung,mtihani,s,mkulima,mtizamo,ufumbuzi,NA,sdf,NA,0,NA,NA,NA,NA,NA,NA,NA,NA,NA,NA,NA,NA,NA,NA,NA,NA,NA,NA,NA
1186f,"""Falsch""-Screen",canvas.Screen,5_0_0_0_1_1_2,NA,NA,timeout,4997.6,537964,537949.852,537965.8,542946.2,542947.20000005,2024-06-02T10:14:11Z,542963.4,NULL,Prüfung,mtihani,s,mkulima,mtizamo,ufumbuzi,NA,sdf,0,0,NA,NA,NA,NA,NA,NA,NA,NA,NA,NA,NA,NA,NA,NA,NA,NA,NA,NA,NA
1186f,shallow,flow.Sequence,5_0_0_0_1_1,NA,NA,completion,9643.8999999999,533287.60000002,533285.4,533302.3,542946.2,542947.70000005,2024-06-02T10:14:11Z,542963.4,NULL,Prüfung,mtihani,s,mkulima,mtizamo,ufumbuzi,NA,sdf,NA,0,NA,NA,NA,NA,NA,NA,NA,NA,NA,NA,NA,NA,NA,NA,NA,NA,NA,NA,NA
1186f,task,flow.Sequence,5_0_0_0_1,NA,NA,completion,9643.8999999999,533287.40000004,533285.4,533302.3,542946.2,542947.90000004,2024-06-02T10:14:11Z,542963.4,NULL,Prüfung,mtihani,s,mkulima,mtizamo,ufumbuzi,NA,sdf,NA,0,NA,NA,NA,NA,NA,NA,NA,NA,NA,NA,NA,NA,NA,NA,NA,NA,NA,NA,NA
1186f,Deep Question,html.Page,5_0_0_0_2_0_0,NA,NA,form submission,3000.0000000357,542948.10000002,542946.2,542963.4,545963.40000004,545963.60000002,2024-06-02T10:14:14Z,545978.1,NULL,Verzögerung,kuchelewa,d,NA,NA,NA,dfff,NA,NA,0,NA,NA,NA,NA,NA,NA,NA,NA,NA,NA,NA,NA,NA,NA,NA,NA,NA,NA,NA
1186f,"""Richtig""-Screen",canvas.Screen,5_0_0_0_2_0_1,NA,NA,skipped,NA,545966.70000005,NA,NA,545963.40000004,545966.80000001,2024-06-02T10:14:14Z,545978.1,NULL,Verzögerung,kuchelewa,d,NA,NA,NA,NA,sdf,NA,0,NA,NA,NA,NA,NA,NA,NA,NA,NA,NA,NA,NA,NA,NA,NA,NA,NA,NA,NA
1186f,"""Falsch""-Screen",canvas.Screen,5_0_0_0_2_0_2,NA,NA,timeout,4996.9,545967.60000002,545961.584,545978.1,550958,550959.60000002,2024-06-02T10:14:19Z,550975,NULL,Verzögerung,kuchelewa,d,NA,NA,NA,NA,sdf,0,0,NA,NA,NA,NA,NA,NA,NA,NA,NA,NA,NA,NA,NA,NA,NA,NA,NA,NA,NA
1186f,deep,flow.Sequence,5_0_0_0_2_0,NA,NA,completion,7994.6,542948.10000002,542946.2,542963.4,550958,550960.10000002,2024-06-02T10:14:19Z,550975,NULL,Verzögerung,kuchelewa,d,NA,NA,NA,NA,sdf,NA,0,NA,NA,NA,NA,NA,NA,NA,NA,NA,NA,NA,NA,NA,NA,NA,NA,NA,NA,NA
1186f,shallow,flow.Sequence,5_0_0_0_2_1,NA,NA,skipped,NA,550960.20000005,NA,NA,550958,550960.60000002,2024-06-02T10:14:19Z,550975,NULL,Verzögerung,kuchelewa,d,NA,NA,NA,NA,sdf,NA,0,NA,NA,NA,NA,NA,NA,NA,NA,NA,NA,NA,NA,NA,NA,NA,NA,NA,NA,NA
1186f,task,flow.Sequence,5_0_0_0_2,NA,NA,completion,7994.6,542948,542946.2,542963.4,550958,550960.80000001,2024-06-02T10:14:19Z,550975,NULL,Verzögerung,kuchelewa,d,NA,NA,NA,NA,sdf,NA,0,NA,NA,NA,NA,NA,NA,NA,NA,NA,NA,NA,NA,NA,NA,NA,NA,NA,NA,NA
1186f,Deep Question,html.Page,5_0_0_0_3_0_0,NA,NA,form submission,4929.8000000119,550961,550958,550975,555904.80000001,555905,2024-06-02T10:14:24Z,555922.6,NULL,Kultur,utamaduni,d,NA,NA,NA,kuchelewa,NA,NA,0,NA,NA,NA,NA,NA,NA,NA,NA,NA,NA,NA,NA,NA,NA,NA,NA,NA,NA,NA
1186f,"""Richtig""-Screen",canvas.Screen,5_0_0_0_3_0_1,NA,NA,skipped,NA,555908.30000000994,NA,NA,555904.80000001,555908.5,2024-06-02T10:14:24Z,555922.6,NULL,Kultur,utamaduni,d,NA,NA,NA,NA,sdf,NA,0,NA,NA,NA,NA,NA,NA,NA,NA,NA,NA,NA,NA,NA,NA,NA,NA,NA,NA,NA
1186f,"""Falsch""-Screen",canvas.Screen,5_0_0_0_3_0_2,NA,NA,timeout,4996.3,555909.30000001,555905.228,555922.6,560901.9,560902.80000001,2024-06-02T10:14:29Z,560918.9,NULL,Kultur,utamaduni,d,NA,NA,NA,NA,sdf,0,0,NA,NA,NA,NA,NA,NA,NA,NA,NA,NA,NA,NA,NA,NA,NA,NA,NA,NA,NA
1186f,deep,flow.Sequence,5_0_0_0_3_0,NA,NA,completion,9926.9,550961,550958,550975,560901.9,560903.30000000994,2024-06-02T10:14:29Z,560918.9,NULL,Kultur,utamaduni,d,NA,NA,NA,NA,sdf,NA,0,NA,NA,NA,NA,NA,NA,NA,NA,NA,NA,NA,NA,NA,NA,NA,NA,NA,NA,NA
1186f,shallow,flow.Sequence,5_0_0_0_3_1,NA,NA,skipped,NA,560903.40000004,NA,NA,560901.9,560903.60000002,2024-06-02T10:14:29Z,560918.9,NULL,Kultur,utamaduni,d,NA,NA,NA,NA,sdf,NA,0,NA,NA,NA,NA,NA,NA,NA,NA,NA,NA,NA,NA,NA,NA,NA,NA,NA,NA,NA
1186f,task,flow.Sequence,5_0_0_0_3,NA,NA,completion,9926.9,550960.80000001,550958,550975,560901.9,560903.80000001,2024-06-02T10:14:29Z,560918.9,NULL,Kultur,utamaduni,d,NA,NA,NA,NA,sdf,NA,0,NA,NA,NA,NA,NA,NA,NA,NA,NA,NA,NA,NA,NA,NA,NA,NA,NA,NA,NA
1186f,deep,flow.Sequence,5_0_0_0_4_0,NA,NA,skipped,NA,560904,NA,NA,560901.9,560904.10000002,2024-06-02T10:14:29Z,560918.9,NULL,Polizist,msongora,s,simanzi,mandhari,nidhamu,NA,sdf,NA,0,NA,NA,NA,NA,NA,NA,NA,NA,NA,NA,NA,NA,NA,NA,NA,NA,NA,NA,NA
1186f,Shallow Question,html.Page,5_0_0_0_4_1_0,NA,NA,form submission,7820.8000000477,560904.20000005,560901.9,560918.9,568739.70000005,568739.90000004,2024-06-02T10:14:37Z,568746.9,NULL,Polizist,msongora,s,simanzi,mandhari,nidhamu,msongora,NA,NA,0,NA,NA,NA,NA,NA,NA,NA,NA,NA,NA,NA,NA,NA,NA,NA,NA,NA,NA,NA
1186f,"""Richtig""-Screen",canvas.Screen,5_0_0_0_4_1_1,NA,NA,timeout,4997.6,568741.40000004,568731.022,568746.9,573727.3,573728.30000001,2024-06-02T10:14:42Z,573744.5,NULL,Polizist,msongora,s,simanzi,mandhari,nidhamu,NA,sdf,1,0,NA,NA,NA,NA,NA,NA,NA,NA,NA,NA,NA,NA,NA,NA,NA,NA,NA,NA,NA
1186f,"""Falsch""-Screen",canvas.Screen,5_0_0_0_4_1_2,NA,NA,skipped,NA,573733.80000001,NA,NA,573727.3,573734,2024-06-02T10:14:42Z,573744.5,NULL,Polizist,msongora,s,simanzi,mandhari,nidhamu,NA,sdf,NA,0,NA,NA,NA,NA,NA,NA,NA,NA,NA,NA,NA,NA,NA,NA,NA,NA,NA,NA,NA
1186f,shallow,flow.Sequence,5_0_0_0_4_1,NA,NA,completion,12808.4,560904.20000005,560901.9,560918.9,573727.3,573734.10000002,2024-06-02T10:14:42Z,573744.5,NULL,Polizist,msongora,s,simanzi,mandhari,nidhamu,NA,sdf,NA,0,NA,NA,NA,NA,NA,NA,NA,NA,NA,NA,NA,NA,NA,NA,NA,NA,NA,NA,NA
1186f,task,flow.Sequence,5_0_0_0_4,NA,NA,completion,12808.4,560903.90000004,560901.9,560918.9,573727.3,573734.20000005,2024-06-02T10:14:42Z,573744.5,NULL,Polizist,msongora,s,simanzi,mandhari,nidhamu,NA,sdf,NA,0,NA,NA,NA,NA,NA,NA,NA,NA,NA,NA,NA,NA,NA,NA,NA,NA,NA,NA,NA
1186f,Deep Question,html.Page,5_0_0_0_5_0_0,NA,NA,form submission,4381,573734.20000005,573727.3,573744.5,578125.5,578125.60000002,2024-06-02T10:14:46Z,578157.9,NULL,Annäherung,maegesho,d,NA,NA,NA,msongora,NA,NA,0,NA,NA,NA,NA,NA,NA,NA,NA,NA,NA,NA,NA,NA,NA,NA,NA,NA,NA,NA
1186f,"""Richtig""-Screen",canvas.Screen,5_0_0_0_5_0_1,NA,NA,skipped,NA,578127,NA,NA,578125.5,578127,2024-06-02T10:14:46Z,578157.9,NULL,Annäherung,maegesho,d,NA,NA,NA,NA,sdf,NA,0,NA,NA,NA,NA,NA,NA,NA,NA,NA,NA,NA,NA,NA,NA,NA,NA,NA,NA,NA
1186f,"""Falsch""-Screen",canvas.Screen,5_0_0_0_5_0_2,NA,NA,timeout,4997.4,578127.40000004,578141.854,578157.9,583138.3,583139.10000002,2024-06-02T10:14:51Z,583155.3,NULL,Annäherung,maegesho,d,NA,NA,NA,NA,sdf,0,0,NA,NA,NA,NA,NA,NA,NA,NA,NA,NA,NA,NA,NA,NA,NA,NA,NA,NA,NA
1186f,deep,flow.Sequence,5_0_0_0_5_0,NA,NA,completion,9393.8,573734.20000005,573727.3,573744.5,583138.3,583139.40000004,2024-06-02T10:14:51Z,583155.3,NULL,Annäherung,maegesho,d,NA,NA,NA,NA,sdf,NA,0,NA,NA,NA,NA,NA,NA,NA,NA,NA,NA,NA,NA,NA,NA,NA,NA,NA,NA,NA
1186f,shallow,flow.Sequence,5_0_0_0_5_1,NA,NA,skipped,NA,583139.60000002,NA,NA,583138.3,583139.70000005,2024-06-02T10:14:51Z,583155.3,NULL,Annäherung,maegesho,d,NA,NA,NA,NA,sdf,NA,0,NA,NA,NA,NA,NA,NA,NA,NA,NA,NA,NA,NA,NA,NA,NA,NA,NA,NA,NA
1186f,task,flow.Sequence,5_0_0_0_5,NA,NA,completion,9393.8,573734.20000005,573727.3,573744.5,583138.3,583139.80000001,2024-06-02T10:14:51Z,583155.3,NULL,Annäherung,maegesho,d,NA,NA,NA,NA,sdf,NA,0,NA,NA,NA,NA,NA,NA,NA,NA,NA,NA,NA,NA,NA,NA,NA,NA,NA,NA,NA
1186f,deep,flow.Sequence,5_0_0_0_6_0,NA,NA,skipped,NA,583140,NA,NA,583138.3,583140.10000002,2024-06-02T10:14:51Z,583155.3,NULL,Aufstand,ugomaji,s,mazidio,msingi,kujieleza,NA,sdf,NA,0,NA,NA,NA,NA,NA,NA,NA,NA,NA,NA,NA,NA,NA,NA,NA,NA,NA,NA,NA
1186f,Shallow Question,html.Page,5_0_0_0_6_1_0,NA,NA,form submission,4475.8000000238,583140.20000005,583138.3,583155.3,587631.10000002,587631.20000005,2024-06-02T10:14:56Z,587636.026,NULL,Aufstand,ugomaji,s,mazidio,msingi,kujieleza,mazidio,NA,NA,0,NA,NA,NA,NA,NA,NA,NA,NA,NA,NA,NA,NA,NA,NA,NA,NA,NA,NA,NA
1186f,"""Richtig""-Screen",canvas.Screen,5_0_0_0_6_1_1,NA,NA,skipped,NA,587634.30000001,NA,NA,587631.10000002,587634.5,2024-06-02T10:14:56Z,587636.026,NULL,Aufstand,ugomaji,s,mazidio,msingi,kujieleza,NA,sdf,NA,0,NA,NA,NA,NA,NA,NA,NA,NA,NA,NA,NA,NA,NA,NA,NA,NA,NA,NA,NA
1186f,"""Falsch""-Screen",canvas.Screen,5_0_0_0_6_1_2,NA,NA,timeout,4996.574,587635.10000002,587636.026,587636.026,592615.9,592616.70000005,2024-06-02T10:15:01Z,592632.6,NULL,Aufstand,ugomaji,s,mazidio,msingi,kujieleza,NA,sdf,0,0,NA,NA,NA,NA,NA,NA,NA,NA,NA,NA,NA,NA,NA,NA,NA,NA,NA,NA,NA
1186f,shallow,flow.Sequence,5_0_0_0_6_1,NA,NA,completion,9460.6,583140.20000005,583138.3,583155.3,592615.9,592617.10000002,2024-06-02T10:15:01Z,592632.6,NULL,Aufstand,ugomaji,s,mazidio,msingi,kujieleza,NA,sdf,NA,0,NA,NA,NA,NA,NA,NA,NA,NA,NA,NA,NA,NA,NA,NA,NA,NA,NA,NA,NA
1186f,task,flow.Sequence,5_0_0_0_6,NA,NA,completion,9460.6,583139.90000004,583138.3,583155.3,592615.9,592617.30000001,2024-06-02T10:15:01Z,592632.6,NULL,Aufstand,ugomaji,s,mazidio,msingi,kujieleza,NA,sdf,NA,0,NA,NA,NA,NA,NA,NA,NA,NA,NA,NA,NA,NA,NA,NA,NA,NA,NA,NA,NA
1186f,deep,flow.Sequence,5_0_0_0_7_0,NA,NA,skipped,NA,592617.40000004,NA,NA,592615.9,592617.60000002,2024-06-02T10:15:01Z,592632.6,NULL,Beweis,ushahidi,s,marudio,kizuizi,mtendaji,NA,sdf,NA,0,NA,NA,NA,NA,NA,NA,NA,NA,NA,NA,NA,NA,NA,NA,NA,NA,NA,NA,NA
1186f,Shallow Question,html.Page,5_0_0_0_7_1_0,NA,NA,form submission,6840.8000000358,592617.60000002,592615.9,592632.6,599473.40000004,599473.5,2024-06-02T10:15:08Z,599478.3,NULL,Beweis,ushahidi,s,marudio,kizuizi,mtendaji,ushahidi,NA,NA,0,NA,NA,NA,NA,NA,NA,NA,NA,NA,NA,NA,NA,NA,NA,NA,NA,NA,NA,NA
1186f,"""Richtig""-Screen",canvas.Screen,5_0_0_0_7_1_1,NA,NA,timeout,4996.8999999999,599475,599462.092,599478.3,604458.7,604459.70000005,2024-06-02T10:15:13Z,604475.2,NULL,Beweis,ushahidi,s,marudio,kizuizi,mtendaji,NA,sdf,1,0,NA,NA,NA,NA,NA,NA,NA,NA,NA,NA,NA,NA,NA,NA,NA,NA,NA,NA,NA
1186f,"""Falsch""-Screen",canvas.Screen,5_0_0_0_7_1_2,NA,NA,skipped,NA,604465.10000002,NA,NA,604458.7,604465.20000005,2024-06-02T10:15:13Z,604475.2,NULL,Beweis,ushahidi,s,marudio,kizuizi,mtendaji,NA,sdf,NA,0,NA,NA,NA,NA,NA,NA,NA,NA,NA,NA,NA,NA,NA,NA,NA,NA,NA,NA,NA
1186f,shallow,flow.Sequence,5_0_0_0_7_1,NA,NA,completion,11826.1,592617.60000002,592615.9,592632.6,604458.7,604465.20000005,2024-06-02T10:15:13Z,604475.2,NULL,Beweis,ushahidi,s,marudio,kizuizi,mtendaji,NA,sdf,NA,0,NA,NA,NA,NA,NA,NA,NA,NA,NA,NA,NA,NA,NA,NA,NA,NA,NA,NA,NA
1186f,task,flow.Sequence,5_0_0_0_7,NA,NA,completion,11826.1,592617.40000004,592615.9,592632.6,604458.7,604465.40000004,2024-06-02T10:15:13Z,604475.2,NULL,Beweis,ushahidi,s,marudio,kizuizi,mtendaji,NA,sdf,NA,0,NA,NA,NA,NA,NA,NA,NA,NA,NA,NA,NA,NA,NA,NA,NA,NA,NA,NA,NA
1186f,block,flow.Loop,5_0_0_0,NA,NA,completion,81216.9,523234.70000005,523226.9,523241.8,604458.7,604465.40000004,2024-06-02T10:15:13Z,604475.2,NULL,NA,NA,NA,NA,NA,NA,NA,sdf,NA,0,NA,NA,NA,NA,NA,NA,NA,NA,NA,NA,NA,NA,NA,NA,NA,NA,NA,NA,NA
1186f,weiter,canvas.Screen,5_0_0_1,sdf,keypress(Space),response,532.50000004773,604465.5,604458.7,604475.2,605007.70000005,605009.40000004,2024-06-02T10:15:13Z,605041.996,NULL,NA,NA,NA,NA,NA,NA,NA,sdf,NA,0,NA,NA,NA,NA,NA,NA,NA,NA,NA,NA,NA,NA,NA,NA,NA,NA,NA,NA,NA
1186f,check continue,flow.Sequence,5_0_0,NA,NA,completion,81765.900000048,523234.70000005,523226.9,523241.8,605007.70000005,605009.70000005,2024-06-02T10:15:13Z,605041.996,NULL,NA,NA,NA,NA,NA,NA,NA,sdf,NA,0,NA,NA,NA,NA,NA,NA,NA,NA,NA,NA,NA,NA,NA,NA,NA,NA,NA,NA,NA
1186f,Deep Question,html.Page,5_0_1_0_0_0_0,NA,NA,form submission,5823.6040000238,605043,605041.996,605041.996,610865.60000002,610865.90000004,2024-06-02T10:15:19Z,610887.9,NULL,Verzögerung,kuchelewa,d,NA,NA,NA,fggdg,NA,NA,1,NA,NA,NA,NA,NA,NA,NA,NA,NA,NA,NA,NA,NA,NA,NA,NA,NA,NA,NA
1186f,"""Richtig""-Screen",canvas.Screen,5_0_1_0_0_0_1,NA,NA,skipped,NA,610869.10000002,NA,NA,610865.60000002,610869.40000004,2024-06-02T10:15:19Z,610887.9,NULL,Verzögerung,kuchelewa,d,NA,NA,NA,NA,sdfdsf,NA,1,NA,NA,NA,NA,NA,NA,NA,NA,NA,NA,NA,NA,NA,NA,NA,NA,NA,NA,NA
1186f,"""Falsch""-Screen",canvas.Screen,5_0_1_0_0_0_2,NA,NA,timeout,4997.2999999999,610870.30000001,610871.2,610887.9,615868.4,615869.30000000994,2024-06-02T10:15:24Z,615885.2,NULL,Verzögerung,kuchelewa,d,NA,NA,NA,NA,sdfdsf,0,1,NA,NA,NA,NA,NA,NA,NA,NA,NA,NA,NA,NA,NA,NA,NA,NA,NA,NA,NA
1186f,deep,flow.Sequence,5_0_1_0_0_0,NA,NA,completion,10826.404,605042.90000004,605041.996,605041.996,615868.4,615869.70000005,2024-06-02T10:15:24Z,615885.2,NULL,Verzögerung,kuchelewa,d,NA,NA,NA,NA,sdfdsf,NA,1,NA,NA,NA,NA,NA,NA,NA,NA,NA,NA,NA,NA,NA,NA,NA,NA,NA,NA,NA
1186f,shallow,flow.Sequence,5_0_1_0_0_1,NA,NA,skipped,NA,615869.90000004,NA,NA,615868.4,615870,2024-06-02T10:15:24Z,615885.2,NULL,Verzögerung,kuchelewa,d,NA,NA,NA,NA,sdfdsf,NA,1,NA,NA,NA,NA,NA,NA,NA,NA,NA,NA,NA,NA,NA,NA,NA,NA,NA,NA,NA
1186f,task,flow.Sequence,5_0_1_0_0,NA,NA,completion,10826.404,605042.90000004,605041.996,605041.996,615868.4,615870.20000005,2024-06-02T10:15:24Z,615885.2,NULL,Verzögerung,kuchelewa,d,NA,NA,NA,NA,sdfdsf,NA,1,NA,NA,NA,NA,NA,NA,NA,NA,NA,NA,NA,NA,NA,NA,NA,NA,NA,NA,NA
1186f,Deep Question,html.Page,5_0_1_0_1_0_0,NA,NA,form submission,4216.7000000358,615870.30000001,615868.4,615885.2,620101.90000004,620102.20000005,2024-06-02T10:15:28Z,620132.8,NULL,Annäherung,maegesho,d,NA,NA,NA,kuchelewa,NA,NA,1,NA,NA,NA,NA,NA,NA,NA,NA,NA,NA,NA,NA,NA,NA,NA,NA,NA,NA,NA
1186f,"""Richtig""-Screen",canvas.Screen,5_0_1_0_1_0_1,NA,NA,skipped,NA,620105.30000001,NA,NA,620101.90000004,620105.40000004,2024-06-02T10:15:28Z,620132.8,NULL,Annäherung,maegesho,d,NA,NA,NA,NA,sdfdsf,NA,1,NA,NA,NA,NA,NA,NA,NA,NA,NA,NA,NA,NA,NA,NA,NA,NA,NA,NA,NA
1186f,"""Falsch""-Screen",canvas.Screen,5_0_1_0_1_0_2,NA,NA,timeout,4996.7,620106,620116.326,620132.8,625112.8,625113.80000000994,2024-06-02T10:15:33Z,625129.5,NULL,Annäherung,maegesho,d,NA,NA,NA,NA,sdfdsf,0,1,NA,NA,NA,NA,NA,NA,NA,NA,NA,NA,NA,NA,NA,NA,NA,NA,NA,NA,NA
1186f,deep,flow.Sequence,5_0_1_0_1_0,NA,NA,completion,9227.6000000001,615870.30000001,615868.4,615885.2,625112.8,625114.20000005,2024-06-02T10:15:33Z,625129.5,NULL,Annäherung,maegesho,d,NA,NA,NA,NA,sdfdsf,NA,1,NA,NA,NA,NA,NA,NA,NA,NA,NA,NA,NA,NA,NA,NA,NA,NA,NA,NA,NA
1186f,shallow,flow.Sequence,5_0_1_0_1_1,NA,NA,skipped,NA,625114.40000004,NA,NA,625112.8,625114.5,2024-06-02T10:15:33Z,625129.5,NULL,Annäherung,maegesho,d,NA,NA,NA,NA,sdfdsf,NA,1,NA,NA,NA,NA,NA,NA,NA,NA,NA,NA,NA,NA,NA,NA,NA,NA,NA,NA,NA
1186f,task,flow.Sequence,5_0_1_0_1,NA,NA,completion,9227.6000000001,615870.30000001,615868.4,615885.2,625112.8,625114.70000005,2024-06-02T10:15:33Z,625129.5,NULL,Annäherung,maegesho,d,NA,NA,NA,NA,sdfdsf,NA,1,NA,NA,NA,NA,NA,NA,NA,NA,NA,NA,NA,NA,NA,NA,NA,NA,NA,NA,NA
1186f,deep,flow.Sequence,5_0_1_0_2_0,NA,NA,skipped,NA,625114.80000001,NA,NA,625112.8,625114.90000004,2024-06-02T10:15:33Z,625129.5,NULL,Aufstand,ugomaji,s,mazidio,msingi,kujieleza,NA,sdfdsf,NA,1,NA,NA,NA,NA,NA,NA,NA,NA,NA,NA,NA,NA,NA,NA,NA,NA,NA,NA,NA
1186f,Shallow Question,html.Page,5_0_1_0_2_1_0,NA,NA,form submission,4661.3000000119,625115,625112.8,625129.5,629790.80000001,629791,2024-06-02T10:15:38Z,629810.1,NULL,Aufstand,ugomaji,s,mazidio,msingi,kujieleza,ugomaji,NA,NA,1,NA,NA,NA,NA,NA,NA,NA,NA,NA,NA,NA,NA,NA,NA,NA,NA,NA,NA,NA
1186f,"""Richtig""-Screen",canvas.Screen,5_0_1_0_2_1_1,NA,NA,timeout,4996.6,629794.20000005,629793.814,629810.1,634790.3,634791.20000005,2024-06-02T10:15:43Z,634806.7,NULL,Aufstand,ugomaji,s,mazidio,msingi,kujieleza,NA,sdfdsf,1,1,NA,NA,NA,NA,NA,NA,NA,NA,NA,NA,NA,NA,NA,NA,NA,NA,NA,NA,NA
1186f,"""Falsch""-Screen",canvas.Screen,5_0_1_0_2_1_2,NA,NA,skipped,NA,634796.90000004,NA,NA,634790.3,634797.10000002,2024-06-02T10:15:43Z,634806.7,NULL,Aufstand,ugomaji,s,mazidio,msingi,kujieleza,NA,sdfdsf,NA,1,NA,NA,NA,NA,NA,NA,NA,NA,NA,NA,NA,NA,NA,NA,NA,NA,NA,NA,NA
1186f,shallow,flow.Sequence,5_0_1_0_2_1,NA,NA,completion,9660.8,625115,625112.8,625129.5,634790.3,634797.40000004,2024-06-02T10:15:43Z,634806.7,NULL,Aufstand,ugomaji,s,mazidio,msingi,kujieleza,NA,sdfdsf,NA,1,NA,NA,NA,NA,NA,NA,NA,NA,NA,NA,NA,NA,NA,NA,NA,NA,NA,NA,NA
1186f,task,flow.Sequence,5_0_1_0_2,NA,NA,completion,9660.8,625114.80000001,625112.8,625129.5,634790.3,634797.5,2024-06-02T10:15:43Z,634806.7,NULL,Aufstand,ugomaji,s,mazidio,msingi,kujieleza,NA,sdfdsf,NA,1,NA,NA,NA,NA,NA,NA,NA,NA,NA,NA,NA,NA,NA,NA,NA,NA,NA,NA,NA
1186f,deep,flow.Sequence,5_0_1_0_3_0,NA,NA,skipped,NA,634797.80000001,NA,NA,634790.3,634797.80000001,2024-06-02T10:15:43Z,634806.7,NULL,Prüfung,mtihani,s,mkulima,mtizamo,ufumbuzi,NA,sdfdsf,NA,1,NA,NA,NA,NA,NA,NA,NA,NA,NA,NA,NA,NA,NA,NA,NA,NA,NA,NA,NA
1186f,Shallow Question,html.Page,5_0_1_0_3_1_0,NA,NA,form submission,4778.100000012,634798,634790.3,634806.7,639584.80000001,639585.10000002,2024-06-02T10:15:48Z,639587.428,NULL,Prüfung,mtihani,s,mkulima,mtizamo,ufumbuzi,mtihani,NA,NA,1,NA,NA,NA,NA,NA,NA,NA,NA,NA,NA,NA,NA,NA,NA,NA,NA,NA,NA,NA
1186f,"""Richtig""-Screen",canvas.Screen,5_0_1_0_3_1_1,NA,NA,timeout,4996.672,639588.10000002,639587.428,639587.428,644567.3,644568.40000004,2024-06-02T10:15:53Z,644584.1,NULL,Prüfung,mtihani,s,mkulima,mtizamo,ufumbuzi,NA,sdfdsf,1,1,NA,NA,NA,NA,NA,NA,NA,NA,NA,NA,NA,NA,NA,NA,NA,NA,NA,NA,NA
1186f,"""Falsch""-Screen",canvas.Screen,5_0_1_0_3_1_2,NA,NA,skipped,NA,644573.20000005,NA,NA,644567.3,644573.40000004,2024-06-02T10:15:53Z,644584.1,NULL,Prüfung,mtihani,s,mkulima,mtizamo,ufumbuzi,NA,sdfdsf,NA,1,NA,NA,NA,NA,NA,NA,NA,NA,NA,NA,NA,NA,NA,NA,NA,NA,NA,NA,NA
1186f,shallow,flow.Sequence,5_0_1_0_3_1,NA,NA,completion,9760.6000000001,634798,634790.3,634806.7,644567.3,644573.5,2024-06-02T10:15:53Z,644584.1,NULL,Prüfung,mtihani,s,mkulima,mtizamo,ufumbuzi,NA,sdfdsf,NA,1,NA,NA,NA,NA,NA,NA,NA,NA,NA,NA,NA,NA,NA,NA,NA,NA,NA,NA,NA
1186f,task,flow.Sequence,5_0_1_0_3,NA,NA,completion,9760.6000000001,634797.70000005,634790.3,634806.7,644567.3,644573.5,2024-06-02T10:15:53Z,644584.1,NULL,Prüfung,mtihani,s,mkulima,mtizamo,ufumbuzi,NA,sdfdsf,NA,1,NA,NA,NA,NA,NA,NA,NA,NA,NA,NA,NA,NA,NA,NA,NA,NA,NA,NA,NA
1186f,deep,flow.Sequence,5_0_1_0_4_0,NA,NA,skipped,NA,644573.5,NA,NA,644567.3,644573.60000002,2024-06-02T10:15:53Z,644584.1,NULL,Beweis,ushahidi,s,marudio,kizuizi,mtendaji,NA,sdfdsf,NA,1,NA,NA,NA,NA,NA,NA,NA,NA,NA,NA,NA,NA,NA,NA,NA,NA,NA,NA,NA
1186f,Shallow Question,html.Page,5_0_1_0_4_1_0,NA,NA,form submission,5079.0000000239,644573.70000005,644567.3,644584.1,649663.10000002,649663.30000001,2024-06-02T10:15:58Z,649664.456,NULL,Beweis,ushahidi,s,marudio,kizuizi,mtendaji,ushahidi,NA,NA,1,NA,NA,NA,NA,NA,NA,NA,NA,NA,NA,NA,NA,NA,NA,NA,NA,NA,NA,NA
1186f,"""Richtig""-Screen",canvas.Screen,5_0_1_0_4_1_1,NA,NA,timeout,4997.144,649666.30000001,649664.456,649664.456,654644.8,654645.80000000994,2024-06-02T10:16:03Z,654661.6,NULL,Beweis,ushahidi,s,marudio,kizuizi,mtendaji,NA,sdfdsf,1,1,NA,NA,NA,NA,NA,NA,NA,NA,NA,NA,NA,NA,NA,NA,NA,NA,NA,NA,NA
1186f,"""Falsch""-Screen",canvas.Screen,5_0_1_0_4_1_2,NA,NA,skipped,NA,654651.30000001,NA,NA,654644.8,654651.30000001,2024-06-02T10:16:03Z,654661.6,NULL,Beweis,ushahidi,s,marudio,kizuizi,mtendaji,NA,sdfdsf,NA,1,NA,NA,NA,NA,NA,NA,NA,NA,NA,NA,NA,NA,NA,NA,NA,NA,NA,NA,NA
1186f,shallow,flow.Sequence,5_0_1_0_4_1,NA,NA,completion,10060.7,644573.60000002,644567.3,644584.1,654644.8,654651.40000004,2024-06-02T10:16:03Z,654661.6,NULL,Beweis,ushahidi,s,marudio,kizuizi,mtendaji,NA,sdfdsf,NA,1,NA,NA,NA,NA,NA,NA,NA,NA,NA,NA,NA,NA,NA,NA,NA,NA,NA,NA,NA
1186f,task,flow.Sequence,5_0_1_0_4,NA,NA,completion,10060.7,644573.5,644567.3,644584.1,654644.8,654651.5,2024-06-02T10:16:03Z,654661.6,NULL,Beweis,ushahidi,s,marudio,kizuizi,mtendaji,NA,sdfdsf,NA,1,NA,NA,NA,NA,NA,NA,NA,NA,NA,NA,NA,NA,NA,NA,NA,NA,NA,NA,NA
1186f,Deep Question,html.Page,5_0_1_0_5_0_0,NA,NA,form submission,5385.8000000358,654651.5,654644.8,654661.6,660047.40000004,660047.60000002,2024-06-02T10:16:08Z,660058,NULL,Kultur,utamaduni,d,NA,NA,NA,mpanfo,NA,NA,1,NA,NA,NA,NA,NA,NA,NA,NA,NA,NA,NA,NA,NA,NA,NA,NA,NA,NA,NA
1186f,"""Richtig""-Screen",canvas.Screen,5_0_1_0_5_0_1,NA,NA,skipped,NA,660050.80000000994,NA,NA,660047.40000004,660050.80000000994,2024-06-02T10:16:08Z,660058,NULL,Kultur,utamaduni,d,NA,NA,NA,NA,sdfdsf,NA,1,NA,NA,NA,NA,NA,NA,NA,NA,NA,NA,NA,NA,NA,NA,NA,NA,NA,NA,NA
1186f,"""Falsch""-Screen",canvas.Screen,5_0_1_0_5_0_2,NA,NA,timeout,4996.8,660051.80000001,660041.782,660058,665038.5,665038.90000004,2024-06-02T10:16:13Z,665054.8,NULL,Kultur,utamaduni,d,NA,NA,NA,NA,sdfdsf,0,1,NA,NA,NA,NA,NA,NA,NA,NA,NA,NA,NA,NA,NA,NA,NA,NA,NA,NA,NA
1186f,deep,flow.Sequence,5_0_1_0_5_0,NA,NA,completion,10376.9,654651.5,654644.8,654661.6,665038.5,665039,2024-06-02T10:16:13Z,665054.8,NULL,Kultur,utamaduni,d,NA,NA,NA,NA,sdfdsf,NA,1,NA,NA,NA,NA,NA,NA,NA,NA,NA,NA,NA,NA,NA,NA,NA,NA,NA,NA,NA
1186f,shallow,flow.Sequence,5_0_1_0_5_1,NA,NA,skipped,NA,665039.10000002,NA,NA,665038.5,665039.10000002,2024-06-02T10:16:13Z,665054.8,NULL,Kultur,utamaduni,d,NA,NA,NA,NA,sdfdsf,NA,1,NA,NA,NA,NA,NA,NA,NA,NA,NA,NA,NA,NA,NA,NA,NA,NA,NA,NA,NA
1186f,task,flow.Sequence,5_0_1_0_5,NA,NA,completion,10376.9,654651.5,654644.8,654661.6,665038.5,665039.10000002,2024-06-02T10:16:13Z,665054.8,NULL,Kultur,utamaduni,d,NA,NA,NA,NA,sdfdsf,NA,1,NA,NA,NA,NA,NA,NA,NA,NA,NA,NA,NA,NA,NA,NA,NA,NA,NA,NA,NA
1186f,Deep Question,html.Page,5_0_1_0_6_0_0,NA,NA,form submission,3784.6000000357,665039.20000005,665038.5,665054.8,668839.40000004,668839.70000005,2024-06-02T10:16:17Z,668852.7,NULL,Sympathie,mapendano,d,NA,NA,NA,fg,NA,NA,1,NA,NA,NA,NA,NA,NA,NA,NA,NA,NA,NA,NA,NA,NA,NA,NA,NA,NA,NA
1186f,"""Richtig""-Screen",canvas.Screen,5_0_1_0_6_0_1,NA,NA,skipped,NA,668842.90000004,NA,NA,668839.40000004,668843.10000002,2024-06-02T10:16:17Z,668852.7,NULL,Sympathie,mapendano,d,NA,NA,NA,NA,sdfdsf,NA,1,NA,NA,NA,NA,NA,NA,NA,NA,NA,NA,NA,NA,NA,NA,NA,NA,NA,NA,NA
1186f,"""Falsch""-Screen",canvas.Screen,5_0_1_0_6_0_2,NA,NA,timeout,4997.1000000001,668843.60000002,668836.418,668852.7,673832.9,673834,2024-06-02T10:16:22Z,673849.8,NULL,Sympathie,mapendano,d,NA,NA,NA,NA,sdfdsf,0,1,NA,NA,NA,NA,NA,NA,NA,NA,NA,NA,NA,NA,NA,NA,NA,NA,NA,NA,NA
1186f,deep,flow.Sequence,5_0_1_0_6_0,NA,NA,completion,8778.1,665039.20000005,665038.5,665054.8,673832.9,673834.40000004,2024-06-02T10:16:22Z,673849.8,NULL,Sympathie,mapendano,d,NA,NA,NA,NA,sdfdsf,NA,1,NA,NA,NA,NA,NA,NA,NA,NA,NA,NA,NA,NA,NA,NA,NA,NA,NA,NA,NA
1186f,shallow,flow.Sequence,5_0_1_0_6_1,NA,NA,skipped,NA,673834.5,NA,NA,673832.9,673834.70000005,2024-06-02T10:16:22Z,673849.8,NULL,Sympathie,mapendano,d,NA,NA,NA,NA,sdfdsf,NA,1,NA,NA,NA,NA,NA,NA,NA,NA,NA,NA,NA,NA,NA,NA,NA,NA,NA,NA,NA
1186f,task,flow.Sequence,5_0_1_0_6,NA,NA,completion,8778.1,665039.10000002,665038.5,665054.8,673832.9,673834.80000001,2024-06-02T10:16:22Z,673849.8,NULL,Sympathie,mapendano,d,NA,NA,NA,NA,sdfdsf,NA,1,NA,NA,NA,NA,NA,NA,NA,NA,NA,NA,NA,NA,NA,NA,NA,NA,NA,NA,NA
1186f,deep,flow.Sequence,5_0_1_0_7_0,NA,NA,skipped,NA,673835,NA,NA,673832.9,673835.10000002,2024-06-02T10:16:22Z,673849.8,NULL,Polizist,msongora,s,simanzi,mandhari,nidhamu,NA,sdfdsf,NA,1,NA,NA,NA,NA,NA,NA,NA,NA,NA,NA,NA,NA,NA,NA,NA,NA,NA,NA,NA
1186f,Shallow Question,html.Page,5_0_1_0_7_1_0,NA,NA,form submission,3857.5000000119,673835.20000005,673832.9,673849.8,677707.30000001,677707.60000002,2024-06-02T10:16:26Z,677730.9,NULL,Polizist,msongora,s,simanzi,mandhari,nidhamu,msongora,NA,NA,1,NA,NA,NA,NA,NA,NA,NA,NA,NA,NA,NA,NA,NA,NA,NA,NA,NA,NA,NA
1186f,"""Richtig""-Screen",canvas.Screen,5_0_1_0_7_1_1,NA,NA,timeout,4996.4,677710.80000001,677714.356,677730.9,682710.9,682711.90000004,2024-06-02T10:16:31Z,682727.3,NULL,Polizist,msongora,s,simanzi,mandhari,nidhamu,NA,sdfdsf,1,1,NA,NA,NA,NA,NA,NA,NA,NA,NA,NA,NA,NA,NA,NA,NA,NA,NA,NA,NA
1186f,"""Falsch""-Screen",canvas.Screen,5_0_1_0_7_1_2,NA,NA,skipped,NA,682716.90000004,NA,NA,682710.9,682716.90000004,2024-06-02T10:16:31Z,682727.3,NULL,Polizist,msongora,s,simanzi,mandhari,nidhamu,NA,sdfdsf,NA,1,NA,NA,NA,NA,NA,NA,NA,NA,NA,NA,NA,NA,NA,NA,NA,NA,NA,NA,NA
1186f,shallow,flow.Sequence,5_0_1_0_7_1,NA,NA,completion,8861.1,673835.10000002,673832.9,673849.8,682710.9,682717.10000002,2024-06-02T10:16:31Z,682727.3,NULL,Polizist,msongora,s,simanzi,mandhari,nidhamu,NA,sdfdsf,NA,1,NA,NA,NA,NA,NA,NA,NA,NA,NA,NA,NA,NA,NA,NA,NA,NA,NA,NA,NA
1186f,task,flow.Sequence,5_0_1_0_7,NA,NA,completion,8861.1,673834.90000004,673832.9,673849.8,682710.9,682717.10000002,2024-06-02T10:16:31Z,682727.3,NULL,Polizist,msongora,s,simanzi,mandhari,nidhamu,NA,sdfdsf,NA,1,NA,NA,NA,NA,NA,NA,NA,NA,NA,NA,NA,NA,NA,NA,NA,NA,NA,NA,NA
