observation,sender,sender_type,sender_id,response,response_action,ended_on,duration,time_run,time_render,time_show,time_end,time_commit,timestamp,time_switch,distractors,german,swahili,enc,distractor1,distractor2,distractor3,response_2,x,correct,x_2,url_vp,url_sess,meta_labjs_version,meta_location,meta_user_agent,meta_platform,meta_language,meta_locale,meta_time_zone,meta_timezone_offset,meta_screen_width,meta_screen_height,meta_scroll_width,meta_scroll_height,meta_window_inner_width,meta_window_inner_height,meta_device_pixel_ratio,meta_labjs_build_flavor,meta_labjs_build_commit
68755,Introduction general,canvas.Screen,0,weiter,keypress(q),response,3240.76,764,774.54,791.24,4032,4035,2024-06-23T15:07:09Z,4036.06,NULL,NA,NA,NA,NA,NA,NA,NA,NA,NA,NA,160,3,20.2.4,https://neurocog.fernuni.ch/studies/vweber/jbaenninger/encoding_immediate/index.html?vp=160&sess=3,Mozilla/5.0 (Windows NT 10.0; Win64; x64; rv:127.0) Gecko/20100101 Firefox/127.0,Win32,de,de-CH,Europe/Zurich,-120,1280,800,1280,591,1280,639,1.5,production,f5b4a49f956347addd546a832a3327688c2c0fef
68755,Introduction practice,canvas.Screen,1_0,NA,keypress(Space),response,885.94,4036,4035.44,4036.06,4922,4941,2024-06-23T15:07:10Z,4944.7,NULL,NA,NA,NA,NA,NA,NA,NA,NA,NA,NA,NA,NA,NA,NA,NA,NA,NA,NA,NA,NA,NA,NA,NA,NA,NA,NA,NA,NA,NA
68755,Deep Question,html.Page,1_1_0_0_0,NA,NA,form submission,1695.3,4941,4941.1,4944.7,6640,6640,2024-06-23T15:07:12Z,6646.06,"c(""distractor1"", ""distractor2"", ""distractor3"")",Qualität,mtindo,d,NA,NA,NA,NA,NA,NA,NA,NA,NA,NA,NA,NA,NA,NA,NA,NA,NA,NA,NA,NA,NA,NA,NA,NA,NA,NA
68755,"""Richtig""-Screen",canvas.Screen,1_1_0_0_1,NA,NA,skipped,NA,6642,NA,NA,6640,6642,2024-06-23T15:07:12Z,6646.06,"c(""distractor1"", ""distractor2"", ""distractor3"")",Qualität,mtindo,d,NA,NA,NA,NA,NA,NA,NA,NA,NA,NA,NA,NA,NA,NA,NA,NA,NA,NA,NA,NA,NA,NA,NA,NA,NA,NA
68755,"""Falsch""-Screen",canvas.Screen,1_1_0_0_2,NA,NA,timeout,5004.38,6643,6635.74,6646.06,11633.74,11636,2024-06-23T15:07:17Z,11650.44,"c(""distractor1"", ""distractor2"", ""distractor3"")",Qualität,mtindo,d,NA,NA,NA,NA,NA,0,NA,NA,NA,NA,NA,NA,NA,NA,NA,NA,NA,NA,NA,NA,NA,NA,NA,NA,NA,NA
68755,deep,flow.Sequence,1_1_0_0,NA,NA,completion,6689.04,4941,4941.1,4944.7,11633.74,11637,2024-06-23T15:07:17Z,11650.44,"c(""distractor1"", ""distractor2"", ""distractor3"")",Qualität,mtindo,d,NA,NA,NA,NA,NA,NA,NA,NA,NA,NA,NA,NA,NA,NA,NA,NA,NA,NA,NA,NA,NA,NA,NA,NA,NA,NA
68755,shallow,flow.Sequence,1_1_0_1,NA,NA,skipped,NA,11637,NA,NA,11633.74,11638,2024-06-23T15:07:17Z,11650.44,"c(""distractor1"", ""distractor2"", ""distractor3"")",Qualität,mtindo,d,NA,NA,NA,NA,NA,NA,NA,NA,NA,NA,NA,NA,NA,NA,NA,NA,NA,NA,NA,NA,NA,NA,NA,NA,NA,NA
68755,task,flow.Sequence,1_1_0,NA,NA,completion,6689.04,4941,4941.1,4944.7,11633.74,11638,2024-06-23T15:07:17Z,11650.44,"c(""distractor1"", ""distractor2"", ""distractor3"")",Qualität,mtindo,d,NA,NA,NA,NA,NA,NA,NA,NA,NA,NA,NA,NA,NA,NA,NA,NA,NA,NA,NA,NA,NA,NA,NA,NA,NA,NA
68755,deep,flow.Sequence,1_1_1_0,NA,NA,skipped,NA,11638,NA,NA,11633.74,11638,2024-06-23T15:07:17Z,11650.44,"c(""distractor1"", ""distractor2"", ""distractor3"")",Rückhalt,msaada,s,muhula,auwali,kiwimbe,NA,NA,NA,NA,NA,NA,NA,NA,NA,NA,NA,NA,NA,NA,NA,NA,NA,NA,NA,NA,NA,NA,NA
68755,Shallow Question,html.Page,1_1_1_1_0,NA,NA,form submission,2136.56,11639,11633.74,11650.44,13787,13788,2024-06-23T15:07:19Z,13785.48,"c(""distractor1"", ""distractor2"", ""distractor3"")",Rückhalt,msaada,s,muhula,auwali,kiwimbe,msaada,NA,NA,NA,NA,NA,NA,NA,NA,NA,NA,NA,NA,NA,NA,NA,NA,NA,NA,NA,NA,NA,NA
68755,"""Richtig""-Screen",canvas.Screen,1_1_1_1_1,NA,NA,timeout,5004.08,13793,13783.8,13785.48,18772.86,18774,2024-06-23T15:07:24Z,18789.56,"c(""distractor1"", ""distractor2"", ""distractor3"")",Rückhalt,msaada,s,muhula,auwali,kiwimbe,NA,NA,1,NA,NA,NA,NA,NA,NA,NA,NA,NA,NA,NA,NA,NA,NA,NA,NA,NA,NA,NA,NA
68755,"""Falsch""-Screen",canvas.Screen,1_1_1_1_2,NA,NA,skipped,NA,18779,NA,NA,18772.86,18779,2024-06-23T15:07:24Z,18789.56,"c(""distractor1"", ""distractor2"", ""distractor3"")",Rückhalt,msaada,s,muhula,auwali,kiwimbe,NA,NA,NA,NA,NA,NA,NA,NA,NA,NA,NA,NA,NA,NA,NA,NA,NA,NA,NA,NA,NA,NA,NA
68755,shallow,flow.Sequence,1_1_1_1,NA,NA,completion,7122.42,11639,11633.74,11650.44,18772.86,18780,2024-06-23T15:07:24Z,18789.56,"c(""distractor1"", ""distractor2"", ""distractor3"")",Rückhalt,msaada,s,muhula,auwali,kiwimbe,NA,NA,NA,NA,NA,NA,NA,NA,NA,NA,NA,NA,NA,NA,NA,NA,NA,NA,NA,NA,NA,NA,NA
68755,task,flow.Sequence,1_1_1,NA,NA,completion,7122.42,11638,11633.74,11650.44,18772.86,18780,2024-06-23T15:07:24Z,18789.56,"c(""distractor1"", ""distractor2"", ""distractor3"")",Rückhalt,msaada,s,muhula,auwali,kiwimbe,NA,NA,NA,NA,NA,NA,NA,NA,NA,NA,NA,NA,NA,NA,NA,NA,NA,NA,NA,NA,NA,NA,NA
68755,Deep Question,html.Page,1_1_2_0_0,NA,NA,form submission,1618.44,18780,18772.86,18789.56,20408,20409,2024-06-23T15:07:25Z,20407.58,"c(""distractor1"", ""distractor2"", ""distractor3"")",Gesundheit,salama,d,NA,NA,NA,NA,NA,NA,NA,NA,NA,NA,NA,NA,NA,NA,NA,NA,NA,NA,NA,NA,NA,NA,NA,NA,NA,NA
68755,"""Richtig""-Screen",canvas.Screen,1_1_2_0_1,NA,NA,skipped,NA,20410,NA,NA,20408,20410,2024-06-23T15:07:25Z,20407.58,"c(""distractor1"", ""distractor2"", ""distractor3"")",Gesundheit,salama,d,NA,NA,NA,NA,NA,NA,NA,NA,NA,NA,NA,NA,NA,NA,NA,NA,NA,NA,NA,NA,NA,NA,NA,NA,NA,NA
68755,"""Falsch""-Screen",canvas.Screen,1_1_2_0_2,NA,NA,timeout,5004,20412,20406.26,20407.58,25395.02,25396,2024-06-23T15:07:30Z,25411.58,"c(""distractor1"", ""distractor2"", ""distractor3"")",Gesundheit,salama,d,NA,NA,NA,NA,NA,0,NA,NA,NA,NA,NA,NA,NA,NA,NA,NA,NA,NA,NA,NA,NA,NA,NA,NA,NA,NA
68755,deep,flow.Sequence,1_1_2_0,NA,NA,completion,6605.46,18780,18772.86,18789.56,25395.02,25396,2024-06-23T15:07:30Z,25411.58,"c(""distractor1"", ""distractor2"", ""distractor3"")",Gesundheit,salama,d,NA,NA,NA,NA,NA,NA,NA,NA,NA,NA,NA,NA,NA,NA,NA,NA,NA,NA,NA,NA,NA,NA,NA,NA,NA,NA
68755,shallow,flow.Sequence,1_1_2_1,NA,NA,skipped,NA,25396,NA,NA,25395.02,25396,2024-06-23T15:07:30Z,25411.58,"c(""distractor1"", ""distractor2"", ""distractor3"")",Gesundheit,salama,d,NA,NA,NA,NA,NA,NA,NA,NA,NA,NA,NA,NA,NA,NA,NA,NA,NA,NA,NA,NA,NA,NA,NA,NA,NA,NA
68755,task,flow.Sequence,1_1_2,NA,NA,completion,6605.46,18780,18772.86,18789.56,25395.02,25396,2024-06-23T15:07:30Z,25411.58,"c(""distractor1"", ""distractor2"", ""distractor3"")",Gesundheit,salama,d,NA,NA,NA,NA,NA,NA,NA,NA,NA,NA,NA,NA,NA,NA,NA,NA,NA,NA,NA,NA,NA,NA,NA,NA,NA,NA
68755,deep,flow.Sequence,1_1_3_0,NA,NA,skipped,NA,25397,NA,NA,25395.02,25397,2024-06-23T15:07:30Z,25411.58,"c(""distractor1"", ""distractor2"", ""distractor3"")",Gegenwart,hadhara,s,katiba,jokofu,mikopo,NA,NA,NA,NA,NA,NA,NA,NA,NA,NA,NA,NA,NA,NA,NA,NA,NA,NA,NA,NA,NA,NA,NA
68755,Shallow Question,html.Page,1_1_3_1_0,NA,NA,form submission,1686.42,25397,25395.02,25411.58,27098,27098,2024-06-23T15:07:32Z,27096.46,"c(""distractor1"", ""distractor2"", ""distractor3"")",Gegenwart,hadhara,s,katiba,jokofu,mikopo,katiba,NA,NA,NA,NA,NA,NA,NA,NA,NA,NA,NA,NA,NA,NA,NA,NA,NA,NA,NA,NA,NA,NA
68755,"""Richtig""-Screen",canvas.Screen,1_1_3_1_1,NA,NA,skipped,NA,27100,NA,NA,27098,27100,2024-06-23T15:07:32Z,27096.46,"c(""distractor1"", ""distractor2"", ""distractor3"")",Gegenwart,hadhara,s,katiba,jokofu,mikopo,NA,NA,NA,NA,NA,NA,NA,NA,NA,NA,NA,NA,NA,NA,NA,NA,NA,NA,NA,NA,NA,NA,NA
68755,"""Falsch""-Screen",canvas.Screen,1_1_3_1_2,NA,NA,timeout,5004,27101,27096,27096.46,32083.76,32085,2024-06-23T15:07:37Z,32100.46,"c(""distractor1"", ""distractor2"", ""distractor3"")",Gegenwart,hadhara,s,katiba,jokofu,mikopo,NA,NA,0,NA,NA,NA,NA,NA,NA,NA,NA,NA,NA,NA,NA,NA,NA,NA,NA,NA,NA,NA,NA
68755,shallow,flow.Sequence,1_1_3_1,NA,NA,completion,6672.18,25397,25395.02,25411.58,32083.76,32086,2024-06-23T15:07:37Z,32100.46,"c(""distractor1"", ""distractor2"", ""distractor3"")",Gegenwart,hadhara,s,katiba,jokofu,mikopo,NA,NA,NA,NA,NA,NA,NA,NA,NA,NA,NA,NA,NA,NA,NA,NA,NA,NA,NA,NA,NA,NA,NA
68755,task,flow.Sequence,1_1_3,NA,NA,completion,6672.18,25396,25395.02,25411.58,32083.76,32086,2024-06-23T15:07:37Z,32100.46,"c(""distractor1"", ""distractor2"", ""distractor3"")",Gegenwart,hadhara,s,katiba,jokofu,mikopo,NA,NA,NA,NA,NA,NA,NA,NA,NA,NA,NA,NA,NA,NA,NA,NA,NA,NA,NA,NA,NA,NA,NA
68755,deep,flow.Sequence,1_1_4_0,NA,NA,skipped,NA,32086,NA,NA,32083.76,32086,2024-06-23T15:07:37Z,32100.46,"c(""distractor1"", ""distractor2"", ""distractor3"")",Kritik,lawama,s,dereva,nafasi,mawazo,NA,NA,NA,NA,NA,NA,NA,NA,NA,NA,NA,NA,NA,NA,NA,NA,NA,NA,NA,NA,NA,NA,NA
68755,Shallow Question,html.Page,1_1_4_1_0,NA,NA,form submission,2064.54,32087,32083.76,32100.46,34165,34165,2024-06-23T15:07:39Z,34168.86,"c(""distractor1"", ""distractor2"", ""distractor3"")",Kritik,lawama,s,dereva,nafasi,mawazo,mawazo,NA,NA,NA,NA,NA,NA,NA,NA,NA,NA,NA,NA,NA,NA,NA,NA,NA,NA,NA,NA,NA,NA
68755,"""Richtig""-Screen",canvas.Screen,1_1_4_1_1,NA,NA,skipped,NA,34168,NA,NA,34165,34168,2024-06-23T15:07:39Z,34168.86,"c(""distractor1"", ""distractor2"", ""distractor3"")",Kritik,lawama,s,dereva,nafasi,mawazo,NA,NA,NA,NA,NA,NA,NA,NA,NA,NA,NA,NA,NA,NA,NA,NA,NA,NA,NA,NA,NA,NA,NA
68755,"""Falsch""-Screen",canvas.Screen,1_1_4_1_2,NA,NA,timeout,5004.16,34170,34161.24,34168.86,39156.32,39158,2024-06-23T15:07:44Z,39173.02,"c(""distractor1"", ""distractor2"", ""distractor3"")",Kritik,lawama,s,dereva,nafasi,mawazo,NA,NA,0,NA,NA,NA,NA,NA,NA,NA,NA,NA,NA,NA,NA,NA,NA,NA,NA,NA,NA,NA,NA
68755,shallow,flow.Sequence,1_1_4_1,NA,NA,completion,7055.86,32087,32083.76,32100.46,39156.32,39158,2024-06-23T15:07:44Z,39173.02,"c(""distractor1"", ""distractor2"", ""distractor3"")",Kritik,lawama,s,dereva,nafasi,mawazo,NA,NA,NA,NA,NA,NA,NA,NA,NA,NA,NA,NA,NA,NA,NA,NA,NA,NA,NA,NA,NA,NA,NA
68755,task,flow.Sequence,1_1_4,NA,NA,completion,7055.86,32086,32083.76,32100.46,39156.32,39158,2024-06-23T15:07:44Z,39173.02,"c(""distractor1"", ""distractor2"", ""distractor3"")",Kritik,lawama,s,dereva,nafasi,mawazo,NA,NA,NA,NA,NA,NA,NA,NA,NA,NA,NA,NA,NA,NA,NA,NA,NA,NA,NA,NA,NA,NA,NA
68755,Deep Question,html.Page,1_1_5_0_0,NA,NA,form submission,1755.98,39158,39156.32,39173.02,40929,40930,2024-06-23T15:07:46Z,40941.12,"c(""distractor1"", ""distractor2"", ""distractor3"")",Schatten,kivuli,d,NA,NA,NA,NA,NA,NA,NA,NA,NA,NA,NA,NA,NA,NA,NA,NA,NA,NA,NA,NA,NA,NA,NA,NA,NA,NA
68755,"""Richtig""-Screen",canvas.Screen,1_1_5_0_1,NA,NA,skipped,NA,40931,NA,NA,40929,40931,2024-06-23T15:07:46Z,40941.12,"c(""distractor1"", ""distractor2"", ""distractor3"")",Schatten,kivuli,d,NA,NA,NA,NA,NA,NA,NA,NA,NA,NA,NA,NA,NA,NA,NA,NA,NA,NA,NA,NA,NA,NA,NA,NA,NA,NA
68755,"""Falsch""-Screen",canvas.Screen,1_1_5_0_2,NA,NA,timeout,5004.24,40932,40926.66,40941.12,45928.86,45930,2024-06-23T15:07:51Z,45945.36,"c(""distractor1"", ""distractor2"", ""distractor3"")",Schatten,kivuli,d,NA,NA,NA,NA,NA,0,NA,NA,NA,NA,NA,NA,NA,NA,NA,NA,NA,NA,NA,NA,NA,NA,NA,NA,NA,NA
68755,deep,flow.Sequence,1_1_5_0,NA,NA,completion,6755.84,39158,39156.32,39173.02,45928.86,45930,2024-06-23T15:07:51Z,45945.36,"c(""distractor1"", ""distractor2"", ""distractor3"")",Schatten,kivuli,d,NA,NA,NA,NA,NA,NA,NA,NA,NA,NA,NA,NA,NA,NA,NA,NA,NA,NA,NA,NA,NA,NA,NA,NA,NA,NA
68755,shallow,flow.Sequence,1_1_5_1,NA,NA,skipped,NA,45930,NA,NA,45928.86,45931,2024-06-23T15:07:51Z,45945.36,"c(""distractor1"", ""distractor2"", ""distractor3"")",Schatten,kivuli,d,NA,NA,NA,NA,NA,NA,NA,NA,NA,NA,NA,NA,NA,NA,NA,NA,NA,NA,NA,NA,NA,NA,NA,NA,NA,NA
68755,task,flow.Sequence,1_1_5,NA,NA,completion,6755.84,39158,39156.32,39173.02,45928.86,45931,2024-06-23T15:07:51Z,45945.36,"c(""distractor1"", ""distractor2"", ""distractor3"")",Schatten,kivuli,d,NA,NA,NA,NA,NA,NA,NA,NA,NA,NA,NA,NA,NA,NA,NA,NA,NA,NA,NA,NA,NA,NA,NA,NA,NA,NA
68755,block,flow.Loop,1_1,NA,NA,completion,40984.16,4941,4941.1,4944.7,45928.86,45931,2024-06-23T15:07:51Z,45945.36,"c(""distractor1"", ""distractor2"", ""distractor3"")",NA,NA,NA,NA,NA,NA,NA,NA,NA,NA,NA,NA,NA,NA,NA,NA,NA,NA,NA,NA,NA,NA,NA,NA,NA,NA,NA,NA,NA
68755,Practice,flow.Sequence,1,NA,NA,completion,41892.8,4036,4035.44,4036.06,45928.86,45931,2024-06-23T15:07:51Z,45945.36,NULL,NA,NA,NA,NA,NA,NA,NA,NA,NA,NA,NA,NA,NA,NA,NA,NA,NA,NA,NA,NA,NA,NA,NA,NA,NA,NA,NA,NA,NA
68755,Experiment start,canvas.Screen,2,weiter,keypress(q),response,6928.64,45931,45928.86,45945.36,52874,52890,2024-06-23T15:07:58Z,52977.56,NULL,NA,NA,NA,NA,NA,NA,NA,NA,NA,NA,NA,NA,NA,NA,NA,NA,NA,NA,NA,NA,NA,NA,NA,NA,NA,NA,NA,NA,NA
68755,Deep Question,html.Page,3_0_0_0_0_0_0,NA,NA,form submission,5419.44,52977,52976.9,52977.56,58397,58397,2024-06-23T15:08:03Z,58405.62,NULL,Atmosphäre,angahewa,d,NA,NA,NA,NA,NA,NA,0,NA,NA,NA,NA,NA,NA,NA,NA,NA,NA,NA,NA,NA,NA,NA,NA,NA,NA,NA
68755,"""Richtig""-Screen",canvas.Screen,3_0_0_0_0_0_1,NA,NA,skipped,NA,58399,NA,NA,58397,58399,2024-06-23T15:08:03Z,58405.62,NULL,Atmosphäre,angahewa,d,NA,NA,NA,NA,sdf,NA,0,NA,NA,NA,NA,NA,NA,NA,NA,NA,NA,NA,NA,NA,NA,NA,NA,NA,NA,NA
68755,"""Falsch""-Screen",canvas.Screen,3_0_0_0_0_0_2,NA,NA,timeout,5004.36,58400,58394.38,58405.62,63393.28,63394,2024-06-23T15:08:08Z,63409.98,NULL,Atmosphäre,angahewa,d,NA,NA,NA,NA,sdf,0,0,NA,NA,NA,NA,NA,NA,NA,NA,NA,NA,NA,NA,NA,NA,NA,NA,NA,NA,NA
68755,deep,flow.Sequence,3_0_0_0_0_0,NA,NA,completion,10415.72,52977,52976.9,52977.56,63393.28,63394,2024-06-23T15:08:08Z,63409.98,NULL,Atmosphäre,angahewa,d,NA,NA,NA,NA,sdf,NA,0,NA,NA,NA,NA,NA,NA,NA,NA,NA,NA,NA,NA,NA,NA,NA,NA,NA,NA,NA
68755,shallow,flow.Sequence,3_0_0_0_0_1,NA,NA,skipped,NA,63394,NA,NA,63393.28,63394,2024-06-23T15:08:08Z,63409.98,NULL,Atmosphäre,angahewa,d,NA,NA,NA,NA,sdf,NA,0,NA,NA,NA,NA,NA,NA,NA,NA,NA,NA,NA,NA,NA,NA,NA,NA,NA,NA,NA
68755,task,flow.Sequence,3_0_0_0_0,NA,NA,completion,10415.72,52977,52976.9,52977.56,63393.28,63394,2024-06-23T15:08:08Z,63409.98,NULL,Atmosphäre,angahewa,d,NA,NA,NA,NA,sdf,NA,0,NA,NA,NA,NA,NA,NA,NA,NA,NA,NA,NA,NA,NA,NA,NA,NA,NA,NA,NA
68755,deep,flow.Sequence,3_0_0_0_1_0,NA,NA,skipped,NA,63394,NA,NA,63393.28,63394,2024-06-23T15:08:08Z,63409.98,NULL,Verpackung,ufungaji,s,uhusiano,upimaji,uchunguzi,NA,sdf,NA,0,NA,NA,NA,NA,NA,NA,NA,NA,NA,NA,NA,NA,NA,NA,NA,NA,NA,NA,NA
68755,Shallow Question,html.Page,3_0_0_0_1_1_0,NA,NA,form submission,4467.02,63394,63393.28,63409.98,67877,67878,2024-06-23T15:08:13Z,67880.24,NULL,Verpackung,ufungaji,s,uhusiano,upimaji,uchunguzi,uhusiano,NA,NA,0,NA,NA,NA,NA,NA,NA,NA,NA,NA,NA,NA,NA,NA,NA,NA,NA,NA,NA,NA
68755,"""Richtig""-Screen",canvas.Screen,3_0_0_0_1_1_1,NA,NA,skipped,NA,67879,NA,NA,67877,67879,2024-06-23T15:08:13Z,67880.24,NULL,Verpackung,ufungaji,s,uhusiano,upimaji,uchunguzi,NA,sdf,NA,0,NA,NA,NA,NA,NA,NA,NA,NA,NA,NA,NA,NA,NA,NA,NA,NA,NA,NA,NA
68755,"""Falsch""-Screen",canvas.Screen,3_0_0_0_1_1_2,NA,NA,timeout,5004.02,67880,67874.56,67880.24,72867.6,72872,2024-06-23T15:08:18Z,72884.26,NULL,Verpackung,ufungaji,s,uhusiano,upimaji,uchunguzi,NA,sdf,0,0,NA,NA,NA,NA,NA,NA,NA,NA,NA,NA,NA,NA,NA,NA,NA,NA,NA,NA,NA
68755,shallow,flow.Sequence,3_0_0_0_1_1,NA,NA,completion,9457.62,63394,63393.28,63409.98,72867.6,72874,2024-06-23T15:08:18Z,72884.26,NULL,Verpackung,ufungaji,s,uhusiano,upimaji,uchunguzi,NA,sdf,NA,0,NA,NA,NA,NA,NA,NA,NA,NA,NA,NA,NA,NA,NA,NA,NA,NA,NA,NA,NA
68755,task,flow.Sequence,3_0_0_0_1,NA,NA,completion,9457.62,63394,63393.28,63409.98,72867.6,72874,2024-06-23T15:08:18Z,72884.26,NULL,Verpackung,ufungaji,s,uhusiano,upimaji,uchunguzi,NA,sdf,NA,0,NA,NA,NA,NA,NA,NA,NA,NA,NA,NA,NA,NA,NA,NA,NA,NA,NA,NA,NA
68755,deep,flow.Sequence,3_0_0_0_2_0,NA,NA,skipped,NA,72874,NA,NA,72867.6,72874,2024-06-23T15:08:18Z,72884.26,NULL,Hoffnung,matarajio,s,kutaalamika,uratibu,mvumbuzi,NA,sdf,NA,0,NA,NA,NA,NA,NA,NA,NA,NA,NA,NA,NA,NA,NA,NA,NA,NA,NA,NA,NA
68755,Shallow Question,html.Page,3_0_0_0_2_1_0,NA,NA,form submission,2530.74,72875,72867.6,72884.26,75415,75417,2024-06-23T15:08:20Z,75419.7,NULL,Hoffnung,matarajio,s,kutaalamika,uratibu,mvumbuzi,uratibu,NA,NA,0,NA,NA,NA,NA,NA,NA,NA,NA,NA,NA,NA,NA,NA,NA,NA,NA,NA,NA,NA
68755,"""Richtig""-Screen",canvas.Screen,3_0_0_0_2_1_1,NA,NA,skipped,NA,75420,NA,NA,75415,75420,2024-06-23T15:08:20Z,75419.7,NULL,Hoffnung,matarajio,s,kutaalamika,uratibu,mvumbuzi,NA,sdf,NA,0,NA,NA,NA,NA,NA,NA,NA,NA,NA,NA,NA,NA,NA,NA,NA,NA,NA,NA,NA
68755,"""Falsch""-Screen",canvas.Screen,3_0_0_0_2_1_2,NA,NA,timeout,5004.18,75422,75412.32,75419.7,80407.24,80410,2024-06-23T15:08:25Z,80423.88,NULL,Hoffnung,matarajio,s,kutaalamika,uratibu,mvumbuzi,NA,sdf,0,0,NA,NA,NA,NA,NA,NA,NA,NA,NA,NA,NA,NA,NA,NA,NA,NA,NA,NA,NA
68755,shallow,flow.Sequence,3_0_0_0_2_1,NA,NA,completion,7522.98,72875,72867.6,72884.26,80407.24,80411,2024-06-23T15:08:25Z,80423.88,NULL,Hoffnung,matarajio,s,kutaalamika,uratibu,mvumbuzi,NA,sdf,NA,0,NA,NA,NA,NA,NA,NA,NA,NA,NA,NA,NA,NA,NA,NA,NA,NA,NA,NA,NA
68755,task,flow.Sequence,3_0_0_0_2,NA,NA,completion,7522.98,72874,72867.6,72884.26,80407.24,80411,2024-06-23T15:08:25Z,80423.88,NULL,Hoffnung,matarajio,s,kutaalamika,uratibu,mvumbuzi,NA,sdf,NA,0,NA,NA,NA,NA,NA,NA,NA,NA,NA,NA,NA,NA,NA,NA,NA,NA,NA,NA,NA
68755,Deep Question,html.Page,3_0_0_0_3_0_0,NA,NA,form submission,18984.12,80411,80407.24,80423.88,99408,99409,2024-06-23T15:08:44Z,99422.84,NULL,Flexibilität,kubadilika,d,NA,NA,NA,NA,NA,NA,0,NA,NA,NA,NA,NA,NA,NA,NA,NA,NA,NA,NA,NA,NA,NA,NA,NA,NA,NA
68755,"""Richtig""-Screen",canvas.Screen,3_0_0_0_3_0_1,NA,NA,skipped,NA,99418,NA,NA,99408,99418,2024-06-23T15:08:44Z,99422.84,NULL,Flexibilität,kubadilika,d,NA,NA,NA,NA,sdf,NA,0,NA,NA,NA,NA,NA,NA,NA,NA,NA,NA,NA,NA,NA,NA,NA,NA,NA,NA,NA
68755,"""Falsch""-Screen",canvas.Screen,3_0_0_0_3_0_2,NA,NA,timeout,5004.24,99423,99404.54,99422.84,104410.38,104412,2024-06-23T15:08:49Z,104427.08,NULL,Flexibilität,kubadilika,d,NA,NA,NA,NA,sdf,0,0,NA,NA,NA,NA,NA,NA,NA,NA,NA,NA,NA,NA,NA,NA,NA,NA,NA,NA,NA
68755,deep,flow.Sequence,3_0_0_0_3_0,NA,NA,completion,23986.5,80411,80407.24,80423.88,104410.38,104413,2024-06-23T15:08:49Z,104427.08,NULL,Flexibilität,kubadilika,d,NA,NA,NA,NA,sdf,NA,0,NA,NA,NA,NA,NA,NA,NA,NA,NA,NA,NA,NA,NA,NA,NA,NA,NA,NA,NA
68755,shallow,flow.Sequence,3_0_0_0_3_1,NA,NA,skipped,NA,104413,NA,NA,104410.38,104413,2024-06-23T15:08:49Z,104427.08,NULL,Flexibilität,kubadilika,d,NA,NA,NA,NA,sdf,NA,0,NA,NA,NA,NA,NA,NA,NA,NA,NA,NA,NA,NA,NA,NA,NA,NA,NA,NA,NA
68755,task,flow.Sequence,3_0_0_0_3,NA,NA,completion,23986.5,80411,80407.24,80423.88,104410.38,104414,2024-06-23T15:08:49Z,104427.08,NULL,Flexibilität,kubadilika,d,NA,NA,NA,NA,sdf,NA,0,NA,NA,NA,NA,NA,NA,NA,NA,NA,NA,NA,NA,NA,NA,NA,NA,NA,NA,NA
68755,deep,flow.Sequence,3_0_0_0_4_0,NA,NA,skipped,NA,104414,NA,NA,104410.38,104414,2024-06-23T15:08:49Z,104427.08,NULL,Erneuerung,ukarabati,s,ushawishi,ukalifu,unyonyaji,NA,sdf,NA,0,NA,NA,NA,NA,NA,NA,NA,NA,NA,NA,NA,NA,NA,NA,NA,NA,NA,NA,NA
68755,Shallow Question,html.Page,3_0_0_0_4_1_0,NA,NA,form submission,5052.92,104414,104410.38,104427.08,109480,109480,2024-06-23T15:08:54Z,109481.18,NULL,Erneuerung,ukarabati,s,ushawishi,ukalifu,unyonyaji,ukalifu,NA,NA,0,NA,NA,NA,NA,NA,NA,NA,NA,NA,NA,NA,NA,NA,NA,NA,NA,NA,NA,NA
68755,"""Richtig""-Screen",canvas.Screen,3_0_0_0_4_1_1,NA,NA,skipped,NA,109482,NA,NA,109480,109482,2024-06-23T15:08:54Z,109481.18,NULL,Erneuerung,ukarabati,s,ushawishi,ukalifu,unyonyaji,NA,sdf,NA,0,NA,NA,NA,NA,NA,NA,NA,NA,NA,NA,NA,NA,NA,NA,NA,NA,NA,NA,NA
68755,"""Falsch""-Screen",canvas.Screen,3_0_0_0_4_1_2,NA,NA,timeout,5004.26,109483,109477.56,109481.18,114468.74,114470,2024-06-23T15:08:59Z,114485.44,NULL,Erneuerung,ukarabati,s,ushawishi,ukalifu,unyonyaji,NA,sdf,0,0,NA,NA,NA,NA,NA,NA,NA,NA,NA,NA,NA,NA,NA,NA,NA,NA,NA,NA,NA
68755,shallow,flow.Sequence,3_0_0_0_4_1,NA,NA,completion,10041.66,104414,104410.38,104427.08,114468.74,114470,2024-06-23T15:08:59Z,114485.44,NULL,Erneuerung,ukarabati,s,ushawishi,ukalifu,unyonyaji,NA,sdf,NA,0,NA,NA,NA,NA,NA,NA,NA,NA,NA,NA,NA,NA,NA,NA,NA,NA,NA,NA,NA
68755,task,flow.Sequence,3_0_0_0_4,NA,NA,completion,10041.66,104414,104410.38,104427.08,114468.74,114470,2024-06-23T15:08:59Z,114485.44,NULL,Erneuerung,ukarabati,s,ushawishi,ukalifu,unyonyaji,NA,sdf,NA,0,NA,NA,NA,NA,NA,NA,NA,NA,NA,NA,NA,NA,NA,NA,NA,NA,NA,NA,NA
68755,Deep Question,html.Page,3_0_0_0_5_0_0,NA,NA,form submission,3431.56,114470,114468.74,114485.44,117917,117918,2024-06-23T15:09:03Z,117938.16,NULL,Schock,mshtuko,d,NA,NA,NA,NA,NA,NA,0,NA,NA,NA,NA,NA,NA,NA,NA,NA,NA,NA,NA,NA,NA,NA,NA,NA,NA,NA
68755,"""Richtig""-Screen",canvas.Screen,3_0_0_0_5_0_1,NA,NA,skipped,NA,117919,NA,NA,117917,117919,2024-06-23T15:09:03Z,117938.16,NULL,Schock,mshtuko,d,NA,NA,NA,NA,sdf,NA,0,NA,NA,NA,NA,NA,NA,NA,NA,NA,NA,NA,NA,NA,NA,NA,NA,NA,NA,NA
68755,"""Falsch""-Screen",canvas.Screen,3_0_0_0_5_0_2,NA,NA,timeout,5004.16,117920,117921.46,117938.16,122925.64,122927,2024-06-23T15:09:08Z,122942.32,NULL,Schock,mshtuko,d,NA,NA,NA,NA,sdf,0,0,NA,NA,NA,NA,NA,NA,NA,NA,NA,NA,NA,NA,NA,NA,NA,NA,NA,NA,NA
68755,deep,flow.Sequence,3_0_0_0_5_0,NA,NA,completion,8440.2,114470,114468.74,114485.44,122925.64,122927,2024-06-23T15:09:08Z,122942.32,NULL,Schock,mshtuko,d,NA,NA,NA,NA,sdf,NA,0,NA,NA,NA,NA,NA,NA,NA,NA,NA,NA,NA,NA,NA,NA,NA,NA,NA,NA,NA
68755,shallow,flow.Sequence,3_0_0_0_5_1,NA,NA,skipped,NA,122927,NA,NA,122925.64,122928,2024-06-23T15:09:08Z,122942.32,NULL,Schock,mshtuko,d,NA,NA,NA,NA,sdf,NA,0,NA,NA,NA,NA,NA,NA,NA,NA,NA,NA,NA,NA,NA,NA,NA,NA,NA,NA,NA
68755,task,flow.Sequence,3_0_0_0_5,NA,NA,completion,8440.2,114470,114468.74,114485.44,122925.64,122928,2024-06-23T15:09:08Z,122942.32,NULL,Schock,mshtuko,d,NA,NA,NA,NA,sdf,NA,0,NA,NA,NA,NA,NA,NA,NA,NA,NA,NA,NA,NA,NA,NA,NA,NA,NA,NA,NA
68755,deep,flow.Sequence,3_0_0_0_6_0,NA,NA,skipped,NA,122928,NA,NA,122925.64,122928,2024-06-23T15:09:08Z,122942.32,NULL,Wechsel,ugeuzaji,s,utambulisho,kujenga,wasiwasi,NA,sdf,NA,0,NA,NA,NA,NA,NA,NA,NA,NA,NA,NA,NA,NA,NA,NA,NA,NA,NA,NA,NA
68755,Shallow Question,html.Page,3_0_0_0_6_1_0,NA,NA,form submission,7800.68,122928,122925.64,122942.32,130743,130743,2024-06-23T15:09:16Z,130748.76,NULL,Wechsel,ugeuzaji,s,utambulisho,kujenga,wasiwasi,kujenga,NA,NA,0,NA,NA,NA,NA,NA,NA,NA,NA,NA,NA,NA,NA,NA,NA,NA,NA,NA,NA,NA
68755,"""Richtig""-Screen",canvas.Screen,3_0_0_0_6_1_1,NA,NA,skipped,NA,130744,NA,NA,130743,130744,2024-06-23T15:09:16Z,130748.76,NULL,Wechsel,ugeuzaji,s,utambulisho,kujenga,wasiwasi,NA,sdf,NA,0,NA,NA,NA,NA,NA,NA,NA,NA,NA,NA,NA,NA,NA,NA,NA,NA,NA,NA,NA
68755,"""Falsch""-Screen",canvas.Screen,3_0_0_0_6_1_2,NA,NA,timeout,5004.16,130745,130740.12,130748.76,135736.36,135737,2024-06-23T15:09:21Z,135752.92,NULL,Wechsel,ugeuzaji,s,utambulisho,kujenga,wasiwasi,NA,sdf,0,0,NA,NA,NA,NA,NA,NA,NA,NA,NA,NA,NA,NA,NA,NA,NA,NA,NA,NA,NA
68755,shallow,flow.Sequence,3_0_0_0_6_1,NA,NA,completion,12794.04,122928,122925.64,122942.32,135736.36,135737,2024-06-23T15:09:21Z,135752.92,NULL,Wechsel,ugeuzaji,s,utambulisho,kujenga,wasiwasi,NA,sdf,NA,0,NA,NA,NA,NA,NA,NA,NA,NA,NA,NA,NA,NA,NA,NA,NA,NA,NA,NA,NA
68755,task,flow.Sequence,3_0_0_0_6,NA,NA,completion,12794.04,122928,122925.64,122942.32,135736.36,135737,2024-06-23T15:09:21Z,135752.92,NULL,Wechsel,ugeuzaji,s,utambulisho,kujenga,wasiwasi,NA,sdf,NA,0,NA,NA,NA,NA,NA,NA,NA,NA,NA,NA,NA,NA,NA,NA,NA,NA,NA,NA,NA
68755,Deep Question,html.Page,3_0_0_0_7_0_0,NA,NA,form submission,4381.08,135737,135736.36,135752.92,140134,140135,2024-06-23T15:09:25Z,140139.92,NULL,Theorie,nadharia,d,NA,NA,NA,NA,NA,NA,0,NA,NA,NA,NA,NA,NA,NA,NA,NA,NA,NA,NA,NA,NA,NA,NA,NA,NA,NA
68755,"""Richtig""-Screen",canvas.Screen,3_0_0_0_7_0_1,NA,NA,skipped,NA,140140,NA,NA,140134,140140,2024-06-23T15:09:25Z,140139.92,NULL,Theorie,nadharia,d,NA,NA,NA,NA,sdf,NA,0,NA,NA,NA,NA,NA,NA,NA,NA,NA,NA,NA,NA,NA,NA,NA,NA,NA,NA,NA
68755,"""Falsch""-Screen",canvas.Screen,3_0_0_0_7_0_2,NA,NA,timeout,5004.02,140143,140130.54,140139.92,145127.24,145129,2024-06-23T15:09:30Z,145143.94,NULL,Theorie,nadharia,d,NA,NA,NA,NA,sdf,0,0,NA,NA,NA,NA,NA,NA,NA,NA,NA,NA,NA,NA,NA,NA,NA,NA,NA,NA,NA
68755,deep,flow.Sequence,3_0_0_0_7_0,NA,NA,completion,9374.32,135737,135736.36,135752.92,145127.24,145130,2024-06-23T15:09:30Z,145143.94,NULL,Theorie,nadharia,d,NA,NA,NA,NA,sdf,NA,0,NA,NA,NA,NA,NA,NA,NA,NA,NA,NA,NA,NA,NA,NA,NA,NA,NA,NA,NA
68755,shallow,flow.Sequence,3_0_0_0_7_1,NA,NA,skipped,NA,145130,NA,NA,145127.24,145130,2024-06-23T15:09:30Z,145143.94,NULL,Theorie,nadharia,d,NA,NA,NA,NA,sdf,NA,0,NA,NA,NA,NA,NA,NA,NA,NA,NA,NA,NA,NA,NA,NA,NA,NA,NA,NA,NA
68755,task,flow.Sequence,3_0_0_0_7,NA,NA,completion,9374.32,135737,135736.36,135752.92,145127.24,145131,2024-06-23T15:09:30Z,145143.94,NULL,Theorie,nadharia,d,NA,NA,NA,NA,sdf,NA,0,NA,NA,NA,NA,NA,NA,NA,NA,NA,NA,NA,NA,NA,NA,NA,NA,NA,NA,NA
68755,block,flow.Loop,3_0_0_0,NA,NA,completion,92149.68,52977,52976.9,52977.56,145127.24,145132,2024-06-23T15:09:30Z,145143.94,NULL,NA,NA,NA,NA,NA,NA,NA,sdf,NA,0,NA,NA,NA,NA,NA,NA,NA,NA,NA,NA,NA,NA,NA,NA,NA,NA,NA,NA,NA
68755,weiter,canvas.Screen,3_0_0_1,sdf,keypress(Space),response,6105.06,145133,145127.24,145143.94,151249,151255,2024-06-23T15:09:36Z,151309.34,NULL,NA,NA,NA,NA,NA,NA,NA,sdf,NA,0,NA,NA,NA,NA,NA,NA,NA,NA,NA,NA,NA,NA,NA,NA,NA,NA,NA,NA,NA
68755,check continue,flow.Sequence,3_0_0,NA,NA,completion,98271.44,52977,52976.9,52977.56,151249,151256,2024-06-23T15:09:36Z,151309.34,NULL,NA,NA,NA,NA,NA,NA,NA,sdf,NA,0,NA,NA,NA,NA,NA,NA,NA,NA,NA,NA,NA,NA,NA,NA,NA,NA,NA,NA,NA
68755,Deep Question,html.Page,3_0_1_0_0_0_0,NA,NA,form submission,6689.66,151309,151308.8,151309.34,157999,158000,2024-06-23T15:09:43Z,158004.6,NULL,Atmosphäre,angahewa,d,NA,NA,NA,angahewa,NA,NA,1,NA,NA,NA,NA,NA,NA,NA,NA,NA,NA,NA,NA,NA,NA,NA,NA,NA,NA,NA
68755,"""Richtig""-Screen",canvas.Screen,3_0_1_0_0_0_1,NA,NA,timeout,5004.26,158000,157995.78,158004.6,162992.16,162994,2024-06-23T15:09:48Z,163008.86,NULL,Atmosphäre,angahewa,d,NA,NA,NA,NA,sdfdsf,1,1,NA,NA,NA,NA,NA,NA,NA,NA,NA,NA,NA,NA,NA,NA,NA,NA,NA,NA,NA
68755,"""Falsch""-Screen",canvas.Screen,3_0_1_0_0_0_2,NA,NA,skipped,NA,162996,NA,NA,162992.16,162996,2024-06-23T15:09:48Z,163008.86,NULL,Atmosphäre,angahewa,d,NA,NA,NA,NA,sdfdsf,NA,1,NA,NA,NA,NA,NA,NA,NA,NA,NA,NA,NA,NA,NA,NA,NA,NA,NA,NA,NA
68755,deep,flow.Sequence,3_0_1_0_0_0,NA,NA,completion,11682.82,151309,151308.8,151309.34,162992.16,162996,2024-06-23T15:09:48Z,163008.86,NULL,Atmosphäre,angahewa,d,NA,NA,NA,NA,sdfdsf,NA,1,NA,NA,NA,NA,NA,NA,NA,NA,NA,NA,NA,NA,NA,NA,NA,NA,NA,NA,NA
68755,shallow,flow.Sequence,3_0_1_0_0_1,NA,NA,skipped,NA,162996,NA,NA,162992.16,162997,2024-06-23T15:09:48Z,163008.86,NULL,Atmosphäre,angahewa,d,NA,NA,NA,NA,sdfdsf,NA,1,NA,NA,NA,NA,NA,NA,NA,NA,NA,NA,NA,NA,NA,NA,NA,NA,NA,NA,NA
68755,task,flow.Sequence,3_0_1_0_0,NA,NA,completion,11682.82,151309,151308.8,151309.34,162992.16,162997,2024-06-23T15:09:48Z,163008.86,NULL,Atmosphäre,angahewa,d,NA,NA,NA,NA,sdfdsf,NA,1,NA,NA,NA,NA,NA,NA,NA,NA,NA,NA,NA,NA,NA,NA,NA,NA,NA,NA,NA
68755,deep,flow.Sequence,3_0_1_0_1_0,NA,NA,skipped,NA,162997,NA,NA,162992.16,162997,2024-06-23T15:09:48Z,163008.86,NULL,Wechsel,ugeuzaji,s,utambulisho,kujenga,wasiwasi,NA,sdfdsf,NA,1,NA,NA,NA,NA,NA,NA,NA,NA,NA,NA,NA,NA,NA,NA,NA,NA,NA,NA,NA
68755,Shallow Question,html.Page,3_0_1_0_1_1_0,NA,NA,form submission,5249.14,162997,162992.16,163008.86,168258,168258,2024-06-23T15:09:53Z,168263.08,NULL,Wechsel,ugeuzaji,s,utambulisho,kujenga,wasiwasi,ugeuzaji,NA,NA,1,NA,NA,NA,NA,NA,NA,NA,NA,NA,NA,NA,NA,NA,NA,NA,NA,NA,NA,NA
68755,"""Richtig""-Screen",canvas.Screen,3_0_1_0_1_1_1,NA,NA,timeout,5004.28,168260,168255.2,168263.08,173250.66,173252,2024-06-23T15:09:58Z,173267.36,NULL,Wechsel,ugeuzaji,s,utambulisho,kujenga,wasiwasi,NA,sdfdsf,1,1,NA,NA,NA,NA,NA,NA,NA,NA,NA,NA,NA,NA,NA,NA,NA,NA,NA,NA,NA
68755,"""Falsch""-Screen",canvas.Screen,3_0_1_0_1_1_2,NA,NA,skipped,NA,173255,NA,NA,173250.66,173255,2024-06-23T15:09:58Z,173267.36,NULL,Wechsel,ugeuzaji,s,utambulisho,kujenga,wasiwasi,NA,sdfdsf,NA,1,NA,NA,NA,NA,NA,NA,NA,NA,NA,NA,NA,NA,NA,NA,NA,NA,NA,NA,NA
68755,shallow,flow.Sequence,3_0_1_0_1_1,NA,NA,completion,10241.8,162997,162992.16,163008.86,173250.66,173256,2024-06-23T15:09:58Z,173267.36,NULL,Wechsel,ugeuzaji,s,utambulisho,kujenga,wasiwasi,NA,sdfdsf,NA,1,NA,NA,NA,NA,NA,NA,NA,NA,NA,NA,NA,NA,NA,NA,NA,NA,NA,NA,NA
68755,task,flow.Sequence,3_0_1_0_1,NA,NA,completion,10241.8,162997,162992.16,163008.86,173250.66,173256,2024-06-23T15:09:58Z,173267.36,NULL,Wechsel,ugeuzaji,s,utambulisho,kujenga,wasiwasi,NA,sdfdsf,NA,1,NA,NA,NA,NA,NA,NA,NA,NA,NA,NA,NA,NA,NA,NA,NA,NA,NA,NA,NA
68755,deep,flow.Sequence,3_0_1_0_2_0,NA,NA,skipped,NA,173256,NA,NA,173250.66,173256,2024-06-23T15:09:58Z,173267.36,NULL,Erneuerung,ukarabati,s,ushawishi,ukalifu,unyonyaji,NA,sdfdsf,NA,1,NA,NA,NA,NA,NA,NA,NA,NA,NA,NA,NA,NA,NA,NA,NA,NA,NA,NA,NA
68755,Shallow Question,html.Page,3_0_1_0_2_1_0,NA,NA,form submission,5362.64,173256,173250.66,173267.36,178630,178630,2024-06-23T15:10:04Z,178638.32,NULL,Erneuerung,ukarabati,s,ushawishi,ukalifu,unyonyaji,ukarabati,NA,NA,1,NA,NA,NA,NA,NA,NA,NA,NA,NA,NA,NA,NA,NA,NA,NA,NA,NA,NA,NA
68755,"""Richtig""-Screen",canvas.Screen,3_0_1_0_2_1_1,NA,NA,timeout,5004.36,178631,178627.42,178638.32,183625.98,183627,2024-06-23T15:10:09Z,183642.68,NULL,Erneuerung,ukarabati,s,ushawishi,ukalifu,unyonyaji,NA,sdfdsf,1,1,NA,NA,NA,NA,NA,NA,NA,NA,NA,NA,NA,NA,NA,NA,NA,NA,NA,NA,NA
68755,"""Falsch""-Screen",canvas.Screen,3_0_1_0_2_1_2,NA,NA,skipped,NA,183629,NA,NA,183625.98,183629,2024-06-23T15:10:09Z,183642.68,NULL,Erneuerung,ukarabati,s,ushawishi,ukalifu,unyonyaji,NA,sdfdsf,NA,1,NA,NA,NA,NA,NA,NA,NA,NA,NA,NA,NA,NA,NA,NA,NA,NA,NA,NA,NA
68755,shallow,flow.Sequence,3_0_1_0_2_1,NA,NA,completion,10358.62,173256,173250.66,173267.36,183625.98,183629,2024-06-23T15:10:09Z,183642.68,NULL,Erneuerung,ukarabati,s,ushawishi,ukalifu,unyonyaji,NA,sdfdsf,NA,1,NA,NA,NA,NA,NA,NA,NA,NA,NA,NA,NA,NA,NA,NA,NA,NA,NA,NA,NA
68755,task,flow.Sequence,3_0_1_0_2,NA,NA,completion,10358.62,173256,173250.66,173267.36,183625.98,183629,2024-06-23T15:10:09Z,183642.68,NULL,Erneuerung,ukarabati,s,ushawishi,ukalifu,unyonyaji,NA,sdfdsf,NA,1,NA,NA,NA,NA,NA,NA,NA,NA,NA,NA,NA,NA,NA,NA,NA,NA,NA,NA,NA
68755,deep,flow.Sequence,3_0_1_0_3_0,NA,NA,skipped,NA,183629,NA,NA,183625.98,183629,2024-06-23T15:10:09Z,183642.68,NULL,Verpackung,ufungaji,s,uhusiano,upimaji,uchunguzi,NA,sdfdsf,NA,1,NA,NA,NA,NA,NA,NA,NA,NA,NA,NA,NA,NA,NA,NA,NA,NA,NA,NA,NA
68755,Shallow Question,html.Page,3_0_1_0_3_1_0,NA,NA,form submission,8487.32,183630,183625.98,183642.68,192130,192131,2024-06-23T15:10:17Z,192133,NULL,Verpackung,ufungaji,s,uhusiano,upimaji,uchunguzi,ufungaji,NA,NA,1,NA,NA,NA,NA,NA,NA,NA,NA,NA,NA,NA,NA,NA,NA,NA,NA,NA,NA,NA
68755,"""Richtig""-Screen",canvas.Screen,3_0_1_0_3_1_1,NA,NA,timeout,5004.14,192132,192128.04,192133,197120.44,197122,2024-06-23T15:10:22Z,197137.14,NULL,Verpackung,ufungaji,s,uhusiano,upimaji,uchunguzi,NA,sdfdsf,1,1,NA,NA,NA,NA,NA,NA,NA,NA,NA,NA,NA,NA,NA,NA,NA,NA,NA,NA,NA
68755,"""Falsch""-Screen",canvas.Screen,3_0_1_0_3_1_2,NA,NA,skipped,NA,197124,NA,NA,197120.44,197124,2024-06-23T15:10:22Z,197137.14,NULL,Verpackung,ufungaji,s,uhusiano,upimaji,uchunguzi,NA,sdfdsf,NA,1,NA,NA,NA,NA,NA,NA,NA,NA,NA,NA,NA,NA,NA,NA,NA,NA,NA,NA,NA
68755,shallow,flow.Sequence,3_0_1_0_3_1,NA,NA,completion,13477.76,183629,183625.98,183642.68,197120.44,197124,2024-06-23T15:10:22Z,197137.14,NULL,Verpackung,ufungaji,s,uhusiano,upimaji,uchunguzi,NA,sdfdsf,NA,1,NA,NA,NA,NA,NA,NA,NA,NA,NA,NA,NA,NA,NA,NA,NA,NA,NA,NA,NA
68755,task,flow.Sequence,3_0_1_0_3,NA,NA,completion,13477.76,183629,183625.98,183642.68,197120.44,197124,2024-06-23T15:10:22Z,197137.14,NULL,Verpackung,ufungaji,s,uhusiano,upimaji,uchunguzi,NA,sdfdsf,NA,1,NA,NA,NA,NA,NA,NA,NA,NA,NA,NA,NA,NA,NA,NA,NA,NA,NA,NA,NA
68755,Deep Question,html.Page,3_0_1_0_4_0_0,NA,NA,form submission,3911.86,197124,197120.44,197137.14,201049,201049,2024-06-23T15:10:26Z,201056.94,NULL,Theorie,nadharia,d,NA,NA,NA,NA,NA,NA,1,NA,NA,NA,NA,NA,NA,NA,NA,NA,NA,NA,NA,NA,NA,NA,NA,NA,NA,NA
68755,"""Richtig""-Screen",canvas.Screen,3_0_1_0_4_0_1,NA,NA,skipped,NA,201050,NA,NA,201049,201050,2024-06-23T15:10:26Z,201056.94,NULL,Theorie,nadharia,d,NA,NA,NA,NA,sdfdsf,NA,1,NA,NA,NA,NA,NA,NA,NA,NA,NA,NA,NA,NA,NA,NA,NA,NA,NA,NA,NA
68755,"""Falsch""-Screen",canvas.Screen,3_0_1_0_4_0_2,NA,NA,timeout,5004.14,201051,201045.78,201056.94,206044.38,206045,2024-06-23T15:10:31Z,206061.08,NULL,Theorie,nadharia,d,NA,NA,NA,NA,sdfdsf,0,1,NA,NA,NA,NA,NA,NA,NA,NA,NA,NA,NA,NA,NA,NA,NA,NA,NA,NA,NA
68755,deep,flow.Sequence,3_0_1_0_4_0,NA,NA,completion,8907.24,197124,197120.44,197137.14,206044.38,206046,2024-06-23T15:10:31Z,206061.08,NULL,Theorie,nadharia,d,NA,NA,NA,NA,sdfdsf,NA,1,NA,NA,NA,NA,NA,NA,NA,NA,NA,NA,NA,NA,NA,NA,NA,NA,NA,NA,NA
68755,shallow,flow.Sequence,3_0_1_0_4_1,NA,NA,skipped,NA,206046,NA,NA,206044.38,206047,2024-06-23T15:10:31Z,206061.08,NULL,Theorie,nadharia,d,NA,NA,NA,NA,sdfdsf,NA,1,NA,NA,NA,NA,NA,NA,NA,NA,NA,NA,NA,NA,NA,NA,NA,NA,NA,NA,NA
68755,task,flow.Sequence,3_0_1_0_4,NA,NA,completion,8907.24,197124,197120.44,197137.14,206044.38,206047,2024-06-23T15:10:31Z,206061.08,NULL,Theorie,nadharia,d,NA,NA,NA,NA,sdfdsf,NA,1,NA,NA,NA,NA,NA,NA,NA,NA,NA,NA,NA,NA,NA,NA,NA,NA,NA,NA,NA
68755,Deep Question,html.Page,3_0_1_0_5_0_0,NA,NA,form submission,3708.92,206047,206044.38,206061.08,209770,209770,2024-06-23T15:10:35Z,209780.72,NULL,Schock,mshtuko,d,NA,NA,NA,NA,NA,NA,1,NA,NA,NA,NA,NA,NA,NA,NA,NA,NA,NA,NA,NA,NA,NA,NA,NA,NA,NA
68755,"""Richtig""-Screen",canvas.Screen,3_0_1_0_5_0_1,NA,NA,skipped,NA,209772,NA,NA,209770,209772,2024-06-23T15:10:35Z,209780.72,NULL,Schock,mshtuko,d,NA,NA,NA,NA,sdfdsf,NA,1,NA,NA,NA,NA,NA,NA,NA,NA,NA,NA,NA,NA,NA,NA,NA,NA,NA,NA,NA
68755,"""Falsch""-Screen",canvas.Screen,3_0_1_0_5_0_2,NA,NA,timeout,5004.22,209773,209767.3,209780.72,214768.24,214770,2024-06-23T15:10:40Z,214784.94,NULL,Schock,mshtuko,d,NA,NA,NA,NA,sdfdsf,0,1,NA,NA,NA,NA,NA,NA,NA,NA,NA,NA,NA,NA,NA,NA,NA,NA,NA,NA,NA
68755,deep,flow.Sequence,3_0_1_0_5_0,NA,NA,completion,8707.16,206047,206044.38,206061.08,214768.24,214770,2024-06-23T15:10:40Z,214784.94,NULL,Schock,mshtuko,d,NA,NA,NA,NA,sdfdsf,NA,1,NA,NA,NA,NA,NA,NA,NA,NA,NA,NA,NA,NA,NA,NA,NA,NA,NA,NA,NA
68755,shallow,flow.Sequence,3_0_1_0_5_1,NA,NA,skipped,NA,214770,NA,NA,214768.24,214770,2024-06-23T15:10:40Z,214784.94,NULL,Schock,mshtuko,d,NA,NA,NA,NA,sdfdsf,NA,1,NA,NA,NA,NA,NA,NA,NA,NA,NA,NA,NA,NA,NA,NA,NA,NA,NA,NA,NA
68755,task,flow.Sequence,3_0_1_0_5,NA,NA,completion,8707.16,206047,206044.38,206061.08,214768.24,214770,2024-06-23T15:10:40Z,214784.94,NULL,Schock,mshtuko,d,NA,NA,NA,NA,sdfdsf,NA,1,NA,NA,NA,NA,NA,NA,NA,NA,NA,NA,NA,NA,NA,NA,NA,NA,NA,NA,NA
68755,Deep Question,html.Page,3_0_1_0_6_0_0,NA,NA,form submission,2637.06,214770,214768.24,214784.94,217422,217423,2024-06-23T15:10:42Z,217420.38,NULL,Flexibilität,kubadilika,d,NA,NA,NA,NA,NA,NA,1,NA,NA,NA,NA,NA,NA,NA,NA,NA,NA,NA,NA,NA,NA,NA,NA,NA,NA,NA
68755,"""Richtig""-Screen",canvas.Screen,3_0_1_0_6_0_1,NA,NA,skipped,NA,217424,NA,NA,217422,217425,2024-06-23T15:10:42Z,217420.38,NULL,Flexibilität,kubadilika,d,NA,NA,NA,NA,sdfdsf,NA,1,NA,NA,NA,NA,NA,NA,NA,NA,NA,NA,NA,NA,NA,NA,NA,NA,NA,NA,NA
68755,"""Falsch""-Screen",canvas.Screen,3_0_1_0_6_0_2,NA,NA,timeout,5004.36,217427,217419.14,217420.38,222408.04,222412,2024-06-23T15:10:47Z,222424.74,NULL,Flexibilität,kubadilika,d,NA,NA,NA,NA,sdfdsf,0,1,NA,NA,NA,NA,NA,NA,NA,NA,NA,NA,NA,NA,NA,NA,NA,NA,NA,NA,NA
68755,deep,flow.Sequence,3_0_1_0_6_0,NA,NA,completion,7623.1,214770,214768.24,214784.94,222408.04,222413,2024-06-23T15:10:47Z,222424.74,NULL,Flexibilität,kubadilika,d,NA,NA,NA,NA,sdfdsf,NA,1,NA,NA,NA,NA,NA,NA,NA,NA,NA,NA,NA,NA,NA,NA,NA,NA,NA,NA,NA
68755,shallow,flow.Sequence,3_0_1_0_6_1,NA,NA,skipped,NA,222413,NA,NA,222408.04,222413,2024-06-23T15:10:47Z,222424.74,NULL,Flexibilität,kubadilika,d,NA,NA,NA,NA,sdfdsf,NA,1,NA,NA,NA,NA,NA,NA,NA,NA,NA,NA,NA,NA,NA,NA,NA,NA,NA,NA,NA
68755,task,flow.Sequence,3_0_1_0_6,NA,NA,completion,7623.1,214770,214768.24,214784.94,222408.04,222413,2024-06-23T15:10:47Z,222424.74,NULL,Flexibilität,kubadilika,d,NA,NA,NA,NA,sdfdsf,NA,1,NA,NA,NA,NA,NA,NA,NA,NA,NA,NA,NA,NA,NA,NA,NA,NA,NA,NA,NA
68755,deep,flow.Sequence,3_0_1_0_7_0,NA,NA,skipped,NA,222414,NA,NA,222408.04,222414,2024-06-23T15:10:47Z,222424.74,NULL,Hoffnung,matarajio,s,kutaalamika,uratibu,mvumbuzi,NA,sdfdsf,NA,1,NA,NA,NA,NA,NA,NA,NA,NA,NA,NA,NA,NA,NA,NA,NA,NA,NA,NA,NA
68755,Shallow Question,html.Page,3_0_1_0_7_1_0,NA,NA,form submission,4929.26,222414,222408.04,222424.74,227354,227354,2024-06-23T15:10:52Z,227361.98,NULL,Hoffnung,matarajio,s,kutaalamika,uratibu,mvumbuzi,uratibu,NA,NA,1,NA,NA,NA,NA,NA,NA,NA,NA,NA,NA,NA,NA,NA,NA,NA,NA,NA,NA,NA
68755,"""Richtig""-Screen",canvas.Screen,3_0_1_0_7_1_1,NA,NA,skipped,NA,227359,NA,NA,227354,227359,2024-06-23T15:10:52Z,227361.98,NULL,Hoffnung,matarajio,s,kutaalamika,uratibu,mvumbuzi,NA,sdfdsf,NA,1,NA,NA,NA,NA,NA,NA,NA,NA,NA,NA,NA,NA,NA,NA,NA,NA,NA,NA,NA
68755,"""Falsch""-Screen",canvas.Screen,3_0_1_0_7_1_2,NA,NA,timeout,5004.48,227361,227349.46,227361.98,232349.78,232351,2024-06-23T15:10:57Z,232366.46,NULL,Hoffnung,matarajio,s,kutaalamika,uratibu,mvumbuzi,NA,sdfdsf,0,1,NA,NA,NA,NA,NA,NA,NA,NA,NA,NA,NA,NA,NA,NA,NA,NA,NA,NA,NA
68755,shallow,flow.Sequence,3_0_1_0_7_1,NA,NA,completion,9925.04,222414,222408.04,222424.74,232349.78,232351,2024-06-23T15:10:57Z,232366.46,NULL,Hoffnung,matarajio,s,kutaalamika,uratibu,mvumbuzi,NA,sdfdsf,NA,1,NA,NA,NA,NA,NA,NA,NA,NA,NA,NA,NA,NA,NA,NA,NA,NA,NA,NA,NA
68755,task,flow.Sequence,3_0_1_0_7,NA,NA,completion,9925.04,222414,222408.04,222424.74,232349.78,232352,2024-06-23T15:10:57Z,232366.46,NULL,Hoffnung,matarajio,s,kutaalamika,uratibu,mvumbuzi,NA,sdfdsf,NA,1,NA,NA,NA,NA,NA,NA,NA,NA,NA,NA,NA,NA,NA,NA,NA,NA,NA,NA,NA
68755,block,flow.Loop,3_0_1_0,NA,NA,completion,81040.44,151309,151308.8,151309.34,232349.78,232352,2024-06-23T15:10:57Z,232366.46,NULL,NA,NA,NA,NA,NA,NA,NA,sdfdsf,NA,1,NA,NA,NA,NA,NA,NA,NA,NA,NA,NA,NA,NA,NA,NA,NA,NA,NA,NA,NA
68755,weiter,canvas.Screen,3_0_1_1,sdf,keypress(Space),response,1257.54,232353,232349.78,232366.46,233624,233633,2024-06-23T15:10:59Z,233660.9,NULL,NA,NA,NA,NA,NA,NA,NA,sdfdsf,NA,1,NA,NA,NA,NA,NA,NA,NA,NA,NA,NA,NA,NA,NA,NA,NA,NA,NA,NA,NA
68755,check continue,flow.Sequence,3_0_1,NA,NA,completion,82314.66,151309,151308.8,151309.34,233624,233633,2024-06-23T15:10:59Z,233660.9,NULL,NA,NA,NA,NA,NA,NA,NA,sdfdsf,NA,1,NA,NA,NA,NA,NA,NA,NA,NA,NA,NA,NA,NA,NA,NA,NA,NA,NA,NA,NA
68755,deep,flow.Sequence,3_0_2_0_0_0,NA,NA,skipped,NA,233661,NA,NA,233624,233661,2024-06-23T15:10:59Z,233660.9,NULL,Wechsel,ugeuzaji,s,utambulisho,kujenga,wasiwasi,NA,sdf,NA,2,NA,NA,NA,NA,NA,NA,NA,NA,NA,NA,NA,NA,NA,NA,NA,NA,NA,NA,NA
68755,Shallow Question,html.Page,3_0_2_0_0_1_0,NA,NA,form submission,3530.1,233661,233660.7,233660.9,237191,237192,2024-06-23T15:11:02Z,237203.52,NULL,Wechsel,ugeuzaji,s,utambulisho,kujenga,wasiwasi,ugeuzaji,NA,NA,2,NA,NA,NA,NA,NA,NA,NA,NA,NA,NA,NA,NA,NA,NA,NA,NA,NA,NA,NA
68755,"""Richtig""-Screen",canvas.Screen,3_0_2_0_0_1_1,NA,NA,timeout,5004.28,237193,237188.78,237203.52,242191.1,242192,2024-06-23T15:11:07Z,242207.8,NULL,Wechsel,ugeuzaji,s,utambulisho,kujenga,wasiwasi,NA,sdf,1,2,NA,NA,NA,NA,NA,NA,NA,NA,NA,NA,NA,NA,NA,NA,NA,NA,NA,NA,NA
68755,"""Falsch""-Screen",canvas.Screen,3_0_2_0_0_1_2,NA,NA,skipped,NA,242194,NA,NA,242191.1,242195,2024-06-23T15:11:07Z,242207.8,NULL,Wechsel,ugeuzaji,s,utambulisho,kujenga,wasiwasi,NA,sdf,NA,2,NA,NA,NA,NA,NA,NA,NA,NA,NA,NA,NA,NA,NA,NA,NA,NA,NA,NA,NA
68755,shallow,flow.Sequence,3_0_2_0_0_1,NA,NA,completion,8530.2,233661,233660.7,233660.9,242191.1,242195,2024-06-23T15:11:07Z,242207.8,NULL,Wechsel,ugeuzaji,s,utambulisho,kujenga,wasiwasi,NA,sdf,NA,2,NA,NA,NA,NA,NA,NA,NA,NA,NA,NA,NA,NA,NA,NA,NA,NA,NA,NA,NA
68755,task,flow.Sequence,3_0_2_0_0,NA,NA,completion,8530.2,233661,233660.7,233660.9,242191.1,242195,2024-06-23T15:11:07Z,242207.8,NULL,Wechsel,ugeuzaji,s,utambulisho,kujenga,wasiwasi,NA,sdf,NA,2,NA,NA,NA,NA,NA,NA,NA,NA,NA,NA,NA,NA,NA,NA,NA,NA,NA,NA,NA
68755,deep,flow.Sequence,3_0_2_0_1_0,NA,NA,skipped,NA,242195,NA,NA,242191.1,242195,2024-06-23T15:11:07Z,242207.8,NULL,Verpackung,ufungaji,s,uhusiano,upimaji,uchunguzi,NA,sdf,NA,2,NA,NA,NA,NA,NA,NA,NA,NA,NA,NA,NA,NA,NA,NA,NA,NA,NA,NA,NA
68755,Shallow Question,html.Page,3_0_2_0_1_1_0,NA,NA,form submission,5918.2,242195,242191.1,242207.8,248126,248126,2024-06-23T15:11:13Z,248129.28,NULL,Verpackung,ufungaji,s,uhusiano,upimaji,uchunguzi,ufungaji,NA,NA,2,NA,NA,NA,NA,NA,NA,NA,NA,NA,NA,NA,NA,NA,NA,NA,NA,NA,NA,NA
68755,"""Richtig""-Screen",canvas.Screen,3_0_2_0_1_1_1,NA,NA,timeout,5004,248127,248123.72,248129.28,253116.58,253118,2024-06-23T15:11:18Z,253133.28,NULL,Verpackung,ufungaji,s,uhusiano,upimaji,uchunguzi,NA,sdf,1,2,NA,NA,NA,NA,NA,NA,NA,NA,NA,NA,NA,NA,NA,NA,NA,NA,NA,NA,NA
68755,"""Falsch""-Screen",canvas.Screen,3_0_2_0_1_1_2,NA,NA,skipped,NA,253122,NA,NA,253116.58,253122,2024-06-23T15:11:18Z,253133.28,NULL,Verpackung,ufungaji,s,uhusiano,upimaji,uchunguzi,NA,sdf,NA,2,NA,NA,NA,NA,NA,NA,NA,NA,NA,NA,NA,NA,NA,NA,NA,NA,NA,NA,NA
68755,shallow,flow.Sequence,3_0_2_0_1_1,NA,NA,completion,10908.78,242195,242191.1,242207.8,253116.58,253122,2024-06-23T15:11:18Z,253133.28,NULL,Verpackung,ufungaji,s,uhusiano,upimaji,uchunguzi,NA,sdf,NA,2,NA,NA,NA,NA,NA,NA,NA,NA,NA,NA,NA,NA,NA,NA,NA,NA,NA,NA,NA
68755,task,flow.Sequence,3_0_2_0_1,NA,NA,completion,10908.78,242195,242191.1,242207.8,253116.58,253122,2024-06-23T15:11:18Z,253133.28,NULL,Verpackung,ufungaji,s,uhusiano,upimaji,uchunguzi,NA,sdf,NA,2,NA,NA,NA,NA,NA,NA,NA,NA,NA,NA,NA,NA,NA,NA,NA,NA,NA,NA,NA
68755,deep,flow.Sequence,3_0_2_0_2_0,NA,NA,skipped,NA,253123,NA,NA,253116.58,253123,2024-06-23T15:11:18Z,253133.28,NULL,Hoffnung,matarajio,s,kutaalamika,uratibu,mvumbuzi,NA,sdf,NA,2,NA,NA,NA,NA,NA,NA,NA,NA,NA,NA,NA,NA,NA,NA,NA,NA,NA,NA,NA
68755,Shallow Question,html.Page,3_0_2_0_2_1_0,NA,NA,form submission,3235.72,253123,253116.58,253133.28,256369,256369,2024-06-23T15:11:21Z,256369.4,NULL,Hoffnung,matarajio,s,kutaalamika,uratibu,mvumbuzi,uratibu,NA,NA,2,NA,NA,NA,NA,NA,NA,NA,NA,NA,NA,NA,NA,NA,NA,NA,NA,NA,NA,NA
68755,"""Richtig""-Screen",canvas.Screen,3_0_2_0_2_1_1,NA,NA,skipped,NA,256370,NA,NA,256369,256370,2024-06-23T15:11:21Z,256369.4,NULL,Hoffnung,matarajio,s,kutaalamika,uratibu,mvumbuzi,NA,sdf,NA,2,NA,NA,NA,NA,NA,NA,NA,NA,NA,NA,NA,NA,NA,NA,NA,NA,NA,NA,NA
68755,"""Falsch""-Screen",canvas.Screen,3_0_2_0_2_1_2,NA,NA,timeout,5004.24,256371,256366.1,256369.4,261356.94,261358,2024-06-23T15:11:26Z,261373.64,NULL,Hoffnung,matarajio,s,kutaalamika,uratibu,mvumbuzi,NA,sdf,0,2,NA,NA,NA,NA,NA,NA,NA,NA,NA,NA,NA,NA,NA,NA,NA,NA,NA,NA,NA
68755,shallow,flow.Sequence,3_0_2_0_2_1,NA,NA,completion,8223.66,253123,253116.58,253133.28,261356.94,261358,2024-06-23T15:11:26Z,261373.64,NULL,Hoffnung,matarajio,s,kutaalamika,uratibu,mvumbuzi,NA,sdf,NA,2,NA,NA,NA,NA,NA,NA,NA,NA,NA,NA,NA,NA,NA,NA,NA,NA,NA,NA,NA
68755,task,flow.Sequence,3_0_2_0_2,NA,NA,completion,8223.66,253123,253116.58,253133.28,261356.94,261358,2024-06-23T15:11:26Z,261373.64,NULL,Hoffnung,matarajio,s,kutaalamika,uratibu,mvumbuzi,NA,sdf,NA,2,NA,NA,NA,NA,NA,NA,NA,NA,NA,NA,NA,NA,NA,NA,NA,NA,NA,NA,NA
68755,Deep Question,html.Page,3_0_2_0_3_0_0,NA,NA,form submission,5113.36,261358,261356.94,261373.64,266487,266487,2024-06-23T15:11:31Z,266494.42,NULL,Atmosphäre,angahewa,d,NA,NA,NA,angahewa,NA,NA,2,NA,NA,NA,NA,NA,NA,NA,NA,NA,NA,NA,NA,NA,NA,NA,NA,NA,NA,NA
68755,"""Richtig""-Screen",canvas.Screen,3_0_2_0_3_0_1,NA,NA,timeout,5004.38,266488,266483.86,266494.42,271482.12,271483,2024-06-23T15:11:36Z,271498.8,NULL,Atmosphäre,angahewa,d,NA,NA,NA,NA,sdf,1,2,NA,NA,NA,NA,NA,NA,NA,NA,NA,NA,NA,NA,NA,NA,NA,NA,NA,NA,NA
68755,"""Falsch""-Screen",canvas.Screen,3_0_2_0_3_0_2,NA,NA,skipped,NA,271485,NA,NA,271482.12,271485,2024-06-23T15:11:36Z,271498.8,NULL,Atmosphäre,angahewa,d,NA,NA,NA,NA,sdf,NA,2,NA,NA,NA,NA,NA,NA,NA,NA,NA,NA,NA,NA,NA,NA,NA,NA,NA,NA,NA
68755,deep,flow.Sequence,3_0_2_0_3_0,NA,NA,completion,10108.48,261358,261356.94,261373.64,271482.12,271485,2024-06-23T15:11:36Z,271498.8,NULL,Atmosphäre,angahewa,d,NA,NA,NA,NA,sdf,NA,2,NA,NA,NA,NA,NA,NA,NA,NA,NA,NA,NA,NA,NA,NA,NA,NA,NA,NA,NA
68755,shallow,flow.Sequence,3_0_2_0_3_1,NA,NA,skipped,NA,271486,NA,NA,271482.12,271486,2024-06-23T15:11:36Z,271498.8,NULL,Atmosphäre,angahewa,d,NA,NA,NA,NA,sdf,NA,2,NA,NA,NA,NA,NA,NA,NA,NA,NA,NA,NA,NA,NA,NA,NA,NA,NA,NA,NA
68755,task,flow.Sequence,3_0_2_0_3,NA,NA,completion,10108.48,261358,261356.94,261373.64,271482.12,271486,2024-06-23T15:11:36Z,271498.8,NULL,Atmosphäre,angahewa,d,NA,NA,NA,NA,sdf,NA,2,NA,NA,NA,NA,NA,NA,NA,NA,NA,NA,NA,NA,NA,NA,NA,NA,NA,NA,NA
68755,deep,flow.Sequence,3_0_2_0_4_0,NA,NA,skipped,NA,271486,NA,NA,271482.12,271486,2024-06-23T15:11:36Z,271498.8,NULL,Erneuerung,ukarabati,s,ushawishi,ukalifu,unyonyaji,NA,sdf,NA,2,NA,NA,NA,NA,NA,NA,NA,NA,NA,NA,NA,NA,NA,NA,NA,NA,NA,NA,NA
68755,Shallow Question,html.Page,3_0_2_0_4_1_0,NA,NA,form submission,4647.2,271486,271482.12,271498.8,276146,276146,2024-06-23T15:11:41Z,276152.34,NULL,Erneuerung,ukarabati,s,ushawishi,ukalifu,unyonyaji,ukarabati,NA,NA,2,NA,NA,NA,NA,NA,NA,NA,NA,NA,NA,NA,NA,NA,NA,NA,NA,NA,NA,NA
68755,"""Richtig""-Screen",canvas.Screen,3_0_2_0_4_1_1,NA,NA,timeout,5004.2,276147,276143.8,276152.34,281140.02,281142,2024-06-23T15:11:46Z,281156.54,NULL,Erneuerung,ukarabati,s,ushawishi,ukalifu,unyonyaji,NA,sdf,1,2,NA,NA,NA,NA,NA,NA,NA,NA,NA,NA,NA,NA,NA,NA,NA,NA,NA,NA,NA
68755,"""Falsch""-Screen",canvas.Screen,3_0_2_0_4_1_2,NA,NA,skipped,NA,281150,NA,NA,281140.02,281150,2024-06-23T15:11:46Z,281156.54,NULL,Erneuerung,ukarabati,s,ushawishi,ukalifu,unyonyaji,NA,sdf,NA,2,NA,NA,NA,NA,NA,NA,NA,NA,NA,NA,NA,NA,NA,NA,NA,NA,NA,NA,NA
68755,shallow,flow.Sequence,3_0_2_0_4_1,NA,NA,completion,9641.22,271486,271482.12,271498.8,281140.02,281150,2024-06-23T15:11:46Z,281156.54,NULL,Erneuerung,ukarabati,s,ushawishi,ukalifu,unyonyaji,NA,sdf,NA,2,NA,NA,NA,NA,NA,NA,NA,NA,NA,NA,NA,NA,NA,NA,NA,NA,NA,NA,NA
68755,task,flow.Sequence,3_0_2_0_4,NA,NA,completion,9641.22,271486,271482.12,271498.8,281140.02,281150,2024-06-23T15:11:46Z,281156.54,NULL,Erneuerung,ukarabati,s,ushawishi,ukalifu,unyonyaji,NA,sdf,NA,2,NA,NA,NA,NA,NA,NA,NA,NA,NA,NA,NA,NA,NA,NA,NA,NA,NA,NA,NA
68755,Deep Question,html.Page,3_0_2_0_5_0_0,NA,NA,form submission,8275.46,281151,281140.02,281156.54,289432,289433,2024-06-23T15:11:54Z,289429.94,NULL,Schock,mshtuko,d,NA,NA,NA,mshtuko,NA,NA,2,NA,NA,NA,NA,NA,NA,NA,NA,NA,NA,NA,NA,NA,NA,NA,NA,NA,NA,NA
68755,"""Richtig""-Screen",canvas.Screen,3_0_2_0_5_0_1,NA,NA,timeout,5004.18,289434,289427.7,289429.94,294417.42,294419,2024-06-23T15:11:59Z,294434.12,NULL,Schock,mshtuko,d,NA,NA,NA,NA,sdf,1,2,NA,NA,NA,NA,NA,NA,NA,NA,NA,NA,NA,NA,NA,NA,NA,NA,NA,NA,NA
68755,"""Falsch""-Screen",canvas.Screen,3_0_2_0_5_0_2,NA,NA,skipped,NA,294422,NA,NA,294417.42,294423,2024-06-23T15:11:59Z,294434.12,NULL,Schock,mshtuko,d,NA,NA,NA,NA,sdf,NA,2,NA,NA,NA,NA,NA,NA,NA,NA,NA,NA,NA,NA,NA,NA,NA,NA,NA,NA,NA
68755,deep,flow.Sequence,3_0_2_0_5_0,NA,NA,completion,13260.88,281151,281140.02,281156.54,294417.42,294423,2024-06-23T15:11:59Z,294434.12,NULL,Schock,mshtuko,d,NA,NA,NA,NA,sdf,NA,2,NA,NA,NA,NA,NA,NA,NA,NA,NA,NA,NA,NA,NA,NA,NA,NA,NA,NA,NA
68755,shallow,flow.Sequence,3_0_2_0_5_1,NA,NA,skipped,NA,294423,NA,NA,294417.42,294423,2024-06-23T15:11:59Z,294434.12,NULL,Schock,mshtuko,d,NA,NA,NA,NA,sdf,NA,2,NA,NA,NA,NA,NA,NA,NA,NA,NA,NA,NA,NA,NA,NA,NA,NA,NA,NA,NA
68755,task,flow.Sequence,3_0_2_0_5,NA,NA,completion,13260.88,281150,281140.02,281156.54,294417.42,294424,2024-06-23T15:11:59Z,294434.12,NULL,Schock,mshtuko,d,NA,NA,NA,NA,sdf,NA,2,NA,NA,NA,NA,NA,NA,NA,NA,NA,NA,NA,NA,NA,NA,NA,NA,NA,NA,NA
68755,Deep Question,html.Page,3_0_2_0_6_0_0,NA,NA,form submission,5487.88,294424,294417.42,294434.12,299922,299922,2024-06-23T15:12:05Z,299921.96,NULL,Theorie,nadharia,d,NA,NA,NA,nadharia,NA,NA,2,NA,NA,NA,NA,NA,NA,NA,NA,NA,NA,NA,NA,NA,NA,NA,NA,NA,NA,NA
68755,"""Richtig""-Screen",canvas.Screen,3_0_2_0_6_0_1,NA,NA,timeout,5004.36,299924,299919.42,299921.96,304909.62,304911,2024-06-23T15:12:10Z,304926.32,NULL,Theorie,nadharia,d,NA,NA,NA,NA,sdf,1,2,NA,NA,NA,NA,NA,NA,NA,NA,NA,NA,NA,NA,NA,NA,NA,NA,NA,NA,NA
68755,"""Falsch""-Screen",canvas.Screen,3_0_2_0_6_0_2,NA,NA,skipped,NA,304913,NA,NA,304909.62,304913,2024-06-23T15:12:10Z,304926.32,NULL,Theorie,nadharia,d,NA,NA,NA,NA,sdf,NA,2,NA,NA,NA,NA,NA,NA,NA,NA,NA,NA,NA,NA,NA,NA,NA,NA,NA,NA,NA
68755,deep,flow.Sequence,3_0_2_0_6_0,NA,NA,completion,10475.5,294424,294417.42,294434.12,304909.62,304913,2024-06-23T15:12:10Z,304926.32,NULL,Theorie,nadharia,d,NA,NA,NA,NA,sdf,NA,2,NA,NA,NA,NA,NA,NA,NA,NA,NA,NA,NA,NA,NA,NA,NA,NA,NA,NA,NA
68755,shallow,flow.Sequence,3_0_2_0_6_1,NA,NA,skipped,NA,304913,NA,NA,304909.62,304913,2024-06-23T15:12:10Z,304926.32,NULL,Theorie,nadharia,d,NA,NA,NA,NA,sdf,NA,2,NA,NA,NA,NA,NA,NA,NA,NA,NA,NA,NA,NA,NA,NA,NA,NA,NA,NA,NA
68755,task,flow.Sequence,3_0_2_0_6,NA,NA,completion,10475.5,294424,294417.42,294434.12,304909.62,304914,2024-06-23T15:12:10Z,304926.32,NULL,Theorie,nadharia,d,NA,NA,NA,NA,sdf,NA,2,NA,NA,NA,NA,NA,NA,NA,NA,NA,NA,NA,NA,NA,NA,NA,NA,NA,NA,NA
68755,Deep Question,html.Page,3_0_2_0_7_0_0,NA,NA,form submission,5277.68,304914,304909.62,304926.32,310204,310205,2024-06-23T15:12:15Z,310213.94,NULL,Flexibilität,kubadilika,d,NA,NA,NA,NA,NA,NA,2,NA,NA,NA,NA,NA,NA,NA,NA,NA,NA,NA,NA,NA,NA,NA,NA,NA,NA,NA
68755,"""Richtig""-Screen",canvas.Screen,3_0_2_0_7_0_1,NA,NA,skipped,NA,310206,NA,NA,310204,310206,2024-06-23T15:12:15Z,310213.94,NULL,Flexibilität,kubadilika,d,NA,NA,NA,NA,sdf,NA,2,NA,NA,NA,NA,NA,NA,NA,NA,NA,NA,NA,NA,NA,NA,NA,NA,NA,NA,NA
68755,"""Falsch""-Screen",canvas.Screen,3_0_2_0_7_0_2,NA,NA,timeout,5003.94,310207,310201.98,310213.94,315201.18,315202,2024-06-23T15:12:20Z,315217.88,NULL,Flexibilität,kubadilika,d,NA,NA,NA,NA,sdf,0,2,NA,NA,NA,NA,NA,NA,NA,NA,NA,NA,NA,NA,NA,NA,NA,NA,NA,NA,NA
68755,deep,flow.Sequence,3_0_2_0_7_0,NA,NA,completion,10274.86,304914,304909.62,304926.32,315201.18,315202,2024-06-23T15:12:20Z,315217.88,NULL,Flexibilität,kubadilika,d,NA,NA,NA,NA,sdf,NA,2,NA,NA,NA,NA,NA,NA,NA,NA,NA,NA,NA,NA,NA,NA,NA,NA,NA,NA,NA
68755,shallow,flow.Sequence,3_0_2_0_7_1,NA,NA,skipped,NA,315203,NA,NA,315201.18,315203,2024-06-23T15:12:20Z,315217.88,NULL,Flexibilität,kubadilika,d,NA,NA,NA,NA,sdf,NA,2,NA,NA,NA,NA,NA,NA,NA,NA,NA,NA,NA,NA,NA,NA,NA,NA,NA,NA,NA
68755,task,flow.Sequence,3_0_2_0_7,NA,NA,completion,10274.86,304914,304909.62,304926.32,315201.18,315203,2024-06-23T15:12:20Z,315217.88,NULL,Flexibilität,kubadilika,d,NA,NA,NA,NA,sdf,NA,2,NA,NA,NA,NA,NA,NA,NA,NA,NA,NA,NA,NA,NA,NA,NA,NA,NA,NA,NA
68755,block,flow.Loop,3_0_2_0,NA,NA,completion,81540.28,233661,233660.7,233660.9,315201.18,315203,2024-06-23T15:12:20Z,315217.88,NULL,NA,NA,NA,NA,NA,NA,NA,sdf,NA,2,NA,NA,NA,NA,NA,NA,NA,NA,NA,NA,NA,NA,NA,NA,NA,NA,NA,NA,NA
68755,weiter,canvas.Screen,3_0_2_1,sdf,keypress(Space),response,2594.12,315204,315201.18,315217.88,317812,317828,2024-06-23T15:12:23Z,318423.1,NULL,NA,NA,NA,NA,NA,NA,NA,sdf,NA,2,NA,NA,NA,NA,NA,NA,NA,NA,NA,NA,NA,NA,NA,NA,NA,NA,NA,NA,NA
68755,check continue,flow.Sequence,3_0_2,NA,NA,completion,84151.1,233660,233660.7,233660.9,317812,317829,2024-06-23T15:12:23Z,318423.1,NULL,NA,NA,NA,NA,NA,NA,NA,sdf,NA,2,NA,NA,NA,NA,NA,NA,NA,NA,NA,NA,NA,NA,NA,NA,NA,NA,NA,NA,NA
68755,check continue,flow.Sequence,3_0_3,NA,NA,skipped,NA,317886,NA,NA,317812,317887,2024-06-23T15:12:23Z,318423.1,NULL,NA,NA,NA,NA,NA,NA,NA,qt,NA,3,NA,NA,NA,NA,NA,NA,NA,NA,NA,NA,NA,NA,NA,NA,NA,NA,NA,NA,NA
68755,check continue,flow.Sequence,3_0_4,NA,NA,skipped,NA,317909,NA,NA,317812,317909,2024-06-23T15:12:23Z,318423.1,NULL,NA,NA,NA,NA,NA,NA,NA,sd,NA,4,NA,NA,NA,NA,NA,NA,NA,NA,NA,NA,NA,NA,NA,NA,NA,NA,NA,NA,NA
68755,check continue,flow.Sequence,3_0_5,NA,NA,skipped,NA,317932,NA,NA,317812,317932,2024-06-23T15:12:23Z,318423.1,NULL,NA,NA,NA,NA,NA,NA,NA,sdf,NA,5,NA,NA,NA,NA,NA,NA,NA,NA,NA,NA,NA,NA,NA,NA,NA,NA,NA,NA,NA
68755,check continue,flow.Sequence,3_0_6,NA,NA,skipped,NA,317954,NA,NA,317812,317955,2024-06-23T15:12:23Z,318423.1,NULL,NA,NA,NA,NA,NA,NA,NA,dfs,NA,6,NA,NA,NA,NA,NA,NA,NA,NA,NA,NA,NA,NA,NA,NA,NA,NA,NA,NA,NA
68755,check continue,flow.Sequence,3_0_7,NA,NA,skipped,NA,317976,NA,NA,317812,317976,2024-06-23T15:12:23Z,318423.1,NULL,NA,NA,NA,NA,NA,NA,NA,df,NA,7,NA,NA,NA,NA,NA,NA,NA,NA,NA,NA,NA,NA,NA,NA,NA,NA,NA,NA,NA
68755,check continue,flow.Sequence,3_0_8,NA,NA,skipped,NA,317995,NA,NA,317812,317995,2024-06-23T15:12:23Z,318423.1,NULL,NA,NA,NA,NA,NA,NA,NA,dfs,NA,8,NA,NA,NA,NA,NA,NA,NA,NA,NA,NA,NA,NA,NA,NA,NA,NA,NA,NA,NA
68755,check continue,flow.Sequence,3_0_9,NA,NA,skipped,NA,318014,NA,NA,317812,318014,2024-06-23T15:12:23Z,318423.1,NULL,NA,NA,NA,NA,NA,NA,NA,dsf,NA,9,NA,NA,NA,NA,NA,NA,NA,NA,NA,NA,NA,NA,NA,NA,NA,NA,NA,NA,NA
68755,check continue,flow.Sequence,3_0_10,NA,NA,skipped,NA,318033,NA,NA,317812,318033,2024-06-23T15:12:23Z,318423.1,NULL,NA,NA,NA,NA,NA,NA,NA,df,NA,10,NA,NA,NA,NA,NA,NA,NA,NA,NA,NA,NA,NA,NA,NA,NA,NA,NA,NA,NA
68755,check continue,flow.Sequence,3_0_11,NA,NA,skipped,NA,318058,NA,NA,317812,318058,2024-06-23T15:12:23Z,318423.1,NULL,NA,NA,NA,NA,NA,NA,NA,dfs,NA,11,NA,NA,NA,NA,NA,NA,NA,NA,NA,NA,NA,NA,NA,NA,NA,NA,NA,NA,NA
68755,check continue,flow.Sequence,3_0_12,NA,NA,skipped,NA,318075,NA,NA,317812,318075,2024-06-23T15:12:23Z,318423.1,NULL,NA,NA,NA,NA,NA,NA,NA,dsf,NA,12,NA,NA,NA,NA,NA,NA,NA,NA,NA,NA,NA,NA,NA,NA,NA,NA,NA,NA,NA
68755,check continue,flow.Sequence,3_0_13,NA,NA,skipped,NA,318092,NA,NA,317812,318092,2024-06-23T15:12:23Z,318423.1,NULL,NA,NA,NA,NA,NA,NA,NA,dsf,NA,13,NA,NA,NA,NA,NA,NA,NA,NA,NA,NA,NA,NA,NA,NA,NA,NA,NA,NA,NA
68755,check continue,flow.Sequence,3_0_14,NA,NA,skipped,NA,318114,NA,NA,317812,318115,2024-06-23T15:12:23Z,318423.1,NULL,NA,NA,NA,NA,NA,NA,NA,NA,NA,14,NA,NA,NA,NA,NA,NA,NA,NA,NA,NA,NA,NA,NA,NA,NA,NA,NA,NA,NA
68755,check continue,flow.Sequence,3_0_15,NA,NA,skipped,NA,318132,NA,NA,317812,318132,2024-06-23T15:12:23Z,318423.1,NULL,NA,NA,NA,NA,NA,NA,NA,NA,NA,15,NA,NA,NA,NA,NA,NA,NA,NA,NA,NA,NA,NA,NA,NA,NA,NA,NA,NA,NA
68755,check continue,flow.Sequence,3_0_16,NA,NA,skipped,NA,318148,NA,NA,317812,318148,2024-06-23T15:12:23Z,318423.1,NULL,NA,NA,NA,NA,NA,NA,NA,NA,NA,16,NA,NA,NA,NA,NA,NA,NA,NA,NA,NA,NA,NA,NA,NA,NA,NA,NA,NA,NA
68755,check continue,flow.Sequence,3_0_17,NA,NA,skipped,NA,318168,NA,NA,317812,318168,2024-06-23T15:12:23Z,318423.1,NULL,NA,NA,NA,NA,NA,NA,NA,NA,NA,17,NA,NA,NA,NA,NA,NA,NA,NA,NA,NA,NA,NA,NA,NA,NA,NA,NA,NA,NA
68755,check continue,flow.Sequence,3_0_18,NA,NA,skipped,NA,318188,NA,NA,317812,318188,2024-06-23T15:12:23Z,318423.1,NULL,NA,NA,NA,NA,NA,NA,NA,NA,NA,18,NA,NA,NA,NA,NA,NA,NA,NA,NA,NA,NA,NA,NA,NA,NA,NA,NA,NA,NA
68755,check continue,flow.Sequence,3_0_19,NA,NA,skipped,NA,318206,NA,NA,317812,318206,2024-06-23T15:12:23Z,318423.1,NULL,NA,NA,NA,NA,NA,NA,NA,NA,NA,19,NA,NA,NA,NA,NA,NA,NA,NA,NA,NA,NA,NA,NA,NA,NA,NA,NA,NA,NA
68755,check continue,flow.Sequence,3_0_20,NA,NA,skipped,NA,318227,NA,NA,317812,318227,2024-06-23T15:12:23Z,318423.1,NULL,NA,NA,NA,NA,NA,NA,NA,NA,NA,20,NA,NA,NA,NA,NA,NA,NA,NA,NA,NA,NA,NA,NA,NA,NA,NA,NA,NA,NA
68755,check continue,flow.Sequence,3_0_21,NA,NA,skipped,NA,318244,NA,NA,317812,318244,2024-06-23T15:12:23Z,318423.1,NULL,NA,NA,NA,NA,NA,NA,NA,NA,NA,21,NA,NA,NA,NA,NA,NA,NA,NA,NA,NA,NA,NA,NA,NA,NA,NA,NA,NA,NA
68755,check continue,flow.Sequence,3_0_22,NA,NA,skipped,NA,318274,NA,NA,317812,318274,2024-06-23T15:12:23Z,318423.1,NULL,NA,NA,NA,NA,NA,NA,NA,NA,NA,22,NA,NA,NA,NA,NA,NA,NA,NA,NA,NA,NA,NA,NA,NA,NA,NA,NA,NA,NA
68755,check continue,flow.Sequence,3_0_23,NA,NA,skipped,NA,318296,NA,NA,317812,318296,2024-06-23T15:12:23Z,318423.1,NULL,NA,NA,NA,NA,NA,NA,NA,NA,NA,23,NA,NA,NA,NA,NA,NA,NA,NA,NA,NA,NA,NA,NA,NA,NA,NA,NA,NA,NA
68755,check continue,flow.Sequence,3_0_24,NA,NA,skipped,NA,318324,NA,NA,317812,318324,2024-06-23T15:12:23Z,318423.1,NULL,NA,NA,NA,NA,NA,NA,NA,NA,NA,24,NA,NA,NA,NA,NA,NA,NA,NA,NA,NA,NA,NA,NA,NA,NA,NA,NA,NA,NA
68755,check continue,flow.Sequence,3_0_25,NA,NA,skipped,NA,318347,NA,NA,317812,318347,2024-06-23T15:12:23Z,318423.1,NULL,NA,NA,NA,NA,NA,NA,NA,NA,NA,25,NA,NA,NA,NA,NA,NA,NA,NA,NA,NA,NA,NA,NA,NA,NA,NA,NA,NA,NA
68755,check continue,flow.Sequence,3_0_26,NA,NA,skipped,NA,318367,NA,NA,317812,318367,2024-06-23T15:12:23Z,318423.1,NULL,NA,NA,NA,NA,NA,NA,NA,NA,NA,26,NA,NA,NA,NA,NA,NA,NA,NA,NA,NA,NA,NA,NA,NA,NA,NA,NA,NA,NA
68755,check continue,flow.Sequence,3_0_27,NA,NA,skipped,NA,318383,NA,NA,317812,318383,2024-06-23T15:12:23Z,318423.1,NULL,NA,NA,NA,NA,NA,NA,NA,NA,NA,27,NA,NA,NA,NA,NA,NA,NA,NA,NA,NA,NA,NA,NA,NA,NA,NA,NA,NA,NA
68755,check continue,flow.Sequence,3_0_28,NA,NA,skipped,NA,318406,NA,NA,317812,318406,2024-06-23T15:12:23Z,318423.1,NULL,NA,NA,NA,NA,NA,NA,NA,NA,NA,28,NA,NA,NA,NA,NA,NA,NA,NA,NA,NA,NA,NA,NA,NA,NA,NA,NA,NA,NA
68755,check continue,flow.Sequence,3_0_29,NA,NA,skipped,NA,318423,NA,NA,317812,318423,2024-06-23T15:12:23Z,318423.1,NULL,NA,NA,NA,NA,NA,NA,NA,NA,NA,29,NA,NA,NA,NA,NA,NA,NA,NA,NA,NA,NA,NA,NA,NA,NA,NA,NA,NA,NA
68755,until continue,flow.Loop,3_0,NA,NA,completion,264834.44,52948,52976.9,52977.56,317812,318423,2024-06-23T15:12:23Z,318423.1,NULL,NA,NA,NA,NA,NA,NA,NA,NA,NA,NA,NA,NA,NA,NA,NA,NA,NA,NA,NA,NA,NA,NA,NA,NA,NA,NA,NA,NA,NA
68755,block 1,flow.Sequence,3,NA,NA,completion,264834.44,52948,52976.9,52977.56,317812,318423,2024-06-23T15:12:23Z,318423.1,NULL,NA,NA,NA,NA,NA,NA,NA,NA,NA,NA,NA,NA,NA,NA,NA,NA,NA,NA,NA,NA,NA,NA,NA,NA,NA,NA,NA,NA,NA
68755,1.Part Over,canvas.Screen,4,NA,keypress(Space),response,1372.9,318423,318422.84,318423.1,319796,319807,2024-06-23T15:12:25Z,319839.52,NULL,NA,NA,NA,NA,NA,NA,NA,NA,NA,NA,NA,NA,NA,NA,NA,NA,NA,NA,NA,NA,NA,NA,NA,NA,NA,NA,NA,NA,NA
68755,Deep Question,html.Page,5_0_0_0_0_0_0,NA,NA,form submission,2657.48,319839,319838.96,319839.52,322497,322497,2024-06-23T15:12:27Z,322507.32,NULL,Betrüger,mdanganyifu,d,NA,NA,NA,NA,NA,NA,0,NA,NA,NA,NA,NA,NA,NA,NA,NA,NA,NA,NA,NA,NA,NA,NA,NA,NA,NA
68755,"""Richtig""-Screen",canvas.Screen,5_0_0_0_0_0_1,NA,NA,skipped,NA,322498,NA,NA,322497,322498,2024-06-23T15:12:27Z,322507.32,NULL,Betrüger,mdanganyifu,d,NA,NA,NA,NA,sdf,NA,0,NA,NA,NA,NA,NA,NA,NA,NA,NA,NA,NA,NA,NA,NA,NA,NA,NA,NA,NA
68755,"""Falsch""-Screen",canvas.Screen,5_0_0_0_0_0_2,NA,NA,timeout,5004.24,322499,322494.22,322507.32,327494.9,327496,2024-06-23T15:12:32Z,327511.56,NULL,Betrüger,mdanganyifu,d,NA,NA,NA,NA,sdf,0,0,NA,NA,NA,NA,NA,NA,NA,NA,NA,NA,NA,NA,NA,NA,NA,NA,NA,NA,NA
68755,deep,flow.Sequence,5_0_0_0_0_0,NA,NA,completion,7655.38,319839,319838.96,319839.52,327494.9,327496,2024-06-23T15:12:32Z,327511.56,NULL,Betrüger,mdanganyifu,d,NA,NA,NA,NA,sdf,NA,0,NA,NA,NA,NA,NA,NA,NA,NA,NA,NA,NA,NA,NA,NA,NA,NA,NA,NA,NA
68755,shallow,flow.Sequence,5_0_0_0_0_1,NA,NA,skipped,NA,327497,NA,NA,327494.9,327497,2024-06-23T15:12:32Z,327511.56,NULL,Betrüger,mdanganyifu,d,NA,NA,NA,NA,sdf,NA,0,NA,NA,NA,NA,NA,NA,NA,NA,NA,NA,NA,NA,NA,NA,NA,NA,NA,NA,NA
68755,task,flow.Sequence,5_0_0_0_0,NA,NA,completion,7655.38,319839,319838.96,319839.52,327494.9,327497,2024-06-23T15:12:32Z,327511.56,NULL,Betrüger,mdanganyifu,d,NA,NA,NA,NA,sdf,NA,0,NA,NA,NA,NA,NA,NA,NA,NA,NA,NA,NA,NA,NA,NA,NA,NA,NA,NA,NA
68755,deep,flow.Sequence,5_0_0_0_1_0,NA,NA,skipped,NA,327497,NA,NA,327494.9,327497,2024-06-23T15:12:32Z,327511.56,NULL,Vergnügen,kichekesho,s,dubwana,mpanuko,mtesaji,NA,sdf,NA,0,NA,NA,NA,NA,NA,NA,NA,NA,NA,NA,NA,NA,NA,NA,NA,NA,NA,NA,NA
68755,Shallow Question,html.Page,5_0_0_0_1_1_0,NA,NA,form submission,3910.44,327497,327494.9,327511.56,331422,331422,2024-06-23T15:12:36Z,331431.42,NULL,Vergnügen,kichekesho,s,dubwana,mpanuko,mtesaji,dubwana,NA,NA,0,NA,NA,NA,NA,NA,NA,NA,NA,NA,NA,NA,NA,NA,NA,NA,NA,NA,NA,NA
68755,"""Richtig""-Screen",canvas.Screen,5_0_0_0_1_1_1,NA,NA,skipped,NA,331424,NA,NA,331422,331424,2024-06-23T15:12:36Z,331431.42,NULL,Vergnügen,kichekesho,s,dubwana,mpanuko,mtesaji,NA,sdf,NA,0,NA,NA,NA,NA,NA,NA,NA,NA,NA,NA,NA,NA,NA,NA,NA,NA,NA,NA,NA
68755,"""Falsch""-Screen",canvas.Screen,5_0_0_0_1_1_2,NA,NA,timeout,5004.12,331425,331419.92,331431.42,336418.84,336422,2024-06-23T15:12:41Z,336435.54,NULL,Vergnügen,kichekesho,s,dubwana,mpanuko,mtesaji,NA,sdf,0,0,NA,NA,NA,NA,NA,NA,NA,NA,NA,NA,NA,NA,NA,NA,NA,NA,NA,NA,NA
68755,shallow,flow.Sequence,5_0_0_0_1_1,NA,NA,completion,8907.28,327497,327494.9,327511.56,336418.84,336425,2024-06-23T15:12:41Z,336435.54,NULL,Vergnügen,kichekesho,s,dubwana,mpanuko,mtesaji,NA,sdf,NA,0,NA,NA,NA,NA,NA,NA,NA,NA,NA,NA,NA,NA,NA,NA,NA,NA,NA,NA,NA
68755,task,flow.Sequence,5_0_0_0_1,NA,NA,completion,8907.28,327497,327494.9,327511.56,336418.84,336425,2024-06-23T15:12:41Z,336435.54,NULL,Vergnügen,kichekesho,s,dubwana,mpanuko,mtesaji,NA,sdf,NA,0,NA,NA,NA,NA,NA,NA,NA,NA,NA,NA,NA,NA,NA,NA,NA,NA,NA,NA,NA
68755,Deep Question,html.Page,5_0_0_0_2_0_0,NA,NA,form submission,2760.46,336426,336418.84,336435.54,339196,339196,2024-06-23T15:12:44Z,339204.46,NULL,Wohlstand,mafanikio,d,NA,NA,NA,NA,NA,NA,0,NA,NA,NA,NA,NA,NA,NA,NA,NA,NA,NA,NA,NA,NA,NA,NA,NA,NA,NA
68755,"""Richtig""-Screen",canvas.Screen,5_0_0_0_2_0_1,NA,NA,skipped,NA,339202,NA,NA,339196,339202,2024-06-23T15:12:44Z,339204.46,NULL,Wohlstand,mafanikio,d,NA,NA,NA,NA,sdf,NA,0,NA,NA,NA,NA,NA,NA,NA,NA,NA,NA,NA,NA,NA,NA,NA,NA,NA,NA,NA
68755,"""Falsch""-Screen",canvas.Screen,5_0_0_0_2_0_2,NA,NA,timeout,5004.36,339203,339189.64,339204.46,344192.24,344194,2024-06-23T15:12:49Z,344208.82,NULL,Wohlstand,mafanikio,d,NA,NA,NA,NA,sdf,0,0,NA,NA,NA,NA,NA,NA,NA,NA,NA,NA,NA,NA,NA,NA,NA,NA,NA,NA,NA
68755,deep,flow.Sequence,5_0_0_0_2_0,NA,NA,completion,7756.7,336425,336418.84,336435.54,344192.24,344194,2024-06-23T15:12:49Z,344208.82,NULL,Wohlstand,mafanikio,d,NA,NA,NA,NA,sdf,NA,0,NA,NA,NA,NA,NA,NA,NA,NA,NA,NA,NA,NA,NA,NA,NA,NA,NA,NA,NA
68755,shallow,flow.Sequence,5_0_0_0_2_1,NA,NA,skipped,NA,344194,NA,NA,344192.24,344194,2024-06-23T15:12:49Z,344208.82,NULL,Wohlstand,mafanikio,d,NA,NA,NA,NA,sdf,NA,0,NA,NA,NA,NA,NA,NA,NA,NA,NA,NA,NA,NA,NA,NA,NA,NA,NA,NA,NA
68755,task,flow.Sequence,5_0_0_0_2,NA,NA,completion,7756.7,336425,336418.84,336435.54,344192.24,344194,2024-06-23T15:12:49Z,344208.82,NULL,Wohlstand,mafanikio,d,NA,NA,NA,NA,sdf,NA,0,NA,NA,NA,NA,NA,NA,NA,NA,NA,NA,NA,NA,NA,NA,NA,NA,NA,NA,NA
68755,Deep Question,html.Page,5_0_0_0_3_0_0,NA,NA,form submission,3842.18,344195,344192.24,344208.82,348051,348051,2024-06-23T15:12:53Z,348061.84,NULL,Ergänzung,kijalizo,d,NA,NA,NA,NA,NA,NA,0,NA,NA,NA,NA,NA,NA,NA,NA,NA,NA,NA,NA,NA,NA,NA,NA,NA,NA,NA
68755,"""Richtig""-Screen",canvas.Screen,5_0_0_0_3_0_1,NA,NA,skipped,NA,348052,NA,NA,348051,348053,2024-06-23T15:12:53Z,348061.84,NULL,Ergänzung,kijalizo,d,NA,NA,NA,NA,sdf,NA,0,NA,NA,NA,NA,NA,NA,NA,NA,NA,NA,NA,NA,NA,NA,NA,NA,NA,NA,NA
68755,"""Falsch""-Screen",canvas.Screen,5_0_0_0_3_0_2,NA,NA,timeout,5004.46,348054,348047.74,348061.84,353049.6,353051,2024-06-23T15:12:58Z,353066.3,NULL,Ergänzung,kijalizo,d,NA,NA,NA,NA,sdf,0,0,NA,NA,NA,NA,NA,NA,NA,NA,NA,NA,NA,NA,NA,NA,NA,NA,NA,NA,NA
68755,deep,flow.Sequence,5_0_0_0_3_0,NA,NA,completion,8840.78,344195,344192.24,344208.82,353049.6,353051,2024-06-23T15:12:58Z,353066.3,NULL,Ergänzung,kijalizo,d,NA,NA,NA,NA,sdf,NA,0,NA,NA,NA,NA,NA,NA,NA,NA,NA,NA,NA,NA,NA,NA,NA,NA,NA,NA,NA
68755,shallow,flow.Sequence,5_0_0_0_3_1,NA,NA,skipped,NA,353051,NA,NA,353049.6,353051,2024-06-23T15:12:58Z,353066.3,NULL,Ergänzung,kijalizo,d,NA,NA,NA,NA,sdf,NA,0,NA,NA,NA,NA,NA,NA,NA,NA,NA,NA,NA,NA,NA,NA,NA,NA,NA,NA,NA
68755,task,flow.Sequence,5_0_0_0_3,NA,NA,completion,8840.78,344195,344192.24,344208.82,353049.6,353051,2024-06-23T15:12:58Z,353066.3,NULL,Ergänzung,kijalizo,d,NA,NA,NA,NA,sdf,NA,0,NA,NA,NA,NA,NA,NA,NA,NA,NA,NA,NA,NA,NA,NA,NA,NA,NA,NA,NA
68755,deep,flow.Sequence,5_0_0_0_4_0,NA,NA,skipped,NA,353052,NA,NA,353049.6,353052,2024-06-23T15:12:58Z,353066.3,NULL,Respekt,heshima,s,changamnao,upinzani,ufanisi,NA,sdf,NA,0,NA,NA,NA,NA,NA,NA,NA,NA,NA,NA,NA,NA,NA,NA,NA,NA,NA,NA,NA
68755,Shallow Question,html.Page,5_0_0_0_4_1_0,NA,NA,form submission,4253.7,353052,353049.6,353066.3,357320,357320,2024-06-23T15:13:02Z,357319.42,NULL,Respekt,heshima,s,changamnao,upinzani,ufanisi,heshima,NA,NA,0,NA,NA,NA,NA,NA,NA,NA,NA,NA,NA,NA,NA,NA,NA,NA,NA,NA,NA,NA
68755,"""Richtig""-Screen",canvas.Screen,5_0_0_0_4_1_1,NA,NA,timeout,5004.2,357322,357317.42,357319.42,362306.94,362309,2024-06-23T15:13:07Z,362323.62,NULL,Respekt,heshima,s,changamnao,upinzani,ufanisi,NA,sdf,1,0,NA,NA,NA,NA,NA,NA,NA,NA,NA,NA,NA,NA,NA,NA,NA,NA,NA,NA,NA
68755,"""Falsch""-Screen",canvas.Screen,5_0_0_0_4_1_2,NA,NA,skipped,NA,362312,NA,NA,362306.94,362312,2024-06-23T15:13:07Z,362323.62,NULL,Respekt,heshima,s,changamnao,upinzani,ufanisi,NA,sdf,NA,0,NA,NA,NA,NA,NA,NA,NA,NA,NA,NA,NA,NA,NA,NA,NA,NA,NA,NA,NA
68755,shallow,flow.Sequence,5_0_0_0_4_1,NA,NA,completion,9240.64,353052,353049.6,353066.3,362306.94,362312,2024-06-23T15:13:07Z,362323.62,NULL,Respekt,heshima,s,changamnao,upinzani,ufanisi,NA,sdf,NA,0,NA,NA,NA,NA,NA,NA,NA,NA,NA,NA,NA,NA,NA,NA,NA,NA,NA,NA,NA
68755,task,flow.Sequence,5_0_0_0_4,NA,NA,completion,9240.64,353052,353049.6,353066.3,362306.94,362313,2024-06-23T15:13:07Z,362323.62,NULL,Respekt,heshima,s,changamnao,upinzani,ufanisi,NA,sdf,NA,0,NA,NA,NA,NA,NA,NA,NA,NA,NA,NA,NA,NA,NA,NA,NA,NA,NA,NA,NA
68755,deep,flow.Sequence,5_0_0_0_5_0,NA,NA,skipped,NA,362313,NA,NA,362306.94,362313,2024-06-23T15:13:07Z,362323.62,NULL,Orientierung,urekebisho,s,uelekeo,marekebisho,utunzaji,NA,sdf,NA,0,NA,NA,NA,NA,NA,NA,NA,NA,NA,NA,NA,NA,NA,NA,NA,NA,NA,NA,NA
68755,Shallow Question,html.Page,5_0_0_0_5_1_0,NA,NA,form submission,7424.38,362313,362306.94,362323.62,369748,369748,2024-06-23T15:13:15Z,369746.42,NULL,Orientierung,urekebisho,s,uelekeo,marekebisho,utunzaji,marekebisho,NA,NA,0,NA,NA,NA,NA,NA,NA,NA,NA,NA,NA,NA,NA,NA,NA,NA,NA,NA,NA,NA
68755,"""Richtig""-Screen",canvas.Screen,5_0_0_0_5_1_1,NA,NA,skipped,NA,369749,NA,NA,369748,369749,2024-06-23T15:13:15Z,369746.42,NULL,Orientierung,urekebisho,s,uelekeo,marekebisho,utunzaji,NA,sdf,NA,0,NA,NA,NA,NA,NA,NA,NA,NA,NA,NA,NA,NA,NA,NA,NA,NA,NA,NA,NA
68755,"""Falsch""-Screen",canvas.Screen,5_0_0_0_5_1_2,NA,NA,timeout,5004.08,369751,369744.92,369746.42,374733.8,374735,2024-06-23T15:13:20Z,374750.5,NULL,Orientierung,urekebisho,s,uelekeo,marekebisho,utunzaji,NA,sdf,0,0,NA,NA,NA,NA,NA,NA,NA,NA,NA,NA,NA,NA,NA,NA,NA,NA,NA,NA,NA
68755,shallow,flow.Sequence,5_0_0_0_5_1,NA,NA,completion,12410.18,362313,362306.94,362323.62,374733.8,374735,2024-06-23T15:13:20Z,374750.5,NULL,Orientierung,urekebisho,s,uelekeo,marekebisho,utunzaji,NA,sdf,NA,0,NA,NA,NA,NA,NA,NA,NA,NA,NA,NA,NA,NA,NA,NA,NA,NA,NA,NA,NA
68755,task,flow.Sequence,5_0_0_0_5,NA,NA,completion,12410.18,362313,362306.94,362323.62,374733.8,374735,2024-06-23T15:13:20Z,374750.5,NULL,Orientierung,urekebisho,s,uelekeo,marekebisho,utunzaji,NA,sdf,NA,0,NA,NA,NA,NA,NA,NA,NA,NA,NA,NA,NA,NA,NA,NA,NA,NA,NA,NA,NA
68755,deep,flow.Sequence,5_0_0_0_6_0,NA,NA,skipped,NA,374735,NA,NA,374733.8,374735,2024-06-23T15:13:20Z,374750.5,NULL,Notfall,dharura,s,rairai,malalamiko,ahueni,NA,sdf,NA,0,NA,NA,NA,NA,NA,NA,NA,NA,NA,NA,NA,NA,NA,NA,NA,NA,NA,NA,NA
68755,Shallow Question,html.Page,5_0_0_0_6_1_0,NA,NA,form submission,8025.5,374736,374733.8,374750.5,382776,382776,2024-06-23T15:13:28Z,382773.84,NULL,Notfall,dharura,s,rairai,malalamiko,ahueni,ahueni,NA,NA,0,NA,NA,NA,NA,NA,NA,NA,NA,NA,NA,NA,NA,NA,NA,NA,NA,NA,NA,NA
68755,"""Richtig""-Screen",canvas.Screen,5_0_0_0_6_1_1,NA,NA,skipped,NA,382779,NA,NA,382776,382779,2024-06-23T15:13:28Z,382773.84,NULL,Notfall,dharura,s,rairai,malalamiko,ahueni,NA,sdf,NA,0,NA,NA,NA,NA,NA,NA,NA,NA,NA,NA,NA,NA,NA,NA,NA,NA,NA,NA,NA
68755,"""Falsch""-Screen",canvas.Screen,5_0_0_0_6_1_2,NA,NA,timeout,5004.06,382781,382773.36,382773.84,387761.2,387762,2024-06-23T15:13:33Z,387777.9,NULL,Notfall,dharura,s,rairai,malalamiko,ahueni,NA,sdf,0,0,NA,NA,NA,NA,NA,NA,NA,NA,NA,NA,NA,NA,NA,NA,NA,NA,NA,NA,NA
68755,shallow,flow.Sequence,5_0_0_0_6_1,NA,NA,completion,13010.7,374735,374733.8,374750.5,387761.2,387762,2024-06-23T15:13:33Z,387777.9,NULL,Notfall,dharura,s,rairai,malalamiko,ahueni,NA,sdf,NA,0,NA,NA,NA,NA,NA,NA,NA,NA,NA,NA,NA,NA,NA,NA,NA,NA,NA,NA,NA
68755,task,flow.Sequence,5_0_0_0_6,NA,NA,completion,13010.7,374735,374733.8,374750.5,387761.2,387762,2024-06-23T15:13:33Z,387777.9,NULL,Notfall,dharura,s,rairai,malalamiko,ahueni,NA,sdf,NA,0,NA,NA,NA,NA,NA,NA,NA,NA,NA,NA,NA,NA,NA,NA,NA,NA,NA,NA,NA
68755,Deep Question,html.Page,5_0_0_0_7_0_0,NA,NA,form submission,2678.1,387762,387761.2,387777.9,390456,390456,2024-06-23T15:13:35Z,390463.64,NULL,Stimmung,kinyongo,d,NA,NA,NA,NA,NA,NA,0,NA,NA,NA,NA,NA,NA,NA,NA,NA,NA,NA,NA,NA,NA,NA,NA,NA,NA,NA
68755,"""Richtig""-Screen",canvas.Screen,5_0_0_0_7_0_1,NA,NA,skipped,NA,390457,NA,NA,390456,390457,2024-06-23T15:13:35Z,390463.64,NULL,Stimmung,kinyongo,d,NA,NA,NA,NA,sdf,NA,0,NA,NA,NA,NA,NA,NA,NA,NA,NA,NA,NA,NA,NA,NA,NA,NA,NA,NA,NA
68755,"""Falsch""-Screen",canvas.Screen,5_0_0_0_7_0_2,NA,NA,timeout,5004.24,390458,390452.9,390463.64,395451.2,395453,2024-06-23T15:13:40Z,395467.88,NULL,Stimmung,kinyongo,d,NA,NA,NA,NA,sdf,0,0,NA,NA,NA,NA,NA,NA,NA,NA,NA,NA,NA,NA,NA,NA,NA,NA,NA,NA,NA
68755,deep,flow.Sequence,5_0_0_0_7_0,NA,NA,completion,7673.3,387762,387761.2,387777.9,395451.2,395454,2024-06-23T15:13:40Z,395467.88,NULL,Stimmung,kinyongo,d,NA,NA,NA,NA,sdf,NA,0,NA,NA,NA,NA,NA,NA,NA,NA,NA,NA,NA,NA,NA,NA,NA,NA,NA,NA,NA
68755,shallow,flow.Sequence,5_0_0_0_7_1,NA,NA,skipped,NA,395454,NA,NA,395451.2,395455,2024-06-23T15:13:40Z,395467.88,NULL,Stimmung,kinyongo,d,NA,NA,NA,NA,sdf,NA,0,NA,NA,NA,NA,NA,NA,NA,NA,NA,NA,NA,NA,NA,NA,NA,NA,NA,NA,NA
68755,task,flow.Sequence,5_0_0_0_7,NA,NA,completion,7673.3,387762,387761.2,387777.9,395451.2,395455,2024-06-23T15:13:40Z,395467.88,NULL,Stimmung,kinyongo,d,NA,NA,NA,NA,sdf,NA,0,NA,NA,NA,NA,NA,NA,NA,NA,NA,NA,NA,NA,NA,NA,NA,NA,NA,NA,NA
68755,block,flow.Loop,5_0_0_0,NA,NA,completion,75611.68,319839,319838.96,319839.52,395451.2,395455,2024-06-23T15:13:40Z,395467.88,NULL,NA,NA,NA,NA,NA,NA,NA,sdf,NA,0,NA,NA,NA,NA,NA,NA,NA,NA,NA,NA,NA,NA,NA,NA,NA,NA,NA,NA,NA
68755,weiter,canvas.Screen,5_0_0_1,sdf,keypress(Space),response,1140.12,395455,395451.2,395467.88,396608,396616,2024-06-23T15:13:42Z,396642.16,NULL,NA,NA,NA,NA,NA,NA,NA,sdf,NA,0,NA,NA,NA,NA,NA,NA,NA,NA,NA,NA,NA,NA,NA,NA,NA,NA,NA,NA,NA
68755,check continue,flow.Sequence,5_0_0,NA,NA,completion,76768.48,319839,319838.96,319839.52,396608,396617,2024-06-23T15:13:42Z,396642.16,NULL,NA,NA,NA,NA,NA,NA,NA,sdf,NA,0,NA,NA,NA,NA,NA,NA,NA,NA,NA,NA,NA,NA,NA,NA,NA,NA,NA,NA,NA
68755,Deep Question,html.Page,5_0_1_0_0_0_0,NA,NA,form submission,9384.84,396642,396641.72,396642.16,406027,406027,2024-06-23T15:13:51Z,406026.54,NULL,Wohlstand,mafanikio,d,NA,NA,NA,kinyongo,NA,NA,1,NA,NA,NA,NA,NA,NA,NA,NA,NA,NA,NA,NA,NA,NA,NA,NA,NA,NA,NA
68755,"""Richtig""-Screen",canvas.Screen,5_0_1_0_0_0_1,NA,NA,skipped,NA,406028,NA,NA,406027,406028,2024-06-23T15:13:51Z,406026.54,NULL,Wohlstand,mafanikio,d,NA,NA,NA,NA,sdfdsf,NA,1,NA,NA,NA,NA,NA,NA,NA,NA,NA,NA,NA,NA,NA,NA,NA,NA,NA,NA,NA
68755,"""Falsch""-Screen",canvas.Screen,5_0_1_0_0_0_2,NA,NA,timeout,5004,406030,406022.86,406026.54,411013.84,411015,2024-06-23T15:13:56Z,411030.54,NULL,Wohlstand,mafanikio,d,NA,NA,NA,NA,sdfdsf,0,1,NA,NA,NA,NA,NA,NA,NA,NA,NA,NA,NA,NA,NA,NA,NA,NA,NA,NA,NA
68755,deep,flow.Sequence,5_0_1_0_0_0,NA,NA,completion,14371.68,396642,396641.72,396642.16,411013.84,411016,2024-06-23T15:13:56Z,411030.54,NULL,Wohlstand,mafanikio,d,NA,NA,NA,NA,sdfdsf,NA,1,NA,NA,NA,NA,NA,NA,NA,NA,NA,NA,NA,NA,NA,NA,NA,NA,NA,NA,NA
68755,shallow,flow.Sequence,5_0_1_0_0_1,NA,NA,skipped,NA,411016,NA,NA,411013.84,411016,2024-06-23T15:13:56Z,411030.54,NULL,Wohlstand,mafanikio,d,NA,NA,NA,NA,sdfdsf,NA,1,NA,NA,NA,NA,NA,NA,NA,NA,NA,NA,NA,NA,NA,NA,NA,NA,NA,NA,NA
68755,task,flow.Sequence,5_0_1_0_0,NA,NA,completion,14371.68,396642,396641.72,396642.16,411013.84,411016,2024-06-23T15:13:56Z,411030.54,NULL,Wohlstand,mafanikio,d,NA,NA,NA,NA,sdfdsf,NA,1,NA,NA,NA,NA,NA,NA,NA,NA,NA,NA,NA,NA,NA,NA,NA,NA,NA,NA,NA
68755,Deep Question,html.Page,5_0_1_0_1_0_0,NA,NA,form submission,11248.46,411016,411013.84,411030.54,422279,422279,2024-06-23T15:14:07Z,422289.92,NULL,Stimmung,kinyongo,d,NA,NA,NA,NA,NA,NA,1,NA,NA,NA,NA,NA,NA,NA,NA,NA,NA,NA,NA,NA,NA,NA,NA,NA,NA,NA
68755,"""Richtig""-Screen",canvas.Screen,5_0_1_0_1_0_1,NA,NA,skipped,NA,422280,NA,NA,422279,422280,2024-06-23T15:14:07Z,422289.92,NULL,Stimmung,kinyongo,d,NA,NA,NA,NA,sdfdsf,NA,1,NA,NA,NA,NA,NA,NA,NA,NA,NA,NA,NA,NA,NA,NA,NA,NA,NA,NA,NA
68755,"""Falsch""-Screen",canvas.Screen,5_0_1_0_1_0_2,NA,NA,timeout,5004.18,422282,422276.1,422289.92,427277.4,427279,2024-06-23T15:14:12Z,427294.1,NULL,Stimmung,kinyongo,d,NA,NA,NA,NA,sdfdsf,0,1,NA,NA,NA,NA,NA,NA,NA,NA,NA,NA,NA,NA,NA,NA,NA,NA,NA,NA,NA
68755,deep,flow.Sequence,5_0_1_0_1_0,NA,NA,completion,16246.86,411016,411013.84,411030.54,427277.4,427279,2024-06-23T15:14:12Z,427294.1,NULL,Stimmung,kinyongo,d,NA,NA,NA,NA,sdfdsf,NA,1,NA,NA,NA,NA,NA,NA,NA,NA,NA,NA,NA,NA,NA,NA,NA,NA,NA,NA,NA
68755,shallow,flow.Sequence,5_0_1_0_1_1,NA,NA,skipped,NA,427279,NA,NA,427277.4,427279,2024-06-23T15:14:12Z,427294.1,NULL,Stimmung,kinyongo,d,NA,NA,NA,NA,sdfdsf,NA,1,NA,NA,NA,NA,NA,NA,NA,NA,NA,NA,NA,NA,NA,NA,NA,NA,NA,NA,NA
68755,task,flow.Sequence,5_0_1_0_1,NA,NA,completion,16246.86,411016,411013.84,411030.54,427277.4,427280,2024-06-23T15:14:12Z,427294.1,NULL,Stimmung,kinyongo,d,NA,NA,NA,NA,sdfdsf,NA,1,NA,NA,NA,NA,NA,NA,NA,NA,NA,NA,NA,NA,NA,NA,NA,NA,NA,NA,NA
68755,deep,flow.Sequence,5_0_1_0_2_0,NA,NA,skipped,NA,427280,NA,NA,427277.4,427280,2024-06-23T15:14:12Z,427294.1,NULL,Notfall,dharura,s,rairai,malalamiko,ahueni,NA,sdfdsf,NA,1,NA,NA,NA,NA,NA,NA,NA,NA,NA,NA,NA,NA,NA,NA,NA,NA,NA,NA,NA
68755,Shallow Question,html.Page,5_0_1_0_2_1_0,NA,NA,form submission,5566.9,427280,427277.4,427294.1,432861,432862,2024-06-23T15:14:18Z,432865.24,NULL,Notfall,dharura,s,rairai,malalamiko,ahueni,dharura,NA,NA,1,NA,NA,NA,NA,NA,NA,NA,NA,NA,NA,NA,NA,NA,NA,NA,NA,NA,NA,NA
68755,"""Richtig""-Screen",canvas.Screen,5_0_1_0_2_1_1,NA,NA,timeout,5004.22,432863,432858.48,432865.24,437852.76,437855,2024-06-23T15:14:23Z,437869.46,NULL,Notfall,dharura,s,rairai,malalamiko,ahueni,NA,sdfdsf,1,1,NA,NA,NA,NA,NA,NA,NA,NA,NA,NA,NA,NA,NA,NA,NA,NA,NA,NA,NA
68755,"""Falsch""-Screen",canvas.Screen,5_0_1_0_2_1_2,NA,NA,skipped,NA,437858,NA,NA,437852.76,437858,2024-06-23T15:14:23Z,437869.46,NULL,Notfall,dharura,s,rairai,malalamiko,ahueni,NA,sdfdsf,NA,1,NA,NA,NA,NA,NA,NA,NA,NA,NA,NA,NA,NA,NA,NA,NA,NA,NA,NA,NA
68755,shallow,flow.Sequence,5_0_1_0_2_1,NA,NA,completion,10558.66,427280,427277.4,427294.1,437852.76,437858,2024-06-23T15:14:23Z,437869.46,NULL,Notfall,dharura,s,rairai,malalamiko,ahueni,NA,sdfdsf,NA,1,NA,NA,NA,NA,NA,NA,NA,NA,NA,NA,NA,NA,NA,NA,NA,NA,NA,NA,NA
68755,task,flow.Sequence,5_0_1_0_2,NA,NA,completion,10558.66,427280,427277.4,427294.1,437852.76,437858,2024-06-23T15:14:23Z,437869.46,NULL,Notfall,dharura,s,rairai,malalamiko,ahueni,NA,sdfdsf,NA,1,NA,NA,NA,NA,NA,NA,NA,NA,NA,NA,NA,NA,NA,NA,NA,NA,NA,NA,NA
68755,deep,flow.Sequence,5_0_1_0_3_0,NA,NA,skipped,NA,437858,NA,NA,437852.76,437858,2024-06-23T15:14:23Z,437869.46,NULL,Orientierung,urekebisho,s,uelekeo,marekebisho,utunzaji,NA,sdfdsf,NA,1,NA,NA,NA,NA,NA,NA,NA,NA,NA,NA,NA,NA,NA,NA,NA,NA,NA,NA,NA
68755,Shallow Question,html.Page,5_0_1_0_3_1_0,NA,NA,form submission,5446.54,437859,437852.76,437869.46,443316,443316,2024-06-23T15:14:28Z,443324.12,NULL,Orientierung,urekebisho,s,uelekeo,marekebisho,utunzaji,urekebisho,NA,NA,1,NA,NA,NA,NA,NA,NA,NA,NA,NA,NA,NA,NA,NA,NA,NA,NA,NA,NA,NA
68755,"""Richtig""-Screen",canvas.Screen,5_0_1_0_3_1_1,NA,NA,timeout,5003.98,443317,443313.32,443324.12,448311.56,448313,2024-06-23T15:14:33Z,448328.1,NULL,Orientierung,urekebisho,s,uelekeo,marekebisho,utunzaji,NA,sdfdsf,1,1,NA,NA,NA,NA,NA,NA,NA,NA,NA,NA,NA,NA,NA,NA,NA,NA,NA,NA,NA
68755,"""Falsch""-Screen",canvas.Screen,5_0_1_0_3_1_2,NA,NA,skipped,NA,448315,NA,NA,448311.56,448315,2024-06-23T15:14:33Z,448328.1,NULL,Orientierung,urekebisho,s,uelekeo,marekebisho,utunzaji,NA,sdfdsf,NA,1,NA,NA,NA,NA,NA,NA,NA,NA,NA,NA,NA,NA,NA,NA,NA,NA,NA,NA,NA
68755,shallow,flow.Sequence,5_0_1_0_3_1,NA,NA,completion,10442.1,437859,437852.76,437869.46,448311.56,448315,2024-06-23T15:14:33Z,448328.1,NULL,Orientierung,urekebisho,s,uelekeo,marekebisho,utunzaji,NA,sdfdsf,NA,1,NA,NA,NA,NA,NA,NA,NA,NA,NA,NA,NA,NA,NA,NA,NA,NA,NA,NA,NA
68755,task,flow.Sequence,5_0_1_0_3,NA,NA,completion,10442.1,437858,437852.76,437869.46,448311.56,448315,2024-06-23T15:14:33Z,448328.1,NULL,Orientierung,urekebisho,s,uelekeo,marekebisho,utunzaji,NA,sdfdsf,NA,1,NA,NA,NA,NA,NA,NA,NA,NA,NA,NA,NA,NA,NA,NA,NA,NA,NA,NA,NA
68755,Deep Question,html.Page,5_0_1_0_4_0_0,NA,NA,form submission,12290.9,448315,448311.56,448328.1,460619,460619,2024-06-23T15:14:46Z,460621.62,NULL,Ergänzung,kijalizo,d,NA,NA,NA,NA,NA,NA,1,NA,NA,NA,NA,NA,NA,NA,NA,NA,NA,NA,NA,NA,NA,NA,NA,NA,NA,NA
68755,"""Richtig""-Screen",canvas.Screen,5_0_1_0_4_0_1,NA,NA,skipped,NA,460621,NA,NA,460619,460621,2024-06-23T15:14:46Z,460621.62,NULL,Ergänzung,kijalizo,d,NA,NA,NA,NA,sdfdsf,NA,1,NA,NA,NA,NA,NA,NA,NA,NA,NA,NA,NA,NA,NA,NA,NA,NA,NA,NA,NA
68755,"""Falsch""-Screen",canvas.Screen,5_0_1_0_4_0_2,NA,NA,timeout,5004.08,460623,460616.74,460621.62,465609,465611,2024-06-23T15:14:51Z,465625.7,NULL,Ergänzung,kijalizo,d,NA,NA,NA,NA,sdfdsf,0,1,NA,NA,NA,NA,NA,NA,NA,NA,NA,NA,NA,NA,NA,NA,NA,NA,NA,NA,NA
68755,deep,flow.Sequence,5_0_1_0_4_0,NA,NA,completion,17280.9,448315,448311.56,448328.1,465609,465611,2024-06-23T15:14:51Z,465625.7,NULL,Ergänzung,kijalizo,d,NA,NA,NA,NA,sdfdsf,NA,1,NA,NA,NA,NA,NA,NA,NA,NA,NA,NA,NA,NA,NA,NA,NA,NA,NA,NA,NA
68755,shallow,flow.Sequence,5_0_1_0_4_1,NA,NA,skipped,NA,465612,NA,NA,465609,465612,2024-06-23T15:14:51Z,465625.7,NULL,Ergänzung,kijalizo,d,NA,NA,NA,NA,sdfdsf,NA,1,NA,NA,NA,NA,NA,NA,NA,NA,NA,NA,NA,NA,NA,NA,NA,NA,NA,NA,NA
68755,task,flow.Sequence,5_0_1_0_4,NA,NA,completion,17280.9,448315,448311.56,448328.1,465609,465612,2024-06-23T15:14:51Z,465625.7,NULL,Ergänzung,kijalizo,d,NA,NA,NA,NA,sdfdsf,NA,1,NA,NA,NA,NA,NA,NA,NA,NA,NA,NA,NA,NA,NA,NA,NA,NA,NA,NA,NA
68755,deep,flow.Sequence,5_0_1_0_5_0,NA,NA,skipped,NA,465612,NA,NA,465609,465613,2024-06-23T15:14:51Z,465625.7,NULL,Vergnügen,kichekesho,s,dubwana,mpanuko,mtesaji,NA,sdfdsf,NA,1,NA,NA,NA,NA,NA,NA,NA,NA,NA,NA,NA,NA,NA,NA,NA,NA,NA,NA,NA
68755,Shallow Question,html.Page,5_0_1_0_5_1_0,NA,NA,form submission,6828.3,465613,465609,465625.7,472454,472454,2024-06-23T15:14:57Z,472464.7,NULL,Vergnügen,kichekesho,s,dubwana,mpanuko,mtesaji,kichekesho,NA,NA,1,NA,NA,NA,NA,NA,NA,NA,NA,NA,NA,NA,NA,NA,NA,NA,NA,NA,NA,NA
68755,"""Richtig""-Screen",canvas.Screen,5_0_1_0_5_1_1,NA,NA,timeout,5004.22,472455,472451.06,472464.7,477452.22,477452,2024-06-23T15:15:02Z,477468.92,NULL,Vergnügen,kichekesho,s,dubwana,mpanuko,mtesaji,NA,sdfdsf,1,1,NA,NA,NA,NA,NA,NA,NA,NA,NA,NA,NA,NA,NA,NA,NA,NA,NA,NA,NA
68755,"""Falsch""-Screen",canvas.Screen,5_0_1_0_5_1_2,NA,NA,skipped,NA,477455,NA,NA,477452.22,477455,2024-06-23T15:15:02Z,477468.92,NULL,Vergnügen,kichekesho,s,dubwana,mpanuko,mtesaji,NA,sdfdsf,NA,1,NA,NA,NA,NA,NA,NA,NA,NA,NA,NA,NA,NA,NA,NA,NA,NA,NA,NA,NA
68755,shallow,flow.Sequence,5_0_1_0_5_1,NA,NA,completion,11826.52,465613,465609,465625.7,477452.22,477455,2024-06-23T15:15:02Z,477468.92,NULL,Vergnügen,kichekesho,s,dubwana,mpanuko,mtesaji,NA,sdfdsf,NA,1,NA,NA,NA,NA,NA,NA,NA,NA,NA,NA,NA,NA,NA,NA,NA,NA,NA,NA,NA
68755,task,flow.Sequence,5_0_1_0_5,NA,NA,completion,11826.52,465612,465609,465625.7,477452.22,477455,2024-06-23T15:15:02Z,477468.92,NULL,Vergnügen,kichekesho,s,dubwana,mpanuko,mtesaji,NA,sdfdsf,NA,1,NA,NA,NA,NA,NA,NA,NA,NA,NA,NA,NA,NA,NA,NA,NA,NA,NA,NA,NA
68755,Deep Question,html.Page,5_0_1_0_6_0_0,NA,NA,form submission,5116.08,477455,477452.22,477468.92,482585,482585,2024-06-23T15:15:08Z,482589.74,NULL,Betrüger,mdanganyifu,d,NA,NA,NA,NA,NA,NA,1,NA,NA,NA,NA,NA,NA,NA,NA,NA,NA,NA,NA,NA,NA,NA,NA,NA,NA,NA
68755,"""Richtig""-Screen",canvas.Screen,5_0_1_0_6_0_1,NA,NA,skipped,NA,482587,NA,NA,482585,482587,2024-06-23T15:15:08Z,482589.74,NULL,Betrüger,mdanganyifu,d,NA,NA,NA,NA,sdfdsf,NA,1,NA,NA,NA,NA,NA,NA,NA,NA,NA,NA,NA,NA,NA,NA,NA,NA,NA,NA,NA
68755,"""Falsch""-Screen",canvas.Screen,5_0_1_0_6_0_2,NA,NA,timeout,5004.28,482588,482575.84,482589.74,487577.5,487581,2024-06-23T15:15:13Z,487594.02,NULL,Betrüger,mdanganyifu,d,NA,NA,NA,NA,sdfdsf,0,1,NA,NA,NA,NA,NA,NA,NA,NA,NA,NA,NA,NA,NA,NA,NA,NA,NA,NA,NA
68755,deep,flow.Sequence,5_0_1_0_6_0,NA,NA,completion,10108.58,477455,477452.22,477468.92,487577.5,487583,2024-06-23T15:15:13Z,487594.02,NULL,Betrüger,mdanganyifu,d,NA,NA,NA,NA,sdfdsf,NA,1,NA,NA,NA,NA,NA,NA,NA,NA,NA,NA,NA,NA,NA,NA,NA,NA,NA,NA,NA
68755,shallow,flow.Sequence,5_0_1_0_6_1,NA,NA,skipped,NA,487583,NA,NA,487577.5,487583,2024-06-23T15:15:13Z,487594.02,NULL,Betrüger,mdanganyifu,d,NA,NA,NA,NA,sdfdsf,NA,1,NA,NA,NA,NA,NA,NA,NA,NA,NA,NA,NA,NA,NA,NA,NA,NA,NA,NA,NA
68755,task,flow.Sequence,5_0_1_0_6,NA,NA,completion,10108.58,477455,477452.22,477468.92,487577.5,487583,2024-06-23T15:15:13Z,487594.02,NULL,Betrüger,mdanganyifu,d,NA,NA,NA,NA,sdfdsf,NA,1,NA,NA,NA,NA,NA,NA,NA,NA,NA,NA,NA,NA,NA,NA,NA,NA,NA,NA,NA
68755,deep,flow.Sequence,5_0_1_0_7_0,NA,NA,skipped,NA,487584,NA,NA,487577.5,487584,2024-06-23T15:15:13Z,487594.02,NULL,Respekt,heshima,s,changamnao,upinzani,ufanisi,NA,sdfdsf,NA,1,NA,NA,NA,NA,NA,NA,NA,NA,NA,NA,NA,NA,NA,NA,NA,NA,NA,NA,NA
68755,Shallow Question,html.Page,5_0_1_0_7_1_0,NA,NA,form submission,5282.98,487584,487577.5,487594.02,492877,492877,2024-06-23T15:15:18Z,492881.62,NULL,Respekt,heshima,s,changamnao,upinzani,ufanisi,heshima,NA,NA,1,NA,NA,NA,NA,NA,NA,NA,NA,NA,NA,NA,NA,NA,NA,NA,NA,NA,NA,NA
68755,"""Richtig""-Screen",canvas.Screen,5_0_1_0_7_1_1,NA,NA,timeout,5004.14,492883,492873.62,492881.62,497869.06,497871,2024-06-23T15:15:23Z,497885.76,NULL,Respekt,heshima,s,changamnao,upinzani,ufanisi,NA,sdfdsf,1,1,NA,NA,NA,NA,NA,NA,NA,NA,NA,NA,NA,NA,NA,NA,NA,NA,NA,NA,NA
68755,"""Falsch""-Screen",canvas.Screen,5_0_1_0_7_1_2,NA,NA,skipped,NA,497875,NA,NA,497869.06,497876,2024-06-23T15:15:23Z,497885.76,NULL,Respekt,heshima,s,changamnao,upinzani,ufanisi,NA,sdfdsf,NA,1,NA,NA,NA,NA,NA,NA,NA,NA,NA,NA,NA,NA,NA,NA,NA,NA,NA,NA,NA
68755,shallow,flow.Sequence,5_0_1_0_7_1,NA,NA,completion,10275.04,487584,487577.5,487594.02,497869.06,497876,2024-06-23T15:15:23Z,497885.76,NULL,Respekt,heshima,s,changamnao,upinzani,ufanisi,NA,sdfdsf,NA,1,NA,NA,NA,NA,NA,NA,NA,NA,NA,NA,NA,NA,NA,NA,NA,NA,NA,NA,NA
68755,task,flow.Sequence,5_0_1_0_7,NA,NA,completion,10275.04,487584,487577.5,487594.02,497869.06,497877,2024-06-23T15:15:23Z,497885.76,NULL,Respekt,heshima,s,changamnao,upinzani,ufanisi,NA,sdfdsf,NA,1,NA,NA,NA,NA,NA,NA,NA,NA,NA,NA,NA,NA,NA,NA,NA,NA,NA,NA,NA
68755,block,flow.Loop,5_0_1_0,NA,NA,completion,101226.9,396642,396641.72,396642.16,497869.06,497877,2024-06-23T15:15:23Z,497885.76,NULL,NA,NA,NA,NA,NA,NA,NA,sdfdsf,NA,1,NA,NA,NA,NA,NA,NA,NA,NA,NA,NA,NA,NA,NA,NA,NA,NA,NA,NA,NA
68755,weiter,canvas.Screen,5_0_1_1,sdf,keypress(Space),response,1160.24,497877,497869.06,497885.76,499046,499060,2024-06-23T15:15:24Z,499124.36,NULL,NA,NA,NA,NA,NA,NA,NA,sdfdsf,NA,1,NA,NA,NA,NA,NA,NA,NA,NA,NA,NA,NA,NA,NA,NA,NA,NA,NA,NA,NA
68755,check continue,flow.Sequence,5_0_1,NA,NA,completion,102403.84,396642,396641.72,396642.16,499046,499061,2024-06-23T15:15:24Z,499124.36,NULL,NA,NA,NA,NA,NA,NA,NA,sdfdsf,NA,1,NA,NA,NA,NA,NA,NA,NA,NA,NA,NA,NA,NA,NA,NA,NA,NA,NA,NA,NA
68755,deep,flow.Sequence,5_0_2_0_0_0,NA,NA,skipped,NA,499124,NA,NA,499046,499124,2024-06-23T15:15:24Z,499124.36,NULL,Respekt,heshima,s,changamnao,upinzani,ufanisi,NA,sdf,NA,2,NA,NA,NA,NA,NA,NA,NA,NA,NA,NA,NA,NA,NA,NA,NA,NA,NA,NA,NA
68755,Shallow Question,html.Page,5_0_2_0_0_1_0,NA,NA,form submission,3285.64,499124,499123.98,499124.36,502410,502410,2024-06-23T15:15:27Z,502422.86,NULL,Respekt,heshima,s,changamnao,upinzani,ufanisi,heshima,NA,NA,2,NA,NA,NA,NA,NA,NA,NA,NA,NA,NA,NA,NA,NA,NA,NA,NA,NA,NA,NA
68755,"""Richtig""-Screen",canvas.Screen,5_0_2_0_0_1_1,NA,NA,timeout,5004.34,502411,502406.16,502422.86,507410.5,507411,2024-06-23T15:15:32Z,507427.2,NULL,Respekt,heshima,s,changamnao,upinzani,ufanisi,NA,sdf,1,2,NA,NA,NA,NA,NA,NA,NA,NA,NA,NA,NA,NA,NA,NA,NA,NA,NA,NA,NA
68755,"""Falsch""-Screen",canvas.Screen,5_0_2_0_0_1_2,NA,NA,skipped,NA,507414,NA,NA,507410.5,507414,2024-06-23T15:15:32Z,507427.2,NULL,Respekt,heshima,s,changamnao,upinzani,ufanisi,NA,sdf,NA,2,NA,NA,NA,NA,NA,NA,NA,NA,NA,NA,NA,NA,NA,NA,NA,NA,NA,NA,NA
68755,shallow,flow.Sequence,5_0_2_0_0_1,NA,NA,completion,8286.14,499124,499123.98,499124.36,507410.5,507414,2024-06-23T15:15:32Z,507427.2,NULL,Respekt,heshima,s,changamnao,upinzani,ufanisi,NA,sdf,NA,2,NA,NA,NA,NA,NA,NA,NA,NA,NA,NA,NA,NA,NA,NA,NA,NA,NA,NA,NA
68755,task,flow.Sequence,5_0_2_0_0,NA,NA,completion,8286.14,499123,499123.98,499124.36,507410.5,507414,2024-06-23T15:15:32Z,507427.2,NULL,Respekt,heshima,s,changamnao,upinzani,ufanisi,NA,sdf,NA,2,NA,NA,NA,NA,NA,NA,NA,NA,NA,NA,NA,NA,NA,NA,NA,NA,NA,NA,NA
68755,Deep Question,html.Page,5_0_2_0_1_0_0,NA,NA,form submission,38125.8,507415,507410.5,507427.2,545553,545555,2024-06-23T15:16:11Z,545558.54,NULL,Ergänzung,kijalizo,d,NA,NA,NA,kiljizo,NA,NA,2,NA,NA,NA,NA,NA,NA,NA,NA,NA,NA,NA,NA,NA,NA,NA,NA,NA,NA,NA
68755,"""Richtig""-Screen",canvas.Screen,5_0_2_0_1_0_1,NA,NA,skipped,NA,545565,NA,NA,545553,545565,2024-06-23T15:16:11Z,545558.54,NULL,Ergänzung,kijalizo,d,NA,NA,NA,NA,sdf,NA,2,NA,NA,NA,NA,NA,NA,NA,NA,NA,NA,NA,NA,NA,NA,NA,NA,NA,NA,NA
68755,"""Falsch""-Screen",canvas.Screen,5_0_2_0_1_0_2,NA,NA,timeout,5004.2,545567,545547.2,545558.54,550546.04,550547,2024-06-23T15:16:16Z,550562.74,NULL,Ergänzung,kijalizo,d,NA,NA,NA,NA,sdf,0,2,NA,NA,NA,NA,NA,NA,NA,NA,NA,NA,NA,NA,NA,NA,NA,NA,NA,NA,NA
68755,deep,flow.Sequence,5_0_2_0_1_0,NA,NA,completion,43118.84,507415,507410.5,507427.2,550546.04,550548,2024-06-23T15:16:16Z,550562.74,NULL,Ergänzung,kijalizo,d,NA,NA,NA,NA,sdf,NA,2,NA,NA,NA,NA,NA,NA,NA,NA,NA,NA,NA,NA,NA,NA,NA,NA,NA,NA,NA
68755,shallow,flow.Sequence,5_0_2_0_1_1,NA,NA,skipped,NA,550548,NA,NA,550546.04,550549,2024-06-23T15:16:16Z,550562.74,NULL,Ergänzung,kijalizo,d,NA,NA,NA,NA,sdf,NA,2,NA,NA,NA,NA,NA,NA,NA,NA,NA,NA,NA,NA,NA,NA,NA,NA,NA,NA,NA
68755,task,flow.Sequence,5_0_2_0_1,NA,NA,completion,43118.84,507414,507410.5,507427.2,550546.04,550549,2024-06-23T15:16:16Z,550562.74,NULL,Ergänzung,kijalizo,d,NA,NA,NA,NA,sdf,NA,2,NA,NA,NA,NA,NA,NA,NA,NA,NA,NA,NA,NA,NA,NA,NA,NA,NA,NA,NA
68755,deep,flow.Sequence,5_0_2_0_2_0,NA,NA,skipped,NA,550549,NA,NA,550546.04,550550,2024-06-23T15:16:16Z,550562.74,NULL,Notfall,dharura,s,rairai,malalamiko,ahueni,NA,sdf,NA,2,NA,NA,NA,NA,NA,NA,NA,NA,NA,NA,NA,NA,NA,NA,NA,NA,NA,NA,NA
68755,Shallow Question,html.Page,5_0_2_0_2_1_0,NA,NA,form submission,2450.26,550550,550546.04,550562.74,553013,553013,2024-06-23T15:16:18Z,553014.7,NULL,Notfall,dharura,s,rairai,malalamiko,ahueni,dharura,NA,NA,2,NA,NA,NA,NA,NA,NA,NA,NA,NA,NA,NA,NA,NA,NA,NA,NA,NA,NA,NA
68755,"""Richtig""-Screen",canvas.Screen,5_0_2_0_2_1_1,NA,NA,timeout,5004.2200000001,553015,553009.9,553014.7,558002.28,558004,2024-06-23T15:16:23Z,558018.92,NULL,Notfall,dharura,s,rairai,malalamiko,ahueni,NA,sdf,1,2,NA,NA,NA,NA,NA,NA,NA,NA,NA,NA,NA,NA,NA,NA,NA,NA,NA,NA,NA
68755,"""Falsch""-Screen",canvas.Screen,5_0_2_0_2_1_2,NA,NA,skipped,NA,558006,NA,NA,558002.28,558006,2024-06-23T15:16:23Z,558018.92,NULL,Notfall,dharura,s,rairai,malalamiko,ahueni,NA,sdf,NA,2,NA,NA,NA,NA,NA,NA,NA,NA,NA,NA,NA,NA,NA,NA,NA,NA,NA,NA,NA
68755,shallow,flow.Sequence,5_0_2_0_2_1,NA,NA,completion,7439.54,550550,550546.04,550562.74,558002.28,558007,2024-06-23T15:16:23Z,558018.92,NULL,Notfall,dharura,s,rairai,malalamiko,ahueni,NA,sdf,NA,2,NA,NA,NA,NA,NA,NA,NA,NA,NA,NA,NA,NA,NA,NA,NA,NA,NA,NA,NA
68755,task,flow.Sequence,5_0_2_0_2,NA,NA,completion,7439.54,550549,550546.04,550562.74,558002.28,558007,2024-06-23T15:16:23Z,558018.92,NULL,Notfall,dharura,s,rairai,malalamiko,ahueni,NA,sdf,NA,2,NA,NA,NA,NA,NA,NA,NA,NA,NA,NA,NA,NA,NA,NA,NA,NA,NA,NA,NA
68755,deep,flow.Sequence,5_0_2_0_3_0,NA,NA,skipped,NA,558007,NA,NA,558002.28,558007,2024-06-23T15:16:23Z,558018.92,NULL,Orientierung,urekebisho,s,uelekeo,marekebisho,utunzaji,NA,sdf,NA,2,NA,NA,NA,NA,NA,NA,NA,NA,NA,NA,NA,NA,NA,NA,NA,NA,NA,NA,NA
68755,Shallow Question,html.Page,5_0_2_0_3_1_0,NA,NA,form submission,3715.08,558007,558002.28,558018.92,561734,561734,2024-06-23T15:16:27Z,561738.58,NULL,Orientierung,urekebisho,s,uelekeo,marekebisho,utunzaji,urekebisho,NA,NA,2,NA,NA,NA,NA,NA,NA,NA,NA,NA,NA,NA,NA,NA,NA,NA,NA,NA,NA,NA
68755,"""Richtig""-Screen",canvas.Screen,5_0_2_0_3_1_1,NA,NA,timeout,5004.12,561736,561731.8,561738.58,566726.14,566728,2024-06-23T15:16:32Z,566742.7,NULL,Orientierung,urekebisho,s,uelekeo,marekebisho,utunzaji,NA,sdf,1,2,NA,NA,NA,NA,NA,NA,NA,NA,NA,NA,NA,NA,NA,NA,NA,NA,NA,NA,NA
68755,"""Falsch""-Screen",canvas.Screen,5_0_2_0_3_1_2,NA,NA,skipped,NA,566730,NA,NA,566726.14,566731,2024-06-23T15:16:32Z,566742.7,NULL,Orientierung,urekebisho,s,uelekeo,marekebisho,utunzaji,NA,sdf,NA,2,NA,NA,NA,NA,NA,NA,NA,NA,NA,NA,NA,NA,NA,NA,NA,NA,NA,NA,NA
68755,shallow,flow.Sequence,5_0_2_0_3_1,NA,NA,completion,8707.22,558007,558002.28,558018.92,566726.14,566731,2024-06-23T15:16:32Z,566742.7,NULL,Orientierung,urekebisho,s,uelekeo,marekebisho,utunzaji,NA,sdf,NA,2,NA,NA,NA,NA,NA,NA,NA,NA,NA,NA,NA,NA,NA,NA,NA,NA,NA,NA,NA
68755,task,flow.Sequence,5_0_2_0_3,NA,NA,completion,8707.22,558007,558002.28,558018.92,566726.14,566731,2024-06-23T15:16:32Z,566742.7,NULL,Orientierung,urekebisho,s,uelekeo,marekebisho,utunzaji,NA,sdf,NA,2,NA,NA,NA,NA,NA,NA,NA,NA,NA,NA,NA,NA,NA,NA,NA,NA,NA,NA,NA
68755,Deep Question,html.Page,5_0_2_0_4_0_0,NA,NA,form submission,4045.3,566731,566726.14,566742.7,570788,570788,2024-06-23T15:16:36Z,570796,NULL,Betrüger,mdanganyifu,d,NA,NA,NA,NA,NA,NA,2,NA,NA,NA,NA,NA,NA,NA,NA,NA,NA,NA,NA,NA,NA,NA,NA,NA,NA,NA
68755,"""Richtig""-Screen",canvas.Screen,5_0_2_0_4_0_1,NA,NA,skipped,NA,570789,NA,NA,570788,570789,2024-06-23T15:16:36Z,570796,NULL,Betrüger,mdanganyifu,d,NA,NA,NA,NA,sdf,NA,2,NA,NA,NA,NA,NA,NA,NA,NA,NA,NA,NA,NA,NA,NA,NA,NA,NA,NA,NA
68755,"""Falsch""-Screen",canvas.Screen,5_0_2_0_4_0_2,NA,NA,timeout,5004.3199999999,570790,570784.56,570796,575783.62,575785,2024-06-23T15:16:41Z,575800.32,NULL,Betrüger,mdanganyifu,d,NA,NA,NA,NA,sdf,0,2,NA,NA,NA,NA,NA,NA,NA,NA,NA,NA,NA,NA,NA,NA,NA,NA,NA,NA,NA
68755,deep,flow.Sequence,5_0_2_0_4_0,NA,NA,completion,9040.92,566731,566726.14,566742.7,575783.62,575786,2024-06-23T15:16:41Z,575800.32,NULL,Betrüger,mdanganyifu,d,NA,NA,NA,NA,sdf,NA,2,NA,NA,NA,NA,NA,NA,NA,NA,NA,NA,NA,NA,NA,NA,NA,NA,NA,NA,NA
68755,shallow,flow.Sequence,5_0_2_0_4_1,NA,NA,skipped,NA,575786,NA,NA,575783.62,575786,2024-06-23T15:16:41Z,575800.32,NULL,Betrüger,mdanganyifu,d,NA,NA,NA,NA,sdf,NA,2,NA,NA,NA,NA,NA,NA,NA,NA,NA,NA,NA,NA,NA,NA,NA,NA,NA,NA,NA
68755,task,flow.Sequence,5_0_2_0_4,NA,NA,completion,9040.92,566731,566726.14,566742.7,575783.62,575786,2024-06-23T15:16:41Z,575800.32,NULL,Betrüger,mdanganyifu,d,NA,NA,NA,NA,sdf,NA,2,NA,NA,NA,NA,NA,NA,NA,NA,NA,NA,NA,NA,NA,NA,NA,NA,NA,NA,NA
68755,Deep Question,html.Page,5_0_2_0_5_0_0,NA,NA,form submission,2780.6800000001,575786,575783.62,575800.32,578581,578581,2024-06-23T15:16:44Z,578585.8,NULL,Wohlstand,mafanikio,d,NA,NA,NA,NA,NA,NA,2,NA,NA,NA,NA,NA,NA,NA,NA,NA,NA,NA,NA,NA,NA,NA,NA,NA,NA,NA
68755,"""Richtig""-Screen",canvas.Screen,5_0_2_0_5_0_1,NA,NA,skipped,NA,578583,NA,NA,578581,578583,2024-06-23T15:16:44Z,578585.8,NULL,Wohlstand,mafanikio,d,NA,NA,NA,NA,sdf,NA,2,NA,NA,NA,NA,NA,NA,NA,NA,NA,NA,NA,NA,NA,NA,NA,NA,NA,NA,NA
68755,"""Falsch""-Screen",canvas.Screen,5_0_2_0_5_0_2,NA,NA,timeout,5004.3199999999,578584,578578.16,578585.8,583573.42,583575,2024-06-23T15:16:49Z,583590.12,NULL,Wohlstand,mafanikio,d,NA,NA,NA,NA,sdf,0,2,NA,NA,NA,NA,NA,NA,NA,NA,NA,NA,NA,NA,NA,NA,NA,NA,NA,NA,NA
68755,deep,flow.Sequence,5_0_2_0_5_0,NA,NA,completion,7773.1000000001,575786,575783.62,575800.32,583573.42,583576,2024-06-23T15:16:49Z,583590.12,NULL,Wohlstand,mafanikio,d,NA,NA,NA,NA,sdf,NA,2,NA,NA,NA,NA,NA,NA,NA,NA,NA,NA,NA,NA,NA,NA,NA,NA,NA,NA,NA
68755,shallow,flow.Sequence,5_0_2_0_5_1,NA,NA,skipped,NA,583576,NA,NA,583573.42,583576,2024-06-23T15:16:49Z,583590.12,NULL,Wohlstand,mafanikio,d,NA,NA,NA,NA,sdf,NA,2,NA,NA,NA,NA,NA,NA,NA,NA,NA,NA,NA,NA,NA,NA,NA,NA,NA,NA,NA
68755,task,flow.Sequence,5_0_2_0_5,NA,NA,completion,7773.1000000001,575786,575783.62,575800.32,583573.42,583576,2024-06-23T15:16:49Z,583590.12,NULL,Wohlstand,mafanikio,d,NA,NA,NA,NA,sdf,NA,2,NA,NA,NA,NA,NA,NA,NA,NA,NA,NA,NA,NA,NA,NA,NA,NA,NA,NA,NA
68755,Deep Question,html.Page,5_0_2_0_6_0_0,NA,NA,form submission,4990.88,583576,583573.42,583590.12,588581,588581,2024-06-23T15:16:54Z,588577.36,NULL,Stimmung,kinyongo,d,NA,NA,NA,kinyongo,NA,NA,2,NA,NA,NA,NA,NA,NA,NA,NA,NA,NA,NA,NA,NA,NA,NA,NA,NA,NA,NA
68755,"""Richtig""-Screen",canvas.Screen,5_0_2_0_6_0_1,NA,NA,timeout,5004.08,588583,588575.04,588577.36,593565.06,593566,2024-06-23T15:16:59Z,593581.44,NULL,Stimmung,kinyongo,d,NA,NA,NA,NA,sdf,1,2,NA,NA,NA,NA,NA,NA,NA,NA,NA,NA,NA,NA,NA,NA,NA,NA,NA,NA,NA
68755,"""Falsch""-Screen",canvas.Screen,5_0_2_0_6_0_2,NA,NA,skipped,NA,593569,NA,NA,593565.06,593569,2024-06-23T15:16:59Z,593581.44,NULL,Stimmung,kinyongo,d,NA,NA,NA,NA,sdf,NA,2,NA,NA,NA,NA,NA,NA,NA,NA,NA,NA,NA,NA,NA,NA,NA,NA,NA,NA,NA
68755,deep,flow.Sequence,5_0_2_0_6_0,NA,NA,completion,9974.9400000001,583576,583573.42,583590.12,593565.06,593569,2024-06-23T15:16:59Z,593581.44,NULL,Stimmung,kinyongo,d,NA,NA,NA,NA,sdf,NA,2,NA,NA,NA,NA,NA,NA,NA,NA,NA,NA,NA,NA,NA,NA,NA,NA,NA,NA,NA
68755,shallow,flow.Sequence,5_0_2_0_6_1,NA,NA,skipped,NA,593569,NA,NA,593565.06,593569,2024-06-23T15:16:59Z,593581.44,NULL,Stimmung,kinyongo,d,NA,NA,NA,NA,sdf,NA,2,NA,NA,NA,NA,NA,NA,NA,NA,NA,NA,NA,NA,NA,NA,NA,NA,NA,NA,NA
68755,task,flow.Sequence,5_0_2_0_6,NA,NA,completion,9974.9400000001,583576,583573.42,583590.12,593565.06,593570,2024-06-23T15:16:59Z,593581.44,NULL,Stimmung,kinyongo,d,NA,NA,NA,NA,sdf,NA,2,NA,NA,NA,NA,NA,NA,NA,NA,NA,NA,NA,NA,NA,NA,NA,NA,NA,NA,NA
68755,deep,flow.Sequence,5_0_2_0_7_0,NA,NA,skipped,NA,593571,NA,NA,593565.06,593571,2024-06-23T15:16:59Z,593581.44,NULL,Vergnügen,kichekesho,s,dubwana,mpanuko,mtesaji,NA,sdf,NA,2,NA,NA,NA,NA,NA,NA,NA,NA,NA,NA,NA,NA,NA,NA,NA,NA,NA,NA,NA
68755,Shallow Question,html.Page,5_0_2_0_7_1_0,NA,NA,form submission,3013.5600000001,593571,593565.06,593581.44,596595,596595,2024-06-23T15:17:02Z,596600.74,NULL,Vergnügen,kichekesho,s,dubwana,mpanuko,mtesaji,kichekesho,NA,NA,2,NA,NA,NA,NA,NA,NA,NA,NA,NA,NA,NA,NA,NA,NA,NA,NA,NA,NA,NA
68755,"""Richtig""-Screen",canvas.Screen,5_0_2_0_7_1_1,NA,NA,timeout,5004.12,596596,596592.7,596600.74,601588.16,601590,2024-06-23T15:17:07Z,601604.86,NULL,Vergnügen,kichekesho,s,dubwana,mpanuko,mtesaji,NA,sdf,1,2,NA,NA,NA,NA,NA,NA,NA,NA,NA,NA,NA,NA,NA,NA,NA,NA,NA,NA,NA
68755,"""Falsch""-Screen",canvas.Screen,5_0_2_0_7_1_2,NA,NA,skipped,NA,601592,NA,NA,601588.16,601592,2024-06-23T15:17:07Z,601604.86,NULL,Vergnügen,kichekesho,s,dubwana,mpanuko,mtesaji,NA,sdf,NA,2,NA,NA,NA,NA,NA,NA,NA,NA,NA,NA,NA,NA,NA,NA,NA,NA,NA,NA,NA
68755,shallow,flow.Sequence,5_0_2_0_7_1,NA,NA,completion,8006.7200000001,593571,593565.06,593581.44,601588.16,601592,2024-06-23T15:17:07Z,601604.86,NULL,Vergnügen,kichekesho,s,dubwana,mpanuko,mtesaji,NA,sdf,NA,2,NA,NA,NA,NA,NA,NA,NA,NA,NA,NA,NA,NA,NA,NA,NA,NA,NA,NA,NA
68755,task,flow.Sequence,5_0_2_0_7,NA,NA,completion,8006.7200000001,593571,593565.06,593581.44,601588.16,601592,2024-06-23T15:17:07Z,601604.86,NULL,Vergnügen,kichekesho,s,dubwana,mpanuko,mtesaji,NA,sdf,NA,2,NA,NA,NA,NA,NA,NA,NA,NA,NA,NA,NA,NA,NA,NA,NA,NA,NA,NA,NA
68755,block,flow.Loop,5_0_2_0,NA,NA,completion,102463.8,499123,499123.98,499124.36,601588.16,601593,2024-06-23T15:17:07Z,601604.86,NULL,NA,NA,NA,NA,NA,NA,NA,sdf,NA,2,NA,NA,NA,NA,NA,NA,NA,NA,NA,NA,NA,NA,NA,NA,NA,NA,NA,NA,NA
68755,weiter,canvas.Screen,5_0_2_1,sdf,keypress(Space),response,1503.14,601593,601588.16,601604.86,603108,603124,2024-06-23T15:17:08Z,603189.42,NULL,NA,NA,NA,NA,NA,NA,NA,sdf,NA,2,NA,NA,NA,NA,NA,NA,NA,NA,NA,NA,NA,NA,NA,NA,NA,NA,NA,NA,NA
68755,check continue,flow.Sequence,5_0_2,NA,NA,completion,103983.64,499123,499123.98,499124.36,603108,603124,2024-06-23T15:17:08Z,603189.42,NULL,NA,NA,NA,NA,NA,NA,NA,sdf,NA,2,NA,NA,NA,NA,NA,NA,NA,NA,NA,NA,NA,NA,NA,NA,NA,NA,NA,NA,NA
68755,deep,flow.Sequence,5_0_3_0_0_0,NA,NA,skipped,NA,603189,NA,NA,603108,603189,2024-06-23T15:17:08Z,603189.42,NULL,Orientierung,urekebisho,s,uelekeo,marekebisho,utunzaji,NA,qt,NA,3,NA,NA,NA,NA,NA,NA,NA,NA,NA,NA,NA,NA,NA,NA,NA,NA,NA,NA,NA
68755,Shallow Question,html.Page,5_0_3_0_0_1_0,NA,NA,form submission,6432.58,603189,603188.92,603189.42,609622,609622,2024-06-23T15:17:15Z,609628.2,NULL,Orientierung,urekebisho,s,uelekeo,marekebisho,utunzaji,urekebisho,NA,NA,3,NA,NA,NA,NA,NA,NA,NA,NA,NA,NA,NA,NA,NA,NA,NA,NA,NA,NA,NA
68755,"""Richtig""-Screen",canvas.Screen,5_0_3_0_0_1_1,NA,NA,timeout,5004,609623,609620.24,609628.2,614615.5,614620,2024-06-23T15:17:20Z,614632.2,NULL,Orientierung,urekebisho,s,uelekeo,marekebisho,utunzaji,NA,qt,1,3,NA,NA,NA,NA,NA,NA,NA,NA,NA,NA,NA,NA,NA,NA,NA,NA,NA,NA,NA
68755,"""Falsch""-Screen",canvas.Screen,5_0_3_0_0_1_2,NA,NA,skipped,NA,614631,NA,NA,614615.5,614632,2024-06-23T15:17:20Z,614632.2,NULL,Orientierung,urekebisho,s,uelekeo,marekebisho,utunzaji,NA,qt,NA,3,NA,NA,NA,NA,NA,NA,NA,NA,NA,NA,NA,NA,NA,NA,NA,NA,NA,NA,NA
68755,shallow,flow.Sequence,5_0_3_0_0_1,NA,NA,completion,11426.08,603189,603188.92,603189.42,614615.5,614632,2024-06-23T15:17:20Z,614632.2,NULL,Orientierung,urekebisho,s,uelekeo,marekebisho,utunzaji,NA,qt,NA,3,NA,NA,NA,NA,NA,NA,NA,NA,NA,NA,NA,NA,NA,NA,NA,NA,NA,NA,NA
68755,task,flow.Sequence,5_0_3_0_0,NA,NA,completion,11426.08,603189,603188.92,603189.42,614615.5,614633,2024-06-23T15:17:20Z,614632.2,NULL,Orientierung,urekebisho,s,uelekeo,marekebisho,utunzaji,NA,qt,NA,3,NA,NA,NA,NA,NA,NA,NA,NA,NA,NA,NA,NA,NA,NA,NA,NA,NA,NA,NA
68755,Deep Question,html.Page,5_0_3_0_1_0_0,NA,NA,form submission,2828.8,614633,614615.5,614632.2,617461,617461,2024-06-23T15:17:22Z,617467.92,NULL,Betrüger,mdanganyifu,d,NA,NA,NA,NA,NA,NA,3,NA,NA,NA,NA,NA,NA,NA,NA,NA,NA,NA,NA,NA,NA,NA,NA,NA,NA,NA
68755,"""Richtig""-Screen",canvas.Screen,5_0_3_0_1_0_1,NA,NA,skipped,NA,617463,NA,NA,617461,617463,2024-06-23T15:17:22Z,617467.92,NULL,Betrüger,mdanganyifu,d,NA,NA,NA,NA,qt,NA,3,NA,NA,NA,NA,NA,NA,NA,NA,NA,NA,NA,NA,NA,NA,NA,NA,NA,NA,NA
68755,"""Falsch""-Screen",canvas.Screen,5_0_3_0_1_0_2,NA,NA,timeout,5004.1,617465,617457.24,617467.92,622455.32,622457,2024-06-23T15:17:27Z,622472.02,NULL,Betrüger,mdanganyifu,d,NA,NA,NA,NA,qt,0,3,NA,NA,NA,NA,NA,NA,NA,NA,NA,NA,NA,NA,NA,NA,NA,NA,NA,NA,NA
68755,deep,flow.Sequence,5_0_3_0_1_0,NA,NA,completion,7823.12,614633,614615.5,614632.2,622455.32,622458,2024-06-23T15:17:27Z,622472.02,NULL,Betrüger,mdanganyifu,d,NA,NA,NA,NA,qt,NA,3,NA,NA,NA,NA,NA,NA,NA,NA,NA,NA,NA,NA,NA,NA,NA,NA,NA,NA,NA
68755,shallow,flow.Sequence,5_0_3_0_1_1,NA,NA,skipped,NA,622458,NA,NA,622455.32,622458,2024-06-23T15:17:27Z,622472.02,NULL,Betrüger,mdanganyifu,d,NA,NA,NA,NA,qt,NA,3,NA,NA,NA,NA,NA,NA,NA,NA,NA,NA,NA,NA,NA,NA,NA,NA,NA,NA,NA
68755,task,flow.Sequence,5_0_3_0_1,NA,NA,completion,7823.12,614633,614615.5,614632.2,622455.32,622459,2024-06-23T15:17:27Z,622472.02,NULL,Betrüger,mdanganyifu,d,NA,NA,NA,NA,qt,NA,3,NA,NA,NA,NA,NA,NA,NA,NA,NA,NA,NA,NA,NA,NA,NA,NA,NA,NA,NA
68755,deep,flow.Sequence,5_0_3_0_2_0,NA,NA,skipped,NA,622459,NA,NA,622455.32,622460,2024-06-23T15:17:27Z,622472.02,NULL,Respekt,heshima,s,changamnao,upinzani,ufanisi,NA,qt,NA,3,NA,NA,NA,NA,NA,NA,NA,NA,NA,NA,NA,NA,NA,NA,NA,NA,NA,NA,NA
68755,Shallow Question,html.Page,5_0_3_0_2_1_0,NA,NA,form submission,3779.98,622460,622455.32,622472.02,626252,626252,2024-06-23T15:17:31Z,626258.66,NULL,Respekt,heshima,s,changamnao,upinzani,ufanisi,heshima,NA,NA,3,NA,NA,NA,NA,NA,NA,NA,NA,NA,NA,NA,NA,NA,NA,NA,NA,NA,NA,NA
68755,"""Richtig""-Screen",canvas.Screen,5_0_3_0_2_1_1,NA,NA,timeout,5004.22,626254,626248.1,626258.66,631246.18,631248,2024-06-23T15:17:36Z,631262.88,NULL,Respekt,heshima,s,changamnao,upinzani,ufanisi,NA,qt,1,3,NA,NA,NA,NA,NA,NA,NA,NA,NA,NA,NA,NA,NA,NA,NA,NA,NA,NA,NA
68755,"""Falsch""-Screen",canvas.Screen,5_0_3_0_2_1_2,NA,NA,skipped,NA,631250,NA,NA,631246.18,631250,2024-06-23T15:17:36Z,631262.88,NULL,Respekt,heshima,s,changamnao,upinzani,ufanisi,NA,qt,NA,3,NA,NA,NA,NA,NA,NA,NA,NA,NA,NA,NA,NA,NA,NA,NA,NA,NA,NA,NA
68755,shallow,flow.Sequence,5_0_3_0_2_1,NA,NA,completion,8774.16,622460,622455.32,622472.02,631246.18,631250,2024-06-23T15:17:36Z,631262.88,NULL,Respekt,heshima,s,changamnao,upinzani,ufanisi,NA,qt,NA,3,NA,NA,NA,NA,NA,NA,NA,NA,NA,NA,NA,NA,NA,NA,NA,NA,NA,NA,NA
68755,task,flow.Sequence,5_0_3_0_2,NA,NA,completion,8774.16,622459,622455.32,622472.02,631246.18,631251,2024-06-23T15:17:36Z,631262.88,NULL,Respekt,heshima,s,changamnao,upinzani,ufanisi,NA,qt,NA,3,NA,NA,NA,NA,NA,NA,NA,NA,NA,NA,NA,NA,NA,NA,NA,NA,NA,NA,NA
68755,Deep Question,html.Page,5_0_3_0_3_0_0,NA,NA,form submission,3613.12,631251,631246.18,631262.88,634876,634876,2024-06-23T15:17:40Z,634882.5,NULL,Wohlstand,mafanikio,d,NA,NA,NA,NA,NA,NA,3,NA,NA,NA,NA,NA,NA,NA,NA,NA,NA,NA,NA,NA,NA,NA,NA,NA,NA,NA
68755,"""Richtig""-Screen",canvas.Screen,5_0_3_0_3_0_1,NA,NA,skipped,NA,634877,NA,NA,634876,634877,2024-06-23T15:17:40Z,634882.5,NULL,Wohlstand,mafanikio,d,NA,NA,NA,NA,qt,NA,3,NA,NA,NA,NA,NA,NA,NA,NA,NA,NA,NA,NA,NA,NA,NA,NA,NA,NA,NA
