observation,sender,sender_type,sender_id,response,response_action,ended_on,duration,time_run,time_render,time_show,time_end,time_commit,timestamp,time_switch,german,swahili,enc,distractor1,distractor2,distractor3,response_2,x,correct,distractors,url_vp,url_sess,meta_labjs_version,meta_location,meta_user_agent,meta_platform,meta_language,meta_locale,meta_time_zone,meta_timezone_offset,meta_screen_width,meta_screen_height,meta_scroll_width,meta_scroll_height,meta_window_inner_width,meta_window_inner_height,meta_device_pixel_ratio,meta_labjs_build_flavor,meta_labjs_build_commit
70820,Introduction delayed retrieval,canvas.Screen,0,weiter,keypress(Space),response,3062.3,4708,4743.04,4759.7,7822,7846,2023-09-10T09:59:24Z,7846.96,NA,NA,NA,NA,NA,NA,NA,NA,NA,NULL,180,2,20.2.4,https://neurocog.fernuni.ch/studies/vweber/sliechti/delayed/index.html?vp=180&sess=2,Mozilla/5.0 (Windows NT 10.0; Win64; x64; rv:109.0) Gecko/20100101 Firefox/116.0,Win32,de,de-CH,Europe/Zurich,-120,1280,720,1280,595,1280,595,1.5,production,f5b4a49f956347addd546a832a3327688c2c0fef
70820,Deep Question,html.Page,1_0_0_0,NA,NA,form submission,50044.04,7846,7846.6,7846.96,57891,57892,2023-09-10T10:00:14Z,57902.2,Flexibilität,kubadilika,d,enjini,usikilivu,hesabu,uhalai,NA,NA,NULL,NA,NA,NA,NA,NA,NA,NA,NA,NA,NA,NA,NA,NA,NA,NA,NA,NA,NA,NA
70820,Save data screen,canvas.Screen,1_0_0_1,NA,NA,timeout,566.68,57899,57816.02,57902.2,58385.56,58387,2023-09-10T10:00:15Z,58468.88,Flexibilität,kubadilika,d,enjini,usikilivu,hesabu,NA,NA,0,NULL,NA,NA,NA,NA,NA,NA,NA,NA,NA,NA,NA,NA,NA,NA,NA,NA,NA,NA,NA
70820,deep,flow.Sequence,1_0_0,NA,NA,completion,50538.6,7846,7846.6,7846.96,58385.56,58388,2023-09-10T10:00:15Z,58468.88,Flexibilität,kubadilika,d,enjini,usikilivu,hesabu,NA,NA,NA,NULL,NA,NA,NA,NA,NA,NA,NA,NA,NA,NA,NA,NA,NA,NA,NA,NA,NA,NA,NA
70820,task,flow.Sequence,1_0,NA,NA,completion,50538.6,7846,7846.6,7846.96,58385.56,58389,2023-09-10T10:00:15Z,58468.88,Flexibilität,kubadilika,d,enjini,usikilivu,hesabu,NA,NA,NA,NULL,NA,NA,NA,NA,NA,NA,NA,NA,NA,NA,NA,NA,NA,NA,NA,NA,NA,NA,NA
70820,Deep Question,html.Page,1_1_0_0,NA,NA,form submission,26281.12,58392,58385.56,58468.88,84750,84757,2023-09-10T10:00:41Z,84781.88,Orientierung,urekebisho,s,uelekeo,marekebisho,utunzaji,khalumi,NA,NA,NULL,NA,NA,NA,NA,NA,NA,NA,NA,NA,NA,NA,NA,NA,NA,NA,NA,NA,NA,NA
70820,Save data screen,canvas.Screen,1_1_0_1,NA,NA,timeout,499.92,84766,84741.08,84781.88,85265.12,85266,2023-09-10T10:00:41Z,85281.8,Orientierung,urekebisho,s,uelekeo,marekebisho,utunzaji,NA,NA,0,NULL,NA,NA,NA,NA,NA,NA,NA,NA,NA,NA,NA,NA,NA,NA,NA,NA,NA,NA,NA
70820,deep,flow.Sequence,1_1_0,NA,NA,completion,26796.24,58392,58385.56,58468.88,85265.12,85267,2023-09-10T10:00:41Z,85281.8,Orientierung,urekebisho,s,uelekeo,marekebisho,utunzaji,NA,NA,NA,NULL,NA,NA,NA,NA,NA,NA,NA,NA,NA,NA,NA,NA,NA,NA,NA,NA,NA,NA,NA
70820,task,flow.Sequence,1_1,NA,NA,completion,26796.24,58392,58385.56,58468.88,85265.12,85268,2023-09-10T10:00:41Z,85281.8,Orientierung,urekebisho,s,uelekeo,marekebisho,utunzaji,NA,NA,NA,NULL,NA,NA,NA,NA,NA,NA,NA,NA,NA,NA,NA,NA,NA,NA,NA,NA,NA,NA,NA
70820,Deep Question,html.Page,1_2_0_0,NA,NA,form submission,102490.2,85271,85265.12,85281.8,187772,187773,2023-09-10T10:02:24Z,187767.5,Begegnung,kukutana,d,mmasihiya,mpiganaji,husiano,kukutuka,NA,NA,NULL,NA,NA,NA,NA,NA,NA,NA,NA,NA,NA,NA,NA,NA,NA,NA,NA,NA,NA,NA
70820,Save data screen,canvas.Screen,1_2_0_1,NA,NA,timeout,499.89999999999,187776,187767.26,187767.5,188250.74,188252,2023-09-10T10:02:24Z,188267.4,Begegnung,kukutana,d,mmasihiya,mpiganaji,husiano,NA,NA,0,NULL,NA,NA,NA,NA,NA,NA,NA,NA,NA,NA,NA,NA,NA,NA,NA,NA,NA,NA,NA
70820,deep,flow.Sequence,1_2_0,NA,NA,completion,102968.94,85271,85265.12,85281.8,188250.74,188254,2023-09-10T10:02:24Z,188267.4,Begegnung,kukutana,d,mmasihiya,mpiganaji,husiano,NA,NA,NA,NULL,NA,NA,NA,NA,NA,NA,NA,NA,NA,NA,NA,NA,NA,NA,NA,NA,NA,NA,NA
70820,task,flow.Sequence,1_2,NA,NA,completion,102968.94,85271,85265.12,85281.8,188250.74,188254,2023-09-10T10:02:24Z,188267.4,Begegnung,kukutana,d,mmasihiya,mpiganaji,husiano,NA,NA,NA,NULL,NA,NA,NA,NA,NA,NA,NA,NA,NA,NA,NA,NA,NA,NA,NA,NA,NA,NA,NA
70820,Deep Question,html.Page,1_3_0_0,NA,NA,form submission,31434.6,188255,188250.74,188267.4,219702,219703,2023-09-10T10:02:56Z,219713.04,Respekt,heshima,s,changamnao,upinzani,ufanisi,ukafiu,NA,NA,NULL,NA,NA,NA,NA,NA,NA,NA,NA,NA,NA,NA,NA,NA,NA,NA,NA,NA,NA,NA
70820,Save data screen,canvas.Screen,1_3_0_1,NA,NA,timeout,499.97999999998,219706,219697.96,219713.04,220196.34,220198,2023-09-10T10:02:56Z,220213.02,Respekt,heshima,s,changamnao,upinzani,ufanisi,NA,NA,0,NULL,NA,NA,NA,NA,NA,NA,NA,NA,NA,NA,NA,NA,NA,NA,NA,NA,NA,NA,NA
70820,deep,flow.Sequence,1_3_0,NA,NA,completion,31928.94,188255,188250.74,188267.4,220196.34,220198,2023-09-10T10:02:56Z,220213.02,Respekt,heshima,s,changamnao,upinzani,ufanisi,NA,NA,NA,NULL,NA,NA,NA,NA,NA,NA,NA,NA,NA,NA,NA,NA,NA,NA,NA,NA,NA,NA,NA
70820,task,flow.Sequence,1_3,NA,NA,completion,31928.94,188255,188250.74,188267.4,220196.34,220198,2023-09-10T10:02:56Z,220213.02,Respekt,heshima,s,changamnao,upinzani,ufanisi,NA,NA,NA,NULL,NA,NA,NA,NA,NA,NA,NA,NA,NA,NA,NA,NA,NA,NA,NA,NA,NA,NA,NA
70820,Deep Question,html.Page,1_4_0_0,NA,NA,form submission,22866.98,220199,220196.34,220213.02,243080,243081,2023-09-10T10:03:19Z,243093.1,Erneuerung,ukarabati,s,ushawishi,ukalifu,unyonyaji,munagzi,NA,NA,NULL,NA,NA,NA,NA,NA,NA,NA,NA,NA,NA,NA,NA,NA,NA,NA,NA,NA,NA,NA
70820,Save data screen,canvas.Screen,1_4_0_1,NA,NA,timeout,499.95999999999,243083,243076.98,243093.1,243576.4,243577,2023-09-10T10:03:20Z,243593.06,Erneuerung,ukarabati,s,ushawishi,ukalifu,unyonyaji,NA,NA,0,NULL,NA,NA,NA,NA,NA,NA,NA,NA,NA,NA,NA,NA,NA,NA,NA,NA,NA,NA,NA
70820,deep,flow.Sequence,1_4_0,NA,NA,completion,23363.38,220199,220196.34,220213.02,243576.4,243578,2023-09-10T10:03:20Z,243593.06,Erneuerung,ukarabati,s,ushawishi,ukalifu,unyonyaji,NA,NA,NA,NULL,NA,NA,NA,NA,NA,NA,NA,NA,NA,NA,NA,NA,NA,NA,NA,NA,NA,NA,NA
70820,task,flow.Sequence,1_4,NA,NA,completion,23363.38,220199,220196.34,220213.02,243576.4,243578,2023-09-10T10:03:20Z,243593.06,Erneuerung,ukarabati,s,ushawishi,ukalifu,unyonyaji,NA,NA,NA,NULL,NA,NA,NA,NA,NA,NA,NA,NA,NA,NA,NA,NA,NA,NA,NA,NA,NA,NA,NA
70820,Deep Question,html.Page,1_5_0_0,NA,NA,form submission,71827.94,243579,243576.4,243593.06,315421,315421,2023-09-10T10:04:32Z,315416.36,Betrüger,mdanganyifu,d,mwanamuziki,wastani,mahakama,mdgangnkli,NA,NA,NULL,NA,NA,NA,NA,NA,NA,NA,NA,NA,NA,NA,NA,NA,NA,NA,NA,NA,NA,NA
70820,Save data screen,canvas.Screen,1_5_0_1,NA,NA,timeout,499.90000000002,315424,315415.78,315416.36,315899.6,315900,2023-09-10T10:04:32Z,315916.26,Betrüger,mdanganyifu,d,mwanamuziki,wastani,mahakama,NA,NA,0,NULL,NA,NA,NA,NA,NA,NA,NA,NA,NA,NA,NA,NA,NA,NA,NA,NA,NA,NA,NA
70820,deep,flow.Sequence,1_5_0,NA,NA,completion,72306.54,243579,243576.4,243593.06,315899.6,315901,2023-09-10T10:04:32Z,315916.26,Betrüger,mdanganyifu,d,mwanamuziki,wastani,mahakama,NA,NA,NA,NULL,NA,NA,NA,NA,NA,NA,NA,NA,NA,NA,NA,NA,NA,NA,NA,NA,NA,NA,NA
70820,task,flow.Sequence,1_5,NA,NA,completion,72306.54,243579,243576.4,243593.06,315899.6,315901,2023-09-10T10:04:32Z,315916.26,Betrüger,mdanganyifu,d,mwanamuziki,wastani,mahakama,NA,NA,NA,NULL,NA,NA,NA,NA,NA,NA,NA,NA,NA,NA,NA,NA,NA,NA,NA,NA,NA,NA,NA
70820,Deep Question,html.Page,1_6_0_0,NA,NA,form submission,15188.74,315901,315899.6,315916.26,331105,331105,2023-09-10T10:04:47Z,331114.16,Papier,karatasi,s,uchambuzi,usalama,kukataliwa,kardusi,NA,NA,NULL,NA,NA,NA,NA,NA,NA,NA,NA,NA,NA,NA,NA,NA,NA,NA,NA,NA,NA,NA
70820,Save data screen,canvas.Screen,1_6_0_1,NA,NA,timeout,499.98000000004,331108,331100.66,331114.16,331597.48,331598,2023-09-10T10:04:48Z,331614.14,Papier,karatasi,s,uchambuzi,usalama,kukataliwa,NA,NA,0,NULL,NA,NA,NA,NA,NA,NA,NA,NA,NA,NA,NA,NA,NA,NA,NA,NA,NA,NA,NA
70820,deep,flow.Sequence,1_6_0,NA,NA,completion,15681.22,315901,315899.6,315916.26,331597.48,331599,2023-09-10T10:04:48Z,331614.14,Papier,karatasi,s,uchambuzi,usalama,kukataliwa,NA,NA,NA,NULL,NA,NA,NA,NA,NA,NA,NA,NA,NA,NA,NA,NA,NA,NA,NA,NA,NA,NA,NA
70820,task,flow.Sequence,1_6,NA,NA,completion,15681.22,315901,315899.6,315916.26,331597.48,331600,2023-09-10T10:04:48Z,331614.14,Papier,karatasi,s,uchambuzi,usalama,kukataliwa,NA,NA,NA,NULL,NA,NA,NA,NA,NA,NA,NA,NA,NA,NA,NA,NA,NA,NA,NA,NA,NA,NA,NA
70820,Deep Question,html.Page,1_7_0_0,NA,NA,form submission,16959.86,331601,331597.48,331614.14,348574,348574,2023-09-10T10:05:05Z,348578.46,Genehmigung,idhini,d,mwanamke,itikadi,fedheha,agnami,NA,NA,NULL,NA,NA,NA,NA,NA,NA,NA,NA,NA,NA,NA,NA,NA,NA,NA,NA,NA,NA,NA
70820,Save data screen,canvas.Screen,1_7_0_1,NA,NA,timeout,499.91999999998,348577,348570.34,348578.46,349061.72,349063,2023-09-10T10:05:05Z,349078.38,Genehmigung,idhini,d,mwanamke,itikadi,fedheha,NA,NA,0,NULL,NA,NA,NA,NA,NA,NA,NA,NA,NA,NA,NA,NA,NA,NA,NA,NA,NA,NA,NA
70820,deep,flow.Sequence,1_7_0,NA,NA,completion,17447.58,331601,331597.48,331614.14,349061.72,349063,2023-09-10T10:05:05Z,349078.38,Genehmigung,idhini,d,mwanamke,itikadi,fedheha,NA,NA,NA,NULL,NA,NA,NA,NA,NA,NA,NA,NA,NA,NA,NA,NA,NA,NA,NA,NA,NA,NA,NA
70820,task,flow.Sequence,1_7,NA,NA,completion,17447.58,331600,331597.48,331614.14,349061.72,349063,2023-09-10T10:05:05Z,349078.38,Genehmigung,idhini,d,mwanamke,itikadi,fedheha,NA,NA,NA,NULL,NA,NA,NA,NA,NA,NA,NA,NA,NA,NA,NA,NA,NA,NA,NA,NA,NA,NA,NA
70820,Deep Question,html.Page,1_8_0_0,NA,NA,form submission,27557.62,349065,349061.72,349078.38,376636,376637,2023-09-10T10:05:33Z,376641.14,Atmosphäre,angahewa,d,kuteseka,usahihi,kutoamini,agmosmi,NA,NA,NULL,NA,NA,NA,NA,NA,NA,NA,NA,NA,NA,NA,NA,NA,NA,NA,NA,NA,NA,NA
70820,Save data screen,canvas.Screen,1_8_0_1,NA,NA,timeout,499.94,376639,376631.92,376641.14,377124.4,377126,2023-09-10T10:05:33Z,377141.08,Atmosphäre,angahewa,d,kuteseka,usahihi,kutoamini,NA,NA,0,NULL,NA,NA,NA,NA,NA,NA,NA,NA,NA,NA,NA,NA,NA,NA,NA,NA,NA,NA,NA
70820,deep,flow.Sequence,1_8_0,NA,NA,completion,28046.02,349064,349061.72,349078.38,377124.4,377127,2023-09-10T10:05:33Z,377141.08,Atmosphäre,angahewa,d,kuteseka,usahihi,kutoamini,NA,NA,NA,NULL,NA,NA,NA,NA,NA,NA,NA,NA,NA,NA,NA,NA,NA,NA,NA,NA,NA,NA,NA
70820,task,flow.Sequence,1_8,NA,NA,completion,28046.02,349064,349061.72,349078.38,377124.4,377127,2023-09-10T10:05:33Z,377141.08,Atmosphäre,angahewa,d,kuteseka,usahihi,kutoamini,NA,NA,NA,NULL,NA,NA,NA,NA,NA,NA,NA,NA,NA,NA,NA,NA,NA,NA,NA,NA,NA,NA,NA
70820,Deep Question,html.Page,1_9_0_0,NA,NA,form submission,11579.92,377128,377124.4,377141.08,388721,388721,2023-09-10T10:05:45Z,388722.84,Integrität,uadilifu,s,muungano,mtiririko,upunguaji,unduni,NA,NA,NULL,NA,NA,NA,NA,NA,NA,NA,NA,NA,NA,NA,NA,NA,NA,NA,NA,NA,NA,NA
70820,Save data screen,canvas.Screen,1_9_0_1,NA,NA,timeout,499.95999999996,388724,388717.16,388722.84,389206.14,389210,2023-09-10T10:05:45Z,389222.8,Integrität,uadilifu,s,muungano,mtiririko,upunguaji,NA,NA,0,NULL,NA,NA,NA,NA,NA,NA,NA,NA,NA,NA,NA,NA,NA,NA,NA,NA,NA,NA,NA
70820,deep,flow.Sequence,1_9_0,NA,NA,completion,12065.06,377128,377124.4,377141.08,389206.14,389212,2023-09-10T10:05:45Z,389222.8,Integrität,uadilifu,s,muungano,mtiririko,upunguaji,NA,NA,NA,NULL,NA,NA,NA,NA,NA,NA,NA,NA,NA,NA,NA,NA,NA,NA,NA,NA,NA,NA,NA
70820,task,flow.Sequence,1_9,NA,NA,completion,12065.06,377127,377124.4,377141.08,389206.14,389212,2023-09-10T10:05:45Z,389222.8,Integrität,uadilifu,s,muungano,mtiririko,upunguaji,NA,NA,NA,NULL,NA,NA,NA,NA,NA,NA,NA,NA,NA,NA,NA,NA,NA,NA,NA,NA,NA,NA,NA
70820,Deep Question,html.Page,1_10_0_0,NA,NA,form submission,22852.2,389213,389206.14,389222.8,412075,412077,2023-09-10T10:06:08Z,412086.22,Entwicklung,maendeleo,d,uangavu,mshindwa,badiliko,mandeleo,NA,NA,NULL,NA,NA,NA,NA,NA,NA,NA,NA,NA,NA,NA,NA,NA,NA,NA,NA,NA,NA,NA
70820,Save data screen,canvas.Screen,1_10_0_1,NA,NA,timeout,499.96000000002,412084,412068.42,412086.22,412569.54,412571,2023-09-10T10:06:09Z,412586.18,Entwicklung,maendeleo,d,uangavu,mshindwa,badiliko,NA,NA,0,NULL,NA,NA,NA,NA,NA,NA,NA,NA,NA,NA,NA,NA,NA,NA,NA,NA,NA,NA,NA
70820,deep,flow.Sequence,1_10_0,NA,NA,completion,23346.74,389213,389206.14,389222.8,412569.54,412572,2023-09-10T10:06:09Z,412586.18,Entwicklung,maendeleo,d,uangavu,mshindwa,badiliko,NA,NA,NA,NULL,NA,NA,NA,NA,NA,NA,NA,NA,NA,NA,NA,NA,NA,NA,NA,NA,NA,NA,NA
70820,task,flow.Sequence,1_10,NA,NA,completion,23346.74,389213,389206.14,389222.8,412569.54,412573,2023-09-10T10:06:09Z,412586.18,Entwicklung,maendeleo,d,uangavu,mshindwa,badiliko,NA,NA,NA,NULL,NA,NA,NA,NA,NA,NA,NA,NA,NA,NA,NA,NA,NA,NA,NA,NA,NA,NA,NA
70820,Deep Question,html.Page,1_11_0_0,NA,NA,form submission,29269.82,412575,412569.54,412586.18,441856,441857,2023-09-10T10:06:38Z,441865.42,Fleisch,mshakiki,s,kizunguzungu,mshikamano,angusho,khunosho,NA,NA,NULL,NA,NA,NA,NA,NA,NA,NA,NA,NA,NA,NA,NA,NA,NA,NA,NA,NA,NA,NA
70820,Save data screen,canvas.Screen,1_11_0_1,NA,NA,timeout,499.94,441859,441851.56,441865.42,442348.7,442349,2023-09-10T10:06:39Z,442365.36,Fleisch,mshakiki,s,kizunguzungu,mshikamano,angusho,NA,NA,0,NULL,NA,NA,NA,NA,NA,NA,NA,NA,NA,NA,NA,NA,NA,NA,NA,NA,NA,NA,NA
70820,deep,flow.Sequence,1_11_0,NA,NA,completion,29762.52,412575,412569.54,412586.18,442348.7,442350,2023-09-10T10:06:39Z,442365.36,Fleisch,mshakiki,s,kizunguzungu,mshikamano,angusho,NA,NA,NA,NULL,NA,NA,NA,NA,NA,NA,NA,NA,NA,NA,NA,NA,NA,NA,NA,NA,NA,NA,NA
70820,task,flow.Sequence,1_11,NA,NA,completion,29762.52,412575,412569.54,412586.18,442348.7,442351,2023-09-10T10:06:39Z,442365.36,Fleisch,mshakiki,s,kizunguzungu,mshikamano,angusho,NA,NA,NA,NULL,NA,NA,NA,NA,NA,NA,NA,NA,NA,NA,NA,NA,NA,NA,NA,NA,NA,NA,NA
70820,Deep Question,html.Page,1_12_0_0,NA,NA,form submission,34282.64,442352,442348.7,442365.36,476648,476652,2023-09-10T10:07:13Z,476660.54,Stimmung,kinyongo,d,kilekile,kisambo,madhehebu,mangzi,NA,NA,NULL,NA,NA,NA,NA,NA,NA,NA,NA,NA,NA,NA,NA,NA,NA,NA,NA,NA,NA,NA
70820,Save data screen,canvas.Screen,1_12_0_1,NA,NA,timeout,499.94,476664,476638.56,476660.54,477143.82,477145,2023-09-10T10:07:13Z,477160.48,Stimmung,kinyongo,d,kilekile,kisambo,madhehebu,NA,NA,0,NULL,NA,NA,NA,NA,NA,NA,NA,NA,NA,NA,NA,NA,NA,NA,NA,NA,NA,NA,NA
70820,deep,flow.Sequence,1_12_0,NA,NA,completion,34778.46,442351,442348.7,442365.36,477143.82,477147,2023-09-10T10:07:13Z,477160.48,Stimmung,kinyongo,d,kilekile,kisambo,madhehebu,NA,NA,NA,NULL,NA,NA,NA,NA,NA,NA,NA,NA,NA,NA,NA,NA,NA,NA,NA,NA,NA,NA,NA
70820,task,flow.Sequence,1_12,NA,NA,completion,34778.46,442351,442348.7,442365.36,477143.82,477148,2023-09-10T10:07:13Z,477160.48,Stimmung,kinyongo,d,kilekile,kisambo,madhehebu,NA,NA,NA,NULL,NA,NA,NA,NA,NA,NA,NA,NA,NA,NA,NA,NA,NA,NA,NA,NA,NA,NA,NA
70820,Deep Question,html.Page,1_13_0_0,NA,NA,form submission,20491.52,477150,477143.82,477160.48,497652,497653,2023-09-10T10:07:34Z,497657.62,Wechsel,ugeuzaji,s,utambulisho,kujenga,wasiwasi,gunanu,NA,NA,NULL,NA,NA,NA,NA,NA,NA,NA,NA,NA,NA,NA,NA,NA,NA,NA,NA,NA,NA,NA
70820,Save data screen,canvas.Screen,1_13_0_1,NA,NA,timeout,499.91999999998,497656,497648.32,497657.62,498140.9,498142,2023-09-10T10:07:34Z,498157.54,Wechsel,ugeuzaji,s,utambulisho,kujenga,wasiwasi,NA,NA,0,NULL,NA,NA,NA,NA,NA,NA,NA,NA,NA,NA,NA,NA,NA,NA,NA,NA,NA,NA,NA
70820,deep,flow.Sequence,1_13_0,NA,NA,completion,20980.42,477150,477143.82,477160.48,498140.9,498143,2023-09-10T10:07:34Z,498157.54,Wechsel,ugeuzaji,s,utambulisho,kujenga,wasiwasi,NA,NA,NA,NULL,NA,NA,NA,NA,NA,NA,NA,NA,NA,NA,NA,NA,NA,NA,NA,NA,NA,NA,NA
70820,task,flow.Sequence,1_13,NA,NA,completion,20980.42,477150,477143.82,477160.48,498140.9,498144,2023-09-10T10:07:34Z,498157.54,Wechsel,ugeuzaji,s,utambulisho,kujenga,wasiwasi,NA,NA,NA,NULL,NA,NA,NA,NA,NA,NA,NA,NA,NA,NA,NA,NA,NA,NA,NA,NA,NA,NA,NA
70820,Deep Question,html.Page,1_14_0_0,NA,NA,form submission,22971.46,498145,498140.9,498157.54,521129,521130,2023-09-10T10:07:57Z,521137.66,Niveau,kiwango,s,usimamizi,mwamali,mshairi,unishi,NA,NA,NULL,NA,NA,NA,NA,NA,NA,NA,NA,NA,NA,NA,NA,NA,NA,NA,NA,NA,NA,NA
70820,Save data screen,canvas.Screen,1_14_0_1,NA,NA,timeout,499.94,521132,521126.32,521137.66,521620.96,521622,2023-09-10T10:07:58Z,521637.6,Niveau,kiwango,s,usimamizi,mwamali,mshairi,NA,NA,0,NULL,NA,NA,NA,NA,NA,NA,NA,NA,NA,NA,NA,NA,NA,NA,NA,NA,NA,NA,NA
70820,deep,flow.Sequence,1_14_0,NA,NA,completion,23463.42,498145,498140.9,498157.54,521620.96,521623,2023-09-10T10:07:58Z,521637.6,Niveau,kiwango,s,usimamizi,mwamali,mshairi,NA,NA,NA,NULL,NA,NA,NA,NA,NA,NA,NA,NA,NA,NA,NA,NA,NA,NA,NA,NA,NA,NA,NA
70820,task,flow.Sequence,1_14,NA,NA,completion,23463.42,498144,498140.9,498157.54,521620.96,521624,2023-09-10T10:07:58Z,521637.6,Niveau,kiwango,s,usimamizi,mwamali,mshairi,NA,NA,NA,NULL,NA,NA,NA,NA,NA,NA,NA,NA,NA,NA,NA,NA,NA,NA,NA,NA,NA,NA,NA
70820,Deep Question,html.Page,1_15_0_0,NA,NA,form submission,16454.4,521625,521620.96,521637.6,538092,538092,2023-09-10T10:08:14Z,538101.94,Vorwurf,mashtaka,d,msukumo,mtangulizi,uenyekiti,khulumni,NA,NA,NULL,NA,NA,NA,NA,NA,NA,NA,NA,NA,NA,NA,NA,NA,NA,NA,NA,NA,NA,NA
70820,Save data screen,canvas.Screen,1_15_0_1,NA,NA,timeout,499.96000000008,538094,538087.98,538101.94,538585.22,538587,2023-09-10T10:08:15Z,538601.9,Vorwurf,mashtaka,d,msukumo,mtangulizi,uenyekiti,NA,NA,0,NULL,NA,NA,NA,NA,NA,NA,NA,NA,NA,NA,NA,NA,NA,NA,NA,NA,NA,NA,NA
70820,deep,flow.Sequence,1_15_0,NA,NA,completion,16947.62,521625,521620.96,521637.6,538585.22,538589,2023-09-10T10:08:15Z,538601.9,Vorwurf,mashtaka,d,msukumo,mtangulizi,uenyekiti,NA,NA,NA,NULL,NA,NA,NA,NA,NA,NA,NA,NA,NA,NA,NA,NA,NA,NA,NA,NA,NA,NA,NA
70820,task,flow.Sequence,1_15,NA,NA,completion,16947.62,521625,521620.96,521637.6,538585.22,538589,2023-09-10T10:08:15Z,538601.9,Vorwurf,mashtaka,d,msukumo,mtangulizi,uenyekiti,NA,NA,NA,NULL,NA,NA,NA,NA,NA,NA,NA,NA,NA,NA,NA,NA,NA,NA,NA,NA,NA,NA,NA
70820,retrieval block 1 (cued recall),flow.Loop,1,NA,NA,completion,530738.26,7846,7846.6,7846.96,538585.22,538591,2023-09-10T10:08:15Z,538601.9,NA,NA,NA,NA,NA,NA,NA,NA,NA,NULL,NA,NA,NA,NA,NA,NA,NA,NA,NA,NA,NA,NA,NA,NA,NA,NA,NA,NA,NA
70820,Shallow Question,html.Page,2_0_0_0,NA,NA,form submission,8973.1,538591,538585.22,538601.9,547575,547575,2023-09-10T10:08:24Z,547583.96,Integrität,uadilifu,s,muungano,mtiririko,upunguaji,uadilifu,NA,NA,"c(""distractor1"", ""distractor2"", ""distractor3"")",NA,NA,NA,NA,NA,NA,NA,NA,NA,NA,NA,NA,NA,NA,NA,NA,NA,NA,NA
70820,Save data screen,canvas.Screen,2_0_0_1,NA,NA,timeout,499.90000000002,547577,547571.84,547583.96,548067.2,548068,2023-09-10T10:08:24Z,548083.86,Integrität,uadilifu,s,muungano,mtiririko,upunguaji,NA,NA,1,"c(""distractor1"", ""distractor2"", ""distractor3"")",NA,NA,NA,NA,NA,NA,NA,NA,NA,NA,NA,NA,NA,NA,NA,NA,NA,NA,NA
70820,shallow,flow.Sequence,2_0_0,NA,NA,completion,9465.2999999999,538591,538585.22,538601.9,548067.2,548069,2023-09-10T10:08:24Z,548083.86,Integrität,uadilifu,s,muungano,mtiririko,upunguaji,NA,NA,NA,"c(""distractor1"", ""distractor2"", ""distractor3"")",NA,NA,NA,NA,NA,NA,NA,NA,NA,NA,NA,NA,NA,NA,NA,NA,NA,NA,NA
70820,task,flow.Sequence,2_0,NA,NA,completion,9465.2999999999,538591,538585.22,538601.9,548067.2,548069,2023-09-10T10:08:24Z,548083.86,Integrität,uadilifu,s,muungano,mtiririko,upunguaji,NA,NA,NA,"c(""distractor1"", ""distractor2"", ""distractor3"")",NA,NA,NA,NA,NA,NA,NA,NA,NA,NA,NA,NA,NA,NA,NA,NA,NA,NA,NA
70820,Shallow Question,html.Page,2_1_0_0,NA,NA,form submission,10143.14,548070,548067.2,548083.86,558227,558227,2023-09-10T10:08:34Z,558232.54,Erneuerung,ukarabati,s,ushawishi,ukalifu,unyonyaji,ukarabati,NA,NA,"c(""distractor1"", ""distractor2"", ""distractor3"")",NA,NA,NA,NA,NA,NA,NA,NA,NA,NA,NA,NA,NA,NA,NA,NA,NA,NA,NA
70820,Save data screen,canvas.Screen,2_1_0_1,NA,NA,timeout,499.85999999999,558230,558224.5,558232.54,558715.82,558718,2023-09-10T10:08:35Z,558732.4,Erneuerung,ukarabati,s,ushawishi,ukalifu,unyonyaji,NA,NA,1,"c(""distractor1"", ""distractor2"", ""distractor3"")",NA,NA,NA,NA,NA,NA,NA,NA,NA,NA,NA,NA,NA,NA,NA,NA,NA,NA,NA
70820,shallow,flow.Sequence,2_1_0,NA,NA,completion,10631.96,548070,548067.2,548083.86,558715.82,558719,2023-09-10T10:08:35Z,558732.4,Erneuerung,ukarabati,s,ushawishi,ukalifu,unyonyaji,NA,NA,NA,"c(""distractor1"", ""distractor2"", ""distractor3"")",NA,NA,NA,NA,NA,NA,NA,NA,NA,NA,NA,NA,NA,NA,NA,NA,NA,NA,NA
70820,task,flow.Sequence,2_1,NA,NA,completion,10631.96,548070,548067.2,548083.86,558715.82,558719,2023-09-10T10:08:35Z,558732.4,Erneuerung,ukarabati,s,ushawishi,ukalifu,unyonyaji,NA,NA,NA,"c(""distractor1"", ""distractor2"", ""distractor3"")",NA,NA,NA,NA,NA,NA,NA,NA,NA,NA,NA,NA,NA,NA,NA,NA,NA,NA,NA
70820,Shallow Question,html.Page,2_2_0_0,NA,NA,form submission,10393.6,558720,558715.82,558732.4,569126,569126,2023-09-10T10:08:45Z,569131,Begegnung,kukutana,d,mmasihiya,mpiganaji,husiano,kukutana,NA,NA,"c(""distractor1"", ""distractor2"", ""distractor3"")",NA,NA,NA,NA,NA,NA,NA,NA,NA,NA,NA,NA,NA,NA,NA,NA,NA,NA,NA
70820,Save data screen,canvas.Screen,2_2_0_1,NA,NA,timeout,499.97999999998,569129,569121.54,569131,569614.3,569615,2023-09-10T10:08:46Z,569630.98,Begegnung,kukutana,d,mmasihiya,mpiganaji,husiano,NA,NA,1,"c(""distractor1"", ""distractor2"", ""distractor3"")",NA,NA,NA,NA,NA,NA,NA,NA,NA,NA,NA,NA,NA,NA,NA,NA,NA,NA,NA
70820,shallow,flow.Sequence,2_2_0,NA,NA,completion,10881.9,558719,558715.82,558732.4,569614.3,569616,2023-09-10T10:08:46Z,569630.98,Begegnung,kukutana,d,mmasihiya,mpiganaji,husiano,NA,NA,NA,"c(""distractor1"", ""distractor2"", ""distractor3"")",NA,NA,NA,NA,NA,NA,NA,NA,NA,NA,NA,NA,NA,NA,NA,NA,NA,NA,NA
70820,task,flow.Sequence,2_2,NA,NA,completion,10881.9,558719,558715.82,558732.4,569614.3,569616,2023-09-10T10:08:46Z,569630.98,Begegnung,kukutana,d,mmasihiya,mpiganaji,husiano,NA,NA,NA,"c(""distractor1"", ""distractor2"", ""distractor3"")",NA,NA,NA,NA,NA,NA,NA,NA,NA,NA,NA,NA,NA,NA,NA,NA,NA,NA,NA
70820,Shallow Question,html.Page,2_3_0_0,NA,NA,form submission,4436.02,569618,569614.3,569630.98,574067,574067,2023-09-10T10:08:50Z,574080.34,Niveau,kiwango,s,usimamizi,mwamali,mshairi,kiwango,NA,NA,"c(""distractor1"", ""distractor2"", ""distractor3"")",NA,NA,NA,NA,NA,NA,NA,NA,NA,NA,NA,NA,NA,NA,NA,NA,NA,NA,NA
70820,Save data screen,canvas.Screen,2_3_0_1,NA,NA,timeout,499.94000000006,574070,574064.04,574080.34,574563.6,574565,2023-09-10T10:08:51Z,574580.28,Niveau,kiwango,s,usimamizi,mwamali,mshairi,NA,NA,1,"c(""distractor1"", ""distractor2"", ""distractor3"")",NA,NA,NA,NA,NA,NA,NA,NA,NA,NA,NA,NA,NA,NA,NA,NA,NA,NA,NA
70820,shallow,flow.Sequence,2_3_0,NA,NA,completion,4932.62,569617,569614.3,569630.98,574563.6,574565,2023-09-10T10:08:51Z,574580.28,Niveau,kiwango,s,usimamizi,mwamali,mshairi,NA,NA,NA,"c(""distractor1"", ""distractor2"", ""distractor3"")",NA,NA,NA,NA,NA,NA,NA,NA,NA,NA,NA,NA,NA,NA,NA,NA,NA,NA,NA
70820,task,flow.Sequence,2_3,NA,NA,completion,4932.62,569617,569614.3,569630.98,574563.6,574566,2023-09-10T10:08:51Z,574580.28,Niveau,kiwango,s,usimamizi,mwamali,mshairi,NA,NA,NA,"c(""distractor1"", ""distractor2"", ""distractor3"")",NA,NA,NA,NA,NA,NA,NA,NA,NA,NA,NA,NA,NA,NA,NA,NA,NA,NA,NA
70820,Shallow Question,html.Page,2_4_0_0,NA,NA,form submission,6746.72,574566,574563.6,574580.28,581327,581328,2023-09-10T10:08:58Z,581329.28,Papier,karatasi,s,uchambuzi,usalama,kukataliwa,karatasi,NA,NA,"c(""distractor1"", ""distractor2"", ""distractor3"")",NA,NA,NA,NA,NA,NA,NA,NA,NA,NA,NA,NA,NA,NA,NA,NA,NA,NA,NA
70820,Save data screen,canvas.Screen,2_4_0_1,NA,NA,timeout,499.88,581331,581323.9,581329.28,581812.58,581818,2023-09-10T10:08:58Z,581829.16,Papier,karatasi,s,uchambuzi,usalama,kukataliwa,NA,NA,1,"c(""distractor1"", ""distractor2"", ""distractor3"")",NA,NA,NA,NA,NA,NA,NA,NA,NA,NA,NA,NA,NA,NA,NA,NA,NA,NA,NA
70820,shallow,flow.Sequence,2_4_0,NA,NA,completion,7232.2999999999,574566,574563.6,574580.28,581812.58,581820,2023-09-10T10:08:58Z,581829.16,Papier,karatasi,s,uchambuzi,usalama,kukataliwa,NA,NA,NA,"c(""distractor1"", ""distractor2"", ""distractor3"")",NA,NA,NA,NA,NA,NA,NA,NA,NA,NA,NA,NA,NA,NA,NA,NA,NA,NA,NA
70820,task,flow.Sequence,2_4,NA,NA,completion,7232.2999999999,574566,574563.6,574580.28,581812.58,581821,2023-09-10T10:08:58Z,581829.16,Papier,karatasi,s,uchambuzi,usalama,kukataliwa,NA,NA,NA,"c(""distractor1"", ""distractor2"", ""distractor3"")",NA,NA,NA,NA,NA,NA,NA,NA,NA,NA,NA,NA,NA,NA,NA,NA,NA,NA,NA
70820,Shallow Question,html.Page,2_5_0_0,NA,NA,form submission,9788.84,581821,581812.58,581829.16,591618,591621,2023-09-10T10:09:08Z,591627.86,Flexibilität,kubadilika,d,enjini,usikilivu,hesabu,kubadilika,NA,NA,"c(""distractor1"", ""distractor2"", ""distractor3"")",NA,NA,NA,NA,NA,NA,NA,NA,NA,NA,NA,NA,NA,NA,NA,NA,NA,NA,NA
70820,Save data screen,canvas.Screen,2_5_0_1,NA,NA,timeout,499.92000000004,591631,591610.42,591627.86,592111.12,592113,2023-09-10T10:09:08Z,592127.78,Flexibilität,kubadilika,d,enjini,usikilivu,hesabu,NA,NA,1,"c(""distractor1"", ""distractor2"", ""distractor3"")",NA,NA,NA,NA,NA,NA,NA,NA,NA,NA,NA,NA,NA,NA,NA,NA,NA,NA,NA
70820,shallow,flow.Sequence,2_5_0,NA,NA,completion,10281.96,581821,581812.58,581829.16,592111.12,592114,2023-09-10T10:09:08Z,592127.78,Flexibilität,kubadilika,d,enjini,usikilivu,hesabu,NA,NA,NA,"c(""distractor1"", ""distractor2"", ""distractor3"")",NA,NA,NA,NA,NA,NA,NA,NA,NA,NA,NA,NA,NA,NA,NA,NA,NA,NA,NA
70820,task,flow.Sequence,2_5,NA,NA,completion,10281.96,581821,581812.58,581829.16,592111.12,592115,2023-09-10T10:09:08Z,592127.78,Flexibilität,kubadilika,d,enjini,usikilivu,hesabu,NA,NA,NA,"c(""distractor1"", ""distractor2"", ""distractor3"")",NA,NA,NA,NA,NA,NA,NA,NA,NA,NA,NA,NA,NA,NA,NA,NA,NA,NA,NA
70820,Shallow Question,html.Page,2_6_0_0,NA,NA,form submission,7148.22,592117,592111.12,592127.78,599276,599277,2023-09-10T10:09:15Z,599276.78,Genehmigung,idhini,d,mwanamke,itikadi,fedheha,idhini,NA,NA,"c(""distractor1"", ""distractor2"", ""distractor3"")",NA,NA,NA,NA,NA,NA,NA,NA,NA,NA,NA,NA,NA,NA,NA,NA,NA,NA,NA
70820,Save data screen,canvas.Screen,2_6_0_1,NA,NA,timeout,499.97999999998,599279,599271.46,599276.78,599760.1,599761,2023-09-10T10:09:16Z,599776.76,Genehmigung,idhini,d,mwanamke,itikadi,fedheha,NA,NA,1,"c(""distractor1"", ""distractor2"", ""distractor3"")",NA,NA,NA,NA,NA,NA,NA,NA,NA,NA,NA,NA,NA,NA,NA,NA,NA,NA,NA
70820,shallow,flow.Sequence,2_6_0,NA,NA,completion,7632.3199999999,592116,592111.12,592127.78,599760.1,599763,2023-09-10T10:09:16Z,599776.76,Genehmigung,idhini,d,mwanamke,itikadi,fedheha,NA,NA,NA,"c(""distractor1"", ""distractor2"", ""distractor3"")",NA,NA,NA,NA,NA,NA,NA,NA,NA,NA,NA,NA,NA,NA,NA,NA,NA,NA,NA
70820,task,flow.Sequence,2_6,NA,NA,completion,7632.3199999999,592115,592111.12,592127.78,599760.1,599763,2023-09-10T10:09:16Z,599776.76,Genehmigung,idhini,d,mwanamke,itikadi,fedheha,NA,NA,NA,"c(""distractor1"", ""distractor2"", ""distractor3"")",NA,NA,NA,NA,NA,NA,NA,NA,NA,NA,NA,NA,NA,NA,NA,NA,NA,NA,NA
70820,Shallow Question,html.Page,2_7_0_0,NA,NA,form submission,9951.24,599765,599760.1,599776.76,609728,609729,2023-09-10T10:09:26Z,609725.38,Vorwurf,mashtaka,d,msukumo,mtangulizi,uenyekiti,mtangulizi,NA,NA,"c(""distractor1"", ""distractor2"", ""distractor3"")",NA,NA,NA,NA,NA,NA,NA,NA,NA,NA,NA,NA,NA,NA,NA,NA,NA,NA,NA
70820,Save data screen,canvas.Screen,2_7_0_1,NA,NA,timeout,499.83999999997,609731,609722.22,609725.38,610208.6,610210,2023-09-10T10:09:26Z,610225.22,Vorwurf,mashtaka,d,msukumo,mtangulizi,uenyekiti,NA,NA,0,"c(""distractor1"", ""distractor2"", ""distractor3"")",NA,NA,NA,NA,NA,NA,NA,NA,NA,NA,NA,NA,NA,NA,NA,NA,NA,NA,NA
70820,shallow,flow.Sequence,2_7_0,NA,NA,completion,10431.84,599763,599760.1,599776.76,610208.6,610212,2023-09-10T10:09:26Z,610225.22,Vorwurf,mashtaka,d,msukumo,mtangulizi,uenyekiti,NA,NA,NA,"c(""distractor1"", ""distractor2"", ""distractor3"")",NA,NA,NA,NA,NA,NA,NA,NA,NA,NA,NA,NA,NA,NA,NA,NA,NA,NA,NA
70820,task,flow.Sequence,2_7,NA,NA,completion,10431.84,599763,599760.1,599776.76,610208.6,610212,2023-09-10T10:09:26Z,610225.22,Vorwurf,mashtaka,d,msukumo,mtangulizi,uenyekiti,NA,NA,NA,"c(""distractor1"", ""distractor2"", ""distractor3"")",NA,NA,NA,NA,NA,NA,NA,NA,NA,NA,NA,NA,NA,NA,NA,NA,NA,NA,NA
70820,Shallow Question,html.Page,2_8_0_0,NA,NA,form submission,10373.78,610213,610208.6,610225.22,620599,620599,2023-09-10T10:09:37Z,620607.12,Fleisch,mshakiki,s,kizunguzungu,mshikamano,angusho,kizunguzungu,NA,NA,"c(""distractor1"", ""distractor2"", ""distractor3"")",NA,NA,NA,NA,NA,NA,NA,NA,NA,NA,NA,NA,NA,NA,NA,NA,NA,NA,NA
70820,Save data screen,canvas.Screen,2_8_0_1,NA,NA,timeout,499.94000000006,620601,620595.6,620607.12,621090.44,621091,2023-09-10T10:09:37Z,621107.06,Fleisch,mshakiki,s,kizunguzungu,mshikamano,angusho,NA,NA,0,"c(""distractor1"", ""distractor2"", ""distractor3"")",NA,NA,NA,NA,NA,NA,NA,NA,NA,NA,NA,NA,NA,NA,NA,NA,NA,NA,NA
70820,shallow,flow.Sequence,2_8_0,NA,NA,completion,10865.22,610213,610208.6,610225.22,621090.44,621092,2023-09-10T10:09:37Z,621107.06,Fleisch,mshakiki,s,kizunguzungu,mshikamano,angusho,NA,NA,NA,"c(""distractor1"", ""distractor2"", ""distractor3"")",NA,NA,NA,NA,NA,NA,NA,NA,NA,NA,NA,NA,NA,NA,NA,NA,NA,NA,NA
70820,task,flow.Sequence,2_8,NA,NA,completion,10865.22,610213,610208.6,610225.22,621090.44,621092,2023-09-10T10:09:37Z,621107.06,Fleisch,mshakiki,s,kizunguzungu,mshikamano,angusho,NA,NA,NA,"c(""distractor1"", ""distractor2"", ""distractor3"")",NA,NA,NA,NA,NA,NA,NA,NA,NA,NA,NA,NA,NA,NA,NA,NA,NA,NA,NA
70820,Shallow Question,html.Page,2_9_0_0,NA,NA,form submission,7584.9399999999,621093,621090.44,621107.06,628692,628692,2023-09-10T10:09:45Z,628689.4,Atmosphäre,angahewa,d,kuteseka,usahihi,kutoamini,angahewa,NA,NA,"c(""distractor1"", ""distractor2"", ""distractor3"")",NA,NA,NA,NA,NA,NA,NA,NA,NA,NA,NA,NA,NA,NA,NA,NA,NA,NA,NA
70820,Save data screen,canvas.Screen,2_9_0_1,NA,NA,timeout,499.85999999999,628695,628687.26,628689.4,629172.6,629175,2023-09-10T10:09:45Z,629189.26,Atmosphäre,angahewa,d,kuteseka,usahihi,kutoamini,NA,NA,1,"c(""distractor1"", ""distractor2"", ""distractor3"")",NA,NA,NA,NA,NA,NA,NA,NA,NA,NA,NA,NA,NA,NA,NA,NA,NA,NA,NA
70820,shallow,flow.Sequence,2_9_0,NA,NA,completion,8065.5399999999,621093,621090.44,621107.06,629172.6,629175,2023-09-10T10:09:45Z,629189.26,Atmosphäre,angahewa,d,kuteseka,usahihi,kutoamini,NA,NA,NA,"c(""distractor1"", ""distractor2"", ""distractor3"")",NA,NA,NA,NA,NA,NA,NA,NA,NA,NA,NA,NA,NA,NA,NA,NA,NA,NA,NA
70820,task,flow.Sequence,2_9,NA,NA,completion,8065.5399999999,621093,621090.44,621107.06,629172.6,629176,2023-09-10T10:09:45Z,629189.26,Atmosphäre,angahewa,d,kuteseka,usahihi,kutoamini,NA,NA,NA,"c(""distractor1"", ""distractor2"", ""distractor3"")",NA,NA,NA,NA,NA,NA,NA,NA,NA,NA,NA,NA,NA,NA,NA,NA,NA,NA,NA
70820,Shallow Question,html.Page,2_10_0_0,NA,NA,form submission,4100.74,629177,629172.6,629189.26,633290,633292,2023-09-10T10:09:49Z,633288.68,Respekt,heshima,s,changamnao,upinzani,ufanisi,heshima,NA,NA,"c(""distractor1"", ""distractor2"", ""distractor3"")",NA,NA,NA,NA,NA,NA,NA,NA,NA,NA,NA,NA,NA,NA,NA,NA,NA,NA,NA
70820,Save data screen,canvas.Screen,2_10_0_1,NA,NA,timeout,499.97999999998,633294,633284.58,633288.68,633771.98,633774,2023-09-10T10:09:50Z,633788.66,Respekt,heshima,s,changamnao,upinzani,ufanisi,NA,NA,1,"c(""distractor1"", ""distractor2"", ""distractor3"")",NA,NA,NA,NA,NA,NA,NA,NA,NA,NA,NA,NA,NA,NA,NA,NA,NA,NA,NA
70820,shallow,flow.Sequence,2_10_0,NA,NA,completion,4582.72,629176,629172.6,629189.26,633771.98,633774,2023-09-10T10:09:50Z,633788.66,Respekt,heshima,s,changamnao,upinzani,ufanisi,NA,NA,NA,"c(""distractor1"", ""distractor2"", ""distractor3"")",NA,NA,NA,NA,NA,NA,NA,NA,NA,NA,NA,NA,NA,NA,NA,NA,NA,NA,NA
70820,task,flow.Sequence,2_10,NA,NA,completion,4582.72,629176,629172.6,629189.26,633771.98,633775,2023-09-10T10:09:50Z,633788.66,Respekt,heshima,s,changamnao,upinzani,ufanisi,NA,NA,NA,"c(""distractor1"", ""distractor2"", ""distractor3"")",NA,NA,NA,NA,NA,NA,NA,NA,NA,NA,NA,NA,NA,NA,NA,NA,NA,NA,NA
70820,Shallow Question,html.Page,2_11_0_0,NA,NA,form submission,7403.34,633775,633771.98,633788.66,641192,641193,2023-09-10T10:09:57Z,641204.26,Stimmung,kinyongo,d,kilekile,kisambo,madhehebu,kinyongo,NA,NA,"c(""distractor1"", ""distractor2"", ""distractor3"")",NA,NA,NA,NA,NA,NA,NA,NA,NA,NA,NA,NA,NA,NA,NA,NA,NA,NA,NA
70820,Save data screen,canvas.Screen,2_11_0_1,NA,NA,timeout,499.92000000004,641195,641188.8,641204.26,641687.52,641694,2023-09-10T10:09:58Z,641704.18,Stimmung,kinyongo,d,kilekile,kisambo,madhehebu,NA,NA,1,"c(""distractor1"", ""distractor2"", ""distractor3"")",NA,NA,NA,NA,NA,NA,NA,NA,NA,NA,NA,NA,NA,NA,NA,NA,NA,NA,NA
70820,shallow,flow.Sequence,2_11_0,NA,NA,completion,7898.86,633775,633771.98,633788.66,641687.52,641698,2023-09-10T10:09:58Z,641704.18,Stimmung,kinyongo,d,kilekile,kisambo,madhehebu,NA,NA,NA,"c(""distractor1"", ""distractor2"", ""distractor3"")",NA,NA,NA,NA,NA,NA,NA,NA,NA,NA,NA,NA,NA,NA,NA,NA,NA,NA,NA
70820,task,flow.Sequence,2_11,NA,NA,completion,7898.86,633775,633771.98,633788.66,641687.52,641698,2023-09-10T10:09:58Z,641704.18,Stimmung,kinyongo,d,kilekile,kisambo,madhehebu,NA,NA,NA,"c(""distractor1"", ""distractor2"", ""distractor3"")",NA,NA,NA,NA,NA,NA,NA,NA,NA,NA,NA,NA,NA,NA,NA,NA,NA,NA,NA
70820,Shallow Question,html.Page,2_12_0_0,NA,NA,form submission,10492.82,641699,641687.52,641704.18,652197,652199,2023-09-10T10:10:08Z,652202.76,Orientierung,urekebisho,s,uelekeo,marekebisho,utunzaji,urekebisho,NA,NA,"c(""distractor1"", ""distractor2"", ""distractor3"")",NA,NA,NA,NA,NA,NA,NA,NA,NA,NA,NA,NA,NA,NA,NA,NA,NA,NA,NA
70820,Save data screen,canvas.Screen,2_12_0_1,NA,NA,timeout,499.92000000004,652207,652191.08,652202.76,652686.06,652687,2023-09-10T10:10:09Z,652702.68,Orientierung,urekebisho,s,uelekeo,marekebisho,utunzaji,NA,NA,1,"c(""distractor1"", ""distractor2"", ""distractor3"")",NA,NA,NA,NA,NA,NA,NA,NA,NA,NA,NA,NA,NA,NA,NA,NA,NA,NA,NA
70820,shallow,flow.Sequence,2_12_0,NA,NA,completion,10981.88,641699,641687.52,641704.18,652686.06,652689,2023-09-10T10:10:09Z,652702.68,Orientierung,urekebisho,s,uelekeo,marekebisho,utunzaji,NA,NA,NA,"c(""distractor1"", ""distractor2"", ""distractor3"")",NA,NA,NA,NA,NA,NA,NA,NA,NA,NA,NA,NA,NA,NA,NA,NA,NA,NA,NA
70820,task,flow.Sequence,2_12,NA,NA,completion,10981.88,641699,641687.52,641704.18,652686.06,652689,2023-09-10T10:10:09Z,652702.68,Orientierung,urekebisho,s,uelekeo,marekebisho,utunzaji,NA,NA,NA,"c(""distractor1"", ""distractor2"", ""distractor3"")",NA,NA,NA,NA,NA,NA,NA,NA,NA,NA,NA,NA,NA,NA,NA,NA,NA,NA,NA
70820,Shallow Question,html.Page,2_13_0_0,NA,NA,form submission,12091.32,652689,652686.06,652702.68,664794,664795,2023-09-10T10:10:21Z,664801.02,Betrüger,mdanganyifu,d,mwanamuziki,wastani,mahakama,mdanganyifu,NA,NA,"c(""distractor1"", ""distractor2"", ""distractor3"")",NA,NA,NA,NA,NA,NA,NA,NA,NA,NA,NA,NA,NA,NA,NA,NA,NA,NA,NA
70820,Save data screen,canvas.Screen,2_13_0_1,NA,NA,timeout,499.90000000002,664797,664791.68,664801.02,665284.26,665285,2023-09-10T10:10:21Z,665300.92,Betrüger,mdanganyifu,d,mwanamuziki,wastani,mahakama,NA,NA,1,"c(""distractor1"", ""distractor2"", ""distractor3"")",NA,NA,NA,NA,NA,NA,NA,NA,NA,NA,NA,NA,NA,NA,NA,NA,NA,NA,NA
70820,shallow,flow.Sequence,2_13_0,NA,NA,completion,12581.58,652689,652686.06,652702.68,665284.26,665286,2023-09-10T10:10:21Z,665300.92,Betrüger,mdanganyifu,d,mwanamuziki,wastani,mahakama,NA,NA,NA,"c(""distractor1"", ""distractor2"", ""distractor3"")",NA,NA,NA,NA,NA,NA,NA,NA,NA,NA,NA,NA,NA,NA,NA,NA,NA,NA,NA
70820,task,flow.Sequence,2_13,NA,NA,completion,12581.58,652689,652686.06,652702.68,665284.26,665287,2023-09-10T10:10:21Z,665300.92,Betrüger,mdanganyifu,d,mwanamuziki,wastani,mahakama,NA,NA,NA,"c(""distractor1"", ""distractor2"", ""distractor3"")",NA,NA,NA,NA,NA,NA,NA,NA,NA,NA,NA,NA,NA,NA,NA,NA,NA,NA,NA
70820,Shallow Question,html.Page,2_14_0_0,NA,NA,form submission,12972.08,665288,665284.26,665300.92,678273,678273,2023-09-10T10:10:34Z,678282.46,Wechsel,ugeuzaji,s,utambulisho,kujenga,wasiwasi,ugeuzaji,NA,NA,"c(""distractor1"", ""distractor2"", ""distractor3"")",NA,NA,NA,NA,NA,NA,NA,NA,NA,NA,NA,NA,NA,NA,NA,NA,NA,NA,NA
70820,Save data screen,canvas.Screen,2_14_0_1,NA,NA,timeout,499.92000000004,678276,678268.76,678282.46,678765.72,678767,2023-09-10T10:10:35Z,678782.38,Wechsel,ugeuzaji,s,utambulisho,kujenga,wasiwasi,NA,NA,1,"c(""distractor1"", ""distractor2"", ""distractor3"")",NA,NA,NA,NA,NA,NA,NA,NA,NA,NA,NA,NA,NA,NA,NA,NA,NA,NA,NA
70820,shallow,flow.Sequence,2_14_0,NA,NA,completion,13464.8,665288,665284.26,665300.92,678765.72,678768,2023-09-10T10:10:35Z,678782.38,Wechsel,ugeuzaji,s,utambulisho,kujenga,wasiwasi,NA,NA,NA,"c(""distractor1"", ""distractor2"", ""distractor3"")",NA,NA,NA,NA,NA,NA,NA,NA,NA,NA,NA,NA,NA,NA,NA,NA,NA,NA,NA
70820,task,flow.Sequence,2_14,NA,NA,completion,13464.8,665288,665284.26,665300.92,678765.72,678769,2023-09-10T10:10:35Z,678782.38,Wechsel,ugeuzaji,s,utambulisho,kujenga,wasiwasi,NA,NA,NA,"c(""distractor1"", ""distractor2"", ""distractor3"")",NA,NA,NA,NA,NA,NA,NA,NA,NA,NA,NA,NA,NA,NA,NA,NA,NA,NA,NA
70820,Shallow Question,html.Page,2_15_0_0,NA,NA,form submission,5136.62,678770,678765.72,678782.38,683919,683920,2023-09-10T10:10:40Z,683915.02,Entwicklung,maendeleo,d,uangavu,mshindwa,badiliko,maendeleo,NA,NA,"c(""distractor1"", ""distractor2"", ""distractor3"")",NA,NA,NA,NA,NA,NA,NA,NA,NA,NA,NA,NA,NA,NA,NA,NA,NA,NA,NA
70820,Save data screen,canvas.Screen,2_15_0_1,NA,NA,timeout,583.23999999999,683922,683913.72,683915.02,684398.26,684399,2023-09-10T10:10:41Z,684498.26,Entwicklung,maendeleo,d,uangavu,mshindwa,badiliko,NA,NA,1,"c(""distractor1"", ""distractor2"", ""distractor3"")",NA,NA,NA,NA,NA,NA,NA,NA,NA,NA,NA,NA,NA,NA,NA,NA,NA,NA,NA
70820,shallow,flow.Sequence,2_15_0,NA,NA,completion,5615.88,678770,678765.72,678782.38,684398.26,684400,2023-09-10T10:10:41Z,684498.26,Entwicklung,maendeleo,d,uangavu,mshindwa,badiliko,NA,NA,NA,"c(""distractor1"", ""distractor2"", ""distractor3"")",NA,NA,NA,NA,NA,NA,NA,NA,NA,NA,NA,NA,NA,NA,NA,NA,NA,NA,NA
70820,task,flow.Sequence,2_15,NA,NA,completion,5615.88,678770,678765.72,678782.38,684398.26,684400,2023-09-10T10:10:41Z,684498.26,Entwicklung,maendeleo,d,uangavu,mshindwa,badiliko,NA,NA,NA,"c(""distractor1"", ""distractor2"", ""distractor3"")",NA,NA,NA,NA,NA,NA,NA,NA,NA,NA,NA,NA,NA,NA,NA,NA,NA,NA,NA
70820,retrieval block 2 (multiple choice),flow.Loop,2,NA,NA,completion,145796.36,538591,538585.22,538601.9,684398.26,684401,2023-09-10T10:10:41Z,684498.26,NA,NA,NA,NA,NA,NA,NA,NA,NA,"c(""distractor1"", ""distractor2"", ""distractor3"")",NA,NA,NA,NA,NA,NA,NA,NA,NA,NA,NA,NA,NA,NA,NA,NA,NA,NA,NA
70820,End,canvas.Screen,3,NA,keypress(Space),response,2150.74,684402,684398.26,684498.26,686649,686659,2023-09-10T10:10:43Z,686661.24,NA,NA,NA,NA,NA,NA,NA,NA,NA,NULL,NA,NA,NA,NA,NA,NA,NA,NA,NA,NA,NA,NA,NA,NA,NA,NA,NA,NA,NA
70820,root,flow.Sequence,NA,NA,NA,completion,681889.3,4707,4743.04,4759.7,686649,686660,2023-09-10T10:10:43Z,686661.24,NA,NA,NA,NA,NA,NA,NA,NA,NA,NULL,NA,NA,NA,NA,NA,NA,NA,NA,NA,NA,NA,NA,NA,NA,NA,NA,NA,NA,NA
