observation,sender,sender_type,sender_id,response,response_action,ended_on,duration,time_run,time_render,time_show,time_end,time_commit,timestamp,time_switch,german,swahili,enc,distractor1,distractor2,distractor3,response_2,x,correct,distractors,url_vp,url_sess,meta_labjs_version,meta_location,meta_user_agent,meta_platform,meta_language,meta_locale,meta_time_zone,meta_timezone_offset,meta_screen_width,meta_screen_height,meta_scroll_width,meta_scroll_height,meta_window_inner_width,meta_window_inner_height,meta_device_pixel_ratio,meta_labjs_build_flavor,meta_labjs_build_commit
8b524,Introduction delayed retrieval,canvas.Screen,0,weiter,keypress(Space),response,10415.1,417,415.22,431.9,10847,10861,2023-08-25T20:04:45Z,10863.26,NA,NA,NA,NA,NA,NA,NA,NA,NA,NULL,128,4,20.2.4,https://neurocog.fernuni.ch/studies/vweber/delayed/index.html?vp=128&sess=4,Mozilla/5.0 (Macintosh; Intel Mac OS X 10.15; rv:109.0) Gecko/20100101 Firefox/115.0,MacIntel,de,de-CH,Europe/Zurich,-120,1440,900,1195,589,1195,589,2,production,f5b4a49f956347addd546a832a3327688c2c0fef
8b524,Deep Question,html.Page,1_0_0_0,NA,NA,form submission,26375.74,10863,10863.02,10863.26,37239,37239,2023-08-25T20:05:12Z,37238.4,Gefährdung,kuhatarisha,d,uchokozi,udhaifu,makorowezo,d,NA,NA,NULL,NA,NA,NA,NA,NA,NA,NA,NA,NA,NA,NA,NA,NA,NA,NA,NA,NA,NA,NA
8b524,Save data screen,canvas.Screen,1_0_0_1,NA,NA,timeout,493.82,37246,37238.18,37238.4,37716.48,37718,2023-08-25T20:05:12Z,37732.22,Gefährdung,kuhatarisha,d,uchokozi,udhaifu,makorowezo,NA,NA,0,NULL,NA,NA,NA,NA,NA,NA,NA,NA,NA,NA,NA,NA,NA,NA,NA,NA,NA,NA,NA
8b524,deep,flow.Sequence,1_0_0,NA,NA,completion,26853.22,10863,10863.02,10863.26,37716.48,37718,2023-08-25T20:05:12Z,37732.22,Gefährdung,kuhatarisha,d,uchokozi,udhaifu,makorowezo,NA,NA,NA,NULL,NA,NA,NA,NA,NA,NA,NA,NA,NA,NA,NA,NA,NA,NA,NA,NA,NA,NA,NA
8b524,task,flow.Sequence,1_0,NA,NA,completion,26853.22,10863,10863.02,10863.26,37716.48,37719,2023-08-25T20:05:12Z,37732.22,Gefährdung,kuhatarisha,d,uchokozi,udhaifu,makorowezo,NA,NA,NA,NULL,NA,NA,NA,NA,NA,NA,NA,NA,NA,NA,NA,NA,NA,NA,NA,NA,NA,NA,NA
8b524,Deep Question,html.Page,1_1_0_0,NA,NA,form submission,33877.78,37719,37716.48,37732.22,71610,71610,2023-08-25T20:05:46Z,71609.02,Sänger,mwimbaji,s,msichana,shughuli,mshirika,t,NA,NA,NULL,NA,NA,NA,NA,NA,NA,NA,NA,NA,NA,NA,NA,NA,NA,NA,NA,NA,NA,NA
8b524,Save data screen,canvas.Screen,1_1_0_1,NA,NA,timeout,491.94,71613,71608.74,71609.02,72084.28,72085,2023-08-25T20:05:47Z,72100.96,Sänger,mwimbaji,s,msichana,shughuli,mshirika,NA,NA,0,NULL,NA,NA,NA,NA,NA,NA,NA,NA,NA,NA,NA,NA,NA,NA,NA,NA,NA,NA,NA
8b524,deep,flow.Sequence,1_1_0,NA,NA,completion,34352.06,37719,37716.48,37732.22,72084.28,72085,2023-08-25T20:05:47Z,72100.96,Sänger,mwimbaji,s,msichana,shughuli,mshirika,NA,NA,NA,NULL,NA,NA,NA,NA,NA,NA,NA,NA,NA,NA,NA,NA,NA,NA,NA,NA,NA,NA,NA
8b524,task,flow.Sequence,1_1,NA,NA,completion,34352.06,37719,37716.48,37732.22,72084.28,72086,2023-08-25T20:05:47Z,72100.96,Sänger,mwimbaji,s,msichana,shughuli,mshirika,NA,NA,NA,NULL,NA,NA,NA,NA,NA,NA,NA,NA,NA,NA,NA,NA,NA,NA,NA,NA,NA,NA,NA
8b524,Deep Question,html.Page,1_2_0_0,NA,NA,form submission,7993.04,72087,72084.28,72100.96,80094,80096,2023-08-25T20:05:55Z,80093.4,Kreativität,ubunifu,s,mratibu,mwendelezo,makubaliano,i,NA,NA,NULL,NA,NA,NA,NA,NA,NA,NA,NA,NA,NA,NA,NA,NA,NA,NA,NA,NA,NA,NA
8b524,Save data screen,canvas.Screen,1_2_0_1,NA,NA,timeout,507.32000000001,80105,80093.18,80093.4,80584.58,80586,2023-08-25T20:05:55Z,80600.72,Kreativität,ubunifu,s,mratibu,mwendelezo,makubaliano,NA,NA,0,NULL,NA,NA,NA,NA,NA,NA,NA,NA,NA,NA,NA,NA,NA,NA,NA,NA,NA,NA,NA
8b524,deep,flow.Sequence,1_2_0,NA,NA,completion,8483.62,72087,72084.28,72100.96,80584.58,80587,2023-08-25T20:05:55Z,80600.72,Kreativität,ubunifu,s,mratibu,mwendelezo,makubaliano,NA,NA,NA,NULL,NA,NA,NA,NA,NA,NA,NA,NA,NA,NA,NA,NA,NA,NA,NA,NA,NA,NA,NA
8b524,task,flow.Sequence,1_2,NA,NA,completion,8483.62,72087,72084.28,72100.96,80584.58,80587,2023-08-25T20:05:55Z,80600.72,Kreativität,ubunifu,s,mratibu,mwendelezo,makubaliano,NA,NA,NA,NULL,NA,NA,NA,NA,NA,NA,NA,NA,NA,NA,NA,NA,NA,NA,NA,NA,NA,NA,NA
8b524,Deep Question,html.Page,1_3_0_0,NA,NA,form submission,10102.28,80588,80584.58,80600.72,90703,90704,2023-08-25T20:06:05Z,90702.02,Lawine,banguko,s,maambukizi,usuluhishi,chekechea,s,NA,NA,NULL,NA,NA,NA,NA,NA,NA,NA,NA,NA,NA,NA,NA,NA,NA,NA,NA,NA,NA,NA
8b524,Save data screen,canvas.Screen,1_3_0_1,NA,NA,timeout,499.58,90705,90701.76,90702.02,91184.92,91186,2023-08-25T20:06:06Z,91201.6,Lawine,banguko,s,maambukizi,usuluhishi,chekechea,NA,NA,0,NULL,NA,NA,NA,NA,NA,NA,NA,NA,NA,NA,NA,NA,NA,NA,NA,NA,NA,NA,NA
8b524,deep,flow.Sequence,1_3_0,NA,NA,completion,10584.2,80588,80584.58,80600.72,91184.92,91186,2023-08-25T20:06:06Z,91201.6,Lawine,banguko,s,maambukizi,usuluhishi,chekechea,NA,NA,NA,NULL,NA,NA,NA,NA,NA,NA,NA,NA,NA,NA,NA,NA,NA,NA,NA,NA,NA,NA,NA
8b524,task,flow.Sequence,1_3,NA,NA,completion,10584.2,80587,80584.58,80600.72,91184.92,91187,2023-08-25T20:06:06Z,91201.6,Lawine,banguko,s,maambukizi,usuluhishi,chekechea,NA,NA,NA,NULL,NA,NA,NA,NA,NA,NA,NA,NA,NA,NA,NA,NA,NA,NA,NA,NA,NA,NA,NA
8b524,Deep Question,html.Page,1_4_0_0,NA,NA,form submission,24056.4,91187,91184.92,91201.6,115258,115258,2023-08-25T20:06:30Z,115257.9,Prüfung,mtihani,s,mkulima,mtizamo,ufumbuzi,s,NA,NA,NULL,NA,NA,NA,NA,NA,NA,NA,NA,NA,NA,NA,NA,NA,NA,NA,NA,NA,NA,NA
8b524,Save data screen,canvas.Screen,1_4_0_1,NA,NA,timeout,494.52,115260,115257.66,115257.9,115735.74,115736,2023-08-25T20:06:30Z,115752.42,Prüfung,mtihani,s,mkulima,mtizamo,ufumbuzi,NA,NA,0,NULL,NA,NA,NA,NA,NA,NA,NA,NA,NA,NA,NA,NA,NA,NA,NA,NA,NA,NA,NA
8b524,deep,flow.Sequence,1_4_0,NA,NA,completion,24534.14,91187,91184.92,91201.6,115735.74,115737,2023-08-25T20:06:30Z,115752.42,Prüfung,mtihani,s,mkulima,mtizamo,ufumbuzi,NA,NA,NA,NULL,NA,NA,NA,NA,NA,NA,NA,NA,NA,NA,NA,NA,NA,NA,NA,NA,NA,NA,NA
8b524,task,flow.Sequence,1_4,NA,NA,completion,24534.14,91187,91184.92,91201.6,115735.74,115737,2023-08-25T20:06:30Z,115752.42,Prüfung,mtihani,s,mkulima,mtizamo,ufumbuzi,NA,NA,NA,NULL,NA,NA,NA,NA,NA,NA,NA,NA,NA,NA,NA,NA,NA,NA,NA,NA,NA,NA,NA
8b524,Deep Question,html.Page,1_5_0_0,NA,NA,form submission,14421.58,115738,115735.74,115752.42,130174,130175,2023-08-25T20:06:45Z,130186.26,Können,unaweza,s,kiongozi,bustani,mienendo,q,NA,NA,NULL,NA,NA,NA,NA,NA,NA,NA,NA,NA,NA,NA,NA,NA,NA,NA,NA,NA,NA,NA
8b524,Save data screen,canvas.Screen,1_5_0_1,NA,NA,timeout,500,130177,130173.6,130186.26,130669.6,130670,2023-08-25T20:06:45Z,130686.26,Können,unaweza,s,kiongozi,bustani,mienendo,NA,NA,0,NULL,NA,NA,NA,NA,NA,NA,NA,NA,NA,NA,NA,NA,NA,NA,NA,NA,NA,NA,NA
8b524,deep,flow.Sequence,1_5_0,NA,NA,completion,14917.18,115738,115735.74,115752.42,130669.6,130671,2023-08-25T20:06:45Z,130686.26,Können,unaweza,s,kiongozi,bustani,mienendo,NA,NA,NA,NULL,NA,NA,NA,NA,NA,NA,NA,NA,NA,NA,NA,NA,NA,NA,NA,NA,NA,NA,NA
8b524,task,flow.Sequence,1_5,NA,NA,completion,14917.18,115737,115735.74,115752.42,130669.6,130671,2023-08-25T20:06:45Z,130686.26,Können,unaweza,s,kiongozi,bustani,mienendo,NA,NA,NA,NULL,NA,NA,NA,NA,NA,NA,NA,NA,NA,NA,NA,NA,NA,NA,NA,NA,NA,NA,NA
8b524,Deep Question,html.Page,1_6_0_0,NA,NA,form submission,20963.74,130672,130669.6,130686.26,151650,151651,2023-08-25T20:07:06Z,151649.96,Übersicht,kilindo,d,mgusano,chipukizi,kulinganisha,danomezo,NA,NA,NULL,NA,NA,NA,NA,NA,NA,NA,NA,NA,NA,NA,NA,NA,NA,NA,NA,NA,NA,NA
8b524,Save data screen,canvas.Screen,1_6_0_1,NA,NA,timeout,503.12,151654,151649.7,151649.96,152136.94,152137,2023-08-25T20:07:07Z,152153.08,Übersicht,kilindo,d,mgusano,chipukizi,kulinganisha,NA,NA,0,NULL,NA,NA,NA,NA,NA,NA,NA,NA,NA,NA,NA,NA,NA,NA,NA,NA,NA,NA,NA
8b524,deep,flow.Sequence,1_6_0,NA,NA,completion,21450.68,130671,130669.6,130686.26,152136.94,152138,2023-08-25T20:07:07Z,152153.08,Übersicht,kilindo,d,mgusano,chipukizi,kulinganisha,NA,NA,NA,NULL,NA,NA,NA,NA,NA,NA,NA,NA,NA,NA,NA,NA,NA,NA,NA,NA,NA,NA,NA
8b524,task,flow.Sequence,1_6,NA,NA,completion,21450.68,130671,130669.6,130686.26,152136.94,152138,2023-08-25T20:07:07Z,152153.08,Übersicht,kilindo,d,mgusano,chipukizi,kulinganisha,NA,NA,NA,NULL,NA,NA,NA,NA,NA,NA,NA,NA,NA,NA,NA,NA,NA,NA,NA,NA,NA,NA,NA
8b524,Deep Question,html.Page,1_7_0_0,NA,NA,form submission,11694.92,152139,152136.94,152153.08,163848,163848,2023-08-25T20:07:18Z,163847.54,Angreifer,mshambulizi,s,kitengo,tasinia,usafirishaji,a,NA,NA,NULL,NA,NA,NA,NA,NA,NA,NA,NA,NA,NA,NA,NA,NA,NA,NA,NA,NA,NA,NA
8b524,Save data screen,canvas.Screen,1_7_0_1,NA,NA,timeout,506.47999999998,163850,163847.32,163847.54,164337.36,164346,2023-08-25T20:07:19Z,164354.02,Angreifer,mshambulizi,s,kitengo,tasinia,usafirishaji,NA,NA,0,NULL,NA,NA,NA,NA,NA,NA,NA,NA,NA,NA,NA,NA,NA,NA,NA,NA,NA,NA,NA
8b524,deep,flow.Sequence,1_7_0,NA,NA,completion,12184.28,152139,152136.94,152153.08,164337.36,164348,2023-08-25T20:07:19Z,164354.02,Angreifer,mshambulizi,s,kitengo,tasinia,usafirishaji,NA,NA,NA,NULL,NA,NA,NA,NA,NA,NA,NA,NA,NA,NA,NA,NA,NA,NA,NA,NA,NA,NA,NA
8b524,task,flow.Sequence,1_7,NA,NA,completion,12184.28,152139,152136.94,152153.08,164337.36,164349,2023-08-25T20:07:19Z,164354.02,Angreifer,mshambulizi,s,kitengo,tasinia,usafirishaji,NA,NA,NA,NULL,NA,NA,NA,NA,NA,NA,NA,NA,NA,NA,NA,NA,NA,NA,NA,NA,NA,NA,NA
8b524,Deep Question,html.Page,1_8_0_0,NA,NA,form submission,8721.98,164349,164337.36,164354.02,173076,173077,2023-08-25T20:07:28Z,173075.64,Kontrolle,kudhibiti,d,mbinguni,kufunga,utegemezi,e,NA,NA,NULL,NA,NA,NA,NA,NA,NA,NA,NA,NA,NA,NA,NA,NA,NA,NA,NA,NA,NA,NA
8b524,Save data screen,canvas.Screen,1_8_0_1,NA,NA,timeout,495.37999999998,173084,173075.4,173075.64,173554.34,173555,2023-08-25T20:07:28Z,173571.02,Kontrolle,kudhibiti,d,mbinguni,kufunga,utegemezi,NA,NA,0,NULL,NA,NA,NA,NA,NA,NA,NA,NA,NA,NA,NA,NA,NA,NA,NA,NA,NA,NA,NA
8b524,deep,flow.Sequence,1_8_0,NA,NA,completion,9200.32,164349,164337.36,164354.02,173554.34,173555,2023-08-25T20:07:28Z,173571.02,Kontrolle,kudhibiti,d,mbinguni,kufunga,utegemezi,NA,NA,NA,NULL,NA,NA,NA,NA,NA,NA,NA,NA,NA,NA,NA,NA,NA,NA,NA,NA,NA,NA,NA
8b524,task,flow.Sequence,1_8,NA,NA,completion,9200.32,164349,164337.36,164354.02,173554.34,173556,2023-08-25T20:07:28Z,173571.02,Kontrolle,kudhibiti,d,mbinguni,kufunga,utegemezi,NA,NA,NA,NULL,NA,NA,NA,NA,NA,NA,NA,NA,NA,NA,NA,NA,NA,NA,NA,NA,NA,NA,NA
8b524,Deep Question,html.Page,1_9_0_0,NA,NA,form submission,11984.98,173557,173554.34,173571.02,185556,185556,2023-08-25T20:07:40Z,185555.34,Abrechnung,uhasibu,d,kusahihisha,mpambano,mashambulizi,w,NA,NA,NULL,NA,NA,NA,NA,NA,NA,NA,NA,NA,NA,NA,NA,NA,NA,NA,NA,NA,NA,NA
8b524,Save data screen,canvas.Screen,1_9_0_1,NA,NA,timeout,499.42000000001,185558,185555.06,185555.34,186038.1,186039,2023-08-25T20:07:41Z,186054.76,Abrechnung,uhasibu,d,kusahihisha,mpambano,mashambulizi,NA,NA,0,NULL,NA,NA,NA,NA,NA,NA,NA,NA,NA,NA,NA,NA,NA,NA,NA,NA,NA,NA,NA
8b524,deep,flow.Sequence,1_9_0,NA,NA,completion,12467.08,173557,173554.34,173571.02,186038.1,186040,2023-08-25T20:07:41Z,186054.76,Abrechnung,uhasibu,d,kusahihisha,mpambano,mashambulizi,NA,NA,NA,NULL,NA,NA,NA,NA,NA,NA,NA,NA,NA,NA,NA,NA,NA,NA,NA,NA,NA,NA,NA
8b524,task,flow.Sequence,1_9,NA,NA,completion,12467.08,173556,173554.34,173571.02,186038.1,186041,2023-08-25T20:07:41Z,186054.76,Abrechnung,uhasibu,d,kusahihisha,mpambano,mashambulizi,NA,NA,NA,NULL,NA,NA,NA,NA,NA,NA,NA,NA,NA,NA,NA,NA,NA,NA,NA,NA,NA,NA,NA
8b524,Deep Question,html.Page,1_10_0_0,NA,NA,form submission,10458.24,186041,186038.1,186054.76,196513,196513,2023-08-25T20:07:51Z,196512.5,Kanzler,diwani,d,rasilmali,mahitaji,maabudu,k,NA,NA,NULL,NA,NA,NA,NA,NA,NA,NA,NA,NA,NA,NA,NA,NA,NA,NA,NA,NA,NA,NA
8b524,Save data screen,canvas.Screen,1_10_0_1,NA,NA,timeout,492.62,196515,196512.26,196512.5,196988.44,196990,2023-08-25T20:07:52Z,197005.12,Kanzler,diwani,d,rasilmali,mahitaji,maabudu,NA,NA,0,NULL,NA,NA,NA,NA,NA,NA,NA,NA,NA,NA,NA,NA,NA,NA,NA,NA,NA,NA,NA
8b524,deep,flow.Sequence,1_10_0,NA,NA,completion,10933.68,186041,186038.1,186054.76,196988.44,196990,2023-08-25T20:07:52Z,197005.12,Kanzler,diwani,d,rasilmali,mahitaji,maabudu,NA,NA,NA,NULL,NA,NA,NA,NA,NA,NA,NA,NA,NA,NA,NA,NA,NA,NA,NA,NA,NA,NA,NA
8b524,task,flow.Sequence,1_10,NA,NA,completion,10933.68,186041,186038.1,186054.76,196988.44,196990,2023-08-25T20:07:52Z,197005.12,Kanzler,diwani,d,rasilmali,mahitaji,maabudu,NA,NA,NA,NULL,NA,NA,NA,NA,NA,NA,NA,NA,NA,NA,NA,NA,NA,NA,NA,NA,NA,NA,NA
8b524,Deep Question,html.Page,1_11_0_0,NA,NA,form submission,27661.88,196991,196988.44,197005.12,224667,224670,2023-08-25T20:08:19Z,224672.04,Kultur,utamaduni,d,shetani,gerezani,mazingira,m,NA,NA,NULL,NA,NA,NA,NA,NA,NA,NA,NA,NA,NA,NA,NA,NA,NA,NA,NA,NA,NA,NA
8b524,Save data screen,canvas.Screen,1_11_0_1,NA,NA,timeout,500.67999999999,224678,224665.56,224672.04,225156.04,225157,2023-08-25T20:08:20Z,225172.72,Kultur,utamaduni,d,shetani,gerezani,mazingira,NA,NA,0,NULL,NA,NA,NA,NA,NA,NA,NA,NA,NA,NA,NA,NA,NA,NA,NA,NA,NA,NA,NA
8b524,deep,flow.Sequence,1_11_0,NA,NA,completion,28150.92,196991,196988.44,197005.12,225156.04,225157,2023-08-25T20:08:20Z,225172.72,Kultur,utamaduni,d,shetani,gerezani,mazingira,NA,NA,NA,NULL,NA,NA,NA,NA,NA,NA,NA,NA,NA,NA,NA,NA,NA,NA,NA,NA,NA,NA,NA
8b524,task,flow.Sequence,1_11,NA,NA,completion,28150.92,196990,196988.44,197005.12,225156.04,225158,2023-08-25T20:08:20Z,225172.72,Kultur,utamaduni,d,shetani,gerezani,mazingira,NA,NA,NA,NULL,NA,NA,NA,NA,NA,NA,NA,NA,NA,NA,NA,NA,NA,NA,NA,NA,NA,NA,NA
8b524,Deep Question,html.Page,1_12_0_0,NA,NA,form submission,4698.28,225159,225156.04,225172.72,229871,229872,2023-08-25T20:08:24Z,229872.26,Aufstand,ugomaji,s,mazidio,msingi,kujieleza,q,NA,NA,NULL,NA,NA,NA,NA,NA,NA,NA,NA,NA,NA,NA,NA,NA,NA,NA,NA,NA,NA,NA
8b524,Save data screen,canvas.Screen,1_12_0_1,NA,NA,timeout,500.62,229874,229869.68,229872.26,230356.2,230357,2023-08-25T20:08:25Z,230372.88,Aufstand,ugomaji,s,mazidio,msingi,kujieleza,NA,NA,0,NULL,NA,NA,NA,NA,NA,NA,NA,NA,NA,NA,NA,NA,NA,NA,NA,NA,NA,NA,NA
8b524,deep,flow.Sequence,1_12_0,NA,NA,completion,5183.48,225159,225156.04,225172.72,230356.2,230358,2023-08-25T20:08:25Z,230372.88,Aufstand,ugomaji,s,mazidio,msingi,kujieleza,NA,NA,NA,NULL,NA,NA,NA,NA,NA,NA,NA,NA,NA,NA,NA,NA,NA,NA,NA,NA,NA,NA,NA
8b524,task,flow.Sequence,1_12,NA,NA,completion,5183.48,225158,225156.04,225172.72,230356.2,230358,2023-08-25T20:08:25Z,230372.88,Aufstand,ugomaji,s,mazidio,msingi,kujieleza,NA,NA,NA,NULL,NA,NA,NA,NA,NA,NA,NA,NA,NA,NA,NA,NA,NA,NA,NA,NA,NA,NA,NA
8b524,Deep Question,html.Page,1_13_0_0,NA,NA,form submission,10538.12,230359,230356.2,230372.88,240911,240911,2023-08-25T20:08:36Z,240922.44,Körper,kiwiliwili,d,mapambano,mpatanishi,kiolezo,i,NA,NA,NULL,NA,NA,NA,NA,NA,NA,NA,NA,NA,NA,NA,NA,NA,NA,NA,NA,NA,NA,NA
8b524,Save data screen,canvas.Screen,1_13_0_1,NA,NA,timeout,500.79999999999,240912,240909.54,240922.44,241406.58,241407,2023-08-25T20:08:36Z,241423.24,Körper,kiwiliwili,d,mapambano,mpatanishi,kiolezo,NA,NA,0,NULL,NA,NA,NA,NA,NA,NA,NA,NA,NA,NA,NA,NA,NA,NA,NA,NA,NA,NA,NA
8b524,deep,flow.Sequence,1_13_0,NA,NA,completion,11033.7,230359,230356.2,230372.88,241406.58,241409,2023-08-25T20:08:36Z,241423.24,Körper,kiwiliwili,d,mapambano,mpatanishi,kiolezo,NA,NA,NA,NULL,NA,NA,NA,NA,NA,NA,NA,NA,NA,NA,NA,NA,NA,NA,NA,NA,NA,NA,NA
8b524,task,flow.Sequence,1_13,NA,NA,completion,11033.7,230359,230356.2,230372.88,241406.58,241409,2023-08-25T20:08:36Z,241423.24,Körper,kiwiliwili,d,mapambano,mpatanishi,kiolezo,NA,NA,NA,NULL,NA,NA,NA,NA,NA,NA,NA,NA,NA,NA,NA,NA,NA,NA,NA,NA,NA,NA,NA
8b524,Deep Question,html.Page,1_14_0_0,NA,NA,form submission,7773.76,241409,241406.58,241423.24,249197,249197,2023-08-25T20:08:44Z,249196.28,Verzögerung,kuchelewa,d,mwakilishi,mwanauchumi,jaribio,v,NA,NA,NULL,NA,NA,NA,NA,NA,NA,NA,NA,NA,NA,NA,NA,NA,NA,NA,NA,NA,NA,NA
8b524,Save data screen,canvas.Screen,1_14_0_1,NA,NA,timeout,493.45999999999,249199,249196.04,249196.28,249673.52,249674,2023-08-25T20:08:44Z,249689.74,Verzögerung,kuchelewa,d,mwakilishi,mwanauchumi,jaribio,NA,NA,0,NULL,NA,NA,NA,NA,NA,NA,NA,NA,NA,NA,NA,NA,NA,NA,NA,NA,NA,NA,NA
8b524,deep,flow.Sequence,1_14_0,NA,NA,completion,8250.28,241409,241406.58,241423.24,249673.52,249675,2023-08-25T20:08:44Z,249689.74,Verzögerung,kuchelewa,d,mwakilishi,mwanauchumi,jaribio,NA,NA,NA,NULL,NA,NA,NA,NA,NA,NA,NA,NA,NA,NA,NA,NA,NA,NA,NA,NA,NA,NA,NA
8b524,task,flow.Sequence,1_14,NA,NA,completion,8250.28,241409,241406.58,241423.24,249673.52,249675,2023-08-25T20:08:44Z,249689.74,Verzögerung,kuchelewa,d,mwakilishi,mwanauchumi,jaribio,NA,NA,NA,NULL,NA,NA,NA,NA,NA,NA,NA,NA,NA,NA,NA,NA,NA,NA,NA,NA,NA,NA,NA
8b524,Deep Question,html.Page,1_15_0_0,NA,NA,form submission,14850.26,249676,249673.52,249689.74,264540,264540,2023-08-25T20:08:59Z,264540.66,System,maongozi,s,chokochoko,nuksani,mitaani,d,NA,NA,NULL,NA,NA,NA,NA,NA,NA,NA,NA,NA,NA,NA,NA,NA,NA,NA,NA,NA,NA,NA
8b524,Save data screen,canvas.Screen,1_15_0_1,NA,NA,timeout,499.78000000003,264542,264539.98,264540.66,265024.02,265025,2023-08-25T20:09:00Z,265040.44,System,maongozi,s,chokochoko,nuksani,mitaani,NA,NA,0,NULL,NA,NA,NA,NA,NA,NA,NA,NA,NA,NA,NA,NA,NA,NA,NA,NA,NA,NA,NA
8b524,deep,flow.Sequence,1_15_0,NA,NA,completion,15334.28,249676,249673.52,249689.74,265024.02,265025,2023-08-25T20:09:00Z,265040.44,System,maongozi,s,chokochoko,nuksani,mitaani,NA,NA,NA,NULL,NA,NA,NA,NA,NA,NA,NA,NA,NA,NA,NA,NA,NA,NA,NA,NA,NA,NA,NA
8b524,task,flow.Sequence,1_15,NA,NA,completion,15334.28,249675,249673.52,249689.74,265024.02,265025,2023-08-25T20:09:00Z,265040.44,System,maongozi,s,chokochoko,nuksani,mitaani,NA,NA,NA,NULL,NA,NA,NA,NA,NA,NA,NA,NA,NA,NA,NA,NA,NA,NA,NA,NA,NA,NA,NA
8b524,retrieval block 1 (cued recall),flow.Loop,1,NA,NA,completion,254160.76,10863,10863.02,10863.26,265024.02,265026,2023-08-25T20:09:00Z,265040.44,NA,NA,NA,NA,NA,NA,NA,NA,NA,NULL,NA,NA,NA,NA,NA,NA,NA,NA,NA,NA,NA,NA,NA,NA,NA,NA,NA,NA,NA
8b524,Shallow Question,html.Page,2_0_0_0,NA,NA,form submission,6588.56,265027,265024.02,265040.44,271629,271630,2023-08-25T20:09:06Z,271640.88,Angreifer,mshambulizi,s,kitengo,tasinia,usafirishaji,kitengo,NA,NA,"c(""distractor1"", ""distractor2"", ""distractor3"")",NA,NA,NA,NA,NA,NA,NA,NA,NA,NA,NA,NA,NA,NA,NA,NA,NA,NA,NA
8b524,Save data screen,canvas.Screen,2_0_0_1,NA,NA,timeout,500.03999999998,271631,271627.08,271640.88,272124.24,272128,2023-08-25T20:09:07Z,272140.92,Angreifer,mshambulizi,s,kitengo,tasinia,usafirishaji,NA,NA,0,"c(""distractor1"", ""distractor2"", ""distractor3"")",NA,NA,NA,NA,NA,NA,NA,NA,NA,NA,NA,NA,NA,NA,NA,NA,NA,NA,NA
8b524,shallow,flow.Sequence,2_0_0,NA,NA,completion,7083.8,265027,265024.02,265040.44,272124.24,272130,2023-08-25T20:09:07Z,272140.92,Angreifer,mshambulizi,s,kitengo,tasinia,usafirishaji,NA,NA,NA,"c(""distractor1"", ""distractor2"", ""distractor3"")",NA,NA,NA,NA,NA,NA,NA,NA,NA,NA,NA,NA,NA,NA,NA,NA,NA,NA,NA
8b524,task,flow.Sequence,2_0,NA,NA,completion,7083.8,265027,265024.02,265040.44,272124.24,272131,2023-08-25T20:09:07Z,272140.92,Angreifer,mshambulizi,s,kitengo,tasinia,usafirishaji,NA,NA,NA,"c(""distractor1"", ""distractor2"", ""distractor3"")",NA,NA,NA,NA,NA,NA,NA,NA,NA,NA,NA,NA,NA,NA,NA,NA,NA,NA,NA
8b524,Shallow Question,html.Page,2_1_0_0,NA,NA,form submission,4008.08,272131,272124.24,272140.92,276149,276150,2023-08-25T20:09:11Z,276157.74,Aufstand,ugomaji,s,mazidio,msingi,kujieleza,ugomaji,NA,NA,"c(""distractor1"", ""distractor2"", ""distractor3"")",NA,NA,NA,NA,NA,NA,NA,NA,NA,NA,NA,NA,NA,NA,NA,NA,NA,NA,NA
8b524,Save data screen,canvas.Screen,2_1_0_1,NA,NA,timeout,500,276158,276144.22,276157.74,276641.06,276641,2023-08-25T20:09:11Z,276657.74,Aufstand,ugomaji,s,mazidio,msingi,kujieleza,NA,NA,1,"c(""distractor1"", ""distractor2"", ""distractor3"")",NA,NA,NA,NA,NA,NA,NA,NA,NA,NA,NA,NA,NA,NA,NA,NA,NA,NA,NA
8b524,shallow,flow.Sequence,2_1_0,NA,NA,completion,4500.14,272131,272124.24,272140.92,276641.06,276642,2023-08-25T20:09:11Z,276657.74,Aufstand,ugomaji,s,mazidio,msingi,kujieleza,NA,NA,NA,"c(""distractor1"", ""distractor2"", ""distractor3"")",NA,NA,NA,NA,NA,NA,NA,NA,NA,NA,NA,NA,NA,NA,NA,NA,NA,NA,NA
8b524,task,flow.Sequence,2_1,NA,NA,completion,4500.14,272131,272124.24,272140.92,276641.06,276642,2023-08-25T20:09:11Z,276657.74,Aufstand,ugomaji,s,mazidio,msingi,kujieleza,NA,NA,NA,"c(""distractor1"", ""distractor2"", ""distractor3"")",NA,NA,NA,NA,NA,NA,NA,NA,NA,NA,NA,NA,NA,NA,NA,NA,NA,NA,NA
8b524,Shallow Question,html.Page,2_2_0_0,NA,NA,form submission,10822.26,276642,276641.06,276657.74,287480,287481,2023-08-25T20:09:22Z,287490.76,Übersicht,kilindo,d,mgusano,chipukizi,kulinganisha,kilindo,NA,NA,"c(""distractor1"", ""distractor2"", ""distractor3"")",NA,NA,NA,NA,NA,NA,NA,NA,NA,NA,NA,NA,NA,NA,NA,NA,NA,NA,NA
8b524,Save data screen,canvas.Screen,2_2_0_1,NA,NA,timeout,500.67999999999,287484,287477.34,287490.76,287974.76,287975,2023-08-25T20:09:23Z,287991.44,Übersicht,kilindo,d,mgusano,chipukizi,kulinganisha,NA,NA,1,"c(""distractor1"", ""distractor2"", ""distractor3"")",NA,NA,NA,NA,NA,NA,NA,NA,NA,NA,NA,NA,NA,NA,NA,NA,NA,NA,NA
8b524,shallow,flow.Sequence,2_2_0,NA,NA,completion,11317.02,276642,276641.06,276657.74,287974.76,287976,2023-08-25T20:09:23Z,287991.44,Übersicht,kilindo,d,mgusano,chipukizi,kulinganisha,NA,NA,NA,"c(""distractor1"", ""distractor2"", ""distractor3"")",NA,NA,NA,NA,NA,NA,NA,NA,NA,NA,NA,NA,NA,NA,NA,NA,NA,NA,NA
8b524,task,flow.Sequence,2_2,NA,NA,completion,11317.02,276642,276641.06,276657.74,287974.76,287977,2023-08-25T20:09:23Z,287991.44,Übersicht,kilindo,d,mgusano,chipukizi,kulinganisha,NA,NA,NA,"c(""distractor1"", ""distractor2"", ""distractor3"")",NA,NA,NA,NA,NA,NA,NA,NA,NA,NA,NA,NA,NA,NA,NA,NA,NA,NA,NA
8b524,Shallow Question,html.Page,2_3_0_0,NA,NA,form submission,7072.56,287977,287974.76,287991.44,295064,295064,2023-08-25T20:09:30Z,295075.02,Können,unaweza,s,kiongozi,bustani,mienendo,unaweza,NA,NA,"c(""distractor1"", ""distractor2"", ""distractor3"")",NA,NA,NA,NA,NA,NA,NA,NA,NA,NA,NA,NA,NA,NA,NA,NA,NA,NA,NA
8b524,Save data screen,canvas.Screen,2_3_0_1,NA,NA,timeout,500,295067,295061.56,295075.02,295558.34,295560,2023-08-25T20:09:30Z,295575.02,Können,unaweza,s,kiongozi,bustani,mienendo,NA,NA,1,"c(""distractor1"", ""distractor2"", ""distractor3"")",NA,NA,NA,NA,NA,NA,NA,NA,NA,NA,NA,NA,NA,NA,NA,NA,NA,NA,NA
8b524,shallow,flow.Sequence,2_3_0,NA,NA,completion,7566.9,287977,287974.76,287991.44,295558.34,295560,2023-08-25T20:09:30Z,295575.02,Können,unaweza,s,kiongozi,bustani,mienendo,NA,NA,NA,"c(""distractor1"", ""distractor2"", ""distractor3"")",NA,NA,NA,NA,NA,NA,NA,NA,NA,NA,NA,NA,NA,NA,NA,NA,NA,NA,NA
8b524,task,flow.Sequence,2_3,NA,NA,completion,7566.9,287977,287974.76,287991.44,295558.34,295560,2023-08-25T20:09:30Z,295575.02,Können,unaweza,s,kiongozi,bustani,mienendo,NA,NA,NA,"c(""distractor1"", ""distractor2"", ""distractor3"")",NA,NA,NA,NA,NA,NA,NA,NA,NA,NA,NA,NA,NA,NA,NA,NA,NA,NA,NA
8b524,Shallow Question,html.Page,2_4_0_0,NA,NA,form submission,6804.98,295561,295558.34,295575.02,302380,302382,2023-08-25T20:09:37Z,302391.92,Abrechnung,uhasibu,d,kusahihisha,mpambano,mashambulizi,uhasibu,NA,NA,"c(""distractor1"", ""distractor2"", ""distractor3"")",NA,NA,NA,NA,NA,NA,NA,NA,NA,NA,NA,NA,NA,NA,NA,NA,NA,NA,NA
8b524,Save data screen,canvas.Screen,2_4_0_1,NA,NA,timeout,500.02000000002,302383,302378.02,302391.92,302875.26,302876,2023-08-25T20:09:37Z,302891.94,Abrechnung,uhasibu,d,kusahihisha,mpambano,mashambulizi,NA,NA,1,"c(""distractor1"", ""distractor2"", ""distractor3"")",NA,NA,NA,NA,NA,NA,NA,NA,NA,NA,NA,NA,NA,NA,NA,NA,NA,NA,NA
8b524,shallow,flow.Sequence,2_4_0,NA,NA,completion,7300.24,295561,295558.34,295575.02,302875.26,302876,2023-08-25T20:09:38Z,302891.94,Abrechnung,uhasibu,d,kusahihisha,mpambano,mashambulizi,NA,NA,NA,"c(""distractor1"", ""distractor2"", ""distractor3"")",NA,NA,NA,NA,NA,NA,NA,NA,NA,NA,NA,NA,NA,NA,NA,NA,NA,NA,NA
8b524,task,flow.Sequence,2_4,NA,NA,completion,7300.24,295561,295558.34,295575.02,302875.26,302877,2023-08-25T20:09:38Z,302891.94,Abrechnung,uhasibu,d,kusahihisha,mpambano,mashambulizi,NA,NA,NA,"c(""distractor1"", ""distractor2"", ""distractor3"")",NA,NA,NA,NA,NA,NA,NA,NA,NA,NA,NA,NA,NA,NA,NA,NA,NA,NA,NA
8b524,Shallow Question,html.Page,2_5_0_0,NA,NA,form submission,4104.06,302877,302875.26,302891.94,306996,306997,2023-08-25T20:09:42Z,306994.38,Gefährdung,kuhatarisha,d,uchokozi,udhaifu,makorowezo,kuhatarisha,NA,NA,"c(""distractor1"", ""distractor2"", ""distractor3"")",NA,NA,NA,NA,NA,NA,NA,NA,NA,NA,NA,NA,NA,NA,NA,NA,NA,NA,NA
8b524,Save data screen,canvas.Screen,2_5_0_1,NA,NA,timeout,497.71999999997,306999,306994.32,306994.38,307475.4,307477,2023-08-25T20:09:42Z,307492.1,Gefährdung,kuhatarisha,d,uchokozi,udhaifu,makorowezo,NA,NA,1,"c(""distractor1"", ""distractor2"", ""distractor3"")",NA,NA,NA,NA,NA,NA,NA,NA,NA,NA,NA,NA,NA,NA,NA,NA,NA,NA,NA
8b524,shallow,flow.Sequence,2_5_0,NA,NA,completion,4583.46,302877,302875.26,302891.94,307475.4,307477,2023-08-25T20:09:42Z,307492.1,Gefährdung,kuhatarisha,d,uchokozi,udhaifu,makorowezo,NA,NA,NA,"c(""distractor1"", ""distractor2"", ""distractor3"")",NA,NA,NA,NA,NA,NA,NA,NA,NA,NA,NA,NA,NA,NA,NA,NA,NA,NA,NA
8b524,task,flow.Sequence,2_5,NA,NA,completion,4583.46,302877,302875.26,302891.94,307475.4,307477,2023-08-25T20:09:42Z,307492.1,Gefährdung,kuhatarisha,d,uchokozi,udhaifu,makorowezo,NA,NA,NA,"c(""distractor1"", ""distractor2"", ""distractor3"")",NA,NA,NA,NA,NA,NA,NA,NA,NA,NA,NA,NA,NA,NA,NA,NA,NA,NA,NA
8b524,Shallow Question,html.Page,2_6_0_0,NA,NA,form submission,4021.9,307477,307475.4,307492.1,311514,311515,2023-08-25T20:09:46Z,311525.56,Kanzler,diwani,d,rasilmali,mahitaji,maabudu,diwani,NA,NA,"c(""distractor1"", ""distractor2"", ""distractor3"")",NA,NA,NA,NA,NA,NA,NA,NA,NA,NA,NA,NA,NA,NA,NA,NA,NA,NA,NA
8b524,Save data screen,canvas.Screen,2_6_0_1,NA,NA,timeout,500,311516,311511.02,311525.56,312008.06,312009,2023-08-25T20:09:47Z,312025.56,Kanzler,diwani,d,rasilmali,mahitaji,maabudu,NA,NA,1,"c(""distractor1"", ""distractor2"", ""distractor3"")",NA,NA,NA,NA,NA,NA,NA,NA,NA,NA,NA,NA,NA,NA,NA,NA,NA,NA,NA
8b524,shallow,flow.Sequence,2_6_0,NA,NA,completion,4515.96,307477,307475.4,307492.1,312008.06,312009,2023-08-25T20:09:47Z,312025.56,Kanzler,diwani,d,rasilmali,mahitaji,maabudu,NA,NA,NA,"c(""distractor1"", ""distractor2"", ""distractor3"")",NA,NA,NA,NA,NA,NA,NA,NA,NA,NA,NA,NA,NA,NA,NA,NA,NA,NA,NA
8b524,task,flow.Sequence,2_6,NA,NA,completion,4515.96,307477,307475.4,307492.1,312008.06,312009,2023-08-25T20:09:47Z,312025.56,Kanzler,diwani,d,rasilmali,mahitaji,maabudu,NA,NA,NA,"c(""distractor1"", ""distractor2"", ""distractor3"")",NA,NA,NA,NA,NA,NA,NA,NA,NA,NA,NA,NA,NA,NA,NA,NA,NA,NA,NA
8b524,Shallow Question,html.Page,2_7_0_0,NA,NA,form submission,4088.44,312010,312008.06,312025.56,316114,316115,2023-08-25T20:09:51Z,316111.7,Sänger,mwimbaji,s,msichana,shughuli,mshirika,mwimbaji,NA,NA,"c(""distractor1"", ""distractor2"", ""distractor3"")",NA,NA,NA,NA,NA,NA,NA,NA,NA,NA,NA,NA,NA,NA,NA,NA,NA,NA,NA
8b524,Save data screen,canvas.Screen,2_7_0_1,NA,NA,timeout,497.33999999997,316116,316111.64,316111.7,316592.36,316593,2023-08-25T20:09:51Z,316609.04,Sänger,mwimbaji,s,msichana,shughuli,mshirika,NA,NA,1,"c(""distractor1"", ""distractor2"", ""distractor3"")",NA,NA,NA,NA,NA,NA,NA,NA,NA,NA,NA,NA,NA,NA,NA,NA,NA,NA,NA
8b524,shallow,flow.Sequence,2_7_0,NA,NA,completion,4566.8,312010,312008.06,312025.56,316592.36,316593,2023-08-25T20:09:51Z,316609.04,Sänger,mwimbaji,s,msichana,shughuli,mshirika,NA,NA,NA,"c(""distractor1"", ""distractor2"", ""distractor3"")",NA,NA,NA,NA,NA,NA,NA,NA,NA,NA,NA,NA,NA,NA,NA,NA,NA,NA,NA
8b524,task,flow.Sequence,2_7,NA,NA,completion,4566.8,312010,312008.06,312025.56,316592.36,316594,2023-08-25T20:09:51Z,316609.04,Sänger,mwimbaji,s,msichana,shughuli,mshirika,NA,NA,NA,"c(""distractor1"", ""distractor2"", ""distractor3"")",NA,NA,NA,NA,NA,NA,NA,NA,NA,NA,NA,NA,NA,NA,NA,NA,NA,NA,NA
8b524,Shallow Question,html.Page,2_8_0_0,NA,NA,form submission,6105.96,316594,316592.36,316609.04,322715,322715,2023-08-25T20:09:57Z,322725.92,Prüfung,mtihani,s,mkulima,mtizamo,ufumbuzi,mtihani,NA,NA,"c(""distractor1"", ""distractor2"", ""distractor3"")",NA,NA,NA,NA,NA,NA,NA,NA,NA,NA,NA,NA,NA,NA,NA,NA,NA,NA,NA
8b524,Save data screen,canvas.Screen,2_8_0_1,NA,NA,timeout,500,322717,322712.3,322725.92,323209.24,323209,2023-08-25T20:09:58Z,323225.92,Prüfung,mtihani,s,mkulima,mtizamo,ufumbuzi,NA,NA,1,"c(""distractor1"", ""distractor2"", ""distractor3"")",NA,NA,NA,NA,NA,NA,NA,NA,NA,NA,NA,NA,NA,NA,NA,NA,NA,NA,NA
8b524,shallow,flow.Sequence,2_8_0,NA,NA,completion,6600.2,316594,316592.36,316609.04,323209.24,323210,2023-08-25T20:09:58Z,323225.92,Prüfung,mtihani,s,mkulima,mtizamo,ufumbuzi,NA,NA,NA,"c(""distractor1"", ""distractor2"", ""distractor3"")",NA,NA,NA,NA,NA,NA,NA,NA,NA,NA,NA,NA,NA,NA,NA,NA,NA,NA,NA
8b524,task,flow.Sequence,2_8,NA,NA,completion,6600.2,316594,316592.36,316609.04,323209.24,323210,2023-08-25T20:09:58Z,323225.92,Prüfung,mtihani,s,mkulima,mtizamo,ufumbuzi,NA,NA,NA,"c(""distractor1"", ""distractor2"", ""distractor3"")",NA,NA,NA,NA,NA,NA,NA,NA,NA,NA,NA,NA,NA,NA,NA,NA,NA,NA,NA
8b524,Shallow Question,html.Page,2_9_0_0,NA,NA,form submission,15077.08,323210,323209.24,323225.92,338303,338307,2023-08-25T20:10:13Z,338309.74,Körper,kiwiliwili,d,mapambano,mpatanishi,kiolezo,kiwiliwili,NA,NA,"c(""distractor1"", ""distractor2"", ""distractor3"")",NA,NA,NA,NA,NA,NA,NA,NA,NA,NA,NA,NA,NA,NA,NA,NA,NA,NA,NA
8b524,Save data screen,canvas.Screen,2_9_0_1,NA,NA,timeout,500,338314,338295.76,338309.74,338793.08,338793,2023-08-25T20:10:13Z,338809.74,Körper,kiwiliwili,d,mapambano,mpatanishi,kiolezo,NA,NA,1,"c(""distractor1"", ""distractor2"", ""distractor3"")",NA,NA,NA,NA,NA,NA,NA,NA,NA,NA,NA,NA,NA,NA,NA,NA,NA,NA,NA
8b524,shallow,flow.Sequence,2_9_0,NA,NA,completion,15567.16,323210,323209.24,323225.92,338793.08,338795,2023-08-25T20:10:13Z,338809.74,Körper,kiwiliwili,d,mapambano,mpatanishi,kiolezo,NA,NA,NA,"c(""distractor1"", ""distractor2"", ""distractor3"")",NA,NA,NA,NA,NA,NA,NA,NA,NA,NA,NA,NA,NA,NA,NA,NA,NA,NA,NA
8b524,task,flow.Sequence,2_9,NA,NA,completion,15567.16,323210,323209.24,323225.92,338793.08,338795,2023-08-25T20:10:13Z,338809.74,Körper,kiwiliwili,d,mapambano,mpatanishi,kiolezo,NA,NA,NA,"c(""distractor1"", ""distractor2"", ""distractor3"")",NA,NA,NA,NA,NA,NA,NA,NA,NA,NA,NA,NA,NA,NA,NA,NA,NA,NA,NA
8b524,Shallow Question,html.Page,2_10_0_0,NA,NA,form submission,20255.26,338796,338793.08,338809.74,359065,359066,2023-08-25T20:10:34Z,359077.12,Lawine,banguko,s,maambukizi,usuluhishi,chekechea,chekechea,NA,NA,"c(""distractor1"", ""distractor2"", ""distractor3"")",NA,NA,NA,NA,NA,NA,NA,NA,NA,NA,NA,NA,NA,NA,NA,NA,NA,NA,NA
8b524,Save data screen,canvas.Screen,2_10_0_1,NA,NA,timeout,499.53999999998,359068,359062.74,359077.12,359560.42,359561,2023-08-25T20:10:34Z,359576.66,Lawine,banguko,s,maambukizi,usuluhishi,chekechea,NA,NA,0,"c(""distractor1"", ""distractor2"", ""distractor3"")",NA,NA,NA,NA,NA,NA,NA,NA,NA,NA,NA,NA,NA,NA,NA,NA,NA,NA,NA
8b524,shallow,flow.Sequence,2_10_0,NA,NA,completion,20750.68,338796,338793.08,338809.74,359560.42,359562,2023-08-25T20:10:34Z,359576.66,Lawine,banguko,s,maambukizi,usuluhishi,chekechea,NA,NA,NA,"c(""distractor1"", ""distractor2"", ""distractor3"")",NA,NA,NA,NA,NA,NA,NA,NA,NA,NA,NA,NA,NA,NA,NA,NA,NA,NA,NA
8b524,task,flow.Sequence,2_10,NA,NA,completion,20750.68,338795,338793.08,338809.74,359560.42,359563,2023-08-25T20:10:34Z,359576.66,Lawine,banguko,s,maambukizi,usuluhishi,chekechea,NA,NA,NA,"c(""distractor1"", ""distractor2"", ""distractor3"")",NA,NA,NA,NA,NA,NA,NA,NA,NA,NA,NA,NA,NA,NA,NA,NA,NA,NA,NA
8b524,Shallow Question,html.Page,2_11_0_0,NA,NA,form submission,4138.34,359563,359560.42,359576.66,363715,363716,2023-08-25T20:10:38Z,363727.26,Verzögerung,kuchelewa,d,mwakilishi,mwanauchumi,jaribio,kuchelewa,NA,NA,"c(""distractor1"", ""distractor2"", ""distractor3"")",NA,NA,NA,NA,NA,NA,NA,NA,NA,NA,NA,NA,NA,NA,NA,NA,NA,NA,NA
8b524,Save data screen,canvas.Screen,2_11_0_1,NA,NA,timeout,500,363718,363713.04,363727.26,364210.58,364212,2023-08-25T20:10:39Z,364227.26,Verzögerung,kuchelewa,d,mwakilishi,mwanauchumi,jaribio,NA,NA,1,"c(""distractor1"", ""distractor2"", ""distractor3"")",NA,NA,NA,NA,NA,NA,NA,NA,NA,NA,NA,NA,NA,NA,NA,NA,NA,NA,NA
8b524,shallow,flow.Sequence,2_11_0,NA,NA,completion,4633.92,359563,359560.42,359576.66,364210.58,364213,2023-08-25T20:10:39Z,364227.26,Verzögerung,kuchelewa,d,mwakilishi,mwanauchumi,jaribio,NA,NA,NA,"c(""distractor1"", ""distractor2"", ""distractor3"")",NA,NA,NA,NA,NA,NA,NA,NA,NA,NA,NA,NA,NA,NA,NA,NA,NA,NA,NA
8b524,task,flow.Sequence,2_11,NA,NA,completion,4633.92,359563,359560.42,359576.66,364210.58,364213,2023-08-25T20:10:39Z,364227.26,Verzögerung,kuchelewa,d,mwakilishi,mwanauchumi,jaribio,NA,NA,NA,"c(""distractor1"", ""distractor2"", ""distractor3"")",NA,NA,NA,NA,NA,NA,NA,NA,NA,NA,NA,NA,NA,NA,NA,NA,NA,NA,NA
8b524,Shallow Question,html.Page,2_12_0_0,NA,NA,form submission,8688.74,364214,364210.58,364227.26,372916,372917,2023-08-25T20:10:48Z,372927.58,Kultur,utamaduni,d,shetani,gerezani,mazingira,utamaduni,NA,NA,"c(""distractor1"", ""distractor2"", ""distractor3"")",NA,NA,NA,NA,NA,NA,NA,NA,NA,NA,NA,NA,NA,NA,NA,NA,NA,NA,NA
8b524,Save data screen,canvas.Screen,2_12_0_1,NA,NA,timeout,499.97999999998,372918,372913.84,372927.58,373410.86,373412,2023-08-25T20:10:48Z,373427.56,Kultur,utamaduni,d,shetani,gerezani,mazingira,NA,NA,1,"c(""distractor1"", ""distractor2"", ""distractor3"")",NA,NA,NA,NA,NA,NA,NA,NA,NA,NA,NA,NA,NA,NA,NA,NA,NA,NA,NA
8b524,shallow,flow.Sequence,2_12_0,NA,NA,completion,9183.6,364214,364210.58,364227.26,373410.86,373412,2023-08-25T20:10:48Z,373427.56,Kultur,utamaduni,d,shetani,gerezani,mazingira,NA,NA,NA,"c(""distractor1"", ""distractor2"", ""distractor3"")",NA,NA,NA,NA,NA,NA,NA,NA,NA,NA,NA,NA,NA,NA,NA,NA,NA,NA,NA
8b524,task,flow.Sequence,2_12,NA,NA,completion,9183.6,364213,364210.58,364227.26,373410.86,373412,2023-08-25T20:10:48Z,373427.56,Kultur,utamaduni,d,shetani,gerezani,mazingira,NA,NA,NA,"c(""distractor1"", ""distractor2"", ""distractor3"")",NA,NA,NA,NA,NA,NA,NA,NA,NA,NA,NA,NA,NA,NA,NA,NA,NA,NA,NA
8b524,Shallow Question,html.Page,2_13_0_0,NA,NA,form submission,8689.44,373414,373410.86,373427.56,382117,382117,2023-08-25T20:10:57Z,382127.84,System,maongozi,s,chokochoko,nuksani,mitaani,maongozi,NA,NA,"c(""distractor1"", ""distractor2"", ""distractor3"")",NA,NA,NA,NA,NA,NA,NA,NA,NA,NA,NA,NA,NA,NA,NA,NA,NA,NA,NA
8b524,Save data screen,canvas.Screen,2_13_0_1,NA,NA,timeout,500,382119,382113.84,382127.84,382611.16,382613,2023-08-25T20:10:57Z,382627.84,System,maongozi,s,chokochoko,nuksani,mitaani,NA,NA,1,"c(""distractor1"", ""distractor2"", ""distractor3"")",NA,NA,NA,NA,NA,NA,NA,NA,NA,NA,NA,NA,NA,NA,NA,NA,NA,NA,NA
8b524,shallow,flow.Sequence,2_13_0,NA,NA,completion,9183.6,373412,373410.86,373427.56,382611.16,382613,2023-08-25T20:10:57Z,382627.84,System,maongozi,s,chokochoko,nuksani,mitaani,NA,NA,NA,"c(""distractor1"", ""distractor2"", ""distractor3"")",NA,NA,NA,NA,NA,NA,NA,NA,NA,NA,NA,NA,NA,NA,NA,NA,NA,NA,NA
8b524,task,flow.Sequence,2_13,NA,NA,completion,9183.6,373412,373410.86,373427.56,382611.16,382613,2023-08-25T20:10:57Z,382627.84,System,maongozi,s,chokochoko,nuksani,mitaani,NA,NA,NA,"c(""distractor1"", ""distractor2"", ""distractor3"")",NA,NA,NA,NA,NA,NA,NA,NA,NA,NA,NA,NA,NA,NA,NA,NA,NA,NA,NA
8b524,Shallow Question,html.Page,2_14_0_0,NA,NA,form submission,15793.16,382614,382611.16,382627.84,398421,398425,2023-08-25T20:11:13Z,398427.68,Kontrolle,kudhibiti,d,mbinguni,kufunga,utegemezi,kufunga,NA,NA,"c(""distractor1"", ""distractor2"", ""distractor3"")",NA,NA,NA,NA,NA,NA,NA,NA,NA,NA,NA,NA,NA,NA,NA,NA,NA,NA,NA
8b524,Save data screen,canvas.Screen,2_14_0_1,NA,NA,timeout,500.70000000001,398434,398413.92,398427.68,398911.7,398912,2023-08-25T20:11:14Z,398928.38,Kontrolle,kudhibiti,d,mbinguni,kufunga,utegemezi,NA,NA,0,"c(""distractor1"", ""distractor2"", ""distractor3"")",NA,NA,NA,NA,NA,NA,NA,NA,NA,NA,NA,NA,NA,NA,NA,NA,NA,NA,NA
8b524,shallow,flow.Sequence,2_14_0,NA,NA,completion,16283.86,382614,382611.16,382627.84,398911.7,398913,2023-08-25T20:11:14Z,398928.38,Kontrolle,kudhibiti,d,mbinguni,kufunga,utegemezi,NA,NA,NA,"c(""distractor1"", ""distractor2"", ""distractor3"")",NA,NA,NA,NA,NA,NA,NA,NA,NA,NA,NA,NA,NA,NA,NA,NA,NA,NA,NA
8b524,task,flow.Sequence,2_14,NA,NA,completion,16283.86,382614,382611.16,382627.84,398911.7,398914,2023-08-25T20:11:14Z,398928.38,Kontrolle,kudhibiti,d,mbinguni,kufunga,utegemezi,NA,NA,NA,"c(""distractor1"", ""distractor2"", ""distractor3"")",NA,NA,NA,NA,NA,NA,NA,NA,NA,NA,NA,NA,NA,NA,NA,NA,NA,NA,NA
8b524,Shallow Question,html.Page,2_15_0_0,NA,NA,form submission,6721.62,398915,398911.7,398928.38,405650,405651,2023-08-25T20:11:20Z,405661.96,Kreativität,ubunifu,s,mratibu,mwendelezo,makubaliano,mwendelezo,NA,NA,"c(""distractor1"", ""distractor2"", ""distractor3"")",NA,NA,NA,NA,NA,NA,NA,NA,NA,NA,NA,NA,NA,NA,NA,NA,NA,NA,NA
8b524,Save data screen,canvas.Screen,2_15_0_1,NA,NA,timeout,499.97999999998,405653,405648.46,405661.96,406145.26,406146,2023-08-25T20:11:21Z,406161.94,Kreativität,ubunifu,s,mratibu,mwendelezo,makubaliano,NA,NA,0,"c(""distractor1"", ""distractor2"", ""distractor3"")",NA,NA,NA,NA,NA,NA,NA,NA,NA,NA,NA,NA,NA,NA,NA,NA,NA,NA,NA
8b524,shallow,flow.Sequence,2_15_0,NA,NA,completion,7216.88,398914,398911.7,398928.38,406145.26,406147,2023-08-25T20:11:21Z,406161.94,Kreativität,ubunifu,s,mratibu,mwendelezo,makubaliano,NA,NA,NA,"c(""distractor1"", ""distractor2"", ""distractor3"")",NA,NA,NA,NA,NA,NA,NA,NA,NA,NA,NA,NA,NA,NA,NA,NA,NA,NA,NA
8b524,task,flow.Sequence,2_15,NA,NA,completion,7216.88,398914,398911.7,398928.38,406145.26,406147,2023-08-25T20:11:21Z,406161.94,Kreativität,ubunifu,s,mratibu,mwendelezo,makubaliano,NA,NA,NA,"c(""distractor1"", ""distractor2"", ""distractor3"")",NA,NA,NA,NA,NA,NA,NA,NA,NA,NA,NA,NA,NA,NA,NA,NA,NA,NA,NA
8b524,retrieval block 2 (multiple choice),flow.Loop,2,NA,NA,completion,141104.82,265027,265024.02,265040.44,406145.26,406148,2023-08-25T20:11:21Z,406161.94,NA,NA,NA,NA,NA,NA,NA,NA,NA,"c(""distractor1"", ""distractor2"", ""distractor3"")",NA,NA,NA,NA,NA,NA,NA,NA,NA,NA,NA,NA,NA,NA,NA,NA,NA,NA,NA
8b524,End,canvas.Screen,3,NA,keypress(Space),response,1245.06,406148,406145.26,406161.94,407407,407415,2023-08-25T20:11:22Z,407416.18,NA,NA,NA,NA,NA,NA,NA,NA,NA,NULL,NA,NA,NA,NA,NA,NA,NA,NA,NA,NA,NA,NA,NA,NA,NA,NA,NA,NA,NA
8b524,root,flow.Sequence,NA,NA,NA,completion,406975.1,417,415.22,431.9,407407,407416,2023-08-25T20:11:22Z,407416.18,NA,NA,NA,NA,NA,NA,NA,NA,NA,NULL,NA,NA,NA,NA,NA,NA,NA,NA,NA,NA,NA,NA,NA,NA,NA,NA,NA,NA,NA