observation,sender,sender_type,sender_id,response,response_action,ended_on,duration,time_run,time_render,time_show,time_end,time_commit,timestamp,time_switch,distractors,german,swahili,enc,distractor1,distractor2,distractor3,response_2,x,correct,x_2,url_vp,url_sess,meta_labjs_version,meta_location,meta_user_agent,meta_platform,meta_language,meta_locale,meta_time_zone,meta_timezone_offset,meta_screen_width,meta_screen_height,meta_scroll_width,meta_scroll_height,meta_window_inner_width,meta_window_inner_height,meta_device_pixel_ratio,meta_labjs_build_flavor,meta_labjs_build_commit
13eb4,Introduction general,canvas.Screen,0,weiter,keypress(q),response,63889.211,675.69999999995,281.213,681.289,64570.5,64576.7,2023-08-21T15:21:17Z,64580.783,NULL,NA,NA,NA,NA,NA,NA,NA,NA,NA,NA,128,3,20.2.4,https://neurocog.fernuni.ch/studies/vweber/encoding_immediate/index.html?vp=128&sess=3,"Mozilla/5.0 (Windows NT 10.0; Win64; x64) AppleWebKit/537.36 (KHTML, like Gecko) Chrome/116.0.0.0 Safari/537.36",Win32,de-DE,de,Europe/Zurich,-120,1440,960,1440,755,1440,803,2,production,f5b4a49f956347addd546a832a3327688c2c0fef
13eb4,Introduction practice,canvas.Screen,1_0,NA,keypress(Space),response,6758.6169999999,64576.8,64565.71,64580.783,71339.4,71340.6,2023-08-21T15:21:24Z,71354.514,NULL,NA,NA,NA,NA,NA,NA,NA,NA,NA,NA,NA,NA,NA,NA,NA,NA,NA,NA,NA,NA,NA,NA,NA,NA,NA,NA,NA,NA,NA
13eb4,deep,flow.Sequence,1_1_0_0,NA,NA,skipped,NA,71341,NA,NA,71339.4,71344,2023-08-21T15:21:24Z,71354.514,"c(""distractor1"", ""distractor2"", ""distractor3"")",Gegenwart,hadhara,s,katiba,jokofu,mikopo,NA,NA,NA,NA,NA,NA,NA,NA,NA,NA,NA,NA,NA,NA,NA,NA,NA,NA,NA,NA,NA,NA,NA
13eb4,Shallow Question,html.Page,1_1_0_1_0,NA,NA,form submission,5246.2860000001,71344.2,71344.76,71354.514,76600.8,76601.3,2023-08-21T15:21:29Z,76602.406,"c(""distractor1"", ""distractor2"", ""distractor3"")",Gegenwart,hadhara,s,katiba,jokofu,mikopo,hadhara,NA,NA,NA,NA,NA,NA,NA,NA,NA,NA,NA,NA,NA,NA,NA,NA,NA,NA,NA,NA,NA,NA
13eb4,"""Richtig""-Screen",canvas.Screen,1_1_0_1_1,NA,NA,timeout,5000.245,76604.1,76594.257,76602.406,81585.897,81587,2023-08-21T15:21:34Z,81602.651,"c(""distractor1"", ""distractor2"", ""distractor3"")",Gegenwart,hadhara,s,katiba,jokofu,mikopo,NA,NA,1,NA,NA,NA,NA,NA,NA,NA,NA,NA,NA,NA,NA,NA,NA,NA,NA,NA,NA,NA,NA
13eb4,"""Falsch""-Screen",canvas.Screen,1_1_0_1_2,NA,NA,skipped,NA,81588.8,NA,NA,81585.897,81589.1,2023-08-21T15:21:34Z,81602.651,"c(""distractor1"", ""distractor2"", ""distractor3"")",Gegenwart,hadhara,s,katiba,jokofu,mikopo,NA,NA,NA,NA,NA,NA,NA,NA,NA,NA,NA,NA,NA,NA,NA,NA,NA,NA,NA,NA,NA,NA,NA
13eb4,shallow,flow.Sequence,1_1_0_1,NA,NA,completion,10231.383,71344.2,71344.76,71354.514,81585.897,81589.5,2023-08-21T15:21:34Z,81602.651,"c(""distractor1"", ""distractor2"", ""distractor3"")",Gegenwart,hadhara,s,katiba,jokofu,mikopo,NA,NA,NA,NA,NA,NA,NA,NA,NA,NA,NA,NA,NA,NA,NA,NA,NA,NA,NA,NA,NA,NA,NA
13eb4,task,flow.Sequence,1_1_0,NA,NA,completion,10231.383,71341,71344.76,71354.514,81585.897,81589.9,2023-08-21T15:21:34Z,81602.651,"c(""distractor1"", ""distractor2"", ""distractor3"")",Gegenwart,hadhara,s,katiba,jokofu,mikopo,NA,NA,NA,NA,NA,NA,NA,NA,NA,NA,NA,NA,NA,NA,NA,NA,NA,NA,NA,NA,NA,NA,NA
13eb4,Deep Question,html.Page,1_1_1_0_0,NA,NA,form submission,5347.149,81590.1,81585.897,81602.651,86949.8,86950.6,2023-08-21T15:21:40Z,86971.073,"c(""distractor1"", ""distractor2"", ""distractor3"")",Gesundheit,salama,d,NA,NA,NA,j,NA,NA,NA,NA,NA,NA,NA,NA,NA,NA,NA,NA,NA,NA,NA,NA,NA,NA,NA,NA,NA,NA
13eb4,"""Richtig""-Screen",canvas.Screen,1_1_1_0_1,NA,NA,skipped,NA,86956.1,NA,NA,86949.8,86956.5,2023-08-21T15:21:40Z,86971.073,"c(""distractor1"", ""distractor2"", ""distractor3"")",Gesundheit,salama,d,NA,NA,NA,NA,NA,NA,NA,NA,NA,NA,NA,NA,NA,NA,NA,NA,NA,NA,NA,NA,NA,NA,NA,NA,NA,NA
13eb4,"""Falsch""-Screen",canvas.Screen,1_1_1_0_2,NA,NA,timeout,5001.683,86958.7,86937.195,86971.073,91956.453,91957.3,2023-08-21T15:21:45Z,91972.756,"c(""distractor1"", ""distractor2"", ""distractor3"")",Gesundheit,salama,d,NA,NA,NA,NA,NA,0,NA,NA,NA,NA,NA,NA,NA,NA,NA,NA,NA,NA,NA,NA,NA,NA,NA,NA,NA,NA
13eb4,deep,flow.Sequence,1_1_1_0,NA,NA,completion,10353.802,81590.1,81585.897,81602.651,91956.453,91957.7,2023-08-21T15:21:45Z,91972.756,"c(""distractor1"", ""distractor2"", ""distractor3"")",Gesundheit,salama,d,NA,NA,NA,NA,NA,NA,NA,NA,NA,NA,NA,NA,NA,NA,NA,NA,NA,NA,NA,NA,NA,NA,NA,NA,NA,NA
13eb4,shallow,flow.Sequence,1_1_1_1,NA,NA,skipped,NA,91957.8,NA,NA,91956.453,91958,2023-08-21T15:21:45Z,91972.756,"c(""distractor1"", ""distractor2"", ""distractor3"")",Gesundheit,salama,d,NA,NA,NA,NA,NA,NA,NA,NA,NA,NA,NA,NA,NA,NA,NA,NA,NA,NA,NA,NA,NA,NA,NA,NA,NA,NA
13eb4,task,flow.Sequence,1_1_1,NA,NA,completion,10353.802,81589.9,81585.897,81602.651,91956.453,91958.1,2023-08-21T15:21:45Z,91972.756,"c(""distractor1"", ""distractor2"", ""distractor3"")",Gesundheit,salama,d,NA,NA,NA,NA,NA,NA,NA,NA,NA,NA,NA,NA,NA,NA,NA,NA,NA,NA,NA,NA,NA,NA,NA,NA,NA,NA
13eb4,deep,flow.Sequence,1_1_2_0,NA,NA,skipped,NA,91958.3,NA,NA,91956.453,91958.4,2023-08-21T15:21:45Z,91972.756,"c(""distractor1"", ""distractor2"", ""distractor3"")",Kritik,lawama,s,dereva,nafasi,mawazo,NA,NA,NA,NA,NA,NA,NA,NA,NA,NA,NA,NA,NA,NA,NA,NA,NA,NA,NA,NA,NA,NA,NA
13eb4,Shallow Question,html.Page,1_1_2_1_0,NA,NA,form submission,6757.3439999999,91958.5,91956.453,91972.756,98730.1,98730.5,2023-08-21T15:21:51Z,98735.859,"c(""distractor1"", ""distractor2"", ""distractor3"")",Kritik,lawama,s,dereva,nafasi,mawazo,nafasi,NA,NA,NA,NA,NA,NA,NA,NA,NA,NA,NA,NA,NA,NA,NA,NA,NA,NA,NA,NA,NA,NA
13eb4,"""Richtig""-Screen",canvas.Screen,1_1_2_1_1,NA,NA,skipped,NA,98734.6,NA,NA,98730.1,98735.1,2023-08-21T15:21:51Z,98735.859,"c(""distractor1"", ""distractor2"", ""distractor3"")",Kritik,lawama,s,dereva,nafasi,mawazo,NA,NA,NA,NA,NA,NA,NA,NA,NA,NA,NA,NA,NA,NA,NA,NA,NA,NA,NA,NA,NA,NA,NA
13eb4,"""Falsch""-Screen",canvas.Screen,1_1_2_1_2,NA,NA,timeout,4995.855,98737,98713.915,98735.859,103715.051,103715.7,2023-08-21T15:21:56Z,103731.714,"c(""distractor1"", ""distractor2"", ""distractor3"")",Kritik,lawama,s,dereva,nafasi,mawazo,NA,NA,0,NA,NA,NA,NA,NA,NA,NA,NA,NA,NA,NA,NA,NA,NA,NA,NA,NA,NA,NA,NA
13eb4,shallow,flow.Sequence,1_1_2_1,NA,NA,completion,11742.295,91958.5,91956.453,91972.756,103715.051,103715.9,2023-08-21T15:21:56Z,103731.714,"c(""distractor1"", ""distractor2"", ""distractor3"")",Kritik,lawama,s,dereva,nafasi,mawazo,NA,NA,NA,NA,NA,NA,NA,NA,NA,NA,NA,NA,NA,NA,NA,NA,NA,NA,NA,NA,NA,NA,NA
13eb4,task,flow.Sequence,1_1_2,NA,NA,completion,11742.295,91958.2,91956.453,91972.756,103715.051,103716.1,2023-08-21T15:21:56Z,103731.714,"c(""distractor1"", ""distractor2"", ""distractor3"")",Kritik,lawama,s,dereva,nafasi,mawazo,NA,NA,NA,NA,NA,NA,NA,NA,NA,NA,NA,NA,NA,NA,NA,NA,NA,NA,NA,NA,NA,NA,NA
13eb4,Deep Question,html.Page,1_1_3_0_0,NA,NA,form submission,4823.586,103716.3,103715.051,103731.714,108555.3,108555.6,2023-08-21T15:22:01Z,108561.291,"c(""distractor1"", ""distractor2"", ""distractor3"")",Schatten,kivuli,d,NA,NA,NA,k,NA,NA,NA,NA,NA,NA,NA,NA,NA,NA,NA,NA,NA,NA,NA,NA,NA,NA,NA,NA,NA,NA
13eb4,"""Richtig""-Screen",canvas.Screen,1_1_3_0_1,NA,NA,skipped,NA,108558.5,NA,NA,108555.3,108558.6,2023-08-21T15:22:01Z,108561.291,"c(""distractor1"", ""distractor2"", ""distractor3"")",Schatten,kivuli,d,NA,NA,NA,NA,NA,NA,NA,NA,NA,NA,NA,NA,NA,NA,NA,NA,NA,NA,NA,NA,NA,NA,NA,NA,NA,NA
13eb4,"""Falsch""-Screen",canvas.Screen,1_1_3_0_2,NA,NA,timeout,5004.428,108559.1,108543.601,108561.291,113549.232,113550,2023-08-21T15:22:06Z,113565.719,"c(""distractor1"", ""distractor2"", ""distractor3"")",Schatten,kivuli,d,NA,NA,NA,NA,NA,0,NA,NA,NA,NA,NA,NA,NA,NA,NA,NA,NA,NA,NA,NA,NA,NA,NA,NA,NA,NA
13eb4,deep,flow.Sequence,1_1_3_0,NA,NA,completion,9817.518,103716.3,103715.051,103731.714,113549.232,113550.2,2023-08-21T15:22:06Z,113565.719,"c(""distractor1"", ""distractor2"", ""distractor3"")",Schatten,kivuli,d,NA,NA,NA,NA,NA,NA,NA,NA,NA,NA,NA,NA,NA,NA,NA,NA,NA,NA,NA,NA,NA,NA,NA,NA,NA,NA
13eb4,shallow,flow.Sequence,1_1_3_1,NA,NA,skipped,NA,113550.3,NA,NA,113549.232,113550.5,2023-08-21T15:22:06Z,113565.719,"c(""distractor1"", ""distractor2"", ""distractor3"")",Schatten,kivuli,d,NA,NA,NA,NA,NA,NA,NA,NA,NA,NA,NA,NA,NA,NA,NA,NA,NA,NA,NA,NA,NA,NA,NA,NA,NA,NA
13eb4,task,flow.Sequence,1_1_3,NA,NA,completion,9817.518,103716.3,103715.051,103731.714,113549.232,113550.6,2023-08-21T15:22:06Z,113565.719,"c(""distractor1"", ""distractor2"", ""distractor3"")",Schatten,kivuli,d,NA,NA,NA,NA,NA,NA,NA,NA,NA,NA,NA,NA,NA,NA,NA,NA,NA,NA,NA,NA,NA,NA,NA,NA,NA,NA
13eb4,deep,flow.Sequence,1_1_4_0,NA,NA,skipped,NA,113550.8,NA,NA,113549.232,113550.8,2023-08-21T15:22:06Z,113565.719,"c(""distractor1"", ""distractor2"", ""distractor3"")",Rückhalt,msaada,s,muhula,auwali,kiwimbe,NA,NA,NA,NA,NA,NA,NA,NA,NA,NA,NA,NA,NA,NA,NA,NA,NA,NA,NA,NA,NA,NA,NA
13eb4,Shallow Question,html.Page,1_1_4_1_0,NA,NA,form submission,11846.881,113551,113549.232,113565.719,125412.6,125412.8,2023-08-21T15:22:18Z,125420.178,"c(""distractor1"", ""distractor2"", ""distractor3"")",Rückhalt,msaada,s,muhula,auwali,kiwimbe,muhula,NA,NA,NA,NA,NA,NA,NA,NA,NA,NA,NA,NA,NA,NA,NA,NA,NA,NA,NA,NA,NA,NA
13eb4,"""Richtig""-Screen",canvas.Screen,1_1_4_1_1,NA,NA,skipped,NA,125416,NA,NA,125412.6,125416.2,2023-08-21T15:22:18Z,125420.178,"c(""distractor1"", ""distractor2"", ""distractor3"")",Rückhalt,msaada,s,muhula,auwali,kiwimbe,NA,NA,NA,NA,NA,NA,NA,NA,NA,NA,NA,NA,NA,NA,NA,NA,NA,NA,NA,NA,NA,NA,NA
13eb4,"""Falsch""-Screen",canvas.Screen,1_1_4_1_2,NA,NA,timeout,5004.938,125416.4,125398.631,125420.178,130408.667,130409.3,2023-08-21T15:22:23Z,130425.116,"c(""distractor1"", ""distractor2"", ""distractor3"")",Rückhalt,msaada,s,muhula,auwali,kiwimbe,NA,NA,0,NA,NA,NA,NA,NA,NA,NA,NA,NA,NA,NA,NA,NA,NA,NA,NA,NA,NA,NA,NA
13eb4,shallow,flow.Sequence,1_1_4_1,NA,NA,completion,16842.948,113550.9,113549.232,113565.719,130408.667,130409.6,2023-08-21T15:22:23Z,130425.116,"c(""distractor1"", ""distractor2"", ""distractor3"")",Rückhalt,msaada,s,muhula,auwali,kiwimbe,NA,NA,NA,NA,NA,NA,NA,NA,NA,NA,NA,NA,NA,NA,NA,NA,NA,NA,NA,NA,NA,NA,NA
13eb4,task,flow.Sequence,1_1_4,NA,NA,completion,16842.948,113550.7,113549.232,113565.719,130408.667,130409.7,2023-08-21T15:22:23Z,130425.116,"c(""distractor1"", ""distractor2"", ""distractor3"")",Rückhalt,msaada,s,muhula,auwali,kiwimbe,NA,NA,NA,NA,NA,NA,NA,NA,NA,NA,NA,NA,NA,NA,NA,NA,NA,NA,NA,NA,NA,NA,NA
13eb4,Deep Question,html.Page,1_1_5_0_0,NA,NA,form submission,5910.2839999999,130409.9,130408.667,130425.116,136335.4,136335.9,2023-08-21T15:22:29Z,136340.113,"c(""distractor1"", ""distractor2"", ""distractor3"")",Qualität,mtindo,d,NA,NA,NA,w,NA,NA,NA,NA,NA,NA,NA,NA,NA,NA,NA,NA,NA,NA,NA,NA,NA,NA,NA,NA,NA,NA
13eb4,"""Richtig""-Screen",canvas.Screen,1_1_5_0_1,NA,NA,skipped,NA,136337.3,NA,NA,136335.4,136337.6,2023-08-21T15:22:29Z,136340.113,"c(""distractor1"", ""distractor2"", ""distractor3"")",Qualität,mtindo,d,NA,NA,NA,NA,NA,NA,NA,NA,NA,NA,NA,NA,NA,NA,NA,NA,NA,NA,NA,NA,NA,NA,NA,NA,NA,NA
13eb4,"""Falsch""-Screen",canvas.Screen,1_1_5_0_2,NA,NA,timeout,4999.598,136338.6,136322.515,136340.113,141322.742,141323.3,2023-08-21T15:22:34Z,141339.711,"c(""distractor1"", ""distractor2"", ""distractor3"")",Qualität,mtindo,d,NA,NA,NA,NA,NA,0,NA,NA,NA,NA,NA,NA,NA,NA,NA,NA,NA,NA,NA,NA,NA,NA,NA,NA,NA,NA
13eb4,deep,flow.Sequence,1_1_5_0,NA,NA,completion,10897.626,130409.9,130408.667,130425.116,141322.742,141323.5,2023-08-21T15:22:34Z,141339.711,"c(""distractor1"", ""distractor2"", ""distractor3"")",Qualität,mtindo,d,NA,NA,NA,NA,NA,NA,NA,NA,NA,NA,NA,NA,NA,NA,NA,NA,NA,NA,NA,NA,NA,NA,NA,NA,NA,NA
13eb4,shallow,flow.Sequence,1_1_5_1,NA,NA,skipped,NA,141323.5,NA,NA,141322.742,141323.6,2023-08-21T15:22:34Z,141339.711,"c(""distractor1"", ""distractor2"", ""distractor3"")",Qualität,mtindo,d,NA,NA,NA,NA,NA,NA,NA,NA,NA,NA,NA,NA,NA,NA,NA,NA,NA,NA,NA,NA,NA,NA,NA,NA,NA,NA
13eb4,task,flow.Sequence,1_1_5,NA,NA,completion,10897.626,130409.8,130408.667,130425.116,141322.742,141323.8,2023-08-21T15:22:34Z,141339.711,"c(""distractor1"", ""distractor2"", ""distractor3"")",Qualität,mtindo,d,NA,NA,NA,NA,NA,NA,NA,NA,NA,NA,NA,NA,NA,NA,NA,NA,NA,NA,NA,NA,NA,NA,NA,NA,NA,NA
13eb4,block,flow.Loop,1_1,NA,NA,completion,69968.228,71340.9,71344.76,71354.514,141322.742,141323.9,2023-08-21T15:22:34Z,141339.711,"c(""distractor1"", ""distractor2"", ""distractor3"")",NA,NA,NA,NA,NA,NA,NA,NA,NA,NA,NA,NA,NA,NA,NA,NA,NA,NA,NA,NA,NA,NA,NA,NA,NA,NA,NA,NA,NA
13eb4,Practice,flow.Sequence,1,NA,NA,completion,76741.959,64576.8,64565.71,64580.783,141322.742,141324,2023-08-21T15:22:34Z,141339.711,NULL,NA,NA,NA,NA,NA,NA,NA,NA,NA,NA,NA,NA,NA,NA,NA,NA,NA,NA,NA,NA,NA,NA,NA,NA,NA,NA,NA,NA,NA
13eb4,Experiment start,canvas.Screen,2,weiter,keypress(q),response,13742.989,141324.1,141322.742,141339.711,155082.7,155088.3,2023-08-21T15:22:48Z,155159.096,NULL,NA,NA,NA,NA,NA,NA,NA,NA,NA,NA,NA,NA,NA,NA,NA,NA,NA,NA,NA,NA,NA,NA,NA,NA,NA,NA,NA,NA,NA
13eb4,deep,flow.Sequence,3_0_0_0_0_0,NA,NA,skipped,NA,155159,NA,NA,155082.7,155159.1,2023-08-21T15:22:48Z,155159.096,NULL,Angreifer,mshambulizi,s,kitengo,tasinia,usafirishaji,NA,sdf,NA,0,NA,NA,NA,NA,NA,NA,NA,NA,NA,NA,NA,NA,NA,NA,NA,NA,NA,NA,NA
13eb4,Shallow Question,html.Page,3_0_0_0_0_1_0,NA,NA,form submission,9442.104,155159.2,155071.653,155159.096,164601.2,164601.6,2023-08-21T15:22:57Z,164607.369,NULL,Angreifer,mshambulizi,s,kitengo,tasinia,usafirishaji,kitengo,NA,NA,0,NA,NA,NA,NA,NA,NA,NA,NA,NA,NA,NA,NA,NA,NA,NA,NA,NA,NA,NA
13eb4,"""Richtig""-Screen",canvas.Screen,3_0_0_0_0_1_1,NA,NA,skipped,NA,164604.8,NA,NA,164601.2,164604.8,2023-08-21T15:22:57Z,164607.369,NULL,Angreifer,mshambulizi,s,kitengo,tasinia,usafirishaji,NA,sdf,NA,0,NA,NA,NA,NA,NA,NA,NA,NA,NA,NA,NA,NA,NA,NA,NA,NA,NA,NA,NA
13eb4,"""Falsch""-Screen",canvas.Screen,3_0_0_0_0_1_2,NA,NA,timeout,5003.827,164605.2,164585.565,164607.369,169594.523,169595.3,2023-08-21T15:23:02Z,169611.196,NULL,Angreifer,mshambulizi,s,kitengo,tasinia,usafirishaji,NA,sdf,0,0,NA,NA,NA,NA,NA,NA,NA,NA,NA,NA,NA,NA,NA,NA,NA,NA,NA,NA,NA
13eb4,shallow,flow.Sequence,3_0_0_0_0_1,NA,NA,completion,14435.427,155159.2,155071.653,155159.096,169594.523,169595.5,2023-08-21T15:23:02Z,169611.196,NULL,Angreifer,mshambulizi,s,kitengo,tasinia,usafirishaji,NA,sdf,NA,0,NA,NA,NA,NA,NA,NA,NA,NA,NA,NA,NA,NA,NA,NA,NA,NA,NA,NA,NA
13eb4,task,flow.Sequence,3_0_0_0_0,NA,NA,completion,14435.427,155159,155071.653,155159.096,169594.523,169595.7,2023-08-21T15:23:02Z,169611.196,NULL,Angreifer,mshambulizi,s,kitengo,tasinia,usafirishaji,NA,sdf,NA,0,NA,NA,NA,NA,NA,NA,NA,NA,NA,NA,NA,NA,NA,NA,NA,NA,NA,NA,NA
13eb4,Deep Question,html.Page,3_0_0_0_1_0_0,NA,NA,form submission,5252.7039999999,169595.8,169594.523,169611.196,174863.9,174864.1,2023-08-21T15:23:08Z,174877.531,NULL,Abrechnung,uhasibu,d,NA,NA,NA,f,NA,NA,0,NA,NA,NA,NA,NA,NA,NA,NA,NA,NA,NA,NA,NA,NA,NA,NA,NA,NA,NA
13eb4,"""Richtig""-Screen",canvas.Screen,3_0_0_0_1_0_1,NA,NA,skipped,NA,174864.5,NA,NA,174863.9,174864.6,2023-08-21T15:23:08Z,174877.531,NULL,Abrechnung,uhasibu,d,NA,NA,NA,NA,sdf,NA,0,NA,NA,NA,NA,NA,NA,NA,NA,NA,NA,NA,NA,NA,NA,NA,NA,NA,NA,NA
13eb4,"""Falsch""-Screen",canvas.Screen,3_0_0_0_1_0_2,NA,NA,timeout,4999.953,174864.9,174862.518,174877.531,179860.575,179861.7,2023-08-21T15:23:13Z,179877.484,NULL,Abrechnung,uhasibu,d,NA,NA,NA,NA,sdf,0,0,NA,NA,NA,NA,NA,NA,NA,NA,NA,NA,NA,NA,NA,NA,NA,NA,NA,NA,NA
13eb4,deep,flow.Sequence,3_0_0_0_1_0,NA,NA,completion,10249.379,169595.7,169594.523,169611.196,179860.575,179861.9,2023-08-21T15:23:13Z,179877.484,NULL,Abrechnung,uhasibu,d,NA,NA,NA,NA,sdf,NA,0,NA,NA,NA,NA,NA,NA,NA,NA,NA,NA,NA,NA,NA,NA,NA,NA,NA,NA,NA
13eb4,shallow,flow.Sequence,3_0_0_0_1_1,NA,NA,skipped,NA,179862,NA,NA,179860.575,179862.2,2023-08-21T15:23:13Z,179877.484,NULL,Abrechnung,uhasibu,d,NA,NA,NA,NA,sdf,NA,0,NA,NA,NA,NA,NA,NA,NA,NA,NA,NA,NA,NA,NA,NA,NA,NA,NA,NA,NA
13eb4,task,flow.Sequence,3_0_0_0_1,NA,NA,completion,10249.379,169595.7,169594.523,169611.196,179860.575,179862.3,2023-08-21T15:23:13Z,179877.484,NULL,Abrechnung,uhasibu,d,NA,NA,NA,NA,sdf,NA,0,NA,NA,NA,NA,NA,NA,NA,NA,NA,NA,NA,NA,NA,NA,NA,NA,NA,NA,NA
13eb4,deep,flow.Sequence,3_0_0_0_2_0,NA,NA,skipped,NA,179862.4,NA,NA,179860.575,179862.4,2023-08-21T15:23:13Z,179877.484,NULL,Auftrag,uagizaji,s,ghanima,kuzingatia,msukani,NA,sdf,NA,0,NA,NA,NA,NA,NA,NA,NA,NA,NA,NA,NA,NA,NA,NA,NA,NA,NA,NA,NA
13eb4,Shallow Question,html.Page,3_0_0_0_2_1_0,NA,NA,form submission,12208.916,179862.6,179860.575,179877.484,192086.4,192087,2023-08-21T15:23:25Z,192091.784,NULL,Auftrag,uagizaji,s,ghanima,kuzingatia,msukani,msukani,NA,NA,0,NA,NA,NA,NA,NA,NA,NA,NA,NA,NA,NA,NA,NA,NA,NA,NA,NA,NA,NA
13eb4,"""Richtig""-Screen",canvas.Screen,3_0_0_0_2_1_1,NA,NA,skipped,NA,192091.1,NA,NA,192086.4,192091.4,2023-08-21T15:23:25Z,192091.784,NULL,Auftrag,uagizaji,s,ghanima,kuzingatia,msukani,NA,sdf,NA,0,NA,NA,NA,NA,NA,NA,NA,NA,NA,NA,NA,NA,NA,NA,NA,NA,NA,NA,NA
13eb4,"""Falsch""-Screen",canvas.Screen,3_0_0_0_2_1_2,NA,NA,timeout,4995.225,192093.2,192069.134,192091.784,197070.39,197071.3,2023-08-21T15:23:30Z,197087.009,NULL,Auftrag,uagizaji,s,ghanima,kuzingatia,msukani,NA,sdf,0,0,NA,NA,NA,NA,NA,NA,NA,NA,NA,NA,NA,NA,NA,NA,NA,NA,NA,NA,NA
13eb4,shallow,flow.Sequence,3_0_0_0_2_1,NA,NA,completion,17192.906,179862.5,179860.575,179877.484,197070.39,197071.6,2023-08-21T15:23:30Z,197087.009,NULL,Auftrag,uagizaji,s,ghanima,kuzingatia,msukani,NA,sdf,NA,0,NA,NA,NA,NA,NA,NA,NA,NA,NA,NA,NA,NA,NA,NA,NA,NA,NA,NA,NA
13eb4,task,flow.Sequence,3_0_0_0_2,NA,NA,completion,17192.906,179862.3,179860.575,179877.484,197070.39,197071.8,2023-08-21T15:23:30Z,197087.009,NULL,Auftrag,uagizaji,s,ghanima,kuzingatia,msukani,NA,sdf,NA,0,NA,NA,NA,NA,NA,NA,NA,NA,NA,NA,NA,NA,NA,NA,NA,NA,NA,NA,NA
13eb4,Deep Question,html.Page,3_0_0_0_3_0_0,NA,NA,form submission,4238.8909999999,197071.9,197070.39,197087.009,201325.9,201326.1,2023-08-21T15:23:34Z,201334.654,NULL,Kanzler,diwani,d,NA,NA,NA,g,NA,NA,0,NA,NA,NA,NA,NA,NA,NA,NA,NA,NA,NA,NA,NA,NA,NA,NA,NA,NA,NA
13eb4,"""Richtig""-Screen",canvas.Screen,3_0_0_0_3_0_1,NA,NA,skipped,NA,201326.6,NA,NA,201325.9,201326.7,2023-08-21T15:23:34Z,201334.654,NULL,Kanzler,diwani,d,NA,NA,NA,NA,sdf,NA,0,NA,NA,NA,NA,NA,NA,NA,NA,NA,NA,NA,NA,NA,NA,NA,NA,NA,NA,NA
13eb4,"""Falsch""-Screen",canvas.Screen,3_0_0_0_3_0_2,NA,NA,timeout,5000.308,201327,201323.822,201334.654,206318.637,206320.3,2023-08-21T15:23:39Z,206334.962,NULL,Kanzler,diwani,d,NA,NA,NA,NA,sdf,0,0,NA,NA,NA,NA,NA,NA,NA,NA,NA,NA,NA,NA,NA,NA,NA,NA,NA,NA,NA
13eb4,deep,flow.Sequence,3_0_0_0_3_0,NA,NA,completion,9231.628,197071.9,197070.39,197087.009,206318.637,206320.5,2023-08-21T15:23:39Z,206334.962,NULL,Kanzler,diwani,d,NA,NA,NA,NA,sdf,NA,0,NA,NA,NA,NA,NA,NA,NA,NA,NA,NA,NA,NA,NA,NA,NA,NA,NA,NA,NA
13eb4,shallow,flow.Sequence,3_0_0_0_3_1,NA,NA,skipped,NA,206320.7,NA,NA,206318.637,206320.7,2023-08-21T15:23:39Z,206334.962,NULL,Kanzler,diwani,d,NA,NA,NA,NA,sdf,NA,0,NA,NA,NA,NA,NA,NA,NA,NA,NA,NA,NA,NA,NA,NA,NA,NA,NA,NA,NA
13eb4,task,flow.Sequence,3_0_0_0_3,NA,NA,completion,9231.628,197071.8,197070.39,197087.009,206318.637,206320.9,2023-08-21T15:23:39Z,206334.962,NULL,Kanzler,diwani,d,NA,NA,NA,NA,sdf,NA,0,NA,NA,NA,NA,NA,NA,NA,NA,NA,NA,NA,NA,NA,NA,NA,NA,NA,NA,NA
13eb4,Deep Question,html.Page,3_0_0_0_4_0_0,NA,NA,form submission,3413.9379999999,206321,206318.637,206334.962,209748.9,209749.1,2023-08-21T15:23:43Z,209757.716,NULL,Zufall,kikuti,d,NA,NA,NA,f,NA,NA,0,NA,NA,NA,NA,NA,NA,NA,NA,NA,NA,NA,NA,NA,NA,NA,NA,NA,NA,NA
13eb4,"""Richtig""-Screen",canvas.Screen,3_0_0_0_4_0_1,NA,NA,skipped,NA,209749.7,NA,NA,209748.9,209749.7,2023-08-21T15:23:43Z,209757.716,NULL,Zufall,kikuti,d,NA,NA,NA,NA,sdf,NA,0,NA,NA,NA,NA,NA,NA,NA,NA,NA,NA,NA,NA,NA,NA,NA,NA,NA,NA,NA
13eb4,"""Falsch""-Screen",canvas.Screen,3_0_0_0_4_0_2,NA,NA,timeout,4999.673,209750.2,209743.512,209757.716,214740.714,214741.4,2023-08-21T15:23:47Z,214757.389,NULL,Zufall,kikuti,d,NA,NA,NA,NA,sdf,0,0,NA,NA,NA,NA,NA,NA,NA,NA,NA,NA,NA,NA,NA,NA,NA,NA,NA,NA,NA
13eb4,deep,flow.Sequence,3_0_0_0_4_0,NA,NA,completion,8405.752,206321,206318.637,206334.962,214740.714,214741.7,2023-08-21T15:23:47Z,214757.389,NULL,Zufall,kikuti,d,NA,NA,NA,NA,sdf,NA,0,NA,NA,NA,NA,NA,NA,NA,NA,NA,NA,NA,NA,NA,NA,NA,NA,NA,NA,NA
13eb4,shallow,flow.Sequence,3_0_0_0_4_1,NA,NA,skipped,NA,214741.7,NA,NA,214740.714,214741.8,2023-08-21T15:23:47Z,214757.389,NULL,Zufall,kikuti,d,NA,NA,NA,NA,sdf,NA,0,NA,NA,NA,NA,NA,NA,NA,NA,NA,NA,NA,NA,NA,NA,NA,NA,NA,NA,NA
13eb4,task,flow.Sequence,3_0_0_0_4,NA,NA,completion,8405.752,206320.9,206318.637,206334.962,214740.714,214742,2023-08-21T15:23:47Z,214757.389,NULL,Zufall,kikuti,d,NA,NA,NA,NA,sdf,NA,0,NA,NA,NA,NA,NA,NA,NA,NA,NA,NA,NA,NA,NA,NA,NA,NA,NA,NA,NA
13eb4,deep,flow.Sequence,3_0_0_0_5_0,NA,NA,skipped,NA,214742.1,NA,NA,214740.714,214742.3,2023-08-21T15:23:47Z,214757.389,NULL,Sänger,mwimbaji,s,msichana,shughuli,mshirika,NA,sdf,NA,0,NA,NA,NA,NA,NA,NA,NA,NA,NA,NA,NA,NA,NA,NA,NA,NA,NA,NA,NA
13eb4,Shallow Question,html.Page,3_0_0_0_5_1_0,NA,NA,form submission,4296.0109999999,214742.4,214740.714,214757.389,219053.4,219053.8,2023-08-21T15:23:52Z,219058.729,NULL,Sänger,mwimbaji,s,msichana,shughuli,mshirika,shughuli,NA,NA,0,NA,NA,NA,NA,NA,NA,NA,NA,NA,NA,NA,NA,NA,NA,NA,NA,NA,NA,NA
13eb4,"""Richtig""-Screen",canvas.Screen,3_0_0_0_5_1_1,NA,NA,skipped,NA,219055.1,NA,NA,219053.4,219055.5,2023-08-21T15:23:52Z,219058.729,NULL,Sänger,mwimbaji,s,msichana,shughuli,mshirika,NA,sdf,NA,0,NA,NA,NA,NA,NA,NA,NA,NA,NA,NA,NA,NA,NA,NA,NA,NA,NA,NA,NA
13eb4,"""Falsch""-Screen",canvas.Screen,3_0_0_0_5_1_2,NA,NA,timeout,4993.32,219056.8,219047.136,219058.729,224035.474,224036.2,2023-08-21T15:23:57Z,224052.049,NULL,Sänger,mwimbaji,s,msichana,shughuli,mshirika,NA,sdf,0,0,NA,NA,NA,NA,NA,NA,NA,NA,NA,NA,NA,NA,NA,NA,NA,NA,NA,NA,NA
13eb4,shallow,flow.Sequence,3_0_0_0_5_1,NA,NA,completion,9278.085,214742.3,214740.714,214757.389,224035.474,224036.4,2023-08-21T15:23:57Z,224052.049,NULL,Sänger,mwimbaji,s,msichana,shughuli,mshirika,NA,sdf,NA,0,NA,NA,NA,NA,NA,NA,NA,NA,NA,NA,NA,NA,NA,NA,NA,NA,NA,NA,NA
13eb4,task,flow.Sequence,3_0_0_0_5,NA,NA,completion,9278.085,214742.1,214740.714,214757.389,224035.474,224036.6,2023-08-21T15:23:57Z,224052.049,NULL,Sänger,mwimbaji,s,msichana,shughuli,mshirika,NA,sdf,NA,0,NA,NA,NA,NA,NA,NA,NA,NA,NA,NA,NA,NA,NA,NA,NA,NA,NA,NA,NA
13eb4,deep,flow.Sequence,3_0_0_0_6_0,NA,NA,skipped,NA,224036.8,NA,NA,224035.474,224036.9,2023-08-21T15:23:57Z,224052.049,NULL,Wettbewerb,ushindani,s,mapendezi,kichocheo,ubaguzi,NA,sdf,NA,0,NA,NA,NA,NA,NA,NA,NA,NA,NA,NA,NA,NA,NA,NA,NA,NA,NA,NA,NA
13eb4,Shallow Question,html.Page,3_0_0_0_6_1_0,NA,NA,form submission,7334.751,224037,224035.474,224052.049,231386.8,231387.5,2023-08-21T15:24:04Z,231391.363,NULL,Wettbewerb,ushindani,s,mapendezi,kichocheo,ubaguzi,mapendezi,NA,NA,0,NA,NA,NA,NA,NA,NA,NA,NA,NA,NA,NA,NA,NA,NA,NA,NA,NA,NA,NA
13eb4,"""Richtig""-Screen",canvas.Screen,3_0_0_0_6_1_1,NA,NA,skipped,NA,231392.8,NA,NA,231386.8,231393.1,2023-08-21T15:24:04Z,231391.363,NULL,Wettbewerb,ushindani,s,mapendezi,kichocheo,ubaguzi,NA,sdf,NA,0,NA,NA,NA,NA,NA,NA,NA,NA,NA,NA,NA,NA,NA,NA,NA,NA,NA,NA,NA
13eb4,"""Falsch""-Screen",canvas.Screen,3_0_0_0_6_1_2,NA,NA,timeout,4991.881,231394.3,231378.933,231391.363,236366.703,236367.3,2023-08-21T15:24:09Z,236383.244,NULL,Wettbewerb,ushindani,s,mapendezi,kichocheo,ubaguzi,NA,sdf,0,0,NA,NA,NA,NA,NA,NA,NA,NA,NA,NA,NA,NA,NA,NA,NA,NA,NA,NA,NA
13eb4,shallow,flow.Sequence,3_0_0_0_6_1,NA,NA,completion,12314.654,224037,224035.474,224052.049,236366.703,236367.6,2023-08-21T15:24:09Z,236383.244,NULL,Wettbewerb,ushindani,s,mapendezi,kichocheo,ubaguzi,NA,sdf,NA,0,NA,NA,NA,NA,NA,NA,NA,NA,NA,NA,NA,NA,NA,NA,NA,NA,NA,NA,NA
13eb4,task,flow.Sequence,3_0_0_0_6,NA,NA,completion,12314.654,224036.8,224035.474,224052.049,236366.703,236367.7,2023-08-21T15:24:09Z,236383.244,NULL,Wettbewerb,ushindani,s,mapendezi,kichocheo,ubaguzi,NA,sdf,NA,0,NA,NA,NA,NA,NA,NA,NA,NA,NA,NA,NA,NA,NA,NA,NA,NA,NA,NA,NA
13eb4,Deep Question,html.Page,3_0_0_0_7_0_0,NA,NA,form submission,3796.6559999999,236367.9,236366.703,236383.244,240179.9,240180.2,2023-08-21T15:24:13Z,240195.574,NULL,Schönheit,kirembo,d,NA,NA,NA,d,NA,NA,0,NA,NA,NA,NA,NA,NA,NA,NA,NA,NA,NA,NA,NA,NA,NA,NA,NA,NA,NA
13eb4,"""Richtig""-Screen",canvas.Screen,3_0_0_0_7_0_1,NA,NA,skipped,NA,240180.6,NA,NA,240179.9,240180.7,2023-08-21T15:24:13Z,240195.574,NULL,Schönheit,kirembo,d,NA,NA,NA,NA,sdf,NA,0,NA,NA,NA,NA,NA,NA,NA,NA,NA,NA,NA,NA,NA,NA,NA,NA,NA,NA,NA
13eb4,"""Falsch""-Screen",canvas.Screen,3_0_0_0_7_0_2,NA,NA,timeout,4998.911,240181.1,240172.559,240195.574,245177.929,245178.7,2023-08-21T15:24:18Z,245194.485,NULL,Schönheit,kirembo,d,NA,NA,NA,NA,sdf,0,0,NA,NA,NA,NA,NA,NA,NA,NA,NA,NA,NA,NA,NA,NA,NA,NA,NA,NA,NA
13eb4,deep,flow.Sequence,3_0_0_0_7_0,NA,NA,completion,8794.685,236367.8,236366.703,236383.244,245177.929,245179,2023-08-21T15:24:18Z,245194.485,NULL,Schönheit,kirembo,d,NA,NA,NA,NA,sdf,NA,0,NA,NA,NA,NA,NA,NA,NA,NA,NA,NA,NA,NA,NA,NA,NA,NA,NA,NA,NA
13eb4,shallow,flow.Sequence,3_0_0_0_7_1,NA,NA,skipped,NA,245179,NA,NA,245177.929,245179.1,2023-08-21T15:24:18Z,245194.485,NULL,Schönheit,kirembo,d,NA,NA,NA,NA,sdf,NA,0,NA,NA,NA,NA,NA,NA,NA,NA,NA,NA,NA,NA,NA,NA,NA,NA,NA,NA,NA
13eb4,task,flow.Sequence,3_0_0_0_7,NA,NA,completion,8794.685,236367.8,236366.703,236383.244,245177.929,245179.3,2023-08-21T15:24:18Z,245194.485,NULL,Schönheit,kirembo,d,NA,NA,NA,NA,sdf,NA,0,NA,NA,NA,NA,NA,NA,NA,NA,NA,NA,NA,NA,NA,NA,NA,NA,NA,NA,NA
13eb4,block,flow.Loop,3_0_0_0,NA,NA,completion,90018.833,155159,155071.653,155159.096,245177.929,245179.4,2023-08-21T15:24:18Z,245194.485,NULL,NA,NA,NA,NA,NA,NA,NA,sdf,NA,0,NA,NA,NA,NA,NA,NA,NA,NA,NA,NA,NA,NA,NA,NA,NA,NA,NA,NA,NA
13eb4,weiter,canvas.Screen,3_0_0_1,sdf,keypress(Space),response,1093.1149999999,245179.4,245177.929,245194.485,246287.6,246290.1,2023-08-21T15:24:19Z,246345.285,NULL,NA,NA,NA,NA,NA,NA,NA,sdf,NA,0,NA,NA,NA,NA,NA,NA,NA,NA,NA,NA,NA,NA,NA,NA,NA,NA,NA,NA,NA
13eb4,check continue,flow.Sequence,3_0_0,NA,NA,completion,91128.504,155158.9,155071.653,155159.096,246287.6,246290.3,2023-08-21T15:24:19Z,246345.285,NULL,NA,NA,NA,NA,NA,NA,NA,sdf,NA,0,NA,NA,NA,NA,NA,NA,NA,NA,NA,NA,NA,NA,NA,NA,NA,NA,NA,NA,NA
13eb4,deep,flow.Sequence,3_0_1_0_0_0,NA,NA,skipped,NA,246335.3,NA,NA,246287.6,246335.4,2023-08-21T15:24:19Z,246345.285,NULL,Auftrag,uagizaji,s,ghanima,kuzingatia,msukani,NA,sdfdsf,NA,1,NA,NA,NA,NA,NA,NA,NA,NA,NA,NA,NA,NA,NA,NA,NA,NA,NA,NA,NA
13eb4,Shallow Question,html.Page,3_0_1_0_0_1_0,NA,NA,form submission,8162.515,246335.4,246328.02,246345.285,254507.8,254508.1,2023-08-21T15:24:27Z,254513.924,NULL,Auftrag,uagizaji,s,ghanima,kuzingatia,msukani,uagizaji,NA,NA,1,NA,NA,NA,NA,NA,NA,NA,NA,NA,NA,NA,NA,NA,NA,NA,NA,NA,NA,NA
13eb4,"""Richtig""-Screen",canvas.Screen,3_0_1_0_0_1_1,NA,NA,timeout,4994.681,254511.9,254502.928,254513.924,259491.931,259492.7,2023-08-21T15:24:32Z,259508.605,NULL,Auftrag,uagizaji,s,ghanima,kuzingatia,msukani,NA,sdfdsf,1,1,NA,NA,NA,NA,NA,NA,NA,NA,NA,NA,NA,NA,NA,NA,NA,NA,NA,NA,NA
13eb4,"""Falsch""-Screen",canvas.Screen,3_0_1_0_0_1_2,NA,NA,skipped,NA,259494.8,NA,NA,259491.931,259495,2023-08-21T15:24:32Z,259508.605,NULL,Auftrag,uagizaji,s,ghanima,kuzingatia,msukani,NA,sdfdsf,NA,1,NA,NA,NA,NA,NA,NA,NA,NA,NA,NA,NA,NA,NA,NA,NA,NA,NA,NA,NA
13eb4,shallow,flow.Sequence,3_0_1_0_0_1,NA,NA,completion,13146.646,246335.4,246328.02,246345.285,259491.931,259495.1,2023-08-21T15:24:32Z,259508.605,NULL,Auftrag,uagizaji,s,ghanima,kuzingatia,msukani,NA,sdfdsf,NA,1,NA,NA,NA,NA,NA,NA,NA,NA,NA,NA,NA,NA,NA,NA,NA,NA,NA,NA,NA
13eb4,task,flow.Sequence,3_0_1_0_0,NA,NA,completion,13146.646,246335.3,246328.02,246345.285,259491.931,259495.3,2023-08-21T15:24:32Z,259508.605,NULL,Auftrag,uagizaji,s,ghanima,kuzingatia,msukani,NA,sdfdsf,NA,1,NA,NA,NA,NA,NA,NA,NA,NA,NA,NA,NA,NA,NA,NA,NA,NA,NA,NA,NA
13eb4,Deep Question,html.Page,3_0_1_0_1_0_0,NA,NA,form submission,4519.5949999999,259495.5,259491.931,259508.605,264028.2,264028.5,2023-08-21T15:24:37Z,264036.885,NULL,Abrechnung,uhasibu,d,NA,NA,NA,e,NA,NA,1,NA,NA,NA,NA,NA,NA,NA,NA,NA,NA,NA,NA,NA,NA,NA,NA,NA,NA,NA
13eb4,"""Richtig""-Screen",canvas.Screen,3_0_1_0_1_0_1,NA,NA,skipped,NA,264028.9,NA,NA,264028.2,264028.9,2023-08-21T15:24:37Z,264036.885,NULL,Abrechnung,uhasibu,d,NA,NA,NA,NA,sdfdsf,NA,1,NA,NA,NA,NA,NA,NA,NA,NA,NA,NA,NA,NA,NA,NA,NA,NA,NA,NA,NA
13eb4,"""Falsch""-Screen",canvas.Screen,3_0_1_0_1_0_2,NA,NA,timeout,5001.216,264029.3,264024.7,264036.885,269021.422,269022.4,2023-08-21T15:24:42Z,269038.101,NULL,Abrechnung,uhasibu,d,NA,NA,NA,NA,sdfdsf,0,1,NA,NA,NA,NA,NA,NA,NA,NA,NA,NA,NA,NA,NA,NA,NA,NA,NA,NA,NA
13eb4,deep,flow.Sequence,3_0_1_0_1_0,NA,NA,completion,9512.817,259495.4,259491.931,259508.605,269021.422,269022.6,2023-08-21T15:24:42Z,269038.101,NULL,Abrechnung,uhasibu,d,NA,NA,NA,NA,sdfdsf,NA,1,NA,NA,NA,NA,NA,NA,NA,NA,NA,NA,NA,NA,NA,NA,NA,NA,NA,NA,NA
13eb4,shallow,flow.Sequence,3_0_1_0_1_1,NA,NA,skipped,NA,269022.7,NA,NA,269021.422,269022.8,2023-08-21T15:24:42Z,269038.101,NULL,Abrechnung,uhasibu,d,NA,NA,NA,NA,sdfdsf,NA,1,NA,NA,NA,NA,NA,NA,NA,NA,NA,NA,NA,NA,NA,NA,NA,NA,NA,NA,NA
13eb4,task,flow.Sequence,3_0_1_0_1,NA,NA,completion,9512.817,259495.4,259491.931,259508.605,269021.422,269023,2023-08-21T15:24:42Z,269038.101,NULL,Abrechnung,uhasibu,d,NA,NA,NA,NA,sdfdsf,NA,1,NA,NA,NA,NA,NA,NA,NA,NA,NA,NA,NA,NA,NA,NA,NA,NA,NA,NA,NA
13eb4,deep,flow.Sequence,3_0_1_0_2_0,NA,NA,skipped,NA,269023.1,NA,NA,269021.422,269023.2,2023-08-21T15:24:42Z,269038.101,NULL,Wettbewerb,ushindani,s,mapendezi,kichocheo,ubaguzi,NA,sdfdsf,NA,1,NA,NA,NA,NA,NA,NA,NA,NA,NA,NA,NA,NA,NA,NA,NA,NA,NA,NA,NA
13eb4,Shallow Question,html.Page,3_0_1_0_2_1_0,NA,NA,form submission,12923.499,269023.4,269021.422,269038.101,281961.6,281961.9,2023-08-21T15:24:55Z,281967.838,NULL,Wettbewerb,ushindani,s,mapendezi,kichocheo,ubaguzi,mapendezi,NA,NA,1,NA,NA,NA,NA,NA,NA,NA,NA,NA,NA,NA,NA,NA,NA,NA,NA,NA,NA,NA
13eb4,"""Richtig""-Screen",canvas.Screen,3_0_1_0_2_1_1,NA,NA,skipped,NA,281965.6,NA,NA,281961.6,281965.7,2023-08-21T15:24:55Z,281967.838,NULL,Wettbewerb,ushindani,s,mapendezi,kichocheo,ubaguzi,NA,sdfdsf,NA,1,NA,NA,NA,NA,NA,NA,NA,NA,NA,NA,NA,NA,NA,NA,NA,NA,NA,NA,NA
13eb4,"""Falsch""-Screen",canvas.Screen,3_0_1_0_2_1_2,NA,NA,timeout,4997.348,281966.1,281953.946,281967.838,286948.505,286949.3,2023-08-21T15:25:00Z,286965.186,NULL,Wettbewerb,ushindani,s,mapendezi,kichocheo,ubaguzi,NA,sdfdsf,0,1,NA,NA,NA,NA,NA,NA,NA,NA,NA,NA,NA,NA,NA,NA,NA,NA,NA,NA,NA
13eb4,shallow,flow.Sequence,3_0_1_0_2_1,NA,NA,completion,17910.404,269023.3,269021.422,269038.101,286948.505,286949.5,2023-08-21T15:25:00Z,286965.186,NULL,Wettbewerb,ushindani,s,mapendezi,kichocheo,ubaguzi,NA,sdfdsf,NA,1,NA,NA,NA,NA,NA,NA,NA,NA,NA,NA,NA,NA,NA,NA,NA,NA,NA,NA,NA
13eb4,task,flow.Sequence,3_0_1_0_2,NA,NA,completion,17910.404,269023,269021.422,269038.101,286948.505,286949.7,2023-08-21T15:25:00Z,286965.186,NULL,Wettbewerb,ushindani,s,mapendezi,kichocheo,ubaguzi,NA,sdfdsf,NA,1,NA,NA,NA,NA,NA,NA,NA,NA,NA,NA,NA,NA,NA,NA,NA,NA,NA,NA,NA
13eb4,Deep Question,html.Page,3_0_1_0_3_0_0,NA,NA,form submission,4822.4139999999,286949.9,286948.505,286965.186,291787.6,291787.8,2023-08-21T15:25:05Z,291796.563,NULL,Kanzler,diwani,d,NA,NA,NA,k,NA,NA,1,NA,NA,NA,NA,NA,NA,NA,NA,NA,NA,NA,NA,NA,NA,NA,NA,NA,NA,NA
13eb4,"""Richtig""-Screen",canvas.Screen,3_0_1_0_3_0_1,NA,NA,skipped,NA,291788.3,NA,NA,291787.6,291788.4,2023-08-21T15:25:05Z,291796.563,NULL,Kanzler,diwani,d,NA,NA,NA,NA,sdfdsf,NA,1,NA,NA,NA,NA,NA,NA,NA,NA,NA,NA,NA,NA,NA,NA,NA,NA,NA,NA,NA
13eb4,"""Falsch""-Screen",canvas.Screen,3_0_1_0_3_0_2,NA,NA,timeout,5000.247,291788.7,291784.604,291796.563,296780.13,296781.6,2023-08-21T15:25:10Z,296796.81,NULL,Kanzler,diwani,d,NA,NA,NA,NA,sdfdsf,0,1,NA,NA,NA,NA,NA,NA,NA,NA,NA,NA,NA,NA,NA,NA,NA,NA,NA,NA,NA
13eb4,deep,flow.Sequence,3_0_1_0_3_0,NA,NA,completion,9814.944,286949.8,286948.505,286965.186,296780.13,296781.8,2023-08-21T15:25:10Z,296796.81,NULL,Kanzler,diwani,d,NA,NA,NA,NA,sdfdsf,NA,1,NA,NA,NA,NA,NA,NA,NA,NA,NA,NA,NA,NA,NA,NA,NA,NA,NA,NA,NA
13eb4,shallow,flow.Sequence,3_0_1_0_3_1,NA,NA,skipped,NA,296782,NA,NA,296780.13,296782.1,2023-08-21T15:25:10Z,296796.81,NULL,Kanzler,diwani,d,NA,NA,NA,NA,sdfdsf,NA,1,NA,NA,NA,NA,NA,NA,NA,NA,NA,NA,NA,NA,NA,NA,NA,NA,NA,NA,NA
13eb4,task,flow.Sequence,3_0_1_0_3,NA,NA,completion,9814.944,286949.8,286948.505,286965.186,296780.13,296782.1,2023-08-21T15:25:10Z,296796.81,NULL,Kanzler,diwani,d,NA,NA,NA,NA,sdfdsf,NA,1,NA,NA,NA,NA,NA,NA,NA,NA,NA,NA,NA,NA,NA,NA,NA,NA,NA,NA,NA
13eb4,Deep Question,html.Page,3_0_1_0_4_0_0,NA,NA,form submission,8585.99,296782.3,296780.13,296796.81,305382.8,305383,2023-08-21T15:25:18Z,305391.277,NULL,Schönheit,kirembo,d,NA,NA,NA,diwani,NA,NA,1,NA,NA,NA,NA,NA,NA,NA,NA,NA,NA,NA,NA,NA,NA,NA,NA,NA,NA,NA
13eb4,"""Richtig""-Screen",canvas.Screen,3_0_1_0_4_0_1,NA,NA,skipped,NA,305384.5,NA,NA,305382.8,305384.6,2023-08-21T15:25:18Z,305391.277,NULL,Schönheit,kirembo,d,NA,NA,NA,NA,sdfdsf,NA,1,NA,NA,NA,NA,NA,NA,NA,NA,NA,NA,NA,NA,NA,NA,NA,NA,NA,NA,NA
13eb4,"""Falsch""-Screen",canvas.Screen,3_0_1_0_4_0_2,NA,NA,timeout,5000.171,305384.9,305377.801,305391.277,310375.049,310375.7,2023-08-21T15:25:23Z,310391.448,NULL,Schönheit,kirembo,d,NA,NA,NA,NA,sdfdsf,0,1,NA,NA,NA,NA,NA,NA,NA,NA,NA,NA,NA,NA,NA,NA,NA,NA,NA,NA,NA
13eb4,deep,flow.Sequence,3_0_1_0_4_0,NA,NA,completion,13578.239,296782.3,296780.13,296796.81,310375.049,310376,2023-08-21T15:25:23Z,310391.448,NULL,Schönheit,kirembo,d,NA,NA,NA,NA,sdfdsf,NA,1,NA,NA,NA,NA,NA,NA,NA,NA,NA,NA,NA,NA,NA,NA,NA,NA,NA,NA,NA
13eb4,shallow,flow.Sequence,3_0_1_0_4_1,NA,NA,skipped,NA,310376.2,NA,NA,310375.049,310376.3,2023-08-21T15:25:23Z,310391.448,NULL,Schönheit,kirembo,d,NA,NA,NA,NA,sdfdsf,NA,1,NA,NA,NA,NA,NA,NA,NA,NA,NA,NA,NA,NA,NA,NA,NA,NA,NA,NA,NA
13eb4,task,flow.Sequence,3_0_1_0_4,NA,NA,completion,13578.239,296782.3,296780.13,296796.81,310375.049,310376.5,2023-08-21T15:25:23Z,310391.448,NULL,Schönheit,kirembo,d,NA,NA,NA,NA,sdfdsf,NA,1,NA,NA,NA,NA,NA,NA,NA,NA,NA,NA,NA,NA,NA,NA,NA,NA,NA,NA,NA
13eb4,deep,flow.Sequence,3_0_1_0_5_0,NA,NA,skipped,NA,310376.6,NA,NA,310375.049,310376.6,2023-08-21T15:25:23Z,310391.448,NULL,Sänger,mwimbaji,s,msichana,shughuli,mshirika,NA,sdfdsf,NA,1,NA,NA,NA,NA,NA,NA,NA,NA,NA,NA,NA,NA,NA,NA,NA,NA,NA,NA,NA
13eb4,Shallow Question,html.Page,3_0_1_0_5_1_0,NA,NA,form submission,10522.352,310376.7,310375.049,310391.448,320913.8,320914.1,2023-08-21T15:25:34Z,320920.716,NULL,Sänger,mwimbaji,s,msichana,shughuli,mshirika,mwimbaji,NA,NA,1,NA,NA,NA,NA,NA,NA,NA,NA,NA,NA,NA,NA,NA,NA,NA,NA,NA,NA,NA
13eb4,"""Richtig""-Screen",canvas.Screen,3_0_1_0_5_1_1,NA,NA,timeout,4994.653,320917.3,320905.997,320920.716,325898.666,325899.6,2023-08-21T15:25:39Z,325915.369,NULL,Sänger,mwimbaji,s,msichana,shughuli,mshirika,NA,sdfdsf,1,1,NA,NA,NA,NA,NA,NA,NA,NA,NA,NA,NA,NA,NA,NA,NA,NA,NA,NA,NA
13eb4,"""Falsch""-Screen",canvas.Screen,3_0_1_0_5_1_2,NA,NA,skipped,NA,325901,NA,NA,325898.666,325901.3,2023-08-21T15:25:39Z,325915.369,NULL,Sänger,mwimbaji,s,msichana,shughuli,mshirika,NA,sdfdsf,NA,1,NA,NA,NA,NA,NA,NA,NA,NA,NA,NA,NA,NA,NA,NA,NA,NA,NA,NA,NA
13eb4,shallow,flow.Sequence,3_0_1_0_5_1,NA,NA,completion,15507.218,310376.7,310375.049,310391.448,325898.666,325901.5,2023-08-21T15:25:39Z,325915.369,NULL,Sänger,mwimbaji,s,msichana,shughuli,mshirika,NA,sdfdsf,NA,1,NA,NA,NA,NA,NA,NA,NA,NA,NA,NA,NA,NA,NA,NA,NA,NA,NA,NA,NA
13eb4,task,flow.Sequence,3_0_1_0_5,NA,NA,completion,15507.218,310376.5,310375.049,310391.448,325898.666,325901.6,2023-08-21T15:25:39Z,325915.369,NULL,Sänger,mwimbaji,s,msichana,shughuli,mshirika,NA,sdfdsf,NA,1,NA,NA,NA,NA,NA,NA,NA,NA,NA,NA,NA,NA,NA,NA,NA,NA,NA,NA,NA
13eb4,deep,flow.Sequence,3_0_1_0_6_0,NA,NA,skipped,NA,325901.9,NA,NA,325898.666,325902,2023-08-21T15:25:39Z,325915.369,NULL,Angreifer,mshambulizi,s,kitengo,tasinia,usafirishaji,NA,sdfdsf,NA,1,NA,NA,NA,NA,NA,NA,NA,NA,NA,NA,NA,NA,NA,NA,NA,NA,NA,NA,NA
13eb4,Shallow Question,html.Page,3_0_1_0_6_1_0,NA,NA,form submission,15482.931,325902.1,325898.666,325915.369,341398.3,341398.6,2023-08-21T15:25:54Z,341404.021,NULL,Angreifer,mshambulizi,s,kitengo,tasinia,usafirishaji,kitengo,NA,NA,1,NA,NA,NA,NA,NA,NA,NA,NA,NA,NA,NA,NA,NA,NA,NA,NA,NA,NA,NA
13eb4,"""Richtig""-Screen",canvas.Screen,3_0_1_0_6_1_1,NA,NA,skipped,NA,341402.4,NA,NA,341398.3,341402.8,2023-08-21T15:25:54Z,341404.021,NULL,Angreifer,mshambulizi,s,kitengo,tasinia,usafirishaji,NA,sdfdsf,NA,1,NA,NA,NA,NA,NA,NA,NA,NA,NA,NA,NA,NA,NA,NA,NA,NA,NA,NA,NA
13eb4,"""Falsch""-Screen",canvas.Screen,3_0_1_0_6_1_2,NA,NA,timeout,5002.079,341403.9,341390.61,341404.021,346389.42,346390.2,2023-08-21T15:25:59Z,346406.1,NULL,Angreifer,mshambulizi,s,kitengo,tasinia,usafirishaji,NA,sdfdsf,0,1,NA,NA,NA,NA,NA,NA,NA,NA,NA,NA,NA,NA,NA,NA,NA,NA,NA,NA,NA
13eb4,shallow,flow.Sequence,3_0_1_0_6_1,NA,NA,completion,20474.051,325902,325898.666,325915.369,346389.42,346390.4,2023-08-21T15:25:59Z,346406.1,NULL,Angreifer,mshambulizi,s,kitengo,tasinia,usafirishaji,NA,sdfdsf,NA,1,NA,NA,NA,NA,NA,NA,NA,NA,NA,NA,NA,NA,NA,NA,NA,NA,NA,NA,NA
13eb4,task,flow.Sequence,3_0_1_0_6,NA,NA,completion,20474.051,325901.8,325898.666,325915.369,346389.42,346390.6,2023-08-21T15:25:59Z,346406.1,NULL,Angreifer,mshambulizi,s,kitengo,tasinia,usafirishaji,NA,sdfdsf,NA,1,NA,NA,NA,NA,NA,NA,NA,NA,NA,NA,NA,NA,NA,NA,NA,NA,NA,NA,NA
13eb4,Deep Question,html.Page,3_0_1_0_7_0_0,NA,NA,form submission,2945.9999999999,346390.7,346389.42,346406.1,349352.1,349352.3,2023-08-21T15:26:02Z,349360.965,NULL,Zufall,kikuti,d,NA,NA,NA,l,NA,NA,1,NA,NA,NA,NA,NA,NA,NA,NA,NA,NA,NA,NA,NA,NA,NA,NA,NA,NA,NA
13eb4,"""Richtig""-Screen",canvas.Screen,3_0_1_0_7_0_1,NA,NA,skipped,NA,349353,NA,NA,349352.1,349353.1,2023-08-21T15:26:02Z,349360.965,NULL,Zufall,kikuti,d,NA,NA,NA,NA,sdfdsf,NA,1,NA,NA,NA,NA,NA,NA,NA,NA,NA,NA,NA,NA,NA,NA,NA,NA,NA,NA,NA
13eb4,"""Falsch""-Screen",canvas.Screen,3_0_1_0_7_0_2,NA,NA,timeout,4999.048,349353.5,349347.697,349360.965,354343.38,354345.3,2023-08-21T15:26:07Z,354360.013,NULL,Zufall,kikuti,d,NA,NA,NA,NA,sdfdsf,0,1,NA,NA,NA,NA,NA,NA,NA,NA,NA,NA,NA,NA,NA,NA,NA,NA,NA,NA,NA
13eb4,deep,flow.Sequence,3_0_1_0_7_0,NA,NA,completion,7937.28,346390.7,346389.42,346406.1,354343.38,354345.6,2023-08-21T15:26:07Z,354360.013,NULL,Zufall,kikuti,d,NA,NA,NA,NA,sdfdsf,NA,1,NA,NA,NA,NA,NA,NA,NA,NA,NA,NA,NA,NA,NA,NA,NA,NA,NA,NA,NA
13eb4,shallow,flow.Sequence,3_0_1_0_7_1,NA,NA,skipped,NA,354345.7,NA,NA,354343.38,354345.8,2023-08-21T15:26:07Z,354360.013,NULL,Zufall,kikuti,d,NA,NA,NA,NA,sdfdsf,NA,1,NA,NA,NA,NA,NA,NA,NA,NA,NA,NA,NA,NA,NA,NA,NA,NA,NA,NA,NA
13eb4,task,flow.Sequence,3_0_1_0_7,NA,NA,completion,7937.28,346390.7,346389.42,346406.1,354343.38,354345.9,2023-08-21T15:26:07Z,354360.013,NULL,Zufall,kikuti,d,NA,NA,NA,NA,sdfdsf,NA,1,NA,NA,NA,NA,NA,NA,NA,NA,NA,NA,NA,NA,NA,NA,NA,NA,NA,NA,NA
13eb4,block,flow.Loop,3_0_1_0,NA,NA,completion,107998.095,246335.3,246328.02,246345.285,354343.38,354346,2023-08-21T15:26:07Z,354360.013,NULL,NA,NA,NA,NA,NA,NA,NA,sdfdsf,NA,1,NA,NA,NA,NA,NA,NA,NA,NA,NA,NA,NA,NA,NA,NA,NA,NA,NA,NA,NA
13eb4,weiter,canvas.Screen,3_0_1_1,sdf,keypress(Space),response,1752.5869999999,354346.1,354343.38,354360.013,356112.6,356113.9,2023-08-21T15:26:09Z,356162.621,NULL,NA,NA,NA,NA,NA,NA,NA,sdfdsf,NA,1,NA,NA,NA,NA,NA,NA,NA,NA,NA,NA,NA,NA,NA,NA,NA,NA,NA,NA,NA
13eb4,check continue,flow.Sequence,3_0_1,NA,NA,completion,109767.315,246335.2,246328.02,246345.285,356112.6,356114.1,2023-08-21T15:26:09Z,356162.621,NULL,NA,NA,NA,NA,NA,NA,NA,sdfdsf,NA,1,NA,NA,NA,NA,NA,NA,NA,NA,NA,NA,NA,NA,NA,NA,NA,NA,NA,NA,NA
13eb4,Deep Question,html.Page,3_0_2_0_0_0_0,NA,NA,form submission,7662.379,356153.2,356144.695,356162.621,363825,363825.2,2023-08-21T15:26:17Z,363827.832,NULL,Abrechnung,uhasibu,d,NA,NA,NA,k,NA,NA,2,NA,NA,NA,NA,NA,NA,NA,NA,NA,NA,NA,NA,NA,NA,NA,NA,NA,NA,NA
13eb4,"""Richtig""-Screen",canvas.Screen,3_0_2_0_0_0_1,NA,NA,skipped,NA,363826.7,NA,NA,363825,363826.9,2023-08-21T15:26:17Z,363827.832,NULL,Abrechnung,uhasibu,d,NA,NA,NA,NA,sdf,NA,2,NA,NA,NA,NA,NA,NA,NA,NA,NA,NA,NA,NA,NA,NA,NA,NA,NA,NA,NA
13eb4,"""Falsch""-Screen",canvas.Screen,3_0_2_0_0_0_2,NA,NA,timeout,5000.448,363827.1,363811.236,363827.832,368811.749,368813.5,2023-08-21T15:26:22Z,368828.28,NULL,Abrechnung,uhasibu,d,NA,NA,NA,NA,sdf,0,2,NA,NA,NA,NA,NA,NA,NA,NA,NA,NA,NA,NA,NA,NA,NA,NA,NA,NA,NA
13eb4,deep,flow.Sequence,3_0_2_0_0_0,NA,NA,completion,12649.128,356153.2,356144.695,356162.621,368811.749,368813.7,2023-08-21T15:26:22Z,368828.28,NULL,Abrechnung,uhasibu,d,NA,NA,NA,NA,sdf,NA,2,NA,NA,NA,NA,NA,NA,NA,NA,NA,NA,NA,NA,NA,NA,NA,NA,NA,NA,NA
13eb4,shallow,flow.Sequence,3_0_2_0_0_1,NA,NA,skipped,NA,368813.7,NA,NA,368811.749,368813.9,2023-08-21T15:26:22Z,368828.28,NULL,Abrechnung,uhasibu,d,NA,NA,NA,NA,sdf,NA,2,NA,NA,NA,NA,NA,NA,NA,NA,NA,NA,NA,NA,NA,NA,NA,NA,NA,NA,NA
13eb4,task,flow.Sequence,3_0_2_0_0,NA,NA,completion,12649.128,356153.2,356144.695,356162.621,368811.749,368813.9,2023-08-21T15:26:22Z,368828.28,NULL,Abrechnung,uhasibu,d,NA,NA,NA,NA,sdf,NA,2,NA,NA,NA,NA,NA,NA,NA,NA,NA,NA,NA,NA,NA,NA,NA,NA,NA,NA,NA
13eb4,deep,flow.Sequence,3_0_2_0_1_0,NA,NA,skipped,NA,368814.1,NA,NA,368811.749,368814.2,2023-08-21T15:26:22Z,368828.28,NULL,Angreifer,mshambulizi,s,kitengo,tasinia,usafirishaji,NA,sdf,NA,2,NA,NA,NA,NA,NA,NA,NA,NA,NA,NA,NA,NA,NA,NA,NA,NA,NA,NA,NA
13eb4,Shallow Question,html.Page,3_0_2_0_1_1_0,NA,NA,form submission,5719.02,368814.2,368811.749,368828.28,374547.3,374547.6,2023-08-21T15:26:27Z,374554.366,NULL,Angreifer,mshambulizi,s,kitengo,tasinia,usafirishaji,mshambulizi,NA,NA,2,NA,NA,NA,NA,NA,NA,NA,NA,NA,NA,NA,NA,NA,NA,NA,NA,NA,NA,NA
13eb4,"""Richtig""-Screen",canvas.Screen,3_0_2_0_1_1_1,NA,NA,timeout,4997.24,374551.2,374533.988,374554.366,379534.979,379535.9,2023-08-21T15:26:32Z,379551.606,NULL,Angreifer,mshambulizi,s,kitengo,tasinia,usafirishaji,NA,sdf,1,2,NA,NA,NA,NA,NA,NA,NA,NA,NA,NA,NA,NA,NA,NA,NA,NA,NA,NA,NA
13eb4,"""Falsch""-Screen",canvas.Screen,3_0_2_0_1_1_2,NA,NA,skipped,NA,379537.2,NA,NA,379534.979,379537.5,2023-08-21T15:26:32Z,379551.606,NULL,Angreifer,mshambulizi,s,kitengo,tasinia,usafirishaji,NA,sdf,NA,2,NA,NA,NA,NA,NA,NA,NA,NA,NA,NA,NA,NA,NA,NA,NA,NA,NA,NA,NA
13eb4,shallow,flow.Sequence,3_0_2_0_1_1,NA,NA,completion,10706.699,368814.2,368811.749,368828.28,379534.979,379537.7,2023-08-21T15:26:32Z,379551.606,NULL,Angreifer,mshambulizi,s,kitengo,tasinia,usafirishaji,NA,sdf,NA,2,NA,NA,NA,NA,NA,NA,NA,NA,NA,NA,NA,NA,NA,NA,NA,NA,NA,NA,NA
13eb4,task,flow.Sequence,3_0_2_0_1,NA,NA,completion,10706.699,368814.1,368811.749,368828.28,379534.979,379537.9,2023-08-21T15:26:32Z,379551.606,NULL,Angreifer,mshambulizi,s,kitengo,tasinia,usafirishaji,NA,sdf,NA,2,NA,NA,NA,NA,NA,NA,NA,NA,NA,NA,NA,NA,NA,NA,NA,NA,NA,NA,NA
13eb4,deep,flow.Sequence,3_0_2_0_2_0,NA,NA,skipped,NA,379538,NA,NA,379534.979,379538,2023-08-21T15:26:32Z,379551.606,NULL,Wettbewerb,ushindani,s,mapendezi,kichocheo,ubaguzi,NA,sdf,NA,2,NA,NA,NA,NA,NA,NA,NA,NA,NA,NA,NA,NA,NA,NA,NA,NA,NA,NA,NA
13eb4,Shallow Question,html.Page,3_0_2_0_2_1_0,NA,NA,form submission,7864.5939999999,379538.1,379534.979,379551.606,387416.2,387416.6,2023-08-21T15:26:40Z,387422.168,NULL,Wettbewerb,ushindani,s,mapendezi,kichocheo,ubaguzi,ushindani,NA,NA,2,NA,NA,NA,NA,NA,NA,NA,NA,NA,NA,NA,NA,NA,NA,NA,NA,NA,NA,NA
13eb4,"""Richtig""-Screen",canvas.Screen,3_0_2_0_2_1_1,NA,NA,timeout,4996.238,387420.3,387404.97,387422.168,392401.728,392402.4,2023-08-21T15:26:45Z,392418.406,NULL,Wettbewerb,ushindani,s,mapendezi,kichocheo,ubaguzi,NA,sdf,1,2,NA,NA,NA,NA,NA,NA,NA,NA,NA,NA,NA,NA,NA,NA,NA,NA,NA,NA,NA
13eb4,"""Falsch""-Screen",canvas.Screen,3_0_2_0_2_1_2,NA,NA,skipped,NA,392403.6,NA,NA,392401.728,392403.8,2023-08-21T15:26:45Z,392418.406,NULL,Wettbewerb,ushindani,s,mapendezi,kichocheo,ubaguzi,NA,sdf,NA,2,NA,NA,NA,NA,NA,NA,NA,NA,NA,NA,NA,NA,NA,NA,NA,NA,NA,NA,NA
13eb4,shallow,flow.Sequence,3_0_2_0_2_1,NA,NA,completion,12850.122,379538.1,379534.979,379551.606,392401.728,392404,2023-08-21T15:26:45Z,392418.406,NULL,Wettbewerb,ushindani,s,mapendezi,kichocheo,ubaguzi,NA,sdf,NA,2,NA,NA,NA,NA,NA,NA,NA,NA,NA,NA,NA,NA,NA,NA,NA,NA,NA,NA,NA
13eb4,task,flow.Sequence,3_0_2_0_2,NA,NA,completion,12850.122,379537.9,379534.979,379551.606,392401.728,392404.2,2023-08-21T15:26:45Z,392418.406,NULL,Wettbewerb,ushindani,s,mapendezi,kichocheo,ubaguzi,NA,sdf,NA,2,NA,NA,NA,NA,NA,NA,NA,NA,NA,NA,NA,NA,NA,NA,NA,NA,NA,NA,NA
13eb4,Deep Question,html.Page,3_0_2_0_3_0_0,NA,NA,form submission,17362.994,392404.3,392401.728,392418.406,409781.4,409781.6,2023-08-21T15:27:03Z,409790.5,NULL,Kanzler,diwani,d,NA,NA,NA,dirana,NA,NA,2,NA,NA,NA,NA,NA,NA,NA,NA,NA,NA,NA,NA,NA,NA,NA,NA,NA,NA,NA
13eb4,"""Richtig""-Screen",canvas.Screen,3_0_2_0_3_0_1,NA,NA,skipped,NA,409783.3,NA,NA,409781.4,409783.4,2023-08-21T15:27:03Z,409790.5,NULL,Kanzler,diwani,d,NA,NA,NA,NA,sdf,NA,2,NA,NA,NA,NA,NA,NA,NA,NA,NA,NA,NA,NA,NA,NA,NA,NA,NA,NA,NA
13eb4,"""Falsch""-Screen",canvas.Screen,3_0_2_0_3_0_2,NA,NA,timeout,5000.36,409783.8,409765.889,409790.5,414774.504,414776,2023-08-21T15:27:08Z,414790.86,NULL,Kanzler,diwani,d,NA,NA,NA,NA,sdf,0,2,NA,NA,NA,NA,NA,NA,NA,NA,NA,NA,NA,NA,NA,NA,NA,NA,NA,NA,NA
13eb4,deep,flow.Sequence,3_0_2_0_3_0,NA,NA,completion,22356.098,392404.3,392401.728,392418.406,414774.504,414776.3,2023-08-21T15:27:08Z,414790.86,NULL,Kanzler,diwani,d,NA,NA,NA,NA,sdf,NA,2,NA,NA,NA,NA,NA,NA,NA,NA,NA,NA,NA,NA,NA,NA,NA,NA,NA,NA,NA
13eb4,shallow,flow.Sequence,3_0_2_0_3_1,NA,NA,skipped,NA,414776.4,NA,NA,414774.504,414776.5,2023-08-21T15:27:08Z,414790.86,NULL,Kanzler,diwani,d,NA,NA,NA,NA,sdf,NA,2,NA,NA,NA,NA,NA,NA,NA,NA,NA,NA,NA,NA,NA,NA,NA,NA,NA,NA,NA
13eb4,task,flow.Sequence,3_0_2_0_3,NA,NA,completion,22356.098,392404.2,392401.728,392418.406,414774.504,414776.7,2023-08-21T15:27:08Z,414790.86,NULL,Kanzler,diwani,d,NA,NA,NA,NA,sdf,NA,2,NA,NA,NA,NA,NA,NA,NA,NA,NA,NA,NA,NA,NA,NA,NA,NA,NA,NA,NA
13eb4,Deep Question,html.Page,3_0_2_0_4_0_0,NA,NA,form submission,17542.84,414776.8,414774.504,414790.86,432333.7,432333.9,2023-08-21T15:27:25Z,432342.549,NULL,Schönheit,kirembo,d,NA,NA,NA,kategi,NA,NA,2,NA,NA,NA,NA,NA,NA,NA,NA,NA,NA,NA,NA,NA,NA,NA,NA,NA,NA,NA
13eb4,"""Richtig""-Screen",canvas.Screen,3_0_2_0_4_0_1,NA,NA,skipped,NA,432335.5,NA,NA,432333.7,432335.6,2023-08-21T15:27:25Z,432342.549,NULL,Schönheit,kirembo,d,NA,NA,NA,NA,sdf,NA,2,NA,NA,NA,NA,NA,NA,NA,NA,NA,NA,NA,NA,NA,NA,NA,NA,NA,NA,NA
13eb4,"""Falsch""-Screen",canvas.Screen,3_0_2_0_4_0_2,NA,NA,timeout,5000.138,432336,432327.623,432342.549,437326.209,437327,2023-08-21T15:27:30Z,437342.687,NULL,Schönheit,kirembo,d,NA,NA,NA,NA,sdf,0,2,NA,NA,NA,NA,NA,NA,NA,NA,NA,NA,NA,NA,NA,NA,NA,NA,NA,NA,NA
13eb4,deep,flow.Sequence,3_0_2_0_4_0,NA,NA,completion,22535.349,414776.7,414774.504,414790.86,437326.209,437327.3,2023-08-21T15:27:30Z,437342.687,NULL,Schönheit,kirembo,d,NA,NA,NA,NA,sdf,NA,2,NA,NA,NA,NA,NA,NA,NA,NA,NA,NA,NA,NA,NA,NA,NA,NA,NA,NA,NA
13eb4,shallow,flow.Sequence,3_0_2_0_4_1,NA,NA,skipped,NA,437327.4,NA,NA,437326.209,437327.5,2023-08-21T15:27:30Z,437342.687,NULL,Schönheit,kirembo,d,NA,NA,NA,NA,sdf,NA,2,NA,NA,NA,NA,NA,NA,NA,NA,NA,NA,NA,NA,NA,NA,NA,NA,NA,NA,NA
13eb4,task,flow.Sequence,3_0_2_0_4,NA,NA,completion,22535.349,414776.7,414774.504,414790.86,437326.209,437327.6,2023-08-21T15:27:30Z,437342.687,NULL,Schönheit,kirembo,d,NA,NA,NA,NA,sdf,NA,2,NA,NA,NA,NA,NA,NA,NA,NA,NA,NA,NA,NA,NA,NA,NA,NA,NA,NA,NA
13eb4,deep,flow.Sequence,3_0_2_0_5_0,NA,NA,skipped,NA,437327.7,NA,NA,437326.209,437327.7,2023-08-21T15:27:30Z,437342.687,NULL,Auftrag,uagizaji,s,ghanima,kuzingatia,msukani,NA,sdf,NA,2,NA,NA,NA,NA,NA,NA,NA,NA,NA,NA,NA,NA,NA,NA,NA,NA,NA,NA,NA
13eb4,Shallow Question,html.Page,3_0_2_0_5_1_0,NA,NA,form submission,24765.813,437327.9,437326.209,437342.687,462108.5,462108.8,2023-08-21T15:27:55Z,462114.566,NULL,Auftrag,uagizaji,s,ghanima,kuzingatia,msukani,uagizaji,NA,NA,2,NA,NA,NA,NA,NA,NA,NA,NA,NA,NA,NA,NA,NA,NA,NA,NA,NA,NA,NA
13eb4,"""Richtig""-Screen",canvas.Screen,3_0_2_0_5_1_1,NA,NA,timeout,4991.427,462112.7,462091.679,462114.566,467089.295,467090.1,2023-08-21T15:28:00Z,467105.993,NULL,Auftrag,uagizaji,s,ghanima,kuzingatia,msukani,NA,sdf,1,2,NA,NA,NA,NA,NA,NA,NA,NA,NA,NA,NA,NA,NA,NA,NA,NA,NA,NA,NA
13eb4,"""Falsch""-Screen",canvas.Screen,3_0_2_0_5_1_2,NA,NA,skipped,NA,467091.4,NA,NA,467089.295,467091.6,2023-08-21T15:28:00Z,467105.993,NULL,Auftrag,uagizaji,s,ghanima,kuzingatia,msukani,NA,sdf,NA,2,NA,NA,NA,NA,NA,NA,NA,NA,NA,NA,NA,NA,NA,NA,NA,NA,NA,NA,NA
13eb4,shallow,flow.Sequence,3_0_2_0_5_1,NA,NA,completion,29746.608,437327.9,437326.209,437342.687,467089.295,467091.8,2023-08-21T15:28:00Z,467105.993,NULL,Auftrag,uagizaji,s,ghanima,kuzingatia,msukani,NA,sdf,NA,2,NA,NA,NA,NA,NA,NA,NA,NA,NA,NA,NA,NA,NA,NA,NA,NA,NA,NA,NA
13eb4,task,flow.Sequence,3_0_2_0_5,NA,NA,completion,29746.608,437327.7,437326.209,437342.687,467089.295,467091.9,2023-08-21T15:28:00Z,467105.993,NULL,Auftrag,uagizaji,s,ghanima,kuzingatia,msukani,NA,sdf,NA,2,NA,NA,NA,NA,NA,NA,NA,NA,NA,NA,NA,NA,NA,NA,NA,NA,NA,NA,NA
13eb4,Deep Question,html.Page,3_0_2_0_6_0_0,NA,NA,form submission,2684.6069999998,467092.1,467089.295,467105.993,469790.6,469790.8,2023-08-21T15:28:03Z,469799.532,NULL,Zufall,kikuti,d,NA,NA,NA,k,NA,NA,2,NA,NA,NA,NA,NA,NA,NA,NA,NA,NA,NA,NA,NA,NA,NA,NA,NA,NA,NA
13eb4,"""Richtig""-Screen",canvas.Screen,3_0_2_0_6_0_1,NA,NA,skipped,NA,469791.3,NA,NA,469790.6,469791.4,2023-08-21T15:28:03Z,469799.532,NULL,Zufall,kikuti,d,NA,NA,NA,NA,sdf,NA,2,NA,NA,NA,NA,NA,NA,NA,NA,NA,NA,NA,NA,NA,NA,NA,NA,NA,NA,NA
13eb4,"""Falsch""-Screen",canvas.Screen,3_0_2_0_6_0_2,NA,NA,timeout,5001.412,469791.7,469780.709,469799.532,474784.142,474784.9,2023-08-21T15:28:08Z,474800.944,NULL,Zufall,kikuti,d,NA,NA,NA,NA,sdf,0,2,NA,NA,NA,NA,NA,NA,NA,NA,NA,NA,NA,NA,NA,NA,NA,NA,NA,NA,NA
13eb4,deep,flow.Sequence,3_0_2_0_6_0,NA,NA,completion,7678.149,467092,467089.295,467105.993,474784.142,474785.2,2023-08-21T15:28:08Z,474800.944,NULL,Zufall,kikuti,d,NA,NA,NA,NA,sdf,NA,2,NA,NA,NA,NA,NA,NA,NA,NA,NA,NA,NA,NA,NA,NA,NA,NA,NA,NA,NA
13eb4,shallow,flow.Sequence,3_0_2_0_6_1,NA,NA,skipped,NA,474785.3,NA,NA,474784.142,474785.4,2023-08-21T15:28:08Z,474800.944,NULL,Zufall,kikuti,d,NA,NA,NA,NA,sdf,NA,2,NA,NA,NA,NA,NA,NA,NA,NA,NA,NA,NA,NA,NA,NA,NA,NA,NA,NA,NA
13eb4,task,flow.Sequence,3_0_2_0_6,NA,NA,completion,7678.149,467092,467089.295,467105.993,474784.142,474785.6,2023-08-21T15:28:08Z,474800.944,NULL,Zufall,kikuti,d,NA,NA,NA,NA,sdf,NA,2,NA,NA,NA,NA,NA,NA,NA,NA,NA,NA,NA,NA,NA,NA,NA,NA,NA,NA,NA
13eb4,deep,flow.Sequence,3_0_2_0_7_0,NA,NA,skipped,NA,474785.7,NA,NA,474784.142,474785.7,2023-08-21T15:28:08Z,474800.944,NULL,Sänger,mwimbaji,s,msichana,shughuli,mshirika,NA,sdf,NA,2,NA,NA,NA,NA,NA,NA,NA,NA,NA,NA,NA,NA,NA,NA,NA,NA,NA,NA,NA
13eb4,Shallow Question,html.Page,3_0_2_0_7_1_0,NA,NA,form submission,21125.156,474785.7,474784.142,474800.944,495926.1,495926.6,2023-08-21T15:28:29Z,495932.669,NULL,Sänger,mwimbaji,s,msichana,shughuli,mshirika,mwimbaji,NA,NA,2,NA,NA,NA,NA,NA,NA,NA,NA,NA,NA,NA,NA,NA,NA,NA,NA,NA,NA,NA
13eb4,"""Richtig""-Screen",canvas.Screen,3_0_2_0_7_1_1,NA,NA,timeout,5003.034,495930.3,495909.407,495932.669,500919.165,500919.9,2023-08-21T15:28:34Z,500935.703,NULL,Sänger,mwimbaji,s,msichana,shughuli,mshirika,NA,sdf,1,2,NA,NA,NA,NA,NA,NA,NA,NA,NA,NA,NA,NA,NA,NA,NA,NA,NA,NA,NA
13eb4,"""Falsch""-Screen",canvas.Screen,3_0_2_0_7_1_2,NA,NA,skipped,NA,500921.6,NA,NA,500919.165,500921.9,2023-08-21T15:28:34Z,500935.703,NULL,Sänger,mwimbaji,s,msichana,shughuli,mshirika,NA,sdf,NA,2,NA,NA,NA,NA,NA,NA,NA,NA,NA,NA,NA,NA,NA,NA,NA,NA,NA,NA,NA
13eb4,shallow,flow.Sequence,3_0_2_0_7_1,NA,NA,completion,26118.221,474785.7,474784.142,474800.944,500919.165,500922,2023-08-21T15:28:34Z,500935.703,NULL,Sänger,mwimbaji,s,msichana,shughuli,mshirika,NA,sdf,NA,2,NA,NA,NA,NA,NA,NA,NA,NA,NA,NA,NA,NA,NA,NA,NA,NA,NA,NA,NA
13eb4,task,flow.Sequence,3_0_2_0_7,NA,NA,completion,26118.221,474785.6,474784.142,474800.944,500919.165,500922.2,2023-08-21T15:28:34Z,500935.703,NULL,Sänger,mwimbaji,s,msichana,shughuli,mshirika,NA,sdf,NA,2,NA,NA,NA,NA,NA,NA,NA,NA,NA,NA,NA,NA,NA,NA,NA,NA,NA,NA,NA
13eb4,block,flow.Loop,3_0_2_0,NA,NA,completion,144756.544,356153.2,356144.695,356162.621,500919.165,500922.3,2023-08-21T15:28:34Z,500935.703,NULL,NA,NA,NA,NA,NA,NA,NA,sdf,NA,2,NA,NA,NA,NA,NA,NA,NA,NA,NA,NA,NA,NA,NA,NA,NA,NA,NA,NA,NA
13eb4,weiter,canvas.Screen,3_0_2_1,sdf,keypress(Space),response,1394.997,500922.4,500919.165,500935.703,502330.7,502333.3,2023-08-21T15:28:35Z,502357.144,NULL,NA,NA,NA,NA,NA,NA,NA,sdf,NA,2,NA,NA,NA,NA,NA,NA,NA,NA,NA,NA,NA,NA,NA,NA,NA,NA,NA,NA,NA
13eb4,check continue,flow.Sequence,3_0_2,NA,NA,completion,146168.079,356153.1,356144.695,356162.621,502330.7,502333.6,2023-08-21T15:28:35Z,502357.144,NULL,NA,NA,NA,NA,NA,NA,NA,sdf,NA,2,NA,NA,NA,NA,NA,NA,NA,NA,NA,NA,NA,NA,NA,NA,NA,NA,NA,NA,NA
13eb4,Deep Question,html.Page,3_0_3_0_0_0_0,NA,NA,form submission,4995.6560000001,502361.9,502319.598,502357.144,507352.8,507352.8,2023-08-21T15:28:40Z,507361.83,NULL,Zufall,kikuti,d,NA,NA,NA,kikuti,NA,NA,3,NA,NA,NA,NA,NA,NA,NA,NA,NA,NA,NA,NA,NA,NA,NA,NA,NA,NA,NA
13eb4,"""Richtig""-Screen",canvas.Screen,3_0_3_0_0_0_1,NA,NA,timeout,5000.411,507353.6,507337.738,507361.83,512345.9,512346.6,2023-08-21T15:28:45Z,512362.241,NULL,Zufall,kikuti,d,NA,NA,NA,NA,qt,1,3,NA,NA,NA,NA,NA,NA,NA,NA,NA,NA,NA,NA,NA,NA,NA,NA,NA,NA,NA
13eb4,"""Falsch""-Screen",canvas.Screen,3_0_3_0_0_0_2,NA,NA,skipped,NA,512347.9,NA,NA,512345.9,512348.2,2023-08-21T15:28:45Z,512362.241,NULL,Zufall,kikuti,d,NA,NA,NA,NA,qt,NA,3,NA,NA,NA,NA,NA,NA,NA,NA,NA,NA,NA,NA,NA,NA,NA,NA,NA,NA,NA
13eb4,deep,flow.Sequence,3_0_3_0_0_0,NA,NA,completion,9988.7560000001,502361.9,502319.598,502357.144,512345.9,512348.4,2023-08-21T15:28:45Z,512362.241,NULL,Zufall,kikuti,d,NA,NA,NA,NA,qt,NA,3,NA,NA,NA,NA,NA,NA,NA,NA,NA,NA,NA,NA,NA,NA,NA,NA,NA,NA,NA
13eb4,shallow,flow.Sequence,3_0_3_0_0_1,NA,NA,skipped,NA,512348.6,NA,NA,512345.9,512348.6,2023-08-21T15:28:45Z,512362.241,NULL,Zufall,kikuti,d,NA,NA,NA,NA,qt,NA,3,NA,NA,NA,NA,NA,NA,NA,NA,NA,NA,NA,NA,NA,NA,NA,NA,NA,NA,NA
13eb4,task,flow.Sequence,3_0_3_0_0,NA,NA,completion,9988.7560000001,502361.9,502319.598,502357.144,512345.9,512348.8,2023-08-21T15:28:45Z,512362.241,NULL,Zufall,kikuti,d,NA,NA,NA,NA,qt,NA,3,NA,NA,NA,NA,NA,NA,NA,NA,NA,NA,NA,NA,NA,NA,NA,NA,NA,NA,NA
13eb4,deep,flow.Sequence,3_0_3_0_1_0,NA,NA,skipped,NA,512348.8,NA,NA,512345.9,512348.9,2023-08-21T15:28:45Z,512362.241,NULL,Wettbewerb,ushindani,s,mapendezi,kichocheo,ubaguzi,NA,qt,NA,3,NA,NA,NA,NA,NA,NA,NA,NA,NA,NA,NA,NA,NA,NA,NA,NA,NA,NA,NA
13eb4,Shallow Question,html.Page,3_0_3_0_1_1_0,NA,NA,form submission,5344.759,512349,512345.9,512362.241,517707,517707.4,2023-08-21T15:28:50Z,517712.794,NULL,Wettbewerb,ushindani,s,mapendezi,kichocheo,ubaguzi,ushindani,NA,NA,3,NA,NA,NA,NA,NA,NA,NA,NA,NA,NA,NA,NA,NA,NA,NA,NA,NA,NA,NA
13eb4,"""Richtig""-Screen",canvas.Screen,3_0_3_0_1_1_1,NA,NA,timeout,4996.975,517708.6,517704.091,517712.794,522693.349,522694.2,2023-08-21T15:28:55Z,522709.769,NULL,Wettbewerb,ushindani,s,mapendezi,kichocheo,ubaguzi,NA,qt,1,3,NA,NA,NA,NA,NA,NA,NA,NA,NA,NA,NA,NA,NA,NA,NA,NA,NA,NA,NA
13eb4,"""Falsch""-Screen",canvas.Screen,3_0_3_0_1_1_2,NA,NA,skipped,NA,522695.3,NA,NA,522693.349,522695.7,2023-08-21T15:28:55Z,522709.769,NULL,Wettbewerb,ushindani,s,mapendezi,kichocheo,ubaguzi,NA,qt,NA,3,NA,NA,NA,NA,NA,NA,NA,NA,NA,NA,NA,NA,NA,NA,NA,NA,NA,NA,NA
13eb4,shallow,flow.Sequence,3_0_3_0_1_1,NA,NA,completion,10331.108,512349,512345.9,512362.241,522693.349,522695.8,2023-08-21T15:28:55Z,522709.769,NULL,Wettbewerb,ushindani,s,mapendezi,kichocheo,ubaguzi,NA,qt,NA,3,NA,NA,NA,NA,NA,NA,NA,NA,NA,NA,NA,NA,NA,NA,NA,NA,NA,NA,NA
13eb4,task,flow.Sequence,3_0_3_0_1,NA,NA,completion,10331.108,512348.8,512345.9,512362.241,522693.349,522695.9,2023-08-21T15:28:55Z,522709.769,NULL,Wettbewerb,ushindani,s,mapendezi,kichocheo,ubaguzi,NA,qt,NA,3,NA,NA,NA,NA,NA,NA,NA,NA,NA,NA,NA,NA,NA,NA,NA,NA,NA,NA,NA
13eb4,deep,flow.Sequence,3_0_3_0_2_0,NA,NA,skipped,NA,522696.1,NA,NA,522693.349,522696.2,2023-08-21T15:28:55Z,522709.769,NULL,Angreifer,mshambulizi,s,kitengo,tasinia,usafirishaji,NA,qt,NA,3,NA,NA,NA,NA,NA,NA,NA,NA,NA,NA,NA,NA,NA,NA,NA,NA,NA,NA,NA
13eb4,Shallow Question,html.Page,3_0_3_0_2_1_0,NA,NA,form submission,6058.3309999999,522696.2,522693.349,522709.769,528768.1,528768.5,2023-08-21T15:29:02Z,528774.578,NULL,Angreifer,mshambulizi,s,kitengo,tasinia,usafirishaji,mshambulizi,NA,NA,3,NA,NA,NA,NA,NA,NA,NA,NA,NA,NA,NA,NA,NA,NA,NA,NA,NA,NA,NA
13eb4,"""Richtig""-Screen",canvas.Screen,3_0_3_0_2_1_1,NA,NA,timeout,5000.4280000001,528772,528754.838,528774.578,533758.454,533759.3,2023-08-21T15:29:07Z,533775.006,NULL,Angreifer,mshambulizi,s,kitengo,tasinia,usafirishaji,NA,qt,1,3,NA,NA,NA,NA,NA,NA,NA,NA,NA,NA,NA,NA,NA,NA,NA,NA,NA,NA,NA
13eb4,"""Falsch""-Screen",canvas.Screen,3_0_3_0_2_1_2,NA,NA,skipped,NA,533760.6,NA,NA,533758.454,533760.8,2023-08-21T15:29:07Z,533775.006,NULL,Angreifer,mshambulizi,s,kitengo,tasinia,usafirishaji,NA,qt,NA,3,NA,NA,NA,NA,NA,NA,NA,NA,NA,NA,NA,NA,NA,NA,NA,NA,NA,NA,NA
13eb4,shallow,flow.Sequence,3_0_3_0_2_1,NA,NA,completion,11048.685,522696.2,522693.349,522709.769,533758.454,533761.1,2023-08-21T15:29:07Z,533775.006,NULL,Angreifer,mshambulizi,s,kitengo,tasinia,usafirishaji,NA,qt,NA,3,NA,NA,NA,NA,NA,NA,NA,NA,NA,NA,NA,NA,NA,NA,NA,NA,NA,NA,NA
13eb4,task,flow.Sequence,3_0_3_0_2,NA,NA,completion,11048.685,522696,522693.349,522709.769,533758.454,533761.2,2023-08-21T15:29:07Z,533775.006,NULL,Angreifer,mshambulizi,s,kitengo,tasinia,usafirishaji,NA,qt,NA,3,NA,NA,NA,NA,NA,NA,NA,NA,NA,NA,NA,NA,NA,NA,NA,NA,NA,NA,NA
13eb4,Deep Question,html.Page,3_0_3_0_3_0_0,NA,NA,form submission,9920.294,533761.3,533758.454,533775.006,543695.3,543695.5,2023-08-21T15:29:16Z,543727.939,NULL,Schönheit,kirembo,d,NA,NA,NA,diwana,NA,NA,3,NA,NA,NA,NA,NA,NA,NA,NA,NA,NA,NA,NA,NA,NA,NA,NA,NA,NA,NA
13eb4,"""Richtig""-Screen",canvas.Screen,3_0_3_0_3_0_1,NA,NA,skipped,NA,543697.1,NA,NA,543695.3,543697.3,2023-08-21T15:29:16Z,543727.939,NULL,Schönheit,kirembo,d,NA,NA,NA,NA,qt,NA,3,NA,NA,NA,NA,NA,NA,NA,NA,NA,NA,NA,NA,NA,NA,NA,NA,NA,NA,NA
13eb4,"""Falsch""-Screen",canvas.Screen,3_0_3_0_3_0_2,NA,NA,timeout,5000.206,543697.6,543711.374,543727.939,548711.281,548712.1,2023-08-21T15:29:21Z,548728.145,NULL,Schönheit,kirembo,d,NA,NA,NA,NA,qt,0,3,NA,NA,NA,NA,NA,NA,NA,NA,NA,NA,NA,NA,NA,NA,NA,NA,NA,NA,NA
13eb4,deep,flow.Sequence,3_0_3_0_3_0,NA,NA,completion,14936.275,533761.3,533758.454,533775.006,548711.281,548712.3,2023-08-21T15:29:21Z,548728.145,NULL,Schönheit,kirembo,d,NA,NA,NA,NA,qt,NA,3,NA,NA,NA,NA,NA,NA,NA,NA,NA,NA,NA,NA,NA,NA,NA,NA,NA,NA,NA
13eb4,shallow,flow.Sequence,3_0_3_0_3_1,NA,NA,skipped,NA,548712.4,NA,NA,548711.281,548712.6,2023-08-21T15:29:21Z,548728.145,NULL,Schönheit,kirembo,d,NA,NA,NA,NA,qt,NA,3,NA,NA,NA,NA,NA,NA,NA,NA,NA,NA,NA,NA,NA,NA,NA,NA,NA,NA,NA
13eb4,task,flow.Sequence,3_0_3_0_3,NA,NA,completion,14936.275,533761.2,533758.454,533775.006,548711.281,548712.7,2023-08-21T15:29:21Z,548728.145,NULL,Schönheit,kirembo,d,NA,NA,NA,NA,qt,NA,3,NA,NA,NA,NA,NA,NA,NA,NA,NA,NA,NA,NA,NA,NA,NA,NA,NA,NA,NA
13eb4,Deep Question,html.Page,3_0_3_0_4_0_0,NA,NA,form submission,9415.5549999999,548712.9,548711.281,548728.145,558143.7,558143.9,2023-08-21T15:29:31Z,558152.249,NULL,Abrechnung,uhasibu,d,NA,NA,NA,diwana,NA,NA,3,NA,NA,NA,NA,NA,NA,NA,NA,NA,NA,NA,NA,NA,NA,NA,NA,NA,NA,NA
13eb4,"""Richtig""-Screen",canvas.Screen,3_0_3_0_4_0_1,NA,NA,skipped,NA,558145.4,NA,NA,558143.7,558145.5,2023-08-21T15:29:31Z,558152.249,NULL,Abrechnung,uhasibu,d,NA,NA,NA,NA,qt,NA,3,NA,NA,NA,NA,NA,NA,NA,NA,NA,NA,NA,NA,NA,NA,NA,NA,NA,NA,NA
13eb4,"""Falsch""-Screen",canvas.Screen,3_0_3_0_4_0_2,NA,NA,timeout,4993.579,558145.9,558138.023,558152.249,563129.167,563129.9,2023-08-21T15:29:36Z,563145.828,NULL,Abrechnung,uhasibu,d,NA,NA,NA,NA,qt,0,3,NA,NA,NA,NA,NA,NA,NA,NA,NA,NA,NA,NA,NA,NA,NA,NA,NA,NA,NA
13eb4,deep,flow.Sequence,3_0_3_0_4_0,NA,NA,completion,14401.022,548712.9,548711.281,548728.145,563129.167,563130.1,2023-08-21T15:29:36Z,563145.828,NULL,Abrechnung,uhasibu,d,NA,NA,NA,NA,qt,NA,3,NA,NA,NA,NA,NA,NA,NA,NA,NA,NA,NA,NA,NA,NA,NA,NA,NA,NA,NA
13eb4,shallow,flow.Sequence,3_0_3_0_4_1,NA,NA,skipped,NA,563130.3,NA,NA,563129.167,563130.4,2023-08-21T15:29:36Z,563145.828,NULL,Abrechnung,uhasibu,d,NA,NA,NA,NA,qt,NA,3,NA,NA,NA,NA,NA,NA,NA,NA,NA,NA,NA,NA,NA,NA,NA,NA,NA,NA,NA
13eb4,task,flow.Sequence,3_0_3_0_4,NA,NA,completion,14401.022,548712.8,548711.281,548728.145,563129.167,563130.5,2023-08-21T15:29:36Z,563145.828,NULL,Abrechnung,uhasibu,d,NA,NA,NA,NA,qt,NA,3,NA,NA,NA,NA,NA,NA,NA,NA,NA,NA,NA,NA,NA,NA,NA,NA,NA,NA,NA
13eb4,deep,flow.Sequence,3_0_3_0_5_0,NA,NA,skipped,NA,563130.6,NA,NA,563129.167,563130.7,2023-08-21T15:29:36Z,563145.828,NULL,Auftrag,uagizaji,s,ghanima,kuzingatia,msukani,NA,qt,NA,3,NA,NA,NA,NA,NA,NA,NA,NA,NA,NA,NA,NA,NA,NA,NA,NA,NA,NA,NA
13eb4,Shallow Question,html.Page,3_0_3_0_5_1_0,NA,NA,form submission,6220.2719999999,563130.8,563129.167,563145.828,569366.1,569366.6,2023-08-21T15:29:42Z,569371.485,NULL,Auftrag,uagizaji,s,ghanima,kuzingatia,msukani,uagizaji,NA,NA,3,NA,NA,NA,NA,NA,NA,NA,NA,NA,NA,NA,NA,NA,NA,NA,NA,NA,NA,NA
13eb4,"""Richtig""-Screen",canvas.Screen,3_0_3_0_5_1_1,NA,NA,timeout,4994.517,569370.7,569362.197,569371.485,574349.328,574350.1,2023-08-21T15:29:47Z,574366.002,NULL,Auftrag,uagizaji,s,ghanima,kuzingatia,msukani,NA,qt,1,3,NA,NA,NA,NA,NA,NA,NA,NA,NA,NA,NA,NA,NA,NA,NA,NA,NA,NA,NA
13eb4,"""Falsch""-Screen",canvas.Screen,3_0_3_0_5_1_2,NA,NA,skipped,NA,574351.1,NA,NA,574349.328,574351.4,2023-08-21T15:29:47Z,574366.002,NULL,Auftrag,uagizaji,s,ghanima,kuzingatia,msukani,NA,qt,NA,3,NA,NA,NA,NA,NA,NA,NA,NA,NA,NA,NA,NA,NA,NA,NA,NA,NA,NA,NA
13eb4,shallow,flow.Sequence,3_0_3_0_5_1,NA,NA,completion,11203.5,563130.7,563129.167,563145.828,574349.328,574351.7,2023-08-21T15:29:47Z,574366.002,NULL,Auftrag,uagizaji,s,ghanima,kuzingatia,msukani,NA,qt,NA,3,NA,NA,NA,NA,NA,NA,NA,NA,NA,NA,NA,NA,NA,NA,NA,NA,NA,NA,NA
13eb4,task,flow.Sequence,3_0_3_0_5,NA,NA,completion,11203.5,563130.5,563129.167,563145.828,574349.328,574351.8,2023-08-21T15:29:47Z,574366.002,NULL,Auftrag,uagizaji,s,ghanima,kuzingatia,msukani,NA,qt,NA,3,NA,NA,NA,NA,NA,NA,NA,NA,NA,NA,NA,NA,NA,NA,NA,NA,NA,NA,NA
13eb4,deep,flow.Sequence,3_0_3_0_6_0,NA,NA,skipped,NA,574351.9,NA,NA,574349.328,574352,2023-08-21T15:29:47Z,574366.002,NULL,Sänger,mwimbaji,s,msichana,shughuli,mshirika,NA,qt,NA,3,NA,NA,NA,NA,NA,NA,NA,NA,NA,NA,NA,NA,NA,NA,NA,NA,NA,NA,NA
13eb4,Shallow Question,html.Page,3_0_3_0_6_1_0,NA,NA,form submission,5707.498,574352.1,574349.328,574366.002,580073.5,580073.9,2023-08-21T15:29:53Z,580079.617,NULL,Sänger,mwimbaji,s,msichana,shughuli,mshirika,mwimbaji,NA,NA,3,NA,NA,NA,NA,NA,NA,NA,NA,NA,NA,NA,NA,NA,NA,NA,NA,NA,NA,NA
13eb4,"""Richtig""-Screen",canvas.Screen,3_0_3_0_6_1_1,NA,NA,timeout,4998.564,580075,580071.01,580079.617,585061.524,585062.3,2023-08-21T15:29:58Z,585078.181,NULL,Sänger,mwimbaji,s,msichana,shughuli,mshirika,NA,qt,1,3,NA,NA,NA,NA,NA,NA,NA,NA,NA,NA,NA,NA,NA,NA,NA,NA,NA,NA,NA
13eb4,"""Falsch""-Screen",canvas.Screen,3_0_3_0_6_1_2,NA,NA,skipped,NA,585063.6,NA,NA,585061.524,585063.9,2023-08-21T15:29:58Z,585078.181,NULL,Sänger,mwimbaji,s,msichana,shughuli,mshirika,NA,qt,NA,3,NA,NA,NA,NA,NA,NA,NA,NA,NA,NA,NA,NA,NA,NA,NA,NA,NA,NA,NA
13eb4,shallow,flow.Sequence,3_0_3_0_6_1,NA,NA,completion,10695.522,574352,574349.328,574366.002,585061.524,585064.2,2023-08-21T15:29:58Z,585078.181,NULL,Sänger,mwimbaji,s,msichana,shughuli,mshirika,NA,qt,NA,3,NA,NA,NA,NA,NA,NA,NA,NA,NA,NA,NA,NA,NA,NA,NA,NA,NA,NA,NA
13eb4,task,flow.Sequence,3_0_3_0_6,NA,NA,completion,10695.522,574351.9,574349.328,574366.002,585061.524,585064.3,2023-08-21T15:29:58Z,585078.181,NULL,Sänger,mwimbaji,s,msichana,shughuli,mshirika,NA,qt,NA,3,NA,NA,NA,NA,NA,NA,NA,NA,NA,NA,NA,NA,NA,NA,NA,NA,NA,NA,NA
13eb4,Deep Question,html.Page,3_0_3_0_7_0_0,NA,NA,form submission,4427.319,585064.4,585061.524,585078.181,589505.5,589505.6,2023-08-21T15:30:02Z,589514.532,NULL,Kanzler,diwani,d,NA,NA,NA,diwana,NA,NA,3,NA,NA,NA,NA,NA,NA,NA,NA,NA,NA,NA,NA,NA,NA,NA,NA,NA,NA,NA
13eb4,"""Richtig""-Screen",canvas.Screen,3_0_3_0_7_0_1,NA,NA,skipped,NA,589506.2,NA,NA,589505.5,589506.2,2023-08-21T15:30:02Z,589514.532,NULL,Kanzler,diwani,d,NA,NA,NA,NA,qt,NA,3,NA,NA,NA,NA,NA,NA,NA,NA,NA,NA,NA,NA,NA,NA,NA,NA,NA,NA,NA
13eb4,"""Falsch""-Screen",canvas.Screen,3_0_3_0_7_0_2,NA,NA,timeout,5001.633,589506.8,589491.433,589514.532,594499.841,594500.6,2023-08-21T15:30:07Z,594516.165,NULL,Kanzler,diwani,d,NA,NA,NA,NA,qt,0,3,NA,NA,NA,NA,NA,NA,NA,NA,NA,NA,NA,NA,NA,NA,NA,NA,NA,NA,NA
13eb4,deep,flow.Sequence,3_0_3_0_7_0,NA,NA,completion,9421.66,585064.4,585061.524,585078.181,594499.841,594500.8,2023-08-21T15:30:07Z,594516.165,NULL,Kanzler,diwani,d,NA,NA,NA,NA,qt,NA,3,NA,NA,NA,NA,NA,NA,NA,NA,NA,NA,NA,NA,NA,NA,NA,NA,NA,NA,NA
13eb4,shallow,flow.Sequence,3_0_3_0_7_1,NA,NA,skipped,NA,594500.9,NA,NA,594499.841,594501.1,2023-08-21T15:30:07Z,594516.165,NULL,Kanzler,diwani,d,NA,NA,NA,NA,qt,NA,3,NA,NA,NA,NA,NA,NA,NA,NA,NA,NA,NA,NA,NA,NA,NA,NA,NA,NA,NA
13eb4,task,flow.Sequence,3_0_3_0_7,NA,NA,completion,9421.66,585064.3,585061.524,585078.181,594499.841,594501.1,2023-08-21T15:30:07Z,594516.165,NULL,Kanzler,diwani,d,NA,NA,NA,NA,qt,NA,3,NA,NA,NA,NA,NA,NA,NA,NA,NA,NA,NA,NA,NA,NA,NA,NA,NA,NA,NA
13eb4,block,flow.Loop,3_0_3_0,NA,NA,completion,92142.697,502361.9,502319.598,502357.144,594499.841,594501.3,2023-08-21T15:30:07Z,594516.165,NULL,NA,NA,NA,NA,NA,NA,NA,qt,NA,3,NA,NA,NA,NA,NA,NA,NA,NA,NA,NA,NA,NA,NA,NA,NA,NA,NA,NA,NA
13eb4,weiter,canvas.Screen,3_0_3_1,sdf,keypress(Space),response,1855.7349999999,594501.4,594499.841,594516.165,596371.9,596373.5,2023-08-21T15:30:09Z,596422.821,NULL,NA,NA,NA,NA,NA,NA,NA,qt,NA,3,NA,NA,NA,NA,NA,NA,NA,NA,NA,NA,NA,NA,NA,NA,NA,NA,NA,NA,NA
13eb4,check continue,flow.Sequence,3_0_3,NA,NA,completion,94014.756,502361.8,502319.598,502357.144,596371.9,596373.7,2023-08-21T15:30:09Z,596422.821,NULL,NA,NA,NA,NA,NA,NA,NA,qt,NA,3,NA,NA,NA,NA,NA,NA,NA,NA,NA,NA,NA,NA,NA,NA,NA,NA,NA,NA,NA
13eb4,Deep Question,html.Page,3_0_4_0_0_0_0,NA,NA,form submission,7810.9790000001,596413.1,596399.517,596422.821,604233.8,604234,2023-08-21T15:30:17Z,604242.817,NULL,Zufall,kikuti,d,NA,NA,NA,kikato,NA,NA,4,NA,NA,NA,NA,NA,NA,NA,NA,NA,NA,NA,NA,NA,NA,NA,NA,NA,NA,NA
13eb4,"""Richtig""-Screen",canvas.Screen,3_0_4_0_0_0_1,NA,NA,skipped,NA,604235.6,NA,NA,604233.8,604235.7,2023-08-21T15:30:17Z,604242.817,NULL,Zufall,kikuti,d,NA,NA,NA,NA,sd,NA,4,NA,NA,NA,NA,NA,NA,NA,NA,NA,NA,NA,NA,NA,NA,NA,NA,NA,NA,NA
13eb4,"""Falsch""-Screen",canvas.Screen,3_0_4_0_0_0_2,NA,NA,timeout,4999.965,604236.1,604218.651,604242.817,609226.361,609227,2023-08-21T15:30:22Z,609242.782,NULL,Zufall,kikuti,d,NA,NA,NA,NA,sd,0,4,NA,NA,NA,NA,NA,NA,NA,NA,NA,NA,NA,NA,NA,NA,NA,NA,NA,NA,NA
13eb4,deep,flow.Sequence,3_0_4_0_0_0,NA,NA,completion,12803.54,596413.1,596399.517,596422.821,609226.361,609227.3,2023-08-21T15:30:22Z,609242.782,NULL,Zufall,kikuti,d,NA,NA,NA,NA,sd,NA,4,NA,NA,NA,NA,NA,NA,NA,NA,NA,NA,NA,NA,NA,NA,NA,NA,NA,NA,NA
13eb4,shallow,flow.Sequence,3_0_4_0_0_1,NA,NA,skipped,NA,609227.3,NA,NA,609226.361,609227.5,2023-08-21T15:30:22Z,609242.782,NULL,Zufall,kikuti,d,NA,NA,NA,NA,sd,NA,4,NA,NA,NA,NA,NA,NA,NA,NA,NA,NA,NA,NA,NA,NA,NA,NA,NA,NA,NA
13eb4,task,flow.Sequence,3_0_4_0_0,NA,NA,completion,12803.54,596413.1,596399.517,596422.821,609226.361,609227.6,2023-08-21T15:30:22Z,609242.782,NULL,Zufall,kikuti,d,NA,NA,NA,NA,sd,NA,4,NA,NA,NA,NA,NA,NA,NA,NA,NA,NA,NA,NA,NA,NA,NA,NA,NA,NA,NA
13eb4,deep,flow.Sequence,3_0_4_0_1_0,NA,NA,skipped,NA,609227.7,NA,NA,609226.361,609227.7,2023-08-21T15:30:22Z,609242.782,NULL,Angreifer,mshambulizi,s,kitengo,tasinia,usafirishaji,NA,sd,NA,4,NA,NA,NA,NA,NA,NA,NA,NA,NA,NA,NA,NA,NA,NA,NA,NA,NA,NA,NA
13eb4,Shallow Question,html.Page,3_0_4_0_1_1_0,NA,NA,form submission,8480.4179999999,609227.9,609226.361,609242.782,617723.2,617723.8,2023-08-21T15:30:30Z,617728.345,NULL,Angreifer,mshambulizi,s,kitengo,tasinia,usafirishaji,mshambulizi,NA,NA,4,NA,NA,NA,NA,NA,NA,NA,NA,NA,NA,NA,NA,NA,NA,NA,NA,NA,NA,NA
13eb4,"""Richtig""-Screen",canvas.Screen,3_0_4_0_1_1_1,NA,NA,timeout,4992.057,617728,617708.887,617728.345,622703.766,622704.7,2023-08-21T15:30:35Z,622720.402,NULL,Angreifer,mshambulizi,s,kitengo,tasinia,usafirishaji,NA,sd,1,4,NA,NA,NA,NA,NA,NA,NA,NA,NA,NA,NA,NA,NA,NA,NA,NA,NA,NA,NA
13eb4,"""Falsch""-Screen",canvas.Screen,3_0_4_0_1_1_2,NA,NA,skipped,NA,622706.6,NA,NA,622703.766,622707,2023-08-21T15:30:35Z,622720.402,NULL,Angreifer,mshambulizi,s,kitengo,tasinia,usafirishaji,NA,sd,NA,4,NA,NA,NA,NA,NA,NA,NA,NA,NA,NA,NA,NA,NA,NA,NA,NA,NA,NA,NA
13eb4,shallow,flow.Sequence,3_0_4_0_1_1,NA,NA,completion,13460.984,609227.8,609226.361,609242.782,622703.766,622707.3,2023-08-21T15:30:35Z,622720.402,NULL,Angreifer,mshambulizi,s,kitengo,tasinia,usafirishaji,NA,sd,NA,4,NA,NA,NA,NA,NA,NA,NA,NA,NA,NA,NA,NA,NA,NA,NA,NA,NA,NA,NA
13eb4,task,flow.Sequence,3_0_4_0_1,NA,NA,completion,13460.984,609227.6,609226.361,609242.782,622703.766,622707.6,2023-08-21T15:30:35Z,622720.402,NULL,Angreifer,mshambulizi,s,kitengo,tasinia,usafirishaji,NA,sd,NA,4,NA,NA,NA,NA,NA,NA,NA,NA,NA,NA,NA,NA,NA,NA,NA,NA,NA,NA,NA
13eb4,deep,flow.Sequence,3_0_4_0_2_0,NA,NA,skipped,NA,622707.8,NA,NA,622703.766,622707.8,2023-08-21T15:30:35Z,622720.402,NULL,Sänger,mwimbaji,s,msichana,shughuli,mshirika,NA,sd,NA,4,NA,NA,NA,NA,NA,NA,NA,NA,NA,NA,NA,NA,NA,NA,NA,NA,NA,NA,NA
13eb4,Shallow Question,html.Page,3_0_4_0_2_1_0,NA,NA,form submission,4242.6979999999,622707.8,622703.766,622720.402,626963.1,626963.5,2023-08-21T15:30:40Z,626968.498,NULL,Sänger,mwimbaji,s,msichana,shughuli,mshirika,mwimbaji,NA,NA,4,NA,NA,NA,NA,NA,NA,NA,NA,NA,NA,NA,NA,NA,NA,NA,NA,NA,NA,NA
13eb4,"""Richtig""-Screen",canvas.Screen,3_0_4_0_2_1_1,NA,NA,timeout,5006.536,626964.8,626947.246,626968.498,631958.232,631959.1,2023-08-21T15:30:45Z,631975.034,NULL,Sänger,mwimbaji,s,msichana,shughuli,mshirika,NA,sd,1,4,NA,NA,NA,NA,NA,NA,NA,NA,NA,NA,NA,NA,NA,NA,NA,NA,NA,NA,NA
13eb4,"""Falsch""-Screen",canvas.Screen,3_0_4_0_2_1_2,NA,NA,skipped,NA,631960.4,NA,NA,631958.232,631960.6,2023-08-21T15:30:45Z,631975.034,NULL,Sänger,mwimbaji,s,msichana,shughuli,mshirika,NA,sd,NA,4,NA,NA,NA,NA,NA,NA,NA,NA,NA,NA,NA,NA,NA,NA,NA,NA,NA,NA,NA
13eb4,shallow,flow.Sequence,3_0_4_0_2_1,NA,NA,completion,9237.83,622707.8,622703.766,622720.402,631958.232,631960.9,2023-08-21T15:30:45Z,631975.034,NULL,Sänger,mwimbaji,s,msichana,shughuli,mshirika,NA,sd,NA,4,NA,NA,NA,NA,NA,NA,NA,NA,NA,NA,NA,NA,NA,NA,NA,NA,NA,NA,NA
13eb4,task,flow.Sequence,3_0_4_0_2,NA,NA,completion,9237.83,622707.7,622703.766,622720.402,631958.232,631961,2023-08-21T15:30:45Z,631975.034,NULL,Sänger,mwimbaji,s,msichana,shughuli,mshirika,NA,sd,NA,4,NA,NA,NA,NA,NA,NA,NA,NA,NA,NA,NA,NA,NA,NA,NA,NA,NA,NA,NA
13eb4,Deep Question,html.Page,3_0_4_0_3_0_0,NA,NA,form submission,6060.966,631961.1,631958.232,631975.034,638036,638036.1,2023-08-21T15:30:51Z,638044.887,NULL,Kanzler,diwani,d,NA,NA,NA,diwani,NA,NA,4,NA,NA,NA,NA,NA,NA,NA,NA,NA,NA,NA,NA,NA,NA,NA,NA,NA,NA,NA
13eb4,"""Richtig""-Screen",canvas.Screen,3_0_4_0_3_0_1,NA,NA,timeout,5000.553,638036.6,638031.828,638044.887,643028.849,643029.8,2023-08-21T15:30:56Z,643045.44,NULL,Kanzler,diwani,d,NA,NA,NA,NA,sd,1,4,NA,NA,NA,NA,NA,NA,NA,NA,NA,NA,NA,NA,NA,NA,NA,NA,NA,NA,NA
13eb4,"""Falsch""-Screen",canvas.Screen,3_0_4_0_3_0_2,NA,NA,skipped,NA,643031.4,NA,NA,643028.849,643031.7,2023-08-21T15:30:56Z,643045.44,NULL,Kanzler,diwani,d,NA,NA,NA,NA,sd,NA,4,NA,NA,NA,NA,NA,NA,NA,NA,NA,NA,NA,NA,NA,NA,NA,NA,NA,NA,NA
13eb4,deep,flow.Sequence,3_0_4_0_3_0,NA,NA,completion,11053.815,631961.1,631958.232,631975.034,643028.849,643032,2023-08-21T15:30:56Z,643045.44,NULL,Kanzler,diwani,d,NA,NA,NA,NA,sd,NA,4,NA,NA,NA,NA,NA,NA,NA,NA,NA,NA,NA,NA,NA,NA,NA,NA,NA,NA,NA
13eb4,shallow,flow.Sequence,3_0_4_0_3_1,NA,NA,skipped,NA,643032.1,NA,NA,643028.849,643032.1,2023-08-21T15:30:56Z,643045.44,NULL,Kanzler,diwani,d,NA,NA,NA,NA,sd,NA,4,NA,NA,NA,NA,NA,NA,NA,NA,NA,NA,NA,NA,NA,NA,NA,NA,NA,NA,NA
13eb4,task,flow.Sequence,3_0_4_0_3,NA,NA,completion,11053.815,631961.1,631958.232,631975.034,643028.849,643032.2,2023-08-21T15:30:56Z,643045.44,NULL,Kanzler,diwani,d,NA,NA,NA,NA,sd,NA,4,NA,NA,NA,NA,NA,NA,NA,NA,NA,NA,NA,NA,NA,NA,NA,NA,NA,NA,NA
13eb4,deep,flow.Sequence,3_0_4_0_4_0,NA,NA,skipped,NA,643032.4,NA,NA,643028.849,643032.5,2023-08-21T15:30:56Z,643045.44,NULL,Wettbewerb,ushindani,s,mapendezi,kichocheo,ubaguzi,NA,sd,NA,4,NA,NA,NA,NA,NA,NA,NA,NA,NA,NA,NA,NA,NA,NA,NA,NA,NA,NA,NA
13eb4,Shallow Question,html.Page,3_0_4_0_4_1_0,NA,NA,form submission,9671.1599999999,643032.6,643028.849,643045.44,652716.6,652717.1,2023-08-21T15:31:05Z,652721.969,NULL,Wettbewerb,ushindani,s,mapendezi,kichocheo,ubaguzi,mapendezi,NA,NA,4,NA,NA,NA,NA,NA,NA,NA,NA,NA,NA,NA,NA,NA,NA,NA,NA,NA,NA,NA
13eb4,"""Richtig""-Screen",canvas.Screen,3_0_4_0_4_1_1,NA,NA,skipped,NA,652721,NA,NA,652716.6,652721.2,2023-08-21T15:31:05Z,652721.969,NULL,Wettbewerb,ushindani,s,mapendezi,kichocheo,ubaguzi,NA,sd,NA,4,NA,NA,NA,NA,NA,NA,NA,NA,NA,NA,NA,NA,NA,NA,NA,NA,NA,NA,NA
13eb4,"""Falsch""-Screen",canvas.Screen,3_0_4_0_4_1_2,NA,NA,timeout,4998.5249999999,652722.8,652700.892,652721.969,657703.603,657705.5,2023-08-21T15:31:10Z,657720.494,NULL,Wettbewerb,ushindani,s,mapendezi,kichocheo,ubaguzi,NA,sd,0,4,NA,NA,NA,NA,NA,NA,NA,NA,NA,NA,NA,NA,NA,NA,NA,NA,NA,NA,NA
13eb4,shallow,flow.Sequence,3_0_4_0_4_1,NA,NA,completion,14658.163,643032.6,643028.849,643045.44,657703.603,657705.8,2023-08-21T15:31:10Z,657720.494,NULL,Wettbewerb,ushindani,s,mapendezi,kichocheo,ubaguzi,NA,sd,NA,4,NA,NA,NA,NA,NA,NA,NA,NA,NA,NA,NA,NA,NA,NA,NA,NA,NA,NA,NA
13eb4,task,flow.Sequence,3_0_4_0_4,NA,NA,completion,14658.163,643032.4,643028.849,643045.44,657703.603,657705.9,2023-08-21T15:31:10Z,657720.494,NULL,Wettbewerb,ushindani,s,mapendezi,kichocheo,ubaguzi,NA,sd,NA,4,NA,NA,NA,NA,NA,NA,NA,NA,NA,NA,NA,NA,NA,NA,NA,NA,NA,NA,NA
13eb4,Deep Question,html.Page,3_0_4_0_5_0_0,NA,NA,form submission,4367.706,657706.1,657703.603,657720.494,662088.2,662088.4,2023-08-21T15:31:15Z,662097.253,NULL,Abrechnung,uhasibu,d,NA,NA,NA,kikuti,NA,NA,4,NA,NA,NA,NA,NA,NA,NA,NA,NA,NA,NA,NA,NA,NA,NA,NA,NA,NA,NA
13eb4,"""Richtig""-Screen",canvas.Screen,3_0_4_0_5_0_1,NA,NA,skipped,NA,662089.2,NA,NA,662088.2,662089.3,2023-08-21T15:31:15Z,662097.253,NULL,Abrechnung,uhasibu,d,NA,NA,NA,NA,sd,NA,4,NA,NA,NA,NA,NA,NA,NA,NA,NA,NA,NA,NA,NA,NA,NA,NA,NA,NA,NA
13eb4,"""Falsch""-Screen",canvas.Screen,3_0_4_0_5_0_2,NA,NA,timeout,5000.845,662090,662074.606,662097.253,667081.578,667082.6,2023-08-21T15:31:20Z,667098.098,NULL,Abrechnung,uhasibu,d,NA,NA,NA,NA,sd,0,4,NA,NA,NA,NA,NA,NA,NA,NA,NA,NA,NA,NA,NA,NA,NA,NA,NA,NA,NA
13eb4,deep,flow.Sequence,3_0_4_0_5_0,NA,NA,completion,9361.084,657706.1,657703.603,657720.494,667081.578,667082.9,2023-08-21T15:31:20Z,667098.098,NULL,Abrechnung,uhasibu,d,NA,NA,NA,NA,sd,NA,4,NA,NA,NA,NA,NA,NA,NA,NA,NA,NA,NA,NA,NA,NA,NA,NA,NA,NA,NA
13eb4,shallow,flow.Sequence,3_0_4_0_5_1,NA,NA,skipped,NA,667083,NA,NA,667081.578,667083,2023-08-21T15:31:20Z,667098.098,NULL,Abrechnung,uhasibu,d,NA,NA,NA,NA,sd,NA,4,NA,NA,NA,NA,NA,NA,NA,NA,NA,NA,NA,NA,NA,NA,NA,NA,NA,NA,NA
13eb4,task,flow.Sequence,3_0_4_0_5,NA,NA,completion,9361.084,657706,657703.603,657720.494,667081.578,667083.1,2023-08-21T15:31:20Z,667098.098,NULL,Abrechnung,uhasibu,d,NA,NA,NA,NA,sd,NA,4,NA,NA,NA,NA,NA,NA,NA,NA,NA,NA,NA,NA,NA,NA,NA,NA,NA,NA,NA
13eb4,Deep Question,html.Page,3_0_4_0_6_0_0,NA,NA,form submission,7942.102,667083.3,667081.578,667098.098,675040.2,675040.3,2023-08-21T15:31:28Z,675048.554,NULL,Schönheit,kirembo,d,NA,NA,NA,kikuti,NA,NA,4,NA,NA,NA,NA,NA,NA,NA,NA,NA,NA,NA,NA,NA,NA,NA,NA,NA,NA,NA
13eb4,"""Richtig""-Screen",canvas.Screen,3_0_4_0_6_0_1,NA,NA,skipped,NA,675041.9,NA,NA,675040.2,675041.9,2023-08-21T15:31:28Z,675048.554,NULL,Schönheit,kirembo,d,NA,NA,NA,NA,sd,NA,4,NA,NA,NA,NA,NA,NA,NA,NA,NA,NA,NA,NA,NA,NA,NA,NA,NA,NA,NA
13eb4,"""Falsch""-Screen",canvas.Screen,3_0_4_0_6_0_2,NA,NA,timeout,5000.821,675042.3,675026.319,675048.554,680032.426,680033.2,2023-08-21T15:31:33Z,680049.375,NULL,Schönheit,kirembo,d,NA,NA,NA,NA,sd,0,4,NA,NA,NA,NA,NA,NA,NA,NA,NA,NA,NA,NA,NA,NA,NA,NA,NA,NA,NA
13eb4,deep,flow.Sequence,3_0_4_0_6_0,NA,NA,completion,12934.328,667083.3,667081.578,667098.098,680032.426,680033.5,2023-08-21T15:31:33Z,680049.375,NULL,Schönheit,kirembo,d,NA,NA,NA,NA,sd,NA,4,NA,NA,NA,NA,NA,NA,NA,NA,NA,NA,NA,NA,NA,NA,NA,NA,NA,NA,NA
13eb4,shallow,flow.Sequence,3_0_4_0_6_1,NA,NA,skipped,NA,680033.6,NA,NA,680032.426,680033.7,2023-08-21T15:31:33Z,680049.375,NULL,Schönheit,kirembo,d,NA,NA,NA,NA,sd,NA,4,NA,NA,NA,NA,NA,NA,NA,NA,NA,NA,NA,NA,NA,NA,NA,NA,NA,NA,NA
13eb4,task,flow.Sequence,3_0_4_0_6,NA,NA,completion,12934.328,667083.3,667081.578,667098.098,680032.426,680033.8,2023-08-21T15:31:33Z,680049.375,NULL,Schönheit,kirembo,d,NA,NA,NA,NA,sd,NA,4,NA,NA,NA,NA,NA,NA,NA,NA,NA,NA,NA,NA,NA,NA,NA,NA,NA,NA,NA
13eb4,deep,flow.Sequence,3_0_4_0_7_0,NA,NA,skipped,NA,680033.9,NA,NA,680032.426,680033.9,2023-08-21T15:31:33Z,680049.375,NULL,Auftrag,uagizaji,s,ghanima,kuzingatia,msukani,NA,sd,NA,4,NA,NA,NA,NA,NA,NA,NA,NA,NA,NA,NA,NA,NA,NA,NA,NA,NA,NA,NA
13eb4,Shallow Question,html.Page,3_0_4_0_7_1_0,NA,NA,form submission,9693.7249999999,680034.1,680032.426,680049.375,689743.1,689743.4,2023-08-21T15:31:43Z,689749.568,NULL,Auftrag,uagizaji,s,ghanima,kuzingatia,msukani,msukani,NA,NA,4,NA,NA,NA,NA,NA,NA,NA,NA,NA,NA,NA,NA,NA,NA,NA,NA,NA,NA,NA
13eb4,"""Richtig""-Screen",canvas.Screen,3_0_4_0_7_1_1,NA,NA,skipped,NA,689747.3,NA,NA,689743.1,689747.5,2023-08-21T15:31:43Z,689749.568,NULL,Auftrag,uagizaji,s,ghanima,kuzingatia,msukani,NA,sd,NA,4,NA,NA,NA,NA,NA,NA,NA,NA,NA,NA,NA,NA,NA,NA,NA,NA,NA,NA,NA
13eb4,"""Falsch""-Screen",canvas.Screen,3_0_4_0_7_1_2,NA,NA,timeout,5007.5060000001,689748.2,689734.316,689749.568,694740.433,694741.3,2023-08-21T15:31:47Z,694757.074,NULL,Auftrag,uagizaji,s,ghanima,kuzingatia,msukani,NA,sd,0,4,NA,NA,NA,NA,NA,NA,NA,NA,NA,NA,NA,NA,NA,NA,NA,NA,NA,NA,NA
13eb4,shallow,flow.Sequence,3_0_4_0_7_1,NA,NA,completion,14691.058,680034,680032.426,680049.375,694740.433,694741.6,2023-08-21T15:31:47Z,694757.074,NULL,Auftrag,uagizaji,s,ghanima,kuzingatia,msukani,NA,sd,NA,4,NA,NA,NA,NA,NA,NA,NA,NA,NA,NA,NA,NA,NA,NA,NA,NA,NA,NA,NA
13eb4,task,flow.Sequence,3_0_4_0_7,NA,NA,completion,14691.058,680033.9,680032.426,680049.375,694740.433,694741.7,2023-08-21T15:31:47Z,694757.074,NULL,Auftrag,uagizaji,s,ghanima,kuzingatia,msukani,NA,sd,NA,4,NA,NA,NA,NA,NA,NA,NA,NA,NA,NA,NA,NA,NA,NA,NA,NA,NA,NA,NA
13eb4,block,flow.Loop,3_0_4_0,NA,NA,completion,98317.612,596413,596399.517,596422.821,694740.433,694741.9,2023-08-21T15:31:47Z,694757.074,NULL,NA,NA,NA,NA,NA,NA,NA,sd,NA,4,NA,NA,NA,NA,NA,NA,NA,NA,NA,NA,NA,NA,NA,NA,NA,NA,NA,NA,NA
13eb4,weiter,canvas.Screen,3_0_4_1,sdf,keypress(Space),response,1142.4259999997,694742,694740.433,694757.074,695899.5,695901.9,2023-08-21T15:31:49Z,695942.625,NULL,NA,NA,NA,NA,NA,NA,NA,sd,NA,4,NA,NA,NA,NA,NA,NA,NA,NA,NA,NA,NA,NA,NA,NA,NA,NA,NA,NA,NA
13eb4,check continue,flow.Sequence,3_0_4,NA,NA,completion,99476.679,596412.9,596399.517,596422.821,695899.5,695902.3,2023-08-21T15:31:49Z,695942.625,NULL,NA,NA,NA,NA,NA,NA,NA,sd,NA,4,NA,NA,NA,NA,NA,NA,NA,NA,NA,NA,NA,NA,NA,NA,NA,NA,NA,NA,NA
13eb4,deep,flow.Sequence,3_0_5_0_0_0,NA,NA,skipped,NA,695950.4,NA,NA,695899.5,695950.6,2023-08-21T15:31:49Z,695942.625,NULL,Wettbewerb,ushindani,s,mapendezi,kichocheo,ubaguzi,NA,sdf,NA,5,NA,NA,NA,NA,NA,NA,NA,NA,NA,NA,NA,NA,NA,NA,NA,NA,NA,NA,NA
13eb4,Shallow Question,html.Page,3_0_5_0_0_1_0,NA,NA,form submission,10262.475,695950.8,695893.055,695942.625,706205.1,706205.5,2023-08-21T15:31:59Z,706211.502,NULL,Wettbewerb,ushindani,s,mapendezi,kichocheo,ubaguzi,ushindani,NA,NA,5,NA,NA,NA,NA,NA,NA,NA,NA,NA,NA,NA,NA,NA,NA,NA,NA,NA,NA,NA
13eb4,"""Richtig""-Screen",canvas.Screen,3_0_5_0_0_1_1,NA,NA,timeout,4999.672,706209.5,706186.449,706211.502,711194.526,711195.3,2023-08-21T15:32:04Z,711211.174,NULL,Wettbewerb,ushindani,s,mapendezi,kichocheo,ubaguzi,NA,sdf,1,5,NA,NA,NA,NA,NA,NA,NA,NA,NA,NA,NA,NA,NA,NA,NA,NA,NA,NA,NA
13eb4,"""Falsch""-Screen",canvas.Screen,3_0_5_0_0_1_2,NA,NA,skipped,NA,711196.6,NA,NA,711194.526,711196.9,2023-08-21T15:32:04Z,711211.174,NULL,Wettbewerb,ushindani,s,mapendezi,kichocheo,ubaguzi,NA,sdf,NA,5,NA,NA,NA,NA,NA,NA,NA,NA,NA,NA,NA,NA,NA,NA,NA,NA,NA,NA,NA
13eb4,shallow,flow.Sequence,3_0_5_0_0_1,NA,NA,completion,15251.901,695950.8,695893.055,695942.625,711194.526,711197.1,2023-08-21T15:32:04Z,711211.174,NULL,Wettbewerb,ushindani,s,mapendezi,kichocheo,ubaguzi,NA,sdf,NA,5,NA,NA,NA,NA,NA,NA,NA,NA,NA,NA,NA,NA,NA,NA,NA,NA,NA,NA,NA
13eb4,task,flow.Sequence,3_0_5_0_0,NA,NA,completion,15251.901,695950.4,695893.055,695942.625,711194.526,711197.3,2023-08-21T15:32:04Z,711211.174,NULL,Wettbewerb,ushindani,s,mapendezi,kichocheo,ubaguzi,NA,sdf,NA,5,NA,NA,NA,NA,NA,NA,NA,NA,NA,NA,NA,NA,NA,NA,NA,NA,NA,NA,NA
13eb4,Deep Question,html.Page,3_0_5_0_1_0_0,NA,NA,form submission,7284.626,711197.4,711194.526,711211.174,718495.8,718495.9,2023-08-21T15:32:11Z,718504.637,NULL,Schönheit,kirembo,d,NA,NA,NA,kikuti,NA,NA,5,NA,NA,NA,NA,NA,NA,NA,NA,NA,NA,NA,NA,NA,NA,NA,NA,NA,NA,NA
13eb4,"""Richtig""-Screen",canvas.Screen,3_0_5_0_1_0_1,NA,NA,skipped,NA,718497.4,NA,NA,718495.8,718497.5,2023-08-21T15:32:11Z,718504.637,NULL,Schönheit,kirembo,d,NA,NA,NA,NA,sdf,NA,5,NA,NA,NA,NA,NA,NA,NA,NA,NA,NA,NA,NA,NA,NA,NA,NA,NA,NA,NA
13eb4,"""Falsch""-Screen",canvas.Screen,3_0_5_0_1_0_2,NA,NA,timeout,5001.223,718497.9,718488.548,718504.637,723489.18,723489.8,2023-08-21T15:32:16Z,723505.86,NULL,Schönheit,kirembo,d,NA,NA,NA,NA,sdf,0,5,NA,NA,NA,NA,NA,NA,NA,NA,NA,NA,NA,NA,NA,NA,NA,NA,NA,NA,NA
13eb4,deep,flow.Sequence,3_0_5_0_1_0,NA,NA,completion,12278.006,711197.3,711194.526,711211.174,723489.18,723490.1,2023-08-21T15:32:16Z,723505.86,NULL,Schönheit,kirembo,d,NA,NA,NA,NA,sdf,NA,5,NA,NA,NA,NA,NA,NA,NA,NA,NA,NA,NA,NA,NA,NA,NA,NA,NA,NA,NA
13eb4,shallow,flow.Sequence,3_0_5_0_1_1,NA,NA,skipped,NA,723490.1,NA,NA,723489.18,723490.2,2023-08-21T15:32:16Z,723505.86,NULL,Schönheit,kirembo,d,NA,NA,NA,NA,sdf,NA,5,NA,NA,NA,NA,NA,NA,NA,NA,NA,NA,NA,NA,NA,NA,NA,NA,NA,NA,NA
13eb4,task,flow.Sequence,3_0_5_0_1,NA,NA,completion,12278.006,711197.3,711194.526,711211.174,723489.18,723490.4,2023-08-21T15:32:16Z,723505.86,NULL,Schönheit,kirembo,d,NA,NA,NA,NA,sdf,NA,5,NA,NA,NA,NA,NA,NA,NA,NA,NA,NA,NA,NA,NA,NA,NA,NA,NA,NA,NA
13eb4,deep,flow.Sequence,3_0_5_0_2_0,NA,NA,skipped,NA,723490.6,NA,NA,723489.18,723490.6,2023-08-21T15:32:16Z,723505.86,NULL,Sänger,mwimbaji,s,msichana,shughuli,mshirika,NA,sdf,NA,5,NA,NA,NA,NA,NA,NA,NA,NA,NA,NA,NA,NA,NA,NA,NA,NA,NA,NA,NA
13eb4,Shallow Question,html.Page,3_0_5_0_2_1_0,NA,NA,form submission,7770.0400000002,723490.7,723489.18,723505.86,731275.9,731276.3,2023-08-21T15:32:24Z,731282.621,NULL,Sänger,mwimbaji,s,msichana,shughuli,mshirika,mwimbaji,NA,NA,5,NA,NA,NA,NA,NA,NA,NA,NA,NA,NA,NA,NA,NA,NA,NA,NA,NA,NA,NA
13eb4,"""Richtig""-Screen",canvas.Screen,3_0_5_0_2_1_1,NA,NA,timeout,4996.495,731280.1,731258.125,731282.621,736262.27,736263.9,2023-08-21T15:32:29Z,736279.116,NULL,Sänger,mwimbaji,s,msichana,shughuli,mshirika,NA,sdf,1,5,NA,NA,NA,NA,NA,NA,NA,NA,NA,NA,NA,NA,NA,NA,NA,NA,NA,NA,NA
13eb4,"""Falsch""-Screen",canvas.Screen,3_0_5_0_2_1_2,NA,NA,skipped,NA,736265.1,NA,NA,736262.27,736265.4,2023-08-21T15:32:29Z,736279.116,NULL,Sänger,mwimbaji,s,msichana,shughuli,mshirika,NA,sdf,NA,5,NA,NA,NA,NA,NA,NA,NA,NA,NA,NA,NA,NA,NA,NA,NA,NA,NA,NA,NA
13eb4,shallow,flow.Sequence,3_0_5_0_2_1,NA,NA,completion,12756.41,723490.7,723489.18,723505.86,736262.27,736265.7,2023-08-21T15:32:29Z,736279.116,NULL,Sänger,mwimbaji,s,msichana,shughuli,mshirika,NA,sdf,NA,5,NA,NA,NA,NA,NA,NA,NA,NA,NA,NA,NA,NA,NA,NA,NA,NA,NA,NA,NA
13eb4,task,flow.Sequence,3_0_5_0_2,NA,NA,completion,12756.41,723490.5,723489.18,723505.86,736262.27,736265.8,2023-08-21T15:32:29Z,736279.116,NULL,Sänger,mwimbaji,s,msichana,shughuli,mshirika,NA,sdf,NA,5,NA,NA,NA,NA,NA,NA,NA,NA,NA,NA,NA,NA,NA,NA,NA,NA,NA,NA,NA
13eb4,deep,flow.Sequence,3_0_5_0_3_0,NA,NA,skipped,NA,736265.9,NA,NA,736262.27,736265.9,2023-08-21T15:32:29Z,736279.116,NULL,Auftrag,uagizaji,s,ghanima,kuzingatia,msukani,NA,sdf,NA,5,NA,NA,NA,NA,NA,NA,NA,NA,NA,NA,NA,NA,NA,NA,NA,NA,NA,NA,NA
13eb4,Shallow Question,html.Page,3_0_5_0_3_1_0,NA,NA,form submission,5510.8839999997,736266,736262.27,736279.116,741790,741790.3,2023-08-21T15:32:35Z,741796.26,NULL,Auftrag,uagizaji,s,ghanima,kuzingatia,msukani,uagizaji,NA,NA,5,NA,NA,NA,NA,NA,NA,NA,NA,NA,NA,NA,NA,NA,NA,NA,NA,NA,NA,NA
13eb4,"""Richtig""-Screen",canvas.Screen,3_0_5_0_3_1_1,NA,NA,timeout,5006.125,741791.4,741780.837,741796.26,746785.767,746786.6,2023-08-21T15:32:40Z,746802.385,NULL,Auftrag,uagizaji,s,ghanima,kuzingatia,msukani,NA,sdf,1,5,NA,NA,NA,NA,NA,NA,NA,NA,NA,NA,NA,NA,NA,NA,NA,NA,NA,NA,NA
13eb4,"""Falsch""-Screen",canvas.Screen,3_0_5_0_3_1_2,NA,NA,skipped,NA,746788.3,NA,NA,746785.767,746788.6,2023-08-21T15:32:40Z,746802.385,NULL,Auftrag,uagizaji,s,ghanima,kuzingatia,msukani,NA,sdf,NA,5,NA,NA,NA,NA,NA,NA,NA,NA,NA,NA,NA,NA,NA,NA,NA,NA,NA,NA,NA
13eb4,shallow,flow.Sequence,3_0_5_0_3_1,NA,NA,completion,10506.651,736266,736262.27,736279.116,746785.767,746788.9,2023-08-21T15:32:40Z,746802.385,NULL,Auftrag,uagizaji,s,ghanima,kuzingatia,msukani,NA,sdf,NA,5,NA,NA,NA,NA,NA,NA,NA,NA,NA,NA,NA,NA,NA,NA,NA,NA,NA,NA,NA
13eb4,task,flow.Sequence,3_0_5_0_3,NA,NA,completion,10506.651,736265.8,736262.27,736279.116,746785.767,746789.1,2023-08-21T15:32:40Z,746802.385,NULL,Auftrag,uagizaji,s,ghanima,kuzingatia,msukani,NA,sdf,NA,5,NA,NA,NA,NA,NA,NA,NA,NA,NA,NA,NA,NA,NA,NA,NA,NA,NA,NA,NA
13eb4,Deep Question,html.Page,3_0_5_0_4_0_0,NA,NA,form submission,5683.915,746789.1,746785.767,746802.385,752486.3,752486.4,2023-08-21T15:32:45Z,752495.293,NULL,Abrechnung,uhasibu,d,NA,NA,NA,kikuti,NA,NA,5,NA,NA,NA,NA,NA,NA,NA,NA,NA,NA,NA,NA,NA,NA,NA,NA,NA,NA,NA
13eb4,"""Richtig""-Screen",canvas.Screen,3_0_5_0_4_0_1,NA,NA,skipped,NA,752488,NA,NA,752486.3,752488.1,2023-08-21T15:32:45Z,752495.293,NULL,Abrechnung,uhasibu,d,NA,NA,NA,NA,sdf,NA,5,NA,NA,NA,NA,NA,NA,NA,NA,NA,NA,NA,NA,NA,NA,NA,NA,NA,NA,NA
13eb4,"""Falsch""-Screen",canvas.Screen,3_0_5_0_4_0_2,NA,NA,timeout,5000.439,752488.5,752472.737,752495.293,757479.422,757480.2,2023-08-21T15:32:50Z,757495.732,NULL,Abrechnung,uhasibu,d,NA,NA,NA,NA,sdf,0,5,NA,NA,NA,NA,NA,NA,NA,NA,NA,NA,NA,NA,NA,NA,NA,NA,NA,NA,NA
13eb4,deep,flow.Sequence,3_0_5_0_4_0,NA,NA,completion,10677.037,746789.1,746785.767,746802.385,757479.422,757480.6,2023-08-21T15:32:50Z,757495.732,NULL,Abrechnung,uhasibu,d,NA,NA,NA,NA,sdf,NA,5,NA,NA,NA,NA,NA,NA,NA,NA,NA,NA,NA,NA,NA,NA,NA,NA,NA,NA,NA
13eb4,shallow,flow.Sequence,3_0_5_0_4_1,NA,NA,skipped,NA,757480.7,NA,NA,757479.422,757480.8,2023-08-21T15:32:50Z,757495.732,NULL,Abrechnung,uhasibu,d,NA,NA,NA,NA,sdf,NA,5,NA,NA,NA,NA,NA,NA,NA,NA,NA,NA,NA,NA,NA,NA,NA,NA,NA,NA,NA
13eb4,task,flow.Sequence,3_0_5_0_4,NA,NA,completion,10677.037,746789.1,746785.767,746802.385,757479.422,757480.9,2023-08-21T15:32:50Z,757495.732,NULL,Abrechnung,uhasibu,d,NA,NA,NA,NA,sdf,NA,5,NA,NA,NA,NA,NA,NA,NA,NA,NA,NA,NA,NA,NA,NA,NA,NA,NA,NA,NA
13eb4,Deep Question,html.Page,3_0_5_0_5_0_0,NA,NA,form submission,4261.968,757481.1,757479.422,757495.732,761757.7,761757.9,2023-08-21T15:32:55Z,761766.358,NULL,Zufall,kikuti,d,NA,NA,NA,kikuti,NA,NA,5,NA,NA,NA,NA,NA,NA,NA,NA,NA,NA,NA,NA,NA,NA,NA,NA,NA,NA,NA
13eb4,"""Richtig""-Screen",canvas.Screen,3_0_5_0_5_0_1,NA,NA,timeout,5000.2879999999,761758.4,761750.85,761766.358,766750.104,766751.8,2023-08-21T15:33:00Z,766766.646,NULL,Zufall,kikuti,d,NA,NA,NA,NA,sdf,1,5,NA,NA,NA,NA,NA,NA,NA,NA,NA,NA,NA,NA,NA,NA,NA,NA,NA,NA,NA
13eb4,"""Falsch""-Screen",canvas.Screen,3_0_5_0_5_0_2,NA,NA,skipped,NA,766753.6,NA,NA,766750.104,766753.8,2023-08-21T15:33:00Z,766766.646,NULL,Zufall,kikuti,d,NA,NA,NA,NA,sdf,NA,5,NA,NA,NA,NA,NA,NA,NA,NA,NA,NA,NA,NA,NA,NA,NA,NA,NA,NA,NA
13eb4,deep,flow.Sequence,3_0_5_0_5_0,NA,NA,completion,9254.3720000001,757481,757479.422,757495.732,766750.104,766754.1,2023-08-21T15:33:00Z,766766.646,NULL,Zufall,kikuti,d,NA,NA,NA,NA,sdf,NA,5,NA,NA,NA,NA,NA,NA,NA,NA,NA,NA,NA,NA,NA,NA,NA,NA,NA,NA,NA
13eb4,shallow,flow.Sequence,3_0_5_0_5_1,NA,NA,skipped,NA,766754.2,NA,NA,766750.104,766754.3,2023-08-21T15:33:00Z,766766.646,NULL,Zufall,kikuti,d,NA,NA,NA,NA,sdf,NA,5,NA,NA,NA,NA,NA,NA,NA,NA,NA,NA,NA,NA,NA,NA,NA,NA,NA,NA,NA
13eb4,task,flow.Sequence,3_0_5_0_5,NA,NA,completion,9254.3720000001,757481,757479.422,757495.732,766750.104,766754.4,2023-08-21T15:33:00Z,766766.646,NULL,Zufall,kikuti,d,NA,NA,NA,NA,sdf,NA,5,NA,NA,NA,NA,NA,NA,NA,NA,NA,NA,NA,NA,NA,NA,NA,NA,NA,NA,NA
13eb4,deep,flow.Sequence,3_0_5_0_6_0,NA,NA,skipped,NA,766754.5,NA,NA,766750.104,766754.5,2023-08-21T15:33:00Z,766766.646,NULL,Angreifer,mshambulizi,s,kitengo,tasinia,usafirishaji,NA,sdf,NA,5,NA,NA,NA,NA,NA,NA,NA,NA,NA,NA,NA,NA,NA,NA,NA,NA,NA,NA,NA
13eb4,Shallow Question,html.Page,3_0_5_0_6_1_0,NA,NA,form submission,7191.3539999998,766754.6,766750.104,766766.646,773958,773958.4,2023-08-21T15:33:07Z,773981.028,NULL,Angreifer,mshambulizi,s,kitengo,tasinia,usafirishaji,mshambulizi,NA,NA,5,NA,NA,NA,NA,NA,NA,NA,NA,NA,NA,NA,NA,NA,NA,NA,NA,NA,NA,NA
13eb4,"""Richtig""-Screen",canvas.Screen,3_0_5_0_6_1_1,NA,NA,timeout,4994.6649999999,773962.1,773964.268,773981.028,778959.017,778959.7,2023-08-21T15:33:12Z,778975.693,NULL,Angreifer,mshambulizi,s,kitengo,tasinia,usafirishaji,NA,sdf,1,5,NA,NA,NA,NA,NA,NA,NA,NA,NA,NA,NA,NA,NA,NA,NA,NA,NA,NA,NA
13eb4,"""Falsch""-Screen",canvas.Screen,3_0_5_0_6_1_2,NA,NA,skipped,NA,778961.1,NA,NA,778959.017,778961.4,2023-08-21T15:33:12Z,778975.693,NULL,Angreifer,mshambulizi,s,kitengo,tasinia,usafirishaji,NA,sdf,NA,5,NA,NA,NA,NA,NA,NA,NA,NA,NA,NA,NA,NA,NA,NA,NA,NA,NA,NA,NA
13eb4,shallow,flow.Sequence,3_0_5_0_6_1,NA,NA,completion,12192.371,766754.6,766750.104,766766.646,778959.017,778961.6,2023-08-21T15:33:12Z,778975.693,NULL,Angreifer,mshambulizi,s,kitengo,tasinia,usafirishaji,NA,sdf,NA,5,NA,NA,NA,NA,NA,NA,NA,NA,NA,NA,NA,NA,NA,NA,NA,NA,NA,NA,NA
13eb4,task,flow.Sequence,3_0_5_0_6,NA,NA,completion,12192.371,766754.5,766750.104,766766.646,778959.017,778961.7,2023-08-21T15:33:12Z,778975.693,NULL,Angreifer,mshambulizi,s,kitengo,tasinia,usafirishaji,NA,sdf,NA,5,NA,NA,NA,NA,NA,NA,NA,NA,NA,NA,NA,NA,NA,NA,NA,NA,NA,NA,NA
13eb4,Deep Question,html.Page,3_0_5_0_7_0_0,NA,NA,form submission,3648.007,778961.9,778959.017,778975.693,782623.7,782623.9,2023-08-21T15:33:15Z,782629.158,NULL,Kanzler,diwani,d,NA,NA,NA,diwani,NA,NA,5,NA,NA,NA,NA,NA,NA,NA,NA,NA,NA,NA,NA,NA,NA,NA,NA,NA,NA,NA
13eb4,"""Richtig""-Screen",canvas.Screen,3_0_5_0_7_0_1,NA,NA,timeout,4999.269,782624.4,782612.326,782629.158,787611.946,787612.8,2023-08-21T15:33:20Z,787628.427,NULL,Kanzler,diwani,d,NA,NA,NA,NA,sdf,1,5,NA,NA,NA,NA,NA,NA,NA,NA,NA,NA,NA,NA,NA,NA,NA,NA,NA,NA,NA
13eb4,"""Falsch""-Screen",canvas.Screen,3_0_5_0_7_0_2,NA,NA,skipped,NA,787614.1,NA,NA,787611.946,787614.5,2023-08-21T15:33:20Z,787628.427,NULL,Kanzler,diwani,d,NA,NA,NA,NA,sdf,NA,5,NA,NA,NA,NA,NA,NA,NA,NA,NA,NA,NA,NA,NA,NA,NA,NA,NA,NA,NA
13eb4,deep,flow.Sequence,3_0_5_0_7_0,NA,NA,completion,8636.253,778961.9,778959.017,778975.693,787611.946,787614.7,2023-08-21T15:33:20Z,787628.427,NULL,Kanzler,diwani,d,NA,NA,NA,NA,sdf,NA,5,NA,NA,NA,NA,NA,NA,NA,NA,NA,NA,NA,NA,NA,NA,NA,NA,NA,NA,NA
13eb4,shallow,flow.Sequence,3_0_5_0_7_1,NA,NA,skipped,NA,787614.8,NA,NA,787611.946,787614.9,2023-08-21T15:33:20Z,787628.427,NULL,Kanzler,diwani,d,NA,NA,NA,NA,sdf,NA,5,NA,NA,NA,NA,NA,NA,NA,NA,NA,NA,NA,NA,NA,NA,NA,NA,NA,NA,NA
13eb4,task,flow.Sequence,3_0_5_0_7,NA,NA,completion,8636.253,778961.9,778959.017,778975.693,787611.946,787615,2023-08-21T15:33:20Z,787628.427,NULL,Kanzler,diwani,d,NA,NA,NA,NA,sdf,NA,5,NA,NA,NA,NA,NA,NA,NA,NA,NA,NA,NA,NA,NA,NA,NA,NA,NA,NA,NA
13eb4,block,flow.Loop,3_0_5_0,NA,NA,completion,91669.321,695950.3,695893.055,695942.625,787611.946,787615.1,2023-08-21T15:33:20Z,787628.427,NULL,NA,NA,NA,NA,NA,NA,NA,sdf,NA,5,NA,NA,NA,NA,NA,NA,NA,NA,NA,NA,NA,NA,NA,NA,NA,NA,NA,NA,NA
13eb4,weiter,canvas.Screen,3_0_5_1,sdf,keypress(Space),response,1157.373,787615.3,787611.946,787628.427,788785.8,788787.2,2023-08-21T15:33:22Z,789138.09,NULL,NA,NA,NA,NA,NA,NA,NA,sdf,NA,5,NA,NA,NA,NA,NA,NA,NA,NA,NA,NA,NA,NA,NA,NA,NA,NA,NA,NA,NA
13eb4,check continue,flow.Sequence,3_0_5,NA,NA,completion,92843.175,695950.2,695893.055,695942.625,788785.8,788787.5,2023-08-21T15:33:22Z,789138.09,NULL,NA,NA,NA,NA,NA,NA,NA,sdf,NA,5,NA,NA,NA,NA,NA,NA,NA,NA,NA,NA,NA,NA,NA,NA,NA,NA,NA,NA,NA
13eb4,check continue,flow.Sequence,3_0_6,NA,NA,skipped,NA,788807,NA,NA,788785.8,788807.3,2023-08-21T15:33:22Z,789138.09,NULL,NA,NA,NA,NA,NA,NA,NA,dfs,NA,6,NA,NA,NA,NA,NA,NA,NA,NA,NA,NA,NA,NA,NA,NA,NA,NA,NA,NA,NA
13eb4,check continue,flow.Sequence,3_0_7,NA,NA,skipped,NA,788839.1,NA,NA,788785.8,788839.3,2023-08-21T15:33:22Z,789138.09,NULL,NA,NA,NA,NA,NA,NA,NA,df,NA,7,NA,NA,NA,NA,NA,NA,NA,NA,NA,NA,NA,NA,NA,NA,NA,NA,NA,NA,NA
13eb4,check continue,flow.Sequence,3_0_8,NA,NA,skipped,NA,788857,NA,NA,788785.8,788857.1,2023-08-21T15:33:22Z,789138.09,NULL,NA,NA,NA,NA,NA,NA,NA,dfs,NA,8,NA,NA,NA,NA,NA,NA,NA,NA,NA,NA,NA,NA,NA,NA,NA,NA,NA,NA,NA
13eb4,check continue,flow.Sequence,3_0_9,NA,NA,skipped,NA,788871.4,NA,NA,788785.8,788871.5,2023-08-21T15:33:22Z,789138.09,NULL,NA,NA,NA,NA,NA,NA,NA,dsf,NA,9,NA,NA,NA,NA,NA,NA,NA,NA,NA,NA,NA,NA,NA,NA,NA,NA,NA,NA,NA
13eb4,check continue,flow.Sequence,3_0_10,NA,NA,skipped,NA,788890.5,NA,NA,788785.8,788890.6,2023-08-21T15:33:22Z,789138.09,NULL,NA,NA,NA,NA,NA,NA,NA,df,NA,10,NA,NA,NA,NA,NA,NA,NA,NA,NA,NA,NA,NA,NA,NA,NA,NA,NA,NA,NA
13eb4,check continue,flow.Sequence,3_0_11,NA,NA,skipped,NA,788908.7,NA,NA,788785.8,788908.8,2023-08-21T15:33:22Z,789138.09,NULL,NA,NA,NA,NA,NA,NA,NA,dfs,NA,11,NA,NA,NA,NA,NA,NA,NA,NA,NA,NA,NA,NA,NA,NA,NA,NA,NA,NA,NA
13eb4,check continue,flow.Sequence,3_0_12,NA,NA,skipped,NA,788920,NA,NA,788785.8,788920.1,2023-08-21T15:33:22Z,789138.09,NULL,NA,NA,NA,NA,NA,NA,NA,dsf,NA,12,NA,NA,NA,NA,NA,NA,NA,NA,NA,NA,NA,NA,NA,NA,NA,NA,NA,NA,NA
13eb4,check continue,flow.Sequence,3_0_13,NA,NA,skipped,NA,788932.3,NA,NA,788785.8,788932.4,2023-08-21T15:33:22Z,789138.09,NULL,NA,NA,NA,NA,NA,NA,NA,dsf,NA,13,NA,NA,NA,NA,NA,NA,NA,NA,NA,NA,NA,NA,NA,NA,NA,NA,NA,NA,NA
13eb4,check continue,flow.Sequence,3_0_14,NA,NA,skipped,NA,788943.4,NA,NA,788785.8,788943.6,2023-08-21T15:33:22Z,789138.09,NULL,NA,NA,NA,NA,NA,NA,NA,NA,NA,14,NA,NA,NA,NA,NA,NA,NA,NA,NA,NA,NA,NA,NA,NA,NA,NA,NA,NA,NA
13eb4,check continue,flow.Sequence,3_0_15,NA,NA,skipped,NA,788954.5,NA,NA,788785.8,788954.7,2023-08-21T15:33:22Z,789138.09,NULL,NA,NA,NA,NA,NA,NA,NA,NA,NA,15,NA,NA,NA,NA,NA,NA,NA,NA,NA,NA,NA,NA,NA,NA,NA,NA,NA,NA,NA
13eb4,check continue,flow.Sequence,3_0_16,NA,NA,skipped,NA,788965.4,NA,NA,788785.8,788965.5,2023-08-21T15:33:22Z,789138.09,NULL,NA,NA,NA,NA,NA,NA,NA,NA,NA,16,NA,NA,NA,NA,NA,NA,NA,NA,NA,NA,NA,NA,NA,NA,NA,NA,NA,NA,NA
13eb4,check continue,flow.Sequence,3_0_17,NA,NA,skipped,NA,788976.1,NA,NA,788785.8,788976.2,2023-08-21T15:33:22Z,789138.09,NULL,NA,NA,NA,NA,NA,NA,NA,NA,NA,17,NA,NA,NA,NA,NA,NA,NA,NA,NA,NA,NA,NA,NA,NA,NA,NA,NA,NA,NA
13eb4,check continue,flow.Sequence,3_0_18,NA,NA,skipped,NA,788986.6,NA,NA,788785.8,788986.7,2023-08-21T15:33:22Z,789138.09,NULL,NA,NA,NA,NA,NA,NA,NA,NA,NA,18,NA,NA,NA,NA,NA,NA,NA,NA,NA,NA,NA,NA,NA,NA,NA,NA,NA,NA,NA
13eb4,check continue,flow.Sequence,3_0_19,NA,NA,skipped,NA,788999,NA,NA,788785.8,788999.1,2023-08-21T15:33:22Z,789138.09,NULL,NA,NA,NA,NA,NA,NA,NA,NA,NA,19,NA,NA,NA,NA,NA,NA,NA,NA,NA,NA,NA,NA,NA,NA,NA,NA,NA,NA,NA
13eb4,check continue,flow.Sequence,3_0_20,NA,NA,skipped,NA,789010.3,NA,NA,788785.8,789010.4,2023-08-21T15:33:22Z,789138.09,NULL,NA,NA,NA,NA,NA,NA,NA,NA,NA,20,NA,NA,NA,NA,NA,NA,NA,NA,NA,NA,NA,NA,NA,NA,NA,NA,NA,NA,NA
13eb4,check continue,flow.Sequence,3_0_21,NA,NA,skipped,NA,789020.7,NA,NA,788785.8,789020.7,2023-08-21T15:33:22Z,789138.09,NULL,NA,NA,NA,NA,NA,NA,NA,NA,NA,21,NA,NA,NA,NA,NA,NA,NA,NA,NA,NA,NA,NA,NA,NA,NA,NA,NA,NA,NA
13eb4,check continue,flow.Sequence,3_0_22,NA,NA,skipped,NA,789032.4,NA,NA,788785.8,789032.6,2023-08-21T15:33:22Z,789138.09,NULL,NA,NA,NA,NA,NA,NA,NA,NA,NA,22,NA,NA,NA,NA,NA,NA,NA,NA,NA,NA,NA,NA,NA,NA,NA,NA,NA,NA,NA
13eb4,check continue,flow.Sequence,3_0_23,NA,NA,skipped,NA,789043.3,NA,NA,788785.8,789043.4,2023-08-21T15:33:22Z,789138.09,NULL,NA,NA,NA,NA,NA,NA,NA,NA,NA,23,NA,NA,NA,NA,NA,NA,NA,NA,NA,NA,NA,NA,NA,NA,NA,NA,NA,NA,NA
13eb4,check continue,flow.Sequence,3_0_24,NA,NA,skipped,NA,789055.1,NA,NA,788785.8,789055.1,2023-08-21T15:33:22Z,789138.09,NULL,NA,NA,NA,NA,NA,NA,NA,NA,NA,24,NA,NA,NA,NA,NA,NA,NA,NA,NA,NA,NA,NA,NA,NA,NA,NA,NA,NA,NA
13eb4,check continue,flow.Sequence,3_0_25,NA,NA,skipped,NA,789064.5,NA,NA,788785.8,789064.5,2023-08-21T15:33:22Z,789138.09,NULL,NA,NA,NA,NA,NA,NA,NA,NA,NA,25,NA,NA,NA,NA,NA,NA,NA,NA,NA,NA,NA,NA,NA,NA,NA,NA,NA,NA,NA
13eb4,check continue,flow.Sequence,3_0_26,NA,NA,skipped,NA,789076.3,NA,NA,788785.8,789076.5,2023-08-21T15:33:22Z,789138.09,NULL,NA,NA,NA,NA,NA,NA,NA,NA,NA,26,NA,NA,NA,NA,NA,NA,NA,NA,NA,NA,NA,NA,NA,NA,NA,NA,NA,NA,NA
13eb4,check continue,flow.Sequence,3_0_27,NA,NA,skipped,NA,789087.8,NA,NA,788785.8,789087.8,2023-08-21T15:33:22Z,789138.09,NULL,NA,NA,NA,NA,NA,NA,NA,NA,NA,27,NA,NA,NA,NA,NA,NA,NA,NA,NA,NA,NA,NA,NA,NA,NA,NA,NA,NA,NA
13eb4,check continue,flow.Sequence,3_0_28,NA,NA,skipped,NA,789109.2,NA,NA,788785.8,789109.3,2023-08-21T15:33:22Z,789138.09,NULL,NA,NA,NA,NA,NA,NA,NA,NA,NA,28,NA,NA,NA,NA,NA,NA,NA,NA,NA,NA,NA,NA,NA,NA,NA,NA,NA,NA,NA
13eb4,check continue,flow.Sequence,3_0_29,NA,NA,skipped,NA,789120.8,NA,NA,788785.8,789120.9,2023-08-21T15:33:22Z,789138.09,NULL,NA,NA,NA,NA,NA,NA,NA,NA,NA,29,NA,NA,NA,NA,NA,NA,NA,NA,NA,NA,NA,NA,NA,NA,NA,NA,NA,NA,NA
13eb4,until continue,flow.Loop,3_0,NA,NA,completion,633626.704,155144.2,155071.653,155159.096,788785.8,789121,2023-08-21T15:33:22Z,789138.09,NULL,NA,NA,NA,NA,NA,NA,NA,NA,NA,NA,NA,NA,NA,NA,NA,NA,NA,NA,NA,NA,NA,NA,NA,NA,NA,NA,NA,NA,NA
13eb4,block 1,flow.Sequence,3,NA,NA,completion,633626.704,155144.1,155071.653,155159.096,788785.8,789121.1,2023-08-21T15:33:22Z,789138.09,NULL,NA,NA,NA,NA,NA,NA,NA,NA,NA,NA,NA,NA,NA,NA,NA,NA,NA,NA,NA,NA,NA,NA,NA,NA,NA,NA,NA,NA,NA
13eb4,1.Part Over,canvas.Screen,4,NA,keypress(Space),response,3319.3100000002,789121.1,789118.689,789138.09,792457.4,792458.4,2023-08-21T15:33:25Z,792536.913,NULL,NA,NA,NA,NA,NA,NA,NA,NA,NA,NA,NA,NA,NA,NA,NA,NA,NA,NA,NA,NA,NA,NA,NA,NA,NA,NA,NA,NA,NA
13eb4,Deep Question,html.Page,5_0_0_0_0_0_0,NA,NA,form submission,2074.3870000001,792527.4,792523.346,792536.913,794611.3,794611.5,2023-08-21T15:33:27Z,794620.206,NULL,Widerstand,usulubu,d,NA,NA,NA,f,NA,NA,0,NA,NA,NA,NA,NA,NA,NA,NA,NA,NA,NA,NA,NA,NA,NA,NA,NA,NA,NA
13eb4,"""Richtig""-Screen",canvas.Screen,5_0_0_0_0_0_1,NA,NA,skipped,NA,794612.3,NA,NA,794611.3,794612.3,2023-08-21T15:33:27Z,794620.206,NULL,Widerstand,usulubu,d,NA,NA,NA,NA,sdf,NA,0,NA,NA,NA,NA,NA,NA,NA,NA,NA,NA,NA,NA,NA,NA,NA,NA,NA,NA,NA
13eb4,"""Falsch""-Screen",canvas.Screen,5_0_0_0_0_0_2,NA,NA,timeout,4999.355,794612.6,794604.136,794620.206,799602.913,799603.5,2023-08-21T15:33:32Z,799619.561,NULL,Widerstand,usulubu,d,NA,NA,NA,NA,sdf,0,0,NA,NA,NA,NA,NA,NA,NA,NA,NA,NA,NA,NA,NA,NA,NA,NA,NA,NA,NA
13eb4,deep,flow.Sequence,5_0_0_0_0_0,NA,NA,completion,7066,792527.4,792523.346,792536.913,799602.913,799603.7,2023-08-21T15:33:32Z,799619.561,NULL,Widerstand,usulubu,d,NA,NA,NA,NA,sdf,NA,0,NA,NA,NA,NA,NA,NA,NA,NA,NA,NA,NA,NA,NA,NA,NA,NA,NA,NA,NA
13eb4,shallow,flow.Sequence,5_0_0_0_0_1,NA,NA,skipped,NA,799603.7,NA,NA,799602.913,799603.7,2023-08-21T15:33:32Z,799619.561,NULL,Widerstand,usulubu,d,NA,NA,NA,NA,sdf,NA,0,NA,NA,NA,NA,NA,NA,NA,NA,NA,NA,NA,NA,NA,NA,NA,NA,NA,NA,NA
13eb4,task,flow.Sequence,5_0_0_0_0,NA,NA,completion,7066,792527.4,792523.346,792536.913,799602.913,799603.9,2023-08-21T15:33:32Z,799619.561,NULL,Widerstand,usulubu,d,NA,NA,NA,NA,sdf,NA,0,NA,NA,NA,NA,NA,NA,NA,NA,NA,NA,NA,NA,NA,NA,NA,NA,NA,NA,NA
13eb4,Deep Question,html.Page,5_0_0_0_1_0_0,NA,NA,form submission,11592.439,799603.9,799602.913,799619.561,811212,811212.2,2023-08-21T15:33:44Z,811220.616,NULL,Kontrolle,kudhibiti,d,NA,NA,NA,d,NA,NA,0,NA,NA,NA,NA,NA,NA,NA,NA,NA,NA,NA,NA,NA,NA,NA,NA,NA,NA,NA
13eb4,"""Richtig""-Screen",canvas.Screen,5_0_0_0_1_0_1,NA,NA,skipped,NA,811214.2,NA,NA,811212,811214.3,2023-08-21T15:33:44Z,811220.616,NULL,Kontrolle,kudhibiti,d,NA,NA,NA,NA,sdf,NA,0,NA,NA,NA,NA,NA,NA,NA,NA,NA,NA,NA,NA,NA,NA,NA,NA,NA,NA,NA
13eb4,"""Falsch""-Screen",canvas.Screen,5_0_0_0_1_0_2,NA,NA,timeout,4999.825,811214.8,811210.144,811220.616,816203.949,816204.9,2023-08-21T15:33:49Z,816220.441,NULL,Kontrolle,kudhibiti,d,NA,NA,NA,NA,sdf,0,0,NA,NA,NA,NA,NA,NA,NA,NA,NA,NA,NA,NA,NA,NA,NA,NA,NA,NA,NA
