observation,sender,sender_type,sender_id,response,response_action,ended_on,duration,time_run,time_render,time_show,time_end,time_commit,timestamp,time_switch,distractors,german,swahili,enc,distractor1,distractor2,distractor3,response_2,x,correct,x_2,url_vp,url_sess,meta_labjs_version,meta_location,meta_user_agent,meta_platform,meta_language,meta_locale,meta_time_zone,meta_timezone_offset,meta_screen_width,meta_screen_height,meta_scroll_width,meta_scroll_height,meta_window_inner_width,meta_window_inner_height,meta_device_pixel_ratio,meta_labjs_build_flavor,meta_labjs_build_commit
b6e99,Introduction general,canvas.Screen,0,weiter,keypress(q),response,19965.62,401,407.72,424.38,20390,20398,2023-09-07T14:45:44Z,20398.6,NULL,NA,NA,NA,NA,NA,NA,NA,NA,NA,NA,179,3,20.2.4,https://neurocog.fernuni.ch/studies/vweber/sliechti/encoding_immediate/index.html?vp=179&sess=3,Mozilla/5.0 (Windows NT 10.0; Win64; x64; rv:109.0) Gecko/20100101 Firefox/117.0,Win32,de,de-CH,Europe/Zurich,-120,1280,720,1280,587,1280,587,1.5,production,f5b4a49f956347addd546a832a3327688c2c0fef
b6e99,Introduction practice,canvas.Screen,1_0,NA,keypress(Space),response,8491.4,20399,20398.3,20398.6,28890,28893,2023-09-07T14:45:52Z,28893.62,NULL,NA,NA,NA,NA,NA,NA,NA,NA,NA,NA,NA,NA,NA,NA,NA,NA,NA,NA,NA,NA,NA,NA,NA,NA,NA,NA,NA,NA,NA
b6e99,Deep Question,html.Page,1_1_0_0_0,NA,NA,form submission,2969.38,28893,28893.32,28893.62,31863,31863,2023-09-07T14:45:55Z,31870.3,"c(""distractor1"", ""distractor2"", ""distractor3"")",Gesundheit,salama,d,NA,NA,NA,jsadkja,NA,NA,NA,NA,NA,NA,NA,NA,NA,NA,NA,NA,NA,NA,NA,NA,NA,NA,NA,NA,NA,NA
b6e99,"""Richtig""-Screen",canvas.Screen,1_1_0_0_1,NA,NA,skipped,NA,31868,NA,NA,31863,31868,2023-09-07T14:45:55Z,31870.3,"c(""distractor1"", ""distractor2"", ""distractor3"")",Gesundheit,salama,d,NA,NA,NA,NA,NA,NA,NA,NA,NA,NA,NA,NA,NA,NA,NA,NA,NA,NA,NA,NA,NA,NA,NA,NA,NA,NA
b6e99,"""Falsch""-Screen",canvas.Screen,1_1_0_0_2,NA,NA,timeout,4999.32,31871,31861.44,31870.3,36853,36853,2023-09-07T14:46:00Z,36869.62,"c(""distractor1"", ""distractor2"", ""distractor3"")",Gesundheit,salama,d,NA,NA,NA,NA,NA,0,NA,NA,NA,NA,NA,NA,NA,NA,NA,NA,NA,NA,NA,NA,NA,NA,NA,NA,NA,NA
b6e99,deep,flow.Sequence,1_1_0_0,NA,NA,completion,7959.38,28893,28893.32,28893.62,36853,36854,2023-09-07T14:46:00Z,36869.62,"c(""distractor1"", ""distractor2"", ""distractor3"")",Gesundheit,salama,d,NA,NA,NA,NA,NA,NA,NA,NA,NA,NA,NA,NA,NA,NA,NA,NA,NA,NA,NA,NA,NA,NA,NA,NA,NA,NA
b6e99,shallow,flow.Sequence,1_1_0_1,NA,NA,skipped,NA,36855,NA,NA,36853,36855,2023-09-07T14:46:00Z,36869.62,"c(""distractor1"", ""distractor2"", ""distractor3"")",Gesundheit,salama,d,NA,NA,NA,NA,NA,NA,NA,NA,NA,NA,NA,NA,NA,NA,NA,NA,NA,NA,NA,NA,NA,NA,NA,NA,NA,NA
b6e99,task,flow.Sequence,1_1_0,NA,NA,completion,7959.38,28893,28893.32,28893.62,36853,36855,2023-09-07T14:46:00Z,36869.62,"c(""distractor1"", ""distractor2"", ""distractor3"")",Gesundheit,salama,d,NA,NA,NA,NA,NA,NA,NA,NA,NA,NA,NA,NA,NA,NA,NA,NA,NA,NA,NA,NA,NA,NA,NA,NA,NA,NA
b6e99,Deep Question,html.Page,1_1_1_0_0,NA,NA,form submission,2456.38,36855,36853,36869.62,39326,39327,2023-09-07T14:46:03Z,39336.08,"c(""distractor1"", ""distractor2"", ""distractor3"")",Qualität,mtindo,d,NA,NA,NA,sadjhsgdj,NA,NA,NA,NA,NA,NA,NA,NA,NA,NA,NA,NA,NA,NA,NA,NA,NA,NA,NA,NA,NA,NA
b6e99,"""Richtig""-Screen",canvas.Screen,1_1_1_0_1,NA,NA,skipped,NA,39330,NA,NA,39326,39330,2023-09-07T14:46:03Z,39336.08,"c(""distractor1"", ""distractor2"", ""distractor3"")",Qualität,mtindo,d,NA,NA,NA,NA,NA,NA,NA,NA,NA,NA,NA,NA,NA,NA,NA,NA,NA,NA,NA,NA,NA,NA,NA,NA,NA,NA
b6e99,"""Falsch""-Screen",canvas.Screen,1_1_1_0_2,NA,NA,timeout,4999.28,39333,39325.3,39336.08,44318.8,44320,2023-09-07T14:46:08Z,44335.36,"c(""distractor1"", ""distractor2"", ""distractor3"")",Qualität,mtindo,d,NA,NA,NA,NA,NA,0,NA,NA,NA,NA,NA,NA,NA,NA,NA,NA,NA,NA,NA,NA,NA,NA,NA,NA,NA,NA
b6e99,deep,flow.Sequence,1_1_1_0,NA,NA,completion,7449.18,36855,36853,36869.62,44318.8,44322,2023-09-07T14:46:08Z,44335.36,"c(""distractor1"", ""distractor2"", ""distractor3"")",Qualität,mtindo,d,NA,NA,NA,NA,NA,NA,NA,NA,NA,NA,NA,NA,NA,NA,NA,NA,NA,NA,NA,NA,NA,NA,NA,NA,NA,NA
b6e99,shallow,flow.Sequence,1_1_1_1,NA,NA,skipped,NA,44322,NA,NA,44318.8,44322,2023-09-07T14:46:08Z,44335.36,"c(""distractor1"", ""distractor2"", ""distractor3"")",Qualität,mtindo,d,NA,NA,NA,NA,NA,NA,NA,NA,NA,NA,NA,NA,NA,NA,NA,NA,NA,NA,NA,NA,NA,NA,NA,NA,NA,NA
b6e99,task,flow.Sequence,1_1_1,NA,NA,completion,7449.18,36855,36853,36869.62,44318.8,44323,2023-09-07T14:46:08Z,44335.36,"c(""distractor1"", ""distractor2"", ""distractor3"")",Qualität,mtindo,d,NA,NA,NA,NA,NA,NA,NA,NA,NA,NA,NA,NA,NA,NA,NA,NA,NA,NA,NA,NA,NA,NA,NA,NA,NA,NA
b6e99,deep,flow.Sequence,1_1_2_0,NA,NA,skipped,NA,44323,NA,NA,44318.8,44324,2023-09-07T14:46:08Z,44335.36,"c(""distractor1"", ""distractor2"", ""distractor3"")",Rückhalt,msaada,s,muhula,auwali,kiwimbe,NA,NA,NA,NA,NA,NA,NA,NA,NA,NA,NA,NA,NA,NA,NA,NA,NA,NA,NA,NA,NA,NA,NA
b6e99,Shallow Question,html.Page,1_1_2_1_0,NA,NA,form submission,4005.64,44324,44318.8,44335.36,48341,48342,2023-09-07T14:46:12Z,48340.74,"c(""distractor1"", ""distractor2"", ""distractor3"")",Rückhalt,msaada,s,muhula,auwali,kiwimbe,auwali,NA,NA,NA,NA,NA,NA,NA,NA,NA,NA,NA,NA,NA,NA,NA,NA,NA,NA,NA,NA,NA,NA
b6e99,"""Richtig""-Screen",canvas.Screen,1_1_2_1_1,NA,NA,skipped,NA,48344,NA,NA,48341,48344,2023-09-07T14:46:12Z,48340.74,"c(""distractor1"", ""distractor2"", ""distractor3"")",Rückhalt,msaada,s,muhula,auwali,kiwimbe,NA,NA,NA,NA,NA,NA,NA,NA,NA,NA,NA,NA,NA,NA,NA,NA,NA,NA,NA,NA,NA,NA,NA
b6e99,"""Falsch""-Screen",canvas.Screen,1_1_2_1_2,NA,NA,timeout,4993.54,48348,48339.16,48340.74,53317.98,53319,2023-09-07T14:46:17Z,53334.28,"c(""distractor1"", ""distractor2"", ""distractor3"")",Rückhalt,msaada,s,muhula,auwali,kiwimbe,NA,NA,0,NA,NA,NA,NA,NA,NA,NA,NA,NA,NA,NA,NA,NA,NA,NA,NA,NA,NA,NA,NA
b6e99,shallow,flow.Sequence,1_1_2_1,NA,NA,completion,8982.62,44324,44318.8,44335.36,53317.98,53320,2023-09-07T14:46:17Z,53334.28,"c(""distractor1"", ""distractor2"", ""distractor3"")",Rückhalt,msaada,s,muhula,auwali,kiwimbe,NA,NA,NA,NA,NA,NA,NA,NA,NA,NA,NA,NA,NA,NA,NA,NA,NA,NA,NA,NA,NA,NA,NA
b6e99,task,flow.Sequence,1_1_2,NA,NA,completion,8982.62,44323,44318.8,44335.36,53317.98,53320,2023-09-07T14:46:17Z,53334.28,"c(""distractor1"", ""distractor2"", ""distractor3"")",Rückhalt,msaada,s,muhula,auwali,kiwimbe,NA,NA,NA,NA,NA,NA,NA,NA,NA,NA,NA,NA,NA,NA,NA,NA,NA,NA,NA,NA,NA,NA,NA
b6e99,Deep Question,html.Page,1_1_3_0_0,NA,NA,form submission,2286.72,53321,53317.98,53334.28,55621,55621,2023-09-07T14:46:19Z,55620.36,"c(""distractor1"", ""distractor2"", ""distractor3"")",Schatten,kivuli,d,NA,NA,NA,jhdfsk,NA,NA,NA,NA,NA,NA,NA,NA,NA,NA,NA,NA,NA,NA,NA,NA,NA,NA,NA,NA,NA,NA
b6e99,"""Richtig""-Screen",canvas.Screen,1_1_3_0_1,NA,NA,skipped,NA,55624,NA,NA,55621,55624,2023-09-07T14:46:19Z,55620.36,"c(""distractor1"", ""distractor2"", ""distractor3"")",Schatten,kivuli,d,NA,NA,NA,NA,NA,NA,NA,NA,NA,NA,NA,NA,NA,NA,NA,NA,NA,NA,NA,NA,NA,NA,NA,NA,NA,NA
b6e99,"""Falsch""-Screen",canvas.Screen,1_1_3_0_2,NA,NA,timeout,4996.28,55627,55620,55620.36,60599.96,60601,2023-09-07T14:46:24Z,60616.64,"c(""distractor1"", ""distractor2"", ""distractor3"")",Schatten,kivuli,d,NA,NA,NA,NA,NA,0,NA,NA,NA,NA,NA,NA,NA,NA,NA,NA,NA,NA,NA,NA,NA,NA,NA,NA,NA,NA
b6e99,deep,flow.Sequence,1_1_3_0,NA,NA,completion,7265.68,53321,53317.98,53334.28,60599.96,60602,2023-09-07T14:46:24Z,60616.64,"c(""distractor1"", ""distractor2"", ""distractor3"")",Schatten,kivuli,d,NA,NA,NA,NA,NA,NA,NA,NA,NA,NA,NA,NA,NA,NA,NA,NA,NA,NA,NA,NA,NA,NA,NA,NA,NA,NA
b6e99,shallow,flow.Sequence,1_1_3_1,NA,NA,skipped,NA,60602,NA,NA,60599.96,60602,2023-09-07T14:46:24Z,60616.64,"c(""distractor1"", ""distractor2"", ""distractor3"")",Schatten,kivuli,d,NA,NA,NA,NA,NA,NA,NA,NA,NA,NA,NA,NA,NA,NA,NA,NA,NA,NA,NA,NA,NA,NA,NA,NA,NA,NA
b6e99,task,flow.Sequence,1_1_3,NA,NA,completion,7265.68,53321,53317.98,53334.28,60599.96,60603,2023-09-07T14:46:24Z,60616.64,"c(""distractor1"", ""distractor2"", ""distractor3"")",Schatten,kivuli,d,NA,NA,NA,NA,NA,NA,NA,NA,NA,NA,NA,NA,NA,NA,NA,NA,NA,NA,NA,NA,NA,NA,NA,NA,NA,NA
b6e99,deep,flow.Sequence,1_1_4_0,NA,NA,skipped,NA,60603,NA,NA,60599.96,60603,2023-09-07T14:46:24Z,60616.64,"c(""distractor1"", ""distractor2"", ""distractor3"")",Kritik,lawama,s,dereva,nafasi,mawazo,NA,NA,NA,NA,NA,NA,NA,NA,NA,NA,NA,NA,NA,NA,NA,NA,NA,NA,NA,NA,NA,NA,NA
b6e99,Shallow Question,html.Page,1_1_4_1_0,NA,NA,form submission,6834.36,60604,60599.96,60616.64,67451,67451,2023-09-07T14:46:31Z,67450.1,"c(""distractor1"", ""distractor2"", ""distractor3"")",Kritik,lawama,s,dereva,nafasi,mawazo,lawama,NA,NA,NA,NA,NA,NA,NA,NA,NA,NA,NA,NA,NA,NA,NA,NA,NA,NA,NA,NA,NA,NA
b6e99,"""Richtig""-Screen",canvas.Screen,1_1_4_1_1,NA,NA,timeout,4998.26,67454,67449.78,67450.1,72431.78,72433,2023-09-07T14:46:36Z,72448.36,"c(""distractor1"", ""distractor2"", ""distractor3"")",Kritik,lawama,s,dereva,nafasi,mawazo,NA,NA,1,NA,NA,NA,NA,NA,NA,NA,NA,NA,NA,NA,NA,NA,NA,NA,NA,NA,NA,NA,NA
b6e99,"""Falsch""-Screen",canvas.Screen,1_1_4_1_2,NA,NA,skipped,NA,72443,NA,NA,72431.78,72443,2023-09-07T14:46:36Z,72448.36,"c(""distractor1"", ""distractor2"", ""distractor3"")",Kritik,lawama,s,dereva,nafasi,mawazo,NA,NA,NA,NA,NA,NA,NA,NA,NA,NA,NA,NA,NA,NA,NA,NA,NA,NA,NA,NA,NA,NA,NA
b6e99,shallow,flow.Sequence,1_1_4_1,NA,NA,completion,11815.14,60604,60599.96,60616.64,72431.78,72444,2023-09-07T14:46:36Z,72448.36,"c(""distractor1"", ""distractor2"", ""distractor3"")",Kritik,lawama,s,dereva,nafasi,mawazo,NA,NA,NA,NA,NA,NA,NA,NA,NA,NA,NA,NA,NA,NA,NA,NA,NA,NA,NA,NA,NA,NA,NA
b6e99,task,flow.Sequence,1_1_4,NA,NA,completion,11815.14,60603,60599.96,60616.64,72431.78,72444,2023-09-07T14:46:36Z,72448.36,"c(""distractor1"", ""distractor2"", ""distractor3"")",Kritik,lawama,s,dereva,nafasi,mawazo,NA,NA,NA,NA,NA,NA,NA,NA,NA,NA,NA,NA,NA,NA,NA,NA,NA,NA,NA,NA,NA,NA,NA
b6e99,deep,flow.Sequence,1_1_5_0,NA,NA,skipped,NA,72445,NA,NA,72431.78,72445,2023-09-07T14:46:36Z,72448.36,"c(""distractor1"", ""distractor2"", ""distractor3"")",Gegenwart,hadhara,s,katiba,jokofu,mikopo,NA,NA,NA,NA,NA,NA,NA,NA,NA,NA,NA,NA,NA,NA,NA,NA,NA,NA,NA,NA,NA,NA,NA
b6e99,Shallow Question,html.Page,1_1_5_1_0,NA,NA,form submission,2830.64,72445,72431.78,72448.36,75279,75280,2023-09-07T14:46:39Z,75281.36,"c(""distractor1"", ""distractor2"", ""distractor3"")",Gegenwart,hadhara,s,katiba,jokofu,mikopo,mikopo,NA,NA,NA,NA,NA,NA,NA,NA,NA,NA,NA,NA,NA,NA,NA,NA,NA,NA,NA,NA,NA,NA
b6e99,"""Richtig""-Screen",canvas.Screen,1_1_5_1_1,NA,NA,skipped,NA,75287,NA,NA,75279,75287,2023-09-07T14:46:39Z,75281.36,"c(""distractor1"", ""distractor2"", ""distractor3"")",Gegenwart,hadhara,s,katiba,jokofu,mikopo,NA,NA,NA,NA,NA,NA,NA,NA,NA,NA,NA,NA,NA,NA,NA,NA,NA,NA,NA,NA,NA,NA,NA
b6e99,"""Falsch""-Screen",canvas.Screen,1_1_5_1_2,NA,NA,timeout,4999.88,75291,75277.26,75281.36,80264.4,80265,2023-09-07T14:46:44Z,80281.24,"c(""distractor1"", ""distractor2"", ""distractor3"")",Gegenwart,hadhara,s,katiba,jokofu,mikopo,NA,NA,0,NA,NA,NA,NA,NA,NA,NA,NA,NA,NA,NA,NA,NA,NA,NA,NA,NA,NA,NA,NA
b6e99,shallow,flow.Sequence,1_1_5_1,NA,NA,completion,7816.04,72445,72431.78,72448.36,80264.4,80266,2023-09-07T14:46:44Z,80281.24,"c(""distractor1"", ""distractor2"", ""distractor3"")",Gegenwart,hadhara,s,katiba,jokofu,mikopo,NA,NA,NA,NA,NA,NA,NA,NA,NA,NA,NA,NA,NA,NA,NA,NA,NA,NA,NA,NA,NA,NA,NA
b6e99,task,flow.Sequence,1_1_5,NA,NA,completion,7816.04,72445,72431.78,72448.36,80264.4,80266,2023-09-07T14:46:44Z,80281.24,"c(""distractor1"", ""distractor2"", ""distractor3"")",Gegenwart,hadhara,s,katiba,jokofu,mikopo,NA,NA,NA,NA,NA,NA,NA,NA,NA,NA,NA,NA,NA,NA,NA,NA,NA,NA,NA,NA,NA,NA,NA
b6e99,block,flow.Loop,1_1,NA,NA,completion,51370.78,28893,28893.32,28893.62,80264.4,80267,2023-09-07T14:46:44Z,80281.24,"c(""distractor1"", ""distractor2"", ""distractor3"")",NA,NA,NA,NA,NA,NA,NA,NA,NA,NA,NA,NA,NA,NA,NA,NA,NA,NA,NA,NA,NA,NA,NA,NA,NA,NA,NA,NA,NA
b6e99,Practice,flow.Sequence,1,NA,NA,completion,59865.8,20398,20398.3,20398.6,80264.4,80267,2023-09-07T14:46:44Z,80281.24,NULL,NA,NA,NA,NA,NA,NA,NA,NA,NA,NA,NA,NA,NA,NA,NA,NA,NA,NA,NA,NA,NA,NA,NA,NA,NA,NA,NA,NA,NA
b6e99,Experiment start,canvas.Screen,2,weiter,keypress(q),response,7139.76,80267,80264.4,80281.24,87421,87432,2023-09-07T14:46:51Z,87524,NULL,NA,NA,NA,NA,NA,NA,NA,NA,NA,NA,NA,NA,NA,NA,NA,NA,NA,NA,NA,NA,NA,NA,NA,NA,NA,NA,NA,NA,NA
b6e99,deep,flow.Sequence,3_0_0_0_0_0,NA,NA,skipped,NA,87523,NA,NA,87421,87523,2023-09-07T14:46:51Z,87524,NULL,Schüler,mwanafunzi,s,mwekezaji,matumizi,uaminifu,NA,sdf,NA,0,NA,NA,NA,NA,NA,NA,NA,NA,NA,NA,NA,NA,NA,NA,NA,NA,NA,NA,NA
b6e99,Shallow Question,html.Page,3_0_0_0_0_1_0,NA,NA,form submission,6099,87523,87523.64,87524,93623,93624,2023-09-07T14:46:57Z,93628.88,NULL,Schüler,mwanafunzi,s,mwekezaji,matumizi,uaminifu,mwanafunzi,NA,NA,0,NA,NA,NA,NA,NA,NA,NA,NA,NA,NA,NA,NA,NA,NA,NA,NA,NA,NA,NA
b6e99,"""Richtig""-Screen",canvas.Screen,3_0_0_0_0_1_1,NA,NA,timeout,4999.46,93627,93617.98,93628.88,98612.08,98613,2023-09-07T14:47:02Z,98628.34,NULL,Schüler,mwanafunzi,s,mwekezaji,matumizi,uaminifu,NA,sdf,1,0,NA,NA,NA,NA,NA,NA,NA,NA,NA,NA,NA,NA,NA,NA,NA,NA,NA,NA,NA
b6e99,"""Falsch""-Screen",canvas.Screen,3_0_0_0_0_1_2,NA,NA,skipped,NA,98620,NA,NA,98612.08,98620,2023-09-07T14:47:02Z,98628.34,NULL,Schüler,mwanafunzi,s,mwekezaji,matumizi,uaminifu,NA,sdf,NA,0,NA,NA,NA,NA,NA,NA,NA,NA,NA,NA,NA,NA,NA,NA,NA,NA,NA,NA,NA
b6e99,shallow,flow.Sequence,3_0_0_0_0_1,NA,NA,completion,11088.08,87523,87523.64,87524,98612.08,98621,2023-09-07T14:47:02Z,98628.34,NULL,Schüler,mwanafunzi,s,mwekezaji,matumizi,uaminifu,NA,sdf,NA,0,NA,NA,NA,NA,NA,NA,NA,NA,NA,NA,NA,NA,NA,NA,NA,NA,NA,NA,NA
b6e99,task,flow.Sequence,3_0_0_0_0,NA,NA,completion,11088.08,87523,87523.64,87524,98612.08,98621,2023-09-07T14:47:02Z,98628.34,NULL,Schüler,mwanafunzi,s,mwekezaji,matumizi,uaminifu,NA,sdf,NA,0,NA,NA,NA,NA,NA,NA,NA,NA,NA,NA,NA,NA,NA,NA,NA,NA,NA,NA,NA
b6e99,Deep Question,html.Page,3_0_0_0_1_0_0,NA,NA,form submission,2550.66,98622,98612.08,98628.34,101179,101179,2023-09-07T14:47:05Z,101178.7,NULL,Symbol,kielezo,d,NA,NA,NA,hhgf,NA,NA,0,NA,NA,NA,NA,NA,NA,NA,NA,NA,NA,NA,NA,NA,NA,NA,NA,NA,NA,NA
b6e99,"""Richtig""-Screen",canvas.Screen,3_0_0_0_1_0_1,NA,NA,skipped,NA,101183,NA,NA,101179,101183,2023-09-07T14:47:05Z,101178.7,NULL,Symbol,kielezo,d,NA,NA,NA,NA,sdf,NA,0,NA,NA,NA,NA,NA,NA,NA,NA,NA,NA,NA,NA,NA,NA,NA,NA,NA,NA,NA
b6e99,"""Falsch""-Screen",canvas.Screen,3_0_0_0_1_0_2,NA,NA,timeout,4998.82,101185,101178.2,101178.7,106161.06,106162,2023-09-07T14:47:10Z,106177.52,NULL,Symbol,kielezo,d,NA,NA,NA,NA,sdf,0,0,NA,NA,NA,NA,NA,NA,NA,NA,NA,NA,NA,NA,NA,NA,NA,NA,NA,NA,NA
b6e99,deep,flow.Sequence,3_0_0_0_1_0,NA,NA,completion,7532.72,98622,98612.08,98628.34,106161.06,106163,2023-09-07T14:47:10Z,106177.52,NULL,Symbol,kielezo,d,NA,NA,NA,NA,sdf,NA,0,NA,NA,NA,NA,NA,NA,NA,NA,NA,NA,NA,NA,NA,NA,NA,NA,NA,NA,NA
b6e99,shallow,flow.Sequence,3_0_0_0_1_1,NA,NA,skipped,NA,106163,NA,NA,106161.06,106164,2023-09-07T14:47:10Z,106177.52,NULL,Symbol,kielezo,d,NA,NA,NA,NA,sdf,NA,0,NA,NA,NA,NA,NA,NA,NA,NA,NA,NA,NA,NA,NA,NA,NA,NA,NA,NA,NA
b6e99,task,flow.Sequence,3_0_0_0_1,NA,NA,completion,7532.72,98622,98612.08,98628.34,106161.06,106164,2023-09-07T14:47:10Z,106177.52,NULL,Symbol,kielezo,d,NA,NA,NA,NA,sdf,NA,0,NA,NA,NA,NA,NA,NA,NA,NA,NA,NA,NA,NA,NA,NA,NA,NA,NA,NA,NA
b6e99,Deep Question,html.Page,3_0_0_0_2_0_0,NA,NA,form submission,1939.48,106165,106161.06,106177.52,108117,108118,2023-09-07T14:47:12Z,108127,NULL,Zuwachs,nyongeza,d,NA,NA,NA,hgjg,NA,NA,0,NA,NA,NA,NA,NA,NA,NA,NA,NA,NA,NA,NA,NA,NA,NA,NA,NA,NA,NA
b6e99,"""Richtig""-Screen",canvas.Screen,3_0_0_0_2_0_1,NA,NA,skipped,NA,108120,NA,NA,108117,108120,2023-09-07T14:47:12Z,108127,NULL,Zuwachs,nyongeza,d,NA,NA,NA,NA,sdf,NA,0,NA,NA,NA,NA,NA,NA,NA,NA,NA,NA,NA,NA,NA,NA,NA,NA,NA,NA,NA
b6e99,"""Falsch""-Screen",canvas.Screen,3_0_0_0_2_0_2,NA,NA,timeout,4999.42,108123,108116.06,108127,113110.06,113111,2023-09-07T14:47:17Z,113126.42,NULL,Zuwachs,nyongeza,d,NA,NA,NA,NA,sdf,0,0,NA,NA,NA,NA,NA,NA,NA,NA,NA,NA,NA,NA,NA,NA,NA,NA,NA,NA,NA
b6e99,deep,flow.Sequence,3_0_0_0_2_0,NA,NA,completion,6932.54,106164,106161.06,106177.52,113110.06,113112,2023-09-07T14:47:17Z,113126.42,NULL,Zuwachs,nyongeza,d,NA,NA,NA,NA,sdf,NA,0,NA,NA,NA,NA,NA,NA,NA,NA,NA,NA,NA,NA,NA,NA,NA,NA,NA,NA,NA
b6e99,shallow,flow.Sequence,3_0_0_0_2_1,NA,NA,skipped,NA,113112,NA,NA,113110.06,113112,2023-09-07T14:47:17Z,113126.42,NULL,Zuwachs,nyongeza,d,NA,NA,NA,NA,sdf,NA,0,NA,NA,NA,NA,NA,NA,NA,NA,NA,NA,NA,NA,NA,NA,NA,NA,NA,NA,NA
b6e99,task,flow.Sequence,3_0_0_0_2,NA,NA,completion,6932.54,106164,106161.06,106177.52,113110.06,113112,2023-09-07T14:47:17Z,113126.42,NULL,Zuwachs,nyongeza,d,NA,NA,NA,NA,sdf,NA,0,NA,NA,NA,NA,NA,NA,NA,NA,NA,NA,NA,NA,NA,NA,NA,NA,NA,NA,NA
b6e99,Deep Question,html.Page,3_0_0_0_3_0_0,NA,NA,form submission,1871.58,113112,113110.06,113126.42,114998,114999,2023-09-07T14:47:19Z,115009.42,NULL,Fenster,dirisha,d,NA,NA,NA,jhgfhf,NA,NA,0,NA,NA,NA,NA,NA,NA,NA,NA,NA,NA,NA,NA,NA,NA,NA,NA,NA,NA,NA
b6e99,"""Richtig""-Screen",canvas.Screen,3_0_0_0_3_0_1,NA,NA,skipped,NA,115000,NA,NA,114998,115000,2023-09-07T14:47:19Z,115009.42,NULL,Fenster,dirisha,d,NA,NA,NA,NA,sdf,NA,0,NA,NA,NA,NA,NA,NA,NA,NA,NA,NA,NA,NA,NA,NA,NA,NA,NA,NA,NA
b6e99,"""Falsch""-Screen",canvas.Screen,3_0_0_0_3_0_2,NA,NA,timeout,4999.66,115003,114997.24,115009.42,119992.32,119994,2023-09-07T14:47:24Z,120009.08,NULL,Fenster,dirisha,d,NA,NA,NA,NA,sdf,0,0,NA,NA,NA,NA,NA,NA,NA,NA,NA,NA,NA,NA,NA,NA,NA,NA,NA,NA,NA
b6e99,deep,flow.Sequence,3_0_0_0_3_0,NA,NA,completion,6865.9,113112,113110.06,113126.42,119992.32,119994,2023-09-07T14:47:24Z,120009.08,NULL,Fenster,dirisha,d,NA,NA,NA,NA,sdf,NA,0,NA,NA,NA,NA,NA,NA,NA,NA,NA,NA,NA,NA,NA,NA,NA,NA,NA,NA,NA
b6e99,shallow,flow.Sequence,3_0_0_0_3_1,NA,NA,skipped,NA,119995,NA,NA,119992.32,119995,2023-09-07T14:47:24Z,120009.08,NULL,Fenster,dirisha,d,NA,NA,NA,NA,sdf,NA,0,NA,NA,NA,NA,NA,NA,NA,NA,NA,NA,NA,NA,NA,NA,NA,NA,NA,NA,NA
b6e99,task,flow.Sequence,3_0_0_0_3,NA,NA,completion,6865.9,113112,113110.06,113126.42,119992.32,119996,2023-09-07T14:47:24Z,120009.08,NULL,Fenster,dirisha,d,NA,NA,NA,NA,sdf,NA,0,NA,NA,NA,NA,NA,NA,NA,NA,NA,NA,NA,NA,NA,NA,NA,NA,NA,NA,NA
b6e99,deep,flow.Sequence,3_0_0_0_4_0,NA,NA,skipped,NA,119996,NA,NA,119992.32,119996,2023-09-07T14:47:24Z,120009.08,NULL,Konkurrent,mshindani,s,msemaji,mvutaji,kipukusa,NA,sdf,NA,0,NA,NA,NA,NA,NA,NA,NA,NA,NA,NA,NA,NA,NA,NA,NA,NA,NA,NA,NA
b6e99,Shallow Question,html.Page,3_0_0_0_4_1_0,NA,NA,form submission,2821.92,119997,119992.32,120009.08,122831,122832,2023-09-07T14:47:26Z,122830.04,NULL,Konkurrent,mshindani,s,msemaji,mvutaji,kipukusa,kipukusa,NA,NA,0,NA,NA,NA,NA,NA,NA,NA,NA,NA,NA,NA,NA,NA,NA,NA,NA,NA,NA,NA
b6e99,"""Richtig""-Screen",canvas.Screen,3_0_0_0_4_1_1,NA,NA,skipped,NA,122833,NA,NA,122831,122833,2023-09-07T14:47:26Z,122830.04,NULL,Konkurrent,mshindani,s,msemaji,mvutaji,kipukusa,NA,sdf,NA,0,NA,NA,NA,NA,NA,NA,NA,NA,NA,NA,NA,NA,NA,NA,NA,NA,NA,NA,NA
b6e99,"""Falsch""-Screen",canvas.Screen,3_0_0_0_4_1_2,NA,NA,timeout,4994.5,122836,122829.7,122830.04,127807.92,127810,2023-09-07T14:47:31Z,127824.54,NULL,Konkurrent,mshindani,s,msemaji,mvutaji,kipukusa,NA,sdf,0,0,NA,NA,NA,NA,NA,NA,NA,NA,NA,NA,NA,NA,NA,NA,NA,NA,NA,NA,NA
b6e99,shallow,flow.Sequence,3_0_0_0_4_1,NA,NA,completion,7798.84,119997,119992.32,120009.08,127807.92,127810,2023-09-07T14:47:31Z,127824.54,NULL,Konkurrent,mshindani,s,msemaji,mvutaji,kipukusa,NA,sdf,NA,0,NA,NA,NA,NA,NA,NA,NA,NA,NA,NA,NA,NA,NA,NA,NA,NA,NA,NA,NA
b6e99,task,flow.Sequence,3_0_0_0_4,NA,NA,completion,7798.84,119996,119992.32,120009.08,127807.92,127811,2023-09-07T14:47:31Z,127824.54,NULL,Konkurrent,mshindani,s,msemaji,mvutaji,kipukusa,NA,sdf,NA,0,NA,NA,NA,NA,NA,NA,NA,NA,NA,NA,NA,NA,NA,NA,NA,NA,NA,NA,NA
b6e99,deep,flow.Sequence,3_0_0_0_5_0,NA,NA,skipped,NA,127811,NA,NA,127807.92,127811,2023-09-07T14:47:31Z,127824.54,NULL,Vorsorge,tahadhari,s,ufafanuzi,makini,mashambani,NA,sdf,NA,0,NA,NA,NA,NA,NA,NA,NA,NA,NA,NA,NA,NA,NA,NA,NA,NA,NA,NA,NA
b6e99,Shallow Question,html.Page,3_0_0_0_5_1_0,NA,NA,form submission,4045.46,127812,127807.92,127824.54,131870,131870,2023-09-07T14:47:35Z,131874.02,NULL,Vorsorge,tahadhari,s,ufafanuzi,makini,mashambani,mashambani,NA,NA,0,NA,NA,NA,NA,NA,NA,NA,NA,NA,NA,NA,NA,NA,NA,NA,NA,NA,NA,NA
b6e99,"""Richtig""-Screen",canvas.Screen,3_0_0_0_5_1_1,NA,NA,skipped,NA,131872,NA,NA,131870,131872,2023-09-07T14:47:35Z,131874.02,NULL,Vorsorge,tahadhari,s,ufafanuzi,makini,mashambani,NA,sdf,NA,0,NA,NA,NA,NA,NA,NA,NA,NA,NA,NA,NA,NA,NA,NA,NA,NA,NA,NA,NA
b6e99,"""Falsch""-Screen",canvas.Screen,3_0_0_0_5_1_2,NA,NA,timeout,4999.24,131874,131868.54,131874.02,136856.72,136858,2023-09-07T14:47:40Z,136873.26,NULL,Vorsorge,tahadhari,s,ufafanuzi,makini,mashambani,NA,sdf,0,0,NA,NA,NA,NA,NA,NA,NA,NA,NA,NA,NA,NA,NA,NA,NA,NA,NA,NA,NA
b6e99,shallow,flow.Sequence,3_0_0_0_5_1,NA,NA,completion,9032.18,127811,127807.92,127824.54,136856.72,136858,2023-09-07T14:47:40Z,136873.26,NULL,Vorsorge,tahadhari,s,ufafanuzi,makini,mashambani,NA,sdf,NA,0,NA,NA,NA,NA,NA,NA,NA,NA,NA,NA,NA,NA,NA,NA,NA,NA,NA,NA,NA
b6e99,task,flow.Sequence,3_0_0_0_5,NA,NA,completion,9032.18,127811,127807.92,127824.54,136856.72,136858,2023-09-07T14:47:40Z,136873.26,NULL,Vorsorge,tahadhari,s,ufafanuzi,makini,mashambani,NA,sdf,NA,0,NA,NA,NA,NA,NA,NA,NA,NA,NA,NA,NA,NA,NA,NA,NA,NA,NA,NA,NA
b6e99,Deep Question,html.Page,3_0_0_0_6_0_0,NA,NA,form submission,2763.74,136859,136856.72,136873.26,139637,139637,2023-09-07T14:47:43Z,139639.6,NULL,Spionage,upelelezi,d,NA,NA,NA,hgjg,NA,NA,0,NA,NA,NA,NA,NA,NA,NA,NA,NA,NA,NA,NA,NA,NA,NA,NA,NA,NA,NA
b6e99,"""Richtig""-Screen",canvas.Screen,3_0_0_0_6_0_1,NA,NA,skipped,NA,139640,NA,NA,139637,139640,2023-09-07T14:47:43Z,139639.6,NULL,Spionage,upelelezi,d,NA,NA,NA,NA,sdf,NA,0,NA,NA,NA,NA,NA,NA,NA,NA,NA,NA,NA,NA,NA,NA,NA,NA,NA,NA,NA
b6e99,"""Falsch""-Screen",canvas.Screen,3_0_0_0_6_0_2,NA,NA,timeout,4999.34,139643,139635.82,139639.6,144622.68,144627,2023-09-07T14:47:48Z,144638.94,NULL,Spionage,upelelezi,d,NA,NA,NA,NA,sdf,0,0,NA,NA,NA,NA,NA,NA,NA,NA,NA,NA,NA,NA,NA,NA,NA,NA,NA,NA,NA
b6e99,deep,flow.Sequence,3_0_0_0_6_0,NA,NA,completion,7749.42,136859,136856.72,136873.26,144622.68,144629,2023-09-07T14:47:48Z,144638.94,NULL,Spionage,upelelezi,d,NA,NA,NA,NA,sdf,NA,0,NA,NA,NA,NA,NA,NA,NA,NA,NA,NA,NA,NA,NA,NA,NA,NA,NA,NA,NA
b6e99,shallow,flow.Sequence,3_0_0_0_6_1,NA,NA,skipped,NA,144631,NA,NA,144622.68,144631,2023-09-07T14:47:48Z,144638.94,NULL,Spionage,upelelezi,d,NA,NA,NA,NA,sdf,NA,0,NA,NA,NA,NA,NA,NA,NA,NA,NA,NA,NA,NA,NA,NA,NA,NA,NA,NA,NA
b6e99,task,flow.Sequence,3_0_0_0_6,NA,NA,completion,7749.42,136859,136856.72,136873.26,144622.68,144632,2023-09-07T14:47:48Z,144638.94,NULL,Spionage,upelelezi,d,NA,NA,NA,NA,sdf,NA,0,NA,NA,NA,NA,NA,NA,NA,NA,NA,NA,NA,NA,NA,NA,NA,NA,NA,NA,NA
b6e99,deep,flow.Sequence,3_0_0_0_7_0,NA,NA,skipped,NA,144632,NA,NA,144622.68,144633,2023-09-07T14:47:48Z,144638.94,NULL,Tester,wanaojaribu,s,sherti,sihiri,mlipuko,NA,sdf,NA,0,NA,NA,NA,NA,NA,NA,NA,NA,NA,NA,NA,NA,NA,NA,NA,NA,NA,NA,NA
b6e99,Shallow Question,html.Page,3_0_0_0_7_1_0,NA,NA,form submission,2562.06,144633,144622.68,144638.94,147201,147202,2023-09-07T14:47:51Z,147205.34,NULL,Tester,wanaojaribu,s,sherti,sihiri,mlipuko,sherti,NA,NA,0,NA,NA,NA,NA,NA,NA,NA,NA,NA,NA,NA,NA,NA,NA,NA,NA,NA,NA,NA
b6e99,"""Richtig""-Screen",canvas.Screen,3_0_0_0_7_1_1,NA,NA,skipped,NA,147208,NA,NA,147201,147209,2023-09-07T14:47:51Z,147205.34,NULL,Tester,wanaojaribu,s,sherti,sihiri,mlipuko,NA,sdf,NA,0,NA,NA,NA,NA,NA,NA,NA,NA,NA,NA,NA,NA,NA,NA,NA,NA,NA,NA,NA
b6e99,"""Falsch""-Screen",canvas.Screen,3_0_0_0_7_1_2,NA,NA,timeout,4999.42,147212,147199.72,147205.34,152188.1,152190,2023-09-07T14:47:56Z,152204.76,NULL,Tester,wanaojaribu,s,sherti,sihiri,mlipuko,NA,sdf,0,0,NA,NA,NA,NA,NA,NA,NA,NA,NA,NA,NA,NA,NA,NA,NA,NA,NA,NA,NA
b6e99,shallow,flow.Sequence,3_0_0_0_7_1,NA,NA,completion,7549.16,144633,144622.68,144638.94,152188.1,152191,2023-09-07T14:47:56Z,152204.76,NULL,Tester,wanaojaribu,s,sherti,sihiri,mlipuko,NA,sdf,NA,0,NA,NA,NA,NA,NA,NA,NA,NA,NA,NA,NA,NA,NA,NA,NA,NA,NA,NA,NA
b6e99,task,flow.Sequence,3_0_0_0_7,NA,NA,completion,7549.16,144632,144622.68,144638.94,152188.1,152193,2023-09-07T14:47:56Z,152204.76,NULL,Tester,wanaojaribu,s,sherti,sihiri,mlipuko,NA,sdf,NA,0,NA,NA,NA,NA,NA,NA,NA,NA,NA,NA,NA,NA,NA,NA,NA,NA,NA,NA,NA
b6e99,block,flow.Loop,3_0_0_0,NA,NA,completion,64664.1,87523,87523.64,87524,152188.1,152195,2023-09-07T14:47:56Z,152204.76,NULL,NA,NA,NA,NA,NA,NA,NA,sdf,NA,0,NA,NA,NA,NA,NA,NA,NA,NA,NA,NA,NA,NA,NA,NA,NA,NA,NA,NA,NA
b6e99,weiter,canvas.Screen,3_0_0_1,sdf,keypress(Space),response,904.23999999999,152196,152188.1,152204.76,153109,153119,2023-09-07T14:47:57Z,153174.12,NULL,NA,NA,NA,NA,NA,NA,NA,sdf,NA,0,NA,NA,NA,NA,NA,NA,NA,NA,NA,NA,NA,NA,NA,NA,NA,NA,NA,NA,NA
b6e99,check continue,flow.Sequence,3_0_0,NA,NA,completion,65585,87523,87523.64,87524,153109,153120,2023-09-07T14:47:57Z,153174.12,NULL,NA,NA,NA,NA,NA,NA,NA,sdf,NA,0,NA,NA,NA,NA,NA,NA,NA,NA,NA,NA,NA,NA,NA,NA,NA,NA,NA,NA,NA
b6e99,deep,flow.Sequence,3_0_1_0_0_0,NA,NA,skipped,NA,153173,NA,NA,153109,153173,2023-09-07T14:47:57Z,153174.12,NULL,Tester,wanaojaribu,s,sherti,sihiri,mlipuko,NA,sdfdsf,NA,1,NA,NA,NA,NA,NA,NA,NA,NA,NA,NA,NA,NA,NA,NA,NA,NA,NA,NA,NA
b6e99,Shallow Question,html.Page,3_0_1_0_0_1_0,NA,NA,form submission,10720.88,153173,153173.74,153174.12,163895,163895,2023-09-07T14:48:07Z,163893.98,NULL,Tester,wanaojaribu,s,sherti,sihiri,mlipuko,wanaojaribu,NA,NA,1,NA,NA,NA,NA,NA,NA,NA,NA,NA,NA,NA,NA,NA,NA,NA,NA,NA,NA,NA
b6e99,"""Richtig""-Screen",canvas.Screen,3_0_1_0_0_1_1,NA,NA,timeout,5008.52,163898,163893.6,163893.98,168885.88,168887,2023-09-07T14:48:12Z,168902.5,NULL,Tester,wanaojaribu,s,sherti,sihiri,mlipuko,NA,sdfdsf,1,1,NA,NA,NA,NA,NA,NA,NA,NA,NA,NA,NA,NA,NA,NA,NA,NA,NA,NA,NA
b6e99,"""Falsch""-Screen",canvas.Screen,3_0_1_0_0_1_2,NA,NA,skipped,NA,168892,NA,NA,168885.88,168892,2023-09-07T14:48:12Z,168902.5,NULL,Tester,wanaojaribu,s,sherti,sihiri,mlipuko,NA,sdfdsf,NA,1,NA,NA,NA,NA,NA,NA,NA,NA,NA,NA,NA,NA,NA,NA,NA,NA,NA,NA,NA
b6e99,shallow,flow.Sequence,3_0_1_0_0_1,NA,NA,completion,15711.76,153173,153173.74,153174.12,168885.88,168892,2023-09-07T14:48:12Z,168902.5,NULL,Tester,wanaojaribu,s,sherti,sihiri,mlipuko,NA,sdfdsf,NA,1,NA,NA,NA,NA,NA,NA,NA,NA,NA,NA,NA,NA,NA,NA,NA,NA,NA,NA,NA
b6e99,task,flow.Sequence,3_0_1_0_0,NA,NA,completion,15711.76,153173,153173.74,153174.12,168885.88,168892,2023-09-07T14:48:12Z,168902.5,NULL,Tester,wanaojaribu,s,sherti,sihiri,mlipuko,NA,sdfdsf,NA,1,NA,NA,NA,NA,NA,NA,NA,NA,NA,NA,NA,NA,NA,NA,NA,NA,NA,NA,NA
b6e99,Deep Question,html.Page,3_0_1_0_1_0_0,NA,NA,form submission,1966.5,168893,168885.88,168902.5,170869,170870,2023-09-07T14:48:14Z,170869.98,NULL,Fenster,dirisha,d,NA,NA,NA,hgjh,NA,NA,1,NA,NA,NA,NA,NA,NA,NA,NA,NA,NA,NA,NA,NA,NA,NA,NA,NA,NA,NA
b6e99,"""Richtig""-Screen",canvas.Screen,3_0_1_0_1_0_1,NA,NA,skipped,NA,170872,NA,NA,170869,170873,2023-09-07T14:48:14Z,170869.98,NULL,Fenster,dirisha,d,NA,NA,NA,NA,sdfdsf,NA,1,NA,NA,NA,NA,NA,NA,NA,NA,NA,NA,NA,NA,NA,NA,NA,NA,NA,NA,NA
b6e99,"""Falsch""-Screen",canvas.Screen,3_0_1_0_1_0_2,NA,NA,timeout,4998.94,170875,170868.26,170869.98,175851.94,175853,2023-09-07T14:48:19Z,175868.92,NULL,Fenster,dirisha,d,NA,NA,NA,NA,sdfdsf,0,1,NA,NA,NA,NA,NA,NA,NA,NA,NA,NA,NA,NA,NA,NA,NA,NA,NA,NA,NA
b6e99,deep,flow.Sequence,3_0_1_0_1_0,NA,NA,completion,6949.44,168893,168885.88,168902.5,175851.94,175854,2023-09-07T14:48:19Z,175868.92,NULL,Fenster,dirisha,d,NA,NA,NA,NA,sdfdsf,NA,1,NA,NA,NA,NA,NA,NA,NA,NA,NA,NA,NA,NA,NA,NA,NA,NA,NA,NA,NA
b6e99,shallow,flow.Sequence,3_0_1_0_1_1,NA,NA,skipped,NA,175854,NA,NA,175851.94,175855,2023-09-07T14:48:19Z,175868.92,NULL,Fenster,dirisha,d,NA,NA,NA,NA,sdfdsf,NA,1,NA,NA,NA,NA,NA,NA,NA,NA,NA,NA,NA,NA,NA,NA,NA,NA,NA,NA,NA
b6e99,task,flow.Sequence,3_0_1_0_1,NA,NA,completion,6949.44,168893,168885.88,168902.5,175851.94,175855,2023-09-07T14:48:19Z,175868.92,NULL,Fenster,dirisha,d,NA,NA,NA,NA,sdfdsf,NA,1,NA,NA,NA,NA,NA,NA,NA,NA,NA,NA,NA,NA,NA,NA,NA,NA,NA,NA,NA
b6e99,Deep Question,html.Page,3_0_1_0_2_0_0,NA,NA,form submission,6251.08,175856,175851.94,175868.92,182120,182121,2023-09-07T14:48:26Z,182119.78,NULL,Symbol,kielezo,d,NA,NA,NA,mshindadi,NA,NA,1,NA,NA,NA,NA,NA,NA,NA,NA,NA,NA,NA,NA,NA,NA,NA,NA,NA,NA,NA
b6e99,"""Richtig""-Screen",canvas.Screen,3_0_1_0_2_0_1,NA,NA,skipped,NA,182123,NA,NA,182120,182123,2023-09-07T14:48:26Z,182119.78,NULL,Symbol,kielezo,d,NA,NA,NA,NA,sdfdsf,NA,1,NA,NA,NA,NA,NA,NA,NA,NA,NA,NA,NA,NA,NA,NA,NA,NA,NA,NA,NA
b6e99,"""Falsch""-Screen",canvas.Screen,3_0_1_0_2_0_2,NA,NA,timeout,4996.96,182126,182119.42,182119.78,187100.14,187101,2023-09-07T14:48:31Z,187116.74,NULL,Symbol,kielezo,d,NA,NA,NA,NA,sdfdsf,0,1,NA,NA,NA,NA,NA,NA,NA,NA,NA,NA,NA,NA,NA,NA,NA,NA,NA,NA,NA
b6e99,deep,flow.Sequence,3_0_1_0_2_0,NA,NA,completion,11231.22,175855,175851.94,175868.92,187100.14,187101,2023-09-07T14:48:31Z,187116.74,NULL,Symbol,kielezo,d,NA,NA,NA,NA,sdfdsf,NA,1,NA,NA,NA,NA,NA,NA,NA,NA,NA,NA,NA,NA,NA,NA,NA,NA,NA,NA,NA
b6e99,shallow,flow.Sequence,3_0_1_0_2_1,NA,NA,skipped,NA,187101,NA,NA,187100.14,187101,2023-09-07T14:48:31Z,187116.74,NULL,Symbol,kielezo,d,NA,NA,NA,NA,sdfdsf,NA,1,NA,NA,NA,NA,NA,NA,NA,NA,NA,NA,NA,NA,NA,NA,NA,NA,NA,NA,NA
b6e99,task,flow.Sequence,3_0_1_0_2,NA,NA,completion,11231.22,175855,175851.94,175868.92,187100.14,187102,2023-09-07T14:48:31Z,187116.74,NULL,Symbol,kielezo,d,NA,NA,NA,NA,sdfdsf,NA,1,NA,NA,NA,NA,NA,NA,NA,NA,NA,NA,NA,NA,NA,NA,NA,NA,NA,NA,NA
b6e99,deep,flow.Sequence,3_0_1_0_3_0,NA,NA,skipped,NA,187102,NA,NA,187100.14,187102,2023-09-07T14:48:31Z,187116.74,NULL,Schüler,mwanafunzi,s,mwekezaji,matumizi,uaminifu,NA,sdfdsf,NA,1,NA,NA,NA,NA,NA,NA,NA,NA,NA,NA,NA,NA,NA,NA,NA,NA,NA,NA,NA
b6e99,Shallow Question,html.Page,3_0_1_0_3_1_0,NA,NA,form submission,3541.26,187102,187100.14,187116.74,190658,190659,2023-09-07T14:48:34Z,190657.46,NULL,Schüler,mwanafunzi,s,mwekezaji,matumizi,uaminifu,matumizi,NA,NA,1,NA,NA,NA,NA,NA,NA,NA,NA,NA,NA,NA,NA,NA,NA,NA,NA,NA,NA,NA
b6e99,"""Richtig""-Screen",canvas.Screen,3_0_1_0_3_1_1,NA,NA,skipped,NA,190661,NA,NA,190658,190661,2023-09-07T14:48:34Z,190657.46,NULL,Schüler,mwanafunzi,s,mwekezaji,matumizi,uaminifu,NA,sdfdsf,NA,1,NA,NA,NA,NA,NA,NA,NA,NA,NA,NA,NA,NA,NA,NA,NA,NA,NA,NA,NA
b6e99,"""Falsch""-Screen",canvas.Screen,3_0_1_0_3_1_2,NA,NA,timeout,4991.54,190662,190657.12,190657.46,195632.8,195634,2023-09-07T14:48:39Z,195649,NULL,Schüler,mwanafunzi,s,mwekezaji,matumizi,uaminifu,NA,sdfdsf,0,1,NA,NA,NA,NA,NA,NA,NA,NA,NA,NA,NA,NA,NA,NA,NA,NA,NA,NA,NA
b6e99,shallow,flow.Sequence,3_0_1_0_3_1,NA,NA,completion,8516.06,187102,187100.14,187116.74,195632.8,195635,2023-09-07T14:48:39Z,195649,NULL,Schüler,mwanafunzi,s,mwekezaji,matumizi,uaminifu,NA,sdfdsf,NA,1,NA,NA,NA,NA,NA,NA,NA,NA,NA,NA,NA,NA,NA,NA,NA,NA,NA,NA,NA
b6e99,task,flow.Sequence,3_0_1_0_3,NA,NA,completion,8516.06,187102,187100.14,187116.74,195632.8,195635,2023-09-07T14:48:39Z,195649,NULL,Schüler,mwanafunzi,s,mwekezaji,matumizi,uaminifu,NA,sdfdsf,NA,1,NA,NA,NA,NA,NA,NA,NA,NA,NA,NA,NA,NA,NA,NA,NA,NA,NA,NA,NA
b6e99,deep,flow.Sequence,3_0_1_0_4_0,NA,NA,skipped,NA,195636,NA,NA,195632.8,195636,2023-09-07T14:48:39Z,195649,NULL,Vorsorge,tahadhari,s,ufafanuzi,makini,mashambani,NA,sdfdsf,NA,1,NA,NA,NA,NA,NA,NA,NA,NA,NA,NA,NA,NA,NA,NA,NA,NA,NA,NA,NA
b6e99,Shallow Question,html.Page,3_0_1_0_4_1_0,NA,NA,form submission,4034,195637,195632.8,195649,199683,199684,2023-09-07T14:48:43Z,199682.52,NULL,Vorsorge,tahadhari,s,ufafanuzi,makini,mashambani,tahadhari,NA,NA,1,NA,NA,NA,NA,NA,NA,NA,NA,NA,NA,NA,NA,NA,NA,NA,NA,NA,NA,NA
b6e99,"""Richtig""-Screen",canvas.Screen,3_0_1_0_4_1_1,NA,NA,timeout,4998.68,199686,199682.16,199682.52,204664.94,204667,2023-09-07T14:48:48Z,204681.2,NULL,Vorsorge,tahadhari,s,ufafanuzi,makini,mashambani,NA,sdfdsf,1,1,NA,NA,NA,NA,NA,NA,NA,NA,NA,NA,NA,NA,NA,NA,NA,NA,NA,NA,NA
b6e99,"""Falsch""-Screen",canvas.Screen,3_0_1_0_4_1_2,NA,NA,skipped,NA,204683,NA,NA,204664.94,204684,2023-09-07T14:48:48Z,204681.2,NULL,Vorsorge,tahadhari,s,ufafanuzi,makini,mashambani,NA,sdfdsf,NA,1,NA,NA,NA,NA,NA,NA,NA,NA,NA,NA,NA,NA,NA,NA,NA,NA,NA,NA,NA
b6e99,shallow,flow.Sequence,3_0_1_0_4_1,NA,NA,completion,9015.94,195636,195632.8,195649,204664.94,204684,2023-09-07T14:48:48Z,204681.2,NULL,Vorsorge,tahadhari,s,ufafanuzi,makini,mashambani,NA,sdfdsf,NA,1,NA,NA,NA,NA,NA,NA,NA,NA,NA,NA,NA,NA,NA,NA,NA,NA,NA,NA,NA
b6e99,task,flow.Sequence,3_0_1_0_4,NA,NA,completion,9015.94,195636,195632.8,195649,204664.94,204685,2023-09-07T14:48:48Z,204681.2,NULL,Vorsorge,tahadhari,s,ufafanuzi,makini,mashambani,NA,sdfdsf,NA,1,NA,NA,NA,NA,NA,NA,NA,NA,NA,NA,NA,NA,NA,NA,NA,NA,NA,NA,NA
b6e99,Deep Question,html.Page,3_0_1_0_5_0_0,NA,NA,form submission,2470.8,204685,204664.94,204681.2,207152,207152,2023-09-07T14:48:51Z,207164.14,NULL,Spionage,upelelezi,d,NA,NA,NA,hgj,NA,NA,1,NA,NA,NA,NA,NA,NA,NA,NA,NA,NA,NA,NA,NA,NA,NA,NA,NA,NA,NA
b6e99,"""Richtig""-Screen",canvas.Screen,3_0_1_0_5_0_1,NA,NA,skipped,NA,207155,NA,NA,207152,207155,2023-09-07T14:48:51Z,207164.14,NULL,Spionage,upelelezi,d,NA,NA,NA,NA,sdfdsf,NA,1,NA,NA,NA,NA,NA,NA,NA,NA,NA,NA,NA,NA,NA,NA,NA,NA,NA,NA,NA
b6e99,"""Falsch""-Screen",canvas.Screen,3_0_1_0_5_0_2,NA,NA,timeout,4999.34,207159,207150.56,207164.14,212146.92,212148,2023-09-07T14:48:56Z,212163.48,NULL,Spionage,upelelezi,d,NA,NA,NA,NA,sdfdsf,0,1,NA,NA,NA,NA,NA,NA,NA,NA,NA,NA,NA,NA,NA,NA,NA,NA,NA,NA,NA
b6e99,deep,flow.Sequence,3_0_1_0_5_0,NA,NA,completion,7465.72,204685,204664.94,204681.2,212146.92,212148,2023-09-07T14:48:56Z,212163.48,NULL,Spionage,upelelezi,d,NA,NA,NA,NA,sdfdsf,NA,1,NA,NA,NA,NA,NA,NA,NA,NA,NA,NA,NA,NA,NA,NA,NA,NA,NA,NA,NA
b6e99,shallow,flow.Sequence,3_0_1_0_5_1,NA,NA,skipped,NA,212149,NA,NA,212146.92,212149,2023-09-07T14:48:56Z,212163.48,NULL,Spionage,upelelezi,d,NA,NA,NA,NA,sdfdsf,NA,1,NA,NA,NA,NA,NA,NA,NA,NA,NA,NA,NA,NA,NA,NA,NA,NA,NA,NA,NA
b6e99,task,flow.Sequence,3_0_1_0_5,NA,NA,completion,7465.72,204685,204664.94,204681.2,212146.92,212149,2023-09-07T14:48:56Z,212163.48,NULL,Spionage,upelelezi,d,NA,NA,NA,NA,sdfdsf,NA,1,NA,NA,NA,NA,NA,NA,NA,NA,NA,NA,NA,NA,NA,NA,NA,NA,NA,NA,NA
b6e99,Deep Question,html.Page,3_0_1_0_6_0_0,NA,NA,form submission,1747.52,212149,212146.92,212163.48,213911,213912,2023-09-07T14:48:58Z,213913.3,NULL,Zuwachs,nyongeza,d,NA,NA,NA,hgjh,NA,NA,1,NA,NA,NA,NA,NA,NA,NA,NA,NA,NA,NA,NA,NA,NA,NA,NA,NA,NA,NA
b6e99,"""Richtig""-Screen",canvas.Screen,3_0_1_0_6_0_1,NA,NA,skipped,NA,213915,NA,NA,213911,213915,2023-09-07T14:48:58Z,213913.3,NULL,Zuwachs,nyongeza,d,NA,NA,NA,NA,sdfdsf,NA,1,NA,NA,NA,NA,NA,NA,NA,NA,NA,NA,NA,NA,NA,NA,NA,NA,NA,NA,NA
b6e99,"""Falsch""-Screen",canvas.Screen,3_0_1_0_6_0_2,NA,NA,timeout,4999.38,213918,213910.64,213913.3,218896.5,218898,2023-09-07T14:49:03Z,218912.68,NULL,Zuwachs,nyongeza,d,NA,NA,NA,NA,sdfdsf,0,1,NA,NA,NA,NA,NA,NA,NA,NA,NA,NA,NA,NA,NA,NA,NA,NA,NA,NA,NA
b6e99,deep,flow.Sequence,3_0_1_0_6_0,NA,NA,completion,6733.02,212149,212146.92,212163.48,218896.5,218899,2023-09-07T14:49:03Z,218912.68,NULL,Zuwachs,nyongeza,d,NA,NA,NA,NA,sdfdsf,NA,1,NA,NA,NA,NA,NA,NA,NA,NA,NA,NA,NA,NA,NA,NA,NA,NA,NA,NA,NA
b6e99,shallow,flow.Sequence,3_0_1_0_6_1,NA,NA,skipped,NA,218899,NA,NA,218896.5,218900,2023-09-07T14:49:03Z,218912.68,NULL,Zuwachs,nyongeza,d,NA,NA,NA,NA,sdfdsf,NA,1,NA,NA,NA,NA,NA,NA,NA,NA,NA,NA,NA,NA,NA,NA,NA,NA,NA,NA,NA
b6e99,task,flow.Sequence,3_0_1_0_6,NA,NA,completion,6733.02,212149,212146.92,212163.48,218896.5,218900,2023-09-07T14:49:03Z,218912.68,NULL,Zuwachs,nyongeza,d,NA,NA,NA,NA,sdfdsf,NA,1,NA,NA,NA,NA,NA,NA,NA,NA,NA,NA,NA,NA,NA,NA,NA,NA,NA,NA,NA
b6e99,deep,flow.Sequence,3_0_1_0_7_0,NA,NA,skipped,NA,218900,NA,NA,218896.5,218901,2023-09-07T14:49:03Z,218912.68,NULL,Konkurrent,mshindani,s,msemaji,mvutaji,kipukusa,NA,sdfdsf,NA,1,NA,NA,NA,NA,NA,NA,NA,NA,NA,NA,NA,NA,NA,NA,NA,NA,NA,NA,NA
b6e99,Shallow Question,html.Page,3_0_1_0_7_1_0,NA,NA,form submission,2908.32,218902,218896.5,218912.68,221821,221821,2023-09-07T14:49:05Z,221819.78,NULL,Konkurrent,mshindani,s,msemaji,mvutaji,kipukusa,mshindani,NA,NA,1,NA,NA,NA,NA,NA,NA,NA,NA,NA,NA,NA,NA,NA,NA,NA,NA,NA,NA,NA
b6e99,"""Richtig""-Screen",canvas.Screen,3_0_1_0_7_1_1,NA,NA,timeout,4991.82,221824,221819.42,221819.78,226795,226795,2023-09-07T14:49:10Z,226811.6,NULL,Konkurrent,mshindani,s,msemaji,mvutaji,kipukusa,NA,sdfdsf,1,1,NA,NA,NA,NA,NA,NA,NA,NA,NA,NA,NA,NA,NA,NA,NA,NA,NA,NA,NA
b6e99,"""Falsch""-Screen",canvas.Screen,3_0_1_0_7_1_2,NA,NA,skipped,NA,226803,NA,NA,226795,226803,2023-09-07T14:49:10Z,226811.6,NULL,Konkurrent,mshindani,s,msemaji,mvutaji,kipukusa,NA,sdfdsf,NA,1,NA,NA,NA,NA,NA,NA,NA,NA,NA,NA,NA,NA,NA,NA,NA,NA,NA,NA,NA
b6e99,shallow,flow.Sequence,3_0_1_0_7_1,NA,NA,completion,7882.32,218901,218896.5,218912.68,226795,226803,2023-09-07T14:49:10Z,226811.6,NULL,Konkurrent,mshindani,s,msemaji,mvutaji,kipukusa,NA,sdfdsf,NA,1,NA,NA,NA,NA,NA,NA,NA,NA,NA,NA,NA,NA,NA,NA,NA,NA,NA,NA,NA
b6e99,task,flow.Sequence,3_0_1_0_7,NA,NA,completion,7882.32,218900,218896.5,218912.68,226795,226803,2023-09-07T14:49:10Z,226811.6,NULL,Konkurrent,mshindani,s,msemaji,mvutaji,kipukusa,NA,sdfdsf,NA,1,NA,NA,NA,NA,NA,NA,NA,NA,NA,NA,NA,NA,NA,NA,NA,NA,NA,NA,NA
b6e99,block,flow.Loop,3_0_1_0,NA,NA,completion,73620.88,153173,153173.74,153174.12,226795,226803,2023-09-07T14:49:10Z,226811.6,NULL,NA,NA,NA,NA,NA,NA,NA,sdfdsf,NA,1,NA,NA,NA,NA,NA,NA,NA,NA,NA,NA,NA,NA,NA,NA,NA,NA,NA,NA,NA
b6e99,weiter,canvas.Screen,3_0_1_1,sdf,keypress(Space),response,984.39999999999,226803,226795,226811.6,227796,227809,2023-09-07T14:49:11Z,227872.56,NULL,NA,NA,NA,NA,NA,NA,NA,sdfdsf,NA,1,NA,NA,NA,NA,NA,NA,NA,NA,NA,NA,NA,NA,NA,NA,NA,NA,NA,NA,NA
b6e99,check continue,flow.Sequence,3_0_1,NA,NA,completion,74621.88,153173,153173.74,153174.12,227796,227810,2023-09-07T14:49:11Z,227872.56,NULL,NA,NA,NA,NA,NA,NA,NA,sdfdsf,NA,1,NA,NA,NA,NA,NA,NA,NA,NA,NA,NA,NA,NA,NA,NA,NA,NA,NA,NA,NA
b6e99,deep,flow.Sequence,3_0_2_0_0_0,NA,NA,skipped,NA,227872,NA,NA,227796,227872,2023-09-07T14:49:11Z,227872.56,NULL,Vorsorge,tahadhari,s,ufafanuzi,makini,mashambani,NA,sdf,NA,2,NA,NA,NA,NA,NA,NA,NA,NA,NA,NA,NA,NA,NA,NA,NA,NA,NA,NA,NA
b6e99,Shallow Question,html.Page,3_0_2_0_0_1_0,NA,NA,form submission,6155.44,227872,227872.2,227872.56,234028,234028,2023-09-07T14:49:18Z,234028.28,NULL,Vorsorge,tahadhari,s,ufafanuzi,makini,mashambani,tahadhari,NA,NA,2,NA,NA,NA,NA,NA,NA,NA,NA,NA,NA,NA,NA,NA,NA,NA,NA,NA,NA,NA
b6e99,"""Richtig""-Screen",canvas.Screen,3_0_2_0_0_1_1,NA,NA,timeout,4998.38,234031,234026.6,234028.28,239010.4,239011,2023-09-07T14:49:23Z,239026.66,NULL,Vorsorge,tahadhari,s,ufafanuzi,makini,mashambani,NA,sdf,1,2,NA,NA,NA,NA,NA,NA,NA,NA,NA,NA,NA,NA,NA,NA,NA,NA,NA,NA,NA
b6e99,"""Falsch""-Screen",canvas.Screen,3_0_2_0_0_1_2,NA,NA,skipped,NA,239018,NA,NA,239010.4,239018,2023-09-07T14:49:23Z,239026.66,NULL,Vorsorge,tahadhari,s,ufafanuzi,makini,mashambani,NA,sdf,NA,2,NA,NA,NA,NA,NA,NA,NA,NA,NA,NA,NA,NA,NA,NA,NA,NA,NA,NA,NA
b6e99,shallow,flow.Sequence,3_0_2_0_0_1,NA,NA,completion,11137.84,227872,227872.2,227872.56,239010.4,239018,2023-09-07T14:49:23Z,239026.66,NULL,Vorsorge,tahadhari,s,ufafanuzi,makini,mashambani,NA,sdf,NA,2,NA,NA,NA,NA,NA,NA,NA,NA,NA,NA,NA,NA,NA,NA,NA,NA,NA,NA,NA
b6e99,task,flow.Sequence,3_0_2_0_0,NA,NA,completion,11137.84,227872,227872.2,227872.56,239010.4,239019,2023-09-07T14:49:23Z,239026.66,NULL,Vorsorge,tahadhari,s,ufafanuzi,makini,mashambani,NA,sdf,NA,2,NA,NA,NA,NA,NA,NA,NA,NA,NA,NA,NA,NA,NA,NA,NA,NA,NA,NA,NA
b6e99,Deep Question,html.Page,3_0_2_0_1_0_0,NA,NA,form submission,6287.34,239020,239010.4,239026.66,245314,245314,2023-09-07T14:49:29Z,245312.76,NULL,Spionage,upelelezi,d,NA,NA,NA,tahadini,NA,NA,2,NA,NA,NA,NA,NA,NA,NA,NA,NA,NA,NA,NA,NA,NA,NA,NA,NA,NA,NA
b6e99,"""Richtig""-Screen",canvas.Screen,3_0_2_0_1_0_1,NA,NA,skipped,NA,245317,NA,NA,245314,245317,2023-09-07T14:49:29Z,245312.76,NULL,Spionage,upelelezi,d,NA,NA,NA,NA,sdf,NA,2,NA,NA,NA,NA,NA,NA,NA,NA,NA,NA,NA,NA,NA,NA,NA,NA,NA,NA,NA
b6e99,"""Falsch""-Screen",canvas.Screen,3_0_2_0_1_0_2,NA,NA,timeout,4995.84,245319,245312.38,245312.76,250292.34,250293,2023-09-07T14:49:34Z,250308.6,NULL,Spionage,upelelezi,d,NA,NA,NA,NA,sdf,0,2,NA,NA,NA,NA,NA,NA,NA,NA,NA,NA,NA,NA,NA,NA,NA,NA,NA,NA,NA
b6e99,deep,flow.Sequence,3_0_2_0_1_0,NA,NA,completion,11265.68,239020,239010.4,239026.66,250292.34,250294,2023-09-07T14:49:34Z,250308.6,NULL,Spionage,upelelezi,d,NA,NA,NA,NA,sdf,NA,2,NA,NA,NA,NA,NA,NA,NA,NA,NA,NA,NA,NA,NA,NA,NA,NA,NA,NA,NA
b6e99,shallow,flow.Sequence,3_0_2_0_1_1,NA,NA,skipped,NA,250295,NA,NA,250292.34,250295,2023-09-07T14:49:34Z,250308.6,NULL,Spionage,upelelezi,d,NA,NA,NA,NA,sdf,NA,2,NA,NA,NA,NA,NA,NA,NA,NA,NA,NA,NA,NA,NA,NA,NA,NA,NA,NA,NA
b6e99,task,flow.Sequence,3_0_2_0_1,NA,NA,completion,11265.68,239019,239010.4,239026.66,250292.34,250295,2023-09-07T14:49:34Z,250308.6,NULL,Spionage,upelelezi,d,NA,NA,NA,NA,sdf,NA,2,NA,NA,NA,NA,NA,NA,NA,NA,NA,NA,NA,NA,NA,NA,NA,NA,NA,NA,NA
b6e99,Deep Question,html.Page,3_0_2_0_2_0_0,NA,NA,form submission,3652.4,250296,250292.34,250308.6,253961,253961,2023-09-07T14:49:38Z,253975,NULL,Fenster,dirisha,d,NA,NA,NA,kj,NA,NA,2,NA,NA,NA,NA,NA,NA,NA,NA,NA,NA,NA,NA,NA,NA,NA,NA,NA,NA,NA
b6e99,"""Richtig""-Screen",canvas.Screen,3_0_2_0_2_0_1,NA,NA,skipped,NA,253962,NA,NA,253961,253962,2023-09-07T14:49:38Z,253975,NULL,Fenster,dirisha,d,NA,NA,NA,NA,sdf,NA,2,NA,NA,NA,NA,NA,NA,NA,NA,NA,NA,NA,NA,NA,NA,NA,NA,NA,NA,NA
b6e99,"""Falsch""-Screen",canvas.Screen,3_0_2_0_2_0_2,NA,NA,timeout,4999.1,253964,253960.28,253975,258957.54,258959,2023-09-07T14:49:43Z,258974.1,NULL,Fenster,dirisha,d,NA,NA,NA,NA,sdf,0,2,NA,NA,NA,NA,NA,NA,NA,NA,NA,NA,NA,NA,NA,NA,NA,NA,NA,NA,NA
b6e99,deep,flow.Sequence,3_0_2_0_2_0,NA,NA,completion,8648.94,250296,250292.34,250308.6,258957.54,258959,2023-09-07T14:49:43Z,258974.1,NULL,Fenster,dirisha,d,NA,NA,NA,NA,sdf,NA,2,NA,NA,NA,NA,NA,NA,NA,NA,NA,NA,NA,NA,NA,NA,NA,NA,NA,NA,NA
b6e99,shallow,flow.Sequence,3_0_2_0_2_1,NA,NA,skipped,NA,258959,NA,NA,258957.54,258960,2023-09-07T14:49:43Z,258974.1,NULL,Fenster,dirisha,d,NA,NA,NA,NA,sdf,NA,2,NA,NA,NA,NA,NA,NA,NA,NA,NA,NA,NA,NA,NA,NA,NA,NA,NA,NA,NA
b6e99,task,flow.Sequence,3_0_2_0_2,NA,NA,completion,8648.94,250296,250292.34,250308.6,258957.54,258960,2023-09-07T14:49:43Z,258974.1,NULL,Fenster,dirisha,d,NA,NA,NA,NA,sdf,NA,2,NA,NA,NA,NA,NA,NA,NA,NA,NA,NA,NA,NA,NA,NA,NA,NA,NA,NA,NA
b6e99,Deep Question,html.Page,3_0_2_0_3_0_0,NA,NA,form submission,1958.9,258961,258957.54,258974.1,260933,260933,2023-09-07T14:49:45Z,260940.48,NULL,Zuwachs,nyongeza,d,NA,NA,NA,lihk,NA,NA,2,NA,NA,NA,NA,NA,NA,NA,NA,NA,NA,NA,NA,NA,NA,NA,NA,NA,NA,NA
b6e99,"""Richtig""-Screen",canvas.Screen,3_0_2_0_3_0_1,NA,NA,skipped,NA,260936,NA,NA,260933,260936,2023-09-07T14:49:45Z,260940.48,NULL,Zuwachs,nyongeza,d,NA,NA,NA,NA,sdf,NA,2,NA,NA,NA,NA,NA,NA,NA,NA,NA,NA,NA,NA,NA,NA,NA,NA,NA,NA,NA
b6e99,"""Falsch""-Screen",canvas.Screen,3_0_2_0_3_0_2,NA,NA,timeout,4999.4,260938,260931.68,260940.48,265923.2,265925,2023-09-07T14:49:50Z,265939.88,NULL,Zuwachs,nyongeza,d,NA,NA,NA,NA,sdf,0,2,NA,NA,NA,NA,NA,NA,NA,NA,NA,NA,NA,NA,NA,NA,NA,NA,NA,NA,NA
b6e99,deep,flow.Sequence,3_0_2_0_3_0,NA,NA,completion,6949.1,258960,258957.54,258974.1,265923.2,265926,2023-09-07T14:49:50Z,265939.88,NULL,Zuwachs,nyongeza,d,NA,NA,NA,NA,sdf,NA,2,NA,NA,NA,NA,NA,NA,NA,NA,NA,NA,NA,NA,NA,NA,NA,NA,NA,NA,NA
b6e99,shallow,flow.Sequence,3_0_2_0_3_1,NA,NA,skipped,NA,265927,NA,NA,265923.2,265928,2023-09-07T14:49:50Z,265939.88,NULL,Zuwachs,nyongeza,d,NA,NA,NA,NA,sdf,NA,2,NA,NA,NA,NA,NA,NA,NA,NA,NA,NA,NA,NA,NA,NA,NA,NA,NA,NA,NA
b6e99,task,flow.Sequence,3_0_2_0_3,NA,NA,completion,6949.1,258960,258957.54,258974.1,265923.2,265928,2023-09-07T14:49:50Z,265939.88,NULL,Zuwachs,nyongeza,d,NA,NA,NA,NA,sdf,NA,2,NA,NA,NA,NA,NA,NA,NA,NA,NA,NA,NA,NA,NA,NA,NA,NA,NA,NA,NA
b6e99,deep,flow.Sequence,3_0_2_0_4_0,NA,NA,skipped,NA,265929,NA,NA,265923.2,265929,2023-09-07T14:49:50Z,265939.88,NULL,Schüler,mwanafunzi,s,mwekezaji,matumizi,uaminifu,NA,sdf,NA,2,NA,NA,NA,NA,NA,NA,NA,NA,NA,NA,NA,NA,NA,NA,NA,NA,NA,NA,NA
b6e99,Shallow Question,html.Page,3_0_2_0_4_1_0,NA,NA,form submission,6107.12,265930,265923.2,265939.88,272047,272047,2023-09-07T14:49:56Z,272055.7,NULL,Schüler,mwanafunzi,s,mwekezaji,matumizi,uaminifu,mwanafunzi,NA,NA,2,NA,NA,NA,NA,NA,NA,NA,NA,NA,NA,NA,NA,NA,NA,NA,NA,NA,NA,NA
b6e99,"""Richtig""-Screen",canvas.Screen,3_0_2_0_4_1_1,NA,NA,timeout,4999.38,272054,272045.62,272055.7,277038.44,277039,2023-09-07T14:50:01Z,277055.08,NULL,Schüler,mwanafunzi,s,mwekezaji,matumizi,uaminifu,NA,sdf,1,2,NA,NA,NA,NA,NA,NA,NA,NA,NA,NA,NA,NA,NA,NA,NA,NA,NA,NA,NA
b6e99,"""Falsch""-Screen",canvas.Screen,3_0_2_0_4_1_2,NA,NA,skipped,NA,277044,NA,NA,277038.44,277045,2023-09-07T14:50:01Z,277055.08,NULL,Schüler,mwanafunzi,s,mwekezaji,matumizi,uaminifu,NA,sdf,NA,2,NA,NA,NA,NA,NA,NA,NA,NA,NA,NA,NA,NA,NA,NA,NA,NA,NA,NA,NA
b6e99,shallow,flow.Sequence,3_0_2_0_4_1,NA,NA,completion,11098.56,265930,265923.2,265939.88,277038.44,277045,2023-09-07T14:50:01Z,277055.08,NULL,Schüler,mwanafunzi,s,mwekezaji,matumizi,uaminifu,NA,sdf,NA,2,NA,NA,NA,NA,NA,NA,NA,NA,NA,NA,NA,NA,NA,NA,NA,NA,NA,NA,NA
b6e99,task,flow.Sequence,3_0_2_0_4,NA,NA,completion,11098.56,265928,265923.2,265939.88,277038.44,277046,2023-09-07T14:50:01Z,277055.08,NULL,Schüler,mwanafunzi,s,mwekezaji,matumizi,uaminifu,NA,sdf,NA,2,NA,NA,NA,NA,NA,NA,NA,NA,NA,NA,NA,NA,NA,NA,NA,NA,NA,NA,NA
b6e99,deep,flow.Sequence,3_0_2_0_5_0,NA,NA,skipped,NA,277046,NA,NA,277038.44,277047,2023-09-07T14:50:01Z,277055.08,NULL,Tester,wanaojaribu,s,sherti,sihiri,mlipuko,NA,sdf,NA,2,NA,NA,NA,NA,NA,NA,NA,NA,NA,NA,NA,NA,NA,NA,NA,NA,NA,NA,NA
b6e99,Shallow Question,html.Page,3_0_2_0_5_1_0,NA,NA,form submission,4776.92,277047,277038.44,277055.08,281832,281833,2023-09-07T14:50:05Z,281837.78,NULL,Tester,wanaojaribu,s,sherti,sihiri,mlipuko,wanaojaribu,NA,NA,2,NA,NA,NA,NA,NA,NA,NA,NA,NA,NA,NA,NA,NA,NA,NA,NA,NA,NA,NA
b6e99,"""Richtig""-Screen",canvas.Screen,3_0_2_0_5_1_1,NA,NA,timeout,4999.3799999999,281836,281831.48,281837.78,286820.44,286822,2023-09-07T14:50:10Z,286837.16,NULL,Tester,wanaojaribu,s,sherti,sihiri,mlipuko,NA,sdf,1,2,NA,NA,NA,NA,NA,NA,NA,NA,NA,NA,NA,NA,NA,NA,NA,NA,NA,NA,NA
b6e99,"""Falsch""-Screen",canvas.Screen,3_0_2_0_5_1_2,NA,NA,skipped,NA,286827,NA,NA,286820.44,286827,2023-09-07T14:50:10Z,286837.16,NULL,Tester,wanaojaribu,s,sherti,sihiri,mlipuko,NA,sdf,NA,2,NA,NA,NA,NA,NA,NA,NA,NA,NA,NA,NA,NA,NA,NA,NA,NA,NA,NA,NA
b6e99,shallow,flow.Sequence,3_0_2_0_5_1,NA,NA,completion,9765.36,277047,277038.44,277055.08,286820.44,286827,2023-09-07T14:50:10Z,286837.16,NULL,Tester,wanaojaribu,s,sherti,sihiri,mlipuko,NA,sdf,NA,2,NA,NA,NA,NA,NA,NA,NA,NA,NA,NA,NA,NA,NA,NA,NA,NA,NA,NA,NA
b6e99,task,flow.Sequence,3_0_2_0_5,NA,NA,completion,9765.36,277046,277038.44,277055.08,286820.44,286828,2023-09-07T14:50:10Z,286837.16,NULL,Tester,wanaojaribu,s,sherti,sihiri,mlipuko,NA,sdf,NA,2,NA,NA,NA,NA,NA,NA,NA,NA,NA,NA,NA,NA,NA,NA,NA,NA,NA,NA,NA
b6e99,deep,flow.Sequence,3_0_2_0_6_0,NA,NA,skipped,NA,286828,NA,NA,286820.44,286828,2023-09-07T14:50:10Z,286837.16,NULL,Konkurrent,mshindani,s,msemaji,mvutaji,kipukusa,NA,sdf,NA,2,NA,NA,NA,NA,NA,NA,NA,NA,NA,NA,NA,NA,NA,NA,NA,NA,NA,NA,NA
b6e99,Shallow Question,html.Page,3_0_2_0_6_1_0,NA,NA,form submission,3342.84,286828,286820.44,286837.16,290180,290180,2023-09-07T14:50:14Z,290178.82,NULL,Konkurrent,mshindani,s,msemaji,mvutaji,kipukusa,mshindani,NA,NA,2,NA,NA,NA,NA,NA,NA,NA,NA,NA,NA,NA,NA,NA,NA,NA,NA,NA,NA,NA
b6e99,"""Richtig""-Screen",canvas.Screen,3_0_2_0_6_1_1,NA,NA,timeout,5007.18,290182,290178.48,290178.82,295169.68,295171,2023-09-07T14:50:19Z,295186,NULL,Konkurrent,mshindani,s,msemaji,mvutaji,kipukusa,NA,sdf,1,2,NA,NA,NA,NA,NA,NA,NA,NA,NA,NA,NA,NA,NA,NA,NA,NA,NA,NA,NA
b6e99,"""Falsch""-Screen",canvas.Screen,3_0_2_0_6_1_2,NA,NA,skipped,NA,295179,NA,NA,295169.68,295179,2023-09-07T14:50:19Z,295186,NULL,Konkurrent,mshindani,s,msemaji,mvutaji,kipukusa,NA,sdf,NA,2,NA,NA,NA,NA,NA,NA,NA,NA,NA,NA,NA,NA,NA,NA,NA,NA,NA,NA,NA
b6e99,shallow,flow.Sequence,3_0_2_0_6_1,NA,NA,completion,8332.52,286828,286820.44,286837.16,295169.68,295179,2023-09-07T14:50:19Z,295186,NULL,Konkurrent,mshindani,s,msemaji,mvutaji,kipukusa,NA,sdf,NA,2,NA,NA,NA,NA,NA,NA,NA,NA,NA,NA,NA,NA,NA,NA,NA,NA,NA,NA,NA
b6e99,task,flow.Sequence,3_0_2_0_6,NA,NA,completion,8332.52,286828,286820.44,286837.16,295169.68,295180,2023-09-07T14:50:19Z,295186,NULL,Konkurrent,mshindani,s,msemaji,mvutaji,kipukusa,NA,sdf,NA,2,NA,NA,NA,NA,NA,NA,NA,NA,NA,NA,NA,NA,NA,NA,NA,NA,NA,NA,NA
b6e99,Deep Question,html.Page,3_0_2_0_7_0_0,NA,NA,form submission,2358,295181,295169.68,295186,297544,297544,2023-09-07T14:50:21Z,297552.36,NULL,Symbol,kielezo,d,NA,NA,NA,jhkh,NA,NA,2,NA,NA,NA,NA,NA,NA,NA,NA,NA,NA,NA,NA,NA,NA,NA,NA,NA,NA,NA
b6e99,"""Richtig""-Screen",canvas.Screen,3_0_2_0_7_0_1,NA,NA,skipped,NA,297547,NA,NA,297544,297547,2023-09-07T14:50:21Z,297552.36,NULL,Symbol,kielezo,d,NA,NA,NA,NA,sdf,NA,2,NA,NA,NA,NA,NA,NA,NA,NA,NA,NA,NA,NA,NA,NA,NA,NA,NA,NA,NA
b6e99,"""Falsch""-Screen",canvas.Screen,3_0_2_0_7_0_2,NA,NA,timeout,4999.78,297549,297542.5,297552.36,302535.34,302537,2023-09-07T14:50:26Z,302552.14,NULL,Symbol,kielezo,d,NA,NA,NA,NA,sdf,0,2,NA,NA,NA,NA,NA,NA,NA,NA,NA,NA,NA,NA,NA,NA,NA,NA,NA,NA,NA
b6e99,deep,flow.Sequence,3_0_2_0_7_0,NA,NA,completion,7349.34,295180,295169.68,295186,302535.34,302537,2023-09-07T14:50:26Z,302552.14,NULL,Symbol,kielezo,d,NA,NA,NA,NA,sdf,NA,2,NA,NA,NA,NA,NA,NA,NA,NA,NA,NA,NA,NA,NA,NA,NA,NA,NA,NA,NA
b6e99,shallow,flow.Sequence,3_0_2_0_7_1,NA,NA,skipped,NA,302537,NA,NA,302535.34,302537,2023-09-07T14:50:26Z,302552.14,NULL,Symbol,kielezo,d,NA,NA,NA,NA,sdf,NA,2,NA,NA,NA,NA,NA,NA,NA,NA,NA,NA,NA,NA,NA,NA,NA,NA,NA,NA,NA
b6e99,task,flow.Sequence,3_0_2_0_7,NA,NA,completion,7349.34,295180,295169.68,295186,302535.34,302537,2023-09-07T14:50:26Z,302552.14,NULL,Symbol,kielezo,d,NA,NA,NA,NA,sdf,NA,2,NA,NA,NA,NA,NA,NA,NA,NA,NA,NA,NA,NA,NA,NA,NA,NA,NA,NA,NA
b6e99,block,flow.Loop,3_0_2_0,NA,NA,completion,74662.78,227872,227872.2,227872.56,302535.34,302537,2023-09-07T14:50:26Z,302552.14,NULL,NA,NA,NA,NA,NA,NA,NA,sdf,NA,2,NA,NA,NA,NA,NA,NA,NA,NA,NA,NA,NA,NA,NA,NA,NA,NA,NA,NA,NA
b6e99,weiter,canvas.Screen,3_0_2_1,sdf,keypress(Space),response,900.85999999999,302537,302535.34,302552.14,303453,303457,2023-09-07T14:50:27Z,303510.18,NULL,NA,NA,NA,NA,NA,NA,NA,sdf,NA,2,NA,NA,NA,NA,NA,NA,NA,NA,NA,NA,NA,NA,NA,NA,NA,NA,NA,NA,NA
b6e99,check continue,flow.Sequence,3_0_2,NA,NA,completion,75580.44,227872,227872.2,227872.56,303453,303459,2023-09-07T14:50:27Z,303510.18,NULL,NA,NA,NA,NA,NA,NA,NA,sdf,NA,2,NA,NA,NA,NA,NA,NA,NA,NA,NA,NA,NA,NA,NA,NA,NA,NA,NA,NA,NA
b6e99,deep,flow.Sequence,3_0_3_0_0_0,NA,NA,skipped,NA,303509,NA,NA,303453,303509,2023-09-07T14:50:27Z,303510.18,NULL,Schüler,mwanafunzi,s,mwekezaji,matumizi,uaminifu,NA,qt,NA,3,NA,NA,NA,NA,NA,NA,NA,NA,NA,NA,NA,NA,NA,NA,NA,NA,NA,NA,NA
b6e99,Shallow Question,html.Page,3_0_3_0_0_1_0,NA,NA,form submission,2228.82,303509,303509.84,303510.18,305739,305739,2023-09-07T14:50:29Z,305738.18,NULL,Schüler,mwanafunzi,s,mwekezaji,matumizi,uaminifu,mwanafunzi,NA,NA,3,NA,NA,NA,NA,NA,NA,NA,NA,NA,NA,NA,NA,NA,NA,NA,NA,NA,NA,NA
b6e99,"""Richtig""-Screen",canvas.Screen,3_0_3_0_0_1_1,NA,NA,timeout,4995.98,305742,305737.92,305738.18,310717.44,310719,2023-09-07T14:50:34Z,310734.16,NULL,Schüler,mwanafunzi,s,mwekezaji,matumizi,uaminifu,NA,qt,1,3,NA,NA,NA,NA,NA,NA,NA,NA,NA,NA,NA,NA,NA,NA,NA,NA,NA,NA,NA
b6e99,"""Falsch""-Screen",canvas.Screen,3_0_3_0_0_1_2,NA,NA,skipped,NA,310725,NA,NA,310717.44,310725,2023-09-07T14:50:34Z,310734.16,NULL,Schüler,mwanafunzi,s,mwekezaji,matumizi,uaminifu,NA,qt,NA,3,NA,NA,NA,NA,NA,NA,NA,NA,NA,NA,NA,NA,NA,NA,NA,NA,NA,NA,NA
b6e99,shallow,flow.Sequence,3_0_3_0_0_1,NA,NA,completion,7207.26,303509,303509.84,303510.18,310717.44,310726,2023-09-07T14:50:34Z,310734.16,NULL,Schüler,mwanafunzi,s,mwekezaji,matumizi,uaminifu,NA,qt,NA,3,NA,NA,NA,NA,NA,NA,NA,NA,NA,NA,NA,NA,NA,NA,NA,NA,NA,NA,NA
b6e99,task,flow.Sequence,3_0_3_0_0,NA,NA,completion,7207.26,303509,303509.84,303510.18,310717.44,310726,2023-09-07T14:50:34Z,310734.16,NULL,Schüler,mwanafunzi,s,mwekezaji,matumizi,uaminifu,NA,qt,NA,3,NA,NA,NA,NA,NA,NA,NA,NA,NA,NA,NA,NA,NA,NA,NA,NA,NA,NA,NA
b6e99,deep,flow.Sequence,3_0_3_0_1_0,NA,NA,skipped,NA,310727,NA,NA,310717.44,310727,2023-09-07T14:50:34Z,310734.16,NULL,Vorsorge,tahadhari,s,ufafanuzi,makini,mashambani,NA,qt,NA,3,NA,NA,NA,NA,NA,NA,NA,NA,NA,NA,NA,NA,NA,NA,NA,NA,NA,NA,NA
b6e99,Shallow Question,html.Page,3_0_3_0_1_1_0,NA,NA,form submission,3235.84,310727,310717.44,310734.16,313970,313971,2023-09-07T14:50:38Z,313969.4,NULL,Vorsorge,tahadhari,s,ufafanuzi,makini,mashambani,tahadhari,NA,NA,3,NA,NA,NA,NA,NA,NA,NA,NA,NA,NA,NA,NA,NA,NA,NA,NA,NA,NA,NA
b6e99,"""Richtig""-Screen",canvas.Screen,3_0_3_0_1_1_1,NA,NA,timeout,4996.88,313973,313968.84,313969.4,318949.72,318951,2023-09-07T14:50:43Z,318966.28,NULL,Vorsorge,tahadhari,s,ufafanuzi,makini,mashambani,NA,qt,1,3,NA,NA,NA,NA,NA,NA,NA,NA,NA,NA,NA,NA,NA,NA,NA,NA,NA,NA,NA
b6e99,"""Falsch""-Screen",canvas.Screen,3_0_3_0_1_1_2,NA,NA,skipped,NA,318957,NA,NA,318949.72,318957,2023-09-07T14:50:43Z,318966.28,NULL,Vorsorge,tahadhari,s,ufafanuzi,makini,mashambani,NA,qt,NA,3,NA,NA,NA,NA,NA,NA,NA,NA,NA,NA,NA,NA,NA,NA,NA,NA,NA,NA,NA
b6e99,shallow,flow.Sequence,3_0_3_0_1_1,NA,NA,completion,8215.56,310727,310717.44,310734.16,318949.72,318957,2023-09-07T14:50:43Z,318966.28,NULL,Vorsorge,tahadhari,s,ufafanuzi,makini,mashambani,NA,qt,NA,3,NA,NA,NA,NA,NA,NA,NA,NA,NA,NA,NA,NA,NA,NA,NA,NA,NA,NA,NA
b6e99,task,flow.Sequence,3_0_3_0_1,NA,NA,completion,8215.56,310727,310717.44,310734.16,318949.72,318958,2023-09-07T14:50:43Z,318966.28,NULL,Vorsorge,tahadhari,s,ufafanuzi,makini,mashambani,NA,qt,NA,3,NA,NA,NA,NA,NA,NA,NA,NA,NA,NA,NA,NA,NA,NA,NA,NA,NA,NA,NA
b6e99,Deep Question,html.Page,3_0_3_0_2_0_0,NA,NA,form submission,4112.72,318958,318949.72,318966.28,323079,323082,2023-09-07T14:50:47Z,323082.4,NULL,Fenster,dirisha,d,NA,NA,NA,j,NA,NA,3,NA,NA,NA,NA,NA,NA,NA,NA,NA,NA,NA,NA,NA,NA,NA,NA,NA,NA,NA
b6e99,"""Richtig""-Screen",canvas.Screen,3_0_3_0_2_0_1,NA,NA,skipped,NA,323088,NA,NA,323079,323089,2023-09-07T14:50:47Z,323082.4,NULL,Fenster,dirisha,d,NA,NA,NA,NA,qt,NA,3,NA,NA,NA,NA,NA,NA,NA,NA,NA,NA,NA,NA,NA,NA,NA,NA,NA,NA,NA
b6e99,"""Falsch""-Screen",canvas.Screen,3_0_3_0_2_0_2,NA,NA,timeout,4999.56,323092,323077.66,323082.4,328065.18,328071,2023-09-07T14:50:52Z,328081.96,NULL,Fenster,dirisha,d,NA,NA,NA,NA,qt,0,3,NA,NA,NA,NA,NA,NA,NA,NA,NA,NA,NA,NA,NA,NA,NA,NA,NA,NA,NA
b6e99,deep,flow.Sequence,3_0_3_0_2_0,NA,NA,completion,9098.9,318958,318949.72,318966.28,328065.18,328074,2023-09-07T14:50:52Z,328081.96,NULL,Fenster,dirisha,d,NA,NA,NA,NA,qt,NA,3,NA,NA,NA,NA,NA,NA,NA,NA,NA,NA,NA,NA,NA,NA,NA,NA,NA,NA,NA
b6e99,shallow,flow.Sequence,3_0_3_0_2_1,NA,NA,skipped,NA,328074,NA,NA,328065.18,328074,2023-09-07T14:50:52Z,328081.96,NULL,Fenster,dirisha,d,NA,NA,NA,NA,qt,NA,3,NA,NA,NA,NA,NA,NA,NA,NA,NA,NA,NA,NA,NA,NA,NA,NA,NA,NA,NA
b6e99,task,flow.Sequence,3_0_3_0_2,NA,NA,completion,9098.9,318958,318949.72,318966.28,328065.18,328075,2023-09-07T14:50:52Z,328081.96,NULL,Fenster,dirisha,d,NA,NA,NA,NA,qt,NA,3,NA,NA,NA,NA,NA,NA,NA,NA,NA,NA,NA,NA,NA,NA,NA,NA,NA,NA,NA
b6e99,deep,flow.Sequence,3_0_3_0_3_0,NA,NA,skipped,NA,328076,NA,NA,328065.18,328076,2023-09-07T14:50:52Z,328081.96,NULL,Tester,wanaojaribu,s,sherti,sihiri,mlipuko,NA,qt,NA,3,NA,NA,NA,NA,NA,NA,NA,NA,NA,NA,NA,NA,NA,NA,NA,NA,NA,NA,NA
b6e99,Shallow Question,html.Page,3_0_3_0_3_1_0,NA,NA,form submission,4063.04,328076,328065.18,328081.96,332145,332145,2023-09-07T14:50:56Z,332147.84,NULL,Tester,wanaojaribu,s,sherti,sihiri,mlipuko,wanaojaribu,NA,NA,3,NA,NA,NA,NA,NA,NA,NA,NA,NA,NA,NA,NA,NA,NA,NA,NA,NA,NA,NA
b6e99,"""Richtig""-Screen",canvas.Screen,3_0_3_0_3_1_1,NA,NA,timeout,4999.46,332152,332143.52,332147.84,337130.84,337132,2023-09-07T14:51:01Z,337147.3,NULL,Tester,wanaojaribu,s,sherti,sihiri,mlipuko,NA,qt,1,3,NA,NA,NA,NA,NA,NA,NA,NA,NA,NA,NA,NA,NA,NA,NA,NA,NA,NA,NA
b6e99,"""Falsch""-Screen",canvas.Screen,3_0_3_0_3_1_2,NA,NA,skipped,NA,337140,NA,NA,337130.84,337140,2023-09-07T14:51:01Z,337147.3,NULL,Tester,wanaojaribu,s,sherti,sihiri,mlipuko,NA,qt,NA,3,NA,NA,NA,NA,NA,NA,NA,NA,NA,NA,NA,NA,NA,NA,NA,NA,NA,NA,NA
b6e99,shallow,flow.Sequence,3_0_3_0_3_1,NA,NA,completion,9048.88,328076,328065.18,328081.96,337130.84,337141,2023-09-07T14:51:01Z,337147.3,NULL,Tester,wanaojaribu,s,sherti,sihiri,mlipuko,NA,qt,NA,3,NA,NA,NA,NA,NA,NA,NA,NA,NA,NA,NA,NA,NA,NA,NA,NA,NA,NA,NA
b6e99,task,flow.Sequence,3_0_3_0_3,NA,NA,completion,9048.88,328076,328065.18,328081.96,337130.84,337142,2023-09-07T14:51:01Z,337147.3,NULL,Tester,wanaojaribu,s,sherti,sihiri,mlipuko,NA,qt,NA,3,NA,NA,NA,NA,NA,NA,NA,NA,NA,NA,NA,NA,NA,NA,NA,NA,NA,NA,NA
b6e99,Deep Question,html.Page,3_0_3_0_4_0_0,NA,NA,form submission,1954.7,337143,337130.84,337147.3,339102,339102,2023-09-07T14:51:03Z,339101.3,NULL,Zuwachs,nyongeza,d,NA,NA,NA,kl,NA,NA,3,NA,NA,NA,NA,NA,NA,NA,NA,NA,NA,NA,NA,NA,NA,NA,NA,NA,NA,NA
b6e99,"""Richtig""-Screen",canvas.Screen,3_0_3_0_4_0_1,NA,NA,skipped,NA,339106,NA,NA,339102,339106,2023-09-07T14:51:03Z,339101.3,NULL,Zuwachs,nyongeza,d,NA,NA,NA,NA,qt,NA,3,NA,NA,NA,NA,NA,NA,NA,NA,NA,NA,NA,NA,NA,NA,NA,NA,NA,NA,NA
b6e99,"""Falsch""-Screen",canvas.Screen,3_0_3_0_4_0_2,NA,NA,timeout,4994.98,339109,339101.08,339101.3,344079.96,344082,2023-09-07T14:51:08Z,344096.28,NULL,Zuwachs,nyongeza,d,NA,NA,NA,NA,qt,0,3,NA,NA,NA,NA,NA,NA,NA,NA,NA,NA,NA,NA,NA,NA,NA,NA,NA,NA,NA
b6e99,deep,flow.Sequence,3_0_3_0_4_0,NA,NA,completion,6932.66,337143,337130.84,337147.3,344079.96,344082,2023-09-07T14:51:08Z,344096.28,NULL,Zuwachs,nyongeza,d,NA,NA,NA,NA,qt,NA,3,NA,NA,NA,NA,NA,NA,NA,NA,NA,NA,NA,NA,NA,NA,NA,NA,NA,NA,NA
b6e99,shallow,flow.Sequence,3_0_3_0_4_1,NA,NA,skipped,NA,344083,NA,NA,344079.96,344083,2023-09-07T14:51:08Z,344096.28,NULL,Zuwachs,nyongeza,d,NA,NA,NA,NA,qt,NA,3,NA,NA,NA,NA,NA,NA,NA,NA,NA,NA,NA,NA,NA,NA,NA,NA,NA,NA,NA
b6e99,task,flow.Sequence,3_0_3_0_4,NA,NA,completion,6932.66,337142,337130.84,337147.3,344079.96,344084,2023-09-07T14:51:08Z,344096.28,NULL,Zuwachs,nyongeza,d,NA,NA,NA,NA,qt,NA,3,NA,NA,NA,NA,NA,NA,NA,NA,NA,NA,NA,NA,NA,NA,NA,NA,NA,NA,NA
b6e99,deep,flow.Sequence,3_0_3_0_5_0,NA,NA,skipped,NA,344084,NA,NA,344079.96,344084,2023-09-07T14:51:08Z,344096.28,NULL,Konkurrent,mshindani,s,msemaji,mvutaji,kipukusa,NA,qt,NA,3,NA,NA,NA,NA,NA,NA,NA,NA,NA,NA,NA,NA,NA,NA,NA,NA,NA,NA,NA
b6e99,Shallow Question,html.Page,3_0_3_0_5_1_0,NA,NA,form submission,2090.72,344085,344079.96,344096.28,346187,346187,2023-09-07T14:51:10Z,346186.44,NULL,Konkurrent,mshindani,s,msemaji,mvutaji,kipukusa,mshindani,NA,NA,3,NA,NA,NA,NA,NA,NA,NA,NA,NA,NA,NA,NA,NA,NA,NA,NA,NA,NA,NA
b6e99,"""Richtig""-Screen",canvas.Screen,3_0_3_0_5_1_1,NA,NA,timeout,4992.3,346190,346186.06,346186.44,351162.16,351163,2023-09-07T14:51:15Z,351178.74,NULL,Konkurrent,mshindani,s,msemaji,mvutaji,kipukusa,NA,qt,1,3,NA,NA,NA,NA,NA,NA,NA,NA,NA,NA,NA,NA,NA,NA,NA,NA,NA,NA,NA
b6e99,"""Falsch""-Screen",canvas.Screen,3_0_3_0_5_1_2,NA,NA,skipped,NA,351172,NA,NA,351162.16,351172,2023-09-07T14:51:15Z,351178.74,NULL,Konkurrent,mshindani,s,msemaji,mvutaji,kipukusa,NA,qt,NA,3,NA,NA,NA,NA,NA,NA,NA,NA,NA,NA,NA,NA,NA,NA,NA,NA,NA,NA,NA
b6e99,shallow,flow.Sequence,3_0_3_0_5_1,NA,NA,completion,7065.8799999999,344085,344079.96,344096.28,351162.16,351173,2023-09-07T14:51:15Z,351178.74,NULL,Konkurrent,mshindani,s,msemaji,mvutaji,kipukusa,NA,qt,NA,3,NA,NA,NA,NA,NA,NA,NA,NA,NA,NA,NA,NA,NA,NA,NA,NA,NA,NA,NA
b6e99,task,flow.Sequence,3_0_3_0_5,NA,NA,completion,7065.8799999999,344084,344079.96,344096.28,351162.16,351174,2023-09-07T14:51:15Z,351178.74,NULL,Konkurrent,mshindani,s,msemaji,mvutaji,kipukusa,NA,qt,NA,3,NA,NA,NA,NA,NA,NA,NA,NA,NA,NA,NA,NA,NA,NA,NA,NA,NA,NA,NA
b6e99,Deep Question,html.Page,3_0_3_0_6_0_0,NA,NA,form submission,2522.26,351175,351162.16,351178.74,353701,353701,2023-09-07T14:51:17Z,353700.74,NULL,Symbol,kielezo,d,NA,NA,NA,hkj,NA,NA,3,NA,NA,NA,NA,NA,NA,NA,NA,NA,NA,NA,NA,NA,NA,NA,NA,NA,NA,NA
b6e99,"""Richtig""-Screen",canvas.Screen,3_0_3_0_6_0_1,NA,NA,skipped,NA,353703,NA,NA,353701,353704,2023-09-07T14:51:17Z,353700.74,NULL,Symbol,kielezo,d,NA,NA,NA,NA,qt,NA,3,NA,NA,NA,NA,NA,NA,NA,NA,NA,NA,NA,NA,NA,NA,NA,NA,NA,NA,NA
b6e99,"""Falsch""-Screen",canvas.Screen,3_0_3_0_6_0_2,NA,NA,timeout,4993.78,353706,353700.44,353700.74,358677.86,358679,2023-09-07T14:51:22Z,358694.52,NULL,Symbol,kielezo,d,NA,NA,NA,NA,qt,0,3,NA,NA,NA,NA,NA,NA,NA,NA,NA,NA,NA,NA,NA,NA,NA,NA,NA,NA,NA
b6e99,deep,flow.Sequence,3_0_3_0_6_0,NA,NA,completion,7499.12,351174,351162.16,351178.74,358677.86,358679,2023-09-07T14:51:22Z,358694.52,NULL,Symbol,kielezo,d,NA,NA,NA,NA,qt,NA,3,NA,NA,NA,NA,NA,NA,NA,NA,NA,NA,NA,NA,NA,NA,NA,NA,NA,NA,NA
b6e99,shallow,flow.Sequence,3_0_3_0_6_1,NA,NA,skipped,NA,358680,NA,NA,358677.86,358680,2023-09-07T14:51:22Z,358694.52,NULL,Symbol,kielezo,d,NA,NA,NA,NA,qt,NA,3,NA,NA,NA,NA,NA,NA,NA,NA,NA,NA,NA,NA,NA,NA,NA,NA,NA,NA,NA
b6e99,task,flow.Sequence,3_0_3_0_6,NA,NA,completion,7499.12,351174,351162.16,351178.74,358677.86,358680,2023-09-07T14:51:22Z,358694.52,NULL,Symbol,kielezo,d,NA,NA,NA,NA,qt,NA,3,NA,NA,NA,NA,NA,NA,NA,NA,NA,NA,NA,NA,NA,NA,NA,NA,NA,NA,NA
b6e99,Deep Question,html.Page,3_0_3_0_7_0_0,NA,NA,form submission,2306.48,358681,358677.86,358694.52,361001,361002,2023-09-07T14:51:25Z,361010.76,NULL,Spionage,upelelezi,d,NA,NA,NA,kjlkj,NA,NA,3,NA,NA,NA,NA,NA,NA,NA,NA,NA,NA,NA,NA,NA,NA,NA,NA,NA,NA,NA
b6e99,"""Richtig""-Screen",canvas.Screen,3_0_3_0_7_0_1,NA,NA,skipped,NA,361005,NA,NA,361001,361005,2023-09-07T14:51:25Z,361010.76,NULL,Spionage,upelelezi,d,NA,NA,NA,NA,qt,NA,3,NA,NA,NA,NA,NA,NA,NA,NA,NA,NA,NA,NA,NA,NA,NA,NA,NA,NA,NA
b6e99,"""Falsch""-Screen",canvas.Screen,3_0_3_0_7_0_2,NA,NA,timeout,4999.5,361007,361000.22,361010.76,365994,365996,2023-09-07T14:51:30Z,366010.26,NULL,Spionage,upelelezi,d,NA,NA,NA,NA,qt,0,3,NA,NA,NA,NA,NA,NA,NA,NA,NA,NA,NA,NA,NA,NA,NA,NA,NA,NA,NA
b6e99,deep,flow.Sequence,3_0_3_0_7_0,NA,NA,completion,7299.48,358681,358677.86,358694.52,365994,365996,2023-09-07T14:51:30Z,366010.26,NULL,Spionage,upelelezi,d,NA,NA,NA,NA,qt,NA,3,NA,NA,NA,NA,NA,NA,NA,NA,NA,NA,NA,NA,NA,NA,NA,NA,NA,NA,NA
b6e99,shallow,flow.Sequence,3_0_3_0_7_1,NA,NA,skipped,NA,365996,NA,NA,365994,365997,2023-09-07T14:51:30Z,366010.26,NULL,Spionage,upelelezi,d,NA,NA,NA,NA,qt,NA,3,NA,NA,NA,NA,NA,NA,NA,NA,NA,NA,NA,NA,NA,NA,NA,NA,NA,NA,NA
b6e99,task,flow.Sequence,3_0_3_0_7,NA,NA,completion,7299.48,358681,358677.86,358694.52,365994,365997,2023-09-07T14:51:30Z,366010.26,NULL,Spionage,upelelezi,d,NA,NA,NA,NA,qt,NA,3,NA,NA,NA,NA,NA,NA,NA,NA,NA,NA,NA,NA,NA,NA,NA,NA,NA,NA,NA
b6e99,block,flow.Loop,3_0_3_0,NA,NA,completion,62483.82,303509,303509.84,303510.18,365994,365998,2023-09-07T14:51:30Z,366010.26,NULL,NA,NA,NA,NA,NA,NA,NA,qt,NA,3,NA,NA,NA,NA,NA,NA,NA,NA,NA,NA,NA,NA,NA,NA,NA,NA,NA,NA,NA
b6e99,weiter,canvas.Screen,3_0_3_1,sdf,keypress(Space),response,864.73999999999,365998,365994,366010.26,366875,366889,2023-09-07T14:51:30Z,366948.88,NULL,NA,NA,NA,NA,NA,NA,NA,qt,NA,3,NA,NA,NA,NA,NA,NA,NA,NA,NA,NA,NA,NA,NA,NA,NA,NA,NA,NA,NA
b6e99,check continue,flow.Sequence,3_0_3,NA,NA,completion,63364.82,303509,303509.84,303510.18,366875,366889,2023-09-07T14:51:30Z,366948.88,NULL,NA,NA,NA,NA,NA,NA,NA,qt,NA,3,NA,NA,NA,NA,NA,NA,NA,NA,NA,NA,NA,NA,NA,NA,NA,NA,NA,NA,NA
b6e99,Deep Question,html.Page,3_0_4_0_0_0_0,NA,NA,form submission,5038.12,366948,366948.58,366948.88,371987,371987,2023-09-07T14:51:36Z,371992.7,NULL,Zuwachs,nyongeza,d,NA,NA,NA,nyongeza,NA,NA,4,NA,NA,NA,NA,NA,NA,NA,NA,NA,NA,NA,NA,NA,NA,NA,NA,NA,NA,NA
b6e99,"""Richtig""-Screen",canvas.Screen,3_0_4_0_0_0_1,NA,NA,timeout,4999.4,371990,371986.54,371992.7,376975.72,376976,2023-09-07T14:51:41Z,376992.1,NULL,Zuwachs,nyongeza,d,NA,NA,NA,NA,sd,1,4,NA,NA,NA,NA,NA,NA,NA,NA,NA,NA,NA,NA,NA,NA,NA,NA,NA,NA,NA
b6e99,"""Falsch""-Screen",canvas.Screen,3_0_4_0_0_0_2,NA,NA,skipped,NA,376980,NA,NA,376975.72,376981,2023-09-07T14:51:41Z,376992.1,NULL,Zuwachs,nyongeza,d,NA,NA,NA,NA,sd,NA,4,NA,NA,NA,NA,NA,NA,NA,NA,NA,NA,NA,NA,NA,NA,NA,NA,NA,NA,NA
b6e99,deep,flow.Sequence,3_0_4_0_0_0,NA,NA,completion,10026.84,366948,366948.58,366948.88,376975.72,376981,2023-09-07T14:51:41Z,376992.1,NULL,Zuwachs,nyongeza,d,NA,NA,NA,NA,sd,NA,4,NA,NA,NA,NA,NA,NA,NA,NA,NA,NA,NA,NA,NA,NA,NA,NA,NA,NA,NA
b6e99,shallow,flow.Sequence,3_0_4_0_0_1,NA,NA,skipped,NA,376981,NA,NA,376975.72,376981,2023-09-07T14:51:41Z,376992.1,NULL,Zuwachs,nyongeza,d,NA,NA,NA,NA,sd,NA,4,NA,NA,NA,NA,NA,NA,NA,NA,NA,NA,NA,NA,NA,NA,NA,NA,NA,NA,NA
b6e99,task,flow.Sequence,3_0_4_0_0,NA,NA,completion,10026.84,366948,366948.58,366948.88,376975.72,376982,2023-09-07T14:51:41Z,376992.1,NULL,Zuwachs,nyongeza,d,NA,NA,NA,NA,sd,NA,4,NA,NA,NA,NA,NA,NA,NA,NA,NA,NA,NA,NA,NA,NA,NA,NA,NA,NA,NA
b6e99,deep,flow.Sequence,3_0_4_0_1_0,NA,NA,skipped,NA,376982,NA,NA,376975.72,376982,2023-09-07T14:51:41Z,376992.1,NULL,Tester,wanaojaribu,s,sherti,sihiri,mlipuko,NA,sd,NA,4,NA,NA,NA,NA,NA,NA,NA,NA,NA,NA,NA,NA,NA,NA,NA,NA,NA,NA,NA
b6e99,Shallow Question,html.Page,3_0_4_0_1_1_0,NA,NA,form submission,3156.9,376982,376975.72,376992.1,380149,380149,2023-09-07T14:51:44Z,380147.92,NULL,Tester,wanaojaribu,s,sherti,sihiri,mlipuko,wanaojaribu,NA,NA,4,NA,NA,NA,NA,NA,NA,NA,NA,NA,NA,NA,NA,NA,NA,NA,NA,NA,NA,NA
b6e99,"""Richtig""-Screen",canvas.Screen,3_0_4_0_1_1_1,NA,NA,timeout,4993.08,380151,380147.64,380147.92,385124.76,385131,2023-09-07T14:51:49Z,385141,NULL,Tester,wanaojaribu,s,sherti,sihiri,mlipuko,NA,sd,1,4,NA,NA,NA,NA,NA,NA,NA,NA,NA,NA,NA,NA,NA,NA,NA,NA,NA,NA,NA
b6e99,"""Falsch""-Screen",canvas.Screen,3_0_4_0_1_1_2,NA,NA,skipped,NA,385145,NA,NA,385124.76,385146,2023-09-07T14:51:49Z,385141,NULL,Tester,wanaojaribu,s,sherti,sihiri,mlipuko,NA,sd,NA,4,NA,NA,NA,NA,NA,NA,NA,NA,NA,NA,NA,NA,NA,NA,NA,NA,NA,NA,NA
b6e99,shallow,flow.Sequence,3_0_4_0_1_1,NA,NA,completion,8132.66,376982,376975.72,376992.1,385124.76,385146,2023-09-07T14:51:49Z,385141,NULL,Tester,wanaojaribu,s,sherti,sihiri,mlipuko,NA,sd,NA,4,NA,NA,NA,NA,NA,NA,NA,NA,NA,NA,NA,NA,NA,NA,NA,NA,NA,NA,NA
b6e99,task,flow.Sequence,3_0_4_0_1,NA,NA,completion,8132.66,376982,376975.72,376992.1,385124.76,385147,2023-09-07T14:51:49Z,385141,NULL,Tester,wanaojaribu,s,sherti,sihiri,mlipuko,NA,sd,NA,4,NA,NA,NA,NA,NA,NA,NA,NA,NA,NA,NA,NA,NA,NA,NA,NA,NA,NA,NA
b6e99,deep,flow.Sequence,3_0_4_0_2_0,NA,NA,skipped,NA,385147,NA,NA,385124.76,385147,2023-09-07T14:51:49Z,385141,NULL,Vorsorge,tahadhari,s,ufafanuzi,makini,mashambani,NA,sd,NA,4,NA,NA,NA,NA,NA,NA,NA,NA,NA,NA,NA,NA,NA,NA,NA,NA,NA,NA,NA
b6e99,Shallow Question,html.Page,3_0_4_0_2_1_0,NA,NA,form submission,4308,385148,385124.76,385141,389449,389450,2023-09-07T14:51:53Z,389457.1,NULL,Vorsorge,tahadhari,s,ufafanuzi,makini,mashambani,tahadhari,NA,NA,4,NA,NA,NA,NA,NA,NA,NA,NA,NA,NA,NA,NA,NA,NA,NA,NA,NA,NA,NA
b6e99,"""Richtig""-Screen",canvas.Screen,3_0_4_0_2_1_1,NA,NA,timeout,4999.28,389458,389447.64,389457.1,394439.86,394441,2023-09-07T14:51:58Z,394456.38,NULL,Vorsorge,tahadhari,s,ufafanuzi,makini,mashambani,NA,sd,1,4,NA,NA,NA,NA,NA,NA,NA,NA,NA,NA,NA,NA,NA,NA,NA,NA,NA,NA,NA
b6e99,"""Falsch""-Screen",canvas.Screen,3_0_4_0_2_1_2,NA,NA,skipped,NA,394447,NA,NA,394439.86,394447,2023-09-07T14:51:58Z,394456.38,NULL,Vorsorge,tahadhari,s,ufafanuzi,makini,mashambani,NA,sd,NA,4,NA,NA,NA,NA,NA,NA,NA,NA,NA,NA,NA,NA,NA,NA,NA,NA,NA,NA,NA
b6e99,shallow,flow.Sequence,3_0_4_0_2_1,NA,NA,completion,9298.86,385148,385124.76,385141,394439.86,394447,2023-09-07T14:51:58Z,394456.38,NULL,Vorsorge,tahadhari,s,ufafanuzi,makini,mashambani,NA,sd,NA,4,NA,NA,NA,NA,NA,NA,NA,NA,NA,NA,NA,NA,NA,NA,NA,NA,NA,NA,NA
b6e99,task,flow.Sequence,3_0_4_0_2,NA,NA,completion,9298.86,385147,385124.76,385141,394439.86,394447,2023-09-07T14:51:58Z,394456.38,NULL,Vorsorge,tahadhari,s,ufafanuzi,makini,mashambani,NA,sd,NA,4,NA,NA,NA,NA,NA,NA,NA,NA,NA,NA,NA,NA,NA,NA,NA,NA,NA,NA,NA
b6e99,deep,flow.Sequence,3_0_4_0_3_0,NA,NA,skipped,NA,394448,NA,NA,394439.86,394448,2023-09-07T14:51:58Z,394456.38,NULL,Schüler,mwanafunzi,s,mwekezaji,matumizi,uaminifu,NA,sd,NA,4,NA,NA,NA,NA,NA,NA,NA,NA,NA,NA,NA,NA,NA,NA,NA,NA,NA,NA,NA
b6e99,Shallow Question,html.Page,3_0_4_0_3_1_0,NA,NA,form submission,3190.62,394448,394439.86,394456.38,397647,397647,2023-09-07T14:52:01Z,397646.66,NULL,Schüler,mwanafunzi,s,mwekezaji,matumizi,uaminifu,mwanafunzi,NA,NA,4,NA,NA,NA,NA,NA,NA,NA,NA,NA,NA,NA,NA,NA,NA,NA,NA,NA,NA,NA
b6e99,"""Richtig""-Screen",canvas.Screen,3_0_4_0_3_1_1,NA,NA,timeout,4992,397648,397646.52,397646.66,402622.52,402624,2023-09-07T14:52:06Z,402638.66,NULL,Schüler,mwanafunzi,s,mwekezaji,matumizi,uaminifu,NA,sd,1,4,NA,NA,NA,NA,NA,NA,NA,NA,NA,NA,NA,NA,NA,NA,NA,NA,NA,NA,NA
b6e99,"""Falsch""-Screen",canvas.Screen,3_0_4_0_3_1_2,NA,NA,skipped,NA,402630,NA,NA,402622.52,402631,2023-09-07T14:52:06Z,402638.66,NULL,Schüler,mwanafunzi,s,mwekezaji,matumizi,uaminifu,NA,sd,NA,4,NA,NA,NA,NA,NA,NA,NA,NA,NA,NA,NA,NA,NA,NA,NA,NA,NA,NA,NA
b6e99,shallow,flow.Sequence,3_0_4_0_3_1,NA,NA,completion,8166.14,394448,394439.86,394456.38,402622.52,402631,2023-09-07T14:52:06Z,402638.66,NULL,Schüler,mwanafunzi,s,mwekezaji,matumizi,uaminifu,NA,sd,NA,4,NA,NA,NA,NA,NA,NA,NA,NA,NA,NA,NA,NA,NA,NA,NA,NA,NA,NA,NA
b6e99,task,flow.Sequence,3_0_4_0_3,NA,NA,completion,8166.14,394448,394439.86,394456.38,402622.52,402632,2023-09-07T14:52:06Z,402638.66,NULL,Schüler,mwanafunzi,s,mwekezaji,matumizi,uaminifu,NA,sd,NA,4,NA,NA,NA,NA,NA,NA,NA,NA,NA,NA,NA,NA,NA,NA,NA,NA,NA,NA,NA
b6e99,Deep Question,html.Page,3_0_4_0_4_0_0,NA,NA,form submission,5240.34,402632,402622.52,402638.66,407879,407879,2023-09-07T14:52:11Z,407887.96,NULL,Fenster,dirisha,d,NA,NA,NA,dahani,NA,NA,4,NA,NA,NA,NA,NA,NA,NA,NA,NA,NA,NA,NA,NA,NA,NA,NA,NA,NA,NA
b6e99,"""Richtig""-Screen",canvas.Screen,3_0_4_0_4_0_1,NA,NA,skipped,NA,407882,NA,NA,407879,407882,2023-09-07T14:52:11Z,407887.96,NULL,Fenster,dirisha,d,NA,NA,NA,NA,sd,NA,4,NA,NA,NA,NA,NA,NA,NA,NA,NA,NA,NA,NA,NA,NA,NA,NA,NA,NA,NA
b6e99,"""Falsch""-Screen",canvas.Screen,3_0_4_0_4_0_2,NA,NA,timeout,4999.38,407885,407877.66,407887.96,412870.78,412871,2023-09-07T14:52:16Z,412887.34,NULL,Fenster,dirisha,d,NA,NA,NA,NA,sd,0,4,NA,NA,NA,NA,NA,NA,NA,NA,NA,NA,NA,NA,NA,NA,NA,NA,NA,NA,NA
b6e99,deep,flow.Sequence,3_0_4_0_4_0,NA,NA,completion,10232.12,402632,402622.52,402638.66,412870.78,412872,2023-09-07T14:52:16Z,412887.34,NULL,Fenster,dirisha,d,NA,NA,NA,NA,sd,NA,4,NA,NA,NA,NA,NA,NA,NA,NA,NA,NA,NA,NA,NA,NA,NA,NA,NA,NA,NA
b6e99,shallow,flow.Sequence,3_0_4_0_4_1,NA,NA,skipped,NA,412872,NA,NA,412870.78,412873,2023-09-07T14:52:16Z,412887.34,NULL,Fenster,dirisha,d,NA,NA,NA,NA,sd,NA,4,NA,NA,NA,NA,NA,NA,NA,NA,NA,NA,NA,NA,NA,NA,NA,NA,NA,NA,NA
b6e99,task,flow.Sequence,3_0_4_0_4,NA,NA,completion,10232.12,402632,402622.52,402638.66,412870.78,412873,2023-09-07T14:52:16Z,412887.34,NULL,Fenster,dirisha,d,NA,NA,NA,NA,sd,NA,4,NA,NA,NA,NA,NA,NA,NA,NA,NA,NA,NA,NA,NA,NA,NA,NA,NA,NA,NA
b6e99,Deep Question,html.Page,3_0_4_0_5_0_0,NA,NA,form submission,4122.66,412874,412870.78,412887.34,417010,417010,2023-09-07T14:52:21Z,417036.86,NULL,Symbol,kielezo,d,NA,NA,NA,l,NA,NA,4,NA,NA,NA,NA,NA,NA,NA,NA,NA,NA,NA,NA,NA,NA,NA,NA,NA,NA,NA
b6e99,"""Richtig""-Screen",canvas.Screen,3_0_4_0_5_0_1,NA,NA,skipped,NA,417012,NA,NA,417010,417012,2023-09-07T14:52:21Z,417036.86,NULL,Symbol,kielezo,d,NA,NA,NA,NA,sd,NA,4,NA,NA,NA,NA,NA,NA,NA,NA,NA,NA,NA,NA,NA,NA,NA,NA,NA,NA,NA
b6e99,"""Falsch""-Screen",canvas.Screen,3_0_4_0_5_0_2,NA,NA,timeout,4999.28,417021,417020.26,417036.86,422019.82,422021,2023-09-07T14:52:26Z,422036.14,NULL,Symbol,kielezo,d,NA,NA,NA,NA,sd,0,4,NA,NA,NA,NA,NA,NA,NA,NA,NA,NA,NA,NA,NA,NA,NA,NA,NA,NA,NA
b6e99,deep,flow.Sequence,3_0_4_0_5_0,NA,NA,completion,9132.48,412874,412870.78,412887.34,422019.82,422022,2023-09-07T14:52:26Z,422036.14,NULL,Symbol,kielezo,d,NA,NA,NA,NA,sd,NA,4,NA,NA,NA,NA,NA,NA,NA,NA,NA,NA,NA,NA,NA,NA,NA,NA,NA,NA,NA
b6e99,shallow,flow.Sequence,3_0_4_0_5_1,NA,NA,skipped,NA,422022,NA,NA,422019.82,422022,2023-09-07T14:52:26Z,422036.14,NULL,Symbol,kielezo,d,NA,NA,NA,NA,sd,NA,4,NA,NA,NA,NA,NA,NA,NA,NA,NA,NA,NA,NA,NA,NA,NA,NA,NA,NA,NA
b6e99,task,flow.Sequence,3_0_4_0_5,NA,NA,completion,9132.48,412874,412870.78,412887.34,422019.82,422023,2023-09-07T14:52:26Z,422036.14,NULL,Symbol,kielezo,d,NA,NA,NA,NA,sd,NA,4,NA,NA,NA,NA,NA,NA,NA,NA,NA,NA,NA,NA,NA,NA,NA,NA,NA,NA,NA
b6e99,deep,flow.Sequence,3_0_4_0_6_0,NA,NA,skipped,NA,422023,NA,NA,422019.82,422023,2023-09-07T14:52:26Z,422036.14,NULL,Konkurrent,mshindani,s,msemaji,mvutaji,kipukusa,NA,sd,NA,4,NA,NA,NA,NA,NA,NA,NA,NA,NA,NA,NA,NA,NA,NA,NA,NA,NA,NA,NA
b6e99,Shallow Question,html.Page,3_0_4_0_6_1_0,NA,NA,form submission,2954.86,422024,422019.82,422036.14,424991,424992,2023-09-07T14:52:29Z,424990.76,NULL,Konkurrent,mshindani,s,msemaji,mvutaji,kipukusa,mshindani,NA,NA,4,NA,NA,NA,NA,NA,NA,NA,NA,NA,NA,NA,NA,NA,NA,NA,NA,NA,NA,NA
b6e99,"""Richtig""-Screen",canvas.Screen,3_0_4_0_6_1_1,NA,NA,timeout,4994.42,424994,424990.34,424990.76,429968.52,429970,2023-09-07T14:52:34Z,429985.18,NULL,Konkurrent,mshindani,s,msemaji,mvutaji,kipukusa,NA,sd,1,4,NA,NA,NA,NA,NA,NA,NA,NA,NA,NA,NA,NA,NA,NA,NA,NA,NA,NA,NA
b6e99,"""Falsch""-Screen",canvas.Screen,3_0_4_0_6_1_2,NA,NA,skipped,NA,429980,NA,NA,429968.52,429980,2023-09-07T14:52:34Z,429985.18,NULL,Konkurrent,mshindani,s,msemaji,mvutaji,kipukusa,NA,sd,NA,4,NA,NA,NA,NA,NA,NA,NA,NA,NA,NA,NA,NA,NA,NA,NA,NA,NA,NA,NA
b6e99,shallow,flow.Sequence,3_0_4_0_6_1,NA,NA,completion,7932.38,422024,422019.82,422036.14,429968.52,429981,2023-09-07T14:52:34Z,429985.18,NULL,Konkurrent,mshindani,s,msemaji,mvutaji,kipukusa,NA,sd,NA,4,NA,NA,NA,NA,NA,NA,NA,NA,NA,NA,NA,NA,NA,NA,NA,NA,NA,NA,NA
b6e99,task,flow.Sequence,3_0_4_0_6,NA,NA,completion,7932.38,422023,422019.82,422036.14,429968.52,429982,2023-09-07T14:52:34Z,429985.18,NULL,Konkurrent,mshindani,s,msemaji,mvutaji,kipukusa,NA,sd,NA,4,NA,NA,NA,NA,NA,NA,NA,NA,NA,NA,NA,NA,NA,NA,NA,NA,NA,NA,NA
b6e99,Deep Question,html.Page,3_0_4_0_7_0_0,NA,NA,form submission,4424.82,429983,429968.52,429985.18,434410,434410,2023-09-07T14:52:38Z,434417.82,NULL,Spionage,upelelezi,d,NA,NA,NA,j,NA,NA,4,NA,NA,NA,NA,NA,NA,NA,NA,NA,NA,NA,NA,NA,NA,NA,NA,NA,NA,NA
b6e99,"""Richtig""-Screen",canvas.Screen,3_0_4_0_7_0_1,NA,NA,skipped,NA,434411,NA,NA,434410,434411,2023-09-07T14:52:38Z,434417.82,NULL,Spionage,upelelezi,d,NA,NA,NA,NA,sd,NA,4,NA,NA,NA,NA,NA,NA,NA,NA,NA,NA,NA,NA,NA,NA,NA,NA,NA,NA,NA
b6e99,"""Falsch""-Screen",canvas.Screen,3_0_4_0_7_0_2,NA,NA,timeout,4999.62,434414,434408.94,434417.82,439400.68,439403,2023-09-07T14:52:43Z,439417.44,NULL,Spionage,upelelezi,d,NA,NA,NA,NA,sd,0,4,NA,NA,NA,NA,NA,NA,NA,NA,NA,NA,NA,NA,NA,NA,NA,NA,NA,NA,NA
b6e99,deep,flow.Sequence,3_0_4_0_7_0,NA,NA,completion,9415.5,429983,429968.52,429985.18,439400.68,439403,2023-09-07T14:52:43Z,439417.44,NULL,Spionage,upelelezi,d,NA,NA,NA,NA,sd,NA,4,NA,NA,NA,NA,NA,NA,NA,NA,NA,NA,NA,NA,NA,NA,NA,NA,NA,NA,NA
b6e99,shallow,flow.Sequence,3_0_4_0_7_1,NA,NA,skipped,NA,439403,NA,NA,439400.68,439403,2023-09-07T14:52:43Z,439417.44,NULL,Spionage,upelelezi,d,NA,NA,NA,NA,sd,NA,4,NA,NA,NA,NA,NA,NA,NA,NA,NA,NA,NA,NA,NA,NA,NA,NA,NA,NA,NA
b6e99,task,flow.Sequence,3_0_4_0_7,NA,NA,completion,9415.5,429983,429968.52,429985.18,439400.68,439403,2023-09-07T14:52:43Z,439417.44,NULL,Spionage,upelelezi,d,NA,NA,NA,NA,sd,NA,4,NA,NA,NA,NA,NA,NA,NA,NA,NA,NA,NA,NA,NA,NA,NA,NA,NA,NA,NA
b6e99,block,flow.Loop,3_0_4_0,NA,NA,completion,72451.8,366948,366948.58,366948.88,439400.68,439404,2023-09-07T14:52:43Z,439417.44,NULL,NA,NA,NA,NA,NA,NA,NA,sd,NA,4,NA,NA,NA,NA,NA,NA,NA,NA,NA,NA,NA,NA,NA,NA,NA,NA,NA,NA,NA
b6e99,weiter,canvas.Screen,3_0_4_1,sdf,keypress(Space),response,816.56,439404,439400.68,439417.44,440234,440253,2023-09-07T14:52:44Z,440313.26,NULL,NA,NA,NA,NA,NA,NA,NA,sd,NA,4,NA,NA,NA,NA,NA,NA,NA,NA,NA,NA,NA,NA,NA,NA,NA,NA,NA,NA,NA
b6e99,check continue,flow.Sequence,3_0_4,NA,NA,completion,73285.12,366948,366948.58,366948.88,440234,440254,2023-09-07T14:52:44Z,440313.26,NULL,NA,NA,NA,NA,NA,NA,NA,sd,NA,4,NA,NA,NA,NA,NA,NA,NA,NA,NA,NA,NA,NA,NA,NA,NA,NA,NA,NA,NA
b6e99,Deep Question,html.Page,3_0_5_0_0_0_0,NA,NA,form submission,3525.74,440313,440312.78,440313.26,443839,443839,2023-09-07T14:52:47Z,443849.94,NULL,Symbol,kielezo,d,NA,NA,NA,nyongeza,NA,NA,5,NA,NA,NA,NA,NA,NA,NA,NA,NA,NA,NA,NA,NA,NA,NA,NA,NA,NA,NA
b6e99,"""Richtig""-Screen",canvas.Screen,3_0_5_0_0_0_1,NA,NA,skipped,NA,443840,NA,NA,443839,443841,2023-09-07T14:52:47Z,443849.94,NULL,Symbol,kielezo,d,NA,NA,NA,NA,sdf,NA,5,NA,NA,NA,NA,NA,NA,NA,NA,NA,NA,NA,NA,NA,NA,NA,NA,NA,NA,NA
b6e99,"""Falsch""-Screen",canvas.Screen,3_0_5_0_0_0_2,NA,NA,timeout,4999.36,443842,443833.7,443849.94,448832.8,448834,2023-09-07T14:52:52Z,448849.3,NULL,Symbol,kielezo,d,NA,NA,NA,NA,sdf,0,5,NA,NA,NA,NA,NA,NA,NA,NA,NA,NA,NA,NA,NA,NA,NA,NA,NA,NA,NA
b6e99,deep,flow.Sequence,3_0_5_0_0_0,NA,NA,completion,8519.54,440313,440312.78,440313.26,448832.8,448834,2023-09-07T14:52:52Z,448849.3,NULL,Symbol,kielezo,d,NA,NA,NA,NA,sdf,NA,5,NA,NA,NA,NA,NA,NA,NA,NA,NA,NA,NA,NA,NA,NA,NA,NA,NA,NA,NA
b6e99,shallow,flow.Sequence,3_0_5_0_0_1,NA,NA,skipped,NA,448834,NA,NA,448832.8,448835,2023-09-07T14:52:52Z,448849.3,NULL,Symbol,kielezo,d,NA,NA,NA,NA,sdf,NA,5,NA,NA,NA,NA,NA,NA,NA,NA,NA,NA,NA,NA,NA,NA,NA,NA,NA,NA,NA
b6e99,task,flow.Sequence,3_0_5_0_0,NA,NA,completion,8519.54,440313,440312.78,440313.26,448832.8,448835,2023-09-07T14:52:52Z,448849.3,NULL,Symbol,kielezo,d,NA,NA,NA,NA,sdf,NA,5,NA,NA,NA,NA,NA,NA,NA,NA,NA,NA,NA,NA,NA,NA,NA,NA,NA,NA,NA
b6e99,deep,flow.Sequence,3_0_5_0_1_0,NA,NA,skipped,NA,448835,NA,NA,448832.8,448835,2023-09-07T14:52:52Z,448849.3,NULL,Schüler,mwanafunzi,s,mwekezaji,matumizi,uaminifu,NA,sdf,NA,5,NA,NA,NA,NA,NA,NA,NA,NA,NA,NA,NA,NA,NA,NA,NA,NA,NA,NA,NA
b6e99,Shallow Question,html.Page,3_0_5_0_1_1_0,NA,NA,form submission,3073.7,448836,448832.8,448849.3,451923,451923,2023-09-07T14:52:56Z,451922.36,NULL,Schüler,mwanafunzi,s,mwekezaji,matumizi,uaminifu,mwanafunzi,NA,NA,5,NA,NA,NA,NA,NA,NA,NA,NA,NA,NA,NA,NA,NA,NA,NA,NA,NA,NA,NA
b6e99,"""Richtig""-Screen",canvas.Screen,3_0_5_0_1_1_1,NA,NA,timeout,4992.62,451926,451922,451922.36,456898.36,456902,2023-09-07T14:53:01Z,456914.98,NULL,Schüler,mwanafunzi,s,mwekezaji,matumizi,uaminifu,NA,sdf,1,5,NA,NA,NA,NA,NA,NA,NA,NA,NA,NA,NA,NA,NA,NA,NA,NA,NA,NA,NA
b6e99,"""Falsch""-Screen",canvas.Screen,3_0_5_0_1_1_2,NA,NA,skipped,NA,456915,NA,NA,456898.36,456915,2023-09-07T14:53:01Z,456914.98,NULL,Schüler,mwanafunzi,s,mwekezaji,matumizi,uaminifu,NA,sdf,NA,5,NA,NA,NA,NA,NA,NA,NA,NA,NA,NA,NA,NA,NA,NA,NA,NA,NA,NA,NA
b6e99,shallow,flow.Sequence,3_0_5_0_1_1,NA,NA,completion,8049.06,448836,448832.8,448849.3,456898.36,456916,2023-09-07T14:53:01Z,456914.98,NULL,Schüler,mwanafunzi,s,mwekezaji,matumizi,uaminifu,NA,sdf,NA,5,NA,NA,NA,NA,NA,NA,NA,NA,NA,NA,NA,NA,NA,NA,NA,NA,NA,NA,NA
b6e99,task,flow.Sequence,3_0_5_0_1,NA,NA,completion,8049.06,448835,448832.8,448849.3,456898.36,456916,2023-09-07T14:53:01Z,456914.98,NULL,Schüler,mwanafunzi,s,mwekezaji,matumizi,uaminifu,NA,sdf,NA,5,NA,NA,NA,NA,NA,NA,NA,NA,NA,NA,NA,NA,NA,NA,NA,NA,NA,NA,NA
b6e99,Deep Question,html.Page,3_0_5_0_2_0_0,NA,NA,form submission,8295.02,456917,456898.36,456914.98,465210,465210,2023-09-07T14:53:09Z,465213.88,NULL,Fenster,dirisha,d,NA,NA,NA,dishani,NA,NA,5,NA,NA,NA,NA,NA,NA,NA,NA,NA,NA,NA,NA,NA,NA,NA,NA,NA,NA,NA
b6e99,"""Richtig""-Screen",canvas.Screen,3_0_5_0_2_0_1,NA,NA,skipped,NA,465214,NA,NA,465210,465214,2023-09-07T14:53:09Z,465213.88,NULL,Fenster,dirisha,d,NA,NA,NA,NA,sdf,NA,5,NA,NA,NA,NA,NA,NA,NA,NA,NA,NA,NA,NA,NA,NA,NA,NA,NA,NA,NA
b6e99,"""Falsch""-Screen",canvas.Screen,3_0_5_0_2_0_2,NA,NA,timeout,4999.3,465217,465208.98,465213.88,470196.66,470198,2023-09-07T14:53:14Z,470213.18,NULL,Fenster,dirisha,d,NA,NA,NA,NA,sdf,0,5,NA,NA,NA,NA,NA,NA,NA,NA,NA,NA,NA,NA,NA,NA,NA,NA,NA,NA,NA
b6e99,deep,flow.Sequence,3_0_5_0_2_0,NA,NA,completion,13281.68,456917,456898.36,456914.98,470196.66,470199,2023-09-07T14:53:14Z,470213.18,NULL,Fenster,dirisha,d,NA,NA,NA,NA,sdf,NA,5,NA,NA,NA,NA,NA,NA,NA,NA,NA,NA,NA,NA,NA,NA,NA,NA,NA,NA,NA
b6e99,shallow,flow.Sequence,3_0_5_0_2_1,NA,NA,skipped,NA,470200,NA,NA,470196.66,470200,2023-09-07T14:53:14Z,470213.18,NULL,Fenster,dirisha,d,NA,NA,NA,NA,sdf,NA,5,NA,NA,NA,NA,NA,NA,NA,NA,NA,NA,NA,NA,NA,NA,NA,NA,NA,NA,NA
b6e99,task,flow.Sequence,3_0_5_0_2,NA,NA,completion,13281.68,456916,456898.36,456914.98,470196.66,470202,2023-09-07T14:53:14Z,470213.18,NULL,Fenster,dirisha,d,NA,NA,NA,NA,sdf,NA,5,NA,NA,NA,NA,NA,NA,NA,NA,NA,NA,NA,NA,NA,NA,NA,NA,NA,NA,NA
b6e99,deep,flow.Sequence,3_0_5_0_3_0,NA,NA,skipped,NA,470203,NA,NA,470196.66,470204,2023-09-07T14:53:14Z,470213.18,NULL,Tester,wanaojaribu,s,sherti,sihiri,mlipuko,NA,sdf,NA,5,NA,NA,NA,NA,NA,NA,NA,NA,NA,NA,NA,NA,NA,NA,NA,NA,NA,NA,NA
b6e99,Shallow Question,html.Page,3_0_5_0_3_1_0,NA,NA,form submission,2644.82,470205,470196.66,470213.18,472858,472859,2023-09-07T14:53:16Z,472862.88,NULL,Tester,wanaojaribu,s,sherti,sihiri,mlipuko,wanaojaribu,NA,NA,5,NA,NA,NA,NA,NA,NA,NA,NA,NA,NA,NA,NA,NA,NA,NA,NA,NA,NA,NA
b6e99,"""Richtig""-Screen",canvas.Screen,3_0_5_0_3_1_1,NA,NA,timeout,4999.4,472862,472857.64,472862.88,477846.06,477847,2023-09-07T14:53:21Z,477862.28,NULL,Tester,wanaojaribu,s,sherti,sihiri,mlipuko,NA,sdf,1,5,NA,NA,NA,NA,NA,NA,NA,NA,NA,NA,NA,NA,NA,NA,NA,NA,NA,NA,NA
b6e99,"""Falsch""-Screen",canvas.Screen,3_0_5_0_3_1_2,NA,NA,skipped,NA,477854,NA,NA,477846.06,477855,2023-09-07T14:53:21Z,477862.28,NULL,Tester,wanaojaribu,s,sherti,sihiri,mlipuko,NA,sdf,NA,5,NA,NA,NA,NA,NA,NA,NA,NA,NA,NA,NA,NA,NA,NA,NA,NA,NA,NA,NA
b6e99,shallow,flow.Sequence,3_0_5_0_3_1,NA,NA,completion,7632.88,470205,470196.66,470213.18,477846.06,477855,2023-09-07T14:53:21Z,477862.28,NULL,Tester,wanaojaribu,s,sherti,sihiri,mlipuko,NA,sdf,NA,5,NA,NA,NA,NA,NA,NA,NA,NA,NA,NA,NA,NA,NA,NA,NA,NA,NA,NA,NA
b6e99,task,flow.Sequence,3_0_5_0_3,NA,NA,completion,7632.88,470202,470196.66,470213.18,477846.06,477856,2023-09-07T14:53:21Z,477862.28,NULL,Tester,wanaojaribu,s,sherti,sihiri,mlipuko,NA,sdf,NA,5,NA,NA,NA,NA,NA,NA,NA,NA,NA,NA,NA,NA,NA,NA,NA,NA,NA,NA,NA
b6e99,Deep Question,html.Page,3_0_5_0_4_0_0,NA,NA,form submission,3677.72,477857,477846.06,477862.28,481540,481540,2023-09-07T14:53:25Z,481545.08,NULL,Zuwachs,nyongeza,d,NA,NA,NA,nyongeza,NA,NA,5,NA,NA,NA,NA,NA,NA,NA,NA,NA,NA,NA,NA,NA,NA,NA,NA,NA,NA,NA
b6e99,"""Richtig""-Screen",canvas.Screen,3_0_5_0_4_0_1,NA,NA,timeout,4999.42,481543,481528.5,481545.08,486527.78,486528,2023-09-07T14:53:30Z,486544.5,NULL,Zuwachs,nyongeza,d,NA,NA,NA,NA,sdf,1,5,NA,NA,NA,NA,NA,NA,NA,NA,NA,NA,NA,NA,NA,NA,NA,NA,NA,NA,NA
b6e99,"""Falsch""-Screen",canvas.Screen,3_0_5_0_4_0_2,NA,NA,skipped,NA,486532,NA,NA,486527.78,486532,2023-09-07T14:53:30Z,486544.5,NULL,Zuwachs,nyongeza,d,NA,NA,NA,NA,sdf,NA,5,NA,NA,NA,NA,NA,NA,NA,NA,NA,NA,NA,NA,NA,NA,NA,NA,NA,NA,NA
b6e99,deep,flow.Sequence,3_0_5_0_4_0,NA,NA,completion,8665.5,477857,477846.06,477862.28,486527.78,486532,2023-09-07T14:53:30Z,486544.5,NULL,Zuwachs,nyongeza,d,NA,NA,NA,NA,sdf,NA,5,NA,NA,NA,NA,NA,NA,NA,NA,NA,NA,NA,NA,NA,NA,NA,NA,NA,NA,NA
b6e99,shallow,flow.Sequence,3_0_5_0_4_1,NA,NA,skipped,NA,486533,NA,NA,486527.78,486533,2023-09-07T14:53:30Z,486544.5,NULL,Zuwachs,nyongeza,d,NA,NA,NA,NA,sdf,NA,5,NA,NA,NA,NA,NA,NA,NA,NA,NA,NA,NA,NA,NA,NA,NA,NA,NA,NA,NA
b6e99,task,flow.Sequence,3_0_5_0_4,NA,NA,completion,8665.5,477857,477846.06,477862.28,486527.78,486533,2023-09-07T14:53:30Z,486544.5,NULL,Zuwachs,nyongeza,d,NA,NA,NA,NA,sdf,NA,5,NA,NA,NA,NA,NA,NA,NA,NA,NA,NA,NA,NA,NA,NA,NA,NA,NA,NA,NA
b6e99,Deep Question,html.Page,3_0_5_0_5_0_0,NA,NA,form submission,5706.5,486534,486527.78,486544.5,492251,492251,2023-09-07T14:53:36Z,492250.5,NULL,Spionage,upelelezi,d,NA,NA,NA,h,NA,NA,5,NA,NA,NA,NA,NA,NA,NA,NA,NA,NA,NA,NA,NA,NA,NA,NA,NA,NA,NA
b6e99,"""Richtig""-Screen",canvas.Screen,3_0_5_0_5_0_1,NA,NA,skipped,NA,492254,NA,NA,492251,492254,2023-09-07T14:53:36Z,492250.5,NULL,Spionage,upelelezi,d,NA,NA,NA,NA,sdf,NA,5,NA,NA,NA,NA,NA,NA,NA,NA,NA,NA,NA,NA,NA,NA,NA,NA,NA,NA,NA
b6e99,"""Falsch""-Screen",canvas.Screen,3_0_5_0_5_0_2,NA,NA,timeout,4992.5,492257,492250.16,492250.5,497226.6,497227,2023-09-07T14:53:41Z,497243,NULL,Spionage,upelelezi,d,NA,NA,NA,NA,sdf,0,5,NA,NA,NA,NA,NA,NA,NA,NA,NA,NA,NA,NA,NA,NA,NA,NA,NA,NA,NA
b6e99,deep,flow.Sequence,3_0_5_0_5_0,NA,NA,completion,10682.1,486534,486527.78,486544.5,497226.6,497228,2023-09-07T14:53:41Z,497243,NULL,Spionage,upelelezi,d,NA,NA,NA,NA,sdf,NA,5,NA,NA,NA,NA,NA,NA,NA,NA,NA,NA,NA,NA,NA,NA,NA,NA,NA,NA,NA
b6e99,shallow,flow.Sequence,3_0_5_0_5_1,NA,NA,skipped,NA,497228,NA,NA,497226.6,497228,2023-09-07T14:53:41Z,497243,NULL,Spionage,upelelezi,d,NA,NA,NA,NA,sdf,NA,5,NA,NA,NA,NA,NA,NA,NA,NA,NA,NA,NA,NA,NA,NA,NA,NA,NA,NA,NA
b6e99,task,flow.Sequence,3_0_5_0_5,NA,NA,completion,10682.1,486533,486527.78,486544.5,497226.6,497228,2023-09-07T14:53:41Z,497243,NULL,Spionage,upelelezi,d,NA,NA,NA,NA,sdf,NA,5,NA,NA,NA,NA,NA,NA,NA,NA,NA,NA,NA,NA,NA,NA,NA,NA,NA,NA,NA
b6e99,deep,flow.Sequence,3_0_5_0_6_0,NA,NA,skipped,NA,497228,NA,NA,497226.6,497228,2023-09-07T14:53:41Z,497243,NULL,Vorsorge,tahadhari,s,ufafanuzi,makini,mashambani,NA,sdf,NA,5,NA,NA,NA,NA,NA,NA,NA,NA,NA,NA,NA,NA,NA,NA,NA,NA,NA,NA,NA
b6e99,Shallow Question,html.Page,3_0_5_0_6_1_0,NA,NA,form submission,5657,497228,497226.6,497243,502900,502900,2023-09-07T14:53:47Z,502898.94,NULL,Vorsorge,tahadhari,s,ufafanuzi,makini,mashambani,ufafanuzi,NA,NA,5,NA,NA,NA,NA,NA,NA,NA,NA,NA,NA,NA,NA,NA,NA,NA,NA,NA,NA,NA
b6e99,"""Richtig""-Screen",canvas.Screen,3_0_5_0_6_1_1,NA,NA,skipped,NA,502903,NA,NA,502900,502903,2023-09-07T14:53:47Z,502898.94,NULL,Vorsorge,tahadhari,s,ufafanuzi,makini,mashambani,NA,sdf,NA,5,NA,NA,NA,NA,NA,NA,NA,NA,NA,NA,NA,NA,NA,NA,NA,NA,NA,NA,NA
b6e99,"""Falsch""-Screen",canvas.Screen,3_0_5_0_6_1_2,NA,NA,timeout,4993.02,502905,502898.52,502898.94,507875.04,507876,2023-09-07T14:53:51Z,507891.96,NULL,Vorsorge,tahadhari,s,ufafanuzi,makini,mashambani,NA,sdf,0,5,NA,NA,NA,NA,NA,NA,NA,NA,NA,NA,NA,NA,NA,NA,NA,NA,NA,NA,NA
b6e99,shallow,flow.Sequence,3_0_5_0_6_1,NA,NA,completion,10632.04,497228,497226.6,497243,507875.04,507877,2023-09-07T14:53:51Z,507891.96,NULL,Vorsorge,tahadhari,s,ufafanuzi,makini,mashambani,NA,sdf,NA,5,NA,NA,NA,NA,NA,NA,NA,NA,NA,NA,NA,NA,NA,NA,NA,NA,NA,NA,NA
b6e99,task,flow.Sequence,3_0_5_0_6,NA,NA,completion,10632.04,497228,497226.6,497243,507875.04,507877,2023-09-07T14:53:51Z,507891.96,NULL,Vorsorge,tahadhari,s,ufafanuzi,makini,mashambani,NA,sdf,NA,5,NA,NA,NA,NA,NA,NA,NA,NA,NA,NA,NA,NA,NA,NA,NA,NA,NA,NA,NA
b6e99,deep,flow.Sequence,3_0_5_0_7_0,NA,NA,skipped,NA,507877,NA,NA,507875.04,507877,2023-09-07T14:53:51Z,507891.96,NULL,Konkurrent,mshindani,s,msemaji,mvutaji,kipukusa,NA,sdf,NA,5,NA,NA,NA,NA,NA,NA,NA,NA,NA,NA,NA,NA,NA,NA,NA,NA,NA,NA,NA
b6e99,Shallow Question,html.Page,3_0_5_0_7_1_0,NA,NA,form submission,2369.04,507878,507875.04,507891.96,510261,510261,2023-09-07T14:53:54Z,510274.9,NULL,Konkurrent,mshindani,s,msemaji,mvutaji,kipukusa,mshindani,NA,NA,5,NA,NA,NA,NA,NA,NA,NA,NA,NA,NA,NA,NA,NA,NA,NA,NA,NA,NA,NA
b6e99,"""Richtig""-Screen",canvas.Screen,3_0_5_0_7_1_1,NA,NA,timeout,4999.1,510264,510259.8,510274.9,515257.46,515260,2023-09-07T14:53:59Z,515274,NULL,Konkurrent,mshindani,s,msemaji,mvutaji,kipukusa,NA,sdf,1,5,NA,NA,NA,NA,NA,NA,NA,NA,NA,NA,NA,NA,NA,NA,NA,NA,NA,NA,NA
b6e99,"""Falsch""-Screen",canvas.Screen,3_0_5_0_7_1_2,NA,NA,skipped,NA,515273,NA,NA,515257.46,515273,2023-09-07T14:53:59Z,515274,NULL,Konkurrent,mshindani,s,msemaji,mvutaji,kipukusa,NA,sdf,NA,5,NA,NA,NA,NA,NA,NA,NA,NA,NA,NA,NA,NA,NA,NA,NA,NA,NA,NA,NA
b6e99,shallow,flow.Sequence,3_0_5_0_7_1,NA,NA,completion,7365.5,507878,507875.04,507891.96,515257.46,515274,2023-09-07T14:53:59Z,515274,NULL,Konkurrent,mshindani,s,msemaji,mvutaji,kipukusa,NA,sdf,NA,5,NA,NA,NA,NA,NA,NA,NA,NA,NA,NA,NA,NA,NA,NA,NA,NA,NA,NA,NA
b6e99,task,flow.Sequence,3_0_5_0_7,NA,NA,completion,7365.5,507877,507875.04,507891.96,515257.46,515274,2023-09-07T14:53:59Z,515274,NULL,Konkurrent,mshindani,s,msemaji,mvutaji,kipukusa,NA,sdf,NA,5,NA,NA,NA,NA,NA,NA,NA,NA,NA,NA,NA,NA,NA,NA,NA,NA,NA,NA,NA
b6e99,block,flow.Loop,3_0_5_0,NA,NA,completion,74944.2,440313,440312.78,440313.26,515257.46,515274,2023-09-07T14:53:59Z,515274,NULL,NA,NA,NA,NA,NA,NA,NA,sdf,NA,5,NA,NA,NA,NA,NA,NA,NA,NA,NA,NA,NA,NA,NA,NA,NA,NA,NA,NA,NA
b6e99,weiter,canvas.Screen,3_0_5_1,sdf,keypress(Space),response,679,515275,515257.46,515274,515953,515970,2023-09-07T14:54:00Z,516010.96,NULL,NA,NA,NA,NA,NA,NA,NA,sdf,NA,5,NA,NA,NA,NA,NA,NA,NA,NA,NA,NA,NA,NA,NA,NA,NA,NA,NA,NA,NA
b6e99,check continue,flow.Sequence,3_0_5,NA,NA,completion,75639.74,440313,440312.78,440313.26,515953,515970,2023-09-07T14:54:00Z,516010.96,NULL,NA,NA,NA,NA,NA,NA,NA,sdf,NA,5,NA,NA,NA,NA,NA,NA,NA,NA,NA,NA,NA,NA,NA,NA,NA,NA,NA,NA,NA
b6e99,Deep Question,html.Page,3_0_6_0_0_0_0,NA,NA,form submission,6449.04,516010,516010.58,516010.96,522460,522460,2023-09-07T14:54:06Z,522458.86,NULL,Symbol,kielezo,d,NA,NA,NA,upelelezi,NA,NA,6,NA,NA,NA,NA,NA,NA,NA,NA,NA,NA,NA,NA,NA,NA,NA,NA,NA,NA,NA
b6e99,"""Richtig""-Screen",canvas.Screen,3_0_6_0_0_0_1,NA,NA,skipped,NA,522463,NA,NA,522460,522463,2023-09-07T14:54:06Z,522458.86,NULL,Symbol,kielezo,d,NA,NA,NA,NA,dfs,NA,6,NA,NA,NA,NA,NA,NA,NA,NA,NA,NA,NA,NA,NA,NA,NA,NA,NA,NA,NA
b6e99,"""Falsch""-Screen",canvas.Screen,3_0_6_0_0_0_2,NA,NA,timeout,4997,522466,522458.54,522458.86,527439.18,527440,2023-09-07T14:54:11Z,527455.86,NULL,Symbol,kielezo,d,NA,NA,NA,NA,dfs,0,6,NA,NA,NA,NA,NA,NA,NA,NA,NA,NA,NA,NA,NA,NA,NA,NA,NA,NA,NA
b6e99,deep,flow.Sequence,3_0_6_0_0_0,NA,NA,completion,11428.22,516010,516010.58,516010.96,527439.18,527441,2023-09-07T14:54:11Z,527455.86,NULL,Symbol,kielezo,d,NA,NA,NA,NA,dfs,NA,6,NA,NA,NA,NA,NA,NA,NA,NA,NA,NA,NA,NA,NA,NA,NA,NA,NA,NA,NA
b6e99,shallow,flow.Sequence,3_0_6_0_0_1,NA,NA,skipped,NA,527443,NA,NA,527439.18,527443,2023-09-07T14:54:11Z,527455.86,NULL,Symbol,kielezo,d,NA,NA,NA,NA,dfs,NA,6,NA,NA,NA,NA,NA,NA,NA,NA,NA,NA,NA,NA,NA,NA,NA,NA,NA,NA,NA
b6e99,task,flow.Sequence,3_0_6_0_0,NA,NA,completion,11428.22,516010,516010.58,516010.96,527439.18,527443,2023-09-07T14:54:11Z,527455.86,NULL,Symbol,kielezo,d,NA,NA,NA,NA,dfs,NA,6,NA,NA,NA,NA,NA,NA,NA,NA,NA,NA,NA,NA,NA,NA,NA,NA,NA,NA,NA
b6e99,deep,flow.Sequence,3_0_6_0_1_0,NA,NA,skipped,NA,527443,NA,NA,527439.18,527443,2023-09-07T14:54:11Z,527455.86,NULL,Vorsorge,tahadhari,s,ufafanuzi,makini,mashambani,NA,dfs,NA,6,NA,NA,NA,NA,NA,NA,NA,NA,NA,NA,NA,NA,NA,NA,NA,NA,NA,NA,NA
b6e99,Shallow Question,html.Page,3_0_6_0_1_1_0,NA,NA,form submission,2432.14,527444,527439.18,527455.86,529888,529888,2023-09-07T14:54:13Z,529888.8,NULL,Vorsorge,tahadhari,s,ufafanuzi,makini,mashambani,tahadhari,NA,NA,6,NA,NA,NA,NA,NA,NA,NA,NA,NA,NA,NA,NA,NA,NA,NA,NA,NA,NA,NA
b6e99,"""Richtig""-Screen",canvas.Screen,3_0_6_0_1_1_1,NA,NA,timeout,4999.34,529891,529886.78,529888.8,534872,534873,2023-09-07T14:54:18Z,534888.14,NULL,Vorsorge,tahadhari,s,ufafanuzi,makini,mashambani,NA,dfs,1,6,NA,NA,NA,NA,NA,NA,NA,NA,NA,NA,NA,NA,NA,NA,NA,NA,NA,NA,NA
b6e99,"""Falsch""-Screen",canvas.Screen,3_0_6_0_1_1_2,NA,NA,skipped,NA,534879,NA,NA,534872,534880,2023-09-07T14:54:18Z,534888.14,NULL,Vorsorge,tahadhari,s,ufafanuzi,makini,mashambani,NA,dfs,NA,6,NA,NA,NA,NA,NA,NA,NA,NA,NA,NA,NA,NA,NA,NA,NA,NA,NA,NA,NA
b6e99,shallow,flow.Sequence,3_0_6_0_1_1,NA,NA,completion,7416.14,527444,527439.18,527455.86,534872,534880,2023-09-07T14:54:18Z,534888.14,NULL,Vorsorge,tahadhari,s,ufafanuzi,makini,mashambani,NA,dfs,NA,6,NA,NA,NA,NA,NA,NA,NA,NA,NA,NA,NA,NA,NA,NA,NA,NA,NA,NA,NA
b6e99,task,flow.Sequence,3_0_6_0_1,NA,NA,completion,7416.14,527443,527439.18,527455.86,534872,534881,2023-09-07T14:54:18Z,534888.14,NULL,Vorsorge,tahadhari,s,ufafanuzi,makini,mashambani,NA,dfs,NA,6,NA,NA,NA,NA,NA,NA,NA,NA,NA,NA,NA,NA,NA,NA,NA,NA,NA,NA,NA
b6e99,deep,flow.Sequence,3_0_6_0_2_0,NA,NA,skipped,NA,534881,NA,NA,534872,534881,2023-09-07T14:54:18Z,534888.14,NULL,Konkurrent,mshindani,s,msemaji,mvutaji,kipukusa,NA,dfs,NA,6,NA,NA,NA,NA,NA,NA,NA,NA,NA,NA,NA,NA,NA,NA,NA,NA,NA,NA,NA
b6e99,Shallow Question,html.Page,3_0_6_0_2_1_0,NA,NA,form submission,3035.86,534882,534872,534888.14,537924,537924,2023-09-07T14:54:22Z,537923.16,NULL,Konkurrent,mshindani,s,msemaji,mvutaji,kipukusa,mshindani,NA,NA,6,NA,NA,NA,NA,NA,NA,NA,NA,NA,NA,NA,NA,NA,NA,NA,NA,NA,NA,NA
b6e99,"""Richtig""-Screen",canvas.Screen,3_0_6_0_2_1_1,NA,NA,timeout,4997.2799999999,537926,537922.86,537923.16,542904.18,542905,2023-09-07T14:54:27Z,542920.44,NULL,Konkurrent,mshindani,s,msemaji,mvutaji,kipukusa,NA,dfs,1,6,NA,NA,NA,NA,NA,NA,NA,NA,NA,NA,NA,NA,NA,NA,NA,NA,NA,NA,NA
b6e99,"""Falsch""-Screen",canvas.Screen,3_0_6_0_2_1_2,NA,NA,skipped,NA,542909,NA,NA,542904.18,542910,2023-09-07T14:54:27Z,542920.44,NULL,Konkurrent,mshindani,s,msemaji,mvutaji,kipukusa,NA,dfs,NA,6,NA,NA,NA,NA,NA,NA,NA,NA,NA,NA,NA,NA,NA,NA,NA,NA,NA,NA,NA
b6e99,shallow,flow.Sequence,3_0_6_0_2_1,NA,NA,completion,8016.04,534882,534872,534888.14,542904.18,542910,2023-09-07T14:54:27Z,542920.44,NULL,Konkurrent,mshindani,s,msemaji,mvutaji,kipukusa,NA,dfs,NA,6,NA,NA,NA,NA,NA,NA,NA,NA,NA,NA,NA,NA,NA,NA,NA,NA,NA,NA,NA
b6e99,task,flow.Sequence,3_0_6_0_2,NA,NA,completion,8016.04,534881,534872,534888.14,542904.18,542910,2023-09-07T14:54:27Z,542920.44,NULL,Konkurrent,mshindani,s,msemaji,mvutaji,kipukusa,NA,dfs,NA,6,NA,NA,NA,NA,NA,NA,NA,NA,NA,NA,NA,NA,NA,NA,NA,NA,NA,NA,NA
b6e99,Deep Question,html.Page,3_0_6_0_3_0_0,NA,NA,form submission,4180.5600000001,542911,542904.18,542920.44,547101,547102,2023-09-07T14:54:31Z,547103.22,NULL,Spionage,upelelezi,d,NA,NA,NA,upelelezi,NA,NA,6,NA,NA,NA,NA,NA,NA,NA,NA,NA,NA,NA,NA,NA,NA,NA,NA,NA,NA,NA
b6e99,"""Richtig""-Screen",canvas.Screen,3_0_6_0_3_0_1,NA,NA,timeout,4999.3,547105,547100.82,547103.22,552086.2,552087,2023-09-07T14:54:36Z,552102.52,NULL,Spionage,upelelezi,d,NA,NA,NA,NA,dfs,1,6,NA,NA,NA,NA,NA,NA,NA,NA,NA,NA,NA,NA,NA,NA,NA,NA,NA,NA,NA
b6e99,"""Falsch""-Screen",canvas.Screen,3_0_6_0_3_0_2,NA,NA,skipped,NA,552092,NA,NA,552086.2,552092,2023-09-07T14:54:36Z,552102.52,NULL,Spionage,upelelezi,d,NA,NA,NA,NA,dfs,NA,6,NA,NA,NA,NA,NA,NA,NA,NA,NA,NA,NA,NA,NA,NA,NA,NA,NA,NA,NA
b6e99,deep,flow.Sequence,3_0_6_0_3_0,NA,NA,completion,9165.76,542911,542904.18,542920.44,552086.2,552093,2023-09-07T14:54:36Z,552102.52,NULL,Spionage,upelelezi,d,NA,NA,NA,NA,dfs,NA,6,NA,NA,NA,NA,NA,NA,NA,NA,NA,NA,NA,NA,NA,NA,NA,NA,NA,NA,NA
b6e99,shallow,flow.Sequence,3_0_6_0_3_1,NA,NA,skipped,NA,552093,NA,NA,552086.2,552093,2023-09-07T14:54:36Z,552102.52,NULL,Spionage,upelelezi,d,NA,NA,NA,NA,dfs,NA,6,NA,NA,NA,NA,NA,NA,NA,NA,NA,NA,NA,NA,NA,NA,NA,NA,NA,NA,NA
b6e99,task,flow.Sequence,3_0_6_0_3,NA,NA,completion,9165.76,542911,542904.18,542920.44,552086.2,552093,2023-09-07T14:54:36Z,552102.52,NULL,Spionage,upelelezi,d,NA,NA,NA,NA,dfs,NA,6,NA,NA,NA,NA,NA,NA,NA,NA,NA,NA,NA,NA,NA,NA,NA,NA,NA,NA,NA
b6e99,deep,flow.Sequence,3_0_6_0_4_0,NA,NA,skipped,NA,552093,NA,NA,552086.2,552093,2023-09-07T14:54:36Z,552102.52,NULL,Tester,wanaojaribu,s,sherti,sihiri,mlipuko,NA,dfs,NA,6,NA,NA,NA,NA,NA,NA,NA,NA,NA,NA,NA,NA,NA,NA,NA,NA,NA,NA,NA
b6e99,Shallow Question,html.Page,3_0_6_0_4_1_0,NA,NA,form submission,3535.48,552093,552086.2,552102.52,555638,555639,2023-09-07T14:54:39Z,555637.6,NULL,Tester,wanaojaribu,s,sherti,sihiri,mlipuko,wanaojaribu,NA,NA,6,NA,NA,NA,NA,NA,NA,NA,NA,NA,NA,NA,NA,NA,NA,NA,NA,NA,NA,NA
b6e99,"""Richtig""-Screen",canvas.Screen,3_0_6_0_4_1_1,NA,NA,timeout,4997.24,555640,555637.44,555637.6,560618.18,560620,2023-09-07T14:54:44Z,560634.84,NULL,Tester,wanaojaribu,s,sherti,sihiri,mlipuko,NA,dfs,1,6,NA,NA,NA,NA,NA,NA,NA,NA,NA,NA,NA,NA,NA,NA,NA,NA,NA,NA,NA
b6e99,"""Falsch""-Screen",canvas.Screen,3_0_6_0_4_1_2,NA,NA,skipped,NA,560626,NA,NA,560618.18,560626,2023-09-07T14:54:44Z,560634.84,NULL,Tester,wanaojaribu,s,sherti,sihiri,mlipuko,NA,dfs,NA,6,NA,NA,NA,NA,NA,NA,NA,NA,NA,NA,NA,NA,NA,NA,NA,NA,NA,NA,NA
b6e99,shallow,flow.Sequence,3_0_6_0_4_1,NA,NA,completion,8515.66,552093,552086.2,552102.52,560618.18,560626,2023-09-07T14:54:44Z,560634.84,NULL,Tester,wanaojaribu,s,sherti,sihiri,mlipuko,NA,dfs,NA,6,NA,NA,NA,NA,NA,NA,NA,NA,NA,NA,NA,NA,NA,NA,NA,NA,NA,NA,NA
b6e99,task,flow.Sequence,3_0_6_0_4,NA,NA,completion,8515.66,552093,552086.2,552102.52,560618.18,560627,2023-09-07T14:54:44Z,560634.84,NULL,Tester,wanaojaribu,s,sherti,sihiri,mlipuko,NA,dfs,NA,6,NA,NA,NA,NA,NA,NA,NA,NA,NA,NA,NA,NA,NA,NA,NA,NA,NA,NA,NA
b6e99,deep,flow.Sequence,3_0_6_0_5_0,NA,NA,skipped,NA,560627,NA,NA,560618.18,560627,2023-09-07T14:54:44Z,560634.84,NULL,Schüler,mwanafunzi,s,mwekezaji,matumizi,uaminifu,NA,dfs,NA,6,NA,NA,NA,NA,NA,NA,NA,NA,NA,NA,NA,NA,NA,NA,NA,NA,NA,NA,NA
b6e99,Shallow Question,html.Page,3_0_6_0_5_1_0,NA,NA,form submission,2646.16,560628,560618.18,560634.84,563281,563281,2023-09-07T14:54:47Z,563284.46,NULL,Schüler,mwanafunzi,s,mwekezaji,matumizi,uaminifu,mwanafunzi,NA,NA,6,NA,NA,NA,NA,NA,NA,NA,NA,NA,NA,NA,NA,NA,NA,NA,NA,NA,NA,NA
b6e99,"""Richtig""-Screen",canvas.Screen,3_0_6_0_5_1_1,NA,NA,timeout,4999.3,563283,563279.94,563284.46,568270.78,568272,2023-09-07T14:54:52Z,568283.76,NULL,Schüler,mwanafunzi,s,mwekezaji,matumizi,uaminifu,NA,dfs,1,6,NA,NA,NA,NA,NA,NA,NA,NA,NA,NA,NA,NA,NA,NA,NA,NA,NA,NA,NA
b6e99,"""Falsch""-Screen",canvas.Screen,3_0_6_0_5_1_2,NA,NA,skipped,NA,568273,NA,NA,568270.78,568274,2023-09-07T14:54:52Z,568283.76,NULL,Schüler,mwanafunzi,s,mwekezaji,matumizi,uaminifu,NA,dfs,NA,6,NA,NA,NA,NA,NA,NA,NA,NA,NA,NA,NA,NA,NA,NA,NA,NA,NA,NA,NA
b6e99,shallow,flow.Sequence,3_0_6_0_5_1,NA,NA,completion,7635.9400000001,560628,560618.18,560634.84,568270.78,568275,2023-09-07T14:54:52Z,568283.76,NULL,Schüler,mwanafunzi,s,mwekezaji,matumizi,uaminifu,NA,dfs,NA,6,NA,NA,NA,NA,NA,NA,NA,NA,NA,NA,NA,NA,NA,NA,NA,NA,NA,NA,NA
b6e99,task,flow.Sequence,3_0_6_0_5,NA,NA,completion,7635.9400000001,560627,560618.18,560634.84,568270.78,568275,2023-09-07T14:54:52Z,568283.76,NULL,Schüler,mwanafunzi,s,mwekezaji,matumizi,uaminifu,NA,dfs,NA,6,NA,NA,NA,NA,NA,NA,NA,NA,NA,NA,NA,NA,NA,NA,NA,NA,NA,NA,NA
b6e99,Deep Question,html.Page,3_0_6_0_6_0_0,NA,NA,form submission,4577.24,568275,568270.78,568283.76,572861,572861,2023-09-07T14:54:56Z,572866.54,NULL,Zuwachs,nyongeza,d,NA,NA,NA,nyongeza,NA,NA,6,NA,NA,NA,NA,NA,NA,NA,NA,NA,NA,NA,NA,NA,NA,NA,NA,NA,NA,NA
b6e99,"""Richtig""-Screen",canvas.Screen,3_0_6_0_6_0_1,NA,NA,timeout,4999.3199999999,572864,572860.42,572866.54,577849.28,577853,2023-09-07T14:55:01Z,577865.86,NULL,Zuwachs,nyongeza,d,NA,NA,NA,NA,dfs,1,6,NA,NA,NA,NA,NA,NA,NA,NA,NA,NA,NA,NA,NA,NA,NA,NA,NA,NA,NA
b6e99,"""Falsch""-Screen",canvas.Screen,3_0_6_0_6_0_2,NA,NA,skipped,NA,577863,NA,NA,577849.28,577864,2023-09-07T14:55:01Z,577865.86,NULL,Zuwachs,nyongeza,d,NA,NA,NA,NA,dfs,NA,6,NA,NA,NA,NA,NA,NA,NA,NA,NA,NA,NA,NA,NA,NA,NA,NA,NA,NA,NA
b6e99,deep,flow.Sequence,3_0_6_0_6_0,NA,NA,completion,9565.52,568275,568270.78,568283.76,577849.28,577865,2023-09-07T14:55:01Z,577865.86,NULL,Zuwachs,nyongeza,d,NA,NA,NA,NA,dfs,NA,6,NA,NA,NA,NA,NA,NA,NA,NA,NA,NA,NA,NA,NA,NA,NA,NA,NA,NA,NA
b6e99,shallow,flow.Sequence,3_0_6_0_6_1,NA,NA,skipped,NA,577865,NA,NA,577849.28,577865,2023-09-07T14:55:01Z,577865.86,NULL,Zuwachs,nyongeza,d,NA,NA,NA,NA,dfs,NA,6,NA,NA,NA,NA,NA,NA,NA,NA,NA,NA,NA,NA,NA,NA,NA,NA,NA,NA,NA
b6e99,task,flow.Sequence,3_0_6_0_6,NA,NA,completion,9565.52,568275,568270.78,568283.76,577849.28,577865,2023-09-07T14:55:01Z,577865.86,NULL,Zuwachs,nyongeza,d,NA,NA,NA,NA,dfs,NA,6,NA,NA,NA,NA,NA,NA,NA,NA,NA,NA,NA,NA,NA,NA,NA,NA,NA,NA,NA
b6e99,Deep Question,html.Page,3_0_6_0_7_0_0,NA,NA,form submission,11841.14,577866,577849.28,577865.86,589707,589709,2023-09-07T14:55:13Z,589714.44,NULL,Fenster,dirisha,d,NA,NA,NA,tihani,NA,NA,6,NA,NA,NA,NA,NA,NA,NA,NA,NA,NA,NA,NA,NA,NA,NA,NA,NA,NA,NA
b6e99,"""Richtig""-Screen",canvas.Screen,3_0_6_0_7_0_1,NA,NA,skipped,NA,589711,NA,NA,589707,589711,2023-09-07T14:55:13Z,589714.44,NULL,Fenster,dirisha,d,NA,NA,NA,NA,dfs,NA,6,NA,NA,NA,NA,NA,NA,NA,NA,NA,NA,NA,NA,NA,NA,NA,NA,NA,NA,NA
b6e99,"""Falsch""-Screen",canvas.Screen,3_0_6_0_7_0_2,NA,NA,timeout,4999.28,589715,589706.44,589714.44,594697.12,594698,2023-09-07T14:55:18Z,594713.72,NULL,Fenster,dirisha,d,NA,NA,NA,NA,dfs,0,6,NA,NA,NA,NA,NA,NA,NA,NA,NA,NA,NA,NA,NA,NA,NA,NA,NA,NA,NA
b6e99,deep,flow.Sequence,3_0_6_0_7_0,NA,NA,completion,16831.26,577866,577849.28,577865.86,594697.12,594699,2023-09-07T14:55:18Z,594713.72,NULL,Fenster,dirisha,d,NA,NA,NA,NA,dfs,NA,6,NA,NA,NA,NA,NA,NA,NA,NA,NA,NA,NA,NA,NA,NA,NA,NA,NA,NA,NA
b6e99,shallow,flow.Sequence,3_0_6_0_7_1,NA,NA,skipped,NA,594700,NA,NA,594697.12,594700,2023-09-07T14:55:18Z,594713.72,NULL,Fenster,dirisha,d,NA,NA,NA,NA,dfs,NA,6,NA,NA,NA,NA,NA,NA,NA,NA,NA,NA,NA,NA,NA,NA,NA,NA,NA,NA,NA
b6e99,task,flow.Sequence,3_0_6_0_7,NA,NA,completion,16831.26,577866,577849.28,577865.86,594697.12,594701,2023-09-07T14:55:18Z,594713.72,NULL,Fenster,dirisha,d,NA,NA,NA,NA,dfs,NA,6,NA,NA,NA,NA,NA,NA,NA,NA,NA,NA,NA,NA,NA,NA,NA,NA,NA,NA,NA
b6e99,block,flow.Loop,3_0_6_0,NA,NA,completion,78686.16,516010,516010.58,516010.96,594697.12,594702,2023-09-07T14:55:18Z,594713.72,NULL,NA,NA,NA,NA,NA,NA,NA,dfs,NA,6,NA,NA,NA,NA,NA,NA,NA,NA,NA,NA,NA,NA,NA,NA,NA,NA,NA,NA,NA
