observation,sender,sender_type,sender_id,response,response_action,ended_on,duration,time_run,time_render,time_show,time_end,time_commit,timestamp,time_switch,german,swahili,enc,distractor1,distractor2,distractor3,response_2,x,correct,distractors,url_vp,url_sess,meta_labjs_version,meta_location,meta_user_agent,meta_platform,meta_language,meta_locale,meta_time_zone,meta_timezone_offset,meta_screen_width,meta_screen_height,meta_scroll_width,meta_scroll_height,meta_window_inner_width,meta_window_inner_height,meta_device_pixel_ratio,meta_labjs_build_flavor,meta_labjs_build_commit
13c25,Introduction delayed retrieval,canvas.Screen,0,weiter,keypress(Space),response,4990,450,454,489,5444,5457,2023-08-21T06:03:46Z,5489,NA,NA,NA,NA,NA,NA,NA,NA,NA,NULL,179,2,20.2.4,https://neurocog.fernuni.ch/studies/vweber/sliechti/delayed/index.html?vp=179&sess=2,"Mozilla/5.0 (Macintosh; Intel Mac OS X 10_15_7) AppleWebKit/605.1.15 (KHTML, like Gecko) Version/15.6.1 Safari/605.1.15",MacIntel,de,de,Europe/Zurich,-120,1440,900,1073,696,1073,744,2,production,f5b4a49f956347addd546a832a3327688c2c0fef
13c25,Deep Question,html.Page,1_0_0_0,NA,NA,form submission,3828,5457,5473,5489,9317,9317,2023-08-21T06:03:50Z,9359,Vorwurf,mashtaka,d,msukumo,mtangulizi,uenyekiti,hwdf,NA,NA,NULL,NA,NA,NA,NA,NA,NA,NA,NA,NA,NA,NA,NA,NA,NA,NA,NA,NA,NA,NA
13c25,Save data screen,canvas.Screen,1_0_0_1,NA,NA,timeout,501,9318,9342,9359,9843,9844,2023-08-21T06:03:50Z,9860,Vorwurf,mashtaka,d,msukumo,mtangulizi,uenyekiti,NA,NA,0,NULL,NA,NA,NA,NA,NA,NA,NA,NA,NA,NA,NA,NA,NA,NA,NA,NA,NA,NA,NA
13c25,deep,flow.Sequence,1_0_0,NA,NA,completion,4354,5457,5473,5489,9843,9844,2023-08-21T06:03:50Z,9860,Vorwurf,mashtaka,d,msukumo,mtangulizi,uenyekiti,NA,NA,NA,NULL,NA,NA,NA,NA,NA,NA,NA,NA,NA,NA,NA,NA,NA,NA,NA,NA,NA,NA,NA
13c25,task,flow.Sequence,1_0,NA,NA,completion,4354,5457,5473,5489,9843,9844,2023-08-21T06:03:50Z,9860,Vorwurf,mashtaka,d,msukumo,mtangulizi,uenyekiti,NA,NA,NA,NULL,NA,NA,NA,NA,NA,NA,NA,NA,NA,NA,NA,NA,NA,NA,NA,NA,NA,NA,NA
13c25,Deep Question,html.Page,1_1_0_0,NA,NA,form submission,3607,9844,9843,9860,13467,13467,2023-08-21T06:03:54Z,13496,Stimmung,kinyongo,d,kilekile,kisambo,madhehebu,dads,NA,NA,NULL,NA,NA,NA,NA,NA,NA,NA,NA,NA,NA,NA,NA,NA,NA,NA,NA,NA,NA,NA
13c25,Save data screen,canvas.Screen,1_1_0_1,NA,NA,timeout,500,13468,13480,13496,13980,13980,2023-08-21T06:03:54Z,13996,Stimmung,kinyongo,d,kilekile,kisambo,madhehebu,NA,NA,0,NULL,NA,NA,NA,NA,NA,NA,NA,NA,NA,NA,NA,NA,NA,NA,NA,NA,NA,NA,NA
13c25,deep,flow.Sequence,1_1_0,NA,NA,completion,4120,9844,9843,9860,13980,13981,2023-08-21T06:03:54Z,13996,Stimmung,kinyongo,d,kilekile,kisambo,madhehebu,NA,NA,NA,NULL,NA,NA,NA,NA,NA,NA,NA,NA,NA,NA,NA,NA,NA,NA,NA,NA,NA,NA,NA
13c25,task,flow.Sequence,1_1,NA,NA,completion,4120,9844,9843,9860,13980,13981,2023-08-21T06:03:54Z,13996,Stimmung,kinyongo,d,kilekile,kisambo,madhehebu,NA,NA,NA,NULL,NA,NA,NA,NA,NA,NA,NA,NA,NA,NA,NA,NA,NA,NA,NA,NA,NA,NA,NA
13c25,Deep Question,html.Page,1_2_0_0,NA,NA,form submission,1610,13981,13980,13996,15606,15607,2023-08-21T06:03:56Z,15630,Integrität,uadilifu,s,muungano,mtiririko,upunguaji,sad,NA,NA,NULL,NA,NA,NA,NA,NA,NA,NA,NA,NA,NA,NA,NA,NA,NA,NA,NA,NA,NA,NA
13c25,Save data screen,canvas.Screen,1_2_0_1,NA,NA,timeout,500,15607,15613,15630,16113,16113,2023-08-21T06:03:56Z,16130,Integrität,uadilifu,s,muungano,mtiririko,upunguaji,NA,NA,0,NULL,NA,NA,NA,NA,NA,NA,NA,NA,NA,NA,NA,NA,NA,NA,NA,NA,NA,NA,NA
13c25,deep,flow.Sequence,1_2_0,NA,NA,completion,2117,13981,13980,13996,16113,16114,2023-08-21T06:03:56Z,16130,Integrität,uadilifu,s,muungano,mtiririko,upunguaji,NA,NA,NA,NULL,NA,NA,NA,NA,NA,NA,NA,NA,NA,NA,NA,NA,NA,NA,NA,NA,NA,NA,NA
13c25,task,flow.Sequence,1_2,NA,NA,completion,2117,13981,13980,13996,16113,16114,2023-08-21T06:03:56Z,16130,Integrität,uadilifu,s,muungano,mtiririko,upunguaji,NA,NA,NA,NULL,NA,NA,NA,NA,NA,NA,NA,NA,NA,NA,NA,NA,NA,NA,NA,NA,NA,NA,NA
13c25,Deep Question,html.Page,1_3_0_0,NA,NA,form submission,1948,16114,16113,16130,18078,18078,2023-08-21T06:03:58Z,18112,Orientierung,urekebisho,s,uelekeo,marekebisho,utunzaji,sdda,NA,NA,NULL,NA,NA,NA,NA,NA,NA,NA,NA,NA,NA,NA,NA,NA,NA,NA,NA,NA,NA,NA
13c25,Save data screen,canvas.Screen,1_3_0_1,NA,NA,timeout,505,18079,18097,18112,18600,18600,2023-08-21T06:03:59Z,18617,Orientierung,urekebisho,s,uelekeo,marekebisho,utunzaji,NA,NA,0,NULL,NA,NA,NA,NA,NA,NA,NA,NA,NA,NA,NA,NA,NA,NA,NA,NA,NA,NA,NA
13c25,deep,flow.Sequence,1_3_0,NA,NA,completion,2470,16114,16113,16130,18600,18600,2023-08-21T06:03:59Z,18617,Orientierung,urekebisho,s,uelekeo,marekebisho,utunzaji,NA,NA,NA,NULL,NA,NA,NA,NA,NA,NA,NA,NA,NA,NA,NA,NA,NA,NA,NA,NA,NA,NA,NA
13c25,task,flow.Sequence,1_3,NA,NA,completion,2470,16114,16113,16130,18600,18601,2023-08-21T06:03:59Z,18617,Orientierung,urekebisho,s,uelekeo,marekebisho,utunzaji,NA,NA,NA,NULL,NA,NA,NA,NA,NA,NA,NA,NA,NA,NA,NA,NA,NA,NA,NA,NA,NA,NA,NA
13c25,Deep Question,html.Page,1_4_0_0,NA,NA,form submission,4665,18601,18600,18617,23282,23282,2023-08-21T06:04:03Z,23300,Flexibilität,kubadilika,d,enjini,usikilivu,hesabu,dasd,NA,NA,NULL,NA,NA,NA,NA,NA,NA,NA,NA,NA,NA,NA,NA,NA,NA,NA,NA,NA,NA,NA
13c25,Save data screen,canvas.Screen,1_4_0_1,NA,NA,timeout,504,23283,23285,23300,23789,23792,2023-08-21T06:04:04Z,23804,Flexibilität,kubadilika,d,enjini,usikilivu,hesabu,NA,NA,0,NULL,NA,NA,NA,NA,NA,NA,NA,NA,NA,NA,NA,NA,NA,NA,NA,NA,NA,NA,NA
13c25,deep,flow.Sequence,1_4_0,NA,NA,completion,5172,18601,18600,18617,23789,23792,2023-08-21T06:04:04Z,23804,Flexibilität,kubadilika,d,enjini,usikilivu,hesabu,NA,NA,NA,NULL,NA,NA,NA,NA,NA,NA,NA,NA,NA,NA,NA,NA,NA,NA,NA,NA,NA,NA,NA
13c25,task,flow.Sequence,1_4,NA,NA,completion,5172,18601,18600,18617,23789,23792,2023-08-21T06:04:04Z,23804,Flexibilität,kubadilika,d,enjini,usikilivu,hesabu,NA,NA,NA,NULL,NA,NA,NA,NA,NA,NA,NA,NA,NA,NA,NA,NA,NA,NA,NA,NA,NA,NA,NA
13c25,Deep Question,html.Page,1_5_0_0,NA,NA,form submission,4621,23793,23789,23804,28425,28425,2023-08-21T06:04:09Z,28459,Betrüger,mdanganyifu,d,mwanamuziki,wastani,mahakama,dadad,NA,NA,NULL,NA,NA,NA,NA,NA,NA,NA,NA,NA,NA,NA,NA,NA,NA,NA,NA,NA,NA,NA
13c25,Save data screen,canvas.Screen,1_5_0_1,NA,NA,timeout,500,28426,28442,28459,28942,28942,2023-08-21T06:04:09Z,28959,Betrüger,mdanganyifu,d,mwanamuziki,wastani,mahakama,NA,NA,0,NULL,NA,NA,NA,NA,NA,NA,NA,NA,NA,NA,NA,NA,NA,NA,NA,NA,NA,NA,NA
13c25,deep,flow.Sequence,1_5_0,NA,NA,completion,5138,23792,23789,23804,28942,28942,2023-08-21T06:04:09Z,28959,Betrüger,mdanganyifu,d,mwanamuziki,wastani,mahakama,NA,NA,NA,NULL,NA,NA,NA,NA,NA,NA,NA,NA,NA,NA,NA,NA,NA,NA,NA,NA,NA,NA,NA
13c25,task,flow.Sequence,1_5,NA,NA,completion,5138,23792,23789,23804,28942,28942,2023-08-21T06:04:09Z,28959,Betrüger,mdanganyifu,d,mwanamuziki,wastani,mahakama,NA,NA,NA,NULL,NA,NA,NA,NA,NA,NA,NA,NA,NA,NA,NA,NA,NA,NA,NA,NA,NA,NA,NA
13c25,Deep Question,html.Page,1_6_0_0,NA,NA,form submission,1840,28943,28942,28959,30799,30800,2023-08-21T06:04:11Z,30824,Wechsel,ugeuzaji,s,utambulisho,kujenga,wasiwasi,dsadas,NA,NA,NULL,NA,NA,NA,NA,NA,NA,NA,NA,NA,NA,NA,NA,NA,NA,NA,NA,NA,NA,NA
13c25,Save data screen,canvas.Screen,1_6_0_1,NA,NA,timeout,500,30801,30807,30824,31308,31309,2023-08-21T06:04:12Z,31324,Wechsel,ugeuzaji,s,utambulisho,kujenga,wasiwasi,NA,NA,0,NULL,NA,NA,NA,NA,NA,NA,NA,NA,NA,NA,NA,NA,NA,NA,NA,NA,NA,NA,NA
13c25,deep,flow.Sequence,1_6_0,NA,NA,completion,2349,28943,28942,28959,31308,31309,2023-08-21T06:04:12Z,31324,Wechsel,ugeuzaji,s,utambulisho,kujenga,wasiwasi,NA,NA,NA,NULL,NA,NA,NA,NA,NA,NA,NA,NA,NA,NA,NA,NA,NA,NA,NA,NA,NA,NA,NA
13c25,task,flow.Sequence,1_6,NA,NA,completion,2349,28943,28942,28959,31308,31309,2023-08-21T06:04:12Z,31324,Wechsel,ugeuzaji,s,utambulisho,kujenga,wasiwasi,NA,NA,NA,NULL,NA,NA,NA,NA,NA,NA,NA,NA,NA,NA,NA,NA,NA,NA,NA,NA,NA,NA,NA
13c25,Deep Question,html.Page,1_7_0_0,NA,NA,form submission,2243,31309,31308,31324,33567,33567,2023-08-21T06:04:14Z,33595,Erneuerung,ukarabati,s,ushawishi,ukalifu,unyonyaji,sdad,NA,NA,NULL,NA,NA,NA,NA,NA,NA,NA,NA,NA,NA,NA,NA,NA,NA,NA,NA,NA,NA,NA
13c25,Save data screen,canvas.Screen,1_7_0_1,NA,NA,timeout,500,33568,33579,33595,34079,34079,2023-08-21T06:04:14Z,34095,Erneuerung,ukarabati,s,ushawishi,ukalifu,unyonyaji,NA,NA,0,NULL,NA,NA,NA,NA,NA,NA,NA,NA,NA,NA,NA,NA,NA,NA,NA,NA,NA,NA,NA
13c25,deep,flow.Sequence,1_7_0,NA,NA,completion,2755,31309,31308,31324,34079,34080,2023-08-21T06:04:14Z,34095,Erneuerung,ukarabati,s,ushawishi,ukalifu,unyonyaji,NA,NA,NA,NULL,NA,NA,NA,NA,NA,NA,NA,NA,NA,NA,NA,NA,NA,NA,NA,NA,NA,NA,NA
13c25,task,flow.Sequence,1_7,NA,NA,completion,2755,31309,31308,31324,34079,34080,2023-08-21T06:04:14Z,34095,Erneuerung,ukarabati,s,ushawishi,ukalifu,unyonyaji,NA,NA,NA,NULL,NA,NA,NA,NA,NA,NA,NA,NA,NA,NA,NA,NA,NA,NA,NA,NA,NA,NA,NA
13c25,Deep Question,html.Page,1_8_0_0,NA,NA,form submission,2264,34080,34079,34095,36359,36359,2023-08-21T06:04:17Z,36378,Entwicklung,maendeleo,d,uangavu,mshindwa,badiliko,sadad,NA,NA,NULL,NA,NA,NA,NA,NA,NA,NA,NA,NA,NA,NA,NA,NA,NA,NA,NA,NA,NA,NA
13c25,Save data screen,canvas.Screen,1_8_0_1,NA,NA,timeout,500,36360,36362,36378,36862,36862,2023-08-21T06:04:17Z,36878,Entwicklung,maendeleo,d,uangavu,mshindwa,badiliko,NA,NA,0,NULL,NA,NA,NA,NA,NA,NA,NA,NA,NA,NA,NA,NA,NA,NA,NA,NA,NA,NA,NA
13c25,deep,flow.Sequence,1_8_0,NA,NA,completion,2767,34080,34079,34095,36862,36862,2023-08-21T06:04:17Z,36878,Entwicklung,maendeleo,d,uangavu,mshindwa,badiliko,NA,NA,NA,NULL,NA,NA,NA,NA,NA,NA,NA,NA,NA,NA,NA,NA,NA,NA,NA,NA,NA,NA,NA
13c25,task,flow.Sequence,1_8,NA,NA,completion,2767,34080,34079,34095,36862,36863,2023-08-21T06:04:17Z,36878,Entwicklung,maendeleo,d,uangavu,mshindwa,badiliko,NA,NA,NA,NULL,NA,NA,NA,NA,NA,NA,NA,NA,NA,NA,NA,NA,NA,NA,NA,NA,NA,NA,NA
13c25,Deep Question,html.Page,1_9_0_0,NA,NA,form submission,8362,36863,36862,36878,45240,45240,2023-08-21T06:04:25Z,45283,Atmosphäre,angahewa,d,kuteseka,usahihi,kutoamini,okocha,NA,NA,NULL,NA,NA,NA,NA,NA,NA,NA,NA,NA,NA,NA,NA,NA,NA,NA,NA,NA,NA,NA
13c25,Save data screen,canvas.Screen,1_9_0_1,NA,NA,timeout,501,45242,45267,45283,45767,45767,2023-08-21T06:04:26Z,45784,Atmosphäre,angahewa,d,kuteseka,usahihi,kutoamini,NA,NA,0,NULL,NA,NA,NA,NA,NA,NA,NA,NA,NA,NA,NA,NA,NA,NA,NA,NA,NA,NA,NA
13c25,deep,flow.Sequence,1_9_0,NA,NA,completion,8889,36863,36862,36878,45767,45767,2023-08-21T06:04:26Z,45784,Atmosphäre,angahewa,d,kuteseka,usahihi,kutoamini,NA,NA,NA,NULL,NA,NA,NA,NA,NA,NA,NA,NA,NA,NA,NA,NA,NA,NA,NA,NA,NA,NA,NA
13c25,task,flow.Sequence,1_9,NA,NA,completion,8889,36863,36862,36878,45767,45767,2023-08-21T06:04:26Z,45784,Atmosphäre,angahewa,d,kuteseka,usahihi,kutoamini,NA,NA,NA,NULL,NA,NA,NA,NA,NA,NA,NA,NA,NA,NA,NA,NA,NA,NA,NA,NA,NA,NA,NA
13c25,Deep Question,html.Page,1_10_0_0,NA,NA,form submission,2161,45768,45767,45784,47945,47945,2023-08-21T06:04:28Z,47967,Niveau,kiwango,s,usimamizi,mwamali,mshairi,asd,NA,NA,NULL,NA,NA,NA,NA,NA,NA,NA,NA,NA,NA,NA,NA,NA,NA,NA,NA,NA,NA,NA
13c25,Save data screen,canvas.Screen,1_10_0_1,NA,NA,timeout,503,47946,47951,47967,48453,48456,2023-08-21T06:04:29Z,48470,Niveau,kiwango,s,usimamizi,mwamali,mshairi,NA,NA,0,NULL,NA,NA,NA,NA,NA,NA,NA,NA,NA,NA,NA,NA,NA,NA,NA,NA,NA,NA,NA
13c25,deep,flow.Sequence,1_10_0,NA,NA,completion,2669,45768,45767,45784,48453,48456,2023-08-21T06:04:29Z,48470,Niveau,kiwango,s,usimamizi,mwamali,mshairi,NA,NA,NA,NULL,NA,NA,NA,NA,NA,NA,NA,NA,NA,NA,NA,NA,NA,NA,NA,NA,NA,NA,NA
13c25,task,flow.Sequence,1_10,NA,NA,completion,2669,45767,45767,45784,48453,48456,2023-08-21T06:04:29Z,48470,Niveau,kiwango,s,usimamizi,mwamali,mshairi,NA,NA,NA,NULL,NA,NA,NA,NA,NA,NA,NA,NA,NA,NA,NA,NA,NA,NA,NA,NA,NA,NA,NA
13c25,Deep Question,html.Page,1_11_0_0,NA,NA,form submission,8923,48457,48453,48470,57393,57393,2023-08-21T06:04:38Z,57423,Papier,karatasi,s,uchambuzi,usalama,kukataliwa,sad,NA,NA,NULL,NA,NA,NA,NA,NA,NA,NA,NA,NA,NA,NA,NA,NA,NA,NA,NA,NA,NA,NA
13c25,Save data screen,canvas.Screen,1_11_0_1,NA,NA,timeout,500,57394,57407,57423,57907,57907,2023-08-21T06:04:38Z,57923,Papier,karatasi,s,uchambuzi,usalama,kukataliwa,NA,NA,0,NULL,NA,NA,NA,NA,NA,NA,NA,NA,NA,NA,NA,NA,NA,NA,NA,NA,NA,NA,NA
13c25,deep,flow.Sequence,1_11_0,NA,NA,completion,9437,48457,48453,48470,57907,57907,2023-08-21T06:04:38Z,57923,Papier,karatasi,s,uchambuzi,usalama,kukataliwa,NA,NA,NA,NULL,NA,NA,NA,NA,NA,NA,NA,NA,NA,NA,NA,NA,NA,NA,NA,NA,NA,NA,NA
13c25,task,flow.Sequence,1_11,NA,NA,completion,9437,48457,48453,48470,57907,57908,2023-08-21T06:04:38Z,57923,Papier,karatasi,s,uchambuzi,usalama,kukataliwa,NA,NA,NA,NULL,NA,NA,NA,NA,NA,NA,NA,NA,NA,NA,NA,NA,NA,NA,NA,NA,NA,NA,NA
13c25,Deep Question,html.Page,1_12_0_0,NA,NA,form submission,1622,57908,57907,57923,59545,59545,2023-08-21T06:04:40Z,59577,Genehmigung,idhini,d,mwanamke,itikadi,fedheha,dsa,NA,NA,NULL,NA,NA,NA,NA,NA,NA,NA,NA,NA,NA,NA,NA,NA,NA,NA,NA,NA,NA,NA
13c25,Save data screen,canvas.Screen,1_12_0_1,NA,NA,timeout,500,59546,59561,59577,60061,60061,2023-08-21T06:04:40Z,60077,Genehmigung,idhini,d,mwanamke,itikadi,fedheha,NA,NA,0,NULL,NA,NA,NA,NA,NA,NA,NA,NA,NA,NA,NA,NA,NA,NA,NA,NA,NA,NA,NA
13c25,deep,flow.Sequence,1_12_0,NA,NA,completion,2138,57908,57907,57923,60061,60061,2023-08-21T06:04:40Z,60077,Genehmigung,idhini,d,mwanamke,itikadi,fedheha,NA,NA,NA,NULL,NA,NA,NA,NA,NA,NA,NA,NA,NA,NA,NA,NA,NA,NA,NA,NA,NA,NA,NA
13c25,task,flow.Sequence,1_12,NA,NA,completion,2138,57908,57907,57923,60061,60061,2023-08-21T06:04:40Z,60077,Genehmigung,idhini,d,mwanamke,itikadi,fedheha,NA,NA,NA,NULL,NA,NA,NA,NA,NA,NA,NA,NA,NA,NA,NA,NA,NA,NA,NA,NA,NA,NA,NA
13c25,Deep Question,html.Page,1_13_0_0,NA,NA,form submission,3165,60061,60061,60077,63242,63242,2023-08-21T06:04:43Z,63260,Begegnung,kukutana,d,mmasihiya,mpiganaji,husiano,asd,NA,NA,NULL,NA,NA,NA,NA,NA,NA,NA,NA,NA,NA,NA,NA,NA,NA,NA,NA,NA,NA,NA
13c25,Save data screen,canvas.Screen,1_13_0_1,NA,NA,timeout,502,63243,63245,63260,63746,63746,2023-08-21T06:04:44Z,63762,Begegnung,kukutana,d,mmasihiya,mpiganaji,husiano,NA,NA,0,NULL,NA,NA,NA,NA,NA,NA,NA,NA,NA,NA,NA,NA,NA,NA,NA,NA,NA,NA,NA
13c25,deep,flow.Sequence,1_13_0,NA,NA,completion,3669,60061,60061,60077,63746,63746,2023-08-21T06:04:44Z,63762,Begegnung,kukutana,d,mmasihiya,mpiganaji,husiano,NA,NA,NA,NULL,NA,NA,NA,NA,NA,NA,NA,NA,NA,NA,NA,NA,NA,NA,NA,NA,NA,NA,NA
13c25,task,flow.Sequence,1_13,NA,NA,completion,3669,60061,60061,60077,63746,63747,2023-08-21T06:04:44Z,63762,Begegnung,kukutana,d,mmasihiya,mpiganaji,husiano,NA,NA,NA,NULL,NA,NA,NA,NA,NA,NA,NA,NA,NA,NA,NA,NA,NA,NA,NA,NA,NA,NA,NA
13c25,Deep Question,html.Page,1_14_0_0,NA,NA,form submission,5660,63747,63746,63762,69422,69422,2023-08-21T06:04:50Z,69448,Fleisch,mshakiki,s,kizunguzungu,mshikamano,angusho,sda,NA,NA,NULL,NA,NA,NA,NA,NA,NA,NA,NA,NA,NA,NA,NA,NA,NA,NA,NA,NA,NA,NA
13c25,Save data screen,canvas.Screen,1_14_0_1,NA,NA,timeout,501,69423,69433,69448,69932,69932,2023-08-21T06:04:50Z,69949,Fleisch,mshakiki,s,kizunguzungu,mshikamano,angusho,NA,NA,0,NULL,NA,NA,NA,NA,NA,NA,NA,NA,NA,NA,NA,NA,NA,NA,NA,NA,NA,NA,NA
13c25,deep,flow.Sequence,1_14_0,NA,NA,completion,6170,63747,63746,63762,69932,69932,2023-08-21T06:04:50Z,69949,Fleisch,mshakiki,s,kizunguzungu,mshikamano,angusho,NA,NA,NA,NULL,NA,NA,NA,NA,NA,NA,NA,NA,NA,NA,NA,NA,NA,NA,NA,NA,NA,NA,NA
13c25,task,flow.Sequence,1_14,NA,NA,completion,6170,63747,63746,63762,69932,69933,2023-08-21T06:04:50Z,69949,Fleisch,mshakiki,s,kizunguzungu,mshikamano,angusho,NA,NA,NA,NULL,NA,NA,NA,NA,NA,NA,NA,NA,NA,NA,NA,NA,NA,NA,NA,NA,NA,NA,NA
13c25,Deep Question,html.Page,1_15_0_0,NA,NA,form submission,1613,69933,69932,69949,71562,71562,2023-08-21T06:04:52Z,71582,Respekt,heshima,s,changamnao,upinzani,ufanisi,ads,NA,NA,NULL,NA,NA,NA,NA,NA,NA,NA,NA,NA,NA,NA,NA,NA,NA,NA,NA,NA,NA,NA
13c25,Save data screen,canvas.Screen,1_15_0_1,NA,NA,timeout,516,71563,71566,71582,72065,72066,2023-08-21T06:04:52Z,72098,Respekt,heshima,s,changamnao,upinzani,ufanisi,NA,NA,0,NULL,NA,NA,NA,NA,NA,NA,NA,NA,NA,NA,NA,NA,NA,NA,NA,NA,NA,NA,NA
13c25,deep,flow.Sequence,1_15_0,NA,NA,completion,2116,69933,69932,69949,72065,72066,2023-08-21T06:04:52Z,72098,Respekt,heshima,s,changamnao,upinzani,ufanisi,NA,NA,NA,NULL,NA,NA,NA,NA,NA,NA,NA,NA,NA,NA,NA,NA,NA,NA,NA,NA,NA,NA,NA
13c25,task,flow.Sequence,1_15,NA,NA,completion,2116,69933,69932,69949,72065,72066,2023-08-21T06:04:52Z,72098,Respekt,heshima,s,changamnao,upinzani,ufanisi,NA,NA,NA,NULL,NA,NA,NA,NA,NA,NA,NA,NA,NA,NA,NA,NA,NA,NA,NA,NA,NA,NA,NA
13c25,retrieval block 1 (cued recall),flow.Loop,1,NA,NA,completion,66576,5457,5473,5489,72065,72066,2023-08-21T06:04:52Z,72098,NA,NA,NA,NA,NA,NA,NA,NA,NA,NULL,NA,NA,NA,NA,NA,NA,NA,NA,NA,NA,NA,NA,NA,NA,NA,NA,NA,NA,NA
13c25,Shallow Question,html.Page,2_0_0_0,NA,NA,form submission,5057,72067,72065,72098,77155,77156,2023-08-21T06:04:57Z,77183,Fleisch,mshakiki,s,kizunguzungu,mshikamano,angusho,mshakiki,NA,NA,"c(""distractor1"", ""distractor2"", ""distractor3"")",NA,NA,NA,NA,NA,NA,NA,NA,NA,NA,NA,NA,NA,NA,NA,NA,NA,NA,NA
13c25,Save data screen,canvas.Screen,2_0_0_1,NA,NA,timeout,499,77157,77167,77183,77666,77666,2023-08-21T06:04:58Z,77682,Fleisch,mshakiki,s,kizunguzungu,mshikamano,angusho,NA,NA,1,"c(""distractor1"", ""distractor2"", ""distractor3"")",NA,NA,NA,NA,NA,NA,NA,NA,NA,NA,NA,NA,NA,NA,NA,NA,NA,NA,NA
13c25,shallow,flow.Sequence,2_0_0,NA,NA,completion,5568,72067,72065,72098,77666,77666,2023-08-21T06:04:58Z,77682,Fleisch,mshakiki,s,kizunguzungu,mshikamano,angusho,NA,NA,NA,"c(""distractor1"", ""distractor2"", ""distractor3"")",NA,NA,NA,NA,NA,NA,NA,NA,NA,NA,NA,NA,NA,NA,NA,NA,NA,NA,NA
13c25,task,flow.Sequence,2_0,NA,NA,completion,5568,72067,72065,72098,77666,77667,2023-08-21T06:04:58Z,77682,Fleisch,mshakiki,s,kizunguzungu,mshikamano,angusho,NA,NA,NA,"c(""distractor1"", ""distractor2"", ""distractor3"")",NA,NA,NA,NA,NA,NA,NA,NA,NA,NA,NA,NA,NA,NA,NA,NA,NA,NA,NA
13c25,Shallow Question,html.Page,2_1_0_0,NA,NA,form submission,13205,77667,77666,77682,90887,90888,2023-08-21T06:05:11Z,90917,Entwicklung,maendeleo,d,uangavu,mshindwa,badiliko,maendeleo,NA,NA,"c(""distractor1"", ""distractor2"", ""distractor3"")",NA,NA,NA,NA,NA,NA,NA,NA,NA,NA,NA,NA,NA,NA,NA,NA,NA,NA,NA
13c25,Save data screen,canvas.Screen,2_1_0_1,NA,NA,timeout,501,90889,90901,90917,91401,91401,2023-08-21T06:05:12Z,91418,Entwicklung,maendeleo,d,uangavu,mshindwa,badiliko,NA,NA,1,"c(""distractor1"", ""distractor2"", ""distractor3"")",NA,NA,NA,NA,NA,NA,NA,NA,NA,NA,NA,NA,NA,NA,NA,NA,NA,NA,NA
13c25,shallow,flow.Sequence,2_1_0,NA,NA,completion,13719,77667,77666,77682,91401,91402,2023-08-21T06:05:12Z,91418,Entwicklung,maendeleo,d,uangavu,mshindwa,badiliko,NA,NA,NA,"c(""distractor1"", ""distractor2"", ""distractor3"")",NA,NA,NA,NA,NA,NA,NA,NA,NA,NA,NA,NA,NA,NA,NA,NA,NA,NA,NA
13c25,task,flow.Sequence,2_1,NA,NA,completion,13719,77667,77666,77682,91401,91402,2023-08-21T06:05:12Z,91418,Entwicklung,maendeleo,d,uangavu,mshindwa,badiliko,NA,NA,NA,"c(""distractor1"", ""distractor2"", ""distractor3"")",NA,NA,NA,NA,NA,NA,NA,NA,NA,NA,NA,NA,NA,NA,NA,NA,NA,NA,NA
13c25,Shallow Question,html.Page,2_2_0_0,NA,NA,form submission,4100,91402,91401,91418,95518,95518,2023-08-21T06:05:16Z,95545,Respekt,heshima,s,changamnao,upinzani,ufanisi,heshima,NA,NA,"c(""distractor1"", ""distractor2"", ""distractor3"")",NA,NA,NA,NA,NA,NA,NA,NA,NA,NA,NA,NA,NA,NA,NA,NA,NA,NA,NA
13c25,Save data screen,canvas.Screen,2_2_0_1,NA,NA,timeout,501,95520,95530,95545,96029,96029,2023-08-21T06:05:16Z,96046,Respekt,heshima,s,changamnao,upinzani,ufanisi,NA,NA,1,"c(""distractor1"", ""distractor2"", ""distractor3"")",NA,NA,NA,NA,NA,NA,NA,NA,NA,NA,NA,NA,NA,NA,NA,NA,NA,NA,NA
13c25,shallow,flow.Sequence,2_2_0,NA,NA,completion,4611,91402,91401,91418,96029,96029,2023-08-21T06:05:16Z,96046,Respekt,heshima,s,changamnao,upinzani,ufanisi,NA,NA,NA,"c(""distractor1"", ""distractor2"", ""distractor3"")",NA,NA,NA,NA,NA,NA,NA,NA,NA,NA,NA,NA,NA,NA,NA,NA,NA,NA,NA
13c25,task,flow.Sequence,2_2,NA,NA,completion,4611,91402,91401,91418,96029,96029,2023-08-21T06:05:16Z,96046,Respekt,heshima,s,changamnao,upinzani,ufanisi,NA,NA,NA,"c(""distractor1"", ""distractor2"", ""distractor3"")",NA,NA,NA,NA,NA,NA,NA,NA,NA,NA,NA,NA,NA,NA,NA,NA,NA,NA,NA
13c25,Shallow Question,html.Page,2_3_0_0,NA,NA,form submission,14714,96030,96029,96046,110760,110761,2023-08-21T06:05:31Z,110784,Atmosphäre,angahewa,d,kuteseka,usahihi,kutoamini,kutoamini,NA,NA,"c(""distractor1"", ""distractor2"", ""distractor3"")",NA,NA,NA,NA,NA,NA,NA,NA,NA,NA,NA,NA,NA,NA,NA,NA,NA,NA,NA
13c25,Save data screen,canvas.Screen,2_3_0_1,NA,NA,timeout,500,110762,110768,110784,111267,111268,2023-08-21T06:05:31Z,111284,Atmosphäre,angahewa,d,kuteseka,usahihi,kutoamini,NA,NA,0,"c(""distractor1"", ""distractor2"", ""distractor3"")",NA,NA,NA,NA,NA,NA,NA,NA,NA,NA,NA,NA,NA,NA,NA,NA,NA,NA,NA
13c25,shallow,flow.Sequence,2_3_0,NA,NA,completion,15221,96030,96029,96046,111267,111268,2023-08-21T06:05:31Z,111284,Atmosphäre,angahewa,d,kuteseka,usahihi,kutoamini,NA,NA,NA,"c(""distractor1"", ""distractor2"", ""distractor3"")",NA,NA,NA,NA,NA,NA,NA,NA,NA,NA,NA,NA,NA,NA,NA,NA,NA,NA,NA
13c25,task,flow.Sequence,2_3,NA,NA,completion,15221,96030,96029,96046,111267,111268,2023-08-21T06:05:31Z,111284,Atmosphäre,angahewa,d,kuteseka,usahihi,kutoamini,NA,NA,NA,"c(""distractor1"", ""distractor2"", ""distractor3"")",NA,NA,NA,NA,NA,NA,NA,NA,NA,NA,NA,NA,NA,NA,NA,NA,NA,NA,NA
13c25,Shallow Question,html.Page,2_4_0_0,NA,NA,form submission,5642,111269,111267,111284,116926,116926,2023-08-21T06:05:37Z,116953,Niveau,kiwango,s,usimamizi,mwamali,mshairi,kiwango,NA,NA,"c(""distractor1"", ""distractor2"", ""distractor3"")",NA,NA,NA,NA,NA,NA,NA,NA,NA,NA,NA,NA,NA,NA,NA,NA,NA,NA,NA
13c25,Save data screen,canvas.Screen,2_4_0_1,NA,NA,timeout,500,116928,116938,116953,117437,117437,2023-08-21T06:05:38Z,117453,Niveau,kiwango,s,usimamizi,mwamali,mshairi,NA,NA,1,"c(""distractor1"", ""distractor2"", ""distractor3"")",NA,NA,NA,NA,NA,NA,NA,NA,NA,NA,NA,NA,NA,NA,NA,NA,NA,NA,NA
13c25,shallow,flow.Sequence,2_4_0,NA,NA,completion,6153,111269,111267,111284,117437,117438,2023-08-21T06:05:38Z,117453,Niveau,kiwango,s,usimamizi,mwamali,mshairi,NA,NA,NA,"c(""distractor1"", ""distractor2"", ""distractor3"")",NA,NA,NA,NA,NA,NA,NA,NA,NA,NA,NA,NA,NA,NA,NA,NA,NA,NA,NA
13c25,task,flow.Sequence,2_4,NA,NA,completion,6153,111269,111267,111284,117437,117438,2023-08-21T06:05:38Z,117453,Niveau,kiwango,s,usimamizi,mwamali,mshairi,NA,NA,NA,"c(""distractor1"", ""distractor2"", ""distractor3"")",NA,NA,NA,NA,NA,NA,NA,NA,NA,NA,NA,NA,NA,NA,NA,NA,NA,NA,NA
13c25,Shallow Question,html.Page,2_5_0_0,NA,NA,form submission,2575,117438,117437,117453,120028,120028,2023-08-21T06:05:40Z,120057,Papier,karatasi,s,uchambuzi,usalama,kukataliwa,karatasi,NA,NA,"c(""distractor1"", ""distractor2"", ""distractor3"")",NA,NA,NA,NA,NA,NA,NA,NA,NA,NA,NA,NA,NA,NA,NA,NA,NA,NA,NA
13c25,Save data screen,canvas.Screen,2_5_0_1,NA,NA,timeout,501,120029,120041,120057,120541,120542,2023-08-21T06:05:41Z,120558,Papier,karatasi,s,uchambuzi,usalama,kukataliwa,NA,NA,1,"c(""distractor1"", ""distractor2"", ""distractor3"")",NA,NA,NA,NA,NA,NA,NA,NA,NA,NA,NA,NA,NA,NA,NA,NA,NA,NA,NA
13c25,shallow,flow.Sequence,2_5_0,NA,NA,completion,3088,117438,117437,117453,120541,120542,2023-08-21T06:05:41Z,120558,Papier,karatasi,s,uchambuzi,usalama,kukataliwa,NA,NA,NA,"c(""distractor1"", ""distractor2"", ""distractor3"")",NA,NA,NA,NA,NA,NA,NA,NA,NA,NA,NA,NA,NA,NA,NA,NA,NA,NA,NA
13c25,task,flow.Sequence,2_5,NA,NA,completion,3088,117438,117437,117453,120541,120542,2023-08-21T06:05:41Z,120558,Papier,karatasi,s,uchambuzi,usalama,kukataliwa,NA,NA,NA,"c(""distractor1"", ""distractor2"", ""distractor3"")",NA,NA,NA,NA,NA,NA,NA,NA,NA,NA,NA,NA,NA,NA,NA,NA,NA,NA,NA
13c25,Shallow Question,html.Page,2_6_0_0,NA,NA,form submission,7653,120542,120541,120558,128211,128211,2023-08-21T06:05:48Z,128227,Stimmung,kinyongo,d,kilekile,kisambo,madhehebu,kinyongo,NA,NA,"c(""distractor1"", ""distractor2"", ""distractor3"")",NA,NA,NA,NA,NA,NA,NA,NA,NA,NA,NA,NA,NA,NA,NA,NA,NA,NA,NA
13c25,Save data screen,canvas.Screen,2_6_0_1,NA,NA,timeout,504,128212,128213,128227,128715,128718,2023-08-21T06:05:49Z,128731,Stimmung,kinyongo,d,kilekile,kisambo,madhehebu,NA,NA,1,"c(""distractor1"", ""distractor2"", ""distractor3"")",NA,NA,NA,NA,NA,NA,NA,NA,NA,NA,NA,NA,NA,NA,NA,NA,NA,NA,NA
13c25,shallow,flow.Sequence,2_6_0,NA,NA,completion,8157,120542,120541,120558,128715,128718,2023-08-21T06:05:49Z,128731,Stimmung,kinyongo,d,kilekile,kisambo,madhehebu,NA,NA,NA,"c(""distractor1"", ""distractor2"", ""distractor3"")",NA,NA,NA,NA,NA,NA,NA,NA,NA,NA,NA,NA,NA,NA,NA,NA,NA,NA,NA
13c25,task,flow.Sequence,2_6,NA,NA,completion,8157,120542,120541,120558,128715,128718,2023-08-21T06:05:49Z,128731,Stimmung,kinyongo,d,kilekile,kisambo,madhehebu,NA,NA,NA,"c(""distractor1"", ""distractor2"", ""distractor3"")",NA,NA,NA,NA,NA,NA,NA,NA,NA,NA,NA,NA,NA,NA,NA,NA,NA,NA,NA
13c25,Shallow Question,html.Page,2_7_0_0,NA,NA,form submission,5158,128718,128715,128731,133889,133889,2023-08-21T06:05:54Z,133918,Begegnung,kukutana,d,mmasihiya,mpiganaji,husiano,kukutana,NA,NA,"c(""distractor1"", ""distractor2"", ""distractor3"")",NA,NA,NA,NA,NA,NA,NA,NA,NA,NA,NA,NA,NA,NA,NA,NA,NA,NA,NA
13c25,Save data screen,canvas.Screen,2_7_0_1,NA,NA,timeout,501,133890,133902,133918,134402,134402,2023-08-21T06:05:55Z,134419,Begegnung,kukutana,d,mmasihiya,mpiganaji,husiano,NA,NA,1,"c(""distractor1"", ""distractor2"", ""distractor3"")",NA,NA,NA,NA,NA,NA,NA,NA,NA,NA,NA,NA,NA,NA,NA,NA,NA,NA,NA
13c25,shallow,flow.Sequence,2_7_0,NA,NA,completion,5671,128718,128715,128731,134402,134402,2023-08-21T06:05:55Z,134419,Begegnung,kukutana,d,mmasihiya,mpiganaji,husiano,NA,NA,NA,"c(""distractor1"", ""distractor2"", ""distractor3"")",NA,NA,NA,NA,NA,NA,NA,NA,NA,NA,NA,NA,NA,NA,NA,NA,NA,NA,NA
13c25,task,flow.Sequence,2_7,NA,NA,completion,5671,128718,128715,128731,134402,134402,2023-08-21T06:05:55Z,134419,Begegnung,kukutana,d,mmasihiya,mpiganaji,husiano,NA,NA,NA,"c(""distractor1"", ""distractor2"", ""distractor3"")",NA,NA,NA,NA,NA,NA,NA,NA,NA,NA,NA,NA,NA,NA,NA,NA,NA,NA,NA
13c25,Shallow Question,html.Page,2_8_0_0,NA,NA,form submission,4620,134402,134402,134419,139039,139039,2023-08-21T06:05:59Z,139072,Orientierung,urekebisho,s,uelekeo,marekebisho,utunzaji,urekebisho,NA,NA,"c(""distractor1"", ""distractor2"", ""distractor3"")",NA,NA,NA,NA,NA,NA,NA,NA,NA,NA,NA,NA,NA,NA,NA,NA,NA,NA,NA
13c25,Save data screen,canvas.Screen,2_8_0_1,NA,NA,timeout,499,139040,139055,139072,139556,139556,2023-08-21T06:06:00Z,139571,Orientierung,urekebisho,s,uelekeo,marekebisho,utunzaji,NA,NA,1,"c(""distractor1"", ""distractor2"", ""distractor3"")",NA,NA,NA,NA,NA,NA,NA,NA,NA,NA,NA,NA,NA,NA,NA,NA,NA,NA,NA
13c25,shallow,flow.Sequence,2_8_0,NA,NA,completion,5137,134402,134402,134419,139556,139556,2023-08-21T06:06:00Z,139571,Orientierung,urekebisho,s,uelekeo,marekebisho,utunzaji,NA,NA,NA,"c(""distractor1"", ""distractor2"", ""distractor3"")",NA,NA,NA,NA,NA,NA,NA,NA,NA,NA,NA,NA,NA,NA,NA,NA,NA,NA,NA
13c25,task,flow.Sequence,2_8,NA,NA,completion,5137,134402,134402,134419,139556,139556,2023-08-21T06:06:00Z,139571,Orientierung,urekebisho,s,uelekeo,marekebisho,utunzaji,NA,NA,NA,"c(""distractor1"", ""distractor2"", ""distractor3"")",NA,NA,NA,NA,NA,NA,NA,NA,NA,NA,NA,NA,NA,NA,NA,NA,NA,NA,NA
13c25,Shallow Question,html.Page,2_9_0_0,NA,NA,form submission,5441,139556,139556,139571,145012,145012,2023-08-21T06:06:05Z,145044,Erneuerung,ukarabati,s,ushawishi,ukalifu,unyonyaji,ukalifu,NA,NA,"c(""distractor1"", ""distractor2"", ""distractor3"")",NA,NA,NA,NA,NA,NA,NA,NA,NA,NA,NA,NA,NA,NA,NA,NA,NA,NA,NA
13c25,Save data screen,canvas.Screen,2_9_0_1,NA,NA,timeout,500,145012,145028,145044,145527,145527,2023-08-21T06:06:06Z,145544,Erneuerung,ukarabati,s,ushawishi,ukalifu,unyonyaji,NA,NA,0,"c(""distractor1"", ""distractor2"", ""distractor3"")",NA,NA,NA,NA,NA,NA,NA,NA,NA,NA,NA,NA,NA,NA,NA,NA,NA,NA,NA
13c25,shallow,flow.Sequence,2_9_0,NA,NA,completion,5956,139556,139556,139571,145527,145527,2023-08-21T06:06:06Z,145544,Erneuerung,ukarabati,s,ushawishi,ukalifu,unyonyaji,NA,NA,NA,"c(""distractor1"", ""distractor2"", ""distractor3"")",NA,NA,NA,NA,NA,NA,NA,NA,NA,NA,NA,NA,NA,NA,NA,NA,NA,NA,NA
13c25,task,flow.Sequence,2_9,NA,NA,completion,5956,139556,139556,139571,145527,145528,2023-08-21T06:06:06Z,145544,Erneuerung,ukarabati,s,ushawishi,ukalifu,unyonyaji,NA,NA,NA,"c(""distractor1"", ""distractor2"", ""distractor3"")",NA,NA,NA,NA,NA,NA,NA,NA,NA,NA,NA,NA,NA,NA,NA,NA,NA,NA,NA
13c25,Shallow Question,html.Page,2_10_0_0,NA,NA,form submission,3583,145528,145527,145544,149127,149127,2023-08-21T06:06:09Z,149148,Integrität,uadilifu,s,muungano,mtiririko,upunguaji,uadilifu,NA,NA,"c(""distractor1"", ""distractor2"", ""distractor3"")",NA,NA,NA,NA,NA,NA,NA,NA,NA,NA,NA,NA,NA,NA,NA,NA,NA,NA,NA
13c25,Save data screen,canvas.Screen,2_10_0_1,NA,NA,timeout,499,149128,149131,149148,149631,149632,2023-08-21T06:06:10Z,149647,Integrität,uadilifu,s,muungano,mtiririko,upunguaji,NA,NA,1,"c(""distractor1"", ""distractor2"", ""distractor3"")",NA,NA,NA,NA,NA,NA,NA,NA,NA,NA,NA,NA,NA,NA,NA,NA,NA,NA,NA
13c25,shallow,flow.Sequence,2_10_0,NA,NA,completion,4087,145528,145527,145544,149631,149632,2023-08-21T06:06:10Z,149647,Integrität,uadilifu,s,muungano,mtiririko,upunguaji,NA,NA,NA,"c(""distractor1"", ""distractor2"", ""distractor3"")",NA,NA,NA,NA,NA,NA,NA,NA,NA,NA,NA,NA,NA,NA,NA,NA,NA,NA,NA
13c25,task,flow.Sequence,2_10,NA,NA,completion,4087,145528,145527,145544,149631,149632,2023-08-21T06:06:10Z,149647,Integrität,uadilifu,s,muungano,mtiririko,upunguaji,NA,NA,NA,"c(""distractor1"", ""distractor2"", ""distractor3"")",NA,NA,NA,NA,NA,NA,NA,NA,NA,NA,NA,NA,NA,NA,NA,NA,NA,NA,NA
13c25,Shallow Question,html.Page,2_11_0_0,NA,NA,form submission,10433,149632,149631,149647,160080,160081,2023-08-21T06:06:20Z,160100,Flexibilität,kubadilika,d,enjini,usikilivu,hesabu,kubadilika,NA,NA,"c(""distractor1"", ""distractor2"", ""distractor3"")",NA,NA,NA,NA,NA,NA,NA,NA,NA,NA,NA,NA,NA,NA,NA,NA,NA,NA,NA
13c25,Save data screen,canvas.Screen,2_11_0_1,NA,NA,timeout,501,160081,160083,160100,160584,160587,2023-08-21T06:06:21Z,160601,Flexibilität,kubadilika,d,enjini,usikilivu,hesabu,NA,NA,1,"c(""distractor1"", ""distractor2"", ""distractor3"")",NA,NA,NA,NA,NA,NA,NA,NA,NA,NA,NA,NA,NA,NA,NA,NA,NA,NA,NA
13c25,shallow,flow.Sequence,2_11_0,NA,NA,completion,10937,149632,149631,149647,160584,160587,2023-08-21T06:06:21Z,160601,Flexibilität,kubadilika,d,enjini,usikilivu,hesabu,NA,NA,NA,"c(""distractor1"", ""distractor2"", ""distractor3"")",NA,NA,NA,NA,NA,NA,NA,NA,NA,NA,NA,NA,NA,NA,NA,NA,NA,NA,NA
13c25,task,flow.Sequence,2_11,NA,NA,completion,10937,149632,149631,149647,160584,160587,2023-08-21T06:06:21Z,160601,Flexibilität,kubadilika,d,enjini,usikilivu,hesabu,NA,NA,NA,"c(""distractor1"", ""distractor2"", ""distractor3"")",NA,NA,NA,NA,NA,NA,NA,NA,NA,NA,NA,NA,NA,NA,NA,NA,NA,NA,NA
13c25,Shallow Question,html.Page,2_12_0_0,NA,NA,form submission,24108,160587,160584,160601,184709,184709,2023-08-21T06:06:45Z,184726,Wechsel,ugeuzaji,s,utambulisho,kujenga,wasiwasi,ugeuzaji,NA,NA,"c(""distractor1"", ""distractor2"", ""distractor3"")",NA,NA,NA,NA,NA,NA,NA,NA,NA,NA,NA,NA,NA,NA,NA,NA,NA,NA,NA
13c25,Save data screen,canvas.Screen,2_12_0_1,NA,NA,timeout,500,184710,184711,184726,185210,185210,2023-08-21T06:06:45Z,185226,Wechsel,ugeuzaji,s,utambulisho,kujenga,wasiwasi,NA,NA,1,"c(""distractor1"", ""distractor2"", ""distractor3"")",NA,NA,NA,NA,NA,NA,NA,NA,NA,NA,NA,NA,NA,NA,NA,NA,NA,NA,NA
13c25,shallow,flow.Sequence,2_12_0,NA,NA,completion,24609,160587,160584,160601,185210,185211,2023-08-21T06:06:45Z,185226,Wechsel,ugeuzaji,s,utambulisho,kujenga,wasiwasi,NA,NA,NA,"c(""distractor1"", ""distractor2"", ""distractor3"")",NA,NA,NA,NA,NA,NA,NA,NA,NA,NA,NA,NA,NA,NA,NA,NA,NA,NA,NA
13c25,task,flow.Sequence,2_12,NA,NA,completion,24609,160587,160584,160601,185210,185211,2023-08-21T06:06:45Z,185226,Wechsel,ugeuzaji,s,utambulisho,kujenga,wasiwasi,NA,NA,NA,"c(""distractor1"", ""distractor2"", ""distractor3"")",NA,NA,NA,NA,NA,NA,NA,NA,NA,NA,NA,NA,NA,NA,NA,NA,NA,NA,NA
13c25,Shallow Question,html.Page,2_13_0_0,NA,NA,form submission,11132,185211,185210,185226,196358,196359,2023-08-21T06:06:57Z,196391,Betrüger,mdanganyifu,d,mwanamuziki,wastani,mahakama,mdanganyifu,NA,NA,"c(""distractor1"", ""distractor2"", ""distractor3"")",NA,NA,NA,NA,NA,NA,NA,NA,NA,NA,NA,NA,NA,NA,NA,NA,NA,NA,NA
13c25,Save data screen,canvas.Screen,2_13_0_1,NA,NA,timeout,500,196360,196374,196391,196875,196875,2023-08-21T06:06:57Z,196891,Betrüger,mdanganyifu,d,mwanamuziki,wastani,mahakama,NA,NA,1,"c(""distractor1"", ""distractor2"", ""distractor3"")",NA,NA,NA,NA,NA,NA,NA,NA,NA,NA,NA,NA,NA,NA,NA,NA,NA,NA,NA
13c25,shallow,flow.Sequence,2_13_0,NA,NA,completion,11649,185211,185210,185226,196875,196876,2023-08-21T06:06:57Z,196891,Betrüger,mdanganyifu,d,mwanamuziki,wastani,mahakama,NA,NA,NA,"c(""distractor1"", ""distractor2"", ""distractor3"")",NA,NA,NA,NA,NA,NA,NA,NA,NA,NA,NA,NA,NA,NA,NA,NA,NA,NA,NA
13c25,task,flow.Sequence,2_13,NA,NA,completion,11649,185211,185210,185226,196875,196876,2023-08-21T06:06:57Z,196891,Betrüger,mdanganyifu,d,mwanamuziki,wastani,mahakama,NA,NA,NA,"c(""distractor1"", ""distractor2"", ""distractor3"")",NA,NA,NA,NA,NA,NA,NA,NA,NA,NA,NA,NA,NA,NA,NA,NA,NA,NA,NA
13c25,Shallow Question,html.Page,2_14_0_0,NA,NA,form submission,3833,196876,196875,196891,200724,200724,2023-08-21T06:07:01Z,200756,Genehmigung,idhini,d,mwanamke,itikadi,fedheha,idhini,NA,NA,"c(""distractor1"", ""distractor2"", ""distractor3"")",NA,NA,NA,NA,NA,NA,NA,NA,NA,NA,NA,NA,NA,NA,NA,NA,NA,NA,NA
13c25,Save data screen,canvas.Screen,2_14_0_1,NA,NA,timeout,500,200725,200738,200756,201238,201239,2023-08-21T06:07:01Z,201256,Genehmigung,idhini,d,mwanamke,itikadi,fedheha,NA,NA,1,"c(""distractor1"", ""distractor2"", ""distractor3"")",NA,NA,NA,NA,NA,NA,NA,NA,NA,NA,NA,NA,NA,NA,NA,NA,NA,NA,NA
13c25,shallow,flow.Sequence,2_14_0,NA,NA,completion,4347,196876,196875,196891,201238,201239,2023-08-21T06:07:01Z,201256,Genehmigung,idhini,d,mwanamke,itikadi,fedheha,NA,NA,NA,"c(""distractor1"", ""distractor2"", ""distractor3"")",NA,NA,NA,NA,NA,NA,NA,NA,NA,NA,NA,NA,NA,NA,NA,NA,NA,NA,NA
13c25,task,flow.Sequence,2_14,NA,NA,completion,4347,196876,196875,196891,201238,201239,2023-08-21T06:07:01Z,201256,Genehmigung,idhini,d,mwanamke,itikadi,fedheha,NA,NA,NA,"c(""distractor1"", ""distractor2"", ""distractor3"")",NA,NA,NA,NA,NA,NA,NA,NA,NA,NA,NA,NA,NA,NA,NA,NA,NA,NA,NA
13c25,Shallow Question,html.Page,2_15_0_0,NA,NA,form submission,10509,201240,201238,201256,211765,211765,2023-08-21T06:07:12Z,211784,Vorwurf,mashtaka,d,msukumo,mtangulizi,uenyekiti,msukumo,NA,NA,"c(""distractor1"", ""distractor2"", ""distractor3"")",NA,NA,NA,NA,NA,NA,NA,NA,NA,NA,NA,NA,NA,NA,NA,NA,NA,NA,NA
13c25,Save data screen,canvas.Screen,2_15_0_1,NA,NA,timeout,500,211766,211768,211784,212267,212270,2023-08-21T06:07:12Z,212284,Vorwurf,mashtaka,d,msukumo,mtangulizi,uenyekiti,NA,NA,0,"c(""distractor1"", ""distractor2"", ""distractor3"")",NA,NA,NA,NA,NA,NA,NA,NA,NA,NA,NA,NA,NA,NA,NA,NA,NA,NA,NA
13c25,shallow,flow.Sequence,2_15_0,NA,NA,completion,11011,201239,201238,201256,212267,212270,2023-08-21T06:07:12Z,212284,Vorwurf,mashtaka,d,msukumo,mtangulizi,uenyekiti,NA,NA,NA,"c(""distractor1"", ""distractor2"", ""distractor3"")",NA,NA,NA,NA,NA,NA,NA,NA,NA,NA,NA,NA,NA,NA,NA,NA,NA,NA,NA
13c25,task,flow.Sequence,2_15,NA,NA,completion,11011,201239,201238,201256,212267,212270,2023-08-21T06:07:12Z,212284,Vorwurf,mashtaka,d,msukumo,mtangulizi,uenyekiti,NA,NA,NA,"c(""distractor1"", ""distractor2"", ""distractor3"")",NA,NA,NA,NA,NA,NA,NA,NA,NA,NA,NA,NA,NA,NA,NA,NA,NA,NA,NA
13c25,retrieval block 2 (multiple choice),flow.Loop,2,NA,NA,completion,140169,72067,72065,72098,212267,212271,2023-08-21T06:07:12Z,212284,NA,NA,NA,NA,NA,NA,NA,NA,NA,"c(""distractor1"", ""distractor2"", ""distractor3"")",NA,NA,NA,NA,NA,NA,NA,NA,NA,NA,NA,NA,NA,NA,NA,NA,NA,NA,NA
13c25,End,canvas.Screen,3,NA,keypress(Space),response,2097,212271,212267,212284,214364,214361,2023-08-21T06:07:15Z,214388,NA,NA,NA,NA,NA,NA,NA,NA,NA,NULL,NA,NA,NA,NA,NA,NA,NA,NA,NA,NA,NA,NA,NA,NA,NA,NA,NA,NA,NA
13c25,root,flow.Sequence,NA,NA,NA,completion,213875,450,454,489,214364,214361,2023-08-21T06:07:15Z,214388,NA,NA,NA,NA,NA,NA,NA,NA,NA,NULL,NA,NA,NA,NA,NA,NA,NA,NA,NA,NA,NA,NA,NA,NA,NA,NA,NA,NA,NA
