observation,sender,sender_type,sender_id,response,response_action,ended_on,duration,time_run,time_render,time_show,time_end,time_commit,timestamp,time_switch,german,swahili,enc,distractor1,distractor2,distractor3,response_2,x,correct,distractors,url_vp,url_sess,meta_labjs_version,meta_location,meta_user_agent,meta_platform,meta_language,meta_locale,meta_time_zone,meta_timezone_offset,meta_screen_width,meta_screen_height,meta_scroll_width,meta_scroll_height,meta_window_inner_width,meta_window_inner_height,meta_device_pixel_ratio,meta_labjs_build_flavor,meta_labjs_build_commit
e08b7,Introduction delayed retrieval,canvas.Screen,0,weiter,keypress(Space),response,23898.891,649.59999999998,315.302,681.809,24580.7,24582.4,2023-03-26T07:51:00Z,24590.412,NA,NA,NA,NA,NA,NA,NA,NA,NA,NULL,204,2,20.2.4,https://neurocog.fernuni.ch/studies/vweber/sfink/delayed/index.html?vp=204&sess=2,"Mozilla/5.0 (Windows NT 10.0; Win64; x64) AppleWebKit/537.36 (KHTML, like Gecko) Chrome/111.0.0.0 Safari/537.36 Edg/111.0.1661.51",Win32,de,de-CH,Europe/Zurich,-120,1536,864,1536,666,1536,714,1.25,production,f5b4a49f956347addd546a832a3327688c2c0fef
e08b7,Deep Question,html.Page,1_0_0_0,NA,NA,form submission,3020.4879999999,24582.6,24574.006,24590.412,27610.9,27611.1,2023-03-26T07:51:03Z,27622.902,Gelegenheit,wakati,d,mchanganyiko,kipaumbele,kushuku,f,NA,NA,NULL,NA,NA,NA,NA,NA,NA,NA,NA,NA,NA,NA,NA,NA,NA,NA,NA,NA,NA,NA
e08b7,Save data screen,canvas.Screen,1_0_0_1,NA,NA,timeout,499.623,27612,27606.303,27622.902,28106.191,28107.5,2023-03-26T07:51:03Z,28122.525,Gelegenheit,wakati,d,mchanganyiko,kipaumbele,kushuku,NA,NA,0,NULL,NA,NA,NA,NA,NA,NA,NA,NA,NA,NA,NA,NA,NA,NA,NA,NA,NA,NA,NA
e08b7,deep,flow.Sequence,1_0_0,NA,NA,completion,3515.779,24582.6,24574.006,24590.412,28106.191,28107.8,2023-03-26T07:51:03Z,28122.525,Gelegenheit,wakati,d,mchanganyiko,kipaumbele,kushuku,NA,NA,NA,NULL,NA,NA,NA,NA,NA,NA,NA,NA,NA,NA,NA,NA,NA,NA,NA,NA,NA,NA,NA
e08b7,task,flow.Sequence,1_0,NA,NA,completion,3515.779,24582.6,24574.006,24590.412,28106.191,28108,2023-03-26T07:51:03Z,28122.525,Gelegenheit,wakati,d,mchanganyiko,kipaumbele,kushuku,NA,NA,NA,NULL,NA,NA,NA,NA,NA,NA,NA,NA,NA,NA,NA,NA,NA,NA,NA,NA,NA,NA,NA
e08b7,Deep Question,html.Page,1_1_0_0,NA,NA,form submission,1967.3749999999,28108.1,28106.191,28122.525,30089.9,30090.2,2023-03-26T07:51:05Z,30105.389,Symbol,kielezo,s,kinyume,nderemo,utayari,a,NA,NA,NULL,NA,NA,NA,NA,NA,NA,NA,NA,NA,NA,NA,NA,NA,NA,NA,NA,NA,NA,NA
e08b7,Save data screen,canvas.Screen,1_1_0_1,NA,NA,timeout,500.027,30090.9,30088.679,30105.389,30588.684,30589.5,2023-03-26T07:51:06Z,30605.416,Symbol,kielezo,s,kinyume,nderemo,utayari,NA,NA,0,NULL,NA,NA,NA,NA,NA,NA,NA,NA,NA,NA,NA,NA,NA,NA,NA,NA,NA,NA,NA
e08b7,deep,flow.Sequence,1_1_0,NA,NA,completion,2466.159,28108.1,28106.191,28122.525,30588.684,30589.8,2023-03-26T07:51:06Z,30605.416,Symbol,kielezo,s,kinyume,nderemo,utayari,NA,NA,NA,NULL,NA,NA,NA,NA,NA,NA,NA,NA,NA,NA,NA,NA,NA,NA,NA,NA,NA,NA,NA
e08b7,task,flow.Sequence,1_1,NA,NA,completion,2466.159,28108.1,28106.191,28122.525,30588.684,30589.9,2023-03-26T07:51:06Z,30605.416,Symbol,kielezo,s,kinyume,nderemo,utayari,NA,NA,NA,NULL,NA,NA,NA,NA,NA,NA,NA,NA,NA,NA,NA,NA,NA,NA,NA,NA,NA,NA,NA
e08b7,Deep Question,html.Page,1_2_0_0,NA,NA,form submission,2248.684,30590.2,30588.684,30605.416,32854.1,32854.5,2023-03-26T07:51:08Z,32885.634,Vorsorge,tahadhari,d,ufafanuzi,makini,mashambani,a,NA,NA,NULL,NA,NA,NA,NA,NA,NA,NA,NA,NA,NA,NA,NA,NA,NA,NA,NA,NA,NA,NA
e08b7,Save data screen,canvas.Screen,1_2_0_1,NA,NA,timeout,501.944,32855.2,32838.13,32885.634,33370.826,33372.2,2023-03-26T07:51:08Z,33387.578,Vorsorge,tahadhari,d,ufafanuzi,makini,mashambani,NA,NA,0,NULL,NA,NA,NA,NA,NA,NA,NA,NA,NA,NA,NA,NA,NA,NA,NA,NA,NA,NA,NA
e08b7,deep,flow.Sequence,1_2_0,NA,NA,completion,2765.41,30590.2,30588.684,30605.416,33370.826,33372.4,2023-03-26T07:51:08Z,33387.578,Vorsorge,tahadhari,d,ufafanuzi,makini,mashambani,NA,NA,NA,NULL,NA,NA,NA,NA,NA,NA,NA,NA,NA,NA,NA,NA,NA,NA,NA,NA,NA,NA,NA
e08b7,task,flow.Sequence,1_2,NA,NA,completion,2765.41,30590.1,30588.684,30605.416,33370.826,33372.6,2023-03-26T07:51:08Z,33387.578,Vorsorge,tahadhari,d,ufafanuzi,makini,mashambani,NA,NA,NA,NULL,NA,NA,NA,NA,NA,NA,NA,NA,NA,NA,NA,NA,NA,NA,NA,NA,NA,NA,NA
e08b7,Deep Question,html.Page,1_3_0_0,NA,NA,form submission,2636.2219999999,33372.7,33370.826,33387.578,36023.8,36024,2023-03-26T07:51:11Z,36036.721,Zufall,kikuti,s,kukosekana,uchoraji,leseni,a,NA,NA,NULL,NA,NA,NA,NA,NA,NA,NA,NA,NA,NA,NA,NA,NA,NA,NA,NA,NA,NA,NA
e08b7,Save data screen,canvas.Screen,1_3_0_1,NA,NA,timeout,499.898,36024.7,36020.173,36036.721,36519.836,36520.8,2023-03-26T07:51:11Z,36536.619,Zufall,kikuti,s,kukosekana,uchoraji,leseni,NA,NA,0,NULL,NA,NA,NA,NA,NA,NA,NA,NA,NA,NA,NA,NA,NA,NA,NA,NA,NA,NA,NA
e08b7,deep,flow.Sequence,1_3_0,NA,NA,completion,3132.258,33372.7,33370.826,33387.578,36519.836,36521,2023-03-26T07:51:11Z,36536.619,Zufall,kikuti,s,kukosekana,uchoraji,leseni,NA,NA,NA,NULL,NA,NA,NA,NA,NA,NA,NA,NA,NA,NA,NA,NA,NA,NA,NA,NA,NA,NA,NA
e08b7,task,flow.Sequence,1_3,NA,NA,completion,3132.258,33372.6,33370.826,33387.578,36519.836,36521.3,2023-03-26T07:51:11Z,36536.619,Zufall,kikuti,s,kukosekana,uchoraji,leseni,NA,NA,NA,NULL,NA,NA,NA,NA,NA,NA,NA,NA,NA,NA,NA,NA,NA,NA,NA,NA,NA,NA,NA
e08b7,Deep Question,html.Page,1_4_0_0,NA,NA,form submission,2187.381,36521.4,36519.836,36536.619,38724,38724.2,2023-03-26T07:51:14Z,38735.743,Auftrag,uagizaji,d,ghanima,kuzingatia,msukani,a,NA,NA,NULL,NA,NA,NA,NA,NA,NA,NA,NA,NA,NA,NA,NA,NA,NA,NA,NA,NA,NA,NA
e08b7,Save data screen,canvas.Screen,1_4_0_1,NA,NA,timeout,499.903,38724.8,38719.407,38735.743,39218.838,39220.3,2023-03-26T07:51:14Z,39235.646,Auftrag,uagizaji,d,ghanima,kuzingatia,msukani,NA,NA,0,NULL,NA,NA,NA,NA,NA,NA,NA,NA,NA,NA,NA,NA,NA,NA,NA,NA,NA,NA,NA
e08b7,deep,flow.Sequence,1_4_0,NA,NA,completion,2682.219,36521.4,36519.836,36536.619,39218.838,39220.6,2023-03-26T07:51:14Z,39235.646,Auftrag,uagizaji,d,ghanima,kuzingatia,msukani,NA,NA,NA,NULL,NA,NA,NA,NA,NA,NA,NA,NA,NA,NA,NA,NA,NA,NA,NA,NA,NA,NA,NA
e08b7,task,flow.Sequence,1_4,NA,NA,completion,2682.219,36521.3,36519.836,36536.619,39218.838,39220.7,2023-03-26T07:51:14Z,39235.646,Auftrag,uagizaji,d,ghanima,kuzingatia,msukani,NA,NA,NA,NULL,NA,NA,NA,NA,NA,NA,NA,NA,NA,NA,NA,NA,NA,NA,NA,NA,NA,NA,NA
e08b7,Deep Question,html.Page,1_5_0_0,NA,NA,form submission,2330.354,39220.9,39218.838,39235.646,41566,41566.3,2023-03-26T07:51:17Z,41567.983,Zuwachs,nyongeza,s,matilaba,udhibiti,hudhurio,a,NA,NA,NULL,NA,NA,NA,NA,NA,NA,NA,NA,NA,NA,NA,NA,NA,NA,NA,NA,NA,NA,NA
e08b7,Save data screen,canvas.Screen,1_5_0_1,NA,NA,timeout,500.237,41567,41551.732,41567.983,42051.496,42052.3,2023-03-26T07:51:17Z,42068.22,Zuwachs,nyongeza,s,matilaba,udhibiti,hudhurio,NA,NA,0,NULL,NA,NA,NA,NA,NA,NA,NA,NA,NA,NA,NA,NA,NA,NA,NA,NA,NA,NA,NA
e08b7,deep,flow.Sequence,1_5_0,NA,NA,completion,2815.85,39220.9,39218.838,39235.646,42051.496,42052.6,2023-03-26T07:51:17Z,42068.22,Zuwachs,nyongeza,s,matilaba,udhibiti,hudhurio,NA,NA,NA,NULL,NA,NA,NA,NA,NA,NA,NA,NA,NA,NA,NA,NA,NA,NA,NA,NA,NA,NA,NA
e08b7,task,flow.Sequence,1_5,NA,NA,completion,2815.85,39220.8,39218.838,39235.646,42051.496,42052.8,2023-03-26T07:51:17Z,42068.22,Zuwachs,nyongeza,s,matilaba,udhibiti,hudhurio,NA,NA,NA,NULL,NA,NA,NA,NA,NA,NA,NA,NA,NA,NA,NA,NA,NA,NA,NA,NA,NA,NA,NA
e08b7,Deep Question,html.Page,1_6_0_0,NA,NA,form submission,2112.1799999999,42052.9,42051.496,42068.22,44180.4,44180.7,2023-03-26T07:51:19Z,44200.569,Sympathie,mapendano,s,dhamiria,fungamano,maazimio,a,NA,NA,NULL,NA,NA,NA,NA,NA,NA,NA,NA,NA,NA,NA,NA,NA,NA,NA,NA,NA,NA,NA
e08b7,Save data screen,canvas.Screen,1_6_0_1,NA,NA,timeout,500.231,44181.4,44184.066,44200.569,44683.987,44685,2023-03-26T07:51:20Z,44700.8,Sympathie,mapendano,s,dhamiria,fungamano,maazimio,NA,NA,0,NULL,NA,NA,NA,NA,NA,NA,NA,NA,NA,NA,NA,NA,NA,NA,NA,NA,NA,NA,NA
e08b7,deep,flow.Sequence,1_6_0,NA,NA,completion,2615.767,42052.9,42051.496,42068.22,44683.987,44685.1,2023-03-26T07:51:20Z,44700.8,Sympathie,mapendano,s,dhamiria,fungamano,maazimio,NA,NA,NA,NULL,NA,NA,NA,NA,NA,NA,NA,NA,NA,NA,NA,NA,NA,NA,NA,NA,NA,NA,NA
e08b7,task,flow.Sequence,1_6,NA,NA,completion,2615.767,42052.9,42051.496,42068.22,44683.987,44685.3,2023-03-26T07:51:20Z,44700.8,Sympathie,mapendano,s,dhamiria,fungamano,maazimio,NA,NA,NA,NULL,NA,NA,NA,NA,NA,NA,NA,NA,NA,NA,NA,NA,NA,NA,NA,NA,NA,NA,NA
e08b7,Deep Question,html.Page,1_7_0_0,NA,NA,form submission,2532.9,44685.5,44683.987,44700.8,47233.7,47233.8,2023-03-26T07:51:22Z,47249.532,Ausschluss,kutengwa,d,ununuzi,taratibu,madeni,a,NA,NA,NULL,NA,NA,NA,NA,NA,NA,NA,NA,NA,NA,NA,NA,NA,NA,NA,NA,NA,NA,NA
e08b7,Save data screen,canvas.Screen,1_7_0_1,NA,NA,timeout,499.903,47234.1,47232.809,47249.532,47732.8,47733.3,2023-03-26T07:51:23Z,47749.435,Ausschluss,kutengwa,d,ununuzi,taratibu,madeni,NA,NA,0,NULL,NA,NA,NA,NA,NA,NA,NA,NA,NA,NA,NA,NA,NA,NA,NA,NA,NA,NA,NA
e08b7,deep,flow.Sequence,1_7_0,NA,NA,completion,3032,44685.4,44683.987,44700.8,47732.8,47733.3,2023-03-26T07:51:23Z,47749.435,Ausschluss,kutengwa,d,ununuzi,taratibu,madeni,NA,NA,NA,NULL,NA,NA,NA,NA,NA,NA,NA,NA,NA,NA,NA,NA,NA,NA,NA,NA,NA,NA,NA
e08b7,task,flow.Sequence,1_7,NA,NA,completion,3032,44685.4,44683.987,44700.8,47732.8,47733.4,2023-03-26T07:51:23Z,47749.435,Ausschluss,kutengwa,d,ununuzi,taratibu,madeni,NA,NA,NA,NULL,NA,NA,NA,NA,NA,NA,NA,NA,NA,NA,NA,NA,NA,NA,NA,NA,NA,NA,NA
e08b7,Deep Question,html.Page,1_8_0_0,NA,NA,form submission,1980.165,47733.4,47732.8,47749.435,49729.6,49729.7,2023-03-26T07:51:25Z,49731.882,Verstand,ufahamivu,s,shakawa,hadhari,mhandisi,a,NA,NA,NULL,NA,NA,NA,NA,NA,NA,NA,NA,NA,NA,NA,NA,NA,NA,NA,NA,NA,NA,NA
e08b7,Save data screen,canvas.Screen,1_8_0_1,NA,NA,timeout,499.856,49730.2,49715.293,49731.882,50215.119,50215.6,2023-03-26T07:51:25Z,50231.738,Verstand,ufahamivu,s,shakawa,hadhari,mhandisi,NA,NA,0,NULL,NA,NA,NA,NA,NA,NA,NA,NA,NA,NA,NA,NA,NA,NA,NA,NA,NA,NA,NA
e08b7,deep,flow.Sequence,1_8_0,NA,NA,completion,2465.684,47733.4,47732.8,47749.435,50215.119,50215.8,2023-03-26T07:51:25Z,50231.738,Verstand,ufahamivu,s,shakawa,hadhari,mhandisi,NA,NA,NA,NULL,NA,NA,NA,NA,NA,NA,NA,NA,NA,NA,NA,NA,NA,NA,NA,NA,NA,NA,NA
e08b7,task,flow.Sequence,1_8,NA,NA,completion,2465.684,47733.4,47732.8,47749.435,50215.119,50215.8,2023-03-26T07:51:25Z,50231.738,Verstand,ufahamivu,s,shakawa,hadhari,mhandisi,NA,NA,NA,NULL,NA,NA,NA,NA,NA,NA,NA,NA,NA,NA,NA,NA,NA,NA,NA,NA,NA,NA,NA
e08b7,Deep Question,html.Page,1_9_0_0,NA,NA,form submission,3644.262,50215.9,50215.119,50231.738,53876,53876.1,2023-03-26T07:51:29Z,53880.603,Konkurrent,mshindani,d,msemaji,mvutaji,kipukusa,a,NA,NA,NULL,NA,NA,NA,NA,NA,NA,NA,NA,NA,NA,NA,NA,NA,NA,NA,NA,NA,NA,NA
e08b7,Save data screen,canvas.Screen,1_9_0_1,NA,NA,timeout,499.723,53876.6,53863.999,53880.603,54363.668,54364.1,2023-03-26T07:51:29Z,54380.326,Konkurrent,mshindani,d,msemaji,mvutaji,kipukusa,NA,NA,0,NULL,NA,NA,NA,NA,NA,NA,NA,NA,NA,NA,NA,NA,NA,NA,NA,NA,NA,NA,NA
e08b7,deep,flow.Sequence,1_9_0,NA,NA,completion,4131.93,50215.9,50215.119,50231.738,54363.668,54364.3,2023-03-26T07:51:29Z,54380.326,Konkurrent,mshindani,d,msemaji,mvutaji,kipukusa,NA,NA,NA,NULL,NA,NA,NA,NA,NA,NA,NA,NA,NA,NA,NA,NA,NA,NA,NA,NA,NA,NA,NA
e08b7,task,flow.Sequence,1_9,NA,NA,completion,4131.93,50215.8,50215.119,50231.738,54363.668,54364.3,2023-03-26T07:51:29Z,54380.326,Konkurrent,mshindani,d,msemaji,mvutaji,kipukusa,NA,NA,NA,NULL,NA,NA,NA,NA,NA,NA,NA,NA,NA,NA,NA,NA,NA,NA,NA,NA,NA,NA,NA
e08b7,Deep Question,html.Page,1_10_0_0,NA,NA,form submission,2117.374,54364.5,54363.668,54380.326,56497.7,56497.8,2023-03-26T07:51:31Z,56513.026,Wettbewerb,ushindani,d,mapendezi,kichocheo,ubaguzi,a,NA,NA,NULL,NA,NA,NA,NA,NA,NA,NA,NA,NA,NA,NA,NA,NA,NA,NA,NA,NA,NA,NA
e08b7,Save data screen,canvas.Screen,1_10_0_1,NA,NA,timeout,499.75,56498.4,56496.358,56513.026,56996.107,56996.8,2023-03-26T07:51:32Z,57012.776,Wettbewerb,ushindani,d,mapendezi,kichocheo,ubaguzi,NA,NA,0,NULL,NA,NA,NA,NA,NA,NA,NA,NA,NA,NA,NA,NA,NA,NA,NA,NA,NA,NA,NA
e08b7,deep,flow.Sequence,1_10_0,NA,NA,completion,2615.781,54364.5,54363.668,54380.326,56996.107,56996.9,2023-03-26T07:51:32Z,57012.776,Wettbewerb,ushindani,d,mapendezi,kichocheo,ubaguzi,NA,NA,NA,NULL,NA,NA,NA,NA,NA,NA,NA,NA,NA,NA,NA,NA,NA,NA,NA,NA,NA,NA,NA
e08b7,task,flow.Sequence,1_10,NA,NA,completion,2615.781,54364.5,54363.668,54380.326,56996.107,56997,2023-03-26T07:51:32Z,57012.776,Wettbewerb,ushindani,d,mapendezi,kichocheo,ubaguzi,NA,NA,NA,NULL,NA,NA,NA,NA,NA,NA,NA,NA,NA,NA,NA,NA,NA,NA,NA,NA,NA,NA,NA
e08b7,Deep Question,html.Page,1_11_0_0,NA,NA,form submission,3175.6239999999,56997.1,56996.107,57012.776,60188.4,60188.4,2023-03-26T07:51:35Z,60195.356,Schönheit,kirembo,s,mahojiano,msisimko,jitihadi,a,NA,NA,NULL,NA,NA,NA,NA,NA,NA,NA,NA,NA,NA,NA,NA,NA,NA,NA,NA,NA,NA,NA
e08b7,Save data screen,canvas.Screen,1_11_0_1,NA,NA,timeout,499.528,60189.1,60178.598,60195.356,60678.624,60679.9,2023-03-26T07:51:36Z,60694.884,Schönheit,kirembo,s,mahojiano,msisimko,jitihadi,NA,NA,0,NULL,NA,NA,NA,NA,NA,NA,NA,NA,NA,NA,NA,NA,NA,NA,NA,NA,NA,NA,NA
e08b7,deep,flow.Sequence,1_11_0,NA,NA,completion,3665.848,56997.1,56996.107,57012.776,60678.624,60680.1,2023-03-26T07:51:36Z,60694.884,Schönheit,kirembo,s,mahojiano,msisimko,jitihadi,NA,NA,NA,NULL,NA,NA,NA,NA,NA,NA,NA,NA,NA,NA,NA,NA,NA,NA,NA,NA,NA,NA,NA
e08b7,task,flow.Sequence,1_11,NA,NA,completion,3665.848,56997.1,56996.107,57012.776,60678.624,60680.3,2023-03-26T07:51:36Z,60694.884,Schönheit,kirembo,s,mahojiano,msisimko,jitihadi,NA,NA,NA,NULL,NA,NA,NA,NA,NA,NA,NA,NA,NA,NA,NA,NA,NA,NA,NA,NA,NA,NA,NA
e08b7,Deep Question,html.Page,1_12_0_0,NA,NA,form submission,2239.316,60680.4,60678.624,60694.884,62934.2,62934.4,2023-03-26T07:51:38Z,62944.258,Widerstand,usulubu,s,kusababisha,mwalimu,mwenendo,a,NA,NA,NULL,NA,NA,NA,NA,NA,NA,NA,NA,NA,NA,NA,NA,NA,NA,NA,NA,NA,NA,NA
e08b7,Save data screen,canvas.Screen,1_12_0_1,NA,NA,timeout,499.824,62936.4,62927.549,62944.258,63427.474,63428.4,2023-03-26T07:51:38Z,63444.082,Widerstand,usulubu,s,kusababisha,mwalimu,mwenendo,NA,NA,0,NULL,NA,NA,NA,NA,NA,NA,NA,NA,NA,NA,NA,NA,NA,NA,NA,NA,NA,NA,NA
e08b7,deep,flow.Sequence,1_12_0,NA,NA,completion,2732.59,60680.3,60678.624,60694.884,63427.474,63428.6,2023-03-26T07:51:38Z,63444.082,Widerstand,usulubu,s,kusababisha,mwalimu,mwenendo,NA,NA,NA,NULL,NA,NA,NA,NA,NA,NA,NA,NA,NA,NA,NA,NA,NA,NA,NA,NA,NA,NA,NA
e08b7,task,flow.Sequence,1_12,NA,NA,completion,2732.59,60680.3,60678.624,60694.884,63427.474,63428.7,2023-03-26T07:51:38Z,63444.082,Widerstand,usulubu,s,kusababisha,mwalimu,mwenendo,NA,NA,NA,NULL,NA,NA,NA,NA,NA,NA,NA,NA,NA,NA,NA,NA,NA,NA,NA,NA,NA,NA,NA
e08b7,Deep Question,html.Page,1_13_0_0,NA,NA,form submission,6336.3179999999,63428.9,63427.474,63444.082,69780.4,69780.5,2023-03-26T07:51:45Z,69792.143,Beweis,ushahidi,d,marudio,kizuizi,mtendaji,a,NA,NA,NULL,NA,NA,NA,NA,NA,NA,NA,NA,NA,NA,NA,NA,NA,NA,NA,NA,NA,NA,NA
e08b7,Save data screen,canvas.Screen,1_13_0_1,NA,NA,timeout,499.54800000001,69782.5,69775.507,69792.143,70275.367,70276.1,2023-03-26T07:51:45Z,70291.691,Beweis,ushahidi,d,marudio,kizuizi,mtendaji,NA,NA,0,NULL,NA,NA,NA,NA,NA,NA,NA,NA,NA,NA,NA,NA,NA,NA,NA,NA,NA,NA,NA
e08b7,deep,flow.Sequence,1_13_0,NA,NA,completion,6831.285,63428.9,63427.474,63444.082,70275.367,70276.4,2023-03-26T07:51:45Z,70291.691,Beweis,ushahidi,d,marudio,kizuizi,mtendaji,NA,NA,NA,NULL,NA,NA,NA,NA,NA,NA,NA,NA,NA,NA,NA,NA,NA,NA,NA,NA,NA,NA,NA
e08b7,task,flow.Sequence,1_13,NA,NA,completion,6831.285,63428.8,63427.474,63444.082,70275.367,70276.5,2023-03-26T07:51:45Z,70291.691,Beweis,ushahidi,d,marudio,kizuizi,mtendaji,NA,NA,NA,NULL,NA,NA,NA,NA,NA,NA,NA,NA,NA,NA,NA,NA,NA,NA,NA,NA,NA,NA,NA
e08b7,Deep Question,html.Page,1_14_0_0,NA,NA,form submission,2244.909,70276.6,70275.367,70291.691,72536.6,72536.7,2023-03-26T07:51:48Z,72540.918,Annäherung,maegesho,s,madahili,kujiamini,mapendekezo,a,NA,NA,NULL,NA,NA,NA,NA,NA,NA,NA,NA,NA,NA,NA,NA,NA,NA,NA,NA,NA,NA,NA
e08b7,Save data screen,canvas.Screen,1_14_0_1,NA,NA,timeout,499.86599999999,72538.5,72524.557,72540.918,73024.313,73025.2,2023-03-26T07:51:48Z,73040.784,Annäherung,maegesho,s,madahili,kujiamini,mapendekezo,NA,NA,0,NULL,NA,NA,NA,NA,NA,NA,NA,NA,NA,NA,NA,NA,NA,NA,NA,NA,NA,NA,NA
e08b7,deep,flow.Sequence,1_14_0,NA,NA,completion,2732.622,70276.6,70275.367,70291.691,73024.313,73025.4,2023-03-26T07:51:48Z,73040.784,Annäherung,maegesho,s,madahili,kujiamini,mapendekezo,NA,NA,NA,NULL,NA,NA,NA,NA,NA,NA,NA,NA,NA,NA,NA,NA,NA,NA,NA,NA,NA,NA,NA
e08b7,task,flow.Sequence,1_14,NA,NA,completion,2732.622,70276.5,70275.367,70291.691,73024.313,73025.5,2023-03-26T07:51:48Z,73040.784,Annäherung,maegesho,s,madahili,kujiamini,mapendekezo,NA,NA,NA,NULL,NA,NA,NA,NA,NA,NA,NA,NA,NA,NA,NA,NA,NA,NA,NA,NA,NA,NA,NA
e08b7,Deep Question,html.Page,1_15_0_0,NA,NA,form submission,36767.816,73025.7,73024.313,73040.784,109808.6,109808.8,2023-03-26T07:52:25Z,109811.718,Polizist,msongora,d,simanzi,mandhari,nidhamu,a,NA,NA,NULL,NA,NA,NA,NA,NA,NA,NA,NA,NA,NA,NA,NA,NA,NA,NA,NA,NA,NA,NA
e08b7,Save data screen,canvas.Screen,1_15_0_1,NA,NA,timeout,499.77,109810.9,109795.16,109811.718,110294.884,110297.3,2023-03-26T07:52:25Z,110311.488,Polizist,msongora,d,simanzi,mandhari,nidhamu,NA,NA,0,NULL,NA,NA,NA,NA,NA,NA,NA,NA,NA,NA,NA,NA,NA,NA,NA,NA,NA,NA,NA
e08b7,deep,flow.Sequence,1_15_0,NA,NA,completion,37254.1,73025.7,73024.313,73040.784,110294.884,110297.4,2023-03-26T07:52:25Z,110311.488,Polizist,msongora,d,simanzi,mandhari,nidhamu,NA,NA,NA,NULL,NA,NA,NA,NA,NA,NA,NA,NA,NA,NA,NA,NA,NA,NA,NA,NA,NA,NA,NA
e08b7,task,flow.Sequence,1_15,NA,NA,completion,37254.1,73025.5,73024.313,73040.784,110294.884,110297.5,2023-03-26T07:52:25Z,110311.488,Polizist,msongora,d,simanzi,mandhari,nidhamu,NA,NA,NA,NULL,NA,NA,NA,NA,NA,NA,NA,NA,NA,NA,NA,NA,NA,NA,NA,NA,NA,NA,NA
e08b7,retrieval block 1 (cued recall),flow.Loop,1,NA,NA,completion,85704.472,24582.6,24574.006,24590.412,110294.884,110297.6,2023-03-26T07:52:25Z,110311.488,NA,NA,NA,NA,NA,NA,NA,NA,NA,NULL,NA,NA,NA,NA,NA,NA,NA,NA,NA,NA,NA,NA,NA,NA,NA,NA,NA,NA,NA
e08b7,Shallow Question,html.Page,2_0_0_0,NA,NA,form submission,15314.712,110297.7,110294.884,110311.488,125626.2,125626.5,2023-03-26T07:52:41Z,125639.775,Sympathie,mapendano,s,dhamiria,fungamano,maazimio,mapendano,NA,NA,"c(""distractor1"", ""distractor2"", ""distractor3"")",NA,NA,NA,NA,NA,NA,NA,NA,NA,NA,NA,NA,NA,NA,NA,NA,NA,NA,NA
e08b7,Save data screen,canvas.Screen,2_0_0_1,NA,NA,timeout,499.71100000001,125628.2,125623.097,125639.775,126123.023,126123.8,2023-03-26T07:52:41Z,126139.486,Sympathie,mapendano,s,dhamiria,fungamano,maazimio,NA,NA,1,"c(""distractor1"", ""distractor2"", ""distractor3"")",NA,NA,NA,NA,NA,NA,NA,NA,NA,NA,NA,NA,NA,NA,NA,NA,NA,NA,NA
e08b7,shallow,flow.Sequence,2_0_0,NA,NA,completion,15811.535,110297.7,110294.884,110311.488,126123.023,126124.1,2023-03-26T07:52:41Z,126139.486,Sympathie,mapendano,s,dhamiria,fungamano,maazimio,NA,NA,NA,"c(""distractor1"", ""distractor2"", ""distractor3"")",NA,NA,NA,NA,NA,NA,NA,NA,NA,NA,NA,NA,NA,NA,NA,NA,NA,NA,NA
e08b7,task,flow.Sequence,2_0,NA,NA,completion,15811.535,110297.7,110294.884,110311.488,126123.023,126124.3,2023-03-26T07:52:41Z,126139.486,Sympathie,mapendano,s,dhamiria,fungamano,maazimio,NA,NA,NA,"c(""distractor1"", ""distractor2"", ""distractor3"")",NA,NA,NA,NA,NA,NA,NA,NA,NA,NA,NA,NA,NA,NA,NA,NA,NA,NA,NA
e08b7,Shallow Question,html.Page,2_1_0_0,NA,NA,form submission,4377.114,126124.4,126123.023,126139.486,130516.6,130516.9,2023-03-26T07:52:45Z,130521.421,Schönheit,kirembo,s,mahojiano,msisimko,jitihadi,kirembo,NA,NA,"c(""distractor1"", ""distractor2"", ""distractor3"")",NA,NA,NA,NA,NA,NA,NA,NA,NA,NA,NA,NA,NA,NA,NA,NA,NA,NA,NA
e08b7,Save data screen,canvas.Screen,2_1_0_1,NA,NA,timeout,499.871,130518.5,130505.009,130521.421,131004.841,131005.6,2023-03-26T07:52:46Z,131021.292,Schönheit,kirembo,s,mahojiano,msisimko,jitihadi,NA,NA,1,"c(""distractor1"", ""distractor2"", ""distractor3"")",NA,NA,NA,NA,NA,NA,NA,NA,NA,NA,NA,NA,NA,NA,NA,NA,NA,NA,NA
e08b7,shallow,flow.Sequence,2_1_0,NA,NA,completion,4865.355,126124.3,126123.023,126139.486,131004.841,131005.9,2023-03-26T07:52:46Z,131021.292,Schönheit,kirembo,s,mahojiano,msisimko,jitihadi,NA,NA,NA,"c(""distractor1"", ""distractor2"", ""distractor3"")",NA,NA,NA,NA,NA,NA,NA,NA,NA,NA,NA,NA,NA,NA,NA,NA,NA,NA,NA
e08b7,task,flow.Sequence,2_1,NA,NA,completion,4865.355,126124.3,126123.023,126139.486,131004.841,131006,2023-03-26T07:52:46Z,131021.292,Schönheit,kirembo,s,mahojiano,msisimko,jitihadi,NA,NA,NA,"c(""distractor1"", ""distractor2"", ""distractor3"")",NA,NA,NA,NA,NA,NA,NA,NA,NA,NA,NA,NA,NA,NA,NA,NA,NA,NA,NA
e08b7,Shallow Question,html.Page,2_2_0_0,NA,NA,form submission,21427.108,131006.2,131004.841,131021.292,152448.4,152448.6,2023-03-26T07:53:07Z,152464.091,Konkurrent,mshindani,d,msemaji,mvutaji,kipukusa,mshindani,NA,NA,"c(""distractor1"", ""distractor2"", ""distractor3"")",NA,NA,NA,NA,NA,NA,NA,NA,NA,NA,NA,NA,NA,NA,NA,NA,NA,NA,NA
e08b7,Save data screen,canvas.Screen,2_2_0_1,NA,NA,timeout,499.94700000001,152450.5,152447.697,152464.091,152947.212,152948.5,2023-03-26T07:53:08Z,152964.038,Konkurrent,mshindani,d,msemaji,mvutaji,kipukusa,NA,NA,1,"c(""distractor1"", ""distractor2"", ""distractor3"")",NA,NA,NA,NA,NA,NA,NA,NA,NA,NA,NA,NA,NA,NA,NA,NA,NA,NA,NA
e08b7,shallow,flow.Sequence,2_2_0,NA,NA,completion,21925.92,131006.2,131004.841,131021.292,152947.212,152949,2023-03-26T07:53:08Z,152964.038,Konkurrent,mshindani,d,msemaji,mvutaji,kipukusa,NA,NA,NA,"c(""distractor1"", ""distractor2"", ""distractor3"")",NA,NA,NA,NA,NA,NA,NA,NA,NA,NA,NA,NA,NA,NA,NA,NA,NA,NA,NA
e08b7,task,flow.Sequence,2_2,NA,NA,completion,21925.92,131006.1,131004.841,131021.292,152947.212,152949.2,2023-03-26T07:53:08Z,152964.038,Konkurrent,mshindani,d,msemaji,mvutaji,kipukusa,NA,NA,NA,"c(""distractor1"", ""distractor2"", ""distractor3"")",NA,NA,NA,NA,NA,NA,NA,NA,NA,NA,NA,NA,NA,NA,NA,NA,NA,NA,NA
e08b7,Shallow Question,html.Page,2_3_0_0,NA,NA,form submission,12018.562,152949.4,152947.212,152964.038,164982.6,164982.8,2023-03-26T07:53:20Z,164993.176,Zuwachs,nyongeza,s,matilaba,udhibiti,hudhurio,nyongeza,NA,NA,"c(""distractor1"", ""distractor2"", ""distractor3"")",NA,NA,NA,NA,NA,NA,NA,NA,NA,NA,NA,NA,NA,NA,NA,NA,NA,NA,NA
e08b7,Save data screen,canvas.Screen,2_3_0_1,NA,NA,timeout,499.71299999999,164984.6,164976.605,164993.176,165476.225,165476.9,2023-03-26T07:53:20Z,165492.889,Zuwachs,nyongeza,s,matilaba,udhibiti,hudhurio,NA,NA,1,"c(""distractor1"", ""distractor2"", ""distractor3"")",NA,NA,NA,NA,NA,NA,NA,NA,NA,NA,NA,NA,NA,NA,NA,NA,NA,NA,NA
e08b7,shallow,flow.Sequence,2_3_0,NA,NA,completion,12512.187,152949.3,152947.212,152964.038,165476.225,165476.9,2023-03-26T07:53:20Z,165492.889,Zuwachs,nyongeza,s,matilaba,udhibiti,hudhurio,NA,NA,NA,"c(""distractor1"", ""distractor2"", ""distractor3"")",NA,NA,NA,NA,NA,NA,NA,NA,NA,NA,NA,NA,NA,NA,NA,NA,NA,NA,NA
e08b7,task,flow.Sequence,2_3,NA,NA,completion,12512.187,152949.3,152947.212,152964.038,165476.225,165477,2023-03-26T07:53:20Z,165492.889,Zuwachs,nyongeza,s,matilaba,udhibiti,hudhurio,NA,NA,NA,"c(""distractor1"", ""distractor2"", ""distractor3"")",NA,NA,NA,NA,NA,NA,NA,NA,NA,NA,NA,NA,NA,NA,NA,NA,NA,NA,NA
e08b7,Shallow Question,html.Page,2_4_0_0,NA,NA,form submission,5203.111,165477.1,165476.225,165492.889,170696,170696.3,2023-03-26T07:53:26Z,170708.072,Widerstand,usulubu,s,kusababisha,mwalimu,mwenendo,usulubu,NA,NA,"c(""distractor1"", ""distractor2"", ""distractor3"")",NA,NA,NA,NA,NA,NA,NA,NA,NA,NA,NA,NA,NA,NA,NA,NA,NA,NA,NA
e08b7,Save data screen,canvas.Screen,2_4_0_1,NA,NA,timeout,499.77000000002,170698.1,170691.167,170708.072,171191.202,171192.1,2023-03-26T07:53:26Z,171207.842,Widerstand,usulubu,s,kusababisha,mwalimu,mwenendo,NA,NA,1,"c(""distractor1"", ""distractor2"", ""distractor3"")",NA,NA,NA,NA,NA,NA,NA,NA,NA,NA,NA,NA,NA,NA,NA,NA,NA,NA,NA
e08b7,shallow,flow.Sequence,2_4_0,NA,NA,completion,5698.313,165477.1,165476.225,165492.889,171191.202,171192.4,2023-03-26T07:53:26Z,171207.842,Widerstand,usulubu,s,kusababisha,mwalimu,mwenendo,NA,NA,NA,"c(""distractor1"", ""distractor2"", ""distractor3"")",NA,NA,NA,NA,NA,NA,NA,NA,NA,NA,NA,NA,NA,NA,NA,NA,NA,NA,NA
e08b7,task,flow.Sequence,2_4,NA,NA,completion,5698.313,165477.1,165476.225,165492.889,171191.202,171192.6,2023-03-26T07:53:26Z,171207.842,Widerstand,usulubu,s,kusababisha,mwalimu,mwenendo,NA,NA,NA,"c(""distractor1"", ""distractor2"", ""distractor3"")",NA,NA,NA,NA,NA,NA,NA,NA,NA,NA,NA,NA,NA,NA,NA,NA,NA,NA,NA
e08b7,Shallow Question,html.Page,2_5_0_0,NA,NA,form submission,5076.258,171192.8,171191.202,171207.842,176284.1,176284.3,2023-03-26T07:53:31Z,176289.256,Zufall,kikuti,s,kukosekana,uchoraji,leseni,kikuti,NA,NA,"c(""distractor1"", ""distractor2"", ""distractor3"")",NA,NA,NA,NA,NA,NA,NA,NA,NA,NA,NA,NA,NA,NA,NA,NA,NA,NA,NA
e08b7,Save data screen,canvas.Screen,2_5_0_1,NA,NA,timeout,500.15900000001,176286.1,176272.65,176289.256,176772.567,176773.4,2023-03-26T07:53:32Z,176789.415,Zufall,kikuti,s,kukosekana,uchoraji,leseni,NA,NA,1,"c(""distractor1"", ""distractor2"", ""distractor3"")",NA,NA,NA,NA,NA,NA,NA,NA,NA,NA,NA,NA,NA,NA,NA,NA,NA,NA,NA
e08b7,shallow,flow.Sequence,2_5_0,NA,NA,completion,5564.725,171192.8,171191.202,171207.842,176772.567,176773.6,2023-03-26T07:53:32Z,176789.415,Zufall,kikuti,s,kukosekana,uchoraji,leseni,NA,NA,NA,"c(""distractor1"", ""distractor2"", ""distractor3"")",NA,NA,NA,NA,NA,NA,NA,NA,NA,NA,NA,NA,NA,NA,NA,NA,NA,NA,NA
e08b7,task,flow.Sequence,2_5,NA,NA,completion,5564.725,171192.7,171191.202,171207.842,176772.567,176773.9,2023-03-26T07:53:32Z,176789.415,Zufall,kikuti,s,kukosekana,uchoraji,leseni,NA,NA,NA,"c(""distractor1"", ""distractor2"", ""distractor3"")",NA,NA,NA,NA,NA,NA,NA,NA,NA,NA,NA,NA,NA,NA,NA,NA,NA,NA,NA
e08b7,Shallow Question,html.Page,2_6_0_0,NA,NA,form submission,12601.285,176774.1,176772.567,176789.415,189390.7,189390.9,2023-03-26T07:53:44Z,189401.657,Beweis,ushahidi,d,marudio,kizuizi,mtendaji,ushahidi,NA,NA,"c(""distractor1"", ""distractor2"", ""distractor3"")",NA,NA,NA,NA,NA,NA,NA,NA,NA,NA,NA,NA,NA,NA,NA,NA,NA,NA,NA
e08b7,Save data screen,canvas.Screen,2_6_0_1,NA,NA,timeout,499.758,189392.8,189384.96,189401.657,189884.9,189886.4,2023-03-26T07:53:45Z,189901.415,Beweis,ushahidi,d,marudio,kizuizi,mtendaji,NA,NA,1,"c(""distractor1"", ""distractor2"", ""distractor3"")",NA,NA,NA,NA,NA,NA,NA,NA,NA,NA,NA,NA,NA,NA,NA,NA,NA,NA,NA
e08b7,shallow,flow.Sequence,2_6_0,NA,NA,completion,13095.485,176774.1,176772.567,176789.415,189884.9,189886.7,2023-03-26T07:53:45Z,189901.415,Beweis,ushahidi,d,marudio,kizuizi,mtendaji,NA,NA,NA,"c(""distractor1"", ""distractor2"", ""distractor3"")",NA,NA,NA,NA,NA,NA,NA,NA,NA,NA,NA,NA,NA,NA,NA,NA,NA,NA,NA
e08b7,task,flow.Sequence,2_6,NA,NA,completion,13095.485,176774,176772.567,176789.415,189884.9,189886.9,2023-03-26T07:53:45Z,189901.415,Beweis,ushahidi,d,marudio,kizuizi,mtendaji,NA,NA,NA,"c(""distractor1"", ""distractor2"", ""distractor3"")",NA,NA,NA,NA,NA,NA,NA,NA,NA,NA,NA,NA,NA,NA,NA,NA,NA,NA,NA
e08b7,Shallow Question,html.Page,2_7_0_0,NA,NA,form submission,28252.585,189887,189884.9,189901.415,218154,218154.2,2023-03-26T07:54:13Z,218158.492,Wettbewerb,ushindani,d,mapendezi,kichocheo,ubaguzi,ushindani,NA,NA,"c(""distractor1"", ""distractor2"", ""distractor3"")",NA,NA,NA,NA,NA,NA,NA,NA,NA,NA,NA,NA,NA,NA,NA,NA,NA,NA,NA
e08b7,Save data screen,canvas.Screen,2_7_0_1,NA,NA,timeout,499.92000000001,218156.1,218142.093,218158.492,218641.793,218642.9,2023-03-26T07:54:14Z,218658.412,Wettbewerb,ushindani,d,mapendezi,kichocheo,ubaguzi,NA,NA,1,"c(""distractor1"", ""distractor2"", ""distractor3"")",NA,NA,NA,NA,NA,NA,NA,NA,NA,NA,NA,NA,NA,NA,NA,NA,NA,NA,NA
e08b7,shallow,flow.Sequence,2_7_0,NA,NA,completion,28740.378,189887,189884.9,189901.415,218641.793,218643.2,2023-03-26T07:54:14Z,218658.412,Wettbewerb,ushindani,d,mapendezi,kichocheo,ubaguzi,NA,NA,NA,"c(""distractor1"", ""distractor2"", ""distractor3"")",NA,NA,NA,NA,NA,NA,NA,NA,NA,NA,NA,NA,NA,NA,NA,NA,NA,NA,NA
e08b7,task,flow.Sequence,2_7,NA,NA,completion,28740.378,189886.9,189884.9,189901.415,218641.793,218643.5,2023-03-26T07:54:14Z,218658.412,Wettbewerb,ushindani,d,mapendezi,kichocheo,ubaguzi,NA,NA,NA,"c(""distractor1"", ""distractor2"", ""distractor3"")",NA,NA,NA,NA,NA,NA,NA,NA,NA,NA,NA,NA,NA,NA,NA,NA,NA,NA,NA
e08b7,Shallow Question,html.Page,2_8_0_0,NA,NA,form submission,33602.288,218643.8,218641.793,218658.412,252260.7,252260.9,2023-03-26T07:54:47Z,252263.623,Verstand,ufahamivu,s,shakawa,hadhari,mhandisi,ufahamivu,NA,NA,"c(""distractor1"", ""distractor2"", ""distractor3"")",NA,NA,NA,NA,NA,NA,NA,NA,NA,NA,NA,NA,NA,NA,NA,NA,NA,NA,NA
e08b7,Save data screen,canvas.Screen,2_8_0_1,NA,NA,timeout,499.95000000001,252262.9,252247.26,252263.623,252746.998,252748.6,2023-03-26T07:54:48Z,252763.573,Verstand,ufahamivu,s,shakawa,hadhari,mhandisi,NA,NA,1,"c(""distractor1"", ""distractor2"", ""distractor3"")",NA,NA,NA,NA,NA,NA,NA,NA,NA,NA,NA,NA,NA,NA,NA,NA,NA,NA,NA
e08b7,shallow,flow.Sequence,2_8_0,NA,NA,completion,34088.586,218643.7,218641.793,218658.412,252746.998,252748.9,2023-03-26T07:54:48Z,252763.573,Verstand,ufahamivu,s,shakawa,hadhari,mhandisi,NA,NA,NA,"c(""distractor1"", ""distractor2"", ""distractor3"")",NA,NA,NA,NA,NA,NA,NA,NA,NA,NA,NA,NA,NA,NA,NA,NA,NA,NA,NA
e08b7,task,flow.Sequence,2_8,NA,NA,completion,34088.586,218643.7,218641.793,218658.412,252746.998,252749,2023-03-26T07:54:48Z,252763.573,Verstand,ufahamivu,s,shakawa,hadhari,mhandisi,NA,NA,NA,"c(""distractor1"", ""distractor2"", ""distractor3"")",NA,NA,NA,NA,NA,NA,NA,NA,NA,NA,NA,NA,NA,NA,NA,NA,NA,NA,NA
e08b7,Shallow Question,html.Page,2_9_0_0,NA,NA,form submission,12399.227,252749.2,252746.998,252763.573,265162.8,265163,2023-03-26T07:55:00Z,265176.176,Symbol,kielezo,s,kinyume,nderemo,utayari,kielezo,NA,NA,"c(""distractor1"", ""distractor2"", ""distractor3"")",NA,NA,NA,NA,NA,NA,NA,NA,NA,NA,NA,NA,NA,NA,NA,NA,NA,NA,NA
e08b7,Save data screen,canvas.Screen,2_9_0_1,NA,NA,timeout,499.71900000004,265164.8,265159.609,265176.176,265659.337,265660.6,2023-03-26T07:55:01Z,265675.895,Symbol,kielezo,s,kinyume,nderemo,utayari,NA,NA,1,"c(""distractor1"", ""distractor2"", ""distractor3"")",NA,NA,NA,NA,NA,NA,NA,NA,NA,NA,NA,NA,NA,NA,NA,NA,NA,NA,NA
e08b7,shallow,flow.Sequence,2_9_0,NA,NA,completion,12895.764,252749.2,252746.998,252763.573,265659.337,265660.8,2023-03-26T07:55:01Z,265675.895,Symbol,kielezo,s,kinyume,nderemo,utayari,NA,NA,NA,"c(""distractor1"", ""distractor2"", ""distractor3"")",NA,NA,NA,NA,NA,NA,NA,NA,NA,NA,NA,NA,NA,NA,NA,NA,NA,NA,NA
e08b7,task,flow.Sequence,2_9,NA,NA,completion,12895.764,252749.1,252746.998,252763.573,265659.337,265660.9,2023-03-26T07:55:01Z,265675.895,Symbol,kielezo,s,kinyume,nderemo,utayari,NA,NA,NA,"c(""distractor1"", ""distractor2"", ""distractor3"")",NA,NA,NA,NA,NA,NA,NA,NA,NA,NA,NA,NA,NA,NA,NA,NA,NA,NA,NA
e08b7,Shallow Question,html.Page,2_10_0_0,NA,NA,form submission,20370.805,265661.1,265659.337,265675.895,286046.7,286046.9,2023-03-26T07:55:21Z,286052.182,Vorsorge,tahadhari,d,ufafanuzi,makini,mashambani,tahadhari,NA,NA,"c(""distractor1"", ""distractor2"", ""distractor3"")",NA,NA,NA,NA,NA,NA,NA,NA,NA,NA,NA,NA,NA,NA,NA,NA,NA,NA,NA
e08b7,Save data screen,canvas.Screen,2_10_0_1,NA,NA,timeout,500.01700000005,286048.9,286035.699,286052.182,286535.519,286536.4,2023-03-26T07:55:22Z,286552.199,Vorsorge,tahadhari,d,ufafanuzi,makini,mashambani,NA,NA,1,"c(""distractor1"", ""distractor2"", ""distractor3"")",NA,NA,NA,NA,NA,NA,NA,NA,NA,NA,NA,NA,NA,NA,NA,NA,NA,NA,NA
e08b7,shallow,flow.Sequence,2_10_0,NA,NA,completion,20859.624,265661,265659.337,265675.895,286535.519,286536.7,2023-03-26T07:55:22Z,286552.199,Vorsorge,tahadhari,d,ufafanuzi,makini,mashambani,NA,NA,NA,"c(""distractor1"", ""distractor2"", ""distractor3"")",NA,NA,NA,NA,NA,NA,NA,NA,NA,NA,NA,NA,NA,NA,NA,NA,NA,NA,NA
e08b7,task,flow.Sequence,2_10,NA,NA,completion,20859.624,265661,265659.337,265675.895,286535.519,286536.7,2023-03-26T07:55:22Z,286552.199,Vorsorge,tahadhari,d,ufafanuzi,makini,mashambani,NA,NA,NA,"c(""distractor1"", ""distractor2"", ""distractor3"")",NA,NA,NA,NA,NA,NA,NA,NA,NA,NA,NA,NA,NA,NA,NA,NA,NA,NA,NA
e08b7,Shallow Question,html.Page,2_11_0_0,NA,NA,form submission,16817.801,286536.9,286535.519,286552.199,303370,303370.2,2023-03-26T07:55:38Z,303379.71,Ausschluss,kutengwa,d,ununuzi,taratibu,madeni,kutengwa,NA,NA,"c(""distractor1"", ""distractor2"", ""distractor3"")",NA,NA,NA,NA,NA,NA,NA,NA,NA,NA,NA,NA,NA,NA,NA,NA,NA,NA,NA
e08b7,Save data screen,canvas.Screen,2_11_0_1,NA,NA,timeout,499.82299999997,303371.9,303363.133,303379.71,303862.86,303863.3,2023-03-26T07:55:39Z,303879.533,Ausschluss,kutengwa,d,ununuzi,taratibu,madeni,NA,NA,1,"c(""distractor1"", ""distractor2"", ""distractor3"")",NA,NA,NA,NA,NA,NA,NA,NA,NA,NA,NA,NA,NA,NA,NA,NA,NA,NA,NA
e08b7,shallow,flow.Sequence,2_11_0,NA,NA,completion,17310.661,286536.9,286535.519,286552.199,303862.86,303863.5,2023-03-26T07:55:39Z,303879.533,Ausschluss,kutengwa,d,ununuzi,taratibu,madeni,NA,NA,NA,"c(""distractor1"", ""distractor2"", ""distractor3"")",NA,NA,NA,NA,NA,NA,NA,NA,NA,NA,NA,NA,NA,NA,NA,NA,NA,NA,NA
e08b7,task,flow.Sequence,2_11,NA,NA,completion,17310.661,286536.8,286535.519,286552.199,303862.86,303863.5,2023-03-26T07:55:39Z,303879.533,Ausschluss,kutengwa,d,ununuzi,taratibu,madeni,NA,NA,NA,"c(""distractor1"", ""distractor2"", ""distractor3"")",NA,NA,NA,NA,NA,NA,NA,NA,NA,NA,NA,NA,NA,NA,NA,NA,NA,NA,NA
e08b7,Shallow Question,html.Page,2_12_0_0,NA,NA,form submission,11231.167,303863.6,303862.86,303879.533,315110.7,315110.9,2023-03-26T07:55:50Z,315125.894,Gelegenheit,wakati,d,mchanganyiko,kipaumbele,kushuku,wakati,NA,NA,"c(""distractor1"", ""distractor2"", ""distractor3"")",NA,NA,NA,NA,NA,NA,NA,NA,NA,NA,NA,NA,NA,NA,NA,NA,NA,NA,NA
e08b7,Save data screen,canvas.Screen,2_12_0_1,NA,NA,timeout,499.68100000004,315112.9,315109.361,315125.894,315609.065,315610.6,2023-03-26T07:55:51Z,315625.575,Gelegenheit,wakati,d,mchanganyiko,kipaumbele,kushuku,NA,NA,1,"c(""distractor1"", ""distractor2"", ""distractor3"")",NA,NA,NA,NA,NA,NA,NA,NA,NA,NA,NA,NA,NA,NA,NA,NA,NA,NA,NA
e08b7,shallow,flow.Sequence,2_12_0,NA,NA,completion,11729.532,303863.6,303862.86,303879.533,315609.065,315611,2023-03-26T07:55:51Z,315625.575,Gelegenheit,wakati,d,mchanganyiko,kipaumbele,kushuku,NA,NA,NA,"c(""distractor1"", ""distractor2"", ""distractor3"")",NA,NA,NA,NA,NA,NA,NA,NA,NA,NA,NA,NA,NA,NA,NA,NA,NA,NA,NA
e08b7,task,flow.Sequence,2_12,NA,NA,completion,11729.532,303863.5,303862.86,303879.533,315609.065,315611.2,2023-03-26T07:55:51Z,315625.575,Gelegenheit,wakati,d,mchanganyiko,kipaumbele,kushuku,NA,NA,NA,"c(""distractor1"", ""distractor2"", ""distractor3"")",NA,NA,NA,NA,NA,NA,NA,NA,NA,NA,NA,NA,NA,NA,NA,NA,NA,NA,NA
e08b7,Shallow Question,html.Page,2_13_0_0,NA,NA,form submission,7848.8249999999,315611.3,315609.065,315625.575,323474.4,323474.6,2023-03-26T07:55:58Z,323489.812,Polizist,msongora,d,simanzi,mandhari,nidhamu,msongora,NA,NA,"c(""distractor1"", ""distractor2"", ""distractor3"")",NA,NA,NA,NA,NA,NA,NA,NA,NA,NA,NA,NA,NA,NA,NA,NA,NA,NA,NA
e08b7,Save data screen,canvas.Screen,2_13_0_1,NA,NA,timeout,500.03700000001,323476.4,323473.273,323489.812,323972.928,323973.8,2023-03-26T07:55:59Z,323989.849,Polizist,msongora,d,simanzi,mandhari,nidhamu,NA,NA,1,"c(""distractor1"", ""distractor2"", ""distractor3"")",NA,NA,NA,NA,NA,NA,NA,NA,NA,NA,NA,NA,NA,NA,NA,NA,NA,NA,NA
e08b7,shallow,flow.Sequence,2_13_0,NA,NA,completion,8347.353,315611.3,315609.065,315625.575,323972.928,323974.1,2023-03-26T07:55:59Z,323989.849,Polizist,msongora,d,simanzi,mandhari,nidhamu,NA,NA,NA,"c(""distractor1"", ""distractor2"", ""distractor3"")",NA,NA,NA,NA,NA,NA,NA,NA,NA,NA,NA,NA,NA,NA,NA,NA,NA,NA,NA
e08b7,task,flow.Sequence,2_13,NA,NA,completion,8347.353,315611.3,315609.065,315625.575,323972.928,323974.2,2023-03-26T07:55:59Z,323989.849,Polizist,msongora,d,simanzi,mandhari,nidhamu,NA,NA,NA,"c(""distractor1"", ""distractor2"", ""distractor3"")",NA,NA,NA,NA,NA,NA,NA,NA,NA,NA,NA,NA,NA,NA,NA,NA,NA,NA,NA
e08b7,Shallow Question,html.Page,2_14_0_0,NA,NA,form submission,12494.751,323974.4,323972.928,323989.849,336484.6,336484.8,2023-03-26T07:56:11Z,336485.242,Auftrag,uagizaji,d,ghanima,kuzingatia,msukani,uagizaji,NA,NA,"c(""distractor1"", ""distractor2"", ""distractor3"")",NA,NA,NA,NA,NA,NA,NA,NA,NA,NA,NA,NA,NA,NA,NA,NA,NA,NA,NA
e08b7,Save data screen,canvas.Screen,2_14_0_1,NA,NA,timeout,499.83499999996,336486.7,336468.941,336485.242,336968.668,336970.1,2023-03-26T07:56:12Z,336985.077,Auftrag,uagizaji,d,ghanima,kuzingatia,msukani,NA,NA,1,"c(""distractor1"", ""distractor2"", ""distractor3"")",NA,NA,NA,NA,NA,NA,NA,NA,NA,NA,NA,NA,NA,NA,NA,NA,NA,NA,NA
e08b7,shallow,flow.Sequence,2_14_0,NA,NA,completion,12978.819,323974.4,323972.928,323989.849,336968.668,336970.5,2023-03-26T07:56:12Z,336985.077,Auftrag,uagizaji,d,ghanima,kuzingatia,msukani,NA,NA,NA,"c(""distractor1"", ""distractor2"", ""distractor3"")",NA,NA,NA,NA,NA,NA,NA,NA,NA,NA,NA,NA,NA,NA,NA,NA,NA,NA,NA
e08b7,task,flow.Sequence,2_14,NA,NA,completion,12978.819,323974.3,323972.928,323989.849,336968.668,336970.7,2023-03-26T07:56:12Z,336985.077,Auftrag,uagizaji,d,ghanima,kuzingatia,msukani,NA,NA,NA,"c(""distractor1"", ""distractor2"", ""distractor3"")",NA,NA,NA,NA,NA,NA,NA,NA,NA,NA,NA,NA,NA,NA,NA,NA,NA,NA,NA
e08b7,Shallow Question,html.Page,2_15_0_0,NA,NA,form submission,10007.823,336970.9,336968.668,336985.077,346992.9,346993.1,2023-03-26T07:56:22Z,346998.297,Annäherung,maegesho,s,madahili,kujiamini,mapendekezo,maegesho,NA,NA,"c(""distractor1"", ""distractor2"", ""distractor3"")",NA,NA,NA,NA,NA,NA,NA,NA,NA,NA,NA,NA,NA,NA,NA,NA,NA,NA,NA
e08b7,Save data screen,canvas.Screen,2_15_0_1,NA,NA,timeout,500.14899999998,346995,346981.782,346998.297,347481.895,347482.6,2023-03-26T07:56:22Z,347498.446,Annäherung,maegesho,s,madahili,kujiamini,mapendekezo,NA,NA,1,"c(""distractor1"", ""distractor2"", ""distractor3"")",NA,NA,NA,NA,NA,NA,NA,NA,NA,NA,NA,NA,NA,NA,NA,NA,NA,NA,NA
e08b7,shallow,flow.Sequence,2_15_0,NA,NA,completion,10496.818,336970.9,336968.668,336985.077,347481.895,347482.9,2023-03-26T07:56:22Z,347498.446,Annäherung,maegesho,s,madahili,kujiamini,mapendekezo,NA,NA,NA,"c(""distractor1"", ""distractor2"", ""distractor3"")",NA,NA,NA,NA,NA,NA,NA,NA,NA,NA,NA,NA,NA,NA,NA,NA,NA,NA,NA
e08b7,task,flow.Sequence,2_15,NA,NA,completion,10496.818,336970.9,336968.668,336985.077,347481.895,347483.1,2023-03-26T07:56:22Z,347498.446,Annäherung,maegesho,s,madahili,kujiamini,mapendekezo,NA,NA,NA,"c(""distractor1"", ""distractor2"", ""distractor3"")",NA,NA,NA,NA,NA,NA,NA,NA,NA,NA,NA,NA,NA,NA,NA,NA,NA,NA,NA
e08b7,retrieval block 2 (multiple choice),flow.Loop,2,NA,NA,completion,237170.407,110297.7,110294.884,110311.488,347481.895,347483.3,2023-03-26T07:56:22Z,347498.446,NA,NA,NA,NA,NA,NA,NA,NA,NA,"c(""distractor1"", ""distractor2"", ""distractor3"")",NA,NA,NA,NA,NA,NA,NA,NA,NA,NA,NA,NA,NA,NA,NA,NA,NA,NA,NA
e08b7,End,canvas.Screen,3,NA,keypress(Space),response,1993.3539999999,347483.3,347481.895,347498.446,349491.8,349493,2023-03-26T07:56:24Z,349497.837,NA,NA,NA,NA,NA,NA,NA,NA,NA,NULL,NA,NA,NA,NA,NA,NA,NA,NA,NA,NA,NA,NA,NA,NA,NA,NA,NA,NA,NA
e08b7,root,flow.Sequence,NA,NA,NA,completion,348809.991,649.39999999991,315.302,681.809,349491.8,349493.5,2023-03-26T07:56:24Z,349497.837,NA,NA,NA,NA,NA,NA,NA,NA,NA,NULL,NA,NA,NA,NA,NA,NA,NA,NA,NA,NA,NA,NA,NA,NA,NA,NA,NA,NA,NA
