observation,sender,sender_type,sender_id,response,response_action,ended_on,duration,time_run,time_render,time_show,time_end,time_commit,timestamp,time_switch,german,swahili,enc,distractor1,distractor2,distractor3,response_2,x,correct,distractors,url_vp,url_sess,meta_labjs_version,meta_location,meta_user_agent,meta_platform,meta_language,meta_locale,meta_time_zone,meta_timezone_offset,meta_screen_width,meta_screen_height,meta_scroll_width,meta_scroll_height,meta_window_inner_width,meta_window_inner_height,meta_device_pixel_ratio,meta_labjs_build_flavor,meta_labjs_build_commit
f6fa2,Introduction delayed retrieval,canvas.Screen,0,weiter,keypress(Space),response,956,981,1013,1131,1969,2001,2023-04-08T13:18:03Z,2055,NA,NA,NA,NA,NA,NA,NA,NA,NA,NULL,124,2,20.2.4,https://neurocog.fernuni.ch/studies/vweber/delayed/index.html?vp=124&sess=2,"Mozilla/5.0 (Macintosh; Intel Mac OS X 10_15_7) AppleWebKit/605.1.15 (KHTML, like Gecko) Version/16.3 Safari/605.1.15",MacIntel,de-DE,de-DE,Europe/Zurich,-120,1440,900,1324,673,1324,721,2,production,f5b4a49f956347addd546a832a3327688c2c0fef
f6fa2,Deep Question,html.Page,1_0_0_0,NA,NA,form submission,14117,2002,2045,2055,16172,16173,2023-04-08T13:18:17Z,16223,Vergnügen,kichekesho,d,dubwana,mpanuko,mtesaji,k,NA,NA,NULL,NA,NA,NA,NA,NA,NA,NA,NA,NA,NA,NA,NA,NA,NA,NA,NA,NA,NA,NA
f6fa2,Save data screen,canvas.Screen,1_0_0_1,NA,NA,timeout,500,16175,16190,16223,16690,16690,2023-04-08T13:18:18Z,16723,Vergnügen,kichekesho,d,dubwana,mpanuko,mtesaji,NA,NA,0,NULL,NA,NA,NA,NA,NA,NA,NA,NA,NA,NA,NA,NA,NA,NA,NA,NA,NA,NA,NA
f6fa2,deep,flow.Sequence,1_0_0,NA,NA,completion,14635,2001,2045,2055,16690,16691,2023-04-08T13:18:18Z,16723,Vergnügen,kichekesho,d,dubwana,mpanuko,mtesaji,NA,NA,NA,NULL,NA,NA,NA,NA,NA,NA,NA,NA,NA,NA,NA,NA,NA,NA,NA,NA,NA,NA,NA
f6fa2,task,flow.Sequence,1_0,NA,NA,completion,14635,2001,2045,2055,16690,16691,2023-04-08T13:18:18Z,16723,Vergnügen,kichekesho,d,dubwana,mpanuko,mtesaji,NA,NA,NA,NULL,NA,NA,NA,NA,NA,NA,NA,NA,NA,NA,NA,NA,NA,NA,NA,NA,NA,NA,NA
f6fa2,Deep Question,html.Page,1_1_0_0,NA,NA,form submission,11493,16691,16690,16723,28216,28217,2023-04-08T13:18:30Z,28267,Spionage,upelelezi,s,maslahi,utokazo,magangao,mpuzi,NA,NA,NULL,NA,NA,NA,NA,NA,NA,NA,NA,NA,NA,NA,NA,NA,NA,NA,NA,NA,NA,NA
f6fa2,Save data screen,canvas.Screen,1_1_0_1,NA,NA,timeout,499,28218,28241,28267,28732,28733,2023-04-08T13:18:30Z,28766,Spionage,upelelezi,s,maslahi,utokazo,magangao,NA,NA,0,NULL,NA,NA,NA,NA,NA,NA,NA,NA,NA,NA,NA,NA,NA,NA,NA,NA,NA,NA,NA
f6fa2,deep,flow.Sequence,1_1_0,NA,NA,completion,12009,16691,16690,16723,28732,28734,2023-04-08T13:18:30Z,28766,Spionage,upelelezi,s,maslahi,utokazo,magangao,NA,NA,NA,NULL,NA,NA,NA,NA,NA,NA,NA,NA,NA,NA,NA,NA,NA,NA,NA,NA,NA,NA,NA
f6fa2,task,flow.Sequence,1_1,NA,NA,completion,12009,16691,16690,16723,28732,28734,2023-04-08T13:18:30Z,28766,Spionage,upelelezi,s,maslahi,utokazo,magangao,NA,NA,NA,NULL,NA,NA,NA,NA,NA,NA,NA,NA,NA,NA,NA,NA,NA,NA,NA,NA,NA,NA,NA
f6fa2,Deep Question,html.Page,1_2_0_0,NA,NA,form submission,4588,28734,28732,28766,33354,33354,2023-04-08T13:18:35Z,33412,Theorie,nadharia,s,ushungi,mkutano,uwakilishi,kk,NA,NA,NULL,NA,NA,NA,NA,NA,NA,NA,NA,NA,NA,NA,NA,NA,NA,NA,NA,NA,NA,NA
f6fa2,Save data screen,canvas.Screen,1_2_0_1,NA,NA,timeout,499,33356,33378,33412,33877,33878,2023-04-08T13:18:35Z,33911,Theorie,nadharia,s,ushungi,mkutano,uwakilishi,NA,NA,0,NULL,NA,NA,NA,NA,NA,NA,NA,NA,NA,NA,NA,NA,NA,NA,NA,NA,NA,NA,NA
f6fa2,deep,flow.Sequence,1_2_0,NA,NA,completion,5111,28734,28732,28766,33877,33879,2023-04-08T13:18:35Z,33911,Theorie,nadharia,s,ushungi,mkutano,uwakilishi,NA,NA,NA,NULL,NA,NA,NA,NA,NA,NA,NA,NA,NA,NA,NA,NA,NA,NA,NA,NA,NA,NA,NA
f6fa2,task,flow.Sequence,1_2,NA,NA,completion,5111,28734,28732,28766,33877,33879,2023-04-08T13:18:35Z,33911,Theorie,nadharia,s,ushungi,mkutano,uwakilishi,NA,NA,NA,NULL,NA,NA,NA,NA,NA,NA,NA,NA,NA,NA,NA,NA,NA,NA,NA,NA,NA,NA,NA
f6fa2,Deep Question,html.Page,1_3_0_0,NA,NA,form submission,5714,33879,33877,33911,39625,39625,2023-04-08T13:18:41Z,39674,Schock,mshtuko,s,biashara,kukataza,vichekesho,kk,NA,NA,NULL,NA,NA,NA,NA,NA,NA,NA,NA,NA,NA,NA,NA,NA,NA,NA,NA,NA,NA,NA
f6fa2,Save data screen,canvas.Screen,1_3_0_1,NA,NA,timeout,499,39627,39640,39674,40140,40141,2023-04-08T13:18:41Z,40173,Schock,mshtuko,s,biashara,kukataza,vichekesho,NA,NA,0,NULL,NA,NA,NA,NA,NA,NA,NA,NA,NA,NA,NA,NA,NA,NA,NA,NA,NA,NA,NA
f6fa2,deep,flow.Sequence,1_3_0,NA,NA,completion,6229,33879,33877,33911,40140,40141,2023-04-08T13:18:41Z,40173,Schock,mshtuko,s,biashara,kukataza,vichekesho,NA,NA,NA,NULL,NA,NA,NA,NA,NA,NA,NA,NA,NA,NA,NA,NA,NA,NA,NA,NA,NA,NA,NA
f6fa2,task,flow.Sequence,1_3,NA,NA,completion,6229,33879,33877,33911,40140,40141,2023-04-08T13:18:41Z,40173,Schock,mshtuko,s,biashara,kukataza,vichekesho,NA,NA,NA,NULL,NA,NA,NA,NA,NA,NA,NA,NA,NA,NA,NA,NA,NA,NA,NA,NA,NA,NA,NA
f6fa2,Deep Question,html.Page,1_4_0_0,NA,NA,form submission,6937,40142,40140,40173,47110,47111,2023-04-08T13:18:48Z,47153,Schlange,foleni,s,uvumilivu,uteuzi,muuzaji,palonti,NA,NA,NULL,NA,NA,NA,NA,NA,NA,NA,NA,NA,NA,NA,NA,NA,NA,NA,NA,NA,NA,NA
f6fa2,Save data screen,canvas.Screen,1_4_0_1,NA,NA,timeout,500,47113,47135,47153,47619,47620,2023-04-08T13:18:49Z,47653,Schlange,foleni,s,uvumilivu,uteuzi,muuzaji,NA,NA,0,NULL,NA,NA,NA,NA,NA,NA,NA,NA,NA,NA,NA,NA,NA,NA,NA,NA,NA,NA,NA
f6fa2,deep,flow.Sequence,1_4_0,NA,NA,completion,7446,40142,40140,40173,47619,47621,2023-04-08T13:18:49Z,47653,Schlange,foleni,s,uvumilivu,uteuzi,muuzaji,NA,NA,NA,NULL,NA,NA,NA,NA,NA,NA,NA,NA,NA,NA,NA,NA,NA,NA,NA,NA,NA,NA,NA
f6fa2,task,flow.Sequence,1_4,NA,NA,completion,7446,40142,40140,40173,47619,47621,2023-04-08T13:18:49Z,47653,Schlange,foleni,s,uvumilivu,uteuzi,muuzaji,NA,NA,NA,NULL,NA,NA,NA,NA,NA,NA,NA,NA,NA,NA,NA,NA,NA,NA,NA,NA,NA,NA,NA
f6fa2,Deep Question,html.Page,1_5_0_0,NA,NA,form submission,3329,47623,47619,47653,50982,50983,2023-04-08T13:18:52Z,51033,Notfall,dharura,d,rairai,malalamiko,ahueni,mkez,NA,NA,NULL,NA,NA,NA,NA,NA,NA,NA,NA,NA,NA,NA,NA,NA,NA,NA,NA,NA,NA,NA
f6fa2,Save data screen,canvas.Screen,1_5_0_1,NA,NA,timeout,499,50986,50999,51033,51501,51502,2023-04-08T13:18:53Z,51532,Notfall,dharura,d,rairai,malalamiko,ahueni,NA,NA,0,NULL,NA,NA,NA,NA,NA,NA,NA,NA,NA,NA,NA,NA,NA,NA,NA,NA,NA,NA,NA
f6fa2,deep,flow.Sequence,1_5_0,NA,NA,completion,3848,47623,47619,47653,51501,51502,2023-04-08T13:18:53Z,51532,Notfall,dharura,d,rairai,malalamiko,ahueni,NA,NA,NA,NULL,NA,NA,NA,NA,NA,NA,NA,NA,NA,NA,NA,NA,NA,NA,NA,NA,NA,NA,NA
f6fa2,task,flow.Sequence,1_5,NA,NA,completion,3848,47623,47619,47653,51501,51502,2023-04-08T13:18:53Z,51532,Notfall,dharura,d,rairai,malalamiko,ahueni,NA,NA,NA,NULL,NA,NA,NA,NA,NA,NA,NA,NA,NA,NA,NA,NA,NA,NA,NA,NA,NA,NA,NA
f6fa2,Deep Question,html.Page,1_6_0_0,NA,NA,form submission,4212,51504,51501,51532,55744,55744,2023-04-08T13:18:57Z,55796,Vermutung,udhanifu,d,haramia,tikisho,itifaki,kali,NA,NA,NULL,NA,NA,NA,NA,NA,NA,NA,NA,NA,NA,NA,NA,NA,NA,NA,NA,NA,NA,NA
f6fa2,Save data screen,canvas.Screen,1_6_0_1,NA,NA,timeout,500,55746,55768,55796,56263,56263,2023-04-08T13:18:58Z,56296,Vermutung,udhanifu,d,haramia,tikisho,itifaki,NA,NA,0,NULL,NA,NA,NA,NA,NA,NA,NA,NA,NA,NA,NA,NA,NA,NA,NA,NA,NA,NA,NA
f6fa2,deep,flow.Sequence,1_6_0,NA,NA,completion,4731,51504,51501,51532,56263,56264,2023-04-08T13:18:58Z,56296,Vermutung,udhanifu,d,haramia,tikisho,itifaki,NA,NA,NA,NULL,NA,NA,NA,NA,NA,NA,NA,NA,NA,NA,NA,NA,NA,NA,NA,NA,NA,NA,NA
f6fa2,task,flow.Sequence,1_6,NA,NA,completion,4731,51504,51501,51532,56263,56265,2023-04-08T13:18:58Z,56296,Vermutung,udhanifu,d,haramia,tikisho,itifaki,NA,NA,NA,NULL,NA,NA,NA,NA,NA,NA,NA,NA,NA,NA,NA,NA,NA,NA,NA,NA,NA,NA,NA
f6fa2,Deep Question,html.Page,1_7_0_0,NA,NA,form submission,2330,56266,56263,56296,58626,58627,2023-04-08T13:19:00Z,58678,Toleranz,kuvumiliana,s,maombolezo,ujasusi,mchekeshaji,kk,NA,NA,NULL,NA,NA,NA,NA,NA,NA,NA,NA,NA,NA,NA,NA,NA,NA,NA,NA,NA,NA,NA
f6fa2,Save data screen,canvas.Screen,1_7_0_1,NA,NA,timeout,500,58628,58644,58678,59144,59145,2023-04-08T13:19:00Z,59178,Toleranz,kuvumiliana,s,maombolezo,ujasusi,mchekeshaji,NA,NA,0,NULL,NA,NA,NA,NA,NA,NA,NA,NA,NA,NA,NA,NA,NA,NA,NA,NA,NA,NA,NA
f6fa2,deep,flow.Sequence,1_7_0,NA,NA,completion,2848,56266,56263,56296,59144,59145,2023-04-08T13:19:00Z,59178,Toleranz,kuvumiliana,s,maombolezo,ujasusi,mchekeshaji,NA,NA,NA,NULL,NA,NA,NA,NA,NA,NA,NA,NA,NA,NA,NA,NA,NA,NA,NA,NA,NA,NA,NA
f6fa2,task,flow.Sequence,1_7,NA,NA,completion,2848,56266,56263,56296,59144,59145,2023-04-08T13:19:00Z,59178,Toleranz,kuvumiliana,s,maombolezo,ujasusi,mchekeshaji,NA,NA,NA,NULL,NA,NA,NA,NA,NA,NA,NA,NA,NA,NA,NA,NA,NA,NA,NA,NA,NA,NA,NA
f6fa2,Deep Question,html.Page,1_8_0_0,NA,NA,form submission,6738,59146,59144,59178,65916,65916,2023-04-08T13:19:07Z,65956,Schüler,mwanafunzi,d,mwekezaji,matumizi,uaminifu,mwpanfuzi,NA,NA,NULL,NA,NA,NA,NA,NA,NA,NA,NA,NA,NA,NA,NA,NA,NA,NA,NA,NA,NA,NA
f6fa2,Save data screen,canvas.Screen,1_8_0_1,NA,NA,timeout,500,65918,65924,65956,66424,66425,2023-04-08T13:19:08Z,66456,Schüler,mwanafunzi,d,mwekezaji,matumizi,uaminifu,NA,NA,0,NULL,NA,NA,NA,NA,NA,NA,NA,NA,NA,NA,NA,NA,NA,NA,NA,NA,NA,NA,NA
f6fa2,deep,flow.Sequence,1_8_0,NA,NA,completion,7246,59146,59144,59178,66424,66426,2023-04-08T13:19:08Z,66456,Schüler,mwanafunzi,d,mwekezaji,matumizi,uaminifu,NA,NA,NA,NULL,NA,NA,NA,NA,NA,NA,NA,NA,NA,NA,NA,NA,NA,NA,NA,NA,NA,NA,NA
f6fa2,task,flow.Sequence,1_8,NA,NA,completion,7246,59146,59144,59178,66424,66426,2023-04-08T13:19:08Z,66456,Schüler,mwanafunzi,d,mwekezaji,matumizi,uaminifu,NA,NA,NA,NULL,NA,NA,NA,NA,NA,NA,NA,NA,NA,NA,NA,NA,NA,NA,NA,NA,NA,NA,NA
f6fa2,Deep Question,html.Page,1_9_0_0,NA,NA,form submission,2566,66426,66424,66456,69022,69023,2023-04-08T13:19:10Z,69071,Verpackung,ufungaji,d,uhusiano,upimaji,uchunguzi,k,NA,NA,NULL,NA,NA,NA,NA,NA,NA,NA,NA,NA,NA,NA,NA,NA,NA,NA,NA,NA,NA,NA
f6fa2,Save data screen,canvas.Screen,1_9_0_1,NA,NA,timeout,501,69024,69040,69071,69537,69538,2023-04-08T13:19:11Z,69572,Verpackung,ufungaji,d,uhusiano,upimaji,uchunguzi,NA,NA,0,NULL,NA,NA,NA,NA,NA,NA,NA,NA,NA,NA,NA,NA,NA,NA,NA,NA,NA,NA,NA
f6fa2,deep,flow.Sequence,1_9_0,NA,NA,completion,3081,66426,66424,66456,69537,69538,2023-04-08T13:19:11Z,69572,Verpackung,ufungaji,d,uhusiano,upimaji,uchunguzi,NA,NA,NA,NULL,NA,NA,NA,NA,NA,NA,NA,NA,NA,NA,NA,NA,NA,NA,NA,NA,NA,NA,NA
f6fa2,task,flow.Sequence,1_9,NA,NA,completion,3081,66426,66424,66456,69537,69538,2023-04-08T13:19:11Z,69572,Verpackung,ufungaji,d,uhusiano,upimaji,uchunguzi,NA,NA,NA,NULL,NA,NA,NA,NA,NA,NA,NA,NA,NA,NA,NA,NA,NA,NA,NA,NA,NA,NA,NA
f6fa2,Deep Question,html.Page,1_10_0_0,NA,NA,form submission,2498,69538,69537,69572,72070,72070,2023-04-08T13:19:13Z,72138,Tester,wanaojaribu,d,sherti,sihiri,mlipuko,k,NA,NA,NULL,NA,NA,NA,NA,NA,NA,NA,NA,NA,NA,NA,NA,NA,NA,NA,NA,NA,NA,NA
f6fa2,Save data screen,canvas.Screen,1_10_0_1,NA,NA,timeout,498,72072,72113,72138,72603,72604,2023-04-08T13:19:14Z,72636,Tester,wanaojaribu,d,sherti,sihiri,mlipuko,NA,NA,0,NULL,NA,NA,NA,NA,NA,NA,NA,NA,NA,NA,NA,NA,NA,NA,NA,NA,NA,NA,NA
f6fa2,deep,flow.Sequence,1_10_0,NA,NA,completion,3031,69538,69537,69572,72603,72604,2023-04-08T13:19:14Z,72636,Tester,wanaojaribu,d,sherti,sihiri,mlipuko,NA,NA,NA,NULL,NA,NA,NA,NA,NA,NA,NA,NA,NA,NA,NA,NA,NA,NA,NA,NA,NA,NA,NA
f6fa2,task,flow.Sequence,1_10,NA,NA,completion,3031,69538,69537,69572,72603,72604,2023-04-08T13:19:14Z,72636,Tester,wanaojaribu,d,sherti,sihiri,mlipuko,NA,NA,NA,NULL,NA,NA,NA,NA,NA,NA,NA,NA,NA,NA,NA,NA,NA,NA,NA,NA,NA,NA,NA
f6fa2,Deep Question,html.Page,1_11_0_0,NA,NA,form submission,2989,72605,72603,72636,75625,75626,2023-04-08T13:19:17Z,75668,Wohlstand,mafanikio,s,chimbuko,kumbuko,mapwaji,k,NA,NA,NULL,NA,NA,NA,NA,NA,NA,NA,NA,NA,NA,NA,NA,NA,NA,NA,NA,NA,NA,NA
f6fa2,Save data screen,canvas.Screen,1_11_0_1,NA,NA,timeout,499,75628,75635,75668,76134,76135,2023-04-08T13:19:17Z,76167,Wohlstand,mafanikio,s,chimbuko,kumbuko,mapwaji,NA,NA,0,NULL,NA,NA,NA,NA,NA,NA,NA,NA,NA,NA,NA,NA,NA,NA,NA,NA,NA,NA,NA
f6fa2,deep,flow.Sequence,1_11_0,NA,NA,completion,3498,72605,72603,72636,76134,76135,2023-04-08T13:19:17Z,76167,Wohlstand,mafanikio,s,chimbuko,kumbuko,mapwaji,NA,NA,NA,NULL,NA,NA,NA,NA,NA,NA,NA,NA,NA,NA,NA,NA,NA,NA,NA,NA,NA,NA,NA
f6fa2,task,flow.Sequence,1_11,NA,NA,completion,3498,72605,72603,72636,76134,76136,2023-04-08T13:19:17Z,76167,Wohlstand,mafanikio,s,chimbuko,kumbuko,mapwaji,NA,NA,NA,NULL,NA,NA,NA,NA,NA,NA,NA,NA,NA,NA,NA,NA,NA,NA,NA,NA,NA,NA,NA
f6fa2,Deep Question,html.Page,1_12_0_0,NA,NA,form submission,7332,76136,76134,76167,83499,83499,2023-04-08T13:19:25Z,83561,Hoffnung,matarajio,d,kutaalamika,uratibu,mvumbuzi,mataraijo,NA,NA,NULL,NA,NA,NA,NA,NA,NA,NA,NA,NA,NA,NA,NA,NA,NA,NA,NA,NA,NA,NA
f6fa2,Save data screen,canvas.Screen,1_12_0_1,NA,NA,timeout,500,83500,83529,83561,84028,84028,2023-04-08T13:19:25Z,84061,Hoffnung,matarajio,d,kutaalamika,uratibu,mvumbuzi,NA,NA,0,NULL,NA,NA,NA,NA,NA,NA,NA,NA,NA,NA,NA,NA,NA,NA,NA,NA,NA,NA,NA
f6fa2,deep,flow.Sequence,1_12_0,NA,NA,completion,7861,76136,76134,76167,84028,84029,2023-04-08T13:19:25Z,84061,Hoffnung,matarajio,d,kutaalamika,uratibu,mvumbuzi,NA,NA,NA,NULL,NA,NA,NA,NA,NA,NA,NA,NA,NA,NA,NA,NA,NA,NA,NA,NA,NA,NA,NA
f6fa2,task,flow.Sequence,1_12,NA,NA,completion,7861,76136,76134,76167,84028,84029,2023-04-08T13:19:25Z,84061,Hoffnung,matarajio,d,kutaalamika,uratibu,mvumbuzi,NA,NA,NA,NULL,NA,NA,NA,NA,NA,NA,NA,NA,NA,NA,NA,NA,NA,NA,NA,NA,NA,NA,NA
f6fa2,Deep Question,html.Page,1_13_0_0,NA,NA,form submission,2581,84029,84028,84061,86642,86642,2023-04-08T13:19:28Z,86692,Ergänzung,kijalizo,s,ulaghai,mustarehe,matangazo,k,NA,NA,NULL,NA,NA,NA,NA,NA,NA,NA,NA,NA,NA,NA,NA,NA,NA,NA,NA,NA,NA,NA
f6fa2,Save data screen,canvas.Screen,1_13_0_1,NA,NA,timeout,500,86644,86660,86692,87163,87164,2023-04-08T13:19:28Z,87192,Ergänzung,kijalizo,s,ulaghai,mustarehe,matangazo,NA,NA,0,NULL,NA,NA,NA,NA,NA,NA,NA,NA,NA,NA,NA,NA,NA,NA,NA,NA,NA,NA,NA
f6fa2,deep,flow.Sequence,1_13_0,NA,NA,completion,3102,84029,84028,84061,87163,87164,2023-04-08T13:19:28Z,87192,Ergänzung,kijalizo,s,ulaghai,mustarehe,matangazo,NA,NA,NA,NULL,NA,NA,NA,NA,NA,NA,NA,NA,NA,NA,NA,NA,NA,NA,NA,NA,NA,NA,NA
f6fa2,task,flow.Sequence,1_13,NA,NA,completion,3102,84029,84028,84061,87163,87164,2023-04-08T13:19:28Z,87192,Ergänzung,kijalizo,s,ulaghai,mustarehe,matangazo,NA,NA,NA,NULL,NA,NA,NA,NA,NA,NA,NA,NA,NA,NA,NA,NA,NA,NA,NA,NA,NA,NA,NA
f6fa2,Deep Question,html.Page,1_14_0_0,NA,NA,form submission,2014,87164,87163,87192,89206,89206,2023-04-08T13:19:31Z,89258,Inhalt,yaliyomo,d,kishawishi,hifadhi,kutembea,k,NA,NA,NULL,NA,NA,NA,NA,NA,NA,NA,NA,NA,NA,NA,NA,NA,NA,NA,NA,NA,NA,NA
f6fa2,Save data screen,canvas.Screen,1_14_0_1,NA,NA,timeout,500,89209,89224,89258,89724,89725,2023-04-08T13:19:31Z,89758,Inhalt,yaliyomo,d,kishawishi,hifadhi,kutembea,NA,NA,0,NULL,NA,NA,NA,NA,NA,NA,NA,NA,NA,NA,NA,NA,NA,NA,NA,NA,NA,NA,NA
f6fa2,deep,flow.Sequence,1_14_0,NA,NA,completion,2532,87164,87163,87192,89724,89725,2023-04-08T13:19:31Z,89758,Inhalt,yaliyomo,d,kishawishi,hifadhi,kutembea,NA,NA,NA,NULL,NA,NA,NA,NA,NA,NA,NA,NA,NA,NA,NA,NA,NA,NA,NA,NA,NA,NA,NA
f6fa2,task,flow.Sequence,1_14,NA,NA,completion,2532,87164,87163,87192,89724,89725,2023-04-08T13:19:31Z,89758,Inhalt,yaliyomo,d,kishawishi,hifadhi,kutembea,NA,NA,NA,NULL,NA,NA,NA,NA,NA,NA,NA,NA,NA,NA,NA,NA,NA,NA,NA,NA,NA,NA,NA
f6fa2,Deep Question,html.Page,1_15_0_0,NA,NA,form submission,4793,89726,89724,89758,94551,94551,2023-04-08T13:19:36Z,94587,Fenster,dirisha,s,walakini,tasawari,maarifa,dineso,NA,NA,NULL,NA,NA,NA,NA,NA,NA,NA,NA,NA,NA,NA,NA,NA,NA,NA,NA,NA,NA,NA
f6fa2,Save data screen,canvas.Screen,1_15_0_1,NA,NA,timeout,563,94553,94570,94587,95054,95054,2023-04-08T13:19:36Z,95150,Fenster,dirisha,s,walakini,tasawari,maarifa,NA,NA,0,NULL,NA,NA,NA,NA,NA,NA,NA,NA,NA,NA,NA,NA,NA,NA,NA,NA,NA,NA,NA
f6fa2,deep,flow.Sequence,1_15_0,NA,NA,completion,5296,89726,89724,89758,95054,95055,2023-04-08T13:19:36Z,95150,Fenster,dirisha,s,walakini,tasawari,maarifa,NA,NA,NA,NULL,NA,NA,NA,NA,NA,NA,NA,NA,NA,NA,NA,NA,NA,NA,NA,NA,NA,NA,NA
f6fa2,task,flow.Sequence,1_15,NA,NA,completion,5296,89726,89724,89758,95054,95055,2023-04-08T13:19:36Z,95150,Fenster,dirisha,s,walakini,tasawari,maarifa,NA,NA,NA,NULL,NA,NA,NA,NA,NA,NA,NA,NA,NA,NA,NA,NA,NA,NA,NA,NA,NA,NA,NA
f6fa2,retrieval block 1 (cued recall),flow.Loop,1,NA,NA,completion,92999,2001,2045,2055,95054,95056,2023-04-08T13:19:36Z,95150,NA,NA,NA,NA,NA,NA,NA,NA,NA,NULL,NA,NA,NA,NA,NA,NA,NA,NA,NA,NA,NA,NA,NA,NA,NA,NA,NA,NA,NA
f6fa2,Shallow Question,html.Page,2_0_0_0,NA,NA,form submission,3156,95057,95054,95150,98306,98307,2023-04-08T13:19:40Z,98355,Fenster,dirisha,s,walakini,tasawari,maarifa,dirisha,NA,NA,"c(""distractor1"", ""distractor2"", ""distractor3"")",NA,NA,NA,NA,NA,NA,NA,NA,NA,NA,NA,NA,NA,NA,NA,NA,NA,NA,NA
f6fa2,Save data screen,canvas.Screen,2_0_0_1,NA,NA,timeout,497,98308,98319,98355,98819,98819,2023-04-08T13:19:40Z,98852,Fenster,dirisha,s,walakini,tasawari,maarifa,NA,NA,1,"c(""distractor1"", ""distractor2"", ""distractor3"")",NA,NA,NA,NA,NA,NA,NA,NA,NA,NA,NA,NA,NA,NA,NA,NA,NA,NA,NA
f6fa2,shallow,flow.Sequence,2_0_0,NA,NA,completion,3669,95057,95054,95150,98819,98820,2023-04-08T13:19:40Z,98852,Fenster,dirisha,s,walakini,tasawari,maarifa,NA,NA,NA,"c(""distractor1"", ""distractor2"", ""distractor3"")",NA,NA,NA,NA,NA,NA,NA,NA,NA,NA,NA,NA,NA,NA,NA,NA,NA,NA,NA
f6fa2,task,flow.Sequence,2_0,NA,NA,completion,3669,95057,95054,95150,98819,98820,2023-04-08T13:19:40Z,98852,Fenster,dirisha,s,walakini,tasawari,maarifa,NA,NA,NA,"c(""distractor1"", ""distractor2"", ""distractor3"")",NA,NA,NA,NA,NA,NA,NA,NA,NA,NA,NA,NA,NA,NA,NA,NA,NA,NA,NA
f6fa2,Shallow Question,html.Page,2_1_0_0,NA,NA,form submission,3344,98820,98819,98852,102196,102197,2023-04-08T13:19:43Z,102250,Schlange,foleni,s,uvumilivu,uteuzi,muuzaji,foleni,NA,NA,"c(""distractor1"", ""distractor2"", ""distractor3"")",NA,NA,NA,NA,NA,NA,NA,NA,NA,NA,NA,NA,NA,NA,NA,NA,NA,NA,NA
f6fa2,Save data screen,canvas.Screen,2_1_0_1,NA,NA,timeout,500,102198,102215,102250,102715,102716,2023-04-08T13:19:44Z,102750,Schlange,foleni,s,uvumilivu,uteuzi,muuzaji,NA,NA,1,"c(""distractor1"", ""distractor2"", ""distractor3"")",NA,NA,NA,NA,NA,NA,NA,NA,NA,NA,NA,NA,NA,NA,NA,NA,NA,NA,NA
f6fa2,shallow,flow.Sequence,2_1_0,NA,NA,completion,3863,98820,98819,98852,102715,102716,2023-04-08T13:19:44Z,102750,Schlange,foleni,s,uvumilivu,uteuzi,muuzaji,NA,NA,NA,"c(""distractor1"", ""distractor2"", ""distractor3"")",NA,NA,NA,NA,NA,NA,NA,NA,NA,NA,NA,NA,NA,NA,NA,NA,NA,NA,NA
f6fa2,task,flow.Sequence,2_1,NA,NA,completion,3863,98820,98819,98852,102715,102716,2023-04-08T13:19:44Z,102750,Schlange,foleni,s,uvumilivu,uteuzi,muuzaji,NA,NA,NA,"c(""distractor1"", ""distractor2"", ""distractor3"")",NA,NA,NA,NA,NA,NA,NA,NA,NA,NA,NA,NA,NA,NA,NA,NA,NA,NA,NA
f6fa2,Shallow Question,html.Page,2_2_0_0,NA,NA,form submission,6937,102716,102715,102750,109687,109688,2023-04-08T13:19:51Z,109728,Vermutung,udhanifu,d,haramia,tikisho,itifaki,udhanifu,NA,NA,"c(""distractor1"", ""distractor2"", ""distractor3"")",NA,NA,NA,NA,NA,NA,NA,NA,NA,NA,NA,NA,NA,NA,NA,NA,NA,NA,NA
f6fa2,Save data screen,canvas.Screen,2_2_0_1,NA,NA,timeout,499,109691,109695,109728,110195,110195,2023-04-08T13:19:51Z,110227,Vermutung,udhanifu,d,haramia,tikisho,itifaki,NA,NA,1,"c(""distractor1"", ""distractor2"", ""distractor3"")",NA,NA,NA,NA,NA,NA,NA,NA,NA,NA,NA,NA,NA,NA,NA,NA,NA,NA,NA
f6fa2,shallow,flow.Sequence,2_2_0,NA,NA,completion,7445,102716,102715,102750,110195,110196,2023-04-08T13:19:51Z,110227,Vermutung,udhanifu,d,haramia,tikisho,itifaki,NA,NA,NA,"c(""distractor1"", ""distractor2"", ""distractor3"")",NA,NA,NA,NA,NA,NA,NA,NA,NA,NA,NA,NA,NA,NA,NA,NA,NA,NA,NA
f6fa2,task,flow.Sequence,2_2,NA,NA,completion,7445,102716,102715,102750,110195,110196,2023-04-08T13:19:51Z,110227,Vermutung,udhanifu,d,haramia,tikisho,itifaki,NA,NA,NA,"c(""distractor1"", ""distractor2"", ""distractor3"")",NA,NA,NA,NA,NA,NA,NA,NA,NA,NA,NA,NA,NA,NA,NA,NA,NA,NA,NA
f6fa2,Shallow Question,html.Page,2_3_0_0,NA,NA,form submission,3695,110196,110195,110227,113922,113922,2023-04-08T13:19:55Z,113974,Schock,mshtuko,s,biashara,kukataza,vichekesho,mshtuko,NA,NA,"c(""distractor1"", ""distractor2"", ""distractor3"")",NA,NA,NA,NA,NA,NA,NA,NA,NA,NA,NA,NA,NA,NA,NA,NA,NA,NA,NA
f6fa2,Save data screen,canvas.Screen,2_3_0_1,NA,NA,timeout,501,113923,113943,113974,114441,114442,2023-04-08T13:19:56Z,114475,Schock,mshtuko,s,biashara,kukataza,vichekesho,NA,NA,1,"c(""distractor1"", ""distractor2"", ""distractor3"")",NA,NA,NA,NA,NA,NA,NA,NA,NA,NA,NA,NA,NA,NA,NA,NA,NA,NA,NA
f6fa2,shallow,flow.Sequence,2_3_0,NA,NA,completion,4214,110196,110195,110227,114441,114442,2023-04-08T13:19:56Z,114475,Schock,mshtuko,s,biashara,kukataza,vichekesho,NA,NA,NA,"c(""distractor1"", ""distractor2"", ""distractor3"")",NA,NA,NA,NA,NA,NA,NA,NA,NA,NA,NA,NA,NA,NA,NA,NA,NA,NA,NA
f6fa2,task,flow.Sequence,2_3,NA,NA,completion,4214,110196,110195,110227,114441,114443,2023-04-08T13:19:56Z,114475,Schock,mshtuko,s,biashara,kukataza,vichekesho,NA,NA,NA,"c(""distractor1"", ""distractor2"", ""distractor3"")",NA,NA,NA,NA,NA,NA,NA,NA,NA,NA,NA,NA,NA,NA,NA,NA,NA,NA,NA
f6fa2,Shallow Question,html.Page,2_4_0_0,NA,NA,form submission,8896,114443,114441,114475,123371,123372,2023-04-08T13:20:05Z,123418,Ergänzung,kijalizo,s,ulaghai,mustarehe,matangazo,mustarehe,NA,NA,"c(""distractor1"", ""distractor2"", ""distractor3"")",NA,NA,NA,NA,NA,NA,NA,NA,NA,NA,NA,NA,NA,NA,NA,NA,NA,NA,NA
f6fa2,Save data screen,canvas.Screen,2_4_0_1,NA,NA,timeout,500,123374,123386,123418,123885,123886,2023-04-08T13:20:05Z,123918,Ergänzung,kijalizo,s,ulaghai,mustarehe,matangazo,NA,NA,0,"c(""distractor1"", ""distractor2"", ""distractor3"")",NA,NA,NA,NA,NA,NA,NA,NA,NA,NA,NA,NA,NA,NA,NA,NA,NA,NA,NA
f6fa2,shallow,flow.Sequence,2_4_0,NA,NA,completion,9410,114443,114441,114475,123885,123887,2023-04-08T13:20:05Z,123918,Ergänzung,kijalizo,s,ulaghai,mustarehe,matangazo,NA,NA,NA,"c(""distractor1"", ""distractor2"", ""distractor3"")",NA,NA,NA,NA,NA,NA,NA,NA,NA,NA,NA,NA,NA,NA,NA,NA,NA,NA,NA
f6fa2,task,flow.Sequence,2_4,NA,NA,completion,9410,114443,114441,114475,123885,123888,2023-04-08T13:20:05Z,123918,Ergänzung,kijalizo,s,ulaghai,mustarehe,matangazo,NA,NA,NA,"c(""distractor1"", ""distractor2"", ""distractor3"")",NA,NA,NA,NA,NA,NA,NA,NA,NA,NA,NA,NA,NA,NA,NA,NA,NA,NA,NA
f6fa2,Shallow Question,html.Page,2_5_0_0,NA,NA,form submission,3975,123888,123885,123918,127893,127894,2023-04-08T13:20:09Z,127949,Theorie,nadharia,s,ushungi,mkutano,uwakilishi,nadharia,NA,NA,"c(""distractor1"", ""distractor2"", ""distractor3"")",NA,NA,NA,NA,NA,NA,NA,NA,NA,NA,NA,NA,NA,NA,NA,NA,NA,NA,NA
f6fa2,Save data screen,canvas.Screen,2_5_0_1,NA,NA,timeout,500,127895,127915,127949,128416,128416,2023-04-08T13:20:10Z,128449,Theorie,nadharia,s,ushungi,mkutano,uwakilishi,NA,NA,1,"c(""distractor1"", ""distractor2"", ""distractor3"")",NA,NA,NA,NA,NA,NA,NA,NA,NA,NA,NA,NA,NA,NA,NA,NA,NA,NA,NA
f6fa2,shallow,flow.Sequence,2_5_0,NA,NA,completion,4498,123888,123885,123918,128416,128417,2023-04-08T13:20:10Z,128449,Theorie,nadharia,s,ushungi,mkutano,uwakilishi,NA,NA,NA,"c(""distractor1"", ""distractor2"", ""distractor3"")",NA,NA,NA,NA,NA,NA,NA,NA,NA,NA,NA,NA,NA,NA,NA,NA,NA,NA,NA
f6fa2,task,flow.Sequence,2_5,NA,NA,completion,4498,123888,123885,123918,128416,128417,2023-04-08T13:20:10Z,128449,Theorie,nadharia,s,ushungi,mkutano,uwakilishi,NA,NA,NA,"c(""distractor1"", ""distractor2"", ""distractor3"")",NA,NA,NA,NA,NA,NA,NA,NA,NA,NA,NA,NA,NA,NA,NA,NA,NA,NA,NA
f6fa2,Shallow Question,html.Page,2_6_0_0,NA,NA,form submission,4005,128417,128416,128449,132454,132454,2023-04-08T13:20:14Z,132496,Spionage,upelelezi,s,maslahi,utokazo,magangao,upelelezi,NA,NA,"c(""distractor1"", ""distractor2"", ""distractor3"")",NA,NA,NA,NA,NA,NA,NA,NA,NA,NA,NA,NA,NA,NA,NA,NA,NA,NA,NA
f6fa2,Save data screen,canvas.Screen,2_6_0_1,NA,NA,timeout,500,132455,132462,132496,132962,132963,2023-04-08T13:20:14Z,132996,Spionage,upelelezi,s,maslahi,utokazo,magangao,NA,NA,1,"c(""distractor1"", ""distractor2"", ""distractor3"")",NA,NA,NA,NA,NA,NA,NA,NA,NA,NA,NA,NA,NA,NA,NA,NA,NA,NA,NA
f6fa2,shallow,flow.Sequence,2_6_0,NA,NA,completion,4513,128417,128416,128449,132962,132963,2023-04-08T13:20:14Z,132996,Spionage,upelelezi,s,maslahi,utokazo,magangao,NA,NA,NA,"c(""distractor1"", ""distractor2"", ""distractor3"")",NA,NA,NA,NA,NA,NA,NA,NA,NA,NA,NA,NA,NA,NA,NA,NA,NA,NA,NA
f6fa2,task,flow.Sequence,2_6,NA,NA,completion,4513,128417,128416,128449,132962,132963,2023-04-08T13:20:14Z,132996,Spionage,upelelezi,s,maslahi,utokazo,magangao,NA,NA,NA,"c(""distractor1"", ""distractor2"", ""distractor3"")",NA,NA,NA,NA,NA,NA,NA,NA,NA,NA,NA,NA,NA,NA,NA,NA,NA,NA,NA
f6fa2,Shallow Question,html.Page,2_7_0_0,NA,NA,form submission,4390,132963,132962,132996,137386,137386,2023-04-08T13:20:19Z,137442,Wohlstand,mafanikio,s,chimbuko,kumbuko,mapwaji,mafanikio,NA,NA,"c(""distractor1"", ""distractor2"", ""distractor3"")",NA,NA,NA,NA,NA,NA,NA,NA,NA,NA,NA,NA,NA,NA,NA,NA,NA,NA,NA
f6fa2,Save data screen,canvas.Screen,2_7_0_1,NA,NA,timeout,501,137389,137410,137442,137911,137912,2023-04-08T13:20:19Z,137943,Wohlstand,mafanikio,s,chimbuko,kumbuko,mapwaji,NA,NA,1,"c(""distractor1"", ""distractor2"", ""distractor3"")",NA,NA,NA,NA,NA,NA,NA,NA,NA,NA,NA,NA,NA,NA,NA,NA,NA,NA,NA
f6fa2,shallow,flow.Sequence,2_7_0,NA,NA,completion,4915,132963,132962,132996,137911,137912,2023-04-08T13:20:19Z,137943,Wohlstand,mafanikio,s,chimbuko,kumbuko,mapwaji,NA,NA,NA,"c(""distractor1"", ""distractor2"", ""distractor3"")",NA,NA,NA,NA,NA,NA,NA,NA,NA,NA,NA,NA,NA,NA,NA,NA,NA,NA,NA
f6fa2,task,flow.Sequence,2_7,NA,NA,completion,4915,132963,132962,132996,137911,137913,2023-04-08T13:20:19Z,137943,Wohlstand,mafanikio,s,chimbuko,kumbuko,mapwaji,NA,NA,NA,"c(""distractor1"", ""distractor2"", ""distractor3"")",NA,NA,NA,NA,NA,NA,NA,NA,NA,NA,NA,NA,NA,NA,NA,NA,NA,NA,NA
f6fa2,Shallow Question,html.Page,2_8_0_0,NA,NA,form submission,12045,137913,137911,137943,149988,149989,2023-04-08T13:20:31Z,150050,Vergnügen,kichekesho,d,dubwana,mpanuko,mtesaji,mtesaji,NA,NA,"c(""distractor1"", ""distractor2"", ""distractor3"")",NA,NA,NA,NA,NA,NA,NA,NA,NA,NA,NA,NA,NA,NA,NA,NA,NA,NA,NA
f6fa2,Save data screen,canvas.Screen,2_8_0_1,NA,NA,timeout,502,149990,150020,150050,150517,150520,2023-04-08T13:20:32Z,150552,Vergnügen,kichekesho,d,dubwana,mpanuko,mtesaji,NA,NA,0,"c(""distractor1"", ""distractor2"", ""distractor3"")",NA,NA,NA,NA,NA,NA,NA,NA,NA,NA,NA,NA,NA,NA,NA,NA,NA,NA,NA
f6fa2,shallow,flow.Sequence,2_8_0,NA,NA,completion,12574,137913,137911,137943,150517,150520,2023-04-08T13:20:32Z,150552,Vergnügen,kichekesho,d,dubwana,mpanuko,mtesaji,NA,NA,NA,"c(""distractor1"", ""distractor2"", ""distractor3"")",NA,NA,NA,NA,NA,NA,NA,NA,NA,NA,NA,NA,NA,NA,NA,NA,NA,NA,NA
f6fa2,task,flow.Sequence,2_8,NA,NA,completion,12574,137913,137911,137943,150517,150520,2023-04-08T13:20:32Z,150552,Vergnügen,kichekesho,d,dubwana,mpanuko,mtesaji,NA,NA,NA,"c(""distractor1"", ""distractor2"", ""distractor3"")",NA,NA,NA,NA,NA,NA,NA,NA,NA,NA,NA,NA,NA,NA,NA,NA,NA,NA,NA
f6fa2,Shallow Question,html.Page,2_9_0_0,NA,NA,form submission,4688,150521,150517,150552,155240,155240,2023-04-08T13:20:37Z,155281,Schüler,mwanafunzi,d,mwekezaji,matumizi,uaminifu,mwanafunzi,NA,NA,"c(""distractor1"", ""distractor2"", ""distractor3"")",NA,NA,NA,NA,NA,NA,NA,NA,NA,NA,NA,NA,NA,NA,NA,NA,NA,NA,NA
f6fa2,Save data screen,canvas.Screen,2_9_0_1,NA,NA,timeout,499,155254,155258,155281,155747,155748,2023-04-08T13:20:37Z,155780,Schüler,mwanafunzi,d,mwekezaji,matumizi,uaminifu,NA,NA,1,"c(""distractor1"", ""distractor2"", ""distractor3"")",NA,NA,NA,NA,NA,NA,NA,NA,NA,NA,NA,NA,NA,NA,NA,NA,NA,NA,NA
f6fa2,shallow,flow.Sequence,2_9_0,NA,NA,completion,5195,150521,150517,150552,155747,155748,2023-04-08T13:20:37Z,155780,Schüler,mwanafunzi,d,mwekezaji,matumizi,uaminifu,NA,NA,NA,"c(""distractor1"", ""distractor2"", ""distractor3"")",NA,NA,NA,NA,NA,NA,NA,NA,NA,NA,NA,NA,NA,NA,NA,NA,NA,NA,NA
f6fa2,task,flow.Sequence,2_9,NA,NA,completion,5195,150521,150517,150552,155747,155749,2023-04-08T13:20:37Z,155780,Schüler,mwanafunzi,d,mwekezaji,matumizi,uaminifu,NA,NA,NA,"c(""distractor1"", ""distractor2"", ""distractor3"")",NA,NA,NA,NA,NA,NA,NA,NA,NA,NA,NA,NA,NA,NA,NA,NA,NA,NA,NA
f6fa2,Shallow Question,html.Page,2_10_0_0,NA,NA,form submission,4721,155749,155747,155780,160501,160501,2023-04-08T13:20:42Z,160545,Toleranz,kuvumiliana,s,maombolezo,ujasusi,mchekeshaji,maombolezo,NA,NA,"c(""distractor1"", ""distractor2"", ""distractor3"")",NA,NA,NA,NA,NA,NA,NA,NA,NA,NA,NA,NA,NA,NA,NA,NA,NA,NA,NA
f6fa2,Save data screen,canvas.Screen,2_10_0_1,NA,NA,timeout,499,160503,160518,160545,161010,161011,2023-04-08T13:20:42Z,161044,Toleranz,kuvumiliana,s,maombolezo,ujasusi,mchekeshaji,NA,NA,0,"c(""distractor1"", ""distractor2"", ""distractor3"")",NA,NA,NA,NA,NA,NA,NA,NA,NA,NA,NA,NA,NA,NA,NA,NA,NA,NA,NA
f6fa2,shallow,flow.Sequence,2_10_0,NA,NA,completion,5230,155749,155747,155780,161010,161011,2023-04-08T13:20:42Z,161044,Toleranz,kuvumiliana,s,maombolezo,ujasusi,mchekeshaji,NA,NA,NA,"c(""distractor1"", ""distractor2"", ""distractor3"")",NA,NA,NA,NA,NA,NA,NA,NA,NA,NA,NA,NA,NA,NA,NA,NA,NA,NA,NA
f6fa2,task,flow.Sequence,2_10,NA,NA,completion,5230,155749,155747,155780,161010,161012,2023-04-08T13:20:42Z,161044,Toleranz,kuvumiliana,s,maombolezo,ujasusi,mchekeshaji,NA,NA,NA,"c(""distractor1"", ""distractor2"", ""distractor3"")",NA,NA,NA,NA,NA,NA,NA,NA,NA,NA,NA,NA,NA,NA,NA,NA,NA,NA,NA
f6fa2,Shallow Question,html.Page,2_11_0_0,NA,NA,form submission,6735,161012,161010,161044,167779,167779,2023-04-08T13:20:49Z,167822,Inhalt,yaliyomo,d,kishawishi,hifadhi,kutembea,yaliyomo,NA,NA,"c(""distractor1"", ""distractor2"", ""distractor3"")",NA,NA,NA,NA,NA,NA,NA,NA,NA,NA,NA,NA,NA,NA,NA,NA,NA,NA,NA
f6fa2,Save data screen,canvas.Screen,2_11_0_1,NA,NA,timeout,500,167780,167789,167822,168290,168290,2023-04-08T13:20:50Z,168322,Inhalt,yaliyomo,d,kishawishi,hifadhi,kutembea,NA,NA,1,"c(""distractor1"", ""distractor2"", ""distractor3"")",NA,NA,NA,NA,NA,NA,NA,NA,NA,NA,NA,NA,NA,NA,NA,NA,NA,NA,NA
f6fa2,shallow,flow.Sequence,2_11_0,NA,NA,completion,7246,161012,161010,161044,168290,168291,2023-04-08T13:20:50Z,168322,Inhalt,yaliyomo,d,kishawishi,hifadhi,kutembea,NA,NA,NA,"c(""distractor1"", ""distractor2"", ""distractor3"")",NA,NA,NA,NA,NA,NA,NA,NA,NA,NA,NA,NA,NA,NA,NA,NA,NA,NA,NA
f6fa2,task,flow.Sequence,2_11,NA,NA,completion,7246,161012,161010,161044,168290,168291,2023-04-08T13:20:50Z,168322,Inhalt,yaliyomo,d,kishawishi,hifadhi,kutembea,NA,NA,NA,"c(""distractor1"", ""distractor2"", ""distractor3"")",NA,NA,NA,NA,NA,NA,NA,NA,NA,NA,NA,NA,NA,NA,NA,NA,NA,NA,NA
f6fa2,Shallow Question,html.Page,2_12_0_0,NA,NA,form submission,6304,168291,168290,168322,174626,174626,2023-04-08T13:20:56Z,174668,Notfall,dharura,d,rairai,malalamiko,ahueni,dharura,NA,NA,"c(""distractor1"", ""distractor2"", ""distractor3"")",NA,NA,NA,NA,NA,NA,NA,NA,NA,NA,NA,NA,NA,NA,NA,NA,NA,NA,NA
f6fa2,Save data screen,canvas.Screen,2_12_0_1,NA,NA,timeout,500,174627,174635,174668,175136,175137,2023-04-08T13:20:56Z,175168,Notfall,dharura,d,rairai,malalamiko,ahueni,NA,NA,1,"c(""distractor1"", ""distractor2"", ""distractor3"")",NA,NA,NA,NA,NA,NA,NA,NA,NA,NA,NA,NA,NA,NA,NA,NA,NA,NA,NA
f6fa2,shallow,flow.Sequence,2_12_0,NA,NA,completion,6814,168291,168290,168322,175136,175137,2023-04-08T13:20:56Z,175168,Notfall,dharura,d,rairai,malalamiko,ahueni,NA,NA,NA,"c(""distractor1"", ""distractor2"", ""distractor3"")",NA,NA,NA,NA,NA,NA,NA,NA,NA,NA,NA,NA,NA,NA,NA,NA,NA,NA,NA
f6fa2,task,flow.Sequence,2_12,NA,NA,completion,6814,168291,168290,168322,175136,175140,2023-04-08T13:20:56Z,175168,Notfall,dharura,d,rairai,malalamiko,ahueni,NA,NA,NA,"c(""distractor1"", ""distractor2"", ""distractor3"")",NA,NA,NA,NA,NA,NA,NA,NA,NA,NA,NA,NA,NA,NA,NA,NA,NA,NA,NA
f6fa2,Shallow Question,html.Page,2_13_0_0,NA,NA,form submission,7683,175141,175136,175168,182851,182852,2023-04-08T13:21:04Z,182898,Hoffnung,matarajio,d,kutaalamika,uratibu,mvumbuzi,matarajio,NA,NA,"c(""distractor1"", ""distractor2"", ""distractor3"")",NA,NA,NA,NA,NA,NA,NA,NA,NA,NA,NA,NA,NA,NA,NA,NA,NA,NA,NA
f6fa2,Save data screen,canvas.Screen,2_13_0_1,NA,NA,timeout,498,182874,182877,182898,183362,183363,2023-04-08T13:21:05Z,183396,Hoffnung,matarajio,d,kutaalamika,uratibu,mvumbuzi,NA,NA,1,"c(""distractor1"", ""distractor2"", ""distractor3"")",NA,NA,NA,NA,NA,NA,NA,NA,NA,NA,NA,NA,NA,NA,NA,NA,NA,NA,NA
f6fa2,shallow,flow.Sequence,2_13_0,NA,NA,completion,8194,175140,175136,175168,183362,183364,2023-04-08T13:21:05Z,183396,Hoffnung,matarajio,d,kutaalamika,uratibu,mvumbuzi,NA,NA,NA,"c(""distractor1"", ""distractor2"", ""distractor3"")",NA,NA,NA,NA,NA,NA,NA,NA,NA,NA,NA,NA,NA,NA,NA,NA,NA,NA,NA
f6fa2,task,flow.Sequence,2_13,NA,NA,completion,8194,175140,175136,175168,183362,183364,2023-04-08T13:21:05Z,183396,Hoffnung,matarajio,d,kutaalamika,uratibu,mvumbuzi,NA,NA,NA,"c(""distractor1"", ""distractor2"", ""distractor3"")",NA,NA,NA,NA,NA,NA,NA,NA,NA,NA,NA,NA,NA,NA,NA,NA,NA,NA,NA
f6fa2,Shallow Question,html.Page,2_14_0_0,NA,NA,form submission,7380,183365,183362,183396,190776,190776,2023-04-08T13:21:12Z,190807,Verpackung,ufungaji,d,uhusiano,upimaji,uchunguzi,ufungaji,NA,NA,"c(""distractor1"", ""distractor2"", ""distractor3"")",NA,NA,NA,NA,NA,NA,NA,NA,NA,NA,NA,NA,NA,NA,NA,NA,NA,NA,NA
f6fa2,Save data screen,canvas.Screen,2_14_0_1,NA,NA,timeout,500,190781,190788,190807,191273,191276,2023-04-08T13:21:13Z,191307,Verpackung,ufungaji,d,uhusiano,upimaji,uchunguzi,NA,NA,1,"c(""distractor1"", ""distractor2"", ""distractor3"")",NA,NA,NA,NA,NA,NA,NA,NA,NA,NA,NA,NA,NA,NA,NA,NA,NA,NA,NA
f6fa2,shallow,flow.Sequence,2_14_0,NA,NA,completion,7877,183365,183362,183396,191273,191276,2023-04-08T13:21:13Z,191307,Verpackung,ufungaji,d,uhusiano,upimaji,uchunguzi,NA,NA,NA,"c(""distractor1"", ""distractor2"", ""distractor3"")",NA,NA,NA,NA,NA,NA,NA,NA,NA,NA,NA,NA,NA,NA,NA,NA,NA,NA,NA
f6fa2,task,flow.Sequence,2_14,NA,NA,completion,7877,183364,183362,183396,191273,191277,2023-04-08T13:21:13Z,191307,Verpackung,ufungaji,d,uhusiano,upimaji,uchunguzi,NA,NA,NA,"c(""distractor1"", ""distractor2"", ""distractor3"")",NA,NA,NA,NA,NA,NA,NA,NA,NA,NA,NA,NA,NA,NA,NA,NA,NA,NA,NA
f6fa2,Shallow Question,html.Page,2_15_0_0,NA,NA,form submission,10571,191277,191273,191307,201878,201879,2023-04-08T13:21:23Z,201918,Tester,wanaojaribu,d,sherti,sihiri,mlipuko,wanaojaribu,NA,NA,"c(""distractor1"", ""distractor2"", ""distractor3"")",NA,NA,NA,NA,NA,NA,NA,NA,NA,NA,NA,NA,NA,NA,NA,NA,NA,NA,NA
f6fa2,Save data screen,canvas.Screen,2_15_0_1,NA,NA,timeout,499,201881,201886,201918,202383,202384,2023-04-08T13:21:24Z,202417,Tester,wanaojaribu,d,sherti,sihiri,mlipuko,NA,NA,1,"c(""distractor1"", ""distractor2"", ""distractor3"")",NA,NA,NA,NA,NA,NA,NA,NA,NA,NA,NA,NA,NA,NA,NA,NA,NA,NA,NA
f6fa2,shallow,flow.Sequence,2_15_0,NA,NA,completion,11076,191277,191273,191307,202383,202385,2023-04-08T13:21:24Z,202417,Tester,wanaojaribu,d,sherti,sihiri,mlipuko,NA,NA,NA,"c(""distractor1"", ""distractor2"", ""distractor3"")",NA,NA,NA,NA,NA,NA,NA,NA,NA,NA,NA,NA,NA,NA,NA,NA,NA,NA,NA
f6fa2,task,flow.Sequence,2_15,NA,NA,completion,11076,191277,191273,191307,202383,202385,2023-04-08T13:21:24Z,202417,Tester,wanaojaribu,d,sherti,sihiri,mlipuko,NA,NA,NA,"c(""distractor1"", ""distractor2"", ""distractor3"")",NA,NA,NA,NA,NA,NA,NA,NA,NA,NA,NA,NA,NA,NA,NA,NA,NA,NA,NA
f6fa2,retrieval block 2 (multiple choice),flow.Loop,2,NA,NA,completion,107233,95057,95054,95150,202383,202387,2023-04-08T13:21:24Z,202417,NA,NA,NA,NA,NA,NA,NA,NA,NA,"c(""distractor1"", ""distractor2"", ""distractor3"")",NA,NA,NA,NA,NA,NA,NA,NA,NA,NA,NA,NA,NA,NA,NA,NA,NA,NA,NA
f6fa2,End,canvas.Screen,3,NA,keypress(Space),response,1479,202387,202383,202417,203862,203859,2023-04-08T13:21:25Z,203898,NA,NA,NA,NA,NA,NA,NA,NA,NA,NULL,NA,NA,NA,NA,NA,NA,NA,NA,NA,NA,NA,NA,NA,NA,NA,NA,NA,NA,NA
f6fa2,root,flow.Sequence,NA,NA,NA,completion,202731,980,1013,1131,203862,203861,2023-04-08T13:21:25Z,203898,NA,NA,NA,NA,NA,NA,NA,NA,NA,NULL,NA,NA,NA,NA,NA,NA,NA,NA,NA,NA,NA,NA,NA,NA,NA,NA,NA,NA,NA
