observation,sender,sender_type,sender_id,response,response_action,ended_on,duration,time_run,time_render,time_show,time_end,time_commit,timestamp,time_switch,distractors,german,swahili,enc,distractor1,distractor2,distractor3,response_2,x,correct,x_2,url_vp,url_sess,meta_labjs_version,meta_location,meta_user_agent,meta_platform,meta_language,meta_locale,meta_time_zone,meta_timezone_offset,meta_screen_width,meta_screen_height,meta_scroll_width,meta_scroll_height,meta_window_inner_width,meta_window_inner_height,meta_device_pixel_ratio,meta_labjs_build_flavor,meta_labjs_build_commit
fcd50,Introduction general,canvas.Screen,0,weiter,keypress(q),response,347538.647,1045.5,1043.198,1059.853,348598.5,348602.79999924,2023-03-17T11:53:53Z,348608.133,NULL,NA,NA,NA,NA,NA,NA,NA,NA,NA,NA,202,1,20.2.4,https://neurocog.fernuni.ch/studies/vweber/sfink/encoding_immediate/index.html?vp=202&sess=1,"Mozilla/5.0 (Windows NT 10.0; Win64; x64) AppleWebKit/537.36 (KHTML, like Gecko) Chrome/96.0.4664.110 Safari/537.36",Win32,de-CH,de,Europe/Zurich,-60,1536,864,1536,706,1536,754,1.25,production,f5b4a49f956347addd546a832a3327688c2c0fef
fcd50,Introduction practice,canvas.Screen,1_0,NA,keypress(Space),response,6605.0669988556,348603.19999886,348587.283,348608.133,355213.19999886,355213.69999886,2023-03-17T11:53:59Z,355219.363,NULL,NA,NA,NA,NA,NA,NA,NA,NA,NA,NA,NA,NA,NA,NA,NA,NA,NA,NA,NA,NA,NA,NA,NA,NA,NA,NA,NA,NA,NA
fcd50,deep,flow.Sequence,1_1_0_0,NA,NA,skipped,NA,355213.89999962,NA,NA,355213.19999886,355215.29999923997,2023-03-17T11:53:59Z,355219.363,"c(""distractor1"", ""distractor2"", ""distractor3"")",Gegenwart,hadhara,s,katiba,jokofu,mikopo,NA,NA,NA,NA,NA,NA,NA,NA,NA,NA,NA,NA,NA,NA,NA,NA,NA,NA,NA,NA,NA,NA,NA
fcd50,Shallow Question,html.Page,1_1_0_1_0,NA,NA,form submission,19037.536999619,355215.5,355202.366,355219.363,374256.89999962,374257.19999886,2023-03-17T11:54:18Z,374270.404,"c(""distractor1"", ""distractor2"", ""distractor3"")",Gegenwart,hadhara,s,katiba,jokofu,mikopo,hadhara,NA,NA,NA,NA,NA,NA,NA,NA,NA,NA,NA,NA,NA,NA,NA,NA,NA,NA,NA,NA,NA,NA
fcd50,"""Richtig""-Screen",canvas.Screen,1_1_0_1_1,NA,NA,timeout,4995.938,374258.5,374253.817,374270.404,379250.012,379251.59999847,2023-03-17T11:54:23Z,379266.342,"c(""distractor1"", ""distractor2"", ""distractor3"")",Gegenwart,hadhara,s,katiba,jokofu,mikopo,NA,NA,1,NA,NA,NA,NA,NA,NA,NA,NA,NA,NA,NA,NA,NA,NA,NA,NA,NA,NA,NA,NA
fcd50,"""Falsch""-Screen",canvas.Screen,1_1_0_1_2,NA,NA,skipped,NA,379252.59999847,NA,NA,379250.012,379252.79999924,2023-03-17T11:54:23Z,379266.342,"c(""distractor1"", ""distractor2"", ""distractor3"")",Gegenwart,hadhara,s,katiba,jokofu,mikopo,NA,NA,NA,NA,NA,NA,NA,NA,NA,NA,NA,NA,NA,NA,NA,NA,NA,NA,NA,NA,NA,NA,NA
fcd50,shallow,flow.Sequence,1_1_0_1,NA,NA,completion,24030.649,355215.5,355202.366,355219.363,379250.012,379252.89999962,2023-03-17T11:54:23Z,379266.342,"c(""distractor1"", ""distractor2"", ""distractor3"")",Gegenwart,hadhara,s,katiba,jokofu,mikopo,NA,NA,NA,NA,NA,NA,NA,NA,NA,NA,NA,NA,NA,NA,NA,NA,NA,NA,NA,NA,NA,NA,NA
fcd50,task,flow.Sequence,1_1_0,NA,NA,completion,24030.649,355213.89999962,355202.366,355219.363,379250.012,379252.89999962,2023-03-17T11:54:23Z,379266.342,"c(""distractor1"", ""distractor2"", ""distractor3"")",Gegenwart,hadhara,s,katiba,jokofu,mikopo,NA,NA,NA,NA,NA,NA,NA,NA,NA,NA,NA,NA,NA,NA,NA,NA,NA,NA,NA,NA,NA,NA,NA
fcd50,Deep Question,html.Page,1_1_1_0_0,NA,NA,form submission,13303.057999619,379253.19999886,379250.012,379266.342,392569.39999962,392570.29999924,2023-03-17T11:54:36Z,392572.172,"c(""distractor1"", ""distractor2"", ""distractor3"")",Schatten,kivuli,d,NA,NA,NA,ahahah,NA,NA,NA,NA,NA,NA,NA,NA,NA,NA,NA,NA,NA,NA,NA,NA,NA,NA,NA,NA,NA,NA
fcd50,"""Richtig""-Screen",canvas.Screen,1_1_1_0_1,NA,NA,skipped,NA,392575.69999886,NA,NA,392569.39999962,392575.89999962,2023-03-17T11:54:36Z,392572.172,"c(""distractor1"", ""distractor2"", ""distractor3"")",Schatten,kivuli,d,NA,NA,NA,NA,NA,NA,NA,NA,NA,NA,NA,NA,NA,NA,NA,NA,NA,NA,NA,NA,NA,NA,NA,NA,NA,NA
fcd50,"""Falsch""-Screen",canvas.Screen,1_1_1_0_2,NA,NA,timeout,4995.947,392577,392555.48,392572.172,397551.3,397553.59999847,2023-03-17T11:54:41Z,397568.119,"c(""distractor1"", ""distractor2"", ""distractor3"")",Schatten,kivuli,d,NA,NA,NA,NA,NA,0,NA,NA,NA,NA,NA,NA,NA,NA,NA,NA,NA,NA,NA,NA,NA,NA,NA,NA,NA,NA
fcd50,deep,flow.Sequence,1_1_1_0,NA,NA,completion,18284.958,379253.19999886,379250.012,379266.342,397551.3,397553.79999924,2023-03-17T11:54:41Z,397568.119,"c(""distractor1"", ""distractor2"", ""distractor3"")",Schatten,kivuli,d,NA,NA,NA,NA,NA,NA,NA,NA,NA,NA,NA,NA,NA,NA,NA,NA,NA,NA,NA,NA,NA,NA,NA,NA,NA,NA
fcd50,shallow,flow.Sequence,1_1_1_1,NA,NA,skipped,NA,397553.89999962,NA,NA,397551.3,397554,2023-03-17T11:54:41Z,397568.119,"c(""distractor1"", ""distractor2"", ""distractor3"")",Schatten,kivuli,d,NA,NA,NA,NA,NA,NA,NA,NA,NA,NA,NA,NA,NA,NA,NA,NA,NA,NA,NA,NA,NA,NA,NA,NA,NA,NA
fcd50,task,flow.Sequence,1_1_1,NA,NA,completion,18284.958,379253.09999847,379250.012,379266.342,397551.3,397554.09999847,2023-03-17T11:54:41Z,397568.119,"c(""distractor1"", ""distractor2"", ""distractor3"")",Schatten,kivuli,d,NA,NA,NA,NA,NA,NA,NA,NA,NA,NA,NA,NA,NA,NA,NA,NA,NA,NA,NA,NA,NA,NA,NA,NA,NA,NA
fcd50,Deep Question,html.Page,1_1_2_0_0,NA,NA,form submission,12776.881,397554.19999886,397551.3,397568.119,410345,410345.29999924,2023-03-17T11:54:54Z,410357.486,"c(""distractor1"", ""distractor2"", ""distractor3"")",Qualität,mtindo,d,NA,NA,NA,breef,NA,NA,NA,NA,NA,NA,NA,NA,NA,NA,NA,NA,NA,NA,NA,NA,NA,NA,NA,NA,NA,NA
fcd50,"""Richtig""-Screen",canvas.Screen,1_1_2_0_1,NA,NA,skipped,NA,410347.69999886,NA,NA,410345,410347.89999962,2023-03-17T11:54:54Z,410357.486,"c(""distractor1"", ""distractor2"", ""distractor3"")",Qualität,mtindo,d,NA,NA,NA,NA,NA,NA,NA,NA,NA,NA,NA,NA,NA,NA,NA,NA,NA,NA,NA,NA,NA,NA,NA,NA,NA,NA
fcd50,"""Falsch""-Screen",canvas.Screen,1_1_2_0_2,NA,NA,timeout,4996.573,410349,410341.162,410357.486,415337.077,415338.29999924,2023-03-17T11:54:59Z,415354.059,"c(""distractor1"", ""distractor2"", ""distractor3"")",Qualität,mtindo,d,NA,NA,NA,NA,NA,0,NA,NA,NA,NA,NA,NA,NA,NA,NA,NA,NA,NA,NA,NA,NA,NA,NA,NA,NA,NA
fcd50,deep,flow.Sequence,1_1_2_0,NA,NA,completion,17768.958,397554.19999886,397551.3,397568.119,415337.077,415338.79999923997,2023-03-17T11:54:59Z,415354.059,"c(""distractor1"", ""distractor2"", ""distractor3"")",Qualität,mtindo,d,NA,NA,NA,NA,NA,NA,NA,NA,NA,NA,NA,NA,NA,NA,NA,NA,NA,NA,NA,NA,NA,NA,NA,NA,NA,NA
fcd50,shallow,flow.Sequence,1_1_2_1,NA,NA,skipped,NA,415339,NA,NA,415337.077,415339.29999924,2023-03-17T11:54:59Z,415354.059,"c(""distractor1"", ""distractor2"", ""distractor3"")",Qualität,mtindo,d,NA,NA,NA,NA,NA,NA,NA,NA,NA,NA,NA,NA,NA,NA,NA,NA,NA,NA,NA,NA,NA,NA,NA,NA,NA,NA
fcd50,task,flow.Sequence,1_1_2,NA,NA,completion,17768.958,397554.19999886,397551.3,397568.119,415337.077,415339.69999886,2023-03-17T11:54:59Z,415354.059,"c(""distractor1"", ""distractor2"", ""distractor3"")",Qualität,mtindo,d,NA,NA,NA,NA,NA,NA,NA,NA,NA,NA,NA,NA,NA,NA,NA,NA,NA,NA,NA,NA,NA,NA,NA,NA,NA,NA
fcd50,deep,flow.Sequence,1_1_3_0,NA,NA,skipped,NA,415340,NA,NA,415337.077,415340.19999886,2023-03-17T11:54:59Z,415354.059,"c(""distractor1"", ""distractor2"", ""distractor3"")",Kritik,lawama,s,dereva,nafasi,mawazo,NA,NA,NA,NA,NA,NA,NA,NA,NA,NA,NA,NA,NA,NA,NA,NA,NA,NA,NA,NA,NA,NA,NA
fcd50,Shallow Question,html.Page,1_1_3_1_0,NA,NA,form submission,8375.7409992371,415340.5,415337.077,415354.059,423729.79999924,423730.79999924,2023-03-17T11:55:08Z,423729.904,"c(""distractor1"", ""distractor2"", ""distractor3"")",Kritik,lawama,s,dereva,nafasi,mawazo,nafasi,NA,NA,NA,NA,NA,NA,NA,NA,NA,NA,NA,NA,NA,NA,NA,NA,NA,NA,NA,NA,NA,NA
fcd50,"""Richtig""-Screen",canvas.Screen,1_1_3_1_1,NA,NA,skipped,NA,423734.39999962,NA,NA,423729.79999924,423734.59999847,2023-03-17T11:55:08Z,423729.904,"c(""distractor1"", ""distractor2"", ""distractor3"")",Kritik,lawama,s,dereva,nafasi,mawazo,NA,NA,NA,NA,NA,NA,NA,NA,NA,NA,NA,NA,NA,NA,NA,NA,NA,NA,NA,NA,NA,NA,NA
fcd50,"""Falsch""-Screen",canvas.Screen,1_1_3_1_2,NA,NA,timeout,4996.233,423735.39999962,423713.216,423729.904,428709.743,428710.39999962,2023-03-17T11:55:13Z,428726.137,"c(""distractor1"", ""distractor2"", ""distractor3"")",Kritik,lawama,s,dereva,nafasi,mawazo,NA,NA,0,NA,NA,NA,NA,NA,NA,NA,NA,NA,NA,NA,NA,NA,NA,NA,NA,NA,NA,NA,NA
fcd50,shallow,flow.Sequence,1_1_3_1,NA,NA,completion,13355.684,415340.39999962,415337.077,415354.059,428709.743,428710.59999847,2023-03-17T11:55:13Z,428726.137,"c(""distractor1"", ""distractor2"", ""distractor3"")",Kritik,lawama,s,dereva,nafasi,mawazo,NA,NA,NA,NA,NA,NA,NA,NA,NA,NA,NA,NA,NA,NA,NA,NA,NA,NA,NA,NA,NA,NA,NA
fcd50,task,flow.Sequence,1_1_3,NA,NA,completion,13355.684,415339.89999962,415337.077,415354.059,428709.743,428710.89999962,2023-03-17T11:55:13Z,428726.137,"c(""distractor1"", ""distractor2"", ""distractor3"")",Kritik,lawama,s,dereva,nafasi,mawazo,NA,NA,NA,NA,NA,NA,NA,NA,NA,NA,NA,NA,NA,NA,NA,NA,NA,NA,NA,NA,NA,NA,NA
fcd50,Deep Question,html.Page,1_1_4_0_0,NA,NA,form submission,10754.162999237,428710.89999962,428709.743,428726.137,439480.29999923997,439480.59999847,2023-03-17T11:55:23Z,439483.587,"c(""distractor1"", ""distractor2"", ""distractor3"")",Gesundheit,salama,d,NA,NA,NA,hetij,NA,NA,NA,NA,NA,NA,NA,NA,NA,NA,NA,NA,NA,NA,NA,NA,NA,NA,NA,NA,NA,NA
fcd50,"""Richtig""-Screen",canvas.Screen,1_1_4_0_1,NA,NA,skipped,NA,439482.59999847,NA,NA,439480.29999923997,439482.79999923997,2023-03-17T11:55:23Z,439483.587,"c(""distractor1"", ""distractor2"", ""distractor3"")",Gesundheit,salama,d,NA,NA,NA,NA,NA,NA,NA,NA,NA,NA,NA,NA,NA,NA,NA,NA,NA,NA,NA,NA,NA,NA,NA,NA,NA,NA
fcd50,"""Falsch""-Screen",canvas.Screen,1_1_4_0_2,NA,NA,timeout,4995.951,439484,439466.933,439483.587,444462.91,444464.19999886,2023-03-17T11:55:28Z,444479.538,"c(""distractor1"", ""distractor2"", ""distractor3"")",Gesundheit,salama,d,NA,NA,NA,NA,NA,0,NA,NA,NA,NA,NA,NA,NA,NA,NA,NA,NA,NA,NA,NA,NA,NA,NA,NA,NA,NA
fcd50,deep,flow.Sequence,1_1_4_0,NA,NA,completion,15736.773,428710.89999962,428709.743,428726.137,444462.91,444465,2023-03-17T11:55:28Z,444479.538,"c(""distractor1"", ""distractor2"", ""distractor3"")",Gesundheit,salama,d,NA,NA,NA,NA,NA,NA,NA,NA,NA,NA,NA,NA,NA,NA,NA,NA,NA,NA,NA,NA,NA,NA,NA,NA,NA,NA
fcd50,shallow,flow.Sequence,1_1_4_1,NA,NA,skipped,NA,444465.19999886,NA,NA,444462.91,444465.5,2023-03-17T11:55:28Z,444479.538,"c(""distractor1"", ""distractor2"", ""distractor3"")",Gesundheit,salama,d,NA,NA,NA,NA,NA,NA,NA,NA,NA,NA,NA,NA,NA,NA,NA,NA,NA,NA,NA,NA,NA,NA,NA,NA,NA,NA
fcd50,task,flow.Sequence,1_1_4,NA,NA,completion,15736.773,428710.89999962,428709.743,428726.137,444462.91,444467.59999847,2023-03-17T11:55:28Z,444479.538,"c(""distractor1"", ""distractor2"", ""distractor3"")",Gesundheit,salama,d,NA,NA,NA,NA,NA,NA,NA,NA,NA,NA,NA,NA,NA,NA,NA,NA,NA,NA,NA,NA,NA,NA,NA,NA,NA,NA
fcd50,deep,flow.Sequence,1_1_5_0,NA,NA,skipped,NA,444468.09999847,NA,NA,444462.91,444468.39999962,2023-03-17T11:55:28Z,444479.538,"c(""distractor1"", ""distractor2"", ""distractor3"")",Rückhalt,msaada,s,muhula,auwali,kiwimbe,NA,NA,NA,NA,NA,NA,NA,NA,NA,NA,NA,NA,NA,NA,NA,NA,NA,NA,NA,NA,NA,NA,NA
fcd50,Shallow Question,html.Page,1_1_5_1_0,NA,NA,form submission,8063.6619988556,444468.69999886,444462.91,444479.538,452543.19999886,452543.79999924,2023-03-17T11:55:36Z,452556.26,"c(""distractor1"", ""distractor2"", ""distractor3"")",Rückhalt,msaada,s,muhula,auwali,kiwimbe,msaada,NA,NA,NA,NA,NA,NA,NA,NA,NA,NA,NA,NA,NA,NA,NA,NA,NA,NA,NA,NA,NA,NA
fcd50,"""Richtig""-Screen",canvas.Screen,1_1_5_1_1,NA,NA,timeout,4995.922,452550.09999847,452539.559,452556.26,457535.448,457536,2023-03-17T11:55:41Z,457552.182,"c(""distractor1"", ""distractor2"", ""distractor3"")",Rückhalt,msaada,s,muhula,auwali,kiwimbe,NA,NA,1,NA,NA,NA,NA,NA,NA,NA,NA,NA,NA,NA,NA,NA,NA,NA,NA,NA,NA,NA,NA
fcd50,"""Falsch""-Screen",canvas.Screen,1_1_5_1_2,NA,NA,skipped,NA,457538,NA,NA,457535.448,457538.09999847,2023-03-17T11:55:41Z,457552.182,"c(""distractor1"", ""distractor2"", ""distractor3"")",Rückhalt,msaada,s,muhula,auwali,kiwimbe,NA,NA,NA,NA,NA,NA,NA,NA,NA,NA,NA,NA,NA,NA,NA,NA,NA,NA,NA,NA,NA,NA,NA
fcd50,shallow,flow.Sequence,1_1_5_1,NA,NA,completion,13055.91,444468.59999847,444462.91,444479.538,457535.448,457538.19999886,2023-03-17T11:55:41Z,457552.182,"c(""distractor1"", ""distractor2"", ""distractor3"")",Rückhalt,msaada,s,muhula,auwali,kiwimbe,NA,NA,NA,NA,NA,NA,NA,NA,NA,NA,NA,NA,NA,NA,NA,NA,NA,NA,NA,NA,NA,NA,NA
fcd50,task,flow.Sequence,1_1_5,NA,NA,completion,13055.91,444468,444462.91,444479.538,457535.448,457538.29999924,2023-03-17T11:55:41Z,457552.182,"c(""distractor1"", ""distractor2"", ""distractor3"")",Rückhalt,msaada,s,muhula,auwali,kiwimbe,NA,NA,NA,NA,NA,NA,NA,NA,NA,NA,NA,NA,NA,NA,NA,NA,NA,NA,NA,NA,NA,NA,NA
fcd50,block,flow.Loop,1_1,NA,NA,completion,102316.085,355213.79999924,355202.366,355219.363,457535.448,457538.39999962,2023-03-17T11:55:41Z,457552.182,"c(""distractor1"", ""distractor2"", ""distractor3"")",NA,NA,NA,NA,NA,NA,NA,NA,NA,NA,NA,NA,NA,NA,NA,NA,NA,NA,NA,NA,NA,NA,NA,NA,NA,NA,NA,NA,NA
fcd50,Practice,flow.Sequence,1,NA,NA,completion,108927.315,348603.09999847,348587.283,348608.133,457535.448,457538.5,2023-03-17T11:55:41Z,457552.182,NULL,NA,NA,NA,NA,NA,NA,NA,NA,NA,NA,NA,NA,NA,NA,NA,NA,NA,NA,NA,NA,NA,NA,NA,NA,NA,NA,NA,NA,NA
fcd50,Experiment start,canvas.Screen,2,weiter,keypress(q),response,11132.217999619,457538.5,457535.448,457552.182,468684.39999962,468685,2023-03-17T11:55:53Z,468776.236,NULL,NA,NA,NA,NA,NA,NA,NA,NA,NA,NA,NA,NA,NA,NA,NA,NA,NA,NA,NA,NA,NA,NA,NA,NA,NA,NA,NA,NA,NA
fcd50,deep,flow.Sequence,3_0_0_0_0_0,NA,NA,skipped,NA,468774.29999924,NA,NA,468684.39999962,468774.5,2023-03-17T11:55:53Z,468776.236,NULL,Verstand,ufahamivu,s,shakawa,hadhari,mhandisi,NA,sdf,NA,0,NA,NA,NA,NA,NA,NA,NA,NA,NA,NA,NA,NA,NA,NA,NA,NA,NA,NA,NA
fcd50,Shallow Question,html.Page,3_0_0_0_0_1_0,NA,NA,form submission,12698.663999619,468774.59999847,468758.897,468776.236,481474.89999962,481475.19999886,2023-03-17T11:56:05Z,481482.46,NULL,Verstand,ufahamivu,s,shakawa,hadhari,mhandisi,hadhari,NA,NA,0,NA,NA,NA,NA,NA,NA,NA,NA,NA,NA,NA,NA,NA,NA,NA,NA,NA,NA,NA
fcd50,"""Richtig""-Screen",canvas.Screen,3_0_0_0_0_1_1,NA,NA,skipped,NA,481477.69999886,NA,NA,481474.89999962,481477.89999962,2023-03-17T11:56:05Z,481482.46,NULL,Verstand,ufahamivu,s,shakawa,hadhari,mhandisi,NA,sdf,NA,0,NA,NA,NA,NA,NA,NA,NA,NA,NA,NA,NA,NA,NA,NA,NA,NA,NA,NA,NA
fcd50,"""Falsch""-Screen",canvas.Screen,3_0_0_0_0_1_2,NA,NA,timeout,4996.278,481478.79999923997,481465.959,481482.46,486462.304,486463.29999924,2023-03-17T11:56:10Z,486478.738,NULL,Verstand,ufahamivu,s,shakawa,hadhari,mhandisi,NA,sdf,0,0,NA,NA,NA,NA,NA,NA,NA,NA,NA,NA,NA,NA,NA,NA,NA,NA,NA,NA,NA
fcd50,shallow,flow.Sequence,3_0_0_0_0_1,NA,NA,completion,17686.068,468774.5,468758.897,468776.236,486462.304,486463.79999924,2023-03-17T11:56:10Z,486478.738,NULL,Verstand,ufahamivu,s,shakawa,hadhari,mhandisi,NA,sdf,NA,0,NA,NA,NA,NA,NA,NA,NA,NA,NA,NA,NA,NA,NA,NA,NA,NA,NA,NA,NA
fcd50,task,flow.Sequence,3_0_0_0_0,NA,NA,completion,17686.068,468774.29999924,468758.897,468776.236,486462.304,486464.19999886,2023-03-17T11:56:10Z,486478.738,NULL,Verstand,ufahamivu,s,shakawa,hadhari,mhandisi,NA,sdf,NA,0,NA,NA,NA,NA,NA,NA,NA,NA,NA,NA,NA,NA,NA,NA,NA,NA,NA,NA,NA
fcd50,Deep Question,html.Page,3_0_0_0_1_0_0,NA,NA,form submission,7296.4619988556,486464.39999962,486462.304,486478.738,493775.19999886,493776,2023-03-17T11:56:18Z,493789.153,NULL,Ausschluss,kutengwa,d,NA,NA,NA,essi,NA,NA,0,NA,NA,NA,NA,NA,NA,NA,NA,NA,NA,NA,NA,NA,NA,NA,NA,NA,NA,NA
fcd50,"""Richtig""-Screen",canvas.Screen,3_0_0_0_1_0_1,NA,NA,skipped,NA,493781.79999924,NA,NA,493775.19999886,493782.19999886,2023-03-17T11:56:18Z,493789.153,NULL,Ausschluss,kutengwa,d,NA,NA,NA,NA,sdf,NA,0,NA,NA,NA,NA,NA,NA,NA,NA,NA,NA,NA,NA,NA,NA,NA,NA,NA,NA,NA
fcd50,"""Falsch""-Screen",canvas.Screen,3_0_0_0_1_0_2,NA,NA,timeout,4995.821,493783.89999962,493772.425,493789.153,498768.296,498768.69999886,2023-03-17T11:56:23Z,498784.974,NULL,Ausschluss,kutengwa,d,NA,NA,NA,NA,sdf,0,0,NA,NA,NA,NA,NA,NA,NA,NA,NA,NA,NA,NA,NA,NA,NA,NA,NA,NA,NA
fcd50,deep,flow.Sequence,3_0_0_0_1_0,NA,NA,completion,12289.558,486464.29999923997,486462.304,486478.738,498768.296,498768.89999962,2023-03-17T11:56:23Z,498784.974,NULL,Ausschluss,kutengwa,d,NA,NA,NA,NA,sdf,NA,0,NA,NA,NA,NA,NA,NA,NA,NA,NA,NA,NA,NA,NA,NA,NA,NA,NA,NA,NA
fcd50,shallow,flow.Sequence,3_0_0_0_1_1,NA,NA,skipped,NA,498768.89999962,NA,NA,498768.296,498768.89999962,2023-03-17T11:56:23Z,498784.974,NULL,Ausschluss,kutengwa,d,NA,NA,NA,NA,sdf,NA,0,NA,NA,NA,NA,NA,NA,NA,NA,NA,NA,NA,NA,NA,NA,NA,NA,NA,NA,NA
fcd50,task,flow.Sequence,3_0_0_0_1,NA,NA,completion,12289.558,486464.29999923997,486462.304,486478.738,498768.296,498769.09999847,2023-03-17T11:56:23Z,498784.974,NULL,Ausschluss,kutengwa,d,NA,NA,NA,NA,sdf,NA,0,NA,NA,NA,NA,NA,NA,NA,NA,NA,NA,NA,NA,NA,NA,NA,NA,NA,NA,NA
fcd50,Deep Question,html.Page,3_0_0_0_2_0_0,NA,NA,form submission,9010.526,498769.09999847,498768.296,498784.974,507795.5,507795.69999886,2023-03-17T11:56:32Z,507810.871,NULL,Vergnügen,kichekesho,d,NA,NA,NA,kesswq,NA,NA,0,NA,NA,NA,NA,NA,NA,NA,NA,NA,NA,NA,NA,NA,NA,NA,NA,NA,NA,NA
fcd50,"""Richtig""-Screen",canvas.Screen,3_0_0_0_2_0_1,NA,NA,skipped,NA,507798,NA,NA,507795.5,507798.09999847,2023-03-17T11:56:32Z,507810.871,NULL,Vergnügen,kichekesho,d,NA,NA,NA,NA,sdf,NA,0,NA,NA,NA,NA,NA,NA,NA,NA,NA,NA,NA,NA,NA,NA,NA,NA,NA,NA,NA
fcd50,"""Falsch""-Screen",canvas.Screen,3_0_0_0_2_0_2,NA,NA,timeout,4996.106,507799.19999886,507794.807,507810.871,512790.23,512790.79999924,2023-03-17T11:56:37Z,512806.977,NULL,Vergnügen,kichekesho,d,NA,NA,NA,NA,sdf,0,0,NA,NA,NA,NA,NA,NA,NA,NA,NA,NA,NA,NA,NA,NA,NA,NA,NA,NA,NA
fcd50,deep,flow.Sequence,3_0_0_0_2_0,NA,NA,completion,14005.256,498769.09999847,498768.296,498784.974,512790.23,512791.09999847,2023-03-17T11:56:37Z,512806.977,NULL,Vergnügen,kichekesho,d,NA,NA,NA,NA,sdf,NA,0,NA,NA,NA,NA,NA,NA,NA,NA,NA,NA,NA,NA,NA,NA,NA,NA,NA,NA,NA
fcd50,shallow,flow.Sequence,3_0_0_0_2_1,NA,NA,skipped,NA,512791.29999924,NA,NA,512790.23,512791.5,2023-03-17T11:56:37Z,512806.977,NULL,Vergnügen,kichekesho,d,NA,NA,NA,NA,sdf,NA,0,NA,NA,NA,NA,NA,NA,NA,NA,NA,NA,NA,NA,NA,NA,NA,NA,NA,NA,NA
fcd50,task,flow.Sequence,3_0_0_0_2,NA,NA,completion,14005.256,498769.09999847,498768.296,498784.974,512790.23,512791.59999847,2023-03-17T11:56:37Z,512806.977,NULL,Vergnügen,kichekesho,d,NA,NA,NA,NA,sdf,NA,0,NA,NA,NA,NA,NA,NA,NA,NA,NA,NA,NA,NA,NA,NA,NA,NA,NA,NA,NA
fcd50,deep,flow.Sequence,3_0_0_0_3_0,NA,NA,skipped,NA,512791.79999923997,NA,NA,512790.23,512792,2023-03-17T11:56:37Z,512806.977,NULL,Wohlstand,mafanikio,s,chimbuko,kumbuko,mapwaji,NA,sdf,NA,0,NA,NA,NA,NA,NA,NA,NA,NA,NA,NA,NA,NA,NA,NA,NA,NA,NA,NA,NA
fcd50,Shallow Question,html.Page,3_0_0_0_3_1_0,NA,NA,form submission,6942.023,512792.19999886,512790.23,512806.977,519749,519749.29999924,2023-03-17T11:56:44Z,519751.078,NULL,Wohlstand,mafanikio,s,chimbuko,kumbuko,mapwaji,mafanikio,NA,NA,0,NA,NA,NA,NA,NA,NA,NA,NA,NA,NA,NA,NA,NA,NA,NA,NA,NA,NA,NA
fcd50,"""Richtig""-Screen",canvas.Screen,3_0_0_0_3_1_1,NA,NA,timeout,4996.088,519751,519735.023,519751.078,524731.117,524731.79999924,2023-03-17T11:56:49Z,524747.166,NULL,Wohlstand,mafanikio,s,chimbuko,kumbuko,mapwaji,NA,sdf,1,0,NA,NA,NA,NA,NA,NA,NA,NA,NA,NA,NA,NA,NA,NA,NA,NA,NA,NA,NA
fcd50,"""Falsch""-Screen",canvas.Screen,3_0_0_0_3_1_2,NA,NA,skipped,NA,524733.39999962,NA,NA,524731.117,524733.69999886,2023-03-17T11:56:49Z,524747.166,NULL,Wohlstand,mafanikio,s,chimbuko,kumbuko,mapwaji,NA,sdf,NA,0,NA,NA,NA,NA,NA,NA,NA,NA,NA,NA,NA,NA,NA,NA,NA,NA,NA,NA,NA
fcd50,shallow,flow.Sequence,3_0_0_0_3_1,NA,NA,completion,11924.14,512792.09999847,512790.23,512806.977,524731.117,524733.79999924,2023-03-17T11:56:49Z,524747.166,NULL,Wohlstand,mafanikio,s,chimbuko,kumbuko,mapwaji,NA,sdf,NA,0,NA,NA,NA,NA,NA,NA,NA,NA,NA,NA,NA,NA,NA,NA,NA,NA,NA,NA,NA
fcd50,task,flow.Sequence,3_0_0_0_3,NA,NA,completion,11924.14,512791.79999923997,512790.23,512806.977,524731.117,524733.89999962,2023-03-17T11:56:49Z,524747.166,NULL,Wohlstand,mafanikio,s,chimbuko,kumbuko,mapwaji,NA,sdf,NA,0,NA,NA,NA,NA,NA,NA,NA,NA,NA,NA,NA,NA,NA,NA,NA,NA,NA,NA,NA
fcd50,Deep Question,html.Page,3_0_0_0_4_0_0,NA,NA,form submission,9099.4339984742,524734,524731.117,524747.166,533846.59999847,533847.19999886,2023-03-17T11:56:58Z,533856.173,NULL,Notfall,dharura,d,NA,NA,NA,emarge,NA,NA,0,NA,NA,NA,NA,NA,NA,NA,NA,NA,NA,NA,NA,NA,NA,NA,NA,NA,NA,NA
fcd50,"""Richtig""-Screen",canvas.Screen,3_0_0_0_4_0_1,NA,NA,skipped,NA,533850.69999886,NA,NA,533846.59999847,533850.89999962,2023-03-17T11:56:58Z,533856.173,NULL,Notfall,dharura,d,NA,NA,NA,NA,sdf,NA,0,NA,NA,NA,NA,NA,NA,NA,NA,NA,NA,NA,NA,NA,NA,NA,NA,NA,NA,NA
fcd50,"""Falsch""-Screen",canvas.Screen,3_0_0_0_4_0_2,NA,NA,timeout,4996.5020000001,533851.79999924,533840.162,533856.173,538835.812,538837.29999924,2023-03-17T11:57:03Z,538852.675,NULL,Notfall,dharura,d,NA,NA,NA,NA,sdf,0,0,NA,NA,NA,NA,NA,NA,NA,NA,NA,NA,NA,NA,NA,NA,NA,NA,NA,NA,NA
fcd50,deep,flow.Sequence,3_0_0_0_4_0,NA,NA,completion,14088.646,524734,524731.117,524747.166,538835.812,538837.59999847,2023-03-17T11:57:03Z,538852.675,NULL,Notfall,dharura,d,NA,NA,NA,NA,sdf,NA,0,NA,NA,NA,NA,NA,NA,NA,NA,NA,NA,NA,NA,NA,NA,NA,NA,NA,NA,NA
fcd50,shallow,flow.Sequence,3_0_0_0_4_1,NA,NA,skipped,NA,538837.69999886,NA,NA,538835.812,538837.89999962,2023-03-17T11:57:03Z,538852.675,NULL,Notfall,dharura,d,NA,NA,NA,NA,sdf,NA,0,NA,NA,NA,NA,NA,NA,NA,NA,NA,NA,NA,NA,NA,NA,NA,NA,NA,NA,NA
fcd50,task,flow.Sequence,3_0_0_0_4,NA,NA,completion,14088.646,524734,524731.117,524747.166,538835.812,538838,2023-03-17T11:57:03Z,538852.675,NULL,Notfall,dharura,d,NA,NA,NA,NA,sdf,NA,0,NA,NA,NA,NA,NA,NA,NA,NA,NA,NA,NA,NA,NA,NA,NA,NA,NA,NA,NA
fcd50,deep,flow.Sequence,3_0_0_0_5_0,NA,NA,skipped,NA,538838.09999847,NA,NA,538835.812,538838.19999886,2023-03-17T11:57:03Z,538852.675,NULL,Ergänzung,kijalizo,s,ulaghai,mustarehe,matangazo,NA,sdf,NA,0,NA,NA,NA,NA,NA,NA,NA,NA,NA,NA,NA,NA,NA,NA,NA,NA,NA,NA,NA
fcd50,Shallow Question,html.Page,3_0_0_0_5_1_0,NA,NA,form submission,10514.825,538838.29999924,538835.812,538852.675,549367.5,549367.79999924,2023-03-17T11:57:13Z,549376.784,NULL,Ergänzung,kijalizo,s,ulaghai,mustarehe,matangazo,ulaghai,NA,NA,0,NA,NA,NA,NA,NA,NA,NA,NA,NA,NA,NA,NA,NA,NA,NA,NA,NA,NA,NA
fcd50,"""Richtig""-Screen",canvas.Screen,3_0_0_0_5_1_1,NA,NA,skipped,NA,549369.59999847,NA,NA,549367.5,549369.79999924,2023-03-17T11:57:13Z,549376.784,NULL,Ergänzung,kijalizo,s,ulaghai,mustarehe,matangazo,NA,sdf,NA,0,NA,NA,NA,NA,NA,NA,NA,NA,NA,NA,NA,NA,NA,NA,NA,NA,NA,NA,NA
fcd50,"""Falsch""-Screen",canvas.Screen,3_0_0_0_5_1_2,NA,NA,timeout,4996.368,549370.39999962,549360.261,549376.784,554356.194,554358.89999962,2023-03-17T11:57:18Z,554373.152,NULL,Ergänzung,kijalizo,s,ulaghai,mustarehe,matangazo,NA,sdf,0,0,NA,NA,NA,NA,NA,NA,NA,NA,NA,NA,NA,NA,NA,NA,NA,NA,NA,NA,NA
fcd50,shallow,flow.Sequence,3_0_0_0_5_1,NA,NA,completion,15503.519,538838.29999924,538835.812,538852.675,554356.194,554359.39999962,2023-03-17T11:57:18Z,554373.152,NULL,Ergänzung,kijalizo,s,ulaghai,mustarehe,matangazo,NA,sdf,NA,0,NA,NA,NA,NA,NA,NA,NA,NA,NA,NA,NA,NA,NA,NA,NA,NA,NA,NA,NA
fcd50,task,flow.Sequence,3_0_0_0_5,NA,NA,completion,15503.519,538838.09999847,538835.812,538852.675,554356.194,554359.59999847,2023-03-17T11:57:18Z,554373.152,NULL,Ergänzung,kijalizo,s,ulaghai,mustarehe,matangazo,NA,sdf,NA,0,NA,NA,NA,NA,NA,NA,NA,NA,NA,NA,NA,NA,NA,NA,NA,NA,NA,NA,NA
fcd50,Deep Question,html.Page,3_0_0_0_6_0_0,NA,NA,form submission,8754.348,554359.89999962,554356.194,554373.152,563127.5,563127.59999847,2023-03-17T11:57:27Z,563132.169,NULL,Gelegenheit,wakati,d,NA,NA,NA,kuwahge,NA,NA,0,NA,NA,NA,NA,NA,NA,NA,NA,NA,NA,NA,NA,NA,NA,NA,NA,NA,NA,NA
fcd50,"""Richtig""-Screen",canvas.Screen,3_0_0_0_6_0_1,NA,NA,skipped,NA,563130.39999962,NA,NA,563127.5,563130.59999847,2023-03-17T11:57:27Z,563132.169,NULL,Gelegenheit,wakati,d,NA,NA,NA,NA,sdf,NA,0,NA,NA,NA,NA,NA,NA,NA,NA,NA,NA,NA,NA,NA,NA,NA,NA,NA,NA,NA
fcd50,"""Falsch""-Screen",canvas.Screen,3_0_0_0_6_0_2,NA,NA,timeout,4996.512,563131.29999924,563115.572,563132.169,568112.154,568113.29999924,2023-03-17T11:57:32Z,568128.681,NULL,Gelegenheit,wakati,d,NA,NA,NA,NA,sdf,0,0,NA,NA,NA,NA,NA,NA,NA,NA,NA,NA,NA,NA,NA,NA,NA,NA,NA,NA,NA
fcd50,deep,flow.Sequence,3_0_0_0_6_0,NA,NA,completion,13739.002,554359.89999962,554356.194,554373.152,568112.154,568113.79999924,2023-03-17T11:57:32Z,568128.681,NULL,Gelegenheit,wakati,d,NA,NA,NA,NA,sdf,NA,0,NA,NA,NA,NA,NA,NA,NA,NA,NA,NA,NA,NA,NA,NA,NA,NA,NA,NA,NA
fcd50,shallow,flow.Sequence,3_0_0_0_6_1,NA,NA,skipped,NA,568114,NA,NA,568112.154,568114.29999924,2023-03-17T11:57:32Z,568128.681,NULL,Gelegenheit,wakati,d,NA,NA,NA,NA,sdf,NA,0,NA,NA,NA,NA,NA,NA,NA,NA,NA,NA,NA,NA,NA,NA,NA,NA,NA,NA,NA
fcd50,task,flow.Sequence,3_0_0_0_6,NA,NA,completion,13739.002,554359.79999924,554356.194,554373.152,568112.154,568114.69999886,2023-03-17T11:57:32Z,568128.681,NULL,Gelegenheit,wakati,d,NA,NA,NA,NA,sdf,NA,0,NA,NA,NA,NA,NA,NA,NA,NA,NA,NA,NA,NA,NA,NA,NA,NA,NA,NA,NA
fcd50,deep,flow.Sequence,3_0_0_0_7_0,NA,NA,skipped,NA,568114.89999962,NA,NA,568112.154,568115.09999847,2023-03-17T11:57:32Z,568128.681,NULL,Widerstand,usulubu,s,kusababisha,mwalimu,mwenendo,NA,sdf,NA,0,NA,NA,NA,NA,NA,NA,NA,NA,NA,NA,NA,NA,NA,NA,NA,NA,NA,NA,NA
fcd50,Shallow Question,html.Page,3_0_0_0_7_1_0,NA,NA,form submission,10013.218999619,568115.29999924,568112.154,568128.681,578141.89999962,578142.39999962,2023-03-17T11:57:42Z,578153.278,NULL,Widerstand,usulubu,s,kusababisha,mwalimu,mwenendo,kusababisha,NA,NA,0,NA,NA,NA,NA,NA,NA,NA,NA,NA,NA,NA,NA,NA,NA,NA,NA,NA,NA,NA
fcd50,"""Richtig""-Screen",canvas.Screen,3_0_0_0_7_1_1,NA,NA,skipped,NA,578148.5,NA,NA,578141.89999962,578148.89999962,2023-03-17T11:57:42Z,578153.278,NULL,Widerstand,usulubu,s,kusababisha,mwalimu,mwenendo,NA,sdf,NA,0,NA,NA,NA,NA,NA,NA,NA,NA,NA,NA,NA,NA,NA,NA,NA,NA,NA,NA,NA
fcd50,"""Falsch""-Screen",canvas.Screen,3_0_0_0_7_1_2,NA,NA,timeout,4995.8709999999,578150.89999962,578136.54,578153.278,583132.451,583133.09999847,2023-03-17T11:57:47Z,583149.149,NULL,Widerstand,usulubu,s,kusababisha,mwalimu,mwenendo,NA,sdf,0,0,NA,NA,NA,NA,NA,NA,NA,NA,NA,NA,NA,NA,NA,NA,NA,NA,NA,NA,NA
fcd50,shallow,flow.Sequence,3_0_0_0_7_1,NA,NA,completion,15003.77,568115.29999924,568112.154,568128.681,583132.451,583133.19999886,2023-03-17T11:57:47Z,583149.149,NULL,Widerstand,usulubu,s,kusababisha,mwalimu,mwenendo,NA,sdf,NA,0,NA,NA,NA,NA,NA,NA,NA,NA,NA,NA,NA,NA,NA,NA,NA,NA,NA,NA,NA
fcd50,task,flow.Sequence,3_0_0_0_7,NA,NA,completion,15003.77,568114.79999924,568112.154,568128.681,583132.451,583133.29999924,2023-03-17T11:57:47Z,583149.149,NULL,Widerstand,usulubu,s,kusababisha,mwalimu,mwenendo,NA,sdf,NA,0,NA,NA,NA,NA,NA,NA,NA,NA,NA,NA,NA,NA,NA,NA,NA,NA,NA,NA,NA
fcd50,block,flow.Loop,3_0_0_0,NA,NA,completion,114356.215,468774.29999924,468758.897,468776.236,583132.451,583133.39999962,2023-03-17T11:57:47Z,583149.149,NULL,NA,NA,NA,NA,NA,NA,NA,sdf,NA,0,NA,NA,NA,NA,NA,NA,NA,NA,NA,NA,NA,NA,NA,NA,NA,NA,NA,NA,NA
fcd50,weiter,canvas.Screen,3_0_0_1,sdf,keypress(Space),response,1636.1509992371,583133.5,583132.451,583149.149,584785.29999924,584786.39999962,2023-03-17T11:57:49Z,584831.807,NULL,NA,NA,NA,NA,NA,NA,NA,sdf,NA,0,NA,NA,NA,NA,NA,NA,NA,NA,NA,NA,NA,NA,NA,NA,NA,NA,NA,NA,NA
fcd50,check continue,flow.Sequence,3_0_0,NA,NA,completion,116009.06399924,468774.29999924,468758.897,468776.236,584785.29999924,584786.79999924,2023-03-17T11:57:49Z,584831.807,NULL,NA,NA,NA,NA,NA,NA,NA,sdf,NA,0,NA,NA,NA,NA,NA,NA,NA,NA,NA,NA,NA,NA,NA,NA,NA,NA,NA,NA,NA
fcd50,deep,flow.Sequence,3_0_1_0_0_0,NA,NA,skipped,NA,584816.09999847,NA,NA,584785.29999924,584816.19999886,2023-03-17T11:57:49Z,584831.807,NULL,Ergänzung,kijalizo,s,ulaghai,mustarehe,matangazo,NA,sdfdsf,NA,1,NA,NA,NA,NA,NA,NA,NA,NA,NA,NA,NA,NA,NA,NA,NA,NA,NA,NA,NA
fcd50,Shallow Question,html.Page,3_0_1_0_0_1_0,NA,NA,form submission,14502.693,584816.29999924,584814.285,584831.807,599334.5,599334.69999886,2023-03-17T11:58:03Z,599335.801,NULL,Ergänzung,kijalizo,s,ulaghai,mustarehe,matangazo,kijalizo,NA,NA,1,NA,NA,NA,NA,NA,NA,NA,NA,NA,NA,NA,NA,NA,NA,NA,NA,NA,NA,NA
fcd50,"""Richtig""-Screen",canvas.Screen,3_0_1_0_0_1_1,NA,NA,timeout,4995.97,599336.79999924,599319.795,599335.801,604315.394,604316.59999847,2023-03-17T11:58:08Z,604331.771,NULL,Ergänzung,kijalizo,s,ulaghai,mustarehe,matangazo,NA,sdfdsf,1,1,NA,NA,NA,NA,NA,NA,NA,NA,NA,NA,NA,NA,NA,NA,NA,NA,NA,NA,NA
fcd50,"""Falsch""-Screen",canvas.Screen,3_0_1_0_0_1_2,NA,NA,skipped,NA,604322.69999886,NA,NA,604315.394,604323.09999847,2023-03-17T11:58:08Z,604331.771,NULL,Ergänzung,kijalizo,s,ulaghai,mustarehe,matangazo,NA,sdfdsf,NA,1,NA,NA,NA,NA,NA,NA,NA,NA,NA,NA,NA,NA,NA,NA,NA,NA,NA,NA,NA
fcd50,shallow,flow.Sequence,3_0_1_0_0_1,NA,NA,completion,19483.587,584816.19999886,584814.285,584831.807,604315.394,604323.39999962,2023-03-17T11:58:08Z,604331.771,NULL,Ergänzung,kijalizo,s,ulaghai,mustarehe,matangazo,NA,sdfdsf,NA,1,NA,NA,NA,NA,NA,NA,NA,NA,NA,NA,NA,NA,NA,NA,NA,NA,NA,NA,NA
fcd50,task,flow.Sequence,3_0_1_0_0,NA,NA,completion,19483.587,584816,584814.285,584831.807,604315.394,604323.69999886,2023-03-17T11:58:08Z,604331.771,NULL,Ergänzung,kijalizo,s,ulaghai,mustarehe,matangazo,NA,sdfdsf,NA,1,NA,NA,NA,NA,NA,NA,NA,NA,NA,NA,NA,NA,NA,NA,NA,NA,NA,NA,NA
fcd50,deep,flow.Sequence,3_0_1_0_1_0,NA,NA,skipped,NA,604323.89999962,NA,NA,604315.394,604324.09999847,2023-03-17T11:58:08Z,604331.771,NULL,Verstand,ufahamivu,s,shakawa,hadhari,mhandisi,NA,sdfdsf,NA,1,NA,NA,NA,NA,NA,NA,NA,NA,NA,NA,NA,NA,NA,NA,NA,NA,NA,NA,NA
fcd50,Shallow Question,html.Page,3_0_1_0_1_1_0,NA,NA,form submission,8860.2290000001,604324.29999924,604315.394,604331.771,613192,613192.09999847,2023-03-17T11:58:17Z,613207.789,NULL,Verstand,ufahamivu,s,shakawa,hadhari,mhandisi,ufahamivu,NA,NA,1,NA,NA,NA,NA,NA,NA,NA,NA,NA,NA,NA,NA,NA,NA,NA,NA,NA,NA,NA
fcd50,"""Richtig""-Screen",canvas.Screen,3_0_1_0_1_1_1,NA,NA,timeout,4996.5480000001,613194.19999886,613175.01,613207.789,618187.227,618189.69999886,2023-03-17T11:58:22Z,618204.337,NULL,Verstand,ufahamivu,s,shakawa,hadhari,mhandisi,NA,sdfdsf,1,1,NA,NA,NA,NA,NA,NA,NA,NA,NA,NA,NA,NA,NA,NA,NA,NA,NA,NA,NA
fcd50,"""Falsch""-Screen",canvas.Screen,3_0_1_0_1_1_2,NA,NA,skipped,NA,618194.69999886,NA,NA,618187.227,618194.89999962,2023-03-17T11:58:22Z,618204.337,NULL,Verstand,ufahamivu,s,shakawa,hadhari,mhandisi,NA,sdfdsf,NA,1,NA,NA,NA,NA,NA,NA,NA,NA,NA,NA,NA,NA,NA,NA,NA,NA,NA,NA,NA
fcd50,shallow,flow.Sequence,3_0_1_0_1_1,NA,NA,completion,13855.456,604324.19999886,604315.394,604331.771,618187.227,618195,2023-03-17T11:58:22Z,618204.337,NULL,Verstand,ufahamivu,s,shakawa,hadhari,mhandisi,NA,sdfdsf,NA,1,NA,NA,NA,NA,NA,NA,NA,NA,NA,NA,NA,NA,NA,NA,NA,NA,NA,NA,NA
fcd50,task,flow.Sequence,3_0_1_0_1,NA,NA,completion,13855.456,604323.79999924,604315.394,604331.771,618187.227,618195.09999847,2023-03-17T11:58:22Z,618204.337,NULL,Verstand,ufahamivu,s,shakawa,hadhari,mhandisi,NA,sdfdsf,NA,1,NA,NA,NA,NA,NA,NA,NA,NA,NA,NA,NA,NA,NA,NA,NA,NA,NA,NA,NA
fcd50,Deep Question,html.Page,3_0_1_0_2_0_0,NA,NA,form submission,14112.062999618,618195.19999886,618187.227,618204.337,632316.39999962,632316.89999962,2023-03-17T11:58:36Z,632325.416,NULL,Vergnügen,kichekesho,d,NA,NA,NA,kafaki,NA,NA,1,NA,NA,NA,NA,NA,NA,NA,NA,NA,NA,NA,NA,NA,NA,NA,NA,NA,NA,NA
fcd50,"""Richtig""-Screen",canvas.Screen,3_0_1_0_2_0_1,NA,NA,skipped,NA,632321.19999886,NA,NA,632316.39999962,632321.29999924,2023-03-17T11:58:36Z,632325.416,NULL,Vergnügen,kichekesho,d,NA,NA,NA,NA,sdfdsf,NA,1,NA,NA,NA,NA,NA,NA,NA,NA,NA,NA,NA,NA,NA,NA,NA,NA,NA,NA,NA
fcd50,"""Falsch""-Screen",canvas.Screen,3_0_1_0_2_0_2,NA,NA,timeout,4996.598,632322,632309.055,632325.416,637304.8,637305.89999962,2023-03-17T11:58:41Z,637322.014,NULL,Vergnügen,kichekesho,d,NA,NA,NA,NA,sdfdsf,0,1,NA,NA,NA,NA,NA,NA,NA,NA,NA,NA,NA,NA,NA,NA,NA,NA,NA,NA,NA
fcd50,deep,flow.Sequence,3_0_1_0_2_0,NA,NA,completion,19100.463,618195.09999847,618187.227,618204.337,637304.8,637306.39999962,2023-03-17T11:58:41Z,637322.014,NULL,Vergnügen,kichekesho,d,NA,NA,NA,NA,sdfdsf,NA,1,NA,NA,NA,NA,NA,NA,NA,NA,NA,NA,NA,NA,NA,NA,NA,NA,NA,NA,NA
fcd50,shallow,flow.Sequence,3_0_1_0_2_1,NA,NA,skipped,NA,637306.59999847,NA,NA,637304.8,637306.89999962,2023-03-17T11:58:41Z,637322.014,NULL,Vergnügen,kichekesho,d,NA,NA,NA,NA,sdfdsf,NA,1,NA,NA,NA,NA,NA,NA,NA,NA,NA,NA,NA,NA,NA,NA,NA,NA,NA,NA,NA
fcd50,task,flow.Sequence,3_0_1_0_2,NA,NA,completion,19100.463,618195.09999847,618187.227,618204.337,637304.8,637307.09999847,2023-03-17T11:58:41Z,637322.014,NULL,Vergnügen,kichekesho,d,NA,NA,NA,NA,sdfdsf,NA,1,NA,NA,NA,NA,NA,NA,NA,NA,NA,NA,NA,NA,NA,NA,NA,NA,NA,NA,NA
fcd50,Deep Question,html.Page,3_0_1_0_3_0_0,NA,NA,form submission,22256.085998474,637307.39999962,637304.8,637322.014,659578.09999847,659578.29999924,2023-03-17T11:59:03Z,659586.403,NULL,Notfall,dharura,d,NA,NA,NA,waahr,NA,NA,1,NA,NA,NA,NA,NA,NA,NA,NA,NA,NA,NA,NA,NA,NA,NA,NA,NA,NA,NA
fcd50,"""Richtig""-Screen",canvas.Screen,3_0_1_0_3_0_1,NA,NA,skipped,NA,659580.59999847,NA,NA,659578.09999847,659580.79999924,2023-03-17T11:59:03Z,659586.403,NULL,Notfall,dharura,d,NA,NA,NA,NA,sdfdsf,NA,1,NA,NA,NA,NA,NA,NA,NA,NA,NA,NA,NA,NA,NA,NA,NA,NA,NA,NA,NA
fcd50,"""Falsch""-Screen",canvas.Screen,3_0_1_0_3_0_2,NA,NA,timeout,4996.4939999999,659581.69999886,659569.77,659586.403,664566.08,664568.39999962,2023-03-17T11:59:08Z,664582.897,NULL,Notfall,dharura,d,NA,NA,NA,NA,sdfdsf,0,1,NA,NA,NA,NA,NA,NA,NA,NA,NA,NA,NA,NA,NA,NA,NA,NA,NA,NA,NA
fcd50,deep,flow.Sequence,3_0_1_0_3_0,NA,NA,completion,27244.066,637307.39999962,637304.8,637322.014,664566.08,664568.59999847,2023-03-17T11:59:08Z,664582.897,NULL,Notfall,dharura,d,NA,NA,NA,NA,sdfdsf,NA,1,NA,NA,NA,NA,NA,NA,NA,NA,NA,NA,NA,NA,NA,NA,NA,NA,NA,NA,NA
fcd50,shallow,flow.Sequence,3_0_1_0_3_1,NA,NA,skipped,NA,664568.79999924,NA,NA,664566.08,664568.79999924,2023-03-17T11:59:08Z,664582.897,NULL,Notfall,dharura,d,NA,NA,NA,NA,sdfdsf,NA,1,NA,NA,NA,NA,NA,NA,NA,NA,NA,NA,NA,NA,NA,NA,NA,NA,NA,NA,NA
fcd50,task,flow.Sequence,3_0_1_0_3,NA,NA,completion,27244.066,637307.29999924,637304.8,637322.014,664566.08,664568.89999962,2023-03-17T11:59:08Z,664582.897,NULL,Notfall,dharura,d,NA,NA,NA,NA,sdfdsf,NA,1,NA,NA,NA,NA,NA,NA,NA,NA,NA,NA,NA,NA,NA,NA,NA,NA,NA,NA,NA
fcd50,deep,flow.Sequence,3_0_1_0_4_0,NA,NA,skipped,NA,664569,NA,NA,664566.08,664569,2023-03-17T11:59:08Z,664582.897,NULL,Wohlstand,mafanikio,s,chimbuko,kumbuko,mapwaji,NA,sdfdsf,NA,1,NA,NA,NA,NA,NA,NA,NA,NA,NA,NA,NA,NA,NA,NA,NA,NA,NA,NA,NA
fcd50,Shallow Question,html.Page,3_0_1_0_4_1_0,NA,NA,form submission,11362.402999237,664569.09999847,664566.08,664582.897,675945.29999924,675945.59999847,2023-03-17T11:59:20Z,675956.332,NULL,Wohlstand,mafanikio,s,chimbuko,kumbuko,mapwaji,kumbuko,NA,NA,1,NA,NA,NA,NA,NA,NA,NA,NA,NA,NA,NA,NA,NA,NA,NA,NA,NA,NA,NA
fcd50,"""Richtig""-Screen",canvas.Screen,3_0_1_0_4_1_1,NA,NA,skipped,NA,675947.5,NA,NA,675945.29999924,675947.69999886,2023-03-17T11:59:20Z,675956.332,NULL,Wohlstand,mafanikio,s,chimbuko,kumbuko,mapwaji,NA,sdfdsf,NA,1,NA,NA,NA,NA,NA,NA,NA,NA,NA,NA,NA,NA,NA,NA,NA,NA,NA,NA,NA
fcd50,"""Falsch""-Screen",canvas.Screen,3_0_1_0_4_1_2,NA,NA,timeout,4995.9759999999,675948.29999924,675939.781,675956.332,680935.538,680936,2023-03-17T11:59:25Z,680952.308,NULL,Wohlstand,mafanikio,s,chimbuko,kumbuko,mapwaji,NA,sdfdsf,0,1,NA,NA,NA,NA,NA,NA,NA,NA,NA,NA,NA,NA,NA,NA,NA,NA,NA,NA,NA
fcd50,shallow,flow.Sequence,3_0_1_0_4_1,NA,NA,completion,16352.641,664569.09999847,664566.08,664582.897,680935.538,680936.09999847,2023-03-17T11:59:25Z,680952.308,NULL,Wohlstand,mafanikio,s,chimbuko,kumbuko,mapwaji,NA,sdfdsf,NA,1,NA,NA,NA,NA,NA,NA,NA,NA,NA,NA,NA,NA,NA,NA,NA,NA,NA,NA,NA
fcd50,task,flow.Sequence,3_0_1_0_4,NA,NA,completion,16352.641,664569,664566.08,664582.897,680935.538,680936.19999886,2023-03-17T11:59:25Z,680952.308,NULL,Wohlstand,mafanikio,s,chimbuko,kumbuko,mapwaji,NA,sdfdsf,NA,1,NA,NA,NA,NA,NA,NA,NA,NA,NA,NA,NA,NA,NA,NA,NA,NA,NA,NA,NA
fcd50,deep,flow.Sequence,3_0_1_0_5_0,NA,NA,skipped,NA,680936.29999924,NA,NA,680935.538,680936.29999924,2023-03-17T11:59:25Z,680952.308,NULL,Widerstand,usulubu,s,kusababisha,mwalimu,mwenendo,NA,sdfdsf,NA,1,NA,NA,NA,NA,NA,NA,NA,NA,NA,NA,NA,NA,NA,NA,NA,NA,NA,NA,NA
fcd50,Shallow Question,html.Page,3_0_1_0_5_1_0,NA,NA,form submission,4585.5919996186,680936.5,680935.538,680952.308,685537.89999962,685538.39999962,2023-03-17T11:59:29Z,685548.513,NULL,Widerstand,usulubu,s,kusababisha,mwalimu,mwenendo,usulubu,NA,NA,1,NA,NA,NA,NA,NA,NA,NA,NA,NA,NA,NA,NA,NA,NA,NA,NA,NA,NA,NA
fcd50,"""Richtig""-Screen",canvas.Screen,3_0_1_0_5_1_1,NA,NA,timeout,4995.8319999999,685542.19999886,685531.809,685548.513,690527.665,690529.89999962,2023-03-17T11:59:34Z,690544.345,NULL,Widerstand,usulubu,s,kusababisha,mwalimu,mwenendo,NA,sdfdsf,1,1,NA,NA,NA,NA,NA,NA,NA,NA,NA,NA,NA,NA,NA,NA,NA,NA,NA,NA,NA
fcd50,"""Falsch""-Screen",canvas.Screen,3_0_1_0_5_1_2,NA,NA,skipped,NA,690532.5,NA,NA,690527.665,690532.69999886,2023-03-17T11:59:34Z,690544.345,NULL,Widerstand,usulubu,s,kusababisha,mwalimu,mwenendo,NA,sdfdsf,NA,1,NA,NA,NA,NA,NA,NA,NA,NA,NA,NA,NA,NA,NA,NA,NA,NA,NA,NA,NA
fcd50,shallow,flow.Sequence,3_0_1_0_5_1,NA,NA,completion,9575.3570000001,680936.39999962,680935.538,680952.308,690527.665,690532.79999924,2023-03-17T11:59:34Z,690544.345,NULL,Widerstand,usulubu,s,kusababisha,mwalimu,mwenendo,NA,sdfdsf,NA,1,NA,NA,NA,NA,NA,NA,NA,NA,NA,NA,NA,NA,NA,NA,NA,NA,NA,NA,NA
fcd50,task,flow.Sequence,3_0_1_0_5,NA,NA,completion,9575.3570000001,680936.29999924,680935.538,680952.308,690527.665,690533,2023-03-17T11:59:34Z,690544.345,NULL,Widerstand,usulubu,s,kusababisha,mwalimu,mwenendo,NA,sdfdsf,NA,1,NA,NA,NA,NA,NA,NA,NA,NA,NA,NA,NA,NA,NA,NA,NA,NA,NA,NA,NA
fcd50,Deep Question,html.Page,3_0_1_0_6_0_0,NA,NA,form submission,9105.4549992371,690533.09999847,690527.665,690544.345,699649.79999924,699649.89999962,2023-03-17T11:59:44Z,699653.528,NULL,Gelegenheit,wakati,d,NA,NA,NA,keshilib,NA,NA,1,NA,NA,NA,NA,NA,NA,NA,NA,NA,NA,NA,NA,NA,NA,NA,NA,NA,NA,NA
fcd50,"""Richtig""-Screen",canvas.Screen,3_0_1_0_6_0_1,NA,NA,skipped,NA,699651.79999924,NA,NA,699649.79999924,699652,2023-03-17T11:59:44Z,699653.528,NULL,Gelegenheit,wakati,d,NA,NA,NA,NA,sdfdsf,NA,1,NA,NA,NA,NA,NA,NA,NA,NA,NA,NA,NA,NA,NA,NA,NA,NA,NA,NA,NA
fcd50,"""Falsch""-Screen",canvas.Screen,3_0_1_0_6_0_2,NA,NA,timeout,4995.904,699653.39999962,699636.872,699653.528,704632.782,704633.19999886,2023-03-17T11:59:49Z,704649.432,NULL,Gelegenheit,wakati,d,NA,NA,NA,NA,sdfdsf,0,1,NA,NA,NA,NA,NA,NA,NA,NA,NA,NA,NA,NA,NA,NA,NA,NA,NA,NA,NA
fcd50,deep,flow.Sequence,3_0_1_0_6_0,NA,NA,completion,14088.437,690533.09999847,690527.665,690544.345,704632.782,704633.29999924,2023-03-17T11:59:49Z,704649.432,NULL,Gelegenheit,wakati,d,NA,NA,NA,NA,sdfdsf,NA,1,NA,NA,NA,NA,NA,NA,NA,NA,NA,NA,NA,NA,NA,NA,NA,NA,NA,NA,NA
fcd50,shallow,flow.Sequence,3_0_1_0_6_1,NA,NA,skipped,NA,704633.5,NA,NA,704632.782,704633.5,2023-03-17T11:59:49Z,704649.432,NULL,Gelegenheit,wakati,d,NA,NA,NA,NA,sdfdsf,NA,1,NA,NA,NA,NA,NA,NA,NA,NA,NA,NA,NA,NA,NA,NA,NA,NA,NA,NA,NA
fcd50,task,flow.Sequence,3_0_1_0_6,NA,NA,completion,14088.437,690533,690527.665,690544.345,704632.782,704633.69999886,2023-03-17T11:59:49Z,704649.432,NULL,Gelegenheit,wakati,d,NA,NA,NA,NA,sdfdsf,NA,1,NA,NA,NA,NA,NA,NA,NA,NA,NA,NA,NA,NA,NA,NA,NA,NA,NA,NA,NA
fcd50,Deep Question,html.Page,3_0_1_0_7_0_0,NA,NA,form submission,8019.867999237,704633.89999962,704632.782,704649.432,712669.29999924,712669.59999847,2023-03-17T11:59:57Z,712676.186,NULL,Ausschluss,kutengwa,d,NA,NA,NA,klwak,NA,NA,1,NA,NA,NA,NA,NA,NA,NA,NA,NA,NA,NA,NA,NA,NA,NA,NA,NA,NA,NA
fcd50,"""Richtig""-Screen",canvas.Screen,3_0_1_0_7_0_1,NA,NA,skipped,NA,712671.69999886,NA,NA,712669.29999924,712671.89999962,2023-03-17T11:59:57Z,712676.186,NULL,Ausschluss,kutengwa,d,NA,NA,NA,NA,sdfdsf,NA,1,NA,NA,NA,NA,NA,NA,NA,NA,NA,NA,NA,NA,NA,NA,NA,NA,NA,NA,NA
fcd50,"""Falsch""-Screen",canvas.Screen,3_0_1_0_7_0_2,NA,NA,timeout,4996.363,712672.5,712660.143,712676.186,717655.801,717656.89999962,2023-03-17T12:00:02Z,717672.549,NULL,Ausschluss,kutengwa,d,NA,NA,NA,NA,sdfdsf,0,1,NA,NA,NA,NA,NA,NA,NA,NA,NA,NA,NA,NA,NA,NA,NA,NA,NA,NA,NA
fcd50,deep,flow.Sequence,3_0_1_0_7_0,NA,NA,completion,13006.369,704633.79999924,704632.782,704649.432,717655.801,717657.39999962,2023-03-17T12:00:02Z,717672.549,NULL,Ausschluss,kutengwa,d,NA,NA,NA,NA,sdfdsf,NA,1,NA,NA,NA,NA,NA,NA,NA,NA,NA,NA,NA,NA,NA,NA,NA,NA,NA,NA,NA
fcd50,shallow,flow.Sequence,3_0_1_0_7_1,NA,NA,skipped,NA,717657.69999886,NA,NA,717655.801,717657.79999924,2023-03-17T12:00:02Z,717672.549,NULL,Ausschluss,kutengwa,d,NA,NA,NA,NA,sdfdsf,NA,1,NA,NA,NA,NA,NA,NA,NA,NA,NA,NA,NA,NA,NA,NA,NA,NA,NA,NA,NA
fcd50,task,flow.Sequence,3_0_1_0_7,NA,NA,completion,13006.369,704633.69999886,704632.782,704649.432,717655.801,717658.19999886,2023-03-17T12:00:02Z,717672.549,NULL,Ausschluss,kutengwa,d,NA,NA,NA,NA,sdfdsf,NA,1,NA,NA,NA,NA,NA,NA,NA,NA,NA,NA,NA,NA,NA,NA,NA,NA,NA,NA,NA
fcd50,block,flow.Loop,3_0_1_0,NA,NA,completion,132823.994,584816,584814.285,584831.807,717655.801,717658.59999847,2023-03-17T12:00:02Z,717672.549,NULL,NA,NA,NA,NA,NA,NA,NA,sdfdsf,NA,1,NA,NA,NA,NA,NA,NA,NA,NA,NA,NA,NA,NA,NA,NA,NA,NA,NA,NA,NA
fcd50,weiter,canvas.Screen,3_0_1_1,sdf,keypress(Space),response,1043.5509984741,717658.79999924,717655.801,717672.549,718716.09999847,718716.69999886,2023-03-17T12:00:03Z,718754.544,NULL,NA,NA,NA,NA,NA,NA,NA,sdfdsf,NA,1,NA,NA,NA,NA,NA,NA,NA,NA,NA,NA,NA,NA,NA,NA,NA,NA,NA,NA,NA
fcd50,check continue,flow.Sequence,3_0_1,NA,NA,completion,133884.29299847,584815.89999962,584814.285,584831.807,718716.09999847,718716.79999924,2023-03-17T12:00:03Z,718754.544,NULL,NA,NA,NA,NA,NA,NA,NA,sdfdsf,NA,1,NA,NA,NA,NA,NA,NA,NA,NA,NA,NA,NA,NA,NA,NA,NA,NA,NA,NA,NA
fcd50,deep,flow.Sequence,3_0_2_0_0_0,NA,NA,skipped,NA,718751.5,NA,NA,718716.09999847,718751.59999847,2023-03-17T12:00:03Z,718754.544,NULL,Verstand,ufahamivu,s,shakawa,hadhari,mhandisi,NA,sdf,NA,2,NA,NA,NA,NA,NA,NA,NA,NA,NA,NA,NA,NA,NA,NA,NA,NA,NA,NA,NA
fcd50,Shallow Question,html.Page,3_0_2_0_0_1_0,NA,NA,form submission,6499.1559988556,718751.69999886,718737.811,718754.544,725253.69999886,725253.89999962,2023-03-17T12:00:09Z,725265.949,NULL,Verstand,ufahamivu,s,shakawa,hadhari,mhandisi,ufahamivu,NA,NA,2,NA,NA,NA,NA,NA,NA,NA,NA,NA,NA,NA,NA,NA,NA,NA,NA,NA,NA,NA
fcd50,"""Richtig""-Screen",canvas.Screen,3_0_2_0_0_1_1,NA,NA,timeout,4995.888,725256.09999847,725249.237,725265.949,730245.112,730245.5,2023-03-17T12:00:14Z,730261.837,NULL,Verstand,ufahamivu,s,shakawa,hadhari,mhandisi,NA,sdf,1,2,NA,NA,NA,NA,NA,NA,NA,NA,NA,NA,NA,NA,NA,NA,NA,NA,NA,NA,NA
fcd50,"""Falsch""-Screen",canvas.Screen,3_0_2_0_0_1_2,NA,NA,skipped,NA,730247.79999924,NA,NA,730245.112,730247.89999962,2023-03-17T12:00:14Z,730261.837,NULL,Verstand,ufahamivu,s,shakawa,hadhari,mhandisi,NA,sdf,NA,2,NA,NA,NA,NA,NA,NA,NA,NA,NA,NA,NA,NA,NA,NA,NA,NA,NA,NA,NA
fcd50,shallow,flow.Sequence,3_0_2_0_0_1,NA,NA,completion,11490.568,718751.59999847,718737.811,718754.544,730245.112,730248.09999847,2023-03-17T12:00:14Z,730261.837,NULL,Verstand,ufahamivu,s,shakawa,hadhari,mhandisi,NA,sdf,NA,2,NA,NA,NA,NA,NA,NA,NA,NA,NA,NA,NA,NA,NA,NA,NA,NA,NA,NA,NA
fcd50,task,flow.Sequence,3_0_2_0_0,NA,NA,completion,11490.568,718751.5,718737.811,718754.544,730245.112,730248.29999924,2023-03-17T12:00:14Z,730261.837,NULL,Verstand,ufahamivu,s,shakawa,hadhari,mhandisi,NA,sdf,NA,2,NA,NA,NA,NA,NA,NA,NA,NA,NA,NA,NA,NA,NA,NA,NA,NA,NA,NA,NA
fcd50,Deep Question,html.Page,3_0_2_0_1_0_0,NA,NA,form submission,10836.663,730248.39999962,730245.112,730261.837,741098.5,741098.89999962,2023-03-17T12:00:25Z,741102.914,NULL,Ausschluss,kutengwa,d,NA,NA,NA,uefka,NA,NA,2,NA,NA,NA,NA,NA,NA,NA,NA,NA,NA,NA,NA,NA,NA,NA,NA,NA,NA,NA
fcd50,"""Richtig""-Screen",canvas.Screen,3_0_2_0_1_0_1,NA,NA,skipped,NA,741106.79999924,NA,NA,741098.5,741107.19999886,2023-03-17T12:00:25Z,741102.914,NULL,Ausschluss,kutengwa,d,NA,NA,NA,NA,sdf,NA,2,NA,NA,NA,NA,NA,NA,NA,NA,NA,NA,NA,NA,NA,NA,NA,NA,NA,NA,NA
fcd50,"""Falsch""-Screen",canvas.Screen,3_0_2_0_1_0_2,NA,NA,timeout,4996.439,741109.29999924,741086.905,741102.914,746082.722,746083.5,2023-03-17T12:00:30Z,746099.353,NULL,Ausschluss,kutengwa,d,NA,NA,NA,NA,sdf,0,2,NA,NA,NA,NA,NA,NA,NA,NA,NA,NA,NA,NA,NA,NA,NA,NA,NA,NA,NA
fcd50,deep,flow.Sequence,3_0_2_0_1_0,NA,NA,completion,15820.885,730248.39999962,730245.112,730261.837,746082.722,746083.79999924,2023-03-17T12:00:30Z,746099.353,NULL,Ausschluss,kutengwa,d,NA,NA,NA,NA,sdf,NA,2,NA,NA,NA,NA,NA,NA,NA,NA,NA,NA,NA,NA,NA,NA,NA,NA,NA,NA,NA
fcd50,shallow,flow.Sequence,3_0_2_0_1_1,NA,NA,skipped,NA,746084,NA,NA,746082.722,746084.09999847,2023-03-17T12:00:30Z,746099.353,NULL,Ausschluss,kutengwa,d,NA,NA,NA,NA,sdf,NA,2,NA,NA,NA,NA,NA,NA,NA,NA,NA,NA,NA,NA,NA,NA,NA,NA,NA,NA,NA
fcd50,task,flow.Sequence,3_0_2_0_1,NA,NA,completion,15820.885,730248.29999924,730245.112,730261.837,746082.722,746084.29999924,2023-03-17T12:00:30Z,746099.353,NULL,Ausschluss,kutengwa,d,NA,NA,NA,NA,sdf,NA,2,NA,NA,NA,NA,NA,NA,NA,NA,NA,NA,NA,NA,NA,NA,NA,NA,NA,NA,NA
fcd50,deep,flow.Sequence,3_0_2_0_2_0,NA,NA,skipped,NA,746084.5,NA,NA,746082.722,746084.5,2023-03-17T12:00:30Z,746099.353,NULL,Wohlstand,mafanikio,s,chimbuko,kumbuko,mapwaji,NA,sdf,NA,2,NA,NA,NA,NA,NA,NA,NA,NA,NA,NA,NA,NA,NA,NA,NA,NA,NA,NA,NA
fcd50,Shallow Question,html.Page,3_0_2_0_2_1_0,NA,NA,form submission,4513.3469988556,746084.59999847,746082.722,746099.353,750612.69999886,750612.89999962,2023-03-17T12:00:35Z,750628.997,NULL,Wohlstand,mafanikio,s,chimbuko,kumbuko,mapwaji,mafanikio,NA,NA,2,NA,NA,NA,NA,NA,NA,NA,NA,NA,NA,NA,NA,NA,NA,NA,NA,NA,NA,NA
fcd50,"""Richtig""-Screen",canvas.Screen,3_0_2_0_2_1_1,NA,NA,timeout,4995.295,750614.69999886,750611.774,750628.997,755607.632,755608.19999886,2023-03-17T12:00:40Z,755624.292,NULL,Wohlstand,mafanikio,s,chimbuko,kumbuko,mapwaji,NA,sdf,1,2,NA,NA,NA,NA,NA,NA,NA,NA,NA,NA,NA,NA,NA,NA,NA,NA,NA,NA,NA
fcd50,"""Falsch""-Screen",canvas.Screen,3_0_2_0_2_1_2,NA,NA,skipped,NA,755610.79999924,NA,NA,755607.632,755610.89999962,2023-03-17T12:00:40Z,755624.292,NULL,Wohlstand,mafanikio,s,chimbuko,kumbuko,mapwaji,NA,sdf,NA,2,NA,NA,NA,NA,NA,NA,NA,NA,NA,NA,NA,NA,NA,NA,NA,NA,NA,NA,NA
fcd50,shallow,flow.Sequence,3_0_2_0_2_1,NA,NA,completion,9508.279,746084.59999847,746082.722,746099.353,755607.632,755611.09999847,2023-03-17T12:00:40Z,755624.292,NULL,Wohlstand,mafanikio,s,chimbuko,kumbuko,mapwaji,NA,sdf,NA,2,NA,NA,NA,NA,NA,NA,NA,NA,NA,NA,NA,NA,NA,NA,NA,NA,NA,NA,NA
fcd50,task,flow.Sequence,3_0_2_0_2,NA,NA,completion,9508.279,746084.39999962,746082.722,746099.353,755607.632,755611.09999847,2023-03-17T12:00:40Z,755624.292,NULL,Wohlstand,mafanikio,s,chimbuko,kumbuko,mapwaji,NA,sdf,NA,2,NA,NA,NA,NA,NA,NA,NA,NA,NA,NA,NA,NA,NA,NA,NA,NA,NA,NA,NA
fcd50,deep,flow.Sequence,3_0_2_0_3_0,NA,NA,skipped,NA,755611.29999924,NA,NA,755607.632,755611.29999924,2023-03-17T12:00:40Z,755624.292,NULL,Widerstand,usulubu,s,kusababisha,mwalimu,mwenendo,NA,sdf,NA,2,NA,NA,NA,NA,NA,NA,NA,NA,NA,NA,NA,NA,NA,NA,NA,NA,NA,NA,NA
fcd50,Shallow Question,html.Page,3_0_2_0_3_1_0,NA,NA,form submission,4192.9079988556005,755611.5,755607.632,755624.292,759817.19999886,759817.79999924,2023-03-17T12:00:44Z,759820.951,NULL,Widerstand,usulubu,s,kusababisha,mwalimu,mwenendo,usulubu,NA,NA,2,NA,NA,NA,NA,NA,NA,NA,NA,NA,NA,NA,NA,NA,NA,NA,NA,NA,NA,NA
fcd50,"""Richtig""-Screen",canvas.Screen,3_0_2_0_3_1_1,NA,NA,timeout,4995.78,759822.29999924,759804.913,759820.951,764800.144,764800.59999847,2023-03-17T12:00:49Z,764816.731,NULL,Widerstand,usulubu,s,kusababisha,mwalimu,mwenendo,NA,sdf,1,2,NA,NA,NA,NA,NA,NA,NA,NA,NA,NA,NA,NA,NA,NA,NA,NA,NA,NA,NA
fcd50,"""Falsch""-Screen",canvas.Screen,3_0_2_0_3_1_2,NA,NA,skipped,NA,764802.5,NA,NA,764800.144,764802.59999847,2023-03-17T12:00:49Z,764816.731,NULL,Widerstand,usulubu,s,kusababisha,mwalimu,mwenendo,NA,sdf,NA,2,NA,NA,NA,NA,NA,NA,NA,NA,NA,NA,NA,NA,NA,NA,NA,NA,NA,NA,NA
fcd50,shallow,flow.Sequence,3_0_2_0_3_1,NA,NA,completion,9175.852,755611.5,755607.632,755624.292,764800.144,764802.69999886,2023-03-17T12:00:49Z,764816.731,NULL,Widerstand,usulubu,s,kusababisha,mwalimu,mwenendo,NA,sdf,NA,2,NA,NA,NA,NA,NA,NA,NA,NA,NA,NA,NA,NA,NA,NA,NA,NA,NA,NA,NA
fcd50,task,flow.Sequence,3_0_2_0_3,NA,NA,completion,9175.852,755611.29999924,755607.632,755624.292,764800.144,764802.79999924,2023-03-17T12:00:49Z,764816.731,NULL,Widerstand,usulubu,s,kusababisha,mwalimu,mwenendo,NA,sdf,NA,2,NA,NA,NA,NA,NA,NA,NA,NA,NA,NA,NA,NA,NA,NA,NA,NA,NA,NA,NA
fcd50,Deep Question,html.Page,3_0_2_0_4_0_0,NA,NA,form submission,6523.9689988556,764803,764800.144,764816.731,771340.69999886,771340.89999962,2023-03-17T12:00:55Z,771344.723,NULL,Gelegenheit,wakati,d,NA,NA,NA,wakati,NA,NA,2,NA,NA,NA,NA,NA,NA,NA,NA,NA,NA,NA,NA,NA,NA,NA,NA,NA,NA,NA
fcd50,"""Richtig""-Screen",canvas.Screen,3_0_2_0_4_0_1,NA,NA,timeout,4995.976,771342.79999924,771328.653,771344.723,776324.41,776325.5,2023-03-17T12:01:00Z,776340.699,NULL,Gelegenheit,wakati,d,NA,NA,NA,NA,sdf,1,2,NA,NA,NA,NA,NA,NA,NA,NA,NA,NA,NA,NA,NA,NA,NA,NA,NA,NA,NA
fcd50,"""Falsch""-Screen",canvas.Screen,3_0_2_0_4_0_2,NA,NA,skipped,NA,776331.29999924,NA,NA,776324.41,776331.69999886,2023-03-17T12:01:00Z,776340.699,NULL,Gelegenheit,wakati,d,NA,NA,NA,NA,sdf,NA,2,NA,NA,NA,NA,NA,NA,NA,NA,NA,NA,NA,NA,NA,NA,NA,NA,NA,NA,NA
fcd50,deep,flow.Sequence,3_0_2_0_4_0,NA,NA,completion,11507.679,764802.89999962,764800.144,764816.731,776324.41,776332.09999847,2023-03-17T12:01:00Z,776340.699,NULL,Gelegenheit,wakati,d,NA,NA,NA,NA,sdf,NA,2,NA,NA,NA,NA,NA,NA,NA,NA,NA,NA,NA,NA,NA,NA,NA,NA,NA,NA,NA
fcd50,shallow,flow.Sequence,3_0_2_0_4_1,NA,NA,skipped,NA,776332.39999962,NA,NA,776324.41,776332.5,2023-03-17T12:01:00Z,776340.699,NULL,Gelegenheit,wakati,d,NA,NA,NA,NA,sdf,NA,2,NA,NA,NA,NA,NA,NA,NA,NA,NA,NA,NA,NA,NA,NA,NA,NA,NA,NA,NA
fcd50,task,flow.Sequence,3_0_2_0_4,NA,NA,completion,11507.679,764802.79999924,764800.144,764816.731,776324.41,776332.79999924,2023-03-17T12:01:00Z,776340.699,NULL,Gelegenheit,wakati,d,NA,NA,NA,NA,sdf,NA,2,NA,NA,NA,NA,NA,NA,NA,NA,NA,NA,NA,NA,NA,NA,NA,NA,NA,NA,NA
fcd50,Deep Question,html.Page,3_0_2_0_5_0_0,NA,NA,form submission,8491.301,776333.09999847,776324.41,776340.699,784832,784832.5,2023-03-17T12:01:09Z,784833.754,NULL,Vergnügen,kichekesho,d,NA,NA,NA,kengwot,NA,NA,2,NA,NA,NA,NA,NA,NA,NA,NA,NA,NA,NA,NA,NA,NA,NA,NA,NA,NA,NA
fcd50,"""Richtig""-Screen",canvas.Screen,3_0_2_0_5_0_1,NA,NA,skipped,NA,784841.29999924,NA,NA,784832,784841.69999886,2023-03-17T12:01:09Z,784833.754,NULL,Vergnügen,kichekesho,d,NA,NA,NA,NA,sdf,NA,2,NA,NA,NA,NA,NA,NA,NA,NA,NA,NA,NA,NA,NA,NA,NA,NA,NA,NA,NA
fcd50,"""Falsch""-Screen",canvas.Screen,3_0_2_0_5_0_2,NA,NA,timeout,4995.8810000001,784845.19999886,784817.025,784833.754,789812.921,789813.29999924,2023-03-17T12:01:14Z,789829.635,NULL,Vergnügen,kichekesho,d,NA,NA,NA,NA,sdf,0,2,NA,NA,NA,NA,NA,NA,NA,NA,NA,NA,NA,NA,NA,NA,NA,NA,NA,NA,NA
fcd50,deep,flow.Sequence,3_0_2_0_5_0,NA,NA,completion,13472.222,776333,776324.41,776340.699,789812.921,789813.5,2023-03-17T12:01:14Z,789829.635,NULL,Vergnügen,kichekesho,d,NA,NA,NA,NA,sdf,NA,2,NA,NA,NA,NA,NA,NA,NA,NA,NA,NA,NA,NA,NA,NA,NA,NA,NA,NA,NA
fcd50,shallow,flow.Sequence,3_0_2_0_5_1,NA,NA,skipped,NA,789813.5,NA,NA,789812.921,789813.69999886,2023-03-17T12:01:14Z,789829.635,NULL,Vergnügen,kichekesho,d,NA,NA,NA,NA,sdf,NA,2,NA,NA,NA,NA,NA,NA,NA,NA,NA,NA,NA,NA,NA,NA,NA,NA,NA,NA,NA
fcd50,task,flow.Sequence,3_0_2_0_5,NA,NA,completion,13472.222,776332.89999962,776324.41,776340.699,789812.921,789813.79999924,2023-03-17T12:01:14Z,789829.635,NULL,Vergnügen,kichekesho,d,NA,NA,NA,NA,sdf,NA,2,NA,NA,NA,NA,NA,NA,NA,NA,NA,NA,NA,NA,NA,NA,NA,NA,NA,NA,NA
fcd50,deep,flow.Sequence,3_0_2_0_6_0,NA,NA,skipped,NA,789813.89999962,NA,NA,789812.921,789814,2023-03-17T12:01:14Z,789829.635,NULL,Ergänzung,kijalizo,s,ulaghai,mustarehe,matangazo,NA,sdf,NA,2,NA,NA,NA,NA,NA,NA,NA,NA,NA,NA,NA,NA,NA,NA,NA,NA,NA,NA,NA
fcd50,Shallow Question,html.Page,3_0_2_0_6_1_0,NA,NA,form submission,5469.2649996185,789814,789812.921,789829.635,795298.89999962,795299.5,2023-03-17T12:01:19Z,795308.477,NULL,Ergänzung,kijalizo,s,ulaghai,mustarehe,matangazo,ulaghai,NA,NA,2,NA,NA,NA,NA,NA,NA,NA,NA,NA,NA,NA,NA,NA,NA,NA,NA,NA,NA,NA
fcd50,"""Richtig""-Screen",canvas.Screen,3_0_2_0_6_1_1,NA,NA,skipped,NA,795308,NA,NA,795298.89999962,795308.79999924,2023-03-17T12:01:19Z,795308.477,NULL,Ergänzung,kijalizo,s,ulaghai,mustarehe,matangazo,NA,sdf,NA,2,NA,NA,NA,NA,NA,NA,NA,NA,NA,NA,NA,NA,NA,NA,NA,NA,NA,NA,NA
fcd50,"""Falsch""-Screen",canvas.Screen,3_0_2_0_6_1_2,NA,NA,timeout,4996.1810000001,795311.69999886,795292.393,795308.477,800288.093,800288.89999962,2023-03-17T12:01:24Z,800304.658,NULL,Ergänzung,kijalizo,s,ulaghai,mustarehe,matangazo,NA,sdf,0,2,NA,NA,NA,NA,NA,NA,NA,NA,NA,NA,NA,NA,NA,NA,NA,NA,NA,NA,NA
fcd50,shallow,flow.Sequence,3_0_2_0_6_1,NA,NA,completion,10458.458,789814,789812.921,789829.635,800288.093,800289.19999886,2023-03-17T12:01:24Z,800304.658,NULL,Ergänzung,kijalizo,s,ulaghai,mustarehe,matangazo,NA,sdf,NA,2,NA,NA,NA,NA,NA,NA,NA,NA,NA,NA,NA,NA,NA,NA,NA,NA,NA,NA,NA
fcd50,task,flow.Sequence,3_0_2_0_6,NA,NA,completion,10458.458,789813.89999962,789812.921,789829.635,800288.093,800289.29999924,2023-03-17T12:01:24Z,800304.658,NULL,Ergänzung,kijalizo,s,ulaghai,mustarehe,matangazo,NA,sdf,NA,2,NA,NA,NA,NA,NA,NA,NA,NA,NA,NA,NA,NA,NA,NA,NA,NA,NA,NA,NA
fcd50,Deep Question,html.Page,3_0_2_0_7_0_0,NA,NA,form submission,6177.7419996185,800289.5,800288.093,800304.658,806482.39999962,806482.69999886,2023-03-17T12:01:30Z,806512.089,NULL,Notfall,dharura,d,NA,NA,NA,kewort,NA,NA,2,NA,NA,NA,NA,NA,NA,NA,NA,NA,NA,NA,NA,NA,NA,NA,NA,NA,NA,NA
fcd50,"""Richtig""-Screen",canvas.Screen,3_0_2_0_7_0_1,NA,NA,skipped,NA,806485.29999924,NA,NA,806482.39999962,806485.5,2023-03-17T12:01:30Z,806512.089,NULL,Notfall,dharura,d,NA,NA,NA,NA,sdf,NA,2,NA,NA,NA,NA,NA,NA,NA,NA,NA,NA,NA,NA,NA,NA,NA,NA,NA,NA,NA
fcd50,"""Falsch""-Screen",canvas.Screen,3_0_2_0_7_0_2,NA,NA,timeout,4999.776,806486.5,806466.57,806512.089,811495.219,811495.89999962,2023-03-17T12:01:35Z,811511.865,NULL,Notfall,dharura,d,NA,NA,NA,NA,sdf,0,2,NA,NA,NA,NA,NA,NA,NA,NA,NA,NA,NA,NA,NA,NA,NA,NA,NA,NA,NA
fcd50,deep,flow.Sequence,3_0_2_0_7_0,NA,NA,completion,11190.561,800289.5,800288.093,800304.658,811495.219,811496.29999924,2023-03-17T12:01:35Z,811511.865,NULL,Notfall,dharura,d,NA,NA,NA,NA,sdf,NA,2,NA,NA,NA,NA,NA,NA,NA,NA,NA,NA,NA,NA,NA,NA,NA,NA,NA,NA,NA
fcd50,shallow,flow.Sequence,3_0_2_0_7_1,NA,NA,skipped,NA,811496.5,NA,NA,811495.219,811496.59999847,2023-03-17T12:01:35Z,811511.865,NULL,Notfall,dharura,d,NA,NA,NA,NA,sdf,NA,2,NA,NA,NA,NA,NA,NA,NA,NA,NA,NA,NA,NA,NA,NA,NA,NA,NA,NA,NA
fcd50,task,flow.Sequence,3_0_2_0_7,NA,NA,completion,11190.561,800289.5,800288.093,800304.658,811495.219,811496.79999924,2023-03-17T12:01:35Z,811511.865,NULL,Notfall,dharura,d,NA,NA,NA,NA,sdf,NA,2,NA,NA,NA,NA,NA,NA,NA,NA,NA,NA,NA,NA,NA,NA,NA,NA,NA,NA,NA
fcd50,block,flow.Loop,3_0_2_0,NA,NA,completion,92740.675,718751.39999962,718737.811,718754.544,811495.219,811497,2023-03-17T12:01:35Z,811511.865,NULL,NA,NA,NA,NA,NA,NA,NA,sdf,NA,2,NA,NA,NA,NA,NA,NA,NA,NA,NA,NA,NA,NA,NA,NA,NA,NA,NA,NA,NA
fcd50,weiter,canvas.Screen,3_0_2_1,sdf,keypress(Space),response,1347.2349984741,811497.19999886,811495.219,811511.865,812859.09999847,812859.59999847,2023-03-17T12:01:37Z,812910.61,NULL,NA,NA,NA,NA,NA,NA,NA,sdf,NA,2,NA,NA,NA,NA,NA,NA,NA,NA,NA,NA,NA,NA,NA,NA,NA,NA,NA,NA,NA
fcd50,check continue,flow.Sequence,3_0_2,NA,NA,completion,94104.555998474,718751.39999962,718737.811,718754.544,812859.09999847,812859.79999924,2023-03-17T12:01:37Z,812910.61,NULL,NA,NA,NA,NA,NA,NA,NA,sdf,NA,2,NA,NA,NA,NA,NA,NA,NA,NA,NA,NA,NA,NA,NA,NA,NA,NA,NA,NA,NA
fcd50,deep,flow.Sequence,3_0_3_0_0_0,NA,NA,skipped,NA,812895.5,NA,NA,812859.09999847,812895.59999847,2023-03-17T12:01:37Z,812910.61,NULL,Widerstand,usulubu,s,kusababisha,mwalimu,mwenendo,NA,qt,NA,3,NA,NA,NA,NA,NA,NA,NA,NA,NA,NA,NA,NA,NA,NA,NA,NA,NA,NA,NA
fcd50,Shallow Question,html.Page,3_0_3_0_0_1_0,NA,NA,form submission,4879.39,812895.79999924,812893.933,812910.61,817790,817790.19999886,2023-03-17T12:01:42Z,817819.57,NULL,Widerstand,usulubu,s,kusababisha,mwalimu,mwenendo,usulubu,NA,NA,3,NA,NA,NA,NA,NA,NA,NA,NA,NA,NA,NA,NA,NA,NA,NA,NA,NA,NA,NA
fcd50,"""Richtig""-Screen",canvas.Screen,3_0_3_0_0_1_1,NA,NA,timeout,4999.648,817792.39999962,817773.307,817819.57,822802.558,822803.09999847,2023-03-17T12:01:47Z,822819.218,NULL,Widerstand,usulubu,s,kusababisha,mwalimu,mwenendo,NA,qt,1,3,NA,NA,NA,NA,NA,NA,NA,NA,NA,NA,NA,NA,NA,NA,NA,NA,NA,NA,NA
fcd50,"""Falsch""-Screen",canvas.Screen,3_0_3_0_0_1_2,NA,NA,skipped,NA,822805,NA,NA,822802.558,822805.19999886,2023-03-17T12:01:47Z,822819.218,NULL,Widerstand,usulubu,s,kusababisha,mwalimu,mwenendo,NA,qt,NA,3,NA,NA,NA,NA,NA,NA,NA,NA,NA,NA,NA,NA,NA,NA,NA,NA,NA,NA,NA
fcd50,shallow,flow.Sequence,3_0_3_0_0_1,NA,NA,completion,9891.948,812895.69999886,812893.933,812910.61,822802.558,822805.29999924,2023-03-17T12:01:47Z,822819.218,NULL,Widerstand,usulubu,s,kusababisha,mwalimu,mwenendo,NA,qt,NA,3,NA,NA,NA,NA,NA,NA,NA,NA,NA,NA,NA,NA,NA,NA,NA,NA,NA,NA,NA
fcd50,task,flow.Sequence,3_0_3_0_0,NA,NA,completion,9891.948,812895.39999962,812893.933,812910.61,822802.558,822805.39999962,2023-03-17T12:01:47Z,822819.218,NULL,Widerstand,usulubu,s,kusababisha,mwalimu,mwenendo,NA,qt,NA,3,NA,NA,NA,NA,NA,NA,NA,NA,NA,NA,NA,NA,NA,NA,NA,NA,NA,NA,NA
fcd50,deep,flow.Sequence,3_0_3_0_1_0,NA,NA,skipped,NA,822805.5,NA,NA,822802.558,822805.59999847,2023-03-17T12:01:47Z,822819.218,NULL,Verstand,ufahamivu,s,shakawa,hadhari,mhandisi,NA,qt,NA,3,NA,NA,NA,NA,NA,NA,NA,NA,NA,NA,NA,NA,NA,NA,NA,NA,NA,NA,NA
fcd50,Shallow Question,html.Page,3_0_3_0_1_1_0,NA,NA,form submission,6248.4819988556,822805.59999847,822802.558,822819.218,829067.69999886,829068.09999847,2023-03-17T12:01:53Z,829080.75,NULL,Verstand,ufahamivu,s,shakawa,hadhari,mhandisi,ufahamivu,NA,NA,3,NA,NA,NA,NA,NA,NA,NA,NA,NA,NA,NA,NA,NA,NA,NA,NA,NA,NA,NA
fcd50,"""Richtig""-Screen",canvas.Screen,3_0_3_0_1_1_1,NA,NA,timeout,4995.938,829073.59999847,829064.534,829080.75,834060.57,834061.19999886,2023-03-17T12:01:58Z,834076.688,NULL,Verstand,ufahamivu,s,shakawa,hadhari,mhandisi,NA,qt,1,3,NA,NA,NA,NA,NA,NA,NA,NA,NA,NA,NA,NA,NA,NA,NA,NA,NA,NA,NA
fcd50,"""Falsch""-Screen",canvas.Screen,3_0_3_0_1_1_2,NA,NA,skipped,NA,834063.5,NA,NA,834060.57,834063.69999886,2023-03-17T12:01:58Z,834076.688,NULL,Verstand,ufahamivu,s,shakawa,hadhari,mhandisi,NA,qt,NA,3,NA,NA,NA,NA,NA,NA,NA,NA,NA,NA,NA,NA,NA,NA,NA,NA,NA,NA,NA
fcd50,shallow,flow.Sequence,3_0_3_0_1_1,NA,NA,completion,11241.352,822805.59999847,822802.558,822819.218,834060.57,834063.89999962,2023-03-17T12:01:58Z,834076.688,NULL,Verstand,ufahamivu,s,shakawa,hadhari,mhandisi,NA,qt,NA,3,NA,NA,NA,NA,NA,NA,NA,NA,NA,NA,NA,NA,NA,NA,NA,NA,NA,NA,NA
fcd50,task,flow.Sequence,3_0_3_0_1,NA,NA,completion,11241.352,822805.5,822802.558,822819.218,834060.57,834064,2023-03-17T12:01:58Z,834076.688,NULL,Verstand,ufahamivu,s,shakawa,hadhari,mhandisi,NA,qt,NA,3,NA,NA,NA,NA,NA,NA,NA,NA,NA,NA,NA,NA,NA,NA,NA,NA,NA,NA,NA
fcd50,deep,flow.Sequence,3_0_3_0_2_0,NA,NA,skipped,NA,834064.09999847,NA,NA,834060.57,834064.09999847,2023-03-17T12:01:58Z,834076.688,NULL,Wohlstand,mafanikio,s,chimbuko,kumbuko,mapwaji,NA,qt,NA,3,NA,NA,NA,NA,NA,NA,NA,NA,NA,NA,NA,NA,NA,NA,NA,NA,NA,NA,NA
fcd50,Shallow Question,html.Page,3_0_3_0_2_1_0,NA,NA,form submission,6853.2119996186,834064.29999924,834060.57,834076.688,840929.89999962,840930.19999886,2023-03-17T12:02:05Z,840937.632,NULL,Wohlstand,mafanikio,s,chimbuko,kumbuko,mapwaji,mafanikio,NA,NA,3,NA,NA,NA,NA,NA,NA,NA,NA,NA,NA,NA,NA,NA,NA,NA,NA,NA,NA,NA
fcd50,"""Richtig""-Screen",canvas.Screen,3_0_3_0_2_1_1,NA,NA,timeout,4995.9230000001,840932.59999847,840921.454,840937.632,845916.996,845919.59999847,2023-03-17T12:02:10Z,845933.555,NULL,Wohlstand,mafanikio,s,chimbuko,kumbuko,mapwaji,NA,qt,1,3,NA,NA,NA,NA,NA,NA,NA,NA,NA,NA,NA,NA,NA,NA,NA,NA,NA,NA,NA
fcd50,"""Falsch""-Screen",canvas.Screen,3_0_3_0_2_1_2,NA,NA,skipped,NA,845922.39999962,NA,NA,845916.996,845922.5,2023-03-17T12:02:10Z,845933.555,NULL,Wohlstand,mafanikio,s,chimbuko,kumbuko,mapwaji,NA,qt,NA,3,NA,NA,NA,NA,NA,NA,NA,NA,NA,NA,NA,NA,NA,NA,NA,NA,NA,NA,NA
fcd50,shallow,flow.Sequence,3_0_3_0_2_1,NA,NA,completion,11840.308,834064.29999924,834060.57,834076.688,845916.996,845922.59999847,2023-03-17T12:02:10Z,845933.555,NULL,Wohlstand,mafanikio,s,chimbuko,kumbuko,mapwaji,NA,qt,NA,3,NA,NA,NA,NA,NA,NA,NA,NA,NA,NA,NA,NA,NA,NA,NA,NA,NA,NA,NA
fcd50,task,flow.Sequence,3_0_3_0_2,NA,NA,completion,11840.308,834064.09999847,834060.57,834076.688,845916.996,845922.79999924,2023-03-17T12:02:10Z,845933.555,NULL,Wohlstand,mafanikio,s,chimbuko,kumbuko,mapwaji,NA,qt,NA,3,NA,NA,NA,NA,NA,NA,NA,NA,NA,NA,NA,NA,NA,NA,NA,NA,NA,NA,NA
fcd50,Deep Question,html.Page,3_0_3_0_3_0_0,NA,NA,form submission,5720.244999237,845923,845916.996,845933.555,851653.79999924,851654.29999924,2023-03-17T12:02:16Z,851662.311,NULL,Gelegenheit,wakati,d,NA,NA,NA,wakati,NA,NA,3,NA,NA,NA,NA,NA,NA,NA,NA,NA,NA,NA,NA,NA,NA,NA,NA,NA,NA,NA
fcd50,"""Richtig""-Screen",canvas.Screen,3_0_3_0_3_0_1,NA,NA,timeout,4995.792,851659,851646.152,851662.311,856641.445,856641.79999924,2023-03-17T12:02:21Z,856658.103,NULL,Gelegenheit,wakati,d,NA,NA,NA,NA,qt,1,3,NA,NA,NA,NA,NA,NA,NA,NA,NA,NA,NA,NA,NA,NA,NA,NA,NA,NA,NA
fcd50,"""Falsch""-Screen",canvas.Screen,3_0_3_0_3_0_2,NA,NA,skipped,NA,856644.39999962,NA,NA,856641.445,856644.5,2023-03-17T12:02:21Z,856658.103,NULL,Gelegenheit,wakati,d,NA,NA,NA,NA,qt,NA,3,NA,NA,NA,NA,NA,NA,NA,NA,NA,NA,NA,NA,NA,NA,NA,NA,NA,NA,NA
fcd50,deep,flow.Sequence,3_0_3_0_3_0,NA,NA,completion,10707.89,845922.89999962,845916.996,845933.555,856641.445,856644.69999886,2023-03-17T12:02:21Z,856658.103,NULL,Gelegenheit,wakati,d,NA,NA,NA,NA,qt,NA,3,NA,NA,NA,NA,NA,NA,NA,NA,NA,NA,NA,NA,NA,NA,NA,NA,NA,NA,NA
fcd50,shallow,flow.Sequence,3_0_3_0_3_1,NA,NA,skipped,NA,856644.79999924,NA,NA,856641.445,856644.89999962,2023-03-17T12:02:21Z,856658.103,NULL,Gelegenheit,wakati,d,NA,NA,NA,NA,qt,NA,3,NA,NA,NA,NA,NA,NA,NA,NA,NA,NA,NA,NA,NA,NA,NA,NA,NA,NA,NA
fcd50,task,flow.Sequence,3_0_3_0_3,NA,NA,completion,10707.89,845922.89999962,845916.996,845933.555,856641.445,856644.89999962,2023-03-17T12:02:21Z,856658.103,NULL,Gelegenheit,wakati,d,NA,NA,NA,NA,qt,NA,3,NA,NA,NA,NA,NA,NA,NA,NA,NA,NA,NA,NA,NA,NA,NA,NA,NA,NA,NA
fcd50,deep,flow.Sequence,3_0_3_0_4_0,NA,NA,skipped,NA,856645,NA,NA,856641.445,856645.09999847,2023-03-17T12:02:21Z,856658.103,NULL,Ergänzung,kijalizo,s,ulaghai,mustarehe,matangazo,NA,qt,NA,3,NA,NA,NA,NA,NA,NA,NA,NA,NA,NA,NA,NA,NA,NA,NA,NA,NA,NA,NA
fcd50,Shallow Question,html.Page,3_0_3_0_4_1_0,NA,NA,form submission,4447.7969996185,856645.19999886,856641.445,856658.103,861105.89999962,861106.89999962,2023-03-17T12:02:25Z,861133.796,NULL,Ergänzung,kijalizo,s,ulaghai,mustarehe,matangazo,kijalizo,NA,NA,3,NA,NA,NA,NA,NA,NA,NA,NA,NA,NA,NA,NA,NA,NA,NA,NA,NA,NA,NA
fcd50,"""Richtig""-Screen",canvas.Screen,3_0_3_0_4_1_1,NA,NA,timeout,4999.9010000001,861109.59999847,861088.404,861133.796,866117.42,866118.39999962,2023-03-17T12:02:30Z,866133.697,NULL,Ergänzung,kijalizo,s,ulaghai,mustarehe,matangazo,NA,qt,1,3,NA,NA,NA,NA,NA,NA,NA,NA,NA,NA,NA,NA,NA,NA,NA,NA,NA,NA,NA
fcd50,"""Falsch""-Screen",canvas.Screen,3_0_3_0_4_1_2,NA,NA,skipped,NA,866124.29999924,NA,NA,866117.42,866124.69999886,2023-03-17T12:02:30Z,866133.697,NULL,Ergänzung,kijalizo,s,ulaghai,mustarehe,matangazo,NA,qt,NA,3,NA,NA,NA,NA,NA,NA,NA,NA,NA,NA,NA,NA,NA,NA,NA,NA,NA,NA,NA
fcd50,shallow,flow.Sequence,3_0_3_0_4_1,NA,NA,completion,9459.317,856645.19999886,856641.445,856658.103,866117.42,866125.09999847,2023-03-17T12:02:30Z,866133.697,NULL,Ergänzung,kijalizo,s,ulaghai,mustarehe,matangazo,NA,qt,NA,3,NA,NA,NA,NA,NA,NA,NA,NA,NA,NA,NA,NA,NA,NA,NA,NA,NA,NA,NA
fcd50,task,flow.Sequence,3_0_3_0_4,NA,NA,completion,9459.317,856645,856641.445,856658.103,866117.42,866125.39999962,2023-03-17T12:02:30Z,866133.697,NULL,Ergänzung,kijalizo,s,ulaghai,mustarehe,matangazo,NA,qt,NA,3,NA,NA,NA,NA,NA,NA,NA,NA,NA,NA,NA,NA,NA,NA,NA,NA,NA,NA,NA
fcd50,Deep Question,html.Page,3_0_3_0_5_0_0,NA,NA,form submission,6671.0029988555,866125.69999886,866117.42,866133.697,872804.69999886,872805,2023-03-17T12:02:37Z,872811.552,NULL,Ausschluss,kutengwa,d,NA,NA,NA,dharua,NA,NA,3,NA,NA,NA,NA,NA,NA,NA,NA,NA,NA,NA,NA,NA,NA,NA,NA,NA,NA,NA
fcd50,"""Richtig""-Screen",canvas.Screen,3_0_3_0_5_0_1,NA,NA,skipped,NA,872807.59999847,NA,NA,872804.69999886,872807.69999886,2023-03-17T12:02:37Z,872811.552,NULL,Ausschluss,kutengwa,d,NA,NA,NA,NA,qt,NA,3,NA,NA,NA,NA,NA,NA,NA,NA,NA,NA,NA,NA,NA,NA,NA,NA,NA,NA,NA
fcd50,"""Falsch""-Screen",canvas.Screen,3_0_3_0_5_0_2,NA,NA,timeout,4996.368,872808.69999886,872795.442,872811.552,877791.386,877792.39999962,2023-03-17T12:02:42Z,877807.92,NULL,Ausschluss,kutengwa,d,NA,NA,NA,NA,qt,0,3,NA,NA,NA,NA,NA,NA,NA,NA,NA,NA,NA,NA,NA,NA,NA,NA,NA,NA,NA
fcd50,deep,flow.Sequence,3_0_3_0_5_0,NA,NA,completion,11657.689,866125.59999847,866117.42,866133.697,877791.386,877792.89999962,2023-03-17T12:02:42Z,877807.92,NULL,Ausschluss,kutengwa,d,NA,NA,NA,NA,qt,NA,3,NA,NA,NA,NA,NA,NA,NA,NA,NA,NA,NA,NA,NA,NA,NA,NA,NA,NA,NA
fcd50,shallow,flow.Sequence,3_0_3_0_5_1,NA,NA,skipped,NA,877793,NA,NA,877791.386,877793.29999924,2023-03-17T12:02:42Z,877807.92,NULL,Ausschluss,kutengwa,d,NA,NA,NA,NA,qt,NA,3,NA,NA,NA,NA,NA,NA,NA,NA,NA,NA,NA,NA,NA,NA,NA,NA,NA,NA,NA
fcd50,task,flow.Sequence,3_0_3_0_5,NA,NA,completion,11657.689,866125.59999847,866117.42,866133.697,877791.386,877793.5,2023-03-17T12:02:42Z,877807.92,NULL,Ausschluss,kutengwa,d,NA,NA,NA,NA,qt,NA,3,NA,NA,NA,NA,NA,NA,NA,NA,NA,NA,NA,NA,NA,NA,NA,NA,NA,NA,NA
fcd50,Deep Question,html.Page,3_0_3_0_6_0_0,NA,NA,form submission,6376.6799984741,877793.89999962,877791.386,877807.92,884184.59999847,884184.69999886,2023-03-17T12:02:48Z,884185.513,NULL,Vergnügen,kichekesho,d,NA,NA,NA,dharua,NA,NA,3,NA,NA,NA,NA,NA,NA,NA,NA,NA,NA,NA,NA,NA,NA,NA,NA,NA,NA,NA
fcd50,"""Richtig""-Screen",canvas.Screen,3_0_3_0_6_0_1,NA,NA,skipped,NA,884188.5,NA,NA,884184.59999847,884188.69999886,2023-03-17T12:02:48Z,884185.513,NULL,Vergnügen,kichekesho,d,NA,NA,NA,NA,qt,NA,3,NA,NA,NA,NA,NA,NA,NA,NA,NA,NA,NA,NA,NA,NA,NA,NA,NA,NA,NA
fcd50,"""Falsch""-Screen",canvas.Screen,3_0_3_0_6_0_2,NA,NA,timeout,4995.96,884189.79999924,884168.848,884185.513,889165.22,889165.79999924,2023-03-17T12:02:53Z,889181.473,NULL,Vergnügen,kichekesho,d,NA,NA,NA,NA,qt,0,3,NA,NA,NA,NA,NA,NA,NA,NA,NA,NA,NA,NA,NA,NA,NA,NA,NA,NA,NA
fcd50,deep,flow.Sequence,3_0_3_0_6_0,NA,NA,completion,11357.3,877793.79999924,877791.386,877807.92,889165.22,889166,2023-03-17T12:02:53Z,889181.473,NULL,Vergnügen,kichekesho,d,NA,NA,NA,NA,qt,NA,3,NA,NA,NA,NA,NA,NA,NA,NA,NA,NA,NA,NA,NA,NA,NA,NA,NA,NA,NA
fcd50,shallow,flow.Sequence,3_0_3_0_6_1,NA,NA,skipped,NA,889166,NA,NA,889165.22,889166.09999847,2023-03-17T12:02:53Z,889181.473,NULL,Vergnügen,kichekesho,d,NA,NA,NA,NA,qt,NA,3,NA,NA,NA,NA,NA,NA,NA,NA,NA,NA,NA,NA,NA,NA,NA,NA,NA,NA,NA
fcd50,task,flow.Sequence,3_0_3_0_6,NA,NA,completion,11357.3,877793.79999924,877791.386,877807.92,889165.22,889166.09999847,2023-03-17T12:02:53Z,889181.473,NULL,Vergnügen,kichekesho,d,NA,NA,NA,NA,qt,NA,3,NA,NA,NA,NA,NA,NA,NA,NA,NA,NA,NA,NA,NA,NA,NA,NA,NA,NA,NA
fcd50,Deep Question,html.Page,3_0_3_0_7_0_0,NA,NA,form submission,6541.527,889166.19999886,889165.22,889181.473,895723,895723.59999847,2023-03-17T12:03:00Z,895726.086,NULL,Notfall,dharura,d,NA,NA,NA,dharuga,NA,NA,3,NA,NA,NA,NA,NA,NA,NA,NA,NA,NA,NA,NA,NA,NA,NA,NA,NA,NA,NA
fcd50,"""Richtig""-Screen",canvas.Screen,3_0_3_0_7_0_1,NA,NA,skipped,NA,895731.69999886,NA,NA,895723,895732.19999886,2023-03-17T12:03:00Z,895726.086,NULL,Notfall,dharura,d,NA,NA,NA,NA,qt,NA,3,NA,NA,NA,NA,NA,NA,NA,NA,NA,NA,NA,NA,NA,NA,NA,NA,NA,NA,NA
fcd50,"""Falsch""-Screen",canvas.Screen,3_0_3_0_7_0_2,NA,NA,timeout,4995.883,895735,895709.419,895726.086,900705.324,900706,2023-03-17T12:03:05Z,900721.969,NULL,Notfall,dharura,d,NA,NA,NA,NA,qt,0,3,NA,NA,NA,NA,NA,NA,NA,NA,NA,NA,NA,NA,NA,NA,NA,NA,NA,NA,NA
fcd50,deep,flow.Sequence,3_0_3_0_7_0,NA,NA,completion,11523.851,889166.19999886,889165.22,889181.473,900705.324,900706.29999924,2023-03-17T12:03:05Z,900721.969,NULL,Notfall,dharura,d,NA,NA,NA,NA,qt,NA,3,NA,NA,NA,NA,NA,NA,NA,NA,NA,NA,NA,NA,NA,NA,NA,NA,NA,NA,NA
fcd50,shallow,flow.Sequence,3_0_3_0_7_1,NA,NA,skipped,NA,900706.39999962,NA,NA,900705.324,900706.59999847,2023-03-17T12:03:05Z,900721.969,NULL,Notfall,dharura,d,NA,NA,NA,NA,qt,NA,3,NA,NA,NA,NA,NA,NA,NA,NA,NA,NA,NA,NA,NA,NA,NA,NA,NA,NA,NA
fcd50,task,flow.Sequence,3_0_3_0_7,NA,NA,completion,11523.851,889166.19999886,889165.22,889181.473,900705.324,900706.89999962,2023-03-17T12:03:05Z,900721.969,NULL,Notfall,dharura,d,NA,NA,NA,NA,qt,NA,3,NA,NA,NA,NA,NA,NA,NA,NA,NA,NA,NA,NA,NA,NA,NA,NA,NA,NA,NA
fcd50,block,flow.Loop,3_0_3_0,NA,NA,completion,87794.714,812895.39999962,812893.933,812910.61,900705.324,900707.09999847,2023-03-17T12:03:05Z,900721.969,NULL,NA,NA,NA,NA,NA,NA,NA,qt,NA,3,NA,NA,NA,NA,NA,NA,NA,NA,NA,NA,NA,NA,NA,NA,NA,NA,NA,NA,NA
fcd50,weiter,canvas.Screen,3_0_3_1,sdf,keypress(Space),response,1145.830999237,900707.19999886,900705.324,900721.969,901867.79999924,901868.59999847,2023-03-17T12:03:06Z,901920.969,NULL,NA,NA,NA,NA,NA,NA,NA,qt,NA,3,NA,NA,NA,NA,NA,NA,NA,NA,NA,NA,NA,NA,NA,NA,NA,NA,NA,NA,NA
fcd50,check continue,flow.Sequence,3_0_3,NA,NA,completion,88957.189999237,812895.29999924,812893.933,812910.61,901867.79999924,901868.79999924,2023-03-17T12:03:06Z,901920.969,NULL,NA,NA,NA,NA,NA,NA,NA,qt,NA,3,NA,NA,NA,NA,NA,NA,NA,NA,NA,NA,NA,NA,NA,NA,NA,NA,NA,NA,NA
fcd50,Deep Question,html.Page,3_0_4_0_0_0_0,NA,NA,form submission,10766.830999237,901907.09999847,901904.869,901920.969,912687.79999924,912688.29999924,2023-03-17T12:03:17Z,912695.455,NULL,Notfall,dharura,d,NA,NA,NA,dharua,NA,NA,4,NA,NA,NA,NA,NA,NA,NA,NA,NA,NA,NA,NA,NA,NA,NA,NA,NA,NA,NA
fcd50,"""Richtig""-Screen",canvas.Screen,3_0_4_0_0_0_1,NA,NA,skipped,NA,912693.29999924,NA,NA,912687.79999924,912693.39999962,2023-03-17T12:03:17Z,912695.455,NULL,Notfall,dharura,d,NA,NA,NA,NA,sd,NA,4,NA,NA,NA,NA,NA,NA,NA,NA,NA,NA,NA,NA,NA,NA,NA,NA,NA,NA,NA
fcd50,"""Falsch""-Screen",canvas.Screen,3_0_4_0_0_0_2,NA,NA,timeout,4996.451,912694.19999886,912679.183,912695.455,917674.74,917675.29999924,2023-03-17T12:03:22Z,917691.906,NULL,Notfall,dharura,d,NA,NA,NA,NA,sd,0,4,NA,NA,NA,NA,NA,NA,NA,NA,NA,NA,NA,NA,NA,NA,NA,NA,NA,NA,NA
fcd50,deep,flow.Sequence,3_0_4_0_0_0,NA,NA,completion,15753.771,901907.09999847,901904.869,901920.969,917674.74,917675.5,2023-03-17T12:03:22Z,917691.906,NULL,Notfall,dharura,d,NA,NA,NA,NA,sd,NA,4,NA,NA,NA,NA,NA,NA,NA,NA,NA,NA,NA,NA,NA,NA,NA,NA,NA,NA,NA
fcd50,shallow,flow.Sequence,3_0_4_0_0_1,NA,NA,skipped,NA,917675.59999847,NA,NA,917674.74,917675.59999847,2023-03-17T12:03:22Z,917691.906,NULL,Notfall,dharura,d,NA,NA,NA,NA,sd,NA,4,NA,NA,NA,NA,NA,NA,NA,NA,NA,NA,NA,NA,NA,NA,NA,NA,NA,NA,NA
fcd50,task,flow.Sequence,3_0_4_0_0,NA,NA,completion,15753.771,901907,901904.869,901920.969,917674.74,917675.69999886,2023-03-17T12:03:22Z,917691.906,NULL,Notfall,dharura,d,NA,NA,NA,NA,sd,NA,4,NA,NA,NA,NA,NA,NA,NA,NA,NA,NA,NA,NA,NA,NA,NA,NA,NA,NA,NA
fcd50,Deep Question,html.Page,3_0_4_0_1_0_0,NA,NA,form submission,7099.594,917675.79999924,917674.74,917691.906,924791.5,924791.69999886,2023-03-17T12:03:29Z,924802.435,NULL,Vergnügen,kichekesho,d,NA,NA,NA,kientsho,NA,NA,4,NA,NA,NA,NA,NA,NA,NA,NA,NA,NA,NA,NA,NA,NA,NA,NA,NA,NA,NA
fcd50,"""Richtig""-Screen",canvas.Screen,3_0_4_0_1_0_1,NA,NA,skipped,NA,924793.89999962,NA,NA,924791.5,924794.09999847,2023-03-17T12:03:29Z,924802.435,NULL,Vergnügen,kichekesho,d,NA,NA,NA,NA,sd,NA,4,NA,NA,NA,NA,NA,NA,NA,NA,NA,NA,NA,NA,NA,NA,NA,NA,NA,NA,NA
fcd50,"""Falsch""-Screen",canvas.Screen,3_0_4_0_1_0_2,NA,NA,timeout,4995.6899999999,924795,924785.539,924802.435,929781.453,929782,2023-03-17T12:03:34Z,929798.125,NULL,Vergnügen,kichekesho,d,NA,NA,NA,NA,sd,0,4,NA,NA,NA,NA,NA,NA,NA,NA,NA,NA,NA,NA,NA,NA,NA,NA,NA,NA,NA
fcd50,deep,flow.Sequence,3_0_4_0_1_0,NA,NA,completion,12089.547,917675.79999924,917674.74,917691.906,929781.453,929782.09999847,2023-03-17T12:03:34Z,929798.125,NULL,Vergnügen,kichekesho,d,NA,NA,NA,NA,sd,NA,4,NA,NA,NA,NA,NA,NA,NA,NA,NA,NA,NA,NA,NA,NA,NA,NA,NA,NA,NA
fcd50,shallow,flow.Sequence,3_0_4_0_1_1,NA,NA,skipped,NA,929782.19999886,NA,NA,929781.453,929782.29999924,2023-03-17T12:03:34Z,929798.125,NULL,Vergnügen,kichekesho,d,NA,NA,NA,NA,sd,NA,4,NA,NA,NA,NA,NA,NA,NA,NA,NA,NA,NA,NA,NA,NA,NA,NA,NA,NA,NA
fcd50,task,flow.Sequence,3_0_4_0_1,NA,NA,completion,12089.547,917675.79999924,917674.74,917691.906,929781.453,929782.39999962,2023-03-17T12:03:34Z,929798.125,NULL,Vergnügen,kichekesho,d,NA,NA,NA,NA,sd,NA,4,NA,NA,NA,NA,NA,NA,NA,NA,NA,NA,NA,NA,NA,NA,NA,NA,NA,NA,NA
fcd50,Deep Question,html.Page,3_0_4_0_2_0_0,NA,NA,form submission,8848.875,929782.59999847,929781.453,929798.125,938647,938647.29999924,2023-03-17T12:03:43Z,938657.518,NULL,Gelegenheit,wakati,d,NA,NA,NA,wakati,NA,NA,4,NA,NA,NA,NA,NA,NA,NA,NA,NA,NA,NA,NA,NA,NA,NA,NA,NA,NA,NA
fcd50,"""Richtig""-Screen",canvas.Screen,3_0_4_0_2_0_1,NA,NA,timeout,4995.858,938649.89999962,938641.024,938657.518,943637.019,943638.29999924,2023-03-17T12:03:48Z,943653.376,NULL,Gelegenheit,wakati,d,NA,NA,NA,NA,sd,1,4,NA,NA,NA,NA,NA,NA,NA,NA,NA,NA,NA,NA,NA,NA,NA,NA,NA,NA,NA
fcd50,"""Falsch""-Screen",canvas.Screen,3_0_4_0_2_0_2,NA,NA,skipped,NA,943643.29999924,NA,NA,943637.019,943643.5,2023-03-17T12:03:48Z,943653.376,NULL,Gelegenheit,wakati,d,NA,NA,NA,NA,sd,NA,4,NA,NA,NA,NA,NA,NA,NA,NA,NA,NA,NA,NA,NA,NA,NA,NA,NA,NA,NA
fcd50,deep,flow.Sequence,3_0_4_0_2_0,NA,NA,completion,13838.894,929782.59999847,929781.453,929798.125,943637.019,943643.69999886,2023-03-17T12:03:48Z,943653.376,NULL,Gelegenheit,wakati,d,NA,NA,NA,NA,sd,NA,4,NA,NA,NA,NA,NA,NA,NA,NA,NA,NA,NA,NA,NA,NA,NA,NA,NA,NA,NA
fcd50,shallow,flow.Sequence,3_0_4_0_2_1,NA,NA,skipped,NA,943643.69999886,NA,NA,943637.019,943643.79999924,2023-03-17T12:03:48Z,943653.376,NULL,Gelegenheit,wakati,d,NA,NA,NA,NA,sd,NA,4,NA,NA,NA,NA,NA,NA,NA,NA,NA,NA,NA,NA,NA,NA,NA,NA,NA,NA,NA
fcd50,task,flow.Sequence,3_0_4_0_2,NA,NA,completion,13838.894,929782.5,929781.453,929798.125,943637.019,943643.89999962,2023-03-17T12:03:48Z,943653.376,NULL,Gelegenheit,wakati,d,NA,NA,NA,NA,sd,NA,4,NA,NA,NA,NA,NA,NA,NA,NA,NA,NA,NA,NA,NA,NA,NA,NA,NA,NA,NA
fcd50,deep,flow.Sequence,3_0_4_0_3_0,NA,NA,skipped,NA,943644.09999847,NA,NA,943637.019,943644.09999847,2023-03-17T12:03:48Z,943653.376,NULL,Widerstand,usulubu,s,kusababisha,mwalimu,mwenendo,NA,sd,NA,4,NA,NA,NA,NA,NA,NA,NA,NA,NA,NA,NA,NA,NA,NA,NA,NA,NA,NA,NA
fcd50,Shallow Question,html.Page,3_0_4_0_3_1_0,NA,NA,form submission,4028.3239988555,943644.19999886,943637.019,943653.376,947681.69999886,947682,2023-03-17T12:03:52Z,947683.411,NULL,Widerstand,usulubu,s,kusababisha,mwalimu,mwenendo,usulubu,NA,NA,4,NA,NA,NA,NA,NA,NA,NA,NA,NA,NA,NA,NA,NA,NA,NA,NA,NA,NA,NA
fcd50,"""Richtig""-Screen",canvas.Screen,3_0_4_0_3_1_1,NA,NA,timeout,4995.897,947683.59999847,947666.816,947683.411,952662.704,952663.09999847,2023-03-17T12:03:57Z,952679.308,NULL,Widerstand,usulubu,s,kusababisha,mwalimu,mwenendo,NA,sd,1,4,NA,NA,NA,NA,NA,NA,NA,NA,NA,NA,NA,NA,NA,NA,NA,NA,NA,NA,NA
fcd50,"""Falsch""-Screen",canvas.Screen,3_0_4_0_3_1_2,NA,NA,skipped,NA,952665,NA,NA,952662.704,952665.09999847,2023-03-17T12:03:57Z,952679.308,NULL,Widerstand,usulubu,s,kusababisha,mwalimu,mwenendo,NA,sd,NA,4,NA,NA,NA,NA,NA,NA,NA,NA,NA,NA,NA,NA,NA,NA,NA,NA,NA,NA,NA
fcd50,shallow,flow.Sequence,3_0_4_0_3_1,NA,NA,completion,9009.328,943644.19999886,943637.019,943653.376,952662.704,952665.29999924,2023-03-17T12:03:57Z,952679.308,NULL,Widerstand,usulubu,s,kusababisha,mwalimu,mwenendo,NA,sd,NA,4,NA,NA,NA,NA,NA,NA,NA,NA,NA,NA,NA,NA,NA,NA,NA,NA,NA,NA,NA
fcd50,task,flow.Sequence,3_0_4_0_3,NA,NA,completion,9009.328,943644,943637.019,943653.376,952662.704,952665.39999962,2023-03-17T12:03:57Z,952679.308,NULL,Widerstand,usulubu,s,kusababisha,mwalimu,mwenendo,NA,sd,NA,4,NA,NA,NA,NA,NA,NA,NA,NA,NA,NA,NA,NA,NA,NA,NA,NA,NA,NA,NA
fcd50,deep,flow.Sequence,3_0_4_0_4_0,NA,NA,skipped,NA,952666,NA,NA,952662.704,952666.09999847,2023-03-17T12:03:57Z,952679.308,NULL,Verstand,ufahamivu,s,shakawa,hadhari,mhandisi,NA,sd,NA,4,NA,NA,NA,NA,NA,NA,NA,NA,NA,NA,NA,NA,NA,NA,NA,NA,NA,NA,NA
fcd50,Shallow Question,html.Page,3_0_4_0_4_1_0,NA,NA,form submission,7419.2919984742,952666.09999847,952662.704,952679.308,960098.59999847,960099.09999847,2023-03-17T12:04:04Z,960106.662,NULL,Verstand,ufahamivu,s,shakawa,hadhari,mhandisi,ufahamivu,NA,NA,4,NA,NA,NA,NA,NA,NA,NA,NA,NA,NA,NA,NA,NA,NA,NA,NA,NA,NA,NA
fcd50,"""Richtig""-Screen",canvas.Screen,3_0_4_0_4_1_1,NA,NA,timeout,4995.904,960103.59999847,960089.947,960106.662,965085.967,965086.39999962,2023-03-17T12:04:09Z,965102.566,NULL,Verstand,ufahamivu,s,shakawa,hadhari,mhandisi,NA,sd,1,4,NA,NA,NA,NA,NA,NA,NA,NA,NA,NA,NA,NA,NA,NA,NA,NA,NA,NA,NA
fcd50,"""Falsch""-Screen",canvas.Screen,3_0_4_0_4_1_2,NA,NA,skipped,NA,965088.09999847,NA,NA,965085.967,965088.19999886,2023-03-17T12:04:09Z,965102.566,NULL,Verstand,ufahamivu,s,shakawa,hadhari,mhandisi,NA,sd,NA,4,NA,NA,NA,NA,NA,NA,NA,NA,NA,NA,NA,NA,NA,NA,NA,NA,NA,NA,NA
fcd50,shallow,flow.Sequence,3_0_4_0_4_1,NA,NA,completion,12406.659,952666.09999847,952662.704,952679.308,965085.967,965088.29999924,2023-03-17T12:04:09Z,965102.566,NULL,Verstand,ufahamivu,s,shakawa,hadhari,mhandisi,NA,sd,NA,4,NA,NA,NA,NA,NA,NA,NA,NA,NA,NA,NA,NA,NA,NA,NA,NA,NA,NA,NA
fcd50,task,flow.Sequence,3_0_4_0_4,NA,NA,completion,12406.659,952666,952662.704,952679.308,965085.967,965088.39999962,2023-03-17T12:04:09Z,965102.566,NULL,Verstand,ufahamivu,s,shakawa,hadhari,mhandisi,NA,sd,NA,4,NA,NA,NA,NA,NA,NA,NA,NA,NA,NA,NA,NA,NA,NA,NA,NA,NA,NA,NA
fcd50,deep,flow.Sequence,3_0_4_0_5_0,NA,NA,skipped,NA,965088.39999962,NA,NA,965085.967,965088.5,2023-03-17T12:04:09Z,965102.566,NULL,Ergänzung,kijalizo,s,ulaghai,mustarehe,matangazo,NA,sd,NA,4,NA,NA,NA,NA,NA,NA,NA,NA,NA,NA,NA,NA,NA,NA,NA,NA,NA,NA,NA
fcd50,Shallow Question,html.Page,3_0_4_0_5_1_0,NA,NA,form submission,6447.7339992371,965088.59999847,965085.967,965102.566,971550.29999924,971550.69999886,2023-03-17T12:04:15Z,971563.87,NULL,Ergänzung,kijalizo,s,ulaghai,mustarehe,matangazo,kijalizo,NA,NA,4,NA,NA,NA,NA,NA,NA,NA,NA,NA,NA,NA,NA,NA,NA,NA,NA,NA,NA,NA
fcd50,"""Richtig""-Screen",canvas.Screen,3_0_4_0_5_1_1,NA,NA,timeout,4995.848,971555.69999886,971547.224,971563.87,976543.103,976543.59999847,2023-03-17T12:04:20Z,976559.718,NULL,Ergänzung,kijalizo,s,ulaghai,mustarehe,matangazo,NA,sd,1,4,NA,NA,NA,NA,NA,NA,NA,NA,NA,NA,NA,NA,NA,NA,NA,NA,NA,NA,NA
fcd50,"""Falsch""-Screen",canvas.Screen,3_0_4_0_5_1_2,NA,NA,skipped,NA,976546.09999847,NA,NA,976543.103,976546.19999886,2023-03-17T12:04:20Z,976559.718,NULL,Ergänzung,kijalizo,s,ulaghai,mustarehe,matangazo,NA,sd,NA,4,NA,NA,NA,NA,NA,NA,NA,NA,NA,NA,NA,NA,NA,NA,NA,NA,NA,NA,NA
fcd50,shallow,flow.Sequence,3_0_4_0_5_1,NA,NA,completion,11440.537,965088.5,965085.967,965102.566,976543.103,976546.39999962,2023-03-17T12:04:20Z,976559.718,NULL,Ergänzung,kijalizo,s,ulaghai,mustarehe,matangazo,NA,sd,NA,4,NA,NA,NA,NA,NA,NA,NA,NA,NA,NA,NA,NA,NA,NA,NA,NA,NA,NA,NA
fcd50,task,flow.Sequence,3_0_4_0_5,NA,NA,completion,11440.537,965088.39999962,965085.967,965102.566,976543.103,976546.5,2023-03-17T12:04:20Z,976559.718,NULL,Ergänzung,kijalizo,s,ulaghai,mustarehe,matangazo,NA,sd,NA,4,NA,NA,NA,NA,NA,NA,NA,NA,NA,NA,NA,NA,NA,NA,NA,NA,NA,NA,NA
fcd50,Deep Question,html.Page,3_0_4_0_6_0_0,NA,NA,form submission,7609.8819984741,976546.59999847,976543.103,976559.718,984169.59999847,984170.19999886,2023-03-17T12:04:28Z,984170.237,NULL,Ausschluss,kutengwa,d,NA,NA,NA,enhourg,NA,NA,4,NA,NA,NA,NA,NA,NA,NA,NA,NA,NA,NA,NA,NA,NA,NA,NA,NA,NA,NA
fcd50,"""Richtig""-Screen",canvas.Screen,3_0_4_0_6_0_1,NA,NA,skipped,NA,984174.89999962,NA,NA,984169.59999847,984175.09999847,2023-03-17T12:04:28Z,984170.237,NULL,Ausschluss,kutengwa,d,NA,NA,NA,NA,sd,NA,4,NA,NA,NA,NA,NA,NA,NA,NA,NA,NA,NA,NA,NA,NA,NA,NA,NA,NA,NA
fcd50,"""Falsch""-Screen",canvas.Screen,3_0_4_0_6_0_2,NA,NA,timeout,4996.307,984175.69999886,984154.087,984170.237,989149.517,989151.5,2023-03-17T12:04:33Z,989166.544,NULL,Ausschluss,kutengwa,d,NA,NA,NA,NA,sd,0,4,NA,NA,NA,NA,NA,NA,NA,NA,NA,NA,NA,NA,NA,NA,NA,NA,NA,NA,NA
fcd50,deep,flow.Sequence,3_0_4_0_6_0,NA,NA,completion,12589.799,976546.59999847,976543.103,976559.718,989149.517,989151.59999847,2023-03-17T12:04:33Z,989166.544,NULL,Ausschluss,kutengwa,d,NA,NA,NA,NA,sd,NA,4,NA,NA,NA,NA,NA,NA,NA,NA,NA,NA,NA,NA,NA,NA,NA,NA,NA,NA,NA
fcd50,shallow,flow.Sequence,3_0_4_0_6_1,NA,NA,skipped,NA,989151.59999847,NA,NA,989149.517,989151.69999886,2023-03-17T12:04:33Z,989166.544,NULL,Ausschluss,kutengwa,d,NA,NA,NA,NA,sd,NA,4,NA,NA,NA,NA,NA,NA,NA,NA,NA,NA,NA,NA,NA,NA,NA,NA,NA,NA,NA
fcd50,task,flow.Sequence,3_0_4_0_6,NA,NA,completion,12589.799,976546.59999847,976543.103,976559.718,989149.517,989152.5,2023-03-17T12:04:33Z,989166.544,NULL,Ausschluss,kutengwa,d,NA,NA,NA,NA,sd,NA,4,NA,NA,NA,NA,NA,NA,NA,NA,NA,NA,NA,NA,NA,NA,NA,NA,NA,NA,NA
fcd50,deep,flow.Sequence,3_0_4_0_7_0,NA,NA,skipped,NA,989152.5,NA,NA,989149.517,989152.5,2023-03-17T12:04:33Z,989166.544,NULL,Wohlstand,mafanikio,s,chimbuko,kumbuko,mapwaji,NA,sd,NA,4,NA,NA,NA,NA,NA,NA,NA,NA,NA,NA,NA,NA,NA,NA,NA,NA,NA,NA,NA
fcd50,Shallow Question,html.Page,3_0_4_0_7_1_0,NA,NA,form submission,5132.7559992371,989152.59999847,989149.517,989166.544,994299.29999924,994299.79999924,2023-03-17T12:04:38Z,994312.002,NULL,Wohlstand,mafanikio,s,chimbuko,kumbuko,mapwaji,mafanikio,NA,NA,4,NA,NA,NA,NA,NA,NA,NA,NA,NA,NA,NA,NA,NA,NA,NA,NA,NA,NA,NA
fcd50,"""Richtig""-Screen",canvas.Screen,3_0_4_0_7_1_1,NA,NA,timeout,4995.784,994305.79999924,994295.187,994312.002,999291.43,999291.89999962,2023-03-17T12:04:43Z,999307.786,NULL,Wohlstand,mafanikio,s,chimbuko,kumbuko,mapwaji,NA,sd,1,4,NA,NA,NA,NA,NA,NA,NA,NA,NA,NA,NA,NA,NA,NA,NA,NA,NA,NA,NA
fcd50,"""Falsch""-Screen",canvas.Screen,3_0_4_0_7_1_2,NA,NA,skipped,NA,999293.69999886,NA,NA,999291.43,999293.79999924,2023-03-17T12:04:43Z,999307.786,NULL,Wohlstand,mafanikio,s,chimbuko,kumbuko,mapwaji,NA,sd,NA,4,NA,NA,NA,NA,NA,NA,NA,NA,NA,NA,NA,NA,NA,NA,NA,NA,NA,NA,NA
fcd50,shallow,flow.Sequence,3_0_4_0_7_1,NA,NA,completion,10124.886,989152.59999847,989149.517,989166.544,999291.43,999294,2023-03-17T12:04:43Z,999307.786,NULL,Wohlstand,mafanikio,s,chimbuko,kumbuko,mapwaji,NA,sd,NA,4,NA,NA,NA,NA,NA,NA,NA,NA,NA,NA,NA,NA,NA,NA,NA,NA,NA,NA,NA
fcd50,task,flow.Sequence,3_0_4_0_7,NA,NA,completion,10124.886,989152.5,989149.517,989166.544,999291.43,999294.09999847,2023-03-17T12:04:43Z,999307.786,NULL,Wohlstand,mafanikio,s,chimbuko,kumbuko,mapwaji,NA,sd,NA,4,NA,NA,NA,NA,NA,NA,NA,NA,NA,NA,NA,NA,NA,NA,NA,NA,NA,NA,NA
fcd50,block,flow.Loop,3_0_4_0,NA,NA,completion,97370.461,901906.89999962,901904.869,901920.969,999291.43,999294.19999886,2023-03-17T12:04:43Z,999307.786,NULL,NA,NA,NA,NA,NA,NA,NA,sd,NA,4,NA,NA,NA,NA,NA,NA,NA,NA,NA,NA,NA,NA,NA,NA,NA,NA,NA,NA,NA
fcd50,weiter,canvas.Screen,3_0_4_1,sdf,keypress(Space),response,994.11399961857,999294.19999886,999291.43,999307.786,1000301.8999996,1000302.3999996,2023-03-17T12:04:44Z,1000906.433,NULL,NA,NA,NA,NA,NA,NA,NA,sd,NA,4,NA,NA,NA,NA,NA,NA,NA,NA,NA,NA,NA,NA,NA,NA,NA,NA,NA,NA,NA
fcd50,check continue,flow.Sequence,3_0_4,NA,NA,completion,98380.930999618,901906.89999962,901904.869,901920.969,1000301.8999996,1000302.5,2023-03-17T12:04:44Z,1000906.433,NULL,NA,NA,NA,NA,NA,NA,NA,sd,NA,4,NA,NA,NA,NA,NA,NA,NA,NA,NA,NA,NA,NA,NA,NA,NA,NA,NA,NA,NA
fcd50,check continue,flow.Sequence,3_0_5,NA,NA,skipped,NA,1000355.0999985,NA,NA,1000301.8999996,1000355.2999992,2023-03-17T12:04:44Z,1000906.433,NULL,NA,NA,NA,NA,NA,NA,NA,sdf,NA,5,NA,NA,NA,NA,NA,NA,NA,NA,NA,NA,NA,NA,NA,NA,NA,NA,NA,NA,NA
fcd50,check continue,flow.Sequence,3_0_6,NA,NA,skipped,NA,1000382.5999985,NA,NA,1000301.8999996,1000382.6999989,2023-03-17T12:04:44Z,1000906.433,NULL,NA,NA,NA,NA,NA,NA,NA,dfs,NA,6,NA,NA,NA,NA,NA,NA,NA,NA,NA,NA,NA,NA,NA,NA,NA,NA,NA,NA,NA
fcd50,check continue,flow.Sequence,3_0_7,NA,NA,skipped,NA,1000406.5,NA,NA,1000301.8999996,1000406.6999989,2023-03-17T12:04:44Z,1000906.433,NULL,NA,NA,NA,NA,NA,NA,NA,df,NA,7,NA,NA,NA,NA,NA,NA,NA,NA,NA,NA,NA,NA,NA,NA,NA,NA,NA,NA,NA
fcd50,check continue,flow.Sequence,3_0_8,NA,NA,skipped,NA,1000437.0999985,NA,NA,1000301.8999996,1000437.1999989,2023-03-17T12:04:44Z,1000906.433,NULL,NA,NA,NA,NA,NA,NA,NA,dfs,NA,8,NA,NA,NA,NA,NA,NA,NA,NA,NA,NA,NA,NA,NA,NA,NA,NA,NA,NA,NA
fcd50,check continue,flow.Sequence,3_0_9,NA,NA,skipped,NA,1000458.5999985,NA,NA,1000301.8999996,1000458.7999992,2023-03-17T12:04:44Z,1000906.433,NULL,NA,NA,NA,NA,NA,NA,NA,dsf,NA,9,NA,NA,NA,NA,NA,NA,NA,NA,NA,NA,NA,NA,NA,NA,NA,NA,NA,NA,NA
fcd50,check continue,flow.Sequence,3_0_10,NA,NA,skipped,NA,1000489,NA,NA,1000301.8999996,1000489,2023-03-17T12:04:44Z,1000906.433,NULL,NA,NA,NA,NA,NA,NA,NA,df,NA,10,NA,NA,NA,NA,NA,NA,NA,NA,NA,NA,NA,NA,NA,NA,NA,NA,NA,NA,NA
fcd50,check continue,flow.Sequence,3_0_11,NA,NA,skipped,NA,1000512.2999992,NA,NA,1000301.8999996,1000512.5,2023-03-17T12:04:44Z,1000906.433,NULL,NA,NA,NA,NA,NA,NA,NA,dfs,NA,11,NA,NA,NA,NA,NA,NA,NA,NA,NA,NA,NA,NA,NA,NA,NA,NA,NA,NA,NA
fcd50,check continue,flow.Sequence,3_0_12,NA,NA,skipped,NA,1000548.8999996,NA,NA,1000301.8999996,1000548.8999996,2023-03-17T12:04:44Z,1000906.433,NULL,NA,NA,NA,NA,NA,NA,NA,dsf,NA,12,NA,NA,NA,NA,NA,NA,NA,NA,NA,NA,NA,NA,NA,NA,NA,NA,NA,NA,NA
fcd50,check continue,flow.Sequence,3_0_13,NA,NA,skipped,NA,1000580.0999985,NA,NA,1000301.8999996,1000580.1999989,2023-03-17T12:04:44Z,1000906.433,NULL,NA,NA,NA,NA,NA,NA,NA,dsf,NA,13,NA,NA,NA,NA,NA,NA,NA,NA,NA,NA,NA,NA,NA,NA,NA,NA,NA,NA,NA
fcd50,check continue,flow.Sequence,3_0_14,NA,NA,skipped,NA,1000606.2999992,NA,NA,1000301.8999996,1000606.5,2023-03-17T12:04:45Z,1000906.433,NULL,NA,NA,NA,NA,NA,NA,NA,NA,NA,14,NA,NA,NA,NA,NA,NA,NA,NA,NA,NA,NA,NA,NA,NA,NA,NA,NA,NA,NA
fcd50,check continue,flow.Sequence,3_0_15,NA,NA,skipped,NA,1000625.1999989,NA,NA,1000301.8999996,1000625.2999992,2023-03-17T12:04:45Z,1000906.433,NULL,NA,NA,NA,NA,NA,NA,NA,NA,NA,15,NA,NA,NA,NA,NA,NA,NA,NA,NA,NA,NA,NA,NA,NA,NA,NA,NA,NA,NA
fcd50,check continue,flow.Sequence,3_0_16,NA,NA,skipped,NA,1000645,NA,NA,1000301.8999996,1000645.0999985,2023-03-17T12:04:45Z,1000906.433,NULL,NA,NA,NA,NA,NA,NA,NA,NA,NA,16,NA,NA,NA,NA,NA,NA,NA,NA,NA,NA,NA,NA,NA,NA,NA,NA,NA,NA,NA
fcd50,check continue,flow.Sequence,3_0_17,NA,NA,skipped,NA,1000664.1999989,NA,NA,1000301.8999996,1000664.2999992,2023-03-17T12:04:45Z,1000906.433,NULL,NA,NA,NA,NA,NA,NA,NA,NA,NA,17,NA,NA,NA,NA,NA,NA,NA,NA,NA,NA,NA,NA,NA,NA,NA,NA,NA,NA,NA
fcd50,check continue,flow.Sequence,3_0_18,NA,NA,skipped,NA,1000682.6999989,NA,NA,1000301.8999996,1000682.6999989,2023-03-17T12:04:45Z,1000906.433,NULL,NA,NA,NA,NA,NA,NA,NA,NA,NA,18,NA,NA,NA,NA,NA,NA,NA,NA,NA,NA,NA,NA,NA,NA,NA,NA,NA,NA,NA
fcd50,check continue,flow.Sequence,3_0_19,NA,NA,skipped,NA,1000702.2999992,NA,NA,1000301.8999996,1000702.5,2023-03-17T12:04:45Z,1000906.433,NULL,NA,NA,NA,NA,NA,NA,NA,NA,NA,19,NA,NA,NA,NA,NA,NA,NA,NA,NA,NA,NA,NA,NA,NA,NA,NA,NA,NA,NA
fcd50,check continue,flow.Sequence,3_0_20,NA,NA,skipped,NA,1000721.5999985,NA,NA,1000301.8999996,1000721.6999989,2023-03-17T12:04:45Z,1000906.433,NULL,NA,NA,NA,NA,NA,NA,NA,NA,NA,20,NA,NA,NA,NA,NA,NA,NA,NA,NA,NA,NA,NA,NA,NA,NA,NA,NA,NA,NA
fcd50,check continue,flow.Sequence,3_0_21,NA,NA,skipped,NA,1000741.3999996,NA,NA,1000301.8999996,1000741.3999996,2023-03-17T12:04:45Z,1000906.433,NULL,NA,NA,NA,NA,NA,NA,NA,NA,NA,21,NA,NA,NA,NA,NA,NA,NA,NA,NA,NA,NA,NA,NA,NA,NA,NA,NA,NA,NA
fcd50,check continue,flow.Sequence,3_0_22,NA,NA,skipped,NA,1000761.0999985,NA,NA,1000301.8999996,1000761.1999989,2023-03-17T12:04:45Z,1000906.433,NULL,NA,NA,NA,NA,NA,NA,NA,NA,NA,22,NA,NA,NA,NA,NA,NA,NA,NA,NA,NA,NA,NA,NA,NA,NA,NA,NA,NA,NA
fcd50,check continue,flow.Sequence,3_0_23,NA,NA,skipped,NA,1000781.7999992,NA,NA,1000301.8999996,1000781.8999996,2023-03-17T12:04:45Z,1000906.433,NULL,NA,NA,NA,NA,NA,NA,NA,NA,NA,23,NA,NA,NA,NA,NA,NA,NA,NA,NA,NA,NA,NA,NA,NA,NA,NA,NA,NA,NA
fcd50,check continue,flow.Sequence,3_0_24,NA,NA,skipped,NA,1000801.3999996,NA,NA,1000301.8999996,1000801.5999985,2023-03-17T12:04:45Z,1000906.433,NULL,NA,NA,NA,NA,NA,NA,NA,NA,NA,24,NA,NA,NA,NA,NA,NA,NA,NA,NA,NA,NA,NA,NA,NA,NA,NA,NA,NA,NA
fcd50,check continue,flow.Sequence,3_0_25,NA,NA,skipped,NA,1000822.0999985,NA,NA,1000301.8999996,1000822.1999989,2023-03-17T12:04:45Z,1000906.433,NULL,NA,NA,NA,NA,NA,NA,NA,NA,NA,25,NA,NA,NA,NA,NA,NA,NA,NA,NA,NA,NA,NA,NA,NA,NA,NA,NA,NA,NA
fcd50,check continue,flow.Sequence,3_0_26,NA,NA,skipped,NA,1000840.5999985,NA,NA,1000301.8999996,1000840.5999985,2023-03-17T12:04:45Z,1000906.433,NULL,NA,NA,NA,NA,NA,NA,NA,NA,NA,26,NA,NA,NA,NA,NA,NA,NA,NA,NA,NA,NA,NA,NA,NA,NA,NA,NA,NA,NA
fcd50,check continue,flow.Sequence,3_0_27,NA,NA,skipped,NA,1000860.1999989,NA,NA,1000301.8999996,1000860.1999989,2023-03-17T12:04:45Z,1000906.433,NULL,NA,NA,NA,NA,NA,NA,NA,NA,NA,27,NA,NA,NA,NA,NA,NA,NA,NA,NA,NA,NA,NA,NA,NA,NA,NA,NA,NA,NA
fcd50,check continue,flow.Sequence,3_0_28,NA,NA,skipped,NA,1000877.3999996,NA,NA,1000301.8999996,1000877.5,2023-03-17T12:04:45Z,1000906.433,NULL,NA,NA,NA,NA,NA,NA,NA,NA,NA,28,NA,NA,NA,NA,NA,NA,NA,NA,NA,NA,NA,NA,NA,NA,NA,NA,NA,NA,NA
fcd50,check continue,flow.Sequence,3_0_29,NA,NA,skipped,NA,1000902.5999985,NA,NA,1000301.8999996,1000902.6999989,2023-03-17T12:04:45Z,1000906.433,NULL,NA,NA,NA,NA,NA,NA,NA,NA,NA,29,NA,NA,NA,NA,NA,NA,NA,NA,NA,NA,NA,NA,NA,NA,NA,NA,NA,NA,NA
fcd50,until continue,flow.Loop,3_0,NA,NA,completion,531525.66399962,468749.39999962,468758.897,468776.236,1000301.8999996,1000903,2023-03-17T12:04:45Z,1000906.433,NULL,NA,NA,NA,NA,NA,NA,NA,NA,NA,NA,NA,NA,NA,NA,NA,NA,NA,NA,NA,NA,NA,NA,NA,NA,NA,NA,NA,NA,NA
fcd50,block 1,flow.Sequence,3,NA,NA,completion,531525.66399962,468749.39999962,468758.897,468776.236,1000301.8999996,1000903.0999985,2023-03-17T12:04:45Z,1000906.433,NULL,NA,NA,NA,NA,NA,NA,NA,NA,NA,NA,NA,NA,NA,NA,NA,NA,NA,NA,NA,NA,NA,NA,NA,NA,NA,NA,NA,NA,NA
fcd50,1.Part Over,canvas.Screen,4,NA,keypress(Space),response,3800.4669996186,1000903.0999985,1000890.398,1000906.433,1004706.8999996,1004707.3999996,2023-03-17T12:04:49Z,1004786.773,NULL,NA,NA,NA,NA,NA,NA,NA,NA,NA,NA,NA,NA,NA,NA,NA,NA,NA,NA,NA,NA,NA,NA,NA,NA,NA,NA,NA,NA,NA
fcd50,Deep Question,html.Page,5_0_0_0_0_0_0,NA,NA,form submission,6912.6269996185,1004776.0999985,1004769.723,1004786.773,1011699.3999996,1011699.5999985,2023-03-17T12:04:56Z,1011714.234,NULL,Vorsorge,tahadhari,d,NA,NA,NA,roegr,NA,NA,0,NA,NA,NA,NA,NA,NA,NA,NA,NA,NA,NA,NA,NA,NA,NA,NA,NA,NA,NA
fcd50,"""Richtig""-Screen",canvas.Screen,5_0_0_0_0_0_1,NA,NA,skipped,NA,1011701.5999985,NA,NA,1011699.3999996,1011701.7999992,2023-03-17T12:04:56Z,1011714.234,NULL,Vorsorge,tahadhari,d,NA,NA,NA,NA,sdf,NA,0,NA,NA,NA,NA,NA,NA,NA,NA,NA,NA,NA,NA,NA,NA,NA,NA,NA,NA,NA
fcd50,"""Falsch""-Screen",canvas.Screen,5_0_0_0_0_0_2,NA,NA,timeout,4996.5429999999,1011702.5999985,1011698.155,1011714.234,1016694.094,1016694.7999992,2023-03-17T12:05:01Z,1016710.777,NULL,Vorsorge,tahadhari,d,NA,NA,NA,NA,sdf,0,0,NA,NA,NA,NA,NA,NA,NA,NA,NA,NA,NA,NA,NA,NA,NA,NA,NA,NA,NA
fcd50,deep,flow.Sequence,5_0_0_0_0_0,NA,NA,completion,11907.321,1004776.0999985,1004769.723,1004786.773,1016694.094,1016695.0999985,2023-03-17T12:05:01Z,1016710.777,NULL,Vorsorge,tahadhari,d,NA,NA,NA,NA,sdf,NA,0,NA,NA,NA,NA,NA,NA,NA,NA,NA,NA,NA,NA,NA,NA,NA,NA,NA,NA,NA
fcd50,shallow,flow.Sequence,5_0_0_0_0_1,NA,NA,skipped,NA,1016695.0999985,NA,NA,1016694.094,1016695.2999992,2023-03-17T12:05:01Z,1016710.777,NULL,Vorsorge,tahadhari,d,NA,NA,NA,NA,sdf,NA,0,NA,NA,NA,NA,NA,NA,NA,NA,NA,NA,NA,NA,NA,NA,NA,NA,NA,NA,NA
fcd50,task,flow.Sequence,5_0_0_0_0,NA,NA,completion,11907.321,1004776.0999985,1004769.723,1004786.773,1016694.094,1016695.5,2023-03-17T12:05:01Z,1016710.777,NULL,Vorsorge,tahadhari,d,NA,NA,NA,NA,sdf,NA,0,NA,NA,NA,NA,NA,NA,NA,NA,NA,NA,NA,NA,NA,NA,NA,NA,NA,NA,NA
fcd50,Deep Question,html.Page,5_0_0_0_1_0_0,NA,NA,form submission,7236.9229988556,1016695.5999985,1016694.094,1016710.777,1023947.6999989,1023948,2023-03-17T12:05:08Z,1023954.198,NULL,Konkurrent,mshindani,d,NA,NA,NA,kogera,NA,NA,0,NA,NA,NA,NA,NA,NA,NA,NA,NA,NA,NA,NA,NA,NA,NA,NA,NA,NA,NA
fcd50,"""Richtig""-Screen",canvas.Screen,5_0_0_0_1_0_1,NA,NA,skipped,NA,1023951.3999996,NA,NA,1023947.6999989,1023951.5,2023-03-17T12:05:08Z,1023954.198,NULL,Konkurrent,mshindani,d,NA,NA,NA,NA,sdf,NA,0,NA,NA,NA,NA,NA,NA,NA,NA,NA,NA,NA,NA,NA,NA,NA,NA,NA,NA,NA
fcd50,"""Falsch""-Screen",canvas.Screen,5_0_0_0_1_0_2,NA,NA,timeout,4995.92,1023952.5,1023937.574,1023954.198,1028933.459,1028933.8999996,2023-03-17T12:05:13Z,1028950.118,NULL,Konkurrent,mshindani,d,NA,NA,NA,NA,sdf,0,0,NA,NA,NA,NA,NA,NA,NA,NA,NA,NA,NA,NA,NA,NA,NA,NA,NA,NA,NA
fcd50,deep,flow.Sequence,5_0_0_0_1_0,NA,NA,completion,12222.682,1016695.5999985,1016694.094,1016710.777,1028933.459,1028934.0999985,2023-03-17T12:05:13Z,1028950.118,NULL,Konkurrent,mshindani,d,NA,NA,NA,NA,sdf,NA,0,NA,NA,NA,NA,NA,NA,NA,NA,NA,NA,NA,NA,NA,NA,NA,NA,NA,NA,NA
fcd50,shallow,flow.Sequence,5_0_0_0_1_1,NA,NA,skipped,NA,1028934.1999989,NA,NA,1028933.459,1028934.2999992,2023-03-17T12:05:13Z,1028950.118,NULL,Konkurrent,mshindani,d,NA,NA,NA,NA,sdf,NA,0,NA,NA,NA,NA,NA,NA,NA,NA,NA,NA,NA,NA,NA,NA,NA,NA,NA,NA,NA
fcd50,task,flow.Sequence,5_0_0_0_1,NA,NA,completion,12222.682,1016695.5999985,1016694.094,1016710.777,1028933.459,1028934.3999996,2023-03-17T12:05:13Z,1028950.118,NULL,Konkurrent,mshindani,d,NA,NA,NA,NA,sdf,NA,0,NA,NA,NA,NA,NA,NA,NA,NA,NA,NA,NA,NA,NA,NA,NA,NA,NA,NA,NA
fcd50,deep,flow.Sequence,5_0_0_0_2_0,NA,NA,skipped,NA,1028934.5,NA,NA,1028933.459,1028934.5999985,2023-03-17T12:05:13Z,1028950.118,NULL,Spionage,upelelezi,s,maslahi,utokazo,magangao,NA,sdf,NA,0,NA,NA,NA,NA,NA,NA,NA,NA,NA,NA,NA,NA,NA,NA,NA,NA,NA,NA,NA
fcd50,Shallow Question,html.Page,5_0_0_0_2_1_0,NA,NA,form submission,7669.5819988556,1028934.6999989,1028933.459,1028950.118,1036619.6999989,1036620.3999996,2023-03-17T12:05:21Z,1036627.212,NULL,Spionage,upelelezi,s,maslahi,utokazo,magangao,upelelezi,NA,NA,0,NA,NA,NA,NA,NA,NA,NA,NA,NA,NA,NA,NA,NA,NA,NA,NA,NA,NA,NA
fcd50,"""Richtig""-Screen",canvas.Screen,5_0_0_0_2_1_1,NA,NA,timeout,4995.8359999999,1036630.5999985,1036610.529,1036627.212,1041606.407,1041606.7999992,2023-03-17T12:05:26Z,1041623.048,NULL,Spionage,upelelezi,s,maslahi,utokazo,magangao,NA,sdf,1,0,NA,NA,NA,NA,NA,NA,NA,NA,NA,NA,NA,NA,NA,NA,NA,NA,NA,NA,NA
fcd50,"""Falsch""-Screen",canvas.Screen,5_0_0_0_2_1_2,NA,NA,skipped,NA,1041608.7999992,NA,NA,1041606.407,1041609,2023-03-17T12:05:26Z,1041623.048,NULL,Spionage,upelelezi,s,maslahi,utokazo,magangao,NA,sdf,NA,0,NA,NA,NA,NA,NA,NA,NA,NA,NA,NA,NA,NA,NA,NA,NA,NA,NA,NA,NA
fcd50,shallow,flow.Sequence,5_0_0_0_2_1,NA,NA,completion,12656.289,1028934.5999985,1028933.459,1028950.118,1041606.407,1041609.0999985,2023-03-17T12:05:26Z,1041623.048,NULL,Spionage,upelelezi,s,maslahi,utokazo,magangao,NA,sdf,NA,0,NA,NA,NA,NA,NA,NA,NA,NA,NA,NA,NA,NA,NA,NA,NA,NA,NA,NA,NA
fcd50,task,flow.Sequence,5_0_0_0_2,NA,NA,completion,12656.289,1028934.5,1028933.459,1028950.118,1041606.407,1041609.1999989,2023-03-17T12:05:26Z,1041623.048,NULL,Spionage,upelelezi,s,maslahi,utokazo,magangao,NA,sdf,NA,0,NA,NA,NA,NA,NA,NA,NA,NA,NA,NA,NA,NA,NA,NA,NA,NA,NA,NA,NA
fcd50,deep,flow.Sequence,5_0_0_0_3_0,NA,NA,skipped,NA,1041609.2999992,NA,NA,1041606.407,1041609.2999992,2023-03-17T12:05:26Z,1041623.048,NULL,Zuwachs,nyongeza,s,matilaba,udhibiti,hudhurio,NA,sdf,NA,0,NA,NA,NA,NA,NA,NA,NA,NA,NA,NA,NA,NA,NA,NA,NA,NA,NA,NA,NA
fcd50,Shallow Question,html.Page,5_0_0_0_3_1_0,NA,NA,form submission,9542.6519988556,1041609.3999996,1041606.407,1041623.048,1051165.6999989,1051165.8999996,2023-03-17T12:05:35Z,1051195.183,NULL,Zuwachs,nyongeza,s,matilaba,udhibiti,hudhurio,matilaba,NA,NA,0,NA,NA,NA,NA,NA,NA,NA,NA,NA,NA,NA,NA,NA,NA,NA,NA,NA,NA,NA
fcd50,"""Richtig""-Screen",canvas.Screen,5_0_0_0_3_1_1,NA,NA,skipped,NA,1051167.6999989,NA,NA,1051165.6999989,1051167.8999996,2023-03-17T12:05:35Z,1051195.183,NULL,Zuwachs,nyongeza,s,matilaba,udhibiti,hudhurio,NA,sdf,NA,0,NA,NA,NA,NA,NA,NA,NA,NA,NA,NA,NA,NA,NA,NA,NA,NA,NA,NA,NA
fcd50,"""Falsch""-Screen",canvas.Screen,5_0_0_0_3_1_2,NA,NA,timeout,4999.246,1051168.5999985,1051148.895,1051195.183,1056177.787,1056178.1999989,2023-03-17T12:05:40Z,1056194.429,NULL,Zuwachs,nyongeza,s,matilaba,udhibiti,hudhurio,NA,sdf,0,0,NA,NA,NA,NA,NA,NA,NA,NA,NA,NA,NA,NA,NA,NA,NA,NA,NA,NA,NA
fcd50,shallow,flow.Sequence,5_0_0_0_3_1,NA,NA,completion,14554.739,1041609.3999996,1041606.407,1041623.048,1056177.787,1056178.5,2023-03-17T12:05:40Z,1056194.429,NULL,Zuwachs,nyongeza,s,matilaba,udhibiti,hudhurio,NA,sdf,NA,0,NA,NA,NA,NA,NA,NA,NA,NA,NA,NA,NA,NA,NA,NA,NA,NA,NA,NA,NA
fcd50,task,flow.Sequence,5_0_0_0_3,NA,NA,completion,14554.739,1041609.1999989,1041606.407,1041623.048,1056177.787,1056178.5999985,2023-03-17T12:05:40Z,1056194.429,NULL,Zuwachs,nyongeza,s,matilaba,udhibiti,hudhurio,NA,sdf,NA,0,NA,NA,NA,NA,NA,NA,NA,NA,NA,NA,NA,NA,NA,NA,NA,NA,NA,NA,NA
fcd50,deep,flow.Sequence,5_0_0_0_4_0,NA,NA,skipped,NA,1056178.6999989,NA,NA,1056177.787,1056178.7999992,2023-03-17T12:05:40Z,1056194.429,NULL,Fenster,dirisha,s,walakini,tasawari,maarifa,NA,sdf,NA,0,NA,NA,NA,NA,NA,NA,NA,NA,NA,NA,NA,NA,NA,NA,NA,NA,NA,NA,NA
fcd50,Shallow Question,html.Page,5_0_0_0_4_1_0,NA,NA,form submission,7113.4709996185,1056178.8999996,1056177.787,1056194.429,1063307.8999996,1063308,2023-03-17T12:05:47Z,1063321.91,NULL,Fenster,dirisha,s,walakini,tasawari,maarifa,tasawari,NA,NA,0,NA,NA,NA,NA,NA,NA,NA,NA,NA,NA,NA,NA,NA,NA,NA,NA,NA,NA,NA
fcd50,"""Richtig""-Screen",canvas.Screen,5_0_0_0_4_1_1,NA,NA,skipped,NA,1063309.8999996,NA,NA,1063307.8999996,1063310.0999985,2023-03-17T12:05:47Z,1063321.91,NULL,Fenster,dirisha,s,walakini,tasawari,maarifa,NA,sdf,NA,0,NA,NA,NA,NA,NA,NA,NA,NA,NA,NA,NA,NA,NA,NA,NA,NA,NA,NA,NA
fcd50,"""Falsch""-Screen",canvas.Screen,5_0_0_0_4_1_2,NA,NA,timeout,4996.2510000002,1063310.6999989,1063305.27,1063321.91,1068301.176,1068301.5999985,2023-03-17T12:05:52Z,1068318.161,NULL,Fenster,dirisha,s,walakini,tasawari,maarifa,NA,sdf,0,0,NA,NA,NA,NA,NA,NA,NA,NA,NA,NA,NA,NA,NA,NA,NA,NA,NA,NA,NA
fcd50,shallow,flow.Sequence,5_0_0_0_4_1,NA,NA,completion,12106.747,1056178.8999996,1056177.787,1056194.429,1068301.176,1068301.8999996,2023-03-17T12:05:52Z,1068318.161,NULL,Fenster,dirisha,s,walakini,tasawari,maarifa,NA,sdf,NA,0,NA,NA,NA,NA,NA,NA,NA,NA,NA,NA,NA,NA,NA,NA,NA,NA,NA,NA,NA
fcd50,task,flow.Sequence,5_0_0_0_4,NA,NA,completion,12106.747,1056178.6999989,1056177.787,1056194.429,1068301.176,1068302,2023-03-17T12:05:52Z,1068318.161,NULL,Fenster,dirisha,s,walakini,tasawari,maarifa,NA,sdf,NA,0,NA,NA,NA,NA,NA,NA,NA,NA,NA,NA,NA,NA,NA,NA,NA,NA,NA,NA,NA
fcd50,deep,flow.Sequence,5_0_0_0_5_0,NA,NA,skipped,NA,1068302.1999989,NA,NA,1068301.176,1068302.1999989,2023-03-17T12:05:52Z,1068318.161,NULL,Symbol,kielezo,s,kinyume,nderemo,utayari,NA,sdf,NA,0,NA,NA,NA,NA,NA,NA,NA,NA,NA,NA,NA,NA,NA,NA,NA,NA,NA,NA,NA
fcd50,Shallow Question,html.Page,5_0_0_0_5_1_0,NA,NA,form submission,7428.0389988555,1068302.2999992,1068301.176,1068318.161,1075746.1999989,1075746.6999989,2023-03-17T12:06:00Z,1075774.65,NULL,Symbol,kielezo,s,kinyume,nderemo,utayari,kielezo,NA,NA,0,NA,NA,NA,NA,NA,NA,NA,NA,NA,NA,NA,NA,NA,NA,NA,NA,NA,NA,NA
fcd50,"""Richtig""-Screen",canvas.Screen,5_0_0_0_5_1_1,NA,NA,timeout,4999.6330000001,1075750.3999996,1075728.974,1075774.65,1080757.623,1080758,2023-03-17T12:06:05Z,1080774.283,NULL,Symbol,kielezo,s,kinyume,nderemo,utayari,NA,sdf,1,0,NA,NA,NA,NA,NA,NA,NA,NA,NA,NA,NA,NA,NA,NA,NA,NA,NA,NA,NA
fcd50,"""Falsch""-Screen",canvas.Screen,5_0_0_0_5_1_2,NA,NA,skipped,NA,1080760.2999992,NA,NA,1080757.623,1080760.5,2023-03-17T12:06:05Z,1080774.283,NULL,Symbol,kielezo,s,kinyume,nderemo,utayari,NA,sdf,NA,0,NA,NA,NA,NA,NA,NA,NA,NA,NA,NA,NA,NA,NA,NA,NA,NA,NA,NA,NA
fcd50,shallow,flow.Sequence,5_0_0_0_5_1,NA,NA,completion,12439.462,1068302.2999992,1068301.176,1068318.161,1080757.623,1080760.6999989,2023-03-17T12:06:05Z,1080774.283,NULL,Symbol,kielezo,s,kinyume,nderemo,utayari,NA,sdf,NA,0,NA,NA,NA,NA,NA,NA,NA,NA,NA,NA,NA,NA,NA,NA,NA,NA,NA,NA,NA
fcd50,task,flow.Sequence,5_0_0_0_5,NA,NA,completion,12439.462,1068302.0999985,1068301.176,1068318.161,1080757.623,1080760.7999992,2023-03-17T12:06:05Z,1080774.283,NULL,Symbol,kielezo,s,kinyume,nderemo,utayari,NA,sdf,NA,0,NA,NA,NA,NA,NA,NA,NA,NA,NA,NA,NA,NA,NA,NA,NA,NA,NA,NA,NA
fcd50,Deep Question,html.Page,5_0_0_0_6_0_0,NA,NA,form submission,7412.8169984741,1080760.8999996,1080757.623,1080774.283,1088187.0999985,1088187.6999989,2023-03-17T12:06:12Z,1088201.498,NULL,Schüler,mwanafunzi,d,NA,NA,NA,maggal,NA,NA,0,NA,NA,NA,NA,NA,NA,NA,NA,NA,NA,NA,NA,NA,NA,NA,NA,NA,NA,NA
fcd50,"""Richtig""-Screen",canvas.Screen,5_0_0_0_6_0_1,NA,NA,skipped,NA,1088193,NA,NA,1088187.0999985,1088193.1999989,2023-03-17T12:06:12Z,1088201.498,NULL,Schüler,mwanafunzi,d,NA,NA,NA,NA,sdf,NA,0,NA,NA,NA,NA,NA,NA,NA,NA,NA,NA,NA,NA,NA,NA,NA,NA,NA,NA,NA
