observation,sender,sender_type,sender_id,response,response_action,ended_on,duration,time_run,time_render,time_show,time_end,time_commit,timestamp,time_switch,german,swahili,enc,distractor1,distractor2,distractor3,response_2,x,correct,distractors,url_vp,url_sess,meta_labjs_version,meta_location,meta_user_agent,meta_platform,meta_language,meta_locale,meta_time_zone,meta_timezone_offset,meta_screen_width,meta_screen_height,meta_scroll_width,meta_scroll_height,meta_window_inner_width,meta_window_inner_height,meta_device_pixel_ratio,meta_labjs_build_flavor,meta_labjs_build_commit
bd04e,Introduction delayed retrieval,canvas.Screen,0,weiter,keypress(Space),response,26556.300000381,447.10000038147,436.626,453.3,27009.600000381,27015.200000763,2024-05-16T10:42:06Z,27020.1,NA,NA,NA,NA,NA,NA,NA,NA,NA,NULL,158,4,20.2.4,https://neurocog.fernuni.ch/studies/vweber/jbaenninger/delayed%203/index.html?vp=158&sess=4,"Mozilla/5.0 (Windows NT 10.0; Win64; x64) AppleWebKit/537.36 (KHTML, like Gecko) Chrome/124.0.0.0 Safari/537.36 Edg/124.0.0.0",Win32,de,de-CH,Europe/Zurich,-120,1920,1080,1872,910,1872,958,1,production,f5b4a49f956347addd546a832a3327688c2c0fef
bd04e,Deep Question,html.Page,1_0_0_0,NA,NA,form submission,10714.799999619,27015.600000381,27002.238,27020.1,37734.899999619,37735.200000763,2024-05-16T10:42:17Z,37736.794,Spionage,upelelezi,d,maslahi,utokazo,magangao,dihindi,NA,NA,NULL,NA,NA,NA,NA,NA,NA,NA,NA,NA,NA,NA,NA,NA,NA,NA,NA,NA,NA,NA
bd04e,Save data screen,canvas.Screen,1_0_0_1,NA,NA,timeout,500.006,37736.200000763,37736.794,37736.794,38220.2,38221.399999619,2024-05-16T10:42:18Z,38236.8,Spionage,upelelezi,d,maslahi,utokazo,magangao,NA,NA,0,NULL,NA,NA,NA,NA,NA,NA,NA,NA,NA,NA,NA,NA,NA,NA,NA,NA,NA,NA,NA
bd04e,deep,flow.Sequence,1_0_0,NA,NA,completion,11200.1,27015.5,27002.238,27020.1,38220.2,38221.800001144,2024-05-16T10:42:18Z,38236.8,Spionage,upelelezi,d,maslahi,utokazo,magangao,NA,NA,NA,NULL,NA,NA,NA,NA,NA,NA,NA,NA,NA,NA,NA,NA,NA,NA,NA,NA,NA,NA,NA
bd04e,task,flow.Sequence,1_0,NA,NA,completion,11200.1,27015.5,27002.238,27020.1,38220.2,38222,2024-05-16T10:42:18Z,38236.8,Spionage,upelelezi,d,maslahi,utokazo,magangao,NA,NA,NA,NULL,NA,NA,NA,NA,NA,NA,NA,NA,NA,NA,NA,NA,NA,NA,NA,NA,NA,NA,NA
bd04e,Deep Question,html.Page,1_1_0_0,NA,NA,form submission,5521.5999996185,38222.300001144,38220.2,38236.8,43758.399999619,43758.600000381,2024-05-16T10:42:23Z,43770.1,Schlange,foleni,d,uvumilivu,uteuzi,muuzaji,eqwpoi,NA,NA,NULL,NA,NA,NA,NA,NA,NA,NA,NA,NA,NA,NA,NA,NA,NA,NA,NA,NA,NA,NA
bd04e,Save data screen,canvas.Screen,1_1_0_1,NA,NA,timeout,499.8,43760.5,43753.51,43770.1,44253.3,44254.300001144,2024-05-16T10:42:24Z,44269.9,Schlange,foleni,d,uvumilivu,uteuzi,muuzaji,NA,NA,0,NULL,NA,NA,NA,NA,NA,NA,NA,NA,NA,NA,NA,NA,NA,NA,NA,NA,NA,NA,NA
bd04e,deep,flow.Sequence,1_1_0,NA,NA,completion,6016.5,38222.200000763,38220.2,38236.8,44253.3,44254.600000381,2024-05-16T10:42:24Z,44269.9,Schlange,foleni,d,uvumilivu,uteuzi,muuzaji,NA,NA,NA,NULL,NA,NA,NA,NA,NA,NA,NA,NA,NA,NA,NA,NA,NA,NA,NA,NA,NA,NA,NA
bd04e,task,flow.Sequence,1_1,NA,NA,completion,6016.5,38222.100000381,38220.2,38236.8,44253.3,44254.800001144,2024-05-16T10:42:24Z,44269.9,Schlange,foleni,d,uvumilivu,uteuzi,muuzaji,NA,NA,NA,NULL,NA,NA,NA,NA,NA,NA,NA,NA,NA,NA,NA,NA,NA,NA,NA,NA,NA,NA,NA
bd04e,Deep Question,html.Page,1_2_0_0,NA,NA,form submission,4394.4999996185,44255.100000381,44253.3,44269.9,48664.399999619,48664.700000763,2024-05-16T10:42:28Z,48669.9,Vermutung,udhanifu,s,haramia,tikisho,itifaki,epofdk,NA,NA,NULL,NA,NA,NA,NA,NA,NA,NA,NA,NA,NA,NA,NA,NA,NA,NA,NA,NA,NA,NA
bd04e,Save data screen,canvas.Screen,1_2_0_1,NA,NA,timeout,500.3,48666.200000763,48653.48,48669.9,49153.5,49154.600000381,2024-05-16T10:42:29Z,49170.2,Vermutung,udhanifu,s,haramia,tikisho,itifaki,NA,NA,0,NULL,NA,NA,NA,NA,NA,NA,NA,NA,NA,NA,NA,NA,NA,NA,NA,NA,NA,NA,NA
bd04e,deep,flow.Sequence,1_2_0,NA,NA,completion,4883.6,44255.100000381,44253.3,44269.9,49153.5,49155,2024-05-16T10:42:29Z,49170.2,Vermutung,udhanifu,s,haramia,tikisho,itifaki,NA,NA,NA,NULL,NA,NA,NA,NA,NA,NA,NA,NA,NA,NA,NA,NA,NA,NA,NA,NA,NA,NA,NA
bd04e,task,flow.Sequence,1_2,NA,NA,completion,4883.6,44255,44253.3,44269.9,49153.5,49155.200000763,2024-05-16T10:42:29Z,49170.2,Vermutung,udhanifu,s,haramia,tikisho,itifaki,NA,NA,NA,NULL,NA,NA,NA,NA,NA,NA,NA,NA,NA,NA,NA,NA,NA,NA,NA,NA,NA,NA,NA
bd04e,Deep Question,html.Page,1_3_0_0,NA,NA,form submission,5583.3,49155.399999619,49153.5,49170.2,54753.5,54753.600000381,2024-05-16T10:42:34Z,54770.4,Vergnügen,kichekesho,s,dubwana,mpanuko,mtesaji,ckjpo,NA,NA,NULL,NA,NA,NA,NA,NA,NA,NA,NA,NA,NA,NA,NA,NA,NA,NA,NA,NA,NA,NA
bd04e,Save data screen,canvas.Screen,1_3_0_1,NA,NA,timeout,499.7,54755.200000763,54753.524,54770.4,55253.3,55254.100000381,2024-05-16T10:42:35Z,55270.1,Vergnügen,kichekesho,s,dubwana,mpanuko,mtesaji,NA,NA,0,NULL,NA,NA,NA,NA,NA,NA,NA,NA,NA,NA,NA,NA,NA,NA,NA,NA,NA,NA,NA
bd04e,deep,flow.Sequence,1_3_0,NA,NA,completion,6083.1,49155.300001144,49153.5,49170.2,55253.3,55254.300001144,2024-05-16T10:42:35Z,55270.1,Vergnügen,kichekesho,s,dubwana,mpanuko,mtesaji,NA,NA,NA,NULL,NA,NA,NA,NA,NA,NA,NA,NA,NA,NA,NA,NA,NA,NA,NA,NA,NA,NA,NA
bd04e,task,flow.Sequence,1_3,NA,NA,completion,6083.1,49155.200000763,49153.5,49170.2,55253.3,55254.700000763,2024-05-16T10:42:35Z,55270.1,Vergnügen,kichekesho,s,dubwana,mpanuko,mtesaji,NA,NA,NA,NULL,NA,NA,NA,NA,NA,NA,NA,NA,NA,NA,NA,NA,NA,NA,NA,NA,NA,NA,NA
bd04e,Deep Question,html.Page,1_4_0_0,NA,NA,form submission,4486.2999996185,55254.899999619,55253.3,55270.1,59756.399999619,59756.600000381,2024-05-16T10:42:39Z,59770,Theorie,nadharia,d,ushungi,mkutano,uwakilishi,wepdoipo,NA,NA,NULL,NA,NA,NA,NA,NA,NA,NA,NA,NA,NA,NA,NA,NA,NA,NA,NA,NA,NA,NA
bd04e,Save data screen,canvas.Screen,1_4_0_1,NA,NA,timeout,500.2,59758.100000381,59753.486,59770,60253.5,60254.300001144,2024-05-16T10:42:40Z,60270.2,Theorie,nadharia,d,ushungi,mkutano,uwakilishi,NA,NA,0,NULL,NA,NA,NA,NA,NA,NA,NA,NA,NA,NA,NA,NA,NA,NA,NA,NA,NA,NA,NA
bd04e,deep,flow.Sequence,1_4_0,NA,NA,completion,4983.4,55254.800001144,55253.3,55270.1,60253.5,60254.5,2024-05-16T10:42:40Z,60270.2,Theorie,nadharia,d,ushungi,mkutano,uwakilishi,NA,NA,NA,NULL,NA,NA,NA,NA,NA,NA,NA,NA,NA,NA,NA,NA,NA,NA,NA,NA,NA,NA,NA
bd04e,task,flow.Sequence,1_4,NA,NA,completion,4983.4,55254.800001144,55253.3,55270.1,60253.5,60254.700000763,2024-05-16T10:42:40Z,60270.2,Theorie,nadharia,d,ushungi,mkutano,uwakilishi,NA,NA,NA,NULL,NA,NA,NA,NA,NA,NA,NA,NA,NA,NA,NA,NA,NA,NA,NA,NA,NA,NA,NA
bd04e,Deep Question,html.Page,1_5_0_0,NA,NA,form submission,10539.100001144,60254.899999619,60253.5,60270.2,70809.300001144,70809.5,2024-05-16T10:42:50Z,70820,Schüler,mwanafunzi,s,mwekezaji,matumizi,uaminifu,qwedlpookl,NA,NA,NULL,NA,NA,NA,NA,NA,NA,NA,NA,NA,NA,NA,NA,NA,NA,NA,NA,NA,NA,NA
bd04e,Save data screen,canvas.Screen,1_5_0_1,NA,NA,timeout,500.10000000001,70811.200000763,70803.49,70820,71303.4,71304.300001144,2024-05-16T10:42:51Z,71320.1,Schüler,mwanafunzi,s,mwekezaji,matumizi,uaminifu,NA,NA,0,NULL,NA,NA,NA,NA,NA,NA,NA,NA,NA,NA,NA,NA,NA,NA,NA,NA,NA,NA,NA
bd04e,deep,flow.Sequence,1_5_0,NA,NA,completion,11033.2,60254.800001144,60253.5,60270.2,71303.4,71304.5,2024-05-16T10:42:51Z,71320.1,Schüler,mwanafunzi,s,mwekezaji,matumizi,uaminifu,NA,NA,NA,NULL,NA,NA,NA,NA,NA,NA,NA,NA,NA,NA,NA,NA,NA,NA,NA,NA,NA,NA,NA
bd04e,task,flow.Sequence,1_5,NA,NA,completion,11033.2,60254.800001144,60253.5,60270.2,71303.4,71304.700000763,2024-05-16T10:42:51Z,71320.1,Schüler,mwanafunzi,s,mwekezaji,matumizi,uaminifu,NA,NA,NA,NULL,NA,NA,NA,NA,NA,NA,NA,NA,NA,NA,NA,NA,NA,NA,NA,NA,NA,NA,NA
bd04e,Deep Question,html.Page,1_6_0_0,NA,NA,form submission,5597.7000011444,71304.899999619,71303.4,71320.1,76917.800001144,76918,2024-05-16T10:42:56Z,76920.154,Ergänzung,kijalizo,d,ulaghai,mustarehe,matangazo,wretgsdfv,NA,NA,NULL,NA,NA,NA,NA,NA,NA,NA,NA,NA,NA,NA,NA,NA,NA,NA,NA,NA,NA,NA
bd04e,Save data screen,canvas.Screen,1_6_0_1,NA,NA,timeout,499.94600000001,76919.399999619,76920.154,76920.154,77403.4,77404.100000381,2024-05-16T10:42:57Z,77420.1,Ergänzung,kijalizo,d,ulaghai,mustarehe,matangazo,NA,NA,0,NULL,NA,NA,NA,NA,NA,NA,NA,NA,NA,NA,NA,NA,NA,NA,NA,NA,NA,NA,NA
bd04e,deep,flow.Sequence,1_6_0,NA,NA,completion,6083.3,71304.899999619,71303.4,71320.1,77403.4,77404.399999619,2024-05-16T10:42:57Z,77420.1,Ergänzung,kijalizo,d,ulaghai,mustarehe,matangazo,NA,NA,NA,NULL,NA,NA,NA,NA,NA,NA,NA,NA,NA,NA,NA,NA,NA,NA,NA,NA,NA,NA,NA
bd04e,task,flow.Sequence,1_6,NA,NA,completion,6083.3,71304.899999619,71303.4,71320.1,77403.4,77404.5,2024-05-16T10:42:57Z,77420.1,Ergänzung,kijalizo,d,ulaghai,mustarehe,matangazo,NA,NA,NA,NULL,NA,NA,NA,NA,NA,NA,NA,NA,NA,NA,NA,NA,NA,NA,NA,NA,NA,NA,NA
bd04e,Deep Question,html.Page,1_7_0_0,NA,NA,form submission,14814.299999619,77404.700000763,77403.4,77420.1,92234.399999619,92234.600000381,2024-05-16T10:43:12Z,92236.81,Notfall,dharura,s,rairai,malalamiko,ahueni,deheruru,NA,NA,NULL,NA,NA,NA,NA,NA,NA,NA,NA,NA,NA,NA,NA,NA,NA,NA,NA,NA,NA,NA
bd04e,Save data screen,canvas.Screen,1_7_0_1,NA,NA,timeout,499.99000000001,92236.200000763,92236.81,92236.81,92720.1,92720.899999619,2024-05-16T10:43:12Z,92736.8,Notfall,dharura,s,rairai,malalamiko,ahueni,NA,NA,0,NULL,NA,NA,NA,NA,NA,NA,NA,NA,NA,NA,NA,NA,NA,NA,NA,NA,NA,NA,NA
bd04e,deep,flow.Sequence,1_7_0,NA,NA,completion,15300,77404.700000763,77403.4,77420.1,92720.1,92721.200000763,2024-05-16T10:43:12Z,92736.8,Notfall,dharura,s,rairai,malalamiko,ahueni,NA,NA,NA,NULL,NA,NA,NA,NA,NA,NA,NA,NA,NA,NA,NA,NA,NA,NA,NA,NA,NA,NA,NA
bd04e,task,flow.Sequence,1_7,NA,NA,completion,15300,77404.600000381,77403.4,77420.1,92720.1,92721.300001144,2024-05-16T10:43:12Z,92736.8,Notfall,dharura,s,rairai,malalamiko,ahueni,NA,NA,NA,NULL,NA,NA,NA,NA,NA,NA,NA,NA,NA,NA,NA,NA,NA,NA,NA,NA,NA,NA,NA
bd04e,Deep Question,html.Page,1_8_0_0,NA,NA,form submission,8141.3000003815,92721.5,92720.1,92736.8,100878.10000038,100878.39999962,2024-05-16T10:43:20Z,100886.7,Hoffnung,matarajio,s,kutaalamika,uratibu,mvumbuzi,ekomoek,NA,NA,NULL,NA,NA,NA,NA,NA,NA,NA,NA,NA,NA,NA,NA,NA,NA,NA,NA,NA,NA,NA
bd04e,Save data screen,canvas.Screen,1_8_0_1,NA,NA,timeout,500,100880,100870.122,100886.7,101370,101370.89999962,2024-05-16T10:43:21Z,101386.7,Hoffnung,matarajio,s,kutaalamika,uratibu,mvumbuzi,NA,NA,0,NULL,NA,NA,NA,NA,NA,NA,NA,NA,NA,NA,NA,NA,NA,NA,NA,NA,NA,NA,NA
bd04e,deep,flow.Sequence,1_8_0,NA,NA,completion,8633.2,92721.399999619,92720.1,92736.8,101370,101371.10000038,2024-05-16T10:43:21Z,101386.7,Hoffnung,matarajio,s,kutaalamika,uratibu,mvumbuzi,NA,NA,NA,NULL,NA,NA,NA,NA,NA,NA,NA,NA,NA,NA,NA,NA,NA,NA,NA,NA,NA,NA,NA
bd04e,task,flow.Sequence,1_8,NA,NA,completion,8633.2,92721.399999619,92720.1,92736.8,101370,101371.30000114,2024-05-16T10:43:21Z,101386.7,Hoffnung,matarajio,s,kutaalamika,uratibu,mvumbuzi,NA,NA,NA,NULL,NA,NA,NA,NA,NA,NA,NA,NA,NA,NA,NA,NA,NA,NA,NA,NA,NA,NA,NA
bd04e,Deep Question,html.Page,1_9_0_0,NA,NA,form submission,11352.699999619,101371.5,101370,101386.7,112739.39999962,112739.70000076,2024-05-16T10:43:32Z,112753.4,Fenster,dirisha,d,walakini,tasawari,maarifa,dinishi,NA,NA,NULL,NA,NA,NA,NA,NA,NA,NA,NA,NA,NA,NA,NA,NA,NA,NA,NA,NA,NA,NA
bd04e,Save data screen,canvas.Screen,1_9_0_1,NA,NA,timeout,500.10000000001,112741.70000076,112736.8,112753.4,113236.7,113237.60000038,2024-05-16T10:43:33Z,113253.5,Fenster,dirisha,d,walakini,tasawari,maarifa,NA,NA,0,NULL,NA,NA,NA,NA,NA,NA,NA,NA,NA,NA,NA,NA,NA,NA,NA,NA,NA,NA,NA
bd04e,deep,flow.Sequence,1_9_0,NA,NA,completion,11850,101371.39999962,101370,101386.7,113236.7,113237.89999962,2024-05-16T10:43:33Z,113253.5,Fenster,dirisha,d,walakini,tasawari,maarifa,NA,NA,NA,NULL,NA,NA,NA,NA,NA,NA,NA,NA,NA,NA,NA,NA,NA,NA,NA,NA,NA,NA,NA
bd04e,task,flow.Sequence,1_9,NA,NA,completion,11850,101371.39999962,101370,101386.7,113236.7,113238.10000038,2024-05-16T10:43:33Z,113253.5,Fenster,dirisha,d,walakini,tasawari,maarifa,NA,NA,NA,NULL,NA,NA,NA,NA,NA,NA,NA,NA,NA,NA,NA,NA,NA,NA,NA,NA,NA,NA,NA
bd04e,Deep Question,html.Page,1_10_0_0,NA,NA,form submission,4612.6000003815,113238.39999962,113236.7,113253.5,117866.10000038,117866.39999962,2024-05-16T10:43:37Z,117869.9,Wohlstand,mafanikio,d,chimbuko,kumbuko,mapwaji,qwerfsdvg,NA,NA,NULL,NA,NA,NA,NA,NA,NA,NA,NA,NA,NA,NA,NA,NA,NA,NA,NA,NA,NA,NA
bd04e,Save data screen,canvas.Screen,1_10_0_1,NA,NA,timeout,500.20000000001,117867.89999962,117853.478,117869.9,118353.4,118354.10000038,2024-05-16T10:43:38Z,118370.1,Wohlstand,mafanikio,d,chimbuko,kumbuko,mapwaji,NA,NA,0,NULL,NA,NA,NA,NA,NA,NA,NA,NA,NA,NA,NA,NA,NA,NA,NA,NA,NA,NA,NA
bd04e,deep,flow.Sequence,1_10_0,NA,NA,completion,5099.9,113238.30000114,113236.7,113253.5,118353.4,118354.30000114,2024-05-16T10:43:38Z,118370.1,Wohlstand,mafanikio,d,chimbuko,kumbuko,mapwaji,NA,NA,NA,NULL,NA,NA,NA,NA,NA,NA,NA,NA,NA,NA,NA,NA,NA,NA,NA,NA,NA,NA,NA
bd04e,task,flow.Sequence,1_10,NA,NA,completion,5099.9,113238.20000076,113236.7,113253.5,118353.4,118354.5,2024-05-16T10:43:38Z,118370.1,Wohlstand,mafanikio,d,chimbuko,kumbuko,mapwaji,NA,NA,NA,NULL,NA,NA,NA,NA,NA,NA,NA,NA,NA,NA,NA,NA,NA,NA,NA,NA,NA,NA,NA
bd04e,Deep Question,html.Page,1_11_0_0,NA,NA,form submission,5630.0000003815,118354.70000076,118353.4,118370.1,124000.10000038,124000.30000114,2024-05-16T10:43:43Z,124003.2,Toleranz,kuvumiliana,d,maombolezo,ujasusi,mchekeshaji,vnoifjvm,NA,NA,NULL,NA,NA,NA,NA,NA,NA,NA,NA,NA,NA,NA,NA,NA,NA,NA,NA,NA,NA,NA
bd04e,Save data screen,canvas.Screen,1_11_0_1,NA,NA,timeout,500.2,124001.80000114,123986.824,124003.2,124486.6,124487.60000038,2024-05-16T10:43:44Z,124503.4,Toleranz,kuvumiliana,d,maombolezo,ujasusi,mchekeshaji,NA,NA,0,NULL,NA,NA,NA,NA,NA,NA,NA,NA,NA,NA,NA,NA,NA,NA,NA,NA,NA,NA,NA
bd04e,deep,flow.Sequence,1_11_0,NA,NA,completion,6116.5,118354.60000038,118353.4,118370.1,124486.6,124487.80000114,2024-05-16T10:43:44Z,124503.4,Toleranz,kuvumiliana,d,maombolezo,ujasusi,mchekeshaji,NA,NA,NA,NULL,NA,NA,NA,NA,NA,NA,NA,NA,NA,NA,NA,NA,NA,NA,NA,NA,NA,NA,NA
bd04e,task,flow.Sequence,1_11,NA,NA,completion,6116.5,118354.5,118353.4,118370.1,124486.6,124487.89999962,2024-05-16T10:43:44Z,124503.4,Toleranz,kuvumiliana,d,maombolezo,ujasusi,mchekeshaji,NA,NA,NA,NULL,NA,NA,NA,NA,NA,NA,NA,NA,NA,NA,NA,NA,NA,NA,NA,NA,NA,NA,NA
bd04e,Deep Question,html.Page,1_12_0_0,NA,NA,form submission,10284.499999619,124488.10000038,124486.6,124503.4,134787.89999961999,134788.20000076,2024-05-16T10:43:54Z,134803.4,Verpackung,ufungaji,s,uhusiano,upimaji,uchunguzi,tghogllpll,NA,NA,NULL,NA,NA,NA,NA,NA,NA,NA,NA,NA,NA,NA,NA,NA,NA,NA,NA,NA,NA,NA
bd04e,Save data screen,canvas.Screen,1_12_0_1,NA,NA,timeout,500,134789.70000076,134786.762,134803.4,135286.7,135287.5,2024-05-16T10:43:55Z,135303.4,Verpackung,ufungaji,s,uhusiano,upimaji,uchunguzi,NA,NA,0,NULL,NA,NA,NA,NA,NA,NA,NA,NA,NA,NA,NA,NA,NA,NA,NA,NA,NA,NA,NA
bd04e,deep,flow.Sequence,1_12_0,NA,NA,completion,10783.3,124488,124486.6,124503.4,135286.7,135287.80000114001,2024-05-16T10:43:55Z,135303.4,Verpackung,ufungaji,s,uhusiano,upimaji,uchunguzi,NA,NA,NA,NULL,NA,NA,NA,NA,NA,NA,NA,NA,NA,NA,NA,NA,NA,NA,NA,NA,NA,NA,NA
bd04e,task,flow.Sequence,1_12,NA,NA,completion,10783.3,124487.89999962,124486.6,124503.4,135286.7,135287.89999962,2024-05-16T10:43:55Z,135303.4,Verpackung,ufungaji,s,uhusiano,upimaji,uchunguzi,NA,NA,NA,NULL,NA,NA,NA,NA,NA,NA,NA,NA,NA,NA,NA,NA,NA,NA,NA,NA,NA,NA,NA
bd04e,Deep Question,html.Page,1_13_0_0,NA,NA,form submission,3187.9000011444,135288.10000038001,135286.7,135303.4,138491.30000114,138491.5,2024-05-16T10:43:58Z,138503.3,Inhalt,yaliyomo,s,kishawishi,hifadhi,kutembea,sdfgrthg,NA,NA,NULL,NA,NA,NA,NA,NA,NA,NA,NA,NA,NA,NA,NA,NA,NA,NA,NA,NA,NA,NA
bd04e,Save data screen,canvas.Screen,1_13_0_1,NA,NA,timeout,500.10000000001,138492.20000076,138486.8,138503.3,138986.6,138987.39999961999,2024-05-16T10:43:58Z,139003.4,Inhalt,yaliyomo,s,kishawishi,hifadhi,kutembea,NA,NA,0,NULL,NA,NA,NA,NA,NA,NA,NA,NA,NA,NA,NA,NA,NA,NA,NA,NA,NA,NA,NA
bd04e,deep,flow.Sequence,1_13_0,NA,NA,completion,3683.2,135288.10000038001,135286.7,135303.4,138986.6,138987.60000038001,2024-05-16T10:43:58Z,139003.4,Inhalt,yaliyomo,s,kishawishi,hifadhi,kutembea,NA,NA,NA,NULL,NA,NA,NA,NA,NA,NA,NA,NA,NA,NA,NA,NA,NA,NA,NA,NA,NA,NA,NA
bd04e,task,flow.Sequence,1_13,NA,NA,completion,3683.2,135288,135286.7,135303.4,138986.6,138987.80000114,2024-05-16T10:43:58Z,139003.4,Inhalt,yaliyomo,s,kishawishi,hifadhi,kutembea,NA,NA,NA,NULL,NA,NA,NA,NA,NA,NA,NA,NA,NA,NA,NA,NA,NA,NA,NA,NA,NA,NA,NA
bd04e,Deep Question,html.Page,1_14_0_0,NA,NA,form submission,6539.7000003815,138988,138986.6,139003.4,145543.10000038001,145543.30000114001,2024-05-16T10:44:05Z,145553.4,Tester,wanaojaribu,s,sherti,sihiri,mlipuko,rtghzjhrzh,NA,NA,NULL,NA,NA,NA,NA,NA,NA,NA,NA,NA,NA,NA,NA,NA,NA,NA,NA,NA,NA,NA
bd04e,Save data screen,canvas.Screen,1_14_0_1,NA,NA,timeout,499.80000000002,145545,145536.762,145553.4,146036.7,146037.30000114,2024-05-16T10:44:05Z,146053.2,Tester,wanaojaribu,s,sherti,sihiri,mlipuko,NA,NA,0,NULL,NA,NA,NA,NA,NA,NA,NA,NA,NA,NA,NA,NA,NA,NA,NA,NA,NA,NA,NA
bd04e,deep,flow.Sequence,1_14_0,NA,NA,completion,7033.3,138987.89999961999,138986.6,139003.4,146036.7,146037.60000038001,2024-05-16T10:44:05Z,146053.2,Tester,wanaojaribu,s,sherti,sihiri,mlipuko,NA,NA,NA,NULL,NA,NA,NA,NA,NA,NA,NA,NA,NA,NA,NA,NA,NA,NA,NA,NA,NA,NA,NA
bd04e,task,flow.Sequence,1_14,NA,NA,completion,7033.3,138987.89999961999,138986.6,139003.4,146036.7,146037.80000114001,2024-05-16T10:44:05Z,146053.2,Tester,wanaojaribu,s,sherti,sihiri,mlipuko,NA,NA,NA,NULL,NA,NA,NA,NA,NA,NA,NA,NA,NA,NA,NA,NA,NA,NA,NA,NA,NA,NA,NA
bd04e,Deep Question,html.Page,1_15_0_0,NA,NA,form submission,18494.900000381,146037.80000114001,146036.7,146053.2,164548.10000038001,164548.20000076,2024-05-16T10:44:24Z,164553.2,Schock,mshtuko,d,biashara,kukataza,vichekesho,eawfsghdth,NA,NA,NULL,NA,NA,NA,NA,NA,NA,NA,NA,NA,NA,NA,NA,NA,NA,NA,NA,NA,NA,NA
bd04e,Save data screen,canvas.Screen,1_15_0_1,NA,NA,timeout,500.19999999998,164550,164536.746,164553.2,165036.6,165037.39999961999,2024-05-16T10:44:24Z,165053.4,Schock,mshtuko,d,biashara,kukataza,vichekesho,NA,NA,0,NULL,NA,NA,NA,NA,NA,NA,NA,NA,NA,NA,NA,NA,NA,NA,NA,NA,NA,NA,NA
bd04e,deep,flow.Sequence,1_15_0,NA,NA,completion,18983.4,146037.80000114001,146036.7,146053.2,165036.6,165037.60000038001,2024-05-16T10:44:24Z,165053.4,Schock,mshtuko,d,biashara,kukataza,vichekesho,NA,NA,NA,NULL,NA,NA,NA,NA,NA,NA,NA,NA,NA,NA,NA,NA,NA,NA,NA,NA,NA,NA,NA
bd04e,task,flow.Sequence,1_15,NA,NA,completion,18983.4,146037.80000114001,146036.7,146053.2,165036.6,165037.80000114001,2024-05-16T10:44:24Z,165053.4,Schock,mshtuko,d,biashara,kukataza,vichekesho,NA,NA,NA,NULL,NA,NA,NA,NA,NA,NA,NA,NA,NA,NA,NA,NA,NA,NA,NA,NA,NA,NA,NA
bd04e,retrieval block 1 (cued recall),flow.Loop,1,NA,NA,completion,138016.5,27015.5,27002.238,27020.1,165036.6,165038,2024-05-16T10:44:24Z,165053.4,NA,NA,NA,NA,NA,NA,NA,NA,NA,NULL,NA,NA,NA,NA,NA,NA,NA,NA,NA,NA,NA,NA,NA,NA,NA,NA,NA,NA,NA
bd04e,Shallow Question,html.Page,2_0_0_0,NA,NA,form submission,18315.499999619,165038.39999962,165036.6,165053.4,183368.89999961999,183369.20000076,2024-05-16T10:44:43Z,183370.096,Spionage,upelelezi,d,maslahi,utokazo,magangao,upelelezi,NA,NA,"c(""distractor1"", ""distractor2"", ""distractor3"")",NA,NA,NA,NA,NA,NA,NA,NA,NA,NA,NA,NA,NA,NA,NA,NA,NA,NA,NA
bd04e,Save data screen,canvas.Screen,2_0_0_1,NA,NA,timeout,500.00400000002,183370.80000114,183370.096,183370.096,183853.3,183853.89999962,2024-05-16T10:44:43Z,183870.1,Spionage,upelelezi,d,maslahi,utokazo,magangao,NA,NA,1,"c(""distractor1"", ""distractor2"", ""distractor3"")",NA,NA,NA,NA,NA,NA,NA,NA,NA,NA,NA,NA,NA,NA,NA,NA,NA,NA,NA
bd04e,shallow,flow.Sequence,2_0_0,NA,NA,completion,18799.9,165038.30000114001,165036.6,165053.4,183853.3,183854.20000076,2024-05-16T10:44:43Z,183870.1,Spionage,upelelezi,d,maslahi,utokazo,magangao,NA,NA,NA,"c(""distractor1"", ""distractor2"", ""distractor3"")",NA,NA,NA,NA,NA,NA,NA,NA,NA,NA,NA,NA,NA,NA,NA,NA,NA,NA,NA
bd04e,task,flow.Sequence,2_0,NA,NA,completion,18799.9,165038.30000114001,165036.6,165053.4,183853.3,183854.39999962,2024-05-16T10:44:43Z,183870.1,Spionage,upelelezi,d,maslahi,utokazo,magangao,NA,NA,NA,"c(""distractor1"", ""distractor2"", ""distractor3"")",NA,NA,NA,NA,NA,NA,NA,NA,NA,NA,NA,NA,NA,NA,NA,NA,NA,NA,NA
bd04e,Shallow Question,html.Page,2_1_0_0,NA,NA,form submission,7963.1000007629,183854.5,183853.3,183870.1,191833.20000076,191833.39999962,2024-05-16T10:44:51Z,191836.732,Fenster,dirisha,d,walakini,tasawari,maarifa,dirisha,NA,NA,"c(""distractor1"", ""distractor2"", ""distractor3"")",NA,NA,NA,NA,NA,NA,NA,NA,NA,NA,NA,NA,NA,NA,NA,NA,NA,NA,NA
bd04e,Save data screen,canvas.Screen,2_1_0_1,NA,NA,timeout,499.96800000002,191835,191836.732,191836.732,192320,192320.80000114001,2024-05-16T10:44:52Z,192336.7,Fenster,dirisha,d,walakini,tasawari,maarifa,NA,NA,1,"c(""distractor1"", ""distractor2"", ""distractor3"")",NA,NA,NA,NA,NA,NA,NA,NA,NA,NA,NA,NA,NA,NA,NA,NA,NA,NA,NA
bd04e,shallow,flow.Sequence,2_1_0,NA,NA,completion,8449.9,183854.5,183853.3,183870.1,192320,192321.10000038001,2024-05-16T10:44:52Z,192336.7,Fenster,dirisha,d,walakini,tasawari,maarifa,NA,NA,NA,"c(""distractor1"", ""distractor2"", ""distractor3"")",NA,NA,NA,NA,NA,NA,NA,NA,NA,NA,NA,NA,NA,NA,NA,NA,NA,NA,NA
bd04e,task,flow.Sequence,2_1,NA,NA,completion,8449.9,183854.39999962,183853.3,183870.1,192320,192321.30000114,2024-05-16T10:44:52Z,192336.7,Fenster,dirisha,d,walakini,tasawari,maarifa,NA,NA,NA,"c(""distractor1"", ""distractor2"", ""distractor3"")",NA,NA,NA,NA,NA,NA,NA,NA,NA,NA,NA,NA,NA,NA,NA,NA,NA,NA,NA
bd04e,Shallow Question,html.Page,2_2_0_0,NA,NA,form submission,9345.4000003815,192321.39999962,192320,192336.7,201682.10000038001,201682.30000114,2024-05-16T10:45:01Z,201686.6,Vergnügen,kichekesho,s,dubwana,mpanuko,mtesaji,kichekesho,NA,NA,"c(""distractor1"", ""distractor2"", ""distractor3"")",NA,NA,NA,NA,NA,NA,NA,NA,NA,NA,NA,NA,NA,NA,NA,NA,NA,NA,NA
bd04e,Save data screen,canvas.Screen,2_2_0_1,NA,NA,timeout,500.10000000001,201683.89999962,201670.124,201686.6,202169.9,202170.70000076,2024-05-16T10:45:02Z,202186.7,Vergnügen,kichekesho,s,dubwana,mpanuko,mtesaji,NA,NA,1,"c(""distractor1"", ""distractor2"", ""distractor3"")",NA,NA,NA,NA,NA,NA,NA,NA,NA,NA,NA,NA,NA,NA,NA,NA,NA,NA,NA
bd04e,shallow,flow.Sequence,2_2_0,NA,NA,completion,9833.2,192321.39999962,192320,192336.7,202169.9,202171,2024-05-16T10:45:02Z,202186.7,Vergnügen,kichekesho,s,dubwana,mpanuko,mtesaji,NA,NA,NA,"c(""distractor1"", ""distractor2"", ""distractor3"")",NA,NA,NA,NA,NA,NA,NA,NA,NA,NA,NA,NA,NA,NA,NA,NA,NA,NA,NA
bd04e,task,flow.Sequence,2_2,NA,NA,completion,9833.2,192321.39999962,192320,192336.7,202169.9,202171.20000076,2024-05-16T10:45:02Z,202186.7,Vergnügen,kichekesho,s,dubwana,mpanuko,mtesaji,NA,NA,NA,"c(""distractor1"", ""distractor2"", ""distractor3"")",NA,NA,NA,NA,NA,NA,NA,NA,NA,NA,NA,NA,NA,NA,NA,NA,NA,NA,NA
bd04e,Shallow Question,html.Page,2_3_0_0,NA,NA,form submission,9427.3,202171.30000114001,202169.9,202186.7,211614,211614.20000076,2024-05-16T10:45:11Z,211619.8,Notfall,dharura,s,rairai,malalamiko,ahueni,dharura,NA,NA,"c(""distractor1"", ""distractor2"", ""distractor3"")",NA,NA,NA,NA,NA,NA,NA,NA,NA,NA,NA,NA,NA,NA,NA,NA,NA,NA,NA
bd04e,Save data screen,canvas.Screen,2_3_0_1,NA,NA,timeout,500.20000000001,211615.80000114001,211603.416,211619.8,212103.3,212104.30000114001,2024-05-16T10:45:12Z,212120,Notfall,dharura,s,rairai,malalamiko,ahueni,NA,NA,1,"c(""distractor1"", ""distractor2"", ""distractor3"")",NA,NA,NA,NA,NA,NA,NA,NA,NA,NA,NA,NA,NA,NA,NA,NA,NA,NA,NA
bd04e,shallow,flow.Sequence,2_3_0,NA,NA,completion,9916.6,202171.20000076,202169.9,202186.7,212103.3,212104.39999961999,2024-05-16T10:45:12Z,212120,Notfall,dharura,s,rairai,malalamiko,ahueni,NA,NA,NA,"c(""distractor1"", ""distractor2"", ""distractor3"")",NA,NA,NA,NA,NA,NA,NA,NA,NA,NA,NA,NA,NA,NA,NA,NA,NA,NA,NA
bd04e,task,flow.Sequence,2_3,NA,NA,completion,9916.6,202171.20000076,202169.9,202186.7,212103.3,212104.60000038001,2024-05-16T10:45:12Z,212120,Notfall,dharura,s,rairai,malalamiko,ahueni,NA,NA,NA,"c(""distractor1"", ""distractor2"", ""distractor3"")",NA,NA,NA,NA,NA,NA,NA,NA,NA,NA,NA,NA,NA,NA,NA,NA,NA,NA,NA
bd04e,Shallow Question,html.Page,2_4_0_0,NA,NA,form submission,16570.800001144,212104.80000114001,212103.3,212120,228690.80000114001,228690.89999962,2024-05-16T10:45:28Z,228720,Wohlstand,mafanikio,d,chimbuko,kumbuko,mapwaji,kumbuko,NA,NA,"c(""distractor1"", ""distractor2"", ""distractor3"")",NA,NA,NA,NA,NA,NA,NA,NA,NA,NA,NA,NA,NA,NA,NA,NA,NA,NA,NA
bd04e,Save data screen,canvas.Screen,2_4_0_1,NA,NA,timeout,500,228692.5,228703.39,228720,229203.3,229204,2024-05-16T10:45:29Z,229220,Wohlstand,mafanikio,d,chimbuko,kumbuko,mapwaji,NA,NA,0,"c(""distractor1"", ""distractor2"", ""distractor3"")",NA,NA,NA,NA,NA,NA,NA,NA,NA,NA,NA,NA,NA,NA,NA,NA,NA,NA,NA
bd04e,shallow,flow.Sequence,2_4_0,NA,NA,completion,17083.3,212104.80000114001,212103.3,212120,229203.3,229204.30000114001,2024-05-16T10:45:29Z,229220,Wohlstand,mafanikio,d,chimbuko,kumbuko,mapwaji,NA,NA,NA,"c(""distractor1"", ""distractor2"", ""distractor3"")",NA,NA,NA,NA,NA,NA,NA,NA,NA,NA,NA,NA,NA,NA,NA,NA,NA,NA,NA
bd04e,task,flow.Sequence,2_4,NA,NA,completion,17083.3,212104.70000076,212103.3,212120,229203.3,229204.39999962,2024-05-16T10:45:29Z,229220,Wohlstand,mafanikio,d,chimbuko,kumbuko,mapwaji,NA,NA,NA,"c(""distractor1"", ""distractor2"", ""distractor3"")",NA,NA,NA,NA,NA,NA,NA,NA,NA,NA,NA,NA,NA,NA,NA,NA,NA,NA,NA
bd04e,Shallow Question,html.Page,2_5_0_0,NA,NA,form submission,9862.3000011444,229204.60000038001,229203.3,229220,239082.30000114001,239082.5,2024-05-16T10:45:39Z,239086.694,Schock,mshtuko,d,biashara,kukataza,vichekesho,mshtuko,NA,NA,"c(""distractor1"", ""distractor2"", ""distractor3"")",NA,NA,NA,NA,NA,NA,NA,NA,NA,NA,NA,NA,NA,NA,NA,NA,NA,NA,NA
bd04e,Save data screen,canvas.Screen,2_5_0_1,NA,NA,timeout,500.00600000002,239084.10000038001,239086.694,239086.694,239570,239570.89999962,2024-05-16T10:45:39Z,239586.7,Schock,mshtuko,d,biashara,kukataza,vichekesho,NA,NA,1,"c(""distractor1"", ""distractor2"", ""distractor3"")",NA,NA,NA,NA,NA,NA,NA,NA,NA,NA,NA,NA,NA,NA,NA,NA,NA,NA,NA
bd04e,shallow,flow.Sequence,2_5_0,NA,NA,completion,10350,229204.60000038001,229203.3,229220,239570,239571.10000038001,2024-05-16T10:45:39Z,239586.7,Schock,mshtuko,d,biashara,kukataza,vichekesho,NA,NA,NA,"c(""distractor1"", ""distractor2"", ""distractor3"")",NA,NA,NA,NA,NA,NA,NA,NA,NA,NA,NA,NA,NA,NA,NA,NA,NA,NA,NA
bd04e,task,flow.Sequence,2_5,NA,NA,completion,10350,229204.5,229203.3,229220,239570,239571.30000114001,2024-05-16T10:45:39Z,239586.7,Schock,mshtuko,d,biashara,kukataza,vichekesho,NA,NA,NA,"c(""distractor1"", ""distractor2"", ""distractor3"")",NA,NA,NA,NA,NA,NA,NA,NA,NA,NA,NA,NA,NA,NA,NA,NA,NA,NA,NA
bd04e,Shallow Question,html.Page,2_6_0_0,NA,NA,form submission,8472.4000003815,239571.39999962,239570,239586.7,248059.10000038001,248059.30000114001,2024-05-16T10:45:47Z,248070,Tester,wanaojaribu,s,sherti,sihiri,mlipuko,wanaojaribu,NA,NA,"c(""distractor1"", ""distractor2"", ""distractor3"")",NA,NA,NA,NA,NA,NA,NA,NA,NA,NA,NA,NA,NA,NA,NA,NA,NA,NA,NA
bd04e,Save data screen,canvas.Screen,2_6_0_1,NA,NA,timeout,499.89999999999,248060.89999962,248053.59,248070,248553.2,248554.30000114,2024-05-16T10:45:48Z,248569.9,Tester,wanaojaribu,s,sherti,sihiri,mlipuko,NA,NA,1,"c(""distractor1"", ""distractor2"", ""distractor3"")",NA,NA,NA,NA,NA,NA,NA,NA,NA,NA,NA,NA,NA,NA,NA,NA,NA,NA,NA
bd04e,shallow,flow.Sequence,2_6_0,NA,NA,completion,8966.5,239571.39999962,239570,239586.7,248553.2,248554.60000038001,2024-05-16T10:45:48Z,248569.9,Tester,wanaojaribu,s,sherti,sihiri,mlipuko,NA,NA,NA,"c(""distractor1"", ""distractor2"", ""distractor3"")",NA,NA,NA,NA,NA,NA,NA,NA,NA,NA,NA,NA,NA,NA,NA,NA,NA,NA,NA
bd04e,task,flow.Sequence,2_6,NA,NA,completion,8966.5,239571.39999962,239570,239586.7,248553.2,248554.89999961999,2024-05-16T10:45:48Z,248569.9,Tester,wanaojaribu,s,sherti,sihiri,mlipuko,NA,NA,NA,"c(""distractor1"", ""distractor2"", ""distractor3"")",NA,NA,NA,NA,NA,NA,NA,NA,NA,NA,NA,NA,NA,NA,NA,NA,NA,NA,NA
bd04e,Shallow Question,html.Page,2_7_0_0,NA,NA,form submission,9063.9999996185,248555.10000038001,248553.2,248569.9,257633.89999962,257634,2024-05-16T10:45:57Z,257636.5,Schlange,foleni,d,uvumilivu,uteuzi,muuzaji,foleni,NA,NA,"c(""distractor1"", ""distractor2"", ""distractor3"")",NA,NA,NA,NA,NA,NA,NA,NA,NA,NA,NA,NA,NA,NA,NA,NA,NA,NA,NA
bd04e,Save data screen,canvas.Screen,2_7_0_1,NA,NA,timeout,500.10000000001,257635.70000076,257620.06,257636.5,258119.9,258120.70000076,2024-05-16T10:45:58Z,258136.6,Schlange,foleni,d,uvumilivu,uteuzi,muuzaji,NA,NA,1,"c(""distractor1"", ""distractor2"", ""distractor3"")",NA,NA,NA,NA,NA,NA,NA,NA,NA,NA,NA,NA,NA,NA,NA,NA,NA,NA,NA
bd04e,shallow,flow.Sequence,2_7_0,NA,NA,completion,9550,248555.10000038001,248553.2,248569.9,258119.9,258121,2024-05-16T10:45:58Z,258136.6,Schlange,foleni,d,uvumilivu,uteuzi,muuzaji,NA,NA,NA,"c(""distractor1"", ""distractor2"", ""distractor3"")",NA,NA,NA,NA,NA,NA,NA,NA,NA,NA,NA,NA,NA,NA,NA,NA,NA,NA,NA
bd04e,task,flow.Sequence,2_7,NA,NA,completion,9550,248555,248553.2,248569.9,258119.9,258121.10000038001,2024-05-16T10:45:58Z,258136.6,Schlange,foleni,d,uvumilivu,uteuzi,muuzaji,NA,NA,NA,"c(""distractor1"", ""distractor2"", ""distractor3"")",NA,NA,NA,NA,NA,NA,NA,NA,NA,NA,NA,NA,NA,NA,NA,NA,NA,NA,NA
bd04e,Shallow Question,html.Page,2_8_0_0,NA,NA,form submission,11527.200001144,258121.20000076,258119.9,258136.6,269663.80000114,269664.10000038,2024-05-16T10:46:09Z,269669.8,Hoffnung,matarajio,s,kutaalamika,uratibu,mvumbuzi,matarajio,NA,NA,"c(""distractor1"", ""distractor2"", ""distractor3"")",NA,NA,NA,NA,NA,NA,NA,NA,NA,NA,NA,NA,NA,NA,NA,NA,NA,NA,NA
bd04e,Save data screen,canvas.Screen,2_8_0_1,NA,NA,timeout,500.20000000001,269665.60000038,269653.338,269669.8,270153.3,270154.10000038,2024-05-16T10:46:10Z,270170,Hoffnung,matarajio,s,kutaalamika,uratibu,mvumbuzi,NA,NA,1,"c(""distractor1"", ""distractor2"", ""distractor3"")",NA,NA,NA,NA,NA,NA,NA,NA,NA,NA,NA,NA,NA,NA,NA,NA,NA,NA,NA
bd04e,shallow,flow.Sequence,2_8_0,NA,NA,completion,12016.7,258121.20000076,258119.9,258136.6,270153.3,270154.39999962,2024-05-16T10:46:10Z,270170,Hoffnung,matarajio,s,kutaalamika,uratibu,mvumbuzi,NA,NA,NA,"c(""distractor1"", ""distractor2"", ""distractor3"")",NA,NA,NA,NA,NA,NA,NA,NA,NA,NA,NA,NA,NA,NA,NA,NA,NA,NA,NA
bd04e,task,flow.Sequence,2_8,NA,NA,completion,12016.7,258121.20000076,258119.9,258136.6,270153.3,270154.5,2024-05-16T10:46:10Z,270170,Hoffnung,matarajio,s,kutaalamika,uratibu,mvumbuzi,NA,NA,NA,"c(""distractor1"", ""distractor2"", ""distractor3"")",NA,NA,NA,NA,NA,NA,NA,NA,NA,NA,NA,NA,NA,NA,NA,NA,NA,NA,NA
bd04e,Shallow Question,html.Page,2_9_0_0,NA,NA,form submission,16287.899999619,270154.60000038,270153.3,270170,286457.89999962,286458.10000038,2024-05-16T10:46:26Z,286469.9,Inhalt,yaliyomo,s,kishawishi,hifadhi,kutembea,kishawishi,NA,NA,"c(""distractor1"", ""distractor2"", ""distractor3"")",NA,NA,NA,NA,NA,NA,NA,NA,NA,NA,NA,NA,NA,NA,NA,NA,NA,NA,NA
bd04e,Save data screen,canvas.Screen,2_9_0_1,NA,NA,timeout,500,286459.70000076003,286453.356,286469.9,286953.1,286954,2024-05-16T10:46:26Z,286969.9,Inhalt,yaliyomo,s,kishawishi,hifadhi,kutembea,NA,NA,0,"c(""distractor1"", ""distractor2"", ""distractor3"")",NA,NA,NA,NA,NA,NA,NA,NA,NA,NA,NA,NA,NA,NA,NA,NA,NA,NA,NA
bd04e,shallow,flow.Sequence,2_9_0,NA,NA,completion,16783.1,270154.60000038,270153.3,270170,286953.1,286954.30000114,2024-05-16T10:46:26Z,286969.9,Inhalt,yaliyomo,s,kishawishi,hifadhi,kutembea,NA,NA,NA,"c(""distractor1"", ""distractor2"", ""distractor3"")",NA,NA,NA,NA,NA,NA,NA,NA,NA,NA,NA,NA,NA,NA,NA,NA,NA,NA,NA
bd04e,task,flow.Sequence,2_9,NA,NA,completion,16783.1,270154.60000038,270153.3,270170,286953.1,286954.39999962,2024-05-16T10:46:26Z,286969.9,Inhalt,yaliyomo,s,kishawishi,hifadhi,kutembea,NA,NA,NA,"c(""distractor1"", ""distractor2"", ""distractor3"")",NA,NA,NA,NA,NA,NA,NA,NA,NA,NA,NA,NA,NA,NA,NA,NA,NA,NA,NA
bd04e,Shallow Question,html.Page,2_10_0_0,NA,NA,form submission,19139.999999619,286954.60000038,286953.1,286969.9,306109.89999962,306110.10000038,2024-05-16T10:46:46Z,306120,Ergänzung,kijalizo,d,ulaghai,mustarehe,matangazo,matangazo,NA,NA,"c(""distractor1"", ""distractor2"", ""distractor3"")",NA,NA,NA,NA,NA,NA,NA,NA,NA,NA,NA,NA,NA,NA,NA,NA,NA,NA,NA
bd04e,Save data screen,canvas.Screen,2_10_0_1,NA,NA,timeout,500,306111.60000038,306103.354,306120,306603.3,306603.80000114,2024-05-16T10:46:46Z,306620,Ergänzung,kijalizo,d,ulaghai,mustarehe,matangazo,NA,NA,0,"c(""distractor1"", ""distractor2"", ""distractor3"")",NA,NA,NA,NA,NA,NA,NA,NA,NA,NA,NA,NA,NA,NA,NA,NA,NA,NA,NA
bd04e,shallow,flow.Sequence,2_10_0,NA,NA,completion,19633.4,286954.5,286953.1,286969.9,306603.3,306604.10000038,2024-05-16T10:46:46Z,306620,Ergänzung,kijalizo,d,ulaghai,mustarehe,matangazo,NA,NA,NA,"c(""distractor1"", ""distractor2"", ""distractor3"")",NA,NA,NA,NA,NA,NA,NA,NA,NA,NA,NA,NA,NA,NA,NA,NA,NA,NA,NA
bd04e,task,flow.Sequence,2_10,NA,NA,completion,19633.4,286954.5,286953.1,286969.9,306603.3,306604.20000076003,2024-05-16T10:46:46Z,306620,Ergänzung,kijalizo,d,ulaghai,mustarehe,matangazo,NA,NA,NA,"c(""distractor1"", ""distractor2"", ""distractor3"")",NA,NA,NA,NA,NA,NA,NA,NA,NA,NA,NA,NA,NA,NA,NA,NA,NA,NA,NA
bd04e,Shallow Question,html.Page,2_11_0_0,NA,NA,form submission,7196.7000007629,306604.39999962,306603.3,306620,313816.70000076003,313816.80000114,2024-05-16T10:46:53Z,313819.8,Vermutung,udhanifu,s,haramia,tikisho,itifaki,udhanifu,NA,NA,"c(""distractor1"", ""distractor2"", ""distractor3"")",NA,NA,NA,NA,NA,NA,NA,NA,NA,NA,NA,NA,NA,NA,NA,NA,NA,NA,NA
bd04e,Save data screen,canvas.Screen,2_11_0_1,NA,NA,timeout,500.10000000003,313818.39999962,313803.324,313819.8,314303.2,314304,2024-05-16T10:46:54Z,314319.9,Vermutung,udhanifu,s,haramia,tikisho,itifaki,NA,NA,1,"c(""distractor1"", ""distractor2"", ""distractor3"")",NA,NA,NA,NA,NA,NA,NA,NA,NA,NA,NA,NA,NA,NA,NA,NA,NA,NA,NA
bd04e,shallow,flow.Sequence,2_11_0,NA,NA,completion,7683.2,306604.39999962,306603.3,306620,314303.2,314304.20000076003,2024-05-16T10:46:54Z,314319.9,Vermutung,udhanifu,s,haramia,tikisho,itifaki,NA,NA,NA,"c(""distractor1"", ""distractor2"", ""distractor3"")",NA,NA,NA,NA,NA,NA,NA,NA,NA,NA,NA,NA,NA,NA,NA,NA,NA,NA,NA
bd04e,task,flow.Sequence,2_11,NA,NA,completion,7683.2,306604.39999962,306603.3,306620,314303.2,314304.30000114,2024-05-16T10:46:54Z,314319.9,Vermutung,udhanifu,s,haramia,tikisho,itifaki,NA,NA,NA,"c(""distractor1"", ""distractor2"", ""distractor3"")",NA,NA,NA,NA,NA,NA,NA,NA,NA,NA,NA,NA,NA,NA,NA,NA,NA,NA,NA
bd04e,Shallow Question,html.Page,2_12_0_0,NA,NA,form submission,18016.800000763,314304.5,314303.2,314319.9,332336.70000076003,332336.89999962,2024-05-16T10:47:12Z,332353.6,Toleranz,kuvumiliana,d,maombolezo,ujasusi,mchekeshaji,maombolezo,NA,NA,"c(""distractor1"", ""distractor2"", ""distractor3"")",NA,NA,NA,NA,NA,NA,NA,NA,NA,NA,NA,NA,NA,NA,NA,NA,NA,NA,NA
bd04e,Save data screen,canvas.Screen,2_12_0_1,NA,NA,timeout,499.60000000003,332338.5,332336.686,332353.6,332836.6,332837.5,2024-05-16T10:47:12Z,332853.2,Toleranz,kuvumiliana,d,maombolezo,ujasusi,mchekeshaji,NA,NA,0,"c(""distractor1"", ""distractor2"", ""distractor3"")",NA,NA,NA,NA,NA,NA,NA,NA,NA,NA,NA,NA,NA,NA,NA,NA,NA,NA,NA
bd04e,shallow,flow.Sequence,2_12_0,NA,NA,completion,18516.7,314304.39999962,314303.2,314319.9,332836.6,332837.70000076003,2024-05-16T10:47:12Z,332853.2,Toleranz,kuvumiliana,d,maombolezo,ujasusi,mchekeshaji,NA,NA,NA,"c(""distractor1"", ""distractor2"", ""distractor3"")",NA,NA,NA,NA,NA,NA,NA,NA,NA,NA,NA,NA,NA,NA,NA,NA,NA,NA,NA
bd04e,task,flow.Sequence,2_12,NA,NA,completion,18516.7,314304.39999962,314303.2,314319.9,332836.6,332837.89999962,2024-05-16T10:47:12Z,332853.2,Toleranz,kuvumiliana,d,maombolezo,ujasusi,mchekeshaji,NA,NA,NA,"c(""distractor1"", ""distractor2"", ""distractor3"")",NA,NA,NA,NA,NA,NA,NA,NA,NA,NA,NA,NA,NA,NA,NA,NA,NA,NA,NA
bd04e,Shallow Question,html.Page,2_13_0_0,NA,NA,form submission,20087.100001144,332838,332836.6,332853.2,352940.30000114,352940.60000038,2024-05-16T10:47:32Z,352953.1,Verpackung,ufungaji,s,uhusiano,upimaji,uchunguzi,uchunguzi,NA,NA,"c(""distractor1"", ""distractor2"", ""distractor3"")",NA,NA,NA,NA,NA,NA,NA,NA,NA,NA,NA,NA,NA,NA,NA,NA,NA,NA,NA
bd04e,Save data screen,canvas.Screen,2_13_0_1,NA,NA,timeout,500.20000000001,352942.10000038,352936.628,352953.1,353436.5,353437.30000114,2024-05-16T10:47:33Z,353453.3,Verpackung,ufungaji,s,uhusiano,upimaji,uchunguzi,NA,NA,0,"c(""distractor1"", ""distractor2"", ""distractor3"")",NA,NA,NA,NA,NA,NA,NA,NA,NA,NA,NA,NA,NA,NA,NA,NA,NA,NA,NA
bd04e,shallow,flow.Sequence,2_13_0,NA,NA,completion,20583.3,332838,332836.6,332853.2,353436.5,353437.60000038,2024-05-16T10:47:33Z,353453.3,Verpackung,ufungaji,s,uhusiano,upimaji,uchunguzi,NA,NA,NA,"c(""distractor1"", ""distractor2"", ""distractor3"")",NA,NA,NA,NA,NA,NA,NA,NA,NA,NA,NA,NA,NA,NA,NA,NA,NA,NA,NA
bd04e,task,flow.Sequence,2_13,NA,NA,completion,20583.3,332838,332836.6,332853.2,353436.5,353437.70000076003,2024-05-16T10:47:33Z,353453.3,Verpackung,ufungaji,s,uhusiano,upimaji,uchunguzi,NA,NA,NA,"c(""distractor1"", ""distractor2"", ""distractor3"")",NA,NA,NA,NA,NA,NA,NA,NA,NA,NA,NA,NA,NA,NA,NA,NA,NA,NA,NA
bd04e,Shallow Question,html.Page,2_14_0_0,NA,NA,form submission,29069.099999619,353437.89999962,353436.5,353453.3,382522.39999962,382522.60000038,2024-05-16T10:48:02Z,382536.6,Theorie,nadharia,d,ushungi,mkutano,uwakilishi,ushungi,NA,NA,"c(""distractor1"", ""distractor2"", ""distractor3"")",NA,NA,NA,NA,NA,NA,NA,NA,NA,NA,NA,NA,NA,NA,NA,NA,NA,NA,NA
bd04e,Save data screen,canvas.Screen,2_14_0_1,NA,NA,timeout,500,382524.30000114,382519.982,382536.6,383019.9,383020.60000038,2024-05-16T10:48:02Z,383036.6,Theorie,nadharia,d,ushungi,mkutano,uwakilishi,NA,NA,0,"c(""distractor1"", ""distractor2"", ""distractor3"")",NA,NA,NA,NA,NA,NA,NA,NA,NA,NA,NA,NA,NA,NA,NA,NA,NA,NA,NA
bd04e,shallow,flow.Sequence,2_14_0,NA,NA,completion,29566.6,353437.89999962,353436.5,353453.3,383019.9,383020.89999962,2024-05-16T10:48:02Z,383036.6,Theorie,nadharia,d,ushungi,mkutano,uwakilishi,NA,NA,NA,"c(""distractor1"", ""distractor2"", ""distractor3"")",NA,NA,NA,NA,NA,NA,NA,NA,NA,NA,NA,NA,NA,NA,NA,NA,NA,NA,NA
bd04e,task,flow.Sequence,2_14,NA,NA,completion,29566.6,353437.80000114,353436.5,353453.3,383019.9,383021,2024-05-16T10:48:02Z,383036.6,Theorie,nadharia,d,ushungi,mkutano,uwakilishi,NA,NA,NA,"c(""distractor1"", ""distractor2"", ""distractor3"")",NA,NA,NA,NA,NA,NA,NA,NA,NA,NA,NA,NA,NA,NA,NA,NA,NA,NA,NA
bd04e,Shallow Question,html.Page,2_15_0_0,NA,NA,form submission,6392.100000763,383021.20000076003,383019.9,383036.6,389428.70000076003,389429,2024-05-16T10:48:09Z,389436.5,Schüler,mwanafunzi,s,mwekezaji,matumizi,uaminifu,mwanafunzi,NA,NA,"c(""distractor1"", ""distractor2"", ""distractor3"")",NA,NA,NA,NA,NA,NA,NA,NA,NA,NA,NA,NA,NA,NA,NA,NA,NA,NA,NA
bd04e,Save data screen,canvas.Screen,2_15_0_1,NA,NA,timeout,500,389430.39999962,389419.95,389436.5,389919.9,389920.60000038,2024-05-16T10:48:09Z,389936.5,Schüler,mwanafunzi,s,mwekezaji,matumizi,uaminifu,NA,NA,1,"c(""distractor1"", ""distractor2"", ""distractor3"")",NA,NA,NA,NA,NA,NA,NA,NA,NA,NA,NA,NA,NA,NA,NA,NA,NA,NA,NA
bd04e,shallow,flow.Sequence,2_15_0,NA,NA,completion,6883.3,383021.10000038,383019.9,383036.6,389919.9,389920.89999962,2024-05-16T10:48:09Z,389936.5,Schüler,mwanafunzi,s,mwekezaji,matumizi,uaminifu,NA,NA,NA,"c(""distractor1"", ""distractor2"", ""distractor3"")",NA,NA,NA,NA,NA,NA,NA,NA,NA,NA,NA,NA,NA,NA,NA,NA,NA,NA,NA
bd04e,task,flow.Sequence,2_15,NA,NA,completion,6883.3,383021.10000038,383019.9,383036.6,389919.9,389921.10000038,2024-05-16T10:48:09Z,389936.5,Schüler,mwanafunzi,s,mwekezaji,matumizi,uaminifu,NA,NA,NA,"c(""distractor1"", ""distractor2"", ""distractor3"")",NA,NA,NA,NA,NA,NA,NA,NA,NA,NA,NA,NA,NA,NA,NA,NA,NA,NA,NA
bd04e,retrieval block 2 (multiple choice),flow.Loop,2,NA,NA,completion,224866.5,165038.30000114001,165036.6,165053.4,389919.9,389921.20000076003,2024-05-16T10:48:09Z,389936.5,NA,NA,NA,NA,NA,NA,NA,NA,NA,"c(""distractor1"", ""distractor2"", ""distractor3"")",NA,NA,NA,NA,NA,NA,NA,NA,NA,NA,NA,NA,NA,NA,NA,NA,NA,NA,NA
bd04e,End,canvas.Screen,3,NA,keypress(Space),response,2481.8000011444,389921.30000114,389919.9,389936.5,392418.30000114,392419.5,2024-05-16T10:48:12Z,392419.9,NA,NA,NA,NA,NA,NA,NA,NA,NA,NULL,NA,NA,NA,NA,NA,NA,NA,NA,NA,NA,NA,NA,NA,NA,NA,NA,NA,NA,NA
bd04e,root,flow.Sequence,NA,NA,NA,completion,391965.00000114,446.89999961853,436.626,453.3,392418.30000114,392420.10000038,2024-05-16T10:48:12Z,392419.9,NA,NA,NA,NA,NA,NA,NA,NA,NA,NULL,NA,NA,NA,NA,NA,NA,NA,NA,NA,NA,NA,NA,NA,NA,NA,NA,NA,NA,NA
