observation,sender,sender_type,sender_id,response,response_action,ended_on,duration,time_run,time_render,time_show,time_end,time_commit,timestamp,time_switch,german,swahili,enc,distractor1,distractor2,distractor3,response_2,x,correct,distractors,url_vp,url_sess,meta_labjs_version,meta_location,meta_user_agent,meta_platform,meta_language,meta_locale,meta_time_zone,meta_timezone_offset,meta_screen_width,meta_screen_height,meta_scroll_width,meta_scroll_height,meta_window_inner_width,meta_window_inner_height,meta_device_pixel_ratio,meta_labjs_build_flavor,meta_labjs_build_commit
e0665,Introduction delayed retrieval,canvas.Screen,0,weiter,keypress(Space),response,49633.186,246.69999999998,129.633,254.614,49887.8,49888.8,2023-05-14T08:13:22Z,49896.384,NA,NA,NA,NA,NA,NA,NA,NA,NA,NULL,126,2,20.2.4,https://neurocog.fernuni.ch/studies/vweber/delayed/index.html?vp=126&sess=2,"Mozilla/5.0 (Windows NT 10.0; Win64; x64) AppleWebKit/537.36 (KHTML, like Gecko) Chrome/113.0.0.0 Safari/537.36",Win32,de-DE,de,Europe/Zurich,-120,2560,1440,2560,1249,2560,1297,1,production,f5b4a49f956347addd546a832a3327688c2c0fef
e0665,Deep Question,html.Page,1_0_0_0,NA,NA,form submission,3153.216,49889,49881.589,49896.384,53049.6,53049.9,2023-05-14T08:13:25Z,53055.342,Hoffnung,matarajio,s,kutaalamika,uratibu,mvumbuzi,NA,NA,NA,NULL,NA,NA,NA,NA,NA,NA,NA,NA,NA,NA,NA,NA,NA,NA,NA,NA,NA,NA,NA
e0665,Save data screen,canvas.Screen,1_0_0_1,NA,NA,timeout,500.016,53050.3,53048.388,53055.342,53548.405,53548.7,2023-05-14T08:13:25Z,53555.358,Hoffnung,matarajio,s,kutaalamika,uratibu,mvumbuzi,NA,NA,0,NULL,NA,NA,NA,NA,NA,NA,NA,NA,NA,NA,NA,NA,NA,NA,NA,NA,NA,NA,NA
e0665,deep,flow.Sequence,1_0_0,NA,NA,completion,3652.021,49889,49881.589,49896.384,53548.405,53548.8,2023-05-14T08:13:25Z,53555.358,Hoffnung,matarajio,s,kutaalamika,uratibu,mvumbuzi,NA,NA,NA,NULL,NA,NA,NA,NA,NA,NA,NA,NA,NA,NA,NA,NA,NA,NA,NA,NA,NA,NA,NA
e0665,task,flow.Sequence,1_0,NA,NA,completion,3652.021,49888.9,49881.589,49896.384,53548.405,53548.9,2023-05-14T08:13:25Z,53555.358,Hoffnung,matarajio,s,kutaalamika,uratibu,mvumbuzi,NA,NA,NA,NULL,NA,NA,NA,NA,NA,NA,NA,NA,NA,NA,NA,NA,NA,NA,NA,NA,NA,NA,NA
e0665,Deep Question,html.Page,1_1_0_0,NA,NA,form submission,1367.942,53549,53548.405,53555.358,54923.3,54923.5,2023-05-14T08:13:27Z,54931.473,Notfall,dharura,s,rairai,malalamiko,ahueni,NA,NA,NA,NULL,NA,NA,NA,NA,NA,NA,NA,NA,NA,NA,NA,NA,NA,NA,NA,NA,NA,NA,NA
e0665,Save data screen,canvas.Screen,1_1_0_1,NA,NA,timeout,498.96,54923.9,54916.495,54931.473,55423.48,55423.6,2023-05-14T08:13:27Z,55430.433,Notfall,dharura,s,rairai,malalamiko,ahueni,NA,NA,0,NULL,NA,NA,NA,NA,NA,NA,NA,NA,NA,NA,NA,NA,NA,NA,NA,NA,NA,NA,NA
e0665,deep,flow.Sequence,1_1_0,NA,NA,completion,1868.122,53549,53548.405,53555.358,55423.48,55423.7,2023-05-14T08:13:27Z,55430.433,Notfall,dharura,s,rairai,malalamiko,ahueni,NA,NA,NA,NULL,NA,NA,NA,NA,NA,NA,NA,NA,NA,NA,NA,NA,NA,NA,NA,NA,NA,NA,NA
e0665,task,flow.Sequence,1_1,NA,NA,completion,1868.122,53549,53548.405,53555.358,55423.48,55423.9,2023-05-14T08:13:27Z,55430.433,Notfall,dharura,s,rairai,malalamiko,ahueni,NA,NA,NA,NULL,NA,NA,NA,NA,NA,NA,NA,NA,NA,NA,NA,NA,NA,NA,NA,NA,NA,NA,NA
e0665,Deep Question,html.Page,1_2_0_0,NA,NA,form submission,4263.867,55424,55423.48,55430.433,59694.3,59694.5,2023-05-14T08:13:32Z,59701.805,Schock,mshtuko,d,biashara,kukataza,vichekesho,mdan,NA,NA,NULL,NA,NA,NA,NA,NA,NA,NA,NA,NA,NA,NA,NA,NA,NA,NA,NA,NA,NA,NA
e0665,Save data screen,canvas.Screen,1_2_0_1,NA,NA,timeout,499.65,59694.8,59687.543,59701.805,60194.507,60194.8,2023-05-14T08:13:32Z,60201.455,Schock,mshtuko,d,biashara,kukataza,vichekesho,NA,NA,0,NULL,NA,NA,NA,NA,NA,NA,NA,NA,NA,NA,NA,NA,NA,NA,NA,NA,NA,NA,NA
e0665,deep,flow.Sequence,1_2_0,NA,NA,completion,4764.074,55424,55423.48,55430.433,60194.507,60194.9,2023-05-14T08:13:32Z,60201.455,Schock,mshtuko,d,biashara,kukataza,vichekesho,NA,NA,NA,NULL,NA,NA,NA,NA,NA,NA,NA,NA,NA,NA,NA,NA,NA,NA,NA,NA,NA,NA,NA
e0665,task,flow.Sequence,1_2,NA,NA,completion,4764.074,55423.9,55423.48,55430.433,60194.507,60195,2023-05-14T08:13:32Z,60201.455,Schock,mshtuko,d,biashara,kukataza,vichekesho,NA,NA,NA,NULL,NA,NA,NA,NA,NA,NA,NA,NA,NA,NA,NA,NA,NA,NA,NA,NA,NA,NA,NA
e0665,Deep Question,html.Page,1_3_0_0,NA,NA,form submission,11084.845,60195.1,60194.507,60201.455,71286.3,71286.5,2023-05-14T08:13:43Z,71292.178,Schlange,foleni,d,uvumilivu,uteuzi,muuzaji,selani,NA,NA,NULL,NA,NA,NA,NA,NA,NA,NA,NA,NA,NA,NA,NA,NA,NA,NA,NA,NA,NA,NA
e0665,Save data screen,canvas.Screen,1_3_0_1,NA,NA,timeout,500.01700000001,71287.8,71285.194,71292.178,71785.245,71785.4,2023-05-14T08:13:44Z,71792.195,Schlange,foleni,d,uvumilivu,uteuzi,muuzaji,NA,NA,0,NULL,NA,NA,NA,NA,NA,NA,NA,NA,NA,NA,NA,NA,NA,NA,NA,NA,NA,NA,NA
e0665,deep,flow.Sequence,1_3_0,NA,NA,completion,11583.79,60195.1,60194.507,60201.455,71785.245,71785.6,2023-05-14T08:13:44Z,71792.195,Schlange,foleni,d,uvumilivu,uteuzi,muuzaji,NA,NA,NA,NULL,NA,NA,NA,NA,NA,NA,NA,NA,NA,NA,NA,NA,NA,NA,NA,NA,NA,NA,NA
e0665,task,flow.Sequence,1_3,NA,NA,completion,11583.79,60195.1,60194.507,60201.455,71785.245,71785.7,2023-05-14T08:13:44Z,71792.195,Schlange,foleni,d,uvumilivu,uteuzi,muuzaji,NA,NA,NA,NULL,NA,NA,NA,NA,NA,NA,NA,NA,NA,NA,NA,NA,NA,NA,NA,NA,NA,NA,NA
e0665,Deep Question,html.Page,1_4_0_0,NA,NA,form submission,2647.105,71785.7,71785.245,71792.195,74439.3,74439.4,2023-05-14T08:13:46Z,74445.089,Vermutung,udhanifu,s,haramia,tikisho,itifaki,NA,NA,NA,NULL,NA,NA,NA,NA,NA,NA,NA,NA,NA,NA,NA,NA,NA,NA,NA,NA,NA,NA,NA
e0665,Save data screen,canvas.Screen,1_4_0_1,NA,NA,timeout,500.00799999999,74439.8,74438.087,74445.089,74938.149,74938.4,2023-05-14T08:13:47Z,74945.097,Vermutung,udhanifu,s,haramia,tikisho,itifaki,NA,NA,0,NULL,NA,NA,NA,NA,NA,NA,NA,NA,NA,NA,NA,NA,NA,NA,NA,NA,NA,NA,NA
e0665,deep,flow.Sequence,1_4_0,NA,NA,completion,3145.954,71785.7,71785.245,71792.195,74938.149,74938.5,2023-05-14T08:13:47Z,74945.097,Vermutung,udhanifu,s,haramia,tikisho,itifaki,NA,NA,NA,NULL,NA,NA,NA,NA,NA,NA,NA,NA,NA,NA,NA,NA,NA,NA,NA,NA,NA,NA,NA
e0665,task,flow.Sequence,1_4,NA,NA,completion,3145.954,71785.7,71785.245,71792.195,74938.149,74938.6,2023-05-14T08:13:47Z,74945.097,Vermutung,udhanifu,s,haramia,tikisho,itifaki,NA,NA,NA,NULL,NA,NA,NA,NA,NA,NA,NA,NA,NA,NA,NA,NA,NA,NA,NA,NA,NA,NA,NA
e0665,Deep Question,html.Page,1_5_0_0,NA,NA,form submission,3325.103,74938.6,74938.149,74945.097,78270.2,78270.4,2023-05-14T08:13:50Z,78271.634,Inhalt,yaliyomo,s,kishawishi,hifadhi,kutembea,NA,NA,NA,NULL,NA,NA,NA,NA,NA,NA,NA,NA,NA,NA,NA,NA,NA,NA,NA,NA,NA,NA,NA
e0665,Save data screen,canvas.Screen,1_5_0_1,NA,NA,timeout,500.00899999999,78271.6,78264.663,78271.634,78764.69,78764.9,2023-05-14T08:13:51Z,78771.643,Inhalt,yaliyomo,s,kishawishi,hifadhi,kutembea,NA,NA,0,NULL,NA,NA,NA,NA,NA,NA,NA,NA,NA,NA,NA,NA,NA,NA,NA,NA,NA,NA,NA
e0665,deep,flow.Sequence,1_5_0,NA,NA,completion,3819.593,74938.6,74938.149,74945.097,78764.69,78764.9,2023-05-14T08:13:51Z,78771.643,Inhalt,yaliyomo,s,kishawishi,hifadhi,kutembea,NA,NA,NA,NULL,NA,NA,NA,NA,NA,NA,NA,NA,NA,NA,NA,NA,NA,NA,NA,NA,NA,NA,NA
e0665,task,flow.Sequence,1_5,NA,NA,completion,3819.593,74938.6,74938.149,74945.097,78764.69,78765,2023-05-14T08:13:51Z,78771.643,Inhalt,yaliyomo,s,kishawishi,hifadhi,kutembea,NA,NA,NA,NULL,NA,NA,NA,NA,NA,NA,NA,NA,NA,NA,NA,NA,NA,NA,NA,NA,NA,NA,NA
e0665,Deep Question,html.Page,1_6_0_0,NA,NA,form submission,2473.757,78765.1,78764.69,78771.643,81245.4,81245.4,2023-05-14T08:13:53Z,81250.909,Theorie,nadharia,d,ushungi,mkutano,uwakilishi,NA,NA,NA,NULL,NA,NA,NA,NA,NA,NA,NA,NA,NA,NA,NA,NA,NA,NA,NA,NA,NA,NA,NA
e0665,Save data screen,canvas.Screen,1_6_0_1,NA,NA,timeout,500.016,81245.8,81244.039,81250.909,81744.093,81744.3,2023-05-14T08:13:54Z,81750.925,Theorie,nadharia,d,ushungi,mkutano,uwakilishi,NA,NA,0,NULL,NA,NA,NA,NA,NA,NA,NA,NA,NA,NA,NA,NA,NA,NA,NA,NA,NA,NA,NA
e0665,deep,flow.Sequence,1_6_0,NA,NA,completion,2972.45,78765.1,78764.69,78771.643,81744.093,81744.4,2023-05-14T08:13:54Z,81750.925,Theorie,nadharia,d,ushungi,mkutano,uwakilishi,NA,NA,NA,NULL,NA,NA,NA,NA,NA,NA,NA,NA,NA,NA,NA,NA,NA,NA,NA,NA,NA,NA,NA
e0665,task,flow.Sequence,1_6,NA,NA,completion,2972.45,78765.1,78764.69,78771.643,81744.093,81744.4,2023-05-14T08:13:54Z,81750.925,Theorie,nadharia,d,ushungi,mkutano,uwakilishi,NA,NA,NA,NULL,NA,NA,NA,NA,NA,NA,NA,NA,NA,NA,NA,NA,NA,NA,NA,NA,NA,NA,NA
e0665,Deep Question,html.Page,1_7_0_0,NA,NA,form submission,5756.275,81744.6,81744.093,81750.925,87507.2,87507.5,2023-05-14T08:13:59Z,87508.246,Spionage,upelelezi,d,maslahi,utokazo,magangao,NA,NA,NA,NULL,NA,NA,NA,NA,NA,NA,NA,NA,NA,NA,NA,NA,NA,NA,NA,NA,NA,NA,NA
e0665,Save data screen,canvas.Screen,1_7_0_1,NA,NA,timeout,499.872,87508.7,87501.253,87508.246,88001.284,88001.5,2023-05-14T08:14:00Z,88008.118,Spionage,upelelezi,d,maslahi,utokazo,magangao,NA,NA,0,NULL,NA,NA,NA,NA,NA,NA,NA,NA,NA,NA,NA,NA,NA,NA,NA,NA,NA,NA,NA
e0665,deep,flow.Sequence,1_7_0,NA,NA,completion,6250.359,81744.5,81744.093,81750.925,88001.284,88001.6,2023-05-14T08:14:00Z,88008.118,Spionage,upelelezi,d,maslahi,utokazo,magangao,NA,NA,NA,NULL,NA,NA,NA,NA,NA,NA,NA,NA,NA,NA,NA,NA,NA,NA,NA,NA,NA,NA,NA
e0665,task,flow.Sequence,1_7,NA,NA,completion,6250.359,81744.5,81744.093,81750.925,88001.284,88001.7,2023-05-14T08:14:00Z,88008.118,Spionage,upelelezi,d,maslahi,utokazo,magangao,NA,NA,NA,NULL,NA,NA,NA,NA,NA,NA,NA,NA,NA,NA,NA,NA,NA,NA,NA,NA,NA,NA,NA
e0665,Deep Question,html.Page,1_8_0_0,NA,NA,form submission,6035.182,88001.7,88001.284,88008.118,94043.3,94043.4,2023-05-14T08:14:06Z,94050.029,Vergnügen,kichekesho,s,dubwana,mpanuko,mtesaji,NA,NA,NA,NULL,NA,NA,NA,NA,NA,NA,NA,NA,NA,NA,NA,NA,NA,NA,NA,NA,NA,NA,NA
e0665,Save data screen,canvas.Screen,1_8_0_1,NA,NA,timeout,500.016,94044.6,94036.24,94050.029,94543.215,94543.5,2023-05-14T08:14:06Z,94550.045,Vergnügen,kichekesho,s,dubwana,mpanuko,mtesaji,NA,NA,0,NULL,NA,NA,NA,NA,NA,NA,NA,NA,NA,NA,NA,NA,NA,NA,NA,NA,NA,NA,NA
e0665,deep,flow.Sequence,1_8_0,NA,NA,completion,6535.097,88001.7,88001.284,88008.118,94543.215,94543.5,2023-05-14T08:14:06Z,94550.045,Vergnügen,kichekesho,s,dubwana,mpanuko,mtesaji,NA,NA,NA,NULL,NA,NA,NA,NA,NA,NA,NA,NA,NA,NA,NA,NA,NA,NA,NA,NA,NA,NA,NA
e0665,task,flow.Sequence,1_8,NA,NA,completion,6535.097,88001.7,88001.284,88008.118,94543.215,94543.6,2023-05-14T08:14:06Z,94550.045,Vergnügen,kichekesho,s,dubwana,mpanuko,mtesaji,NA,NA,NA,NULL,NA,NA,NA,NA,NA,NA,NA,NA,NA,NA,NA,NA,NA,NA,NA,NA,NA,NA,NA
e0665,Deep Question,html.Page,1_9_0_0,NA,NA,form submission,6678.255,94543.7,94543.215,94550.045,101228.3,101228.5,2023-05-14T08:14:13Z,101230.885,Verpackung,ufungaji,s,uhusiano,upimaji,uchunguzi,NA,NA,NA,NULL,NA,NA,NA,NA,NA,NA,NA,NA,NA,NA,NA,NA,NA,NA,NA,NA,NA,NA,NA
e0665,Save data screen,canvas.Screen,1_9_0_1,NA,NA,timeout,500,101229.7,101224.046,101230.885,101724.06,101724.2,2023-05-14T08:14:14Z,101730.885,Verpackung,ufungaji,s,uhusiano,upimaji,uchunguzi,NA,NA,0,NULL,NA,NA,NA,NA,NA,NA,NA,NA,NA,NA,NA,NA,NA,NA,NA,NA,NA,NA,NA
e0665,deep,flow.Sequence,1_9_0,NA,NA,completion,7174.015,94543.6,94543.215,94550.045,101724.06,101724.4,2023-05-14T08:14:14Z,101730.885,Verpackung,ufungaji,s,uhusiano,upimaji,uchunguzi,NA,NA,NA,NULL,NA,NA,NA,NA,NA,NA,NA,NA,NA,NA,NA,NA,NA,NA,NA,NA,NA,NA,NA
e0665,task,flow.Sequence,1_9,NA,NA,completion,7174.015,94543.6,94543.215,94550.045,101724.06,101724.4,2023-05-14T08:14:14Z,101730.885,Verpackung,ufungaji,s,uhusiano,upimaji,uchunguzi,NA,NA,NA,NULL,NA,NA,NA,NA,NA,NA,NA,NA,NA,NA,NA,NA,NA,NA,NA,NA,NA,NA,NA
e0665,Deep Question,html.Page,1_10_0_0,NA,NA,form submission,1588.315,101724.5,101724.06,101730.885,103319.2,103319.3,2023-05-14T08:14:15Z,103321.389,Schüler,mwanafunzi,s,mwekezaji,matumizi,uaminifu,NA,NA,NA,NULL,NA,NA,NA,NA,NA,NA,NA,NA,NA,NA,NA,NA,NA,NA,NA,NA,NA,NA,NA
e0665,Save data screen,canvas.Screen,1_10_0_1,NA,NA,timeout,499.85500000001,103319.6,103314.275,103321.389,103814.42,103814.7,2023-05-14T08:14:16Z,103821.244,Schüler,mwanafunzi,s,mwekezaji,matumizi,uaminifu,NA,NA,0,NULL,NA,NA,NA,NA,NA,NA,NA,NA,NA,NA,NA,NA,NA,NA,NA,NA,NA,NA,NA
e0665,deep,flow.Sequence,1_10_0,NA,NA,completion,2083.535,101724.5,101724.06,101730.885,103814.42,103814.8,2023-05-14T08:14:16Z,103821.244,Schüler,mwanafunzi,s,mwekezaji,matumizi,uaminifu,NA,NA,NA,NULL,NA,NA,NA,NA,NA,NA,NA,NA,NA,NA,NA,NA,NA,NA,NA,NA,NA,NA,NA
e0665,task,flow.Sequence,1_10,NA,NA,completion,2083.535,101724.5,101724.06,101730.885,103814.42,103814.8,2023-05-14T08:14:16Z,103821.244,Schüler,mwanafunzi,s,mwekezaji,matumizi,uaminifu,NA,NA,NA,NULL,NA,NA,NA,NA,NA,NA,NA,NA,NA,NA,NA,NA,NA,NA,NA,NA,NA,NA,NA
e0665,Deep Question,html.Page,1_11_0_0,NA,NA,form submission,2331.056,103814.9,103814.42,103821.244,106152.3,106152.4,2023-05-14T08:14:18Z,106154.798,Toleranz,kuvumiliana,d,maombolezo,ujasusi,mchekeshaji,NA,NA,NA,NULL,NA,NA,NA,NA,NA,NA,NA,NA,NA,NA,NA,NA,NA,NA,NA,NA,NA,NA,NA
e0665,Save data screen,canvas.Screen,1_11_0_1,NA,NA,timeout,499.894,106153.6,106147.848,106154.798,106647.87,106648.1,2023-05-14T08:14:18Z,106654.692,Toleranz,kuvumiliana,d,maombolezo,ujasusi,mchekeshaji,NA,NA,0,NULL,NA,NA,NA,NA,NA,NA,NA,NA,NA,NA,NA,NA,NA,NA,NA,NA,NA,NA,NA
e0665,deep,flow.Sequence,1_11_0,NA,NA,completion,2826.626,103814.9,103814.42,103821.244,106647.87,106648.2,2023-05-14T08:14:18Z,106654.692,Toleranz,kuvumiliana,d,maombolezo,ujasusi,mchekeshaji,NA,NA,NA,NULL,NA,NA,NA,NA,NA,NA,NA,NA,NA,NA,NA,NA,NA,NA,NA,NA,NA,NA,NA
e0665,task,flow.Sequence,1_11,NA,NA,completion,2826.626,103814.9,103814.42,103821.244,106647.87,106648.2,2023-05-14T08:14:18Z,106654.692,Toleranz,kuvumiliana,d,maombolezo,ujasusi,mchekeshaji,NA,NA,NA,NULL,NA,NA,NA,NA,NA,NA,NA,NA,NA,NA,NA,NA,NA,NA,NA,NA,NA,NA,NA
e0665,Deep Question,html.Page,1_12_0_0,NA,NA,form submission,1453.508,106648.3,106647.87,106654.692,108108.2,108108.3,2023-05-14T08:14:20Z,108113.087,Tester,wanaojaribu,s,sherti,sihiri,mlipuko,NA,NA,NA,NULL,NA,NA,NA,NA,NA,NA,NA,NA,NA,NA,NA,NA,NA,NA,NA,NA,NA,NA,NA
e0665,Save data screen,canvas.Screen,1_12_0_1,NA,NA,timeout,500.011,108108.7,108106.115,108113.087,108606.275,108606.5,2023-05-14T08:14:20Z,108613.098,Tester,wanaojaribu,s,sherti,sihiri,mlipuko,NA,NA,0,NULL,NA,NA,NA,NA,NA,NA,NA,NA,NA,NA,NA,NA,NA,NA,NA,NA,NA,NA,NA
e0665,deep,flow.Sequence,1_12_0,NA,NA,completion,1951.583,106648.3,106647.87,106654.692,108606.275,108606.6,2023-05-14T08:14:20Z,108613.098,Tester,wanaojaribu,s,sherti,sihiri,mlipuko,NA,NA,NA,NULL,NA,NA,NA,NA,NA,NA,NA,NA,NA,NA,NA,NA,NA,NA,NA,NA,NA,NA,NA
e0665,task,flow.Sequence,1_12,NA,NA,completion,1951.583,106648.2,106647.87,106654.692,108606.275,108606.6,2023-05-14T08:14:20Z,108613.098,Tester,wanaojaribu,s,sherti,sihiri,mlipuko,NA,NA,NA,NULL,NA,NA,NA,NA,NA,NA,NA,NA,NA,NA,NA,NA,NA,NA,NA,NA,NA,NA,NA
e0665,Deep Question,html.Page,1_13_0_0,NA,NA,form submission,2013.102,108606.7,108606.275,108613.098,110626.2,110626.4,2023-05-14T08:14:22Z,110627.217,Wohlstand,mafanikio,d,chimbuko,kumbuko,mapwaji,NA,NA,NA,NULL,NA,NA,NA,NA,NA,NA,NA,NA,NA,NA,NA,NA,NA,NA,NA,NA,NA,NA,NA
e0665,Save data screen,canvas.Screen,1_13_0_1,NA,NA,timeout,499.87,110626.8,110620.136,110627.217,111120.259,111120.5,2023-05-14T08:14:23Z,111127.087,Wohlstand,mafanikio,d,chimbuko,kumbuko,mapwaji,NA,NA,0,NULL,NA,NA,NA,NA,NA,NA,NA,NA,NA,NA,NA,NA,NA,NA,NA,NA,NA,NA,NA
e0665,deep,flow.Sequence,1_13_0,NA,NA,completion,2507.161,108606.7,108606.275,108613.098,111120.259,111120.5,2023-05-14T08:14:23Z,111127.087,Wohlstand,mafanikio,d,chimbuko,kumbuko,mapwaji,NA,NA,NA,NULL,NA,NA,NA,NA,NA,NA,NA,NA,NA,NA,NA,NA,NA,NA,NA,NA,NA,NA,NA
e0665,task,flow.Sequence,1_13,NA,NA,completion,2507.161,108606.7,108606.275,108613.098,111120.259,111120.6,2023-05-14T08:14:23Z,111127.087,Wohlstand,mafanikio,d,chimbuko,kumbuko,mapwaji,NA,NA,NA,NULL,NA,NA,NA,NA,NA,NA,NA,NA,NA,NA,NA,NA,NA,NA,NA,NA,NA,NA,NA
e0665,Deep Question,html.Page,1_14_0_0,NA,NA,form submission,1767.113,111120.6,111120.259,111127.087,112894.2,112894.3,2023-05-14T08:14:25Z,112898.04,Ergänzung,kijalizo,d,ulaghai,mustarehe,matangazo,NA,NA,NA,NULL,NA,NA,NA,NA,NA,NA,NA,NA,NA,NA,NA,NA,NA,NA,NA,NA,NA,NA,NA
e0665,Save data screen,canvas.Screen,1_14_0_1,NA,NA,timeout,499.974,112894.6,112891.157,112898.04,113391.185,113391.4,2023-05-14T08:14:25Z,113398.014,Ergänzung,kijalizo,d,ulaghai,mustarehe,matangazo,NA,NA,0,NULL,NA,NA,NA,NA,NA,NA,NA,NA,NA,NA,NA,NA,NA,NA,NA,NA,NA,NA,NA
e0665,deep,flow.Sequence,1_14_0,NA,NA,completion,2264.098,111120.6,111120.259,111127.087,113391.185,113391.5,2023-05-14T08:14:25Z,113398.014,Ergänzung,kijalizo,d,ulaghai,mustarehe,matangazo,NA,NA,NA,NULL,NA,NA,NA,NA,NA,NA,NA,NA,NA,NA,NA,NA,NA,NA,NA,NA,NA,NA,NA
e0665,task,flow.Sequence,1_14,NA,NA,completion,2264.098,111120.6,111120.259,111127.087,113391.185,113391.6,2023-05-14T08:14:25Z,113398.014,Ergänzung,kijalizo,d,ulaghai,mustarehe,matangazo,NA,NA,NA,NULL,NA,NA,NA,NA,NA,NA,NA,NA,NA,NA,NA,NA,NA,NA,NA,NA,NA,NA,NA
e0665,Deep Question,html.Page,1_15_0_0,NA,NA,form submission,2526.286,113391.7,113391.185,113398.014,115924.3,115924.4,2023-05-14T08:14:28Z,115925.897,Fenster,dirisha,d,walakini,tasawari,maarifa,NA,NA,NA,NULL,NA,NA,NA,NA,NA,NA,NA,NA,NA,NA,NA,NA,NA,NA,NA,NA,NA,NA,NA
e0665,Save data screen,canvas.Screen,1_15_0_1,NA,NA,timeout,500.06300000001,115925.6,115918.927,115925.897,116419.1,116419.3,2023-05-14T08:14:28Z,116425.96,Fenster,dirisha,d,walakini,tasawari,maarifa,NA,NA,0,NULL,NA,NA,NA,NA,NA,NA,NA,NA,NA,NA,NA,NA,NA,NA,NA,NA,NA,NA,NA
e0665,deep,flow.Sequence,1_15_0,NA,NA,completion,3021.086,113391.7,113391.185,113398.014,116419.1,116419.4,2023-05-14T08:14:28Z,116425.96,Fenster,dirisha,d,walakini,tasawari,maarifa,NA,NA,NA,NULL,NA,NA,NA,NA,NA,NA,NA,NA,NA,NA,NA,NA,NA,NA,NA,NA,NA,NA,NA
e0665,task,flow.Sequence,1_15,NA,NA,completion,3021.086,113391.6,113391.185,113398.014,116419.1,116419.5,2023-05-14T08:14:28Z,116425.96,Fenster,dirisha,d,walakini,tasawari,maarifa,NA,NA,NA,NULL,NA,NA,NA,NA,NA,NA,NA,NA,NA,NA,NA,NA,NA,NA,NA,NA,NA,NA,NA
e0665,retrieval block 1 (cued recall),flow.Loop,1,NA,NA,completion,66522.716,49888.8,49881.589,49896.384,116419.1,116419.5,2023-05-14T08:14:28Z,116425.96,NA,NA,NA,NA,NA,NA,NA,NA,NA,NULL,NA,NA,NA,NA,NA,NA,NA,NA,NA,NA,NA,NA,NA,NA,NA,NA,NA,NA,NA
e0665,Shallow Question,html.Page,2_0_0_0,NA,NA,form submission,5166.44,116419.6,116419.1,116425.96,121592.4,121592.5,2023-05-14T08:14:33Z,121600.103,Inhalt,yaliyomo,s,kishawishi,hifadhi,kutembea,yaliyomo,NA,NA,"c(""distractor1"", ""distractor2"", ""distractor3"")",NA,NA,NA,NA,NA,NA,NA,NA,NA,NA,NA,NA,NA,NA,NA,NA,NA,NA,NA
e0665,Save data screen,canvas.Screen,2_0_0_1,NA,NA,timeout,499.645,121593.6,121585.965,121600.103,122092.921,122093.2,2023-05-14T08:14:34Z,122099.748,Inhalt,yaliyomo,s,kishawishi,hifadhi,kutembea,NA,NA,1,"c(""distractor1"", ""distractor2"", ""distractor3"")",NA,NA,NA,NA,NA,NA,NA,NA,NA,NA,NA,NA,NA,NA,NA,NA,NA,NA,NA
e0665,shallow,flow.Sequence,2_0_0,NA,NA,completion,5666.961,116419.6,116419.1,116425.96,122092.921,122093.3,2023-05-14T08:14:34Z,122099.748,Inhalt,yaliyomo,s,kishawishi,hifadhi,kutembea,NA,NA,NA,"c(""distractor1"", ""distractor2"", ""distractor3"")",NA,NA,NA,NA,NA,NA,NA,NA,NA,NA,NA,NA,NA,NA,NA,NA,NA,NA,NA
e0665,task,flow.Sequence,2_0,NA,NA,completion,5666.961,116419.6,116419.1,116425.96,122092.921,122093.4,2023-05-14T08:14:34Z,122099.748,Inhalt,yaliyomo,s,kishawishi,hifadhi,kutembea,NA,NA,NA,"c(""distractor1"", ""distractor2"", ""distractor3"")",NA,NA,NA,NA,NA,NA,NA,NA,NA,NA,NA,NA,NA,NA,NA,NA,NA,NA,NA
e0665,Shallow Question,html.Page,2_1_0_0,NA,NA,form submission,2343.552,122093.4,122092.921,122099.748,124443.3,124443.4,2023-05-14T08:14:36Z,124447.08,Schlange,foleni,d,uvumilivu,uteuzi,muuzaji,foleni,NA,NA,"c(""distractor1"", ""distractor2"", ""distractor3"")",NA,NA,NA,NA,NA,NA,NA,NA,NA,NA,NA,NA,NA,NA,NA,NA,NA,NA,NA
e0665,Save data screen,canvas.Screen,2_1_0_1,NA,NA,timeout,500.003,124443.8,124440.233,124447.08,124940.259,124940.5,2023-05-14T08:14:37Z,124947.083,Schlange,foleni,d,uvumilivu,uteuzi,muuzaji,NA,NA,1,"c(""distractor1"", ""distractor2"", ""distractor3"")",NA,NA,NA,NA,NA,NA,NA,NA,NA,NA,NA,NA,NA,NA,NA,NA,NA,NA,NA
e0665,shallow,flow.Sequence,2_1_0,NA,NA,completion,2840.511,122093.4,122092.921,122099.748,124940.259,124940.6,2023-05-14T08:14:37Z,124947.083,Schlange,foleni,d,uvumilivu,uteuzi,muuzaji,NA,NA,NA,"c(""distractor1"", ""distractor2"", ""distractor3"")",NA,NA,NA,NA,NA,NA,NA,NA,NA,NA,NA,NA,NA,NA,NA,NA,NA,NA,NA
e0665,task,flow.Sequence,2_1,NA,NA,completion,2840.511,122093.4,122092.921,122099.748,124940.259,124940.7,2023-05-14T08:14:37Z,124947.083,Schlange,foleni,d,uvumilivu,uteuzi,muuzaji,NA,NA,NA,"c(""distractor1"", ""distractor2"", ""distractor3"")",NA,NA,NA,NA,NA,NA,NA,NA,NA,NA,NA,NA,NA,NA,NA,NA,NA,NA,NA
e0665,Shallow Question,html.Page,2_2_0_0,NA,NA,form submission,2854.217,124940.7,124940.259,124947.083,127801.3,127801.5,2023-05-14T08:14:40Z,127808.58,Notfall,dharura,s,rairai,malalamiko,ahueni,dharura,NA,NA,"c(""distractor1"", ""distractor2"", ""distractor3"")",NA,NA,NA,NA,NA,NA,NA,NA,NA,NA,NA,NA,NA,NA,NA,NA,NA,NA,NA
e0665,Save data screen,canvas.Screen,2_2_0_1,NA,NA,timeout,499.74399999999,127802.5,127794.48,127808.58,128301.495,128301.7,2023-05-14T08:14:40Z,128308.324,Notfall,dharura,s,rairai,malalamiko,ahueni,NA,NA,1,"c(""distractor1"", ""distractor2"", ""distractor3"")",NA,NA,NA,NA,NA,NA,NA,NA,NA,NA,NA,NA,NA,NA,NA,NA,NA,NA,NA
e0665,shallow,flow.Sequence,2_2_0,NA,NA,completion,3354.412,124940.7,124940.259,124947.083,128301.495,128301.8,2023-05-14T08:14:40Z,128308.324,Notfall,dharura,s,rairai,malalamiko,ahueni,NA,NA,NA,"c(""distractor1"", ""distractor2"", ""distractor3"")",NA,NA,NA,NA,NA,NA,NA,NA,NA,NA,NA,NA,NA,NA,NA,NA,NA,NA,NA
e0665,task,flow.Sequence,2_2,NA,NA,completion,3354.412,124940.7,124940.259,124947.083,128301.495,128301.9,2023-05-14T08:14:40Z,128308.324,Notfall,dharura,s,rairai,malalamiko,ahueni,NA,NA,NA,"c(""distractor1"", ""distractor2"", ""distractor3"")",NA,NA,NA,NA,NA,NA,NA,NA,NA,NA,NA,NA,NA,NA,NA,NA,NA,NA,NA
e0665,Shallow Question,html.Page,2_3_0_0,NA,NA,form submission,4317.076,128301.9,128301.495,128308.324,132625.4,132625.5,2023-05-14T08:14:44Z,132628.042,Hoffnung,matarajio,s,kutaalamika,uratibu,mvumbuzi,uratibu,NA,NA,"c(""distractor1"", ""distractor2"", ""distractor3"")",NA,NA,NA,NA,NA,NA,NA,NA,NA,NA,NA,NA,NA,NA,NA,NA,NA,NA,NA
e0665,Save data screen,canvas.Screen,2_3_0_1,NA,NA,timeout,499.92300000001,132626.6,132621.047,132628.042,133121.142,133121.3,2023-05-14T08:14:45Z,133127.965,Hoffnung,matarajio,s,kutaalamika,uratibu,mvumbuzi,NA,NA,0,"c(""distractor1"", ""distractor2"", ""distractor3"")",NA,NA,NA,NA,NA,NA,NA,NA,NA,NA,NA,NA,NA,NA,NA,NA,NA,NA,NA
e0665,shallow,flow.Sequence,2_3_0,NA,NA,completion,4812.818,128301.9,128301.495,128308.324,133121.142,133121.4,2023-05-14T08:14:45Z,133127.965,Hoffnung,matarajio,s,kutaalamika,uratibu,mvumbuzi,NA,NA,NA,"c(""distractor1"", ""distractor2"", ""distractor3"")",NA,NA,NA,NA,NA,NA,NA,NA,NA,NA,NA,NA,NA,NA,NA,NA,NA,NA,NA
e0665,task,flow.Sequence,2_3,NA,NA,completion,4812.818,128301.9,128301.495,128308.324,133121.142,133121.6,2023-05-14T08:14:45Z,133127.965,Hoffnung,matarajio,s,kutaalamika,uratibu,mvumbuzi,NA,NA,NA,"c(""distractor1"", ""distractor2"", ""distractor3"")",NA,NA,NA,NA,NA,NA,NA,NA,NA,NA,NA,NA,NA,NA,NA,NA,NA,NA,NA
e0665,Shallow Question,html.Page,2_4_0_0,NA,NA,form submission,3666.435,133121.6,133121.142,133127.965,136794.4,136794.4,2023-05-14T08:14:49Z,136802.155,Vergnügen,kichekesho,s,dubwana,mpanuko,mtesaji,kichekesho,NA,NA,"c(""distractor1"", ""distractor2"", ""distractor3"")",NA,NA,NA,NA,NA,NA,NA,NA,NA,NA,NA,NA,NA,NA,NA,NA,NA,NA,NA
e0665,Save data screen,canvas.Screen,2_4_0_1,NA,NA,timeout,499.58199999999,136795.4,136787.896,136802.155,137294.908,137295.1,2023-05-14T08:14:49Z,137301.737,Vergnügen,kichekesho,s,dubwana,mpanuko,mtesaji,NA,NA,1,"c(""distractor1"", ""distractor2"", ""distractor3"")",NA,NA,NA,NA,NA,NA,NA,NA,NA,NA,NA,NA,NA,NA,NA,NA,NA,NA,NA
e0665,shallow,flow.Sequence,2_4_0,NA,NA,completion,4166.943,133121.6,133121.142,133127.965,137294.908,137295.3,2023-05-14T08:14:49Z,137301.737,Vergnügen,kichekesho,s,dubwana,mpanuko,mtesaji,NA,NA,NA,"c(""distractor1"", ""distractor2"", ""distractor3"")",NA,NA,NA,NA,NA,NA,NA,NA,NA,NA,NA,NA,NA,NA,NA,NA,NA,NA,NA
e0665,task,flow.Sequence,2_4,NA,NA,completion,4166.943,133121.6,133121.142,133127.965,137294.908,137295.4,2023-05-14T08:14:49Z,137301.737,Vergnügen,kichekesho,s,dubwana,mpanuko,mtesaji,NA,NA,NA,"c(""distractor1"", ""distractor2"", ""distractor3"")",NA,NA,NA,NA,NA,NA,NA,NA,NA,NA,NA,NA,NA,NA,NA,NA,NA,NA,NA
e0665,Shallow Question,html.Page,2_5_0_0,NA,NA,form submission,3655.663,137295.4,137294.908,137301.737,140957.4,140957.4,2023-05-14T08:14:53Z,140961.629,Fenster,dirisha,d,walakini,tasawari,maarifa,dirisha,NA,NA,"c(""distractor1"", ""distractor2"", ""distractor3"")",NA,NA,NA,NA,NA,NA,NA,NA,NA,NA,NA,NA,NA,NA,NA,NA,NA,NA,NA
e0665,Save data screen,canvas.Screen,2_5_0_1,NA,NA,timeout,499.99400000001,140958.6,140954.726,140961.629,141454.798,141455,2023-05-14T08:14:53Z,141461.623,Fenster,dirisha,d,walakini,tasawari,maarifa,NA,NA,1,"c(""distractor1"", ""distractor2"", ""distractor3"")",NA,NA,NA,NA,NA,NA,NA,NA,NA,NA,NA,NA,NA,NA,NA,NA,NA,NA,NA
e0665,shallow,flow.Sequence,2_5_0,NA,NA,completion,4153.061,137295.4,137294.908,137301.737,141454.798,141455,2023-05-14T08:14:53Z,141461.623,Fenster,dirisha,d,walakini,tasawari,maarifa,NA,NA,NA,"c(""distractor1"", ""distractor2"", ""distractor3"")",NA,NA,NA,NA,NA,NA,NA,NA,NA,NA,NA,NA,NA,NA,NA,NA,NA,NA,NA
e0665,task,flow.Sequence,2_5,NA,NA,completion,4153.061,137295.4,137294.908,137301.737,141454.798,141455.1,2023-05-14T08:14:53Z,141461.623,Fenster,dirisha,d,walakini,tasawari,maarifa,NA,NA,NA,"c(""distractor1"", ""distractor2"", ""distractor3"")",NA,NA,NA,NA,NA,NA,NA,NA,NA,NA,NA,NA,NA,NA,NA,NA,NA,NA,NA
e0665,Shallow Question,html.Page,2_6_0_0,NA,NA,form submission,8155.677,141455.2,141454.798,141461.623,149617.3,149617.5,2023-05-14T08:15:01Z,149621.724,Theorie,nadharia,d,ushungi,mkutano,uwakilishi,nadharia,NA,NA,"c(""distractor1"", ""distractor2"", ""distractor3"")",NA,NA,NA,NA,NA,NA,NA,NA,NA,NA,NA,NA,NA,NA,NA,NA,NA,NA,NA
e0665,Save data screen,canvas.Screen,2_6_0_1,NA,NA,timeout,499.96800000002,149618.8,149614.8,149621.724,150114.865,150115.1,2023-05-14T08:15:02Z,150121.692,Theorie,nadharia,d,ushungi,mkutano,uwakilishi,NA,NA,1,"c(""distractor1"", ""distractor2"", ""distractor3"")",NA,NA,NA,NA,NA,NA,NA,NA,NA,NA,NA,NA,NA,NA,NA,NA,NA,NA,NA
e0665,shallow,flow.Sequence,2_6_0,NA,NA,completion,8653.242,141455.2,141454.798,141461.623,150114.865,150115.2,2023-05-14T08:15:02Z,150121.692,Theorie,nadharia,d,ushungi,mkutano,uwakilishi,NA,NA,NA,"c(""distractor1"", ""distractor2"", ""distractor3"")",NA,NA,NA,NA,NA,NA,NA,NA,NA,NA,NA,NA,NA,NA,NA,NA,NA,NA,NA
e0665,task,flow.Sequence,2_6,NA,NA,completion,8653.242,141455.2,141454.798,141461.623,150114.865,150115.3,2023-05-14T08:15:02Z,150121.692,Theorie,nadharia,d,ushungi,mkutano,uwakilishi,NA,NA,NA,"c(""distractor1"", ""distractor2"", ""distractor3"")",NA,NA,NA,NA,NA,NA,NA,NA,NA,NA,NA,NA,NA,NA,NA,NA,NA,NA,NA
e0665,Shallow Question,html.Page,2_7_0_0,NA,NA,form submission,2762.508,150115.3,150114.865,150121.692,152884.2,152884.4,2023-05-14T08:15:05Z,152885.839,Vermutung,udhanifu,s,haramia,tikisho,itifaki,udhanifu,NA,NA,"c(""distractor1"", ""distractor2"", ""distractor3"")",NA,NA,NA,NA,NA,NA,NA,NA,NA,NA,NA,NA,NA,NA,NA,NA,NA,NA,NA
e0665,Save data screen,canvas.Screen,2_7_0_1,NA,NA,timeout,499.86799999999,152884.7,152878.822,152885.839,153378.88,153379,2023-05-14T08:15:05Z,153385.707,Vermutung,udhanifu,s,haramia,tikisho,itifaki,NA,NA,1,"c(""distractor1"", ""distractor2"", ""distractor3"")",NA,NA,NA,NA,NA,NA,NA,NA,NA,NA,NA,NA,NA,NA,NA,NA,NA,NA,NA
e0665,shallow,flow.Sequence,2_7_0,NA,NA,completion,3257.188,150115.3,150114.865,150121.692,153378.88,153379.2,2023-05-14T08:15:05Z,153385.707,Vermutung,udhanifu,s,haramia,tikisho,itifaki,NA,NA,NA,"c(""distractor1"", ""distractor2"", ""distractor3"")",NA,NA,NA,NA,NA,NA,NA,NA,NA,NA,NA,NA,NA,NA,NA,NA,NA,NA,NA
e0665,task,flow.Sequence,2_7,NA,NA,completion,3257.188,150115.3,150114.865,150121.692,153378.88,153379.3,2023-05-14T08:15:05Z,153385.707,Vermutung,udhanifu,s,haramia,tikisho,itifaki,NA,NA,NA,"c(""distractor1"", ""distractor2"", ""distractor3"")",NA,NA,NA,NA,NA,NA,NA,NA,NA,NA,NA,NA,NA,NA,NA,NA,NA,NA,NA
e0665,Shallow Question,html.Page,2_8_0_0,NA,NA,form submission,4313.593,153379.4,153378.88,153385.707,157699.3,157699.5,2023-05-14T08:15:10Z,157705.349,Toleranz,kuvumiliana,d,maombolezo,ujasusi,mchekeshaji,kuvumiliana,NA,NA,"c(""distractor1"", ""distractor2"", ""distractor3"")",NA,NA,NA,NA,NA,NA,NA,NA,NA,NA,NA,NA,NA,NA,NA,NA,NA,NA,NA
e0665,Save data screen,canvas.Screen,2_8_0_1,NA,NA,timeout,499.99100000001,157700.6,157698.446,157705.349,158198.515,158198.7,2023-05-14T08:15:10Z,158205.34,Toleranz,kuvumiliana,d,maombolezo,ujasusi,mchekeshaji,NA,NA,1,"c(""distractor1"", ""distractor2"", ""distractor3"")",NA,NA,NA,NA,NA,NA,NA,NA,NA,NA,NA,NA,NA,NA,NA,NA,NA,NA,NA
e0665,shallow,flow.Sequence,2_8_0,NA,NA,completion,4812.808,153379.3,153378.88,153385.707,158198.515,158198.8,2023-05-14T08:15:10Z,158205.34,Toleranz,kuvumiliana,d,maombolezo,ujasusi,mchekeshaji,NA,NA,NA,"c(""distractor1"", ""distractor2"", ""distractor3"")",NA,NA,NA,NA,NA,NA,NA,NA,NA,NA,NA,NA,NA,NA,NA,NA,NA,NA,NA
e0665,task,flow.Sequence,2_8,NA,NA,completion,4812.808,153379.3,153378.88,153385.707,158198.515,158198.9,2023-05-14T08:15:10Z,158205.34,Toleranz,kuvumiliana,d,maombolezo,ujasusi,mchekeshaji,NA,NA,NA,"c(""distractor1"", ""distractor2"", ""distractor3"")",NA,NA,NA,NA,NA,NA,NA,NA,NA,NA,NA,NA,NA,NA,NA,NA,NA,NA,NA
e0665,Shallow Question,html.Page,2_9_0_0,NA,NA,form submission,2472.86,158198.9,158198.515,158205.34,160678.2,160678.4,2023-05-14T08:15:13Z,160684.635,Schock,mshtuko,d,biashara,kukataza,vichekesho,mshtuko,NA,NA,"c(""distractor1"", ""distractor2"", ""distractor3"")",NA,NA,NA,NA,NA,NA,NA,NA,NA,NA,NA,NA,NA,NA,NA,NA,NA,NA,NA
e0665,Save data screen,canvas.Screen,2_9_0_1,NA,NA,timeout,500.00099999999,160678.7,160677.741,160684.635,161177.799,161178,2023-05-14T08:15:13Z,161184.636,Schock,mshtuko,d,biashara,kukataza,vichekesho,NA,NA,1,"c(""distractor1"", ""distractor2"", ""distractor3"")",NA,NA,NA,NA,NA,NA,NA,NA,NA,NA,NA,NA,NA,NA,NA,NA,NA,NA,NA
e0665,shallow,flow.Sequence,2_9_0,NA,NA,completion,2972.459,158198.9,158198.515,158205.34,161177.799,161178.1,2023-05-14T08:15:13Z,161184.636,Schock,mshtuko,d,biashara,kukataza,vichekesho,NA,NA,NA,"c(""distractor1"", ""distractor2"", ""distractor3"")",NA,NA,NA,NA,NA,NA,NA,NA,NA,NA,NA,NA,NA,NA,NA,NA,NA,NA,NA
e0665,task,flow.Sequence,2_9,NA,NA,completion,2972.459,158198.9,158198.515,158205.34,161177.799,161178.2,2023-05-14T08:15:13Z,161184.636,Schock,mshtuko,d,biashara,kukataza,vichekesho,NA,NA,NA,"c(""distractor1"", ""distractor2"", ""distractor3"")",NA,NA,NA,NA,NA,NA,NA,NA,NA,NA,NA,NA,NA,NA,NA,NA,NA,NA,NA
e0665,Shallow Question,html.Page,2_10_0_0,NA,NA,form submission,3833.564,161178.2,161177.799,161184.636,165018.2,165018.4,2023-05-14T08:15:17Z,165025.226,Schüler,mwanafunzi,s,mwekezaji,matumizi,uaminifu,mwanafunzi,NA,NA,"c(""distractor1"", ""distractor2"", ""distractor3"")",NA,NA,NA,NA,NA,NA,NA,NA,NA,NA,NA,NA,NA,NA,NA,NA,NA,NA,NA
e0665,Save data screen,canvas.Screen,2_10_0_1,NA,NA,timeout,499.84900000002,165019.5,165011.236,165025.226,165518.251,165518.4,2023-05-14T08:15:17Z,165525.075,Schüler,mwanafunzi,s,mwekezaji,matumizi,uaminifu,NA,NA,1,"c(""distractor1"", ""distractor2"", ""distractor3"")",NA,NA,NA,NA,NA,NA,NA,NA,NA,NA,NA,NA,NA,NA,NA,NA,NA,NA,NA
e0665,shallow,flow.Sequence,2_10_0,NA,NA,completion,4333.615,161178.2,161177.799,161184.636,165518.251,165518.6,2023-05-14T08:15:17Z,165525.075,Schüler,mwanafunzi,s,mwekezaji,matumizi,uaminifu,NA,NA,NA,"c(""distractor1"", ""distractor2"", ""distractor3"")",NA,NA,NA,NA,NA,NA,NA,NA,NA,NA,NA,NA,NA,NA,NA,NA,NA,NA,NA
e0665,task,flow.Sequence,2_10,NA,NA,completion,4333.615,161178.2,161177.799,161184.636,165518.251,165518.6,2023-05-14T08:15:17Z,165525.075,Schüler,mwanafunzi,s,mwekezaji,matumizi,uaminifu,NA,NA,NA,"c(""distractor1"", ""distractor2"", ""distractor3"")",NA,NA,NA,NA,NA,NA,NA,NA,NA,NA,NA,NA,NA,NA,NA,NA,NA,NA,NA
e0665,Shallow Question,html.Page,2_11_0_0,NA,NA,form submission,4316.225,165518.7,165518.251,165525.075,169841.3,169841.4,2023-05-14T08:15:22Z,169844.844,Verpackung,ufungaji,s,uhusiano,upimaji,uchunguzi,ufungaji,NA,NA,"c(""distractor1"", ""distractor2"", ""distractor3"")",NA,NA,NA,NA,NA,NA,NA,NA,NA,NA,NA,NA,NA,NA,NA,NA,NA,NA,NA
e0665,Save data screen,canvas.Screen,2_11_0_1,NA,NA,timeout,499.867,169842.5,169837.815,169844.844,170337.884,170338.1,2023-05-14T08:15:22Z,170344.711,Verpackung,ufungaji,s,uhusiano,upimaji,uchunguzi,NA,NA,1,"c(""distractor1"", ""distractor2"", ""distractor3"")",NA,NA,NA,NA,NA,NA,NA,NA,NA,NA,NA,NA,NA,NA,NA,NA,NA,NA,NA
e0665,shallow,flow.Sequence,2_11_0,NA,NA,completion,4812.809,165518.6,165518.251,165525.075,170337.884,170338.2,2023-05-14T08:15:22Z,170344.711,Verpackung,ufungaji,s,uhusiano,upimaji,uchunguzi,NA,NA,NA,"c(""distractor1"", ""distractor2"", ""distractor3"")",NA,NA,NA,NA,NA,NA,NA,NA,NA,NA,NA,NA,NA,NA,NA,NA,NA,NA,NA
e0665,task,flow.Sequence,2_11,NA,NA,completion,4812.809,165518.6,165518.251,165525.075,170337.884,170338.3,2023-05-14T08:15:22Z,170344.711,Verpackung,ufungaji,s,uhusiano,upimaji,uchunguzi,NA,NA,NA,"c(""distractor1"", ""distractor2"", ""distractor3"")",NA,NA,NA,NA,NA,NA,NA,NA,NA,NA,NA,NA,NA,NA,NA,NA,NA,NA,NA
e0665,Shallow Question,html.Page,2_12_0_0,NA,NA,form submission,2145.589,170338.4,170337.884,170344.711,172490.3,172490.4,2023-05-14T08:15:24Z,172498.268,Wohlstand,mafanikio,d,chimbuko,kumbuko,mapwaji,mafanikio,NA,NA,"c(""distractor1"", ""distractor2"", ""distractor3"")",NA,NA,NA,NA,NA,NA,NA,NA,NA,NA,NA,NA,NA,NA,NA,NA,NA,NA,NA
e0665,Save data screen,canvas.Screen,2_12_0_1,NA,NA,timeout,499.32299999997,172490.8,172483.737,172498.268,172990.771,172991,2023-05-14T08:15:25Z,172997.591,Wohlstand,mafanikio,d,chimbuko,kumbuko,mapwaji,NA,NA,1,"c(""distractor1"", ""distractor2"", ""distractor3"")",NA,NA,NA,NA,NA,NA,NA,NA,NA,NA,NA,NA,NA,NA,NA,NA,NA,NA,NA
e0665,shallow,flow.Sequence,2_12_0,NA,NA,completion,2646.06,170338.3,170337.884,170344.711,172990.771,172991.1,2023-05-14T08:15:25Z,172997.591,Wohlstand,mafanikio,d,chimbuko,kumbuko,mapwaji,NA,NA,NA,"c(""distractor1"", ""distractor2"", ""distractor3"")",NA,NA,NA,NA,NA,NA,NA,NA,NA,NA,NA,NA,NA,NA,NA,NA,NA,NA,NA
e0665,task,flow.Sequence,2_12,NA,NA,completion,2646.06,170338.3,170337.884,170344.711,172990.771,172991.1,2023-05-14T08:15:25Z,172997.591,Wohlstand,mafanikio,d,chimbuko,kumbuko,mapwaji,NA,NA,NA,"c(""distractor1"", ""distractor2"", ""distractor3"")",NA,NA,NA,NA,NA,NA,NA,NA,NA,NA,NA,NA,NA,NA,NA,NA,NA,NA,NA
e0665,Shallow Question,html.Page,2_13_0_0,NA,NA,form submission,5277.709,172991.1,172990.771,172997.591,178275.3,178275.5,2023-05-14T08:15:30Z,178283.382,Ergänzung,kijalizo,d,ulaghai,mustarehe,matangazo,kijalizo,NA,NA,"c(""distractor1"", ""distractor2"", ""distractor3"")",NA,NA,NA,NA,NA,NA,NA,NA,NA,NA,NA,NA,NA,NA,NA,NA,NA,NA,NA
e0665,Save data screen,canvas.Screen,2_13_0_1,NA,NA,timeout,499.163,178276.5,178268.707,178283.382,178775.723,178775.9,2023-05-14T08:15:31Z,178782.545,Ergänzung,kijalizo,d,ulaghai,mustarehe,matangazo,NA,NA,1,"c(""distractor1"", ""distractor2"", ""distractor3"")",NA,NA,NA,NA,NA,NA,NA,NA,NA,NA,NA,NA,NA,NA,NA,NA,NA,NA,NA
e0665,shallow,flow.Sequence,2_13_0,NA,NA,completion,5778.132,172991.1,172990.771,172997.591,178775.723,178776,2023-05-14T08:15:31Z,178782.545,Ergänzung,kijalizo,d,ulaghai,mustarehe,matangazo,NA,NA,NA,"c(""distractor1"", ""distractor2"", ""distractor3"")",NA,NA,NA,NA,NA,NA,NA,NA,NA,NA,NA,NA,NA,NA,NA,NA,NA,NA,NA
e0665,task,flow.Sequence,2_13,NA,NA,completion,5778.132,172991.1,172990.771,172997.591,178775.723,178776.1,2023-05-14T08:15:31Z,178782.545,Ergänzung,kijalizo,d,ulaghai,mustarehe,matangazo,NA,NA,NA,"c(""distractor1"", ""distractor2"", ""distractor3"")",NA,NA,NA,NA,NA,NA,NA,NA,NA,NA,NA,NA,NA,NA,NA,NA,NA,NA,NA
e0665,Shallow Question,html.Page,2_14_0_0,NA,NA,form submission,2894.855,178776.1,178775.723,178782.545,181677.4,181677.5,2023-05-14T08:15:34Z,181678.655,Tester,wanaojaribu,s,sherti,sihiri,mlipuko,wanaojaribu,NA,NA,"c(""distractor1"", ""distractor2"", ""distractor3"")",NA,NA,NA,NA,NA,NA,NA,NA,NA,NA,NA,NA,NA,NA,NA,NA,NA,NA,NA
e0665,Save data screen,canvas.Screen,2_14_0_1,NA,NA,timeout,499.859,181678.8,181671.625,181678.655,182171.69,182171.8,2023-05-14T08:15:34Z,182178.514,Tester,wanaojaribu,s,sherti,sihiri,mlipuko,NA,NA,1,"c(""distractor1"", ""distractor2"", ""distractor3"")",NA,NA,NA,NA,NA,NA,NA,NA,NA,NA,NA,NA,NA,NA,NA,NA,NA,NA,NA
e0665,shallow,flow.Sequence,2_14_0,NA,NA,completion,3389.145,178776.1,178775.723,178782.545,182171.69,182172,2023-05-14T08:15:34Z,182178.514,Tester,wanaojaribu,s,sherti,sihiri,mlipuko,NA,NA,NA,"c(""distractor1"", ""distractor2"", ""distractor3"")",NA,NA,NA,NA,NA,NA,NA,NA,NA,NA,NA,NA,NA,NA,NA,NA,NA,NA,NA
e0665,task,flow.Sequence,2_14,NA,NA,completion,3389.145,178776.1,178775.723,178782.545,182171.69,182172,2023-05-14T08:15:34Z,182178.514,Tester,wanaojaribu,s,sherti,sihiri,mlipuko,NA,NA,NA,"c(""distractor1"", ""distractor2"", ""distractor3"")",NA,NA,NA,NA,NA,NA,NA,NA,NA,NA,NA,NA,NA,NA,NA,NA,NA,NA,NA
e0665,Shallow Question,html.Page,2_15_0_0,NA,NA,form submission,4426.786,182172.2,182171.69,182178.514,186605.3,186605.4,2023-05-14T08:15:38Z,186609.357,Spionage,upelelezi,d,maslahi,utokazo,magangao,upelelezi,NA,NA,"c(""distractor1"", ""distractor2"", ""distractor3"")",NA,NA,NA,NA,NA,NA,NA,NA,NA,NA,NA,NA,NA,NA,NA,NA,NA,NA,NA
e0665,Save data screen,canvas.Screen,2_15_0_1,NA,NA,timeout,499.899,186606.4,186602.382,186609.357,187102.435,187102.6,2023-05-14T08:15:39Z,187109.256,Spionage,upelelezi,d,maslahi,utokazo,magangao,NA,NA,1,"c(""distractor1"", ""distractor2"", ""distractor3"")",NA,NA,NA,NA,NA,NA,NA,NA,NA,NA,NA,NA,NA,NA,NA,NA,NA,NA,NA
e0665,shallow,flow.Sequence,2_15_0,NA,NA,completion,4923.921,182172.1,182171.69,182178.514,187102.435,187102.7,2023-05-14T08:15:39Z,187109.256,Spionage,upelelezi,d,maslahi,utokazo,magangao,NA,NA,NA,"c(""distractor1"", ""distractor2"", ""distractor3"")",NA,NA,NA,NA,NA,NA,NA,NA,NA,NA,NA,NA,NA,NA,NA,NA,NA,NA,NA
e0665,task,flow.Sequence,2_15,NA,NA,completion,4923.921,182172.1,182171.69,182178.514,187102.435,187102.8,2023-05-14T08:15:39Z,187109.256,Spionage,upelelezi,d,maslahi,utokazo,magangao,NA,NA,NA,"c(""distractor1"", ""distractor2"", ""distractor3"")",NA,NA,NA,NA,NA,NA,NA,NA,NA,NA,NA,NA,NA,NA,NA,NA,NA,NA,NA
e0665,retrieval block 2 (multiple choice),flow.Loop,2,NA,NA,completion,70676.475,116419.5,116419.1,116425.96,187102.435,187102.9,2023-05-14T08:15:39Z,187109.256,NA,NA,NA,NA,NA,NA,NA,NA,NA,"c(""distractor1"", ""distractor2"", ""distractor3"")",NA,NA,NA,NA,NA,NA,NA,NA,NA,NA,NA,NA,NA,NA,NA,NA,NA,NA,NA
e0665,End,canvas.Screen,3,NA,keypress(Space),response,1192.544,187103,187102.435,187109.256,188301.8,188302.2,2023-05-14T08:15:40Z,188303.916,NA,NA,NA,NA,NA,NA,NA,NA,NA,NULL,NA,NA,NA,NA,NA,NA,NA,NA,NA,NA,NA,NA,NA,NA,NA,NA,NA,NA,NA
e0665,root,flow.Sequence,NA,NA,NA,completion,188047.186,246.60000000001,129.633,254.614,188301.8,188302.4,2023-05-14T08:15:40Z,188303.916,NA,NA,NA,NA,NA,NA,NA,NA,NA,NULL,NA,NA,NA,NA,NA,NA,NA,NA,NA,NA,NA,NA,NA,NA,NA,NA,NA,NA,NA
